"user.name";"user.yearOfBirth";"user.sex";"user.osName";"module.name";"module.version";"module.online.subject.code";"module.online.study.id";"module.online.module.nr";"module.online.group.nr";"session.id";"session.index";"session.startTime";"session.endTime";"session.completed";"session.node-1473.DPorder";"session.node-7244.conditionType";"trial.id";"trial.index";"trial.name";"trial.DP_block1.durationTime";"trial.DP_block1.endTime";"trial.DP_block1.outcome";"trial.DP_block1.probeLoc";"trial.DP_block1.response";"trial.DP_block1.result";"trial.DP_block1.RT";"trial.DP_block1.startTime";"trial.DP_block1.stimDuration";"trial.DP_block1.wordLeft";"trial.DP_block1.wordRight";"trial.DP_block2.durationTime";"trial.DP_block2.endTime";"trial.DP_block2.outcome";"trial.DP_block2.probeLoc";"trial.DP_block2.response";"trial.DP_block2.result";"trial.DP_block2.RT";"trial.DP_block2.startTime";"trial.DP_block2.stimDuration";"trial.DP_block2.wordLeft";"trial.DP_block2.wordRight";"trial.DP_block3.durationTime";"trial.DP_block3.endTime";"trial.DP_block3.outcome";"trial.DP_block3.probeLoc";"trial.DP_block3.response";"trial.DP_block3.result";"trial.DP_block3.RT";"trial.DP_block3.startTime";"trial.DP_block3.stimDuration";"trial.DP_block3.wordLeft";"trial.DP_block3.wordRight";"trial.DP_practice.durationTime";"trial.DP_practice.endTime";"trial.DP_practice.outcome";"trial.DP_practice.probeLoc";"trial.DP_practice.response";"trial.DP_practice.result";"trial.DP_practice.RT";"trial.DP_practice.startTime";"trial.DP_practice.stimDuration";"trial.DP_practice.wordLeft";"trial.DP_practice.wordRight";"trial.GoNoGo1.durationTime";"trial.GoNoGo1.endTime";"trial.GoNoGo1.Error Type";"trial.GoNoGo1.icon";"trial.GoNoGo1.location";"trial.GoNoGo1.outcome";"trial.GoNoGo1.response";"trial.GoNoGo1.result";"trial.GoNoGo1.RT";"trial.GoNoGo1.signal";"trial.GoNoGo1.startTime";"trial.GoNoGo1.stimulus type";"trial.GoNoGo2.durationTime";"trial.GoNoGo2.endTime";"trial.GoNoGo2.Error Type";"trial.GoNoGo2.icon";"trial.GoNoGo2.location";"trial.GoNoGo2.outcome";"trial.GoNoGo2.response";"trial.GoNoGo2.result";"trial.GoNoGo2.RT";"trial.GoNoGo2.signal";"trial.GoNoGo2.startTime";"trial.GoNoGo2.stimulus type";"trial.GoNoGo3.durationTime";"trial.GoNoGo3.endTime";"trial.GoNoGo3.Error Type";"trial.GoNoGo3.icon";"trial.GoNoGo3.location";"trial.GoNoGo3.outcome";"trial.GoNoGo3.response";"trial.GoNoGo3.result";"trial.GoNoGo3.RT";"trial.GoNoGo3.signal";"trial.GoNoGo3.startTime";"trial.GoNoGo3.stimulus type";"trial.GoNoGo4.durationTime";"trial.GoNoGo4.endTime";"trial.GoNoGo4.Error Type";"trial.GoNoGo4.icon";"trial.GoNoGo4.location";"trial.GoNoGo4.outcome";"trial.GoNoGo4.response";"trial.GoNoGo4.result";"trial.GoNoGo4.RT";"trial.GoNoGo4.signal";"trial.GoNoGo4.startTime";"trial.GoNoGo4.stimulus type";"trial.GoNoGo_Practice.durationTime";"trial.GoNoGo_Practice.endTime";"trial.GoNoGo_Practice.icon";"trial.GoNoGo_Practice.location";"trial.GoNoGo_Practice.outcome";"trial.GoNoGo_Practice.response";"trial.GoNoGo_Practice.result";"trial.GoNoGo_Practice.RT";"trial.GoNoGo_Practice.signal";"trial.GoNoGo_Practice.startTime";"trial.GoNoGo_Practice.stimulus type";"trial.GoNoGo_Tutorial.durationTime";"trial.GoNoGo_Tutorial.endTime";"trial.GoNoGo_Tutorial.icon";"trial.GoNoGo_Tutorial.location";"trial.GoNoGo_Tutorial.outcome";"trial.GoNoGo_Tutorial.response";"trial.GoNoGo_Tutorial.result";"trial.GoNoGo_Tutorial.RT";"trial.GoNoGo_Tutorial.signal";"trial.GoNoGo_Tutorial.startTime"
"cw1963";"1963";;"Windows 7";"Rachel's Experiment (DP)";"1.0";"3";"1";"1";"3";"2";"1";"2015-02-24 16:15:18.924";"2015-02-24 16:33:17.451";"1";"4";"0";"496";"0";"module.GoNoGotutorial.exec-2648.GoNoGo_Tutorial";;;;;;;;;;;;;;;;;;;;;;;;;;;;;;;;;;;;;;;;;;;;;;;;;;;;;;;;;;;;;;;;;;;;;;;;;;;;;;;;;;;;;;;;;;;;;;;;;;;;;;;;"4000";"2015-02-24 16:15:28.785";"leftResponse";"0";"FINISHED";"LEFT";"success";"1041";"0";"2015-02-24 16:15:24.785"
"cw1963";"1963";;"Windows 7";"Rachel's Experiment (DP)";"1.0";"3";"1";"1";"3";"2";"1";"2015-02-24 16:15:18.924";"2015-02-24 16:33:17.451";"1";"4";"0";"497";"1";"module.GoNoGotutorial.exec-2648.GoNoGo_Tutorial";;;;;;;;;;;;;;;;;;;;;;;;;;;;;;;;;;;;;;;;;;;;;;;;;;;;;;;;;;;;;;;;;;;;;;;;;;;;;;;;;;;;;;;;;;;;;;;;;;;;;;;;"3996";"2015-02-24 16:15:34.135";"rightResponse";"1";"FINISHED";"RIGHT";"success";"388";"0";"2015-02-24 16:15:30.135"
"cw1963";"1963";;"Windows 7";"Rachel's Experiment (DP)";"1.0";"3";"1";"1";"3";"2";"1";"2015-02-24 16:15:18.924";"2015-02-24 16:33:17.451";"1";"4";"0";"498";"2";"module.GoNoGotutorial.exec-2648.GoNoGo_Tutorial";;;;;;;;;;;;;;;;;;;;;;;;;;;;;;;;;;;;;;;;;;;;;;;;;;;;;;;;;;;;;;;;;;;;;;;;;;;;;;;;;;;;;;;;;;;;;;;;;;;;;;;;"4001";"2015-02-24 16:15:39.473";"quickResponse";"0";"FINISHED";"LEFT";"success";"837";"0";"2015-02-24 16:15:35.466"
"cw1963";"1963";;"Windows 7";"Rachel's Experiment (DP)";"1.0";"3";"1";"1";"3";"2";"1";"2015-02-24 16:15:18.924";"2015-02-24 16:33:17.451";"1";"4";"0";"499";"3";"module.GoNoGopractice.exec-3291.GoNoGo_Practice";;;;;;;;;;;;;;;;;;;;;;;;;;;;;;;;;;;;;;;;;;;;;;;;;;;;;;;;;;;;;;;;;;;;;;;;;;;;;;;;;;;;;;;;;;;;;"1968";"2015-02-24 16:15:46.763";"18";"0";"FINISHED";"LEFT";"success";"606";"0";"2015-02-24 16:15:44.793";"3";;;;;;;;;;
"cw1963";"1963";;"Windows 7";"Rachel's Experiment (DP)";"1.0";"3";"1";"1";"3";"2";"1";"2015-02-24 16:15:18.924";"2015-02-24 16:33:17.451";"1";"4";"0";"500";"4";"module.GoNoGopractice.exec-3291.GoNoGo_Practice";;;;;;;;;;;;;;;;;;;;;;;;;;;;;;;;;;;;;;;;;;;;;;;;;;;;;;;;;;;;;;;;;;;;;;;;;;;;;;;;;;;;;;;;;;;;;"1946";"2015-02-24 16:15:50.043";"21";"1";"FINISHED";"RIGHT";"success";"374";"0";"2015-02-24 16:15:48.093";"3";;;;;;;;;;
"cw1963";"1963";;"Windows 7";"Rachel's Experiment (DP)";"1.0";"3";"1";"1";"3";"2";"1";"2015-02-24 16:15:18.924";"2015-02-24 16:33:17.451";"1";"4";"0";"501";"5";"module.GoNoGopractice.exec-3291.GoNoGo_Practice";;;;;;;;;;;;;;;;;;;;;;;;;;;;;;;;;;;;;;;;;;;;;;;;;;;;;;;;;;;;;;;;;;;;;;;;;;;;;;;;;;;;;;;;;;;;;"1941";"2015-02-24 16:15:53.313";"14";"1";"FINISHED";"RIGHT";"success";"487";"0";"2015-02-24 16:15:51.363";"2";;;;;;;;;;
"cw1963";"1963";;"Windows 7";"Rachel's Experiment (DP)";"1.0";"3";"1";"1";"3";"2";"1";"2015-02-24 16:15:18.924";"2015-02-24 16:33:17.451";"1";"4";"0";"502";"6";"module.GoNoGopractice.exec-3291.GoNoGo_Practice";;;;;;;;;;;;;;;;;;;;;;;;;;;;;;;;;;;;;;;;;;;;;;;;;;;;;;;;;;;;;;;;;;;;;;;;;;;;;;;;;;;;;;;;;;;;;"1946";"2015-02-24 16:15:56.583";"26";"0";"FINISHED";"LEFT";"success";"382";"0";"2015-02-24 16:15:54.633";"3";;;;;;;;;;
"cw1963";"1963";;"Windows 7";"Rachel's Experiment (DP)";"1.0";"3";"1";"1";"3";"2";"1";"2015-02-24 16:15:18.924";"2015-02-24 16:33:17.451";"1";"4";"0";"503";"7";"module.GoNoGopractice.exec-3291.GoNoGo_Practice";;;;;;;;;;;;;;;;;;;;;;;;;;;;;;;;;;;;;;;;;;;;;;;;;;;;;;;;;;;;;;;;;;;;;;;;;;;;;;;;;;;;;;;;;;;;;"1941";"2015-02-24 16:15:59.834";"2";"0";"FINISHED";"LEFT";"success";"542";"0";"2015-02-24 16:15:57.884";"1";;;;;;;;;;
"cw1963";"1963";;"Windows 7";"Rachel's Experiment (DP)";"1.0";"3";"1";"1";"3";"2";"1";"2015-02-24 16:15:18.924";"2015-02-24 16:33:17.451";"1";"4";"0";"504";"8";"module.GoNoGopractice.exec-3291.GoNoGo_Practice";;;;;;;;;;;;;;;;;;;;;;;;;;;;;;;;;;;;;;;;;;;;;;;;;;;;;;;;;;;;;;;;;;;;;;;;;;;;;;;;;;;;;;;;;;;;;"1949";"2015-02-24 16:16:03.104";"30";"0";"FINISHED";"LEFT";"success";"490";"0";"2015-02-24 16:16:01.154";"3";;;;;;;;;;
"cw1963";"1963";;"Windows 7";"Rachel's Experiment (DP)";"1.0";"3";"1";"1";"3";"2";"1";"2015-02-24 16:15:18.924";"2015-02-24 16:33:17.451";"1";"4";"0";"505";"9";"module.GoNoGopractice.exec-3291.GoNoGo_Practice";;;;;;;;;;;;;;;;;;;;;;;;;;;;;;;;;;;;;;;;;;;;;;;;;;;;;;;;;;;;;;;;;;;;;;;;;;;;;;;;;;;;;;;;;;;;;"1946";"2015-02-24 16:16:06.388";"6";"1";"FINISHED";"RIGHT";"success";"384";"0";"2015-02-24 16:16:04.434";"1";;;;;;;;;;
"cw1963";"1963";;"Windows 7";"Rachel's Experiment (DP)";"1.0";"3";"1";"1";"3";"2";"1";"2015-02-24 16:15:18.924";"2015-02-24 16:33:17.451";"1";"4";"0";"506";"10";"module.GoNoGopractice.exec-3291.GoNoGo_Practice";;;;;;;;;;;;;;;;;;;;;;;;;;;;;;;;;;;;;;;;;;;;;;;;;;;;;;;;;;;;;;;;;;;;;;;;;;;;;;;;;;;;;;;;;;;;;"1942";"2015-02-24 16:16:09.629";"34";"0";"FINISHED";"LEFT";"success";"460";"0";"2015-02-24 16:16:07.679";"3";;;;;;;;;;
"cw1963";"1963";;"Windows 7";"Rachel's Experiment (DP)";"1.0";"3";"1";"1";"3";"2";"1";"2015-02-24 16:15:18.924";"2015-02-24 16:33:17.451";"1";"4";"0";"507";"11";"module.GoNoGopractice.exec-3291.GoNoGo_Practice";;;;;;;;;;;;;;;;;;;;;;;;;;;;;;;;;;;;;;;;;;;;;;;;;;;;;;;;;;;;;;;;;;;;;;;;;;;;;;;;;;;;;;;;;;;;;"1942";"2015-02-24 16:16:12.889";"23";"1";"FINISHED";"RIGHT";"success";"439";"0";"2015-02-24 16:16:10.939";"3";;;;;;;;;;
"cw1963";"1963";;"Windows 7";"Rachel's Experiment (DP)";"1.0";"3";"1";"1";"3";"2";"1";"2015-02-24 16:15:18.924";"2015-02-24 16:33:17.451";"1";"4";"0";"508";"12";"module.GoNoGopractice.exec-3291.GoNoGo_Practice";;;;;;;;;;;;;;;;;;;;;;;;;;;;;;;;;;;;;;;;;;;;;;;;;;;;;;;;;;;;;;;;;;;;;;;;;;;;;;;;;;;;;;;;;;;;;"1940";"2015-02-24 16:16:16.159";"13";"0";"FINISHED";"LEFT";"success";"384";"0";"2015-02-24 16:16:14.209";"2";;;;;;;;;;
"cw1963";"1963";;"Windows 7";"Rachel's Experiment (DP)";"1.0";"3";"1";"1";"3";"2";"1";"2015-02-24 16:15:18.924";"2015-02-24 16:33:17.451";"1";"4";"0";"509";"13";"module.GoNoGopractice.exec-3291.GoNoGo_Practice";;;;;;;;;;;;;;;;;;;;;;;;;;;;;;;;;;;;;;;;;;;;;;;;;;;;;;;;;;;;;;;;;;;;;;;;;;;;;;;;;;;;;;;;;;;;;"1955";"2015-02-24 16:16:19.419";"3";"1";"FINISHED";"RIGHT";"success";"370";"0";"2015-02-24 16:16:17.459";"1";;;;;;;;;;
"cw1963";"1963";;"Windows 7";"Rachel's Experiment (DP)";"1.0";"3";"1";"1";"3";"2";"1";"2015-02-24 16:15:18.924";"2015-02-24 16:33:17.451";"1";"4";"0";"510";"14";"module.GoNoGopractice.exec-3291.GoNoGo_Practice";;;;;;;;;;;;;;;;;;;;;;;;;;;;;;;;;;;;;;;;;;;;;;;;;;;;;;;;;;;;;;;;;;;;;;;;;;;;;;;;;;;;;;;;;;;;;"1950";"2015-02-24 16:16:22.699";"27";"1";"FINISHED";"RIGHT";"success";"381";"0";"2015-02-24 16:16:20.749";"3";;;;;;;;;;
"cw1963";"1963";;"Windows 7";"Rachel's Experiment (DP)";"1.0";"3";"1";"1";"3";"2";"1";"2015-02-24 16:15:18.924";"2015-02-24 16:33:17.451";"1";"4";"0";"511";"15";"module.training_block1.exec-4975.GoNoGo1";;;;;;;;;;;;;;;;;;;;;;;;;;;;;;;;;;;;;;;;;;;;;"1254";"2015-02-24 16:16:28.889";"NST_correctLoc";"26";"1";"FINISHED";"RIGHT";"success";"521";"0";"2015-02-24 16:16:27.639";"3";;;;;;;;;;;;;;;;;;;;;;;;;;;;;;;;;;;;;;;;;;;;;;;;;;;;;;;;;
"cw1963";"1963";;"Windows 7";"Rachel's Experiment (DP)";"1.0";"3";"1";"1";"3";"2";"1";"2015-02-24 16:15:18.924";"2015-02-24 16:33:17.451";"1";"4";"0";"512";"16";"module.training_block1.exec-4975.GoNoGo1";;;;;;;;;;;;;;;;;;;;;;;;;;;;;;;;;;;;;;;;;;;;;"1244";"2015-02-24 16:16:31.469";"NST_correctLoc";"12";"1";"FINISHED";"RIGHT";"success";"357";"0";"2015-02-24 16:16:30.219";"2";;;;;;;;;;;;;;;;;;;;;;;;;;;;;;;;;;;;;;;;;;;;;;;;;;;;;;;;;
"cw1963";"1963";;"Windows 7";"Rachel's Experiment (DP)";"1.0";"3";"1";"1";"3";"2";"1";"2015-02-24 16:15:18.924";"2015-02-24 16:33:17.451";"1";"4";"0";"513";"17";"module.training_block1.exec-4975.GoNoGo1";;;;;;;;;;;;;;;;;;;;;;;;;;;;;;;;;;;;;;;;;;;;;"1246";"2015-02-24 16:16:34.039";"NST_correctLoc";"30";"0";"FINISHED";"LEFT";"success";"412";"0";"2015-02-24 16:16:32.789";"3";;;;;;;;;;;;;;;;;;;;;;;;;;;;;;;;;;;;;;;;;;;;;;;;;;;;;;;;;
"cw1963";"1963";;"Windows 7";"Rachel's Experiment (DP)";"1.0";"3";"1";"1";"3";"2";"1";"2015-02-24 16:15:18.924";"2015-02-24 16:33:17.451";"1";"4";"0";"514";"18";"module.training_block1.exec-4975.GoNoGo1";;;;;;;;;;;;;;;;;;;;;;;;;;;;;;;;;;;;;;;;;;;;;"1249";"2015-02-24 16:16:36.605";"NST_correctLoc";"14";"1";"FINISHED";"RIGHT";"success";"339";"0";"2015-02-24 16:16:35.349";"2";;;;;;;;;;;;;;;;;;;;;;;;;;;;;;;;;;;;;;;;;;;;;;;;;;;;;;;;;
"cw1963";"1963";;"Windows 7";"Rachel's Experiment (DP)";"1.0";"3";"1";"1";"3";"2";"1";"2015-02-24 16:15:18.924";"2015-02-24 16:33:17.451";"1";"4";"0";"515";"19";"module.training_block1.exec-4975.GoNoGo1";;;;;;;;;;;;;;;;;;;;;;;;;;;;;;;;;;;;;;;;;;;;;"1243";"2015-02-24 16:16:39.182";"NST_correctLoc";"5";"0";"FINISHED";"LEFT";"success";"437";"0";"2015-02-24 16:16:37.932";"1";;;;;;;;;;;;;;;;;;;;;;;;;;;;;;;;;;;;;;;;;;;;;;;;;;;;;;;;;
"cw1963";"1963";;"Windows 7";"Rachel's Experiment (DP)";"1.0";"3";"1";"1";"3";"2";"1";"2015-02-24 16:15:18.924";"2015-02-24 16:33:17.451";"1";"4";"0";"516";"20";"module.training_block1.exec-4975.GoNoGo1";;;;;;;;;;;;;;;;;;;;;;;;;;;;;;;;;;;;;;;;;;;;;"1246";"2015-02-24 16:16:41.752";"NST_correctLoc";"15";"1";"FINISHED";"RIGHT";"success";"364";"0";"2015-02-24 16:16:40.502";"2";;;;;;;;;;;;;;;;;;;;;;;;;;;;;;;;;;;;;;;;;;;;;;;;;;;;;;;;;
"cw1963";"1963";;"Windows 7";"Rachel's Experiment (DP)";"1.0";"3";"1";"1";"3";"2";"1";"2015-02-24 16:15:18.924";"2015-02-24 16:33:17.451";"1";"4";"0";"517";"21";"module.training_block1.exec-4975.GoNoGo1";;;;;;;;;;;;;;;;;;;;;;;;;;;;;;;;;;;;;;;;;;;;;"1243";"2015-02-24 16:16:44.322";"NST_correctLoc";"23";"1";"FINISHED";"RIGHT";"success";"407";"0";"2015-02-24 16:16:43.072";"3";;;;;;;;;;;;;;;;;;;;;;;;;;;;;;;;;;;;;;;;;;;;;;;;;;;;;;;;;
"cw1963";"1963";;"Windows 7";"Rachel's Experiment (DP)";"1.0";"3";"1";"1";"3";"2";"1";"2015-02-24 16:15:18.924";"2015-02-24 16:33:17.451";"1";"4";"0";"518";"22";"module.training_block1.exec-4975.GoNoGo1";;;;;;;;;;;;;;;;;;;;;;;;;;;;;;;;;;;;;;;;;;;;;"1248";"2015-02-24 16:16:46.902";"NST_correctLoc";"17";"1";"FINISHED";"RIGHT";"success";"367";"0";"2015-02-24 16:16:45.652";"2";;;;;;;;;;;;;;;;;;;;;;;;;;;;;;;;;;;;;;;;;;;;;;;;;;;;;;;;;
"cw1963";"1963";;"Windows 7";"Rachel's Experiment (DP)";"1.0";"3";"1";"1";"3";"2";"1";"2015-02-24 16:15:18.924";"2015-02-24 16:33:17.451";"1";"4";"0";"519";"23";"module.training_block1.exec-4975.GoNoGo1";;;;;;;;;;;;;;;;;;;;;;;;;;;;;;;;;;;;;;;;;;;;;"1249";"2015-02-24 16:16:49.472";"NST_correctLoc";"8";"1";"FINISHED";"RIGHT";"success";"415";"0";"2015-02-24 16:16:48.222";"1";;;;;;;;;;;;;;;;;;;;;;;;;;;;;;;;;;;;;;;;;;;;;;;;;;;;;;;;;
"cw1963";"1963";;"Windows 7";"Rachel's Experiment (DP)";"1.0";"3";"1";"1";"3";"2";"1";"2015-02-24 16:15:18.924";"2015-02-24 16:33:17.451";"1";"4";"0";"520";"24";"module.training_block1.exec-4975.GoNoGo1";;;;;;;;;;;;;;;;;;;;;;;;;;;;;;;;;;;;;;;;;;;;;"1240";"2015-02-24 16:16:52.032";"NST_correctLoc";"32";"0";"FINISHED";"LEFT";"success";"367";"0";"2015-02-24 16:16:50.782";"3";;;;;;;;;;;;;;;;;;;;;;;;;;;;;;;;;;;;;;;;;;;;;;;;;;;;;;;;;
"cw1963";"1963";;"Windows 7";"Rachel's Experiment (DP)";"1.0";"3";"1";"1";"3";"2";"1";"2015-02-24 16:15:18.924";"2015-02-24 16:33:17.451";"1";"4";"0";"521";"25";"module.training_block1.exec-4975.GoNoGo1";;;;;;;;;;;;;;;;;;;;;;;;;;;;;;;;;;;;;;;;;;;;;"1244";"2015-02-24 16:16:54.582";"NST_correctLoc";"13";"1";"FINISHED";"RIGHT";"success";"532";"0";"2015-02-24 16:16:53.332";"2";;;;;;;;;;;;;;;;;;;;;;;;;;;;;;;;;;;;;;;;;;;;;;;;;;;;;;;;;
"cw1963";"1963";;"Windows 7";"Rachel's Experiment (DP)";"1.0";"3";"1";"1";"3";"2";"1";"2015-02-24 16:15:18.924";"2015-02-24 16:33:17.451";"1";"4";"0";"522";"26";"module.training_block1.exec-4975.GoNoGo1";;;;;;;;;;;;;;;;;;;;;;;;;;;;;;;;;;;;;;;;;;;;;"1242";"2015-02-24 16:16:57.132";"NST_correctLoc";"3";"1";"FINISHED";"RIGHT";"success";"392";"0";"2015-02-24 16:16:55.882";"1";;;;;;;;;;;;;;;;;;;;;;;;;;;;;;;;;;;;;;;;;;;;;;;;;;;;;;;;;
"cw1963";"1963";;"Windows 7";"Rachel's Experiment (DP)";"1.0";"3";"1";"1";"3";"2";"1";"2015-02-24 16:15:18.924";"2015-02-24 16:33:17.451";"1";"4";"0";"523";"27";"module.training_block1.exec-4975.GoNoGo1";;;;;;;;;;;;;;;;;;;;;;;;;;;;;;;;;;;;;;;;;;;;;"1240";"2015-02-24 16:16:59.702";"NST_correctLoc";"24";"1";"FINISHED";"RIGHT";"success";"401";"0";"2015-02-24 16:16:58.452";"3";;;;;;;;;;;;;;;;;;;;;;;;;;;;;;;;;;;;;;;;;;;;;;;;;;;;;;;;;
"cw1963";"1963";;"Windows 7";"Rachel's Experiment (DP)";"1.0";"3";"1";"1";"3";"2";"1";"2015-02-24 16:15:18.924";"2015-02-24 16:33:17.451";"1";"4";"0";"524";"28";"module.training_block1.exec-4975.GoNoGo1";;;;;;;;;;;;;;;;;;;;;;;;;;;;;;;;;;;;;;;;;;;;;"1247";"2015-02-24 16:17:02.272";"NST_correctLoc";"1";"0";"FINISHED";"LEFT";"success";"325";"0";"2015-02-24 16:17:01.022";"1";;;;;;;;;;;;;;;;;;;;;;;;;;;;;;;;;;;;;;;;;;;;;;;;;;;;;;;;;
"cw1963";"1963";;"Windows 7";"Rachel's Experiment (DP)";"1.0";"3";"1";"1";"3";"2";"1";"2015-02-24 16:15:18.924";"2015-02-24 16:33:17.451";"1";"4";"0";"525";"29";"module.training_block1.exec-4975.GoNoGo1";;;;;;;;;;;;;;;;;;;;;;;;;;;;;;;;;;;;;;;;;;;;;"1242";"2015-02-24 16:17:04.843";"NST_correctLoc";"31";"1";"FINISHED";"RIGHT";"success";"298";"0";"2015-02-24 16:17:03.593";"3";;;;;;;;;;;;;;;;;;;;;;;;;;;;;;;;;;;;;;;;;;;;;;;;;;;;;;;;;
"cw1963";"1963";;"Windows 7";"Rachel's Experiment (DP)";"1.0";"3";"1";"1";"3";"2";"1";"2015-02-24 16:15:18.924";"2015-02-24 16:33:17.451";"1";"4";"0";"526";"30";"module.training_block1.exec-4975.GoNoGo1";;;;;;;;;;;;;;;;;;;;;;;;;;;;;;;;;;;;;;;;;;;;;"1250";"2015-02-24 16:17:07.417";"NST_correctLoc";"4";"0";"FINISHED";"LEFT";"success";"311";"0";"2015-02-24 16:17:06.165";"1";;;;;;;;;;;;;;;;;;;;;;;;;;;;;;;;;;;;;;;;;;;;;;;;;;;;;;;;;
"cw1963";"1963";;"Windows 7";"Rachel's Experiment (DP)";"1.0";"3";"1";"1";"3";"2";"1";"2015-02-24 16:15:18.924";"2015-02-24 16:33:17.451";"1";"4";"0";"527";"31";"module.training_block1.exec-4975.GoNoGo1";;;;;;;;;;;;;;;;;;;;;;;;;;;;;;;;;;;;;;;;;;;;;"1249";"2015-02-24 16:17:09.987";"NST_correctLoc";"16";"1";"FINISHED";"RIGHT";"success";"288";"0";"2015-02-24 16:17:08.737";"2";;;;;;;;;;;;;;;;;;;;;;;;;;;;;;;;;;;;;;;;;;;;;;;;;;;;;;;;;
"cw1963";"1963";;"Windows 7";"Rachel's Experiment (DP)";"1.0";"3";"1";"1";"3";"2";"1";"2015-02-24 16:15:18.924";"2015-02-24 16:33:17.451";"1";"4";"0";"528";"32";"module.training_block1.exec-4975.GoNoGo1";;;;;;;;;;;;;;;;;;;;;;;;;;;;;;;;;;;;;;;;;;;;;"1242";"2015-02-24 16:17:12.527";"NST_correctLoc";"19";"1";"FINISHED";"RIGHT";"success";"365";"0";"2015-02-24 16:17:11.277";"3";;;;;;;;;;;;;;;;;;;;;;;;;;;;;;;;;;;;;;;;;;;;;;;;;;;;;;;;;
"cw1963";"1963";;"Windows 7";"Rachel's Experiment (DP)";"1.0";"3";"1";"1";"3";"2";"1";"2015-02-24 16:15:18.924";"2015-02-24 16:33:17.451";"1";"4";"0";"529";"33";"module.training_block1.exec-4975.GoNoGo1";;;;;;;;;;;;;;;;;;;;;;;;;;;;;;;;;;;;;;;;;;;;;"1242";"2015-02-24 16:17:15.097";"NST_correctLoc";"22";"0";"FINISHED";"LEFT";"success";"356";"0";"2015-02-24 16:17:13.847";"3";;;;;;;;;;;;;;;;;;;;;;;;;;;;;;;;;;;;;;;;;;;;;;;;;;;;;;;;;
"cw1963";"1963";;"Windows 7";"Rachel's Experiment (DP)";"1.0";"3";"1";"1";"3";"2";"1";"2015-02-24 16:15:18.924";"2015-02-24 16:33:17.451";"1";"4";"0";"530";"34";"module.training_block1.exec-4975.GoNoGo1";;;;;;;;;;;;;;;;;;;;;;;;;;;;;;;;;;;;;;;;;;;;;"1245";"2015-02-24 16:17:17.637";"NST_correctLoc";"29";"1";"FINISHED";"RIGHT";"success";"353";"0";"2015-02-24 16:17:16.387";"3";;;;;;;;;;;;;;;;;;;;;;;;;;;;;;;;;;;;;;;;;;;;;;;;;;;;;;;;;
"cw1963";"1963";;"Windows 7";"Rachel's Experiment (DP)";"1.0";"3";"1";"1";"3";"2";"1";"2015-02-24 16:15:18.924";"2015-02-24 16:33:17.451";"1";"4";"0";"531";"35";"module.training_block1.exec-4975.GoNoGo1";;;;;;;;;;;;;;;;;;;;;;;;;;;;;;;;;;;;;;;;;;;;;"1244";"2015-02-24 16:17:20.199";"NST_correctLoc";"21";"1";"FINISHED";"RIGHT";"success";"472";"0";"2015-02-24 16:17:18.949";"3";;;;;;;;;;;;;;;;;;;;;;;;;;;;;;;;;;;;;;;;;;;;;;;;;;;;;;;;;
"cw1963";"1963";;"Windows 7";"Rachel's Experiment (DP)";"1.0";"3";"1";"1";"3";"2";"1";"2015-02-24 16:15:18.924";"2015-02-24 16:33:17.451";"1";"4";"0";"532";"36";"module.training_block1.exec-4975.GoNoGo1";;;;;;;;;;;;;;;;;;;;;;;;;;;;;;;;;;;;;;;;;;;;;"1248";"2015-02-24 16:17:22.779";"NST_correctLoc";"35";"0";"FINISHED";"LEFT";"success";"343";"0";"2015-02-24 16:17:21.529";"3";;;;;;;;;;;;;;;;;;;;;;;;;;;;;;;;;;;;;;;;;;;;;;;;;;;;;;;;;
"cw1963";"1963";;"Windows 7";"Rachel's Experiment (DP)";"1.0";"3";"1";"1";"3";"2";"1";"2015-02-24 16:15:18.924";"2015-02-24 16:33:17.451";"1";"4";"0";"533";"37";"module.training_block1.exec-4975.GoNoGo1";;;;;;;;;;;;;;;;;;;;;;;;;;;;;;;;;;;;;;;;;;;;;"1248";"2015-02-24 16:17:25.339";"NST_correctLoc";"20";"0";"FINISHED";"LEFT";"success";"608";"0";"2015-02-24 16:17:24.089";"3";;;;;;;;;;;;;;;;;;;;;;;;;;;;;;;;;;;;;;;;;;;;;;;;;;;;;;;;;
"cw1963";"1963";;"Windows 7";"Rachel's Experiment (DP)";"1.0";"3";"1";"1";"3";"2";"1";"2015-02-24 16:15:18.924";"2015-02-24 16:33:17.451";"1";"4";"0";"534";"38";"module.training_block1.exec-4975.GoNoGo1";;;;;;;;;;;;;;;;;;;;;;;;;;;;;;;;;;;;;;;;;;;;;"1242";"2015-02-24 16:17:27.909";"NST_correctLoc";"11";"0";"FINISHED";"LEFT";"success";"495";"0";"2015-02-24 16:17:26.659";"2";;;;;;;;;;;;;;;;;;;;;;;;;;;;;;;;;;;;;;;;;;;;;;;;;;;;;;;;;
"cw1963";"1963";;"Windows 7";"Rachel's Experiment (DP)";"1.0";"3";"1";"1";"3";"2";"1";"2015-02-24 16:15:18.924";"2015-02-24 16:33:17.451";"1";"4";"0";"535";"39";"module.training_block1.exec-4975.GoNoGo1";;;;;;;;;;;;;;;;;;;;;;;;;;;;;;;;;;;;;;;;;;;;;"1248";"2015-02-24 16:17:30.503";"NST_correctLoc";"9";"0";"FINISHED";"LEFT";"success";"664";"0";"2015-02-24 16:17:29.253";"2";;;;;;;;;;;;;;;;;;;;;;;;;;;;;;;;;;;;;;;;;;;;;;;;;;;;;;;;;
"cw1963";"1963";;"Windows 7";"Rachel's Experiment (DP)";"1.0";"3";"1";"1";"3";"2";"1";"2015-02-24 16:15:18.924";"2015-02-24 16:33:17.451";"1";"4";"0";"536";"40";"module.training_block1.exec-4975.GoNoGo1";;;;;;;;;;;;;;;;;;;;;;;;;;;;;;;;;;;;;;;;;;;;;"1248";"2015-02-24 16:17:33.083";"NST_correctLoc";"18";"1";"FINISHED";"RIGHT";"success";"360";"0";"2015-02-24 16:17:31.833";"3";;;;;;;;;;;;;;;;;;;;;;;;;;;;;;;;;;;;;;;;;;;;;;;;;;;;;;;;;
"cw1963";"1963";;"Windows 7";"Rachel's Experiment (DP)";"1.0";"3";"1";"1";"3";"2";"1";"2015-02-24 16:15:18.924";"2015-02-24 16:33:17.451";"1";"4";"0";"537";"41";"module.training_block1.exec-4975.GoNoGo1";;;;;;;;;;;;;;;;;;;;;;;;;;;;;;;;;;;;;;;;;;;;;"1241";"2015-02-24 16:17:35.623";"NST_correctLoc";"6";"0";"FINISHED";"LEFT";"success";"373";"0";"2015-02-24 16:17:34.373";"1";;;;;;;;;;;;;;;;;;;;;;;;;;;;;;;;;;;;;;;;;;;;;;;;;;;;;;;;;
"cw1963";"1963";;"Windows 7";"Rachel's Experiment (DP)";"1.0";"3";"1";"1";"3";"2";"1";"2015-02-24 16:15:18.924";"2015-02-24 16:33:17.451";"1";"4";"0";"538";"42";"module.training_block1.exec-4975.GoNoGo1";;;;;;;;;;;;;;;;;;;;;;;;;;;;;;;;;;;;;;;;;;;;;"1246";"2015-02-24 16:17:38.193";"NST_correctLoc";"2";"0";"FINISHED";"LEFT";"success";"370";"0";"2015-02-24 16:17:36.941";"1";;;;;;;;;;;;;;;;;;;;;;;;;;;;;;;;;;;;;;;;;;;;;;;;;;;;;;;;;
"cw1963";"1963";;"Windows 7";"Rachel's Experiment (DP)";"1.0";"3";"1";"1";"3";"2";"1";"2015-02-24 16:15:18.924";"2015-02-24 16:33:17.451";"1";"4";"0";"539";"43";"module.training_block1.exec-4975.GoNoGo1";;;;;;;;;;;;;;;;;;;;;;;;;;;;;;;;;;;;;;;;;;;;;"1246";"2015-02-24 16:17:41.163";"NST_correctLoc";"10";"0";"FINISHED";"LEFT";"success";"434";"0";"2015-02-24 16:17:39.913";"2";;;;;;;;;;;;;;;;;;;;;;;;;;;;;;;;;;;;;;;;;;;;;;;;;;;;;;;;;
"cw1963";"1963";;"Windows 7";"Rachel's Experiment (DP)";"1.0";"3";"1";"1";"3";"2";"1";"2015-02-24 16:15:18.924";"2015-02-24 16:33:17.451";"1";"4";"0";"540";"44";"module.training_block1.exec-4975.GoNoGo1";;;;;;;;;;;;;;;;;;;;;;;;;;;;;;;;;;;;;;;;;;;;;"1242";"2015-02-24 16:17:43.723";"NST_correctLoc";"27";"1";"FINISHED";"RIGHT";"success";"383";"0";"2015-02-24 16:17:42.473";"3";;;;;;;;;;;;;;;;;;;;;;;;;;;;;;;;;;;;;;;;;;;;;;;;;;;;;;;;;
"cw1963";"1963";;"Windows 7";"Rachel's Experiment (DP)";"1.0";"3";"1";"1";"3";"2";"1";"2015-02-24 16:15:18.924";"2015-02-24 16:33:17.451";"1";"4";"0";"541";"45";"module.training_block1.exec-4975.GoNoGo1";;;;;;;;;;;;;;;;;;;;;;;;;;;;;;;;;;;;;;;;;;;;;"1249";"2015-02-24 16:17:46.263";"NST_correctLoc";"34";"1";"FINISHED";"RIGHT";"success";"369";"0";"2015-02-24 16:17:45.013";"3";;;;;;;;;;;;;;;;;;;;;;;;;;;;;;;;;;;;;;;;;;;;;;;;;;;;;;;;;
"cw1963";"1963";;"Windows 7";"Rachel's Experiment (DP)";"1.0";"3";"1";"1";"3";"2";"1";"2015-02-24 16:15:18.924";"2015-02-24 16:33:17.451";"1";"4";"0";"542";"46";"module.training_block1.exec-4975.GoNoGo1";;;;;;;;;;;;;;;;;;;;;;;;;;;;;;;;;;;;;;;;;;;;;"1245";"2015-02-24 16:17:48.833";"NST_correctLoc";"7";"0";"FINISHED";"LEFT";"success";"338";"0";"2015-02-24 16:17:47.583";"1";;;;;;;;;;;;;;;;;;;;;;;;;;;;;;;;;;;;;;;;;;;;;;;;;;;;;;;;;
"cw1963";"1963";;"Windows 7";"Rachel's Experiment (DP)";"1.0";"3";"1";"1";"3";"2";"1";"2015-02-24 16:15:18.924";"2015-02-24 16:33:17.451";"1";"4";"0";"543";"47";"module.training_block1.exec-4975.GoNoGo1";;;;;;;;;;;;;;;;;;;;;;;;;;;;;;;;;;;;;;;;;;;;;"1243";"2015-02-24 16:17:51.403";"NST_wrongLoc";"25";"0";"FINISHED";"RIGHT";"failure";"527";"0";"2015-02-24 16:17:50.153";"3";;;;;;;;;;;;;;;;;;;;;;;;;;;;;;;;;;;;;;;;;;;;;;;;;;;;;;;;;
"cw1963";"1963";;"Windows 7";"Rachel's Experiment (DP)";"1.0";"3";"1";"1";"3";"2";"1";"2015-02-24 16:15:18.924";"2015-02-24 16:33:17.451";"1";"4";"0";"544";"48";"module.training_block1.exec-4975.GoNoGo1";;;;;;;;;;;;;;;;;;;;;;;;;;;;;;;;;;;;;;;;;;;;;"1248";"2015-02-24 16:17:53.963";"NST_correctLoc";"33";"0";"FINISHED";"LEFT";"success";"404";"0";"2015-02-24 16:17:52.713";"3";;;;;;;;;;;;;;;;;;;;;;;;;;;;;;;;;;;;;;;;;;;;;;;;;;;;;;;;;
"cw1963";"1963";;"Windows 7";"Rachel's Experiment (DP)";"1.0";"3";"1";"1";"3";"2";"1";"2015-02-24 16:15:18.924";"2015-02-24 16:33:17.451";"1";"4";"0";"545";"49";"module.training_block1.exec-4975.GoNoGo1";;;;;;;;;;;;;;;;;;;;;;;;;;;;;;;;;;;;;;;;;;;;;"1243";"2015-02-24 16:17:56.533";"NST_correctLoc";"28";"1";"FINISHED";"RIGHT";"success";"487";"0";"2015-02-24 16:17:55.283";"3";;;;;;;;;;;;;;;;;;;;;;;;;;;;;;;;;;;;;;;;;;;;;;;;;;;;;;;;;
"cw1963";"1963";;"Windows 7";"Rachel's Experiment (DP)";"1.0";"3";"1";"1";"3";"2";"1";"2015-02-24 16:15:18.924";"2015-02-24 16:33:17.451";"1";"4";"0";"546";"50";"module.training_block1.exec-4975.GoNoGo1";;;;;;;;;;;;;;;;;;;;;;;;;;;;;;;;;;;;;;;;;;;;;"1246";"2015-02-24 16:17:59.093";"NST_correctLoc";"0";"1";"FINISHED";"RIGHT";"success";"592";"0";"2015-02-24 16:17:57.843";"1";;;;;;;;;;;;;;;;;;;;;;;;;;;;;;;;;;;;;;;;;;;;;;;;;;;;;;;;;
"cw1963";"1963";;"Windows 7";"Rachel's Experiment (DP)";"1.0";"3";"1";"1";"3";"2";"1";"2015-02-24 16:15:18.924";"2015-02-24 16:33:17.451";"1";"4";"0";"547";"51";"module.training_block2.exec-8894.GoNoGo2";;;;;;;;;;;;;;;;;;;;;;;;;;;;;;;;;;;;;;;;;;;;;;;;;;;;;;;;;"1243";"2015-02-24 16:18:10.338";"NST_correctLoc";"22";"1";"FINISHED";"RIGHT";"success";"428";"0";"2015-02-24 16:18:09.088";"3";;;;;;;;;;;;;;;;;;;;;;;;;;;;;;;;;;;;;;;;;;;;;
"cw1963";"1963";;"Windows 7";"Rachel's Experiment (DP)";"1.0";"3";"1";"1";"3";"2";"1";"2015-02-24 16:15:18.924";"2015-02-24 16:33:17.451";"1";"4";"0";"548";"52";"module.training_block2.exec-8894.GoNoGo2";;;;;;;;;;;;;;;;;;;;;;;;;;;;;;;;;;;;;;;;;;;;;;;;;;;;;;;;;"1248";"2015-02-24 16:18:12.888";"NST_correctLoc";"14";"1";"FINISHED";"RIGHT";"success";"355";"0";"2015-02-24 16:18:11.638";"2";;;;;;;;;;;;;;;;;;;;;;;;;;;;;;;;;;;;;;;;;;;;;
"cw1963";"1963";;"Windows 7";"Rachel's Experiment (DP)";"1.0";"3";"1";"1";"3";"2";"1";"2015-02-24 16:15:18.924";"2015-02-24 16:33:17.451";"1";"4";"0";"549";"53";"module.training_block2.exec-8894.GoNoGo2";;;;;;;;;;;;;;;;;;;;;;;;;;;;;;;;;;;;;;;;;;;;;;;;;;;;;;;;;"1247";"2015-02-24 16:18:15.468";"NST_correctLoc";"30";"1";"FINISHED";"RIGHT";"success";"349";"0";"2015-02-24 16:18:14.218";"3";;;;;;;;;;;;;;;;;;;;;;;;;;;;;;;;;;;;;;;;;;;;;
"cw1963";"1963";;"Windows 7";"Rachel's Experiment (DP)";"1.0";"3";"1";"1";"3";"2";"1";"2015-02-24 16:15:18.924";"2015-02-24 16:33:17.451";"1";"4";"0";"550";"54";"module.training_block2.exec-8894.GoNoGo2";;;;;;;;;;;;;;;;;;;;;;;;;;;;;;;;;;;;;;;;;;;;;;;;;;;;;;;;;"1241";"2015-02-24 16:18:18.038";"NST_correctLoc";"26";"0";"FINISHED";"LEFT";"success";"396";"0";"2015-02-24 16:18:16.788";"3";;;;;;;;;;;;;;;;;;;;;;;;;;;;;;;;;;;;;;;;;;;;;
"cw1963";"1963";;"Windows 7";"Rachel's Experiment (DP)";"1.0";"3";"1";"1";"3";"2";"1";"2015-02-24 16:15:18.924";"2015-02-24 16:33:17.451";"1";"4";"0";"551";"55";"module.training_block2.exec-8894.GoNoGo2";;;;;;;;;;;;;;;;;;;;;;;;;;;;;;;;;;;;;;;;;;;;;;;;;;;;;;;;;"1247";"2015-02-24 16:18:20.588";"NST_correctLoc";"25";"0";"FINISHED";"LEFT";"success";"439";"0";"2015-02-24 16:18:19.338";"3";;;;;;;;;;;;;;;;;;;;;;;;;;;;;;;;;;;;;;;;;;;;;
"cw1963";"1963";;"Windows 7";"Rachel's Experiment (DP)";"1.0";"3";"1";"1";"3";"2";"1";"2015-02-24 16:15:18.924";"2015-02-24 16:33:17.451";"1";"4";"0";"552";"56";"module.training_block2.exec-8894.GoNoGo2";;;;;;;;;;;;;;;;;;;;;;;;;;;;;;;;;;;;;;;;;;;;;;;;;;;;;;;;;"1241";"2015-02-24 16:18:23.128";"NST_correctLoc";"33";"0";"FINISHED";"LEFT";"success";"444";"0";"2015-02-24 16:18:21.878";"3";;;;;;;;;;;;;;;;;;;;;;;;;;;;;;;;;;;;;;;;;;;;;
"cw1963";"1963";;"Windows 7";"Rachel's Experiment (DP)";"1.0";"3";"1";"1";"3";"2";"1";"2015-02-24 16:15:18.924";"2015-02-24 16:33:17.451";"1";"4";"0";"553";"57";"module.training_block2.exec-8894.GoNoGo2";;;;;;;;;;;;;;;;;;;;;;;;;;;;;;;;;;;;;;;;;;;;;;;;;;;;;;;;;"1249";"2015-02-24 16:18:25.698";"NST_correctLoc";"9";"0";"FINISHED";"LEFT";"success";"433";"0";"2015-02-24 16:18:24.448";"2";;;;;;;;;;;;;;;;;;;;;;;;;;;;;;;;;;;;;;;;;;;;;
"cw1963";"1963";;"Windows 7";"Rachel's Experiment (DP)";"1.0";"3";"1";"1";"3";"2";"1";"2015-02-24 16:15:18.924";"2015-02-24 16:33:17.451";"1";"4";"0";"554";"58";"module.training_block2.exec-8894.GoNoGo2";;;;;;;;;;;;;;;;;;;;;;;;;;;;;;;;;;;;;;;;;;;;;;;;;;;;;;;;;"1245";"2015-02-24 16:18:28.258";"NST_correctLoc";"28";"0";"FINISHED";"LEFT";"success";"406";"0";"2015-02-24 16:18:27.008";"3";;;;;;;;;;;;;;;;;;;;;;;;;;;;;;;;;;;;;;;;;;;;;
"cw1963";"1963";;"Windows 7";"Rachel's Experiment (DP)";"1.0";"3";"1";"1";"3";"2";"1";"2015-02-24 16:15:18.924";"2015-02-24 16:33:17.451";"1";"4";"0";"555";"59";"module.training_block2.exec-8894.GoNoGo2";;;;;;;;;;;;;;;;;;;;;;;;;;;;;;;;;;;;;;;;;;;;;;;;;;;;;;;;;"1249";"2015-02-24 16:18:30.828";"NST_correctLoc";"13";"0";"FINISHED";"LEFT";"success";"351";"0";"2015-02-24 16:18:29.578";"2";;;;;;;;;;;;;;;;;;;;;;;;;;;;;;;;;;;;;;;;;;;;;
"cw1963";"1963";;"Windows 7";"Rachel's Experiment (DP)";"1.0";"3";"1";"1";"3";"2";"1";"2015-02-24 16:15:18.924";"2015-02-24 16:33:17.451";"1";"4";"0";"556";"60";"module.training_block2.exec-8894.GoNoGo2";;;;;;;;;;;;;;;;;;;;;;;;;;;;;;;;;;;;;;;;;;;;;;;;;;;;;;;;;"1246";"2015-02-24 16:18:33.408";"NST_correctLoc";"35";"1";"FINISHED";"RIGHT";"success";"372";"0";"2015-02-24 16:18:32.158";"3";;;;;;;;;;;;;;;;;;;;;;;;;;;;;;;;;;;;;;;;;;;;;
"cw1963";"1963";;"Windows 7";"Rachel's Experiment (DP)";"1.0";"3";"1";"1";"3";"2";"1";"2015-02-24 16:15:18.924";"2015-02-24 16:33:17.451";"1";"4";"0";"557";"61";"module.training_block2.exec-8894.GoNoGo2";;;;;;;;;;;;;;;;;;;;;;;;;;;;;;;;;;;;;;;;;;;;;;;;;;;;;;;;;"1243";"2015-02-24 16:18:35.978";"NST_correctLoc";"16";"1";"FINISHED";"RIGHT";"success";"385";"0";"2015-02-24 16:18:34.728";"2";;;;;;;;;;;;;;;;;;;;;;;;;;;;;;;;;;;;;;;;;;;;;
"cw1963";"1963";;"Windows 7";"Rachel's Experiment (DP)";"1.0";"3";"1";"1";"3";"2";"1";"2015-02-24 16:15:18.924";"2015-02-24 16:33:17.451";"1";"4";"0";"558";"62";"module.training_block2.exec-8894.GoNoGo2";;;;;;;;;;;;;;;;;;;;;;;;;;;;;;;;;;;;;;;;;;;;;;;;;;;;;;;;;"1245";"2015-02-24 16:18:38.512";"NST_correctLoc";"10";"1";"FINISHED";"RIGHT";"success";"411";"0";"2015-02-24 16:18:37.262";"2";;;;;;;;;;;;;;;;;;;;;;;;;;;;;;;;;;;;;;;;;;;;;
"cw1963";"1963";;"Windows 7";"Rachel's Experiment (DP)";"1.0";"3";"1";"1";"3";"2";"1";"2015-02-24 16:15:18.924";"2015-02-24 16:33:17.451";"1";"4";"0";"559";"63";"module.training_block2.exec-8894.GoNoGo2";;;;;;;;;;;;;;;;;;;;;;;;;;;;;;;;;;;;;;;;;;;;;;;;;;;;;;;;;"1249";"2015-02-24 16:18:41.093";"NST_correctLoc";"23";"1";"FINISHED";"RIGHT";"success";"369";"0";"2015-02-24 16:18:39.842";"3";;;;;;;;;;;;;;;;;;;;;;;;;;;;;;;;;;;;;;;;;;;;;
"cw1963";"1963";;"Windows 7";"Rachel's Experiment (DP)";"1.0";"3";"1";"1";"3";"2";"1";"2015-02-24 16:15:18.924";"2015-02-24 16:33:17.451";"1";"4";"0";"560";"64";"module.training_block2.exec-8894.GoNoGo2";;;;;;;;;;;;;;;;;;;;;;;;;;;;;;;;;;;;;;;;;;;;;;;;;;;;;;;;;"1244";"2015-02-24 16:18:43.664";"NST_correctLoc";"12";"0";"FINISHED";"LEFT";"success";"355";"0";"2015-02-24 16:18:42.414";"2";;;;;;;;;;;;;;;;;;;;;;;;;;;;;;;;;;;;;;;;;;;;;
"cw1963";"1963";;"Windows 7";"Rachel's Experiment (DP)";"1.0";"3";"1";"1";"3";"2";"1";"2015-02-24 16:15:18.924";"2015-02-24 16:33:17.451";"1";"4";"0";"561";"65";"module.training_block2.exec-8894.GoNoGo2";;;;;;;;;;;;;;;;;;;;;;;;;;;;;;;;;;;;;;;;;;;;;;;;;;;;;;;;;"1249";"2015-02-24 16:18:46.224";"NST_correctLoc";"1";"1";"FINISHED";"RIGHT";"success";"345";"0";"2015-02-24 16:18:44.974";"1";;;;;;;;;;;;;;;;;;;;;;;;;;;;;;;;;;;;;;;;;;;;;
"cw1963";"1963";;"Windows 7";"Rachel's Experiment (DP)";"1.0";"3";"1";"1";"3";"2";"1";"2015-02-24 16:15:18.924";"2015-02-24 16:33:17.451";"1";"4";"0";"562";"66";"module.training_block2.exec-8894.GoNoGo2";;;;;;;;;;;;;;;;;;;;;;;;;;;;;;;;;;;;;;;;;;;;;;;;;;;;;;;;;"1245";"2015-02-24 16:18:48.794";"NST_correctLoc";"20";"0";"FINISHED";"LEFT";"success";"466";"0";"2015-02-24 16:18:47.544";"3";;;;;;;;;;;;;;;;;;;;;;;;;;;;;;;;;;;;;;;;;;;;;
"cw1963";"1963";;"Windows 7";"Rachel's Experiment (DP)";"1.0";"3";"1";"1";"3";"2";"1";"2015-02-24 16:15:18.924";"2015-02-24 16:33:17.451";"1";"4";"0";"563";"67";"module.training_block2.exec-8894.GoNoGo2";;;;;;;;;;;;;;;;;;;;;;;;;;;;;;;;;;;;;;;;;;;;;;;;;;;;;;;;;"1246";"2015-02-24 16:18:51.355";"NST_correctLoc";"21";"0";"FINISHED";"LEFT";"success";"386";"0";"2015-02-24 16:18:50.105";"3";;;;;;;;;;;;;;;;;;;;;;;;;;;;;;;;;;;;;;;;;;;;;
"cw1963";"1963";;"Windows 7";"Rachel's Experiment (DP)";"1.0";"3";"1";"1";"3";"2";"1";"2015-02-24 16:15:18.924";"2015-02-24 16:33:17.451";"1";"4";"0";"564";"68";"module.training_block2.exec-8894.GoNoGo2";;;;;;;;;;;;;;;;;;;;;;;;;;;;;;;;;;;;;;;;;;;;;;;;;;;;;;;;;"1245";"2015-02-24 16:18:53.915";"NST_correctLoc";"34";"1";"FINISHED";"RIGHT";"success";"354";"0";"2015-02-24 16:18:52.665";"3";;;;;;;;;;;;;;;;;;;;;;;;;;;;;;;;;;;;;;;;;;;;;
"cw1963";"1963";;"Windows 7";"Rachel's Experiment (DP)";"1.0";"3";"1";"1";"3";"2";"1";"2015-02-24 16:15:18.924";"2015-02-24 16:33:17.451";"1";"4";"0";"565";"69";"module.training_block2.exec-8894.GoNoGo2";;;;;;;;;;;;;;;;;;;;;;;;;;;;;;;;;;;;;;;;;;;;;;;;;;;;;;;;;"1249";"2015-02-24 16:18:56.475";"NST_correctLoc";"18";"0";"FINISHED";"LEFT";"success";"366";"0";"2015-02-24 16:18:55.225";"3";;;;;;;;;;;;;;;;;;;;;;;;;;;;;;;;;;;;;;;;;;;;;
"cw1963";"1963";;"Windows 7";"Rachel's Experiment (DP)";"1.0";"3";"1";"1";"3";"2";"1";"2015-02-24 16:15:18.924";"2015-02-24 16:33:17.451";"1";"4";"0";"566";"70";"module.training_block2.exec-8894.GoNoGo2";;;;;;;;;;;;;;;;;;;;;;;;;;;;;;;;;;;;;;;;;;;;;;;;;;;;;;;;;"1244";"2015-02-24 16:18:59.025";"NST_correctLoc";"0";"0";"FINISHED";"LEFT";"success";"403";"0";"2015-02-24 16:18:57.775";"1";;;;;;;;;;;;;;;;;;;;;;;;;;;;;;;;;;;;;;;;;;;;;
"cw1963";"1963";;"Windows 7";"Rachel's Experiment (DP)";"1.0";"3";"1";"1";"3";"2";"1";"2015-02-24 16:15:18.924";"2015-02-24 16:33:17.451";"1";"4";"0";"567";"71";"module.training_block2.exec-8894.GoNoGo2";;;;;;;;;;;;;;;;;;;;;;;;;;;;;;;;;;;;;;;;;;;;;;;;;;;;;;;;;"1245";"2015-02-24 16:19:01.595";"NST_correctLoc";"3";"1";"FINISHED";"RIGHT";"success";"357";"0";"2015-02-24 16:19:00.345";"1";;;;;;;;;;;;;;;;;;;;;;;;;;;;;;;;;;;;;;;;;;;;;
"cw1963";"1963";;"Windows 7";"Rachel's Experiment (DP)";"1.0";"3";"1";"1";"3";"2";"1";"2015-02-24 16:15:18.924";"2015-02-24 16:33:17.451";"1";"4";"0";"568";"72";"module.training_block2.exec-8894.GoNoGo2";;;;;;;;;;;;;;;;;;;;;;;;;;;;;;;;;;;;;;;;;;;;;;;;;;;;;;;;;"1243";"2015-02-24 16:19:04.165";"NST_correctLoc";"19";"1";"FINISHED";"RIGHT";"success";"461";"0";"2015-02-24 16:19:02.915";"3";;;;;;;;;;;;;;;;;;;;;;;;;;;;;;;;;;;;;;;;;;;;;
"cw1963";"1963";;"Windows 7";"Rachel's Experiment (DP)";"1.0";"3";"1";"1";"3";"2";"1";"2015-02-24 16:15:18.924";"2015-02-24 16:33:17.451";"1";"4";"0";"569";"73";"module.training_block2.exec-8894.GoNoGo2";;;;;;;;;;;;;;;;;;;;;;;;;;;;;;;;;;;;;;;;;;;;;;;;;;;;;;;;;"1244";"2015-02-24 16:19:06.726";"NST_correctLoc";"27";"1";"FINISHED";"RIGHT";"success";"377";"0";"2015-02-24 16:19:05.475";"3";;;;;;;;;;;;;;;;;;;;;;;;;;;;;;;;;;;;;;;;;;;;;
"cw1963";"1963";;"Windows 7";"Rachel's Experiment (DP)";"1.0";"3";"1";"1";"3";"2";"1";"2015-02-24 16:15:18.924";"2015-02-24 16:33:17.451";"1";"4";"0";"570";"74";"module.training_block2.exec-8894.GoNoGo2";;;;;;;;;;;;;;;;;;;;;;;;;;;;;;;;;;;;;;;;;;;;;;;;;;;;;;;;;"1245";"2015-02-24 16:19:09.286";"NST_correctLoc";"5";"1";"FINISHED";"RIGHT";"success";"394";"0";"2015-02-24 16:19:08.036";"1";;;;;;;;;;;;;;;;;;;;;;;;;;;;;;;;;;;;;;;;;;;;;
"cw1963";"1963";;"Windows 7";"Rachel's Experiment (DP)";"1.0";"3";"1";"1";"3";"2";"1";"2015-02-24 16:15:18.924";"2015-02-24 16:33:17.451";"1";"4";"0";"571";"75";"module.training_block2.exec-8894.GoNoGo2";;;;;;;;;;;;;;;;;;;;;;;;;;;;;;;;;;;;;;;;;;;;;;;;;;;;;;;;;"1245";"2015-02-24 16:19:11.846";"NST_correctLoc";"32";"0";"FINISHED";"LEFT";"success";"403";"0";"2015-02-24 16:19:10.596";"3";;;;;;;;;;;;;;;;;;;;;;;;;;;;;;;;;;;;;;;;;;;;;
"cw1963";"1963";;"Windows 7";"Rachel's Experiment (DP)";"1.0";"3";"1";"1";"3";"2";"1";"2015-02-24 16:15:18.924";"2015-02-24 16:33:17.451";"1";"4";"0";"572";"76";"module.training_block2.exec-8894.GoNoGo2";;;;;;;;;;;;;;;;;;;;;;;;;;;;;;;;;;;;;;;;;;;;;;;;;;;;;;;;;"1242";"2015-02-24 16:19:14.416";"NST_correctLoc";"24";"0";"FINISHED";"LEFT";"success";"405";"0";"2015-02-24 16:19:13.166";"3";;;;;;;;;;;;;;;;;;;;;;;;;;;;;;;;;;;;;;;;;;;;;
"cw1963";"1963";;"Windows 7";"Rachel's Experiment (DP)";"1.0";"3";"1";"1";"3";"2";"1";"2015-02-24 16:15:18.924";"2015-02-24 16:33:17.451";"1";"4";"0";"573";"77";"module.training_block2.exec-8894.GoNoGo2";;;;;;;;;;;;;;;;;;;;;;;;;;;;;;;;;;;;;;;;;;;;;;;;;;;;;;;;;"1242";"2015-02-24 16:19:16.986";"NST_correctLoc";"6";"1";"FINISHED";"RIGHT";"success";"362";"0";"2015-02-24 16:19:15.736";"1";;;;;;;;;;;;;;;;;;;;;;;;;;;;;;;;;;;;;;;;;;;;;
"cw1963";"1963";;"Windows 7";"Rachel's Experiment (DP)";"1.0";"3";"1";"1";"3";"2";"1";"2015-02-24 16:15:18.924";"2015-02-24 16:33:17.451";"1";"4";"0";"574";"78";"module.training_block2.exec-8894.GoNoGo2";;;;;;;;;;;;;;;;;;;;;;;;;;;;;;;;;;;;;;;;;;;;;;;;;;;;;;;;;"1241";"2015-02-24 16:19:19.526";"NST_correctLoc";"8";"0";"FINISHED";"LEFT";"success";"374";"0";"2015-02-24 16:19:18.276";"1";;;;;;;;;;;;;;;;;;;;;;;;;;;;;;;;;;;;;;;;;;;;;
"cw1963";"1963";;"Windows 7";"Rachel's Experiment (DP)";"1.0";"3";"1";"1";"3";"2";"1";"2015-02-24 16:15:18.924";"2015-02-24 16:33:17.451";"1";"4";"0";"575";"79";"module.training_block2.exec-8894.GoNoGo2";;;;;;;;;;;;;;;;;;;;;;;;;;;;;;;;;;;;;;;;;;;;;;;;;;;;;;;;;"1244";"2015-02-24 16:19:22.096";"NST_correctLoc";"15";"1";"FINISHED";"RIGHT";"success";"343";"0";"2015-02-24 16:19:20.846";"2";;;;;;;;;;;;;;;;;;;;;;;;;;;;;;;;;;;;;;;;;;;;;
"cw1963";"1963";;"Windows 7";"Rachel's Experiment (DP)";"1.0";"3";"1";"1";"3";"2";"1";"2015-02-24 16:15:18.924";"2015-02-24 16:33:17.451";"1";"4";"0";"576";"80";"module.training_block2.exec-8894.GoNoGo2";;;;;;;;;;;;;;;;;;;;;;;;;;;;;;;;;;;;;;;;;;;;;;;;;;;;;;;;;"1248";"2015-02-24 16:19:24.656";"NST_correctLoc";"7";"0";"FINISHED";"LEFT";"success";"370";"0";"2015-02-24 16:19:23.406";"1";;;;;;;;;;;;;;;;;;;;;;;;;;;;;;;;;;;;;;;;;;;;;
"cw1963";"1963";;"Windows 7";"Rachel's Experiment (DP)";"1.0";"3";"1";"1";"3";"2";"1";"2015-02-24 16:15:18.924";"2015-02-24 16:33:17.451";"1";"4";"0";"577";"81";"module.training_block2.exec-8894.GoNoGo2";;;;;;;;;;;;;;;;;;;;;;;;;;;;;;;;;;;;;;;;;;;;;;;;;;;;;;;;;"1245";"2015-02-24 16:19:27.216";"NST_correctLoc";"11";"1";"FINISHED";"RIGHT";"success";"336";"0";"2015-02-24 16:19:25.966";"2";;;;;;;;;;;;;;;;;;;;;;;;;;;;;;;;;;;;;;;;;;;;;
"cw1963";"1963";;"Windows 7";"Rachel's Experiment (DP)";"1.0";"3";"1";"1";"3";"2";"1";"2015-02-24 16:15:18.924";"2015-02-24 16:33:17.451";"1";"4";"0";"578";"82";"module.training_block2.exec-8894.GoNoGo2";;;;;;;;;;;;;;;;;;;;;;;;;;;;;;;;;;;;;;;;;;;;;;;;;;;;;;;;;"1247";"2015-02-24 16:19:29.776";"NST_correctLoc";"17";"1";"FINISHED";"RIGHT";"success";"479";"0";"2015-02-24 16:19:28.526";"2";;;;;;;;;;;;;;;;;;;;;;;;;;;;;;;;;;;;;;;;;;;;;
"cw1963";"1963";;"Windows 7";"Rachel's Experiment (DP)";"1.0";"3";"1";"1";"3";"2";"1";"2015-02-24 16:15:18.924";"2015-02-24 16:33:17.451";"1";"4";"0";"579";"83";"module.training_block2.exec-8894.GoNoGo2";;;;;;;;;;;;;;;;;;;;;;;;;;;;;;;;;;;;;;;;;;;;;;;;;;;;;;;;;"1243";"2015-02-24 16:19:32.326";"NST_correctLoc";"2";"0";"FINISHED";"LEFT";"success";"400";"0";"2015-02-24 16:19:31.076";"1";;;;;;;;;;;;;;;;;;;;;;;;;;;;;;;;;;;;;;;;;;;;;
"cw1963";"1963";;"Windows 7";"Rachel's Experiment (DP)";"1.0";"3";"1";"1";"3";"2";"1";"2015-02-24 16:15:18.924";"2015-02-24 16:33:17.451";"1";"4";"0";"580";"84";"module.training_block2.exec-8894.GoNoGo2";;;;;;;;;;;;;;;;;;;;;;;;;;;;;;;;;;;;;;;;;;;;;;;;;;;;;;;;;"1260";"2015-02-24 16:19:34.864";"NST_correctLoc";"29";"1";"FINISHED";"RIGHT";"success";"333";"0";"2015-02-24 16:19:33.614";"3";;;;;;;;;;;;;;;;;;;;;;;;;;;;;;;;;;;;;;;;;;;;;
"cw1963";"1963";;"Windows 7";"Rachel's Experiment (DP)";"1.0";"3";"1";"1";"3";"2";"1";"2015-02-24 16:15:18.924";"2015-02-24 16:33:17.451";"1";"4";"0";"581";"85";"module.training_block2.exec-8894.GoNoGo2";;;;;;;;;;;;;;;;;;;;;;;;;;;;;;;;;;;;;;;;;;;;;;;;;;;;;;;;;"1252";"2015-02-24 16:19:37.426";"NST_correctLoc";"31";"0";"FINISHED";"LEFT";"success";"448";"0";"2015-02-24 16:19:36.168";"3";;;;;;;;;;;;;;;;;;;;;;;;;;;;;;;;;;;;;;;;;;;;;
"cw1963";"1963";;"Windows 7";"Rachel's Experiment (DP)";"1.0";"3";"1";"1";"3";"2";"1";"2015-02-24 16:15:18.924";"2015-02-24 16:33:17.451";"1";"4";"0";"582";"86";"module.training_block2.exec-8894.GoNoGo2";;;;;;;;;;;;;;;;;;;;;;;;;;;;;;;;;;;;;;;;;;;;;;;;;;;;;;;;;"1242";"2015-02-24 16:19:39.986";"NST_correctLoc";"4";"1";"FINISHED";"RIGHT";"success";"384";"0";"2015-02-24 16:19:38.736";"1";;;;;;;;;;;;;;;;;;;;;;;;;;;;;;;;;;;;;;;;;;;;;
"cw1963";"1963";;"Windows 7";"Rachel's Experiment (DP)";"1.0";"3";"1";"1";"3";"2";"1";"2015-02-24 16:15:18.924";"2015-02-24 16:33:17.451";"1";"4";"0";"583";"87";"module.training_block3.exec-4667.GoNoGo3";;;;;;;;;;;;;;;;;;;;;;;;;;;;;;;;;;;;;;;;;;;;;;;;;;;;;;;;;;;;;;;;;;;;;"1246";"2015-02-24 16:19:51.116";"NST_correctLoc";"34";"1";"FINISHED";"RIGHT";"success";"432";"0";"2015-02-24 16:19:49.866";"3";;;;;;;;;;;;;;;;;;;;;;;;;;;;;;;;;
"cw1963";"1963";;"Windows 7";"Rachel's Experiment (DP)";"1.0";"3";"1";"1";"3";"2";"1";"2015-02-24 16:15:18.924";"2015-02-24 16:33:17.451";"1";"4";"0";"584";"88";"module.training_block3.exec-4667.GoNoGo3";;;;;;;;;;;;;;;;;;;;;;;;;;;;;;;;;;;;;;;;;;;;;;;;;;;;;;;;;;;;;;;;;;;;;"1242";"2015-02-24 16:19:53.656";"NST_correctLoc";"28";"1";"FINISHED";"RIGHT";"success";"384";"0";"2015-02-24 16:19:52.406";"3";;;;;;;;;;;;;;;;;;;;;;;;;;;;;;;;;
"cw1963";"1963";;"Windows 7";"Rachel's Experiment (DP)";"1.0";"3";"1";"1";"3";"2";"1";"2015-02-24 16:15:18.924";"2015-02-24 16:33:17.451";"1";"4";"0";"585";"89";"module.training_block3.exec-4667.GoNoGo3";;;;;;;;;;;;;;;;;;;;;;;;;;;;;;;;;;;;;;;;;;;;;;;;;;;;;;;;;;;;;;;;;;;;;"1241";"2015-02-24 16:19:56.166";"NST_correctLoc";"30";"1";"FINISHED";"RIGHT";"success";"402";"0";"2015-02-24 16:19:54.916";"3";;;;;;;;;;;;;;;;;;;;;;;;;;;;;;;;;
"cw1963";"1963";;"Windows 7";"Rachel's Experiment (DP)";"1.0";"3";"1";"1";"3";"2";"1";"2015-02-24 16:15:18.924";"2015-02-24 16:33:17.451";"1";"4";"0";"586";"90";"module.training_block3.exec-4667.GoNoGo3";;;;;;;;;;;;;;;;;;;;;;;;;;;;;;;;;;;;;;;;;;;;;;;;;;;;;;;;;;;;;;;;;;;;;"1242";"2015-02-24 16:19:58.676";"NST_correctLoc";"0";"0";"FINISHED";"LEFT";"success";"365";"0";"2015-02-24 16:19:57.426";"1";;;;;;;;;;;;;;;;;;;;;;;;;;;;;;;;;
"cw1963";"1963";;"Windows 7";"Rachel's Experiment (DP)";"1.0";"3";"1";"1";"3";"2";"1";"2015-02-24 16:15:18.924";"2015-02-24 16:33:17.451";"1";"4";"0";"587";"91";"module.training_block3.exec-4667.GoNoGo3";;;;;;;;;;;;;;;;;;;;;;;;;;;;;;;;;;;;;;;;;;;;;;;;;;;;;;;;;;;;;;;;;;;;;"1249";"2015-02-24 16:20:01.216";"NST_correctLoc";"8";"0";"FINISHED";"LEFT";"success";"431";"0";"2015-02-24 16:19:59.966";"1";;;;;;;;;;;;;;;;;;;;;;;;;;;;;;;;;
"cw1963";"1963";;"Windows 7";"Rachel's Experiment (DP)";"1.0";"3";"1";"1";"3";"2";"1";"2015-02-24 16:15:18.924";"2015-02-24 16:33:17.451";"1";"4";"0";"588";"92";"module.training_block3.exec-4667.GoNoGo3";;;;;;;;;;;;;;;;;;;;;;;;;;;;;;;;;;;;;;;;;;;;;;;;;;;;;;;;;;;;;;;;;;;;;"1242";"2015-02-24 16:20:03.727";"NST_correctLoc";"16";"0";"FINISHED";"LEFT";"success";"334";"0";"2015-02-24 16:20:02.477";"2";;;;;;;;;;;;;;;;;;;;;;;;;;;;;;;;;
"cw1963";"1963";;"Windows 7";"Rachel's Experiment (DP)";"1.0";"3";"1";"1";"3";"2";"1";"2015-02-24 16:15:18.924";"2015-02-24 16:33:17.451";"1";"4";"0";"589";"93";"module.training_block3.exec-4667.GoNoGo3";;;;;;;;;;;;;;;;;;;;;;;;;;;;;;;;;;;;;;;;;;;;;;;;;;;;;;;;;;;;;;;;;;;;;"1245";"2015-02-24 16:20:06.277";"NST_correctLoc";"13";"1";"FINISHED";"RIGHT";"success";"362";"0";"2015-02-24 16:20:05.027";"2";;;;;;;;;;;;;;;;;;;;;;;;;;;;;;;;;
"cw1963";"1963";;"Windows 7";"Rachel's Experiment (DP)";"1.0";"3";"1";"1";"3";"2";"1";"2015-02-24 16:15:18.924";"2015-02-24 16:33:17.451";"1";"4";"0";"590";"94";"module.training_block3.exec-4667.GoNoGo3";;;;;;;;;;;;;;;;;;;;;;;;;;;;;;;;;;;;;;;;;;;;;;;;;;;;;;;;;;;;;;;;;;;;;"1247";"2015-02-24 16:20:08.846";"NST_correctLoc";"35";"0";"FINISHED";"LEFT";"success";"347";"0";"2015-02-24 16:20:07.596";"3";;;;;;;;;;;;;;;;;;;;;;;;;;;;;;;;;
"cw1963";"1963";;"Windows 7";"Rachel's Experiment (DP)";"1.0";"3";"1";"1";"3";"2";"1";"2015-02-24 16:15:18.924";"2015-02-24 16:33:17.451";"1";"4";"0";"591";"95";"module.training_block3.exec-4667.GoNoGo3";;;;;;;;;;;;;;;;;;;;;;;;;;;;;;;;;;;;;;;;;;;;;;;;;;;;;;;;;;;;;;;;;;;;;"1246";"2015-02-24 16:20:11.408";"NST_correctLoc";"5";"1";"FINISHED";"RIGHT";"success";"322";"0";"2015-02-24 16:20:10.156";"1";;;;;;;;;;;;;;;;;;;;;;;;;;;;;;;;;
"cw1963";"1963";;"Windows 7";"Rachel's Experiment (DP)";"1.0";"3";"1";"1";"3";"2";"1";"2015-02-24 16:15:18.924";"2015-02-24 16:33:17.451";"1";"4";"0";"592";"96";"module.training_block3.exec-4667.GoNoGo3";;;;;;;;;;;;;;;;;;;;;;;;;;;;;;;;;;;;;;;;;;;;;;;;;;;;;;;;;;;;;;;;;;;;;"1247";"2015-02-24 16:20:13.968";"NST_correctLoc";"9";"0";"FINISHED";"LEFT";"success";"328";"0";"2015-02-24 16:20:12.718";"2";;;;;;;;;;;;;;;;;;;;;;;;;;;;;;;;;
"cw1963";"1963";;"Windows 7";"Rachel's Experiment (DP)";"1.0";"3";"1";"1";"3";"2";"1";"2015-02-24 16:15:18.924";"2015-02-24 16:33:17.451";"1";"4";"0";"593";"97";"module.training_block3.exec-4667.GoNoGo3";;;;;;;;;;;;;;;;;;;;;;;;;;;;;;;;;;;;;;;;;;;;;;;;;;;;;;;;;;;;;;;;;;;;;"1246";"2015-02-24 16:20:16.518";"NST_correctLoc";"32";"1";"FINISHED";"RIGHT";"success";"346";"0";"2015-02-24 16:20:15.268";"3";;;;;;;;;;;;;;;;;;;;;;;;;;;;;;;;;
"cw1963";"1963";;"Windows 7";"Rachel's Experiment (DP)";"1.0";"3";"1";"1";"3";"2";"1";"2015-02-24 16:15:18.924";"2015-02-24 16:33:17.451";"1";"4";"0";"594";"98";"module.training_block3.exec-4667.GoNoGo3";;;;;;;;;;;;;;;;;;;;;;;;;;;;;;;;;;;;;;;;;;;;;;;;;;;;;;;;;;;;;;;;;;;;;"1241";"2015-02-24 16:20:19.059";"NST_correctLoc";"3";"0";"FINISHED";"LEFT";"success";"344";"0";"2015-02-24 16:20:17.809";"1";;;;;;;;;;;;;;;;;;;;;;;;;;;;;;;;;
"cw1963";"1963";;"Windows 7";"Rachel's Experiment (DP)";"1.0";"3";"1";"1";"3";"2";"1";"2015-02-24 16:15:18.924";"2015-02-24 16:33:17.451";"1";"4";"0";"595";"99";"module.training_block3.exec-4667.GoNoGo3";;;;;;;;;;;;;;;;;;;;;;;;;;;;;;;;;;;;;;;;;;;;;;;;;;;;;;;;;;;;;;;;;;;;;"1242";"2015-02-24 16:20:21.629";"NST_correctLoc";"12";"1";"FINISHED";"RIGHT";"success";"353";"0";"2015-02-24 16:20:20.379";"2";;;;;;;;;;;;;;;;;;;;;;;;;;;;;;;;;
"cw1963";"1963";;"Windows 7";"Rachel's Experiment (DP)";"1.0";"3";"1";"1";"3";"2";"1";"2015-02-24 16:15:18.924";"2015-02-24 16:33:17.451";"1";"4";"0";"596";"100";"module.training_block3.exec-4667.GoNoGo3";;;;;;;;;;;;;;;;;;;;;;;;;;;;;;;;;;;;;;;;;;;;;;;;;;;;;;;;;;;;;;;;;;;;;"1246";"2015-02-24 16:20:24.189";"NST_correctLoc";"24";"1";"FINISHED";"RIGHT";"success";"412";"0";"2015-02-24 16:20:22.939";"3";;;;;;;;;;;;;;;;;;;;;;;;;;;;;;;;;
"cw1963";"1963";;"Windows 7";"Rachel's Experiment (DP)";"1.0";"3";"1";"1";"3";"2";"1";"2015-02-24 16:15:18.924";"2015-02-24 16:33:17.451";"1";"4";"0";"597";"101";"module.training_block3.exec-4667.GoNoGo3";;;;;;;;;;;;;;;;;;;;;;;;;;;;;;;;;;;;;;;;;;;;;;;;;;;;;;;;;;;;;;;;;;;;;"1245";"2015-02-24 16:20:26.739";"NST_correctLoc";"18";"0";"FINISHED";"LEFT";"success";"373";"0";"2015-02-24 16:20:25.489";"3";;;;;;;;;;;;;;;;;;;;;;;;;;;;;;;;;
"cw1963";"1963";;"Windows 7";"Rachel's Experiment (DP)";"1.0";"3";"1";"1";"3";"2";"1";"2015-02-24 16:15:18.924";"2015-02-24 16:33:17.451";"1";"4";"0";"598";"102";"module.training_block3.exec-4667.GoNoGo3";;;;;;;;;;;;;;;;;;;;;;;;;;;;;;;;;;;;;;;;;;;;;;;;;;;;;;;;;;;;;;;;;;;;;"1247";"2015-02-24 16:20:29.299";"NST_correctLoc";"26";"0";"FINISHED";"LEFT";"success";"392";"0";"2015-02-24 16:20:28.049";"3";;;;;;;;;;;;;;;;;;;;;;;;;;;;;;;;;
"cw1963";"1963";;"Windows 7";"Rachel's Experiment (DP)";"1.0";"3";"1";"1";"3";"2";"1";"2015-02-24 16:15:18.924";"2015-02-24 16:33:17.451";"1";"4";"0";"599";"103";"module.training_block3.exec-4667.GoNoGo3";;;;;;;;;;;;;;;;;;;;;;;;;;;;;;;;;;;;;;;;;;;;;;;;;;;;;;;;;;;;;;;;;;;;;"1246";"2015-02-24 16:20:31.839";"NST_correctLoc";"1";"1";"FINISHED";"RIGHT";"success";"378";"0";"2015-02-24 16:20:30.589";"1";;;;;;;;;;;;;;;;;;;;;;;;;;;;;;;;;
"cw1963";"1963";;"Windows 7";"Rachel's Experiment (DP)";"1.0";"3";"1";"1";"3";"2";"1";"2015-02-24 16:15:18.924";"2015-02-24 16:33:17.451";"1";"4";"0";"600";"104";"module.training_block3.exec-4667.GoNoGo3";;;;;;;;;;;;;;;;;;;;;;;;;;;;;;;;;;;;;;;;;;;;;;;;;;;;;;;;;;;;;;;;;;;;;"1248";"2015-02-24 16:20:34.399";"NST_correctLoc";"25";"1";"FINISHED";"RIGHT";"success";"357";"0";"2015-02-24 16:20:33.149";"3";;;;;;;;;;;;;;;;;;;;;;;;;;;;;;;;;
"cw1963";"1963";;"Windows 7";"Rachel's Experiment (DP)";"1.0";"3";"1";"1";"3";"2";"1";"2015-02-24 16:15:18.924";"2015-02-24 16:33:17.451";"1";"4";"0";"601";"105";"module.training_block3.exec-4667.GoNoGo3";;;;;;;;;;;;;;;;;;;;;;;;;;;;;;;;;;;;;;;;;;;;;;;;;;;;;;;;;;;;;;;;;;;;;"1245";"2015-02-24 16:20:36.959";"NST_correctLoc";"6";"1";"FINISHED";"RIGHT";"success";"370";"0";"2015-02-24 16:20:35.709";"1";;;;;;;;;;;;;;;;;;;;;;;;;;;;;;;;;
"cw1963";"1963";;"Windows 7";"Rachel's Experiment (DP)";"1.0";"3";"1";"1";"3";"2";"1";"2015-02-24 16:15:18.924";"2015-02-24 16:33:17.451";"1";"4";"0";"602";"106";"module.training_block3.exec-4667.GoNoGo3";;;;;;;;;;;;;;;;;;;;;;;;;;;;;;;;;;;;;;;;;;;;;;;;;;;;;;;;;;;;;;;;;;;;;"1244";"2015-02-24 16:20:39.517";"NST_correctLoc";"7";"0";"FINISHED";"LEFT";"success";"366";"0";"2015-02-24 16:20:38.267";"1";;;;;;;;;;;;;;;;;;;;;;;;;;;;;;;;;
"cw1963";"1963";;"Windows 7";"Rachel's Experiment (DP)";"1.0";"3";"1";"1";"3";"2";"1";"2015-02-24 16:15:18.924";"2015-02-24 16:33:17.451";"1";"4";"0";"603";"107";"module.training_block3.exec-4667.GoNoGo3";;;;;;;;;;;;;;;;;;;;;;;;;;;;;;;;;;;;;;;;;;;;;;;;;;;;;;;;;;;;;;;;;;;;;"1245";"2015-02-24 16:20:42.067";"NST_correctLoc";"2";"1";"FINISHED";"RIGHT";"success";"329";"0";"2015-02-24 16:20:40.817";"1";;;;;;;;;;;;;;;;;;;;;;;;;;;;;;;;;
"cw1963";"1963";;"Windows 7";"Rachel's Experiment (DP)";"1.0";"3";"1";"1";"3";"2";"1";"2015-02-24 16:15:18.924";"2015-02-24 16:33:17.451";"1";"4";"0";"604";"108";"module.training_block3.exec-4667.GoNoGo3";;;;;;;;;;;;;;;;;;;;;;;;;;;;;;;;;;;;;;;;;;;;;;;;;;;;;;;;;;;;;;;;;;;;;"1246";"2015-02-24 16:20:44.619";"NST_correctLoc";"29";"1";"FINISHED";"RIGHT";"success";"371";"0";"2015-02-24 16:20:43.367";"3";;;;;;;;;;;;;;;;;;;;;;;;;;;;;;;;;
"cw1963";"1963";;"Windows 7";"Rachel's Experiment (DP)";"1.0";"3";"1";"1";"3";"2";"1";"2015-02-24 16:15:18.924";"2015-02-24 16:33:17.451";"1";"4";"0";"605";"109";"module.training_block3.exec-4667.GoNoGo3";;;;;;;;;;;;;;;;;;;;;;;;;;;;;;;;;;;;;;;;;;;;;;;;;;;;;;;;;;;;;;;;;;;;;"1244";"2015-02-24 16:20:47.169";"NST_correctLoc";"14";"0";"FINISHED";"LEFT";"success";"338";"0";"2015-02-24 16:20:45.919";"2";;;;;;;;;;;;;;;;;;;;;;;;;;;;;;;;;
"cw1963";"1963";;"Windows 7";"Rachel's Experiment (DP)";"1.0";"3";"1";"1";"3";"2";"1";"2015-02-24 16:15:18.924";"2015-02-24 16:33:17.451";"1";"4";"0";"606";"110";"module.training_block3.exec-4667.GoNoGo3";;;;;;;;;;;;;;;;;;;;;;;;;;;;;;;;;;;;;;;;;;;;;;;;;;;;;;;;;;;;;;;;;;;;;"1243";"2015-02-24 16:20:49.739";"NST_correctLoc";"27";"1";"FINISHED";"RIGHT";"success";"383";"0";"2015-02-24 16:20:48.489";"3";;;;;;;;;;;;;;;;;;;;;;;;;;;;;;;;;
"cw1963";"1963";;"Windows 7";"Rachel's Experiment (DP)";"1.0";"3";"1";"1";"3";"2";"1";"2015-02-24 16:15:18.924";"2015-02-24 16:33:17.451";"1";"4";"0";"607";"111";"module.training_block3.exec-4667.GoNoGo3";;;;;;;;;;;;;;;;;;;;;;;;;;;;;;;;;;;;;;;;;;;;;;;;;;;;;;;;;;;;;;;;;;;;;"1241";"2015-02-24 16:20:52.299";"NST_correctLoc";"17";"1";"FINISHED";"RIGHT";"success";"381";"0";"2015-02-24 16:20:51.049";"2";;;;;;;;;;;;;;;;;;;;;;;;;;;;;;;;;
"cw1963";"1963";;"Windows 7";"Rachel's Experiment (DP)";"1.0";"3";"1";"1";"3";"2";"1";"2015-02-24 16:15:18.924";"2015-02-24 16:33:17.451";"1";"4";"0";"608";"112";"module.training_block3.exec-4667.GoNoGo3";;;;;;;;;;;;;;;;;;;;;;;;;;;;;;;;;;;;;;;;;;;;;;;;;;;;;;;;;;;;;;;;;;;;;"1243";"2015-02-24 16:20:54.859";"NST_correctLoc";"10";"1";"FINISHED";"RIGHT";"success";"352";"0";"2015-02-24 16:20:53.609";"2";;;;;;;;;;;;;;;;;;;;;;;;;;;;;;;;;
"cw1963";"1963";;"Windows 7";"Rachel's Experiment (DP)";"1.0";"3";"1";"1";"3";"2";"1";"2015-02-24 16:15:18.924";"2015-02-24 16:33:17.451";"1";"4";"0";"609";"113";"module.training_block3.exec-4667.GoNoGo3";;;;;;;;;;;;;;;;;;;;;;;;;;;;;;;;;;;;;;;;;;;;;;;;;;;;;;;;;;;;;;;;;;;;;"1243";"2015-02-24 16:20:57.419";"NST_correctLoc";"4";"0";"FINISHED";"LEFT";"success";"407";"0";"2015-02-24 16:20:56.169";"1";;;;;;;;;;;;;;;;;;;;;;;;;;;;;;;;;
"cw1963";"1963";;"Windows 7";"Rachel's Experiment (DP)";"1.0";"3";"1";"1";"3";"2";"1";"2015-02-24 16:15:18.924";"2015-02-24 16:33:17.451";"1";"4";"0";"610";"114";"module.training_block3.exec-4667.GoNoGo3";;;;;;;;;;;;;;;;;;;;;;;;;;;;;;;;;;;;;;;;;;;;;;;;;;;;;;;;;;;;;;;;;;;;;"1241";"2015-02-24 16:20:59.949";"NST_correctLoc";"19";"1";"FINISHED";"RIGHT";"success";"412";"0";"2015-02-24 16:20:58.699";"3";;;;;;;;;;;;;;;;;;;;;;;;;;;;;;;;;
"cw1963";"1963";;"Windows 7";"Rachel's Experiment (DP)";"1.0";"3";"1";"1";"3";"2";"1";"2015-02-24 16:15:18.924";"2015-02-24 16:33:17.451";"1";"4";"0";"611";"115";"module.training_block3.exec-4667.GoNoGo3";;;;;;;;;;;;;;;;;;;;;;;;;;;;;;;;;;;;;;;;;;;;;;;;;;;;;;;;;;;;;;;;;;;;;"1243";"2015-02-24 16:21:02.499";"NST_correctLoc";"23";"0";"FINISHED";"LEFT";"success";"586";"0";"2015-02-24 16:21:01.249";"3";;;;;;;;;;;;;;;;;;;;;;;;;;;;;;;;;
"cw1963";"1963";;"Windows 7";"Rachel's Experiment (DP)";"1.0";"3";"1";"1";"3";"2";"1";"2015-02-24 16:15:18.924";"2015-02-24 16:33:17.451";"1";"4";"0";"612";"116";"module.training_block3.exec-4667.GoNoGo3";;;;;;;;;;;;;;;;;;;;;;;;;;;;;;;;;;;;;;;;;;;;;;;;;;;;;;;;;;;;;;;;;;;;;"1242";"2015-02-24 16:21:05.049";"NST_correctLoc";"11";"1";"FINISHED";"RIGHT";"success";"437";"0";"2015-02-24 16:21:03.799";"2";;;;;;;;;;;;;;;;;;;;;;;;;;;;;;;;;
"cw1963";"1963";;"Windows 7";"Rachel's Experiment (DP)";"1.0";"3";"1";"1";"3";"2";"1";"2015-02-24 16:15:18.924";"2015-02-24 16:33:17.451";"1";"4";"0";"613";"117";"module.training_block3.exec-4667.GoNoGo3";;;;;;;;;;;;;;;;;;;;;;;;;;;;;;;;;;;;;;;;;;;;;;;;;;;;;;;;;;;;;;;;;;;;;"1248";"2015-02-24 16:21:07.625";"NST_correctLoc";"20";"1";"FINISHED";"RIGHT";"success";"403";"0";"2015-02-24 16:21:06.369";"3";;;;;;;;;;;;;;;;;;;;;;;;;;;;;;;;;
"cw1963";"1963";;"Windows 7";"Rachel's Experiment (DP)";"1.0";"3";"1";"1";"3";"2";"1";"2015-02-24 16:15:18.924";"2015-02-24 16:33:17.451";"1";"4";"0";"614";"118";"module.training_block3.exec-4667.GoNoGo3";;;;;;;;;;;;;;;;;;;;;;;;;;;;;;;;;;;;;;;;;;;;;;;;;;;;;;;;;;;;;;;;;;;;;"1245";"2015-02-24 16:21:10.177";"NST_correctLoc";"15";"0";"FINISHED";"LEFT";"success";"350";"0";"2015-02-24 16:21:08.927";"2";;;;;;;;;;;;;;;;;;;;;;;;;;;;;;;;;
"cw1963";"1963";;"Windows 7";"Rachel's Experiment (DP)";"1.0";"3";"1";"1";"3";"2";"1";"2015-02-24 16:15:18.924";"2015-02-24 16:33:17.451";"1";"4";"0";"615";"119";"module.training_block3.exec-4667.GoNoGo3";;;;;;;;;;;;;;;;;;;;;;;;;;;;;;;;;;;;;;;;;;;;;;;;;;;;;;;;;;;;;;;;;;;;;"1242";"2015-02-24 16:21:12.727";"NST_correctLoc";"31";"1";"FINISHED";"RIGHT";"success";"342";"0";"2015-02-24 16:21:11.477";"3";;;;;;;;;;;;;;;;;;;;;;;;;;;;;;;;;
"cw1963";"1963";;"Windows 7";"Rachel's Experiment (DP)";"1.0";"3";"1";"1";"3";"2";"1";"2015-02-24 16:15:18.924";"2015-02-24 16:33:17.451";"1";"4";"0";"616";"120";"module.training_block3.exec-4667.GoNoGo3";;;;;;;;;;;;;;;;;;;;;;;;;;;;;;;;;;;;;;;;;;;;;;;;;;;;;;;;;;;;;;;;;;;;;"1243";"2015-02-24 16:21:15.277";"NST_correctLoc";"33";"1";"FINISHED";"RIGHT";"success";"361";"0";"2015-02-24 16:21:14.027";"3";;;;;;;;;;;;;;;;;;;;;;;;;;;;;;;;;
"cw1963";"1963";;"Windows 7";"Rachel's Experiment (DP)";"1.0";"3";"1";"1";"3";"2";"1";"2015-02-24 16:15:18.924";"2015-02-24 16:33:17.451";"1";"4";"0";"617";"121";"module.training_block3.exec-4667.GoNoGo3";;;;;;;;;;;;;;;;;;;;;;;;;;;;;;;;;;;;;;;;;;;;;;;;;;;;;;;;;;;;;;;;;;;;;"1241";"2015-02-24 16:21:17.837";"NST_correctLoc";"22";"1";"FINISHED";"RIGHT";"success";"423";"0";"2015-02-24 16:21:16.587";"3";;;;;;;;;;;;;;;;;;;;;;;;;;;;;;;;;
"cw1963";"1963";;"Windows 7";"Rachel's Experiment (DP)";"1.0";"3";"1";"1";"3";"2";"1";"2015-02-24 16:15:18.924";"2015-02-24 16:33:17.451";"1";"4";"0";"618";"122";"module.training_block3.exec-4667.GoNoGo3";;;;;;;;;;;;;;;;;;;;;;;;;;;;;;;;;;;;;;;;;;;;;;;;;;;;;;;;;;;;;;;;;;;;;"1241";"2015-02-24 16:21:20.377";"NST_correctLoc";"21";"1";"FINISHED";"RIGHT";"success";"843";"0";"2015-02-24 16:21:19.127";"3";;;;;;;;;;;;;;;;;;;;;;;;;;;;;;;;;
"cw1963";"1963";;"Windows 7";"Rachel's Experiment (DP)";"1.0";"3";"1";"1";"3";"2";"1";"2015-02-24 16:15:18.924";"2015-02-24 16:33:17.451";"1";"4";"0";"619";"123";"module.training_block4.exec-7187.GoNoGo4";;;;;;;;;;;;;;;;;;;;;;;;;;;;;;;;;;;;;;;;;;;;;;;;;;;;;;;;;;;;;;;;;;;;;;;;;;;;;;;;;"1250";"2015-02-24 16:21:31.479";"NST_correctLoc";"19";"0";"FINISHED";"LEFT";"success";"479";"0";"2015-02-24 16:21:30.228";"3";;;;;;;;;;;;;;;;;;;;;
"cw1963";"1963";;"Windows 7";"Rachel's Experiment (DP)";"1.0";"3";"1";"1";"3";"2";"1";"2015-02-24 16:15:18.924";"2015-02-24 16:33:17.451";"1";"4";"0";"620";"124";"module.training_block4.exec-7187.GoNoGo4";;;;;;;;;;;;;;;;;;;;;;;;;;;;;;;;;;;;;;;;;;;;;;;;;;;;;;;;;;;;;;;;;;;;;;;;;;;;;;;;;"1248";"2015-02-24 16:21:34.039";"NST_correctLoc";"2";"1";"FINISHED";"RIGHT";"success";"405";"0";"2015-02-24 16:21:32.789";"1";;;;;;;;;;;;;;;;;;;;;
"cw1963";"1963";;"Windows 7";"Rachel's Experiment (DP)";"1.0";"3";"1";"1";"3";"2";"1";"2015-02-24 16:15:18.924";"2015-02-24 16:33:17.451";"1";"4";"0";"621";"125";"module.training_block4.exec-7187.GoNoGo4";;;;;;;;;;;;;;;;;;;;;;;;;;;;;;;;;;;;;;;;;;;;;;;;;;;;;;;;;;;;;;;;;;;;;;;;;;;;;;;;;"1244";"2015-02-24 16:21:36.579";"NST_correctLoc";"12";"0";"FINISHED";"LEFT";"success";"436";"0";"2015-02-24 16:21:35.329";"2";;;;;;;;;;;;;;;;;;;;;
"cw1963";"1963";;"Windows 7";"Rachel's Experiment (DP)";"1.0";"3";"1";"1";"3";"2";"1";"2015-02-24 16:15:18.924";"2015-02-24 16:33:17.451";"1";"4";"0";"622";"126";"module.training_block4.exec-7187.GoNoGo4";;;;;;;;;;;;;;;;;;;;;;;;;;;;;;;;;;;;;;;;;;;;;;;;;;;;;;;;;;;;;;;;;;;;;;;;;;;;;;;;;"1253";"2015-02-24 16:21:39.137";"NST_correctLoc";"5";"0";"FINISHED";"LEFT";"success";"380";"0";"2015-02-24 16:21:37.879";"1";;;;;;;;;;;;;;;;;;;;;
"cw1963";"1963";;"Windows 7";"Rachel's Experiment (DP)";"1.0";"3";"1";"1";"3";"2";"1";"2015-02-24 16:15:18.924";"2015-02-24 16:33:17.451";"1";"4";"0";"623";"127";"module.training_block4.exec-7187.GoNoGo4";;;;;;;;;;;;;;;;;;;;;;;;;;;;;;;;;;;;;;;;;;;;;;;;;;;;;;;;;;;;;;;;;;;;;;;;;;;;;;;;;"1242";"2015-02-24 16:21:41.687";"NST_correctLoc";"8";"1";"FINISHED";"RIGHT";"success";"379";"0";"2015-02-24 16:21:40.437";"1";;;;;;;;;;;;;;;;;;;;;
"cw1963";"1963";;"Windows 7";"Rachel's Experiment (DP)";"1.0";"3";"1";"1";"3";"2";"1";"2015-02-24 16:15:18.924";"2015-02-24 16:33:17.451";"1";"4";"0";"624";"128";"module.training_block4.exec-7187.GoNoGo4";;;;;;;;;;;;;;;;;;;;;;;;;;;;;;;;;;;;;;;;;;;;;;;;;;;;;;;;;;;;;;;;;;;;;;;;;;;;;;;;;"1242";"2015-02-24 16:21:44.237";"NST_correctLoc";"32";"1";"FINISHED";"RIGHT";"success";"364";"0";"2015-02-24 16:21:42.987";"3";;;;;;;;;;;;;;;;;;;;;
"cw1963";"1963";;"Windows 7";"Rachel's Experiment (DP)";"1.0";"3";"1";"1";"3";"2";"1";"2015-02-24 16:15:18.924";"2015-02-24 16:33:17.451";"1";"4";"0";"625";"129";"module.training_block4.exec-7187.GoNoGo4";;;;;;;;;;;;;;;;;;;;;;;;;;;;;;;;;;;;;;;;;;;;;;;;;;;;;;;;;;;;;;;;;;;;;;;;;;;;;;;;;"1247";"2015-02-24 16:21:46.797";"NST_correctLoc";"10";"1";"FINISHED";"RIGHT";"success";"329";"0";"2015-02-24 16:21:45.547";"2";;;;;;;;;;;;;;;;;;;;;
"cw1963";"1963";;"Windows 7";"Rachel's Experiment (DP)";"1.0";"3";"1";"1";"3";"2";"1";"2015-02-24 16:15:18.924";"2015-02-24 16:33:17.451";"1";"4";"0";"626";"130";"module.training_block4.exec-7187.GoNoGo4";;;;;;;;;;;;;;;;;;;;;;;;;;;;;;;;;;;;;;;;;;;;;;;;;;;;;;;;;;;;;;;;;;;;;;;;;;;;;;;;;"1249";"2015-02-24 16:21:49.347";"NST_correctLoc";"28";"1";"FINISHED";"RIGHT";"success";"372";"0";"2015-02-24 16:21:48.097";"3";;;;;;;;;;;;;;;;;;;;;
"cw1963";"1963";;"Windows 7";"Rachel's Experiment (DP)";"1.0";"3";"1";"1";"3";"2";"1";"2015-02-24 16:15:18.924";"2015-02-24 16:33:17.451";"1";"4";"0";"627";"131";"module.training_block4.exec-7187.GoNoGo4";;;;;;;;;;;;;;;;;;;;;;;;;;;;;;;;;;;;;;;;;;;;;;;;;;;;;;;;;;;;;;;;;;;;;;;;;;;;;;;;;"1244";"2015-02-24 16:21:51.907";"NST_correctLoc";"27";"1";"FINISHED";"RIGHT";"success";"320";"0";"2015-02-24 16:21:50.657";"3";;;;;;;;;;;;;;;;;;;;;
"cw1963";"1963";;"Windows 7";"Rachel's Experiment (DP)";"1.0";"3";"1";"1";"3";"2";"1";"2015-02-24 16:15:18.924";"2015-02-24 16:33:17.451";"1";"4";"0";"628";"132";"module.training_block4.exec-7187.GoNoGo4";;;;;;;;;;;;;;;;;;;;;;;;;;;;;;;;;;;;;;;;;;;;;;;;;;;;;;;;;;;;;;;;;;;;;;;;;;;;;;;;;"1246";"2015-02-24 16:21:54.467";"NST_correctLoc";"26";"0";"FINISHED";"LEFT";"success";"370";"0";"2015-02-24 16:21:53.217";"3";;;;;;;;;;;;;;;;;;;;;
"cw1963";"1963";;"Windows 7";"Rachel's Experiment (DP)";"1.0";"3";"1";"1";"3";"2";"1";"2015-02-24 16:15:18.924";"2015-02-24 16:33:17.451";"1";"4";"0";"629";"133";"module.training_block4.exec-7187.GoNoGo4";;;;;;;;;;;;;;;;;;;;;;;;;;;;;;;;;;;;;;;;;;;;;;;;;;;;;;;;;;;;;;;;;;;;;;;;;;;;;;;;;"1247";"2015-02-24 16:21:56.998";"NST_correctLoc";"22";"1";"FINISHED";"RIGHT";"success";"336";"0";"2015-02-24 16:21:55.747";"3";;;;;;;;;;;;;;;;;;;;;
"cw1963";"1963";;"Windows 7";"Rachel's Experiment (DP)";"1.0";"3";"1";"1";"3";"2";"1";"2015-02-24 16:15:18.924";"2015-02-24 16:33:17.451";"1";"4";"0";"630";"134";"module.training_block4.exec-7187.GoNoGo4";;;;;;;;;;;;;;;;;;;;;;;;;;;;;;;;;;;;;;;;;;;;;;;;;;;;;;;;;;;;;;;;;;;;;;;;;;;;;;;;;"1242";"2015-02-24 16:21:59.558";"NST_correctLoc";"11";"0";"FINISHED";"LEFT";"success";"364";"0";"2015-02-24 16:21:58.308";"2";;;;;;;;;;;;;;;;;;;;;
"cw1963";"1963";;"Windows 7";"Rachel's Experiment (DP)";"1.0";"3";"1";"1";"3";"2";"1";"2015-02-24 16:15:18.924";"2015-02-24 16:33:17.451";"1";"4";"0";"631";"135";"module.training_block4.exec-7187.GoNoGo4";;;;;;;;;;;;;;;;;;;;;;;;;;;;;;;;;;;;;;;;;;;;;;;;;;;;;;;;;;;;;;;;;;;;;;;;;;;;;;;;;"1241";"2015-02-24 16:22:02.108";"NST_correctLoc";"15";"1";"FINISHED";"RIGHT";"success";"477";"0";"2015-02-24 16:22:00.858";"2";;;;;;;;;;;;;;;;;;;;;
"cw1963";"1963";;"Windows 7";"Rachel's Experiment (DP)";"1.0";"3";"1";"1";"3";"2";"1";"2015-02-24 16:15:18.924";"2015-02-24 16:33:17.451";"1";"4";"0";"632";"136";"module.training_block4.exec-7187.GoNoGo4";;;;;;;;;;;;;;;;;;;;;;;;;;;;;;;;;;;;;;;;;;;;;;;;;;;;;;;;;;;;;;;;;;;;;;;;;;;;;;;;;"1244";"2015-02-24 16:22:04.658";"NST_correctLoc";"23";"1";"FINISHED";"RIGHT";"success";"330";"0";"2015-02-24 16:22:03.408";"3";;;;;;;;;;;;;;;;;;;;;
"cw1963";"1963";;"Windows 7";"Rachel's Experiment (DP)";"1.0";"3";"1";"1";"3";"2";"1";"2015-02-24 16:15:18.924";"2015-02-24 16:33:17.451";"1";"4";"0";"633";"137";"module.training_block4.exec-7187.GoNoGo4";;;;;;;;;;;;;;;;;;;;;;;;;;;;;;;;;;;;;;;;;;;;;;;;;;;;;;;;;;;;;;;;;;;;;;;;;;;;;;;;;"1246";"2015-02-24 16:22:07.178";"NST_correctLoc";"31";"1";"FINISHED";"RIGHT";"success";"408";"0";"2015-02-24 16:22:05.928";"3";;;;;;;;;;;;;;;;;;;;;
"cw1963";"1963";;"Windows 7";"Rachel's Experiment (DP)";"1.0";"3";"1";"1";"3";"2";"1";"2015-02-24 16:15:18.924";"2015-02-24 16:33:17.451";"1";"4";"0";"634";"138";"module.training_block4.exec-7187.GoNoGo4";;;;;;;;;;;;;;;;;;;;;;;;;;;;;;;;;;;;;;;;;;;;;;;;;;;;;;;;;;;;;;;;;;;;;;;;;;;;;;;;;"1244";"2015-02-24 16:22:09.709";"NST_correctLoc";"34";"1";"FINISHED";"RIGHT";"success";"331";"0";"2015-02-24 16:22:08.458";"3";;;;;;;;;;;;;;;;;;;;;
"cw1963";"1963";;"Windows 7";"Rachel's Experiment (DP)";"1.0";"3";"1";"1";"3";"2";"1";"2015-02-24 16:15:18.924";"2015-02-24 16:33:17.451";"1";"4";"0";"635";"139";"module.training_block4.exec-7187.GoNoGo4";;;;;;;;;;;;;;;;;;;;;;;;;;;;;;;;;;;;;;;;;;;;;;;;;;;;;;;;;;;;;;;;;;;;;;;;;;;;;;;;;"1242";"2015-02-24 16:22:12.269";"NST_correctLoc";"30";"1";"FINISHED";"RIGHT";"success";"321";"0";"2015-02-24 16:22:11.019";"3";;;;;;;;;;;;;;;;;;;;;
"cw1963";"1963";;"Windows 7";"Rachel's Experiment (DP)";"1.0";"3";"1";"1";"3";"2";"1";"2015-02-24 16:15:18.924";"2015-02-24 16:33:17.451";"1";"4";"0";"636";"140";"module.training_block4.exec-7187.GoNoGo4";;;;;;;;;;;;;;;;;;;;;;;;;;;;;;;;;;;;;;;;;;;;;;;;;;;;;;;;;;;;;;;;;;;;;;;;;;;;;;;;;"1242";"2015-02-24 16:22:14.819";"NST_correctLoc";"3";"1";"FINISHED";"RIGHT";"success";"325";"0";"2015-02-24 16:22:13.569";"1";;;;;;;;;;;;;;;;;;;;;
"cw1963";"1963";;"Windows 7";"Rachel's Experiment (DP)";"1.0";"3";"1";"1";"3";"2";"1";"2015-02-24 16:15:18.924";"2015-02-24 16:33:17.451";"1";"4";"0";"637";"141";"module.training_block4.exec-7187.GoNoGo4";;;;;;;;;;;;;;;;;;;;;;;;;;;;;;;;;;;;;;;;;;;;;;;;;;;;;;;;;;;;;;;;;;;;;;;;;;;;;;;;;"1249";"2015-02-24 16:22:17.379";"NST_correctLoc";"21";"0";"FINISHED";"LEFT";"success";"531";"0";"2015-02-24 16:22:16.129";"3";;;;;;;;;;;;;;;;;;;;;
"cw1963";"1963";;"Windows 7";"Rachel's Experiment (DP)";"1.0";"3";"1";"1";"3";"2";"1";"2015-02-24 16:15:18.924";"2015-02-24 16:33:17.451";"1";"4";"0";"638";"142";"module.training_block4.exec-7187.GoNoGo4";;;;;;;;;;;;;;;;;;;;;;;;;;;;;;;;;;;;;;;;;;;;;;;;;;;;;;;;;;;;;;;;;;;;;;;;;;;;;;;;;"1242";"2015-02-24 16:22:19.919";"NST_correctLoc";"6";"1";"FINISHED";"RIGHT";"success";"631";"0";"2015-02-24 16:22:18.669";"1";;;;;;;;;;;;;;;;;;;;;
"cw1963";"1963";;"Windows 7";"Rachel's Experiment (DP)";"1.0";"3";"1";"1";"3";"2";"1";"2015-02-24 16:15:18.924";"2015-02-24 16:33:17.451";"1";"4";"0";"639";"143";"module.training_block4.exec-7187.GoNoGo4";;;;;;;;;;;;;;;;;;;;;;;;;;;;;;;;;;;;;;;;;;;;;;;;;;;;;;;;;;;;;;;;;;;;;;;;;;;;;;;;;"1245";"2015-02-24 16:22:22.469";"NST_correctLoc";"20";"0";"FINISHED";"LEFT";"success";"499";"0";"2015-02-24 16:22:21.219";"3";;;;;;;;;;;;;;;;;;;;;
"cw1963";"1963";;"Windows 7";"Rachel's Experiment (DP)";"1.0";"3";"1";"1";"3";"2";"1";"2015-02-24 16:15:18.924";"2015-02-24 16:33:17.451";"1";"4";"0";"640";"144";"module.training_block4.exec-7187.GoNoGo4";;;;;;;;;;;;;;;;;;;;;;;;;;;;;;;;;;;;;;;;;;;;;;;;;;;;;;;;;;;;;;;;;;;;;;;;;;;;;;;;;"1244";"2015-02-24 16:22:25.019";"NST_correctLoc";"14";"0";"FINISHED";"LEFT";"success";"420";"0";"2015-02-24 16:22:23.769";"2";;;;;;;;;;;;;;;;;;;;;
"cw1963";"1963";;"Windows 7";"Rachel's Experiment (DP)";"1.0";"3";"1";"1";"3";"2";"1";"2015-02-24 16:15:18.924";"2015-02-24 16:33:17.451";"1";"4";"0";"641";"145";"module.training_block4.exec-7187.GoNoGo4";;;;;;;;;;;;;;;;;;;;;;;;;;;;;;;;;;;;;;;;;;;;;;;;;;;;;;;;;;;;;;;;;;;;;;;;;;;;;;;;;"1244";"2015-02-24 16:22:27.569";"NST_correctLoc";"18";"1";"FINISHED";"RIGHT";"success";"590";"0";"2015-02-24 16:22:26.319";"3";;;;;;;;;;;;;;;;;;;;;
"cw1963";"1963";;"Windows 7";"Rachel's Experiment (DP)";"1.0";"3";"1";"1";"3";"2";"1";"2015-02-24 16:15:18.924";"2015-02-24 16:33:17.451";"1";"4";"0";"642";"146";"module.training_block4.exec-7187.GoNoGo4";;;;;;;;;;;;;;;;;;;;;;;;;;;;;;;;;;;;;;;;;;;;;;;;;;;;;;;;;;;;;;;;;;;;;;;;;;;;;;;;;"1247";"2015-02-24 16:22:30.109";"NST_correctLoc";"17";"1";"FINISHED";"RIGHT";"success";"366";"0";"2015-02-24 16:22:28.859";"2";;;;;;;;;;;;;;;;;;;;;
"cw1963";"1963";;"Windows 7";"Rachel's Experiment (DP)";"1.0";"3";"1";"1";"3";"2";"1";"2015-02-24 16:15:18.924";"2015-02-24 16:33:17.451";"1";"4";"0";"643";"147";"module.training_block4.exec-7187.GoNoGo4";;;;;;;;;;;;;;;;;;;;;;;;;;;;;;;;;;;;;;;;;;;;;;;;;;;;;;;;;;;;;;;;;;;;;;;;;;;;;;;;;"1242";"2015-02-24 16:22:32.669";"NST_correctLoc";"7";"1";"FINISHED";"RIGHT";"success";"354";"0";"2015-02-24 16:22:31.419";"1";;;;;;;;;;;;;;;;;;;;;
"cw1963";"1963";;"Windows 7";"Rachel's Experiment (DP)";"1.0";"3";"1";"1";"3";"2";"1";"2015-02-24 16:15:18.924";"2015-02-24 16:33:17.451";"1";"4";"0";"644";"148";"module.training_block4.exec-7187.GoNoGo4";;;;;;;;;;;;;;;;;;;;;;;;;;;;;;;;;;;;;;;;;;;;;;;;;;;;;;;;;;;;;;;;;;;;;;;;;;;;;;;;;"1246";"2015-02-24 16:22:35.209";"NST_correctLoc";"1";"0";"FINISHED";"LEFT";"success";"345";"0";"2015-02-24 16:22:33.959";"1";;;;;;;;;;;;;;;;;;;;;
"cw1963";"1963";;"Windows 7";"Rachel's Experiment (DP)";"1.0";"3";"1";"1";"3";"2";"1";"2015-02-24 16:15:18.924";"2015-02-24 16:33:17.451";"1";"4";"0";"645";"149";"module.training_block4.exec-7187.GoNoGo4";;;;;;;;;;;;;;;;;;;;;;;;;;;;;;;;;;;;;;;;;;;;;;;;;;;;;;;;;;;;;;;;;;;;;;;;;;;;;;;;;"1248";"2015-02-24 16:22:37.773";"NST_correctLoc";"35";"1";"FINISHED";"RIGHT";"success";"395";"0";"2015-02-24 16:22:36.519";"3";;;;;;;;;;;;;;;;;;;;;
"cw1963";"1963";;"Windows 7";"Rachel's Experiment (DP)";"1.0";"3";"1";"1";"3";"2";"1";"2015-02-24 16:15:18.924";"2015-02-24 16:33:17.451";"1";"4";"0";"646";"150";"module.training_block4.exec-7187.GoNoGo4";;;;;;;;;;;;;;;;;;;;;;;;;;;;;;;;;;;;;;;;;;;;;;;;;;;;;;;;;;;;;;;;;;;;;;;;;;;;;;;;;"1250";"2015-02-24 16:22:40.328";"NST_correctLoc";"16";"1";"FINISHED";"RIGHT";"success";"497";"0";"2015-02-24 16:22:39.073";"2";;;;;;;;;;;;;;;;;;;;;
"cw1963";"1963";;"Windows 7";"Rachel's Experiment (DP)";"1.0";"3";"1";"1";"3";"2";"1";"2015-02-24 16:15:18.924";"2015-02-24 16:33:17.451";"1";"4";"0";"647";"151";"module.training_block4.exec-7187.GoNoGo4";;;;;;;;;;;;;;;;;;;;;;;;;;;;;;;;;;;;;;;;;;;;;;;;;;;;;;;;;;;;;;;;;;;;;;;;;;;;;;;;;"1244";"2015-02-24 16:22:42.878";"NST_correctLoc";"13";"1";"FINISHED";"RIGHT";"success";"486";"0";"2015-02-24 16:22:41.628";"2";;;;;;;;;;;;;;;;;;;;;
"cw1963";"1963";;"Windows 7";"Rachel's Experiment (DP)";"1.0";"3";"1";"1";"3";"2";"1";"2015-02-24 16:15:18.924";"2015-02-24 16:33:17.451";"1";"4";"0";"648";"152";"module.training_block4.exec-7187.GoNoGo4";;;;;;;;;;;;;;;;;;;;;;;;;;;;;;;;;;;;;;;;;;;;;;;;;;;;;;;;;;;;;;;;;;;;;;;;;;;;;;;;;"1243";"2015-02-24 16:22:45.429";"NST_correctLoc";"9";"0";"FINISHED";"LEFT";"success";"413";"0";"2015-02-24 16:22:44.178";"2";;;;;;;;;;;;;;;;;;;;;
"cw1963";"1963";;"Windows 7";"Rachel's Experiment (DP)";"1.0";"3";"1";"1";"3";"2";"1";"2015-02-24 16:15:18.924";"2015-02-24 16:33:17.451";"1";"4";"0";"649";"153";"module.training_block4.exec-7187.GoNoGo4";;;;;;;;;;;;;;;;;;;;;;;;;;;;;;;;;;;;;;;;;;;;;;;;;;;;;;;;;;;;;;;;;;;;;;;;;;;;;;;;;"1245";"2015-02-24 16:22:47.979";"NST_correctLoc";"25";"0";"FINISHED";"LEFT";"success";"440";"0";"2015-02-24 16:22:46.729";"3";;;;;;;;;;;;;;;;;;;;;
"cw1963";"1963";;"Windows 7";"Rachel's Experiment (DP)";"1.0";"3";"1";"1";"3";"2";"1";"2015-02-24 16:15:18.924";"2015-02-24 16:33:17.451";"1";"4";"0";"650";"154";"module.training_block4.exec-7187.GoNoGo4";;;;;;;;;;;;;;;;;;;;;;;;;;;;;;;;;;;;;;;;;;;;;;;;;;;;;;;;;;;;;;;;;;;;;;;;;;;;;;;;;"1243";"2015-02-24 16:22:50.519";"NST_correctLoc";"0";"1";"FINISHED";"RIGHT";"success";"475";"0";"2015-02-24 16:22:49.269";"1";;;;;;;;;;;;;;;;;;;;;
"cw1963";"1963";;"Windows 7";"Rachel's Experiment (DP)";"1.0";"3";"1";"1";"3";"2";"1";"2015-02-24 16:15:18.924";"2015-02-24 16:33:17.451";"1";"4";"0";"651";"155";"module.training_block4.exec-7187.GoNoGo4";;;;;;;;;;;;;;;;;;;;;;;;;;;;;;;;;;;;;;;;;;;;;;;;;;;;;;;;;;;;;;;;;;;;;;;;;;;;;;;;;"1246";"2015-02-24 16:22:53.050";"NST_correctLoc";"24";"1";"FINISHED";"RIGHT";"success";"555";"0";"2015-02-24 16:22:51.799";"3";;;;;;;;;;;;;;;;;;;;;
"cw1963";"1963";;"Windows 7";"Rachel's Experiment (DP)";"1.0";"3";"1";"1";"3";"2";"1";"2015-02-24 16:15:18.924";"2015-02-24 16:33:17.451";"1";"4";"0";"652";"156";"module.training_block4.exec-7187.GoNoGo4";;;;;;;;;;;;;;;;;;;;;;;;;;;;;;;;;;;;;;;;;;;;;;;;;;;;;;;;;;;;;;;;;;;;;;;;;;;;;;;;;"1247";"2015-02-24 16:22:55.610";"NST_correctLoc";"29";"1";"FINISHED";"RIGHT";"success";"364";"0";"2015-02-24 16:22:54.360";"3";;;;;;;;;;;;;;;;;;;;;
"cw1963";"1963";;"Windows 7";"Rachel's Experiment (DP)";"1.0";"3";"1";"1";"3";"2";"1";"2015-02-24 16:15:18.924";"2015-02-24 16:33:17.451";"1";"4";"0";"653";"157";"module.training_block4.exec-7187.GoNoGo4";;;;;;;;;;;;;;;;;;;;;;;;;;;;;;;;;;;;;;;;;;;;;;;;;;;;;;;;;;;;;;;;;;;;;;;;;;;;;;;;;"1242";"2015-02-24 16:22:58.160";"NST_correctLoc";"4";"0";"FINISHED";"LEFT";"success";"506";"0";"2015-02-24 16:22:56.910";"1";;;;;;;;;;;;;;;;;;;;;
"cw1963";"1963";;"Windows 7";"Rachel's Experiment (DP)";"1.0";"3";"1";"1";"3";"2";"1";"2015-02-24 16:15:18.924";"2015-02-24 16:33:17.451";"1";"4";"0";"654";"158";"module.training_block4.exec-7187.GoNoGo4";;;;;;;;;;;;;;;;;;;;;;;;;;;;;;;;;;;;;;;;;;;;;;;;;;;;;;;;;;;;;;;;;;;;;;;;;;;;;;;;;"1244";"2015-02-24 16:23:00.720";"NST_correctLoc";"33";"1";"FINISHED";"RIGHT";"success";"459";"0";"2015-02-24 16:22:59.470";"3";;;;;;;;;;;;;;;;;;;;;
"cw1963";"1963";;"Windows 7";"Rachel's Experiment (DP)";"1.0";"3";"1";"1";"3";"2";"1";"2015-02-24 16:15:18.924";"2015-02-24 16:33:17.451";"1";"4";"0";"655";"159";"module.DP_Practice.exec-3772.DP_practice";;;;;;;;;;;;;;;;;;;;;;;;;;;;;;;;;;"3016";"2015-02-24 16:23:11.798";"FINISHED";"2";"RIGHT";"success";"687";"2015-02-24 16:23:08.786";"250";"N7";"N8";;;;;;;;;;;;;;;;;;;;;;;;;;;;;;;;;;;;;;;;;;;;;;;;;;;;;;;;;;;;;;;;;;;;;
"cw1963";"1963";;"Windows 7";"Rachel's Experiment (DP)";"1.0";"3";"1";"1";"3";"2";"1";"2015-02-24 16:15:18.924";"2015-02-24 16:33:17.451";"1";"4";"0";"656";"160";"module.DP_Practice.exec-3772.DP_practice";;;;;;;;;;;;;;;;;;;;;;;;;;;;;;;;;;"3003";"2015-02-24 16:23:15.128";"FINISHED";"1";"LEFT";"success";"670";"2015-02-24 16:23:12.118";"250";"N4";"N3";;;;;;;;;;;;;;;;;;;;;;;;;;;;;;;;;;;;;;;;;;;;;;;;;;;;;;;;;;;;;;;;;;;;;
"cw1963";"1963";;"Windows 7";"Rachel's Experiment (DP)";"1.0";"3";"1";"1";"3";"2";"1";"2015-02-24 16:15:18.924";"2015-02-24 16:33:17.451";"1";"4";"0";"657";"161";"module.DP_Practice.exec-3772.DP_practice";;;;;;;;;;;;;;;;;;;;;;;;;;;;;;;;;;"3001";"2015-02-24 16:23:18.468";"FINISHED";"2";"RIGHT";"success";"792";"2015-02-24 16:23:15.458";"250";"N18";"N17";;;;;;;;;;;;;;;;;;;;;;;;;;;;;;;;;;;;;;;;;;;;;;;;;;;;;;;;;;;;;;;;;;;;;
"cw1963";"1963";;"Windows 7";"Rachel's Experiment (DP)";"1.0";"3";"1";"1";"3";"2";"1";"2015-02-24 16:15:18.924";"2015-02-24 16:33:17.451";"1";"4";"0";"658";"162";"module.DP_Practice.exec-3772.DP_practice";;;;;;;;;;;;;;;;;;;;;;;;;;;;;;;;;;"3009";"2015-02-24 16:23:21.798";"FINISHED";"2";"RIGHT";"success";"509";"2015-02-24 16:23:18.788";"250";"N8";"N7";;;;;;;;;;;;;;;;;;;;;;;;;;;;;;;;;;;;;;;;;;;;;;;;;;;;;;;;;;;;;;;;;;;;;
"cw1963";"1963";;"Windows 7";"Rachel's Experiment (DP)";"1.0";"3";"1";"1";"3";"2";"1";"2015-02-24 16:15:18.924";"2015-02-24 16:33:17.451";"1";"4";"0";"659";"163";"module.DP_Practice.exec-3772.DP_practice";;;;;;;;;;;;;;;;;;;;;;;;;;;;;;;;;;"3000";"2015-02-24 16:23:25.118";"FINISHED";"2";"RIGHT";"success";"758";"2015-02-24 16:23:22.108";"250";"N1";"N2";;;;;;;;;;;;;;;;;;;;;;;;;;;;;;;;;;;;;;;;;;;;;;;;;;;;;;;;;;;;;;;;;;;;;
"cw1963";"1963";;"Windows 7";"Rachel's Experiment (DP)";"1.0";"3";"1";"1";"3";"2";"1";"2015-02-24 16:15:18.924";"2015-02-24 16:33:17.451";"1";"4";"0";"660";"164";"module.DP_Practice.exec-3772.DP_practice";;;;;;;;;;;;;;;;;;;;;;;;;;;;;;;;;;"3004";"2015-02-24 16:23:28.418";"FINISHED";"1";"LEFT";"success";"814";"2015-02-24 16:23:25.408";"250";"N17";"N18";;;;;;;;;;;;;;;;;;;;;;;;;;;;;;;;;;;;;;;;;;;;;;;;;;;;;;;;;;;;;;;;;;;;;
"cw1963";"1963";;"Windows 7";"Rachel's Experiment (DP)";"1.0";"3";"1";"1";"3";"2";"1";"2015-02-24 16:15:18.924";"2015-02-24 16:33:17.451";"1";"4";"0";"661";"165";"module.DP_Practice.exec-3772.DP_practice";;;;;;;;;;;;;;;;;;;;;;;;;;;;;;;;;;"3001";"2015-02-24 16:23:31.718";"FINISHED";"2";"RIGHT";"success";"570";"2015-02-24 16:23:28.708";"250";"N19";"N20";;;;;;;;;;;;;;;;;;;;;;;;;;;;;;;;;;;;;;;;;;;;;;;;;;;;;;;;;;;;;;;;;;;;;
"cw1963";"1963";;"Windows 7";"Rachel's Experiment (DP)";"1.0";"3";"1";"1";"3";"2";"1";"2015-02-24 16:15:18.924";"2015-02-24 16:33:17.451";"1";"4";"0";"662";"166";"module.DP_Practice.exec-3772.DP_practice";;;;;;;;;;;;;;;;;;;;;;;;;;;;;;;;;;"3001";"2015-02-24 16:23:35.028";"FINISHED";"1";"LEFT";"success";"824";"2015-02-24 16:23:32.018";"250";"N11";"N12";;;;;;;;;;;;;;;;;;;;;;;;;;;;;;;;;;;;;;;;;;;;;;;;;;;;;;;;;;;;;;;;;;;;;
"cw1963";"1963";;"Windows 7";"Rachel's Experiment (DP)";"1.0";"3";"1";"1";"3";"2";"1";"2015-02-24 16:15:18.924";"2015-02-24 16:33:17.451";"1";"4";"0";"663";"167";"module.DP_Practice.exec-3772.DP_practice";;;;;;;;;;;;;;;;;;;;;;;;;;;;;;;;;;"3001";"2015-02-24 16:23:38.339";"FINISHED";"2";"RIGHT";"success";"565";"2015-02-24 16:23:35.328";"250";"N3";"N4";;;;;;;;;;;;;;;;;;;;;;;;;;;;;;;;;;;;;;;;;;;;;;;;;;;;;;;;;;;;;;;;;;;;;
"cw1963";"1963";;"Windows 7";"Rachel's Experiment (DP)";"1.0";"3";"1";"1";"3";"2";"1";"2015-02-24 16:15:18.924";"2015-02-24 16:33:17.451";"1";"4";"0";"664";"168";"module.DP_Practice.exec-3772.DP_practice";;;;;;;;;;;;;;;;;;;;;;;;;;;;;;;;;;"3009";"2015-02-24 16:23:41.679";"FINISHED";"2";"RIGHT";"success";"577";"2015-02-24 16:23:38.669";"250";"N14";"N13";;;;;;;;;;;;;;;;;;;;;;;;;;;;;;;;;;;;;;;;;;;;;;;;;;;;;;;;;;;;;;;;;;;;;
"cw1963";"1963";;"Windows 7";"Rachel's Experiment (DP)";"1.0";"3";"1";"1";"3";"2";"1";"2015-02-24 16:15:18.924";"2015-02-24 16:33:17.451";"1";"4";"0";"665";"169";"module.DP_Practice.exec-3772.DP_practice";;;;;;;;;;;;;;;;;;;;;;;;;;;;;;;;;;"3000";"2015-02-24 16:23:45.009";"FINISHED";"1";"LEFT";"success";"551";"2015-02-24 16:23:41.999";"250";"N5";"N6";;;;;;;;;;;;;;;;;;;;;;;;;;;;;;;;;;;;;;;;;;;;;;;;;;;;;;;;;;;;;;;;;;;;;
"cw1963";"1963";;"Windows 7";"Rachel's Experiment (DP)";"1.0";"3";"1";"1";"3";"2";"1";"2015-02-24 16:15:18.924";"2015-02-24 16:33:17.451";"1";"4";"0";"666";"170";"module.DP_Practice.exec-3772.DP_practice";;;;;;;;;;;;;;;;;;;;;;;;;;;;;;;;;;"3005";"2015-02-24 16:23:48.309";"FINISHED";"1";"LEFT";"success";"663";"2015-02-24 16:23:45.299";"250";"N12";"N11";;;;;;;;;;;;;;;;;;;;;;;;;;;;;;;;;;;;;;;;;;;;;;;;;;;;;;;;;;;;;;;;;;;;;
"cw1963";"1963";;"Windows 7";"Rachel's Experiment (DP)";"1.0";"3";"1";"1";"3";"2";"1";"2015-02-24 16:15:18.924";"2015-02-24 16:33:17.451";"1";"4";"0";"667";"171";"module.DP_Practice.exec-3772.DP_practice";;;;;;;;;;;;;;;;;;;;;;;;;;;;;;;;;;"3002";"2015-02-24 16:23:51.629";"FINISHED";"2";"RIGHT";"success";"573";"2015-02-24 16:23:48.619";"250";"N13";"N14";;;;;;;;;;;;;;;;;;;;;;;;;;;;;;;;;;;;;;;;;;;;;;;;;;;;;;;;;;;;;;;;;;;;;
"cw1963";"1963";;"Windows 7";"Rachel's Experiment (DP)";"1.0";"3";"1";"1";"3";"2";"1";"2015-02-24 16:15:18.924";"2015-02-24 16:33:17.451";"1";"4";"0";"668";"172";"module.DP_Practice.exec-3772.DP_practice";;;;;;;;;;;;;;;;;;;;;;;;;;;;;;;;;;"3003";"2015-02-24 16:23:54.969";"FINISHED";"1";"LEFT";"success";"562";"2015-02-24 16:23:51.959";"250";"N16";"N15";;;;;;;;;;;;;;;;;;;;;;;;;;;;;;;;;;;;;;;;;;;;;;;;;;;;;;;;;;;;;;;;;;;;;
"cw1963";"1963";;"Windows 7";"Rachel's Experiment (DP)";"1.0";"3";"1";"1";"3";"2";"1";"2015-02-24 16:15:18.924";"2015-02-24 16:33:17.451";"1";"4";"0";"669";"173";"module.DP_Practice.exec-3772.DP_practice";;;;;;;;;;;;;;;;;;;;;;;;;;;;;;;;;;"3002";"2015-02-24 16:23:58.289";"FINISHED";"2";"RIGHT";"success";"528";"2015-02-24 16:23:55.279";"250";"N20";"N19";;;;;;;;;;;;;;;;;;;;;;;;;;;;;;;;;;;;;;;;;;;;;;;;;;;;;;;;;;;;;;;;;;;;;
"cw1963";"1963";;"Windows 7";"Rachel's Experiment (DP)";"1.0";"3";"1";"1";"3";"2";"1";"2015-02-24 16:15:18.924";"2015-02-24 16:33:17.451";"1";"4";"0";"670";"174";"module.DP_Practice.exec-3772.DP_practice";;;;;;;;;;;;;;;;;;;;;;;;;;;;;;;;;;"3002";"2015-02-24 16:24:01.609";"FINISHED";"2";"RIGHT";"success";"490";"2015-02-24 16:23:58.599";"250";"N15";"N16";;;;;;;;;;;;;;;;;;;;;;;;;;;;;;;;;;;;;;;;;;;;;;;;;;;;;;;;;;;;;;;;;;;;;
"cw1963";"1963";;"Windows 7";"Rachel's Experiment (DP)";"1.0";"3";"1";"1";"3";"2";"1";"2015-02-24 16:15:18.924";"2015-02-24 16:33:17.451";"1";"4";"0";"671";"175";"module.DP_Practice.exec-3772.DP_practice";;;;;;;;;;;;;;;;;;;;;;;;;;;;;;;;;;"3007";"2015-02-24 16:24:04.929";"FINISHED";"1";"LEFT";"success";"566";"2015-02-24 16:24:01.919";"250";"N6";"N5";;;;;;;;;;;;;;;;;;;;;;;;;;;;;;;;;;;;;;;;;;;;;;;;;;;;;;;;;;;;;;;;;;;;;
"cw1963";"1963";;"Windows 7";"Rachel's Experiment (DP)";"1.0";"3";"1";"1";"3";"2";"1";"2015-02-24 16:15:18.924";"2015-02-24 16:33:17.451";"1";"4";"0";"672";"176";"module.DP_Practice.exec-3772.DP_practice";;;;;;;;;;;;;;;;;;;;;;;;;;;;;;;;;;"2992";"2015-02-24 16:24:08.270";"FINISHED";"1";"LEFT";"success";"657";"2015-02-24 16:24:05.269";"250";"N9";"N10";;;;;;;;;;;;;;;;;;;;;;;;;;;;;;;;;;;;;;;;;;;;;;;;;;;;;;;;;;;;;;;;;;;;;
"cw1963";"1963";;"Windows 7";"Rachel's Experiment (DP)";"1.0";"3";"1";"1";"3";"2";"1";"2015-02-24 16:15:18.924";"2015-02-24 16:33:17.451";"1";"4";"0";"673";"177";"module.DP_Practice.exec-3772.DP_practice";;;;;;;;;;;;;;;;;;;;;;;;;;;;;;;;;;"3005";"2015-02-24 16:24:11.605";"FINISHED";"1";"LEFT";"success";"620";"2015-02-24 16:24:08.590";"250";"N10";"N9";;;;;;;;;;;;;;;;;;;;;;;;;;;;;;;;;;;;;;;;;;;;;;;;;;;;;;;;;;;;;;;;;;;;;
"cw1963";"1963";;"Windows 7";"Rachel's Experiment (DP)";"1.0";"3";"1";"1";"3";"2";"1";"2015-02-24 16:15:18.924";"2015-02-24 16:33:17.451";"1";"4";"0";"674";"178";"module.DP_Practice.exec-3772.DP_practice";;;;;;;;;;;;;;;;;;;;;;;;;;;;;;;;;;"3000";"2015-02-24 16:24:14.926";"FINISHED";"1";"LEFT";"success";"646";"2015-02-24 16:24:11.925";"250";"N2";"N1";;;;;;;;;;;;;;;;;;;;;;;;;;;;;;;;;;;;;;;;;;;;;;;;;;;;;;;;;;;;;;;;;;;;;
"cw1963";"1963";;"Windows 7";"Rachel's Experiment (DP)";"1.0";"3";"1";"1";"3";"2";"1";"2015-02-24 16:15:18.924";"2015-02-24 16:33:17.451";"1";"4";"0";"675";"179";"module.DP_Block1.exec-3287.DP_block1";"2000";"2015-02-24 16:24:26.966";"FINISHED";"1";"LEFT";"success";"736";"2015-02-24 16:24:24.966";"500";"F12";"NF12";;;;;;;;;;;;;;;;;;;;;;;;;;;;;;;;;;;;;;;;;;;;;;;;;;;;;;;;;;;;;;;;;;;;;;;;;;;;;;;;;;;;;;;;;;;;;;;;;;;;;;
"cw1963";"1963";;"Windows 7";"Rachel's Experiment (DP)";"1.0";"3";"1";"1";"3";"2";"1";"2015-02-24 16:15:18.924";"2015-02-24 16:33:17.451";"1";"4";"0";"676";"180";"module.DP_Block1.exec-3287.DP_block1";"1991";"2015-02-24 16:24:30.526";"FINISHED";"2";"RIGHT";"success";"744";"2015-02-24 16:24:28.526";"500";"NF6";"F6";;;;;;;;;;;;;;;;;;;;;;;;;;;;;;;;;;;;;;;;;;;;;;;;;;;;;;;;;;;;;;;;;;;;;;;;;;;;;;;;;;;;;;;;;;;;;;;;;;;;;;
"cw1963";"1963";;"Windows 7";"Rachel's Experiment (DP)";"1.0";"3";"1";"1";"3";"2";"1";"2015-02-24 16:15:18.924";"2015-02-24 16:33:17.451";"1";"4";"0";"677";"181";"module.DP_Block1.exec-3287.DP_block1";"1995";"2015-02-24 16:24:34.106";"FINISHED";"1";"LEFT";"success";"604";"2015-02-24 16:24:32.106";"500";"F0";"NF0";;;;;;;;;;;;;;;;;;;;;;;;;;;;;;;;;;;;;;;;;;;;;;;;;;;;;;;;;;;;;;;;;;;;;;;;;;;;;;;;;;;;;;;;;;;;;;;;;;;;;;
"cw1963";"1963";;"Windows 7";"Rachel's Experiment (DP)";"1.0";"3";"1";"1";"3";"2";"1";"2015-02-24 16:15:18.924";"2015-02-24 16:33:17.451";"1";"4";"0";"678";"182";"module.DP_Block1.exec-3287.DP_block1";"1999";"2015-02-24 16:24:37.694";"FINISHED";"1";"LEFT";"success";"695";"2015-02-24 16:24:35.686";"500";"NF1";"F1";;;;;;;;;;;;;;;;;;;;;;;;;;;;;;;;;;;;;;;;;;;;;;;;;;;;;;;;;;;;;;;;;;;;;;;;;;;;;;;;;;;;;;;;;;;;;;;;;;;;;;
"cw1963";"1963";;"Windows 7";"Rachel's Experiment (DP)";"1.0";"3";"1";"1";"3";"2";"1";"2015-02-24 16:15:18.924";"2015-02-24 16:33:17.451";"1";"4";"0";"679";"183";"module.DP_Block1.exec-3287.DP_block1";"1990";"2015-02-24 16:24:41.264";"FINISHED";"2";"RIGHT";"success";"877";"2015-02-24 16:24:39.264";"500";"F12";"NF12";;;;;;;;;;;;;;;;;;;;;;;;;;;;;;;;;;;;;;;;;;;;;;;;;;;;;;;;;;;;;;;;;;;;;;;;;;;;;;;;;;;;;;;;;;;;;;;;;;;;;;
"cw1963";"1963";;"Windows 7";"Rachel's Experiment (DP)";"1.0";"3";"1";"1";"3";"2";"1";"2015-02-24 16:15:18.924";"2015-02-24 16:33:17.451";"1";"4";"0";"680";"184";"module.DP_Block1.exec-3287.DP_block1";"1992";"2015-02-24 16:24:44.859";"FINISHED";"2";"RIGHT";"success";"883";"2015-02-24 16:24:42.859";"500";"F15";"NF15";;;;;;;;;;;;;;;;;;;;;;;;;;;;;;;;;;;;;;;;;;;;;;;;;;;;;;;;;;;;;;;;;;;;;;;;;;;;;;;;;;;;;;;;;;;;;;;;;;;;;;
"cw1963";"1963";;"Windows 7";"Rachel's Experiment (DP)";"1.0";"3";"1";"1";"3";"2";"1";"2015-02-24 16:15:18.924";"2015-02-24 16:33:17.451";"1";"4";"0";"681";"185";"module.DP_Block1.exec-3287.DP_block1";"1994";"2015-02-24 16:24:48.439";"FINISHED";"2";"RIGHT";"success";"739";"2015-02-24 16:24:46.439";"500";"NF8";"F8";;;;;;;;;;;;;;;;;;;;;;;;;;;;;;;;;;;;;;;;;;;;;;;;;;;;;;;;;;;;;;;;;;;;;;;;;;;;;;;;;;;;;;;;;;;;;;;;;;;;;;
"cw1963";"1963";;"Windows 7";"Rachel's Experiment (DP)";"1.0";"3";"1";"1";"3";"2";"1";"2015-02-24 16:15:18.924";"2015-02-24 16:33:17.451";"1";"4";"0";"682";"186";"module.DP_Block1.exec-3287.DP_block1";"1996";"2015-02-24 16:24:51.989";"FINISHED";"1";"LEFT";"success";"735";"2015-02-24 16:24:49.989";"500";"NF16";"F16";;;;;;;;;;;;;;;;;;;;;;;;;;;;;;;;;;;;;;;;;;;;;;;;;;;;;;;;;;;;;;;;;;;;;;;;;;;;;;;;;;;;;;;;;;;;;;;;;;;;;;
"cw1963";"1963";;"Windows 7";"Rachel's Experiment (DP)";"1.0";"3";"1";"1";"3";"2";"1";"2015-02-24 16:15:18.924";"2015-02-24 16:33:17.451";"1";"4";"0";"683";"187";"module.DP_Block1.exec-3287.DP_block1";"1990";"2015-02-24 16:24:55.509";"FINISHED";"2";"RIGHT";"success";"647";"2015-02-24 16:24:53.509";"500";"NF12";"F12";;;;;;;;;;;;;;;;;;;;;;;;;;;;;;;;;;;;;;;;;;;;;;;;;;;;;;;;;;;;;;;;;;;;;;;;;;;;;;;;;;;;;;;;;;;;;;;;;;;;;;
"cw1963";"1963";;"Windows 7";"Rachel's Experiment (DP)";"1.0";"3";"1";"1";"3";"2";"1";"2015-02-24 16:15:18.924";"2015-02-24 16:33:17.451";"1";"4";"0";"684";"188";"module.DP_Block1.exec-3287.DP_block1";"1999";"2015-02-24 16:24:59.049";"FINISHED";"2";"RIGHT";"success";"604";"2015-02-24 16:24:57.049";"500";"F2";"NF2";;;;;;;;;;;;;;;;;;;;;;;;;;;;;;;;;;;;;;;;;;;;;;;;;;;;;;;;;;;;;;;;;;;;;;;;;;;;;;;;;;;;;;;;;;;;;;;;;;;;;;
"cw1963";"1963";;"Windows 7";"Rachel's Experiment (DP)";"1.0";"3";"1";"1";"3";"2";"1";"2015-02-24 16:15:18.924";"2015-02-24 16:33:17.451";"1";"4";"0";"685";"189";"module.DP_Block1.exec-3287.DP_block1";"1990";"2015-02-24 16:25:02.579";"FINISHED";"1";"LEFT";"success";"569";"2015-02-24 16:25:00.579";"500";"F16";"NF16";;;;;;;;;;;;;;;;;;;;;;;;;;;;;;;;;;;;;;;;;;;;;;;;;;;;;;;;;;;;;;;;;;;;;;;;;;;;;;;;;;;;;;;;;;;;;;;;;;;;;;
"cw1963";"1963";;"Windows 7";"Rachel's Experiment (DP)";"1.0";"3";"1";"1";"3";"2";"1";"2015-02-24 16:15:18.924";"2015-02-24 16:33:17.451";"1";"4";"0";"686";"190";"module.DP_Block1.exec-3287.DP_block1";"1994";"2015-02-24 16:25:06.109";"FINISHED";"1";"LEFT";"success";"700";"2015-02-24 16:25:04.109";"500";"F10";"NF10";;;;;;;;;;;;;;;;;;;;;;;;;;;;;;;;;;;;;;;;;;;;;;;;;;;;;;;;;;;;;;;;;;;;;;;;;;;;;;;;;;;;;;;;;;;;;;;;;;;;;;
"cw1963";"1963";;"Windows 7";"Rachel's Experiment (DP)";"1.0";"3";"1";"1";"3";"2";"1";"2015-02-24 16:15:18.924";"2015-02-24 16:33:17.451";"1";"4";"0";"687";"191";"module.DP_Block1.exec-3287.DP_block1";"1995";"2015-02-24 16:25:09.687";"FINISHED";"1";"LEFT";"success";"687";"2015-02-24 16:25:07.687";"500";"NF8";"F8";;;;;;;;;;;;;;;;;;;;;;;;;;;;;;;;;;;;;;;;;;;;;;;;;;;;;;;;;;;;;;;;;;;;;;;;;;;;;;;;;;;;;;;;;;;;;;;;;;;;;;
"cw1963";"1963";;"Windows 7";"Rachel's Experiment (DP)";"1.0";"3";"1";"1";"3";"2";"1";"2015-02-24 16:15:18.924";"2015-02-24 16:33:17.451";"1";"4";"0";"688";"192";"module.DP_Block1.exec-3287.DP_block1";"2000";"2015-02-24 16:25:13.309";"FINISHED";"1";"LEFT";"success";"909";"2015-02-24 16:25:11.307";"500";"NF5";"F5";;;;;;;;;;;;;;;;;;;;;;;;;;;;;;;;;;;;;;;;;;;;;;;;;;;;;;;;;;;;;;;;;;;;;;;;;;;;;;;;;;;;;;;;;;;;;;;;;;;;;;
"cw1963";"1963";;"Windows 7";"Rachel's Experiment (DP)";"1.0";"3";"1";"1";"3";"2";"1";"2015-02-24 16:15:18.924";"2015-02-24 16:33:17.451";"1";"4";"0";"689";"193";"module.DP_Block1.exec-3287.DP_block1";"1992";"2015-02-24 16:25:16.890";"FINISHED";"2";"RIGHT";"success";"530";"2015-02-24 16:25:14.889";"500";"NF17";"F17";;;;;;;;;;;;;;;;;;;;;;;;;;;;;;;;;;;;;;;;;;;;;;;;;;;;;;;;;;;;;;;;;;;;;;;;;;;;;;;;;;;;;;;;;;;;;;;;;;;;;;
"cw1963";"1963";;"Windows 7";"Rachel's Experiment (DP)";"1.0";"3";"1";"1";"3";"2";"1";"2015-02-24 16:15:18.924";"2015-02-24 16:33:17.451";"1";"4";"0";"690";"194";"module.DP_Block1.exec-3287.DP_block1";"1997";"2015-02-24 16:25:20.450";"FINISHED";"1";"LEFT";"success";"512";"2015-02-24 16:25:18.450";"500";"F6";"NF6";;;;;;;;;;;;;;;;;;;;;;;;;;;;;;;;;;;;;;;;;;;;;;;;;;;;;;;;;;;;;;;;;;;;;;;;;;;;;;;;;;;;;;;;;;;;;;;;;;;;;;
"cw1963";"1963";;"Windows 7";"Rachel's Experiment (DP)";"1.0";"3";"1";"1";"3";"2";"1";"2015-02-24 16:15:18.924";"2015-02-24 16:33:17.451";"1";"4";"0";"691";"195";"module.DP_Block1.exec-3287.DP_block1";"1993";"2015-02-24 16:25:24.000";"FINISHED";"1";"LEFT";"success";"517";"2015-02-24 16:25:22.000";"500";"NF11";"F11";;;;;;;;;;;;;;;;;;;;;;;;;;;;;;;;;;;;;;;;;;;;;;;;;;;;;;;;;;;;;;;;;;;;;;;;;;;;;;;;;;;;;;;;;;;;;;;;;;;;;;
"cw1963";"1963";;"Windows 7";"Rachel's Experiment (DP)";"1.0";"3";"1";"1";"3";"2";"1";"2015-02-24 16:15:18.924";"2015-02-24 16:33:17.451";"1";"4";"0";"692";"196";"module.DP_Block1.exec-3287.DP_block1";"1994";"2015-02-24 16:25:27.571";"FINISHED";"2";"RIGHT";"success";"483";"2015-02-24 16:25:25.570";"500";"NF7";"F7";;;;;;;;;;;;;;;;;;;;;;;;;;;;;;;;;;;;;;;;;;;;;;;;;;;;;;;;;;;;;;;;;;;;;;;;;;;;;;;;;;;;;;;;;;;;;;;;;;;;;;
"cw1963";"1963";;"Windows 7";"Rachel's Experiment (DP)";"1.0";"3";"1";"1";"3";"2";"1";"2015-02-24 16:15:18.924";"2015-02-24 16:33:17.451";"1";"4";"0";"693";"197";"module.DP_Block1.exec-3287.DP_block1";"1998";"2015-02-24 16:25:31.161";"FINISHED";"1";"LEFT";"success";"472";"2015-02-24 16:25:29.161";"500";"F13";"NF13";;;;;;;;;;;;;;;;;;;;;;;;;;;;;;;;;;;;;;;;;;;;;;;;;;;;;;;;;;;;;;;;;;;;;;;;;;;;;;;;;;;;;;;;;;;;;;;;;;;;;;
"cw1963";"1963";;"Windows 7";"Rachel's Experiment (DP)";"1.0";"3";"1";"1";"3";"2";"1";"2015-02-24 16:15:18.924";"2015-02-24 16:33:17.451";"1";"4";"0";"694";"198";"module.DP_Block1.exec-3287.DP_block1";"2001";"2015-02-24 16:25:34.732";"FINISHED";"2";"RIGHT";"success";"141";"2015-02-24 16:25:32.731";"500";"NF16";"F16";;;;;;;;;;;;;;;;;;;;;;;;;;;;;;;;;;;;;;;;;;;;;;;;;;;;;;;;;;;;;;;;;;;;;;;;;;;;;;;;;;;;;;;;;;;;;;;;;;;;;;
"cw1963";"1963";;"Windows 7";"Rachel's Experiment (DP)";"1.0";"3";"1";"1";"3";"2";"1";"2015-02-24 16:15:18.924";"2015-02-24 16:33:17.451";"1";"4";"0";"695";"199";"module.DP_Block1.exec-3287.DP_block1";"1992";"2015-02-24 16:25:38.322";"FINISHED";"2";"RIGHT";"success";"674";"2015-02-24 16:25:36.322";"500";"F4";"NF4";;;;;;;;;;;;;;;;;;;;;;;;;;;;;;;;;;;;;;;;;;;;;;;;;;;;;;;;;;;;;;;;;;;;;;;;;;;;;;;;;;;;;;;;;;;;;;;;;;;;;;
"cw1963";"1963";;"Windows 7";"Rachel's Experiment (DP)";"1.0";"3";"1";"1";"3";"2";"1";"2015-02-24 16:15:18.924";"2015-02-24 16:33:17.451";"1";"4";"0";"696";"200";"module.DP_Block1.exec-3287.DP_block1";"1998";"2015-02-24 16:25:41.932";"FINISHED";"2";"RIGHT";"success";"440";"2015-02-24 16:25:39.932";"500";"NF9";"F9";;;;;;;;;;;;;;;;;;;;;;;;;;;;;;;;;;;;;;;;;;;;;;;;;;;;;;;;;;;;;;;;;;;;;;;;;;;;;;;;;;;;;;;;;;;;;;;;;;;;;;
"cw1963";"1963";;"Windows 7";"Rachel's Experiment (DP)";"1.0";"3";"1";"1";"3";"2";"1";"2015-02-24 16:15:18.924";"2015-02-24 16:33:17.451";"1";"4";"0";"697";"201";"module.DP_Block1.exec-3287.DP_block1";"1991";"2015-02-24 16:25:45.490";"FINISHED";"2";"RIGHT";"success";"533";"2015-02-24 16:25:43.490";"500";"F13";"NF13";;;;;;;;;;;;;;;;;;;;;;;;;;;;;;;;;;;;;;;;;;;;;;;;;;;;;;;;;;;;;;;;;;;;;;;;;;;;;;;;;;;;;;;;;;;;;;;;;;;;;;
"cw1963";"1963";;"Windows 7";"Rachel's Experiment (DP)";"1.0";"3";"1";"1";"3";"2";"1";"2015-02-24 16:15:18.924";"2015-02-24 16:33:17.451";"1";"4";"0";"698";"202";"module.DP_Block1.exec-3287.DP_block1";"1996";"2015-02-24 16:25:49.040";"FINISHED";"2";"RIGHT";"success";"524";"2015-02-24 16:25:47.040";"500";"F17";"NF17";;;;;;;;;;;;;;;;;;;;;;;;;;;;;;;;;;;;;;;;;;;;;;;;;;;;;;;;;;;;;;;;;;;;;;;;;;;;;;;;;;;;;;;;;;;;;;;;;;;;;;
"cw1963";"1963";;"Windows 7";"Rachel's Experiment (DP)";"1.0";"3";"1";"1";"3";"2";"1";"2015-02-24 16:15:18.924";"2015-02-24 16:33:17.451";"1";"4";"0";"699";"203";"module.DP_Block1.exec-3287.DP_block1";"1992";"2015-02-24 16:25:52.620";"FINISHED";"2";"RIGHT";"success";"467";"2015-02-24 16:25:50.620";"500";"F6";"NF6";;;;;;;;;;;;;;;;;;;;;;;;;;;;;;;;;;;;;;;;;;;;;;;;;;;;;;;;;;;;;;;;;;;;;;;;;;;;;;;;;;;;;;;;;;;;;;;;;;;;;;
"cw1963";"1963";;"Windows 7";"Rachel's Experiment (DP)";"1.0";"3";"1";"1";"3";"2";"1";"2015-02-24 16:15:18.924";"2015-02-24 16:33:17.451";"1";"4";"0";"700";"204";"module.DP_Block1.exec-3287.DP_block1";"1992";"2015-02-24 16:25:56.180";"FINISHED";"1";"LEFT";"success";"388";"2015-02-24 16:25:54.180";"500";"F9";"NF9";;;;;;;;;;;;;;;;;;;;;;;;;;;;;;;;;;;;;;;;;;;;;;;;;;;;;;;;;;;;;;;;;;;;;;;;;;;;;;;;;;;;;;;;;;;;;;;;;;;;;;
"cw1963";"1963";;"Windows 7";"Rachel's Experiment (DP)";"1.0";"3";"1";"1";"3";"2";"1";"2015-02-24 16:15:18.924";"2015-02-24 16:33:17.451";"1";"4";"0";"701";"205";"module.DP_Block1.exec-3287.DP_block1";"1995";"2015-02-24 16:25:59.750";"FINISHED";"1";"LEFT";"success";"557";"2015-02-24 16:25:57.750";"500";"NF6";"F6";;;;;;;;;;;;;;;;;;;;;;;;;;;;;;;;;;;;;;;;;;;;;;;;;;;;;;;;;;;;;;;;;;;;;;;;;;;;;;;;;;;;;;;;;;;;;;;;;;;;;;
"cw1963";"1963";;"Windows 7";"Rachel's Experiment (DP)";"1.0";"3";"1";"1";"3";"2";"1";"2015-02-24 16:15:18.924";"2015-02-24 16:33:17.451";"1";"4";"0";"702";"206";"module.DP_Block1.exec-3287.DP_block1";"1992";"2015-02-24 16:26:03.320";"FINISHED";"2";"RIGHT";"success";"456";"2015-02-24 16:26:01.320";"500";"F5";"NF5";;;;;;;;;;;;;;;;;;;;;;;;;;;;;;;;;;;;;;;;;;;;;;;;;;;;;;;;;;;;;;;;;;;;;;;;;;;;;;;;;;;;;;;;;;;;;;;;;;;;;;
"cw1963";"1963";;"Windows 7";"Rachel's Experiment (DP)";"1.0";"3";"1";"1";"3";"2";"1";"2015-02-24 16:15:18.924";"2015-02-24 16:33:17.451";"1";"4";"0";"703";"207";"module.DP_Block1.exec-3287.DP_block1";"1992";"2015-02-24 16:26:06.870";"FINISHED";"2";"RIGHT";"success";"514";"2015-02-24 16:26:04.870";"500";"F10";"NF10";;;;;;;;;;;;;;;;;;;;;;;;;;;;;;;;;;;;;;;;;;;;;;;;;;;;;;;;;;;;;;;;;;;;;;;;;;;;;;;;;;;;;;;;;;;;;;;;;;;;;;
"cw1963";"1963";;"Windows 7";"Rachel's Experiment (DP)";"1.0";"3";"1";"1";"3";"2";"1";"2015-02-24 16:15:18.924";"2015-02-24 16:33:17.451";"1";"4";"0";"704";"208";"module.DP_Block1.exec-3287.DP_block1";"1995";"2015-02-24 16:26:10.430";"FINISHED";"1";"LEFT";"success";"489";"2015-02-24 16:26:08.430";"500";"F2";"NF2";;;;;;;;;;;;;;;;;;;;;;;;;;;;;;;;;;;;;;;;;;;;;;;;;;;;;;;;;;;;;;;;;;;;;;;;;;;;;;;;;;;;;;;;;;;;;;;;;;;;;;
"cw1963";"1963";;"Windows 7";"Rachel's Experiment (DP)";"1.0";"3";"1";"1";"3";"2";"1";"2015-02-24 16:15:18.924";"2015-02-24 16:33:17.451";"1";"4";"0";"705";"209";"module.DP_Block1.exec-3287.DP_block1";"1993";"2015-02-24 16:26:14.000";"FINISHED";"2";"RIGHT";"success";"540";"2015-02-24 16:26:12.000";"500";"F8";"NF8";;;;;;;;;;;;;;;;;;;;;;;;;;;;;;;;;;;;;;;;;;;;;;;;;;;;;;;;;;;;;;;;;;;;;;;;;;;;;;;;;;;;;;;;;;;;;;;;;;;;;;
"cw1963";"1963";;"Windows 7";"Rachel's Experiment (DP)";"1.0";"3";"1";"1";"3";"2";"1";"2015-02-24 16:15:18.924";"2015-02-24 16:33:17.451";"1";"4";"0";"706";"210";"module.DP_Block1.exec-3287.DP_block1";"1997";"2015-02-24 16:26:17.540";"FINISHED";"2";"RIGHT";"success";"444";"2015-02-24 16:26:15.540";"500";"NF4";"F4";;;;;;;;;;;;;;;;;;;;;;;;;;;;;;;;;;;;;;;;;;;;;;;;;;;;;;;;;;;;;;;;;;;;;;;;;;;;;;;;;;;;;;;;;;;;;;;;;;;;;;
"cw1963";"1963";;"Windows 7";"Rachel's Experiment (DP)";"1.0";"3";"1";"1";"3";"2";"1";"2015-02-24 16:15:18.924";"2015-02-24 16:33:17.451";"1";"4";"0";"707";"211";"module.DP_Block1.exec-3287.DP_block1";"1996";"2015-02-24 16:26:21.110";"FINISHED";"1";"LEFT";"success";"537";"2015-02-24 16:26:19.110";"500";"NF7";"F7";;;;;;;;;;;;;;;;;;;;;;;;;;;;;;;;;;;;;;;;;;;;;;;;;;;;;;;;;;;;;;;;;;;;;;;;;;;;;;;;;;;;;;;;;;;;;;;;;;;;;;
"cw1963";"1963";;"Windows 7";"Rachel's Experiment (DP)";"1.0";"3";"1";"1";"3";"2";"1";"2015-02-24 16:15:18.924";"2015-02-24 16:33:17.451";"1";"4";"0";"708";"212";"module.DP_Block1.exec-3287.DP_block1";"2000";"2015-02-24 16:26:24.690";"FINISHED";"2";"RIGHT";"success";"482";"2015-02-24 16:26:22.690";"500";"NF11";"F11";;;;;;;;;;;;;;;;;;;;;;;;;;;;;;;;;;;;;;;;;;;;;;;;;;;;;;;;;;;;;;;;;;;;;;;;;;;;;;;;;;;;;;;;;;;;;;;;;;;;;;
"cw1963";"1963";;"Windows 7";"Rachel's Experiment (DP)";"1.0";"3";"1";"1";"3";"2";"1";"2015-02-24 16:15:18.924";"2015-02-24 16:33:17.451";"1";"4";"0";"709";"213";"module.DP_Block1.exec-3287.DP_block1";"1996";"2015-02-24 16:26:28.250";"FINISHED";"1";"LEFT";"success";"493";"2015-02-24 16:26:26.250";"500";"F7";"NF7";;;;;;;;;;;;;;;;;;;;;;;;;;;;;;;;;;;;;;;;;;;;;;;;;;;;;;;;;;;;;;;;;;;;;;;;;;;;;;;;;;;;;;;;;;;;;;;;;;;;;;
"cw1963";"1963";;"Windows 7";"Rachel's Experiment (DP)";"1.0";"3";"1";"1";"3";"2";"1";"2015-02-24 16:15:18.924";"2015-02-24 16:33:17.451";"1";"4";"0";"710";"214";"module.DP_Block1.exec-3287.DP_block1";"1991";"2015-02-24 16:26:31.810";"FINISHED";"1";"LEFT";"success";"512";"2015-02-24 16:26:29.810";"500";"F11";"NF11";;;;;;;;;;;;;;;;;;;;;;;;;;;;;;;;;;;;;;;;;;;;;;;;;;;;;;;;;;;;;;;;;;;;;;;;;;;;;;;;;;;;;;;;;;;;;;;;;;;;;;
"cw1963";"1963";;"Windows 7";"Rachel's Experiment (DP)";"1.0";"3";"1";"1";"3";"2";"1";"2015-02-24 16:15:18.924";"2015-02-24 16:33:17.451";"1";"4";"0";"711";"215";"module.DP_Block1.exec-3287.DP_block1";"1997";"2015-02-24 16:26:35.390";"FINISHED";"2";"RIGHT";"success";"475";"2015-02-24 16:26:33.390";"500";"NF10";"F10";;;;;;;;;;;;;;;;;;;;;;;;;;;;;;;;;;;;;;;;;;;;;;;;;;;;;;;;;;;;;;;;;;;;;;;;;;;;;;;;;;;;;;;;;;;;;;;;;;;;;;
"cw1963";"1963";;"Windows 7";"Rachel's Experiment (DP)";"1.0";"3";"1";"1";"3";"2";"1";"2015-02-24 16:15:18.924";"2015-02-24 16:33:17.451";"1";"4";"0";"712";"216";"module.DP_Block1.exec-3287.DP_block1";"1997";"2015-02-24 16:26:38.975";"FINISHED";"2";"RIGHT";"success";"502";"2015-02-24 16:26:36.970";"500";"F9";"NF9";;;;;;;;;;;;;;;;;;;;;;;;;;;;;;;;;;;;;;;;;;;;;;;;;;;;;;;;;;;;;;;;;;;;;;;;;;;;;;;;;;;;;;;;;;;;;;;;;;;;;;
"cw1963";"1963";;"Windows 7";"Rachel's Experiment (DP)";"1.0";"3";"1";"1";"3";"2";"1";"2015-02-24 16:15:18.924";"2015-02-24 16:33:17.451";"1";"4";"0";"713";"217";"module.DP_Block1.exec-3287.DP_block1";"1992";"2015-02-24 16:26:42.545";"FINISHED";"2";"RIGHT";"success";"471";"2015-02-24 16:26:40.545";"500";"F16";"NF16";;;;;;;;;;;;;;;;;;;;;;;;;;;;;;;;;;;;;;;;;;;;;;;;;;;;;;;;;;;;;;;;;;;;;;;;;;;;;;;;;;;;;;;;;;;;;;;;;;;;;;
"cw1963";"1963";;"Windows 7";"Rachel's Experiment (DP)";"1.0";"3";"1";"1";"3";"2";"1";"2015-02-24 16:15:18.924";"2015-02-24 16:33:17.451";"1";"4";"0";"714";"218";"module.DP_Block1.exec-3287.DP_block1";"1991";"2015-02-24 16:26:46.100";"FINISHED";"1";"LEFT";"success";"674";"2015-02-24 16:26:44.100";"500";"NF15";"F15";;;;;;;;;;;;;;;;;;;;;;;;;;;;;;;;;;;;;;;;;;;;;;;;;;;;;;;;;;;;;;;;;;;;;;;;;;;;;;;;;;;;;;;;;;;;;;;;;;;;;;
"cw1963";"1963";;"Windows 7";"Rachel's Experiment (DP)";"1.0";"3";"1";"1";"3";"2";"1";"2015-02-24 16:15:18.924";"2015-02-24 16:33:17.451";"1";"4";"0";"715";"219";"module.DP_Block1.exec-3287.DP_block1";"1993";"2015-02-24 16:26:49.652";"FINISHED";"1";"LEFT";"success";"653";"2015-02-24 16:26:47.650";"500";"NF0";"F0";;;;;;;;;;;;;;;;;;;;;;;;;;;;;;;;;;;;;;;;;;;;;;;;;;;;;;;;;;;;;;;;;;;;;;;;;;;;;;;;;;;;;;;;;;;;;;;;;;;;;;
"cw1963";"1963";;"Windows 7";"Rachel's Experiment (DP)";"1.0";"3";"1";"1";"3";"2";"1";"2015-02-24 16:15:18.924";"2015-02-24 16:33:17.451";"1";"4";"0";"716";"220";"module.DP_Block1.exec-3287.DP_block1";"1991";"2015-02-24 16:26:53.202";"FINISHED";"1";"LEFT";"success";"605";"2015-02-24 16:26:51.202";"500";"NF17";"F17";;;;;;;;;;;;;;;;;;;;;;;;;;;;;;;;;;;;;;;;;;;;;;;;;;;;;;;;;;;;;;;;;;;;;;;;;;;;;;;;;;;;;;;;;;;;;;;;;;;;;;
"cw1963";"1963";;"Windows 7";"Rachel's Experiment (DP)";"1.0";"3";"1";"1";"3";"2";"1";"2015-02-24 16:15:18.924";"2015-02-24 16:33:17.451";"1";"4";"0";"717";"221";"module.DP_Block1.exec-3287.DP_block1";"1998";"2015-02-24 16:26:56.774";"FINISHED";"1";"LEFT";"success";"559";"2015-02-24 16:26:54.772";"500";"F8";"NF8";;;;;;;;;;;;;;;;;;;;;;;;;;;;;;;;;;;;;;;;;;;;;;;;;;;;;;;;;;;;;;;;;;;;;;;;;;;;;;;;;;;;;;;;;;;;;;;;;;;;;;
"cw1963";"1963";;"Windows 7";"Rachel's Experiment (DP)";"1.0";"3";"1";"1";"3";"2";"1";"2015-02-24 16:15:18.924";"2015-02-24 16:33:17.451";"1";"4";"0";"718";"222";"module.DP_Block1.exec-3287.DP_block1";"1992";"2015-02-24 16:27:00.354";"FINISHED";"2";"RIGHT";"success";"494";"2015-02-24 16:26:58.354";"500";"F7";"NF7";;;;;;;;;;;;;;;;;;;;;;;;;;;;;;;;;;;;;;;;;;;;;;;;;;;;;;;;;;;;;;;;;;;;;;;;;;;;;;;;;;;;;;;;;;;;;;;;;;;;;;
"cw1963";"1963";;"Windows 7";"Rachel's Experiment (DP)";"1.0";"3";"1";"1";"3";"2";"1";"2015-02-24 16:15:18.924";"2015-02-24 16:33:17.451";"1";"4";"0";"719";"223";"module.DP_Block1.exec-3287.DP_block1";"1992";"2015-02-24 16:27:03.964";"FINISHED";"1";"LEFT";"success";"476";"2015-02-24 16:27:01.964";"500";"F14";"NF14";;;;;;;;;;;;;;;;;;;;;;;;;;;;;;;;;;;;;;;;;;;;;;;;;;;;;;;;;;;;;;;;;;;;;;;;;;;;;;;;;;;;;;;;;;;;;;;;;;;;;;
"cw1963";"1963";;"Windows 7";"Rachel's Experiment (DP)";"1.0";"3";"1";"1";"3";"2";"1";"2015-02-24 16:15:18.924";"2015-02-24 16:33:17.451";"1";"4";"0";"720";"224";"module.DP_Block1.exec-3287.DP_block1";"1996";"2015-02-24 16:27:07.528";"FINISHED";"1";"LEFT";"success";"459";"2015-02-24 16:27:05.524";"500";"F4";"NF4";;;;;;;;;;;;;;;;;;;;;;;;;;;;;;;;;;;;;;;;;;;;;;;;;;;;;;;;;;;;;;;;;;;;;;;;;;;;;;;;;;;;;;;;;;;;;;;;;;;;;;
