"user.name";"user.yearOfBirth";"user.sex";"user.osName";"module.name";"module.version";"module.online.subject.code";"module.online.study.id";"module.online.module.nr";"module.online.group.nr";"session.id";"session.index";"session.startTime";"session.endTime";"session.completed";"session.node-8277.DPorder";"session.node-9156.conditionType";"trial.id";"trial.index";"trial.name";"trial.DP_block1.durationTime";"trial.DP_block1.endTime";"trial.DP_block1.outcome";"trial.DP_block1.probeLoc";"trial.DP_block1.response";"trial.DP_block1.result";"trial.DP_block1.RT";"trial.DP_block1.startTime";"trial.DP_block1.stimDuration";"trial.DP_block1.wordLeft";"trial.DP_block1.wordRight";"trial.DP_practice.durationTime";"trial.DP_practice.endTime";"trial.DP_practice.outcome";"trial.DP_practice.probeLoc";"trial.DP_practice.response";"trial.DP_practice.result";"trial.DP_practice.RT";"trial.DP_practice.startTime";"trial.DP_practice.stimDuration";"trial.DP_practice.wordLeft";"trial.DP_practice.wordRight";"trial.GoNoGo1.durationTime";"trial.GoNoGo1.endTime";"trial.GoNoGo1.Error Type";"trial.GoNoGo1.icon";"trial.GoNoGo1.location";"trial.GoNoGo1.outcome";"trial.GoNoGo1.response";"trial.GoNoGo1.result";"trial.GoNoGo1.RT";"trial.GoNoGo1.signal";"trial.GoNoGo1.startTime";"trial.GoNoGo1.stimulus type";"trial.GoNoGo2.durationTime";"trial.GoNoGo2.endTime";"trial.GoNoGo2.Error Type";"trial.GoNoGo2.icon";"trial.GoNoGo2.location";"trial.GoNoGo2.outcome";"trial.GoNoGo2.response";"trial.GoNoGo2.result";"trial.GoNoGo2.RT";"trial.GoNoGo2.signal";"trial.GoNoGo2.startTime";"trial.GoNoGo2.stimulus type";"trial.GoNoGo3.durationTime";"trial.GoNoGo3.endTime";"trial.GoNoGo3.Error Type";"trial.GoNoGo3.icon";"trial.GoNoGo3.location";"trial.GoNoGo3.outcome";"trial.GoNoGo3.response";"trial.GoNoGo3.result";"trial.GoNoGo3.RT";"trial.GoNoGo3.signal";"trial.GoNoGo3.startTime";"trial.GoNoGo3.stimulus type";"trial.GoNoGo4.durationTime";"trial.GoNoGo4.endTime";"trial.GoNoGo4.Error Type";"trial.GoNoGo4.icon";"trial.GoNoGo4.location";"trial.GoNoGo4.outcome";"trial.GoNoGo4.response";"trial.GoNoGo4.result";"trial.GoNoGo4.RT";"trial.GoNoGo4.signal";"trial.GoNoGo4.startTime";"trial.GoNoGo4.stimulus type";"trial.GoNoGo_Practice.durationTime";"trial.GoNoGo_Practice.endTime";"trial.GoNoGo_Practice.icon";"trial.GoNoGo_Practice.location";"trial.GoNoGo_Practice.outcome";"trial.GoNoGo_Practice.response";"trial.GoNoGo_Practice.result";"trial.GoNoGo_Practice.RT";"trial.GoNoGo_Practice.signal";"trial.GoNoGo_Practice.startTime";"trial.GoNoGo_Practice.stimulus type";"trial.GoNoGo_Tutorial.durationTime";"trial.GoNoGo_Tutorial.endTime";"trial.GoNoGo_Tutorial.icon";"trial.GoNoGo_Tutorial.location";"trial.GoNoGo_Tutorial.outcome";"trial.GoNoGo_Tutorial.response";"trial.GoNoGo_Tutorial.result";"trial.GoNoGo_Tutorial.RT";"trial.GoNoGo_Tutorial.signal";"trial.GoNoGo_Tutorial.startTime"
"bbb";;;"Windows 7";"Rachel's Experiment (DP)";"1.0";"3";"1";"1";"3";"1";"1";"2015-02-23 15:44:04.281";"2015-02-23 16:12:01.690";"1";"2";"0";"1";"0";"module.GoNoGotutorial.exec-8520.GoNoGo_Tutorial";;;;;;;;;;;;;;;;;;;;;;;;;;;;;;;;;;;;;;;;;;;;;;;;;;;;;;;;;;;;;;;;;;;;;;;;;;;;;;;;;;"3994";"2015-02-23 16:01:43.430";"leftResponse";"0";"FINISHED";"NONE";"failure";"0";"0";"2015-02-23 16:01:39.420"
"bbb";;;"Windows 7";"Rachel's Experiment (DP)";"1.0";"3";"1";"1";"3";"1";"1";"2015-02-23 15:44:04.281";"2015-02-23 16:12:01.690";"1";"2";"0";"2";"1";"module.GoNoGotutorial.exec-8520.GoNoGo_Tutorial";;;;;;;;;;;;;;;;;;;;;;;;;;;;;;;;;;;;;;;;;;;;;;;;;;;;;;;;;;;;;;;;;;;;;;;;;;;;;;;;;;"4003";"2015-02-23 16:01:48.734";"rightResponse";"1";"FINISHED";"NONE";"failure";"0";"0";"2015-02-23 16:01:44.724"
"bbb";;;"Windows 7";"Rachel's Experiment (DP)";"1.0";"3";"1";"1";"3";"1";"1";"2015-02-23 15:44:04.281";"2015-02-23 16:12:01.690";"1";"2";"0";"3";"2";"module.GoNoGotutorial.exec-8520.GoNoGo_Tutorial";;;;;;;;;;;;;;;;;;;;;;;;;;;;;;;;;;;;;;;;;;;;;;;;;;;;;;;;;;;;;;;;;;;;;;;;;;;;;;;;;;"4003";"2015-02-23 16:01:54.038";"quickResponse";"0";"FINISHED";"NONE";"failure";"0";"0";"2015-02-23 16:01:50.028"
"bbb";;;"Windows 7";"Rachel's Experiment (DP)";"1.0";"3";"1";"1";"3";"1";"1";"2015-02-23 15:44:04.281";"2015-02-23 16:12:01.690";"1";"2";"0";"4";"3";"module.GoNoGopractice.exec-9016.GoNoGo_Practice";;;;;;;;;;;;;;;;;;;;;;;;;;;;;;;;;;;;;;;;;;;;;;;;;;;;;;;;;;;;;;;;;;;;;;;"1959";"2015-02-23 16:02:06.596";"18";"0";"FINISHED";"NONE";"failure";"0";"0";"2015-02-23 16:02:04.630";"3";;;;;;;;;;
"bbb";;;"Windows 7";"Rachel's Experiment (DP)";"1.0";"3";"1";"1";"3";"1";"1";"2015-02-23 15:44:04.281";"2015-02-23 16:12:01.690";"1";"2";"0";"5";"4";"module.GoNoGopractice.exec-9016.GoNoGo_Practice";;;;;;;;;;;;;;;;;;;;;;;;;;;;;;;;;;;;;;;;;;;;;;;;;;;;;;;;;;;;;;;;;;;;;;;"1959";"2015-02-23 16:02:09.840";"21";"1";"FINISHED";"NONE";"failure";"0";"0";"2015-02-23 16:02:07.875";"3";;;;;;;;;;
"bbb";;;"Windows 7";"Rachel's Experiment (DP)";"1.0";"3";"1";"1";"3";"1";"1";"2015-02-23 15:44:04.281";"2015-02-23 16:12:01.690";"1";"2";"0";"6";"5";"module.GoNoGopractice.exec-9016.GoNoGo_Practice";;;;;;;;;;;;;;;;;;;;;;;;;;;;;;;;;;;;;;;;;;;;;;;;;;;;;;;;;;;;;;;;;;;;;;;"1959";"2015-02-23 16:02:13.085";"14";"1";"FINISHED";"NONE";"failure";"0";"0";"2015-02-23 16:02:11.120";"2";;;;;;;;;;
"bbb";;;"Windows 7";"Rachel's Experiment (DP)";"1.0";"3";"1";"1";"3";"1";"1";"2015-02-23 15:44:04.281";"2015-02-23 16:12:01.690";"1";"2";"0";"7";"6";"module.GoNoGopractice.exec-9016.GoNoGo_Practice";;;;;;;;;;;;;;;;;;;;;;;;;;;;;;;;;;;;;;;;;;;;;;;;;;;;;;;;;;;;;;;;;;;;;;;"1959";"2015-02-23 16:02:16.330";"26";"0";"FINISHED";"NONE";"failure";"0";"0";"2015-02-23 16:02:14.364";"3";;;;;;;;;;
"bbb";;;"Windows 7";"Rachel's Experiment (DP)";"1.0";"3";"1";"1";"3";"1";"1";"2015-02-23 15:44:04.281";"2015-02-23 16:12:01.690";"1";"2";"0";"8";"7";"module.GoNoGopractice.exec-9016.GoNoGo_Practice";;;;;;;;;;;;;;;;;;;;;;;;;;;;;;;;;;;;;;;;;;;;;;;;;;;;;;;;;;;;;;;;;;;;;;;"1952";"2015-02-23 16:02:19.575";"2";"0";"FINISHED";"NONE";"failure";"0";"0";"2015-02-23 16:02:17.609";"1";;;;;;;;;;
"bbb";;;"Windows 7";"Rachel's Experiment (DP)";"1.0";"3";"1";"1";"3";"1";"1";"2015-02-23 15:44:04.281";"2015-02-23 16:12:01.690";"1";"2";"0";"9";"8";"module.GoNoGopractice.exec-9016.GoNoGo_Practice";;;;;;;;;;;;;;;;;;;;;;;;;;;;;;;;;;;;;;;;;;;;;;;;;;;;;;;;;;;;;;;;;;;;;;;"1959";"2015-02-23 16:02:22.820";"30";"0";"FINISHED";"NONE";"failure";"0";"0";"2015-02-23 16:02:20.854";"3";;;;;;;;;;
"bbb";;;"Windows 7";"Rachel's Experiment (DP)";"1.0";"3";"1";"1";"3";"1";"1";"2015-02-23 15:44:04.281";"2015-02-23 16:12:01.690";"1";"2";"0";"10";"9";"module.GoNoGopractice.exec-9016.GoNoGo_Practice";;;;;;;;;;;;;;;;;;;;;;;;;;;;;;;;;;;;;;;;;;;;;;;;;;;;;;;;;;;;;;;;;;;;;;;"1959";"2015-02-23 16:02:26.064";"6";"1";"FINISHED";"NONE";"failure";"0";"0";"2015-02-23 16:02:24.099";"1";;;;;;;;;;
"bbb";;;"Windows 7";"Rachel's Experiment (DP)";"1.0";"3";"1";"1";"3";"1";"1";"2015-02-23 15:44:04.281";"2015-02-23 16:12:01.690";"1";"2";"0";"11";"10";"module.GoNoGopractice.exec-9016.GoNoGo_Practice";;;;;;;;;;;;;;;;;;;;;;;;;;;;;;;;;;;;;;;;;;;;;;;;;;;;;;;;;;;;;;;;;;;;;;;"1960";"2015-02-23 16:02:29.309";"34";"0";"FINISHED";"NONE";"failure";"0";"0";"2015-02-23 16:02:27.344";"3";;;;;;;;;;
"bbb";;;"Windows 7";"Rachel's Experiment (DP)";"1.0";"3";"1";"1";"3";"1";"1";"2015-02-23 15:44:04.281";"2015-02-23 16:12:01.690";"1";"2";"0";"12";"11";"module.GoNoGopractice.exec-9016.GoNoGo_Practice";;;;;;;;;;;;;;;;;;;;;;;;;;;;;;;;;;;;;;;;;;;;;;;;;;;;;;;;;;;;;;;;;;;;;;;"1959";"2015-02-23 16:02:32.554";"23";"1";"FINISHED";"NONE";"failure";"0";"0";"2015-02-23 16:02:30.588";"3";;;;;;;;;;
"bbb";;;"Windows 7";"Rachel's Experiment (DP)";"1.0";"3";"1";"1";"3";"1";"1";"2015-02-23 15:44:04.281";"2015-02-23 16:12:01.690";"1";"2";"0";"13";"12";"module.GoNoGopractice.exec-9016.GoNoGo_Practice";;;;;;;;;;;;;;;;;;;;;;;;;;;;;;;;;;;;;;;;;;;;;;;;;;;;;;;;;;;;;;;;;;;;;;;"1958";"2015-02-23 16:02:35.799";"13";"0";"FINISHED";"NONE";"failure";"0";"0";"2015-02-23 16:02:33.833";"2";;;;;;;;;;
"bbb";;;"Windows 7";"Rachel's Experiment (DP)";"1.0";"3";"1";"1";"3";"1";"1";"2015-02-23 15:44:04.281";"2015-02-23 16:12:01.690";"1";"2";"0";"14";"13";"module.GoNoGopractice.exec-9016.GoNoGo_Practice";;;;;;;;;;;;;;;;;;;;;;;;;;;;;;;;;;;;;;;;;;;;;;;;;;;;;;;;;;;;;;;;;;;;;;;"1960";"2015-02-23 16:02:39.044";"3";"1";"FINISHED";"NONE";"failure";"0";"0";"2015-02-23 16:02:37.078";"1";;;;;;;;;;
"bbb";;;"Windows 7";"Rachel's Experiment (DP)";"1.0";"3";"1";"1";"3";"1";"1";"2015-02-23 15:44:04.281";"2015-02-23 16:12:01.690";"1";"2";"0";"15";"14";"module.GoNoGopractice.exec-9016.GoNoGo_Practice";;;;;;;;;;;;;;;;;;;;;;;;;;;;;;;;;;;;;;;;;;;;;;;;;;;;;;;;;;;;;;;;;;;;;;;"1959";"2015-02-23 16:02:42.288";"27";"1";"FINISHED";"RIGHT";"success";"563";"0";"2015-02-23 16:02:40.323";"3";;;;;;;;;;
"bbb";;;"Windows 7";"Rachel's Experiment (DP)";"1.0";"3";"1";"1";"3";"1";"1";"2015-02-23 15:44:04.281";"2015-02-23 16:12:01.690";"1";"2";"0";"16";"15";"module.training_block1.exec-7095.GoNoGo1";;;;;;;;;;;;;;;;;;;;;;;"1256";"2015-02-23 16:03:15.485";"NST_correctLoc";"16";"1";"FINISHED";"RIGHT";"success";"853";"0";"2015-02-23 16:03:14.222";"2";;;;;;;;;;;;;;;;;;;;;;;;;;;;;;;;;;;;;;;;;;;;;;;;;;;;;;;;;
"bbb";;;"Windows 7";"Rachel's Experiment (DP)";"1.0";"3";"1";"1";"3";"1";"1";"2015-02-23 15:44:04.281";"2015-02-23 16:12:01.690";"1";"2";"0";"17";"16";"module.training_block1.exec-7095.GoNoGo1";;;;;;;;;;;;;;;;;;;;;;;"1258";"2015-02-23 16:03:18.028";"NST_correctLoc";"19";"1";"FINISHED";"RIGHT";"success";"521";"0";"2015-02-23 16:03:16.764";"3";;;;;;;;;;;;;;;;;;;;;;;;;;;;;;;;;;;;;;;;;;;;;;;;;;;;;;;;;
"bbb";;;"Windows 7";"Rachel's Experiment (DP)";"1.0";"3";"1";"1";"3";"1";"1";"2015-02-23 15:44:04.281";"2015-02-23 16:12:01.690";"1";"2";"0";"18";"17";"module.training_block1.exec-7095.GoNoGo1";;;;;;;;;;;;;;;;;;;;;;;"1261";"2015-02-23 16:03:20.571";"NST_correctLoc";"27";"1";"FINISHED";"RIGHT";"success";"414";"0";"2015-02-23 16:03:19.307";"3";;;;;;;;;;;;;;;;;;;;;;;;;;;;;;;;;;;;;;;;;;;;;;;;;;;;;;;;;
"bbb";;;"Windows 7";"Rachel's Experiment (DP)";"1.0";"3";"1";"1";"3";"1";"1";"2015-02-23 15:44:04.281";"2015-02-23 16:12:01.690";"1";"2";"0";"19";"18";"module.training_block1.exec-7095.GoNoGo1";;;;;;;;;;;;;;;;;;;;;;;"1257";"2015-02-23 16:03:23.114";"NST_correctLoc";"0";"0";"FINISHED";"LEFT";"success";"411";"0";"2015-02-23 16:03:21.850";"1";;;;;;;;;;;;;;;;;;;;;;;;;;;;;;;;;;;;;;;;;;;;;;;;;;;;;;;;;
"bbb";;;"Windows 7";"Rachel's Experiment (DP)";"1.0";"3";"1";"1";"3";"1";"1";"2015-02-23 15:44:04.281";"2015-02-23 16:12:01.690";"1";"2";"0";"20";"19";"module.training_block1.exec-7095.GoNoGo1";;;;;;;;;;;;;;;;;;;;;;;"1257";"2015-02-23 16:03:25.657";"NST_correctLoc";"17";"1";"FINISHED";"RIGHT";"success";"340";"0";"2015-02-23 16:03:24.393";"2";;;;;;;;;;;;;;;;;;;;;;;;;;;;;;;;;;;;;;;;;;;;;;;;;;;;;;;;;
"bbb";;;"Windows 7";"Rachel's Experiment (DP)";"1.0";"3";"1";"1";"3";"1";"1";"2015-02-23 15:44:04.281";"2015-02-23 16:12:01.690";"1";"2";"0";"21";"20";"module.training_block1.exec-7095.GoNoGo1";;;;;;;;;;;;;;;;;;;;;;;"1257";"2015-02-23 16:03:28.199";"NST_correctLoc";"10";"1";"FINISHED";"RIGHT";"success";"421";"0";"2015-02-23 16:03:26.936";"2";;;;;;;;;;;;;;;;;;;;;;;;;;;;;;;;;;;;;;;;;;;;;;;;;;;;;;;;;
"bbb";;;"Windows 7";"Rachel's Experiment (DP)";"1.0";"3";"1";"1";"3";"1";"1";"2015-02-23 15:44:04.281";"2015-02-23 16:12:01.690";"1";"2";"0";"22";"21";"module.training_block1.exec-7095.GoNoGo1";;;;;;;;;;;;;;;;;;;;;;;"1258";"2015-02-23 16:03:30.851";"NST_correctLoc";"28";"1";"FINISHED";"RIGHT";"success";"378";"0";"2015-02-23 16:03:29.588";"3";;;;;;;;;;;;;;;;;;;;;;;;;;;;;;;;;;;;;;;;;;;;;;;;;;;;;;;;;
"bbb";;;"Windows 7";"Rachel's Experiment (DP)";"1.0";"3";"1";"1";"3";"1";"1";"2015-02-23 15:44:04.281";"2015-02-23 16:12:01.690";"1";"2";"0";"23";"22";"module.training_block1.exec-7095.GoNoGo1";;;;;;;;;;;;;;;;;;;;;;;"1257";"2015-02-23 16:03:33.394";"NST_correctLoc";"15";"1";"FINISHED";"RIGHT";"success";"346";"0";"2015-02-23 16:03:32.131";"2";;;;;;;;;;;;;;;;;;;;;;;;;;;;;;;;;;;;;;;;;;;;;;;;;;;;;;;;;
"bbb";;;"Windows 7";"Rachel's Experiment (DP)";"1.0";"3";"1";"1";"3";"1";"1";"2015-02-23 15:44:04.281";"2015-02-23 16:12:01.690";"1";"2";"0";"24";"23";"module.training_block1.exec-7095.GoNoGo1";;;;;;;;;;;;;;;;;;;;;;;"1258";"2015-02-23 16:03:35.937";"NST_correctLoc";"25";"0";"FINISHED";"LEFT";"success";"412";"0";"2015-02-23 16:03:34.673";"3";;;;;;;;;;;;;;;;;;;;;;;;;;;;;;;;;;;;;;;;;;;;;;;;;;;;;;;;;
"bbb";;;"Windows 7";"Rachel's Experiment (DP)";"1.0";"3";"1";"1";"3";"1";"1";"2015-02-23 15:44:04.281";"2015-02-23 16:12:01.690";"1";"2";"0";"25";"24";"module.training_block1.exec-7095.GoNoGo1";;;;;;;;;;;;;;;;;;;;;;;"1258";"2015-02-23 16:03:38.480";"NST_correctLoc";"24";"1";"FINISHED";"RIGHT";"success";"333";"0";"2015-02-23 16:03:37.216";"3";;;;;;;;;;;;;;;;;;;;;;;;;;;;;;;;;;;;;;;;;;;;;;;;;;;;;;;;;
"bbb";;;"Windows 7";"Rachel's Experiment (DP)";"1.0";"3";"1";"1";"3";"1";"1";"2015-02-23 15:44:04.281";"2015-02-23 16:12:01.690";"1";"2";"0";"26";"25";"module.training_block1.exec-7095.GoNoGo1";;;;;;;;;;;;;;;;;;;;;;;"1258";"2015-02-23 16:03:41.023";"NST_miss";"5";"1";"FINISHED";"NONE";"failure";"0";"0";"2015-02-23 16:03:39.759";"1";;;;;;;;;;;;;;;;;;;;;;;;;;;;;;;;;;;;;;;;;;;;;;;;;;;;;;;;;
"bbb";;;"Windows 7";"Rachel's Experiment (DP)";"1.0";"3";"1";"1";"3";"1";"1";"2015-02-23 15:44:04.281";"2015-02-23 16:12:01.690";"1";"2";"0";"27";"26";"module.training_block1.exec-7095.GoNoGo1";;;;;;;;;;;;;;;;;;;;;;;"1258";"2015-02-23 16:03:43.565";"NST_miss";"18";"1";"FINISHED";"NONE";"failure";"0";"0";"2015-02-23 16:03:42.302";"3";;;;;;;;;;;;;;;;;;;;;;;;;;;;;;;;;;;;;;;;;;;;;;;;;;;;;;;;;
"bbb";;;"Windows 7";"Rachel's Experiment (DP)";"1.0";"3";"1";"1";"3";"1";"1";"2015-02-23 15:44:04.281";"2015-02-23 16:12:01.690";"1";"2";"0";"28";"27";"module.training_block1.exec-7095.GoNoGo1";;;;;;;;;;;;;;;;;;;;;;;"1257";"2015-02-23 16:03:46.108";"NST_miss";"20";"1";"FINISHED";"NONE";"failure";"0";"0";"2015-02-23 16:03:44.845";"3";;;;;;;;;;;;;;;;;;;;;;;;;;;;;;;;;;;;;;;;;;;;;;;;;;;;;;;;;
"bbb";;;"Windows 7";"Rachel's Experiment (DP)";"1.0";"3";"1";"1";"3";"1";"1";"2015-02-23 15:44:04.281";"2015-02-23 16:12:01.690";"1";"2";"0";"29";"28";"module.training_block1.exec-7095.GoNoGo1";;;;;;;;;;;;;;;;;;;;;;;"1257";"2015-02-23 16:03:48.651";"NST_miss";"26";"1";"FINISHED";"NONE";"failure";"0";"0";"2015-02-23 16:03:47.387";"3";;;;;;;;;;;;;;;;;;;;;;;;;;;;;;;;;;;;;;;;;;;;;;;;;;;;;;;;;
"bbb";;;"Windows 7";"Rachel's Experiment (DP)";"1.0";"3";"1";"1";"3";"1";"1";"2015-02-23 15:44:04.281";"2015-02-23 16:12:01.690";"1";"2";"0";"30";"29";"module.training_block1.exec-7095.GoNoGo1";;;;;;;;;;;;;;;;;;;;;;;"1257";"2015-02-23 16:03:51.194";"NST_miss";"21";"1";"FINISHED";"NONE";"failure";"0";"0";"2015-02-23 16:03:49.930";"3";;;;;;;;;;;;;;;;;;;;;;;;;;;;;;;;;;;;;;;;;;;;;;;;;;;;;;;;;
"bbb";;;"Windows 7";"Rachel's Experiment (DP)";"1.0";"3";"1";"1";"3";"1";"1";"2015-02-23 15:44:04.281";"2015-02-23 16:12:01.690";"1";"2";"0";"31";"30";"module.training_block1.exec-7095.GoNoGo1";;;;;;;;;;;;;;;;;;;;;;;"1257";"2015-02-23 16:03:53.737";"NST_miss";"7";"0";"FINISHED";"NONE";"failure";"0";"0";"2015-02-23 16:03:52.473";"1";;;;;;;;;;;;;;;;;;;;;;;;;;;;;;;;;;;;;;;;;;;;;;;;;;;;;;;;;
"bbb";;;"Windows 7";"Rachel's Experiment (DP)";"1.0";"3";"1";"1";"3";"1";"1";"2015-02-23 15:44:04.281";"2015-02-23 16:12:01.690";"1";"2";"0";"32";"31";"module.training_block1.exec-7095.GoNoGo1";;;;;;;;;;;;;;;;;;;;;;;"1258";"2015-02-23 16:03:56.279";"NST_miss";"1";"1";"FINISHED";"NONE";"failure";"0";"0";"2015-02-23 16:03:55.016";"1";;;;;;;;;;;;;;;;;;;;;;;;;;;;;;;;;;;;;;;;;;;;;;;;;;;;;;;;;
"bbb";;;"Windows 7";"Rachel's Experiment (DP)";"1.0";"3";"1";"1";"3";"1";"1";"2015-02-23 15:44:04.281";"2015-02-23 16:12:01.690";"1";"2";"0";"33";"32";"module.training_block1.exec-7095.GoNoGo1";;;;;;;;;;;;;;;;;;;;;;;"1257";"2015-02-23 16:03:58.822";"NST_miss";"14";"0";"FINISHED";"NONE";"failure";"0";"0";"2015-02-23 16:03:57.559";"2";;;;;;;;;;;;;;;;;;;;;;;;;;;;;;;;;;;;;;;;;;;;;;;;;;;;;;;;;
"bbb";;;"Windows 7";"Rachel's Experiment (DP)";"1.0";"3";"1";"1";"3";"1";"1";"2015-02-23 15:44:04.281";"2015-02-23 16:12:01.690";"1";"2";"0";"34";"33";"module.training_block1.exec-7095.GoNoGo1";;;;;;;;;;;;;;;;;;;;;;;"1257";"2015-02-23 16:04:01.365";"NST_miss";"8";"1";"FINISHED";"NONE";"failure";"0";"0";"2015-02-23 16:04:00.101";"1";;;;;;;;;;;;;;;;;;;;;;;;;;;;;;;;;;;;;;;;;;;;;;;;;;;;;;;;;
"bbb";;;"Windows 7";"Rachel's Experiment (DP)";"1.0";"3";"1";"1";"3";"1";"1";"2015-02-23 15:44:04.281";"2015-02-23 16:12:01.690";"1";"2";"0";"35";"34";"module.training_block1.exec-7095.GoNoGo1";;;;;;;;;;;;;;;;;;;;;;;"1258";"2015-02-23 16:04:03.908";"NST_miss";"30";"1";"FINISHED";"NONE";"failure";"0";"0";"2015-02-23 16:04:02.644";"3";;;;;;;;;;;;;;;;;;;;;;;;;;;;;;;;;;;;;;;;;;;;;;;;;;;;;;;;;
"bbb";;;"Windows 7";"Rachel's Experiment (DP)";"1.0";"3";"1";"1";"3";"1";"1";"2015-02-23 15:44:04.281";"2015-02-23 16:12:01.690";"1";"2";"0";"36";"35";"module.training_block1.exec-7095.GoNoGo1";;;;;;;;;;;;;;;;;;;;;;;"1258";"2015-02-23 16:04:06.451";"NST_miss";"29";"1";"FINISHED";"NONE";"failure";"0";"0";"2015-02-23 16:04:05.187";"3";;;;;;;;;;;;;;;;;;;;;;;;;;;;;;;;;;;;;;;;;;;;;;;;;;;;;;;;;
"bbb";;;"Windows 7";"Rachel's Experiment (DP)";"1.0";"3";"1";"1";"3";"1";"1";"2015-02-23 15:44:04.281";"2015-02-23 16:12:01.690";"1";"2";"0";"37";"36";"module.training_block1.exec-7095.GoNoGo1";;;;;;;;;;;;;;;;;;;;;;;"1257";"2015-02-23 16:04:08.993";"NST_miss";"4";"0";"FINISHED";"NONE";"failure";"0";"0";"2015-02-23 16:04:07.730";"1";;;;;;;;;;;;;;;;;;;;;;;;;;;;;;;;;;;;;;;;;;;;;;;;;;;;;;;;;
"bbb";;;"Windows 7";"Rachel's Experiment (DP)";"1.0";"3";"1";"1";"3";"1";"1";"2015-02-23 15:44:04.281";"2015-02-23 16:12:01.690";"1";"2";"0";"38";"37";"module.training_block1.exec-7095.GoNoGo1";;;;;;;;;;;;;;;;;;;;;;;"1258";"2015-02-23 16:04:11.536";"NST_miss";"33";"0";"FINISHED";"NONE";"failure";"0";"0";"2015-02-23 16:04:10.273";"3";;;;;;;;;;;;;;;;;;;;;;;;;;;;;;;;;;;;;;;;;;;;;;;;;;;;;;;;;
"bbb";;;"Windows 7";"Rachel's Experiment (DP)";"1.0";"3";"1";"1";"3";"1";"1";"2015-02-23 15:44:04.281";"2015-02-23 16:12:01.690";"1";"2";"0";"39";"38";"module.training_block1.exec-7095.GoNoGo1";;;;;;;;;;;;;;;;;;;;;;;"1258";"2015-02-23 16:04:14.079";"NST_miss";"35";"0";"FINISHED";"NONE";"failure";"0";"0";"2015-02-23 16:04:12.815";"3";;;;;;;;;;;;;;;;;;;;;;;;;;;;;;;;;;;;;;;;;;;;;;;;;;;;;;;;;
"bbb";;;"Windows 7";"Rachel's Experiment (DP)";"1.0";"3";"1";"1";"3";"1";"1";"2015-02-23 15:44:04.281";"2015-02-23 16:12:01.690";"1";"2";"0";"40";"39";"module.training_block1.exec-7095.GoNoGo1";;;;;;;;;;;;;;;;;;;;;;;"1251";"2015-02-23 16:04:16.622";"NST_miss";"31";"1";"FINISHED";"NONE";"failure";"0";"0";"2015-02-23 16:04:15.358";"3";;;;;;;;;;;;;;;;;;;;;;;;;;;;;;;;;;;;;;;;;;;;;;;;;;;;;;;;;
"bbb";;;"Windows 7";"Rachel's Experiment (DP)";"1.0";"3";"1";"1";"3";"1";"1";"2015-02-23 15:44:04.281";"2015-02-23 16:12:01.690";"1";"2";"0";"41";"40";"module.training_block1.exec-7095.GoNoGo1";;;;;;;;;;;;;;;;;;;;;;;"1257";"2015-02-23 16:04:19.165";"NST_miss";"23";"1";"FINISHED";"NONE";"failure";"0";"0";"2015-02-23 16:04:17.901";"3";;;;;;;;;;;;;;;;;;;;;;;;;;;;;;;;;;;;;;;;;;;;;;;;;;;;;;;;;
"bbb";;;"Windows 7";"Rachel's Experiment (DP)";"1.0";"3";"1";"1";"3";"1";"1";"2015-02-23 15:44:04.281";"2015-02-23 16:12:01.690";"1";"2";"0";"42";"41";"module.training_block1.exec-7095.GoNoGo1";;;;;;;;;;;;;;;;;;;;;;;"1257";"2015-02-23 16:04:21.707";"NST_miss";"9";"1";"FINISHED";"NONE";"failure";"0";"0";"2015-02-23 16:04:20.444";"2";;;;;;;;;;;;;;;;;;;;;;;;;;;;;;;;;;;;;;;;;;;;;;;;;;;;;;;;;
"bbb";;;"Windows 7";"Rachel's Experiment (DP)";"1.0";"3";"1";"1";"3";"1";"1";"2015-02-23 15:44:04.281";"2015-02-23 16:12:01.690";"1";"2";"0";"43";"42";"module.training_block1.exec-7095.GoNoGo1";;;;;;;;;;;;;;;;;;;;;;;"1257";"2015-02-23 16:04:24.250";"NST_miss";"11";"0";"FINISHED";"NONE";"failure";"0";"0";"2015-02-23 16:04:22.987";"2";;;;;;;;;;;;;;;;;;;;;;;;;;;;;;;;;;;;;;;;;;;;;;;;;;;;;;;;;
"bbb";;;"Windows 7";"Rachel's Experiment (DP)";"1.0";"3";"1";"1";"3";"1";"1";"2015-02-23 15:44:04.281";"2015-02-23 16:12:01.690";"1";"2";"0";"44";"43";"module.training_block1.exec-7095.GoNoGo1";;;;;;;;;;;;;;;;;;;;;;;"1258";"2015-02-23 16:04:26.793";"NST_miss";"3";"1";"FINISHED";"NONE";"failure";"0";"0";"2015-02-23 16:04:25.529";"1";;;;;;;;;;;;;;;;;;;;;;;;;;;;;;;;;;;;;;;;;;;;;;;;;;;;;;;;;
"bbb";;;"Windows 7";"Rachel's Experiment (DP)";"1.0";"3";"1";"1";"3";"1";"1";"2015-02-23 15:44:04.281";"2015-02-23 16:12:01.690";"1";"2";"0";"45";"44";"module.training_block1.exec-7095.GoNoGo1";;;;;;;;;;;;;;;;;;;;;;;"1257";"2015-02-23 16:04:29.336";"NST_miss";"6";"1";"FINISHED";"NONE";"failure";"0";"0";"2015-02-23 16:04:28.072";"1";;;;;;;;;;;;;;;;;;;;;;;;;;;;;;;;;;;;;;;;;;;;;;;;;;;;;;;;;
"bbb";;;"Windows 7";"Rachel's Experiment (DP)";"1.0";"3";"1";"1";"3";"1";"1";"2015-02-23 15:44:04.281";"2015-02-23 16:12:01.690";"1";"2";"0";"46";"45";"module.training_block1.exec-7095.GoNoGo1";;;;;;;;;;;;;;;;;;;;;;;"1257";"2015-02-23 16:04:31.879";"NST_miss";"22";"0";"FINISHED";"NONE";"failure";"0";"0";"2015-02-23 16:04:30.615";"3";;;;;;;;;;;;;;;;;;;;;;;;;;;;;;;;;;;;;;;;;;;;;;;;;;;;;;;;;
"bbb";;;"Windows 7";"Rachel's Experiment (DP)";"1.0";"3";"1";"1";"3";"1";"1";"2015-02-23 15:44:04.281";"2015-02-23 16:12:01.690";"1";"2";"0";"47";"46";"module.training_block1.exec-7095.GoNoGo1";;;;;;;;;;;;;;;;;;;;;;;"1258";"2015-02-23 16:04:34.421";"NST_miss";"34";"1";"FINISHED";"NONE";"failure";"0";"0";"2015-02-23 16:04:33.158";"3";;;;;;;;;;;;;;;;;;;;;;;;;;;;;;;;;;;;;;;;;;;;;;;;;;;;;;;;;
"bbb";;;"Windows 7";"Rachel's Experiment (DP)";"1.0";"3";"1";"1";"3";"1";"1";"2015-02-23 15:44:04.281";"2015-02-23 16:12:01.690";"1";"2";"0";"48";"47";"module.training_block1.exec-7095.GoNoGo1";;;;;;;;;;;;;;;;;;;;;;;"1257";"2015-02-23 16:04:36.964";"NST_miss";"13";"1";"FINISHED";"NONE";"failure";"0";"0";"2015-02-23 16:04:35.701";"2";;;;;;;;;;;;;;;;;;;;;;;;;;;;;;;;;;;;;;;;;;;;;;;;;;;;;;;;;
"bbb";;;"Windows 7";"Rachel's Experiment (DP)";"1.0";"3";"1";"1";"3";"1";"1";"2015-02-23 15:44:04.281";"2015-02-23 16:12:01.690";"1";"2";"0";"49";"48";"module.training_block1.exec-7095.GoNoGo1";;;;;;;;;;;;;;;;;;;;;;;"1257";"2015-02-23 16:04:39.507";"NST_miss";"2";"1";"FINISHED";"NONE";"failure";"0";"0";"2015-02-23 16:04:38.243";"1";;;;;;;;;;;;;;;;;;;;;;;;;;;;;;;;;;;;;;;;;;;;;;;;;;;;;;;;;
"bbb";;;"Windows 7";"Rachel's Experiment (DP)";"1.0";"3";"1";"1";"3";"1";"1";"2015-02-23 15:44:04.281";"2015-02-23 16:12:01.690";"1";"2";"0";"50";"49";"module.training_block1.exec-7095.GoNoGo1";;;;;;;;;;;;;;;;;;;;;;;"1257";"2015-02-23 16:04:42.050";"NST_miss";"32";"1";"FINISHED";"NONE";"failure";"0";"0";"2015-02-23 16:04:40.786";"3";;;;;;;;;;;;;;;;;;;;;;;;;;;;;;;;;;;;;;;;;;;;;;;;;;;;;;;;;
"bbb";;;"Windows 7";"Rachel's Experiment (DP)";"1.0";"3";"1";"1";"3";"1";"1";"2015-02-23 15:44:04.281";"2015-02-23 16:12:01.690";"1";"2";"0";"51";"50";"module.training_block1.exec-7095.GoNoGo1";;;;;;;;;;;;;;;;;;;;;;;"1258";"2015-02-23 16:04:44.593";"NST_miss";"12";"1";"FINISHED";"NONE";"failure";"0";"0";"2015-02-23 16:04:43.329";"2";;;;;;;;;;;;;;;;;;;;;;;;;;;;;;;;;;;;;;;;;;;;;;;;;;;;;;;;;
"bbb";;;"Windows 7";"Rachel's Experiment (DP)";"1.0";"3";"1";"1";"3";"1";"1";"2015-02-23 15:44:04.281";"2015-02-23 16:12:01.690";"1";"2";"0";"52";"51";"module.training_block2.exec-5136.GoNoGo2";;;;;;;;;;;;;;;;;;;;;;;;;;;;;;;;;;;"1261";"2015-02-23 16:04:56.667";"NST_miss";"34";"0";"FINISHED";"NONE";"failure";"0";"0";"2015-02-23 16:04:55.403";"3";;;;;;;;;;;;;;;;;;;;;;;;;;;;;;;;;;;;;;;;;;;;;
"bbb";;;"Windows 7";"Rachel's Experiment (DP)";"1.0";"3";"1";"1";"3";"1";"1";"2015-02-23 15:44:04.281";"2015-02-23 16:12:01.690";"1";"2";"0";"53";"52";"module.training_block2.exec-5136.GoNoGo2";;;;;;;;;;;;;;;;;;;;;;;;;;;;;;;;;;;"1261";"2015-02-23 16:04:59.210";"NST_miss";"29";"0";"FINISHED";"NONE";"failure";"0";"0";"2015-02-23 16:04:57.946";"3";;;;;;;;;;;;;;;;;;;;;;;;;;;;;;;;;;;;;;;;;;;;;
"bbb";;;"Windows 7";"Rachel's Experiment (DP)";"1.0";"3";"1";"1";"3";"1";"1";"2015-02-23 15:44:04.281";"2015-02-23 16:12:01.690";"1";"2";"0";"54";"53";"module.training_block2.exec-5136.GoNoGo2";;;;;;;;;;;;;;;;;;;;;;;;;;;;;;;;;;;"1261";"2015-02-23 16:05:01.753";"NST_miss";"20";"1";"FINISHED";"NONE";"failure";"0";"0";"2015-02-23 16:05:00.489";"3";;;;;;;;;;;;;;;;;;;;;;;;;;;;;;;;;;;;;;;;;;;;;
"bbb";;;"Windows 7";"Rachel's Experiment (DP)";"1.0";"3";"1";"1";"3";"1";"1";"2015-02-23 15:44:04.281";"2015-02-23 16:12:01.690";"1";"2";"0";"55";"54";"module.training_block2.exec-5136.GoNoGo2";;;;;;;;;;;;;;;;;;;;;;;;;;;;;;;;;;;"1261";"2015-02-23 16:05:04.295";"NST_miss";"18";"0";"FINISHED";"NONE";"failure";"0";"0";"2015-02-23 16:05:03.032";"3";;;;;;;;;;;;;;;;;;;;;;;;;;;;;;;;;;;;;;;;;;;;;
"bbb";;;"Windows 7";"Rachel's Experiment (DP)";"1.0";"3";"1";"1";"3";"1";"1";"2015-02-23 15:44:04.281";"2015-02-23 16:12:01.690";"1";"2";"0";"56";"55";"module.training_block2.exec-5136.GoNoGo2";;;;;;;;;;;;;;;;;;;;;;;;;;;;;;;;;;;"1261";"2015-02-23 16:05:06.838";"NST_miss";"1";"0";"FINISHED";"NONE";"failure";"0";"0";"2015-02-23 16:05:05.575";"1";;;;;;;;;;;;;;;;;;;;;;;;;;;;;;;;;;;;;;;;;;;;;
"bbb";;;"Windows 7";"Rachel's Experiment (DP)";"1.0";"3";"1";"1";"3";"1";"1";"2015-02-23 15:44:04.281";"2015-02-23 16:12:01.690";"1";"2";"0";"57";"56";"module.training_block2.exec-5136.GoNoGo2";;;;;;;;;;;;;;;;;;;;;;;;;;;;;;;;;;;"1261";"2015-02-23 16:05:09.381";"NST_miss";"30";"1";"FINISHED";"NONE";"failure";"0";"0";"2015-02-23 16:05:08.117";"3";;;;;;;;;;;;;;;;;;;;;;;;;;;;;;;;;;;;;;;;;;;;;
"bbb";;;"Windows 7";"Rachel's Experiment (DP)";"1.0";"3";"1";"1";"3";"1";"1";"2015-02-23 15:44:04.281";"2015-02-23 16:12:01.690";"1";"2";"0";"58";"57";"module.training_block2.exec-5136.GoNoGo2";;;;;;;;;;;;;;;;;;;;;;;;;;;;;;;;;;;"1261";"2015-02-23 16:05:11.924";"NST_miss";"9";"0";"FINISHED";"NONE";"failure";"0";"0";"2015-02-23 16:05:10.660";"2";;;;;;;;;;;;;;;;;;;;;;;;;;;;;;;;;;;;;;;;;;;;;
"bbb";;;"Windows 7";"Rachel's Experiment (DP)";"1.0";"3";"1";"1";"3";"1";"1";"2015-02-23 15:44:04.281";"2015-02-23 16:12:01.690";"1";"2";"0";"59";"58";"module.training_block2.exec-5136.GoNoGo2";;;;;;;;;;;;;;;;;;;;;;;;;;;;;;;;;;;"1261";"2015-02-23 16:05:14.467";"NST_miss";"12";"1";"FINISHED";"NONE";"failure";"0";"0";"2015-02-23 16:05:13.203";"2";;;;;;;;;;;;;;;;;;;;;;;;;;;;;;;;;;;;;;;;;;;;;
"bbb";;;"Windows 7";"Rachel's Experiment (DP)";"1.0";"3";"1";"1";"3";"1";"1";"2015-02-23 15:44:04.281";"2015-02-23 16:12:01.690";"1";"2";"0";"60";"59";"module.training_block2.exec-5136.GoNoGo2";;;;;;;;;;;;;;;;;;;;;;;;;;;;;;;;;;;"1261";"2015-02-23 16:05:17.010";"NST_miss";"28";"0";"FINISHED";"NONE";"failure";"0";"0";"2015-02-23 16:05:15.746";"3";;;;;;;;;;;;;;;;;;;;;;;;;;;;;;;;;;;;;;;;;;;;;
"bbb";;;"Windows 7";"Rachel's Experiment (DP)";"1.0";"3";"1";"1";"3";"1";"1";"2015-02-23 15:44:04.281";"2015-02-23 16:12:01.690";"1";"2";"0";"61";"60";"module.training_block2.exec-5136.GoNoGo2";;;;;;;;;;;;;;;;;;;;;;;;;;;;;;;;;;;"1261";"2015-02-23 16:05:19.552";"NST_miss";"10";"0";"FINISHED";"NONE";"failure";"0";"0";"2015-02-23 16:05:18.289";"2";;;;;;;;;;;;;;;;;;;;;;;;;;;;;;;;;;;;;;;;;;;;;
"bbb";;;"Windows 7";"Rachel's Experiment (DP)";"1.0";"3";"1";"1";"3";"1";"1";"2015-02-23 15:44:04.281";"2015-02-23 16:12:01.690";"1";"2";"0";"62";"61";"module.training_block2.exec-5136.GoNoGo2";;;;;;;;;;;;;;;;;;;;;;;;;;;;;;;;;;;"1255";"2015-02-23 16:05:22.204";"NST_miss";"15";"0";"FINISHED";"NONE";"failure";"0";"0";"2015-02-23 16:05:20.941";"2";;;;;;;;;;;;;;;;;;;;;;;;;;;;;;;;;;;;;;;;;;;;;
"bbb";;;"Windows 7";"Rachel's Experiment (DP)";"1.0";"3";"1";"1";"3";"1";"1";"2015-02-23 15:44:04.281";"2015-02-23 16:12:01.690";"1";"2";"0";"63";"62";"module.training_block2.exec-5136.GoNoGo2";;;;;;;;;;;;;;;;;;;;;;;;;;;;;;;;;;;"1256";"2015-02-23 16:05:24.747";"NST_miss";"27";"0";"FINISHED";"NONE";"failure";"0";"0";"2015-02-23 16:05:23.484";"3";;;;;;;;;;;;;;;;;;;;;;;;;;;;;;;;;;;;;;;;;;;;;
"bbb";;;"Windows 7";"Rachel's Experiment (DP)";"1.0";"3";"1";"1";"3";"1";"1";"2015-02-23 15:44:04.281";"2015-02-23 16:12:01.690";"1";"2";"0";"64";"63";"module.training_block2.exec-5136.GoNoGo2";;;;;;;;;;;;;;;;;;;;;;;;;;;;;;;;;;;"1261";"2015-02-23 16:05:27.290";"NST_miss";"23";"1";"FINISHED";"NONE";"failure";"0";"0";"2015-02-23 16:05:26.026";"3";;;;;;;;;;;;;;;;;;;;;;;;;;;;;;;;;;;;;;;;;;;;;
"bbb";;;"Windows 7";"Rachel's Experiment (DP)";"1.0";"3";"1";"1";"3";"1";"1";"2015-02-23 15:44:04.281";"2015-02-23 16:12:01.690";"1";"2";"0";"65";"64";"module.training_block2.exec-5136.GoNoGo2";;;;;;;;;;;;;;;;;;;;;;;;;;;;;;;;;;;"1261";"2015-02-23 16:05:29.833";"NST_miss";"11";"1";"FINISHED";"NONE";"failure";"0";"0";"2015-02-23 16:05:28.569";"2";;;;;;;;;;;;;;;;;;;;;;;;;;;;;;;;;;;;;;;;;;;;;
"bbb";;;"Windows 7";"Rachel's Experiment (DP)";"1.0";"3";"1";"1";"3";"1";"1";"2015-02-23 15:44:04.281";"2015-02-23 16:12:01.690";"1";"2";"0";"66";"65";"module.training_block2.exec-5136.GoNoGo2";;;;;;;;;;;;;;;;;;;;;;;;;;;;;;;;;;;"1261";"2015-02-23 16:05:32.376";"NST_miss";"33";"0";"FINISHED";"NONE";"failure";"0";"0";"2015-02-23 16:05:31.112";"3";;;;;;;;;;;;;;;;;;;;;;;;;;;;;;;;;;;;;;;;;;;;;
"bbb";;;"Windows 7";"Rachel's Experiment (DP)";"1.0";"3";"1";"1";"3";"1";"1";"2015-02-23 15:44:04.281";"2015-02-23 16:12:01.690";"1";"2";"0";"67";"66";"module.training_block2.exec-5136.GoNoGo2";;;;;;;;;;;;;;;;;;;;;;;;;;;;;;;;;;;"1261";"2015-02-23 16:05:34.918";"NST_miss";"6";"1";"FINISHED";"NONE";"failure";"0";"0";"2015-02-23 16:05:33.655";"1";;;;;;;;;;;;;;;;;;;;;;;;;;;;;;;;;;;;;;;;;;;;;
"bbb";;;"Windows 7";"Rachel's Experiment (DP)";"1.0";"3";"1";"1";"3";"1";"1";"2015-02-23 15:44:04.281";"2015-02-23 16:12:01.690";"1";"2";"0";"68";"67";"module.training_block2.exec-5136.GoNoGo2";;;;;;;;;;;;;;;;;;;;;;;;;;;;;;;;;;;"1261";"2015-02-23 16:05:37.461";"NST_miss";"4";"0";"FINISHED";"NONE";"failure";"0";"0";"2015-02-23 16:05:36.198";"1";;;;;;;;;;;;;;;;;;;;;;;;;;;;;;;;;;;;;;;;;;;;;
"bbb";;;"Windows 7";"Rachel's Experiment (DP)";"1.0";"3";"1";"1";"3";"1";"1";"2015-02-23 15:44:04.281";"2015-02-23 16:12:01.690";"1";"2";"0";"69";"68";"module.training_block2.exec-5136.GoNoGo2";;;;;;;;;;;;;;;;;;;;;;;;;;;;;;;;;;;"1261";"2015-02-23 16:05:40.004";"NST_miss";"22";"0";"FINISHED";"NONE";"failure";"0";"0";"2015-02-23 16:05:38.740";"3";;;;;;;;;;;;;;;;;;;;;;;;;;;;;;;;;;;;;;;;;;;;;
"bbb";;;"Windows 7";"Rachel's Experiment (DP)";"1.0";"3";"1";"1";"3";"1";"1";"2015-02-23 15:44:04.281";"2015-02-23 16:12:01.690";"1";"2";"0";"70";"69";"module.training_block2.exec-5136.GoNoGo2";;;;;;;;;;;;;;;;;;;;;;;;;;;;;;;;;;;"1261";"2015-02-23 16:05:42.547";"NST_miss";"35";"0";"FINISHED";"NONE";"failure";"0";"0";"2015-02-23 16:05:41.283";"3";;;;;;;;;;;;;;;;;;;;;;;;;;;;;;;;;;;;;;;;;;;;;
"bbb";;;"Windows 7";"Rachel's Experiment (DP)";"1.0";"3";"1";"1";"3";"1";"1";"2015-02-23 15:44:04.281";"2015-02-23 16:12:01.690";"1";"2";"0";"71";"70";"module.training_block2.exec-5136.GoNoGo2";;;;;;;;;;;;;;;;;;;;;;;;;;;;;;;;;;;"1261";"2015-02-23 16:05:45.090";"NST_miss";"3";"1";"FINISHED";"NONE";"failure";"0";"0";"2015-02-23 16:05:43.826";"1";;;;;;;;;;;;;;;;;;;;;;;;;;;;;;;;;;;;;;;;;;;;;
"bbb";;;"Windows 7";"Rachel's Experiment (DP)";"1.0";"3";"1";"1";"3";"1";"1";"2015-02-23 15:44:04.281";"2015-02-23 16:12:01.690";"1";"2";"0";"72";"71";"module.training_block2.exec-5136.GoNoGo2";;;;;;;;;;;;;;;;;;;;;;;;;;;;;;;;;;;"1257";"2015-02-23 16:05:47.632";"NST_miss";"16";"0";"FINISHED";"NONE";"failure";"0";"0";"2015-02-23 16:05:46.369";"2";;;;;;;;;;;;;;;;;;;;;;;;;;;;;;;;;;;;;;;;;;;;;
"bbb";;;"Windows 7";"Rachel's Experiment (DP)";"1.0";"3";"1";"1";"3";"1";"1";"2015-02-23 15:44:04.281";"2015-02-23 16:12:01.690";"1";"2";"0";"73";"72";"module.training_block2.exec-5136.GoNoGo2";;;;;;;;;;;;;;;;;;;;;;;;;;;;;;;;;;;"1258";"2015-02-23 16:05:50.175";"NST_miss";"19";"0";"FINISHED";"NONE";"failure";"0";"0";"2015-02-23 16:05:48.912";"3";;;;;;;;;;;;;;;;;;;;;;;;;;;;;;;;;;;;;;;;;;;;;
"bbb";;;"Windows 7";"Rachel's Experiment (DP)";"1.0";"3";"1";"1";"3";"1";"1";"2015-02-23 15:44:04.281";"2015-02-23 16:12:01.690";"1";"2";"0";"74";"73";"module.training_block2.exec-5136.GoNoGo2";;;;;;;;;;;;;;;;;;;;;;;;;;;;;;;;;;;"1257";"2015-02-23 16:05:52.718";"NST_miss";"0";"1";"FINISHED";"NONE";"failure";"0";"0";"2015-02-23 16:05:51.454";"1";;;;;;;;;;;;;;;;;;;;;;;;;;;;;;;;;;;;;;;;;;;;;
"bbb";;;"Windows 7";"Rachel's Experiment (DP)";"1.0";"3";"1";"1";"3";"1";"1";"2015-02-23 15:44:04.281";"2015-02-23 16:12:01.690";"1";"2";"0";"75";"74";"module.training_block2.exec-5136.GoNoGo2";;;;;;;;;;;;;;;;;;;;;;;;;;;;;;;;;;;"1261";"2015-02-23 16:05:55.261";"NST_miss";"24";"0";"FINISHED";"NONE";"failure";"0";"0";"2015-02-23 16:05:53.997";"3";;;;;;;;;;;;;;;;;;;;;;;;;;;;;;;;;;;;;;;;;;;;;
"bbb";;;"Windows 7";"Rachel's Experiment (DP)";"1.0";"3";"1";"1";"3";"1";"1";"2015-02-23 15:44:04.281";"2015-02-23 16:12:01.690";"1";"2";"0";"76";"75";"module.training_block2.exec-5136.GoNoGo2";;;;;;;;;;;;;;;;;;;;;;;;;;;;;;;;;;;"1261";"2015-02-23 16:05:57.804";"NST_miss";"7";"0";"FINISHED";"NONE";"failure";"0";"0";"2015-02-23 16:05:56.540";"1";;;;;;;;;;;;;;;;;;;;;;;;;;;;;;;;;;;;;;;;;;;;;
"bbb";;;"Windows 7";"Rachel's Experiment (DP)";"1.0";"3";"1";"1";"3";"1";"1";"2015-02-23 15:44:04.281";"2015-02-23 16:12:01.690";"1";"2";"0";"77";"76";"module.training_block2.exec-5136.GoNoGo2";;;;;;;;;;;;;;;;;;;;;;;;;;;;;;;;;;;"1261";"2015-02-23 16:06:00.346";"NST_miss";"31";"1";"FINISHED";"NONE";"failure";"0";"0";"2015-02-23 16:05:59.083";"3";;;;;;;;;;;;;;;;;;;;;;;;;;;;;;;;;;;;;;;;;;;;;
"bbb";;;"Windows 7";"Rachel's Experiment (DP)";"1.0";"3";"1";"1";"3";"1";"1";"2015-02-23 15:44:04.281";"2015-02-23 16:12:01.690";"1";"2";"0";"78";"77";"module.training_block2.exec-5136.GoNoGo2";;;;;;;;;;;;;;;;;;;;;;;;;;;;;;;;;;;"1261";"2015-02-23 16:06:02.889";"NST_miss";"32";"1";"FINISHED";"NONE";"failure";"0";"0";"2015-02-23 16:06:01.626";"3";;;;;;;;;;;;;;;;;;;;;;;;;;;;;;;;;;;;;;;;;;;;;
"bbb";;;"Windows 7";"Rachel's Experiment (DP)";"1.0";"3";"1";"1";"3";"1";"1";"2015-02-23 15:44:04.281";"2015-02-23 16:12:01.690";"1";"2";"0";"79";"78";"module.training_block2.exec-5136.GoNoGo2";;;;;;;;;;;;;;;;;;;;;;;;;;;;;;;;;;;"1261";"2015-02-23 16:06:05.432";"NST_miss";"8";"0";"FINISHED";"NONE";"failure";"0";"0";"2015-02-23 16:06:04.168";"1";;;;;;;;;;;;;;;;;;;;;;;;;;;;;;;;;;;;;;;;;;;;;
"bbb";;;"Windows 7";"Rachel's Experiment (DP)";"1.0";"3";"1";"1";"3";"1";"1";"2015-02-23 15:44:04.281";"2015-02-23 16:12:01.690";"1";"2";"0";"80";"79";"module.training_block2.exec-5136.GoNoGo2";;;;;;;;;;;;;;;;;;;;;;;;;;;;;;;;;;;"1261";"2015-02-23 16:06:07.990";"NST_miss";"14";"0";"FINISHED";"NONE";"failure";"0";"0";"2015-02-23 16:06:06.727";"2";;;;;;;;;;;;;;;;;;;;;;;;;;;;;;;;;;;;;;;;;;;;;
"bbb";;;"Windows 7";"Rachel's Experiment (DP)";"1.0";"3";"1";"1";"3";"1";"1";"2015-02-23 15:44:04.281";"2015-02-23 16:12:01.690";"1";"2";"0";"81";"80";"module.training_block2.exec-5136.GoNoGo2";;;;;;;;;;;;;;;;;;;;;;;;;;;;;;;;;;;"1256";"2015-02-23 16:06:10.533";"NST_miss";"17";"1";"FINISHED";"NONE";"failure";"0";"0";"2015-02-23 16:06:09.270";"2";;;;;;;;;;;;;;;;;;;;;;;;;;;;;;;;;;;;;;;;;;;;;
"bbb";;;"Windows 7";"Rachel's Experiment (DP)";"1.0";"3";"1";"1";"3";"1";"1";"2015-02-23 15:44:04.281";"2015-02-23 16:12:01.690";"1";"2";"0";"82";"81";"module.training_block2.exec-5136.GoNoGo2";;;;;;;;;;;;;;;;;;;;;;;;;;;;;;;;;;;"1261";"2015-02-23 16:06:13.076";"NST_miss";"21";"0";"FINISHED";"NONE";"failure";"0";"0";"2015-02-23 16:06:11.812";"3";;;;;;;;;;;;;;;;;;;;;;;;;;;;;;;;;;;;;;;;;;;;;
"bbb";;;"Windows 7";"Rachel's Experiment (DP)";"1.0";"3";"1";"1";"3";"1";"1";"2015-02-23 15:44:04.281";"2015-02-23 16:12:01.690";"1";"2";"0";"83";"82";"module.training_block2.exec-5136.GoNoGo2";;;;;;;;;;;;;;;;;;;;;;;;;;;;;;;;;;;"1261";"2015-02-23 16:06:15.619";"NST_miss";"26";"1";"FINISHED";"NONE";"failure";"0";"0";"2015-02-23 16:06:14.355";"3";;;;;;;;;;;;;;;;;;;;;;;;;;;;;;;;;;;;;;;;;;;;;
"bbb";;;"Windows 7";"Rachel's Experiment (DP)";"1.0";"3";"1";"1";"3";"1";"1";"2015-02-23 15:44:04.281";"2015-02-23 16:12:01.690";"1";"2";"0";"84";"83";"module.training_block2.exec-5136.GoNoGo2";;;;;;;;;;;;;;;;;;;;;;;;;;;;;;;;;;;"1261";"2015-02-23 16:06:18.162";"NST_miss";"25";"0";"FINISHED";"NONE";"failure";"0";"0";"2015-02-23 16:06:16.898";"3";;;;;;;;;;;;;;;;;;;;;;;;;;;;;;;;;;;;;;;;;;;;;
"bbb";;;"Windows 7";"Rachel's Experiment (DP)";"1.0";"3";"1";"1";"3";"1";"1";"2015-02-23 15:44:04.281";"2015-02-23 16:12:01.690";"1";"2";"0";"85";"84";"module.training_block2.exec-5136.GoNoGo2";;;;;;;;;;;;;;;;;;;;;;;;;;;;;;;;;;;"1261";"2015-02-23 16:06:20.704";"NST_miss";"2";"0";"FINISHED";"NONE";"failure";"0";"0";"2015-02-23 16:06:19.441";"1";;;;;;;;;;;;;;;;;;;;;;;;;;;;;;;;;;;;;;;;;;;;;
"bbb";;;"Windows 7";"Rachel's Experiment (DP)";"1.0";"3";"1";"1";"3";"1";"1";"2015-02-23 15:44:04.281";"2015-02-23 16:12:01.690";"1";"2";"0";"86";"85";"module.training_block2.exec-5136.GoNoGo2";;;;;;;;;;;;;;;;;;;;;;;;;;;;;;;;;;;"1261";"2015-02-23 16:06:23.247";"NST_miss";"13";"0";"FINISHED";"NONE";"failure";"0";"0";"2015-02-23 16:06:21.984";"2";;;;;;;;;;;;;;;;;;;;;;;;;;;;;;;;;;;;;;;;;;;;;
"bbb";;;"Windows 7";"Rachel's Experiment (DP)";"1.0";"3";"1";"1";"3";"1";"1";"2015-02-23 15:44:04.281";"2015-02-23 16:12:01.690";"1";"2";"0";"87";"86";"module.training_block2.exec-5136.GoNoGo2";;;;;;;;;;;;;;;;;;;;;;;;;;;;;;;;;;;"1261";"2015-02-23 16:06:25.790";"NST_miss";"5";"0";"FINISHED";"NONE";"failure";"0";"0";"2015-02-23 16:06:24.526";"1";;;;;;;;;;;;;;;;;;;;;;;;;;;;;;;;;;;;;;;;;;;;;
"bbb";;;"Windows 7";"Rachel's Experiment (DP)";"1.0";"3";"1";"1";"3";"1";"1";"2015-02-23 15:44:04.281";"2015-02-23 16:12:01.690";"1";"2";"0";"88";"87";"module.training_block3.exec-3675.GoNoGo3";;;;;;;;;;;;;;;;;;;;;;;;;;;;;;;;;;;;;;;;;;;;;;;"1261";"2015-02-23 16:06:39.440";"NST_miss";"12";"1";"FINISHED";"NONE";"failure";"0";"0";"2015-02-23 16:06:38.176";"2";;;;;;;;;;;;;;;;;;;;;;;;;;;;;;;;;
"bbb";;;"Windows 7";"Rachel's Experiment (DP)";"1.0";"3";"1";"1";"3";"1";"1";"2015-02-23 15:44:04.281";"2015-02-23 16:12:01.690";"1";"2";"0";"89";"88";"module.training_block3.exec-3675.GoNoGo3";;;;;;;;;;;;;;;;;;;;;;;;;;;;;;;;;;;;;;;;;;;;;;;"1261";"2015-02-23 16:06:41.983";"NST_miss";"11";"1";"FINISHED";"NONE";"failure";"0";"0";"2015-02-23 16:06:40.719";"2";;;;;;;;;;;;;;;;;;;;;;;;;;;;;;;;;
"bbb";;;"Windows 7";"Rachel's Experiment (DP)";"1.0";"3";"1";"1";"3";"1";"1";"2015-02-23 15:44:04.281";"2015-02-23 16:12:01.690";"1";"2";"0";"90";"89";"module.training_block3.exec-3675.GoNoGo3";;;;;;;;;;;;;;;;;;;;;;;;;;;;;;;;;;;;;;;;;;;;;;;"1262";"2015-02-23 16:06:44.526";"NST_miss";"14";"1";"FINISHED";"NONE";"failure";"0";"0";"2015-02-23 16:06:43.262";"2";;;;;;;;;;;;;;;;;;;;;;;;;;;;;;;;;
"bbb";;;"Windows 7";"Rachel's Experiment (DP)";"1.0";"3";"1";"1";"3";"1";"1";"2015-02-23 15:44:04.281";"2015-02-23 16:12:01.690";"1";"2";"0";"91";"90";"module.training_block3.exec-3675.GoNoGo3";;;;;;;;;;;;;;;;;;;;;;;;;;;;;;;;;;;;;;;;;;;;;;;"1262";"2015-02-23 16:06:47.068";"NST_miss";"5";"1";"FINISHED";"NONE";"failure";"0";"0";"2015-02-23 16:06:45.805";"1";;;;;;;;;;;;;;;;;;;;;;;;;;;;;;;;;
"bbb";;;"Windows 7";"Rachel's Experiment (DP)";"1.0";"3";"1";"1";"3";"1";"1";"2015-02-23 15:44:04.281";"2015-02-23 16:12:01.690";"1";"2";"0";"92";"91";"module.training_block3.exec-3675.GoNoGo3";;;;;;;;;;;;;;;;;;;;;;;;;;;;;;;;;;;;;;;;;;;;;;;"1261";"2015-02-23 16:06:49.611";"NST_miss";"0";"0";"FINISHED";"NONE";"failure";"0";"0";"2015-02-23 16:06:48.348";"1";;;;;;;;;;;;;;;;;;;;;;;;;;;;;;;;;
"bbb";;;"Windows 7";"Rachel's Experiment (DP)";"1.0";"3";"1";"1";"3";"1";"1";"2015-02-23 15:44:04.281";"2015-02-23 16:12:01.690";"1";"2";"0";"93";"92";"module.training_block3.exec-3675.GoNoGo3";;;;;;;;;;;;;;;;;;;;;;;;;;;;;;;;;;;;;;;;;;;;;;;"1262";"2015-02-23 16:06:52.154";"NST_miss";"19";"0";"FINISHED";"NONE";"failure";"0";"0";"2015-02-23 16:06:50.890";"3";;;;;;;;;;;;;;;;;;;;;;;;;;;;;;;;;
"bbb";;;"Windows 7";"Rachel's Experiment (DP)";"1.0";"3";"1";"1";"3";"1";"1";"2015-02-23 15:44:04.281";"2015-02-23 16:12:01.690";"1";"2";"0";"94";"93";"module.training_block3.exec-3675.GoNoGo3";;;;;;;;;;;;;;;;;;;;;;;;;;;;;;;;;;;;;;;;;;;;;;;"1261";"2015-02-23 16:06:54.697";"NST_miss";"28";"0";"FINISHED";"NONE";"failure";"0";"0";"2015-02-23 16:06:53.433";"3";;;;;;;;;;;;;;;;;;;;;;;;;;;;;;;;;
"bbb";;;"Windows 7";"Rachel's Experiment (DP)";"1.0";"3";"1";"1";"3";"1";"1";"2015-02-23 15:44:04.281";"2015-02-23 16:12:01.690";"1";"2";"0";"95";"94";"module.training_block3.exec-3675.GoNoGo3";;;;;;;;;;;;;;;;;;;;;;;;;;;;;;;;;;;;;;;;;;;;;;;"1262";"2015-02-23 16:06:57.240";"NST_miss";"3";"0";"FINISHED";"NONE";"failure";"0";"0";"2015-02-23 16:06:55.976";"1";;;;;;;;;;;;;;;;;;;;;;;;;;;;;;;;;
"bbb";;;"Windows 7";"Rachel's Experiment (DP)";"1.0";"3";"1";"1";"3";"1";"1";"2015-02-23 15:44:04.281";"2015-02-23 16:12:01.690";"1";"2";"0";"96";"95";"module.training_block3.exec-3675.GoNoGo3";;;;;;;;;;;;;;;;;;;;;;;;;;;;;;;;;;;;;;;;;;;;;;;"1262";"2015-02-23 16:06:59.782";"NST_miss";"1";"0";"FINISHED";"NONE";"failure";"0";"0";"2015-02-23 16:06:58.519";"1";;;;;;;;;;;;;;;;;;;;;;;;;;;;;;;;;
"bbb";;;"Windows 7";"Rachel's Experiment (DP)";"1.0";"3";"1";"1";"3";"1";"1";"2015-02-23 15:44:04.281";"2015-02-23 16:12:01.690";"1";"2";"0";"97";"96";"module.training_block3.exec-3675.GoNoGo3";;;;;;;;;;;;;;;;;;;;;;;;;;;;;;;;;;;;;;;;;;;;;;;"1262";"2015-02-23 16:07:02.325";"NST_miss";"34";"1";"FINISHED";"NONE";"failure";"0";"0";"2015-02-23 16:07:01.062";"3";;;;;;;;;;;;;;;;;;;;;;;;;;;;;;;;;
"bbb";;;"Windows 7";"Rachel's Experiment (DP)";"1.0";"3";"1";"1";"3";"1";"1";"2015-02-23 15:44:04.281";"2015-02-23 16:12:01.690";"1";"2";"0";"98";"97";"module.training_block3.exec-3675.GoNoGo3";;;;;;;;;;;;;;;;;;;;;;;;;;;;;;;;;;;;;;;;;;;;;;;"1261";"2015-02-23 16:07:04.868";"NST_miss";"33";"0";"FINISHED";"NONE";"failure";"0";"0";"2015-02-23 16:07:03.604";"3";;;;;;;;;;;;;;;;;;;;;;;;;;;;;;;;;
"bbb";;;"Windows 7";"Rachel's Experiment (DP)";"1.0";"3";"1";"1";"3";"1";"1";"2015-02-23 15:44:04.281";"2015-02-23 16:12:01.690";"1";"2";"0";"99";"98";"module.training_block3.exec-3675.GoNoGo3";;;;;;;;;;;;;;;;;;;;;;;;;;;;;;;;;;;;;;;;;;;;;;;"1262";"2015-02-23 16:07:07.411";"NST_miss";"13";"1";"FINISHED";"NONE";"failure";"0";"0";"2015-02-23 16:07:06.147";"2";;;;;;;;;;;;;;;;;;;;;;;;;;;;;;;;;
"bbb";;;"Windows 7";"Rachel's Experiment (DP)";"1.0";"3";"1";"1";"3";"1";"1";"2015-02-23 15:44:04.281";"2015-02-23 16:12:01.690";"1";"2";"0";"100";"99";"module.training_block3.exec-3675.GoNoGo3";;;;;;;;;;;;;;;;;;;;;;;;;;;;;;;;;;;;;;;;;;;;;;;"1261";"2015-02-23 16:07:09.954";"NST_miss";"20";"0";"FINISHED";"NONE";"failure";"0";"0";"2015-02-23 16:07:08.690";"3";;;;;;;;;;;;;;;;;;;;;;;;;;;;;;;;;
"bbb";;;"Windows 7";"Rachel's Experiment (DP)";"1.0";"3";"1";"1";"3";"1";"1";"2015-02-23 15:44:04.281";"2015-02-23 16:12:01.690";"1";"2";"0";"101";"100";"module.training_block3.exec-3675.GoNoGo3";;;;;;;;;;;;;;;;;;;;;;;;;;;;;;;;;;;;;;;;;;;;;;;"1261";"2015-02-23 16:07:12.497";"NST_miss";"2";"1";"FINISHED";"NONE";"failure";"0";"0";"2015-02-23 16:07:11.233";"1";;;;;;;;;;;;;;;;;;;;;;;;;;;;;;;;;
"bbb";;;"Windows 7";"Rachel's Experiment (DP)";"1.0";"3";"1";"1";"3";"1";"1";"2015-02-23 15:44:04.281";"2015-02-23 16:12:01.690";"1";"2";"0";"102";"101";"module.training_block3.exec-3675.GoNoGo3";;;;;;;;;;;;;;;;;;;;;;;;;;;;;;;;;;;;;;;;;;;;;;;"1261";"2015-02-23 16:07:15.039";"NST_miss";"24";"1";"FINISHED";"NONE";"failure";"0";"0";"2015-02-23 16:07:13.776";"3";;;;;;;;;;;;;;;;;;;;;;;;;;;;;;;;;
"bbb";;;"Windows 7";"Rachel's Experiment (DP)";"1.0";"3";"1";"1";"3";"1";"1";"2015-02-23 15:44:04.281";"2015-02-23 16:12:01.690";"1";"2";"0";"103";"102";"module.training_block3.exec-3675.GoNoGo3";;;;;;;;;;;;;;;;;;;;;;;;;;;;;;;;;;;;;;;;;;;;;;;"1261";"2015-02-23 16:07:17.582";"NST_miss";"29";"1";"FINISHED";"NONE";"failure";"0";"0";"2015-02-23 16:07:16.319";"3";;;;;;;;;;;;;;;;;;;;;;;;;;;;;;;;;
"bbb";;;"Windows 7";"Rachel's Experiment (DP)";"1.0";"3";"1";"1";"3";"1";"1";"2015-02-23 15:44:04.281";"2015-02-23 16:12:01.690";"1";"2";"0";"104";"103";"module.training_block3.exec-3675.GoNoGo3";;;;;;;;;;;;;;;;;;;;;;;;;;;;;;;;;;;;;;;;;;;;;;;"1261";"2015-02-23 16:07:20.141";"NST_miss";"8";"0";"FINISHED";"NONE";"failure";"0";"0";"2015-02-23 16:07:18.877";"1";;;;;;;;;;;;;;;;;;;;;;;;;;;;;;;;;
"bbb";;;"Windows 7";"Rachel's Experiment (DP)";"1.0";"3";"1";"1";"3";"1";"1";"2015-02-23 15:44:04.281";"2015-02-23 16:12:01.690";"1";"2";"0";"105";"104";"module.training_block3.exec-3675.GoNoGo3";;;;;;;;;;;;;;;;;;;;;;;;;;;;;;;;;;;;;;;;;;;;;;;"1262";"2015-02-23 16:07:22.683";"NST_miss";"30";"1";"FINISHED";"NONE";"failure";"0";"0";"2015-02-23 16:07:21.420";"3";;;;;;;;;;;;;;;;;;;;;;;;;;;;;;;;;
"bbb";;;"Windows 7";"Rachel's Experiment (DP)";"1.0";"3";"1";"1";"3";"1";"1";"2015-02-23 15:44:04.281";"2015-02-23 16:12:01.690";"1";"2";"0";"106";"105";"module.training_block3.exec-3675.GoNoGo3";;;;;;;;;;;;;;;;;;;;;;;;;;;;;;;;;;;;;;;;;;;;;;;"1262";"2015-02-23 16:07:25.226";"NST_miss";"31";"1";"FINISHED";"NONE";"failure";"0";"0";"2015-02-23 16:07:23.963";"3";;;;;;;;;;;;;;;;;;;;;;;;;;;;;;;;;
"bbb";;;"Windows 7";"Rachel's Experiment (DP)";"1.0";"3";"1";"1";"3";"1";"1";"2015-02-23 15:44:04.281";"2015-02-23 16:12:01.690";"1";"2";"0";"107";"106";"module.training_block3.exec-3675.GoNoGo3";;;;;;;;;;;;;;;;;;;;;;;;;;;;;;;;;;;;;;;;;;;;;;;"1262";"2015-02-23 16:07:27.769";"NST_miss";"32";"1";"FINISHED";"NONE";"failure";"0";"0";"2015-02-23 16:07:26.505";"3";;;;;;;;;;;;;;;;;;;;;;;;;;;;;;;;;
"bbb";;;"Windows 7";"Rachel's Experiment (DP)";"1.0";"3";"1";"1";"3";"1";"1";"2015-02-23 15:44:04.281";"2015-02-23 16:12:01.690";"1";"2";"0";"108";"107";"module.training_block3.exec-3675.GoNoGo3";;;;;;;;;;;;;;;;;;;;;;;;;;;;;;;;;;;;;;;;;;;;;;;"1262";"2015-02-23 16:07:30.312";"NST_miss";"26";"1";"FINISHED";"NONE";"failure";"0";"0";"2015-02-23 16:07:29.048";"3";;;;;;;;;;;;;;;;;;;;;;;;;;;;;;;;;
"bbb";;;"Windows 7";"Rachel's Experiment (DP)";"1.0";"3";"1";"1";"3";"1";"1";"2015-02-23 15:44:04.281";"2015-02-23 16:12:01.690";"1";"2";"0";"109";"108";"module.training_block3.exec-3675.GoNoGo3";;;;;;;;;;;;;;;;;;;;;;;;;;;;;;;;;;;;;;;;;;;;;;;"1262";"2015-02-23 16:07:32.855";"NST_miss";"17";"1";"FINISHED";"NONE";"failure";"0";"0";"2015-02-23 16:07:31.591";"2";;;;;;;;;;;;;;;;;;;;;;;;;;;;;;;;;
"bbb";;;"Windows 7";"Rachel's Experiment (DP)";"1.0";"3";"1";"1";"3";"1";"1";"2015-02-23 15:44:04.281";"2015-02-23 16:12:01.690";"1";"2";"0";"110";"109";"module.training_block3.exec-3675.GoNoGo3";;;;;;;;;;;;;;;;;;;;;;;;;;;;;;;;;;;;;;;;;;;;;;;"1261";"2015-02-23 16:07:35.397";"NST_miss";"27";"1";"FINISHED";"NONE";"failure";"0";"0";"2015-02-23 16:07:34.134";"3";;;;;;;;;;;;;;;;;;;;;;;;;;;;;;;;;
"bbb";;;"Windows 7";"Rachel's Experiment (DP)";"1.0";"3";"1";"1";"3";"1";"1";"2015-02-23 15:44:04.281";"2015-02-23 16:12:01.690";"1";"2";"0";"111";"110";"module.training_block3.exec-3675.GoNoGo3";;;;;;;;;;;;;;;;;;;;;;;;;;;;;;;;;;;;;;;;;;;;;;;"1261";"2015-02-23 16:07:37.940";"NST_miss";"16";"1";"FINISHED";"NONE";"failure";"0";"0";"2015-02-23 16:07:36.677";"2";;;;;;;;;;;;;;;;;;;;;;;;;;;;;;;;;
"bbb";;;"Windows 7";"Rachel's Experiment (DP)";"1.0";"3";"1";"1";"3";"1";"1";"2015-02-23 15:44:04.281";"2015-02-23 16:12:01.690";"1";"2";"0";"112";"111";"module.training_block3.exec-3675.GoNoGo3";;;;;;;;;;;;;;;;;;;;;;;;;;;;;;;;;;;;;;;;;;;;;;;"1261";"2015-02-23 16:07:40.483";"NST_miss";"18";"1";"FINISHED";"NONE";"failure";"0";"0";"2015-02-23 16:07:39.219";"3";;;;;;;;;;;;;;;;;;;;;;;;;;;;;;;;;
"bbb";;;"Windows 7";"Rachel's Experiment (DP)";"1.0";"3";"1";"1";"3";"1";"1";"2015-02-23 15:44:04.281";"2015-02-23 16:12:01.690";"1";"2";"0";"113";"112";"module.training_block3.exec-3675.GoNoGo3";;;;;;;;;;;;;;;;;;;;;;;;;;;;;;;;;;;;;;;;;;;;;;;"1262";"2015-02-23 16:07:43.026";"NST_miss";"6";"1";"FINISHED";"NONE";"failure";"0";"0";"2015-02-23 16:07:41.762";"1";;;;;;;;;;;;;;;;;;;;;;;;;;;;;;;;;
"bbb";;;"Windows 7";"Rachel's Experiment (DP)";"1.0";"3";"1";"1";"3";"1";"1";"2015-02-23 15:44:04.281";"2015-02-23 16:12:01.690";"1";"2";"0";"114";"113";"module.training_block3.exec-3675.GoNoGo3";;;;;;;;;;;;;;;;;;;;;;;;;;;;;;;;;;;;;;;;;;;;;;;"1262";"2015-02-23 16:07:45.569";"NST_miss";"4";"0";"FINISHED";"NONE";"failure";"0";"0";"2015-02-23 16:07:44.305";"1";;;;;;;;;;;;;;;;;;;;;;;;;;;;;;;;;
"bbb";;;"Windows 7";"Rachel's Experiment (DP)";"1.0";"3";"1";"1";"3";"1";"1";"2015-02-23 15:44:04.281";"2015-02-23 16:12:01.690";"1";"2";"0";"115";"114";"module.training_block3.exec-3675.GoNoGo3";;;;;;;;;;;;;;;;;;;;;;;;;;;;;;;;;;;;;;;;;;;;;;;"1262";"2015-02-23 16:07:48.111";"NST_miss";"15";"0";"FINISHED";"NONE";"failure";"0";"0";"2015-02-23 16:07:46.848";"2";;;;;;;;;;;;;;;;;;;;;;;;;;;;;;;;;
"bbb";;;"Windows 7";"Rachel's Experiment (DP)";"1.0";"3";"1";"1";"3";"1";"1";"2015-02-23 15:44:04.281";"2015-02-23 16:12:01.690";"1";"2";"0";"116";"115";"module.training_block3.exec-3675.GoNoGo3";;;;;;;;;;;;;;;;;;;;;;;;;;;;;;;;;;;;;;;;;;;;;;;"1261";"2015-02-23 16:07:50.654";"NST_miss";"9";"1";"FINISHED";"NONE";"failure";"0";"0";"2015-02-23 16:07:49.391";"2";;;;;;;;;;;;;;;;;;;;;;;;;;;;;;;;;
"bbb";;;"Windows 7";"Rachel's Experiment (DP)";"1.0";"3";"1";"1";"3";"1";"1";"2015-02-23 15:44:04.281";"2015-02-23 16:12:01.690";"1";"2";"0";"117";"116";"module.training_block3.exec-3675.GoNoGo3";;;;;;;;;;;;;;;;;;;;;;;;;;;;;;;;;;;;;;;;;;;;;;;"1261";"2015-02-23 16:07:53.197";"NST_miss";"35";"1";"FINISHED";"NONE";"failure";"0";"0";"2015-02-23 16:07:51.933";"3";;;;;;;;;;;;;;;;;;;;;;;;;;;;;;;;;
"bbb";;;"Windows 7";"Rachel's Experiment (DP)";"1.0";"3";"1";"1";"3";"1";"1";"2015-02-23 15:44:04.281";"2015-02-23 16:12:01.690";"1";"2";"0";"118";"117";"module.training_block3.exec-3675.GoNoGo3";;;;;;;;;;;;;;;;;;;;;;;;;;;;;;;;;;;;;;;;;;;;;;;"1262";"2015-02-23 16:07:55.740";"NST_miss";"23";"0";"FINISHED";"NONE";"failure";"0";"0";"2015-02-23 16:07:54.476";"3";;;;;;;;;;;;;;;;;;;;;;;;;;;;;;;;;
"bbb";;;"Windows 7";"Rachel's Experiment (DP)";"1.0";"3";"1";"1";"3";"1";"1";"2015-02-23 15:44:04.281";"2015-02-23 16:12:01.690";"1";"2";"0";"119";"118";"module.training_block3.exec-3675.GoNoGo3";;;;;;;;;;;;;;;;;;;;;;;;;;;;;;;;;;;;;;;;;;;;;;;"1261";"2015-02-23 16:07:58.283";"NST_miss";"21";"1";"FINISHED";"NONE";"failure";"0";"0";"2015-02-23 16:07:57.019";"3";;;;;;;;;;;;;;;;;;;;;;;;;;;;;;;;;
"bbb";;;"Windows 7";"Rachel's Experiment (DP)";"1.0";"3";"1";"1";"3";"1";"1";"2015-02-23 15:44:04.281";"2015-02-23 16:12:01.690";"1";"2";"0";"120";"119";"module.training_block3.exec-3675.GoNoGo3";;;;;;;;;;;;;;;;;;;;;;;;;;;;;;;;;;;;;;;;;;;;;;;"1262";"2015-02-23 16:08:00.825";"NST_miss";"22";"0";"FINISHED";"NONE";"failure";"0";"0";"2015-02-23 16:07:59.562";"3";;;;;;;;;;;;;;;;;;;;;;;;;;;;;;;;;
"bbb";;;"Windows 7";"Rachel's Experiment (DP)";"1.0";"3";"1";"1";"3";"1";"1";"2015-02-23 15:44:04.281";"2015-02-23 16:12:01.690";"1";"2";"0";"121";"120";"module.training_block3.exec-3675.GoNoGo3";;;;;;;;;;;;;;;;;;;;;;;;;;;;;;;;;;;;;;;;;;;;;;;"1261";"2015-02-23 16:08:03.368";"NST_miss";"25";"0";"FINISHED";"NONE";"failure";"0";"0";"2015-02-23 16:08:02.105";"3";;;;;;;;;;;;;;;;;;;;;;;;;;;;;;;;;
"bbb";;;"Windows 7";"Rachel's Experiment (DP)";"1.0";"3";"1";"1";"3";"1";"1";"2015-02-23 15:44:04.281";"2015-02-23 16:12:01.690";"1";"2";"0";"122";"121";"module.training_block3.exec-3675.GoNoGo3";;;;;;;;;;;;;;;;;;;;;;;;;;;;;;;;;;;;;;;;;;;;;;;"1262";"2015-02-23 16:08:05.911";"NST_miss";"7";"1";"FINISHED";"NONE";"failure";"0";"0";"2015-02-23 16:08:04.647";"1";;;;;;;;;;;;;;;;;;;;;;;;;;;;;;;;;
"bbb";;;"Windows 7";"Rachel's Experiment (DP)";"1.0";"3";"1";"1";"3";"1";"1";"2015-02-23 15:44:04.281";"2015-02-23 16:12:01.690";"1";"2";"0";"123";"122";"module.training_block3.exec-3675.GoNoGo3";;;;;;;;;;;;;;;;;;;;;;;;;;;;;;;;;;;;;;;;;;;;;;;"1262";"2015-02-23 16:08:08.438";"NST_miss";"10";"0";"FINISHED";"NONE";"failure";"0";"0";"2015-02-23 16:08:07.175";"2";;;;;;;;;;;;;;;;;;;;;;;;;;;;;;;;;
"bbb";;;"Windows 7";"Rachel's Experiment (DP)";"1.0";"3";"1";"1";"3";"1";"1";"2015-02-23 15:44:04.281";"2015-02-23 16:12:01.690";"1";"2";"0";"124";"123";"module.training_block4.exec-4395.GoNoGo4";;;;;;;;;;;;;;;;;;;;;;;;;;;;;;;;;;;;;;;;;;;;;;;;;;;;;;;;;;;"1261";"2015-02-23 16:08:37.049";"NST_miss";"30";"1";"FINISHED";"NONE";"failure";"0";"0";"2015-02-23 16:08:35.785";"3";;;;;;;;;;;;;;;;;;;;;
"bbb";;;"Windows 7";"Rachel's Experiment (DP)";"1.0";"3";"1";"1";"3";"1";"1";"2015-02-23 15:44:04.281";"2015-02-23 16:12:01.690";"1";"2";"0";"125";"124";"module.training_block4.exec-4395.GoNoGo4";;;;;;;;;;;;;;;;;;;;;;;;;;;;;;;;;;;;;;;;;;;;;;;;;;;;;;;;;;;"1261";"2015-02-23 16:08:39.591";"NST_miss";"5";"1";"FINISHED";"NONE";"failure";"0";"0";"2015-02-23 16:08:38.328";"1";;;;;;;;;;;;;;;;;;;;;
"bbb";;;"Windows 7";"Rachel's Experiment (DP)";"1.0";"3";"1";"1";"3";"1";"1";"2015-02-23 15:44:04.281";"2015-02-23 16:12:01.690";"1";"2";"0";"126";"125";"module.training_block4.exec-4395.GoNoGo4";;;;;;;;;;;;;;;;;;;;;;;;;;;;;;;;;;;;;;;;;;;;;;;;;;;;;;;;;;;"1262";"2015-02-23 16:08:42.134";"NST_miss";"19";"1";"FINISHED";"NONE";"failure";"0";"0";"2015-02-23 16:08:40.871";"3";;;;;;;;;;;;;;;;;;;;;
"bbb";;;"Windows 7";"Rachel's Experiment (DP)";"1.0";"3";"1";"1";"3";"1";"1";"2015-02-23 15:44:04.281";"2015-02-23 16:12:01.690";"1";"2";"0";"127";"126";"module.training_block4.exec-4395.GoNoGo4";;;;;;;;;;;;;;;;;;;;;;;;;;;;;;;;;;;;;;;;;;;;;;;;;;;;;;;;;;;"1262";"2015-02-23 16:08:44.677";"NST_miss";"0";"1";"FINISHED";"NONE";"failure";"0";"0";"2015-02-23 16:08:43.413";"1";;;;;;;;;;;;;;;;;;;;;
"bbb";;;"Windows 7";"Rachel's Experiment (DP)";"1.0";"3";"1";"1";"3";"1";"1";"2015-02-23 15:44:04.281";"2015-02-23 16:12:01.690";"1";"2";"0";"128";"127";"module.training_block4.exec-4395.GoNoGo4";;;;;;;;;;;;;;;;;;;;;;;;;;;;;;;;;;;;;;;;;;;;;;;;;;;;;;;;;;;"1262";"2015-02-23 16:08:47.204";"NST_miss";"4";"0";"FINISHED";"NONE";"failure";"0";"0";"2015-02-23 16:08:45.941";"1";;;;;;;;;;;;;;;;;;;;;
"bbb";;;"Windows 7";"Rachel's Experiment (DP)";"1.0";"3";"1";"1";"3";"1";"1";"2015-02-23 15:44:04.281";"2015-02-23 16:12:01.690";"1";"2";"0";"129";"128";"module.training_block4.exec-4395.GoNoGo4";;;;;;;;;;;;;;;;;;;;;;;;;;;;;;;;;;;;;;;;;;;;;;;;;;;;;;;;;;;"1262";"2015-02-23 16:08:49.747";"NST_miss";"33";"0";"FINISHED";"NONE";"failure";"0";"0";"2015-02-23 16:08:48.483";"3";;;;;;;;;;;;;;;;;;;;;
"bbb";;;"Windows 7";"Rachel's Experiment (DP)";"1.0";"3";"1";"1";"3";"1";"1";"2015-02-23 15:44:04.281";"2015-02-23 16:12:01.690";"1";"2";"0";"130";"129";"module.training_block4.exec-4395.GoNoGo4";;;;;;;;;;;;;;;;;;;;;;;;;;;;;;;;;;;;;;;;;;;;;;;;;;;;;;;;;;;"1262";"2015-02-23 16:08:52.305";"NST_miss";"28";"1";"FINISHED";"NONE";"failure";"0";"0";"2015-02-23 16:08:51.042";"3";;;;;;;;;;;;;;;;;;;;;
"bbb";;;"Windows 7";"Rachel's Experiment (DP)";"1.0";"3";"1";"1";"3";"1";"1";"2015-02-23 15:44:04.281";"2015-02-23 16:12:01.690";"1";"2";"0";"131";"130";"module.training_block4.exec-4395.GoNoGo4";;;;;;;;;;;;;;;;;;;;;;;;;;;;;;;;;;;;;;;;;;;;;;;;;;;;;;;;;;;"1262";"2015-02-23 16:08:54.848";"NST_miss";"1";"0";"FINISHED";"NONE";"failure";"0";"0";"2015-02-23 16:08:53.585";"1";;;;;;;;;;;;;;;;;;;;;
"bbb";;;"Windows 7";"Rachel's Experiment (DP)";"1.0";"3";"1";"1";"3";"1";"1";"2015-02-23 15:44:04.281";"2015-02-23 16:12:01.690";"1";"2";"0";"132";"131";"module.training_block4.exec-4395.GoNoGo4";;;;;;;;;;;;;;;;;;;;;;;;;;;;;;;;;;;;;;;;;;;;;;;;;;;;;;;;;;;"1262";"2015-02-23 16:08:57.407";"NST_miss";"2";"0";"FINISHED";"NONE";"failure";"0";"0";"2015-02-23 16:08:56.143";"1";;;;;;;;;;;;;;;;;;;;;
"bbb";;;"Windows 7";"Rachel's Experiment (DP)";"1.0";"3";"1";"1";"3";"1";"1";"2015-02-23 15:44:04.281";"2015-02-23 16:12:01.690";"1";"2";"0";"133";"132";"module.training_block4.exec-4395.GoNoGo4";;;;;;;;;;;;;;;;;;;;;;;;;;;;;;;;;;;;;;;;;;;;;;;;;;;;;;;;;;;"1262";"2015-02-23 16:08:59.949";"NST_miss";"17";"0";"FINISHED";"NONE";"failure";"0";"0";"2015-02-23 16:08:58.686";"2";;;;;;;;;;;;;;;;;;;;;
"bbb";;;"Windows 7";"Rachel's Experiment (DP)";"1.0";"3";"1";"1";"3";"1";"1";"2015-02-23 15:44:04.281";"2015-02-23 16:12:01.690";"1";"2";"0";"134";"133";"module.training_block4.exec-4395.GoNoGo4";;;;;;;;;;;;;;;;;;;;;;;;;;;;;;;;;;;;;;;;;;;;;;;;;;;;;;;;;;;"1262";"2015-02-23 16:09:02.492";"NST_miss";"18";"0";"FINISHED";"NONE";"failure";"0";"0";"2015-02-23 16:09:01.229";"3";;;;;;;;;;;;;;;;;;;;;
"bbb";;;"Windows 7";"Rachel's Experiment (DP)";"1.0";"3";"1";"1";"3";"1";"1";"2015-02-23 15:44:04.281";"2015-02-23 16:12:01.690";"1";"2";"0";"135";"134";"module.training_block4.exec-4395.GoNoGo4";;;;;;;;;;;;;;;;;;;;;;;;;;;;;;;;;;;;;;;;;;;;;;;;;;;;;;;;;;;"1262";"2015-02-23 16:09:05.020";"NST_miss";"29";"0";"FINISHED";"NONE";"failure";"0";"0";"2015-02-23 16:09:03.756";"3";;;;;;;;;;;;;;;;;;;;;
"bbb";;;"Windows 7";"Rachel's Experiment (DP)";"1.0";"3";"1";"1";"3";"1";"1";"2015-02-23 15:44:04.281";"2015-02-23 16:12:01.690";"1";"2";"0";"136";"135";"module.training_block4.exec-4395.GoNoGo4";;;;;;;;;;;;;;;;;;;;;;;;;;;;;;;;;;;;;;;;;;;;;;;;;;;;;;;;;;;"1262";"2015-02-23 16:09:07.562";"NST_miss";"26";"1";"FINISHED";"NONE";"failure";"0";"0";"2015-02-23 16:09:06.299";"3";;;;;;;;;;;;;;;;;;;;;
"bbb";;;"Windows 7";"Rachel's Experiment (DP)";"1.0";"3";"1";"1";"3";"1";"1";"2015-02-23 15:44:04.281";"2015-02-23 16:12:01.690";"1";"2";"0";"137";"136";"module.training_block4.exec-4395.GoNoGo4";;;;;;;;;;;;;;;;;;;;;;;;;;;;;;;;;;;;;;;;;;;;;;;;;;;;;;;;;;;"1261";"2015-02-23 16:09:10.090";"NST_miss";"32";"1";"FINISHED";"NONE";"failure";"0";"0";"2015-02-23 16:09:08.826";"3";;;;;;;;;;;;;;;;;;;;;
"bbb";;;"Windows 7";"Rachel's Experiment (DP)";"1.0";"3";"1";"1";"3";"1";"1";"2015-02-23 15:44:04.281";"2015-02-23 16:12:01.690";"1";"2";"0";"138";"137";"module.training_block4.exec-4395.GoNoGo4";;;;;;;;;;;;;;;;;;;;;;;;;;;;;;;;;;;;;;;;;;;;;;;;;;;;;;;;;;;"1262";"2015-02-23 16:09:12.617";"NST_miss";"22";"1";"FINISHED";"NONE";"failure";"0";"0";"2015-02-23 16:09:11.353";"3";;;;;;;;;;;;;;;;;;;;;
"bbb";;;"Windows 7";"Rachel's Experiment (DP)";"1.0";"3";"1";"1";"3";"1";"1";"2015-02-23 15:44:04.281";"2015-02-23 16:12:01.690";"1";"2";"0";"139";"138";"module.training_block4.exec-4395.GoNoGo4";;;;;;;;;;;;;;;;;;;;;;;;;;;;;;;;;;;;;;;;;;;;;;;;;;;;;;;;;;;"1261";"2015-02-23 16:09:15.160";"NST_miss";"16";"1";"FINISHED";"NONE";"failure";"0";"0";"2015-02-23 16:09:13.896";"2";;;;;;;;;;;;;;;;;;;;;
"bbb";;;"Windows 7";"Rachel's Experiment (DP)";"1.0";"3";"1";"1";"3";"1";"1";"2015-02-23 15:44:04.281";"2015-02-23 16:12:01.690";"1";"2";"0";"140";"139";"module.training_block4.exec-4395.GoNoGo4";;;;;;;;;;;;;;;;;;;;;;;;;;;;;;;;;;;;;;;;;;;;;;;;;;;;;;;;;;;"1262";"2015-02-23 16:09:17.687";"NST_miss";"7";"1";"FINISHED";"NONE";"failure";"0";"0";"2015-02-23 16:09:16.423";"1";;;;;;;;;;;;;;;;;;;;;
"bbb";;;"Windows 7";"Rachel's Experiment (DP)";"1.0";"3";"1";"1";"3";"1";"1";"2015-02-23 15:44:04.281";"2015-02-23 16:12:01.690";"1";"2";"0";"141";"140";"module.training_block4.exec-4395.GoNoGo4";;;;;;;;;;;;;;;;;;;;;;;;;;;;;;;;;;;;;;;;;;;;;;;;;;;;;;;;;;;"1262";"2015-02-23 16:09:20.230";"NST_miss";"15";"0";"FINISHED";"NONE";"failure";"0";"0";"2015-02-23 16:09:18.966";"2";;;;;;;;;;;;;;;;;;;;;
"bbb";;;"Windows 7";"Rachel's Experiment (DP)";"1.0";"3";"1";"1";"3";"1";"1";"2015-02-23 15:44:04.281";"2015-02-23 16:12:01.690";"1";"2";"0";"142";"141";"module.training_block4.exec-4395.GoNoGo4";;;;;;;;;;;;;;;;;;;;;;;;;;;;;;;;;;;;;;;;;;;;;;;;;;;;;;;;;;;"1262";"2015-02-23 16:09:22.757";"NST_miss";"3";"1";"FINISHED";"NONE";"failure";"0";"0";"2015-02-23 16:09:21.493";"1";;;;;;;;;;;;;;;;;;;;;
"bbb";;;"Windows 7";"Rachel's Experiment (DP)";"1.0";"3";"1";"1";"3";"1";"1";"2015-02-23 15:44:04.281";"2015-02-23 16:12:01.690";"1";"2";"0";"143";"142";"module.training_block4.exec-4395.GoNoGo4";;;;;;;;;;;;;;;;;;;;;;;;;;;;;;;;;;;;;;;;;;;;;;;;;;;;;;;;;;;"1262";"2015-02-23 16:09:25.284";"NST_miss";"9";"1";"FINISHED";"NONE";"failure";"0";"0";"2015-02-23 16:09:24.020";"2";;;;;;;;;;;;;;;;;;;;;
"bbb";;;"Windows 7";"Rachel's Experiment (DP)";"1.0";"3";"1";"1";"3";"1";"1";"2015-02-23 15:44:04.281";"2015-02-23 16:12:01.690";"1";"2";"0";"144";"143";"module.training_block4.exec-4395.GoNoGo4";;;;;;;;;;;;;;;;;;;;;;;;;;;;;;;;;;;;;;;;;;;;;;;;;;;;;;;;;;;"1262";"2015-02-23 16:09:27.811";"NST_miss";"12";"1";"FINISHED";"NONE";"failure";"0";"0";"2015-02-23 16:09:26.548";"2";;;;;;;;;;;;;;;;;;;;;
"bbb";;;"Windows 7";"Rachel's Experiment (DP)";"1.0";"3";"1";"1";"3";"1";"1";"2015-02-23 15:44:04.281";"2015-02-23 16:12:01.690";"1";"2";"0";"145";"144";"module.training_block4.exec-4395.GoNoGo4";;;;;;;;;;;;;;;;;;;;;;;;;;;;;;;;;;;;;;;;;;;;;;;;;;;;;;;;;;;"1262";"2015-02-23 16:09:30.338";"NST_miss";"6";"0";"FINISHED";"NONE";"failure";"0";"0";"2015-02-23 16:09:29.075";"1";;;;;;;;;;;;;;;;;;;;;
"bbb";;;"Windows 7";"Rachel's Experiment (DP)";"1.0";"3";"1";"1";"3";"1";"1";"2015-02-23 15:44:04.281";"2015-02-23 16:12:01.690";"1";"2";"0";"146";"145";"module.training_block4.exec-4395.GoNoGo4";;;;;;;;;;;;;;;;;;;;;;;;;;;;;;;;;;;;;;;;;;;;;;;;;;;;;;;;;;;"1262";"2015-02-23 16:09:32.866";"NST_miss";"8";"1";"FINISHED";"NONE";"failure";"0";"0";"2015-02-23 16:09:31.602";"1";;;;;;;;;;;;;;;;;;;;;
"bbb";;;"Windows 7";"Rachel's Experiment (DP)";"1.0";"3";"1";"1";"3";"1";"1";"2015-02-23 15:44:04.281";"2015-02-23 16:12:01.690";"1";"2";"0";"147";"146";"module.training_block4.exec-4395.GoNoGo4";;;;;;;;;;;;;;;;;;;;;;;;;;;;;;;;;;;;;;;;;;;;;;;;;;;;;;;;;;;"1262";"2015-02-23 16:09:35.408";"NST_miss";"10";"1";"FINISHED";"NONE";"failure";"0";"0";"2015-02-23 16:09:34.145";"2";;;;;;;;;;;;;;;;;;;;;
"bbb";;;"Windows 7";"Rachel's Experiment (DP)";"1.0";"3";"1";"1";"3";"1";"1";"2015-02-23 15:44:04.281";"2015-02-23 16:12:01.690";"1";"2";"0";"148";"147";"module.training_block4.exec-4395.GoNoGo4";;;;;;;;;;;;;;;;;;;;;;;;;;;;;;;;;;;;;;;;;;;;;;;;;;;;;;;;;;;"1262";"2015-02-23 16:09:37.936";"NST_miss";"14";"1";"FINISHED";"NONE";"failure";"0";"0";"2015-02-23 16:09:36.672";"2";;;;;;;;;;;;;;;;;;;;;
"bbb";;;"Windows 7";"Rachel's Experiment (DP)";"1.0";"3";"1";"1";"3";"1";"1";"2015-02-23 15:44:04.281";"2015-02-23 16:12:01.690";"1";"2";"0";"149";"148";"module.training_block4.exec-4395.GoNoGo4";;;;;;;;;;;;;;;;;;;;;;;;;;;;;;;;;;;;;;;;;;;;;;;;;;;;;;;;;;;"1262";"2015-02-23 16:09:40.478";"NST_miss";"13";"1";"FINISHED";"NONE";"failure";"0";"0";"2015-02-23 16:09:39.215";"2";;;;;;;;;;;;;;;;;;;;;
"bbb";;;"Windows 7";"Rachel's Experiment (DP)";"1.0";"3";"1";"1";"3";"1";"1";"2015-02-23 15:44:04.281";"2015-02-23 16:12:01.690";"1";"2";"0";"150";"149";"module.training_block4.exec-4395.GoNoGo4";;;;;;;;;;;;;;;;;;;;;;;;;;;;;;;;;;;;;;;;;;;;;;;;;;;;;;;;;;;"1262";"2015-02-23 16:09:43.021";"NST_miss";"34";"1";"FINISHED";"NONE";"failure";"0";"0";"2015-02-23 16:09:41.758";"3";;;;;;;;;;;;;;;;;;;;;
"bbb";;;"Windows 7";"Rachel's Experiment (DP)";"1.0";"3";"1";"1";"3";"1";"1";"2015-02-23 15:44:04.281";"2015-02-23 16:12:01.690";"1";"2";"0";"151";"150";"module.training_block4.exec-4395.GoNoGo4";;;;;;;;;;;;;;;;;;;;;;;;;;;;;;;;;;;;;;;;;;;;;;;;;;;;;;;;;;;"1262";"2015-02-23 16:09:45.548";"NST_miss";"24";"0";"FINISHED";"NONE";"failure";"0";"0";"2015-02-23 16:09:44.285";"3";;;;;;;;;;;;;;;;;;;;;
"bbb";;;"Windows 7";"Rachel's Experiment (DP)";"1.0";"3";"1";"1";"3";"1";"1";"2015-02-23 15:44:04.281";"2015-02-23 16:12:01.690";"1";"2";"0";"152";"151";"module.training_block4.exec-4395.GoNoGo4";;;;;;;;;;;;;;;;;;;;;;;;;;;;;;;;;;;;;;;;;;;;;;;;;;;;;;;;;;;"1262";"2015-02-23 16:09:48.091";"NST_miss";"21";"0";"FINISHED";"NONE";"failure";"0";"0";"2015-02-23 16:09:46.828";"3";;;;;;;;;;;;;;;;;;;;;
"bbb";;;"Windows 7";"Rachel's Experiment (DP)";"1.0";"3";"1";"1";"3";"1";"1";"2015-02-23 15:44:04.281";"2015-02-23 16:12:01.690";"1";"2";"0";"153";"152";"module.training_block4.exec-4395.GoNoGo4";;;;;;;;;;;;;;;;;;;;;;;;;;;;;;;;;;;;;;;;;;;;;;;;;;;;;;;;;;;"1262";"2015-02-23 16:09:50.618";"NST_miss";"25";"0";"FINISHED";"NONE";"failure";"0";"0";"2015-02-23 16:09:49.355";"3";;;;;;;;;;;;;;;;;;;;;
"bbb";;;"Windows 7";"Rachel's Experiment (DP)";"1.0";"3";"1";"1";"3";"1";"1";"2015-02-23 15:44:04.281";"2015-02-23 16:12:01.690";"1";"2";"0";"154";"153";"module.training_block4.exec-4395.GoNoGo4";;;;;;;;;;;;;;;;;;;;;;;;;;;;;;;;;;;;;;;;;;;;;;;;;;;;;;;;;;;"1262";"2015-02-23 16:09:53.161";"NST_miss";"23";"1";"FINISHED";"NONE";"failure";"0";"0";"2015-02-23 16:09:51.898";"3";;;;;;;;;;;;;;;;;;;;;
"bbb";;;"Windows 7";"Rachel's Experiment (DP)";"1.0";"3";"1";"1";"3";"1";"1";"2015-02-23 15:44:04.281";"2015-02-23 16:12:01.690";"1";"2";"0";"155";"154";"module.training_block4.exec-4395.GoNoGo4";;;;;;;;;;;;;;;;;;;;;;;;;;;;;;;;;;;;;;;;;;;;;;;;;;;;;;;;;;;"1262";"2015-02-23 16:09:55.688";"NST_miss";"27";"0";"FINISHED";"NONE";"failure";"0";"0";"2015-02-23 16:09:54.425";"3";;;;;;;;;;;;;;;;;;;;;
"bbb";;;"Windows 7";"Rachel's Experiment (DP)";"1.0";"3";"1";"1";"3";"1";"1";"2015-02-23 15:44:04.281";"2015-02-23 16:12:01.690";"1";"2";"0";"156";"155";"module.training_block4.exec-4395.GoNoGo4";;;;;;;;;;;;;;;;;;;;;;;;;;;;;;;;;;;;;;;;;;;;;;;;;;;;;;;;;;;"1262";"2015-02-23 16:09:58.216";"NST_miss";"31";"1";"FINISHED";"NONE";"failure";"0";"0";"2015-02-23 16:09:56.952";"3";;;;;;;;;;;;;;;;;;;;;
"bbb";;;"Windows 7";"Rachel's Experiment (DP)";"1.0";"3";"1";"1";"3";"1";"1";"2015-02-23 15:44:04.281";"2015-02-23 16:12:01.690";"1";"2";"0";"157";"156";"module.training_block4.exec-4395.GoNoGo4";;;;;;;;;;;;;;;;;;;;;;;;;;;;;;;;;;;;;;;;;;;;;;;;;;;;;;;;;;;"1262";"2015-02-23 16:10:00.758";"NST_miss";"35";"1";"FINISHED";"NONE";"failure";"0";"0";"2015-02-23 16:09:59.495";"3";;;;;;;;;;;;;;;;;;;;;
"bbb";;;"Windows 7";"Rachel's Experiment (DP)";"1.0";"3";"1";"1";"3";"1";"1";"2015-02-23 15:44:04.281";"2015-02-23 16:12:01.690";"1";"2";"0";"158";"157";"module.training_block4.exec-4395.GoNoGo4";;;;;;;;;;;;;;;;;;;;;;;;;;;;;;;;;;;;;;;;;;;;;;;;;;;;;;;;;;;"1262";"2015-02-23 16:10:03.286";"NST_miss";"11";"1";"FINISHED";"NONE";"failure";"0";"0";"2015-02-23 16:10:02.022";"2";;;;;;;;;;;;;;;;;;;;;
"bbb";;;"Windows 7";"Rachel's Experiment (DP)";"1.0";"3";"1";"1";"3";"1";"1";"2015-02-23 15:44:04.281";"2015-02-23 16:12:01.690";"1";"2";"0";"159";"158";"module.training_block4.exec-4395.GoNoGo4";;;;;;;;;;;;;;;;;;;;;;;;;;;;;;;;;;;;;;;;;;;;;;;;;;;;;;;;;;;"1262";"2015-02-23 16:10:05.813";"NST_miss";"20";"0";"FINISHED";"NONE";"failure";"0";"0";"2015-02-23 16:10:04.549";"3";;;;;;;;;;;;;;;;;;;;;
"bbb";;;"Windows 7";"Rachel's Experiment (DP)";"1.0";"3";"1";"1";"3";"1";"1";"2015-02-23 15:44:04.281";"2015-02-23 16:12:01.690";"1";"2";"0";"160";"159";"module.DP_Practice.exec-6372.DP_practice";;;;;;;;;;;;"3021";"2015-02-23 16:10:42.052";"FINISHED";"2";"NONE";"failure";"0";"2015-02-23 16:10:39.025";"250";"N8";"N7";;;;;;;;;;;;;;;;;;;;;;;;;;;;;;;;;;;;;;;;;;;;;;;;;;;;;;;;;;;;;;;;;;;;;
"bbb";;;"Windows 7";"Rachel's Experiment (DP)";"1.0";"3";"1";"1";"3";"1";"1";"2015-02-23 15:44:04.281";"2015-02-23 16:12:01.690";"1";"2";"0";"161";"160";"module.DP_Practice.exec-6372.DP_practice";;;;;;;;;;;;"3024";"2015-02-23 16:10:45.359";"FINISHED";"1";"NONE";"failure";"0";"2015-02-23 16:10:42.332";"250";"N9";"N10";;;;;;;;;;;;;;;;;;;;;;;;;;;;;;;;;;;;;;;;;;;;;;;;;;;;;;;;;;;;;;;;;;;;;
"bbb";;;"Windows 7";"Rachel's Experiment (DP)";"1.0";"3";"1";"1";"3";"1";"1";"2015-02-23 15:44:04.281";"2015-02-23 16:12:01.690";"1";"2";"0";"162";"161";"module.DP_Practice.exec-6372.DP_practice";;;;;;;;;;;;"3024";"2015-02-23 16:10:48.666";"FINISHED";"1";"NONE";"failure";"0";"2015-02-23 16:10:45.640";"250";"N12";"N11";;;;;;;;;;;;;;;;;;;;;;;;;;;;;;;;;;;;;;;;;;;;;;;;;;;;;;;;;;;;;;;;;;;;;
"bbb";;;"Windows 7";"Rachel's Experiment (DP)";"1.0";"3";"1";"1";"3";"1";"1";"2015-02-23 15:44:04.281";"2015-02-23 16:12:01.690";"1";"2";"0";"163";"162";"module.DP_Practice.exec-6372.DP_practice";;;;;;;;;;;;"3024";"2015-02-23 16:10:51.973";"FINISHED";"1";"NONE";"failure";"0";"2015-02-23 16:10:48.947";"250";"N5";"N6";;;;;;;;;;;;;;;;;;;;;;;;;;;;;;;;;;;;;;;;;;;;;;;;;;;;;;;;;;;;;;;;;;;;;
"bbb";;;"Windows 7";"Rachel's Experiment (DP)";"1.0";"3";"1";"1";"3";"1";"1";"2015-02-23 15:44:04.281";"2015-02-23 16:12:01.690";"1";"2";"0";"164";"163";"module.DP_Practice.exec-6372.DP_practice";;;;;;;;;;;;"3019";"2015-02-23 16:10:55.280";"FINISHED";"2";"NONE";"failure";"0";"2015-02-23 16:10:52.254";"250";"N20";"N19";;;;;;;;;;;;;;;;;;;;;;;;;;;;;;;;;;;;;;;;;;;;;;;;;;;;;;;;;;;;;;;;;;;;;
"bbb";;;"Windows 7";"Rachel's Experiment (DP)";"1.0";"3";"1";"1";"3";"1";"1";"2015-02-23 15:44:04.281";"2015-02-23 16:12:01.690";"1";"2";"0";"165";"164";"module.DP_Practice.exec-6372.DP_practice";;;;;;;;;;;;"3024";"2015-02-23 16:10:58.603";"FINISHED";"1";"NONE";"failure";"0";"2015-02-23 16:10:55.577";"250";"N17";"N18";;;;;;;;;;;;;;;;;;;;;;;;;;;;;;;;;;;;;;;;;;;;;;;;;;;;;;;;;;;;;;;;;;;;;
"bbb";;;"Windows 7";"Rachel's Experiment (DP)";"1.0";"3";"1";"1";"3";"1";"1";"2015-02-23 15:44:04.281";"2015-02-23 16:12:01.690";"1";"2";"0";"166";"165";"module.DP_Practice.exec-6372.DP_practice";;;;;;;;;;;;"3024";"2015-02-23 16:11:01.911";"FINISHED";"2";"NONE";"failure";"0";"2015-02-23 16:10:58.884";"250";"N14";"N13";;;;;;;;;;;;;;;;;;;;;;;;;;;;;;;;;;;;;;;;;;;;;;;;;;;;;;;;;;;;;;;;;;;;;
"bbb";;;"Windows 7";"Rachel's Experiment (DP)";"1.0";"3";"1";"1";"3";"1";"1";"2015-02-23 15:44:04.281";"2015-02-23 16:12:01.690";"1";"2";"0";"167";"166";"module.DP_Practice.exec-6372.DP_practice";;;;;;;;;;;;"3024";"2015-02-23 16:11:05.218";"FINISHED";"2";"NONE";"failure";"0";"2015-02-23 16:11:02.191";"250";"N15";"N16";;;;;;;;;;;;;;;;;;;;;;;;;;;;;;;;;;;;;;;;;;;;;;;;;;;;;;;;;;;;;;;;;;;;;
"bbb";;;"Windows 7";"Rachel's Experiment (DP)";"1.0";"3";"1";"1";"3";"1";"1";"2015-02-23 15:44:04.281";"2015-02-23 16:12:01.690";"1";"2";"0";"168";"167";"module.DP_Practice.exec-6372.DP_practice";;;;;;;;;;;;"3024";"2015-02-23 16:11:08.525";"FINISHED";"2";"NONE";"failure";"0";"2015-02-23 16:11:05.499";"250";"N3";"N4";;;;;;;;;;;;;;;;;;;;;;;;;;;;;;;;;;;;;;;;;;;;;;;;;;;;;;;;;;;;;;;;;;;;;
"bbb";;;"Windows 7";"Rachel's Experiment (DP)";"1.0";"3";"1";"1";"3";"1";"1";"2015-02-23 15:44:04.281";"2015-02-23 16:12:01.690";"1";"2";"0";"169";"168";"module.DP_Practice.exec-6372.DP_practice";;;;;;;;;;;;"3024";"2015-02-23 16:11:11.817";"FINISHED";"1";"NONE";"failure";"0";"2015-02-23 16:11:08.790";"250";"N6";"N5";;;;;;;;;;;;;;;;;;;;;;;;;;;;;;;;;;;;;;;;;;;;;;;;;;;;;;;;;;;;;;;;;;;;;
"bbb";;;"Windows 7";"Rachel's Experiment (DP)";"1.0";"3";"1";"1";"3";"1";"1";"2015-02-23 15:44:04.281";"2015-02-23 16:12:01.690";"1";"2";"0";"170";"169";"module.DP_Practice.exec-6372.DP_practice";;;;;;;;;;;;"3024";"2015-02-23 16:11:15.124";"FINISHED";"2";"NONE";"failure";"0";"2015-02-23 16:11:12.097";"250";"N1";"N2";;;;;;;;;;;;;;;;;;;;;;;;;;;;;;;;;;;;;;;;;;;;;;;;;;;;;;;;;;;;;;;;;;;;;
"bbb";;;"Windows 7";"Rachel's Experiment (DP)";"1.0";"3";"1";"1";"3";"1";"1";"2015-02-23 15:44:04.281";"2015-02-23 16:12:01.690";"1";"2";"0";"171";"170";"module.DP_Practice.exec-6372.DP_practice";;;;;;;;;;;;"3024";"2015-02-23 16:11:18.431";"FINISHED";"1";"NONE";"failure";"0";"2015-02-23 16:11:15.405";"250";"N16";"N15";;;;;;;;;;;;;;;;;;;;;;;;;;;;;;;;;;;;;;;;;;;;;;;;;;;;;;;;;;;;;;;;;;;;;
"bbb";;;"Windows 7";"Rachel's Experiment (DP)";"1.0";"3";"1";"1";"3";"1";"1";"2015-02-23 15:44:04.281";"2015-02-23 16:12:01.690";"1";"2";"0";"172";"171";"module.DP_Practice.exec-6372.DP_practice";;;;;;;;;;;;"3024";"2015-02-23 16:11:21.738";"FINISHED";"1";"NONE";"failure";"0";"2015-02-23 16:11:18.712";"250";"N11";"N12";;;;;;;;;;;;;;;;;;;;;;;;;;;;;;;;;;;;;;;;;;;;;;;;;;;;;;;;;;;;;;;;;;;;;
"bbb";;;"Windows 7";"Rachel's Experiment (DP)";"1.0";"3";"1";"1";"3";"1";"1";"2015-02-23 15:44:04.281";"2015-02-23 16:12:01.690";"1";"2";"0";"173";"172";"module.DP_Practice.exec-6372.DP_practice";;;;;;;;;;;;"3024";"2015-02-23 16:11:25.045";"FINISHED";"2";"NONE";"failure";"0";"2015-02-23 16:11:22.019";"250";"N13";"N14";;;;;;;;;;;;;;;;;;;;;;;;;;;;;;;;;;;;;;;;;;;;;;;;;;;;;;;;;;;;;;;;;;;;;
"bbb";;;"Windows 7";"Rachel's Experiment (DP)";"1.0";"3";"1";"1";"3";"1";"1";"2015-02-23 15:44:04.281";"2015-02-23 16:12:01.690";"1";"2";"0";"174";"173";"module.DP_Practice.exec-6372.DP_practice";;;;;;;;;;;;"3024";"2015-02-23 16:11:28.337";"FINISHED";"2";"NONE";"failure";"0";"2015-02-23 16:11:25.311";"250";"N18";"N17";;;;;;;;;;;;;;;;;;;;;;;;;;;;;;;;;;;;;;;;;;;;;;;;;;;;;;;;;;;;;;;;;;;;;
"bbb";;;"Windows 7";"Rachel's Experiment (DP)";"1.0";"3";"1";"1";"3";"1";"1";"2015-02-23 15:44:04.281";"2015-02-23 16:12:01.690";"1";"2";"0";"175";"174";"module.DP_Practice.exec-6372.DP_practice";;;;;;;;;;;;"3024";"2015-02-23 16:11:31.644";"FINISHED";"2";"NONE";"failure";"0";"2015-02-23 16:11:28.618";"250";"N19";"N20";;;;;;;;;;;;;;;;;;;;;;;;;;;;;;;;;;;;;;;;;;;;;;;;;;;;;;;;;;;;;;;;;;;;;
"bbb";;;"Windows 7";"Rachel's Experiment (DP)";"1.0";"3";"1";"1";"3";"1";"1";"2015-02-23 15:44:04.281";"2015-02-23 16:12:01.690";"1";"2";"0";"176";"175";"module.DP_Practice.exec-6372.DP_practice";;;;;;;;;;;;"3024";"2015-02-23 16:11:34.936";"FINISHED";"1";"NONE";"failure";"0";"2015-02-23 16:11:31.909";"250";"N2";"N1";;;;;;;;;;;;;;;;;;;;;;;;;;;;;;;;;;;;;;;;;;;;;;;;;;;;;;;;;;;;;;;;;;;;;
"bbb";;;"Windows 7";"Rachel's Experiment (DP)";"1.0";"3";"1";"1";"3";"1";"1";"2015-02-23 15:44:04.281";"2015-02-23 16:12:01.690";"1";"2";"0";"177";"176";"module.DP_Practice.exec-6372.DP_practice";;;;;;;;;;;;"3024";"2015-02-23 16:11:38.243";"FINISHED";"1";"NONE";"failure";"0";"2015-02-23 16:11:35.217";"250";"N4";"N3";;;;;;;;;;;;;;;;;;;;;;;;;;;;;;;;;;;;;;;;;;;;;;;;;;;;;;;;;;;;;;;;;;;;;
"bbb";;;"Windows 7";"Rachel's Experiment (DP)";"1.0";"3";"1";"1";"3";"1";"1";"2015-02-23 15:44:04.281";"2015-02-23 16:12:01.690";"1";"2";"0";"178";"177";"module.DP_Practice.exec-6372.DP_practice";;;;;;;;;;;;"3024";"2015-02-23 16:11:41.535";"FINISHED";"1";"NONE";"failure";"0";"2015-02-23 16:11:38.508";"250";"N10";"N9";;;;;;;;;;;;;;;;;;;;;;;;;;;;;;;;;;;;;;;;;;;;;;;;;;;;;;;;;;;;;;;;;;;;;
"bbb";;;"Windows 7";"Rachel's Experiment (DP)";"1.0";"3";"1";"1";"3";"1";"1";"2015-02-23 15:44:04.281";"2015-02-23 16:12:01.690";"1";"2";"0";"179";"178";"module.DP_Practice.exec-6372.DP_practice";;;;;;;;;;;;"3024";"2015-02-23 16:11:44.842";"FINISHED";"2";"NONE";"failure";"0";"2015-02-23 16:11:41.815";"250";"N7";"N8";;;;;;;;;;;;;;;;;;;;;;;;;;;;;;;;;;;;;;;;;;;;;;;;;;;;;;;;;;;;;;;;;;;;;
"bbb";;;"Windows 7";"Rachel's Experiment (DP)";"1.0";"3";"1";"1";"3";"1";"1";"2015-02-23 15:44:04.281";"2015-02-23 16:12:01.690";"1";"2";"0";"180";"179";"module.DP_Block1.exec-8976.DP_block1";"2010";"2015-02-23 16:11:57.197";"FINISHED";"2";"NONE";"failure";"0";"2015-02-23 16:11:55.185";"100";"F0";"NF0";;;;;;;;;;;;;;;;;;;;;;;;;;;;;;;;;;;;;;;;;;;;;;;;;;;;;;;;;;;;;;;;;;;;;;;;;;;;;;;;
"bbb";;;"Windows 7";"Rachel's Experiment (DP)";"1.0";"3";"1";"1";"3";"1";"1";"2015-02-23 15:44:04.281";"2015-02-23 16:12:01.690";"1";"2";"0";"181";"180";"module.DP_Block1.exec-8976.DP_block1";"2010";"2015-02-23 16:12:00.364";"FINISHED";"1";"NONE";"failure";"0";"2015-02-23 16:11:58.351";"100";"F8";"NF8";;;;;;;;;;;;;;;;;;;;;;;;;;;;;;;;;;;;;;;;;;;;;;;;;;;;;;;;;;;;;;;;;;;;;;;;;;;;;;;;
"bbb";;;"Windows 7";"Rachel's Experiment (DP)";"1.0";"3";"1";"1";"3";"1";"1";"2015-02-23 15:44:04.281";"2015-02-23 16:12:01.690";"1";"2";"0";"182";"181";"module.DP_Block1.exec-8976.DP_block1";;;;;;;;;;;;;;;;;;;;;;;;;;;;;;;;;;;;;;;;;;;;;;;;;;;;;;;;;;;;;;;;;;;;;;;;;;;;;;;;;;;;;;;;;;;
