"user.name";"user.yearOfBirth";"user.sex";"user.osName";"module.name";"module.version";"module.online.subject.code";"module.online.study.id";"module.online.module.nr";"module.online.group.nr";"session.id";"session.index";"session.startTime";"session.endTime";"session.completed";"session.node-2099.conditionType";"session.node-8478.DPorder";"trial.id";"trial.index";"trial.name";"trial.DP_practice.durationTime";"trial.DP_practice.endTime";"trial.DP_practice.outcome";"trial.DP_practice.probeLoc";"trial.DP_practice.response";"trial.DP_practice.result";"trial.DP_practice.RT";"trial.DP_practice.startTime";"trial.DP_practice.stimDuration";"trial.DP_practice.wordLeft";"trial.DP_practice.wordRight";"trial.GoNoGo1.durationTime";"trial.GoNoGo1.endTime";"trial.GoNoGo1.Error Type";"trial.GoNoGo1.icon";"trial.GoNoGo1.location";"trial.GoNoGo1.outcome";"trial.GoNoGo1.response";"trial.GoNoGo1.result";"trial.GoNoGo1.RT";"trial.GoNoGo1.signal";"trial.GoNoGo1.startTime";"trial.GoNoGo1.stimulus type";"trial.GoNoGo2.durationTime";"trial.GoNoGo2.endTime";"trial.GoNoGo2.Error Type";"trial.GoNoGo2.icon";"trial.GoNoGo2.location";"trial.GoNoGo2.outcome";"trial.GoNoGo2.response";"trial.GoNoGo2.result";"trial.GoNoGo2.RT";"trial.GoNoGo2.signal";"trial.GoNoGo2.startTime";"trial.GoNoGo2.stimulus type";"trial.GoNoGo3.durationTime";"trial.GoNoGo3.endTime";"trial.GoNoGo3.Error Type";"trial.GoNoGo3.icon";"trial.GoNoGo3.location";"trial.GoNoGo3.outcome";"trial.GoNoGo3.response";"trial.GoNoGo3.result";"trial.GoNoGo3.RT";"trial.GoNoGo3.signal";"trial.GoNoGo3.startTime";"trial.GoNoGo3.stimulus type";"trial.GoNoGo4.durationTime";"trial.GoNoGo4.endTime";"trial.GoNoGo4.Error Type";"trial.GoNoGo4.icon";"trial.GoNoGo4.location";"trial.GoNoGo4.outcome";"trial.GoNoGo4.response";"trial.GoNoGo4.result";"trial.GoNoGo4.RT";"trial.GoNoGo4.signal";"trial.GoNoGo4.startTime";"trial.GoNoGo4.stimulus type";"trial.GoNoGo_Practice.durationTime";"trial.GoNoGo_Practice.endTime";"trial.GoNoGo_Practice.icon";"trial.GoNoGo_Practice.location";"trial.GoNoGo_Practice.outcome";"trial.GoNoGo_Practice.response";"trial.GoNoGo_Practice.result";"trial.GoNoGo_Practice.RT";"trial.GoNoGo_Practice.signal";"trial.GoNoGo_Practice.startTime";"trial.GoNoGo_Practice.stimulus type";"trial.GoNoGo_Tutorial.durationTime";"trial.GoNoGo_Tutorial.endTime";"trial.GoNoGo_Tutorial.icon";"trial.GoNoGo_Tutorial.location";"trial.GoNoGo_Tutorial.outcome";"trial.GoNoGo_Tutorial.response";"trial.GoNoGo_Tutorial.result";"trial.GoNoGo_Tutorial.RT";"trial.GoNoGo_Tutorial.signal";"trial.GoNoGo_Tutorial.startTime"
"p1a2r3i4s5";"1992";;"Windows 7";"Rachel's Experiment (DP)";"1.0";"3";"1";"1";"3";"1";"1";"2015-02-12 19:38:58.220";"2015-02-12 19:51:08.988";"1";"0";"2";"1";"0";"module.GoNoGotutorial.exec-6639.GoNoGo_Tutorial";;;;;;;;;;;;;;;;;;;;;;;;;;;;;;;;;;;;;;;;;;;;;;;;;;;;;;;;;;;;;;;;;;;;;;;"4004";"2015-02-12 19:39:56.340";"leftResponse";"0";"FINISHED";"LEFT";"success";"557";"0";"2015-02-12 19:39:52.334"
"p1a2r3i4s5";"1992";;"Windows 7";"Rachel's Experiment (DP)";"1.0";"3";"1";"1";"3";"1";"1";"2015-02-12 19:38:58.220";"2015-02-12 19:51:08.988";"1";"0";"2";"2";"1";"module.GoNoGotutorial.exec-6639.GoNoGo_Tutorial";;;;;;;;;;;;;;;;;;;;;;;;;;;;;;;;;;;;;;;;;;;;;;;;;;;;;;;;;;;;;;;;;;;;;;;"3999";"2015-02-12 19:40:01.724";"rightResponse";"1";"FINISHED";"RIGHT";"success";"556";"0";"2015-02-12 19:39:57.724"
"p1a2r3i4s5";"1992";;"Windows 7";"Rachel's Experiment (DP)";"1.0";"3";"1";"1";"3";"1";"1";"2015-02-12 19:38:58.220";"2015-02-12 19:51:08.988";"1";"0";"2";"3";"2";"module.GoNoGotutorial.exec-6639.GoNoGo_Tutorial";;;;;;;;;;;;;;;;;;;;;;;;;;;;;;;;;;;;;;;;;;;;;;;;;;;;;;;;;;;;;;;;;;;;;;;"3999";"2015-02-12 19:40:07.073";"quickResponse";"0";"FINISHED";"LEFT";"success";"3631";"0";"2015-02-12 19:40:03.073"
"p1a2r3i4s5";"1992";;"Windows 7";"Rachel's Experiment (DP)";"1.0";"3";"1";"1";"3";"1";"1";"2015-02-12 19:38:58.220";"2015-02-12 19:51:08.988";"1";"0";"2";"4";"3";"module.GoNoGopractice.exec-8705.GoNoGo_Practice";;;;;;;;;;;;;;;;;;;;;;;;;;;;;;;;;;;;;;;;;;;;;;;;;;;;;;;;;;;;"2004";"2015-02-12 19:40:16.558";"18";"0";"FINISHED";"LEFT";"success";"321";"0";"2015-02-12 19:40:14.554";"3";;;;;;;;;;
"p1a2r3i4s5";"1992";;"Windows 7";"Rachel's Experiment (DP)";"1.0";"3";"1";"1";"3";"1";"1";"2015-02-12 19:38:58.220";"2015-02-12 19:51:08.988";"1";"0";"2";"5";"4";"module.GoNoGopractice.exec-8705.GoNoGo_Practice";;;;;;;;;;;;;;;;;;;;;;;;;;;;;;;;;;;;;;;;;;;;;;;;;;;;;;;;;;;;"1954";"2015-02-12 19:40:19.851";"21";"1";"FINISHED";"RIGHT";"success";"305";"0";"2015-02-12 19:40:17.896";"3";;;;;;;;;;
"p1a2r3i4s5";"1992";;"Windows 7";"Rachel's Experiment (DP)";"1.0";"3";"1";"1";"3";"1";"1";"2015-02-12 19:38:58.220";"2015-02-12 19:51:08.988";"1";"0";"2";"6";"5";"module.GoNoGopractice.exec-8705.GoNoGo_Practice";;;;;;;;;;;;;;;;;;;;;;;;;;;;;;;;;;;;;;;;;;;;;;;;;;;;;;;;;;;;"1954";"2015-02-12 19:40:23.136";"14";"1";"FINISHED";"RIGHT";"success";"318";"0";"2015-02-12 19:40:21.181";"2";;;;;;;;;;
"p1a2r3i4s5";"1992";;"Windows 7";"Rachel's Experiment (DP)";"1.0";"3";"1";"1";"3";"1";"1";"2015-02-12 19:38:58.220";"2015-02-12 19:51:08.988";"1";"0";"2";"7";"6";"module.GoNoGopractice.exec-8705.GoNoGo_Practice";;;;;;;;;;;;;;;;;;;;;;;;;;;;;;;;;;;;;;;;;;;;;;;;;;;;;;;;;;;;"1953";"2015-02-12 19:40:26.405";"26";"0";"FINISHED";"LEFT";"success";"301";"0";"2015-02-12 19:40:24.452";"3";;;;;;;;;;
"p1a2r3i4s5";"1992";;"Windows 7";"Rachel's Experiment (DP)";"1.0";"3";"1";"1";"3";"1";"1";"2015-02-12 19:38:58.220";"2015-02-12 19:51:08.988";"1";"0";"2";"8";"7";"module.GoNoGopractice.exec-8705.GoNoGo_Practice";;;;;;;;;;;;;;;;;;;;;;;;;;;;;;;;;;;;;;;;;;;;;;;;;;;;;;;;;;;;"1954";"2015-02-12 19:40:29.698";"2";"0";"FINISHED";"LEFT";"success";"314";"0";"2015-02-12 19:40:27.744";"1";;;;;;;;;;
"p1a2r3i4s5";"1992";;"Windows 7";"Rachel's Experiment (DP)";"1.0";"3";"1";"1";"3";"1";"1";"2015-02-12 19:38:58.220";"2015-02-12 19:51:08.988";"1";"0";"2";"9";"8";"module.GoNoGopractice.exec-8705.GoNoGo_Practice";;;;;;;;;;;;;;;;;;;;;;;;;;;;;;;;;;;;;;;;;;;;;;;;;;;;;;;;;;;;"1955";"2015-02-12 19:40:32.966";"30";"0";"FINISHED";"LEFT";"success";"332";"0";"2015-02-12 19:40:31.011";"3";;;;;;;;;;
"p1a2r3i4s5";"1992";;"Windows 7";"Rachel's Experiment (DP)";"1.0";"3";"1";"1";"3";"1";"1";"2015-02-12 19:38:58.220";"2015-02-12 19:51:08.988";"1";"0";"2";"10";"9";"module.GoNoGopractice.exec-8705.GoNoGo_Practice";;;;;;;;;;;;;;;;;;;;;;;;;;;;;;;;;;;;;;;;;;;;;;;;;;;;;;;;;;;;"1953";"2015-02-12 19:40:36.262";"6";"1";"FINISHED";"RIGHT";"success";"304";"0";"2015-02-12 19:40:34.308";"1";;;;;;;;;;
"p1a2r3i4s5";"1992";;"Windows 7";"Rachel's Experiment (DP)";"1.0";"3";"1";"1";"3";"1";"1";"2015-02-12 19:38:58.220";"2015-02-12 19:51:08.988";"1";"0";"2";"11";"10";"module.GoNoGopractice.exec-8705.GoNoGo_Practice";;;;;;;;;;;;;;;;;;;;;;;;;;;;;;;;;;;;;;;;;;;;;;;;;;;;;;;;;;;;"1956";"2015-02-12 19:40:39.520";"34";"0";"FINISHED";"LEFT";"success";"276";"0";"2015-02-12 19:40:37.564";"3";;;;;;;;;;
"p1a2r3i4s5";"1992";;"Windows 7";"Rachel's Experiment (DP)";"1.0";"3";"1";"1";"3";"1";"1";"2015-02-12 19:38:58.220";"2015-02-12 19:51:08.988";"1";"0";"2";"12";"11";"module.GoNoGopractice.exec-8705.GoNoGo_Practice";;;;;;;;;;;;;;;;;;;;;;;;;;;;;;;;;;;;;;;;;;;;;;;;;;;;;;;;;;;;"1955";"2015-02-12 19:40:42.791";"23";"1";"FINISHED";"RIGHT";"success";"299";"0";"2015-02-12 19:40:40.835";"3";;;;;;;;;;
"p1a2r3i4s5";"1992";;"Windows 7";"Rachel's Experiment (DP)";"1.0";"3";"1";"1";"3";"1";"1";"2015-02-12 19:38:58.220";"2015-02-12 19:51:08.988";"1";"0";"2";"13";"12";"module.GoNoGopractice.exec-8705.GoNoGo_Practice";;;;;;;;;;;;;;;;;;;;;;;;;;;;;;;;;;;;;;;;;;;;;;;;;;;;;;;;;;;;"1957";"2015-02-12 19:40:46.075";"13";"0";"FINISHED";"LEFT";"success";"293";"0";"2015-02-12 19:40:44.118";"2";;;;;;;;;;
"p1a2r3i4s5";"1992";;"Windows 7";"Rachel's Experiment (DP)";"1.0";"3";"1";"1";"3";"1";"1";"2015-02-12 19:38:58.220";"2015-02-12 19:51:08.988";"1";"0";"2";"14";"13";"module.GoNoGopractice.exec-8705.GoNoGo_Practice";;;;;;;;;;;;;;;;;;;;;;;;;;;;;;;;;;;;;;;;;;;;;;;;;;;;;;;;;;;;"1955";"2015-02-12 19:40:49.333";"3";"1";"FINISHED";"RIGHT";"success";"291";"0";"2015-02-12 19:40:47.377";"1";;;;;;;;;;
"p1a2r3i4s5";"1992";;"Windows 7";"Rachel's Experiment (DP)";"1.0";"3";"1";"1";"3";"1";"1";"2015-02-12 19:38:58.220";"2015-02-12 19:51:08.988";"1";"0";"2";"15";"14";"module.GoNoGopractice.exec-8705.GoNoGo_Practice";;;;;;;;;;;;;;;;;;;;;;;;;;;;;;;;;;;;;;;;;;;;;;;;;;;;;;;;;;;;"2060";"2015-02-12 19:40:52.691";"27";"1";"FINISHED";"RIGHT";"success";"302";"0";"2015-02-12 19:40:50.631";"3";;;;;;;;;;
"p1a2r3i4s5";"1992";;"Windows 7";"Rachel's Experiment (DP)";"1.0";"3";"1";"1";"3";"1";"1";"2015-02-12 19:38:58.220";"2015-02-12 19:51:08.988";"1";"0";"2";"16";"15";"module.training_block1.exec-5772.GoNoGo1";;;;;;;;;;;;"1254";"2015-02-12 19:41:05.321";"NST_correctLoc";"1";"0";"FINISHED";"LEFT";"success";"320";"0";"2015-02-12 19:41:04.066";"1";;;;;;;;;;;;;;;;;;;;;;;;;;;;;;;;;;;;;;;;;;;;;;;;;;;;;;;;;
"p1a2r3i4s5";"1992";;"Windows 7";"Rachel's Experiment (DP)";"1.0";"3";"1";"1";"3";"1";"1";"2015-02-12 19:38:58.220";"2015-02-12 19:51:08.988";"1";"0";"2";"17";"16";"module.training_block1.exec-5772.GoNoGo1";;;;;;;;;;;;"1249";"2015-02-12 19:41:07.884";"NST_correctLoc";"31";"0";"FINISHED";"LEFT";"success";"337";"0";"2015-02-12 19:41:06.634";"3";;;;;;;;;;;;;;;;;;;;;;;;;;;;;;;;;;;;;;;;;;;;;;;;;;;;;;;;;
"p1a2r3i4s5";"1992";;"Windows 7";"Rachel's Experiment (DP)";"1.0";"3";"1";"1";"3";"1";"1";"2015-02-12 19:38:58.220";"2015-02-12 19:51:08.988";"1";"0";"2";"18";"17";"module.training_block1.exec-5772.GoNoGo1";;;;;;;;;;;;"1249";"2015-02-12 19:41:10.467";"NST_correctLoc";"10";"1";"FINISHED";"RIGHT";"success";"286";"0";"2015-02-12 19:41:09.217";"2";;;;;;;;;;;;;;;;;;;;;;;;;;;;;;;;;;;;;;;;;;;;;;;;;;;;;;;;;
"p1a2r3i4s5";"1992";;"Windows 7";"Rachel's Experiment (DP)";"1.0";"3";"1";"1";"3";"1";"1";"2015-02-12 19:38:58.220";"2015-02-12 19:51:08.988";"1";"0";"2";"19";"18";"module.training_block1.exec-5772.GoNoGo1";;;;;;;;;;;;"1250";"2015-02-12 19:41:13.054";"NST_correctLoc";"12";"1";"FINISHED";"RIGHT";"success";"308";"0";"2015-02-12 19:41:11.804";"2";;;;;;;;;;;;;;;;;;;;;;;;;;;;;;;;;;;;;;;;;;;;;;;;;;;;;;;;;
"p1a2r3i4s5";"1992";;"Windows 7";"Rachel's Experiment (DP)";"1.0";"3";"1";"1";"3";"1";"1";"2015-02-12 19:38:58.220";"2015-02-12 19:51:08.988";"1";"0";"2";"20";"19";"module.training_block1.exec-5772.GoNoGo1";;;;;;;;;;;;"1249";"2015-02-12 19:41:15.608";"NST_correctLoc";"9";"0";"FINISHED";"LEFT";"success";"241";"0";"2015-02-12 19:41:14.358";"2";;;;;;;;;;;;;;;;;;;;;;;;;;;;;;;;;;;;;;;;;;;;;;;;;;;;;;;;;
"p1a2r3i4s5";"1992";;"Windows 7";"Rachel's Experiment (DP)";"1.0";"3";"1";"1";"3";"1";"1";"2015-02-12 19:38:58.220";"2015-02-12 19:51:08.988";"1";"0";"2";"21";"20";"module.training_block1.exec-5772.GoNoGo1";;;;;;;;;;;;"1249";"2015-02-12 19:41:18.166";"NST_correctLoc";"18";"0";"FINISHED";"LEFT";"success";"290";"0";"2015-02-12 19:41:16.916";"3";;;;;;;;;;;;;;;;;;;;;;;;;;;;;;;;;;;;;;;;;;;;;;;;;;;;;;;;;
"p1a2r3i4s5";"1992";;"Windows 7";"Rachel's Experiment (DP)";"1.0";"3";"1";"1";"3";"1";"1";"2015-02-12 19:38:58.220";"2015-02-12 19:51:08.988";"1";"0";"2";"22";"21";"module.training_block1.exec-5772.GoNoGo1";;;;;;;;;;;;"1250";"2015-02-12 19:41:20.726";"NST_correctLoc";"35";"0";"FINISHED";"LEFT";"success";"292";"0";"2015-02-12 19:41:19.476";"3";;;;;;;;;;;;;;;;;;;;;;;;;;;;;;;;;;;;;;;;;;;;;;;;;;;;;;;;;
"p1a2r3i4s5";"1992";;"Windows 7";"Rachel's Experiment (DP)";"1.0";"3";"1";"1";"3";"1";"1";"2015-02-12 19:38:58.220";"2015-02-12 19:51:08.988";"1";"0";"2";"23";"22";"module.training_block1.exec-5772.GoNoGo1";;;;;;;;;;;;"1249";"2015-02-12 19:41:23.287";"NST_correctLoc";"34";"1";"FINISHED";"RIGHT";"success";"297";"0";"2015-02-12 19:41:22.036";"3";;;;;;;;;;;;;;;;;;;;;;;;;;;;;;;;;;;;;;;;;;;;;;;;;;;;;;;;;
"p1a2r3i4s5";"1992";;"Windows 7";"Rachel's Experiment (DP)";"1.0";"3";"1";"1";"3";"1";"1";"2015-02-12 19:38:58.220";"2015-02-12 19:51:08.988";"1";"0";"2";"24";"23";"module.training_block1.exec-5772.GoNoGo1";;;;;;;;;;;;"1249";"2015-02-12 19:41:25.943";"NST_correctLoc";"11";"0";"FINISHED";"LEFT";"success";"288";"0";"2015-02-12 19:41:24.693";"2";;;;;;;;;;;;;;;;;;;;;;;;;;;;;;;;;;;;;;;;;;;;;;;;;;;;;;;;;
"p1a2r3i4s5";"1992";;"Windows 7";"Rachel's Experiment (DP)";"1.0";"3";"1";"1";"3";"1";"1";"2015-02-12 19:38:58.220";"2015-02-12 19:51:08.988";"1";"0";"2";"25";"24";"module.training_block1.exec-5772.GoNoGo1";;;;;;;;;;;;"1250";"2015-02-12 19:41:28.530";"NST_correctLoc";"4";"1";"FINISHED";"RIGHT";"success";"262";"0";"2015-02-12 19:41:27.280";"1";;;;;;;;;;;;;;;;;;;;;;;;;;;;;;;;;;;;;;;;;;;;;;;;;;;;;;;;;
"p1a2r3i4s5";"1992";;"Windows 7";"Rachel's Experiment (DP)";"1.0";"3";"1";"1";"3";"1";"1";"2015-02-12 19:38:58.220";"2015-02-12 19:51:08.988";"1";"0";"2";"26";"25";"module.training_block1.exec-5772.GoNoGo1";;;;;;;;;;;;"1250";"2015-02-12 19:41:31.087";"NST_correctLoc";"26";"1";"FINISHED";"RIGHT";"success";"274";"0";"2015-02-12 19:41:29.837";"3";;;;;;;;;;;;;;;;;;;;;;;;;;;;;;;;;;;;;;;;;;;;;;;;;;;;;;;;;
"p1a2r3i4s5";"1992";;"Windows 7";"Rachel's Experiment (DP)";"1.0";"3";"1";"1";"3";"1";"1";"2015-02-12 19:38:58.220";"2015-02-12 19:51:08.988";"1";"0";"2";"27";"26";"module.training_block1.exec-5772.GoNoGo1";;;;;;;;;;;;"1249";"2015-02-12 19:41:33.643";"NST_correctLoc";"7";"1";"FINISHED";"RIGHT";"success";"293";"0";"2015-02-12 19:41:32.393";"1";;;;;;;;;;;;;;;;;;;;;;;;;;;;;;;;;;;;;;;;;;;;;;;;;;;;;;;;;
"p1a2r3i4s5";"1992";;"Windows 7";"Rachel's Experiment (DP)";"1.0";"3";"1";"1";"3";"1";"1";"2015-02-12 19:38:58.220";"2015-02-12 19:51:08.988";"1";"0";"2";"28";"27";"module.training_block1.exec-5772.GoNoGo1";;;;;;;;;;;;"1249";"2015-02-12 19:41:36.199";"NST_correctLoc";"14";"0";"FINISHED";"LEFT";"success";"269";"0";"2015-02-12 19:41:34.949";"2";;;;;;;;;;;;;;;;;;;;;;;;;;;;;;;;;;;;;;;;;;;;;;;;;;;;;;;;;
"p1a2r3i4s5";"1992";;"Windows 7";"Rachel's Experiment (DP)";"1.0";"3";"1";"1";"3";"1";"1";"2015-02-12 19:38:58.220";"2015-02-12 19:51:08.988";"1";"0";"2";"29";"28";"module.training_block1.exec-5772.GoNoGo1";;;;;;;;;;;;"1249";"2015-02-12 19:41:38.756";"NST_correctLoc";"25";"1";"FINISHED";"RIGHT";"success";"275";"0";"2015-02-12 19:41:37.506";"3";;;;;;;;;;;;;;;;;;;;;;;;;;;;;;;;;;;;;;;;;;;;;;;;;;;;;;;;;
"p1a2r3i4s5";"1992";;"Windows 7";"Rachel's Experiment (DP)";"1.0";"3";"1";"1";"3";"1";"1";"2015-02-12 19:38:58.220";"2015-02-12 19:51:08.988";"1";"0";"2";"30";"29";"module.training_block1.exec-5772.GoNoGo1";;;;;;;;;;;;"1252";"2015-02-12 19:41:41.313";"NST_correctLoc";"8";"0";"FINISHED";"LEFT";"success";"260";"0";"2015-02-12 19:41:40.061";"1";;;;;;;;;;;;;;;;;;;;;;;;;;;;;;;;;;;;;;;;;;;;;;;;;;;;;;;;;
"p1a2r3i4s5";"1992";;"Windows 7";"Rachel's Experiment (DP)";"1.0";"3";"1";"1";"3";"1";"1";"2015-02-12 19:38:58.220";"2015-02-12 19:51:08.988";"1";"0";"2";"31";"30";"module.training_block1.exec-5772.GoNoGo1";;;;;;;;;;;;"1249";"2015-02-12 19:41:43.885";"NST_wrongLoc";"21";"1";"FINISHED";"LEFT";"failure";"318";"0";"2015-02-12 19:41:42.635";"3";;;;;;;;;;;;;;;;;;;;;;;;;;;;;;;;;;;;;;;;;;;;;;;;;;;;;;;;;
"p1a2r3i4s5";"1992";;"Windows 7";"Rachel's Experiment (DP)";"1.0";"3";"1";"1";"3";"1";"1";"2015-02-12 19:38:58.220";"2015-02-12 19:51:08.988";"1";"0";"2";"32";"31";"module.training_block1.exec-5772.GoNoGo1";;;;;;;;;;;;"1249";"2015-02-12 19:41:46.480";"NST_correctLoc";"5";"1";"FINISHED";"RIGHT";"success";"297";"0";"2015-02-12 19:41:45.230";"1";;;;;;;;;;;;;;;;;;;;;;;;;;;;;;;;;;;;;;;;;;;;;;;;;;;;;;;;;
"p1a2r3i4s5";"1992";;"Windows 7";"Rachel's Experiment (DP)";"1.0";"3";"1";"1";"3";"1";"1";"2015-02-12 19:38:58.220";"2015-02-12 19:51:08.988";"1";"0";"2";"33";"32";"module.training_block1.exec-5772.GoNoGo1";;;;;;;;;;;;"1250";"2015-02-12 19:41:49.031";"NST_correctLoc";"24";"0";"FINISHED";"LEFT";"success";"251";"0";"2015-02-12 19:41:47.780";"3";;;;;;;;;;;;;;;;;;;;;;;;;;;;;;;;;;;;;;;;;;;;;;;;;;;;;;;;;
"p1a2r3i4s5";"1992";;"Windows 7";"Rachel's Experiment (DP)";"1.0";"3";"1";"1";"3";"1";"1";"2015-02-12 19:38:58.220";"2015-02-12 19:51:08.988";"1";"0";"2";"34";"33";"module.training_block1.exec-5772.GoNoGo1";;;;;;;;;;;;"1249";"2015-02-12 19:41:51.586";"NST_correctLoc";"32";"1";"FINISHED";"RIGHT";"success";"252";"0";"2015-02-12 19:41:50.336";"3";;;;;;;;;;;;;;;;;;;;;;;;;;;;;;;;;;;;;;;;;;;;;;;;;;;;;;;;;
"p1a2r3i4s5";"1992";;"Windows 7";"Rachel's Experiment (DP)";"1.0";"3";"1";"1";"3";"1";"1";"2015-02-12 19:38:58.220";"2015-02-12 19:51:08.988";"1";"0";"2";"35";"34";"module.training_block1.exec-5772.GoNoGo1";;;;;;;;;;;;"1250";"2015-02-12 19:41:54.141";"NST_correctLoc";"23";"0";"FINISHED";"LEFT";"success";"254";"0";"2015-02-12 19:41:52.891";"3";;;;;;;;;;;;;;;;;;;;;;;;;;;;;;;;;;;;;;;;;;;;;;;;;;;;;;;;;
"p1a2r3i4s5";"1992";;"Windows 7";"Rachel's Experiment (DP)";"1.0";"3";"1";"1";"3";"1";"1";"2015-02-12 19:38:58.220";"2015-02-12 19:51:08.988";"1";"0";"2";"36";"35";"module.training_block1.exec-5772.GoNoGo1";;;;;;;;;;;;"1249";"2015-02-12 19:41:56.730";"NST_correctLoc";"15";"1";"FINISHED";"RIGHT";"success";"236";"0";"2015-02-12 19:41:55.480";"2";;;;;;;;;;;;;;;;;;;;;;;;;;;;;;;;;;;;;;;;;;;;;;;;;;;;;;;;;
"p1a2r3i4s5";"1992";;"Windows 7";"Rachel's Experiment (DP)";"1.0";"3";"1";"1";"3";"1";"1";"2015-02-12 19:38:58.220";"2015-02-12 19:51:08.988";"1";"0";"2";"37";"36";"module.training_block1.exec-5772.GoNoGo1";;;;;;;;;;;;"1249";"2015-02-12 19:41:59.271";"NST_correctLoc";"13";"0";"FINISHED";"LEFT";"success";"291";"0";"2015-02-12 19:41:58.021";"2";;;;;;;;;;;;;;;;;;;;;;;;;;;;;;;;;;;;;;;;;;;;;;;;;;;;;;;;;
"p1a2r3i4s5";"1992";;"Windows 7";"Rachel's Experiment (DP)";"1.0";"3";"1";"1";"3";"1";"1";"2015-02-12 19:38:58.220";"2015-02-12 19:51:08.988";"1";"0";"2";"38";"37";"module.training_block1.exec-5772.GoNoGo1";;;;;;;;;;;;"1249";"2015-02-12 19:42:01.852";"NST_correctLoc";"16";"1";"FINISHED";"RIGHT";"success";"283";"0";"2015-02-12 19:42:00.602";"2";;;;;;;;;;;;;;;;;;;;;;;;;;;;;;;;;;;;;;;;;;;;;;;;;;;;;;;;;
"p1a2r3i4s5";"1992";;"Windows 7";"Rachel's Experiment (DP)";"1.0";"3";"1";"1";"3";"1";"1";"2015-02-12 19:38:58.220";"2015-02-12 19:51:08.988";"1";"0";"2";"39";"38";"module.training_block1.exec-5772.GoNoGo1";;;;;;;;;;;;"1249";"2015-02-12 19:42:04.398";"NST_correctLoc";"22";"0";"FINISHED";"LEFT";"success";"256";"0";"2015-02-12 19:42:03.148";"3";;;;;;;;;;;;;;;;;;;;;;;;;;;;;;;;;;;;;;;;;;;;;;;;;;;;;;;;;
"p1a2r3i4s5";"1992";;"Windows 7";"Rachel's Experiment (DP)";"1.0";"3";"1";"1";"3";"1";"1";"2015-02-12 19:38:58.220";"2015-02-12 19:51:08.988";"1";"0";"2";"40";"39";"module.training_block1.exec-5772.GoNoGo1";;;;;;;;;;;;"1249";"2015-02-12 19:42:06.950";"NST_correctLoc";"30";"0";"FINISHED";"LEFT";"success";"304";"0";"2015-02-12 19:42:05.700";"3";;;;;;;;;;;;;;;;;;;;;;;;;;;;;;;;;;;;;;;;;;;;;;;;;;;;;;;;;
"p1a2r3i4s5";"1992";;"Windows 7";"Rachel's Experiment (DP)";"1.0";"3";"1";"1";"3";"1";"1";"2015-02-12 19:38:58.220";"2015-02-12 19:51:08.988";"1";"0";"2";"41";"40";"module.training_block1.exec-5772.GoNoGo1";;;;;;;;;;;;"1249";"2015-02-12 19:42:09.510";"NST_correctLoc";"28";"0";"FINISHED";"LEFT";"success";"269";"0";"2015-02-12 19:42:08.260";"3";;;;;;;;;;;;;;;;;;;;;;;;;;;;;;;;;;;;;;;;;;;;;;;;;;;;;;;;;
"p1a2r3i4s5";"1992";;"Windows 7";"Rachel's Experiment (DP)";"1.0";"3";"1";"1";"3";"1";"1";"2015-02-12 19:38:58.220";"2015-02-12 19:51:08.988";"1";"0";"2";"42";"41";"module.training_block1.exec-5772.GoNoGo1";;;;;;;;;;;;"1249";"2015-02-12 19:42:12.056";"NST_correctLoc";"27";"1";"FINISHED";"RIGHT";"success";"338";"0";"2015-02-12 19:42:10.806";"3";;;;;;;;;;;;;;;;;;;;;;;;;;;;;;;;;;;;;;;;;;;;;;;;;;;;;;;;;
"p1a2r3i4s5";"1992";;"Windows 7";"Rachel's Experiment (DP)";"1.0";"3";"1";"1";"3";"1";"1";"2015-02-12 19:38:58.220";"2015-02-12 19:51:08.988";"1";"0";"2";"43";"42";"module.training_block1.exec-5772.GoNoGo1";;;;;;;;;;;;"1249";"2015-02-12 19:42:14.661";"NST_correctLoc";"0";"0";"FINISHED";"LEFT";"success";"300";"0";"2015-02-12 19:42:13.411";"1";;;;;;;;;;;;;;;;;;;;;;;;;;;;;;;;;;;;;;;;;;;;;;;;;;;;;;;;;
"p1a2r3i4s5";"1992";;"Windows 7";"Rachel's Experiment (DP)";"1.0";"3";"1";"1";"3";"1";"1";"2015-02-12 19:38:58.220";"2015-02-12 19:51:08.988";"1";"0";"2";"44";"43";"module.training_block1.exec-5772.GoNoGo1";;;;;;;;;;;;"1249";"2015-02-12 19:42:17.217";"NST_correctLoc";"19";"1";"FINISHED";"RIGHT";"success";"278";"0";"2015-02-12 19:42:15.967";"3";;;;;;;;;;;;;;;;;;;;;;;;;;;;;;;;;;;;;;;;;;;;;;;;;;;;;;;;;
"p1a2r3i4s5";"1992";;"Windows 7";"Rachel's Experiment (DP)";"1.0";"3";"1";"1";"3";"1";"1";"2015-02-12 19:38:58.220";"2015-02-12 19:51:08.988";"1";"0";"2";"45";"44";"module.training_block1.exec-5772.GoNoGo1";;;;;;;;;;;;"1249";"2015-02-12 19:42:19.765";"NST_correctLoc";"2";"0";"FINISHED";"LEFT";"success";"257";"0";"2015-02-12 19:42:18.515";"1";;;;;;;;;;;;;;;;;;;;;;;;;;;;;;;;;;;;;;;;;;;;;;;;;;;;;;;;;
"p1a2r3i4s5";"1992";;"Windows 7";"Rachel's Experiment (DP)";"1.0";"3";"1";"1";"3";"1";"1";"2015-02-12 19:38:58.220";"2015-02-12 19:51:08.988";"1";"0";"2";"46";"45";"module.training_block1.exec-5772.GoNoGo1";;;;;;;;;;;;"1250";"2015-02-12 19:42:22.315";"NST_correctLoc";"3";"1";"FINISHED";"RIGHT";"success";"271";"0";"2015-02-12 19:42:21.065";"1";;;;;;;;;;;;;;;;;;;;;;;;;;;;;;;;;;;;;;;;;;;;;;;;;;;;;;;;;
"p1a2r3i4s5";"1992";;"Windows 7";"Rachel's Experiment (DP)";"1.0";"3";"1";"1";"3";"1";"1";"2015-02-12 19:38:58.220";"2015-02-12 19:51:08.988";"1";"0";"2";"47";"46";"module.training_block1.exec-5772.GoNoGo1";;;;;;;;;;;;"1250";"2015-02-12 19:42:24.888";"NST_correctLoc";"20";"0";"FINISHED";"LEFT";"success";"279";"0";"2015-02-12 19:42:23.638";"3";;;;;;;;;;;;;;;;;;;;;;;;;;;;;;;;;;;;;;;;;;;;;;;;;;;;;;;;;
"p1a2r3i4s5";"1992";;"Windows 7";"Rachel's Experiment (DP)";"1.0";"3";"1";"1";"3";"1";"1";"2015-02-12 19:38:58.220";"2015-02-12 19:51:08.988";"1";"0";"2";"48";"47";"module.training_block1.exec-5772.GoNoGo1";;;;;;;;;;;;"1249";"2015-02-12 19:42:27.430";"NST_correctLoc";"6";"1";"FINISHED";"RIGHT";"success";"275";"0";"2015-02-12 19:42:26.180";"1";;;;;;;;;;;;;;;;;;;;;;;;;;;;;;;;;;;;;;;;;;;;;;;;;;;;;;;;;
"p1a2r3i4s5";"1992";;"Windows 7";"Rachel's Experiment (DP)";"1.0";"3";"1";"1";"3";"1";"1";"2015-02-12 19:38:58.220";"2015-02-12 19:51:08.988";"1";"0";"2";"49";"48";"module.training_block1.exec-5772.GoNoGo1";;;;;;;;;;;;"1249";"2015-02-12 19:42:30.023";"NST_correctLoc";"17";"0";"FINISHED";"LEFT";"success";"248";"0";"2015-02-12 19:42:28.773";"2";;;;;;;;;;;;;;;;;;;;;;;;;;;;;;;;;;;;;;;;;;;;;;;;;;;;;;;;;
"p1a2r3i4s5";"1992";;"Windows 7";"Rachel's Experiment (DP)";"1.0";"3";"1";"1";"3";"1";"1";"2015-02-12 19:38:58.220";"2015-02-12 19:51:08.988";"1";"0";"2";"50";"49";"module.training_block1.exec-5772.GoNoGo1";;;;;;;;;;;;"1249";"2015-02-12 19:42:32.582";"NST_correctLoc";"33";"1";"FINISHED";"RIGHT";"success";"253";"0";"2015-02-12 19:42:31.331";"3";;;;;;;;;;;;;;;;;;;;;;;;;;;;;;;;;;;;;;;;;;;;;;;;;;;;;;;;;
"p1a2r3i4s5";"1992";;"Windows 7";"Rachel's Experiment (DP)";"1.0";"3";"1";"1";"3";"1";"1";"2015-02-12 19:38:58.220";"2015-02-12 19:51:08.988";"1";"0";"2";"51";"50";"module.training_block1.exec-5772.GoNoGo1";;;;;;;;;;;;"1249";"2015-02-12 19:42:35.137";"NST_correctLoc";"29";"0";"FINISHED";"LEFT";"success";"279";"0";"2015-02-12 19:42:33.887";"3";;;;;;;;;;;;;;;;;;;;;;;;;;;;;;;;;;;;;;;;;;;;;;;;;;;;;;;;;
"p1a2r3i4s5";"1992";;"Windows 7";"Rachel's Experiment (DP)";"1.0";"3";"1";"1";"3";"1";"1";"2015-02-12 19:38:58.220";"2015-02-12 19:51:08.988";"1";"0";"2";"52";"51";"module.training_block2.exec-8992.GoNoGo2";;;;;;;;;;;;;;;;;;;;;;;;"1250";"2015-02-12 19:42:49.266";"NST_correctLoc";"10";"0";"FINISHED";"LEFT";"success";"294";"0";"2015-02-12 19:42:48.016";"2";;;;;;;;;;;;;;;;;;;;;;;;;;;;;;;;;;;;;;;;;;;;;
"p1a2r3i4s5";"1992";;"Windows 7";"Rachel's Experiment (DP)";"1.0";"3";"1";"1";"3";"1";"1";"2015-02-12 19:38:58.220";"2015-02-12 19:51:08.988";"1";"0";"2";"53";"52";"module.training_block2.exec-8992.GoNoGo2";;;;;;;;;;;;;;;;;;;;;;;;"1249";"2015-02-12 19:42:51.807";"NST_correctLoc";"4";"1";"FINISHED";"RIGHT";"success";"273";"0";"2015-02-12 19:42:50.557";"1";;;;;;;;;;;;;;;;;;;;;;;;;;;;;;;;;;;;;;;;;;;;;
"p1a2r3i4s5";"1992";;"Windows 7";"Rachel's Experiment (DP)";"1.0";"3";"1";"1";"3";"1";"1";"2015-02-12 19:38:58.220";"2015-02-12 19:51:08.988";"1";"0";"2";"54";"53";"module.training_block2.exec-8992.GoNoGo2";;;;;;;;;;;;;;;;;;;;;;;;"1249";"2015-02-12 19:42:54.352";"NST_correctLoc";"19";"0";"FINISHED";"LEFT";"success";"287";"0";"2015-02-12 19:42:53.102";"3";;;;;;;;;;;;;;;;;;;;;;;;;;;;;;;;;;;;;;;;;;;;;
"p1a2r3i4s5";"1992";;"Windows 7";"Rachel's Experiment (DP)";"1.0";"3";"1";"1";"3";"1";"1";"2015-02-12 19:38:58.220";"2015-02-12 19:51:08.988";"1";"0";"2";"55";"54";"module.training_block2.exec-8992.GoNoGo2";;;;;;;;;;;;;;;;;;;;;;;;"1249";"2015-02-12 19:42:56.902";"NST_correctLoc";"7";"1";"FINISHED";"RIGHT";"success";"264";"0";"2015-02-12 19:42:55.652";"1";;;;;;;;;;;;;;;;;;;;;;;;;;;;;;;;;;;;;;;;;;;;;
"p1a2r3i4s5";"1992";;"Windows 7";"Rachel's Experiment (DP)";"1.0";"3";"1";"1";"3";"1";"1";"2015-02-12 19:38:58.220";"2015-02-12 19:51:08.988";"1";"0";"2";"56";"55";"module.training_block2.exec-8992.GoNoGo2";;;;;;;;;;;;;;;;;;;;;;;;"1250";"2015-02-12 19:42:59.449";"NST_correctLoc";"0";"0";"FINISHED";"LEFT";"success";"300";"0";"2015-02-12 19:42:58.199";"1";;;;;;;;;;;;;;;;;;;;;;;;;;;;;;;;;;;;;;;;;;;;;
"p1a2r3i4s5";"1992";;"Windows 7";"Rachel's Experiment (DP)";"1.0";"3";"1";"1";"3";"1";"1";"2015-02-12 19:38:58.220";"2015-02-12 19:51:08.988";"1";"0";"2";"57";"56";"module.training_block2.exec-8992.GoNoGo2";;;;;;;;;;;;;;;;;;;;;;;;"1249";"2015-02-12 19:43:01.994";"NST_correctLoc";"14";"1";"FINISHED";"RIGHT";"success";"236";"0";"2015-02-12 19:43:00.744";"2";;;;;;;;;;;;;;;;;;;;;;;;;;;;;;;;;;;;;;;;;;;;;
"p1a2r3i4s5";"1992";;"Windows 7";"Rachel's Experiment (DP)";"1.0";"3";"1";"1";"3";"1";"1";"2015-02-12 19:38:58.220";"2015-02-12 19:51:08.988";"1";"0";"2";"58";"57";"module.training_block2.exec-8992.GoNoGo2";;;;;;;;;;;;;;;;;;;;;;;;"1250";"2015-02-12 19:43:04.534";"NST_correctLoc";"25";"0";"FINISHED";"LEFT";"success";"255";"0";"2015-02-12 19:43:03.284";"3";;;;;;;;;;;;;;;;;;;;;;;;;;;;;;;;;;;;;;;;;;;;;
"p1a2r3i4s5";"1992";;"Windows 7";"Rachel's Experiment (DP)";"1.0";"3";"1";"1";"3";"1";"1";"2015-02-12 19:38:58.220";"2015-02-12 19:51:08.988";"1";"0";"2";"59";"58";"module.training_block2.exec-8992.GoNoGo2";;;;;;;;;;;;;;;;;;;;;;;;"1249";"2015-02-12 19:43:07.079";"NST_correctLoc";"21";"1";"FINISHED";"RIGHT";"success";"285";"0";"2015-02-12 19:43:05.829";"3";;;;;;;;;;;;;;;;;;;;;;;;;;;;;;;;;;;;;;;;;;;;;
"p1a2r3i4s5";"1992";;"Windows 7";"Rachel's Experiment (DP)";"1.0";"3";"1";"1";"3";"1";"1";"2015-02-12 19:38:58.220";"2015-02-12 19:51:08.988";"1";"0";"2";"60";"59";"module.training_block2.exec-8992.GoNoGo2";;;;;;;;;;;;;;;;;;;;;;;;"1249";"2015-02-12 19:43:09.630";"NST_correctLoc";"24";"1";"FINISHED";"RIGHT";"success";"326";"0";"2015-02-12 19:43:08.380";"3";;;;;;;;;;;;;;;;;;;;;;;;;;;;;;;;;;;;;;;;;;;;;
"p1a2r3i4s5";"1992";;"Windows 7";"Rachel's Experiment (DP)";"1.0";"3";"1";"1";"3";"1";"1";"2015-02-12 19:38:58.220";"2015-02-12 19:51:08.988";"1";"0";"2";"61";"60";"module.training_block2.exec-8992.GoNoGo2";;;;;;;;;;;;;;;;;;;;;;;;"1249";"2015-02-12 19:43:12.167";"NST_correctLoc";"15";"0";"FINISHED";"LEFT";"success";"277";"0";"2015-02-12 19:43:10.917";"2";;;;;;;;;;;;;;;;;;;;;;;;;;;;;;;;;;;;;;;;;;;;;
"p1a2r3i4s5";"1992";;"Windows 7";"Rachel's Experiment (DP)";"1.0";"3";"1";"1";"3";"1";"1";"2015-02-12 19:38:58.220";"2015-02-12 19:51:08.988";"1";"0";"2";"62";"61";"module.training_block2.exec-8992.GoNoGo2";;;;;;;;;;;;;;;;;;;;;;;;"1250";"2015-02-12 19:43:14.708";"NST_correctLoc";"6";"1";"FINISHED";"RIGHT";"success";"231";"0";"2015-02-12 19:43:13.458";"1";;;;;;;;;;;;;;;;;;;;;;;;;;;;;;;;;;;;;;;;;;;;;
"p1a2r3i4s5";"1992";;"Windows 7";"Rachel's Experiment (DP)";"1.0";"3";"1";"1";"3";"1";"1";"2015-02-12 19:38:58.220";"2015-02-12 19:51:08.988";"1";"0";"2";"63";"62";"module.training_block2.exec-8992.GoNoGo2";;;;;;;;;;;;;;;;;;;;;;;;"1250";"2015-02-12 19:43:17.253";"NST_correctLoc";"13";"1";"FINISHED";"RIGHT";"success";"272";"0";"2015-02-12 19:43:16.003";"2";;;;;;;;;;;;;;;;;;;;;;;;;;;;;;;;;;;;;;;;;;;;;
"p1a2r3i4s5";"1992";;"Windows 7";"Rachel's Experiment (DP)";"1.0";"3";"1";"1";"3";"1";"1";"2015-02-12 19:38:58.220";"2015-02-12 19:51:08.988";"1";"0";"2";"64";"63";"module.training_block2.exec-8992.GoNoGo2";;;;;;;;;;;;;;;;;;;;;;;;"1250";"2015-02-12 19:43:19.796";"NST_correctLoc";"27";"1";"FINISHED";"RIGHT";"success";"296";"0";"2015-02-12 19:43:18.546";"3";;;;;;;;;;;;;;;;;;;;;;;;;;;;;;;;;;;;;;;;;;;;;
"p1a2r3i4s5";"1992";;"Windows 7";"Rachel's Experiment (DP)";"1.0";"3";"1";"1";"3";"1";"1";"2015-02-12 19:38:58.220";"2015-02-12 19:51:08.988";"1";"0";"2";"65";"64";"module.training_block2.exec-8992.GoNoGo2";;;;;;;;;;;;;;;;;;;;;;;;"1250";"2015-02-12 19:43:22.336";"NST_correctLoc";"35";"1";"FINISHED";"RIGHT";"success";"328";"0";"2015-02-12 19:43:21.086";"3";;;;;;;;;;;;;;;;;;;;;;;;;;;;;;;;;;;;;;;;;;;;;
"p1a2r3i4s5";"1992";;"Windows 7";"Rachel's Experiment (DP)";"1.0";"3";"1";"1";"3";"1";"1";"2015-02-12 19:38:58.220";"2015-02-12 19:51:08.988";"1";"0";"2";"66";"65";"module.training_block2.exec-8992.GoNoGo2";;;;;;;;;;;;;;;;;;;;;;;;"1250";"2015-02-12 19:43:24.890";"NST_correctLoc";"32";"1";"FINISHED";"RIGHT";"success";"289";"0";"2015-02-12 19:43:23.639";"3";;;;;;;;;;;;;;;;;;;;;;;;;;;;;;;;;;;;;;;;;;;;;
"p1a2r3i4s5";"1992";;"Windows 7";"Rachel's Experiment (DP)";"1.0";"3";"1";"1";"3";"1";"1";"2015-02-12 19:38:58.220";"2015-02-12 19:51:08.988";"1";"0";"2";"67";"66";"module.training_block2.exec-8992.GoNoGo2";;;;;;;;;;;;;;;;;;;;;;;;"1250";"2015-02-12 19:43:27.430";"NST_correctLoc";"5";"0";"FINISHED";"LEFT";"success";"297";"0";"2015-02-12 19:43:26.180";"1";;;;;;;;;;;;;;;;;;;;;;;;;;;;;;;;;;;;;;;;;;;;;
"p1a2r3i4s5";"1992";;"Windows 7";"Rachel's Experiment (DP)";"1.0";"3";"1";"1";"3";"1";"1";"2015-02-12 19:38:58.220";"2015-02-12 19:51:08.988";"1";"0";"2";"68";"67";"module.training_block2.exec-8992.GoNoGo2";;;;;;;;;;;;;;;;;;;;;;;;"1250";"2015-02-12 19:43:29.970";"NST_correctLoc";"11";"0";"FINISHED";"LEFT";"success";"288";"0";"2015-02-12 19:43:28.719";"2";;;;;;;;;;;;;;;;;;;;;;;;;;;;;;;;;;;;;;;;;;;;;
"p1a2r3i4s5";"1992";;"Windows 7";"Rachel's Experiment (DP)";"1.0";"3";"1";"1";"3";"1";"1";"2015-02-12 19:38:58.220";"2015-02-12 19:51:08.988";"1";"0";"2";"69";"68";"module.training_block2.exec-8992.GoNoGo2";;;;;;;;;;;;;;;;;;;;;;;;"1249";"2015-02-12 19:43:32.511";"NST_correctLoc";"8";"1";"FINISHED";"RIGHT";"success";"206";"0";"2015-02-12 19:43:31.261";"1";;;;;;;;;;;;;;;;;;;;;;;;;;;;;;;;;;;;;;;;;;;;;
"p1a2r3i4s5";"1992";;"Windows 7";"Rachel's Experiment (DP)";"1.0";"3";"1";"1";"3";"1";"1";"2015-02-12 19:38:58.220";"2015-02-12 19:51:08.988";"1";"0";"2";"70";"69";"module.training_block2.exec-8992.GoNoGo2";;;;;;;;;;;;;;;;;;;;;;;;"1249";"2015-02-12 19:43:35.051";"NST_correctLoc";"9";"1";"FINISHED";"RIGHT";"success";"282";"0";"2015-02-12 19:43:33.801";"2";;;;;;;;;;;;;;;;;;;;;;;;;;;;;;;;;;;;;;;;;;;;;
"p1a2r3i4s5";"1992";;"Windows 7";"Rachel's Experiment (DP)";"1.0";"3";"1";"1";"3";"1";"1";"2015-02-12 19:38:58.220";"2015-02-12 19:51:08.988";"1";"0";"2";"71";"70";"module.training_block2.exec-8992.GoNoGo2";;;;;;;;;;;;;;;;;;;;;;;;"1249";"2015-02-12 19:43:37.587";"NST_correctLoc";"17";"1";"FINISHED";"RIGHT";"success";"268";"0";"2015-02-12 19:43:36.337";"2";;;;;;;;;;;;;;;;;;;;;;;;;;;;;;;;;;;;;;;;;;;;;
"p1a2r3i4s5";"1992";;"Windows 7";"Rachel's Experiment (DP)";"1.0";"3";"1";"1";"3";"1";"1";"2015-02-12 19:38:58.220";"2015-02-12 19:51:08.988";"1";"0";"2";"72";"71";"module.training_block2.exec-8992.GoNoGo2";;;;;;;;;;;;;;;;;;;;;;;;"1250";"2015-02-12 19:43:40.130";"NST_correctLoc";"2";"1";"FINISHED";"RIGHT";"success";"295";"0";"2015-02-12 19:43:38.880";"1";;;;;;;;;;;;;;;;;;;;;;;;;;;;;;;;;;;;;;;;;;;;;
"p1a2r3i4s5";"1992";;"Windows 7";"Rachel's Experiment (DP)";"1.0";"3";"1";"1";"3";"1";"1";"2015-02-12 19:38:58.220";"2015-02-12 19:51:08.988";"1";"0";"2";"73";"72";"module.training_block2.exec-8992.GoNoGo2";;;;;;;;;;;;;;;;;;;;;;;;"1250";"2015-02-12 19:43:42.677";"NST_correctLoc";"22";"1";"FINISHED";"RIGHT";"success";"272";"0";"2015-02-12 19:43:41.426";"3";;;;;;;;;;;;;;;;;;;;;;;;;;;;;;;;;;;;;;;;;;;;;
"p1a2r3i4s5";"1992";;"Windows 7";"Rachel's Experiment (DP)";"1.0";"3";"1";"1";"3";"1";"1";"2015-02-12 19:38:58.220";"2015-02-12 19:51:08.988";"1";"0";"2";"74";"73";"module.training_block2.exec-8992.GoNoGo2";;;;;;;;;;;;;;;;;;;;;;;;"1250";"2015-02-12 19:43:45.218";"NST_correctLoc";"20";"1";"FINISHED";"RIGHT";"success";"270";"0";"2015-02-12 19:43:43.968";"3";;;;;;;;;;;;;;;;;;;;;;;;;;;;;;;;;;;;;;;;;;;;;
"p1a2r3i4s5";"1992";;"Windows 7";"Rachel's Experiment (DP)";"1.0";"3";"1";"1";"3";"1";"1";"2015-02-12 19:38:58.220";"2015-02-12 19:51:08.988";"1";"0";"2";"75";"74";"module.training_block2.exec-8992.GoNoGo2";;;;;;;;;;;;;;;;;;;;;;;;"1249";"2015-02-12 19:43:47.754";"NST_correctLoc";"1";"1";"FINISHED";"RIGHT";"success";"285";"0";"2015-02-12 19:43:46.504";"1";;;;;;;;;;;;;;;;;;;;;;;;;;;;;;;;;;;;;;;;;;;;;
"p1a2r3i4s5";"1992";;"Windows 7";"Rachel's Experiment (DP)";"1.0";"3";"1";"1";"3";"1";"1";"2015-02-12 19:38:58.220";"2015-02-12 19:51:08.988";"1";"0";"2";"76";"75";"module.training_block2.exec-8992.GoNoGo2";;;;;;;;;;;;;;;;;;;;;;;;"1249";"2015-02-12 19:43:50.317";"NST_correctLoc";"33";"0";"FINISHED";"LEFT";"success";"308";"0";"2015-02-12 19:43:49.067";"3";;;;;;;;;;;;;;;;;;;;;;;;;;;;;;;;;;;;;;;;;;;;;
"p1a2r3i4s5";"1992";;"Windows 7";"Rachel's Experiment (DP)";"1.0";"3";"1";"1";"3";"1";"1";"2015-02-12 19:38:58.220";"2015-02-12 19:51:08.988";"1";"0";"2";"77";"76";"module.training_block2.exec-8992.GoNoGo2";;;;;;;;;;;;;;;;;;;;;;;;"1249";"2015-02-12 19:43:52.860";"NST_correctLoc";"29";"0";"FINISHED";"LEFT";"success";"311";"0";"2015-02-12 19:43:51.610";"3";;;;;;;;;;;;;;;;;;;;;;;;;;;;;;;;;;;;;;;;;;;;;
"p1a2r3i4s5";"1992";;"Windows 7";"Rachel's Experiment (DP)";"1.0";"3";"1";"1";"3";"1";"1";"2015-02-12 19:38:58.220";"2015-02-12 19:51:08.988";"1";"0";"2";"78";"77";"module.training_block2.exec-8992.GoNoGo2";;;;;;;;;;;;;;;;;;;;;;;;"1250";"2015-02-12 19:43:55.407";"NST_correctLoc";"12";"0";"FINISHED";"LEFT";"success";"341";"0";"2015-02-12 19:43:54.157";"2";;;;;;;;;;;;;;;;;;;;;;;;;;;;;;;;;;;;;;;;;;;;;
"p1a2r3i4s5";"1992";;"Windows 7";"Rachel's Experiment (DP)";"1.0";"3";"1";"1";"3";"1";"1";"2015-02-12 19:38:58.220";"2015-02-12 19:51:08.988";"1";"0";"2";"79";"78";"module.training_block2.exec-8992.GoNoGo2";;;;;;;;;;;;;;;;;;;;;;;;"1250";"2015-02-12 19:43:57.948";"NST_correctLoc";"30";"0";"FINISHED";"LEFT";"success";"355";"0";"2015-02-12 19:43:56.698";"3";;;;;;;;;;;;;;;;;;;;;;;;;;;;;;;;;;;;;;;;;;;;;
"p1a2r3i4s5";"1992";;"Windows 7";"Rachel's Experiment (DP)";"1.0";"3";"1";"1";"3";"1";"1";"2015-02-12 19:38:58.220";"2015-02-12 19:51:08.988";"1";"0";"2";"80";"79";"module.training_block2.exec-8992.GoNoGo2";;;;;;;;;;;;;;;;;;;;;;;;"1250";"2015-02-12 19:44:00.492";"NST_correctLoc";"28";"1";"FINISHED";"RIGHT";"success";"321";"0";"2015-02-12 19:43:59.241";"3";;;;;;;;;;;;;;;;;;;;;;;;;;;;;;;;;;;;;;;;;;;;;
"p1a2r3i4s5";"1992";;"Windows 7";"Rachel's Experiment (DP)";"1.0";"3";"1";"1";"3";"1";"1";"2015-02-12 19:38:58.220";"2015-02-12 19:51:08.988";"1";"0";"2";"81";"80";"module.training_block2.exec-8992.GoNoGo2";;;;;;;;;;;;;;;;;;;;;;;;"1250";"2015-02-12 19:44:03.030";"NST_correctLoc";"3";"1";"FINISHED";"RIGHT";"success";"294";"0";"2015-02-12 19:44:01.779";"1";;;;;;;;;;;;;;;;;;;;;;;;;;;;;;;;;;;;;;;;;;;;;
"p1a2r3i4s5";"1992";;"Windows 7";"Rachel's Experiment (DP)";"1.0";"3";"1";"1";"3";"1";"1";"2015-02-12 19:38:58.220";"2015-02-12 19:51:08.988";"1";"0";"2";"82";"81";"module.training_block2.exec-8992.GoNoGo2";;;;;;;;;;;;;;;;;;;;;;;;"1249";"2015-02-12 19:44:05.568";"NST_correctLoc";"23";"0";"FINISHED";"LEFT";"success";"304";"0";"2015-02-12 19:44:04.318";"3";;;;;;;;;;;;;;;;;;;;;;;;;;;;;;;;;;;;;;;;;;;;;
"p1a2r3i4s5";"1992";;"Windows 7";"Rachel's Experiment (DP)";"1.0";"3";"1";"1";"3";"1";"1";"2015-02-12 19:38:58.220";"2015-02-12 19:51:08.988";"1";"0";"2";"83";"82";"module.training_block2.exec-8992.GoNoGo2";;;;;;;;;;;;;;;;;;;;;;;;"1249";"2015-02-12 19:44:08.102";"NST_correctLoc";"31";"1";"FINISHED";"RIGHT";"success";"401";"0";"2015-02-12 19:44:06.852";"3";;;;;;;;;;;;;;;;;;;;;;;;;;;;;;;;;;;;;;;;;;;;;
"p1a2r3i4s5";"1992";;"Windows 7";"Rachel's Experiment (DP)";"1.0";"3";"1";"1";"3";"1";"1";"2015-02-12 19:38:58.220";"2015-02-12 19:51:08.988";"1";"0";"2";"84";"83";"module.training_block2.exec-8992.GoNoGo2";;;;;;;;;;;;;;;;;;;;;;;;"1250";"2015-02-12 19:44:10.653";"NST_correctLoc";"34";"0";"FINISHED";"LEFT";"success";"294";"0";"2015-02-12 19:44:09.403";"3";;;;;;;;;;;;;;;;;;;;;;;;;;;;;;;;;;;;;;;;;;;;;
"p1a2r3i4s5";"1992";;"Windows 7";"Rachel's Experiment (DP)";"1.0";"3";"1";"1";"3";"1";"1";"2015-02-12 19:38:58.220";"2015-02-12 19:51:08.988";"1";"0";"2";"85";"84";"module.training_block2.exec-8992.GoNoGo2";;;;;;;;;;;;;;;;;;;;;;;;"1249";"2015-02-12 19:44:13.192";"NST_correctLoc";"18";"1";"FINISHED";"RIGHT";"success";"278";"0";"2015-02-12 19:44:11.942";"3";;;;;;;;;;;;;;;;;;;;;;;;;;;;;;;;;;;;;;;;;;;;;
"p1a2r3i4s5";"1992";;"Windows 7";"Rachel's Experiment (DP)";"1.0";"3";"1";"1";"3";"1";"1";"2015-02-12 19:38:58.220";"2015-02-12 19:51:08.988";"1";"0";"2";"86";"85";"module.training_block2.exec-8992.GoNoGo2";;;;;;;;;;;;;;;;;;;;;;;;"1249";"2015-02-12 19:44:15.736";"NST_correctLoc";"16";"0";"FINISHED";"LEFT";"success";"384";"0";"2015-02-12 19:44:14.486";"2";;;;;;;;;;;;;;;;;;;;;;;;;;;;;;;;;;;;;;;;;;;;;
"p1a2r3i4s5";"1992";;"Windows 7";"Rachel's Experiment (DP)";"1.0";"3";"1";"1";"3";"1";"1";"2015-02-12 19:38:58.220";"2015-02-12 19:51:08.988";"1";"0";"2";"87";"86";"module.training_block2.exec-8992.GoNoGo2";;;;;;;;;;;;;;;;;;;;;;;;"1250";"2015-02-12 19:44:18.272";"NST_correctLoc";"26";"1";"FINISHED";"RIGHT";"success";"340";"0";"2015-02-12 19:44:17.021";"3";;;;;;;;;;;;;;;;;;;;;;;;;;;;;;;;;;;;;;;;;;;;;
"p1a2r3i4s5";"1992";;"Windows 7";"Rachel's Experiment (DP)";"1.0";"3";"1";"1";"3";"1";"1";"2015-02-12 19:38:58.220";"2015-02-12 19:51:08.988";"1";"0";"2";"88";"87";"module.training_block3.exec-5042.GoNoGo3";;;;;;;;;;;;;;;;;;;;;;;;;;;;;;;;;;;;"1249";"2015-02-12 19:45:22.716";"NST_correctLoc";"26";"1";"FINISHED";"RIGHT";"success";"376";"0";"2015-02-12 19:45:21.466";"3";;;;;;;;;;;;;;;;;;;;;;;;;;;;;;;;;
"p1a2r3i4s5";"1992";;"Windows 7";"Rachel's Experiment (DP)";"1.0";"3";"1";"1";"3";"1";"1";"2015-02-12 19:38:58.220";"2015-02-12 19:51:08.988";"1";"0";"2";"89";"88";"module.training_block3.exec-5042.GoNoGo3";;;;;;;;;;;;;;;;;;;;;;;;;;;;;;;;;;;;"1250";"2015-02-12 19:45:25.255";"NST_correctLoc";"7";"1";"FINISHED";"RIGHT";"success";"283";"0";"2015-02-12 19:45:24.005";"1";;;;;;;;;;;;;;;;;;;;;;;;;;;;;;;;;
"p1a2r3i4s5";"1992";;"Windows 7";"Rachel's Experiment (DP)";"1.0";"3";"1";"1";"3";"1";"1";"2015-02-12 19:38:58.220";"2015-02-12 19:51:08.988";"1";"0";"2";"90";"89";"module.training_block3.exec-5042.GoNoGo3";;;;;;;;;;;;;;;;;;;;;;;;;;;;;;;;;;;;"1250";"2015-02-12 19:45:27.791";"NST_correctLoc";"4";"1";"FINISHED";"RIGHT";"success";"245";"0";"2015-02-12 19:45:26.540";"1";;;;;;;;;;;;;;;;;;;;;;;;;;;;;;;;;
"p1a2r3i4s5";"1992";;"Windows 7";"Rachel's Experiment (DP)";"1.0";"3";"1";"1";"3";"1";"1";"2015-02-12 19:38:58.220";"2015-02-12 19:51:08.988";"1";"0";"2";"91";"90";"module.training_block3.exec-5042.GoNoGo3";;;;;;;;;;;;;;;;;;;;;;;;;;;;;;;;;;;;"1249";"2015-02-12 19:45:30.330";"NST_correctLoc";"9";"0";"FINISHED";"LEFT";"success";"287";"0";"2015-02-12 19:45:29.080";"2";;;;;;;;;;;;;;;;;;;;;;;;;;;;;;;;;
"p1a2r3i4s5";"1992";;"Windows 7";"Rachel's Experiment (DP)";"1.0";"3";"1";"1";"3";"1";"1";"2015-02-12 19:38:58.220";"2015-02-12 19:51:08.988";"1";"0";"2";"92";"91";"module.training_block3.exec-5042.GoNoGo3";;;;;;;;;;;;;;;;;;;;;;;;;;;;;;;;;;;;"1249";"2015-02-12 19:45:32.871";"NST_correctLoc";"21";"1";"FINISHED";"RIGHT";"success";"217";"0";"2015-02-12 19:45:31.621";"3";;;;;;;;;;;;;;;;;;;;;;;;;;;;;;;;;
"p1a2r3i4s5";"1992";;"Windows 7";"Rachel's Experiment (DP)";"1.0";"3";"1";"1";"3";"1";"1";"2015-02-12 19:38:58.220";"2015-02-12 19:51:08.988";"1";"0";"2";"93";"92";"module.training_block3.exec-5042.GoNoGo3";;;;;;;;;;;;;;;;;;;;;;;;;;;;;;;;;;;;"1249";"2015-02-12 19:45:35.409";"NST_correctLoc";"1";"1";"FINISHED";"RIGHT";"success";"263";"0";"2015-02-12 19:45:34.159";"1";;;;;;;;;;;;;;;;;;;;;;;;;;;;;;;;;
"p1a2r3i4s5";"1992";;"Windows 7";"Rachel's Experiment (DP)";"1.0";"3";"1";"1";"3";"1";"1";"2015-02-12 19:38:58.220";"2015-02-12 19:51:08.988";"1";"0";"2";"94";"93";"module.training_block3.exec-5042.GoNoGo3";;;;;;;;;;;;;;;;;;;;;;;;;;;;;;;;;;;;"1249";"2015-02-12 19:45:37.941";"NST_correctLoc";"11";"0";"FINISHED";"LEFT";"success";"267";"0";"2015-02-12 19:45:36.691";"2";;;;;;;;;;;;;;;;;;;;;;;;;;;;;;;;;
"p1a2r3i4s5";"1992";;"Windows 7";"Rachel's Experiment (DP)";"1.0";"3";"1";"1";"3";"1";"1";"2015-02-12 19:38:58.220";"2015-02-12 19:51:08.988";"1";"0";"2";"95";"94";"module.training_block3.exec-5042.GoNoGo3";;;;;;;;;;;;;;;;;;;;;;;;;;;;;;;;;;;;"1250";"2015-02-12 19:45:40.476";"NST_correctLoc";"25";"1";"FINISHED";"RIGHT";"success";"267";"0";"2015-02-12 19:45:39.226";"3";;;;;;;;;;;;;;;;;;;;;;;;;;;;;;;;;
"p1a2r3i4s5";"1992";;"Windows 7";"Rachel's Experiment (DP)";"1.0";"3";"1";"1";"3";"1";"1";"2015-02-12 19:38:58.220";"2015-02-12 19:51:08.988";"1";"0";"2";"96";"95";"module.training_block3.exec-5042.GoNoGo3";;;;;;;;;;;;;;;;;;;;;;;;;;;;;;;;;;;;"1250";"2015-02-12 19:45:43.019";"NST_correctLoc";"24";"0";"FINISHED";"LEFT";"success";"226";"0";"2015-02-12 19:45:41.768";"3";;;;;;;;;;;;;;;;;;;;;;;;;;;;;;;;;
"p1a2r3i4s5";"1992";;"Windows 7";"Rachel's Experiment (DP)";"1.0";"3";"1";"1";"3";"1";"1";"2015-02-12 19:38:58.220";"2015-02-12 19:51:08.988";"1";"0";"2";"97";"96";"module.training_block3.exec-5042.GoNoGo3";;;;;;;;;;;;;;;;;;;;;;;;;;;;;;;;;;;;"1250";"2015-02-12 19:45:45.557";"NST_correctLoc";"28";"0";"FINISHED";"LEFT";"success";"288";"0";"2015-02-12 19:45:44.305";"3";;;;;;;;;;;;;;;;;;;;;;;;;;;;;;;;;
"p1a2r3i4s5";"1992";;"Windows 7";"Rachel's Experiment (DP)";"1.0";"3";"1";"1";"3";"1";"1";"2015-02-12 19:38:58.220";"2015-02-12 19:51:08.988";"1";"0";"2";"98";"97";"module.training_block3.exec-5042.GoNoGo3";;;;;;;;;;;;;;;;;;;;;;;;;;;;;;;;;;;;"1249";"2015-02-12 19:45:48.097";"NST_correctLoc";"30";"1";"FINISHED";"RIGHT";"success";"242";"0";"2015-02-12 19:45:46.847";"3";;;;;;;;;;;;;;;;;;;;;;;;;;;;;;;;;
"p1a2r3i4s5";"1992";;"Windows 7";"Rachel's Experiment (DP)";"1.0";"3";"1";"1";"3";"1";"1";"2015-02-12 19:38:58.220";"2015-02-12 19:51:08.988";"1";"0";"2";"99";"98";"module.training_block3.exec-5042.GoNoGo3";;;;;;;;;;;;;;;;;;;;;;;;;;;;;;;;;;;;"1249";"2015-02-12 19:45:50.633";"NST_correctLoc";"31";"0";"FINISHED";"LEFT";"success";"281";"0";"2015-02-12 19:45:49.383";"3";;;;;;;;;;;;;;;;;;;;;;;;;;;;;;;;;
"p1a2r3i4s5";"1992";;"Windows 7";"Rachel's Experiment (DP)";"1.0";"3";"1";"1";"3";"1";"1";"2015-02-12 19:38:58.220";"2015-02-12 19:51:08.988";"1";"0";"2";"100";"99";"module.training_block3.exec-5042.GoNoGo3";;;;;;;;;;;;;;;;;;;;;;;;;;;;;;;;;;;;"1249";"2015-02-12 19:45:53.169";"NST_correctLoc";"0";"0";"FINISHED";"LEFT";"success";"332";"0";"2015-02-12 19:45:51.919";"1";;;;;;;;;;;;;;;;;;;;;;;;;;;;;;;;;
"p1a2r3i4s5";"1992";;"Windows 7";"Rachel's Experiment (DP)";"1.0";"3";"1";"1";"3";"1";"1";"2015-02-12 19:38:58.220";"2015-02-12 19:51:08.988";"1";"0";"2";"101";"100";"module.training_block3.exec-5042.GoNoGo3";;;;;;;;;;;;;;;;;;;;;;;;;;;;;;;;;;;;"1249";"2015-02-12 19:45:55.704";"NST_correctLoc";"8";"1";"FINISHED";"RIGHT";"success";"251";"0";"2015-02-12 19:45:54.454";"1";;;;;;;;;;;;;;;;;;;;;;;;;;;;;;;;;
"p1a2r3i4s5";"1992";;"Windows 7";"Rachel's Experiment (DP)";"1.0";"3";"1";"1";"3";"1";"1";"2015-02-12 19:38:58.220";"2015-02-12 19:51:08.988";"1";"0";"2";"102";"101";"module.training_block3.exec-5042.GoNoGo3";;;;;;;;;;;;;;;;;;;;;;;;;;;;;;;;;;;;"1250";"2015-02-12 19:45:58.243";"NST_correctLoc";"19";"1";"FINISHED";"RIGHT";"success";"269";"0";"2015-02-12 19:45:56.993";"3";;;;;;;;;;;;;;;;;;;;;;;;;;;;;;;;;
"p1a2r3i4s5";"1992";;"Windows 7";"Rachel's Experiment (DP)";"1.0";"3";"1";"1";"3";"1";"1";"2015-02-12 19:38:58.220";"2015-02-12 19:51:08.988";"1";"0";"2";"103";"102";"module.training_block3.exec-5042.GoNoGo3";;;;;;;;;;;;;;;;;;;;;;;;;;;;;;;;;;;;"1250";"2015-02-12 19:46:00.781";"NST_correctLoc";"27";"1";"FINISHED";"RIGHT";"success";"243";"0";"2015-02-12 19:45:59.531";"3";;;;;;;;;;;;;;;;;;;;;;;;;;;;;;;;;
"p1a2r3i4s5";"1992";;"Windows 7";"Rachel's Experiment (DP)";"1.0";"3";"1";"1";"3";"1";"1";"2015-02-12 19:38:58.220";"2015-02-12 19:51:08.988";"1";"0";"2";"104";"103";"module.training_block3.exec-5042.GoNoGo3";;;;;;;;;;;;;;;;;;;;;;;;;;;;;;;;;;;;"1249";"2015-02-12 19:46:03.324";"NST_correctLoc";"16";"1";"FINISHED";"RIGHT";"success";"276";"0";"2015-02-12 19:46:02.074";"2";;;;;;;;;;;;;;;;;;;;;;;;;;;;;;;;;
"p1a2r3i4s5";"1992";;"Windows 7";"Rachel's Experiment (DP)";"1.0";"3";"1";"1";"3";"1";"1";"2015-02-12 19:38:58.220";"2015-02-12 19:51:08.988";"1";"0";"2";"105";"104";"module.training_block3.exec-5042.GoNoGo3";;;;;;;;;;;;;;;;;;;;;;;;;;;;;;;;;;;;"1250";"2015-02-12 19:46:05.884";"NST_correctLoc";"33";"1";"FINISHED";"RIGHT";"success";"279";"0";"2015-02-12 19:46:04.634";"3";;;;;;;;;;;;;;;;;;;;;;;;;;;;;;;;;
"p1a2r3i4s5";"1992";;"Windows 7";"Rachel's Experiment (DP)";"1.0";"3";"1";"1";"3";"1";"1";"2015-02-12 19:38:58.220";"2015-02-12 19:51:08.988";"1";"0";"2";"106";"105";"module.training_block3.exec-5042.GoNoGo3";;;;;;;;;;;;;;;;;;;;;;;;;;;;;;;;;;;;"1249";"2015-02-12 19:46:08.437";"NST_correctLoc";"34";"1";"FINISHED";"RIGHT";"success";"287";"0";"2015-02-12 19:46:07.187";"3";;;;;;;;;;;;;;;;;;;;;;;;;;;;;;;;;
"p1a2r3i4s5";"1992";;"Windows 7";"Rachel's Experiment (DP)";"1.0";"3";"1";"1";"3";"1";"1";"2015-02-12 19:38:58.220";"2015-02-12 19:51:08.988";"1";"0";"2";"107";"106";"module.training_block3.exec-5042.GoNoGo3";;;;;;;;;;;;;;;;;;;;;;;;;;;;;;;;;;;;"1249";"2015-02-12 19:46:10.981";"NST_correctLoc";"29";"1";"FINISHED";"RIGHT";"success";"257";"0";"2015-02-12 19:46:09.731";"3";;;;;;;;;;;;;;;;;;;;;;;;;;;;;;;;;
"p1a2r3i4s5";"1992";;"Windows 7";"Rachel's Experiment (DP)";"1.0";"3";"1";"1";"3";"1";"1";"2015-02-12 19:38:58.220";"2015-02-12 19:51:08.988";"1";"0";"2";"108";"107";"module.training_block3.exec-5042.GoNoGo3";;;;;;;;;;;;;;;;;;;;;;;;;;;;;;;;;;;;"1249";"2015-02-12 19:46:13.529";"NST_correctLoc";"3";"1";"FINISHED";"RIGHT";"success";"250";"0";"2015-02-12 19:46:12.279";"1";;;;;;;;;;;;;;;;;;;;;;;;;;;;;;;;;
"p1a2r3i4s5";"1992";;"Windows 7";"Rachel's Experiment (DP)";"1.0";"3";"1";"1";"3";"1";"1";"2015-02-12 19:38:58.220";"2015-02-12 19:51:08.988";"1";"0";"2";"109";"108";"module.training_block3.exec-5042.GoNoGo3";;;;;;;;;;;;;;;;;;;;;;;;;;;;;;;;;;;;"1249";"2015-02-12 19:46:16.066";"NST_correctLoc";"13";"0";"FINISHED";"LEFT";"success";"271";"0";"2015-02-12 19:46:14.816";"2";;;;;;;;;;;;;;;;;;;;;;;;;;;;;;;;;
"p1a2r3i4s5";"1992";;"Windows 7";"Rachel's Experiment (DP)";"1.0";"3";"1";"1";"3";"1";"1";"2015-02-12 19:38:58.220";"2015-02-12 19:51:08.988";"1";"0";"2";"110";"109";"module.training_block3.exec-5042.GoNoGo3";;;;;;;;;;;;;;;;;;;;;;;;;;;;;;;;;;;;"1250";"2015-02-12 19:46:18.607";"NST_correctLoc";"15";"1";"FINISHED";"RIGHT";"success";"380";"0";"2015-02-12 19:46:17.357";"2";;;;;;;;;;;;;;;;;;;;;;;;;;;;;;;;;
"p1a2r3i4s5";"1992";;"Windows 7";"Rachel's Experiment (DP)";"1.0";"3";"1";"1";"3";"1";"1";"2015-02-12 19:38:58.220";"2015-02-12 19:51:08.988";"1";"0";"2";"111";"110";"module.training_block3.exec-5042.GoNoGo3";;;;;;;;;;;;;;;;;;;;;;;;;;;;;;;;;;;;"1249";"2015-02-12 19:46:21.149";"NST_correctLoc";"14";"1";"FINISHED";"RIGHT";"success";"277";"0";"2015-02-12 19:46:19.899";"2";;;;;;;;;;;;;;;;;;;;;;;;;;;;;;;;;
"p1a2r3i4s5";"1992";;"Windows 7";"Rachel's Experiment (DP)";"1.0";"3";"1";"1";"3";"1";"1";"2015-02-12 19:38:58.220";"2015-02-12 19:51:08.988";"1";"0";"2";"112";"111";"module.training_block3.exec-5042.GoNoGo3";;;;;;;;;;;;;;;;;;;;;;;;;;;;;;;;;;;;"1249";"2015-02-12 19:46:23.698";"NST_correctLoc";"35";"1";"FINISHED";"RIGHT";"success";"271";"0";"2015-02-12 19:46:22.448";"3";;;;;;;;;;;;;;;;;;;;;;;;;;;;;;;;;
"p1a2r3i4s5";"1992";;"Windows 7";"Rachel's Experiment (DP)";"1.0";"3";"1";"1";"3";"1";"1";"2015-02-12 19:38:58.220";"2015-02-12 19:51:08.988";"1";"0";"2";"113";"112";"module.training_block3.exec-5042.GoNoGo3";;;;;;;;;;;;;;;;;;;;;;;;;;;;;;;;;;;;"1250";"2015-02-12 19:46:26.241";"NST_correctLoc";"6";"0";"FINISHED";"LEFT";"success";"295";"0";"2015-02-12 19:46:24.991";"1";;;;;;;;;;;;;;;;;;;;;;;;;;;;;;;;;
"p1a2r3i4s5";"1992";;"Windows 7";"Rachel's Experiment (DP)";"1.0";"3";"1";"1";"3";"1";"1";"2015-02-12 19:38:58.220";"2015-02-12 19:51:08.988";"1";"0";"2";"114";"113";"module.training_block3.exec-5042.GoNoGo3";;;;;;;;;;;;;;;;;;;;;;;;;;;;;;;;;;;;"1250";"2015-02-12 19:46:28.784";"NST_wrongLoc";"17";"0";"FINISHED";"RIGHT";"failure";"282";"0";"2015-02-12 19:46:27.534";"2";;;;;;;;;;;;;;;;;;;;;;;;;;;;;;;;;
"p1a2r3i4s5";"1992";;"Windows 7";"Rachel's Experiment (DP)";"1.0";"3";"1";"1";"3";"1";"1";"2015-02-12 19:38:58.220";"2015-02-12 19:51:08.988";"1";"0";"2";"115";"114";"module.training_block3.exec-5042.GoNoGo3";;;;;;;;;;;;;;;;;;;;;;;;;;;;;;;;;;;;"1250";"2015-02-12 19:46:31.328";"NST_correctLoc";"12";"0";"FINISHED";"LEFT";"success";"272";"0";"2015-02-12 19:46:30.077";"2";;;;;;;;;;;;;;;;;;;;;;;;;;;;;;;;;
"p1a2r3i4s5";"1992";;"Windows 7";"Rachel's Experiment (DP)";"1.0";"3";"1";"1";"3";"1";"1";"2015-02-12 19:38:58.220";"2015-02-12 19:51:08.988";"1";"0";"2";"116";"115";"module.training_block3.exec-5042.GoNoGo3";;;;;;;;;;;;;;;;;;;;;;;;;;;;;;;;;;;;"1250";"2015-02-12 19:46:33.866";"NST_correctLoc";"2";"1";"FINISHED";"RIGHT";"success";"257";"0";"2015-02-12 19:46:32.616";"1";;;;;;;;;;;;;;;;;;;;;;;;;;;;;;;;;
"p1a2r3i4s5";"1992";;"Windows 7";"Rachel's Experiment (DP)";"1.0";"3";"1";"1";"3";"1";"1";"2015-02-12 19:38:58.220";"2015-02-12 19:51:08.988";"1";"0";"2";"117";"116";"module.training_block3.exec-5042.GoNoGo3";;;;;;;;;;;;;;;;;;;;;;;;;;;;;;;;;;;;"1249";"2015-02-12 19:46:36.404";"NST_correctLoc";"10";"0";"FINISHED";"LEFT";"success";"276";"0";"2015-02-12 19:46:35.154";"2";;;;;;;;;;;;;;;;;;;;;;;;;;;;;;;;;
"p1a2r3i4s5";"1992";;"Windows 7";"Rachel's Experiment (DP)";"1.0";"3";"1";"1";"3";"1";"1";"2015-02-12 19:38:58.220";"2015-02-12 19:51:08.988";"1";"0";"2";"118";"117";"module.training_block3.exec-5042.GoNoGo3";;;;;;;;;;;;;;;;;;;;;;;;;;;;;;;;;;;;"1250";"2015-02-12 19:46:38.954";"NST_correctLoc";"20";"1";"FINISHED";"RIGHT";"success";"216";"0";"2015-02-12 19:46:37.704";"3";;;;;;;;;;;;;;;;;;;;;;;;;;;;;;;;;
"p1a2r3i4s5";"1992";;"Windows 7";"Rachel's Experiment (DP)";"1.0";"3";"1";"1";"3";"1";"1";"2015-02-12 19:38:58.220";"2015-02-12 19:51:08.988";"1";"0";"2";"119";"118";"module.training_block3.exec-5042.GoNoGo3";;;;;;;;;;;;;;;;;;;;;;;;;;;;;;;;;;;;"1249";"2015-02-12 19:46:41.497";"NST_correctLoc";"22";"0";"FINISHED";"LEFT";"success";"241";"0";"2015-02-12 19:46:40.247";"3";;;;;;;;;;;;;;;;;;;;;;;;;;;;;;;;;
"p1a2r3i4s5";"1992";;"Windows 7";"Rachel's Experiment (DP)";"1.0";"3";"1";"1";"3";"1";"1";"2015-02-12 19:38:58.220";"2015-02-12 19:51:08.988";"1";"0";"2";"120";"119";"module.training_block3.exec-5042.GoNoGo3";;;;;;;;;;;;;;;;;;;;;;;;;;;;;;;;;;;;"1249";"2015-02-12 19:46:44.043";"NST_correctLoc";"18";"1";"FINISHED";"RIGHT";"success";"194";"0";"2015-02-12 19:46:42.793";"3";;;;;;;;;;;;;;;;;;;;;;;;;;;;;;;;;
"p1a2r3i4s5";"1992";;"Windows 7";"Rachel's Experiment (DP)";"1.0";"3";"1";"1";"3";"1";"1";"2015-02-12 19:38:58.220";"2015-02-12 19:51:08.988";"1";"0";"2";"121";"120";"module.training_block3.exec-5042.GoNoGo3";;;;;;;;;;;;;;;;;;;;;;;;;;;;;;;;;;;;"1251";"2015-02-12 19:46:46.593";"NST_correctLoc";"5";"0";"FINISHED";"LEFT";"success";"269";"0";"2015-02-12 19:46:45.342";"1";;;;;;;;;;;;;;;;;;;;;;;;;;;;;;;;;
"p1a2r3i4s5";"1992";;"Windows 7";"Rachel's Experiment (DP)";"1.0";"3";"1";"1";"3";"1";"1";"2015-02-12 19:38:58.220";"2015-02-12 19:51:08.988";"1";"0";"2";"122";"121";"module.training_block3.exec-5042.GoNoGo3";;;;;;;;;;;;;;;;;;;;;;;;;;;;;;;;;;;;"1249";"2015-02-12 19:46:49.134";"NST_correctLoc";"23";"1";"FINISHED";"RIGHT";"success";"225";"0";"2015-02-12 19:46:47.884";"3";;;;;;;;;;;;;;;;;;;;;;;;;;;;;;;;;
"p1a2r3i4s5";"1992";;"Windows 7";"Rachel's Experiment (DP)";"1.0";"3";"1";"1";"3";"1";"1";"2015-02-12 19:38:58.220";"2015-02-12 19:51:08.988";"1";"0";"2";"123";"122";"module.training_block3.exec-5042.GoNoGo3";;;;;;;;;;;;;;;;;;;;;;;;;;;;;;;;;;;;"1249";"2015-02-12 19:46:51.678";"NST_correctLoc";"32";"1";"FINISHED";"RIGHT";"success";"286";"0";"2015-02-12 19:46:50.428";"3";;;;;;;;;;;;;;;;;;;;;;;;;;;;;;;;;
"p1a2r3i4s5";"1992";;"Windows 7";"Rachel's Experiment (DP)";"1.0";"3";"1";"1";"3";"1";"1";"2015-02-12 19:38:58.220";"2015-02-12 19:51:08.988";"1";"0";"2";"124";"123";"module.training_block4.exec-3634.GoNoGo4";;;;;;;;;;;;;;;;;;;;;;;;;;;;;;;;;;;;;;;;;;;;;;;;"1249";"2015-02-12 19:47:43.876";"NST_correctLoc";"28";"0";"FINISHED";"LEFT";"success";"311";"0";"2015-02-12 19:47:42.626";"3";;;;;;;;;;;;;;;;;;;;;
"p1a2r3i4s5";"1992";;"Windows 7";"Rachel's Experiment (DP)";"1.0";"3";"1";"1";"3";"1";"1";"2015-02-12 19:38:58.220";"2015-02-12 19:51:08.988";"1";"0";"2";"125";"124";"module.training_block4.exec-3634.GoNoGo4";;;;;;;;;;;;;;;;;;;;;;;;;;;;;;;;;;;;;;;;;;;;;;;;"1250";"2015-02-12 19:47:46.424";"NST_correctLoc";"10";"1";"FINISHED";"RIGHT";"success";"228";"0";"2015-02-12 19:47:45.173";"2";;;;;;;;;;;;;;;;;;;;;
"p1a2r3i4s5";"1992";;"Windows 7";"Rachel's Experiment (DP)";"1.0";"3";"1";"1";"3";"1";"1";"2015-02-12 19:38:58.220";"2015-02-12 19:51:08.988";"1";"0";"2";"126";"125";"module.training_block4.exec-3634.GoNoGo4";;;;;;;;;;;;;;;;;;;;;;;;;;;;;;;;;;;;;;;;;;;;;;;;"1249";"2015-02-12 19:47:48.973";"NST_correctLoc";"30";"1";"FINISHED";"RIGHT";"success";"286";"0";"2015-02-12 19:47:47.723";"3";;;;;;;;;;;;;;;;;;;;;
"p1a2r3i4s5";"1992";;"Windows 7";"Rachel's Experiment (DP)";"1.0";"3";"1";"1";"3";"1";"1";"2015-02-12 19:38:58.220";"2015-02-12 19:51:08.988";"1";"0";"2";"127";"126";"module.training_block4.exec-3634.GoNoGo4";;;;;;;;;;;;;;;;;;;;;;;;;;;;;;;;;;;;;;;;;;;;;;;;"1250";"2015-02-12 19:47:51.510";"NST_correctLoc";"1";"0";"FINISHED";"LEFT";"success";"275";"0";"2015-02-12 19:47:50.260";"1";;;;;;;;;;;;;;;;;;;;;
"p1a2r3i4s5";"1992";;"Windows 7";"Rachel's Experiment (DP)";"1.0";"3";"1";"1";"3";"1";"1";"2015-02-12 19:38:58.220";"2015-02-12 19:51:08.988";"1";"0";"2";"128";"127";"module.training_block4.exec-3634.GoNoGo4";;;;;;;;;;;;;;;;;;;;;;;;;;;;;;;;;;;;;;;;;;;;;;;;"1249";"2015-02-12 19:47:54.050";"NST_correctLoc";"18";"1";"FINISHED";"RIGHT";"success";"272";"0";"2015-02-12 19:47:52.800";"3";;;;;;;;;;;;;;;;;;;;;
"p1a2r3i4s5";"1992";;"Windows 7";"Rachel's Experiment (DP)";"1.0";"3";"1";"1";"3";"1";"1";"2015-02-12 19:38:58.220";"2015-02-12 19:51:08.988";"1";"0";"2";"129";"128";"module.training_block4.exec-3634.GoNoGo4";;;;;;;;;;;;;;;;;;;;;;;;;;;;;;;;;;;;;;;;;;;;;;;;"1249";"2015-02-12 19:47:56.595";"NST_correctLoc";"19";"1";"FINISHED";"RIGHT";"success";"264";"0";"2015-02-12 19:47:55.345";"3";;;;;;;;;;;;;;;;;;;;;
"p1a2r3i4s5";"1992";;"Windows 7";"Rachel's Experiment (DP)";"1.0";"3";"1";"1";"3";"1";"1";"2015-02-12 19:38:58.220";"2015-02-12 19:51:08.988";"1";"0";"2";"130";"129";"module.training_block4.exec-3634.GoNoGo4";;;;;;;;;;;;;;;;;;;;;;;;;;;;;;;;;;;;;;;;;;;;;;;;"1250";"2015-02-12 19:47:59.139";"NST_correctLoc";"7";"0";"FINISHED";"LEFT";"success";"264";"0";"2015-02-12 19:47:57.889";"1";;;;;;;;;;;;;;;;;;;;;
"p1a2r3i4s5";"1992";;"Windows 7";"Rachel's Experiment (DP)";"1.0";"3";"1";"1";"3";"1";"1";"2015-02-12 19:38:58.220";"2015-02-12 19:51:08.988";"1";"0";"2";"131";"130";"module.training_block4.exec-3634.GoNoGo4";;;;;;;;;;;;;;;;;;;;;;;;;;;;;;;;;;;;;;;;;;;;;;;;"1249";"2015-02-12 19:48:01.682";"NST_correctLoc";"17";"0";"FINISHED";"LEFT";"success";"319";"0";"2015-02-12 19:48:00.432";"2";;;;;;;;;;;;;;;;;;;;;
"p1a2r3i4s5";"1992";;"Windows 7";"Rachel's Experiment (DP)";"1.0";"3";"1";"1";"3";"1";"1";"2015-02-12 19:38:58.220";"2015-02-12 19:51:08.988";"1";"0";"2";"132";"131";"module.training_block4.exec-3634.GoNoGo4";;;;;;;;;;;;;;;;;;;;;;;;;;;;;;;;;;;;;;;;;;;;;;;;"1249";"2015-02-12 19:48:04.219";"NST_correctLoc";"24";"1";"FINISHED";"RIGHT";"success";"270";"0";"2015-02-12 19:48:02.969";"3";;;;;;;;;;;;;;;;;;;;;
"p1a2r3i4s5";"1992";;"Windows 7";"Rachel's Experiment (DP)";"1.0";"3";"1";"1";"3";"1";"1";"2015-02-12 19:38:58.220";"2015-02-12 19:51:08.988";"1";"0";"2";"133";"132";"module.training_block4.exec-3634.GoNoGo4";;;;;;;;;;;;;;;;;;;;;;;;;;;;;;;;;;;;;;;;;;;;;;;;"1249";"2015-02-12 19:48:06.759";"NST_correctLoc";"26";"0";"FINISHED";"LEFT";"success";"304";"0";"2015-02-12 19:48:05.509";"3";;;;;;;;;;;;;;;;;;;;;
"p1a2r3i4s5";"1992";;"Windows 7";"Rachel's Experiment (DP)";"1.0";"3";"1";"1";"3";"1";"1";"2015-02-12 19:38:58.220";"2015-02-12 19:51:08.988";"1";"0";"2";"134";"133";"module.training_block4.exec-3634.GoNoGo4";;;;;;;;;;;;;;;;;;;;;;;;;;;;;;;;;;;;;;;;;;;;;;;;"1249";"2015-02-12 19:48:09.296";"NST_correctLoc";"9";"0";"FINISHED";"LEFT";"success";"828";"0";"2015-02-12 19:48:08.046";"2";;;;;;;;;;;;;;;;;;;;;
"p1a2r3i4s5";"1992";;"Windows 7";"Rachel's Experiment (DP)";"1.0";"3";"1";"1";"3";"1";"1";"2015-02-12 19:38:58.220";"2015-02-12 19:51:08.988";"1";"0";"2";"135";"134";"module.training_block4.exec-3634.GoNoGo4";;;;;;;;;;;;;;;;;;;;;;;;;;;;;;;;;;;;;;;;;;;;;;;;"1249";"2015-02-12 19:48:11.831";"NST_correctLoc";"14";"1";"FINISHED";"RIGHT";"success";"348";"0";"2015-02-12 19:48:10.581";"2";;;;;;;;;;;;;;;;;;;;;
"p1a2r3i4s5";"1992";;"Windows 7";"Rachel's Experiment (DP)";"1.0";"3";"1";"1";"3";"1";"1";"2015-02-12 19:38:58.220";"2015-02-12 19:51:08.988";"1";"0";"2";"136";"135";"module.training_block4.exec-3634.GoNoGo4";;;;;;;;;;;;;;;;;;;;;;;;;;;;;;;;;;;;;;;;;;;;;;;;"1250";"2015-02-12 19:48:14.367";"NST_correctLoc";"23";"0";"FINISHED";"LEFT";"success";"422";"0";"2015-02-12 19:48:13.117";"3";;;;;;;;;;;;;;;;;;;;;
"p1a2r3i4s5";"1992";;"Windows 7";"Rachel's Experiment (DP)";"1.0";"3";"1";"1";"3";"1";"1";"2015-02-12 19:38:58.220";"2015-02-12 19:51:08.988";"1";"0";"2";"137";"136";"module.training_block4.exec-3634.GoNoGo4";;;;;;;;;;;;;;;;;;;;;;;;;;;;;;;;;;;;;;;;;;;;;;;;"1249";"2015-02-12 19:48:16.912";"NST_correctLoc";"2";"0";"FINISHED";"LEFT";"success";"296";"0";"2015-02-12 19:48:15.662";"1";;;;;;;;;;;;;;;;;;;;;
"p1a2r3i4s5";"1992";;"Windows 7";"Rachel's Experiment (DP)";"1.0";"3";"1";"1";"3";"1";"1";"2015-02-12 19:38:58.220";"2015-02-12 19:51:08.988";"1";"0";"2";"138";"137";"module.training_block4.exec-3634.GoNoGo4";;;;;;;;;;;;;;;;;;;;;;;;;;;;;;;;;;;;;;;;;;;;;;;;"1250";"2015-02-12 19:48:19.455";"NST_correctLoc";"31";"0";"FINISHED";"LEFT";"success";"277";"0";"2015-02-12 19:48:18.205";"3";;;;;;;;;;;;;;;;;;;;;
"p1a2r3i4s5";"1992";;"Windows 7";"Rachel's Experiment (DP)";"1.0";"3";"1";"1";"3";"1";"1";"2015-02-12 19:38:58.220";"2015-02-12 19:51:08.988";"1";"0";"2";"139";"138";"module.training_block4.exec-3634.GoNoGo4";;;;;;;;;;;;;;;;;;;;;;;;;;;;;;;;;;;;;;;;;;;;;;;;"1249";"2015-02-12 19:48:21.992";"NST_correctLoc";"32";"1";"FINISHED";"RIGHT";"success";"259";"0";"2015-02-12 19:48:20.741";"3";;;;;;;;;;;;;;;;;;;;;
"p1a2r3i4s5";"1992";;"Windows 7";"Rachel's Experiment (DP)";"1.0";"3";"1";"1";"3";"1";"1";"2015-02-12 19:38:58.220";"2015-02-12 19:51:08.988";"1";"0";"2";"140";"139";"module.training_block4.exec-3634.GoNoGo4";;;;;;;;;;;;;;;;;;;;;;;;;;;;;;;;;;;;;;;;;;;;;;;;"1250";"2015-02-12 19:48:24.530";"NST_correctLoc";"35";"0";"FINISHED";"LEFT";"success";"237";"0";"2015-02-12 19:48:23.280";"3";;;;;;;;;;;;;;;;;;;;;
"p1a2r3i4s5";"1992";;"Windows 7";"Rachel's Experiment (DP)";"1.0";"3";"1";"1";"3";"1";"1";"2015-02-12 19:38:58.220";"2015-02-12 19:51:08.988";"1";"0";"2";"141";"140";"module.training_block4.exec-3634.GoNoGo4";;;;;;;;;;;;;;;;;;;;;;;;;;;;;;;;;;;;;;;;;;;;;;;;"1249";"2015-02-12 19:48:27.068";"NST_correctLoc";"3";"0";"FINISHED";"LEFT";"success";"293";"0";"2015-02-12 19:48:25.818";"1";;;;;;;;;;;;;;;;;;;;;
"p1a2r3i4s5";"1992";;"Windows 7";"Rachel's Experiment (DP)";"1.0";"3";"1";"1";"3";"1";"1";"2015-02-12 19:38:58.220";"2015-02-12 19:51:08.988";"1";"0";"2";"142";"141";"module.training_block4.exec-3634.GoNoGo4";;;;;;;;;;;;;;;;;;;;;;;;;;;;;;;;;;;;;;;;;;;;;;;;"1249";"2015-02-12 19:48:29.603";"NST_correctLoc";"12";"0";"FINISHED";"LEFT";"success";"303";"0";"2015-02-12 19:48:28.353";"2";;;;;;;;;;;;;;;;;;;;;
"p1a2r3i4s5";"1992";;"Windows 7";"Rachel's Experiment (DP)";"1.0";"3";"1";"1";"3";"1";"1";"2015-02-12 19:38:58.220";"2015-02-12 19:51:08.988";"1";"0";"2";"143";"142";"module.training_block4.exec-3634.GoNoGo4";;;;;;;;;;;;;;;;;;;;;;;;;;;;;;;;;;;;;;;;;;;;;;;;"1249";"2015-02-12 19:48:32.148";"NST_correctLoc";"0";"1";"FINISHED";"RIGHT";"success";"286";"0";"2015-02-12 19:48:30.898";"1";;;;;;;;;;;;;;;;;;;;;
"p1a2r3i4s5";"1992";;"Windows 7";"Rachel's Experiment (DP)";"1.0";"3";"1";"1";"3";"1";"1";"2015-02-12 19:38:58.220";"2015-02-12 19:51:08.988";"1";"0";"2";"144";"143";"module.training_block4.exec-3634.GoNoGo4";;;;;;;;;;;;;;;;;;;;;;;;;;;;;;;;;;;;;;;;;;;;;;;;"1250";"2015-02-12 19:48:34.692";"NST_correctLoc";"27";"1";"FINISHED";"RIGHT";"success";"305";"0";"2015-02-12 19:48:33.441";"3";;;;;;;;;;;;;;;;;;;;;
"p1a2r3i4s5";"1992";;"Windows 7";"Rachel's Experiment (DP)";"1.0";"3";"1";"1";"3";"1";"1";"2015-02-12 19:38:58.220";"2015-02-12 19:51:08.988";"1";"0";"2";"145";"144";"module.training_block4.exec-3634.GoNoGo4";;;;;;;;;;;;;;;;;;;;;;;;;;;;;;;;;;;;;;;;;;;;;;;;"1250";"2015-02-12 19:48:37.236";"NST_correctLoc";"25";"0";"FINISHED";"LEFT";"success";"385";"0";"2015-02-12 19:48:35.986";"3";;;;;;;;;;;;;;;;;;;;;
"p1a2r3i4s5";"1992";;"Windows 7";"Rachel's Experiment (DP)";"1.0";"3";"1";"1";"3";"1";"1";"2015-02-12 19:38:58.220";"2015-02-12 19:51:08.988";"1";"0";"2";"146";"145";"module.training_block4.exec-3634.GoNoGo4";;;;;;;;;;;;;;;;;;;;;;;;;;;;;;;;;;;;;;;;;;;;;;;;"1249";"2015-02-12 19:48:39.791";"NST_correctLoc";"33";"0";"FINISHED";"LEFT";"success";"258";"0";"2015-02-12 19:48:38.540";"3";;;;;;;;;;;;;;;;;;;;;
"p1a2r3i4s5";"1992";;"Windows 7";"Rachel's Experiment (DP)";"1.0";"3";"1";"1";"3";"1";"1";"2015-02-12 19:38:58.220";"2015-02-12 19:51:08.988";"1";"0";"2";"147";"146";"module.training_block4.exec-3634.GoNoGo4";;;;;;;;;;;;;;;;;;;;;;;;;;;;;;;;;;;;;;;;;;;;;;;;"1250";"2015-02-12 19:48:42.329";"NST_correctLoc";"6";"0";"FINISHED";"LEFT";"success";"430";"0";"2015-02-12 19:48:41.079";"1";;;;;;;;;;;;;;;;;;;;;
"p1a2r3i4s5";"1992";;"Windows 7";"Rachel's Experiment (DP)";"1.0";"3";"1";"1";"3";"1";"1";"2015-02-12 19:38:58.220";"2015-02-12 19:51:08.988";"1";"0";"2";"148";"147";"module.training_block4.exec-3634.GoNoGo4";;;;;;;;;;;;;;;;;;;;;;;;;;;;;;;;;;;;;;;;;;;;;;;;"1249";"2015-02-12 19:48:44.865";"NST_miss";"11";"1";"FINISHED";"NONE";"failure";"0";"0";"2015-02-12 19:48:43.615";"2";;;;;;;;;;;;;;;;;;;;;
"p1a2r3i4s5";"1992";;"Windows 7";"Rachel's Experiment (DP)";"1.0";"3";"1";"1";"3";"1";"1";"2015-02-12 19:38:58.220";"2015-02-12 19:51:08.988";"1";"0";"2";"149";"148";"module.training_block4.exec-3634.GoNoGo4";;;;;;;;;;;;;;;;;;;;;;;;;;;;;;;;;;;;;;;;;;;;;;;;"1249";"2015-02-12 19:48:47.403";"NST_correctLoc";"21";"0";"FINISHED";"LEFT";"success";"399";"0";"2015-02-12 19:48:46.153";"3";;;;;;;;;;;;;;;;;;;;;
"p1a2r3i4s5";"1992";;"Windows 7";"Rachel's Experiment (DP)";"1.0";"3";"1";"1";"3";"1";"1";"2015-02-12 19:38:58.220";"2015-02-12 19:51:08.988";"1";"0";"2";"150";"149";"module.training_block4.exec-3634.GoNoGo4";;;;;;;;;;;;;;;;;;;;;;;;;;;;;;;;;;;;;;;;;;;;;;;;"1249";"2015-02-12 19:48:49.938";"NST_correctLoc";"4";"1";"FINISHED";"RIGHT";"success";"309";"0";"2015-02-12 19:48:48.688";"1";;;;;;;;;;;;;;;;;;;;;
"p1a2r3i4s5";"1992";;"Windows 7";"Rachel's Experiment (DP)";"1.0";"3";"1";"1";"3";"1";"1";"2015-02-12 19:38:58.220";"2015-02-12 19:51:08.988";"1";"0";"2";"151";"150";"module.training_block4.exec-3634.GoNoGo4";;;;;;;;;;;;;;;;;;;;;;;;;;;;;;;;;;;;;;;;;;;;;;;;"1249";"2015-02-12 19:48:52.474";"NST_correctLoc";"5";"0";"FINISHED";"LEFT";"success";"276";"0";"2015-02-12 19:48:51.224";"1";;;;;;;;;;;;;;;;;;;;;
"p1a2r3i4s5";"1992";;"Windows 7";"Rachel's Experiment (DP)";"1.0";"3";"1";"1";"3";"1";"1";"2015-02-12 19:38:58.220";"2015-02-12 19:51:08.988";"1";"0";"2";"152";"151";"module.training_block4.exec-3634.GoNoGo4";;;;;;;;;;;;;;;;;;;;;;;;;;;;;;;;;;;;;;;;;;;;;;;;"1250";"2015-02-12 19:48:55.015";"NST_correctLoc";"29";"0";"FINISHED";"LEFT";"success";"289";"0";"2015-02-12 19:48:53.765";"3";;;;;;;;;;;;;;;;;;;;;
"p1a2r3i4s5";"1992";;"Windows 7";"Rachel's Experiment (DP)";"1.0";"3";"1";"1";"3";"1";"1";"2015-02-12 19:38:58.220";"2015-02-12 19:51:08.988";"1";"0";"2";"153";"152";"module.training_block4.exec-3634.GoNoGo4";;;;;;;;;;;;;;;;;;;;;;;;;;;;;;;;;;;;;;;;;;;;;;;;"1250";"2015-02-12 19:48:57.551";"NST_correctLoc";"8";"1";"FINISHED";"RIGHT";"success";"279";"0";"2015-02-12 19:48:56.300";"1";;;;;;;;;;;;;;;;;;;;;
"p1a2r3i4s5";"1992";;"Windows 7";"Rachel's Experiment (DP)";"1.0";"3";"1";"1";"3";"1";"1";"2015-02-12 19:38:58.220";"2015-02-12 19:51:08.988";"1";"0";"2";"154";"153";"module.training_block4.exec-3634.GoNoGo4";;;;;;;;;;;;;;;;;;;;;;;;;;;;;;;;;;;;;;;;;;;;;;;;"1249";"2015-02-12 19:49:00.088";"NST_correctLoc";"15";"0";"FINISHED";"LEFT";"success";"372";"0";"2015-02-12 19:48:58.838";"2";;;;;;;;;;;;;;;;;;;;;
"p1a2r3i4s5";"1992";;"Windows 7";"Rachel's Experiment (DP)";"1.0";"3";"1";"1";"3";"1";"1";"2015-02-12 19:38:58.220";"2015-02-12 19:51:08.988";"1";"0";"2";"155";"154";"module.training_block4.exec-3634.GoNoGo4";;;;;;;;;;;;;;;;;;;;;;;;;;;;;;;;;;;;;;;;;;;;;;;;"1250";"2015-02-12 19:49:02.637";"NST_correctLoc";"20";"1";"FINISHED";"RIGHT";"success";"258";"0";"2015-02-12 19:49:01.386";"3";;;;;;;;;;;;;;;;;;;;;
"p1a2r3i4s5";"1992";;"Windows 7";"Rachel's Experiment (DP)";"1.0";"3";"1";"1";"3";"1";"1";"2015-02-12 19:38:58.220";"2015-02-12 19:51:08.988";"1";"0";"2";"156";"155";"module.training_block4.exec-3634.GoNoGo4";;;;;;;;;;;;;;;;;;;;;;;;;;;;;;;;;;;;;;;;;;;;;;;;"1249";"2015-02-12 19:49:05.174";"NST_correctLoc";"13";"1";"FINISHED";"RIGHT";"success";"391";"0";"2015-02-12 19:49:03.924";"2";;;;;;;;;;;;;;;;;;;;;
"p1a2r3i4s5";"1992";;"Windows 7";"Rachel's Experiment (DP)";"1.0";"3";"1";"1";"3";"1";"1";"2015-02-12 19:38:58.220";"2015-02-12 19:51:08.988";"1";"0";"2";"157";"156";"module.training_block4.exec-3634.GoNoGo4";;;;;;;;;;;;;;;;;;;;;;;;;;;;;;;;;;;;;;;;;;;;;;;;"1249";"2015-02-12 19:49:07.715";"NST_correctLoc";"22";"1";"FINISHED";"RIGHT";"success";"309";"0";"2015-02-12 19:49:06.465";"3";;;;;;;;;;;;;;;;;;;;;
"p1a2r3i4s5";"1992";;"Windows 7";"Rachel's Experiment (DP)";"1.0";"3";"1";"1";"3";"1";"1";"2015-02-12 19:38:58.220";"2015-02-12 19:51:08.988";"1";"0";"2";"158";"157";"module.training_block4.exec-3634.GoNoGo4";;;;;;;;;;;;;;;;;;;;;;;;;;;;;;;;;;;;;;;;;;;;;;;;"1250";"2015-02-12 19:49:10.254";"NST_correctLoc";"34";"1";"FINISHED";"RIGHT";"success";"402";"0";"2015-02-12 19:49:09.004";"3";;;;;;;;;;;;;;;;;;;;;
"p1a2r3i4s5";"1992";;"Windows 7";"Rachel's Experiment (DP)";"1.0";"3";"1";"1";"3";"1";"1";"2015-02-12 19:38:58.220";"2015-02-12 19:51:08.988";"1";"0";"2";"159";"158";"module.training_block4.exec-3634.GoNoGo4";;;;;;;;;;;;;;;;;;;;;;;;;;;;;;;;;;;;;;;;;;;;;;;;"1249";"2015-02-12 19:49:12.792";"NST_correctLoc";"16";"1";"FINISHED";"RIGHT";"success";"367";"0";"2015-02-12 19:49:11.542";"2";;;;;;;;;;;;;;;;;;;;;
"p1a2r3i4s5";"1992";;"Windows 7";"Rachel's Experiment (DP)";"1.0";"3";"1";"1";"3";"1";"1";"2015-02-12 19:38:58.220";"2015-02-12 19:51:08.988";"1";"0";"2";"160";"159";"module.DP_Practice.exec-2679.DP_practice";"3022";"2015-02-12 19:50:08.997";"FINISHED";"2";"RIGHT";"success";"1825";"2015-02-12 19:50:05.973";"250";"N18";"N17";;;;;;;;;;;;;;;;;;;;;;;;;;;;;;;;;;;;;;;;;;;;;;;;;;;;;;;;;;;;;;;;;;;;;
"p1a2r3i4s5";"1992";;"Windows 7";"Rachel's Experiment (DP)";"1.0";"3";"1";"1";"3";"1";"1";"2015-02-12 19:38:58.220";"2015-02-12 19:51:08.988";"1";"0";"2";"161";"160";"module.DP_Practice.exec-2679.DP_practice";"3007";"2015-02-12 19:50:12.346";"FINISHED";"1";"LEFT";"success";"1311";"2015-02-12 19:50:09.338";"250";"N11";"N12";;;;;;;;;;;;;;;;;;;;;;;;;;;;;;;;;;;;;;;;;;;;;;;;;;;;;;;;;;;;;;;;;;;;;
"p1a2r3i4s5";"1992";;"Windows 7";"Rachel's Experiment (DP)";"1.0";"3";"1";"1";"3";"1";"1";"2015-02-12 19:38:58.220";"2015-02-12 19:51:08.988";"1";"0";"2";"162";"161";"module.DP_Practice.exec-2679.DP_practice";"3006";"2015-02-12 19:50:15.651";"FINISHED";"1";"LEFT";"success";"434";"2015-02-12 19:50:12.644";"250";"N12";"N11";;;;;;;;;;;;;;;;;;;;;;;;;;;;;;;;;;;;;;;;;;;;;;;;;;;;;;;;;;;;;;;;;;;;;
"p1a2r3i4s5";"1992";;"Windows 7";"Rachel's Experiment (DP)";"1.0";"3";"1";"1";"3";"1";"1";"2015-02-12 19:38:58.220";"2015-02-12 19:51:08.988";"1";"0";"2";"163";"162";"module.DP_Practice.exec-2679.DP_practice";"3007";"2015-02-12 19:50:19.007";"FINISHED";"2";"RIGHT";"success";"469";"2015-02-12 19:50:15.999";"250";"N19";"N20";;;;;;;;;;;;;;;;;;;;;;;;;;;;;;;;;;;;;;;;;;;;;;;;;;;;;;;;;;;;;;;;;;;;;
"p1a2r3i4s5";"1992";;"Windows 7";"Rachel's Experiment (DP)";"1.0";"3";"1";"1";"3";"1";"1";"2015-02-12 19:38:58.220";"2015-02-12 19:51:08.988";"1";"0";"2";"164";"163";"module.DP_Practice.exec-2679.DP_practice";"3008";"2015-02-12 19:50:22.360";"FINISHED";"2";"RIGHT";"success";"418";"2015-02-12 19:50:19.352";"250";"N14";"N13";;;;;;;;;;;;;;;;;;;;;;;;;;;;;;;;;;;;;;;;;;;;;;;;;;;;;;;;;;;;;;;;;;;;;
"p1a2r3i4s5";"1992";;"Windows 7";"Rachel's Experiment (DP)";"1.0";"3";"1";"1";"3";"1";"1";"2015-02-12 19:38:58.220";"2015-02-12 19:51:08.988";"1";"0";"2";"165";"164";"module.DP_Practice.exec-2679.DP_practice";"3007";"2015-02-12 19:50:25.713";"FINISHED";"1";"LEFT";"success";"365";"2015-02-12 19:50:22.705";"250";"N5";"N6";;;;;;;;;;;;;;;;;;;;;;;;;;;;;;;;;;;;;;;;;;;;;;;;;;;;;;;;;;;;;;;;;;;;;
"p1a2r3i4s5";"1992";;"Windows 7";"Rachel's Experiment (DP)";"1.0";"3";"1";"1";"3";"1";"1";"2015-02-12 19:38:58.220";"2015-02-12 19:51:08.988";"1";"0";"2";"166";"165";"module.DP_Practice.exec-2679.DP_practice";"3009";"2015-02-12 19:50:29.024";"FINISHED";"1";"LEFT";"success";"389";"2015-02-12 19:50:26.015";"250";"N17";"N18";;;;;;;;;;;;;;;;;;;;;;;;;;;;;;;;;;;;;;;;;;;;;;;;;;;;;;;;;;;;;;;;;;;;;
"p1a2r3i4s5";"1992";;"Windows 7";"Rachel's Experiment (DP)";"1.0";"3";"1";"1";"3";"1";"1";"2015-02-12 19:38:58.220";"2015-02-12 19:51:08.988";"1";"0";"2";"167";"166";"module.DP_Practice.exec-2679.DP_practice";"3007";"2015-02-12 19:50:32.327";"FINISHED";"2";"RIGHT";"success";"413";"2015-02-12 19:50:29.320";"250";"N13";"N14";;;;;;;;;;;;;;;;;;;;;;;;;;;;;;;;;;;;;;;;;;;;;;;;;;;;;;;;;;;;;;;;;;;;;
"p1a2r3i4s5";"1992";;"Windows 7";"Rachel's Experiment (DP)";"1.0";"3";"1";"1";"3";"1";"1";"2015-02-12 19:38:58.220";"2015-02-12 19:51:08.988";"1";"0";"2";"168";"167";"module.DP_Practice.exec-2679.DP_practice";"3007";"2015-02-12 19:50:35.697";"FINISHED";"1";"LEFT";"success";"314";"2015-02-12 19:50:32.689";"250";"N2";"N1";;;;;;;;;;;;;;;;;;;;;;;;;;;;;;;;;;;;;;;;;;;;;;;;;;;;;;;;;;;;;;;;;;;;;
"p1a2r3i4s5";"1992";;"Windows 7";"Rachel's Experiment (DP)";"1.0";"3";"1";"1";"3";"1";"1";"2015-02-12 19:38:58.220";"2015-02-12 19:51:08.988";"1";"0";"2";"169";"168";"module.DP_Practice.exec-2679.DP_practice";"3009";"2015-02-12 19:50:39.070";"FINISHED";"1";"LEFT";"success";"326";"2015-02-12 19:50:36.060";"250";"N4";"N3";;;;;;;;;;;;;;;;;;;;;;;;;;;;;;;;;;;;;;;;;;;;;;;;;;;;;;;;;;;;;;;;;;;;;
"p1a2r3i4s5";"1992";;"Windows 7";"Rachel's Experiment (DP)";"1.0";"3";"1";"1";"3";"1";"1";"2015-02-12 19:38:58.220";"2015-02-12 19:51:08.988";"1";"0";"2";"170";"169";"module.DP_Practice.exec-2679.DP_practice";"3009";"2015-02-12 19:50:42.441";"FINISHED";"1";"LEFT";"success";"513";"2015-02-12 19:50:39.430";"250";"N10";"N9";;;;;;;;;;;;;;;;;;;;;;;;;;;;;;;;;;;;;;;;;;;;;;;;;;;;;;;;;;;;;;;;;;;;;
"p1a2r3i4s5";"1992";;"Windows 7";"Rachel's Experiment (DP)";"1.0";"3";"1";"1";"3";"1";"1";"2015-02-12 19:38:58.220";"2015-02-12 19:51:08.988";"1";"0";"2";"171";"170";"module.DP_Practice.exec-2679.DP_practice";"3006";"2015-02-12 19:50:45.763";"FINISHED";"2";"RIGHT";"success";"392";"2015-02-12 19:50:42.756";"250";"N20";"N19";;;;;;;;;;;;;;;;;;;;;;;;;;;;;;;;;;;;;;;;;;;;;;;;;;;;;;;;;;;;;;;;;;;;;
"p1a2r3i4s5";"1992";;"Windows 7";"Rachel's Experiment (DP)";"1.0";"3";"1";"1";"3";"1";"1";"2015-02-12 19:38:58.220";"2015-02-12 19:51:08.988";"1";"0";"2";"172";"171";"module.DP_Practice.exec-2679.DP_practice";"3007";"2015-02-12 19:50:49.066";"FINISHED";"2";"RIGHT";"success";"445";"2015-02-12 19:50:46.059";"250";"N1";"N2";;;;;;;;;;;;;;;;;;;;;;;;;;;;;;;;;;;;;;;;;;;;;;;;;;;;;;;;;;;;;;;;;;;;;
"p1a2r3i4s5";"1992";;"Windows 7";"Rachel's Experiment (DP)";"1.0";"3";"1";"1";"3";"1";"1";"2015-02-12 19:38:58.220";"2015-02-12 19:51:08.988";"1";"0";"2";"173";"172";"module.DP_Practice.exec-2679.DP_practice";"3010";"2015-02-12 19:50:52.374";"FINISHED";"2";"RIGHT";"success";"421";"2015-02-12 19:50:49.364";"250";"N3";"N4";;;;;;;;;;;;;;;;;;;;;;;;;;;;;;;;;;;;;;;;;;;;;;;;;;;;;;;;;;;;;;;;;;;;;
"p1a2r3i4s5";"1992";;"Windows 7";"Rachel's Experiment (DP)";"1.0";"3";"1";"1";"3";"1";"1";"2015-02-12 19:38:58.220";"2015-02-12 19:51:08.988";"1";"0";"2";"174";"173";"module.DP_Practice.exec-2679.DP_practice";"3006";"2015-02-12 19:50:55.729";"FINISHED";"2";"RIGHT";"success";"917";"2015-02-12 19:50:52.722";"250";"N7";"N8";;;;;;;;;;;;;;;;;;;;;;;;;;;;;;;;;;;;;;;;;;;;;;;;;;;;;;;;;;;;;;;;;;;;;
"p1a2r3i4s5";"1992";;"Windows 7";"Rachel's Experiment (DP)";"1.0";"3";"1";"1";"3";"1";"1";"2015-02-12 19:38:58.220";"2015-02-12 19:51:08.988";"1";"0";"2";"175";"174";"module.DP_Practice.exec-2679.DP_practice";"3008";"2015-02-12 19:50:59.038";"FINISHED";"1";"LEFT";"success";"536";"2015-02-12 19:50:56.030";"250";"N6";"N5";;;;;;;;;;;;;;;;;;;;;;;;;;;;;;;;;;;;;;;;;;;;;;;;;;;;;;;;;;;;;;;;;;;;;
"p1a2r3i4s5";"1992";;"Windows 7";"Rachel's Experiment (DP)";"1.0";"3";"1";"1";"3";"1";"1";"2015-02-12 19:38:58.220";"2015-02-12 19:51:08.988";"1";"0";"2";"176";"175";"module.DP_Practice.exec-2679.DP_practice";"3007";"2015-02-12 19:51:02.340";"FINISHED";"1";"LEFT";"success";"445";"2015-02-12 19:50:59.332";"250";"N9";"N10";;;;;;;;;;;;;;;;;;;;;;;;;;;;;;;;;;;;;;;;;;;;;;;;;;;;;;;;;;;;;;;;;;;;;
"p1a2r3i4s5";"1992";;"Windows 7";"Rachel's Experiment (DP)";"1.0";"3";"1";"1";"3";"1";"1";"2015-02-12 19:38:58.220";"2015-02-12 19:51:08.988";"1";"0";"2";"177";"176";"module.DP_Practice.exec-2679.DP_practice";"3009";"2015-02-12 19:51:05.695";"FINISHED";"1";"LEFT";"success";"414";"2015-02-12 19:51:02.685";"250";"N16";"N15";;;;;;;;;;;;;;;;;;;;;;;;;;;;;;;;;;;;;;;;;;;;;;;;;;;;;;;;;;;;;;;;;;;;;
"p1a2r3i4s5";"1992";;"Windows 7";"Rachel's Experiment (DP)";"1.0";"3";"1";"1";"3";"1";"1";"2015-02-12 19:38:58.220";"2015-02-12 19:51:08.988";"1";"0";"2";"178";"177";"module.DP_Practice.exec-2679.DP_practice";;;;;;;;;;;;;;;;;;;;;;;;;;;;;;;;;;;;;;;;;;;;;;;;;;;;;;;;;;;;;;;;;;;;;;;;;;;;;;;;
