"user.name";"user.yearOfBirth";"user.sex";"user.osName";"module.name";"module.version";"module.online.subject.code";"module.online.study.id";"module.online.module.nr";"module.online.group.nr";"session.id";"session.index";"session.startTime";"session.endTime";"session.completed";"session.node-1326.DPorder";"session.node-6631.conditionType";"trial.id";"trial.index";"trial.name";"trial.DP_block1.durationTime";"trial.DP_block1.endTime";"trial.DP_block1.outcome";"trial.DP_block1.probeLoc";"trial.DP_block1.response";"trial.DP_block1.result";"trial.DP_block1.RT";"trial.DP_block1.startTime";"trial.DP_block1.stimDuration";"trial.DP_block1.wordLeft";"trial.DP_block1.wordRight";"trial.DP_block2.durationTime";"trial.DP_block2.endTime";"trial.DP_block2.outcome";"trial.DP_block2.probeLoc";"trial.DP_block2.response";"trial.DP_block2.result";"trial.DP_block2.RT";"trial.DP_block2.startTime";"trial.DP_block2.stimDuration";"trial.DP_block2.wordLeft";"trial.DP_block2.wordRight";"trial.DP_block3.durationTime";"trial.DP_block3.endTime";"trial.DP_block3.outcome";"trial.DP_block3.probeLoc";"trial.DP_block3.response";"trial.DP_block3.result";"trial.DP_block3.RT";"trial.DP_block3.startTime";"trial.DP_block3.stimDuration";"trial.DP_block3.wordLeft";"trial.DP_block3.wordRight";"trial.DP_practice.durationTime";"trial.DP_practice.endTime";"trial.DP_practice.outcome";"trial.DP_practice.probeLoc";"trial.DP_practice.response";"trial.DP_practice.result";"trial.DP_practice.RT";"trial.DP_practice.startTime";"trial.DP_practice.stimDuration";"trial.DP_practice.wordLeft";"trial.DP_practice.wordRight";"trial.GoNoGo1.durationTime";"trial.GoNoGo1.endTime";"trial.GoNoGo1.Error Type";"trial.GoNoGo1.icon";"trial.GoNoGo1.location";"trial.GoNoGo1.outcome";"trial.GoNoGo1.response";"trial.GoNoGo1.result";"trial.GoNoGo1.RT";"trial.GoNoGo1.signal";"trial.GoNoGo1.startTime";"trial.GoNoGo1.stimulus type";"trial.GoNoGo2.durationTime";"trial.GoNoGo2.endTime";"trial.GoNoGo2.Error Type";"trial.GoNoGo2.icon";"trial.GoNoGo2.location";"trial.GoNoGo2.outcome";"trial.GoNoGo2.response";"trial.GoNoGo2.result";"trial.GoNoGo2.RT";"trial.GoNoGo2.signal";"trial.GoNoGo2.startTime";"trial.GoNoGo2.stimulus type";"trial.GoNoGo3.durationTime";"trial.GoNoGo3.endTime";"trial.GoNoGo3.Error Type";"trial.GoNoGo3.icon";"trial.GoNoGo3.location";"trial.GoNoGo3.outcome";"trial.GoNoGo3.response";"trial.GoNoGo3.result";"trial.GoNoGo3.RT";"trial.GoNoGo3.signal";"trial.GoNoGo3.startTime";"trial.GoNoGo3.stimulus type";"trial.GoNoGo4.durationTime";"trial.GoNoGo4.endTime";"trial.GoNoGo4.Error Type";"trial.GoNoGo4.icon";"trial.GoNoGo4.location";"trial.GoNoGo4.outcome";"trial.GoNoGo4.response";"trial.GoNoGo4.result";"trial.GoNoGo4.RT";"trial.GoNoGo4.signal";"trial.GoNoGo4.startTime";"trial.GoNoGo4.stimulus type";"trial.GoNoGo_Practice.durationTime";"trial.GoNoGo_Practice.endTime";"trial.GoNoGo_Practice.icon";"trial.GoNoGo_Practice.location";"trial.GoNoGo_Practice.outcome";"trial.GoNoGo_Practice.response";"trial.GoNoGo_Practice.result";"trial.GoNoGo_Practice.RT";"trial.GoNoGo_Practice.signal";"trial.GoNoGo_Practice.startTime";"trial.GoNoGo_Practice.stimulus type";"trial.GoNoGo_Tutorial.durationTime";"trial.GoNoGo_Tutorial.endTime";"trial.GoNoGo_Tutorial.icon";"trial.GoNoGo_Tutorial.location";"trial.GoNoGo_Tutorial.outcome";"trial.GoNoGo_Tutorial.response";"trial.GoNoGo_Tutorial.result";"trial.GoNoGo_Tutorial.RT";"trial.GoNoGo_Tutorial.signal";"trial.GoNoGo_Tutorial.startTime"
"c1300631";;;"Windows 7";"Rachel's Experiment (DP)";"1.0";"3";"1";"1";"3";"1";"1";"2015-02-11 18:02:05.907";"2015-02-11 18:26:10.782";"1";"2";"0";"1";"0";"module.GoNoGotutorial.exec-5409.GoNoGo_Tutorial";;;;;;;;;;;;;;;;;;;;;;;;;;;;;;;;;;;;;;;;;;;;;;;;;;;;;;;;;;;;;;;;;;;;;;;;;;;;;;;;;;;;;;;;;;;;;;;;;;;;;;;;"3998";"2015-02-11 18:03:47.027";"leftResponse";"0";"FINISHED";"LEFT";"success";"662";"0";"2015-02-11 18:03:43.018"
"c1300631";;;"Windows 7";"Rachel's Experiment (DP)";"1.0";"3";"1";"1";"3";"1";"1";"2015-02-11 18:02:05.907";"2015-02-11 18:26:10.782";"1";"2";"0";"2";"1";"module.GoNoGotutorial.exec-5409.GoNoGo_Tutorial";;;;;;;;;;;;;;;;;;;;;;;;;;;;;;;;;;;;;;;;;;;;;;;;;;;;;;;;;;;;;;;;;;;;;;;;;;;;;;;;;;;;;;;;;;;;;;;;;;;;;;;;"4002";"2015-02-11 18:03:52.331";"rightResponse";"1";"FINISHED";"RIGHT";"success";"1659";"0";"2015-02-11 18:03:48.322"
"c1300631";;;"Windows 7";"Rachel's Experiment (DP)";"1.0";"3";"1";"1";"3";"1";"1";"2015-02-11 18:02:05.907";"2015-02-11 18:26:10.782";"1";"2";"0";"3";"2";"module.GoNoGotutorial.exec-5409.GoNoGo_Tutorial";;;;;;;;;;;;;;;;;;;;;;;;;;;;;;;;;;;;;;;;;;;;;;;;;;;;;;;;;;;;;;;;;;;;;;;;;;;;;;;;;;;;;;;;;;;;;;;;;;;;;;;;"4003";"2015-02-11 18:03:57.635";"quickResponse";"0";"FINISHED";"NONE";"failure";"0";"0";"2015-02-11 18:03:53.626"
"c1300631";;;"Windows 7";"Rachel's Experiment (DP)";"1.0";"3";"1";"1";"3";"1";"1";"2015-02-11 18:02:05.907";"2015-02-11 18:26:10.782";"1";"2";"0";"4";"3";"module.GoNoGopractice.exec-9349.GoNoGo_Practice";;;;;;;;;;;;;;;;;;;;;;;;;;;;;;;;;;;;;;;;;;;;;;;;;;;;;;;;;;;;;;;;;;;;;;;;;;;;;;;;;;;;;;;;;;;;;"1958";"2015-02-11 18:04:08.820";"18";"0";"FINISHED";"LEFT";"success";"573";"0";"2015-02-11 18:04:06.854";"3";;;;;;;;;;
"c1300631";;;"Windows 7";"Rachel's Experiment (DP)";"1.0";"3";"1";"1";"3";"1";"1";"2015-02-11 18:02:05.907";"2015-02-11 18:26:10.782";"1";"2";"0";"5";"4";"module.GoNoGopractice.exec-9349.GoNoGo_Practice";;;;;;;;;;;;;;;;;;;;;;;;;;;;;;;;;;;;;;;;;;;;;;;;;;;;;;;;;;;;;;;;;;;;;;;;;;;;;;;;;;;;;;;;;;;;;"1959";"2015-02-11 18:04:12.065";"21";"1";"FINISHED";"RIGHT";"success";"321";"0";"2015-02-11 18:04:10.099";"3";;;;;;;;;;
"c1300631";;;"Windows 7";"Rachel's Experiment (DP)";"1.0";"3";"1";"1";"3";"1";"1";"2015-02-11 18:02:05.907";"2015-02-11 18:26:10.782";"1";"2";"0";"6";"5";"module.GoNoGopractice.exec-9349.GoNoGo_Practice";;;;;;;;;;;;;;;;;;;;;;;;;;;;;;;;;;;;;;;;;;;;;;;;;;;;;;;;;;;;;;;;;;;;;;;;;;;;;;;;;;;;;;;;;;;;;"1959";"2015-02-11 18:04:15.310";"14";"1";"FINISHED";"RIGHT";"success";"412";"0";"2015-02-11 18:04:13.344";"2";;;;;;;;;;
"c1300631";;;"Windows 7";"Rachel's Experiment (DP)";"1.0";"3";"1";"1";"3";"1";"1";"2015-02-11 18:02:05.907";"2015-02-11 18:26:10.782";"1";"2";"0";"7";"6";"module.GoNoGopractice.exec-9349.GoNoGo_Practice";;;;;;;;;;;;;;;;;;;;;;;;;;;;;;;;;;;;;;;;;;;;;;;;;;;;;;;;;;;;;;;;;;;;;;;;;;;;;;;;;;;;;;;;;;;;;"1959";"2015-02-11 18:04:18.554";"26";"0";"FINISHED";"LEFT";"success";"496";"0";"2015-02-11 18:04:16.589";"3";;;;;;;;;;
"c1300631";;;"Windows 7";"Rachel's Experiment (DP)";"1.0";"3";"1";"1";"3";"1";"1";"2015-02-11 18:02:05.907";"2015-02-11 18:26:10.782";"1";"2";"0";"8";"7";"module.GoNoGopractice.exec-9349.GoNoGo_Practice";;;;;;;;;;;;;;;;;;;;;;;;;;;;;;;;;;;;;;;;;;;;;;;;;;;;;;;;;;;;;;;;;;;;;;;;;;;;;;;;;;;;;;;;;;;;;"1959";"2015-02-11 18:04:21.799";"2";"0";"FINISHED";"LEFT";"success";"451";"0";"2015-02-11 18:04:19.834";"1";;;;;;;;;;
"c1300631";;;"Windows 7";"Rachel's Experiment (DP)";"1.0";"3";"1";"1";"3";"1";"1";"2015-02-11 18:02:05.907";"2015-02-11 18:26:10.782";"1";"2";"0";"9";"8";"module.GoNoGopractice.exec-9349.GoNoGo_Practice";;;;;;;;;;;;;;;;;;;;;;;;;;;;;;;;;;;;;;;;;;;;;;;;;;;;;;;;;;;;;;;;;;;;;;;;;;;;;;;;;;;;;;;;;;;;;"1959";"2015-02-11 18:04:25.044";"30";"0";"FINISHED";"LEFT";"success";"511";"0";"2015-02-11 18:04:23.078";"3";;;;;;;;;;
"c1300631";;;"Windows 7";"Rachel's Experiment (DP)";"1.0";"3";"1";"1";"3";"1";"1";"2015-02-11 18:02:05.907";"2015-02-11 18:26:10.782";"1";"2";"0";"10";"9";"module.GoNoGopractice.exec-9349.GoNoGo_Practice";;;;;;;;;;;;;;;;;;;;;;;;;;;;;;;;;;;;;;;;;;;;;;;;;;;;;;;;;;;;;;;;;;;;;;;;;;;;;;;;;;;;;;;;;;;;;"1959";"2015-02-11 18:04:28.289";"6";"1";"FINISHED";"RIGHT";"success";"337";"0";"2015-02-11 18:04:26.323";"1";;;;;;;;;;
"c1300631";;;"Windows 7";"Rachel's Experiment (DP)";"1.0";"3";"1";"1";"3";"1";"1";"2015-02-11 18:02:05.907";"2015-02-11 18:26:10.782";"1";"2";"0";"11";"10";"module.GoNoGopractice.exec-9349.GoNoGo_Practice";;;;;;;;;;;;;;;;;;;;;;;;;;;;;;;;;;;;;;;;;;;;;;;;;;;;;;;;;;;;;;;;;;;;;;;;;;;;;;;;;;;;;;;;;;;;;"1960";"2015-02-11 18:04:31.534";"34";"0";"FINISHED";"LEFT";"success";"382";"0";"2015-02-11 18:04:29.568";"3";;;;;;;;;;
"c1300631";;;"Windows 7";"Rachel's Experiment (DP)";"1.0";"3";"1";"1";"3";"1";"1";"2015-02-11 18:02:05.907";"2015-02-11 18:26:10.782";"1";"2";"0";"12";"11";"module.GoNoGopractice.exec-9349.GoNoGo_Practice";;;;;;;;;;;;;;;;;;;;;;;;;;;;;;;;;;;;;;;;;;;;;;;;;;;;;;;;;;;;;;;;;;;;;;;;;;;;;;;;;;;;;;;;;;;;;"1959";"2015-02-11 18:04:34.778";"23";"1";"FINISHED";"RIGHT";"success";"368";"0";"2015-02-11 18:04:32.813";"3";;;;;;;;;;
"c1300631";;;"Windows 7";"Rachel's Experiment (DP)";"1.0";"3";"1";"1";"3";"1";"1";"2015-02-11 18:02:05.907";"2015-02-11 18:26:10.782";"1";"2";"0";"13";"12";"module.GoNoGopractice.exec-9349.GoNoGo_Practice";;;;;;;;;;;;;;;;;;;;;;;;;;;;;;;;;;;;;;;;;;;;;;;;;;;;;;;;;;;;;;;;;;;;;;;;;;;;;;;;;;;;;;;;;;;;;"1958";"2015-02-11 18:04:38.023";"13";"0";"FINISHED";"LEFT";"success";"538";"0";"2015-02-11 18:04:36.058";"2";;;;;;;;;;
"c1300631";;;"Windows 7";"Rachel's Experiment (DP)";"1.0";"3";"1";"1";"3";"1";"1";"2015-02-11 18:02:05.907";"2015-02-11 18:26:10.782";"1";"2";"0";"14";"13";"module.GoNoGopractice.exec-9349.GoNoGo_Practice";;;;;;;;;;;;;;;;;;;;;;;;;;;;;;;;;;;;;;;;;;;;;;;;;;;;;;;;;;;;;;;;;;;;;;;;;;;;;;;;;;;;;;;;;;;;;"1954";"2015-02-11 18:04:41.268";"3";"1";"FINISHED";"RIGHT";"success";"377";"0";"2015-02-11 18:04:39.303";"1";;;;;;;;;;
"c1300631";;;"Windows 7";"Rachel's Experiment (DP)";"1.0";"3";"1";"1";"3";"1";"1";"2015-02-11 18:02:05.907";"2015-02-11 18:26:10.782";"1";"2";"0";"15";"14";"module.GoNoGopractice.exec-9349.GoNoGo_Practice";;;;;;;;;;;;;;;;;;;;;;;;;;;;;;;;;;;;;;;;;;;;;;;;;;;;;;;;;;;;;;;;;;;;;;;;;;;;;;;;;;;;;;;;;;;;;"1959";"2015-02-11 18:04:44.513";"27";"1";"FINISHED";"RIGHT";"success";"466";"0";"2015-02-11 18:04:42.547";"3";;;;;;;;;;
"c1300631";;;"Windows 7";"Rachel's Experiment (DP)";"1.0";"3";"1";"1";"3";"1";"1";"2015-02-11 18:02:05.907";"2015-02-11 18:26:10.782";"1";"2";"0";"16";"15";"module.training_block1.exec-4830.GoNoGo1";;;;;;;;;;;;;;;;;;;;;;;;;;;;;;;;;;;;;;;;;;;;;"1256";"2015-02-11 18:04:55.152";"NST_correctLoc";"24";"1";"FINISHED";"RIGHT";"success";"347";"0";"2015-02-11 18:04:53.889";"3";;;;;;;;;;;;;;;;;;;;;;;;;;;;;;;;;;;;;;;;;;;;;;;;;;;;;;;;;
"c1300631";;;"Windows 7";"Rachel's Experiment (DP)";"1.0";"3";"1";"1";"3";"1";"1";"2015-02-11 18:02:05.907";"2015-02-11 18:26:10.782";"1";"2";"0";"17";"16";"module.training_block1.exec-4830.GoNoGo1";;;;;;;;;;;;;;;;;;;;;;;;;;;;;;;;;;;;;;;;;;;;;"1261";"2015-02-11 18:04:57.695";"NST_correctLoc";"2";"0";"FINISHED";"LEFT";"success";"361";"0";"2015-02-11 18:04:56.431";"1";;;;;;;;;;;;;;;;;;;;;;;;;;;;;;;;;;;;;;;;;;;;;;;;;;;;;;;;;
"c1300631";;;"Windows 7";"Rachel's Experiment (DP)";"1.0";"3";"1";"1";"3";"1";"1";"2015-02-11 18:02:05.907";"2015-02-11 18:26:10.782";"1";"2";"0";"18";"17";"module.training_block1.exec-4830.GoNoGo1";;;;;;;;;;;;;;;;;;;;;;;;;;;;;;;;;;;;;;;;;;;;;"1257";"2015-02-11 18:05:00.238";"NST_correctLoc";"7";"1";"FINISHED";"RIGHT";"success";"310";"0";"2015-02-11 18:04:58.974";"1";;;;;;;;;;;;;;;;;;;;;;;;;;;;;;;;;;;;;;;;;;;;;;;;;;;;;;;;;
"c1300631";;;"Windows 7";"Rachel's Experiment (DP)";"1.0";"3";"1";"1";"3";"1";"1";"2015-02-11 18:02:05.907";"2015-02-11 18:26:10.782";"1";"2";"0";"19";"18";"module.training_block1.exec-4830.GoNoGo1";;;;;;;;;;;;;;;;;;;;;;;;;;;;;;;;;;;;;;;;;;;;;"1257";"2015-02-11 18:05:02.781";"NST_correctLoc";"8";"1";"FINISHED";"RIGHT";"success";"416";"0";"2015-02-11 18:05:01.517";"1";;;;;;;;;;;;;;;;;;;;;;;;;;;;;;;;;;;;;;;;;;;;;;;;;;;;;;;;;
"c1300631";;;"Windows 7";"Rachel's Experiment (DP)";"1.0";"3";"1";"1";"3";"1";"1";"2015-02-11 18:02:05.907";"2015-02-11 18:26:10.782";"1";"2";"0";"20";"19";"module.training_block1.exec-4830.GoNoGo1";;;;;;;;;;;;;;;;;;;;;;;;;;;;;;;;;;;;;;;;;;;;;"1261";"2015-02-11 18:05:05.323";"NST_correctLoc";"26";"1";"FINISHED";"RIGHT";"success";"333";"0";"2015-02-11 18:05:04.060";"3";;;;;;;;;;;;;;;;;;;;;;;;;;;;;;;;;;;;;;;;;;;;;;;;;;;;;;;;;
"c1300631";;;"Windows 7";"Rachel's Experiment (DP)";"1.0";"3";"1";"1";"3";"1";"1";"2015-02-11 18:02:05.907";"2015-02-11 18:26:10.782";"1";"2";"0";"21";"20";"module.training_block1.exec-4830.GoNoGo1";;;;;;;;;;;;;;;;;;;;;;;;;;;;;;;;;;;;;;;;;;;;;"1257";"2015-02-11 18:05:07.866";"NST_correctLoc";"1";"1";"FINISHED";"RIGHT";"success";"474";"0";"2015-02-11 18:05:06.603";"1";;;;;;;;;;;;;;;;;;;;;;;;;;;;;;;;;;;;;;;;;;;;;;;;;;;;;;;;;
"c1300631";;;"Windows 7";"Rachel's Experiment (DP)";"1.0";"3";"1";"1";"3";"1";"1";"2015-02-11 18:02:05.907";"2015-02-11 18:26:10.782";"1";"2";"0";"22";"21";"module.training_block1.exec-4830.GoNoGo1";;;;;;;;;;;;;;;;;;;;;;;;;;;;;;;;;;;;;;;;;;;;;"1257";"2015-02-11 18:05:10.409";"NST_correctLoc";"5";"0";"FINISHED";"LEFT";"success";"436";"0";"2015-02-11 18:05:09.145";"1";;;;;;;;;;;;;;;;;;;;;;;;;;;;;;;;;;;;;;;;;;;;;;;;;;;;;;;;;
"c1300631";;;"Windows 7";"Rachel's Experiment (DP)";"1.0";"3";"1";"1";"3";"1";"1";"2015-02-11 18:02:05.907";"2015-02-11 18:26:10.782";"1";"2";"0";"23";"22";"module.training_block1.exec-4830.GoNoGo1";;;;;;;;;;;;;;;;;;;;;;;;;;;;;;;;;;;;;;;;;;;;;"1261";"2015-02-11 18:05:12.952";"NST_correctLoc";"34";"1";"FINISHED";"RIGHT";"success";"393";"0";"2015-02-11 18:05:11.688";"3";;;;;;;;;;;;;;;;;;;;;;;;;;;;;;;;;;;;;;;;;;;;;;;;;;;;;;;;;
"c1300631";;;"Windows 7";"Rachel's Experiment (DP)";"1.0";"3";"1";"1";"3";"1";"1";"2015-02-11 18:02:05.907";"2015-02-11 18:26:10.782";"1";"2";"0";"24";"23";"module.training_block1.exec-4830.GoNoGo1";;;;;;;;;;;;;;;;;;;;;;;;;;;;;;;;;;;;;;;;;;;;;"1257";"2015-02-11 18:05:15.495";"NST_correctLoc";"25";"1";"FINISHED";"RIGHT";"success";"390";"0";"2015-02-11 18:05:14.231";"3";;;;;;;;;;;;;;;;;;;;;;;;;;;;;;;;;;;;;;;;;;;;;;;;;;;;;;;;;
"c1300631";;;"Windows 7";"Rachel's Experiment (DP)";"1.0";"3";"1";"1";"3";"1";"1";"2015-02-11 18:02:05.907";"2015-02-11 18:26:10.782";"1";"2";"0";"25";"24";"module.training_block1.exec-4830.GoNoGo1";;;;;;;;;;;;;;;;;;;;;;;;;;;;;;;;;;;;;;;;;;;;;"1257";"2015-02-11 18:05:18.037";"NST_correctLoc";"20";"0";"FINISHED";"LEFT";"success";"383";"0";"2015-02-11 18:05:16.774";"3";;;;;;;;;;;;;;;;;;;;;;;;;;;;;;;;;;;;;;;;;;;;;;;;;;;;;;;;;
"c1300631";;;"Windows 7";"Rachel's Experiment (DP)";"1.0";"3";"1";"1";"3";"1";"1";"2015-02-11 18:02:05.907";"2015-02-11 18:26:10.782";"1";"2";"0";"26";"25";"module.training_block1.exec-4830.GoNoGo1";;;;;;;;;;;;;;;;;;;;;;;;;;;;;;;;;;;;;;;;;;;;;"1257";"2015-02-11 18:05:20.580";"NST_correctLoc";"0";"1";"FINISHED";"RIGHT";"success";"440";"0";"2015-02-11 18:05:19.317";"1";;;;;;;;;;;;;;;;;;;;;;;;;;;;;;;;;;;;;;;;;;;;;;;;;;;;;;;;;
"c1300631";;;"Windows 7";"Rachel's Experiment (DP)";"1.0";"3";"1";"1";"3";"1";"1";"2015-02-11 18:02:05.907";"2015-02-11 18:26:10.782";"1";"2";"0";"27";"26";"module.training_block1.exec-4830.GoNoGo1";;;;;;;;;;;;;;;;;;;;;;;;;;;;;;;;;;;;;;;;;;;;;"1257";"2015-02-11 18:05:23.123";"NST_correctLoc";"12";"0";"FINISHED";"LEFT";"success";"362";"0";"2015-02-11 18:05:21.859";"2";;;;;;;;;;;;;;;;;;;;;;;;;;;;;;;;;;;;;;;;;;;;;;;;;;;;;;;;;
"c1300631";;;"Windows 7";"Rachel's Experiment (DP)";"1.0";"3";"1";"1";"3";"1";"1";"2015-02-11 18:02:05.907";"2015-02-11 18:26:10.782";"1";"2";"0";"28";"27";"module.training_block1.exec-4830.GoNoGo1";;;;;;;;;;;;;;;;;;;;;;;;;;;;;;;;;;;;;;;;;;;;;"1257";"2015-02-11 18:05:25.666";"NST_correctLoc";"32";"1";"FINISHED";"RIGHT";"success";"314";"0";"2015-02-11 18:05:24.402";"3";;;;;;;;;;;;;;;;;;;;;;;;;;;;;;;;;;;;;;;;;;;;;;;;;;;;;;;;;
"c1300631";;;"Windows 7";"Rachel's Experiment (DP)";"1.0";"3";"1";"1";"3";"1";"1";"2015-02-11 18:02:05.907";"2015-02-11 18:26:10.782";"1";"2";"0";"29";"28";"module.training_block1.exec-4830.GoNoGo1";;;;;;;;;;;;;;;;;;;;;;;;;;;;;;;;;;;;;;;;;;;;;"1257";"2015-02-11 18:05:28.209";"NST_correctLoc";"4";"1";"FINISHED";"RIGHT";"success";"379";"0";"2015-02-11 18:05:26.945";"1";;;;;;;;;;;;;;;;;;;;;;;;;;;;;;;;;;;;;;;;;;;;;;;;;;;;;;;;;
"c1300631";;;"Windows 7";"Rachel's Experiment (DP)";"1.0";"3";"1";"1";"3";"1";"1";"2015-02-11 18:02:05.907";"2015-02-11 18:26:10.782";"1";"2";"0";"30";"29";"module.training_block1.exec-4830.GoNoGo1";;;;;;;;;;;;;;;;;;;;;;;;;;;;;;;;;;;;;;;;;;;;;"1258";"2015-02-11 18:05:30.751";"NST_correctLoc";"33";"1";"FINISHED";"RIGHT";"success";"349";"0";"2015-02-11 18:05:29.488";"3";;;;;;;;;;;;;;;;;;;;;;;;;;;;;;;;;;;;;;;;;;;;;;;;;;;;;;;;;
"c1300631";;;"Windows 7";"Rachel's Experiment (DP)";"1.0";"3";"1";"1";"3";"1";"1";"2015-02-11 18:02:05.907";"2015-02-11 18:26:10.782";"1";"2";"0";"31";"30";"module.training_block1.exec-4830.GoNoGo1";;;;;;;;;;;;;;;;;;;;;;;;;;;;;;;;;;;;;;;;;;;;;"1261";"2015-02-11 18:05:33.294";"NST_correctLoc";"23";"1";"FINISHED";"RIGHT";"success";"338";"0";"2015-02-11 18:05:32.031";"3";;;;;;;;;;;;;;;;;;;;;;;;;;;;;;;;;;;;;;;;;;;;;;;;;;;;;;;;;
"c1300631";;;"Windows 7";"Rachel's Experiment (DP)";"1.0";"3";"1";"1";"3";"1";"1";"2015-02-11 18:02:05.907";"2015-02-11 18:26:10.782";"1";"2";"0";"32";"31";"module.training_block1.exec-4830.GoNoGo1";;;;;;;;;;;;;;;;;;;;;;;;;;;;;;;;;;;;;;;;;;;;;"1257";"2015-02-11 18:05:35.837";"NST_correctLoc";"16";"0";"FINISHED";"LEFT";"success";"399";"0";"2015-02-11 18:05:34.573";"2";;;;;;;;;;;;;;;;;;;;;;;;;;;;;;;;;;;;;;;;;;;;;;;;;;;;;;;;;
"c1300631";;;"Windows 7";"Rachel's Experiment (DP)";"1.0";"3";"1";"1";"3";"1";"1";"2015-02-11 18:02:05.907";"2015-02-11 18:26:10.782";"1";"2";"0";"33";"32";"module.training_block1.exec-4830.GoNoGo1";;;;;;;;;;;;;;;;;;;;;;;;;;;;;;;;;;;;;;;;;;;;;"1261";"2015-02-11 18:05:38.380";"NST_correctLoc";"21";"1";"FINISHED";"RIGHT";"success";"332";"0";"2015-02-11 18:05:37.116";"3";;;;;;;;;;;;;;;;;;;;;;;;;;;;;;;;;;;;;;;;;;;;;;;;;;;;;;;;;
"c1300631";;;"Windows 7";"Rachel's Experiment (DP)";"1.0";"3";"1";"1";"3";"1";"1";"2015-02-11 18:02:05.907";"2015-02-11 18:26:10.782";"1";"2";"0";"34";"33";"module.training_block1.exec-4830.GoNoGo1";;;;;;;;;;;;;;;;;;;;;;;;;;;;;;;;;;;;;;;;;;;;;"1256";"2015-02-11 18:05:40.923";"NST_correctLoc";"17";"0";"FINISHED";"LEFT";"success";"368";"0";"2015-02-11 18:05:39.659";"2";;;;;;;;;;;;;;;;;;;;;;;;;;;;;;;;;;;;;;;;;;;;;;;;;;;;;;;;;
"c1300631";;;"Windows 7";"Rachel's Experiment (DP)";"1.0";"3";"1";"1";"3";"1";"1";"2015-02-11 18:02:05.907";"2015-02-11 18:26:10.782";"1";"2";"0";"35";"34";"module.training_block1.exec-4830.GoNoGo1";;;;;;;;;;;;;;;;;;;;;;;;;;;;;;;;;;;;;;;;;;;;;"1257";"2015-02-11 18:05:43.465";"NST_correctLoc";"15";"0";"FINISHED";"LEFT";"success";"418";"0";"2015-02-11 18:05:42.202";"2";;;;;;;;;;;;;;;;;;;;;;;;;;;;;;;;;;;;;;;;;;;;;;;;;;;;;;;;;
"c1300631";;;"Windows 7";"Rachel's Experiment (DP)";"1.0";"3";"1";"1";"3";"1";"1";"2015-02-11 18:02:05.907";"2015-02-11 18:26:10.782";"1";"2";"0";"36";"35";"module.training_block1.exec-4830.GoNoGo1";;;;;;;;;;;;;;;;;;;;;;;;;;;;;;;;;;;;;;;;;;;;;"1261";"2015-02-11 18:05:46.008";"NST_correctLoc";"6";"1";"FINISHED";"RIGHT";"success";"352";"0";"2015-02-11 18:05:44.745";"1";;;;;;;;;;;;;;;;;;;;;;;;;;;;;;;;;;;;;;;;;;;;;;;;;;;;;;;;;
"c1300631";;;"Windows 7";"Rachel's Experiment (DP)";"1.0";"3";"1";"1";"3";"1";"1";"2015-02-11 18:02:05.907";"2015-02-11 18:26:10.782";"1";"2";"0";"37";"36";"module.training_block1.exec-4830.GoNoGo1";;;;;;;;;;;;;;;;;;;;;;;;;;;;;;;;;;;;;;;;;;;;;"1257";"2015-02-11 18:05:48.551";"NST_correctLoc";"9";"0";"FINISHED";"LEFT";"success";"357";"0";"2015-02-11 18:05:47.287";"2";;;;;;;;;;;;;;;;;;;;;;;;;;;;;;;;;;;;;;;;;;;;;;;;;;;;;;;;;
"c1300631";;;"Windows 7";"Rachel's Experiment (DP)";"1.0";"3";"1";"1";"3";"1";"1";"2015-02-11 18:02:05.907";"2015-02-11 18:26:10.782";"1";"2";"0";"38";"37";"module.training_block1.exec-4830.GoNoGo1";;;;;;;;;;;;;;;;;;;;;;;;;;;;;;;;;;;;;;;;;;;;;"1257";"2015-02-11 18:05:51.094";"NST_correctLoc";"11";"1";"FINISHED";"RIGHT";"success";"358";"0";"2015-02-11 18:05:49.830";"2";;;;;;;;;;;;;;;;;;;;;;;;;;;;;;;;;;;;;;;;;;;;;;;;;;;;;;;;;
"c1300631";;;"Windows 7";"Rachel's Experiment (DP)";"1.0";"3";"1";"1";"3";"1";"1";"2015-02-11 18:02:05.907";"2015-02-11 18:26:10.782";"1";"2";"0";"39";"38";"module.training_block1.exec-4830.GoNoGo1";;;;;;;;;;;;;;;;;;;;;;;;;;;;;;;;;;;;;;;;;;;;;"1257";"2015-02-11 18:05:53.637";"NST_correctLoc";"29";"0";"FINISHED";"LEFT";"success";"335";"0";"2015-02-11 18:05:52.373";"3";;;;;;;;;;;;;;;;;;;;;;;;;;;;;;;;;;;;;;;;;;;;;;;;;;;;;;;;;
"c1300631";;;"Windows 7";"Rachel's Experiment (DP)";"1.0";"3";"1";"1";"3";"1";"1";"2015-02-11 18:02:05.907";"2015-02-11 18:26:10.782";"1";"2";"0";"40";"39";"module.training_block1.exec-4830.GoNoGo1";;;;;;;;;;;;;;;;;;;;;;;;;;;;;;;;;;;;;;;;;;;;;"1261";"2015-02-11 18:05:56.179";"NST_correctLoc";"30";"1";"FINISHED";"RIGHT";"success";"373";"0";"2015-02-11 18:05:54.916";"3";;;;;;;;;;;;;;;;;;;;;;;;;;;;;;;;;;;;;;;;;;;;;;;;;;;;;;;;;
"c1300631";;;"Windows 7";"Rachel's Experiment (DP)";"1.0";"3";"1";"1";"3";"1";"1";"2015-02-11 18:02:05.907";"2015-02-11 18:26:10.782";"1";"2";"0";"41";"40";"module.training_block1.exec-4830.GoNoGo1";;;;;;;;;;;;;;;;;;;;;;;;;;;;;;;;;;;;;;;;;;;;;"1257";"2015-02-11 18:05:58.722";"NST_correctLoc";"35";"1";"FINISHED";"RIGHT";"success";"362";"0";"2015-02-11 18:05:57.459";"3";;;;;;;;;;;;;;;;;;;;;;;;;;;;;;;;;;;;;;;;;;;;;;;;;;;;;;;;;
"c1300631";;;"Windows 7";"Rachel's Experiment (DP)";"1.0";"3";"1";"1";"3";"1";"1";"2015-02-11 18:02:05.907";"2015-02-11 18:26:10.782";"1";"2";"0";"42";"41";"module.training_block1.exec-4830.GoNoGo1";;;;;;;;;;;;;;;;;;;;;;;;;;;;;;;;;;;;;;;;;;;;;"1261";"2015-02-11 18:06:01.265";"NST_correctLoc";"14";"0";"FINISHED";"LEFT";"success";"303";"0";"2015-02-11 18:06:00.001";"2";;;;;;;;;;;;;;;;;;;;;;;;;;;;;;;;;;;;;;;;;;;;;;;;;;;;;;;;;
"c1300631";;;"Windows 7";"Rachel's Experiment (DP)";"1.0";"3";"1";"1";"3";"1";"1";"2015-02-11 18:02:05.907";"2015-02-11 18:26:10.782";"1";"2";"0";"43";"42";"module.training_block1.exec-4830.GoNoGo1";;;;;;;;;;;;;;;;;;;;;;;;;;;;;;;;;;;;;;;;;;;;;"1261";"2015-02-11 18:06:03.808";"NST_correctLoc";"18";"0";"FINISHED";"LEFT";"success";"360";"0";"2015-02-11 18:06:02.544";"3";;;;;;;;;;;;;;;;;;;;;;;;;;;;;;;;;;;;;;;;;;;;;;;;;;;;;;;;;
"c1300631";;;"Windows 7";"Rachel's Experiment (DP)";"1.0";"3";"1";"1";"3";"1";"1";"2015-02-11 18:02:05.907";"2015-02-11 18:26:10.782";"1";"2";"0";"44";"43";"module.training_block1.exec-4830.GoNoGo1";;;;;;;;;;;;;;;;;;;;;;;;;;;;;;;;;;;;;;;;;;;;;"1261";"2015-02-11 18:06:06.351";"NST_correctLoc";"13";"0";"FINISHED";"LEFT";"success";"370";"0";"2015-02-11 18:06:05.087";"2";;;;;;;;;;;;;;;;;;;;;;;;;;;;;;;;;;;;;;;;;;;;;;;;;;;;;;;;;
"c1300631";;;"Windows 7";"Rachel's Experiment (DP)";"1.0";"3";"1";"1";"3";"1";"1";"2015-02-11 18:02:05.907";"2015-02-11 18:26:10.782";"1";"2";"0";"45";"44";"module.training_block1.exec-4830.GoNoGo1";;;;;;;;;;;;;;;;;;;;;;;;;;;;;;;;;;;;;;;;;;;;;"1257";"2015-02-11 18:06:08.893";"NST_correctLoc";"31";"0";"FINISHED";"LEFT";"success";"302";"0";"2015-02-11 18:06:07.630";"3";;;;;;;;;;;;;;;;;;;;;;;;;;;;;;;;;;;;;;;;;;;;;;;;;;;;;;;;;
"c1300631";;;"Windows 7";"Rachel's Experiment (DP)";"1.0";"3";"1";"1";"3";"1";"1";"2015-02-11 18:02:05.907";"2015-02-11 18:26:10.782";"1";"2";"0";"46";"45";"module.training_block1.exec-4830.GoNoGo1";;;;;;;;;;;;;;;;;;;;;;;;;;;;;;;;;;;;;;;;;;;;;"1256";"2015-02-11 18:06:11.545";"NST_correctLoc";"10";"1";"FINISHED";"RIGHT";"success";"370";"0";"2015-02-11 18:06:10.282";"2";;;;;;;;;;;;;;;;;;;;;;;;;;;;;;;;;;;;;;;;;;;;;;;;;;;;;;;;;
"c1300631";;;"Windows 7";"Rachel's Experiment (DP)";"1.0";"3";"1";"1";"3";"1";"1";"2015-02-11 18:02:05.907";"2015-02-11 18:26:10.782";"1";"2";"0";"47";"46";"module.training_block1.exec-4830.GoNoGo1";;;;;;;;;;;;;;;;;;;;;;;;;;;;;;;;;;;;;;;;;;;;;"1257";"2015-02-11 18:06:14.088";"NST_correctLoc";"27";"1";"FINISHED";"RIGHT";"success";"348";"0";"2015-02-11 18:06:12.825";"3";;;;;;;;;;;;;;;;;;;;;;;;;;;;;;;;;;;;;;;;;;;;;;;;;;;;;;;;;
"c1300631";;;"Windows 7";"Rachel's Experiment (DP)";"1.0";"3";"1";"1";"3";"1";"1";"2015-02-11 18:02:05.907";"2015-02-11 18:26:10.782";"1";"2";"0";"48";"47";"module.training_block1.exec-4830.GoNoGo1";;;;;;;;;;;;;;;;;;;;;;;;;;;;;;;;;;;;;;;;;;;;;"1257";"2015-02-11 18:06:16.631";"NST_correctLoc";"22";"1";"FINISHED";"RIGHT";"success";"341";"0";"2015-02-11 18:06:15.367";"3";;;;;;;;;;;;;;;;;;;;;;;;;;;;;;;;;;;;;;;;;;;;;;;;;;;;;;;;;
"c1300631";;;"Windows 7";"Rachel's Experiment (DP)";"1.0";"3";"1";"1";"3";"1";"1";"2015-02-11 18:02:05.907";"2015-02-11 18:26:10.782";"1";"2";"0";"49";"48";"module.training_block1.exec-4830.GoNoGo1";;;;;;;;;;;;;;;;;;;;;;;;;;;;;;;;;;;;;;;;;;;;;"1257";"2015-02-11 18:06:19.174";"NST_correctLoc";"19";"1";"FINISHED";"RIGHT";"success";"350";"0";"2015-02-11 18:06:17.910";"3";;;;;;;;;;;;;;;;;;;;;;;;;;;;;;;;;;;;;;;;;;;;;;;;;;;;;;;;;
"c1300631";;;"Windows 7";"Rachel's Experiment (DP)";"1.0";"3";"1";"1";"3";"1";"1";"2015-02-11 18:02:05.907";"2015-02-11 18:26:10.782";"1";"2";"0";"50";"49";"module.training_block1.exec-4830.GoNoGo1";;;;;;;;;;;;;;;;;;;;;;;;;;;;;;;;;;;;;;;;;;;;;"1258";"2015-02-11 18:06:21.717";"NST_correctLoc";"3";"0";"FINISHED";"LEFT";"success";"336";"0";"2015-02-11 18:06:20.453";"1";;;;;;;;;;;;;;;;;;;;;;;;;;;;;;;;;;;;;;;;;;;;;;;;;;;;;;;;;
"c1300631";;;"Windows 7";"Rachel's Experiment (DP)";"1.0";"3";"1";"1";"3";"1";"1";"2015-02-11 18:02:05.907";"2015-02-11 18:26:10.782";"1";"2";"0";"51";"50";"module.training_block1.exec-4830.GoNoGo1";;;;;;;;;;;;;;;;;;;;;;;;;;;;;;;;;;;;;;;;;;;;;"1257";"2015-02-11 18:06:24.259";"NST_correctLoc";"28";"1";"FINISHED";"RIGHT";"success";"249";"0";"2015-02-11 18:06:22.996";"3";;;;;;;;;;;;;;;;;;;;;;;;;;;;;;;;;;;;;;;;;;;;;;;;;;;;;;;;;
"c1300631";;;"Windows 7";"Rachel's Experiment (DP)";"1.0";"3";"1";"1";"3";"1";"1";"2015-02-11 18:02:05.907";"2015-02-11 18:26:10.782";"1";"2";"0";"52";"51";"module.training_block2.exec-1508.GoNoGo2";;;;;;;;;;;;;;;;;;;;;;;;;;;;;;;;;;;;;;;;;;;;;;;;;;;;;;;;;"1257";"2015-02-11 18:06:35.460";"NST_correctLoc";"34";"0";"FINISHED";"LEFT";"success";"448";"0";"2015-02-11 18:06:34.197";"3";;;;;;;;;;;;;;;;;;;;;;;;;;;;;;;;;;;;;;;;;;;;;
"c1300631";;;"Windows 7";"Rachel's Experiment (DP)";"1.0";"3";"1";"1";"3";"1";"1";"2015-02-11 18:02:05.907";"2015-02-11 18:26:10.782";"1";"2";"0";"53";"52";"module.training_block2.exec-1508.GoNoGo2";;;;;;;;;;;;;;;;;;;;;;;;;;;;;;;;;;;;;;;;;;;;;;;;;;;;;;;;;"1257";"2015-02-11 18:06:38.003";"NST_correctLoc";"14";"0";"FINISHED";"LEFT";"success";"289";"0";"2015-02-11 18:06:36.740";"2";;;;;;;;;;;;;;;;;;;;;;;;;;;;;;;;;;;;;;;;;;;;;
"c1300631";;;"Windows 7";"Rachel's Experiment (DP)";"1.0";"3";"1";"1";"3";"1";"1";"2015-02-11 18:02:05.907";"2015-02-11 18:26:10.782";"1";"2";"0";"54";"53";"module.training_block2.exec-1508.GoNoGo2";;;;;;;;;;;;;;;;;;;;;;;;;;;;;;;;;;;;;;;;;;;;;;;;;;;;;;;;;"1257";"2015-02-11 18:06:40.546";"NST_correctLoc";"20";"1";"FINISHED";"RIGHT";"success";"314";"0";"2015-02-11 18:06:39.282";"3";;;;;;;;;;;;;;;;;;;;;;;;;;;;;;;;;;;;;;;;;;;;;
"c1300631";;;"Windows 7";"Rachel's Experiment (DP)";"1.0";"3";"1";"1";"3";"1";"1";"2015-02-11 18:02:05.907";"2015-02-11 18:26:10.782";"1";"2";"0";"55";"54";"module.training_block2.exec-1508.GoNoGo2";;;;;;;;;;;;;;;;;;;;;;;;;;;;;;;;;;;;;;;;;;;;;;;;;;;;;;;;;"1261";"2015-02-11 18:06:43.089";"NST_correctLoc";"31";"0";"FINISHED";"LEFT";"success";"311";"0";"2015-02-11 18:06:41.825";"3";;;;;;;;;;;;;;;;;;;;;;;;;;;;;;;;;;;;;;;;;;;;;
"c1300631";;;"Windows 7";"Rachel's Experiment (DP)";"1.0";"3";"1";"1";"3";"1";"1";"2015-02-11 18:02:05.907";"2015-02-11 18:26:10.782";"1";"2";"0";"56";"55";"module.training_block2.exec-1508.GoNoGo2";;;;;;;;;;;;;;;;;;;;;;;;;;;;;;;;;;;;;;;;;;;;;;;;;;;;;;;;;"1256";"2015-02-11 18:06:45.632";"NST_correctLoc";"2";"1";"FINISHED";"RIGHT";"success";"307";"0";"2015-02-11 18:06:44.368";"1";;;;;;;;;;;;;;;;;;;;;;;;;;;;;;;;;;;;;;;;;;;;;
"c1300631";;;"Windows 7";"Rachel's Experiment (DP)";"1.0";"3";"1";"1";"3";"1";"1";"2015-02-11 18:02:05.907";"2015-02-11 18:26:10.782";"1";"2";"0";"57";"56";"module.training_block2.exec-1508.GoNoGo2";;;;;;;;;;;;;;;;;;;;;;;;;;;;;;;;;;;;;;;;;;;;;;;;;;;;;;;;;"1263";"2015-02-11 18:06:48.190";"NST_correctLoc";"25";"0";"FINISHED";"LEFT";"success";"355";"0";"2015-02-11 18:06:46.926";"3";;;;;;;;;;;;;;;;;;;;;;;;;;;;;;;;;;;;;;;;;;;;;
"c1300631";;;"Windows 7";"Rachel's Experiment (DP)";"1.0";"3";"1";"1";"3";"1";"1";"2015-02-11 18:02:05.907";"2015-02-11 18:26:10.782";"1";"2";"0";"58";"57";"module.training_block2.exec-1508.GoNoGo2";;;;;;;;;;;;;;;;;;;;;;;;;;;;;;;;;;;;;;;;;;;;;;;;;;;;;;;;;"1257";"2015-02-11 18:06:50.733";"NST_correctLoc";"8";"1";"FINISHED";"RIGHT";"success";"287";"0";"2015-02-11 18:06:49.469";"1";;;;;;;;;;;;;;;;;;;;;;;;;;;;;;;;;;;;;;;;;;;;;
"c1300631";;;"Windows 7";"Rachel's Experiment (DP)";"1.0";"3";"1";"1";"3";"1";"1";"2015-02-11 18:02:05.907";"2015-02-11 18:26:10.782";"1";"2";"0";"59";"58";"module.training_block2.exec-1508.GoNoGo2";;;;;;;;;;;;;;;;;;;;;;;;;;;;;;;;;;;;;;;;;;;;;;;;;;;;;;;;;"1257";"2015-02-11 18:06:53.276";"NST_correctLoc";"16";"0";"FINISHED";"LEFT";"success";"320";"0";"2015-02-11 18:06:52.012";"2";;;;;;;;;;;;;;;;;;;;;;;;;;;;;;;;;;;;;;;;;;;;;
"c1300631";;;"Windows 7";"Rachel's Experiment (DP)";"1.0";"3";"1";"1";"3";"1";"1";"2015-02-11 18:02:05.907";"2015-02-11 18:26:10.782";"1";"2";"0";"60";"59";"module.training_block2.exec-1508.GoNoGo2";;;;;;;;;;;;;;;;;;;;;;;;;;;;;;;;;;;;;;;;;;;;;;;;;;;;;;;;;"1260";"2015-02-11 18:06:55.803";"NST_correctLoc";"4";"1";"FINISHED";"RIGHT";"success";"331";"0";"2015-02-11 18:06:54.539";"1";;;;;;;;;;;;;;;;;;;;;;;;;;;;;;;;;;;;;;;;;;;;;
"c1300631";;;"Windows 7";"Rachel's Experiment (DP)";"1.0";"3";"1";"1";"3";"1";"1";"2015-02-11 18:02:05.907";"2015-02-11 18:26:10.782";"1";"2";"0";"61";"60";"module.training_block2.exec-1508.GoNoGo2";;;;;;;;;;;;;;;;;;;;;;;;;;;;;;;;;;;;;;;;;;;;;;;;;;;;;;;;;"1262";"2015-02-11 18:06:58.346";"NST_correctLoc";"27";"0";"FINISHED";"LEFT";"success";"382";"0";"2015-02-11 18:06:57.082";"3";;;;;;;;;;;;;;;;;;;;;;;;;;;;;;;;;;;;;;;;;;;;;
"c1300631";;;"Windows 7";"Rachel's Experiment (DP)";"1.0";"3";"1";"1";"3";"1";"1";"2015-02-11 18:02:05.907";"2015-02-11 18:26:10.782";"1";"2";"0";"62";"61";"module.training_block2.exec-1508.GoNoGo2";;;;;;;;;;;;;;;;;;;;;;;;;;;;;;;;;;;;;;;;;;;;;;;;;;;;;;;;;"1252";"2015-02-11 18:07:00.873";"NST_correctLoc";"0";"0";"FINISHED";"LEFT";"success";"357";"0";"2015-02-11 18:06:59.609";"1";;;;;;;;;;;;;;;;;;;;;;;;;;;;;;;;;;;;;;;;;;;;;
"c1300631";;;"Windows 7";"Rachel's Experiment (DP)";"1.0";"3";"1";"1";"3";"1";"1";"2015-02-11 18:02:05.907";"2015-02-11 18:26:10.782";"1";"2";"0";"63";"62";"module.training_block2.exec-1508.GoNoGo2";;;;;;;;;;;;;;;;;;;;;;;;;;;;;;;;;;;;;;;;;;;;;;;;;;;;;;;;;"1259";"2015-02-11 18:07:03.400";"NST_correctLoc";"15";"1";"FINISHED";"RIGHT";"success";"342";"0";"2015-02-11 18:07:02.136";"2";;;;;;;;;;;;;;;;;;;;;;;;;;;;;;;;;;;;;;;;;;;;;
"c1300631";;;"Windows 7";"Rachel's Experiment (DP)";"1.0";"3";"1";"1";"3";"1";"1";"2015-02-11 18:02:05.907";"2015-02-11 18:26:10.782";"1";"2";"0";"64";"63";"module.training_block2.exec-1508.GoNoGo2";;;;;;;;;;;;;;;;;;;;;;;;;;;;;;;;;;;;;;;;;;;;;;;;;;;;;;;;;"1259";"2015-02-11 18:07:05.927";"NST_correctLoc";"21";"0";"FINISHED";"LEFT";"success";"407";"0";"2015-02-11 18:07:04.664";"3";;;;;;;;;;;;;;;;;;;;;;;;;;;;;;;;;;;;;;;;;;;;;
"c1300631";;;"Windows 7";"Rachel's Experiment (DP)";"1.0";"3";"1";"1";"3";"1";"1";"2015-02-11 18:02:05.907";"2015-02-11 18:26:10.782";"1";"2";"0";"65";"64";"module.training_block2.exec-1508.GoNoGo2";;;;;;;;;;;;;;;;;;;;;;;;;;;;;;;;;;;;;;;;;;;;;;;;;;;;;;;;;"1260";"2015-02-11 18:07:08.454";"NST_correctLoc";"26";"0";"FINISHED";"LEFT";"success";"384";"0";"2015-02-11 18:07:07.191";"3";;;;;;;;;;;;;;;;;;;;;;;;;;;;;;;;;;;;;;;;;;;;;
"c1300631";;;"Windows 7";"Rachel's Experiment (DP)";"1.0";"3";"1";"1";"3";"1";"1";"2015-02-11 18:02:05.907";"2015-02-11 18:26:10.782";"1";"2";"0";"66";"65";"module.training_block2.exec-1508.GoNoGo2";;;;;;;;;;;;;;;;;;;;;;;;;;;;;;;;;;;;;;;;;;;;;;;;;;;;;;;;;"1260";"2015-02-11 18:07:10.982";"NST_correctLoc";"29";"1";"FINISHED";"RIGHT";"success";"345";"0";"2015-02-11 18:07:09.718";"3";;;;;;;;;;;;;;;;;;;;;;;;;;;;;;;;;;;;;;;;;;;;;
"c1300631";;;"Windows 7";"Rachel's Experiment (DP)";"1.0";"3";"1";"1";"3";"1";"1";"2015-02-11 18:02:05.907";"2015-02-11 18:26:10.782";"1";"2";"0";"67";"66";"module.training_block2.exec-1508.GoNoGo2";;;;;;;;;;;;;;;;;;;;;;;;;;;;;;;;;;;;;;;;;;;;;;;;;;;;;;;;;"1261";"2015-02-11 18:07:13.509";"NST_correctLoc";"3";"0";"FINISHED";"LEFT";"success";"363";"0";"2015-02-11 18:07:12.245";"1";;;;;;;;;;;;;;;;;;;;;;;;;;;;;;;;;;;;;;;;;;;;;
"c1300631";;;"Windows 7";"Rachel's Experiment (DP)";"1.0";"3";"1";"1";"3";"1";"1";"2015-02-11 18:02:05.907";"2015-02-11 18:26:10.782";"1";"2";"0";"68";"67";"module.training_block2.exec-1508.GoNoGo2";;;;;;;;;;;;;;;;;;;;;;;;;;;;;;;;;;;;;;;;;;;;;;;;;;;;;;;;;"1257";"2015-02-11 18:07:16.036";"NST_correctLoc";"12";"1";"FINISHED";"RIGHT";"success";"359";"0";"2015-02-11 18:07:14.772";"2";;;;;;;;;;;;;;;;;;;;;;;;;;;;;;;;;;;;;;;;;;;;;
"c1300631";;;"Windows 7";"Rachel's Experiment (DP)";"1.0";"3";"1";"1";"3";"1";"1";"2015-02-11 18:02:05.907";"2015-02-11 18:26:10.782";"1";"2";"0";"69";"68";"module.training_block2.exec-1508.GoNoGo2";;;;;;;;;;;;;;;;;;;;;;;;;;;;;;;;;;;;;;;;;;;;;;;;;;;;;;;;;"1262";"2015-02-11 18:07:18.563";"NST_correctLoc";"28";"0";"FINISHED";"LEFT";"success";"325";"0";"2015-02-11 18:07:17.300";"3";;;;;;;;;;;;;;;;;;;;;;;;;;;;;;;;;;;;;;;;;;;;;
"c1300631";;;"Windows 7";"Rachel's Experiment (DP)";"1.0";"3";"1";"1";"3";"1";"1";"2015-02-11 18:02:05.907";"2015-02-11 18:26:10.782";"1";"2";"0";"70";"69";"module.training_block2.exec-1508.GoNoGo2";;;;;;;;;;;;;;;;;;;;;;;;;;;;;;;;;;;;;;;;;;;;;;;;;;;;;;;;;"1260";"2015-02-11 18:07:21.090";"NST_correctLoc";"7";"1";"FINISHED";"RIGHT";"success";"331";"0";"2015-02-11 18:07:19.827";"1";;;;;;;;;;;;;;;;;;;;;;;;;;;;;;;;;;;;;;;;;;;;;
"c1300631";;;"Windows 7";"Rachel's Experiment (DP)";"1.0";"3";"1";"1";"3";"1";"1";"2015-02-11 18:02:05.907";"2015-02-11 18:26:10.782";"1";"2";"0";"71";"70";"module.training_block2.exec-1508.GoNoGo2";;;;;;;;;;;;;;;;;;;;;;;;;;;;;;;;;;;;;;;;;;;;;;;;;;;;;;;;;"1260";"2015-02-11 18:07:23.618";"NST_correctLoc";"11";"0";"FINISHED";"LEFT";"success";"324";"0";"2015-02-11 18:07:22.354";"2";;;;;;;;;;;;;;;;;;;;;;;;;;;;;;;;;;;;;;;;;;;;;
"c1300631";;;"Windows 7";"Rachel's Experiment (DP)";"1.0";"3";"1";"1";"3";"1";"1";"2015-02-11 18:02:05.907";"2015-02-11 18:26:10.782";"1";"2";"0";"72";"71";"module.training_block2.exec-1508.GoNoGo2";;;;;;;;;;;;;;;;;;;;;;;;;;;;;;;;;;;;;;;;;;;;;;;;;;;;;;;;;"1260";"2015-02-11 18:07:26.145";"NST_correctLoc";"5";"0";"FINISHED";"LEFT";"success";"381";"0";"2015-02-11 18:07:24.881";"1";;;;;;;;;;;;;;;;;;;;;;;;;;;;;;;;;;;;;;;;;;;;;
"c1300631";;;"Windows 7";"Rachel's Experiment (DP)";"1.0";"3";"1";"1";"3";"1";"1";"2015-02-11 18:02:05.907";"2015-02-11 18:26:10.782";"1";"2";"0";"73";"72";"module.training_block2.exec-1508.GoNoGo2";;;;;;;;;;;;;;;;;;;;;;;;;;;;;;;;;;;;;;;;;;;;;;;;;;;;;;;;;"1262";"2015-02-11 18:07:28.672";"NST_correctLoc";"22";"1";"FINISHED";"RIGHT";"success";"336";"0";"2015-02-11 18:07:27.408";"3";;;;;;;;;;;;;;;;;;;;;;;;;;;;;;;;;;;;;;;;;;;;;
"c1300631";;;"Windows 7";"Rachel's Experiment (DP)";"1.0";"3";"1";"1";"3";"1";"1";"2015-02-11 18:02:05.907";"2015-02-11 18:26:10.782";"1";"2";"0";"74";"73";"module.training_block2.exec-1508.GoNoGo2";;;;;;;;;;;;;;;;;;;;;;;;;;;;;;;;;;;;;;;;;;;;;;;;;;;;;;;;;"1262";"2015-02-11 18:07:31.199";"NST_correctLoc";"19";"0";"FINISHED";"LEFT";"success";"321";"0";"2015-02-11 18:07:29.936";"3";;;;;;;;;;;;;;;;;;;;;;;;;;;;;;;;;;;;;;;;;;;;;
"c1300631";;;"Windows 7";"Rachel's Experiment (DP)";"1.0";"3";"1";"1";"3";"1";"1";"2015-02-11 18:02:05.907";"2015-02-11 18:26:10.782";"1";"2";"0";"75";"74";"module.training_block2.exec-1508.GoNoGo2";;;;;;;;;;;;;;;;;;;;;;;;;;;;;;;;;;;;;;;;;;;;;;;;;;;;;;;;;"1260";"2015-02-11 18:07:33.726";"NST_correctLoc";"13";"0";"FINISHED";"LEFT";"success";"375";"0";"2015-02-11 18:07:32.463";"2";;;;;;;;;;;;;;;;;;;;;;;;;;;;;;;;;;;;;;;;;;;;;
"c1300631";;;"Windows 7";"Rachel's Experiment (DP)";"1.0";"3";"1";"1";"3";"1";"1";"2015-02-11 18:02:05.907";"2015-02-11 18:26:10.782";"1";"2";"0";"76";"75";"module.training_block2.exec-1508.GoNoGo2";;;;;;;;;;;;;;;;;;;;;;;;;;;;;;;;;;;;;;;;;;;;;;;;;;;;;;;;;"1260";"2015-02-11 18:07:36.254";"NST_correctLoc";"24";"0";"FINISHED";"LEFT";"success";"353";"0";"2015-02-11 18:07:34.990";"3";;;;;;;;;;;;;;;;;;;;;;;;;;;;;;;;;;;;;;;;;;;;;
"c1300631";;;"Windows 7";"Rachel's Experiment (DP)";"1.0";"3";"1";"1";"3";"1";"1";"2015-02-11 18:02:05.907";"2015-02-11 18:26:10.782";"1";"2";"0";"77";"76";"module.training_block2.exec-1508.GoNoGo2";;;;;;;;;;;;;;;;;;;;;;;;;;;;;;;;;;;;;;;;;;;;;;;;;;;;;;;;;"1260";"2015-02-11 18:07:38.796";"NST_correctLoc";"9";"0";"FINISHED";"LEFT";"success";"482";"0";"2015-02-11 18:07:37.533";"2";;;;;;;;;;;;;;;;;;;;;;;;;;;;;;;;;;;;;;;;;;;;;
"c1300631";;;"Windows 7";"Rachel's Experiment (DP)";"1.0";"3";"1";"1";"3";"1";"1";"2015-02-11 18:02:05.907";"2015-02-11 18:26:10.782";"1";"2";"0";"78";"77";"module.training_block2.exec-1508.GoNoGo2";;;;;;;;;;;;;;;;;;;;;;;;;;;;;;;;;;;;;;;;;;;;;;;;;;;;;;;;;"1260";"2015-02-11 18:07:41.324";"NST_correctLoc";"1";"1";"FINISHED";"RIGHT";"success";"403";"0";"2015-02-11 18:07:40.060";"1";;;;;;;;;;;;;;;;;;;;;;;;;;;;;;;;;;;;;;;;;;;;;
"c1300631";;;"Windows 7";"Rachel's Experiment (DP)";"1.0";"3";"1";"1";"3";"1";"1";"2015-02-11 18:02:05.907";"2015-02-11 18:26:10.782";"1";"2";"0";"79";"78";"module.training_block2.exec-1508.GoNoGo2";;;;;;;;;;;;;;;;;;;;;;;;;;;;;;;;;;;;;;;;;;;;;;;;;;;;;;;;;"1260";"2015-02-11 18:07:43.851";"NST_correctLoc";"17";"1";"FINISHED";"RIGHT";"success";"403";"0";"2015-02-11 18:07:42.587";"2";;;;;;;;;;;;;;;;;;;;;;;;;;;;;;;;;;;;;;;;;;;;;
"c1300631";;;"Windows 7";"Rachel's Experiment (DP)";"1.0";"3";"1";"1";"3";"1";"1";"2015-02-11 18:02:05.907";"2015-02-11 18:26:10.782";"1";"2";"0";"80";"79";"module.training_block2.exec-1508.GoNoGo2";;;;;;;;;;;;;;;;;;;;;;;;;;;;;;;;;;;;;;;;;;;;;;;;;;;;;;;;;"1257";"2015-02-11 18:07:46.378";"NST_correctLoc";"32";"1";"FINISHED";"RIGHT";"success";"385";"0";"2015-02-11 18:07:45.114";"3";;;;;;;;;;;;;;;;;;;;;;;;;;;;;;;;;;;;;;;;;;;;;
"c1300631";;;"Windows 7";"Rachel's Experiment (DP)";"1.0";"3";"1";"1";"3";"1";"1";"2015-02-11 18:02:05.907";"2015-02-11 18:26:10.782";"1";"2";"0";"81";"80";"module.training_block2.exec-1508.GoNoGo2";;;;;;;;;;;;;;;;;;;;;;;;;;;;;;;;;;;;;;;;;;;;;;;;;;;;;;;;;"1260";"2015-02-11 18:07:48.905";"NST_correctLoc";"30";"0";"FINISHED";"LEFT";"success";"381";"0";"2015-02-11 18:07:47.642";"3";;;;;;;;;;;;;;;;;;;;;;;;;;;;;;;;;;;;;;;;;;;;;
"c1300631";;;"Windows 7";"Rachel's Experiment (DP)";"1.0";"3";"1";"1";"3";"1";"1";"2015-02-11 18:02:05.907";"2015-02-11 18:26:10.782";"1";"2";"0";"82";"81";"module.training_block2.exec-1508.GoNoGo2";;;;;;;;;;;;;;;;;;;;;;;;;;;;;;;;;;;;;;;;;;;;;;;;;;;;;;;;;"1257";"2015-02-11 18:07:51.432";"NST_correctLoc";"23";"0";"FINISHED";"LEFT";"success";"427";"0";"2015-02-11 18:07:50.169";"3";;;;;;;;;;;;;;;;;;;;;;;;;;;;;;;;;;;;;;;;;;;;;
"c1300631";;;"Windows 7";"Rachel's Experiment (DP)";"1.0";"3";"1";"1";"3";"1";"1";"2015-02-11 18:02:05.907";"2015-02-11 18:26:10.782";"1";"2";"0";"83";"82";"module.training_block2.exec-1508.GoNoGo2";;;;;;;;;;;;;;;;;;;;;;;;;;;;;;;;;;;;;;;;;;;;;;;;;;;;;;;;;"1257";"2015-02-11 18:07:53.975";"NST_correctLoc";"6";"0";"FINISHED";"LEFT";"success";"572";"0";"2015-02-11 18:07:52.712";"1";;;;;;;;;;;;;;;;;;;;;;;;;;;;;;;;;;;;;;;;;;;;;
"c1300631";;;"Windows 7";"Rachel's Experiment (DP)";"1.0";"3";"1";"1";"3";"1";"1";"2015-02-11 18:02:05.907";"2015-02-11 18:26:10.782";"1";"2";"0";"84";"83";"module.training_block2.exec-1508.GoNoGo2";;;;;;;;;;;;;;;;;;;;;;;;;;;;;;;;;;;;;;;;;;;;;;;;;;;;;;;;;"1258";"2015-02-11 18:07:56.502";"NST_correctLoc";"35";"1";"FINISHED";"RIGHT";"success";"397";"0";"2015-02-11 18:07:55.239";"3";;;;;;;;;;;;;;;;;;;;;;;;;;;;;;;;;;;;;;;;;;;;;
"c1300631";;;"Windows 7";"Rachel's Experiment (DP)";"1.0";"3";"1";"1";"3";"1";"1";"2015-02-11 18:02:05.907";"2015-02-11 18:26:10.782";"1";"2";"0";"85";"84";"module.training_block2.exec-1508.GoNoGo2";;;;;;;;;;;;;;;;;;;;;;;;;;;;;;;;;;;;;;;;;;;;;;;;;;;;;;;;;"1261";"2015-02-11 18:07:59.045";"NST_correctLoc";"10";"1";"FINISHED";"RIGHT";"success";"466";"0";"2015-02-11 18:07:57.782";"2";;;;;;;;;;;;;;;;;;;;;;;;;;;;;;;;;;;;;;;;;;;;;
"c1300631";;;"Windows 7";"Rachel's Experiment (DP)";"1.0";"3";"1";"1";"3";"1";"1";"2015-02-11 18:02:05.907";"2015-02-11 18:26:10.782";"1";"2";"0";"86";"85";"module.training_block2.exec-1508.GoNoGo2";;;;;;;;;;;;;;;;;;;;;;;;;;;;;;;;;;;;;;;;;;;;;;;;;;;;;;;;;"1258";"2015-02-11 18:08:01.588";"NST_correctLoc";"18";"1";"FINISHED";"RIGHT";"success";"400";"0";"2015-02-11 18:08:00.324";"3";;;;;;;;;;;;;;;;;;;;;;;;;;;;;;;;;;;;;;;;;;;;;
"c1300631";;;"Windows 7";"Rachel's Experiment (DP)";"1.0";"3";"1";"1";"3";"1";"1";"2015-02-11 18:02:05.907";"2015-02-11 18:26:10.782";"1";"2";"0";"87";"86";"module.training_block2.exec-1508.GoNoGo2";;;;;;;;;;;;;;;;;;;;;;;;;;;;;;;;;;;;;;;;;;;;;;;;;;;;;;;;;"1258";"2015-02-11 18:08:04.131";"NST_correctLoc";"33";"0";"FINISHED";"LEFT";"success";"401";"0";"2015-02-11 18:08:02.867";"3";;;;;;;;;;;;;;;;;;;;;;;;;;;;;;;;;;;;;;;;;;;;;
"c1300631";;;"Windows 7";"Rachel's Experiment (DP)";"1.0";"3";"1";"1";"3";"1";"1";"2015-02-11 18:02:05.907";"2015-02-11 18:26:10.782";"1";"2";"0";"88";"87";"module.training_block3.exec-1931.GoNoGo3";;;;;;;;;;;;;;;;;;;;;;;;;;;;;;;;;;;;;;;;;;;;;;;;;;;;;;;;;;;;;;;;;;;;;"1261";"2015-02-11 18:08:15.160";"NST_correctLoc";"20";"1";"FINISHED";"RIGHT";"success";"583";"0";"2015-02-11 18:08:13.896";"3";;;;;;;;;;;;;;;;;;;;;;;;;;;;;;;;;
"c1300631";;;"Windows 7";"Rachel's Experiment (DP)";"1.0";"3";"1";"1";"3";"1";"1";"2015-02-11 18:02:05.907";"2015-02-11 18:26:10.782";"1";"2";"0";"89";"88";"module.training_block3.exec-1931.GoNoGo3";;;;;;;;;;;;;;;;;;;;;;;;;;;;;;;;;;;;;;;;;;;;;;;;;;;;;;;;;;;;;;;;;;;;;"1260";"2015-02-11 18:08:17.703";"NST_correctLoc";"27";"1";"FINISHED";"RIGHT";"success";"408";"0";"2015-02-11 18:08:16.439";"3";;;;;;;;;;;;;;;;;;;;;;;;;;;;;;;;;
"c1300631";;;"Windows 7";"Rachel's Experiment (DP)";"1.0";"3";"1";"1";"3";"1";"1";"2015-02-11 18:02:05.907";"2015-02-11 18:26:10.782";"1";"2";"0";"90";"89";"module.training_block3.exec-1931.GoNoGo3";;;;;;;;;;;;;;;;;;;;;;;;;;;;;;;;;;;;;;;;;;;;;;;;;;;;;;;;;;;;;;;;;;;;;"1261";"2015-02-11 18:08:20.246";"NST_correctLoc";"11";"1";"FINISHED";"RIGHT";"success";"362";"0";"2015-02-11 18:08:18.982";"2";;;;;;;;;;;;;;;;;;;;;;;;;;;;;;;;;
"c1300631";;;"Windows 7";"Rachel's Experiment (DP)";"1.0";"3";"1";"1";"3";"1";"1";"2015-02-11 18:02:05.907";"2015-02-11 18:26:10.782";"1";"2";"0";"91";"90";"module.training_block3.exec-1931.GoNoGo3";;;;;;;;;;;;;;;;;;;;;;;;;;;;;;;;;;;;;;;;;;;;;;;;;;;;;;;;;;;;;;;;;;;;;"1262";"2015-02-11 18:08:22.788";"NST_correctLoc";"14";"1";"FINISHED";"RIGHT";"success";"412";"0";"2015-02-11 18:08:21.525";"2";;;;;;;;;;;;;;;;;;;;;;;;;;;;;;;;;
"c1300631";;;"Windows 7";"Rachel's Experiment (DP)";"1.0";"3";"1";"1";"3";"1";"1";"2015-02-11 18:02:05.907";"2015-02-11 18:26:10.782";"1";"2";"0";"92";"91";"module.training_block3.exec-1931.GoNoGo3";;;;;;;;;;;;;;;;;;;;;;;;;;;;;;;;;;;;;;;;;;;;;;;;;;;;;;;;;;;;;;;;;;;;;"1262";"2015-02-11 18:08:25.316";"NST_correctLoc";"10";"1";"FINISHED";"RIGHT";"success";"524";"0";"2015-02-11 18:08:24.052";"2";;;;;;;;;;;;;;;;;;;;;;;;;;;;;;;;;
"c1300631";;;"Windows 7";"Rachel's Experiment (DP)";"1.0";"3";"1";"1";"3";"1";"1";"2015-02-11 18:02:05.907";"2015-02-11 18:26:10.782";"1";"2";"0";"93";"92";"module.training_block3.exec-1931.GoNoGo3";;;;;;;;;;;;;;;;;;;;;;;;;;;;;;;;;;;;;;;;;;;;;;;;;;;;;;;;;;;;;;;;;;;;;"1261";"2015-02-11 18:08:27.843";"NST_correctLoc";"23";"0";"FINISHED";"LEFT";"success";"420";"0";"2015-02-11 18:08:26.579";"3";;;;;;;;;;;;;;;;;;;;;;;;;;;;;;;;;
"c1300631";;;"Windows 7";"Rachel's Experiment (DP)";"1.0";"3";"1";"1";"3";"1";"1";"2015-02-11 18:02:05.907";"2015-02-11 18:26:10.782";"1";"2";"0";"94";"93";"module.training_block3.exec-1931.GoNoGo3";;;;;;;;;;;;;;;;;;;;;;;;;;;;;;;;;;;;;;;;;;;;;;;;;;;;;;;;;;;;;;;;;;;;;"1261";"2015-02-11 18:08:30.370";"NST_correctLoc";"12";"0";"FINISHED";"LEFT";"success";"437";"0";"2015-02-11 18:08:29.107";"2";;;;;;;;;;;;;;;;;;;;;;;;;;;;;;;;;
"c1300631";;;"Windows 7";"Rachel's Experiment (DP)";"1.0";"3";"1";"1";"3";"1";"1";"2015-02-11 18:02:05.907";"2015-02-11 18:26:10.782";"1";"2";"0";"95";"94";"module.training_block3.exec-1931.GoNoGo3";;;;;;;;;;;;;;;;;;;;;;;;;;;;;;;;;;;;;;;;;;;;;;;;;;;;;;;;;;;;;;;;;;;;;"1261";"2015-02-11 18:08:32.897";"NST_correctLoc";"18";"1";"FINISHED";"RIGHT";"success";"374";"0";"2015-02-11 18:08:31.634";"3";;;;;;;;;;;;;;;;;;;;;;;;;;;;;;;;;
"c1300631";;;"Windows 7";"Rachel's Experiment (DP)";"1.0";"3";"1";"1";"3";"1";"1";"2015-02-11 18:02:05.907";"2015-02-11 18:26:10.782";"1";"2";"0";"96";"95";"module.training_block3.exec-1931.GoNoGo3";;;;;;;;;;;;;;;;;;;;;;;;;;;;;;;;;;;;;;;;;;;;;;;;;;;;;;;;;;;;;;;;;;;;;"1262";"2015-02-11 18:08:35.425";"NST_correctLoc";"0";"1";"FINISHED";"RIGHT";"success";"503";"0";"2015-02-11 18:08:34.161";"1";;;;;;;;;;;;;;;;;;;;;;;;;;;;;;;;;
"c1300631";;;"Windows 7";"Rachel's Experiment (DP)";"1.0";"3";"1";"1";"3";"1";"1";"2015-02-11 18:02:05.907";"2015-02-11 18:26:10.782";"1";"2";"0";"97";"96";"module.training_block3.exec-1931.GoNoGo3";;;;;;;;;;;;;;;;;;;;;;;;;;;;;;;;;;;;;;;;;;;;;;;;;;;;;;;;;;;;;;;;;;;;;"1262";"2015-02-11 18:08:37.967";"NST_correctLoc";"8";"1";"FINISHED";"RIGHT";"success";"512";"0";"2015-02-11 18:08:36.704";"1";;;;;;;;;;;;;;;;;;;;;;;;;;;;;;;;;
"c1300631";;;"Windows 7";"Rachel's Experiment (DP)";"1.0";"3";"1";"1";"3";"1";"1";"2015-02-11 18:02:05.907";"2015-02-11 18:26:10.782";"1";"2";"0";"98";"97";"module.training_block3.exec-1931.GoNoGo3";;;;;;;;;;;;;;;;;;;;;;;;;;;;;;;;;;;;;;;;;;;;;;;;;;;;;;;;;;;;;;;;;;;;;"1262";"2015-02-11 18:08:40.495";"NST_correctLoc";"26";"0";"FINISHED";"LEFT";"success";"377";"0";"2015-02-11 18:08:39.231";"3";;;;;;;;;;;;;;;;;;;;;;;;;;;;;;;;;
"c1300631";;;"Windows 7";"Rachel's Experiment (DP)";"1.0";"3";"1";"1";"3";"1";"1";"2015-02-11 18:02:05.907";"2015-02-11 18:26:10.782";"1";"2";"0";"99";"98";"module.training_block3.exec-1931.GoNoGo3";;;;;;;;;;;;;;;;;;;;;;;;;;;;;;;;;;;;;;;;;;;;;;;;;;;;;;;;;;;;;;;;;;;;;"1262";"2015-02-11 18:08:43.022";"NST_correctLoc";"31";"0";"FINISHED";"LEFT";"success";"426";"0";"2015-02-11 18:08:41.758";"3";;;;;;;;;;;;;;;;;;;;;;;;;;;;;;;;;
"c1300631";;;"Windows 7";"Rachel's Experiment (DP)";"1.0";"3";"1";"1";"3";"1";"1";"2015-02-11 18:02:05.907";"2015-02-11 18:26:10.782";"1";"2";"0";"100";"99";"module.training_block3.exec-1931.GoNoGo3";;;;;;;;;;;;;;;;;;;;;;;;;;;;;;;;;;;;;;;;;;;;;;;;;;;;;;;;;;;;;;;;;;;;;"1262";"2015-02-11 18:08:45.549";"NST_correctLoc";"25";"0";"FINISHED";"LEFT";"success";"403";"0";"2015-02-11 18:08:44.285";"3";;;;;;;;;;;;;;;;;;;;;;;;;;;;;;;;;
"c1300631";;;"Windows 7";"Rachel's Experiment (DP)";"1.0";"3";"1";"1";"3";"1";"1";"2015-02-11 18:02:05.907";"2015-02-11 18:26:10.782";"1";"2";"0";"101";"100";"module.training_block3.exec-1931.GoNoGo3";;;;;;;;;;;;;;;;;;;;;;;;;;;;;;;;;;;;;;;;;;;;;;;;;;;;;;;;;;;;;;;;;;;;;"1262";"2015-02-11 18:08:48.076";"NST_correctLoc";"30";"0";"FINISHED";"LEFT";"success";"372";"0";"2015-02-11 18:08:46.813";"3";;;;;;;;;;;;;;;;;;;;;;;;;;;;;;;;;
"c1300631";;;"Windows 7";"Rachel's Experiment (DP)";"1.0";"3";"1";"1";"3";"1";"1";"2015-02-11 18:02:05.907";"2015-02-11 18:26:10.782";"1";"2";"0";"102";"101";"module.training_block3.exec-1931.GoNoGo3";;;;;;;;;;;;;;;;;;;;;;;;;;;;;;;;;;;;;;;;;;;;;;;;;;;;;;;;;;;;;;;;;;;;;"1262";"2015-02-11 18:08:50.603";"NST_correctLoc";"34";"0";"FINISHED";"LEFT";"success";"388";"0";"2015-02-11 18:08:49.340";"3";;;;;;;;;;;;;;;;;;;;;;;;;;;;;;;;;
"c1300631";;;"Windows 7";"Rachel's Experiment (DP)";"1.0";"3";"1";"1";"3";"1";"1";"2015-02-11 18:02:05.907";"2015-02-11 18:26:10.782";"1";"2";"0";"103";"102";"module.training_block3.exec-1931.GoNoGo3";;;;;;;;;;;;;;;;;;;;;;;;;;;;;;;;;;;;;;;;;;;;;;;;;;;;;;;;;;;;;;;;;;;;;"1262";"2015-02-11 18:08:53.131";"NST_correctLoc";"1";"1";"FINISHED";"RIGHT";"success";"357";"0";"2015-02-11 18:08:51.867";"1";;;;;;;;;;;;;;;;;;;;;;;;;;;;;;;;;
"c1300631";;;"Windows 7";"Rachel's Experiment (DP)";"1.0";"3";"1";"1";"3";"1";"1";"2015-02-11 18:02:05.907";"2015-02-11 18:26:10.782";"1";"2";"0";"104";"103";"module.training_block3.exec-1931.GoNoGo3";;;;;;;;;;;;;;;;;;;;;;;;;;;;;;;;;;;;;;;;;;;;;;;;;;;;;;;;;;;;;;;;;;;;;"1262";"2015-02-11 18:08:55.658";"NST_correctLoc";"7";"0";"FINISHED";"LEFT";"success";"342";"0";"2015-02-11 18:08:54.394";"1";;;;;;;;;;;;;;;;;;;;;;;;;;;;;;;;;
"c1300631";;;"Windows 7";"Rachel's Experiment (DP)";"1.0";"3";"1";"1";"3";"1";"1";"2015-02-11 18:02:05.907";"2015-02-11 18:26:10.782";"1";"2";"0";"105";"104";"module.training_block3.exec-1931.GoNoGo3";;;;;;;;;;;;;;;;;;;;;;;;;;;;;;;;;;;;;;;;;;;;;;;;;;;;;;;;;;;;;;;;;;;;;"1262";"2015-02-11 18:08:58.185";"NST_correctLoc";"19";"1";"FINISHED";"RIGHT";"success";"431";"0";"2015-02-11 18:08:56.921";"3";;;;;;;;;;;;;;;;;;;;;;;;;;;;;;;;;
"c1300631";;;"Windows 7";"Rachel's Experiment (DP)";"1.0";"3";"1";"1";"3";"1";"1";"2015-02-11 18:02:05.907";"2015-02-11 18:26:10.782";"1";"2";"0";"106";"105";"module.training_block3.exec-1931.GoNoGo3";;;;;;;;;;;;;;;;;;;;;;;;;;;;;;;;;;;;;;;;;;;;;;;;;;;;;;;;;;;;;;;;;;;;;"1261";"2015-02-11 18:09:00.712";"NST_correctLoc";"32";"0";"FINISHED";"LEFT";"success";"295";"0";"2015-02-11 18:08:59.449";"3";;;;;;;;;;;;;;;;;;;;;;;;;;;;;;;;;
"c1300631";;;"Windows 7";"Rachel's Experiment (DP)";"1.0";"3";"1";"1";"3";"1";"1";"2015-02-11 18:02:05.907";"2015-02-11 18:26:10.782";"1";"2";"0";"107";"106";"module.training_block3.exec-1931.GoNoGo3";;;;;;;;;;;;;;;;;;;;;;;;;;;;;;;;;;;;;;;;;;;;;;;;;;;;;;;;;;;;;;;;;;;;;"1261";"2015-02-11 18:09:03.255";"NST_correctLoc";"9";"0";"FINISHED";"LEFT";"success";"376";"0";"2015-02-11 18:09:01.991";"2";;;;;;;;;;;;;;;;;;;;;;;;;;;;;;;;;
"c1300631";;;"Windows 7";"Rachel's Experiment (DP)";"1.0";"3";"1";"1";"3";"1";"1";"2015-02-11 18:02:05.907";"2015-02-11 18:26:10.782";"1";"2";"0";"108";"107";"module.training_block3.exec-1931.GoNoGo3";;;;;;;;;;;;;;;;;;;;;;;;;;;;;;;;;;;;;;;;;;;;;;;;;;;;;;;;;;;;;;;;;;;;;"1262";"2015-02-11 18:09:05.782";"NST_correctLoc";"22";"1";"FINISHED";"RIGHT";"success";"514";"0";"2015-02-11 18:09:04.519";"3";;;;;;;;;;;;;;;;;;;;;;;;;;;;;;;;;
"c1300631";;;"Windows 7";"Rachel's Experiment (DP)";"1.0";"3";"1";"1";"3";"1";"1";"2015-02-11 18:02:05.907";"2015-02-11 18:26:10.782";"1";"2";"0";"109";"108";"module.training_block3.exec-1931.GoNoGo3";;;;;;;;;;;;;;;;;;;;;;;;;;;;;;;;;;;;;;;;;;;;;;;;;;;;;;;;;;;;;;;;;;;;;"1261";"2015-02-11 18:09:08.309";"NST_correctLoc";"2";"0";"FINISHED";"LEFT";"success";"409";"0";"2015-02-11 18:09:07.046";"1";;;;;;;;;;;;;;;;;;;;;;;;;;;;;;;;;
"c1300631";;;"Windows 7";"Rachel's Experiment (DP)";"1.0";"3";"1";"1";"3";"1";"1";"2015-02-11 18:02:05.907";"2015-02-11 18:26:10.782";"1";"2";"0";"110";"109";"module.training_block3.exec-1931.GoNoGo3";;;;;;;;;;;;;;;;;;;;;;;;;;;;;;;;;;;;;;;;;;;;;;;;;;;;;;;;;;;;;;;;;;;;;"1262";"2015-02-11 18:09:10.837";"NST_correctLoc";"16";"1";"FINISHED";"RIGHT";"success";"395";"0";"2015-02-11 18:09:09.573";"2";;;;;;;;;;;;;;;;;;;;;;;;;;;;;;;;;
"c1300631";;;"Windows 7";"Rachel's Experiment (DP)";"1.0";"3";"1";"1";"3";"1";"1";"2015-02-11 18:02:05.907";"2015-02-11 18:26:10.782";"1";"2";"0";"111";"110";"module.training_block3.exec-1931.GoNoGo3";;;;;;;;;;;;;;;;;;;;;;;;;;;;;;;;;;;;;;;;;;;;;;;;;;;;;;;;;;;;;;;;;;;;;"1262";"2015-02-11 18:09:13.364";"NST_correctLoc";"6";"0";"FINISHED";"LEFT";"success";"371";"0";"2015-02-11 18:09:12.100";"1";;;;;;;;;;;;;;;;;;;;;;;;;;;;;;;;;
"c1300631";;;"Windows 7";"Rachel's Experiment (DP)";"1.0";"3";"1";"1";"3";"1";"1";"2015-02-11 18:02:05.907";"2015-02-11 18:26:10.782";"1";"2";"0";"112";"111";"module.training_block3.exec-1931.GoNoGo3";;;;;;;;;;;;;;;;;;;;;;;;;;;;;;;;;;;;;;;;;;;;;;;;;;;;;;;;;;;;;;;;;;;;;"1261";"2015-02-11 18:09:15.907";"NST_correctLoc";"21";"0";"FINISHED";"LEFT";"success";"356";"0";"2015-02-11 18:09:14.643";"3";;;;;;;;;;;;;;;;;;;;;;;;;;;;;;;;;
"c1300631";;;"Windows 7";"Rachel's Experiment (DP)";"1.0";"3";"1";"1";"3";"1";"1";"2015-02-11 18:02:05.907";"2015-02-11 18:26:10.782";"1";"2";"0";"113";"112";"module.training_block3.exec-1931.GoNoGo3";;;;;;;;;;;;;;;;;;;;;;;;;;;;;;;;;;;;;;;;;;;;;;;;;;;;;;;;;;;;;;;;;;;;;"1261";"2015-02-11 18:09:18.434";"NST_correctLoc";"24";"1";"FINISHED";"RIGHT";"success";"397";"0";"2015-02-11 18:09:17.170";"3";;;;;;;;;;;;;;;;;;;;;;;;;;;;;;;;;
"c1300631";;;"Windows 7";"Rachel's Experiment (DP)";"1.0";"3";"1";"1";"3";"1";"1";"2015-02-11 18:02:05.907";"2015-02-11 18:26:10.782";"1";"2";"0";"114";"113";"module.training_block3.exec-1931.GoNoGo3";;;;;;;;;;;;;;;;;;;;;;;;;;;;;;;;;;;;;;;;;;;;;;;;;;;;;;;;;;;;;;;;;;;;;"1261";"2015-02-11 18:09:20.961";"NST_correctLoc";"29";"1";"FINISHED";"RIGHT";"success";"326";"0";"2015-02-11 18:09:19.697";"3";;;;;;;;;;;;;;;;;;;;;;;;;;;;;;;;;
"c1300631";;;"Windows 7";"Rachel's Experiment (DP)";"1.0";"3";"1";"1";"3";"1";"1";"2015-02-11 18:02:05.907";"2015-02-11 18:26:10.782";"1";"2";"0";"115";"114";"module.training_block3.exec-1931.GoNoGo3";;;;;;;;;;;;;;;;;;;;;;;;;;;;;;;;;;;;;;;;;;;;;;;;;;;;;;;;;;;;;;;;;;;;;"1261";"2015-02-11 18:09:23.504";"NST_correctLoc";"17";"1";"FINISHED";"RIGHT";"success";"335";"0";"2015-02-11 18:09:22.240";"2";;;;;;;;;;;;;;;;;;;;;;;;;;;;;;;;;
"c1300631";;;"Windows 7";"Rachel's Experiment (DP)";"1.0";"3";"1";"1";"3";"1";"1";"2015-02-11 18:02:05.907";"2015-02-11 18:26:10.782";"1";"2";"0";"116";"115";"module.training_block3.exec-1931.GoNoGo3";;;;;;;;;;;;;;;;;;;;;;;;;;;;;;;;;;;;;;;;;;;;;;;;;;;;;;;;;;;;;;;;;;;;;"1261";"2015-02-11 18:09:26.031";"NST_correctLoc";"13";"1";"FINISHED";"RIGHT";"success";"416";"0";"2015-02-11 18:09:24.767";"2";;;;;;;;;;;;;;;;;;;;;;;;;;;;;;;;;
"c1300631";;;"Windows 7";"Rachel's Experiment (DP)";"1.0";"3";"1";"1";"3";"1";"1";"2015-02-11 18:02:05.907";"2015-02-11 18:26:10.782";"1";"2";"0";"117";"116";"module.training_block3.exec-1931.GoNoGo3";;;;;;;;;;;;;;;;;;;;;;;;;;;;;;;;;;;;;;;;;;;;;;;;;;;;;;;;;;;;;;;;;;;;;"1261";"2015-02-11 18:09:28.558";"NST_correctLoc";"3";"1";"FINISHED";"RIGHT";"success";"385";"0";"2015-02-11 18:09:27.295";"1";;;;;;;;;;;;;;;;;;;;;;;;;;;;;;;;;
"c1300631";;;"Windows 7";"Rachel's Experiment (DP)";"1.0";"3";"1";"1";"3";"1";"1";"2015-02-11 18:02:05.907";"2015-02-11 18:26:10.782";"1";"2";"0";"118";"117";"module.training_block3.exec-1931.GoNoGo3";;;;;;;;;;;;;;;;;;;;;;;;;;;;;;;;;;;;;;;;;;;;;;;;;;;;;;;;;;;;;;;;;;;;;"1262";"2015-02-11 18:09:31.085";"NST_correctLoc";"4";"0";"FINISHED";"LEFT";"success";"425";"0";"2015-02-11 18:09:29.822";"1";;;;;;;;;;;;;;;;;;;;;;;;;;;;;;;;;
"c1300631";;;"Windows 7";"Rachel's Experiment (DP)";"1.0";"3";"1";"1";"3";"1";"1";"2015-02-11 18:02:05.907";"2015-02-11 18:26:10.782";"1";"2";"0";"119";"118";"module.training_block3.exec-1931.GoNoGo3";;;;;;;;;;;;;;;;;;;;;;;;;;;;;;;;;;;;;;;;;;;;;;;;;;;;;;;;;;;;;;;;;;;;;"1261";"2015-02-11 18:09:33.613";"NST_correctLoc";"15";"1";"FINISHED";"RIGHT";"success";"474";"0";"2015-02-11 18:09:32.349";"2";;;;;;;;;;;;;;;;;;;;;;;;;;;;;;;;;
"c1300631";;;"Windows 7";"Rachel's Experiment (DP)";"1.0";"3";"1";"1";"3";"1";"1";"2015-02-11 18:02:05.907";"2015-02-11 18:26:10.782";"1";"2";"0";"120";"119";"module.training_block3.exec-1931.GoNoGo3";;;;;;;;;;;;;;;;;;;;;;;;;;;;;;;;;;;;;;;;;;;;;;;;;;;;;;;;;;;;;;;;;;;;;"1261";"2015-02-11 18:09:36.140";"NST_correctLoc";"33";"0";"FINISHED";"LEFT";"success";"371";"0";"2015-02-11 18:09:34.876";"3";;;;;;;;;;;;;;;;;;;;;;;;;;;;;;;;;
"c1300631";;;"Windows 7";"Rachel's Experiment (DP)";"1.0";"3";"1";"1";"3";"1";"1";"2015-02-11 18:02:05.907";"2015-02-11 18:26:10.782";"1";"2";"0";"121";"120";"module.training_block3.exec-1931.GoNoGo3";;;;;;;;;;;;;;;;;;;;;;;;;;;;;;;;;;;;;;;;;;;;;;;;;;;;;;;;;;;;;;;;;;;;;"1261";"2015-02-11 18:09:38.667";"NST_correctLoc";"35";"1";"FINISHED";"RIGHT";"success";"324";"0";"2015-02-11 18:09:37.403";"3";;;;;;;;;;;;;;;;;;;;;;;;;;;;;;;;;
"c1300631";;;"Windows 7";"Rachel's Experiment (DP)";"1.0";"3";"1";"1";"3";"1";"1";"2015-02-11 18:02:05.907";"2015-02-11 18:26:10.782";"1";"2";"0";"122";"121";"module.training_block3.exec-1931.GoNoGo3";;;;;;;;;;;;;;;;;;;;;;;;;;;;;;;;;;;;;;;;;;;;;;;;;;;;;;;;;;;;;;;;;;;;;"1262";"2015-02-11 18:09:41.194";"NST_correctLoc";"28";"1";"FINISHED";"RIGHT";"success";"373";"0";"2015-02-11 18:09:39.931";"3";;;;;;;;;;;;;;;;;;;;;;;;;;;;;;;;;
"c1300631";;;"Windows 7";"Rachel's Experiment (DP)";"1.0";"3";"1";"1";"3";"1";"1";"2015-02-11 18:02:05.907";"2015-02-11 18:26:10.782";"1";"2";"0";"123";"122";"module.training_block3.exec-1931.GoNoGo3";;;;;;;;;;;;;;;;;;;;;;;;;;;;;;;;;;;;;;;;;;;;;;;;;;;;;;;;;;;;;;;;;;;;;"1261";"2015-02-11 18:09:43.721";"NST_correctLoc";"5";"0";"FINISHED";"LEFT";"success";"397";"0";"2015-02-11 18:09:42.458";"1";;;;;;;;;;;;;;;;;;;;;;;;;;;;;;;;;
"c1300631";;;"Windows 7";"Rachel's Experiment (DP)";"1.0";"3";"1";"1";"3";"1";"1";"2015-02-11 18:02:05.907";"2015-02-11 18:26:10.782";"1";"2";"0";"124";"123";"module.training_block4.exec-1957.GoNoGo4";;;;;;;;;;;;;;;;;;;;;;;;;;;;;;;;;;;;;;;;;;;;;;;;;;;;;;;;;;;;;;;;;;;;;;;;;;;;;;;;;"1262";"2015-02-11 18:09:54.673";"NST_correctLoc";"21";"0";"FINISHED";"LEFT";"success";"414";"0";"2015-02-11 18:09:53.409";"3";;;;;;;;;;;;;;;;;;;;;
"c1300631";;;"Windows 7";"Rachel's Experiment (DP)";"1.0";"3";"1";"1";"3";"1";"1";"2015-02-11 18:02:05.907";"2015-02-11 18:26:10.782";"1";"2";"0";"125";"124";"module.training_block4.exec-1957.GoNoGo4";;;;;;;;;;;;;;;;;;;;;;;;;;;;;;;;;;;;;;;;;;;;;;;;;;;;;;;;;;;;;;;;;;;;;;;;;;;;;;;;;"1261";"2015-02-11 18:09:57.215";"NST_correctLoc";"19";"1";"FINISHED";"RIGHT";"success";"335";"0";"2015-02-11 18:09:55.952";"3";;;;;;;;;;;;;;;;;;;;;
"c1300631";;;"Windows 7";"Rachel's Experiment (DP)";"1.0";"3";"1";"1";"3";"1";"1";"2015-02-11 18:02:05.907";"2015-02-11 18:26:10.782";"1";"2";"0";"126";"125";"module.training_block4.exec-1957.GoNoGo4";;;;;;;;;;;;;;;;;;;;;;;;;;;;;;;;;;;;;;;;;;;;;;;;;;;;;;;;;;;;;;;;;;;;;;;;;;;;;;;;;"1261";"2015-02-11 18:09:59.743";"NST_correctLoc";"1";"1";"FINISHED";"RIGHT";"success";"400";"0";"2015-02-11 18:09:58.479";"1";;;;;;;;;;;;;;;;;;;;;
"c1300631";;;"Windows 7";"Rachel's Experiment (DP)";"1.0";"3";"1";"1";"3";"1";"1";"2015-02-11 18:02:05.907";"2015-02-11 18:26:10.782";"1";"2";"0";"127";"126";"module.training_block4.exec-1957.GoNoGo4";;;;;;;;;;;;;;;;;;;;;;;;;;;;;;;;;;;;;;;;;;;;;;;;;;;;;;;;;;;;;;;;;;;;;;;;;;;;;;;;;"1262";"2015-02-11 18:10:02.270";"NST_correctLoc";"34";"0";"FINISHED";"LEFT";"success";"497";"0";"2015-02-11 18:10:01.006";"3";;;;;;;;;;;;;;;;;;;;;
"c1300631";;;"Windows 7";"Rachel's Experiment (DP)";"1.0";"3";"1";"1";"3";"1";"1";"2015-02-11 18:02:05.907";"2015-02-11 18:26:10.782";"1";"2";"0";"128";"127";"module.training_block4.exec-1957.GoNoGo4";;;;;;;;;;;;;;;;;;;;;;;;;;;;;;;;;;;;;;;;;;;;;;;;;;;;;;;;;;;;;;;;;;;;;;;;;;;;;;;;;"1262";"2015-02-11 18:10:04.797";"NST_correctLoc";"18";"1";"FINISHED";"RIGHT";"success";"393";"0";"2015-02-11 18:10:03.533";"3";;;;;;;;;;;;;;;;;;;;;
"c1300631";;;"Windows 7";"Rachel's Experiment (DP)";"1.0";"3";"1";"1";"3";"1";"1";"2015-02-11 18:02:05.907";"2015-02-11 18:26:10.782";"1";"2";"0";"129";"128";"module.training_block4.exec-1957.GoNoGo4";;;;;;;;;;;;;;;;;;;;;;;;;;;;;;;;;;;;;;;;;;;;;;;;;;;;;;;;;;;;;;;;;;;;;;;;;;;;;;;;;"1258";"2015-02-11 18:10:07.324";"NST_correctLoc";"16";"1";"FINISHED";"RIGHT";"success";"430";"0";"2015-02-11 18:10:06.061";"2";;;;;;;;;;;;;;;;;;;;;
"c1300631";;;"Windows 7";"Rachel's Experiment (DP)";"1.0";"3";"1";"1";"3";"1";"1";"2015-02-11 18:02:05.907";"2015-02-11 18:26:10.782";"1";"2";"0";"130";"129";"module.training_block4.exec-1957.GoNoGo4";;;;;;;;;;;;;;;;;;;;;;;;;;;;;;;;;;;;;;;;;;;;;;;;;;;;;;;;;;;;;;;;;;;;;;;;;;;;;;;;;"1261";"2015-02-11 18:10:09.851";"NST_correctLoc";"13";"1";"FINISHED";"RIGHT";"success";"387";"0";"2015-02-11 18:10:08.588";"2";;;;;;;;;;;;;;;;;;;;;
"c1300631";;;"Windows 7";"Rachel's Experiment (DP)";"1.0";"3";"1";"1";"3";"1";"1";"2015-02-11 18:02:05.907";"2015-02-11 18:26:10.782";"1";"2";"0";"131";"130";"module.training_block4.exec-1957.GoNoGo4";;;;;;;;;;;;;;;;;;;;;;;;;;;;;;;;;;;;;;;;;;;;;;;;;;;;;;;;;;;;;;;;;;;;;;;;;;;;;;;;;"1261";"2015-02-11 18:10:12.379";"NST_correctLoc";"5";"1";"FINISHED";"RIGHT";"success";"412";"0";"2015-02-11 18:10:11.115";"1";;;;;;;;;;;;;;;;;;;;;
"c1300631";;;"Windows 7";"Rachel's Experiment (DP)";"1.0";"3";"1";"1";"3";"1";"1";"2015-02-11 18:02:05.907";"2015-02-11 18:26:10.782";"1";"2";"0";"132";"131";"module.training_block4.exec-1957.GoNoGo4";;;;;;;;;;;;;;;;;;;;;;;;;;;;;;;;;;;;;;;;;;;;;;;;;;;;;;;;;;;;;;;;;;;;;;;;;;;;;;;;;"1261";"2015-02-11 18:10:14.906";"NST_correctLoc";"12";"0";"FINISHED";"LEFT";"success";"501";"0";"2015-02-11 18:10:13.642";"2";;;;;;;;;;;;;;;;;;;;;
"c1300631";;;"Windows 7";"Rachel's Experiment (DP)";"1.0";"3";"1";"1";"3";"1";"1";"2015-02-11 18:02:05.907";"2015-02-11 18:26:10.782";"1";"2";"0";"133";"132";"module.training_block4.exec-1957.GoNoGo4";;;;;;;;;;;;;;;;;;;;;;;;;;;;;;;;;;;;;;;;;;;;;;;;;;;;;;;;;;;;;;;;;;;;;;;;;;;;;;;;;"1261";"2015-02-11 18:10:17.433";"NST_correctLoc";"3";"0";"FINISHED";"LEFT";"success";"454";"0";"2015-02-11 18:10:16.169";"1";;;;;;;;;;;;;;;;;;;;;
"c1300631";;;"Windows 7";"Rachel's Experiment (DP)";"1.0";"3";"1";"1";"3";"1";"1";"2015-02-11 18:02:05.907";"2015-02-11 18:26:10.782";"1";"2";"0";"134";"133";"module.training_block4.exec-1957.GoNoGo4";;;;;;;;;;;;;;;;;;;;;;;;;;;;;;;;;;;;;;;;;;;;;;;;;;;;;;;;;;;;;;;;;;;;;;;;;;;;;;;;;"1262";"2015-02-11 18:10:19.960";"NST_correctLoc";"4";"1";"FINISHED";"RIGHT";"success";"358";"0";"2015-02-11 18:10:18.697";"1";;;;;;;;;;;;;;;;;;;;;
"c1300631";;;"Windows 7";"Rachel's Experiment (DP)";"1.0";"3";"1";"1";"3";"1";"1";"2015-02-11 18:02:05.907";"2015-02-11 18:26:10.782";"1";"2";"0";"135";"134";"module.training_block4.exec-1957.GoNoGo4";;;;;;;;;;;;;;;;;;;;;;;;;;;;;;;;;;;;;;;;;;;;;;;;;;;;;;;;;;;;;;;;;;;;;;;;;;;;;;;;;"1261";"2015-02-11 18:10:22.488";"NST_correctLoc";"33";"0";"FINISHED";"LEFT";"success";"367";"0";"2015-02-11 18:10:21.224";"3";;;;;;;;;;;;;;;;;;;;;
"c1300631";;;"Windows 7";"Rachel's Experiment (DP)";"1.0";"3";"1";"1";"3";"1";"1";"2015-02-11 18:02:05.907";"2015-02-11 18:26:10.782";"1";"2";"0";"136";"135";"module.training_block4.exec-1957.GoNoGo4";;;;;;;;;;;;;;;;;;;;;;;;;;;;;;;;;;;;;;;;;;;;;;;;;;;;;;;;;;;;;;;;;;;;;;;;;;;;;;;;;"1261";"2015-02-11 18:10:25.015";"NST_correctLoc";"15";"0";"FINISHED";"LEFT";"success";"368";"0";"2015-02-11 18:10:23.751";"2";;;;;;;;;;;;;;;;;;;;;
"c1300631";;;"Windows 7";"Rachel's Experiment (DP)";"1.0";"3";"1";"1";"3";"1";"1";"2015-02-11 18:02:05.907";"2015-02-11 18:26:10.782";"1";"2";"0";"137";"136";"module.training_block4.exec-1957.GoNoGo4";;;;;;;;;;;;;;;;;;;;;;;;;;;;;;;;;;;;;;;;;;;;;;;;;;;;;;;;;;;;;;;;;;;;;;;;;;;;;;;;;"1262";"2015-02-11 18:10:27.558";"NST_correctLoc";"29";"0";"FINISHED";"LEFT";"success";"417";"0";"2015-02-11 18:10:26.294";"3";;;;;;;;;;;;;;;;;;;;;
"c1300631";;;"Windows 7";"Rachel's Experiment (DP)";"1.0";"3";"1";"1";"3";"1";"1";"2015-02-11 18:02:05.907";"2015-02-11 18:26:10.782";"1";"2";"0";"138";"137";"module.training_block4.exec-1957.GoNoGo4";;;;;;;;;;;;;;;;;;;;;;;;;;;;;;;;;;;;;;;;;;;;;;;;;;;;;;;;;;;;;;;;;;;;;;;;;;;;;;;;;"1261";"2015-02-11 18:10:30.085";"NST_correctLoc";"9";"1";"FINISHED";"RIGHT";"success";"402";"0";"2015-02-11 18:10:28.821";"2";;;;;;;;;;;;;;;;;;;;;
"c1300631";;;"Windows 7";"Rachel's Experiment (DP)";"1.0";"3";"1";"1";"3";"1";"1";"2015-02-11 18:02:05.907";"2015-02-11 18:26:10.782";"1";"2";"0";"139";"138";"module.training_block4.exec-1957.GoNoGo4";;;;;;;;;;;;;;;;;;;;;;;;;;;;;;;;;;;;;;;;;;;;;;;;;;;;;;;;;;;;;;;;;;;;;;;;;;;;;;;;;"1261";"2015-02-11 18:10:32.612";"NST_correctLoc";"20";"0";"FINISHED";"LEFT";"success";"362";"0";"2015-02-11 18:10:31.348";"3";;;;;;;;;;;;;;;;;;;;;
"c1300631";;;"Windows 7";"Rachel's Experiment (DP)";"1.0";"3";"1";"1";"3";"1";"1";"2015-02-11 18:02:05.907";"2015-02-11 18:26:10.782";"1";"2";"0";"140";"139";"module.training_block4.exec-1957.GoNoGo4";;;;;;;;;;;;;;;;;;;;;;;;;;;;;;;;;;;;;;;;;;;;;;;;;;;;;;;;;;;;;;;;;;;;;;;;;;;;;;;;;"1261";"2015-02-11 18:10:35.139";"NST_correctLoc";"6";"1";"FINISHED";"RIGHT";"success";"379";"0";"2015-02-11 18:10:33.876";"1";;;;;;;;;;;;;;;;;;;;;
"c1300631";;;"Windows 7";"Rachel's Experiment (DP)";"1.0";"3";"1";"1";"3";"1";"1";"2015-02-11 18:02:05.907";"2015-02-11 18:26:10.782";"1";"2";"0";"141";"140";"module.training_block4.exec-1957.GoNoGo4";;;;;;;;;;;;;;;;;;;;;;;;;;;;;;;;;;;;;;;;;;;;;;;;;;;;;;;;;;;;;;;;;;;;;;;;;;;;;;;;;"1261";"2015-02-11 18:10:37.666";"NST_correctLoc";"2";"0";"FINISHED";"LEFT";"success";"340";"0";"2015-02-11 18:10:36.403";"1";;;;;;;;;;;;;;;;;;;;;
"c1300631";;;"Windows 7";"Rachel's Experiment (DP)";"1.0";"3";"1";"1";"3";"1";"1";"2015-02-11 18:02:05.907";"2015-02-11 18:26:10.782";"1";"2";"0";"142";"141";"module.training_block4.exec-1957.GoNoGo4";;;;;;;;;;;;;;;;;;;;;;;;;;;;;;;;;;;;;;;;;;;;;;;;;;;;;;;;;;;;;;;;;;;;;;;;;;;;;;;;;"1261";"2015-02-11 18:10:40.209";"NST_correctLoc";"24";"1";"FINISHED";"RIGHT";"success";"309";"0";"2015-02-11 18:10:38.946";"3";;;;;;;;;;;;;;;;;;;;;
"c1300631";;;"Windows 7";"Rachel's Experiment (DP)";"1.0";"3";"1";"1";"3";"1";"1";"2015-02-11 18:02:05.907";"2015-02-11 18:26:10.782";"1";"2";"0";"143";"142";"module.training_block4.exec-1957.GoNoGo4";;;;;;;;;;;;;;;;;;;;;;;;;;;;;;;;;;;;;;;;;;;;;;;;;;;;;;;;;;;;;;;;;;;;;;;;;;;;;;;;;"1261";"2015-02-11 18:10:42.736";"NST_correctLoc";"0";"0";"FINISHED";"LEFT";"success";"286";"0";"2015-02-11 18:10:41.473";"1";;;;;;;;;;;;;;;;;;;;;
"c1300631";;;"Windows 7";"Rachel's Experiment (DP)";"1.0";"3";"1";"1";"3";"1";"1";"2015-02-11 18:02:05.907";"2015-02-11 18:26:10.782";"1";"2";"0";"144";"143";"module.training_block4.exec-1957.GoNoGo4";;;;;;;;;;;;;;;;;;;;;;;;;;;;;;;;;;;;;;;;;;;;;;;;;;;;;;;;;;;;;;;;;;;;;;;;;;;;;;;;;"1261";"2015-02-11 18:10:45.264";"NST_correctLoc";"8";"0";"FINISHED";"LEFT";"success";"391";"0";"2015-02-11 18:10:44.000";"1";;;;;;;;;;;;;;;;;;;;;
"c1300631";;;"Windows 7";"Rachel's Experiment (DP)";"1.0";"3";"1";"1";"3";"1";"1";"2015-02-11 18:02:05.907";"2015-02-11 18:26:10.782";"1";"2";"0";"145";"144";"module.training_block4.exec-1957.GoNoGo4";;;;;;;;;;;;;;;;;;;;;;;;;;;;;;;;;;;;;;;;;;;;;;;;;;;;;;;;;;;;;;;;;;;;;;;;;;;;;;;;;"1261";"2015-02-11 18:10:47.791";"NST_correctLoc";"7";"0";"FINISHED";"LEFT";"success";"352";"0";"2015-02-11 18:10:46.527";"1";;;;;;;;;;;;;;;;;;;;;
"c1300631";;;"Windows 7";"Rachel's Experiment (DP)";"1.0";"3";"1";"1";"3";"1";"1";"2015-02-11 18:02:05.907";"2015-02-11 18:26:10.782";"1";"2";"0";"146";"145";"module.training_block4.exec-1957.GoNoGo4";;;;;;;;;;;;;;;;;;;;;;;;;;;;;;;;;;;;;;;;;;;;;;;;;;;;;;;;;;;;;;;;;;;;;;;;;;;;;;;;;"1261";"2015-02-11 18:10:50.318";"NST_correctLoc";"31";"0";"FINISHED";"LEFT";"success";"608";"0";"2015-02-11 18:10:49.054";"3";;;;;;;;;;;;;;;;;;;;;
"c1300631";;;"Windows 7";"Rachel's Experiment (DP)";"1.0";"3";"1";"1";"3";"1";"1";"2015-02-11 18:02:05.907";"2015-02-11 18:26:10.782";"1";"2";"0";"147";"146";"module.training_block4.exec-1957.GoNoGo4";;;;;;;;;;;;;;;;;;;;;;;;;;;;;;;;;;;;;;;;;;;;;;;;;;;;;;;;;;;;;;;;;;;;;;;;;;;;;;;;;"1261";"2015-02-11 18:10:52.845";"NST_correctLoc";"22";"1";"FINISHED";"RIGHT";"success";"369";"0";"2015-02-11 18:10:51.582";"3";;;;;;;;;;;;;;;;;;;;;
"c1300631";;;"Windows 7";"Rachel's Experiment (DP)";"1.0";"3";"1";"1";"3";"1";"1";"2015-02-11 18:02:05.907";"2015-02-11 18:26:10.782";"1";"2";"0";"148";"147";"module.training_block4.exec-1957.GoNoGo4";;;;;;;;;;;;;;;;;;;;;;;;;;;;;;;;;;;;;;;;;;;;;;;;;;;;;;;;;;;;;;;;;;;;;;;;;;;;;;;;;"1262";"2015-02-11 18:10:55.372";"NST_correctLoc";"25";"1";"FINISHED";"RIGHT";"success";"362";"0";"2015-02-11 18:10:54.109";"3";;;;;;;;;;;;;;;;;;;;;
"c1300631";;;"Windows 7";"Rachel's Experiment (DP)";"1.0";"3";"1";"1";"3";"1";"1";"2015-02-11 18:02:05.907";"2015-02-11 18:26:10.782";"1";"2";"0";"149";"148";"module.training_block4.exec-1957.GoNoGo4";;;;;;;;;;;;;;;;;;;;;;;;;;;;;;;;;;;;;;;;;;;;;;;;;;;;;;;;;;;;;;;;;;;;;;;;;;;;;;;;;"1262";"2015-02-11 18:10:57.900";"NST_correctLoc";"28";"1";"FINISHED";"RIGHT";"success";"339";"0";"2015-02-11 18:10:56.636";"3";;;;;;;;;;;;;;;;;;;;;
"c1300631";;;"Windows 7";"Rachel's Experiment (DP)";"1.0";"3";"1";"1";"3";"1";"1";"2015-02-11 18:02:05.907";"2015-02-11 18:26:10.782";"1";"2";"0";"150";"149";"module.training_block4.exec-1957.GoNoGo4";;;;;;;;;;;;;;;;;;;;;;;;;;;;;;;;;;;;;;;;;;;;;;;;;;;;;;;;;;;;;;;;;;;;;;;;;;;;;;;;;"1261";"2015-02-11 18:11:00.427";"NST_correctLoc";"32";"1";"FINISHED";"RIGHT";"success";"372";"0";"2015-02-11 18:10:59.163";"3";;;;;;;;;;;;;;;;;;;;;
"c1300631";;;"Windows 7";"Rachel's Experiment (DP)";"1.0";"3";"1";"1";"3";"1";"1";"2015-02-11 18:02:05.907";"2015-02-11 18:26:10.782";"1";"2";"0";"151";"150";"module.training_block4.exec-1957.GoNoGo4";;;;;;;;;;;;;;;;;;;;;;;;;;;;;;;;;;;;;;;;;;;;;;;;;;;;;;;;;;;;;;;;;;;;;;;;;;;;;;;;;"1262";"2015-02-11 18:11:02.954";"NST_correctLoc";"23";"1";"FINISHED";"RIGHT";"success";"316";"0";"2015-02-11 18:11:01.690";"3";;;;;;;;;;;;;;;;;;;;;
"c1300631";;;"Windows 7";"Rachel's Experiment (DP)";"1.0";"3";"1";"1";"3";"1";"1";"2015-02-11 18:02:05.907";"2015-02-11 18:26:10.782";"1";"2";"0";"152";"151";"module.training_block4.exec-1957.GoNoGo4";;;;;;;;;;;;;;;;;;;;;;;;;;;;;;;;;;;;;;;;;;;;;;;;;;;;;;;;;;;;;;;;;;;;;;;;;;;;;;;;;"1261";"2015-02-11 18:11:05.481";"NST_correctLoc";"17";"0";"FINISHED";"LEFT";"success";"381";"0";"2015-02-11 18:11:04.218";"2";;;;;;;;;;;;;;;;;;;;;
"c1300631";;;"Windows 7";"Rachel's Experiment (DP)";"1.0";"3";"1";"1";"3";"1";"1";"2015-02-11 18:02:05.907";"2015-02-11 18:26:10.782";"1";"2";"0";"153";"152";"module.training_block4.exec-1957.GoNoGo4";;;;;;;;;;;;;;;;;;;;;;;;;;;;;;;;;;;;;;;;;;;;;;;;;;;;;;;;;;;;;;;;;;;;;;;;;;;;;;;;;"1261";"2015-02-11 18:11:08.008";"NST_correctLoc";"10";"1";"FINISHED";"RIGHT";"success";"358";"0";"2015-02-11 18:11:06.745";"2";;;;;;;;;;;;;;;;;;;;;
"c1300631";;;"Windows 7";"Rachel's Experiment (DP)";"1.0";"3";"1";"1";"3";"1";"1";"2015-02-11 18:02:05.907";"2015-02-11 18:26:10.782";"1";"2";"0";"154";"153";"module.training_block4.exec-1957.GoNoGo4";;;;;;;;;;;;;;;;;;;;;;;;;;;;;;;;;;;;;;;;;;;;;;;;;;;;;;;;;;;;;;;;;;;;;;;;;;;;;;;;;"1261";"2015-02-11 18:11:10.551";"NST_correctLoc";"35";"0";"FINISHED";"LEFT";"success";"335";"0";"2015-02-11 18:11:09.288";"3";;;;;;;;;;;;;;;;;;;;;
"c1300631";;;"Windows 7";"Rachel's Experiment (DP)";"1.0";"3";"1";"1";"3";"1";"1";"2015-02-11 18:02:05.907";"2015-02-11 18:26:10.782";"1";"2";"0";"155";"154";"module.training_block4.exec-1957.GoNoGo4";;;;;;;;;;;;;;;;;;;;;;;;;;;;;;;;;;;;;;;;;;;;;;;;;;;;;;;;;;;;;;;;;;;;;;;;;;;;;;;;;"1261";"2015-02-11 18:11:13.078";"NST_correctLoc";"27";"1";"FINISHED";"RIGHT";"success";"416";"0";"2015-02-11 18:11:11.815";"3";;;;;;;;;;;;;;;;;;;;;
"c1300631";;;"Windows 7";"Rachel's Experiment (DP)";"1.0";"3";"1";"1";"3";"1";"1";"2015-02-11 18:02:05.907";"2015-02-11 18:26:10.782";"1";"2";"0";"156";"155";"module.training_block4.exec-1957.GoNoGo4";;;;;;;;;;;;;;;;;;;;;;;;;;;;;;;;;;;;;;;;;;;;;;;;;;;;;;;;;;;;;;;;;;;;;;;;;;;;;;;;;"1261";"2015-02-11 18:11:15.606";"NST_correctLoc";"26";"1";"FINISHED";"RIGHT";"success";"368";"0";"2015-02-11 18:11:14.342";"3";;;;;;;;;;;;;;;;;;;;;
"c1300631";;;"Windows 7";"Rachel's Experiment (DP)";"1.0";"3";"1";"1";"3";"1";"1";"2015-02-11 18:02:05.907";"2015-02-11 18:26:10.782";"1";"2";"0";"157";"156";"module.training_block4.exec-1957.GoNoGo4";;;;;;;;;;;;;;;;;;;;;;;;;;;;;;;;;;;;;;;;;;;;;;;;;;;;;;;;;;;;;;;;;;;;;;;;;;;;;;;;;"1262";"2015-02-11 18:11:18.148";"NST_correctLoc";"30";"0";"FINISHED";"LEFT";"success";"370";"0";"2015-02-11 18:11:16.885";"3";;;;;;;;;;;;;;;;;;;;;
"c1300631";;;"Windows 7";"Rachel's Experiment (DP)";"1.0";"3";"1";"1";"3";"1";"1";"2015-02-11 18:02:05.907";"2015-02-11 18:26:10.782";"1";"2";"0";"158";"157";"module.training_block4.exec-1957.GoNoGo4";;;;;;;;;;;;;;;;;;;;;;;;;;;;;;;;;;;;;;;;;;;;;;;;;;;;;;;;;;;;;;;;;;;;;;;;;;;;;;;;;"1261";"2015-02-11 18:11:20.691";"NST_correctLoc";"11";"0";"FINISHED";"LEFT";"success";"395";"0";"2015-02-11 18:11:19.428";"2";;;;;;;;;;;;;;;;;;;;;
"c1300631";;;"Windows 7";"Rachel's Experiment (DP)";"1.0";"3";"1";"1";"3";"1";"1";"2015-02-11 18:02:05.907";"2015-02-11 18:26:10.782";"1";"2";"0";"159";"158";"module.training_block4.exec-1957.GoNoGo4";;;;;;;;;;;;;;;;;;;;;;;;;;;;;;;;;;;;;;;;;;;;;;;;;;;;;;;;;;;;;;;;;;;;;;;;;;;;;;;;;"1261";"2015-02-11 18:11:23.218";"NST_correctLoc";"14";"1";"FINISHED";"RIGHT";"success";"324";"0";"2015-02-11 18:11:21.955";"2";;;;;;;;;;;;;;;;;;;;;
"c1300631";;;"Windows 7";"Rachel's Experiment (DP)";"1.0";"3";"1";"1";"3";"1";"1";"2015-02-11 18:02:05.907";"2015-02-11 18:26:10.782";"1";"2";"0";"160";"159";"module.DP_Practice.exec-9616.DP_practice";;;;;;;;;;;;;;;;;;;;;;;;;;;;;;;;;;"3021";"2015-02-11 18:12:18.677";"FINISHED";"2";"RIGHT";"success";"680";"2015-02-11 18:12:15.650";"250";"N15";"N16";;;;;;;;;;;;;;;;;;;;;;;;;;;;;;;;;;;;;;;;;;;;;;;;;;;;;;;;;;;;;;;;;;;;;
"c1300631";;;"Windows 7";"Rachel's Experiment (DP)";"1.0";"3";"1";"1";"3";"1";"1";"2015-02-11 18:02:05.907";"2015-02-11 18:26:10.782";"1";"2";"0";"161";"160";"module.DP_Practice.exec-9616.DP_practice";;;;;;;;;;;;;;;;;;;;;;;;;;;;;;;;;;"3024";"2015-02-11 18:12:21.984";"FINISHED";"2";"RIGHT";"success";"584";"2015-02-11 18:12:18.957";"250";"N13";"N14";;;;;;;;;;;;;;;;;;;;;;;;;;;;;;;;;;;;;;;;;;;;;;;;;;;;;;;;;;;;;;;;;;;;;
"c1300631";;;"Windows 7";"Rachel's Experiment (DP)";"1.0";"3";"1";"1";"3";"1";"1";"2015-02-11 18:02:05.907";"2015-02-11 18:26:10.782";"1";"2";"0";"162";"161";"module.DP_Practice.exec-9616.DP_practice";;;;;;;;;;;;;;;;;;;;;;;;;;;;;;;;;;"3024";"2015-02-11 18:12:25.291";"FINISHED";"2";"RIGHT";"success";"485";"2015-02-11 18:12:22.265";"250";"N8";"N7";;;;;;;;;;;;;;;;;;;;;;;;;;;;;;;;;;;;;;;;;;;;;;;;;;;;;;;;;;;;;;;;;;;;;
"c1300631";;;"Windows 7";"Rachel's Experiment (DP)";"1.0";"3";"1";"1";"3";"1";"1";"2015-02-11 18:02:05.907";"2015-02-11 18:26:10.782";"1";"2";"0";"163";"162";"module.DP_Practice.exec-9616.DP_practice";;;;;;;;;;;;;;;;;;;;;;;;;;;;;;;;;;"3024";"2015-02-11 18:12:28.598";"FINISHED";"1";"LEFT";"success";"426";"2015-02-11 18:12:25.572";"250";"N5";"N6";;;;;;;;;;;;;;;;;;;;;;;;;;;;;;;;;;;;;;;;;;;;;;;;;;;;;;;;;;;;;;;;;;;;;
"c1300631";;;"Windows 7";"Rachel's Experiment (DP)";"1.0";"3";"1";"1";"3";"1";"1";"2015-02-11 18:02:05.907";"2015-02-11 18:26:10.782";"1";"2";"0";"164";"163";"module.DP_Practice.exec-9616.DP_practice";;;;;;;;;;;;;;;;;;;;;;;;;;;;;;;;;;"3024";"2015-02-11 18:12:31.905";"FINISHED";"1";"LEFT";"success";"535";"2015-02-11 18:12:28.879";"250";"N16";"N15";;;;;;;;;;;;;;;;;;;;;;;;;;;;;;;;;;;;;;;;;;;;;;;;;;;;;;;;;;;;;;;;;;;;;
"c1300631";;;"Windows 7";"Rachel's Experiment (DP)";"1.0";"3";"1";"1";"3";"1";"1";"2015-02-11 18:02:05.907";"2015-02-11 18:26:10.782";"1";"2";"0";"165";"164";"module.DP_Practice.exec-9616.DP_practice";;;;;;;;;;;;;;;;;;;;;;;;;;;;;;;;;;"3024";"2015-02-11 18:12:35.213";"FINISHED";"1";"LEFT";"success";"515";"2015-02-11 18:12:32.186";"250";"N12";"N11";;;;;;;;;;;;;;;;;;;;;;;;;;;;;;;;;;;;;;;;;;;;;;;;;;;;;;;;;;;;;;;;;;;;;
"c1300631";;;"Windows 7";"Rachel's Experiment (DP)";"1.0";"3";"1";"1";"3";"1";"1";"2015-02-11 18:02:05.907";"2015-02-11 18:26:10.782";"1";"2";"0";"166";"165";"module.DP_Practice.exec-9616.DP_practice";;;;;;;;;;;;;;;;;;;;;;;;;;;;;;;;;;"3019";"2015-02-11 18:12:38.520";"FINISHED";"2";"RIGHT";"success";"435";"2015-02-11 18:12:35.493";"250";"N19";"N20";;;;;;;;;;;;;;;;;;;;;;;;;;;;;;;;;;;;;;;;;;;;;;;;;;;;;;;;;;;;;;;;;;;;;
"c1300631";;;"Windows 7";"Rachel's Experiment (DP)";"1.0";"3";"1";"1";"3";"1";"1";"2015-02-11 18:02:05.907";"2015-02-11 18:26:10.782";"1";"2";"0";"167";"166";"module.DP_Practice.exec-9616.DP_practice";;;;;;;;;;;;;;;;;;;;;;;;;;;;;;;;;;"3024";"2015-02-11 18:12:41.827";"FINISHED";"2";"RIGHT";"success";"525";"2015-02-11 18:12:38.801";"250";"N18";"N17";;;;;;;;;;;;;;;;;;;;;;;;;;;;;;;;;;;;;;;;;;;;;;;;;;;;;;;;;;;;;;;;;;;;;
"c1300631";;;"Windows 7";"Rachel's Experiment (DP)";"1.0";"3";"1";"1";"3";"1";"1";"2015-02-11 18:02:05.907";"2015-02-11 18:26:10.782";"1";"2";"0";"168";"167";"module.DP_Practice.exec-9616.DP_practice";;;;;;;;;;;;;;;;;;;;;;;;;;;;;;;;;;"3024";"2015-02-11 18:12:45.134";"FINISHED";"1";"LEFT";"success";"474";"2015-02-11 18:12:42.108";"250";"N10";"N9";;;;;;;;;;;;;;;;;;;;;;;;;;;;;;;;;;;;;;;;;;;;;;;;;;;;;;;;;;;;;;;;;;;;;
"c1300631";;;"Windows 7";"Rachel's Experiment (DP)";"1.0";"3";"1";"1";"3";"1";"1";"2015-02-11 18:02:05.907";"2015-02-11 18:26:10.782";"1";"2";"0";"169";"168";"module.DP_Practice.exec-9616.DP_practice";;;;;;;;;;;;;;;;;;;;;;;;;;;;;;;;;;"3024";"2015-02-11 18:12:48.426";"FINISHED";"2";"RIGHT";"success";"366";"2015-02-11 18:12:45.399";"250";"N14";"N13";;;;;;;;;;;;;;;;;;;;;;;;;;;;;;;;;;;;;;;;;;;;;;;;;;;;;;;;;;;;;;;;;;;;;
"c1300631";;;"Windows 7";"Rachel's Experiment (DP)";"1.0";"3";"1";"1";"3";"1";"1";"2015-02-11 18:02:05.907";"2015-02-11 18:26:10.782";"1";"2";"0";"170";"169";"module.DP_Practice.exec-9616.DP_practice";;;;;;;;;;;;;;;;;;;;;;;;;;;;;;;;;;"3024";"2015-02-11 18:12:51.733";"FINISHED";"1";"LEFT";"success";"411";"2015-02-11 18:12:48.707";"250";"N9";"N10";;;;;;;;;;;;;;;;;;;;;;;;;;;;;;;;;;;;;;;;;;;;;;;;;;;;;;;;;;;;;;;;;;;;;
"c1300631";;;"Windows 7";"Rachel's Experiment (DP)";"1.0";"3";"1";"1";"3";"1";"1";"2015-02-11 18:02:05.907";"2015-02-11 18:26:10.782";"1";"2";"0";"171";"170";"module.DP_Practice.exec-9616.DP_practice";;;;;;;;;;;;;;;;;;;;;;;;;;;;;;;;;;"3024";"2015-02-11 18:12:55.025";"FINISHED";"1";"LEFT";"success";"463";"2015-02-11 18:12:51.998";"250";"N11";"N12";;;;;;;;;;;;;;;;;;;;;;;;;;;;;;;;;;;;;;;;;;;;;;;;;;;;;;;;;;;;;;;;;;;;;
"c1300631";;;"Windows 7";"Rachel's Experiment (DP)";"1.0";"3";"1";"1";"3";"1";"1";"2015-02-11 18:02:05.907";"2015-02-11 18:26:10.782";"1";"2";"0";"172";"171";"module.DP_Practice.exec-9616.DP_practice";;;;;;;;;;;;;;;;;;;;;;;;;;;;;;;;;;"3024";"2015-02-11 18:12:58.316";"FINISHED";"1";"LEFT";"success";"444";"2015-02-11 18:12:55.290";"250";"N17";"N18";;;;;;;;;;;;;;;;;;;;;;;;;;;;;;;;;;;;;;;;;;;;;;;;;;;;;;;;;;;;;;;;;;;;;
"c1300631";;;"Windows 7";"Rachel's Experiment (DP)";"1.0";"3";"1";"1";"3";"1";"1";"2015-02-11 18:02:05.907";"2015-02-11 18:26:10.782";"1";"2";"0";"173";"172";"module.DP_Practice.exec-9616.DP_practice";;;;;;;;;;;;;;;;;;;;;;;;;;;;;;;;;;"3024";"2015-02-11 18:13:01.623";"FINISHED";"2";"RIGHT";"success";"368";"2015-02-11 18:12:58.597";"250";"N3";"N4";;;;;;;;;;;;;;;;;;;;;;;;;;;;;;;;;;;;;;;;;;;;;;;;;;;;;;;;;;;;;;;;;;;;;
"c1300631";;;"Windows 7";"Rachel's Experiment (DP)";"1.0";"3";"1";"1";"3";"1";"1";"2015-02-11 18:02:05.907";"2015-02-11 18:26:10.782";"1";"2";"0";"174";"173";"module.DP_Practice.exec-9616.DP_practice";;;;;;;;;;;;;;;;;;;;;;;;;;;;;;;;;;"3024";"2015-02-11 18:13:04.915";"FINISHED";"2";"RIGHT";"success";"405";"2015-02-11 18:13:01.889";"250";"N20";"N19";;;;;;;;;;;;;;;;;;;;;;;;;;;;;;;;;;;;;;;;;;;;;;;;;;;;;;;;;;;;;;;;;;;;;
"c1300631";;;"Windows 7";"Rachel's Experiment (DP)";"1.0";"3";"1";"1";"3";"1";"1";"2015-02-11 18:02:05.907";"2015-02-11 18:26:10.782";"1";"2";"0";"175";"174";"module.DP_Practice.exec-9616.DP_practice";;;;;;;;;;;;;;;;;;;;;;;;;;;;;;;;;;"3024";"2015-02-11 18:13:08.207";"FINISHED";"1";"LEFT";"success";"353";"2015-02-11 18:13:05.180";"250";"N4";"N3";;;;;;;;;;;;;;;;;;;;;;;;;;;;;;;;;;;;;;;;;;;;;;;;;;;;;;;;;;;;;;;;;;;;;
"c1300631";;;"Windows 7";"Rachel's Experiment (DP)";"1.0";"3";"1";"1";"3";"1";"1";"2015-02-11 18:02:05.907";"2015-02-11 18:26:10.782";"1";"2";"0";"176";"175";"module.DP_Practice.exec-9616.DP_practice";;;;;;;;;;;;;;;;;;;;;;;;;;;;;;;;;;"3024";"2015-02-11 18:13:11.498";"FINISHED";"2";"RIGHT";"success";"366";"2015-02-11 18:13:08.472";"250";"N7";"N8";;;;;;;;;;;;;;;;;;;;;;;;;;;;;;;;;;;;;;;;;;;;;;;;;;;;;;;;;;;;;;;;;;;;;
"c1300631";;;"Windows 7";"Rachel's Experiment (DP)";"1.0";"3";"1";"1";"3";"1";"1";"2015-02-11 18:02:05.907";"2015-02-11 18:26:10.782";"1";"2";"0";"177";"176";"module.DP_Practice.exec-9616.DP_practice";;;;;;;;;;;;;;;;;;;;;;;;;;;;;;;;;;"3024";"2015-02-11 18:13:14.805";"FINISHED";"1";"LEFT";"success";"331";"2015-02-11 18:13:11.779";"250";"N2";"N1";;;;;;;;;;;;;;;;;;;;;;;;;;;;;;;;;;;;;;;;;;;;;;;;;;;;;;;;;;;;;;;;;;;;;
"c1300631";;;"Windows 7";"Rachel's Experiment (DP)";"1.0";"3";"1";"1";"3";"1";"1";"2015-02-11 18:02:05.907";"2015-02-11 18:26:10.782";"1";"2";"0";"178";"177";"module.DP_Practice.exec-9616.DP_practice";;;;;;;;;;;;;;;;;;;;;;;;;;;;;;;;;;"3024";"2015-02-11 18:13:18.097";"FINISHED";"1";"LEFT";"success";"383";"2015-02-11 18:13:15.071";"250";"N6";"N5";;;;;;;;;;;;;;;;;;;;;;;;;;;;;;;;;;;;;;;;;;;;;;;;;;;;;;;;;;;;;;;;;;;;;
"c1300631";;;"Windows 7";"Rachel's Experiment (DP)";"1.0";"3";"1";"1";"3";"1";"1";"2015-02-11 18:02:05.907";"2015-02-11 18:26:10.782";"1";"2";"0";"179";"178";"module.DP_Practice.exec-9616.DP_practice";;;;;;;;;;;;;;;;;;;;;;;;;;;;;;;;;;"3024";"2015-02-11 18:13:21.389";"FINISHED";"2";"RIGHT";"success";"339";"2015-02-11 18:13:18.362";"250";"N1";"N2";;;;;;;;;;;;;;;;;;;;;;;;;;;;;;;;;;;;;;;;;;;;;;;;;;;;;;;;;;;;;;;;;;;;;
"c1300631";;;"Windows 7";"Rachel's Experiment (DP)";"1.0";"3";"1";"1";"3";"1";"1";"2015-02-11 18:02:05.907";"2015-02-11 18:26:10.782";"1";"2";"0";"180";"179";"module.DP_Block1.exec-5822.DP_block1";"2010";"2015-02-11 18:13:45.210";"FINISHED";"2";"RIGHT";"success";"383";"2015-02-11 18:13:43.197";"100";"F12";"NF12";;;;;;;;;;;;;;;;;;;;;;;;;;;;;;;;;;;;;;;;;;;;;;;;;;;;;;;;;;;;;;;;;;;;;;;;;;;;;;;;;;;;;;;;;;;;;;;;;;;;;;
"c1300631";;;"Windows 7";"Rachel's Experiment (DP)";"1.0";"3";"1";"1";"3";"1";"1";"2015-02-11 18:02:05.907";"2015-02-11 18:26:10.782";"1";"2";"0";"181";"180";"module.DP_Block1.exec-5822.DP_block1";"2010";"2015-02-11 18:13:48.361";"FINISHED";"1";"LEFT";"success";"432";"2015-02-11 18:13:46.349";"100";"NF17";"F17";;;;;;;;;;;;;;;;;;;;;;;;;;;;;;;;;;;;;;;;;;;;;;;;;;;;;;;;;;;;;;;;;;;;;;;;;;;;;;;;;;;;;;;;;;;;;;;;;;;;;;
"c1300631";;;"Windows 7";"Rachel's Experiment (DP)";"1.0";"3";"1";"1";"3";"1";"1";"2015-02-11 18:02:05.907";"2015-02-11 18:26:10.782";"1";"2";"0";"182";"181";"module.DP_Block1.exec-5822.DP_block1";"2010";"2015-02-11 18:13:51.497";"FINISHED";"2";"RIGHT";"success";"377";"2015-02-11 18:13:49.484";"100";"NF2";"F2";;;;;;;;;;;;;;;;;;;;;;;;;;;;;;;;;;;;;;;;;;;;;;;;;;;;;;;;;;;;;;;;;;;;;;;;;;;;;;;;;;;;;;;;;;;;;;;;;;;;;;
"c1300631";;;"Windows 7";"Rachel's Experiment (DP)";"1.0";"3";"1";"1";"3";"1";"1";"2015-02-11 18:02:05.907";"2015-02-11 18:26:10.782";"1";"2";"0";"183";"182";"module.DP_Block1.exec-5822.DP_block1";"2010";"2015-02-11 18:13:54.632";"FINISHED";"1";"LEFT";"success";"401";"2015-02-11 18:13:52.620";"100";"F7";"NF7";;;;;;;;;;;;;;;;;;;;;;;;;;;;;;;;;;;;;;;;;;;;;;;;;;;;;;;;;;;;;;;;;;;;;;;;;;;;;;;;;;;;;;;;;;;;;;;;;;;;;;
"c1300631";;;"Windows 7";"Rachel's Experiment (DP)";"1.0";"3";"1";"1";"3";"1";"1";"2015-02-11 18:02:05.907";"2015-02-11 18:26:10.782";"1";"2";"0";"184";"183";"module.DP_Block1.exec-5822.DP_block1";"2010";"2015-02-11 18:13:57.768";"FINISHED";"2";"RIGHT";"success";"474";"2015-02-11 18:13:55.755";"100";"F3";"NF3";;;;;;;;;;;;;;;;;;;;;;;;;;;;;;;;;;;;;;;;;;;;;;;;;;;;;;;;;;;;;;;;;;;;;;;;;;;;;;;;;;;;;;;;;;;;;;;;;;;;;;
"c1300631";;;"Windows 7";"Rachel's Experiment (DP)";"1.0";"3";"1";"1";"3";"1";"1";"2015-02-11 18:02:05.907";"2015-02-11 18:26:10.782";"1";"2";"0";"185";"184";"module.DP_Block1.exec-5822.DP_block1";"2010";"2015-02-11 18:14:00.903";"FINISHED";"2";"RIGHT";"success";"474";"2015-02-11 18:13:58.891";"100";"NF15";"F15";;;;;;;;;;;;;;;;;;;;;;;;;;;;;;;;;;;;;;;;;;;;;;;;;;;;;;;;;;;;;;;;;;;;;;;;;;;;;;;;;;;;;;;;;;;;;;;;;;;;;;
"c1300631";;;"Windows 7";"Rachel's Experiment (DP)";"1.0";"3";"1";"1";"3";"1";"1";"2015-02-11 18:02:05.907";"2015-02-11 18:26:10.782";"1";"2";"0";"186";"185";"module.DP_Block1.exec-5822.DP_block1";"2010";"2015-02-11 18:14:04.039";"FINISHED";"2";"RIGHT";"success";"474";"2015-02-11 18:14:02.027";"100";"F0";"NF0";;;;;;;;;;;;;;;;;;;;;;;;;;;;;;;;;;;;;;;;;;;;;;;;;;;;;;;;;;;;;;;;;;;;;;;;;;;;;;;;;;;;;;;;;;;;;;;;;;;;;;
"c1300631";;;"Windows 7";"Rachel's Experiment (DP)";"1.0";"3";"1";"1";"3";"1";"1";"2015-02-11 18:02:05.907";"2015-02-11 18:26:10.782";"1";"2";"0";"187";"186";"module.DP_Block1.exec-5822.DP_block1";"2010";"2015-02-11 18:14:07.175";"FINISHED";"1";"LEFT";"success";"491";"2015-02-11 18:14:05.162";"100";"F6";"NF6";;;;;;;;;;;;;;;;;;;;;;;;;;;;;;;;;;;;;;;;;;;;;;;;;;;;;;;;;;;;;;;;;;;;;;;;;;;;;;;;;;;;;;;;;;;;;;;;;;;;;;
"c1300631";;;"Windows 7";"Rachel's Experiment (DP)";"1.0";"3";"1";"1";"3";"1";"1";"2015-02-11 18:02:05.907";"2015-02-11 18:26:10.782";"1";"2";"0";"188";"187";"module.DP_Block1.exec-5822.DP_block1";"2010";"2015-02-11 18:14:10.310";"FINISHED";"1";"LEFT";"success";"499";"2015-02-11 18:14:08.298";"100";"NF11";"F11";;;;;;;;;;;;;;;;;;;;;;;;;;;;;;;;;;;;;;;;;;;;;;;;;;;;;;;;;;;;;;;;;;;;;;;;;;;;;;;;;;;;;;;;;;;;;;;;;;;;;;
"c1300631";;;"Windows 7";"Rachel's Experiment (DP)";"1.0";"3";"1";"1";"3";"1";"1";"2015-02-11 18:02:05.907";"2015-02-11 18:26:10.782";"1";"2";"0";"189";"188";"module.DP_Block1.exec-5822.DP_block1";"2010";"2015-02-11 18:14:13.446";"FINISHED";"1";"LEFT";"success";"388";"2015-02-11 18:14:11.434";"100";"NF0";"F0";;;;;;;;;;;;;;;;;;;;;;;;;;;;;;;;;;;;;;;;;;;;;;;;;;;;;;;;;;;;;;;;;;;;;;;;;;;;;;;;;;;;;;;;;;;;;;;;;;;;;;
"c1300631";;;"Windows 7";"Rachel's Experiment (DP)";"1.0";"3";"1";"1";"3";"1";"1";"2015-02-11 18:02:05.907";"2015-02-11 18:26:10.782";"1";"2";"0";"190";"189";"module.DP_Block1.exec-5822.DP_block1";"2010";"2015-02-11 18:14:16.582";"FINISHED";"2";"RIGHT";"success";"420";"2015-02-11 18:14:14.569";"100";"NF0";"F0";;;;;;;;;;;;;;;;;;;;;;;;;;;;;;;;;;;;;;;;;;;;;;;;;;;;;;;;;;;;;;;;;;;;;;;;;;;;;;;;;;;;;;;;;;;;;;;;;;;;;;
"c1300631";;;"Windows 7";"Rachel's Experiment (DP)";"1.0";"3";"1";"1";"3";"1";"1";"2015-02-11 18:02:05.907";"2015-02-11 18:26:10.782";"1";"2";"0";"191";"190";"module.DP_Block1.exec-5822.DP_block1";"2010";"2015-02-11 18:14:19.717";"FINISHED";"2";"RIGHT";"success";"476";"2015-02-11 18:14:17.705";"100";"F14";"NF14";;;;;;;;;;;;;;;;;;;;;;;;;;;;;;;;;;;;;;;;;;;;;;;;;;;;;;;;;;;;;;;;;;;;;;;;;;;;;;;;;;;;;;;;;;;;;;;;;;;;;;
"c1300631";;;"Windows 7";"Rachel's Experiment (DP)";"1.0";"3";"1";"1";"3";"1";"1";"2015-02-11 18:02:05.907";"2015-02-11 18:26:10.782";"1";"2";"0";"192";"191";"module.DP_Block1.exec-5822.DP_block1";"2010";"2015-02-11 18:14:22.868";"FINISHED";"2";"RIGHT";"success";"437";"2015-02-11 18:14:20.856";"100";"NF6";"F6";;;;;;;;;;;;;;;;;;;;;;;;;;;;;;;;;;;;;;;;;;;;;;;;;;;;;;;;;;;;;;;;;;;;;;;;;;;;;;;;;;;;;;;;;;;;;;;;;;;;;;
"c1300631";;;"Windows 7";"Rachel's Experiment (DP)";"1.0";"3";"1";"1";"3";"1";"1";"2015-02-11 18:02:05.907";"2015-02-11 18:26:10.782";"1";"2";"0";"193";"192";"module.DP_Block1.exec-5822.DP_block1";"2010";"2015-02-11 18:14:26.004";"FINISHED";"1";"LEFT";"success";"381";"2015-02-11 18:14:23.992";"100";"F14";"NF14";;;;;;;;;;;;;;;;;;;;;;;;;;;;;;;;;;;;;;;;;;;;;;;;;;;;;;;;;;;;;;;;;;;;;;;;;;;;;;;;;;;;;;;;;;;;;;;;;;;;;;
"c1300631";;;"Windows 7";"Rachel's Experiment (DP)";"1.0";"3";"1";"1";"3";"1";"1";"2015-02-11 18:02:05.907";"2015-02-11 18:26:10.782";"1";"2";"0";"194";"193";"module.DP_Block1.exec-5822.DP_block1";"2010";"2015-02-11 18:14:29.155";"FINISHED";"1";"LEFT";"success";"382";"2015-02-11 18:14:27.143";"100";"NF3";"F3";;;;;;;;;;;;;;;;;;;;;;;;;;;;;;;;;;;;;;;;;;;;;;;;;;;;;;;;;;;;;;;;;;;;;;;;;;;;;;;;;;;;;;;;;;;;;;;;;;;;;;
"c1300631";;;"Windows 7";"Rachel's Experiment (DP)";"1.0";"3";"1";"1";"3";"1";"1";"2015-02-11 18:02:05.907";"2015-02-11 18:26:10.782";"1";"2";"0";"195";"194";"module.DP_Block1.exec-5822.DP_block1";"2010";"2015-02-11 18:14:32.291";"FINISHED";"2";"RIGHT";"success";"447";"2015-02-11 18:14:30.278";"100";"F6";"NF6";;;;;;;;;;;;;;;;;;;;;;;;;;;;;;;;;;;;;;;;;;;;;;;;;;;;;;;;;;;;;;;;;;;;;;;;;;;;;;;;;;;;;;;;;;;;;;;;;;;;;;
"c1300631";;;"Windows 7";"Rachel's Experiment (DP)";"1.0";"3";"1";"1";"3";"1";"1";"2015-02-11 18:02:05.907";"2015-02-11 18:26:10.782";"1";"2";"0";"196";"195";"module.DP_Block1.exec-5822.DP_block1";"2010";"2015-02-11 18:14:35.426";"FINISHED";"1";"LEFT";"success";"415";"2015-02-11 18:14:33.414";"100";"NF9";"F9";;;;;;;;;;;;;;;;;;;;;;;;;;;;;;;;;;;;;;;;;;;;;;;;;;;;;;;;;;;;;;;;;;;;;;;;;;;;;;;;;;;;;;;;;;;;;;;;;;;;;;
"c1300631";;;"Windows 7";"Rachel's Experiment (DP)";"1.0";"3";"1";"1";"3";"1";"1";"2015-02-11 18:02:05.907";"2015-02-11 18:26:10.782";"1";"2";"0";"197";"196";"module.DP_Block1.exec-5822.DP_block1";"2010";"2015-02-11 18:14:38.562";"FINISHED";"2";"RIGHT";"success";"351";"2015-02-11 18:14:36.550";"100";"F7";"NF7";;;;;;;;;;;;;;;;;;;;;;;;;;;;;;;;;;;;;;;;;;;;;;;;;;;;;;;;;;;;;;;;;;;;;;;;;;;;;;;;;;;;;;;;;;;;;;;;;;;;;;
"c1300631";;;"Windows 7";"Rachel's Experiment (DP)";"1.0";"3";"1";"1";"3";"1";"1";"2015-02-11 18:02:05.907";"2015-02-11 18:26:10.782";"1";"2";"0";"198";"197";"module.DP_Block1.exec-5822.DP_block1";"2010";"2015-02-11 18:14:41.698";"FINISHED";"1";"LEFT";"success";"384";"2015-02-11 18:14:39.685";"100";"F10";"NF10";;;;;;;;;;;;;;;;;;;;;;;;;;;;;;;;;;;;;;;;;;;;;;;;;;;;;;;;;;;;;;;;;;;;;;;;;;;;;;;;;;;;;;;;;;;;;;;;;;;;;;
"c1300631";;;"Windows 7";"Rachel's Experiment (DP)";"1.0";"3";"1";"1";"3";"1";"1";"2015-02-11 18:02:05.907";"2015-02-11 18:26:10.782";"1";"2";"0";"199";"198";"module.DP_Block1.exec-5822.DP_block1";"2010";"2015-02-11 18:14:44.833";"FINISHED";"2";"RIGHT";"success";"392";"2015-02-11 18:14:42.821";"100";"F17";"NF17";;;;;;;;;;;;;;;;;;;;;;;;;;;;;;;;;;;;;;;;;;;;;;;;;;;;;;;;;;;;;;;;;;;;;;;;;;;;;;;;;;;;;;;;;;;;;;;;;;;;;;
"c1300631";;;"Windows 7";"Rachel's Experiment (DP)";"1.0";"3";"1";"1";"3";"1";"1";"2015-02-11 18:02:05.907";"2015-02-11 18:26:10.782";"1";"2";"0";"200";"199";"module.DP_Block1.exec-5822.DP_block1";"2010";"2015-02-11 18:14:47.969";"FINISHED";"1";"LEFT";"success";"344";"2015-02-11 18:14:45.956";"100";"NF5";"F5";;;;;;;;;;;;;;;;;;;;;;;;;;;;;;;;;;;;;;;;;;;;;;;;;;;;;;;;;;;;;;;;;;;;;;;;;;;;;;;;;;;;;;;;;;;;;;;;;;;;;;
"c1300631";;;"Windows 7";"Rachel's Experiment (DP)";"1.0";"3";"1";"1";"3";"1";"1";"2015-02-11 18:02:05.907";"2015-02-11 18:26:10.782";"1";"2";"0";"201";"200";"module.DP_Block1.exec-5822.DP_block1";"2010";"2015-02-11 18:14:51.104";"FINISHED";"1";"LEFT";"success";"409";"2015-02-11 18:14:49.092";"100";"F0";"NF0";;;;;;;;;;;;;;;;;;;;;;;;;;;;;;;;;;;;;;;;;;;;;;;;;;;;;;;;;;;;;;;;;;;;;;;;;;;;;;;;;;;;;;;;;;;;;;;;;;;;;;
"c1300631";;;"Windows 7";"Rachel's Experiment (DP)";"1.0";"3";"1";"1";"3";"1";"1";"2015-02-11 18:02:05.907";"2015-02-11 18:26:10.782";"1";"2";"0";"202";"201";"module.DP_Block1.exec-5822.DP_block1";"2010";"2015-02-11 18:14:54.240";"FINISHED";"2";"RIGHT";"success";"377";"2015-02-11 18:14:52.228";"100";"F13";"NF13";;;;;;;;;;;;;;;;;;;;;;;;;;;;;;;;;;;;;;;;;;;;;;;;;;;;;;;;;;;;;;;;;;;;;;;;;;;;;;;;;;;;;;;;;;;;;;;;;;;;;;
"c1300631";;;"Windows 7";"Rachel's Experiment (DP)";"1.0";"3";"1";"1";"3";"1";"1";"2015-02-11 18:02:05.907";"2015-02-11 18:26:10.782";"1";"2";"0";"203";"202";"module.DP_Block1.exec-5822.DP_block1";"2010";"2015-02-11 18:14:57.391";"FINISHED";"2";"RIGHT";"success";"458";"2015-02-11 18:14:55.379";"100";"F5";"NF5";;;;;;;;;;;;;;;;;;;;;;;;;;;;;;;;;;;;;;;;;;;;;;;;;;;;;;;;;;;;;;;;;;;;;;;;;;;;;;;;;;;;;;;;;;;;;;;;;;;;;;
"c1300631";;;"Windows 7";"Rachel's Experiment (DP)";"1.0";"3";"1";"1";"3";"1";"1";"2015-02-11 18:02:05.907";"2015-02-11 18:26:10.782";"1";"2";"0";"204";"203";"module.DP_Block1.exec-5822.DP_block1";"2010";"2015-02-11 18:15:00.527";"FINISHED";"1";"LEFT";"success";"410";"2015-02-11 18:14:58.514";"100";"NF7";"F7";;;;;;;;;;;;;;;;;;;;;;;;;;;;;;;;;;;;;;;;;;;;;;;;;;;;;;;;;;;;;;;;;;;;;;;;;;;;;;;;;;;;;;;;;;;;;;;;;;;;;;
"c1300631";;;"Windows 7";"Rachel's Experiment (DP)";"1.0";"3";"1";"1";"3";"1";"1";"2015-02-11 18:02:05.907";"2015-02-11 18:26:10.782";"1";"2";"0";"205";"204";"module.DP_Block1.exec-5822.DP_block1";"2010";"2015-02-11 18:15:03.662";"FINISHED";"1";"LEFT";"success";"403";"2015-02-11 18:15:01.650";"100";"NF10";"F10";;;;;;;;;;;;;;;;;;;;;;;;;;;;;;;;;;;;;;;;;;;;;;;;;;;;;;;;;;;;;;;;;;;;;;;;;;;;;;;;;;;;;;;;;;;;;;;;;;;;;;
"c1300631";;;"Windows 7";"Rachel's Experiment (DP)";"1.0";"3";"1";"1";"3";"1";"1";"2015-02-11 18:02:05.907";"2015-02-11 18:26:10.782";"1";"2";"0";"206";"205";"module.DP_Block1.exec-5822.DP_block1";"2010";"2015-02-11 18:15:06.798";"FINISHED";"2";"RIGHT";"success";"347";"2015-02-11 18:15:04.786";"100";"NF1";"F1";;;;;;;;;;;;;;;;;;;;;;;;;;;;;;;;;;;;;;;;;;;;;;;;;;;;;;;;;;;;;;;;;;;;;;;;;;;;;;;;;;;;;;;;;;;;;;;;;;;;;;
"c1300631";;;"Windows 7";"Rachel's Experiment (DP)";"1.0";"3";"1";"1";"3";"1";"1";"2015-02-11 18:02:05.907";"2015-02-11 18:26:10.782";"1";"2";"0";"207";"206";"module.DP_Block1.exec-5822.DP_block1";"2010";"2015-02-11 18:15:09.934";"FINISHED";"2";"RIGHT";"success";"379";"2015-02-11 18:15:07.921";"100";"NF9";"F9";;;;;;;;;;;;;;;;;;;;;;;;;;;;;;;;;;;;;;;;;;;;;;;;;;;;;;;;;;;;;;;;;;;;;;;;;;;;;;;;;;;;;;;;;;;;;;;;;;;;;;
"c1300631";;;"Windows 7";"Rachel's Experiment (DP)";"1.0";"3";"1";"1";"3";"1";"1";"2015-02-11 18:02:05.907";"2015-02-11 18:26:10.782";"1";"2";"0";"208";"207";"module.DP_Block1.exec-5822.DP_block1";"2010";"2015-02-11 18:15:13.069";"FINISHED";"2";"RIGHT";"success";"356";"2015-02-11 18:15:11.057";"100";"F8";"NF8";;;;;;;;;;;;;;;;;;;;;;;;;;;;;;;;;;;;;;;;;;;;;;;;;;;;;;;;;;;;;;;;;;;;;;;;;;;;;;;;;;;;;;;;;;;;;;;;;;;;;;
"c1300631";;;"Windows 7";"Rachel's Experiment (DP)";"1.0";"3";"1";"1";"3";"1";"1";"2015-02-11 18:02:05.907";"2015-02-11 18:26:10.782";"1";"2";"0";"209";"208";"module.DP_Block1.exec-5822.DP_block1";"2010";"2015-02-11 18:15:16.205";"FINISHED";"2";"RIGHT";"success";"364";"2015-02-11 18:15:14.192";"100";"F16";"NF16";;;;;;;;;;;;;;;;;;;;;;;;;;;;;;;;;;;;;;;;;;;;;;;;;;;;;;;;;;;;;;;;;;;;;;;;;;;;;;;;;;;;;;;;;;;;;;;;;;;;;;
"c1300631";;;"Windows 7";"Rachel's Experiment (DP)";"1.0";"3";"1";"1";"3";"1";"1";"2015-02-11 18:02:05.907";"2015-02-11 18:26:10.782";"1";"2";"0";"210";"209";"module.DP_Block1.exec-5822.DP_block1";"2010";"2015-02-11 18:15:19.356";"FINISHED";"2";"RIGHT";"success";"373";"2015-02-11 18:15:17.344";"100";"NF12";"F12";;;;;;;;;;;;;;;;;;;;;;;;;;;;;;;;;;;;;;;;;;;;;;;;;;;;;;;;;;;;;;;;;;;;;;;;;;;;;;;;;;;;;;;;;;;;;;;;;;;;;;
"c1300631";;;"Windows 7";"Rachel's Experiment (DP)";"1.0";"3";"1";"1";"3";"1";"1";"2015-02-11 18:02:05.907";"2015-02-11 18:26:10.782";"1";"2";"0";"211";"210";"module.DP_Block1.exec-5822.DP_block1";"2010";"2015-02-11 18:15:22.492";"FINISHED";"1";"LEFT";"success";"477";"2015-02-11 18:15:20.479";"100";"NF16";"F16";;;;;;;;;;;;;;;;;;;;;;;;;;;;;;;;;;;;;;;;;;;;;;;;;;;;;;;;;;;;;;;;;;;;;;;;;;;;;;;;;;;;;;;;;;;;;;;;;;;;;;
"c1300631";;;"Windows 7";"Rachel's Experiment (DP)";"1.0";"3";"1";"1";"3";"1";"1";"2015-02-11 18:02:05.907";"2015-02-11 18:26:10.782";"1";"2";"0";"212";"211";"module.DP_Block1.exec-5822.DP_block1";"2010";"2015-02-11 18:15:25.627";"FINISHED";"1";"LEFT";"success";"382";"2015-02-11 18:15:23.615";"100";"NF13";"F13";;;;;;;;;;;;;;;;;;;;;;;;;;;;;;;;;;;;;;;;;;;;;;;;;;;;;;;;;;;;;;;;;;;;;;;;;;;;;;;;;;;;;;;;;;;;;;;;;;;;;;
"c1300631";;;"Windows 7";"Rachel's Experiment (DP)";"1.0";"3";"1";"1";"3";"1";"1";"2015-02-11 18:02:05.907";"2015-02-11 18:26:10.782";"1";"2";"0";"213";"212";"module.DP_Block1.exec-5822.DP_block1";"2010";"2015-02-11 18:15:28.763";"FINISHED";"1";"LEFT";"success";"374";"2015-02-11 18:15:26.750";"100";"NF6";"F6";;;;;;;;;;;;;;;;;;;;;;;;;;;;;;;;;;;;;;;;;;;;;;;;;;;;;;;;;;;;;;;;;;;;;;;;;;;;;;;;;;;;;;;;;;;;;;;;;;;;;;
"c1300631";;;"Windows 7";"Rachel's Experiment (DP)";"1.0";"3";"1";"1";"3";"1";"1";"2015-02-11 18:02:05.907";"2015-02-11 18:26:10.782";"1";"2";"0";"214";"213";"module.DP_Block1.exec-5822.DP_block1";"2010";"2015-02-11 18:15:31.898";"FINISHED";"1";"LEFT";"success";"374";"2015-02-11 18:15:29.886";"100";"F4";"NF4";;;;;;;;;;;;;;;;;;;;;;;;;;;;;;;;;;;;;;;;;;;;;;;;;;;;;;;;;;;;;;;;;;;;;;;;;;;;;;;;;;;;;;;;;;;;;;;;;;;;;;
"c1300631";;;"Windows 7";"Rachel's Experiment (DP)";"1.0";"3";"1";"1";"3";"1";"1";"2015-02-11 18:02:05.907";"2015-02-11 18:26:10.782";"1";"2";"0";"215";"214";"module.DP_Block1.exec-5822.DP_block1";"2010";"2015-02-11 18:15:35.034";"FINISHED";"1";"LEFT";"success";"367";"2015-02-11 18:15:33.022";"100";"F3";"NF3";;;;;;;;;;;;;;;;;;;;;;;;;;;;;;;;;;;;;;;;;;;;;;;;;;;;;;;;;;;;;;;;;;;;;;;;;;;;;;;;;;;;;;;;;;;;;;;;;;;;;;
"c1300631";;;"Windows 7";"Rachel's Experiment (DP)";"1.0";"3";"1";"1";"3";"1";"1";"2015-02-11 18:02:05.907";"2015-02-11 18:26:10.782";"1";"2";"0";"216";"215";"module.DP_Block1.exec-5822.DP_block1";"2010";"2015-02-11 18:15:38.170";"FINISHED";"2";"RIGHT";"success";"439";"2015-02-11 18:15:36.157";"100";"NF10";"F10";;;;;;;;;;;;;;;;;;;;;;;;;;;;;;;;;;;;;;;;;;;;;;;;;;;;;;;;;;;;;;;;;;;;;;;;;;;;;;;;;;;;;;;;;;;;;;;;;;;;;;
"c1300631";;;"Windows 7";"Rachel's Experiment (DP)";"1.0";"3";"1";"1";"3";"1";"1";"2015-02-11 18:02:05.907";"2015-02-11 18:26:10.782";"1";"2";"0";"217";"216";"module.DP_Block1.exec-5822.DP_block1";"2010";"2015-02-11 18:15:41.321";"FINISHED";"1";"LEFT";"success";"360";"2015-02-11 18:15:39.308";"100";"F11";"NF11";;;;;;;;;;;;;;;;;;;;;;;;;;;;;;;;;;;;;;;;;;;;;;;;;;;;;;;;;;;;;;;;;;;;;;;;;;;;;;;;;;;;;;;;;;;;;;;;;;;;;;
"c1300631";;;"Windows 7";"Rachel's Experiment (DP)";"1.0";"3";"1";"1";"3";"1";"1";"2015-02-11 18:02:05.907";"2015-02-11 18:26:10.782";"1";"2";"0";"218";"217";"module.DP_Block1.exec-5822.DP_block1";"2010";"2015-02-11 18:15:44.456";"FINISHED";"1";"LEFT";"success";"496";"2015-02-11 18:15:42.444";"100";"F17";"NF17";;;;;;;;;;;;;;;;;;;;;;;;;;;;;;;;;;;;;;;;;;;;;;;;;;;;;;;;;;;;;;;;;;;;;;;;;;;;;;;;;;;;;;;;;;;;;;;;;;;;;;
"c1300631";;;"Windows 7";"Rachel's Experiment (DP)";"1.0";"3";"1";"1";"3";"1";"1";"2015-02-11 18:02:05.907";"2015-02-11 18:26:10.782";"1";"2";"0";"219";"218";"module.DP_Block1.exec-5822.DP_block1";"2010";"2015-02-11 18:15:47.592";"FINISHED";"2";"RIGHT";"success";"457";"2015-02-11 18:15:45.580";"100";"NF17";"F17";;;;;;;;;;;;;;;;;;;;;;;;;;;;;;;;;;;;;;;;;;;;;;;;;;;;;;;;;;;;;;;;;;;;;;;;;;;;;;;;;;;;;;;;;;;;;;;;;;;;;;
"c1300631";;;"Windows 7";"Rachel's Experiment (DP)";"1.0";"3";"1";"1";"3";"1";"1";"2015-02-11 18:02:05.907";"2015-02-11 18:26:10.782";"1";"2";"0";"220";"219";"module.DP_Block1.exec-5822.DP_block1";"2010";"2015-02-11 18:15:50.728";"FINISHED";"2";"RIGHT";"success";"441";"2015-02-11 18:15:48.715";"100";"F15";"NF15";;;;;;;;;;;;;;;;;;;;;;;;;;;;;;;;;;;;;;;;;;;;;;;;;;;;;;;;;;;;;;;;;;;;;;;;;;;;;;;;;;;;;;;;;;;;;;;;;;;;;;
"c1300631";;;"Windows 7";"Rachel's Experiment (DP)";"1.0";"3";"1";"1";"3";"1";"1";"2015-02-11 18:02:05.907";"2015-02-11 18:26:10.782";"1";"2";"0";"221";"220";"module.DP_Block1.exec-5822.DP_block1";"2010";"2015-02-11 18:15:53.863";"FINISHED";"2";"RIGHT";"success";"489";"2015-02-11 18:15:51.851";"100";"NF4";"F4";;;;;;;;;;;;;;;;;;;;;;;;;;;;;;;;;;;;;;;;;;;;;;;;;;;;;;;;;;;;;;;;;;;;;;;;;;;;;;;;;;;;;;;;;;;;;;;;;;;;;;
"c1300631";;;"Windows 7";"Rachel's Experiment (DP)";"1.0";"3";"1";"1";"3";"1";"1";"2015-02-11 18:02:05.907";"2015-02-11 18:26:10.782";"1";"2";"0";"222";"221";"module.DP_Block1.exec-5822.DP_block1";"2010";"2015-02-11 18:15:56.999";"FINISHED";"1";"LEFT";"success";"346";"2015-02-11 18:15:54.986";"100";"NF2";"F2";;;;;;;;;;;;;;;;;;;;;;;;;;;;;;;;;;;;;;;;;;;;;;;;;;;;;;;;;;;;;;;;;;;;;;;;;;;;;;;;;;;;;;;;;;;;;;;;;;;;;;
"c1300631";;;"Windows 7";"Rachel's Experiment (DP)";"1.0";"3";"1";"1";"3";"1";"1";"2015-02-11 18:02:05.907";"2015-02-11 18:26:10.782";"1";"2";"0";"223";"222";"module.DP_Block1.exec-5822.DP_block1";"2010";"2015-02-11 18:16:00.135";"FINISHED";"1";"LEFT";"success";"378";"2015-02-11 18:15:58.122";"100";"F15";"NF15";;;;;;;;;;;;;;;;;;;;;;;;;;;;;;;;;;;;;;;;;;;;;;;;;;;;;;;;;;;;;;;;;;;;;;;;;;;;;;;;;;;;;;;;;;;;;;;;;;;;;;
"c1300631";;;"Windows 7";"Rachel's Experiment (DP)";"1.0";"3";"1";"1";"3";"1";"1";"2015-02-11 18:02:05.907";"2015-02-11 18:26:10.782";"1";"2";"0";"224";"223";"module.DP_Block1.exec-5822.DP_block1";"2010";"2015-02-11 18:16:03.286";"FINISHED";"1";"LEFT";"success";"387";"2015-02-11 18:16:01.273";"100";"NF1";"F1";;;;;;;;;;;;;;;;;;;;;;;;;;;;;;;;;;;;;;;;;;;;;;;;;;;;;;;;;;;;;;;;;;;;;;;;;;;;;;;;;;;;;;;;;;;;;;;;;;;;;;
"c1300631";;;"Windows 7";"Rachel's Experiment (DP)";"1.0";"3";"1";"1";"3";"1";"1";"2015-02-11 18:02:05.907";"2015-02-11 18:26:10.782";"1";"2";"0";"225";"224";"module.DP_Block1.exec-5822.DP_block1";"2010";"2015-02-11 18:16:06.421";"FINISHED";"2";"RIGHT";"success";"371";"2015-02-11 18:16:04.409";"100";"F9";"NF9";;;;;;;;;;;;;;;;;;;;;;;;;;;;;;;;;;;;;;;;;;;;;;;;;;;;;;;;;;;;;;;;;;;;;;;;;;;;;;;;;;;;;;;;;;;;;;;;;;;;;;
"c1300631";;;"Windows 7";"Rachel's Experiment (DP)";"1.0";"3";"1";"1";"3";"1";"1";"2015-02-11 18:02:05.907";"2015-02-11 18:26:10.782";"1";"2";"0";"226";"225";"module.DP_Block1.exec-5822.DP_block1";"2010";"2015-02-11 18:16:09.557";"FINISHED";"1";"LEFT";"success";"388";"2015-02-11 18:16:07.545";"100";"F12";"NF12";;;;;;;;;;;;;;;;;;;;;;;;;;;;;;;;;;;;;;;;;;;;;;;;;;;;;;;;;;;;;;;;;;;;;;;;;;;;;;;;;;;;;;;;;;;;;;;;;;;;;;
"c1300631";;;"Windows 7";"Rachel's Experiment (DP)";"1.0";"3";"1";"1";"3";"1";"1";"2015-02-11 18:02:05.907";"2015-02-11 18:26:10.782";"1";"2";"0";"227";"226";"module.DP_Block1.exec-5822.DP_block1";"2010";"2015-02-11 18:16:12.693";"FINISHED";"1";"LEFT";"success";"404";"2015-02-11 18:16:10.680";"100";"F8";"NF8";;;;;;;;;;;;;;;;;;;;;;;;;;;;;;;;;;;;;;;;;;;;;;;;;;;;;;;;;;;;;;;;;;;;;;;;;;;;;;;;;;;;;;;;;;;;;;;;;;;;;;
