"user.name";"user.yearOfBirth";"user.sex";"user.osName";"module.name";"module.version";"module.online.subject.code";"module.online.study.id";"module.online.module.nr";"module.online.group.nr";"session.id";"session.index";"session.startTime";"session.endTime";"session.completed";"session.node-3429.DPorder";"session.node-5890.conditionType";"trial.id";"trial.index";"trial.name";"trial.DP_block1.durationTime";"trial.DP_block1.endTime";"trial.DP_block1.outcome";"trial.DP_block1.probeLoc";"trial.DP_block1.response";"trial.DP_block1.result";"trial.DP_block1.RT";"trial.DP_block1.startTime";"trial.DP_block1.stimDuration";"trial.DP_block1.wordLeft";"trial.DP_block1.wordRight";"trial.DP_practice.durationTime";"trial.DP_practice.endTime";"trial.DP_practice.outcome";"trial.DP_practice.probeLoc";"trial.DP_practice.response";"trial.DP_practice.result";"trial.DP_practice.RT";"trial.DP_practice.startTime";"trial.DP_practice.stimDuration";"trial.DP_practice.wordLeft";"trial.DP_practice.wordRight";"trial.GoNoGo1.durationTime";"trial.GoNoGo1.endTime";"trial.GoNoGo1.Error Type";"trial.GoNoGo1.icon";"trial.GoNoGo1.location";"trial.GoNoGo1.outcome";"trial.GoNoGo1.response";"trial.GoNoGo1.result";"trial.GoNoGo1.RT";"trial.GoNoGo1.signal";"trial.GoNoGo1.startTime";"trial.GoNoGo1.stimulus type";"trial.GoNoGo2.durationTime";"trial.GoNoGo2.endTime";"trial.GoNoGo2.Error Type";"trial.GoNoGo2.icon";"trial.GoNoGo2.location";"trial.GoNoGo2.outcome";"trial.GoNoGo2.response";"trial.GoNoGo2.result";"trial.GoNoGo2.RT";"trial.GoNoGo2.signal";"trial.GoNoGo2.startTime";"trial.GoNoGo2.stimulus type";"trial.GoNoGo3.durationTime";"trial.GoNoGo3.endTime";"trial.GoNoGo3.Error Type";"trial.GoNoGo3.icon";"trial.GoNoGo3.location";"trial.GoNoGo3.outcome";"trial.GoNoGo3.response";"trial.GoNoGo3.result";"trial.GoNoGo3.RT";"trial.GoNoGo3.signal";"trial.GoNoGo3.startTime";"trial.GoNoGo3.stimulus type";"trial.GoNoGo4.durationTime";"trial.GoNoGo4.endTime";"trial.GoNoGo4.Error Type";"trial.GoNoGo4.icon";"trial.GoNoGo4.location";"trial.GoNoGo4.outcome";"trial.GoNoGo4.response";"trial.GoNoGo4.result";"trial.GoNoGo4.RT";"trial.GoNoGo4.signal";"trial.GoNoGo4.startTime";"trial.GoNoGo4.stimulus type";"trial.GoNoGo_Practice.durationTime";"trial.GoNoGo_Practice.endTime";"trial.GoNoGo_Practice.icon";"trial.GoNoGo_Practice.location";"trial.GoNoGo_Practice.outcome";"trial.GoNoGo_Practice.response";"trial.GoNoGo_Practice.result";"trial.GoNoGo_Practice.RT";"trial.GoNoGo_Practice.signal";"trial.GoNoGo_Practice.startTime";"trial.GoNoGo_Practice.stimulus type";"trial.GoNoGo_Tutorial.durationTime";"trial.GoNoGo_Tutorial.endTime";"trial.GoNoGo_Tutorial.icon";"trial.GoNoGo_Tutorial.location";"trial.GoNoGo_Tutorial.outcome";"trial.GoNoGo_Tutorial.response";"trial.GoNoGo_Tutorial.result";"trial.GoNoGo_Tutorial.RT";"trial.GoNoGo_Tutorial.signal";"trial.GoNoGo_Tutorial.startTime"
"C1307286";;;"Windows 7";"Rachel's Experiment (DP)";"1.0";"3";"1";"1";"3";"1";"1";"2015-02-12 13:40:29.712";"2015-02-12 13:55:54.824";"1";"1";"1";"1";"0";"module.GoNoGotutorial.exec-9760.GoNoGo_Tutorial";;;;;;;;;;;;;;;;;;;;;;;;;;;;;;;;;;;;;;;;;;;;;;;;;;;;;;;;;;;;;;;;;;;;;;;;;;;;;;;;;;"3996";"2015-02-12 13:41:27.603";"leftResponse";"0";"FINISHED";"LEFT";"success";"3794";"0";"2015-02-12 13:41:23.594"
"C1307286";;;"Windows 7";"Rachel's Experiment (DP)";"1.0";"3";"1";"1";"3";"1";"1";"2015-02-12 13:40:29.712";"2015-02-12 13:55:54.824";"1";"1";"1";"2";"1";"module.GoNoGotutorial.exec-9760.GoNoGo_Tutorial";;;;;;;;;;;;;;;;;;;;;;;;;;;;;;;;;;;;;;;;;;;;;;;;;;;;;;;;;;;;;;;;;;;;;;;;;;;;;;;;;;"4003";"2015-02-12 13:41:32.892";"rightResponse";"1";"FINISHED";"RIGHT";"success";"1154";"0";"2015-02-12 13:41:28.883"
"C1307286";;;"Windows 7";"Rachel's Experiment (DP)";"1.0";"3";"1";"1";"3";"1";"1";"2015-02-12 13:40:29.712";"2015-02-12 13:55:54.824";"1";"1";"1";"3";"2";"module.GoNoGotutorial.exec-9760.GoNoGo_Tutorial";;;;;;;;;;;;;;;;;;;;;;;;;;;;;;;;;;;;;;;;;;;;;;;;;;;;;;;;;;;;;;;;;;;;;;;;;;;;;;;;;;"4003";"2015-02-12 13:41:38.196";"signalResponse";"0";"FINISHED";"NONE";"success";"0";"1";"2015-02-12 13:41:34.187"
"C1307286";;;"Windows 7";"Rachel's Experiment (DP)";"1.0";"3";"1";"1";"3";"1";"1";"2015-02-12 13:40:29.712";"2015-02-12 13:55:54.824";"1";"1";"1";"4";"3";"module.GoNoGopractice.exec-8492.GoNoGo_Practice";;;;;;;;;;;;;;;;;;;;;;;;;;;;;;;;;;;;;;;;;;;;;;;;;;;;;;;;;;;;;;;;;;;;;;;"1959";"2015-02-12 13:41:46.261";"18";"0";"FINISHED";"LEFT";"success";"428";"0";"2015-02-12 13:41:44.295";"3";;;;;;;;;;
"C1307286";;;"Windows 7";"Rachel's Experiment (DP)";"1.0";"3";"1";"1";"3";"1";"1";"2015-02-12 13:40:29.712";"2015-02-12 13:55:54.824";"1";"1";"1";"5";"4";"module.GoNoGopractice.exec-8492.GoNoGo_Practice";;;;;;;;;;;;;;;;;;;;;;;;;;;;;;;;;;;;;;;;;;;;;;;;;;;;;;;;;;;;;;;;;;;;;;;"1958";"2015-02-12 13:41:49.521";"21";"1";"FINISHED";"RIGHT";"success";"447";"0";"2015-02-12 13:41:47.556";"3";;;;;;;;;;
"C1307286";;;"Windows 7";"Rachel's Experiment (DP)";"1.0";"3";"1";"1";"3";"1";"1";"2015-02-12 13:40:29.712";"2015-02-12 13:55:54.824";"1";"1";"1";"6";"5";"module.GoNoGopractice.exec-8492.GoNoGo_Practice";;;;;;;;;;;;;;;;;;;;;;;;;;;;;;;;;;;;;;;;;;;;;;;;;;;;;;;;;;;;;;;;;;;;;;;"1959";"2015-02-12 13:41:52.766";"14";"1";"FINISHED";"NONE";"success";"0";"1";"2015-02-12 13:41:50.801";"2";;;;;;;;;;
"C1307286";;;"Windows 7";"Rachel's Experiment (DP)";"1.0";"3";"1";"1";"3";"1";"1";"2015-02-12 13:40:29.712";"2015-02-12 13:55:54.824";"1";"1";"1";"7";"6";"module.GoNoGopractice.exec-8492.GoNoGo_Practice";;;;;;;;;;;;;;;;;;;;;;;;;;;;;;;;;;;;;;;;;;;;;;;;;;;;;;;;;;;;;;;;;;;;;;;"1959";"2015-02-12 13:41:56.011";"26";"0";"FINISHED";"LEFT";"success";"766";"0";"2015-02-12 13:41:54.045";"3";;;;;;;;;;
"C1307286";;;"Windows 7";"Rachel's Experiment (DP)";"1.0";"3";"1";"1";"3";"1";"1";"2015-02-12 13:40:29.712";"2015-02-12 13:55:54.824";"1";"1";"1";"8";"7";"module.GoNoGopractice.exec-8492.GoNoGo_Practice";;;;;;;;;;;;;;;;;;;;;;;;;;;;;;;;;;;;;;;;;;;;;;;;;;;;;;;;;;;;;;;;;;;;;;;"1965";"2015-02-12 13:41:59.365";"2";"0";"FINISHED";"LEFT";"success";"754";"0";"2015-02-12 13:41:57.399";"1";;;;;;;;;;
"C1307286";;;"Windows 7";"Rachel's Experiment (DP)";"1.0";"3";"1";"1";"3";"1";"1";"2015-02-12 13:40:29.712";"2015-02-12 13:55:54.824";"1";"1";"1";"9";"8";"module.GoNoGopractice.exec-8492.GoNoGo_Practice";;;;;;;;;;;;;;;;;;;;;;;;;;;;;;;;;;;;;;;;;;;;;;;;;;;;;;;;;;;;;;;;;;;;;;;"1959";"2015-02-12 13:42:02.610";"30";"0";"FINISHED";"NONE";"success";"0";"1";"2015-02-12 13:42:00.644";"3";;;;;;;;;;
"C1307286";;;"Windows 7";"Rachel's Experiment (DP)";"1.0";"3";"1";"1";"3";"1";"1";"2015-02-12 13:40:29.712";"2015-02-12 13:55:54.824";"1";"1";"1";"10";"9";"module.GoNoGopractice.exec-8492.GoNoGo_Practice";;;;;;;;;;;;;;;;;;;;;;;;;;;;;;;;;;;;;;;;;;;;;;;;;;;;;;;;;;;;;;;;;;;;;;;"1959";"2015-02-12 13:42:05.855";"6";"1";"FINISHED";"NONE";"success";"0";"1";"2015-02-12 13:42:03.889";"1";;;;;;;;;;
"C1307286";;;"Windows 7";"Rachel's Experiment (DP)";"1.0";"3";"1";"1";"3";"1";"1";"2015-02-12 13:40:29.712";"2015-02-12 13:55:54.824";"1";"1";"1";"11";"10";"module.GoNoGopractice.exec-8492.GoNoGo_Practice";;;;;;;;;;;;;;;;;;;;;;;;;;;;;;;;;;;;;;;;;;;;;;;;;;;;;;;;;;;;;;;;;;;;;;;"1960";"2015-02-12 13:42:09.099";"34";"0";"FINISHED";"LEFT";"success";"927";"0";"2015-02-12 13:42:07.134";"3";;;;;;;;;;
"C1307286";;;"Windows 7";"Rachel's Experiment (DP)";"1.0";"3";"1";"1";"3";"1";"1";"2015-02-12 13:40:29.712";"2015-02-12 13:55:54.824";"1";"1";"1";"12";"11";"module.GoNoGopractice.exec-8492.GoNoGo_Practice";;;;;;;;;;;;;;;;;;;;;;;;;;;;;;;;;;;;;;;;;;;;;;;;;;;;;;;;;;;;;;;;;;;;;;;"1959";"2015-02-12 13:42:12.344";"23";"1";"FINISHED";"RIGHT";"success";"489";"0";"2015-02-12 13:42:10.379";"3";;;;;;;;;;
"C1307286";;;"Windows 7";"Rachel's Experiment (DP)";"1.0";"3";"1";"1";"3";"1";"1";"2015-02-12 13:40:29.712";"2015-02-12 13:55:54.824";"1";"1";"1";"13";"12";"module.GoNoGopractice.exec-8492.GoNoGo_Practice";;;;;;;;;;;;;;;;;;;;;;;;;;;;;;;;;;;;;;;;;;;;;;;;;;;;;;;;;;;;;;;;;;;;;;;"1959";"2015-02-12 13:42:15.589";"13";"0";"FINISHED";"NONE";"success";"0";"1";"2015-02-12 13:42:13.623";"2";;;;;;;;;;
"C1307286";;;"Windows 7";"Rachel's Experiment (DP)";"1.0";"3";"1";"1";"3";"1";"1";"2015-02-12 13:40:29.712";"2015-02-12 13:55:54.824";"1";"1";"1";"14";"13";"module.GoNoGopractice.exec-8492.GoNoGo_Practice";;;;;;;;;;;;;;;;;;;;;;;;;;;;;;;;;;;;;;;;;;;;;;;;;;;;;;;;;;;;;;;;;;;;;;;"1960";"2015-02-12 13:42:18.834";"3";"1";"FINISHED";"RIGHT";"success";"688";"0";"2015-02-12 13:42:16.868";"1";;;;;;;;;;
"C1307286";;;"Windows 7";"Rachel's Experiment (DP)";"1.0";"3";"1";"1";"3";"1";"1";"2015-02-12 13:40:29.712";"2015-02-12 13:55:54.824";"1";"1";"1";"15";"14";"module.GoNoGopractice.exec-8492.GoNoGo_Practice";;;;;;;;;;;;;;;;;;;;;;;;;;;;;;;;;;;;;;;;;;;;;;;;;;;;;;;;;;;;;;;;;;;;;;;"1958";"2015-02-12 13:42:22.079";"27";"1";"FINISHED";"NONE";"success";"0";"1";"2015-02-12 13:42:20.113";"3";;;;;;;;;;
"C1307286";;;"Windows 7";"Rachel's Experiment (DP)";"1.0";"3";"1";"1";"3";"1";"1";"2015-02-12 13:40:29.712";"2015-02-12 13:55:54.824";"1";"1";"1";"16";"15";"module.training_block1.exec-2764.GoNoGo1";;;;;;;;;;;;;;;;;;;;;;;"1261";"2015-02-12 13:42:32.702";"ST_correctStop";"30";"1";"FINISHED";"NONE";"success";"0";"1";"2015-02-12 13:42:31.439";"3";;;;;;;;;;;;;;;;;;;;;;;;;;;;;;;;;;;;;;;;;;;;;;;;;;;;;;;;;
"C1307286";;;"Windows 7";"Rachel's Experiment (DP)";"1.0";"3";"1";"1";"3";"1";"1";"2015-02-12 13:40:29.712";"2015-02-12 13:55:54.824";"1";"1";"1";"17";"16";"module.training_block1.exec-2764.GoNoGo1";;;;;;;;;;;;;;;;;;;;;;;"1257";"2015-02-12 13:42:35.245";"ST_correctStop";"32";"1";"FINISHED";"NONE";"success";"0";"1";"2015-02-12 13:42:33.981";"3";;;;;;;;;;;;;;;;;;;;;;;;;;;;;;;;;;;;;;;;;;;;;;;;;;;;;;;;;
"C1307286";;;"Windows 7";"Rachel's Experiment (DP)";"1.0";"3";"1";"1";"3";"1";"1";"2015-02-12 13:40:29.712";"2015-02-12 13:55:54.824";"1";"1";"1";"18";"17";"module.training_block1.exec-2764.GoNoGo1";;;;;;;;;;;;;;;;;;;;;;;"1258";"2015-02-12 13:42:37.788";"ST_correctStop";"5";"0";"FINISHED";"NONE";"success";"0";"1";"2015-02-12 13:42:36.524";"1";;;;;;;;;;;;;;;;;;;;;;;;;;;;;;;;;;;;;;;;;;;;;;;;;;;;;;;;;
"C1307286";;;"Windows 7";"Rachel's Experiment (DP)";"1.0";"3";"1";"1";"3";"1";"1";"2015-02-12 13:40:29.712";"2015-02-12 13:55:54.824";"1";"1";"1";"19";"18";"module.training_block1.exec-2764.GoNoGo1";;;;;;;;;;;;;;;;;;;;;;;"1261";"2015-02-12 13:42:40.331";"NST_correctLoc";"13";"0";"FINISHED";"LEFT";"success";"652";"0";"2015-02-12 13:42:39.067";"2";;;;;;;;;;;;;;;;;;;;;;;;;;;;;;;;;;;;;;;;;;;;;;;;;;;;;;;;;
"C1307286";;;"Windows 7";"Rachel's Experiment (DP)";"1.0";"3";"1";"1";"3";"1";"1";"2015-02-12 13:40:29.712";"2015-02-12 13:55:54.824";"1";"1";"1";"20";"19";"module.training_block1.exec-2764.GoNoGo1";;;;;;;;;;;;;;;;;;;;;;;"1261";"2015-02-12 13:42:42.873";"ST_correctStop";"34";"0";"FINISHED";"NONE";"success";"0";"1";"2015-02-12 13:42:41.610";"3";;;;;;;;;;;;;;;;;;;;;;;;;;;;;;;;;;;;;;;;;;;;;;;;;;;;;;;;;
"C1307286";;;"Windows 7";"Rachel's Experiment (DP)";"1.0";"3";"1";"1";"3";"1";"1";"2015-02-12 13:40:29.712";"2015-02-12 13:55:54.824";"1";"1";"1";"21";"20";"module.training_block1.exec-2764.GoNoGo1";;;;;;;;;;;;;;;;;;;;;;;"1256";"2015-02-12 13:42:45.416";"NST_correctLoc";"15";"0";"FINISHED";"LEFT";"success";"586";"0";"2015-02-12 13:42:44.153";"2";;;;;;;;;;;;;;;;;;;;;;;;;;;;;;;;;;;;;;;;;;;;;;;;;;;;;;;;;
"C1307286";;;"Windows 7";"Rachel's Experiment (DP)";"1.0";"3";"1";"1";"3";"1";"1";"2015-02-12 13:40:29.712";"2015-02-12 13:55:54.824";"1";"1";"1";"22";"21";"module.training_block1.exec-2764.GoNoGo1";;;;;;;;;;;;;;;;;;;;;;;"1257";"2015-02-12 13:42:47.959";"ST_correctStop";"8";"1";"FINISHED";"NONE";"success";"0";"1";"2015-02-12 13:42:46.695";"1";;;;;;;;;;;;;;;;;;;;;;;;;;;;;;;;;;;;;;;;;;;;;;;;;;;;;;;;;
"C1307286";;;"Windows 7";"Rachel's Experiment (DP)";"1.0";"3";"1";"1";"3";"1";"1";"2015-02-12 13:40:29.712";"2015-02-12 13:55:54.824";"1";"1";"1";"23";"22";"module.training_block1.exec-2764.GoNoGo1";;;;;;;;;;;;;;;;;;;;;;;"1257";"2015-02-12 13:42:50.502";"NST_correctLoc";"31";"0";"FINISHED";"LEFT";"success";"805";"0";"2015-02-12 13:42:49.238";"3";;;;;;;;;;;;;;;;;;;;;;;;;;;;;;;;;;;;;;;;;;;;;;;;;;;;;;;;;
"C1307286";;;"Windows 7";"Rachel's Experiment (DP)";"1.0";"3";"1";"1";"3";"1";"1";"2015-02-12 13:40:29.712";"2015-02-12 13:55:54.824";"1";"1";"1";"24";"23";"module.training_block1.exec-2764.GoNoGo1";;;;;;;;;;;;;;;;;;;;;;;"1256";"2015-02-12 13:42:53.045";"ST_correctStop";"25";"1";"FINISHED";"NONE";"success";"0";"1";"2015-02-12 13:42:51.781";"3";;;;;;;;;;;;;;;;;;;;;;;;;;;;;;;;;;;;;;;;;;;;;;;;;;;;;;;;;
"C1307286";;;"Windows 7";"Rachel's Experiment (DP)";"1.0";"3";"1";"1";"3";"1";"1";"2015-02-12 13:40:29.712";"2015-02-12 13:55:54.824";"1";"1";"1";"25";"24";"module.training_block1.exec-2764.GoNoGo1";;;;;;;;;;;;;;;;;;;;;;;"1257";"2015-02-12 13:42:55.587";"NST_correctLoc";"9";"0";"FINISHED";"LEFT";"success";"687";"0";"2015-02-12 13:42:54.324";"2";;;;;;;;;;;;;;;;;;;;;;;;;;;;;;;;;;;;;;;;;;;;;;;;;;;;;;;;;
"C1307286";;;"Windows 7";"Rachel's Experiment (DP)";"1.0";"3";"1";"1";"3";"1";"1";"2015-02-12 13:40:29.712";"2015-02-12 13:55:54.824";"1";"1";"1";"26";"25";"module.training_block1.exec-2764.GoNoGo1";;;;;;;;;;;;;;;;;;;;;;;"1257";"2015-02-12 13:42:58.130";"NST_correctLoc";"14";"1";"FINISHED";"RIGHT";"success";"929";"0";"2015-02-12 13:42:56.867";"2";;;;;;;;;;;;;;;;;;;;;;;;;;;;;;;;;;;;;;;;;;;;;;;;;;;;;;;;;
"C1307286";;;"Windows 7";"Rachel's Experiment (DP)";"1.0";"3";"1";"1";"3";"1";"1";"2015-02-12 13:40:29.712";"2015-02-12 13:55:54.824";"1";"1";"1";"27";"26";"module.training_block1.exec-2764.GoNoGo1";;;;;;;;;;;;;;;;;;;;;;;"1257";"2015-02-12 13:43:00.673";"ST_correctStop";"22";"1";"FINISHED";"NONE";"success";"0";"1";"2015-02-12 13:42:59.409";"3";;;;;;;;;;;;;;;;;;;;;;;;;;;;;;;;;;;;;;;;;;;;;;;;;;;;;;;;;
"C1307286";;;"Windows 7";"Rachel's Experiment (DP)";"1.0";"3";"1";"1";"3";"1";"1";"2015-02-12 13:40:29.712";"2015-02-12 13:55:54.824";"1";"1";"1";"28";"27";"module.training_block1.exec-2764.GoNoGo1";;;;;;;;;;;;;;;;;;;;;;;"1257";"2015-02-12 13:43:03.216";"ST_correctStop";"4";"1";"FINISHED";"NONE";"success";"0";"1";"2015-02-12 13:43:01.952";"1";;;;;;;;;;;;;;;;;;;;;;;;;;;;;;;;;;;;;;;;;;;;;;;;;;;;;;;;;
"C1307286";;;"Windows 7";"Rachel's Experiment (DP)";"1.0";"3";"1";"1";"3";"1";"1";"2015-02-12 13:40:29.712";"2015-02-12 13:55:54.824";"1";"1";"1";"29";"28";"module.training_block1.exec-2764.GoNoGo1";;;;;;;;;;;;;;;;;;;;;;;"1258";"2015-02-12 13:43:05.759";"NST_correctLoc";"18";"1";"FINISHED";"RIGHT";"success";"669";"0";"2015-02-12 13:43:04.495";"3";;;;;;;;;;;;;;;;;;;;;;;;;;;;;;;;;;;;;;;;;;;;;;;;;;;;;;;;;
"C1307286";;;"Windows 7";"Rachel's Experiment (DP)";"1.0";"3";"1";"1";"3";"1";"1";"2015-02-12 13:40:29.712";"2015-02-12 13:55:54.824";"1";"1";"1";"30";"29";"module.training_block1.exec-2764.GoNoGo1";;;;;;;;;;;;;;;;;;;;;;;"1261";"2015-02-12 13:43:08.301";"NST_correctLoc";"27";"0";"FINISHED";"LEFT";"success";"738";"0";"2015-02-12 13:43:07.038";"3";;;;;;;;;;;;;;;;;;;;;;;;;;;;;;;;;;;;;;;;;;;;;;;;;;;;;;;;;
"C1307286";;;"Windows 7";"Rachel's Experiment (DP)";"1.0";"3";"1";"1";"3";"1";"1";"2015-02-12 13:40:29.712";"2015-02-12 13:55:54.824";"1";"1";"1";"31";"30";"module.training_block1.exec-2764.GoNoGo1";;;;;;;;;;;;;;;;;;;;;;;"1257";"2015-02-12 13:43:10.844";"ST_correctStop";"7";"0";"FINISHED";"NONE";"success";"0";"1";"2015-02-12 13:43:09.581";"1";;;;;;;;;;;;;;;;;;;;;;;;;;;;;;;;;;;;;;;;;;;;;;;;;;;;;;;;;
"C1307286";;;"Windows 7";"Rachel's Experiment (DP)";"1.0";"3";"1";"1";"3";"1";"1";"2015-02-12 13:40:29.712";"2015-02-12 13:55:54.824";"1";"1";"1";"32";"31";"module.training_block1.exec-2764.GoNoGo1";;;;;;;;;;;;;;;;;;;;;;;"1257";"2015-02-12 13:43:13.387";"NST_correctLoc";"10";"0";"FINISHED";"LEFT";"success";"656";"0";"2015-02-12 13:43:12.123";"2";;;;;;;;;;;;;;;;;;;;;;;;;;;;;;;;;;;;;;;;;;;;;;;;;;;;;;;;;
"C1307286";;;"Windows 7";"Rachel's Experiment (DP)";"1.0";"3";"1";"1";"3";"1";"1";"2015-02-12 13:40:29.712";"2015-02-12 13:55:54.824";"1";"1";"1";"33";"32";"module.training_block1.exec-2764.GoNoGo1";;;;;;;;;;;;;;;;;;;;;;;"1257";"2015-02-12 13:43:15.930";"NST_correctLoc";"16";"1";"FINISHED";"RIGHT";"success";"681";"0";"2015-02-12 13:43:14.666";"2";;;;;;;;;;;;;;;;;;;;;;;;;;;;;;;;;;;;;;;;;;;;;;;;;;;;;;;;;
"C1307286";;;"Windows 7";"Rachel's Experiment (DP)";"1.0";"3";"1";"1";"3";"1";"1";"2015-02-12 13:40:29.712";"2015-02-12 13:55:54.824";"1";"1";"1";"34";"33";"module.training_block1.exec-2764.GoNoGo1";;;;;;;;;;;;;;;;;;;;;;;"1257";"2015-02-12 13:43:18.473";"NST_correctLoc";"20";"0";"FINISHED";"LEFT";"success";"642";"0";"2015-02-12 13:43:17.209";"3";;;;;;;;;;;;;;;;;;;;;;;;;;;;;;;;;;;;;;;;;;;;;;;;;;;;;;;;;
"C1307286";;;"Windows 7";"Rachel's Experiment (DP)";"1.0";"3";"1";"1";"3";"1";"1";"2015-02-12 13:40:29.712";"2015-02-12 13:55:54.824";"1";"1";"1";"35";"34";"module.training_block1.exec-2764.GoNoGo1";;;;;;;;;;;;;;;;;;;;;;;"1257";"2015-02-12 13:43:21.016";"ST_correctStop";"0";"0";"FINISHED";"NONE";"success";"0";"1";"2015-02-12 13:43:19.752";"1";;;;;;;;;;;;;;;;;;;;;;;;;;;;;;;;;;;;;;;;;;;;;;;;;;;;;;;;;
"C1307286";;;"Windows 7";"Rachel's Experiment (DP)";"1.0";"3";"1";"1";"3";"1";"1";"2015-02-12 13:40:29.712";"2015-02-12 13:55:54.824";"1";"1";"1";"36";"35";"module.training_block1.exec-2764.GoNoGo1";;;;;;;;;;;;;;;;;;;;;;;"1261";"2015-02-12 13:43:23.558";"ST_correctStop";"3";"1";"FINISHED";"NONE";"success";"0";"1";"2015-02-12 13:43:22.295";"1";;;;;;;;;;;;;;;;;;;;;;;;;;;;;;;;;;;;;;;;;;;;;;;;;;;;;;;;;
"C1307286";;;"Windows 7";"Rachel's Experiment (DP)";"1.0";"3";"1";"1";"3";"1";"1";"2015-02-12 13:40:29.712";"2015-02-12 13:55:54.824";"1";"1";"1";"37";"36";"module.training_block1.exec-2764.GoNoGo1";;;;;;;;;;;;;;;;;;;;;;;"1261";"2015-02-12 13:43:26.101";"ST_correctStop";"23";"0";"FINISHED";"NONE";"success";"0";"1";"2015-02-12 13:43:24.838";"3";;;;;;;;;;;;;;;;;;;;;;;;;;;;;;;;;;;;;;;;;;;;;;;;;;;;;;;;;
"C1307286";;;"Windows 7";"Rachel's Experiment (DP)";"1.0";"3";"1";"1";"3";"1";"1";"2015-02-12 13:40:29.712";"2015-02-12 13:55:54.824";"1";"1";"1";"38";"37";"module.training_block1.exec-2764.GoNoGo1";;;;;;;;;;;;;;;;;;;;;;;"1257";"2015-02-12 13:43:28.644";"ST_correctStop";"1";"0";"FINISHED";"NONE";"success";"0";"1";"2015-02-12 13:43:27.380";"1";;;;;;;;;;;;;;;;;;;;;;;;;;;;;;;;;;;;;;;;;;;;;;;;;;;;;;;;;
"C1307286";;;"Windows 7";"Rachel's Experiment (DP)";"1.0";"3";"1";"1";"3";"1";"1";"2015-02-12 13:40:29.712";"2015-02-12 13:55:54.824";"1";"1";"1";"39";"38";"module.training_block1.exec-2764.GoNoGo1";;;;;;;;;;;;;;;;;;;;;;;"1261";"2015-02-12 13:43:31.187";"ST_correctStop";"6";"0";"FINISHED";"NONE";"success";"0";"1";"2015-02-12 13:43:29.923";"1";;;;;;;;;;;;;;;;;;;;;;;;;;;;;;;;;;;;;;;;;;;;;;;;;;;;;;;;;
"C1307286";;;"Windows 7";"Rachel's Experiment (DP)";"1.0";"3";"1";"1";"3";"1";"1";"2015-02-12 13:40:29.712";"2015-02-12 13:55:54.824";"1";"1";"1";"40";"39";"module.training_block1.exec-2764.GoNoGo1";;;;;;;;;;;;;;;;;;;;;;;"1257";"2015-02-12 13:43:33.730";"ST_correctStop";"26";"1";"FINISHED";"NONE";"success";"0";"1";"2015-02-12 13:43:32.466";"3";;;;;;;;;;;;;;;;;;;;;;;;;;;;;;;;;;;;;;;;;;;;;;;;;;;;;;;;;
"C1307286";;;"Windows 7";"Rachel's Experiment (DP)";"1.0";"3";"1";"1";"3";"1";"1";"2015-02-12 13:40:29.712";"2015-02-12 13:55:54.824";"1";"1";"1";"41";"40";"module.training_block1.exec-2764.GoNoGo1";;;;;;;;;;;;;;;;;;;;;;;"1257";"2015-02-12 13:43:36.272";"NST_correctLoc";"29";"1";"FINISHED";"RIGHT";"success";"762";"0";"2015-02-12 13:43:35.009";"3";;;;;;;;;;;;;;;;;;;;;;;;;;;;;;;;;;;;;;;;;;;;;;;;;;;;;;;;;
"C1307286";;;"Windows 7";"Rachel's Experiment (DP)";"1.0";"3";"1";"1";"3";"1";"1";"2015-02-12 13:40:29.712";"2015-02-12 13:55:54.824";"1";"1";"1";"42";"41";"module.training_block1.exec-2764.GoNoGo1";;;;;;;;;;;;;;;;;;;;;;;"1257";"2015-02-12 13:43:38.815";"NST_correctLoc";"21";"1";"FINISHED";"RIGHT";"success";"1035";"0";"2015-02-12 13:43:37.552";"3";;;;;;;;;;;;;;;;;;;;;;;;;;;;;;;;;;;;;;;;;;;;;;;;;;;;;;;;;
"C1307286";;;"Windows 7";"Rachel's Experiment (DP)";"1.0";"3";"1";"1";"3";"1";"1";"2015-02-12 13:40:29.712";"2015-02-12 13:55:54.824";"1";"1";"1";"43";"42";"module.training_block1.exec-2764.GoNoGo1";;;;;;;;;;;;;;;;;;;;;;;"1258";"2015-02-12 13:43:41.358";"ST_correctStop";"28";"1";"FINISHED";"NONE";"success";"0";"1";"2015-02-12 13:43:40.094";"3";;;;;;;;;;;;;;;;;;;;;;;;;;;;;;;;;;;;;;;;;;;;;;;;;;;;;;;;;
"C1307286";;;"Windows 7";"Rachel's Experiment (DP)";"1.0";"3";"1";"1";"3";"1";"1";"2015-02-12 13:40:29.712";"2015-02-12 13:55:54.824";"1";"1";"1";"44";"43";"module.training_block1.exec-2764.GoNoGo1";;;;;;;;;;;;;;;;;;;;;;;"1258";"2015-02-12 13:43:43.901";"NST_correctLoc";"33";"1";"FINISHED";"RIGHT";"success";"974";"0";"2015-02-12 13:43:42.637";"3";;;;;;;;;;;;;;;;;;;;;;;;;;;;;;;;;;;;;;;;;;;;;;;;;;;;;;;;;
"C1307286";;;"Windows 7";"Rachel's Experiment (DP)";"1.0";"3";"1";"1";"3";"1";"1";"2015-02-12 13:40:29.712";"2015-02-12 13:55:54.824";"1";"1";"1";"45";"44";"module.training_block1.exec-2764.GoNoGo1";;;;;;;;;;;;;;;;;;;;;;;"1261";"2015-02-12 13:43:46.444";"ST_correctStop";"2";"0";"FINISHED";"NONE";"success";"0";"1";"2015-02-12 13:43:45.180";"1";;;;;;;;;;;;;;;;;;;;;;;;;;;;;;;;;;;;;;;;;;;;;;;;;;;;;;;;;
"C1307286";;;"Windows 7";"Rachel's Experiment (DP)";"1.0";"3";"1";"1";"3";"1";"1";"2015-02-12 13:40:29.712";"2015-02-12 13:55:54.824";"1";"1";"1";"46";"45";"module.training_block1.exec-2764.GoNoGo1";;;;;;;;;;;;;;;;;;;;;;;"1258";"2015-02-12 13:43:48.986";"ST_correctStop";"35";"1";"FINISHED";"NONE";"success";"0";"1";"2015-02-12 13:43:47.723";"3";;;;;;;;;;;;;;;;;;;;;;;;;;;;;;;;;;;;;;;;;;;;;;;;;;;;;;;;;
"C1307286";;;"Windows 7";"Rachel's Experiment (DP)";"1.0";"3";"1";"1";"3";"1";"1";"2015-02-12 13:40:29.712";"2015-02-12 13:55:54.824";"1";"1";"1";"47";"46";"module.training_block1.exec-2764.GoNoGo1";;;;;;;;;;;;;;;;;;;;;;;"1257";"2015-02-12 13:43:51.529";"NST_correctLoc";"17";"0";"FINISHED";"LEFT";"success";"649";"0";"2015-02-12 13:43:50.266";"2";;;;;;;;;;;;;;;;;;;;;;;;;;;;;;;;;;;;;;;;;;;;;;;;;;;;;;;;;
"C1307286";;;"Windows 7";"Rachel's Experiment (DP)";"1.0";"3";"1";"1";"3";"1";"1";"2015-02-12 13:40:29.712";"2015-02-12 13:55:54.824";"1";"1";"1";"48";"47";"module.training_block1.exec-2764.GoNoGo1";;;;;;;;;;;;;;;;;;;;;;;"1258";"2015-02-12 13:43:54.072";"NST_correctLoc";"12";"1";"FINISHED";"RIGHT";"success";"691";"0";"2015-02-12 13:43:52.808";"2";;;;;;;;;;;;;;;;;;;;;;;;;;;;;;;;;;;;;;;;;;;;;;;;;;;;;;;;;
"C1307286";;;"Windows 7";"Rachel's Experiment (DP)";"1.0";"3";"1";"1";"3";"1";"1";"2015-02-12 13:40:29.712";"2015-02-12 13:55:54.824";"1";"1";"1";"49";"48";"module.training_block1.exec-2764.GoNoGo1";;;;;;;;;;;;;;;;;;;;;;;"1258";"2015-02-12 13:43:56.615";"NST_correctLoc";"24";"0";"FINISHED";"LEFT";"success";"852";"0";"2015-02-12 13:43:55.351";"3";;;;;;;;;;;;;;;;;;;;;;;;;;;;;;;;;;;;;;;;;;;;;;;;;;;;;;;;;
"C1307286";;;"Windows 7";"Rachel's Experiment (DP)";"1.0";"3";"1";"1";"3";"1";"1";"2015-02-12 13:40:29.712";"2015-02-12 13:55:54.824";"1";"1";"1";"50";"49";"module.training_block1.exec-2764.GoNoGo1";;;;;;;;;;;;;;;;;;;;;;;"1257";"2015-02-12 13:43:59.158";"NST_correctLoc";"11";"1";"FINISHED";"RIGHT";"success";"684";"0";"2015-02-12 13:43:57.894";"2";;;;;;;;;;;;;;;;;;;;;;;;;;;;;;;;;;;;;;;;;;;;;;;;;;;;;;;;;
"C1307286";;;"Windows 7";"Rachel's Experiment (DP)";"1.0";"3";"1";"1";"3";"1";"1";"2015-02-12 13:40:29.712";"2015-02-12 13:55:54.824";"1";"1";"1";"51";"50";"module.training_block1.exec-2764.GoNoGo1";;;;;;;;;;;;;;;;;;;;;;;"1258";"2015-02-12 13:44:01.700";"NST_correctLoc";"19";"0";"FINISHED";"LEFT";"success";"583";"0";"2015-02-12 13:44:00.437";"3";;;;;;;;;;;;;;;;;;;;;;;;;;;;;;;;;;;;;;;;;;;;;;;;;;;;;;;;;
"C1307286";;;"Windows 7";"Rachel's Experiment (DP)";"1.0";"3";"1";"1";"3";"1";"1";"2015-02-12 13:40:29.712";"2015-02-12 13:55:54.824";"1";"1";"1";"52";"51";"module.training_block2.exec-9571.GoNoGo2";;;;;;;;;;;;;;;;;;;;;;;;;;;;;;;;;;;"1261";"2015-02-12 13:44:13.042";"ST_correctStop";"23";"0";"FINISHED";"NONE";"success";"0";"1";"2015-02-12 13:44:11.778";"3";;;;;;;;;;;;;;;;;;;;;;;;;;;;;;;;;;;;;;;;;;;;;
"C1307286";;;"Windows 7";"Rachel's Experiment (DP)";"1.0";"3";"1";"1";"3";"1";"1";"2015-02-12 13:40:29.712";"2015-02-12 13:55:54.824";"1";"1";"1";"53";"52";"module.training_block2.exec-9571.GoNoGo2";;;;;;;;;;;;;;;;;;;;;;;;;;;;;;;;;;;"1261";"2015-02-12 13:44:15.584";"ST_correctStop";"21";"0";"FINISHED";"NONE";"success";"0";"1";"2015-02-12 13:44:14.321";"3";;;;;;;;;;;;;;;;;;;;;;;;;;;;;;;;;;;;;;;;;;;;;
"C1307286";;;"Windows 7";"Rachel's Experiment (DP)";"1.0";"3";"1";"1";"3";"1";"1";"2015-02-12 13:40:29.712";"2015-02-12 13:55:54.824";"1";"1";"1";"54";"53";"module.training_block2.exec-9571.GoNoGo2";;;;;;;;;;;;;;;;;;;;;;;;;;;;;;;;;;;"1261";"2015-02-12 13:44:18.127";"NST_correctLoc";"14";"0";"FINISHED";"LEFT";"success";"671";"0";"2015-02-12 13:44:16.864";"2";;;;;;;;;;;;;;;;;;;;;;;;;;;;;;;;;;;;;;;;;;;;;
"C1307286";;;"Windows 7";"Rachel's Experiment (DP)";"1.0";"3";"1";"1";"3";"1";"1";"2015-02-12 13:40:29.712";"2015-02-12 13:55:54.824";"1";"1";"1";"55";"54";"module.training_block2.exec-9571.GoNoGo2";;;;;;;;;;;;;;;;;;;;;;;;;;;;;;;;;;;"1261";"2015-02-12 13:44:20.670";"NST_correctLoc";"15";"0";"FINISHED";"LEFT";"success";"625";"0";"2015-02-12 13:44:19.406";"2";;;;;;;;;;;;;;;;;;;;;;;;;;;;;;;;;;;;;;;;;;;;;
"C1307286";;;"Windows 7";"Rachel's Experiment (DP)";"1.0";"3";"1";"1";"3";"1";"1";"2015-02-12 13:40:29.712";"2015-02-12 13:55:54.824";"1";"1";"1";"56";"55";"module.training_block2.exec-9571.GoNoGo2";;;;;;;;;;;;;;;;;;;;;;;;;;;;;;;;;;;"1261";"2015-02-12 13:44:23.213";"ST_correctStop";"0";"1";"FINISHED";"NONE";"success";"0";"1";"2015-02-12 13:44:21.949";"1";;;;;;;;;;;;;;;;;;;;;;;;;;;;;;;;;;;;;;;;;;;;;
"C1307286";;;"Windows 7";"Rachel's Experiment (DP)";"1.0";"3";"1";"1";"3";"1";"1";"2015-02-12 13:40:29.712";"2015-02-12 13:55:54.824";"1";"1";"1";"57";"56";"module.training_block2.exec-9571.GoNoGo2";;;;;;;;;;;;;;;;;;;;;;;;;;;;;;;;;;;"1261";"2015-02-12 13:44:25.756";"ST_correctStop";"8";"1";"FINISHED";"NONE";"success";"0";"1";"2015-02-12 13:44:24.492";"1";;;;;;;;;;;;;;;;;;;;;;;;;;;;;;;;;;;;;;;;;;;;;
"C1307286";;;"Windows 7";"Rachel's Experiment (DP)";"1.0";"3";"1";"1";"3";"1";"1";"2015-02-12 13:40:29.712";"2015-02-12 13:55:54.824";"1";"1";"1";"58";"57";"module.training_block2.exec-9571.GoNoGo2";;;;;;;;;;;;;;;;;;;;;;;;;;;;;;;;;;;"1261";"2015-02-12 13:44:28.298";"ST_correctStop";"27";"0";"FINISHED";"NONE";"success";"0";"1";"2015-02-12 13:44:27.035";"3";;;;;;;;;;;;;;;;;;;;;;;;;;;;;;;;;;;;;;;;;;;;;
"C1307286";;;"Windows 7";"Rachel's Experiment (DP)";"1.0";"3";"1";"1";"3";"1";"1";"2015-02-12 13:40:29.712";"2015-02-12 13:55:54.824";"1";"1";"1";"59";"58";"module.training_block2.exec-9571.GoNoGo2";;;;;;;;;;;;;;;;;;;;;;;;;;;;;;;;;;;"1261";"2015-02-12 13:44:30.841";"ST_correctStop";"26";"0";"FINISHED";"NONE";"success";"0";"1";"2015-02-12 13:44:29.578";"3";;;;;;;;;;;;;;;;;;;;;;;;;;;;;;;;;;;;;;;;;;;;;
"C1307286";;;"Windows 7";"Rachel's Experiment (DP)";"1.0";"3";"1";"1";"3";"1";"1";"2015-02-12 13:40:29.712";"2015-02-12 13:55:54.824";"1";"1";"1";"60";"59";"module.training_block2.exec-9571.GoNoGo2";;;;;;;;;;;;;;;;;;;;;;;;;;;;;;;;;;;"1261";"2015-02-12 13:44:33.384";"NST_correctLoc";"34";"0";"FINISHED";"LEFT";"success";"599";"0";"2015-02-12 13:44:32.120";"3";;;;;;;;;;;;;;;;;;;;;;;;;;;;;;;;;;;;;;;;;;;;;
"C1307286";;;"Windows 7";"Rachel's Experiment (DP)";"1.0";"3";"1";"1";"3";"1";"1";"2015-02-12 13:40:29.712";"2015-02-12 13:55:54.824";"1";"1";"1";"61";"60";"module.training_block2.exec-9571.GoNoGo2";;;;;;;;;;;;;;;;;;;;;;;;;;;;;;;;;;;"1261";"2015-02-12 13:44:35.927";"ST_correctStop";"19";"1";"FINISHED";"NONE";"success";"0";"1";"2015-02-12 13:44:34.663";"3";;;;;;;;;;;;;;;;;;;;;;;;;;;;;;;;;;;;;;;;;;;;;
"C1307286";;;"Windows 7";"Rachel's Experiment (DP)";"1.0";"3";"1";"1";"3";"1";"1";"2015-02-12 13:40:29.712";"2015-02-12 13:55:54.824";"1";"1";"1";"62";"61";"module.training_block2.exec-9571.GoNoGo2";;;;;;;;;;;;;;;;;;;;;;;;;;;;;;;;;;;"1261";"2015-02-12 13:44:38.470";"NST_correctLoc";"31";"0";"FINISHED";"LEFT";"success";"681";"0";"2015-02-12 13:44:37.206";"3";;;;;;;;;;;;;;;;;;;;;;;;;;;;;;;;;;;;;;;;;;;;;
"C1307286";;;"Windows 7";"Rachel's Experiment (DP)";"1.0";"3";"1";"1";"3";"1";"1";"2015-02-12 13:40:29.712";"2015-02-12 13:55:54.824";"1";"1";"1";"63";"62";"module.training_block2.exec-9571.GoNoGo2";;;;;;;;;;;;;;;;;;;;;;;;;;;;;;;;;;;"1261";"2015-02-12 13:44:41.012";"NST_correctLoc";"32";"1";"FINISHED";"RIGHT";"success";"602";"0";"2015-02-12 13:44:39.749";"3";;;;;;;;;;;;;;;;;;;;;;;;;;;;;;;;;;;;;;;;;;;;;
"C1307286";;;"Windows 7";"Rachel's Experiment (DP)";"1.0";"3";"1";"1";"3";"1";"1";"2015-02-12 13:40:29.712";"2015-02-12 13:55:54.824";"1";"1";"1";"64";"63";"module.training_block2.exec-9571.GoNoGo2";;;;;;;;;;;;;;;;;;;;;;;;;;;;;;;;;;;"1261";"2015-02-12 13:44:43.555";"NST_correctLoc";"29";"0";"FINISHED";"LEFT";"success";"651";"0";"2015-02-12 13:44:42.292";"3";;;;;;;;;;;;;;;;;;;;;;;;;;;;;;;;;;;;;;;;;;;;;
"C1307286";;;"Windows 7";"Rachel's Experiment (DP)";"1.0";"3";"1";"1";"3";"1";"1";"2015-02-12 13:40:29.712";"2015-02-12 13:55:54.824";"1";"1";"1";"65";"64";"module.training_block2.exec-9571.GoNoGo2";;;;;;;;;;;;;;;;;;;;;;;;;;;;;;;;;;;"1261";"2015-02-12 13:44:46.098";"NST_correctLoc";"24";"1";"FINISHED";"RIGHT";"success";"532";"0";"2015-02-12 13:44:44.834";"3";;;;;;;;;;;;;;;;;;;;;;;;;;;;;;;;;;;;;;;;;;;;;
"C1307286";;;"Windows 7";"Rachel's Experiment (DP)";"1.0";"3";"1";"1";"3";"1";"1";"2015-02-12 13:40:29.712";"2015-02-12 13:55:54.824";"1";"1";"1";"66";"65";"module.training_block2.exec-9571.GoNoGo2";;;;;;;;;;;;;;;;;;;;;;;;;;;;;;;;;;;"1261";"2015-02-12 13:44:48.641";"NST_correctLoc";"9";"0";"FINISHED";"LEFT";"success";"454";"0";"2015-02-12 13:44:47.377";"2";;;;;;;;;;;;;;;;;;;;;;;;;;;;;;;;;;;;;;;;;;;;;
"C1307286";;;"Windows 7";"Rachel's Experiment (DP)";"1.0";"3";"1";"1";"3";"1";"1";"2015-02-12 13:40:29.712";"2015-02-12 13:55:54.824";"1";"1";"1";"67";"66";"module.training_block2.exec-9571.GoNoGo2";;;;;;;;;;;;;;;;;;;;;;;;;;;;;;;;;;;"1261";"2015-02-12 13:44:51.184";"NST_correctLoc";"12";"1";"FINISHED";"RIGHT";"success";"487";"0";"2015-02-12 13:44:49.920";"2";;;;;;;;;;;;;;;;;;;;;;;;;;;;;;;;;;;;;;;;;;;;;
"C1307286";;;"Windows 7";"Rachel's Experiment (DP)";"1.0";"3";"1";"1";"3";"1";"1";"2015-02-12 13:40:29.712";"2015-02-12 13:55:54.824";"1";"1";"1";"68";"67";"module.training_block2.exec-9571.GoNoGo2";;;;;;;;;;;;;;;;;;;;;;;;;;;;;;;;;;;"1261";"2015-02-12 13:44:53.726";"ST_correctStop";"1";"0";"FINISHED";"NONE";"success";"0";"1";"2015-02-12 13:44:52.463";"1";;;;;;;;;;;;;;;;;;;;;;;;;;;;;;;;;;;;;;;;;;;;;
"C1307286";;;"Windows 7";"Rachel's Experiment (DP)";"1.0";"3";"1";"1";"3";"1";"1";"2015-02-12 13:40:29.712";"2015-02-12 13:55:54.824";"1";"1";"1";"69";"68";"module.training_block2.exec-9571.GoNoGo2";;;;;;;;;;;;;;;;;;;;;;;;;;;;;;;;;;;"1261";"2015-02-12 13:44:56.269";"NST_correctLoc";"30";"0";"FINISHED";"LEFT";"success";"697";"0";"2015-02-12 13:44:55.006";"3";;;;;;;;;;;;;;;;;;;;;;;;;;;;;;;;;;;;;;;;;;;;;
"C1307286";;;"Windows 7";"Rachel's Experiment (DP)";"1.0";"3";"1";"1";"3";"1";"1";"2015-02-12 13:40:29.712";"2015-02-12 13:55:54.824";"1";"1";"1";"70";"69";"module.training_block2.exec-9571.GoNoGo2";;;;;;;;;;;;;;;;;;;;;;;;;;;;;;;;;;;"1261";"2015-02-12 13:44:58.812";"NST_correctLoc";"16";"1";"FINISHED";"RIGHT";"success";"874";"0";"2015-02-12 13:44:57.548";"2";;;;;;;;;;;;;;;;;;;;;;;;;;;;;;;;;;;;;;;;;;;;;
"C1307286";;;"Windows 7";"Rachel's Experiment (DP)";"1.0";"3";"1";"1";"3";"1";"1";"2015-02-12 13:40:29.712";"2015-02-12 13:55:54.824";"1";"1";"1";"71";"70";"module.training_block2.exec-9571.GoNoGo2";;;;;;;;;;;;;;;;;;;;;;;;;;;;;;;;;;;"1261";"2015-02-12 13:45:01.355";"NST_correctLoc";"17";"0";"FINISHED";"LEFT";"success";"563";"0";"2015-02-12 13:45:00.091";"2";;;;;;;;;;;;;;;;;;;;;;;;;;;;;;;;;;;;;;;;;;;;;
"C1307286";;;"Windows 7";"Rachel's Experiment (DP)";"1.0";"3";"1";"1";"3";"1";"1";"2015-02-12 13:40:29.712";"2015-02-12 13:55:54.824";"1";"1";"1";"72";"71";"module.training_block2.exec-9571.GoNoGo2";;;;;;;;;;;;;;;;;;;;;;;;;;;;;;;;;;;"1261";"2015-02-12 13:45:03.898";"ST_correctStop";"5";"0";"FINISHED";"NONE";"success";"0";"1";"2015-02-12 13:45:02.634";"1";;;;;;;;;;;;;;;;;;;;;;;;;;;;;;;;;;;;;;;;;;;;;
"C1307286";;;"Windows 7";"Rachel's Experiment (DP)";"1.0";"3";"1";"1";"3";"1";"1";"2015-02-12 13:40:29.712";"2015-02-12 13:55:54.824";"1";"1";"1";"73";"72";"module.training_block2.exec-9571.GoNoGo2";;;;;;;;;;;;;;;;;;;;;;;;;;;;;;;;;;;"1261";"2015-02-12 13:45:06.440";"ST_correctStop";"6";"1";"FINISHED";"NONE";"success";"0";"1";"2015-02-12 13:45:05.177";"1";;;;;;;;;;;;;;;;;;;;;;;;;;;;;;;;;;;;;;;;;;;;;
"C1307286";;;"Windows 7";"Rachel's Experiment (DP)";"1.0";"3";"1";"1";"3";"1";"1";"2015-02-12 13:40:29.712";"2015-02-12 13:55:54.824";"1";"1";"1";"74";"73";"module.training_block2.exec-9571.GoNoGo2";;;;;;;;;;;;;;;;;;;;;;;;;;;;;;;;;;;"1261";"2015-02-12 13:45:08.983";"ST_correctStop";"3";"0";"FINISHED";"NONE";"success";"0";"1";"2015-02-12 13:45:07.720";"1";;;;;;;;;;;;;;;;;;;;;;;;;;;;;;;;;;;;;;;;;;;;;
"C1307286";;;"Windows 7";"Rachel's Experiment (DP)";"1.0";"3";"1";"1";"3";"1";"1";"2015-02-12 13:40:29.712";"2015-02-12 13:55:54.824";"1";"1";"1";"75";"74";"module.training_block2.exec-9571.GoNoGo2";;;;;;;;;;;;;;;;;;;;;;;;;;;;;;;;;;;"1261";"2015-02-12 13:45:11.526";"ST_correctStop";"4";"1";"FINISHED";"NONE";"success";"0";"1";"2015-02-12 13:45:10.262";"1";;;;;;;;;;;;;;;;;;;;;;;;;;;;;;;;;;;;;;;;;;;;;
"C1307286";;;"Windows 7";"Rachel's Experiment (DP)";"1.0";"3";"1";"1";"3";"1";"1";"2015-02-12 13:40:29.712";"2015-02-12 13:55:54.824";"1";"1";"1";"76";"75";"module.training_block2.exec-9571.GoNoGo2";;;;;;;;;;;;;;;;;;;;;;;;;;;;;;;;;;;"1261";"2015-02-12 13:45:14.069";"ST_correctStop";"2";"0";"FINISHED";"NONE";"success";"0";"1";"2015-02-12 13:45:12.805";"1";;;;;;;;;;;;;;;;;;;;;;;;;;;;;;;;;;;;;;;;;;;;;
"C1307286";;;"Windows 7";"Rachel's Experiment (DP)";"1.0";"3";"1";"1";"3";"1";"1";"2015-02-12 13:40:29.712";"2015-02-12 13:55:54.824";"1";"1";"1";"77";"76";"module.training_block2.exec-9571.GoNoGo2";;;;;;;;;;;;;;;;;;;;;;;;;;;;;;;;;;;"1261";"2015-02-12 13:45:16.612";"NST_correctLoc";"11";"1";"FINISHED";"RIGHT";"success";"650";"0";"2015-02-12 13:45:15.348";"2";;;;;;;;;;;;;;;;;;;;;;;;;;;;;;;;;;;;;;;;;;;;;
"C1307286";;;"Windows 7";"Rachel's Experiment (DP)";"1.0";"3";"1";"1";"3";"1";"1";"2015-02-12 13:40:29.712";"2015-02-12 13:55:54.824";"1";"1";"1";"78";"77";"module.training_block2.exec-9571.GoNoGo2";;;;;;;;;;;;;;;;;;;;;;;;;;;;;;;;;;;"1261";"2015-02-12 13:45:19.155";"NST_correctLoc";"33";"1";"FINISHED";"RIGHT";"success";"692";"0";"2015-02-12 13:45:17.891";"3";;;;;;;;;;;;;;;;;;;;;;;;;;;;;;;;;;;;;;;;;;;;;
"C1307286";;;"Windows 7";"Rachel's Experiment (DP)";"1.0";"3";"1";"1";"3";"1";"1";"2015-02-12 13:40:29.712";"2015-02-12 13:55:54.824";"1";"1";"1";"79";"78";"module.training_block2.exec-9571.GoNoGo2";;;;;;;;;;;;;;;;;;;;;;;;;;;;;;;;;;;"1261";"2015-02-12 13:45:21.697";"NST_correctLoc";"10";"0";"FINISHED";"LEFT";"success";"661";"0";"2015-02-12 13:45:20.434";"2";;;;;;;;;;;;;;;;;;;;;;;;;;;;;;;;;;;;;;;;;;;;;
"C1307286";;;"Windows 7";"Rachel's Experiment (DP)";"1.0";"3";"1";"1";"3";"1";"1";"2015-02-12 13:40:29.712";"2015-02-12 13:55:54.824";"1";"1";"1";"80";"79";"module.training_block2.exec-9571.GoNoGo2";;;;;;;;;;;;;;;;;;;;;;;;;;;;;;;;;;;"1261";"2015-02-12 13:45:24.240";"ST_correctStop";"35";"1";"FINISHED";"NONE";"success";"0";"1";"2015-02-12 13:45:22.977";"3";;;;;;;;;;;;;;;;;;;;;;;;;;;;;;;;;;;;;;;;;;;;;
"C1307286";;;"Windows 7";"Rachel's Experiment (DP)";"1.0";"3";"1";"1";"3";"1";"1";"2015-02-12 13:40:29.712";"2015-02-12 13:55:54.824";"1";"1";"1";"81";"80";"module.training_block2.exec-9571.GoNoGo2";;;;;;;;;;;;;;;;;;;;;;;;;;;;;;;;;;;"1261";"2015-02-12 13:45:26.783";"NST_correctLoc";"25";"1";"FINISHED";"RIGHT";"success";"655";"0";"2015-02-12 13:45:25.519";"3";;;;;;;;;;;;;;;;;;;;;;;;;;;;;;;;;;;;;;;;;;;;;
"C1307286";;;"Windows 7";"Rachel's Experiment (DP)";"1.0";"3";"1";"1";"3";"1";"1";"2015-02-12 13:40:29.712";"2015-02-12 13:55:54.824";"1";"1";"1";"82";"81";"module.training_block2.exec-9571.GoNoGo2";;;;;;;;;;;;;;;;;;;;;;;;;;;;;;;;;;;"1261";"2015-02-12 13:45:29.341";"NST_correctLoc";"13";"1";"FINISHED";"RIGHT";"success";"681";"0";"2015-02-12 13:45:28.078";"2";;;;;;;;;;;;;;;;;;;;;;;;;;;;;;;;;;;;;;;;;;;;;
"C1307286";;;"Windows 7";"Rachel's Experiment (DP)";"1.0";"3";"1";"1";"3";"1";"1";"2015-02-12 13:40:29.712";"2015-02-12 13:55:54.824";"1";"1";"1";"83";"82";"module.training_block2.exec-9571.GoNoGo2";;;;;;;;;;;;;;;;;;;;;;;;;;;;;;;;;;;"1261";"2015-02-12 13:45:31.884";"ST_correctStop";"7";"1";"FINISHED";"NONE";"success";"0";"1";"2015-02-12 13:45:30.621";"1";;;;;;;;;;;;;;;;;;;;;;;;;;;;;;;;;;;;;;;;;;;;;
"C1307286";;;"Windows 7";"Rachel's Experiment (DP)";"1.0";"3";"1";"1";"3";"1";"1";"2015-02-12 13:40:29.712";"2015-02-12 13:55:54.824";"1";"1";"1";"84";"83";"module.training_block2.exec-9571.GoNoGo2";;;;;;;;;;;;;;;;;;;;;;;;;;;;;;;;;;;"1261";"2015-02-12 13:45:34.427";"ST_correctStop";"18";"1";"FINISHED";"NONE";"success";"0";"1";"2015-02-12 13:45:33.163";"3";;;;;;;;;;;;;;;;;;;;;;;;;;;;;;;;;;;;;;;;;;;;;
"C1307286";;;"Windows 7";"Rachel's Experiment (DP)";"1.0";"3";"1";"1";"3";"1";"1";"2015-02-12 13:40:29.712";"2015-02-12 13:55:54.824";"1";"1";"1";"85";"84";"module.training_block2.exec-9571.GoNoGo2";;;;;;;;;;;;;;;;;;;;;;;;;;;;;;;;;;;"1261";"2015-02-12 13:45:36.970";"NST_correctLoc";"28";"1";"FINISHED";"RIGHT";"success";"644";"0";"2015-02-12 13:45:35.706";"3";;;;;;;;;;;;;;;;;;;;;;;;;;;;;;;;;;;;;;;;;;;;;
"C1307286";;;"Windows 7";"Rachel's Experiment (DP)";"1.0";"3";"1";"1";"3";"1";"1";"2015-02-12 13:40:29.712";"2015-02-12 13:55:54.824";"1";"1";"1";"86";"85";"module.training_block2.exec-9571.GoNoGo2";;;;;;;;;;;;;;;;;;;;;;;;;;;;;;;;;;;"1261";"2015-02-12 13:45:39.513";"ST_correctStop";"22";"1";"FINISHED";"NONE";"success";"0";"1";"2015-02-12 13:45:38.249";"3";;;;;;;;;;;;;;;;;;;;;;;;;;;;;;;;;;;;;;;;;;;;;
"C1307286";;;"Windows 7";"Rachel's Experiment (DP)";"1.0";"3";"1";"1";"3";"1";"1";"2015-02-12 13:40:29.712";"2015-02-12 13:55:54.824";"1";"1";"1";"87";"86";"module.training_block2.exec-9571.GoNoGo2";;;;;;;;;;;;;;;;;;;;;;;;;;;;;;;;;;;"1261";"2015-02-12 13:45:42.055";"ST_correctStop";"20";"0";"FINISHED";"NONE";"success";"0";"1";"2015-02-12 13:45:40.792";"3";;;;;;;;;;;;;;;;;;;;;;;;;;;;;;;;;;;;;;;;;;;;;
"C1307286";;;"Windows 7";"Rachel's Experiment (DP)";"1.0";"3";"1";"1";"3";"1";"1";"2015-02-12 13:40:29.712";"2015-02-12 13:55:54.824";"1";"1";"1";"88";"87";"module.training_block3.exec-1117.GoNoGo3";;;;;;;;;;;;;;;;;;;;;;;;;;;;;;;;;;;;;;;;;;;;;;;"1261";"2015-02-12 13:45:53.147";"NST_correctLoc";"10";"1";"FINISHED";"RIGHT";"success";"827";"0";"2015-02-12 13:45:51.883";"2";;;;;;;;;;;;;;;;;;;;;;;;;;;;;;;;;
"C1307286";;;"Windows 7";"Rachel's Experiment (DP)";"1.0";"3";"1";"1";"3";"1";"1";"2015-02-12 13:40:29.712";"2015-02-12 13:55:54.824";"1";"1";"1";"89";"88";"module.training_block3.exec-1117.GoNoGo3";;;;;;;;;;;;;;;;;;;;;;;;;;;;;;;;;;;;;;;;;;;;;;;"1261";"2015-02-12 13:45:55.690";"ST_correctStop";"24";"1";"FINISHED";"NONE";"success";"0";"1";"2015-02-12 13:45:54.426";"3";;;;;;;;;;;;;;;;;;;;;;;;;;;;;;;;;
"C1307286";;;"Windows 7";"Rachel's Experiment (DP)";"1.0";"3";"1";"1";"3";"1";"1";"2015-02-12 13:40:29.712";"2015-02-12 13:55:54.824";"1";"1";"1";"90";"89";"module.training_block3.exec-1117.GoNoGo3";;;;;;;;;;;;;;;;;;;;;;;;;;;;;;;;;;;;;;;;;;;;;;;"1261";"2015-02-12 13:45:58.233";"ST_correctStop";"7";"1";"FINISHED";"NONE";"success";"0";"1";"2015-02-12 13:45:56.969";"1";;;;;;;;;;;;;;;;;;;;;;;;;;;;;;;;;
"C1307286";;;"Windows 7";"Rachel's Experiment (DP)";"1.0";"3";"1";"1";"3";"1";"1";"2015-02-12 13:40:29.712";"2015-02-12 13:55:54.824";"1";"1";"1";"91";"90";"module.training_block3.exec-1117.GoNoGo3";;;;;;;;;;;;;;;;;;;;;;;;;;;;;;;;;;;;;;;;;;;;;;;"1262";"2015-02-12 13:46:00.791";"NST_correctLoc";"34";"1";"FINISHED";"RIGHT";"success";"791";"0";"2015-02-12 13:45:59.527";"3";;;;;;;;;;;;;;;;;;;;;;;;;;;;;;;;;
"C1307286";;;"Windows 7";"Rachel's Experiment (DP)";"1.0";"3";"1";"1";"3";"1";"1";"2015-02-12 13:40:29.712";"2015-02-12 13:55:54.824";"1";"1";"1";"92";"91";"module.training_block3.exec-1117.GoNoGo3";;;;;;;;;;;;;;;;;;;;;;;;;;;;;;;;;;;;;;;;;;;;;;;"1261";"2015-02-12 13:46:03.334";"ST_correctStop";"25";"1";"FINISHED";"NONE";"success";"0";"1";"2015-02-12 13:46:02.070";"3";;;;;;;;;;;;;;;;;;;;;;;;;;;;;;;;;
"C1307286";;;"Windows 7";"Rachel's Experiment (DP)";"1.0";"3";"1";"1";"3";"1";"1";"2015-02-12 13:40:29.712";"2015-02-12 13:55:54.824";"1";"1";"1";"93";"92";"module.training_block3.exec-1117.GoNoGo3";;;;;;;;;;;;;;;;;;;;;;;;;;;;;;;;;;;;;;;;;;;;;;;"1261";"2015-02-12 13:46:05.877";"ST_correctStop";"30";"1";"FINISHED";"NONE";"success";"0";"1";"2015-02-12 13:46:04.613";"3";;;;;;;;;;;;;;;;;;;;;;;;;;;;;;;;;
"C1307286";;;"Windows 7";"Rachel's Experiment (DP)";"1.0";"3";"1";"1";"3";"1";"1";"2015-02-12 13:40:29.712";"2015-02-12 13:55:54.824";"1";"1";"1";"94";"93";"module.training_block3.exec-1117.GoNoGo3";;;;;;;;;;;;;;;;;;;;;;;;;;;;;;;;;;;;;;;;;;;;;;;"1261";"2015-02-12 13:46:08.419";"NST_correctLoc";"15";"0";"FINISHED";"LEFT";"success";"867";"0";"2015-02-12 13:46:07.156";"2";;;;;;;;;;;;;;;;;;;;;;;;;;;;;;;;;
"C1307286";;;"Windows 7";"Rachel's Experiment (DP)";"1.0";"3";"1";"1";"3";"1";"1";"2015-02-12 13:40:29.712";"2015-02-12 13:55:54.824";"1";"1";"1";"95";"94";"module.training_block3.exec-1117.GoNoGo3";;;;;;;;;;;;;;;;;;;;;;;;;;;;;;;;;;;;;;;;;;;;;;;"1262";"2015-02-12 13:46:10.962";"ST_correctStop";"5";"0";"FINISHED";"NONE";"success";"0";"1";"2015-02-12 13:46:09.699";"1";;;;;;;;;;;;;;;;;;;;;;;;;;;;;;;;;
"C1307286";;;"Windows 7";"Rachel's Experiment (DP)";"1.0";"3";"1";"1";"3";"1";"1";"2015-02-12 13:40:29.712";"2015-02-12 13:55:54.824";"1";"1";"1";"96";"95";"module.training_block3.exec-1117.GoNoGo3";;;;;;;;;;;;;;;;;;;;;;;;;;;;;;;;;;;;;;;;;;;;;;;"1261";"2015-02-12 13:46:13.505";"NST_correctLoc";"17";"1";"FINISHED";"RIGHT";"success";"565";"0";"2015-02-12 13:46:12.241";"2";;;;;;;;;;;;;;;;;;;;;;;;;;;;;;;;;
"C1307286";;;"Windows 7";"Rachel's Experiment (DP)";"1.0";"3";"1";"1";"3";"1";"1";"2015-02-12 13:40:29.712";"2015-02-12 13:55:54.824";"1";"1";"1";"97";"96";"module.training_block3.exec-1117.GoNoGo3";;;;;;;;;;;;;;;;;;;;;;;;;;;;;;;;;;;;;;;;;;;;;;;"1261";"2015-02-12 13:46:16.048";"NST_correctLoc";"29";"1";"FINISHED";"RIGHT";"success";"734";"0";"2015-02-12 13:46:14.784";"3";;;;;;;;;;;;;;;;;;;;;;;;;;;;;;;;;
"C1307286";;;"Windows 7";"Rachel's Experiment (DP)";"1.0";"3";"1";"1";"3";"1";"1";"2015-02-12 13:40:29.712";"2015-02-12 13:55:54.824";"1";"1";"1";"98";"97";"module.training_block3.exec-1117.GoNoGo3";;;;;;;;;;;;;;;;;;;;;;;;;;;;;;;;;;;;;;;;;;;;;;;"1261";"2015-02-12 13:46:18.591";"ST_correctStop";"28";"1";"FINISHED";"NONE";"success";"0";"1";"2015-02-12 13:46:17.327";"3";;;;;;;;;;;;;;;;;;;;;;;;;;;;;;;;;
"C1307286";;;"Windows 7";"Rachel's Experiment (DP)";"1.0";"3";"1";"1";"3";"1";"1";"2015-02-12 13:40:29.712";"2015-02-12 13:55:54.824";"1";"1";"1";"99";"98";"module.training_block3.exec-1117.GoNoGo3";;;;;;;;;;;;;;;;;;;;;;;;;;;;;;;;;;;;;;;;;;;;;;;"1261";"2015-02-12 13:46:21.133";"NST_correctLoc";"33";"0";"FINISHED";"LEFT";"success";"600";"0";"2015-02-12 13:46:19.870";"3";;;;;;;;;;;;;;;;;;;;;;;;;;;;;;;;;
"C1307286";;;"Windows 7";"Rachel's Experiment (DP)";"1.0";"3";"1";"1";"3";"1";"1";"2015-02-12 13:40:29.712";"2015-02-12 13:55:54.824";"1";"1";"1";"100";"99";"module.training_block3.exec-1117.GoNoGo3";;;;;;;;;;;;;;;;;;;;;;;;;;;;;;;;;;;;;;;;;;;;;;;"1261";"2015-02-12 13:46:23.676";"ST_correctStop";"26";"0";"FINISHED";"NONE";"success";"0";"1";"2015-02-12 13:46:22.413";"3";;;;;;;;;;;;;;;;;;;;;;;;;;;;;;;;;
"C1307286";;;"Windows 7";"Rachel's Experiment (DP)";"1.0";"3";"1";"1";"3";"1";"1";"2015-02-12 13:40:29.712";"2015-02-12 13:55:54.824";"1";"1";"1";"101";"100";"module.training_block3.exec-1117.GoNoGo3";;;;;;;;;;;;;;;;;;;;;;;;;;;;;;;;;;;;;;;;;;;;;;;"1262";"2015-02-12 13:46:26.219";"NST_correctLoc";"23";"0";"FINISHED";"LEFT";"success";"923";"0";"2015-02-12 13:46:24.955";"3";;;;;;;;;;;;;;;;;;;;;;;;;;;;;;;;;
"C1307286";;;"Windows 7";"Rachel's Experiment (DP)";"1.0";"3";"1";"1";"3";"1";"1";"2015-02-12 13:40:29.712";"2015-02-12 13:55:54.824";"1";"1";"1";"102";"101";"module.training_block3.exec-1117.GoNoGo3";;;;;;;;;;;;;;;;;;;;;;;;;;;;;;;;;;;;;;;;;;;;;;;"1262";"2015-02-12 13:46:28.762";"NST_correctLoc";"18";"1";"FINISHED";"RIGHT";"success";"604";"0";"2015-02-12 13:46:27.498";"3";;;;;;;;;;;;;;;;;;;;;;;;;;;;;;;;;
"C1307286";;;"Windows 7";"Rachel's Experiment (DP)";"1.0";"3";"1";"1";"3";"1";"1";"2015-02-12 13:40:29.712";"2015-02-12 13:55:54.824";"1";"1";"1";"103";"102";"module.training_block3.exec-1117.GoNoGo3";;;;;;;;;;;;;;;;;;;;;;;;;;;;;;;;;;;;;;;;;;;;;;;"1262";"2015-02-12 13:46:31.305";"NST_correctLoc";"16";"1";"FINISHED";"RIGHT";"success";"565";"0";"2015-02-12 13:46:30.041";"2";;;;;;;;;;;;;;;;;;;;;;;;;;;;;;;;;
"C1307286";;;"Windows 7";"Rachel's Experiment (DP)";"1.0";"3";"1";"1";"3";"1";"1";"2015-02-12 13:40:29.712";"2015-02-12 13:55:54.824";"1";"1";"1";"104";"103";"module.training_block3.exec-1117.GoNoGo3";;;;;;;;;;;;;;;;;;;;;;;;;;;;;;;;;;;;;;;;;;;;;;;"1262";"2015-02-12 13:46:33.847";"ST_correctStop";"0";"1";"FINISHED";"NONE";"success";"0";"1";"2015-02-12 13:46:32.584";"1";;;;;;;;;;;;;;;;;;;;;;;;;;;;;;;;;
"C1307286";;;"Windows 7";"Rachel's Experiment (DP)";"1.0";"3";"1";"1";"3";"1";"1";"2015-02-12 13:40:29.712";"2015-02-12 13:55:54.824";"1";"1";"1";"105";"104";"module.training_block3.exec-1117.GoNoGo3";;;;;;;;;;;;;;;;;;;;;;;;;;;;;;;;;;;;;;;;;;;;;;;"1261";"2015-02-12 13:46:36.390";"ST_correctStop";"20";"0";"FINISHED";"NONE";"success";"0";"1";"2015-02-12 13:46:35.127";"3";;;;;;;;;;;;;;;;;;;;;;;;;;;;;;;;;
"C1307286";;;"Windows 7";"Rachel's Experiment (DP)";"1.0";"3";"1";"1";"3";"1";"1";"2015-02-12 13:40:29.712";"2015-02-12 13:55:54.824";"1";"1";"1";"106";"105";"module.training_block3.exec-1117.GoNoGo3";;;;;;;;;;;;;;;;;;;;;;;;;;;;;;;;;;;;;;;;;;;;;;;"1261";"2015-02-12 13:46:38.933";"ST_correctStop";"31";"0";"FINISHED";"NONE";"success";"0";"1";"2015-02-12 13:46:37.669";"3";;;;;;;;;;;;;;;;;;;;;;;;;;;;;;;;;
"C1307286";;;"Windows 7";"Rachel's Experiment (DP)";"1.0";"3";"1";"1";"3";"1";"1";"2015-02-12 13:40:29.712";"2015-02-12 13:55:54.824";"1";"1";"1";"107";"106";"module.training_block3.exec-1117.GoNoGo3";;;;;;;;;;;;;;;;;;;;;;;;;;;;;;;;;;;;;;;;;;;;;;;"1262";"2015-02-12 13:46:41.476";"ST_correctStop";"2";"0";"FINISHED";"NONE";"success";"0";"1";"2015-02-12 13:46:40.212";"1";;;;;;;;;;;;;;;;;;;;;;;;;;;;;;;;;
"C1307286";;;"Windows 7";"Rachel's Experiment (DP)";"1.0";"3";"1";"1";"3";"1";"1";"2015-02-12 13:40:29.712";"2015-02-12 13:55:54.824";"1";"1";"1";"108";"107";"module.training_block3.exec-1117.GoNoGo3";;;;;;;;;;;;;;;;;;;;;;;;;;;;;;;;;;;;;;;;;;;;;;;"1261";"2015-02-12 13:46:44.019";"ST_correctStop";"3";"1";"FINISHED";"NONE";"success";"0";"1";"2015-02-12 13:46:42.755";"1";;;;;;;;;;;;;;;;;;;;;;;;;;;;;;;;;
"C1307286";;;"Windows 7";"Rachel's Experiment (DP)";"1.0";"3";"1";"1";"3";"1";"1";"2015-02-12 13:40:29.712";"2015-02-12 13:55:54.824";"1";"1";"1";"109";"108";"module.training_block3.exec-1117.GoNoGo3";;;;;;;;;;;;;;;;;;;;;;;;;;;;;;;;;;;;;;;;;;;;;;;"1262";"2015-02-12 13:46:46.561";"ST_correctStop";"4";"1";"FINISHED";"NONE";"success";"0";"1";"2015-02-12 13:46:45.298";"1";;;;;;;;;;;;;;;;;;;;;;;;;;;;;;;;;
"C1307286";;;"Windows 7";"Rachel's Experiment (DP)";"1.0";"3";"1";"1";"3";"1";"1";"2015-02-12 13:40:29.712";"2015-02-12 13:55:54.824";"1";"1";"1";"110";"109";"module.training_block3.exec-1117.GoNoGo3";;;;;;;;;;;;;;;;;;;;;;;;;;;;;;;;;;;;;;;;;;;;;;;"1262";"2015-02-12 13:46:49.104";"NST_correctLoc";"27";"0";"FINISHED";"LEFT";"success";"653";"0";"2015-02-12 13:46:47.841";"3";;;;;;;;;;;;;;;;;;;;;;;;;;;;;;;;;
"C1307286";;;"Windows 7";"Rachel's Experiment (DP)";"1.0";"3";"1";"1";"3";"1";"1";"2015-02-12 13:40:29.712";"2015-02-12 13:55:54.824";"1";"1";"1";"111";"110";"module.training_block3.exec-1117.GoNoGo3";;;;;;;;;;;;;;;;;;;;;;;;;;;;;;;;;;;;;;;;;;;;;;;"1261";"2015-02-12 13:46:51.647";"NST_correctLoc";"14";"0";"FINISHED";"LEFT";"success";"503";"0";"2015-02-12 13:46:50.383";"2";;;;;;;;;;;;;;;;;;;;;;;;;;;;;;;;;
"C1307286";;;"Windows 7";"Rachel's Experiment (DP)";"1.0";"3";"1";"1";"3";"1";"1";"2015-02-12 13:40:29.712";"2015-02-12 13:55:54.824";"1";"1";"1";"112";"111";"module.training_block3.exec-1117.GoNoGo3";;;;;;;;;;;;;;;;;;;;;;;;;;;;;;;;;;;;;;;;;;;;;;;"1261";"2015-02-12 13:46:54.190";"NST_correctLoc";"12";"0";"FINISHED";"LEFT";"success";"400";"0";"2015-02-12 13:46:52.926";"2";;;;;;;;;;;;;;;;;;;;;;;;;;;;;;;;;
"C1307286";;;"Windows 7";"Rachel's Experiment (DP)";"1.0";"3";"1";"1";"3";"1";"1";"2015-02-12 13:40:29.712";"2015-02-12 13:55:54.824";"1";"1";"1";"113";"112";"module.training_block3.exec-1117.GoNoGo3";;;;;;;;;;;;;;;;;;;;;;;;;;;;;;;;;;;;;;;;;;;;;;;"1261";"2015-02-12 13:46:56.733";"ST_correctStop";"6";"0";"FINISHED";"NONE";"success";"0";"1";"2015-02-12 13:46:55.469";"1";;;;;;;;;;;;;;;;;;;;;;;;;;;;;;;;;
"C1307286";;;"Windows 7";"Rachel's Experiment (DP)";"1.0";"3";"1";"1";"3";"1";"1";"2015-02-12 13:40:29.712";"2015-02-12 13:55:54.824";"1";"1";"1";"114";"113";"module.training_block3.exec-1117.GoNoGo3";;;;;;;;;;;;;;;;;;;;;;;;;;;;;;;;;;;;;;;;;;;;;;;"1261";"2015-02-12 13:46:59.291";"ST_correctStop";"8";"0";"FINISHED";"NONE";"success";"0";"1";"2015-02-12 13:46:58.027";"1";;;;;;;;;;;;;;;;;;;;;;;;;;;;;;;;;
"C1307286";;;"Windows 7";"Rachel's Experiment (DP)";"1.0";"3";"1";"1";"3";"1";"1";"2015-02-12 13:40:29.712";"2015-02-12 13:55:54.824";"1";"1";"1";"115";"114";"module.training_block3.exec-1117.GoNoGo3";;;;;;;;;;;;;;;;;;;;;;;;;;;;;;;;;;;;;;;;;;;;;;;"1261";"2015-02-12 13:47:01.834";"NST_correctLoc";"11";"0";"FINISHED";"LEFT";"success";"596";"0";"2015-02-12 13:47:00.570";"2";;;;;;;;;;;;;;;;;;;;;;;;;;;;;;;;;
"C1307286";;;"Windows 7";"Rachel's Experiment (DP)";"1.0";"3";"1";"1";"3";"1";"1";"2015-02-12 13:40:29.712";"2015-02-12 13:55:54.824";"1";"1";"1";"116";"115";"module.training_block3.exec-1117.GoNoGo3";;;;;;;;;;;;;;;;;;;;;;;;;;;;;;;;;;;;;;;;;;;;;;;"1262";"2015-02-12 13:47:04.377";"NST_correctLoc";"9";"0";"FINISHED";"LEFT";"success";"597";"0";"2015-02-12 13:47:03.113";"2";;;;;;;;;;;;;;;;;;;;;;;;;;;;;;;;;
"C1307286";;;"Windows 7";"Rachel's Experiment (DP)";"1.0";"3";"1";"1";"3";"1";"1";"2015-02-12 13:40:29.712";"2015-02-12 13:55:54.824";"1";"1";"1";"117";"116";"module.training_block3.exec-1117.GoNoGo3";;;;;;;;;;;;;;;;;;;;;;;;;;;;;;;;;;;;;;;;;;;;;;;"1262";"2015-02-12 13:47:06.920";"ST_correctStop";"19";"0";"FINISHED";"NONE";"success";"0";"1";"2015-02-12 13:47:05.656";"3";;;;;;;;;;;;;;;;;;;;;;;;;;;;;;;;;
"C1307286";;;"Windows 7";"Rachel's Experiment (DP)";"1.0";"3";"1";"1";"3";"1";"1";"2015-02-12 13:40:29.712";"2015-02-12 13:55:54.824";"1";"1";"1";"118";"117";"module.training_block3.exec-1117.GoNoGo3";;;;;;;;;;;;;;;;;;;;;;;;;;;;;;;;;;;;;;;;;;;;;;;"1262";"2015-02-12 13:47:09.462";"NST_correctLoc";"13";"1";"FINISHED";"RIGHT";"success";"583";"0";"2015-02-12 13:47:08.199";"2";;;;;;;;;;;;;;;;;;;;;;;;;;;;;;;;;
"C1307286";;;"Windows 7";"Rachel's Experiment (DP)";"1.0";"3";"1";"1";"3";"1";"1";"2015-02-12 13:40:29.712";"2015-02-12 13:55:54.824";"1";"1";"1";"119";"118";"module.training_block3.exec-1117.GoNoGo3";;;;;;;;;;;;;;;;;;;;;;;;;;;;;;;;;;;;;;;;;;;;;;;"1261";"2015-02-12 13:47:12.005";"NST_correctLoc";"21";"0";"FINISHED";"LEFT";"success";"408";"0";"2015-02-12 13:47:10.742";"3";;;;;;;;;;;;;;;;;;;;;;;;;;;;;;;;;
"C1307286";;;"Windows 7";"Rachel's Experiment (DP)";"1.0";"3";"1";"1";"3";"1";"1";"2015-02-12 13:40:29.712";"2015-02-12 13:55:54.824";"1";"1";"1";"120";"119";"module.training_block3.exec-1117.GoNoGo3";;;;;;;;;;;;;;;;;;;;;;;;;;;;;;;;;;;;;;;;;;;;;;;"1261";"2015-02-12 13:47:14.548";"ST_correctStop";"1";"1";"FINISHED";"NONE";"success";"0";"1";"2015-02-12 13:47:13.284";"1";;;;;;;;;;;;;;;;;;;;;;;;;;;;;;;;;
"C1307286";;;"Windows 7";"Rachel's Experiment (DP)";"1.0";"3";"1";"1";"3";"1";"1";"2015-02-12 13:40:29.712";"2015-02-12 13:55:54.824";"1";"1";"1";"121";"120";"module.training_block3.exec-1117.GoNoGo3";;;;;;;;;;;;;;;;;;;;;;;;;;;;;;;;;;;;;;;;;;;;;;;"1261";"2015-02-12 13:47:17.106";"NST_correctLoc";"32";"0";"FINISHED";"LEFT";"success";"459";"0";"2015-02-12 13:47:15.843";"3";;;;;;;;;;;;;;;;;;;;;;;;;;;;;;;;;
"C1307286";;;"Windows 7";"Rachel's Experiment (DP)";"1.0";"3";"1";"1";"3";"1";"1";"2015-02-12 13:40:29.712";"2015-02-12 13:55:54.824";"1";"1";"1";"122";"121";"module.training_block3.exec-1117.GoNoGo3";;;;;;;;;;;;;;;;;;;;;;;;;;;;;;;;;;;;;;;;;;;;;;;"1261";"2015-02-12 13:47:19.649";"NST_correctLoc";"35";"1";"FINISHED";"RIGHT";"success";"564";"0";"2015-02-12 13:47:18.386";"3";;;;;;;;;;;;;;;;;;;;;;;;;;;;;;;;;
"C1307286";;;"Windows 7";"Rachel's Experiment (DP)";"1.0";"3";"1";"1";"3";"1";"1";"2015-02-12 13:40:29.712";"2015-02-12 13:55:54.824";"1";"1";"1";"123";"122";"module.training_block3.exec-1117.GoNoGo3";;;;;;;;;;;;;;;;;;;;;;;;;;;;;;;;;;;;;;;;;;;;;;;"1262";"2015-02-12 13:47:22.208";"ST_correctStop";"22";"1";"FINISHED";"NONE";"success";"0";"1";"2015-02-12 13:47:20.944";"3";;;;;;;;;;;;;;;;;;;;;;;;;;;;;;;;;
"C1307286";;;"Windows 7";"Rachel's Experiment (DP)";"1.0";"3";"1";"1";"3";"1";"1";"2015-02-12 13:40:29.712";"2015-02-12 13:55:54.824";"1";"1";"1";"124";"123";"module.training_block4.exec-4833.GoNoGo4";;;;;;;;;;;;;;;;;;;;;;;;;;;;;;;;;;;;;;;;;;;;;;;;;;;;;;;;;;;"1261";"2015-02-12 13:48:49.412";"ST_correctStop";"20";"1";"FINISHED";"NONE";"success";"0";"1";"2015-02-12 13:48:48.148";"3";;;;;;;;;;;;;;;;;;;;;
"C1307286";;;"Windows 7";"Rachel's Experiment (DP)";"1.0";"3";"1";"1";"3";"1";"1";"2015-02-12 13:40:29.712";"2015-02-12 13:55:54.824";"1";"1";"1";"125";"124";"module.training_block4.exec-4833.GoNoGo4";;;;;;;;;;;;;;;;;;;;;;;;;;;;;;;;;;;;;;;;;;;;;;;;;;;;;;;;;;;"1262";"2015-02-12 13:48:51.954";"ST_correctStop";"7";"0";"FINISHED";"NONE";"success";"0";"1";"2015-02-12 13:48:50.691";"1";;;;;;;;;;;;;;;;;;;;;
"C1307286";;;"Windows 7";"Rachel's Experiment (DP)";"1.0";"3";"1";"1";"3";"1";"1";"2015-02-12 13:40:29.712";"2015-02-12 13:55:54.824";"1";"1";"1";"126";"125";"module.training_block4.exec-4833.GoNoGo4";;;;;;;;;;;;;;;;;;;;;;;;;;;;;;;;;;;;;;;;;;;;;;;;;;;;;;;;;;;"1261";"2015-02-12 13:48:54.497";"NST_correctLoc";"16";"0";"FINISHED";"LEFT";"success";"1075";"0";"2015-02-12 13:48:53.234";"2";;;;;;;;;;;;;;;;;;;;;
"C1307286";;;"Windows 7";"Rachel's Experiment (DP)";"1.0";"3";"1";"1";"3";"1";"1";"2015-02-12 13:40:29.712";"2015-02-12 13:55:54.824";"1";"1";"1";"127";"126";"module.training_block4.exec-4833.GoNoGo4";;;;;;;;;;;;;;;;;;;;;;;;;;;;;;;;;;;;;;;;;;;;;;;;;;;;;;;;;;;"1261";"2015-02-12 13:48:57.056";"ST_correctStop";"3";"1";"FINISHED";"NONE";"success";"0";"1";"2015-02-12 13:48:55.792";"1";;;;;;;;;;;;;;;;;;;;;
"C1307286";;;"Windows 7";"Rachel's Experiment (DP)";"1.0";"3";"1";"1";"3";"1";"1";"2015-02-12 13:40:29.712";"2015-02-12 13:55:54.824";"1";"1";"1";"128";"127";"module.training_block4.exec-4833.GoNoGo4";;;;;;;;;;;;;;;;;;;;;;;;;;;;;;;;;;;;;;;;;;;;;;;;;;;;;;;;;;;"1261";"2015-02-12 13:48:59.599";"NST_correctLoc";"18";"1";"FINISHED";"RIGHT";"success";"686";"0";"2015-02-12 13:48:58.335";"3";;;;;;;;;;;;;;;;;;;;;
"C1307286";;;"Windows 7";"Rachel's Experiment (DP)";"1.0";"3";"1";"1";"3";"1";"1";"2015-02-12 13:40:29.712";"2015-02-12 13:55:54.824";"1";"1";"1";"129";"128";"module.training_block4.exec-4833.GoNoGo4";;;;;;;;;;;;;;;;;;;;;;;;;;;;;;;;;;;;;;;;;;;;;;;;;;;;;;;;;;;"1262";"2015-02-12 13:49:02.157";"NST_correctLoc";"24";"1";"FINISHED";"RIGHT";"success";"648";"0";"2015-02-12 13:49:00.893";"3";;;;;;;;;;;;;;;;;;;;;
"C1307286";;;"Windows 7";"Rachel's Experiment (DP)";"1.0";"3";"1";"1";"3";"1";"1";"2015-02-12 13:40:29.712";"2015-02-12 13:55:54.824";"1";"1";"1";"130";"129";"module.training_block4.exec-4833.GoNoGo4";;;;;;;;;;;;;;;;;;;;;;;;;;;;;;;;;;;;;;;;;;;;;;;;;;;;;;;;;;;"1257";"2015-02-12 13:49:04.700";"NST_correctLoc";"30";"1";"FINISHED";"RIGHT";"success";"573";"0";"2015-02-12 13:49:03.436";"3";;;;;;;;;;;;;;;;;;;;;
"C1307286";;;"Windows 7";"Rachel's Experiment (DP)";"1.0";"3";"1";"1";"3";"1";"1";"2015-02-12 13:40:29.712";"2015-02-12 13:55:54.824";"1";"1";"1";"131";"130";"module.training_block4.exec-4833.GoNoGo4";;;;;;;;;;;;;;;;;;;;;;;;;;;;;;;;;;;;;;;;;;;;;;;;;;;;;;;;;;;"1261";"2015-02-12 13:49:07.243";"ST_correctStop";"6";"1";"FINISHED";"NONE";"success";"0";"1";"2015-02-12 13:49:05.979";"1";;;;;;;;;;;;;;;;;;;;;
"C1307286";;;"Windows 7";"Rachel's Experiment (DP)";"1.0";"3";"1";"1";"3";"1";"1";"2015-02-12 13:40:29.712";"2015-02-12 13:55:54.824";"1";"1";"1";"132";"131";"module.training_block4.exec-4833.GoNoGo4";;;;;;;;;;;;;;;;;;;;;;;;;;;;;;;;;;;;;;;;;;;;;;;;;;;;;;;;;;;"1261";"2015-02-12 13:49:09.785";"ST_correctStop";"29";"1";"FINISHED";"NONE";"success";"0";"1";"2015-02-12 13:49:08.522";"3";;;;;;;;;;;;;;;;;;;;;
"C1307286";;;"Windows 7";"Rachel's Experiment (DP)";"1.0";"3";"1";"1";"3";"1";"1";"2015-02-12 13:40:29.712";"2015-02-12 13:55:54.824";"1";"1";"1";"133";"132";"module.training_block4.exec-4833.GoNoGo4";;;;;;;;;;;;;;;;;;;;;;;;;;;;;;;;;;;;;;;;;;;;;;;;;;;;;;;;;;;"1262";"2015-02-12 13:49:12.328";"NST_correctLoc";"32";"1";"FINISHED";"RIGHT";"success";"573";"0";"2015-02-12 13:49:11.065";"3";;;;;;;;;;;;;;;;;;;;;
"C1307286";;;"Windows 7";"Rachel's Experiment (DP)";"1.0";"3";"1";"1";"3";"1";"1";"2015-02-12 13:40:29.712";"2015-02-12 13:55:54.824";"1";"1";"1";"134";"133";"module.training_block4.exec-4833.GoNoGo4";;;;;;;;;;;;;;;;;;;;;;;;;;;;;;;;;;;;;;;;;;;;;;;;;;;;;;;;;;;"1261";"2015-02-12 13:49:14.855";"NST_correctLoc";"31";"0";"FINISHED";"LEFT";"success";"469";"0";"2015-02-12 13:49:13.592";"3";;;;;;;;;;;;;;;;;;;;;
"C1307286";;;"Windows 7";"Rachel's Experiment (DP)";"1.0";"3";"1";"1";"3";"1";"1";"2015-02-12 13:40:29.712";"2015-02-12 13:55:54.824";"1";"1";"1";"135";"134";"module.training_block4.exec-4833.GoNoGo4";;;;;;;;;;;;;;;;;;;;;;;;;;;;;;;;;;;;;;;;;;;;;;;;;;;;;;;;;;;"1262";"2015-02-12 13:49:17.398";"NST_correctLoc";"21";"0";"FINISHED";"LEFT";"success";"471";"0";"2015-02-12 13:49:16.135";"3";;;;;;;;;;;;;;;;;;;;;
"C1307286";;;"Windows 7";"Rachel's Experiment (DP)";"1.0";"3";"1";"1";"3";"1";"1";"2015-02-12 13:40:29.712";"2015-02-12 13:55:54.824";"1";"1";"1";"136";"135";"module.training_block4.exec-4833.GoNoGo4";;;;;;;;;;;;;;;;;;;;;;;;;;;;;;;;;;;;;;;;;;;;;;;;;;;;;;;;;;;"1261";"2015-02-12 13:49:19.957";"NST_correctLoc";"12";"1";"FINISHED";"RIGHT";"success";"504";"0";"2015-02-12 13:49:18.693";"2";;;;;;;;;;;;;;;;;;;;;
"C1307286";;;"Windows 7";"Rachel's Experiment (DP)";"1.0";"3";"1";"1";"3";"1";"1";"2015-02-12 13:40:29.712";"2015-02-12 13:55:54.824";"1";"1";"1";"137";"136";"module.training_block4.exec-4833.GoNoGo4";;;;;;;;;;;;;;;;;;;;;;;;;;;;;;;;;;;;;;;;;;;;;;;;;;;;;;;;;;;"1262";"2015-02-12 13:49:22.484";"ST_correctStop";"5";"0";"FINISHED";"NONE";"success";"0";"1";"2015-02-12 13:49:21.220";"1";;;;;;;;;;;;;;;;;;;;;
"C1307286";;;"Windows 7";"Rachel's Experiment (DP)";"1.0";"3";"1";"1";"3";"1";"1";"2015-02-12 13:40:29.712";"2015-02-12 13:55:54.824";"1";"1";"1";"138";"137";"module.training_block4.exec-4833.GoNoGo4";;;;;;;;;;;;;;;;;;;;;;;;;;;;;;;;;;;;;;;;;;;;;;;;;;;;;;;;;;;"1262";"2015-02-12 13:49:25.027";"NST_correctLoc";"9";"1";"FINISHED";"RIGHT";"success";"562";"0";"2015-02-12 13:49:23.763";"2";;;;;;;;;;;;;;;;;;;;;
"C1307286";;;"Windows 7";"Rachel's Experiment (DP)";"1.0";"3";"1";"1";"3";"1";"1";"2015-02-12 13:40:29.712";"2015-02-12 13:55:54.824";"1";"1";"1";"139";"138";"module.training_block4.exec-4833.GoNoGo4";;;;;;;;;;;;;;;;;;;;;;;;;;;;;;;;;;;;;;;;;;;;;;;;;;;;;;;;;;;"1261";"2015-02-12 13:49:27.554";"ST_correctStop";"23";"1";"FINISHED";"NONE";"success";"0";"1";"2015-02-12 13:49:26.290";"3";;;;;;;;;;;;;;;;;;;;;
"C1307286";;;"Windows 7";"Rachel's Experiment (DP)";"1.0";"3";"1";"1";"3";"1";"1";"2015-02-12 13:40:29.712";"2015-02-12 13:55:54.824";"1";"1";"1";"140";"139";"module.training_block4.exec-4833.GoNoGo4";;;;;;;;;;;;;;;;;;;;;;;;;;;;;;;;;;;;;;;;;;;;;;;;;;;;;;;;;;;"1261";"2015-02-12 13:49:30.097";"ST_correctStop";"25";"1";"FINISHED";"NONE";"success";"0";"1";"2015-02-12 13:49:28.833";"3";;;;;;;;;;;;;;;;;;;;;
"C1307286";;;"Windows 7";"Rachel's Experiment (DP)";"1.0";"3";"1";"1";"3";"1";"1";"2015-02-12 13:40:29.712";"2015-02-12 13:55:54.824";"1";"1";"1";"141";"140";"module.training_block4.exec-4833.GoNoGo4";;;;;;;;;;;;;;;;;;;;;;;;;;;;;;;;;;;;;;;;;;;;;;;;;;;;;;;;;;;"1261";"2015-02-12 13:49:32.624";"ST_correctStop";"28";"1";"FINISHED";"NONE";"success";"0";"1";"2015-02-12 13:49:31.360";"3";;;;;;;;;;;;;;;;;;;;;
"C1307286";;;"Windows 7";"Rachel's Experiment (DP)";"1.0";"3";"1";"1";"3";"1";"1";"2015-02-12 13:40:29.712";"2015-02-12 13:55:54.824";"1";"1";"1";"142";"141";"module.training_block4.exec-4833.GoNoGo4";;;;;;;;;;;;;;;;;;;;;;;;;;;;;;;;;;;;;;;;;;;;;;;;;;;;;;;;;;;"1261";"2015-02-12 13:49:35.167";"ST_correctStop";"4";"0";"FINISHED";"NONE";"success";"0";"1";"2015-02-12 13:49:33.903";"1";;;;;;;;;;;;;;;;;;;;;
"C1307286";;;"Windows 7";"Rachel's Experiment (DP)";"1.0";"3";"1";"1";"3";"1";"1";"2015-02-12 13:40:29.712";"2015-02-12 13:55:54.824";"1";"1";"1";"143";"142";"module.training_block4.exec-4833.GoNoGo4";;;;;;;;;;;;;;;;;;;;;;;;;;;;;;;;;;;;;;;;;;;;;;;;;;;;;;;;;;;"1262";"2015-02-12 13:49:37.694";"ST_correctStop";"2";"0";"FINISHED";"NONE";"success";"0";"1";"2015-02-12 13:49:36.430";"1";;;;;;;;;;;;;;;;;;;;;
"C1307286";;;"Windows 7";"Rachel's Experiment (DP)";"1.0";"3";"1";"1";"3";"1";"1";"2015-02-12 13:40:29.712";"2015-02-12 13:55:54.824";"1";"1";"1";"144";"143";"module.training_block4.exec-4833.GoNoGo4";;;;;;;;;;;;;;;;;;;;;;;;;;;;;;;;;;;;;;;;;;;;;;;;;;;;;;;;;;;"1261";"2015-02-12 13:49:40.221";"NST_correctLoc";"14";"0";"FINISHED";"LEFT";"success";"720";"0";"2015-02-12 13:49:38.957";"2";;;;;;;;;;;;;;;;;;;;;
"C1307286";;;"Windows 7";"Rachel's Experiment (DP)";"1.0";"3";"1";"1";"3";"1";"1";"2015-02-12 13:40:29.712";"2015-02-12 13:55:54.824";"1";"1";"1";"145";"144";"module.training_block4.exec-4833.GoNoGo4";;;;;;;;;;;;;;;;;;;;;;;;;;;;;;;;;;;;;;;;;;;;;;;;;;;;;;;;;;;"1261";"2015-02-12 13:49:42.764";"NST_correctLoc";"27";"0";"FINISHED";"LEFT";"success";"729";"0";"2015-02-12 13:49:41.500";"3";;;;;;;;;;;;;;;;;;;;;
"C1307286";;;"Windows 7";"Rachel's Experiment (DP)";"1.0";"3";"1";"1";"3";"1";"1";"2015-02-12 13:40:29.712";"2015-02-12 13:55:54.824";"1";"1";"1";"146";"145";"module.training_block4.exec-4833.GoNoGo4";;;;;;;;;;;;;;;;;;;;;;;;;;;;;;;;;;;;;;;;;;;;;;;;;;;;;;;;;;;"1262";"2015-02-12 13:49:45.322";"NST_correctLoc";"11";"1";"FINISHED";"RIGHT";"success";"410";"0";"2015-02-12 13:49:44.059";"2";;;;;;;;;;;;;;;;;;;;;
"C1307286";;;"Windows 7";"Rachel's Experiment (DP)";"1.0";"3";"1";"1";"3";"1";"1";"2015-02-12 13:40:29.712";"2015-02-12 13:55:54.824";"1";"1";"1";"147";"146";"module.training_block4.exec-4833.GoNoGo4";;;;;;;;;;;;;;;;;;;;;;;;;;;;;;;;;;;;;;;;;;;;;;;;;;;;;;;;;;;"1262";"2015-02-12 13:49:47.865";"NST_correctLoc";"22";"0";"FINISHED";"LEFT";"success";"556";"0";"2015-02-12 13:49:46.601";"3";;;;;;;;;;;;;;;;;;;;;
"C1307286";;;"Windows 7";"Rachel's Experiment (DP)";"1.0";"3";"1";"1";"3";"1";"1";"2015-02-12 13:40:29.712";"2015-02-12 13:55:54.824";"1";"1";"1";"148";"147";"module.training_block4.exec-4833.GoNoGo4";;;;;;;;;;;;;;;;;;;;;;;;;;;;;;;;;;;;;;;;;;;;;;;;;;;;;;;;;;;"1261";"2015-02-12 13:49:50.408";"NST_correctLoc";"15";"0";"FINISHED";"LEFT";"success";"557";"0";"2015-02-12 13:49:49.144";"2";;;;;;;;;;;;;;;;;;;;;
"C1307286";;;"Windows 7";"Rachel's Experiment (DP)";"1.0";"3";"1";"1";"3";"1";"1";"2015-02-12 13:40:29.712";"2015-02-12 13:55:54.824";"1";"1";"1";"149";"148";"module.training_block4.exec-4833.GoNoGo4";;;;;;;;;;;;;;;;;;;;;;;;;;;;;;;;;;;;;;;;;;;;;;;;;;;;;;;;;;;"1262";"2015-02-12 13:49:52.935";"ST_correctStop";"35";"0";"FINISHED";"NONE";"success";"0";"1";"2015-02-12 13:49:51.671";"3";;;;;;;;;;;;;;;;;;;;;
"C1307286";;;"Windows 7";"Rachel's Experiment (DP)";"1.0";"3";"1";"1";"3";"1";"1";"2015-02-12 13:40:29.712";"2015-02-12 13:55:54.824";"1";"1";"1";"150";"149";"module.training_block4.exec-4833.GoNoGo4";;;;;;;;;;;;;;;;;;;;;;;;;;;;;;;;;;;;;;;;;;;;;;;;;;;;;;;;;;;"1261";"2015-02-12 13:49:55.478";"ST_correctStop";"26";"0";"FINISHED";"NONE";"success";"0";"1";"2015-02-12 13:49:54.214";"3";;;;;;;;;;;;;;;;;;;;;
"C1307286";;;"Windows 7";"Rachel's Experiment (DP)";"1.0";"3";"1";"1";"3";"1";"1";"2015-02-12 13:40:29.712";"2015-02-12 13:55:54.824";"1";"1";"1";"151";"150";"module.training_block4.exec-4833.GoNoGo4";;;;;;;;;;;;;;;;;;;;;;;;;;;;;;;;;;;;;;;;;;;;;;;;;;;;;;;;;;;"1262";"2015-02-12 13:49:58.005";"ST_correctStop";"34";"0";"FINISHED";"NONE";"success";"0";"1";"2015-02-12 13:49:56.741";"3";;;;;;;;;;;;;;;;;;;;;
"C1307286";;;"Windows 7";"Rachel's Experiment (DP)";"1.0";"3";"1";"1";"3";"1";"1";"2015-02-12 13:40:29.712";"2015-02-12 13:55:54.824";"1";"1";"1";"152";"151";"module.training_block4.exec-4833.GoNoGo4";;;;;;;;;;;;;;;;;;;;;;;;;;;;;;;;;;;;;;;;;;;;;;;;;;;;;;;;;;;"1261";"2015-02-12 13:50:00.548";"NST_correctLoc";"10";"1";"FINISHED";"RIGHT";"success";"521";"0";"2015-02-12 13:49:59.284";"2";;;;;;;;;;;;;;;;;;;;;
"C1307286";;;"Windows 7";"Rachel's Experiment (DP)";"1.0";"3";"1";"1";"3";"1";"1";"2015-02-12 13:40:29.712";"2015-02-12 13:55:54.824";"1";"1";"1";"153";"152";"module.training_block4.exec-4833.GoNoGo4";;;;;;;;;;;;;;;;;;;;;;;;;;;;;;;;;;;;;;;;;;;;;;;;;;;;;;;;;;;"1262";"2015-02-12 13:50:03.106";"ST_correctStop";"0";"1";"FINISHED";"NONE";"success";"0";"1";"2015-02-12 13:50:01.843";"1";;;;;;;;;;;;;;;;;;;;;
"C1307286";;;"Windows 7";"Rachel's Experiment (DP)";"1.0";"3";"1";"1";"3";"1";"1";"2015-02-12 13:40:29.712";"2015-02-12 13:55:54.824";"1";"1";"1";"154";"153";"module.training_block4.exec-4833.GoNoGo4";;;;;;;;;;;;;;;;;;;;;;;;;;;;;;;;;;;;;;;;;;;;;;;;;;;;;;;;;;;"1262";"2015-02-12 13:50:05.649";"ST_correctStop";"1";"0";"FINISHED";"NONE";"success";"0";"1";"2015-02-12 13:50:04.385";"1";;;;;;;;;;;;;;;;;;;;;
"C1307286";;;"Windows 7";"Rachel's Experiment (DP)";"1.0";"3";"1";"1";"3";"1";"1";"2015-02-12 13:40:29.712";"2015-02-12 13:55:54.824";"1";"1";"1";"155";"154";"module.training_block4.exec-4833.GoNoGo4";;;;;;;;;;;;;;;;;;;;;;;;;;;;;;;;;;;;;;;;;;;;;;;;;;;;;;;;;;;"1261";"2015-02-12 13:50:08.192";"NST_correctLoc";"33";"1";"FINISHED";"RIGHT";"success";"525";"0";"2015-02-12 13:50:06.928";"3";;;;;;;;;;;;;;;;;;;;;
"C1307286";;;"Windows 7";"Rachel's Experiment (DP)";"1.0";"3";"1";"1";"3";"1";"1";"2015-02-12 13:40:29.712";"2015-02-12 13:55:54.824";"1";"1";"1";"156";"155";"module.training_block4.exec-4833.GoNoGo4";;;;;;;;;;;;;;;;;;;;;;;;;;;;;;;;;;;;;;;;;;;;;;;;;;;;;;;;;;;"1261";"2015-02-12 13:50:10.719";"NST_correctLoc";"13";"0";"FINISHED";"LEFT";"success";"565";"0";"2015-02-12 13:50:09.455";"2";;;;;;;;;;;;;;;;;;;;;
"C1307286";;;"Windows 7";"Rachel's Experiment (DP)";"1.0";"3";"1";"1";"3";"1";"1";"2015-02-12 13:40:29.712";"2015-02-12 13:55:54.824";"1";"1";"1";"157";"156";"module.training_block4.exec-4833.GoNoGo4";;;;;;;;;;;;;;;;;;;;;;;;;;;;;;;;;;;;;;;;;;;;;;;;;;;;;;;;;;;"1262";"2015-02-12 13:50:13.246";"NST_correctLoc";"17";"1";"FINISHED";"RIGHT";"success";"430";"0";"2015-02-12 13:50:11.983";"2";;;;;;;;;;;;;;;;;;;;;
"C1307286";;;"Windows 7";"Rachel's Experiment (DP)";"1.0";"3";"1";"1";"3";"1";"1";"2015-02-12 13:40:29.712";"2015-02-12 13:55:54.824";"1";"1";"1";"158";"157";"module.training_block4.exec-4833.GoNoGo4";;;;;;;;;;;;;;;;;;;;;;;;;;;;;;;;;;;;;;;;;;;;;;;;;;;;;;;;;;;"1262";"2015-02-12 13:50:15.773";"ST_correctStop";"8";"1";"FINISHED";"NONE";"success";"0";"1";"2015-02-12 13:50:14.510";"1";;;;;;;;;;;;;;;;;;;;;
"C1307286";;;"Windows 7";"Rachel's Experiment (DP)";"1.0";"3";"1";"1";"3";"1";"1";"2015-02-12 13:40:29.712";"2015-02-12 13:55:54.824";"1";"1";"1";"159";"158";"module.training_block4.exec-4833.GoNoGo4";;;;;;;;;;;;;;;;;;;;;;;;;;;;;;;;;;;;;;;;;;;;;;;;;;;;;;;;;;;"1262";"2015-02-12 13:50:18.316";"ST_correctStop";"19";"0";"FINISHED";"NONE";"success";"0";"1";"2015-02-12 13:50:17.053";"3";;;;;;;;;;;;;;;;;;;;;
"C1307286";;;"Windows 7";"Rachel's Experiment (DP)";"1.0";"3";"1";"1";"3";"1";"1";"2015-02-12 13:40:29.712";"2015-02-12 13:55:54.824";"1";"1";"1";"160";"159";"module.DP_Practice.exec-2591.DP_practice";;;;;;;;;;;;"3021";"2015-02-12 13:50:50.421";"FINISHED";"1";"LEFT";"success";"798";"2015-02-12 13:50:47.395";"250";"N17";"N18";;;;;;;;;;;;;;;;;;;;;;;;;;;;;;;;;;;;;;;;;;;;;;;;;;;;;;;;;;;;;;;;;;;;;
"C1307286";;;"Windows 7";"Rachel's Experiment (DP)";"1.0";"3";"1";"1";"3";"1";"1";"2015-02-12 13:40:29.712";"2015-02-12 13:55:54.824";"1";"1";"1";"161";"160";"module.DP_Practice.exec-2591.DP_practice";;;;;;;;;;;;"3024";"2015-02-12 13:50:53.728";"FINISHED";"1";"LEFT";"success";"846";"2015-02-12 13:50:50.702";"250";"N9";"N10";;;;;;;;;;;;;;;;;;;;;;;;;;;;;;;;;;;;;;;;;;;;;;;;;;;;;;;;;;;;;;;;;;;;;
"C1307286";;;"Windows 7";"Rachel's Experiment (DP)";"1.0";"3";"1";"1";"3";"1";"1";"2015-02-12 13:40:29.712";"2015-02-12 13:55:54.824";"1";"1";"1";"162";"161";"module.DP_Practice.exec-2591.DP_practice";;;;;;;;;;;;"3024";"2015-02-12 13:50:57.036";"FINISHED";"2";"RIGHT";"success";"723";"2015-02-12 13:50:54.009";"250";"N7";"N8";;;;;;;;;;;;;;;;;;;;;;;;;;;;;;;;;;;;;;;;;;;;;;;;;;;;;;;;;;;;;;;;;;;;;
"C1307286";;;"Windows 7";"Rachel's Experiment (DP)";"1.0";"3";"1";"1";"3";"1";"1";"2015-02-12 13:40:29.712";"2015-02-12 13:55:54.824";"1";"1";"1";"163";"162";"module.DP_Practice.exec-2591.DP_practice";;;;;;;;;;;;"3024";"2015-02-12 13:51:00.343";"FINISHED";"2";"RIGHT";"success";"616";"2015-02-12 13:50:57.316";"250";"N14";"N13";;;;;;;;;;;;;;;;;;;;;;;;;;;;;;;;;;;;;;;;;;;;;;;;;;;;;;;;;;;;;;;;;;;;;
"C1307286";;;"Windows 7";"Rachel's Experiment (DP)";"1.0";"3";"1";"1";"3";"1";"1";"2015-02-12 13:40:29.712";"2015-02-12 13:55:54.824";"1";"1";"1";"164";"163";"module.DP_Practice.exec-2591.DP_practice";;;;;;;;;;;;"3024";"2015-02-12 13:51:03.650";"FINISHED";"2";"RIGHT";"success";"525";"2015-02-12 13:51:00.624";"250";"N20";"N19";;;;;;;;;;;;;;;;;;;;;;;;;;;;;;;;;;;;;;;;;;;;;;;;;;;;;;;;;;;;;;;;;;;;;
"C1307286";;;"Windows 7";"Rachel's Experiment (DP)";"1.0";"3";"1";"1";"3";"1";"1";"2015-02-12 13:40:29.712";"2015-02-12 13:55:54.824";"1";"1";"1";"165";"164";"module.DP_Practice.exec-2591.DP_practice";;;;;;;;;;;;"3024";"2015-02-12 13:51:06.942";"FINISHED";"2";"RIGHT";"success";"465";"2015-02-12 13:51:03.915";"250";"N13";"N14";;;;;;;;;;;;;;;;;;;;;;;;;;;;;;;;;;;;;;;;;;;;;;;;;;;;;;;;;;;;;;;;;;;;;
"C1307286";;;"Windows 7";"Rachel's Experiment (DP)";"1.0";"3";"1";"1";"3";"1";"1";"2015-02-12 13:40:29.712";"2015-02-12 13:55:54.824";"1";"1";"1";"166";"165";"module.DP_Practice.exec-2591.DP_practice";;;;;;;;;;;;"3024";"2015-02-12 13:51:10.233";"FINISHED";"2";"RIGHT";"success";"493";"2015-02-12 13:51:07.207";"250";"N18";"N17";;;;;;;;;;;;;;;;;;;;;;;;;;;;;;;;;;;;;;;;;;;;;;;;;;;;;;;;;;;;;;;;;;;;;
"C1307286";;;"Windows 7";"Rachel's Experiment (DP)";"1.0";"3";"1";"1";"3";"1";"1";"2015-02-12 13:40:29.712";"2015-02-12 13:55:54.824";"1";"1";"1";"167";"166";"module.DP_Practice.exec-2591.DP_practice";;;;;;;;;;;;"3024";"2015-02-12 13:51:13.540";"FINISHED";"1";"LEFT";"success";"522";"2015-02-12 13:51:10.514";"250";"N5";"N6";;;;;;;;;;;;;;;;;;;;;;;;;;;;;;;;;;;;;;;;;;;;;;;;;;;;;;;;;;;;;;;;;;;;;
"C1307286";;;"Windows 7";"Rachel's Experiment (DP)";"1.0";"3";"1";"1";"3";"1";"1";"2015-02-12 13:40:29.712";"2015-02-12 13:55:54.824";"1";"1";"1";"168";"167";"module.DP_Practice.exec-2591.DP_practice";;;;;;;;;;;;"3024";"2015-02-12 13:51:16.848";"FINISHED";"1";"LEFT";"success";"439";"2015-02-12 13:51:13.821";"250";"N2";"N1";;;;;;;;;;;;;;;;;;;;;;;;;;;;;;;;;;;;;;;;;;;;;;;;;;;;;;;;;;;;;;;;;;;;;
"C1307286";;;"Windows 7";"Rachel's Experiment (DP)";"1.0";"3";"1";"1";"3";"1";"1";"2015-02-12 13:40:29.712";"2015-02-12 13:55:54.824";"1";"1";"1";"169";"168";"module.DP_Practice.exec-2591.DP_practice";;;;;;;;;;;;"3024";"2015-02-12 13:51:20.170";"FINISHED";"1";"LEFT";"success";"444";"2015-02-12 13:51:17.144";"250";"N10";"N9";;;;;;;;;;;;;;;;;;;;;;;;;;;;;;;;;;;;;;;;;;;;;;;;;;;;;;;;;;;;;;;;;;;;;
"C1307286";;;"Windows 7";"Rachel's Experiment (DP)";"1.0";"3";"1";"1";"3";"1";"1";"2015-02-12 13:40:29.712";"2015-02-12 13:55:54.824";"1";"1";"1";"170";"169";"module.DP_Practice.exec-2591.DP_practice";;;;;;;;;;;;"3024";"2015-02-12 13:51:23.478";"FINISHED";"2";"RIGHT";"success";"401";"2015-02-12 13:51:20.451";"250";"N19";"N20";;;;;;;;;;;;;;;;;;;;;;;;;;;;;;;;;;;;;;;;;;;;;;;;;;;;;;;;;;;;;;;;;;;;;
"C1307286";;;"Windows 7";"Rachel's Experiment (DP)";"1.0";"3";"1";"1";"3";"1";"1";"2015-02-12 13:40:29.712";"2015-02-12 13:55:54.824";"1";"1";"1";"171";"170";"module.DP_Practice.exec-2591.DP_practice";;;;;;;;;;;;"3024";"2015-02-12 13:51:26.800";"FINISHED";"1";"LEFT";"success";"358";"2015-02-12 13:51:23.774";"250";"N16";"N15";;;;;;;;;;;;;;;;;;;;;;;;;;;;;;;;;;;;;;;;;;;;;;;;;;;;;;;;;;;;;;;;;;;;;
"C1307286";;;"Windows 7";"Rachel's Experiment (DP)";"1.0";"3";"1";"1";"3";"1";"1";"2015-02-12 13:40:29.712";"2015-02-12 13:55:54.824";"1";"1";"1";"172";"171";"module.DP_Practice.exec-2591.DP_practice";;;;;;;;;;;;"3024";"2015-02-12 13:51:30.092";"FINISHED";"2";"RIGHT";"success";"402";"2015-02-12 13:51:27.066";"250";"N1";"N2";;;;;;;;;;;;;;;;;;;;;;;;;;;;;;;;;;;;;;;;;;;;;;;;;;;;;;;;;;;;;;;;;;;;;
"C1307286";;;"Windows 7";"Rachel's Experiment (DP)";"1.0";"3";"1";"1";"3";"1";"1";"2015-02-12 13:40:29.712";"2015-02-12 13:55:54.824";"1";"1";"1";"173";"172";"module.DP_Practice.exec-2591.DP_practice";;;;;;;;;;;;"3024";"2015-02-12 13:51:33.399";"FINISHED";"2";"LEFT";"failure";"471";"2015-02-12 13:51:30.373";"250";"N3";"N4";;;;;;;;;;;;;;;;;;;;;;;;;;;;;;;;;;;;;;;;;;;;;;;;;;;;;;;;;;;;;;;;;;;;;
"C1307286";;;"Windows 7";"Rachel's Experiment (DP)";"1.0";"3";"1";"1";"3";"1";"1";"2015-02-12 13:40:29.712";"2015-02-12 13:55:54.824";"1";"1";"1";"174";"173";"module.DP_Practice.exec-2591.DP_practice";;;;;;;;;;;;"3024";"2015-02-12 13:51:36.706";"FINISHED";"1";"LEFT";"success";"572";"2015-02-12 13:51:33.680";"250";"N11";"N12";;;;;;;;;;;;;;;;;;;;;;;;;;;;;;;;;;;;;;;;;;;;;;;;;;;;;;;;;;;;;;;;;;;;;
"C1307286";;;"Windows 7";"Rachel's Experiment (DP)";"1.0";"3";"1";"1";"3";"1";"1";"2015-02-12 13:40:29.712";"2015-02-12 13:55:54.824";"1";"1";"1";"175";"174";"module.DP_Practice.exec-2591.DP_practice";;;;;;;;;;;;"3024";"2015-02-12 13:51:40.014";"FINISHED";"2";"RIGHT";"success";"505";"2015-02-12 13:51:36.987";"250";"N15";"N16";;;;;;;;;;;;;;;;;;;;;;;;;;;;;;;;;;;;;;;;;;;;;;;;;;;;;;;;;;;;;;;;;;;;;
"C1307286";;;"Windows 7";"Rachel's Experiment (DP)";"1.0";"3";"1";"1";"3";"1";"1";"2015-02-12 13:40:29.712";"2015-02-12 13:55:54.824";"1";"1";"1";"176";"175";"module.DP_Practice.exec-2591.DP_practice";;;;;;;;;;;;"3024";"2015-02-12 13:51:43.336";"FINISHED";"1";"LEFT";"success";"542";"2015-02-12 13:51:40.310";"250";"N6";"N5";;;;;;;;;;;;;;;;;;;;;;;;;;;;;;;;;;;;;;;;;;;;;;;;;;;;;;;;;;;;;;;;;;;;;
"C1307286";;;"Windows 7";"Rachel's Experiment (DP)";"1.0";"3";"1";"1";"3";"1";"1";"2015-02-12 13:40:29.712";"2015-02-12 13:55:54.824";"1";"1";"1";"177";"176";"module.DP_Practice.exec-2591.DP_practice";;;;;;;;;;;;"3024";"2015-02-12 13:51:46.644";"FINISHED";"1";"LEFT";"success";"451";"2015-02-12 13:51:43.617";"250";"N12";"N11";;;;;;;;;;;;;;;;;;;;;;;;;;;;;;;;;;;;;;;;;;;;;;;;;;;;;;;;;;;;;;;;;;;;;
"C1307286";;;"Windows 7";"Rachel's Experiment (DP)";"1.0";"3";"1";"1";"3";"1";"1";"2015-02-12 13:40:29.712";"2015-02-12 13:55:54.824";"1";"1";"1";"178";"177";"module.DP_Practice.exec-2591.DP_practice";;;;;;;;;;;;"3024";"2015-02-12 13:51:49.935";"FINISHED";"2";"RIGHT";"success";"487";"2015-02-12 13:51:46.909";"250";"N8";"N7";;;;;;;;;;;;;;;;;;;;;;;;;;;;;;;;;;;;;;;;;;;;;;;;;;;;;;;;;;;;;;;;;;;;;
"C1307286";;;"Windows 7";"Rachel's Experiment (DP)";"1.0";"3";"1";"1";"3";"1";"1";"2015-02-12 13:40:29.712";"2015-02-12 13:55:54.824";"1";"1";"1";"179";"178";"module.DP_Practice.exec-2591.DP_practice";;;;;;;;;;;;"3024";"2015-02-12 13:51:53.242";"FINISHED";"1";"LEFT";"success";"372";"2015-02-12 13:51:50.216";"250";"N4";"N3";;;;;;;;;;;;;;;;;;;;;;;;;;;;;;;;;;;;;;;;;;;;;;;;;;;;;;;;;;;;;;;;;;;;;
"C1307286";;;"Windows 7";"Rachel's Experiment (DP)";"1.0";"3";"1";"1";"3";"1";"1";"2015-02-12 13:40:29.712";"2015-02-12 13:55:54.824";"1";"1";"1";"180";"179";"module.DP_Block1.exec-5350.DP_block1";"2010";"2015-02-12 13:52:04.880";"FINISHED";"1";"LEFT";"success";"463";"2015-02-12 13:52:02.868";"100";"F2";"NF2";;;;;;;;;;;;;;;;;;;;;;;;;;;;;;;;;;;;;;;;;;;;;;;;;;;;;;;;;;;;;;;;;;;;;;;;;;;;;;;;
"C1307286";;;"Windows 7";"Rachel's Experiment (DP)";"1.0";"3";"1";"1";"3";"1";"1";"2015-02-12 13:40:29.712";"2015-02-12 13:55:54.824";"1";"1";"1";"181";"180";"module.DP_Block1.exec-5350.DP_block1";"2010";"2015-02-12 13:52:08.047";"FINISHED";"1";"LEFT";"success";"417";"2015-02-12 13:52:06.034";"100";"F12";"NF12";;;;;;;;;;;;;;;;;;;;;;;;;;;;;;;;;;;;;;;;;;;;;;;;;;;;;;;;;;;;;;;;;;;;;;;;;;;;;;;;
"C1307286";;;"Windows 7";"Rachel's Experiment (DP)";"1.0";"3";"1";"1";"3";"1";"1";"2015-02-12 13:40:29.712";"2015-02-12 13:55:54.824";"1";"1";"1";"182";"181";"module.DP_Block1.exec-5350.DP_block1";"2010";"2015-02-12 13:52:11.214";"FINISHED";"2";"RIGHT";"success";"418";"2015-02-12 13:52:09.201";"100";"F10";"NF10";;;;;;;;;;;;;;;;;;;;;;;;;;;;;;;;;;;;;;;;;;;;;;;;;;;;;;;;;;;;;;;;;;;;;;;;;;;;;;;;
"C1307286";;;"Windows 7";"Rachel's Experiment (DP)";"1.0";"3";"1";"1";"3";"1";"1";"2015-02-12 13:40:29.712";"2015-02-12 13:55:54.824";"1";"1";"1";"183";"182";"module.DP_Block1.exec-5350.DP_block1";"2010";"2015-02-12 13:52:14.380";"FINISHED";"2";"RIGHT";"success";"436";"2015-02-12 13:52:12.368";"100";"F9";"NF9";;;;;;;;;;;;;;;;;;;;;;;;;;;;;;;;;;;;;;;;;;;;;;;;;;;;;;;;;;;;;;;;;;;;;;;;;;;;;;;;
"C1307286";;;"Windows 7";"Rachel's Experiment (DP)";"1.0";"3";"1";"1";"3";"1";"1";"2015-02-12 13:40:29.712";"2015-02-12 13:55:54.824";"1";"1";"1";"184";"183";"module.DP_Block1.exec-5350.DP_block1";"2010";"2015-02-12 13:52:17.547";"FINISHED";"1";"LEFT";"success";"325";"2015-02-12 13:52:15.535";"100";"F9";"NF9";;;;;;;;;;;;;;;;;;;;;;;;;;;;;;;;;;;;;;;;;;;;;;;;;;;;;;;;;;;;;;;;;;;;;;;;;;;;;;;;
"C1307286";;;"Windows 7";"Rachel's Experiment (DP)";"1.0";"3";"1";"1";"3";"1";"1";"2015-02-12 13:40:29.712";"2015-02-12 13:55:54.824";"1";"1";"1";"185";"184";"module.DP_Block1.exec-5350.DP_block1";"2010";"2015-02-12 13:52:20.714";"FINISHED";"1";"RIGHT";"failure";"326";"2015-02-12 13:52:18.702";"100";"F17";"NF17";;;;;;;;;;;;;;;;;;;;;;;;;;;;;;;;;;;;;;;;;;;;;;;;;;;;;;;;;;;;;;;;;;;;;;;;;;;;;;;;
"C1307286";;;"Windows 7";"Rachel's Experiment (DP)";"1.0";"3";"1";"1";"3";"1";"1";"2015-02-12 13:40:29.712";"2015-02-12 13:55:54.824";"1";"1";"1";"186";"185";"module.DP_Block1.exec-5350.DP_block1";"2010";"2015-02-12 13:52:23.865";"FINISHED";"2";"RIGHT";"success";"407";"2015-02-12 13:52:21.853";"100";"NF8";"F8";;;;;;;;;;;;;;;;;;;;;;;;;;;;;;;;;;;;;;;;;;;;;;;;;;;;;;;;;;;;;;;;;;;;;;;;;;;;;;;;
"C1307286";;;"Windows 7";"Rachel's Experiment (DP)";"1.0";"3";"1";"1";"3";"1";"1";"2015-02-12 13:40:29.712";"2015-02-12 13:55:54.824";"1";"1";"1";"187";"186";"module.DP_Block1.exec-5350.DP_block1";"2010";"2015-02-12 13:52:27.016";"FINISHED";"2";"RIGHT";"success";"448";"2015-02-12 13:52:25.004";"100";"NF9";"F9";;;;;;;;;;;;;;;;;;;;;;;;;;;;;;;;;;;;;;;;;;;;;;;;;;;;;;;;;;;;;;;;;;;;;;;;;;;;;;;;
"C1307286";;;"Windows 7";"Rachel's Experiment (DP)";"1.0";"3";"1";"1";"3";"1";"1";"2015-02-12 13:40:29.712";"2015-02-12 13:55:54.824";"1";"1";"1";"188";"187";"module.DP_Block1.exec-5350.DP_block1";"2010";"2015-02-12 13:52:30.152";"FINISHED";"2";"RIGHT";"success";"472";"2015-02-12 13:52:28.140";"100";"NF12";"F12";;;;;;;;;;;;;;;;;;;;;;;;;;;;;;;;;;;;;;;;;;;;;;;;;;;;;;;;;;;;;;;;;;;;;;;;;;;;;;;;
"C1307286";;;"Windows 7";"Rachel's Experiment (DP)";"1.0";"3";"1";"1";"3";"1";"1";"2015-02-12 13:40:29.712";"2015-02-12 13:55:54.824";"1";"1";"1";"189";"188";"module.DP_Block1.exec-5350.DP_block1";"2010";"2015-02-12 13:52:33.303";"FINISHED";"1";"LEFT";"success";"321";"2015-02-12 13:52:31.291";"100";"F3";"NF3";;;;;;;;;;;;;;;;;;;;;;;;;;;;;;;;;;;;;;;;;;;;;;;;;;;;;;;;;;;;;;;;;;;;;;;;;;;;;;;;
"C1307286";;;"Windows 7";"Rachel's Experiment (DP)";"1.0";"3";"1";"1";"3";"1";"1";"2015-02-12 13:40:29.712";"2015-02-12 13:55:54.824";"1";"1";"1";"190";"189";"module.DP_Block1.exec-5350.DP_block1";"2010";"2015-02-12 13:52:36.439";"FINISHED";"2";"RIGHT";"success";"401";"2015-02-12 13:52:34.426";"100";"F0";"NF0";;;;;;;;;;;;;;;;;;;;;;;;;;;;;;;;;;;;;;;;;;;;;;;;;;;;;;;;;;;;;;;;;;;;;;;;;;;;;;;;
"C1307286";;;"Windows 7";"Rachel's Experiment (DP)";"1.0";"3";"1";"1";"3";"1";"1";"2015-02-12 13:40:29.712";"2015-02-12 13:55:54.824";"1";"1";"1";"191";"190";"module.DP_Block1.exec-5350.DP_block1";"2010";"2015-02-12 13:52:39.574";"FINISHED";"2";"LEFT";"failure";"337";"2015-02-12 13:52:37.562";"100";"NF6";"F6";;;;;;;;;;;;;;;;;;;;;;;;;;;;;;;;;;;;;;;;;;;;;;;;;;;;;;;;;;;;;;;;;;;;;;;;;;;;;;;;
"C1307286";;;"Windows 7";"Rachel's Experiment (DP)";"1.0";"3";"1";"1";"3";"1";"1";"2015-02-12 13:40:29.712";"2015-02-12 13:55:54.824";"1";"1";"1";"192";"191";"module.DP_Block1.exec-5350.DP_block1";"2010";"2015-02-12 13:52:42.710";"FINISHED";"1";"LEFT";"success";"522";"2015-02-12 13:52:40.698";"100";"NF2";"F2";;;;;;;;;;;;;;;;;;;;;;;;;;;;;;;;;;;;;;;;;;;;;;;;;;;;;;;;;;;;;;;;;;;;;;;;;;;;;;;;
"C1307286";;;"Windows 7";"Rachel's Experiment (DP)";"1.0";"3";"1";"1";"3";"1";"1";"2015-02-12 13:40:29.712";"2015-02-12 13:55:54.824";"1";"1";"1";"193";"192";"module.DP_Block1.exec-5350.DP_block1";"2010";"2015-02-12 13:52:45.846";"FINISHED";"2";"RIGHT";"success";"490";"2015-02-12 13:52:43.833";"100";"F8";"NF8";;;;;;;;;;;;;;;;;;;;;;;;;;;;;;;;;;;;;;;;;;;;;;;;;;;;;;;;;;;;;;;;;;;;;;;;;;;;;;;;
"C1307286";;;"Windows 7";"Rachel's Experiment (DP)";"1.0";"3";"1";"1";"3";"1";"1";"2015-02-12 13:40:29.712";"2015-02-12 13:55:54.824";"1";"1";"1";"194";"193";"module.DP_Block1.exec-5350.DP_block1";"2010";"2015-02-12 13:52:49.013";"FINISHED";"1";"LEFT";"success";"387";"2015-02-12 13:52:47.000";"100";"F0";"NF0";;;;;;;;;;;;;;;;;;;;;;;;;;;;;;;;;;;;;;;;;;;;;;;;;;;;;;;;;;;;;;;;;;;;;;;;;;;;;;;;
"C1307286";;;"Windows 7";"Rachel's Experiment (DP)";"1.0";"3";"1";"1";"3";"1";"1";"2015-02-12 13:40:29.712";"2015-02-12 13:55:54.824";"1";"1";"1";"195";"194";"module.DP_Block1.exec-5350.DP_block1";"2010";"2015-02-12 13:52:52.179";"FINISHED";"1";"LEFT";"success";"477";"2015-02-12 13:52:50.167";"100";"F10";"NF10";;;;;;;;;;;;;;;;;;;;;;;;;;;;;;;;;;;;;;;;;;;;;;;;;;;;;;;;;;;;;;;;;;;;;;;;;;;;;;;;
"C1307286";;;"Windows 7";"Rachel's Experiment (DP)";"1.0";"3";"1";"1";"3";"1";"1";"2015-02-12 13:40:29.712";"2015-02-12 13:55:54.824";"1";"1";"1";"196";"195";"module.DP_Block1.exec-5350.DP_block1";"2010";"2015-02-12 13:52:55.346";"FINISHED";"1";"LEFT";"success";"390";"2015-02-12 13:52:53.334";"100";"F14";"NF14";;;;;;;;;;;;;;;;;;;;;;;;;;;;;;;;;;;;;;;;;;;;;;;;;;;;;;;;;;;;;;;;;;;;;;;;;;;;;;;;
"C1307286";;;"Windows 7";"Rachel's Experiment (DP)";"1.0";"3";"1";"1";"3";"1";"1";"2015-02-12 13:40:29.712";"2015-02-12 13:55:54.824";"1";"1";"1";"197";"196";"module.DP_Block1.exec-5350.DP_block1";"2010";"2015-02-12 13:52:58.513";"FINISHED";"1";"LEFT";"success";"367";"2015-02-12 13:52:56.501";"100";"NF3";"F3";;;;;;;;;;;;;;;;;;;;;;;;;;;;;;;;;;;;;;;;;;;;;;;;;;;;;;;;;;;;;;;;;;;;;;;;;;;;;;;;
"C1307286";;;"Windows 7";"Rachel's Experiment (DP)";"1.0";"3";"1";"1";"3";"1";"1";"2015-02-12 13:40:29.712";"2015-02-12 13:55:54.824";"1";"1";"1";"198";"197";"module.DP_Block1.exec-5350.DP_block1";"2010";"2015-02-12 13:53:01.680";"FINISHED";"1";"LEFT";"success";"408";"2015-02-12 13:52:59.667";"100";"F7";"NF7";;;;;;;;;;;;;;;;;;;;;;;;;;;;;;;;;;;;;;;;;;;;;;;;;;;;;;;;;;;;;;;;;;;;;;;;;;;;;;;;
"C1307286";;;"Windows 7";"Rachel's Experiment (DP)";"1.0";"3";"1";"1";"3";"1";"1";"2015-02-12 13:40:29.712";"2015-02-12 13:55:54.824";"1";"1";"1";"199";"198";"module.DP_Block1.exec-5350.DP_block1";"2010";"2015-02-12 13:53:04.847";"FINISHED";"1";"LEFT";"success";"337";"2015-02-12 13:53:02.834";"100";"NF11";"F11";;;;;;;;;;;;;;;;;;;;;;;;;;;;;;;;;;;;;;;;;;;;;;;;;;;;;;;;;;;;;;;;;;;;;;;;;;;;;;;;
"C1307286";;;"Windows 7";"Rachel's Experiment (DP)";"1.0";"3";"1";"1";"3";"1";"1";"2015-02-12 13:40:29.712";"2015-02-12 13:55:54.824";"1";"1";"1";"200";"199";"module.DP_Block1.exec-5350.DP_block1";"2010";"2015-02-12 13:53:08.013";"FINISHED";"1";"LEFT";"success";"362";"2015-02-12 13:53:06.001";"100";"F16";"NF16";;;;;;;;;;;;;;;;;;;;;;;;;;;;;;;;;;;;;;;;;;;;;;;;;;;;;;;;;;;;;;;;;;;;;;;;;;;;;;;;
"C1307286";;;"Windows 7";"Rachel's Experiment (DP)";"1.0";"3";"1";"1";"3";"1";"1";"2015-02-12 13:40:29.712";"2015-02-12 13:55:54.824";"1";"1";"1";"201";"200";"module.DP_Block1.exec-5350.DP_block1";"2010";"2015-02-12 13:53:11.180";"FINISHED";"2";"RIGHT";"success";"500";"2015-02-12 13:53:09.168";"100";"F15";"NF15";;;;;;;;;;;;;;;;;;;;;;;;;;;;;;;;;;;;;;;;;;;;;;;;;;;;;;;;;;;;;;;;;;;;;;;;;;;;;;;;
"C1307286";;;"Windows 7";"Rachel's Experiment (DP)";"1.0";"3";"1";"1";"3";"1";"1";"2015-02-12 13:40:29.712";"2015-02-12 13:55:54.824";"1";"1";"1";"202";"201";"module.DP_Block1.exec-5350.DP_block1";"2010";"2015-02-12 13:53:14.347";"FINISHED";"2";"RIGHT";"success";"461";"2015-02-12 13:53:12.335";"100";"NF1";"F1";;;;;;;;;;;;;;;;;;;;;;;;;;;;;;;;;;;;;;;;;;;;;;;;;;;;;;;;;;;;;;;;;;;;;;;;;;;;;;;;
"C1307286";;;"Windows 7";"Rachel's Experiment (DP)";"1.0";"3";"1";"1";"3";"1";"1";"2015-02-12 13:40:29.712";"2015-02-12 13:55:54.824";"1";"1";"1";"203";"202";"module.DP_Block1.exec-5350.DP_block1";"2010";"2015-02-12 13:53:17.498";"FINISHED";"2";"RIGHT";"success";"445";"2015-02-12 13:53:15.486";"100";"F5";"NF5";;;;;;;;;;;;;;;;;;;;;;;;;;;;;;;;;;;;;;;;;;;;;;;;;;;;;;;;;;;;;;;;;;;;;;;;;;;;;;;;
"C1307286";;;"Windows 7";"Rachel's Experiment (DP)";"1.0";"3";"1";"1";"3";"1";"1";"2015-02-12 13:40:29.712";"2015-02-12 13:55:54.824";"1";"1";"1";"204";"203";"module.DP_Block1.exec-5350.DP_block1";"2010";"2015-02-12 13:53:20.649";"FINISHED";"1";"RIGHT";"failure";"406";"2015-02-12 13:53:18.637";"100";"F11";"NF11";;;;;;;;;;;;;;;;;;;;;;;;;;;;;;;;;;;;;;;;;;;;;;;;;;;;;;;;;;;;;;;;;;;;;;;;;;;;;;;;
"C1307286";;;"Windows 7";"Rachel's Experiment (DP)";"1.0";"3";"1";"1";"3";"1";"1";"2015-02-12 13:40:29.712";"2015-02-12 13:55:54.824";"1";"1";"1";"205";"204";"module.DP_Block1.exec-5350.DP_block1";"2010";"2015-02-12 13:53:23.785";"FINISHED";"1";"LEFT";"success";"479";"2015-02-12 13:53:21.773";"100";"NF13";"F13";;;;;;;;;;;;;;;;;;;;;;;;;;;;;;;;;;;;;;;;;;;;;;;;;;;;;;;;;;;;;;;;;;;;;;;;;;;;;;;;
"C1307286";;;"Windows 7";"Rachel's Experiment (DP)";"1.0";"3";"1";"1";"3";"1";"1";"2015-02-12 13:40:29.712";"2015-02-12 13:55:54.824";"1";"1";"1";"206";"205";"module.DP_Block1.exec-5350.DP_block1";"2010";"2015-02-12 13:53:26.921";"FINISHED";"2";"RIGHT";"success";"439";"2015-02-12 13:53:24.908";"100";"F13";"NF13";;;;;;;;;;;;;;;;;;;;;;;;;;;;;;;;;;;;;;;;;;;;;;;;;;;;;;;;;;;;;;;;;;;;;;;;;;;;;;;;
"C1307286";;;"Windows 7";"Rachel's Experiment (DP)";"1.0";"3";"1";"1";"3";"1";"1";"2015-02-12 13:40:29.712";"2015-02-12 13:55:54.824";"1";"1";"1";"207";"206";"module.DP_Block1.exec-5350.DP_block1";"2010";"2015-02-12 13:53:30.056";"FINISHED";"1";"LEFT";"success";"415";"2015-02-12 13:53:28.044";"100";"NF0";"F0";;;;;;;;;;;;;;;;;;;;;;;;;;;;;;;;;;;;;;;;;;;;;;;;;;;;;;;;;;;;;;;;;;;;;;;;;;;;;;;;
"C1307286";;;"Windows 7";"Rachel's Experiment (DP)";"1.0";"3";"1";"1";"3";"1";"1";"2015-02-12 13:40:29.712";"2015-02-12 13:55:54.824";"1";"1";"1";"208";"207";"module.DP_Block1.exec-5350.DP_block1";"2010";"2015-02-12 13:53:33.192";"FINISHED";"2";"RIGHT";"success";"440";"2015-02-12 13:53:31.179";"100";"F11";"NF11";;;;;;;;;;;;;;;;;;;;;;;;;;;;;;;;;;;;;;;;;;;;;;;;;;;;;;;;;;;;;;;;;;;;;;;;;;;;;;;;
"C1307286";;;"Windows 7";"Rachel's Experiment (DP)";"1.0";"3";"1";"1";"3";"1";"1";"2015-02-12 13:40:29.712";"2015-02-12 13:55:54.824";"1";"1";"1";"209";"208";"module.DP_Block1.exec-5350.DP_block1";"2010";"2015-02-12 13:53:36.327";"FINISHED";"1";"LEFT";"success";"448";"2015-02-12 13:53:34.315";"100";"NF8";"F8";;;;;;;;;;;;;;;;;;;;;;;;;;;;;;;;;;;;;;;;;;;;;;;;;;;;;;;;;;;;;;;;;;;;;;;;;;;;;;;;
"C1307286";;;"Windows 7";"Rachel's Experiment (DP)";"1.0";"3";"1";"1";"3";"1";"1";"2015-02-12 13:40:29.712";"2015-02-12 13:55:54.824";"1";"1";"1";"210";"209";"module.DP_Block1.exec-5350.DP_block1";"2010";"2015-02-12 13:53:39.463";"FINISHED";"2";"RIGHT";"success";"480";"2015-02-12 13:53:37.451";"100";"NF10";"F10";;;;;;;;;;;;;;;;;;;;;;;;;;;;;;;;;;;;;;;;;;;;;;;;;;;;;;;;;;;;;;;;;;;;;;;;;;;;;;;;
"C1307286";;;"Windows 7";"Rachel's Experiment (DP)";"1.0";"3";"1";"1";"3";"1";"1";"2015-02-12 13:40:29.712";"2015-02-12 13:55:54.824";"1";"1";"1";"211";"210";"module.DP_Block1.exec-5350.DP_block1";"2010";"2015-02-12 13:53:42.630";"FINISHED";"2";"RIGHT";"success";"466";"2015-02-12 13:53:40.617";"100";"F3";"NF3";;;;;;;;;;;;;;;;;;;;;;;;;;;;;;;;;;;;;;;;;;;;;;;;;;;;;;;;;;;;;;;;;;;;;;;;;;;;;;;;
"C1307286";;;"Windows 7";"Rachel's Experiment (DP)";"1.0";"3";"1";"1";"3";"1";"1";"2015-02-12 13:40:29.712";"2015-02-12 13:55:54.824";"1";"1";"1";"212";"211";"module.DP_Block1.exec-5350.DP_block1";"2010";"2015-02-12 13:53:45.797";"FINISHED";"2";"RIGHT";"success";"387";"2015-02-12 13:53:43.784";"100";"F16";"NF16";;;;;;;;;;;;;;;;;;;;;;;;;;;;;;;;;;;;;;;;;;;;;;;;;;;;;;;;;;;;;;;;;;;;;;;;;;;;;;;;
"C1307286";;;"Windows 7";"Rachel's Experiment (DP)";"1.0";"3";"1";"1";"3";"1";"1";"2015-02-12 13:40:29.712";"2015-02-12 13:55:54.824";"1";"1";"1";"213";"212";"module.DP_Block1.exec-5350.DP_block1";"2010";"2015-02-12 13:53:48.948";"FINISHED";"2";"RIGHT";"success";"452";"2015-02-12 13:53:46.935";"100";"NF7";"F7";;;;;;;;;;;;;;;;;;;;;;;;;;;;;;;;;;;;;;;;;;;;;;;;;;;;;;;;;;;;;;;;;;;;;;;;;;;;;;;;
"C1307286";;;"Windows 7";"Rachel's Experiment (DP)";"1.0";"3";"1";"1";"3";"1";"1";"2015-02-12 13:40:29.712";"2015-02-12 13:55:54.824";"1";"1";"1";"214";"213";"module.DP_Block1.exec-5350.DP_block1";"2010";"2015-02-12 13:53:52.099";"FINISHED";"1";"LEFT";"success";"436";"2015-02-12 13:53:50.087";"100";"NF1";"F1";;;;;;;;;;;;;;;;;;;;;;;;;;;;;;;;;;;;;;;;;;;;;;;;;;;;;;;;;;;;;;;;;;;;;;;;;;;;;;;;
"C1307286";;;"Windows 7";"Rachel's Experiment (DP)";"1.0";"3";"1";"1";"3";"1";"1";"2015-02-12 13:40:29.712";"2015-02-12 13:55:54.824";"1";"1";"1";"215";"214";"module.DP_Block1.exec-5350.DP_block1";"2010";"2015-02-12 13:53:55.235";"FINISHED";"1";"LEFT";"success";"573";"2015-02-12 13:53:53.222";"100";"F13";"NF13";;;;;;;;;;;;;;;;;;;;;;;;;;;;;;;;;;;;;;;;;;;;;;;;;;;;;;;;;;;;;;;;;;;;;;;;;;;;;;;;
"C1307286";;;"Windows 7";"Rachel's Experiment (DP)";"1.0";"3";"1";"1";"3";"1";"1";"2015-02-12 13:40:29.712";"2015-02-12 13:55:54.824";"1";"1";"1";"216";"215";"module.DP_Block1.exec-5350.DP_block1";"2010";"2015-02-12 13:53:58.370";"FINISHED";"1";"LEFT";"success";"405";"2015-02-12 13:53:56.358";"100";"F5";"NF5";;;;;;;;;;;;;;;;;;;;;;;;;;;;;;;;;;;;;;;;;;;;;;;;;;;;;;;;;;;;;;;;;;;;;;;;;;;;;;;;
"C1307286";;;"Windows 7";"Rachel's Experiment (DP)";"1.0";"3";"1";"1";"3";"1";"1";"2015-02-12 13:40:29.712";"2015-02-12 13:55:54.824";"1";"1";"1";"217";"216";"module.DP_Block1.exec-5350.DP_block1";"2010";"2015-02-12 13:54:01.506";"FINISHED";"1";"LEFT";"success";"421";"2015-02-12 13:53:59.493";"100";"NF7";"F7";;;;;;;;;;;;;;;;;;;;;;;;;;;;;;;;;;;;;;;;;;;;;;;;;;;;;;;;;;;;;;;;;;;;;;;;;;;;;;;;
"C1307286";;;"Windows 7";"Rachel's Experiment (DP)";"1.0";"3";"1";"1";"3";"1";"1";"2015-02-12 13:40:29.712";"2015-02-12 13:55:54.824";"1";"1";"1";"218";"217";"module.DP_Block1.exec-5350.DP_block1";"2010";"2015-02-12 13:54:04.641";"FINISHED";"2";"RIGHT";"success";"478";"2015-02-12 13:54:02.629";"100";"NF14";"F14";;;;;;;;;;;;;;;;;;;;;;;;;;;;;;;;;;;;;;;;;;;;;;;;;;;;;;;;;;;;;;;;;;;;;;;;;;;;;;;;
"C1307286";;;"Windows 7";"Rachel's Experiment (DP)";"1.0";"3";"1";"1";"3";"1";"1";"2015-02-12 13:40:29.712";"2015-02-12 13:55:54.824";"1";"1";"1";"219";"218";"module.DP_Block1.exec-5350.DP_block1";"2010";"2015-02-12 13:54:07.777";"FINISHED";"2";"RIGHT";"success";"494";"2015-02-12 13:54:05.765";"100";"NF11";"F11";;;;;;;;;;;;;;;;;;;;;;;;;;;;;;;;;;;;;;;;;;;;;;;;;;;;;;;;;;;;;;;;;;;;;;;;;;;;;;;;
"C1307286";;;"Windows 7";"Rachel's Experiment (DP)";"1.0";"3";"1";"1";"3";"1";"1";"2015-02-12 13:40:29.712";"2015-02-12 13:55:54.824";"1";"1";"1";"220";"219";"module.DP_Block1.exec-5350.DP_block1";"2010";"2015-02-12 13:54:10.913";"FINISHED";"2";"RIGHT";"success";"447";"2015-02-12 13:54:08.900";"100";"F12";"NF12";;;;;;;;;;;;;;;;;;;;;;;;;;;;;;;;;;;;;;;;;;;;;;;;;;;;;;;;;;;;;;;;;;;;;;;;;;;;;;;;
"C1307286";;;"Windows 7";"Rachel's Experiment (DP)";"1.0";"3";"1";"1";"3";"1";"1";"2015-02-12 13:40:29.712";"2015-02-12 13:55:54.824";"1";"1";"1";"221";"220";"module.DP_Block1.exec-5350.DP_block1";"2010";"2015-02-12 13:54:14.079";"FINISHED";"1";"LEFT";"success";"408";"2015-02-12 13:54:12.067";"100";"F15";"NF15";;;;;;;;;;;;;;;;;;;;;;;;;;;;;;;;;;;;;;;;;;;;;;;;;;;;;;;;;;;;;;;;;;;;;;;;;;;;;;;;
"C1307286";;;"Windows 7";"Rachel's Experiment (DP)";"1.0";"3";"1";"1";"3";"1";"1";"2015-02-12 13:40:29.712";"2015-02-12 13:55:54.824";"1";"1";"1";"222";"221";"module.DP_Block1.exec-5350.DP_block1";"2010";"2015-02-12 13:54:17.246";"FINISHED";"1";"LEFT";"success";"457";"2015-02-12 13:54:15.234";"100";"NF17";"F17";;;;;;;;;;;;;;;;;;;;;;;;;;;;;;;;;;;;;;;;;;;;;;;;;;;;;;;;;;;;;;;;;;;;;;;;;;;;;;;;
"C1307286";;;"Windows 7";"Rachel's Experiment (DP)";"1.0";"3";"1";"1";"3";"1";"1";"2015-02-12 13:40:29.712";"2015-02-12 13:55:54.824";"1";"1";"1";"223";"222";"module.DP_Block1.exec-5350.DP_block1";"2010";"2015-02-12 13:54:20.413";"FINISHED";"2";"RIGHT";"success";"482";"2015-02-12 13:54:18.401";"100";"NF0";"F0";;;;;;;;;;;;;;;;;;;;;;;;;;;;;;;;;;;;;;;;;;;;;;;;;;;;;;;;;;;;;;;;;;;;;;;;;;;;;;;;
"C1307286";;;"Windows 7";"Rachel's Experiment (DP)";"1.0";"3";"1";"1";"3";"1";"1";"2015-02-12 13:40:29.712";"2015-02-12 13:55:54.824";"1";"1";"1";"224";"223";"module.DP_Block1.exec-5350.DP_block1";"2010";"2015-02-12 13:54:23.564";"FINISHED";"1";"LEFT";"success";"403";"2015-02-12 13:54:21.552";"100";"F8";"NF8";;;;;;;;;;;;;;;;;;;;;;;;;;;;;;;;;;;;;;;;;;;;;;;;;;;;;;;;;;;;;;;;;;;;;;;;;;;;;;;;
"C1307286";;;"Windows 7";"Rachel's Experiment (DP)";"1.0";"3";"1";"1";"3";"1";"1";"2015-02-12 13:40:29.712";"2015-02-12 13:55:54.824";"1";"1";"1";"225";"224";"module.DP_Block1.exec-5350.DP_block1";"2010";"2015-02-12 13:54:26.715";"FINISHED";"1";"RIGHT";"failure";"724";"2015-02-12 13:54:24.703";"100";"NF6";"F6";;;;;;;;;;;;;;;;;;;;;;;;;;;;;;;;;;;;;;;;;;;;;;;;;;;;;;;;;;;;;;;;;;;;;;;;;;;;;;;;
"C1307286";;;"Windows 7";"Rachel's Experiment (DP)";"1.0";"3";"1";"1";"3";"1";"1";"2015-02-12 13:40:29.712";"2015-02-12 13:55:54.824";"1";"1";"1";"226";"225";"module.DP_Block1.exec-5350.DP_block1";"2010";"2015-02-12 13:54:29.851";"FINISHED";"1";"LEFT";"success";"508";"2015-02-12 13:54:27.839";"100";"NF14";"F14";;;;;;;;;;;;;;;;;;;;;;;;;;;;;;;;;;;;;;;;;;;;;;;;;;;;;;;;;;;;;;;;;;;;;;;;;;;;;;;;
"C1307286";;;"Windows 7";"Rachel's Experiment (DP)";"1.0";"3";"1";"1";"3";"1";"1";"2015-02-12 13:40:29.712";"2015-02-12 13:55:54.824";"1";"1";"1";"227";"226";"module.DP_Block1.exec-5350.DP_block1";"2010";"2015-02-12 13:54:32.987";"FINISHED";"2";"RIGHT";"success";"476";"2015-02-12 13:54:30.974";"100";"NF15";"F15";;;;;;;;;;;;;;;;;;;;;;;;;;;;;;;;;;;;;;;;;;;;;;;;;;;;;;;;;;;;;;;;;;;;;;;;;;;;;;;;
"C1307286";;;"Windows 7";"Rachel's Experiment (DP)";"1.0";"3";"1";"1";"3";"1";"1";"2015-02-12 13:40:29.712";"2015-02-12 13:55:54.824";"1";"1";"1";"228";"227";"module.DP_Block1.exec-5350.DP_block1";"2010";"2015-02-12 13:54:36.122";"FINISHED";"2";"RIGHT";"success";"469";"2015-02-12 13:54:34.110";"100";"F4";"NF4";;;;;;;;;;;;;;;;;;;;;;;;;;;;;;;;;;;;;;;;;;;;;;;;;;;;;;;;;;;;;;;;;;;;;;;;;;;;;;;;
"C1307286";;;"Windows 7";"Rachel's Experiment (DP)";"1.0";"3";"1";"1";"3";"1";"1";"2015-02-12 13:40:29.712";"2015-02-12 13:55:54.824";"1";"1";"1";"229";"228";"module.DP_Block1.exec-5350.DP_block1";"2010";"2015-02-12 13:54:39.258";"FINISHED";"1";"LEFT";"success";"469";"2015-02-12 13:54:37.245";"100";"NF15";"F15";;;;;;;;;;;;;;;;;;;;;;;;;;;;;;;;;;;;;;;;;;;;;;;;;;;;;;;;;;;;;;;;;;;;;;;;;;;;;;;;
"C1307286";;;"Windows 7";"Rachel's Experiment (DP)";"1.0";"3";"1";"1";"3";"1";"1";"2015-02-12 13:40:29.712";"2015-02-12 13:55:54.824";"1";"1";"1";"230";"229";"module.DP_Block1.exec-5350.DP_block1";"2010";"2015-02-12 13:54:42.394";"FINISHED";"2";"RIGHT";"success";"429";"2015-02-12 13:54:40.381";"100";"F7";"NF7";;;;;;;;;;;;;;;;;;;;;;;;;;;;;;;;;;;;;;;;;;;;;;;;;;;;;;;;;;;;;;;;;;;;;;;;;;;;;;;;
"C1307286";;;"Windows 7";"Rachel's Experiment (DP)";"1.0";"3";"1";"1";"3";"1";"1";"2015-02-12 13:40:29.712";"2015-02-12 13:55:54.824";"1";"1";"1";"231";"230";"module.DP_Block1.exec-5350.DP_block1";"2010";"2015-02-12 13:54:45.529";"FINISHED";"1";"LEFT";"success";"406";"2015-02-12 13:54:43.517";"100";"NF9";"F9";;;;;;;;;;;;;;;;;;;;;;;;;;;;;;;;;;;;;;;;;;;;;;;;;;;;;;;;;;;;;;;;;;;;;;;;;;;;;;;;
"C1307286";;;"Windows 7";"Rachel's Experiment (DP)";"1.0";"3";"1";"1";"3";"1";"1";"2015-02-12 13:40:29.712";"2015-02-12 13:55:54.824";"1";"1";"1";"232";"231";"module.DP_Block1.exec-5350.DP_block1";"2010";"2015-02-12 13:54:48.696";"FINISHED";"2";"RIGHT";"success";"471";"2015-02-12 13:54:46.684";"100";"F17";"NF17";;;;;;;;;;;;;;;;;;;;;;;;;;;;;;;;;;;;;;;;;;;;;;;;;;;;;;;;;;;;;;;;;;;;;;;;;;;;;;;;
"C1307286";;;"Windows 7";"Rachel's Experiment (DP)";"1.0";"3";"1";"1";"3";"1";"1";"2015-02-12 13:40:29.712";"2015-02-12 13:55:54.824";"1";"1";"1";"233";"232";"module.DP_Block1.exec-5350.DP_block1";"2010";"2015-02-12 13:54:51.863";"FINISHED";"2";"RIGHT";"success";"560";"2015-02-12 13:54:49.850";"100";"NF13";"F13";;;;;;;;;;;;;;;;;;;;;;;;;;;;;;;;;;;;;;;;;;;;;;;;;;;;;;;;;;;;;;;;;;;;;;;;;;;;;;;;
"C1307286";;;"Windows 7";"Rachel's Experiment (DP)";"1.0";"3";"1";"1";"3";"1";"1";"2015-02-12 13:40:29.712";"2015-02-12 13:55:54.824";"1";"1";"1";"234";"233";"module.DP_Block1.exec-5350.DP_block1";"2010";"2015-02-12 13:54:55.030";"FINISHED";"1";"LEFT";"success";"473";"2015-02-12 13:54:53.017";"100";"NF16";"F16";;;;;;;;;;;;;;;;;;;;;;;;;;;;;;;;;;;;;;;;;;;;;;;;;;;;;;;;;;;;;;;;;;;;;;;;;;;;;;;;
"C1307286";;;"Windows 7";"Rachel's Experiment (DP)";"1.0";"3";"1";"1";"3";"1";"1";"2015-02-12 13:40:29.712";"2015-02-12 13:55:54.824";"1";"1";"1";"235";"234";"module.DP_Block1.exec-5350.DP_block1";"2010";"2015-02-12 13:54:58.181";"FINISHED";"1";"LEFT";"success";"466";"2015-02-12 13:54:56.168";"100";"NF12";"F12";;;;;;;;;;;;;;;;;;;;;;;;;;;;;;;;;;;;;;;;;;;;;;;;;;;;;;;;;;;;;;;;;;;;;;;;;;;;;;;;
"C1307286";;;"Windows 7";"Rachel's Experiment (DP)";"1.0";"3";"1";"1";"3";"1";"1";"2015-02-12 13:40:29.712";"2015-02-12 13:55:54.824";"1";"1";"1";"236";"235";"module.DP_Block1.exec-5350.DP_block1";"2010";"2015-02-12 13:55:01.332";"FINISHED";"2";"RIGHT";"success";"451";"2015-02-12 13:54:59.320";"100";"F14";"NF14";;;;;;;;;;;;;;;;;;;;;;;;;;;;;;;;;;;;;;;;;;;;;;;;;;;;;;;;;;;;;;;;;;;;;;;;;;;;;;;;
"C1307286";;;"Windows 7";"Rachel's Experiment (DP)";"1.0";"3";"1";"1";"3";"1";"1";"2015-02-12 13:40:29.712";"2015-02-12 13:55:54.824";"1";"1";"1";"237";"236";"module.DP_Block1.exec-5350.DP_block1";"2010";"2015-02-12 13:55:04.468";"FINISHED";"1";"LEFT";"success";"379";"2015-02-12 13:55:02.455";"100";"F4";"NF4";;;;;;;;;;;;;;;;;;;;;;;;;;;;;;;;;;;;;;;;;;;;;;;;;;;;;;;;;;;;;;;;;;;;;;;;;;;;;;;;
"C1307286";;;"Windows 7";"Rachel's Experiment (DP)";"1.0";"3";"1";"1";"3";"1";"1";"2015-02-12 13:40:29.712";"2015-02-12 13:55:54.824";"1";"1";"1";"238";"237";"module.DP_Block1.exec-5350.DP_block1";"2010";"2015-02-12 13:55:07.603";"FINISHED";"1";"LEFT";"success";"492";"2015-02-12 13:55:05.591";"100";"F6";"NF6";;;;;;;;;;;;;;;;;;;;;;;;;;;;;;;;;;;;;;;;;;;;;;;;;;;;;;;;;;;;;;;;;;;;;;;;;;;;;;;;
"C1307286";;;"Windows 7";"Rachel's Experiment (DP)";"1.0";"3";"1";"1";"3";"1";"1";"2015-02-12 13:40:29.712";"2015-02-12 13:55:54.824";"1";"1";"1";"239";"238";"module.DP_Block1.exec-5350.DP_block1";"2010";"2015-02-12 13:55:10.739";"FINISHED";"1";"LEFT";"success";"444";"2015-02-12 13:55:08.726";"100";"NF5";"F5";;;;;;;;;;;;;;;;;;;;;;;;;;;;;;;;;;;;;;;;;;;;;;;;;;;;;;;;;;;;;;;;;;;;;;;;;;;;;;;;
"C1307286";;;"Windows 7";"Rachel's Experiment (DP)";"1.0";"3";"1";"1";"3";"1";"1";"2015-02-12 13:40:29.712";"2015-02-12 13:55:54.824";"1";"1";"1";"240";"239";"module.DP_Block1.exec-5350.DP_block1";"2010";"2015-02-12 13:55:13.874";"FINISHED";"1";"LEFT";"success";"444";"2015-02-12 13:55:11.862";"100";"NF10";"F10";;;;;;;;;;;;;;;;;;;;;;;;;;;;;;;;;;;;;;;;;;;;;;;;;;;;;;;;;;;;;;;;;;;;;;;;;;;;;;;;
"C1307286";;;"Windows 7";"Rachel's Experiment (DP)";"1.0";"3";"1";"1";"3";"1";"1";"2015-02-12 13:40:29.712";"2015-02-12 13:55:54.824";"1";"1";"1";"241";"240";"module.DP_Block1.exec-5350.DP_block1";"2010";"2015-02-12 13:55:17.010";"FINISHED";"2";"RIGHT";"success";"453";"2015-02-12 13:55:14.998";"100";"NF17";"F17";;;;;;;;;;;;;;;;;;;;;;;;;;;;;;;;;;;;;;;;;;;;;;;;;;;;;;;;;;;;;;;;;;;;;;;;;;;;;;;;
"C1307286";;;"Windows 7";"Rachel's Experiment (DP)";"1.0";"3";"1";"1";"3";"1";"1";"2015-02-12 13:40:29.712";"2015-02-12 13:55:54.824";"1";"1";"1";"242";"241";"module.DP_Block1.exec-5350.DP_block1";"2010";"2015-02-12 13:55:20.146";"FINISHED";"2";"RIGHT";"success";"445";"2015-02-12 13:55:18.133";"100";"F2";"NF2";;;;;;;;;;;;;;;;;;;;;;;;;;;;;;;;;;;;;;;;;;;;;;;;;;;;;;;;;;;;;;;;;;;;;;;;;;;;;;;;
