"user.name";"user.yearOfBirth";"user.sex";"user.osName";"module.name";"module.version";"module.online.subject.code";"module.online.study.id";"module.online.module.nr";"module.online.group.nr";"session.id";"session.index";"session.startTime";"session.endTime";"session.completed";"session.node-8911.conditionType";"session.node-9493.DevalQorder";"trial.id";"trial.index";"trial.name";"trial.deval1.durationTime";"trial.deval1.endTime";"trial.deval1.icon";"trial.deval1.Resp_Attractive";"trial.deval1.Resp_Eat";"trial.deval1.Resp_Taste";"trial.deval1.RT_Attractive";"trial.deval1.RT_Eat";"trial.deval1.RT_Taste";"trial.deval1.startTime";"trial.deval1.stimulus type";"trial.devalPractice.durationTime";"trial.devalPractice.endTime";"trial.devalPractice.icon";"trial.devalPractice.Resp_Attractive";"trial.devalPractice.Resp_Eat";"trial.devalPractice.Resp_Taste";"trial.devalPractice.RT_Attractive";"trial.devalPractice.RT_Eat";"trial.devalPractice.RT_Taste";"trial.devalPractice.startTime";"trial.devalPractice.stimulus type";"trial.GoNoGo1.durationTime";"trial.GoNoGo1.endTime";"trial.GoNoGo1.Error Type";"trial.GoNoGo1.icon";"trial.GoNoGo1.location";"trial.GoNoGo1.outcome";"trial.GoNoGo1.response";"trial.GoNoGo1.result";"trial.GoNoGo1.RT";"trial.GoNoGo1.signal";"trial.GoNoGo1.startTime";"trial.GoNoGo1.stimulus type";"trial.GoNoGo2.durationTime";"trial.GoNoGo2.endTime";"trial.GoNoGo2.Error Type";"trial.GoNoGo2.icon";"trial.GoNoGo2.location";"trial.GoNoGo2.outcome";"trial.GoNoGo2.response";"trial.GoNoGo2.result";"trial.GoNoGo2.RT";"trial.GoNoGo2.signal";"trial.GoNoGo2.startTime";"trial.GoNoGo2.stimulus type";"trial.GoNoGo3.durationTime";"trial.GoNoGo3.endTime";"trial.GoNoGo3.Error Type";"trial.GoNoGo3.icon";"trial.GoNoGo3.location";"trial.GoNoGo3.outcome";"trial.GoNoGo3.response";"trial.GoNoGo3.result";"trial.GoNoGo3.RT";"trial.GoNoGo3.signal";"trial.GoNoGo3.startTime";"trial.GoNoGo3.stimulus type";"trial.GoNoGo4.durationTime";"trial.GoNoGo4.endTime";"trial.GoNoGo4.Error Type";"trial.GoNoGo4.icon";"trial.GoNoGo4.location";"trial.GoNoGo4.outcome";"trial.GoNoGo4.response";"trial.GoNoGo4.result";"trial.GoNoGo4.RT";"trial.GoNoGo4.signal";"trial.GoNoGo4.startTime";"trial.GoNoGo4.stimulus type";"trial.GoNoGo_Practice.durationTime";"trial.GoNoGo_Practice.endTime";"trial.GoNoGo_Practice.icon";"trial.GoNoGo_Practice.location";"trial.GoNoGo_Practice.outcome";"trial.GoNoGo_Practice.response";"trial.GoNoGo_Practice.result";"trial.GoNoGo_Practice.RT";"trial.GoNoGo_Practice.signal";"trial.GoNoGo_Practice.startTime";"trial.GoNoGo_Practice.stimulus type";"trial.GoNoGo_Tutorial.durationTime";"trial.GoNoGo_Tutorial.endTime";"trial.GoNoGo_Tutorial.icon";"trial.GoNoGo_Tutorial.location";"trial.GoNoGo_Tutorial.outcome";"trial.GoNoGo_Tutorial.response";"trial.GoNoGo_Tutorial.result";"trial.GoNoGo_Tutorial.RT";"trial.GoNoGo_Tutorial.signal";"trial.GoNoGo_Tutorial.startTime"
"ra-test";;;"Windows 7";"Rachel's Experiment (D.T.)";"1.0";"2";"1";"1";"2";"2";"1";"2014-07-07 13:00:23.206";"2014-07-07 13:09:42.392";"1";"1";"0";"496";"0";"module.GoNoGotutorial.exec-9900.GoNoGo_Tutorial";;;;;;;;;;;;;;;;;;;;;;;;;;;;;;;;;;;;;;;;;;;;;;;;;;;;;;;;;;;;;;;;;;;;;;;;;;;;;;;;;;"3999";"2014-07-07 13:01:00.692";"leftResponse";"0";"FINISHED";"NONE";"failure";"0";"0";"2014-07-07 13:00:56.684"
"ra-test";;;"Windows 7";"Rachel's Experiment (D.T.)";"1.0";"2";"1";"1";"2";"2";"1";"2014-07-07 13:00:23.206";"2014-07-07 13:09:42.392";"1";"1";"0";"497";"1";"module.GoNoGotutorial.exec-9900.GoNoGo_Tutorial";;;;;;;;;;;;;;;;;;;;;;;;;;;;;;;;;;;;;;;;;;;;;;;;;;;;;;;;;;;;;;;;;;;;;;;;;;;;;;;;;;"3998";"2014-07-07 13:01:05.967";"rightResponse";"1";"FINISHED";"NONE";"failure";"0";"0";"2014-07-07 13:01:01.962"
"ra-test";;;"Windows 7";"Rachel's Experiment (D.T.)";"1.0";"2";"1";"1";"2";"2";"1";"2014-07-07 13:00:23.206";"2014-07-07 13:09:42.392";"1";"1";"0";"498";"2";"module.GoNoGotutorial.exec-9900.GoNoGo_Tutorial";;;;;;;;;;;;;;;;;;;;;;;;;;;;;;;;;;;;;;;;;;;;;;;;;;;;;;;;;;;;;;;;;;;;;;;;;;;;;;;;;;"3998";"2014-07-07 13:01:11.242";"signalResponse";"0";"FINISHED";"NONE";"success";"0";"1";"2014-07-07 13:01:07.237"
"ra-test";;;"Windows 7";"Rachel's Experiment (D.T.)";"1.0";"2";"1";"1";"2";"2";"1";"2014-07-07 13:00:23.206";"2014-07-07 13:09:42.392";"1";"1";"0";"499";"3";"module.GoNoGopractice.exec-2748.GoNoGo_Practice";;;;;;;;;;;;;;;;;;;;;;;;;;;;;;;;;;;;;;;;;;;;;;;;;;;;;;;;;;;;;;;;;;;;;;;"1947";"2014-07-07 13:01:19.302";"18";"0";"FINISHED";"NONE";"failure";"0";"0";"2014-07-07 13:01:17.352";"3";;;;;;;;;;
"ra-test";;;"Windows 7";"Rachel's Experiment (D.T.)";"1.0";"2";"1";"1";"2";"2";"1";"2014-07-07 13:00:23.206";"2014-07-07 13:09:42.392";"1";"1";"0";"500";"4";"module.GoNoGopractice.exec-2748.GoNoGo_Practice";;;;;;;;;;;;;;;;;;;;;;;;;;;;;;;;;;;;;;;;;;;;;;;;;;;;;;;;;;;;;;;;;;;;;;;"1940";"2014-07-07 13:01:22.527";"21";"1";"FINISHED";"NONE";"failure";"0";"0";"2014-07-07 13:01:20.577";"3";;;;;;;;;;
"ra-test";;;"Windows 7";"Rachel's Experiment (D.T.)";"1.0";"2";"1";"1";"2";"2";"1";"2014-07-07 13:00:23.206";"2014-07-07 13:09:42.392";"1";"1";"0";"501";"5";"module.GoNoGopractice.exec-2748.GoNoGo_Practice";;;;;;;;;;;;;;;;;;;;;;;;;;;;;;;;;;;;;;;;;;;;;;;;;;;;;;;;;;;;;;;;;;;;;;;"1952";"2014-07-07 13:01:25.757";"14";"1";"FINISHED";"NONE";"success";"0";"1";"2014-07-07 13:01:23.802";"2";;;;;;;;;;
"ra-test";;;"Windows 7";"Rachel's Experiment (D.T.)";"1.0";"2";"1";"1";"2";"2";"1";"2014-07-07 13:00:23.206";"2014-07-07 13:09:42.392";"1";"1";"0";"502";"6";"module.GoNoGopractice.exec-2748.GoNoGo_Practice";;;;;;;;;;;;;;;;;;;;;;;;;;;;;;;;;;;;;;;;;;;;;;;;;;;;;;;;;;;;;;;;;;;;;;;"1946";"2014-07-07 13:01:28.990";"26";"0";"FINISHED";"NONE";"failure";"0";"0";"2014-07-07 13:01:27.035";"3";;;;;;;;;;
"ra-test";;;"Windows 7";"Rachel's Experiment (D.T.)";"1.0";"2";"1";"1";"2";"2";"1";"2014-07-07 13:00:23.206";"2014-07-07 13:09:42.392";"1";"1";"0";"503";"7";"module.GoNoGopractice.exec-2748.GoNoGo_Practice";;;;;;;;;;;;;;;;;;;;;;;;;;;;;;;;;;;;;;;;;;;;;;;;;;;;;;;;;;;;;;;;;;;;;;;"1947";"2014-07-07 13:01:32.210";"2";"0";"FINISHED";"NONE";"failure";"0";"0";"2014-07-07 13:01:30.255";"1";;;;;;;;;;
"ra-test";;;"Windows 7";"Rachel's Experiment (D.T.)";"1.0";"2";"1";"1";"2";"2";"1";"2014-07-07 13:00:23.206";"2014-07-07 13:09:42.392";"1";"1";"0";"504";"8";"module.GoNoGopractice.exec-2748.GoNoGo_Practice";;;;;;;;;;;;;;;;;;;;;;;;;;;;;;;;;;;;;;;;;;;;;;;;;;;;;;;;;;;;;;;;;;;;;;;"1952";"2014-07-07 13:01:35.435";"30";"0";"FINISHED";"NONE";"success";"0";"1";"2014-07-07 13:01:33.480";"3";;;;;;;;;;
"ra-test";;;"Windows 7";"Rachel's Experiment (D.T.)";"1.0";"2";"1";"1";"2";"2";"1";"2014-07-07 13:00:23.206";"2014-07-07 13:09:42.392";"1";"1";"0";"505";"9";"module.GoNoGopractice.exec-2748.GoNoGo_Practice";;;;;;;;;;;;;;;;;;;;;;;;;;;;;;;;;;;;;;;;;;;;;;;;;;;;;;;;;;;;;;;;;;;;;;;"1952";"2014-07-07 13:01:38.660";"6";"1";"FINISHED";"NONE";"success";"0";"1";"2014-07-07 13:01:36.705";"1";;;;;;;;;;
"ra-test";;;"Windows 7";"Rachel's Experiment (D.T.)";"1.0";"2";"1";"1";"2";"2";"1";"2014-07-07 13:00:23.206";"2014-07-07 13:09:42.392";"1";"1";"0";"506";"10";"module.GoNoGopractice.exec-2748.GoNoGo_Practice";;;;;;;;;;;;;;;;;;;;;;;;;;;;;;;;;;;;;;;;;;;;;;;;;;;;;;;;;;;;;;;;;;;;;;;"1957";"2014-07-07 13:01:41.890";"34";"0";"FINISHED";"NONE";"failure";"0";"0";"2014-07-07 13:01:39.930";"3";;;;;;;;;;
"ra-test";;;"Windows 7";"Rachel's Experiment (D.T.)";"1.0";"2";"1";"1";"2";"2";"1";"2014-07-07 13:00:23.206";"2014-07-07 13:09:42.392";"1";"1";"0";"507";"11";"module.GoNoGopractice.exec-2748.GoNoGo_Practice";;;;;;;;;;;;;;;;;;;;;;;;;;;;;;;;;;;;;;;;;;;;;;;;;;;;;;;;;;;;;;;;;;;;;;;"1955";"2014-07-07 13:01:45.122";"23";"1";"FINISHED";"NONE";"failure";"0";"0";"2014-07-07 13:01:43.165";"3";;;;;;;;;;
"ra-test";;;"Windows 7";"Rachel's Experiment (D.T.)";"1.0";"2";"1";"1";"2";"2";"1";"2014-07-07 13:00:23.206";"2014-07-07 13:09:42.392";"1";"1";"0";"508";"12";"module.GoNoGopractice.exec-2748.GoNoGo_Practice";;;;;;;;;;;;;;;;;;;;;;;;;;;;;;;;;;;;;;;;;;;;;;;;;;;;;;;;;;;;;;;;;;;;;;;"1947";"2014-07-07 13:01:48.347";"13";"0";"FINISHED";"NONE";"success";"0";"1";"2014-07-07 13:01:46.392";"2";;;;;;;;;;
"ra-test";;;"Windows 7";"Rachel's Experiment (D.T.)";"1.0";"2";"1";"1";"2";"2";"1";"2014-07-07 13:00:23.206";"2014-07-07 13:09:42.392";"1";"1";"0";"509";"13";"module.GoNoGopractice.exec-2748.GoNoGo_Practice";;;;;;;;;;;;;;;;;;;;;;;;;;;;;;;;;;;;;;;;;;;;;;;;;;;;;;;;;;;;;;;;;;;;;;;"1943";"2014-07-07 13:01:51.567";"3";"1";"FINISHED";"NONE";"failure";"0";"0";"2014-07-07 13:01:49.617";"1";;;;;;;;;;
"ra-test";;;"Windows 7";"Rachel's Experiment (D.T.)";"1.0";"2";"1";"1";"2";"2";"1";"2014-07-07 13:00:23.206";"2014-07-07 13:09:42.392";"1";"1";"0";"510";"14";"module.GoNoGopractice.exec-2748.GoNoGo_Practice";;;;;;;;;;;;;;;;;;;;;;;;;;;;;;;;;;;;;;;;;;;;;;;;;;;;;;;;;;;;;;;;;;;;;;;"1960";"2014-07-07 13:01:54.800";"27";"1";"FINISHED";"NONE";"success";"0";"1";"2014-07-07 13:01:52.837";"3";;;;;;;;;;
"ra-test";;;"Windows 7";"Rachel's Experiment (D.T.)";"1.0";"2";"1";"1";"2";"2";"1";"2014-07-07 13:00:23.206";"2014-07-07 13:09:42.392";"1";"1";"0";"511";"15";"module.training_block1.exec-5410.GoNoGo1";;;;;;;;;;;;;;;;;;;;;;;"1251";"2014-07-07 13:02:06.460";"ST_correctStop";"7";"1";"FINISHED";"NONE";"success";"0";"1";"2014-07-07 13:02:05.205";"1";;;;;;;;;;;;;;;;;;;;;;;;;;;;;;;;;;;;;;;;;;;;;;;;;;;;;;;;;
"ra-test";;;"Windows 7";"Rachel's Experiment (D.T.)";"1.0";"2";"1";"1";"2";"2";"1";"2014-07-07 13:00:23.206";"2014-07-07 13:09:42.392";"1";"1";"0";"512";"16";"module.training_block1.exec-5410.GoNoGo1";;;;;;;;;;;;;;;;;;;;;;;"1247";"2014-07-07 13:02:08.987";"ST_correctStop";"18";"1";"FINISHED";"NONE";"success";"0";"1";"2014-07-07 13:02:07.737";"3";;;;;;;;;;;;;;;;;;;;;;;;;;;;;;;;;;;;;;;;;;;;;;;;;;;;;;;;;
"ra-test";;;"Windows 7";"Rachel's Experiment (D.T.)";"1.0";"2";"1";"1";"2";"2";"1";"2014-07-07 13:00:23.206";"2014-07-07 13:09:42.392";"1";"1";"0";"513";"17";"module.training_block1.exec-5410.GoNoGo1";;;;;;;;;;;;;;;;;;;;;;;"1247";"2014-07-07 13:02:11.512";"NST_miss";"14";"1";"FINISHED";"NONE";"failure";"0";"0";"2014-07-07 13:02:10.262";"2";;;;;;;;;;;;;;;;;;;;;;;;;;;;;;;;;;;;;;;;;;;;;;;;;;;;;;;;;
"ra-test";;;"Windows 7";"Rachel's Experiment (D.T.)";"1.0";"2";"1";"1";"2";"2";"1";"2014-07-07 13:00:23.206";"2014-07-07 13:09:42.392";"1";"1";"0";"514";"18";"module.training_block1.exec-5410.GoNoGo1";;;;;;;;;;;;;;;;;;;;;;;"1247";"2014-07-07 13:02:14.037";"NST_miss";"21";"0";"FINISHED";"NONE";"failure";"0";"0";"2014-07-07 13:02:12.787";"3";;;;;;;;;;;;;;;;;;;;;;;;;;;;;;;;;;;;;;;;;;;;;;;;;;;;;;;;;
"ra-test";;;"Windows 7";"Rachel's Experiment (D.T.)";"1.0";"2";"1";"1";"2";"2";"1";"2014-07-07 13:00:23.206";"2014-07-07 13:09:42.392";"1";"1";"0";"515";"19";"module.training_block1.exec-5410.GoNoGo1";;;;;;;;;;;;;;;;;;;;;;;"1252";"2014-07-07 13:02:16.567";"NST_miss";"11";"0";"FINISHED";"NONE";"failure";"0";"0";"2014-07-07 13:02:15.312";"2";;;;;;;;;;;;;;;;;;;;;;;;;;;;;;;;;;;;;;;;;;;;;;;;;;;;;;;;;
"ra-test";;;"Windows 7";"Rachel's Experiment (D.T.)";"1.0";"2";"1";"1";"2";"2";"1";"2014-07-07 13:00:23.206";"2014-07-07 13:09:42.392";"1";"1";"0";"516";"20";"module.training_block1.exec-5410.GoNoGo1";;;;;;;;;;;;;;;;;;;;;;;"1242";"2014-07-07 13:02:19.089";"ST_correctStop";"8";"0";"FINISHED";"NONE";"success";"0";"1";"2014-07-07 13:02:17.839";"1";;;;;;;;;;;;;;;;;;;;;;;;;;;;;;;;;;;;;;;;;;;;;;;;;;;;;;;;;
"ra-test";;;"Windows 7";"Rachel's Experiment (D.T.)";"1.0";"2";"1";"1";"2";"2";"1";"2014-07-07 13:00:23.206";"2014-07-07 13:09:42.392";"1";"1";"0";"517";"21";"module.training_block1.exec-5410.GoNoGo1";;;;;;;;;;;;;;;;;;;;;;;"1242";"2014-07-07 13:02:21.614";"NST_miss";"15";"0";"FINISHED";"NONE";"failure";"0";"0";"2014-07-07 13:02:20.364";"2";;;;;;;;;;;;;;;;;;;;;;;;;;;;;;;;;;;;;;;;;;;;;;;;;;;;;;;;;
"ra-test";;;"Windows 7";"Rachel's Experiment (D.T.)";"1.0";"2";"1";"1";"2";"2";"1";"2014-07-07 13:00:23.206";"2014-07-07 13:09:42.392";"1";"1";"0";"518";"22";"module.training_block1.exec-5410.GoNoGo1";;;;;;;;;;;;;;;;;;;;;;;"1250";"2014-07-07 13:02:24.137";"NST_miss";"20";"0";"FINISHED";"NONE";"failure";"0";"0";"2014-07-07 13:02:22.884";"3";;;;;;;;;;;;;;;;;;;;;;;;;;;;;;;;;;;;;;;;;;;;;;;;;;;;;;;;;
"ra-test";;;"Windows 7";"Rachel's Experiment (D.T.)";"1.0";"2";"1";"1";"2";"2";"1";"2014-07-07 13:00:23.206";"2014-07-07 13:09:42.392";"1";"1";"0";"519";"23";"module.training_block1.exec-5410.GoNoGo1";;;;;;;;;;;;;;;;;;;;;;;"1250";"2014-07-07 13:02:26.662";"ST_correctStop";"24";"1";"FINISHED";"NONE";"success";"0";"1";"2014-07-07 13:02:25.409";"3";;;;;;;;;;;;;;;;;;;;;;;;;;;;;;;;;;;;;;;;;;;;;;;;;;;;;;;;;
"ra-test";;;"Windows 7";"Rachel's Experiment (D.T.)";"1.0";"2";"1";"1";"2";"2";"1";"2014-07-07 13:00:23.206";"2014-07-07 13:09:42.392";"1";"1";"0";"520";"24";"module.training_block1.exec-5410.GoNoGo1";;;;;;;;;;;;;;;;;;;;;;;"1242";"2014-07-07 13:02:29.187";"ST_correctStop";"32";"1";"FINISHED";"NONE";"success";"0";"1";"2014-07-07 13:02:27.937";"3";;;;;;;;;;;;;;;;;;;;;;;;;;;;;;;;;;;;;;;;;;;;;;;;;;;;;;;;;
"ra-test";;;"Windows 7";"Rachel's Experiment (D.T.)";"1.0";"2";"1";"1";"2";"2";"1";"2014-07-07 13:00:23.206";"2014-07-07 13:09:42.392";"1";"1";"0";"521";"25";"module.training_block1.exec-5410.GoNoGo1";;;;;;;;;;;;;;;;;;;;;;;"1252";"2014-07-07 13:02:31.717";"ST_correctStop";"2";"1";"FINISHED";"NONE";"success";"0";"1";"2014-07-07 13:02:30.462";"1";;;;;;;;;;;;;;;;;;;;;;;;;;;;;;;;;;;;;;;;;;;;;;;;;;;;;;;;;
"ra-test";;;"Windows 7";"Rachel's Experiment (D.T.)";"1.0";"2";"1";"1";"2";"2";"1";"2014-07-07 13:00:23.206";"2014-07-07 13:09:42.392";"1";"1";"0";"522";"26";"module.training_block1.exec-5410.GoNoGo1";;;;;;;;;;;;;;;;;;;;;;;"1247";"2014-07-07 13:02:34.239";"ST_correctStop";"26";"1";"FINISHED";"NONE";"success";"0";"1";"2014-07-07 13:02:32.989";"3";;;;;;;;;;;;;;;;;;;;;;;;;;;;;;;;;;;;;;;;;;;;;;;;;;;;;;;;;
"ra-test";;;"Windows 7";"Rachel's Experiment (D.T.)";"1.0";"2";"1";"1";"2";"2";"1";"2014-07-07 13:00:23.206";"2014-07-07 13:09:42.392";"1";"1";"0";"523";"27";"module.training_block1.exec-5410.GoNoGo1";;;;;;;;;;;;;;;;;;;;;;;"1252";"2014-07-07 13:02:36.762";"ST_correctStop";"33";"0";"FINISHED";"NONE";"success";"0";"1";"2014-07-07 13:02:35.507";"3";;;;;;;;;;;;;;;;;;;;;;;;;;;;;;;;;;;;;;;;;;;;;;;;;;;;;;;;;
"ra-test";;;"Windows 7";"Rachel's Experiment (D.T.)";"1.0";"2";"1";"1";"2";"2";"1";"2014-07-07 13:00:23.206";"2014-07-07 13:09:42.392";"1";"1";"0";"524";"28";"module.training_block1.exec-5410.GoNoGo1";;;;;;;;;;;;;;;;;;;;;;;"1247";"2014-07-07 13:02:39.287";"ST_correctStop";"4";"0";"FINISHED";"NONE";"success";"0";"1";"2014-07-07 13:02:38.037";"1";;;;;;;;;;;;;;;;;;;;;;;;;;;;;;;;;;;;;;;;;;;;;;;;;;;;;;;;;
"ra-test";;;"Windows 7";"Rachel's Experiment (D.T.)";"1.0";"2";"1";"1";"2";"2";"1";"2014-07-07 13:00:23.206";"2014-07-07 13:09:42.392";"1";"1";"0";"525";"29";"module.training_block1.exec-5410.GoNoGo1";;;;;;;;;;;;;;;;;;;;;;;"1247";"2014-07-07 13:02:41.807";"ST_correctStop";"29";"0";"FINISHED";"NONE";"success";"0";"1";"2014-07-07 13:02:40.557";"3";;;;;;;;;;;;;;;;;;;;;;;;;;;;;;;;;;;;;;;;;;;;;;;;;;;;;;;;;
"ra-test";;;"Windows 7";"Rachel's Experiment (D.T.)";"1.0";"2";"1";"1";"2";"2";"1";"2014-07-07 13:00:23.206";"2014-07-07 13:09:42.392";"1";"1";"0";"526";"30";"module.training_block1.exec-5410.GoNoGo1";;;;;;;;;;;;;;;;;;;;;;;"1247";"2014-07-07 13:02:44.329";"NST_miss";"34";"0";"FINISHED";"NONE";"failure";"0";"0";"2014-07-07 13:02:43.079";"3";;;;;;;;;;;;;;;;;;;;;;;;;;;;;;;;;;;;;;;;;;;;;;;;;;;;;;;;;
"ra-test";;;"Windows 7";"Rachel's Experiment (D.T.)";"1.0";"2";"1";"1";"2";"2";"1";"2014-07-07 13:00:23.206";"2014-07-07 13:09:42.392";"1";"1";"0";"527";"31";"module.training_block1.exec-5410.GoNoGo1";;;;;;;;;;;;;;;;;;;;;;;"1247";"2014-07-07 13:02:46.854";"ST_correctStop";"3";"0";"FINISHED";"NONE";"success";"0";"1";"2014-07-07 13:02:45.604";"1";;;;;;;;;;;;;;;;;;;;;;;;;;;;;;;;;;;;;;;;;;;;;;;;;;;;;;;;;
"ra-test";;;"Windows 7";"Rachel's Experiment (D.T.)";"1.0";"2";"1";"1";"2";"2";"1";"2014-07-07 13:00:23.206";"2014-07-07 13:09:42.392";"1";"1";"0";"528";"32";"module.training_block1.exec-5410.GoNoGo1";;;;;;;;;;;;;;;;;;;;;;;"1247";"2014-07-07 13:02:49.379";"NST_miss";"30";"1";"FINISHED";"NONE";"failure";"0";"0";"2014-07-07 13:02:48.129";"3";;;;;;;;;;;;;;;;;;;;;;;;;;;;;;;;;;;;;;;;;;;;;;;;;;;;;;;;;
"ra-test";;;"Windows 7";"Rachel's Experiment (D.T.)";"1.0";"2";"1";"1";"2";"2";"1";"2014-07-07 13:00:23.206";"2014-07-07 13:09:42.392";"1";"1";"0";"529";"33";"module.training_block1.exec-5410.GoNoGo1";;;;;;;;;;;;;;;;;;;;;;;"1247";"2014-07-07 13:02:51.904";"NST_miss";"9";"0";"FINISHED";"NONE";"failure";"0";"0";"2014-07-07 13:02:50.654";"2";;;;;;;;;;;;;;;;;;;;;;;;;;;;;;;;;;;;;;;;;;;;;;;;;;;;;;;;;
"ra-test";;;"Windows 7";"Rachel's Experiment (D.T.)";"1.0";"2";"1";"1";"2";"2";"1";"2014-07-07 13:00:23.206";"2014-07-07 13:09:42.392";"1";"1";"0";"530";"34";"module.training_block1.exec-5410.GoNoGo1";;;;;;;;;;;;;;;;;;;;;;;"1252";"2014-07-07 13:02:54.429";"NST_miss";"27";"0";"FINISHED";"NONE";"failure";"0";"0";"2014-07-07 13:02:53.174";"3";;;;;;;;;;;;;;;;;;;;;;;;;;;;;;;;;;;;;;;;;;;;;;;;;;;;;;;;;
"ra-test";;;"Windows 7";"Rachel's Experiment (D.T.)";"1.0";"2";"1";"1";"2";"2";"1";"2014-07-07 13:00:23.206";"2014-07-07 13:09:42.392";"1";"1";"0";"531";"35";"module.training_block1.exec-5410.GoNoGo1";;;;;;;;;;;;;;;;;;;;;;;"1252";"2014-07-07 13:02:56.962";"ST_correctStop";"0";"0";"FINISHED";"NONE";"success";"0";"1";"2014-07-07 13:02:55.707";"1";;;;;;;;;;;;;;;;;;;;;;;;;;;;;;;;;;;;;;;;;;;;;;;;;;;;;;;;;
"ra-test";;;"Windows 7";"Rachel's Experiment (D.T.)";"1.0";"2";"1";"1";"2";"2";"1";"2014-07-07 13:00:23.206";"2014-07-07 13:09:42.392";"1";"1";"0";"532";"36";"module.training_block1.exec-5410.GoNoGo1";;;;;;;;;;;;;;;;;;;;;;;"1246";"2014-07-07 13:02:59.491";"ST_correctStop";"28";"1";"FINISHED";"NONE";"success";"0";"1";"2014-07-07 13:02:58.237";"3";;;;;;;;;;;;;;;;;;;;;;;;;;;;;;;;;;;;;;;;;;;;;;;;;;;;;;;;;
"ra-test";;;"Windows 7";"Rachel's Experiment (D.T.)";"1.0";"2";"1";"1";"2";"2";"1";"2014-07-07 13:00:23.206";"2014-07-07 13:09:42.392";"1";"1";"0";"533";"37";"module.training_block1.exec-5410.GoNoGo1";;;;;;;;;;;;;;;;;;;;;;;"1247";"2014-07-07 13:03:02.016";"ST_correctStop";"1";"1";"FINISHED";"NONE";"success";"0";"1";"2014-07-07 13:03:00.766";"1";;;;;;;;;;;;;;;;;;;;;;;;;;;;;;;;;;;;;;;;;;;;;;;;;;;;;;;;;
"ra-test";;;"Windows 7";"Rachel's Experiment (D.T.)";"1.0";"2";"1";"1";"2";"2";"1";"2014-07-07 13:00:23.206";"2014-07-07 13:09:42.392";"1";"1";"0";"534";"38";"module.training_block1.exec-5410.GoNoGo1";;;;;;;;;;;;;;;;;;;;;;;"1249";"2014-07-07 13:03:04.549";"NST_miss";"23";"1";"FINISHED";"NONE";"failure";"0";"0";"2014-07-07 13:03:03.299";"3";;;;;;;;;;;;;;;;;;;;;;;;;;;;;;;;;;;;;;;;;;;;;;;;;;;;;;;;;
"ra-test";;;"Windows 7";"Rachel's Experiment (D.T.)";"1.0";"2";"1";"1";"2";"2";"1";"2014-07-07 13:00:23.206";"2014-07-07 13:09:42.392";"1";"1";"0";"535";"39";"module.training_block1.exec-5410.GoNoGo1";;;;;;;;;;;;;;;;;;;;;;;"1247";"2014-07-07 13:03:07.074";"ST_correctStop";"6";"1";"FINISHED";"NONE";"success";"0";"1";"2014-07-07 13:03:05.824";"1";;;;;;;;;;;;;;;;;;;;;;;;;;;;;;;;;;;;;;;;;;;;;;;;;;;;;;;;;
"ra-test";;;"Windows 7";"Rachel's Experiment (D.T.)";"1.0";"2";"1";"1";"2";"2";"1";"2014-07-07 13:00:23.206";"2014-07-07 13:09:42.392";"1";"1";"0";"536";"40";"module.training_block1.exec-5410.GoNoGo1";;;;;;;;;;;;;;;;;;;;;;;"1252";"2014-07-07 13:03:09.606";"NST_miss";"35";"1";"FINISHED";"NONE";"failure";"0";"0";"2014-07-07 13:03:08.351";"3";;;;;;;;;;;;;;;;;;;;;;;;;;;;;;;;;;;;;;;;;;;;;;;;;;;;;;;;;
"ra-test";;;"Windows 7";"Rachel's Experiment (D.T.)";"1.0";"2";"1";"1";"2";"2";"1";"2014-07-07 13:00:23.206";"2014-07-07 13:09:42.392";"1";"1";"0";"537";"41";"module.training_block1.exec-5410.GoNoGo1";;;;;;;;;;;;;;;;;;;;;;;"1255";"2014-07-07 13:03:12.134";"NST_miss";"12";"1";"FINISHED";"NONE";"failure";"0";"0";"2014-07-07 13:03:10.876";"2";;;;;;;;;;;;;;;;;;;;;;;;;;;;;;;;;;;;;;;;;;;;;;;;;;;;;;;;;
"ra-test";;;"Windows 7";"Rachel's Experiment (D.T.)";"1.0";"2";"1";"1";"2";"2";"1";"2014-07-07 13:00:23.206";"2014-07-07 13:09:42.392";"1";"1";"0";"538";"42";"module.training_block1.exec-5410.GoNoGo1";;;;;;;;;;;;;;;;;;;;;;;"1248";"2014-07-07 13:03:14.659";"ST_correctStop";"5";"1";"FINISHED";"NONE";"success";"0";"1";"2014-07-07 13:03:13.404";"1";;;;;;;;;;;;;;;;;;;;;;;;;;;;;;;;;;;;;;;;;;;;;;;;;;;;;;;;;
"ra-test";;;"Windows 7";"Rachel's Experiment (D.T.)";"1.0";"2";"1";"1";"2";"2";"1";"2014-07-07 13:00:23.206";"2014-07-07 13:09:42.392";"1";"1";"0";"539";"43";"module.training_block1.exec-5410.GoNoGo1";;;;;;;;;;;;;;;;;;;;;;;"1250";"2014-07-07 13:03:17.186";"ST_correctStop";"19";"0";"FINISHED";"NONE";"success";"0";"1";"2014-07-07 13:03:15.934";"3";;;;;;;;;;;;;;;;;;;;;;;;;;;;;;;;;;;;;;;;;;;;;;;;;;;;;;;;;
"ra-test";;;"Windows 7";"Rachel's Experiment (D.T.)";"1.0";"2";"1";"1";"2";"2";"1";"2014-07-07 13:00:23.206";"2014-07-07 13:09:42.392";"1";"1";"0";"540";"44";"module.training_block1.exec-5410.GoNoGo1";;;;;;;;;;;;;;;;;;;;;;;"1248";"2014-07-07 13:03:19.714";"NST_miss";"16";"1";"FINISHED";"NONE";"failure";"0";"0";"2014-07-07 13:03:18.459";"2";;;;;;;;;;;;;;;;;;;;;;;;;;;;;;;;;;;;;;;;;;;;;;;;;;;;;;;;;
"ra-test";;;"Windows 7";"Rachel's Experiment (D.T.)";"1.0";"2";"1";"1";"2";"2";"1";"2014-07-07 13:00:23.206";"2014-07-07 13:09:42.392";"1";"1";"0";"541";"45";"module.training_block1.exec-5410.GoNoGo1";;;;;;;;;;;;;;;;;;;;;;;"1245";"2014-07-07 13:03:22.238";"NST_miss";"13";"1";"FINISHED";"NONE";"failure";"0";"0";"2014-07-07 13:03:20.986";"2";;;;;;;;;;;;;;;;;;;;;;;;;;;;;;;;;;;;;;;;;;;;;;;;;;;;;;;;;
"ra-test";;;"Windows 7";"Rachel's Experiment (D.T.)";"1.0";"2";"1";"1";"2";"2";"1";"2014-07-07 13:00:23.206";"2014-07-07 13:09:42.392";"1";"1";"0";"542";"46";"module.training_block1.exec-5410.GoNoGo1";;;;;;;;;;;;;;;;;;;;;;;"1250";"2014-07-07 13:03:24.766";"NST_miss";"31";"0";"FINISHED";"NONE";"failure";"0";"0";"2014-07-07 13:03:23.513";"3";;;;;;;;;;;;;;;;;;;;;;;;;;;;;;;;;;;;;;;;;;;;;;;;;;;;;;;;;
"ra-test";;;"Windows 7";"Rachel's Experiment (D.T.)";"1.0";"2";"1";"1";"2";"2";"1";"2014-07-07 13:00:23.206";"2014-07-07 13:09:42.392";"1";"1";"0";"543";"47";"module.training_block1.exec-5410.GoNoGo1";;;;;;;;;;;;;;;;;;;;;;;"1247";"2014-07-07 13:03:27.287";"NST_miss";"17";"1";"FINISHED";"NONE";"failure";"0";"0";"2014-07-07 13:03:26.037";"2";;;;;;;;;;;;;;;;;;;;;;;;;;;;;;;;;;;;;;;;;;;;;;;;;;;;;;;;;
"ra-test";;;"Windows 7";"Rachel's Experiment (D.T.)";"1.0";"2";"1";"1";"2";"2";"1";"2014-07-07 13:00:23.206";"2014-07-07 13:09:42.392";"1";"1";"0";"544";"48";"module.training_block1.exec-5410.GoNoGo1";;;;;;;;;;;;;;;;;;;;;;;"1242";"2014-07-07 13:03:29.812";"NST_miss";"25";"0";"FINISHED";"NONE";"failure";"0";"0";"2014-07-07 13:03:28.562";"3";;;;;;;;;;;;;;;;;;;;;;;;;;;;;;;;;;;;;;;;;;;;;;;;;;;;;;;;;
"ra-test";;;"Windows 7";"Rachel's Experiment (D.T.)";"1.0";"2";"1";"1";"2";"2";"1";"2014-07-07 13:00:23.206";"2014-07-07 13:09:42.392";"1";"1";"0";"545";"49";"module.training_block1.exec-5410.GoNoGo1";;;;;;;;;;;;;;;;;;;;;;;"1250";"2014-07-07 13:03:32.342";"ST_correctStop";"22";"0";"FINISHED";"NONE";"success";"0";"1";"2014-07-07 13:03:31.087";"3";;;;;;;;;;;;;;;;;;;;;;;;;;;;;;;;;;;;;;;;;;;;;;;;;;;;;;;;;
"ra-test";;;"Windows 7";"Rachel's Experiment (D.T.)";"1.0";"2";"1";"1";"2";"2";"1";"2014-07-07 13:00:23.206";"2014-07-07 13:09:42.392";"1";"1";"0";"546";"50";"module.training_block1.exec-5410.GoNoGo1";;;;;;;;;;;;;;;;;;;;;;;"1252";"2014-07-07 13:03:34.869";"NST_miss";"10";"0";"FINISHED";"NONE";"failure";"0";"0";"2014-07-07 13:03:33.614";"2";;;;;;;;;;;;;;;;;;;;;;;;;;;;;;;;;;;;;;;;;;;;;;;;;;;;;;;;;
"ra-test";;;"Windows 7";"Rachel's Experiment (D.T.)";"1.0";"2";"1";"1";"2";"2";"1";"2014-07-07 13:00:23.206";"2014-07-07 13:09:42.392";"1";"1";"0";"547";"51";"module.training_block2.exec-1295.GoNoGo2";;;;;;;;;;;;;;;;;;;;;;;;;;;;;;;;;;;"1252";"2014-07-07 13:03:45.809";"NST_miss";"29";"1";"FINISHED";"NONE";"failure";"0";"0";"2014-07-07 13:03:44.554";"3";;;;;;;;;;;;;;;;;;;;;;;;;;;;;;;;;;;;;;;;;;;;;
"ra-test";;;"Windows 7";"Rachel's Experiment (D.T.)";"1.0";"2";"1";"1";"2";"2";"1";"2014-07-07 13:00:23.206";"2014-07-07 13:09:42.392";"1";"1";"0";"548";"52";"module.training_block2.exec-1295.GoNoGo2";;;;;;;;;;;;;;;;;;;;;;;;;;;;;;;;;;;"1247";"2014-07-07 13:03:48.329";"ST_correctStop";"0";"0";"FINISHED";"NONE";"success";"0";"1";"2014-07-07 13:03:47.079";"1";;;;;;;;;;;;;;;;;;;;;;;;;;;;;;;;;;;;;;;;;;;;;
"ra-test";;;"Windows 7";"Rachel's Experiment (D.T.)";"1.0";"2";"1";"1";"2";"2";"1";"2014-07-07 13:00:23.206";"2014-07-07 13:09:42.392";"1";"1";"0";"549";"53";"module.training_block2.exec-1295.GoNoGo2";;;;;;;;;;;;;;;;;;;;;;;;;;;;;;;;;;;"1252";"2014-07-07 13:03:50.854";"ST_correctStop";"5";"1";"FINISHED";"NONE";"success";"0";"1";"2014-07-07 13:03:49.599";"1";;;;;;;;;;;;;;;;;;;;;;;;;;;;;;;;;;;;;;;;;;;;;
"ra-test";;;"Windows 7";"Rachel's Experiment (D.T.)";"1.0";"2";"1";"1";"2";"2";"1";"2014-07-07 13:00:23.206";"2014-07-07 13:09:42.392";"1";"1";"0";"550";"54";"module.training_block2.exec-1295.GoNoGo2";;;;;;;;;;;;;;;;;;;;;;;;;;;;;;;;;;;"1247";"2014-07-07 13:03:53.379";"ST_correctStop";"27";"1";"FINISHED";"NONE";"success";"0";"1";"2014-07-07 13:03:52.129";"3";;;;;;;;;;;;;;;;;;;;;;;;;;;;;;;;;;;;;;;;;;;;;
"ra-test";;;"Windows 7";"Rachel's Experiment (D.T.)";"1.0";"2";"1";"1";"2";"2";"1";"2014-07-07 13:00:23.206";"2014-07-07 13:09:42.392";"1";"1";"0";"551";"55";"module.training_block2.exec-1295.GoNoGo2";;;;;;;;;;;;;;;;;;;;;;;;;;;;;;;;;;;"1252";"2014-07-07 13:03:55.909";"NST_miss";"15";"0";"FINISHED";"NONE";"failure";"0";"0";"2014-07-07 13:03:54.654";"2";;;;;;;;;;;;;;;;;;;;;;;;;;;;;;;;;;;;;;;;;;;;;
"ra-test";;;"Windows 7";"Rachel's Experiment (D.T.)";"1.0";"2";"1";"1";"2";"2";"1";"2014-07-07 13:00:23.206";"2014-07-07 13:09:42.392";"1";"1";"0";"552";"56";"module.training_block2.exec-1295.GoNoGo2";;;;;;;;;;;;;;;;;;;;;;;;;;;;;;;;;;;"1247";"2014-07-07 13:03:58.429";"NST_miss";"33";"0";"FINISHED";"NONE";"failure";"0";"0";"2014-07-07 13:03:57.179";"3";;;;;;;;;;;;;;;;;;;;;;;;;;;;;;;;;;;;;;;;;;;;;
"ra-test";;;"Windows 7";"Rachel's Experiment (D.T.)";"1.0";"2";"1";"1";"2";"2";"1";"2014-07-07 13:00:23.206";"2014-07-07 13:09:42.392";"1";"1";"0";"553";"57";"module.training_block2.exec-1295.GoNoGo2";;;;;;;;;;;;;;;;;;;;;;;;;;;;;;;;;;;"1252";"2014-07-07 13:04:00.957";"NST_miss";"14";"1";"FINISHED";"NONE";"failure";"0";"0";"2014-07-07 13:03:59.702";"2";;;;;;;;;;;;;;;;;;;;;;;;;;;;;;;;;;;;;;;;;;;;;
"ra-test";;;"Windows 7";"Rachel's Experiment (D.T.)";"1.0";"2";"1";"1";"2";"2";"1";"2014-07-07 13:00:23.206";"2014-07-07 13:09:42.392";"1";"1";"0";"554";"58";"module.training_block2.exec-1295.GoNoGo2";;;;;;;;;;;;;;;;;;;;;;;;;;;;;;;;;;;"1247";"2014-07-07 13:04:03.482";"NST_miss";"13";"0";"FINISHED";"NONE";"failure";"0";"0";"2014-07-07 13:04:02.232";"2";;;;;;;;;;;;;;;;;;;;;;;;;;;;;;;;;;;;;;;;;;;;;
"ra-test";;;"Windows 7";"Rachel's Experiment (D.T.)";"1.0";"2";"1";"1";"2";"2";"1";"2014-07-07 13:00:23.206";"2014-07-07 13:09:42.392";"1";"1";"0";"555";"59";"module.training_block2.exec-1295.GoNoGo2";;;;;;;;;;;;;;;;;;;;;;;;;;;;;;;;;;;"1252";"2014-07-07 13:04:06.007";"ST_correctStop";"3";"0";"FINISHED";"NONE";"success";"0";"1";"2014-07-07 13:04:04.752";"1";;;;;;;;;;;;;;;;;;;;;;;;;;;;;;;;;;;;;;;;;;;;;
"ra-test";;;"Windows 7";"Rachel's Experiment (D.T.)";"1.0";"2";"1";"1";"2";"2";"1";"2014-07-07 13:00:23.206";"2014-07-07 13:09:42.392";"1";"1";"0";"556";"60";"module.training_block2.exec-1295.GoNoGo2";;;;;;;;;;;;;;;;;;;;;;;;;;;;;;;;;;;"1250";"2014-07-07 13:04:08.534";"NST_miss";"30";"0";"FINISHED";"NONE";"failure";"0";"0";"2014-07-07 13:04:07.282";"3";;;;;;;;;;;;;;;;;;;;;;;;;;;;;;;;;;;;;;;;;;;;;
"ra-test";;;"Windows 7";"Rachel's Experiment (D.T.)";"1.0";"2";"1";"1";"2";"2";"1";"2014-07-07 13:00:23.206";"2014-07-07 13:09:42.392";"1";"1";"0";"557";"61";"module.training_block2.exec-1295.GoNoGo2";;;;;;;;;;;;;;;;;;;;;;;;;;;;;;;;;;;"1245";"2014-07-07 13:04:11.059";"ST_correctStop";"4";"0";"FINISHED";"NONE";"success";"0";"1";"2014-07-07 13:04:09.809";"1";;;;;;;;;;;;;;;;;;;;;;;;;;;;;;;;;;;;;;;;;;;;;
"ra-test";;;"Windows 7";"Rachel's Experiment (D.T.)";"1.0";"2";"1";"1";"2";"2";"1";"2014-07-07 13:00:23.206";"2014-07-07 13:09:42.392";"1";"1";"0";"558";"62";"module.training_block2.exec-1295.GoNoGo2";;;;;;;;;;;;;;;;;;;;;;;;;;;;;;;;;;;"1247";"2014-07-07 13:04:13.579";"ST_correctStop";"32";"1";"FINISHED";"NONE";"success";"0";"1";"2014-07-07 13:04:12.329";"3";;;;;;;;;;;;;;;;;;;;;;;;;;;;;;;;;;;;;;;;;;;;;
"ra-test";;;"Windows 7";"Rachel's Experiment (D.T.)";"1.0";"2";"1";"1";"2";"2";"1";"2014-07-07 13:00:23.206";"2014-07-07 13:09:42.392";"1";"1";"0";"559";"63";"module.training_block2.exec-1295.GoNoGo2";;;;;;;;;;;;;;;;;;;;;;;;;;;;;;;;;;;"1252";"2014-07-07 13:04:16.104";"ST_correctStop";"8";"1";"FINISHED";"NONE";"success";"0";"1";"2014-07-07 13:04:14.849";"1";;;;;;;;;;;;;;;;;;;;;;;;;;;;;;;;;;;;;;;;;;;;;
"ra-test";;;"Windows 7";"Rachel's Experiment (D.T.)";"1.0";"2";"1";"1";"2";"2";"1";"2014-07-07 13:00:23.206";"2014-07-07 13:09:42.392";"1";"1";"0";"560";"64";"module.training_block2.exec-1295.GoNoGo2";;;;;;;;;;;;;;;;;;;;;;;;;;;;;;;;;;;"1248";"2014-07-07 13:04:18.627";"NST_miss";"16";"0";"FINISHED";"NONE";"failure";"0";"0";"2014-07-07 13:04:17.377";"2";;;;;;;;;;;;;;;;;;;;;;;;;;;;;;;;;;;;;;;;;;;;;
"ra-test";;;"Windows 7";"Rachel's Experiment (D.T.)";"1.0";"2";"1";"1";"2";"2";"1";"2014-07-07 13:00:23.206";"2014-07-07 13:09:42.392";"1";"1";"0";"561";"65";"module.training_block2.exec-1295.GoNoGo2";;;;;;;;;;;;;;;;;;;;;;;;;;;;;;;;;;;"1255";"2014-07-07 13:04:21.154";"NST_miss";"11";"1";"FINISHED";"NONE";"failure";"0";"0";"2014-07-07 13:04:19.897";"2";;;;;;;;;;;;;;;;;;;;;;;;;;;;;;;;;;;;;;;;;;;;;
"ra-test";;;"Windows 7";"Rachel's Experiment (D.T.)";"1.0";"2";"1";"1";"2";"2";"1";"2014-07-07 13:00:23.206";"2014-07-07 13:09:42.392";"1";"1";"0";"562";"66";"module.training_block2.exec-1295.GoNoGo2";;;;;;;;;;;;;;;;;;;;;;;;;;;;;;;;;;;"1247";"2014-07-07 13:04:23.679";"NST_miss";"10";"1";"FINISHED";"NONE";"failure";"0";"0";"2014-07-07 13:04:22.429";"2";;;;;;;;;;;;;;;;;;;;;;;;;;;;;;;;;;;;;;;;;;;;;
"ra-test";;;"Windows 7";"Rachel's Experiment (D.T.)";"1.0";"2";"1";"1";"2";"2";"1";"2014-07-07 13:00:23.206";"2014-07-07 13:09:42.392";"1";"1";"0";"563";"67";"module.training_block2.exec-1295.GoNoGo2";;;;;;;;;;;;;;;;;;;;;;;;;;;;;;;;;;;"1252";"2014-07-07 13:04:26.209";"ST_correctStop";"25";"1";"FINISHED";"NONE";"success";"0";"1";"2014-07-07 13:04:24.954";"3";;;;;;;;;;;;;;;;;;;;;;;;;;;;;;;;;;;;;;;;;;;;;
"ra-test";;;"Windows 7";"Rachel's Experiment (D.T.)";"1.0";"2";"1";"1";"2";"2";"1";"2014-07-07 13:00:23.206";"2014-07-07 13:09:42.392";"1";"1";"0";"564";"68";"module.training_block2.exec-1295.GoNoGo2";;;;;;;;;;;;;;;;;;;;;;;;;;;;;;;;;;;"1252";"2014-07-07 13:04:28.737";"NST_miss";"17";"0";"FINISHED";"NONE";"failure";"0";"0";"2014-07-07 13:04:27.482";"2";;;;;;;;;;;;;;;;;;;;;;;;;;;;;;;;;;;;;;;;;;;;;
"ra-test";;;"Windows 7";"Rachel's Experiment (D.T.)";"1.0";"2";"1";"1";"2";"2";"1";"2014-07-07 13:00:23.206";"2014-07-07 13:09:42.392";"1";"1";"0";"565";"69";"module.training_block2.exec-1295.GoNoGo2";;;;;;;;;;;;;;;;;;;;;;;;;;;;;;;;;;;"1247";"2014-07-07 13:04:31.262";"ST_correctStop";"28";"0";"FINISHED";"NONE";"success";"0";"1";"2014-07-07 13:04:30.012";"3";;;;;;;;;;;;;;;;;;;;;;;;;;;;;;;;;;;;;;;;;;;;;
"ra-test";;;"Windows 7";"Rachel's Experiment (D.T.)";"1.0";"2";"1";"1";"2";"2";"1";"2014-07-07 13:00:23.206";"2014-07-07 13:09:42.392";"1";"1";"0";"566";"70";"module.training_block2.exec-1295.GoNoGo2";;;;;;;;;;;;;;;;;;;;;;;;;;;;;;;;;;;"1248";"2014-07-07 13:04:33.782";"NST_miss";"20";"1";"FINISHED";"NONE";"failure";"0";"0";"2014-07-07 13:04:32.532";"3";;;;;;;;;;;;;;;;;;;;;;;;;;;;;;;;;;;;;;;;;;;;;
"ra-test";;;"Windows 7";"Rachel's Experiment (D.T.)";"1.0";"2";"1";"1";"2";"2";"1";"2014-07-07 13:00:23.206";"2014-07-07 13:09:42.392";"1";"1";"0";"567";"71";"module.training_block2.exec-1295.GoNoGo2";;;;;;;;;;;;;;;;;;;;;;;;;;;;;;;;;;;"1252";"2014-07-07 13:04:36.312";"NST_miss";"22";"0";"FINISHED";"NONE";"failure";"0";"0";"2014-07-07 13:04:35.057";"3";;;;;;;;;;;;;;;;;;;;;;;;;;;;;;;;;;;;;;;;;;;;;
"ra-test";;;"Windows 7";"Rachel's Experiment (D.T.)";"1.0";"2";"1";"1";"2";"2";"1";"2014-07-07 13:00:23.206";"2014-07-07 13:09:42.392";"1";"1";"0";"568";"72";"module.training_block2.exec-1295.GoNoGo2";;;;;;;;;;;;;;;;;;;;;;;;;;;;;;;;;;;"1252";"2014-07-07 13:04:38.837";"NST_miss";"9";"1";"FINISHED";"NONE";"failure";"0";"0";"2014-07-07 13:04:37.582";"2";;;;;;;;;;;;;;;;;;;;;;;;;;;;;;;;;;;;;;;;;;;;;
"ra-test";;;"Windows 7";"Rachel's Experiment (D.T.)";"1.0";"2";"1";"1";"2";"2";"1";"2014-07-07 13:00:23.206";"2014-07-07 13:09:42.392";"1";"1";"0";"569";"73";"module.training_block2.exec-1295.GoNoGo2";;;;;;;;;;;;;;;;;;;;;;;;;;;;;;;;;;;"1247";"2014-07-07 13:04:41.357";"NST_miss";"12";"0";"FINISHED";"NONE";"failure";"0";"0";"2014-07-07 13:04:40.107";"2";;;;;;;;;;;;;;;;;;;;;;;;;;;;;;;;;;;;;;;;;;;;;
"ra-test";;;"Windows 7";"Rachel's Experiment (D.T.)";"1.0";"2";"1";"1";"2";"2";"1";"2014-07-07 13:00:23.206";"2014-07-07 13:09:42.392";"1";"1";"0";"570";"74";"module.training_block2.exec-1295.GoNoGo2";;;;;;;;;;;;;;;;;;;;;;;;;;;;;;;;;;;"1252";"2014-07-07 13:04:43.887";"ST_correctStop";"1";"1";"FINISHED";"NONE";"success";"0";"1";"2014-07-07 13:04:42.632";"1";;;;;;;;;;;;;;;;;;;;;;;;;;;;;;;;;;;;;;;;;;;;;
"ra-test";;;"Windows 7";"Rachel's Experiment (D.T.)";"1.0";"2";"1";"1";"2";"2";"1";"2014-07-07 13:00:23.206";"2014-07-07 13:09:42.392";"1";"1";"0";"571";"75";"module.training_block2.exec-1295.GoNoGo2";;;;;;;;;;;;;;;;;;;;;;;;;;;;;;;;;;;"1252";"2014-07-07 13:04:46.412";"ST_correctStop";"6";"1";"FINISHED";"NONE";"success";"0";"1";"2014-07-07 13:04:45.157";"1";;;;;;;;;;;;;;;;;;;;;;;;;;;;;;;;;;;;;;;;;;;;;
"ra-test";;;"Windows 7";"Rachel's Experiment (D.T.)";"1.0";"2";"1";"1";"2";"2";"1";"2014-07-07 13:00:23.206";"2014-07-07 13:09:42.392";"1";"1";"0";"572";"76";"module.training_block2.exec-1295.GoNoGo2";;;;;;;;;;;;;;;;;;;;;;;;;;;;;;;;;;;"1247";"2014-07-07 13:04:48.934";"NST_miss";"23";"0";"FINISHED";"NONE";"failure";"0";"0";"2014-07-07 13:04:47.684";"3";;;;;;;;;;;;;;;;;;;;;;;;;;;;;;;;;;;;;;;;;;;;;
"ra-test";;;"Windows 7";"Rachel's Experiment (D.T.)";"1.0";"2";"1";"1";"2";"2";"1";"2014-07-07 13:00:23.206";"2014-07-07 13:09:42.392";"1";"1";"0";"573";"77";"module.training_block2.exec-1295.GoNoGo2";;;;;;;;;;;;;;;;;;;;;;;;;;;;;;;;;;;"1252";"2014-07-07 13:04:51.459";"NST_miss";"19";"0";"FINISHED";"NONE";"failure";"0";"0";"2014-07-07 13:04:50.204";"3";;;;;;;;;;;;;;;;;;;;;;;;;;;;;;;;;;;;;;;;;;;;;
"ra-test";;;"Windows 7";"Rachel's Experiment (D.T.)";"1.0";"2";"1";"1";"2";"2";"1";"2014-07-07 13:00:23.206";"2014-07-07 13:09:42.392";"1";"1";"0";"574";"78";"module.training_block2.exec-1295.GoNoGo2";;;;;;;;;;;;;;;;;;;;;;;;;;;;;;;;;;;"1247";"2014-07-07 13:04:53.981";"ST_correctStop";"34";"1";"FINISHED";"NONE";"success";"0";"1";"2014-07-07 13:04:52.731";"3";;;;;;;;;;;;;;;;;;;;;;;;;;;;;;;;;;;;;;;;;;;;;
"ra-test";;;"Windows 7";"Rachel's Experiment (D.T.)";"1.0";"2";"1";"1";"2";"2";"1";"2014-07-07 13:00:23.206";"2014-07-07 13:09:42.392";"1";"1";"0";"575";"79";"module.training_block2.exec-1295.GoNoGo2";;;;;;;;;;;;;;;;;;;;;;;;;;;;;;;;;;;"1252";"2014-07-07 13:04:56.511";"ST_correctStop";"18";"1";"FINISHED";"NONE";"success";"0";"1";"2014-07-07 13:04:55.256";"3";;;;;;;;;;;;;;;;;;;;;;;;;;;;;;;;;;;;;;;;;;;;;
"ra-test";;;"Windows 7";"Rachel's Experiment (D.T.)";"1.0";"2";"1";"1";"2";"2";"1";"2014-07-07 13:00:23.206";"2014-07-07 13:09:42.392";"1";"1";"0";"576";"80";"module.training_block2.exec-1295.GoNoGo2";;;;;;;;;;;;;;;;;;;;;;;;;;;;;;;;;;;"1252";"2014-07-07 13:04:59.036";"ST_correctStop";"31";"0";"FINISHED";"NONE";"success";"0";"1";"2014-07-07 13:04:57.781";"3";;;;;;;;;;;;;;;;;;;;;;;;;;;;;;;;;;;;;;;;;;;;;
"ra-test";;;"Windows 7";"Rachel's Experiment (D.T.)";"1.0";"2";"1";"1";"2";"2";"1";"2014-07-07 13:00:23.206";"2014-07-07 13:09:42.392";"1";"1";"0";"577";"81";"module.training_block2.exec-1295.GoNoGo2";;;;;;;;;;;;;;;;;;;;;;;;;;;;;;;;;;;"1241";"2014-07-07 13:05:01.559";"ST_correctStop";"7";"0";"FINISHED";"NONE";"success";"0";"1";"2014-07-07 13:05:00.309";"1";;;;;;;;;;;;;;;;;;;;;;;;;;;;;;;;;;;;;;;;;;;;;
"ra-test";;;"Windows 7";"Rachel's Experiment (D.T.)";"1.0";"2";"1";"1";"2";"2";"1";"2014-07-07 13:00:23.206";"2014-07-07 13:09:42.392";"1";"1";"0";"578";"82";"module.training_block2.exec-1295.GoNoGo2";;;;;;;;;;;;;;;;;;;;;;;;;;;;;;;;;;;"1247";"2014-07-07 13:05:04.079";"ST_correctStop";"21";"1";"FINISHED";"NONE";"success";"0";"1";"2014-07-07 13:05:02.829";"3";;;;;;;;;;;;;;;;;;;;;;;;;;;;;;;;;;;;;;;;;;;;;
"ra-test";;;"Windows 7";"Rachel's Experiment (D.T.)";"1.0";"2";"1";"1";"2";"2";"1";"2014-07-07 13:00:23.206";"2014-07-07 13:09:42.392";"1";"1";"0";"579";"83";"module.training_block2.exec-1295.GoNoGo2";;;;;;;;;;;;;;;;;;;;;;;;;;;;;;;;;;;"1252";"2014-07-07 13:05:06.609";"ST_correctStop";"2";"1";"FINISHED";"NONE";"success";"0";"1";"2014-07-07 13:05:05.354";"1";;;;;;;;;;;;;;;;;;;;;;;;;;;;;;;;;;;;;;;;;;;;;
"ra-test";;;"Windows 7";"Rachel's Experiment (D.T.)";"1.0";"2";"1";"1";"2";"2";"1";"2014-07-07 13:00:23.206";"2014-07-07 13:09:42.392";"1";"1";"0";"580";"84";"module.training_block2.exec-1295.GoNoGo2";;;;;;;;;;;;;;;;;;;;;;;;;;;;;;;;;;;"1252";"2014-07-07 13:05:09.136";"NST_miss";"26";"1";"FINISHED";"NONE";"failure";"0";"0";"2014-07-07 13:05:07.881";"3";;;;;;;;;;;;;;;;;;;;;;;;;;;;;;;;;;;;;;;;;;;;;
"ra-test";;;"Windows 7";"Rachel's Experiment (D.T.)";"1.0";"2";"1";"1";"2";"2";"1";"2014-07-07 13:00:23.206";"2014-07-07 13:09:42.392";"1";"1";"0";"581";"85";"module.training_block2.exec-1295.GoNoGo2";;;;;;;;;;;;;;;;;;;;;;;;;;;;;;;;;;;"1252";"2014-07-07 13:05:11.661";"NST_miss";"24";"1";"FINISHED";"NONE";"failure";"0";"0";"2014-07-07 13:05:10.409";"3";;;;;;;;;;;;;;;;;;;;;;;;;;;;;;;;;;;;;;;;;;;;;
"ra-test";;;"Windows 7";"Rachel's Experiment (D.T.)";"1.0";"2";"1";"1";"2";"2";"1";"2014-07-07 13:00:23.206";"2014-07-07 13:09:42.392";"1";"1";"0";"582";"86";"module.training_block2.exec-1295.GoNoGo2";;;;;;;;;;;;;;;;;;;;;;;;;;;;;;;;;;;"1252";"2014-07-07 13:05:14.186";"ST_correctStop";"35";"1";"FINISHED";"NONE";"success";"0";"1";"2014-07-07 13:05:12.931";"3";;;;;;;;;;;;;;;;;;;;;;;;;;;;;;;;;;;;;;;;;;;;;
"ra-test";;;"Windows 7";"Rachel's Experiment (D.T.)";"1.0";"2";"1";"1";"2";"2";"1";"2014-07-07 13:00:23.206";"2014-07-07 13:09:42.392";"1";"1";"0";"583";"87";"module.training_block3.exec-7498.GoNoGo3";;;;;;;;;;;;;;;;;;;;;;;;;;;;;;;;;;;;;;;;;;;;;;;"1249";"2014-07-07 13:05:26.401";"NST_miss";"14";"0";"FINISHED";"NONE";"failure";"0";"0";"2014-07-07 13:05:25.149";"2";;;;;;;;;;;;;;;;;;;;;;;;;;;;;;;;;
"ra-test";;;"Windows 7";"Rachel's Experiment (D.T.)";"1.0";"2";"1";"1";"2";"2";"1";"2014-07-07 13:00:23.206";"2014-07-07 13:09:42.392";"1";"1";"0";"584";"88";"module.training_block3.exec-7498.GoNoGo3";;;;;;;;;;;;;;;;;;;;;;;;;;;;;;;;;;;;;;;;;;;;;;;"1247";"2014-07-07 13:05:28.921";"ST_correctStop";"0";"0";"FINISHED";"NONE";"success";"0";"1";"2014-07-07 13:05:27.671";"1";;;;;;;;;;;;;;;;;;;;;;;;;;;;;;;;;
"ra-test";;;"Windows 7";"Rachel's Experiment (D.T.)";"1.0";"2";"1";"1";"2";"2";"1";"2014-07-07 13:00:23.206";"2014-07-07 13:09:42.392";"1";"1";"0";"585";"89";"module.training_block3.exec-7498.GoNoGo3";;;;;;;;;;;;;;;;;;;;;;;;;;;;;;;;;;;;;;;;;;;;;;;"1252";"2014-07-07 13:05:31.446";"ST_correctStop";"3";"0";"FINISHED";"NONE";"success";"0";"1";"2014-07-07 13:05:30.191";"1";;;;;;;;;;;;;;;;;;;;;;;;;;;;;;;;;
"ra-test";;;"Windows 7";"Rachel's Experiment (D.T.)";"1.0";"2";"1";"1";"2";"2";"1";"2014-07-07 13:00:23.206";"2014-07-07 13:09:42.392";"1";"1";"0";"586";"90";"module.training_block3.exec-7498.GoNoGo3";;;;;;;;;;;;;;;;;;;;;;;;;;;;;;;;;;;;;;;;;;;;;;;"1250";"2014-07-07 13:05:33.969";"NST_miss";"12";"0";"FINISHED";"NONE";"failure";"0";"0";"2014-07-07 13:05:32.716";"2";;;;;;;;;;;;;;;;;;;;;;;;;;;;;;;;;
"ra-test";;;"Windows 7";"Rachel's Experiment (D.T.)";"1.0";"2";"1";"1";"2";"2";"1";"2014-07-07 13:00:23.206";"2014-07-07 13:09:42.392";"1";"1";"0";"587";"91";"module.training_block3.exec-7498.GoNoGo3";;;;;;;;;;;;;;;;;;;;;;;;;;;;;;;;;;;;;;;;;;;;;;;"1255";"2014-07-07 13:05:36.499";"NST_miss";"25";"0";"FINISHED";"NONE";"failure";"0";"0";"2014-07-07 13:05:35.241";"3";;;;;;;;;;;;;;;;;;;;;;;;;;;;;;;;;
"ra-test";;;"Windows 7";"Rachel's Experiment (D.T.)";"1.0";"2";"1";"1";"2";"2";"1";"2014-07-07 13:00:23.206";"2014-07-07 13:09:42.392";"1";"1";"0";"588";"92";"module.training_block3.exec-7498.GoNoGo3";;;;;;;;;;;;;;;;;;;;;;;;;;;;;;;;;;;;;;;;;;;;;;;"1249";"2014-07-07 13:05:39.026";"NST_miss";"16";"0";"FINISHED";"NONE";"failure";"0";"0";"2014-07-07 13:05:37.776";"2";;;;;;;;;;;;;;;;;;;;;;;;;;;;;;;;;
"ra-test";;;"Windows 7";"Rachel's Experiment (D.T.)";"1.0";"2";"1";"1";"2";"2";"1";"2014-07-07 13:00:23.206";"2014-07-07 13:09:42.392";"1";"1";"0";"589";"93";"module.training_block3.exec-7498.GoNoGo3";;;;;;;;;;;;;;;;;;;;;;;;;;;;;;;;;;;;;;;;;;;;;;;"1250";"2014-07-07 13:05:41.551";"NST_miss";"9";"1";"FINISHED";"NONE";"failure";"0";"0";"2014-07-07 13:05:40.299";"2";;;;;;;;;;;;;;;;;;;;;;;;;;;;;;;;;
"ra-test";;;"Windows 7";"Rachel's Experiment (D.T.)";"1.0";"2";"1";"1";"2";"2";"1";"2014-07-07 13:00:23.206";"2014-07-07 13:09:42.392";"1";"1";"0";"590";"94";"module.training_block3.exec-7498.GoNoGo3";;;;;;;;;;;;;;;;;;;;;;;;;;;;;;;;;;;;;;;;;;;;;;;"1247";"2014-07-07 13:05:44.074";"NST_miss";"17";"1";"FINISHED";"NONE";"failure";"0";"0";"2014-07-07 13:05:42.824";"2";;;;;;;;;;;;;;;;;;;;;;;;;;;;;;;;;
"ra-test";;;"Windows 7";"Rachel's Experiment (D.T.)";"1.0";"2";"1";"1";"2";"2";"1";"2014-07-07 13:00:23.206";"2014-07-07 13:09:42.392";"1";"1";"0";"591";"95";"module.training_block3.exec-7498.GoNoGo3";;;;;;;;;;;;;;;;;;;;;;;;;;;;;;;;;;;;;;;;;;;;;;;"1247";"2014-07-07 13:05:46.594";"ST_correctStop";"5";"0";"FINISHED";"NONE";"success";"0";"1";"2014-07-07 13:05:45.344";"1";;;;;;;;;;;;;;;;;;;;;;;;;;;;;;;;;
"ra-test";;;"Windows 7";"Rachel's Experiment (D.T.)";"1.0";"2";"1";"1";"2";"2";"1";"2014-07-07 13:00:23.206";"2014-07-07 13:09:42.392";"1";"1";"0";"592";"96";"module.training_block3.exec-7498.GoNoGo3";;;;;;;;;;;;;;;;;;;;;;;;;;;;;;;;;;;;;;;;;;;;;;;"1247";"2014-07-07 13:05:49.114";"NST_miss";"15";"0";"FINISHED";"NONE";"failure";"0";"0";"2014-07-07 13:05:47.864";"2";;;;;;;;;;;;;;;;;;;;;;;;;;;;;;;;;
"ra-test";;;"Windows 7";"Rachel's Experiment (D.T.)";"1.0";"2";"1";"1";"2";"2";"1";"2014-07-07 13:00:23.206";"2014-07-07 13:09:42.392";"1";"1";"0";"593";"97";"module.training_block3.exec-7498.GoNoGo3";;;;;;;;;;;;;;;;;;;;;;;;;;;;;;;;;;;;;;;;;;;;;;;"1247";"2014-07-07 13:05:51.634";"ST_correctStop";"8";"0";"FINISHED";"NONE";"success";"0";"1";"2014-07-07 13:05:50.384";"1";;;;;;;;;;;;;;;;;;;;;;;;;;;;;;;;;
"ra-test";;;"Windows 7";"Rachel's Experiment (D.T.)";"1.0";"2";"1";"1";"2";"2";"1";"2014-07-07 13:00:23.206";"2014-07-07 13:09:42.392";"1";"1";"0";"594";"98";"module.training_block3.exec-7498.GoNoGo3";;;;;;;;;;;;;;;;;;;;;;;;;;;;;;;;;;;;;;;;;;;;;;;"1247";"2014-07-07 13:05:54.156";"ST_correctStop";"27";"0";"FINISHED";"NONE";"success";"0";"1";"2014-07-07 13:05:52.906";"3";;;;;;;;;;;;;;;;;;;;;;;;;;;;;;;;;
"ra-test";;;"Windows 7";"Rachel's Experiment (D.T.)";"1.0";"2";"1";"1";"2";"2";"1";"2014-07-07 13:00:23.206";"2014-07-07 13:09:42.392";"1";"1";"0";"595";"99";"module.training_block3.exec-7498.GoNoGo3";;;;;;;;;;;;;;;;;;;;;;;;;;;;;;;;;;;;;;;;;;;;;;;"1246";"2014-07-07 13:05:56.681";"NST_miss";"10";"0";"FINISHED";"NONE";"failure";"0";"0";"2014-07-07 13:05:55.431";"2";;;;;;;;;;;;;;;;;;;;;;;;;;;;;;;;;
"ra-test";;;"Windows 7";"Rachel's Experiment (D.T.)";"1.0";"2";"1";"1";"2";"2";"1";"2014-07-07 13:00:23.206";"2014-07-07 13:09:42.392";"1";"1";"0";"596";"100";"module.training_block3.exec-7498.GoNoGo3";;;;;;;;;;;;;;;;;;;;;;;;;;;;;;;;;;;;;;;;;;;;;;;"1247";"2014-07-07 13:05:59.194";"NST_miss";"34";"1";"FINISHED";"NONE";"failure";"0";"0";"2014-07-07 13:05:57.944";"3";;;;;;;;;;;;;;;;;;;;;;;;;;;;;;;;;
"ra-test";;;"Windows 7";"Rachel's Experiment (D.T.)";"1.0";"2";"1";"1";"2";"2";"1";"2014-07-07 13:00:23.206";"2014-07-07 13:09:42.392";"1";"1";"0";"597";"101";"module.training_block3.exec-7498.GoNoGo3";;;;;;;;;;;;;;;;;;;;;;;;;;;;;;;;;;;;;;;;;;;;;;;"1247";"2014-07-07 13:06:01.719";"ST_correctStop";"22";"0";"FINISHED";"NONE";"success";"0";"1";"2014-07-07 13:06:00.469";"3";;;;;;;;;;;;;;;;;;;;;;;;;;;;;;;;;
"ra-test";;;"Windows 7";"Rachel's Experiment (D.T.)";"1.0";"2";"1";"1";"2";"2";"1";"2014-07-07 13:00:23.206";"2014-07-07 13:09:42.392";"1";"1";"0";"598";"102";"module.training_block3.exec-7498.GoNoGo3";;;;;;;;;;;;;;;;;;;;;;;;;;;;;;;;;;;;;;;;;;;;;;;"1252";"2014-07-07 13:06:04.276";"NST_miss";"35";"1";"FINISHED";"NONE";"failure";"0";"0";"2014-07-07 13:06:03.021";"3";;;;;;;;;;;;;;;;;;;;;;;;;;;;;;;;;
"ra-test";;;"Windows 7";"Rachel's Experiment (D.T.)";"1.0";"2";"1";"1";"2";"2";"1";"2014-07-07 13:00:23.206";"2014-07-07 13:09:42.392";"1";"1";"0";"599";"103";"module.training_block3.exec-7498.GoNoGo3";;;;;;;;;;;;;;;;;;;;;;;;;;;;;;;;;;;;;;;;;;;;;;;"1252";"2014-07-07 13:06:06.803";"ST_correctStop";"31";"0";"FINISHED";"NONE";"success";"0";"1";"2014-07-07 13:06:05.548";"3";;;;;;;;;;;;;;;;;;;;;;;;;;;;;;;;;
"ra-test";;;"Windows 7";"Rachel's Experiment (D.T.)";"1.0";"2";"1";"1";"2";"2";"1";"2014-07-07 13:00:23.206";"2014-07-07 13:09:42.392";"1";"1";"0";"600";"104";"module.training_block3.exec-7498.GoNoGo3";;;;;;;;;;;;;;;;;;;;;;;;;;;;;;;;;;;;;;;;;;;;;;;"1250";"2014-07-07 13:06:09.333";"ST_correctStop";"20";"0";"FINISHED";"NONE";"success";"0";"1";"2014-07-07 13:06:08.081";"3";;;;;;;;;;;;;;;;;;;;;;;;;;;;;;;;;
"ra-test";;;"Windows 7";"Rachel's Experiment (D.T.)";"1.0";"2";"1";"1";"2";"2";"1";"2014-07-07 13:00:23.206";"2014-07-07 13:09:42.392";"1";"1";"0";"601";"105";"module.training_block3.exec-7498.GoNoGo3";;;;;;;;;;;;;;;;;;;;;;;;;;;;;;;;;;;;;;;;;;;;;;;"1247";"2014-07-07 13:06:11.860";"ST_correctStop";"26";"1";"FINISHED";"NONE";"success";"0";"1";"2014-07-07 13:06:10.610";"3";;;;;;;;;;;;;;;;;;;;;;;;;;;;;;;;;
"ra-test";;;"Windows 7";"Rachel's Experiment (D.T.)";"1.0";"2";"1";"1";"2";"2";"1";"2014-07-07 13:00:23.206";"2014-07-07 13:09:42.392";"1";"1";"0";"602";"106";"module.training_block3.exec-7498.GoNoGo3";;;;;;;;;;;;;;;;;;;;;;;;;;;;;;;;;;;;;;;;;;;;;;;"1247";"2014-07-07 13:06:14.380";"NST_miss";"29";"1";"FINISHED";"NONE";"failure";"0";"0";"2014-07-07 13:06:13.130";"3";;;;;;;;;;;;;;;;;;;;;;;;;;;;;;;;;
"ra-test";;;"Windows 7";"Rachel's Experiment (D.T.)";"1.0";"2";"1";"1";"2";"2";"1";"2014-07-07 13:00:23.206";"2014-07-07 13:09:42.392";"1";"1";"0";"603";"107";"module.training_block3.exec-7498.GoNoGo3";;;;;;;;;;;;;;;;;;;;;;;;;;;;;;;;;;;;;;;;;;;;;;;"1247";"2014-07-07 13:06:16.900";"NST_miss";"30";"1";"FINISHED";"NONE";"failure";"0";"0";"2014-07-07 13:06:15.650";"3";;;;;;;;;;;;;;;;;;;;;;;;;;;;;;;;;
"ra-test";;;"Windows 7";"Rachel's Experiment (D.T.)";"1.0";"2";"1";"1";"2";"2";"1";"2014-07-07 13:00:23.206";"2014-07-07 13:09:42.392";"1";"1";"0";"604";"108";"module.training_block3.exec-7498.GoNoGo3";;;;;;;;;;;;;;;;;;;;;;;;;;;;;;;;;;;;;;;;;;;;;;;"1252";"2014-07-07 13:06:19.430";"ST_correctStop";"32";"1";"FINISHED";"NONE";"success";"0";"1";"2014-07-07 13:06:18.175";"3";;;;;;;;;;;;;;;;;;;;;;;;;;;;;;;;;
"ra-test";;;"Windows 7";"Rachel's Experiment (D.T.)";"1.0";"2";"1";"1";"2";"2";"1";"2014-07-07 13:00:23.206";"2014-07-07 13:09:42.392";"1";"1";"0";"605";"109";"module.training_block3.exec-7498.GoNoGo3";;;;;;;;;;;;;;;;;;;;;;;;;;;;;;;;;;;;;;;;;;;;;;;"1252";"2014-07-07 13:06:21.961";"ST_correctStop";"7";"0";"FINISHED";"NONE";"success";"0";"1";"2014-07-07 13:06:20.706";"1";;;;;;;;;;;;;;;;;;;;;;;;;;;;;;;;;
"ra-test";;;"Windows 7";"Rachel's Experiment (D.T.)";"1.0";"2";"1";"1";"2";"2";"1";"2014-07-07 13:00:23.206";"2014-07-07 13:09:42.392";"1";"1";"0";"606";"110";"module.training_block3.exec-7498.GoNoGo3";;;;;;;;;;;;;;;;;;;;;;;;;;;;;;;;;;;;;;;;;;;;;;;"1252";"2014-07-07 13:06:24.493";"NST_miss";"23";"1";"FINISHED";"NONE";"failure";"0";"0";"2014-07-07 13:06:23.238";"3";;;;;;;;;;;;;;;;;;;;;;;;;;;;;;;;;
"ra-test";;;"Windows 7";"Rachel's Experiment (D.T.)";"1.0";"2";"1";"1";"2";"2";"1";"2014-07-07 13:00:23.206";"2014-07-07 13:09:42.392";"1";"1";"0";"607";"111";"module.training_block3.exec-7498.GoNoGo3";;;;;;;;;;;;;;;;;;;;;;;;;;;;;;;;;;;;;;;;;;;;;;;"1246";"2014-07-07 13:06:27.013";"ST_correctStop";"2";"1";"FINISHED";"NONE";"success";"0";"1";"2014-07-07 13:06:25.763";"1";;;;;;;;;;;;;;;;;;;;;;;;;;;;;;;;;
"ra-test";;;"Windows 7";"Rachel's Experiment (D.T.)";"1.0";"2";"1";"1";"2";"2";"1";"2014-07-07 13:00:23.206";"2014-07-07 13:09:42.392";"1";"1";"0";"608";"112";"module.training_block3.exec-7498.GoNoGo3";;;;;;;;;;;;;;;;;;;;;;;;;;;;;;;;;;;;;;;;;;;;;;;"1247";"2014-07-07 13:06:29.538";"ST_correctStop";"6";"0";"FINISHED";"NONE";"success";"0";"1";"2014-07-07 13:06:28.288";"1";;;;;;;;;;;;;;;;;;;;;;;;;;;;;;;;;
"ra-test";;;"Windows 7";"Rachel's Experiment (D.T.)";"1.0";"2";"1";"1";"2";"2";"1";"2014-07-07 13:00:23.206";"2014-07-07 13:09:42.392";"1";"1";"0";"609";"113";"module.training_block3.exec-7498.GoNoGo3";;;;;;;;;;;;;;;;;;;;;;;;;;;;;;;;;;;;;;;;;;;;;;;"1247";"2014-07-07 13:06:32.066";"ST_correctStop";"28";"1";"FINISHED";"NONE";"success";"0";"1";"2014-07-07 13:06:30.816";"3";;;;;;;;;;;;;;;;;;;;;;;;;;;;;;;;;
"ra-test";;;"Windows 7";"Rachel's Experiment (D.T.)";"1.0";"2";"1";"1";"2";"2";"1";"2014-07-07 13:00:23.206";"2014-07-07 13:09:42.392";"1";"1";"0";"610";"114";"module.training_block3.exec-7498.GoNoGo3";;;;;;;;;;;;;;;;;;;;;;;;;;;;;;;;;;;;;;;;;;;;;;;"1252";"2014-07-07 13:06:34.591";"ST_correctStop";"1";"1";"FINISHED";"NONE";"success";"0";"1";"2014-07-07 13:06:33.336";"1";;;;;;;;;;;;;;;;;;;;;;;;;;;;;;;;;
"ra-test";;;"Windows 7";"Rachel's Experiment (D.T.)";"1.0";"2";"1";"1";"2";"2";"1";"2014-07-07 13:00:23.206";"2014-07-07 13:09:42.392";"1";"1";"0";"611";"115";"module.training_block3.exec-7498.GoNoGo3";;;;;;;;;;;;;;;;;;;;;;;;;;;;;;;;;;;;;;;;;;;;;;;"1252";"2014-07-07 13:06:37.126";"ST_correctStop";"4";"0";"FINISHED";"NONE";"success";"0";"1";"2014-07-07 13:06:35.871";"1";;;;;;;;;;;;;;;;;;;;;;;;;;;;;;;;;
"ra-test";;;"Windows 7";"Rachel's Experiment (D.T.)";"1.0";"2";"1";"1";"2";"2";"1";"2014-07-07 13:00:23.206";"2014-07-07 13:09:42.392";"1";"1";"0";"612";"116";"module.training_block3.exec-7498.GoNoGo3";;;;;;;;;;;;;;;;;;;;;;;;;;;;;;;;;;;;;;;;;;;;;;;"1252";"2014-07-07 13:06:39.651";"NST_miss";"11";"1";"FINISHED";"NONE";"failure";"0";"0";"2014-07-07 13:06:38.396";"2";;;;;;;;;;;;;;;;;;;;;;;;;;;;;;;;;
"ra-test";;;"Windows 7";"Rachel's Experiment (D.T.)";"1.0";"2";"1";"1";"2";"2";"1";"2014-07-07 13:00:23.206";"2014-07-07 13:09:42.392";"1";"1";"0";"613";"117";"module.training_block3.exec-7498.GoNoGo3";;;;;;;;;;;;;;;;;;;;;;;;;;;;;;;;;;;;;;;;;;;;;;;"1247";"2014-07-07 13:06:42.176";"NST_miss";"18";"1";"FINISHED";"NONE";"failure";"0";"0";"2014-07-07 13:06:40.926";"3";;;;;;;;;;;;;;;;;;;;;;;;;;;;;;;;;
"ra-test";;;"Windows 7";"Rachel's Experiment (D.T.)";"1.0";"2";"1";"1";"2";"2";"1";"2014-07-07 13:00:23.206";"2014-07-07 13:09:42.392";"1";"1";"0";"614";"118";"module.training_block3.exec-7498.GoNoGo3";;;;;;;;;;;;;;;;;;;;;;;;;;;;;;;;;;;;;;;;;;;;;;;"1247";"2014-07-07 13:06:44.701";"ST_correctStop";"24";"1";"FINISHED";"NONE";"success";"0";"1";"2014-07-07 13:06:43.451";"3";;;;;;;;;;;;;;;;;;;;;;;;;;;;;;;;;
"ra-test";;;"Windows 7";"Rachel's Experiment (D.T.)";"1.0";"2";"1";"1";"2";"2";"1";"2014-07-07 13:00:23.206";"2014-07-07 13:09:42.392";"1";"1";"0";"615";"119";"module.training_block3.exec-7498.GoNoGo3";;;;;;;;;;;;;;;;;;;;;;;;;;;;;;;;;;;;;;;;;;;;;;;"1247";"2014-07-07 13:06:47.221";"NST_miss";"21";"1";"FINISHED";"NONE";"failure";"0";"0";"2014-07-07 13:06:45.971";"3";;;;;;;;;;;;;;;;;;;;;;;;;;;;;;;;;
"ra-test";;;"Windows 7";"Rachel's Experiment (D.T.)";"1.0";"2";"1";"1";"2";"2";"1";"2014-07-07 13:00:23.206";"2014-07-07 13:09:42.392";"1";"1";"0";"616";"120";"module.training_block3.exec-7498.GoNoGo3";;;;;;;;;;;;;;;;;;;;;;;;;;;;;;;;;;;;;;;;;;;;;;;"1241";"2014-07-07 13:06:49.746";"NST_miss";"13";"0";"FINISHED";"NONE";"failure";"0";"0";"2014-07-07 13:06:48.496";"2";;;;;;;;;;;;;;;;;;;;;;;;;;;;;;;;;
"ra-test";;;"Windows 7";"Rachel's Experiment (D.T.)";"1.0";"2";"1";"1";"2";"2";"1";"2014-07-07 13:00:23.206";"2014-07-07 13:09:42.392";"1";"1";"0";"617";"121";"module.training_block3.exec-7498.GoNoGo3";;;;;;;;;;;;;;;;;;;;;;;;;;;;;;;;;;;;;;;;;;;;;;;"1247";"2014-07-07 13:06:52.268";"NST_miss";"33";"0";"FINISHED";"NONE";"failure";"0";"0";"2014-07-07 13:06:51.018";"3";;;;;;;;;;;;;;;;;;;;;;;;;;;;;;;;;
"ra-test";;;"Windows 7";"Rachel's Experiment (D.T.)";"1.0";"2";"1";"1";"2";"2";"1";"2014-07-07 13:00:23.206";"2014-07-07 13:09:42.392";"1";"1";"0";"618";"122";"module.training_block3.exec-7498.GoNoGo3";;;;;;;;;;;;;;;;;;;;;;;;;;;;;;;;;;;;;;;;;;;;;;;"1247";"2014-07-07 13:06:54.791";"ST_correctStop";"19";"0";"FINISHED";"NONE";"success";"0";"1";"2014-07-07 13:06:53.541";"3";;;;;;;;;;;;;;;;;;;;;;;;;;;;;;;;;
"ra-test";;;"Windows 7";"Rachel's Experiment (D.T.)";"1.0";"2";"1";"1";"2";"2";"1";"2014-07-07 13:00:23.206";"2014-07-07 13:09:42.392";"1";"1";"0";"619";"123";"module.training_block4.exec-1899.GoNoGo4";;;;;;;;;;;;;;;;;;;;;;;;;;;;;;;;;;;;;;;;;;;;;;;;;;;;;;;;;;;"1250";"2014-07-07 13:07:06.098";"ST_correctStop";"7";"1";"FINISHED";"NONE";"success";"0";"1";"2014-07-07 13:07:04.846";"1";;;;;;;;;;;;;;;;;;;;;
"ra-test";;;"Windows 7";"Rachel's Experiment (D.T.)";"1.0";"2";"1";"1";"2";"2";"1";"2014-07-07 13:00:23.206";"2014-07-07 13:09:42.392";"1";"1";"0";"620";"124";"module.training_block4.exec-1899.GoNoGo4";;;;;;;;;;;;;;;;;;;;;;;;;;;;;;;;;;;;;;;;;;;;;;;;;;;;;;;;;;;"1247";"2014-07-07 13:07:08.621";"ST_correctStop";"34";"1";"FINISHED";"NONE";"success";"0";"1";"2014-07-07 13:07:07.371";"3";;;;;;;;;;;;;;;;;;;;;
"ra-test";;;"Windows 7";"Rachel's Experiment (D.T.)";"1.0";"2";"1";"1";"2";"2";"1";"2014-07-07 13:00:23.206";"2014-07-07 13:09:42.392";"1";"1";"0";"621";"125";"module.training_block4.exec-1899.GoNoGo4";;;;;;;;;;;;;;;;;;;;;;;;;;;;;;;;;;;;;;;;;;;;;;;;;;;;;;;;;;;"1252";"2014-07-07 13:07:11.146";"ST_correctStop";"22";"1";"FINISHED";"NONE";"success";"0";"1";"2014-07-07 13:07:09.891";"3";;;;;;;;;;;;;;;;;;;;;
"ra-test";;;"Windows 7";"Rachel's Experiment (D.T.)";"1.0";"2";"1";"1";"2";"2";"1";"2014-07-07 13:00:23.206";"2014-07-07 13:09:42.392";"1";"1";"0";"622";"126";"module.training_block4.exec-1899.GoNoGo4";;;;;;;;;;;;;;;;;;;;;;;;;;;;;;;;;;;;;;;;;;;;;;;;;;;;;;;;;;;"1247";"2014-07-07 13:07:13.671";"ST_correctStop";"1";"0";"FINISHED";"NONE";"success";"0";"1";"2014-07-07 13:07:12.421";"1";;;;;;;;;;;;;;;;;;;;;
"ra-test";;;"Windows 7";"Rachel's Experiment (D.T.)";"1.0";"2";"1";"1";"2";"2";"1";"2014-07-07 13:00:23.206";"2014-07-07 13:09:42.392";"1";"1";"0";"623";"127";"module.training_block4.exec-1899.GoNoGo4";;;;;;;;;;;;;;;;;;;;;;;;;;;;;;;;;;;;;;;;;;;;;;;;;;;;;;;;;;;"1247";"2014-07-07 13:07:16.196";"NST_miss";"18";"0";"FINISHED";"NONE";"failure";"0";"0";"2014-07-07 13:07:14.946";"3";;;;;;;;;;;;;;;;;;;;;
"ra-test";;;"Windows 7";"Rachel's Experiment (D.T.)";"1.0";"2";"1";"1";"2";"2";"1";"2014-07-07 13:00:23.206";"2014-07-07 13:09:42.392";"1";"1";"0";"624";"128";"module.training_block4.exec-1899.GoNoGo4";;;;;;;;;;;;;;;;;;;;;;;;;;;;;;;;;;;;;;;;;;;;;;;;;;;;;;;;;;;"1247";"2014-07-07 13:07:18.716";"ST_correctStop";"26";"0";"FINISHED";"NONE";"success";"0";"1";"2014-07-07 13:07:17.466";"3";;;;;;;;;;;;;;;;;;;;;
"ra-test";;;"Windows 7";"Rachel's Experiment (D.T.)";"1.0";"2";"1";"1";"2";"2";"1";"2014-07-07 13:00:23.206";"2014-07-07 13:09:42.392";"1";"1";"0";"625";"129";"module.training_block4.exec-1899.GoNoGo4";;;;;;;;;;;;;;;;;;;;;;;;;;;;;;;;;;;;;;;;;;;;;;;;;;;;;;;;;;;"1247";"2014-07-07 13:07:21.236";"NST_miss";"32";"0";"FINISHED";"NONE";"failure";"0";"0";"2014-07-07 13:07:19.986";"3";;;;;;;;;;;;;;;;;;;;;
"ra-test";;;"Windows 7";"Rachel's Experiment (D.T.)";"1.0";"2";"1";"1";"2";"2";"1";"2014-07-07 13:00:23.206";"2014-07-07 13:09:42.392";"1";"1";"0";"626";"130";"module.training_block4.exec-1899.GoNoGo4";;;;;;;;;;;;;;;;;;;;;;;;;;;;;;;;;;;;;;;;;;;;;;;;;;;;;;;;;;;"1252";"2014-07-07 13:07:23.761";"NST_miss";"12";"0";"FINISHED";"NONE";"failure";"0";"0";"2014-07-07 13:07:22.506";"2";;;;;;;;;;;;;;;;;;;;;
"ra-test";;;"Windows 7";"Rachel's Experiment (D.T.)";"1.0";"2";"1";"1";"2";"2";"1";"2014-07-07 13:00:23.206";"2014-07-07 13:09:42.392";"1";"1";"0";"627";"131";"module.training_block4.exec-1899.GoNoGo4";;;;;;;;;;;;;;;;;;;;;;;;;;;;;;;;;;;;;;;;;;;;;;;;;;;;;;;;;;;"1248";"2014-07-07 13:07:26.281";"ST_correctStop";"27";"1";"FINISHED";"NONE";"success";"0";"1";"2014-07-07 13:07:25.031";"3";;;;;;;;;;;;;;;;;;;;;
"ra-test";;;"Windows 7";"Rachel's Experiment (D.T.)";"1.0";"2";"1";"1";"2";"2";"1";"2014-07-07 13:00:23.206";"2014-07-07 13:09:42.392";"1";"1";"0";"628";"132";"module.training_block4.exec-1899.GoNoGo4";;;;;;;;;;;;;;;;;;;;;;;;;;;;;;;;;;;;;;;;;;;;;;;;;;;;;;;;;;;"1255";"2014-07-07 13:07:28.803";"NST_miss";"11";"0";"FINISHED";"NONE";"failure";"0";"0";"2014-07-07 13:07:27.546";"2";;;;;;;;;;;;;;;;;;;;;
"ra-test";;;"Windows 7";"Rachel's Experiment (D.T.)";"1.0";"2";"1";"1";"2";"2";"1";"2014-07-07 13:00:23.206";"2014-07-07 13:09:42.392";"1";"1";"0";"629";"133";"module.training_block4.exec-1899.GoNoGo4";;;;;;;;;;;;;;;;;;;;;;;;;;;;;;;;;;;;;;;;;;;;;;;;;;;;;;;;;;;"1251";"2014-07-07 13:07:31.333";"NST_miss";"16";"1";"FINISHED";"NONE";"failure";"0";"0";"2014-07-07 13:07:30.078";"2";;;;;;;;;;;;;;;;;;;;;
"ra-test";;;"Windows 7";"Rachel's Experiment (D.T.)";"1.0";"2";"1";"1";"2";"2";"1";"2014-07-07 13:00:23.206";"2014-07-07 13:09:42.392";"1";"1";"0";"630";"134";"module.training_block4.exec-1899.GoNoGo4";;;;;;;;;;;;;;;;;;;;;;;;;;;;;;;;;;;;;;;;;;;;;;;;;;;;;;;;;;;"1250";"2014-07-07 13:07:33.858";"ST_correctStop";"6";"1";"FINISHED";"NONE";"success";"0";"1";"2014-07-07 13:07:32.606";"1";;;;;;;;;;;;;;;;;;;;;
"ra-test";;;"Windows 7";"Rachel's Experiment (D.T.)";"1.0";"2";"1";"1";"2";"2";"1";"2014-07-07 13:00:23.206";"2014-07-07 13:09:42.392";"1";"1";"0";"631";"135";"module.training_block4.exec-1899.GoNoGo4";;;;;;;;;;;;;;;;;;;;;;;;;;;;;;;;;;;;;;;;;;;;;;;;;;;;;;;;;;;"1247";"2014-07-07 13:07:36.386";"NST_miss";"17";"0";"FINISHED";"NONE";"failure";"0";"0";"2014-07-07 13:07:35.136";"2";;;;;;;;;;;;;;;;;;;;;
"ra-test";;;"Windows 7";"Rachel's Experiment (D.T.)";"1.0";"2";"1";"1";"2";"2";"1";"2014-07-07 13:00:23.206";"2014-07-07 13:09:42.392";"1";"1";"0";"632";"136";"module.training_block4.exec-1899.GoNoGo4";;;;;;;;;;;;;;;;;;;;;;;;;;;;;;;;;;;;;;;;;;;;;;;;;;;;;;;;;;;"1247";"2014-07-07 13:07:38.908";"NST_miss";"33";"1";"FINISHED";"NONE";"failure";"0";"0";"2014-07-07 13:07:37.658";"3";;;;;;;;;;;;;;;;;;;;;
"ra-test";;;"Windows 7";"Rachel's Experiment (D.T.)";"1.0";"2";"1";"1";"2";"2";"1";"2014-07-07 13:00:23.206";"2014-07-07 13:09:42.392";"1";"1";"0";"633";"137";"module.training_block4.exec-1899.GoNoGo4";;;;;;;;;;;;;;;;;;;;;;;;;;;;;;;;;;;;;;;;;;;;;;;;;;;;;;;;;;;"1255";"2014-07-07 13:07:41.435";"ST_correctStop";"5";"1";"FINISHED";"NONE";"success";"0";"1";"2014-07-07 13:07:40.178";"1";;;;;;;;;;;;;;;;;;;;;
"ra-test";;;"Windows 7";"Rachel's Experiment (D.T.)";"1.0";"2";"1";"1";"2";"2";"1";"2014-07-07 13:00:23.206";"2014-07-07 13:09:42.392";"1";"1";"0";"634";"138";"module.training_block4.exec-1899.GoNoGo4";;;;;;;;;;;;;;;;;;;;;;;;;;;;;;;;;;;;;;;;;;;;;;;;;;;;;;;;;;;"1247";"2014-07-07 13:07:43.955";"NST_miss";"14";"0";"FINISHED";"NONE";"failure";"0";"0";"2014-07-07 13:07:42.705";"2";;;;;;;;;;;;;;;;;;;;;
"ra-test";;;"Windows 7";"Rachel's Experiment (D.T.)";"1.0";"2";"1";"1";"2";"2";"1";"2014-07-07 13:00:23.206";"2014-07-07 13:09:42.392";"1";"1";"0";"635";"139";"module.training_block4.exec-1899.GoNoGo4";;;;;;;;;;;;;;;;;;;;;;;;;;;;;;;;;;;;;;;;;;;;;;;;;;;;;;;;;;;"1250";"2014-07-07 13:07:46.478";"NST_miss";"15";"0";"FINISHED";"NONE";"failure";"0";"0";"2014-07-07 13:07:45.225";"2";;;;;;;;;;;;;;;;;;;;;
"ra-test";;;"Windows 7";"Rachel's Experiment (D.T.)";"1.0";"2";"1";"1";"2";"2";"1";"2014-07-07 13:00:23.206";"2014-07-07 13:09:42.392";"1";"1";"0";"636";"140";"module.training_block4.exec-1899.GoNoGo4";;;;;;;;;;;;;;;;;;;;;;;;;;;;;;;;;;;;;;;;;;;;;;;;;;;;;;;;;;;"1252";"2014-07-07 13:07:49.010";"ST_correctStop";"20";"0";"FINISHED";"NONE";"success";"0";"1";"2014-07-07 13:07:47.755";"3";;;;;;;;;;;;;;;;;;;;;
"ra-test";;;"Windows 7";"Rachel's Experiment (D.T.)";"1.0";"2";"1";"1";"2";"2";"1";"2014-07-07 13:00:23.206";"2014-07-07 13:09:42.392";"1";"1";"0";"637";"141";"module.training_block4.exec-1899.GoNoGo4";;;;;;;;;;;;;;;;;;;;;;;;;;;;;;;;;;;;;;;;;;;;;;;;;;;;;;;;;;;"1250";"2014-07-07 13:07:51.543";"NST_miss";"29";"1";"FINISHED";"NONE";"failure";"0";"0";"2014-07-07 13:07:50.290";"3";;;;;;;;;;;;;;;;;;;;;
"ra-test";;;"Windows 7";"Rachel's Experiment (D.T.)";"1.0";"2";"1";"1";"2";"2";"1";"2014-07-07 13:00:23.206";"2014-07-07 13:09:42.392";"1";"1";"0";"638";"142";"module.training_block4.exec-1899.GoNoGo4";;;;;;;;;;;;;;;;;;;;;;;;;;;;;;;;;;;;;;;;;;;;;;;;;;;;;;;;;;;"1255";"2014-07-07 13:07:54.075";"ST_correctStop";"8";"0";"FINISHED";"NONE";"success";"0";"1";"2014-07-07 13:07:52.818";"1";;;;;;;;;;;;;;;;;;;;;
"ra-test";;;"Windows 7";"Rachel's Experiment (D.T.)";"1.0";"2";"1";"1";"2";"2";"1";"2014-07-07 13:00:23.206";"2014-07-07 13:09:42.392";"1";"1";"0";"639";"143";"module.training_block4.exec-1899.GoNoGo4";;;;;;;;;;;;;;;;;;;;;;;;;;;;;;;;;;;;;;;;;;;;;;;;;;;;;;;;;;;"1247";"2014-07-07 13:07:56.600";"ST_correctStop";"4";"0";"FINISHED";"NONE";"success";"0";"1";"2014-07-07 13:07:55.350";"1";;;;;;;;;;;;;;;;;;;;;
"ra-test";;;"Windows 7";"Rachel's Experiment (D.T.)";"1.0";"2";"1";"1";"2";"2";"1";"2014-07-07 13:00:23.206";"2014-07-07 13:09:42.392";"1";"1";"0";"640";"144";"module.training_block4.exec-1899.GoNoGo4";;;;;;;;;;;;;;;;;;;;;;;;;;;;;;;;;;;;;;;;;;;;;;;;;;;;;;;;;;;"1247";"2014-07-07 13:07:59.120";"ST_correctStop";"2";"1";"FINISHED";"NONE";"success";"0";"1";"2014-07-07 13:07:57.870";"1";;;;;;;;;;;;;;;;;;;;;
"ra-test";;;"Windows 7";"Rachel's Experiment (D.T.)";"1.0";"2";"1";"1";"2";"2";"1";"2014-07-07 13:00:23.206";"2014-07-07 13:09:42.392";"1";"1";"0";"641";"145";"module.training_block4.exec-1899.GoNoGo4";;;;;;;;;;;;;;;;;;;;;;;;;;;;;;;;;;;;;;;;;;;;;;;;;;;;;;;;;;;"1257";"2014-07-07 13:08:01.651";"NST_miss";"19";"1";"FINISHED";"NONE";"failure";"0";"0";"2014-07-07 13:08:00.393";"3";;;;;;;;;;;;;;;;;;;;;
"ra-test";;;"Windows 7";"Rachel's Experiment (D.T.)";"1.0";"2";"1";"1";"2";"2";"1";"2014-07-07 13:00:23.206";"2014-07-07 13:09:42.392";"1";"1";"0";"642";"146";"module.training_block4.exec-1899.GoNoGo4";;;;;;;;;;;;;;;;;;;;;;;;;;;;;;;;;;;;;;;;;;;;;;;;;;;;;;;;;;;"1252";"2014-07-07 13:08:04.184";"ST_correctStop";"31";"1";"FINISHED";"NONE";"success";"0";"1";"2014-07-07 13:08:02.929";"3";;;;;;;;;;;;;;;;;;;;;
"ra-test";;;"Windows 7";"Rachel's Experiment (D.T.)";"1.0";"2";"1";"1";"2";"2";"1";"2014-07-07 13:00:23.206";"2014-07-07 13:09:42.392";"1";"1";"0";"643";"147";"module.training_block4.exec-1899.GoNoGo4";;;;;;;;;;;;;;;;;;;;;;;;;;;;;;;;;;;;;;;;;;;;;;;;;;;;;;;;;;;"1252";"2014-07-07 13:08:06.711";"ST_correctStop";"24";"1";"FINISHED";"NONE";"success";"0";"1";"2014-07-07 13:08:05.456";"3";;;;;;;;;;;;;;;;;;;;;
"ra-test";;;"Windows 7";"Rachel's Experiment (D.T.)";"1.0";"2";"1";"1";"2";"2";"1";"2014-07-07 13:00:23.206";"2014-07-07 13:09:42.392";"1";"1";"0";"644";"148";"module.training_block4.exec-1899.GoNoGo4";;;;;;;;;;;;;;;;;;;;;;;;;;;;;;;;;;;;;;;;;;;;;;;;;;;;;;;;;;;"1252";"2014-07-07 13:08:09.241";"NST_miss";"28";"0";"FINISHED";"NONE";"failure";"0";"0";"2014-07-07 13:08:07.986";"3";;;;;;;;;;;;;;;;;;;;;
"ra-test";;;"Windows 7";"Rachel's Experiment (D.T.)";"1.0";"2";"1";"1";"2";"2";"1";"2014-07-07 13:00:23.206";"2014-07-07 13:09:42.392";"1";"1";"0";"645";"149";"module.training_block4.exec-1899.GoNoGo4";;;;;;;;;;;;;;;;;;;;;;;;;;;;;;;;;;;;;;;;;;;;;;;;;;;;;;;;;;;"1250";"2014-07-07 13:08:11.764";"NST_miss";"13";"0";"FINISHED";"NONE";"failure";"0";"0";"2014-07-07 13:08:10.511";"2";;;;;;;;;;;;;;;;;;;;;
"ra-test";;;"Windows 7";"Rachel's Experiment (D.T.)";"1.0";"2";"1";"1";"2";"2";"1";"2014-07-07 13:00:23.206";"2014-07-07 13:09:42.392";"1";"1";"0";"646";"150";"module.training_block4.exec-1899.GoNoGo4";;;;;;;;;;;;;;;;;;;;;;;;;;;;;;;;;;;;;;;;;;;;;;;;;;;;;;;;;;;"1247";"2014-07-07 13:08:14.289";"ST_correctStop";"35";"1";"FINISHED";"NONE";"success";"0";"1";"2014-07-07 13:08:13.039";"3";;;;;;;;;;;;;;;;;;;;;
"ra-test";;;"Windows 7";"Rachel's Experiment (D.T.)";"1.0";"2";"1";"1";"2";"2";"1";"2014-07-07 13:00:23.206";"2014-07-07 13:09:42.392";"1";"1";"0";"647";"151";"module.training_block4.exec-1899.GoNoGo4";;;;;;;;;;;;;;;;;;;;;;;;;;;;;;;;;;;;;;;;;;;;;;;;;;;;;;;;;;;"1247";"2014-07-07 13:08:16.814";"ST_correctStop";"30";"0";"FINISHED";"NONE";"success";"0";"1";"2014-07-07 13:08:15.564";"3";;;;;;;;;;;;;;;;;;;;;
"ra-test";;;"Windows 7";"Rachel's Experiment (D.T.)";"1.0";"2";"1";"1";"2";"2";"1";"2014-07-07 13:00:23.206";"2014-07-07 13:09:42.392";"1";"1";"0";"648";"152";"module.training_block4.exec-1899.GoNoGo4";;;;;;;;;;;;;;;;;;;;;;;;;;;;;;;;;;;;;;;;;;;;;;;;;;;;;;;;;;;"1252";"2014-07-07 13:08:19.339";"ST_correctStop";"0";"0";"FINISHED";"NONE";"success";"0";"1";"2014-07-07 13:08:18.084";"1";;;;;;;;;;;;;;;;;;;;;
"ra-test";;;"Windows 7";"Rachel's Experiment (D.T.)";"1.0";"2";"1";"1";"2";"2";"1";"2014-07-07 13:00:23.206";"2014-07-07 13:09:42.392";"1";"1";"0";"649";"153";"module.training_block4.exec-1899.GoNoGo4";;;;;;;;;;;;;;;;;;;;;;;;;;;;;;;;;;;;;;;;;;;;;;;;;;;;;;;;;;;"1247";"2014-07-07 13:08:21.859";"NST_miss";"10";"0";"FINISHED";"NONE";"failure";"0";"0";"2014-07-07 13:08:20.609";"2";;;;;;;;;;;;;;;;;;;;;
"ra-test";;;"Windows 7";"Rachel's Experiment (D.T.)";"1.0";"2";"1";"1";"2";"2";"1";"2014-07-07 13:00:23.206";"2014-07-07 13:09:42.392";"1";"1";"0";"650";"154";"module.training_block4.exec-1899.GoNoGo4";;;;;;;;;;;;;;;;;;;;;;;;;;;;;;;;;;;;;;;;;;;;;;;;;;;;;;;;;;;"1247";"2014-07-07 13:08:24.379";"NST_miss";"25";"0";"FINISHED";"NONE";"failure";"0";"0";"2014-07-07 13:08:23.129";"3";;;;;;;;;;;;;;;;;;;;;
"ra-test";;;"Windows 7";"Rachel's Experiment (D.T.)";"1.0";"2";"1";"1";"2";"2";"1";"2014-07-07 13:00:23.206";"2014-07-07 13:09:42.392";"1";"1";"0";"651";"155";"module.training_block4.exec-1899.GoNoGo4";;;;;;;;;;;;;;;;;;;;;;;;;;;;;;;;;;;;;;;;;;;;;;;;;;;;;;;;;;;"1252";"2014-07-07 13:08:26.904";"ST_correctStop";"3";"0";"FINISHED";"NONE";"success";"0";"1";"2014-07-07 13:08:25.649";"1";;;;;;;;;;;;;;;;;;;;;
"ra-test";;;"Windows 7";"Rachel's Experiment (D.T.)";"1.0";"2";"1";"1";"2";"2";"1";"2014-07-07 13:00:23.206";"2014-07-07 13:09:42.392";"1";"1";"0";"652";"156";"module.training_block4.exec-1899.GoNoGo4";;;;;;;;;;;;;;;;;;;;;;;;;;;;;;;;;;;;;;;;;;;;;;;;;;;;;;;;;;;"1247";"2014-07-07 13:08:29.424";"NST_miss";"21";"0";"FINISHED";"NONE";"failure";"0";"0";"2014-07-07 13:08:28.174";"3";;;;;;;;;;;;;;;;;;;;;
"ra-test";;;"Windows 7";"Rachel's Experiment (D.T.)";"1.0";"2";"1";"1";"2";"2";"1";"2014-07-07 13:00:23.206";"2014-07-07 13:09:42.392";"1";"1";"0";"653";"157";"module.training_block4.exec-1899.GoNoGo4";;;;;;;;;;;;;;;;;;;;;;;;;;;;;;;;;;;;;;;;;;;;;;;;;;;;;;;;;;;"1251";"2014-07-07 13:08:31.949";"NST_miss";"9";"0";"FINISHED";"NONE";"failure";"0";"0";"2014-07-07 13:08:30.694";"2";;;;;;;;;;;;;;;;;;;;;
"ra-test";;;"Windows 7";"Rachel's Experiment (D.T.)";"1.0";"2";"1";"1";"2";"2";"1";"2014-07-07 13:00:23.206";"2014-07-07 13:09:42.392";"1";"1";"0";"654";"158";"module.training_block4.exec-1899.GoNoGo4";;;;;;;;;;;;;;;;;;;;;;;;;;;;;;;;;;;;;;;;;;;;;;;;;;;;;;;;;;;"1247";"2014-07-07 13:08:34.478";"NST_miss";"23";"1";"FINISHED";"NONE";"failure";"0";"0";"2014-07-07 13:08:33.228";"3";;;;;;;;;;;;;;;;;;;;;
"ra-test";;;"Windows 7";"Rachel's Experiment (D.T.)";"1.0";"2";"1";"1";"2";"2";"1";"2014-07-07 13:00:23.206";"2014-07-07 13:09:42.392";"1";"1";"0";"655";"159";"module.devaluation_practice.exec-7696.devalPractice";;;;;;;;;;;;"6727";"2014-07-07 13:09:15.406";"0";"5";"5";"5";"2593";"431";"679";"2014-07-07 13:09:08.673";;;;;;;;;;;;;;;;;;;;;;;;;;;;;;;;;;;;;;;;;;;;;;;;;;;;;;;;;;;;;;;;;;;;;;
"ra-test";;;"Windows 7";"Rachel's Experiment (D.T.)";"1.0";"2";"1";"1";"2";"2";"1";"2014-07-07 13:00:23.206";"2014-07-07 13:09:42.392";"1";"1";"0";"656";"160";"module.devaluation_practice.exec-7696.devalPractice";;;;;;;;;;;;"3998";"2014-07-07 13:09:19.431";"1";"5";"5";"5";"441";"247";"306";"2014-07-07 13:09:15.433";;;;;;;;;;;;;;;;;;;;;;;;;;;;;;;;;;;;;;;;;;;;;;;;;;;;;;;;;;;;;;;;;;;;;;
"ra-test";;;"Windows 7";"Rachel's Experiment (D.T.)";"1.0";"2";"1";"1";"2";"2";"1";"2014-07-07 13:00:23.206";"2014-07-07 13:09:42.392";"1";"1";"0";"657";"161";"module.devaluation_practice.exec-7696.devalPractice";;;;;;;;;;;;"4706";"2014-07-07 13:09:24.156";"2";"5";"5";"5";"521";"455";"735";"2014-07-07 13:09:19.451";;;;;;;;;;;;;;;;;;;;;;;;;;;;;;;;;;;;;;;;;;;;;;;;;;;;;;;;;;;;;;;;;;;;;;
"ra-test";;;"Windows 7";"Rachel's Experiment (D.T.)";"1.0";"2";"1";"1";"2";"2";"1";"2014-07-07 13:00:23.206";"2014-07-07 13:09:42.392";"1";"1";"0";"658";"162";"module.devaluation_practice.exec-7696.devalPractice";;;;;;;;;;;;"4348";"2014-07-07 13:09:28.543";"3";"5";"5";"5";"491";"409";"444";"2014-07-07 13:09:24.196";;;;;;;;;;;;;;;;;;;;;;;;;;;;;;;;;;;;;;;;;;;;;;;;;;;;;;;;;;;;;;;;;;;;;;
"ra-test";;;"Windows 7";"Rachel's Experiment (D.T.)";"1.0";"2";"1";"1";"2";"2";"1";"2014-07-07 13:00:23.206";"2014-07-07 13:09:42.392";"1";"1";"0";"659";"163";"module.devaluation_block1.exec-8466.deval1";"3788";"2014-07-07 13:09:36.589";"21";"5";"5";"5";"20";"407";"358";"2014-07-07 13:09:32.794";"3";;;;;;;;;;;;;;;;;;;;;;;;;;;;;;;;;;;;;;;;;;;;;;;;;;;;;;;;;;;;;;;;;;;;;;;;;;;;;;;;
"ra-test";;;"Windows 7";"Rachel's Experiment (D.T.)";"1.0";"2";"1";"1";"2";"2";"1";"2014-07-07 13:00:23.206";"2014-07-07 13:09:42.392";"1";"1";"0";"660";"164";"module.devaluation_block1.exec-8466.deval1";"4474";"2014-07-07 13:09:41.089";"16";"5";"5";"5";"545";"449";"478";"2014-07-07 13:09:36.609";"2";;;;;;;;;;;;;;;;;;;;;;;;;;;;;;;;;;;;;;;;;;;;;;;;;;;;;;;;;;;;;;;;;;;;;;;;;;;;;;;;
