"user.name";"user.yearOfBirth";"user.sex";"user.osName";"module.name";"module.version";"module.online.subject.code";"module.online.study.id";"module.online.module.nr";"module.online.group.nr";"session.id";"session.index";"session.startTime";"session.endTime";"session.completed";"session.node-6456.DevalQorder";"session.node-6541.conditionType";"trial.id";"trial.index";"trial.name";"trial.deval1.durationTime";"trial.deval1.endTime";"trial.deval1.icon";"trial.deval1.Resp_Attractive";"trial.deval1.Resp_Eat";"trial.deval1.Resp_Taste";"trial.deval1.RT_Attractive";"trial.deval1.RT_Eat";"trial.deval1.RT_Taste";"trial.deval1.startTime";"trial.deval1.stimulus type";"trial.devalPractice.durationTime";"trial.devalPractice.endTime";"trial.devalPractice.icon";"trial.devalPractice.Resp_Attractive";"trial.devalPractice.Resp_Eat";"trial.devalPractice.Resp_Taste";"trial.devalPractice.RT_Attractive";"trial.devalPractice.RT_Eat";"trial.devalPractice.RT_Taste";"trial.devalPractice.startTime";"trial.devalPractice.stimulus type";"trial.GoNoGo1.durationTime";"trial.GoNoGo1.endTime";"trial.GoNoGo1.Error Type";"trial.GoNoGo1.icon";"trial.GoNoGo1.location";"trial.GoNoGo1.outcome";"trial.GoNoGo1.response";"trial.GoNoGo1.result";"trial.GoNoGo1.RT";"trial.GoNoGo1.signal";"trial.GoNoGo1.startTime";"trial.GoNoGo1.stimulus type";"trial.GoNoGo2.durationTime";"trial.GoNoGo2.endTime";"trial.GoNoGo2.Error Type";"trial.GoNoGo2.icon";"trial.GoNoGo2.location";"trial.GoNoGo2.outcome";"trial.GoNoGo2.response";"trial.GoNoGo2.result";"trial.GoNoGo2.RT";"trial.GoNoGo2.signal";"trial.GoNoGo2.startTime";"trial.GoNoGo2.stimulus type";"trial.GoNoGo3.durationTime";"trial.GoNoGo3.endTime";"trial.GoNoGo3.Error Type";"trial.GoNoGo3.icon";"trial.GoNoGo3.location";"trial.GoNoGo3.outcome";"trial.GoNoGo3.response";"trial.GoNoGo3.result";"trial.GoNoGo3.RT";"trial.GoNoGo3.signal";"trial.GoNoGo3.startTime";"trial.GoNoGo3.stimulus type";"trial.GoNoGo4.durationTime";"trial.GoNoGo4.endTime";"trial.GoNoGo4.Error Type";"trial.GoNoGo4.icon";"trial.GoNoGo4.location";"trial.GoNoGo4.outcome";"trial.GoNoGo4.response";"trial.GoNoGo4.result";"trial.GoNoGo4.RT";"trial.GoNoGo4.signal";"trial.GoNoGo4.startTime";"trial.GoNoGo4.stimulus type";"trial.GoNoGo_Practice.durationTime";"trial.GoNoGo_Practice.endTime";"trial.GoNoGo_Practice.icon";"trial.GoNoGo_Practice.location";"trial.GoNoGo_Practice.outcome";"trial.GoNoGo_Practice.response";"trial.GoNoGo_Practice.result";"trial.GoNoGo_Practice.RT";"trial.GoNoGo_Practice.signal";"trial.GoNoGo_Practice.startTime";"trial.GoNoGo_Practice.stimulus type";"trial.GoNoGo_Tutorial.durationTime";"trial.GoNoGo_Tutorial.endTime";"trial.GoNoGo_Tutorial.icon";"trial.GoNoGo_Tutorial.location";"trial.GoNoGo_Tutorial.outcome";"trial.GoNoGo_Tutorial.response";"trial.GoNoGo_Tutorial.result";"trial.GoNoGo_Tutorial.RT";"trial.GoNoGo_Tutorial.signal";"trial.GoNoGo_Tutorial.startTime"
"Josh6";"1995";;"Windows 7";"Rachel's Experiment (D.T.)";"1.0";"2";"1";"1";"2";"1";"1";"2014-10-07 10:00:29.370";"2014-10-07 10:12:52.955";"1";"0";"0";"1";"0";"module.GoNoGotutorial.exec-3320.GoNoGo_Tutorial";;;;;;;;;;;;;;;;;;;;;;;;;;;;;;;;;;;;;;;;;;;;;;;;;;;;;;;;;;;;;;;;;;;;;;;;;;;;;;;;;;"3996";"2014-10-07 10:01:19.834";"leftResponse";"0";"FINISHED";"LEFT";"success";"643";"0";"2014-10-07 10:01:15.825"
"Josh6";"1995";;"Windows 7";"Rachel's Experiment (D.T.)";"1.0";"2";"1";"1";"2";"1";"1";"2014-10-07 10:00:29.370";"2014-10-07 10:12:52.955";"1";"0";"0";"2";"1";"module.GoNoGotutorial.exec-3320.GoNoGo_Tutorial";;;;;;;;;;;;;;;;;;;;;;;;;;;;;;;;;;;;;;;;;;;;;;;;;;;;;;;;;;;;;;;;;;;;;;;;;;;;;;;;;;"4008";"2014-10-07 10:01:25.170";"rightResponse";"1";"FINISHED";"RIGHT";"success";"1152";"0";"2014-10-07 10:01:21.160"
"Josh6";"1995";;"Windows 7";"Rachel's Experiment (D.T.)";"1.0";"2";"1";"1";"2";"1";"1";"2014-10-07 10:00:29.370";"2014-10-07 10:12:52.955";"1";"0";"0";"3";"2";"module.GoNoGotutorial.exec-3320.GoNoGo_Tutorial";;;;;;;;;;;;;;;;;;;;;;;;;;;;;;;;;;;;;;;;;;;;;;;;;;;;;;;;;;;;;;;;;;;;;;;;;;;;;;;;;;"4003";"2014-10-07 10:01:30.473";"quickResponse";"0";"FINISHED";"NONE";"failure";"0";"0";"2014-10-07 10:01:26.464"
"Josh6";"1995";;"Windows 7";"Rachel's Experiment (D.T.)";"1.0";"2";"1";"1";"2";"1";"1";"2014-10-07 10:00:29.370";"2014-10-07 10:12:52.955";"1";"0";"0";"4";"3";"module.GoNoGopractice.exec-9758.GoNoGo_Practice";;;;;;;;;;;;;;;;;;;;;;;;;;;;;;;;;;;;;;;;;;;;;;;;;;;;;;;;;;;;;;;;;;;;;;;"1958";"2014-10-07 10:01:40.098";"18";"0";"FINISHED";"LEFT";"success";"452";"0";"2014-10-07 10:01:38.133";"3";;;;;;;;;;
"Josh6";"1995";;"Windows 7";"Rachel's Experiment (D.T.)";"1.0";"2";"1";"1";"2";"1";"1";"2014-10-07 10:00:29.370";"2014-10-07 10:12:52.955";"1";"0";"0";"5";"4";"module.GoNoGopractice.exec-9758.GoNoGo_Practice";;;;;;;;;;;;;;;;;;;;;;;;;;;;;;;;;;;;;;;;;;;;;;;;;;;;;;;;;;;;;;;;;;;;;;;"1959";"2014-10-07 10:01:43.343";"21";"1";"FINISHED";"RIGHT";"success";"417";"0";"2014-10-07 10:01:41.377";"3";;;;;;;;;;
"Josh6";"1995";;"Windows 7";"Rachel's Experiment (D.T.)";"1.0";"2";"1";"1";"2";"1";"1";"2014-10-07 10:00:29.370";"2014-10-07 10:12:52.955";"1";"0";"0";"6";"5";"module.GoNoGopractice.exec-9758.GoNoGo_Practice";;;;;;;;;;;;;;;;;;;;;;;;;;;;;;;;;;;;;;;;;;;;;;;;;;;;;;;;;;;;;;;;;;;;;;;"1959";"2014-10-07 10:01:46.588";"14";"1";"FINISHED";"RIGHT";"success";"364";"0";"2014-10-07 10:01:44.622";"2";;;;;;;;;;
"Josh6";"1995";;"Windows 7";"Rachel's Experiment (D.T.)";"1.0";"2";"1";"1";"2";"1";"1";"2014-10-07 10:00:29.370";"2014-10-07 10:12:52.955";"1";"0";"0";"7";"6";"module.GoNoGopractice.exec-9758.GoNoGo_Practice";;;;;;;;;;;;;;;;;;;;;;;;;;;;;;;;;;;;;;;;;;;;;;;;;;;;;;;;;;;;;;;;;;;;;;;"1959";"2014-10-07 10:01:49.832";"26";"0";"FINISHED";"LEFT";"success";"551";"0";"2014-10-07 10:01:47.867";"3";;;;;;;;;;
"Josh6";"1995";;"Windows 7";"Rachel's Experiment (D.T.)";"1.0";"2";"1";"1";"2";"1";"1";"2014-10-07 10:00:29.370";"2014-10-07 10:12:52.955";"1";"0";"0";"8";"7";"module.GoNoGopractice.exec-9758.GoNoGo_Practice";;;;;;;;;;;;;;;;;;;;;;;;;;;;;;;;;;;;;;;;;;;;;;;;;;;;;;;;;;;;;;;;;;;;;;;"1959";"2014-10-07 10:01:53.077";"2";"0";"FINISHED";"LEFT";"success";"531";"0";"2014-10-07 10:01:51.111";"1";;;;;;;;;;
"Josh6";"1995";;"Windows 7";"Rachel's Experiment (D.T.)";"1.0";"2";"1";"1";"2";"1";"1";"2014-10-07 10:00:29.370";"2014-10-07 10:12:52.955";"1";"0";"0";"9";"8";"module.GoNoGopractice.exec-9758.GoNoGo_Practice";;;;;;;;;;;;;;;;;;;;;;;;;;;;;;;;;;;;;;;;;;;;;;;;;;;;;;;;;;;;;;;;;;;;;;;"1960";"2014-10-07 10:01:56.322";"30";"0";"FINISHED";"LEFT";"success";"398";"0";"2014-10-07 10:01:54.356";"3";;;;;;;;;;
"Josh6";"1995";;"Windows 7";"Rachel's Experiment (D.T.)";"1.0";"2";"1";"1";"2";"1";"1";"2014-10-07 10:00:29.370";"2014-10-07 10:12:52.955";"1";"0";"0";"10";"9";"module.GoNoGopractice.exec-9758.GoNoGo_Practice";;;;;;;;;;;;;;;;;;;;;;;;;;;;;;;;;;;;;;;;;;;;;;;;;;;;;;;;;;;;;;;;;;;;;;;"1959";"2014-10-07 10:01:59.566";"6";"1";"FINISHED";"RIGHT";"success";"505";"0";"2014-10-07 10:01:57.601";"1";;;;;;;;;;
"Josh6";"1995";;"Windows 7";"Rachel's Experiment (D.T.)";"1.0";"2";"1";"1";"2";"1";"1";"2014-10-07 10:00:29.370";"2014-10-07 10:12:52.955";"1";"0";"0";"11";"10";"module.GoNoGopractice.exec-9758.GoNoGo_Practice";;;;;;;;;;;;;;;;;;;;;;;;;;;;;;;;;;;;;;;;;;;;;;;;;;;;;;;;;;;;;;;;;;;;;;;"1960";"2014-10-07 10:02:02.811";"34";"0";"FINISHED";"LEFT";"success";"373";"0";"2014-10-07 10:02:00.846";"3";;;;;;;;;;
"Josh6";"1995";;"Windows 7";"Rachel's Experiment (D.T.)";"1.0";"2";"1";"1";"2";"1";"1";"2014-10-07 10:00:29.370";"2014-10-07 10:12:52.955";"1";"0";"0";"12";"11";"module.GoNoGopractice.exec-9758.GoNoGo_Practice";;;;;;;;;;;;;;;;;;;;;;;;;;;;;;;;;;;;;;;;;;;;;;;;;;;;;;;;;;;;;;;;;;;;;;;"1959";"2014-10-07 10:02:06.071";"23";"1";"FINISHED";"RIGHT";"success";"352";"0";"2014-10-07 10:02:04.106";"3";;;;;;;;;;
"Josh6";"1995";;"Windows 7";"Rachel's Experiment (D.T.)";"1.0";"2";"1";"1";"2";"1";"1";"2014-10-07 10:00:29.370";"2014-10-07 10:12:52.955";"1";"0";"0";"13";"12";"module.GoNoGopractice.exec-9758.GoNoGo_Practice";;;;;;;;;;;;;;;;;;;;;;;;;;;;;;;;;;;;;;;;;;;;;;;;;;;;;;;;;;;;;;;;;;;;;;;"1959";"2014-10-07 10:02:09.316";"13";"0";"FINISHED";"LEFT";"success";"427";"0";"2014-10-07 10:02:07.351";"2";;;;;;;;;;
"Josh6";"1995";;"Windows 7";"Rachel's Experiment (D.T.)";"1.0";"2";"1";"1";"2";"1";"1";"2014-10-07 10:00:29.370";"2014-10-07 10:12:52.955";"1";"0";"0";"14";"13";"module.GoNoGopractice.exec-9758.GoNoGo_Practice";;;;;;;;;;;;;;;;;;;;;;;;;;;;;;;;;;;;;;;;;;;;;;;;;;;;;;;;;;;;;;;;;;;;;;;"1960";"2014-10-07 10:02:12.561";"3";"1";"FINISHED";"RIGHT";"success";"454";"0";"2014-10-07 10:02:10.595";"1";;;;;;;;;;
"Josh6";"1995";;"Windows 7";"Rachel's Experiment (D.T.)";"1.0";"2";"1";"1";"2";"1";"1";"2014-10-07 10:00:29.370";"2014-10-07 10:12:52.955";"1";"0";"0";"15";"14";"module.GoNoGopractice.exec-9758.GoNoGo_Practice";;;;;;;;;;;;;;;;;;;;;;;;;;;;;;;;;;;;;;;;;;;;;;;;;;;;;;;;;;;;;;;;;;;;;;;"1959";"2014-10-07 10:02:15.805";"27";"1";"FINISHED";"RIGHT";"success";"401";"0";"2014-10-07 10:02:13.840";"3";;;;;;;;;;
"Josh6";"1995";;"Windows 7";"Rachel's Experiment (D.T.)";"1.0";"2";"1";"1";"2";"1";"1";"2014-10-07 10:00:29.370";"2014-10-07 10:12:52.955";"1";"0";"0";"16";"15";"module.training_block1.exec-2961.GoNoGo1";;;;;;;;;;;;;;;;;;;;;;;"1260";"2014-10-07 10:02:25.243";"NST_correctLoc";"27";"0";"FINISHED";"LEFT";"success";"440";"0";"2014-10-07 10:02:23.980";"3";;;;;;;;;;;;;;;;;;;;;;;;;;;;;;;;;;;;;;;;;;;;;;;;;;;;;;;;;
"Josh6";"1995";;"Windows 7";"Rachel's Experiment (D.T.)";"1.0";"2";"1";"1";"2";"1";"1";"2014-10-07 10:00:29.370";"2014-10-07 10:12:52.955";"1";"0";"0";"17";"16";"module.training_block1.exec-2961.GoNoGo1";;;;;;;;;;;;;;;;;;;;;;;"1261";"2014-10-07 10:02:27.786";"NST_correctLoc";"30";"1";"FINISHED";"RIGHT";"success";"402";"0";"2014-10-07 10:02:26.522";"3";;;;;;;;;;;;;;;;;;;;;;;;;;;;;;;;;;;;;;;;;;;;;;;;;;;;;;;;;
"Josh6";"1995";;"Windows 7";"Rachel's Experiment (D.T.)";"1.0";"2";"1";"1";"2";"1";"1";"2014-10-07 10:00:29.370";"2014-10-07 10:12:52.955";"1";"0";"0";"18";"17";"module.training_block1.exec-2961.GoNoGo1";;;;;;;;;;;;;;;;;;;;;;;"1261";"2014-10-07 10:02:30.329";"NST_correctLoc";"14";"0";"FINISHED";"LEFT";"success";"435";"0";"2014-10-07 10:02:29.065";"2";;;;;;;;;;;;;;;;;;;;;;;;;;;;;;;;;;;;;;;;;;;;;;;;;;;;;;;;;
"Josh6";"1995";;"Windows 7";"Rachel's Experiment (D.T.)";"1.0";"2";"1";"1";"2";"1";"1";"2014-10-07 10:00:29.370";"2014-10-07 10:12:52.955";"1";"0";"0";"19";"18";"module.training_block1.exec-2961.GoNoGo1";;;;;;;;;;;;;;;;;;;;;;;"1261";"2014-10-07 10:02:32.871";"NST_correctLoc";"26";"1";"FINISHED";"RIGHT";"success";"445";"0";"2014-10-07 10:02:31.608";"3";;;;;;;;;;;;;;;;;;;;;;;;;;;;;;;;;;;;;;;;;;;;;;;;;;;;;;;;;
"Josh6";"1995";;"Windows 7";"Rachel's Experiment (D.T.)";"1.0";"2";"1";"1";"2";"1";"1";"2014-10-07 10:00:29.370";"2014-10-07 10:12:52.955";"1";"0";"0";"20";"19";"module.training_block1.exec-2961.GoNoGo1";;;;;;;;;;;;;;;;;;;;;;;"1261";"2014-10-07 10:02:35.414";"NST_correctLoc";"21";"1";"FINISHED";"RIGHT";"success";"382";"0";"2014-10-07 10:02:34.151";"3";;;;;;;;;;;;;;;;;;;;;;;;;;;;;;;;;;;;;;;;;;;;;;;;;;;;;;;;;
"Josh6";"1995";;"Windows 7";"Rachel's Experiment (D.T.)";"1.0";"2";"1";"1";"2";"1";"1";"2014-10-07 10:00:29.370";"2014-10-07 10:12:52.955";"1";"0";"0";"21";"20";"module.training_block1.exec-2961.GoNoGo1";;;;;;;;;;;;;;;;;;;;;;;"1258";"2014-10-07 10:02:37.957";"NST_correctLoc";"16";"0";"FINISHED";"LEFT";"success";"403";"0";"2014-10-07 10:02:36.693";"2";;;;;;;;;;;;;;;;;;;;;;;;;;;;;;;;;;;;;;;;;;;;;;;;;;;;;;;;;
"Josh6";"1995";;"Windows 7";"Rachel's Experiment (D.T.)";"1.0";"2";"1";"1";"2";"1";"1";"2014-10-07 10:00:29.370";"2014-10-07 10:12:52.955";"1";"0";"0";"22";"21";"module.training_block1.exec-2961.GoNoGo1";;;;;;;;;;;;;;;;;;;;;;;"1258";"2014-10-07 10:02:40.499";"NST_correctLoc";"35";"0";"FINISHED";"LEFT";"success";"461";"0";"2014-10-07 10:02:39.236";"3";;;;;;;;;;;;;;;;;;;;;;;;;;;;;;;;;;;;;;;;;;;;;;;;;;;;;;;;;
"Josh6";"1995";;"Windows 7";"Rachel's Experiment (D.T.)";"1.0";"2";"1";"1";"2";"1";"1";"2014-10-07 10:00:29.370";"2014-10-07 10:12:52.955";"1";"0";"0";"23";"22";"module.training_block1.exec-2961.GoNoGo1";;;;;;;;;;;;;;;;;;;;;;;"1257";"2014-10-07 10:02:43.042";"NST_correctLoc";"19";"1";"FINISHED";"RIGHT";"success";"325";"0";"2014-10-07 10:02:41.779";"3";;;;;;;;;;;;;;;;;;;;;;;;;;;;;;;;;;;;;;;;;;;;;;;;;;;;;;;;;
"Josh6";"1995";;"Windows 7";"Rachel's Experiment (D.T.)";"1.0";"2";"1";"1";"2";"1";"1";"2014-10-07 10:00:29.370";"2014-10-07 10:12:52.955";"1";"0";"0";"24";"23";"module.training_block1.exec-2961.GoNoGo1";;;;;;;;;;;;;;;;;;;;;;;"1258";"2014-10-07 10:02:45.585";"NST_correctLoc";"20";"1";"FINISHED";"RIGHT";"success";"351";"0";"2014-10-07 10:02:44.321";"3";;;;;;;;;;;;;;;;;;;;;;;;;;;;;;;;;;;;;;;;;;;;;;;;;;;;;;;;;
"Josh6";"1995";;"Windows 7";"Rachel's Experiment (D.T.)";"1.0";"2";"1";"1";"2";"1";"1";"2014-10-07 10:00:29.370";"2014-10-07 10:12:52.955";"1";"0";"0";"25";"24";"module.training_block1.exec-2961.GoNoGo1";;;;;;;;;;;;;;;;;;;;;;;"1257";"2014-10-07 10:02:48.128";"NST_correctLoc";"15";"1";"FINISHED";"RIGHT";"success";"503";"0";"2014-10-07 10:02:46.864";"2";;;;;;;;;;;;;;;;;;;;;;;;;;;;;;;;;;;;;;;;;;;;;;;;;;;;;;;;;
"Josh6";"1995";;"Windows 7";"Rachel's Experiment (D.T.)";"1.0";"2";"1";"1";"2";"1";"1";"2014-10-07 10:00:29.370";"2014-10-07 10:12:52.955";"1";"0";"0";"26";"25";"module.training_block1.exec-2961.GoNoGo1";;;;;;;;;;;;;;;;;;;;;;;"1252";"2014-10-07 10:02:50.764";"NST_correctLoc";"32";"1";"FINISHED";"RIGHT";"success";"382";"0";"2014-10-07 10:02:49.500";"3";;;;;;;;;;;;;;;;;;;;;;;;;;;;;;;;;;;;;;;;;;;;;;;;;;;;;;;;;
"Josh6";"1995";;"Windows 7";"Rachel's Experiment (D.T.)";"1.0";"2";"1";"1";"2";"1";"1";"2014-10-07 10:00:29.370";"2014-10-07 10:12:52.955";"1";"0";"0";"27";"26";"module.training_block1.exec-2961.GoNoGo1";;;;;;;;;;;;;;;;;;;;;;;"1258";"2014-10-07 10:02:53.307";"NST_correctLoc";"28";"1";"FINISHED";"RIGHT";"success";"509";"0";"2014-10-07 10:02:52.043";"3";;;;;;;;;;;;;;;;;;;;;;;;;;;;;;;;;;;;;;;;;;;;;;;;;;;;;;;;;
"Josh6";"1995";;"Windows 7";"Rachel's Experiment (D.T.)";"1.0";"2";"1";"1";"2";"1";"1";"2014-10-07 10:00:29.370";"2014-10-07 10:12:52.955";"1";"0";"0";"28";"27";"module.training_block1.exec-2961.GoNoGo1";;;;;;;;;;;;;;;;;;;;;;;"1258";"2014-10-07 10:02:55.849";"NST_correctLoc";"24";"0";"FINISHED";"LEFT";"success";"462";"0";"2014-10-07 10:02:54.586";"3";;;;;;;;;;;;;;;;;;;;;;;;;;;;;;;;;;;;;;;;;;;;;;;;;;;;;;;;;
"Josh6";"1995";;"Windows 7";"Rachel's Experiment (D.T.)";"1.0";"2";"1";"1";"2";"1";"1";"2014-10-07 10:00:29.370";"2014-10-07 10:12:52.955";"1";"0";"0";"29";"28";"module.training_block1.exec-2961.GoNoGo1";;;;;;;;;;;;;;;;;;;;;;;"1257";"2014-10-07 10:02:58.392";"NST_correctLoc";"8";"1";"FINISHED";"RIGHT";"success";"543";"0";"2014-10-07 10:02:57.129";"1";;;;;;;;;;;;;;;;;;;;;;;;;;;;;;;;;;;;;;;;;;;;;;;;;;;;;;;;;
"Josh6";"1995";;"Windows 7";"Rachel's Experiment (D.T.)";"1.0";"2";"1";"1";"2";"1";"1";"2014-10-07 10:00:29.370";"2014-10-07 10:12:52.955";"1";"0";"0";"30";"29";"module.training_block1.exec-2961.GoNoGo1";;;;;;;;;;;;;;;;;;;;;;;"1258";"2014-10-07 10:03:00.935";"NST_correctLoc";"12";"1";"FINISHED";"RIGHT";"success";"361";"0";"2014-10-07 10:02:59.671";"2";;;;;;;;;;;;;;;;;;;;;;;;;;;;;;;;;;;;;;;;;;;;;;;;;;;;;;;;;
"Josh6";"1995";;"Windows 7";"Rachel's Experiment (D.T.)";"1.0";"2";"1";"1";"2";"1";"1";"2014-10-07 10:00:29.370";"2014-10-07 10:12:52.955";"1";"0";"0";"31";"30";"module.training_block1.exec-2961.GoNoGo1";;;;;;;;;;;;;;;;;;;;;;;"1258";"2014-10-07 10:03:03.478";"NST_correctLoc";"29";"1";"FINISHED";"RIGHT";"success";"330";"0";"2014-10-07 10:03:02.214";"3";;;;;;;;;;;;;;;;;;;;;;;;;;;;;;;;;;;;;;;;;;;;;;;;;;;;;;;;;
"Josh6";"1995";;"Windows 7";"Rachel's Experiment (D.T.)";"1.0";"2";"1";"1";"2";"1";"1";"2014-10-07 10:00:29.370";"2014-10-07 10:12:52.955";"1";"0";"0";"32";"31";"module.training_block1.exec-2961.GoNoGo1";;;;;;;;;;;;;;;;;;;;;;;"1258";"2014-10-07 10:03:06.020";"NST_correctLoc";"9";"0";"FINISHED";"LEFT";"success";"539";"0";"2014-10-07 10:03:04.757";"2";;;;;;;;;;;;;;;;;;;;;;;;;;;;;;;;;;;;;;;;;;;;;;;;;;;;;;;;;
"Josh6";"1995";;"Windows 7";"Rachel's Experiment (D.T.)";"1.0";"2";"1";"1";"2";"1";"1";"2014-10-07 10:00:29.370";"2014-10-07 10:12:52.955";"1";"0";"0";"33";"32";"module.training_block1.exec-2961.GoNoGo1";;;;;;;;;;;;;;;;;;;;;;;"1257";"2014-10-07 10:03:08.563";"NST_correctLoc";"31";"1";"FINISHED";"RIGHT";"success";"396";"0";"2014-10-07 10:03:07.300";"3";;;;;;;;;;;;;;;;;;;;;;;;;;;;;;;;;;;;;;;;;;;;;;;;;;;;;;;;;
"Josh6";"1995";;"Windows 7";"Rachel's Experiment (D.T.)";"1.0";"2";"1";"1";"2";"1";"1";"2014-10-07 10:00:29.370";"2014-10-07 10:12:52.955";"1";"0";"0";"34";"33";"module.training_block1.exec-2961.GoNoGo1";;;;;;;;;;;;;;;;;;;;;;;"1258";"2014-10-07 10:03:11.106";"NST_correctLoc";"5";"1";"FINISHED";"RIGHT";"success";"349";"0";"2014-10-07 10:03:09.842";"1";;;;;;;;;;;;;;;;;;;;;;;;;;;;;;;;;;;;;;;;;;;;;;;;;;;;;;;;;
"Josh6";"1995";;"Windows 7";"Rachel's Experiment (D.T.)";"1.0";"2";"1";"1";"2";"1";"1";"2014-10-07 10:00:29.370";"2014-10-07 10:12:52.955";"1";"0";"0";"35";"34";"module.training_block1.exec-2961.GoNoGo1";;;;;;;;;;;;;;;;;;;;;;;"1256";"2014-10-07 10:03:13.649";"NST_correctLoc";"17";"1";"FINISHED";"RIGHT";"success";"341";"0";"2014-10-07 10:03:12.385";"2";;;;;;;;;;;;;;;;;;;;;;;;;;;;;;;;;;;;;;;;;;;;;;;;;;;;;;;;;
"Josh6";"1995";;"Windows 7";"Rachel's Experiment (D.T.)";"1.0";"2";"1";"1";"2";"1";"1";"2014-10-07 10:00:29.370";"2014-10-07 10:12:52.955";"1";"0";"0";"36";"35";"module.training_block1.exec-2961.GoNoGo1";;;;;;;;;;;;;;;;;;;;;;;"1258";"2014-10-07 10:03:16.191";"NST_correctLoc";"18";"0";"FINISHED";"LEFT";"success";"464";"0";"2014-10-07 10:03:14.928";"3";;;;;;;;;;;;;;;;;;;;;;;;;;;;;;;;;;;;;;;;;;;;;;;;;;;;;;;;;
"Josh6";"1995";;"Windows 7";"Rachel's Experiment (D.T.)";"1.0";"2";"1";"1";"2";"1";"1";"2014-10-07 10:00:29.370";"2014-10-07 10:12:52.955";"1";"0";"0";"37";"36";"module.training_block1.exec-2961.GoNoGo1";;;;;;;;;;;;;;;;;;;;;;;"1257";"2014-10-07 10:03:18.734";"NST_correctLoc";"7";"1";"FINISHED";"RIGHT";"success";"384";"0";"2014-10-07 10:03:17.471";"1";;;;;;;;;;;;;;;;;;;;;;;;;;;;;;;;;;;;;;;;;;;;;;;;;;;;;;;;;
"Josh6";"1995";;"Windows 7";"Rachel's Experiment (D.T.)";"1.0";"2";"1";"1";"2";"1";"1";"2014-10-07 10:00:29.370";"2014-10-07 10:12:52.955";"1";"0";"0";"38";"37";"module.training_block1.exec-2961.GoNoGo1";;;;;;;;;;;;;;;;;;;;;;;"1257";"2014-10-07 10:03:21.277";"NST_correctLoc";"10";"0";"FINISHED";"LEFT";"success";"329";"0";"2014-10-07 10:03:20.013";"2";;;;;;;;;;;;;;;;;;;;;;;;;;;;;;;;;;;;;;;;;;;;;;;;;;;;;;;;;
"Josh6";"1995";;"Windows 7";"Rachel's Experiment (D.T.)";"1.0";"2";"1";"1";"2";"1";"1";"2014-10-07 10:00:29.370";"2014-10-07 10:12:52.955";"1";"0";"0";"39";"38";"module.training_block1.exec-2961.GoNoGo1";;;;;;;;;;;;;;;;;;;;;;;"1258";"2014-10-07 10:03:23.820";"NST_correctLoc";"3";"1";"FINISHED";"RIGHT";"success";"315";"0";"2014-10-07 10:03:22.556";"1";;;;;;;;;;;;;;;;;;;;;;;;;;;;;;;;;;;;;;;;;;;;;;;;;;;;;;;;;
"Josh6";"1995";;"Windows 7";"Rachel's Experiment (D.T.)";"1.0";"2";"1";"1";"2";"1";"1";"2014-10-07 10:00:29.370";"2014-10-07 10:12:52.955";"1";"0";"0";"40";"39";"module.training_block1.exec-2961.GoNoGo1";;;;;;;;;;;;;;;;;;;;;;;"1258";"2014-10-07 10:03:26.362";"NST_correctLoc";"25";"1";"FINISHED";"RIGHT";"success";"388";"0";"2014-10-07 10:03:25.099";"3";;;;;;;;;;;;;;;;;;;;;;;;;;;;;;;;;;;;;;;;;;;;;;;;;;;;;;;;;
"Josh6";"1995";;"Windows 7";"Rachel's Experiment (D.T.)";"1.0";"2";"1";"1";"2";"1";"1";"2014-10-07 10:00:29.370";"2014-10-07 10:12:52.955";"1";"0";"0";"41";"40";"module.training_block1.exec-2961.GoNoGo1";;;;;;;;;;;;;;;;;;;;;;;"1258";"2014-10-07 10:03:28.905";"NST_correctLoc";"1";"0";"FINISHED";"LEFT";"success";"374";"0";"2014-10-07 10:03:27.641";"1";;;;;;;;;;;;;;;;;;;;;;;;;;;;;;;;;;;;;;;;;;;;;;;;;;;;;;;;;
"Josh6";"1995";;"Windows 7";"Rachel's Experiment (D.T.)";"1.0";"2";"1";"1";"2";"1";"1";"2014-10-07 10:00:29.370";"2014-10-07 10:12:52.955";"1";"0";"0";"42";"41";"module.training_block1.exec-2961.GoNoGo1";;;;;;;;;;;;;;;;;;;;;;;"1258";"2014-10-07 10:03:31.448";"NST_correctLoc";"34";"0";"FINISHED";"LEFT";"success";"383";"0";"2014-10-07 10:03:30.184";"3";;;;;;;;;;;;;;;;;;;;;;;;;;;;;;;;;;;;;;;;;;;;;;;;;;;;;;;;;
"Josh6";"1995";;"Windows 7";"Rachel's Experiment (D.T.)";"1.0";"2";"1";"1";"2";"1";"1";"2014-10-07 10:00:29.370";"2014-10-07 10:12:52.955";"1";"0";"0";"43";"42";"module.training_block1.exec-2961.GoNoGo1";;;;;;;;;;;;;;;;;;;;;;;"1253";"2014-10-07 10:03:33.991";"NST_correctLoc";"33";"1";"FINISHED";"RIGHT";"success";"371";"0";"2014-10-07 10:03:32.727";"3";;;;;;;;;;;;;;;;;;;;;;;;;;;;;;;;;;;;;;;;;;;;;;;;;;;;;;;;;
"Josh6";"1995";;"Windows 7";"Rachel's Experiment (D.T.)";"1.0";"2";"1";"1";"2";"1";"1";"2014-10-07 10:00:29.370";"2014-10-07 10:12:52.955";"1";"0";"0";"44";"43";"module.training_block1.exec-2961.GoNoGo1";;;;;;;;;;;;;;;;;;;;;;;"1258";"2014-10-07 10:03:36.533";"NST_correctLoc";"22";"0";"FINISHED";"LEFT";"success";"353";"0";"2014-10-07 10:03:35.270";"3";;;;;;;;;;;;;;;;;;;;;;;;;;;;;;;;;;;;;;;;;;;;;;;;;;;;;;;;;
"Josh6";"1995";;"Windows 7";"Rachel's Experiment (D.T.)";"1.0";"2";"1";"1";"2";"1";"1";"2014-10-07 10:00:29.370";"2014-10-07 10:12:52.955";"1";"0";"0";"45";"44";"module.training_block1.exec-2961.GoNoGo1";;;;;;;;;;;;;;;;;;;;;;;"1257";"2014-10-07 10:03:39.076";"NST_correctLoc";"2";"1";"FINISHED";"RIGHT";"success";"322";"0";"2014-10-07 10:03:37.812";"1";;;;;;;;;;;;;;;;;;;;;;;;;;;;;;;;;;;;;;;;;;;;;;;;;;;;;;;;;
"Josh6";"1995";;"Windows 7";"Rachel's Experiment (D.T.)";"1.0";"2";"1";"1";"2";"1";"1";"2014-10-07 10:00:29.370";"2014-10-07 10:12:52.955";"1";"0";"0";"46";"45";"module.training_block1.exec-2961.GoNoGo1";;;;;;;;;;;;;;;;;;;;;;;"1257";"2014-10-07 10:03:41.619";"NST_correctLoc";"13";"1";"FINISHED";"RIGHT";"success";"411";"0";"2014-10-07 10:03:40.355";"2";;;;;;;;;;;;;;;;;;;;;;;;;;;;;;;;;;;;;;;;;;;;;;;;;;;;;;;;;
"Josh6";"1995";;"Windows 7";"Rachel's Experiment (D.T.)";"1.0";"2";"1";"1";"2";"1";"1";"2014-10-07 10:00:29.370";"2014-10-07 10:12:52.955";"1";"0";"0";"47";"46";"module.training_block1.exec-2961.GoNoGo1";;;;;;;;;;;;;;;;;;;;;;;"1257";"2014-10-07 10:03:44.161";"NST_correctLoc";"23";"1";"FINISHED";"RIGHT";"success";"435";"0";"2014-10-07 10:03:42.898";"3";;;;;;;;;;;;;;;;;;;;;;;;;;;;;;;;;;;;;;;;;;;;;;;;;;;;;;;;;
"Josh6";"1995";;"Windows 7";"Rachel's Experiment (D.T.)";"1.0";"2";"1";"1";"2";"1";"1";"2014-10-07 10:00:29.370";"2014-10-07 10:12:52.955";"1";"0";"0";"48";"47";"module.training_block1.exec-2961.GoNoGo1";;;;;;;;;;;;;;;;;;;;;;;"1257";"2014-10-07 10:03:46.704";"NST_correctLoc";"0";"0";"FINISHED";"LEFT";"success";"421";"0";"2014-10-07 10:03:45.441";"1";;;;;;;;;;;;;;;;;;;;;;;;;;;;;;;;;;;;;;;;;;;;;;;;;;;;;;;;;
"Josh6";"1995";;"Windows 7";"Rachel's Experiment (D.T.)";"1.0";"2";"1";"1";"2";"1";"1";"2014-10-07 10:00:29.370";"2014-10-07 10:12:52.955";"1";"0";"0";"49";"48";"module.training_block1.exec-2961.GoNoGo1";;;;;;;;;;;;;;;;;;;;;;;"1257";"2014-10-07 10:03:49.247";"NST_correctLoc";"4";"0";"FINISHED";"LEFT";"success";"374";"0";"2014-10-07 10:03:47.983";"1";;;;;;;;;;;;;;;;;;;;;;;;;;;;;;;;;;;;;;;;;;;;;;;;;;;;;;;;;
"Josh6";"1995";;"Windows 7";"Rachel's Experiment (D.T.)";"1.0";"2";"1";"1";"2";"1";"1";"2014-10-07 10:00:29.370";"2014-10-07 10:12:52.955";"1";"0";"0";"50";"49";"module.training_block1.exec-2961.GoNoGo1";;;;;;;;;;;;;;;;;;;;;;;"1257";"2014-10-07 10:03:51.790";"NST_correctLoc";"6";"0";"FINISHED";"LEFT";"success";"400";"0";"2014-10-07 10:03:50.526";"1";;;;;;;;;;;;;;;;;;;;;;;;;;;;;;;;;;;;;;;;;;;;;;;;;;;;;;;;;
"Josh6";"1995";;"Windows 7";"Rachel's Experiment (D.T.)";"1.0";"2";"1";"1";"2";"1";"1";"2014-10-07 10:00:29.370";"2014-10-07 10:12:52.955";"1";"0";"0";"51";"50";"module.training_block1.exec-2961.GoNoGo1";;;;;;;;;;;;;;;;;;;;;;;"1257";"2014-10-07 10:03:54.332";"NST_correctLoc";"11";"1";"FINISHED";"RIGHT";"success";"369";"0";"2014-10-07 10:03:53.069";"2";;;;;;;;;;;;;;;;;;;;;;;;;;;;;;;;;;;;;;;;;;;;;;;;;;;;;;;;;
"Josh6";"1995";;"Windows 7";"Rachel's Experiment (D.T.)";"1.0";"2";"1";"1";"2";"1";"1";"2014-10-07 10:00:29.370";"2014-10-07 10:12:52.955";"1";"0";"0";"52";"51";"module.training_block2.exec-3404.GoNoGo2";;;;;;;;;;;;;;;;;;;;;;;;;;;;;;;;;;;"1261";"2014-10-07 10:04:05.611";"NST_correctLoc";"9";"0";"FINISHED";"LEFT";"success";"374";"0";"2014-10-07 10:04:04.347";"2";;;;;;;;;;;;;;;;;;;;;;;;;;;;;;;;;;;;;;;;;;;;;
"Josh6";"1995";;"Windows 7";"Rachel's Experiment (D.T.)";"1.0";"2";"1";"1";"2";"1";"1";"2014-10-07 10:00:29.370";"2014-10-07 10:12:52.955";"1";"0";"0";"53";"52";"module.training_block2.exec-3404.GoNoGo2";;;;;;;;;;;;;;;;;;;;;;;;;;;;;;;;;;;"1261";"2014-10-07 10:04:08.154";"NST_correctLoc";"31";"0";"FINISHED";"LEFT";"success";"407";"0";"2014-10-07 10:04:06.890";"3";;;;;;;;;;;;;;;;;;;;;;;;;;;;;;;;;;;;;;;;;;;;;
"Josh6";"1995";;"Windows 7";"Rachel's Experiment (D.T.)";"1.0";"2";"1";"1";"2";"1";"1";"2014-10-07 10:00:29.370";"2014-10-07 10:12:52.955";"1";"0";"0";"54";"53";"module.training_block2.exec-3404.GoNoGo2";;;;;;;;;;;;;;;;;;;;;;;;;;;;;;;;;;;"1257";"2014-10-07 10:04:10.696";"NST_correctLoc";"20";"1";"FINISHED";"RIGHT";"success";"308";"0";"2014-10-07 10:04:09.433";"3";;;;;;;;;;;;;;;;;;;;;;;;;;;;;;;;;;;;;;;;;;;;;
"Josh6";"1995";;"Windows 7";"Rachel's Experiment (D.T.)";"1.0";"2";"1";"1";"2";"1";"1";"2014-10-07 10:00:29.370";"2014-10-07 10:12:52.955";"1";"0";"0";"55";"54";"module.training_block2.exec-3404.GoNoGo2";;;;;;;;;;;;;;;;;;;;;;;;;;;;;;;;;;;"1261";"2014-10-07 10:04:13.255";"NST_correctLoc";"7";"0";"FINISHED";"LEFT";"success";"386";"0";"2014-10-07 10:04:11.991";"1";;;;;;;;;;;;;;;;;;;;;;;;;;;;;;;;;;;;;;;;;;;;;
"Josh6";"1995";;"Windows 7";"Rachel's Experiment (D.T.)";"1.0";"2";"1";"1";"2";"1";"1";"2014-10-07 10:00:29.370";"2014-10-07 10:12:52.955";"1";"0";"0";"56";"55";"module.training_block2.exec-3404.GoNoGo2";;;;;;;;;;;;;;;;;;;;;;;;;;;;;;;;;;;"1257";"2014-10-07 10:04:15.797";"NST_correctLoc";"35";"0";"FINISHED";"LEFT";"success";"367";"0";"2014-10-07 10:04:14.534";"3";;;;;;;;;;;;;;;;;;;;;;;;;;;;;;;;;;;;;;;;;;;;;
"Josh6";"1995";;"Windows 7";"Rachel's Experiment (D.T.)";"1.0";"2";"1";"1";"2";"1";"1";"2014-10-07 10:00:29.370";"2014-10-07 10:12:52.955";"1";"0";"0";"57";"56";"module.training_block2.exec-3404.GoNoGo2";;;;;;;;;;;;;;;;;;;;;;;;;;;;;;;;;;;"1258";"2014-10-07 10:04:18.340";"NST_correctLoc";"19";"0";"FINISHED";"LEFT";"success";"369";"0";"2014-10-07 10:04:17.077";"3";;;;;;;;;;;;;;;;;;;;;;;;;;;;;;;;;;;;;;;;;;;;;
"Josh6";"1995";;"Windows 7";"Rachel's Experiment (D.T.)";"1.0";"2";"1";"1";"2";"1";"1";"2014-10-07 10:00:29.370";"2014-10-07 10:12:52.955";"1";"0";"0";"58";"57";"module.training_block2.exec-3404.GoNoGo2";;;;;;;;;;;;;;;;;;;;;;;;;;;;;;;;;;;"1257";"2014-10-07 10:04:20.883";"NST_correctLoc";"21";"0";"FINISHED";"LEFT";"success";"409";"0";"2014-10-07 10:04:19.619";"3";;;;;;;;;;;;;;;;;;;;;;;;;;;;;;;;;;;;;;;;;;;;;
"Josh6";"1995";;"Windows 7";"Rachel's Experiment (D.T.)";"1.0";"2";"1";"1";"2";"1";"1";"2014-10-07 10:00:29.370";"2014-10-07 10:12:52.955";"1";"0";"0";"59";"58";"module.training_block2.exec-3404.GoNoGo2";;;;;;;;;;;;;;;;;;;;;;;;;;;;;;;;;;;"1261";"2014-10-07 10:04:23.426";"NST_correctLoc";"17";"1";"FINISHED";"RIGHT";"success";"350";"0";"2014-10-07 10:04:22.162";"2";;;;;;;;;;;;;;;;;;;;;;;;;;;;;;;;;;;;;;;;;;;;;
"Josh6";"1995";;"Windows 7";"Rachel's Experiment (D.T.)";"1.0";"2";"1";"1";"2";"1";"1";"2014-10-07 10:00:29.370";"2014-10-07 10:12:52.955";"1";"0";"0";"60";"59";"module.training_block2.exec-3404.GoNoGo2";;;;;;;;;;;;;;;;;;;;;;;;;;;;;;;;;;;"1257";"2014-10-07 10:04:25.968";"NST_correctLoc";"26";"1";"FINISHED";"RIGHT";"success";"364";"0";"2014-10-07 10:04:24.705";"3";;;;;;;;;;;;;;;;;;;;;;;;;;;;;;;;;;;;;;;;;;;;;
"Josh6";"1995";;"Windows 7";"Rachel's Experiment (D.T.)";"1.0";"2";"1";"1";"2";"1";"1";"2014-10-07 10:00:29.370";"2014-10-07 10:12:52.955";"1";"0";"0";"61";"60";"module.training_block2.exec-3404.GoNoGo2";;;;;;;;;;;;;;;;;;;;;;;;;;;;;;;;;;;"1261";"2014-10-07 10:04:28.511";"NST_correctLoc";"13";"0";"FINISHED";"LEFT";"success";"369";"0";"2014-10-07 10:04:27.248";"2";;;;;;;;;;;;;;;;;;;;;;;;;;;;;;;;;;;;;;;;;;;;;
"Josh6";"1995";;"Windows 7";"Rachel's Experiment (D.T.)";"1.0";"2";"1";"1";"2";"1";"1";"2014-10-07 10:00:29.370";"2014-10-07 10:12:52.955";"1";"0";"0";"62";"61";"module.training_block2.exec-3404.GoNoGo2";;;;;;;;;;;;;;;;;;;;;;;;;;;;;;;;;;;"1261";"2014-10-07 10:04:31.054";"NST_correctLoc";"1";"0";"FINISHED";"LEFT";"success";"410";"0";"2014-10-07 10:04:29.790";"1";;;;;;;;;;;;;;;;;;;;;;;;;;;;;;;;;;;;;;;;;;;;;
"Josh6";"1995";;"Windows 7";"Rachel's Experiment (D.T.)";"1.0";"2";"1";"1";"2";"1";"1";"2014-10-07 10:00:29.370";"2014-10-07 10:12:52.955";"1";"0";"0";"63";"62";"module.training_block2.exec-3404.GoNoGo2";;;;;;;;;;;;;;;;;;;;;;;;;;;;;;;;;;;"1261";"2014-10-07 10:04:33.597";"NST_correctLoc";"28";"1";"FINISHED";"RIGHT";"success";"379";"0";"2014-10-07 10:04:32.333";"3";;;;;;;;;;;;;;;;;;;;;;;;;;;;;;;;;;;;;;;;;;;;;
"Josh6";"1995";;"Windows 7";"Rachel's Experiment (D.T.)";"1.0";"2";"1";"1";"2";"1";"1";"2014-10-07 10:00:29.370";"2014-10-07 10:12:52.955";"1";"0";"0";"64";"63";"module.training_block2.exec-3404.GoNoGo2";;;;;;;;;;;;;;;;;;;;;;;;;;;;;;;;;;;"1261";"2014-10-07 10:04:36.139";"NST_correctLoc";"25";"0";"FINISHED";"LEFT";"success";"396";"0";"2014-10-07 10:04:34.876";"3";;;;;;;;;;;;;;;;;;;;;;;;;;;;;;;;;;;;;;;;;;;;;
"Josh6";"1995";;"Windows 7";"Rachel's Experiment (D.T.)";"1.0";"2";"1";"1";"2";"1";"1";"2014-10-07 10:00:29.370";"2014-10-07 10:12:52.955";"1";"0";"0";"65";"64";"module.training_block2.exec-3404.GoNoGo2";;;;;;;;;;;;;;;;;;;;;;;;;;;;;;;;;;;"1261";"2014-10-07 10:04:38.682";"NST_correctLoc";"6";"1";"FINISHED";"RIGHT";"success";"406";"0";"2014-10-07 10:04:37.418";"1";;;;;;;;;;;;;;;;;;;;;;;;;;;;;;;;;;;;;;;;;;;;;
"Josh6";"1995";;"Windows 7";"Rachel's Experiment (D.T.)";"1.0";"2";"1";"1";"2";"1";"1";"2014-10-07 10:00:29.370";"2014-10-07 10:12:52.955";"1";"0";"0";"66";"65";"module.training_block2.exec-3404.GoNoGo2";;;;;;;;;;;;;;;;;;;;;;;;;;;;;;;;;;;"1261";"2014-10-07 10:04:41.225";"NST_correctLoc";"12";"0";"FINISHED";"LEFT";"success";"423";"0";"2014-10-07 10:04:39.961";"2";;;;;;;;;;;;;;;;;;;;;;;;;;;;;;;;;;;;;;;;;;;;;
"Josh6";"1995";;"Windows 7";"Rachel's Experiment (D.T.)";"1.0";"2";"1";"1";"2";"1";"1";"2014-10-07 10:00:29.370";"2014-10-07 10:12:52.955";"1";"0";"0";"67";"66";"module.training_block2.exec-3404.GoNoGo2";;;;;;;;;;;;;;;;;;;;;;;;;;;;;;;;;;;"1261";"2014-10-07 10:04:43.768";"NST_correctLoc";"18";"0";"FINISHED";"LEFT";"success";"416";"0";"2014-10-07 10:04:42.504";"3";;;;;;;;;;;;;;;;;;;;;;;;;;;;;;;;;;;;;;;;;;;;;
"Josh6";"1995";;"Windows 7";"Rachel's Experiment (D.T.)";"1.0";"2";"1";"1";"2";"1";"1";"2014-10-07 10:00:29.370";"2014-10-07 10:12:52.955";"1";"0";"0";"68";"67";"module.training_block2.exec-3404.GoNoGo2";;;;;;;;;;;;;;;;;;;;;;;;;;;;;;;;;;;"1261";"2014-10-07 10:04:46.310";"NST_correctLoc";"24";"0";"FINISHED";"LEFT";"success";"417";"0";"2014-10-07 10:04:45.047";"3";;;;;;;;;;;;;;;;;;;;;;;;;;;;;;;;;;;;;;;;;;;;;
"Josh6";"1995";;"Windows 7";"Rachel's Experiment (D.T.)";"1.0";"2";"1";"1";"2";"1";"1";"2014-10-07 10:00:29.370";"2014-10-07 10:12:52.955";"1";"0";"0";"69";"68";"module.training_block2.exec-3404.GoNoGo2";;;;;;;;;;;;;;;;;;;;;;;;;;;;;;;;;;;"1261";"2014-10-07 10:04:48.853";"NST_correctLoc";"34";"0";"FINISHED";"LEFT";"success";"378";"0";"2014-10-07 10:04:47.589";"3";;;;;;;;;;;;;;;;;;;;;;;;;;;;;;;;;;;;;;;;;;;;;
"Josh6";"1995";;"Windows 7";"Rachel's Experiment (D.T.)";"1.0";"2";"1";"1";"2";"1";"1";"2014-10-07 10:00:29.370";"2014-10-07 10:12:52.955";"1";"0";"0";"70";"69";"module.training_block2.exec-3404.GoNoGo2";;;;;;;;;;;;;;;;;;;;;;;;;;;;;;;;;;;"1261";"2014-10-07 10:04:51.396";"NST_correctLoc";"33";"0";"FINISHED";"LEFT";"success";"347";"0";"2014-10-07 10:04:50.132";"3";;;;;;;;;;;;;;;;;;;;;;;;;;;;;;;;;;;;;;;;;;;;;
"Josh6";"1995";;"Windows 7";"Rachel's Experiment (D.T.)";"1.0";"2";"1";"1";"2";"1";"1";"2014-10-07 10:00:29.370";"2014-10-07 10:12:52.955";"1";"0";"0";"71";"70";"module.training_block2.exec-3404.GoNoGo2";;;;;;;;;;;;;;;;;;;;;;;;;;;;;;;;;;;"1261";"2014-10-07 10:04:53.938";"NST_correctLoc";"10";"1";"FINISHED";"RIGHT";"success";"333";"0";"2014-10-07 10:04:52.675";"2";;;;;;;;;;;;;;;;;;;;;;;;;;;;;;;;;;;;;;;;;;;;;
"Josh6";"1995";;"Windows 7";"Rachel's Experiment (D.T.)";"1.0";"2";"1";"1";"2";"1";"1";"2014-10-07 10:00:29.370";"2014-10-07 10:12:52.955";"1";"0";"0";"72";"71";"module.training_block2.exec-3404.GoNoGo2";;;;;;;;;;;;;;;;;;;;;;;;;;;;;;;;;;;"1257";"2014-10-07 10:04:56.481";"NST_correctLoc";"30";"1";"FINISHED";"RIGHT";"success";"345";"0";"2014-10-07 10:04:55.218";"3";;;;;;;;;;;;;;;;;;;;;;;;;;;;;;;;;;;;;;;;;;;;;
"Josh6";"1995";;"Windows 7";"Rachel's Experiment (D.T.)";"1.0";"2";"1";"1";"2";"1";"1";"2014-10-07 10:00:29.370";"2014-10-07 10:12:52.955";"1";"0";"0";"73";"72";"module.training_block2.exec-3404.GoNoGo2";;;;;;;;;;;;;;;;;;;;;;;;;;;;;;;;;;;"1257";"2014-10-07 10:04:59.024";"NST_correctLoc";"14";"1";"FINISHED";"RIGHT";"success";"331";"0";"2014-10-07 10:04:57.760";"2";;;;;;;;;;;;;;;;;;;;;;;;;;;;;;;;;;;;;;;;;;;;;
"Josh6";"1995";;"Windows 7";"Rachel's Experiment (D.T.)";"1.0";"2";"1";"1";"2";"1";"1";"2014-10-07 10:00:29.370";"2014-10-07 10:12:52.955";"1";"0";"0";"74";"73";"module.training_block2.exec-3404.GoNoGo2";;;;;;;;;;;;;;;;;;;;;;;;;;;;;;;;;;;"1261";"2014-10-07 10:05:01.567";"NST_correctLoc";"0";"1";"FINISHED";"RIGHT";"success";"344";"0";"2014-10-07 10:05:00.303";"1";;;;;;;;;;;;;;;;;;;;;;;;;;;;;;;;;;;;;;;;;;;;;
"Josh6";"1995";;"Windows 7";"Rachel's Experiment (D.T.)";"1.0";"2";"1";"1";"2";"1";"1";"2014-10-07 10:00:29.370";"2014-10-07 10:12:52.955";"1";"0";"0";"75";"74";"module.training_block2.exec-3404.GoNoGo2";;;;;;;;;;;;;;;;;;;;;;;;;;;;;;;;;;;"1261";"2014-10-07 10:05:04.109";"NST_correctLoc";"23";"1";"FINISHED";"RIGHT";"success";"361";"0";"2014-10-07 10:05:02.846";"3";;;;;;;;;;;;;;;;;;;;;;;;;;;;;;;;;;;;;;;;;;;;;
"Josh6";"1995";;"Windows 7";"Rachel's Experiment (D.T.)";"1.0";"2";"1";"1";"2";"1";"1";"2014-10-07 10:00:29.370";"2014-10-07 10:12:52.955";"1";"0";"0";"76";"75";"module.training_block2.exec-3404.GoNoGo2";;;;;;;;;;;;;;;;;;;;;;;;;;;;;;;;;;;"1257";"2014-10-07 10:05:06.652";"NST_correctLoc";"16";"1";"FINISHED";"RIGHT";"success";"351";"0";"2014-10-07 10:05:05.389";"2";;;;;;;;;;;;;;;;;;;;;;;;;;;;;;;;;;;;;;;;;;;;;
"Josh6";"1995";;"Windows 7";"Rachel's Experiment (D.T.)";"1.0";"2";"1";"1";"2";"1";"1";"2014-10-07 10:00:29.370";"2014-10-07 10:12:52.955";"1";"0";"0";"77";"76";"module.training_block2.exec-3404.GoNoGo2";;;;;;;;;;;;;;;;;;;;;;;;;;;;;;;;;;;"1261";"2014-10-07 10:05:09.195";"NST_correctLoc";"8";"0";"FINISHED";"LEFT";"success";"372";"0";"2014-10-07 10:05:07.931";"1";;;;;;;;;;;;;;;;;;;;;;;;;;;;;;;;;;;;;;;;;;;;;
"Josh6";"1995";;"Windows 7";"Rachel's Experiment (D.T.)";"1.0";"2";"1";"1";"2";"1";"1";"2014-10-07 10:00:29.370";"2014-10-07 10:12:52.955";"1";"0";"0";"78";"77";"module.training_block2.exec-3404.GoNoGo2";;;;;;;;;;;;;;;;;;;;;;;;;;;;;;;;;;;"1261";"2014-10-07 10:05:11.738";"NST_correctLoc";"5";"1";"FINISHED";"RIGHT";"success";"285";"0";"2014-10-07 10:05:10.474";"1";;;;;;;;;;;;;;;;;;;;;;;;;;;;;;;;;;;;;;;;;;;;;
"Josh6";"1995";;"Windows 7";"Rachel's Experiment (D.T.)";"1.0";"2";"1";"1";"2";"1";"1";"2014-10-07 10:00:29.370";"2014-10-07 10:12:52.955";"1";"0";"0";"79";"78";"module.training_block2.exec-3404.GoNoGo2";;;;;;;;;;;;;;;;;;;;;;;;;;;;;;;;;;;"1257";"2014-10-07 10:05:14.280";"NST_correctLoc";"27";"1";"FINISHED";"RIGHT";"success";"298";"0";"2014-10-07 10:05:13.017";"3";;;;;;;;;;;;;;;;;;;;;;;;;;;;;;;;;;;;;;;;;;;;;
"Josh6";"1995";;"Windows 7";"Rachel's Experiment (D.T.)";"1.0";"2";"1";"1";"2";"1";"1";"2014-10-07 10:00:29.370";"2014-10-07 10:12:52.955";"1";"0";"0";"80";"79";"module.training_block2.exec-3404.GoNoGo2";;;;;;;;;;;;;;;;;;;;;;;;;;;;;;;;;;;"1261";"2014-10-07 10:05:16.823";"NST_correctLoc";"11";"0";"FINISHED";"LEFT";"success";"359";"0";"2014-10-07 10:05:15.560";"2";;;;;;;;;;;;;;;;;;;;;;;;;;;;;;;;;;;;;;;;;;;;;
"Josh6";"1995";;"Windows 7";"Rachel's Experiment (D.T.)";"1.0";"2";"1";"1";"2";"1";"1";"2014-10-07 10:00:29.370";"2014-10-07 10:12:52.955";"1";"0";"0";"81";"80";"module.training_block2.exec-3404.GoNoGo2";;;;;;;;;;;;;;;;;;;;;;;;;;;;;;;;;;;"1261";"2014-10-07 10:05:19.366";"NST_correctLoc";"22";"0";"FINISHED";"LEFT";"success";"624";"0";"2014-10-07 10:05:18.102";"3";;;;;;;;;;;;;;;;;;;;;;;;;;;;;;;;;;;;;;;;;;;;;
"Josh6";"1995";;"Windows 7";"Rachel's Experiment (D.T.)";"1.0";"2";"1";"1";"2";"1";"1";"2014-10-07 10:00:29.370";"2014-10-07 10:12:52.955";"1";"0";"0";"82";"81";"module.training_block2.exec-3404.GoNoGo2";;;;;;;;;;;;;;;;;;;;;;;;;;;;;;;;;;;"1261";"2014-10-07 10:05:21.909";"NST_correctLoc";"2";"0";"FINISHED";"LEFT";"success";"850";"0";"2014-10-07 10:05:20.645";"1";;;;;;;;;;;;;;;;;;;;;;;;;;;;;;;;;;;;;;;;;;;;;
"Josh6";"1995";;"Windows 7";"Rachel's Experiment (D.T.)";"1.0";"2";"1";"1";"2";"1";"1";"2014-10-07 10:00:29.370";"2014-10-07 10:12:52.955";"1";"0";"0";"83";"82";"module.training_block2.exec-3404.GoNoGo2";;;;;;;;;;;;;;;;;;;;;;;;;;;;;;;;;;;"1261";"2014-10-07 10:05:24.451";"NST_correctLoc";"4";"1";"FINISHED";"RIGHT";"success";"499";"0";"2014-10-07 10:05:23.188";"1";;;;;;;;;;;;;;;;;;;;;;;;;;;;;;;;;;;;;;;;;;;;;
"Josh6";"1995";;"Windows 7";"Rachel's Experiment (D.T.)";"1.0";"2";"1";"1";"2";"1";"1";"2014-10-07 10:00:29.370";"2014-10-07 10:12:52.955";"1";"0";"0";"84";"83";"module.training_block2.exec-3404.GoNoGo2";;;;;;;;;;;;;;;;;;;;;;;;;;;;;;;;;;;"1261";"2014-10-07 10:05:26.994";"NST_correctLoc";"3";"0";"FINISHED";"LEFT";"success";"364";"0";"2014-10-07 10:05:25.730";"1";;;;;;;;;;;;;;;;;;;;;;;;;;;;;;;;;;;;;;;;;;;;;
"Josh6";"1995";;"Windows 7";"Rachel's Experiment (D.T.)";"1.0";"2";"1";"1";"2";"1";"1";"2014-10-07 10:00:29.370";"2014-10-07 10:12:52.955";"1";"0";"0";"85";"84";"module.training_block2.exec-3404.GoNoGo2";;;;;;;;;;;;;;;;;;;;;;;;;;;;;;;;;;;"1261";"2014-10-07 10:05:29.537";"NST_correctLoc";"32";"0";"FINISHED";"LEFT";"success";"341";"0";"2014-10-07 10:05:28.273";"3";;;;;;;;;;;;;;;;;;;;;;;;;;;;;;;;;;;;;;;;;;;;;
"Josh6";"1995";;"Windows 7";"Rachel's Experiment (D.T.)";"1.0";"2";"1";"1";"2";"1";"1";"2014-10-07 10:00:29.370";"2014-10-07 10:12:52.955";"1";"0";"0";"86";"85";"module.training_block2.exec-3404.GoNoGo2";;;;;;;;;;;;;;;;;;;;;;;;;;;;;;;;;;;"1261";"2014-10-07 10:05:32.079";"NST_correctLoc";"29";"1";"FINISHED";"RIGHT";"success";"350";"0";"2014-10-07 10:05:30.816";"3";;;;;;;;;;;;;;;;;;;;;;;;;;;;;;;;;;;;;;;;;;;;;
"Josh6";"1995";;"Windows 7";"Rachel's Experiment (D.T.)";"1.0";"2";"1";"1";"2";"1";"1";"2014-10-07 10:00:29.370";"2014-10-07 10:12:52.955";"1";"0";"0";"87";"86";"module.training_block2.exec-3404.GoNoGo2";;;;;;;;;;;;;;;;;;;;;;;;;;;;;;;;;;;"1256";"2014-10-07 10:05:34.622";"NST_correctLoc";"15";"0";"FINISHED";"LEFT";"success";"482";"0";"2014-10-07 10:05:33.359";"2";;;;;;;;;;;;;;;;;;;;;;;;;;;;;;;;;;;;;;;;;;;;;
"Josh6";"1995";;"Windows 7";"Rachel's Experiment (D.T.)";"1.0";"2";"1";"1";"2";"1";"1";"2014-10-07 10:00:29.370";"2014-10-07 10:12:52.955";"1";"0";"0";"88";"87";"module.training_block3.exec-1970.GoNoGo3";;;;;;;;;;;;;;;;;;;;;;;;;;;;;;;;;;;;;;;;;;;;;;;"1261";"2014-10-07 10:05:45.604";"NST_correctLoc";"0";"0";"FINISHED";"LEFT";"success";"441";"0";"2014-10-07 10:05:44.341";"1";;;;;;;;;;;;;;;;;;;;;;;;;;;;;;;;;
"Josh6";"1995";;"Windows 7";"Rachel's Experiment (D.T.)";"1.0";"2";"1";"1";"2";"1";"1";"2014-10-07 10:00:29.370";"2014-10-07 10:12:52.955";"1";"0";"0";"89";"88";"module.training_block3.exec-1970.GoNoGo3";;;;;;;;;;;;;;;;;;;;;;;;;;;;;;;;;;;;;;;;;;;;;;;"1261";"2014-10-07 10:05:48.147";"NST_correctLoc";"19";"0";"FINISHED";"LEFT";"success";"378";"0";"2014-10-07 10:05:46.884";"3";;;;;;;;;;;;;;;;;;;;;;;;;;;;;;;;;
"Josh6";"1995";;"Windows 7";"Rachel's Experiment (D.T.)";"1.0";"2";"1";"1";"2";"1";"1";"2014-10-07 10:00:29.370";"2014-10-07 10:12:52.955";"1";"0";"0";"90";"89";"module.training_block3.exec-1970.GoNoGo3";;;;;;;;;;;;;;;;;;;;;;;;;;;;;;;;;;;;;;;;;;;;;;;"1261";"2014-10-07 10:05:50.690";"NST_correctLoc";"1";"1";"FINISHED";"RIGHT";"success";"323";"0";"2014-10-07 10:05:49.426";"1";;;;;;;;;;;;;;;;;;;;;;;;;;;;;;;;;
"Josh6";"1995";;"Windows 7";"Rachel's Experiment (D.T.)";"1.0";"2";"1";"1";"2";"1";"1";"2014-10-07 10:00:29.370";"2014-10-07 10:12:52.955";"1";"0";"0";"91";"90";"module.training_block3.exec-1970.GoNoGo3";;;;;;;;;;;;;;;;;;;;;;;;;;;;;;;;;;;;;;;;;;;;;;;"1261";"2014-10-07 10:05:53.233";"NST_correctLoc";"11";"1";"FINISHED";"RIGHT";"success";"333";"0";"2014-10-07 10:05:51.969";"2";;;;;;;;;;;;;;;;;;;;;;;;;;;;;;;;;
"Josh6";"1995";;"Windows 7";"Rachel's Experiment (D.T.)";"1.0";"2";"1";"1";"2";"1";"1";"2014-10-07 10:00:29.370";"2014-10-07 10:12:52.955";"1";"0";"0";"92";"91";"module.training_block3.exec-1970.GoNoGo3";;;;;;;;;;;;;;;;;;;;;;;;;;;;;;;;;;;;;;;;;;;;;;;"1261";"2014-10-07 10:05:55.775";"NST_correctLoc";"21";"0";"FINISHED";"LEFT";"success";"398";"0";"2014-10-07 10:05:54.512";"3";;;;;;;;;;;;;;;;;;;;;;;;;;;;;;;;;
"Josh6";"1995";;"Windows 7";"Rachel's Experiment (D.T.)";"1.0";"2";"1";"1";"2";"1";"1";"2014-10-07 10:00:29.370";"2014-10-07 10:12:52.955";"1";"0";"0";"93";"92";"module.training_block3.exec-1970.GoNoGo3";;;;;;;;;;;;;;;;;;;;;;;;;;;;;;;;;;;;;;;;;;;;;;;"1261";"2014-10-07 10:05:58.318";"NST_correctLoc";"34";"1";"FINISHED";"RIGHT";"success";"359";"0";"2014-10-07 10:05:57.054";"3";;;;;;;;;;;;;;;;;;;;;;;;;;;;;;;;;
"Josh6";"1995";;"Windows 7";"Rachel's Experiment (D.T.)";"1.0";"2";"1";"1";"2";"1";"1";"2014-10-07 10:00:29.370";"2014-10-07 10:12:52.955";"1";"0";"0";"94";"93";"module.training_block3.exec-1970.GoNoGo3";;;;;;;;;;;;;;;;;;;;;;;;;;;;;;;;;;;;;;;;;;;;;;;"1261";"2014-10-07 10:06:00.861";"NST_correctLoc";"20";"0";"FINISHED";"LEFT";"success";"336";"0";"2014-10-07 10:05:59.597";"3";;;;;;;;;;;;;;;;;;;;;;;;;;;;;;;;;
"Josh6";"1995";;"Windows 7";"Rachel's Experiment (D.T.)";"1.0";"2";"1";"1";"2";"1";"1";"2014-10-07 10:00:29.370";"2014-10-07 10:12:52.955";"1";"0";"0";"95";"94";"module.training_block3.exec-1970.GoNoGo3";;;;;;;;;;;;;;;;;;;;;;;;;;;;;;;;;;;;;;;;;;;;;;;"1261";"2014-10-07 10:06:03.419";"NST_correctLoc";"35";"0";"FINISHED";"LEFT";"success";"354";"0";"2014-10-07 10:06:02.156";"3";;;;;;;;;;;;;;;;;;;;;;;;;;;;;;;;;
"Josh6";"1995";;"Windows 7";"Rachel's Experiment (D.T.)";"1.0";"2";"1";"1";"2";"1";"1";"2014-10-07 10:00:29.370";"2014-10-07 10:12:52.955";"1";"0";"0";"96";"95";"module.training_block3.exec-1970.GoNoGo3";;;;;;;;;;;;;;;;;;;;;;;;;;;;;;;;;;;;;;;;;;;;;;;"1261";"2014-10-07 10:06:05.962";"NST_correctLoc";"30";"1";"FINISHED";"RIGHT";"success";"347";"0";"2014-10-07 10:06:04.698";"3";;;;;;;;;;;;;;;;;;;;;;;;;;;;;;;;;
"Josh6";"1995";;"Windows 7";"Rachel's Experiment (D.T.)";"1.0";"2";"1";"1";"2";"1";"1";"2014-10-07 10:00:29.370";"2014-10-07 10:12:52.955";"1";"0";"0";"97";"96";"module.training_block3.exec-1970.GoNoGo3";;;;;;;;;;;;;;;;;;;;;;;;;;;;;;;;;;;;;;;;;;;;;;;"1261";"2014-10-07 10:06:08.505";"NST_correctLoc";"28";"0";"FINISHED";"LEFT";"success";"412";"0";"2014-10-07 10:06:07.241";"3";;;;;;;;;;;;;;;;;;;;;;;;;;;;;;;;;
"Josh6";"1995";;"Windows 7";"Rachel's Experiment (D.T.)";"1.0";"2";"1";"1";"2";"1";"1";"2014-10-07 10:00:29.370";"2014-10-07 10:12:52.955";"1";"0";"0";"98";"97";"module.training_block3.exec-1970.GoNoGo3";;;;;;;;;;;;;;;;;;;;;;;;;;;;;;;;;;;;;;;;;;;;;;;"1261";"2014-10-07 10:06:11.047";"NST_correctLoc";"9";"1";"FINISHED";"RIGHT";"success";"325";"0";"2014-10-07 10:06:09.784";"2";;;;;;;;;;;;;;;;;;;;;;;;;;;;;;;;;
"Josh6";"1995";;"Windows 7";"Rachel's Experiment (D.T.)";"1.0";"2";"1";"1";"2";"1";"1";"2014-10-07 10:00:29.370";"2014-10-07 10:12:52.955";"1";"0";"0";"99";"98";"module.training_block3.exec-1970.GoNoGo3";;;;;;;;;;;;;;;;;;;;;;;;;;;;;;;;;;;;;;;;;;;;;;;"1261";"2014-10-07 10:06:13.590";"NST_correctLoc";"26";"1";"FINISHED";"RIGHT";"success";"327";"0";"2014-10-07 10:06:12.326";"3";;;;;;;;;;;;;;;;;;;;;;;;;;;;;;;;;
"Josh6";"1995";;"Windows 7";"Rachel's Experiment (D.T.)";"1.0";"2";"1";"1";"2";"1";"1";"2014-10-07 10:00:29.370";"2014-10-07 10:12:52.955";"1";"0";"0";"100";"99";"module.training_block3.exec-1970.GoNoGo3";;;;;;;;;;;;;;;;;;;;;;;;;;;;;;;;;;;;;;;;;;;;;;;"1261";"2014-10-07 10:06:16.133";"NST_correctLoc";"5";"1";"FINISHED";"RIGHT";"success";"336";"0";"2014-10-07 10:06:14.869";"1";;;;;;;;;;;;;;;;;;;;;;;;;;;;;;;;;
"Josh6";"1995";;"Windows 7";"Rachel's Experiment (D.T.)";"1.0";"2";"1";"1";"2";"1";"1";"2014-10-07 10:00:29.370";"2014-10-07 10:12:52.955";"1";"0";"0";"101";"100";"module.training_block3.exec-1970.GoNoGo3";;;;;;;;;;;;;;;;;;;;;;;;;;;;;;;;;;;;;;;;;;;;;;;"1261";"2014-10-07 10:06:18.675";"NST_correctLoc";"16";"0";"FINISHED";"LEFT";"success";"353";"0";"2014-10-07 10:06:17.412";"2";;;;;;;;;;;;;;;;;;;;;;;;;;;;;;;;;
"Josh6";"1995";;"Windows 7";"Rachel's Experiment (D.T.)";"1.0";"2";"1";"1";"2";"1";"1";"2014-10-07 10:00:29.370";"2014-10-07 10:12:52.955";"1";"0";"0";"102";"101";"module.training_block3.exec-1970.GoNoGo3";;;;;;;;;;;;;;;;;;;;;;;;;;;;;;;;;;;;;;;;;;;;;;;"1261";"2014-10-07 10:06:21.218";"NST_correctLoc";"29";"1";"FINISHED";"RIGHT";"success";"330";"0";"2014-10-07 10:06:19.955";"3";;;;;;;;;;;;;;;;;;;;;;;;;;;;;;;;;
"Josh6";"1995";;"Windows 7";"Rachel's Experiment (D.T.)";"1.0";"2";"1";"1";"2";"1";"1";"2014-10-07 10:00:29.370";"2014-10-07 10:12:52.955";"1";"0";"0";"103";"102";"module.training_block3.exec-1970.GoNoGo3";;;;;;;;;;;;;;;;;;;;;;;;;;;;;;;;;;;;;;;;;;;;;;;"1261";"2014-10-07 10:06:23.761";"NST_correctLoc";"33";"1";"FINISHED";"RIGHT";"success";"307";"0";"2014-10-07 10:06:22.497";"3";;;;;;;;;;;;;;;;;;;;;;;;;;;;;;;;;
"Josh6";"1995";;"Windows 7";"Rachel's Experiment (D.T.)";"1.0";"2";"1";"1";"2";"1";"1";"2014-10-07 10:00:29.370";"2014-10-07 10:12:52.955";"1";"0";"0";"104";"103";"module.training_block3.exec-1970.GoNoGo3";;;;;;;;;;;;;;;;;;;;;;;;;;;;;;;;;;;;;;;;;;;;;;;"1261";"2014-10-07 10:06:26.304";"NST_correctLoc";"24";"0";"FINISHED";"LEFT";"success";"340";"0";"2014-10-07 10:06:25.040";"3";;;;;;;;;;;;;;;;;;;;;;;;;;;;;;;;;
"Josh6";"1995";;"Windows 7";"Rachel's Experiment (D.T.)";"1.0";"2";"1";"1";"2";"1";"1";"2014-10-07 10:00:29.370";"2014-10-07 10:12:52.955";"1";"0";"0";"105";"104";"module.training_block3.exec-1970.GoNoGo3";;;;;;;;;;;;;;;;;;;;;;;;;;;;;;;;;;;;;;;;;;;;;;;"1261";"2014-10-07 10:06:28.846";"NST_correctLoc";"32";"1";"FINISHED";"RIGHT";"success";"326";"0";"2014-10-07 10:06:27.583";"3";;;;;;;;;;;;;;;;;;;;;;;;;;;;;;;;;
"Josh6";"1995";;"Windows 7";"Rachel's Experiment (D.T.)";"1.0";"2";"1";"1";"2";"1";"1";"2014-10-07 10:00:29.370";"2014-10-07 10:12:52.955";"1";"0";"0";"106";"105";"module.training_block3.exec-1970.GoNoGo3";;;;;;;;;;;;;;;;;;;;;;;;;;;;;;;;;;;;;;;;;;;;;;;"1261";"2014-10-07 10:06:31.389";"NST_correctLoc";"14";"1";"FINISHED";"RIGHT";"success";"359";"0";"2014-10-07 10:06:30.126";"2";;;;;;;;;;;;;;;;;;;;;;;;;;;;;;;;;
"Josh6";"1995";;"Windows 7";"Rachel's Experiment (D.T.)";"1.0";"2";"1";"1";"2";"1";"1";"2014-10-07 10:00:29.370";"2014-10-07 10:12:52.955";"1";"0";"0";"107";"106";"module.training_block3.exec-1970.GoNoGo3";;;;;;;;;;;;;;;;;;;;;;;;;;;;;;;;;;;;;;;;;;;;;;;"1261";"2014-10-07 10:06:33.916";"NST_correctLoc";"15";"1";"FINISHED";"RIGHT";"success";"344";"0";"2014-10-07 10:06:32.653";"2";;;;;;;;;;;;;;;;;;;;;;;;;;;;;;;;;
"Josh6";"1995";;"Windows 7";"Rachel's Experiment (D.T.)";"1.0";"2";"1";"1";"2";"1";"1";"2014-10-07 10:00:29.370";"2014-10-07 10:12:52.955";"1";"0";"0";"108";"107";"module.training_block3.exec-1970.GoNoGo3";;;;;;;;;;;;;;;;;;;;;;;;;;;;;;;;;;;;;;;;;;;;;;;"1261";"2014-10-07 10:06:36.459";"NST_correctLoc";"31";"0";"FINISHED";"LEFT";"success";"433";"0";"2014-10-07 10:06:35.195";"3";;;;;;;;;;;;;;;;;;;;;;;;;;;;;;;;;
"Josh6";"1995";;"Windows 7";"Rachel's Experiment (D.T.)";"1.0";"2";"1";"1";"2";"1";"1";"2014-10-07 10:00:29.370";"2014-10-07 10:12:52.955";"1";"0";"0";"109";"108";"module.training_block3.exec-1970.GoNoGo3";;;;;;;;;;;;;;;;;;;;;;;;;;;;;;;;;;;;;;;;;;;;;;;"1261";"2014-10-07 10:06:39.017";"NST_correctLoc";"27";"1";"FINISHED";"RIGHT";"success";"314";"0";"2014-10-07 10:06:37.754";"3";;;;;;;;;;;;;;;;;;;;;;;;;;;;;;;;;
"Josh6";"1995";;"Windows 7";"Rachel's Experiment (D.T.)";"1.0";"2";"1";"1";"2";"1";"1";"2014-10-07 10:00:29.370";"2014-10-07 10:12:52.955";"1";"0";"0";"110";"109";"module.training_block3.exec-1970.GoNoGo3";;;;;;;;;;;;;;;;;;;;;;;;;;;;;;;;;;;;;;;;;;;;;;;"1261";"2014-10-07 10:06:41.560";"NST_correctLoc";"17";"1";"FINISHED";"RIGHT";"success";"443";"0";"2014-10-07 10:06:40.297";"2";;;;;;;;;;;;;;;;;;;;;;;;;;;;;;;;;
"Josh6";"1995";;"Windows 7";"Rachel's Experiment (D.T.)";"1.0";"2";"1";"1";"2";"1";"1";"2014-10-07 10:00:29.370";"2014-10-07 10:12:52.955";"1";"0";"0";"111";"110";"module.training_block3.exec-1970.GoNoGo3";;;;;;;;;;;;;;;;;;;;;;;;;;;;;;;;;;;;;;;;;;;;;;;"1261";"2014-10-07 10:06:44.118";"NST_correctLoc";"4";"1";"FINISHED";"RIGHT";"success";"493";"0";"2014-10-07 10:06:42.855";"1";;;;;;;;;;;;;;;;;;;;;;;;;;;;;;;;;
"Josh6";"1995";;"Windows 7";"Rachel's Experiment (D.T.)";"1.0";"2";"1";"1";"2";"1";"1";"2014-10-07 10:00:29.370";"2014-10-07 10:12:52.955";"1";"0";"0";"112";"111";"module.training_block3.exec-1970.GoNoGo3";;;;;;;;;;;;;;;;;;;;;;;;;;;;;;;;;;;;;;;;;;;;;;;"1261";"2014-10-07 10:06:46.661";"NST_correctLoc";"22";"1";"FINISHED";"RIGHT";"success";"406";"0";"2014-10-07 10:06:45.398";"3";;;;;;;;;;;;;;;;;;;;;;;;;;;;;;;;;
"Josh6";"1995";;"Windows 7";"Rachel's Experiment (D.T.)";"1.0";"2";"1";"1";"2";"1";"1";"2014-10-07 10:00:29.370";"2014-10-07 10:12:52.955";"1";"0";"0";"113";"112";"module.training_block3.exec-1970.GoNoGo3";;;;;;;;;;;;;;;;;;;;;;;;;;;;;;;;;;;;;;;;;;;;;;;"1261";"2014-10-07 10:06:49.204";"NST_correctLoc";"18";"0";"FINISHED";"LEFT";"success";"399";"0";"2014-10-07 10:06:47.940";"3";;;;;;;;;;;;;;;;;;;;;;;;;;;;;;;;;
"Josh6";"1995";;"Windows 7";"Rachel's Experiment (D.T.)";"1.0";"2";"1";"1";"2";"1";"1";"2014-10-07 10:00:29.370";"2014-10-07 10:12:52.955";"1";"0";"0";"114";"113";"module.training_block3.exec-1970.GoNoGo3";;;;;;;;;;;;;;;;;;;;;;;;;;;;;;;;;;;;;;;;;;;;;;;"1261";"2014-10-07 10:06:51.747";"NST_correctLoc";"2";"1";"FINISHED";"RIGHT";"success";"368";"0";"2014-10-07 10:06:50.483";"1";;;;;;;;;;;;;;;;;;;;;;;;;;;;;;;;;
"Josh6";"1995";;"Windows 7";"Rachel's Experiment (D.T.)";"1.0";"2";"1";"1";"2";"1";"1";"2014-10-07 10:00:29.370";"2014-10-07 10:12:52.955";"1";"0";"0";"115";"114";"module.training_block3.exec-1970.GoNoGo3";;;;;;;;;;;;;;;;;;;;;;;;;;;;;;;;;;;;;;;;;;;;;;;"1261";"2014-10-07 10:06:54.289";"NST_correctLoc";"3";"1";"FINISHED";"RIGHT";"success";"682";"0";"2014-10-07 10:06:53.026";"1";;;;;;;;;;;;;;;;;;;;;;;;;;;;;;;;;
"Josh6";"1995";;"Windows 7";"Rachel's Experiment (D.T.)";"1.0";"2";"1";"1";"2";"1";"1";"2014-10-07 10:00:29.370";"2014-10-07 10:12:52.955";"1";"0";"0";"116";"115";"module.training_block3.exec-1970.GoNoGo3";;;;;;;;;;;;;;;;;;;;;;;;;;;;;;;;;;;;;;;;;;;;;;;"1261";"2014-10-07 10:06:56.832";"NST_correctLoc";"23";"0";"FINISHED";"LEFT";"success";"403";"0";"2014-10-07 10:06:55.569";"3";;;;;;;;;;;;;;;;;;;;;;;;;;;;;;;;;
"Josh6";"1995";;"Windows 7";"Rachel's Experiment (D.T.)";"1.0";"2";"1";"1";"2";"1";"1";"2014-10-07 10:00:29.370";"2014-10-07 10:12:52.955";"1";"0";"0";"117";"116";"module.training_block3.exec-1970.GoNoGo3";;;;;;;;;;;;;;;;;;;;;;;;;;;;;;;;;;;;;;;;;;;;;;;"1261";"2014-10-07 10:06:59.359";"NST_correctLoc";"10";"1";"FINISHED";"RIGHT";"success";"396";"0";"2014-10-07 10:06:58.096";"2";;;;;;;;;;;;;;;;;;;;;;;;;;;;;;;;;
"Josh6";"1995";;"Windows 7";"Rachel's Experiment (D.T.)";"1.0";"2";"1";"1";"2";"1";"1";"2014-10-07 10:00:29.370";"2014-10-07 10:12:52.955";"1";"0";"0";"118";"117";"module.training_block3.exec-1970.GoNoGo3";;;;;;;;;;;;;;;;;;;;;;;;;;;;;;;;;;;;;;;;;;;;;;;"1261";"2014-10-07 10:07:01.918";"NST_correctLoc";"12";"1";"FINISHED";"RIGHT";"success";"381";"0";"2014-10-07 10:07:00.654";"2";;;;;;;;;;;;;;;;;;;;;;;;;;;;;;;;;
"Josh6";"1995";;"Windows 7";"Rachel's Experiment (D.T.)";"1.0";"2";"1";"1";"2";"1";"1";"2014-10-07 10:00:29.370";"2014-10-07 10:12:52.955";"1";"0";"0";"119";"118";"module.training_block3.exec-1970.GoNoGo3";;;;;;;;;;;;;;;;;;;;;;;;;;;;;;;;;;;;;;;;;;;;;;;"1261";"2014-10-07 10:07:04.445";"NST_correctLoc";"25";"1";"FINISHED";"RIGHT";"success";"334";"0";"2014-10-07 10:07:03.181";"3";;;;;;;;;;;;;;;;;;;;;;;;;;;;;;;;;
"Josh6";"1995";;"Windows 7";"Rachel's Experiment (D.T.)";"1.0";"2";"1";"1";"2";"1";"1";"2014-10-07 10:00:29.370";"2014-10-07 10:12:52.955";"1";"0";"0";"120";"119";"module.training_block3.exec-1970.GoNoGo3";;;;;;;;;;;;;;;;;;;;;;;;;;;;;;;;;;;;;;;;;;;;;;;"1261";"2014-10-07 10:07:06.972";"NST_correctLoc";"6";"0";"FINISHED";"LEFT";"success";"391";"0";"2014-10-07 10:07:05.708";"1";;;;;;;;;;;;;;;;;;;;;;;;;;;;;;;;;
"Josh6";"1995";;"Windows 7";"Rachel's Experiment (D.T.)";"1.0";"2";"1";"1";"2";"1";"1";"2014-10-07 10:00:29.370";"2014-10-07 10:12:52.955";"1";"0";"0";"121";"120";"module.training_block3.exec-1970.GoNoGo3";;;;;;;;;;;;;;;;;;;;;;;;;;;;;;;;;;;;;;;;;;;;;;;"1262";"2014-10-07 10:07:09.499";"NST_correctLoc";"13";"1";"FINISHED";"RIGHT";"success";"304";"0";"2014-10-07 10:07:08.235";"2";;;;;;;;;;;;;;;;;;;;;;;;;;;;;;;;;
"Josh6";"1995";;"Windows 7";"Rachel's Experiment (D.T.)";"1.0";"2";"1";"1";"2";"1";"1";"2014-10-07 10:00:29.370";"2014-10-07 10:12:52.955";"1";"0";"0";"122";"121";"module.training_block3.exec-1970.GoNoGo3";;;;;;;;;;;;;;;;;;;;;;;;;;;;;;;;;;;;;;;;;;;;;;;"1261";"2014-10-07 10:07:12.042";"NST_correctLoc";"7";"0";"FINISHED";"LEFT";"success";"369";"0";"2014-10-07 10:07:10.778";"1";;;;;;;;;;;;;;;;;;;;;;;;;;;;;;;;;
"Josh6";"1995";;"Windows 7";"Rachel's Experiment (D.T.)";"1.0";"2";"1";"1";"2";"1";"1";"2014-10-07 10:00:29.370";"2014-10-07 10:12:52.955";"1";"0";"0";"123";"122";"module.training_block3.exec-1970.GoNoGo3";;;;;;;;;;;;;;;;;;;;;;;;;;;;;;;;;;;;;;;;;;;;;;;"1261";"2014-10-07 10:07:14.600";"NST_correctLoc";"8";"1";"FINISHED";"RIGHT";"success";"338";"0";"2014-10-07 10:07:13.336";"1";;;;;;;;;;;;;;;;;;;;;;;;;;;;;;;;;
"Josh6";"1995";;"Windows 7";"Rachel's Experiment (D.T.)";"1.0";"2";"1";"1";"2";"1";"1";"2014-10-07 10:00:29.370";"2014-10-07 10:12:52.955";"1";"0";"0";"124";"123";"module.training_block4.exec-5260.GoNoGo4";;;;;;;;;;;;;;;;;;;;;;;;;;;;;;;;;;;;;;;;;;;;;;;;;;;;;;;;;;;"1261";"2014-10-07 10:07:25.317";"NST_correctLoc";"16";"1";"FINISHED";"RIGHT";"success";"285";"0";"2014-10-07 10:07:24.053";"2";;;;;;;;;;;;;;;;;;;;;
"Josh6";"1995";;"Windows 7";"Rachel's Experiment (D.T.)";"1.0";"2";"1";"1";"2";"1";"1";"2014-10-07 10:00:29.370";"2014-10-07 10:12:52.955";"1";"0";"0";"125";"124";"module.training_block4.exec-5260.GoNoGo4";;;;;;;;;;;;;;;;;;;;;;;;;;;;;;;;;;;;;;;;;;;;;;;;;;;;;;;;;;;"1261";"2014-10-07 10:07:27.844";"NST_correctLoc";"31";"0";"FINISHED";"LEFT";"success";"414";"0";"2014-10-07 10:07:26.581";"3";;;;;;;;;;;;;;;;;;;;;
"Josh6";"1995";;"Windows 7";"Rachel's Experiment (D.T.)";"1.0";"2";"1";"1";"2";"1";"1";"2014-10-07 10:00:29.370";"2014-10-07 10:12:52.955";"1";"0";"0";"126";"125";"module.training_block4.exec-5260.GoNoGo4";;;;;;;;;;;;;;;;;;;;;;;;;;;;;;;;;;;;;;;;;;;;;;;;;;;;;;;;;;;"1261";"2014-10-07 10:07:30.371";"NST_correctLoc";"32";"0";"FINISHED";"LEFT";"success";"407";"0";"2014-10-07 10:07:29.108";"3";;;;;;;;;;;;;;;;;;;;;
"Josh6";"1995";;"Windows 7";"Rachel's Experiment (D.T.)";"1.0";"2";"1";"1";"2";"1";"1";"2014-10-07 10:00:29.370";"2014-10-07 10:12:52.955";"1";"0";"0";"127";"126";"module.training_block4.exec-5260.GoNoGo4";;;;;;;;;;;;;;;;;;;;;;;;;;;;;;;;;;;;;;;;;;;;;;;;;;;;;;;;;;;"1261";"2014-10-07 10:07:32.898";"NST_correctLoc";"8";"1";"FINISHED";"RIGHT";"success";"343";"0";"2014-10-07 10:07:31.635";"1";;;;;;;;;;;;;;;;;;;;;
"Josh6";"1995";;"Windows 7";"Rachel's Experiment (D.T.)";"1.0";"2";"1";"1";"2";"1";"1";"2014-10-07 10:00:29.370";"2014-10-07 10:12:52.955";"1";"0";"0";"128";"127";"module.training_block4.exec-5260.GoNoGo4";;;;;;;;;;;;;;;;;;;;;;;;;;;;;;;;;;;;;;;;;;;;;;;;;;;;;;;;;;;"1261";"2014-10-07 10:07:35.441";"NST_correctLoc";"21";"1";"FINISHED";"RIGHT";"success";"409";"0";"2014-10-07 10:07:34.178";"3";;;;;;;;;;;;;;;;;;;;;
"Josh6";"1995";;"Windows 7";"Rachel's Experiment (D.T.)";"1.0";"2";"1";"1";"2";"1";"1";"2014-10-07 10:00:29.370";"2014-10-07 10:12:52.955";"1";"0";"0";"129";"128";"module.training_block4.exec-5260.GoNoGo4";;;;;;;;;;;;;;;;;;;;;;;;;;;;;;;;;;;;;;;;;;;;;;;;;;;;;;;;;;;"1261";"2014-10-07 10:07:37.999";"NST_correctLoc";"34";"1";"FINISHED";"RIGHT";"success";"402";"0";"2014-10-07 10:07:36.736";"3";;;;;;;;;;;;;;;;;;;;;
"Josh6";"1995";;"Windows 7";"Rachel's Experiment (D.T.)";"1.0";"2";"1";"1";"2";"1";"1";"2014-10-07 10:00:29.370";"2014-10-07 10:12:52.955";"1";"0";"0";"130";"129";"module.training_block4.exec-5260.GoNoGo4";;;;;;;;;;;;;;;;;;;;;;;;;;;;;;;;;;;;;;;;;;;;;;;;;;;;;;;;;;;"1261";"2014-10-07 10:07:40.527";"NST_correctLoc";"3";"1";"FINISHED";"RIGHT";"success";"371";"0";"2014-10-07 10:07:39.263";"1";;;;;;;;;;;;;;;;;;;;;
"Josh6";"1995";;"Windows 7";"Rachel's Experiment (D.T.)";"1.0";"2";"1";"1";"2";"1";"1";"2014-10-07 10:00:29.370";"2014-10-07 10:12:52.955";"1";"0";"0";"131";"130";"module.training_block4.exec-5260.GoNoGo4";;;;;;;;;;;;;;;;;;;;;;;;;;;;;;;;;;;;;;;;;;;;;;;;;;;;;;;;;;;"1261";"2014-10-07 10:07:43.069";"NST_correctLoc";"6";"0";"FINISHED";"LEFT";"success";"380";"0";"2014-10-07 10:07:41.806";"1";;;;;;;;;;;;;;;;;;;;;
"Josh6";"1995";;"Windows 7";"Rachel's Experiment (D.T.)";"1.0";"2";"1";"1";"2";"1";"1";"2014-10-07 10:00:29.370";"2014-10-07 10:12:52.955";"1";"0";"0";"132";"131";"module.training_block4.exec-5260.GoNoGo4";;;;;;;;;;;;;;;;;;;;;;;;;;;;;;;;;;;;;;;;;;;;;;;;;;;;;;;;;;;"1261";"2014-10-07 10:07:45.596";"NST_correctLoc";"13";"1";"FINISHED";"RIGHT";"success";"349";"0";"2014-10-07 10:07:44.333";"2";;;;;;;;;;;;;;;;;;;;;
"Josh6";"1995";;"Windows 7";"Rachel's Experiment (D.T.)";"1.0";"2";"1";"1";"2";"1";"1";"2014-10-07 10:00:29.370";"2014-10-07 10:12:52.955";"1";"0";"0";"133";"132";"module.training_block4.exec-5260.GoNoGo4";;;;;;;;;;;;;;;;;;;;;;;;;;;;;;;;;;;;;;;;;;;;;;;;;;;;;;;;;;;"1261";"2014-10-07 10:07:48.124";"NST_correctLoc";"11";"1";"FINISHED";"RIGHT";"success";"358";"0";"2014-10-07 10:07:46.860";"2";;;;;;;;;;;;;;;;;;;;;
"Josh6";"1995";;"Windows 7";"Rachel's Experiment (D.T.)";"1.0";"2";"1";"1";"2";"1";"1";"2014-10-07 10:00:29.370";"2014-10-07 10:12:52.955";"1";"0";"0";"134";"133";"module.training_block4.exec-5260.GoNoGo4";;;;;;;;;;;;;;;;;;;;;;;;;;;;;;;;;;;;;;;;;;;;;;;;;;;;;;;;;;;"1261";"2014-10-07 10:07:50.682";"NST_correctLoc";"10";"1";"FINISHED";"RIGHT";"success";"383";"0";"2014-10-07 10:07:49.418";"2";;;;;;;;;;;;;;;;;;;;;
"Josh6";"1995";;"Windows 7";"Rachel's Experiment (D.T.)";"1.0";"2";"1";"1";"2";"1";"1";"2014-10-07 10:00:29.370";"2014-10-07 10:12:52.955";"1";"0";"0";"135";"134";"module.training_block4.exec-5260.GoNoGo4";;;;;;;;;;;;;;;;;;;;;;;;;;;;;;;;;;;;;;;;;;;;;;;;;;;;;;;;;;;"1261";"2014-10-07 10:07:53.209";"NST_correctLoc";"22";"1";"FINISHED";"RIGHT";"success";"344";"0";"2014-10-07 10:07:51.945";"3";;;;;;;;;;;;;;;;;;;;;
"Josh6";"1995";;"Windows 7";"Rachel's Experiment (D.T.)";"1.0";"2";"1";"1";"2";"1";"1";"2014-10-07 10:00:29.370";"2014-10-07 10:12:52.955";"1";"0";"0";"136";"135";"module.training_block4.exec-5260.GoNoGo4";;;;;;;;;;;;;;;;;;;;;;;;;;;;;;;;;;;;;;;;;;;;;;;;;;;;;;;;;;;"1261";"2014-10-07 10:07:55.752";"NST_correctLoc";"23";"0";"FINISHED";"LEFT";"success";"369";"0";"2014-10-07 10:07:54.488";"3";;;;;;;;;;;;;;;;;;;;;
"Josh6";"1995";;"Windows 7";"Rachel's Experiment (D.T.)";"1.0";"2";"1";"1";"2";"1";"1";"2014-10-07 10:00:29.370";"2014-10-07 10:12:52.955";"1";"0";"0";"137";"136";"module.training_block4.exec-5260.GoNoGo4";;;;;;;;;;;;;;;;;;;;;;;;;;;;;;;;;;;;;;;;;;;;;;;;;;;;;;;;;;;"1261";"2014-10-07 10:07:58.279";"NST_correctLoc";"19";"1";"FINISHED";"RIGHT";"success";"362";"0";"2014-10-07 10:07:57.015";"3";;;;;;;;;;;;;;;;;;;;;
"Josh6";"1995";;"Windows 7";"Rachel's Experiment (D.T.)";"1.0";"2";"1";"1";"2";"1";"1";"2014-10-07 10:00:29.370";"2014-10-07 10:12:52.955";"1";"0";"0";"138";"137";"module.training_block4.exec-5260.GoNoGo4";;;;;;;;;;;;;;;;;;;;;;;;;;;;;;;;;;;;;;;;;;;;;;;;;;;;;;;;;;;"1261";"2014-10-07 10:08:00.806";"NST_correctLoc";"35";"0";"FINISHED";"LEFT";"success";"411";"0";"2014-10-07 10:07:59.543";"3";;;;;;;;;;;;;;;;;;;;;
"Josh6";"1995";;"Windows 7";"Rachel's Experiment (D.T.)";"1.0";"2";"1";"1";"2";"1";"1";"2014-10-07 10:00:29.370";"2014-10-07 10:12:52.955";"1";"0";"0";"139";"138";"module.training_block4.exec-5260.GoNoGo4";;;;;;;;;;;;;;;;;;;;;;;;;;;;;;;;;;;;;;;;;;;;;;;;;;;;;;;;;;;"1261";"2014-10-07 10:08:03.364";"NST_correctLoc";"28";"1";"FINISHED";"RIGHT";"success";"300";"0";"2014-10-07 10:08:02.101";"3";;;;;;;;;;;;;;;;;;;;;
"Josh6";"1995";;"Windows 7";"Rachel's Experiment (D.T.)";"1.0";"2";"1";"1";"2";"1";"1";"2014-10-07 10:00:29.370";"2014-10-07 10:12:52.955";"1";"0";"0";"140";"139";"module.training_block4.exec-5260.GoNoGo4";;;;;;;;;;;;;;;;;;;;;;;;;;;;;;;;;;;;;;;;;;;;;;;;;;;;;;;;;;;"1261";"2014-10-07 10:08:05.892";"NST_correctLoc";"18";"1";"FINISHED";"RIGHT";"success";"573";"0";"2014-10-07 10:08:04.628";"3";;;;;;;;;;;;;;;;;;;;;
"Josh6";"1995";;"Windows 7";"Rachel's Experiment (D.T.)";"1.0";"2";"1";"1";"2";"1";"1";"2014-10-07 10:00:29.370";"2014-10-07 10:12:52.955";"1";"0";"0";"141";"140";"module.training_block4.exec-5260.GoNoGo4";;;;;;;;;;;;;;;;;;;;;;;;;;;;;;;;;;;;;;;;;;;;;;;;;;;;;;;;;;;"1261";"2014-10-07 10:08:08.434";"NST_correctLoc";"15";"1";"FINISHED";"RIGHT";"success";"382";"0";"2014-10-07 10:08:07.171";"2";;;;;;;;;;;;;;;;;;;;;
"Josh6";"1995";;"Windows 7";"Rachel's Experiment (D.T.)";"1.0";"2";"1";"1";"2";"1";"1";"2014-10-07 10:00:29.370";"2014-10-07 10:12:52.955";"1";"0";"0";"142";"141";"module.training_block4.exec-5260.GoNoGo4";;;;;;;;;;;;;;;;;;;;;;;;;;;;;;;;;;;;;;;;;;;;;;;;;;;;;;;;;;;"1262";"2014-10-07 10:08:10.961";"NST_correctLoc";"14";"0";"FINISHED";"LEFT";"success";"431";"0";"2014-10-07 10:08:09.698";"2";;;;;;;;;;;;;;;;;;;;;
"Josh6";"1995";;"Windows 7";"Rachel's Experiment (D.T.)";"1.0";"2";"1";"1";"2";"1";"1";"2014-10-07 10:00:29.370";"2014-10-07 10:12:52.955";"1";"0";"0";"143";"142";"module.training_block4.exec-5260.GoNoGo4";;;;;;;;;;;;;;;;;;;;;;;;;;;;;;;;;;;;;;;;;;;;;;;;;;;;;;;;;;;"1257";"2014-10-07 10:08:13.489";"NST_correctLoc";"24";"0";"FINISHED";"LEFT";"success";"364";"0";"2014-10-07 10:08:12.225";"3";;;;;;;;;;;;;;;;;;;;;
"Josh6";"1995";;"Windows 7";"Rachel's Experiment (D.T.)";"1.0";"2";"1";"1";"2";"1";"1";"2014-10-07 10:00:29.370";"2014-10-07 10:12:52.955";"1";"0";"0";"144";"143";"module.training_block4.exec-5260.GoNoGo4";;;;;;;;;;;;;;;;;;;;;;;;;;;;;;;;;;;;;;;;;;;;;;;;;;;;;;;;;;;"1261";"2014-10-07 10:08:16.016";"NST_correctLoc";"27";"1";"FINISHED";"RIGHT";"success";"273";"0";"2014-10-07 10:08:14.752";"3";;;;;;;;;;;;;;;;;;;;;
"Josh6";"1995";;"Windows 7";"Rachel's Experiment (D.T.)";"1.0";"2";"1";"1";"2";"1";"1";"2014-10-07 10:00:29.370";"2014-10-07 10:12:52.955";"1";"0";"0";"145";"144";"module.training_block4.exec-5260.GoNoGo4";;;;;;;;;;;;;;;;;;;;;;;;;;;;;;;;;;;;;;;;;;;;;;;;;;;;;;;;;;;"1261";"2014-10-07 10:08:18.543";"NST_correctLoc";"2";"0";"FINISHED";"LEFT";"success";"401";"0";"2014-10-07 10:08:17.279";"1";;;;;;;;;;;;;;;;;;;;;
"Josh6";"1995";;"Windows 7";"Rachel's Experiment (D.T.)";"1.0";"2";"1";"1";"2";"1";"1";"2014-10-07 10:00:29.370";"2014-10-07 10:12:52.955";"1";"0";"0";"146";"145";"module.training_block4.exec-5260.GoNoGo4";;;;;;;;;;;;;;;;;;;;;;;;;;;;;;;;;;;;;;;;;;;;;;;;;;;;;;;;;;;"1261";"2014-10-07 10:08:21.070";"NST_correctLoc";"12";"0";"FINISHED";"LEFT";"success";"466";"0";"2014-10-07 10:08:19.806";"2";;;;;;;;;;;;;;;;;;;;;
"Josh6";"1995";;"Windows 7";"Rachel's Experiment (D.T.)";"1.0";"2";"1";"1";"2";"1";"1";"2014-10-07 10:00:29.370";"2014-10-07 10:12:52.955";"1";"0";"0";"147";"146";"module.training_block4.exec-5260.GoNoGo4";;;;;;;;;;;;;;;;;;;;;;;;;;;;;;;;;;;;;;;;;;;;;;;;;;;;;;;;;;;"1261";"2014-10-07 10:08:23.597";"NST_correctLoc";"29";"1";"FINISHED";"RIGHT";"success";"491";"0";"2014-10-07 10:08:22.334";"3";;;;;;;;;;;;;;;;;;;;;
"Josh6";"1995";;"Windows 7";"Rachel's Experiment (D.T.)";"1.0";"2";"1";"1";"2";"1";"1";"2014-10-07 10:00:29.370";"2014-10-07 10:12:52.955";"1";"0";"0";"148";"147";"module.training_block4.exec-5260.GoNoGo4";;;;;;;;;;;;;;;;;;;;;;;;;;;;;;;;;;;;;;;;;;;;;;;;;;;;;;;;;;;"1261";"2014-10-07 10:08:26.124";"NST_correctLoc";"30";"0";"FINISHED";"LEFT";"success";"348";"0";"2014-10-07 10:08:24.861";"3";;;;;;;;;;;;;;;;;;;;;
"Josh6";"1995";;"Windows 7";"Rachel's Experiment (D.T.)";"1.0";"2";"1";"1";"2";"1";"1";"2014-10-07 10:00:29.370";"2014-10-07 10:12:52.955";"1";"0";"0";"149";"148";"module.training_block4.exec-5260.GoNoGo4";;;;;;;;;;;;;;;;;;;;;;;;;;;;;;;;;;;;;;;;;;;;;;;;;;;;;;;;;;;"1261";"2014-10-07 10:08:28.667";"NST_correctLoc";"26";"1";"FINISHED";"RIGHT";"success";"317";"0";"2014-10-07 10:08:27.403";"3";;;;;;;;;;;;;;;;;;;;;
"Josh6";"1995";;"Windows 7";"Rachel's Experiment (D.T.)";"1.0";"2";"1";"1";"2";"1";"1";"2014-10-07 10:00:29.370";"2014-10-07 10:12:52.955";"1";"0";"0";"150";"149";"module.training_block4.exec-5260.GoNoGo4";;;;;;;;;;;;;;;;;;;;;;;;;;;;;;;;;;;;;;;;;;;;;;;;;;;;;;;;;;;"1262";"2014-10-07 10:08:31.194";"NST_correctLoc";"17";"1";"FINISHED";"RIGHT";"success";"350";"0";"2014-10-07 10:08:29.931";"2";;;;;;;;;;;;;;;;;;;;;
"Josh6";"1995";;"Windows 7";"Rachel's Experiment (D.T.)";"1.0";"2";"1";"1";"2";"1";"1";"2014-10-07 10:00:29.370";"2014-10-07 10:12:52.955";"1";"0";"0";"151";"150";"module.training_block4.exec-5260.GoNoGo4";;;;;;;;;;;;;;;;;;;;;;;;;;;;;;;;;;;;;;;;;;;;;;;;;;;;;;;;;;;"1261";"2014-10-07 10:08:33.721";"NST_correctLoc";"9";"0";"FINISHED";"LEFT";"success";"398";"0";"2014-10-07 10:08:32.458";"2";;;;;;;;;;;;;;;;;;;;;
"Josh6";"1995";;"Windows 7";"Rachel's Experiment (D.T.)";"1.0";"2";"1";"1";"2";"1";"1";"2014-10-07 10:00:29.370";"2014-10-07 10:12:52.955";"1";"0";"0";"152";"151";"module.training_block4.exec-5260.GoNoGo4";;;;;;;;;;;;;;;;;;;;;;;;;;;;;;;;;;;;;;;;;;;;;;;;;;;;;;;;;;;"1261";"2014-10-07 10:08:36.248";"NST_correctLoc";"1";"0";"FINISHED";"LEFT";"success";"471";"0";"2014-10-07 10:08:34.985";"1";;;;;;;;;;;;;;;;;;;;;
"Josh6";"1995";;"Windows 7";"Rachel's Experiment (D.T.)";"1.0";"2";"1";"1";"2";"1";"1";"2014-10-07 10:00:29.370";"2014-10-07 10:12:52.955";"1";"0";"0";"153";"152";"module.training_block4.exec-5260.GoNoGo4";;;;;;;;;;;;;;;;;;;;;;;;;;;;;;;;;;;;;;;;;;;;;;;;;;;;;;;;;;;"1261";"2014-10-07 10:08:38.775";"NST_correctLoc";"25";"1";"FINISHED";"RIGHT";"success";"352";"0";"2014-10-07 10:08:37.512";"3";;;;;;;;;;;;;;;;;;;;;
"Josh6";"1995";;"Windows 7";"Rachel's Experiment (D.T.)";"1.0";"2";"1";"1";"2";"1";"1";"2014-10-07 10:00:29.370";"2014-10-07 10:12:52.955";"1";"0";"0";"154";"153";"module.training_block4.exec-5260.GoNoGo4";;;;;;;;;;;;;;;;;;;;;;;;;;;;;;;;;;;;;;;;;;;;;;;;;;;;;;;;;;;"1261";"2014-10-07 10:08:41.303";"NST_correctLoc";"4";"1";"FINISHED";"RIGHT";"success";"369";"0";"2014-10-07 10:08:40.039";"1";;;;;;;;;;;;;;;;;;;;;
"Josh6";"1995";;"Windows 7";"Rachel's Experiment (D.T.)";"1.0";"2";"1";"1";"2";"1";"1";"2014-10-07 10:00:29.370";"2014-10-07 10:12:52.955";"1";"0";"0";"155";"154";"module.training_block4.exec-5260.GoNoGo4";;;;;;;;;;;;;;;;;;;;;;;;;;;;;;;;;;;;;;;;;;;;;;;;;;;;;;;;;;;"1261";"2014-10-07 10:08:43.830";"NST_correctLoc";"5";"1";"FINISHED";"RIGHT";"success";"370";"0";"2014-10-07 10:08:42.566";"1";;;;;;;;;;;;;;;;;;;;;
"Josh6";"1995";;"Windows 7";"Rachel's Experiment (D.T.)";"1.0";"2";"1";"1";"2";"1";"1";"2014-10-07 10:00:29.370";"2014-10-07 10:12:52.955";"1";"0";"0";"156";"155";"module.training_block4.exec-5260.GoNoGo4";;;;;;;;;;;;;;;;;;;;;;;;;;;;;;;;;;;;;;;;;;;;;;;;;;;;;;;;;;;"1261";"2014-10-07 10:08:46.357";"NST_correctLoc";"33";"1";"FINISHED";"RIGHT";"success";"386";"0";"2014-10-07 10:08:45.093";"3";;;;;;;;;;;;;;;;;;;;;
"Josh6";"1995";;"Windows 7";"Rachel's Experiment (D.T.)";"1.0";"2";"1";"1";"2";"1";"1";"2014-10-07 10:00:29.370";"2014-10-07 10:12:52.955";"1";"0";"0";"157";"156";"module.training_block4.exec-5260.GoNoGo4";;;;;;;;;;;;;;;;;;;;;;;;;;;;;;;;;;;;;;;;;;;;;;;;;;;;;;;;;;;"1261";"2014-10-07 10:08:48.900";"NST_correctLoc";"20";"1";"FINISHED";"RIGHT";"success";"620";"0";"2014-10-07 10:08:47.636";"3";;;;;;;;;;;;;;;;;;;;;
"Josh6";"1995";;"Windows 7";"Rachel's Experiment (D.T.)";"1.0";"2";"1";"1";"2";"1";"1";"2014-10-07 10:00:29.370";"2014-10-07 10:12:52.955";"1";"0";"0";"158";"157";"module.training_block4.exec-5260.GoNoGo4";;;;;;;;;;;;;;;;;;;;;;;;;;;;;;;;;;;;;;;;;;;;;;;;;;;;;;;;;;;"1261";"2014-10-07 10:08:51.427";"NST_correctLoc";"7";"0";"FINISHED";"LEFT";"success";"340";"0";"2014-10-07 10:08:50.163";"1";;;;;;;;;;;;;;;;;;;;;
"Josh6";"1995";;"Windows 7";"Rachel's Experiment (D.T.)";"1.0";"2";"1";"1";"2";"1";"1";"2014-10-07 10:00:29.370";"2014-10-07 10:12:52.955";"1";"0";"0";"159";"158";"module.training_block4.exec-5260.GoNoGo4";;;;;;;;;;;;;;;;;;;;;;;;;;;;;;;;;;;;;;;;;;;;;;;;;;;;;;;;;;;"1261";"2014-10-07 10:08:53.954";"NST_correctLoc";"0";"1";"FINISHED";"RIGHT";"success";"373";"0";"2014-10-07 10:08:52.690";"1";;;;;;;;;;;;;;;;;;;;;
"Josh6";"1995";;"Windows 7";"Rachel's Experiment (D.T.)";"1.0";"2";"1";"1";"2";"1";"1";"2014-10-07 10:00:29.370";"2014-10-07 10:12:52.955";"1";"0";"0";"160";"159";"module.devaluation_practice.exec-1591.devalPractice";;;;;;;;;;;;"19367";"2014-10-07 10:09:42.125";"0";"6";"5";"7";"4871";"2286";"9159";"2014-10-07 10:09:22.751";;;;;;;;;;;;;;;;;;;;;;;;;;;;;;;;;;;;;;;;;;;;;;;;;;;;;;;;;;;;;;;;;;;;;;
"Josh6";"1995";;"Windows 7";"Rachel's Experiment (D.T.)";"1.0";"2";"1";"1";"2";"1";"1";"2014-10-07 10:00:29.370";"2014-10-07 10:12:52.955";"1";"0";"0";"161";"160";"module.devaluation_practice.exec-1591.devalPractice";;;;;;;;;;;;"11460";"2014-10-07 10:09:53.607";"1";"3";"3";"3";"4891";"1214";"2327";"2014-10-07 10:09:42.141";;;;;;;;;;;;;;;;;;;;;;;;;;;;;;;;;;;;;;;;;;;;;;;;;;;;;;;;;;;;;;;;;;;;;;
"Josh6";"1995";;"Windows 7";"Rachel's Experiment (D.T.)";"1.0";"2";"1";"1";"2";"1";"1";"2014-10-07 10:00:29.370";"2014-10-07 10:12:52.955";"1";"0";"0";"162";"161";"module.devaluation_practice.exec-1591.devalPractice";;;;;;;;;;;;"7213";"2014-10-07 10:10:00.829";"2";"2";"6";"7";"1521";"1598";"1071";"2014-10-07 10:09:53.622";;;;;;;;;;;;;;;;;;;;;;;;;;;;;;;;;;;;;;;;;;;;;;;;;;;;;;;;;;;;;;;;;;;;;;
"Josh6";"1995";;"Windows 7";"Rachel's Experiment (D.T.)";"1.0";"2";"1";"1";"2";"1";"1";"2014-10-07 10:00:29.370";"2014-10-07 10:12:52.955";"1";"0";"0";"163";"162";"module.devaluation_practice.exec-1591.devalPractice";;;;;;;;;;;;"7021";"2014-10-07 10:10:07.880";"3";"8";"5";"7";"947";"939";"2114";"2014-10-07 10:10:00.861";;;;;;;;;;;;;;;;;;;;;;;;;;;;;;;;;;;;;;;;;;;;;;;;;;;;;;;;;;;;;;;;;;;;;;
"Josh6";"1995";;"Windows 7";"Rachel's Experiment (D.T.)";"1.0";"2";"1";"1";"2";"1";"1";"2014-10-07 10:00:29.370";"2014-10-07 10:12:52.955";"1";"0";"0";"164";"163";"module.devaluation_block1.exec-3522.deval1";"7213";"2014-10-07 10:10:18.410";"13";"2";"2";"5";"1851";"1242";"1088";"2014-10-07 10:10:11.203";"2";;;;;;;;;;;;;;;;;;;;;;;;;;;;;;;;;;;;;;;;;;;;;;;;;;;;;;;;;;;;;;;;;;;;;;;;;;;;;;;;
"Josh6";"1995";;"Windows 7";"Rachel's Experiment (D.T.)";"1.0";"2";"1";"1";"2";"1";"1";"2014-10-07 10:00:29.370";"2014-10-07 10:12:52.955";"1";"0";"0";"165";"164";"module.devaluation_block1.exec-3522.deval1";"10093";"2014-10-07 10:10:28.534";"14";"3";"2";"4";"2949";"2274";"1846";"2014-10-07 10:10:18.426";"2";;;;;;;;;;;;;;;;;;;;;;;;;;;;;;;;;;;;;;;;;;;;;;;;;;;;;;;;;;;;;;;;;;;;;;;;;;;;;;;;
"Josh6";"1995";;"Windows 7";"Rachel's Experiment (D.T.)";"1.0";"2";"1";"1";"2";"1";"1";"2014-10-07 10:00:29.370";"2014-10-07 10:12:52.955";"1";"0";"0";"166";"165";"module.devaluation_block1.exec-3522.deval1";"6677";"2014-10-07 10:10:35.227";"12";"5";"2";"4";"2041";"827";"770";"2014-10-07 10:10:28.550";"2";;;;;;;;;;;;;;;;;;;;;;;;;;;;;;;;;;;;;;;;;;;;;;;;;;;;;;;;;;;;;;;;;;;;;;;;;;;;;;;;
"Josh6";"1995";;"Windows 7";"Rachel's Experiment (D.T.)";"1.0";"2";"1";"1";"2";"1";"1";"2014-10-07 10:00:29.370";"2014-10-07 10:12:52.955";"1";"0";"0";"167";"166";"module.devaluation_block1.exec-3522.deval1";"7285";"2014-10-07 10:10:42.527";"8";"6";"2";"5";"1084";"815";"2357";"2014-10-07 10:10:35.242";"1";;;;;;;;;;;;;;;;;;;;;;;;;;;;;;;;;;;;;;;;;;;;;;;;;;;;;;;;;;;;;;;;;;;;;;;;;;;;;;;;
"Josh6";"1995";;"Windows 7";"Rachel's Experiment (D.T.)";"1.0";"2";"1";"1";"2";"1";"1";"2014-10-07 10:00:29.370";"2014-10-07 10:12:52.955";"1";"0";"0";"168";"167";"module.devaluation_block1.exec-3522.deval1";"5133";"2014-10-07 10:10:47.675";"21";"3";"5";"7";"1071";"288";"760";"2014-10-07 10:10:42.543";"3";;;;;;;;;;;;;;;;;;;;;;;;;;;;;;;;;;;;;;;;;;;;;;;;;;;;;;;;;;;;;;;;;;;;;;;;;;;;;;;;
"Josh6";"1995";;"Windows 7";"Rachel's Experiment (D.T.)";"1.0";"2";"1";"1";"2";"1";"1";"2014-10-07 10:00:29.370";"2014-10-07 10:12:52.955";"1";"0";"0";"169";"168";"module.devaluation_block1.exec-3522.deval1";"7125";"2014-10-07 10:10:54.835";"16";"2";"1";"3";"1188";"966";"1943";"2014-10-07 10:10:47.706";"2";;;;;;;;;;;;;;;;;;;;;;;;;;;;;;;;;;;;;;;;;;;;;;;;;;;;;;;;;;;;;;;;;;;;;;;;;;;;;;;;
"Josh6";"1995";;"Windows 7";"Rachel's Experiment (D.T.)";"1.0";"2";"1";"1";"2";"1";"1";"2014-10-07 10:00:29.370";"2014-10-07 10:12:52.955";"1";"0";"0";"170";"169";"module.devaluation_block1.exec-3522.deval1";"5317";"2014-10-07 10:11:00.170";"7";"4";"2";"4";"547";"1076";"654";"2014-10-07 10:10:54.851";"1";;;;;;;;;;;;;;;;;;;;;;;;;;;;;;;;;;;;;;;;;;;;;;;;;;;;;;;;;;;;;;;;;;;;;;;;;;;;;;;;
"Josh6";"1995";;"Windows 7";"Rachel's Experiment (D.T.)";"1.0";"2";"1";"1";"2";"1";"1";"2014-10-07 10:00:29.370";"2014-10-07 10:12:52.955";"1";"0";"0";"171";"170";"module.devaluation_block1.exec-3522.deval1";"6252";"2014-10-07 10:11:06.441";"9";"2";"2";"2";"1068";"812";"1340";"2014-10-07 10:11:00.186";"2";;;;;;;;;;;;;;;;;;;;;;;;;;;;;;;;;;;;;;;;;;;;;;;;;;;;;;;;;;;;;;;;;;;;;;;;;;;;;;;;
"Josh6";"1995";;"Windows 7";"Rachel's Experiment (D.T.)";"1.0";"2";"1";"1";"2";"1";"1";"2014-10-07 10:00:29.370";"2014-10-07 10:12:52.955";"1";"0";"0";"172";"171";"module.devaluation_block1.exec-3522.deval1";"6061";"2014-10-07 10:11:12.510";"0";"7";"7";"8";"1150";"823";"940";"2014-10-07 10:11:06.457";"1";;;;;;;;;;;;;;;;;;;;;;;;;;;;;;;;;;;;;;;;;;;;;;;;;;;;;;;;;;;;;;;;;;;;;;;;;;;;;;;;
"Josh6";"1995";;"Windows 7";"Rachel's Experiment (D.T.)";"1.0";"2";"1";"1";"2";"1";"1";"2014-10-07 10:00:29.370";"2014-10-07 10:12:52.955";"1";"0";"0";"173";"172";"module.devaluation_block1.exec-3522.deval1";"7869";"2014-10-07 10:11:20.403";"24";"3";"5";"6";"2824";"1099";"910";"2014-10-07 10:11:12.541";"3";;;;;;;;;;;;;;;;;;;;;;;;;;;;;;;;;;;;;;;;;;;;;;;;;;;;;;;;;;;;;;;;;;;;;;;;;;;;;;;;
"Josh6";"1995";;"Windows 7";"Rachel's Experiment (D.T.)";"1.0";"2";"1";"1";"2";"1";"1";"2014-10-07 10:00:29.370";"2014-10-07 10:12:52.955";"1";"0";"0";"174";"173";"module.devaluation_block1.exec-3522.deval1";"6173";"2014-10-07 10:11:26.596";"15";"1";"2";"2";"1051";"723";"1370";"2014-10-07 10:11:20.419";"2";;;;;;;;;;;;;;;;;;;;;;;;;;;;;;;;;;;;;;;;;;;;;;;;;;;;;;;;;;;;;;;;;;;;;;;;;;;;;;;;
"Josh6";"1995";;"Windows 7";"Rachel's Experiment (D.T.)";"1.0";"2";"1";"1";"2";"1";"1";"2014-10-07 10:00:29.370";"2014-10-07 10:12:52.955";"1";"0";"0";"175";"174";"module.devaluation_block1.exec-3522.deval1";"4509";"2014-10-07 10:11:31.120";"25";"3";"6";"5";"905";"290";"286";"2014-10-07 10:11:26.612";"3";;;;;;;;;;;;;;;;;;;;;;;;;;;;;;;;;;;;;;;;;;;;;;;;;;;;;;;;;;;;;;;;;;;;;;;;;;;;;;;;
"Josh6";"1995";;"Windows 7";"Rachel's Experiment (D.T.)";"1.0";"2";"1";"1";"2";"1";"1";"2014-10-07 10:00:29.370";"2014-10-07 10:12:52.955";"1";"0";"0";"176";"175";"module.devaluation_block1.exec-3522.deval1";"5452";"2014-10-07 10:11:36.595";"18";"7";"7";"7";"749";"708";"974";"2014-10-07 10:11:31.135";"3";;;;;;;;;;;;;;;;;;;;;;;;;;;;;;;;;;;;;;;;;;;;;;;;;;;;;;;;;;;;;;;;;;;;;;;;;;;;;;;;
"Josh6";"1995";;"Windows 7";"Rachel's Experiment (D.T.)";"1.0";"2";"1";"1";"2";"1";"1";"2014-10-07 10:00:29.370";"2014-10-07 10:12:52.955";"1";"0";"0";"177";"176";"module.devaluation_block1.exec-3522.deval1";"4613";"2014-10-07 10:11:41.228";"22";"6";"5";"7";"514";"395";"676";"2014-10-07 10:11:36.611";"3";;;;;;;;;;;;;;;;;;;;;;;;;;;;;;;;;;;;;;;;;;;;;;;;;;;;;;;;;;;;;;;;;;;;;;;;;;;;;;;;
"Josh6";"1995";;"Windows 7";"Rachel's Experiment (D.T.)";"1.0";"2";"1";"1";"2";"1";"1";"2014-10-07 10:00:29.370";"2014-10-07 10:12:52.955";"1";"0";"0";"178";"177";"module.devaluation_block1.exec-3522.deval1";"5939";"2014-10-07 10:11:47.203";"26";"8";"6";"7";"865";"466";"1580";"2014-10-07 10:11:41.260";"3";;;;;;;;;;;;;;;;;;;;;;;;;;;;;;;;;;;;;;;;;;;;;;;;;;;;;;;;;;;;;;;;;;;;;;;;;;;;;;;;
"Josh6";"1995";;"Windows 7";"Rachel's Experiment (D.T.)";"1.0";"2";"1";"1";"2";"1";"1";"2014-10-07 10:00:29.370";"2014-10-07 10:12:52.955";"1";"0";"0";"179";"178";"module.devaluation_block1.exec-3522.deval1";"4854";"2014-10-07 10:11:52.070";"6";"4";"2";"3";"666";"611";"544";"2014-10-07 10:11:47.219";"1";;;;;;;;;;;;;;;;;;;;;;;;;;;;;;;;;;;;;;;;;;;;;;;;;;;;;;;;;;;;;;;;;;;;;;;;;;;;;;;;
"Josh6";"1995";;"Windows 7";"Rachel's Experiment (D.T.)";"1.0";"2";"1";"1";"2";"1";"1";"2014-10-07 10:00:29.370";"2014-10-07 10:12:52.955";"1";"0";"0";"180";"179";"module.devaluation_block1.exec-3522.deval1";"6118";"2014-10-07 10:11:58.201";"1";"2";"6";"5";"1110";"678";"1304";"2014-10-07 10:11:52.086";"1";;;;;;;;;;;;;;;;;;;;;;;;;;;;;;;;;;;;;;;;;;;;;;;;;;;;;;;;;;;;;;;;;;;;;;;;;;;;;;;;
"Josh6";"1995";;"Windows 7";"Rachel's Experiment (D.T.)";"1.0";"2";"1";"1";"2";"1";"1";"2014-10-07 10:00:29.370";"2014-10-07 10:12:52.955";"1";"0";"0";"181";"180";"module.devaluation_block1.exec-3522.deval1";"5989";"2014-10-07 10:12:04.207";"11";"1";"1";"1";"1108";"868";"981";"2014-10-07 10:11:58.216";"2";;;;;;;;;;;;;;;;;;;;;;;;;;;;;;;;;;;;;;;;;;;;;;;;;;;;;;;;;;;;;;;;;;;;;;;;;;;;;;;;
"Josh6";"1995";;"Windows 7";"Rachel's Experiment (D.T.)";"1.0";"2";"1";"1";"2";"1";"1";"2014-10-07 10:00:29.370";"2014-10-07 10:12:52.955";"1";"0";"0";"182";"181";"module.devaluation_block1.exec-3522.deval1";"5429";"2014-10-07 10:12:09.666";"23";"7";"7";"8";"901";"653";"850";"2014-10-07 10:12:04.222";"3";;;;;;;;;;;;;;;;;;;;;;;;;;;;;;;;;;;;;;;;;;;;;;;;;;;;;;;;;;;;;;;;;;;;;;;;;;;;;;;;
"Josh6";"1995";;"Windows 7";"Rachel's Experiment (D.T.)";"1.0";"2";"1";"1";"2";"1";"1";"2014-10-07 10:00:29.370";"2014-10-07 10:12:52.955";"1";"0";"0";"183";"182";"module.devaluation_block1.exec-3522.deval1";"4571";"2014-10-07 10:12:14.253";"20";"6";"6";"6";"497";"471";"563";"2014-10-07 10:12:09.682";"3";;;;;;;;;;;;;;;;;;;;;;;;;;;;;;;;;;;;;;;;;;;;;;;;;;;;;;;;;;;;;;;;;;;;;;;;;;;;;;;;
"Josh6";"1995";;"Windows 7";"Rachel's Experiment (D.T.)";"1.0";"2";"1";"1";"2";"1";"1";"2014-10-07 10:00:29.370";"2014-10-07 10:12:52.955";"1";"0";"0";"184";"183";"module.devaluation_block1.exec-3522.deval1";"5446";"2014-10-07 10:12:19.713";"17";"2";"2";"3";"895";"849";"675";"2014-10-07 10:12:14.268";"2";;;;;;;;;;;;;;;;;;;;;;;;;;;;;;;;;;;;;;;;;;;;;;;;;;;;;;;;;;;;;;;;;;;;;;;;;;;;;;;;
"Josh6";"1995";;"Windows 7";"Rachel's Experiment (D.T.)";"1.0";"2";"1";"1";"2";"1";"1";"2014-10-07 10:00:29.370";"2014-10-07 10:12:52.955";"1";"0";"0";"185";"184";"module.devaluation_block1.exec-3522.deval1";"4597";"2014-10-07 10:12:24.330";"19";"7";"6";"6";"683";"473";"433";"2014-10-07 10:12:19.728";"3";;;;;;;;;;;;;;;;;;;;;;;;;;;;;;;;;;;;;;;;;;;;;;;;;;;;;;;;;;;;;;;;;;;;;;;;;;;;;;;;
"Josh6";"1995";;"Windows 7";"Rachel's Experiment (D.T.)";"1.0";"2";"1";"1";"2";"1";"1";"2014-10-07 10:00:29.370";"2014-10-07 10:12:52.955";"1";"0";"0";"186";"185";"module.devaluation_block1.exec-3522.deval1";"5373";"2014-10-07 10:12:29.728";"4";"8";"7";"7";"777";"702";"867";"2014-10-07 10:12:24.346";"1";;;;;;;;;;;;;;;;;;;;;;;;;;;;;;;;;;;;;;;;;;;;;;;;;;;;;;;;;;;;;;;;;;;;;;;;;;;;;;;;
"Josh6";"1995";;"Windows 7";"Rachel's Experiment (D.T.)";"1.0";"2";"1";"1";"2";"1";"1";"2014-10-07 10:00:29.370";"2014-10-07 10:12:52.955";"1";"0";"0";"187";"186";"module.devaluation_block1.exec-3522.deval1";"3935";"2014-10-07 10:12:33.674";"5";"5";"5";"5";"308";"301";"305";"2014-10-07 10:12:29.743";"1";;;;;;;;;;;;;;;;;;;;;;;;;;;;;;;;;;;;;;;;;;;;;;;;;;;;;;;;;;;;;;;;;;;;;;;;;;;;;;;;
"Josh6";"1995";;"Windows 7";"Rachel's Experiment (D.T.)";"1.0";"2";"1";"1";"2";"1";"1";"2014-10-07 10:00:29.370";"2014-10-07 10:12:52.955";"1";"0";"0";"188";"187";"module.devaluation_block1.exec-3522.deval1";"5147";"2014-10-07 10:12:38.853";"2";"6";"6";"6";"1289";"345";"487";"2014-10-07 10:12:33.705";"1";;;;;;;;;;;;;;;;;;;;;;;;;;;;;;;;;;;;;;;;;;;;;;;;;;;;;;;;;;;;;;;;;;;;;;;;;;;;;;;;
"Josh6";"1995";;"Windows 7";"Rachel's Experiment (D.T.)";"1.0";"2";"1";"1";"2";"1";"1";"2014-10-07 10:00:29.370";"2014-10-07 10:12:52.955";"1";"0";"0";"189";"188";"module.devaluation_block1.exec-3522.deval1";"6109";"2014-10-07 10:12:44.984";"10";"2";"3";"3";"774";"1153";"1166";"2014-10-07 10:12:38.869";"2";;;;;;;;;;;;;;;;;;;;;;;;;;;;;;;;;;;;;;;;;;;;;;;;;;;;;;;;;;;;;;;;;;;;;;;;;;;;;;;;
"Josh6";"1995";;"Windows 7";"Rachel's Experiment (D.T.)";"1.0";"2";"1";"1";"2";"1";"1";"2014-10-07 10:00:29.370";"2014-10-07 10:12:52.955";"1";"0";"0";"190";"189";"module.devaluation_block1.exec-3522.deval1";"5302";"2014-10-07 10:12:50.303";"3";"5";"5";"5";"2107";"109";"46";"2014-10-07 10:12:45.000";"1";;;;;;;;;;;;;;;;;;;;;;;;;;;;;;;;;;;;;;;;;;;;;;;;;;;;;;;;;;;;;;;;;;;;;;;;;;;;;;;;
