"user.name";"user.yearOfBirth";"user.sex";"user.osName";"module.name";"module.version";"module.online.subject.code";"module.online.study.id";"module.online.module.nr";"module.online.group.nr";"session.id";"session.index";"session.startTime";"session.endTime";"session.completed";"session.node-8632.DevalQorder";"session.node-8997.conditionType";"trial.id";"trial.index";"trial.name";"trial.deval1.durationTime";"trial.deval1.endTime";"trial.deval1.icon";"trial.deval1.Resp_Attractive";"trial.deval1.Resp_Eat";"trial.deval1.Resp_Taste";"trial.deval1.RT_Attractive";"trial.deval1.RT_Eat";"trial.deval1.RT_Taste";"trial.deval1.startTime";"trial.deval1.stimulus type";"trial.devalPractice.durationTime";"trial.devalPractice.endTime";"trial.devalPractice.icon";"trial.devalPractice.Resp_Attractive";"trial.devalPractice.Resp_Eat";"trial.devalPractice.Resp_Taste";"trial.devalPractice.RT_Attractive";"trial.devalPractice.RT_Eat";"trial.devalPractice.RT_Taste";"trial.devalPractice.startTime";"trial.devalPractice.stimulus type";"trial.GoNoGo1.durationTime";"trial.GoNoGo1.endTime";"trial.GoNoGo1.Error Type";"trial.GoNoGo1.icon";"trial.GoNoGo1.location";"trial.GoNoGo1.outcome";"trial.GoNoGo1.response";"trial.GoNoGo1.result";"trial.GoNoGo1.RT";"trial.GoNoGo1.signal";"trial.GoNoGo1.startTime";"trial.GoNoGo1.stimulus type";"trial.GoNoGo2.durationTime";"trial.GoNoGo2.endTime";"trial.GoNoGo2.Error Type";"trial.GoNoGo2.icon";"trial.GoNoGo2.location";"trial.GoNoGo2.outcome";"trial.GoNoGo2.response";"trial.GoNoGo2.result";"trial.GoNoGo2.RT";"trial.GoNoGo2.signal";"trial.GoNoGo2.startTime";"trial.GoNoGo2.stimulus type";"trial.GoNoGo3.durationTime";"trial.GoNoGo3.endTime";"trial.GoNoGo3.Error Type";"trial.GoNoGo3.icon";"trial.GoNoGo3.location";"trial.GoNoGo3.outcome";"trial.GoNoGo3.response";"trial.GoNoGo3.result";"trial.GoNoGo3.RT";"trial.GoNoGo3.signal";"trial.GoNoGo3.startTime";"trial.GoNoGo3.stimulus type";"trial.GoNoGo4.durationTime";"trial.GoNoGo4.endTime";"trial.GoNoGo4.Error Type";"trial.GoNoGo4.icon";"trial.GoNoGo4.location";"trial.GoNoGo4.outcome";"trial.GoNoGo4.response";"trial.GoNoGo4.result";"trial.GoNoGo4.RT";"trial.GoNoGo4.signal";"trial.GoNoGo4.startTime";"trial.GoNoGo4.stimulus type";"trial.GoNoGo_Practice.durationTime";"trial.GoNoGo_Practice.endTime";"trial.GoNoGo_Practice.icon";"trial.GoNoGo_Practice.location";"trial.GoNoGo_Practice.outcome";"trial.GoNoGo_Practice.response";"trial.GoNoGo_Practice.result";"trial.GoNoGo_Practice.RT";"trial.GoNoGo_Practice.signal";"trial.GoNoGo_Practice.startTime";"trial.GoNoGo_Practice.stimulus type";"trial.GoNoGo_Tutorial.durationTime";"trial.GoNoGo_Tutorial.endTime";"trial.GoNoGo_Tutorial.icon";"trial.GoNoGo_Tutorial.location";"trial.GoNoGo_Tutorial.outcome";"trial.GoNoGo_Tutorial.response";"trial.GoNoGo_Tutorial.result";"trial.GoNoGo_Tutorial.RT";"trial.GoNoGo_Tutorial.signal";"trial.GoNoGo_Tutorial.startTime"
"66917060";"08/03/1993";;"Windows 8";"Rachel's Experiment (D.T.)";"1.0";"2";"1";"1";"2";"1";"1";"2014-10-07 13:23:30.067";"2014-10-07 13:36:43.145";"1";"1";"1";"1";"0";"module.GoNoGotutorial.exec-8696.GoNoGo_Tutorial";;;;;;;;;;;;;;;;;;;;;;;;;;;;;;;;;;;;;;;;;;;;;;;;;;;;;;;;;;;;;;;;;;;;;;;;;;;;;;;;;;"4002";"2014-10-07 13:24:27.813";"leftResponse";"0";"FINISHED";"LEFT";"success";"3364";"0";"2014-10-07 13:24:23.811"
"66917060";"08/03/1993";;"Windows 8";"Rachel's Experiment (D.T.)";"1.0";"2";"1";"1";"2";"1";"1";"2014-10-07 13:23:30.067";"2014-10-07 13:36:43.145";"1";"1";"1";"2";"1";"module.GoNoGotutorial.exec-8696.GoNoGo_Tutorial";;;;;;;;;;;;;;;;;;;;;;;;;;;;;;;;;;;;;;;;;;;;;;;;;;;;;;;;;;;;;;;;;;;;;;;;;;;;;;;;;;"4000";"2014-10-07 13:24:33.122";"rightResponse";"1";"FINISHED";"RIGHT";"success";"1112";"0";"2014-10-07 13:24:29.122"
"66917060";"08/03/1993";;"Windows 8";"Rachel's Experiment (D.T.)";"1.0";"2";"1";"1";"2";"1";"1";"2014-10-07 13:23:30.067";"2014-10-07 13:36:43.145";"1";"1";"1";"3";"2";"module.GoNoGotutorial.exec-8696.GoNoGo_Tutorial";;;;;;;;;;;;;;;;;;;;;;;;;;;;;;;;;;;;;;;;;;;;;;;;;;;;;;;;;;;;;;;;;;;;;;;;;;;;;;;;;;"4000";"2014-10-07 13:24:38.429";"signalResponse";"0";"FINISHED";"NONE";"success";"0";"1";"2014-10-07 13:24:34.427"
"66917060";"08/03/1993";;"Windows 8";"Rachel's Experiment (D.T.)";"1.0";"2";"1";"1";"2";"1";"1";"2014-10-07 13:23:30.067";"2014-10-07 13:36:43.145";"1";"1";"1";"4";"3";"module.GoNoGopractice.exec-9759.GoNoGo_Practice";;;;;;;;;;;;;;;;;;;;;;;;;;;;;;;;;;;;;;;;;;;;;;;;;;;;;;;;;;;;;;;;;;;;;;;"1968";"2014-10-07 13:24:46.059";"18";"0";"FINISHED";"LEFT";"success";"606";"0";"2014-10-07 13:24:44.090";"3";;;;;;;;;;
"66917060";"08/03/1993";;"Windows 8";"Rachel's Experiment (D.T.)";"1.0";"2";"1";"1";"2";"1";"1";"2014-10-07 13:23:30.067";"2014-10-07 13:36:43.145";"1";"1";"1";"5";"4";"module.GoNoGopractice.exec-9759.GoNoGo_Practice";;;;;;;;;;;;;;;;;;;;;;;;;;;;;;;;;;;;;;;;;;;;;;;;;;;;;;;;;;;;;;;;;;;;;;;"1953";"2014-10-07 13:24:49.335";"21";"1";"FINISHED";"RIGHT";"success";"527";"0";"2014-10-07 13:24:47.381";"3";;;;;;;;;;
"66917060";"08/03/1993";;"Windows 8";"Rachel's Experiment (D.T.)";"1.0";"2";"1";"1";"2";"1";"1";"2014-10-07 13:23:30.067";"2014-10-07 13:36:43.145";"1";"1";"1";"6";"5";"module.GoNoGopractice.exec-9759.GoNoGo_Practice";;;;;;;;;;;;;;;;;;;;;;;;;;;;;;;;;;;;;;;;;;;;;;;;;;;;;;;;;;;;;;;;;;;;;;;"1961";"2014-10-07 13:24:52.612";"14";"1";"FINISHED";"NONE";"success";"0";"1";"2014-10-07 13:24:50.650";"2";;;;;;;;;;
"66917060";"08/03/1993";;"Windows 8";"Rachel's Experiment (D.T.)";"1.0";"2";"1";"1";"2";"1";"1";"2014-10-07 13:23:30.067";"2014-10-07 13:36:43.145";"1";"1";"1";"7";"6";"module.GoNoGopractice.exec-9759.GoNoGo_Practice";;;;;;;;;;;;;;;;;;;;;;;;;;;;;;;;;;;;;;;;;;;;;;;;;;;;;;;;;;;;;;;;;;;;;;;"1953";"2014-10-07 13:24:55.878";"26";"0";"FINISHED";"LEFT";"success";"435";"0";"2014-10-07 13:24:53.925";"3";;;;;;;;;;
"66917060";"08/03/1993";;"Windows 8";"Rachel's Experiment (D.T.)";"1.0";"2";"1";"1";"2";"1";"1";"2014-10-07 13:23:30.067";"2014-10-07 13:36:43.145";"1";"1";"1";"8";"7";"module.GoNoGopractice.exec-9759.GoNoGo_Practice";;;;;;;;;;;;;;;;;;;;;;;;;;;;;;;;;;;;;;;;;;;;;;;;;;;;;;;;;;;;;;;;;;;;;;;"1953";"2014-10-07 13:24:59.144";"2";"0";"FINISHED";"LEFT";"success";"579";"0";"2014-10-07 13:24:57.190";"1";;;;;;;;;;
"66917060";"08/03/1993";;"Windows 8";"Rachel's Experiment (D.T.)";"1.0";"2";"1";"1";"2";"1";"1";"2014-10-07 13:23:30.067";"2014-10-07 13:36:43.145";"1";"1";"1";"9";"8";"module.GoNoGopractice.exec-9759.GoNoGo_Practice";;;;;;;;;;;;;;;;;;;;;;;;;;;;;;;;;;;;;;;;;;;;;;;;;;;;;;;;;;;;;;;;;;;;;;;"1953";"2014-10-07 13:25:02.398";"30";"0";"FINISHED";"NONE";"success";"0";"1";"2014-10-07 13:25:00.444";"3";;;;;;;;;;
"66917060";"08/03/1993";;"Windows 8";"Rachel's Experiment (D.T.)";"1.0";"2";"1";"1";"2";"1";"1";"2014-10-07 13:23:30.067";"2014-10-07 13:36:43.145";"1";"1";"1";"10";"9";"module.GoNoGopractice.exec-9759.GoNoGo_Practice";;;;;;;;;;;;;;;;;;;;;;;;;;;;;;;;;;;;;;;;;;;;;;;;;;;;;;;;;;;;;;;;;;;;;;;"1960";"2014-10-07 13:25:05.663";"6";"1";"FINISHED";"RIGHT";"failure";"473";"1";"2014-10-07 13:25:03.702";"1";;;;;;;;;;
"66917060";"08/03/1993";;"Windows 8";"Rachel's Experiment (D.T.)";"1.0";"2";"1";"1";"2";"1";"1";"2014-10-07 13:23:30.067";"2014-10-07 13:36:43.145";"1";"1";"1";"11";"10";"module.GoNoGopractice.exec-9759.GoNoGo_Practice";;;;;;;;;;;;;;;;;;;;;;;;;;;;;;;;;;;;;;;;;;;;;;;;;;;;;;;;;;;;;;;;;;;;;;;"1953";"2014-10-07 13:25:08.924";"34";"0";"FINISHED";"LEFT";"success";"575";"0";"2014-10-07 13:25:06.970";"3";;;;;;;;;;
"66917060";"08/03/1993";;"Windows 8";"Rachel's Experiment (D.T.)";"1.0";"2";"1";"1";"2";"1";"1";"2014-10-07 13:23:30.067";"2014-10-07 13:36:43.145";"1";"1";"1";"12";"11";"module.GoNoGopractice.exec-9759.GoNoGo_Practice";;;;;;;;;;;;;;;;;;;;;;;;;;;;;;;;;;;;;;;;;;;;;;;;;;;;;;;;;;;;;;;;;;;;;;;"1952";"2014-10-07 13:25:12.189";"23";"1";"FINISHED";"RIGHT";"success";"582";"0";"2014-10-07 13:25:10.235";"3";;;;;;;;;;
"66917060";"08/03/1993";;"Windows 8";"Rachel's Experiment (D.T.)";"1.0";"2";"1";"1";"2";"1";"1";"2014-10-07 13:23:30.067";"2014-10-07 13:36:43.145";"1";"1";"1";"13";"12";"module.GoNoGopractice.exec-9759.GoNoGo_Practice";;;;;;;;;;;;;;;;;;;;;;;;;;;;;;;;;;;;;;;;;;;;;;;;;;;;;;;;;;;;;;;;;;;;;;;"1952";"2014-10-07 13:25:15.438";"13";"0";"FINISHED";"NONE";"success";"0";"1";"2014-10-07 13:25:13.484";"2";;;;;;;;;;
"66917060";"08/03/1993";;"Windows 8";"Rachel's Experiment (D.T.)";"1.0";"2";"1";"1";"2";"1";"1";"2014-10-07 13:23:30.067";"2014-10-07 13:36:43.145";"1";"1";"1";"14";"13";"module.GoNoGopractice.exec-9759.GoNoGo_Practice";;;;;;;;;;;;;;;;;;;;;;;;;;;;;;;;;;;;;;;;;;;;;;;;;;;;;;;;;;;;;;;;;;;;;;;"1956";"2014-10-07 13:25:18.711";"3";"1";"FINISHED";"RIGHT";"success";"1014";"0";"2014-10-07 13:25:16.755";"1";;;;;;;;;;
"66917060";"08/03/1993";;"Windows 8";"Rachel's Experiment (D.T.)";"1.0";"2";"1";"1";"2";"1";"1";"2014-10-07 13:23:30.067";"2014-10-07 13:36:43.145";"1";"1";"1";"15";"14";"module.GoNoGopractice.exec-9759.GoNoGo_Practice";;;;;;;;;;;;;;;;;;;;;;;;;;;;;;;;;;;;;;;;;;;;;;;;;;;;;;;;;;;;;;;;;;;;;;;"1954";"2014-10-07 13:25:21.977";"27";"1";"FINISHED";"NONE";"success";"0";"1";"2014-10-07 13:25:20.022";"3";;;;;;;;;;
"66917060";"08/03/1993";;"Windows 8";"Rachel's Experiment (D.T.)";"1.0";"2";"1";"1";"2";"1";"1";"2014-10-07 13:23:30.067";"2014-10-07 13:36:43.145";"1";"1";"1";"16";"15";"module.training_block1.exec-2066.GoNoGo1";;;;;;;;;;;;;;;;;;;;;;;"1252";"2014-10-07 13:25:32.752";"ST_correctStop";"20";"1";"FINISHED";"NONE";"success";"0";"1";"2014-10-07 13:25:31.499";"3";;;;;;;;;;;;;;;;;;;;;;;;;;;;;;;;;;;;;;;;;;;;;;;;;;;;;;;;;
"66917060";"08/03/1993";;"Windows 8";"Rachel's Experiment (D.T.)";"1.0";"2";"1";"1";"2";"1";"1";"2014-10-07 13:23:30.067";"2014-10-07 13:36:43.145";"1";"1";"1";"17";"16";"module.training_block1.exec-2066.GoNoGo1";;;;;;;;;;;;;;;;;;;;;;;"1250";"2014-10-07 13:25:35.303";"NST_correctLoc";"13";"1";"FINISHED";"RIGHT";"success";"421";"0";"2014-10-07 13:25:34.052";"2";;;;;;;;;;;;;;;;;;;;;;;;;;;;;;;;;;;;;;;;;;;;;;;;;;;;;;;;;
"66917060";"08/03/1993";;"Windows 8";"Rachel's Experiment (D.T.)";"1.0";"2";"1";"1";"2";"1";"1";"2014-10-07 13:23:30.067";"2014-10-07 13:36:43.145";"1";"1";"1";"18";"17";"module.training_block1.exec-2066.GoNoGo1";;;;;;;;;;;;;;;;;;;;;;;"1250";"2014-10-07 13:25:37.862";"NST_correctLoc";"17";"0";"FINISHED";"LEFT";"success";"421";"0";"2014-10-07 13:25:36.612";"2";;;;;;;;;;;;;;;;;;;;;;;;;;;;;;;;;;;;;;;;;;;;;;;;;;;;;;;;;
"66917060";"08/03/1993";;"Windows 8";"Rachel's Experiment (D.T.)";"1.0";"2";"1";"1";"2";"1";"1";"2014-10-07 13:23:30.067";"2014-10-07 13:36:43.145";"1";"1";"1";"19";"18";"module.training_block1.exec-2066.GoNoGo1";;;;;;;;;;;;;;;;;;;;;;;"1250";"2014-10-07 13:25:40.412";"ST_correctStop";"5";"1";"FINISHED";"NONE";"success";"0";"1";"2014-10-07 13:25:39.161";"1";;;;;;;;;;;;;;;;;;;;;;;;;;;;;;;;;;;;;;;;;;;;;;;;;;;;;;;;;
"66917060";"08/03/1993";;"Windows 8";"Rachel's Experiment (D.T.)";"1.0";"2";"1";"1";"2";"1";"1";"2014-10-07 13:23:30.067";"2014-10-07 13:36:43.145";"1";"1";"1";"20";"19";"module.training_block1.exec-2066.GoNoGo1";;;;;;;;;;;;;;;;;;;;;;;"1250";"2014-10-07 13:25:42.939";"ST_correctStop";"34";"0";"FINISHED";"NONE";"success";"0";"1";"2014-10-07 13:25:41.688";"3";;;;;;;;;;;;;;;;;;;;;;;;;;;;;;;;;;;;;;;;;;;;;;;;;;;;;;;;;
"66917060";"08/03/1993";;"Windows 8";"Rachel's Experiment (D.T.)";"1.0";"2";"1";"1";"2";"1";"1";"2014-10-07 13:23:30.067";"2014-10-07 13:36:43.145";"1";"1";"1";"21";"20";"module.training_block1.exec-2066.GoNoGo1";;;;;;;;;;;;;;;;;;;;;;;"1250";"2014-10-07 13:25:45.491";"ST_correctStop";"26";"0";"FINISHED";"NONE";"success";"0";"1";"2014-10-07 13:25:44.241";"3";;;;;;;;;;;;;;;;;;;;;;;;;;;;;;;;;;;;;;;;;;;;;;;;;;;;;;;;;
"66917060";"08/03/1993";;"Windows 8";"Rachel's Experiment (D.T.)";"1.0";"2";"1";"1";"2";"1";"1";"2014-10-07 13:23:30.067";"2014-10-07 13:36:43.145";"1";"1";"1";"22";"21";"module.training_block1.exec-2066.GoNoGo1";;;;;;;;;;;;;;;;;;;;;;;"1249";"2014-10-07 13:25:48.052";"ST_correctStop";"29";"1";"FINISHED";"NONE";"success";"0";"1";"2014-10-07 13:25:46.801";"3";;;;;;;;;;;;;;;;;;;;;;;;;;;;;;;;;;;;;;;;;;;;;;;;;;;;;;;;;
"66917060";"08/03/1993";;"Windows 8";"Rachel's Experiment (D.T.)";"1.0";"2";"1";"1";"2";"1";"1";"2014-10-07 13:23:30.067";"2014-10-07 13:36:43.145";"1";"1";"1";"23";"22";"module.training_block1.exec-2066.GoNoGo1";;;;;;;;;;;;;;;;;;;;;;;"1251";"2014-10-07 13:25:50.613";"NST_correctLoc";"9";"0";"FINISHED";"LEFT";"success";"412";"0";"2014-10-07 13:25:49.362";"2";;;;;;;;;;;;;;;;;;;;;;;;;;;;;;;;;;;;;;;;;;;;;;;;;;;;;;;;;
"66917060";"08/03/1993";;"Windows 8";"Rachel's Experiment (D.T.)";"1.0";"2";"1";"1";"2";"1";"1";"2014-10-07 13:23:30.067";"2014-10-07 13:36:43.145";"1";"1";"1";"24";"23";"module.training_block1.exec-2066.GoNoGo1";;;;;;;;;;;;;;;;;;;;;;;"1250";"2014-10-07 13:25:53.157";"ST_correctStop";"3";"0";"FINISHED";"NONE";"success";"0";"1";"2014-10-07 13:25:51.907";"1";;;;;;;;;;;;;;;;;;;;;;;;;;;;;;;;;;;;;;;;;;;;;;;;;;;;;;;;;
"66917060";"08/03/1993";;"Windows 8";"Rachel's Experiment (D.T.)";"1.0";"2";"1";"1";"2";"1";"1";"2014-10-07 13:23:30.067";"2014-10-07 13:36:43.145";"1";"1";"1";"25";"24";"module.training_block1.exec-2066.GoNoGo1";;;;;;;;;;;;;;;;;;;;;;;"1249";"2014-10-07 13:25:55.712";"NST_correctLoc";"24";"0";"FINISHED";"LEFT";"success";"436";"0";"2014-10-07 13:25:54.462";"3";;;;;;;;;;;;;;;;;;;;;;;;;;;;;;;;;;;;;;;;;;;;;;;;;;;;;;;;;
"66917060";"08/03/1993";;"Windows 8";"Rachel's Experiment (D.T.)";"1.0";"2";"1";"1";"2";"1";"1";"2014-10-07 13:23:30.067";"2014-10-07 13:36:43.145";"1";"1";"1";"26";"25";"module.training_block1.exec-2066.GoNoGo1";;;;;;;;;;;;;;;;;;;;;;;"1250";"2014-10-07 13:25:58.275";"ST_correctStop";"28";"0";"FINISHED";"NONE";"success";"0";"1";"2014-10-07 13:25:57.024";"3";;;;;;;;;;;;;;;;;;;;;;;;;;;;;;;;;;;;;;;;;;;;;;;;;;;;;;;;;
"66917060";"08/03/1993";;"Windows 8";"Rachel's Experiment (D.T.)";"1.0";"2";"1";"1";"2";"1";"1";"2014-10-07 13:23:30.067";"2014-10-07 13:36:43.145";"1";"1";"1";"27";"26";"module.training_block1.exec-2066.GoNoGo1";;;;;;;;;;;;;;;;;;;;;;;"1250";"2014-10-07 13:26:00.834";"ST_correctStop";"4";"0";"FINISHED";"NONE";"success";"0";"1";"2014-10-07 13:25:59.583";"1";;;;;;;;;;;;;;;;;;;;;;;;;;;;;;;;;;;;;;;;;;;;;;;;;;;;;;;;;
"66917060";"08/03/1993";;"Windows 8";"Rachel's Experiment (D.T.)";"1.0";"2";"1";"1";"2";"1";"1";"2014-10-07 13:23:30.067";"2014-10-07 13:36:43.145";"1";"1";"1";"28";"27";"module.training_block1.exec-2066.GoNoGo1";;;;;;;;;;;;;;;;;;;;;;;"1249";"2014-10-07 13:26:03.381";"ST_correctStop";"6";"0";"FINISHED";"NONE";"success";"0";"1";"2014-10-07 13:26:02.131";"1";;;;;;;;;;;;;;;;;;;;;;;;;;;;;;;;;;;;;;;;;;;;;;;;;;;;;;;;;
"66917060";"08/03/1993";;"Windows 8";"Rachel's Experiment (D.T.)";"1.0";"2";"1";"1";"2";"1";"1";"2014-10-07 13:23:30.067";"2014-10-07 13:36:43.145";"1";"1";"1";"29";"28";"module.training_block1.exec-2066.GoNoGo1";;;;;;;;;;;;;;;;;;;;;;;"1250";"2014-10-07 13:26:05.937";"ST_correctStop";"7";"1";"FINISHED";"NONE";"success";"0";"1";"2014-10-07 13:26:04.687";"1";;;;;;;;;;;;;;;;;;;;;;;;;;;;;;;;;;;;;;;;;;;;;;;;;;;;;;;;;
"66917060";"08/03/1993";;"Windows 8";"Rachel's Experiment (D.T.)";"1.0";"2";"1";"1";"2";"1";"1";"2014-10-07 13:23:30.067";"2014-10-07 13:36:43.145";"1";"1";"1";"30";"29";"module.training_block1.exec-2066.GoNoGo1";;;;;;;;;;;;;;;;;;;;;;;"1251";"2014-10-07 13:26:08.485";"ST_correctStop";"23";"1";"FINISHED";"NONE";"success";"0";"1";"2014-10-07 13:26:07.233";"3";;;;;;;;;;;;;;;;;;;;;;;;;;;;;;;;;;;;;;;;;;;;;;;;;;;;;;;;;
"66917060";"08/03/1993";;"Windows 8";"Rachel's Experiment (D.T.)";"1.0";"2";"1";"1";"2";"1";"1";"2014-10-07 13:23:30.067";"2014-10-07 13:36:43.145";"1";"1";"1";"31";"30";"module.training_block1.exec-2066.GoNoGo1";;;;;;;;;;;;;;;;;;;;;;;"1250";"2014-10-07 13:26:11.038";"NST_correctLoc";"31";"1";"FINISHED";"RIGHT";"success";"508";"0";"2014-10-07 13:26:09.788";"3";;;;;;;;;;;;;;;;;;;;;;;;;;;;;;;;;;;;;;;;;;;;;;;;;;;;;;;;;
"66917060";"08/03/1993";;"Windows 8";"Rachel's Experiment (D.T.)";"1.0";"2";"1";"1";"2";"1";"1";"2014-10-07 13:23:30.067";"2014-10-07 13:36:43.145";"1";"1";"1";"32";"31";"module.training_block1.exec-2066.GoNoGo1";;;;;;;;;;;;;;;;;;;;;;;"1249";"2014-10-07 13:26:13.580";"ST_correctStop";"21";"1";"FINISHED";"NONE";"success";"0";"1";"2014-10-07 13:26:12.330";"3";;;;;;;;;;;;;;;;;;;;;;;;;;;;;;;;;;;;;;;;;;;;;;;;;;;;;;;;;
"66917060";"08/03/1993";;"Windows 8";"Rachel's Experiment (D.T.)";"1.0";"2";"1";"1";"2";"1";"1";"2014-10-07 13:23:30.067";"2014-10-07 13:36:43.145";"1";"1";"1";"33";"32";"module.training_block1.exec-2066.GoNoGo1";;;;;;;;;;;;;;;;;;;;;;;"1250";"2014-10-07 13:26:16.127";"ST_correctStop";"2";"0";"FINISHED";"NONE";"success";"0";"1";"2014-10-07 13:26:14.877";"1";;;;;;;;;;;;;;;;;;;;;;;;;;;;;;;;;;;;;;;;;;;;;;;;;;;;;;;;;
"66917060";"08/03/1993";;"Windows 8";"Rachel's Experiment (D.T.)";"1.0";"2";"1";"1";"2";"1";"1";"2014-10-07 13:23:30.067";"2014-10-07 13:36:43.145";"1";"1";"1";"34";"33";"module.training_block1.exec-2066.GoNoGo1";;;;;;;;;;;;;;;;;;;;;;;"1249";"2014-10-07 13:26:18.685";"NST_correctLoc";"14";"1";"FINISHED";"RIGHT";"success";"464";"0";"2014-10-07 13:26:17.435";"2";;;;;;;;;;;;;;;;;;;;;;;;;;;;;;;;;;;;;;;;;;;;;;;;;;;;;;;;;
"66917060";"08/03/1993";;"Windows 8";"Rachel's Experiment (D.T.)";"1.0";"2";"1";"1";"2";"1";"1";"2014-10-07 13:23:30.067";"2014-10-07 13:36:43.145";"1";"1";"1";"35";"34";"module.training_block1.exec-2066.GoNoGo1";;;;;;;;;;;;;;;;;;;;;;;"1250";"2014-10-07 13:26:21.239";"ST_correctStop";"0";"1";"FINISHED";"NONE";"success";"0";"1";"2014-10-07 13:26:19.987";"1";;;;;;;;;;;;;;;;;;;;;;;;;;;;;;;;;;;;;;;;;;;;;;;;;;;;;;;;;
"66917060";"08/03/1993";;"Windows 8";"Rachel's Experiment (D.T.)";"1.0";"2";"1";"1";"2";"1";"1";"2014-10-07 13:23:30.067";"2014-10-07 13:36:43.145";"1";"1";"1";"36";"35";"module.training_block1.exec-2066.GoNoGo1";;;;;;;;;;;;;;;;;;;;;;;"1250";"2014-10-07 13:26:23.791";"NST_correctLoc";"15";"0";"FINISHED";"LEFT";"success";"493";"0";"2014-10-07 13:26:22.540";"2";;;;;;;;;;;;;;;;;;;;;;;;;;;;;;;;;;;;;;;;;;;;;;;;;;;;;;;;;
"66917060";"08/03/1993";;"Windows 8";"Rachel's Experiment (D.T.)";"1.0";"2";"1";"1";"2";"1";"1";"2014-10-07 13:23:30.067";"2014-10-07 13:36:43.145";"1";"1";"1";"37";"36";"module.training_block1.exec-2066.GoNoGo1";;;;;;;;;;;;;;;;;;;;;;;"1250";"2014-10-07 13:26:26.341";"NST_correctLoc";"25";"0";"FINISHED";"LEFT";"success";"495";"0";"2014-10-07 13:26:25.091";"3";;;;;;;;;;;;;;;;;;;;;;;;;;;;;;;;;;;;;;;;;;;;;;;;;;;;;;;;;
"66917060";"08/03/1993";;"Windows 8";"Rachel's Experiment (D.T.)";"1.0";"2";"1";"1";"2";"1";"1";"2014-10-07 13:23:30.067";"2014-10-07 13:36:43.145";"1";"1";"1";"38";"37";"module.training_block1.exec-2066.GoNoGo1";;;;;;;;;;;;;;;;;;;;;;;"1250";"2014-10-07 13:26:28.889";"NST_correctLoc";"19";"0";"FINISHED";"LEFT";"success";"485";"0";"2014-10-07 13:26:27.639";"3";;;;;;;;;;;;;;;;;;;;;;;;;;;;;;;;;;;;;;;;;;;;;;;;;;;;;;;;;
"66917060";"08/03/1993";;"Windows 8";"Rachel's Experiment (D.T.)";"1.0";"2";"1";"1";"2";"1";"1";"2014-10-07 13:23:30.067";"2014-10-07 13:36:43.145";"1";"1";"1";"39";"38";"module.training_block1.exec-2066.GoNoGo1";;;;;;;;;;;;;;;;;;;;;;;"1251";"2014-10-07 13:26:31.446";"NST_correctLoc";"16";"0";"FINISHED";"LEFT";"success";"435";"0";"2014-10-07 13:26:30.195";"2";;;;;;;;;;;;;;;;;;;;;;;;;;;;;;;;;;;;;;;;;;;;;;;;;;;;;;;;;
"66917060";"08/03/1993";;"Windows 8";"Rachel's Experiment (D.T.)";"1.0";"2";"1";"1";"2";"1";"1";"2014-10-07 13:23:30.067";"2014-10-07 13:36:43.145";"1";"1";"1";"40";"39";"module.training_block1.exec-2066.GoNoGo1";;;;;;;;;;;;;;;;;;;;;;;"1249";"2014-10-07 13:26:33.989";"NST_correctLoc";"27";"0";"FINISHED";"LEFT";"success";"441";"0";"2014-10-07 13:26:32.738";"3";;;;;;;;;;;;;;;;;;;;;;;;;;;;;;;;;;;;;;;;;;;;;;;;;;;;;;;;;
"66917060";"08/03/1993";;"Windows 8";"Rachel's Experiment (D.T.)";"1.0";"2";"1";"1";"2";"1";"1";"2014-10-07 13:23:30.067";"2014-10-07 13:36:43.145";"1";"1";"1";"41";"40";"module.training_block1.exec-2066.GoNoGo1";;;;;;;;;;;;;;;;;;;;;;;"1250";"2014-10-07 13:26:36.539";"NST_correctLoc";"11";"0";"FINISHED";"LEFT";"success";"462";"0";"2014-10-07 13:26:35.288";"2";;;;;;;;;;;;;;;;;;;;;;;;;;;;;;;;;;;;;;;;;;;;;;;;;;;;;;;;;
"66917060";"08/03/1993";;"Windows 8";"Rachel's Experiment (D.T.)";"1.0";"2";"1";"1";"2";"1";"1";"2014-10-07 13:23:30.067";"2014-10-07 13:36:43.145";"1";"1";"1";"42";"41";"module.training_block1.exec-2066.GoNoGo1";;;;;;;;;;;;;;;;;;;;;;;"1250";"2014-10-07 13:26:39.088";"NST_correctLoc";"12";"0";"FINISHED";"LEFT";"success";"464";"0";"2014-10-07 13:26:37.838";"2";;;;;;;;;;;;;;;;;;;;;;;;;;;;;;;;;;;;;;;;;;;;;;;;;;;;;;;;;
"66917060";"08/03/1993";;"Windows 8";"Rachel's Experiment (D.T.)";"1.0";"2";"1";"1";"2";"1";"1";"2014-10-07 13:23:30.067";"2014-10-07 13:36:43.145";"1";"1";"1";"43";"42";"module.training_block1.exec-2066.GoNoGo1";;;;;;;;;;;;;;;;;;;;;;;"1250";"2014-10-07 13:26:41.638";"NST_correctLoc";"10";"0";"FINISHED";"LEFT";"success";"479";"0";"2014-10-07 13:26:40.387";"2";;;;;;;;;;;;;;;;;;;;;;;;;;;;;;;;;;;;;;;;;;;;;;;;;;;;;;;;;
"66917060";"08/03/1993";;"Windows 8";"Rachel's Experiment (D.T.)";"1.0";"2";"1";"1";"2";"1";"1";"2014-10-07 13:23:30.067";"2014-10-07 13:36:43.145";"1";"1";"1";"44";"43";"module.training_block1.exec-2066.GoNoGo1";;;;;;;;;;;;;;;;;;;;;;;"1249";"2014-10-07 13:26:44.188";"NST_correctLoc";"22";"0";"FINISHED";"LEFT";"success";"457";"0";"2014-10-07 13:26:42.937";"3";;;;;;;;;;;;;;;;;;;;;;;;;;;;;;;;;;;;;;;;;;;;;;;;;;;;;;;;;
"66917060";"08/03/1993";;"Windows 8";"Rachel's Experiment (D.T.)";"1.0";"2";"1";"1";"2";"1";"1";"2014-10-07 13:23:30.067";"2014-10-07 13:36:43.145";"1";"1";"1";"45";"44";"module.training_block1.exec-2066.GoNoGo1";;;;;;;;;;;;;;;;;;;;;;;"1250";"2014-10-07 13:26:46.738";"ST_correctStop";"8";"1";"FINISHED";"NONE";"success";"0";"1";"2014-10-07 13:26:45.487";"1";;;;;;;;;;;;;;;;;;;;;;;;;;;;;;;;;;;;;;;;;;;;;;;;;;;;;;;;;
"66917060";"08/03/1993";;"Windows 8";"Rachel's Experiment (D.T.)";"1.0";"2";"1";"1";"2";"1";"1";"2014-10-07 13:23:30.067";"2014-10-07 13:36:43.145";"1";"1";"1";"46";"45";"module.training_block1.exec-2066.GoNoGo1";;;;;;;;;;;;;;;;;;;;;;;"1249";"2014-10-07 13:26:49.279";"ST_correctStop";"18";"0";"FINISHED";"NONE";"success";"0";"1";"2014-10-07 13:26:48.029";"3";;;;;;;;;;;;;;;;;;;;;;;;;;;;;;;;;;;;;;;;;;;;;;;;;;;;;;;;;
"66917060";"08/03/1993";;"Windows 8";"Rachel's Experiment (D.T.)";"1.0";"2";"1";"1";"2";"1";"1";"2014-10-07 13:23:30.067";"2014-10-07 13:36:43.145";"1";"1";"1";"47";"46";"module.training_block1.exec-2066.GoNoGo1";;;;;;;;;;;;;;;;;;;;;;;"1249";"2014-10-07 13:26:51.830";"NST_correctLoc";"33";"1";"FINISHED";"RIGHT";"success";"472";"0";"2014-10-07 13:26:50.580";"3";;;;;;;;;;;;;;;;;;;;;;;;;;;;;;;;;;;;;;;;;;;;;;;;;;;;;;;;;
"66917060";"08/03/1993";;"Windows 8";"Rachel's Experiment (D.T.)";"1.0";"2";"1";"1";"2";"1";"1";"2014-10-07 13:23:30.067";"2014-10-07 13:36:43.145";"1";"1";"1";"48";"47";"module.training_block1.exec-2066.GoNoGo1";;;;;;;;;;;;;;;;;;;;;;;"1249";"2014-10-07 13:26:54.373";"NST_correctLoc";"30";"0";"FINISHED";"LEFT";"success";"489";"0";"2014-10-07 13:26:53.123";"3";;;;;;;;;;;;;;;;;;;;;;;;;;;;;;;;;;;;;;;;;;;;;;;;;;;;;;;;;
"66917060";"08/03/1993";;"Windows 8";"Rachel's Experiment (D.T.)";"1.0";"2";"1";"1";"2";"1";"1";"2014-10-07 13:23:30.067";"2014-10-07 13:36:43.145";"1";"1";"1";"49";"48";"module.training_block1.exec-2066.GoNoGo1";;;;;;;;;;;;;;;;;;;;;;;"1250";"2014-10-07 13:26:56.919";"ST_correctStop";"32";"1";"FINISHED";"NONE";"success";"0";"1";"2014-10-07 13:26:55.669";"3";;;;;;;;;;;;;;;;;;;;;;;;;;;;;;;;;;;;;;;;;;;;;;;;;;;;;;;;;
"66917060";"08/03/1993";;"Windows 8";"Rachel's Experiment (D.T.)";"1.0";"2";"1";"1";"2";"1";"1";"2014-10-07 13:23:30.067";"2014-10-07 13:36:43.145";"1";"1";"1";"50";"49";"module.training_block1.exec-2066.GoNoGo1";;;;;;;;;;;;;;;;;;;;;;;"1250";"2014-10-07 13:26:59.461";"NST_correctLoc";"35";"0";"FINISHED";"LEFT";"success";"390";"0";"2014-10-07 13:26:58.211";"3";;;;;;;;;;;;;;;;;;;;;;;;;;;;;;;;;;;;;;;;;;;;;;;;;;;;;;;;;
"66917060";"08/03/1993";;"Windows 8";"Rachel's Experiment (D.T.)";"1.0";"2";"1";"1";"2";"1";"1";"2014-10-07 13:23:30.067";"2014-10-07 13:36:43.145";"1";"1";"1";"51";"50";"module.training_block1.exec-2066.GoNoGo1";;;;;;;;;;;;;;;;;;;;;;;"1250";"2014-10-07 13:27:02.007";"ST_correctStop";"1";"0";"FINISHED";"NONE";"success";"0";"1";"2014-10-07 13:27:00.757";"1";;;;;;;;;;;;;;;;;;;;;;;;;;;;;;;;;;;;;;;;;;;;;;;;;;;;;;;;;
"66917060";"08/03/1993";;"Windows 8";"Rachel's Experiment (D.T.)";"1.0";"2";"1";"1";"2";"1";"1";"2014-10-07 13:23:30.067";"2014-10-07 13:36:43.145";"1";"1";"1";"52";"51";"module.training_block2.exec-8862.GoNoGo2";;;;;;;;;;;;;;;;;;;;;;;;;;;;;;;;;;;"1249";"2014-10-07 13:27:13.764";"ST_correctStop";"0";"0";"FINISHED";"NONE";"success";"0";"1";"2014-10-07 13:27:12.514";"1";;;;;;;;;;;;;;;;;;;;;;;;;;;;;;;;;;;;;;;;;;;;;
"66917060";"08/03/1993";;"Windows 8";"Rachel's Experiment (D.T.)";"1.0";"2";"1";"1";"2";"1";"1";"2014-10-07 13:23:30.067";"2014-10-07 13:36:43.145";"1";"1";"1";"53";"52";"module.training_block2.exec-8862.GoNoGo2";;;;;;;;;;;;;;;;;;;;;;;;;;;;;;;;;;;"1250";"2014-10-07 13:27:16.307";"NST_correctLoc";"20";"1";"FINISHED";"RIGHT";"success";"504";"0";"2014-10-07 13:27:15.056";"3";;;;;;;;;;;;;;;;;;;;;;;;;;;;;;;;;;;;;;;;;;;;;
"66917060";"08/03/1993";;"Windows 8";"Rachel's Experiment (D.T.)";"1.0";"2";"1";"1";"2";"1";"1";"2014-10-07 13:23:30.067";"2014-10-07 13:36:43.145";"1";"1";"1";"54";"53";"module.training_block2.exec-8862.GoNoGo2";;;;;;;;;;;;;;;;;;;;;;;;;;;;;;;;;;;"1250";"2014-10-07 13:27:18.850";"NST_correctLoc";"33";"1";"FINISHED";"RIGHT";"success";"453";"0";"2014-10-07 13:27:17.598";"3";;;;;;;;;;;;;;;;;;;;;;;;;;;;;;;;;;;;;;;;;;;;;
"66917060";"08/03/1993";;"Windows 8";"Rachel's Experiment (D.T.)";"1.0";"2";"1";"1";"2";"1";"1";"2014-10-07 13:23:30.067";"2014-10-07 13:36:43.145";"1";"1";"1";"55";"54";"module.training_block2.exec-8862.GoNoGo2";;;;;;;;;;;;;;;;;;;;;;;;;;;;;;;;;;;"1250";"2014-10-07 13:27:21.393";"NST_correctLoc";"17";"0";"FINISHED";"LEFT";"success";"684";"0";"2014-10-07 13:27:20.143";"2";;;;;;;;;;;;;;;;;;;;;;;;;;;;;;;;;;;;;;;;;;;;;
"66917060";"08/03/1993";;"Windows 8";"Rachel's Experiment (D.T.)";"1.0";"2";"1";"1";"2";"1";"1";"2014-10-07 13:23:30.067";"2014-10-07 13:36:43.145";"1";"1";"1";"56";"55";"module.training_block2.exec-8862.GoNoGo2";;;;;;;;;;;;;;;;;;;;;;;;;;;;;;;;;;;"1250";"2014-10-07 13:27:23.932";"ST_correctStop";"26";"0";"FINISHED";"NONE";"success";"0";"1";"2014-10-07 13:27:22.682";"3";;;;;;;;;;;;;;;;;;;;;;;;;;;;;;;;;;;;;;;;;;;;;
"66917060";"08/03/1993";;"Windows 8";"Rachel's Experiment (D.T.)";"1.0";"2";"1";"1";"2";"1";"1";"2014-10-07 13:23:30.067";"2014-10-07 13:36:43.145";"1";"1";"1";"57";"56";"module.training_block2.exec-8862.GoNoGo2";;;;;;;;;;;;;;;;;;;;;;;;;;;;;;;;;;;"1250";"2014-10-07 13:27:26.474";"NST_correctLoc";"9";"0";"FINISHED";"LEFT";"success";"415";"0";"2014-10-07 13:27:25.224";"2";;;;;;;;;;;;;;;;;;;;;;;;;;;;;;;;;;;;;;;;;;;;;
"66917060";"08/03/1993";;"Windows 8";"Rachel's Experiment (D.T.)";"1.0";"2";"1";"1";"2";"1";"1";"2014-10-07 13:23:30.067";"2014-10-07 13:36:43.145";"1";"1";"1";"58";"57";"module.training_block2.exec-8862.GoNoGo2";;;;;;;;;;;;;;;;;;;;;;;;;;;;;;;;;;;"1249";"2014-10-07 13:27:29.015";"ST_correctStop";"28";"1";"FINISHED";"NONE";"success";"0";"1";"2014-10-07 13:27:27.765";"3";;;;;;;;;;;;;;;;;;;;;;;;;;;;;;;;;;;;;;;;;;;;;
"66917060";"08/03/1993";;"Windows 8";"Rachel's Experiment (D.T.)";"1.0";"2";"1";"1";"2";"1";"1";"2014-10-07 13:23:30.067";"2014-10-07 13:36:43.145";"1";"1";"1";"59";"58";"module.training_block2.exec-8862.GoNoGo2";;;;;;;;;;;;;;;;;;;;;;;;;;;;;;;;;;;"1250";"2014-10-07 13:27:31.556";"ST_correctStop";"3";"1";"FINISHED";"NONE";"success";"0";"1";"2014-10-07 13:27:30.305";"1";;;;;;;;;;;;;;;;;;;;;;;;;;;;;;;;;;;;;;;;;;;;;
"66917060";"08/03/1993";;"Windows 8";"Rachel's Experiment (D.T.)";"1.0";"2";"1";"1";"2";"1";"1";"2014-10-07 13:23:30.067";"2014-10-07 13:36:43.145";"1";"1";"1";"60";"59";"module.training_block2.exec-8862.GoNoGo2";;;;;;;;;;;;;;;;;;;;;;;;;;;;;;;;;;;"1250";"2014-10-07 13:27:34.097";"NST_correctLoc";"32";"1";"FINISHED";"RIGHT";"success";"406";"0";"2014-10-07 13:27:32.846";"3";;;;;;;;;;;;;;;;;;;;;;;;;;;;;;;;;;;;;;;;;;;;;
"66917060";"08/03/1993";;"Windows 8";"Rachel's Experiment (D.T.)";"1.0";"2";"1";"1";"2";"1";"1";"2014-10-07 13:23:30.067";"2014-10-07 13:36:43.145";"1";"1";"1";"61";"60";"module.training_block2.exec-8862.GoNoGo2";;;;;;;;;;;;;;;;;;;;;;;;;;;;;;;;;;;"1249";"2014-10-07 13:27:36.639";"NST_correctLoc";"12";"0";"FINISHED";"LEFT";"success";"406";"0";"2014-10-07 13:27:35.388";"2";;;;;;;;;;;;;;;;;;;;;;;;;;;;;;;;;;;;;;;;;;;;;
"66917060";"08/03/1993";;"Windows 8";"Rachel's Experiment (D.T.)";"1.0";"2";"1";"1";"2";"1";"1";"2014-10-07 13:23:30.067";"2014-10-07 13:36:43.145";"1";"1";"1";"62";"61";"module.training_block2.exec-8862.GoNoGo2";;;;;;;;;;;;;;;;;;;;;;;;;;;;;;;;;;;"1251";"2014-10-07 13:27:39.177";"ST_correctStop";"25";"1";"FINISHED";"NONE";"success";"0";"1";"2014-10-07 13:27:37.926";"3";;;;;;;;;;;;;;;;;;;;;;;;;;;;;;;;;;;;;;;;;;;;;
"66917060";"08/03/1993";;"Windows 8";"Rachel's Experiment (D.T.)";"1.0";"2";"1";"1";"2";"1";"1";"2014-10-07 13:23:30.067";"2014-10-07 13:36:43.145";"1";"1";"1";"63";"62";"module.training_block2.exec-8862.GoNoGo2";;;;;;;;;;;;;;;;;;;;;;;;;;;;;;;;;;;"1250";"2014-10-07 13:27:41.719";"NST_correctLoc";"11";"0";"FINISHED";"LEFT";"success";"461";"0";"2014-10-07 13:27:40.469";"2";;;;;;;;;;;;;;;;;;;;;;;;;;;;;;;;;;;;;;;;;;;;;
"66917060";"08/03/1993";;"Windows 8";"Rachel's Experiment (D.T.)";"1.0";"2";"1";"1";"2";"1";"1";"2014-10-07 13:23:30.067";"2014-10-07 13:36:43.145";"1";"1";"1";"64";"63";"module.training_block2.exec-8862.GoNoGo2";;;;;;;;;;;;;;;;;;;;;;;;;;;;;;;;;;;"1249";"2014-10-07 13:27:44.261";"ST_correctStop";"5";"1";"FINISHED";"NONE";"success";"0";"1";"2014-10-07 13:27:43.011";"1";;;;;;;;;;;;;;;;;;;;;;;;;;;;;;;;;;;;;;;;;;;;;
"66917060";"08/03/1993";;"Windows 8";"Rachel's Experiment (D.T.)";"1.0";"2";"1";"1";"2";"1";"1";"2014-10-07 13:23:30.067";"2014-10-07 13:36:43.145";"1";"1";"1";"65";"64";"module.training_block2.exec-8862.GoNoGo2";;;;;;;;;;;;;;;;;;;;;;;;;;;;;;;;;;;"1249";"2014-10-07 13:27:46.801";"NST_correctLoc";"27";"0";"FINISHED";"LEFT";"success";"386";"0";"2014-10-07 13:27:45.551";"3";;;;;;;;;;;;;;;;;;;;;;;;;;;;;;;;;;;;;;;;;;;;;
"66917060";"08/03/1993";;"Windows 8";"Rachel's Experiment (D.T.)";"1.0";"2";"1";"1";"2";"1";"1";"2014-10-07 13:23:30.067";"2014-10-07 13:36:43.145";"1";"1";"1";"66";"65";"module.training_block2.exec-8862.GoNoGo2";;;;;;;;;;;;;;;;;;;;;;;;;;;;;;;;;;;"1249";"2014-10-07 13:27:49.338";"NST_correctLoc";"14";"0";"FINISHED";"LEFT";"success";"496";"0";"2014-10-07 13:27:48.088";"2";;;;;;;;;;;;;;;;;;;;;;;;;;;;;;;;;;;;;;;;;;;;;
"66917060";"08/03/1993";;"Windows 8";"Rachel's Experiment (D.T.)";"1.0";"2";"1";"1";"2";"1";"1";"2014-10-07 13:23:30.067";"2014-10-07 13:36:43.145";"1";"1";"1";"67";"66";"module.training_block2.exec-8862.GoNoGo2";;;;;;;;;;;;;;;;;;;;;;;;;;;;;;;;;;;"1250";"2014-10-07 13:27:51.880";"NST_correctLoc";"16";"1";"FINISHED";"RIGHT";"success";"596";"0";"2014-10-07 13:27:50.630";"2";;;;;;;;;;;;;;;;;;;;;;;;;;;;;;;;;;;;;;;;;;;;;
"66917060";"08/03/1993";;"Windows 8";"Rachel's Experiment (D.T.)";"1.0";"2";"1";"1";"2";"1";"1";"2014-10-07 13:23:30.067";"2014-10-07 13:36:43.145";"1";"1";"1";"68";"67";"module.training_block2.exec-8862.GoNoGo2";;;;;;;;;;;;;;;;;;;;;;;;;;;;;;;;;;;"1250";"2014-10-07 13:27:54.415";"ST_correctStop";"8";"0";"FINISHED";"NONE";"success";"0";"1";"2014-10-07 13:27:53.164";"1";;;;;;;;;;;;;;;;;;;;;;;;;;;;;;;;;;;;;;;;;;;;;
"66917060";"08/03/1993";;"Windows 8";"Rachel's Experiment (D.T.)";"1.0";"2";"1";"1";"2";"1";"1";"2014-10-07 13:23:30.067";"2014-10-07 13:36:43.145";"1";"1";"1";"69";"68";"module.training_block2.exec-8862.GoNoGo2";;;;;;;;;;;;;;;;;;;;;;;;;;;;;;;;;;;"1249";"2014-10-07 13:27:56.956";"ST_correctStop";"7";"1";"FINISHED";"NONE";"success";"0";"1";"2014-10-07 13:27:55.706";"1";;;;;;;;;;;;;;;;;;;;;;;;;;;;;;;;;;;;;;;;;;;;;
"66917060";"08/03/1993";;"Windows 8";"Rachel's Experiment (D.T.)";"1.0";"2";"1";"1";"2";"1";"1";"2014-10-07 13:23:30.067";"2014-10-07 13:36:43.145";"1";"1";"1";"70";"69";"module.training_block2.exec-8862.GoNoGo2";;;;;;;;;;;;;;;;;;;;;;;;;;;;;;;;;;;"1249";"2014-10-07 13:27:59.496";"NST_correctLoc";"23";"1";"FINISHED";"RIGHT";"success";"433";"0";"2014-10-07 13:27:58.246";"3";;;;;;;;;;;;;;;;;;;;;;;;;;;;;;;;;;;;;;;;;;;;;
"66917060";"08/03/1993";;"Windows 8";"Rachel's Experiment (D.T.)";"1.0";"2";"1";"1";"2";"1";"1";"2014-10-07 13:23:30.067";"2014-10-07 13:36:43.145";"1";"1";"1";"71";"70";"module.training_block2.exec-8862.GoNoGo2";;;;;;;;;;;;;;;;;;;;;;;;;;;;;;;;;;;"1249";"2014-10-07 13:28:02.034";"NST_correctLoc";"13";"1";"FINISHED";"RIGHT";"success";"418";"0";"2014-10-07 13:28:00.784";"2";;;;;;;;;;;;;;;;;;;;;;;;;;;;;;;;;;;;;;;;;;;;;
"66917060";"08/03/1993";;"Windows 8";"Rachel's Experiment (D.T.)";"1.0";"2";"1";"1";"2";"1";"1";"2014-10-07 13:23:30.067";"2014-10-07 13:36:43.145";"1";"1";"1";"72";"71";"module.training_block2.exec-8862.GoNoGo2";;;;;;;;;;;;;;;;;;;;;;;;;;;;;;;;;;;"1249";"2014-10-07 13:28:04.573";"ST_correctStop";"35";"0";"FINISHED";"NONE";"success";"0";"1";"2014-10-07 13:28:03.323";"3";;;;;;;;;;;;;;;;;;;;;;;;;;;;;;;;;;;;;;;;;;;;;
"66917060";"08/03/1993";;"Windows 8";"Rachel's Experiment (D.T.)";"1.0";"2";"1";"1";"2";"1";"1";"2014-10-07 13:23:30.067";"2014-10-07 13:36:43.145";"1";"1";"1";"73";"72";"module.training_block2.exec-8862.GoNoGo2";;;;;;;;;;;;;;;;;;;;;;;;;;;;;;;;;;;"1249";"2014-10-07 13:28:07.105";"NST_correctLoc";"15";"1";"FINISHED";"RIGHT";"success";"464";"0";"2014-10-07 13:28:05.855";"2";;;;;;;;;;;;;;;;;;;;;;;;;;;;;;;;;;;;;;;;;;;;;
"66917060";"08/03/1993";;"Windows 8";"Rachel's Experiment (D.T.)";"1.0";"2";"1";"1";"2";"1";"1";"2014-10-07 13:23:30.067";"2014-10-07 13:36:43.145";"1";"1";"1";"74";"73";"module.training_block2.exec-8862.GoNoGo2";;;;;;;;;;;;;;;;;;;;;;;;;;;;;;;;;;;"1249";"2014-10-07 13:28:09.643";"ST_correctStop";"4";"0";"FINISHED";"NONE";"success";"0";"1";"2014-10-07 13:28:08.393";"1";;;;;;;;;;;;;;;;;;;;;;;;;;;;;;;;;;;;;;;;;;;;;
"66917060";"08/03/1993";;"Windows 8";"Rachel's Experiment (D.T.)";"1.0";"2";"1";"1";"2";"1";"1";"2014-10-07 13:23:30.067";"2014-10-07 13:36:43.145";"1";"1";"1";"75";"74";"module.training_block2.exec-8862.GoNoGo2";;;;;;;;;;;;;;;;;;;;;;;;;;;;;;;;;;;"1250";"2014-10-07 13:28:12.180";"ST_correctStop";"21";"1";"FINISHED";"NONE";"success";"0";"1";"2014-10-07 13:28:10.930";"3";;;;;;;;;;;;;;;;;;;;;;;;;;;;;;;;;;;;;;;;;;;;;
"66917060";"08/03/1993";;"Windows 8";"Rachel's Experiment (D.T.)";"1.0";"2";"1";"1";"2";"1";"1";"2014-10-07 13:23:30.067";"2014-10-07 13:36:43.145";"1";"1";"1";"76";"75";"module.training_block2.exec-8862.GoNoGo2";;;;;;;;;;;;;;;;;;;;;;;;;;;;;;;;;;;"1250";"2014-10-07 13:28:14.720";"NST_correctLoc";"22";"1";"FINISHED";"RIGHT";"success";"400";"0";"2014-10-07 13:28:13.470";"3";;;;;;;;;;;;;;;;;;;;;;;;;;;;;;;;;;;;;;;;;;;;;
"66917060";"08/03/1993";;"Windows 8";"Rachel's Experiment (D.T.)";"1.0";"2";"1";"1";"2";"1";"1";"2014-10-07 13:23:30.067";"2014-10-07 13:36:43.145";"1";"1";"1";"77";"76";"module.training_block2.exec-8862.GoNoGo2";;;;;;;;;;;;;;;;;;;;;;;;;;;;;;;;;;;"1250";"2014-10-07 13:28:17.307";"ST_correctStop";"34";"1";"FINISHED";"NONE";"success";"0";"1";"2014-10-07 13:28:16.057";"3";;;;;;;;;;;;;;;;;;;;;;;;;;;;;;;;;;;;;;;;;;;;;
"66917060";"08/03/1993";;"Windows 8";"Rachel's Experiment (D.T.)";"1.0";"2";"1";"1";"2";"1";"1";"2014-10-07 13:23:30.067";"2014-10-07 13:36:43.145";"1";"1";"1";"78";"77";"module.training_block2.exec-8862.GoNoGo2";;;;;;;;;;;;;;;;;;;;;;;;;;;;;;;;;;;"1249";"2014-10-07 13:28:19.843";"ST_correctStop";"2";"1";"FINISHED";"NONE";"success";"0";"1";"2014-10-07 13:28:18.593";"1";;;;;;;;;;;;;;;;;;;;;;;;;;;;;;;;;;;;;;;;;;;;;
"66917060";"08/03/1993";;"Windows 8";"Rachel's Experiment (D.T.)";"1.0";"2";"1";"1";"2";"1";"1";"2014-10-07 13:23:30.067";"2014-10-07 13:36:43.145";"1";"1";"1";"79";"78";"module.training_block2.exec-8862.GoNoGo2";;;;;;;;;;;;;;;;;;;;;;;;;;;;;;;;;;;"1249";"2014-10-07 13:28:22.374";"ST_correctStop";"18";"1";"FINISHED";"NONE";"success";"0";"1";"2014-10-07 13:28:21.124";"3";;;;;;;;;;;;;;;;;;;;;;;;;;;;;;;;;;;;;;;;;;;;;
"66917060";"08/03/1993";;"Windows 8";"Rachel's Experiment (D.T.)";"1.0";"2";"1";"1";"2";"1";"1";"2014-10-07 13:23:30.067";"2014-10-07 13:36:43.145";"1";"1";"1";"80";"79";"module.training_block2.exec-8862.GoNoGo2";;;;;;;;;;;;;;;;;;;;;;;;;;;;;;;;;;;"1250";"2014-10-07 13:28:24.912";"ST_correctStop";"1";"0";"FINISHED";"NONE";"success";"0";"1";"2014-10-07 13:28:23.661";"1";;;;;;;;;;;;;;;;;;;;;;;;;;;;;;;;;;;;;;;;;;;;;
"66917060";"08/03/1993";;"Windows 8";"Rachel's Experiment (D.T.)";"1.0";"2";"1";"1";"2";"1";"1";"2014-10-07 13:23:30.067";"2014-10-07 13:36:43.145";"1";"1";"1";"81";"80";"module.training_block2.exec-8862.GoNoGo2";;;;;;;;;;;;;;;;;;;;;;;;;;;;;;;;;;;"1250";"2014-10-07 13:28:27.440";"NST_correctLoc";"31";"0";"FINISHED";"LEFT";"success";"479";"0";"2014-10-07 13:28:26.190";"3";;;;;;;;;;;;;;;;;;;;;;;;;;;;;;;;;;;;;;;;;;;;;
"66917060";"08/03/1993";;"Windows 8";"Rachel's Experiment (D.T.)";"1.0";"2";"1";"1";"2";"1";"1";"2014-10-07 13:23:30.067";"2014-10-07 13:36:43.145";"1";"1";"1";"82";"81";"module.training_block2.exec-8862.GoNoGo2";;;;;;;;;;;;;;;;;;;;;;;;;;;;;;;;;;;"1249";"2014-10-07 13:28:29.975";"ST_correctStop";"19";"1";"FINISHED";"NONE";"success";"0";"1";"2014-10-07 13:28:28.725";"3";;;;;;;;;;;;;;;;;;;;;;;;;;;;;;;;;;;;;;;;;;;;;
"66917060";"08/03/1993";;"Windows 8";"Rachel's Experiment (D.T.)";"1.0";"2";"1";"1";"2";"1";"1";"2014-10-07 13:23:30.067";"2014-10-07 13:36:43.145";"1";"1";"1";"83";"82";"module.training_block2.exec-8862.GoNoGo2";;;;;;;;;;;;;;;;;;;;;;;;;;;;;;;;;;;"1250";"2014-10-07 13:28:32.510";"ST_correctStop";"6";"0";"FINISHED";"NONE";"success";"0";"1";"2014-10-07 13:28:31.259";"1";;;;;;;;;;;;;;;;;;;;;;;;;;;;;;;;;;;;;;;;;;;;;
"66917060";"08/03/1993";;"Windows 8";"Rachel's Experiment (D.T.)";"1.0";"2";"1";"1";"2";"1";"1";"2014-10-07 13:23:30.067";"2014-10-07 13:36:43.145";"1";"1";"1";"84";"83";"module.training_block2.exec-8862.GoNoGo2";;;;;;;;;;;;;;;;;;;;;;;;;;;;;;;;;;;"1250";"2014-10-07 13:28:35.051";"ST_correctStop";"24";"0";"FINISHED";"NONE";"success";"0";"1";"2014-10-07 13:28:33.801";"3";;;;;;;;;;;;;;;;;;;;;;;;;;;;;;;;;;;;;;;;;;;;;
"66917060";"08/03/1993";;"Windows 8";"Rachel's Experiment (D.T.)";"1.0";"2";"1";"1";"2";"1";"1";"2014-10-07 13:23:30.067";"2014-10-07 13:36:43.145";"1";"1";"1";"85";"84";"module.training_block2.exec-8862.GoNoGo2";;;;;;;;;;;;;;;;;;;;;;;;;;;;;;;;;;;"1250";"2014-10-07 13:28:37.581";"NST_correctLoc";"10";"1";"FINISHED";"RIGHT";"success";"530";"0";"2014-10-07 13:28:36.331";"2";;;;;;;;;;;;;;;;;;;;;;;;;;;;;;;;;;;;;;;;;;;;;
"66917060";"08/03/1993";;"Windows 8";"Rachel's Experiment (D.T.)";"1.0";"2";"1";"1";"2";"1";"1";"2014-10-07 13:23:30.067";"2014-10-07 13:36:43.145";"1";"1";"1";"86";"85";"module.training_block2.exec-8862.GoNoGo2";;;;;;;;;;;;;;;;;;;;;;;;;;;;;;;;;;;"1249";"2014-10-07 13:28:40.115";"NST_correctLoc";"30";"1";"FINISHED";"RIGHT";"success";"558";"0";"2014-10-07 13:28:38.865";"3";;;;;;;;;;;;;;;;;;;;;;;;;;;;;;;;;;;;;;;;;;;;;
"66917060";"08/03/1993";;"Windows 8";"Rachel's Experiment (D.T.)";"1.0";"2";"1";"1";"2";"1";"1";"2014-10-07 13:23:30.067";"2014-10-07 13:36:43.145";"1";"1";"1";"87";"86";"module.training_block2.exec-8862.GoNoGo2";;;;;;;;;;;;;;;;;;;;;;;;;;;;;;;;;;;"1249";"2014-10-07 13:28:42.650";"NST_correctLoc";"29";"1";"FINISHED";"RIGHT";"success";"576";"0";"2014-10-07 13:28:41.400";"3";;;;;;;;;;;;;;;;;;;;;;;;;;;;;;;;;;;;;;;;;;;;;
"66917060";"08/03/1993";;"Windows 8";"Rachel's Experiment (D.T.)";"1.0";"2";"1";"1";"2";"1";"1";"2014-10-07 13:23:30.067";"2014-10-07 13:36:43.145";"1";"1";"1";"88";"87";"module.training_block3.exec-2151.GoNoGo3";;;;;;;;;;;;;;;;;;;;;;;;;;;;;;;;;;;;;;;;;;;;;;;"1250";"2014-10-07 13:28:53.657";"NST_correctLoc";"28";"1";"FINISHED";"RIGHT";"success";"384";"0";"2014-10-07 13:28:52.407";"3";;;;;;;;;;;;;;;;;;;;;;;;;;;;;;;;;
"66917060";"08/03/1993";;"Windows 8";"Rachel's Experiment (D.T.)";"1.0";"2";"1";"1";"2";"1";"1";"2014-10-07 13:23:30.067";"2014-10-07 13:36:43.145";"1";"1";"1";"89";"88";"module.training_block3.exec-2151.GoNoGo3";;;;;;;;;;;;;;;;;;;;;;;;;;;;;;;;;;;;;;;;;;;;;;;"1250";"2014-10-07 13:28:56.192";"ST_correctStop";"2";"1";"FINISHED";"NONE";"success";"0";"1";"2014-10-07 13:28:54.941";"1";;;;;;;;;;;;;;;;;;;;;;;;;;;;;;;;;
"66917060";"08/03/1993";;"Windows 8";"Rachel's Experiment (D.T.)";"1.0";"2";"1";"1";"2";"1";"1";"2014-10-07 13:23:30.067";"2014-10-07 13:36:43.145";"1";"1";"1";"90";"89";"module.training_block3.exec-2151.GoNoGo3";;;;;;;;;;;;;;;;;;;;;;;;;;;;;;;;;;;;;;;;;;;;;;;"1249";"2014-10-07 13:28:58.726";"NST_correctLoc";"11";"0";"FINISHED";"LEFT";"success";"460";"0";"2014-10-07 13:28:57.476";"2";;;;;;;;;;;;;;;;;;;;;;;;;;;;;;;;;
"66917060";"08/03/1993";;"Windows 8";"Rachel's Experiment (D.T.)";"1.0";"2";"1";"1";"2";"1";"1";"2014-10-07 13:23:30.067";"2014-10-07 13:36:43.145";"1";"1";"1";"91";"90";"module.training_block3.exec-2151.GoNoGo3";;;;;;;;;;;;;;;;;;;;;;;;;;;;;;;;;;;;;;;;;;;;;;;"1250";"2014-10-07 13:29:01.253";"ST_correctStop";"32";"1";"FINISHED";"NONE";"success";"0";"1";"2014-10-07 13:29:00.003";"3";;;;;;;;;;;;;;;;;;;;;;;;;;;;;;;;;
"66917060";"08/03/1993";;"Windows 8";"Rachel's Experiment (D.T.)";"1.0";"2";"1";"1";"2";"1";"1";"2014-10-07 13:23:30.067";"2014-10-07 13:36:43.145";"1";"1";"1";"92";"91";"module.training_block3.exec-2151.GoNoGo3";;;;;;;;;;;;;;;;;;;;;;;;;;;;;;;;;;;;;;;;;;;;;;;"1250";"2014-10-07 13:29:03.786";"ST_correctStop";"20";"0";"FINISHED";"NONE";"success";"0";"1";"2014-10-07 13:29:02.535";"3";;;;;;;;;;;;;;;;;;;;;;;;;;;;;;;;;
"66917060";"08/03/1993";;"Windows 8";"Rachel's Experiment (D.T.)";"1.0";"2";"1";"1";"2";"1";"1";"2014-10-07 13:23:30.067";"2014-10-07 13:36:43.145";"1";"1";"1";"93";"92";"module.training_block3.exec-2151.GoNoGo3";;;;;;;;;;;;;;;;;;;;;;;;;;;;;;;;;;;;;;;;;;;;;;;"1249";"2014-10-07 13:29:06.318";"ST_correctStop";"0";"1";"FINISHED";"NONE";"success";"0";"1";"2014-10-07 13:29:05.068";"1";;;;;;;;;;;;;;;;;;;;;;;;;;;;;;;;;
"66917060";"08/03/1993";;"Windows 8";"Rachel's Experiment (D.T.)";"1.0";"2";"1";"1";"2";"1";"1";"2014-10-07 13:23:30.067";"2014-10-07 13:36:43.145";"1";"1";"1";"94";"93";"module.training_block3.exec-2151.GoNoGo3";;;;;;;;;;;;;;;;;;;;;;;;;;;;;;;;;;;;;;;;;;;;;;;"1249";"2014-10-07 13:29:08.851";"NST_correctLoc";"30";"1";"FINISHED";"RIGHT";"success";"390";"0";"2014-10-07 13:29:07.601";"3";;;;;;;;;;;;;;;;;;;;;;;;;;;;;;;;;
"66917060";"08/03/1993";;"Windows 8";"Rachel's Experiment (D.T.)";"1.0";"2";"1";"1";"2";"1";"1";"2014-10-07 13:23:30.067";"2014-10-07 13:36:43.145";"1";"1";"1";"95";"94";"module.training_block3.exec-2151.GoNoGo3";;;;;;;;;;;;;;;;;;;;;;;;;;;;;;;;;;;;;;;;;;;;;;;"1250";"2014-10-07 13:29:11.384";"ST_correctStop";"4";"0";"FINISHED";"NONE";"success";"0";"1";"2014-10-07 13:29:10.134";"1";;;;;;;;;;;;;;;;;;;;;;;;;;;;;;;;;
"66917060";"08/03/1993";;"Windows 8";"Rachel's Experiment (D.T.)";"1.0";"2";"1";"1";"2";"1";"1";"2014-10-07 13:23:30.067";"2014-10-07 13:36:43.145";"1";"1";"1";"96";"95";"module.training_block3.exec-2151.GoNoGo3";;;;;;;;;;;;;;;;;;;;;;;;;;;;;;;;;;;;;;;;;;;;;;;"1249";"2014-10-07 13:29:13.918";"NST_correctLoc";"12";"1";"FINISHED";"RIGHT";"success";"414";"0";"2014-10-07 13:29:12.668";"2";;;;;;;;;;;;;;;;;;;;;;;;;;;;;;;;;
"66917060";"08/03/1993";;"Windows 8";"Rachel's Experiment (D.T.)";"1.0";"2";"1";"1";"2";"1";"1";"2014-10-07 13:23:30.067";"2014-10-07 13:36:43.145";"1";"1";"1";"97";"96";"module.training_block3.exec-2151.GoNoGo3";;;;;;;;;;;;;;;;;;;;;;;;;;;;;;;;;;;;;;;;;;;;;;;"1250";"2014-10-07 13:29:16.453";"NST_correctLoc";"35";"1";"FINISHED";"RIGHT";"success";"473";"0";"2014-10-07 13:29:15.203";"3";;;;;;;;;;;;;;;;;;;;;;;;;;;;;;;;;
"66917060";"08/03/1993";;"Windows 8";"Rachel's Experiment (D.T.)";"1.0";"2";"1";"1";"2";"1";"1";"2014-10-07 13:23:30.067";"2014-10-07 13:36:43.145";"1";"1";"1";"98";"97";"module.training_block3.exec-2151.GoNoGo3";;;;;;;;;;;;;;;;;;;;;;;;;;;;;;;;;;;;;;;;;;;;;;;"1250";"2014-10-07 13:29:18.980";"NST_correctLoc";"26";"0";"FINISHED";"LEFT";"success";"411";"0";"2014-10-07 13:29:17.730";"3";;;;;;;;;;;;;;;;;;;;;;;;;;;;;;;;;
"66917060";"08/03/1993";;"Windows 8";"Rachel's Experiment (D.T.)";"1.0";"2";"1";"1";"2";"1";"1";"2014-10-07 13:23:30.067";"2014-10-07 13:36:43.145";"1";"1";"1";"99";"98";"module.training_block3.exec-2151.GoNoGo3";;;;;;;;;;;;;;;;;;;;;;;;;;;;;;;;;;;;;;;;;;;;;;;"1249";"2014-10-07 13:29:21.514";"NST_correctLoc";"29";"0";"FINISHED";"LEFT";"success";"417";"0";"2014-10-07 13:29:20.264";"3";;;;;;;;;;;;;;;;;;;;;;;;;;;;;;;;;
"66917060";"08/03/1993";;"Windows 8";"Rachel's Experiment (D.T.)";"1.0";"2";"1";"1";"2";"1";"1";"2014-10-07 13:23:30.067";"2014-10-07 13:36:43.145";"1";"1";"1";"100";"99";"module.training_block3.exec-2151.GoNoGo3";;;;;;;;;;;;;;;;;;;;;;;;;;;;;;;;;;;;;;;;;;;;;;;"1250";"2014-10-07 13:29:24.056";"NST_correctLoc";"21";"0";"FINISHED";"LEFT";"success";"396";"0";"2014-10-07 13:29:22.806";"3";;;;;;;;;;;;;;;;;;;;;;;;;;;;;;;;;
"66917060";"08/03/1993";;"Windows 8";"Rachel's Experiment (D.T.)";"1.0";"2";"1";"1";"2";"1";"1";"2014-10-07 13:23:30.067";"2014-10-07 13:36:43.145";"1";"1";"1";"101";"100";"module.training_block3.exec-2151.GoNoGo3";;;;;;;;;;;;;;;;;;;;;;;;;;;;;;;;;;;;;;;;;;;;;;;"1250";"2014-10-07 13:29:26.590";"ST_correctStop";"18";"0";"FINISHED";"NONE";"success";"0";"1";"2014-10-07 13:29:25.340";"3";;;;;;;;;;;;;;;;;;;;;;;;;;;;;;;;;
"66917060";"08/03/1993";;"Windows 8";"Rachel's Experiment (D.T.)";"1.0";"2";"1";"1";"2";"1";"1";"2014-10-07 13:23:30.067";"2014-10-07 13:36:43.145";"1";"1";"1";"102";"101";"module.training_block3.exec-2151.GoNoGo3";;;;;;;;;;;;;;;;;;;;;;;;;;;;;;;;;;;;;;;;;;;;;;;"1249";"2014-10-07 13:29:29.125";"NST_correctLoc";"9";"1";"FINISHED";"RIGHT";"success";"380";"0";"2014-10-07 13:29:27.874";"2";;;;;;;;;;;;;;;;;;;;;;;;;;;;;;;;;
"66917060";"08/03/1993";;"Windows 8";"Rachel's Experiment (D.T.)";"1.0";"2";"1";"1";"2";"1";"1";"2014-10-07 13:23:30.067";"2014-10-07 13:36:43.145";"1";"1";"1";"103";"102";"module.training_block3.exec-2151.GoNoGo3";;;;;;;;;;;;;;;;;;;;;;;;;;;;;;;;;;;;;;;;;;;;;;;"1249";"2014-10-07 13:29:31.658";"ST_correctStop";"22";"0";"FINISHED";"NONE";"success";"0";"1";"2014-10-07 13:29:30.408";"3";;;;;;;;;;;;;;;;;;;;;;;;;;;;;;;;;
"66917060";"08/03/1993";;"Windows 8";"Rachel's Experiment (D.T.)";"1.0";"2";"1";"1";"2";"1";"1";"2014-10-07 13:23:30.067";"2014-10-07 13:36:43.145";"1";"1";"1";"104";"103";"module.training_block3.exec-2151.GoNoGo3";;;;;;;;;;;;;;;;;;;;;;;;;;;;;;;;;;;;;;;;;;;;;;;"1250";"2014-10-07 13:29:34.191";"ST_correctStop";"3";"1";"FINISHED";"NONE";"success";"0";"1";"2014-10-07 13:29:32.940";"1";;;;;;;;;;;;;;;;;;;;;;;;;;;;;;;;;
"66917060";"08/03/1993";;"Windows 8";"Rachel's Experiment (D.T.)";"1.0";"2";"1";"1";"2";"1";"1";"2014-10-07 13:23:30.067";"2014-10-07 13:36:43.145";"1";"1";"1";"105";"104";"module.training_block3.exec-2151.GoNoGo3";;;;;;;;;;;;;;;;;;;;;;;;;;;;;;;;;;;;;;;;;;;;;;;"1249";"2014-10-07 13:29:36.724";"ST_correctStop";"7";"0";"FINISHED";"NONE";"success";"0";"1";"2014-10-07 13:29:35.474";"1";;;;;;;;;;;;;;;;;;;;;;;;;;;;;;;;;
"66917060";"08/03/1993";;"Windows 8";"Rachel's Experiment (D.T.)";"1.0";"2";"1";"1";"2";"1";"1";"2014-10-07 13:23:30.067";"2014-10-07 13:36:43.145";"1";"1";"1";"106";"105";"module.training_block3.exec-2151.GoNoGo3";;;;;;;;;;;;;;;;;;;;;;;;;;;;;;;;;;;;;;;;;;;;;;;"1250";"2014-10-07 13:29:39.259";"NST_correctLoc";"14";"1";"FINISHED";"RIGHT";"success";"423";"0";"2014-10-07 13:29:38.008";"2";;;;;;;;;;;;;;;;;;;;;;;;;;;;;;;;;
"66917060";"08/03/1993";;"Windows 8";"Rachel's Experiment (D.T.)";"1.0";"2";"1";"1";"2";"1";"1";"2014-10-07 13:23:30.067";"2014-10-07 13:36:43.145";"1";"1";"1";"107";"106";"module.training_block3.exec-2151.GoNoGo3";;;;;;;;;;;;;;;;;;;;;;;;;;;;;;;;;;;;;;;;;;;;;;;"1249";"2014-10-07 13:29:41.792";"ST_correctStop";"5";"0";"FINISHED";"NONE";"success";"0";"1";"2014-10-07 13:29:40.542";"1";;;;;;;;;;;;;;;;;;;;;;;;;;;;;;;;;
"66917060";"08/03/1993";;"Windows 8";"Rachel's Experiment (D.T.)";"1.0";"2";"1";"1";"2";"1";"1";"2014-10-07 13:23:30.067";"2014-10-07 13:36:43.145";"1";"1";"1";"108";"107";"module.training_block3.exec-2151.GoNoGo3";;;;;;;;;;;;;;;;;;;;;;;;;;;;;;;;;;;;;;;;;;;;;;;"1249";"2014-10-07 13:29:44.325";"NST_correctLoc";"15";"0";"FINISHED";"LEFT";"success";"491";"0";"2014-10-07 13:29:43.074";"2";;;;;;;;;;;;;;;;;;;;;;;;;;;;;;;;;
"66917060";"08/03/1993";;"Windows 8";"Rachel's Experiment (D.T.)";"1.0";"2";"1";"1";"2";"1";"1";"2014-10-07 13:23:30.067";"2014-10-07 13:36:43.145";"1";"1";"1";"109";"108";"module.training_block3.exec-2151.GoNoGo3";;;;;;;;;;;;;;;;;;;;;;;;;;;;;;;;;;;;;;;;;;;;;;;"1250";"2014-10-07 13:29:46.855";"ST_correctStop";"8";"0";"FINISHED";"NONE";"success";"0";"1";"2014-10-07 13:29:45.604";"1";;;;;;;;;;;;;;;;;;;;;;;;;;;;;;;;;
"66917060";"08/03/1993";;"Windows 8";"Rachel's Experiment (D.T.)";"1.0";"2";"1";"1";"2";"1";"1";"2014-10-07 13:23:30.067";"2014-10-07 13:36:43.145";"1";"1";"1";"110";"109";"module.training_block3.exec-2151.GoNoGo3";;;;;;;;;;;;;;;;;;;;;;;;;;;;;;;;;;;;;;;;;;;;;;;"1249";"2014-10-07 13:29:49.389";"ST_correctStop";"1";"1";"FINISHED";"NONE";"success";"0";"1";"2014-10-07 13:29:48.139";"1";;;;;;;;;;;;;;;;;;;;;;;;;;;;;;;;;
"66917060";"08/03/1993";;"Windows 8";"Rachel's Experiment (D.T.)";"1.0";"2";"1";"1";"2";"1";"1";"2014-10-07 13:23:30.067";"2014-10-07 13:36:43.145";"1";"1";"1";"111";"110";"module.training_block3.exec-2151.GoNoGo3";;;;;;;;;;;;;;;;;;;;;;;;;;;;;;;;;;;;;;;;;;;;;;;"1249";"2014-10-07 13:29:51.923";"ST_correctStop";"27";"0";"FINISHED";"NONE";"success";"0";"1";"2014-10-07 13:29:50.673";"3";;;;;;;;;;;;;;;;;;;;;;;;;;;;;;;;;
"66917060";"08/03/1993";;"Windows 8";"Rachel's Experiment (D.T.)";"1.0";"2";"1";"1";"2";"1";"1";"2014-10-07 13:23:30.067";"2014-10-07 13:36:43.145";"1";"1";"1";"112";"111";"module.training_block3.exec-2151.GoNoGo3";;;;;;;;;;;;;;;;;;;;;;;;;;;;;;;;;;;;;;;;;;;;;;;"1250";"2014-10-07 13:29:54.459";"ST_correctStop";"6";"0";"FINISHED";"NONE";"success";"0";"1";"2014-10-07 13:29:53.208";"1";;;;;;;;;;;;;;;;;;;;;;;;;;;;;;;;;
"66917060";"08/03/1993";;"Windows 8";"Rachel's Experiment (D.T.)";"1.0";"2";"1";"1";"2";"1";"1";"2014-10-07 13:23:30.067";"2014-10-07 13:36:43.145";"1";"1";"1";"113";"112";"module.training_block3.exec-2151.GoNoGo3";;;;;;;;;;;;;;;;;;;;;;;;;;;;;;;;;;;;;;;;;;;;;;;"1250";"2014-10-07 13:29:56.994";"NST_correctLoc";"17";"1";"FINISHED";"RIGHT";"success";"383";"0";"2014-10-07 13:29:55.743";"2";;;;;;;;;;;;;;;;;;;;;;;;;;;;;;;;;
"66917060";"08/03/1993";;"Windows 8";"Rachel's Experiment (D.T.)";"1.0";"2";"1";"1";"2";"1";"1";"2014-10-07 13:23:30.067";"2014-10-07 13:36:43.145";"1";"1";"1";"114";"113";"module.training_block3.exec-2151.GoNoGo3";;;;;;;;;;;;;;;;;;;;;;;;;;;;;;;;;;;;;;;;;;;;;;;"1249";"2014-10-07 13:29:59.526";"NST_correctLoc";"23";"0";"FINISHED";"LEFT";"success";"455";"0";"2014-10-07 13:29:58.276";"3";;;;;;;;;;;;;;;;;;;;;;;;;;;;;;;;;
"66917060";"08/03/1993";;"Windows 8";"Rachel's Experiment (D.T.)";"1.0";"2";"1";"1";"2";"1";"1";"2014-10-07 13:23:30.067";"2014-10-07 13:36:43.145";"1";"1";"1";"115";"114";"module.training_block3.exec-2151.GoNoGo3";;;;;;;;;;;;;;;;;;;;;;;;;;;;;;;;;;;;;;;;;;;;;;;"1250";"2014-10-07 13:30:02.057";"NST_correctLoc";"24";"1";"FINISHED";"RIGHT";"success";"425";"0";"2014-10-07 13:30:00.807";"3";;;;;;;;;;;;;;;;;;;;;;;;;;;;;;;;;
"66917060";"08/03/1993";;"Windows 8";"Rachel's Experiment (D.T.)";"1.0";"2";"1";"1";"2";"1";"1";"2014-10-07 13:23:30.067";"2014-10-07 13:36:43.145";"1";"1";"1";"116";"115";"module.training_block3.exec-2151.GoNoGo3";;;;;;;;;;;;;;;;;;;;;;;;;;;;;;;;;;;;;;;;;;;;;;;"1249";"2014-10-07 13:30:04.590";"ST_correctStop";"33";"0";"FINISHED";"NONE";"success";"0";"1";"2014-10-07 13:30:03.340";"3";;;;;;;;;;;;;;;;;;;;;;;;;;;;;;;;;
"66917060";"08/03/1993";;"Windows 8";"Rachel's Experiment (D.T.)";"1.0";"2";"1";"1";"2";"1";"1";"2014-10-07 13:23:30.067";"2014-10-07 13:36:43.145";"1";"1";"1";"117";"116";"module.training_block3.exec-2151.GoNoGo3";;;;;;;;;;;;;;;;;;;;;;;;;;;;;;;;;;;;;;;;;;;;;;;"1250";"2014-10-07 13:30:07.131";"NST_correctLoc";"16";"0";"FINISHED";"LEFT";"success";"404";"0";"2014-10-07 13:30:05.880";"2";;;;;;;;;;;;;;;;;;;;;;;;;;;;;;;;;
"66917060";"08/03/1993";;"Windows 8";"Rachel's Experiment (D.T.)";"1.0";"2";"1";"1";"2";"1";"1";"2014-10-07 13:23:30.067";"2014-10-07 13:36:43.145";"1";"1";"1";"118";"117";"module.training_block3.exec-2151.GoNoGo3";;;;;;;;;;;;;;;;;;;;;;;;;;;;;;;;;;;;;;;;;;;;;;;"1249";"2014-10-07 13:30:09.666";"NST_correctLoc";"10";"0";"FINISHED";"LEFT";"success";"469";"0";"2014-10-07 13:30:08.416";"2";;;;;;;;;;;;;;;;;;;;;;;;;;;;;;;;;
"66917060";"08/03/1993";;"Windows 8";"Rachel's Experiment (D.T.)";"1.0";"2";"1";"1";"2";"1";"1";"2014-10-07 13:23:30.067";"2014-10-07 13:36:43.145";"1";"1";"1";"119";"118";"module.training_block3.exec-2151.GoNoGo3";;;;;;;;;;;;;;;;;;;;;;;;;;;;;;;;;;;;;;;;;;;;;;;"1250";"2014-10-07 13:30:12.199";"NST_correctLoc";"25";"0";"FINISHED";"LEFT";"success";"466";"0";"2014-10-07 13:30:10.948";"3";;;;;;;;;;;;;;;;;;;;;;;;;;;;;;;;;
"66917060";"08/03/1993";;"Windows 8";"Rachel's Experiment (D.T.)";"1.0";"2";"1";"1";"2";"1";"1";"2014-10-07 13:23:30.067";"2014-10-07 13:36:43.145";"1";"1";"1";"120";"119";"module.training_block3.exec-2151.GoNoGo3";;;;;;;;;;;;;;;;;;;;;;;;;;;;;;;;;;;;;;;;;;;;;;;"1250";"2014-10-07 13:30:14.734";"NST_correctLoc";"13";"0";"FINISHED";"LEFT";"success";"435";"0";"2014-10-07 13:30:13.483";"2";;;;;;;;;;;;;;;;;;;;;;;;;;;;;;;;;
"66917060";"08/03/1993";;"Windows 8";"Rachel's Experiment (D.T.)";"1.0";"2";"1";"1";"2";"1";"1";"2014-10-07 13:23:30.067";"2014-10-07 13:36:43.145";"1";"1";"1";"121";"120";"module.training_block3.exec-2151.GoNoGo3";;;;;;;;;;;;;;;;;;;;;;;;;;;;;;;;;;;;;;;;;;;;;;;"1249";"2014-10-07 13:30:17.266";"ST_correctStop";"31";"0";"FINISHED";"NONE";"success";"0";"1";"2014-10-07 13:30:16.016";"3";;;;;;;;;;;;;;;;;;;;;;;;;;;;;;;;;
"66917060";"08/03/1993";;"Windows 8";"Rachel's Experiment (D.T.)";"1.0";"2";"1";"1";"2";"1";"1";"2014-10-07 13:23:30.067";"2014-10-07 13:36:43.145";"1";"1";"1";"122";"121";"module.training_block3.exec-2151.GoNoGo3";;;;;;;;;;;;;;;;;;;;;;;;;;;;;;;;;;;;;;;;;;;;;;;"1250";"2014-10-07 13:30:19.798";"ST_correctStop";"34";"1";"FINISHED";"NONE";"success";"0";"1";"2014-10-07 13:30:18.547";"3";;;;;;;;;;;;;;;;;;;;;;;;;;;;;;;;;
"66917060";"08/03/1993";;"Windows 8";"Rachel's Experiment (D.T.)";"1.0";"2";"1";"1";"2";"1";"1";"2014-10-07 13:23:30.067";"2014-10-07 13:36:43.145";"1";"1";"1";"123";"122";"module.training_block3.exec-2151.GoNoGo3";;;;;;;;;;;;;;;;;;;;;;;;;;;;;;;;;;;;;;;;;;;;;;;"1250";"2014-10-07 13:30:22.330";"ST_correctStop";"19";"0";"FINISHED";"NONE";"success";"0";"1";"2014-10-07 13:30:21.079";"3";;;;;;;;;;;;;;;;;;;;;;;;;;;;;;;;;
"66917060";"08/03/1993";;"Windows 8";"Rachel's Experiment (D.T.)";"1.0";"2";"1";"1";"2";"1";"1";"2014-10-07 13:23:30.067";"2014-10-07 13:36:43.145";"1";"1";"1";"124";"123";"module.training_block4.exec-8238.GoNoGo4";;;;;;;;;;;;;;;;;;;;;;;;;;;;;;;;;;;;;;;;;;;;;;;;;;;;;;;;;;;"1250";"2014-10-07 13:30:32.800";"NST_correctLoc";"11";"1";"FINISHED";"RIGHT";"success";"412";"0";"2014-10-07 13:30:31.550";"2";;;;;;;;;;;;;;;;;;;;;
"66917060";"08/03/1993";;"Windows 8";"Rachel's Experiment (D.T.)";"1.0";"2";"1";"1";"2";"1";"1";"2014-10-07 13:23:30.067";"2014-10-07 13:36:43.145";"1";"1";"1";"125";"124";"module.training_block4.exec-8238.GoNoGo4";;;;;;;;;;;;;;;;;;;;;;;;;;;;;;;;;;;;;;;;;;;;;;;;;;;;;;;;;;;"1250";"2014-10-07 13:30:35.333";"ST_correctStop";"0";"0";"FINISHED";"NONE";"success";"0";"1";"2014-10-07 13:30:34.082";"1";;;;;;;;;;;;;;;;;;;;;
"66917060";"08/03/1993";;"Windows 8";"Rachel's Experiment (D.T.)";"1.0";"2";"1";"1";"2";"1";"1";"2014-10-07 13:23:30.067";"2014-10-07 13:36:43.145";"1";"1";"1";"126";"125";"module.training_block4.exec-8238.GoNoGo4";;;;;;;;;;;;;;;;;;;;;;;;;;;;;;;;;;;;;;;;;;;;;;;;;;;;;;;;;;;"1249";"2014-10-07 13:30:37.865";"NST_correctLoc";"20";"0";"FINISHED";"LEFT";"success";"406";"0";"2014-10-07 13:30:36.615";"3";;;;;;;;;;;;;;;;;;;;;
"66917060";"08/03/1993";;"Windows 8";"Rachel's Experiment (D.T.)";"1.0";"2";"1";"1";"2";"1";"1";"2014-10-07 13:23:30.067";"2014-10-07 13:36:43.145";"1";"1";"1";"127";"126";"module.training_block4.exec-8238.GoNoGo4";;;;;;;;;;;;;;;;;;;;;;;;;;;;;;;;;;;;;;;;;;;;;;;;;;;;;;;;;;;"1250";"2014-10-07 13:30:40.396";"NST_correctLoc";"34";"1";"FINISHED";"RIGHT";"success";"485";"0";"2014-10-07 13:30:39.145";"3";;;;;;;;;;;;;;;;;;;;;
"66917060";"08/03/1993";;"Windows 8";"Rachel's Experiment (D.T.)";"1.0";"2";"1";"1";"2";"1";"1";"2014-10-07 13:23:30.067";"2014-10-07 13:36:43.145";"1";"1";"1";"128";"127";"module.training_block4.exec-8238.GoNoGo4";;;;;;;;;;;;;;;;;;;;;;;;;;;;;;;;;;;;;;;;;;;;;;;;;;;;;;;;;;;"1250";"2014-10-07 13:30:42.929";"ST_correctStop";"4";"0";"FINISHED";"NONE";"success";"0";"1";"2014-10-07 13:30:41.678";"1";;;;;;;;;;;;;;;;;;;;;
"66917060";"08/03/1993";;"Windows 8";"Rachel's Experiment (D.T.)";"1.0";"2";"1";"1";"2";"1";"1";"2014-10-07 13:23:30.067";"2014-10-07 13:36:43.145";"1";"1";"1";"129";"128";"module.training_block4.exec-8238.GoNoGo4";;;;;;;;;;;;;;;;;;;;;;;;;;;;;;;;;;;;;;;;;;;;;;;;;;;;;;;;;;;"1249";"2014-10-07 13:30:45.461";"ST_correctStop";"7";"0";"FINISHED";"NONE";"success";"0";"1";"2014-10-07 13:30:44.211";"1";;;;;;;;;;;;;;;;;;;;;
"66917060";"08/03/1993";;"Windows 8";"Rachel's Experiment (D.T.)";"1.0";"2";"1";"1";"2";"1";"1";"2014-10-07 13:23:30.067";"2014-10-07 13:36:43.145";"1";"1";"1";"130";"129";"module.training_block4.exec-8238.GoNoGo4";;;;;;;;;;;;;;;;;;;;;;;;;;;;;;;;;;;;;;;;;;;;;;;;;;;;;;;;;;;"1250";"2014-10-07 13:30:47.993";"ST_correctStop";"32";"0";"FINISHED";"NONE";"success";"0";"1";"2014-10-07 13:30:46.743";"3";;;;;;;;;;;;;;;;;;;;;
"66917060";"08/03/1993";;"Windows 8";"Rachel's Experiment (D.T.)";"1.0";"2";"1";"1";"2";"1";"1";"2014-10-07 13:23:30.067";"2014-10-07 13:36:43.145";"1";"1";"1";"131";"130";"module.training_block4.exec-8238.GoNoGo4";;;;;;;;;;;;;;;;;;;;;;;;;;;;;;;;;;;;;;;;;;;;;;;;;;;;;;;;;;;"1249";"2014-10-07 13:30:50.525";"ST_correctStop";"33";"1";"FINISHED";"NONE";"success";"0";"1";"2014-10-07 13:30:49.275";"3";;;;;;;;;;;;;;;;;;;;;
"66917060";"08/03/1993";;"Windows 8";"Rachel's Experiment (D.T.)";"1.0";"2";"1";"1";"2";"1";"1";"2014-10-07 13:23:30.067";"2014-10-07 13:36:43.145";"1";"1";"1";"132";"131";"module.training_block4.exec-8238.GoNoGo4";;;;;;;;;;;;;;;;;;;;;;;;;;;;;;;;;;;;;;;;;;;;;;;;;;;;;;;;;;;"1250";"2014-10-07 13:30:53.059";"ST_correctStop";"18";"0";"FINISHED";"NONE";"success";"0";"1";"2014-10-07 13:30:51.809";"3";;;;;;;;;;;;;;;;;;;;;
"66917060";"08/03/1993";;"Windows 8";"Rachel's Experiment (D.T.)";"1.0";"2";"1";"1";"2";"1";"1";"2014-10-07 13:23:30.067";"2014-10-07 13:36:43.145";"1";"1";"1";"133";"132";"module.training_block4.exec-8238.GoNoGo4";;;;;;;;;;;;;;;;;;;;;;;;;;;;;;;;;;;;;;;;;;;;;;;;;;;;;;;;;;;"1250";"2014-10-07 13:30:55.601";"ST_correctStop";"30";"1";"FINISHED";"NONE";"success";"0";"1";"2014-10-07 13:30:54.351";"3";;;;;;;;;;;;;;;;;;;;;
"66917060";"08/03/1993";;"Windows 8";"Rachel's Experiment (D.T.)";"1.0";"2";"1";"1";"2";"1";"1";"2014-10-07 13:23:30.067";"2014-10-07 13:36:43.145";"1";"1";"1";"134";"133";"module.training_block4.exec-8238.GoNoGo4";;;;;;;;;;;;;;;;;;;;;;;;;;;;;;;;;;;;;;;;;;;;;;;;;;;;;;;;;;;"1250";"2014-10-07 13:30:58.129";"NST_correctLoc";"28";"1";"FINISHED";"RIGHT";"success";"779";"0";"2014-10-07 13:30:56.879";"3";;;;;;;;;;;;;;;;;;;;;
"66917060";"08/03/1993";;"Windows 8";"Rachel's Experiment (D.T.)";"1.0";"2";"1";"1";"2";"1";"1";"2014-10-07 13:23:30.067";"2014-10-07 13:36:43.145";"1";"1";"1";"135";"134";"module.training_block4.exec-8238.GoNoGo4";;;;;;;;;;;;;;;;;;;;;;;;;;;;;;;;;;;;;;;;;;;;;;;;;;;;;;;;;;;"1249";"2014-10-07 13:31:00.662";"NST_correctLoc";"35";"0";"FINISHED";"LEFT";"success";"507";"0";"2014-10-07 13:30:59.411";"3";;;;;;;;;;;;;;;;;;;;;
"66917060";"08/03/1993";;"Windows 8";"Rachel's Experiment (D.T.)";"1.0";"2";"1";"1";"2";"1";"1";"2014-10-07 13:23:30.067";"2014-10-07 13:36:43.145";"1";"1";"1";"136";"135";"module.training_block4.exec-8238.GoNoGo4";;;;;;;;;;;;;;;;;;;;;;;;;;;;;;;;;;;;;;;;;;;;;;;;;;;;;;;;;;;"1250";"2014-10-07 13:31:03.194";"NST_correctLoc";"9";"1";"FINISHED";"RIGHT";"success";"587";"0";"2014-10-07 13:31:01.943";"2";;;;;;;;;;;;;;;;;;;;;
"66917060";"08/03/1993";;"Windows 8";"Rachel's Experiment (D.T.)";"1.0";"2";"1";"1";"2";"1";"1";"2014-10-07 13:23:30.067";"2014-10-07 13:36:43.145";"1";"1";"1";"137";"136";"module.training_block4.exec-8238.GoNoGo4";;;;;;;;;;;;;;;;;;;;;;;;;;;;;;;;;;;;;;;;;;;;;;;;;;;;;;;;;;;"1250";"2014-10-07 13:31:05.723";"NST_correctLoc";"21";"1";"FINISHED";"RIGHT";"success";"519";"0";"2014-10-07 13:31:04.472";"3";;;;;;;;;;;;;;;;;;;;;
"66917060";"08/03/1993";;"Windows 8";"Rachel's Experiment (D.T.)";"1.0";"2";"1";"1";"2";"1";"1";"2014-10-07 13:23:30.067";"2014-10-07 13:36:43.145";"1";"1";"1";"138";"137";"module.training_block4.exec-8238.GoNoGo4";;;;;;;;;;;;;;;;;;;;;;;;;;;;;;;;;;;;;;;;;;;;;;;;;;;;;;;;;;;"1250";"2014-10-07 13:31:08.255";"ST_correctStop";"6";"0";"FINISHED";"NONE";"success";"0";"1";"2014-10-07 13:31:07.005";"1";;;;;;;;;;;;;;;;;;;;;
"66917060";"08/03/1993";;"Windows 8";"Rachel's Experiment (D.T.)";"1.0";"2";"1";"1";"2";"1";"1";"2014-10-07 13:23:30.067";"2014-10-07 13:36:43.145";"1";"1";"1";"139";"138";"module.training_block4.exec-8238.GoNoGo4";;;;;;;;;;;;;;;;;;;;;;;;;;;;;;;;;;;;;;;;;;;;;;;;;;;;;;;;;;;"1249";"2014-10-07 13:31:10.785";"NST_correctLoc";"27";"1";"FINISHED";"RIGHT";"success";"493";"0";"2014-10-07 13:31:09.535";"3";;;;;;;;;;;;;;;;;;;;;
"66917060";"08/03/1993";;"Windows 8";"Rachel's Experiment (D.T.)";"1.0";"2";"1";"1";"2";"1";"1";"2014-10-07 13:23:30.067";"2014-10-07 13:36:43.145";"1";"1";"1";"140";"139";"module.training_block4.exec-8238.GoNoGo4";;;;;;;;;;;;;;;;;;;;;;;;;;;;;;;;;;;;;;;;;;;;;;;;;;;;;;;;;;;"1250";"2014-10-07 13:31:13.316";"ST_correctStop";"25";"0";"FINISHED";"NONE";"success";"0";"1";"2014-10-07 13:31:12.065";"3";;;;;;;;;;;;;;;;;;;;;
"66917060";"08/03/1993";;"Windows 8";"Rachel's Experiment (D.T.)";"1.0";"2";"1";"1";"2";"1";"1";"2014-10-07 13:23:30.067";"2014-10-07 13:36:43.145";"1";"1";"1";"141";"140";"module.training_block4.exec-8238.GoNoGo4";;;;;;;;;;;;;;;;;;;;;;;;;;;;;;;;;;;;;;;;;;;;;;;;;;;;;;;;;;;"1250";"2014-10-07 13:31:15.848";"NST_correctLoc";"15";"0";"FINISHED";"LEFT";"success";"690";"0";"2014-10-07 13:31:14.597";"2";;;;;;;;;;;;;;;;;;;;;
"66917060";"08/03/1993";;"Windows 8";"Rachel's Experiment (D.T.)";"1.0";"2";"1";"1";"2";"1";"1";"2014-10-07 13:23:30.067";"2014-10-07 13:36:43.145";"1";"1";"1";"142";"141";"module.training_block4.exec-8238.GoNoGo4";;;;;;;;;;;;;;;;;;;;;;;;;;;;;;;;;;;;;;;;;;;;;;;;;;;;;;;;;;;"1250";"2014-10-07 13:31:18.379";"ST_correctStop";"29";"0";"FINISHED";"NONE";"success";"0";"1";"2014-10-07 13:31:17.128";"3";;;;;;;;;;;;;;;;;;;;;
"66917060";"08/03/1993";;"Windows 8";"Rachel's Experiment (D.T.)";"1.0";"2";"1";"1";"2";"1";"1";"2014-10-07 13:23:30.067";"2014-10-07 13:36:43.145";"1";"1";"1";"143";"142";"module.training_block4.exec-8238.GoNoGo4";;;;;;;;;;;;;;;;;;;;;;;;;;;;;;;;;;;;;;;;;;;;;;;;;;;;;;;;;;;"1249";"2014-10-07 13:31:20.909";"ST_correctStop";"5";"1";"FINISHED";"NONE";"success";"0";"1";"2014-10-07 13:31:19.659";"1";;;;;;;;;;;;;;;;;;;;;
"66917060";"08/03/1993";;"Windows 8";"Rachel's Experiment (D.T.)";"1.0";"2";"1";"1";"2";"1";"1";"2014-10-07 13:23:30.067";"2014-10-07 13:36:43.145";"1";"1";"1";"144";"143";"module.training_block4.exec-8238.GoNoGo4";;;;;;;;;;;;;;;;;;;;;;;;;;;;;;;;;;;;;;;;;;;;;;;;;;;;;;;;;;;"1249";"2014-10-07 13:31:23.439";"NST_correctLoc";"16";"0";"FINISHED";"LEFT";"success";"464";"0";"2014-10-07 13:31:22.189";"2";;;;;;;;;;;;;;;;;;;;;
"66917060";"08/03/1993";;"Windows 8";"Rachel's Experiment (D.T.)";"1.0";"2";"1";"1";"2";"1";"1";"2014-10-07 13:23:30.067";"2014-10-07 13:36:43.145";"1";"1";"1";"145";"144";"module.training_block4.exec-8238.GoNoGo4";;;;;;;;;;;;;;;;;;;;;;;;;;;;;;;;;;;;;;;;;;;;;;;;;;;;;;;;;;;"1249";"2014-10-07 13:31:25.970";"ST_correctStop";"19";"0";"FINISHED";"NONE";"success";"0";"1";"2014-10-07 13:31:24.720";"3";;;;;;;;;;;;;;;;;;;;;
"66917060";"08/03/1993";;"Windows 8";"Rachel's Experiment (D.T.)";"1.0";"2";"1";"1";"2";"1";"1";"2014-10-07 13:23:30.067";"2014-10-07 13:36:43.145";"1";"1";"1";"146";"145";"module.training_block4.exec-8238.GoNoGo4";;;;;;;;;;;;;;;;;;;;;;;;;;;;;;;;;;;;;;;;;;;;;;;;;;;;;;;;;;;"1250";"2014-10-07 13:31:28.501";"ST_correctStop";"26";"1";"FINISHED";"NONE";"success";"0";"1";"2014-10-07 13:31:27.251";"3";;;;;;;;;;;;;;;;;;;;;
"66917060";"08/03/1993";;"Windows 8";"Rachel's Experiment (D.T.)";"1.0";"2";"1";"1";"2";"1";"1";"2014-10-07 13:23:30.067";"2014-10-07 13:36:43.145";"1";"1";"1";"147";"146";"module.training_block4.exec-8238.GoNoGo4";;;;;;;;;;;;;;;;;;;;;;;;;;;;;;;;;;;;;;;;;;;;;;;;;;;;;;;;;;;"1250";"2014-10-07 13:31:31.033";"ST_correctStop";"3";"0";"FINISHED";"NONE";"success";"0";"1";"2014-10-07 13:31:29.782";"1";;;;;;;;;;;;;;;;;;;;;
"66917060";"08/03/1993";;"Windows 8";"Rachel's Experiment (D.T.)";"1.0";"2";"1";"1";"2";"1";"1";"2014-10-07 13:23:30.067";"2014-10-07 13:36:43.145";"1";"1";"1";"148";"147";"module.training_block4.exec-8238.GoNoGo4";;;;;;;;;;;;;;;;;;;;;;;;;;;;;;;;;;;;;;;;;;;;;;;;;;;;;;;;;;;"1250";"2014-10-07 13:31:33.562";"NST_correctLoc";"13";"1";"FINISHED";"RIGHT";"success";"459";"0";"2014-10-07 13:31:32.312";"2";;;;;;;;;;;;;;;;;;;;;
"66917060";"08/03/1993";;"Windows 8";"Rachel's Experiment (D.T.)";"1.0";"2";"1";"1";"2";"1";"1";"2014-10-07 13:23:30.067";"2014-10-07 13:36:43.145";"1";"1";"1";"149";"148";"module.training_block4.exec-8238.GoNoGo4";;;;;;;;;;;;;;;;;;;;;;;;;;;;;;;;;;;;;;;;;;;;;;;;;;;;;;;;;;;"1249";"2014-10-07 13:31:36.091";"NST_correctLoc";"23";"0";"FINISHED";"LEFT";"success";"608";"0";"2014-10-07 13:31:34.841";"3";;;;;;;;;;;;;;;;;;;;;
"66917060";"08/03/1993";;"Windows 8";"Rachel's Experiment (D.T.)";"1.0";"2";"1";"1";"2";"1";"1";"2014-10-07 13:23:30.067";"2014-10-07 13:36:43.145";"1";"1";"1";"150";"149";"module.training_block4.exec-8238.GoNoGo4";;;;;;;;;;;;;;;;;;;;;;;;;;;;;;;;;;;;;;;;;;;;;;;;;;;;;;;;;;;"1250";"2014-10-07 13:31:38.610";"ST_correctStop";"2";"1";"FINISHED";"NONE";"success";"0";"1";"2014-10-07 13:31:37.359";"1";;;;;;;;;;;;;;;;;;;;;
"66917060";"08/03/1993";;"Windows 8";"Rachel's Experiment (D.T.)";"1.0";"2";"1";"1";"2";"1";"1";"2014-10-07 13:23:30.067";"2014-10-07 13:36:43.145";"1";"1";"1";"151";"150";"module.training_block4.exec-8238.GoNoGo4";;;;;;;;;;;;;;;;;;;;;;;;;;;;;;;;;;;;;;;;;;;;;;;;;;;;;;;;;;;"1249";"2014-10-07 13:31:41.140";"NST_correctLoc";"12";"0";"FINISHED";"LEFT";"success";"654";"0";"2014-10-07 13:31:39.889";"2";;;;;;;;;;;;;;;;;;;;;
"66917060";"08/03/1993";;"Windows 8";"Rachel's Experiment (D.T.)";"1.0";"2";"1";"1";"2";"1";"1";"2014-10-07 13:23:30.067";"2014-10-07 13:36:43.145";"1";"1";"1";"152";"151";"module.training_block4.exec-8238.GoNoGo4";;;;;;;;;;;;;;;;;;;;;;;;;;;;;;;;;;;;;;;;;;;;;;;;;;;;;;;;;;;"1250";"2014-10-07 13:31:43.668";"NST_correctLoc";"10";"1";"FINISHED";"RIGHT";"success";"661";"0";"2014-10-07 13:31:42.418";"2";;;;;;;;;;;;;;;;;;;;;
"66917060";"08/03/1993";;"Windows 8";"Rachel's Experiment (D.T.)";"1.0";"2";"1";"1";"2";"1";"1";"2014-10-07 13:23:30.067";"2014-10-07 13:36:43.145";"1";"1";"1";"153";"152";"module.training_block4.exec-8238.GoNoGo4";;;;;;;;;;;;;;;;;;;;;;;;;;;;;;;;;;;;;;;;;;;;;;;;;;;;;;;;;;;"1249";"2014-10-07 13:31:46.197";"ST_correctStop";"8";"1";"FINISHED";"NONE";"success";"0";"1";"2014-10-07 13:31:44.947";"1";;;;;;;;;;;;;;;;;;;;;
"66917060";"08/03/1993";;"Windows 8";"Rachel's Experiment (D.T.)";"1.0";"2";"1";"1";"2";"1";"1";"2014-10-07 13:23:30.067";"2014-10-07 13:36:43.145";"1";"1";"1";"154";"153";"module.training_block4.exec-8238.GoNoGo4";;;;;;;;;;;;;;;;;;;;;;;;;;;;;;;;;;;;;;;;;;;;;;;;;;;;;;;;;;;"1250";"2014-10-07 13:31:48.728";"NST_correctLoc";"24";"0";"FINISHED";"LEFT";"success";"480";"0";"2014-10-07 13:31:47.477";"3";;;;;;;;;;;;;;;;;;;;;
"66917060";"08/03/1993";;"Windows 8";"Rachel's Experiment (D.T.)";"1.0";"2";"1";"1";"2";"1";"1";"2014-10-07 13:23:30.067";"2014-10-07 13:36:43.145";"1";"1";"1";"155";"154";"module.training_block4.exec-8238.GoNoGo4";;;;;;;;;;;;;;;;;;;;;;;;;;;;;;;;;;;;;;;;;;;;;;;;;;;;;;;;;;;"1250";"2014-10-07 13:31:51.258";"ST_correctStop";"31";"1";"FINISHED";"NONE";"success";"0";"1";"2014-10-07 13:31:50.008";"3";;;;;;;;;;;;;;;;;;;;;
"66917060";"08/03/1993";;"Windows 8";"Rachel's Experiment (D.T.)";"1.0";"2";"1";"1";"2";"1";"1";"2014-10-07 13:23:30.067";"2014-10-07 13:36:43.145";"1";"1";"1";"156";"155";"module.training_block4.exec-8238.GoNoGo4";;;;;;;;;;;;;;;;;;;;;;;;;;;;;;;;;;;;;;;;;;;;;;;;;;;;;;;;;;;"1249";"2014-10-07 13:31:53.788";"NST_correctLoc";"17";"1";"FINISHED";"RIGHT";"success";"444";"0";"2014-10-07 13:31:52.538";"2";;;;;;;;;;;;;;;;;;;;;
"66917060";"08/03/1993";;"Windows 8";"Rachel's Experiment (D.T.)";"1.0";"2";"1";"1";"2";"1";"1";"2014-10-07 13:23:30.067";"2014-10-07 13:36:43.145";"1";"1";"1";"157";"156";"module.training_block4.exec-8238.GoNoGo4";;;;;;;;;;;;;;;;;;;;;;;;;;;;;;;;;;;;;;;;;;;;;;;;;;;;;;;;;;;"1249";"2014-10-07 13:31:56.318";"ST_correctStop";"1";"0";"FINISHED";"NONE";"success";"0";"1";"2014-10-07 13:31:55.068";"1";;;;;;;;;;;;;;;;;;;;;
"66917060";"08/03/1993";;"Windows 8";"Rachel's Experiment (D.T.)";"1.0";"2";"1";"1";"2";"1";"1";"2014-10-07 13:23:30.067";"2014-10-07 13:36:43.145";"1";"1";"1";"158";"157";"module.training_block4.exec-8238.GoNoGo4";;;;;;;;;;;;;;;;;;;;;;;;;;;;;;;;;;;;;;;;;;;;;;;;;;;;;;;;;;;"1250";"2014-10-07 13:31:58.847";"NST_correctLoc";"14";"0";"FINISHED";"LEFT";"success";"560";"0";"2014-10-07 13:31:57.597";"2";;;;;;;;;;;;;;;;;;;;;
"66917060";"08/03/1993";;"Windows 8";"Rachel's Experiment (D.T.)";"1.0";"2";"1";"1";"2";"1";"1";"2014-10-07 13:23:30.067";"2014-10-07 13:36:43.145";"1";"1";"1";"159";"158";"module.training_block4.exec-8238.GoNoGo4";;;;;;;;;;;;;;;;;;;;;;;;;;;;;;;;;;;;;;;;;;;;;;;;;;;;;;;;;;;"1250";"2014-10-07 13:32:01.379";"NST_correctLoc";"22";"0";"FINISHED";"LEFT";"success";"537";"0";"2014-10-07 13:32:00.128";"3";;;;;;;;;;;;;;;;;;;;;
"66917060";"08/03/1993";;"Windows 8";"Rachel's Experiment (D.T.)";"1.0";"2";"1";"1";"2";"1";"1";"2014-10-07 13:23:30.067";"2014-10-07 13:36:43.145";"1";"1";"1";"160";"159";"module.devaluation_practice.exec-2781.devalPractice";;;;;;;;;;;;"13156";"2014-10-07 13:32:37.845";"0";"1";"2";"3";"2125";"1911";"6023";"2014-10-07 13:32:24.688";;;;;;;;;;;;;;;;;;;;;;;;;;;;;;;;;;;;;;;;;;;;;;;;;;;;;;;;;;;;;;;;;;;;;;
"66917060";"08/03/1993";;"Windows 8";"Rachel's Experiment (D.T.)";"1.0";"2";"1";"1";"2";"1";"1";"2014-10-07 13:23:30.067";"2014-10-07 13:36:43.145";"1";"1";"1";"161";"160";"module.devaluation_practice.exec-2781.devalPractice";;;;;;;;;;;;"11376";"2014-10-07 13:32:49.248";"1";"2";"2";"4";"1909";"3722";"2719";"2014-10-07 13:32:37.871";;;;;;;;;;;;;;;;;;;;;;;;;;;;;;;;;;;;;;;;;;;;;;;;;;;;;;;;;;;;;;;;;;;;;;
"66917060";"08/03/1993";;"Windows 8";"Rachel's Experiment (D.T.)";"1.0";"2";"1";"1";"2";"1";"1";"2014-10-07 13:23:30.067";"2014-10-07 13:36:43.145";"1";"1";"1";"162";"161";"module.devaluation_practice.exec-2781.devalPractice";;;;;;;;;;;;"9594";"2014-10-07 13:32:58.877";"2";"1";"1";"3";"1352";"2055";"3060";"2014-10-07 13:32:49.282";;;;;;;;;;;;;;;;;;;;;;;;;;;;;;;;;;;;;;;;;;;;;;;;;;;;;;;;;;;;;;;;;;;;;;
"66917060";"08/03/1993";;"Windows 8";"Rachel's Experiment (D.T.)";"1.0";"2";"1";"1";"2";"1";"1";"2014-10-07 13:23:30.067";"2014-10-07 13:36:43.145";"1";"1";"1";"163";"162";"module.devaluation_practice.exec-2781.devalPractice";;;;;;;;;;;;"8297";"2014-10-07 13:33:07.207";"3";"6";"7";"7";"1449";"1091";"2729";"2014-10-07 13:32:58.909";;;;;;;;;;;;;;;;;;;;;;;;;;;;;;;;;;;;;;;;;;;;;;;;;;;;;;;;;;;;;;;;;;;;;;
"66917060";"08/03/1993";;"Windows 8";"Rachel's Experiment (D.T.)";"1.0";"2";"1";"1";"2";"1";"1";"2014-10-07 13:23:30.067";"2014-10-07 13:36:43.145";"1";"1";"1";"164";"163";"module.devaluation_block1.exec-7294.deval1";"8844";"2014-10-07 13:33:19.553";"22";"8";"8";"7";"2298";"1507";"1999";"2014-10-07 13:33:10.709";"3";;;;;;;;;;;;;;;;;;;;;;;;;;;;;;;;;;;;;;;;;;;;;;;;;;;;;;;;;;;;;;;;;;;;;;;;;;;;;;;;
"66917060";"08/03/1993";;"Windows 8";"Rachel's Experiment (D.T.)";"1.0";"2";"1";"1";"2";"1";"1";"2014-10-07 13:23:30.067";"2014-10-07 13:36:43.145";"1";"1";"1";"165";"164";"module.devaluation_block1.exec-7294.deval1";"8856";"2014-10-07 13:33:28.443";"16";"1";"1";"1";"1536";"1561";"2724";"2014-10-07 13:33:19.587";"2";;;;;;;;;;;;;;;;;;;;;;;;;;;;;;;;;;;;;;;;;;;;;;;;;;;;;;;;;;;;;;;;;;;;;;;;;;;;;;;;
"66917060";"08/03/1993";;"Windows 8";"Rachel's Experiment (D.T.)";"1.0";"2";"1";"1";"2";"1";"1";"2014-10-07 13:23:30.067";"2014-10-07 13:36:43.145";"1";"1";"1";"166";"165";"module.devaluation_block1.exec-7294.deval1";"10055";"2014-10-07 13:33:38.529";"14";"6";"8";"6";"3375";"2092";"1554";"2014-10-07 13:33:28.474";"2";;;;;;;;;;;;;;;;;;;;;;;;;;;;;;;;;;;;;;;;;;;;;;;;;;;;;;;;;;;;;;;;;;;;;;;;;;;;;;;;
"66917060";"08/03/1993";;"Windows 8";"Rachel's Experiment (D.T.)";"1.0";"2";"1";"1";"2";"1";"1";"2014-10-07 13:23:30.067";"2014-10-07 13:36:43.145";"1";"1";"1";"167";"166";"module.devaluation_block1.exec-7294.deval1";"8274";"2014-10-07 13:33:46.830";"7";"6";"2";"3";"2189";"1789";"1255";"2014-10-07 13:33:38.556";"1";;;;;;;;;;;;;;;;;;;;;;;;;;;;;;;;;;;;;;;;;;;;;;;;;;;;;;;;;;;;;;;;;;;;;;;;;;;;;;;;
"66917060";"08/03/1993";;"Windows 8";"Rachel's Experiment (D.T.)";"1.0";"2";"1";"1";"2";"1";"1";"2014-10-07 13:23:30.067";"2014-10-07 13:36:43.145";"1";"1";"1";"168";"167";"module.devaluation_block1.exec-7294.deval1";"13322";"2014-10-07 13:34:00.188";"19";"7";"2";"4";"6210";"2745";"1336";"2014-10-07 13:33:46.865";"3";;;;;;;;;;;;;;;;;;;;;;;;;;;;;;;;;;;;;;;;;;;;;;;;;;;;;;;;;;;;;;;;;;;;;;;;;;;;;;;;
"66917060";"08/03/1993";;"Windows 8";"Rachel's Experiment (D.T.)";"1.0";"2";"1";"1";"2";"1";"1";"2014-10-07 13:23:30.067";"2014-10-07 13:36:43.145";"1";"1";"1";"169";"168";"module.devaluation_block1.exec-7294.deval1";"8525";"2014-10-07 13:34:08.742";"10";"7";"7";"7";"1879";"976";"2637";"2014-10-07 13:34:00.215";"2";;;;;;;;;;;;;;;;;;;;;;;;;;;;;;;;;;;;;;;;;;;;;;;;;;;;;;;;;;;;;;;;;;;;;;;;;;;;;;;;
"66917060";"08/03/1993";;"Windows 8";"Rachel's Experiment (D.T.)";"1.0";"2";"1";"1";"2";"1";"1";"2014-10-07 13:23:30.067";"2014-10-07 13:36:43.145";"1";"1";"1";"170";"169";"module.devaluation_block1.exec-7294.deval1";"6552";"2014-10-07 13:34:15.322";"24";"9";"9";"9";"1185";"1097";"1238";"2014-10-07 13:34:08.769";"3";;;;;;;;;;;;;;;;;;;;;;;;;;;;;;;;;;;;;;;;;;;;;;;;;;;;;;;;;;;;;;;;;;;;;;;;;;;;;;;;
"66917060";"08/03/1993";;"Windows 8";"Rachel's Experiment (D.T.)";"1.0";"2";"1";"1";"2";"1";"1";"2014-10-07 13:23:30.067";"2014-10-07 13:36:43.145";"1";"1";"1";"171";"170";"module.devaluation_block1.exec-7294.deval1";"6646";"2014-10-07 13:34:22.002";"25";"9";"9";"9";"1413";"1128";"1076";"2014-10-07 13:34:15.356";"3";;;;;;;;;;;;;;;;;;;;;;;;;;;;;;;;;;;;;;;;;;;;;;;;;;;;;;;;;;;;;;;;;;;;;;;;;;;;;;;;
"66917060";"08/03/1993";;"Windows 8";"Rachel's Experiment (D.T.)";"1.0";"2";"1";"1";"2";"1";"1";"2014-10-07 13:23:30.067";"2014-10-07 13:36:43.145";"1";"1";"1";"172";"171";"module.devaluation_block1.exec-7294.deval1";"11887";"2014-10-07 13:34:33.917";"9";"3";"3";"5";"3866";"2107";"2879";"2014-10-07 13:34:22.028";"2";;;;;;;;;;;;;;;;;;;;;;;;;;;;;;;;;;;;;;;;;;;;;;;;;;;;;;;;;;;;;;;;;;;;;;;;;;;;;;;;
"66917060";"08/03/1993";;"Windows 8";"Rachel's Experiment (D.T.)";"1.0";"2";"1";"1";"2";"1";"1";"2014-10-07 13:23:30.067";"2014-10-07 13:36:43.145";"1";"1";"1";"173";"172";"module.devaluation_block1.exec-7294.deval1";"9961";"2014-10-07 13:34:43.913";"2";"2";"5";"6";"1279";"940";"4712";"2014-10-07 13:34:33.952";"1";;;;;;;;;;;;;;;;;;;;;;;;;;;;;;;;;;;;;;;;;;;;;;;;;;;;;;;;;;;;;;;;;;;;;;;;;;;;;;;;
"66917060";"08/03/1993";;"Windows 8";"Rachel's Experiment (D.T.)";"1.0";"2";"1";"1";"2";"1";"1";"2014-10-07 13:23:30.067";"2014-10-07 13:36:43.145";"1";"1";"1";"174";"173";"module.devaluation_block1.exec-7294.deval1";"7004";"2014-10-07 13:34:50.954";"21";"7";"8";"8";"777";"925";"2271";"2014-10-07 13:34:43.950";"3";;;;;;;;;;;;;;;;;;;;;;;;;;;;;;;;;;;;;;;;;;;;;;;;;;;;;;;;;;;;;;;;;;;;;;;;;;;;;;;;
"66917060";"08/03/1993";;"Windows 8";"Rachel's Experiment (D.T.)";"1.0";"2";"1";"1";"2";"1";"1";"2014-10-07 13:23:30.067";"2014-10-07 13:36:43.145";"1";"1";"1";"175";"174";"module.devaluation_block1.exec-7294.deval1";"7328";"2014-10-07 13:34:58.310";"20";"8";"5";"6";"1006";"371";"2916";"2014-10-07 13:34:50.981";"3";;;;;;;;;;;;;;;;;;;;;;;;;;;;;;;;;;;;;;;;;;;;;;;;;;;;;;;;;;;;;;;;;;;;;;;;;;;;;;;;
"66917060";"08/03/1993";;"Windows 8";"Rachel's Experiment (D.T.)";"1.0";"2";"1";"1";"2";"1";"1";"2014-10-07 13:23:30.067";"2014-10-07 13:36:43.145";"1";"1";"1";"176";"175";"module.devaluation_block1.exec-7294.deval1";"9108";"2014-10-07 13:35:07.453";"5";"7";"6";"7";"1454";"932";"3695";"2014-10-07 13:34:58.345";"1";;;;;;;;;;;;;;;;;;;;;;;;;;;;;;;;;;;;;;;;;;;;;;;;;;;;;;;;;;;;;;;;;;;;;;;;;;;;;;;;
"66917060";"08/03/1993";;"Windows 8";"Rachel's Experiment (D.T.)";"1.0";"2";"1";"1";"2";"1";"1";"2014-10-07 13:23:30.067";"2014-10-07 13:36:43.145";"1";"1";"1";"177";"176";"module.devaluation_block1.exec-7294.deval1";"7514";"2014-10-07 13:35:14.995";"12";"8";"7";"7";"1174";"1921";"1393";"2014-10-07 13:35:07.480";"2";;;;;;;;;;;;;;;;;;;;;;;;;;;;;;;;;;;;;;;;;;;;;;;;;;;;;;;;;;;;;;;;;;;;;;;;;;;;;;;;
"66917060";"08/03/1993";;"Windows 8";"Rachel's Experiment (D.T.)";"1.0";"2";"1";"1";"2";"1";"1";"2014-10-07 13:23:30.067";"2014-10-07 13:36:43.145";"1";"1";"1";"178";"177";"module.devaluation_block1.exec-7294.deval1";"7117";"2014-10-07 13:35:22.148";"8";"8";"8";"9";"1302";"1195";"1591";"2014-10-07 13:35:15.030";"1";;;;;;;;;;;;;;;;;;;;;;;;;;;;;;;;;;;;;;;;;;;;;;;;;;;;;;;;;;;;;;;;;;;;;;;;;;;;;;;;
"66917060";"08/03/1993";;"Windows 8";"Rachel's Experiment (D.T.)";"1.0";"2";"1";"1";"2";"1";"1";"2014-10-07 13:23:30.067";"2014-10-07 13:36:43.145";"1";"1";"1";"179";"178";"module.devaluation_block1.exec-7294.deval1";"8404";"2014-10-07 13:35:30.583";"3";"8";"8";"8";"3531";"850";"993";"2014-10-07 13:35:22.177";"1";;;;;;;;;;;;;;;;;;;;;;;;;;;;;;;;;;;;;;;;;;;;;;;;;;;;;;;;;;;;;;;;;;;;;;;;;;;;;;;;
"66917060";"08/03/1993";;"Windows 8";"Rachel's Experiment (D.T.)";"1.0";"2";"1";"1";"2";"1";"1";"2014-10-07 13:23:30.067";"2014-10-07 13:36:43.145";"1";"1";"1";"180";"179";"module.devaluation_block1.exec-7294.deval1";"6159";"2014-10-07 13:35:36.770";"23";"9";"9";"9";"993";"1017";"1119";"2014-10-07 13:35:30.611";"3";;;;;;;;;;;;;;;;;;;;;;;;;;;;;;;;;;;;;;;;;;;;;;;;;;;;;;;;;;;;;;;;;;;;;;;;;;;;;;;;
"66917060";"08/03/1993";;"Windows 8";"Rachel's Experiment (D.T.)";"1.0";"2";"1";"1";"2";"1";"1";"2014-10-07 13:23:30.067";"2014-10-07 13:36:43.145";"1";"1";"1";"181";"180";"module.devaluation_block1.exec-7294.deval1";"6000";"2014-10-07 13:35:42.805";"17";"1";"1";"1";"672";"1079";"1226";"2014-10-07 13:35:36.804";"2";;;;;;;;;;;;;;;;;;;;;;;;;;;;;;;;;;;;;;;;;;;;;;;;;;;;;;;;;;;;;;;;;;;;;;;;;;;;;;;;
"66917060";"08/03/1993";;"Windows 8";"Rachel's Experiment (D.T.)";"1.0";"2";"1";"1";"2";"1";"1";"2014-10-07 13:23:30.067";"2014-10-07 13:36:43.145";"1";"1";"1";"182";"181";"module.devaluation_block1.exec-7294.deval1";"6162";"2014-10-07 13:35:48.990";"13";"4";"5";"6";"1069";"834";"1230";"2014-10-07 13:35:42.828";"2";;;;;;;;;;;;;;;;;;;;;;;;;;;;;;;;;;;;;;;;;;;;;;;;;;;;;;;;;;;;;;;;;;;;;;;;;;;;;;;;
"66917060";"08/03/1993";;"Windows 8";"Rachel's Experiment (D.T.)";"1.0";"2";"1";"1";"2";"1";"1";"2014-10-07 13:23:30.067";"2014-10-07 13:36:43.145";"1";"1";"1";"183";"182";"module.devaluation_block1.exec-7294.deval1";"6718";"2014-10-07 13:35:55.742";"1";"1";"5";"5";"1186";"432";"2072";"2014-10-07 13:35:49.022";"1";;;;;;;;;;;;;;;;;;;;;;;;;;;;;;;;;;;;;;;;;;;;;;;;;;;;;;;;;;;;;;;;;;;;;;;;;;;;;;;;
"66917060";"08/03/1993";;"Windows 8";"Rachel's Experiment (D.T.)";"1.0";"2";"1";"1";"2";"1";"1";"2014-10-07 13:23:30.067";"2014-10-07 13:36:43.145";"1";"1";"1";"184";"183";"module.devaluation_block1.exec-7294.deval1";"6863";"2014-10-07 13:36:02.635";"4";"7";"9";"9";"832";"1009";"1991";"2014-10-07 13:35:55.772";"1";;;;;;;;;;;;;;;;;;;;;;;;;;;;;;;;;;;;;;;;;;;;;;;;;;;;;;;;;;;;;;;;;;;;;;;;;;;;;;;;
"66917060";"08/03/1993";;"Windows 8";"Rachel's Experiment (D.T.)";"1.0";"2";"1";"1";"2";"1";"1";"2014-10-07 13:23:30.067";"2014-10-07 13:36:43.145";"1";"1";"1";"185";"184";"module.devaluation_block1.exec-7294.deval1";"7925";"2014-10-07 13:36:10.595";"26";"8";"3";"6";"1692";"696";"2508";"2014-10-07 13:36:02.670";"3";;;;;;;;;;;;;;;;;;;;;;;;;;;;;;;;;;;;;;;;;;;;;;;;;;;;;;;;;;;;;;;;;;;;;;;;;;;;;;;;
"66917060";"08/03/1993";;"Windows 8";"Rachel's Experiment (D.T.)";"1.0";"2";"1";"1";"2";"1";"1";"2014-10-07 13:23:30.067";"2014-10-07 13:36:43.145";"1";"1";"1";"186";"185";"module.devaluation_block1.exec-7294.deval1";"5758";"2014-10-07 13:36:16.383";"18";"7";"8";"8";"1175";"806";"749";"2014-10-07 13:36:10.625";"3";;;;;;;;;;;;;;;;;;;;;;;;;;;;;;;;;;;;;;;;;;;;;;;;;;;;;;;;;;;;;;;;;;;;;;;;;;;;;;;;
"66917060";"08/03/1993";;"Windows 8";"Rachel's Experiment (D.T.)";"1.0";"2";"1";"1";"2";"1";"1";"2014-10-07 13:23:30.067";"2014-10-07 13:36:43.145";"1";"1";"1";"187";"186";"module.devaluation_block1.exec-7294.deval1";"6922";"2014-10-07 13:36:23.336";"11";"2";"3";"5";"1436";"1953";"501";"2014-10-07 13:36:16.414";"2";;;;;;;;;;;;;;;;;;;;;;;;;;;;;;;;;;;;;;;;;;;;;;;;;;;;;;;;;;;;;;;;;;;;;;;;;;;;;;;;
"66917060";"08/03/1993";;"Windows 8";"Rachel's Experiment (D.T.)";"1.0";"2";"1";"1";"2";"1";"1";"2014-10-07 13:23:30.067";"2014-10-07 13:36:43.145";"1";"1";"1";"188";"187";"module.devaluation_block1.exec-7294.deval1";"5315";"2014-10-07 13:36:28.686";"0";"8";"8";"7";"698";"890";"698";"2014-10-07 13:36:23.371";"1";;;;;;;;;;;;;;;;;;;;;;;;;;;;;;;;;;;;;;;;;;;;;;;;;;;;;;;;;;;;;;;;;;;;;;;;;;;;;;;;
"66917060";"08/03/1993";;"Windows 8";"Rachel's Experiment (D.T.)";"1.0";"2";"1";"1";"2";"1";"1";"2014-10-07 13:23:30.067";"2014-10-07 13:36:43.145";"1";"1";"1";"189";"188";"module.devaluation_block1.exec-7294.deval1";"6263";"2014-10-07 13:36:34.979";"15";"1";"1";"1";"999";"927";"1309";"2014-10-07 13:36:28.715";"2";;;;;;;;;;;;;;;;;;;;;;;;;;;;;;;;;;;;;;;;;;;;;;;;;;;;;;;;;;;;;;;;;;;;;;;;;;;;;;;;
"66917060";"08/03/1993";;"Windows 8";"Rachel's Experiment (D.T.)";"1.0";"2";"1";"1";"2";"1";"1";"2014-10-07 13:23:30.067";"2014-10-07 13:36:43.145";"1";"1";"1";"190";"189";"module.devaluation_block1.exec-7294.deval1";"5999";"2014-10-07 13:36:41.010";"6";"6";"7";"8";"520";"1001";"1449";"2014-10-07 13:36:35.011";"1";;;;;;;;;;;;;;;;;;;;;;;;;;;;;;;;;;;;;;;;;;;;;;;;;;;;;;;;;;;;;;;;;;;;;;;;;;;;;;;;
