"user.name";"user.yearOfBirth";"user.sex";"user.osName";"module.name";"module.version";"module.online.subject.code";"module.online.study.id";"module.online.module.nr";"module.online.group.nr";"session.id";"session.index";"session.startTime";"session.endTime";"session.completed";"session.node-1874.conditionType";"session.node-5938.DevalQorder";"trial.id";"trial.index";"trial.name";"trial.deval1.durationTime";"trial.deval1.endTime";"trial.deval1.icon";"trial.deval1.Resp_Attractive";"trial.deval1.Resp_Eat";"trial.deval1.Resp_Taste";"trial.deval1.RT_Attractive";"trial.deval1.RT_Eat";"trial.deval1.RT_Taste";"trial.deval1.startTime";"trial.deval1.stimulus type";"trial.devalPractice.durationTime";"trial.devalPractice.endTime";"trial.devalPractice.icon";"trial.devalPractice.Resp_Attractive";"trial.devalPractice.Resp_Eat";"trial.devalPractice.Resp_Taste";"trial.devalPractice.RT_Attractive";"trial.devalPractice.RT_Eat";"trial.devalPractice.RT_Taste";"trial.devalPractice.startTime";"trial.devalPractice.stimulus type";"trial.GoNoGo1.durationTime";"trial.GoNoGo1.endTime";"trial.GoNoGo1.Error Type";"trial.GoNoGo1.icon";"trial.GoNoGo1.location";"trial.GoNoGo1.outcome";"trial.GoNoGo1.response";"trial.GoNoGo1.result";"trial.GoNoGo1.RT";"trial.GoNoGo1.signal";"trial.GoNoGo1.startTime";"trial.GoNoGo1.stimulus type";"trial.GoNoGo2.durationTime";"trial.GoNoGo2.endTime";"trial.GoNoGo2.Error Type";"trial.GoNoGo2.icon";"trial.GoNoGo2.location";"trial.GoNoGo2.outcome";"trial.GoNoGo2.response";"trial.GoNoGo2.result";"trial.GoNoGo2.RT";"trial.GoNoGo2.signal";"trial.GoNoGo2.startTime";"trial.GoNoGo2.stimulus type";"trial.GoNoGo3.durationTime";"trial.GoNoGo3.endTime";"trial.GoNoGo3.Error Type";"trial.GoNoGo3.icon";"trial.GoNoGo3.location";"trial.GoNoGo3.outcome";"trial.GoNoGo3.response";"trial.GoNoGo3.result";"trial.GoNoGo3.RT";"trial.GoNoGo3.signal";"trial.GoNoGo3.startTime";"trial.GoNoGo3.stimulus type";"trial.GoNoGo4.durationTime";"trial.GoNoGo4.endTime";"trial.GoNoGo4.Error Type";"trial.GoNoGo4.icon";"trial.GoNoGo4.location";"trial.GoNoGo4.outcome";"trial.GoNoGo4.response";"trial.GoNoGo4.result";"trial.GoNoGo4.RT";"trial.GoNoGo4.signal";"trial.GoNoGo4.startTime";"trial.GoNoGo4.stimulus type";"trial.GoNoGo_Practice.durationTime";"trial.GoNoGo_Practice.endTime";"trial.GoNoGo_Practice.icon";"trial.GoNoGo_Practice.location";"trial.GoNoGo_Practice.outcome";"trial.GoNoGo_Practice.response";"trial.GoNoGo_Practice.result";"trial.GoNoGo_Practice.RT";"trial.GoNoGo_Practice.signal";"trial.GoNoGo_Practice.startTime";"trial.GoNoGo_Practice.stimulus type";"trial.GoNoGo_Tutorial.durationTime";"trial.GoNoGo_Tutorial.endTime";"trial.GoNoGo_Tutorial.icon";"trial.GoNoGo_Tutorial.location";"trial.GoNoGo_Tutorial.outcome";"trial.GoNoGo_Tutorial.response";"trial.GoNoGo_Tutorial.result";"trial.GoNoGo_Tutorial.RT";"trial.GoNoGo_Tutorial.signal";"trial.GoNoGo_Tutorial.startTime"
"amyholley";;;"Windows 7";"Rachel's Experiment (D.T.)";"1.0";"2";"1";"1";"2";"1";"1";"2014-10-16 13:32:46.008";"2014-10-16 13:47:31.154";"1";"0";"1";"1";"0";"module.GoNoGotutorial.exec-2043.GoNoGo_Tutorial";;;;;;;;;;;;;;;;;;;;;;;;;;;;;;;;;;;;;;;;;;;;;;;;;;;;;;;;;;;;;;;;;;;;;;;;;;;;;;;;;;"3998";"2014-10-16 13:33:50.015";"leftResponse";"0";"FINISHED";"LEFT";"success";"1508";"0";"2014-10-16 13:33:46.006"
"amyholley";;;"Windows 7";"Rachel's Experiment (D.T.)";"1.0";"2";"1";"1";"2";"1";"1";"2014-10-16 13:32:46.008";"2014-10-16 13:47:31.154";"1";"0";"1";"2";"1";"module.GoNoGotutorial.exec-2043.GoNoGo_Tutorial";;;;;;;;;;;;;;;;;;;;;;;;;;;;;;;;;;;;;;;;;;;;;;;;;;;;;;;;;;;;;;;;;;;;;;;;;;;;;;;;;;"4003";"2014-10-16 13:33:55.319";"rightResponse";"1";"FINISHED";"RIGHT";"success";"3610";"0";"2014-10-16 13:33:51.310"
"amyholley";;;"Windows 7";"Rachel's Experiment (D.T.)";"1.0";"2";"1";"1";"2";"1";"1";"2014-10-16 13:32:46.008";"2014-10-16 13:47:31.154";"1";"0";"1";"3";"2";"module.GoNoGotutorial.exec-2043.GoNoGo_Tutorial";;;;;;;;;;;;;;;;;;;;;;;;;;;;;;;;;;;;;;;;;;;;;;;;;;;;;;;;;;;;;;;;;;;;;;;;;;;;;;;;;;"4003";"2014-10-16 13:34:00.623";"quickResponse";"0";"FINISHED";"NONE";"failure";"0";"0";"2014-10-16 13:33:56.614"
"amyholley";;;"Windows 7";"Rachel's Experiment (D.T.)";"1.0";"2";"1";"1";"2";"1";"1";"2014-10-16 13:32:46.008";"2014-10-16 13:47:31.154";"1";"0";"1";"4";"3";"module.GoNoGopractice.exec-9040.GoNoGo_Practice";;;;;;;;;;;;;;;;;;;;;;;;;;;;;;;;;;;;;;;;;;;;;;;;;;;;;;;;;;;;;;;;;;;;;;;"1959";"2014-10-16 13:34:14.773";"18";"0";"FINISHED";"LEFT";"success";"424";"0";"2014-10-16 13:34:12.807";"3";;;;;;;;;;
"amyholley";;;"Windows 7";"Rachel's Experiment (D.T.)";"1.0";"2";"1";"1";"2";"1";"1";"2014-10-16 13:32:46.008";"2014-10-16 13:47:31.154";"1";"0";"1";"5";"4";"module.GoNoGopractice.exec-9040.GoNoGo_Practice";;;;;;;;;;;;;;;;;;;;;;;;;;;;;;;;;;;;;;;;;;;;;;;;;;;;;;;;;;;;;;;;;;;;;;;"1953";"2014-10-16 13:34:18.017";"21";"1";"FINISHED";"RIGHT";"success";"342";"0";"2014-10-16 13:34:16.052";"3";;;;;;;;;;
"amyholley";;;"Windows 7";"Rachel's Experiment (D.T.)";"1.0";"2";"1";"1";"2";"1";"1";"2014-10-16 13:32:46.008";"2014-10-16 13:47:31.154";"1";"0";"1";"6";"5";"module.GoNoGopractice.exec-9040.GoNoGo_Practice";;;;;;;;;;;;;;;;;;;;;;;;;;;;;;;;;;;;;;;;;;;;;;;;;;;;;;;;;;;;;;;;;;;;;;;"1959";"2014-10-16 13:34:21.262";"14";"1";"FINISHED";"RIGHT";"success";"455";"0";"2014-10-16 13:34:19.297";"2";;;;;;;;;;
"amyholley";;;"Windows 7";"Rachel's Experiment (D.T.)";"1.0";"2";"1";"1";"2";"1";"1";"2014-10-16 13:32:46.008";"2014-10-16 13:47:31.154";"1";"0";"1";"7";"6";"module.GoNoGopractice.exec-9040.GoNoGo_Practice";;;;;;;;;;;;;;;;;;;;;;;;;;;;;;;;;;;;;;;;;;;;;;;;;;;;;;;;;;;;;;;;;;;;;;;"1959";"2014-10-16 13:34:24.507";"26";"0";"FINISHED";"LEFT";"success";"346";"0";"2014-10-16 13:34:22.541";"3";;;;;;;;;;
"amyholley";;;"Windows 7";"Rachel's Experiment (D.T.)";"1.0";"2";"1";"1";"2";"1";"1";"2014-10-16 13:32:46.008";"2014-10-16 13:47:31.154";"1";"0";"1";"8";"7";"module.GoNoGopractice.exec-9040.GoNoGo_Practice";;;;;;;;;;;;;;;;;;;;;;;;;;;;;;;;;;;;;;;;;;;;;;;;;;;;;;;;;;;;;;;;;;;;;;;"1959";"2014-10-16 13:34:27.752";"2";"0";"FINISHED";"LEFT";"success";"381";"0";"2014-10-16 13:34:25.786";"1";;;;;;;;;;
"amyholley";;;"Windows 7";"Rachel's Experiment (D.T.)";"1.0";"2";"1";"1";"2";"1";"1";"2014-10-16 13:32:46.008";"2014-10-16 13:47:31.154";"1";"0";"1";"9";"8";"module.GoNoGopractice.exec-9040.GoNoGo_Practice";;;;;;;;;;;;;;;;;;;;;;;;;;;;;;;;;;;;;;;;;;;;;;;;;;;;;;;;;;;;;;;;;;;;;;;"1960";"2014-10-16 13:34:30.997";"30";"0";"FINISHED";"LEFT";"success";"441";"0";"2014-10-16 13:34:29.031";"3";;;;;;;;;;
"amyholley";;;"Windows 7";"Rachel's Experiment (D.T.)";"1.0";"2";"1";"1";"2";"1";"1";"2014-10-16 13:32:46.008";"2014-10-16 13:47:31.154";"1";"0";"1";"10";"9";"module.GoNoGopractice.exec-9040.GoNoGo_Practice";;;;;;;;;;;;;;;;;;;;;;;;;;;;;;;;;;;;;;;;;;;;;;;;;;;;;;;;;;;;;;;;;;;;;;;"1959";"2014-10-16 13:34:34.241";"6";"1";"FINISHED";"RIGHT";"success";"316";"0";"2014-10-16 13:34:32.276";"1";;;;;;;;;;
"amyholley";;;"Windows 7";"Rachel's Experiment (D.T.)";"1.0";"2";"1";"1";"2";"1";"1";"2014-10-16 13:32:46.008";"2014-10-16 13:47:31.154";"1";"0";"1";"11";"10";"module.GoNoGopractice.exec-9040.GoNoGo_Practice";;;;;;;;;;;;;;;;;;;;;;;;;;;;;;;;;;;;;;;;;;;;;;;;;;;;;;;;;;;;;;;;;;;;;;;"1960";"2014-10-16 13:34:37.486";"34";"0";"FINISHED";"LEFT";"success";"464";"0";"2014-10-16 13:34:35.521";"3";;;;;;;;;;
"amyholley";;;"Windows 7";"Rachel's Experiment (D.T.)";"1.0";"2";"1";"1";"2";"1";"1";"2014-10-16 13:32:46.008";"2014-10-16 13:47:31.154";"1";"0";"1";"12";"11";"module.GoNoGopractice.exec-9040.GoNoGo_Practice";;;;;;;;;;;;;;;;;;;;;;;;;;;;;;;;;;;;;;;;;;;;;;;;;;;;;;;;;;;;;;;;;;;;;;;"1959";"2014-10-16 13:34:40.731";"23";"1";"FINISHED";"RIGHT";"success";"338";"0";"2014-10-16 13:34:38.765";"3";;;;;;;;;;
"amyholley";;;"Windows 7";"Rachel's Experiment (D.T.)";"1.0";"2";"1";"1";"2";"1";"1";"2014-10-16 13:32:46.008";"2014-10-16 13:47:31.154";"1";"0";"1";"13";"12";"module.GoNoGopractice.exec-9040.GoNoGo_Practice";;;;;;;;;;;;;;;;;;;;;;;;;;;;;;;;;;;;;;;;;;;;;;;;;;;;;;;;;;;;;;;;;;;;;;;"1958";"2014-10-16 13:34:43.960";"13";"0";"FINISHED";"LEFT";"success";"508";"0";"2014-10-16 13:34:41.995";"2";;;;;;;;;;
"amyholley";;;"Windows 7";"Rachel's Experiment (D.T.)";"1.0";"2";"1";"1";"2";"1";"1";"2014-10-16 13:32:46.008";"2014-10-16 13:47:31.154";"1";"0";"1";"14";"13";"module.GoNoGopractice.exec-9040.GoNoGo_Practice";;;;;;;;;;;;;;;;;;;;;;;;;;;;;;;;;;;;;;;;;;;;;;;;;;;;;;;;;;;;;;;;;;;;;;;"1960";"2014-10-16 13:34:47.205";"3";"1";"FINISHED";"RIGHT";"success";"313";"0";"2014-10-16 13:34:45.239";"1";;;;;;;;;;
"amyholley";;;"Windows 7";"Rachel's Experiment (D.T.)";"1.0";"2";"1";"1";"2";"1";"1";"2014-10-16 13:32:46.008";"2014-10-16 13:47:31.154";"1";"0";"1";"15";"14";"module.GoNoGopractice.exec-9040.GoNoGo_Practice";;;;;;;;;;;;;;;;;;;;;;;;;;;;;;;;;;;;;;;;;;;;;;;;;;;;;;;;;;;;;;;;;;;;;;;"1958";"2014-10-16 13:34:50.543";"27";"1";"FINISHED";"RIGHT";"success";"348";"0";"2014-10-16 13:34:48.578";"3";;;;;;;;;;
"amyholley";;;"Windows 7";"Rachel's Experiment (D.T.)";"1.0";"2";"1";"1";"2";"1";"1";"2014-10-16 13:32:46.008";"2014-10-16 13:47:31.154";"1";"0";"1";"16";"15";"module.training_block1.exec-3589.GoNoGo1";;;;;;;;;;;;;;;;;;;;;;;"1257";"2014-10-16 13:35:04.318";"NST_correctLoc";"5";"1";"FINISHED";"RIGHT";"success";"367";"0";"2014-10-16 13:35:03.055";"1";;;;;;;;;;;;;;;;;;;;;;;;;;;;;;;;;;;;;;;;;;;;;;;;;;;;;;;;;
"amyholley";;;"Windows 7";"Rachel's Experiment (D.T.)";"1.0";"2";"1";"1";"2";"1";"1";"2014-10-16 13:32:46.008";"2014-10-16 13:47:31.154";"1";"0";"1";"17";"16";"module.training_block1.exec-3589.GoNoGo1";;;;;;;;;;;;;;;;;;;;;;;"1261";"2014-10-16 13:35:06.861";"NST_correctLoc";"27";"0";"FINISHED";"LEFT";"success";"334";"0";"2014-10-16 13:35:05.597";"3";;;;;;;;;;;;;;;;;;;;;;;;;;;;;;;;;;;;;;;;;;;;;;;;;;;;;;;;;
"amyholley";;;"Windows 7";"Rachel's Experiment (D.T.)";"1.0";"2";"1";"1";"2";"1";"1";"2014-10-16 13:32:46.008";"2014-10-16 13:47:31.154";"1";"0";"1";"18";"17";"module.training_block1.exec-3589.GoNoGo1";;;;;;;;;;;;;;;;;;;;;;;"1257";"2014-10-16 13:35:09.404";"NST_correctLoc";"31";"0";"FINISHED";"LEFT";"success";"355";"0";"2014-10-16 13:35:08.140";"3";;;;;;;;;;;;;;;;;;;;;;;;;;;;;;;;;;;;;;;;;;;;;;;;;;;;;;;;;
"amyholley";;;"Windows 7";"Rachel's Experiment (D.T.)";"1.0";"2";"1";"1";"2";"1";"1";"2014-10-16 13:32:46.008";"2014-10-16 13:47:31.154";"1";"0";"1";"19";"18";"module.training_block1.exec-3589.GoNoGo1";;;;;;;;;;;;;;;;;;;;;;;"1258";"2014-10-16 13:35:11.947";"NST_correctLoc";"25";"1";"FINISHED";"RIGHT";"success";"317";"0";"2014-10-16 13:35:10.683";"3";;;;;;;;;;;;;;;;;;;;;;;;;;;;;;;;;;;;;;;;;;;;;;;;;;;;;;;;;
"amyholley";;;"Windows 7";"Rachel's Experiment (D.T.)";"1.0";"2";"1";"1";"2";"1";"1";"2014-10-16 13:32:46.008";"2014-10-16 13:47:31.154";"1";"0";"1";"20";"19";"module.training_block1.exec-3589.GoNoGo1";;;;;;;;;;;;;;;;;;;;;;;"1257";"2014-10-16 13:35:14.489";"NST_correctLoc";"35";"0";"FINISHED";"LEFT";"success";"309";"0";"2014-10-16 13:35:13.226";"3";;;;;;;;;;;;;;;;;;;;;;;;;;;;;;;;;;;;;;;;;;;;;;;;;;;;;;;;;
"amyholley";;;"Windows 7";"Rachel's Experiment (D.T.)";"1.0";"2";"1";"1";"2";"1";"1";"2014-10-16 13:32:46.008";"2014-10-16 13:47:31.154";"1";"0";"1";"21";"20";"module.training_block1.exec-3589.GoNoGo1";;;;;;;;;;;;;;;;;;;;;;;"1258";"2014-10-16 13:35:17.032";"NST_correctLoc";"28";"1";"FINISHED";"RIGHT";"success";"311";"0";"2014-10-16 13:35:15.769";"3";;;;;;;;;;;;;;;;;;;;;;;;;;;;;;;;;;;;;;;;;;;;;;;;;;;;;;;;;
"amyholley";;;"Windows 7";"Rachel's Experiment (D.T.)";"1.0";"2";"1";"1";"2";"1";"1";"2014-10-16 13:32:46.008";"2014-10-16 13:47:31.154";"1";"0";"1";"22";"21";"module.training_block1.exec-3589.GoNoGo1";;;;;;;;;;;;;;;;;;;;;;;"1257";"2014-10-16 13:35:19.575";"NST_correctLoc";"26";"1";"FINISHED";"RIGHT";"success";"320";"0";"2014-10-16 13:35:18.311";"3";;;;;;;;;;;;;;;;;;;;;;;;;;;;;;;;;;;;;;;;;;;;;;;;;;;;;;;;;
"amyholley";;;"Windows 7";"Rachel's Experiment (D.T.)";"1.0";"2";"1";"1";"2";"1";"1";"2014-10-16 13:32:46.008";"2014-10-16 13:47:31.154";"1";"0";"1";"23";"22";"module.training_block1.exec-3589.GoNoGo1";;;;;;;;;;;;;;;;;;;;;;;"1258";"2014-10-16 13:35:22.118";"NST_correctLoc";"1";"0";"FINISHED";"LEFT";"success";"290";"0";"2014-10-16 13:35:20.854";"1";;;;;;;;;;;;;;;;;;;;;;;;;;;;;;;;;;;;;;;;;;;;;;;;;;;;;;;;;
"amyholley";;;"Windows 7";"Rachel's Experiment (D.T.)";"1.0";"2";"1";"1";"2";"1";"1";"2014-10-16 13:32:46.008";"2014-10-16 13:47:31.154";"1";"0";"1";"24";"23";"module.training_block1.exec-3589.GoNoGo1";;;;;;;;;;;;;;;;;;;;;;;"1258";"2014-10-16 13:35:24.661";"NST_correctLoc";"19";"0";"FINISHED";"LEFT";"success";"306";"0";"2014-10-16 13:35:23.397";"3";;;;;;;;;;;;;;;;;;;;;;;;;;;;;;;;;;;;;;;;;;;;;;;;;;;;;;;;;
"amyholley";;;"Windows 7";"Rachel's Experiment (D.T.)";"1.0";"2";"1";"1";"2";"1";"1";"2014-10-16 13:32:46.008";"2014-10-16 13:47:31.154";"1";"0";"1";"25";"24";"module.training_block1.exec-3589.GoNoGo1";;;;;;;;;;;;;;;;;;;;;;;"1258";"2014-10-16 13:35:27.203";"NST_correctLoc";"20";"1";"FINISHED";"RIGHT";"success";"268";"0";"2014-10-16 13:35:25.940";"3";;;;;;;;;;;;;;;;;;;;;;;;;;;;;;;;;;;;;;;;;;;;;;;;;;;;;;;;;
"amyholley";;;"Windows 7";"Rachel's Experiment (D.T.)";"1.0";"2";"1";"1";"2";"1";"1";"2014-10-16 13:32:46.008";"2014-10-16 13:47:31.154";"1";"0";"1";"26";"25";"module.training_block1.exec-3589.GoNoGo1";;;;;;;;;;;;;;;;;;;;;;;"1258";"2014-10-16 13:35:29.746";"NST_correctLoc";"12";"1";"FINISHED";"RIGHT";"success";"357";"0";"2014-10-16 13:35:28.483";"2";;;;;;;;;;;;;;;;;;;;;;;;;;;;;;;;;;;;;;;;;;;;;;;;;;;;;;;;;
"amyholley";;;"Windows 7";"Rachel's Experiment (D.T.)";"1.0";"2";"1";"1";"2";"1";"1";"2014-10-16 13:32:46.008";"2014-10-16 13:47:31.154";"1";"0";"1";"27";"26";"module.training_block1.exec-3589.GoNoGo1";;;;;;;;;;;;;;;;;;;;;;;"1257";"2014-10-16 13:35:32.289";"NST_correctLoc";"32";"1";"FINISHED";"RIGHT";"success";"317";"0";"2014-10-16 13:35:31.025";"3";;;;;;;;;;;;;;;;;;;;;;;;;;;;;;;;;;;;;;;;;;;;;;;;;;;;;;;;;
"amyholley";;;"Windows 7";"Rachel's Experiment (D.T.)";"1.0";"2";"1";"1";"2";"1";"1";"2014-10-16 13:32:46.008";"2014-10-16 13:47:31.154";"1";"0";"1";"28";"27";"module.training_block1.exec-3589.GoNoGo1";;;;;;;;;;;;;;;;;;;;;;;"1258";"2014-10-16 13:35:34.832";"NST_correctLoc";"33";"1";"FINISHED";"RIGHT";"success";"295";"0";"2014-10-16 13:35:33.568";"3";;;;;;;;;;;;;;;;;;;;;;;;;;;;;;;;;;;;;;;;;;;;;;;;;;;;;;;;;
"amyholley";;;"Windows 7";"Rachel's Experiment (D.T.)";"1.0";"2";"1";"1";"2";"1";"1";"2014-10-16 13:32:46.008";"2014-10-16 13:47:31.154";"1";"0";"1";"29";"28";"module.training_block1.exec-3589.GoNoGo1";;;;;;;;;;;;;;;;;;;;;;;"1252";"2014-10-16 13:35:37.375";"NST_correctLoc";"7";"0";"FINISHED";"LEFT";"success";"291";"0";"2014-10-16 13:35:36.111";"1";;;;;;;;;;;;;;;;;;;;;;;;;;;;;;;;;;;;;;;;;;;;;;;;;;;;;;;;;
"amyholley";;;"Windows 7";"Rachel's Experiment (D.T.)";"1.0";"2";"1";"1";"2";"1";"1";"2014-10-16 13:32:46.008";"2014-10-16 13:47:31.154";"1";"0";"1";"30";"29";"module.training_block1.exec-3589.GoNoGo1";;;;;;;;;;;;;;;;;;;;;;;"1258";"2014-10-16 13:35:39.918";"NST_correctLoc";"3";"1";"FINISHED";"RIGHT";"success";"338";"0";"2014-10-16 13:35:38.654";"1";;;;;;;;;;;;;;;;;;;;;;;;;;;;;;;;;;;;;;;;;;;;;;;;;;;;;;;;;
"amyholley";;;"Windows 7";"Rachel's Experiment (D.T.)";"1.0";"2";"1";"1";"2";"1";"1";"2014-10-16 13:32:46.008";"2014-10-16 13:47:31.154";"1";"0";"1";"31";"30";"module.training_block1.exec-3589.GoNoGo1";;;;;;;;;;;;;;;;;;;;;;;"1257";"2014-10-16 13:35:42.460";"NST_correctLoc";"21";"1";"FINISHED";"RIGHT";"success";"978";"0";"2014-10-16 13:35:41.197";"3";;;;;;;;;;;;;;;;;;;;;;;;;;;;;;;;;;;;;;;;;;;;;;;;;;;;;;;;;
"amyholley";;;"Windows 7";"Rachel's Experiment (D.T.)";"1.0";"2";"1";"1";"2";"1";"1";"2014-10-16 13:32:46.008";"2014-10-16 13:47:31.154";"1";"0";"1";"32";"31";"module.training_block1.exec-3589.GoNoGo1";;;;;;;;;;;;;;;;;;;;;;;"1257";"2014-10-16 13:35:45.003";"NST_correctLoc";"11";"1";"FINISHED";"RIGHT";"success";"331";"0";"2014-10-16 13:35:43.740";"2";;;;;;;;;;;;;;;;;;;;;;;;;;;;;;;;;;;;;;;;;;;;;;;;;;;;;;;;;
"amyholley";;;"Windows 7";"Rachel's Experiment (D.T.)";"1.0";"2";"1";"1";"2";"1";"1";"2014-10-16 13:32:46.008";"2014-10-16 13:47:31.154";"1";"0";"1";"33";"32";"module.training_block1.exec-3589.GoNoGo1";;;;;;;;;;;;;;;;;;;;;;;"1257";"2014-10-16 13:35:47.546";"NST_correctLoc";"2";"1";"FINISHED";"RIGHT";"success";"325";"0";"2014-10-16 13:35:46.282";"1";;;;;;;;;;;;;;;;;;;;;;;;;;;;;;;;;;;;;;;;;;;;;;;;;;;;;;;;;
"amyholley";;;"Windows 7";"Rachel's Experiment (D.T.)";"1.0";"2";"1";"1";"2";"1";"1";"2014-10-16 13:32:46.008";"2014-10-16 13:47:31.154";"1";"0";"1";"34";"33";"module.training_block1.exec-3589.GoNoGo1";;;;;;;;;;;;;;;;;;;;;;;"1257";"2014-10-16 13:35:50.089";"NST_correctLoc";"6";"1";"FINISHED";"RIGHT";"success";"286";"0";"2014-10-16 13:35:48.825";"1";;;;;;;;;;;;;;;;;;;;;;;;;;;;;;;;;;;;;;;;;;;;;;;;;;;;;;;;;
"amyholley";;;"Windows 7";"Rachel's Experiment (D.T.)";"1.0";"2";"1";"1";"2";"1";"1";"2014-10-16 13:32:46.008";"2014-10-16 13:47:31.154";"1";"0";"1";"35";"34";"module.training_block1.exec-3589.GoNoGo1";;;;;;;;;;;;;;;;;;;;;;;"1258";"2014-10-16 13:35:52.632";"NST_correctLoc";"18";"0";"FINISHED";"LEFT";"success";"360";"0";"2014-10-16 13:35:51.368";"3";;;;;;;;;;;;;;;;;;;;;;;;;;;;;;;;;;;;;;;;;;;;;;;;;;;;;;;;;
"amyholley";;;"Windows 7";"Rachel's Experiment (D.T.)";"1.0";"2";"1";"1";"2";"1";"1";"2014-10-16 13:32:46.008";"2014-10-16 13:47:31.154";"1";"0";"1";"36";"35";"module.training_block1.exec-3589.GoNoGo1";;;;;;;;;;;;;;;;;;;;;;;"1258";"2014-10-16 13:35:55.174";"NST_correctLoc";"9";"1";"FINISHED";"RIGHT";"success";"304";"0";"2014-10-16 13:35:53.911";"2";;;;;;;;;;;;;;;;;;;;;;;;;;;;;;;;;;;;;;;;;;;;;;;;;;;;;;;;;
"amyholley";;;"Windows 7";"Rachel's Experiment (D.T.)";"1.0";"2";"1";"1";"2";"1";"1";"2014-10-16 13:32:46.008";"2014-10-16 13:47:31.154";"1";"0";"1";"37";"36";"module.training_block1.exec-3589.GoNoGo1";;;;;;;;;;;;;;;;;;;;;;;"1257";"2014-10-16 13:35:57.717";"NST_correctLoc";"24";"1";"FINISHED";"RIGHT";"success";"489";"0";"2014-10-16 13:35:56.454";"3";;;;;;;;;;;;;;;;;;;;;;;;;;;;;;;;;;;;;;;;;;;;;;;;;;;;;;;;;
"amyholley";;;"Windows 7";"Rachel's Experiment (D.T.)";"1.0";"2";"1";"1";"2";"1";"1";"2014-10-16 13:32:46.008";"2014-10-16 13:47:31.154";"1";"0";"1";"38";"37";"module.training_block1.exec-3589.GoNoGo1";;;;;;;;;;;;;;;;;;;;;;;"1257";"2014-10-16 13:36:00.260";"NST_correctLoc";"14";"1";"FINISHED";"RIGHT";"success";"307";"0";"2014-10-16 13:35:58.996";"2";;;;;;;;;;;;;;;;;;;;;;;;;;;;;;;;;;;;;;;;;;;;;;;;;;;;;;;;;
"amyholley";;;"Windows 7";"Rachel's Experiment (D.T.)";"1.0";"2";"1";"1";"2";"1";"1";"2014-10-16 13:32:46.008";"2014-10-16 13:47:31.154";"1";"0";"1";"39";"38";"module.training_block1.exec-3589.GoNoGo1";;;;;;;;;;;;;;;;;;;;;;;"1258";"2014-10-16 13:36:02.803";"NST_correctLoc";"30";"1";"FINISHED";"RIGHT";"success";"524";"0";"2014-10-16 13:36:01.539";"3";;;;;;;;;;;;;;;;;;;;;;;;;;;;;;;;;;;;;;;;;;;;;;;;;;;;;;;;;
"amyholley";;;"Windows 7";"Rachel's Experiment (D.T.)";"1.0";"2";"1";"1";"2";"1";"1";"2014-10-16 13:32:46.008";"2014-10-16 13:47:31.154";"1";"0";"1";"40";"39";"module.training_block1.exec-3589.GoNoGo1";;;;;;;;;;;;;;;;;;;;;;;"1257";"2014-10-16 13:36:05.346";"NST_correctLoc";"17";"1";"FINISHED";"RIGHT";"success";"333";"0";"2014-10-16 13:36:04.082";"2";;;;;;;;;;;;;;;;;;;;;;;;;;;;;;;;;;;;;;;;;;;;;;;;;;;;;;;;;
"amyholley";;;"Windows 7";"Rachel's Experiment (D.T.)";"1.0";"2";"1";"1";"2";"1";"1";"2014-10-16 13:32:46.008";"2014-10-16 13:47:31.154";"1";"0";"1";"41";"40";"module.training_block1.exec-3589.GoNoGo1";;;;;;;;;;;;;;;;;;;;;;;"1258";"2014-10-16 13:36:07.888";"NST_correctLoc";"29";"0";"FINISHED";"LEFT";"success";"254";"0";"2014-10-16 13:36:06.625";"3";;;;;;;;;;;;;;;;;;;;;;;;;;;;;;;;;;;;;;;;;;;;;;;;;;;;;;;;;
"amyholley";;;"Windows 7";"Rachel's Experiment (D.T.)";"1.0";"2";"1";"1";"2";"1";"1";"2014-10-16 13:32:46.008";"2014-10-16 13:47:31.154";"1";"0";"1";"42";"41";"module.training_block1.exec-3589.GoNoGo1";;;;;;;;;;;;;;;;;;;;;;;"1257";"2014-10-16 13:36:10.431";"NST_correctLoc";"23";"1";"FINISHED";"RIGHT";"success";"319";"0";"2014-10-16 13:36:09.168";"3";;;;;;;;;;;;;;;;;;;;;;;;;;;;;;;;;;;;;;;;;;;;;;;;;;;;;;;;;
"amyholley";;;"Windows 7";"Rachel's Experiment (D.T.)";"1.0";"2";"1";"1";"2";"1";"1";"2014-10-16 13:32:46.008";"2014-10-16 13:47:31.154";"1";"0";"1";"43";"42";"module.training_block1.exec-3589.GoNoGo1";;;;;;;;;;;;;;;;;;;;;;;"1257";"2014-10-16 13:36:12.974";"NST_correctLoc";"8";"0";"FINISHED";"LEFT";"success";"241";"0";"2014-10-16 13:36:11.710";"1";;;;;;;;;;;;;;;;;;;;;;;;;;;;;;;;;;;;;;;;;;;;;;;;;;;;;;;;;
"amyholley";;;"Windows 7";"Rachel's Experiment (D.T.)";"1.0";"2";"1";"1";"2";"1";"1";"2014-10-16 13:32:46.008";"2014-10-16 13:47:31.154";"1";"0";"1";"44";"43";"module.training_block1.exec-3589.GoNoGo1";;;;;;;;;;;;;;;;;;;;;;;"1252";"2014-10-16 13:36:15.517";"NST_correctLoc";"16";"1";"FINISHED";"RIGHT";"success";"244";"0";"2014-10-16 13:36:14.253";"2";;;;;;;;;;;;;;;;;;;;;;;;;;;;;;;;;;;;;;;;;;;;;;;;;;;;;;;;;
"amyholley";;;"Windows 7";"Rachel's Experiment (D.T.)";"1.0";"2";"1";"1";"2";"1";"1";"2014-10-16 13:32:46.008";"2014-10-16 13:47:31.154";"1";"0";"1";"45";"44";"module.training_block1.exec-3589.GoNoGo1";;;;;;;;;;;;;;;;;;;;;;;"1258";"2014-10-16 13:36:18.060";"NST_correctLoc";"10";"0";"FINISHED";"LEFT";"success";"259";"0";"2014-10-16 13:36:16.796";"2";;;;;;;;;;;;;;;;;;;;;;;;;;;;;;;;;;;;;;;;;;;;;;;;;;;;;;;;;
"amyholley";;;"Windows 7";"Rachel's Experiment (D.T.)";"1.0";"2";"1";"1";"2";"1";"1";"2014-10-16 13:32:46.008";"2014-10-16 13:47:31.154";"1";"0";"1";"46";"45";"module.training_block1.exec-3589.GoNoGo1";;;;;;;;;;;;;;;;;;;;;;;"1257";"2014-10-16 13:36:20.602";"NST_correctLoc";"15";"0";"FINISHED";"LEFT";"success";"396";"0";"2014-10-16 13:36:19.339";"2";;;;;;;;;;;;;;;;;;;;;;;;;;;;;;;;;;;;;;;;;;;;;;;;;;;;;;;;;
"amyholley";;;"Windows 7";"Rachel's Experiment (D.T.)";"1.0";"2";"1";"1";"2";"1";"1";"2014-10-16 13:32:46.008";"2014-10-16 13:47:31.154";"1";"0";"1";"47";"46";"module.training_block1.exec-3589.GoNoGo1";;;;;;;;;;;;;;;;;;;;;;;"1258";"2014-10-16 13:36:23.176";"NST_correctLoc";"0";"1";"FINISHED";"RIGHT";"success";"318";"0";"2014-10-16 13:36:21.913";"1";;;;;;;;;;;;;;;;;;;;;;;;;;;;;;;;;;;;;;;;;;;;;;;;;;;;;;;;;
"amyholley";;;"Windows 7";"Rachel's Experiment (D.T.)";"1.0";"2";"1";"1";"2";"1";"1";"2014-10-16 13:32:46.008";"2014-10-16 13:47:31.154";"1";"0";"1";"48";"47";"module.training_block1.exec-3589.GoNoGo1";;;;;;;;;;;;;;;;;;;;;;;"1257";"2014-10-16 13:36:25.719";"NST_correctLoc";"13";"1";"FINISHED";"RIGHT";"success";"295";"0";"2014-10-16 13:36:24.456";"2";;;;;;;;;;;;;;;;;;;;;;;;;;;;;;;;;;;;;;;;;;;;;;;;;;;;;;;;;
"amyholley";;;"Windows 7";"Rachel's Experiment (D.T.)";"1.0";"2";"1";"1";"2";"1";"1";"2014-10-16 13:32:46.008";"2014-10-16 13:47:31.154";"1";"0";"1";"49";"48";"module.training_block1.exec-3589.GoNoGo1";;;;;;;;;;;;;;;;;;;;;;;"1258";"2014-10-16 13:36:28.262";"NST_correctLoc";"34";"0";"FINISHED";"LEFT";"success";"273";"0";"2014-10-16 13:36:26.998";"3";;;;;;;;;;;;;;;;;;;;;;;;;;;;;;;;;;;;;;;;;;;;;;;;;;;;;;;;;
"amyholley";;;"Windows 7";"Rachel's Experiment (D.T.)";"1.0";"2";"1";"1";"2";"1";"1";"2014-10-16 13:32:46.008";"2014-10-16 13:47:31.154";"1";"0";"1";"50";"49";"module.training_block1.exec-3589.GoNoGo1";;;;;;;;;;;;;;;;;;;;;;;"1257";"2014-10-16 13:36:30.805";"NST_wrongLoc";"4";"0";"FINISHED";"RIGHT";"failure";"305";"0";"2014-10-16 13:36:29.541";"1";;;;;;;;;;;;;;;;;;;;;;;;;;;;;;;;;;;;;;;;;;;;;;;;;;;;;;;;;
"amyholley";;;"Windows 7";"Rachel's Experiment (D.T.)";"1.0";"2";"1";"1";"2";"1";"1";"2014-10-16 13:32:46.008";"2014-10-16 13:47:31.154";"1";"0";"1";"51";"50";"module.training_block1.exec-3589.GoNoGo1";;;;;;;;;;;;;;;;;;;;;;;"1258";"2014-10-16 13:36:33.348";"NST_correctLoc";"22";"1";"FINISHED";"RIGHT";"success";"283";"0";"2014-10-16 13:36:32.084";"3";;;;;;;;;;;;;;;;;;;;;;;;;;;;;;;;;;;;;;;;;;;;;;;;;;;;;;;;;
"amyholley";;;"Windows 7";"Rachel's Experiment (D.T.)";"1.0";"2";"1";"1";"2";"1";"1";"2014-10-16 13:32:46.008";"2014-10-16 13:47:31.154";"1";"0";"1";"52";"51";"module.training_block2.exec-7235.GoNoGo2";;;;;;;;;;;;;;;;;;;;;;;;;;;;;;;;;;;"1261";"2014-10-16 13:36:45.204";"NST_correctLoc";"19";"1";"FINISHED";"RIGHT";"success";"414";"0";"2014-10-16 13:36:43.940";"3";;;;;;;;;;;;;;;;;;;;;;;;;;;;;;;;;;;;;;;;;;;;;
"amyholley";;;"Windows 7";"Rachel's Experiment (D.T.)";"1.0";"2";"1";"1";"2";"1";"1";"2014-10-16 13:32:46.008";"2014-10-16 13:47:31.154";"1";"0";"1";"53";"52";"module.training_block2.exec-7235.GoNoGo2";;;;;;;;;;;;;;;;;;;;;;;;;;;;;;;;;;;"1261";"2014-10-16 13:36:47.746";"NST_correctLoc";"5";"1";"FINISHED";"RIGHT";"success";"272";"0";"2014-10-16 13:36:46.483";"1";;;;;;;;;;;;;;;;;;;;;;;;;;;;;;;;;;;;;;;;;;;;;
"amyholley";;;"Windows 7";"Rachel's Experiment (D.T.)";"1.0";"2";"1";"1";"2";"1";"1";"2014-10-16 13:32:46.008";"2014-10-16 13:47:31.154";"1";"0";"1";"54";"53";"module.training_block2.exec-7235.GoNoGo2";;;;;;;;;;;;;;;;;;;;;;;;;;;;;;;;;;;"1261";"2014-10-16 13:36:50.289";"NST_correctLoc";"25";"1";"FINISHED";"RIGHT";"success";"313";"0";"2014-10-16 13:36:49.026";"3";;;;;;;;;;;;;;;;;;;;;;;;;;;;;;;;;;;;;;;;;;;;;
"amyholley";;;"Windows 7";"Rachel's Experiment (D.T.)";"1.0";"2";"1";"1";"2";"1";"1";"2014-10-16 13:32:46.008";"2014-10-16 13:47:31.154";"1";"0";"1";"55";"54";"module.training_block2.exec-7235.GoNoGo2";;;;;;;;;;;;;;;;;;;;;;;;;;;;;;;;;;;"1261";"2014-10-16 13:36:52.832";"NST_correctLoc";"35";"0";"FINISHED";"LEFT";"success";"282";"0";"2014-10-16 13:36:51.568";"3";;;;;;;;;;;;;;;;;;;;;;;;;;;;;;;;;;;;;;;;;;;;;
"amyholley";;;"Windows 7";"Rachel's Experiment (D.T.)";"1.0";"2";"1";"1";"2";"1";"1";"2014-10-16 13:32:46.008";"2014-10-16 13:47:31.154";"1";"0";"1";"56";"55";"module.training_block2.exec-7235.GoNoGo2";;;;;;;;;;;;;;;;;;;;;;;;;;;;;;;;;;;"1261";"2014-10-16 13:36:55.375";"NST_correctLoc";"13";"1";"FINISHED";"RIGHT";"success";"323";"0";"2014-10-16 13:36:54.111";"2";;;;;;;;;;;;;;;;;;;;;;;;;;;;;;;;;;;;;;;;;;;;;
"amyholley";;;"Windows 7";"Rachel's Experiment (D.T.)";"1.0";"2";"1";"1";"2";"1";"1";"2014-10-16 13:32:46.008";"2014-10-16 13:47:31.154";"1";"0";"1";"57";"56";"module.training_block2.exec-7235.GoNoGo2";;;;;;;;;;;;;;;;;;;;;;;;;;;;;;;;;;;"1261";"2014-10-16 13:36:57.918";"NST_correctLoc";"24";"0";"FINISHED";"LEFT";"success";"284";"0";"2014-10-16 13:36:56.654";"3";;;;;;;;;;;;;;;;;;;;;;;;;;;;;;;;;;;;;;;;;;;;;
"amyholley";;;"Windows 7";"Rachel's Experiment (D.T.)";"1.0";"2";"1";"1";"2";"1";"1";"2014-10-16 13:32:46.008";"2014-10-16 13:47:31.154";"1";"0";"1";"58";"57";"module.training_block2.exec-7235.GoNoGo2";;;;;;;;;;;;;;;;;;;;;;;;;;;;;;;;;;;"1261";"2014-10-16 13:37:00.460";"NST_correctLoc";"10";"0";"FINISHED";"LEFT";"success";"334";"0";"2014-10-16 13:36:59.197";"2";;;;;;;;;;;;;;;;;;;;;;;;;;;;;;;;;;;;;;;;;;;;;
"amyholley";;;"Windows 7";"Rachel's Experiment (D.T.)";"1.0";"2";"1";"1";"2";"1";"1";"2014-10-16 13:32:46.008";"2014-10-16 13:47:31.154";"1";"0";"1";"59";"58";"module.training_block2.exec-7235.GoNoGo2";;;;;;;;;;;;;;;;;;;;;;;;;;;;;;;;;;;"1261";"2014-10-16 13:37:03.003";"NST_correctLoc";"2";"0";"FINISHED";"LEFT";"success";"335";"0";"2014-10-16 13:37:01.740";"1";;;;;;;;;;;;;;;;;;;;;;;;;;;;;;;;;;;;;;;;;;;;;
"amyholley";;;"Windows 7";"Rachel's Experiment (D.T.)";"1.0";"2";"1";"1";"2";"1";"1";"2014-10-16 13:32:46.008";"2014-10-16 13:47:31.154";"1";"0";"1";"60";"59";"module.training_block2.exec-7235.GoNoGo2";;;;;;;;;;;;;;;;;;;;;;;;;;;;;;;;;;;"1261";"2014-10-16 13:37:05.546";"NST_correctLoc";"6";"0";"FINISHED";"LEFT";"success";"280";"0";"2014-10-16 13:37:04.282";"1";;;;;;;;;;;;;;;;;;;;;;;;;;;;;;;;;;;;;;;;;;;;;
"amyholley";;;"Windows 7";"Rachel's Experiment (D.T.)";"1.0";"2";"1";"1";"2";"1";"1";"2014-10-16 13:32:46.008";"2014-10-16 13:47:31.154";"1";"0";"1";"61";"60";"module.training_block2.exec-7235.GoNoGo2";;;;;;;;;;;;;;;;;;;;;;;;;;;;;;;;;;;"1261";"2014-10-16 13:37:08.089";"NST_correctLoc";"21";"0";"FINISHED";"LEFT";"success";"321";"0";"2014-10-16 13:37:06.825";"3";;;;;;;;;;;;;;;;;;;;;;;;;;;;;;;;;;;;;;;;;;;;;
"amyholley";;;"Windows 7";"Rachel's Experiment (D.T.)";"1.0";"2";"1";"1";"2";"1";"1";"2014-10-16 13:32:46.008";"2014-10-16 13:47:31.154";"1";"0";"1";"62";"61";"module.training_block2.exec-7235.GoNoGo2";;;;;;;;;;;;;;;;;;;;;;;;;;;;;;;;;;;"1261";"2014-10-16 13:37:10.632";"NST_correctLoc";"0";"1";"FINISHED";"RIGHT";"success";"426";"0";"2014-10-16 13:37:09.368";"1";;;;;;;;;;;;;;;;;;;;;;;;;;;;;;;;;;;;;;;;;;;;;
"amyholley";;;"Windows 7";"Rachel's Experiment (D.T.)";"1.0";"2";"1";"1";"2";"1";"1";"2014-10-16 13:32:46.008";"2014-10-16 13:47:31.154";"1";"0";"1";"63";"62";"module.training_block2.exec-7235.GoNoGo2";;;;;;;;;;;;;;;;;;;;;;;;;;;;;;;;;;;"1261";"2014-10-16 13:37:13.174";"NST_wrongLoc";"30";"1";"FINISHED";"LEFT";"failure";"371";"0";"2014-10-16 13:37:11.911";"3";;;;;;;;;;;;;;;;;;;;;;;;;;;;;;;;;;;;;;;;;;;;;
"amyholley";;;"Windows 7";"Rachel's Experiment (D.T.)";"1.0";"2";"1";"1";"2";"1";"1";"2014-10-16 13:32:46.008";"2014-10-16 13:47:31.154";"1";"0";"1";"64";"63";"module.training_block2.exec-7235.GoNoGo2";;;;;;;;;;;;;;;;;;;;;;;;;;;;;;;;;;;"1261";"2014-10-16 13:37:15.717";"NST_correctLoc";"20";"0";"FINISHED";"LEFT";"success";"677";"0";"2014-10-16 13:37:14.454";"3";;;;;;;;;;;;;;;;;;;;;;;;;;;;;;;;;;;;;;;;;;;;;
"amyholley";;;"Windows 7";"Rachel's Experiment (D.T.)";"1.0";"2";"1";"1";"2";"1";"1";"2014-10-16 13:32:46.008";"2014-10-16 13:47:31.154";"1";"0";"1";"65";"64";"module.training_block2.exec-7235.GoNoGo2";;;;;;;;;;;;;;;;;;;;;;;;;;;;;;;;;;;"1261";"2014-10-16 13:37:18.260";"NST_correctLoc";"15";"1";"FINISHED";"RIGHT";"success";"310";"0";"2014-10-16 13:37:16.996";"2";;;;;;;;;;;;;;;;;;;;;;;;;;;;;;;;;;;;;;;;;;;;;
"amyholley";;;"Windows 7";"Rachel's Experiment (D.T.)";"1.0";"2";"1";"1";"2";"1";"1";"2014-10-16 13:32:46.008";"2014-10-16 13:47:31.154";"1";"0";"1";"66";"65";"module.training_block2.exec-7235.GoNoGo2";;;;;;;;;;;;;;;;;;;;;;;;;;;;;;;;;;;"1261";"2014-10-16 13:37:20.818";"NST_correctLoc";"34";"1";"FINISHED";"RIGHT";"success";"455";"0";"2014-10-16 13:37:19.555";"3";;;;;;;;;;;;;;;;;;;;;;;;;;;;;;;;;;;;;;;;;;;;;
"amyholley";;;"Windows 7";"Rachel's Experiment (D.T.)";"1.0";"2";"1";"1";"2";"1";"1";"2014-10-16 13:32:46.008";"2014-10-16 13:47:31.154";"1";"0";"1";"67";"66";"module.training_block2.exec-7235.GoNoGo2";;;;;;;;;;;;;;;;;;;;;;;;;;;;;;;;;;;"1261";"2014-10-16 13:37:23.361";"NST_correctLoc";"7";"0";"FINISHED";"LEFT";"success";"337";"0";"2014-10-16 13:37:22.098";"1";;;;;;;;;;;;;;;;;;;;;;;;;;;;;;;;;;;;;;;;;;;;;
"amyholley";;;"Windows 7";"Rachel's Experiment (D.T.)";"1.0";"2";"1";"1";"2";"1";"1";"2014-10-16 13:32:46.008";"2014-10-16 13:47:31.154";"1";"0";"1";"68";"67";"module.training_block2.exec-7235.GoNoGo2";;;;;;;;;;;;;;;;;;;;;;;;;;;;;;;;;;;"1261";"2014-10-16 13:37:25.904";"NST_correctLoc";"22";"0";"FINISHED";"LEFT";"success";"450";"0";"2014-10-16 13:37:24.640";"3";;;;;;;;;;;;;;;;;;;;;;;;;;;;;;;;;;;;;;;;;;;;;
"amyholley";;;"Windows 7";"Rachel's Experiment (D.T.)";"1.0";"2";"1";"1";"2";"1";"1";"2014-10-16 13:32:46.008";"2014-10-16 13:47:31.154";"1";"0";"1";"69";"68";"module.training_block2.exec-7235.GoNoGo2";;;;;;;;;;;;;;;;;;;;;;;;;;;;;;;;;;;"1261";"2014-10-16 13:37:28.447";"NST_correctLoc";"23";"0";"FINISHED";"LEFT";"success";"411";"0";"2014-10-16 13:37:27.183";"3";;;;;;;;;;;;;;;;;;;;;;;;;;;;;;;;;;;;;;;;;;;;;
"amyholley";;;"Windows 7";"Rachel's Experiment (D.T.)";"1.0";"2";"1";"1";"2";"1";"1";"2014-10-16 13:32:46.008";"2014-10-16 13:47:31.154";"1";"0";"1";"70";"69";"module.training_block2.exec-7235.GoNoGo2";;;;;;;;;;;;;;;;;;;;;;;;;;;;;;;;;;;"1261";"2014-10-16 13:37:30.990";"NST_correctLoc";"26";"0";"FINISHED";"LEFT";"success";"268";"0";"2014-10-16 13:37:29.726";"3";;;;;;;;;;;;;;;;;;;;;;;;;;;;;;;;;;;;;;;;;;;;;
"amyholley";;;"Windows 7";"Rachel's Experiment (D.T.)";"1.0";"2";"1";"1";"2";"1";"1";"2014-10-16 13:32:46.008";"2014-10-16 13:47:31.154";"1";"0";"1";"71";"70";"module.training_block2.exec-7235.GoNoGo2";;;;;;;;;;;;;;;;;;;;;;;;;;;;;;;;;;;"1261";"2014-10-16 13:37:33.533";"NST_correctLoc";"11";"1";"FINISHED";"RIGHT";"success";"677";"0";"2014-10-16 13:37:32.269";"2";;;;;;;;;;;;;;;;;;;;;;;;;;;;;;;;;;;;;;;;;;;;;
"amyholley";;;"Windows 7";"Rachel's Experiment (D.T.)";"1.0";"2";"1";"1";"2";"1";"1";"2014-10-16 13:32:46.008";"2014-10-16 13:47:31.154";"1";"0";"1";"72";"71";"module.training_block2.exec-7235.GoNoGo2";;;;;;;;;;;;;;;;;;;;;;;;;;;;;;;;;;;"1261";"2014-10-16 13:37:36.091";"NST_correctLoc";"14";"0";"FINISHED";"LEFT";"success";"303";"0";"2014-10-16 13:37:34.827";"2";;;;;;;;;;;;;;;;;;;;;;;;;;;;;;;;;;;;;;;;;;;;;
"amyholley";;;"Windows 7";"Rachel's Experiment (D.T.)";"1.0";"2";"1";"1";"2";"1";"1";"2014-10-16 13:32:46.008";"2014-10-16 13:47:31.154";"1";"0";"1";"73";"72";"module.training_block2.exec-7235.GoNoGo2";;;;;;;;;;;;;;;;;;;;;;;;;;;;;;;;;;;"1261";"2014-10-16 13:37:38.634";"NST_correctLoc";"8";"0";"FINISHED";"LEFT";"success";"328";"0";"2014-10-16 13:37:37.370";"1";;;;;;;;;;;;;;;;;;;;;;;;;;;;;;;;;;;;;;;;;;;;;
"amyholley";;;"Windows 7";"Rachel's Experiment (D.T.)";"1.0";"2";"1";"1";"2";"1";"1";"2014-10-16 13:32:46.008";"2014-10-16 13:47:31.154";"1";"0";"1";"74";"73";"module.training_block2.exec-7235.GoNoGo2";;;;;;;;;;;;;;;;;;;;;;;;;;;;;;;;;;;"1261";"2014-10-16 13:37:41.177";"NST_correctLoc";"29";"1";"FINISHED";"RIGHT";"success";"313";"0";"2014-10-16 13:37:39.913";"3";;;;;;;;;;;;;;;;;;;;;;;;;;;;;;;;;;;;;;;;;;;;;
"amyholley";;;"Windows 7";"Rachel's Experiment (D.T.)";"1.0";"2";"1";"1";"2";"1";"1";"2014-10-16 13:32:46.008";"2014-10-16 13:47:31.154";"1";"0";"1";"75";"74";"module.training_block2.exec-7235.GoNoGo2";;;;;;;;;;;;;;;;;;;;;;;;;;;;;;;;;;;"1261";"2014-10-16 13:37:43.719";"NST_correctLoc";"12";"0";"FINISHED";"LEFT";"success";"283";"0";"2014-10-16 13:37:42.456";"2";;;;;;;;;;;;;;;;;;;;;;;;;;;;;;;;;;;;;;;;;;;;;
"amyholley";;;"Windows 7";"Rachel's Experiment (D.T.)";"1.0";"2";"1";"1";"2";"1";"1";"2014-10-16 13:32:46.008";"2014-10-16 13:47:31.154";"1";"0";"1";"76";"75";"module.training_block2.exec-7235.GoNoGo2";;;;;;;;;;;;;;;;;;;;;;;;;;;;;;;;;;;"1261";"2014-10-16 13:37:46.262";"NST_correctLoc";"18";"0";"FINISHED";"LEFT";"success";"404";"0";"2014-10-16 13:37:44.999";"3";;;;;;;;;;;;;;;;;;;;;;;;;;;;;;;;;;;;;;;;;;;;;
"amyholley";;;"Windows 7";"Rachel's Experiment (D.T.)";"1.0";"2";"1";"1";"2";"1";"1";"2014-10-16 13:32:46.008";"2014-10-16 13:47:31.154";"1";"0";"1";"77";"76";"module.training_block2.exec-7235.GoNoGo2";;;;;;;;;;;;;;;;;;;;;;;;;;;;;;;;;;;"1261";"2014-10-16 13:37:48.805";"NST_correctLoc";"27";"0";"FINISHED";"LEFT";"success";"405";"0";"2014-10-16 13:37:47.541";"3";;;;;;;;;;;;;;;;;;;;;;;;;;;;;;;;;;;;;;;;;;;;;
"amyholley";;;"Windows 7";"Rachel's Experiment (D.T.)";"1.0";"2";"1";"1";"2";"1";"1";"2014-10-16 13:32:46.008";"2014-10-16 13:47:31.154";"1";"0";"1";"78";"77";"module.training_block2.exec-7235.GoNoGo2";;;;;;;;;;;;;;;;;;;;;;;;;;;;;;;;;;;"1261";"2014-10-16 13:37:51.348";"NST_correctLoc";"17";"0";"FINISHED";"LEFT";"success";"622";"0";"2014-10-16 13:37:50.084";"2";;;;;;;;;;;;;;;;;;;;;;;;;;;;;;;;;;;;;;;;;;;;;
"amyholley";;;"Windows 7";"Rachel's Experiment (D.T.)";"1.0";"2";"1";"1";"2";"1";"1";"2014-10-16 13:32:46.008";"2014-10-16 13:47:31.154";"1";"0";"1";"79";"78";"module.training_block2.exec-7235.GoNoGo2";;;;;;;;;;;;;;;;;;;;;;;;;;;;;;;;;;;"1261";"2014-10-16 13:37:53.891";"NST_correctLoc";"3";"0";"FINISHED";"LEFT";"success";"335";"0";"2014-10-16 13:37:52.627";"1";;;;;;;;;;;;;;;;;;;;;;;;;;;;;;;;;;;;;;;;;;;;;
"amyholley";;;"Windows 7";"Rachel's Experiment (D.T.)";"1.0";"2";"1";"1";"2";"1";"1";"2014-10-16 13:32:46.008";"2014-10-16 13:47:31.154";"1";"0";"1";"80";"79";"module.training_block2.exec-7235.GoNoGo2";;;;;;;;;;;;;;;;;;;;;;;;;;;;;;;;;;;"1261";"2014-10-16 13:37:56.433";"NST_correctLoc";"28";"1";"FINISHED";"RIGHT";"success";"344";"0";"2014-10-16 13:37:55.170";"3";;;;;;;;;;;;;;;;;;;;;;;;;;;;;;;;;;;;;;;;;;;;;
"amyholley";;;"Windows 7";"Rachel's Experiment (D.T.)";"1.0";"2";"1";"1";"2";"1";"1";"2014-10-16 13:32:46.008";"2014-10-16 13:47:31.154";"1";"0";"1";"81";"80";"module.training_block2.exec-7235.GoNoGo2";;;;;;;;;;;;;;;;;;;;;;;;;;;;;;;;;;;"1261";"2014-10-16 13:37:58.992";"NST_correctLoc";"1";"0";"FINISHED";"LEFT";"success";"338";"0";"2014-10-16 13:37:57.728";"1";;;;;;;;;;;;;;;;;;;;;;;;;;;;;;;;;;;;;;;;;;;;;
"amyholley";;;"Windows 7";"Rachel's Experiment (D.T.)";"1.0";"2";"1";"1";"2";"1";"1";"2014-10-16 13:32:46.008";"2014-10-16 13:47:31.154";"1";"0";"1";"82";"81";"module.training_block2.exec-7235.GoNoGo2";;;;;;;;;;;;;;;;;;;;;;;;;;;;;;;;;;;"1261";"2014-10-16 13:38:01.535";"NST_correctLoc";"9";"1";"FINISHED";"RIGHT";"success";"379";"0";"2014-10-16 13:38:00.271";"2";;;;;;;;;;;;;;;;;;;;;;;;;;;;;;;;;;;;;;;;;;;;;
"amyholley";;;"Windows 7";"Rachel's Experiment (D.T.)";"1.0";"2";"1";"1";"2";"1";"1";"2014-10-16 13:32:46.008";"2014-10-16 13:47:31.154";"1";"0";"1";"83";"82";"module.training_block2.exec-7235.GoNoGo2";;;;;;;;;;;;;;;;;;;;;;;;;;;;;;;;;;;"1261";"2014-10-16 13:38:04.077";"NST_correctLoc";"32";"1";"FINISHED";"RIGHT";"success";"388";"0";"2014-10-16 13:38:02.814";"3";;;;;;;;;;;;;;;;;;;;;;;;;;;;;;;;;;;;;;;;;;;;;
"amyholley";;;"Windows 7";"Rachel's Experiment (D.T.)";"1.0";"2";"1";"1";"2";"1";"1";"2014-10-16 13:32:46.008";"2014-10-16 13:47:31.154";"1";"0";"1";"84";"83";"module.training_block2.exec-7235.GoNoGo2";;;;;;;;;;;;;;;;;;;;;;;;;;;;;;;;;;;"1261";"2014-10-16 13:38:06.620";"NST_correctLoc";"31";"1";"FINISHED";"RIGHT";"success";"342";"0";"2014-10-16 13:38:05.357";"3";;;;;;;;;;;;;;;;;;;;;;;;;;;;;;;;;;;;;;;;;;;;;
"amyholley";;;"Windows 7";"Rachel's Experiment (D.T.)";"1.0";"2";"1";"1";"2";"1";"1";"2014-10-16 13:32:46.008";"2014-10-16 13:47:31.154";"1";"0";"1";"85";"84";"module.training_block2.exec-7235.GoNoGo2";;;;;;;;;;;;;;;;;;;;;;;;;;;;;;;;;;;"1261";"2014-10-16 13:38:09.163";"NST_correctLoc";"33";"0";"FINISHED";"LEFT";"success";"383";"0";"2014-10-16 13:38:07.899";"3";;;;;;;;;;;;;;;;;;;;;;;;;;;;;;;;;;;;;;;;;;;;;
"amyholley";;;"Windows 7";"Rachel's Experiment (D.T.)";"1.0";"2";"1";"1";"2";"1";"1";"2014-10-16 13:32:46.008";"2014-10-16 13:47:31.154";"1";"0";"1";"86";"85";"module.training_block2.exec-7235.GoNoGo2";;;;;;;;;;;;;;;;;;;;;;;;;;;;;;;;;;;"1261";"2014-10-16 13:38:11.706";"NST_correctLoc";"16";"0";"FINISHED";"LEFT";"success";"328";"0";"2014-10-16 13:38:10.442";"2";;;;;;;;;;;;;;;;;;;;;;;;;;;;;;;;;;;;;;;;;;;;;
"amyholley";;;"Windows 7";"Rachel's Experiment (D.T.)";"1.0";"2";"1";"1";"2";"1";"1";"2014-10-16 13:32:46.008";"2014-10-16 13:47:31.154";"1";"0";"1";"87";"86";"module.training_block2.exec-7235.GoNoGo2";;;;;;;;;;;;;;;;;;;;;;;;;;;;;;;;;;;"1261";"2014-10-16 13:38:14.249";"NST_correctLoc";"4";"0";"FINISHED";"LEFT";"success";"465";"0";"2014-10-16 13:38:12.985";"1";;;;;;;;;;;;;;;;;;;;;;;;;;;;;;;;;;;;;;;;;;;;;
"amyholley";;;"Windows 7";"Rachel's Experiment (D.T.)";"1.0";"2";"1";"1";"2";"1";"1";"2014-10-16 13:32:46.008";"2014-10-16 13:47:31.154";"1";"0";"1";"88";"87";"module.training_block3.exec-7483.GoNoGo3";;;;;;;;;;;;;;;;;;;;;;;;;;;;;;;;;;;;;;;;;;;;;;;"1261";"2014-10-16 13:38:26.370";"NST_correctLoc";"21";"1";"FINISHED";"RIGHT";"success";"408";"0";"2014-10-16 13:38:25.106";"3";;;;;;;;;;;;;;;;;;;;;;;;;;;;;;;;;
"amyholley";;;"Windows 7";"Rachel's Experiment (D.T.)";"1.0";"2";"1";"1";"2";"1";"1";"2014-10-16 13:32:46.008";"2014-10-16 13:47:31.154";"1";"0";"1";"89";"88";"module.training_block3.exec-7483.GoNoGo3";;;;;;;;;;;;;;;;;;;;;;;;;;;;;;;;;;;;;;;;;;;;;;;"1261";"2014-10-16 13:38:28.913";"NST_correctLoc";"15";"1";"FINISHED";"RIGHT";"success";"361";"0";"2014-10-16 13:38:27.649";"2";;;;;;;;;;;;;;;;;;;;;;;;;;;;;;;;;
"amyholley";;;"Windows 7";"Rachel's Experiment (D.T.)";"1.0";"2";"1";"1";"2";"1";"1";"2014-10-16 13:32:46.008";"2014-10-16 13:47:31.154";"1";"0";"1";"90";"89";"module.training_block3.exec-7483.GoNoGo3";;;;;;;;;;;;;;;;;;;;;;;;;;;;;;;;;;;;;;;;;;;;;;;"1261";"2014-10-16 13:38:31.455";"NST_correctLoc";"3";"1";"FINISHED";"RIGHT";"success";"330";"0";"2014-10-16 13:38:30.192";"1";;;;;;;;;;;;;;;;;;;;;;;;;;;;;;;;;
"amyholley";;;"Windows 7";"Rachel's Experiment (D.T.)";"1.0";"2";"1";"1";"2";"1";"1";"2014-10-16 13:32:46.008";"2014-10-16 13:47:31.154";"1";"0";"1";"91";"90";"module.training_block3.exec-7483.GoNoGo3";;;;;;;;;;;;;;;;;;;;;;;;;;;;;;;;;;;;;;;;;;;;;;;"1261";"2014-10-16 13:38:33.998";"NST_correctLoc";"12";"0";"FINISHED";"LEFT";"success";"307";"0";"2014-10-16 13:38:32.735";"2";;;;;;;;;;;;;;;;;;;;;;;;;;;;;;;;;
"amyholley";;;"Windows 7";"Rachel's Experiment (D.T.)";"1.0";"2";"1";"1";"2";"1";"1";"2014-10-16 13:32:46.008";"2014-10-16 13:47:31.154";"1";"0";"1";"92";"91";"module.training_block3.exec-7483.GoNoGo3";;;;;;;;;;;;;;;;;;;;;;;;;;;;;;;;;;;;;;;;;;;;;;;"1261";"2014-10-16 13:38:36.541";"NST_correctLoc";"23";"0";"FINISHED";"LEFT";"success";"389";"0";"2014-10-16 13:38:35.277";"3";;;;;;;;;;;;;;;;;;;;;;;;;;;;;;;;;
"amyholley";;;"Windows 7";"Rachel's Experiment (D.T.)";"1.0";"2";"1";"1";"2";"1";"1";"2014-10-16 13:32:46.008";"2014-10-16 13:47:31.154";"1";"0";"1";"93";"92";"module.training_block3.exec-7483.GoNoGo3";;;;;;;;;;;;;;;;;;;;;;;;;;;;;;;;;;;;;;;;;;;;;;;"1261";"2014-10-16 13:38:39.084";"NST_correctLoc";"24";"0";"FINISHED";"LEFT";"success";"350";"0";"2014-10-16 13:38:37.820";"3";;;;;;;;;;;;;;;;;;;;;;;;;;;;;;;;;
"amyholley";;;"Windows 7";"Rachel's Experiment (D.T.)";"1.0";"2";"1";"1";"2";"1";"1";"2014-10-16 13:32:46.008";"2014-10-16 13:47:31.154";"1";"0";"1";"94";"93";"module.training_block3.exec-7483.GoNoGo3";;;;;;;;;;;;;;;;;;;;;;;;;;;;;;;;;;;;;;;;;;;;;;;"1262";"2014-10-16 13:38:41.627";"NST_correctLoc";"32";"0";"FINISHED";"LEFT";"success";"383";"0";"2014-10-16 13:38:40.363";"3";;;;;;;;;;;;;;;;;;;;;;;;;;;;;;;;;
"amyholley";;;"Windows 7";"Rachel's Experiment (D.T.)";"1.0";"2";"1";"1";"2";"1";"1";"2014-10-16 13:32:46.008";"2014-10-16 13:47:31.154";"1";"0";"1";"95";"94";"module.training_block3.exec-7483.GoNoGo3";;;;;;;;;;;;;;;;;;;;;;;;;;;;;;;;;;;;;;;;;;;;;;;"1262";"2014-10-16 13:38:44.169";"NST_correctLoc";"9";"1";"FINISHED";"RIGHT";"success";"296";"0";"2014-10-16 13:38:42.906";"2";;;;;;;;;;;;;;;;;;;;;;;;;;;;;;;;;
"amyholley";;;"Windows 7";"Rachel's Experiment (D.T.)";"1.0";"2";"1";"1";"2";"1";"1";"2014-10-16 13:32:46.008";"2014-10-16 13:47:31.154";"1";"0";"1";"96";"95";"module.training_block3.exec-7483.GoNoGo3";;;;;;;;;;;;;;;;;;;;;;;;;;;;;;;;;;;;;;;;;;;;;;;"1261";"2014-10-16 13:38:46.712";"NST_correctLoc";"16";"1";"FINISHED";"RIGHT";"success";"329";"0";"2014-10-16 13:38:45.449";"2";;;;;;;;;;;;;;;;;;;;;;;;;;;;;;;;;
"amyholley";;;"Windows 7";"Rachel's Experiment (D.T.)";"1.0";"2";"1";"1";"2";"1";"1";"2014-10-16 13:32:46.008";"2014-10-16 13:47:31.154";"1";"0";"1";"97";"96";"module.training_block3.exec-7483.GoNoGo3";;;;;;;;;;;;;;;;;;;;;;;;;;;;;;;;;;;;;;;;;;;;;;;"1261";"2014-10-16 13:38:49.255";"NST_correctLoc";"4";"1";"FINISHED";"RIGHT";"success";"330";"0";"2014-10-16 13:38:47.991";"1";;;;;;;;;;;;;;;;;;;;;;;;;;;;;;;;;
"amyholley";;;"Windows 7";"Rachel's Experiment (D.T.)";"1.0";"2";"1";"1";"2";"1";"1";"2014-10-16 13:32:46.008";"2014-10-16 13:47:31.154";"1";"0";"1";"98";"97";"module.training_block3.exec-7483.GoNoGo3";;;;;;;;;;;;;;;;;;;;;;;;;;;;;;;;;;;;;;;;;;;;;;;"1261";"2014-10-16 13:38:51.798";"NST_correctLoc";"25";"0";"FINISHED";"LEFT";"success";"276";"0";"2014-10-16 13:38:50.534";"3";;;;;;;;;;;;;;;;;;;;;;;;;;;;;;;;;
"amyholley";;;"Windows 7";"Rachel's Experiment (D.T.)";"1.0";"2";"1";"1";"2";"1";"1";"2014-10-16 13:32:46.008";"2014-10-16 13:47:31.154";"1";"0";"1";"99";"98";"module.training_block3.exec-7483.GoNoGo3";;;;;;;;;;;;;;;;;;;;;;;;;;;;;;;;;;;;;;;;;;;;;;;"1261";"2014-10-16 13:38:54.341";"NST_correctLoc";"11";"0";"FINISHED";"LEFT";"success";"309";"0";"2014-10-16 13:38:53.077";"2";;;;;;;;;;;;;;;;;;;;;;;;;;;;;;;;;
"amyholley";;;"Windows 7";"Rachel's Experiment (D.T.)";"1.0";"2";"1";"1";"2";"1";"1";"2014-10-16 13:32:46.008";"2014-10-16 13:47:31.154";"1";"0";"1";"100";"99";"module.training_block3.exec-7483.GoNoGo3";;;;;;;;;;;;;;;;;;;;;;;;;;;;;;;;;;;;;;;;;;;;;;;"1261";"2014-10-16 13:38:56.883";"NST_correctLoc";"0";"0";"FINISHED";"LEFT";"success";"358";"0";"2014-10-16 13:38:55.620";"1";;;;;;;;;;;;;;;;;;;;;;;;;;;;;;;;;
"amyholley";;;"Windows 7";"Rachel's Experiment (D.T.)";"1.0";"2";"1";"1";"2";"1";"1";"2014-10-16 13:32:46.008";"2014-10-16 13:47:31.154";"1";"0";"1";"101";"100";"module.training_block3.exec-7483.GoNoGo3";;;;;;;;;;;;;;;;;;;;;;;;;;;;;;;;;;;;;;;;;;;;;;;"1261";"2014-10-16 13:38:59.426";"NST_correctLoc";"5";"0";"FINISHED";"LEFT";"success";"295";"0";"2014-10-16 13:38:58.163";"1";;;;;;;;;;;;;;;;;;;;;;;;;;;;;;;;;
"amyholley";;;"Windows 7";"Rachel's Experiment (D.T.)";"1.0";"2";"1";"1";"2";"1";"1";"2014-10-16 13:32:46.008";"2014-10-16 13:47:31.154";"1";"0";"1";"102";"101";"module.training_block3.exec-7483.GoNoGo3";;;;;;;;;;;;;;;;;;;;;;;;;;;;;;;;;;;;;;;;;;;;;;;"1261";"2014-10-16 13:39:01.969";"NST_correctLoc";"31";"1";"FINISHED";"RIGHT";"success";"336";"0";"2014-10-16 13:39:00.705";"3";;;;;;;;;;;;;;;;;;;;;;;;;;;;;;;;;
"amyholley";;;"Windows 7";"Rachel's Experiment (D.T.)";"1.0";"2";"1";"1";"2";"1";"1";"2014-10-16 13:32:46.008";"2014-10-16 13:47:31.154";"1";"0";"1";"103";"102";"module.training_block3.exec-7483.GoNoGo3";;;;;;;;;;;;;;;;;;;;;;;;;;;;;;;;;;;;;;;;;;;;;;;"1261";"2014-10-16 13:39:04.512";"NST_correctLoc";"7";"1";"FINISHED";"RIGHT";"success";"449";"0";"2014-10-16 13:39:03.248";"1";;;;;;;;;;;;;;;;;;;;;;;;;;;;;;;;;
"amyholley";;;"Windows 7";"Rachel's Experiment (D.T.)";"1.0";"2";"1";"1";"2";"1";"1";"2014-10-16 13:32:46.008";"2014-10-16 13:47:31.154";"1";"0";"1";"104";"103";"module.training_block3.exec-7483.GoNoGo3";;;;;;;;;;;;;;;;;;;;;;;;;;;;;;;;;;;;;;;;;;;;;;;"1261";"2014-10-16 13:39:07.055";"NST_correctLoc";"10";"0";"FINISHED";"LEFT";"success";"323";"0";"2014-10-16 13:39:05.791";"2";;;;;;;;;;;;;;;;;;;;;;;;;;;;;;;;;
"amyholley";;;"Windows 7";"Rachel's Experiment (D.T.)";"1.0";"2";"1";"1";"2";"1";"1";"2014-10-16 13:32:46.008";"2014-10-16 13:47:31.154";"1";"0";"1";"105";"104";"module.training_block3.exec-7483.GoNoGo3";;;;;;;;;;;;;;;;;;;;;;;;;;;;;;;;;;;;;;;;;;;;;;;"1262";"2014-10-16 13:39:09.597";"NST_correctLoc";"26";"0";"FINISHED";"LEFT";"success";"532";"0";"2014-10-16 13:39:08.334";"3";;;;;;;;;;;;;;;;;;;;;;;;;;;;;;;;;
"amyholley";;;"Windows 7";"Rachel's Experiment (D.T.)";"1.0";"2";"1";"1";"2";"1";"1";"2014-10-16 13:32:46.008";"2014-10-16 13:47:31.154";"1";"0";"1";"106";"105";"module.training_block3.exec-7483.GoNoGo3";;;;;;;;;;;;;;;;;;;;;;;;;;;;;;;;;;;;;;;;;;;;;;;"1261";"2014-10-16 13:39:12.140";"NST_correctLoc";"34";"0";"FINISHED";"LEFT";"success";"397";"0";"2014-10-16 13:39:10.877";"3";;;;;;;;;;;;;;;;;;;;;;;;;;;;;;;;;
"amyholley";;;"Windows 7";"Rachel's Experiment (D.T.)";"1.0";"2";"1";"1";"2";"1";"1";"2014-10-16 13:32:46.008";"2014-10-16 13:47:31.154";"1";"0";"1";"107";"106";"module.training_block3.exec-7483.GoNoGo3";;;;;;;;;;;;;;;;;;;;;;;;;;;;;;;;;;;;;;;;;;;;;;;"1262";"2014-10-16 13:39:14.683";"NST_correctLoc";"8";"1";"FINISHED";"RIGHT";"success";"366";"0";"2014-10-16 13:39:13.419";"1";;;;;;;;;;;;;;;;;;;;;;;;;;;;;;;;;
"amyholley";;;"Windows 7";"Rachel's Experiment (D.T.)";"1.0";"2";"1";"1";"2";"1";"1";"2014-10-16 13:32:46.008";"2014-10-16 13:47:31.154";"1";"0";"1";"108";"107";"module.training_block3.exec-7483.GoNoGo3";;;;;;;;;;;;;;;;;;;;;;;;;;;;;;;;;;;;;;;;;;;;;;;"1261";"2014-10-16 13:39:17.241";"NST_correctLoc";"33";"0";"FINISHED";"LEFT";"success";"312";"0";"2014-10-16 13:39:15.978";"3";;;;;;;;;;;;;;;;;;;;;;;;;;;;;;;;;
"amyholley";;;"Windows 7";"Rachel's Experiment (D.T.)";"1.0";"2";"1";"1";"2";"1";"1";"2014-10-16 13:32:46.008";"2014-10-16 13:47:31.154";"1";"0";"1";"109";"108";"module.training_block3.exec-7483.GoNoGo3";;;;;;;;;;;;;;;;;;;;;;;;;;;;;;;;;;;;;;;;;;;;;;;"1261";"2014-10-16 13:39:19.784";"NST_correctLoc";"28";"0";"FINISHED";"LEFT";"success";"417";"0";"2014-10-16 13:39:18.521";"3";;;;;;;;;;;;;;;;;;;;;;;;;;;;;;;;;
"amyholley";;;"Windows 7";"Rachel's Experiment (D.T.)";"1.0";"2";"1";"1";"2";"1";"1";"2014-10-16 13:32:46.008";"2014-10-16 13:47:31.154";"1";"0";"1";"110";"109";"module.training_block3.exec-7483.GoNoGo3";;;;;;;;;;;;;;;;;;;;;;;;;;;;;;;;;;;;;;;;;;;;;;;"1262";"2014-10-16 13:39:22.312";"NST_correctLoc";"35";"0";"FINISHED";"LEFT";"success";"474";"0";"2014-10-16 13:39:21.048";"3";;;;;;;;;;;;;;;;;;;;;;;;;;;;;;;;;
"amyholley";;;"Windows 7";"Rachel's Experiment (D.T.)";"1.0";"2";"1";"1";"2";"1";"1";"2014-10-16 13:32:46.008";"2014-10-16 13:47:31.154";"1";"0";"1";"111";"110";"module.training_block3.exec-7483.GoNoGo3";;;;;;;;;;;;;;;;;;;;;;;;;;;;;;;;;;;;;;;;;;;;;;;"1261";"2014-10-16 13:39:24.854";"NST_correctLoc";"1";"0";"FINISHED";"LEFT";"success";"307";"0";"2014-10-16 13:39:23.591";"1";;;;;;;;;;;;;;;;;;;;;;;;;;;;;;;;;
"amyholley";;;"Windows 7";"Rachel's Experiment (D.T.)";"1.0";"2";"1";"1";"2";"1";"1";"2014-10-16 13:32:46.008";"2014-10-16 13:47:31.154";"1";"0";"1";"112";"111";"module.training_block3.exec-7483.GoNoGo3";;;;;;;;;;;;;;;;;;;;;;;;;;;;;;;;;;;;;;;;;;;;;;;"1261";"2014-10-16 13:39:27.397";"NST_correctLoc";"17";"0";"FINISHED";"LEFT";"success";"436";"0";"2014-10-16 13:39:26.134";"2";;;;;;;;;;;;;;;;;;;;;;;;;;;;;;;;;
"amyholley";;;"Windows 7";"Rachel's Experiment (D.T.)";"1.0";"2";"1";"1";"2";"1";"1";"2014-10-16 13:32:46.008";"2014-10-16 13:47:31.154";"1";"0";"1";"113";"112";"module.training_block3.exec-7483.GoNoGo3";;;;;;;;;;;;;;;;;;;;;;;;;;;;;;;;;;;;;;;;;;;;;;;"1261";"2014-10-16 13:39:29.924";"NST_correctLoc";"29";"0";"FINISHED";"LEFT";"success";"325";"0";"2014-10-16 13:39:28.661";"3";;;;;;;;;;;;;;;;;;;;;;;;;;;;;;;;;
"amyholley";;;"Windows 7";"Rachel's Experiment (D.T.)";"1.0";"2";"1";"1";"2";"1";"1";"2014-10-16 13:32:46.008";"2014-10-16 13:47:31.154";"1";"0";"1";"114";"113";"module.training_block3.exec-7483.GoNoGo3";;;;;;;;;;;;;;;;;;;;;;;;;;;;;;;;;;;;;;;;;;;;;;;"1261";"2014-10-16 13:39:32.467";"NST_correctLoc";"30";"1";"FINISHED";"RIGHT";"success";"310";"0";"2014-10-16 13:39:31.204";"3";;;;;;;;;;;;;;;;;;;;;;;;;;;;;;;;;
"amyholley";;;"Windows 7";"Rachel's Experiment (D.T.)";"1.0";"2";"1";"1";"2";"1";"1";"2014-10-16 13:32:46.008";"2014-10-16 13:47:31.154";"1";"0";"1";"115";"114";"module.training_block3.exec-7483.GoNoGo3";;;;;;;;;;;;;;;;;;;;;;;;;;;;;;;;;;;;;;;;;;;;;;;"1262";"2014-10-16 13:39:35.010";"NST_correctLoc";"18";"1";"FINISHED";"RIGHT";"success";"311";"0";"2014-10-16 13:39:33.746";"3";;;;;;;;;;;;;;;;;;;;;;;;;;;;;;;;;
"amyholley";;;"Windows 7";"Rachel's Experiment (D.T.)";"1.0";"2";"1";"1";"2";"1";"1";"2014-10-16 13:32:46.008";"2014-10-16 13:47:31.154";"1";"0";"1";"116";"115";"module.training_block3.exec-7483.GoNoGo3";;;;;;;;;;;;;;;;;;;;;;;;;;;;;;;;;;;;;;;;;;;;;;;"1261";"2014-10-16 13:39:37.537";"NST_correctLoc";"2";"1";"FINISHED";"RIGHT";"success";"328";"0";"2014-10-16 13:39:36.274";"1";;;;;;;;;;;;;;;;;;;;;;;;;;;;;;;;;
"amyholley";;;"Windows 7";"Rachel's Experiment (D.T.)";"1.0";"2";"1";"1";"2";"1";"1";"2014-10-16 13:32:46.008";"2014-10-16 13:47:31.154";"1";"0";"1";"117";"116";"module.training_block3.exec-7483.GoNoGo3";;;;;;;;;;;;;;;;;;;;;;;;;;;;;;;;;;;;;;;;;;;;;;;"1262";"2014-10-16 13:39:40.080";"NST_correctLoc";"27";"1";"FINISHED";"RIGHT";"success";"369";"0";"2014-10-16 13:39:38.816";"3";;;;;;;;;;;;;;;;;;;;;;;;;;;;;;;;;
"amyholley";;;"Windows 7";"Rachel's Experiment (D.T.)";"1.0";"2";"1";"1";"2";"1";"1";"2014-10-16 13:32:46.008";"2014-10-16 13:47:31.154";"1";"0";"1";"118";"117";"module.training_block3.exec-7483.GoNoGo3";;;;;;;;;;;;;;;;;;;;;;;;;;;;;;;;;;;;;;;;;;;;;;;"1261";"2014-10-16 13:39:42.607";"NST_correctLoc";"19";"1";"FINISHED";"RIGHT";"success";"282";"0";"2014-10-16 13:39:41.344";"3";;;;;;;;;;;;;;;;;;;;;;;;;;;;;;;;;
"amyholley";;;"Windows 7";"Rachel's Experiment (D.T.)";"1.0";"2";"1";"1";"2";"1";"1";"2014-10-16 13:32:46.008";"2014-10-16 13:47:31.154";"1";"0";"1";"119";"118";"module.training_block3.exec-7483.GoNoGo3";;;;;;;;;;;;;;;;;;;;;;;;;;;;;;;;;;;;;;;;;;;;;;;"1261";"2014-10-16 13:39:45.150";"NST_correctLoc";"22";"1";"FINISHED";"RIGHT";"success";"283";"0";"2014-10-16 13:39:43.886";"3";;;;;;;;;;;;;;;;;;;;;;;;;;;;;;;;;
"amyholley";;;"Windows 7";"Rachel's Experiment (D.T.)";"1.0";"2";"1";"1";"2";"1";"1";"2014-10-16 13:32:46.008";"2014-10-16 13:47:31.154";"1";"0";"1";"120";"119";"module.training_block3.exec-7483.GoNoGo3";;;;;;;;;;;;;;;;;;;;;;;;;;;;;;;;;;;;;;;;;;;;;;;"1262";"2014-10-16 13:39:47.693";"NST_correctLoc";"20";"0";"FINISHED";"LEFT";"success";"308";"0";"2014-10-16 13:39:46.429";"3";;;;;;;;;;;;;;;;;;;;;;;;;;;;;;;;;
"amyholley";;;"Windows 7";"Rachel's Experiment (D.T.)";"1.0";"2";"1";"1";"2";"1";"1";"2014-10-16 13:32:46.008";"2014-10-16 13:47:31.154";"1";"0";"1";"121";"120";"module.training_block3.exec-7483.GoNoGo3";;;;;;;;;;;;;;;;;;;;;;;;;;;;;;;;;;;;;;;;;;;;;;;"1262";"2014-10-16 13:39:50.220";"NST_correctLoc";"14";"0";"FINISHED";"LEFT";"success";"389";"0";"2014-10-16 13:39:48.956";"2";;;;;;;;;;;;;;;;;;;;;;;;;;;;;;;;;
"amyholley";;;"Windows 7";"Rachel's Experiment (D.T.)";"1.0";"2";"1";"1";"2";"1";"1";"2014-10-16 13:32:46.008";"2014-10-16 13:47:31.154";"1";"0";"1";"122";"121";"module.training_block3.exec-7483.GoNoGo3";;;;;;;;;;;;;;;;;;;;;;;;;;;;;;;;;;;;;;;;;;;;;;;"1262";"2014-10-16 13:39:52.763";"NST_correctLoc";"13";"0";"FINISHED";"LEFT";"success";"326";"0";"2014-10-16 13:39:51.499";"2";;;;;;;;;;;;;;;;;;;;;;;;;;;;;;;;;
"amyholley";;;"Windows 7";"Rachel's Experiment (D.T.)";"1.0";"2";"1";"1";"2";"1";"1";"2014-10-16 13:32:46.008";"2014-10-16 13:47:31.154";"1";"0";"1";"123";"122";"module.training_block3.exec-7483.GoNoGo3";;;;;;;;;;;;;;;;;;;;;;;;;;;;;;;;;;;;;;;;;;;;;;;"1261";"2014-10-16 13:39:55.290";"NST_correctLoc";"6";"1";"FINISHED";"RIGHT";"success";"287";"0";"2014-10-16 13:39:54.026";"1";;;;;;;;;;;;;;;;;;;;;;;;;;;;;;;;;
"amyholley";;;"Windows 7";"Rachel's Experiment (D.T.)";"1.0";"2";"1";"1";"2";"1";"1";"2014-10-16 13:32:46.008";"2014-10-16 13:47:31.154";"1";"0";"1";"124";"123";"module.training_block4.exec-8600.GoNoGo4";;;;;;;;;;;;;;;;;;;;;;;;;;;;;;;;;;;;;;;;;;;;;;;;;;;;;;;;;;;"1261";"2014-10-16 13:40:06.912";"NST_correctLoc";"34";"1";"FINISHED";"RIGHT";"success";"489";"0";"2014-10-16 13:40:05.648";"3";;;;;;;;;;;;;;;;;;;;;
"amyholley";;;"Windows 7";"Rachel's Experiment (D.T.)";"1.0";"2";"1";"1";"2";"1";"1";"2014-10-16 13:32:46.008";"2014-10-16 13:47:31.154";"1";"0";"1";"125";"124";"module.training_block4.exec-8600.GoNoGo4";;;;;;;;;;;;;;;;;;;;;;;;;;;;;;;;;;;;;;;;;;;;;;;;;;;;;;;;;;;"1261";"2014-10-16 13:40:09.439";"NST_correctLoc";"30";"1";"FINISHED";"RIGHT";"success";"330";"0";"2014-10-16 13:40:08.176";"3";;;;;;;;;;;;;;;;;;;;;
"amyholley";;;"Windows 7";"Rachel's Experiment (D.T.)";"1.0";"2";"1";"1";"2";"1";"1";"2014-10-16 13:32:46.008";"2014-10-16 13:47:31.154";"1";"0";"1";"126";"125";"module.training_block4.exec-8600.GoNoGo4";;;;;;;;;;;;;;;;;;;;;;;;;;;;;;;;;;;;;;;;;;;;;;;;;;;;;;;;;;;"1261";"2014-10-16 13:40:11.966";"NST_correctLoc";"12";"0";"FINISHED";"LEFT";"success";"410";"0";"2014-10-16 13:40:10.703";"2";;;;;;;;;;;;;;;;;;;;;
"amyholley";;;"Windows 7";"Rachel's Experiment (D.T.)";"1.0";"2";"1";"1";"2";"1";"1";"2014-10-16 13:32:46.008";"2014-10-16 13:47:31.154";"1";"0";"1";"127";"126";"module.training_block4.exec-8600.GoNoGo4";;;;;;;;;;;;;;;;;;;;;;;;;;;;;;;;;;;;;;;;;;;;;;;;;;;;;;;;;;;"1262";"2014-10-16 13:40:14.509";"NST_correctLoc";"21";"0";"FINISHED";"LEFT";"success";"372";"0";"2014-10-16 13:40:13.246";"3";;;;;;;;;;;;;;;;;;;;;
"amyholley";;;"Windows 7";"Rachel's Experiment (D.T.)";"1.0";"2";"1";"1";"2";"1";"1";"2014-10-16 13:32:46.008";"2014-10-16 13:47:31.154";"1";"0";"1";"128";"127";"module.training_block4.exec-8600.GoNoGo4";;;;;;;;;;;;;;;;;;;;;;;;;;;;;;;;;;;;;;;;;;;;;;;;;;;;;;;;;;;"1261";"2014-10-16 13:40:17.036";"NST_correctLoc";"27";"0";"FINISHED";"LEFT";"success";"396";"0";"2014-10-16 13:40:15.773";"3";;;;;;;;;;;;;;;;;;;;;
"amyholley";;;"Windows 7";"Rachel's Experiment (D.T.)";"1.0";"2";"1";"1";"2";"1";"1";"2014-10-16 13:32:46.008";"2014-10-16 13:47:31.154";"1";"0";"1";"129";"128";"module.training_block4.exec-8600.GoNoGo4";;;;;;;;;;;;;;;;;;;;;;;;;;;;;;;;;;;;;;;;;;;;;;;;;;;;;;;;;;;"1261";"2014-10-16 13:40:19.564";"NST_correctLoc";"13";"1";"FINISHED";"RIGHT";"success";"357";"0";"2014-10-16 13:40:18.300";"2";;;;;;;;;;;;;;;;;;;;;
"amyholley";;;"Windows 7";"Rachel's Experiment (D.T.)";"1.0";"2";"1";"1";"2";"1";"1";"2014-10-16 13:32:46.008";"2014-10-16 13:47:31.154";"1";"0";"1";"130";"129";"module.training_block4.exec-8600.GoNoGo4";;;;;;;;;;;;;;;;;;;;;;;;;;;;;;;;;;;;;;;;;;;;;;;;;;;;;;;;;;;"1261";"2014-10-16 13:40:22.091";"NST_correctLoc";"18";"1";"FINISHED";"RIGHT";"success";"382";"0";"2014-10-16 13:40:20.827";"3";;;;;;;;;;;;;;;;;;;;;
"amyholley";;;"Windows 7";"Rachel's Experiment (D.T.)";"1.0";"2";"1";"1";"2";"1";"1";"2014-10-16 13:32:46.008";"2014-10-16 13:47:31.154";"1";"0";"1";"131";"130";"module.training_block4.exec-8600.GoNoGo4";;;;;;;;;;;;;;;;;;;;;;;;;;;;;;;;;;;;;;;;;;;;;;;;;;;;;;;;;;;"1262";"2014-10-16 13:40:24.618";"NST_correctLoc";"10";"1";"FINISHED";"RIGHT";"success";"319";"0";"2014-10-16 13:40:23.354";"2";;;;;;;;;;;;;;;;;;;;;
"amyholley";;;"Windows 7";"Rachel's Experiment (D.T.)";"1.0";"2";"1";"1";"2";"1";"1";"2014-10-16 13:32:46.008";"2014-10-16 13:47:31.154";"1";"0";"1";"132";"131";"module.training_block4.exec-8600.GoNoGo4";;;;;;;;;;;;;;;;;;;;;;;;;;;;;;;;;;;;;;;;;;;;;;;;;;;;;;;;;;;"1261";"2014-10-16 13:40:27.145";"NST_correctLoc";"1";"0";"FINISHED";"LEFT";"success";"320";"0";"2014-10-16 13:40:25.882";"1";;;;;;;;;;;;;;;;;;;;;
"amyholley";;;"Windows 7";"Rachel's Experiment (D.T.)";"1.0";"2";"1";"1";"2";"1";"1";"2014-10-16 13:32:46.008";"2014-10-16 13:47:31.154";"1";"0";"1";"133";"132";"module.training_block4.exec-8600.GoNoGo4";;;;;;;;;;;;;;;;;;;;;;;;;;;;;;;;;;;;;;;;;;;;;;;;;;;;;;;;;;;"1262";"2014-10-16 13:40:29.672";"NST_correctLoc";"5";"1";"FINISHED";"RIGHT";"success";"368";"0";"2014-10-16 13:40:28.409";"1";;;;;;;;;;;;;;;;;;;;;
"amyholley";;;"Windows 7";"Rachel's Experiment (D.T.)";"1.0";"2";"1";"1";"2";"1";"1";"2014-10-16 13:32:46.008";"2014-10-16 13:47:31.154";"1";"0";"1";"134";"133";"module.training_block4.exec-8600.GoNoGo4";;;;;;;;;;;;;;;;;;;;;;;;;;;;;;;;;;;;;;;;;;;;;;;;;;;;;;;;;;;"1261";"2014-10-16 13:40:32.200";"NST_correctLoc";"6";"1";"FINISHED";"RIGHT";"success";"377";"0";"2014-10-16 13:40:30.936";"1";;;;;;;;;;;;;;;;;;;;;
"amyholley";;;"Windows 7";"Rachel's Experiment (D.T.)";"1.0";"2";"1";"1";"2";"1";"1";"2014-10-16 13:32:46.008";"2014-10-16 13:47:31.154";"1";"0";"1";"135";"134";"module.training_block4.exec-8600.GoNoGo4";;;;;;;;;;;;;;;;;;;;;;;;;;;;;;;;;;;;;;;;;;;;;;;;;;;;;;;;;;;"1262";"2014-10-16 13:40:34.742";"NST_correctLoc";"16";"1";"FINISHED";"RIGHT";"success";"522";"0";"2014-10-16 13:40:33.479";"2";;;;;;;;;;;;;;;;;;;;;
"amyholley";;;"Windows 7";"Rachel's Experiment (D.T.)";"1.0";"2";"1";"1";"2";"1";"1";"2014-10-16 13:32:46.008";"2014-10-16 13:47:31.154";"1";"0";"1";"136";"135";"module.training_block4.exec-8600.GoNoGo4";;;;;;;;;;;;;;;;;;;;;;;;;;;;;;;;;;;;;;;;;;;;;;;;;;;;;;;;;;;"1261";"2014-10-16 13:40:37.285";"NST_correctLoc";"4";"1";"FINISHED";"RIGHT";"success";"379";"0";"2014-10-16 13:40:36.022";"1";;;;;;;;;;;;;;;;;;;;;
"amyholley";;;"Windows 7";"Rachel's Experiment (D.T.)";"1.0";"2";"1";"1";"2";"1";"1";"2014-10-16 13:32:46.008";"2014-10-16 13:47:31.154";"1";"0";"1";"137";"136";"module.training_block4.exec-8600.GoNoGo4";;;;;;;;;;;;;;;;;;;;;;;;;;;;;;;;;;;;;;;;;;;;;;;;;;;;;;;;;;;"1261";"2014-10-16 13:40:39.812";"NST_correctLoc";"0";"1";"FINISHED";"RIGHT";"success";"468";"0";"2014-10-16 13:40:38.549";"1";;;;;;;;;;;;;;;;;;;;;
"amyholley";;;"Windows 7";"Rachel's Experiment (D.T.)";"1.0";"2";"1";"1";"2";"1";"1";"2014-10-16 13:32:46.008";"2014-10-16 13:47:31.154";"1";"0";"1";"138";"137";"module.training_block4.exec-8600.GoNoGo4";;;;;;;;;;;;;;;;;;;;;;;;;;;;;;;;;;;;;;;;;;;;;;;;;;;;;;;;;;;"1261";"2014-10-16 13:40:42.340";"NST_correctLoc";"23";"1";"FINISHED";"RIGHT";"success";"485";"0";"2014-10-16 13:40:41.076";"3";;;;;;;;;;;;;;;;;;;;;
"amyholley";;;"Windows 7";"Rachel's Experiment (D.T.)";"1.0";"2";"1";"1";"2";"1";"1";"2014-10-16 13:32:46.008";"2014-10-16 13:47:31.154";"1";"0";"1";"139";"138";"module.training_block4.exec-8600.GoNoGo4";;;;;;;;;;;;;;;;;;;;;;;;;;;;;;;;;;;;;;;;;;;;;;;;;;;;;;;;;;;"1262";"2014-10-16 13:40:44.867";"NST_correctLoc";"20";"0";"FINISHED";"LEFT";"success";"390";"0";"2014-10-16 13:40:43.603";"3";;;;;;;;;;;;;;;;;;;;;
"amyholley";;;"Windows 7";"Rachel's Experiment (D.T.)";"1.0";"2";"1";"1";"2";"1";"1";"2014-10-16 13:32:46.008";"2014-10-16 13:47:31.154";"1";"0";"1";"140";"139";"module.training_block4.exec-8600.GoNoGo4";;;;;;;;;;;;;;;;;;;;;;;;;;;;;;;;;;;;;;;;;;;;;;;;;;;;;;;;;;;"1261";"2014-10-16 13:40:47.410";"NST_correctLoc";"24";"0";"FINISHED";"LEFT";"success";"495";"0";"2014-10-16 13:40:46.146";"3";;;;;;;;;;;;;;;;;;;;;
"amyholley";;;"Windows 7";"Rachel's Experiment (D.T.)";"1.0";"2";"1";"1";"2";"1";"1";"2014-10-16 13:32:46.008";"2014-10-16 13:47:31.154";"1";"0";"1";"141";"140";"module.training_block4.exec-8600.GoNoGo4";;;;;;;;;;;;;;;;;;;;;;;;;;;;;;;;;;;;;;;;;;;;;;;;;;;;;;;;;;;"1261";"2014-10-16 13:40:49.937";"NST_correctLoc";"22";"0";"FINISHED";"LEFT";"success";"456";"0";"2014-10-16 13:40:48.673";"3";;;;;;;;;;;;;;;;;;;;;
"amyholley";;;"Windows 7";"Rachel's Experiment (D.T.)";"1.0";"2";"1";"1";"2";"1";"1";"2014-10-16 13:32:46.008";"2014-10-16 13:47:31.154";"1";"0";"1";"142";"141";"module.training_block4.exec-8600.GoNoGo4";;;;;;;;;;;;;;;;;;;;;;;;;;;;;;;;;;;;;;;;;;;;;;;;;;;;;;;;;;;"1262";"2014-10-16 13:40:52.464";"NST_correctLoc";"19";"0";"FINISHED";"LEFT";"success";"376";"0";"2014-10-16 13:40:51.200";"3";;;;;;;;;;;;;;;;;;;;;
"amyholley";;;"Windows 7";"Rachel's Experiment (D.T.)";"1.0";"2";"1";"1";"2";"1";"1";"2014-10-16 13:32:46.008";"2014-10-16 13:47:31.154";"1";"0";"1";"143";"142";"module.training_block4.exec-8600.GoNoGo4";;;;;;;;;;;;;;;;;;;;;;;;;;;;;;;;;;;;;;;;;;;;;;;;;;;;;;;;;;;"1261";"2014-10-16 13:40:54.991";"NST_correctLoc";"33";"1";"FINISHED";"RIGHT";"success";"369";"0";"2014-10-16 13:40:53.728";"3";;;;;;;;;;;;;;;;;;;;;
"amyholley";;;"Windows 7";"Rachel's Experiment (D.T.)";"1.0";"2";"1";"1";"2";"1";"1";"2014-10-16 13:32:46.008";"2014-10-16 13:47:31.154";"1";"0";"1";"144";"143";"module.training_block4.exec-8600.GoNoGo4";;;;;;;;;;;;;;;;;;;;;;;;;;;;;;;;;;;;;;;;;;;;;;;;;;;;;;;;;;;"1261";"2014-10-16 13:40:57.518";"NST_correctLoc";"25";"0";"FINISHED";"LEFT";"success";"490";"0";"2014-10-16 13:40:56.255";"3";;;;;;;;;;;;;;;;;;;;;
"amyholley";;;"Windows 7";"Rachel's Experiment (D.T.)";"1.0";"2";"1";"1";"2";"1";"1";"2014-10-16 13:32:46.008";"2014-10-16 13:47:31.154";"1";"0";"1";"145";"144";"module.training_block4.exec-8600.GoNoGo4";;;;;;;;;;;;;;;;;;;;;;;;;;;;;;;;;;;;;;;;;;;;;;;;;;;;;;;;;;;"1261";"2014-10-16 13:41:00.046";"NST_correctLoc";"9";"0";"FINISHED";"LEFT";"success";"363";"0";"2014-10-16 13:40:58.782";"2";;;;;;;;;;;;;;;;;;;;;
"amyholley";;;"Windows 7";"Rachel's Experiment (D.T.)";"1.0";"2";"1";"1";"2";"1";"1";"2014-10-16 13:32:46.008";"2014-10-16 13:47:31.154";"1";"0";"1";"146";"145";"module.training_block4.exec-8600.GoNoGo4";;;;;;;;;;;;;;;;;;;;;;;;;;;;;;;;;;;;;;;;;;;;;;;;;;;;;;;;;;;"1261";"2014-10-16 13:41:02.573";"NST_correctLoc";"29";"1";"FINISHED";"RIGHT";"success";"292";"0";"2014-10-16 13:41:01.309";"3";;;;;;;;;;;;;;;;;;;;;
"amyholley";;;"Windows 7";"Rachel's Experiment (D.T.)";"1.0";"2";"1";"1";"2";"1";"1";"2014-10-16 13:32:46.008";"2014-10-16 13:47:31.154";"1";"0";"1";"147";"146";"module.training_block4.exec-8600.GoNoGo4";;;;;;;;;;;;;;;;;;;;;;;;;;;;;;;;;;;;;;;;;;;;;;;;;;;;;;;;;;;"1261";"2014-10-16 13:41:05.100";"NST_correctLoc";"17";"0";"FINISHED";"LEFT";"success";"332";"0";"2014-10-16 13:41:03.836";"2";;;;;;;;;;;;;;;;;;;;;
"amyholley";;;"Windows 7";"Rachel's Experiment (D.T.)";"1.0";"2";"1";"1";"2";"1";"1";"2014-10-16 13:32:46.008";"2014-10-16 13:47:31.154";"1";"0";"1";"148";"147";"module.training_block4.exec-8600.GoNoGo4";;;;;;;;;;;;;;;;;;;;;;;;;;;;;;;;;;;;;;;;;;;;;;;;;;;;;;;;;;;"1262";"2014-10-16 13:41:07.643";"NST_correctLoc";"31";"0";"FINISHED";"LEFT";"success";"374";"0";"2014-10-16 13:41:06.379";"3";;;;;;;;;;;;;;;;;;;;;
"amyholley";;;"Windows 7";"Rachel's Experiment (D.T.)";"1.0";"2";"1";"1";"2";"1";"1";"2014-10-16 13:32:46.008";"2014-10-16 13:47:31.154";"1";"0";"1";"149";"148";"module.training_block4.exec-8600.GoNoGo4";;;;;;;;;;;;;;;;;;;;;;;;;;;;;;;;;;;;;;;;;;;;;;;;;;;;;;;;;;;"1261";"2014-10-16 13:41:10.170";"NST_correctLoc";"26";"0";"FINISHED";"LEFT";"success";"358";"0";"2014-10-16 13:41:08.906";"3";;;;;;;;;;;;;;;;;;;;;
"amyholley";;;"Windows 7";"Rachel's Experiment (D.T.)";"1.0";"2";"1";"1";"2";"1";"1";"2014-10-16 13:32:46.008";"2014-10-16 13:47:31.154";"1";"0";"1";"150";"149";"module.training_block4.exec-8600.GoNoGo4";;;;;;;;;;;;;;;;;;;;;;;;;;;;;;;;;;;;;;;;;;;;;;;;;;;;;;;;;;;"1261";"2014-10-16 13:41:12.697";"NST_correctLoc";"28";"0";"FINISHED";"LEFT";"success";"455";"0";"2014-10-16 13:41:11.434";"3";;;;;;;;;;;;;;;;;;;;;
"amyholley";;;"Windows 7";"Rachel's Experiment (D.T.)";"1.0";"2";"1";"1";"2";"1";"1";"2014-10-16 13:32:46.008";"2014-10-16 13:47:31.154";"1";"0";"1";"151";"150";"module.training_block4.exec-8600.GoNoGo4";;;;;;;;;;;;;;;;;;;;;;;;;;;;;;;;;;;;;;;;;;;;;;;;;;;;;;;;;;;"1262";"2014-10-16 13:41:15.225";"NST_correctLoc";"35";"0";"FINISHED";"LEFT";"success";"360";"0";"2014-10-16 13:41:13.961";"3";;;;;;;;;;;;;;;;;;;;;
"amyholley";;;"Windows 7";"Rachel's Experiment (D.T.)";"1.0";"2";"1";"1";"2";"1";"1";"2014-10-16 13:32:46.008";"2014-10-16 13:47:31.154";"1";"0";"1";"152";"151";"module.training_block4.exec-8600.GoNoGo4";;;;;;;;;;;;;;;;;;;;;;;;;;;;;;;;;;;;;;;;;;;;;;;;;;;;;;;;;;;"1261";"2014-10-16 13:41:17.752";"NST_correctLoc";"14";"0";"FINISHED";"LEFT";"success";"329";"0";"2014-10-16 13:41:16.488";"2";;;;;;;;;;;;;;;;;;;;;
"amyholley";;;"Windows 7";"Rachel's Experiment (D.T.)";"1.0";"2";"1";"1";"2";"1";"1";"2014-10-16 13:32:46.008";"2014-10-16 13:47:31.154";"1";"0";"1";"153";"152";"module.training_block4.exec-8600.GoNoGo4";;;;;;;;;;;;;;;;;;;;;;;;;;;;;;;;;;;;;;;;;;;;;;;;;;;;;;;;;;;"1262";"2014-10-16 13:41:20.279";"NST_correctLoc";"8";"1";"FINISHED";"RIGHT";"success";"298";"0";"2014-10-16 13:41:19.015";"1";;;;;;;;;;;;;;;;;;;;;
"amyholley";;;"Windows 7";"Rachel's Experiment (D.T.)";"1.0";"2";"1";"1";"2";"1";"1";"2014-10-16 13:32:46.008";"2014-10-16 13:47:31.154";"1";"0";"1";"154";"153";"module.training_block4.exec-8600.GoNoGo4";;;;;;;;;;;;;;;;;;;;;;;;;;;;;;;;;;;;;;;;;;;;;;;;;;;;;;;;;;;"1261";"2014-10-16 13:41:22.806";"NST_correctLoc";"11";"1";"FINISHED";"RIGHT";"success";"298";"0";"2014-10-16 13:41:21.543";"2";;;;;;;;;;;;;;;;;;;;;
"amyholley";;;"Windows 7";"Rachel's Experiment (D.T.)";"1.0";"2";"1";"1";"2";"1";"1";"2014-10-16 13:32:46.008";"2014-10-16 13:47:31.154";"1";"0";"1";"155";"154";"module.training_block4.exec-8600.GoNoGo4";;;;;;;;;;;;;;;;;;;;;;;;;;;;;;;;;;;;;;;;;;;;;;;;;;;;;;;;;;;"1262";"2014-10-16 13:41:25.333";"NST_correctLoc";"15";"0";"FINISHED";"LEFT";"success";"259";"0";"2014-10-16 13:41:24.070";"2";;;;;;;;;;;;;;;;;;;;;
"amyholley";;;"Windows 7";"Rachel's Experiment (D.T.)";"1.0";"2";"1";"1";"2";"1";"1";"2014-10-16 13:32:46.008";"2014-10-16 13:47:31.154";"1";"0";"1";"156";"155";"module.training_block4.exec-8600.GoNoGo4";;;;;;;;;;;;;;;;;;;;;;;;;;;;;;;;;;;;;;;;;;;;;;;;;;;;;;;;;;;"1262";"2014-10-16 13:41:27.876";"NST_correctLoc";"7";"1";"FINISHED";"RIGHT";"success";"284";"0";"2014-10-16 13:41:26.613";"1";;;;;;;;;;;;;;;;;;;;;
"amyholley";;;"Windows 7";"Rachel's Experiment (D.T.)";"1.0";"2";"1";"1";"2";"1";"1";"2014-10-16 13:32:46.008";"2014-10-16 13:47:31.154";"1";"0";"1";"157";"156";"module.training_block4.exec-8600.GoNoGo4";;;;;;;;;;;;;;;;;;;;;;;;;;;;;;;;;;;;;;;;;;;;;;;;;;;;;;;;;;;"1262";"2014-10-16 13:41:30.403";"NST_correctLoc";"3";"1";"FINISHED";"RIGHT";"success";"277";"0";"2014-10-16 13:41:29.140";"1";;;;;;;;;;;;;;;;;;;;;
"amyholley";;;"Windows 7";"Rachel's Experiment (D.T.)";"1.0";"2";"1";"1";"2";"1";"1";"2014-10-16 13:32:46.008";"2014-10-16 13:47:31.154";"1";"0";"1";"158";"157";"module.training_block4.exec-8600.GoNoGo4";;;;;;;;;;;;;;;;;;;;;;;;;;;;;;;;;;;;;;;;;;;;;;;;;;;;;;;;;;;"1261";"2014-10-16 13:41:32.931";"NST_correctLoc";"2";"0";"FINISHED";"LEFT";"success";"318";"0";"2014-10-16 13:41:31.667";"1";;;;;;;;;;;;;;;;;;;;;
"amyholley";;;"Windows 7";"Rachel's Experiment (D.T.)";"1.0";"2";"1";"1";"2";"1";"1";"2014-10-16 13:32:46.008";"2014-10-16 13:47:31.154";"1";"0";"1";"159";"158";"module.training_block4.exec-8600.GoNoGo4";;;;;;;;;;;;;;;;;;;;;;;;;;;;;;;;;;;;;;;;;;;;;;;;;;;;;;;;;;;"1261";"2014-10-16 13:41:35.458";"NST_correctLoc";"32";"1";"FINISHED";"RIGHT";"success";"335";"0";"2014-10-16 13:41:34.194";"3";;;;;;;;;;;;;;;;;;;;;
"amyholley";;;"Windows 7";"Rachel's Experiment (D.T.)";"1.0";"2";"1";"1";"2";"1";"1";"2014-10-16 13:32:46.008";"2014-10-16 13:47:31.154";"1";"0";"1";"160";"159";"module.devaluation_practice.exec-3473.devalPractice";;;;;;;;;;;;"46607";"2014-10-16 13:42:44.925";"0";"8";"3";"8";"2868";"2294";"38398";"2014-10-16 13:41:58.312";;;;;;;;;;;;;;;;;;;;;;;;;;;;;;;;;;;;;;;;;;;;;;;;;;;;;;;;;;;;;;;;;;;;;;
"amyholley";;;"Windows 7";"Rachel's Experiment (D.T.)";"1.0";"2";"1";"1";"2";"1";"1";"2014-10-16 13:32:46.008";"2014-10-16 13:47:31.154";"1";"0";"1";"161";"160";"module.devaluation_practice.exec-3473.devalPractice";;;;;;;;;;;;"9496";"2014-10-16 13:42:54.456";"1";"5";"3";"6";"2018";"1777";"2671";"2014-10-16 13:42:44.956";;;;;;;;;;;;;;;;;;;;;;;;;;;;;;;;;;;;;;;;;;;;;;;;;;;;;;;;;;;;;;;;;;;;;;
"amyholley";;;"Windows 7";"Rachel's Experiment (D.T.)";"1.0";"2";"1";"1";"2";"1";"1";"2014-10-16 13:32:46.008";"2014-10-16 13:47:31.154";"1";"0";"1";"162";"161";"module.devaluation_practice.exec-3473.devalPractice";;;;;;;;;;;;"8324";"2014-10-16 13:43:02.787";"2";"6";"3";"8";"2152";"1026";"2107";"2014-10-16 13:42:54.472";;;;;;;;;;;;;;;;;;;;;;;;;;;;;;;;;;;;;;;;;;;;;;;;;;;;;;;;;;;;;;;;;;;;;;
"amyholley";;;"Windows 7";"Rachel's Experiment (D.T.)";"1.0";"2";"1";"1";"2";"1";"1";"2014-10-16 13:32:46.008";"2014-10-16 13:47:31.154";"1";"0";"1";"163";"162";"module.devaluation_practice.exec-3473.devalPractice";;;;;;;;;;;;"7436";"2014-10-16 13:43:10.244";"3";"4";"3";"3";"1416";"1415";"1576";"2014-10-16 13:43:02.818";;;;;;;;;;;;;;;;;;;;;;;;;;;;;;;;;;;;;;;;;;;;;;;;;;;;;;;;;;;;;;;;;;;;;;
"amyholley";;;"Windows 7";"Rachel's Experiment (D.T.)";"1.0";"2";"1";"1";"2";"1";"1";"2014-10-16 13:32:46.008";"2014-10-16 13:47:31.154";"1";"0";"1";"164";"163";"module.devaluation_block1.exec-2852.deval1";"9710";"2014-10-16 13:43:30.180";"22";"6";"3";"8";"2828";"1274";"2578";"2014-10-16 13:43:20.477";"3";;;;;;;;;;;;;;;;;;;;;;;;;;;;;;;;;;;;;;;;;;;;;;;;;;;;;;;;;;;;;;;;;;;;;;;;;;;;;;;;
"amyholley";;;"Windows 7";"Rachel's Experiment (D.T.)";"1.0";"2";"1";"1";"2";"1";"1";"2014-10-16 13:32:46.008";"2014-10-16 13:47:31.154";"1";"0";"1";"165";"164";"module.devaluation_block1.exec-2852.deval1";"7669";"2014-10-16 13:43:37.871";"24";"9";"3";"3";"1447";"2161";"1041";"2014-10-16 13:43:30.212";"3";;;;;;;;;;;;;;;;;;;;;;;;;;;;;;;;;;;;;;;;;;;;;;;;;;;;;;;;;;;;;;;;;;;;;;;;;;;;;;;;
"amyholley";;;"Windows 7";"Rachel's Experiment (D.T.)";"1.0";"2";"1";"1";"2";"1";"1";"2014-10-16 13:32:46.008";"2014-10-16 13:47:31.154";"1";"0";"1";"166";"165";"module.devaluation_block1.exec-2852.deval1";"8533";"2014-10-16 13:43:46.436";"14";"9";"3";"7";"2764";"1376";"1368";"2014-10-16 13:43:37.902";"2";;;;;;;;;;;;;;;;;;;;;;;;;;;;;;;;;;;;;;;;;;;;;;;;;;;;;;;;;;;;;;;;;;;;;;;;;;;;;;;;
"amyholley";;;"Windows 7";"Rachel's Experiment (D.T.)";"1.0";"2";"1";"1";"2";"1";"1";"2014-10-16 13:32:46.008";"2014-10-16 13:47:31.154";"1";"0";"1";"167";"166";"module.devaluation_block1.exec-2852.deval1";"9941";"2014-10-16 13:43:56.388";"11";"2";"2";"3";"3511";"1720";"1672";"2014-10-16 13:43:46.451";"2";;;;;;;;;;;;;;;;;;;;;;;;;;;;;;;;;;;;;;;;;;;;;;;;;;;;;;;;;;;;;;;;;;;;;;;;;;;;;;;;
"amyholley";;;"Windows 7";"Rachel's Experiment (D.T.)";"1.0";"2";"1";"1";"2";"1";"1";"2014-10-16 13:32:46.008";"2014-10-16 13:47:31.154";"1";"0";"1";"168";"167";"module.devaluation_block1.exec-2852.deval1";"9269";"2014-10-16 13:44:05.686";"6";"3";"3";"7";"2184";"1389";"2660";"2014-10-16 13:43:56.420";"1";;;;;;;;;;;;;;;;;;;;;;;;;;;;;;;;;;;;;;;;;;;;;;;;;;;;;;;;;;;;;;;;;;;;;;;;;;;;;;;;
"amyholley";;;"Windows 7";"Rachel's Experiment (D.T.)";"1.0";"2";"1";"1";"2";"1";"1";"2014-10-16 13:32:46.008";"2014-10-16 13:47:31.154";"1";"0";"1";"169";"168";"module.devaluation_block1.exec-2852.deval1";"7997";"2014-10-16 13:44:13.704";"20";"7";"2";"5";"2500";"1449";"1018";"2014-10-16 13:44:05.702";"3";;;;;;;;;;;;;;;;;;;;;;;;;;;;;;;;;;;;;;;;;;;;;;;;;;;;;;;;;;;;;;;;;;;;;;;;;;;;;;;;
"amyholley";;;"Windows 7";"Rachel's Experiment (D.T.)";"1.0";"2";"1";"1";"2";"1";"1";"2014-10-16 13:32:46.008";"2014-10-16 13:47:31.154";"1";"0";"1";"170";"169";"module.devaluation_block1.exec-2852.deval1";"10477";"2014-10-16 13:44:24.188";"12";"7";"3";"7";"2754";"2023";"2670";"2014-10-16 13:44:13.720";"2";;;;;;;;;;;;;;;;;;;;;;;;;;;;;;;;;;;;;;;;;;;;;;;;;;;;;;;;;;;;;;;;;;;;;;;;;;;;;;;;
"amyholley";;;"Windows 7";"Rachel's Experiment (D.T.)";"1.0";"2";"1";"1";"2";"1";"1";"2014-10-16 13:32:46.008";"2014-10-16 13:47:31.154";"1";"0";"1";"171";"170";"module.devaluation_block1.exec-2852.deval1";"8892";"2014-10-16 13:44:33.111";"25";"7";"3";"8";"2823";"1170";"1861";"2014-10-16 13:44:24.219";"3";;;;;;;;;;;;;;;;;;;;;;;;;;;;;;;;;;;;;;;;;;;;;;;;;;;;;;;;;;;;;;;;;;;;;;;;;;;;;;;;
"amyholley";;;"Windows 7";"Rachel's Experiment (D.T.)";"1.0";"2";"1";"1";"2";"1";"1";"2014-10-16 13:32:46.008";"2014-10-16 13:47:31.154";"1";"0";"1";"172";"171";"module.devaluation_block1.exec-2852.deval1";"15245";"2014-10-16 13:44:48.383";"16";"2";"1";"2";"1484";"2144";"8591";"2014-10-16 13:44:33.142";"2";;;;;;;;;;;;;;;;;;;;;;;;;;;;;;;;;;;;;;;;;;;;;;;;;;;;;;;;;;;;;;;;;;;;;;;;;;;;;;;;
"amyholley";;;"Windows 7";"Rachel's Experiment (D.T.)";"1.0";"2";"1";"1";"2";"1";"1";"2014-10-16 13:32:46.008";"2014-10-16 13:47:31.154";"1";"0";"1";"173";"172";"module.devaluation_block1.exec-2852.deval1";"8021";"2014-10-16 13:44:56.433";"8";"6";"3";"8";"1435";"1698";"1861";"2014-10-16 13:44:48.399";"1";;;;;;;;;;;;;;;;;;;;;;;;;;;;;;;;;;;;;;;;;;;;;;;;;;;;;;;;;;;;;;;;;;;;;;;;;;;;;;;;
"amyholley";;;"Windows 7";"Rachel's Experiment (D.T.)";"1.0";"2";"1";"1";"2";"1";"1";"2014-10-16 13:32:46.008";"2014-10-16 13:47:31.154";"1";"0";"1";"174";"173";"module.devaluation_block1.exec-2852.deval1";"6075";"2014-10-16 13:45:02.517";"7";"5";"1";"3";"1026";"1117";"905";"2014-10-16 13:44:56.448";"1";;;;;;;;;;;;;;;;;;;;;;;;;;;;;;;;;;;;;;;;;;;;;;;;;;;;;;;;;;;;;;;;;;;;;;;;;;;;;;;;
"amyholley";;;"Windows 7";"Rachel's Experiment (D.T.)";"1.0";"2";"1";"1";"2";"1";"1";"2014-10-16 13:32:46.008";"2014-10-16 13:47:31.154";"1";"0";"1";"175";"174";"module.devaluation_block1.exec-2852.deval1";"6581";"2014-10-16 13:45:09.116";"17";"3";"1";"3";"1293";"1477";"780";"2014-10-16 13:45:02.533";"2";;;;;;;;;;;;;;;;;;;;;;;;;;;;;;;;;;;;;;;;;;;;;;;;;;;;;;;;;;;;;;;;;;;;;;;;;;;;;;;;
"amyholley";;;"Windows 7";"Rachel's Experiment (D.T.)";"1.0";"2";"1";"1";"2";"1";"1";"2014-10-16 13:32:46.008";"2014-10-16 13:47:31.154";"1";"0";"1";"176";"175";"module.devaluation_block1.exec-2852.deval1";"8501";"2014-10-16 13:45:17.649";"13";"7";"3";"6";"2711";"1760";"994";"2014-10-16 13:45:09.147";"2";;;;;;;;;;;;;;;;;;;;;;;;;;;;;;;;;;;;;;;;;;;;;;;;;;;;;;;;;;;;;;;;;;;;;;;;;;;;;;;;
"amyholley";;;"Windows 7";"Rachel's Experiment (D.T.)";"1.0";"2";"1";"1";"2";"1";"1";"2014-10-16 13:32:46.008";"2014-10-16 13:47:31.154";"1";"0";"1";"177";"176";"module.devaluation_block1.exec-2852.deval1";"9425";"2014-10-16 13:45:27.087";"4";"9";"3";"9";"2721";"1583";"2100";"2014-10-16 13:45:17.665";"1";;;;;;;;;;;;;;;;;;;;;;;;;;;;;;;;;;;;;;;;;;;;;;;;;;;;;;;;;;;;;;;;;;;;;;;;;;;;;;;;
"amyholley";;;"Windows 7";"Rachel's Experiment (D.T.)";"1.0";"2";"1";"1";"2";"1";"1";"2014-10-16 13:32:46.008";"2014-10-16 13:47:31.154";"1";"0";"1";"178";"177";"module.devaluation_block1.exec-2852.deval1";"7677";"2014-10-16 13:45:34.793";"23";"8";"1";"2";"1676";"925";"2044";"2014-10-16 13:45:27.118";"3";;;;;;;;;;;;;;;;;;;;;;;;;;;;;;;;;;;;;;;;;;;;;;;;;;;;;;;;;;;;;;;;;;;;;;;;;;;;;;;;
"amyholley";;;"Windows 7";"Rachel's Experiment (D.T.)";"1.0";"2";"1";"1";"2";"1";"1";"2014-10-16 13:32:46.008";"2014-10-16 13:47:31.154";"1";"0";"1";"179";"178";"module.devaluation_block1.exec-2852.deval1";"12045";"2014-10-16 13:45:46.852";"1";"5";"3";"7";"6969";"759";"1305";"2014-10-16 13:45:34.809";"1";;;;;;;;;;;;;;;;;;;;;;;;;;;;;;;;;;;;;;;;;;;;;;;;;;;;;;;;;;;;;;;;;;;;;;;;;;;;;;;;
"amyholley";;;"Windows 7";"Rachel's Experiment (D.T.)";"1.0";"2";"1";"1";"2";"1";"1";"2014-10-16 13:32:46.008";"2014-10-16 13:47:31.154";"1";"0";"1";"180";"179";"module.devaluation_block1.exec-2852.deval1";"7847";"2014-10-16 13:45:54.730";"21";"7";"3";"9";"2166";"1361";"1283";"2014-10-16 13:45:46.883";"3";;;;;;;;;;;;;;;;;;;;;;;;;;;;;;;;;;;;;;;;;;;;;;;;;;;;;;;;;;;;;;;;;;;;;;;;;;;;;;;;
"amyholley";;;"Windows 7";"Rachel's Experiment (D.T.)";"1.0";"2";"1";"1";"2";"1";"1";"2014-10-16 13:32:46.008";"2014-10-16 13:47:31.154";"1";"0";"1";"181";"180";"module.devaluation_block1.exec-2852.deval1";"8580";"2014-10-16 13:46:03.326";"26";"9";"2";"7";"1760";"2426";"1362";"2014-10-16 13:45:54.746";"3";;;;;;;;;;;;;;;;;;;;;;;;;;;;;;;;;;;;;;;;;;;;;;;;;;;;;;;;;;;;;;;;;;;;;;;;;;;;;;;;
"amyholley";;;"Windows 7";"Rachel's Experiment (D.T.)";"1.0";"2";"1";"1";"2";"1";"1";"2014-10-16 13:32:46.008";"2014-10-16 13:47:31.154";"1";"0";"1";"182";"181";"module.devaluation_block1.exec-2852.deval1";"14773";"2014-10-16 13:46:18.115";"5";"7";"3";"9";"7540";"2195";"2019";"2014-10-16 13:46:03.341";"1";;;;;;;;;;;;;;;;;;;;;;;;;;;;;;;;;;;;;;;;;;;;;;;;;;;;;;;;;;;;;;;;;;;;;;;;;;;;;;;;
"amyholley";;;"Windows 7";"Rachel's Experiment (D.T.)";"1.0";"2";"1";"1";"2";"1";"1";"2014-10-16 13:32:46.008";"2014-10-16 13:47:31.154";"1";"0";"1";"183";"182";"module.devaluation_block1.exec-2852.deval1";"8295";"2014-10-16 13:46:26.445";"18";"4";"2";"8";"1960";"1561";"1751";"2014-10-16 13:46:18.146";"3";;;;;;;;;;;;;;;;;;;;;;;;;;;;;;;;;;;;;;;;;;;;;;;;;;;;;;;;;;;;;;;;;;;;;;;;;;;;;;;;
"amyholley";;;"Windows 7";"Rachel's Experiment (D.T.)";"1.0";"2";"1";"1";"2";"1";"1";"2014-10-16 13:32:46.008";"2014-10-16 13:47:31.154";"1";"0";"1";"184";"183";"module.devaluation_block1.exec-2852.deval1";"8885";"2014-10-16 13:46:35.368";"19";"7";"3";"8";"3941";"934";"983";"2014-10-16 13:46:26.476";"3";;;;;;;;;;;;;;;;;;;;;;;;;;;;;;;;;;;;;;;;;;;;;;;;;;;;;;;;;;;;;;;;;;;;;;;;;;;;;;;;
"amyholley";;;"Windows 7";"Rachel's Experiment (D.T.)";"1.0";"2";"1";"1";"2";"1";"1";"2014-10-16 13:32:46.008";"2014-10-16 13:47:31.154";"1";"0";"1";"185";"184";"module.devaluation_block1.exec-2852.deval1";"6717";"2014-10-16 13:46:42.092";"10";"7";"2";"5";"1850";"1118";"726";"2014-10-16 13:46:35.384";"2";;;;;;;;;;;;;;;;;;;;;;;;;;;;;;;;;;;;;;;;;;;;;;;;;;;;;;;;;;;;;;;;;;;;;;;;;;;;;;;;
"amyholley";;;"Windows 7";"Rachel's Experiment (D.T.)";"1.0";"2";"1";"1";"2";"1";"1";"2014-10-16 13:32:46.008";"2014-10-16 13:47:31.154";"1";"0";"1";"186";"185";"module.devaluation_block1.exec-2852.deval1";"9942";"2014-10-16 13:46:52.060";"3";"5";"3";"9";"1878";"1421";"3627";"2014-10-16 13:46:42.107";"1";;;;;;;;;;;;;;;;;;;;;;;;;;;;;;;;;;;;;;;;;;;;;;;;;;;;;;;;;;;;;;;;;;;;;;;;;;;;;;;;
"amyholley";;;"Windows 7";"Rachel's Experiment (D.T.)";"1.0";"2";"1";"1";"2";"1";"1";"2014-10-16 13:32:46.008";"2014-10-16 13:47:31.154";"1";"0";"1";"187";"186";"module.devaluation_block1.exec-2852.deval1";"8670";"2014-10-16 13:47:00.765";"15";"2";"1";"3";"1254";"1997";"2387";"2014-10-16 13:46:52.091";"2";;;;;;;;;;;;;;;;;;;;;;;;;;;;;;;;;;;;;;;;;;;;;;;;;;;;;;;;;;;;;;;;;;;;;;;;;;;;;;;;
"amyholley";;;"Windows 7";"Rachel's Experiment (D.T.)";"1.0";"2";"1";"1";"2";"1";"1";"2014-10-16 13:32:46.008";"2014-10-16 13:47:31.154";"1";"0";"1";"188";"187";"module.devaluation_block1.exec-2852.deval1";"9196";"2014-10-16 13:47:09.969";"0";"4";"2";"7";"2357";"1308";"2502";"2014-10-16 13:47:00.781";"1";;;;;;;;;;;;;;;;;;;;;;;;;;;;;;;;;;;;;;;;;;;;;;;;;;;;;;;;;;;;;;;;;;;;;;;;;;;;;;;;
"amyholley";;;"Windows 7";"Rachel's Experiment (D.T.)";"1.0";"2";"1";"1";"2";"1";"1";"2014-10-16 13:32:46.008";"2014-10-16 13:47:31.154";"1";"0";"1";"189";"188";"module.devaluation_block1.exec-2852.deval1";"10173";"2014-10-16 13:47:20.172";"9";"7";"2";"7";"4081";"1001";"2063";"2014-10-16 13:47:10.000";"2";;;;;;;;;;;;;;;;;;;;;;;;;;;;;;;;;;;;;;;;;;;;;;;;;;;;;;;;;;;;;;;;;;;;;;;;;;;;;;;;
"amyholley";;;"Windows 7";"Rachel's Experiment (D.T.)";"1.0";"2";"1";"1";"2";"1";"1";"2014-10-16 13:32:46.008";"2014-10-16 13:47:31.154";"1";"0";"1";"190";"189";"module.devaluation_block1.exec-2852.deval1";"8405";"2014-10-16 13:47:28.596";"2";"3";"2";"7";"2798";"923";"1651";"2014-10-16 13:47:20.187";"1";;;;;;;;;;;;;;;;;;;;;;;;;;;;;;;;;;;;;;;;;;;;;;;;;;;;;;;;;;;;;;;;;;;;;;;;;;;;;;;;
