"user.name";"user.yearOfBirth";"user.sex";"user.osName";"module.name";"module.version";"module.online.subject.code";"module.online.study.id";"module.online.module.nr";"module.online.group.nr";"session.id";"session.index";"session.startTime";"session.endTime";"session.completed";"session.node-8214.conditionType";"session.node-9983.DevalQorder";"trial.id";"trial.index";"trial.name";"trial.deval1.durationTime";"trial.deval1.endTime";"trial.deval1.icon";"trial.deval1.Resp_Attractive";"trial.deval1.Resp_Eat";"trial.deval1.Resp_Taste";"trial.deval1.RT_Attractive";"trial.deval1.RT_Eat";"trial.deval1.RT_Taste";"trial.deval1.startTime";"trial.deval1.stimulus type";"trial.devalPractice.durationTime";"trial.devalPractice.endTime";"trial.devalPractice.icon";"trial.devalPractice.Resp_Attractive";"trial.devalPractice.Resp_Eat";"trial.devalPractice.Resp_Taste";"trial.devalPractice.RT_Attractive";"trial.devalPractice.RT_Eat";"trial.devalPractice.RT_Taste";"trial.devalPractice.startTime";"trial.devalPractice.stimulus type";"trial.GoNoGo1.durationTime";"trial.GoNoGo1.endTime";"trial.GoNoGo1.Error Type";"trial.GoNoGo1.icon";"trial.GoNoGo1.location";"trial.GoNoGo1.outcome";"trial.GoNoGo1.response";"trial.GoNoGo1.result";"trial.GoNoGo1.RT";"trial.GoNoGo1.signal";"trial.GoNoGo1.startTime";"trial.GoNoGo1.stimulus type";"trial.GoNoGo2.durationTime";"trial.GoNoGo2.endTime";"trial.GoNoGo2.Error Type";"trial.GoNoGo2.icon";"trial.GoNoGo2.location";"trial.GoNoGo2.outcome";"trial.GoNoGo2.response";"trial.GoNoGo2.result";"trial.GoNoGo2.RT";"trial.GoNoGo2.signal";"trial.GoNoGo2.startTime";"trial.GoNoGo2.stimulus type";"trial.GoNoGo3.durationTime";"trial.GoNoGo3.endTime";"trial.GoNoGo3.Error Type";"trial.GoNoGo3.icon";"trial.GoNoGo3.location";"trial.GoNoGo3.outcome";"trial.GoNoGo3.response";"trial.GoNoGo3.result";"trial.GoNoGo3.RT";"trial.GoNoGo3.signal";"trial.GoNoGo3.startTime";"trial.GoNoGo3.stimulus type";"trial.GoNoGo4.durationTime";"trial.GoNoGo4.endTime";"trial.GoNoGo4.Error Type";"trial.GoNoGo4.icon";"trial.GoNoGo4.location";"trial.GoNoGo4.outcome";"trial.GoNoGo4.response";"trial.GoNoGo4.result";"trial.GoNoGo4.RT";"trial.GoNoGo4.signal";"trial.GoNoGo4.startTime";"trial.GoNoGo4.stimulus type";"trial.GoNoGo_Practice.durationTime";"trial.GoNoGo_Practice.endTime";"trial.GoNoGo_Practice.icon";"trial.GoNoGo_Practice.location";"trial.GoNoGo_Practice.outcome";"trial.GoNoGo_Practice.response";"trial.GoNoGo_Practice.result";"trial.GoNoGo_Practice.RT";"trial.GoNoGo_Practice.signal";"trial.GoNoGo_Practice.startTime";"trial.GoNoGo_Practice.stimulus type";"trial.GoNoGo_Tutorial.durationTime";"trial.GoNoGo_Tutorial.endTime";"trial.GoNoGo_Tutorial.icon";"trial.GoNoGo_Tutorial.location";"trial.GoNoGo_Tutorial.outcome";"trial.GoNoGo_Tutorial.response";"trial.GoNoGo_Tutorial.result";"trial.GoNoGo_Tutorial.RT";"trial.GoNoGo_Tutorial.signal";"trial.GoNoGo_Tutorial.startTime"
"Piquet01";"1969";;"Windows 7";"Rachel's Experiment (D.T.)";"1.0";"2";"1";"1";"2";"1";"1";"2014-07-16 13:49:31.082";"2014-07-16 14:04:56.020";"1";"1";"0";"1";"0";"module.GoNoGotutorial.exec-3880.GoNoGo_Tutorial";;;;;;;;;;;;;;;;;;;;;;;;;;;;;;;;;;;;;;;;;;;;;;;;;;;;;;;;;;;;;;;;;;;;;;;;;;;;;;;;;;"4001";"2014-07-16 13:51:01.871";"leftResponse";"0";"FINISHED";"NONE";"failure";"0";"0";"2014-07-16 13:50:57.870"
"Piquet01";"1969";;"Windows 7";"Rachel's Experiment (D.T.)";"1.0";"2";"1";"1";"2";"1";"1";"2014-07-16 13:49:31.082";"2014-07-16 14:04:56.020";"1";"1";"0";"2";"1";"module.GoNoGotutorial.exec-3880.GoNoGo_Tutorial";;;;;;;;;;;;;;;;;;;;;;;;;;;;;;;;;;;;;;;;;;;;;;;;;;;;;;;;;;;;;;;;;;;;;;;;;;;;;;;;;;"4000";"2014-07-16 13:51:07.246";"rightResponse";"1";"FINISHED";"NONE";"failure";"0";"0";"2014-07-16 13:51:03.246"
"Piquet01";"1969";;"Windows 7";"Rachel's Experiment (D.T.)";"1.0";"2";"1";"1";"2";"1";"1";"2014-07-16 13:49:31.082";"2014-07-16 14:04:56.020";"1";"1";"0";"3";"2";"module.GoNoGotutorial.exec-3880.GoNoGo_Tutorial";;;;;;;;;;;;;;;;;;;;;;;;;;;;;;;;;;;;;;;;;;;;;;;;;;;;;;;;;;;;;;;;;;;;;;;;;;;;;;;;;;"4000";"2014-07-16 13:51:12.591";"signalResponse";"0";"FINISHED";"NONE";"success";"0";"1";"2014-07-16 13:51:08.590"
"Piquet01";"1969";;"Windows 7";"Rachel's Experiment (D.T.)";"1.0";"2";"1";"1";"2";"1";"1";"2014-07-16 13:49:31.082";"2014-07-16 14:04:56.020";"1";"1";"0";"4";"3";"module.GoNoGopractice.exec-3203.GoNoGo_Practice";;;;;;;;;;;;;;;;;;;;;;;;;;;;;;;;;;;;;;;;;;;;;;;;;;;;;;;;;;;;;;;;;;;;;;;"1981";"2014-07-16 13:51:20.802";"18";"0";"FINISHED";"LEFT";"success";"577";"0";"2014-07-16 13:51:18.820";"3";;;;;;;;;;
"Piquet01";"1969";;"Windows 7";"Rachel's Experiment (D.T.)";"1.0";"2";"1";"1";"2";"1";"1";"2014-07-16 13:49:31.082";"2014-07-16 14:04:56.020";"1";"1";"0";"5";"4";"module.GoNoGopractice.exec-3203.GoNoGo_Practice";;;;;;;;;;;;;;;;;;;;;;;;;;;;;;;;;;;;;;;;;;;;;;;;;;;;;;;;;;;;;;;;;;;;;;;"1951";"2014-07-16 13:51:24.117";"21";"1";"FINISHED";"RIGHT";"success";"627";"0";"2014-07-16 13:51:22.165";"3";;;;;;;;;;
"Piquet01";"1969";;"Windows 7";"Rachel's Experiment (D.T.)";"1.0";"2";"1";"1";"2";"1";"1";"2014-07-16 13:49:31.082";"2014-07-16 14:04:56.020";"1";"1";"0";"6";"5";"module.GoNoGopractice.exec-3203.GoNoGo_Practice";;;;;;;;;;;;;;;;;;;;;;;;;;;;;;;;;;;;;;;;;;;;;;;;;;;;;;;;;;;;;;;;;;;;;;;"2011";"2014-07-16 13:51:27.489";"14";"1";"FINISHED";"RIGHT";"failure";"1034";"1";"2014-07-16 13:51:25.477";"2";;;;;;;;;;
"Piquet01";"1969";;"Windows 7";"Rachel's Experiment (D.T.)";"1.0";"2";"1";"1";"2";"1";"1";"2014-07-16 13:49:31.082";"2014-07-16 14:04:56.020";"1";"1";"0";"7";"6";"module.GoNoGopractice.exec-3203.GoNoGo_Practice";;;;;;;;;;;;;;;;;;;;;;;;;;;;;;;;;;;;;;;;;;;;;;;;;;;;;;;;;;;;;;;;;;;;;;;"1952";"2014-07-16 13:51:30.785";"26";"0";"FINISHED";"LEFT";"success";"1137";"0";"2014-07-16 13:51:28.832";"3";;;;;;;;;;
"Piquet01";"1969";;"Windows 7";"Rachel's Experiment (D.T.)";"1.0";"2";"1";"1";"2";"1";"1";"2014-07-16 13:49:31.082";"2014-07-16 14:04:56.020";"1";"1";"0";"8";"7";"module.GoNoGopractice.exec-3203.GoNoGo_Practice";;;;;;;;;;;;;;;;;;;;;;;;;;;;;;;;;;;;;;;;;;;;;;;;;;;;;;;;;;;;;;;;;;;;;;;"1951";"2014-07-16 13:51:34.085";"2";"0";"FINISHED";"LEFT";"success";"790";"0";"2014-07-16 13:51:32.133";"1";;;;;;;;;;
"Piquet01";"1969";;"Windows 7";"Rachel's Experiment (D.T.)";"1.0";"2";"1";"1";"2";"1";"1";"2014-07-16 13:49:31.082";"2014-07-16 14:04:56.020";"1";"1";"0";"9";"8";"module.GoNoGopractice.exec-3203.GoNoGo_Practice";;;;;;;;;;;;;;;;;;;;;;;;;;;;;;;;;;;;;;;;;;;;;;;;;;;;;;;;;;;;;;;;;;;;;;;"1979";"2014-07-16 13:51:37.389";"30";"0";"FINISHED";"NONE";"success";"0";"1";"2014-07-16 13:51:35.409";"3";;;;;;;;;;
"Piquet01";"1969";;"Windows 7";"Rachel's Experiment (D.T.)";"1.0";"2";"1";"1";"2";"1";"1";"2014-07-16 13:49:31.082";"2014-07-16 14:04:56.020";"1";"1";"0";"10";"9";"module.GoNoGopractice.exec-3203.GoNoGo_Practice";;;;;;;;;;;;;;;;;;;;;;;;;;;;;;;;;;;;;;;;;;;;;;;;;;;;;;;;;;;;;;;;;;;;;;;"1953";"2014-07-16 13:51:40.682";"6";"1";"FINISHED";"NONE";"success";"0";"1";"2014-07-16 13:51:38.729";"1";;;;;;;;;;
"Piquet01";"1969";;"Windows 7";"Rachel's Experiment (D.T.)";"1.0";"2";"1";"1";"2";"1";"1";"2014-07-16 13:49:31.082";"2014-07-16 14:04:56.020";"1";"1";"0";"11";"10";"module.GoNoGopractice.exec-3203.GoNoGo_Practice";;;;;;;;;;;;;;;;;;;;;;;;;;;;;;;;;;;;;;;;;;;;;;;;;;;;;;;;;;;;;;;;;;;;;;;"1952";"2014-07-16 13:51:44.006";"34";"0";"FINISHED";"LEFT";"success";"705";"0";"2014-07-16 13:51:42.053";"3";;;;;;;;;;
"Piquet01";"1969";;"Windows 7";"Rachel's Experiment (D.T.)";"1.0";"2";"1";"1";"2";"1";"1";"2014-07-16 13:49:31.082";"2014-07-16 14:04:56.020";"1";"1";"0";"12";"11";"module.GoNoGopractice.exec-3203.GoNoGo_Practice";;;;;;;;;;;;;;;;;;;;;;;;;;;;;;;;;;;;;;;;;;;;;;;;;;;;;;;;;;;;;;;;;;;;;;;"1951";"2014-07-16 13:51:47.307";"23";"1";"FINISHED";"RIGHT";"success";"701";"0";"2014-07-16 13:51:45.355";"3";;;;;;;;;;
"Piquet01";"1969";;"Windows 7";"Rachel's Experiment (D.T.)";"1.0";"2";"1";"1";"2";"1";"1";"2014-07-16 13:49:31.082";"2014-07-16 14:04:56.020";"1";"1";"0";"13";"12";"module.GoNoGopractice.exec-3203.GoNoGo_Practice";;;;;;;;;;;;;;;;;;;;;;;;;;;;;;;;;;;;;;;;;;;;;;;;;;;;;;;;;;;;;;;;;;;;;;;"1952";"2014-07-16 13:51:50.608";"13";"0";"FINISHED";"NONE";"success";"0";"1";"2014-07-16 13:51:48.655";"2";;;;;;;;;;
"Piquet01";"1969";;"Windows 7";"Rachel's Experiment (D.T.)";"1.0";"2";"1";"1";"2";"1";"1";"2014-07-16 13:49:31.082";"2014-07-16 14:04:56.020";"1";"1";"0";"14";"13";"module.GoNoGopractice.exec-3203.GoNoGo_Practice";;;;;;;;;;;;;;;;;;;;;;;;;;;;;;;;;;;;;;;;;;;;;;;;;;;;;;;;;;;;;;;;;;;;;;;"1963";"2014-07-16 13:51:54.071";"3";"1";"FINISHED";"RIGHT";"success";"685";"0";"2014-07-16 13:51:52.107";"1";;;;;;;;;;
"Piquet01";"1969";;"Windows 7";"Rachel's Experiment (D.T.)";"1.0";"2";"1";"1";"2";"1";"1";"2014-07-16 13:49:31.082";"2014-07-16 14:04:56.020";"1";"1";"0";"15";"14";"module.GoNoGopractice.exec-3203.GoNoGo_Practice";;;;;;;;;;;;;;;;;;;;;;;;;;;;;;;;;;;;;;;;;;;;;;;;;;;;;;;;;;;;;;;;;;;;;;;"1960";"2014-07-16 13:51:57.381";"27";"1";"FINISHED";"NONE";"success";"0";"1";"2014-07-16 13:51:55.421";"3";;;;;;;;;;
"Piquet01";"1969";;"Windows 7";"Rachel's Experiment (D.T.)";"1.0";"2";"1";"1";"2";"1";"1";"2014-07-16 13:49:31.082";"2014-07-16 14:04:56.020";"1";"1";"0";"16";"15";"module.training_block1.exec-3304.GoNoGo1";;;;;;;;;;;;;;;;;;;;;;;"1251";"2014-07-16 13:52:08.280";"NST_correctLoc";"9";"0";"FINISHED";"LEFT";"success";"604";"0";"2014-07-16 13:52:07.029";"2";;;;;;;;;;;;;;;;;;;;;;;;;;;;;;;;;;;;;;;;;;;;;;;;;;;;;;;;;
"Piquet01";"1969";;"Windows 7";"Rachel's Experiment (D.T.)";"1.0";"2";"1";"1";"2";"1";"1";"2014-07-16 13:49:31.082";"2014-07-16 14:04:56.020";"1";"1";"0";"17";"16";"module.training_block1.exec-3304.GoNoGo1";;;;;;;;;;;;;;;;;;;;;;;"1249";"2014-07-16 13:52:10.877";"ST_correctStop";"8";"1";"FINISHED";"NONE";"success";"0";"1";"2014-07-16 13:52:09.627";"1";;;;;;;;;;;;;;;;;;;;;;;;;;;;;;;;;;;;;;;;;;;;;;;;;;;;;;;;;
"Piquet01";"1969";;"Windows 7";"Rachel's Experiment (D.T.)";"1.0";"2";"1";"1";"2";"1";"1";"2014-07-16 13:49:31.082";"2014-07-16 14:04:56.020";"1";"1";"0";"18";"17";"module.training_block1.exec-3304.GoNoGo1";;;;;;;;;;;;;;;;;;;;;;;"1249";"2014-07-16 13:52:13.470";"NST_correctLoc";"24";"1";"FINISHED";"RIGHT";"success";"646";"0";"2014-07-16 13:52:12.220";"3";;;;;;;;;;;;;;;;;;;;;;;;;;;;;;;;;;;;;;;;;;;;;;;;;;;;;;;;;
"Piquet01";"1969";;"Windows 7";"Rachel's Experiment (D.T.)";"1.0";"2";"1";"1";"2";"1";"1";"2014-07-16 13:49:31.082";"2014-07-16 14:04:56.020";"1";"1";"0";"19";"18";"module.training_block1.exec-3304.GoNoGo1";;;;;;;;;;;;;;;;;;;;;;;"1249";"2014-07-16 13:52:16.037";"ST_correctStop";"28";"1";"FINISHED";"NONE";"success";"0";"1";"2014-07-16 13:52:14.787";"3";;;;;;;;;;;;;;;;;;;;;;;;;;;;;;;;;;;;;;;;;;;;;;;;;;;;;;;;;
"Piquet01";"1969";;"Windows 7";"Rachel's Experiment (D.T.)";"1.0";"2";"1";"1";"2";"1";"1";"2014-07-16 13:49:31.082";"2014-07-16 14:04:56.020";"1";"1";"0";"20";"19";"module.training_block1.exec-3304.GoNoGo1";;;;;;;;;;;;;;;;;;;;;;;"1250";"2014-07-16 13:52:18.596";"NST_correctLoc";"23";"1";"FINISHED";"RIGHT";"success";"765";"0";"2014-07-16 13:52:17.346";"3";;;;;;;;;;;;;;;;;;;;;;;;;;;;;;;;;;;;;;;;;;;;;;;;;;;;;;;;;
"Piquet01";"1969";;"Windows 7";"Rachel's Experiment (D.T.)";"1.0";"2";"1";"1";"2";"1";"1";"2014-07-16 13:49:31.082";"2014-07-16 14:04:56.020";"1";"1";"0";"21";"20";"module.training_block1.exec-3304.GoNoGo1";;;;;;;;;;;;;;;;;;;;;;;"1250";"2014-07-16 13:52:21.183";"NST_correctLoc";"19";"1";"FINISHED";"RIGHT";"success";"620";"0";"2014-07-16 13:52:19.932";"3";;;;;;;;;;;;;;;;;;;;;;;;;;;;;;;;;;;;;;;;;;;;;;;;;;;;;;;;;
"Piquet01";"1969";;"Windows 7";"Rachel's Experiment (D.T.)";"1.0";"2";"1";"1";"2";"1";"1";"2014-07-16 13:49:31.082";"2014-07-16 14:04:56.020";"1";"1";"0";"22";"21";"module.training_block1.exec-3304.GoNoGo1";;;;;;;;;;;;;;;;;;;;;;;"1249";"2014-07-16 13:52:23.749";"NST_correctLoc";"14";"0";"FINISHED";"LEFT";"success";"603";"0";"2014-07-16 13:52:22.499";"2";;;;;;;;;;;;;;;;;;;;;;;;;;;;;;;;;;;;;;;;;;;;;;;;;;;;;;;;;
"Piquet01";"1969";;"Windows 7";"Rachel's Experiment (D.T.)";"1.0";"2";"1";"1";"2";"1";"1";"2014-07-16 13:49:31.082";"2014-07-16 14:04:56.020";"1";"1";"0";"23";"22";"module.training_block1.exec-3304.GoNoGo1";;;;;;;;;;;;;;;;;;;;;;;"1250";"2014-07-16 13:52:26.360";"NST_correctLoc";"12";"0";"FINISHED";"LEFT";"success";"623";"0";"2014-07-16 13:52:25.110";"2";;;;;;;;;;;;;;;;;;;;;;;;;;;;;;;;;;;;;;;;;;;;;;;;;;;;;;;;;
"Piquet01";"1969";;"Windows 7";"Rachel's Experiment (D.T.)";"1.0";"2";"1";"1";"2";"1";"1";"2014-07-16 13:49:31.082";"2014-07-16 14:04:56.020";"1";"1";"0";"24";"23";"module.training_block1.exec-3304.GoNoGo1";;;;;;;;;;;;;;;;;;;;;;;"1249";"2014-07-16 13:52:28.961";"ST_correctStop";"5";"0";"FINISHED";"NONE";"success";"0";"1";"2014-07-16 13:52:27.711";"1";;;;;;;;;;;;;;;;;;;;;;;;;;;;;;;;;;;;;;;;;;;;;;;;;;;;;;;;;
"Piquet01";"1969";;"Windows 7";"Rachel's Experiment (D.T.)";"1.0";"2";"1";"1";"2";"1";"1";"2014-07-16 13:49:31.082";"2014-07-16 14:04:56.020";"1";"1";"0";"25";"24";"module.training_block1.exec-3304.GoNoGo1";;;;;;;;;;;;;;;;;;;;;;;"1249";"2014-07-16 13:52:31.568";"NST_correctLoc";"16";"0";"FINISHED";"LEFT";"success";"499";"0";"2014-07-16 13:52:30.318";"2";;;;;;;;;;;;;;;;;;;;;;;;;;;;;;;;;;;;;;;;;;;;;;;;;;;;;;;;;
"Piquet01";"1969";;"Windows 7";"Rachel's Experiment (D.T.)";"1.0";"2";"1";"1";"2";"1";"1";"2014-07-16 13:49:31.082";"2014-07-16 14:04:56.020";"1";"1";"0";"26";"25";"module.training_block1.exec-3304.GoNoGo1";;;;;;;;;;;;;;;;;;;;;;;"1250";"2014-07-16 13:52:34.170";"ST_correctStop";"0";"1";"FINISHED";"NONE";"success";"0";"1";"2014-07-16 13:52:32.920";"1";;;;;;;;;;;;;;;;;;;;;;;;;;;;;;;;;;;;;;;;;;;;;;;;;;;;;;;;;
"Piquet01";"1969";;"Windows 7";"Rachel's Experiment (D.T.)";"1.0";"2";"1";"1";"2";"1";"1";"2014-07-16 13:49:31.082";"2014-07-16 14:04:56.020";"1";"1";"0";"27";"26";"module.training_block1.exec-3304.GoNoGo1";;;;;;;;;;;;;;;;;;;;;;;"1249";"2014-07-16 13:52:36.772";"ST_correctStop";"33";"0";"FINISHED";"NONE";"success";"0";"1";"2014-07-16 13:52:35.522";"3";;;;;;;;;;;;;;;;;;;;;;;;;;;;;;;;;;;;;;;;;;;;;;;;;;;;;;;;;
"Piquet01";"1969";;"Windows 7";"Rachel's Experiment (D.T.)";"1.0";"2";"1";"1";"2";"1";"1";"2014-07-16 13:49:31.082";"2014-07-16 14:04:56.020";"1";"1";"0";"28";"27";"module.training_block1.exec-3304.GoNoGo1";;;;;;;;;;;;;;;;;;;;;;;"1250";"2014-07-16 13:52:39.323";"ST_correctStop";"6";"1";"FINISHED";"NONE";"success";"0";"1";"2014-07-16 13:52:38.072";"1";;;;;;;;;;;;;;;;;;;;;;;;;;;;;;;;;;;;;;;;;;;;;;;;;;;;;;;;;
"Piquet01";"1969";;"Windows 7";"Rachel's Experiment (D.T.)";"1.0";"2";"1";"1";"2";"1";"1";"2014-07-16 13:49:31.082";"2014-07-16 14:04:56.020";"1";"1";"0";"29";"28";"module.training_block1.exec-3304.GoNoGo1";;;;;;;;;;;;;;;;;;;;;;;"1250";"2014-07-16 13:52:41.964";"NST_correctLoc";"31";"1";"FINISHED";"RIGHT";"success";"750";"0";"2014-07-16 13:52:40.714";"3";;;;;;;;;;;;;;;;;;;;;;;;;;;;;;;;;;;;;;;;;;;;;;;;;;;;;;;;;
"Piquet01";"1969";;"Windows 7";"Rachel's Experiment (D.T.)";"1.0";"2";"1";"1";"2";"1";"1";"2014-07-16 13:49:31.082";"2014-07-16 14:04:56.020";"1";"1";"0";"30";"29";"module.training_block1.exec-3304.GoNoGo1";;;;;;;;;;;;;;;;;;;;;;;"1250";"2014-07-16 13:52:44.531";"NST_correctLoc";"34";"1";"FINISHED";"RIGHT";"success";"605";"0";"2014-07-16 13:52:43.281";"3";;;;;;;;;;;;;;;;;;;;;;;;;;;;;;;;;;;;;;;;;;;;;;;;;;;;;;;;;
"Piquet01";"1969";;"Windows 7";"Rachel's Experiment (D.T.)";"1.0";"2";"1";"1";"2";"1";"1";"2014-07-16 13:49:31.082";"2014-07-16 14:04:56.020";"1";"1";"0";"31";"30";"module.training_block1.exec-3304.GoNoGo1";;;;;;;;;;;;;;;;;;;;;;;"1250";"2014-07-16 13:52:47.123";"ST_correctStop";"7";"1";"FINISHED";"NONE";"success";"0";"1";"2014-07-16 13:52:45.873";"1";;;;;;;;;;;;;;;;;;;;;;;;;;;;;;;;;;;;;;;;;;;;;;;;;;;;;;;;;
"Piquet01";"1969";;"Windows 7";"Rachel's Experiment (D.T.)";"1.0";"2";"1";"1";"2";"1";"1";"2014-07-16 13:49:31.082";"2014-07-16 14:04:56.020";"1";"1";"0";"32";"31";"module.training_block1.exec-3304.GoNoGo1";;;;;;;;;;;;;;;;;;;;;;;"1249";"2014-07-16 13:52:49.688";"ST_correctStop";"2";"1";"FINISHED";"NONE";"success";"0";"1";"2014-07-16 13:52:48.438";"1";;;;;;;;;;;;;;;;;;;;;;;;;;;;;;;;;;;;;;;;;;;;;;;;;;;;;;;;;
"Piquet01";"1969";;"Windows 7";"Rachel's Experiment (D.T.)";"1.0";"2";"1";"1";"2";"1";"1";"2014-07-16 13:49:31.082";"2014-07-16 14:04:56.020";"1";"1";"0";"33";"32";"module.training_block1.exec-3304.GoNoGo1";;;;;;;;;;;;;;;;;;;;;;;"1250";"2014-07-16 13:52:52.272";"NST_correctLoc";"10";"0";"FINISHED";"LEFT";"success";"665";"0";"2014-07-16 13:52:51.021";"2";;;;;;;;;;;;;;;;;;;;;;;;;;;;;;;;;;;;;;;;;;;;;;;;;;;;;;;;;
"Piquet01";"1969";;"Windows 7";"Rachel's Experiment (D.T.)";"1.0";"2";"1";"1";"2";"1";"1";"2014-07-16 13:49:31.082";"2014-07-16 14:04:56.020";"1";"1";"0";"34";"33";"module.training_block1.exec-3304.GoNoGo1";;;;;;;;;;;;;;;;;;;;;;;"1249";"2014-07-16 13:52:54.862";"NST_correctLoc";"20";"0";"FINISHED";"LEFT";"success";"713";"0";"2014-07-16 13:52:53.612";"3";;;;;;;;;;;;;;;;;;;;;;;;;;;;;;;;;;;;;;;;;;;;;;;;;;;;;;;;;
"Piquet01";"1969";;"Windows 7";"Rachel's Experiment (D.T.)";"1.0";"2";"1";"1";"2";"1";"1";"2014-07-16 13:49:31.082";"2014-07-16 14:04:56.020";"1";"1";"0";"35";"34";"module.training_block1.exec-3304.GoNoGo1";;;;;;;;;;;;;;;;;;;;;;;"1249";"2014-07-16 13:52:57.394";"ST_correctStop";"27";"0";"FINISHED";"NONE";"success";"0";"1";"2014-07-16 13:52:56.144";"3";;;;;;;;;;;;;;;;;;;;;;;;;;;;;;;;;;;;;;;;;;;;;;;;;;;;;;;;;
"Piquet01";"1969";;"Windows 7";"Rachel's Experiment (D.T.)";"1.0";"2";"1";"1";"2";"1";"1";"2014-07-16 13:49:31.082";"2014-07-16 14:04:56.020";"1";"1";"0";"36";"35";"module.training_block1.exec-3304.GoNoGo1";;;;;;;;;;;;;;;;;;;;;;;"1250";"2014-07-16 13:53:00.004";"NST_correctLoc";"15";"0";"FINISHED";"LEFT";"success";"610";"0";"2014-07-16 13:52:58.754";"2";;;;;;;;;;;;;;;;;;;;;;;;;;;;;;;;;;;;;;;;;;;;;;;;;;;;;;;;;
"Piquet01";"1969";;"Windows 7";"Rachel's Experiment (D.T.)";"1.0";"2";"1";"1";"2";"1";"1";"2014-07-16 13:49:31.082";"2014-07-16 14:04:56.020";"1";"1";"0";"37";"36";"module.training_block1.exec-3304.GoNoGo1";;;;;;;;;;;;;;;;;;;;;;;"1250";"2014-07-16 13:53:02.586";"NST_correctLoc";"32";"1";"FINISHED";"RIGHT";"success";"663";"0";"2014-07-16 13:53:01.336";"3";;;;;;;;;;;;;;;;;;;;;;;;;;;;;;;;;;;;;;;;;;;;;;;;;;;;;;;;;
"Piquet01";"1969";;"Windows 7";"Rachel's Experiment (D.T.)";"1.0";"2";"1";"1";"2";"1";"1";"2014-07-16 13:49:31.082";"2014-07-16 14:04:56.020";"1";"1";"0";"38";"37";"module.training_block1.exec-3304.GoNoGo1";;;;;;;;;;;;;;;;;;;;;;;"1249";"2014-07-16 13:53:05.154";"NST_correctLoc";"17";"1";"FINISHED";"RIGHT";"success";"727";"0";"2014-07-16 13:53:03.904";"2";;;;;;;;;;;;;;;;;;;;;;;;;;;;;;;;;;;;;;;;;;;;;;;;;;;;;;;;;
"Piquet01";"1969";;"Windows 7";"Rachel's Experiment (D.T.)";"1.0";"2";"1";"1";"2";"1";"1";"2014-07-16 13:49:31.082";"2014-07-16 14:04:56.020";"1";"1";"0";"39";"38";"module.training_block1.exec-3304.GoNoGo1";;;;;;;;;;;;;;;;;;;;;;;"1249";"2014-07-16 13:53:07.745";"ST_correctStop";"4";"0";"FINISHED";"NONE";"success";"0";"1";"2014-07-16 13:53:06.495";"1";;;;;;;;;;;;;;;;;;;;;;;;;;;;;;;;;;;;;;;;;;;;;;;;;;;;;;;;;
"Piquet01";"1969";;"Windows 7";"Rachel's Experiment (D.T.)";"1.0";"2";"1";"1";"2";"1";"1";"2014-07-16 13:49:31.082";"2014-07-16 14:04:56.020";"1";"1";"0";"40";"39";"module.training_block1.exec-3304.GoNoGo1";;;;;;;;;;;;;;;;;;;;;;;"1250";"2014-07-16 13:53:10.361";"ST_correctStop";"29";"0";"FINISHED";"NONE";"success";"0";"1";"2014-07-16 13:53:09.111";"3";;;;;;;;;;;;;;;;;;;;;;;;;;;;;;;;;;;;;;;;;;;;;;;;;;;;;;;;;
"Piquet01";"1969";;"Windows 7";"Rachel's Experiment (D.T.)";"1.0";"2";"1";"1";"2";"1";"1";"2014-07-16 13:49:31.082";"2014-07-16 14:04:56.020";"1";"1";"0";"41";"40";"module.training_block1.exec-3304.GoNoGo1";;;;;;;;;;;;;;;;;;;;;;;"1249";"2014-07-16 13:53:12.910";"NST_correctLoc";"21";"0";"FINISHED";"LEFT";"success";"646";"0";"2014-07-16 13:53:11.659";"3";;;;;;;;;;;;;;;;;;;;;;;;;;;;;;;;;;;;;;;;;;;;;;;;;;;;;;;;;
"Piquet01";"1969";;"Windows 7";"Rachel's Experiment (D.T.)";"1.0";"2";"1";"1";"2";"1";"1";"2014-07-16 13:49:31.082";"2014-07-16 14:04:56.020";"1";"1";"0";"42";"41";"module.training_block1.exec-3304.GoNoGo1";;;;;;;;;;;;;;;;;;;;;;;"1249";"2014-07-16 13:53:15.493";"ST_correctStop";"1";"1";"FINISHED";"NONE";"success";"0";"1";"2014-07-16 13:53:14.243";"1";;;;;;;;;;;;;;;;;;;;;;;;;;;;;;;;;;;;;;;;;;;;;;;;;;;;;;;;;
"Piquet01";"1969";;"Windows 7";"Rachel's Experiment (D.T.)";"1.0";"2";"1";"1";"2";"1";"1";"2014-07-16 13:49:31.082";"2014-07-16 14:04:56.020";"1";"1";"0";"43";"42";"module.training_block1.exec-3304.GoNoGo1";;;;;;;;;;;;;;;;;;;;;;;"1250";"2014-07-16 13:53:18.107";"NST_correctLoc";"22";"1";"FINISHED";"RIGHT";"success";"595";"0";"2014-07-16 13:53:16.857";"3";;;;;;;;;;;;;;;;;;;;;;;;;;;;;;;;;;;;;;;;;;;;;;;;;;;;;;;;;
"Piquet01";"1969";;"Windows 7";"Rachel's Experiment (D.T.)";"1.0";"2";"1";"1";"2";"1";"1";"2014-07-16 13:49:31.082";"2014-07-16 14:04:56.020";"1";"1";"0";"44";"43";"module.training_block1.exec-3304.GoNoGo1";;;;;;;;;;;;;;;;;;;;;;;"1249";"2014-07-16 13:53:20.651";"ST_correctStop";"3";"0";"FINISHED";"NONE";"success";"0";"1";"2014-07-16 13:53:19.401";"1";;;;;;;;;;;;;;;;;;;;;;;;;;;;;;;;;;;;;;;;;;;;;;;;;;;;;;;;;
"Piquet01";"1969";;"Windows 7";"Rachel's Experiment (D.T.)";"1.0";"2";"1";"1";"2";"1";"1";"2014-07-16 13:49:31.082";"2014-07-16 14:04:56.020";"1";"1";"0";"45";"44";"module.training_block1.exec-3304.GoNoGo1";;;;;;;;;;;;;;;;;;;;;;;"1249";"2014-07-16 13:53:23.216";"ST_correctStop";"26";"0";"FINISHED";"NONE";"success";"0";"1";"2014-07-16 13:53:21.966";"3";;;;;;;;;;;;;;;;;;;;;;;;;;;;;;;;;;;;;;;;;;;;;;;;;;;;;;;;;
"Piquet01";"1969";;"Windows 7";"Rachel's Experiment (D.T.)";"1.0";"2";"1";"1";"2";"1";"1";"2014-07-16 13:49:31.082";"2014-07-16 14:04:56.020";"1";"1";"0";"46";"45";"module.training_block1.exec-3304.GoNoGo1";;;;;;;;;;;;;;;;;;;;;;;"1250";"2014-07-16 13:53:25.779";"ST_correctStop";"18";"1";"FINISHED";"NONE";"success";"0";"1";"2014-07-16 13:53:24.529";"3";;;;;;;;;;;;;;;;;;;;;;;;;;;;;;;;;;;;;;;;;;;;;;;;;;;;;;;;;
"Piquet01";"1969";;"Windows 7";"Rachel's Experiment (D.T.)";"1.0";"2";"1";"1";"2";"1";"1";"2014-07-16 13:49:31.082";"2014-07-16 14:04:56.020";"1";"1";"0";"47";"46";"module.training_block1.exec-3304.GoNoGo1";;;;;;;;;;;;;;;;;;;;;;;"1249";"2014-07-16 13:53:28.350";"NST_correctLoc";"11";"0";"FINISHED";"LEFT";"success";"478";"0";"2014-07-16 13:53:27.100";"2";;;;;;;;;;;;;;;;;;;;;;;;;;;;;;;;;;;;;;;;;;;;;;;;;;;;;;;;;
"Piquet01";"1969";;"Windows 7";"Rachel's Experiment (D.T.)";"1.0";"2";"1";"1";"2";"1";"1";"2014-07-16 13:49:31.082";"2014-07-16 14:04:56.020";"1";"1";"0";"48";"47";"module.training_block1.exec-3304.GoNoGo1";;;;;;;;;;;;;;;;;;;;;;;"1249";"2014-07-16 13:53:30.939";"ST_correctStop";"25";"0";"FINISHED";"NONE";"success";"0";"1";"2014-07-16 13:53:29.688";"3";;;;;;;;;;;;;;;;;;;;;;;;;;;;;;;;;;;;;;;;;;;;;;;;;;;;;;;;;
"Piquet01";"1969";;"Windows 7";"Rachel's Experiment (D.T.)";"1.0";"2";"1";"1";"2";"1";"1";"2014-07-16 13:49:31.082";"2014-07-16 14:04:56.020";"1";"1";"0";"49";"48";"module.training_block1.exec-3304.GoNoGo1";;;;;;;;;;;;;;;;;;;;;;;"1249";"2014-07-16 13:53:33.505";"ST_correctStop";"30";"1";"FINISHED";"NONE";"success";"0";"1";"2014-07-16 13:53:32.255";"3";;;;;;;;;;;;;;;;;;;;;;;;;;;;;;;;;;;;;;;;;;;;;;;;;;;;;;;;;
"Piquet01";"1969";;"Windows 7";"Rachel's Experiment (D.T.)";"1.0";"2";"1";"1";"2";"1";"1";"2014-07-16 13:49:31.082";"2014-07-16 14:04:56.020";"1";"1";"0";"50";"49";"module.training_block1.exec-3304.GoNoGo1";;;;;;;;;;;;;;;;;;;;;;;"1250";"2014-07-16 13:53:36.069";"NST_correctLoc";"13";"0";"FINISHED";"LEFT";"success";"471";"0";"2014-07-16 13:53:34.819";"2";;;;;;;;;;;;;;;;;;;;;;;;;;;;;;;;;;;;;;;;;;;;;;;;;;;;;;;;;
"Piquet01";"1969";;"Windows 7";"Rachel's Experiment (D.T.)";"1.0";"2";"1";"1";"2";"1";"1";"2014-07-16 13:49:31.082";"2014-07-16 14:04:56.020";"1";"1";"0";"51";"50";"module.training_block1.exec-3304.GoNoGo1";;;;;;;;;;;;;;;;;;;;;;;"1250";"2014-07-16 13:53:38.642";"ST_correctStop";"35";"0";"FINISHED";"NONE";"success";"0";"1";"2014-07-16 13:53:37.392";"3";;;;;;;;;;;;;;;;;;;;;;;;;;;;;;;;;;;;;;;;;;;;;;;;;;;;;;;;;
"Piquet01";"1969";;"Windows 7";"Rachel's Experiment (D.T.)";"1.0";"2";"1";"1";"2";"1";"1";"2014-07-16 13:49:31.082";"2014-07-16 14:04:56.020";"1";"1";"0";"52";"51";"module.training_block2.exec-2492.GoNoGo2";;;;;;;;;;;;;;;;;;;;;;;;;;;;;;;;;;;"1250";"2014-07-16 13:53:50.735";"ST_correctStop";"28";"0";"FINISHED";"NONE";"success";"0";"1";"2014-07-16 13:53:49.485";"3";;;;;;;;;;;;;;;;;;;;;;;;;;;;;;;;;;;;;;;;;;;;;
"Piquet01";"1969";;"Windows 7";"Rachel's Experiment (D.T.)";"1.0";"2";"1";"1";"2";"1";"1";"2014-07-16 13:49:31.082";"2014-07-16 14:04:56.020";"1";"1";"0";"53";"52";"module.training_block2.exec-2492.GoNoGo2";;;;;;;;;;;;;;;;;;;;;;;;;;;;;;;;;;;"1249";"2014-07-16 13:53:53.282";"ST_correctStop";"27";"0";"FINISHED";"NONE";"success";"0";"1";"2014-07-16 13:53:52.032";"3";;;;;;;;;;;;;;;;;;;;;;;;;;;;;;;;;;;;;;;;;;;;;
"Piquet01";"1969";;"Windows 7";"Rachel's Experiment (D.T.)";"1.0";"2";"1";"1";"2";"1";"1";"2014-07-16 13:49:31.082";"2014-07-16 14:04:56.020";"1";"1";"0";"54";"53";"module.training_block2.exec-2492.GoNoGo2";;;;;;;;;;;;;;;;;;;;;;;;;;;;;;;;;;;"1249";"2014-07-16 13:53:55.831";"NST_correctLoc";"30";"0";"FINISHED";"LEFT";"success";"481";"0";"2014-07-16 13:53:54.581";"3";;;;;;;;;;;;;;;;;;;;;;;;;;;;;;;;;;;;;;;;;;;;;
"Piquet01";"1969";;"Windows 7";"Rachel's Experiment (D.T.)";"1.0";"2";"1";"1";"2";"1";"1";"2014-07-16 13:49:31.082";"2014-07-16 14:04:56.020";"1";"1";"0";"55";"54";"module.training_block2.exec-2492.GoNoGo2";;;;;;;;;;;;;;;;;;;;;;;;;;;;;;;;;;;"1249";"2014-07-16 13:53:58.379";"NST_correctLoc";"33";"0";"FINISHED";"LEFT";"success";"444";"0";"2014-07-16 13:53:57.129";"3";;;;;;;;;;;;;;;;;;;;;;;;;;;;;;;;;;;;;;;;;;;;;
"Piquet01";"1969";;"Windows 7";"Rachel's Experiment (D.T.)";"1.0";"2";"1";"1";"2";"1";"1";"2014-07-16 13:49:31.082";"2014-07-16 14:04:56.020";"1";"1";"0";"56";"55";"module.training_block2.exec-2492.GoNoGo2";;;;;;;;;;;;;;;;;;;;;;;;;;;;;;;;;;;"1249";"2014-07-16 13:54:00.928";"NST_correctLoc";"23";"1";"FINISHED";"RIGHT";"success";"506";"0";"2014-07-16 13:53:59.678";"3";;;;;;;;;;;;;;;;;;;;;;;;;;;;;;;;;;;;;;;;;;;;;
"Piquet01";"1969";;"Windows 7";"Rachel's Experiment (D.T.)";"1.0";"2";"1";"1";"2";"1";"1";"2014-07-16 13:49:31.082";"2014-07-16 14:04:56.020";"1";"1";"0";"57";"56";"module.training_block2.exec-2492.GoNoGo2";;;;;;;;;;;;;;;;;;;;;;;;;;;;;;;;;;;"1249";"2014-07-16 13:54:03.478";"ST_correctStop";"19";"0";"FINISHED";"NONE";"success";"0";"1";"2014-07-16 13:54:02.228";"3";;;;;;;;;;;;;;;;;;;;;;;;;;;;;;;;;;;;;;;;;;;;;
"Piquet01";"1969";;"Windows 7";"Rachel's Experiment (D.T.)";"1.0";"2";"1";"1";"2";"1";"1";"2014-07-16 13:49:31.082";"2014-07-16 14:04:56.020";"1";"1";"0";"58";"57";"module.training_block2.exec-2492.GoNoGo2";;;;;;;;;;;;;;;;;;;;;;;;;;;;;;;;;;;"1250";"2014-07-16 13:54:06.010";"NST_correctLoc";"17";"0";"FINISHED";"LEFT";"success";"550";"0";"2014-07-16 13:54:04.759";"2";;;;;;;;;;;;;;;;;;;;;;;;;;;;;;;;;;;;;;;;;;;;;
"Piquet01";"1969";;"Windows 7";"Rachel's Experiment (D.T.)";"1.0";"2";"1";"1";"2";"1";"1";"2014-07-16 13:49:31.082";"2014-07-16 14:04:56.020";"1";"1";"0";"59";"58";"module.training_block2.exec-2492.GoNoGo2";;;;;;;;;;;;;;;;;;;;;;;;;;;;;;;;;;;"1249";"2014-07-16 13:54:08.554";"ST_correctStop";"5";"1";"FINISHED";"NONE";"success";"0";"1";"2014-07-16 13:54:07.304";"1";;;;;;;;;;;;;;;;;;;;;;;;;;;;;;;;;;;;;;;;;;;;;
"Piquet01";"1969";;"Windows 7";"Rachel's Experiment (D.T.)";"1.0";"2";"1";"1";"2";"1";"1";"2014-07-16 13:49:31.082";"2014-07-16 14:04:56.020";"1";"1";"0";"60";"59";"module.training_block2.exec-2492.GoNoGo2";;;;;;;;;;;;;;;;;;;;;;;;;;;;;;;;;;;"1249";"2014-07-16 13:54:11.100";"NST_correctLoc";"12";"1";"FINISHED";"RIGHT";"success";"390";"0";"2014-07-16 13:54:09.850";"2";;;;;;;;;;;;;;;;;;;;;;;;;;;;;;;;;;;;;;;;;;;;;
"Piquet01";"1969";;"Windows 7";"Rachel's Experiment (D.T.)";"1.0";"2";"1";"1";"2";"1";"1";"2014-07-16 13:49:31.082";"2014-07-16 14:04:56.020";"1";"1";"0";"61";"60";"module.training_block2.exec-2492.GoNoGo2";;;;;;;;;;;;;;;;;;;;;;;;;;;;;;;;;;;"1249";"2014-07-16 13:54:13.648";"ST_correctStop";"29";"0";"FINISHED";"NONE";"success";"0";"1";"2014-07-16 13:54:12.398";"3";;;;;;;;;;;;;;;;;;;;;;;;;;;;;;;;;;;;;;;;;;;;;
"Piquet01";"1969";;"Windows 7";"Rachel's Experiment (D.T.)";"1.0";"2";"1";"1";"2";"1";"1";"2014-07-16 13:49:31.082";"2014-07-16 14:04:56.020";"1";"1";"0";"62";"61";"module.training_block2.exec-2492.GoNoGo2";;;;;;;;;;;;;;;;;;;;;;;;;;;;;;;;;;;"1249";"2014-07-16 13:54:16.194";"NST_correctLoc";"11";"1";"FINISHED";"RIGHT";"success";"496";"0";"2014-07-16 13:54:14.944";"2";;;;;;;;;;;;;;;;;;;;;;;;;;;;;;;;;;;;;;;;;;;;;
"Piquet01";"1969";;"Windows 7";"Rachel's Experiment (D.T.)";"1.0";"2";"1";"1";"2";"1";"1";"2014-07-16 13:49:31.082";"2014-07-16 14:04:56.020";"1";"1";"0";"63";"62";"module.training_block2.exec-2492.GoNoGo2";;;;;;;;;;;;;;;;;;;;;;;;;;;;;;;;;;;"1249";"2014-07-16 13:54:18.743";"NST_correctLoc";"34";"0";"FINISHED";"LEFT";"success";"579";"0";"2014-07-16 13:54:17.493";"3";;;;;;;;;;;;;;;;;;;;;;;;;;;;;;;;;;;;;;;;;;;;;
"Piquet01";"1969";;"Windows 7";"Rachel's Experiment (D.T.)";"1.0";"2";"1";"1";"2";"1";"1";"2014-07-16 13:49:31.082";"2014-07-16 14:04:56.020";"1";"1";"0";"64";"63";"module.training_block2.exec-2492.GoNoGo2";;;;;;;;;;;;;;;;;;;;;;;;;;;;;;;;;;;"1249";"2014-07-16 13:54:21.274";"NST_correctLoc";"15";"1";"FINISHED";"RIGHT";"success";"561";"0";"2014-07-16 13:54:20.024";"2";;;;;;;;;;;;;;;;;;;;;;;;;;;;;;;;;;;;;;;;;;;;;
"Piquet01";"1969";;"Windows 7";"Rachel's Experiment (D.T.)";"1.0";"2";"1";"1";"2";"1";"1";"2014-07-16 13:49:31.082";"2014-07-16 14:04:56.020";"1";"1";"0";"65";"64";"module.training_block2.exec-2492.GoNoGo2";;;;;;;;;;;;;;;;;;;;;;;;;;;;;;;;;;;"1249";"2014-07-16 13:54:23.819";"ST_correctStop";"1";"1";"FINISHED";"NONE";"success";"0";"1";"2014-07-16 13:54:22.568";"1";;;;;;;;;;;;;;;;;;;;;;;;;;;;;;;;;;;;;;;;;;;;;
"Piquet01";"1969";;"Windows 7";"Rachel's Experiment (D.T.)";"1.0";"2";"1";"1";"2";"1";"1";"2014-07-16 13:49:31.082";"2014-07-16 14:04:56.020";"1";"1";"0";"66";"65";"module.training_block2.exec-2492.GoNoGo2";;;;;;;;;;;;;;;;;;;;;;;;;;;;;;;;;;;"1250";"2014-07-16 13:54:26.382";"ST_correctStop";"0";"0";"FINISHED";"NONE";"success";"0";"1";"2014-07-16 13:54:25.132";"1";;;;;;;;;;;;;;;;;;;;;;;;;;;;;;;;;;;;;;;;;;;;;
"Piquet01";"1969";;"Windows 7";"Rachel's Experiment (D.T.)";"1.0";"2";"1";"1";"2";"1";"1";"2014-07-16 13:49:31.082";"2014-07-16 14:04:56.020";"1";"1";"0";"67";"66";"module.training_block2.exec-2492.GoNoGo2";;;;;;;;;;;;;;;;;;;;;;;;;;;;;;;;;;;"1250";"2014-07-16 13:54:28.927";"ST_correctStop";"8";"0";"FINISHED";"NONE";"success";"0";"1";"2014-07-16 13:54:27.676";"1";;;;;;;;;;;;;;;;;;;;;;;;;;;;;;;;;;;;;;;;;;;;;
"Piquet01";"1969";;"Windows 7";"Rachel's Experiment (D.T.)";"1.0";"2";"1";"1";"2";"1";"1";"2014-07-16 13:49:31.082";"2014-07-16 14:04:56.020";"1";"1";"0";"68";"67";"module.training_block2.exec-2492.GoNoGo2";;;;;;;;;;;;;;;;;;;;;;;;;;;;;;;;;;;"1249";"2014-07-16 13:54:31.471";"ST_correctStop";"7";"0";"FINISHED";"NONE";"success";"0";"1";"2014-07-16 13:54:30.221";"1";;;;;;;;;;;;;;;;;;;;;;;;;;;;;;;;;;;;;;;;;;;;;
"Piquet01";"1969";;"Windows 7";"Rachel's Experiment (D.T.)";"1.0";"2";"1";"1";"2";"1";"1";"2014-07-16 13:49:31.082";"2014-07-16 14:04:56.020";"1";"1";"0";"69";"68";"module.training_block2.exec-2492.GoNoGo2";;;;;;;;;;;;;;;;;;;;;;;;;;;;;;;;;;;"1249";"2014-07-16 13:54:34.018";"ST_correctStop";"6";"0";"FINISHED";"NONE";"success";"0";"1";"2014-07-16 13:54:32.768";"1";;;;;;;;;;;;;;;;;;;;;;;;;;;;;;;;;;;;;;;;;;;;;
"Piquet01";"1969";;"Windows 7";"Rachel's Experiment (D.T.)";"1.0";"2";"1";"1";"2";"1";"1";"2014-07-16 13:49:31.082";"2014-07-16 14:04:56.020";"1";"1";"0";"70";"69";"module.training_block2.exec-2492.GoNoGo2";;;;;;;;;;;;;;;;;;;;;;;;;;;;;;;;;;;"1249";"2014-07-16 13:54:36.566";"ST_correctStop";"3";"1";"FINISHED";"NONE";"success";"0";"1";"2014-07-16 13:54:35.316";"1";;;;;;;;;;;;;;;;;;;;;;;;;;;;;;;;;;;;;;;;;;;;;
"Piquet01";"1969";;"Windows 7";"Rachel's Experiment (D.T.)";"1.0";"2";"1";"1";"2";"1";"1";"2014-07-16 13:49:31.082";"2014-07-16 14:04:56.020";"1";"1";"0";"71";"70";"module.training_block2.exec-2492.GoNoGo2";;;;;;;;;;;;;;;;;;;;;;;;;;;;;;;;;;;"1249";"2014-07-16 13:54:39.113";"NST_correctLoc";"31";"0";"FINISHED";"LEFT";"success";"467";"0";"2014-07-16 13:54:37.863";"3";;;;;;;;;;;;;;;;;;;;;;;;;;;;;;;;;;;;;;;;;;;;;
"Piquet01";"1969";;"Windows 7";"Rachel's Experiment (D.T.)";"1.0";"2";"1";"1";"2";"1";"1";"2014-07-16 13:49:31.082";"2014-07-16 14:04:56.020";"1";"1";"0";"72";"71";"module.training_block2.exec-2492.GoNoGo2";;;;;;;;;;;;;;;;;;;;;;;;;;;;;;;;;;;"1249";"2014-07-16 13:54:41.662";"NST_correctLoc";"24";"0";"FINISHED";"LEFT";"success";"489";"0";"2014-07-16 13:54:40.412";"3";;;;;;;;;;;;;;;;;;;;;;;;;;;;;;;;;;;;;;;;;;;;;
"Piquet01";"1969";;"Windows 7";"Rachel's Experiment (D.T.)";"1.0";"2";"1";"1";"2";"1";"1";"2014-07-16 13:49:31.082";"2014-07-16 14:04:56.020";"1";"1";"0";"73";"72";"module.training_block2.exec-2492.GoNoGo2";;;;;;;;;;;;;;;;;;;;;;;;;;;;;;;;;;;"1250";"2014-07-16 13:54:44.201";"ST_correctStop";"26";"0";"FINISHED";"NONE";"success";"0";"1";"2014-07-16 13:54:42.951";"3";;;;;;;;;;;;;;;;;;;;;;;;;;;;;;;;;;;;;;;;;;;;;
"Piquet01";"1969";;"Windows 7";"Rachel's Experiment (D.T.)";"1.0";"2";"1";"1";"2";"1";"1";"2014-07-16 13:49:31.082";"2014-07-16 14:04:56.020";"1";"1";"0";"74";"73";"module.training_block2.exec-2492.GoNoGo2";;;;;;;;;;;;;;;;;;;;;;;;;;;;;;;;;;;"1249";"2014-07-16 13:54:46.742";"ST_correctStop";"21";"1";"FINISHED";"NONE";"success";"0";"1";"2014-07-16 13:54:45.492";"3";;;;;;;;;;;;;;;;;;;;;;;;;;;;;;;;;;;;;;;;;;;;;
"Piquet01";"1969";;"Windows 7";"Rachel's Experiment (D.T.)";"1.0";"2";"1";"1";"2";"1";"1";"2014-07-16 13:49:31.082";"2014-07-16 14:04:56.020";"1";"1";"0";"75";"74";"module.training_block2.exec-2492.GoNoGo2";;;;;;;;;;;;;;;;;;;;;;;;;;;;;;;;;;;"1249";"2014-07-16 13:54:49.287";"NST_correctLoc";"18";"0";"FINISHED";"LEFT";"success";"563";"0";"2014-07-16 13:54:48.037";"3";;;;;;;;;;;;;;;;;;;;;;;;;;;;;;;;;;;;;;;;;;;;;
"Piquet01";"1969";;"Windows 7";"Rachel's Experiment (D.T.)";"1.0";"2";"1";"1";"2";"1";"1";"2014-07-16 13:49:31.082";"2014-07-16 14:04:56.020";"1";"1";"0";"76";"75";"module.training_block2.exec-2492.GoNoGo2";;;;;;;;;;;;;;;;;;;;;;;;;;;;;;;;;;;"1249";"2014-07-16 13:54:51.834";"ST_correctStop";"4";"1";"FINISHED";"NONE";"success";"0";"1";"2014-07-16 13:54:50.584";"1";;;;;;;;;;;;;;;;;;;;;;;;;;;;;;;;;;;;;;;;;;;;;
"Piquet01";"1969";;"Windows 7";"Rachel's Experiment (D.T.)";"1.0";"2";"1";"1";"2";"1";"1";"2014-07-16 13:49:31.082";"2014-07-16 14:04:56.020";"1";"1";"0";"77";"76";"module.training_block2.exec-2492.GoNoGo2";;;;;;;;;;;;;;;;;;;;;;;;;;;;;;;;;;;"1249";"2014-07-16 13:54:54.370";"NST_correctLoc";"9";"1";"FINISHED";"RIGHT";"success";"422";"0";"2014-07-16 13:54:53.120";"2";;;;;;;;;;;;;;;;;;;;;;;;;;;;;;;;;;;;;;;;;;;;;
"Piquet01";"1969";;"Windows 7";"Rachel's Experiment (D.T.)";"1.0";"2";"1";"1";"2";"1";"1";"2014-07-16 13:49:31.082";"2014-07-16 14:04:56.020";"1";"1";"0";"78";"77";"module.training_block2.exec-2492.GoNoGo2";;;;;;;;;;;;;;;;;;;;;;;;;;;;;;;;;;;"1250";"2014-07-16 13:54:56.913";"NST_correctLoc";"10";"0";"FINISHED";"LEFT";"success";"431";"0";"2014-07-16 13:54:55.663";"2";;;;;;;;;;;;;;;;;;;;;;;;;;;;;;;;;;;;;;;;;;;;;
"Piquet01";"1969";;"Windows 7";"Rachel's Experiment (D.T.)";"1.0";"2";"1";"1";"2";"1";"1";"2014-07-16 13:49:31.082";"2014-07-16 14:04:56.020";"1";"1";"0";"79";"78";"module.training_block2.exec-2492.GoNoGo2";;;;;;;;;;;;;;;;;;;;;;;;;;;;;;;;;;;"1249";"2014-07-16 13:54:59.459";"NST_correctLoc";"25";"0";"FINISHED";"LEFT";"success";"492";"0";"2014-07-16 13:54:58.209";"3";;;;;;;;;;;;;;;;;;;;;;;;;;;;;;;;;;;;;;;;;;;;;
"Piquet01";"1969";;"Windows 7";"Rachel's Experiment (D.T.)";"1.0";"2";"1";"1";"2";"1";"1";"2014-07-16 13:49:31.082";"2014-07-16 14:04:56.020";"1";"1";"0";"80";"79";"module.training_block2.exec-2492.GoNoGo2";;;;;;;;;;;;;;;;;;;;;;;;;;;;;;;;;;;"1250";"2014-07-16 13:55:02.001";"ST_correctStop";"2";"1";"FINISHED";"NONE";"success";"0";"1";"2014-07-16 13:55:00.751";"1";;;;;;;;;;;;;;;;;;;;;;;;;;;;;;;;;;;;;;;;;;;;;
"Piquet01";"1969";;"Windows 7";"Rachel's Experiment (D.T.)";"1.0";"2";"1";"1";"2";"1";"1";"2014-07-16 13:49:31.082";"2014-07-16 14:04:56.020";"1";"1";"0";"81";"80";"module.training_block2.exec-2492.GoNoGo2";;;;;;;;;;;;;;;;;;;;;;;;;;;;;;;;;;;"1250";"2014-07-16 13:55:04.535";"NST_correctLoc";"13";"0";"FINISHED";"LEFT";"success";"481";"0";"2014-07-16 13:55:03.285";"2";;;;;;;;;;;;;;;;;;;;;;;;;;;;;;;;;;;;;;;;;;;;;
"Piquet01";"1969";;"Windows 7";"Rachel's Experiment (D.T.)";"1.0";"2";"1";"1";"2";"1";"1";"2014-07-16 13:49:31.082";"2014-07-16 14:04:56.020";"1";"1";"0";"82";"81";"module.training_block2.exec-2492.GoNoGo2";;;;;;;;;;;;;;;;;;;;;;;;;;;;;;;;;;;"1249";"2014-07-16 13:55:07.078";"NST_correctLoc";"22";"1";"FINISHED";"RIGHT";"success";"508";"0";"2014-07-16 13:55:05.828";"3";;;;;;;;;;;;;;;;;;;;;;;;;;;;;;;;;;;;;;;;;;;;;
"Piquet01";"1969";;"Windows 7";"Rachel's Experiment (D.T.)";"1.0";"2";"1";"1";"2";"1";"1";"2014-07-16 13:49:31.082";"2014-07-16 14:04:56.020";"1";"1";"0";"83";"82";"module.training_block2.exec-2492.GoNoGo2";;;;;;;;;;;;;;;;;;;;;;;;;;;;;;;;;;;"1249";"2014-07-16 13:55:09.622";"NST_correctLoc";"16";"0";"FINISHED";"LEFT";"success";"490";"0";"2014-07-16 13:55:08.372";"2";;;;;;;;;;;;;;;;;;;;;;;;;;;;;;;;;;;;;;;;;;;;;
"Piquet01";"1969";;"Windows 7";"Rachel's Experiment (D.T.)";"1.0";"2";"1";"1";"2";"1";"1";"2014-07-16 13:49:31.082";"2014-07-16 14:04:56.020";"1";"1";"0";"84";"83";"module.training_block2.exec-2492.GoNoGo2";;;;;;;;;;;;;;;;;;;;;;;;;;;;;;;;;;;"1249";"2014-07-16 13:55:12.175";"ST_correctStop";"20";"0";"FINISHED";"NONE";"success";"0";"1";"2014-07-16 13:55:10.925";"3";;;;;;;;;;;;;;;;;;;;;;;;;;;;;;;;;;;;;;;;;;;;;
"Piquet01";"1969";;"Windows 7";"Rachel's Experiment (D.T.)";"1.0";"2";"1";"1";"2";"1";"1";"2014-07-16 13:49:31.082";"2014-07-16 14:04:56.020";"1";"1";"0";"85";"84";"module.training_block2.exec-2492.GoNoGo2";;;;;;;;;;;;;;;;;;;;;;;;;;;;;;;;;;;"1250";"2014-07-16 13:55:14.704";"ST_correctStop";"32";"1";"FINISHED";"NONE";"success";"0";"1";"2014-07-16 13:55:13.454";"3";;;;;;;;;;;;;;;;;;;;;;;;;;;;;;;;;;;;;;;;;;;;;
"Piquet01";"1969";;"Windows 7";"Rachel's Experiment (D.T.)";"1.0";"2";"1";"1";"2";"1";"1";"2014-07-16 13:49:31.082";"2014-07-16 14:04:56.020";"1";"1";"0";"86";"85";"module.training_block2.exec-2492.GoNoGo2";;;;;;;;;;;;;;;;;;;;;;;;;;;;;;;;;;;"1249";"2014-07-16 13:55:17.234";"NST_correctLoc";"14";"0";"FINISHED";"LEFT";"success";"370";"0";"2014-07-16 13:55:15.984";"2";;;;;;;;;;;;;;;;;;;;;;;;;;;;;;;;;;;;;;;;;;;;;
"Piquet01";"1969";;"Windows 7";"Rachel's Experiment (D.T.)";"1.0";"2";"1";"1";"2";"1";"1";"2014-07-16 13:49:31.082";"2014-07-16 14:04:56.020";"1";"1";"0";"87";"86";"module.training_block2.exec-2492.GoNoGo2";;;;;;;;;;;;;;;;;;;;;;;;;;;;;;;;;;;"1249";"2014-07-16 13:55:19.773";"ST_correctStop";"35";"0";"FINISHED";"NONE";"success";"0";"1";"2014-07-16 13:55:18.523";"3";;;;;;;;;;;;;;;;;;;;;;;;;;;;;;;;;;;;;;;;;;;;;
"Piquet01";"1969";;"Windows 7";"Rachel's Experiment (D.T.)";"1.0";"2";"1";"1";"2";"1";"1";"2014-07-16 13:49:31.082";"2014-07-16 14:04:56.020";"1";"1";"0";"88";"87";"module.training_block3.exec-9753.GoNoGo3";;;;;;;;;;;;;;;;;;;;;;;;;;;;;;;;;;;;;;;;;;;;;;;"1249";"2014-07-16 13:55:32.594";"ST_correctStop";"21";"0";"FINISHED";"NONE";"success";"0";"1";"2014-07-16 13:55:31.343";"3";;;;;;;;;;;;;;;;;;;;;;;;;;;;;;;;;
"Piquet01";"1969";;"Windows 7";"Rachel's Experiment (D.T.)";"1.0";"2";"1";"1";"2";"1";"1";"2014-07-16 13:49:31.082";"2014-07-16 14:04:56.020";"1";"1";"0";"89";"88";"module.training_block3.exec-9753.GoNoGo3";;;;;;;;;;;;;;;;;;;;;;;;;;;;;;;;;;;;;;;;;;;;;;;"1250";"2014-07-16 13:55:35.132";"NST_correctLoc";"29";"1";"FINISHED";"RIGHT";"success";"466";"0";"2014-07-16 13:55:33.882";"3";;;;;;;;;;;;;;;;;;;;;;;;;;;;;;;;;
"Piquet01";"1969";;"Windows 7";"Rachel's Experiment (D.T.)";"1.0";"2";"1";"1";"2";"1";"1";"2014-07-16 13:49:31.082";"2014-07-16 14:04:56.020";"1";"1";"0";"90";"89";"module.training_block3.exec-9753.GoNoGo3";;;;;;;;;;;;;;;;;;;;;;;;;;;;;;;;;;;;;;;;;;;;;;;"1249";"2014-07-16 13:55:37.674";"ST_correctStop";"7";"1";"FINISHED";"NONE";"success";"0";"1";"2014-07-16 13:55:36.424";"1";;;;;;;;;;;;;;;;;;;;;;;;;;;;;;;;;
"Piquet01";"1969";;"Windows 7";"Rachel's Experiment (D.T.)";"1.0";"2";"1";"1";"2";"1";"1";"2014-07-16 13:49:31.082";"2014-07-16 14:04:56.020";"1";"1";"0";"91";"90";"module.training_block3.exec-9753.GoNoGo3";;;;;;;;;;;;;;;;;;;;;;;;;;;;;;;;;;;;;;;;;;;;;;;"1249";"2014-07-16 13:55:40.218";"ST_correctStop";"1";"1";"FINISHED";"NONE";"success";"0";"1";"2014-07-16 13:55:38.968";"1";;;;;;;;;;;;;;;;;;;;;;;;;;;;;;;;;
"Piquet01";"1969";;"Windows 7";"Rachel's Experiment (D.T.)";"1.0";"2";"1";"1";"2";"1";"1";"2014-07-16 13:49:31.082";"2014-07-16 14:04:56.020";"1";"1";"0";"92";"91";"module.training_block3.exec-9753.GoNoGo3";;;;;;;;;;;;;;;;;;;;;;;;;;;;;;;;;;;;;;;;;;;;;;;"1249";"2014-07-16 13:55:42.761";"ST_correctStop";"24";"0";"FINISHED";"NONE";"success";"0";"1";"2014-07-16 13:55:41.511";"3";;;;;;;;;;;;;;;;;;;;;;;;;;;;;;;;;
"Piquet01";"1969";;"Windows 7";"Rachel's Experiment (D.T.)";"1.0";"2";"1";"1";"2";"1";"1";"2014-07-16 13:49:31.082";"2014-07-16 14:04:56.020";"1";"1";"0";"93";"92";"module.training_block3.exec-9753.GoNoGo3";;;;;;;;;;;;;;;;;;;;;;;;;;;;;;;;;;;;;;;;;;;;;;;"1249";"2014-07-16 13:55:45.301";"ST_correctStop";"28";"0";"FINISHED";"NONE";"success";"0";"1";"2014-07-16 13:55:44.051";"3";;;;;;;;;;;;;;;;;;;;;;;;;;;;;;;;;
"Piquet01";"1969";;"Windows 7";"Rachel's Experiment (D.T.)";"1.0";"2";"1";"1";"2";"1";"1";"2014-07-16 13:49:31.082";"2014-07-16 14:04:56.020";"1";"1";"0";"94";"93";"module.training_block3.exec-9753.GoNoGo3";;;;;;;;;;;;;;;;;;;;;;;;;;;;;;;;;;;;;;;;;;;;;;;"1249";"2014-07-16 13:55:47.845";"NST_correctLoc";"27";"0";"FINISHED";"LEFT";"success";"541";"0";"2014-07-16 13:55:46.595";"3";;;;;;;;;;;;;;;;;;;;;;;;;;;;;;;;;
"Piquet01";"1969";;"Windows 7";"Rachel's Experiment (D.T.)";"1.0";"2";"1";"1";"2";"1";"1";"2014-07-16 13:49:31.082";"2014-07-16 14:04:56.020";"1";"1";"0";"95";"94";"module.training_block3.exec-9753.GoNoGo3";;;;;;;;;;;;;;;;;;;;;;;;;;;;;;;;;;;;;;;;;;;;;;;"1249";"2014-07-16 13:55:50.390";"NST_correctLoc";"22";"1";"FINISHED";"RIGHT";"success";"426";"0";"2014-07-16 13:55:49.139";"3";;;;;;;;;;;;;;;;;;;;;;;;;;;;;;;;;
"Piquet01";"1969";;"Windows 7";"Rachel's Experiment (D.T.)";"1.0";"2";"1";"1";"2";"1";"1";"2014-07-16 13:49:31.082";"2014-07-16 14:04:56.020";"1";"1";"0";"96";"95";"module.training_block3.exec-9753.GoNoGo3";;;;;;;;;;;;;;;;;;;;;;;;;;;;;;;;;;;;;;;;;;;;;;;"1249";"2014-07-16 13:55:52.933";"NST_correctLoc";"13";"0";"FINISHED";"LEFT";"success";"441";"0";"2014-07-16 13:55:51.683";"2";;;;;;;;;;;;;;;;;;;;;;;;;;;;;;;;;
"Piquet01";"1969";;"Windows 7";"Rachel's Experiment (D.T.)";"1.0";"2";"1";"1";"2";"1";"1";"2014-07-16 13:49:31.082";"2014-07-16 14:04:56.020";"1";"1";"0";"97";"96";"module.training_block3.exec-9753.GoNoGo3";;;;;;;;;;;;;;;;;;;;;;;;;;;;;;;;;;;;;;;;;;;;;;;"1250";"2014-07-16 13:55:55.473";"NST_correctLoc";"9";"1";"FINISHED";"RIGHT";"success";"472";"0";"2014-07-16 13:55:54.223";"2";;;;;;;;;;;;;;;;;;;;;;;;;;;;;;;;;
"Piquet01";"1969";;"Windows 7";"Rachel's Experiment (D.T.)";"1.0";"2";"1";"1";"2";"1";"1";"2014-07-16 13:49:31.082";"2014-07-16 14:04:56.020";"1";"1";"0";"98";"97";"module.training_block3.exec-9753.GoNoGo3";;;;;;;;;;;;;;;;;;;;;;;;;;;;;;;;;;;;;;;;;;;;;;;"1249";"2014-07-16 13:55:58.015";"NST_correctLoc";"11";"0";"FINISHED";"LEFT";"success";"551";"0";"2014-07-16 13:55:56.765";"2";;;;;;;;;;;;;;;;;;;;;;;;;;;;;;;;;
"Piquet01";"1969";;"Windows 7";"Rachel's Experiment (D.T.)";"1.0";"2";"1";"1";"2";"1";"1";"2014-07-16 13:49:31.082";"2014-07-16 14:04:56.020";"1";"1";"0";"99";"98";"module.training_block3.exec-9753.GoNoGo3";;;;;;;;;;;;;;;;;;;;;;;;;;;;;;;;;;;;;;;;;;;;;;;"1250";"2014-07-16 13:56:00.559";"NST_correctLoc";"16";"1";"FINISHED";"RIGHT";"success";"487";"0";"2014-07-16 13:55:59.309";"2";;;;;;;;;;;;;;;;;;;;;;;;;;;;;;;;;
"Piquet01";"1969";;"Windows 7";"Rachel's Experiment (D.T.)";"1.0";"2";"1";"1";"2";"1";"1";"2014-07-16 13:49:31.082";"2014-07-16 14:04:56.020";"1";"1";"0";"100";"99";"module.training_block3.exec-9753.GoNoGo3";;;;;;;;;;;;;;;;;;;;;;;;;;;;;;;;;;;;;;;;;;;;;;;"1249";"2014-07-16 13:56:03.103";"NST_correctLoc";"12";"1";"FINISHED";"RIGHT";"success";"424";"0";"2014-07-16 13:56:01.853";"2";;;;;;;;;;;;;;;;;;;;;;;;;;;;;;;;;
"Piquet01";"1969";;"Windows 7";"Rachel's Experiment (D.T.)";"1.0";"2";"1";"1";"2";"1";"1";"2014-07-16 13:49:31.082";"2014-07-16 14:04:56.020";"1";"1";"0";"101";"100";"module.training_block3.exec-9753.GoNoGo3";;;;;;;;;;;;;;;;;;;;;;;;;;;;;;;;;;;;;;;;;;;;;;;"1249";"2014-07-16 13:56:05.627";"NST_correctLoc";"18";"1";"FINISHED";"RIGHT";"success";"480";"0";"2014-07-16 13:56:04.377";"3";;;;;;;;;;;;;;;;;;;;;;;;;;;;;;;;;
"Piquet01";"1969";;"Windows 7";"Rachel's Experiment (D.T.)";"1.0";"2";"1";"1";"2";"1";"1";"2014-07-16 13:49:31.082";"2014-07-16 14:04:56.020";"1";"1";"0";"102";"101";"module.training_block3.exec-9753.GoNoGo3";;;;;;;;;;;;;;;;;;;;;;;;;;;;;;;;;;;;;;;;;;;;;;;"1249";"2014-07-16 13:56:08.165";"NST_correctLoc";"30";"0";"FINISHED";"LEFT";"success";"475";"0";"2014-07-16 13:56:06.914";"3";;;;;;;;;;;;;;;;;;;;;;;;;;;;;;;;;
"Piquet01";"1969";;"Windows 7";"Rachel's Experiment (D.T.)";"1.0";"2";"1";"1";"2";"1";"1";"2014-07-16 13:49:31.082";"2014-07-16 14:04:56.020";"1";"1";"0";"103";"102";"module.training_block3.exec-9753.GoNoGo3";;;;;;;;;;;;;;;;;;;;;;;;;;;;;;;;;;;;;;;;;;;;;;;"1249";"2014-07-16 13:56:10.707";"ST_correctStop";"34";"1";"FINISHED";"NONE";"success";"0";"1";"2014-07-16 13:56:09.457";"3";;;;;;;;;;;;;;;;;;;;;;;;;;;;;;;;;
"Piquet01";"1969";;"Windows 7";"Rachel's Experiment (D.T.)";"1.0";"2";"1";"1";"2";"1";"1";"2014-07-16 13:49:31.082";"2014-07-16 14:04:56.020";"1";"1";"0";"104";"103";"module.training_block3.exec-9753.GoNoGo3";;;;;;;;;;;;;;;;;;;;;;;;;;;;;;;;;;;;;;;;;;;;;;;"1250";"2014-07-16 13:56:13.232";"ST_correctStop";"25";"0";"FINISHED";"NONE";"success";"0";"1";"2014-07-16 13:56:11.982";"3";;;;;;;;;;;;;;;;;;;;;;;;;;;;;;;;;
"Piquet01";"1969";;"Windows 7";"Rachel's Experiment (D.T.)";"1.0";"2";"1";"1";"2";"1";"1";"2014-07-16 13:49:31.082";"2014-07-16 14:04:56.020";"1";"1";"0";"105";"104";"module.training_block3.exec-9753.GoNoGo3";;;;;;;;;;;;;;;;;;;;;;;;;;;;;;;;;;;;;;;;;;;;;;;"1250";"2014-07-16 13:56:15.774";"ST_correctStop";"35";"1";"FINISHED";"NONE";"success";"0";"1";"2014-07-16 13:56:14.524";"3";;;;;;;;;;;;;;;;;;;;;;;;;;;;;;;;;
"Piquet01";"1969";;"Windows 7";"Rachel's Experiment (D.T.)";"1.0";"2";"1";"1";"2";"1";"1";"2014-07-16 13:49:31.082";"2014-07-16 14:04:56.020";"1";"1";"0";"106";"105";"module.training_block3.exec-9753.GoNoGo3";;;;;;;;;;;;;;;;;;;;;;;;;;;;;;;;;;;;;;;;;;;;;;;"1250";"2014-07-16 13:56:18.317";"NST_correctLoc";"23";"1";"FINISHED";"RIGHT";"success";"401";"0";"2014-07-16 13:56:17.067";"3";;;;;;;;;;;;;;;;;;;;;;;;;;;;;;;;;
"Piquet01";"1969";;"Windows 7";"Rachel's Experiment (D.T.)";"1.0";"2";"1";"1";"2";"1";"1";"2014-07-16 13:49:31.082";"2014-07-16 14:04:56.020";"1";"1";"0";"107";"106";"module.training_block3.exec-9753.GoNoGo3";;;;;;;;;;;;;;;;;;;;;;;;;;;;;;;;;;;;;;;;;;;;;;;"1250";"2014-07-16 13:56:20.854";"NST_correctLoc";"10";"1";"FINISHED";"RIGHT";"success";"548";"0";"2014-07-16 13:56:19.604";"2";;;;;;;;;;;;;;;;;;;;;;;;;;;;;;;;;
"Piquet01";"1969";;"Windows 7";"Rachel's Experiment (D.T.)";"1.0";"2";"1";"1";"2";"1";"1";"2014-07-16 13:49:31.082";"2014-07-16 14:04:56.020";"1";"1";"0";"108";"107";"module.training_block3.exec-9753.GoNoGo3";;;;;;;;;;;;;;;;;;;;;;;;;;;;;;;;;;;;;;;;;;;;;;;"1250";"2014-07-16 13:56:23.397";"ST_correctStop";"20";"1";"FINISHED";"NONE";"success";"0";"1";"2014-07-16 13:56:22.147";"3";;;;;;;;;;;;;;;;;;;;;;;;;;;;;;;;;
"Piquet01";"1969";;"Windows 7";"Rachel's Experiment (D.T.)";"1.0";"2";"1";"1";"2";"1";"1";"2014-07-16 13:49:31.082";"2014-07-16 14:04:56.020";"1";"1";"0";"109";"108";"module.training_block3.exec-9753.GoNoGo3";;;;;;;;;;;;;;;;;;;;;;;;;;;;;;;;;;;;;;;;;;;;;;;"1249";"2014-07-16 13:56:25.940";"ST_correctStop";"0";"0";"FINISHED";"NONE";"success";"0";"1";"2014-07-16 13:56:24.689";"1";;;;;;;;;;;;;;;;;;;;;;;;;;;;;;;;;
"Piquet01";"1969";;"Windows 7";"Rachel's Experiment (D.T.)";"1.0";"2";"1";"1";"2";"1";"1";"2014-07-16 13:49:31.082";"2014-07-16 14:04:56.020";"1";"1";"0";"110";"109";"module.training_block3.exec-9753.GoNoGo3";;;;;;;;;;;;;;;;;;;;;;;;;;;;;;;;;;;;;;;;;;;;;;;"1249";"2014-07-16 13:56:28.480";"NST_correctLoc";"19";"1";"FINISHED";"RIGHT";"success";"382";"0";"2014-07-16 13:56:27.230";"3";;;;;;;;;;;;;;;;;;;;;;;;;;;;;;;;;
"Piquet01";"1969";;"Windows 7";"Rachel's Experiment (D.T.)";"1.0";"2";"1";"1";"2";"1";"1";"2014-07-16 13:49:31.082";"2014-07-16 14:04:56.020";"1";"1";"0";"111";"110";"module.training_block3.exec-9753.GoNoGo3";;;;;;;;;;;;;;;;;;;;;;;;;;;;;;;;;;;;;;;;;;;;;;;"1250";"2014-07-16 13:56:31.022";"NST_correctLoc";"17";"0";"FINISHED";"LEFT";"success";"391";"0";"2014-07-16 13:56:29.772";"2";;;;;;;;;;;;;;;;;;;;;;;;;;;;;;;;;
"Piquet01";"1969";;"Windows 7";"Rachel's Experiment (D.T.)";"1.0";"2";"1";"1";"2";"1";"1";"2014-07-16 13:49:31.082";"2014-07-16 14:04:56.020";"1";"1";"0";"112";"111";"module.training_block3.exec-9753.GoNoGo3";;;;;;;;;;;;;;;;;;;;;;;;;;;;;;;;;;;;;;;;;;;;;;;"1250";"2014-07-16 13:56:33.564";"NST_correctLoc";"31";"0";"FINISHED";"LEFT";"success";"387";"0";"2014-07-16 13:56:32.314";"3";;;;;;;;;;;;;;;;;;;;;;;;;;;;;;;;;
"Piquet01";"1969";;"Windows 7";"Rachel's Experiment (D.T.)";"1.0";"2";"1";"1";"2";"1";"1";"2014-07-16 13:49:31.082";"2014-07-16 14:04:56.020";"1";"1";"0";"113";"112";"module.training_block3.exec-9753.GoNoGo3";;;;;;;;;;;;;;;;;;;;;;;;;;;;;;;;;;;;;;;;;;;;;;;"1250";"2014-07-16 13:56:36.096";"ST_correctStop";"2";"0";"FINISHED";"NONE";"success";"0";"1";"2014-07-16 13:56:34.846";"1";;;;;;;;;;;;;;;;;;;;;;;;;;;;;;;;;
"Piquet01";"1969";;"Windows 7";"Rachel's Experiment (D.T.)";"1.0";"2";"1";"1";"2";"1";"1";"2014-07-16 13:49:31.082";"2014-07-16 14:04:56.020";"1";"1";"0";"114";"113";"module.training_block3.exec-9753.GoNoGo3";;;;;;;;;;;;;;;;;;;;;;;;;;;;;;;;;;;;;;;;;;;;;;;"1249";"2014-07-16 13:56:38.637";"NST_correctLoc";"32";"0";"FINISHED";"LEFT";"success";"366";"0";"2014-07-16 13:56:37.387";"3";;;;;;;;;;;;;;;;;;;;;;;;;;;;;;;;;
"Piquet01";"1969";;"Windows 7";"Rachel's Experiment (D.T.)";"1.0";"2";"1";"1";"2";"1";"1";"2014-07-16 13:49:31.082";"2014-07-16 14:04:56.020";"1";"1";"0";"115";"114";"module.training_block3.exec-9753.GoNoGo3";;;;;;;;;;;;;;;;;;;;;;;;;;;;;;;;;;;;;;;;;;;;;;;"1249";"2014-07-16 13:56:41.178";"ST_correctStop";"4";"0";"FINISHED";"NONE";"success";"0";"1";"2014-07-16 13:56:39.928";"1";;;;;;;;;;;;;;;;;;;;;;;;;;;;;;;;;
"Piquet01";"1969";;"Windows 7";"Rachel's Experiment (D.T.)";"1.0";"2";"1";"1";"2";"1";"1";"2014-07-16 13:49:31.082";"2014-07-16 14:04:56.020";"1";"1";"0";"116";"115";"module.training_block3.exec-9753.GoNoGo3";;;;;;;;;;;;;;;;;;;;;;;;;;;;;;;;;;;;;;;;;;;;;;;"1250";"2014-07-16 13:56:43.715";"ST_correctStop";"5";"0";"FINISHED";"NONE";"success";"0";"1";"2014-07-16 13:56:42.464";"1";;;;;;;;;;;;;;;;;;;;;;;;;;;;;;;;;
"Piquet01";"1969";;"Windows 7";"Rachel's Experiment (D.T.)";"1.0";"2";"1";"1";"2";"1";"1";"2014-07-16 13:49:31.082";"2014-07-16 14:04:56.020";"1";"1";"0";"117";"116";"module.training_block3.exec-9753.GoNoGo3";;;;;;;;;;;;;;;;;;;;;;;;;;;;;;;;;;;;;;;;;;;;;;;"1250";"2014-07-16 13:56:46.257";"ST_correctStop";"8";"1";"FINISHED";"NONE";"success";"0";"1";"2014-07-16 13:56:45.007";"1";;;;;;;;;;;;;;;;;;;;;;;;;;;;;;;;;
"Piquet01";"1969";;"Windows 7";"Rachel's Experiment (D.T.)";"1.0";"2";"1";"1";"2";"1";"1";"2014-07-16 13:49:31.082";"2014-07-16 14:04:56.020";"1";"1";"0";"118";"117";"module.training_block3.exec-9753.GoNoGo3";;;;;;;;;;;;;;;;;;;;;;;;;;;;;;;;;;;;;;;;;;;;;;;"1249";"2014-07-16 13:56:48.780";"ST_correctStop";"26";"1";"FINISHED";"NONE";"success";"0";"1";"2014-07-16 13:56:47.530";"3";;;;;;;;;;;;;;;;;;;;;;;;;;;;;;;;;
"Piquet01";"1969";;"Windows 7";"Rachel's Experiment (D.T.)";"1.0";"2";"1";"1";"2";"1";"1";"2014-07-16 13:49:31.082";"2014-07-16 14:04:56.020";"1";"1";"0";"119";"118";"module.training_block3.exec-9753.GoNoGo3";;;;;;;;;;;;;;;;;;;;;;;;;;;;;;;;;;;;;;;;;;;;;;;"1250";"2014-07-16 13:56:51.318";"ST_correctStop";"33";"0";"FINISHED";"NONE";"success";"0";"1";"2014-07-16 13:56:50.068";"3";;;;;;;;;;;;;;;;;;;;;;;;;;;;;;;;;
"Piquet01";"1969";;"Windows 7";"Rachel's Experiment (D.T.)";"1.0";"2";"1";"1";"2";"1";"1";"2014-07-16 13:49:31.082";"2014-07-16 14:04:56.020";"1";"1";"0";"120";"119";"module.training_block3.exec-9753.GoNoGo3";;;;;;;;;;;;;;;;;;;;;;;;;;;;;;;;;;;;;;;;;;;;;;;"1250";"2014-07-16 13:56:53.846";"NST_correctLoc";"14";"1";"FINISHED";"RIGHT";"success";"397";"0";"2014-07-16 13:56:52.596";"2";;;;;;;;;;;;;;;;;;;;;;;;;;;;;;;;;
"Piquet01";"1969";;"Windows 7";"Rachel's Experiment (D.T.)";"1.0";"2";"1";"1";"2";"1";"1";"2014-07-16 13:49:31.082";"2014-07-16 14:04:56.020";"1";"1";"0";"121";"120";"module.training_block3.exec-9753.GoNoGo3";;;;;;;;;;;;;;;;;;;;;;;;;;;;;;;;;;;;;;;;;;;;;;;"1250";"2014-07-16 13:56:56.387";"NST_correctLoc";"15";"1";"FINISHED";"RIGHT";"success";"448";"0";"2014-07-16 13:56:55.137";"2";;;;;;;;;;;;;;;;;;;;;;;;;;;;;;;;;
"Piquet01";"1969";;"Windows 7";"Rachel's Experiment (D.T.)";"1.0";"2";"1";"1";"2";"1";"1";"2014-07-16 13:49:31.082";"2014-07-16 14:04:56.020";"1";"1";"0";"122";"121";"module.training_block3.exec-9753.GoNoGo3";;;;;;;;;;;;;;;;;;;;;;;;;;;;;;;;;;;;;;;;;;;;;;;"1250";"2014-07-16 13:56:58.928";"ST_correctStop";"3";"0";"FINISHED";"NONE";"success";"0";"1";"2014-07-16 13:56:57.678";"1";;;;;;;;;;;;;;;;;;;;;;;;;;;;;;;;;
"Piquet01";"1969";;"Windows 7";"Rachel's Experiment (D.T.)";"1.0";"2";"1";"1";"2";"1";"1";"2014-07-16 13:49:31.082";"2014-07-16 14:04:56.020";"1";"1";"0";"123";"122";"module.training_block3.exec-9753.GoNoGo3";;;;;;;;;;;;;;;;;;;;;;;;;;;;;;;;;;;;;;;;;;;;;;;"1249";"2014-07-16 13:57:01.470";"ST_correctStop";"6";"1";"FINISHED";"NONE";"success";"0";"1";"2014-07-16 13:57:00.220";"1";;;;;;;;;;;;;;;;;;;;;;;;;;;;;;;;;
"Piquet01";"1969";;"Windows 7";"Rachel's Experiment (D.T.)";"1.0";"2";"1";"1";"2";"1";"1";"2014-07-16 13:49:31.082";"2014-07-16 14:04:56.020";"1";"1";"0";"124";"123";"module.training_block4.exec-7234.GoNoGo4";;;;;;;;;;;;;;;;;;;;;;;;;;;;;;;;;;;;;;;;;;;;;;;;;;;;;;;;;;;"1249";"2014-07-16 13:57:12.879";"ST_correctStop";"5";"0";"FINISHED";"NONE";"success";"0";"1";"2014-07-16 13:57:11.629";"1";;;;;;;;;;;;;;;;;;;;;
"Piquet01";"1969";;"Windows 7";"Rachel's Experiment (D.T.)";"1.0";"2";"1";"1";"2";"1";"1";"2014-07-16 13:49:31.082";"2014-07-16 14:04:56.020";"1";"1";"0";"125";"124";"module.training_block4.exec-7234.GoNoGo4";;;;;;;;;;;;;;;;;;;;;;;;;;;;;;;;;;;;;;;;;;;;;;;;;;;;;;;;;;;"1250";"2014-07-16 13:57:15.419";"ST_correctStop";"6";"0";"FINISHED";"NONE";"success";"0";"1";"2014-07-16 13:57:14.169";"1";;;;;;;;;;;;;;;;;;;;;
"Piquet01";"1969";;"Windows 7";"Rachel's Experiment (D.T.)";"1.0";"2";"1";"1";"2";"1";"1";"2014-07-16 13:49:31.082";"2014-07-16 14:04:56.020";"1";"1";"0";"126";"125";"module.training_block4.exec-7234.GoNoGo4";;;;;;;;;;;;;;;;;;;;;;;;;;;;;;;;;;;;;;;;;;;;;;;;;;;;;;;;;;;"1250";"2014-07-16 13:57:17.958";"ST_correctStop";"27";"1";"FINISHED";"NONE";"success";"0";"1";"2014-07-16 13:57:16.707";"3";;;;;;;;;;;;;;;;;;;;;
"Piquet01";"1969";;"Windows 7";"Rachel's Experiment (D.T.)";"1.0";"2";"1";"1";"2";"1";"1";"2014-07-16 13:49:31.082";"2014-07-16 14:04:56.020";"1";"1";"0";"127";"126";"module.training_block4.exec-7234.GoNoGo4";;;;;;;;;;;;;;;;;;;;;;;;;;;;;;;;;;;;;;;;;;;;;;;;;;;;;;;;;;;"1249";"2014-07-16 13:57:20.495";"ST_correctStop";"3";"0";"FINISHED";"NONE";"success";"0";"1";"2014-07-16 13:57:19.245";"1";;;;;;;;;;;;;;;;;;;;;
"Piquet01";"1969";;"Windows 7";"Rachel's Experiment (D.T.)";"1.0";"2";"1";"1";"2";"1";"1";"2014-07-16 13:49:31.082";"2014-07-16 14:04:56.020";"1";"1";"0";"128";"127";"module.training_block4.exec-7234.GoNoGo4";;;;;;;;;;;;;;;;;;;;;;;;;;;;;;;;;;;;;;;;;;;;;;;;;;;;;;;;;;;"1250";"2014-07-16 13:57:23.034";"ST_correctStop";"21";"0";"FINISHED";"NONE";"success";"0";"1";"2014-07-16 13:57:21.784";"3";;;;;;;;;;;;;;;;;;;;;
"Piquet01";"1969";;"Windows 7";"Rachel's Experiment (D.T.)";"1.0";"2";"1";"1";"2";"1";"1";"2014-07-16 13:49:31.082";"2014-07-16 14:04:56.020";"1";"1";"0";"129";"128";"module.training_block4.exec-7234.GoNoGo4";;;;;;;;;;;;;;;;;;;;;;;;;;;;;;;;;;;;;;;;;;;;;;;;;;;;;;;;;;;"1250";"2014-07-16 13:57:25.558";"NST_correctLoc";"18";"0";"FINISHED";"LEFT";"success";"402";"0";"2014-07-16 13:57:24.308";"3";;;;;;;;;;;;;;;;;;;;;
"Piquet01";"1969";;"Windows 7";"Rachel's Experiment (D.T.)";"1.0";"2";"1";"1";"2";"1";"1";"2014-07-16 13:49:31.082";"2014-07-16 14:04:56.020";"1";"1";"0";"130";"129";"module.training_block4.exec-7234.GoNoGo4";;;;;;;;;;;;;;;;;;;;;;;;;;;;;;;;;;;;;;;;;;;;;;;;;;;;;;;;;;;"1249";"2014-07-16 13:57:28.090";"ST_correctStop";"32";"1";"FINISHED";"NONE";"success";"0";"1";"2014-07-16 13:57:26.840";"3";;;;;;;;;;;;;;;;;;;;;
"Piquet01";"1969";;"Windows 7";"Rachel's Experiment (D.T.)";"1.0";"2";"1";"1";"2";"1";"1";"2014-07-16 13:49:31.082";"2014-07-16 14:04:56.020";"1";"1";"0";"131";"130";"module.training_block4.exec-7234.GoNoGo4";;;;;;;;;;;;;;;;;;;;;;;;;;;;;;;;;;;;;;;;;;;;;;;;;;;;;;;;;;;"1249";"2014-07-16 13:57:30.611";"NST_correctLoc";"16";"0";"FINISHED";"LEFT";"success";"422";"0";"2014-07-16 13:57:29.361";"2";;;;;;;;;;;;;;;;;;;;;
"Piquet01";"1969";;"Windows 7";"Rachel's Experiment (D.T.)";"1.0";"2";"1";"1";"2";"1";"1";"2014-07-16 13:49:31.082";"2014-07-16 14:04:56.020";"1";"1";"0";"132";"131";"module.training_block4.exec-7234.GoNoGo4";;;;;;;;;;;;;;;;;;;;;;;;;;;;;;;;;;;;;;;;;;;;;;;;;;;;;;;;;;;"1250";"2014-07-16 13:57:33.134";"ST_correctStop";"7";"0";"FINISHED";"NONE";"success";"0";"1";"2014-07-16 13:57:31.884";"1";;;;;;;;;;;;;;;;;;;;;
"Piquet01";"1969";;"Windows 7";"Rachel's Experiment (D.T.)";"1.0";"2";"1";"1";"2";"1";"1";"2014-07-16 13:49:31.082";"2014-07-16 14:04:56.020";"1";"1";"0";"133";"132";"module.training_block4.exec-7234.GoNoGo4";;;;;;;;;;;;;;;;;;;;;;;;;;;;;;;;;;;;;;;;;;;;;;;;;;;;;;;;;;;"1249";"2014-07-16 13:57:35.657";"ST_correctStop";"22";"1";"FINISHED";"NONE";"success";"0";"1";"2014-07-16 13:57:34.406";"3";;;;;;;;;;;;;;;;;;;;;
"Piquet01";"1969";;"Windows 7";"Rachel's Experiment (D.T.)";"1.0";"2";"1";"1";"2";"1";"1";"2014-07-16 13:49:31.082";"2014-07-16 14:04:56.020";"1";"1";"0";"134";"133";"module.training_block4.exec-7234.GoNoGo4";;;;;;;;;;;;;;;;;;;;;;;;;;;;;;;;;;;;;;;;;;;;;;;;;;;;;;;;;;;"1250";"2014-07-16 13:57:38.181";"NST_correctLoc";"34";"0";"FINISHED";"LEFT";"success";"390";"0";"2014-07-16 13:57:36.931";"3";;;;;;;;;;;;;;;;;;;;;
"Piquet01";"1969";;"Windows 7";"Rachel's Experiment (D.T.)";"1.0";"2";"1";"1";"2";"1";"1";"2014-07-16 13:49:31.082";"2014-07-16 14:04:56.020";"1";"1";"0";"135";"134";"module.training_block4.exec-7234.GoNoGo4";;;;;;;;;;;;;;;;;;;;;;;;;;;;;;;;;;;;;;;;;;;;;;;;;;;;;;;;;;;"1250";"2014-07-16 13:57:40.721";"NST_correctLoc";"12";"1";"FINISHED";"RIGHT";"success";"427";"0";"2014-07-16 13:57:39.471";"2";;;;;;;;;;;;;;;;;;;;;
"Piquet01";"1969";;"Windows 7";"Rachel's Experiment (D.T.)";"1.0";"2";"1";"1";"2";"1";"1";"2014-07-16 13:49:31.082";"2014-07-16 14:04:56.020";"1";"1";"0";"136";"135";"module.training_block4.exec-7234.GoNoGo4";;;;;;;;;;;;;;;;;;;;;;;;;;;;;;;;;;;;;;;;;;;;;;;;;;;;;;;;;;;"1250";"2014-07-16 13:57:43.262";"NST_correctLoc";"25";"0";"FINISHED";"LEFT";"success";"422";"0";"2014-07-16 13:57:42.012";"3";;;;;;;;;;;;;;;;;;;;;
"Piquet01";"1969";;"Windows 7";"Rachel's Experiment (D.T.)";"1.0";"2";"1";"1";"2";"1";"1";"2014-07-16 13:49:31.082";"2014-07-16 14:04:56.020";"1";"1";"0";"137";"136";"module.training_block4.exec-7234.GoNoGo4";;;;;;;;;;;;;;;;;;;;;;;;;;;;;;;;;;;;;;;;;;;;;;;;;;;;;;;;;;;"1250";"2014-07-16 13:57:45.813";"ST_correctStop";"19";"1";"FINISHED";"NONE";"success";"0";"1";"2014-07-16 13:57:44.563";"3";;;;;;;;;;;;;;;;;;;;;
"Piquet01";"1969";;"Windows 7";"Rachel's Experiment (D.T.)";"1.0";"2";"1";"1";"2";"1";"1";"2014-07-16 13:49:31.082";"2014-07-16 14:04:56.020";"1";"1";"0";"138";"137";"module.training_block4.exec-7234.GoNoGo4";;;;;;;;;;;;;;;;;;;;;;;;;;;;;;;;;;;;;;;;;;;;;;;;;;;;;;;;;;;"1250";"2014-07-16 13:57:48.348";"ST_correctStop";"1";"0";"FINISHED";"NONE";"success";"0";"1";"2014-07-16 13:57:47.098";"1";;;;;;;;;;;;;;;;;;;;;
"Piquet01";"1969";;"Windows 7";"Rachel's Experiment (D.T.)";"1.0";"2";"1";"1";"2";"1";"1";"2014-07-16 13:49:31.082";"2014-07-16 14:04:56.020";"1";"1";"0";"139";"138";"module.training_block4.exec-7234.GoNoGo4";;;;;;;;;;;;;;;;;;;;;;;;;;;;;;;;;;;;;;;;;;;;;;;;;;;;;;;;;;;"1250";"2014-07-16 13:57:50.883";"ST_correctStop";"8";"1";"FINISHED";"NONE";"success";"0";"1";"2014-07-16 13:57:49.633";"1";;;;;;;;;;;;;;;;;;;;;
"Piquet01";"1969";;"Windows 7";"Rachel's Experiment (D.T.)";"1.0";"2";"1";"1";"2";"1";"1";"2014-07-16 13:49:31.082";"2014-07-16 14:04:56.020";"1";"1";"0";"140";"139";"module.training_block4.exec-7234.GoNoGo4";;;;;;;;;;;;;;;;;;;;;;;;;;;;;;;;;;;;;;;;;;;;;;;;;;;;;;;;;;;"1250";"2014-07-16 13:57:53.423";"ST_correctStop";"23";"0";"FINISHED";"NONE";"success";"0";"1";"2014-07-16 13:57:52.172";"3";;;;;;;;;;;;;;;;;;;;;
"Piquet01";"1969";;"Windows 7";"Rachel's Experiment (D.T.)";"1.0";"2";"1";"1";"2";"1";"1";"2014-07-16 13:49:31.082";"2014-07-16 14:04:56.020";"1";"1";"0";"141";"140";"module.training_block4.exec-7234.GoNoGo4";;;;;;;;;;;;;;;;;;;;;;;;;;;;;;;;;;;;;;;;;;;;;;;;;;;;;;;;;;;"1250";"2014-07-16 13:57:55.962";"NST_correctLoc";"33";"0";"FINISHED";"LEFT";"success";"428";"0";"2014-07-16 13:57:54.712";"3";;;;;;;;;;;;;;;;;;;;;
"Piquet01";"1969";;"Windows 7";"Rachel's Experiment (D.T.)";"1.0";"2";"1";"1";"2";"1";"1";"2014-07-16 13:49:31.082";"2014-07-16 14:04:56.020";"1";"1";"0";"142";"141";"module.training_block4.exec-7234.GoNoGo4";;;;;;;;;;;;;;;;;;;;;;;;;;;;;;;;;;;;;;;;;;;;;;;;;;;;;;;;;;;"1250";"2014-07-16 13:57:58.499";"NST_correctLoc";"29";"0";"FINISHED";"LEFT";"success";"525";"0";"2014-07-16 13:57:57.249";"3";;;;;;;;;;;;;;;;;;;;;
"Piquet01";"1969";;"Windows 7";"Rachel's Experiment (D.T.)";"1.0";"2";"1";"1";"2";"1";"1";"2014-07-16 13:49:31.082";"2014-07-16 14:04:56.020";"1";"1";"0";"143";"142";"module.training_block4.exec-7234.GoNoGo4";;;;;;;;;;;;;;;;;;;;;;;;;;;;;;;;;;;;;;;;;;;;;;;;;;;;;;;;;;;"1250";"2014-07-16 13:58:01.029";"NST_correctLoc";"11";"0";"FINISHED";"LEFT";"success";"738";"0";"2014-07-16 13:57:59.779";"2";;;;;;;;;;;;;;;;;;;;;
"Piquet01";"1969";;"Windows 7";"Rachel's Experiment (D.T.)";"1.0";"2";"1";"1";"2";"1";"1";"2014-07-16 13:49:31.082";"2014-07-16 14:04:56.020";"1";"1";"0";"144";"143";"module.training_block4.exec-7234.GoNoGo4";;;;;;;;;;;;;;;;;;;;;;;;;;;;;;;;;;;;;;;;;;;;;;;;;;;;;;;;;;;"1250";"2014-07-16 13:58:03.570";"ST_correctStop";"28";"1";"FINISHED";"NONE";"success";"0";"1";"2014-07-16 13:58:02.320";"3";;;;;;;;;;;;;;;;;;;;;
"Piquet01";"1969";;"Windows 7";"Rachel's Experiment (D.T.)";"1.0";"2";"1";"1";"2";"1";"1";"2014-07-16 13:49:31.082";"2014-07-16 14:04:56.020";"1";"1";"0";"145";"144";"module.training_block4.exec-7234.GoNoGo4";;;;;;;;;;;;;;;;;;;;;;;;;;;;;;;;;;;;;;;;;;;;;;;;;;;;;;;;;;;"1250";"2014-07-16 13:58:06.092";"NST_correctLoc";"24";"1";"FINISHED";"RIGHT";"success";"726";"0";"2014-07-16 13:58:04.842";"3";;;;;;;;;;;;;;;;;;;;;
"Piquet01";"1969";;"Windows 7";"Rachel's Experiment (D.T.)";"1.0";"2";"1";"1";"2";"1";"1";"2014-07-16 13:49:31.082";"2014-07-16 14:04:56.020";"1";"1";"0";"146";"145";"module.training_block4.exec-7234.GoNoGo4";;;;;;;;;;;;;;;;;;;;;;;;;;;;;;;;;;;;;;;;;;;;;;;;;;;;;;;;;;;"1250";"2014-07-16 13:58:08.628";"ST_correctStop";"0";"0";"FINISHED";"NONE";"success";"0";"1";"2014-07-16 13:58:07.378";"1";;;;;;;;;;;;;;;;;;;;;
"Piquet01";"1969";;"Windows 7";"Rachel's Experiment (D.T.)";"1.0";"2";"1";"1";"2";"1";"1";"2014-07-16 13:49:31.082";"2014-07-16 14:04:56.020";"1";"1";"0";"147";"146";"module.training_block4.exec-7234.GoNoGo4";;;;;;;;;;;;;;;;;;;;;;;;;;;;;;;;;;;;;;;;;;;;;;;;;;;;;;;;;;;"1250";"2014-07-16 13:58:11.167";"NST_correctLoc";"15";"0";"FINISHED";"LEFT";"success";"415";"0";"2014-07-16 13:58:09.917";"2";;;;;;;;;;;;;;;;;;;;;
"Piquet01";"1969";;"Windows 7";"Rachel's Experiment (D.T.)";"1.0";"2";"1";"1";"2";"1";"1";"2014-07-16 13:49:31.082";"2014-07-16 14:04:56.020";"1";"1";"0";"148";"147";"module.training_block4.exec-7234.GoNoGo4";;;;;;;;;;;;;;;;;;;;;;;;;;;;;;;;;;;;;;;;;;;;;;;;;;;;;;;;;;;"1250";"2014-07-16 13:58:13.705";"NST_correctLoc";"9";"1";"FINISHED";"RIGHT";"success";"475";"0";"2014-07-16 13:58:12.455";"2";;;;;;;;;;;;;;;;;;;;;
"Piquet01";"1969";;"Windows 7";"Rachel's Experiment (D.T.)";"1.0";"2";"1";"1";"2";"1";"1";"2014-07-16 13:49:31.082";"2014-07-16 14:04:56.020";"1";"1";"0";"149";"148";"module.training_block4.exec-7234.GoNoGo4";;;;;;;;;;;;;;;;;;;;;;;;;;;;;;;;;;;;;;;;;;;;;;;;;;;;;;;;;;;"1250";"2014-07-16 13:58:16.240";"NST_correctLoc";"26";"0";"FINISHED";"LEFT";"success";"509";"0";"2014-07-16 13:58:14.990";"3";;;;;;;;;;;;;;;;;;;;;
"Piquet01";"1969";;"Windows 7";"Rachel's Experiment (D.T.)";"1.0";"2";"1";"1";"2";"1";"1";"2014-07-16 13:49:31.082";"2014-07-16 14:04:56.020";"1";"1";"0";"150";"149";"module.training_block4.exec-7234.GoNoGo4";;;;;;;;;;;;;;;;;;;;;;;;;;;;;;;;;;;;;;;;;;;;;;;;;;;;;;;;;;;"1250";"2014-07-16 13:58:18.780";"ST_correctStop";"30";"1";"FINISHED";"NONE";"success";"0";"1";"2014-07-16 13:58:17.530";"3";;;;;;;;;;;;;;;;;;;;;
"Piquet01";"1969";;"Windows 7";"Rachel's Experiment (D.T.)";"1.0";"2";"1";"1";"2";"1";"1";"2014-07-16 13:49:31.082";"2014-07-16 14:04:56.020";"1";"1";"0";"151";"150";"module.training_block4.exec-7234.GoNoGo4";;;;;;;;;;;;;;;;;;;;;;;;;;;;;;;;;;;;;;;;;;;;;;;;;;;;;;;;;;;"1250";"2014-07-16 13:58:21.319";"ST_correctStop";"2";"1";"FINISHED";"NONE";"success";"0";"1";"2014-07-16 13:58:20.069";"1";;;;;;;;;;;;;;;;;;;;;
"Piquet01";"1969";;"Windows 7";"Rachel's Experiment (D.T.)";"1.0";"2";"1";"1";"2";"1";"1";"2014-07-16 13:49:31.082";"2014-07-16 14:04:56.020";"1";"1";"0";"152";"151";"module.training_block4.exec-7234.GoNoGo4";;;;;;;;;;;;;;;;;;;;;;;;;;;;;;;;;;;;;;;;;;;;;;;;;;;;;;;;;;;"1250";"2014-07-16 13:58:23.858";"NST_correctLoc";"10";"0";"FINISHED";"LEFT";"success";"394";"0";"2014-07-16 13:58:22.608";"2";;;;;;;;;;;;;;;;;;;;;
"Piquet01";"1969";;"Windows 7";"Rachel's Experiment (D.T.)";"1.0";"2";"1";"1";"2";"1";"1";"2014-07-16 13:49:31.082";"2014-07-16 14:04:56.020";"1";"1";"0";"153";"152";"module.training_block4.exec-7234.GoNoGo4";;;;;;;;;;;;;;;;;;;;;;;;;;;;;;;;;;;;;;;;;;;;;;;;;;;;;;;;;;;"1249";"2014-07-16 13:58:26.408";"NST_correctLoc";"13";"0";"FINISHED";"LEFT";"success";"490";"0";"2014-07-16 13:58:25.158";"2";;;;;;;;;;;;;;;;;;;;;
"Piquet01";"1969";;"Windows 7";"Rachel's Experiment (D.T.)";"1.0";"2";"1";"1";"2";"1";"1";"2014-07-16 13:49:31.082";"2014-07-16 14:04:56.020";"1";"1";"0";"154";"153";"module.training_block4.exec-7234.GoNoGo4";;;;;;;;;;;;;;;;;;;;;;;;;;;;;;;;;;;;;;;;;;;;;;;;;;;;;;;;;;;"1250";"2014-07-16 13:58:28.957";"NST_correctLoc";"14";"1";"FINISHED";"RIGHT";"success";"435";"0";"2014-07-16 13:58:27.707";"2";;;;;;;;;;;;;;;;;;;;;
"Piquet01";"1969";;"Windows 7";"Rachel's Experiment (D.T.)";"1.0";"2";"1";"1";"2";"1";"1";"2014-07-16 13:49:31.082";"2014-07-16 14:04:56.020";"1";"1";"0";"155";"154";"module.training_block4.exec-7234.GoNoGo4";;;;;;;;;;;;;;;;;;;;;;;;;;;;;;;;;;;;;;;;;;;;;;;;;;;;;;;;;;;"1250";"2014-07-16 13:58:31.496";"NST_correctLoc";"17";"0";"FINISHED";"LEFT";"success";"429";"0";"2014-07-16 13:58:30.246";"2";;;;;;;;;;;;;;;;;;;;;
"Piquet01";"1969";;"Windows 7";"Rachel's Experiment (D.T.)";"1.0";"2";"1";"1";"2";"1";"1";"2014-07-16 13:49:31.082";"2014-07-16 14:04:56.020";"1";"1";"0";"156";"155";"module.training_block4.exec-7234.GoNoGo4";;;;;;;;;;;;;;;;;;;;;;;;;;;;;;;;;;;;;;;;;;;;;;;;;;;;;;;;;;;"1250";"2014-07-16 13:58:34.038";"ST_failedStop";"35";"0";"FINISHED";"LEFT";"failure";"578";"1";"2014-07-16 13:58:32.788";"3";;;;;;;;;;;;;;;;;;;;;
"Piquet01";"1969";;"Windows 7";"Rachel's Experiment (D.T.)";"1.0";"2";"1";"1";"2";"1";"1";"2014-07-16 13:49:31.082";"2014-07-16 14:04:56.020";"1";"1";"0";"157";"156";"module.training_block4.exec-7234.GoNoGo4";;;;;;;;;;;;;;;;;;;;;;;;;;;;;;;;;;;;;;;;;;;;;;;;;;;;;;;;;;;"1250";"2014-07-16 13:58:36.559";"ST_correctStop";"4";"1";"FINISHED";"NONE";"success";"0";"1";"2014-07-16 13:58:35.309";"1";;;;;;;;;;;;;;;;;;;;;
"Piquet01";"1969";;"Windows 7";"Rachel's Experiment (D.T.)";"1.0";"2";"1";"1";"2";"1";"1";"2014-07-16 13:49:31.082";"2014-07-16 14:04:56.020";"1";"1";"0";"158";"157";"module.training_block4.exec-7234.GoNoGo4";;;;;;;;;;;;;;;;;;;;;;;;;;;;;;;;;;;;;;;;;;;;;;;;;;;;;;;;;;;"1250";"2014-07-16 13:58:39.096";"NST_correctLoc";"20";"0";"FINISHED";"LEFT";"success";"550";"0";"2014-07-16 13:58:37.846";"3";;;;;;;;;;;;;;;;;;;;;
"Piquet01";"1969";;"Windows 7";"Rachel's Experiment (D.T.)";"1.0";"2";"1";"1";"2";"1";"1";"2014-07-16 13:49:31.082";"2014-07-16 14:04:56.020";"1";"1";"0";"159";"158";"module.training_block4.exec-7234.GoNoGo4";;;;;;;;;;;;;;;;;;;;;;;;;;;;;;;;;;;;;;;;;;;;;;;;;;;;;;;;;;;"1250";"2014-07-16 13:58:41.634";"NST_correctLoc";"31";"0";"FINISHED";"LEFT";"success";"611";"0";"2014-07-16 13:58:40.384";"3";;;;;;;;;;;;;;;;;;;;;
"Piquet01";"1969";;"Windows 7";"Rachel's Experiment (D.T.)";"1.0";"2";"1";"1";"2";"1";"1";"2014-07-16 13:49:31.082";"2014-07-16 14:04:56.020";"1";"1";"0";"160";"159";"module.devaluation_practice.exec-7207.devalPractice";;;;;;;;;;;;"25159";"2014-07-16 13:59:38.654";"0";"7";"3";"7";"13069";"5947";"2943";"2014-07-16 13:59:13.493";;;;;;;;;;;;;;;;;;;;;;;;;;;;;;;;;;;;;;;;;;;;;;;;;;;;;;;;;;;;;;;;;;;;;;
"Piquet01";"1969";;"Windows 7";"Rachel's Experiment (D.T.)";"1.0";"2";"1";"1";"2";"1";"1";"2014-07-16 13:49:31.082";"2014-07-16 14:04:56.020";"1";"1";"0";"161";"160";"module.devaluation_practice.exec-7207.devalPractice";;;;;;;;;;;;"17327";"2014-07-16 13:59:56.061";"1";"8";"4";"8";"6367";"3126";"4770";"2014-07-16 13:59:38.733";;;;;;;;;;;;;;;;;;;;;;;;;;;;;;;;;;;;;;;;;;;;;;;;;;;;;;;;;;;;;;;;;;;;;;
"Piquet01";"1969";;"Windows 7";"Rachel's Experiment (D.T.)";"1.0";"2";"1";"1";"2";"1";"1";"2014-07-16 13:49:31.082";"2014-07-16 14:04:56.020";"1";"1";"0";"162";"161";"module.devaluation_practice.exec-7207.devalPractice";;;;;;;;;;;;"14200";"2014-07-16 14:00:10.328";"2";"4";"2";"6";"3389";"4430";"3343";"2014-07-16 13:59:56.129";;;;;;;;;;;;;;;;;;;;;;;;;;;;;;;;;;;;;;;;;;;;;;;;;;;;;;;;;;;;;;;;;;;;;;
"Piquet01";"1969";;"Windows 7";"Rachel's Experiment (D.T.)";"1.0";"2";"1";"1";"2";"1";"1";"2014-07-16 13:49:31.082";"2014-07-16 14:04:56.020";"1";"1";"0";"163";"162";"module.devaluation_practice.exec-7207.devalPractice";;;;;;;;;;;;"9168";"2014-07-16 14:00:19.590";"3";"4";"1";"5";"2438";"2299";"1413";"2014-07-16 14:00:10.421";;;;;;;;;;;;;;;;;;;;;;;;;;;;;;;;;;;;;;;;;;;;;;;;;;;;;;;;;;;;;;;;;;;;;;
"Piquet01";"1969";;"Windows 7";"Rachel's Experiment (D.T.)";"1.0";"2";"1";"1";"2";"1";"1";"2014-07-16 13:49:31.082";"2014-07-16 14:04:56.020";"1";"1";"0";"164";"163";"module.devaluation_block1.exec-3923.deval1";"10244";"2014-07-16 14:00:34.204";"18";"1";"1";"3";"2296";"1275";"3641";"2014-07-16 14:00:23.960";"3";;;;;;;;;;;;;;;;;;;;;;;;;;;;;;;;;;;;;;;;;;;;;;;;;;;;;;;;;;;;;;;;;;;;;;;;;;;;;;;;
"Piquet01";"1969";;"Windows 7";"Rachel's Experiment (D.T.)";"1.0";"2";"1";"1";"2";"1";"1";"2014-07-16 13:49:31.082";"2014-07-16 14:04:56.020";"1";"1";"0";"165";"164";"module.devaluation_block1.exec-3923.deval1";"14152";"2014-07-16 14:00:48.445";"13";"7";"5";"7";"2435";"6730";"1965";"2014-07-16 14:00:34.292";"2";;;;;;;;;;;;;;;;;;;;;;;;;;;;;;;;;;;;;;;;;;;;;;;;;;;;;;;;;;;;;;;;;;;;;;;;;;;;;;;;
"Piquet01";"1969";;"Windows 7";"Rachel's Experiment (D.T.)";"1.0";"2";"1";"1";"2";"1";"1";"2014-07-16 13:49:31.082";"2014-07-16 14:04:56.020";"1";"1";"0";"166";"165";"module.devaluation_block1.exec-3923.deval1";"10485";"2014-07-16 14:00:59.005";"25";"9";"7";"9";"1225";"5013";"1224";"2014-07-16 14:00:48.519";"3";;;;;;;;;;;;;;;;;;;;;;;;;;;;;;;;;;;;;;;;;;;;;;;;;;;;;;;;;;;;;;;;;;;;;;;;;;;;;;;;
"Piquet01";"1969";;"Windows 7";"Rachel's Experiment (D.T.)";"1.0";"2";"1";"1";"2";"1";"1";"2014-07-16 13:49:31.082";"2014-07-16 14:04:56.020";"1";"1";"0";"167";"166";"module.devaluation_block1.exec-3923.deval1";"7342";"2014-07-16 14:01:06.407";"26";"9";"7";"8";"1869";"1497";"953";"2014-07-16 14:00:59.064";"3";;;;;;;;;;;;;;;;;;;;;;;;;;;;;;;;;;;;;;;;;;;;;;;;;;;;;;;;;;;;;;;;;;;;;;;;;;;;;;;;
"Piquet01";"1969";;"Windows 7";"Rachel's Experiment (D.T.)";"1.0";"2";"1";"1";"2";"1";"1";"2014-07-16 13:49:31.082";"2014-07-16 14:04:56.020";"1";"1";"0";"168";"167";"module.devaluation_block1.exec-3923.deval1";"9641";"2014-07-16 14:01:16.128";"6";"5";"3";"6";"886";"3090";"2642";"2014-07-16 14:01:06.487";"1";;;;;;;;;;;;;;;;;;;;;;;;;;;;;;;;;;;;;;;;;;;;;;;;;;;;;;;;;;;;;;;;;;;;;;;;;;;;;;;;
"Piquet01";"1969";;"Windows 7";"Rachel's Experiment (D.T.)";"1.0";"2";"1";"1";"2";"1";"1";"2014-07-16 13:49:31.082";"2014-07-16 14:04:56.020";"1";"1";"0";"169";"168";"module.devaluation_block1.exec-3923.deval1";"7879";"2014-07-16 14:01:24.113";"15";"1";"1";"1";"2265";"1034";"1557";"2014-07-16 14:01:16.233";"2";;;;;;;;;;;;;;;;;;;;;;;;;;;;;;;;;;;;;;;;;;;;;;;;;;;;;;;;;;;;;;;;;;;;;;;;;;;;;;;;
"Piquet01";"1969";;"Windows 7";"Rachel's Experiment (D.T.)";"1.0";"2";"1";"1";"2";"1";"1";"2014-07-16 13:49:31.082";"2014-07-16 14:04:56.020";"1";"1";"0";"170";"169";"module.devaluation_block1.exec-3923.deval1";"9025";"2014-07-16 14:01:33.235";"24";"6";"6";"7";"1740";"3240";"1020";"2014-07-16 14:01:24.210";"3";;;;;;;;;;;;;;;;;;;;;;;;;;;;;;;;;;;;;;;;;;;;;;;;;;;;;;;;;;;;;;;;;;;;;;;;;;;;;;;;
"Piquet01";"1969";;"Windows 7";"Rachel's Experiment (D.T.)";"1.0";"2";"1";"1";"2";"1";"1";"2014-07-16 13:49:31.082";"2014-07-16 14:04:56.020";"1";"1";"0";"171";"170";"module.devaluation_block1.exec-3923.deval1";"11988";"2014-07-16 14:01:45.298";"4";"7";"4";"7";"3168";"3380";"2419";"2014-07-16 14:01:33.309";"1";;;;;;;;;;;;;;;;;;;;;;;;;;;;;;;;;;;;;;;;;;;;;;;;;;;;;;;;;;;;;;;;;;;;;;;;;;;;;;;;
"Piquet01";"1969";;"Windows 7";"Rachel's Experiment (D.T.)";"1.0";"2";"1";"1";"2";"1";"1";"2014-07-16 13:49:31.082";"2014-07-16 14:04:56.020";"1";"1";"0";"172";"171";"module.devaluation_block1.exec-3923.deval1";"10998";"2014-07-16 14:01:56.374";"2";"1";"1";"3";"2761";"1946";"3268";"2014-07-16 14:01:45.376";"1";;;;;;;;;;;;;;;;;;;;;;;;;;;;;;;;;;;;;;;;;;;;;;;;;;;;;;;;;;;;;;;;;;;;;;;;;;;;;;;;
"Piquet01";"1969";;"Windows 7";"Rachel's Experiment (D.T.)";"1.0";"2";"1";"1";"2";"1";"1";"2014-07-16 13:49:31.082";"2014-07-16 14:04:56.020";"1";"1";"0";"173";"172";"module.devaluation_block1.exec-3923.deval1";"9383";"2014-07-16 14:02:05.811";"1";"1";"1";"3";"3887";"1180";"1288";"2014-07-16 14:01:56.427";"1";;;;;;;;;;;;;;;;;;;;;;;;;;;;;;;;;;;;;;;;;;;;;;;;;;;;;;;;;;;;;;;;;;;;;;;;;;;;;;;;
"Piquet01";"1969";;"Windows 7";"Rachel's Experiment (D.T.)";"1.0";"2";"1";"1";"2";"1";"1";"2014-07-16 13:49:31.082";"2014-07-16 14:04:56.020";"1";"1";"0";"174";"173";"module.devaluation_block1.exec-3923.deval1";"9407";"2014-07-16 14:02:15.279";"14";"7";"5";"7";"2241";"1973";"2172";"2014-07-16 14:02:05.871";"2";;;;;;;;;;;;;;;;;;;;;;;;;;;;;;;;;;;;;;;;;;;;;;;;;;;;;;;;;;;;;;;;;;;;;;;;;;;;;;;;
"Piquet01";"1969";;"Windows 7";"Rachel's Experiment (D.T.)";"1.0";"2";"1";"1";"2";"1";"1";"2014-07-16 13:49:31.082";"2014-07-16 14:04:56.020";"1";"1";"0";"175";"174";"module.devaluation_block1.exec-3923.deval1";"7618";"2014-07-16 14:02:22.966";"17";"1";"1";"1";"1518";"1924";"1158";"2014-07-16 14:02:15.348";"2";;;;;;;;;;;;;;;;;;;;;;;;;;;;;;;;;;;;;;;;;;;;;;;;;;;;;;;;;;;;;;;;;;;;;;;;;;;;;;;;
"Piquet01";"1969";;"Windows 7";"Rachel's Experiment (D.T.)";"1.0";"2";"1";"1";"2";"1";"1";"2014-07-16 13:49:31.082";"2014-07-16 14:04:56.020";"1";"1";"0";"176";"175";"module.devaluation_block1.exec-3923.deval1";"9434";"2014-07-16 14:02:32.472";"19";"6";"2";"8";"3252";"2197";"965";"2014-07-16 14:02:23.037";"3";;;;;;;;;;;;;;;;;;;;;;;;;;;;;;;;;;;;;;;;;;;;;;;;;;;;;;;;;;;;;;;;;;;;;;;;;;;;;;;;
"Piquet01";"1969";;"Windows 7";"Rachel's Experiment (D.T.)";"1.0";"2";"1";"1";"2";"1";"1";"2014-07-16 13:49:31.082";"2014-07-16 14:04:56.020";"1";"1";"0";"177";"176";"module.devaluation_block1.exec-3923.deval1";"9892";"2014-07-16 14:02:42.440";"12";"8";"5";"7";"1152";"2521";"3199";"2014-07-16 14:02:32.548";"2";;;;;;;;;;;;;;;;;;;;;;;;;;;;;;;;;;;;;;;;;;;;;;;;;;;;;;;;;;;;;;;;;;;;;;;;;;;;;;;;
"Piquet01";"1969";;"Windows 7";"Rachel's Experiment (D.T.)";"1.0";"2";"1";"1";"2";"1";"1";"2014-07-16 13:49:31.082";"2014-07-16 14:04:56.020";"1";"1";"0";"178";"177";"module.devaluation_block1.exec-3923.deval1";"9838";"2014-07-16 14:02:52.351";"8";"6";"2";"6";"2439";"2049";"2331";"2014-07-16 14:02:42.511";"1";;;;;;;;;;;;;;;;;;;;;;;;;;;;;;;;;;;;;;;;;;;;;;;;;;;;;;;;;;;;;;;;;;;;;;;;;;;;;;;;
"Piquet01";"1969";;"Windows 7";"Rachel's Experiment (D.T.)";"1.0";"2";"1";"1";"2";"1";"1";"2014-07-16 13:49:31.082";"2014-07-16 14:04:56.020";"1";"1";"0";"179";"178";"module.devaluation_block1.exec-3923.deval1";"10310";"2014-07-16 14:03:02.741";"3";"7";"1";"7";"1493";"3020";"2781";"2014-07-16 14:02:52.431";"1";;;;;;;;;;;;;;;;;;;;;;;;;;;;;;;;;;;;;;;;;;;;;;;;;;;;;;;;;;;;;;;;;;;;;;;;;;;;;;;;
"Piquet01";"1969";;"Windows 7";"Rachel's Experiment (D.T.)";"1.0";"2";"1";"1";"2";"1";"1";"2014-07-16 13:49:31.082";"2014-07-16 14:04:56.020";"1";"1";"0";"180";"179";"module.devaluation_block1.exec-3923.deval1";"7065";"2014-07-16 14:03:09.883";"7";"5";"2";"5";"978";"2183";"884";"2014-07-16 14:03:02.817";"1";;;;;;;;;;;;;;;;;;;;;;;;;;;;;;;;;;;;;;;;;;;;;;;;;;;;;;;;;;;;;;;;;;;;;;;;;;;;;;;;
"Piquet01";"1969";;"Windows 7";"Rachel's Experiment (D.T.)";"1.0";"2";"1";"1";"2";"1";"1";"2014-07-16 13:49:31.082";"2014-07-16 14:04:56.020";"1";"1";"0";"181";"180";"module.devaluation_block1.exec-3923.deval1";"12902";"2014-07-16 14:03:22.848";"11";"5";"2";"1";"4881";"1621";"3382";"2014-07-16 14:03:09.946";"2";;;;;;;;;;;;;;;;;;;;;;;;;;;;;;;;;;;;;;;;;;;;;;;;;;;;;;;;;;;;;;;;;;;;;;;;;;;;;;;;
"Piquet01";"1969";;"Windows 7";"Rachel's Experiment (D.T.)";"1.0";"2";"1";"1";"2";"1";"1";"2014-07-16 13:49:31.082";"2014-07-16 14:04:56.020";"1";"1";"0";"182";"181";"module.devaluation_block1.exec-3923.deval1";"8563";"2014-07-16 14:03:31.484";"16";"1";"1";"1";"3263";"1089";"1187";"2014-07-16 14:03:22.919";"2";;;;;;;;;;;;;;;;;;;;;;;;;;;;;;;;;;;;;;;;;;;;;;;;;;;;;;;;;;;;;;;;;;;;;;;;;;;;;;;;
"Piquet01";"1969";;"Windows 7";"Rachel's Experiment (D.T.)";"1.0";"2";"1";"1";"2";"1";"1";"2014-07-16 13:49:31.082";"2014-07-16 14:04:56.020";"1";"1";"0";"183";"182";"module.devaluation_block1.exec-3923.deval1";"11025";"2014-07-16 14:03:42.581";"21";"6";"3";"9";"2302";"2871";"2834";"2014-07-16 14:03:31.555";"3";;;;;;;;;;;;;;;;;;;;;;;;;;;;;;;;;;;;;;;;;;;;;;;;;;;;;;;;;;;;;;;;;;;;;;;;;;;;;;;;
"Piquet01";"1969";;"Windows 7";"Rachel's Experiment (D.T.)";"1.0";"2";"1";"1";"2";"1";"1";"2014-07-16 13:49:31.082";"2014-07-16 14:04:56.020";"1";"1";"0";"184";"183";"module.devaluation_block1.exec-3923.deval1";"13249";"2014-07-16 14:03:55.905";"5";"6";"2";"7";"3506";"1660";"5062";"2014-07-16 14:03:42.656";"1";;;;;;;;;;;;;;;;;;;;;;;;;;;;;;;;;;;;;;;;;;;;;;;;;;;;;;;;;;;;;;;;;;;;;;;;;;;;;;;;
"Piquet01";"1969";;"Windows 7";"Rachel's Experiment (D.T.)";"1.0";"2";"1";"1";"2";"1";"1";"2014-07-16 13:49:31.082";"2014-07-16 14:04:56.020";"1";"1";"0";"185";"184";"module.devaluation_block1.exec-3923.deval1";"9045";"2014-07-16 14:04:04.996";"20";"6";"1";"7";"1963";"1708";"2355";"2014-07-16 14:03:55.949";"3";;;;;;;;;;;;;;;;;;;;;;;;;;;;;;;;;;;;;;;;;;;;;;;;;;;;;;;;;;;;;;;;;;;;;;;;;;;;;;;;
"Piquet01";"1969";;"Windows 7";"Rachel's Experiment (D.T.)";"1.0";"2";"1";"1";"2";"1";"1";"2014-07-16 13:49:31.082";"2014-07-16 14:04:56.020";"1";"1";"0";"186";"185";"module.devaluation_block1.exec-3923.deval1";"9546";"2014-07-16 14:04:14.614";"22";"5";"2";"6";"2169";"1831";"2527";"2014-07-16 14:04:05.068";"3";;;;;;;;;;;;;;;;;;;;;;;;;;;;;;;;;;;;;;;;;;;;;;;;;;;;;;;;;;;;;;;;;;;;;;;;;;;;;;;;
"Piquet01";"1969";;"Windows 7";"Rachel's Experiment (D.T.)";"1.0";"2";"1";"1";"2";"1";"1";"2014-07-16 13:49:31.082";"2014-07-16 14:04:56.020";"1";"1";"0";"187";"186";"module.devaluation_block1.exec-3923.deval1";"10706";"2014-07-16 14:04:25.383";"9";"6";"4";"6";"1825";"4177";"1686";"2014-07-16 14:04:14.676";"2";;;;;;;;;;;;;;;;;;;;;;;;;;;;;;;;;;;;;;;;;;;;;;;;;;;;;;;;;;;;;;;;;;;;;;;;;;;;;;;;
"Piquet01";"1969";;"Windows 7";"Rachel's Experiment (D.T.)";"1.0";"2";"1";"1";"2";"1";"1";"2014-07-16 13:49:31.082";"2014-07-16 14:04:56.020";"1";"1";"0";"188";"187";"module.devaluation_block1.exec-3923.deval1";"8762";"2014-07-16 14:04:34.221";"10";"7";"1";"4";"1620";"1820";"2303";"2014-07-16 14:04:25.459";"2";;;;;;;;;;;;;;;;;;;;;;;;;;;;;;;;;;;;;;;;;;;;;;;;;;;;;;;;;;;;;;;;;;;;;;;;;;;;;;;;
"Piquet01";"1969";;"Windows 7";"Rachel's Experiment (D.T.)";"1.0";"2";"1";"1";"2";"1";"1";"2014-07-16 13:49:31.082";"2014-07-16 14:04:56.020";"1";"1";"0";"189";"188";"module.devaluation_block1.exec-3923.deval1";"8816";"2014-07-16 14:04:43.098";"23";"9";"6";"9";"2162";"1957";"1678";"2014-07-16 14:04:34.281";"3";;;;;;;;;;;;;;;;;;;;;;;;;;;;;;;;;;;;;;;;;;;;;;;;;;;;;;;;;;;;;;;;;;;;;;;;;;;;;;;;
"Piquet01";"1969";;"Windows 7";"Rachel's Experiment (D.T.)";"1.0";"2";"1";"1";"2";"1";"1";"2014-07-16 13:49:31.082";"2014-07-16 14:04:56.020";"1";"1";"0";"190";"189";"module.devaluation_block1.exec-3923.deval1";"10973";"2014-07-16 14:04:54.151";"0";"5";"2";"6";"3603";"1850";"2500";"2014-07-16 14:04:43.177";"1";;;;;;;;;;;;;;;;;;;;;;;;;;;;;;;;;;;;;;;;;;;;;;;;;;;;;;;;;;;;;;;;;;;;;;;;;;;;;;;;
