"user.name";"user.yearOfBirth";"user.sex";"user.osName";"module.name";"module.version";"module.online.subject.code";"module.online.study.id";"module.online.module.nr";"module.online.group.nr";"session.id";"session.index";"session.startTime";"session.endTime";"session.completed";"session.node-5168.DevalQorder";"session.node-6676.conditionType";"trial.id";"trial.index";"trial.name";"trial.deval1.durationTime";"trial.deval1.endTime";"trial.deval1.icon";"trial.deval1.Resp_Attractive";"trial.deval1.Resp_Eat";"trial.deval1.Resp_Taste";"trial.deval1.RT_Attractive";"trial.deval1.RT_Eat";"trial.deval1.RT_Taste";"trial.deval1.startTime";"trial.deval1.stimulus type";"trial.devalPractice.durationTime";"trial.devalPractice.endTime";"trial.devalPractice.icon";"trial.devalPractice.Resp_Attractive";"trial.devalPractice.Resp_Eat";"trial.devalPractice.Resp_Taste";"trial.devalPractice.RT_Attractive";"trial.devalPractice.RT_Eat";"trial.devalPractice.RT_Taste";"trial.devalPractice.startTime";"trial.devalPractice.stimulus type";"trial.GoNoGo1.durationTime";"trial.GoNoGo1.endTime";"trial.GoNoGo1.Error Type";"trial.GoNoGo1.icon";"trial.GoNoGo1.location";"trial.GoNoGo1.outcome";"trial.GoNoGo1.response";"trial.GoNoGo1.result";"trial.GoNoGo1.RT";"trial.GoNoGo1.signal";"trial.GoNoGo1.startTime";"trial.GoNoGo1.stimulus type";"trial.GoNoGo2.durationTime";"trial.GoNoGo2.endTime";"trial.GoNoGo2.Error Type";"trial.GoNoGo2.icon";"trial.GoNoGo2.location";"trial.GoNoGo2.outcome";"trial.GoNoGo2.response";"trial.GoNoGo2.result";"trial.GoNoGo2.RT";"trial.GoNoGo2.signal";"trial.GoNoGo2.startTime";"trial.GoNoGo2.stimulus type";"trial.GoNoGo3.durationTime";"trial.GoNoGo3.endTime";"trial.GoNoGo3.Error Type";"trial.GoNoGo3.icon";"trial.GoNoGo3.location";"trial.GoNoGo3.outcome";"trial.GoNoGo3.response";"trial.GoNoGo3.result";"trial.GoNoGo3.RT";"trial.GoNoGo3.signal";"trial.GoNoGo3.startTime";"trial.GoNoGo3.stimulus type";"trial.GoNoGo4.durationTime";"trial.GoNoGo4.endTime";"trial.GoNoGo4.Error Type";"trial.GoNoGo4.icon";"trial.GoNoGo4.location";"trial.GoNoGo4.outcome";"trial.GoNoGo4.response";"trial.GoNoGo4.result";"trial.GoNoGo4.RT";"trial.GoNoGo4.signal";"trial.GoNoGo4.startTime";"trial.GoNoGo4.stimulus type";"trial.GoNoGo_Practice.durationTime";"trial.GoNoGo_Practice.endTime";"trial.GoNoGo_Practice.icon";"trial.GoNoGo_Practice.location";"trial.GoNoGo_Practice.outcome";"trial.GoNoGo_Practice.response";"trial.GoNoGo_Practice.result";"trial.GoNoGo_Practice.RT";"trial.GoNoGo_Practice.signal";"trial.GoNoGo_Practice.startTime";"trial.GoNoGo_Practice.stimulus type";"trial.GoNoGo_Tutorial.durationTime";"trial.GoNoGo_Tutorial.endTime";"trial.GoNoGo_Tutorial.icon";"trial.GoNoGo_Tutorial.location";"trial.GoNoGo_Tutorial.outcome";"trial.GoNoGo_Tutorial.response";"trial.GoNoGo_Tutorial.result";"trial.GoNoGo_Tutorial.RT";"trial.GoNoGo_Tutorial.signal";"trial.GoNoGo_Tutorial.startTime"
"Australia";;;"Windows 7";"Rachel's Experiment (D.T.)";"1.0";"2";"1";"1";"2";"1";"1";"2014-10-16 13:32:47.536";"2014-10-16 13:47:38.144";"1";"1";"0";"1";"0";"module.GoNoGotutorial.exec-4294.GoNoGo_Tutorial";;;;;;;;;;;;;;;;;;;;;;;;;;;;;;;;;;;;;;;;;;;;;;;;;;;;;;;;;;;;;;;;;;;;;;;;;;;;;;;;;;"3998";"2014-10-16 13:33:53.605";"leftResponse";"0";"FINISHED";"LEFT";"success";"1326";"0";"2014-10-16 13:33:49.596"
"Australia";;;"Windows 7";"Rachel's Experiment (D.T.)";"1.0";"2";"1";"1";"2";"1";"1";"2014-10-16 13:32:47.536";"2014-10-16 13:47:38.144";"1";"1";"0";"2";"1";"module.GoNoGotutorial.exec-4294.GoNoGo_Tutorial";;;;;;;;;;;;;;;;;;;;;;;;;;;;;;;;;;;;;;;;;;;;;;;;;;;;;;;;;;;;;;;;;;;;;;;;;;;;;;;;;;"4003";"2014-10-16 13:33:58.909";"rightResponse";"1";"FINISHED";"RIGHT";"success";"507";"0";"2014-10-16 13:33:54.900"
"Australia";;;"Windows 7";"Rachel's Experiment (D.T.)";"1.0";"2";"1";"1";"2";"1";"1";"2014-10-16 13:32:47.536";"2014-10-16 13:47:38.144";"1";"1";"0";"3";"2";"module.GoNoGotutorial.exec-4294.GoNoGo_Tutorial";;;;;;;;;;;;;;;;;;;;;;;;;;;;;;;;;;;;;;;;;;;;;;;;;;;;;;;;;;;;;;;;;;;;;;;;;;;;;;;;;;"4003";"2014-10-16 13:34:04.198";"quickResponse";"0";"FINISHED";"NONE";"failure";"0";"0";"2014-10-16 13:34:00.189"
"Australia";;;"Windows 7";"Rachel's Experiment (D.T.)";"1.0";"2";"1";"1";"2";"1";"1";"2014-10-16 13:32:47.536";"2014-10-16 13:47:38.144";"1";"1";"0";"4";"3";"module.GoNoGopractice.exec-8142.GoNoGo_Practice";;;;;;;;;;;;;;;;;;;;;;;;;;;;;;;;;;;;;;;;;;;;;;;;;;;;;;;;;;;;;;;;;;;;;;;"1958";"2014-10-16 13:34:13.184";"18";"0";"FINISHED";"LEFT";"success";"395";"0";"2014-10-16 13:34:11.218";"3";;;;;;;;;;
"Australia";;;"Windows 7";"Rachel's Experiment (D.T.)";"1.0";"2";"1";"1";"2";"1";"1";"2014-10-16 13:32:47.536";"2014-10-16 13:47:38.144";"1";"1";"0";"5";"4";"module.GoNoGopractice.exec-8142.GoNoGo_Practice";;;;;;;;;;;;;;;;;;;;;;;;;;;;;;;;;;;;;;;;;;;;;;;;;;;;;;;;;;;;;;;;;;;;;;;"1959";"2014-10-16 13:34:16.429";"21";"1";"FINISHED";"RIGHT";"success";"392";"0";"2014-10-16 13:34:14.463";"3";;;;;;;;;;
"Australia";;;"Windows 7";"Rachel's Experiment (D.T.)";"1.0";"2";"1";"1";"2";"1";"1";"2014-10-16 13:32:47.536";"2014-10-16 13:47:38.144";"1";"1";"0";"6";"5";"module.GoNoGopractice.exec-8142.GoNoGo_Practice";;;;;;;;;;;;;;;;;;;;;;;;;;;;;;;;;;;;;;;;;;;;;;;;;;;;;;;;;;;;;;;;;;;;;;;"1959";"2014-10-16 13:34:19.674";"14";"1";"FINISHED";"RIGHT";"success";"540";"0";"2014-10-16 13:34:17.708";"2";;;;;;;;;;
"Australia";;;"Windows 7";"Rachel's Experiment (D.T.)";"1.0";"2";"1";"1";"2";"1";"1";"2014-10-16 13:32:47.536";"2014-10-16 13:47:38.144";"1";"1";"0";"7";"6";"module.GoNoGopractice.exec-8142.GoNoGo_Practice";;;;;;;;;;;;;;;;;;;;;;;;;;;;;;;;;;;;;;;;;;;;;;;;;;;;;;;;;;;;;;;;;;;;;;;"1959";"2014-10-16 13:34:22.919";"26";"0";"FINISHED";"LEFT";"success";"462";"0";"2014-10-16 13:34:20.953";"3";;;;;;;;;;
"Australia";;;"Windows 7";"Rachel's Experiment (D.T.)";"1.0";"2";"1";"1";"2";"1";"1";"2014-10-16 13:32:47.536";"2014-10-16 13:47:38.144";"1";"1";"0";"8";"7";"module.GoNoGopractice.exec-8142.GoNoGo_Practice";;;;;;;;;;;;;;;;;;;;;;;;;;;;;;;;;;;;;;;;;;;;;;;;;;;;;;;;;;;;;;;;;;;;;;;"1959";"2014-10-16 13:34:26.164";"2";"0";"FINISHED";"LEFT";"success";"514";"0";"2014-10-16 13:34:24.198";"1";;;;;;;;;;
"Australia";;;"Windows 7";"Rachel's Experiment (D.T.)";"1.0";"2";"1";"1";"2";"1";"1";"2014-10-16 13:32:47.536";"2014-10-16 13:47:38.144";"1";"1";"0";"9";"8";"module.GoNoGopractice.exec-8142.GoNoGo_Practice";;;;;;;;;;;;;;;;;;;;;;;;;;;;;;;;;;;;;;;;;;;;;;;;;;;;;;;;;;;;;;;;;;;;;;;"1960";"2014-10-16 13:34:29.409";"30";"0";"FINISHED";"LEFT";"success";"445";"0";"2014-10-16 13:34:27.443";"3";;;;;;;;;;
"Australia";;;"Windows 7";"Rachel's Experiment (D.T.)";"1.0";"2";"1";"1";"2";"1";"1";"2014-10-16 13:32:47.536";"2014-10-16 13:47:38.144";"1";"1";"0";"10";"9";"module.GoNoGopractice.exec-8142.GoNoGo_Practice";;;;;;;;;;;;;;;;;;;;;;;;;;;;;;;;;;;;;;;;;;;;;;;;;;;;;;;;;;;;;;;;;;;;;;;"1959";"2014-10-16 13:34:32.654";"6";"1";"FINISHED";"RIGHT";"success";"824";"0";"2014-10-16 13:34:30.688";"1";;;;;;;;;;
"Australia";;;"Windows 7";"Rachel's Experiment (D.T.)";"1.0";"2";"1";"1";"2";"1";"1";"2014-10-16 13:32:47.536";"2014-10-16 13:47:38.144";"1";"1";"0";"11";"10";"module.GoNoGopractice.exec-8142.GoNoGo_Practice";;;;;;;;;;;;;;;;;;;;;;;;;;;;;;;;;;;;;;;;;;;;;;;;;;;;;;;;;;;;;;;;;;;;;;;"1960";"2014-10-16 13:34:35.899";"34";"0";"FINISHED";"LEFT";"success";"372";"0";"2014-10-16 13:34:33.933";"3";;;;;;;;;;
"Australia";;;"Windows 7";"Rachel's Experiment (D.T.)";"1.0";"2";"1";"1";"2";"1";"1";"2014-10-16 13:32:47.536";"2014-10-16 13:47:38.144";"1";"1";"0";"12";"11";"module.GoNoGopractice.exec-8142.GoNoGo_Practice";;;;;;;;;;;;;;;;;;;;;;;;;;;;;;;;;;;;;;;;;;;;;;;;;;;;;;;;;;;;;;;;;;;;;;;"1959";"2014-10-16 13:34:39.143";"23";"1";"FINISHED";"RIGHT";"success";"366";"0";"2014-10-16 13:34:37.178";"3";;;;;;;;;;
"Australia";;;"Windows 7";"Rachel's Experiment (D.T.)";"1.0";"2";"1";"1";"2";"1";"1";"2014-10-16 13:32:47.536";"2014-10-16 13:47:38.144";"1";"1";"0";"13";"12";"module.GoNoGopractice.exec-8142.GoNoGo_Practice";;;;;;;;;;;;;;;;;;;;;;;;;;;;;;;;;;;;;;;;;;;;;;;;;;;;;;;;;;;;;;;;;;;;;;;"1959";"2014-10-16 13:34:42.388";"13";"0";"FINISHED";"LEFT";"success";"345";"0";"2014-10-16 13:34:40.423";"2";;;;;;;;;;
"Australia";;;"Windows 7";"Rachel's Experiment (D.T.)";"1.0";"2";"1";"1";"2";"1";"1";"2014-10-16 13:32:47.536";"2014-10-16 13:47:38.144";"1";"1";"0";"14";"13";"module.GoNoGopractice.exec-8142.GoNoGo_Practice";;;;;;;;;;;;;;;;;;;;;;;;;;;;;;;;;;;;;;;;;;;;;;;;;;;;;;;;;;;;;;;;;;;;;;;"1959";"2014-10-16 13:34:45.633";"3";"1";"FINISHED";"RIGHT";"success";"301";"0";"2014-10-16 13:34:43.668";"1";;;;;;;;;;
"Australia";;;"Windows 7";"Rachel's Experiment (D.T.)";"1.0";"2";"1";"1";"2";"1";"1";"2014-10-16 13:32:47.536";"2014-10-16 13:47:38.144";"1";"1";"0";"15";"14";"module.GoNoGopractice.exec-8142.GoNoGo_Practice";;;;;;;;;;;;;;;;;;;;;;;;;;;;;;;;;;;;;;;;;;;;;;;;;;;;;;;;;;;;;;;;;;;;;;;"1959";"2014-10-16 13:34:48.878";"27";"1";"FINISHED";"RIGHT";"success";"536";"0";"2014-10-16 13:34:46.913";"3";;;;;;;;;;
"Australia";;;"Windows 7";"Rachel's Experiment (D.T.)";"1.0";"2";"1";"1";"2";"1";"1";"2014-10-16 13:32:47.536";"2014-10-16 13:47:38.144";"1";"1";"0";"16";"15";"module.training_block1.exec-3593.GoNoGo1";;;;;;;;;;;;;;;;;;;;;;;"1260";"2014-10-16 13:35:02.685";"NST_correctLoc";"21";"0";"FINISHED";"LEFT";"success";"422";"0";"2014-10-16 13:35:01.421";"3";;;;;;;;;;;;;;;;;;;;;;;;;;;;;;;;;;;;;;;;;;;;;;;;;;;;;;;;;
"Australia";;;"Windows 7";"Rachel's Experiment (D.T.)";"1.0";"2";"1";"1";"2";"1";"1";"2014-10-16 13:32:47.536";"2014-10-16 13:47:38.144";"1";"1";"0";"17";"16";"module.training_block1.exec-3593.GoNoGo1";;;;;;;;;;;;;;;;;;;;;;;"1261";"2014-10-16 13:35:05.228";"NST_correctLoc";"18";"0";"FINISHED";"LEFT";"success";"377";"0";"2014-10-16 13:35:03.964";"3";;;;;;;;;;;;;;;;;;;;;;;;;;;;;;;;;;;;;;;;;;;;;;;;;;;;;;;;;
"Australia";;;"Windows 7";"Rachel's Experiment (D.T.)";"1.0";"2";"1";"1";"2";"1";"1";"2014-10-16 13:32:47.536";"2014-10-16 13:47:38.144";"1";"1";"0";"18";"17";"module.training_block1.exec-3593.GoNoGo1";;;;;;;;;;;;;;;;;;;;;;;"1257";"2014-10-16 13:35:07.771";"NST_correctLoc";"20";"1";"FINISHED";"RIGHT";"success";"310";"0";"2014-10-16 13:35:06.507";"3";;;;;;;;;;;;;;;;;;;;;;;;;;;;;;;;;;;;;;;;;;;;;;;;;;;;;;;;;
"Australia";;;"Windows 7";"Rachel's Experiment (D.T.)";"1.0";"2";"1";"1";"2";"1";"1";"2014-10-16 13:32:47.536";"2014-10-16 13:47:38.144";"1";"1";"0";"19";"18";"module.training_block1.exec-3593.GoNoGo1";;;;;;;;;;;;;;;;;;;;;;;"1261";"2014-10-16 13:35:10.313";"NST_correctLoc";"30";"1";"FINISHED";"RIGHT";"success";"483";"0";"2014-10-16 13:35:09.050";"3";;;;;;;;;;;;;;;;;;;;;;;;;;;;;;;;;;;;;;;;;;;;;;;;;;;;;;;;;
"Australia";;;"Windows 7";"Rachel's Experiment (D.T.)";"1.0";"2";"1";"1";"2";"1";"1";"2014-10-16 13:32:47.536";"2014-10-16 13:47:38.144";"1";"1";"0";"20";"19";"module.training_block1.exec-3593.GoNoGo1";;;;;;;;;;;;;;;;;;;;;;;"1257";"2014-10-16 13:35:12.856";"NST_correctLoc";"22";"1";"FINISHED";"RIGHT";"success";"393";"0";"2014-10-16 13:35:11.593";"3";;;;;;;;;;;;;;;;;;;;;;;;;;;;;;;;;;;;;;;;;;;;;;;;;;;;;;;;;
"Australia";;;"Windows 7";"Rachel's Experiment (D.T.)";"1.0";"2";"1";"1";"2";"1";"1";"2014-10-16 13:32:47.536";"2014-10-16 13:47:38.144";"1";"1";"0";"21";"20";"module.training_block1.exec-3593.GoNoGo1";;;;;;;;;;;;;;;;;;;;;;;"1256";"2014-10-16 13:35:15.399";"NST_correctLoc";"15";"0";"FINISHED";"LEFT";"success";"377";"0";"2014-10-16 13:35:14.136";"2";;;;;;;;;;;;;;;;;;;;;;;;;;;;;;;;;;;;;;;;;;;;;;;;;;;;;;;;;
"Australia";;;"Windows 7";"Rachel's Experiment (D.T.)";"1.0";"2";"1";"1";"2";"1";"1";"2014-10-16 13:32:47.536";"2014-10-16 13:47:38.144";"1";"1";"0";"22";"21";"module.training_block1.exec-3593.GoNoGo1";;;;;;;;;;;;;;;;;;;;;;;"1257";"2014-10-16 13:35:17.942";"NST_correctLoc";"0";"0";"FINISHED";"LEFT";"success";"371";"0";"2014-10-16 13:35:16.678";"1";;;;;;;;;;;;;;;;;;;;;;;;;;;;;;;;;;;;;;;;;;;;;;;;;;;;;;;;;
"Australia";;;"Windows 7";"Rachel's Experiment (D.T.)";"1.0";"2";"1";"1";"2";"1";"1";"2014-10-16 13:32:47.536";"2014-10-16 13:47:38.144";"1";"1";"0";"23";"22";"module.training_block1.exec-3593.GoNoGo1";;;;;;;;;;;;;;;;;;;;;;;"1258";"2014-10-16 13:35:20.485";"NST_correctLoc";"29";"1";"FINISHED";"RIGHT";"success";"420";"0";"2014-10-16 13:35:19.221";"3";;;;;;;;;;;;;;;;;;;;;;;;;;;;;;;;;;;;;;;;;;;;;;;;;;;;;;;;;
"Australia";;;"Windows 7";"Rachel's Experiment (D.T.)";"1.0";"2";"1";"1";"2";"1";"1";"2014-10-16 13:32:47.536";"2014-10-16 13:47:38.144";"1";"1";"0";"24";"23";"module.training_block1.exec-3593.GoNoGo1";;;;;;;;;;;;;;;;;;;;;;;"1258";"2014-10-16 13:35:23.028";"NST_correctLoc";"25";"0";"FINISHED";"LEFT";"success";"358";"0";"2014-10-16 13:35:21.764";"3";;;;;;;;;;;;;;;;;;;;;;;;;;;;;;;;;;;;;;;;;;;;;;;;;;;;;;;;;
"Australia";;;"Windows 7";"Rachel's Experiment (D.T.)";"1.0";"2";"1";"1";"2";"1";"1";"2014-10-16 13:32:47.536";"2014-10-16 13:47:38.144";"1";"1";"0";"25";"24";"module.training_block1.exec-3593.GoNoGo1";;;;;;;;;;;;;;;;;;;;;;;"1257";"2014-10-16 13:35:25.571";"NST_correctLoc";"4";"0";"FINISHED";"LEFT";"success";"326";"0";"2014-10-16 13:35:24.307";"1";;;;;;;;;;;;;;;;;;;;;;;;;;;;;;;;;;;;;;;;;;;;;;;;;;;;;;;;;
"Australia";;;"Windows 7";"Rachel's Experiment (D.T.)";"1.0";"2";"1";"1";"2";"1";"1";"2014-10-16 13:32:47.536";"2014-10-16 13:47:38.144";"1";"1";"0";"26";"25";"module.training_block1.exec-3593.GoNoGo1";;;;;;;;;;;;;;;;;;;;;;;"1261";"2014-10-16 13:35:28.114";"NST_correctLoc";"3";"1";"FINISHED";"RIGHT";"success";"308";"0";"2014-10-16 13:35:26.850";"1";;;;;;;;;;;;;;;;;;;;;;;;;;;;;;;;;;;;;;;;;;;;;;;;;;;;;;;;;
"Australia";;;"Windows 7";"Rachel's Experiment (D.T.)";"1.0";"2";"1";"1";"2";"1";"1";"2014-10-16 13:32:47.536";"2014-10-16 13:47:38.144";"1";"1";"0";"27";"26";"module.training_block1.exec-3593.GoNoGo1";;;;;;;;;;;;;;;;;;;;;;;"1257";"2014-10-16 13:35:30.657";"NST_correctLoc";"17";"0";"FINISHED";"LEFT";"success";"329";"0";"2014-10-16 13:35:29.393";"2";;;;;;;;;;;;;;;;;;;;;;;;;;;;;;;;;;;;;;;;;;;;;;;;;;;;;;;;;
"Australia";;;"Windows 7";"Rachel's Experiment (D.T.)";"1.0";"2";"1";"1";"2";"1";"1";"2014-10-16 13:32:47.536";"2014-10-16 13:47:38.144";"1";"1";"0";"28";"27";"module.training_block1.exec-3593.GoNoGo1";;;;;;;;;;;;;;;;;;;;;;;"1261";"2014-10-16 13:35:33.200";"NST_correctLoc";"27";"1";"FINISHED";"RIGHT";"success";"494";"0";"2014-10-16 13:35:31.936";"3";;;;;;;;;;;;;;;;;;;;;;;;;;;;;;;;;;;;;;;;;;;;;;;;;;;;;;;;;
"Australia";;;"Windows 7";"Rachel's Experiment (D.T.)";"1.0";"2";"1";"1";"2";"1";"1";"2014-10-16 13:32:47.536";"2014-10-16 13:47:38.144";"1";"1";"0";"29";"28";"module.training_block1.exec-3593.GoNoGo1";;;;;;;;;;;;;;;;;;;;;;;"1257";"2014-10-16 13:35:35.742";"NST_correctLoc";"8";"0";"FINISHED";"LEFT";"success";"347";"0";"2014-10-16 13:35:34.479";"1";;;;;;;;;;;;;;;;;;;;;;;;;;;;;;;;;;;;;;;;;;;;;;;;;;;;;;;;;
"Australia";;;"Windows 7";"Rachel's Experiment (D.T.)";"1.0";"2";"1";"1";"2";"1";"1";"2014-10-16 13:32:47.536";"2014-10-16 13:47:38.144";"1";"1";"0";"30";"29";"module.training_block1.exec-3593.GoNoGo1";;;;;;;;;;;;;;;;;;;;;;;"1258";"2014-10-16 13:35:38.285";"NST_correctLoc";"11";"1";"FINISHED";"RIGHT";"success";"365";"0";"2014-10-16 13:35:37.022";"2";;;;;;;;;;;;;;;;;;;;;;;;;;;;;;;;;;;;;;;;;;;;;;;;;;;;;;;;;
"Australia";;;"Windows 7";"Rachel's Experiment (D.T.)";"1.0";"2";"1";"1";"2";"1";"1";"2014-10-16 13:32:47.536";"2014-10-16 13:47:38.144";"1";"1";"0";"31";"30";"module.training_block1.exec-3593.GoNoGo1";;;;;;;;;;;;;;;;;;;;;;;"1261";"2014-10-16 13:35:40.828";"NST_correctLoc";"14";"0";"FINISHED";"LEFT";"success";"345";"0";"2014-10-16 13:35:39.565";"2";;;;;;;;;;;;;;;;;;;;;;;;;;;;;;;;;;;;;;;;;;;;;;;;;;;;;;;;;
"Australia";;;"Windows 7";"Rachel's Experiment (D.T.)";"1.0";"2";"1";"1";"2";"1";"1";"2014-10-16 13:32:47.536";"2014-10-16 13:47:38.144";"1";"1";"0";"32";"31";"module.training_block1.exec-3593.GoNoGo1";;;;;;;;;;;;;;;;;;;;;;;"1258";"2014-10-16 13:35:43.371";"NST_correctLoc";"12";"0";"FINISHED";"LEFT";"success";"359";"0";"2014-10-16 13:35:42.107";"2";;;;;;;;;;;;;;;;;;;;;;;;;;;;;;;;;;;;;;;;;;;;;;;;;;;;;;;;;
"Australia";;;"Windows 7";"Rachel's Experiment (D.T.)";"1.0";"2";"1";"1";"2";"1";"1";"2014-10-16 13:32:47.536";"2014-10-16 13:47:38.144";"1";"1";"0";"33";"32";"module.training_block1.exec-3593.GoNoGo1";;;;;;;;;;;;;;;;;;;;;;;"1257";"2014-10-16 13:35:45.914";"NST_correctLoc";"24";"1";"FINISHED";"RIGHT";"success";"336";"0";"2014-10-16 13:35:44.650";"3";;;;;;;;;;;;;;;;;;;;;;;;;;;;;;;;;;;;;;;;;;;;;;;;;;;;;;;;;
"Australia";;;"Windows 7";"Rachel's Experiment (D.T.)";"1.0";"2";"1";"1";"2";"1";"1";"2014-10-16 13:32:47.536";"2014-10-16 13:47:38.144";"1";"1";"0";"34";"33";"module.training_block1.exec-3593.GoNoGo1";;;;;;;;;;;;;;;;;;;;;;;"1258";"2014-10-16 13:35:48.457";"NST_correctLoc";"31";"0";"FINISHED";"LEFT";"success";"305";"0";"2014-10-16 13:35:47.193";"3";;;;;;;;;;;;;;;;;;;;;;;;;;;;;;;;;;;;;;;;;;;;;;;;;;;;;;;;;
"Australia";;;"Windows 7";"Rachel's Experiment (D.T.)";"1.0";"2";"1";"1";"2";"1";"1";"2014-10-16 13:32:47.536";"2014-10-16 13:47:38.144";"1";"1";"0";"35";"34";"module.training_block1.exec-3593.GoNoGo1";;;;;;;;;;;;;;;;;;;;;;;"1258";"2014-10-16 13:35:51.000";"NST_correctLoc";"1";"0";"FINISHED";"LEFT";"success";"467";"0";"2014-10-16 13:35:49.736";"1";;;;;;;;;;;;;;;;;;;;;;;;;;;;;;;;;;;;;;;;;;;;;;;;;;;;;;;;;
"Australia";;;"Windows 7";"Rachel's Experiment (D.T.)";"1.0";"2";"1";"1";"2";"1";"1";"2014-10-16 13:32:47.536";"2014-10-16 13:47:38.144";"1";"1";"0";"36";"35";"module.training_block1.exec-3593.GoNoGo1";;;;;;;;;;;;;;;;;;;;;;;"1258";"2014-10-16 13:35:53.543";"NST_correctLoc";"10";"1";"FINISHED";"RIGHT";"success";"476";"0";"2014-10-16 13:35:52.279";"2";;;;;;;;;;;;;;;;;;;;;;;;;;;;;;;;;;;;;;;;;;;;;;;;;;;;;;;;;
"Australia";;;"Windows 7";"Rachel's Experiment (D.T.)";"1.0";"2";"1";"1";"2";"1";"1";"2014-10-16 13:32:47.536";"2014-10-16 13:47:38.144";"1";"1";"0";"37";"36";"module.training_block1.exec-3593.GoNoGo1";;;;;;;;;;;;;;;;;;;;;;;"1261";"2014-10-16 13:35:56.086";"NST_correctLoc";"23";"0";"FINISHED";"LEFT";"success";"377";"0";"2014-10-16 13:35:54.822";"3";;;;;;;;;;;;;;;;;;;;;;;;;;;;;;;;;;;;;;;;;;;;;;;;;;;;;;;;;
"Australia";;;"Windows 7";"Rachel's Experiment (D.T.)";"1.0";"2";"1";"1";"2";"1";"1";"2014-10-16 13:32:47.536";"2014-10-16 13:47:38.144";"1";"1";"0";"38";"37";"module.training_block1.exec-3593.GoNoGo1";;;;;;;;;;;;;;;;;;;;;;;"1253";"2014-10-16 13:35:58.629";"NST_correctLoc";"7";"0";"FINISHED";"LEFT";"success";"450";"0";"2014-10-16 13:35:57.365";"1";;;;;;;;;;;;;;;;;;;;;;;;;;;;;;;;;;;;;;;;;;;;;;;;;;;;;;;;;
"Australia";;;"Windows 7";"Rachel's Experiment (D.T.)";"1.0";"2";"1";"1";"2";"1";"1";"2014-10-16 13:32:47.536";"2014-10-16 13:47:38.144";"1";"1";"0";"39";"38";"module.training_block1.exec-3593.GoNoGo1";;;;;;;;;;;;;;;;;;;;;;;"1258";"2014-10-16 13:36:01.171";"NST_correctLoc";"35";"1";"FINISHED";"RIGHT";"success";"408";"0";"2014-10-16 13:35:59.908";"3";;;;;;;;;;;;;;;;;;;;;;;;;;;;;;;;;;;;;;;;;;;;;;;;;;;;;;;;;
"Australia";;;"Windows 7";"Rachel's Experiment (D.T.)";"1.0";"2";"1";"1";"2";"1";"1";"2014-10-16 13:32:47.536";"2014-10-16 13:47:38.144";"1";"1";"0";"40";"39";"module.training_block1.exec-3593.GoNoGo1";;;;;;;;;;;;;;;;;;;;;;;"1258";"2014-10-16 13:36:03.714";"NST_miss";"9";"1";"FINISHED";"NONE";"failure";"0";"0";"2014-10-16 13:36:02.451";"2";;;;;;;;;;;;;;;;;;;;;;;;;;;;;;;;;;;;;;;;;;;;;;;;;;;;;;;;;
"Australia";;;"Windows 7";"Rachel's Experiment (D.T.)";"1.0";"2";"1";"1";"2";"1";"1";"2014-10-16 13:32:47.536";"2014-10-16 13:47:38.144";"1";"1";"0";"41";"40";"module.training_block1.exec-3593.GoNoGo1";;;;;;;;;;;;;;;;;;;;;;;"1261";"2014-10-16 13:36:06.257";"NST_correctLoc";"2";"1";"FINISHED";"RIGHT";"success";"549";"0";"2014-10-16 13:36:04.994";"1";;;;;;;;;;;;;;;;;;;;;;;;;;;;;;;;;;;;;;;;;;;;;;;;;;;;;;;;;
"Australia";;;"Windows 7";"Rachel's Experiment (D.T.)";"1.0";"2";"1";"1";"2";"1";"1";"2014-10-16 13:32:47.536";"2014-10-16 13:47:38.144";"1";"1";"0";"42";"41";"module.training_block1.exec-3593.GoNoGo1";;;;;;;;;;;;;;;;;;;;;;;"1258";"2014-10-16 13:36:08.800";"NST_correctLoc";"28";"0";"FINISHED";"LEFT";"success";"523";"0";"2014-10-16 13:36:07.536";"3";;;;;;;;;;;;;;;;;;;;;;;;;;;;;;;;;;;;;;;;;;;;;;;;;;;;;;;;;
"Australia";;;"Windows 7";"Rachel's Experiment (D.T.)";"1.0";"2";"1";"1";"2";"1";"1";"2014-10-16 13:32:47.536";"2014-10-16 13:47:38.144";"1";"1";"0";"43";"42";"module.training_block1.exec-3593.GoNoGo1";;;;;;;;;;;;;;;;;;;;;;;"1261";"2014-10-16 13:36:11.343";"NST_correctLoc";"34";"1";"FINISHED";"RIGHT";"success";"280";"0";"2014-10-16 13:36:10.079";"3";;;;;;;;;;;;;;;;;;;;;;;;;;;;;;;;;;;;;;;;;;;;;;;;;;;;;;;;;
"Australia";;;"Windows 7";"Rachel's Experiment (D.T.)";"1.0";"2";"1";"1";"2";"1";"1";"2014-10-16 13:32:47.536";"2014-10-16 13:47:38.144";"1";"1";"0";"44";"43";"module.training_block1.exec-3593.GoNoGo1";;;;;;;;;;;;;;;;;;;;;;;"1257";"2014-10-16 13:36:13.886";"NST_correctLoc";"32";"0";"FINISHED";"LEFT";"success";"332";"0";"2014-10-16 13:36:12.622";"3";;;;;;;;;;;;;;;;;;;;;;;;;;;;;;;;;;;;;;;;;;;;;;;;;;;;;;;;;
"Australia";;;"Windows 7";"Rachel's Experiment (D.T.)";"1.0";"2";"1";"1";"2";"1";"1";"2014-10-16 13:32:47.536";"2014-10-16 13:47:38.144";"1";"1";"0";"45";"44";"module.training_block1.exec-3593.GoNoGo1";;;;;;;;;;;;;;;;;;;;;;;"1261";"2014-10-16 13:36:16.429";"NST_correctLoc";"6";"1";"FINISHED";"RIGHT";"success";"362";"0";"2014-10-16 13:36:15.165";"1";;;;;;;;;;;;;;;;;;;;;;;;;;;;;;;;;;;;;;;;;;;;;;;;;;;;;;;;;
"Australia";;;"Windows 7";"Rachel's Experiment (D.T.)";"1.0";"2";"1";"1";"2";"1";"1";"2014-10-16 13:32:47.536";"2014-10-16 13:47:38.144";"1";"1";"0";"46";"45";"module.training_block1.exec-3593.GoNoGo1";;;;;;;;;;;;;;;;;;;;;;;"1261";"2014-10-16 13:36:18.972";"NST_correctLoc";"13";"0";"FINISHED";"LEFT";"success";"323";"0";"2014-10-16 13:36:17.708";"2";;;;;;;;;;;;;;;;;;;;;;;;;;;;;;;;;;;;;;;;;;;;;;;;;;;;;;;;;
"Australia";;;"Windows 7";"Rachel's Experiment (D.T.)";"1.0";"2";"1";"1";"2";"1";"1";"2014-10-16 13:32:47.536";"2014-10-16 13:47:38.144";"1";"1";"0";"47";"46";"module.training_block1.exec-3593.GoNoGo1";;;;;;;;;;;;;;;;;;;;;;;"1257";"2014-10-16 13:36:21.515";"NST_correctLoc";"16";"0";"FINISHED";"LEFT";"success";"376";"0";"2014-10-16 13:36:20.251";"2";;;;;;;;;;;;;;;;;;;;;;;;;;;;;;;;;;;;;;;;;;;;;;;;;;;;;;;;;
"Australia";;;"Windows 7";"Rachel's Experiment (D.T.)";"1.0";"2";"1";"1";"2";"1";"1";"2014-10-16 13:32:47.536";"2014-10-16 13:47:38.144";"1";"1";"0";"48";"47";"module.training_block1.exec-3593.GoNoGo1";;;;;;;;;;;;;;;;;;;;;;;"1258";"2014-10-16 13:36:24.057";"NST_correctLoc";"19";"1";"FINISHED";"RIGHT";"success";"370";"0";"2014-10-16 13:36:22.794";"3";;;;;;;;;;;;;;;;;;;;;;;;;;;;;;;;;;;;;;;;;;;;;;;;;;;;;;;;;
"Australia";;;"Windows 7";"Rachel's Experiment (D.T.)";"1.0";"2";"1";"1";"2";"1";"1";"2014-10-16 13:32:47.536";"2014-10-16 13:47:38.144";"1";"1";"0";"49";"48";"module.training_block1.exec-3593.GoNoGo1";;;;;;;;;;;;;;;;;;;;;;;"1261";"2014-10-16 13:36:26.600";"NST_correctLoc";"26";"0";"FINISHED";"LEFT";"success";"391";"0";"2014-10-16 13:36:25.337";"3";;;;;;;;;;;;;;;;;;;;;;;;;;;;;;;;;;;;;;;;;;;;;;;;;;;;;;;;;
"Australia";;;"Windows 7";"Rachel's Experiment (D.T.)";"1.0";"2";"1";"1";"2";"1";"1";"2014-10-16 13:32:47.536";"2014-10-16 13:47:38.144";"1";"1";"0";"50";"49";"module.training_block1.exec-3593.GoNoGo1";;;;;;;;;;;;;;;;;;;;;;;"1258";"2014-10-16 13:36:29.143";"NST_correctLoc";"5";"0";"FINISHED";"LEFT";"success";"356";"0";"2014-10-16 13:36:27.880";"1";;;;;;;;;;;;;;;;;;;;;;;;;;;;;;;;;;;;;;;;;;;;;;;;;;;;;;;;;
"Australia";;;"Windows 7";"Rachel's Experiment (D.T.)";"1.0";"2";"1";"1";"2";"1";"1";"2014-10-16 13:32:47.536";"2014-10-16 13:47:38.144";"1";"1";"0";"51";"50";"module.training_block1.exec-3593.GoNoGo1";;;;;;;;;;;;;;;;;;;;;;;"1258";"2014-10-16 13:36:31.686";"NST_correctLoc";"33";"0";"FINISHED";"LEFT";"success";"350";"0";"2014-10-16 13:36:30.423";"3";;;;;;;;;;;;;;;;;;;;;;;;;;;;;;;;;;;;;;;;;;;;;;;;;;;;;;;;;
"Australia";;;"Windows 7";"Rachel's Experiment (D.T.)";"1.0";"2";"1";"1";"2";"1";"1";"2014-10-16 13:32:47.536";"2014-10-16 13:47:38.144";"1";"1";"0";"52";"51";"module.training_block2.exec-3547.GoNoGo2";;;;;;;;;;;;;;;;;;;;;;;;;;;;;;;;;;;"1261";"2014-10-16 13:36:44.151";"NST_correctLoc";"29";"1";"FINISHED";"RIGHT";"success";"504";"0";"2014-10-16 13:36:42.887";"3";;;;;;;;;;;;;;;;;;;;;;;;;;;;;;;;;;;;;;;;;;;;;
"Australia";;;"Windows 7";"Rachel's Experiment (D.T.)";"1.0";"2";"1";"1";"2";"1";"1";"2014-10-16 13:32:47.536";"2014-10-16 13:47:38.144";"1";"1";"0";"53";"52";"module.training_block2.exec-3547.GoNoGo2";;;;;;;;;;;;;;;;;;;;;;;;;;;;;;;;;;;"1261";"2014-10-16 13:36:46.694";"NST_correctLoc";"31";"0";"FINISHED";"LEFT";"success";"394";"0";"2014-10-16 13:36:45.430";"3";;;;;;;;;;;;;;;;;;;;;;;;;;;;;;;;;;;;;;;;;;;;;
"Australia";;;"Windows 7";"Rachel's Experiment (D.T.)";"1.0";"2";"1";"1";"2";"1";"1";"2014-10-16 13:32:47.536";"2014-10-16 13:47:38.144";"1";"1";"0";"54";"53";"module.training_block2.exec-3547.GoNoGo2";;;;;;;;;;;;;;;;;;;;;;;;;;;;;;;;;;;"1261";"2014-10-16 13:36:49.237";"NST_correctLoc";"3";"0";"FINISHED";"LEFT";"success";"387";"0";"2014-10-16 13:36:47.973";"1";;;;;;;;;;;;;;;;;;;;;;;;;;;;;;;;;;;;;;;;;;;;;
"Australia";;;"Windows 7";"Rachel's Experiment (D.T.)";"1.0";"2";"1";"1";"2";"1";"1";"2014-10-16 13:32:47.536";"2014-10-16 13:47:38.144";"1";"1";"0";"55";"54";"module.training_block2.exec-3547.GoNoGo2";;;;;;;;;;;;;;;;;;;;;;;;;;;;;;;;;;;"1261";"2014-10-16 13:36:51.842";"NST_correctLoc";"35";"0";"FINISHED";"LEFT";"success";"382";"0";"2014-10-16 13:36:50.579";"3";;;;;;;;;;;;;;;;;;;;;;;;;;;;;;;;;;;;;;;;;;;;;
"Australia";;;"Windows 7";"Rachel's Experiment (D.T.)";"1.0";"2";"1";"1";"2";"1";"1";"2014-10-16 13:32:47.536";"2014-10-16 13:47:38.144";"1";"1";"0";"56";"55";"module.training_block2.exec-3547.GoNoGo2";;;;;;;;;;;;;;;;;;;;;;;;;;;;;;;;;;;"1261";"2014-10-16 13:36:54.385";"NST_correctLoc";"9";"0";"FINISHED";"LEFT";"success";"383";"0";"2014-10-16 13:36:53.121";"2";;;;;;;;;;;;;;;;;;;;;;;;;;;;;;;;;;;;;;;;;;;;;
"Australia";;;"Windows 7";"Rachel's Experiment (D.T.)";"1.0";"2";"1";"1";"2";"1";"1";"2014-10-16 13:32:47.536";"2014-10-16 13:47:38.144";"1";"1";"0";"57";"56";"module.training_block2.exec-3547.GoNoGo2";;;;;;;;;;;;;;;;;;;;;;;;;;;;;;;;;;;"1261";"2014-10-16 13:36:56.928";"NST_correctLoc";"12";"0";"FINISHED";"LEFT";"success";"328";"0";"2014-10-16 13:36:55.664";"2";;;;;;;;;;;;;;;;;;;;;;;;;;;;;;;;;;;;;;;;;;;;;
"Australia";;;"Windows 7";"Rachel's Experiment (D.T.)";"1.0";"2";"1";"1";"2";"1";"1";"2014-10-16 13:32:47.536";"2014-10-16 13:47:38.144";"1";"1";"0";"58";"57";"module.training_block2.exec-3547.GoNoGo2";;;;;;;;;;;;;;;;;;;;;;;;;;;;;;;;;;;"1261";"2014-10-16 13:36:59.471";"NST_correctLoc";"28";"0";"FINISHED";"LEFT";"success";"345";"0";"2014-10-16 13:36:58.207";"3";;;;;;;;;;;;;;;;;;;;;;;;;;;;;;;;;;;;;;;;;;;;;
"Australia";;;"Windows 7";"Rachel's Experiment (D.T.)";"1.0";"2";"1";"1";"2";"1";"1";"2014-10-16 13:32:47.536";"2014-10-16 13:47:38.144";"1";"1";"0";"59";"58";"module.training_block2.exec-3547.GoNoGo2";;;;;;;;;;;;;;;;;;;;;;;;;;;;;;;;;;;"1261";"2014-10-16 13:37:02.014";"NST_correctLoc";"27";"0";"FINISHED";"LEFT";"success";"282";"0";"2014-10-16 13:37:00.750";"3";;;;;;;;;;;;;;;;;;;;;;;;;;;;;;;;;;;;;;;;;;;;;
"Australia";;;"Windows 7";"Rachel's Experiment (D.T.)";"1.0";"2";"1";"1";"2";"1";"1";"2014-10-16 13:32:47.536";"2014-10-16 13:47:38.144";"1";"1";"0";"60";"59";"module.training_block2.exec-3547.GoNoGo2";;;;;;;;;;;;;;;;;;;;;;;;;;;;;;;;;;;"1261";"2014-10-16 13:37:04.541";"NST_correctLoc";"1";"0";"FINISHED";"LEFT";"success";"331";"0";"2014-10-16 13:37:03.277";"1";;;;;;;;;;;;;;;;;;;;;;;;;;;;;;;;;;;;;;;;;;;;;
"Australia";;;"Windows 7";"Rachel's Experiment (D.T.)";"1.0";"2";"1";"1";"2";"1";"1";"2014-10-16 13:32:47.536";"2014-10-16 13:47:38.144";"1";"1";"0";"61";"60";"module.training_block2.exec-3547.GoNoGo2";;;;;;;;;;;;;;;;;;;;;;;;;;;;;;;;;;;"1261";"2014-10-16 13:37:07.084";"NST_correctLoc";"26";"1";"FINISHED";"RIGHT";"success";"532";"0";"2014-10-16 13:37:05.820";"3";;;;;;;;;;;;;;;;;;;;;;;;;;;;;;;;;;;;;;;;;;;;;
"Australia";;;"Windows 7";"Rachel's Experiment (D.T.)";"1.0";"2";"1";"1";"2";"1";"1";"2014-10-16 13:32:47.536";"2014-10-16 13:47:38.144";"1";"1";"0";"62";"61";"module.training_block2.exec-3547.GoNoGo2";;;;;;;;;;;;;;;;;;;;;;;;;;;;;;;;;;;"1261";"2014-10-16 13:37:09.627";"NST_correctLoc";"15";"1";"FINISHED";"RIGHT";"success";"597";"0";"2014-10-16 13:37:08.363";"2";;;;;;;;;;;;;;;;;;;;;;;;;;;;;;;;;;;;;;;;;;;;;
"Australia";;;"Windows 7";"Rachel's Experiment (D.T.)";"1.0";"2";"1";"1";"2";"1";"1";"2014-10-16 13:32:47.536";"2014-10-16 13:47:38.144";"1";"1";"0";"63";"62";"module.training_block2.exec-3547.GoNoGo2";;;;;;;;;;;;;;;;;;;;;;;;;;;;;;;;;;;"1261";"2014-10-16 13:37:12.170";"NST_correctLoc";"2";"0";"FINISHED";"LEFT";"success";"335";"0";"2014-10-16 13:37:10.906";"1";;;;;;;;;;;;;;;;;;;;;;;;;;;;;;;;;;;;;;;;;;;;;
"Australia";;;"Windows 7";"Rachel's Experiment (D.T.)";"1.0";"2";"1";"1";"2";"1";"1";"2014-10-16 13:32:47.536";"2014-10-16 13:47:38.144";"1";"1";"0";"64";"63";"module.training_block2.exec-3547.GoNoGo2";;;;;;;;;;;;;;;;;;;;;;;;;;;;;;;;;;;"1261";"2014-10-16 13:37:14.713";"NST_correctLoc";"8";"0";"FINISHED";"LEFT";"success";"392";"0";"2014-10-16 13:37:13.449";"1";;;;;;;;;;;;;;;;;;;;;;;;;;;;;;;;;;;;;;;;;;;;;
"Australia";;;"Windows 7";"Rachel's Experiment (D.T.)";"1.0";"2";"1";"1";"2";"1";"1";"2014-10-16 13:32:47.536";"2014-10-16 13:47:38.144";"1";"1";"0";"65";"64";"module.training_block2.exec-3547.GoNoGo2";;;;;;;;;;;;;;;;;;;;;;;;;;;;;;;;;;;"1261";"2014-10-16 13:37:17.256";"NST_correctLoc";"6";"0";"FINISHED";"LEFT";"success";"417";"0";"2014-10-16 13:37:15.992";"1";;;;;;;;;;;;;;;;;;;;;;;;;;;;;;;;;;;;;;;;;;;;;
"Australia";;;"Windows 7";"Rachel's Experiment (D.T.)";"1.0";"2";"1";"1";"2";"1";"1";"2014-10-16 13:32:47.536";"2014-10-16 13:47:38.144";"1";"1";"0";"66";"65";"module.training_block2.exec-3547.GoNoGo2";;;;;;;;;;;;;;;;;;;;;;;;;;;;;;;;;;;"1261";"2014-10-16 13:37:19.798";"NST_correctLoc";"25";"1";"FINISHED";"RIGHT";"success";"450";"0";"2014-10-16 13:37:18.535";"3";;;;;;;;;;;;;;;;;;;;;;;;;;;;;;;;;;;;;;;;;;;;;
"Australia";;;"Windows 7";"Rachel's Experiment (D.T.)";"1.0";"2";"1";"1";"2";"1";"1";"2014-10-16 13:32:47.536";"2014-10-16 13:47:38.144";"1";"1";"0";"67";"66";"module.training_block2.exec-3547.GoNoGo2";;;;;;;;;;;;;;;;;;;;;;;;;;;;;;;;;;;"1261";"2014-10-16 13:37:22.341";"NST_correctLoc";"33";"0";"FINISHED";"LEFT";"success";"332";"0";"2014-10-16 13:37:21.078";"3";;;;;;;;;;;;;;;;;;;;;;;;;;;;;;;;;;;;;;;;;;;;;
"Australia";;;"Windows 7";"Rachel's Experiment (D.T.)";"1.0";"2";"1";"1";"2";"1";"1";"2014-10-16 13:32:47.536";"2014-10-16 13:47:38.144";"1";"1";"0";"68";"67";"module.training_block2.exec-3547.GoNoGo2";;;;;;;;;;;;;;;;;;;;;;;;;;;;;;;;;;;"1261";"2014-10-16 13:37:24.884";"NST_correctLoc";"17";"0";"FINISHED";"LEFT";"success";"389";"0";"2014-10-16 13:37:23.621";"2";;;;;;;;;;;;;;;;;;;;;;;;;;;;;;;;;;;;;;;;;;;;;
"Australia";;;"Windows 7";"Rachel's Experiment (D.T.)";"1.0";"2";"1";"1";"2";"1";"1";"2014-10-16 13:32:47.536";"2014-10-16 13:47:38.144";"1";"1";"0";"69";"68";"module.training_block2.exec-3547.GoNoGo2";;;;;;;;;;;;;;;;;;;;;;;;;;;;;;;;;;;"1261";"2014-10-16 13:37:27.427";"NST_correctLoc";"30";"1";"FINISHED";"RIGHT";"success";"390";"0";"2014-10-16 13:37:26.163";"3";;;;;;;;;;;;;;;;;;;;;;;;;;;;;;;;;;;;;;;;;;;;;
"Australia";;;"Windows 7";"Rachel's Experiment (D.T.)";"1.0";"2";"1";"1";"2";"1";"1";"2014-10-16 13:32:47.536";"2014-10-16 13:47:38.144";"1";"1";"0";"70";"69";"module.training_block2.exec-3547.GoNoGo2";;;;;;;;;;;;;;;;;;;;;;;;;;;;;;;;;;;"1261";"2014-10-16 13:37:29.970";"NST_correctLoc";"22";"1";"FINISHED";"RIGHT";"success";"519";"0";"2014-10-16 13:37:28.706";"3";;;;;;;;;;;;;;;;;;;;;;;;;;;;;;;;;;;;;;;;;;;;;
"Australia";;;"Windows 7";"Rachel's Experiment (D.T.)";"1.0";"2";"1";"1";"2";"1";"1";"2014-10-16 13:32:47.536";"2014-10-16 13:47:38.144";"1";"1";"0";"71";"70";"module.training_block2.exec-3547.GoNoGo2";;;;;;;;;;;;;;;;;;;;;;;;;;;;;;;;;;;"1261";"2014-10-16 13:37:32.513";"NST_correctLoc";"23";"1";"FINISHED";"RIGHT";"success";"360";"0";"2014-10-16 13:37:31.249";"3";;;;;;;;;;;;;;;;;;;;;;;;;;;;;;;;;;;;;;;;;;;;;
"Australia";;;"Windows 7";"Rachel's Experiment (D.T.)";"1.0";"2";"1";"1";"2";"1";"1";"2014-10-16 13:32:47.536";"2014-10-16 13:47:38.144";"1";"1";"0";"72";"71";"module.training_block2.exec-3547.GoNoGo2";;;;;;;;;;;;;;;;;;;;;;;;;;;;;;;;;;;"1261";"2014-10-16 13:37:35.056";"NST_correctLoc";"18";"1";"FINISHED";"RIGHT";"success";"529";"0";"2014-10-16 13:37:33.792";"3";;;;;;;;;;;;;;;;;;;;;;;;;;;;;;;;;;;;;;;;;;;;;
"Australia";;;"Windows 7";"Rachel's Experiment (D.T.)";"1.0";"2";"1";"1";"2";"1";"1";"2014-10-16 13:32:47.536";"2014-10-16 13:47:38.144";"1";"1";"0";"73";"72";"module.training_block2.exec-3547.GoNoGo2";;;;;;;;;;;;;;;;;;;;;;;;;;;;;;;;;;;"1261";"2014-10-16 13:37:37.614";"NST_correctLoc";"34";"1";"FINISHED";"RIGHT";"success";"347";"0";"2014-10-16 13:37:36.351";"3";;;;;;;;;;;;;;;;;;;;;;;;;;;;;;;;;;;;;;;;;;;;;
"Australia";;;"Windows 7";"Rachel's Experiment (D.T.)";"1.0";"2";"1";"1";"2";"1";"1";"2014-10-16 13:32:47.536";"2014-10-16 13:47:38.144";"1";"1";"0";"74";"73";"module.training_block2.exec-3547.GoNoGo2";;;;;;;;;;;;;;;;;;;;;;;;;;;;;;;;;;;"1261";"2014-10-16 13:37:40.157";"NST_correctLoc";"10";"1";"FINISHED";"RIGHT";"success";"356";"0";"2014-10-16 13:37:38.894";"2";;;;;;;;;;;;;;;;;;;;;;;;;;;;;;;;;;;;;;;;;;;;;
"Australia";;;"Windows 7";"Rachel's Experiment (D.T.)";"1.0";"2";"1";"1";"2";"1";"1";"2014-10-16 13:32:47.536";"2014-10-16 13:47:38.144";"1";"1";"0";"75";"74";"module.training_block2.exec-3547.GoNoGo2";;;;;;;;;;;;;;;;;;;;;;;;;;;;;;;;;;;"1261";"2014-10-16 13:37:42.700";"NST_correctLoc";"24";"1";"FINISHED";"RIGHT";"success";"365";"0";"2014-10-16 13:37:41.436";"3";;;;;;;;;;;;;;;;;;;;;;;;;;;;;;;;;;;;;;;;;;;;;
"Australia";;;"Windows 7";"Rachel's Experiment (D.T.)";"1.0";"2";"1";"1";"2";"1";"1";"2014-10-16 13:32:47.536";"2014-10-16 13:47:38.144";"1";"1";"0";"76";"75";"module.training_block2.exec-3547.GoNoGo2";;;;;;;;;;;;;;;;;;;;;;;;;;;;;;;;;;;"1261";"2014-10-16 13:37:45.243";"NST_correctLoc";"32";"0";"FINISHED";"LEFT";"success";"359";"0";"2014-10-16 13:37:43.979";"3";;;;;;;;;;;;;;;;;;;;;;;;;;;;;;;;;;;;;;;;;;;;;
"Australia";;;"Windows 7";"Rachel's Experiment (D.T.)";"1.0";"2";"1";"1";"2";"1";"1";"2014-10-16 13:32:47.536";"2014-10-16 13:47:38.144";"1";"1";"0";"77";"76";"module.training_block2.exec-3547.GoNoGo2";;;;;;;;;;;;;;;;;;;;;;;;;;;;;;;;;;;"1261";"2014-10-16 13:37:47.786";"NST_correctLoc";"0";"0";"FINISHED";"LEFT";"success";"512";"0";"2014-10-16 13:37:46.522";"1";;;;;;;;;;;;;;;;;;;;;;;;;;;;;;;;;;;;;;;;;;;;;
"Australia";;;"Windows 7";"Rachel's Experiment (D.T.)";"1.0";"2";"1";"1";"2";"1";"1";"2014-10-16 13:32:47.536";"2014-10-16 13:47:38.144";"1";"1";"0";"78";"77";"module.training_block2.exec-3547.GoNoGo2";;;;;;;;;;;;;;;;;;;;;;;;;;;;;;;;;;;"1261";"2014-10-16 13:37:50.329";"NST_correctLoc";"14";"1";"FINISHED";"RIGHT";"success";"425";"0";"2014-10-16 13:37:49.065";"2";;;;;;;;;;;;;;;;;;;;;;;;;;;;;;;;;;;;;;;;;;;;;
"Australia";;;"Windows 7";"Rachel's Experiment (D.T.)";"1.0";"2";"1";"1";"2";"1";"1";"2014-10-16 13:32:47.536";"2014-10-16 13:47:38.144";"1";"1";"0";"79";"78";"module.training_block2.exec-3547.GoNoGo2";;;;;;;;;;;;;;;;;;;;;;;;;;;;;;;;;;;"1261";"2014-10-16 13:37:52.872";"NST_correctLoc";"20";"1";"FINISHED";"RIGHT";"success";"386";"0";"2014-10-16 13:37:51.608";"3";;;;;;;;;;;;;;;;;;;;;;;;;;;;;;;;;;;;;;;;;;;;;
"Australia";;;"Windows 7";"Rachel's Experiment (D.T.)";"1.0";"2";"1";"1";"2";"1";"1";"2014-10-16 13:32:47.536";"2014-10-16 13:47:38.144";"1";"1";"0";"80";"79";"module.training_block2.exec-3547.GoNoGo2";;;;;;;;;;;;;;;;;;;;;;;;;;;;;;;;;;;"1261";"2014-10-16 13:37:55.415";"NST_correctLoc";"19";"0";"FINISHED";"LEFT";"success";"315";"0";"2014-10-16 13:37:54.151";"3";;;;;;;;;;;;;;;;;;;;;;;;;;;;;;;;;;;;;;;;;;;;;
"Australia";;;"Windows 7";"Rachel's Experiment (D.T.)";"1.0";"2";"1";"1";"2";"1";"1";"2014-10-16 13:32:47.536";"2014-10-16 13:47:38.144";"1";"1";"0";"81";"80";"module.training_block2.exec-3547.GoNoGo2";;;;;;;;;;;;;;;;;;;;;;;;;;;;;;;;;;;"1261";"2014-10-16 13:37:57.957";"NST_correctLoc";"11";"0";"FINISHED";"LEFT";"success";"372";"0";"2014-10-16 13:37:56.694";"2";;;;;;;;;;;;;;;;;;;;;;;;;;;;;;;;;;;;;;;;;;;;;
"Australia";;;"Windows 7";"Rachel's Experiment (D.T.)";"1.0";"2";"1";"1";"2";"1";"1";"2014-10-16 13:32:47.536";"2014-10-16 13:47:38.144";"1";"1";"0";"82";"81";"module.training_block2.exec-3547.GoNoGo2";;;;;;;;;;;;;;;;;;;;;;;;;;;;;;;;;;;"1261";"2014-10-16 13:38:00.516";"NST_correctLoc";"5";"0";"FINISHED";"LEFT";"success";"358";"0";"2014-10-16 13:37:59.252";"1";;;;;;;;;;;;;;;;;;;;;;;;;;;;;;;;;;;;;;;;;;;;;
"Australia";;;"Windows 7";"Rachel's Experiment (D.T.)";"1.0";"2";"1";"1";"2";"1";"1";"2014-10-16 13:32:47.536";"2014-10-16 13:47:38.144";"1";"1";"0";"83";"82";"module.training_block2.exec-3547.GoNoGo2";;;;;;;;;;;;;;;;;;;;;;;;;;;;;;;;;;;"1261";"2014-10-16 13:38:03.059";"NST_correctLoc";"21";"1";"FINISHED";"RIGHT";"success";"367";"0";"2014-10-16 13:38:01.795";"3";;;;;;;;;;;;;;;;;;;;;;;;;;;;;;;;;;;;;;;;;;;;;
"Australia";;;"Windows 7";"Rachel's Experiment (D.T.)";"1.0";"2";"1";"1";"2";"1";"1";"2014-10-16 13:32:47.536";"2014-10-16 13:47:38.144";"1";"1";"0";"84";"83";"module.training_block2.exec-3547.GoNoGo2";;;;;;;;;;;;;;;;;;;;;;;;;;;;;;;;;;;"1261";"2014-10-16 13:38:05.602";"NST_correctLoc";"4";"0";"FINISHED";"LEFT";"success";"352";"0";"2014-10-16 13:38:04.338";"1";;;;;;;;;;;;;;;;;;;;;;;;;;;;;;;;;;;;;;;;;;;;;
"Australia";;;"Windows 7";"Rachel's Experiment (D.T.)";"1.0";"2";"1";"1";"2";"1";"1";"2014-10-16 13:32:47.536";"2014-10-16 13:47:38.144";"1";"1";"0";"85";"84";"module.training_block2.exec-3547.GoNoGo2";;;;;;;;;;;;;;;;;;;;;;;;;;;;;;;;;;;"1261";"2014-10-16 13:38:08.145";"NST_correctLoc";"7";"1";"FINISHED";"RIGHT";"success";"362";"0";"2014-10-16 13:38:06.881";"1";;;;;;;;;;;;;;;;;;;;;;;;;;;;;;;;;;;;;;;;;;;;;
"Australia";;;"Windows 7";"Rachel's Experiment (D.T.)";"1.0";"2";"1";"1";"2";"1";"1";"2014-10-16 13:32:47.536";"2014-10-16 13:47:38.144";"1";"1";"0";"86";"85";"module.training_block2.exec-3547.GoNoGo2";;;;;;;;;;;;;;;;;;;;;;;;;;;;;;;;;;;"1261";"2014-10-16 13:38:10.688";"NST_correctLoc";"13";"0";"FINISHED";"LEFT";"success";"291";"0";"2014-10-16 13:38:09.424";"2";;;;;;;;;;;;;;;;;;;;;;;;;;;;;;;;;;;;;;;;;;;;;
"Australia";;;"Windows 7";"Rachel's Experiment (D.T.)";"1.0";"2";"1";"1";"2";"1";"1";"2014-10-16 13:32:47.536";"2014-10-16 13:47:38.144";"1";"1";"0";"87";"86";"module.training_block2.exec-3547.GoNoGo2";;;;;;;;;;;;;;;;;;;;;;;;;;;;;;;;;;;"1261";"2014-10-16 13:38:13.230";"NST_correctLoc";"16";"1";"FINISHED";"RIGHT";"success";"324";"0";"2014-10-16 13:38:11.967";"2";;;;;;;;;;;;;;;;;;;;;;;;;;;;;;;;;;;;;;;;;;;;;
"Australia";;;"Windows 7";"Rachel's Experiment (D.T.)";"1.0";"2";"1";"1";"2";"1";"1";"2014-10-16 13:32:47.536";"2014-10-16 13:47:38.144";"1";"1";"0";"88";"87";"module.training_block3.exec-4148.GoNoGo3";;;;;;;;;;;;;;;;;;;;;;;;;;;;;;;;;;;;;;;;;;;;;;;"1261";"2014-10-16 13:38:23.574";"NST_correctLoc";"4";"1";"FINISHED";"RIGHT";"success";"421";"0";"2014-10-16 13:38:22.310";"1";;;;;;;;;;;;;;;;;;;;;;;;;;;;;;;;;
"Australia";;;"Windows 7";"Rachel's Experiment (D.T.)";"1.0";"2";"1";"1";"2";"1";"1";"2014-10-16 13:32:47.536";"2014-10-16 13:47:38.144";"1";"1";"0";"89";"88";"module.training_block3.exec-4148.GoNoGo3";;;;;;;;;;;;;;;;;;;;;;;;;;;;;;;;;;;;;;;;;;;;;;;"1261";"2014-10-16 13:38:26.132";"NST_correctLoc";"10";"1";"FINISHED";"RIGHT";"success";"383";"0";"2014-10-16 13:38:24.869";"2";;;;;;;;;;;;;;;;;;;;;;;;;;;;;;;;;
"Australia";;;"Windows 7";"Rachel's Experiment (D.T.)";"1.0";"2";"1";"1";"2";"1";"1";"2014-10-16 13:32:47.536";"2014-10-16 13:47:38.144";"1";"1";"0";"90";"89";"module.training_block3.exec-4148.GoNoGo3";;;;;;;;;;;;;;;;;;;;;;;;;;;;;;;;;;;;;;;;;;;;;;;"1261";"2014-10-16 13:38:28.675";"NST_correctLoc";"19";"1";"FINISHED";"RIGHT";"success";"408";"0";"2014-10-16 13:38:27.411";"3";;;;;;;;;;;;;;;;;;;;;;;;;;;;;;;;;
"Australia";;;"Windows 7";"Rachel's Experiment (D.T.)";"1.0";"2";"1";"1";"2";"1";"1";"2014-10-16 13:32:47.536";"2014-10-16 13:47:38.144";"1";"1";"0";"91";"90";"module.training_block3.exec-4148.GoNoGo3";;;;;;;;;;;;;;;;;;;;;;;;;;;;;;;;;;;;;;;;;;;;;;;"1261";"2014-10-16 13:38:31.234";"NST_correctLoc";"15";"0";"FINISHED";"LEFT";"success";"353";"0";"2014-10-16 13:38:29.970";"2";;;;;;;;;;;;;;;;;;;;;;;;;;;;;;;;;
"Australia";;;"Windows 7";"Rachel's Experiment (D.T.)";"1.0";"2";"1";"1";"2";"1";"1";"2014-10-16 13:32:47.536";"2014-10-16 13:47:38.144";"1";"1";"0";"92";"91";"module.training_block3.exec-4148.GoNoGo3";;;;;;;;;;;;;;;;;;;;;;;;;;;;;;;;;;;;;;;;;;;;;;;"1261";"2014-10-16 13:38:33.776";"NST_correctLoc";"35";"0";"FINISHED";"LEFT";"success";"403";"0";"2014-10-16 13:38:32.513";"3";;;;;;;;;;;;;;;;;;;;;;;;;;;;;;;;;
"Australia";;;"Windows 7";"Rachel's Experiment (D.T.)";"1.0";"2";"1";"1";"2";"1";"1";"2014-10-16 13:32:47.536";"2014-10-16 13:47:38.144";"1";"1";"0";"93";"92";"module.training_block3.exec-4148.GoNoGo3";;;;;;;;;;;;;;;;;;;;;;;;;;;;;;;;;;;;;;;;;;;;;;;"1261";"2014-10-16 13:38:36.319";"NST_correctLoc";"31";"0";"FINISHED";"LEFT";"success";"356";"0";"2014-10-16 13:38:35.056";"3";;;;;;;;;;;;;;;;;;;;;;;;;;;;;;;;;
"Australia";;;"Windows 7";"Rachel's Experiment (D.T.)";"1.0";"2";"1";"1";"2";"1";"1";"2014-10-16 13:32:47.536";"2014-10-16 13:47:38.144";"1";"1";"0";"94";"93";"module.training_block3.exec-4148.GoNoGo3";;;;;;;;;;;;;;;;;;;;;;;;;;;;;;;;;;;;;;;;;;;;;;;"1261";"2014-10-16 13:38:38.862";"NST_correctLoc";"16";"0";"FINISHED";"LEFT";"success";"333";"0";"2014-10-16 13:38:37.599";"2";;;;;;;;;;;;;;;;;;;;;;;;;;;;;;;;;
"Australia";;;"Windows 7";"Rachel's Experiment (D.T.)";"1.0";"2";"1";"1";"2";"1";"1";"2014-10-16 13:32:47.536";"2014-10-16 13:47:38.144";"1";"1";"0";"95";"94";"module.training_block3.exec-4148.GoNoGo3";;;;;;;;;;;;;;;;;;;;;;;;;;;;;;;;;;;;;;;;;;;;;;;"1261";"2014-10-16 13:38:41.405";"NST_correctLoc";"21";"1";"FINISHED";"RIGHT";"success";"270";"0";"2014-10-16 13:38:40.142";"3";;;;;;;;;;;;;;;;;;;;;;;;;;;;;;;;;
"Australia";;;"Windows 7";"Rachel's Experiment (D.T.)";"1.0";"2";"1";"1";"2";"1";"1";"2014-10-16 13:32:47.536";"2014-10-16 13:47:38.144";"1";"1";"0";"96";"95";"module.training_block3.exec-4148.GoNoGo3";;;;;;;;;;;;;;;;;;;;;;;;;;;;;;;;;;;;;;;;;;;;;;;"1261";"2014-10-16 13:38:43.932";"NST_correctLoc";"27";"0";"FINISHED";"LEFT";"success";"295";"0";"2014-10-16 13:38:42.669";"3";;;;;;;;;;;;;;;;;;;;;;;;;;;;;;;;;
"Australia";;;"Windows 7";"Rachel's Experiment (D.T.)";"1.0";"2";"1";"1";"2";"1";"1";"2014-10-16 13:32:47.536";"2014-10-16 13:47:38.144";"1";"1";"0";"97";"96";"module.training_block3.exec-4148.GoNoGo3";;;;;;;;;;;;;;;;;;;;;;;;;;;;;;;;;;;;;;;;;;;;;;;"1261";"2014-10-16 13:38:46.475";"NST_correctLoc";"7";"1";"FINISHED";"RIGHT";"success";"312";"0";"2014-10-16 13:38:45.212";"1";;;;;;;;;;;;;;;;;;;;;;;;;;;;;;;;;
"Australia";;;"Windows 7";"Rachel's Experiment (D.T.)";"1.0";"2";"1";"1";"2";"1";"1";"2014-10-16 13:32:47.536";"2014-10-16 13:47:38.144";"1";"1";"0";"98";"97";"module.training_block3.exec-4148.GoNoGo3";;;;;;;;;;;;;;;;;;;;;;;;;;;;;;;;;;;;;;;;;;;;;;;"1261";"2014-10-16 13:38:49.034";"NST_correctLoc";"2";"0";"FINISHED";"LEFT";"success";"298";"0";"2014-10-16 13:38:47.770";"1";;;;;;;;;;;;;;;;;;;;;;;;;;;;;;;;;
"Australia";;;"Windows 7";"Rachel's Experiment (D.T.)";"1.0";"2";"1";"1";"2";"1";"1";"2014-10-16 13:32:47.536";"2014-10-16 13:47:38.144";"1";"1";"0";"99";"98";"module.training_block3.exec-4148.GoNoGo3";;;;;;;;;;;;;;;;;;;;;;;;;;;;;;;;;;;;;;;;;;;;;;;"1261";"2014-10-16 13:38:51.577";"NST_correctLoc";"20";"0";"FINISHED";"LEFT";"success";"451";"0";"2014-10-16 13:38:50.313";"3";;;;;;;;;;;;;;;;;;;;;;;;;;;;;;;;;
"Australia";;;"Windows 7";"Rachel's Experiment (D.T.)";"1.0";"2";"1";"1";"2";"1";"1";"2014-10-16 13:32:47.536";"2014-10-16 13:47:38.144";"1";"1";"0";"100";"99";"module.training_block3.exec-4148.GoNoGo3";;;;;;;;;;;;;;;;;;;;;;;;;;;;;;;;;;;;;;;;;;;;;;;"1262";"2014-10-16 13:38:54.120";"NST_correctLoc";"26";"1";"FINISHED";"RIGHT";"success";"324";"0";"2014-10-16 13:38:52.856";"3";;;;;;;;;;;;;;;;;;;;;;;;;;;;;;;;;
"Australia";;;"Windows 7";"Rachel's Experiment (D.T.)";"1.0";"2";"1";"1";"2";"1";"1";"2014-10-16 13:32:47.536";"2014-10-16 13:47:38.144";"1";"1";"0";"101";"100";"module.training_block3.exec-4148.GoNoGo3";;;;;;;;;;;;;;;;;;;;;;;;;;;;;;;;;;;;;;;;;;;;;;;"1261";"2014-10-16 13:38:56.663";"NST_correctLoc";"5";"0";"FINISHED";"LEFT";"success";"365";"0";"2014-10-16 13:38:55.399";"1";;;;;;;;;;;;;;;;;;;;;;;;;;;;;;;;;
"Australia";;;"Windows 7";"Rachel's Experiment (D.T.)";"1.0";"2";"1";"1";"2";"1";"1";"2014-10-16 13:32:47.536";"2014-10-16 13:47:38.144";"1";"1";"0";"102";"101";"module.training_block3.exec-4148.GoNoGo3";;;;;;;;;;;;;;;;;;;;;;;;;;;;;;;;;;;;;;;;;;;;;;;"1262";"2014-10-16 13:38:59.205";"NST_correctLoc";"32";"1";"FINISHED";"RIGHT";"success";"318";"0";"2014-10-16 13:38:57.942";"3";;;;;;;;;;;;;;;;;;;;;;;;;;;;;;;;;
"Australia";;;"Windows 7";"Rachel's Experiment (D.T.)";"1.0";"2";"1";"1";"2";"1";"1";"2014-10-16 13:32:47.536";"2014-10-16 13:47:38.144";"1";"1";"0";"103";"102";"module.training_block3.exec-4148.GoNoGo3";;;;;;;;;;;;;;;;;;;;;;;;;;;;;;;;;;;;;;;;;;;;;;;"1262";"2014-10-16 13:39:01.733";"NST_correctLoc";"25";"0";"FINISHED";"LEFT";"success";"287";"0";"2014-10-16 13:39:00.469";"3";;;;;;;;;;;;;;;;;;;;;;;;;;;;;;;;;
"Australia";;;"Windows 7";"Rachel's Experiment (D.T.)";"1.0";"2";"1";"1";"2";"1";"1";"2014-10-16 13:32:47.536";"2014-10-16 13:47:38.144";"1";"1";"0";"104";"103";"module.training_block3.exec-4148.GoNoGo3";;;;;;;;;;;;;;;;;;;;;;;;;;;;;;;;;;;;;;;;;;;;;;;"1261";"2014-10-16 13:39:04.276";"NST_correctLoc";"0";"1";"FINISHED";"RIGHT";"success";"456";"0";"2014-10-16 13:39:03.012";"1";;;;;;;;;;;;;;;;;;;;;;;;;;;;;;;;;
"Australia";;;"Windows 7";"Rachel's Experiment (D.T.)";"1.0";"2";"1";"1";"2";"1";"1";"2014-10-16 13:32:47.536";"2014-10-16 13:47:38.144";"1";"1";"0";"105";"104";"module.training_block3.exec-4148.GoNoGo3";;;;;;;;;;;;;;;;;;;;;;;;;;;;;;;;;;;;;;;;;;;;;;;"1261";"2014-10-16 13:39:06.834";"NST_correctLoc";"1";"1";"FINISHED";"RIGHT";"success";"458";"0";"2014-10-16 13:39:05.570";"1";;;;;;;;;;;;;;;;;;;;;;;;;;;;;;;;;
"Australia";;;"Windows 7";"Rachel's Experiment (D.T.)";"1.0";"2";"1";"1";"2";"1";"1";"2014-10-16 13:32:47.536";"2014-10-16 13:47:38.144";"1";"1";"0";"106";"105";"module.training_block3.exec-4148.GoNoGo3";;;;;;;;;;;;;;;;;;;;;;;;;;;;;;;;;;;;;;;;;;;;;;;"1262";"2014-10-16 13:39:09.377";"NST_correctLoc";"23";"0";"FINISHED";"LEFT";"success";"307";"0";"2014-10-16 13:39:08.113";"3";;;;;;;;;;;;;;;;;;;;;;;;;;;;;;;;;
"Australia";;;"Windows 7";"Rachel's Experiment (D.T.)";"1.0";"2";"1";"1";"2";"1";"1";"2014-10-16 13:32:47.536";"2014-10-16 13:47:38.144";"1";"1";"0";"107";"106";"module.training_block3.exec-4148.GoNoGo3";;;;;;;;;;;;;;;;;;;;;;;;;;;;;;;;;;;;;;;;;;;;;;;"1262";"2014-10-16 13:39:11.920";"NST_correctLoc";"12";"0";"FINISHED";"LEFT";"success";"332";"0";"2014-10-16 13:39:10.656";"2";;;;;;;;;;;;;;;;;;;;;;;;;;;;;;;;;
"Australia";;;"Windows 7";"Rachel's Experiment (D.T.)";"1.0";"2";"1";"1";"2";"1";"1";"2014-10-16 13:32:47.536";"2014-10-16 13:47:38.144";"1";"1";"0";"108";"107";"module.training_block3.exec-4148.GoNoGo3";;;;;;;;;;;;;;;;;;;;;;;;;;;;;;;;;;;;;;;;;;;;;;;"1261";"2014-10-16 13:39:14.447";"NST_correctLoc";"9";"1";"FINISHED";"RIGHT";"success";"341";"0";"2014-10-16 13:39:13.184";"2";;;;;;;;;;;;;;;;;;;;;;;;;;;;;;;;;
"Australia";;;"Windows 7";"Rachel's Experiment (D.T.)";"1.0";"2";"1";"1";"2";"1";"1";"2014-10-16 13:32:47.536";"2014-10-16 13:47:38.144";"1";"1";"0";"109";"108";"module.training_block3.exec-4148.GoNoGo3";;;;;;;;;;;;;;;;;;;;;;;;;;;;;;;;;;;;;;;;;;;;;;;"1262";"2014-10-16 13:39:16.990";"NST_correctLoc";"3";"1";"FINISHED";"RIGHT";"success";"374";"0";"2014-10-16 13:39:15.726";"1";;;;;;;;;;;;;;;;;;;;;;;;;;;;;;;;;
"Australia";;;"Windows 7";"Rachel's Experiment (D.T.)";"1.0";"2";"1";"1";"2";"1";"1";"2014-10-16 13:32:47.536";"2014-10-16 13:47:38.144";"1";"1";"0";"110";"109";"module.training_block3.exec-4148.GoNoGo3";;;;;;;;;;;;;;;;;;;;;;;;;;;;;;;;;;;;;;;;;;;;;;;"1261";"2014-10-16 13:39:19.517";"NST_correctLoc";"6";"1";"FINISHED";"RIGHT";"success";"327";"0";"2014-10-16 13:39:18.254";"1";;;;;;;;;;;;;;;;;;;;;;;;;;;;;;;;;
"Australia";;;"Windows 7";"Rachel's Experiment (D.T.)";"1.0";"2";"1";"1";"2";"1";"1";"2014-10-16 13:32:47.536";"2014-10-16 13:47:38.144";"1";"1";"0";"111";"110";"module.training_block3.exec-4148.GoNoGo3";;;;;;;;;;;;;;;;;;;;;;;;;;;;;;;;;;;;;;;;;;;;;;;"1261";"2014-10-16 13:39:22.060";"NST_correctLoc";"33";"1";"FINISHED";"RIGHT";"success";"328";"0";"2014-10-16 13:39:20.797";"3";;;;;;;;;;;;;;;;;;;;;;;;;;;;;;;;;
"Australia";;;"Windows 7";"Rachel's Experiment (D.T.)";"1.0";"2";"1";"1";"2";"1";"1";"2014-10-16 13:32:47.536";"2014-10-16 13:47:38.144";"1";"1";"0";"112";"111";"module.training_block3.exec-4148.GoNoGo3";;;;;;;;;;;;;;;;;;;;;;;;;;;;;;;;;;;;;;;;;;;;;;;"1261";"2014-10-16 13:39:24.603";"NST_correctLoc";"22";"1";"FINISHED";"RIGHT";"success";"297";"0";"2014-10-16 13:39:23.340";"3";;;;;;;;;;;;;;;;;;;;;;;;;;;;;;;;;
"Australia";;;"Windows 7";"Rachel's Experiment (D.T.)";"1.0";"2";"1";"1";"2";"1";"1";"2014-10-16 13:32:47.536";"2014-10-16 13:47:38.144";"1";"1";"0";"113";"112";"module.training_block3.exec-4148.GoNoGo3";;;;;;;;;;;;;;;;;;;;;;;;;;;;;;;;;;;;;;;;;;;;;;;"1262";"2014-10-16 13:39:27.131";"NST_correctLoc";"28";"0";"FINISHED";"LEFT";"success";"434";"0";"2014-10-16 13:39:25.867";"3";;;;;;;;;;;;;;;;;;;;;;;;;;;;;;;;;
"Australia";;;"Windows 7";"Rachel's Experiment (D.T.)";"1.0";"2";"1";"1";"2";"1";"1";"2014-10-16 13:32:47.536";"2014-10-16 13:47:38.144";"1";"1";"0";"114";"113";"module.training_block3.exec-4148.GoNoGo3";;;;;;;;;;;;;;;;;;;;;;;;;;;;;;;;;;;;;;;;;;;;;;;"1261";"2014-10-16 13:39:29.673";"NST_correctLoc";"30";"0";"FINISHED";"LEFT";"success";"483";"0";"2014-10-16 13:39:28.410";"3";;;;;;;;;;;;;;;;;;;;;;;;;;;;;;;;;
"Australia";;;"Windows 7";"Rachel's Experiment (D.T.)";"1.0";"2";"1";"1";"2";"1";"1";"2014-10-16 13:32:47.536";"2014-10-16 13:47:38.144";"1";"1";"0";"115";"114";"module.training_block3.exec-4148.GoNoGo3";;;;;;;;;;;;;;;;;;;;;;;;;;;;;;;;;;;;;;;;;;;;;;;"1261";"2014-10-16 13:39:32.201";"NST_correctLoc";"14";"0";"FINISHED";"LEFT";"success";"444";"0";"2014-10-16 13:39:30.937";"2";;;;;;;;;;;;;;;;;;;;;;;;;;;;;;;;;
"Australia";;;"Windows 7";"Rachel's Experiment (D.T.)";"1.0";"2";"1";"1";"2";"1";"1";"2014-10-16 13:32:47.536";"2014-10-16 13:47:38.144";"1";"1";"0";"116";"115";"module.training_block3.exec-4148.GoNoGo3";;;;;;;;;;;;;;;;;;;;;;;;;;;;;;;;;;;;;;;;;;;;;;;"1261";"2014-10-16 13:39:34.728";"NST_correctLoc";"24";"0";"FINISHED";"LEFT";"success";"445";"0";"2014-10-16 13:39:33.464";"3";;;;;;;;;;;;;;;;;;;;;;;;;;;;;;;;;
"Australia";;;"Windows 7";"Rachel's Experiment (D.T.)";"1.0";"2";"1";"1";"2";"1";"1";"2014-10-16 13:32:47.536";"2014-10-16 13:47:38.144";"1";"1";"0";"117";"116";"module.training_block3.exec-4148.GoNoGo3";;;;;;;;;;;;;;;;;;;;;;;;;;;;;;;;;;;;;;;;;;;;;;;"1262";"2014-10-16 13:39:37.271";"NST_correctLoc";"8";"1";"FINISHED";"RIGHT";"success";"406";"0";"2014-10-16 13:39:36.007";"1";;;;;;;;;;;;;;;;;;;;;;;;;;;;;;;;;
"Australia";;;"Windows 7";"Rachel's Experiment (D.T.)";"1.0";"2";"1";"1";"2";"1";"1";"2014-10-16 13:32:47.536";"2014-10-16 13:47:38.144";"1";"1";"0";"118";"117";"module.training_block3.exec-4148.GoNoGo3";;;;;;;;;;;;;;;;;;;;;;;;;;;;;;;;;;;;;;;;;;;;;;;"1261";"2014-10-16 13:39:39.798";"NST_correctLoc";"13";"1";"FINISHED";"RIGHT";"success";"471";"0";"2014-10-16 13:39:38.535";"2";;;;;;;;;;;;;;;;;;;;;;;;;;;;;;;;;
"Australia";;;"Windows 7";"Rachel's Experiment (D.T.)";"1.0";"2";"1";"1";"2";"1";"1";"2014-10-16 13:32:47.536";"2014-10-16 13:47:38.144";"1";"1";"0";"119";"118";"module.training_block3.exec-4148.GoNoGo3";;;;;;;;;;;;;;;;;;;;;;;;;;;;;;;;;;;;;;;;;;;;;;;"1261";"2014-10-16 13:39:42.341";"NST_correctLoc";"34";"1";"FINISHED";"RIGHT";"success";"328";"0";"2014-10-16 13:39:41.077";"3";;;;;;;;;;;;;;;;;;;;;;;;;;;;;;;;;
"Australia";;;"Windows 7";"Rachel's Experiment (D.T.)";"1.0";"2";"1";"1";"2";"1";"1";"2014-10-16 13:32:47.536";"2014-10-16 13:47:38.144";"1";"1";"0";"120";"119";"module.training_block3.exec-4148.GoNoGo3";;;;;;;;;;;;;;;;;;;;;;;;;;;;;;;;;;;;;;;;;;;;;;;"1261";"2014-10-16 13:39:44.868";"NST_correctLoc";"18";"0";"FINISHED";"LEFT";"success";"345";"0";"2014-10-16 13:39:43.605";"3";;;;;;;;;;;;;;;;;;;;;;;;;;;;;;;;;
"Australia";;;"Windows 7";"Rachel's Experiment (D.T.)";"1.0";"2";"1";"1";"2";"1";"1";"2014-10-16 13:32:47.536";"2014-10-16 13:47:38.144";"1";"1";"0";"121";"120";"module.training_block3.exec-4148.GoNoGo3";;;;;;;;;;;;;;;;;;;;;;;;;;;;;;;;;;;;;;;;;;;;;;;"1261";"2014-10-16 13:39:47.396";"NST_correctLoc";"11";"1";"FINISHED";"RIGHT";"success";"377";"0";"2014-10-16 13:39:46.132";"2";;;;;;;;;;;;;;;;;;;;;;;;;;;;;;;;;
"Australia";;;"Windows 7";"Rachel's Experiment (D.T.)";"1.0";"2";"1";"1";"2";"1";"1";"2014-10-16 13:32:47.536";"2014-10-16 13:47:38.144";"1";"1";"0";"122";"121";"module.training_block3.exec-4148.GoNoGo3";;;;;;;;;;;;;;;;;;;;;;;;;;;;;;;;;;;;;;;;;;;;;;;"1258";"2014-10-16 13:39:49.939";"NST_correctLoc";"29";"0";"FINISHED";"LEFT";"success";"448";"0";"2014-10-16 13:39:48.675";"3";;;;;;;;;;;;;;;;;;;;;;;;;;;;;;;;;
"Australia";;;"Windows 7";"Rachel's Experiment (D.T.)";"1.0";"2";"1";"1";"2";"1";"1";"2014-10-16 13:32:47.536";"2014-10-16 13:47:38.144";"1";"1";"0";"123";"122";"module.training_block3.exec-4148.GoNoGo3";;;;;;;;;;;;;;;;;;;;;;;;;;;;;;;;;;;;;;;;;;;;;;;"1262";"2014-10-16 13:39:52.466";"NST_correctLoc";"17";"1";"FINISHED";"RIGHT";"success";"340";"0";"2014-10-16 13:39:51.202";"2";;;;;;;;;;;;;;;;;;;;;;;;;;;;;;;;;
"Australia";;;"Windows 7";"Rachel's Experiment (D.T.)";"1.0";"2";"1";"1";"2";"1";"1";"2014-10-16 13:32:47.536";"2014-10-16 13:47:38.144";"1";"1";"0";"124";"123";"module.training_block4.exec-2597.GoNoGo4";;;;;;;;;;;;;;;;;;;;;;;;;;;;;;;;;;;;;;;;;;;;;;;;;;;;;;;;;;;"1261";"2014-10-16 13:40:02.622";"NST_correctLoc";"5";"1";"FINISHED";"RIGHT";"success";"376";"0";"2014-10-16 13:40:01.358";"1";;;;;;;;;;;;;;;;;;;;;
"Australia";;;"Windows 7";"Rachel's Experiment (D.T.)";"1.0";"2";"1";"1";"2";"1";"1";"2014-10-16 13:32:47.536";"2014-10-16 13:47:38.144";"1";"1";"0";"125";"124";"module.training_block4.exec-2597.GoNoGo4";;;;;;;;;;;;;;;;;;;;;;;;;;;;;;;;;;;;;;;;;;;;;;;;;;;;;;;;;;;"1262";"2014-10-16 13:40:05.149";"NST_correctLoc";"6";"1";"FINISHED";"RIGHT";"success";"369";"0";"2014-10-16 13:40:03.886";"1";;;;;;;;;;;;;;;;;;;;;
"Australia";;;"Windows 7";"Rachel's Experiment (D.T.)";"1.0";"2";"1";"1";"2";"1";"1";"2014-10-16 13:32:47.536";"2014-10-16 13:47:38.144";"1";"1";"0";"126";"125";"module.training_block4.exec-2597.GoNoGo4";;;;;;;;;;;;;;;;;;;;;;;;;;;;;;;;;;;;;;;;;;;;;;;;;;;;;;;;;;;"1262";"2014-10-16 13:40:07.676";"NST_correctLoc";"31";"0";"FINISHED";"LEFT";"success";"401";"0";"2014-10-16 13:40:06.413";"3";;;;;;;;;;;;;;;;;;;;;
"Australia";;;"Windows 7";"Rachel's Experiment (D.T.)";"1.0";"2";"1";"1";"2";"1";"1";"2014-10-16 13:32:47.536";"2014-10-16 13:47:38.144";"1";"1";"0";"127";"126";"module.training_block4.exec-2597.GoNoGo4";;;;;;;;;;;;;;;;;;;;;;;;;;;;;;;;;;;;;;;;;;;;;;;;;;;;;;;;;;;"1262";"2014-10-16 13:40:10.204";"NST_correctLoc";"18";"1";"FINISHED";"RIGHT";"success";"338";"0";"2014-10-16 13:40:08.940";"3";;;;;;;;;;;;;;;;;;;;;
"Australia";;;"Windows 7";"Rachel's Experiment (D.T.)";"1.0";"2";"1";"1";"2";"1";"1";"2014-10-16 13:32:47.536";"2014-10-16 13:47:38.144";"1";"1";"0";"128";"127";"module.training_block4.exec-2597.GoNoGo4";;;;;;;;;;;;;;;;;;;;;;;;;;;;;;;;;;;;;;;;;;;;;;;;;;;;;;;;;;;"1261";"2014-10-16 13:40:12.731";"NST_correctLoc";"3";"0";"FINISHED";"LEFT";"success";"299";"0";"2014-10-16 13:40:11.467";"1";;;;;;;;;;;;;;;;;;;;;
"Australia";;;"Windows 7";"Rachel's Experiment (D.T.)";"1.0";"2";"1";"1";"2";"1";"1";"2014-10-16 13:32:47.536";"2014-10-16 13:47:38.144";"1";"1";"0";"129";"128";"module.training_block4.exec-2597.GoNoGo4";;;;;;;;;;;;;;;;;;;;;;;;;;;;;;;;;;;;;;;;;;;;;;;;;;;;;;;;;;;"1262";"2014-10-16 13:40:15.258";"NST_correctLoc";"11";"1";"FINISHED";"RIGHT";"success";"324";"0";"2014-10-16 13:40:13.995";"2";;;;;;;;;;;;;;;;;;;;;
"Australia";;;"Windows 7";"Rachel's Experiment (D.T.)";"1.0";"2";"1";"1";"2";"1";"1";"2014-10-16 13:32:47.536";"2014-10-16 13:47:38.144";"1";"1";"0";"130";"129";"module.training_block4.exec-2597.GoNoGo4";;;;;;;;;;;;;;;;;;;;;;;;;;;;;;;;;;;;;;;;;;;;;;;;;;;;;;;;;;;"1261";"2014-10-16 13:40:17.786";"NST_correctLoc";"2";"0";"FINISHED";"LEFT";"success";"349";"0";"2014-10-16 13:40:16.522";"1";;;;;;;;;;;;;;;;;;;;;
"Australia";;;"Windows 7";"Rachel's Experiment (D.T.)";"1.0";"2";"1";"1";"2";"1";"1";"2014-10-16 13:32:47.536";"2014-10-16 13:47:38.144";"1";"1";"0";"131";"130";"module.training_block4.exec-2597.GoNoGo4";;;;;;;;;;;;;;;;;;;;;;;;;;;;;;;;;;;;;;;;;;;;;;;;;;;;;;;;;;;"1262";"2014-10-16 13:40:20.313";"NST_correctLoc";"20";"1";"FINISHED";"RIGHT";"success";"293";"0";"2014-10-16 13:40:19.049";"3";;;;;;;;;;;;;;;;;;;;;
"Australia";;;"Windows 7";"Rachel's Experiment (D.T.)";"1.0";"2";"1";"1";"2";"1";"1";"2014-10-16 13:32:47.536";"2014-10-16 13:47:38.144";"1";"1";"0";"132";"131";"module.training_block4.exec-2597.GoNoGo4";;;;;;;;;;;;;;;;;;;;;;;;;;;;;;;;;;;;;;;;;;;;;;;;;;;;;;;;;;;"1262";"2014-10-16 13:40:22.856";"NST_correctLoc";"21";"1";"FINISHED";"RIGHT";"success";"470";"0";"2014-10-16 13:40:21.592";"3";;;;;;;;;;;;;;;;;;;;;
"Australia";;;"Windows 7";"Rachel's Experiment (D.T.)";"1.0";"2";"1";"1";"2";"1";"1";"2014-10-16 13:32:47.536";"2014-10-16 13:47:38.144";"1";"1";"0";"133";"132";"module.training_block4.exec-2597.GoNoGo4";;;;;;;;;;;;;;;;;;;;;;;;;;;;;;;;;;;;;;;;;;;;;;;;;;;;;;;;;;;"1261";"2014-10-16 13:40:25.383";"NST_correctLoc";"19";"1";"FINISHED";"RIGHT";"success";"471";"0";"2014-10-16 13:40:24.120";"3";;;;;;;;;;;;;;;;;;;;;
"Australia";;;"Windows 7";"Rachel's Experiment (D.T.)";"1.0";"2";"1";"1";"2";"1";"1";"2014-10-16 13:32:47.536";"2014-10-16 13:47:38.144";"1";"1";"0";"134";"133";"module.training_block4.exec-2597.GoNoGo4";;;;;;;;;;;;;;;;;;;;;;;;;;;;;;;;;;;;;;;;;;;;;;;;;;;;;;;;;;;"1262";"2014-10-16 13:40:27.910";"NST_correctLoc";"4";"0";"FINISHED";"LEFT";"success";"320";"0";"2014-10-16 13:40:26.647";"1";;;;;;;;;;;;;;;;;;;;;
"Australia";;;"Windows 7";"Rachel's Experiment (D.T.)";"1.0";"2";"1";"1";"2";"1";"1";"2014-10-16 13:32:47.536";"2014-10-16 13:47:38.144";"1";"1";"0";"135";"134";"module.training_block4.exec-2597.GoNoGo4";;;;;;;;;;;;;;;;;;;;;;;;;;;;;;;;;;;;;;;;;;;;;;;;;;;;;;;;;;;"1262";"2014-10-16 13:40:30.438";"NST_correctLoc";"32";"1";"FINISHED";"RIGHT";"success";"265";"0";"2014-10-16 13:40:29.174";"3";;;;;;;;;;;;;;;;;;;;;
"Australia";;;"Windows 7";"Rachel's Experiment (D.T.)";"1.0";"2";"1";"1";"2";"1";"1";"2014-10-16 13:32:47.536";"2014-10-16 13:47:38.144";"1";"1";"0";"136";"135";"module.training_block4.exec-2597.GoNoGo4";;;;;;;;;;;;;;;;;;;;;;;;;;;;;;;;;;;;;;;;;;;;;;;;;;;;;;;;;;;"1262";"2014-10-16 13:40:32.965";"NST_correctLoc";"25";"0";"FINISHED";"LEFT";"success";"338";"0";"2014-10-16 13:40:31.701";"3";;;;;;;;;;;;;;;;;;;;;
"Australia";;;"Windows 7";"Rachel's Experiment (D.T.)";"1.0";"2";"1";"1";"2";"1";"1";"2014-10-16 13:32:47.536";"2014-10-16 13:47:38.144";"1";"1";"0";"137";"136";"module.training_block4.exec-2597.GoNoGo4";;;;;;;;;;;;;;;;;;;;;;;;;;;;;;;;;;;;;;;;;;;;;;;;;;;;;;;;;;;"1262";"2014-10-16 13:40:35.492";"NST_correctLoc";"30";"1";"FINISHED";"RIGHT";"success";"314";"0";"2014-10-16 13:40:34.229";"3";;;;;;;;;;;;;;;;;;;;;
"Australia";;;"Windows 7";"Rachel's Experiment (D.T.)";"1.0";"2";"1";"1";"2";"1";"1";"2014-10-16 13:32:47.536";"2014-10-16 13:47:38.144";"1";"1";"0";"138";"137";"module.training_block4.exec-2597.GoNoGo4";;;;;;;;;;;;;;;;;;;;;;;;;;;;;;;;;;;;;;;;;;;;;;;;;;;;;;;;;;;"1262";"2014-10-16 13:40:38.020";"NST_correctLoc";"28";"0";"FINISHED";"LEFT";"success";"267";"0";"2014-10-16 13:40:36.756";"3";;;;;;;;;;;;;;;;;;;;;
"Australia";;;"Windows 7";"Rachel's Experiment (D.T.)";"1.0";"2";"1";"1";"2";"1";"1";"2014-10-16 13:32:47.536";"2014-10-16 13:47:38.144";"1";"1";"0";"139";"138";"module.training_block4.exec-2597.GoNoGo4";;;;;;;;;;;;;;;;;;;;;;;;;;;;;;;;;;;;;;;;;;;;;;;;;;;;;;;;;;;"1262";"2014-10-16 13:40:40.547";"NST_correctLoc";"34";"0";"FINISHED";"LEFT";"success";"388";"0";"2014-10-16 13:40:39.283";"3";;;;;;;;;;;;;;;;;;;;;
"Australia";;;"Windows 7";"Rachel's Experiment (D.T.)";"1.0";"2";"1";"1";"2";"1";"1";"2014-10-16 13:32:47.536";"2014-10-16 13:47:38.144";"1";"1";"0";"140";"139";"module.training_block4.exec-2597.GoNoGo4";;;;;;;;;;;;;;;;;;;;;;;;;;;;;;;;;;;;;;;;;;;;;;;;;;;;;;;;;;;"1262";"2014-10-16 13:40:43.090";"NST_correctLoc";"15";"1";"FINISHED";"RIGHT";"success";"341";"0";"2014-10-16 13:40:41.826";"2";;;;;;;;;;;;;;;;;;;;;
"Australia";;;"Windows 7";"Rachel's Experiment (D.T.)";"1.0";"2";"1";"1";"2";"1";"1";"2014-10-16 13:32:47.536";"2014-10-16 13:47:38.144";"1";"1";"0";"141";"140";"module.training_block4.exec-2597.GoNoGo4";;;;;;;;;;;;;;;;;;;;;;;;;;;;;;;;;;;;;;;;;;;;;;;;;;;;;;;;;;;"1261";"2014-10-16 13:40:45.617";"NST_correctLoc";"8";"0";"FINISHED";"LEFT";"success";"334";"0";"2014-10-16 13:40:44.353";"1";;;;;;;;;;;;;;;;;;;;;
"Australia";;;"Windows 7";"Rachel's Experiment (D.T.)";"1.0";"2";"1";"1";"2";"1";"1";"2014-10-16 13:32:47.536";"2014-10-16 13:47:38.144";"1";"1";"0";"142";"141";"module.training_block4.exec-2597.GoNoGo4";;;;;;;;;;;;;;;;;;;;;;;;;;;;;;;;;;;;;;;;;;;;;;;;;;;;;;;;;;;"1262";"2014-10-16 13:40:48.144";"NST_correctLoc";"0";"0";"FINISHED";"LEFT";"success";"415";"0";"2014-10-16 13:40:46.881";"1";;;;;;;;;;;;;;;;;;;;;
"Australia";;;"Windows 7";"Rachel's Experiment (D.T.)";"1.0";"2";"1";"1";"2";"1";"1";"2014-10-16 13:32:47.536";"2014-10-16 13:47:38.144";"1";"1";"0";"143";"142";"module.training_block4.exec-2597.GoNoGo4";;;;;;;;;;;;;;;;;;;;;;;;;;;;;;;;;;;;;;;;;;;;;;;;;;;;;;;;;;;"1261";"2014-10-16 13:40:50.703";"NST_correctLoc";"7";"0";"FINISHED";"LEFT";"success";"400";"0";"2014-10-16 13:40:49.439";"1";;;;;;;;;;;;;;;;;;;;;
"Australia";;;"Windows 7";"Rachel's Experiment (D.T.)";"1.0";"2";"1";"1";"2";"1";"1";"2014-10-16 13:32:47.536";"2014-10-16 13:47:38.144";"1";"1";"0";"144";"143";"module.training_block4.exec-2597.GoNoGo4";;;;;;;;;;;;;;;;;;;;;;;;;;;;;;;;;;;;;;;;;;;;;;;;;;;;;;;;;;;"1261";"2014-10-16 13:40:53.246";"NST_correctLoc";"1";"1";"FINISHED";"RIGHT";"success";"369";"0";"2014-10-16 13:40:51.982";"1";;;;;;;;;;;;;;;;;;;;;
"Australia";;;"Windows 7";"Rachel's Experiment (D.T.)";"1.0";"2";"1";"1";"2";"1";"1";"2014-10-16 13:32:47.536";"2014-10-16 13:47:38.144";"1";"1";"0";"145";"144";"module.training_block4.exec-2597.GoNoGo4";;;;;;;;;;;;;;;;;;;;;;;;;;;;;;;;;;;;;;;;;;;;;;;;;;;;;;;;;;;"1262";"2014-10-16 13:40:55.804";"NST_correctLoc";"24";"0";"FINISHED";"LEFT";"success";"331";"0";"2014-10-16 13:40:54.541";"3";;;;;;;;;;;;;;;;;;;;;
"Australia";;;"Windows 7";"Rachel's Experiment (D.T.)";"1.0";"2";"1";"1";"2";"1";"1";"2014-10-16 13:32:47.536";"2014-10-16 13:47:38.144";"1";"1";"0";"146";"145";"module.training_block4.exec-2597.GoNoGo4";;;;;;;;;;;;;;;;;;;;;;;;;;;;;;;;;;;;;;;;;;;;;;;;;;;;;;;;;;;"1262";"2014-10-16 13:40:58.332";"NST_correctLoc";"23";"1";"FINISHED";"RIGHT";"success";"300";"0";"2014-10-16 13:40:57.068";"3";;;;;;;;;;;;;;;;;;;;;
"Australia";;;"Windows 7";"Rachel's Experiment (D.T.)";"1.0";"2";"1";"1";"2";"1";"1";"2014-10-16 13:32:47.536";"2014-10-16 13:47:38.144";"1";"1";"0";"147";"146";"module.training_block4.exec-2597.GoNoGo4";;;;;;;;;;;;;;;;;;;;;;;;;;;;;;;;;;;;;;;;;;;;;;;;;;;;;;;;;;;"1261";"2014-10-16 13:41:00.875";"NST_correctLoc";"13";"1";"FINISHED";"RIGHT";"success";"397";"0";"2014-10-16 13:40:59.611";"2";;;;;;;;;;;;;;;;;;;;;
"Australia";;;"Windows 7";"Rachel's Experiment (D.T.)";"1.0";"2";"1";"1";"2";"1";"1";"2014-10-16 13:32:47.536";"2014-10-16 13:47:38.144";"1";"1";"0";"148";"147";"module.training_block4.exec-2597.GoNoGo4";;;;;;;;;;;;;;;;;;;;;;;;;;;;;;;;;;;;;;;;;;;;;;;;;;;;;;;;;;;"1261";"2014-10-16 13:41:03.402";"NST_correctLoc";"22";"0";"FINISHED";"LEFT";"success";"302";"0";"2014-10-16 13:41:02.138";"3";;;;;;;;;;;;;;;;;;;;;
"Australia";;;"Windows 7";"Rachel's Experiment (D.T.)";"1.0";"2";"1";"1";"2";"1";"1";"2014-10-16 13:32:47.536";"2014-10-16 13:47:38.144";"1";"1";"0";"149";"148";"module.training_block4.exec-2597.GoNoGo4";;;;;;;;;;;;;;;;;;;;;;;;;;;;;;;;;;;;;;;;;;;;;;;;;;;;;;;;;;;"1262";"2014-10-16 13:41:05.929";"NST_correctLoc";"16";"1";"FINISHED";"RIGHT";"success";"342";"0";"2014-10-16 13:41:04.665";"2";;;;;;;;;;;;;;;;;;;;;
"Australia";;;"Windows 7";"Rachel's Experiment (D.T.)";"1.0";"2";"1";"1";"2";"1";"1";"2014-10-16 13:32:47.536";"2014-10-16 13:47:38.144";"1";"1";"0";"150";"149";"module.training_block4.exec-2597.GoNoGo4";;;;;;;;;;;;;;;;;;;;;;;;;;;;;;;;;;;;;;;;;;;;;;;;;;;;;;;;;;;"1262";"2014-10-16 13:41:08.488";"NST_correctLoc";"29";"1";"FINISHED";"RIGHT";"success";"432";"0";"2014-10-16 13:41:07.224";"3";;;;;;;;;;;;;;;;;;;;;
"Australia";;;"Windows 7";"Rachel's Experiment (D.T.)";"1.0";"2";"1";"1";"2";"1";"1";"2014-10-16 13:32:47.536";"2014-10-16 13:47:38.144";"1";"1";"0";"151";"150";"module.training_block4.exec-2597.GoNoGo4";;;;;;;;;;;;;;;;;;;;;;;;;;;;;;;;;;;;;;;;;;;;;;;;;;;;;;;;;;;"1262";"2014-10-16 13:41:11.015";"NST_correctLoc";"27";"0";"FINISHED";"LEFT";"success";"393";"0";"2014-10-16 13:41:09.751";"3";;;;;;;;;;;;;;;;;;;;;
"Australia";;;"Windows 7";"Rachel's Experiment (D.T.)";"1.0";"2";"1";"1";"2";"1";"1";"2014-10-16 13:32:47.536";"2014-10-16 13:47:38.144";"1";"1";"0";"152";"151";"module.training_block4.exec-2597.GoNoGo4";;;;;;;;;;;;;;;;;;;;;;;;;;;;;;;;;;;;;;;;;;;;;;;;;;;;;;;;;;;"1261";"2014-10-16 13:41:13.558";"NST_correctLoc";"35";"1";"FINISHED";"RIGHT";"success";"322";"0";"2014-10-16 13:41:12.294";"3";;;;;;;;;;;;;;;;;;;;;
"Australia";;;"Windows 7";"Rachel's Experiment (D.T.)";"1.0";"2";"1";"1";"2";"1";"1";"2014-10-16 13:32:47.536";"2014-10-16 13:47:38.144";"1";"1";"0";"153";"152";"module.training_block4.exec-2597.GoNoGo4";;;;;;;;;;;;;;;;;;;;;;;;;;;;;;;;;;;;;;;;;;;;;;;;;;;;;;;;;;;"1262";"2014-10-16 13:41:16.085";"NST_correctLoc";"10";"0";"FINISHED";"LEFT";"success";"323";"0";"2014-10-16 13:41:14.821";"2";;;;;;;;;;;;;;;;;;;;;
"Australia";;;"Windows 7";"Rachel's Experiment (D.T.)";"1.0";"2";"1";"1";"2";"1";"1";"2014-10-16 13:32:47.536";"2014-10-16 13:47:38.144";"1";"1";"0";"154";"153";"module.training_block4.exec-2597.GoNoGo4";;;;;;;;;;;;;;;;;;;;;;;;;;;;;;;;;;;;;;;;;;;;;;;;;;;;;;;;;;;"1262";"2014-10-16 13:41:18.612";"NST_correctLoc";"14";"0";"FINISHED";"LEFT";"success";"404";"0";"2014-10-16 13:41:17.349";"2";;;;;;;;;;;;;;;;;;;;;
"Australia";;;"Windows 7";"Rachel's Experiment (D.T.)";"1.0";"2";"1";"1";"2";"1";"1";"2014-10-16 13:32:47.536";"2014-10-16 13:47:38.144";"1";"1";"0";"155";"154";"module.training_block4.exec-2597.GoNoGo4";;;;;;;;;;;;;;;;;;;;;;;;;;;;;;;;;;;;;;;;;;;;;;;;;;;;;;;;;;;"1261";"2014-10-16 13:41:21.171";"NST_correctLoc";"9";"1";"FINISHED";"RIGHT";"success";"317";"0";"2014-10-16 13:41:19.907";"2";;;;;;;;;;;;;;;;;;;;;
"Australia";;;"Windows 7";"Rachel's Experiment (D.T.)";"1.0";"2";"1";"1";"2";"1";"1";"2014-10-16 13:32:47.536";"2014-10-16 13:47:38.144";"1";"1";"0";"156";"155";"module.training_block4.exec-2597.GoNoGo4";;;;;;;;;;;;;;;;;;;;;;;;;;;;;;;;;;;;;;;;;;;;;;;;;;;;;;;;;;;"1261";"2014-10-16 13:41:23.698";"NST_correctLoc";"33";"1";"FINISHED";"RIGHT";"success";"390";"0";"2014-10-16 13:41:22.435";"3";;;;;;;;;;;;;;;;;;;;;
"Australia";;;"Windows 7";"Rachel's Experiment (D.T.)";"1.0";"2";"1";"1";"2";"1";"1";"2014-10-16 13:32:47.536";"2014-10-16 13:47:38.144";"1";"1";"0";"157";"156";"module.training_block4.exec-2597.GoNoGo4";;;;;;;;;;;;;;;;;;;;;;;;;;;;;;;;;;;;;;;;;;;;;;;;;;;;;;;;;;;"1262";"2014-10-16 13:41:26.241";"NST_correctLoc";"26";"1";"FINISHED";"RIGHT";"success";"359";"0";"2014-10-16 13:41:24.977";"3";;;;;;;;;;;;;;;;;;;;;
"Australia";;;"Windows 7";"Rachel's Experiment (D.T.)";"1.0";"2";"1";"1";"2";"1";"1";"2014-10-16 13:32:47.536";"2014-10-16 13:47:38.144";"1";"1";"0";"158";"157";"module.training_block4.exec-2597.GoNoGo4";;;;;;;;;;;;;;;;;;;;;;;;;;;;;;;;;;;;;;;;;;;;;;;;;;;;;;;;;;;"1261";"2014-10-16 13:41:28.768";"NST_correctLoc";"17";"0";"FINISHED";"LEFT";"success";"432";"0";"2014-10-16 13:41:27.505";"2";;;;;;;;;;;;;;;;;;;;;
"Australia";;;"Windows 7";"Rachel's Experiment (D.T.)";"1.0";"2";"1";"1";"2";"1";"1";"2014-10-16 13:32:47.536";"2014-10-16 13:47:38.144";"1";"1";"0";"159";"158";"module.training_block4.exec-2597.GoNoGo4";;;;;;;;;;;;;;;;;;;;;;;;;;;;;;;;;;;;;;;;;;;;;;;;;;;;;;;;;;;"1262";"2014-10-16 13:41:31.296";"NST_correctLoc";"12";"1";"FINISHED";"RIGHT";"success";"433";"0";"2014-10-16 13:41:30.032";"2";;;;;;;;;;;;;;;;;;;;;
"Australia";;;"Windows 7";"Rachel's Experiment (D.T.)";"1.0";"2";"1";"1";"2";"1";"1";"2014-10-16 13:32:47.536";"2014-10-16 13:47:38.144";"1";"1";"0";"160";"159";"module.devaluation_practice.exec-1293.devalPractice";;;;;;;;;;;;"24885";"2014-10-16 13:42:34.775";"0";"7";"7";"7";"3513";"4903";"13421";"2014-10-16 13:42:09.892";;;;;;;;;;;;;;;;;;;;;;;;;;;;;;;;;;;;;;;;;;;;;;;;;;;;;;;;;;;;;;;;;;;;;;
"Australia";;;"Windows 7";"Rachel's Experiment (D.T.)";"1.0";"2";"1";"1";"2";"1";"1";"2014-10-16 13:32:47.536";"2014-10-16 13:47:38.144";"1";"1";"0";"161";"160";"module.devaluation_practice.exec-1293.devalPractice";;;;;;;;;;;;"16877";"2014-10-16 13:42:51.686";"1";"3";"2";"6";"7377";"2650";"3808";"2014-10-16 13:42:34.806";;;;;;;;;;;;;;;;;;;;;;;;;;;;;;;;;;;;;;;;;;;;;;;;;;;;;;;;;;;;;;;;;;;;;;
"Australia";;;"Windows 7";"Rachel's Experiment (D.T.)";"1.0";"2";"1";"1";"2";"1";"1";"2014-10-16 13:32:47.536";"2014-10-16 13:47:38.144";"1";"1";"0";"162";"161";"module.devaluation_practice.exec-1293.devalPractice";;;;;;;;;;;;"12645";"2014-10-16 13:43:04.353";"2";"4";"3";"8";"3691";"2045";"3888";"2014-10-16 13:42:51.701";;;;;;;;;;;;;;;;;;;;;;;;;;;;;;;;;;;;;;;;;;;;;;;;;;;;;;;;;;;;;;;;;;;;;;
"Australia";;;"Windows 7";"Rachel's Experiment (D.T.)";"1.0";"2";"1";"1";"2";"1";"1";"2014-10-16 13:32:47.536";"2014-10-16 13:47:38.144";"1";"1";"0";"163";"162";"module.devaluation_practice.exec-1293.devalPractice";;;;;;;;;;;;"10141";"2014-10-16 13:43:14.540";"3";"6";"7";"9";"1933";"2346";"2830";"2014-10-16 13:43:04.400";;;;;;;;;;;;;;;;;;;;;;;;;;;;;;;;;;;;;;;;;;;;;;;;;;;;;;;;;;;;;;;;;;;;;;
"Australia";;;"Windows 7";"Rachel's Experiment (D.T.)";"1.0";"2";"1";"1";"2";"1";"1";"2014-10-16 13:32:47.536";"2014-10-16 13:47:38.144";"1";"1";"0";"164";"163";"module.devaluation_block1.exec-4992.deval1";"13296";"2014-10-16 13:43:33.667";"12";"7";"6";"7";"4582";"2364";"3313";"2014-10-16 13:43:20.375";"2";;;;;;;;;;;;;;;;;;;;;;;;;;;;;;;;;;;;;;;;;;;;;;;;;;;;;;;;;;;;;;;;;;;;;;;;;;;;;;;;
"Australia";;;"Windows 7";"Rachel's Experiment (D.T.)";"1.0";"2";"1";"1";"2";"1";"1";"2014-10-16 13:32:47.536";"2014-10-16 13:47:38.144";"1";"1";"0";"165";"164";"module.devaluation_block1.exec-4992.deval1";"11973";"2014-10-16 13:43:45.664";"8";"4";"2";"6";"3940";"2765";"2246";"2014-10-16 13:43:33.682";"1";;;;;;;;;;;;;;;;;;;;;;;;;;;;;;;;;;;;;;;;;;;;;;;;;;;;;;;;;;;;;;;;;;;;;;;;;;;;;;;;
"Australia";;;"Windows 7";"Rachel's Experiment (D.T.)";"1.0";"2";"1";"1";"2";"1";"1";"2014-10-16 13:32:47.536";"2014-10-16 13:47:38.144";"1";"1";"0";"166";"165";"module.devaluation_block1.exec-4992.deval1";"9883";"2014-10-16 13:43:55.570";"23";"8";"6";"8";"3232";"1687";"1936";"2014-10-16 13:43:45.679";"3";;;;;;;;;;;;;;;;;;;;;;;;;;;;;;;;;;;;;;;;;;;;;;;;;;;;;;;;;;;;;;;;;;;;;;;;;;;;;;;;
"Australia";;;"Windows 7";"Rachel's Experiment (D.T.)";"1.0";"2";"1";"1";"2";"1";"1";"2014-10-16 13:32:47.536";"2014-10-16 13:47:38.144";"1";"1";"0";"167";"166";"module.devaluation_block1.exec-4992.deval1";"9493";"2014-10-16 13:44:05.086";"13";"7";"2";"5";"1750";"1885";"2832";"2014-10-16 13:43:55.586";"2";;;;;;;;;;;;;;;;;;;;;;;;;;;;;;;;;;;;;;;;;;;;;;;;;;;;;;;;;;;;;;;;;;;;;;;;;;;;;;;;
"Australia";;;"Windows 7";"Rachel's Experiment (D.T.)";"1.0";"2";"1";"1";"2";"1";"1";"2014-10-16 13:32:47.536";"2014-10-16 13:47:38.144";"1";"1";"0";"168";"167";"module.devaluation_block1.exec-4992.deval1";"12355";"2014-10-16 13:44:17.458";"16";"4";"2";"4";"2642";"1937";"4746";"2014-10-16 13:44:05.102";"2";;;;;;;;;;;;;;;;;;;;;;;;;;;;;;;;;;;;;;;;;;;;;;;;;;;;;;;;;;;;;;;;;;;;;;;;;;;;;;;;
"Australia";;;"Windows 7";"Rachel's Experiment (D.T.)";"1.0";"2";"1";"1";"2";"1";"1";"2014-10-16 13:32:47.536";"2014-10-16 13:47:38.144";"1";"1";"0";"169";"168";"module.devaluation_block1.exec-4992.deval1";"13892";"2014-10-16 13:44:31.373";"15";"4";"1";"3";"5159";"3837";"1880";"2014-10-16 13:44:17.473";"2";;;;;;;;;;;;;;;;;;;;;;;;;;;;;;;;;;;;;;;;;;;;;;;;;;;;;;;;;;;;;;;;;;;;;;;;;;;;;;;;
"Australia";;;"Windows 7";"Rachel's Experiment (D.T.)";"1.0";"2";"1";"1";"2";"1";"1";"2014-10-16 13:32:47.536";"2014-10-16 13:47:38.144";"1";"1";"0";"170";"169";"module.devaluation_block1.exec-4992.deval1";"7805";"2014-10-16 13:44:39.189";"14";"7";"2";"7";"1868";"1272";"1645";"2014-10-16 13:44:31.389";"2";;;;;;;;;;;;;;;;;;;;;;;;;;;;;;;;;;;;;;;;;;;;;;;;;;;;;;;;;;;;;;;;;;;;;;;;;;;;;;;;
"Australia";;;"Windows 7";"Rachel's Experiment (D.T.)";"1.0";"2";"1";"1";"2";"1";"1";"2014-10-16 13:32:47.536";"2014-10-16 13:47:38.144";"1";"1";"0";"171";"170";"module.devaluation_block1.exec-4992.deval1";"11725";"2014-10-16 13:44:50.937";"0";"4";"3";"7";"5324";"1752";"1626";"2014-10-16 13:44:39.205";"1";;;;;;;;;;;;;;;;;;;;;;;;;;;;;;;;;;;;;;;;;;;;;;;;;;;;;;;;;;;;;;;;;;;;;;;;;;;;;;;;
"Australia";;;"Windows 7";"Rachel's Experiment (D.T.)";"1.0";"2";"1";"1";"2";"1";"1";"2014-10-16 13:32:47.536";"2014-10-16 13:47:38.144";"1";"1";"0";"172";"171";"module.devaluation_block1.exec-4992.deval1";"8668";"2014-10-16 13:44:59.626";"26";"9";"6";"7";"2105";"1829";"1708";"2014-10-16 13:44:50.952";"3";;;;;;;;;;;;;;;;;;;;;;;;;;;;;;;;;;;;;;;;;;;;;;;;;;;;;;;;;;;;;;;;;;;;;;;;;;;;;;;;
"Australia";;;"Windows 7";"Rachel's Experiment (D.T.)";"1.0";"2";"1";"1";"2";"1";"1";"2014-10-16 13:32:47.536";"2014-10-16 13:47:38.144";"1";"1";"0";"173";"172";"module.devaluation_block1.exec-4992.deval1";"9517";"2014-10-16 13:45:09.158";"4";"7";"7";"8";"2752";"1834";"1907";"2014-10-16 13:44:59.642";"1";;;;;;;;;;;;;;;;;;;;;;;;;;;;;;;;;;;;;;;;;;;;;;;;;;;;;;;;;;;;;;;;;;;;;;;;;;;;;;;;
"Australia";;;"Windows 7";"Rachel's Experiment (D.T.)";"1.0";"2";"1";"1";"2";"1";"1";"2014-10-16 13:32:47.536";"2014-10-16 13:47:38.144";"1";"1";"0";"174";"173";"module.devaluation_block1.exec-4992.deval1";"8518";"2014-10-16 13:45:17.707";"1";"3";"2";"6";"1525";"2172";"1793";"2014-10-16 13:45:09.189";"1";;;;;;;;;;;;;;;;;;;;;;;;;;;;;;;;;;;;;;;;;;;;;;;;;;;;;;;;;;;;;;;;;;;;;;;;;;;;;;;;
"Australia";;;"Windows 7";"Rachel's Experiment (D.T.)";"1.0";"2";"1";"1";"2";"1";"1";"2014-10-16 13:32:47.536";"2014-10-16 13:47:38.144";"1";"1";"0";"175";"174";"module.devaluation_block1.exec-4992.deval1";"7773";"2014-10-16 13:45:25.492";"17";"2";"2";"2";"2031";"1087";"1625";"2014-10-16 13:45:17.723";"2";;;;;;;;;;;;;;;;;;;;;;;;;;;;;;;;;;;;;;;;;;;;;;;;;;;;;;;;;;;;;;;;;;;;;;;;;;;;;;;;
"Australia";;;"Windows 7";"Rachel's Experiment (D.T.)";"1.0";"2";"1";"1";"2";"1";"1";"2014-10-16 13:32:47.536";"2014-10-16 13:47:38.144";"1";"1";"0";"176";"175";"module.devaluation_block1.exec-4992.deval1";"8009";"2014-10-16 13:45:33.526";"10";"8";"8";"8";"1775";"1585";"1610";"2014-10-16 13:45:25.523";"2";;;;;;;;;;;;;;;;;;;;;;;;;;;;;;;;;;;;;;;;;;;;;;;;;;;;;;;;;;;;;;;;;;;;;;;;;;;;;;;;
"Australia";;;"Windows 7";"Rachel's Experiment (D.T.)";"1.0";"2";"1";"1";"2";"1";"1";"2014-10-16 13:32:47.536";"2014-10-16 13:47:38.144";"1";"1";"0";"177";"176";"module.devaluation_block1.exec-4992.deval1";"12503";"2014-10-16 13:45:46.054";"3";"3";"4";"5";"5773";"2646";"1055";"2014-10-16 13:45:33.557";"1";;;;;;;;;;;;;;;;;;;;;;;;;;;;;;;;;;;;;;;;;;;;;;;;;;;;;;;;;;;;;;;;;;;;;;;;;;;;;;;;
"Australia";;;"Windows 7";"Rachel's Experiment (D.T.)";"1.0";"2";"1";"1";"2";"1";"1";"2014-10-16 13:32:47.536";"2014-10-16 13:47:38.144";"1";"1";"0";"178";"177";"module.devaluation_block1.exec-4992.deval1";"6829";"2014-10-16 13:45:52.902";"6";"3";"2";"5";"1446";"1585";"784";"2014-10-16 13:45:46.069";"1";;;;;;;;;;;;;;;;;;;;;;;;;;;;;;;;;;;;;;;;;;;;;;;;;;;;;;;;;;;;;;;;;;;;;;;;;;;;;;;;
"Australia";;;"Windows 7";"Rachel's Experiment (D.T.)";"1.0";"2";"1";"1";"2";"1";"1";"2014-10-16 13:32:47.536";"2014-10-16 13:47:38.144";"1";"1";"0";"179";"178";"module.devaluation_block1.exec-4992.deval1";"8868";"2014-10-16 13:46:01.795";"21";"8";"6";"7";"2238";"1846";"1756";"2014-10-16 13:45:52.933";"3";;;;;;;;;;;;;;;;;;;;;;;;;;;;;;;;;;;;;;;;;;;;;;;;;;;;;;;;;;;;;;;;;;;;;;;;;;;;;;;;
"Australia";;;"Windows 7";"Rachel's Experiment (D.T.)";"1.0";"2";"1";"1";"2";"1";"1";"2014-10-16 13:32:47.536";"2014-10-16 13:47:38.144";"1";"1";"0";"180";"179";"module.devaluation_block1.exec-4992.deval1";"8197";"2014-10-16 13:46:10.016";"24";"4";"2";"5";"1402";"1560";"2211";"2014-10-16 13:46:01.810";"3";;;;;;;;;;;;;;;;;;;;;;;;;;;;;;;;;;;;;;;;;;;;;;;;;;;;;;;;;;;;;;;;;;;;;;;;;;;;;;;;
"Australia";;;"Windows 7";"Rachel's Experiment (D.T.)";"1.0";"2";"1";"1";"2";"1";"1";"2014-10-16 13:32:47.536";"2014-10-16 13:47:38.144";"1";"1";"0";"181";"180";"module.devaluation_block1.exec-4992.deval1";"9352";"2014-10-16 13:46:19.392";"5";"4";"2";"6";"2492";"1483";"2361";"2014-10-16 13:46:10.032";"1";;;;;;;;;;;;;;;;;;;;;;;;;;;;;;;;;;;;;;;;;;;;;;;;;;;;;;;;;;;;;;;;;;;;;;;;;;;;;;;;
"Australia";;;"Windows 7";"Rachel's Experiment (D.T.)";"1.0";"2";"1";"1";"2";"1";"1";"2014-10-16 13:32:47.536";"2014-10-16 13:47:38.144";"1";"1";"0";"182";"181";"module.devaluation_block1.exec-4992.deval1";"10292";"2014-10-16 13:46:29.704";"18";"3";"2";"4";"2292";"1873";"3093";"2014-10-16 13:46:19.408";"3";;;;;;;;;;;;;;;;;;;;;;;;;;;;;;;;;;;;;;;;;;;;;;;;;;;;;;;;;;;;;;;;;;;;;;;;;;;;;;;;
"Australia";;;"Windows 7";"Rachel's Experiment (D.T.)";"1.0";"2";"1";"1";"2";"1";"1";"2014-10-16 13:32:47.536";"2014-10-16 13:47:38.144";"1";"1";"0";"183";"182";"module.devaluation_block1.exec-4992.deval1";"8229";"2014-10-16 13:46:37.957";"20";"4";"3";"6";"1693";"2649";"870";"2014-10-16 13:46:29.735";"3";;;;;;;;;;;;;;;;;;;;;;;;;;;;;;;;;;;;;;;;;;;;;;;;;;;;;;;;;;;;;;;;;;;;;;;;;;;;;;;;
"Australia";;;"Windows 7";"Rachel's Experiment (D.T.)";"1.0";"2";"1";"1";"2";"1";"1";"2014-10-16 13:32:47.536";"2014-10-16 13:47:38.144";"1";"1";"0";"184";"183";"module.devaluation_block1.exec-4992.deval1";"6874";"2014-10-16 13:46:44.883";"9";"6";"6";"6";"913";"1527";"1414";"2014-10-16 13:46:38.003";"2";;;;;;;;;;;;;;;;;;;;;;;;;;;;;;;;;;;;;;;;;;;;;;;;;;;;;;;;;;;;;;;;;;;;;;;;;;;;;;;;
"Australia";;;"Windows 7";"Rachel's Experiment (D.T.)";"1.0";"2";"1";"1";"2";"1";"1";"2014-10-16 13:32:47.536";"2014-10-16 13:47:38.144";"1";"1";"0";"185";"184";"module.devaluation_block1.exec-4992.deval1";"8133";"2014-10-16 13:46:53.027";"25";"6";"2";"7";"1730";"1645";"1724";"2014-10-16 13:46:44.899";"3";;;;;;;;;;;;;;;;;;;;;;;;;;;;;;;;;;;;;;;;;;;;;;;;;;;;;;;;;;;;;;;;;;;;;;;;;;;;;;;;
"Australia";;;"Windows 7";"Rachel's Experiment (D.T.)";"1.0";"2";"1";"1";"2";"1";"1";"2014-10-16 13:32:47.536";"2014-10-16 13:47:38.144";"1";"1";"0";"186";"185";"module.devaluation_block1.exec-4992.deval1";"10333";"2014-10-16 13:47:03.386";"11";"5";"2";"3";"3683";"1732";"1894";"2014-10-16 13:46:53.042";"2";;;;;;;;;;;;;;;;;;;;;;;;;;;;;;;;;;;;;;;;;;;;;;;;;;;;;;;;;;;;;;;;;;;;;;;;;;;;;;;;
"Australia";;;"Windows 7";"Rachel's Experiment (D.T.)";"1.0";"2";"1";"1";"2";"1";"1";"2014-10-16 13:32:47.536";"2014-10-16 13:47:38.144";"1";"1";"0";"187";"186";"module.devaluation_block1.exec-4992.deval1";"8260";"2014-10-16 13:47:11.654";"2";"4";"4";"5";"1628";"1510";"2099";"2014-10-16 13:47:03.401";"1";;;;;;;;;;;;;;;;;;;;;;;;;;;;;;;;;;;;;;;;;;;;;;;;;;;;;;;;;;;;;;;;;;;;;;;;;;;;;;;;
"Australia";;;"Windows 7";"Rachel's Experiment (D.T.)";"1.0";"2";"1";"1";"2";"1";"1";"2014-10-16 13:32:47.536";"2014-10-16 13:47:38.144";"1";"1";"0";"188";"187";"module.devaluation_block1.exec-4992.deval1";"8448";"2014-10-16 13:47:20.141";"22";"7";"2";"5";"1945";"1839";"1647";"2014-10-16 13:47:11.685";"3";;;;;;;;;;;;;;;;;;;;;;;;;;;;;;;;;;;;;;;;;;;;;;;;;;;;;;;;;;;;;;;;;;;;;;;;;;;;;;;;
"Australia";;;"Windows 7";"Rachel's Experiment (D.T.)";"1.0";"2";"1";"1";"2";"1";"1";"2014-10-16 13:32:47.536";"2014-10-16 13:47:38.144";"1";"1";"0";"189";"188";"module.devaluation_block1.exec-4992.deval1";"8171";"2014-10-16 13:47:28.347";"19";"5";"2";"4";"1690";"1451";"2002";"2014-10-16 13:47:20.172";"3";;;;;;;;;;;;;;;;;;;;;;;;;;;;;;;;;;;;;;;;;;;;;;;;;;;;;;;;;;;;;;;;;;;;;;;;;;;;;;;;
"Australia";;;"Windows 7";"Rachel's Experiment (D.T.)";"1.0";"2";"1";"1";"2";"1";"1";"2014-10-16 13:32:47.536";"2014-10-16 13:47:38.144";"1";"1";"0";"190";"189";"module.devaluation_block1.exec-4992.deval1";"7621";"2014-10-16 13:47:35.975";"7";"4";"2";"6";"1604";"1322";"1658";"2014-10-16 13:47:28.362";"1";;;;;;;;;;;;;;;;;;;;;;;;;;;;;;;;;;;;;;;;;;;;;;;;;;;;;;;;;;;;;;;;;;;;;;;;;;;;;;;;
