"user.name";"user.yearOfBirth";"user.sex";"user.osName";"module.name";"module.version";"module.online.subject.code";"module.online.study.id";"module.online.module.nr";"module.online.group.nr";"session.id";"session.index";"session.startTime";"session.endTime";"session.completed";"session.node-5313.conditionType";"session.node-9982.DevalQorder";"trial.id";"trial.index";"trial.name";"trial.deval1.durationTime";"trial.deval1.endTime";"trial.deval1.icon";"trial.deval1.Resp_Attractive";"trial.deval1.Resp_Eat";"trial.deval1.Resp_Taste";"trial.deval1.RT_Attractive";"trial.deval1.RT_Eat";"trial.deval1.RT_Taste";"trial.deval1.startTime";"trial.deval1.stimulus type";"trial.devalPractice.durationTime";"trial.devalPractice.endTime";"trial.devalPractice.icon";"trial.devalPractice.Resp_Attractive";"trial.devalPractice.Resp_Eat";"trial.devalPractice.Resp_Taste";"trial.devalPractice.RT_Attractive";"trial.devalPractice.RT_Eat";"trial.devalPractice.RT_Taste";"trial.devalPractice.startTime";"trial.devalPractice.stimulus type";"trial.GoNoGo1.durationTime";"trial.GoNoGo1.endTime";"trial.GoNoGo1.Error Type";"trial.GoNoGo1.icon";"trial.GoNoGo1.location";"trial.GoNoGo1.outcome";"trial.GoNoGo1.response";"trial.GoNoGo1.result";"trial.GoNoGo1.RT";"trial.GoNoGo1.signal";"trial.GoNoGo1.startTime";"trial.GoNoGo1.stimulus type";"trial.GoNoGo2.durationTime";"trial.GoNoGo2.endTime";"trial.GoNoGo2.Error Type";"trial.GoNoGo2.icon";"trial.GoNoGo2.location";"trial.GoNoGo2.outcome";"trial.GoNoGo2.response";"trial.GoNoGo2.result";"trial.GoNoGo2.RT";"trial.GoNoGo2.signal";"trial.GoNoGo2.startTime";"trial.GoNoGo2.stimulus type";"trial.GoNoGo3.durationTime";"trial.GoNoGo3.endTime";"trial.GoNoGo3.Error Type";"trial.GoNoGo3.icon";"trial.GoNoGo3.location";"trial.GoNoGo3.outcome";"trial.GoNoGo3.response";"trial.GoNoGo3.result";"trial.GoNoGo3.RT";"trial.GoNoGo3.signal";"trial.GoNoGo3.startTime";"trial.GoNoGo3.stimulus type";"trial.GoNoGo4.durationTime";"trial.GoNoGo4.endTime";"trial.GoNoGo4.Error Type";"trial.GoNoGo4.icon";"trial.GoNoGo4.location";"trial.GoNoGo4.outcome";"trial.GoNoGo4.response";"trial.GoNoGo4.result";"trial.GoNoGo4.RT";"trial.GoNoGo4.signal";"trial.GoNoGo4.startTime";"trial.GoNoGo4.stimulus type";"trial.GoNoGo_Practice.durationTime";"trial.GoNoGo_Practice.endTime";"trial.GoNoGo_Practice.icon";"trial.GoNoGo_Practice.location";"trial.GoNoGo_Practice.outcome";"trial.GoNoGo_Practice.response";"trial.GoNoGo_Practice.result";"trial.GoNoGo_Practice.RT";"trial.GoNoGo_Practice.signal";"trial.GoNoGo_Practice.startTime";"trial.GoNoGo_Practice.stimulus type";"trial.GoNoGo_Tutorial.durationTime";"trial.GoNoGo_Tutorial.endTime";"trial.GoNoGo_Tutorial.icon";"trial.GoNoGo_Tutorial.location";"trial.GoNoGo_Tutorial.outcome";"trial.GoNoGo_Tutorial.response";"trial.GoNoGo_Tutorial.result";"trial.GoNoGo_Tutorial.RT";"trial.GoNoGo_Tutorial.signal";"trial.GoNoGo_Tutorial.startTime"
"AvillN";"1995";;"Windows 7";"Rachel's Experiment (D.T.)";"1.0";"2";"1";"1";"2";"1";"1";"2014-10-15 18:09:08.379";"2014-10-15 18:22:07.359";"1";"1";"1";"1";"0";"module.GoNoGotutorial.exec-3855.GoNoGo_Tutorial";;;;;;;;;;;;;;;;;;;;;;;;;;;;;;;;;;;;;;;;;;;;;;;;;;;;;;;;;;;;;;;;;;;;;;;;;;;;;;;;;;"4000";"2014-10-15 18:10:07.001";"leftResponse";"0";"FINISHED";"LEFT";"success";"2257";"0";"2014-10-15 18:10:03.000"
"AvillN";"1995";;"Windows 7";"Rachel's Experiment (D.T.)";"1.0";"2";"1";"1";"2";"1";"1";"2014-10-15 18:09:08.379";"2014-10-15 18:22:07.359";"1";"1";"1";"2";"1";"module.GoNoGotutorial.exec-3855.GoNoGo_Tutorial";;;;;;;;;;;;;;;;;;;;;;;;;;;;;;;;;;;;;;;;;;;;;;;;;;;;;;;;;;;;;;;;;;;;;;;;;;;;;;;;;;"4001";"2014-10-15 18:10:12.322";"rightResponse";"1";"FINISHED";"RIGHT";"success";"1121";"0";"2014-10-15 18:10:08.322"
"AvillN";"1995";;"Windows 7";"Rachel's Experiment (D.T.)";"1.0";"2";"1";"1";"2";"1";"1";"2014-10-15 18:09:08.379";"2014-10-15 18:22:07.359";"1";"1";"1";"3";"2";"module.GoNoGotutorial.exec-3855.GoNoGo_Tutorial";;;;;;;;;;;;;;;;;;;;;;;;;;;;;;;;;;;;;;;;;;;;;;;;;;;;;;;;;;;;;;;;;;;;;;;;;;;;;;;;;;"4000";"2014-10-15 18:10:17.898";"signalResponse";"0";"FINISHED";"NONE";"success";"0";"1";"2014-10-15 18:10:13.898"
"AvillN";"1995";;"Windows 7";"Rachel's Experiment (D.T.)";"1.0";"2";"1";"1";"2";"1";"1";"2014-10-15 18:09:08.379";"2014-10-15 18:22:07.359";"1";"1";"1";"4";"3";"module.GoNoGopractice.exec-5993.GoNoGo_Practice";;;;;;;;;;;;;;;;;;;;;;;;;;;;;;;;;;;;;;;;;;;;;;;;;;;;;;;;;;;;;;;;;;;;;;;"1956";"2014-10-15 18:10:27.499";"18";"0";"FINISHED";"LEFT";"success";"503";"0";"2014-10-15 18:10:25.542";"3";;;;;;;;;;
"AvillN";"1995";;"Windows 7";"Rachel's Experiment (D.T.)";"1.0";"2";"1";"1";"2";"1";"1";"2014-10-15 18:09:08.379";"2014-10-15 18:22:07.359";"1";"1";"1";"5";"4";"module.GoNoGopractice.exec-5993.GoNoGo_Practice";;;;;;;;;;;;;;;;;;;;;;;;;;;;;;;;;;;;;;;;;;;;;;;;;;;;;;;;;;;;;;;;;;;;;;;"1951";"2014-10-15 18:10:30.762";"21";"1";"FINISHED";"RIGHT";"success";"408";"0";"2014-10-15 18:10:28.811";"3";;;;;;;;;;
"AvillN";"1995";;"Windows 7";"Rachel's Experiment (D.T.)";"1.0";"2";"1";"1";"2";"1";"1";"2014-10-15 18:09:08.379";"2014-10-15 18:22:07.359";"1";"1";"1";"6";"5";"module.GoNoGopractice.exec-5993.GoNoGo_Practice";;;;;;;;;;;;;;;;;;;;;;;;;;;;;;;;;;;;;;;;;;;;;;;;;;;;;;;;;;;;;;;;;;;;;;;"1955";"2014-10-15 18:10:34.034";"14";"1";"FINISHED";"NONE";"success";"0";"1";"2014-10-15 18:10:32.078";"2";;;;;;;;;;
"AvillN";"1995";;"Windows 7";"Rachel's Experiment (D.T.)";"1.0";"2";"1";"1";"2";"1";"1";"2014-10-15 18:09:08.379";"2014-10-15 18:22:07.359";"1";"1";"1";"7";"6";"module.GoNoGopractice.exec-5993.GoNoGo_Practice";;;;;;;;;;;;;;;;;;;;;;;;;;;;;;;;;;;;;;;;;;;;;;;;;;;;;;;;;;;;;;;;;;;;;;;"1951";"2014-10-15 18:10:37.298";"26";"0";"FINISHED";"LEFT";"success";"819";"0";"2014-10-15 18:10:35.347";"3";;;;;;;;;;
"AvillN";"1995";;"Windows 7";"Rachel's Experiment (D.T.)";"1.0";"2";"1";"1";"2";"1";"1";"2014-10-15 18:09:08.379";"2014-10-15 18:22:07.359";"1";"1";"1";"8";"7";"module.GoNoGopractice.exec-5993.GoNoGo_Practice";;;;;;;;;;;;;;;;;;;;;;;;;;;;;;;;;;;;;;;;;;;;;;;;;;;;;;;;;;;;;;;;;;;;;;;"1951";"2014-10-15 18:10:40.559";"2";"0";"FINISHED";"LEFT";"success";"595";"0";"2014-10-15 18:10:38.608";"1";;;;;;;;;;
"AvillN";"1995";;"Windows 7";"Rachel's Experiment (D.T.)";"1.0";"2";"1";"1";"2";"1";"1";"2014-10-15 18:09:08.379";"2014-10-15 18:22:07.359";"1";"1";"1";"9";"8";"module.GoNoGopractice.exec-5993.GoNoGo_Practice";;;;;;;;;;;;;;;;;;;;;;;;;;;;;;;;;;;;;;;;;;;;;;;;;;;;;;;;;;;;;;;;;;;;;;;"1955";"2014-10-15 18:10:43.827";"30";"0";"FINISHED";"LEFT";"failure";"427";"1";"2014-10-15 18:10:41.871";"3";;;;;;;;;;
"AvillN";"1995";;"Windows 7";"Rachel's Experiment (D.T.)";"1.0";"2";"1";"1";"2";"1";"1";"2014-10-15 18:09:08.379";"2014-10-15 18:22:07.359";"1";"1";"1";"10";"9";"module.GoNoGopractice.exec-5993.GoNoGo_Practice";;;;;;;;;;;;;;;;;;;;;;;;;;;;;;;;;;;;;;;;;;;;;;;;;;;;;;;;;;;;;;;;;;;;;;;"1951";"2014-10-15 18:10:47.085";"6";"1";"FINISHED";"NONE";"success";"0";"1";"2014-10-15 18:10:45.134";"1";;;;;;;;;;
"AvillN";"1995";;"Windows 7";"Rachel's Experiment (D.T.)";"1.0";"2";"1";"1";"2";"1";"1";"2014-10-15 18:09:08.379";"2014-10-15 18:22:07.359";"1";"1";"1";"11";"10";"module.GoNoGopractice.exec-5993.GoNoGo_Practice";;;;;;;;;;;;;;;;;;;;;;;;;;;;;;;;;;;;;;;;;;;;;;;;;;;;;;;;;;;;;;;;;;;;;;;"1951";"2014-10-15 18:10:50.343";"34";"0";"FINISHED";"LEFT";"success";"572";"0";"2014-10-15 18:10:48.392";"3";;;;;;;;;;
"AvillN";"1995";;"Windows 7";"Rachel's Experiment (D.T.)";"1.0";"2";"1";"1";"2";"1";"1";"2014-10-15 18:09:08.379";"2014-10-15 18:22:07.359";"1";"1";"1";"12";"11";"module.GoNoGopractice.exec-5993.GoNoGo_Practice";;;;;;;;;;;;;;;;;;;;;;;;;;;;;;;;;;;;;;;;;;;;;;;;;;;;;;;;;;;;;;;;;;;;;;;"1950";"2014-10-15 18:10:53.683";"23";"1";"FINISHED";"RIGHT";"success";"421";"0";"2014-10-15 18:10:51.732";"3";;;;;;;;;;
"AvillN";"1995";;"Windows 7";"Rachel's Experiment (D.T.)";"1.0";"2";"1";"1";"2";"1";"1";"2014-10-15 18:09:08.379";"2014-10-15 18:22:07.359";"1";"1";"1";"13";"12";"module.GoNoGopractice.exec-5993.GoNoGo_Practice";;;;;;;;;;;;;;;;;;;;;;;;;;;;;;;;;;;;;;;;;;;;;;;;;;;;;;;;;;;;;;;;;;;;;;;"1952";"2014-10-15 18:10:56.942";"13";"0";"FINISHED";"NONE";"success";"0";"1";"2014-10-15 18:10:54.990";"2";;;;;;;;;;
"AvillN";"1995";;"Windows 7";"Rachel's Experiment (D.T.)";"1.0";"2";"1";"1";"2";"1";"1";"2014-10-15 18:09:08.379";"2014-10-15 18:22:07.359";"1";"1";"1";"14";"13";"module.GoNoGopractice.exec-5993.GoNoGo_Practice";;;;;;;;;;;;;;;;;;;;;;;;;;;;;;;;;;;;;;;;;;;;;;;;;;;;;;;;;;;;;;;;;;;;;;;"1951";"2014-10-15 18:11:00.217";"3";"1";"FINISHED";"RIGHT";"success";"470";"0";"2014-10-15 18:10:58.266";"1";;;;;;;;;;
"AvillN";"1995";;"Windows 7";"Rachel's Experiment (D.T.)";"1.0";"2";"1";"1";"2";"1";"1";"2014-10-15 18:09:08.379";"2014-10-15 18:22:07.359";"1";"1";"1";"15";"14";"module.GoNoGopractice.exec-5993.GoNoGo_Practice";;;;;;;;;;;;;;;;;;;;;;;;;;;;;;;;;;;;;;;;;;;;;;;;;;;;;;;;;;;;;;;;;;;;;;;"1950";"2014-10-15 18:11:03.476";"27";"1";"FINISHED";"RIGHT";"failure";"431";"1";"2014-10-15 18:11:01.525";"3";;;;;;;;;;
"AvillN";"1995";;"Windows 7";"Rachel's Experiment (D.T.)";"1.0";"2";"1";"1";"2";"1";"1";"2014-10-15 18:09:08.379";"2014-10-15 18:22:07.359";"1";"1";"1";"16";"15";"module.training_block1.exec-9408.GoNoGo1";;;;;;;;;;;;;;;;;;;;;;;"1250";"2014-10-15 18:11:13.100";"NST_correctLoc";"30";"0";"FINISHED";"LEFT";"success";"552";"0";"2014-10-15 18:11:11.850";"3";;;;;;;;;;;;;;;;;;;;;;;;;;;;;;;;;;;;;;;;;;;;;;;;;;;;;;;;;
"AvillN";"1995";;"Windows 7";"Rachel's Experiment (D.T.)";"1.0";"2";"1";"1";"2";"1";"1";"2014-10-15 18:09:08.379";"2014-10-15 18:22:07.359";"1";"1";"1";"17";"16";"module.training_block1.exec-9408.GoNoGo1";;;;;;;;;;;;;;;;;;;;;;;"1250";"2014-10-15 18:11:15.667";"ST_correctStop";"1";"1";"FINISHED";"NONE";"success";"0";"1";"2014-10-15 18:11:14.417";"1";;;;;;;;;;;;;;;;;;;;;;;;;;;;;;;;;;;;;;;;;;;;;;;;;;;;;;;;;
"AvillN";"1995";;"Windows 7";"Rachel's Experiment (D.T.)";"1.0";"2";"1";"1";"2";"1";"1";"2014-10-15 18:09:08.379";"2014-10-15 18:22:07.359";"1";"1";"1";"18";"17";"module.training_block1.exec-9408.GoNoGo1";;;;;;;;;;;;;;;;;;;;;;;"1249";"2014-10-15 18:11:18.224";"ST_failedStop";"28";"1";"FINISHED";"RIGHT";"failure";"689";"1";"2014-10-15 18:11:16.974";"3";;;;;;;;;;;;;;;;;;;;;;;;;;;;;;;;;;;;;;;;;;;;;;;;;;;;;;;;;
"AvillN";"1995";;"Windows 7";"Rachel's Experiment (D.T.)";"1.0";"2";"1";"1";"2";"1";"1";"2014-10-15 18:09:08.379";"2014-10-15 18:22:07.359";"1";"1";"1";"19";"18";"module.training_block1.exec-9408.GoNoGo1";;;;;;;;;;;;;;;;;;;;;;;"1249";"2014-10-15 18:11:20.795";"NST_correctLoc";"31";"1";"FINISHED";"RIGHT";"success";"687";"0";"2014-10-15 18:11:19.545";"3";;;;;;;;;;;;;;;;;;;;;;;;;;;;;;;;;;;;;;;;;;;;;;;;;;;;;;;;;
"AvillN";"1995";;"Windows 7";"Rachel's Experiment (D.T.)";"1.0";"2";"1";"1";"2";"1";"1";"2014-10-15 18:09:08.379";"2014-10-15 18:22:07.359";"1";"1";"1";"20";"19";"module.training_block1.exec-9408.GoNoGo1";;;;;;;;;;;;;;;;;;;;;;;"1249";"2014-10-15 18:11:23.355";"NST_correctLoc";"9";"0";"FINISHED";"LEFT";"success";"744";"0";"2014-10-15 18:11:22.105";"2";;;;;;;;;;;;;;;;;;;;;;;;;;;;;;;;;;;;;;;;;;;;;;;;;;;;;;;;;
"AvillN";"1995";;"Windows 7";"Rachel's Experiment (D.T.)";"1.0";"2";"1";"1";"2";"1";"1";"2014-10-15 18:09:08.379";"2014-10-15 18:22:07.359";"1";"1";"1";"21";"20";"module.training_block1.exec-9408.GoNoGo1";;;;;;;;;;;;;;;;;;;;;;;"1249";"2014-10-15 18:11:25.915";"NST_correctLoc";"12";"1";"FINISHED";"RIGHT";"success";"395";"0";"2014-10-15 18:11:24.665";"2";;;;;;;;;;;;;;;;;;;;;;;;;;;;;;;;;;;;;;;;;;;;;;;;;;;;;;;;;
"AvillN";"1995";;"Windows 7";"Rachel's Experiment (D.T.)";"1.0";"2";"1";"1";"2";"1";"1";"2014-10-15 18:09:08.379";"2014-10-15 18:22:07.359";"1";"1";"1";"22";"21";"module.training_block1.exec-9408.GoNoGo1";;;;;;;;;;;;;;;;;;;;;;;"1249";"2014-10-15 18:11:28.482";"ST_correctStop";"7";"0";"FINISHED";"NONE";"success";"0";"1";"2014-10-15 18:11:27.232";"1";;;;;;;;;;;;;;;;;;;;;;;;;;;;;;;;;;;;;;;;;;;;;;;;;;;;;;;;;
"AvillN";"1995";;"Windows 7";"Rachel's Experiment (D.T.)";"1.0";"2";"1";"1";"2";"1";"1";"2014-10-15 18:09:08.379";"2014-10-15 18:22:07.359";"1";"1";"1";"23";"22";"module.training_block1.exec-9408.GoNoGo1";;;;;;;;;;;;;;;;;;;;;;;"1249";"2014-10-15 18:11:31.039";"ST_correctStop";"8";"0";"FINISHED";"NONE";"success";"0";"1";"2014-10-15 18:11:29.788";"1";;;;;;;;;;;;;;;;;;;;;;;;;;;;;;;;;;;;;;;;;;;;;;;;;;;;;;;;;
"AvillN";"1995";;"Windows 7";"Rachel's Experiment (D.T.)";"1.0";"2";"1";"1";"2";"1";"1";"2014-10-15 18:09:08.379";"2014-10-15 18:22:07.359";"1";"1";"1";"24";"23";"module.training_block1.exec-9408.GoNoGo1";;;;;;;;;;;;;;;;;;;;;;;"1249";"2014-10-15 18:11:33.591";"ST_correctStop";"3";"0";"FINISHED";"NONE";"success";"0";"1";"2014-10-15 18:11:32.341";"1";;;;;;;;;;;;;;;;;;;;;;;;;;;;;;;;;;;;;;;;;;;;;;;;;;;;;;;;;
"AvillN";"1995";;"Windows 7";"Rachel's Experiment (D.T.)";"1.0";"2";"1";"1";"2";"1";"1";"2014-10-15 18:09:08.379";"2014-10-15 18:22:07.359";"1";"1";"1";"25";"24";"module.training_block1.exec-9408.GoNoGo1";;;;;;;;;;;;;;;;;;;;;;;"1249";"2014-10-15 18:11:36.202";"ST_correctStop";"29";"0";"FINISHED";"NONE";"success";"0";"1";"2014-10-15 18:11:34.952";"3";;;;;;;;;;;;;;;;;;;;;;;;;;;;;;;;;;;;;;;;;;;;;;;;;;;;;;;;;
"AvillN";"1995";;"Windows 7";"Rachel's Experiment (D.T.)";"1.0";"2";"1";"1";"2";"1";"1";"2014-10-15 18:09:08.379";"2014-10-15 18:22:07.359";"1";"1";"1";"26";"25";"module.training_block1.exec-9408.GoNoGo1";;;;;;;;;;;;;;;;;;;;;;;"1249";"2014-10-15 18:11:38.760";"ST_correctStop";"18";"1";"FINISHED";"NONE";"success";"0";"1";"2014-10-15 18:11:37.510";"3";;;;;;;;;;;;;;;;;;;;;;;;;;;;;;;;;;;;;;;;;;;;;;;;;;;;;;;;;
"AvillN";"1995";;"Windows 7";"Rachel's Experiment (D.T.)";"1.0";"2";"1";"1";"2";"1";"1";"2014-10-15 18:09:08.379";"2014-10-15 18:22:07.359";"1";"1";"1";"27";"26";"module.training_block1.exec-9408.GoNoGo1";;;;;;;;;;;;;;;;;;;;;;;"1249";"2014-10-15 18:11:41.310";"NST_correctLoc";"21";"1";"FINISHED";"RIGHT";"success";"574";"0";"2014-10-15 18:11:40.060";"3";;;;;;;;;;;;;;;;;;;;;;;;;;;;;;;;;;;;;;;;;;;;;;;;;;;;;;;;;
"AvillN";"1995";;"Windows 7";"Rachel's Experiment (D.T.)";"1.0";"2";"1";"1";"2";"1";"1";"2014-10-15 18:09:08.379";"2014-10-15 18:22:07.359";"1";"1";"1";"28";"27";"module.training_block1.exec-9408.GoNoGo1";;;;;;;;;;;;;;;;;;;;;;;"1249";"2014-10-15 18:11:43.876";"NST_correctLoc";"14";"0";"FINISHED";"LEFT";"success";"424";"0";"2014-10-15 18:11:42.626";"2";;;;;;;;;;;;;;;;;;;;;;;;;;;;;;;;;;;;;;;;;;;;;;;;;;;;;;;;;
"AvillN";"1995";;"Windows 7";"Rachel's Experiment (D.T.)";"1.0";"2";"1";"1";"2";"1";"1";"2014-10-15 18:09:08.379";"2014-10-15 18:22:07.359";"1";"1";"1";"29";"28";"module.training_block1.exec-9408.GoNoGo1";;;;;;;;;;;;;;;;;;;;;;;"1250";"2014-10-15 18:11:46.441";"ST_correctStop";"19";"1";"FINISHED";"NONE";"success";"0";"1";"2014-10-15 18:11:45.191";"3";;;;;;;;;;;;;;;;;;;;;;;;;;;;;;;;;;;;;;;;;;;;;;;;;;;;;;;;;
"AvillN";"1995";;"Windows 7";"Rachel's Experiment (D.T.)";"1.0";"2";"1";"1";"2";"1";"1";"2014-10-15 18:09:08.379";"2014-10-15 18:22:07.359";"1";"1";"1";"30";"29";"module.training_block1.exec-9408.GoNoGo1";;;;;;;;;;;;;;;;;;;;;;;"1250";"2014-10-15 18:11:49.005";"NST_correctLoc";"17";"1";"FINISHED";"RIGHT";"success";"694";"0";"2014-10-15 18:11:47.754";"2";;;;;;;;;;;;;;;;;;;;;;;;;;;;;;;;;;;;;;;;;;;;;;;;;;;;;;;;;
"AvillN";"1995";;"Windows 7";"Rachel's Experiment (D.T.)";"1.0";"2";"1";"1";"2";"1";"1";"2014-10-15 18:09:08.379";"2014-10-15 18:22:07.359";"1";"1";"1";"31";"30";"module.training_block1.exec-9408.GoNoGo1";;;;;;;;;;;;;;;;;;;;;;;"1249";"2014-10-15 18:11:51.563";"NST_correctLoc";"25";"1";"FINISHED";"RIGHT";"success";"485";"0";"2014-10-15 18:11:50.313";"3";;;;;;;;;;;;;;;;;;;;;;;;;;;;;;;;;;;;;;;;;;;;;;;;;;;;;;;;;
"AvillN";"1995";;"Windows 7";"Rachel's Experiment (D.T.)";"1.0";"2";"1";"1";"2";"1";"1";"2014-10-15 18:09:08.379";"2014-10-15 18:22:07.359";"1";"1";"1";"32";"31";"module.training_block1.exec-9408.GoNoGo1";;;;;;;;;;;;;;;;;;;;;;;"1249";"2014-10-15 18:11:54.115";"NST_correctLoc";"13";"1";"FINISHED";"RIGHT";"success";"589";"0";"2014-10-15 18:11:52.865";"2";;;;;;;;;;;;;;;;;;;;;;;;;;;;;;;;;;;;;;;;;;;;;;;;;;;;;;;;;
"AvillN";"1995";;"Windows 7";"Rachel's Experiment (D.T.)";"1.0";"2";"1";"1";"2";"1";"1";"2014-10-15 18:09:08.379";"2014-10-15 18:22:07.359";"1";"1";"1";"33";"32";"module.training_block1.exec-9408.GoNoGo1";;;;;;;;;;;;;;;;;;;;;;;"1249";"2014-10-15 18:11:56.701";"ST_failedStop";"24";"0";"FINISHED";"LEFT";"failure";"587";"1";"2014-10-15 18:11:55.451";"3";;;;;;;;;;;;;;;;;;;;;;;;;;;;;;;;;;;;;;;;;;;;;;;;;;;;;;;;;
"AvillN";"1995";;"Windows 7";"Rachel's Experiment (D.T.)";"1.0";"2";"1";"1";"2";"1";"1";"2014-10-15 18:09:08.379";"2014-10-15 18:22:07.359";"1";"1";"1";"34";"33";"module.training_block1.exec-9408.GoNoGo1";;;;;;;;;;;;;;;;;;;;;;;"1249";"2014-10-15 18:11:59.262";"NST_correctLoc";"15";"0";"FINISHED";"LEFT";"success";"370";"0";"2014-10-15 18:11:58.012";"2";;;;;;;;;;;;;;;;;;;;;;;;;;;;;;;;;;;;;;;;;;;;;;;;;;;;;;;;;
"AvillN";"1995";;"Windows 7";"Rachel's Experiment (D.T.)";"1.0";"2";"1";"1";"2";"1";"1";"2014-10-15 18:09:08.379";"2014-10-15 18:22:07.359";"1";"1";"1";"35";"34";"module.training_block1.exec-9408.GoNoGo1";;;;;;;;;;;;;;;;;;;;;;;"1250";"2014-10-15 18:12:01.822";"ST_correctStop";"23";"0";"FINISHED";"NONE";"success";"0";"1";"2014-10-15 18:12:00.572";"3";;;;;;;;;;;;;;;;;;;;;;;;;;;;;;;;;;;;;;;;;;;;;;;;;;;;;;;;;
"AvillN";"1995";;"Windows 7";"Rachel's Experiment (D.T.)";"1.0";"2";"1";"1";"2";"1";"1";"2014-10-15 18:09:08.379";"2014-10-15 18:22:07.359";"1";"1";"1";"36";"35";"module.training_block1.exec-9408.GoNoGo1";;;;;;;;;;;;;;;;;;;;;;;"1249";"2014-10-15 18:12:04.376";"NST_correctLoc";"16";"1";"FINISHED";"RIGHT";"success";"502";"0";"2014-10-15 18:12:03.126";"2";;;;;;;;;;;;;;;;;;;;;;;;;;;;;;;;;;;;;;;;;;;;;;;;;;;;;;;;;
"AvillN";"1995";;"Windows 7";"Rachel's Experiment (D.T.)";"1.0";"2";"1";"1";"2";"1";"1";"2014-10-15 18:09:08.379";"2014-10-15 18:22:07.359";"1";"1";"1";"37";"36";"module.training_block1.exec-9408.GoNoGo1";;;;;;;;;;;;;;;;;;;;;;;"1249";"2014-10-15 18:12:06.955";"NST_correctLoc";"22";"1";"FINISHED";"RIGHT";"success";"483";"0";"2014-10-15 18:12:05.704";"3";;;;;;;;;;;;;;;;;;;;;;;;;;;;;;;;;;;;;;;;;;;;;;;;;;;;;;;;;
"AvillN";"1995";;"Windows 7";"Rachel's Experiment (D.T.)";"1.0";"2";"1";"1";"2";"1";"1";"2014-10-15 18:09:08.379";"2014-10-15 18:22:07.359";"1";"1";"1";"38";"37";"module.training_block1.exec-9408.GoNoGo1";;;;;;;;;;;;;;;;;;;;;;;"1249";"2014-10-15 18:12:09.548";"NST_correctLoc";"33";"0";"FINISHED";"LEFT";"success";"498";"0";"2014-10-15 18:12:08.298";"3";;;;;;;;;;;;;;;;;;;;;;;;;;;;;;;;;;;;;;;;;;;;;;;;;;;;;;;;;
"AvillN";"1995";;"Windows 7";"Rachel's Experiment (D.T.)";"1.0";"2";"1";"1";"2";"1";"1";"2014-10-15 18:09:08.379";"2014-10-15 18:22:07.359";"1";"1";"1";"39";"38";"module.training_block1.exec-9408.GoNoGo1";;;;;;;;;;;;;;;;;;;;;;;"1249";"2014-10-15 18:12:12.101";"NST_correctLoc";"20";"1";"FINISHED";"RIGHT";"success";"435";"0";"2014-10-15 18:12:10.851";"3";;;;;;;;;;;;;;;;;;;;;;;;;;;;;;;;;;;;;;;;;;;;;;;;;;;;;;;;;
"AvillN";"1995";;"Windows 7";"Rachel's Experiment (D.T.)";"1.0";"2";"1";"1";"2";"1";"1";"2014-10-15 18:09:08.379";"2014-10-15 18:22:07.359";"1";"1";"1";"40";"39";"module.training_block1.exec-9408.GoNoGo1";;;;;;;;;;;;;;;;;;;;;;;"1250";"2014-10-15 18:12:14.657";"ST_correctStop";"0";"0";"FINISHED";"NONE";"success";"0";"1";"2014-10-15 18:12:13.407";"1";;;;;;;;;;;;;;;;;;;;;;;;;;;;;;;;;;;;;;;;;;;;;;;;;;;;;;;;;
"AvillN";"1995";;"Windows 7";"Rachel's Experiment (D.T.)";"1.0";"2";"1";"1";"2";"1";"1";"2014-10-15 18:09:08.379";"2014-10-15 18:22:07.359";"1";"1";"1";"41";"40";"module.training_block1.exec-9408.GoNoGo1";;;;;;;;;;;;;;;;;;;;;;;"1249";"2014-10-15 18:12:17.211";"ST_correctStop";"4";"1";"FINISHED";"NONE";"success";"0";"1";"2014-10-15 18:12:15.961";"1";;;;;;;;;;;;;;;;;;;;;;;;;;;;;;;;;;;;;;;;;;;;;;;;;;;;;;;;;
"AvillN";"1995";;"Windows 7";"Rachel's Experiment (D.T.)";"1.0";"2";"1";"1";"2";"1";"1";"2014-10-15 18:09:08.379";"2014-10-15 18:22:07.359";"1";"1";"1";"42";"41";"module.training_block1.exec-9408.GoNoGo1";;;;;;;;;;;;;;;;;;;;;;;"1249";"2014-10-15 18:12:19.794";"NST_correctLoc";"32";"1";"FINISHED";"RIGHT";"success";"446";"0";"2014-10-15 18:12:18.544";"3";;;;;;;;;;;;;;;;;;;;;;;;;;;;;;;;;;;;;;;;;;;;;;;;;;;;;;;;;
"AvillN";"1995";;"Windows 7";"Rachel's Experiment (D.T.)";"1.0";"2";"1";"1";"2";"1";"1";"2014-10-15 18:09:08.379";"2014-10-15 18:22:07.359";"1";"1";"1";"43";"42";"module.training_block1.exec-9408.GoNoGo1";;;;;;;;;;;;;;;;;;;;;;;"1250";"2014-10-15 18:12:22.352";"NST_correctLoc";"10";"1";"FINISHED";"RIGHT";"success";"446";"0";"2014-10-15 18:12:21.102";"2";;;;;;;;;;;;;;;;;;;;;;;;;;;;;;;;;;;;;;;;;;;;;;;;;;;;;;;;;
"AvillN";"1995";;"Windows 7";"Rachel's Experiment (D.T.)";"1.0";"2";"1";"1";"2";"1";"1";"2014-10-15 18:09:08.379";"2014-10-15 18:22:07.359";"1";"1";"1";"44";"43";"module.training_block1.exec-9408.GoNoGo1";;;;;;;;;;;;;;;;;;;;;;;"1249";"2014-10-15 18:12:24.920";"ST_failedStop";"34";"1";"FINISHED";"RIGHT";"failure";"373";"1";"2014-10-15 18:12:23.670";"3";;;;;;;;;;;;;;;;;;;;;;;;;;;;;;;;;;;;;;;;;;;;;;;;;;;;;;;;;
"AvillN";"1995";;"Windows 7";"Rachel's Experiment (D.T.)";"1.0";"2";"1";"1";"2";"1";"1";"2014-10-15 18:09:08.379";"2014-10-15 18:22:07.359";"1";"1";"1";"45";"44";"module.training_block1.exec-9408.GoNoGo1";;;;;;;;;;;;;;;;;;;;;;;"1249";"2014-10-15 18:12:27.484";"ST_failedStop";"2";"0";"FINISHED";"LEFT";"failure";"516";"1";"2014-10-15 18:12:26.234";"1";;;;;;;;;;;;;;;;;;;;;;;;;;;;;;;;;;;;;;;;;;;;;;;;;;;;;;;;;
"AvillN";"1995";;"Windows 7";"Rachel's Experiment (D.T.)";"1.0";"2";"1";"1";"2";"1";"1";"2014-10-15 18:09:08.379";"2014-10-15 18:22:07.359";"1";"1";"1";"46";"45";"module.training_block1.exec-9408.GoNoGo1";;;;;;;;;;;;;;;;;;;;;;;"1251";"2014-10-15 18:12:30.072";"ST_failedStop";"27";"1";"FINISHED";"RIGHT";"failure";"523";"1";"2014-10-15 18:12:28.822";"3";;;;;;;;;;;;;;;;;;;;;;;;;;;;;;;;;;;;;;;;;;;;;;;;;;;;;;;;;
"AvillN";"1995";;"Windows 7";"Rachel's Experiment (D.T.)";"1.0";"2";"1";"1";"2";"1";"1";"2014-10-15 18:09:08.379";"2014-10-15 18:22:07.359";"1";"1";"1";"47";"46";"module.training_block1.exec-9408.GoNoGo1";;;;;;;;;;;;;;;;;;;;;;;"1250";"2014-10-15 18:12:32.632";"ST_correctStop";"35";"1";"FINISHED";"NONE";"success";"0";"1";"2014-10-15 18:12:31.381";"3";;;;;;;;;;;;;;;;;;;;;;;;;;;;;;;;;;;;;;;;;;;;;;;;;;;;;;;;;
"AvillN";"1995";;"Windows 7";"Rachel's Experiment (D.T.)";"1.0";"2";"1";"1";"2";"1";"1";"2014-10-15 18:09:08.379";"2014-10-15 18:22:07.359";"1";"1";"1";"48";"47";"module.training_block1.exec-9408.GoNoGo1";;;;;;;;;;;;;;;;;;;;;;;"1249";"2014-10-15 18:12:35.191";"NST_correctLoc";"11";"0";"FINISHED";"LEFT";"success";"593";"0";"2014-10-15 18:12:33.941";"2";;;;;;;;;;;;;;;;;;;;;;;;;;;;;;;;;;;;;;;;;;;;;;;;;;;;;;;;;
"AvillN";"1995";;"Windows 7";"Rachel's Experiment (D.T.)";"1.0";"2";"1";"1";"2";"1";"1";"2014-10-15 18:09:08.379";"2014-10-15 18:22:07.359";"1";"1";"1";"49";"48";"module.training_block1.exec-9408.GoNoGo1";;;;;;;;;;;;;;;;;;;;;;;"1249";"2014-10-15 18:12:37.750";"NST_correctLoc";"26";"0";"FINISHED";"LEFT";"success";"317";"0";"2014-10-15 18:12:36.500";"3";;;;;;;;;;;;;;;;;;;;;;;;;;;;;;;;;;;;;;;;;;;;;;;;;;;;;;;;;
"AvillN";"1995";;"Windows 7";"Rachel's Experiment (D.T.)";"1.0";"2";"1";"1";"2";"1";"1";"2014-10-15 18:09:08.379";"2014-10-15 18:22:07.359";"1";"1";"1";"50";"49";"module.training_block1.exec-9408.GoNoGo1";;;;;;;;;;;;;;;;;;;;;;;"1249";"2014-10-15 18:12:40.304";"ST_correctStop";"5";"1";"FINISHED";"NONE";"success";"0";"1";"2014-10-15 18:12:39.054";"1";;;;;;;;;;;;;;;;;;;;;;;;;;;;;;;;;;;;;;;;;;;;;;;;;;;;;;;;;
"AvillN";"1995";;"Windows 7";"Rachel's Experiment (D.T.)";"1.0";"2";"1";"1";"2";"1";"1";"2014-10-15 18:09:08.379";"2014-10-15 18:22:07.359";"1";"1";"1";"51";"50";"module.training_block1.exec-9408.GoNoGo1";;;;;;;;;;;;;;;;;;;;;;;"1249";"2014-10-15 18:12:42.851";"ST_failedStop";"6";"0";"FINISHED";"LEFT";"failure";"700";"1";"2014-10-15 18:12:41.601";"1";;;;;;;;;;;;;;;;;;;;;;;;;;;;;;;;;;;;;;;;;;;;;;;;;;;;;;;;;
"AvillN";"1995";;"Windows 7";"Rachel's Experiment (D.T.)";"1.0";"2";"1";"1";"2";"1";"1";"2014-10-15 18:09:08.379";"2014-10-15 18:22:07.359";"1";"1";"1";"52";"51";"module.training_block2.exec-8453.GoNoGo2";;;;;;;;;;;;;;;;;;;;;;;;;;;;;;;;;;;"1249";"2014-10-15 18:12:54.526";"NST_correctLoc";"17";"0";"FINISHED";"LEFT";"success";"755";"0";"2014-10-15 18:12:53.276";"2";;;;;;;;;;;;;;;;;;;;;;;;;;;;;;;;;;;;;;;;;;;;;
"AvillN";"1995";;"Windows 7";"Rachel's Experiment (D.T.)";"1.0";"2";"1";"1";"2";"1";"1";"2014-10-15 18:09:08.379";"2014-10-15 18:22:07.359";"1";"1";"1";"53";"52";"module.training_block2.exec-8453.GoNoGo2";;;;;;;;;;;;;;;;;;;;;;;;;;;;;;;;;;;"1249";"2014-10-15 18:12:57.080";"NST_correctLoc";"28";"1";"FINISHED";"RIGHT";"success";"560";"0";"2014-10-15 18:12:55.830";"3";;;;;;;;;;;;;;;;;;;;;;;;;;;;;;;;;;;;;;;;;;;;;
"AvillN";"1995";;"Windows 7";"Rachel's Experiment (D.T.)";"1.0";"2";"1";"1";"2";"1";"1";"2014-10-15 18:09:08.379";"2014-10-15 18:22:07.359";"1";"1";"1";"54";"53";"module.training_block2.exec-8453.GoNoGo2";;;;;;;;;;;;;;;;;;;;;;;;;;;;;;;;;;;"1249";"2014-10-15 18:12:59.641";"NST_correctLoc";"15";"0";"FINISHED";"LEFT";"success";"572";"0";"2014-10-15 18:12:58.391";"2";;;;;;;;;;;;;;;;;;;;;;;;;;;;;;;;;;;;;;;;;;;;;
"AvillN";"1995";;"Windows 7";"Rachel's Experiment (D.T.)";"1.0";"2";"1";"1";"2";"1";"1";"2014-10-15 18:09:08.379";"2014-10-15 18:22:07.359";"1";"1";"1";"55";"54";"module.training_block2.exec-8453.GoNoGo2";;;;;;;;;;;;;;;;;;;;;;;;;;;;;;;;;;;"1249";"2014-10-15 18:13:02.191";"ST_correctStop";"29";"0";"FINISHED";"NONE";"success";"0";"1";"2014-10-15 18:13:00.941";"3";;;;;;;;;;;;;;;;;;;;;;;;;;;;;;;;;;;;;;;;;;;;;
"AvillN";"1995";;"Windows 7";"Rachel's Experiment (D.T.)";"1.0";"2";"1";"1";"2";"1";"1";"2014-10-15 18:09:08.379";"2014-10-15 18:22:07.359";"1";"1";"1";"56";"55";"module.training_block2.exec-8453.GoNoGo2";;;;;;;;;;;;;;;;;;;;;;;;;;;;;;;;;;;"1249";"2014-10-15 18:13:04.737";"NST_correctLoc";"35";"0";"FINISHED";"LEFT";"success";"817";"0";"2014-10-15 18:13:03.487";"3";;;;;;;;;;;;;;;;;;;;;;;;;;;;;;;;;;;;;;;;;;;;;
"AvillN";"1995";;"Windows 7";"Rachel's Experiment (D.T.)";"1.0";"2";"1";"1";"2";"1";"1";"2014-10-15 18:09:08.379";"2014-10-15 18:22:07.359";"1";"1";"1";"57";"56";"module.training_block2.exec-8453.GoNoGo2";;;;;;;;;;;;;;;;;;;;;;;;;;;;;;;;;;;"1249";"2014-10-15 18:13:07.300";"ST_correctStop";"6";"0";"FINISHED";"NONE";"success";"0";"1";"2014-10-15 18:13:06.050";"1";;;;;;;;;;;;;;;;;;;;;;;;;;;;;;;;;;;;;;;;;;;;;
"AvillN";"1995";;"Windows 7";"Rachel's Experiment (D.T.)";"1.0";"2";"1";"1";"2";"1";"1";"2014-10-15 18:09:08.379";"2014-10-15 18:22:07.359";"1";"1";"1";"58";"57";"module.training_block2.exec-8453.GoNoGo2";;;;;;;;;;;;;;;;;;;;;;;;;;;;;;;;;;;"1249";"2014-10-15 18:13:09.844";"NST_correctLoc";"31";"0";"FINISHED";"LEFT";"success";"536";"0";"2014-10-15 18:13:08.594";"3";;;;;;;;;;;;;;;;;;;;;;;;;;;;;;;;;;;;;;;;;;;;;
"AvillN";"1995";;"Windows 7";"Rachel's Experiment (D.T.)";"1.0";"2";"1";"1";"2";"1";"1";"2014-10-15 18:09:08.379";"2014-10-15 18:22:07.359";"1";"1";"1";"59";"58";"module.training_block2.exec-8453.GoNoGo2";;;;;;;;;;;;;;;;;;;;;;;;;;;;;;;;;;;"1249";"2014-10-15 18:13:12.399";"ST_correctStop";"27";"0";"FINISHED";"NONE";"success";"0";"1";"2014-10-15 18:13:11.149";"3";;;;;;;;;;;;;;;;;;;;;;;;;;;;;;;;;;;;;;;;;;;;;
"AvillN";"1995";;"Windows 7";"Rachel's Experiment (D.T.)";"1.0";"2";"1";"1";"2";"1";"1";"2014-10-15 18:09:08.379";"2014-10-15 18:22:07.359";"1";"1";"1";"60";"59";"module.training_block2.exec-8453.GoNoGo2";;;;;;;;;;;;;;;;;;;;;;;;;;;;;;;;;;;"1249";"2014-10-15 18:13:14.949";"ST_correctStop";"22";"1";"FINISHED";"NONE";"success";"0";"1";"2014-10-15 18:13:13.699";"3";;;;;;;;;;;;;;;;;;;;;;;;;;;;;;;;;;;;;;;;;;;;;
"AvillN";"1995";;"Windows 7";"Rachel's Experiment (D.T.)";"1.0";"2";"1";"1";"2";"1";"1";"2014-10-15 18:09:08.379";"2014-10-15 18:22:07.359";"1";"1";"1";"61";"60";"module.training_block2.exec-8453.GoNoGo2";;;;;;;;;;;;;;;;;;;;;;;;;;;;;;;;;;;"1249";"2014-10-15 18:13:17.517";"ST_correctStop";"3";"1";"FINISHED";"NONE";"success";"0";"1";"2014-10-15 18:13:16.267";"1";;;;;;;;;;;;;;;;;;;;;;;;;;;;;;;;;;;;;;;;;;;;;
"AvillN";"1995";;"Windows 7";"Rachel's Experiment (D.T.)";"1.0";"2";"1";"1";"2";"1";"1";"2014-10-15 18:09:08.379";"2014-10-15 18:22:07.359";"1";"1";"1";"62";"61";"module.training_block2.exec-8453.GoNoGo2";;;;;;;;;;;;;;;;;;;;;;;;;;;;;;;;;;;"1249";"2014-10-15 18:13:20.088";"ST_correctStop";"33";"1";"FINISHED";"NONE";"success";"0";"1";"2014-10-15 18:13:18.838";"3";;;;;;;;;;;;;;;;;;;;;;;;;;;;;;;;;;;;;;;;;;;;;
"AvillN";"1995";;"Windows 7";"Rachel's Experiment (D.T.)";"1.0";"2";"1";"1";"2";"1";"1";"2014-10-15 18:09:08.379";"2014-10-15 18:22:07.359";"1";"1";"1";"63";"62";"module.training_block2.exec-8453.GoNoGo2";;;;;;;;;;;;;;;;;;;;;;;;;;;;;;;;;;;"1249";"2014-10-15 18:13:22.635";"NST_correctLoc";"24";"0";"FINISHED";"LEFT";"success";"692";"0";"2014-10-15 18:13:21.385";"3";;;;;;;;;;;;;;;;;;;;;;;;;;;;;;;;;;;;;;;;;;;;;
"AvillN";"1995";;"Windows 7";"Rachel's Experiment (D.T.)";"1.0";"2";"1";"1";"2";"1";"1";"2014-10-15 18:09:08.379";"2014-10-15 18:22:07.359";"1";"1";"1";"64";"63";"module.training_block2.exec-8453.GoNoGo2";;;;;;;;;;;;;;;;;;;;;;;;;;;;;;;;;;;"1249";"2014-10-15 18:13:25.182";"NST_correctLoc";"12";"1";"FINISHED";"RIGHT";"success";"546";"0";"2014-10-15 18:13:23.932";"2";;;;;;;;;;;;;;;;;;;;;;;;;;;;;;;;;;;;;;;;;;;;;
"AvillN";"1995";;"Windows 7";"Rachel's Experiment (D.T.)";"1.0";"2";"1";"1";"2";"1";"1";"2014-10-15 18:09:08.379";"2014-10-15 18:22:07.359";"1";"1";"1";"65";"64";"module.training_block2.exec-8453.GoNoGo2";;;;;;;;;;;;;;;;;;;;;;;;;;;;;;;;;;;"1249";"2014-10-15 18:13:27.739";"ST_correctStop";"25";"0";"FINISHED";"NONE";"success";"0";"1";"2014-10-15 18:13:26.489";"3";;;;;;;;;;;;;;;;;;;;;;;;;;;;;;;;;;;;;;;;;;;;;
"AvillN";"1995";;"Windows 7";"Rachel's Experiment (D.T.)";"1.0";"2";"1";"1";"2";"1";"1";"2014-10-15 18:09:08.379";"2014-10-15 18:22:07.359";"1";"1";"1";"66";"65";"module.training_block2.exec-8453.GoNoGo2";;;;;;;;;;;;;;;;;;;;;;;;;;;;;;;;;;;"1249";"2014-10-15 18:13:30.296";"ST_correctStop";"7";"1";"FINISHED";"NONE";"success";"0";"1";"2014-10-15 18:13:29.046";"1";;;;;;;;;;;;;;;;;;;;;;;;;;;;;;;;;;;;;;;;;;;;;
"AvillN";"1995";;"Windows 7";"Rachel's Experiment (D.T.)";"1.0";"2";"1";"1";"2";"1";"1";"2014-10-15 18:09:08.379";"2014-10-15 18:22:07.359";"1";"1";"1";"67";"66";"module.training_block2.exec-8453.GoNoGo2";;;;;;;;;;;;;;;;;;;;;;;;;;;;;;;;;;;"1249";"2014-10-15 18:13:32.846";"NST_correctLoc";"16";"1";"FINISHED";"RIGHT";"success";"583";"0";"2014-10-15 18:13:31.596";"2";;;;;;;;;;;;;;;;;;;;;;;;;;;;;;;;;;;;;;;;;;;;;
"AvillN";"1995";;"Windows 7";"Rachel's Experiment (D.T.)";"1.0";"2";"1";"1";"2";"1";"1";"2014-10-15 18:09:08.379";"2014-10-15 18:22:07.359";"1";"1";"1";"68";"67";"module.training_block2.exec-8453.GoNoGo2";;;;;;;;;;;;;;;;;;;;;;;;;;;;;;;;;;;"1249";"2014-10-15 18:13:35.391";"NST_correctLoc";"32";"1";"FINISHED";"RIGHT";"success";"536";"0";"2014-10-15 18:13:34.141";"3";;;;;;;;;;;;;;;;;;;;;;;;;;;;;;;;;;;;;;;;;;;;;
"AvillN";"1995";;"Windows 7";"Rachel's Experiment (D.T.)";"1.0";"2";"1";"1";"2";"1";"1";"2014-10-15 18:09:08.379";"2014-10-15 18:22:07.359";"1";"1";"1";"69";"68";"module.training_block2.exec-8453.GoNoGo2";;;;;;;;;;;;;;;;;;;;;;;;;;;;;;;;;;;"1249";"2014-10-15 18:13:37.970";"ST_correctStop";"19";"0";"FINISHED";"NONE";"success";"0";"1";"2014-10-15 18:13:36.720";"3";;;;;;;;;;;;;;;;;;;;;;;;;;;;;;;;;;;;;;;;;;;;;
"AvillN";"1995";;"Windows 7";"Rachel's Experiment (D.T.)";"1.0";"2";"1";"1";"2";"1";"1";"2014-10-15 18:09:08.379";"2014-10-15 18:22:07.359";"1";"1";"1";"70";"69";"module.training_block2.exec-8453.GoNoGo2";;;;;;;;;;;;;;;;;;;;;;;;;;;;;;;;;;;"1249";"2014-10-15 18:13:40.517";"ST_correctStop";"5";"1";"FINISHED";"NONE";"success";"0";"1";"2014-10-15 18:13:39.267";"1";;;;;;;;;;;;;;;;;;;;;;;;;;;;;;;;;;;;;;;;;;;;;
"AvillN";"1995";;"Windows 7";"Rachel's Experiment (D.T.)";"1.0";"2";"1";"1";"2";"1";"1";"2014-10-15 18:09:08.379";"2014-10-15 18:22:07.359";"1";"1";"1";"71";"70";"module.training_block2.exec-8453.GoNoGo2";;;;;;;;;;;;;;;;;;;;;;;;;;;;;;;;;;;"1249";"2014-10-15 18:13:43.064";"NST_correctLoc";"18";"0";"FINISHED";"LEFT";"success";"866";"0";"2014-10-15 18:13:41.814";"3";;;;;;;;;;;;;;;;;;;;;;;;;;;;;;;;;;;;;;;;;;;;;
"AvillN";"1995";;"Windows 7";"Rachel's Experiment (D.T.)";"1.0";"2";"1";"1";"2";"1";"1";"2014-10-15 18:09:08.379";"2014-10-15 18:22:07.359";"1";"1";"1";"72";"71";"module.training_block2.exec-8453.GoNoGo2";;;;;;;;;;;;;;;;;;;;;;;;;;;;;;;;;;;"1249";"2014-10-15 18:13:45.619";"NST_correctLoc";"34";"1";"FINISHED";"RIGHT";"success";"364";"0";"2014-10-15 18:13:44.369";"3";;;;;;;;;;;;;;;;;;;;;;;;;;;;;;;;;;;;;;;;;;;;;
"AvillN";"1995";;"Windows 7";"Rachel's Experiment (D.T.)";"1.0";"2";"1";"1";"2";"1";"1";"2014-10-15 18:09:08.379";"2014-10-15 18:22:07.359";"1";"1";"1";"73";"72";"module.training_block2.exec-8453.GoNoGo2";;;;;;;;;;;;;;;;;;;;;;;;;;;;;;;;;;;"1250";"2014-10-15 18:13:48.188";"ST_correctStop";"8";"1";"FINISHED";"NONE";"success";"0";"1";"2014-10-15 18:13:46.938";"1";;;;;;;;;;;;;;;;;;;;;;;;;;;;;;;;;;;;;;;;;;;;;
"AvillN";"1995";;"Windows 7";"Rachel's Experiment (D.T.)";"1.0";"2";"1";"1";"2";"1";"1";"2014-10-15 18:09:08.379";"2014-10-15 18:22:07.359";"1";"1";"1";"74";"73";"module.training_block2.exec-8453.GoNoGo2";;;;;;;;;;;;;;;;;;;;;;;;;;;;;;;;;;;"1249";"2014-10-15 18:13:50.754";"ST_correctStop";"23";"0";"FINISHED";"NONE";"success";"0";"1";"2014-10-15 18:13:49.503";"3";;;;;;;;;;;;;;;;;;;;;;;;;;;;;;;;;;;;;;;;;;;;;
"AvillN";"1995";;"Windows 7";"Rachel's Experiment (D.T.)";"1.0";"2";"1";"1";"2";"1";"1";"2014-10-15 18:09:08.379";"2014-10-15 18:22:07.359";"1";"1";"1";"75";"74";"module.training_block2.exec-8453.GoNoGo2";;;;;;;;;;;;;;;;;;;;;;;;;;;;;;;;;;;"1249";"2014-10-15 18:13:53.306";"ST_correctStop";"4";"1";"FINISHED";"NONE";"success";"0";"1";"2014-10-15 18:13:52.056";"1";;;;;;;;;;;;;;;;;;;;;;;;;;;;;;;;;;;;;;;;;;;;;
"AvillN";"1995";;"Windows 7";"Rachel's Experiment (D.T.)";"1.0";"2";"1";"1";"2";"1";"1";"2014-10-15 18:09:08.379";"2014-10-15 18:22:07.359";"1";"1";"1";"76";"75";"module.training_block2.exec-8453.GoNoGo2";;;;;;;;;;;;;;;;;;;;;;;;;;;;;;;;;;;"1249";"2014-10-15 18:13:55.870";"NST_correctLoc";"11";"1";"FINISHED";"RIGHT";"success";"583";"0";"2014-10-15 18:13:54.620";"2";;;;;;;;;;;;;;;;;;;;;;;;;;;;;;;;;;;;;;;;;;;;;
"AvillN";"1995";;"Windows 7";"Rachel's Experiment (D.T.)";"1.0";"2";"1";"1";"2";"1";"1";"2014-10-15 18:09:08.379";"2014-10-15 18:22:07.359";"1";"1";"1";"77";"76";"module.training_block2.exec-8453.GoNoGo2";;;;;;;;;;;;;;;;;;;;;;;;;;;;;;;;;;;"1249";"2014-10-15 18:13:58.432";"ST_correctStop";"30";"1";"FINISHED";"NONE";"success";"0";"1";"2014-10-15 18:13:57.182";"3";;;;;;;;;;;;;;;;;;;;;;;;;;;;;;;;;;;;;;;;;;;;;
"AvillN";"1995";;"Windows 7";"Rachel's Experiment (D.T.)";"1.0";"2";"1";"1";"2";"1";"1";"2014-10-15 18:09:08.379";"2014-10-15 18:22:07.359";"1";"1";"1";"78";"77";"module.training_block2.exec-8453.GoNoGo2";;;;;;;;;;;;;;;;;;;;;;;;;;;;;;;;;;;"1249";"2014-10-15 18:14:00.974";"ST_correctStop";"0";"1";"FINISHED";"NONE";"success";"0";"1";"2014-10-15 18:13:59.724";"1";;;;;;;;;;;;;;;;;;;;;;;;;;;;;;;;;;;;;;;;;;;;;
"AvillN";"1995";;"Windows 7";"Rachel's Experiment (D.T.)";"1.0";"2";"1";"1";"2";"1";"1";"2014-10-15 18:09:08.379";"2014-10-15 18:22:07.359";"1";"1";"1";"79";"78";"module.training_block2.exec-8453.GoNoGo2";;;;;;;;;;;;;;;;;;;;;;;;;;;;;;;;;;;"1249";"2014-10-15 18:14:03.540";"ST_correctStop";"2";"1";"FINISHED";"NONE";"success";"0";"1";"2014-10-15 18:14:02.290";"1";;;;;;;;;;;;;;;;;;;;;;;;;;;;;;;;;;;;;;;;;;;;;
"AvillN";"1995";;"Windows 7";"Rachel's Experiment (D.T.)";"1.0";"2";"1";"1";"2";"1";"1";"2014-10-15 18:09:08.379";"2014-10-15 18:22:07.359";"1";"1";"1";"80";"79";"module.training_block2.exec-8453.GoNoGo2";;;;;;;;;;;;;;;;;;;;;;;;;;;;;;;;;;;"1250";"2014-10-15 18:14:06.086";"NST_correctLoc";"10";"1";"FINISHED";"RIGHT";"success";"791";"0";"2014-10-15 18:14:04.836";"2";;;;;;;;;;;;;;;;;;;;;;;;;;;;;;;;;;;;;;;;;;;;;
"AvillN";"1995";;"Windows 7";"Rachel's Experiment (D.T.)";"1.0";"2";"1";"1";"2";"1";"1";"2014-10-15 18:09:08.379";"2014-10-15 18:22:07.359";"1";"1";"1";"81";"80";"module.training_block2.exec-8453.GoNoGo2";;;;;;;;;;;;;;;;;;;;;;;;;;;;;;;;;;;"1249";"2014-10-15 18:14:08.630";"NST_correctLoc";"9";"0";"FINISHED";"LEFT";"success";"375";"0";"2014-10-15 18:14:07.379";"2";;;;;;;;;;;;;;;;;;;;;;;;;;;;;;;;;;;;;;;;;;;;;
"AvillN";"1995";;"Windows 7";"Rachel's Experiment (D.T.)";"1.0";"2";"1";"1";"2";"1";"1";"2014-10-15 18:09:08.379";"2014-10-15 18:22:07.359";"1";"1";"1";"82";"81";"module.training_block2.exec-8453.GoNoGo2";;;;;;;;;;;;;;;;;;;;;;;;;;;;;;;;;;;"1249";"2014-10-15 18:14:11.197";"NST_correctLoc";"26";"0";"FINISHED";"LEFT";"success";"480";"0";"2014-10-15 18:14:09.947";"3";;;;;;;;;;;;;;;;;;;;;;;;;;;;;;;;;;;;;;;;;;;;;
"AvillN";"1995";;"Windows 7";"Rachel's Experiment (D.T.)";"1.0";"2";"1";"1";"2";"1";"1";"2014-10-15 18:09:08.379";"2014-10-15 18:22:07.359";"1";"1";"1";"83";"82";"module.training_block2.exec-8453.GoNoGo2";;;;;;;;;;;;;;;;;;;;;;;;;;;;;;;;;;;"1249";"2014-10-15 18:14:13.771";"NST_correctLoc";"13";"0";"FINISHED";"LEFT";"success";"455";"0";"2014-10-15 18:14:12.521";"2";;;;;;;;;;;;;;;;;;;;;;;;;;;;;;;;;;;;;;;;;;;;;
"AvillN";"1995";;"Windows 7";"Rachel's Experiment (D.T.)";"1.0";"2";"1";"1";"2";"1";"1";"2014-10-15 18:09:08.379";"2014-10-15 18:22:07.359";"1";"1";"1";"84";"83";"module.training_block2.exec-8453.GoNoGo2";;;;;;;;;;;;;;;;;;;;;;;;;;;;;;;;;;;"1249";"2014-10-15 18:14:16.316";"ST_failedStop";"1";"0";"FINISHED";"LEFT";"failure";"771";"1";"2014-10-15 18:14:15.066";"1";;;;;;;;;;;;;;;;;;;;;;;;;;;;;;;;;;;;;;;;;;;;;
"AvillN";"1995";;"Windows 7";"Rachel's Experiment (D.T.)";"1.0";"2";"1";"1";"2";"1";"1";"2014-10-15 18:09:08.379";"2014-10-15 18:22:07.359";"1";"1";"1";"85";"84";"module.training_block2.exec-8453.GoNoGo2";;;;;;;;;;;;;;;;;;;;;;;;;;;;;;;;;;;"1250";"2014-10-15 18:14:18.857";"ST_correctStop";"20";"0";"FINISHED";"NONE";"success";"0";"1";"2014-10-15 18:14:17.607";"3";;;;;;;;;;;;;;;;;;;;;;;;;;;;;;;;;;;;;;;;;;;;;
"AvillN";"1995";;"Windows 7";"Rachel's Experiment (D.T.)";"1.0";"2";"1";"1";"2";"1";"1";"2014-10-15 18:09:08.379";"2014-10-15 18:22:07.359";"1";"1";"1";"86";"85";"module.training_block2.exec-8453.GoNoGo2";;;;;;;;;;;;;;;;;;;;;;;;;;;;;;;;;;;"1249";"2014-10-15 18:14:21.399";"NST_correctLoc";"21";"1";"FINISHED";"RIGHT";"success";"596";"0";"2014-10-15 18:14:20.149";"3";;;;;;;;;;;;;;;;;;;;;;;;;;;;;;;;;;;;;;;;;;;;;
"AvillN";"1995";;"Windows 7";"Rachel's Experiment (D.T.)";"1.0";"2";"1";"1";"2";"1";"1";"2014-10-15 18:09:08.379";"2014-10-15 18:22:07.359";"1";"1";"1";"87";"86";"module.training_block2.exec-8453.GoNoGo2";;;;;;;;;;;;;;;;;;;;;;;;;;;;;;;;;;;"1249";"2014-10-15 18:14:23.952";"NST_correctLoc";"14";"1";"FINISHED";"RIGHT";"success";"458";"0";"2014-10-15 18:14:22.702";"2";;;;;;;;;;;;;;;;;;;;;;;;;;;;;;;;;;;;;;;;;;;;;
"AvillN";"1995";;"Windows 7";"Rachel's Experiment (D.T.)";"1.0";"2";"1";"1";"2";"1";"1";"2014-10-15 18:09:08.379";"2014-10-15 18:22:07.359";"1";"1";"1";"88";"87";"module.training_block3.exec-6791.GoNoGo3";;;;;;;;;;;;;;;;;;;;;;;;;;;;;;;;;;;;;;;;;;;;;;;"1250";"2014-10-15 18:14:34.138";"ST_correctStop";"5";"1";"FINISHED";"NONE";"success";"0";"1";"2014-10-15 18:14:32.888";"1";;;;;;;;;;;;;;;;;;;;;;;;;;;;;;;;;
"AvillN";"1995";;"Windows 7";"Rachel's Experiment (D.T.)";"1.0";"2";"1";"1";"2";"1";"1";"2014-10-15 18:09:08.379";"2014-10-15 18:22:07.359";"1";"1";"1";"89";"88";"module.training_block3.exec-6791.GoNoGo3";;;;;;;;;;;;;;;;;;;;;;;;;;;;;;;;;;;;;;;;;;;;;;;"1249";"2014-10-15 18:14:36.683";"ST_correctStop";"33";"1";"FINISHED";"NONE";"success";"0";"1";"2014-10-15 18:14:35.433";"3";;;;;;;;;;;;;;;;;;;;;;;;;;;;;;;;;
"AvillN";"1995";;"Windows 7";"Rachel's Experiment (D.T.)";"1.0";"2";"1";"1";"2";"1";"1";"2014-10-15 18:09:08.379";"2014-10-15 18:22:07.359";"1";"1";"1";"90";"89";"module.training_block3.exec-6791.GoNoGo3";;;;;;;;;;;;;;;;;;;;;;;;;;;;;;;;;;;;;;;;;;;;;;;"1249";"2014-10-15 18:14:39.225";"ST_correctStop";"3";"0";"FINISHED";"NONE";"success";"0";"1";"2014-10-15 18:14:37.975";"1";;;;;;;;;;;;;;;;;;;;;;;;;;;;;;;;;
"AvillN";"1995";;"Windows 7";"Rachel's Experiment (D.T.)";"1.0";"2";"1";"1";"2";"1";"1";"2014-10-15 18:09:08.379";"2014-10-15 18:22:07.359";"1";"1";"1";"91";"90";"module.training_block3.exec-6791.GoNoGo3";;;;;;;;;;;;;;;;;;;;;;;;;;;;;;;;;;;;;;;;;;;;;;;"1249";"2014-10-15 18:14:41.777";"ST_correctStop";"21";"1";"FINISHED";"NONE";"success";"0";"1";"2014-10-15 18:14:40.527";"3";;;;;;;;;;;;;;;;;;;;;;;;;;;;;;;;;
"AvillN";"1995";;"Windows 7";"Rachel's Experiment (D.T.)";"1.0";"2";"1";"1";"2";"1";"1";"2014-10-15 18:09:08.379";"2014-10-15 18:22:07.359";"1";"1";"1";"92";"91";"module.training_block3.exec-6791.GoNoGo3";;;;;;;;;;;;;;;;;;;;;;;;;;;;;;;;;;;;;;;;;;;;;;;"1249";"2014-10-15 18:14:44.320";"NST_correctLoc";"14";"0";"FINISHED";"LEFT";"success";"717";"0";"2014-10-15 18:14:43.069";"2";;;;;;;;;;;;;;;;;;;;;;;;;;;;;;;;;
"AvillN";"1995";;"Windows 7";"Rachel's Experiment (D.T.)";"1.0";"2";"1";"1";"2";"1";"1";"2014-10-15 18:09:08.379";"2014-10-15 18:22:07.359";"1";"1";"1";"93";"92";"module.training_block3.exec-6791.GoNoGo3";;;;;;;;;;;;;;;;;;;;;;;;;;;;;;;;;;;;;;;;;;;;;;;"1249";"2014-10-15 18:14:46.860";"NST_correctLoc";"24";"1";"FINISHED";"RIGHT";"success";"588";"0";"2014-10-15 18:14:45.610";"3";;;;;;;;;;;;;;;;;;;;;;;;;;;;;;;;;
"AvillN";"1995";;"Windows 7";"Rachel's Experiment (D.T.)";"1.0";"2";"1";"1";"2";"1";"1";"2014-10-15 18:09:08.379";"2014-10-15 18:22:07.359";"1";"1";"1";"94";"93";"module.training_block3.exec-6791.GoNoGo3";;;;;;;;;;;;;;;;;;;;;;;;;;;;;;;;;;;;;;;;;;;;;;;"1250";"2014-10-15 18:14:49.404";"NST_correctLoc";"16";"0";"FINISHED";"LEFT";"success";"561";"0";"2014-10-15 18:14:48.154";"2";;;;;;;;;;;;;;;;;;;;;;;;;;;;;;;;;
"AvillN";"1995";;"Windows 7";"Rachel's Experiment (D.T.)";"1.0";"2";"1";"1";"2";"1";"1";"2014-10-15 18:09:08.379";"2014-10-15 18:22:07.359";"1";"1";"1";"95";"94";"module.training_block3.exec-6791.GoNoGo3";;;;;;;;;;;;;;;;;;;;;;;;;;;;;;;;;;;;;;;;;;;;;;;"1249";"2014-10-15 18:14:51.946";"ST_correctStop";"18";"0";"FINISHED";"NONE";"success";"0";"1";"2014-10-15 18:14:50.696";"3";;;;;;;;;;;;;;;;;;;;;;;;;;;;;;;;;
"AvillN";"1995";;"Windows 7";"Rachel's Experiment (D.T.)";"1.0";"2";"1";"1";"2";"1";"1";"2014-10-15 18:09:08.379";"2014-10-15 18:22:07.359";"1";"1";"1";"96";"95";"module.training_block3.exec-6791.GoNoGo3";;;;;;;;;;;;;;;;;;;;;;;;;;;;;;;;;;;;;;;;;;;;;;;"1250";"2014-10-15 18:14:54.488";"NST_correctLoc";"22";"1";"FINISHED";"RIGHT";"success";"425";"0";"2014-10-15 18:14:53.238";"3";;;;;;;;;;;;;;;;;;;;;;;;;;;;;;;;;
"AvillN";"1995";;"Windows 7";"Rachel's Experiment (D.T.)";"1.0";"2";"1";"1";"2";"1";"1";"2014-10-15 18:09:08.379";"2014-10-15 18:22:07.359";"1";"1";"1";"97";"96";"module.training_block3.exec-6791.GoNoGo3";;;;;;;;;;;;;;;;;;;;;;;;;;;;;;;;;;;;;;;;;;;;;;;"1251";"2014-10-15 18:14:57.037";"ST_correctStop";"4";"1";"FINISHED";"NONE";"success";"0";"1";"2014-10-15 18:14:55.785";"1";;;;;;;;;;;;;;;;;;;;;;;;;;;;;;;;;
"AvillN";"1995";;"Windows 7";"Rachel's Experiment (D.T.)";"1.0";"2";"1";"1";"2";"1";"1";"2014-10-15 18:09:08.379";"2014-10-15 18:22:07.359";"1";"1";"1";"98";"97";"module.training_block3.exec-6791.GoNoGo3";;;;;;;;;;;;;;;;;;;;;;;;;;;;;;;;;;;;;;;;;;;;;;;"1249";"2014-10-15 18:14:59.585";"NST_correctLoc";"23";"1";"FINISHED";"RIGHT";"success";"423";"0";"2014-10-15 18:14:58.335";"3";;;;;;;;;;;;;;;;;;;;;;;;;;;;;;;;;
"AvillN";"1995";;"Windows 7";"Rachel's Experiment (D.T.)";"1.0";"2";"1";"1";"2";"1";"1";"2014-10-15 18:09:08.379";"2014-10-15 18:22:07.359";"1";"1";"1";"99";"98";"module.training_block3.exec-6791.GoNoGo3";;;;;;;;;;;;;;;;;;;;;;;;;;;;;;;;;;;;;;;;;;;;;;;"1249";"2014-10-15 18:15:02.126";"ST_failedStop";"7";"1";"FINISHED";"RIGHT";"failure";"486";"1";"2014-10-15 18:15:00.876";"1";;;;;;;;;;;;;;;;;;;;;;;;;;;;;;;;;
"AvillN";"1995";;"Windows 7";"Rachel's Experiment (D.T.)";"1.0";"2";"1";"1";"2";"1";"1";"2014-10-15 18:09:08.379";"2014-10-15 18:22:07.359";"1";"1";"1";"100";"99";"module.training_block3.exec-6791.GoNoGo3";;;;;;;;;;;;;;;;;;;;;;;;;;;;;;;;;;;;;;;;;;;;;;;"1251";"2014-10-15 18:15:04.670";"NST_correctLoc";"12";"0";"FINISHED";"LEFT";"success";"405";"0";"2014-10-15 18:15:03.420";"2";;;;;;;;;;;;;;;;;;;;;;;;;;;;;;;;;
"AvillN";"1995";;"Windows 7";"Rachel's Experiment (D.T.)";"1.0";"2";"1";"1";"2";"1";"1";"2014-10-15 18:09:08.379";"2014-10-15 18:22:07.359";"1";"1";"1";"101";"100";"module.training_block3.exec-6791.GoNoGo3";;;;;;;;;;;;;;;;;;;;;;;;;;;;;;;;;;;;;;;;;;;;;;;"1249";"2014-10-15 18:15:07.227";"NST_correctLoc";"25";"0";"FINISHED";"LEFT";"success";"460";"0";"2014-10-15 18:15:05.977";"3";;;;;;;;;;;;;;;;;;;;;;;;;;;;;;;;;
"AvillN";"1995";;"Windows 7";"Rachel's Experiment (D.T.)";"1.0";"2";"1";"1";"2";"1";"1";"2014-10-15 18:09:08.379";"2014-10-15 18:22:07.359";"1";"1";"1";"102";"101";"module.training_block3.exec-6791.GoNoGo3";;;;;;;;;;;;;;;;;;;;;;;;;;;;;;;;;;;;;;;;;;;;;;;"1250";"2014-10-15 18:15:09.778";"ST_correctStop";"26";"0";"FINISHED";"NONE";"success";"0";"1";"2014-10-15 18:15:08.527";"3";;;;;;;;;;;;;;;;;;;;;;;;;;;;;;;;;
"AvillN";"1995";;"Windows 7";"Rachel's Experiment (D.T.)";"1.0";"2";"1";"1";"2";"1";"1";"2014-10-15 18:09:08.379";"2014-10-15 18:22:07.359";"1";"1";"1";"103";"102";"module.training_block3.exec-6791.GoNoGo3";;;;;;;;;;;;;;;;;;;;;;;;;;;;;;;;;;;;;;;;;;;;;;;"1249";"2014-10-15 18:15:12.318";"ST_correctStop";"2";"1";"FINISHED";"NONE";"success";"0";"1";"2014-10-15 18:15:11.068";"1";;;;;;;;;;;;;;;;;;;;;;;;;;;;;;;;;
"AvillN";"1995";;"Windows 7";"Rachel's Experiment (D.T.)";"1.0";"2";"1";"1";"2";"1";"1";"2014-10-15 18:09:08.379";"2014-10-15 18:22:07.359";"1";"1";"1";"104";"103";"module.training_block3.exec-6791.GoNoGo3";;;;;;;;;;;;;;;;;;;;;;;;;;;;;;;;;;;;;;;;;;;;;;;"1249";"2014-10-15 18:15:14.862";"ST_correctStop";"31";"1";"FINISHED";"NONE";"success";"0";"1";"2014-10-15 18:15:13.612";"3";;;;;;;;;;;;;;;;;;;;;;;;;;;;;;;;;
"AvillN";"1995";;"Windows 7";"Rachel's Experiment (D.T.)";"1.0";"2";"1";"1";"2";"1";"1";"2014-10-15 18:09:08.379";"2014-10-15 18:22:07.359";"1";"1";"1";"105";"104";"module.training_block3.exec-6791.GoNoGo3";;;;;;;;;;;;;;;;;;;;;;;;;;;;;;;;;;;;;;;;;;;;;;;"1249";"2014-10-15 18:15:17.417";"NST_correctLoc";"35";"0";"FINISHED";"LEFT";"success";"667";"0";"2014-10-15 18:15:16.167";"3";;;;;;;;;;;;;;;;;;;;;;;;;;;;;;;;;
"AvillN";"1995";;"Windows 7";"Rachel's Experiment (D.T.)";"1.0";"2";"1";"1";"2";"1";"1";"2014-10-15 18:09:08.379";"2014-10-15 18:22:07.359";"1";"1";"1";"106";"105";"module.training_block3.exec-6791.GoNoGo3";;;;;;;;;;;;;;;;;;;;;;;;;;;;;;;;;;;;;;;;;;;;;;;"1250";"2014-10-15 18:15:19.960";"NST_correctLoc";"34";"1";"FINISHED";"RIGHT";"success";"456";"0";"2014-10-15 18:15:18.710";"3";;;;;;;;;;;;;;;;;;;;;;;;;;;;;;;;;
"AvillN";"1995";;"Windows 7";"Rachel's Experiment (D.T.)";"1.0";"2";"1";"1";"2";"1";"1";"2014-10-15 18:09:08.379";"2014-10-15 18:22:07.359";"1";"1";"1";"107";"106";"module.training_block3.exec-6791.GoNoGo3";;;;;;;;;;;;;;;;;;;;;;;;;;;;;;;;;;;;;;;;;;;;;;;"1249";"2014-10-15 18:15:22.511";"ST_correctStop";"1";"0";"FINISHED";"NONE";"success";"0";"1";"2014-10-15 18:15:21.261";"1";;;;;;;;;;;;;;;;;;;;;;;;;;;;;;;;;
"AvillN";"1995";;"Windows 7";"Rachel's Experiment (D.T.)";"1.0";"2";"1";"1";"2";"1";"1";"2014-10-15 18:09:08.379";"2014-10-15 18:22:07.359";"1";"1";"1";"108";"107";"module.training_block3.exec-6791.GoNoGo3";;;;;;;;;;;;;;;;;;;;;;;;;;;;;;;;;;;;;;;;;;;;;;;"1249";"2014-10-15 18:15:25.059";"ST_correctStop";"27";"1";"FINISHED";"NONE";"success";"0";"1";"2014-10-15 18:15:23.809";"3";;;;;;;;;;;;;;;;;;;;;;;;;;;;;;;;;
"AvillN";"1995";;"Windows 7";"Rachel's Experiment (D.T.)";"1.0";"2";"1";"1";"2";"1";"1";"2014-10-15 18:09:08.379";"2014-10-15 18:22:07.359";"1";"1";"1";"109";"108";"module.training_block3.exec-6791.GoNoGo3";;;;;;;;;;;;;;;;;;;;;;;;;;;;;;;;;;;;;;;;;;;;;;;"1249";"2014-10-15 18:15:27.600";"NST_correctLoc";"9";"0";"FINISHED";"LEFT";"success";"786";"0";"2014-10-15 18:15:26.350";"2";;;;;;;;;;;;;;;;;;;;;;;;;;;;;;;;;
"AvillN";"1995";;"Windows 7";"Rachel's Experiment (D.T.)";"1.0";"2";"1";"1";"2";"1";"1";"2014-10-15 18:09:08.379";"2014-10-15 18:22:07.359";"1";"1";"1";"110";"109";"module.training_block3.exec-6791.GoNoGo3";;;;;;;;;;;;;;;;;;;;;;;;;;;;;;;;;;;;;;;;;;;;;;;"1249";"2014-10-15 18:15:30.143";"ST_correctStop";"8";"1";"FINISHED";"NONE";"success";"0";"1";"2014-10-15 18:15:28.893";"1";;;;;;;;;;;;;;;;;;;;;;;;;;;;;;;;;
"AvillN";"1995";;"Windows 7";"Rachel's Experiment (D.T.)";"1.0";"2";"1";"1";"2";"1";"1";"2014-10-15 18:09:08.379";"2014-10-15 18:22:07.359";"1";"1";"1";"111";"110";"module.training_block3.exec-6791.GoNoGo3";;;;;;;;;;;;;;;;;;;;;;;;;;;;;;;;;;;;;;;;;;;;;;;"1249";"2014-10-15 18:15:32.717";"NST_correctLoc";"30";"0";"FINISHED";"LEFT";"success";"624";"0";"2014-10-15 18:15:31.467";"3";;;;;;;;;;;;;;;;;;;;;;;;;;;;;;;;;
"AvillN";"1995";;"Windows 7";"Rachel's Experiment (D.T.)";"1.0";"2";"1";"1";"2";"1";"1";"2014-10-15 18:09:08.379";"2014-10-15 18:22:07.359";"1";"1";"1";"112";"111";"module.training_block3.exec-6791.GoNoGo3";;;;;;;;;;;;;;;;;;;;;;;;;;;;;;;;;;;;;;;;;;;;;;;"1249";"2014-10-15 18:15:35.272";"ST_correctStop";"28";"1";"FINISHED";"NONE";"success";"0";"1";"2014-10-15 18:15:34.022";"3";;;;;;;;;;;;;;;;;;;;;;;;;;;;;;;;;
"AvillN";"1995";;"Windows 7";"Rachel's Experiment (D.T.)";"1.0";"2";"1";"1";"2";"1";"1";"2014-10-15 18:09:08.379";"2014-10-15 18:22:07.359";"1";"1";"1";"113";"112";"module.training_block3.exec-6791.GoNoGo3";;;;;;;;;;;;;;;;;;;;;;;;;;;;;;;;;;;;;;;;;;;;;;;"1249";"2014-10-15 18:15:37.838";"NST_correctLoc";"11";"1";"FINISHED";"RIGHT";"success";"775";"0";"2014-10-15 18:15:36.588";"2";;;;;;;;;;;;;;;;;;;;;;;;;;;;;;;;;
"AvillN";"1995";;"Windows 7";"Rachel's Experiment (D.T.)";"1.0";"2";"1";"1";"2";"1";"1";"2014-10-15 18:09:08.379";"2014-10-15 18:22:07.359";"1";"1";"1";"114";"113";"module.training_block3.exec-6791.GoNoGo3";;;;;;;;;;;;;;;;;;;;;;;;;;;;;;;;;;;;;;;;;;;;;;;"1249";"2014-10-15 18:15:40.379";"NST_correctLoc";"32";"1";"FINISHED";"RIGHT";"success";"565";"0";"2014-10-15 18:15:39.129";"3";;;;;;;;;;;;;;;;;;;;;;;;;;;;;;;;;
"AvillN";"1995";;"Windows 7";"Rachel's Experiment (D.T.)";"1.0";"2";"1";"1";"2";"1";"1";"2014-10-15 18:09:08.379";"2014-10-15 18:22:07.359";"1";"1";"1";"115";"114";"module.training_block3.exec-6791.GoNoGo3";;;;;;;;;;;;;;;;;;;;;;;;;;;;;;;;;;;;;;;;;;;;;;;"1249";"2014-10-15 18:15:42.922";"NST_correctLoc";"13";"1";"FINISHED";"RIGHT";"success";"489";"0";"2014-10-15 18:15:41.672";"2";;;;;;;;;;;;;;;;;;;;;;;;;;;;;;;;;
"AvillN";"1995";;"Windows 7";"Rachel's Experiment (D.T.)";"1.0";"2";"1";"1";"2";"1";"1";"2014-10-15 18:09:08.379";"2014-10-15 18:22:07.359";"1";"1";"1";"116";"115";"module.training_block3.exec-6791.GoNoGo3";;;;;;;;;;;;;;;;;;;;;;;;;;;;;;;;;;;;;;;;;;;;;;;"1249";"2014-10-15 18:15:45.460";"NST_correctLoc";"29";"1";"FINISHED";"RIGHT";"success";"463";"0";"2014-10-15 18:15:44.210";"3";;;;;;;;;;;;;;;;;;;;;;;;;;;;;;;;;
"AvillN";"1995";;"Windows 7";"Rachel's Experiment (D.T.)";"1.0";"2";"1";"1";"2";"1";"1";"2014-10-15 18:09:08.379";"2014-10-15 18:22:07.359";"1";"1";"1";"117";"116";"module.training_block3.exec-6791.GoNoGo3";;;;;;;;;;;;;;;;;;;;;;;;;;;;;;;;;;;;;;;;;;;;;;;"1249";"2014-10-15 18:15:47.999";"ST_correctStop";"0";"1";"FINISHED";"NONE";"success";"0";"1";"2014-10-15 18:15:46.749";"1";;;;;;;;;;;;;;;;;;;;;;;;;;;;;;;;;
"AvillN";"1995";;"Windows 7";"Rachel's Experiment (D.T.)";"1.0";"2";"1";"1";"2";"1";"1";"2014-10-15 18:09:08.379";"2014-10-15 18:22:07.359";"1";"1";"1";"118";"117";"module.training_block3.exec-6791.GoNoGo3";;;;;;;;;;;;;;;;;;;;;;;;;;;;;;;;;;;;;;;;;;;;;;;"1249";"2014-10-15 18:15:50.549";"ST_correctStop";"20";"0";"FINISHED";"NONE";"success";"0";"1";"2014-10-15 18:15:49.299";"3";;;;;;;;;;;;;;;;;;;;;;;;;;;;;;;;;
"AvillN";"1995";;"Windows 7";"Rachel's Experiment (D.T.)";"1.0";"2";"1";"1";"2";"1";"1";"2014-10-15 18:09:08.379";"2014-10-15 18:22:07.359";"1";"1";"1";"119";"118";"module.training_block3.exec-6791.GoNoGo3";;;;;;;;;;;;;;;;;;;;;;;;;;;;;;;;;;;;;;;;;;;;;;;"1249";"2014-10-15 18:15:53.119";"ST_correctStop";"19";"0";"FINISHED";"NONE";"success";"0";"1";"2014-10-15 18:15:51.868";"3";;;;;;;;;;;;;;;;;;;;;;;;;;;;;;;;;
"AvillN";"1995";;"Windows 7";"Rachel's Experiment (D.T.)";"1.0";"2";"1";"1";"2";"1";"1";"2014-10-15 18:09:08.379";"2014-10-15 18:22:07.359";"1";"1";"1";"120";"119";"module.training_block3.exec-6791.GoNoGo3";;;;;;;;;;;;;;;;;;;;;;;;;;;;;;;;;;;;;;;;;;;;;;;"1249";"2014-10-15 18:15:55.658";"ST_correctStop";"6";"1";"FINISHED";"NONE";"success";"0";"1";"2014-10-15 18:15:54.408";"1";;;;;;;;;;;;;;;;;;;;;;;;;;;;;;;;;
"AvillN";"1995";;"Windows 7";"Rachel's Experiment (D.T.)";"1.0";"2";"1";"1";"2";"1";"1";"2014-10-15 18:09:08.379";"2014-10-15 18:22:07.359";"1";"1";"1";"121";"120";"module.training_block3.exec-6791.GoNoGo3";;;;;;;;;;;;;;;;;;;;;;;;;;;;;;;;;;;;;;;;;;;;;;;"1249";"2014-10-15 18:15:58.200";"NST_correctLoc";"10";"0";"FINISHED";"LEFT";"success";"407";"0";"2014-10-15 18:15:56.950";"2";;;;;;;;;;;;;;;;;;;;;;;;;;;;;;;;;
"AvillN";"1995";;"Windows 7";"Rachel's Experiment (D.T.)";"1.0";"2";"1";"1";"2";"1";"1";"2014-10-15 18:09:08.379";"2014-10-15 18:22:07.359";"1";"1";"1";"122";"121";"module.training_block3.exec-6791.GoNoGo3";;;;;;;;;;;;;;;;;;;;;;;;;;;;;;;;;;;;;;;;;;;;;;;"1249";"2014-10-15 18:16:00.744";"NST_correctLoc";"17";"1";"FINISHED";"RIGHT";"success";"619";"0";"2014-10-15 18:15:59.494";"2";;;;;;;;;;;;;;;;;;;;;;;;;;;;;;;;;
"AvillN";"1995";;"Windows 7";"Rachel's Experiment (D.T.)";"1.0";"2";"1";"1";"2";"1";"1";"2014-10-15 18:09:08.379";"2014-10-15 18:22:07.359";"1";"1";"1";"123";"122";"module.training_block3.exec-6791.GoNoGo3";;;;;;;;;;;;;;;;;;;;;;;;;;;;;;;;;;;;;;;;;;;;;;;"1249";"2014-10-15 18:16:03.290";"NST_correctLoc";"15";"1";"FINISHED";"RIGHT";"success";"432";"0";"2014-10-15 18:16:02.040";"2";;;;;;;;;;;;;;;;;;;;;;;;;;;;;;;;;
"AvillN";"1995";;"Windows 7";"Rachel's Experiment (D.T.)";"1.0";"2";"1";"1";"2";"1";"1";"2014-10-15 18:09:08.379";"2014-10-15 18:22:07.359";"1";"1";"1";"124";"123";"module.training_block4.exec-8029.GoNoGo4";;;;;;;;;;;;;;;;;;;;;;;;;;;;;;;;;;;;;;;;;;;;;;;;;;;;;;;;;;;"1249";"2014-10-15 18:16:13.659";"ST_correctStop";"29";"0";"FINISHED";"NONE";"success";"0";"1";"2014-10-15 18:16:12.409";"3";;;;;;;;;;;;;;;;;;;;;
"AvillN";"1995";;"Windows 7";"Rachel's Experiment (D.T.)";"1.0";"2";"1";"1";"2";"1";"1";"2014-10-15 18:09:08.379";"2014-10-15 18:22:07.359";"1";"1";"1";"125";"124";"module.training_block4.exec-8029.GoNoGo4";;;;;;;;;;;;;;;;;;;;;;;;;;;;;;;;;;;;;;;;;;;;;;;;;;;;;;;;;;;"1249";"2014-10-15 18:16:16.220";"ST_correctStop";"6";"0";"FINISHED";"NONE";"success";"0";"1";"2014-10-15 18:16:14.970";"1";;;;;;;;;;;;;;;;;;;;;
"AvillN";"1995";;"Windows 7";"Rachel's Experiment (D.T.)";"1.0";"2";"1";"1";"2";"1";"1";"2014-10-15 18:09:08.379";"2014-10-15 18:22:07.359";"1";"1";"1";"126";"125";"module.training_block4.exec-8029.GoNoGo4";;;;;;;;;;;;;;;;;;;;;;;;;;;;;;;;;;;;;;;;;;;;;;;;;;;;;;;;;;;"1249";"2014-10-15 18:16:18.760";"NST_correctLoc";"32";"1";"FINISHED";"RIGHT";"success";"508";"0";"2014-10-15 18:16:17.510";"3";;;;;;;;;;;;;;;;;;;;;
"AvillN";"1995";;"Windows 7";"Rachel's Experiment (D.T.)";"1.0";"2";"1";"1";"2";"1";"1";"2014-10-15 18:09:08.379";"2014-10-15 18:22:07.359";"1";"1";"1";"127";"126";"module.training_block4.exec-8029.GoNoGo4";;;;;;;;;;;;;;;;;;;;;;;;;;;;;;;;;;;;;;;;;;;;;;;;;;;;;;;;;;;"1249";"2014-10-15 18:16:21.319";"NST_correctLoc";"33";"1";"FINISHED";"RIGHT";"success";"590";"0";"2014-10-15 18:16:20.069";"3";;;;;;;;;;;;;;;;;;;;;
"AvillN";"1995";;"Windows 7";"Rachel's Experiment (D.T.)";"1.0";"2";"1";"1";"2";"1";"1";"2014-10-15 18:09:08.379";"2014-10-15 18:22:07.359";"1";"1";"1";"128";"127";"module.training_block4.exec-8029.GoNoGo4";;;;;;;;;;;;;;;;;;;;;;;;;;;;;;;;;;;;;;;;;;;;;;;;;;;;;;;;;;;"1249";"2014-10-15 18:16:23.934";"NST_miss";"30";"1";"FINISHED";"NONE";"failure";"0";"0";"2014-10-15 18:16:22.684";"3";;;;;;;;;;;;;;;;;;;;;
"AvillN";"1995";;"Windows 7";"Rachel's Experiment (D.T.)";"1.0";"2";"1";"1";"2";"1";"1";"2014-10-15 18:09:08.379";"2014-10-15 18:22:07.359";"1";"1";"1";"129";"128";"module.training_block4.exec-8029.GoNoGo4";;;;;;;;;;;;;;;;;;;;;;;;;;;;;;;;;;;;;;;;;;;;;;;;;;;;;;;;;;;"1249";"2014-10-15 18:16:26.482";"NST_correctLoc";"35";"1";"FINISHED";"RIGHT";"success";"521";"0";"2014-10-15 18:16:25.232";"3";;;;;;;;;;;;;;;;;;;;;
"AvillN";"1995";;"Windows 7";"Rachel's Experiment (D.T.)";"1.0";"2";"1";"1";"2";"1";"1";"2014-10-15 18:09:08.379";"2014-10-15 18:22:07.359";"1";"1";"1";"130";"129";"module.training_block4.exec-8029.GoNoGo4";;;;;;;;;;;;;;;;;;;;;;;;;;;;;;;;;;;;;;;;;;;;;;;;;;;;;;;;;;;"1249";"2014-10-15 18:16:29.021";"ST_failedStop";"34";"0";"FINISHED";"LEFT";"failure";"588";"1";"2014-10-15 18:16:27.770";"3";;;;;;;;;;;;;;;;;;;;;
"AvillN";"1995";;"Windows 7";"Rachel's Experiment (D.T.)";"1.0";"2";"1";"1";"2";"1";"1";"2014-10-15 18:09:08.379";"2014-10-15 18:22:07.359";"1";"1";"1";"131";"130";"module.training_block4.exec-8029.GoNoGo4";;;;;;;;;;;;;;;;;;;;;;;;;;;;;;;;;;;;;;;;;;;;;;;;;;;;;;;;;;;"1249";"2014-10-15 18:16:31.568";"ST_correctStop";"7";"1";"FINISHED";"NONE";"success";"0";"1";"2014-10-15 18:16:30.318";"1";;;;;;;;;;;;;;;;;;;;;
"AvillN";"1995";;"Windows 7";"Rachel's Experiment (D.T.)";"1.0";"2";"1";"1";"2";"1";"1";"2014-10-15 18:09:08.379";"2014-10-15 18:22:07.359";"1";"1";"1";"132";"131";"module.training_block4.exec-8029.GoNoGo4";;;;;;;;;;;;;;;;;;;;;;;;;;;;;;;;;;;;;;;;;;;;;;;;;;;;;;;;;;;"1249";"2014-10-15 18:16:34.126";"ST_correctStop";"19";"1";"FINISHED";"NONE";"success";"0";"1";"2014-10-15 18:16:32.876";"3";;;;;;;;;;;;;;;;;;;;;
"AvillN";"1995";;"Windows 7";"Rachel's Experiment (D.T.)";"1.0";"2";"1";"1";"2";"1";"1";"2014-10-15 18:09:08.379";"2014-10-15 18:22:07.359";"1";"1";"1";"133";"132";"module.training_block4.exec-8029.GoNoGo4";;;;;;;;;;;;;;;;;;;;;;;;;;;;;;;;;;;;;;;;;;;;;;;;;;;;;;;;;;;"1250";"2014-10-15 18:16:36.666";"ST_correctStop";"28";"0";"FINISHED";"NONE";"success";"0";"1";"2014-10-15 18:16:35.416";"3";;;;;;;;;;;;;;;;;;;;;
"AvillN";"1995";;"Windows 7";"Rachel's Experiment (D.T.)";"1.0";"2";"1";"1";"2";"1";"1";"2014-10-15 18:09:08.379";"2014-10-15 18:22:07.359";"1";"1";"1";"134";"133";"module.training_block4.exec-8029.GoNoGo4";;;;;;;;;;;;;;;;;;;;;;;;;;;;;;;;;;;;;;;;;;;;;;;;;;;;;;;;;;;"1249";"2014-10-15 18:16:39.207";"NST_correctLoc";"11";"0";"FINISHED";"LEFT";"success";"604";"0";"2014-10-15 18:16:37.957";"2";;;;;;;;;;;;;;;;;;;;;
"AvillN";"1995";;"Windows 7";"Rachel's Experiment (D.T.)";"1.0";"2";"1";"1";"2";"1";"1";"2014-10-15 18:09:08.379";"2014-10-15 18:22:07.359";"1";"1";"1";"135";"134";"module.training_block4.exec-8029.GoNoGo4";;;;;;;;;;;;;;;;;;;;;;;;;;;;;;;;;;;;;;;;;;;;;;;;;;;;;;;;;;;"1249";"2014-10-15 18:16:41.751";"NST_correctLoc";"25";"1";"FINISHED";"RIGHT";"success";"572";"0";"2014-10-15 18:16:40.501";"3";;;;;;;;;;;;;;;;;;;;;
"AvillN";"1995";;"Windows 7";"Rachel's Experiment (D.T.)";"1.0";"2";"1";"1";"2";"1";"1";"2014-10-15 18:09:08.379";"2014-10-15 18:22:07.359";"1";"1";"1";"136";"135";"module.training_block4.exec-8029.GoNoGo4";;;;;;;;;;;;;;;;;;;;;;;;;;;;;;;;;;;;;;;;;;;;;;;;;;;;;;;;;;;"1249";"2014-10-15 18:16:44.321";"NST_correctLoc";"24";"0";"FINISHED";"LEFT";"success";"402";"0";"2014-10-15 18:16:43.071";"3";;;;;;;;;;;;;;;;;;;;;
"AvillN";"1995";;"Windows 7";"Rachel's Experiment (D.T.)";"1.0";"2";"1";"1";"2";"1";"1";"2014-10-15 18:09:08.379";"2014-10-15 18:22:07.359";"1";"1";"1";"137";"136";"module.training_block4.exec-8029.GoNoGo4";;;;;;;;;;;;;;;;;;;;;;;;;;;;;;;;;;;;;;;;;;;;;;;;;;;;;;;;;;;"1249";"2014-10-15 18:16:46.861";"NST_correctLoc";"14";"0";"FINISHED";"LEFT";"success";"498";"0";"2014-10-15 18:16:45.611";"2";;;;;;;;;;;;;;;;;;;;;
"AvillN";"1995";;"Windows 7";"Rachel's Experiment (D.T.)";"1.0";"2";"1";"1";"2";"1";"1";"2014-10-15 18:09:08.379";"2014-10-15 18:22:07.359";"1";"1";"1";"138";"137";"module.training_block4.exec-8029.GoNoGo4";;;;;;;;;;;;;;;;;;;;;;;;;;;;;;;;;;;;;;;;;;;;;;;;;;;;;;;;;;;"1250";"2014-10-15 18:16:49.399";"ST_correctStop";"21";"0";"FINISHED";"NONE";"success";"0";"1";"2014-10-15 18:16:48.149";"3";;;;;;;;;;;;;;;;;;;;;
"AvillN";"1995";;"Windows 7";"Rachel's Experiment (D.T.)";"1.0";"2";"1";"1";"2";"1";"1";"2014-10-15 18:09:08.379";"2014-10-15 18:22:07.359";"1";"1";"1";"139";"138";"module.training_block4.exec-8029.GoNoGo4";;;;;;;;;;;;;;;;;;;;;;;;;;;;;;;;;;;;;;;;;;;;;;;;;;;;;;;;;;;"1249";"2014-10-15 18:16:51.972";"NST_correctLoc";"23";"1";"FINISHED";"RIGHT";"success";"504";"0";"2014-10-15 18:16:50.722";"3";;;;;;;;;;;;;;;;;;;;;
"AvillN";"1995";;"Windows 7";"Rachel's Experiment (D.T.)";"1.0";"2";"1";"1";"2";"1";"1";"2014-10-15 18:09:08.379";"2014-10-15 18:22:07.359";"1";"1";"1";"140";"139";"module.training_block4.exec-8029.GoNoGo4";;;;;;;;;;;;;;;;;;;;;;;;;;;;;;;;;;;;;;;;;;;;;;;;;;;;;;;;;;;"1249";"2014-10-15 18:16:54.517";"NST_correctLoc";"17";"0";"FINISHED";"LEFT";"success";"511";"0";"2014-10-15 18:16:53.267";"2";;;;;;;;;;;;;;;;;;;;;
"AvillN";"1995";;"Windows 7";"Rachel's Experiment (D.T.)";"1.0";"2";"1";"1";"2";"1";"1";"2014-10-15 18:09:08.379";"2014-10-15 18:22:07.359";"1";"1";"1";"141";"140";"module.training_block4.exec-8029.GoNoGo4";;;;;;;;;;;;;;;;;;;;;;;;;;;;;;;;;;;;;;;;;;;;;;;;;;;;;;;;;;;"1249";"2014-10-15 18:16:57.061";"NST_correctLoc";"16";"1";"FINISHED";"RIGHT";"success";"570";"0";"2014-10-15 18:16:55.811";"2";;;;;;;;;;;;;;;;;;;;;
"AvillN";"1995";;"Windows 7";"Rachel's Experiment (D.T.)";"1.0";"2";"1";"1";"2";"1";"1";"2014-10-15 18:09:08.379";"2014-10-15 18:22:07.359";"1";"1";"1";"142";"141";"module.training_block4.exec-8029.GoNoGo4";;;;;;;;;;;;;;;;;;;;;;;;;;;;;;;;;;;;;;;;;;;;;;;;;;;;;;;;;;;"1250";"2014-10-15 18:16:59.600";"ST_correctStop";"5";"1";"FINISHED";"NONE";"success";"0";"1";"2014-10-15 18:16:58.350";"1";;;;;;;;;;;;;;;;;;;;;
"AvillN";"1995";;"Windows 7";"Rachel's Experiment (D.T.)";"1.0";"2";"1";"1";"2";"1";"1";"2014-10-15 18:09:08.379";"2014-10-15 18:22:07.359";"1";"1";"1";"143";"142";"module.training_block4.exec-8029.GoNoGo4";;;;;;;;;;;;;;;;;;;;;;;;;;;;;;;;;;;;;;;;;;;;;;;;;;;;;;;;;;;"1249";"2014-10-15 18:17:02.152";"ST_correctStop";"31";"0";"FINISHED";"NONE";"success";"0";"1";"2014-10-15 18:17:00.902";"3";;;;;;;;;;;;;;;;;;;;;
"AvillN";"1995";;"Windows 7";"Rachel's Experiment (D.T.)";"1.0";"2";"1";"1";"2";"1";"1";"2014-10-15 18:09:08.379";"2014-10-15 18:22:07.359";"1";"1";"1";"144";"143";"module.training_block4.exec-8029.GoNoGo4";;;;;;;;;;;;;;;;;;;;;;;;;;;;;;;;;;;;;;;;;;;;;;;;;;;;;;;;;;;"1249";"2014-10-15 18:17:04.690";"NST_correctLoc";"15";"1";"FINISHED";"RIGHT";"success";"523";"0";"2014-10-15 18:17:03.440";"2";;;;;;;;;;;;;;;;;;;;;
"AvillN";"1995";;"Windows 7";"Rachel's Experiment (D.T.)";"1.0";"2";"1";"1";"2";"1";"1";"2014-10-15 18:09:08.379";"2014-10-15 18:22:07.359";"1";"1";"1";"145";"144";"module.training_block4.exec-8029.GoNoGo4";;;;;;;;;;;;;;;;;;;;;;;;;;;;;;;;;;;;;;;;;;;;;;;;;;;;;;;;;;;"1249";"2014-10-15 18:17:07.227";"ST_correctStop";"3";"0";"FINISHED";"NONE";"success";"0";"1";"2014-10-15 18:17:05.977";"1";;;;;;;;;;;;;;;;;;;;;
"AvillN";"1995";;"Windows 7";"Rachel's Experiment (D.T.)";"1.0";"2";"1";"1";"2";"1";"1";"2014-10-15 18:09:08.379";"2014-10-15 18:22:07.359";"1";"1";"1";"146";"145";"module.training_block4.exec-8029.GoNoGo4";;;;;;;;;;;;;;;;;;;;;;;;;;;;;;;;;;;;;;;;;;;;;;;;;;;;;;;;;;;"1250";"2014-10-15 18:17:09.792";"ST_correctStop";"27";"1";"FINISHED";"NONE";"success";"0";"1";"2014-10-15 18:17:08.542";"3";;;;;;;;;;;;;;;;;;;;;
"AvillN";"1995";;"Windows 7";"Rachel's Experiment (D.T.)";"1.0";"2";"1";"1";"2";"1";"1";"2014-10-15 18:09:08.379";"2014-10-15 18:22:07.359";"1";"1";"1";"147";"146";"module.training_block4.exec-8029.GoNoGo4";;;;;;;;;;;;;;;;;;;;;;;;;;;;;;;;;;;;;;;;;;;;;;;;;;;;;;;;;;;"1249";"2014-10-15 18:17:12.328";"NST_correctLoc";"18";"1";"FINISHED";"RIGHT";"success";"381";"0";"2014-10-15 18:17:11.078";"3";;;;;;;;;;;;;;;;;;;;;
"AvillN";"1995";;"Windows 7";"Rachel's Experiment (D.T.)";"1.0";"2";"1";"1";"2";"1";"1";"2014-10-15 18:09:08.379";"2014-10-15 18:22:07.359";"1";"1";"1";"148";"147";"module.training_block4.exec-8029.GoNoGo4";;;;;;;;;;;;;;;;;;;;;;;;;;;;;;;;;;;;;;;;;;;;;;;;;;;;;;;;;;;"1249";"2014-10-15 18:17:14.869";"NST_correctLoc";"20";"1";"FINISHED";"RIGHT";"success";"912";"0";"2014-10-15 18:17:13.619";"3";;;;;;;;;;;;;;;;;;;;;
"AvillN";"1995";;"Windows 7";"Rachel's Experiment (D.T.)";"1.0";"2";"1";"1";"2";"1";"1";"2014-10-15 18:09:08.379";"2014-10-15 18:22:07.359";"1";"1";"1";"149";"148";"module.training_block4.exec-8029.GoNoGo4";;;;;;;;;;;;;;;;;;;;;;;;;;;;;;;;;;;;;;;;;;;;;;;;;;;;;;;;;;;"1249";"2014-10-15 18:17:17.410";"NST_correctLoc";"9";"0";"FINISHED";"LEFT";"success";"708";"0";"2014-10-15 18:17:16.160";"2";;;;;;;;;;;;;;;;;;;;;
"AvillN";"1995";;"Windows 7";"Rachel's Experiment (D.T.)";"1.0";"2";"1";"1";"2";"1";"1";"2014-10-15 18:09:08.379";"2014-10-15 18:22:07.359";"1";"1";"1";"150";"149";"module.training_block4.exec-8029.GoNoGo4";;;;;;;;;;;;;;;;;;;;;;;;;;;;;;;;;;;;;;;;;;;;;;;;;;;;;;;;;;;"1249";"2014-10-15 18:17:19.957";"ST_correctStop";"22";"0";"FINISHED";"NONE";"success";"0";"1";"2014-10-15 18:17:18.707";"3";;;;;;;;;;;;;;;;;;;;;
"AvillN";"1995";;"Windows 7";"Rachel's Experiment (D.T.)";"1.0";"2";"1";"1";"2";"1";"1";"2014-10-15 18:09:08.379";"2014-10-15 18:22:07.359";"1";"1";"1";"151";"150";"module.training_block4.exec-8029.GoNoGo4";;;;;;;;;;;;;;;;;;;;;;;;;;;;;;;;;;;;;;;;;;;;;;;;;;;;;;;;;;;"1249";"2014-10-15 18:17:22.495";"NST_correctLoc";"10";"0";"FINISHED";"LEFT";"success";"517";"0";"2014-10-15 18:17:21.245";"2";;;;;;;;;;;;;;;;;;;;;
"AvillN";"1995";;"Windows 7";"Rachel's Experiment (D.T.)";"1.0";"2";"1";"1";"2";"1";"1";"2014-10-15 18:09:08.379";"2014-10-15 18:22:07.359";"1";"1";"1";"152";"151";"module.training_block4.exec-8029.GoNoGo4";;;;;;;;;;;;;;;;;;;;;;;;;;;;;;;;;;;;;;;;;;;;;;;;;;;;;;;;;;;"1250";"2014-10-15 18:17:25.033";"ST_failedStop";"0";"1";"FINISHED";"RIGHT";"failure";"420";"1";"2014-10-15 18:17:23.783";"1";;;;;;;;;;;;;;;;;;;;;
"AvillN";"1995";;"Windows 7";"Rachel's Experiment (D.T.)";"1.0";"2";"1";"1";"2";"1";"1";"2014-10-15 18:09:08.379";"2014-10-15 18:22:07.359";"1";"1";"1";"153";"152";"module.training_block4.exec-8029.GoNoGo4";;;;;;;;;;;;;;;;;;;;;;;;;;;;;;;;;;;;;;;;;;;;;;;;;;;;;;;;;;;"1249";"2014-10-15 18:17:27.583";"ST_correctStop";"2";"0";"FINISHED";"NONE";"success";"0";"1";"2014-10-15 18:17:26.333";"1";;;;;;;;;;;;;;;;;;;;;
"AvillN";"1995";;"Windows 7";"Rachel's Experiment (D.T.)";"1.0";"2";"1";"1";"2";"1";"1";"2014-10-15 18:09:08.379";"2014-10-15 18:22:07.359";"1";"1";"1";"154";"153";"module.training_block4.exec-8029.GoNoGo4";;;;;;;;;;;;;;;;;;;;;;;;;;;;;;;;;;;;;;;;;;;;;;;;;;;;;;;;;;;"1249";"2014-10-15 18:17:30.126";"ST_correctStop";"26";"0";"FINISHED";"NONE";"success";"0";"1";"2014-10-15 18:17:28.876";"3";;;;;;;;;;;;;;;;;;;;;
"AvillN";"1995";;"Windows 7";"Rachel's Experiment (D.T.)";"1.0";"2";"1";"1";"2";"1";"1";"2014-10-15 18:09:08.379";"2014-10-15 18:22:07.359";"1";"1";"1";"155";"154";"module.training_block4.exec-8029.GoNoGo4";;;;;;;;;;;;;;;;;;;;;;;;;;;;;;;;;;;;;;;;;;;;;;;;;;;;;;;;;;;"1249";"2014-10-15 18:17:32.671";"ST_correctStop";"4";"1";"FINISHED";"NONE";"success";"0";"1";"2014-10-15 18:17:31.421";"1";;;;;;;;;;;;;;;;;;;;;
"AvillN";"1995";;"Windows 7";"Rachel's Experiment (D.T.)";"1.0";"2";"1";"1";"2";"1";"1";"2014-10-15 18:09:08.379";"2014-10-15 18:22:07.359";"1";"1";"1";"156";"155";"module.training_block4.exec-8029.GoNoGo4";;;;;;;;;;;;;;;;;;;;;;;;;;;;;;;;;;;;;;;;;;;;;;;;;;;;;;;;;;;"1249";"2014-10-15 18:17:35.211";"ST_correctStop";"1";"0";"FINISHED";"NONE";"success";"0";"1";"2014-10-15 18:17:33.961";"1";;;;;;;;;;;;;;;;;;;;;
"AvillN";"1995";;"Windows 7";"Rachel's Experiment (D.T.)";"1.0";"2";"1";"1";"2";"1";"1";"2014-10-15 18:09:08.379";"2014-10-15 18:22:07.359";"1";"1";"1";"157";"156";"module.training_block4.exec-8029.GoNoGo4";;;;;;;;;;;;;;;;;;;;;;;;;;;;;;;;;;;;;;;;;;;;;;;;;;;;;;;;;;;"1249";"2014-10-15 18:17:37.762";"NST_correctLoc";"12";"0";"FINISHED";"LEFT";"success";"802";"0";"2014-10-15 18:17:36.512";"2";;;;;;;;;;;;;;;;;;;;;
"AvillN";"1995";;"Windows 7";"Rachel's Experiment (D.T.)";"1.0";"2";"1";"1";"2";"1";"1";"2014-10-15 18:09:08.379";"2014-10-15 18:22:07.359";"1";"1";"1";"158";"157";"module.training_block4.exec-8029.GoNoGo4";;;;;;;;;;;;;;;;;;;;;;;;;;;;;;;;;;;;;;;;;;;;;;;;;;;;;;;;;;;"1251";"2014-10-15 18:17:40.298";"ST_failedStop";"8";"0";"FINISHED";"LEFT";"failure";"594";"1";"2014-10-15 18:17:39.048";"1";;;;;;;;;;;;;;;;;;;;;
"AvillN";"1995";;"Windows 7";"Rachel's Experiment (D.T.)";"1.0";"2";"1";"1";"2";"1";"1";"2014-10-15 18:09:08.379";"2014-10-15 18:22:07.359";"1";"1";"1";"159";"158";"module.training_block4.exec-8029.GoNoGo4";;;;;;;;;;;;;;;;;;;;;;;;;;;;;;;;;;;;;;;;;;;;;;;;;;;;;;;;;;;"1249";"2014-10-15 18:17:42.833";"NST_correctLoc";"13";"1";"FINISHED";"RIGHT";"success";"557";"0";"2014-10-15 18:17:41.583";"2";;;;;;;;;;;;;;;;;;;;;
"AvillN";"1995";;"Windows 7";"Rachel's Experiment (D.T.)";"1.0";"2";"1";"1";"2";"1";"1";"2014-10-15 18:09:08.379";"2014-10-15 18:22:07.359";"1";"1";"1";"160";"159";"module.devaluation_practice.exec-7239.devalPractice";;;;;;;;;;;;"19440";"2014-10-15 18:18:18.136";"0";"5";"5";"5";"2519";"1802";"12078";"2014-10-15 18:17:58.697";;;;;;;;;;;;;;;;;;;;;;;;;;;;;;;;;;;;;;;;;;;;;;;;;;;;;;;;;;;;;;;;;;;;;;
"AvillN";"1995";;"Windows 7";"Rachel's Experiment (D.T.)";"1.0";"2";"1";"1";"2";"1";"1";"2014-10-15 18:09:08.379";"2014-10-15 18:22:07.359";"1";"1";"1";"161";"160";"module.devaluation_practice.exec-7239.devalPractice";;;;;;;;;;;;"18211";"2014-10-15 18:18:36.423";"1";"3";"1";"2";"2132";"2011";"11058";"2014-10-15 18:18:18.213";;;;;;;;;;;;;;;;;;;;;;;;;;;;;;;;;;;;;;;;;;;;;;;;;;;;;;;;;;;;;;;;;;;;;;
"AvillN";"1995";;"Windows 7";"Rachel's Experiment (D.T.)";"1.0";"2";"1";"1";"2";"1";"1";"2014-10-15 18:09:08.379";"2014-10-15 18:22:07.359";"1";"1";"1";"162";"161";"module.devaluation_practice.exec-7239.devalPractice";;;;;;;;;;;;"8281";"2014-10-15 18:18:44.742";"2";"6";"8";"8";"1847";"2076";"1351";"2014-10-15 18:18:36.462";;;;;;;;;;;;;;;;;;;;;;;;;;;;;;;;;;;;;;;;;;;;;;;;;;;;;;;;;;;;;;;;;;;;;;
"AvillN";"1995";;"Windows 7";"Rachel's Experiment (D.T.)";"1.0";"2";"1";"1";"2";"1";"1";"2014-10-15 18:09:08.379";"2014-10-15 18:22:07.359";"1";"1";"1";"163";"162";"module.devaluation_practice.exec-7239.devalPractice";;;;;;;;;;;;"8034";"2014-10-15 18:18:52.828";"3";"4";"4";"4";"1637";"976";"2414";"2014-10-15 18:18:44.793";;;;;;;;;;;;;;;;;;;;;;;;;;;;;;;;;;;;;;;;;;;;;;;;;;;;;;;;;;;;;;;;;;;;;;
"AvillN";"1995";;"Windows 7";"Rachel's Experiment (D.T.)";"1.0";"2";"1";"1";"2";"1";"1";"2014-10-15 18:09:08.379";"2014-10-15 18:22:07.359";"1";"1";"1";"164";"163";"module.devaluation_block1.exec-6831.deval1";"9167";"2014-10-15 18:19:09.208";"24";"9";"4";"9";"1920";"1455";"2779";"2014-10-15 18:19:00.039";"3";;;;;;;;;;;;;;;;;;;;;;;;;;;;;;;;;;;;;;;;;;;;;;;;;;;;;;;;;;;;;;;;;;;;;;;;;;;;;;;;
"AvillN";"1995";;"Windows 7";"Rachel's Experiment (D.T.)";"1.0";"2";"1";"1";"2";"1";"1";"2014-10-15 18:09:08.379";"2014-10-15 18:22:07.359";"1";"1";"1";"165";"164";"module.devaluation_block1.exec-6831.deval1";"8662";"2014-10-15 18:19:17.911";"3";"7";"3";"8";"2847";"1340";"1467";"2014-10-15 18:19:09.249";"1";;;;;;;;;;;;;;;;;;;;;;;;;;;;;;;;;;;;;;;;;;;;;;;;;;;;;;;;;;;;;;;;;;;;;;;;;;;;;;;;
"AvillN";"1995";;"Windows 7";"Rachel's Experiment (D.T.)";"1.0";"2";"1";"1";"2";"1";"1";"2014-10-15 18:09:08.379";"2014-10-15 18:22:07.359";"1";"1";"1";"166";"165";"module.devaluation_block1.exec-6831.deval1";"6599";"2014-10-15 18:19:24.560";"1";"8";"9";"9";"1111";"1336";"1144";"2014-10-15 18:19:17.959";"1";;;;;;;;;;;;;;;;;;;;;;;;;;;;;;;;;;;;;;;;;;;;;;;;;;;;;;;;;;;;;;;;;;;;;;;;;;;;;;;;
"AvillN";"1995";;"Windows 7";"Rachel's Experiment (D.T.)";"1.0";"2";"1";"1";"2";"1";"1";"2014-10-15 18:09:08.379";"2014-10-15 18:22:07.359";"1";"1";"1";"167";"166";"module.devaluation_block1.exec-6831.deval1";"8450";"2014-10-15 18:19:33.047";"5";"6";"8";"8";"1716";"1402";"2322";"2014-10-15 18:19:24.598";"1";;;;;;;;;;;;;;;;;;;;;;;;;;;;;;;;;;;;;;;;;;;;;;;;;;;;;;;;;;;;;;;;;;;;;;;;;;;;;;;;
"AvillN";"1995";;"Windows 7";"Rachel's Experiment (D.T.)";"1.0";"2";"1";"1";"2";"1";"1";"2014-10-15 18:09:08.379";"2014-10-15 18:22:07.359";"1";"1";"1";"168";"167";"module.devaluation_block1.exec-6831.deval1";"6617";"2014-10-15 18:19:39.716";"15";"1";"1";"1";"1261";"1150";"1196";"2014-10-15 18:19:33.099";"2";;;;;;;;;;;;;;;;;;;;;;;;;;;;;;;;;;;;;;;;;;;;;;;;;;;;;;;;;;;;;;;;;;;;;;;;;;;;;;;;
"AvillN";"1995";;"Windows 7";"Rachel's Experiment (D.T.)";"1.0";"2";"1";"1";"2";"1";"1";"2014-10-15 18:09:08.379";"2014-10-15 18:22:07.359";"1";"1";"1";"169";"168";"module.devaluation_block1.exec-6831.deval1";"6300";"2014-10-15 18:19:46.056";"13";"7";"7";"8";"838";"924";"1528";"2014-10-15 18:19:39.755";"2";;;;;;;;;;;;;;;;;;;;;;;;;;;;;;;;;;;;;;;;;;;;;;;;;;;;;;;;;;;;;;;;;;;;;;;;;;;;;;;;
"AvillN";"1995";;"Windows 7";"Rachel's Experiment (D.T.)";"1.0";"2";"1";"1";"2";"1";"1";"2014-10-15 18:09:08.379";"2014-10-15 18:22:07.359";"1";"1";"1";"170";"169";"module.devaluation_block1.exec-6831.deval1";"6036";"2014-10-15 18:19:52.144";"22";"7";"8";"7";"1120";"1045";"861";"2014-10-15 18:19:46.109";"3";;;;;;;;;;;;;;;;;;;;;;;;;;;;;;;;;;;;;;;;;;;;;;;;;;;;;;;;;;;;;;;;;;;;;;;;;;;;;;;;
"AvillN";"1995";;"Windows 7";"Rachel's Experiment (D.T.)";"1.0";"2";"1";"1";"2";"1";"1";"2014-10-15 18:09:08.379";"2014-10-15 18:22:07.359";"1";"1";"1";"171";"170";"module.devaluation_block1.exec-6831.deval1";"6047";"2014-10-15 18:19:58.239";"11";"3";"2";"4";"1200";"1046";"791";"2014-10-15 18:19:52.191";"2";;;;;;;;;;;;;;;;;;;;;;;;;;;;;;;;;;;;;;;;;;;;;;;;;;;;;;;;;;;;;;;;;;;;;;;;;;;;;;;;
"AvillN";"1995";;"Windows 7";"Rachel's Experiment (D.T.)";"1.0";"2";"1";"1";"2";"1";"1";"2014-10-15 18:09:08.379";"2014-10-15 18:22:07.359";"1";"1";"1";"172";"171";"module.devaluation_block1.exec-6831.deval1";"6390";"2014-10-15 18:20:04.669";"17";"1";"1";"1";"1315";"1001";"1062";"2014-10-15 18:19:58.281";"2";;;;;;;;;;;;;;;;;;;;;;;;;;;;;;;;;;;;;;;;;;;;;;;;;;;;;;;;;;;;;;;;;;;;;;;;;;;;;;;;
"AvillN";"1995";;"Windows 7";"Rachel's Experiment (D.T.)";"1.0";"2";"1";"1";"2";"1";"1";"2014-10-15 18:09:08.379";"2014-10-15 18:22:07.359";"1";"1";"1";"173";"172";"module.devaluation_block1.exec-6831.deval1";"8094";"2014-10-15 18:20:12.803";"18";"6";"4";"5";"1955";"1192";"1937";"2014-10-15 18:20:04.710";"3";;;;;;;;;;;;;;;;;;;;;;;;;;;;;;;;;;;;;;;;;;;;;;;;;;;;;;;;;;;;;;;;;;;;;;;;;;;;;;;;
"AvillN";"1995";;"Windows 7";"Rachel's Experiment (D.T.)";"1.0";"2";"1";"1";"2";"1";"1";"2014-10-15 18:09:08.379";"2014-10-15 18:22:07.359";"1";"1";"1";"174";"173";"module.devaluation_block1.exec-6831.deval1";"9131";"2014-10-15 18:20:21.985";"19";"8";"9";"8";"3433";"970";"1717";"2014-10-15 18:20:12.854";"3";;;;;;;;;;;;;;;;;;;;;;;;;;;;;;;;;;;;;;;;;;;;;;;;;;;;;;;;;;;;;;;;;;;;;;;;;;;;;;;;
"AvillN";"1995";;"Windows 7";"Rachel's Experiment (D.T.)";"1.0";"2";"1";"1";"2";"1";"1";"2014-10-15 18:09:08.379";"2014-10-15 18:22:07.359";"1";"1";"1";"175";"174";"module.devaluation_block1.exec-6831.deval1";"8861";"2014-10-15 18:20:30.890";"25";"3";"2";"3";"2061";"1792";"1998";"2014-10-15 18:20:22.031";"3";;;;;;;;;;;;;;;;;;;;;;;;;;;;;;;;;;;;;;;;;;;;;;;;;;;;;;;;;;;;;;;;;;;;;;;;;;;;;;;;
"AvillN";"1995";;"Windows 7";"Rachel's Experiment (D.T.)";"1.0";"2";"1";"1";"2";"1";"1";"2014-10-15 18:09:08.379";"2014-10-15 18:22:07.359";"1";"1";"1";"176";"175";"module.devaluation_block1.exec-6831.deval1";"9749";"2014-10-15 18:20:40.744";"7";"6";"4";"5";"3540";"1018";"2181";"2014-10-15 18:20:30.996";"1";;;;;;;;;;;;;;;;;;;;;;;;;;;;;;;;;;;;;;;;;;;;;;;;;;;;;;;;;;;;;;;;;;;;;;;;;;;;;;;;
"AvillN";"1995";;"Windows 7";"Rachel's Experiment (D.T.)";"1.0";"2";"1";"1";"2";"1";"1";"2014-10-15 18:09:08.379";"2014-10-15 18:22:07.359";"1";"1";"1";"177";"176";"module.devaluation_block1.exec-6831.deval1";"9373";"2014-10-15 18:20:50.156";"6";"6";"6";"6";"5189";"473";"701";"2014-10-15 18:20:40.783";"1";;;;;;;;;;;;;;;;;;;;;;;;;;;;;;;;;;;;;;;;;;;;;;;;;;;;;;;;;;;;;;;;;;;;;;;;;;;;;;;;
"AvillN";"1995";;"Windows 7";"Rachel's Experiment (D.T.)";"1.0";"2";"1";"1";"2";"1";"1";"2014-10-15 18:09:08.379";"2014-10-15 18:22:07.359";"1";"1";"1";"178";"177";"module.devaluation_block1.exec-6831.deval1";"6385";"2014-10-15 18:20:56.579";"4";"8";"8";"9";"1311";"945";"1116";"2014-10-15 18:20:50.194";"1";;;;;;;;;;;;;;;;;;;;;;;;;;;;;;;;;;;;;;;;;;;;;;;;;;;;;;;;;;;;;;;;;;;;;;;;;;;;;;;;
"AvillN";"1995";;"Windows 7";"Rachel's Experiment (D.T.)";"1.0";"2";"1";"1";"2";"1";"1";"2014-10-15 18:09:08.379";"2014-10-15 18:22:07.359";"1";"1";"1";"179";"178";"module.devaluation_block1.exec-6831.deval1";"5765";"2014-10-15 18:21:02.381";"20";"7";"7";"6";"883";"821";"1052";"2014-10-15 18:20:56.616";"3";;;;;;;;;;;;;;;;;;;;;;;;;;;;;;;;;;;;;;;;;;;;;;;;;;;;;;;;;;;;;;;;;;;;;;;;;;;;;;;;
"AvillN";"1995";;"Windows 7";"Rachel's Experiment (D.T.)";"1.0";"2";"1";"1";"2";"1";"1";"2014-10-15 18:09:08.379";"2014-10-15 18:22:07.359";"1";"1";"1";"180";"179";"module.devaluation_block1.exec-6831.deval1";"6122";"2014-10-15 18:21:08.543";"23";"3";"1";"3";"903";"1046";"1164";"2014-10-15 18:21:02.420";"3";;;;;;;;;;;;;;;;;;;;;;;;;;;;;;;;;;;;;;;;;;;;;;;;;;;;;;;;;;;;;;;;;;;;;;;;;;;;;;;;
"AvillN";"1995";;"Windows 7";"Rachel's Experiment (D.T.)";"1.0";"2";"1";"1";"2";"1";"1";"2014-10-15 18:09:08.379";"2014-10-15 18:22:07.359";"1";"1";"1";"181";"180";"module.devaluation_block1.exec-6831.deval1";"6627";"2014-10-15 18:21:15.208";"10";"9";"8";"7";"986";"752";"1879";"2014-10-15 18:21:08.581";"2";;;;;;;;;;;;;;;;;;;;;;;;;;;;;;;;;;;;;;;;;;;;;;;;;;;;;;;;;;;;;;;;;;;;;;;;;;;;;;;;
"AvillN";"1995";;"Windows 7";"Rachel's Experiment (D.T.)";"1.0";"2";"1";"1";"2";"1";"1";"2014-10-15 18:09:08.379";"2014-10-15 18:22:07.359";"1";"1";"1";"182";"181";"module.devaluation_block1.exec-6831.deval1";"5610";"2014-10-15 18:21:20.858";"8";"7";"6";"8";"1044";"791";"766";"2014-10-15 18:21:15.247";"1";;;;;;;;;;;;;;;;;;;;;;;;;;;;;;;;;;;;;;;;;;;;;;;;;;;;;;;;;;;;;;;;;;;;;;;;;;;;;;;;
"AvillN";"1995";;"Windows 7";"Rachel's Experiment (D.T.)";"1.0";"2";"1";"1";"2";"1";"1";"2014-10-15 18:09:08.379";"2014-10-15 18:22:07.359";"1";"1";"1";"183";"182";"module.devaluation_block1.exec-6831.deval1";"5972";"2014-10-15 18:21:26.867";"12";"9";"8";"8";"1147";"932";"876";"2014-10-15 18:21:20.895";"2";;;;;;;;;;;;;;;;;;;;;;;;;;;;;;;;;;;;;;;;;;;;;;;;;;;;;;;;;;;;;;;;;;;;;;;;;;;;;;;;
"AvillN";"1995";;"Windows 7";"Rachel's Experiment (D.T.)";"1.0";"2";"1";"1";"2";"1";"1";"2014-10-15 18:09:08.379";"2014-10-15 18:22:07.359";"1";"1";"1";"184";"183";"module.devaluation_block1.exec-6831.deval1";"5638";"2014-10-15 18:21:32.543";"9";"3";"1";"2";"735";"986";"907";"2014-10-15 18:21:26.905";"2";;;;;;;;;;;;;;;;;;;;;;;;;;;;;;;;;;;;;;;;;;;;;;;;;;;;;;;;;;;;;;;;;;;;;;;;;;;;;;;;
"AvillN";"1995";;"Windows 7";"Rachel's Experiment (D.T.)";"1.0";"2";"1";"1";"2";"1";"1";"2014-10-15 18:09:08.379";"2014-10-15 18:22:07.359";"1";"1";"1";"185";"184";"module.devaluation_block1.exec-6831.deval1";"5308";"2014-10-15 18:21:37.905";"0";"8";"9";"7";"956";"676";"666";"2014-10-15 18:21:32.597";"1";;;;;;;;;;;;;;;;;;;;;;;;;;;;;;;;;;;;;;;;;;;;;;;;;;;;;;;;;;;;;;;;;;;;;;;;;;;;;;;;
"AvillN";"1995";;"Windows 7";"Rachel's Experiment (D.T.)";"1.0";"2";"1";"1";"2";"1";"1";"2014-10-15 18:09:08.379";"2014-10-15 18:22:07.359";"1";"1";"1";"186";"185";"module.devaluation_block1.exec-6831.deval1";"5494";"2014-10-15 18:21:43.437";"16";"3";"1";"2";"665";"1003";"815";"2014-10-15 18:21:37.943";"2";;;;;;;;;;;;;;;;;;;;;;;;;;;;;;;;;;;;;;;;;;;;;;;;;;;;;;;;;;;;;;;;;;;;;;;;;;;;;;;;
"AvillN";"1995";;"Windows 7";"Rachel's Experiment (D.T.)";"1.0";"2";"1";"1";"2";"1";"1";"2014-10-15 18:09:08.379";"2014-10-15 18:22:07.359";"1";"1";"1";"187";"186";"module.devaluation_block1.exec-6831.deval1";"5351";"2014-10-15 18:21:48.826";"14";"6";"7";"7";"695";"853";"793";"2014-10-15 18:21:43.475";"2";;;;;;;;;;;;;;;;;;;;;;;;;;;;;;;;;;;;;;;;;;;;;;;;;;;;;;;;;;;;;;;;;;;;;;;;;;;;;;;;
"AvillN";"1995";;"Windows 7";"Rachel's Experiment (D.T.)";"1.0";"2";"1";"1";"2";"1";"1";"2014-10-15 18:09:08.379";"2014-10-15 18:22:07.359";"1";"1";"1";"188";"187";"module.devaluation_block1.exec-6831.deval1";"5630";"2014-10-15 18:21:54.510";"21";"9";"9";"9";"1027";"710";"882";"2014-10-15 18:21:48.880";"3";;;;;;;;;;;;;;;;;;;;;;;;;;;;;;;;;;;;;;;;;;;;;;;;;;;;;;;;;;;;;;;;;;;;;;;;;;;;;;;;
"AvillN";"1995";;"Windows 7";"Rachel's Experiment (D.T.)";"1.0";"2";"1";"1";"2";"1";"1";"2014-10-15 18:09:08.379";"2014-10-15 18:22:07.359";"1";"1";"1";"189";"188";"module.devaluation_block1.exec-6831.deval1";"5146";"2014-10-15 18:21:59.695";"26";"7";"7";"6";"726";"670";"738";"2014-10-15 18:21:54.550";"3";;;;;;;;;;;;;;;;;;;;;;;;;;;;;;;;;;;;;;;;;;;;;;;;;;;;;;;;;;;;;;;;;;;;;;;;;;;;;;;;
"AvillN";"1995";;"Windows 7";"Rachel's Experiment (D.T.)";"1.0";"2";"1";"1";"2";"1";"1";"2014-10-15 18:09:08.379";"2014-10-15 18:22:07.359";"1";"1";"1";"190";"189";"module.devaluation_block1.exec-6831.deval1";"5303";"2014-10-15 18:22:05.043";"2";"7";"7";"7";"1038";"601";"654";"2014-10-15 18:21:59.739";"1";;;;;;;;;;;;;;;;;;;;;;;;;;;;;;;;;;;;;;;;;;;;;;;;;;;;;;;;;;;;;;;;;;;;;;;;;;;;;;;;
