"user.name";"user.yearOfBirth";"user.sex";"user.osName";"module.name";"module.version";"module.online.subject.code";"module.online.study.id";"module.online.module.nr";"module.online.group.nr";"session.id";"session.index";"session.startTime";"session.endTime";"session.completed";"session.node-8166.conditionType";"session.node-8634.DevalQorder";"trial.id";"trial.index";"trial.name";"trial.deval1.durationTime";"trial.deval1.endTime";"trial.deval1.icon";"trial.deval1.Resp_Attractive";"trial.deval1.Resp_Eat";"trial.deval1.Resp_Taste";"trial.deval1.RT_Attractive";"trial.deval1.RT_Eat";"trial.deval1.RT_Taste";"trial.deval1.startTime";"trial.deval1.stimulus type";"trial.devalPractice.durationTime";"trial.devalPractice.endTime";"trial.devalPractice.icon";"trial.devalPractice.Resp_Attractive";"trial.devalPractice.Resp_Eat";"trial.devalPractice.Resp_Taste";"trial.devalPractice.RT_Attractive";"trial.devalPractice.RT_Eat";"trial.devalPractice.RT_Taste";"trial.devalPractice.startTime";"trial.devalPractice.stimulus type";"trial.GoNoGo1.durationTime";"trial.GoNoGo1.endTime";"trial.GoNoGo1.Error Type";"trial.GoNoGo1.icon";"trial.GoNoGo1.location";"trial.GoNoGo1.outcome";"trial.GoNoGo1.response";"trial.GoNoGo1.result";"trial.GoNoGo1.RT";"trial.GoNoGo1.signal";"trial.GoNoGo1.startTime";"trial.GoNoGo1.stimulus type";"trial.GoNoGo2.durationTime";"trial.GoNoGo2.endTime";"trial.GoNoGo2.Error Type";"trial.GoNoGo2.icon";"trial.GoNoGo2.location";"trial.GoNoGo2.outcome";"trial.GoNoGo2.response";"trial.GoNoGo2.result";"trial.GoNoGo2.RT";"trial.GoNoGo2.signal";"trial.GoNoGo2.startTime";"trial.GoNoGo2.stimulus type";"trial.GoNoGo3.durationTime";"trial.GoNoGo3.endTime";"trial.GoNoGo3.Error Type";"trial.GoNoGo3.icon";"trial.GoNoGo3.location";"trial.GoNoGo3.outcome";"trial.GoNoGo3.response";"trial.GoNoGo3.result";"trial.GoNoGo3.RT";"trial.GoNoGo3.signal";"trial.GoNoGo3.startTime";"trial.GoNoGo3.stimulus type";"trial.GoNoGo4.durationTime";"trial.GoNoGo4.endTime";"trial.GoNoGo4.Error Type";"trial.GoNoGo4.icon";"trial.GoNoGo4.location";"trial.GoNoGo4.outcome";"trial.GoNoGo4.response";"trial.GoNoGo4.result";"trial.GoNoGo4.RT";"trial.GoNoGo4.signal";"trial.GoNoGo4.startTime";"trial.GoNoGo4.stimulus type";"trial.GoNoGo_Practice.durationTime";"trial.GoNoGo_Practice.endTime";"trial.GoNoGo_Practice.icon";"trial.GoNoGo_Practice.location";"trial.GoNoGo_Practice.outcome";"trial.GoNoGo_Practice.response";"trial.GoNoGo_Practice.result";"trial.GoNoGo_Practice.RT";"trial.GoNoGo_Practice.signal";"trial.GoNoGo_Practice.startTime";"trial.GoNoGo_Practice.stimulus type";"trial.GoNoGo_Tutorial.durationTime";"trial.GoNoGo_Tutorial.endTime";"trial.GoNoGo_Tutorial.icon";"trial.GoNoGo_Tutorial.location";"trial.GoNoGo_Tutorial.outcome";"trial.GoNoGo_Tutorial.response";"trial.GoNoGo_Tutorial.result";"trial.GoNoGo_Tutorial.RT";"trial.GoNoGo_Tutorial.signal";"trial.GoNoGo_Tutorial.startTime"
"ellebelle123";"1995";;"Windows 7";"Rachel's Experiment (D.T.)";"1.0";"2";"1";"1";"2";"1";"1";"2014-10-15 15:20:57.963";"2014-10-15 15:35:57.133";"1";"1";"1";"1";"0";"module.GoNoGotutorial.exec-6499.GoNoGo_Tutorial";;;;;;;;;;;;;;;;;;;;;;;;;;;;;;;;;;;;;;;;;;;;;;;;;;;;;;;;;;;;;;;;;;;;;;;;;;;;;;;;;;"4001";"2014-10-15 15:22:03.842";"leftResponse";"0";"FINISHED";"LEFT";"success";"1889";"0";"2014-10-15 15:21:59.833"
"ellebelle123";"1995";;"Windows 7";"Rachel's Experiment (D.T.)";"1.0";"2";"1";"1";"2";"1";"1";"2014-10-15 15:20:57.963";"2014-10-15 15:35:57.133";"1";"1";"1";"2";"1";"module.GoNoGotutorial.exec-6499.GoNoGo_Tutorial";;;;;;;;;;;;;;;;;;;;;;;;;;;;;;;;;;;;;;;;;;;;;;;;;;;;;;;;;;;;;;;;;;;;;;;;;;;;;;;;;;"4003";"2014-10-15 15:22:09.161";"rightResponse";"1";"FINISHED";"RIGHT";"success";"981";"0";"2014-10-15 15:22:05.152"
"ellebelle123";"1995";;"Windows 7";"Rachel's Experiment (D.T.)";"1.0";"2";"1";"1";"2";"1";"1";"2014-10-15 15:20:57.963";"2014-10-15 15:35:57.133";"1";"1";"1";"3";"2";"module.GoNoGotutorial.exec-6499.GoNoGo_Tutorial";;;;;;;;;;;;;;;;;;;;;;;;;;;;;;;;;;;;;;;;;;;;;;;;;;;;;;;;;;;;;;;;;;;;;;;;;;;;;;;;;;"4003";"2014-10-15 15:22:14.465";"signalResponse";"0";"FINISHED";"NONE";"success";"0";"1";"2014-10-15 15:22:10.456"
"ellebelle123";"1995";;"Windows 7";"Rachel's Experiment (D.T.)";"1.0";"2";"1";"1";"2";"1";"1";"2014-10-15 15:20:57.963";"2014-10-15 15:35:57.133";"1";"1";"1";"4";"3";"module.GoNoGopractice.exec-7481.GoNoGo_Practice";;;;;;;;;;;;;;;;;;;;;;;;;;;;;;;;;;;;;;;;;;;;;;;;;;;;;;;;;;;;;;;;;;;;;;;"1959";"2014-10-15 15:22:21.735";"18";"0";"FINISHED";"LEFT";"success";"338";"0";"2014-10-15 15:22:19.769";"3";;;;;;;;;;
"ellebelle123";"1995";;"Windows 7";"Rachel's Experiment (D.T.)";"1.0";"2";"1";"1";"2";"1";"1";"2014-10-15 15:20:57.963";"2014-10-15 15:35:57.133";"1";"1";"1";"5";"4";"module.GoNoGopractice.exec-7481.GoNoGo_Practice";;;;;;;;;;;;;;;;;;;;;;;;;;;;;;;;;;;;;;;;;;;;;;;;;;;;;;;;;;;;;;;;;;;;;;;"1958";"2014-10-15 15:22:24.980";"21";"1";"FINISHED";"RIGHT";"success";"365";"0";"2014-10-15 15:22:23.014";"3";;;;;;;;;;
"ellebelle123";"1995";;"Windows 7";"Rachel's Experiment (D.T.)";"1.0";"2";"1";"1";"2";"1";"1";"2014-10-15 15:20:57.963";"2014-10-15 15:35:57.133";"1";"1";"1";"6";"5";"module.GoNoGopractice.exec-7481.GoNoGo_Practice";;;;;;;;;;;;;;;;;;;;;;;;;;;;;;;;;;;;;;;;;;;;;;;;;;;;;;;;;;;;;;;;;;;;;;;"1959";"2014-10-15 15:22:28.225";"14";"1";"FINISHED";"RIGHT";"failure";"577";"1";"2014-10-15 15:22:26.259";"2";;;;;;;;;;
"ellebelle123";"1995";;"Windows 7";"Rachel's Experiment (D.T.)";"1.0";"2";"1";"1";"2";"1";"1";"2014-10-15 15:20:57.963";"2014-10-15 15:35:57.133";"1";"1";"1";"7";"6";"module.GoNoGopractice.exec-7481.GoNoGo_Practice";;;;;;;;;;;;;;;;;;;;;;;;;;;;;;;;;;;;;;;;;;;;;;;;;;;;;;;;;;;;;;;;;;;;;;;"1959";"2014-10-15 15:22:31.469";"26";"0";"FINISHED";"LEFT";"success";"373";"0";"2014-10-15 15:22:29.504";"3";;;;;;;;;;
"ellebelle123";"1995";;"Windows 7";"Rachel's Experiment (D.T.)";"1.0";"2";"1";"1";"2";"1";"1";"2014-10-15 15:20:57.963";"2014-10-15 15:35:57.133";"1";"1";"1";"8";"7";"module.GoNoGopractice.exec-7481.GoNoGo_Practice";;;;;;;;;;;;;;;;;;;;;;;;;;;;;;;;;;;;;;;;;;;;;;;;;;;;;;;;;;;;;;;;;;;;;;;"1959";"2014-10-15 15:22:34.714";"2";"0";"FINISHED";"LEFT";"success";"456";"0";"2014-10-15 15:22:32.749";"1";;;;;;;;;;
"ellebelle123";"1995";;"Windows 7";"Rachel's Experiment (D.T.)";"1.0";"2";"1";"1";"2";"1";"1";"2014-10-15 15:20:57.963";"2014-10-15 15:35:57.133";"1";"1";"1";"9";"8";"module.GoNoGopractice.exec-7481.GoNoGo_Practice";;;;;;;;;;;;;;;;;;;;;;;;;;;;;;;;;;;;;;;;;;;;;;;;;;;;;;;;;;;;;;;;;;;;;;;"1960";"2014-10-15 15:22:37.959";"30";"0";"FINISHED";"NONE";"success";"0";"1";"2014-10-15 15:22:35.993";"3";;;;;;;;;;
"ellebelle123";"1995";;"Windows 7";"Rachel's Experiment (D.T.)";"1.0";"2";"1";"1";"2";"1";"1";"2014-10-15 15:20:57.963";"2014-10-15 15:35:57.133";"1";"1";"1";"10";"9";"module.GoNoGopractice.exec-7481.GoNoGo_Practice";;;;;;;;;;;;;;;;;;;;;;;;;;;;;;;;;;;;;;;;;;;;;;;;;;;;;;;;;;;;;;;;;;;;;;;"1959";"2014-10-15 15:22:41.219";"6";"1";"FINISHED";"RIGHT";"failure";"327";"1";"2014-10-15 15:22:39.254";"1";;;;;;;;;;
"ellebelle123";"1995";;"Windows 7";"Rachel's Experiment (D.T.)";"1.0";"2";"1";"1";"2";"1";"1";"2014-10-15 15:20:57.963";"2014-10-15 15:35:57.133";"1";"1";"1";"11";"10";"module.GoNoGopractice.exec-7481.GoNoGo_Practice";;;;;;;;;;;;;;;;;;;;;;;;;;;;;;;;;;;;;;;;;;;;;;;;;;;;;;;;;;;;;;;;;;;;;;;"1960";"2014-10-15 15:22:44.464";"34";"0";"FINISHED";"LEFT";"success";"435";"0";"2014-10-15 15:22:42.499";"3";;;;;;;;;;
"ellebelle123";"1995";;"Windows 7";"Rachel's Experiment (D.T.)";"1.0";"2";"1";"1";"2";"1";"1";"2014-10-15 15:20:57.963";"2014-10-15 15:35:57.133";"1";"1";"1";"12";"11";"module.GoNoGopractice.exec-7481.GoNoGo_Practice";;;;;;;;;;;;;;;;;;;;;;;;;;;;;;;;;;;;;;;;;;;;;;;;;;;;;;;;;;;;;;;;;;;;;;;"1959";"2014-10-15 15:22:47.709";"23";"1";"FINISHED";"RIGHT";"success";"485";"0";"2014-10-15 15:22:45.743";"3";;;;;;;;;;
"ellebelle123";"1995";;"Windows 7";"Rachel's Experiment (D.T.)";"1.0";"2";"1";"1";"2";"1";"1";"2014-10-15 15:20:57.963";"2014-10-15 15:35:57.133";"1";"1";"1";"13";"12";"module.GoNoGopractice.exec-7481.GoNoGo_Practice";;;;;;;;;;;;;;;;;;;;;;;;;;;;;;;;;;;;;;;;;;;;;;;;;;;;;;;;;;;;;;;;;;;;;;;"1959";"2014-10-15 15:22:50.954";"13";"0";"FINISHED";"NONE";"success";"0";"1";"2014-10-15 15:22:48.988";"2";;;;;;;;;;
"ellebelle123";"1995";;"Windows 7";"Rachel's Experiment (D.T.)";"1.0";"2";"1";"1";"2";"1";"1";"2014-10-15 15:20:57.963";"2014-10-15 15:35:57.133";"1";"1";"1";"14";"13";"module.GoNoGopractice.exec-7481.GoNoGo_Practice";;;;;;;;;;;;;;;;;;;;;;;;;;;;;;;;;;;;;;;;;;;;;;;;;;;;;;;;;;;;;;;;;;;;;;;"1960";"2014-10-15 15:22:54.199";"3";"1";"FINISHED";"RIGHT";"success";"788";"0";"2014-10-15 15:22:52.233";"1";;;;;;;;;;
"ellebelle123";"1995";;"Windows 7";"Rachel's Experiment (D.T.)";"1.0";"2";"1";"1";"2";"1";"1";"2014-10-15 15:20:57.963";"2014-10-15 15:35:57.133";"1";"1";"1";"15";"14";"module.GoNoGopractice.exec-7481.GoNoGo_Practice";;;;;;;;;;;;;;;;;;;;;;;;;;;;;;;;;;;;;;;;;;;;;;;;;;;;;;;;;;;;;;;;;;;;;;;"1959";"2014-10-15 15:22:57.443";"27";"1";"FINISHED";"NONE";"success";"0";"1";"2014-10-15 15:22:55.478";"3";;;;;;;;;;
"ellebelle123";"1995";;"Windows 7";"Rachel's Experiment (D.T.)";"1.0";"2";"1";"1";"2";"1";"1";"2014-10-15 15:20:57.963";"2014-10-15 15:35:57.133";"1";"1";"1";"16";"15";"module.training_block1.exec-7526.GoNoGo1";;;;;;;;;;;;;;;;;;;;;;;"1257";"2014-10-15 15:23:11.312";"ST_failedStop";"1";"1";"FINISHED";"RIGHT";"failure";"371";"1";"2014-10-15 15:23:10.048";"1";;;;;;;;;;;;;;;;;;;;;;;;;;;;;;;;;;;;;;;;;;;;;;;;;;;;;;;;;
"ellebelle123";"1995";;"Windows 7";"Rachel's Experiment (D.T.)";"1.0";"2";"1";"1";"2";"1";"1";"2014-10-15 15:20:57.963";"2014-10-15 15:35:57.133";"1";"1";"1";"17";"16";"module.training_block1.exec-7526.GoNoGo1";;;;;;;;;;;;;;;;;;;;;;;"1261";"2014-10-15 15:23:13.855";"NST_correctLoc";"30";"1";"FINISHED";"RIGHT";"success";"409";"0";"2014-10-15 15:23:12.591";"3";;;;;;;;;;;;;;;;;;;;;;;;;;;;;;;;;;;;;;;;;;;;;;;;;;;;;;;;;
"ellebelle123";"1995";;"Windows 7";"Rachel's Experiment (D.T.)";"1.0";"2";"1";"1";"2";"1";"1";"2014-10-15 15:20:57.963";"2014-10-15 15:35:57.133";"1";"1";"1";"18";"17";"module.training_block1.exec-7526.GoNoGo1";;;;;;;;;;;;;;;;;;;;;;;"1257";"2014-10-15 15:23:16.397";"NST_correctLoc";"15";"1";"FINISHED";"RIGHT";"success";"382";"0";"2014-10-15 15:23:15.134";"2";;;;;;;;;;;;;;;;;;;;;;;;;;;;;;;;;;;;;;;;;;;;;;;;;;;;;;;;;
"ellebelle123";"1995";;"Windows 7";"Rachel's Experiment (D.T.)";"1.0";"2";"1";"1";"2";"1";"1";"2014-10-15 15:20:57.963";"2014-10-15 15:35:57.133";"1";"1";"1";"19";"18";"module.training_block1.exec-7526.GoNoGo1";;;;;;;;;;;;;;;;;;;;;;;"1261";"2014-10-15 15:23:18.940";"ST_correctStop";"2";"1";"FINISHED";"NONE";"success";"0";"1";"2014-10-15 15:23:17.677";"1";;;;;;;;;;;;;;;;;;;;;;;;;;;;;;;;;;;;;;;;;;;;;;;;;;;;;;;;;
"ellebelle123";"1995";;"Windows 7";"Rachel's Experiment (D.T.)";"1.0";"2";"1";"1";"2";"1";"1";"2014-10-15 15:20:57.963";"2014-10-15 15:35:57.133";"1";"1";"1";"20";"19";"module.training_block1.exec-7526.GoNoGo1";;;;;;;;;;;;;;;;;;;;;;;"1257";"2014-10-15 15:23:21.483";"NST_correctLoc";"17";"0";"FINISHED";"LEFT";"success";"360";"0";"2014-10-15 15:23:20.219";"2";;;;;;;;;;;;;;;;;;;;;;;;;;;;;;;;;;;;;;;;;;;;;;;;;;;;;;;;;
"ellebelle123";"1995";;"Windows 7";"Rachel's Experiment (D.T.)";"1.0";"2";"1";"1";"2";"1";"1";"2014-10-15 15:20:57.963";"2014-10-15 15:35:57.133";"1";"1";"1";"21";"20";"module.training_block1.exec-7526.GoNoGo1";;;;;;;;;;;;;;;;;;;;;;;"1261";"2014-10-15 15:23:24.026";"ST_failedStop";"6";"1";"FINISHED";"RIGHT";"failure";"398";"1";"2014-10-15 15:23:22.762";"1";;;;;;;;;;;;;;;;;;;;;;;;;;;;;;;;;;;;;;;;;;;;;;;;;;;;;;;;;
"ellebelle123";"1995";;"Windows 7";"Rachel's Experiment (D.T.)";"1.0";"2";"1";"1";"2";"1";"1";"2014-10-15 15:20:57.963";"2014-10-15 15:35:57.133";"1";"1";"1";"22";"21";"module.training_block1.exec-7526.GoNoGo1";;;;;;;;;;;;;;;;;;;;;;;"1257";"2014-10-15 15:23:26.569";"ST_correctStop";"31";"0";"FINISHED";"NONE";"success";"0";"1";"2014-10-15 15:23:25.305";"3";;;;;;;;;;;;;;;;;;;;;;;;;;;;;;;;;;;;;;;;;;;;;;;;;;;;;;;;;
"ellebelle123";"1995";;"Windows 7";"Rachel's Experiment (D.T.)";"1.0";"2";"1";"1";"2";"1";"1";"2014-10-15 15:20:57.963";"2014-10-15 15:35:57.133";"1";"1";"1";"23";"22";"module.training_block1.exec-7526.GoNoGo1";;;;;;;;;;;;;;;;;;;;;;;"1250";"2014-10-15 15:23:29.205";"ST_correctStop";"29";"1";"FINISHED";"NONE";"success";"0";"1";"2014-10-15 15:23:27.941";"3";;;;;;;;;;;;;;;;;;;;;;;;;;;;;;;;;;;;;;;;;;;;;;;;;;;;;;;;;
"ellebelle123";"1995";;"Windows 7";"Rachel's Experiment (D.T.)";"1.0";"2";"1";"1";"2";"1";"1";"2014-10-15 15:20:57.963";"2014-10-15 15:35:57.133";"1";"1";"1";"24";"23";"module.training_block1.exec-7526.GoNoGo1";;;;;;;;;;;;;;;;;;;;;;;"1258";"2014-10-15 15:23:31.748";"NST_correctLoc";"22";"0";"FINISHED";"LEFT";"success";"328";"0";"2014-10-15 15:23:30.484";"3";;;;;;;;;;;;;;;;;;;;;;;;;;;;;;;;;;;;;;;;;;;;;;;;;;;;;;;;;
"ellebelle123";"1995";;"Windows 7";"Rachel's Experiment (D.T.)";"1.0";"2";"1";"1";"2";"1";"1";"2014-10-15 15:20:57.963";"2014-10-15 15:35:57.133";"1";"1";"1";"25";"24";"module.training_block1.exec-7526.GoNoGo1";;;;;;;;;;;;;;;;;;;;;;;"1258";"2014-10-15 15:23:34.291";"ST_correctStop";"3";"1";"FINISHED";"NONE";"success";"0";"1";"2014-10-15 15:23:33.027";"1";;;;;;;;;;;;;;;;;;;;;;;;;;;;;;;;;;;;;;;;;;;;;;;;;;;;;;;;;
"ellebelle123";"1995";;"Windows 7";"Rachel's Experiment (D.T.)";"1.0";"2";"1";"1";"2";"1";"1";"2014-10-15 15:20:57.963";"2014-10-15 15:35:57.133";"1";"1";"1";"26";"25";"module.training_block1.exec-7526.GoNoGo1";;;;;;;;;;;;;;;;;;;;;;;"1257";"2014-10-15 15:23:36.834";"ST_correctStop";"0";"1";"FINISHED";"NONE";"success";"0";"1";"2014-10-15 15:23:35.570";"1";;;;;;;;;;;;;;;;;;;;;;;;;;;;;;;;;;;;;;;;;;;;;;;;;;;;;;;;;
"ellebelle123";"1995";;"Windows 7";"Rachel's Experiment (D.T.)";"1.0";"2";"1";"1";"2";"1";"1";"2014-10-15 15:20:57.963";"2014-10-15 15:35:57.133";"1";"1";"1";"27";"26";"module.training_block1.exec-7526.GoNoGo1";;;;;;;;;;;;;;;;;;;;;;;"1258";"2014-10-15 15:23:39.376";"ST_correctStop";"19";"1";"FINISHED";"NONE";"success";"0";"1";"2014-10-15 15:23:38.113";"3";;;;;;;;;;;;;;;;;;;;;;;;;;;;;;;;;;;;;;;;;;;;;;;;;;;;;;;;;
"ellebelle123";"1995";;"Windows 7";"Rachel's Experiment (D.T.)";"1.0";"2";"1";"1";"2";"1";"1";"2014-10-15 15:20:57.963";"2014-10-15 15:35:57.133";"1";"1";"1";"28";"27";"module.training_block1.exec-7526.GoNoGo1";;;;;;;;;;;;;;;;;;;;;;;"1258";"2014-10-15 15:23:41.919";"NST_correctLoc";"11";"0";"FINISHED";"LEFT";"success";"437";"0";"2014-10-15 15:23:40.656";"2";;;;;;;;;;;;;;;;;;;;;;;;;;;;;;;;;;;;;;;;;;;;;;;;;;;;;;;;;
"ellebelle123";"1995";;"Windows 7";"Rachel's Experiment (D.T.)";"1.0";"2";"1";"1";"2";"1";"1";"2014-10-15 15:20:57.963";"2014-10-15 15:35:57.133";"1";"1";"1";"29";"28";"module.training_block1.exec-7526.GoNoGo1";;;;;;;;;;;;;;;;;;;;;;;"1257";"2014-10-15 15:23:44.462";"ST_correctStop";"7";"0";"FINISHED";"NONE";"success";"0";"1";"2014-10-15 15:23:43.198";"1";;;;;;;;;;;;;;;;;;;;;;;;;;;;;;;;;;;;;;;;;;;;;;;;;;;;;;;;;
"ellebelle123";"1995";;"Windows 7";"Rachel's Experiment (D.T.)";"1.0";"2";"1";"1";"2";"1";"1";"2014-10-15 15:20:57.963";"2014-10-15 15:35:57.133";"1";"1";"1";"30";"29";"module.training_block1.exec-7526.GoNoGo1";;;;;;;;;;;;;;;;;;;;;;;"1258";"2014-10-15 15:23:47.005";"NST_correctLoc";"28";"1";"FINISHED";"RIGHT";"success";"439";"0";"2014-10-15 15:23:45.741";"3";;;;;;;;;;;;;;;;;;;;;;;;;;;;;;;;;;;;;;;;;;;;;;;;;;;;;;;;;
"ellebelle123";"1995";;"Windows 7";"Rachel's Experiment (D.T.)";"1.0";"2";"1";"1";"2";"1";"1";"2014-10-15 15:20:57.963";"2014-10-15 15:35:57.133";"1";"1";"1";"31";"30";"module.training_block1.exec-7526.GoNoGo1";;;;;;;;;;;;;;;;;;;;;;;"1258";"2014-10-15 15:23:49.548";"NST_correctLoc";"9";"0";"FINISHED";"LEFT";"success";"584";"0";"2014-10-15 15:23:48.284";"2";;;;;;;;;;;;;;;;;;;;;;;;;;;;;;;;;;;;;;;;;;;;;;;;;;;;;;;;;
"ellebelle123";"1995";;"Windows 7";"Rachel's Experiment (D.T.)";"1.0";"2";"1";"1";"2";"1";"1";"2014-10-15 15:20:57.963";"2014-10-15 15:35:57.133";"1";"1";"1";"32";"31";"module.training_block1.exec-7526.GoNoGo1";;;;;;;;;;;;;;;;;;;;;;;"1258";"2014-10-15 15:23:52.090";"NST_correctLoc";"12";"0";"FINISHED";"LEFT";"success";"442";"0";"2014-10-15 15:23:50.827";"2";;;;;;;;;;;;;;;;;;;;;;;;;;;;;;;;;;;;;;;;;;;;;;;;;;;;;;;;;
"ellebelle123";"1995";;"Windows 7";"Rachel's Experiment (D.T.)";"1.0";"2";"1";"1";"2";"1";"1";"2014-10-15 15:20:57.963";"2014-10-15 15:35:57.133";"1";"1";"1";"33";"32";"module.training_block1.exec-7526.GoNoGo1";;;;;;;;;;;;;;;;;;;;;;;"1257";"2014-10-15 15:23:54.633";"ST_correctStop";"4";"0";"FINISHED";"NONE";"success";"0";"1";"2014-10-15 15:23:53.370";"1";;;;;;;;;;;;;;;;;;;;;;;;;;;;;;;;;;;;;;;;;;;;;;;;;;;;;;;;;
"ellebelle123";"1995";;"Windows 7";"Rachel's Experiment (D.T.)";"1.0";"2";"1";"1";"2";"1";"1";"2014-10-15 15:20:57.963";"2014-10-15 15:35:57.133";"1";"1";"1";"34";"33";"module.training_block1.exec-7526.GoNoGo1";;;;;;;;;;;;;;;;;;;;;;;"1258";"2014-10-15 15:23:57.176";"ST_failedStop";"5";"0";"FINISHED";"LEFT";"failure";"692";"1";"2014-10-15 15:23:55.912";"1";;;;;;;;;;;;;;;;;;;;;;;;;;;;;;;;;;;;;;;;;;;;;;;;;;;;;;;;;
"ellebelle123";"1995";;"Windows 7";"Rachel's Experiment (D.T.)";"1.0";"2";"1";"1";"2";"1";"1";"2014-10-15 15:20:57.963";"2014-10-15 15:35:57.133";"1";"1";"1";"35";"34";"module.training_block1.exec-7526.GoNoGo1";;;;;;;;;;;;;;;;;;;;;;;"1257";"2014-10-15 15:23:59.719";"NST_correctLoc";"10";"0";"FINISHED";"LEFT";"success";"772";"0";"2014-10-15 15:23:58.455";"2";;;;;;;;;;;;;;;;;;;;;;;;;;;;;;;;;;;;;;;;;;;;;;;;;;;;;;;;;
"ellebelle123";"1995";;"Windows 7";"Rachel's Experiment (D.T.)";"1.0";"2";"1";"1";"2";"1";"1";"2014-10-15 15:20:57.963";"2014-10-15 15:35:57.133";"1";"1";"1";"36";"35";"module.training_block1.exec-7526.GoNoGo1";;;;;;;;;;;;;;;;;;;;;;;"1257";"2014-10-15 15:24:02.262";"ST_correctStop";"27";"1";"FINISHED";"NONE";"success";"0";"1";"2014-10-15 15:24:00.998";"3";;;;;;;;;;;;;;;;;;;;;;;;;;;;;;;;;;;;;;;;;;;;;;;;;;;;;;;;;
"ellebelle123";"1995";;"Windows 7";"Rachel's Experiment (D.T.)";"1.0";"2";"1";"1";"2";"1";"1";"2014-10-15 15:20:57.963";"2014-10-15 15:35:57.133";"1";"1";"1";"37";"36";"module.training_block1.exec-7526.GoNoGo1";;;;;;;;;;;;;;;;;;;;;;;"1258";"2014-10-15 15:24:04.804";"ST_correctStop";"34";"0";"FINISHED";"NONE";"success";"0";"1";"2014-10-15 15:24:03.541";"3";;;;;;;;;;;;;;;;;;;;;;;;;;;;;;;;;;;;;;;;;;;;;;;;;;;;;;;;;
"ellebelle123";"1995";;"Windows 7";"Rachel's Experiment (D.T.)";"1.0";"2";"1";"1";"2";"1";"1";"2014-10-15 15:20:57.963";"2014-10-15 15:35:57.133";"1";"1";"1";"38";"37";"module.training_block1.exec-7526.GoNoGo1";;;;;;;;;;;;;;;;;;;;;;;"1258";"2014-10-15 15:24:07.347";"ST_correctStop";"20";"0";"FINISHED";"NONE";"success";"0";"1";"2014-10-15 15:24:06.084";"3";;;;;;;;;;;;;;;;;;;;;;;;;;;;;;;;;;;;;;;;;;;;;;;;;;;;;;;;;
"ellebelle123";"1995";;"Windows 7";"Rachel's Experiment (D.T.)";"1.0";"2";"1";"1";"2";"1";"1";"2014-10-15 15:20:57.963";"2014-10-15 15:35:57.133";"1";"1";"1";"39";"38";"module.training_block1.exec-7526.GoNoGo1";;;;;;;;;;;;;;;;;;;;;;;"1257";"2014-10-15 15:24:09.890";"NST_correctLoc";"14";"0";"FINISHED";"LEFT";"success";"473";"0";"2014-10-15 15:24:08.626";"2";;;;;;;;;;;;;;;;;;;;;;;;;;;;;;;;;;;;;;;;;;;;;;;;;;;;;;;;;
"ellebelle123";"1995";;"Windows 7";"Rachel's Experiment (D.T.)";"1.0";"2";"1";"1";"2";"1";"1";"2014-10-15 15:20:57.963";"2014-10-15 15:35:57.133";"1";"1";"1";"40";"39";"module.training_block1.exec-7526.GoNoGo1";;;;;;;;;;;;;;;;;;;;;;;"1257";"2014-10-15 15:24:12.433";"NST_correctLoc";"16";"0";"FINISHED";"LEFT";"success";"387";"0";"2014-10-15 15:24:11.169";"2";;;;;;;;;;;;;;;;;;;;;;;;;;;;;;;;;;;;;;;;;;;;;;;;;;;;;;;;;
"ellebelle123";"1995";;"Windows 7";"Rachel's Experiment (D.T.)";"1.0";"2";"1";"1";"2";"1";"1";"2014-10-15 15:20:57.963";"2014-10-15 15:35:57.133";"1";"1";"1";"41";"40";"module.training_block1.exec-7526.GoNoGo1";;;;;;;;;;;;;;;;;;;;;;;"1257";"2014-10-15 15:24:14.976";"ST_correctStop";"21";"1";"FINISHED";"NONE";"success";"0";"1";"2014-10-15 15:24:13.712";"3";;;;;;;;;;;;;;;;;;;;;;;;;;;;;;;;;;;;;;;;;;;;;;;;;;;;;;;;;
"ellebelle123";"1995";;"Windows 7";"Rachel's Experiment (D.T.)";"1.0";"2";"1";"1";"2";"1";"1";"2014-10-15 15:20:57.963";"2014-10-15 15:35:57.133";"1";"1";"1";"42";"41";"module.training_block1.exec-7526.GoNoGo1";;;;;;;;;;;;;;;;;;;;;;;"1257";"2014-10-15 15:24:17.518";"ST_correctStop";"8";"1";"FINISHED";"NONE";"success";"0";"1";"2014-10-15 15:24:16.255";"1";;;;;;;;;;;;;;;;;;;;;;;;;;;;;;;;;;;;;;;;;;;;;;;;;;;;;;;;;
"ellebelle123";"1995";;"Windows 7";"Rachel's Experiment (D.T.)";"1.0";"2";"1";"1";"2";"1";"1";"2014-10-15 15:20:57.963";"2014-10-15 15:35:57.133";"1";"1";"1";"43";"42";"module.training_block1.exec-7526.GoNoGo1";;;;;;;;;;;;;;;;;;;;;;;"1258";"2014-10-15 15:24:20.061";"NST_correctLoc";"25";"1";"FINISHED";"RIGHT";"success";"447";"0";"2014-10-15 15:24:18.798";"3";;;;;;;;;;;;;;;;;;;;;;;;;;;;;;;;;;;;;;;;;;;;;;;;;;;;;;;;;
"ellebelle123";"1995";;"Windows 7";"Rachel's Experiment (D.T.)";"1.0";"2";"1";"1";"2";"1";"1";"2014-10-15 15:20:57.963";"2014-10-15 15:35:57.133";"1";"1";"1";"44";"43";"module.training_block1.exec-7526.GoNoGo1";;;;;;;;;;;;;;;;;;;;;;;"1257";"2014-10-15 15:24:22.604";"NST_correctLoc";"23";"0";"FINISHED";"LEFT";"success";"319";"0";"2014-10-15 15:24:21.340";"3";;;;;;;;;;;;;;;;;;;;;;;;;;;;;;;;;;;;;;;;;;;;;;;;;;;;;;;;;
"ellebelle123";"1995";;"Windows 7";"Rachel's Experiment (D.T.)";"1.0";"2";"1";"1";"2";"1";"1";"2014-10-15 15:20:57.963";"2014-10-15 15:35:57.133";"1";"1";"1";"45";"44";"module.training_block1.exec-7526.GoNoGo1";;;;;;;;;;;;;;;;;;;;;;;"1257";"2014-10-15 15:24:25.147";"NST_correctLoc";"32";"1";"FINISHED";"RIGHT";"success";"400";"0";"2014-10-15 15:24:23.883";"3";;;;;;;;;;;;;;;;;;;;;;;;;;;;;;;;;;;;;;;;;;;;;;;;;;;;;;;;;
"ellebelle123";"1995";;"Windows 7";"Rachel's Experiment (D.T.)";"1.0";"2";"1";"1";"2";"1";"1";"2014-10-15 15:20:57.963";"2014-10-15 15:35:57.133";"1";"1";"1";"46";"45";"module.training_block1.exec-7526.GoNoGo1";;;;;;;;;;;;;;;;;;;;;;;"1258";"2014-10-15 15:24:27.690";"NST_correctLoc";"33";"0";"FINISHED";"LEFT";"success";"338";"0";"2014-10-15 15:24:26.426";"3";;;;;;;;;;;;;;;;;;;;;;;;;;;;;;;;;;;;;;;;;;;;;;;;;;;;;;;;;
"ellebelle123";"1995";;"Windows 7";"Rachel's Experiment (D.T.)";"1.0";"2";"1";"1";"2";"1";"1";"2014-10-15 15:20:57.963";"2014-10-15 15:35:57.133";"1";"1";"1";"47";"46";"module.training_block1.exec-7526.GoNoGo1";;;;;;;;;;;;;;;;;;;;;;;"1257";"2014-10-15 15:24:30.232";"NST_correctLoc";"13";"0";"FINISHED";"LEFT";"success";"378";"0";"2014-10-15 15:24:28.969";"2";;;;;;;;;;;;;;;;;;;;;;;;;;;;;;;;;;;;;;;;;;;;;;;;;;;;;;;;;
"ellebelle123";"1995";;"Windows 7";"Rachel's Experiment (D.T.)";"1.0";"2";"1";"1";"2";"1";"1";"2014-10-15 15:20:57.963";"2014-10-15 15:35:57.133";"1";"1";"1";"48";"47";"module.training_block1.exec-7526.GoNoGo1";;;;;;;;;;;;;;;;;;;;;;;"1258";"2014-10-15 15:24:32.775";"ST_failedStop";"35";"0";"FINISHED";"LEFT";"failure";"381";"1";"2014-10-15 15:24:31.512";"3";;;;;;;;;;;;;;;;;;;;;;;;;;;;;;;;;;;;;;;;;;;;;;;;;;;;;;;;;
"ellebelle123";"1995";;"Windows 7";"Rachel's Experiment (D.T.)";"1.0";"2";"1";"1";"2";"1";"1";"2014-10-15 15:20:57.963";"2014-10-15 15:35:57.133";"1";"1";"1";"49";"48";"module.training_block1.exec-7526.GoNoGo1";;;;;;;;;;;;;;;;;;;;;;;"1257";"2014-10-15 15:24:35.318";"NST_correctLoc";"26";"0";"FINISHED";"LEFT";"success";"389";"0";"2014-10-15 15:24:34.054";"3";;;;;;;;;;;;;;;;;;;;;;;;;;;;;;;;;;;;;;;;;;;;;;;;;;;;;;;;;
"ellebelle123";"1995";;"Windows 7";"Rachel's Experiment (D.T.)";"1.0";"2";"1";"1";"2";"1";"1";"2014-10-15 15:20:57.963";"2014-10-15 15:35:57.133";"1";"1";"1";"50";"49";"module.training_block1.exec-7526.GoNoGo1";;;;;;;;;;;;;;;;;;;;;;;"1258";"2014-10-15 15:24:37.861";"ST_correctStop";"24";"0";"FINISHED";"NONE";"success";"0";"1";"2014-10-15 15:24:36.597";"3";;;;;;;;;;;;;;;;;;;;;;;;;;;;;;;;;;;;;;;;;;;;;;;;;;;;;;;;;
"ellebelle123";"1995";;"Windows 7";"Rachel's Experiment (D.T.)";"1.0";"2";"1";"1";"2";"1";"1";"2014-10-15 15:20:57.963";"2014-10-15 15:35:57.133";"1";"1";"1";"51";"50";"module.training_block1.exec-7526.GoNoGo1";;;;;;;;;;;;;;;;;;;;;;;"1258";"2014-10-15 15:24:40.404";"NST_correctLoc";"18";"0";"FINISHED";"LEFT";"success";"440";"0";"2014-10-15 15:24:39.140";"3";;;;;;;;;;;;;;;;;;;;;;;;;;;;;;;;;;;;;;;;;;;;;;;;;;;;;;;;;
"ellebelle123";"1995";;"Windows 7";"Rachel's Experiment (D.T.)";"1.0";"2";"1";"1";"2";"1";"1";"2014-10-15 15:20:57.963";"2014-10-15 15:35:57.133";"1";"1";"1";"52";"51";"module.training_block2.exec-9875.GoNoGo2";;;;;;;;;;;;;;;;;;;;;;;;;;;;;;;;;;;"1261";"2014-10-15 15:24:51.526";"NST_correctLoc";"13";"0";"FINISHED";"LEFT";"success";"464";"0";"2014-10-15 15:24:50.263";"2";;;;;;;;;;;;;;;;;;;;;;;;;;;;;;;;;;;;;;;;;;;;;
"ellebelle123";"1995";;"Windows 7";"Rachel's Experiment (D.T.)";"1.0";"2";"1";"1";"2";"1";"1";"2014-10-15 15:20:57.963";"2014-10-15 15:35:57.133";"1";"1";"1";"53";"52";"module.training_block2.exec-9875.GoNoGo2";;;;;;;;;;;;;;;;;;;;;;;;;;;;;;;;;;;"1257";"2014-10-15 15:24:54.069";"NST_correctLoc";"15";"1";"FINISHED";"RIGHT";"success";"357";"0";"2014-10-15 15:24:52.806";"2";;;;;;;;;;;;;;;;;;;;;;;;;;;;;;;;;;;;;;;;;;;;;
"ellebelle123";"1995";;"Windows 7";"Rachel's Experiment (D.T.)";"1.0";"2";"1";"1";"2";"1";"1";"2014-10-15 15:20:57.963";"2014-10-15 15:35:57.133";"1";"1";"1";"54";"53";"module.training_block2.exec-9875.GoNoGo2";;;;;;;;;;;;;;;;;;;;;;;;;;;;;;;;;;;"1261";"2014-10-15 15:24:56.612";"ST_correctStop";"3";"0";"FINISHED";"NONE";"success";"0";"1";"2014-10-15 15:24:55.348";"1";;;;;;;;;;;;;;;;;;;;;;;;;;;;;;;;;;;;;;;;;;;;;
"ellebelle123";"1995";;"Windows 7";"Rachel's Experiment (D.T.)";"1.0";"2";"1";"1";"2";"1";"1";"2014-10-15 15:20:57.963";"2014-10-15 15:35:57.133";"1";"1";"1";"55";"54";"module.training_block2.exec-9875.GoNoGo2";;;;;;;;;;;;;;;;;;;;;;;;;;;;;;;;;;;"1261";"2014-10-15 15:24:59.155";"ST_failedStop";"34";"1";"FINISHED";"RIGHT";"failure";"364";"1";"2014-10-15 15:24:57.891";"3";;;;;;;;;;;;;;;;;;;;;;;;;;;;;;;;;;;;;;;;;;;;;
"ellebelle123";"1995";;"Windows 7";"Rachel's Experiment (D.T.)";"1.0";"2";"1";"1";"2";"1";"1";"2014-10-15 15:20:57.963";"2014-10-15 15:35:57.133";"1";"1";"1";"56";"55";"module.training_block2.exec-9875.GoNoGo2";;;;;;;;;;;;;;;;;;;;;;;;;;;;;;;;;;;"1256";"2014-10-15 15:25:01.698";"ST_correctStop";"6";"1";"FINISHED";"NONE";"success";"0";"1";"2014-10-15 15:25:00.434";"1";;;;;;;;;;;;;;;;;;;;;;;;;;;;;;;;;;;;;;;;;;;;;
"ellebelle123";"1995";;"Windows 7";"Rachel's Experiment (D.T.)";"1.0";"2";"1";"1";"2";"1";"1";"2014-10-15 15:20:57.963";"2014-10-15 15:35:57.133";"1";"1";"1";"57";"56";"module.training_block2.exec-9875.GoNoGo2";;;;;;;;;;;;;;;;;;;;;;;;;;;;;;;;;;;"1258";"2014-10-15 15:25:04.240";"NST_correctLoc";"30";"1";"FINISHED";"RIGHT";"success";"443";"0";"2014-10-15 15:25:02.977";"3";;;;;;;;;;;;;;;;;;;;;;;;;;;;;;;;;;;;;;;;;;;;;
"ellebelle123";"1995";;"Windows 7";"Rachel's Experiment (D.T.)";"1.0";"2";"1";"1";"2";"1";"1";"2014-10-15 15:20:57.963";"2014-10-15 15:35:57.133";"1";"1";"1";"58";"57";"module.training_block2.exec-9875.GoNoGo2";;;;;;;;;;;;;;;;;;;;;;;;;;;;;;;;;;;"1261";"2014-10-15 15:25:06.783";"NST_correctLoc";"35";"1";"FINISHED";"RIGHT";"success";"368";"0";"2014-10-15 15:25:05.520";"3";;;;;;;;;;;;;;;;;;;;;;;;;;;;;;;;;;;;;;;;;;;;;
"ellebelle123";"1995";;"Windows 7";"Rachel's Experiment (D.T.)";"1.0";"2";"1";"1";"2";"1";"1";"2014-10-15 15:20:57.963";"2014-10-15 15:35:57.133";"1";"1";"1";"59";"58";"module.training_block2.exec-9875.GoNoGo2";;;;;;;;;;;;;;;;;;;;;;;;;;;;;;;;;;;"1252";"2014-10-15 15:25:09.326";"ST_correctStop";"1";"0";"FINISHED";"NONE";"success";"0";"1";"2014-10-15 15:25:08.062";"1";;;;;;;;;;;;;;;;;;;;;;;;;;;;;;;;;;;;;;;;;;;;;
"ellebelle123";"1995";;"Windows 7";"Rachel's Experiment (D.T.)";"1.0";"2";"1";"1";"2";"1";"1";"2014-10-15 15:20:57.963";"2014-10-15 15:35:57.133";"1";"1";"1";"60";"59";"module.training_block2.exec-9875.GoNoGo2";;;;;;;;;;;;;;;;;;;;;;;;;;;;;;;;;;;"1261";"2014-10-15 15:25:11.869";"ST_correctStop";"23";"1";"FINISHED";"NONE";"success";"0";"1";"2014-10-15 15:25:10.605";"3";;;;;;;;;;;;;;;;;;;;;;;;;;;;;;;;;;;;;;;;;;;;;
"ellebelle123";"1995";;"Windows 7";"Rachel's Experiment (D.T.)";"1.0";"2";"1";"1";"2";"1";"1";"2014-10-15 15:20:57.963";"2014-10-15 15:35:57.133";"1";"1";"1";"61";"60";"module.training_block2.exec-9875.GoNoGo2";;;;;;;;;;;;;;;;;;;;;;;;;;;;;;;;;;;"1261";"2014-10-15 15:25:14.412";"NST_correctLoc";"10";"1";"FINISHED";"RIGHT";"success";"395";"0";"2014-10-15 15:25:13.148";"2";;;;;;;;;;;;;;;;;;;;;;;;;;;;;;;;;;;;;;;;;;;;;
"ellebelle123";"1995";;"Windows 7";"Rachel's Experiment (D.T.)";"1.0";"2";"1";"1";"2";"1";"1";"2014-10-15 15:20:57.963";"2014-10-15 15:35:57.133";"1";"1";"1";"62";"61";"module.training_block2.exec-9875.GoNoGo2";;;;;;;;;;;;;;;;;;;;;;;;;;;;;;;;;;;"1261";"2014-10-15 15:25:16.954";"ST_correctStop";"19";"1";"FINISHED";"NONE";"success";"0";"1";"2014-10-15 15:25:15.691";"3";;;;;;;;;;;;;;;;;;;;;;;;;;;;;;;;;;;;;;;;;;;;;
"ellebelle123";"1995";;"Windows 7";"Rachel's Experiment (D.T.)";"1.0";"2";"1";"1";"2";"1";"1";"2014-10-15 15:20:57.963";"2014-10-15 15:35:57.133";"1";"1";"1";"63";"62";"module.training_block2.exec-9875.GoNoGo2";;;;;;;;;;;;;;;;;;;;;;;;;;;;;;;;;;;"1261";"2014-10-15 15:25:19.497";"ST_correctStop";"5";"1";"FINISHED";"NONE";"success";"0";"1";"2014-10-15 15:25:18.234";"1";;;;;;;;;;;;;;;;;;;;;;;;;;;;;;;;;;;;;;;;;;;;;
"ellebelle123";"1995";;"Windows 7";"Rachel's Experiment (D.T.)";"1.0";"2";"1";"1";"2";"1";"1";"2014-10-15 15:20:57.963";"2014-10-15 15:35:57.133";"1";"1";"1";"64";"63";"module.training_block2.exec-9875.GoNoGo2";;;;;;;;;;;;;;;;;;;;;;;;;;;;;;;;;;;"1261";"2014-10-15 15:25:22.040";"NST_correctLoc";"24";"1";"FINISHED";"RIGHT";"success";"439";"0";"2014-10-15 15:25:20.776";"3";;;;;;;;;;;;;;;;;;;;;;;;;;;;;;;;;;;;;;;;;;;;;
"ellebelle123";"1995";;"Windows 7";"Rachel's Experiment (D.T.)";"1.0";"2";"1";"1";"2";"1";"1";"2014-10-15 15:20:57.963";"2014-10-15 15:35:57.133";"1";"1";"1";"65";"64";"module.training_block2.exec-9875.GoNoGo2";;;;;;;;;;;;;;;;;;;;;;;;;;;;;;;;;;;"1261";"2014-10-15 15:25:24.583";"NST_correctLoc";"14";"1";"FINISHED";"RIGHT";"success";"312";"0";"2014-10-15 15:25:23.319";"2";;;;;;;;;;;;;;;;;;;;;;;;;;;;;;;;;;;;;;;;;;;;;
"ellebelle123";"1995";;"Windows 7";"Rachel's Experiment (D.T.)";"1.0";"2";"1";"1";"2";"1";"1";"2014-10-15 15:20:57.963";"2014-10-15 15:35:57.133";"1";"1";"1";"66";"65";"module.training_block2.exec-9875.GoNoGo2";;;;;;;;;;;;;;;;;;;;;;;;;;;;;;;;;;;"1261";"2014-10-15 15:25:27.126";"ST_correctStop";"33";"1";"FINISHED";"NONE";"success";"0";"1";"2014-10-15 15:25:25.862";"3";;;;;;;;;;;;;;;;;;;;;;;;;;;;;;;;;;;;;;;;;;;;;
"ellebelle123";"1995";;"Windows 7";"Rachel's Experiment (D.T.)";"1.0";"2";"1";"1";"2";"1";"1";"2014-10-15 15:20:57.963";"2014-10-15 15:35:57.133";"1";"1";"1";"67";"66";"module.training_block2.exec-9875.GoNoGo2";;;;;;;;;;;;;;;;;;;;;;;;;;;;;;;;;;;"1261";"2014-10-15 15:25:29.668";"ST_correctStop";"27";"0";"FINISHED";"NONE";"success";"0";"1";"2014-10-15 15:25:28.405";"3";;;;;;;;;;;;;;;;;;;;;;;;;;;;;;;;;;;;;;;;;;;;;
"ellebelle123";"1995";;"Windows 7";"Rachel's Experiment (D.T.)";"1.0";"2";"1";"1";"2";"1";"1";"2014-10-15 15:20:57.963";"2014-10-15 15:35:57.133";"1";"1";"1";"68";"67";"module.training_block2.exec-9875.GoNoGo2";;;;;;;;;;;;;;;;;;;;;;;;;;;;;;;;;;;"1261";"2014-10-15 15:25:32.211";"NST_correctLoc";"20";"0";"FINISHED";"LEFT";"success";"515";"0";"2014-10-15 15:25:30.948";"3";;;;;;;;;;;;;;;;;;;;;;;;;;;;;;;;;;;;;;;;;;;;;
"ellebelle123";"1995";;"Windows 7";"Rachel's Experiment (D.T.)";"1.0";"2";"1";"1";"2";"1";"1";"2014-10-15 15:20:57.963";"2014-10-15 15:35:57.133";"1";"1";"1";"69";"68";"module.training_block2.exec-9875.GoNoGo2";;;;;;;;;;;;;;;;;;;;;;;;;;;;;;;;;;;"1261";"2014-10-15 15:25:34.754";"NST_correctLoc";"11";"1";"FINISHED";"RIGHT";"success";"357";"0";"2014-10-15 15:25:33.491";"2";;;;;;;;;;;;;;;;;;;;;;;;;;;;;;;;;;;;;;;;;;;;;
"ellebelle123";"1995";;"Windows 7";"Rachel's Experiment (D.T.)";"1.0";"2";"1";"1";"2";"1";"1";"2014-10-15 15:20:57.963";"2014-10-15 15:35:57.133";"1";"1";"1";"70";"69";"module.training_block2.exec-9875.GoNoGo2";;;;;;;;;;;;;;;;;;;;;;;;;;;;;;;;;;;"1261";"2014-10-15 15:25:37.297";"NST_correctLoc";"9";"1";"FINISHED";"RIGHT";"success";"334";"0";"2014-10-15 15:25:36.033";"2";;;;;;;;;;;;;;;;;;;;;;;;;;;;;;;;;;;;;;;;;;;;;
"ellebelle123";"1995";;"Windows 7";"Rachel's Experiment (D.T.)";"1.0";"2";"1";"1";"2";"1";"1";"2014-10-15 15:20:57.963";"2014-10-15 15:35:57.133";"1";"1";"1";"71";"70";"module.training_block2.exec-9875.GoNoGo2";;;;;;;;;;;;;;;;;;;;;;;;;;;;;;;;;;;"1261";"2014-10-15 15:25:39.840";"NST_correctLoc";"28";"1";"FINISHED";"RIGHT";"success";"391";"0";"2014-10-15 15:25:38.576";"3";;;;;;;;;;;;;;;;;;;;;;;;;;;;;;;;;;;;;;;;;;;;;
"ellebelle123";"1995";;"Windows 7";"Rachel's Experiment (D.T.)";"1.0";"2";"1";"1";"2";"1";"1";"2014-10-15 15:20:57.963";"2014-10-15 15:35:57.133";"1";"1";"1";"72";"71";"module.training_block2.exec-9875.GoNoGo2";;;;;;;;;;;;;;;;;;;;;;;;;;;;;;;;;;;"1261";"2014-10-15 15:25:42.383";"ST_failedStop";"8";"0";"FINISHED";"LEFT";"failure";"392";"1";"2014-10-15 15:25:41.119";"1";;;;;;;;;;;;;;;;;;;;;;;;;;;;;;;;;;;;;;;;;;;;;
"ellebelle123";"1995";;"Windows 7";"Rachel's Experiment (D.T.)";"1.0";"2";"1";"1";"2";"1";"1";"2014-10-15 15:20:57.963";"2014-10-15 15:35:57.133";"1";"1";"1";"73";"72";"module.training_block2.exec-9875.GoNoGo2";;;;;;;;;;;;;;;;;;;;;;;;;;;;;;;;;;;"1261";"2014-10-15 15:25:44.925";"NST_correctLoc";"12";"0";"FINISHED";"LEFT";"success";"441";"0";"2014-10-15 15:25:43.662";"2";;;;;;;;;;;;;;;;;;;;;;;;;;;;;;;;;;;;;;;;;;;;;
"ellebelle123";"1995";;"Windows 7";"Rachel's Experiment (D.T.)";"1.0";"2";"1";"1";"2";"1";"1";"2014-10-15 15:20:57.963";"2014-10-15 15:35:57.133";"1";"1";"1";"74";"73";"module.training_block2.exec-9875.GoNoGo2";;;;;;;;;;;;;;;;;;;;;;;;;;;;;;;;;;;"1261";"2014-10-15 15:25:47.468";"ST_correctStop";"18";"0";"FINISHED";"NONE";"success";"0";"1";"2014-10-15 15:25:46.205";"3";;;;;;;;;;;;;;;;;;;;;;;;;;;;;;;;;;;;;;;;;;;;;
"ellebelle123";"1995";;"Windows 7";"Rachel's Experiment (D.T.)";"1.0";"2";"1";"1";"2";"1";"1";"2014-10-15 15:20:57.963";"2014-10-15 15:35:57.133";"1";"1";"1";"75";"74";"module.training_block2.exec-9875.GoNoGo2";;;;;;;;;;;;;;;;;;;;;;;;;;;;;;;;;;;"1256";"2014-10-15 15:25:50.011";"ST_correctStop";"2";"1";"FINISHED";"NONE";"success";"0";"1";"2014-10-15 15:25:48.747";"1";;;;;;;;;;;;;;;;;;;;;;;;;;;;;;;;;;;;;;;;;;;;;
"ellebelle123";"1995";;"Windows 7";"Rachel's Experiment (D.T.)";"1.0";"2";"1";"1";"2";"1";"1";"2014-10-15 15:20:57.963";"2014-10-15 15:35:57.133";"1";"1";"1";"76";"75";"module.training_block2.exec-9875.GoNoGo2";;;;;;;;;;;;;;;;;;;;;;;;;;;;;;;;;;;"1261";"2014-10-15 15:25:52.569";"NST_correctLoc";"21";"1";"FINISHED";"RIGHT";"success";"725";"0";"2014-10-15 15:25:51.306";"3";;;;;;;;;;;;;;;;;;;;;;;;;;;;;;;;;;;;;;;;;;;;;
"ellebelle123";"1995";;"Windows 7";"Rachel's Experiment (D.T.)";"1.0";"2";"1";"1";"2";"1";"1";"2014-10-15 15:20:57.963";"2014-10-15 15:35:57.133";"1";"1";"1";"77";"76";"module.training_block2.exec-9875.GoNoGo2";;;;;;;;;;;;;;;;;;;;;;;;;;;;;;;;;;;"1261";"2014-10-15 15:25:55.112";"ST_correctStop";"29";"1";"FINISHED";"NONE";"success";"0";"1";"2014-10-15 15:25:53.849";"3";;;;;;;;;;;;;;;;;;;;;;;;;;;;;;;;;;;;;;;;;;;;;
"ellebelle123";"1995";;"Windows 7";"Rachel's Experiment (D.T.)";"1.0";"2";"1";"1";"2";"1";"1";"2014-10-15 15:20:57.963";"2014-10-15 15:35:57.133";"1";"1";"1";"78";"77";"module.training_block2.exec-9875.GoNoGo2";;;;;;;;;;;;;;;;;;;;;;;;;;;;;;;;;;;"1257";"2014-10-15 15:25:57.655";"NST_correctLoc";"31";"0";"FINISHED";"LEFT";"success";"483";"0";"2014-10-15 15:25:56.391";"3";;;;;;;;;;;;;;;;;;;;;;;;;;;;;;;;;;;;;;;;;;;;;
"ellebelle123";"1995";;"Windows 7";"Rachel's Experiment (D.T.)";"1.0";"2";"1";"1";"2";"1";"1";"2014-10-15 15:20:57.963";"2014-10-15 15:35:57.133";"1";"1";"1";"79";"78";"module.training_block2.exec-9875.GoNoGo2";;;;;;;;;;;;;;;;;;;;;;;;;;;;;;;;;;;"1261";"2014-10-15 15:26:00.198";"NST_correctLoc";"26";"1";"FINISHED";"RIGHT";"success";"433";"0";"2014-10-15 15:25:58.934";"3";;;;;;;;;;;;;;;;;;;;;;;;;;;;;;;;;;;;;;;;;;;;;
"ellebelle123";"1995";;"Windows 7";"Rachel's Experiment (D.T.)";"1.0";"2";"1";"1";"2";"1";"1";"2014-10-15 15:20:57.963";"2014-10-15 15:35:57.133";"1";"1";"1";"80";"79";"module.training_block2.exec-9875.GoNoGo2";;;;;;;;;;;;;;;;;;;;;;;;;;;;;;;;;;;"1261";"2014-10-15 15:26:02.741";"ST_correctStop";"25";"1";"FINISHED";"NONE";"success";"0";"1";"2014-10-15 15:26:01.477";"3";;;;;;;;;;;;;;;;;;;;;;;;;;;;;;;;;;;;;;;;;;;;;
"ellebelle123";"1995";;"Windows 7";"Rachel's Experiment (D.T.)";"1.0";"2";"1";"1";"2";"1";"1";"2014-10-15 15:20:57.963";"2014-10-15 15:35:57.133";"1";"1";"1";"81";"80";"module.training_block2.exec-9875.GoNoGo2";;;;;;;;;;;;;;;;;;;;;;;;;;;;;;;;;;;"1261";"2014-10-15 15:26:05.283";"ST_correctStop";"4";"0";"FINISHED";"NONE";"success";"0";"1";"2014-10-15 15:26:04.020";"1";;;;;;;;;;;;;;;;;;;;;;;;;;;;;;;;;;;;;;;;;;;;;
"ellebelle123";"1995";;"Windows 7";"Rachel's Experiment (D.T.)";"1.0";"2";"1";"1";"2";"1";"1";"2014-10-15 15:20:57.963";"2014-10-15 15:35:57.133";"1";"1";"1";"82";"81";"module.training_block2.exec-9875.GoNoGo2";;;;;;;;;;;;;;;;;;;;;;;;;;;;;;;;;;;"1261";"2014-10-15 15:26:07.826";"NST_correctLoc";"16";"1";"FINISHED";"RIGHT";"success";"380";"0";"2014-10-15 15:26:06.563";"2";;;;;;;;;;;;;;;;;;;;;;;;;;;;;;;;;;;;;;;;;;;;;
"ellebelle123";"1995";;"Windows 7";"Rachel's Experiment (D.T.)";"1.0";"2";"1";"1";"2";"1";"1";"2014-10-15 15:20:57.963";"2014-10-15 15:35:57.133";"1";"1";"1";"83";"82";"module.training_block2.exec-9875.GoNoGo2";;;;;;;;;;;;;;;;;;;;;;;;;;;;;;;;;;;"1261";"2014-10-15 15:26:10.369";"ST_failedStop";"7";"1";"FINISHED";"RIGHT";"failure";"341";"1";"2014-10-15 15:26:09.105";"1";;;;;;;;;;;;;;;;;;;;;;;;;;;;;;;;;;;;;;;;;;;;;
"ellebelle123";"1995";;"Windows 7";"Rachel's Experiment (D.T.)";"1.0";"2";"1";"1";"2";"1";"1";"2014-10-15 15:20:57.963";"2014-10-15 15:35:57.133";"1";"1";"1";"84";"83";"module.training_block2.exec-9875.GoNoGo2";;;;;;;;;;;;;;;;;;;;;;;;;;;;;;;;;;;"1261";"2014-10-15 15:26:12.912";"ST_correctStop";"32";"1";"FINISHED";"NONE";"success";"0";"1";"2014-10-15 15:26:11.648";"3";;;;;;;;;;;;;;;;;;;;;;;;;;;;;;;;;;;;;;;;;;;;;
"ellebelle123";"1995";;"Windows 7";"Rachel's Experiment (D.T.)";"1.0";"2";"1";"1";"2";"1";"1";"2014-10-15 15:20:57.963";"2014-10-15 15:35:57.133";"1";"1";"1";"85";"84";"module.training_block2.exec-9875.GoNoGo2";;;;;;;;;;;;;;;;;;;;;;;;;;;;;;;;;;;"1261";"2014-10-15 15:26:15.455";"ST_correctStop";"0";"0";"FINISHED";"NONE";"success";"0";"1";"2014-10-15 15:26:14.191";"1";;;;;;;;;;;;;;;;;;;;;;;;;;;;;;;;;;;;;;;;;;;;;
"ellebelle123";"1995";;"Windows 7";"Rachel's Experiment (D.T.)";"1.0";"2";"1";"1";"2";"1";"1";"2014-10-15 15:20:57.963";"2014-10-15 15:35:57.133";"1";"1";"1";"86";"85";"module.training_block2.exec-9875.GoNoGo2";;;;;;;;;;;;;;;;;;;;;;;;;;;;;;;;;;;"1253";"2014-10-15 15:26:17.997";"NST_correctLoc";"17";"1";"FINISHED";"RIGHT";"success";"401";"0";"2014-10-15 15:26:16.734";"2";;;;;;;;;;;;;;;;;;;;;;;;;;;;;;;;;;;;;;;;;;;;;
"ellebelle123";"1995";;"Windows 7";"Rachel's Experiment (D.T.)";"1.0";"2";"1";"1";"2";"1";"1";"2014-10-15 15:20:57.963";"2014-10-15 15:35:57.133";"1";"1";"1";"87";"86";"module.training_block2.exec-9875.GoNoGo2";;;;;;;;;;;;;;;;;;;;;;;;;;;;;;;;;;;"1261";"2014-10-15 15:26:20.540";"NST_correctLoc";"22";"0";"FINISHED";"LEFT";"success";"450";"0";"2014-10-15 15:26:19.277";"3";;;;;;;;;;;;;;;;;;;;;;;;;;;;;;;;;;;;;;;;;;;;;
"ellebelle123";"1995";;"Windows 7";"Rachel's Experiment (D.T.)";"1.0";"2";"1";"1";"2";"1";"1";"2014-10-15 15:20:57.963";"2014-10-15 15:35:57.133";"1";"1";"1";"88";"87";"module.training_block3.exec-1134.GoNoGo3";;;;;;;;;;;;;;;;;;;;;;;;;;;;;;;;;;;;;;;;;;;;;;;"1261";"2014-10-15 15:26:31.273";"ST_correctStop";"7";"1";"FINISHED";"NONE";"success";"0";"1";"2014-10-15 15:26:30.009";"1";;;;;;;;;;;;;;;;;;;;;;;;;;;;;;;;;
"ellebelle123";"1995";;"Windows 7";"Rachel's Experiment (D.T.)";"1.0";"2";"1";"1";"2";"1";"1";"2014-10-15 15:20:57.963";"2014-10-15 15:35:57.133";"1";"1";"1";"89";"88";"module.training_block3.exec-1134.GoNoGo3";;;;;;;;;;;;;;;;;;;;;;;;;;;;;;;;;;;;;;;;;;;;;;;"1261";"2014-10-15 15:26:33.816";"NST_correctLoc";"18";"1";"FINISHED";"RIGHT";"success";"359";"0";"2014-10-15 15:26:32.552";"3";;;;;;;;;;;;;;;;;;;;;;;;;;;;;;;;;
"ellebelle123";"1995";;"Windows 7";"Rachel's Experiment (D.T.)";"1.0";"2";"1";"1";"2";"1";"1";"2014-10-15 15:20:57.963";"2014-10-15 15:35:57.133";"1";"1";"1";"90";"89";"module.training_block3.exec-1134.GoNoGo3";;;;;;;;;;;;;;;;;;;;;;;;;;;;;;;;;;;;;;;;;;;;;;;"1261";"2014-10-15 15:26:36.359";"NST_correctLoc";"27";"0";"FINISHED";"LEFT";"success";"336";"0";"2014-10-15 15:26:35.095";"3";;;;;;;;;;;;;;;;;;;;;;;;;;;;;;;;;
"ellebelle123";"1995";;"Windows 7";"Rachel's Experiment (D.T.)";"1.0";"2";"1";"1";"2";"1";"1";"2014-10-15 15:20:57.963";"2014-10-15 15:35:57.133";"1";"1";"1";"91";"90";"module.training_block3.exec-1134.GoNoGo3";;;;;;;;;;;;;;;;;;;;;;;;;;;;;;;;;;;;;;;;;;;;;;;"1261";"2014-10-15 15:26:38.901";"ST_correctStop";"2";"0";"FINISHED";"NONE";"success";"0";"1";"2014-10-15 15:26:37.638";"1";;;;;;;;;;;;;;;;;;;;;;;;;;;;;;;;;
"ellebelle123";"1995";;"Windows 7";"Rachel's Experiment (D.T.)";"1.0";"2";"1";"1";"2";"1";"1";"2014-10-15 15:20:57.963";"2014-10-15 15:35:57.133";"1";"1";"1";"92";"91";"module.training_block3.exec-1134.GoNoGo3";;;;;;;;;;;;;;;;;;;;;;;;;;;;;;;;;;;;;;;;;;;;;;;"1261";"2014-10-15 15:26:41.444";"NST_correctLoc";"11";"1";"FINISHED";"RIGHT";"success";"450";"0";"2014-10-15 15:26:40.181";"2";;;;;;;;;;;;;;;;;;;;;;;;;;;;;;;;;
"ellebelle123";"1995";;"Windows 7";"Rachel's Experiment (D.T.)";"1.0";"2";"1";"1";"2";"1";"1";"2014-10-15 15:20:57.963";"2014-10-15 15:35:57.133";"1";"1";"1";"93";"92";"module.training_block3.exec-1134.GoNoGo3";;;;;;;;;;;;;;;;;;;;;;;;;;;;;;;;;;;;;;;;;;;;;;;"1261";"2014-10-15 15:26:44.003";"ST_failedStop";"8";"0";"FINISHED";"LEFT";"failure";"388";"1";"2014-10-15 15:26:42.739";"1";;;;;;;;;;;;;;;;;;;;;;;;;;;;;;;;;
"ellebelle123";"1995";;"Windows 7";"Rachel's Experiment (D.T.)";"1.0";"2";"1";"1";"2";"1";"1";"2014-10-15 15:20:57.963";"2014-10-15 15:35:57.133";"1";"1";"1";"94";"93";"module.training_block3.exec-1134.GoNoGo3";;;;;;;;;;;;;;;;;;;;;;;;;;;;;;;;;;;;;;;;;;;;;;;"1261";"2014-10-15 15:26:46.545";"NST_correctLoc";"12";"0";"FINISHED";"LEFT";"success";"389";"0";"2014-10-15 15:26:45.282";"2";;;;;;;;;;;;;;;;;;;;;;;;;;;;;;;;;
"ellebelle123";"1995";;"Windows 7";"Rachel's Experiment (D.T.)";"1.0";"2";"1";"1";"2";"1";"1";"2014-10-15 15:20:57.963";"2014-10-15 15:35:57.133";"1";"1";"1";"95";"94";"module.training_block3.exec-1134.GoNoGo3";;;;;;;;;;;;;;;;;;;;;;;;;;;;;;;;;;;;;;;;;;;;;;;"1261";"2014-10-15 15:26:49.088";"NST_correctLoc";"19";"0";"FINISHED";"LEFT";"success";"526";"0";"2014-10-15 15:26:47.825";"3";;;;;;;;;;;;;;;;;;;;;;;;;;;;;;;;;
"ellebelle123";"1995";;"Windows 7";"Rachel's Experiment (D.T.)";"1.0";"2";"1";"1";"2";"1";"1";"2014-10-15 15:20:57.963";"2014-10-15 15:35:57.133";"1";"1";"1";"96";"95";"module.training_block3.exec-1134.GoNoGo3";;;;;;;;;;;;;;;;;;;;;;;;;;;;;;;;;;;;;;;;;;;;;;;"1261";"2014-10-15 15:26:51.631";"NST_correctLoc";"26";"0";"FINISHED";"LEFT";"success";"463";"0";"2014-10-15 15:26:50.367";"3";;;;;;;;;;;;;;;;;;;;;;;;;;;;;;;;;
"ellebelle123";"1995";;"Windows 7";"Rachel's Experiment (D.T.)";"1.0";"2";"1";"1";"2";"1";"1";"2014-10-15 15:20:57.963";"2014-10-15 15:35:57.133";"1";"1";"1";"97";"96";"module.training_block3.exec-1134.GoNoGo3";;;;;;;;;;;;;;;;;;;;;;;;;;;;;;;;;;;;;;;;;;;;;;;"1261";"2014-10-15 15:26:54.174";"ST_correctStop";"21";"0";"FINISHED";"NONE";"success";"0";"1";"2014-10-15 15:26:52.910";"3";;;;;;;;;;;;;;;;;;;;;;;;;;;;;;;;;
"ellebelle123";"1995";;"Windows 7";"Rachel's Experiment (D.T.)";"1.0";"2";"1";"1";"2";"1";"1";"2014-10-15 15:20:57.963";"2014-10-15 15:35:57.133";"1";"1";"1";"98";"97";"module.training_block3.exec-1134.GoNoGo3";;;;;;;;;;;;;;;;;;;;;;;;;;;;;;;;;;;;;;;;;;;;;;;"1261";"2014-10-15 15:26:56.717";"NST_correctLoc";"14";"0";"FINISHED";"LEFT";"success";"458";"0";"2014-10-15 15:26:55.453";"2";;;;;;;;;;;;;;;;;;;;;;;;;;;;;;;;;
"ellebelle123";"1995";;"Windows 7";"Rachel's Experiment (D.T.)";"1.0";"2";"1";"1";"2";"1";"1";"2014-10-15 15:20:57.963";"2014-10-15 15:35:57.133";"1";"1";"1";"99";"98";"module.training_block3.exec-1134.GoNoGo3";;;;;;;;;;;;;;;;;;;;;;;;;;;;;;;;;;;;;;;;;;;;;;;"1261";"2014-10-15 15:26:59.259";"NST_correctLoc";"10";"1";"FINISHED";"RIGHT";"success";"387";"0";"2014-10-15 15:26:57.996";"2";;;;;;;;;;;;;;;;;;;;;;;;;;;;;;;;;
"ellebelle123";"1995";;"Windows 7";"Rachel's Experiment (D.T.)";"1.0";"2";"1";"1";"2";"1";"1";"2014-10-15 15:20:57.963";"2014-10-15 15:35:57.133";"1";"1";"1";"100";"99";"module.training_block3.exec-1134.GoNoGo3";;;;;;;;;;;;;;;;;;;;;;;;;;;;;;;;;;;;;;;;;;;;;;;"1261";"2014-10-15 15:27:01.802";"NST_correctLoc";"24";"1";"FINISHED";"RIGHT";"success";"364";"0";"2014-10-15 15:27:00.539";"3";;;;;;;;;;;;;;;;;;;;;;;;;;;;;;;;;
"ellebelle123";"1995";;"Windows 7";"Rachel's Experiment (D.T.)";"1.0";"2";"1";"1";"2";"1";"1";"2014-10-15 15:20:57.963";"2014-10-15 15:35:57.133";"1";"1";"1";"101";"100";"module.training_block3.exec-1134.GoNoGo3";;;;;;;;;;;;;;;;;;;;;;;;;;;;;;;;;;;;;;;;;;;;;;;"1261";"2014-10-15 15:27:04.345";"NST_correctLoc";"31";"0";"FINISHED";"LEFT";"success";"413";"0";"2014-10-15 15:27:03.081";"3";;;;;;;;;;;;;;;;;;;;;;;;;;;;;;;;;
"ellebelle123";"1995";;"Windows 7";"Rachel's Experiment (D.T.)";"1.0";"2";"1";"1";"2";"1";"1";"2014-10-15 15:20:57.963";"2014-10-15 15:35:57.133";"1";"1";"1";"102";"101";"module.training_block3.exec-1134.GoNoGo3";;;;;;;;;;;;;;;;;;;;;;;;;;;;;;;;;;;;;;;;;;;;;;;"1261";"2014-10-15 15:27:06.888";"ST_correctStop";"22";"0";"FINISHED";"NONE";"success";"0";"1";"2014-10-15 15:27:05.624";"3";;;;;;;;;;;;;;;;;;;;;;;;;;;;;;;;;
"ellebelle123";"1995";;"Windows 7";"Rachel's Experiment (D.T.)";"1.0";"2";"1";"1";"2";"1";"1";"2014-10-15 15:20:57.963";"2014-10-15 15:35:57.133";"1";"1";"1";"103";"102";"module.training_block3.exec-1134.GoNoGo3";;;;;;;;;;;;;;;;;;;;;;;;;;;;;;;;;;;;;;;;;;;;;;;"1261";"2014-10-15 15:27:09.431";"ST_correctStop";"6";"0";"FINISHED";"NONE";"success";"0";"1";"2014-10-15 15:27:08.167";"1";;;;;;;;;;;;;;;;;;;;;;;;;;;;;;;;;
"ellebelle123";"1995";;"Windows 7";"Rachel's Experiment (D.T.)";"1.0";"2";"1";"1";"2";"1";"1";"2014-10-15 15:20:57.963";"2014-10-15 15:35:57.133";"1";"1";"1";"104";"103";"module.training_block3.exec-1134.GoNoGo3";;;;;;;;;;;;;;;;;;;;;;;;;;;;;;;;;;;;;;;;;;;;;;;"1261";"2014-10-15 15:27:11.973";"ST_correctStop";"0";"1";"FINISHED";"NONE";"success";"0";"1";"2014-10-15 15:27:10.710";"1";;;;;;;;;;;;;;;;;;;;;;;;;;;;;;;;;
"ellebelle123";"1995";;"Windows 7";"Rachel's Experiment (D.T.)";"1.0";"2";"1";"1";"2";"1";"1";"2014-10-15 15:20:57.963";"2014-10-15 15:35:57.133";"1";"1";"1";"105";"104";"module.training_block3.exec-1134.GoNoGo3";;;;;;;;;;;;;;;;;;;;;;;;;;;;;;;;;;;;;;;;;;;;;;;"1261";"2014-10-15 15:27:14.516";"NST_correctLoc";"20";"1";"FINISHED";"RIGHT";"success";"466";"0";"2014-10-15 15:27:13.253";"3";;;;;;;;;;;;;;;;;;;;;;;;;;;;;;;;;
"ellebelle123";"1995";;"Windows 7";"Rachel's Experiment (D.T.)";"1.0";"2";"1";"1";"2";"1";"1";"2014-10-15 15:20:57.963";"2014-10-15 15:35:57.133";"1";"1";"1";"106";"105";"module.training_block3.exec-1134.GoNoGo3";;;;;;;;;;;;;;;;;;;;;;;;;;;;;;;;;;;;;;;;;;;;;;;"1261";"2014-10-15 15:27:17.059";"NST_correctLoc";"13";"1";"FINISHED";"RIGHT";"success";"451";"0";"2014-10-15 15:27:15.795";"2";;;;;;;;;;;;;;;;;;;;;;;;;;;;;;;;;
"ellebelle123";"1995";;"Windows 7";"Rachel's Experiment (D.T.)";"1.0";"2";"1";"1";"2";"1";"1";"2014-10-15 15:20:57.963";"2014-10-15 15:35:57.133";"1";"1";"1";"107";"106";"module.training_block3.exec-1134.GoNoGo3";;;;;;;;;;;;;;;;;;;;;;;;;;;;;;;;;;;;;;;;;;;;;;;"1261";"2014-10-15 15:27:19.586";"NST_correctLoc";"16";"0";"FINISHED";"LEFT";"success";"396";"0";"2014-10-15 15:27:18.323";"2";;;;;;;;;;;;;;;;;;;;;;;;;;;;;;;;;
"ellebelle123";"1995";;"Windows 7";"Rachel's Experiment (D.T.)";"1.0";"2";"1";"1";"2";"1";"1";"2014-10-15 15:20:57.963";"2014-10-15 15:35:57.133";"1";"1";"1";"108";"107";"module.training_block3.exec-1134.GoNoGo3";;;;;;;;;;;;;;;;;;;;;;;;;;;;;;;;;;;;;;;;;;;;;;;"1261";"2014-10-15 15:27:22.129";"ST_correctStop";"1";"0";"FINISHED";"NONE";"success";"0";"1";"2014-10-15 15:27:20.865";"1";;;;;;;;;;;;;;;;;;;;;;;;;;;;;;;;;
"ellebelle123";"1995";;"Windows 7";"Rachel's Experiment (D.T.)";"1.0";"2";"1";"1";"2";"1";"1";"2014-10-15 15:20:57.963";"2014-10-15 15:35:57.133";"1";"1";"1";"109";"108";"module.training_block3.exec-1134.GoNoGo3";;;;;;;;;;;;;;;;;;;;;;;;;;;;;;;;;;;;;;;;;;;;;;;"1262";"2014-10-15 15:27:24.672";"NST_correctLoc";"15";"0";"FINISHED";"LEFT";"success";"414";"0";"2014-10-15 15:27:23.408";"2";;;;;;;;;;;;;;;;;;;;;;;;;;;;;;;;;
"ellebelle123";"1995";;"Windows 7";"Rachel's Experiment (D.T.)";"1.0";"2";"1";"1";"2";"1";"1";"2014-10-15 15:20:57.963";"2014-10-15 15:35:57.133";"1";"1";"1";"110";"109";"module.training_block3.exec-1134.GoNoGo3";;;;;;;;;;;;;;;;;;;;;;;;;;;;;;;;;;;;;;;;;;;;;;;"1261";"2014-10-15 15:27:27.215";"ST_correctStop";"32";"1";"FINISHED";"NONE";"success";"0";"1";"2014-10-15 15:27:25.951";"3";;;;;;;;;;;;;;;;;;;;;;;;;;;;;;;;;
"ellebelle123";"1995";;"Windows 7";"Rachel's Experiment (D.T.)";"1.0";"2";"1";"1";"2";"1";"1";"2014-10-15 15:20:57.963";"2014-10-15 15:35:57.133";"1";"1";"1";"111";"110";"module.training_block3.exec-1134.GoNoGo3";;;;;;;;;;;;;;;;;;;;;;;;;;;;;;;;;;;;;;;;;;;;;;;"1262";"2014-10-15 15:27:29.758";"ST_correctStop";"30";"1";"FINISHED";"NONE";"success";"0";"1";"2014-10-15 15:27:28.494";"3";;;;;;;;;;;;;;;;;;;;;;;;;;;;;;;;;
"ellebelle123";"1995";;"Windows 7";"Rachel's Experiment (D.T.)";"1.0";"2";"1";"1";"2";"1";"1";"2014-10-15 15:20:57.963";"2014-10-15 15:35:57.133";"1";"1";"1";"112";"111";"module.training_block3.exec-1134.GoNoGo3";;;;;;;;;;;;;;;;;;;;;;;;;;;;;;;;;;;;;;;;;;;;;;;"1261";"2014-10-15 15:27:32.285";"ST_correctStop";"28";"1";"FINISHED";"NONE";"success";"0";"1";"2014-10-15 15:27:31.021";"3";;;;;;;;;;;;;;;;;;;;;;;;;;;;;;;;;
"ellebelle123";"1995";;"Windows 7";"Rachel's Experiment (D.T.)";"1.0";"2";"1";"1";"2";"1";"1";"2014-10-15 15:20:57.963";"2014-10-15 15:35:57.133";"1";"1";"1";"113";"112";"module.training_block3.exec-1134.GoNoGo3";;;;;;;;;;;;;;;;;;;;;;;;;;;;;;;;;;;;;;;;;;;;;;;"1261";"2014-10-15 15:27:34.828";"ST_correctStop";"33";"1";"FINISHED";"NONE";"success";"0";"1";"2014-10-15 15:27:33.564";"3";;;;;;;;;;;;;;;;;;;;;;;;;;;;;;;;;
"ellebelle123";"1995";;"Windows 7";"Rachel's Experiment (D.T.)";"1.0";"2";"1";"1";"2";"1";"1";"2014-10-15 15:20:57.963";"2014-10-15 15:35:57.133";"1";"1";"1";"114";"113";"module.training_block3.exec-1134.GoNoGo3";;;;;;;;;;;;;;;;;;;;;;;;;;;;;;;;;;;;;;;;;;;;;;;"1261";"2014-10-15 15:27:37.370";"ST_correctStop";"4";"1";"FINISHED";"NONE";"success";"0";"1";"2014-10-15 15:27:36.107";"1";;;;;;;;;;;;;;;;;;;;;;;;;;;;;;;;;
"ellebelle123";"1995";;"Windows 7";"Rachel's Experiment (D.T.)";"1.0";"2";"1";"1";"2";"1";"1";"2014-10-15 15:20:57.963";"2014-10-15 15:35:57.133";"1";"1";"1";"115";"114";"module.training_block3.exec-1134.GoNoGo3";;;;;;;;;;;;;;;;;;;;;;;;;;;;;;;;;;;;;;;;;;;;;;;"1261";"2014-10-15 15:27:39.913";"ST_correctStop";"35";"1";"FINISHED";"NONE";"success";"0";"1";"2014-10-15 15:27:38.650";"3";;;;;;;;;;;;;;;;;;;;;;;;;;;;;;;;;
"ellebelle123";"1995";;"Windows 7";"Rachel's Experiment (D.T.)";"1.0";"2";"1";"1";"2";"1";"1";"2014-10-15 15:20:57.963";"2014-10-15 15:35:57.133";"1";"1";"1";"116";"115";"module.training_block3.exec-1134.GoNoGo3";;;;;;;;;;;;;;;;;;;;;;;;;;;;;;;;;;;;;;;;;;;;;;;"1256";"2014-10-15 15:27:42.456";"NST_correctLoc";"17";"1";"FINISHED";"RIGHT";"success";"457";"0";"2014-10-15 15:27:41.192";"2";;;;;;;;;;;;;;;;;;;;;;;;;;;;;;;;;
"ellebelle123";"1995";;"Windows 7";"Rachel's Experiment (D.T.)";"1.0";"2";"1";"1";"2";"1";"1";"2014-10-15 15:20:57.963";"2014-10-15 15:35:57.133";"1";"1";"1";"117";"116";"module.training_block3.exec-1134.GoNoGo3";;;;;;;;;;;;;;;;;;;;;;;;;;;;;;;;;;;;;;;;;;;;;;;"1261";"2014-10-15 15:27:44.999";"NST_correctLoc";"9";"0";"FINISHED";"LEFT";"success";"391";"0";"2014-10-15 15:27:43.735";"2";;;;;;;;;;;;;;;;;;;;;;;;;;;;;;;;;
"ellebelle123";"1995";;"Windows 7";"Rachel's Experiment (D.T.)";"1.0";"2";"1";"1";"2";"1";"1";"2014-10-15 15:20:57.963";"2014-10-15 15:35:57.133";"1";"1";"1";"118";"117";"module.training_block3.exec-1134.GoNoGo3";;;;;;;;;;;;;;;;;;;;;;;;;;;;;;;;;;;;;;;;;;;;;;;"1261";"2014-10-15 15:27:47.542";"NST_correctLoc";"34";"0";"FINISHED";"LEFT";"success";"400";"0";"2014-10-15 15:27:46.278";"3";;;;;;;;;;;;;;;;;;;;;;;;;;;;;;;;;
"ellebelle123";"1995";;"Windows 7";"Rachel's Experiment (D.T.)";"1.0";"2";"1";"1";"2";"1";"1";"2014-10-15 15:20:57.963";"2014-10-15 15:35:57.133";"1";"1";"1";"119";"118";"module.training_block3.exec-1134.GoNoGo3";;;;;;;;;;;;;;;;;;;;;;;;;;;;;;;;;;;;;;;;;;;;;;;"1261";"2014-10-15 15:27:50.069";"ST_correctStop";"29";"0";"FINISHED";"NONE";"success";"0";"1";"2014-10-15 15:27:48.805";"3";;;;;;;;;;;;;;;;;;;;;;;;;;;;;;;;;
"ellebelle123";"1995";;"Windows 7";"Rachel's Experiment (D.T.)";"1.0";"2";"1";"1";"2";"1";"1";"2014-10-15 15:20:57.963";"2014-10-15 15:35:57.133";"1";"1";"1";"120";"119";"module.training_block3.exec-1134.GoNoGo3";;;;;;;;;;;;;;;;;;;;;;;;;;;;;;;;;;;;;;;;;;;;;;;"1261";"2014-10-15 15:27:52.612";"ST_correctStop";"3";"1";"FINISHED";"NONE";"success";"0";"1";"2014-10-15 15:27:51.348";"1";;;;;;;;;;;;;;;;;;;;;;;;;;;;;;;;;
"ellebelle123";"1995";;"Windows 7";"Rachel's Experiment (D.T.)";"1.0";"2";"1";"1";"2";"1";"1";"2014-10-15 15:20:57.963";"2014-10-15 15:35:57.133";"1";"1";"1";"121";"120";"module.training_block3.exec-1134.GoNoGo3";;;;;;;;;;;;;;;;;;;;;;;;;;;;;;;;;;;;;;;;;;;;;;;"1262";"2014-10-15 15:27:55.154";"ST_correctStop";"5";"1";"FINISHED";"NONE";"success";"0";"1";"2014-10-15 15:27:53.891";"1";;;;;;;;;;;;;;;;;;;;;;;;;;;;;;;;;
"ellebelle123";"1995";;"Windows 7";"Rachel's Experiment (D.T.)";"1.0";"2";"1";"1";"2";"1";"1";"2014-10-15 15:20:57.963";"2014-10-15 15:35:57.133";"1";"1";"1";"122";"121";"module.training_block3.exec-1134.GoNoGo3";;;;;;;;;;;;;;;;;;;;;;;;;;;;;;;;;;;;;;;;;;;;;;;"1261";"2014-10-15 15:27:57.697";"NST_correctLoc";"25";"1";"FINISHED";"RIGHT";"success";"429";"0";"2014-10-15 15:27:56.434";"3";;;;;;;;;;;;;;;;;;;;;;;;;;;;;;;;;
"ellebelle123";"1995";;"Windows 7";"Rachel's Experiment (D.T.)";"1.0";"2";"1";"1";"2";"1";"1";"2014-10-15 15:20:57.963";"2014-10-15 15:35:57.133";"1";"1";"1";"123";"122";"module.training_block3.exec-1134.GoNoGo3";;;;;;;;;;;;;;;;;;;;;;;;;;;;;;;;;;;;;;;;;;;;;;;"1261";"2014-10-15 15:28:00.240";"ST_correctStop";"23";"0";"FINISHED";"NONE";"success";"0";"1";"2014-10-15 15:27:58.976";"3";;;;;;;;;;;;;;;;;;;;;;;;;;;;;;;;;
"ellebelle123";"1995";;"Windows 7";"Rachel's Experiment (D.T.)";"1.0";"2";"1";"1";"2";"1";"1";"2014-10-15 15:20:57.963";"2014-10-15 15:35:57.133";"1";"1";"1";"124";"123";"module.training_block4.exec-4941.GoNoGo4";;;;;;;;;;;;;;;;;;;;;;;;;;;;;;;;;;;;;;;;;;;;;;;;;;;;;;;;;;;"1261";"2014-10-15 15:28:10.988";"ST_correctStop";"0";"1";"FINISHED";"NONE";"success";"0";"1";"2014-10-15 15:28:09.725";"1";;;;;;;;;;;;;;;;;;;;;
"ellebelle123";"1995";;"Windows 7";"Rachel's Experiment (D.T.)";"1.0";"2";"1";"1";"2";"1";"1";"2014-10-15 15:20:57.963";"2014-10-15 15:35:57.133";"1";"1";"1";"125";"124";"module.training_block4.exec-4941.GoNoGo4";;;;;;;;;;;;;;;;;;;;;;;;;;;;;;;;;;;;;;;;;;;;;;;;;;;;;;;;;;;"1261";"2014-10-15 15:28:13.516";"NST_correctLoc";"35";"0";"FINISHED";"LEFT";"success";"410";"0";"2014-10-15 15:28:12.252";"3";;;;;;;;;;;;;;;;;;;;;
"ellebelle123";"1995";;"Windows 7";"Rachel's Experiment (D.T.)";"1.0";"2";"1";"1";"2";"1";"1";"2014-10-15 15:20:57.963";"2014-10-15 15:35:57.133";"1";"1";"1";"126";"125";"module.training_block4.exec-4941.GoNoGo4";;;;;;;;;;;;;;;;;;;;;;;;;;;;;;;;;;;;;;;;;;;;;;;;;;;;;;;;;;;"1261";"2014-10-15 15:28:16.043";"NST_correctLoc";"10";"0";"FINISHED";"LEFT";"success";"403";"0";"2014-10-15 15:28:14.779";"2";;;;;;;;;;;;;;;;;;;;;
"ellebelle123";"1995";;"Windows 7";"Rachel's Experiment (D.T.)";"1.0";"2";"1";"1";"2";"1";"1";"2014-10-15 15:20:57.963";"2014-10-15 15:35:57.133";"1";"1";"1";"127";"126";"module.training_block4.exec-4941.GoNoGo4";;;;;;;;;;;;;;;;;;;;;;;;;;;;;;;;;;;;;;;;;;;;;;;;;;;;;;;;;;;"1261";"2014-10-15 15:28:18.601";"ST_failedStop";"20";"1";"FINISHED";"RIGHT";"failure";"333";"1";"2014-10-15 15:28:17.338";"3";;;;;;;;;;;;;;;;;;;;;
"ellebelle123";"1995";;"Windows 7";"Rachel's Experiment (D.T.)";"1.0";"2";"1";"1";"2";"1";"1";"2014-10-15 15:20:57.963";"2014-10-15 15:35:57.133";"1";"1";"1";"128";"127";"module.training_block4.exec-4941.GoNoGo4";;;;;;;;;;;;;;;;;;;;;;;;;;;;;;;;;;;;;;;;;;;;;;;;;;;;;;;;;;;"1261";"2014-10-15 15:28:21.128";"NST_correctLoc";"16";"1";"FINISHED";"RIGHT";"success";"405";"0";"2014-10-15 15:28:19.865";"2";;;;;;;;;;;;;;;;;;;;;
"ellebelle123";"1995";;"Windows 7";"Rachel's Experiment (D.T.)";"1.0";"2";"1";"1";"2";"1";"1";"2014-10-15 15:20:57.963";"2014-10-15 15:35:57.133";"1";"1";"1";"129";"128";"module.training_block4.exec-4941.GoNoGo4";;;;;;;;;;;;;;;;;;;;;;;;;;;;;;;;;;;;;;;;;;;;;;;;;;;;;;;;;;;"1262";"2014-10-15 15:28:23.671";"NST_correctLoc";"18";"1";"FINISHED";"RIGHT";"success";"463";"0";"2014-10-15 15:28:22.408";"3";;;;;;;;;;;;;;;;;;;;;
"ellebelle123";"1995";;"Windows 7";"Rachel's Experiment (D.T.)";"1.0";"2";"1";"1";"2";"1";"1";"2014-10-15 15:20:57.963";"2014-10-15 15:35:57.133";"1";"1";"1";"130";"129";"module.training_block4.exec-4941.GoNoGo4";;;;;;;;;;;;;;;;;;;;;;;;;;;;;;;;;;;;;;;;;;;;;;;;;;;;;;;;;;;"1261";"2014-10-15 15:28:26.198";"NST_correctLoc";"31";"0";"FINISHED";"LEFT";"success";"391";"0";"2014-10-15 15:28:24.935";"3";;;;;;;;;;;;;;;;;;;;;
"ellebelle123";"1995";;"Windows 7";"Rachel's Experiment (D.T.)";"1.0";"2";"1";"1";"2";"1";"1";"2014-10-15 15:20:57.963";"2014-10-15 15:35:57.133";"1";"1";"1";"131";"130";"module.training_block4.exec-4941.GoNoGo4";;;;;;;;;;;;;;;;;;;;;;;;;;;;;;;;;;;;;;;;;;;;;;;;;;;;;;;;;;;"1261";"2014-10-15 15:28:28.726";"ST_correctStop";"21";"1";"FINISHED";"NONE";"success";"0";"1";"2014-10-15 15:28:27.462";"3";;;;;;;;;;;;;;;;;;;;;
"ellebelle123";"1995";;"Windows 7";"Rachel's Experiment (D.T.)";"1.0";"2";"1";"1";"2";"1";"1";"2014-10-15 15:20:57.963";"2014-10-15 15:35:57.133";"1";"1";"1";"132";"131";"module.training_block4.exec-4941.GoNoGo4";;;;;;;;;;;;;;;;;;;;;;;;;;;;;;;;;;;;;;;;;;;;;;;;;;;;;;;;;;;"1261";"2014-10-15 15:28:31.253";"NST_correctLoc";"13";"1";"FINISHED";"RIGHT";"success";"441";"0";"2014-10-15 15:28:29.989";"2";;;;;;;;;;;;;;;;;;;;;
"ellebelle123";"1995";;"Windows 7";"Rachel's Experiment (D.T.)";"1.0";"2";"1";"1";"2";"1";"1";"2014-10-15 15:20:57.963";"2014-10-15 15:35:57.133";"1";"1";"1";"133";"132";"module.training_block4.exec-4941.GoNoGo4";;;;;;;;;;;;;;;;;;;;;;;;;;;;;;;;;;;;;;;;;;;;;;;;;;;;;;;;;;;"1261";"2014-10-15 15:28:33.780";"ST_correctStop";"5";"1";"FINISHED";"NONE";"success";"0";"1";"2014-10-15 15:28:32.516";"1";;;;;;;;;;;;;;;;;;;;;
"ellebelle123";"1995";;"Windows 7";"Rachel's Experiment (D.T.)";"1.0";"2";"1";"1";"2";"1";"1";"2014-10-15 15:20:57.963";"2014-10-15 15:35:57.133";"1";"1";"1";"134";"133";"module.training_block4.exec-4941.GoNoGo4";;;;;;;;;;;;;;;;;;;;;;;;;;;;;;;;;;;;;;;;;;;;;;;;;;;;;;;;;;;"1261";"2014-10-15 15:28:36.307";"ST_correctStop";"8";"0";"FINISHED";"NONE";"success";"0";"1";"2014-10-15 15:28:35.044";"1";;;;;;;;;;;;;;;;;;;;;
"ellebelle123";"1995";;"Windows 7";"Rachel's Experiment (D.T.)";"1.0";"2";"1";"1";"2";"1";"1";"2014-10-15 15:20:57.963";"2014-10-15 15:35:57.133";"1";"1";"1";"135";"134";"module.training_block4.exec-4941.GoNoGo4";;;;;;;;;;;;;;;;;;;;;;;;;;;;;;;;;;;;;;;;;;;;;;;;;;;;;;;;;;;"1261";"2014-10-15 15:28:38.834";"NST_correctLoc";"25";"1";"FINISHED";"RIGHT";"success";"451";"0";"2014-10-15 15:28:37.571";"3";;;;;;;;;;;;;;;;;;;;;
"ellebelle123";"1995";;"Windows 7";"Rachel's Experiment (D.T.)";"1.0";"2";"1";"1";"2";"1";"1";"2014-10-15 15:20:57.963";"2014-10-15 15:35:57.133";"1";"1";"1";"136";"135";"module.training_block4.exec-4941.GoNoGo4";;;;;;;;;;;;;;;;;;;;;;;;;;;;;;;;;;;;;;;;;;;;;;;;;;;;;;;;;;;"1261";"2014-10-15 15:28:41.362";"ST_correctStop";"3";"1";"FINISHED";"NONE";"success";"0";"1";"2014-10-15 15:28:40.098";"1";;;;;;;;;;;;;;;;;;;;;
"ellebelle123";"1995";;"Windows 7";"Rachel's Experiment (D.T.)";"1.0";"2";"1";"1";"2";"1";"1";"2014-10-15 15:20:57.963";"2014-10-15 15:35:57.133";"1";"1";"1";"137";"136";"module.training_block4.exec-4941.GoNoGo4";;;;;;;;;;;;;;;;;;;;;;;;;;;;;;;;;;;;;;;;;;;;;;;;;;;;;;;;;;;"1261";"2014-10-15 15:28:43.904";"ST_correctStop";"30";"0";"FINISHED";"NONE";"success";"0";"1";"2014-10-15 15:28:42.641";"3";;;;;;;;;;;;;;;;;;;;;
"ellebelle123";"1995";;"Windows 7";"Rachel's Experiment (D.T.)";"1.0";"2";"1";"1";"2";"1";"1";"2014-10-15 15:20:57.963";"2014-10-15 15:35:57.133";"1";"1";"1";"138";"137";"module.training_block4.exec-4941.GoNoGo4";;;;;;;;;;;;;;;;;;;;;;;;;;;;;;;;;;;;;;;;;;;;;;;;;;;;;;;;;;;"1261";"2014-10-15 15:28:46.432";"ST_correctStop";"6";"0";"FINISHED";"NONE";"success";"0";"1";"2014-10-15 15:28:45.168";"1";;;;;;;;;;;;;;;;;;;;;
"ellebelle123";"1995";;"Windows 7";"Rachel's Experiment (D.T.)";"1.0";"2";"1";"1";"2";"1";"1";"2014-10-15 15:20:57.963";"2014-10-15 15:35:57.133";"1";"1";"1";"139";"138";"module.training_block4.exec-4941.GoNoGo4";;;;;;;;;;;;;;;;;;;;;;;;;;;;;;;;;;;;;;;;;;;;;;;;;;;;;;;;;;;"1261";"2014-10-15 15:28:48.959";"ST_correctStop";"29";"0";"FINISHED";"NONE";"success";"0";"1";"2014-10-15 15:28:47.695";"3";;;;;;;;;;;;;;;;;;;;;
"ellebelle123";"1995";;"Windows 7";"Rachel's Experiment (D.T.)";"1.0";"2";"1";"1";"2";"1";"1";"2014-10-15 15:20:57.963";"2014-10-15 15:35:57.133";"1";"1";"1";"140";"139";"module.training_block4.exec-4941.GoNoGo4";;;;;;;;;;;;;;;;;;;;;;;;;;;;;;;;;;;;;;;;;;;;;;;;;;;;;;;;;;;"1261";"2014-10-15 15:28:51.486";"ST_correctStop";"34";"1";"FINISHED";"NONE";"success";"0";"1";"2014-10-15 15:28:50.222";"3";;;;;;;;;;;;;;;;;;;;;
"ellebelle123";"1995";;"Windows 7";"Rachel's Experiment (D.T.)";"1.0";"2";"1";"1";"2";"1";"1";"2014-10-15 15:20:57.963";"2014-10-15 15:35:57.133";"1";"1";"1";"141";"140";"module.training_block4.exec-4941.GoNoGo4";;;;;;;;;;;;;;;;;;;;;;;;;;;;;;;;;;;;;;;;;;;;;;;;;;;;;;;;;;;"1261";"2014-10-15 15:28:54.060";"NST_correctLoc";"12";"0";"FINISHED";"LEFT";"success";"434";"0";"2014-10-15 15:28:52.796";"2";;;;;;;;;;;;;;;;;;;;;
"ellebelle123";"1995";;"Windows 7";"Rachel's Experiment (D.T.)";"1.0";"2";"1";"1";"2";"1";"1";"2014-10-15 15:20:57.963";"2014-10-15 15:35:57.133";"1";"1";"1";"142";"141";"module.training_block4.exec-4941.GoNoGo4";;;;;;;;;;;;;;;;;;;;;;;;;;;;;;;;;;;;;;;;;;;;;;;;;;;;;;;;;;;"1261";"2014-10-15 15:28:56.618";"NST_correctLoc";"15";"0";"FINISHED";"LEFT";"success";"379";"0";"2014-10-15 15:28:55.355";"2";;;;;;;;;;;;;;;;;;;;;
"ellebelle123";"1995";;"Windows 7";"Rachel's Experiment (D.T.)";"1.0";"2";"1";"1";"2";"1";"1";"2014-10-15 15:20:57.963";"2014-10-15 15:35:57.133";"1";"1";"1";"143";"142";"module.training_block4.exec-4941.GoNoGo4";;;;;;;;;;;;;;;;;;;;;;;;;;;;;;;;;;;;;;;;;;;;;;;;;;;;;;;;;;;"1257";"2014-10-15 15:28:59.146";"ST_correctStop";"2";"0";"FINISHED";"NONE";"success";"0";"1";"2014-10-15 15:28:57.882";"1";;;;;;;;;;;;;;;;;;;;;
"ellebelle123";"1995";;"Windows 7";"Rachel's Experiment (D.T.)";"1.0";"2";"1";"1";"2";"1";"1";"2014-10-15 15:20:57.963";"2014-10-15 15:35:57.133";"1";"1";"1";"144";"143";"module.training_block4.exec-4941.GoNoGo4";;;;;;;;;;;;;;;;;;;;;;;;;;;;;;;;;;;;;;;;;;;;;;;;;;;;;;;;;;;"1261";"2014-10-15 15:29:01.688";"ST_correctStop";"33";"1";"FINISHED";"NONE";"success";"0";"1";"2014-10-15 15:29:00.425";"3";;;;;;;;;;;;;;;;;;;;;
"ellebelle123";"1995";;"Windows 7";"Rachel's Experiment (D.T.)";"1.0";"2";"1";"1";"2";"1";"1";"2014-10-15 15:20:57.963";"2014-10-15 15:35:57.133";"1";"1";"1";"145";"144";"module.training_block4.exec-4941.GoNoGo4";;;;;;;;;;;;;;;;;;;;;;;;;;;;;;;;;;;;;;;;;;;;;;;;;;;;;;;;;;;"1261";"2014-10-15 15:29:04.216";"NST_correctLoc";"17";"0";"FINISHED";"LEFT";"success";"478";"0";"2014-10-15 15:29:02.952";"2";;;;;;;;;;;;;;;;;;;;;
"ellebelle123";"1995";;"Windows 7";"Rachel's Experiment (D.T.)";"1.0";"2";"1";"1";"2";"1";"1";"2014-10-15 15:20:57.963";"2014-10-15 15:35:57.133";"1";"1";"1";"146";"145";"module.training_block4.exec-4941.GoNoGo4";;;;;;;;;;;;;;;;;;;;;;;;;;;;;;;;;;;;;;;;;;;;;;;;;;;;;;;;;;;"1261";"2014-10-15 15:29:06.743";"NST_correctLoc";"28";"1";"FINISHED";"RIGHT";"success";"639";"0";"2014-10-15 15:29:05.479";"3";;;;;;;;;;;;;;;;;;;;;
"ellebelle123";"1995";;"Windows 7";"Rachel's Experiment (D.T.)";"1.0";"2";"1";"1";"2";"1";"1";"2014-10-15 15:20:57.963";"2014-10-15 15:35:57.133";"1";"1";"1";"147";"146";"module.training_block4.exec-4941.GoNoGo4";;;;;;;;;;;;;;;;;;;;;;;;;;;;;;;;;;;;;;;;;;;;;;;;;;;;;;;;;;;"1261";"2014-10-15 15:29:09.301";"ST_correctStop";"1";"0";"FINISHED";"NONE";"success";"0";"1";"2014-10-15 15:29:08.038";"1";;;;;;;;;;;;;;;;;;;;;
"ellebelle123";"1995";;"Windows 7";"Rachel's Experiment (D.T.)";"1.0";"2";"1";"1";"2";"1";"1";"2014-10-15 15:20:57.963";"2014-10-15 15:35:57.133";"1";"1";"1";"148";"147";"module.training_block4.exec-4941.GoNoGo4";;;;;;;;;;;;;;;;;;;;;;;;;;;;;;;;;;;;;;;;;;;;;;;;;;;;;;;;;;;"1261";"2014-10-15 15:29:11.828";"ST_correctStop";"4";"0";"FINISHED";"NONE";"success";"0";"1";"2014-10-15 15:29:10.565";"1";;;;;;;;;;;;;;;;;;;;;
"ellebelle123";"1995";;"Windows 7";"Rachel's Experiment (D.T.)";"1.0";"2";"1";"1";"2";"1";"1";"2014-10-15 15:20:57.963";"2014-10-15 15:35:57.133";"1";"1";"1";"149";"148";"module.training_block4.exec-4941.GoNoGo4";;;;;;;;;;;;;;;;;;;;;;;;;;;;;;;;;;;;;;;;;;;;;;;;;;;;;;;;;;;"1261";"2014-10-15 15:29:14.371";"ST_correctStop";"27";"0";"FINISHED";"NONE";"success";"0";"1";"2014-10-15 15:29:13.108";"3";;;;;;;;;;;;;;;;;;;;;
"ellebelle123";"1995";;"Windows 7";"Rachel's Experiment (D.T.)";"1.0";"2";"1";"1";"2";"1";"1";"2014-10-15 15:20:57.963";"2014-10-15 15:35:57.133";"1";"1";"1";"150";"149";"module.training_block4.exec-4941.GoNoGo4";;;;;;;;;;;;;;;;;;;;;;;;;;;;;;;;;;;;;;;;;;;;;;;;;;;;;;;;;;;"1261";"2014-10-15 15:29:16.898";"NST_correctLoc";"24";"1";"FINISHED";"RIGHT";"success";"355";"0";"2014-10-15 15:29:15.635";"3";;;;;;;;;;;;;;;;;;;;;
"ellebelle123";"1995";;"Windows 7";"Rachel's Experiment (D.T.)";"1.0";"2";"1";"1";"2";"1";"1";"2014-10-15 15:20:57.963";"2014-10-15 15:35:57.133";"1";"1";"1";"151";"150";"module.training_block4.exec-4941.GoNoGo4";;;;;;;;;;;;;;;;;;;;;;;;;;;;;;;;;;;;;;;;;;;;;;;;;;;;;;;;;;;"1262";"2014-10-15 15:29:19.426";"NST_correctLoc";"22";"0";"FINISHED";"LEFT";"success";"420";"0";"2014-10-15 15:29:18.162";"3";;;;;;;;;;;;;;;;;;;;;
"ellebelle123";"1995";;"Windows 7";"Rachel's Experiment (D.T.)";"1.0";"2";"1";"1";"2";"1";"1";"2014-10-15 15:20:57.963";"2014-10-15 15:35:57.133";"1";"1";"1";"152";"151";"module.training_block4.exec-4941.GoNoGo4";;;;;;;;;;;;;;;;;;;;;;;;;;;;;;;;;;;;;;;;;;;;;;;;;;;;;;;;;;;"1261";"2014-10-15 15:29:21.984";"NST_correctLoc";"11";"1";"FINISHED";"RIGHT";"success";"429";"0";"2014-10-15 15:29:20.721";"2";;;;;;;;;;;;;;;;;;;;;
"ellebelle123";"1995";;"Windows 7";"Rachel's Experiment (D.T.)";"1.0";"2";"1";"1";"2";"1";"1";"2014-10-15 15:20:57.963";"2014-10-15 15:35:57.133";"1";"1";"1";"153";"152";"module.training_block4.exec-4941.GoNoGo4";;;;;;;;;;;;;;;;;;;;;;;;;;;;;;;;;;;;;;;;;;;;;;;;;;;;;;;;;;;"1261";"2014-10-15 15:29:24.511";"NST_correctLoc";"9";"0";"FINISHED";"LEFT";"success";"446";"0";"2014-10-15 15:29:23.248";"2";;;;;;;;;;;;;;;;;;;;;
"ellebelle123";"1995";;"Windows 7";"Rachel's Experiment (D.T.)";"1.0";"2";"1";"1";"2";"1";"1";"2014-10-15 15:20:57.963";"2014-10-15 15:35:57.133";"1";"1";"1";"154";"153";"module.training_block4.exec-4941.GoNoGo4";;;;;;;;;;;;;;;;;;;;;;;;;;;;;;;;;;;;;;;;;;;;;;;;;;;;;;;;;;;"1261";"2014-10-15 15:29:27.054";"ST_correctStop";"19";"0";"FINISHED";"NONE";"success";"0";"1";"2014-10-15 15:29:25.791";"3";;;;;;;;;;;;;;;;;;;;;
"ellebelle123";"1995";;"Windows 7";"Rachel's Experiment (D.T.)";"1.0";"2";"1";"1";"2";"1";"1";"2014-10-15 15:20:57.963";"2014-10-15 15:35:57.133";"1";"1";"1";"155";"154";"module.training_block4.exec-4941.GoNoGo4";;;;;;;;;;;;;;;;;;;;;;;;;;;;;;;;;;;;;;;;;;;;;;;;;;;;;;;;;;;"1261";"2014-10-15 15:29:29.581";"NST_correctLoc";"23";"1";"FINISHED";"RIGHT";"success";"360";"0";"2014-10-15 15:29:28.318";"3";;;;;;;;;;;;;;;;;;;;;
"ellebelle123";"1995";;"Windows 7";"Rachel's Experiment (D.T.)";"1.0";"2";"1";"1";"2";"1";"1";"2014-10-15 15:20:57.963";"2014-10-15 15:35:57.133";"1";"1";"1";"156";"155";"module.training_block4.exec-4941.GoNoGo4";;;;;;;;;;;;;;;;;;;;;;;;;;;;;;;;;;;;;;;;;;;;;;;;;;;;;;;;;;;"1261";"2014-10-15 15:29:32.109";"ST_correctStop";"26";"0";"FINISHED";"NONE";"success";"0";"1";"2014-10-15 15:29:30.845";"3";;;;;;;;;;;;;;;;;;;;;
"ellebelle123";"1995";;"Windows 7";"Rachel's Experiment (D.T.)";"1.0";"2";"1";"1";"2";"1";"1";"2014-10-15 15:20:57.963";"2014-10-15 15:35:57.133";"1";"1";"1";"157";"156";"module.training_block4.exec-4941.GoNoGo4";;;;;;;;;;;;;;;;;;;;;;;;;;;;;;;;;;;;;;;;;;;;;;;;;;;;;;;;;;;"1261";"2014-10-15 15:29:34.636";"ST_correctStop";"7";"1";"FINISHED";"NONE";"success";"0";"1";"2014-10-15 15:29:33.372";"1";;;;;;;;;;;;;;;;;;;;;
"ellebelle123";"1995";;"Windows 7";"Rachel's Experiment (D.T.)";"1.0";"2";"1";"1";"2";"1";"1";"2014-10-15 15:20:57.963";"2014-10-15 15:35:57.133";"1";"1";"1";"158";"157";"module.training_block4.exec-4941.GoNoGo4";;;;;;;;;;;;;;;;;;;;;;;;;;;;;;;;;;;;;;;;;;;;;;;;;;;;;;;;;;;"1262";"2014-10-15 15:29:37.163";"NST_correctLoc";"14";"0";"FINISHED";"LEFT";"success";"402";"0";"2014-10-15 15:29:35.899";"2";;;;;;;;;;;;;;;;;;;;;
"ellebelle123";"1995";;"Windows 7";"Rachel's Experiment (D.T.)";"1.0";"2";"1";"1";"2";"1";"1";"2014-10-15 15:20:57.963";"2014-10-15 15:35:57.133";"1";"1";"1";"159";"158";"module.training_block4.exec-4941.GoNoGo4";;;;;;;;;;;;;;;;;;;;;;;;;;;;;;;;;;;;;;;;;;;;;;;;;;;;;;;;;;;"1261";"2014-10-15 15:29:39.690";"NST_correctLoc";"32";"1";"FINISHED";"RIGHT";"success";"371";"0";"2014-10-15 15:29:38.427";"3";;;;;;;;;;;;;;;;;;;;;
"ellebelle123";"1995";;"Windows 7";"Rachel's Experiment (D.T.)";"1.0";"2";"1";"1";"2";"1";"1";"2014-10-15 15:20:57.963";"2014-10-15 15:35:57.133";"1";"1";"1";"160";"159";"module.devaluation_practice.exec-4474.devalPractice";;;;;;;;;;;;"110702";"2014-10-15 15:32:00.948";"0";"5";"4";"6";"4805";"2949";"99894";"2014-10-15 15:30:10.251";;;;;;;;;;;;;;;;;;;;;;;;;;;;;;;;;;;;;;;;;;;;;;;;;;;;;;;;;;;;;;;;;;;;;;
"ellebelle123";"1995";;"Windows 7";"Rachel's Experiment (D.T.)";"1.0";"2";"1";"1";"2";"1";"1";"2014-10-15 15:20:57.963";"2014-10-15 15:35:57.133";"1";"1";"1";"161";"160";"module.devaluation_practice.exec-4474.devalPractice";;;;;;;;;;;;"7629";"2014-10-15 15:32:08.608";"1";"2";"1";"3";"1274";"1470";"1859";"2014-10-15 15:32:00.980";;;;;;;;;;;;;;;;;;;;;;;;;;;;;;;;;;;;;;;;;;;;;;;;;;;;;;;;;;;;;;;;;;;;;;
"ellebelle123";"1995";;"Windows 7";"Rachel's Experiment (D.T.)";"1.0";"2";"1";"1";"2";"1";"1";"2014-10-15 15:20:57.963";"2014-10-15 15:35:57.133";"1";"1";"1";"162";"161";"module.devaluation_practice.exec-4474.devalPractice";;;;;;;;;;;;"8013";"2014-10-15 15:32:16.642";"2";"5";"7";"7";"1499";"1733";"1751";"2014-10-15 15:32:08.624";;;;;;;;;;;;;;;;;;;;;;;;;;;;;;;;;;;;;;;;;;;;;;;;;;;;;;;;;;;;;;;;;;;;;;
"ellebelle123";"1995";;"Windows 7";"Rachel's Experiment (D.T.)";"1.0";"2";"1";"1";"2";"1";"1";"2014-10-15 15:20:57.963";"2014-10-15 15:35:57.133";"1";"1";"1";"163";"162";"module.devaluation_practice.exec-4474.devalPractice";;;;;;;;;;;;"7677";"2014-10-15 15:32:24.333";"3";"2";"1";"4";"1098";"1457";"2101";"2014-10-15 15:32:16.658";;;;;;;;;;;;;;;;;;;;;;;;;;;;;;;;;;;;;;;;;;;;;;;;;;;;;;;;;;;;;;;;;;;;;;
"ellebelle123";"1995";;"Windows 7";"Rachel's Experiment (D.T.)";"1.0";"2";"1";"1";"2";"1";"1";"2014-10-15 15:20:57.963";"2014-10-15 15:35:57.133";"1";"1";"1";"164";"163";"module.devaluation_block1.exec-1804.deval1";"11075";"2014-10-15 15:32:40.994";"5";"7";"7";"8";"3688";"1686";"2676";"2014-10-15 15:32:29.918";"1";;;;;;;;;;;;;;;;;;;;;;;;;;;;;;;;;;;;;;;;;;;;;;;;;;;;;;;;;;;;;;;;;;;;;;;;;;;;;;;;
"ellebelle123";"1995";;"Windows 7";"Rachel's Experiment (D.T.)";"1.0";"2";"1";"1";"2";"1";"1";"2014-10-15 15:20:57.963";"2014-10-15 15:35:57.133";"1";"1";"1";"165";"164";"module.devaluation_block1.exec-1804.deval1";"10078";"2014-10-15 15:32:51.087";"10";"8";"8";"8";"2093";"3304";"1656";"2014-10-15 15:32:41.009";"2";;;;;;;;;;;;;;;;;;;;;;;;;;;;;;;;;;;;;;;;;;;;;;;;;;;;;;;;;;;;;;;;;;;;;;;;;;;;;;;;
"ellebelle123";"1995";;"Windows 7";"Rachel's Experiment (D.T.)";"1.0";"2";"1";"1";"2";"1";"1";"2014-10-15 15:20:57.963";"2014-10-15 15:35:57.133";"1";"1";"1";"166";"165";"module.devaluation_block1.exec-1804.deval1";"7213";"2014-10-15 15:32:58.325";"2";"4";"2";"5";"2321";"1082";"761";"2014-10-15 15:32:51.118";"1";;;;;;;;;;;;;;;;;;;;;;;;;;;;;;;;;;;;;;;;;;;;;;;;;;;;;;;;;;;;;;;;;;;;;;;;;;;;;;;;
"ellebelle123";"1995";;"Windows 7";"Rachel's Experiment (D.T.)";"1.0";"2";"1";"1";"2";"1";"1";"2014-10-15 15:20:57.963";"2014-10-15 15:35:57.133";"1";"1";"1";"167";"166";"module.devaluation_block1.exec-1804.deval1";"8516";"2014-10-15 15:33:06.859";"20";"3";"2";"3";"1394";"2801";"1299";"2014-10-15 15:32:58.341";"3";;;;;;;;;;;;;;;;;;;;;;;;;;;;;;;;;;;;;;;;;;;;;;;;;;;;;;;;;;;;;;;;;;;;;;;;;;;;;;;;
"ellebelle123";"1995";;"Windows 7";"Rachel's Experiment (D.T.)";"1.0";"2";"1";"1";"2";"1";"1";"2014-10-15 15:20:57.963";"2014-10-15 15:35:57.133";"1";"1";"1";"168";"167";"module.devaluation_block1.exec-1804.deval1";"7861";"2014-10-15 15:33:14.737";"16";"2";"1";"1";"1636";"1608";"1468";"2014-10-15 15:33:06.874";"2";;;;;;;;;;;;;;;;;;;;;;;;;;;;;;;;;;;;;;;;;;;;;;;;;;;;;;;;;;;;;;;;;;;;;;;;;;;;;;;;
"ellebelle123";"1995";;"Windows 7";"Rachel's Experiment (D.T.)";"1.0";"2";"1";"1";"2";"1";"1";"2014-10-15 15:20:57.963";"2014-10-15 15:35:57.133";"1";"1";"1";"169";"168";"module.devaluation_block1.exec-1804.deval1";"9779";"2014-10-15 15:33:24.549";"21";"4";"6";"7";"2640";"2447";"1650";"2014-10-15 15:33:14.768";"3";;;;;;;;;;;;;;;;;;;;;;;;;;;;;;;;;;;;;;;;;;;;;;;;;;;;;;;;;;;;;;;;;;;;;;;;;;;;;;;;
"ellebelle123";"1995";;"Windows 7";"Rachel's Experiment (D.T.)";"1.0";"2";"1";"1";"2";"1";"1";"2014-10-15 15:20:57.963";"2014-10-15 15:35:57.133";"1";"1";"1";"170";"169";"module.devaluation_block1.exec-1804.deval1";"6685";"2014-10-15 15:33:31.241";"15";"2";"1";"1";"1066";"1242";"1347";"2014-10-15 15:33:24.565";"2";;;;;;;;;;;;;;;;;;;;;;;;;;;;;;;;;;;;;;;;;;;;;;;;;;;;;;;;;;;;;;;;;;;;;;;;;;;;;;;;
"ellebelle123";"1995";;"Windows 7";"Rachel's Experiment (D.T.)";"1.0";"2";"1";"1";"2";"1";"1";"2014-10-15 15:20:57.963";"2014-10-15 15:35:57.133";"1";"1";"1";"171";"170";"module.devaluation_block1.exec-1804.deval1";"8220";"2014-10-15 15:33:39.494";"26";"9";"7";"8";"2934";"1152";"1095";"2014-10-15 15:33:31.273";"3";;;;;;;;;;;;;;;;;;;;;;;;;;;;;;;;;;;;;;;;;;;;;;;;;;;;;;;;;;;;;;;;;;;;;;;;;;;;;;;;
"ellebelle123";"1995";;"Windows 7";"Rachel's Experiment (D.T.)";"1.0";"2";"1";"1";"2";"1";"1";"2014-10-15 15:20:57.963";"2014-10-15 15:35:57.133";"1";"1";"1";"172";"171";"module.devaluation_block1.exec-1804.deval1";"9338";"2014-10-15 15:33:48.854";"22";"7";"7";"7";"3377";"902";"2029";"2014-10-15 15:33:39.509";"3";;;;;;;;;;;;;;;;;;;;;;;;;;;;;;;;;;;;;;;;;;;;;;;;;;;;;;;;;;;;;;;;;;;;;;;;;;;;;;;;
"ellebelle123";"1995";;"Windows 7";"Rachel's Experiment (D.T.)";"1.0";"2";"1";"1";"2";"1";"1";"2014-10-15 15:20:57.963";"2014-10-15 15:35:57.133";"1";"1";"1";"173";"172";"module.devaluation_block1.exec-1804.deval1";"7417";"2014-10-15 15:33:56.279";"1";"4";"3";"5";"2553";"1213";"624";"2014-10-15 15:33:48.869";"1";;;;;;;;;;;;;;;;;;;;;;;;;;;;;;;;;;;;;;;;;;;;;;;;;;;;;;;;;;;;;;;;;;;;;;;;;;;;;;;;
"ellebelle123";"1995";;"Windows 7";"Rachel's Experiment (D.T.)";"1.0";"2";"1";"1";"2";"1";"1";"2014-10-15 15:20:57.963";"2014-10-15 15:35:57.133";"1";"1";"1";"174";"173";"module.devaluation_block1.exec-1804.deval1";"5929";"2014-10-15 15:34:02.239";"23";"8";"8";"8";"920";"784";"1189";"2014-10-15 15:33:56.311";"3";;;;;;;;;;;;;;;;;;;;;;;;;;;;;;;;;;;;;;;;;;;;;;;;;;;;;;;;;;;;;;;;;;;;;;;;;;;;;;;;
"ellebelle123";"1995";;"Windows 7";"Rachel's Experiment (D.T.)";"1.0";"2";"1";"1";"2";"1";"1";"2014-10-15 15:20:57.963";"2014-10-15 15:35:57.133";"1";"1";"1";"175";"174";"module.devaluation_block1.exec-1804.deval1";"6061";"2014-10-15 15:34:08.323";"13";"8";"7";"8";"1272";"905";"870";"2014-10-15 15:34:02.254";"2";;;;;;;;;;;;;;;;;;;;;;;;;;;;;;;;;;;;;;;;;;;;;;;;;;;;;;;;;;;;;;;;;;;;;;;;;;;;;;;;
"ellebelle123";"1995";;"Windows 7";"Rachel's Experiment (D.T.)";"1.0";"2";"1";"1";"2";"1";"1";"2014-10-15 15:20:57.963";"2014-10-15 15:35:57.133";"1";"1";"1";"176";"175";"module.devaluation_block1.exec-1804.deval1";"9573";"2014-10-15 15:34:17.932";"24";"6";"2";"3";"1605";"2136";"2803";"2014-10-15 15:34:08.354";"3";;;;;;;;;;;;;;;;;;;;;;;;;;;;;;;;;;;;;;;;;;;;;;;;;;;;;;;;;;;;;;;;;;;;;;;;;;;;;;;;
"ellebelle123";"1995";;"Windows 7";"Rachel's Experiment (D.T.)";"1.0";"2";"1";"1";"2";"1";"1";"2014-10-15 15:20:57.963";"2014-10-15 15:35:57.133";"1";"1";"1";"177";"176";"module.devaluation_block1.exec-1804.deval1";"6996";"2014-10-15 15:34:24.937";"18";"8";"8";"8";"1755";"977";"1237";"2014-10-15 15:34:17.948";"3";;;;;;;;;;;;;;;;;;;;;;;;;;;;;;;;;;;;;;;;;;;;;;;;;;;;;;;;;;;;;;;;;;;;;;;;;;;;;;;;
"ellebelle123";"1995";;"Windows 7";"Rachel's Experiment (D.T.)";"1.0";"2";"1";"1";"2";"1";"1";"2014-10-15 15:20:57.963";"2014-10-15 15:35:57.133";"1";"1";"1";"178";"177";"module.devaluation_block1.exec-1804.deval1";"5174";"2014-10-15 15:34:30.131";"3";"7";"7";"7";"646";"678";"836";"2014-10-15 15:34:24.952";"1";;;;;;;;;;;;;;;;;;;;;;;;;;;;;;;;;;;;;;;;;;;;;;;;;;;;;;;;;;;;;;;;;;;;;;;;;;;;;;;;
"ellebelle123";"1995";;"Windows 7";"Rachel's Experiment (D.T.)";"1.0";"2";"1";"1";"2";"1";"1";"2014-10-15 15:20:57.963";"2014-10-15 15:35:57.133";"1";"1";"1";"179";"178";"module.devaluation_block1.exec-1804.deval1";"6333";"2014-10-15 15:34:36.496";"0";"6";"7";"7";"1860";"747";"697";"2014-10-15 15:34:30.163";"1";;;;;;;;;;;;;;;;;;;;;;;;;;;;;;;;;;;;;;;;;;;;;;;;;;;;;;;;;;;;;;;;;;;;;;;;;;;;;;;;
"ellebelle123";"1995";;"Windows 7";"Rachel's Experiment (D.T.)";"1.0";"2";"1";"1";"2";"1";"1";"2014-10-15 15:20:57.963";"2014-10-15 15:35:57.133";"1";"1";"1";"180";"179";"module.devaluation_block1.exec-1804.deval1";"6732";"2014-10-15 15:34:43.251";"11";"7";"7";"7";"1247";"1201";"1252";"2014-10-15 15:34:36.512";"2";;;;;;;;;;;;;;;;;;;;;;;;;;;;;;;;;;;;;;;;;;;;;;;;;;;;;;;;;;;;;;;;;;;;;;;;;;;;;;;;
"ellebelle123";"1995";;"Windows 7";"Rachel's Experiment (D.T.)";"1.0";"2";"1";"1";"2";"1";"1";"2014-10-15 15:20:57.963";"2014-10-15 15:35:57.133";"1";"1";"1";"181";"180";"module.devaluation_block1.exec-1804.deval1";"6766";"2014-10-15 15:34:50.037";"12";"7";"7";"8";"1244";"840";"1664";"2014-10-15 15:34:43.267";"2";;;;;;;;;;;;;;;;;;;;;;;;;;;;;;;;;;;;;;;;;;;;;;;;;;;;;;;;;;;;;;;;;;;;;;;;;;;;;;;;
"ellebelle123";"1995";;"Windows 7";"Rachel's Experiment (D.T.)";"1.0";"2";"1";"1";"2";"1";"1";"2014-10-15 15:20:57.963";"2014-10-15 15:35:57.133";"1";"1";"1";"182";"181";"module.devaluation_block1.exec-1804.deval1";"6806";"2014-10-15 15:34:56.854";"6";"4";"3";"6";"1186";"1206";"1373";"2014-10-15 15:34:50.053";"1";;;;;;;;;;;;;;;;;;;;;;;;;;;;;;;;;;;;;;;;;;;;;;;;;;;;;;;;;;;;;;;;;;;;;;;;;;;;;;;;
"ellebelle123";"1995";;"Windows 7";"Rachel's Experiment (D.T.)";"1.0";"2";"1";"1";"2";"1";"1";"2014-10-15 15:20:57.963";"2014-10-15 15:35:57.133";"1";"1";"1";"183";"182";"module.devaluation_block1.exec-1804.deval1";"6781";"2014-10-15 15:35:03.656";"9";"8";"7";"8";"1712";"939";"1113";"2014-10-15 15:34:56.870";"2";;;;;;;;;;;;;;;;;;;;;;;;;;;;;;;;;;;;;;;;;;;;;;;;;;;;;;;;;;;;;;;;;;;;;;;;;;;;;;;;
"ellebelle123";"1995";;"Windows 7";"Rachel's Experiment (D.T.)";"1.0";"2";"1";"1";"2";"1";"1";"2014-10-15 15:20:57.963";"2014-10-15 15:35:57.133";"1";"1";"1";"184";"183";"module.devaluation_block1.exec-1804.deval1";"8572";"2014-10-15 15:35:12.252";"8";"7";"6";"6";"927";"1263";"3363";"2014-10-15 15:35:03.672";"1";;;;;;;;;;;;;;;;;;;;;;;;;;;;;;;;;;;;;;;;;;;;;;;;;;;;;;;;;;;;;;;;;;;;;;;;;;;;;;;;
"ellebelle123";"1995";;"Windows 7";"Rachel's Experiment (D.T.)";"1.0";"2";"1";"1";"2";"1";"1";"2014-10-15 15:20:57.963";"2014-10-15 15:35:57.133";"1";"1";"1";"185";"184";"module.devaluation_block1.exec-1804.deval1";"8356";"2014-10-15 15:35:20.629";"17";"1";"1";"1";"3275";"871";"1172";"2014-10-15 15:35:12.267";"2";;;;;;;;;;;;;;;;;;;;;;;;;;;;;;;;;;;;;;;;;;;;;;;;;;;;;;;;;;;;;;;;;;;;;;;;;;;;;;;;
"ellebelle123";"1995";;"Windows 7";"Rachel's Experiment (D.T.)";"1.0";"2";"1";"1";"2";"1";"1";"2014-10-15 15:20:57.963";"2014-10-15 15:35:57.133";"1";"1";"1";"186";"185";"module.devaluation_block1.exec-1804.deval1";"6789";"2014-10-15 15:35:27.430";"25";"6";"7";"7";"754";"1673";"1334";"2014-10-15 15:35:20.644";"3";;;;;;;;;;;;;;;;;;;;;;;;;;;;;;;;;;;;;;;;;;;;;;;;;;;;;;;;;;;;;;;;;;;;;;;;;;;;;;;;
"ellebelle123";"1995";;"Windows 7";"Rachel's Experiment (D.T.)";"1.0";"2";"1";"1";"2";"1";"1";"2014-10-15 15:20:57.963";"2014-10-15 15:35:57.133";"1";"1";"1";"187";"186";"module.devaluation_block1.exec-1804.deval1";"6333";"2014-10-15 15:35:33.780";"14";"8";"8";"8";"1048";"1114";"1136";"2014-10-15 15:35:27.446";"2";;;;;;;;;;;;;;;;;;;;;;;;;;;;;;;;;;;;;;;;;;;;;;;;;;;;;;;;;;;;;;;;;;;;;;;;;;;;;;;;
"ellebelle123";"1995";;"Windows 7";"Rachel's Experiment (D.T.)";"1.0";"2";"1";"1";"2";"1";"1";"2014-10-15 15:20:57.963";"2014-10-15 15:35:57.133";"1";"1";"1";"188";"187";"module.devaluation_block1.exec-1804.deval1";"7533";"2014-10-15 15:35:41.330";"7";"4";"1";"2";"1843";"1506";"1151";"2014-10-15 15:35:33.795";"1";;;;;;;;;;;;;;;;;;;;;;;;;;;;;;;;;;;;;;;;;;;;;;;;;;;;;;;;;;;;;;;;;;;;;;;;;;;;;;;;
"ellebelle123";"1995";;"Windows 7";"Rachel's Experiment (D.T.)";"1.0";"2";"1";"1";"2";"1";"1";"2014-10-15 15:20:57.963";"2014-10-15 15:35:57.133";"1";"1";"1";"189";"188";"module.devaluation_block1.exec-1804.deval1";"5998";"2014-10-15 15:35:47.352";"4";"7";"7";"7";"813";"1103";"1055";"2014-10-15 15:35:41.361";"1";;;;;;;;;;;;;;;;;;;;;;;;;;;;;;;;;;;;;;;;;;;;;;;;;;;;;;;;;;;;;;;;;;;;;;;;;;;;;;;;
"ellebelle123";"1995";;"Windows 7";"Rachel's Experiment (D.T.)";"1.0";"2";"1";"1";"2";"1";"1";"2014-10-15 15:20:57.963";"2014-10-15 15:35:57.133";"1";"1";"1";"190";"189";"module.devaluation_block1.exec-1804.deval1";"6587";"2014-10-15 15:35:53.966";"19";"8";"7";"8";"1095";"1455";"1000";"2014-10-15 15:35:47.383";"3";;;;;;;;;;;;;;;;;;;;;;;;;;;;;;;;;;;;;;;;;;;;;;;;;;;;;;;;;;;;;;;;;;;;;;;;;;;;;;;;
