"user.name";"user.yearOfBirth";"user.sex";"user.osName";"module.name";"module.version";"module.online.subject.code";"module.online.study.id";"module.online.module.nr";"module.online.group.nr";"session.id";"session.index";"session.startTime";"session.endTime";"session.completed";"session.node-9673.DevalQorder";"session.node-9751.conditionType";"trial.id";"trial.index";"trial.name";"trial.deval1.durationTime";"trial.deval1.endTime";"trial.deval1.icon";"trial.deval1.Resp_Attractive";"trial.deval1.Resp_Eat";"trial.deval1.Resp_Taste";"trial.deval1.RT_Attractive";"trial.deval1.RT_Eat";"trial.deval1.RT_Taste";"trial.deval1.startTime";"trial.deval1.stimulus type";"trial.devalPractice.durationTime";"trial.devalPractice.endTime";"trial.devalPractice.icon";"trial.devalPractice.Resp_Attractive";"trial.devalPractice.Resp_Eat";"trial.devalPractice.Resp_Taste";"trial.devalPractice.RT_Attractive";"trial.devalPractice.RT_Eat";"trial.devalPractice.RT_Taste";"trial.devalPractice.startTime";"trial.devalPractice.stimulus type";"trial.GoNoGo1.durationTime";"trial.GoNoGo1.endTime";"trial.GoNoGo1.Error Type";"trial.GoNoGo1.icon";"trial.GoNoGo1.location";"trial.GoNoGo1.outcome";"trial.GoNoGo1.response";"trial.GoNoGo1.result";"trial.GoNoGo1.RT";"trial.GoNoGo1.signal";"trial.GoNoGo1.startTime";"trial.GoNoGo1.stimulus type";"trial.GoNoGo2.durationTime";"trial.GoNoGo2.endTime";"trial.GoNoGo2.Error Type";"trial.GoNoGo2.icon";"trial.GoNoGo2.location";"trial.GoNoGo2.outcome";"trial.GoNoGo2.response";"trial.GoNoGo2.result";"trial.GoNoGo2.RT";"trial.GoNoGo2.signal";"trial.GoNoGo2.startTime";"trial.GoNoGo2.stimulus type";"trial.GoNoGo3.durationTime";"trial.GoNoGo3.endTime";"trial.GoNoGo3.Error Type";"trial.GoNoGo3.icon";"trial.GoNoGo3.location";"trial.GoNoGo3.outcome";"trial.GoNoGo3.response";"trial.GoNoGo3.result";"trial.GoNoGo3.RT";"trial.GoNoGo3.signal";"trial.GoNoGo3.startTime";"trial.GoNoGo3.stimulus type";"trial.GoNoGo4.durationTime";"trial.GoNoGo4.endTime";"trial.GoNoGo4.Error Type";"trial.GoNoGo4.icon";"trial.GoNoGo4.location";"trial.GoNoGo4.outcome";"trial.GoNoGo4.response";"trial.GoNoGo4.result";"trial.GoNoGo4.RT";"trial.GoNoGo4.signal";"trial.GoNoGo4.startTime";"trial.GoNoGo4.stimulus type";"trial.GoNoGo_Practice.durationTime";"trial.GoNoGo_Practice.endTime";"trial.GoNoGo_Practice.icon";"trial.GoNoGo_Practice.location";"trial.GoNoGo_Practice.outcome";"trial.GoNoGo_Practice.response";"trial.GoNoGo_Practice.result";"trial.GoNoGo_Practice.RT";"trial.GoNoGo_Practice.signal";"trial.GoNoGo_Practice.startTime";"trial.GoNoGo_Practice.stimulus type";"trial.GoNoGo_Tutorial.durationTime";"trial.GoNoGo_Tutorial.endTime";"trial.GoNoGo_Tutorial.icon";"trial.GoNoGo_Tutorial.location";"trial.GoNoGo_Tutorial.outcome";"trial.GoNoGo_Tutorial.response";"trial.GoNoGo_Tutorial.result";"trial.GoNoGo_Tutorial.RT";"trial.GoNoGo_Tutorial.signal";"trial.GoNoGo_Tutorial.startTime"
"lolarodgers1";;;"Windows 7";"Rachel's Experiment (D.T.)";"1.0";"2";"1";"1";"2";"1";"1";"2014-10-15 17:29:33.569";"2014-10-15 17:44:10.119";"1";"1";"0";"1";"0";"module.GoNoGotutorial.exec-5934.GoNoGo_Tutorial";;;;;;;;;;;;;;;;;;;;;;;;;;;;;;;;;;;;;;;;;;;;;;;;;;;;;;;;;;;;;;;;;;;;;;;;;;;;;;;;;;"3998";"2014-10-15 17:30:37.233";"leftResponse";"0";"FINISHED";"LEFT";"success";"3661";"0";"2014-10-15 17:30:33.224"
"lolarodgers1";;;"Windows 7";"Rachel's Experiment (D.T.)";"1.0";"2";"1";"1";"2";"1";"1";"2014-10-15 17:29:33.569";"2014-10-15 17:44:10.119";"1";"1";"0";"2";"1";"module.GoNoGotutorial.exec-5934.GoNoGo_Tutorial";;;;;;;;;;;;;;;;;;;;;;;;;;;;;;;;;;;;;;;;;;;;;;;;;;;;;;;;;;;;;;;;;;;;;;;;;;;;;;;;;;"4003";"2014-10-15 17:30:42.568";"rightResponse";"1";"FINISHED";"RIGHT";"success";"1163";"0";"2014-10-15 17:30:38.559"
"lolarodgers1";;;"Windows 7";"Rachel's Experiment (D.T.)";"1.0";"2";"1";"1";"2";"1";"1";"2014-10-15 17:29:33.569";"2014-10-15 17:44:10.119";"1";"1";"0";"3";"2";"module.GoNoGotutorial.exec-5934.GoNoGo_Tutorial";;;;;;;;;;;;;;;;;;;;;;;;;;;;;;;;;;;;;;;;;;;;;;;;;;;;;;;;;;;;;;;;;;;;;;;;;;;;;;;;;;"4003";"2014-10-15 17:30:47.872";"quickResponse";"0";"FINISHED";"NONE";"failure";"0";"0";"2014-10-15 17:30:43.863"
"lolarodgers1";;;"Windows 7";"Rachel's Experiment (D.T.)";"1.0";"2";"1";"1";"2";"1";"1";"2014-10-15 17:29:33.569";"2014-10-15 17:44:10.119";"1";"1";"0";"4";"3";"module.GoNoGopractice.exec-5566.GoNoGo_Practice";;;;;;;;;;;;;;;;;;;;;;;;;;;;;;;;;;;;;;;;;;;;;;;;;;;;;;;;;;;;;;;;;;;;;;;"1959";"2014-10-15 17:30:57.763";"18";"0";"FINISHED";"LEFT";"success";"348";"0";"2014-10-15 17:30:55.797";"3";;;;;;;;;;
"lolarodgers1";;;"Windows 7";"Rachel's Experiment (D.T.)";"1.0";"2";"1";"1";"2";"1";"1";"2014-10-15 17:29:33.569";"2014-10-15 17:44:10.119";"1";"1";"0";"5";"4";"module.GoNoGopractice.exec-5566.GoNoGo_Practice";;;;;;;;;;;;;;;;;;;;;;;;;;;;;;;;;;;;;;;;;;;;;;;;;;;;;;;;;;;;;;;;;;;;;;;"1954";"2014-10-15 17:31:01.008";"21";"1";"FINISHED";"RIGHT";"success";"307";"0";"2014-10-15 17:30:59.042";"3";;;;;;;;;;
"lolarodgers1";;;"Windows 7";"Rachel's Experiment (D.T.)";"1.0";"2";"1";"1";"2";"1";"1";"2014-10-15 17:29:33.569";"2014-10-15 17:44:10.119";"1";"1";"0";"6";"5";"module.GoNoGopractice.exec-5566.GoNoGo_Practice";;;;;;;;;;;;;;;;;;;;;;;;;;;;;;;;;;;;;;;;;;;;;;;;;;;;;;;;;;;;;;;;;;;;;;;"1959";"2014-10-15 17:31:04.252";"14";"1";"FINISHED";"RIGHT";"success";"356";"0";"2014-10-15 17:31:02.287";"2";;;;;;;;;;
"lolarodgers1";;;"Windows 7";"Rachel's Experiment (D.T.)";"1.0";"2";"1";"1";"2";"1";"1";"2014-10-15 17:29:33.569";"2014-10-15 17:44:10.119";"1";"1";"0";"7";"6";"module.GoNoGopractice.exec-5566.GoNoGo_Practice";;;;;;;;;;;;;;;;;;;;;;;;;;;;;;;;;;;;;;;;;;;;;;;;;;;;;;;;;;;;;;;;;;;;;;;"1959";"2014-10-15 17:31:07.497";"26";"0";"FINISHED";"LEFT";"success";"295";"0";"2014-10-15 17:31:05.532";"3";;;;;;;;;;
"lolarodgers1";;;"Windows 7";"Rachel's Experiment (D.T.)";"1.0";"2";"1";"1";"2";"1";"1";"2014-10-15 17:29:33.569";"2014-10-15 17:44:10.119";"1";"1";"0";"8";"7";"module.GoNoGopractice.exec-5566.GoNoGo_Practice";;;;;;;;;;;;;;;;;;;;;;;;;;;;;;;;;;;;;;;;;;;;;;;;;;;;;;;;;;;;;;;;;;;;;;;"1959";"2014-10-15 17:31:10.742";"2";"0";"FINISHED";"LEFT";"success";"330";"0";"2014-10-15 17:31:08.776";"1";;;;;;;;;;
"lolarodgers1";;;"Windows 7";"Rachel's Experiment (D.T.)";"1.0";"2";"1";"1";"2";"1";"1";"2014-10-15 17:29:33.569";"2014-10-15 17:44:10.119";"1";"1";"0";"9";"8";"module.GoNoGopractice.exec-5566.GoNoGo_Practice";;;;;;;;;;;;;;;;;;;;;;;;;;;;;;;;;;;;;;;;;;;;;;;;;;;;;;;;;;;;;;;;;;;;;;;"1960";"2014-10-15 17:31:13.987";"30";"0";"FINISHED";"LEFT";"success";"357";"0";"2014-10-15 17:31:12.021";"3";;;;;;;;;;
"lolarodgers1";;;"Windows 7";"Rachel's Experiment (D.T.)";"1.0";"2";"1";"1";"2";"1";"1";"2014-10-15 17:29:33.569";"2014-10-15 17:44:10.119";"1";"1";"0";"10";"9";"module.GoNoGopractice.exec-5566.GoNoGo_Practice";;;;;;;;;;;;;;;;;;;;;;;;;;;;;;;;;;;;;;;;;;;;;;;;;;;;;;;;;;;;;;;;;;;;;;;"1959";"2014-10-15 17:31:17.232";"6";"1";"FINISHED";"RIGHT";"success";"272";"0";"2014-10-15 17:31:15.266";"1";;;;;;;;;;
"lolarodgers1";;;"Windows 7";"Rachel's Experiment (D.T.)";"1.0";"2";"1";"1";"2";"1";"1";"2014-10-15 17:29:33.569";"2014-10-15 17:44:10.119";"1";"1";"0";"11";"10";"module.GoNoGopractice.exec-5566.GoNoGo_Practice";;;;;;;;;;;;;;;;;;;;;;;;;;;;;;;;;;;;;;;;;;;;;;;;;;;;;;;;;;;;;;;;;;;;;;;"1960";"2014-10-15 17:31:20.476";"34";"0";"FINISHED";"LEFT";"success";"276";"0";"2014-10-15 17:31:18.511";"3";;;;;;;;;;
"lolarodgers1";;;"Windows 7";"Rachel's Experiment (D.T.)";"1.0";"2";"1";"1";"2";"1";"1";"2014-10-15 17:29:33.569";"2014-10-15 17:44:10.119";"1";"1";"0";"12";"11";"module.GoNoGopractice.exec-5566.GoNoGo_Practice";;;;;;;;;;;;;;;;;;;;;;;;;;;;;;;;;;;;;;;;;;;;;;;;;;;;;;;;;;;;;;;;;;;;;;;"1959";"2014-10-15 17:31:23.721";"23";"1";"FINISHED";"RIGHT";"success";"262";"0";"2014-10-15 17:31:21.756";"3";;;;;;;;;;
"lolarodgers1";;;"Windows 7";"Rachel's Experiment (D.T.)";"1.0";"2";"1";"1";"2";"1";"1";"2014-10-15 17:29:33.569";"2014-10-15 17:44:10.119";"1";"1";"0";"13";"12";"module.GoNoGopractice.exec-5566.GoNoGo_Practice";;;;;;;;;;;;;;;;;;;;;;;;;;;;;;;;;;;;;;;;;;;;;;;;;;;;;;;;;;;;;;;;;;;;;;;"1959";"2014-10-15 17:31:26.966";"13";"0";"FINISHED";"LEFT";"success";"265";"0";"2014-10-15 17:31:25.000";"2";;;;;;;;;;
"lolarodgers1";;;"Windows 7";"Rachel's Experiment (D.T.)";"1.0";"2";"1";"1";"2";"1";"1";"2014-10-15 17:29:33.569";"2014-10-15 17:44:10.119";"1";"1";"0";"14";"13";"module.GoNoGopractice.exec-5566.GoNoGo_Practice";;;;;;;;;;;;;;;;;;;;;;;;;;;;;;;;;;;;;;;;;;;;;;;;;;;;;;;;;;;;;;;;;;;;;;;"1959";"2014-10-15 17:31:30.211";"3";"1";"FINISHED";"RIGHT";"success";"285";"0";"2014-10-15 17:31:28.245";"1";;;;;;;;;;
"lolarodgers1";;;"Windows 7";"Rachel's Experiment (D.T.)";"1.0";"2";"1";"1";"2";"1";"1";"2014-10-15 17:29:33.569";"2014-10-15 17:44:10.119";"1";"1";"0";"15";"14";"module.GoNoGopractice.exec-5566.GoNoGo_Practice";;;;;;;;;;;;;;;;;;;;;;;;;;;;;;;;;;;;;;;;;;;;;;;;;;;;;;;;;;;;;;;;;;;;;;;"1958";"2014-10-15 17:31:33.549";"27";"1";"FINISHED";"RIGHT";"success";"361";"0";"2014-10-15 17:31:31.584";"3";;;;;;;;;;
"lolarodgers1";;;"Windows 7";"Rachel's Experiment (D.T.)";"1.0";"2";"1";"1";"2";"1";"1";"2014-10-15 17:29:33.569";"2014-10-15 17:44:10.119";"1";"1";"0";"16";"15";"module.training_block1.exec-4949.GoNoGo1";;;;;;;;;;;;;;;;;;;;;;;"1256";"2014-10-15 17:31:43.112";"NST_correctLoc";"7";"1";"FINISHED";"RIGHT";"success";"448";"0";"2014-10-15 17:31:41.848";"1";;;;;;;;;;;;;;;;;;;;;;;;;;;;;;;;;;;;;;;;;;;;;;;;;;;;;;;;;
"lolarodgers1";;;"Windows 7";"Rachel's Experiment (D.T.)";"1.0";"2";"1";"1";"2";"1";"1";"2014-10-15 17:29:33.569";"2014-10-15 17:44:10.119";"1";"1";"0";"17";"16";"module.training_block1.exec-4949.GoNoGo1";;;;;;;;;;;;;;;;;;;;;;;"1258";"2014-10-15 17:31:45.655";"NST_correctLoc";"9";"0";"FINISHED";"LEFT";"success";"347";"0";"2014-10-15 17:31:44.391";"2";;;;;;;;;;;;;;;;;;;;;;;;;;;;;;;;;;;;;;;;;;;;;;;;;;;;;;;;;
"lolarodgers1";;;"Windows 7";"Rachel's Experiment (D.T.)";"1.0";"2";"1";"1";"2";"1";"1";"2014-10-15 17:29:33.569";"2014-10-15 17:44:10.119";"1";"1";"0";"18";"17";"module.training_block1.exec-4949.GoNoGo1";;;;;;;;;;;;;;;;;;;;;;;"1258";"2014-10-15 17:31:48.198";"NST_correctLoc";"20";"0";"FINISHED";"LEFT";"success";"332";"0";"2014-10-15 17:31:46.934";"3";;;;;;;;;;;;;;;;;;;;;;;;;;;;;;;;;;;;;;;;;;;;;;;;;;;;;;;;;
"lolarodgers1";;;"Windows 7";"Rachel's Experiment (D.T.)";"1.0";"2";"1";"1";"2";"1";"1";"2014-10-15 17:29:33.569";"2014-10-15 17:44:10.119";"1";"1";"0";"19";"18";"module.training_block1.exec-4949.GoNoGo1";;;;;;;;;;;;;;;;;;;;;;;"1257";"2014-10-15 17:31:50.740";"NST_correctLoc";"32";"1";"FINISHED";"RIGHT";"success";"309";"0";"2014-10-15 17:31:49.477";"3";;;;;;;;;;;;;;;;;;;;;;;;;;;;;;;;;;;;;;;;;;;;;;;;;;;;;;;;;
"lolarodgers1";;;"Windows 7";"Rachel's Experiment (D.T.)";"1.0";"2";"1";"1";"2";"1";"1";"2014-10-15 17:29:33.569";"2014-10-15 17:44:10.119";"1";"1";"0";"20";"19";"module.training_block1.exec-4949.GoNoGo1";;;;;;;;;;;;;;;;;;;;;;;"1257";"2014-10-15 17:31:53.283";"NST_correctLoc";"15";"1";"FINISHED";"RIGHT";"success";"302";"0";"2014-10-15 17:31:52.020";"2";;;;;;;;;;;;;;;;;;;;;;;;;;;;;;;;;;;;;;;;;;;;;;;;;;;;;;;;;
"lolarodgers1";;;"Windows 7";"Rachel's Experiment (D.T.)";"1.0";"2";"1";"1";"2";"1";"1";"2014-10-15 17:29:33.569";"2014-10-15 17:44:10.119";"1";"1";"0";"21";"20";"module.training_block1.exec-4949.GoNoGo1";;;;;;;;;;;;;;;;;;;;;;;"1257";"2014-10-15 17:31:55.826";"NST_correctLoc";"21";"0";"FINISHED";"LEFT";"success";"335";"0";"2014-10-15 17:31:54.562";"3";;;;;;;;;;;;;;;;;;;;;;;;;;;;;;;;;;;;;;;;;;;;;;;;;;;;;;;;;
"lolarodgers1";;;"Windows 7";"Rachel's Experiment (D.T.)";"1.0";"2";"1";"1";"2";"1";"1";"2014-10-15 17:29:33.569";"2014-10-15 17:44:10.119";"1";"1";"0";"22";"21";"module.training_block1.exec-4949.GoNoGo1";;;;;;;;;;;;;;;;;;;;;;;"1257";"2014-10-15 17:31:58.369";"NST_correctLoc";"6";"1";"FINISHED";"RIGHT";"success";"281";"0";"2014-10-15 17:31:57.105";"1";;;;;;;;;;;;;;;;;;;;;;;;;;;;;;;;;;;;;;;;;;;;;;;;;;;;;;;;;
"lolarodgers1";;;"Windows 7";"Rachel's Experiment (D.T.)";"1.0";"2";"1";"1";"2";"1";"1";"2014-10-15 17:29:33.569";"2014-10-15 17:44:10.119";"1";"1";"0";"23";"22";"module.training_block1.exec-4949.GoNoGo1";;;;;;;;;;;;;;;;;;;;;;;"1257";"2014-10-15 17:32:00.912";"NST_correctLoc";"19";"1";"FINISHED";"RIGHT";"success";"314";"0";"2014-10-15 17:31:59.648";"3";;;;;;;;;;;;;;;;;;;;;;;;;;;;;;;;;;;;;;;;;;;;;;;;;;;;;;;;;
"lolarodgers1";;;"Windows 7";"Rachel's Experiment (D.T.)";"1.0";"2";"1";"1";"2";"1";"1";"2014-10-15 17:29:33.569";"2014-10-15 17:44:10.119";"1";"1";"0";"24";"23";"module.training_block1.exec-4949.GoNoGo1";;;;;;;;;;;;;;;;;;;;;;;"1257";"2014-10-15 17:32:03.454";"NST_correctLoc";"26";"0";"FINISHED";"LEFT";"success";"323";"0";"2014-10-15 17:32:02.191";"3";;;;;;;;;;;;;;;;;;;;;;;;;;;;;;;;;;;;;;;;;;;;;;;;;;;;;;;;;
"lolarodgers1";;;"Windows 7";"Rachel's Experiment (D.T.)";"1.0";"2";"1";"1";"2";"1";"1";"2014-10-15 17:29:33.569";"2014-10-15 17:44:10.119";"1";"1";"0";"25";"24";"module.training_block1.exec-4949.GoNoGo1";;;;;;;;;;;;;;;;;;;;;;;"1257";"2014-10-15 17:32:05.997";"NST_correctLoc";"17";"1";"FINISHED";"RIGHT";"success";"316";"0";"2014-10-15 17:32:04.734";"2";;;;;;;;;;;;;;;;;;;;;;;;;;;;;;;;;;;;;;;;;;;;;;;;;;;;;;;;;
"lolarodgers1";;;"Windows 7";"Rachel's Experiment (D.T.)";"1.0";"2";"1";"1";"2";"1";"1";"2014-10-15 17:29:33.569";"2014-10-15 17:44:10.119";"1";"1";"0";"26";"25";"module.training_block1.exec-4949.GoNoGo1";;;;;;;;;;;;;;;;;;;;;;;"1258";"2014-10-15 17:32:08.540";"NST_correctLoc";"5";"0";"FINISHED";"LEFT";"success";"302";"0";"2014-10-15 17:32:07.276";"1";;;;;;;;;;;;;;;;;;;;;;;;;;;;;;;;;;;;;;;;;;;;;;;;;;;;;;;;;
"lolarodgers1";;;"Windows 7";"Rachel's Experiment (D.T.)";"1.0";"2";"1";"1";"2";"1";"1";"2014-10-15 17:29:33.569";"2014-10-15 17:44:10.119";"1";"1";"0";"27";"26";"module.training_block1.exec-4949.GoNoGo1";;;;;;;;;;;;;;;;;;;;;;;"1258";"2014-10-15 17:32:11.083";"NST_correctLoc";"1";"0";"FINISHED";"LEFT";"success";"319";"0";"2014-10-15 17:32:09.819";"1";;;;;;;;;;;;;;;;;;;;;;;;;;;;;;;;;;;;;;;;;;;;;;;;;;;;;;;;;
"lolarodgers1";;;"Windows 7";"Rachel's Experiment (D.T.)";"1.0";"2";"1";"1";"2";"1";"1";"2014-10-15 17:29:33.569";"2014-10-15 17:44:10.119";"1";"1";"0";"28";"27";"module.training_block1.exec-4949.GoNoGo1";;;;;;;;;;;;;;;;;;;;;;;"1257";"2014-10-15 17:32:13.626";"NST_correctLoc";"14";"0";"FINISHED";"LEFT";"success";"336";"0";"2014-10-15 17:32:12.362";"2";;;;;;;;;;;;;;;;;;;;;;;;;;;;;;;;;;;;;;;;;;;;;;;;;;;;;;;;;
"lolarodgers1";;;"Windows 7";"Rachel's Experiment (D.T.)";"1.0";"2";"1";"1";"2";"1";"1";"2014-10-15 17:29:33.569";"2014-10-15 17:44:10.119";"1";"1";"0";"29";"28";"module.training_block1.exec-4949.GoNoGo1";;;;;;;;;;;;;;;;;;;;;;;"1258";"2014-10-15 17:32:16.168";"NST_correctLoc";"11";"1";"FINISHED";"RIGHT";"success";"305";"0";"2014-10-15 17:32:14.905";"2";;;;;;;;;;;;;;;;;;;;;;;;;;;;;;;;;;;;;;;;;;;;;;;;;;;;;;;;;
"lolarodgers1";;;"Windows 7";"Rachel's Experiment (D.T.)";"1.0";"2";"1";"1";"2";"1";"1";"2014-10-15 17:29:33.569";"2014-10-15 17:44:10.119";"1";"1";"0";"30";"29";"module.training_block1.exec-4949.GoNoGo1";;;;;;;;;;;;;;;;;;;;;;;"1258";"2014-10-15 17:32:18.711";"NST_correctLoc";"16";"1";"FINISHED";"RIGHT";"success";"362";"0";"2014-10-15 17:32:17.448";"2";;;;;;;;;;;;;;;;;;;;;;;;;;;;;;;;;;;;;;;;;;;;;;;;;;;;;;;;;
"lolarodgers1";;;"Windows 7";"Rachel's Experiment (D.T.)";"1.0";"2";"1";"1";"2";"1";"1";"2014-10-15 17:29:33.569";"2014-10-15 17:44:10.119";"1";"1";"0";"31";"30";"module.training_block1.exec-4949.GoNoGo1";;;;;;;;;;;;;;;;;;;;;;;"1258";"2014-10-15 17:32:21.254";"NST_correctLoc";"28";"1";"FINISHED";"RIGHT";"success";"412";"0";"2014-10-15 17:32:19.990";"3";;;;;;;;;;;;;;;;;;;;;;;;;;;;;;;;;;;;;;;;;;;;;;;;;;;;;;;;;
"lolarodgers1";;;"Windows 7";"Rachel's Experiment (D.T.)";"1.0";"2";"1";"1";"2";"1";"1";"2014-10-15 17:29:33.569";"2014-10-15 17:44:10.119";"1";"1";"0";"32";"31";"module.training_block1.exec-4949.GoNoGo1";;;;;;;;;;;;;;;;;;;;;;;"1258";"2014-10-15 17:32:23.797";"NST_correctLoc";"10";"0";"FINISHED";"LEFT";"success";"333";"0";"2014-10-15 17:32:22.533";"2";;;;;;;;;;;;;;;;;;;;;;;;;;;;;;;;;;;;;;;;;;;;;;;;;;;;;;;;;
"lolarodgers1";;;"Windows 7";"Rachel's Experiment (D.T.)";"1.0";"2";"1";"1";"2";"1";"1";"2014-10-15 17:29:33.569";"2014-10-15 17:44:10.119";"1";"1";"0";"33";"32";"module.training_block1.exec-4949.GoNoGo1";;;;;;;;;;;;;;;;;;;;;;;"1258";"2014-10-15 17:32:26.340";"NST_correctLoc";"29";"0";"FINISHED";"LEFT";"success";"294";"0";"2014-10-15 17:32:25.076";"3";;;;;;;;;;;;;;;;;;;;;;;;;;;;;;;;;;;;;;;;;;;;;;;;;;;;;;;;;
"lolarodgers1";;;"Windows 7";"Rachel's Experiment (D.T.)";"1.0";"2";"1";"1";"2";"1";"1";"2014-10-15 17:29:33.569";"2014-10-15 17:44:10.119";"1";"1";"0";"34";"33";"module.training_block1.exec-4949.GoNoGo1";;;;;;;;;;;;;;;;;;;;;;;"1258";"2014-10-15 17:32:28.882";"NST_correctLoc";"34";"1";"FINISHED";"RIGHT";"success";"320";"0";"2014-10-15 17:32:27.619";"3";;;;;;;;;;;;;;;;;;;;;;;;;;;;;;;;;;;;;;;;;;;;;;;;;;;;;;;;;
"lolarodgers1";;;"Windows 7";"Rachel's Experiment (D.T.)";"1.0";"2";"1";"1";"2";"1";"1";"2014-10-15 17:29:33.569";"2014-10-15 17:44:10.119";"1";"1";"0";"35";"34";"module.training_block1.exec-4949.GoNoGo1";;;;;;;;;;;;;;;;;;;;;;;"1256";"2014-10-15 17:32:31.425";"NST_correctLoc";"4";"0";"FINISHED";"LEFT";"success";"303";"0";"2014-10-15 17:32:30.162";"1";;;;;;;;;;;;;;;;;;;;;;;;;;;;;;;;;;;;;;;;;;;;;;;;;;;;;;;;;
"lolarodgers1";;;"Windows 7";"Rachel's Experiment (D.T.)";"1.0";"2";"1";"1";"2";"1";"1";"2014-10-15 17:29:33.569";"2014-10-15 17:44:10.119";"1";"1";"0";"36";"35";"module.training_block1.exec-4949.GoNoGo1";;;;;;;;;;;;;;;;;;;;;;;"1258";"2014-10-15 17:32:33.968";"NST_correctLoc";"33";"1";"FINISHED";"RIGHT";"success";"282";"0";"2014-10-15 17:32:32.704";"3";;;;;;;;;;;;;;;;;;;;;;;;;;;;;;;;;;;;;;;;;;;;;;;;;;;;;;;;;
"lolarodgers1";;;"Windows 7";"Rachel's Experiment (D.T.)";"1.0";"2";"1";"1";"2";"1";"1";"2014-10-15 17:29:33.569";"2014-10-15 17:44:10.119";"1";"1";"0";"37";"36";"module.training_block1.exec-4949.GoNoGo1";;;;;;;;;;;;;;;;;;;;;;;"1258";"2014-10-15 17:32:36.511";"NST_correctLoc";"18";"0";"FINISHED";"LEFT";"success";"315";"0";"2014-10-15 17:32:35.247";"3";;;;;;;;;;;;;;;;;;;;;;;;;;;;;;;;;;;;;;;;;;;;;;;;;;;;;;;;;
"lolarodgers1";;;"Windows 7";"Rachel's Experiment (D.T.)";"1.0";"2";"1";"1";"2";"1";"1";"2014-10-15 17:29:33.569";"2014-10-15 17:44:10.119";"1";"1";"0";"38";"37";"module.training_block1.exec-4949.GoNoGo1";;;;;;;;;;;;;;;;;;;;;;;"1257";"2014-10-15 17:32:39.054";"NST_correctLoc";"13";"1";"FINISHED";"RIGHT";"success";"371";"0";"2014-10-15 17:32:37.790";"2";;;;;;;;;;;;;;;;;;;;;;;;;;;;;;;;;;;;;;;;;;;;;;;;;;;;;;;;;
"lolarodgers1";;;"Windows 7";"Rachel's Experiment (D.T.)";"1.0";"2";"1";"1";"2";"1";"1";"2014-10-15 17:29:33.569";"2014-10-15 17:44:10.119";"1";"1";"0";"39";"38";"module.training_block1.exec-4949.GoNoGo1";;;;;;;;;;;;;;;;;;;;;;;"1257";"2014-10-15 17:32:41.596";"NST_correctLoc";"22";"1";"FINISHED";"RIGHT";"success";"325";"0";"2014-10-15 17:32:40.333";"3";;;;;;;;;;;;;;;;;;;;;;;;;;;;;;;;;;;;;;;;;;;;;;;;;;;;;;;;;
"lolarodgers1";;;"Windows 7";"Rachel's Experiment (D.T.)";"1.0";"2";"1";"1";"2";"1";"1";"2014-10-15 17:29:33.569";"2014-10-15 17:44:10.119";"1";"1";"0";"40";"39";"module.training_block1.exec-4949.GoNoGo1";;;;;;;;;;;;;;;;;;;;;;;"1257";"2014-10-15 17:32:44.139";"NST_correctLoc";"31";"1";"FINISHED";"RIGHT";"success";"334";"0";"2014-10-15 17:32:42.876";"3";;;;;;;;;;;;;;;;;;;;;;;;;;;;;;;;;;;;;;;;;;;;;;;;;;;;;;;;;
"lolarodgers1";;;"Windows 7";"Rachel's Experiment (D.T.)";"1.0";"2";"1";"1";"2";"1";"1";"2014-10-15 17:29:33.569";"2014-10-15 17:44:10.119";"1";"1";"0";"41";"40";"module.training_block1.exec-4949.GoNoGo1";;;;;;;;;;;;;;;;;;;;;;;"1258";"2014-10-15 17:32:46.682";"NST_correctLoc";"12";"1";"FINISHED";"RIGHT";"success";"383";"0";"2014-10-15 17:32:45.418";"2";;;;;;;;;;;;;;;;;;;;;;;;;;;;;;;;;;;;;;;;;;;;;;;;;;;;;;;;;
"lolarodgers1";;;"Windows 7";"Rachel's Experiment (D.T.)";"1.0";"2";"1";"1";"2";"1";"1";"2014-10-15 17:29:33.569";"2014-10-15 17:44:10.119";"1";"1";"0";"42";"41";"module.training_block1.exec-4949.GoNoGo1";;;;;;;;;;;;;;;;;;;;;;;"1258";"2014-10-15 17:32:49.225";"NST_correctLoc";"35";"1";"FINISHED";"RIGHT";"success";"377";"0";"2014-10-15 17:32:47.961";"3";;;;;;;;;;;;;;;;;;;;;;;;;;;;;;;;;;;;;;;;;;;;;;;;;;;;;;;;;
"lolarodgers1";;;"Windows 7";"Rachel's Experiment (D.T.)";"1.0";"2";"1";"1";"2";"1";"1";"2014-10-15 17:29:33.569";"2014-10-15 17:44:10.119";"1";"1";"0";"43";"42";"module.training_block1.exec-4949.GoNoGo1";;;;;;;;;;;;;;;;;;;;;;;"1257";"2014-10-15 17:32:51.768";"NST_correctLoc";"8";"0";"FINISHED";"LEFT";"success";"337";"0";"2014-10-15 17:32:50.504";"1";;;;;;;;;;;;;;;;;;;;;;;;;;;;;;;;;;;;;;;;;;;;;;;;;;;;;;;;;
"lolarodgers1";;;"Windows 7";"Rachel's Experiment (D.T.)";"1.0";"2";"1";"1";"2";"1";"1";"2014-10-15 17:29:33.569";"2014-10-15 17:44:10.119";"1";"1";"0";"44";"43";"module.training_block1.exec-4949.GoNoGo1";;;;;;;;;;;;;;;;;;;;;;;"1257";"2014-10-15 17:32:54.311";"NST_correctLoc";"2";"0";"FINISHED";"LEFT";"success";"307";"0";"2014-10-15 17:32:53.047";"1";;;;;;;;;;;;;;;;;;;;;;;;;;;;;;;;;;;;;;;;;;;;;;;;;;;;;;;;;
"lolarodgers1";;;"Windows 7";"Rachel's Experiment (D.T.)";"1.0";"2";"1";"1";"2";"1";"1";"2014-10-15 17:29:33.569";"2014-10-15 17:44:10.119";"1";"1";"0";"45";"44";"module.training_block1.exec-4949.GoNoGo1";;;;;;;;;;;;;;;;;;;;;;;"1257";"2014-10-15 17:32:56.853";"NST_correctLoc";"23";"0";"FINISHED";"LEFT";"success";"324";"0";"2014-10-15 17:32:55.590";"3";;;;;;;;;;;;;;;;;;;;;;;;;;;;;;;;;;;;;;;;;;;;;;;;;;;;;;;;;
"lolarodgers1";;;"Windows 7";"Rachel's Experiment (D.T.)";"1.0";"2";"1";"1";"2";"1";"1";"2014-10-15 17:29:33.569";"2014-10-15 17:44:10.119";"1";"1";"0";"46";"45";"module.training_block1.exec-4949.GoNoGo1";;;;;;;;;;;;;;;;;;;;;;;"1258";"2014-10-15 17:32:59.396";"NST_correctLoc";"25";"1";"FINISHED";"RIGHT";"success";"365";"0";"2014-10-15 17:32:58.133";"3";;;;;;;;;;;;;;;;;;;;;;;;;;;;;;;;;;;;;;;;;;;;;;;;;;;;;;;;;
"lolarodgers1";;;"Windows 7";"Rachel's Experiment (D.T.)";"1.0";"2";"1";"1";"2";"1";"1";"2014-10-15 17:29:33.569";"2014-10-15 17:44:10.119";"1";"1";"0";"47";"46";"module.training_block1.exec-4949.GoNoGo1";;;;;;;;;;;;;;;;;;;;;;;"1257";"2014-10-15 17:33:01.939";"NST_correctLoc";"24";"0";"FINISHED";"LEFT";"success";"326";"0";"2014-10-15 17:33:00.675";"3";;;;;;;;;;;;;;;;;;;;;;;;;;;;;;;;;;;;;;;;;;;;;;;;;;;;;;;;;
"lolarodgers1";;;"Windows 7";"Rachel's Experiment (D.T.)";"1.0";"2";"1";"1";"2";"1";"1";"2014-10-15 17:29:33.569";"2014-10-15 17:44:10.119";"1";"1";"0";"48";"47";"module.training_block1.exec-4949.GoNoGo1";;;;;;;;;;;;;;;;;;;;;;;"1258";"2014-10-15 17:33:04.497";"NST_correctLoc";"30";"0";"FINISHED";"LEFT";"success";"456";"0";"2014-10-15 17:33:03.234";"3";;;;;;;;;;;;;;;;;;;;;;;;;;;;;;;;;;;;;;;;;;;;;;;;;;;;;;;;;
"lolarodgers1";;;"Windows 7";"Rachel's Experiment (D.T.)";"1.0";"2";"1";"1";"2";"1";"1";"2014-10-15 17:29:33.569";"2014-10-15 17:44:10.119";"1";"1";"0";"49";"48";"module.training_block1.exec-4949.GoNoGo1";;;;;;;;;;;;;;;;;;;;;;;"1258";"2014-10-15 17:33:07.040";"NST_correctLoc";"3";"0";"FINISHED";"LEFT";"success";"466";"0";"2014-10-15 17:33:05.777";"1";;;;;;;;;;;;;;;;;;;;;;;;;;;;;;;;;;;;;;;;;;;;;;;;;;;;;;;;;
"lolarodgers1";;;"Windows 7";"Rachel's Experiment (D.T.)";"1.0";"2";"1";"1";"2";"1";"1";"2014-10-15 17:29:33.569";"2014-10-15 17:44:10.119";"1";"1";"0";"50";"49";"module.training_block1.exec-4949.GoNoGo1";;;;;;;;;;;;;;;;;;;;;;;"1261";"2014-10-15 17:33:09.583";"NST_correctLoc";"27";"0";"FINISHED";"LEFT";"success";"334";"0";"2014-10-15 17:33:08.319";"3";;;;;;;;;;;;;;;;;;;;;;;;;;;;;;;;;;;;;;;;;;;;;;;;;;;;;;;;;
"lolarodgers1";;;"Windows 7";"Rachel's Experiment (D.T.)";"1.0";"2";"1";"1";"2";"1";"1";"2014-10-15 17:29:33.569";"2014-10-15 17:44:10.119";"1";"1";"0";"51";"50";"module.training_block1.exec-4949.GoNoGo1";;;;;;;;;;;;;;;;;;;;;;;"1257";"2014-10-15 17:33:12.126";"NST_correctLoc";"0";"1";"FINISHED";"RIGHT";"success";"347";"0";"2014-10-15 17:33:10.862";"1";;;;;;;;;;;;;;;;;;;;;;;;;;;;;;;;;;;;;;;;;;;;;;;;;;;;;;;;;
"lolarodgers1";;;"Windows 7";"Rachel's Experiment (D.T.)";"1.0";"2";"1";"1";"2";"1";"1";"2014-10-15 17:29:33.569";"2014-10-15 17:44:10.119";"1";"1";"0";"52";"51";"module.training_block2.exec-1470.GoNoGo2";;;;;;;;;;;;;;;;;;;;;;;;;;;;;;;;;;;"1261";"2014-10-15 17:33:23.373";"NST_correctLoc";"20";"1";"FINISHED";"RIGHT";"success";"327";"0";"2014-10-15 17:33:22.110";"3";;;;;;;;;;;;;;;;;;;;;;;;;;;;;;;;;;;;;;;;;;;;;
"lolarodgers1";;;"Windows 7";"Rachel's Experiment (D.T.)";"1.0";"2";"1";"1";"2";"1";"1";"2014-10-15 17:29:33.569";"2014-10-15 17:44:10.119";"1";"1";"0";"53";"52";"module.training_block2.exec-1470.GoNoGo2";;;;;;;;;;;;;;;;;;;;;;;;;;;;;;;;;;;"1261";"2014-10-15 17:33:25.916";"NST_correctLoc";"6";"1";"FINISHED";"RIGHT";"success";"369";"0";"2014-10-15 17:33:24.653";"1";;;;;;;;;;;;;;;;;;;;;;;;;;;;;;;;;;;;;;;;;;;;;
"lolarodgers1";;;"Windows 7";"Rachel's Experiment (D.T.)";"1.0";"2";"1";"1";"2";"1";"1";"2014-10-15 17:29:33.569";"2014-10-15 17:44:10.119";"1";"1";"0";"54";"53";"module.training_block2.exec-1470.GoNoGo2";;;;;;;;;;;;;;;;;;;;;;;;;;;;;;;;;;;"1261";"2014-10-15 17:33:28.459";"NST_correctLoc";"22";"0";"FINISHED";"LEFT";"success";"306";"0";"2014-10-15 17:33:27.195";"3";;;;;;;;;;;;;;;;;;;;;;;;;;;;;;;;;;;;;;;;;;;;;
"lolarodgers1";;;"Windows 7";"Rachel's Experiment (D.T.)";"1.0";"2";"1";"1";"2";"1";"1";"2014-10-15 17:29:33.569";"2014-10-15 17:44:10.119";"1";"1";"0";"55";"54";"module.training_block2.exec-1470.GoNoGo2";;;;;;;;;;;;;;;;;;;;;;;;;;;;;;;;;;;"1261";"2014-10-15 17:33:31.002";"NST_correctLoc";"3";"1";"FINISHED";"RIGHT";"success";"331";"0";"2014-10-15 17:33:29.738";"1";;;;;;;;;;;;;;;;;;;;;;;;;;;;;;;;;;;;;;;;;;;;;
"lolarodgers1";;;"Windows 7";"Rachel's Experiment (D.T.)";"1.0";"2";"1";"1";"2";"1";"1";"2014-10-15 17:29:33.569";"2014-10-15 17:44:10.119";"1";"1";"0";"56";"55";"module.training_block2.exec-1470.GoNoGo2";;;;;;;;;;;;;;;;;;;;;;;;;;;;;;;;;;;"1261";"2014-10-15 17:33:33.545";"NST_correctLoc";"5";"1";"FINISHED";"RIGHT";"success";"308";"0";"2014-10-15 17:33:32.281";"1";;;;;;;;;;;;;;;;;;;;;;;;;;;;;;;;;;;;;;;;;;;;;
"lolarodgers1";;;"Windows 7";"Rachel's Experiment (D.T.)";"1.0";"2";"1";"1";"2";"1";"1";"2014-10-15 17:29:33.569";"2014-10-15 17:44:10.119";"1";"1";"0";"57";"56";"module.training_block2.exec-1470.GoNoGo2";;;;;;;;;;;;;;;;;;;;;;;;;;;;;;;;;;;"1261";"2014-10-15 17:33:36.087";"NST_correctLoc";"8";"1";"FINISHED";"RIGHT";"success";"349";"0";"2014-10-15 17:33:34.824";"1";;;;;;;;;;;;;;;;;;;;;;;;;;;;;;;;;;;;;;;;;;;;;
"lolarodgers1";;;"Windows 7";"Rachel's Experiment (D.T.)";"1.0";"2";"1";"1";"2";"1";"1";"2014-10-15 17:29:33.569";"2014-10-15 17:44:10.119";"1";"1";"0";"58";"57";"module.training_block2.exec-1470.GoNoGo2";;;;;;;;;;;;;;;;;;;;;;;;;;;;;;;;;;;"1261";"2014-10-15 17:33:38.630";"NST_correctLoc";"26";"0";"FINISHED";"LEFT";"success";"310";"0";"2014-10-15 17:33:37.367";"3";;;;;;;;;;;;;;;;;;;;;;;;;;;;;;;;;;;;;;;;;;;;;
"lolarodgers1";;;"Windows 7";"Rachel's Experiment (D.T.)";"1.0";"2";"1";"1";"2";"1";"1";"2014-10-15 17:29:33.569";"2014-10-15 17:44:10.119";"1";"1";"0";"59";"58";"module.training_block2.exec-1470.GoNoGo2";;;;;;;;;;;;;;;;;;;;;;;;;;;;;;;;;;;"1261";"2014-10-15 17:33:41.173";"NST_correctLoc";"24";"1";"FINISHED";"RIGHT";"success";"320";"0";"2014-10-15 17:33:39.909";"3";;;;;;;;;;;;;;;;;;;;;;;;;;;;;;;;;;;;;;;;;;;;;
"lolarodgers1";;;"Windows 7";"Rachel's Experiment (D.T.)";"1.0";"2";"1";"1";"2";"1";"1";"2014-10-15 17:29:33.569";"2014-10-15 17:44:10.119";"1";"1";"0";"60";"59";"module.training_block2.exec-1470.GoNoGo2";;;;;;;;;;;;;;;;;;;;;;;;;;;;;;;;;;;"1261";"2014-10-15 17:33:43.716";"NST_correctLoc";"30";"0";"FINISHED";"LEFT";"success";"265";"0";"2014-10-15 17:33:42.452";"3";;;;;;;;;;;;;;;;;;;;;;;;;;;;;;;;;;;;;;;;;;;;;
"lolarodgers1";;;"Windows 7";"Rachel's Experiment (D.T.)";"1.0";"2";"1";"1";"2";"1";"1";"2014-10-15 17:29:33.569";"2014-10-15 17:44:10.119";"1";"1";"0";"61";"60";"module.training_block2.exec-1470.GoNoGo2";;;;;;;;;;;;;;;;;;;;;;;;;;;;;;;;;;;"1261";"2014-10-15 17:33:46.259";"NST_correctLoc";"33";"0";"FINISHED";"LEFT";"success";"322";"0";"2014-10-15 17:33:44.995";"3";;;;;;;;;;;;;;;;;;;;;;;;;;;;;;;;;;;;;;;;;;;;;
"lolarodgers1";;;"Windows 7";"Rachel's Experiment (D.T.)";"1.0";"2";"1";"1";"2";"1";"1";"2014-10-15 17:29:33.569";"2014-10-15 17:44:10.119";"1";"1";"0";"62";"61";"module.training_block2.exec-1470.GoNoGo2";;;;;;;;;;;;;;;;;;;;;;;;;;;;;;;;;;;"1261";"2014-10-15 17:33:48.801";"NST_correctLoc";"21";"1";"FINISHED";"RIGHT";"success";"299";"0";"2014-10-15 17:33:47.538";"3";;;;;;;;;;;;;;;;;;;;;;;;;;;;;;;;;;;;;;;;;;;;;
"lolarodgers1";;;"Windows 7";"Rachel's Experiment (D.T.)";"1.0";"2";"1";"1";"2";"1";"1";"2014-10-15 17:29:33.569";"2014-10-15 17:44:10.119";"1";"1";"0";"63";"62";"module.training_block2.exec-1470.GoNoGo2";;;;;;;;;;;;;;;;;;;;;;;;;;;;;;;;;;;"1257";"2014-10-15 17:33:51.344";"NST_correctLoc";"16";"0";"FINISHED";"LEFT";"success";"312";"0";"2014-10-15 17:33:50.081";"2";;;;;;;;;;;;;;;;;;;;;;;;;;;;;;;;;;;;;;;;;;;;;
"lolarodgers1";;;"Windows 7";"Rachel's Experiment (D.T.)";"1.0";"2";"1";"1";"2";"1";"1";"2014-10-15 17:29:33.569";"2014-10-15 17:44:10.119";"1";"1";"0";"64";"63";"module.training_block2.exec-1470.GoNoGo2";;;;;;;;;;;;;;;;;;;;;;;;;;;;;;;;;;;"1261";"2014-10-15 17:33:53.887";"NST_correctLoc";"9";"1";"FINISHED";"RIGHT";"success";"254";"0";"2014-10-15 17:33:52.623";"2";;;;;;;;;;;;;;;;;;;;;;;;;;;;;;;;;;;;;;;;;;;;;
"lolarodgers1";;;"Windows 7";"Rachel's Experiment (D.T.)";"1.0";"2";"1";"1";"2";"1";"1";"2014-10-15 17:29:33.569";"2014-10-15 17:44:10.119";"1";"1";"0";"65";"64";"module.training_block2.exec-1470.GoNoGo2";;;;;;;;;;;;;;;;;;;;;;;;;;;;;;;;;;;"1261";"2014-10-15 17:33:56.430";"NST_correctLoc";"1";"1";"FINISHED";"RIGHT";"success";"318";"0";"2014-10-15 17:33:55.166";"1";;;;;;;;;;;;;;;;;;;;;;;;;;;;;;;;;;;;;;;;;;;;;
"lolarodgers1";;;"Windows 7";"Rachel's Experiment (D.T.)";"1.0";"2";"1";"1";"2";"1";"1";"2014-10-15 17:29:33.569";"2014-10-15 17:44:10.119";"1";"1";"0";"66";"65";"module.training_block2.exec-1470.GoNoGo2";;;;;;;;;;;;;;;;;;;;;;;;;;;;;;;;;;;"1261";"2014-10-15 17:33:58.973";"NST_correctLoc";"25";"0";"FINISHED";"LEFT";"success";"304";"0";"2014-10-15 17:33:57.709";"3";;;;;;;;;;;;;;;;;;;;;;;;;;;;;;;;;;;;;;;;;;;;;
"lolarodgers1";;;"Windows 7";"Rachel's Experiment (D.T.)";"1.0";"2";"1";"1";"2";"1";"1";"2014-10-15 17:29:33.569";"2014-10-15 17:44:10.119";"1";"1";"0";"67";"66";"module.training_block2.exec-1470.GoNoGo2";;;;;;;;;;;;;;;;;;;;;;;;;;;;;;;;;;;"1261";"2014-10-15 17:34:01.515";"NST_correctLoc";"12";"1";"FINISHED";"RIGHT";"success";"345";"0";"2014-10-15 17:34:00.252";"2";;;;;;;;;;;;;;;;;;;;;;;;;;;;;;;;;;;;;;;;;;;;;
"lolarodgers1";;;"Windows 7";"Rachel's Experiment (D.T.)";"1.0";"2";"1";"1";"2";"1";"1";"2014-10-15 17:29:33.569";"2014-10-15 17:44:10.119";"1";"1";"0";"68";"67";"module.training_block2.exec-1470.GoNoGo2";;;;;;;;;;;;;;;;;;;;;;;;;;;;;;;;;;;"1261";"2014-10-15 17:34:04.058";"NST_correctLoc";"28";"1";"FINISHED";"RIGHT";"success";"330";"0";"2014-10-15 17:34:02.795";"3";;;;;;;;;;;;;;;;;;;;;;;;;;;;;;;;;;;;;;;;;;;;;
"lolarodgers1";;;"Windows 7";"Rachel's Experiment (D.T.)";"1.0";"2";"1";"1";"2";"1";"1";"2014-10-15 17:29:33.569";"2014-10-15 17:44:10.119";"1";"1";"0";"69";"68";"module.training_block2.exec-1470.GoNoGo2";;;;;;;;;;;;;;;;;;;;;;;;;;;;;;;;;;;"1261";"2014-10-15 17:34:06.601";"NST_correctLoc";"2";"0";"FINISHED";"LEFT";"success";"315";"0";"2014-10-15 17:34:05.337";"1";;;;;;;;;;;;;;;;;;;;;;;;;;;;;;;;;;;;;;;;;;;;;
"lolarodgers1";;;"Windows 7";"Rachel's Experiment (D.T.)";"1.0";"2";"1";"1";"2";"1";"1";"2014-10-15 17:29:33.569";"2014-10-15 17:44:10.119";"1";"1";"0";"70";"69";"module.training_block2.exec-1470.GoNoGo2";;;;;;;;;;;;;;;;;;;;;;;;;;;;;;;;;;;"1261";"2014-10-15 17:34:09.144";"NST_correctLoc";"7";"0";"FINISHED";"LEFT";"success";"341";"0";"2014-10-15 17:34:07.880";"1";;;;;;;;;;;;;;;;;;;;;;;;;;;;;;;;;;;;;;;;;;;;;
"lolarodgers1";;;"Windows 7";"Rachel's Experiment (D.T.)";"1.0";"2";"1";"1";"2";"1";"1";"2014-10-15 17:29:33.569";"2014-10-15 17:44:10.119";"1";"1";"0";"71";"70";"module.training_block2.exec-1470.GoNoGo2";;;;;;;;;;;;;;;;;;;;;;;;;;;;;;;;;;;"1261";"2014-10-15 17:34:11.687";"NST_correctLoc";"23";"0";"FINISHED";"LEFT";"success";"270";"0";"2014-10-15 17:34:10.423";"3";;;;;;;;;;;;;;;;;;;;;;;;;;;;;;;;;;;;;;;;;;;;;
"lolarodgers1";;;"Windows 7";"Rachel's Experiment (D.T.)";"1.0";"2";"1";"1";"2";"1";"1";"2014-10-15 17:29:33.569";"2014-10-15 17:44:10.119";"1";"1";"0";"72";"71";"module.training_block2.exec-1470.GoNoGo2";;;;;;;;;;;;;;;;;;;;;;;;;;;;;;;;;;;"1261";"2014-10-15 17:34:14.229";"NST_correctLoc";"32";"1";"FINISHED";"RIGHT";"success";"391";"0";"2014-10-15 17:34:12.966";"3";;;;;;;;;;;;;;;;;;;;;;;;;;;;;;;;;;;;;;;;;;;;;
"lolarodgers1";;;"Windows 7";"Rachel's Experiment (D.T.)";"1.0";"2";"1";"1";"2";"1";"1";"2014-10-15 17:29:33.569";"2014-10-15 17:44:10.119";"1";"1";"0";"73";"72";"module.training_block2.exec-1470.GoNoGo2";;;;;;;;;;;;;;;;;;;;;;;;;;;;;;;;;;;"1261";"2014-10-15 17:34:16.772";"NST_correctLoc";"11";"1";"FINISHED";"RIGHT";"success";"344";"0";"2014-10-15 17:34:15.509";"2";;;;;;;;;;;;;;;;;;;;;;;;;;;;;;;;;;;;;;;;;;;;;
"lolarodgers1";;;"Windows 7";"Rachel's Experiment (D.T.)";"1.0";"2";"1";"1";"2";"1";"1";"2014-10-15 17:29:33.569";"2014-10-15 17:44:10.119";"1";"1";"0";"74";"73";"module.training_block2.exec-1470.GoNoGo2";;;;;;;;;;;;;;;;;;;;;;;;;;;;;;;;;;;"1261";"2014-10-15 17:34:19.315";"NST_correctLoc";"0";"1";"FINISHED";"RIGHT";"success";"369";"0";"2014-10-15 17:34:18.051";"1";;;;;;;;;;;;;;;;;;;;;;;;;;;;;;;;;;;;;;;;;;;;;
"lolarodgers1";;;"Windows 7";"Rachel's Experiment (D.T.)";"1.0";"2";"1";"1";"2";"1";"1";"2014-10-15 17:29:33.569";"2014-10-15 17:44:10.119";"1";"1";"0";"75";"74";"module.training_block2.exec-1470.GoNoGo2";;;;;;;;;;;;;;;;;;;;;;;;;;;;;;;;;;;"1261";"2014-10-15 17:34:21.858";"NST_correctLoc";"17";"1";"FINISHED";"RIGHT";"success";"371";"0";"2014-10-15 17:34:20.594";"2";;;;;;;;;;;;;;;;;;;;;;;;;;;;;;;;;;;;;;;;;;;;;
"lolarodgers1";;;"Windows 7";"Rachel's Experiment (D.T.)";"1.0";"2";"1";"1";"2";"1";"1";"2014-10-15 17:29:33.569";"2014-10-15 17:44:10.119";"1";"1";"0";"76";"75";"module.training_block2.exec-1470.GoNoGo2";;;;;;;;;;;;;;;;;;;;;;;;;;;;;;;;;;;"1261";"2014-10-15 17:34:24.401";"NST_correctLoc";"19";"0";"FINISHED";"LEFT";"success";"300";"0";"2014-10-15 17:34:23.137";"3";;;;;;;;;;;;;;;;;;;;;;;;;;;;;;;;;;;;;;;;;;;;;
"lolarodgers1";;;"Windows 7";"Rachel's Experiment (D.T.)";"1.0";"2";"1";"1";"2";"1";"1";"2014-10-15 17:29:33.569";"2014-10-15 17:44:10.119";"1";"1";"0";"77";"76";"module.training_block2.exec-1470.GoNoGo2";;;;;;;;;;;;;;;;;;;;;;;;;;;;;;;;;;;"1261";"2014-10-15 17:34:26.959";"NST_correctLoc";"14";"0";"FINISHED";"LEFT";"success";"277";"0";"2014-10-15 17:34:25.695";"2";;;;;;;;;;;;;;;;;;;;;;;;;;;;;;;;;;;;;;;;;;;;;
"lolarodgers1";;;"Windows 7";"Rachel's Experiment (D.T.)";"1.0";"2";"1";"1";"2";"1";"1";"2014-10-15 17:29:33.569";"2014-10-15 17:44:10.119";"1";"1";"0";"78";"77";"module.training_block2.exec-1470.GoNoGo2";;;;;;;;;;;;;;;;;;;;;;;;;;;;;;;;;;;"1261";"2014-10-15 17:34:29.502";"NST_correctLoc";"4";"0";"FINISHED";"LEFT";"success";"279";"0";"2014-10-15 17:34:28.238";"1";;;;;;;;;;;;;;;;;;;;;;;;;;;;;;;;;;;;;;;;;;;;;
"lolarodgers1";;;"Windows 7";"Rachel's Experiment (D.T.)";"1.0";"2";"1";"1";"2";"1";"1";"2014-10-15 17:29:33.569";"2014-10-15 17:44:10.119";"1";"1";"0";"79";"78";"module.training_block2.exec-1470.GoNoGo2";;;;;;;;;;;;;;;;;;;;;;;;;;;;;;;;;;;"1261";"2014-10-15 17:34:32.045";"NST_correctLoc";"10";"1";"FINISHED";"RIGHT";"success";"312";"0";"2014-10-15 17:34:30.781";"2";;;;;;;;;;;;;;;;;;;;;;;;;;;;;;;;;;;;;;;;;;;;;
"lolarodgers1";;;"Windows 7";"Rachel's Experiment (D.T.)";"1.0";"2";"1";"1";"2";"1";"1";"2014-10-15 17:29:33.569";"2014-10-15 17:44:10.119";"1";"1";"0";"80";"79";"module.training_block2.exec-1470.GoNoGo2";;;;;;;;;;;;;;;;;;;;;;;;;;;;;;;;;;;"1261";"2014-10-15 17:34:34.587";"NST_correctLoc";"31";"0";"FINISHED";"LEFT";"success";"457";"0";"2014-10-15 17:34:33.324";"3";;;;;;;;;;;;;;;;;;;;;;;;;;;;;;;;;;;;;;;;;;;;;
"lolarodgers1";;;"Windows 7";"Rachel's Experiment (D.T.)";"1.0";"2";"1";"1";"2";"1";"1";"2014-10-15 17:29:33.569";"2014-10-15 17:44:10.119";"1";"1";"0";"81";"80";"module.training_block2.exec-1470.GoNoGo2";;;;;;;;;;;;;;;;;;;;;;;;;;;;;;;;;;;"1261";"2014-10-15 17:34:37.130";"NST_correctLoc";"29";"1";"FINISHED";"RIGHT";"success";"338";"0";"2014-10-15 17:34:35.867";"3";;;;;;;;;;;;;;;;;;;;;;;;;;;;;;;;;;;;;;;;;;;;;
"lolarodgers1";;;"Windows 7";"Rachel's Experiment (D.T.)";"1.0";"2";"1";"1";"2";"1";"1";"2014-10-15 17:29:33.569";"2014-10-15 17:44:10.119";"1";"1";"0";"82";"81";"module.training_block2.exec-1470.GoNoGo2";;;;;;;;;;;;;;;;;;;;;;;;;;;;;;;;;;;"1261";"2014-10-15 17:34:39.673";"NST_correctLoc";"34";"1";"FINISHED";"RIGHT";"success";"315";"0";"2014-10-15 17:34:38.409";"3";;;;;;;;;;;;;;;;;;;;;;;;;;;;;;;;;;;;;;;;;;;;;
"lolarodgers1";;;"Windows 7";"Rachel's Experiment (D.T.)";"1.0";"2";"1";"1";"2";"1";"1";"2014-10-15 17:29:33.569";"2014-10-15 17:44:10.119";"1";"1";"0";"83";"82";"module.training_block2.exec-1470.GoNoGo2";;;;;;;;;;;;;;;;;;;;;;;;;;;;;;;;;;;"1261";"2014-10-15 17:34:42.216";"NST_correctLoc";"15";"1";"FINISHED";"RIGHT";"success";"348";"0";"2014-10-15 17:34:40.952";"2";;;;;;;;;;;;;;;;;;;;;;;;;;;;;;;;;;;;;;;;;;;;;
"lolarodgers1";;;"Windows 7";"Rachel's Experiment (D.T.)";"1.0";"2";"1";"1";"2";"1";"1";"2014-10-15 17:29:33.569";"2014-10-15 17:44:10.119";"1";"1";"0";"84";"83";"module.training_block2.exec-1470.GoNoGo2";;;;;;;;;;;;;;;;;;;;;;;;;;;;;;;;;;;"1261";"2014-10-15 17:34:44.759";"NST_correctLoc";"35";"0";"FINISHED";"LEFT";"success";"358";"0";"2014-10-15 17:34:43.495";"3";;;;;;;;;;;;;;;;;;;;;;;;;;;;;;;;;;;;;;;;;;;;;
"lolarodgers1";;;"Windows 7";"Rachel's Experiment (D.T.)";"1.0";"2";"1";"1";"2";"1";"1";"2014-10-15 17:29:33.569";"2014-10-15 17:44:10.119";"1";"1";"0";"85";"84";"module.training_block2.exec-1470.GoNoGo2";;;;;;;;;;;;;;;;;;;;;;;;;;;;;;;;;;;"1261";"2014-10-15 17:34:47.302";"NST_correctLoc";"13";"1";"FINISHED";"RIGHT";"success";"311";"0";"2014-10-15 17:34:46.038";"2";;;;;;;;;;;;;;;;;;;;;;;;;;;;;;;;;;;;;;;;;;;;;
"lolarodgers1";;;"Windows 7";"Rachel's Experiment (D.T.)";"1.0";"2";"1";"1";"2";"1";"1";"2014-10-15 17:29:33.569";"2014-10-15 17:44:10.119";"1";"1";"0";"86";"85";"module.training_block2.exec-1470.GoNoGo2";;;;;;;;;;;;;;;;;;;;;;;;;;;;;;;;;;;"1261";"2014-10-15 17:34:49.844";"NST_correctLoc";"18";"1";"FINISHED";"RIGHT";"success";"352";"0";"2014-10-15 17:34:48.581";"3";;;;;;;;;;;;;;;;;;;;;;;;;;;;;;;;;;;;;;;;;;;;;
"lolarodgers1";;;"Windows 7";"Rachel's Experiment (D.T.)";"1.0";"2";"1";"1";"2";"1";"1";"2014-10-15 17:29:33.569";"2014-10-15 17:44:10.119";"1";"1";"0";"87";"86";"module.training_block2.exec-1470.GoNoGo2";;;;;;;;;;;;;;;;;;;;;;;;;;;;;;;;;;;"1261";"2014-10-15 17:34:52.387";"NST_correctLoc";"27";"0";"FINISHED";"LEFT";"success";"289";"0";"2014-10-15 17:34:51.124";"3";;;;;;;;;;;;;;;;;;;;;;;;;;;;;;;;;;;;;;;;;;;;;
"lolarodgers1";;;"Windows 7";"Rachel's Experiment (D.T.)";"1.0";"2";"1";"1";"2";"1";"1";"2014-10-15 17:29:33.569";"2014-10-15 17:44:10.119";"1";"1";"0";"88";"87";"module.training_block3.exec-4110.GoNoGo3";;;;;;;;;;;;;;;;;;;;;;;;;;;;;;;;;;;;;;;;;;;;;;;"1261";"2014-10-15 17:35:03.385";"NST_correctLoc";"30";"1";"FINISHED";"RIGHT";"success";"379";"0";"2014-10-15 17:35:02.122";"3";;;;;;;;;;;;;;;;;;;;;;;;;;;;;;;;;
"lolarodgers1";;;"Windows 7";"Rachel's Experiment (D.T.)";"1.0";"2";"1";"1";"2";"1";"1";"2014-10-15 17:29:33.569";"2014-10-15 17:44:10.119";"1";"1";"0";"89";"88";"module.training_block3.exec-4110.GoNoGo3";;;;;;;;;;;;;;;;;;;;;;;;;;;;;;;;;;;;;;;;;;;;;;;"1261";"2014-10-15 17:35:05.928";"NST_correctLoc";"23";"0";"FINISHED";"LEFT";"success";"332";"0";"2014-10-15 17:35:04.664";"3";;;;;;;;;;;;;;;;;;;;;;;;;;;;;;;;;
"lolarodgers1";;;"Windows 7";"Rachel's Experiment (D.T.)";"1.0";"2";"1";"1";"2";"1";"1";"2014-10-15 17:29:33.569";"2014-10-15 17:44:10.119";"1";"1";"0";"90";"89";"module.training_block3.exec-4110.GoNoGo3";;;;;;;;;;;;;;;;;;;;;;;;;;;;;;;;;;;;;;;;;;;;;;;"1261";"2014-10-15 17:35:08.471";"NST_correctLoc";"18";"0";"FINISHED";"LEFT";"success";"341";"0";"2014-10-15 17:35:07.207";"3";;;;;;;;;;;;;;;;;;;;;;;;;;;;;;;;;
"lolarodgers1";;;"Windows 7";"Rachel's Experiment (D.T.)";"1.0";"2";"1";"1";"2";"1";"1";"2014-10-15 17:29:33.569";"2014-10-15 17:44:10.119";"1";"1";"0";"91";"90";"module.training_block3.exec-4110.GoNoGo3";;;;;;;;;;;;;;;;;;;;;;;;;;;;;;;;;;;;;;;;;;;;;;;"1261";"2014-10-15 17:35:11.014";"NST_correctLoc";"11";"0";"FINISHED";"LEFT";"success";"311";"0";"2014-10-15 17:35:09.750";"2";;;;;;;;;;;;;;;;;;;;;;;;;;;;;;;;;
"lolarodgers1";;;"Windows 7";"Rachel's Experiment (D.T.)";"1.0";"2";"1";"1";"2";"1";"1";"2014-10-15 17:29:33.569";"2014-10-15 17:44:10.119";"1";"1";"0";"92";"91";"module.training_block3.exec-4110.GoNoGo3";;;;;;;;;;;;;;;;;;;;;;;;;;;;;;;;;;;;;;;;;;;;;;;"1261";"2014-10-15 17:35:13.556";"NST_correctLoc";"20";"1";"FINISHED";"RIGHT";"success";"288";"0";"2014-10-15 17:35:12.293";"3";;;;;;;;;;;;;;;;;;;;;;;;;;;;;;;;;
"lolarodgers1";;;"Windows 7";"Rachel's Experiment (D.T.)";"1.0";"2";"1";"1";"2";"1";"1";"2014-10-15 17:29:33.569";"2014-10-15 17:44:10.119";"1";"1";"0";"93";"92";"module.training_block3.exec-4110.GoNoGo3";;;;;;;;;;;;;;;;;;;;;;;;;;;;;;;;;;;;;;;;;;;;;;;"1261";"2014-10-15 17:35:16.099";"NST_correctLoc";"13";"1";"FINISHED";"RIGHT";"success";"321";"0";"2014-10-15 17:35:14.836";"2";;;;;;;;;;;;;;;;;;;;;;;;;;;;;;;;;
"lolarodgers1";;;"Windows 7";"Rachel's Experiment (D.T.)";"1.0";"2";"1";"1";"2";"1";"1";"2014-10-15 17:29:33.569";"2014-10-15 17:44:10.119";"1";"1";"0";"94";"93";"module.training_block3.exec-4110.GoNoGo3";;;;;;;;;;;;;;;;;;;;;;;;;;;;;;;;;;;;;;;;;;;;;;;"1261";"2014-10-15 17:35:18.626";"NST_correctLoc";"5";"0";"FINISHED";"LEFT";"success";"282";"0";"2014-10-15 17:35:17.363";"1";;;;;;;;;;;;;;;;;;;;;;;;;;;;;;;;;
"lolarodgers1";;;"Windows 7";"Rachel's Experiment (D.T.)";"1.0";"2";"1";"1";"2";"1";"1";"2014-10-15 17:29:33.569";"2014-10-15 17:44:10.119";"1";"1";"0";"95";"94";"module.training_block3.exec-4110.GoNoGo3";;;;;;;;;;;;;;;;;;;;;;;;;;;;;;;;;;;;;;;;;;;;;;;"1261";"2014-10-15 17:35:21.169";"NST_correctLoc";"22";"0";"FINISHED";"LEFT";"success";"379";"0";"2014-10-15 17:35:19.906";"3";;;;;;;;;;;;;;;;;;;;;;;;;;;;;;;;;
"lolarodgers1";;;"Windows 7";"Rachel's Experiment (D.T.)";"1.0";"2";"1";"1";"2";"1";"1";"2014-10-15 17:29:33.569";"2014-10-15 17:44:10.119";"1";"1";"0";"96";"95";"module.training_block3.exec-4110.GoNoGo3";;;;;;;;;;;;;;;;;;;;;;;;;;;;;;;;;;;;;;;;;;;;;;;"1261";"2014-10-15 17:35:23.712";"NST_correctLoc";"27";"0";"FINISHED";"LEFT";"success";"356";"0";"2014-10-15 17:35:22.448";"3";;;;;;;;;;;;;;;;;;;;;;;;;;;;;;;;;
"lolarodgers1";;;"Windows 7";"Rachel's Experiment (D.T.)";"1.0";"2";"1";"1";"2";"1";"1";"2014-10-15 17:29:33.569";"2014-10-15 17:44:10.119";"1";"1";"0";"97";"96";"module.training_block3.exec-4110.GoNoGo3";;;;;;;;;;;;;;;;;;;;;;;;;;;;;;;;;;;;;;;;;;;;;;;"1261";"2014-10-15 17:35:26.255";"NST_correctLoc";"16";"1";"FINISHED";"RIGHT";"success";"325";"0";"2014-10-15 17:35:24.991";"2";;;;;;;;;;;;;;;;;;;;;;;;;;;;;;;;;
"lolarodgers1";;;"Windows 7";"Rachel's Experiment (D.T.)";"1.0";"2";"1";"1";"2";"1";"1";"2014-10-15 17:29:33.569";"2014-10-15 17:44:10.119";"1";"1";"0";"98";"97";"module.training_block3.exec-4110.GoNoGo3";;;;;;;;;;;;;;;;;;;;;;;;;;;;;;;;;;;;;;;;;;;;;;;"1261";"2014-10-15 17:35:28.798";"NST_correctLoc";"21";"0";"FINISHED";"LEFT";"success";"318";"0";"2014-10-15 17:35:27.534";"3";;;;;;;;;;;;;;;;;;;;;;;;;;;;;;;;;
"lolarodgers1";;;"Windows 7";"Rachel's Experiment (D.T.)";"1.0";"2";"1";"1";"2";"1";"1";"2014-10-15 17:29:33.569";"2014-10-15 17:44:10.119";"1";"1";"0";"99";"98";"module.training_block3.exec-4110.GoNoGo3";;;;;;;;;;;;;;;;;;;;;;;;;;;;;;;;;;;;;;;;;;;;;;;"1261";"2014-10-15 17:35:31.340";"NST_correctLoc";"19";"1";"FINISHED";"RIGHT";"success";"352";"0";"2014-10-15 17:35:30.077";"3";;;;;;;;;;;;;;;;;;;;;;;;;;;;;;;;;
"lolarodgers1";;;"Windows 7";"Rachel's Experiment (D.T.)";"1.0";"2";"1";"1";"2";"1";"1";"2014-10-15 17:29:33.569";"2014-10-15 17:44:10.119";"1";"1";"0";"100";"99";"module.training_block3.exec-4110.GoNoGo3";;;;;;;;;;;;;;;;;;;;;;;;;;;;;;;;;;;;;;;;;;;;;;;"1261";"2014-10-15 17:35:33.883";"NST_wrongLoc";"4";"0";"FINISHED";"RIGHT";"failure";"393";"0";"2014-10-15 17:35:32.620";"1";;;;;;;;;;;;;;;;;;;;;;;;;;;;;;;;;
"lolarodgers1";;;"Windows 7";"Rachel's Experiment (D.T.)";"1.0";"2";"1";"1";"2";"1";"1";"2014-10-15 17:29:33.569";"2014-10-15 17:44:10.119";"1";"1";"0";"101";"100";"module.training_block3.exec-4110.GoNoGo3";;;;;;;;;;;;;;;;;;;;;;;;;;;;;;;;;;;;;;;;;;;;;;;"1262";"2014-10-15 17:35:36.442";"NST_correctLoc";"10";"1";"FINISHED";"RIGHT";"success";"498";"0";"2014-10-15 17:35:35.178";"2";;;;;;;;;;;;;;;;;;;;;;;;;;;;;;;;;
"lolarodgers1";;;"Windows 7";"Rachel's Experiment (D.T.)";"1.0";"2";"1";"1";"2";"1";"1";"2014-10-15 17:29:33.569";"2014-10-15 17:44:10.119";"1";"1";"0";"102";"101";"module.training_block3.exec-4110.GoNoGo3";;;;;;;;;;;;;;;;;;;;;;;;;;;;;;;;;;;;;;;;;;;;;;;"1261";"2014-10-15 17:35:38.984";"NST_correctLoc";"34";"1";"FINISHED";"RIGHT";"success";"396";"0";"2014-10-15 17:35:37.721";"3";;;;;;;;;;;;;;;;;;;;;;;;;;;;;;;;;
"lolarodgers1";;;"Windows 7";"Rachel's Experiment (D.T.)";"1.0";"2";"1";"1";"2";"1";"1";"2014-10-15 17:29:33.569";"2014-10-15 17:44:10.119";"1";"1";"0";"103";"102";"module.training_block3.exec-4110.GoNoGo3";;;;;;;;;;;;;;;;;;;;;;;;;;;;;;;;;;;;;;;;;;;;;;;"1261";"2014-10-15 17:35:41.527";"NST_correctLoc";"35";"0";"FINISHED";"LEFT";"success";"325";"0";"2014-10-15 17:35:40.264";"3";;;;;;;;;;;;;;;;;;;;;;;;;;;;;;;;;
"lolarodgers1";;;"Windows 7";"Rachel's Experiment (D.T.)";"1.0";"2";"1";"1";"2";"1";"1";"2014-10-15 17:29:33.569";"2014-10-15 17:44:10.119";"1";"1";"0";"104";"103";"module.training_block3.exec-4110.GoNoGo3";;;;;;;;;;;;;;;;;;;;;;;;;;;;;;;;;;;;;;;;;;;;;;;"1261";"2014-10-15 17:35:44.070";"NST_correctLoc";"0";"0";"FINISHED";"LEFT";"success";"302";"0";"2014-10-15 17:35:42.806";"1";;;;;;;;;;;;;;;;;;;;;;;;;;;;;;;;;
"lolarodgers1";;;"Windows 7";"Rachel's Experiment (D.T.)";"1.0";"2";"1";"1";"2";"1";"1";"2014-10-15 17:29:33.569";"2014-10-15 17:44:10.119";"1";"1";"0";"105";"104";"module.training_block3.exec-4110.GoNoGo3";;;;;;;;;;;;;;;;;;;;;;;;;;;;;;;;;;;;;;;;;;;;;;;"1261";"2014-10-15 17:35:46.613";"NST_correctLoc";"25";"1";"FINISHED";"RIGHT";"success";"343";"0";"2014-10-15 17:35:45.349";"3";;;;;;;;;;;;;;;;;;;;;;;;;;;;;;;;;
"lolarodgers1";;;"Windows 7";"Rachel's Experiment (D.T.)";"1.0";"2";"1";"1";"2";"1";"1";"2014-10-15 17:29:33.569";"2014-10-15 17:44:10.119";"1";"1";"0";"106";"105";"module.training_block3.exec-4110.GoNoGo3";;;;;;;;;;;;;;;;;;;;;;;;;;;;;;;;;;;;;;;;;;;;;;;"1261";"2014-10-15 17:35:49.156";"NST_correctLoc";"3";"0";"FINISHED";"LEFT";"success";"320";"0";"2014-10-15 17:35:47.892";"1";;;;;;;;;;;;;;;;;;;;;;;;;;;;;;;;;
"lolarodgers1";;;"Windows 7";"Rachel's Experiment (D.T.)";"1.0";"2";"1";"1";"2";"1";"1";"2014-10-15 17:29:33.569";"2014-10-15 17:44:10.119";"1";"1";"0";"107";"106";"module.training_block3.exec-4110.GoNoGo3";;;;;;;;;;;;;;;;;;;;;;;;;;;;;;;;;;;;;;;;;;;;;;;"1261";"2014-10-15 17:35:51.698";"NST_correctLoc";"9";"0";"FINISHED";"LEFT";"success";"338";"0";"2014-10-15 17:35:50.435";"2";;;;;;;;;;;;;;;;;;;;;;;;;;;;;;;;;
"lolarodgers1";;;"Windows 7";"Rachel's Experiment (D.T.)";"1.0";"2";"1";"1";"2";"1";"1";"2014-10-15 17:29:33.569";"2014-10-15 17:44:10.119";"1";"1";"0";"108";"107";"module.training_block3.exec-4110.GoNoGo3";;;;;;;;;;;;;;;;;;;;;;;;;;;;;;;;;;;;;;;;;;;;;;;"1261";"2014-10-15 17:35:54.241";"NST_correctLoc";"26";"1";"FINISHED";"RIGHT";"success";"339";"0";"2014-10-15 17:35:52.978";"3";;;;;;;;;;;;;;;;;;;;;;;;;;;;;;;;;
"lolarodgers1";;;"Windows 7";"Rachel's Experiment (D.T.)";"1.0";"2";"1";"1";"2";"1";"1";"2014-10-15 17:29:33.569";"2014-10-15 17:44:10.119";"1";"1";"0";"109";"108";"module.training_block3.exec-4110.GoNoGo3";;;;;;;;;;;;;;;;;;;;;;;;;;;;;;;;;;;;;;;;;;;;;;;"1261";"2014-10-15 17:35:56.784";"NST_correctLoc";"17";"0";"FINISHED";"LEFT";"success";"396";"0";"2014-10-15 17:35:55.520";"2";;;;;;;;;;;;;;;;;;;;;;;;;;;;;;;;;
"lolarodgers1";;;"Windows 7";"Rachel's Experiment (D.T.)";"1.0";"2";"1";"1";"2";"1";"1";"2014-10-15 17:29:33.569";"2014-10-15 17:44:10.119";"1";"1";"0";"110";"109";"module.training_block3.exec-4110.GoNoGo3";;;;;;;;;;;;;;;;;;;;;;;;;;;;;;;;;;;;;;;;;;;;;;;"1261";"2014-10-15 17:35:59.342";"NST_correctLoc";"33";"0";"FINISHED";"LEFT";"success";"293";"0";"2014-10-15 17:35:58.079";"3";;;;;;;;;;;;;;;;;;;;;;;;;;;;;;;;;
"lolarodgers1";;;"Windows 7";"Rachel's Experiment (D.T.)";"1.0";"2";"1";"1";"2";"1";"1";"2014-10-15 17:29:33.569";"2014-10-15 17:44:10.119";"1";"1";"0";"111";"110";"module.training_block3.exec-4110.GoNoGo3";;;;;;;;;;;;;;;;;;;;;;;;;;;;;;;;;;;;;;;;;;;;;;;"1261";"2014-10-15 17:36:01.885";"NST_correctLoc";"28";"1";"FINISHED";"RIGHT";"success";"335";"0";"2014-10-15 17:36:00.622";"3";;;;;;;;;;;;;;;;;;;;;;;;;;;;;;;;;
"lolarodgers1";;;"Windows 7";"Rachel's Experiment (D.T.)";"1.0";"2";"1";"1";"2";"1";"1";"2014-10-15 17:29:33.569";"2014-10-15 17:44:10.119";"1";"1";"0";"112";"111";"module.training_block3.exec-4110.GoNoGo3";;;;;;;;;;;;;;;;;;;;;;;;;;;;;;;;;;;;;;;;;;;;;;;"1258";"2014-10-15 17:36:04.428";"NST_correctLoc";"32";"1";"FINISHED";"RIGHT";"success";"333";"0";"2014-10-15 17:36:03.164";"3";;;;;;;;;;;;;;;;;;;;;;;;;;;;;;;;;
"lolarodgers1";;;"Windows 7";"Rachel's Experiment (D.T.)";"1.0";"2";"1";"1";"2";"1";"1";"2014-10-15 17:29:33.569";"2014-10-15 17:44:10.119";"1";"1";"0";"113";"112";"module.training_block3.exec-4110.GoNoGo3";;;;;;;;;;;;;;;;;;;;;;;;;;;;;;;;;;;;;;;;;;;;;;;"1262";"2014-10-15 17:36:06.955";"NST_correctLoc";"7";"0";"FINISHED";"LEFT";"success";"369";"0";"2014-10-15 17:36:05.692";"1";;;;;;;;;;;;;;;;;;;;;;;;;;;;;;;;;
"lolarodgers1";;;"Windows 7";"Rachel's Experiment (D.T.)";"1.0";"2";"1";"1";"2";"1";"1";"2014-10-15 17:29:33.569";"2014-10-15 17:44:10.119";"1";"1";"0";"114";"113";"module.training_block3.exec-4110.GoNoGo3";;;;;;;;;;;;;;;;;;;;;;;;;;;;;;;;;;;;;;;;;;;;;;;"1261";"2014-10-15 17:36:09.482";"NST_correctLoc";"12";"1";"FINISHED";"RIGHT";"success";"305";"0";"2014-10-15 17:36:08.219";"2";;;;;;;;;;;;;;;;;;;;;;;;;;;;;;;;;
"lolarodgers1";;;"Windows 7";"Rachel's Experiment (D.T.)";"1.0";"2";"1";"1";"2";"1";"1";"2014-10-15 17:29:33.569";"2014-10-15 17:44:10.119";"1";"1";"0";"115";"114";"module.training_block3.exec-4110.GoNoGo3";;;;;;;;;;;;;;;;;;;;;;;;;;;;;;;;;;;;;;;;;;;;;;;"1261";"2014-10-15 17:36:12.010";"NST_correctLoc";"15";"1";"FINISHED";"RIGHT";"success";"314";"0";"2014-10-15 17:36:10.746";"2";;;;;;;;;;;;;;;;;;;;;;;;;;;;;;;;;
"lolarodgers1";;;"Windows 7";"Rachel's Experiment (D.T.)";"1.0";"2";"1";"1";"2";"1";"1";"2014-10-15 17:29:33.569";"2014-10-15 17:44:10.119";"1";"1";"0";"116";"115";"module.training_block3.exec-4110.GoNoGo3";;;;;;;;;;;;;;;;;;;;;;;;;;;;;;;;;;;;;;;;;;;;;;;"1261";"2014-10-15 17:36:14.537";"NST_correctLoc";"6";"1";"FINISHED";"RIGHT";"success";"307";"0";"2014-10-15 17:36:13.273";"1";;;;;;;;;;;;;;;;;;;;;;;;;;;;;;;;;
"lolarodgers1";;;"Windows 7";"Rachel's Experiment (D.T.)";"1.0";"2";"1";"1";"2";"1";"1";"2014-10-15 17:29:33.569";"2014-10-15 17:44:10.119";"1";"1";"0";"117";"116";"module.training_block3.exec-4110.GoNoGo3";;;;;;;;;;;;;;;;;;;;;;;;;;;;;;;;;;;;;;;;;;;;;;;"1261";"2014-10-15 17:36:17.064";"NST_correctLoc";"14";"1";"FINISHED";"RIGHT";"success";"372";"0";"2014-10-15 17:36:15.800";"2";;;;;;;;;;;;;;;;;;;;;;;;;;;;;;;;;
"lolarodgers1";;;"Windows 7";"Rachel's Experiment (D.T.)";"1.0";"2";"1";"1";"2";"1";"1";"2014-10-15 17:29:33.569";"2014-10-15 17:44:10.119";"1";"1";"0";"118";"117";"module.training_block3.exec-4110.GoNoGo3";;;;;;;;;;;;;;;;;;;;;;;;;;;;;;;;;;;;;;;;;;;;;;;"1261";"2014-10-15 17:36:19.591";"NST_correctLoc";"2";"0";"FINISHED";"LEFT";"success";"340";"0";"2014-10-15 17:36:18.328";"1";;;;;;;;;;;;;;;;;;;;;;;;;;;;;;;;;
"lolarodgers1";;;"Windows 7";"Rachel's Experiment (D.T.)";"1.0";"2";"1";"1";"2";"1";"1";"2014-10-15 17:29:33.569";"2014-10-15 17:44:10.119";"1";"1";"0";"119";"118";"module.training_block3.exec-4110.GoNoGo3";;;;;;;;;;;;;;;;;;;;;;;;;;;;;;;;;;;;;;;;;;;;;;;"1261";"2014-10-15 17:36:22.118";"NST_correctLoc";"1";"1";"FINISHED";"RIGHT";"success";"381";"0";"2014-10-15 17:36:20.855";"1";;;;;;;;;;;;;;;;;;;;;;;;;;;;;;;;;
"lolarodgers1";;;"Windows 7";"Rachel's Experiment (D.T.)";"1.0";"2";"1";"1";"2";"1";"1";"2014-10-15 17:29:33.569";"2014-10-15 17:44:10.119";"1";"1";"0";"120";"119";"module.training_block3.exec-4110.GoNoGo3";;;;;;;;;;;;;;;;;;;;;;;;;;;;;;;;;;;;;;;;;;;;;;;"1262";"2014-10-15 17:36:24.661";"NST_correctLoc";"29";"1";"FINISHED";"RIGHT";"success";"406";"0";"2014-10-15 17:36:23.398";"3";;;;;;;;;;;;;;;;;;;;;;;;;;;;;;;;;
"lolarodgers1";;;"Windows 7";"Rachel's Experiment (D.T.)";"1.0";"2";"1";"1";"2";"1";"1";"2014-10-15 17:29:33.569";"2014-10-15 17:44:10.119";"1";"1";"0";"121";"120";"module.training_block3.exec-4110.GoNoGo3";;;;;;;;;;;;;;;;;;;;;;;;;;;;;;;;;;;;;;;;;;;;;;;"1261";"2014-10-15 17:36:27.188";"NST_correctLoc";"24";"1";"FINISHED";"RIGHT";"success";"351";"0";"2014-10-15 17:36:25.925";"3";;;;;;;;;;;;;;;;;;;;;;;;;;;;;;;;;
"lolarodgers1";;;"Windows 7";"Rachel's Experiment (D.T.)";"1.0";"2";"1";"1";"2";"1";"1";"2014-10-15 17:29:33.569";"2014-10-15 17:44:10.119";"1";"1";"0";"122";"121";"module.training_block3.exec-4110.GoNoGo3";;;;;;;;;;;;;;;;;;;;;;;;;;;;;;;;;;;;;;;;;;;;;;;"1261";"2014-10-15 17:36:29.716";"NST_correctLoc";"31";"1";"FINISHED";"RIGHT";"success";"328";"0";"2014-10-15 17:36:28.452";"3";;;;;;;;;;;;;;;;;;;;;;;;;;;;;;;;;
"lolarodgers1";;;"Windows 7";"Rachel's Experiment (D.T.)";"1.0";"2";"1";"1";"2";"1";"1";"2014-10-15 17:29:33.569";"2014-10-15 17:44:10.119";"1";"1";"0";"123";"122";"module.training_block3.exec-4110.GoNoGo3";;;;;;;;;;;;;;;;;;;;;;;;;;;;;;;;;;;;;;;;;;;;;;;"1262";"2014-10-15 17:36:32.243";"NST_correctLoc";"8";"0";"FINISHED";"LEFT";"success";"298";"0";"2014-10-15 17:36:30.979";"1";;;;;;;;;;;;;;;;;;;;;;;;;;;;;;;;;
"lolarodgers1";;;"Windows 7";"Rachel's Experiment (D.T.)";"1.0";"2";"1";"1";"2";"1";"1";"2014-10-15 17:29:33.569";"2014-10-15 17:44:10.119";"1";"1";"0";"124";"123";"module.training_block4.exec-3582.GoNoGo4";;;;;;;;;;;;;;;;;;;;;;;;;;;;;;;;;;;;;;;;;;;;;;;;;;;;;;;;;;;"1261";"2014-10-15 17:36:43.132";"NST_correctLoc";"2";"1";"FINISHED";"RIGHT";"success";"408";"0";"2014-10-15 17:36:41.868";"1";;;;;;;;;;;;;;;;;;;;;
"lolarodgers1";;;"Windows 7";"Rachel's Experiment (D.T.)";"1.0";"2";"1";"1";"2";"1";"1";"2014-10-15 17:29:33.569";"2014-10-15 17:44:10.119";"1";"1";"0";"125";"124";"module.training_block4.exec-3582.GoNoGo4";;;;;;;;;;;;;;;;;;;;;;;;;;;;;;;;;;;;;;;;;;;;;;;;;;;;;;;;;;;"1262";"2014-10-15 17:36:45.659";"NST_correctLoc";"0";"0";"FINISHED";"LEFT";"success";"313";"0";"2014-10-15 17:36:44.395";"1";;;;;;;;;;;;;;;;;;;;;
"lolarodgers1";;;"Windows 7";"Rachel's Experiment (D.T.)";"1.0";"2";"1";"1";"2";"1";"1";"2014-10-15 17:29:33.569";"2014-10-15 17:44:10.119";"1";"1";"0";"126";"125";"module.training_block4.exec-3582.GoNoGo4";;;;;;;;;;;;;;;;;;;;;;;;;;;;;;;;;;;;;;;;;;;;;;;;;;;;;;;;;;;"1261";"2014-10-15 17:36:48.186";"NST_correctLoc";"3";"1";"FINISHED";"RIGHT";"success";"321";"0";"2014-10-15 17:36:46.923";"1";;;;;;;;;;;;;;;;;;;;;
"lolarodgers1";;;"Windows 7";"Rachel's Experiment (D.T.)";"1.0";"2";"1";"1";"2";"1";"1";"2014-10-15 17:29:33.569";"2014-10-15 17:44:10.119";"1";"1";"0";"127";"126";"module.training_block4.exec-3582.GoNoGo4";;;;;;;;;;;;;;;;;;;;;;;;;;;;;;;;;;;;;;;;;;;;;;;;;;;;;;;;;;;"1261";"2014-10-15 17:36:50.713";"NST_correctLoc";"8";"0";"FINISHED";"LEFT";"success";"346";"0";"2014-10-15 17:36:49.450";"1";;;;;;;;;;;;;;;;;;;;;
"lolarodgers1";;;"Windows 7";"Rachel's Experiment (D.T.)";"1.0";"2";"1";"1";"2";"1";"1";"2014-10-15 17:29:33.569";"2014-10-15 17:44:10.119";"1";"1";"0";"128";"127";"module.training_block4.exec-3582.GoNoGo4";;;;;;;;;;;;;;;;;;;;;;;;;;;;;;;;;;;;;;;;;;;;;;;;;;;;;;;;;;;"1262";"2014-10-15 17:36:53.241";"NST_correctLoc";"23";"1";"FINISHED";"RIGHT";"success";"291";"0";"2014-10-15 17:36:51.977";"3";;;;;;;;;;;;;;;;;;;;;
"lolarodgers1";;;"Windows 7";"Rachel's Experiment (D.T.)";"1.0";"2";"1";"1";"2";"1";"1";"2014-10-15 17:29:33.569";"2014-10-15 17:44:10.119";"1";"1";"0";"129";"128";"module.training_block4.exec-3582.GoNoGo4";;;;;;;;;;;;;;;;;;;;;;;;;;;;;;;;;;;;;;;;;;;;;;;;;;;;;;;;;;;"1261";"2014-10-15 17:36:55.783";"NST_correctLoc";"9";"0";"FINISHED";"LEFT";"success";"364";"0";"2014-10-15 17:36:54.520";"2";;;;;;;;;;;;;;;;;;;;;
"lolarodgers1";;;"Windows 7";"Rachel's Experiment (D.T.)";"1.0";"2";"1";"1";"2";"1";"1";"2014-10-15 17:29:33.569";"2014-10-15 17:44:10.119";"1";"1";"0";"130";"129";"module.training_block4.exec-3582.GoNoGo4";;;;;;;;;;;;;;;;;;;;;;;;;;;;;;;;;;;;;;;;;;;;;;;;;;;;;;;;;;;"1261";"2014-10-15 17:36:58.342";"NST_correctLoc";"24";"0";"FINISHED";"LEFT";"success";"342";"0";"2014-10-15 17:36:57.078";"3";;;;;;;;;;;;;;;;;;;;;
"lolarodgers1";;;"Windows 7";"Rachel's Experiment (D.T.)";"1.0";"2";"1";"1";"2";"1";"1";"2014-10-15 17:29:33.569";"2014-10-15 17:44:10.119";"1";"1";"0";"131";"130";"module.training_block4.exec-3582.GoNoGo4";;;;;;;;;;;;;;;;;;;;;;;;;;;;;;;;;;;;;;;;;;;;;;;;;;;;;;;;;;;"1261";"2014-10-15 17:37:00.869";"NST_correctLoc";"21";"0";"FINISHED";"LEFT";"success";"383";"0";"2014-10-15 17:36:59.605";"3";;;;;;;;;;;;;;;;;;;;;
"lolarodgers1";;;"Windows 7";"Rachel's Experiment (D.T.)";"1.0";"2";"1";"1";"2";"1";"1";"2014-10-15 17:29:33.569";"2014-10-15 17:44:10.119";"1";"1";"0";"132";"131";"module.training_block4.exec-3582.GoNoGo4";;;;;;;;;;;;;;;;;;;;;;;;;;;;;;;;;;;;;;;;;;;;;;;;;;;;;;;;;;;"1261";"2014-10-15 17:37:03.412";"NST_correctLoc";"26";"1";"FINISHED";"RIGHT";"success";"336";"0";"2014-10-15 17:37:02.148";"3";;;;;;;;;;;;;;;;;;;;;
"lolarodgers1";;;"Windows 7";"Rachel's Experiment (D.T.)";"1.0";"2";"1";"1";"2";"1";"1";"2014-10-15 17:29:33.569";"2014-10-15 17:44:10.119";"1";"1";"0";"133";"132";"module.training_block4.exec-3582.GoNoGo4";;;;;;;;;;;;;;;;;;;;;;;;;;;;;;;;;;;;;;;;;;;;;;;;;;;;;;;;;;;"1261";"2014-10-15 17:37:05.939";"NST_correctLoc";"15";"1";"FINISHED";"RIGHT";"success";"312";"0";"2014-10-15 17:37:04.675";"2";;;;;;;;;;;;;;;;;;;;;
"lolarodgers1";;;"Windows 7";"Rachel's Experiment (D.T.)";"1.0";"2";"1";"1";"2";"1";"1";"2014-10-15 17:29:33.569";"2014-10-15 17:44:10.119";"1";"1";"0";"134";"133";"module.training_block4.exec-3582.GoNoGo4";;;;;;;;;;;;;;;;;;;;;;;;;;;;;;;;;;;;;;;;;;;;;;;;;;;;;;;;;;;"1261";"2014-10-15 17:37:08.466";"NST_correctLoc";"6";"0";"FINISHED";"LEFT";"success";"353";"0";"2014-10-15 17:37:07.203";"1";;;;;;;;;;;;;;;;;;;;;
"lolarodgers1";;;"Windows 7";"Rachel's Experiment (D.T.)";"1.0";"2";"1";"1";"2";"1";"1";"2014-10-15 17:29:33.569";"2014-10-15 17:44:10.119";"1";"1";"0";"135";"134";"module.training_block4.exec-3582.GoNoGo4";;;;;;;;;;;;;;;;;;;;;;;;;;;;;;;;;;;;;;;;;;;;;;;;;;;;;;;;;;;"1261";"2014-10-15 17:37:11.025";"NST_correctLoc";"18";"0";"FINISHED";"LEFT";"success";"387";"0";"2014-10-15 17:37:09.761";"3";;;;;;;;;;;;;;;;;;;;;
"lolarodgers1";;;"Windows 7";"Rachel's Experiment (D.T.)";"1.0";"2";"1";"1";"2";"1";"1";"2014-10-15 17:29:33.569";"2014-10-15 17:44:10.119";"1";"1";"0";"136";"135";"module.training_block4.exec-3582.GoNoGo4";;;;;;;;;;;;;;;;;;;;;;;;;;;;;;;;;;;;;;;;;;;;;;;;;;;;;;;;;;;"1261";"2014-10-15 17:37:13.567";"NST_correctLoc";"30";"1";"FINISHED";"RIGHT";"success";"436";"0";"2014-10-15 17:37:12.304";"3";;;;;;;;;;;;;;;;;;;;;
"lolarodgers1";;;"Windows 7";"Rachel's Experiment (D.T.)";"1.0";"2";"1";"1";"2";"1";"1";"2014-10-15 17:29:33.569";"2014-10-15 17:44:10.119";"1";"1";"0";"137";"136";"module.training_block4.exec-3582.GoNoGo4";;;;;;;;;;;;;;;;;;;;;;;;;;;;;;;;;;;;;;;;;;;;;;;;;;;;;;;;;;;"1261";"2014-10-15 17:37:16.110";"NST_correctLoc";"27";"1";"FINISHED";"RIGHT";"success";"325";"0";"2014-10-15 17:37:14.847";"3";;;;;;;;;;;;;;;;;;;;;
"lolarodgers1";;;"Windows 7";"Rachel's Experiment (D.T.)";"1.0";"2";"1";"1";"2";"1";"1";"2014-10-15 17:29:33.569";"2014-10-15 17:44:10.119";"1";"1";"0";"138";"137";"module.training_block4.exec-3582.GoNoGo4";;;;;;;;;;;;;;;;;;;;;;;;;;;;;;;;;;;;;;;;;;;;;;;;;;;;;;;;;;;"1261";"2014-10-15 17:37:18.637";"NST_correctLoc";"5";"1";"FINISHED";"RIGHT";"success";"318";"0";"2014-10-15 17:37:17.374";"1";;;;;;;;;;;;;;;;;;;;;
"lolarodgers1";;;"Windows 7";"Rachel's Experiment (D.T.)";"1.0";"2";"1";"1";"2";"1";"1";"2014-10-15 17:29:33.569";"2014-10-15 17:44:10.119";"1";"1";"0";"139";"138";"module.training_block4.exec-3582.GoNoGo4";;;;;;;;;;;;;;;;;;;;;;;;;;;;;;;;;;;;;;;;;;;;;;;;;;;;;;;;;;;"1261";"2014-10-15 17:37:21.165";"NST_correctLoc";"12";"1";"FINISHED";"RIGHT";"success";"343";"0";"2014-10-15 17:37:19.901";"2";;;;;;;;;;;;;;;;;;;;;
"lolarodgers1";;;"Windows 7";"Rachel's Experiment (D.T.)";"1.0";"2";"1";"1";"2";"1";"1";"2014-10-15 17:29:33.569";"2014-10-15 17:44:10.119";"1";"1";"0";"140";"139";"module.training_block4.exec-3582.GoNoGo4";;;;;;;;;;;;;;;;;;;;;;;;;;;;;;;;;;;;;;;;;;;;;;;;;;;;;;;;;;;"1261";"2014-10-15 17:37:23.692";"NST_correctLoc";"7";"0";"FINISHED";"LEFT";"success";"431";"0";"2014-10-15 17:37:22.428";"1";;;;;;;;;;;;;;;;;;;;;
"lolarodgers1";;;"Windows 7";"Rachel's Experiment (D.T.)";"1.0";"2";"1";"1";"2";"1";"1";"2014-10-15 17:29:33.569";"2014-10-15 17:44:10.119";"1";"1";"0";"141";"140";"module.training_block4.exec-3582.GoNoGo4";;;;;;;;;;;;;;;;;;;;;;;;;;;;;;;;;;;;;;;;;;;;;;;;;;;;;;;;;;;"1261";"2014-10-15 17:37:26.219";"NST_correctLoc";"22";"0";"FINISHED";"LEFT";"success";"288";"0";"2014-10-15 17:37:24.955";"3";;;;;;;;;;;;;;;;;;;;;
"lolarodgers1";;;"Windows 7";"Rachel's Experiment (D.T.)";"1.0";"2";"1";"1";"2";"1";"1";"2014-10-15 17:29:33.569";"2014-10-15 17:44:10.119";"1";"1";"0";"142";"141";"module.training_block4.exec-3582.GoNoGo4";;;;;;;;;;;;;;;;;;;;;;;;;;;;;;;;;;;;;;;;;;;;;;;;;;;;;;;;;;;"1261";"2014-10-15 17:37:28.762";"NST_correctLoc";"29";"1";"FINISHED";"RIGHT";"success";"313";"0";"2014-10-15 17:37:27.498";"3";;;;;;;;;;;;;;;;;;;;;
"lolarodgers1";;;"Windows 7";"Rachel's Experiment (D.T.)";"1.0";"2";"1";"1";"2";"1";"1";"2014-10-15 17:29:33.569";"2014-10-15 17:44:10.119";"1";"1";"0";"143";"142";"module.training_block4.exec-3582.GoNoGo4";;;;;;;;;;;;;;;;;;;;;;;;;;;;;;;;;;;;;;;;;;;;;;;;;;;;;;;;;;;"1261";"2014-10-15 17:37:31.289";"NST_correctLoc";"13";"1";"FINISHED";"RIGHT";"success";"426";"0";"2014-10-15 17:37:30.025";"2";;;;;;;;;;;;;;;;;;;;;
"lolarodgers1";;;"Windows 7";"Rachel's Experiment (D.T.)";"1.0";"2";"1";"1";"2";"1";"1";"2014-10-15 17:29:33.569";"2014-10-15 17:44:10.119";"1";"1";"0";"144";"143";"module.training_block4.exec-3582.GoNoGo4";;;;;;;;;;;;;;;;;;;;;;;;;;;;;;;;;;;;;;;;;;;;;;;;;;;;;;;;;;;"1261";"2014-10-15 17:37:33.816";"NST_correctLoc";"34";"0";"FINISHED";"LEFT";"success";"307";"0";"2014-10-15 17:37:32.553";"3";;;;;;;;;;;;;;;;;;;;;
"lolarodgers1";;;"Windows 7";"Rachel's Experiment (D.T.)";"1.0";"2";"1";"1";"2";"1";"1";"2014-10-15 17:29:33.569";"2014-10-15 17:44:10.119";"1";"1";"0";"145";"144";"module.training_block4.exec-3582.GoNoGo4";;;;;;;;;;;;;;;;;;;;;;;;;;;;;;;;;;;;;;;;;;;;;;;;;;;;;;;;;;;"1261";"2014-10-15 17:37:36.375";"NST_correctLoc";"16";"0";"FINISHED";"LEFT";"success";"285";"0";"2014-10-15 17:37:35.111";"2";;;;;;;;;;;;;;;;;;;;;
"lolarodgers1";;;"Windows 7";"Rachel's Experiment (D.T.)";"1.0";"2";"1";"1";"2";"1";"1";"2014-10-15 17:29:33.569";"2014-10-15 17:44:10.119";"1";"1";"0";"146";"145";"module.training_block4.exec-3582.GoNoGo4";;;;;;;;;;;;;;;;;;;;;;;;;;;;;;;;;;;;;;;;;;;;;;;;;;;;;;;;;;;"1261";"2014-10-15 17:37:38.902";"NST_correctLoc";"25";"1";"FINISHED";"RIGHT";"success";"333";"0";"2014-10-15 17:37:37.638";"3";;;;;;;;;;;;;;;;;;;;;
"lolarodgers1";;;"Windows 7";"Rachel's Experiment (D.T.)";"1.0";"2";"1";"1";"2";"1";"1";"2014-10-15 17:29:33.569";"2014-10-15 17:44:10.119";"1";"1";"0";"147";"146";"module.training_block4.exec-3582.GoNoGo4";;;;;;;;;;;;;;;;;;;;;;;;;;;;;;;;;;;;;;;;;;;;;;;;;;;;;;;;;;;"1261";"2014-10-15 17:37:41.445";"NST_correctLoc";"32";"1";"FINISHED";"RIGHT";"success";"303";"0";"2014-10-15 17:37:40.181";"3";;;;;;;;;;;;;;;;;;;;;
"lolarodgers1";;;"Windows 7";"Rachel's Experiment (D.T.)";"1.0";"2";"1";"1";"2";"1";"1";"2014-10-15 17:29:33.569";"2014-10-15 17:44:10.119";"1";"1";"0";"148";"147";"module.training_block4.exec-3582.GoNoGo4";;;;;;;;;;;;;;;;;;;;;;;;;;;;;;;;;;;;;;;;;;;;;;;;;;;;;;;;;;;"1261";"2014-10-15 17:37:43.972";"NST_correctLoc";"4";"0";"FINISHED";"LEFT";"success";"311";"0";"2014-10-15 17:37:42.708";"1";;;;;;;;;;;;;;;;;;;;;
"lolarodgers1";;;"Windows 7";"Rachel's Experiment (D.T.)";"1.0";"2";"1";"1";"2";"1";"1";"2014-10-15 17:29:33.569";"2014-10-15 17:44:10.119";"1";"1";"0";"149";"148";"module.training_block4.exec-3582.GoNoGo4";;;;;;;;;;;;;;;;;;;;;;;;;;;;;;;;;;;;;;;;;;;;;;;;;;;;;;;;;;;"1261";"2014-10-15 17:37:46.499";"NST_correctLoc";"31";"0";"FINISHED";"LEFT";"success";"296";"0";"2014-10-15 17:37:45.235";"3";;;;;;;;;;;;;;;;;;;;;
"lolarodgers1";;;"Windows 7";"Rachel's Experiment (D.T.)";"1.0";"2";"1";"1";"2";"1";"1";"2014-10-15 17:29:33.569";"2014-10-15 17:44:10.119";"1";"1";"0";"150";"149";"module.training_block4.exec-3582.GoNoGo4";;;;;;;;;;;;;;;;;;;;;;;;;;;;;;;;;;;;;;;;;;;;;;;;;;;;;;;;;;;"1261";"2014-10-15 17:37:49.057";"NST_correctLoc";"14";"0";"FINISHED";"LEFT";"success";"274";"0";"2014-10-15 17:37:47.794";"2";;;;;;;;;;;;;;;;;;;;;
"lolarodgers1";;;"Windows 7";"Rachel's Experiment (D.T.)";"1.0";"2";"1";"1";"2";"1";"1";"2014-10-15 17:29:33.569";"2014-10-15 17:44:10.119";"1";"1";"0";"151";"150";"module.training_block4.exec-3582.GoNoGo4";;;;;;;;;;;;;;;;;;;;;;;;;;;;;;;;;;;;;;;;;;;;;;;;;;;;;;;;;;;"1262";"2014-10-15 17:37:51.585";"NST_correctLoc";"1";"1";"FINISHED";"RIGHT";"success";"323";"0";"2014-10-15 17:37:50.321";"1";;;;;;;;;;;;;;;;;;;;;
"lolarodgers1";;;"Windows 7";"Rachel's Experiment (D.T.)";"1.0";"2";"1";"1";"2";"1";"1";"2014-10-15 17:29:33.569";"2014-10-15 17:44:10.119";"1";"1";"0";"152";"151";"module.training_block4.exec-3582.GoNoGo4";;;;;;;;;;;;;;;;;;;;;;;;;;;;;;;;;;;;;;;;;;;;;;;;;;;;;;;;;;;"1261";"2014-10-15 17:37:54.127";"NST_correctLoc";"10";"1";"FINISHED";"RIGHT";"success";"308";"0";"2014-10-15 17:37:52.864";"2";;;;;;;;;;;;;;;;;;;;;
"lolarodgers1";;;"Windows 7";"Rachel's Experiment (D.T.)";"1.0";"2";"1";"1";"2";"1";"1";"2014-10-15 17:29:33.569";"2014-10-15 17:44:10.119";"1";"1";"0";"153";"152";"module.training_block4.exec-3582.GoNoGo4";;;;;;;;;;;;;;;;;;;;;;;;;;;;;;;;;;;;;;;;;;;;;;;;;;;;;;;;;;;"1261";"2014-10-15 17:37:56.655";"NST_correctLoc";"33";"1";"FINISHED";"RIGHT";"success";"332";"0";"2014-10-15 17:37:55.391";"3";;;;;;;;;;;;;;;;;;;;;
"lolarodgers1";;;"Windows 7";"Rachel's Experiment (D.T.)";"1.0";"2";"1";"1";"2";"1";"1";"2014-10-15 17:29:33.569";"2014-10-15 17:44:10.119";"1";"1";"0";"154";"153";"module.training_block4.exec-3582.GoNoGo4";;;;;;;;;;;;;;;;;;;;;;;;;;;;;;;;;;;;;;;;;;;;;;;;;;;;;;;;;;;"1262";"2014-10-15 17:37:59.182";"NST_correctLoc";"20";"1";"FINISHED";"RIGHT";"success";"301";"0";"2014-10-15 17:37:57.918";"3";;;;;;;;;;;;;;;;;;;;;
"lolarodgers1";;;"Windows 7";"Rachel's Experiment (D.T.)";"1.0";"2";"1";"1";"2";"1";"1";"2014-10-15 17:29:33.569";"2014-10-15 17:44:10.119";"1";"1";"0";"155";"154";"module.training_block4.exec-3582.GoNoGo4";;;;;;;;;;;;;;;;;;;;;;;;;;;;;;;;;;;;;;;;;;;;;;;;;;;;;;;;;;;"1261";"2014-10-15 17:38:01.709";"NST_correctLoc";"28";"0";"FINISHED";"LEFT";"success";"326";"0";"2014-10-15 17:38:00.445";"3";;;;;;;;;;;;;;;;;;;;;
"lolarodgers1";;;"Windows 7";"Rachel's Experiment (D.T.)";"1.0";"2";"1";"1";"2";"1";"1";"2014-10-15 17:29:33.569";"2014-10-15 17:44:10.119";"1";"1";"0";"156";"155";"module.training_block4.exec-3582.GoNoGo4";;;;;;;;;;;;;;;;;;;;;;;;;;;;;;;;;;;;;;;;;;;;;;;;;;;;;;;;;;;"1261";"2014-10-15 17:38:04.236";"NST_correctLoc";"19";"1";"FINISHED";"RIGHT";"success";"311";"0";"2014-10-15 17:38:02.973";"3";;;;;;;;;;;;;;;;;;;;;
"lolarodgers1";;;"Windows 7";"Rachel's Experiment (D.T.)";"1.0";"2";"1";"1";"2";"1";"1";"2014-10-15 17:29:33.569";"2014-10-15 17:44:10.119";"1";"1";"0";"157";"156";"module.training_block4.exec-3582.GoNoGo4";;;;;;;;;;;;;;;;;;;;;;;;;;;;;;;;;;;;;;;;;;;;;;;;;;;;;;;;;;;"1261";"2014-10-15 17:38:06.763";"NST_correctLoc";"35";"1";"FINISHED";"RIGHT";"success";"375";"0";"2014-10-15 17:38:05.500";"3";;;;;;;;;;;;;;;;;;;;;
"lolarodgers1";;;"Windows 7";"Rachel's Experiment (D.T.)";"1.0";"2";"1";"1";"2";"1";"1";"2014-10-15 17:29:33.569";"2014-10-15 17:44:10.119";"1";"1";"0";"158";"157";"module.training_block4.exec-3582.GoNoGo4";;;;;;;;;;;;;;;;;;;;;;;;;;;;;;;;;;;;;;;;;;;;;;;;;;;;;;;;;;;"1262";"2014-10-15 17:38:09.291";"NST_correctLoc";"11";"0";"FINISHED";"LEFT";"success";"352";"0";"2014-10-15 17:38:08.027";"2";;;;;;;;;;;;;;;;;;;;;
"lolarodgers1";;;"Windows 7";"Rachel's Experiment (D.T.)";"1.0";"2";"1";"1";"2";"1";"1";"2014-10-15 17:29:33.569";"2014-10-15 17:44:10.119";"1";"1";"0";"159";"158";"module.training_block4.exec-3582.GoNoGo4";;;;;;;;;;;;;;;;;;;;;;;;;;;;;;;;;;;;;;;;;;;;;;;;;;;;;;;;;;;"1262";"2014-10-15 17:38:11.818";"NST_correctLoc";"17";"1";"FINISHED";"RIGHT";"success";"289";"0";"2014-10-15 17:38:10.554";"2";;;;;;;;;;;;;;;;;;;;;
"lolarodgers1";;;"Windows 7";"Rachel's Experiment (D.T.)";"1.0";"2";"1";"1";"2";"1";"1";"2014-10-15 17:29:33.569";"2014-10-15 17:44:10.119";"1";"1";"0";"160";"159";"module.devaluation_practice.exec-8151.devalPractice";;;;;;;;;;;;"33058";"2014-10-15 17:39:15.263";"0";"7";"4";"7";"2607";"19316";"8091";"2014-10-15 17:38:42.207";;;;;;;;;;;;;;;;;;;;;;;;;;;;;;;;;;;;;;;;;;;;;;;;;;;;;;;;;;;;;;;;;;;;;;
"lolarodgers1";;;"Windows 7";"Rachel's Experiment (D.T.)";"1.0";"2";"1";"1";"2";"1";"1";"2014-10-15 17:29:33.569";"2014-10-15 17:44:10.119";"1";"1";"0";"161";"160";"module.devaluation_practice.exec-8151.devalPractice";;;;;;;;;;;;"12428";"2014-10-15 17:39:27.712";"1";"5";"5";"6";"2792";"2787";"3815";"2014-10-15 17:39:15.294";;;;;;;;;;;;;;;;;;;;;;;;;;;;;;;;;;;;;;;;;;;;;;;;;;;;;;;;;;;;;;;;;;;;;;
"lolarodgers1";;;"Windows 7";"Rachel's Experiment (D.T.)";"1.0";"2";"1";"1";"2";"1";"1";"2014-10-15 17:29:33.569";"2014-10-15 17:44:10.119";"1";"1";"0";"162";"161";"module.devaluation_practice.exec-8151.devalPractice";;;;;;;;;;;;"11028";"2014-10-15 17:39:38.772";"2";"4";"3";"6";"3374";"2415";"2206";"2014-10-15 17:39:27.743";;;;;;;;;;;;;;;;;;;;;;;;;;;;;;;;;;;;;;;;;;;;;;;;;;;;;;;;;;;;;;;;;;;;;;
"lolarodgers1";;;"Windows 7";"Rachel's Experiment (D.T.)";"1.0";"2";"1";"1";"2";"1";"1";"2014-10-15 17:29:33.569";"2014-10-15 17:44:10.119";"1";"1";"0";"163";"162";"module.devaluation_practice.exec-8151.devalPractice";;;;;;;;;;;;"11221";"2014-10-15 17:39:50.004";"3";"5";"3";"7";"1725";"1596";"4865";"2014-10-15 17:39:38.788";;;;;;;;;;;;;;;;;;;;;;;;;;;;;;;;;;;;;;;;;;;;;;;;;;;;;;;;;;;;;;;;;;;;;;
"lolarodgers1";;;"Windows 7";"Rachel's Experiment (D.T.)";"1.0";"2";"1";"1";"2";"1";"1";"2014-10-15 17:29:33.569";"2014-10-15 17:44:10.119";"1";"1";"0";"164";"163";"module.devaluation_block1.exec-5509.deval1";"13176";"2014-10-15 17:40:10.316";"10";"8";"5";"8";"2806";"3055";"4276";"2014-10-15 17:39:57.134";"2";;;;;;;;;;;;;;;;;;;;;;;;;;;;;;;;;;;;;;;;;;;;;;;;;;;;;;;;;;;;;;;;;;;;;;;;;;;;;;;;
"lolarodgers1";;;"Windows 7";"Rachel's Experiment (D.T.)";"1.0";"2";"1";"1";"2";"1";"1";"2014-10-15 17:29:33.569";"2014-10-15 17:44:10.119";"1";"1";"0";"165";"164";"module.devaluation_block1.exec-5509.deval1";"9052";"2014-10-15 17:40:19.395";"14";"6";"5";"7";"3626";"911";"1484";"2014-10-15 17:40:10.347";"2";;;;;;;;;;;;;;;;;;;;;;;;;;;;;;;;;;;;;;;;;;;;;;;;;;;;;;;;;;;;;;;;;;;;;;;;;;;;;;;;
"lolarodgers1";;;"Windows 7";"Rachel's Experiment (D.T.)";"1.0";"2";"1";"1";"2";"1";"1";"2014-10-15 17:29:33.569";"2014-10-15 17:44:10.119";"1";"1";"0";"166";"165";"module.devaluation_block1.exec-5509.deval1";"10101";"2014-10-15 17:40:29.519";"16";"6";"5";"8";"3962";"1094";"2021";"2014-10-15 17:40:19.410";"2";;;;;;;;;;;;;;;;;;;;;;;;;;;;;;;;;;;;;;;;;;;;;;;;;;;;;;;;;;;;;;;;;;;;;;;;;;;;;;;;
"lolarodgers1";;;"Windows 7";"Rachel's Experiment (D.T.)";"1.0";"2";"1";"1";"2";"1";"1";"2014-10-15 17:29:33.569";"2014-10-15 17:44:10.119";"1";"1";"0";"167";"166";"module.devaluation_block1.exec-5509.deval1";"9291";"2014-10-15 17:40:38.833";"17";"5";"5";"6";"3358";"563";"2337";"2014-10-15 17:40:29.535";"2";;;;;;;;;;;;;;;;;;;;;;;;;;;;;;;;;;;;;;;;;;;;;;;;;;;;;;;;;;;;;;;;;;;;;;;;;;;;;;;;
"lolarodgers1";;;"Windows 7";"Rachel's Experiment (D.T.)";"1.0";"2";"1";"1";"2";"1";"1";"2014-10-15 17:29:33.569";"2014-10-15 17:44:10.119";"1";"1";"0";"168";"167";"module.devaluation_block1.exec-5509.deval1";"12708";"2014-10-15 17:40:51.562";"15";"5";"5";"7";"3541";"1980";"4157";"2014-10-15 17:40:38.848";"2";;;;;;;;;;;;;;;;;;;;;;;;;;;;;;;;;;;;;;;;;;;;;;;;;;;;;;;;;;;;;;;;;;;;;;;;;;;;;;;;
"lolarodgers1";;;"Windows 7";"Rachel's Experiment (D.T.)";"1.0";"2";"1";"1";"2";"1";"1";"2014-10-15 17:29:33.569";"2014-10-15 17:44:10.119";"1";"1";"0";"169";"168";"module.devaluation_block1.exec-5509.deval1";"9644";"2014-10-15 17:41:01.234";"9";"4";"5";"8";"3371";"1458";"1775";"2014-10-15 17:40:51.593";"2";;;;;;;;;;;;;;;;;;;;;;;;;;;;;;;;;;;;;;;;;;;;;;;;;;;;;;;;;;;;;;;;;;;;;;;;;;;;;;;;
"lolarodgers1";;;"Windows 7";"Rachel's Experiment (D.T.)";"1.0";"2";"1";"1";"2";"1";"1";"2014-10-15 17:29:33.569";"2014-10-15 17:44:10.119";"1";"1";"0";"170";"169";"module.devaluation_block1.exec-5509.deval1";"12692";"2014-10-15 17:41:13.948";"24";"4";"4";"8";"5419";"1964";"2283";"2014-10-15 17:41:01.250";"3";;;;;;;;;;;;;;;;;;;;;;;;;;;;;;;;;;;;;;;;;;;;;;;;;;;;;;;;;;;;;;;;;;;;;;;;;;;;;;;;
"lolarodgers1";;;"Windows 7";"Rachel's Experiment (D.T.)";"1.0";"2";"1";"1";"2";"1";"1";"2014-10-15 17:29:33.569";"2014-10-15 17:44:10.119";"1";"1";"0";"171";"170";"module.devaluation_block1.exec-5509.deval1";"7285";"2014-10-15 17:41:21.249";"25";"4";"4";"4";"1594";"1303";"1361";"2014-10-15 17:41:13.964";"3";;;;;;;;;;;;;;;;;;;;;;;;;;;;;;;;;;;;;;;;;;;;;;;;;;;;;;;;;;;;;;;;;;;;;;;;;;;;;;;;
"lolarodgers1";;;"Windows 7";"Rachel's Experiment (D.T.)";"1.0";"2";"1";"1";"2";"1";"1";"2014-10-15 17:29:33.569";"2014-10-15 17:44:10.119";"1";"1";"0";"172";"171";"module.devaluation_block1.exec-5509.deval1";"10382";"2014-10-15 17:41:31.654";"1";"5";"4";"7";"2164";"1781";"3424";"2014-10-15 17:41:21.265";"1";;;;;;;;;;;;;;;;;;;;;;;;;;;;;;;;;;;;;;;;;;;;;;;;;;;;;;;;;;;;;;;;;;;;;;;;;;;;;;;;
"lolarodgers1";;;"Windows 7";"Rachel's Experiment (D.T.)";"1.0";"2";"1";"1";"2";"1";"1";"2014-10-15 17:29:33.569";"2014-10-15 17:44:10.119";"1";"1";"0";"173";"172";"module.devaluation_block1.exec-5509.deval1";"11204";"2014-10-15 17:41:42.871";"7";"5";"5";"5";"4375";"946";"2860";"2014-10-15 17:41:31.670";"1";;;;;;;;;;;;;;;;;;;;;;;;;;;;;;;;;;;;;;;;;;;;;;;;;;;;;;;;;;;;;;;;;;;;;;;;;;;;;;;;
"lolarodgers1";;;"Windows 7";"Rachel's Experiment (D.T.)";"1.0";"2";"1";"1";"2";"1";"1";"2014-10-15 17:29:33.569";"2014-10-15 17:44:10.119";"1";"1";"0";"174";"173";"module.devaluation_block1.exec-5509.deval1";"4660";"2014-10-15 17:41:47.566";"6";"5";"5";"5";"879";"346";"410";"2014-10-15 17:41:42.902";"1";;;;;;;;;;;;;;;;;;;;;;;;;;;;;;;;;;;;;;;;;;;;;;;;;;;;;;;;;;;;;;;;;;;;;;;;;;;;;;;;
"lolarodgers1";;;"Windows 7";"Rachel's Experiment (D.T.)";"1.0";"2";"1";"1";"2";"1";"1";"2014-10-15 17:29:33.569";"2014-10-15 17:44:10.119";"1";"1";"0";"175";"174";"module.devaluation_block1.exec-5509.deval1";"9309";"2014-10-15 17:41:56.895";"22";"6";"4";"8";"2518";"1921";"1844";"2014-10-15 17:41:47.582";"3";;;;;;;;;;;;;;;;;;;;;;;;;;;;;;;;;;;;;;;;;;;;;;;;;;;;;;;;;;;;;;;;;;;;;;;;;;;;;;;;
"lolarodgers1";;;"Windows 7";"Rachel's Experiment (D.T.)";"1.0";"2";"1";"1";"2";"1";"1";"2014-10-15 17:29:33.569";"2014-10-15 17:44:10.119";"1";"1";"0";"176";"175";"module.devaluation_block1.exec-5509.deval1";"11304";"2014-10-15 17:42:08.221";"3";"6";"5";"8";"2342";"2352";"3575";"2014-10-15 17:41:56.926";"1";;;;;;;;;;;;;;;;;;;;;;;;;;;;;;;;;;;;;;;;;;;;;;;;;;;;;;;;;;;;;;;;;;;;;;;;;;;;;;;;
"lolarodgers1";;;"Windows 7";"Rachel's Experiment (D.T.)";"1.0";"2";"1";"1";"2";"1";"1";"2014-10-15 17:29:33.569";"2014-10-15 17:44:10.119";"1";"1";"0";"177";"176";"module.devaluation_block1.exec-5509.deval1";"10004";"2014-10-15 17:42:18.252";"13";"7";"5";"8";"3728";"1955";"1277";"2014-10-15 17:42:08.252";"2";;;;;;;;;;;;;;;;;;;;;;;;;;;;;;;;;;;;;;;;;;;;;;;;;;;;;;;;;;;;;;;;;;;;;;;;;;;;;;;;
"lolarodgers1";;;"Windows 7";"Rachel's Experiment (D.T.)";"1.0";"2";"1";"1";"2";"1";"1";"2014-10-15 17:29:33.569";"2014-10-15 17:44:10.119";"1";"1";"0";"178";"177";"module.devaluation_block1.exec-5509.deval1";"7861";"2014-10-15 17:42:26.130";"18";"5";"4";"8";"1649";"1739";"1456";"2014-10-15 17:42:18.267";"3";;;;;;;;;;;;;;;;;;;;;;;;;;;;;;;;;;;;;;;;;;;;;;;;;;;;;;;;;;;;;;;;;;;;;;;;;;;;;;;;
"lolarodgers1";;;"Windows 7";"Rachel's Experiment (D.T.)";"1.0";"2";"1";"1";"2";"1";"1";"2014-10-15 17:29:33.569";"2014-10-15 17:44:10.119";"1";"1";"0";"179";"178";"module.devaluation_block1.exec-5509.deval1";"8292";"2014-10-15 17:42:34.444";"26";"8";"4";"7";"2259";"769";"2234";"2014-10-15 17:42:26.145";"3";;;;;;;;;;;;;;;;;;;;;;;;;;;;;;;;;;;;;;;;;;;;;;;;;;;;;;;;;;;;;;;;;;;;;;;;;;;;;;;;
"lolarodgers1";;;"Windows 7";"Rachel's Experiment (D.T.)";"1.0";"2";"1";"1";"2";"1";"1";"2014-10-15 17:29:33.569";"2014-10-15 17:44:10.119";"1";"1";"0";"180";"179";"module.devaluation_block1.exec-5509.deval1";"8997";"2014-10-15 17:42:43.461";"0";"6";"5";"8";"2168";"1766";"2029";"2014-10-15 17:42:34.460";"1";;;;;;;;;;;;;;;;;;;;;;;;;;;;;;;;;;;;;;;;;;;;;;;;;;;;;;;;;;;;;;;;;;;;;;;;;;;;;;;;
"lolarodgers1";;;"Windows 7";"Rachel's Experiment (D.T.)";"1.0";"2";"1";"1";"2";"1";"1";"2014-10-15 17:29:33.569";"2014-10-15 17:44:10.119";"1";"1";"0";"181";"180";"module.devaluation_block1.exec-5509.deval1";"7243";"2014-10-15 17:42:50.731";"4";"8";"4";"8";"1336";"700";"2183";"2014-10-15 17:42:43.477";"1";;;;;;;;;;;;;;;;;;;;;;;;;;;;;;;;;;;;;;;;;;;;;;;;;;;;;;;;;;;;;;;;;;;;;;;;;;;;;;;;
"lolarodgers1";;;"Windows 7";"Rachel's Experiment (D.T.)";"1.0";"2";"1";"1";"2";"1";"1";"2014-10-15 17:29:33.569";"2014-10-15 17:44:10.119";"1";"1";"0";"182";"181";"module.devaluation_block1.exec-5509.deval1";"9467";"2014-10-15 17:43:00.231";"11";"7";"5";"7";"2554";"2529";"1361";"2014-10-15 17:42:50.762";"2";;;;;;;;;;;;;;;;;;;;;;;;;;;;;;;;;;;;;;;;;;;;;;;;;;;;;;;;;;;;;;;;;;;;;;;;;;;;;;;;
"lolarodgers1";;;"Windows 7";"Rachel's Experiment (D.T.)";"1.0";"2";"1";"1";"2";"1";"1";"2014-10-15 17:29:33.569";"2014-10-15 17:44:10.119";"1";"1";"0";"183";"182";"module.devaluation_block1.exec-5509.deval1";"10709";"2014-10-15 17:43:10.948";"5";"8";"5";"8";"4733";"1089";"1860";"2014-10-15 17:43:00.247";"1";;;;;;;;;;;;;;;;;;;;;;;;;;;;;;;;;;;;;;;;;;;;;;;;;;;;;;;;;;;;;;;;;;;;;;;;;;;;;;;;
"lolarodgers1";;;"Windows 7";"Rachel's Experiment (D.T.)";"1.0";"2";"1";"1";"2";"1";"1";"2014-10-15 17:29:33.569";"2014-10-15 17:44:10.119";"1";"1";"0";"184";"183";"module.devaluation_block1.exec-5509.deval1";"10593";"2014-10-15 17:43:21.588";"2";"6";"5";"7";"4049";"2111";"1414";"2014-10-15 17:43:10.995";"1";;;;;;;;;;;;;;;;;;;;;;;;;;;;;;;;;;;;;;;;;;;;;;;;;;;;;;;;;;;;;;;;;;;;;;;;;;;;;;;;
"lolarodgers1";;;"Windows 7";"Rachel's Experiment (D.T.)";"1.0";"2";"1";"1";"2";"1";"1";"2014-10-15 17:29:33.569";"2014-10-15 17:44:10.119";"1";"1";"0";"185";"184";"module.devaluation_block1.exec-5509.deval1";"6996";"2014-10-15 17:43:28.608";"19";"8";"3";"8";"1553";"1358";"1062";"2014-10-15 17:43:21.603";"3";;;;;;;;;;;;;;;;;;;;;;;;;;;;;;;;;;;;;;;;;;;;;;;;;;;;;;;;;;;;;;;;;;;;;;;;;;;;;;;;
"lolarodgers1";;;"Windows 7";"Rachel's Experiment (D.T.)";"1.0";"2";"1";"1";"2";"1";"1";"2014-10-15 17:29:33.569";"2014-10-15 17:44:10.119";"1";"1";"0";"186";"185";"module.devaluation_block1.exec-5509.deval1";"6093";"2014-10-15 17:43:34.723";"21";"6";"4";"8";"989";"731";"1339";"2014-10-15 17:43:28.623";"3";;;;;;;;;;;;;;;;;;;;;;;;;;;;;;;;;;;;;;;;;;;;;;;;;;;;;;;;;;;;;;;;;;;;;;;;;;;;;;;;
"lolarodgers1";;;"Windows 7";"Rachel's Experiment (D.T.)";"1.0";"2";"1";"1";"2";"1";"1";"2014-10-15 17:29:33.569";"2014-10-15 17:44:10.119";"1";"1";"0";"187";"186";"module.devaluation_block1.exec-5509.deval1";"7429";"2014-10-15 17:43:42.164";"12";"8";"5";"8";"1121";"1315";"1955";"2014-10-15 17:43:34.738";"2";;;;;;;;;;;;;;;;;;;;;;;;;;;;;;;;;;;;;;;;;;;;;;;;;;;;;;;;;;;;;;;;;;;;;;;;;;;;;;;;
"lolarodgers1";;;"Windows 7";"Rachel's Experiment (D.T.)";"1.0";"2";"1";"1";"2";"1";"1";"2014-10-15 17:29:33.569";"2014-10-15 17:44:10.119";"1";"1";"0";"188";"187";"module.devaluation_block1.exec-5509.deval1";"8541";"2014-10-15 17:43:50.728";"8";"4";"4";"4";"1536";"1045";"2932";"2014-10-15 17:43:42.180";"1";;;;;;;;;;;;;;;;;;;;;;;;;;;;;;;;;;;;;;;;;;;;;;;;;;;;;;;;;;;;;;;;;;;;;;;;;;;;;;;;
"lolarodgers1";;;"Windows 7";"Rachel's Experiment (D.T.)";"1.0";"2";"1";"1";"2";"1";"1";"2014-10-15 17:29:33.569";"2014-10-15 17:44:10.119";"1";"1";"0";"189";"188";"module.devaluation_block1.exec-5509.deval1";"8637";"2014-10-15 17:43:59.402";"20";"4";"3";"8";"1828";"1777";"2000";"2014-10-15 17:43:50.760";"3";;;;;;;;;;;;;;;;;;;;;;;;;;;;;;;;;;;;;;;;;;;;;;;;;;;;;;;;;;;;;;;;;;;;;;;;;;;;;;;;
"lolarodgers1";;;"Windows 7";"Rachel's Experiment (D.T.)";"1.0";"2";"1";"1";"2";"1";"1";"2014-10-15 17:29:33.569";"2014-10-15 17:44:10.119";"1";"1";"0";"190";"189";"module.devaluation_block1.exec-5509.deval1";"8371";"2014-10-15 17:44:07.795";"23";"8";"3";"6";"1834";"1308";"2206";"2014-10-15 17:43:59.418";"3";;;;;;;;;;;;;;;;;;;;;;;;;;;;;;;;;;;;;;;;;;;;;;;;;;;;;;;;;;;;;;;;;;;;;;;;;;;;;;;;
