"user.name";"user.yearOfBirth";"user.sex";"user.osName";"module.name";"module.version";"module.online.subject.code";"module.online.study.id";"module.online.module.nr";"module.online.group.nr";"session.id";"session.index";"session.startTime";"session.endTime";"session.completed";"session.node-1355.conditionType";"session.node-9693.DevalQorder";"trial.id";"trial.index";"trial.name";"trial.deval1.durationTime";"trial.deval1.endTime";"trial.deval1.icon";"trial.deval1.Resp_Attractive";"trial.deval1.Resp_Eat";"trial.deval1.Resp_Taste";"trial.deval1.RT_Attractive";"trial.deval1.RT_Eat";"trial.deval1.RT_Taste";"trial.deval1.startTime";"trial.deval1.stimulus type";"trial.devalPractice.durationTime";"trial.devalPractice.endTime";"trial.devalPractice.icon";"trial.devalPractice.Resp_Attractive";"trial.devalPractice.Resp_Eat";"trial.devalPractice.Resp_Taste";"trial.devalPractice.RT_Attractive";"trial.devalPractice.RT_Eat";"trial.devalPractice.RT_Taste";"trial.devalPractice.startTime";"trial.devalPractice.stimulus type";"trial.GoNoGo1.durationTime";"trial.GoNoGo1.endTime";"trial.GoNoGo1.Error Type";"trial.GoNoGo1.icon";"trial.GoNoGo1.location";"trial.GoNoGo1.outcome";"trial.GoNoGo1.response";"trial.GoNoGo1.result";"trial.GoNoGo1.RT";"trial.GoNoGo1.signal";"trial.GoNoGo1.startTime";"trial.GoNoGo1.stimulus type";"trial.GoNoGo2.durationTime";"trial.GoNoGo2.endTime";"trial.GoNoGo2.Error Type";"trial.GoNoGo2.icon";"trial.GoNoGo2.location";"trial.GoNoGo2.outcome";"trial.GoNoGo2.response";"trial.GoNoGo2.result";"trial.GoNoGo2.RT";"trial.GoNoGo2.signal";"trial.GoNoGo2.startTime";"trial.GoNoGo2.stimulus type";"trial.GoNoGo3.durationTime";"trial.GoNoGo3.endTime";"trial.GoNoGo3.Error Type";"trial.GoNoGo3.icon";"trial.GoNoGo3.location";"trial.GoNoGo3.outcome";"trial.GoNoGo3.response";"trial.GoNoGo3.result";"trial.GoNoGo3.RT";"trial.GoNoGo3.signal";"trial.GoNoGo3.startTime";"trial.GoNoGo3.stimulus type";"trial.GoNoGo4.durationTime";"trial.GoNoGo4.endTime";"trial.GoNoGo4.Error Type";"trial.GoNoGo4.icon";"trial.GoNoGo4.location";"trial.GoNoGo4.outcome";"trial.GoNoGo4.response";"trial.GoNoGo4.result";"trial.GoNoGo4.RT";"trial.GoNoGo4.signal";"trial.GoNoGo4.startTime";"trial.GoNoGo4.stimulus type";"trial.GoNoGo_Practice.durationTime";"trial.GoNoGo_Practice.endTime";"trial.GoNoGo_Practice.icon";"trial.GoNoGo_Practice.location";"trial.GoNoGo_Practice.outcome";"trial.GoNoGo_Practice.response";"trial.GoNoGo_Practice.result";"trial.GoNoGo_Practice.RT";"trial.GoNoGo_Practice.signal";"trial.GoNoGo_Practice.startTime";"trial.GoNoGo_Practice.stimulus type";"trial.GoNoGo_Tutorial.durationTime";"trial.GoNoGo_Tutorial.endTime";"trial.GoNoGo_Tutorial.icon";"trial.GoNoGo_Tutorial.location";"trial.GoNoGo_Tutorial.outcome";"trial.GoNoGo_Tutorial.response";"trial.GoNoGo_Tutorial.result";"trial.GoNoGo_Tutorial.RT";"trial.GoNoGo_Tutorial.signal";"trial.GoNoGo_Tutorial.startTime"
"aaa";"26/01/95";;"Windows 7";"Rachel's Experiment (D.T.)";"1.0";"2";"1";"1";"2";"1";"1";"2014-10-03 12:02:38.320";"2014-10-03 12:16:12.078";"1";"1";"1";"1";"0";"module.GoNoGotutorial.exec-2057.GoNoGo_Tutorial";;;;;;;;;;;;;;;;;;;;;;;;;;;;;;;;;;;;;;;;;;;;;;;;;;;;;;;;;;;;;;;;;;;;;;;;;;;;;;;;;;"3997";"2014-10-03 12:03:19.078";"leftResponse";"0";"FINISHED";"LEFT";"success";"1132";"0";"2014-10-03 12:03:15.078"
"aaa";"26/01/95";;"Windows 7";"Rachel's Experiment (D.T.)";"1.0";"2";"1";"1";"2";"1";"1";"2014-10-03 12:02:38.320";"2014-10-03 12:16:12.078";"1";"1";"1";"2";"1";"module.GoNoGotutorial.exec-2057.GoNoGo_Tutorial";;;;;;;;;;;;;;;;;;;;;;;;;;;;;;;;;;;;;;;;;;;;;;;;;;;;;;;;;;;;;;;;;;;;;;;;;;;;;;;;;;"3994";"2014-10-03 12:03:24.359";"rightResponse";"1";"FINISHED";"RIGHT";"success";"632";"0";"2014-10-03 12:03:20.359"
"aaa";"26/01/95";;"Windows 7";"Rachel's Experiment (D.T.)";"1.0";"2";"1";"1";"2";"1";"1";"2014-10-03 12:02:38.320";"2014-10-03 12:16:12.078";"1";"1";"1";"3";"2";"module.GoNoGotutorial.exec-2057.GoNoGo_Tutorial";;;;;;;;;;;;;;;;;;;;;;;;;;;;;;;;;;;;;;;;;;;;;;;;;;;;;;;;;;;;;;;;;;;;;;;;;;;;;;;;;;"3994";"2014-10-03 12:03:29.632";"signalResponse";"0";"FINISHED";"NONE";"success";"0";"1";"2014-10-03 12:03:25.632"
"aaa";"26/01/95";;"Windows 7";"Rachel's Experiment (D.T.)";"1.0";"2";"1";"1";"2";"1";"1";"2014-10-03 12:02:38.320";"2014-10-03 12:16:12.078";"1";"1";"1";"4";"3";"module.GoNoGopractice.exec-2242.GoNoGo_Practice";;;;;;;;;;;;;;;;;;;;;;;;;;;;;;;;;;;;;;;;;;;;;;;;;;;;;;;;;;;;;;;;;;;;;;;"1947";"2014-10-03 12:03:37.062";"18";"0";"FINISHED";"LEFT";"success";"754";"0";"2014-10-03 12:03:35.109";"3";;;;;;;;;;
"aaa";"26/01/95";;"Windows 7";"Rachel's Experiment (D.T.)";"1.0";"2";"1";"1";"2";"1";"1";"2014-10-03 12:02:38.320";"2014-10-03 12:16:12.078";"1";"1";"1";"5";"4";"module.GoNoGopractice.exec-2242.GoNoGo_Practice";;;;;;;;;;;;;;;;;;;;;;;;;;;;;;;;;;;;;;;;;;;;;;;;;;;;;;;;;;;;;;;;;;;;;;;"1949";"2014-10-03 12:03:40.296";"21";"1";"FINISHED";"RIGHT";"success";"289";"0";"2014-10-03 12:03:38.343";"3";;;;;;;;;;
"aaa";"26/01/95";;"Windows 7";"Rachel's Experiment (D.T.)";"1.0";"2";"1";"1";"2";"1";"1";"2014-10-03 12:02:38.320";"2014-10-03 12:16:12.078";"1";"1";"1";"6";"5";"module.GoNoGopractice.exec-2242.GoNoGo_Practice";;;;;;;;;;;;;;;;;;;;;;;;;;;;;;;;;;;;;;;;;;;;;;;;;;;;;;;;;;;;;;;;;;;;;;;"1947";"2014-10-03 12:03:43.523";"14";"1";"FINISHED";"NONE";"success";"0";"1";"2014-10-03 12:03:41.570";"2";;;;;;;;;;
"aaa";"26/01/95";;"Windows 7";"Rachel's Experiment (D.T.)";"1.0";"2";"1";"1";"2";"1";"1";"2014-10-03 12:02:38.320";"2014-10-03 12:16:12.078";"1";"1";"1";"7";"6";"module.GoNoGopractice.exec-2242.GoNoGo_Practice";;;;;;;;;;;;;;;;;;;;;;;;;;;;;;;;;;;;;;;;;;;;;;;;;;;;;;;;;;;;;;;;;;;;;;;"1947";"2014-10-03 12:03:46.750";"26";"0";"FINISHED";"LEFT";"success";"315";"0";"2014-10-03 12:03:44.796";"3";;;;;;;;;;
"aaa";"26/01/95";;"Windows 7";"Rachel's Experiment (D.T.)";"1.0";"2";"1";"1";"2";"1";"1";"2014-10-03 12:02:38.320";"2014-10-03 12:16:12.078";"1";"1";"1";"8";"7";"module.GoNoGopractice.exec-2242.GoNoGo_Practice";;;;;;;;;;;;;;;;;;;;;;;;;;;;;;;;;;;;;;;;;;;;;;;;;;;;;;;;;;;;;;;;;;;;;;;"1948";"2014-10-03 12:03:49.976";"2";"0";"FINISHED";"LEFT";"success";"416";"0";"2014-10-03 12:03:48.023";"1";;;;;;;;;;
"aaa";"26/01/95";;"Windows 7";"Rachel's Experiment (D.T.)";"1.0";"2";"1";"1";"2";"1";"1";"2014-10-03 12:02:38.320";"2014-10-03 12:16:12.078";"1";"1";"1";"9";"8";"module.GoNoGopractice.exec-2242.GoNoGo_Practice";;;;;;;;;;;;;;;;;;;;;;;;;;;;;;;;;;;;;;;;;;;;;;;;;;;;;;;;;;;;;;;;;;;;;;;"1948";"2014-10-03 12:03:53.203";"30";"0";"FINISHED";"NONE";"success";"0";"1";"2014-10-03 12:03:51.250";"3";;;;;;;;;;
"aaa";"26/01/95";;"Windows 7";"Rachel's Experiment (D.T.)";"1.0";"2";"1";"1";"2";"1";"1";"2014-10-03 12:02:38.320";"2014-10-03 12:16:12.078";"1";"1";"1";"10";"9";"module.GoNoGopractice.exec-2242.GoNoGo_Practice";;;;;;;;;;;;;;;;;;;;;;;;;;;;;;;;;;;;;;;;;;;;;;;;;;;;;;;;;;;;;;;;;;;;;;;"1947";"2014-10-03 12:03:56.429";"6";"1";"FINISHED";"NONE";"success";"0";"1";"2014-10-03 12:03:54.476";"1";;;;;;;;;;
"aaa";"26/01/95";;"Windows 7";"Rachel's Experiment (D.T.)";"1.0";"2";"1";"1";"2";"1";"1";"2014-10-03 12:02:38.320";"2014-10-03 12:16:12.078";"1";"1";"1";"11";"10";"module.GoNoGopractice.exec-2242.GoNoGo_Practice";;;;;;;;;;;;;;;;;;;;;;;;;;;;;;;;;;;;;;;;;;;;;;;;;;;;;;;;;;;;;;;;;;;;;;;"1948";"2014-10-03 12:03:59.656";"34";"0";"FINISHED";"LEFT";"success";"913";"0";"2014-10-03 12:03:57.703";"3";;;;;;;;;;
"aaa";"26/01/95";;"Windows 7";"Rachel's Experiment (D.T.)";"1.0";"2";"1";"1";"2";"1";"1";"2014-10-03 12:02:38.320";"2014-10-03 12:16:12.078";"1";"1";"1";"12";"11";"module.GoNoGopractice.exec-2242.GoNoGo_Practice";;;;;;;;;;;;;;;;;;;;;;;;;;;;;;;;;;;;;;;;;;;;;;;;;;;;;;;;;;;;;;;;;;;;;;;"1948";"2014-10-03 12:04:02.882";"23";"1";"FINISHED";"RIGHT";"success";"470";"0";"2014-10-03 12:04:00.929";"3";;;;;;;;;;
"aaa";"26/01/95";;"Windows 7";"Rachel's Experiment (D.T.)";"1.0";"2";"1";"1";"2";"1";"1";"2014-10-03 12:02:38.320";"2014-10-03 12:16:12.078";"1";"1";"1";"13";"12";"module.GoNoGopractice.exec-2242.GoNoGo_Practice";;;;;;;;;;;;;;;;;;;;;;;;;;;;;;;;;;;;;;;;;;;;;;;;;;;;;;;;;;;;;;;;;;;;;;;"1947";"2014-10-03 12:04:06.101";"13";"0";"FINISHED";"NONE";"success";"0";"1";"2014-10-03 12:04:04.148";"2";;;;;;;;;;
"aaa";"26/01/95";;"Windows 7";"Rachel's Experiment (D.T.)";"1.0";"2";"1";"1";"2";"1";"1";"2014-10-03 12:02:38.320";"2014-10-03 12:16:12.078";"1";"1";"1";"14";"13";"module.GoNoGopractice.exec-2242.GoNoGo_Practice";;;;;;;;;;;;;;;;;;;;;;;;;;;;;;;;;;;;;;;;;;;;;;;;;;;;;;;;;;;;;;;;;;;;;;;"1948";"2014-10-03 12:04:09.320";"3";"1";"FINISHED";"RIGHT";"success";"449";"0";"2014-10-03 12:04:07.367";"1";;;;;;;;;;
"aaa";"26/01/95";;"Windows 7";"Rachel's Experiment (D.T.)";"1.0";"2";"1";"1";"2";"1";"1";"2014-10-03 12:02:38.320";"2014-10-03 12:16:12.078";"1";"1";"1";"15";"14";"module.GoNoGopractice.exec-2242.GoNoGo_Practice";;;;;;;;;;;;;;;;;;;;;;;;;;;;;;;;;;;;;;;;;;;;;;;;;;;;;;;;;;;;;;;;;;;;;;;"1946";"2014-10-03 12:04:12.664";"27";"1";"FINISHED";"RIGHT";"failure";"527";"1";"2014-10-03 12:04:10.710";"3";;;;;;;;;;
"aaa";"26/01/95";;"Windows 7";"Rachel's Experiment (D.T.)";"1.0";"2";"1";"1";"2";"1";"1";"2014-10-03 12:02:38.320";"2014-10-03 12:16:12.078";"1";"1";"1";"16";"15";"module.training_block1.exec-4868.GoNoGo1";;;;;;;;;;;;;;;;;;;;;;;"1244";"2014-10-03 12:04:18.976";"ST_correctStop";"35";"1";"FINISHED";"NONE";"success";"0";"1";"2014-10-03 12:04:17.726";"3";;;;;;;;;;;;;;;;;;;;;;;;;;;;;;;;;;;;;;;;;;;;;;;;;;;;;;;;;
"aaa";"26/01/95";;"Windows 7";"Rachel's Experiment (D.T.)";"1.0";"2";"1";"1";"2";"1";"1";"2014-10-03 12:02:38.320";"2014-10-03 12:16:12.078";"1";"1";"1";"17";"16";"module.training_block1.exec-4868.GoNoGo1";;;;;;;;;;;;;;;;;;;;;;;"1244";"2014-10-03 12:04:21.500";"NST_correctLoc";"14";"1";"FINISHED";"RIGHT";"success";"534";"0";"2014-10-03 12:04:20.250";"2";;;;;;;;;;;;;;;;;;;;;;;;;;;;;;;;;;;;;;;;;;;;;;;;;;;;;;;;;
"aaa";"26/01/95";;"Windows 7";"Rachel's Experiment (D.T.)";"1.0";"2";"1";"1";"2";"1";"1";"2014-10-03 12:02:38.320";"2014-10-03 12:16:12.078";"1";"1";"1";"18";"17";"module.training_block1.exec-4868.GoNoGo1";;;;;;;;;;;;;;;;;;;;;;;"1245";"2014-10-03 12:04:24.023";"NST_correctLoc";"20";"0";"FINISHED";"LEFT";"success";"450";"0";"2014-10-03 12:04:22.773";"3";;;;;;;;;;;;;;;;;;;;;;;;;;;;;;;;;;;;;;;;;;;;;;;;;;;;;;;;;
"aaa";"26/01/95";;"Windows 7";"Rachel's Experiment (D.T.)";"1.0";"2";"1";"1";"2";"1";"1";"2014-10-03 12:02:38.320";"2014-10-03 12:16:12.078";"1";"1";"1";"19";"18";"module.training_block1.exec-4868.GoNoGo1";;;;;;;;;;;;;;;;;;;;;;;"1244";"2014-10-03 12:04:26.539";"ST_failedStop";"31";"0";"FINISHED";"LEFT";"failure";"862";"1";"2014-10-03 12:04:25.289";"3";;;;;;;;;;;;;;;;;;;;;;;;;;;;;;;;;;;;;;;;;;;;;;;;;;;;;;;;;
"aaa";"26/01/95";;"Windows 7";"Rachel's Experiment (D.T.)";"1.0";"2";"1";"1";"2";"1";"1";"2014-10-03 12:02:38.320";"2014-10-03 12:16:12.078";"1";"1";"1";"20";"19";"module.training_block1.exec-4868.GoNoGo1";;;;;;;;;;;;;;;;;;;;;;;"1245";"2014-10-03 12:04:29.054";"ST_correctStop";"3";"1";"FINISHED";"NONE";"success";"0";"1";"2014-10-03 12:04:27.804";"1";;;;;;;;;;;;;;;;;;;;;;;;;;;;;;;;;;;;;;;;;;;;;;;;;;;;;;;;;
"aaa";"26/01/95";;"Windows 7";"Rachel's Experiment (D.T.)";"1.0";"2";"1";"1";"2";"1";"1";"2014-10-03 12:02:38.320";"2014-10-03 12:16:12.078";"1";"1";"1";"21";"20";"module.training_block1.exec-4868.GoNoGo1";;;;;;;;;;;;;;;;;;;;;;;"1244";"2014-10-03 12:04:31.570";"ST_correctStop";"6";"0";"FINISHED";"NONE";"success";"0";"1";"2014-10-03 12:04:30.320";"1";;;;;;;;;;;;;;;;;;;;;;;;;;;;;;;;;;;;;;;;;;;;;;;;;;;;;;;;;
"aaa";"26/01/95";;"Windows 7";"Rachel's Experiment (D.T.)";"1.0";"2";"1";"1";"2";"1";"1";"2014-10-03 12:02:38.320";"2014-10-03 12:16:12.078";"1";"1";"1";"22";"21";"module.training_block1.exec-4868.GoNoGo1";;;;;;;;;;;;;;;;;;;;;;;"1245";"2014-10-03 12:04:34.085";"ST_correctStop";"1";"1";"FINISHED";"NONE";"success";"0";"1";"2014-10-03 12:04:32.835";"1";;;;;;;;;;;;;;;;;;;;;;;;;;;;;;;;;;;;;;;;;;;;;;;;;;;;;;;;;
"aaa";"26/01/95";;"Windows 7";"Rachel's Experiment (D.T.)";"1.0";"2";"1";"1";"2";"1";"1";"2014-10-03 12:02:38.320";"2014-10-03 12:16:12.078";"1";"1";"1";"23";"22";"module.training_block1.exec-4868.GoNoGo1";;;;;;;;;;;;;;;;;;;;;;;"1244";"2014-10-03 12:04:36.601";"ST_correctStop";"32";"0";"FINISHED";"NONE";"success";"0";"1";"2014-10-03 12:04:35.351";"3";;;;;;;;;;;;;;;;;;;;;;;;;;;;;;;;;;;;;;;;;;;;;;;;;;;;;;;;;
"aaa";"26/01/95";;"Windows 7";"Rachel's Experiment (D.T.)";"1.0";"2";"1";"1";"2";"1";"1";"2014-10-03 12:02:38.320";"2014-10-03 12:16:12.078";"1";"1";"1";"24";"23";"module.training_block1.exec-4868.GoNoGo1";;;;;;;;;;;;;;;;;;;;;;;"1248";"2014-10-03 12:04:39.117";"ST_correctStop";"27";"1";"FINISHED";"NONE";"success";"0";"1";"2014-10-03 12:04:37.867";"3";;;;;;;;;;;;;;;;;;;;;;;;;;;;;;;;;;;;;;;;;;;;;;;;;;;;;;;;;
"aaa";"26/01/95";;"Windows 7";"Rachel's Experiment (D.T.)";"1.0";"2";"1";"1";"2";"1";"1";"2014-10-03 12:02:38.320";"2014-10-03 12:16:12.078";"1";"1";"1";"25";"24";"module.training_block1.exec-4868.GoNoGo1";;;;;;;;;;;;;;;;;;;;;;;"1245";"2014-10-03 12:04:41.632";"ST_correctStop";"28";"0";"FINISHED";"NONE";"success";"0";"1";"2014-10-03 12:04:40.382";"3";;;;;;;;;;;;;;;;;;;;;;;;;;;;;;;;;;;;;;;;;;;;;;;;;;;;;;;;;
"aaa";"26/01/95";;"Windows 7";"Rachel's Experiment (D.T.)";"1.0";"2";"1";"1";"2";"1";"1";"2014-10-03 12:02:38.320";"2014-10-03 12:16:12.078";"1";"1";"1";"26";"25";"module.training_block1.exec-4868.GoNoGo1";;;;;;;;;;;;;;;;;;;;;;;"1244";"2014-10-03 12:04:44.148";"ST_correctStop";"2";"1";"FINISHED";"NONE";"success";"0";"1";"2014-10-03 12:04:42.898";"1";;;;;;;;;;;;;;;;;;;;;;;;;;;;;;;;;;;;;;;;;;;;;;;;;;;;;;;;;
"aaa";"26/01/95";;"Windows 7";"Rachel's Experiment (D.T.)";"1.0";"2";"1";"1";"2";"1";"1";"2014-10-03 12:02:38.320";"2014-10-03 12:16:12.078";"1";"1";"1";"27";"26";"module.training_block1.exec-4868.GoNoGo1";;;;;;;;;;;;;;;;;;;;;;;"1245";"2014-10-03 12:04:46.664";"ST_correctStop";"30";"1";"FINISHED";"NONE";"success";"0";"1";"2014-10-03 12:04:45.414";"3";;;;;;;;;;;;;;;;;;;;;;;;;;;;;;;;;;;;;;;;;;;;;;;;;;;;;;;;;
"aaa";"26/01/95";;"Windows 7";"Rachel's Experiment (D.T.)";"1.0";"2";"1";"1";"2";"1";"1";"2014-10-03 12:02:38.320";"2014-10-03 12:16:12.078";"1";"1";"1";"28";"27";"module.training_block1.exec-4868.GoNoGo1";;;;;;;;;;;;;;;;;;;;;;;"1244";"2014-10-03 12:04:49.179";"ST_correctStop";"22";"0";"FINISHED";"NONE";"success";"0";"1";"2014-10-03 12:04:47.929";"3";;;;;;;;;;;;;;;;;;;;;;;;;;;;;;;;;;;;;;;;;;;;;;;;;;;;;;;;;
"aaa";"26/01/95";;"Windows 7";"Rachel's Experiment (D.T.)";"1.0";"2";"1";"1";"2";"1";"1";"2014-10-03 12:02:38.320";"2014-10-03 12:16:12.078";"1";"1";"1";"29";"28";"module.training_block1.exec-4868.GoNoGo1";;;;;;;;;;;;;;;;;;;;;;;"1244";"2014-10-03 12:04:51.703";"NST_correctLoc";"17";"1";"FINISHED";"RIGHT";"success";"690";"0";"2014-10-03 12:04:50.453";"2";;;;;;;;;;;;;;;;;;;;;;;;;;;;;;;;;;;;;;;;;;;;;;;;;;;;;;;;;
"aaa";"26/01/95";;"Windows 7";"Rachel's Experiment (D.T.)";"1.0";"2";"1";"1";"2";"1";"1";"2014-10-03 12:02:38.320";"2014-10-03 12:16:12.078";"1";"1";"1";"30";"29";"module.training_block1.exec-4868.GoNoGo1";;;;;;;;;;;;;;;;;;;;;;;"1244";"2014-10-03 12:04:54.218";"NST_correctLoc";"15";"1";"FINISHED";"RIGHT";"success";"590";"0";"2014-10-03 12:04:52.968";"2";;;;;;;;;;;;;;;;;;;;;;;;;;;;;;;;;;;;;;;;;;;;;;;;;;;;;;;;;
"aaa";"26/01/95";;"Windows 7";"Rachel's Experiment (D.T.)";"1.0";"2";"1";"1";"2";"1";"1";"2014-10-03 12:02:38.320";"2014-10-03 12:16:12.078";"1";"1";"1";"31";"30";"module.training_block1.exec-4868.GoNoGo1";;;;;;;;;;;;;;;;;;;;;;;"1245";"2014-10-03 12:04:56.734";"NST_correctLoc";"29";"0";"FINISHED";"LEFT";"success";"755";"0";"2014-10-03 12:04:55.484";"3";;;;;;;;;;;;;;;;;;;;;;;;;;;;;;;;;;;;;;;;;;;;;;;;;;;;;;;;;
"aaa";"26/01/95";;"Windows 7";"Rachel's Experiment (D.T.)";"1.0";"2";"1";"1";"2";"1";"1";"2014-10-03 12:02:38.320";"2014-10-03 12:16:12.078";"1";"1";"1";"32";"31";"module.training_block1.exec-4868.GoNoGo1";;;;;;;;;;;;;;;;;;;;;;;"1245";"2014-10-03 12:04:59.250";"NST_correctLoc";"16";"1";"FINISHED";"RIGHT";"success";"431";"0";"2014-10-03 12:04:58.000";"2";;;;;;;;;;;;;;;;;;;;;;;;;;;;;;;;;;;;;;;;;;;;;;;;;;;;;;;;;
"aaa";"26/01/95";;"Windows 7";"Rachel's Experiment (D.T.)";"1.0";"2";"1";"1";"2";"1";"1";"2014-10-03 12:02:38.320";"2014-10-03 12:16:12.078";"1";"1";"1";"33";"32";"module.training_block1.exec-4868.GoNoGo1";;;;;;;;;;;;;;;;;;;;;;;"1244";"2014-10-03 12:05:01.765";"ST_correctStop";"7";"0";"FINISHED";"NONE";"success";"0";"1";"2014-10-03 12:05:00.515";"1";;;;;;;;;;;;;;;;;;;;;;;;;;;;;;;;;;;;;;;;;;;;;;;;;;;;;;;;;
"aaa";"26/01/95";;"Windows 7";"Rachel's Experiment (D.T.)";"1.0";"2";"1";"1";"2";"1";"1";"2014-10-03 12:02:38.320";"2014-10-03 12:16:12.078";"1";"1";"1";"34";"33";"module.training_block1.exec-4868.GoNoGo1";;;;;;;;;;;;;;;;;;;;;;;"1245";"2014-10-03 12:05:04.281";"NST_correctLoc";"34";"0";"FINISHED";"LEFT";"success";"561";"0";"2014-10-03 12:05:03.031";"3";;;;;;;;;;;;;;;;;;;;;;;;;;;;;;;;;;;;;;;;;;;;;;;;;;;;;;;;;
"aaa";"26/01/95";;"Windows 7";"Rachel's Experiment (D.T.)";"1.0";"2";"1";"1";"2";"1";"1";"2014-10-03 12:02:38.320";"2014-10-03 12:16:12.078";"1";"1";"1";"35";"34";"module.training_block1.exec-4868.GoNoGo1";;;;;;;;;;;;;;;;;;;;;;;"1244";"2014-10-03 12:05:06.796";"NST_correctLoc";"13";"0";"FINISHED";"LEFT";"success";"484";"0";"2014-10-03 12:05:05.546";"2";;;;;;;;;;;;;;;;;;;;;;;;;;;;;;;;;;;;;;;;;;;;;;;;;;;;;;;;;
"aaa";"26/01/95";;"Windows 7";"Rachel's Experiment (D.T.)";"1.0";"2";"1";"1";"2";"1";"1";"2014-10-03 12:02:38.320";"2014-10-03 12:16:12.078";"1";"1";"1";"36";"35";"module.training_block1.exec-4868.GoNoGo1";;;;;;;;;;;;;;;;;;;;;;;"1244";"2014-10-03 12:05:09.312";"NST_correctLoc";"23";"0";"FINISHED";"LEFT";"success";"601";"0";"2014-10-03 12:05:08.062";"3";;;;;;;;;;;;;;;;;;;;;;;;;;;;;;;;;;;;;;;;;;;;;;;;;;;;;;;;;
"aaa";"26/01/95";;"Windows 7";"Rachel's Experiment (D.T.)";"1.0";"2";"1";"1";"2";"1";"1";"2014-10-03 12:02:38.320";"2014-10-03 12:16:12.078";"1";"1";"1";"37";"36";"module.training_block1.exec-4868.GoNoGo1";;;;;;;;;;;;;;;;;;;;;;;"1245";"2014-10-03 12:05:11.828";"ST_correctStop";"33";"1";"FINISHED";"NONE";"success";"0";"1";"2014-10-03 12:05:10.578";"3";;;;;;;;;;;;;;;;;;;;;;;;;;;;;;;;;;;;;;;;;;;;;;;;;;;;;;;;;
"aaa";"26/01/95";;"Windows 7";"Rachel's Experiment (D.T.)";"1.0";"2";"1";"1";"2";"1";"1";"2014-10-03 12:02:38.320";"2014-10-03 12:16:12.078";"1";"1";"1";"38";"37";"module.training_block1.exec-4868.GoNoGo1";;;;;;;;;;;;;;;;;;;;;;;"1244";"2014-10-03 12:05:14.343";"NST_correctLoc";"9";"0";"FINISHED";"LEFT";"success";"505";"0";"2014-10-03 12:05:13.093";"2";;;;;;;;;;;;;;;;;;;;;;;;;;;;;;;;;;;;;;;;;;;;;;;;;;;;;;;;;
"aaa";"26/01/95";;"Windows 7";"Rachel's Experiment (D.T.)";"1.0";"2";"1";"1";"2";"1";"1";"2014-10-03 12:02:38.320";"2014-10-03 12:16:12.078";"1";"1";"1";"39";"38";"module.training_block1.exec-4868.GoNoGo1";;;;;;;;;;;;;;;;;;;;;;;"1244";"2014-10-03 12:05:16.859";"NST_correctLoc";"26";"1";"FINISHED";"RIGHT";"success";"534";"0";"2014-10-03 12:05:15.609";"3";;;;;;;;;;;;;;;;;;;;;;;;;;;;;;;;;;;;;;;;;;;;;;;;;;;;;;;;;
"aaa";"26/01/95";;"Windows 7";"Rachel's Experiment (D.T.)";"1.0";"2";"1";"1";"2";"1";"1";"2014-10-03 12:02:38.320";"2014-10-03 12:16:12.078";"1";"1";"1";"40";"39";"module.training_block1.exec-4868.GoNoGo1";;;;;;;;;;;;;;;;;;;;;;;"1245";"2014-10-03 12:05:19.375";"ST_correctStop";"5";"0";"FINISHED";"NONE";"success";"0";"1";"2014-10-03 12:05:18.125";"1";;;;;;;;;;;;;;;;;;;;;;;;;;;;;;;;;;;;;;;;;;;;;;;;;;;;;;;;;
"aaa";"26/01/95";;"Windows 7";"Rachel's Experiment (D.T.)";"1.0";"2";"1";"1";"2";"1";"1";"2014-10-03 12:02:38.320";"2014-10-03 12:16:12.078";"1";"1";"1";"41";"40";"module.training_block1.exec-4868.GoNoGo1";;;;;;;;;;;;;;;;;;;;;;;"1245";"2014-10-03 12:05:21.890";"NST_correctLoc";"12";"1";"FINISHED";"RIGHT";"success";"551";"0";"2014-10-03 12:05:20.640";"2";;;;;;;;;;;;;;;;;;;;;;;;;;;;;;;;;;;;;;;;;;;;;;;;;;;;;;;;;
"aaa";"26/01/95";;"Windows 7";"Rachel's Experiment (D.T.)";"1.0";"2";"1";"1";"2";"1";"1";"2014-10-03 12:02:38.320";"2014-10-03 12:16:12.078";"1";"1";"1";"42";"41";"module.training_block1.exec-4868.GoNoGo1";;;;;;;;;;;;;;;;;;;;;;;"1244";"2014-10-03 12:05:24.406";"ST_correctStop";"4";"1";"FINISHED";"NONE";"success";"0";"1";"2014-10-03 12:05:23.156";"1";;;;;;;;;;;;;;;;;;;;;;;;;;;;;;;;;;;;;;;;;;;;;;;;;;;;;;;;;
"aaa";"26/01/95";;"Windows 7";"Rachel's Experiment (D.T.)";"1.0";"2";"1";"1";"2";"1";"1";"2014-10-03 12:02:38.320";"2014-10-03 12:16:12.078";"1";"1";"1";"43";"42";"module.training_block1.exec-4868.GoNoGo1";;;;;;;;;;;;;;;;;;;;;;;"1245";"2014-10-03 12:05:26.921";"NST_correctLoc";"18";"1";"FINISHED";"RIGHT";"success";"504";"0";"2014-10-03 12:05:25.671";"3";;;;;;;;;;;;;;;;;;;;;;;;;;;;;;;;;;;;;;;;;;;;;;;;;;;;;;;;;
"aaa";"26/01/95";;"Windows 7";"Rachel's Experiment (D.T.)";"1.0";"2";"1";"1";"2";"1";"1";"2014-10-03 12:02:38.320";"2014-10-03 12:16:12.078";"1";"1";"1";"44";"43";"module.training_block1.exec-4868.GoNoGo1";;;;;;;;;;;;;;;;;;;;;;;"1245";"2014-10-03 12:05:29.445";"NST_correctLoc";"10";"1";"FINISHED";"RIGHT";"success";"476";"0";"2014-10-03 12:05:28.195";"2";;;;;;;;;;;;;;;;;;;;;;;;;;;;;;;;;;;;;;;;;;;;;;;;;;;;;;;;;
"aaa";"26/01/95";;"Windows 7";"Rachel's Experiment (D.T.)";"1.0";"2";"1";"1";"2";"1";"1";"2014-10-03 12:02:38.320";"2014-10-03 12:16:12.078";"1";"1";"1";"45";"44";"module.training_block1.exec-4868.GoNoGo1";;;;;;;;;;;;;;;;;;;;;;;"1244";"2014-10-03 12:05:31.960";"NST_correctLoc";"21";"0";"FINISHED";"LEFT";"success";"496";"0";"2014-10-03 12:05:30.710";"3";;;;;;;;;;;;;;;;;;;;;;;;;;;;;;;;;;;;;;;;;;;;;;;;;;;;;;;;;
"aaa";"26/01/95";;"Windows 7";"Rachel's Experiment (D.T.)";"1.0";"2";"1";"1";"2";"1";"1";"2014-10-03 12:02:38.320";"2014-10-03 12:16:12.078";"1";"1";"1";"46";"45";"module.training_block1.exec-4868.GoNoGo1";;;;;;;;;;;;;;;;;;;;;;;"1244";"2014-10-03 12:05:34.476";"ST_correctStop";"0";"0";"FINISHED";"NONE";"success";"0";"1";"2014-10-03 12:05:33.226";"1";;;;;;;;;;;;;;;;;;;;;;;;;;;;;;;;;;;;;;;;;;;;;;;;;;;;;;;;;
"aaa";"26/01/95";;"Windows 7";"Rachel's Experiment (D.T.)";"1.0";"2";"1";"1";"2";"1";"1";"2014-10-03 12:02:38.320";"2014-10-03 12:16:12.078";"1";"1";"1";"47";"46";"module.training_block1.exec-4868.GoNoGo1";;;;;;;;;;;;;;;;;;;;;;;"1245";"2014-10-03 12:05:36.992";"NST_correctLoc";"25";"0";"FINISHED";"LEFT";"success";"425";"0";"2014-10-03 12:05:35.742";"3";;;;;;;;;;;;;;;;;;;;;;;;;;;;;;;;;;;;;;;;;;;;;;;;;;;;;;;;;
"aaa";"26/01/95";;"Windows 7";"Rachel's Experiment (D.T.)";"1.0";"2";"1";"1";"2";"1";"1";"2014-10-03 12:02:38.320";"2014-10-03 12:16:12.078";"1";"1";"1";"48";"47";"module.training_block1.exec-4868.GoNoGo1";;;;;;;;;;;;;;;;;;;;;;;"1244";"2014-10-03 12:05:39.507";"NST_correctLoc";"11";"0";"FINISHED";"LEFT";"success";"629";"0";"2014-10-03 12:05:38.257";"2";;;;;;;;;;;;;;;;;;;;;;;;;;;;;;;;;;;;;;;;;;;;;;;;;;;;;;;;;
"aaa";"26/01/95";;"Windows 7";"Rachel's Experiment (D.T.)";"1.0";"2";"1";"1";"2";"1";"1";"2014-10-03 12:02:38.320";"2014-10-03 12:16:12.078";"1";"1";"1";"49";"48";"module.training_block1.exec-4868.GoNoGo1";;;;;;;;;;;;;;;;;;;;;;;"1244";"2014-10-03 12:05:42.023";"ST_correctStop";"8";"1";"FINISHED";"NONE";"success";"0";"1";"2014-10-03 12:05:40.773";"1";;;;;;;;;;;;;;;;;;;;;;;;;;;;;;;;;;;;;;;;;;;;;;;;;;;;;;;;;
"aaa";"26/01/95";;"Windows 7";"Rachel's Experiment (D.T.)";"1.0";"2";"1";"1";"2";"1";"1";"2014-10-03 12:02:38.320";"2014-10-03 12:16:12.078";"1";"1";"1";"50";"49";"module.training_block1.exec-4868.GoNoGo1";;;;;;;;;;;;;;;;;;;;;;;"1244";"2014-10-03 12:05:44.539";"NST_correctLoc";"19";"1";"FINISHED";"RIGHT";"success";"630";"0";"2014-10-03 12:05:43.289";"3";;;;;;;;;;;;;;;;;;;;;;;;;;;;;;;;;;;;;;;;;;;;;;;;;;;;;;;;;
"aaa";"26/01/95";;"Windows 7";"Rachel's Experiment (D.T.)";"1.0";"2";"1";"1";"2";"1";"1";"2014-10-03 12:02:38.320";"2014-10-03 12:16:12.078";"1";"1";"1";"51";"50";"module.training_block1.exec-4868.GoNoGo1";;;;;;;;;;;;;;;;;;;;;;;"1245";"2014-10-03 12:05:47.054";"ST_failedStop";"24";"0";"FINISHED";"LEFT";"failure";"411";"1";"2014-10-03 12:05:45.804";"3";;;;;;;;;;;;;;;;;;;;;;;;;;;;;;;;;;;;;;;;;;;;;;;;;;;;;;;;;
"aaa";"26/01/95";;"Windows 7";"Rachel's Experiment (D.T.)";"1.0";"2";"1";"1";"2";"1";"1";"2014-10-03 12:02:38.320";"2014-10-03 12:16:12.078";"1";"1";"1";"52";"51";"module.training_block2.exec-5964.GoNoGo2";;;;;;;;;;;;;;;;;;;;;;;;;;;;;;;;;;;"1248";"2014-10-03 12:05:58.070";"NST_correctLoc";"16";"0";"FINISHED";"LEFT";"success";"526";"0";"2014-10-03 12:05:56.820";"2";;;;;;;;;;;;;;;;;;;;;;;;;;;;;;;;;;;;;;;;;;;;;
"aaa";"26/01/95";;"Windows 7";"Rachel's Experiment (D.T.)";"1.0";"2";"1";"1";"2";"1";"1";"2014-10-03 12:02:38.320";"2014-10-03 12:16:12.078";"1";"1";"1";"53";"52";"module.training_block2.exec-5964.GoNoGo2";;;;;;;;;;;;;;;;;;;;;;;;;;;;;;;;;;;"1248";"2014-10-03 12:06:00.585";"NST_correctLoc";"28";"0";"FINISHED";"LEFT";"success";"467";"0";"2014-10-03 12:05:59.335";"3";;;;;;;;;;;;;;;;;;;;;;;;;;;;;;;;;;;;;;;;;;;;;
"aaa";"26/01/95";;"Windows 7";"Rachel's Experiment (D.T.)";"1.0";"2";"1";"1";"2";"1";"1";"2014-10-03 12:02:38.320";"2014-10-03 12:16:12.078";"1";"1";"1";"54";"53";"module.training_block2.exec-5964.GoNoGo2";;;;;;;;;;;;;;;;;;;;;;;;;;;;;;;;;;;"1248";"2014-10-03 12:06:03.101";"NST_correctLoc";"12";"0";"FINISHED";"LEFT";"success";"519";"0";"2014-10-03 12:06:01.851";"2";;;;;;;;;;;;;;;;;;;;;;;;;;;;;;;;;;;;;;;;;;;;;
"aaa";"26/01/95";;"Windows 7";"Rachel's Experiment (D.T.)";"1.0";"2";"1";"1";"2";"1";"1";"2014-10-03 12:02:38.320";"2014-10-03 12:16:12.078";"1";"1";"1";"55";"54";"module.training_block2.exec-5964.GoNoGo2";;;;;;;;;;;;;;;;;;;;;;;;;;;;;;;;;;;"1248";"2014-10-03 12:06:05.617";"ST_correctStop";"3";"0";"FINISHED";"NONE";"success";"0";"1";"2014-10-03 12:06:04.367";"1";;;;;;;;;;;;;;;;;;;;;;;;;;;;;;;;;;;;;;;;;;;;;
"aaa";"26/01/95";;"Windows 7";"Rachel's Experiment (D.T.)";"1.0";"2";"1";"1";"2";"1";"1";"2014-10-03 12:02:38.320";"2014-10-03 12:16:12.078";"1";"1";"1";"56";"55";"module.training_block2.exec-5964.GoNoGo2";;;;;;;;;;;;;;;;;;;;;;;;;;;;;;;;;;;"1248";"2014-10-03 12:06:08.132";"ST_correctStop";"33";"1";"FINISHED";"NONE";"success";"0";"1";"2014-10-03 12:06:06.882";"3";;;;;;;;;;;;;;;;;;;;;;;;;;;;;;;;;;;;;;;;;;;;;
"aaa";"26/01/95";;"Windows 7";"Rachel's Experiment (D.T.)";"1.0";"2";"1";"1";"2";"1";"1";"2014-10-03 12:02:38.320";"2014-10-03 12:16:12.078";"1";"1";"1";"57";"56";"module.training_block2.exec-5964.GoNoGo2";;;;;;;;;;;;;;;;;;;;;;;;;;;;;;;;;;;"1248";"2014-10-03 12:06:10.648";"NST_correctLoc";"9";"1";"FINISHED";"RIGHT";"success";"492";"0";"2014-10-03 12:06:09.398";"2";;;;;;;;;;;;;;;;;;;;;;;;;;;;;;;;;;;;;;;;;;;;;
"aaa";"26/01/95";;"Windows 7";"Rachel's Experiment (D.T.)";"1.0";"2";"1";"1";"2";"1";"1";"2014-10-03 12:02:38.320";"2014-10-03 12:16:12.078";"1";"1";"1";"58";"57";"module.training_block2.exec-5964.GoNoGo2";;;;;;;;;;;;;;;;;;;;;;;;;;;;;;;;;;;"1248";"2014-10-03 12:06:13.164";"ST_correctStop";"1";"0";"FINISHED";"NONE";"success";"0";"1";"2014-10-03 12:06:11.914";"1";;;;;;;;;;;;;;;;;;;;;;;;;;;;;;;;;;;;;;;;;;;;;
"aaa";"26/01/95";;"Windows 7";"Rachel's Experiment (D.T.)";"1.0";"2";"1";"1";"2";"1";"1";"2014-10-03 12:02:38.320";"2014-10-03 12:16:12.078";"1";"1";"1";"59";"58";"module.training_block2.exec-5964.GoNoGo2";;;;;;;;;;;;;;;;;;;;;;;;;;;;;;;;;;;"1248";"2014-10-03 12:06:15.679";"NST_correctLoc";"10";"0";"FINISHED";"LEFT";"success";"453";"0";"2014-10-03 12:06:14.429";"2";;;;;;;;;;;;;;;;;;;;;;;;;;;;;;;;;;;;;;;;;;;;;
"aaa";"26/01/95";;"Windows 7";"Rachel's Experiment (D.T.)";"1.0";"2";"1";"1";"2";"1";"1";"2014-10-03 12:02:38.320";"2014-10-03 12:16:12.078";"1";"1";"1";"60";"59";"module.training_block2.exec-5964.GoNoGo2";;;;;;;;;;;;;;;;;;;;;;;;;;;;;;;;;;;"1248";"2014-10-03 12:06:18.195";"ST_correctStop";"29";"1";"FINISHED";"NONE";"success";"0";"1";"2014-10-03 12:06:16.945";"3";;;;;;;;;;;;;;;;;;;;;;;;;;;;;;;;;;;;;;;;;;;;;
"aaa";"26/01/95";;"Windows 7";"Rachel's Experiment (D.T.)";"1.0";"2";"1";"1";"2";"1";"1";"2014-10-03 12:02:38.320";"2014-10-03 12:16:12.078";"1";"1";"1";"61";"60";"module.training_block2.exec-5964.GoNoGo2";;;;;;;;;;;;;;;;;;;;;;;;;;;;;;;;;;;"1248";"2014-10-03 12:06:20.710";"ST_correctStop";"2";"0";"FINISHED";"NONE";"success";"0";"1";"2014-10-03 12:06:19.460";"1";;;;;;;;;;;;;;;;;;;;;;;;;;;;;;;;;;;;;;;;;;;;;
"aaa";"26/01/95";;"Windows 7";"Rachel's Experiment (D.T.)";"1.0";"2";"1";"1";"2";"1";"1";"2014-10-03 12:02:38.320";"2014-10-03 12:16:12.078";"1";"1";"1";"62";"61";"module.training_block2.exec-5964.GoNoGo2";;;;;;;;;;;;;;;;;;;;;;;;;;;;;;;;;;;"1248";"2014-10-03 12:06:23.226";"NST_correctLoc";"13";"1";"FINISHED";"RIGHT";"success";"402";"0";"2014-10-03 12:06:21.976";"2";;;;;;;;;;;;;;;;;;;;;;;;;;;;;;;;;;;;;;;;;;;;;
"aaa";"26/01/95";;"Windows 7";"Rachel's Experiment (D.T.)";"1.0";"2";"1";"1";"2";"1";"1";"2014-10-03 12:02:38.320";"2014-10-03 12:16:12.078";"1";"1";"1";"63";"62";"module.training_block2.exec-5964.GoNoGo2";;;;;;;;;;;;;;;;;;;;;;;;;;;;;;;;;;;"1248";"2014-10-03 12:06:25.742";"ST_correctStop";"0";"0";"FINISHED";"NONE";"success";"0";"1";"2014-10-03 12:06:24.492";"1";;;;;;;;;;;;;;;;;;;;;;;;;;;;;;;;;;;;;;;;;;;;;
"aaa";"26/01/95";;"Windows 7";"Rachel's Experiment (D.T.)";"1.0";"2";"1";"1";"2";"1";"1";"2014-10-03 12:02:38.320";"2014-10-03 12:16:12.078";"1";"1";"1";"64";"63";"module.training_block2.exec-5964.GoNoGo2";;;;;;;;;;;;;;;;;;;;;;;;;;;;;;;;;;;"1248";"2014-10-03 12:06:28.273";"NST_correctLoc";"34";"0";"FINISHED";"LEFT";"success";"699";"0";"2014-10-03 12:06:27.023";"3";;;;;;;;;;;;;;;;;;;;;;;;;;;;;;;;;;;;;;;;;;;;;
"aaa";"26/01/95";;"Windows 7";"Rachel's Experiment (D.T.)";"1.0";"2";"1";"1";"2";"1";"1";"2014-10-03 12:02:38.320";"2014-10-03 12:16:12.078";"1";"1";"1";"65";"64";"module.training_block2.exec-5964.GoNoGo2";;;;;;;;;;;;;;;;;;;;;;;;;;;;;;;;;;;"1248";"2014-10-03 12:06:30.789";"ST_correctStop";"35";"0";"FINISHED";"NONE";"success";"0";"1";"2014-10-03 12:06:29.539";"3";;;;;;;;;;;;;;;;;;;;;;;;;;;;;;;;;;;;;;;;;;;;;
"aaa";"26/01/95";;"Windows 7";"Rachel's Experiment (D.T.)";"1.0";"2";"1";"1";"2";"1";"1";"2014-10-03 12:02:38.320";"2014-10-03 12:16:12.078";"1";"1";"1";"66";"65";"module.training_block2.exec-5964.GoNoGo2";;;;;;;;;;;;;;;;;;;;;;;;;;;;;;;;;;;"1248";"2014-10-03 12:06:33.304";"ST_correctStop";"30";"1";"FINISHED";"NONE";"success";"0";"1";"2014-10-03 12:06:32.054";"3";;;;;;;;;;;;;;;;;;;;;;;;;;;;;;;;;;;;;;;;;;;;;
"aaa";"26/01/95";;"Windows 7";"Rachel's Experiment (D.T.)";"1.0";"2";"1";"1";"2";"1";"1";"2014-10-03 12:02:38.320";"2014-10-03 12:16:12.078";"1";"1";"1";"67";"66";"module.training_block2.exec-5964.GoNoGo2";;;;;;;;;;;;;;;;;;;;;;;;;;;;;;;;;;;"1248";"2014-10-03 12:06:35.820";"NST_correctLoc";"26";"1";"FINISHED";"RIGHT";"success";"528";"0";"2014-10-03 12:06:34.570";"3";;;;;;;;;;;;;;;;;;;;;;;;;;;;;;;;;;;;;;;;;;;;;
"aaa";"26/01/95";;"Windows 7";"Rachel's Experiment (D.T.)";"1.0";"2";"1";"1";"2";"1";"1";"2014-10-03 12:02:38.320";"2014-10-03 12:16:12.078";"1";"1";"1";"68";"67";"module.training_block2.exec-5964.GoNoGo2";;;;;;;;;;;;;;;;;;;;;;;;;;;;;;;;;;;"1248";"2014-10-03 12:06:38.335";"ST_correctStop";"32";"1";"FINISHED";"NONE";"success";"0";"1";"2014-10-03 12:06:37.085";"3";;;;;;;;;;;;;;;;;;;;;;;;;;;;;;;;;;;;;;;;;;;;;
"aaa";"26/01/95";;"Windows 7";"Rachel's Experiment (D.T.)";"1.0";"2";"1";"1";"2";"1";"1";"2014-10-03 12:02:38.320";"2014-10-03 12:16:12.078";"1";"1";"1";"69";"68";"module.training_block2.exec-5964.GoNoGo2";;;;;;;;;;;;;;;;;;;;;;;;;;;;;;;;;;;"1248";"2014-10-03 12:06:40.851";"NST_correctLoc";"11";"0";"FINISHED";"LEFT";"success";"481";"0";"2014-10-03 12:06:39.601";"2";;;;;;;;;;;;;;;;;;;;;;;;;;;;;;;;;;;;;;;;;;;;;
"aaa";"26/01/95";;"Windows 7";"Rachel's Experiment (D.T.)";"1.0";"2";"1";"1";"2";"1";"1";"2014-10-03 12:02:38.320";"2014-10-03 12:16:12.078";"1";"1";"1";"70";"69";"module.training_block2.exec-5964.GoNoGo2";;;;;;;;;;;;;;;;;;;;;;;;;;;;;;;;;;;"1248";"2014-10-03 12:06:43.367";"ST_correctStop";"7";"0";"FINISHED";"NONE";"success";"0";"1";"2014-10-03 12:06:42.117";"1";;;;;;;;;;;;;;;;;;;;;;;;;;;;;;;;;;;;;;;;;;;;;
"aaa";"26/01/95";;"Windows 7";"Rachel's Experiment (D.T.)";"1.0";"2";"1";"1";"2";"1";"1";"2014-10-03 12:02:38.320";"2014-10-03 12:16:12.078";"1";"1";"1";"71";"70";"module.training_block2.exec-5964.GoNoGo2";;;;;;;;;;;;;;;;;;;;;;;;;;;;;;;;;;;"1248";"2014-10-03 12:06:45.882";"NST_correctLoc";"22";"0";"FINISHED";"LEFT";"success";"498";"0";"2014-10-03 12:06:44.632";"3";;;;;;;;;;;;;;;;;;;;;;;;;;;;;;;;;;;;;;;;;;;;;
"aaa";"26/01/95";;"Windows 7";"Rachel's Experiment (D.T.)";"1.0";"2";"1";"1";"2";"1";"1";"2014-10-03 12:02:38.320";"2014-10-03 12:16:12.078";"1";"1";"1";"72";"71";"module.training_block2.exec-5964.GoNoGo2";;;;;;;;;;;;;;;;;;;;;;;;;;;;;;;;;;;"1248";"2014-10-03 12:06:48.398";"NST_correctLoc";"17";"0";"FINISHED";"LEFT";"success";"478";"0";"2014-10-03 12:06:47.148";"2";;;;;;;;;;;;;;;;;;;;;;;;;;;;;;;;;;;;;;;;;;;;;
"aaa";"26/01/95";;"Windows 7";"Rachel's Experiment (D.T.)";"1.0";"2";"1";"1";"2";"1";"1";"2014-10-03 12:02:38.320";"2014-10-03 12:16:12.078";"1";"1";"1";"73";"72";"module.training_block2.exec-5964.GoNoGo2";;;;;;;;;;;;;;;;;;;;;;;;;;;;;;;;;;;"1248";"2014-10-03 12:06:50.914";"NST_correctLoc";"14";"1";"FINISHED";"RIGHT";"success";"594";"0";"2014-10-03 12:06:49.664";"2";;;;;;;;;;;;;;;;;;;;;;;;;;;;;;;;;;;;;;;;;;;;;
"aaa";"26/01/95";;"Windows 7";"Rachel's Experiment (D.T.)";"1.0";"2";"1";"1";"2";"1";"1";"2014-10-03 12:02:38.320";"2014-10-03 12:16:12.078";"1";"1";"1";"74";"73";"module.training_block2.exec-5964.GoNoGo2";;;;;;;;;;;;;;;;;;;;;;;;;;;;;;;;;;;"1248";"2014-10-03 12:06:53.429";"ST_correctStop";"20";"1";"FINISHED";"NONE";"success";"0";"1";"2014-10-03 12:06:52.179";"3";;;;;;;;;;;;;;;;;;;;;;;;;;;;;;;;;;;;;;;;;;;;;
"aaa";"26/01/95";;"Windows 7";"Rachel's Experiment (D.T.)";"1.0";"2";"1";"1";"2";"1";"1";"2014-10-03 12:02:38.320";"2014-10-03 12:16:12.078";"1";"1";"1";"75";"74";"module.training_block2.exec-5964.GoNoGo2";;;;;;;;;;;;;;;;;;;;;;;;;;;;;;;;;;;"1248";"2014-10-03 12:06:55.945";"NST_correctLoc";"24";"0";"FINISHED";"LEFT";"success";"499";"0";"2014-10-03 12:06:54.695";"3";;;;;;;;;;;;;;;;;;;;;;;;;;;;;;;;;;;;;;;;;;;;;
"aaa";"26/01/95";;"Windows 7";"Rachel's Experiment (D.T.)";"1.0";"2";"1";"1";"2";"1";"1";"2014-10-03 12:02:38.320";"2014-10-03 12:16:12.078";"1";"1";"1";"76";"75";"module.training_block2.exec-5964.GoNoGo2";;;;;;;;;;;;;;;;;;;;;;;;;;;;;;;;;;;"1248";"2014-10-03 12:06:58.460";"ST_correctStop";"5";"1";"FINISHED";"NONE";"success";"0";"1";"2014-10-03 12:06:57.210";"1";;;;;;;;;;;;;;;;;;;;;;;;;;;;;;;;;;;;;;;;;;;;;
"aaa";"26/01/95";;"Windows 7";"Rachel's Experiment (D.T.)";"1.0";"2";"1";"1";"2";"1";"1";"2014-10-03 12:02:38.320";"2014-10-03 12:16:12.078";"1";"1";"1";"77";"76";"module.training_block2.exec-5964.GoNoGo2";;;;;;;;;;;;;;;;;;;;;;;;;;;;;;;;;;;"1248";"2014-10-03 12:07:00.976";"NST_correctLoc";"19";"0";"FINISHED";"LEFT";"success";"516";"0";"2014-10-03 12:06:59.726";"3";;;;;;;;;;;;;;;;;;;;;;;;;;;;;;;;;;;;;;;;;;;;;
"aaa";"26/01/95";;"Windows 7";"Rachel's Experiment (D.T.)";"1.0";"2";"1";"1";"2";"1";"1";"2014-10-03 12:02:38.320";"2014-10-03 12:16:12.078";"1";"1";"1";"78";"77";"module.training_block2.exec-5964.GoNoGo2";;;;;;;;;;;;;;;;;;;;;;;;;;;;;;;;;;;"1248";"2014-10-03 12:07:03.492";"NST_correctLoc";"15";"0";"FINISHED";"LEFT";"success";"544";"0";"2014-10-03 12:07:02.242";"2";;;;;;;;;;;;;;;;;;;;;;;;;;;;;;;;;;;;;;;;;;;;;
"aaa";"26/01/95";;"Windows 7";"Rachel's Experiment (D.T.)";"1.0";"2";"1";"1";"2";"1";"1";"2014-10-03 12:02:38.320";"2014-10-03 12:16:12.078";"1";"1";"1";"79";"78";"module.training_block2.exec-5964.GoNoGo2";;;;;;;;;;;;;;;;;;;;;;;;;;;;;;;;;;;"1248";"2014-10-03 12:07:06.007";"ST_correctStop";"31";"1";"FINISHED";"NONE";"success";"0";"1";"2014-10-03 12:07:04.757";"3";;;;;;;;;;;;;;;;;;;;;;;;;;;;;;;;;;;;;;;;;;;;;
"aaa";"26/01/95";;"Windows 7";"Rachel's Experiment (D.T.)";"1.0";"2";"1";"1";"2";"1";"1";"2014-10-03 12:02:38.320";"2014-10-03 12:16:12.078";"1";"1";"1";"80";"79";"module.training_block2.exec-5964.GoNoGo2";;;;;;;;;;;;;;;;;;;;;;;;;;;;;;;;;;;"1248";"2014-10-03 12:07:08.523";"NST_correctLoc";"23";"0";"FINISHED";"LEFT";"success";"553";"0";"2014-10-03 12:07:07.273";"3";;;;;;;;;;;;;;;;;;;;;;;;;;;;;;;;;;;;;;;;;;;;;
"aaa";"26/01/95";;"Windows 7";"Rachel's Experiment (D.T.)";"1.0";"2";"1";"1";"2";"1";"1";"2014-10-03 12:02:38.320";"2014-10-03 12:16:12.078";"1";"1";"1";"81";"80";"module.training_block2.exec-5964.GoNoGo2";;;;;;;;;;;;;;;;;;;;;;;;;;;;;;;;;;;"1248";"2014-10-03 12:07:11.039";"ST_correctStop";"4";"0";"FINISHED";"NONE";"success";"0";"1";"2014-10-03 12:07:09.789";"1";;;;;;;;;;;;;;;;;;;;;;;;;;;;;;;;;;;;;;;;;;;;;
"aaa";"26/01/95";;"Windows 7";"Rachel's Experiment (D.T.)";"1.0";"2";"1";"1";"2";"1";"1";"2014-10-03 12:02:38.320";"2014-10-03 12:16:12.078";"1";"1";"1";"82";"81";"module.training_block2.exec-5964.GoNoGo2";;;;;;;;;;;;;;;;;;;;;;;;;;;;;;;;;;;"1248";"2014-10-03 12:07:13.554";"ST_correctStop";"27";"1";"FINISHED";"NONE";"success";"0";"1";"2014-10-03 12:07:12.304";"3";;;;;;;;;;;;;;;;;;;;;;;;;;;;;;;;;;;;;;;;;;;;;
"aaa";"26/01/95";;"Windows 7";"Rachel's Experiment (D.T.)";"1.0";"2";"1";"1";"2";"1";"1";"2014-10-03 12:02:38.320";"2014-10-03 12:16:12.078";"1";"1";"1";"83";"82";"module.training_block2.exec-5964.GoNoGo2";;;;;;;;;;;;;;;;;;;;;;;;;;;;;;;;;;;"1248";"2014-10-03 12:07:16.070";"NST_correctLoc";"21";"1";"FINISHED";"RIGHT";"success";"534";"0";"2014-10-03 12:07:14.820";"3";;;;;;;;;;;;;;;;;;;;;;;;;;;;;;;;;;;;;;;;;;;;;
"aaa";"26/01/95";;"Windows 7";"Rachel's Experiment (D.T.)";"1.0";"2";"1";"1";"2";"1";"1";"2014-10-03 12:02:38.320";"2014-10-03 12:16:12.078";"1";"1";"1";"84";"83";"module.training_block2.exec-5964.GoNoGo2";;;;;;;;;;;;;;;;;;;;;;;;;;;;;;;;;;;"1248";"2014-10-03 12:07:18.585";"ST_correctStop";"18";"1";"FINISHED";"NONE";"success";"0";"1";"2014-10-03 12:07:17.335";"3";;;;;;;;;;;;;;;;;;;;;;;;;;;;;;;;;;;;;;;;;;;;;
"aaa";"26/01/95";;"Windows 7";"Rachel's Experiment (D.T.)";"1.0";"2";"1";"1";"2";"1";"1";"2014-10-03 12:02:38.320";"2014-10-03 12:16:12.078";"1";"1";"1";"85";"84";"module.training_block2.exec-5964.GoNoGo2";;;;;;;;;;;;;;;;;;;;;;;;;;;;;;;;;;;"1248";"2014-10-03 12:07:21.101";"ST_correctStop";"6";"0";"FINISHED";"NONE";"success";"0";"1";"2014-10-03 12:07:19.851";"1";;;;;;;;;;;;;;;;;;;;;;;;;;;;;;;;;;;;;;;;;;;;;
"aaa";"26/01/95";;"Windows 7";"Rachel's Experiment (D.T.)";"1.0";"2";"1";"1";"2";"1";"1";"2014-10-03 12:02:38.320";"2014-10-03 12:16:12.078";"1";"1";"1";"86";"85";"module.training_block2.exec-5964.GoNoGo2";;;;;;;;;;;;;;;;;;;;;;;;;;;;;;;;;;;"1248";"2014-10-03 12:07:23.617";"NST_correctLoc";"25";"0";"FINISHED";"LEFT";"success";"483";"0";"2014-10-03 12:07:22.367";"3";;;;;;;;;;;;;;;;;;;;;;;;;;;;;;;;;;;;;;;;;;;;;
"aaa";"26/01/95";;"Windows 7";"Rachel's Experiment (D.T.)";"1.0";"2";"1";"1";"2";"1";"1";"2014-10-03 12:02:38.320";"2014-10-03 12:16:12.078";"1";"1";"1";"87";"86";"module.training_block2.exec-5964.GoNoGo2";;;;;;;;;;;;;;;;;;;;;;;;;;;;;;;;;;;"1244";"2014-10-03 12:07:26.132";"ST_correctStop";"8";"1";"FINISHED";"NONE";"success";"0";"1";"2014-10-03 12:07:24.882";"1";;;;;;;;;;;;;;;;;;;;;;;;;;;;;;;;;;;;;;;;;;;;;
"aaa";"26/01/95";;"Windows 7";"Rachel's Experiment (D.T.)";"1.0";"2";"1";"1";"2";"1";"1";"2014-10-03 12:02:38.320";"2014-10-03 12:16:12.078";"1";"1";"1";"88";"87";"module.training_block3.exec-9831.GoNoGo3";;;;;;;;;;;;;;;;;;;;;;;;;;;;;;;;;;;;;;;;;;;;;;;"1248";"2014-10-03 12:07:36.953";"ST_correctStop";"28";"1";"FINISHED";"NONE";"success";"0";"1";"2014-10-03 12:07:35.703";"3";;;;;;;;;;;;;;;;;;;;;;;;;;;;;;;;;
"aaa";"26/01/95";;"Windows 7";"Rachel's Experiment (D.T.)";"1.0";"2";"1";"1";"2";"1";"1";"2014-10-03 12:02:38.320";"2014-10-03 12:16:12.078";"1";"1";"1";"89";"88";"module.training_block3.exec-9831.GoNoGo3";;;;;;;;;;;;;;;;;;;;;;;;;;;;;;;;;;;;;;;;;;;;;;;"1248";"2014-10-03 12:07:39.468";"ST_correctStop";"31";"1";"FINISHED";"NONE";"success";"0";"1";"2014-10-03 12:07:38.218";"3";;;;;;;;;;;;;;;;;;;;;;;;;;;;;;;;;
"aaa";"26/01/95";;"Windows 7";"Rachel's Experiment (D.T.)";"1.0";"2";"1";"1";"2";"1";"1";"2014-10-03 12:02:38.320";"2014-10-03 12:16:12.078";"1";"1";"1";"90";"89";"module.training_block3.exec-9831.GoNoGo3";;;;;;;;;;;;;;;;;;;;;;;;;;;;;;;;;;;;;;;;;;;;;;;"1248";"2014-10-03 12:07:41.984";"NST_correctLoc";"29";"0";"FINISHED";"LEFT";"success";"684";"0";"2014-10-03 12:07:40.734";"3";;;;;;;;;;;;;;;;;;;;;;;;;;;;;;;;;
"aaa";"26/01/95";;"Windows 7";"Rachel's Experiment (D.T.)";"1.0";"2";"1";"1";"2";"1";"1";"2014-10-03 12:02:38.320";"2014-10-03 12:16:12.078";"1";"1";"1";"91";"90";"module.training_block3.exec-9831.GoNoGo3";;;;;;;;;;;;;;;;;;;;;;;;;;;;;;;;;;;;;;;;;;;;;;;"1248";"2014-10-03 12:07:44.500";"ST_correctStop";"7";"1";"FINISHED";"NONE";"success";"0";"1";"2014-10-03 12:07:43.250";"1";;;;;;;;;;;;;;;;;;;;;;;;;;;;;;;;;
"aaa";"26/01/95";;"Windows 7";"Rachel's Experiment (D.T.)";"1.0";"2";"1";"1";"2";"1";"1";"2014-10-03 12:02:38.320";"2014-10-03 12:16:12.078";"1";"1";"1";"92";"91";"module.training_block3.exec-9831.GoNoGo3";;;;;;;;;;;;;;;;;;;;;;;;;;;;;;;;;;;;;;;;;;;;;;;"1248";"2014-10-03 12:07:47.015";"NST_correctLoc";"20";"0";"FINISHED";"LEFT";"success";"557";"0";"2014-10-03 12:07:45.765";"3";;;;;;;;;;;;;;;;;;;;;;;;;;;;;;;;;
"aaa";"26/01/95";;"Windows 7";"Rachel's Experiment (D.T.)";"1.0";"2";"1";"1";"2";"1";"1";"2014-10-03 12:02:38.320";"2014-10-03 12:16:12.078";"1";"1";"1";"93";"92";"module.training_block3.exec-9831.GoNoGo3";;;;;;;;;;;;;;;;;;;;;;;;;;;;;;;;;;;;;;;;;;;;;;;"1248";"2014-10-03 12:07:49.531";"ST_correctStop";"4";"0";"FINISHED";"NONE";"success";"0";"1";"2014-10-03 12:07:48.281";"1";;;;;;;;;;;;;;;;;;;;;;;;;;;;;;;;;
"aaa";"26/01/95";;"Windows 7";"Rachel's Experiment (D.T.)";"1.0";"2";"1";"1";"2";"1";"1";"2014-10-03 12:02:38.320";"2014-10-03 12:16:12.078";"1";"1";"1";"94";"93";"module.training_block3.exec-9831.GoNoGo3";;;;;;;;;;;;;;;;;;;;;;;;;;;;;;;;;;;;;;;;;;;;;;;"1248";"2014-10-03 12:07:52.046";"NST_correctLoc";"27";"0";"FINISHED";"LEFT";"success";"589";"0";"2014-10-03 12:07:50.796";"3";;;;;;;;;;;;;;;;;;;;;;;;;;;;;;;;;
"aaa";"26/01/95";;"Windows 7";"Rachel's Experiment (D.T.)";"1.0";"2";"1";"1";"2";"1";"1";"2014-10-03 12:02:38.320";"2014-10-03 12:16:12.078";"1";"1";"1";"95";"94";"module.training_block3.exec-9831.GoNoGo3";;;;;;;;;;;;;;;;;;;;;;;;;;;;;;;;;;;;;;;;;;;;;;;"1248";"2014-10-03 12:07:54.562";"ST_correctStop";"18";"0";"FINISHED";"NONE";"success";"0";"1";"2014-10-03 12:07:53.312";"3";;;;;;;;;;;;;;;;;;;;;;;;;;;;;;;;;
"aaa";"26/01/95";;"Windows 7";"Rachel's Experiment (D.T.)";"1.0";"2";"1";"1";"2";"1";"1";"2014-10-03 12:02:38.320";"2014-10-03 12:16:12.078";"1";"1";"1";"96";"95";"module.training_block3.exec-9831.GoNoGo3";;;;;;;;;;;;;;;;;;;;;;;;;;;;;;;;;;;;;;;;;;;;;;;"1248";"2014-10-03 12:07:57.078";"NST_correctLoc";"33";"0";"FINISHED";"LEFT";"success";"774";"0";"2014-10-03 12:07:55.828";"3";;;;;;;;;;;;;;;;;;;;;;;;;;;;;;;;;
"aaa";"26/01/95";;"Windows 7";"Rachel's Experiment (D.T.)";"1.0";"2";"1";"1";"2";"1";"1";"2014-10-03 12:02:38.320";"2014-10-03 12:16:12.078";"1";"1";"1";"97";"96";"module.training_block3.exec-9831.GoNoGo3";;;;;;;;;;;;;;;;;;;;;;;;;;;;;;;;;;;;;;;;;;;;;;;"1248";"2014-10-03 12:07:59.593";"NST_correctLoc";"16";"1";"FINISHED";"RIGHT";"success";"506";"0";"2014-10-03 12:07:58.343";"2";;;;;;;;;;;;;;;;;;;;;;;;;;;;;;;;;
"aaa";"26/01/95";;"Windows 7";"Rachel's Experiment (D.T.)";"1.0";"2";"1";"1";"2";"1";"1";"2014-10-03 12:02:38.320";"2014-10-03 12:16:12.078";"1";"1";"1";"98";"97";"module.training_block3.exec-9831.GoNoGo3";;;;;;;;;;;;;;;;;;;;;;;;;;;;;;;;;;;;;;;;;;;;;;;"1248";"2014-10-03 12:08:02.109";"ST_correctStop";"34";"0";"FINISHED";"NONE";"success";"0";"1";"2014-10-03 12:08:00.859";"3";;;;;;;;;;;;;;;;;;;;;;;;;;;;;;;;;
"aaa";"26/01/95";;"Windows 7";"Rachel's Experiment (D.T.)";"1.0";"2";"1";"1";"2";"1";"1";"2014-10-03 12:02:38.320";"2014-10-03 12:16:12.078";"1";"1";"1";"99";"98";"module.training_block3.exec-9831.GoNoGo3";;;;;;;;;;;;;;;;;;;;;;;;;;;;;;;;;;;;;;;;;;;;;;;"1248";"2014-10-03 12:08:04.625";"NST_correctLoc";"19";"1";"FINISHED";"RIGHT";"success";"547";"0";"2014-10-03 12:08:03.375";"3";;;;;;;;;;;;;;;;;;;;;;;;;;;;;;;;;
"aaa";"26/01/95";;"Windows 7";"Rachel's Experiment (D.T.)";"1.0";"2";"1";"1";"2";"1";"1";"2014-10-03 12:02:38.320";"2014-10-03 12:16:12.078";"1";"1";"1";"100";"99";"module.training_block3.exec-9831.GoNoGo3";;;;;;;;;;;;;;;;;;;;;;;;;;;;;;;;;;;;;;;;;;;;;;;"1248";"2014-10-03 12:08:07.140";"NST_correctLoc";"10";"1";"FINISHED";"RIGHT";"success";"543";"0";"2014-10-03 12:08:05.890";"2";;;;;;;;;;;;;;;;;;;;;;;;;;;;;;;;;
"aaa";"26/01/95";;"Windows 7";"Rachel's Experiment (D.T.)";"1.0";"2";"1";"1";"2";"1";"1";"2014-10-03 12:02:38.320";"2014-10-03 12:16:12.078";"1";"1";"1";"101";"100";"module.training_block3.exec-9831.GoNoGo3";;;;;;;;;;;;;;;;;;;;;;;;;;;;;;;;;;;;;;;;;;;;;;;"1248";"2014-10-03 12:08:09.656";"NST_correctLoc";"17";"1";"FINISHED";"RIGHT";"success";"444";"0";"2014-10-03 12:08:08.406";"2";;;;;;;;;;;;;;;;;;;;;;;;;;;;;;;;;
"aaa";"26/01/95";;"Windows 7";"Rachel's Experiment (D.T.)";"1.0";"2";"1";"1";"2";"1";"1";"2014-10-03 12:02:38.320";"2014-10-03 12:16:12.078";"1";"1";"1";"102";"101";"module.training_block3.exec-9831.GoNoGo3";;;;;;;;;;;;;;;;;;;;;;;;;;;;;;;;;;;;;;;;;;;;;;;"1248";"2014-10-03 12:08:12.171";"NST_correctLoc";"12";"1";"FINISHED";"RIGHT";"success";"400";"0";"2014-10-03 12:08:10.921";"2";;;;;;;;;;;;;;;;;;;;;;;;;;;;;;;;;
"aaa";"26/01/95";;"Windows 7";"Rachel's Experiment (D.T.)";"1.0";"2";"1";"1";"2";"1";"1";"2014-10-03 12:02:38.320";"2014-10-03 12:16:12.078";"1";"1";"1";"103";"102";"module.training_block3.exec-9831.GoNoGo3";;;;;;;;;;;;;;;;;;;;;;;;;;;;;;;;;;;;;;;;;;;;;;;"1248";"2014-10-03 12:08:14.687";"ST_correctStop";"35";"0";"FINISHED";"NONE";"success";"0";"1";"2014-10-03 12:08:13.437";"3";;;;;;;;;;;;;;;;;;;;;;;;;;;;;;;;;
"aaa";"26/01/95";;"Windows 7";"Rachel's Experiment (D.T.)";"1.0";"2";"1";"1";"2";"1";"1";"2014-10-03 12:02:38.320";"2014-10-03 12:16:12.078";"1";"1";"1";"104";"103";"module.training_block3.exec-9831.GoNoGo3";;;;;;;;;;;;;;;;;;;;;;;;;;;;;;;;;;;;;;;;;;;;;;;"1248";"2014-10-03 12:08:17.203";"NST_correctLoc";"11";"0";"FINISHED";"LEFT";"success";"489";"0";"2014-10-03 12:08:15.953";"2";;;;;;;;;;;;;;;;;;;;;;;;;;;;;;;;;
"aaa";"26/01/95";;"Windows 7";"Rachel's Experiment (D.T.)";"1.0";"2";"1";"1";"2";"1";"1";"2014-10-03 12:02:38.320";"2014-10-03 12:16:12.078";"1";"1";"1";"105";"104";"module.training_block3.exec-9831.GoNoGo3";;;;;;;;;;;;;;;;;;;;;;;;;;;;;;;;;;;;;;;;;;;;;;;"1248";"2014-10-03 12:08:19.718";"NST_correctLoc";"15";"1";"FINISHED";"RIGHT";"success";"469";"0";"2014-10-03 12:08:18.468";"2";;;;;;;;;;;;;;;;;;;;;;;;;;;;;;;;;
"aaa";"26/01/95";;"Windows 7";"Rachel's Experiment (D.T.)";"1.0";"2";"1";"1";"2";"1";"1";"2014-10-03 12:02:38.320";"2014-10-03 12:16:12.078";"1";"1";"1";"106";"105";"module.training_block3.exec-9831.GoNoGo3";;;;;;;;;;;;;;;;;;;;;;;;;;;;;;;;;;;;;;;;;;;;;;;"1248";"2014-10-03 12:08:22.234";"ST_correctStop";"8";"1";"FINISHED";"NONE";"success";"0";"1";"2014-10-03 12:08:20.984";"1";;;;;;;;;;;;;;;;;;;;;;;;;;;;;;;;;
"aaa";"26/01/95";;"Windows 7";"Rachel's Experiment (D.T.)";"1.0";"2";"1";"1";"2";"1";"1";"2014-10-03 12:02:38.320";"2014-10-03 12:16:12.078";"1";"1";"1";"107";"106";"module.training_block3.exec-9831.GoNoGo3";;;;;;;;;;;;;;;;;;;;;;;;;;;;;;;;;;;;;;;;;;;;;;;"1248";"2014-10-03 12:08:24.750";"NST_correctLoc";"30";"1";"FINISHED";"RIGHT";"success";"590";"0";"2014-10-03 12:08:23.500";"3";;;;;;;;;;;;;;;;;;;;;;;;;;;;;;;;;
"aaa";"26/01/95";;"Windows 7";"Rachel's Experiment (D.T.)";"1.0";"2";"1";"1";"2";"1";"1";"2014-10-03 12:02:38.320";"2014-10-03 12:16:12.078";"1";"1";"1";"108";"107";"module.training_block3.exec-9831.GoNoGo3";;;;;;;;;;;;;;;;;;;;;;;;;;;;;;;;;;;;;;;;;;;;;;;"1248";"2014-10-03 12:08:27.265";"ST_correctStop";"21";"0";"FINISHED";"NONE";"success";"0";"1";"2014-10-03 12:08:26.015";"3";;;;;;;;;;;;;;;;;;;;;;;;;;;;;;;;;
"aaa";"26/01/95";;"Windows 7";"Rachel's Experiment (D.T.)";"1.0";"2";"1";"1";"2";"1";"1";"2014-10-03 12:02:38.320";"2014-10-03 12:16:12.078";"1";"1";"1";"109";"108";"module.training_block3.exec-9831.GoNoGo3";;;;;;;;;;;;;;;;;;;;;;;;;;;;;;;;;;;;;;;;;;;;;;;"1248";"2014-10-03 12:08:29.781";"ST_correctStop";"0";"0";"FINISHED";"NONE";"success";"0";"1";"2014-10-03 12:08:28.531";"1";;;;;;;;;;;;;;;;;;;;;;;;;;;;;;;;;
"aaa";"26/01/95";;"Windows 7";"Rachel's Experiment (D.T.)";"1.0";"2";"1";"1";"2";"1";"1";"2014-10-03 12:02:38.320";"2014-10-03 12:16:12.078";"1";"1";"1";"110";"109";"module.training_block3.exec-9831.GoNoGo3";;;;;;;;;;;;;;;;;;;;;;;;;;;;;;;;;;;;;;;;;;;;;;;"1248";"2014-10-03 12:08:32.296";"ST_correctStop";"3";"0";"FINISHED";"NONE";"success";"0";"1";"2014-10-03 12:08:31.046";"1";;;;;;;;;;;;;;;;;;;;;;;;;;;;;;;;;
"aaa";"26/01/95";;"Windows 7";"Rachel's Experiment (D.T.)";"1.0";"2";"1";"1";"2";"1";"1";"2014-10-03 12:02:38.320";"2014-10-03 12:16:12.078";"1";"1";"1";"111";"110";"module.training_block3.exec-9831.GoNoGo3";;;;;;;;;;;;;;;;;;;;;;;;;;;;;;;;;;;;;;;;;;;;;;;"1245";"2014-10-03 12:08:34.812";"NST_correctLoc";"14";"0";"FINISHED";"LEFT";"success";"453";"0";"2014-10-03 12:08:33.562";"2";;;;;;;;;;;;;;;;;;;;;;;;;;;;;;;;;
"aaa";"26/01/95";;"Windows 7";"Rachel's Experiment (D.T.)";"1.0";"2";"1";"1";"2";"1";"1";"2014-10-03 12:02:38.320";"2014-10-03 12:16:12.078";"1";"1";"1";"112";"111";"module.training_block3.exec-9831.GoNoGo3";;;;;;;;;;;;;;;;;;;;;;;;;;;;;;;;;;;;;;;;;;;;;;;"1248";"2014-10-03 12:08:37.328";"ST_correctStop";"25";"1";"FINISHED";"NONE";"success";"0";"1";"2014-10-03 12:08:36.078";"3";;;;;;;;;;;;;;;;;;;;;;;;;;;;;;;;;
"aaa";"26/01/95";;"Windows 7";"Rachel's Experiment (D.T.)";"1.0";"2";"1";"1";"2";"1";"1";"2014-10-03 12:02:38.320";"2014-10-03 12:16:12.078";"1";"1";"1";"113";"112";"module.training_block3.exec-9831.GoNoGo3";;;;;;;;;;;;;;;;;;;;;;;;;;;;;;;;;;;;;;;;;;;;;;;"1248";"2014-10-03 12:08:39.843";"ST_correctStop";"2";"0";"FINISHED";"NONE";"success";"0";"1";"2014-10-03 12:08:38.593";"1";;;;;;;;;;;;;;;;;;;;;;;;;;;;;;;;;
"aaa";"26/01/95";;"Windows 7";"Rachel's Experiment (D.T.)";"1.0";"2";"1";"1";"2";"1";"1";"2014-10-03 12:02:38.320";"2014-10-03 12:16:12.078";"1";"1";"1";"114";"113";"module.training_block3.exec-9831.GoNoGo3";;;;;;;;;;;;;;;;;;;;;;;;;;;;;;;;;;;;;;;;;;;;;;;"1248";"2014-10-03 12:08:42.351";"NST_correctLoc";"13";"1";"FINISHED";"RIGHT";"success";"444";"0";"2014-10-03 12:08:41.101";"2";;;;;;;;;;;;;;;;;;;;;;;;;;;;;;;;;
"aaa";"26/01/95";;"Windows 7";"Rachel's Experiment (D.T.)";"1.0";"2";"1";"1";"2";"1";"1";"2014-10-03 12:02:38.320";"2014-10-03 12:16:12.078";"1";"1";"1";"115";"114";"module.training_block3.exec-9831.GoNoGo3";;;;;;;;;;;;;;;;;;;;;;;;;;;;;;;;;;;;;;;;;;;;;;;"1248";"2014-10-03 12:08:44.867";"ST_correctStop";"23";"1";"FINISHED";"NONE";"success";"0";"1";"2014-10-03 12:08:43.617";"3";;;;;;;;;;;;;;;;;;;;;;;;;;;;;;;;;
"aaa";"26/01/95";;"Windows 7";"Rachel's Experiment (D.T.)";"1.0";"2";"1";"1";"2";"1";"1";"2014-10-03 12:02:38.320";"2014-10-03 12:16:12.078";"1";"1";"1";"116";"115";"module.training_block3.exec-9831.GoNoGo3";;;;;;;;;;;;;;;;;;;;;;;;;;;;;;;;;;;;;;;;;;;;;;;"1248";"2014-10-03 12:08:47.382";"ST_correctStop";"26";"0";"FINISHED";"NONE";"success";"0";"1";"2014-10-03 12:08:46.132";"3";;;;;;;;;;;;;;;;;;;;;;;;;;;;;;;;;
"aaa";"26/01/95";;"Windows 7";"Rachel's Experiment (D.T.)";"1.0";"2";"1";"1";"2";"1";"1";"2014-10-03 12:02:38.320";"2014-10-03 12:16:12.078";"1";"1";"1";"117";"116";"module.training_block3.exec-9831.GoNoGo3";;;;;;;;;;;;;;;;;;;;;;;;;;;;;;;;;;;;;;;;;;;;;;;"1248";"2014-10-03 12:08:49.898";"NST_correctLoc";"32";"1";"FINISHED";"RIGHT";"success";"402";"0";"2014-10-03 12:08:48.648";"3";;;;;;;;;;;;;;;;;;;;;;;;;;;;;;;;;
"aaa";"26/01/95";;"Windows 7";"Rachel's Experiment (D.T.)";"1.0";"2";"1";"1";"2";"1";"1";"2014-10-03 12:02:38.320";"2014-10-03 12:16:12.078";"1";"1";"1";"118";"117";"module.training_block3.exec-9831.GoNoGo3";;;;;;;;;;;;;;;;;;;;;;;;;;;;;;;;;;;;;;;;;;;;;;;"1248";"2014-10-03 12:08:52.414";"NST_correctLoc";"24";"0";"FINISHED";"LEFT";"success";"510";"0";"2014-10-03 12:08:51.164";"3";;;;;;;;;;;;;;;;;;;;;;;;;;;;;;;;;
"aaa";"26/01/95";;"Windows 7";"Rachel's Experiment (D.T.)";"1.0";"2";"1";"1";"2";"1";"1";"2014-10-03 12:02:38.320";"2014-10-03 12:16:12.078";"1";"1";"1";"119";"118";"module.training_block3.exec-9831.GoNoGo3";;;;;;;;;;;;;;;;;;;;;;;;;;;;;;;;;;;;;;;;;;;;;;;"1248";"2014-10-03 12:08:54.921";"ST_correctStop";"1";"1";"FINISHED";"NONE";"success";"0";"1";"2014-10-03 12:08:53.671";"1";;;;;;;;;;;;;;;;;;;;;;;;;;;;;;;;;
"aaa";"26/01/95";;"Windows 7";"Rachel's Experiment (D.T.)";"1.0";"2";"1";"1";"2";"1";"1";"2014-10-03 12:02:38.320";"2014-10-03 12:16:12.078";"1";"1";"1";"120";"119";"module.training_block3.exec-9831.GoNoGo3";;;;;;;;;;;;;;;;;;;;;;;;;;;;;;;;;;;;;;;;;;;;;;;"1248";"2014-10-03 12:08:57.437";"NST_correctLoc";"9";"0";"FINISHED";"LEFT";"success";"782";"0";"2014-10-03 12:08:56.187";"2";;;;;;;;;;;;;;;;;;;;;;;;;;;;;;;;;
"aaa";"26/01/95";;"Windows 7";"Rachel's Experiment (D.T.)";"1.0";"2";"1";"1";"2";"1";"1";"2014-10-03 12:02:38.320";"2014-10-03 12:16:12.078";"1";"1";"1";"121";"120";"module.training_block3.exec-9831.GoNoGo3";;;;;;;;;;;;;;;;;;;;;;;;;;;;;;;;;;;;;;;;;;;;;;;"1248";"2014-10-03 12:08:59.945";"ST_failedStop";"6";"1";"FINISHED";"RIGHT";"failure";"563";"1";"2014-10-03 12:08:58.695";"1";;;;;;;;;;;;;;;;;;;;;;;;;;;;;;;;;
"aaa";"26/01/95";;"Windows 7";"Rachel's Experiment (D.T.)";"1.0";"2";"1";"1";"2";"1";"1";"2014-10-03 12:02:38.320";"2014-10-03 12:16:12.078";"1";"1";"1";"122";"121";"module.training_block3.exec-9831.GoNoGo3";;;;;;;;;;;;;;;;;;;;;;;;;;;;;;;;;;;;;;;;;;;;;;;"1248";"2014-10-03 12:09:02.453";"NST_correctLoc";"22";"1";"FINISHED";"RIGHT";"success";"415";"0";"2014-10-03 12:09:01.203";"3";;;;;;;;;;;;;;;;;;;;;;;;;;;;;;;;;
"aaa";"26/01/95";;"Windows 7";"Rachel's Experiment (D.T.)";"1.0";"2";"1";"1";"2";"1";"1";"2014-10-03 12:02:38.320";"2014-10-03 12:16:12.078";"1";"1";"1";"123";"122";"module.training_block3.exec-9831.GoNoGo3";;;;;;;;;;;;;;;;;;;;;;;;;;;;;;;;;;;;;;;;;;;;;;;"1248";"2014-10-03 12:09:04.960";"ST_correctStop";"5";"0";"FINISHED";"NONE";"success";"0";"1";"2014-10-03 12:09:03.710";"1";;;;;;;;;;;;;;;;;;;;;;;;;;;;;;;;;
"aaa";"26/01/95";;"Windows 7";"Rachel's Experiment (D.T.)";"1.0";"2";"1";"1";"2";"1";"1";"2014-10-03 12:02:38.320";"2014-10-03 12:16:12.078";"1";"1";"1";"124";"123";"module.training_block4.exec-4128.GoNoGo4";;;;;;;;;;;;;;;;;;;;;;;;;;;;;;;;;;;;;;;;;;;;;;;;;;;;;;;;;;;"1248";"2014-10-03 12:09:15.625";"ST_correctStop";"34";"1";"FINISHED";"NONE";"success";"0";"1";"2014-10-03 12:09:14.375";"3";;;;;;;;;;;;;;;;;;;;;
"aaa";"26/01/95";;"Windows 7";"Rachel's Experiment (D.T.)";"1.0";"2";"1";"1";"2";"1";"1";"2014-10-03 12:02:38.320";"2014-10-03 12:16:12.078";"1";"1";"1";"125";"124";"module.training_block4.exec-4128.GoNoGo4";;;;;;;;;;;;;;;;;;;;;;;;;;;;;;;;;;;;;;;;;;;;;;;;;;;;;;;;;;;"1248";"2014-10-03 12:09:18.132";"ST_correctStop";"30";"1";"FINISHED";"NONE";"success";"0";"1";"2014-10-03 12:09:16.882";"3";;;;;;;;;;;;;;;;;;;;;
"aaa";"26/01/95";;"Windows 7";"Rachel's Experiment (D.T.)";"1.0";"2";"1";"1";"2";"1";"1";"2014-10-03 12:02:38.320";"2014-10-03 12:16:12.078";"1";"1";"1";"126";"125";"module.training_block4.exec-4128.GoNoGo4";;;;;;;;;;;;;;;;;;;;;;;;;;;;;;;;;;;;;;;;;;;;;;;;;;;;;;;;;;;"1248";"2014-10-03 12:09:20.640";"NST_correctLoc";"17";"1";"FINISHED";"RIGHT";"success";"667";"0";"2014-10-03 12:09:19.390";"2";;;;;;;;;;;;;;;;;;;;;
"aaa";"26/01/95";;"Windows 7";"Rachel's Experiment (D.T.)";"1.0";"2";"1";"1";"2";"1";"1";"2014-10-03 12:02:38.320";"2014-10-03 12:16:12.078";"1";"1";"1";"127";"126";"module.training_block4.exec-4128.GoNoGo4";;;;;;;;;;;;;;;;;;;;;;;;;;;;;;;;;;;;;;;;;;;;;;;;;;;;;;;;;;;"1248";"2014-10-03 12:09:23.148";"ST_correctStop";"24";"1";"FINISHED";"NONE";"success";"0";"1";"2014-10-03 12:09:21.898";"3";;;;;;;;;;;;;;;;;;;;;
"aaa";"26/01/95";;"Windows 7";"Rachel's Experiment (D.T.)";"1.0";"2";"1";"1";"2";"1";"1";"2014-10-03 12:02:38.320";"2014-10-03 12:16:12.078";"1";"1";"1";"128";"127";"module.training_block4.exec-4128.GoNoGo4";;;;;;;;;;;;;;;;;;;;;;;;;;;;;;;;;;;;;;;;;;;;;;;;;;;;;;;;;;;"1248";"2014-10-03 12:09:25.656";"NST_correctLoc";"18";"0";"FINISHED";"LEFT";"success";"508";"0";"2014-10-03 12:09:24.406";"3";;;;;;;;;;;;;;;;;;;;;
"aaa";"26/01/95";;"Windows 7";"Rachel's Experiment (D.T.)";"1.0";"2";"1";"1";"2";"1";"1";"2014-10-03 12:02:38.320";"2014-10-03 12:16:12.078";"1";"1";"1";"129";"128";"module.training_block4.exec-4128.GoNoGo4";;;;;;;;;;;;;;;;;;;;;;;;;;;;;;;;;;;;;;;;;;;;;;;;;;;;;;;;;;;"1248";"2014-10-03 12:09:28.164";"NST_correctLoc";"15";"1";"FINISHED";"RIGHT";"success";"616";"0";"2014-10-03 12:09:26.914";"2";;;;;;;;;;;;;;;;;;;;;
"aaa";"26/01/95";;"Windows 7";"Rachel's Experiment (D.T.)";"1.0";"2";"1";"1";"2";"1";"1";"2014-10-03 12:02:38.320";"2014-10-03 12:16:12.078";"1";"1";"1";"130";"129";"module.training_block4.exec-4128.GoNoGo4";;;;;;;;;;;;;;;;;;;;;;;;;;;;;;;;;;;;;;;;;;;;;;;;;;;;;;;;;;;"1248";"2014-10-03 12:09:30.671";"ST_correctStop";"27";"0";"FINISHED";"NONE";"success";"0";"1";"2014-10-03 12:09:29.421";"3";;;;;;;;;;;;;;;;;;;;;
"aaa";"26/01/95";;"Windows 7";"Rachel's Experiment (D.T.)";"1.0";"2";"1";"1";"2";"1";"1";"2014-10-03 12:02:38.320";"2014-10-03 12:16:12.078";"1";"1";"1";"131";"130";"module.training_block4.exec-4128.GoNoGo4";;;;;;;;;;;;;;;;;;;;;;;;;;;;;;;;;;;;;;;;;;;;;;;;;;;;;;;;;;;"1248";"2014-10-03 12:09:33.187";"ST_correctStop";"0";"0";"FINISHED";"NONE";"success";"0";"1";"2014-10-03 12:09:31.937";"1";;;;;;;;;;;;;;;;;;;;;
"aaa";"26/01/95";;"Windows 7";"Rachel's Experiment (D.T.)";"1.0";"2";"1";"1";"2";"1";"1";"2014-10-03 12:02:38.320";"2014-10-03 12:16:12.078";"1";"1";"1";"132";"131";"module.training_block4.exec-4128.GoNoGo4";;;;;;;;;;;;;;;;;;;;;;;;;;;;;;;;;;;;;;;;;;;;;;;;;;;;;;;;;;;"1248";"2014-10-03 12:09:35.695";"NST_correctLoc";"22";"1";"FINISHED";"RIGHT";"success";"476";"0";"2014-10-03 12:09:34.445";"3";;;;;;;;;;;;;;;;;;;;;
"aaa";"26/01/95";;"Windows 7";"Rachel's Experiment (D.T.)";"1.0";"2";"1";"1";"2";"1";"1";"2014-10-03 12:02:38.320";"2014-10-03 12:16:12.078";"1";"1";"1";"133";"132";"module.training_block4.exec-4128.GoNoGo4";;;;;;;;;;;;;;;;;;;;;;;;;;;;;;;;;;;;;;;;;;;;;;;;;;;;;;;;;;;"1248";"2014-10-03 12:09:38.203";"NST_correctLoc";"21";"0";"FINISHED";"LEFT";"success";"497";"0";"2014-10-03 12:09:36.953";"3";;;;;;;;;;;;;;;;;;;;;
"aaa";"26/01/95";;"Windows 7";"Rachel's Experiment (D.T.)";"1.0";"2";"1";"1";"2";"1";"1";"2014-10-03 12:02:38.320";"2014-10-03 12:16:12.078";"1";"1";"1";"134";"133";"module.training_block4.exec-4128.GoNoGo4";;;;;;;;;;;;;;;;;;;;;;;;;;;;;;;;;;;;;;;;;;;;;;;;;;;;;;;;;;;"1248";"2014-10-03 12:09:40.710";"NST_correctLoc";"26";"0";"FINISHED";"LEFT";"success";"437";"0";"2014-10-03 12:09:39.460";"3";;;;;;;;;;;;;;;;;;;;;
"aaa";"26/01/95";;"Windows 7";"Rachel's Experiment (D.T.)";"1.0";"2";"1";"1";"2";"1";"1";"2014-10-03 12:02:38.320";"2014-10-03 12:16:12.078";"1";"1";"1";"135";"134";"module.training_block4.exec-4128.GoNoGo4";;;;;;;;;;;;;;;;;;;;;;;;;;;;;;;;;;;;;;;;;;;;;;;;;;;;;;;;;;;"1245";"2014-10-03 12:09:43.218";"ST_correctStop";"32";"0";"FINISHED";"NONE";"success";"0";"1";"2014-10-03 12:09:41.968";"3";;;;;;;;;;;;;;;;;;;;;
"aaa";"26/01/95";;"Windows 7";"Rachel's Experiment (D.T.)";"1.0";"2";"1";"1";"2";"1";"1";"2014-10-03 12:02:38.320";"2014-10-03 12:16:12.078";"1";"1";"1";"136";"135";"module.training_block4.exec-4128.GoNoGo4";;;;;;;;;;;;;;;;;;;;;;;;;;;;;;;;;;;;;;;;;;;;;;;;;;;;;;;;;;;"1248";"2014-10-03 12:09:45.726";"ST_correctStop";"29";"1";"FINISHED";"NONE";"success";"0";"1";"2014-10-03 12:09:44.476";"3";;;;;;;;;;;;;;;;;;;;;
"aaa";"26/01/95";;"Windows 7";"Rachel's Experiment (D.T.)";"1.0";"2";"1";"1";"2";"1";"1";"2014-10-03 12:02:38.320";"2014-10-03 12:16:12.078";"1";"1";"1";"137";"136";"module.training_block4.exec-4128.GoNoGo4";;;;;;;;;;;;;;;;;;;;;;;;;;;;;;;;;;;;;;;;;;;;;;;;;;;;;;;;;;;"1248";"2014-10-03 12:09:48.234";"ST_correctStop";"20";"1";"FINISHED";"NONE";"success";"0";"1";"2014-10-03 12:09:46.984";"3";;;;;;;;;;;;;;;;;;;;;
"aaa";"26/01/95";;"Windows 7";"Rachel's Experiment (D.T.)";"1.0";"2";"1";"1";"2";"1";"1";"2014-10-03 12:02:38.320";"2014-10-03 12:16:12.078";"1";"1";"1";"138";"137";"module.training_block4.exec-4128.GoNoGo4";;;;;;;;;;;;;;;;;;;;;;;;;;;;;;;;;;;;;;;;;;;;;;;;;;;;;;;;;;;"1248";"2014-10-03 12:09:50.742";"NST_correctLoc";"11";"0";"FINISHED";"LEFT";"success";"510";"0";"2014-10-03 12:09:49.492";"2";;;;;;;;;;;;;;;;;;;;;
"aaa";"26/01/95";;"Windows 7";"Rachel's Experiment (D.T.)";"1.0";"2";"1";"1";"2";"1";"1";"2014-10-03 12:02:38.320";"2014-10-03 12:16:12.078";"1";"1";"1";"139";"138";"module.training_block4.exec-4128.GoNoGo4";;;;;;;;;;;;;;;;;;;;;;;;;;;;;;;;;;;;;;;;;;;;;;;;;;;;;;;;;;;"1248";"2014-10-03 12:09:53.250";"ST_correctStop";"25";"1";"FINISHED";"NONE";"success";"0";"1";"2014-10-03 12:09:52.000";"3";;;;;;;;;;;;;;;;;;;;;
"aaa";"26/01/95";;"Windows 7";"Rachel's Experiment (D.T.)";"1.0";"2";"1";"1";"2";"1";"1";"2014-10-03 12:02:38.320";"2014-10-03 12:16:12.078";"1";"1";"1";"140";"139";"module.training_block4.exec-4128.GoNoGo4";;;;;;;;;;;;;;;;;;;;;;;;;;;;;;;;;;;;;;;;;;;;;;;;;;;;;;;;;;;"1248";"2014-10-03 12:09:55.757";"NST_correctLoc";"16";"0";"FINISHED";"LEFT";"success";"478";"0";"2014-10-03 12:09:54.507";"2";;;;;;;;;;;;;;;;;;;;;
"aaa";"26/01/95";;"Windows 7";"Rachel's Experiment (D.T.)";"1.0";"2";"1";"1";"2";"1";"1";"2014-10-03 12:02:38.320";"2014-10-03 12:16:12.078";"1";"1";"1";"141";"140";"module.training_block4.exec-4128.GoNoGo4";;;;;;;;;;;;;;;;;;;;;;;;;;;;;;;;;;;;;;;;;;;;;;;;;;;;;;;;;;;"1248";"2014-10-03 12:09:58.265";"NST_correctLoc";"10";"1";"FINISHED";"RIGHT";"success";"522";"0";"2014-10-03 12:09:57.015";"2";;;;;;;;;;;;;;;;;;;;;
"aaa";"26/01/95";;"Windows 7";"Rachel's Experiment (D.T.)";"1.0";"2";"1";"1";"2";"1";"1";"2014-10-03 12:02:38.320";"2014-10-03 12:16:12.078";"1";"1";"1";"142";"141";"module.training_block4.exec-4128.GoNoGo4";;;;;;;;;;;;;;;;;;;;;;;;;;;;;;;;;;;;;;;;;;;;;;;;;;;;;;;;;;;"1248";"2014-10-03 12:10:00.773";"ST_correctStop";"6";"0";"FINISHED";"NONE";"success";"0";"1";"2014-10-03 12:09:59.523";"1";;;;;;;;;;;;;;;;;;;;;
"aaa";"26/01/95";;"Windows 7";"Rachel's Experiment (D.T.)";"1.0";"2";"1";"1";"2";"1";"1";"2014-10-03 12:02:38.320";"2014-10-03 12:16:12.078";"1";"1";"1";"143";"142";"module.training_block4.exec-4128.GoNoGo4";;;;;;;;;;;;;;;;;;;;;;;;;;;;;;;;;;;;;;;;;;;;;;;;;;;;;;;;;;;"1248";"2014-10-03 12:10:03.281";"ST_correctStop";"1";"1";"FINISHED";"NONE";"success";"0";"1";"2014-10-03 12:10:02.031";"1";;;;;;;;;;;;;;;;;;;;;
"aaa";"26/01/95";;"Windows 7";"Rachel's Experiment (D.T.)";"1.0";"2";"1";"1";"2";"1";"1";"2014-10-03 12:02:38.320";"2014-10-03 12:16:12.078";"1";"1";"1";"144";"143";"module.training_block4.exec-4128.GoNoGo4";;;;;;;;;;;;;;;;;;;;;;;;;;;;;;;;;;;;;;;;;;;;;;;;;;;;;;;;;;;"1248";"2014-10-03 12:10:05.789";"NST_correctLoc";"19";"1";"FINISHED";"RIGHT";"success";"591";"0";"2014-10-03 12:10:04.539";"3";;;;;;;;;;;;;;;;;;;;;
"aaa";"26/01/95";;"Windows 7";"Rachel's Experiment (D.T.)";"1.0";"2";"1";"1";"2";"1";"1";"2014-10-03 12:02:38.320";"2014-10-03 12:16:12.078";"1";"1";"1";"145";"144";"module.training_block4.exec-4128.GoNoGo4";;;;;;;;;;;;;;;;;;;;;;;;;;;;;;;;;;;;;;;;;;;;;;;;;;;;;;;;;;;"1248";"2014-10-03 12:10:08.296";"ST_correctStop";"4";"1";"FINISHED";"NONE";"success";"0";"1";"2014-10-03 12:10:07.046";"1";;;;;;;;;;;;;;;;;;;;;
"aaa";"26/01/95";;"Windows 7";"Rachel's Experiment (D.T.)";"1.0";"2";"1";"1";"2";"1";"1";"2014-10-03 12:02:38.320";"2014-10-03 12:16:12.078";"1";"1";"1";"146";"145";"module.training_block4.exec-4128.GoNoGo4";;;;;;;;;;;;;;;;;;;;;;;;;;;;;;;;;;;;;;;;;;;;;;;;;;;;;;;;;;;"1248";"2014-10-03 12:10:10.804";"NST_correctLoc";"13";"1";"FINISHED";"RIGHT";"success";"551";"0";"2014-10-03 12:10:09.554";"2";;;;;;;;;;;;;;;;;;;;;
"aaa";"26/01/95";;"Windows 7";"Rachel's Experiment (D.T.)";"1.0";"2";"1";"1";"2";"1";"1";"2014-10-03 12:02:38.320";"2014-10-03 12:16:12.078";"1";"1";"1";"147";"146";"module.training_block4.exec-4128.GoNoGo4";;;;;;;;;;;;;;;;;;;;;;;;;;;;;;;;;;;;;;;;;;;;;;;;;;;;;;;;;;;"1248";"2014-10-03 12:10:13.312";"NST_correctLoc";"33";"0";"FINISHED";"LEFT";"success";"907";"0";"2014-10-03 12:10:12.062";"3";;;;;;;;;;;;;;;;;;;;;
"aaa";"26/01/95";;"Windows 7";"Rachel's Experiment (D.T.)";"1.0";"2";"1";"1";"2";"1";"1";"2014-10-03 12:02:38.320";"2014-10-03 12:16:12.078";"1";"1";"1";"148";"147";"module.training_block4.exec-4128.GoNoGo4";;;;;;;;;;;;;;;;;;;;;;;;;;;;;;;;;;;;;;;;;;;;;;;;;;;;;;;;;;;"1248";"2014-10-03 12:10:15.820";"ST_correctStop";"8";"0";"FINISHED";"NONE";"success";"0";"1";"2014-10-03 12:10:14.570";"1";;;;;;;;;;;;;;;;;;;;;
"aaa";"26/01/95";;"Windows 7";"Rachel's Experiment (D.T.)";"1.0";"2";"1";"1";"2";"1";"1";"2014-10-03 12:02:38.320";"2014-10-03 12:16:12.078";"1";"1";"1";"149";"148";"module.training_block4.exec-4128.GoNoGo4";;;;;;;;;;;;;;;;;;;;;;;;;;;;;;;;;;;;;;;;;;;;;;;;;;;;;;;;;;;"1248";"2014-10-03 12:10:18.328";"ST_correctStop";"2";"0";"FINISHED";"NONE";"success";"0";"1";"2014-10-03 12:10:17.078";"1";;;;;;;;;;;;;;;;;;;;;
"aaa";"26/01/95";;"Windows 7";"Rachel's Experiment (D.T.)";"1.0";"2";"1";"1";"2";"1";"1";"2014-10-03 12:02:38.320";"2014-10-03 12:16:12.078";"1";"1";"1";"150";"149";"module.training_block4.exec-4128.GoNoGo4";;;;;;;;;;;;;;;;;;;;;;;;;;;;;;;;;;;;;;;;;;;;;;;;;;;;;;;;;;;"1248";"2014-10-03 12:10:20.835";"NST_correctLoc";"14";"0";"FINISHED";"LEFT";"success";"464";"0";"2014-10-03 12:10:19.585";"2";;;;;;;;;;;;;;;;;;;;;
"aaa";"26/01/95";;"Windows 7";"Rachel's Experiment (D.T.)";"1.0";"2";"1";"1";"2";"1";"1";"2014-10-03 12:02:38.320";"2014-10-03 12:16:12.078";"1";"1";"1";"151";"150";"module.training_block4.exec-4128.GoNoGo4";;;;;;;;;;;;;;;;;;;;;;;;;;;;;;;;;;;;;;;;;;;;;;;;;;;;;;;;;;;"1248";"2014-10-03 12:10:23.343";"ST_correctStop";"5";"0";"FINISHED";"NONE";"success";"0";"1";"2014-10-03 12:10:22.093";"1";;;;;;;;;;;;;;;;;;;;;
"aaa";"26/01/95";;"Windows 7";"Rachel's Experiment (D.T.)";"1.0";"2";"1";"1";"2";"1";"1";"2014-10-03 12:02:38.320";"2014-10-03 12:16:12.078";"1";"1";"1";"152";"151";"module.training_block4.exec-4128.GoNoGo4";;;;;;;;;;;;;;;;;;;;;;;;;;;;;;;;;;;;;;;;;;;;;;;;;;;;;;;;;;;"1248";"2014-10-03 12:10:25.851";"ST_correctStop";"7";"1";"FINISHED";"NONE";"success";"0";"1";"2014-10-03 12:10:24.601";"1";;;;;;;;;;;;;;;;;;;;;
"aaa";"26/01/95";;"Windows 7";"Rachel's Experiment (D.T.)";"1.0";"2";"1";"1";"2";"1";"1";"2014-10-03 12:02:38.320";"2014-10-03 12:16:12.078";"1";"1";"1";"153";"152";"module.training_block4.exec-4128.GoNoGo4";;;;;;;;;;;;;;;;;;;;;;;;;;;;;;;;;;;;;;;;;;;;;;;;;;;;;;;;;;;"1248";"2014-10-03 12:10:28.359";"ST_correctStop";"3";"0";"FINISHED";"NONE";"success";"0";"1";"2014-10-03 12:10:27.109";"1";;;;;;;;;;;;;;;;;;;;;
"aaa";"26/01/95";;"Windows 7";"Rachel's Experiment (D.T.)";"1.0";"2";"1";"1";"2";"1";"1";"2014-10-03 12:02:38.320";"2014-10-03 12:16:12.078";"1";"1";"1";"154";"153";"module.training_block4.exec-4128.GoNoGo4";;;;;;;;;;;;;;;;;;;;;;;;;;;;;;;;;;;;;;;;;;;;;;;;;;;;;;;;;;;"1248";"2014-10-03 12:10:30.867";"NST_correctLoc";"23";"0";"FINISHED";"LEFT";"success";"552";"0";"2014-10-03 12:10:29.617";"3";;;;;;;;;;;;;;;;;;;;;
"aaa";"26/01/95";;"Windows 7";"Rachel's Experiment (D.T.)";"1.0";"2";"1";"1";"2";"1";"1";"2014-10-03 12:02:38.320";"2014-10-03 12:16:12.078";"1";"1";"1";"155";"154";"module.training_block4.exec-4128.GoNoGo4";;;;;;;;;;;;;;;;;;;;;;;;;;;;;;;;;;;;;;;;;;;;;;;;;;;;;;;;;;;"1248";"2014-10-03 12:10:33.375";"ST_correctStop";"28";"0";"FINISHED";"NONE";"success";"0";"1";"2014-10-03 12:10:32.125";"3";;;;;;;;;;;;;;;;;;;;;
"aaa";"26/01/95";;"Windows 7";"Rachel's Experiment (D.T.)";"1.0";"2";"1";"1";"2";"1";"1";"2014-10-03 12:02:38.320";"2014-10-03 12:16:12.078";"1";"1";"1";"156";"155";"module.training_block4.exec-4128.GoNoGo4";;;;;;;;;;;;;;;;;;;;;;;;;;;;;;;;;;;;;;;;;;;;;;;;;;;;;;;;;;;"1248";"2014-10-03 12:10:35.882";"NST_correctLoc";"35";"0";"FINISHED";"LEFT";"success";"465";"0";"2014-10-03 12:10:34.632";"3";;;;;;;;;;;;;;;;;;;;;
"aaa";"26/01/95";;"Windows 7";"Rachel's Experiment (D.T.)";"1.0";"2";"1";"1";"2";"1";"1";"2014-10-03 12:02:38.320";"2014-10-03 12:16:12.078";"1";"1";"1";"157";"156";"module.training_block4.exec-4128.GoNoGo4";;;;;;;;;;;;;;;;;;;;;;;;;;;;;;;;;;;;;;;;;;;;;;;;;;;;;;;;;;;"1248";"2014-10-03 12:10:38.390";"NST_correctLoc";"9";"1";"FINISHED";"RIGHT";"success";"493";"0";"2014-10-03 12:10:37.140";"2";;;;;;;;;;;;;;;;;;;;;
"aaa";"26/01/95";;"Windows 7";"Rachel's Experiment (D.T.)";"1.0";"2";"1";"1";"2";"1";"1";"2014-10-03 12:02:38.320";"2014-10-03 12:16:12.078";"1";"1";"1";"158";"157";"module.training_block4.exec-4128.GoNoGo4";;;;;;;;;;;;;;;;;;;;;;;;;;;;;;;;;;;;;;;;;;;;;;;;;;;;;;;;;;;"1248";"2014-10-03 12:10:40.898";"NST_correctLoc";"31";"1";"FINISHED";"RIGHT";"success";"625";"0";"2014-10-03 12:10:39.648";"3";;;;;;;;;;;;;;;;;;;;;
"aaa";"26/01/95";;"Windows 7";"Rachel's Experiment (D.T.)";"1.0";"2";"1";"1";"2";"1";"1";"2014-10-03 12:02:38.320";"2014-10-03 12:16:12.078";"1";"1";"1";"159";"158";"module.training_block4.exec-4128.GoNoGo4";;;;;;;;;;;;;;;;;;;;;;;;;;;;;;;;;;;;;;;;;;;;;;;;;;;;;;;;;;;"1248";"2014-10-03 12:10:43.406";"NST_correctLoc";"12";"1";"FINISHED";"RIGHT";"success";"413";"0";"2014-10-03 12:10:42.156";"2";;;;;;;;;;;;;;;;;;;;;
"aaa";"26/01/95";;"Windows 7";"Rachel's Experiment (D.T.)";"1.0";"2";"1";"1";"2";"1";"1";"2014-10-03 12:02:38.320";"2014-10-03 12:16:12.078";"1";"1";"1";"160";"159";"module.devaluation_practice.exec-6647.devalPractice";;;;;;;;;;;;"16012";"2014-10-03 12:11:33.750";"0";"8";"6";"7";"4931";"2680";"5368";"2014-10-03 12:11:17.742";;;;;;;;;;;;;;;;;;;;;;;;;;;;;;;;;;;;;;;;;;;;;;;;;;;;;;;;;;;;;;;;;;;;;;
"aaa";"26/01/95";;"Windows 7";"Rachel's Experiment (D.T.)";"1.0";"2";"1";"1";"2";"1";"1";"2014-10-03 12:02:38.320";"2014-10-03 12:16:12.078";"1";"1";"1";"161";"160";"module.devaluation_practice.exec-6647.devalPractice";;;;;;;;;;;;"12485";"2014-10-03 12:11:46.257";"1";"7";"5";"6";"3366";"2913";"3203";"2014-10-03 12:11:33.773";;;;;;;;;;;;;;;;;;;;;;;;;;;;;;;;;;;;;;;;;;;;;;;;;;;;;;;;;;;;;;;;;;;;;;
"aaa";"26/01/95";;"Windows 7";"Rachel's Experiment (D.T.)";"1.0";"2";"1";"1";"2";"1";"1";"2014-10-03 12:02:38.320";"2014-10-03 12:16:12.078";"1";"1";"1";"162";"161";"module.devaluation_practice.exec-6647.devalPractice";;;;;;;;;;;;"10436";"2014-10-03 12:11:56.710";"2";"5";"5";"6";"1597";"2509";"3335";"2014-10-03 12:11:46.273";;;;;;;;;;;;;;;;;;;;;;;;;;;;;;;;;;;;;;;;;;;;;;;;;;;;;;;;;;;;;;;;;;;;;;
"aaa";"26/01/95";;"Windows 7";"Rachel's Experiment (D.T.)";"1.0";"2";"1";"1";"2";"1";"1";"2014-10-03 12:02:38.320";"2014-10-03 12:16:12.078";"1";"1";"1";"163";"162";"module.devaluation_practice.exec-6647.devalPractice";;;;;;;;;;;;"10093";"2014-10-03 12:12:06.820";"3";"6";"7";"8";"3757";"1770";"1570";"2014-10-03 12:11:56.726";;;;;;;;;;;;;;;;;;;;;;;;;;;;;;;;;;;;;;;;;;;;;;;;;;;;;;;;;;;;;;;;;;;;;;
"aaa";"26/01/95";;"Windows 7";"Rachel's Experiment (D.T.)";"1.0";"2";"1";"1";"2";"1";"1";"2014-10-03 12:02:38.320";"2014-10-03 12:16:12.078";"1";"1";"1";"164";"163";"module.devaluation_block1.exec-2067.deval1";"7980";"2014-10-03 12:12:22.585";"19";"8";"7";"8";"1830";"1593";"1558";"2014-10-03 12:12:14.601";"3";;;;;;;;;;;;;;;;;;;;;;;;;;;;;;;;;;;;;;;;;;;;;;;;;;;;;;;;;;;;;;;;;;;;;;;;;;;;;;;;
"aaa";"26/01/95";;"Windows 7";"Rachel's Experiment (D.T.)";"1.0";"2";"1";"1";"2";"1";"1";"2014-10-03 12:02:38.320";"2014-10-03 12:16:12.078";"1";"1";"1";"165";"164";"module.devaluation_block1.exec-2067.deval1";"11532";"2014-10-03 12:12:34.132";"7";"6";"5";"6";"2335";"2558";"3643";"2014-10-03 12:12:22.601";"1";;;;;;;;;;;;;;;;;;;;;;;;;;;;;;;;;;;;;;;;;;;;;;;;;;;;;;;;;;;;;;;;;;;;;;;;;;;;;;;;
"aaa";"26/01/95";;"Windows 7";"Rachel's Experiment (D.T.)";"1.0";"2";"1";"1";"2";"1";"1";"2014-10-03 12:02:38.320";"2014-10-03 12:16:12.078";"1";"1";"1";"166";"165";"module.devaluation_block1.exec-2067.deval1";"7733";"2014-10-03 12:12:41.890";"24";"8";"9";"9";"1812";"1662";"1259";"2014-10-03 12:12:34.156";"3";;;;;;;;;;;;;;;;;;;;;;;;;;;;;;;;;;;;;;;;;;;;;;;;;;;;;;;;;;;;;;;;;;;;;;;;;;;;;;;;
"aaa";"26/01/95";;"Windows 7";"Rachel's Experiment (D.T.)";"1.0";"2";"1";"1";"2";"1";"1";"2014-10-03 12:02:38.320";"2014-10-03 12:16:12.078";"1";"1";"1";"167";"166";"module.devaluation_block1.exec-2067.deval1";"7677";"2014-10-03 12:12:49.585";"18";"7";"6";"9";"1494";"1983";"1206";"2014-10-03 12:12:41.906";"3";;;;;;;;;;;;;;;;;;;;;;;;;;;;;;;;;;;;;;;;;;;;;;;;;;;;;;;;;;;;;;;;;;;;;;;;;;;;;;;;
"aaa";"26/01/95";;"Windows 7";"Rachel's Experiment (D.T.)";"1.0";"2";"1";"1";"2";"1";"1";"2014-10-03 12:02:38.320";"2014-10-03 12:16:12.078";"1";"1";"1";"168";"167";"module.devaluation_block1.exec-2067.deval1";"8565";"2014-10-03 12:12:58.164";"25";"7";"8";"8";"1990";"1662";"1906";"2014-10-03 12:12:49.601";"3";;;;;;;;;;;;;;;;;;;;;;;;;;;;;;;;;;;;;;;;;;;;;;;;;;;;;;;;;;;;;;;;;;;;;;;;;;;;;;;;
"aaa";"26/01/95";;"Windows 7";"Rachel's Experiment (D.T.)";"1.0";"2";"1";"1";"2";"1";"1";"2014-10-03 12:02:38.320";"2014-10-03 12:16:12.078";"1";"1";"1";"169";"168";"module.devaluation_block1.exec-2067.deval1";"8317";"2014-10-03 12:13:06.500";"4";"9";"7";"8";"1607";"1574";"2124";"2014-10-03 12:12:58.187";"1";;;;;;;;;;;;;;;;;;;;;;;;;;;;;;;;;;;;;;;;;;;;;;;;;;;;;;;;;;;;;;;;;;;;;;;;;;;;;;;;
"aaa";"26/01/95";;"Windows 7";"Rachel's Experiment (D.T.)";"1.0";"2";"1";"1";"2";"1";"1";"2014-10-03 12:02:38.320";"2014-10-03 12:16:12.078";"1";"1";"1";"170";"169";"module.devaluation_block1.exec-2067.deval1";"7230";"2014-10-03 12:13:13.750";"2";"6";"6";"7";"1557";"1151";"1526";"2014-10-03 12:13:06.523";"1";;;;;;;;;;;;;;;;;;;;;;;;;;;;;;;;;;;;;;;;;;;;;;;;;;;;;;;;;;;;;;;;;;;;;;;;;;;;;;;;
"aaa";"26/01/95";;"Windows 7";"Rachel's Experiment (D.T.)";"1.0";"2";"1";"1";"2";"1";"1";"2014-10-03 12:02:38.320";"2014-10-03 12:16:12.078";"1";"1";"1";"171";"170";"module.devaluation_block1.exec-2067.deval1";"8628";"2014-10-03 12:13:22.398";"13";"8";"6";"8";"1267";"2939";"1421";"2014-10-03 12:13:13.773";"2";;;;;;;;;;;;;;;;;;;;;;;;;;;;;;;;;;;;;;;;;;;;;;;;;;;;;;;;;;;;;;;;;;;;;;;;;;;;;;;;
"aaa";"26/01/95";;"Windows 7";"Rachel's Experiment (D.T.)";"1.0";"2";"1";"1";"2";"1";"1";"2014-10-03 12:02:38.320";"2014-10-03 12:16:12.078";"1";"1";"1";"172";"171";"module.devaluation_block1.exec-2067.deval1";"7981";"2014-10-03 12:13:30.398";"21";"6";"6";"8";"1818";"1283";"1882";"2014-10-03 12:13:22.414";"3";;;;;;;;;;;;;;;;;;;;;;;;;;;;;;;;;;;;;;;;;;;;;;;;;;;;;;;;;;;;;;;;;;;;;;;;;;;;;;;;
"aaa";"26/01/95";;"Windows 7";"Rachel's Experiment (D.T.)";"1.0";"2";"1";"1";"2";"1";"1";"2014-10-03 12:02:38.320";"2014-10-03 12:16:12.078";"1";"1";"1";"173";"172";"module.devaluation_block1.exec-2067.deval1";"9477";"2014-10-03 12:13:39.898";"5";"6";"4";"4";"2298";"2115";"2069";"2014-10-03 12:13:30.414";"1";;;;;;;;;;;;;;;;;;;;;;;;;;;;;;;;;;;;;;;;;;;;;;;;;;;;;;;;;;;;;;;;;;;;;;;;;;;;;;;;
"aaa";"26/01/95";;"Windows 7";"Rachel's Experiment (D.T.)";"1.0";"2";"1";"1";"2";"1";"1";"2014-10-03 12:02:38.320";"2014-10-03 12:16:12.078";"1";"1";"1";"174";"173";"module.devaluation_block1.exec-2067.deval1";"10862";"2014-10-03 12:13:50.773";"16";"5";"3";"6";"2606";"2479";"2785";"2014-10-03 12:13:39.914";"2";;;;;;;;;;;;;;;;;;;;;;;;;;;;;;;;;;;;;;;;;;;;;;;;;;;;;;;;;;;;;;;;;;;;;;;;;;;;;;;;
"aaa";"26/01/95";;"Windows 7";"Rachel's Experiment (D.T.)";"1.0";"2";"1";"1";"2";"1";"1";"2014-10-03 12:02:38.320";"2014-10-03 12:16:12.078";"1";"1";"1";"175";"174";"module.devaluation_block1.exec-2067.deval1";"8421";"2014-10-03 12:13:59.218";"20";"4";"3";"5";"1579";"1872";"1973";"2014-10-03 12:13:50.796";"3";;;;;;;;;;;;;;;;;;;;;;;;;;;;;;;;;;;;;;;;;;;;;;;;;;;;;;;;;;;;;;;;;;;;;;;;;;;;;;;;
"aaa";"26/01/95";;"Windows 7";"Rachel's Experiment (D.T.)";"1.0";"2";"1";"1";"2";"1";"1";"2014-10-03 12:02:38.320";"2014-10-03 12:16:12.078";"1";"1";"1";"176";"175";"module.devaluation_block1.exec-2067.deval1";"10669";"2014-10-03 12:14:09.906";"9";"6";"5";"8";"1830";"4224";"1621";"2014-10-03 12:13:59.234";"2";;;;;;;;;;;;;;;;;;;;;;;;;;;;;;;;;;;;;;;;;;;;;;;;;;;;;;;;;;;;;;;;;;;;;;;;;;;;;;;;
"aaa";"26/01/95";;"Windows 7";"Rachel's Experiment (D.T.)";"1.0";"2";"1";"1";"2";"1";"1";"2014-10-03 12:02:38.320";"2014-10-03 12:16:12.078";"1";"1";"1";"177";"176";"module.devaluation_block1.exec-2067.deval1";"10869";"2014-10-03 12:14:20.789";"11";"7";"2";"4";"2062";"3433";"2380";"2014-10-03 12:14:09.921";"2";;;;;;;;;;;;;;;;;;;;;;;;;;;;;;;;;;;;;;;;;;;;;;;;;;;;;;;;;;;;;;;;;;;;;;;;;;;;;;;;
"aaa";"26/01/95";;"Windows 7";"Rachel's Experiment (D.T.)";"1.0";"2";"1";"1";"2";"1";"1";"2014-10-03 12:02:38.320";"2014-10-03 12:16:12.078";"1";"1";"1";"178";"177";"module.devaluation_block1.exec-2067.deval1";"8765";"2014-10-03 12:14:29.578";"26";"8";"7";"9";"1875";"2599";"1292";"2014-10-03 12:14:20.812";"3";;;;;;;;;;;;;;;;;;;;;;;;;;;;;;;;;;;;;;;;;;;;;;;;;;;;;;;;;;;;;;;;;;;;;;;;;;;;;;;;
"aaa";"26/01/95";;"Windows 7";"Rachel's Experiment (D.T.)";"1.0";"2";"1";"1";"2";"1";"1";"2014-10-03 12:02:38.320";"2014-10-03 12:16:12.078";"1";"1";"1";"179";"178";"module.devaluation_block1.exec-2067.deval1";"8534";"2014-10-03 12:14:38.125";"1";"5";"5";"6";"1918";"1769";"1856";"2014-10-03 12:14:29.593";"1";;;;;;;;;;;;;;;;;;;;;;;;;;;;;;;;;;;;;;;;;;;;;;;;;;;;;;;;;;;;;;;;;;;;;;;;;;;;;;;;
"aaa";"26/01/95";;"Windows 7";"Rachel's Experiment (D.T.)";"1.0";"2";"1";"1";"2";"1";"1";"2014-10-03 12:02:38.320";"2014-10-03 12:16:12.078";"1";"1";"1";"180";"179";"module.devaluation_block1.exec-2067.deval1";"7637";"2014-10-03 12:14:45.781";"14";"7";"4";"8";"1035";"2042";"1560";"2014-10-03 12:14:38.148";"2";;;;;;;;;;;;;;;;;;;;;;;;;;;;;;;;;;;;;;;;;;;;;;;;;;;;;;;;;;;;;;;;;;;;;;;;;;;;;;;;
"aaa";"26/01/95";;"Windows 7";"Rachel's Experiment (D.T.)";"1.0";"2";"1";"1";"2";"1";"1";"2014-10-03 12:02:38.320";"2014-10-03 12:16:12.078";"1";"1";"1";"181";"180";"module.devaluation_block1.exec-2067.deval1";"8620";"2014-10-03 12:14:54.421";"3";"7";"6";"8";"1595";"1729";"2301";"2014-10-03 12:14:45.804";"1";;;;;;;;;;;;;;;;;;;;;;;;;;;;;;;;;;;;;;;;;;;;;;;;;;;;;;;;;;;;;;;;;;;;;;;;;;;;;;;;
"aaa";"26/01/95";;"Windows 7";"Rachel's Experiment (D.T.)";"1.0";"2";"1";"1";"2";"1";"1";"2014-10-03 12:02:38.320";"2014-10-03 12:16:12.078";"1";"1";"1";"182";"181";"module.devaluation_block1.exec-2067.deval1";"8157";"2014-10-03 12:15:02.601";"15";"4";"4";"6";"1954";"1858";"1350";"2014-10-03 12:14:54.437";"2";;;;;;;;;;;;;;;;;;;;;;;;;;;;;;;;;;;;;;;;;;;;;;;;;;;;;;;;;;;;;;;;;;;;;;;;;;;;;;;;
"aaa";"26/01/95";;"Windows 7";"Rachel's Experiment (D.T.)";"1.0";"2";"1";"1";"2";"1";"1";"2014-10-03 12:02:38.320";"2014-10-03 12:16:12.078";"1";"1";"1";"183";"182";"module.devaluation_block1.exec-2067.deval1";"10149";"2014-10-03 12:15:12.765";"22";"6";"5";"7";"1727";"2104";"3324";"2014-10-03 12:15:02.617";"3";;;;;;;;;;;;;;;;;;;;;;;;;;;;;;;;;;;;;;;;;;;;;;;;;;;;;;;;;;;;;;;;;;;;;;;;;;;;;;;;
"aaa";"26/01/95";;"Windows 7";"Rachel's Experiment (D.T.)";"1.0";"2";"1";"1";"2";"1";"1";"2014-10-03 12:02:38.320";"2014-10-03 12:16:12.078";"1";"1";"1";"184";"183";"module.devaluation_block1.exec-2067.deval1";"7205";"2014-10-03 12:15:19.992";"12";"6";"8";"9";"1730";"1265";"1216";"2014-10-03 12:15:12.781";"2";;;;;;;;;;;;;;;;;;;;;;;;;;;;;;;;;;;;;;;;;;;;;;;;;;;;;;;;;;;;;;;;;;;;;;;;;;;;;;;;
"aaa";"26/01/95";;"Windows 7";"Rachel's Experiment (D.T.)";"1.0";"2";"1";"1";"2";"1";"1";"2014-10-03 12:02:38.320";"2014-10-03 12:16:12.078";"1";"1";"1";"185";"184";"module.devaluation_block1.exec-2067.deval1";"9700";"2014-10-03 12:15:29.710";"23";"6";"3";"2";"1592";"2149";"2962";"2014-10-03 12:15:20.007";"3";;;;;;;;;;;;;;;;;;;;;;;;;;;;;;;;;;;;;;;;;;;;;;;;;;;;;;;;;;;;;;;;;;;;;;;;;;;;;;;;
"aaa";"26/01/95";;"Windows 7";"Rachel's Experiment (D.T.)";"1.0";"2";"1";"1";"2";"1";"1";"2014-10-03 12:02:38.320";"2014-10-03 12:16:12.078";"1";"1";"1";"186";"185";"module.devaluation_block1.exec-2067.deval1";"9829";"2014-10-03 12:15:39.554";"6";"5";"4";"5";"2057";"1528";"3251";"2014-10-03 12:15:29.726";"1";;;;;;;;;;;;;;;;;;;;;;;;;;;;;;;;;;;;;;;;;;;;;;;;;;;;;;;;;;;;;;;;;;;;;;;;;;;;;;;;
"aaa";"26/01/95";;"Windows 7";"Rachel's Experiment (D.T.)";"1.0";"2";"1";"1";"2";"1";"1";"2014-10-03 12:02:38.320";"2014-10-03 12:16:12.078";"1";"1";"1";"187";"186";"module.devaluation_block1.exec-2067.deval1";"7797";"2014-10-03 12:15:47.375";"17";"4";"4";"4";"1117";"1735";"1948";"2014-10-03 12:15:39.578";"2";;;;;;;;;;;;;;;;;;;;;;;;;;;;;;;;;;;;;;;;;;;;;;;;;;;;;;;;;;;;;;;;;;;;;;;;;;;;;;;;
"aaa";"26/01/95";;"Windows 7";"Rachel's Experiment (D.T.)";"1.0";"2";"1";"1";"2";"1";"1";"2014-10-03 12:02:38.320";"2014-10-03 12:16:12.078";"1";"1";"1";"188";"187";"module.devaluation_block1.exec-2067.deval1";"5917";"2014-10-03 12:15:53.312";"8";"5";"4";"6";"529";"1226";"1162";"2014-10-03 12:15:47.390";"1";;;;;;;;;;;;;;;;;;;;;;;;;;;;;;;;;;;;;;;;;;;;;;;;;;;;;;;;;;;;;;;;;;;;;;;;;;;;;;;;
"aaa";"26/01/95";;"Windows 7";"Rachel's Experiment (D.T.)";"1.0";"2";"1";"1";"2";"1";"1";"2014-10-03 12:02:38.320";"2014-10-03 12:16:12.078";"1";"1";"1";"189";"188";"module.devaluation_block1.exec-2067.deval1";"9053";"2014-10-03 12:16:02.382";"10";"7";"3";"7";"1831";"2087";"2143";"2014-10-03 12:15:53.328";"2";;;;;;;;;;;;;;;;;;;;;;;;;;;;;;;;;;;;;;;;;;;;;;;;;;;;;;;;;;;;;;;;;;;;;;;;;;;;;;;;
"aaa";"26/01/95";;"Windows 7";"Rachel's Experiment (D.T.)";"1.0";"2";"1";"1";"2";"1";"1";"2014-10-03 12:02:38.320";"2014-10-03 12:16:12.078";"1";"1";"1";"190";"189";"module.devaluation_block1.exec-2067.deval1";"8149";"2014-10-03 12:16:10.546";"0";"4";"4";"6";"1689";"1465";"1998";"2014-10-03 12:16:02.398";"1";;;;;;;;;;;;;;;;;;;;;;;;;;;;;;;;;;;;;;;;;;;;;;;;;;;;;;;;;;;;;;;;;;;;;;;;;;;;;;;;
