"user.name";"user.yearOfBirth";"user.sex";"user.osName";"module.name";"module.version";"module.online.subject.code";"module.online.study.id";"module.online.module.nr";"module.online.group.nr";"session.id";"session.index";"session.startTime";"session.endTime";"session.completed";"session.node-1740.conditionType";"session.node-4231.DevalQorder";"trial.id";"trial.index";"trial.name";"trial.deval1.durationTime";"trial.deval1.endTime";"trial.deval1.icon";"trial.deval1.Resp_Attractive";"trial.deval1.Resp_Eat";"trial.deval1.Resp_Taste";"trial.deval1.RT_Attractive";"trial.deval1.RT_Eat";"trial.deval1.RT_Taste";"trial.deval1.startTime";"trial.deval1.stimulus type";"trial.devalPractice.durationTime";"trial.devalPractice.endTime";"trial.devalPractice.icon";"trial.devalPractice.Resp_Attractive";"trial.devalPractice.Resp_Eat";"trial.devalPractice.Resp_Taste";"trial.devalPractice.RT_Attractive";"trial.devalPractice.RT_Eat";"trial.devalPractice.RT_Taste";"trial.devalPractice.startTime";"trial.devalPractice.stimulus type";"trial.GoNoGo1.durationTime";"trial.GoNoGo1.endTime";"trial.GoNoGo1.Error Type";"trial.GoNoGo1.icon";"trial.GoNoGo1.location";"trial.GoNoGo1.outcome";"trial.GoNoGo1.response";"trial.GoNoGo1.result";"trial.GoNoGo1.RT";"trial.GoNoGo1.signal";"trial.GoNoGo1.startTime";"trial.GoNoGo1.stimulus type";"trial.GoNoGo2.durationTime";"trial.GoNoGo2.endTime";"trial.GoNoGo2.Error Type";"trial.GoNoGo2.icon";"trial.GoNoGo2.location";"trial.GoNoGo2.outcome";"trial.GoNoGo2.response";"trial.GoNoGo2.result";"trial.GoNoGo2.RT";"trial.GoNoGo2.signal";"trial.GoNoGo2.startTime";"trial.GoNoGo2.stimulus type";"trial.GoNoGo3.durationTime";"trial.GoNoGo3.endTime";"trial.GoNoGo3.Error Type";"trial.GoNoGo3.icon";"trial.GoNoGo3.location";"trial.GoNoGo3.outcome";"trial.GoNoGo3.response";"trial.GoNoGo3.result";"trial.GoNoGo3.RT";"trial.GoNoGo3.signal";"trial.GoNoGo3.startTime";"trial.GoNoGo3.stimulus type";"trial.GoNoGo4.durationTime";"trial.GoNoGo4.endTime";"trial.GoNoGo4.Error Type";"trial.GoNoGo4.icon";"trial.GoNoGo4.location";"trial.GoNoGo4.outcome";"trial.GoNoGo4.response";"trial.GoNoGo4.result";"trial.GoNoGo4.RT";"trial.GoNoGo4.signal";"trial.GoNoGo4.startTime";"trial.GoNoGo4.stimulus type";"trial.GoNoGo_Practice.durationTime";"trial.GoNoGo_Practice.endTime";"trial.GoNoGo_Practice.icon";"trial.GoNoGo_Practice.location";"trial.GoNoGo_Practice.outcome";"trial.GoNoGo_Practice.response";"trial.GoNoGo_Practice.result";"trial.GoNoGo_Practice.RT";"trial.GoNoGo_Practice.signal";"trial.GoNoGo_Practice.startTime";"trial.GoNoGo_Practice.stimulus type";"trial.GoNoGo_Tutorial.durationTime";"trial.GoNoGo_Tutorial.endTime";"trial.GoNoGo_Tutorial.icon";"trial.GoNoGo_Tutorial.location";"trial.GoNoGo_Tutorial.outcome";"trial.GoNoGo_Tutorial.response";"trial.GoNoGo_Tutorial.result";"trial.GoNoGo_Tutorial.RT";"trial.GoNoGo_Tutorial.signal";"trial.GoNoGo_Tutorial.startTime"
"2014_021";"1995";;"Windows 7";"Rachel's Experiment (D.T.)";"1.0";"2";"1";"1";"2";"1";"1";"2014-10-16 13:32:46.344";"2014-10-16 13:46:08.450";"1";"0";"1";"1";"0";"module.GoNoGotutorial.exec-7121.GoNoGo_Tutorial";;;;;;;;;;;;;;;;;;;;;;;;;;;;;;;;;;;;;;;;;;;;;;;;;;;;;;;;;;;;;;;;;;;;;;;;;;;;;;;;;;"3998";"2014-10-16 13:33:52.815";"leftResponse";"0";"FINISHED";"LEFT";"success";"1448";"0";"2014-10-16 13:33:48.806"
"2014_021";"1995";;"Windows 7";"Rachel's Experiment (D.T.)";"1.0";"2";"1";"1";"2";"1";"1";"2014-10-16 13:32:46.344";"2014-10-16 13:46:08.450";"1";"0";"1";"2";"1";"module.GoNoGotutorial.exec-7121.GoNoGo_Tutorial";;;;;;;;;;;;;;;;;;;;;;;;;;;;;;;;;;;;;;;;;;;;;;;;;;;;;;;;;;;;;;;;;;;;;;;;;;;;;;;;;;"4003";"2014-10-16 13:33:58.119";"rightResponse";"1";"FINISHED";"RIGHT";"success";"1085";"0";"2014-10-16 13:33:54.110"
"2014_021";"1995";;"Windows 7";"Rachel's Experiment (D.T.)";"1.0";"2";"1";"1";"2";"1";"1";"2014-10-16 13:32:46.344";"2014-10-16 13:46:08.450";"1";"0";"1";"3";"2";"module.GoNoGotutorial.exec-7121.GoNoGo_Tutorial";;;;;;;;;;;;;;;;;;;;;;;;;;;;;;;;;;;;;;;;;;;;;;;;;;;;;;;;;;;;;;;;;;;;;;;;;;;;;;;;;;"4003";"2014-10-16 13:34:03.423";"quickResponse";"0";"FINISHED";"LEFT";"success";"885";"0";"2014-10-16 13:33:59.414"
"2014_021";"1995";;"Windows 7";"Rachel's Experiment (D.T.)";"1.0";"2";"1";"1";"2";"1";"1";"2014-10-16 13:32:46.344";"2014-10-16 13:46:08.450";"1";"0";"1";"4";"3";"module.GoNoGopractice.exec-2200.GoNoGo_Practice";;;;;;;;;;;;;;;;;;;;;;;;;;;;;;;;;;;;;;;;;;;;;;;;;;;;;;;;;;;;;;;;;;;;;;;"1959";"2014-10-16 13:34:11.379";"18";"0";"FINISHED";"LEFT";"success";"428";"0";"2014-10-16 13:34:09.414";"3";;;;;;;;;;
"2014_021";"1995";;"Windows 7";"Rachel's Experiment (D.T.)";"1.0";"2";"1";"1";"2";"1";"1";"2014-10-16 13:32:46.344";"2014-10-16 13:46:08.450";"1";"0";"1";"5";"4";"module.GoNoGopractice.exec-2200.GoNoGo_Practice";;;;;;;;;;;;;;;;;;;;;;;;;;;;;;;;;;;;;;;;;;;;;;;;;;;;;;;;;;;;;;;;;;;;;;;"1953";"2014-10-16 13:34:14.624";"21";"1";"FINISHED";"RIGHT";"success";"299";"0";"2014-10-16 13:34:12.659";"3";;;;;;;;;;
"2014_021";"1995";;"Windows 7";"Rachel's Experiment (D.T.)";"1.0";"2";"1";"1";"2";"1";"1";"2014-10-16 13:32:46.344";"2014-10-16 13:46:08.450";"1";"0";"1";"6";"5";"module.GoNoGopractice.exec-2200.GoNoGo_Practice";;;;;;;;;;;;;;;;;;;;;;;;;;;;;;;;;;;;;;;;;;;;;;;;;;;;;;;;;;;;;;;;;;;;;;;"1959";"2014-10-16 13:34:17.869";"14";"1";"FINISHED";"RIGHT";"success";"379";"0";"2014-10-16 13:34:15.903";"2";;;;;;;;;;
"2014_021";"1995";;"Windows 7";"Rachel's Experiment (D.T.)";"1.0";"2";"1";"1";"2";"1";"1";"2014-10-16 13:32:46.344";"2014-10-16 13:46:08.450";"1";"0";"1";"7";"6";"module.GoNoGopractice.exec-2200.GoNoGo_Practice";;;;;;;;;;;;;;;;;;;;;;;;;;;;;;;;;;;;;;;;;;;;;;;;;;;;;;;;;;;;;;;;;;;;;;;"1959";"2014-10-16 13:34:21.114";"26";"0";"FINISHED";"LEFT";"success";"367";"0";"2014-10-16 13:34:19.148";"3";;;;;;;;;;
"2014_021";"1995";;"Windows 7";"Rachel's Experiment (D.T.)";"1.0";"2";"1";"1";"2";"1";"1";"2014-10-16 13:32:46.344";"2014-10-16 13:46:08.450";"1";"0";"1";"8";"7";"module.GoNoGopractice.exec-2200.GoNoGo_Practice";;;;;;;;;;;;;;;;;;;;;;;;;;;;;;;;;;;;;;;;;;;;;;;;;;;;;;;;;;;;;;;;;;;;;;;"1959";"2014-10-16 13:34:24.359";"2";"0";"FINISHED";"LEFT";"success";"370";"0";"2014-10-16 13:34:22.393";"1";;;;;;;;;;
"2014_021";"1995";;"Windows 7";"Rachel's Experiment (D.T.)";"1.0";"2";"1";"1";"2";"1";"1";"2014-10-16 13:32:46.344";"2014-10-16 13:46:08.450";"1";"0";"1";"9";"8";"module.GoNoGopractice.exec-2200.GoNoGo_Practice";;;;;;;;;;;;;;;;;;;;;;;;;;;;;;;;;;;;;;;;;;;;;;;;;;;;;;;;;;;;;;;;;;;;;;;"1960";"2014-10-16 13:34:27.603";"30";"0";"FINISHED";"LEFT";"success";"398";"0";"2014-10-16 13:34:25.638";"3";;;;;;;;;;
"2014_021";"1995";;"Windows 7";"Rachel's Experiment (D.T.)";"1.0";"2";"1";"1";"2";"1";"1";"2014-10-16 13:32:46.344";"2014-10-16 13:46:08.450";"1";"0";"1";"10";"9";"module.GoNoGopractice.exec-2200.GoNoGo_Practice";;;;;;;;;;;;;;;;;;;;;;;;;;;;;;;;;;;;;;;;;;;;;;;;;;;;;;;;;;;;;;;;;;;;;;;"1959";"2014-10-16 13:34:30.848";"6";"1";"FINISHED";"RIGHT";"success";"344";"0";"2014-10-16 13:34:28.883";"1";;;;;;;;;;
"2014_021";"1995";;"Windows 7";"Rachel's Experiment (D.T.)";"1.0";"2";"1";"1";"2";"1";"1";"2014-10-16 13:32:46.344";"2014-10-16 13:46:08.450";"1";"0";"1";"11";"10";"module.GoNoGopractice.exec-2200.GoNoGo_Practice";;;;;;;;;;;;;;;;;;;;;;;;;;;;;;;;;;;;;;;;;;;;;;;;;;;;;;;;;;;;;;;;;;;;;;;"1960";"2014-10-16 13:34:34.093";"34";"0";"FINISHED";"LEFT";"success";"452";"0";"2014-10-16 13:34:32.128";"3";;;;;;;;;;
"2014_021";"1995";;"Windows 7";"Rachel's Experiment (D.T.)";"1.0";"2";"1";"1";"2";"1";"1";"2014-10-16 13:32:46.344";"2014-10-16 13:46:08.450";"1";"0";"1";"12";"11";"module.GoNoGopractice.exec-2200.GoNoGo_Practice";;;;;;;;;;;;;;;;;;;;;;;;;;;;;;;;;;;;;;;;;;;;;;;;;;;;;;;;;;;;;;;;;;;;;;;"1959";"2014-10-16 13:34:37.338";"23";"1";"FINISHED";"RIGHT";"success";"383";"0";"2014-10-16 13:34:35.372";"3";;;;;;;;;;
"2014_021";"1995";;"Windows 7";"Rachel's Experiment (D.T.)";"1.0";"2";"1";"1";"2";"1";"1";"2014-10-16 13:32:46.344";"2014-10-16 13:46:08.450";"1";"0";"1";"13";"12";"module.GoNoGopractice.exec-2200.GoNoGo_Practice";;;;;;;;;;;;;;;;;;;;;;;;;;;;;;;;;;;;;;;;;;;;;;;;;;;;;;;;;;;;;;;;;;;;;;;"1959";"2014-10-16 13:34:40.583";"13";"0";"FINISHED";"LEFT";"success";"393";"0";"2014-10-16 13:34:38.617";"2";;;;;;;;;;
"2014_021";"1995";;"Windows 7";"Rachel's Experiment (D.T.)";"1.0";"2";"1";"1";"2";"1";"1";"2014-10-16 13:32:46.344";"2014-10-16 13:46:08.450";"1";"0";"1";"14";"13";"module.GoNoGopractice.exec-2200.GoNoGo_Practice";;;;;;;;;;;;;;;;;;;;;;;;;;;;;;;;;;;;;;;;;;;;;;;;;;;;;;;;;;;;;;;;;;;;;;;"1960";"2014-10-16 13:34:43.828";"3";"1";"FINISHED";"RIGHT";"success";"310";"0";"2014-10-16 13:34:41.862";"1";;;;;;;;;;
"2014_021";"1995";;"Windows 7";"Rachel's Experiment (D.T.)";"1.0";"2";"1";"1";"2";"1";"1";"2014-10-16 13:32:46.344";"2014-10-16 13:46:08.450";"1";"0";"1";"15";"14";"module.GoNoGopractice.exec-2200.GoNoGo_Practice";;;;;;;;;;;;;;;;;;;;;;;;;;;;;;;;;;;;;;;;;;;;;;;;;;;;;;;;;;;;;;;;;;;;;;;"1958";"2014-10-16 13:34:47.166";"27";"1";"FINISHED";"RIGHT";"success";"385";"0";"2014-10-16 13:34:45.200";"3";;;;;;;;;;
"2014_021";"1995";;"Windows 7";"Rachel's Experiment (D.T.)";"1.0";"2";"1";"1";"2";"1";"1";"2014-10-16 13:32:46.344";"2014-10-16 13:46:08.450";"1";"0";"1";"16";"15";"module.training_block1.exec-1561.GoNoGo1";;;;;;;;;;;;;;;;;;;;;;;"1256";"2014-10-16 13:34:54.139";"NST_correctLoc";"32";"0";"FINISHED";"LEFT";"success";"318";"0";"2014-10-16 13:34:52.876";"3";;;;;;;;;;;;;;;;;;;;;;;;;;;;;;;;;;;;;;;;;;;;;;;;;;;;;;;;;
"2014_021";"1995";;"Windows 7";"Rachel's Experiment (D.T.)";"1.0";"2";"1";"1";"2";"1";"1";"2014-10-16 13:32:46.344";"2014-10-16 13:46:08.450";"1";"0";"1";"17";"16";"module.training_block1.exec-1561.GoNoGo1";;;;;;;;;;;;;;;;;;;;;;;"1258";"2014-10-16 13:34:56.682";"NST_correctLoc";"28";"1";"FINISHED";"RIGHT";"success";"305";"0";"2014-10-16 13:34:55.418";"3";;;;;;;;;;;;;;;;;;;;;;;;;;;;;;;;;;;;;;;;;;;;;;;;;;;;;;;;;
"2014_021";"1995";;"Windows 7";"Rachel's Experiment (D.T.)";"1.0";"2";"1";"1";"2";"1";"1";"2014-10-16 13:32:46.344";"2014-10-16 13:46:08.450";"1";"0";"1";"18";"17";"module.training_block1.exec-1561.GoNoGo1";;;;;;;;;;;;;;;;;;;;;;;"1258";"2014-10-16 13:34:59.225";"NST_correctLoc";"29";"0";"FINISHED";"LEFT";"success";"282";"0";"2014-10-16 13:34:57.961";"3";;;;;;;;;;;;;;;;;;;;;;;;;;;;;;;;;;;;;;;;;;;;;;;;;;;;;;;;;
"2014_021";"1995";;"Windows 7";"Rachel's Experiment (D.T.)";"1.0";"2";"1";"1";"2";"1";"1";"2014-10-16 13:32:46.344";"2014-10-16 13:46:08.450";"1";"0";"1";"19";"18";"module.training_block1.exec-1561.GoNoGo1";;;;;;;;;;;;;;;;;;;;;;;"1258";"2014-10-16 13:35:01.768";"NST_correctLoc";"20";"0";"FINISHED";"LEFT";"success";"323";"0";"2014-10-16 13:35:00.504";"3";;;;;;;;;;;;;;;;;;;;;;;;;;;;;;;;;;;;;;;;;;;;;;;;;;;;;;;;;
"2014_021";"1995";;"Windows 7";"Rachel's Experiment (D.T.)";"1.0";"2";"1";"1";"2";"1";"1";"2014-10-16 13:32:46.344";"2014-10-16 13:46:08.450";"1";"0";"1";"20";"19";"module.training_block1.exec-1561.GoNoGo1";;;;;;;;;;;;;;;;;;;;;;;"1258";"2014-10-16 13:35:04.310";"NST_correctLoc";"25";"0";"FINISHED";"LEFT";"success";"349";"0";"2014-10-16 13:35:03.047";"3";;;;;;;;;;;;;;;;;;;;;;;;;;;;;;;;;;;;;;;;;;;;;;;;;;;;;;;;;
"2014_021";"1995";;"Windows 7";"Rachel's Experiment (D.T.)";"1.0";"2";"1";"1";"2";"1";"1";"2014-10-16 13:32:46.344";"2014-10-16 13:46:08.450";"1";"0";"1";"21";"20";"module.training_block1.exec-1561.GoNoGo1";;;;;;;;;;;;;;;;;;;;;;;"1258";"2014-10-16 13:35:06.853";"NST_correctLoc";"33";"0";"FINISHED";"LEFT";"success";"390";"0";"2014-10-16 13:35:05.590";"3";;;;;;;;;;;;;;;;;;;;;;;;;;;;;;;;;;;;;;;;;;;;;;;;;;;;;;;;;
"2014_021";"1995";;"Windows 7";"Rachel's Experiment (D.T.)";"1.0";"2";"1";"1";"2";"1";"1";"2014-10-16 13:32:46.344";"2014-10-16 13:46:08.450";"1";"0";"1";"22";"21";"module.training_block1.exec-1561.GoNoGo1";;;;;;;;;;;;;;;;;;;;;;;"1257";"2014-10-16 13:35:09.396";"NST_correctLoc";"26";"1";"FINISHED";"RIGHT";"success";"270";"0";"2014-10-16 13:35:08.132";"3";;;;;;;;;;;;;;;;;;;;;;;;;;;;;;;;;;;;;;;;;;;;;;;;;;;;;;;;;
"2014_021";"1995";;"Windows 7";"Rachel's Experiment (D.T.)";"1.0";"2";"1";"1";"2";"1";"1";"2014-10-16 13:32:46.344";"2014-10-16 13:46:08.450";"1";"0";"1";"23";"22";"module.training_block1.exec-1561.GoNoGo1";;;;;;;;;;;;;;;;;;;;;;;"1257";"2014-10-16 13:35:11.939";"NST_correctLoc";"15";"0";"FINISHED";"LEFT";"success";"319";"0";"2014-10-16 13:35:10.675";"2";;;;;;;;;;;;;;;;;;;;;;;;;;;;;;;;;;;;;;;;;;;;;;;;;;;;;;;;;
"2014_021";"1995";;"Windows 7";"Rachel's Experiment (D.T.)";"1.0";"2";"1";"1";"2";"1";"1";"2014-10-16 13:32:46.344";"2014-10-16 13:46:08.450";"1";"0";"1";"24";"23";"module.training_block1.exec-1561.GoNoGo1";;;;;;;;;;;;;;;;;;;;;;;"1261";"2014-10-16 13:35:14.482";"NST_correctLoc";"27";"0";"FINISHED";"LEFT";"success";"341";"0";"2014-10-16 13:35:13.218";"3";;;;;;;;;;;;;;;;;;;;;;;;;;;;;;;;;;;;;;;;;;;;;;;;;;;;;;;;;
"2014_021";"1995";;"Windows 7";"Rachel's Experiment (D.T.)";"1.0";"2";"1";"1";"2";"1";"1";"2014-10-16 13:32:46.344";"2014-10-16 13:46:08.450";"1";"0";"1";"25";"24";"module.training_block1.exec-1561.GoNoGo1";;;;;;;;;;;;;;;;;;;;;;;"1258";"2014-10-16 13:35:17.024";"NST_correctLoc";"1";"0";"FINISHED";"LEFT";"success";"306";"0";"2014-10-16 13:35:15.761";"1";;;;;;;;;;;;;;;;;;;;;;;;;;;;;;;;;;;;;;;;;;;;;;;;;;;;;;;;;
"2014_021";"1995";;"Windows 7";"Rachel's Experiment (D.T.)";"1.0";"2";"1";"1";"2";"1";"1";"2014-10-16 13:32:46.344";"2014-10-16 13:46:08.450";"1";"0";"1";"26";"25";"module.training_block1.exec-1561.GoNoGo1";;;;;;;;;;;;;;;;;;;;;;;"1256";"2014-10-16 13:35:19.567";"NST_correctLoc";"17";"0";"FINISHED";"LEFT";"success";"298";"0";"2014-10-16 13:35:18.304";"2";;;;;;;;;;;;;;;;;;;;;;;;;;;;;;;;;;;;;;;;;;;;;;;;;;;;;;;;;
"2014_021";"1995";;"Windows 7";"Rachel's Experiment (D.T.)";"1.0";"2";"1";"1";"2";"1";"1";"2014-10-16 13:32:46.344";"2014-10-16 13:46:08.450";"1";"0";"1";"27";"26";"module.training_block1.exec-1561.GoNoGo1";;;;;;;;;;;;;;;;;;;;;;;"1258";"2014-10-16 13:35:22.110";"NST_correctLoc";"24";"0";"FINISHED";"LEFT";"success";"349";"0";"2014-10-16 13:35:20.846";"3";;;;;;;;;;;;;;;;;;;;;;;;;;;;;;;;;;;;;;;;;;;;;;;;;;;;;;;;;
"2014_021";"1995";;"Windows 7";"Rachel's Experiment (D.T.)";"1.0";"2";"1";"1";"2";"1";"1";"2014-10-16 13:32:46.344";"2014-10-16 13:46:08.450";"1";"0";"1";"28";"27";"module.training_block1.exec-1561.GoNoGo1";;;;;;;;;;;;;;;;;;;;;;;"1257";"2014-10-16 13:35:24.653";"NST_correctLoc";"10";"1";"FINISHED";"RIGHT";"success";"382";"0";"2014-10-16 13:35:23.389";"2";;;;;;;;;;;;;;;;;;;;;;;;;;;;;;;;;;;;;;;;;;;;;;;;;;;;;;;;;
"2014_021";"1995";;"Windows 7";"Rachel's Experiment (D.T.)";"1.0";"2";"1";"1";"2";"1";"1";"2014-10-16 13:32:46.344";"2014-10-16 13:46:08.450";"1";"0";"1";"29";"28";"module.training_block1.exec-1561.GoNoGo1";;;;;;;;;;;;;;;;;;;;;;;"1253";"2014-10-16 13:35:27.196";"NST_correctLoc";"3";"0";"FINISHED";"LEFT";"success";"290";"0";"2014-10-16 13:35:25.932";"1";;;;;;;;;;;;;;;;;;;;;;;;;;;;;;;;;;;;;;;;;;;;;;;;;;;;;;;;;
"2014_021";"1995";;"Windows 7";"Rachel's Experiment (D.T.)";"1.0";"2";"1";"1";"2";"1";"1";"2014-10-16 13:32:46.344";"2014-10-16 13:46:08.450";"1";"0";"1";"30";"29";"module.training_block1.exec-1561.GoNoGo1";;;;;;;;;;;;;;;;;;;;;;;"1258";"2014-10-16 13:35:29.738";"NST_correctLoc";"5";"1";"FINISHED";"RIGHT";"success";"321";"0";"2014-10-16 13:35:28.475";"1";;;;;;;;;;;;;;;;;;;;;;;;;;;;;;;;;;;;;;;;;;;;;;;;;;;;;;;;;
"2014_021";"1995";;"Windows 7";"Rachel's Experiment (D.T.)";"1.0";"2";"1";"1";"2";"1";"1";"2014-10-16 13:32:46.344";"2014-10-16 13:46:08.450";"1";"0";"1";"31";"30";"module.training_block1.exec-1561.GoNoGo1";;;;;;;;;;;;;;;;;;;;;;;"1258";"2014-10-16 13:35:32.281";"NST_correctLoc";"9";"1";"FINISHED";"RIGHT";"success";"329";"0";"2014-10-16 13:35:31.018";"2";;;;;;;;;;;;;;;;;;;;;;;;;;;;;;;;;;;;;;;;;;;;;;;;;;;;;;;;;
"2014_021";"1995";;"Windows 7";"Rachel's Experiment (D.T.)";"1.0";"2";"1";"1";"2";"1";"1";"2014-10-16 13:32:46.344";"2014-10-16 13:46:08.450";"1";"0";"1";"32";"31";"module.training_block1.exec-1561.GoNoGo1";;;;;;;;;;;;;;;;;;;;;;;"1257";"2014-10-16 13:35:34.824";"NST_correctLoc";"14";"0";"FINISHED";"LEFT";"success";"290";"0";"2014-10-16 13:35:33.560";"2";;;;;;;;;;;;;;;;;;;;;;;;;;;;;;;;;;;;;;;;;;;;;;;;;;;;;;;;;
"2014_021";"1995";;"Windows 7";"Rachel's Experiment (D.T.)";"1.0";"2";"1";"1";"2";"1";"1";"2014-10-16 13:32:46.344";"2014-10-16 13:46:08.450";"1";"0";"1";"33";"32";"module.training_block1.exec-1561.GoNoGo1";;;;;;;;;;;;;;;;;;;;;;;"1258";"2014-10-16 13:35:37.367";"NST_correctLoc";"18";"0";"FINISHED";"LEFT";"success";"332";"0";"2014-10-16 13:35:36.103";"3";;;;;;;;;;;;;;;;;;;;;;;;;;;;;;;;;;;;;;;;;;;;;;;;;;;;;;;;;
"2014_021";"1995";;"Windows 7";"Rachel's Experiment (D.T.)";"1.0";"2";"1";"1";"2";"1";"1";"2014-10-16 13:32:46.344";"2014-10-16 13:46:08.450";"1";"0";"1";"34";"33";"module.training_block1.exec-1561.GoNoGo1";;;;;;;;;;;;;;;;;;;;;;;"1258";"2014-10-16 13:35:39.910";"NST_correctLoc";"12";"1";"FINISHED";"RIGHT";"success";"349";"0";"2014-10-16 13:35:38.646";"2";;;;;;;;;;;;;;;;;;;;;;;;;;;;;;;;;;;;;;;;;;;;;;;;;;;;;;;;;
"2014_021";"1995";;"Windows 7";"Rachel's Experiment (D.T.)";"1.0";"2";"1";"1";"2";"1";"1";"2014-10-16 13:32:46.344";"2014-10-16 13:46:08.450";"1";"0";"1";"35";"34";"module.training_block1.exec-1561.GoNoGo1";;;;;;;;;;;;;;;;;;;;;;;"1258";"2014-10-16 13:35:42.452";"NST_correctLoc";"30";"1";"FINISHED";"RIGHT";"success";"334";"0";"2014-10-16 13:35:41.189";"3";;;;;;;;;;;;;;;;;;;;;;;;;;;;;;;;;;;;;;;;;;;;;;;;;;;;;;;;;
"2014_021";"1995";;"Windows 7";"Rachel's Experiment (D.T.)";"1.0";"2";"1";"1";"2";"1";"1";"2014-10-16 13:32:46.344";"2014-10-16 13:46:08.450";"1";"0";"1";"36";"35";"module.training_block1.exec-1561.GoNoGo1";;;;;;;;;;;;;;;;;;;;;;;"1257";"2014-10-16 13:35:44.995";"NST_correctLoc";"31";"1";"FINISHED";"RIGHT";"success";"335";"0";"2014-10-16 13:35:43.732";"3";;;;;;;;;;;;;;;;;;;;;;;;;;;;;;;;;;;;;;;;;;;;;;;;;;;;;;;;;
"2014_021";"1995";;"Windows 7";"Rachel's Experiment (D.T.)";"1.0";"2";"1";"1";"2";"1";"1";"2014-10-16 13:32:46.344";"2014-10-16 13:46:08.450";"1";"0";"1";"37";"36";"module.training_block1.exec-1561.GoNoGo1";;;;;;;;;;;;;;;;;;;;;;;"1257";"2014-10-16 13:35:47.538";"NST_correctLoc";"8";"1";"FINISHED";"RIGHT";"success";"344";"0";"2014-10-16 13:35:46.274";"1";;;;;;;;;;;;;;;;;;;;;;;;;;;;;;;;;;;;;;;;;;;;;;;;;;;;;;;;;
"2014_021";"1995";;"Windows 7";"Rachel's Experiment (D.T.)";"1.0";"2";"1";"1";"2";"1";"1";"2014-10-16 13:32:46.344";"2014-10-16 13:46:08.450";"1";"0";"1";"38";"37";"module.training_block1.exec-1561.GoNoGo1";;;;;;;;;;;;;;;;;;;;;;;"1257";"2014-10-16 13:35:50.081";"NST_correctLoc";"22";"1";"FINISHED";"RIGHT";"success";"345";"0";"2014-10-16 13:35:48.817";"3";;;;;;;;;;;;;;;;;;;;;;;;;;;;;;;;;;;;;;;;;;;;;;;;;;;;;;;;;
"2014_021";"1995";;"Windows 7";"Rachel's Experiment (D.T.)";"1.0";"2";"1";"1";"2";"1";"1";"2014-10-16 13:32:46.344";"2014-10-16 13:46:08.450";"1";"0";"1";"39";"38";"module.training_block1.exec-1561.GoNoGo1";;;;;;;;;;;;;;;;;;;;;;;"1257";"2014-10-16 13:35:52.624";"NST_correctLoc";"4";"1";"FINISHED";"RIGHT";"success";"346";"0";"2014-10-16 13:35:51.360";"1";;;;;;;;;;;;;;;;;;;;;;;;;;;;;;;;;;;;;;;;;;;;;;;;;;;;;;;;;
"2014_021";"1995";;"Windows 7";"Rachel's Experiment (D.T.)";"1.0";"2";"1";"1";"2";"1";"1";"2014-10-16 13:32:46.344";"2014-10-16 13:46:08.450";"1";"0";"1";"40";"39";"module.training_block1.exec-1561.GoNoGo1";;;;;;;;;;;;;;;;;;;;;;;"1257";"2014-10-16 13:35:55.166";"NST_correctLoc";"2";"1";"FINISHED";"RIGHT";"success";"332";"0";"2014-10-16 13:35:53.903";"1";;;;;;;;;;;;;;;;;;;;;;;;;;;;;;;;;;;;;;;;;;;;;;;;;;;;;;;;;
"2014_021";"1995";;"Windows 7";"Rachel's Experiment (D.T.)";"1.0";"2";"1";"1";"2";"1";"1";"2014-10-16 13:32:46.344";"2014-10-16 13:46:08.450";"1";"0";"1";"41";"40";"module.training_block1.exec-1561.GoNoGo1";;;;;;;;;;;;;;;;;;;;;;;"1258";"2014-10-16 13:35:57.709";"NST_correctLoc";"34";"0";"FINISHED";"LEFT";"success";"373";"0";"2014-10-16 13:35:56.446";"3";;;;;;;;;;;;;;;;;;;;;;;;;;;;;;;;;;;;;;;;;;;;;;;;;;;;;;;;;
"2014_021";"1995";;"Windows 7";"Rachel's Experiment (D.T.)";"1.0";"2";"1";"1";"2";"1";"1";"2014-10-16 13:32:46.344";"2014-10-16 13:46:08.450";"1";"0";"1";"42";"41";"module.training_block1.exec-1561.GoNoGo1";;;;;;;;;;;;;;;;;;;;;;;"1257";"2014-10-16 13:36:00.252";"NST_correctLoc";"0";"0";"FINISHED";"LEFT";"success";"334";"0";"2014-10-16 13:35:58.988";"1";;;;;;;;;;;;;;;;;;;;;;;;;;;;;;;;;;;;;;;;;;;;;;;;;;;;;;;;;
"2014_021";"1995";;"Windows 7";"Rachel's Experiment (D.T.)";"1.0";"2";"1";"1";"2";"1";"1";"2014-10-16 13:32:46.344";"2014-10-16 13:46:08.450";"1";"0";"1";"43";"42";"module.training_block1.exec-1561.GoNoGo1";;;;;;;;;;;;;;;;;;;;;;;"1258";"2014-10-16 13:36:02.810";"NST_correctLoc";"11";"0";"FINISHED";"LEFT";"success";"368";"0";"2014-10-16 13:36:01.547";"2";;;;;;;;;;;;;;;;;;;;;;;;;;;;;;;;;;;;;;;;;;;;;;;;;;;;;;;;;
"2014_021";"1995";;"Windows 7";"Rachel's Experiment (D.T.)";"1.0";"2";"1";"1";"2";"1";"1";"2014-10-16 13:32:46.344";"2014-10-16 13:46:08.450";"1";"0";"1";"44";"43";"module.training_block1.exec-1561.GoNoGo1";;;;;;;;;;;;;;;;;;;;;;;"1252";"2014-10-16 13:36:05.353";"NST_correctLoc";"6";"0";"FINISHED";"LEFT";"success";"340";"0";"2014-10-16 13:36:04.090";"1";;;;;;;;;;;;;;;;;;;;;;;;;;;;;;;;;;;;;;;;;;;;;;;;;;;;;;;;;
"2014_021";"1995";;"Windows 7";"Rachel's Experiment (D.T.)";"1.0";"2";"1";"1";"2";"1";"1";"2014-10-16 13:32:46.344";"2014-10-16 13:46:08.450";"1";"0";"1";"45";"44";"module.training_block1.exec-1561.GoNoGo1";;;;;;;;;;;;;;;;;;;;;;;"1258";"2014-10-16 13:36:07.896";"NST_correctLoc";"35";"0";"FINISHED";"LEFT";"success";"331";"0";"2014-10-16 13:36:06.632";"3";;;;;;;;;;;;;;;;;;;;;;;;;;;;;;;;;;;;;;;;;;;;;;;;;;;;;;;;;
"2014_021";"1995";;"Windows 7";"Rachel's Experiment (D.T.)";"1.0";"2";"1";"1";"2";"1";"1";"2014-10-16 13:32:46.344";"2014-10-16 13:46:08.450";"1";"0";"1";"46";"45";"module.training_block1.exec-1561.GoNoGo1";;;;;;;;;;;;;;;;;;;;;;;"1257";"2014-10-16 13:36:10.439";"NST_correctLoc";"7";"1";"FINISHED";"RIGHT";"success";"363";"0";"2014-10-16 13:36:09.175";"1";;;;;;;;;;;;;;;;;;;;;;;;;;;;;;;;;;;;;;;;;;;;;;;;;;;;;;;;;
"2014_021";"1995";;"Windows 7";"Rachel's Experiment (D.T.)";"1.0";"2";"1";"1";"2";"1";"1";"2014-10-16 13:32:46.344";"2014-10-16 13:46:08.450";"1";"0";"1";"47";"46";"module.training_block1.exec-1561.GoNoGo1";;;;;;;;;;;;;;;;;;;;;;;"1257";"2014-10-16 13:36:12.982";"NST_correctLoc";"23";"1";"FINISHED";"RIGHT";"success";"380";"0";"2014-10-16 13:36:11.718";"3";;;;;;;;;;;;;;;;;;;;;;;;;;;;;;;;;;;;;;;;;;;;;;;;;;;;;;;;;
"2014_021";"1995";;"Windows 7";"Rachel's Experiment (D.T.)";"1.0";"2";"1";"1";"2";"1";"1";"2014-10-16 13:32:46.344";"2014-10-16 13:46:08.450";"1";"0";"1";"48";"47";"module.training_block1.exec-1561.GoNoGo1";;;;;;;;;;;;;;;;;;;;;;;"1258";"2014-10-16 13:36:15.524";"NST_correctLoc";"19";"0";"FINISHED";"LEFT";"success";"334";"0";"2014-10-16 13:36:14.261";"3";;;;;;;;;;;;;;;;;;;;;;;;;;;;;;;;;;;;;;;;;;;;;;;;;;;;;;;;;
"2014_021";"1995";;"Windows 7";"Rachel's Experiment (D.T.)";"1.0";"2";"1";"1";"2";"1";"1";"2014-10-16 13:32:46.344";"2014-10-16 13:46:08.450";"1";"0";"1";"49";"48";"module.training_block1.exec-1561.GoNoGo1";;;;;;;;;;;;;;;;;;;;;;;"1257";"2014-10-16 13:36:18.067";"NST_correctLoc";"21";"0";"FINISHED";"LEFT";"success";"287";"0";"2014-10-16 13:36:16.804";"3";;;;;;;;;;;;;;;;;;;;;;;;;;;;;;;;;;;;;;;;;;;;;;;;;;;;;;;;;
"2014_021";"1995";;"Windows 7";"Rachel's Experiment (D.T.)";"1.0";"2";"1";"1";"2";"1";"1";"2014-10-16 13:32:46.344";"2014-10-16 13:46:08.450";"1";"0";"1";"50";"49";"module.training_block1.exec-1561.GoNoGo1";;;;;;;;;;;;;;;;;;;;;;;"1257";"2014-10-16 13:36:20.610";"NST_correctLoc";"16";"0";"FINISHED";"LEFT";"success";"359";"0";"2014-10-16 13:36:19.346";"2";;;;;;;;;;;;;;;;;;;;;;;;;;;;;;;;;;;;;;;;;;;;;;;;;;;;;;;;;
"2014_021";"1995";;"Windows 7";"Rachel's Experiment (D.T.)";"1.0";"2";"1";"1";"2";"1";"1";"2014-10-16 13:32:46.344";"2014-10-16 13:46:08.450";"1";"0";"1";"51";"50";"module.training_block1.exec-1561.GoNoGo1";;;;;;;;;;;;;;;;;;;;;;;"1257";"2014-10-16 13:36:23.153";"NST_correctLoc";"13";"1";"FINISHED";"RIGHT";"success";"321";"0";"2014-10-16 13:36:21.889";"2";;;;;;;;;;;;;;;;;;;;;;;;;;;;;;;;;;;;;;;;;;;;;;;;;;;;;;;;;
"2014_021";"1995";;"Windows 7";"Rachel's Experiment (D.T.)";"1.0";"2";"1";"1";"2";"1";"1";"2014-10-16 13:32:46.344";"2014-10-16 13:46:08.450";"1";"0";"1";"52";"51";"module.training_block2.exec-6400.GoNoGo2";;;;;;;;;;;;;;;;;;;;;;;;;;;;;;;;;;;"1261";"2014-10-16 13:36:34.401";"NST_correctLoc";"9";"0";"FINISHED";"LEFT";"success";"333";"0";"2014-10-16 13:36:33.137";"2";;;;;;;;;;;;;;;;;;;;;;;;;;;;;;;;;;;;;;;;;;;;;
"2014_021";"1995";;"Windows 7";"Rachel's Experiment (D.T.)";"1.0";"2";"1";"1";"2";"1";"1";"2014-10-16 13:32:46.344";"2014-10-16 13:46:08.450";"1";"0";"1";"53";"52";"module.training_block2.exec-6400.GoNoGo2";;;;;;;;;;;;;;;;;;;;;;;;;;;;;;;;;;;"1261";"2014-10-16 13:36:36.943";"NST_correctLoc";"26";"1";"FINISHED";"RIGHT";"success";"342";"0";"2014-10-16 13:36:35.680";"3";;;;;;;;;;;;;;;;;;;;;;;;;;;;;;;;;;;;;;;;;;;;;
"2014_021";"1995";;"Windows 7";"Rachel's Experiment (D.T.)";"1.0";"2";"1";"1";"2";"1";"1";"2014-10-16 13:32:46.344";"2014-10-16 13:46:08.450";"1";"0";"1";"54";"53";"module.training_block2.exec-6400.GoNoGo2";;;;;;;;;;;;;;;;;;;;;;;;;;;;;;;;;;;"1261";"2014-10-16 13:36:39.486";"NST_correctLoc";"31";"0";"FINISHED";"LEFT";"success";"400";"0";"2014-10-16 13:36:38.223";"3";;;;;;;;;;;;;;;;;;;;;;;;;;;;;;;;;;;;;;;;;;;;;
"2014_021";"1995";;"Windows 7";"Rachel's Experiment (D.T.)";"1.0";"2";"1";"1";"2";"1";"1";"2014-10-16 13:32:46.344";"2014-10-16 13:46:08.450";"1";"0";"1";"55";"54";"module.training_block2.exec-6400.GoNoGo2";;;;;;;;;;;;;;;;;;;;;;;;;;;;;;;;;;;"1261";"2014-10-16 13:36:42.029";"NST_correctLoc";"7";"0";"FINISHED";"LEFT";"success";"393";"0";"2014-10-16 13:36:40.765";"1";;;;;;;;;;;;;;;;;;;;;;;;;;;;;;;;;;;;;;;;;;;;;
"2014_021";"1995";;"Windows 7";"Rachel's Experiment (D.T.)";"1.0";"2";"1";"1";"2";"1";"1";"2014-10-16 13:32:46.344";"2014-10-16 13:46:08.450";"1";"0";"1";"56";"55";"module.training_block2.exec-6400.GoNoGo2";;;;;;;;;;;;;;;;;;;;;;;;;;;;;;;;;;;"1261";"2014-10-16 13:36:44.572";"NST_correctLoc";"34";"1";"FINISHED";"RIGHT";"success";"322";"0";"2014-10-16 13:36:43.308";"3";;;;;;;;;;;;;;;;;;;;;;;;;;;;;;;;;;;;;;;;;;;;;
"2014_021";"1995";;"Windows 7";"Rachel's Experiment (D.T.)";"1.0";"2";"1";"1";"2";"1";"1";"2014-10-16 13:32:46.344";"2014-10-16 13:46:08.450";"1";"0";"1";"57";"56";"module.training_block2.exec-6400.GoNoGo2";;;;;;;;;;;;;;;;;;;;;;;;;;;;;;;;;;;"1261";"2014-10-16 13:36:47.115";"NST_correctLoc";"16";"1";"FINISHED";"RIGHT";"success";"307";"0";"2014-10-16 13:36:45.851";"2";;;;;;;;;;;;;;;;;;;;;;;;;;;;;;;;;;;;;;;;;;;;;
"2014_021";"1995";;"Windows 7";"Rachel's Experiment (D.T.)";"1.0";"2";"1";"1";"2";"1";"1";"2014-10-16 13:32:46.344";"2014-10-16 13:46:08.450";"1";"0";"1";"58";"57";"module.training_block2.exec-6400.GoNoGo2";;;;;;;;;;;;;;;;;;;;;;;;;;;;;;;;;;;"1261";"2014-10-16 13:36:49.657";"NST_correctLoc";"28";"1";"FINISHED";"RIGHT";"success";"340";"0";"2014-10-16 13:36:48.394";"3";;;;;;;;;;;;;;;;;;;;;;;;;;;;;;;;;;;;;;;;;;;;;
"2014_021";"1995";;"Windows 7";"Rachel's Experiment (D.T.)";"1.0";"2";"1";"1";"2";"1";"1";"2014-10-16 13:32:46.344";"2014-10-16 13:46:08.450";"1";"0";"1";"59";"58";"module.training_block2.exec-6400.GoNoGo2";;;;;;;;;;;;;;;;;;;;;;;;;;;;;;;;;;;"1261";"2014-10-16 13:36:52.200";"NST_correctLoc";"21";"1";"FINISHED";"RIGHT";"success";"325";"0";"2014-10-16 13:36:50.937";"3";;;;;;;;;;;;;;;;;;;;;;;;;;;;;;;;;;;;;;;;;;;;;
"2014_021";"1995";;"Windows 7";"Rachel's Experiment (D.T.)";"1.0";"2";"1";"1";"2";"1";"1";"2014-10-16 13:32:46.344";"2014-10-16 13:46:08.450";"1";"0";"1";"60";"59";"module.training_block2.exec-6400.GoNoGo2";;;;;;;;;;;;;;;;;;;;;;;;;;;;;;;;;;;"1261";"2014-10-16 13:36:54.743";"NST_correctLoc";"0";"1";"FINISHED";"RIGHT";"success";"295";"0";"2014-10-16 13:36:53.479";"1";;;;;;;;;;;;;;;;;;;;;;;;;;;;;;;;;;;;;;;;;;;;;
"2014_021";"1995";;"Windows 7";"Rachel's Experiment (D.T.)";"1.0";"2";"1";"1";"2";"1";"1";"2014-10-16 13:32:46.344";"2014-10-16 13:46:08.450";"1";"0";"1";"61";"60";"module.training_block2.exec-6400.GoNoGo2";;;;;;;;;;;;;;;;;;;;;;;;;;;;;;;;;;;"1261";"2014-10-16 13:36:57.286";"NST_correctLoc";"14";"1";"FINISHED";"RIGHT";"success";"296";"0";"2014-10-16 13:36:56.022";"2";;;;;;;;;;;;;;;;;;;;;;;;;;;;;;;;;;;;;;;;;;;;;
"2014_021";"1995";;"Windows 7";"Rachel's Experiment (D.T.)";"1.0";"2";"1";"1";"2";"1";"1";"2014-10-16 13:32:46.344";"2014-10-16 13:46:08.450";"1";"0";"1";"62";"61";"module.training_block2.exec-6400.GoNoGo2";;;;;;;;;;;;;;;;;;;;;;;;;;;;;;;;;;;"1261";"2014-10-16 13:36:59.829";"NST_correctLoc";"4";"1";"FINISHED";"RIGHT";"success";"337";"0";"2014-10-16 13:36:58.565";"1";;;;;;;;;;;;;;;;;;;;;;;;;;;;;;;;;;;;;;;;;;;;;
"2014_021";"1995";;"Windows 7";"Rachel's Experiment (D.T.)";"1.0";"2";"1";"1";"2";"1";"1";"2014-10-16 13:32:46.344";"2014-10-16 13:46:08.450";"1";"0";"1";"63";"62";"module.training_block2.exec-6400.GoNoGo2";;;;;;;;;;;;;;;;;;;;;;;;;;;;;;;;;;;"1261";"2014-10-16 13:37:02.371";"NST_wrongLoc";"29";"0";"FINISHED";"RIGHT";"failure";"338";"0";"2014-10-16 13:37:01.108";"3";;;;;;;;;;;;;;;;;;;;;;;;;;;;;;;;;;;;;;;;;;;;;
"2014_021";"1995";;"Windows 7";"Rachel's Experiment (D.T.)";"1.0";"2";"1";"1";"2";"1";"1";"2014-10-16 13:32:46.344";"2014-10-16 13:46:08.450";"1";"0";"1";"64";"63";"module.training_block2.exec-6400.GoNoGo2";;;;;;;;;;;;;;;;;;;;;;;;;;;;;;;;;;;"1261";"2014-10-16 13:37:04.914";"NST_correctLoc";"1";"1";"FINISHED";"RIGHT";"success";"331";"0";"2014-10-16 13:37:03.651";"1";;;;;;;;;;;;;;;;;;;;;;;;;;;;;;;;;;;;;;;;;;;;;
"2014_021";"1995";;"Windows 7";"Rachel's Experiment (D.T.)";"1.0";"2";"1";"1";"2";"1";"1";"2014-10-16 13:32:46.344";"2014-10-16 13:46:08.450";"1";"0";"1";"65";"64";"module.training_block2.exec-6400.GoNoGo2";;;;;;;;;;;;;;;;;;;;;;;;;;;;;;;;;;;"1261";"2014-10-16 13:37:07.457";"NST_correctLoc";"18";"1";"FINISHED";"RIGHT";"success";"341";"0";"2014-10-16 13:37:06.193";"3";;;;;;;;;;;;;;;;;;;;;;;;;;;;;;;;;;;;;;;;;;;;;
"2014_021";"1995";;"Windows 7";"Rachel's Experiment (D.T.)";"1.0";"2";"1";"1";"2";"1";"1";"2014-10-16 13:32:46.344";"2014-10-16 13:46:08.450";"1";"0";"1";"66";"65";"module.training_block2.exec-6400.GoNoGo2";;;;;;;;;;;;;;;;;;;;;;;;;;;;;;;;;;;"1261";"2014-10-16 13:37:10.000";"NST_correctLoc";"32";"0";"FINISHED";"LEFT";"success";"286";"0";"2014-10-16 13:37:08.736";"3";;;;;;;;;;;;;;;;;;;;;;;;;;;;;;;;;;;;;;;;;;;;;
"2014_021";"1995";;"Windows 7";"Rachel's Experiment (D.T.)";"1.0";"2";"1";"1";"2";"1";"1";"2014-10-16 13:32:46.344";"2014-10-16 13:46:08.450";"1";"0";"1";"67";"66";"module.training_block2.exec-6400.GoNoGo2";;;;;;;;;;;;;;;;;;;;;;;;;;;;;;;;;;;"1261";"2014-10-16 13:37:12.543";"NST_correctLoc";"5";"1";"FINISHED";"RIGHT";"success";"359";"0";"2014-10-16 13:37:11.279";"1";;;;;;;;;;;;;;;;;;;;;;;;;;;;;;;;;;;;;;;;;;;;;
"2014_021";"1995";;"Windows 7";"Rachel's Experiment (D.T.)";"1.0";"2";"1";"1";"2";"1";"1";"2014-10-16 13:32:46.344";"2014-10-16 13:46:08.450";"1";"0";"1";"68";"67";"module.training_block2.exec-6400.GoNoGo2";;;;;;;;;;;;;;;;;;;;;;;;;;;;;;;;;;;"1261";"2014-10-16 13:37:15.085";"NST_correctLoc";"22";"1";"FINISHED";"RIGHT";"success";"352";"0";"2014-10-16 13:37:13.822";"3";;;;;;;;;;;;;;;;;;;;;;;;;;;;;;;;;;;;;;;;;;;;;
"2014_021";"1995";;"Windows 7";"Rachel's Experiment (D.T.)";"1.0";"2";"1";"1";"2";"1";"1";"2014-10-16 13:32:46.344";"2014-10-16 13:46:08.450";"1";"0";"1";"69";"68";"module.training_block2.exec-6400.GoNoGo2";;;;;;;;;;;;;;;;;;;;;;;;;;;;;;;;;;;"1261";"2014-10-16 13:37:17.628";"NST_correctLoc";"10";"1";"FINISHED";"RIGHT";"success";"345";"0";"2014-10-16 13:37:16.365";"2";;;;;;;;;;;;;;;;;;;;;;;;;;;;;;;;;;;;;;;;;;;;;
"2014_021";"1995";;"Windows 7";"Rachel's Experiment (D.T.)";"1.0";"2";"1";"1";"2";"1";"1";"2014-10-16 13:32:46.344";"2014-10-16 13:46:08.450";"1";"0";"1";"70";"69";"module.training_block2.exec-6400.GoNoGo2";;;;;;;;;;;;;;;;;;;;;;;;;;;;;;;;;;;"1261";"2014-10-16 13:37:20.171";"NST_correctLoc";"35";"1";"FINISHED";"RIGHT";"success";"346";"0";"2014-10-16 13:37:18.907";"3";;;;;;;;;;;;;;;;;;;;;;;;;;;;;;;;;;;;;;;;;;;;;
"2014_021";"1995";;"Windows 7";"Rachel's Experiment (D.T.)";"1.0";"2";"1";"1";"2";"1";"1";"2014-10-16 13:32:46.344";"2014-10-16 13:46:08.450";"1";"0";"1";"71";"70";"module.training_block2.exec-6400.GoNoGo2";;;;;;;;;;;;;;;;;;;;;;;;;;;;;;;;;;;"1261";"2014-10-16 13:37:22.714";"NST_correctLoc";"30";"0";"FINISHED";"LEFT";"success";"380";"0";"2014-10-16 13:37:21.450";"3";;;;;;;;;;;;;;;;;;;;;;;;;;;;;;;;;;;;;;;;;;;;;
"2014_021";"1995";;"Windows 7";"Rachel's Experiment (D.T.)";"1.0";"2";"1";"1";"2";"1";"1";"2014-10-16 13:32:46.344";"2014-10-16 13:46:08.450";"1";"0";"1";"72";"71";"module.training_block2.exec-6400.GoNoGo2";;;;;;;;;;;;;;;;;;;;;;;;;;;;;;;;;;;"1261";"2014-10-16 13:37:25.257";"NST_correctLoc";"33";"1";"FINISHED";"RIGHT";"success";"413";"0";"2014-10-16 13:37:23.993";"3";;;;;;;;;;;;;;;;;;;;;;;;;;;;;;;;;;;;;;;;;;;;;
"2014_021";"1995";;"Windows 7";"Rachel's Experiment (D.T.)";"1.0";"2";"1";"1";"2";"1";"1";"2014-10-16 13:32:46.344";"2014-10-16 13:46:08.450";"1";"0";"1";"73";"72";"module.training_block2.exec-6400.GoNoGo2";;;;;;;;;;;;;;;;;;;;;;;;;;;;;;;;;;;"1261";"2014-10-16 13:37:27.815";"NST_correctLoc";"3";"0";"FINISHED";"LEFT";"success";"334";"0";"2014-10-16 13:37:26.551";"1";;;;;;;;;;;;;;;;;;;;;;;;;;;;;;;;;;;;;;;;;;;;;
"2014_021";"1995";;"Windows 7";"Rachel's Experiment (D.T.)";"1.0";"2";"1";"1";"2";"1";"1";"2014-10-16 13:32:46.344";"2014-10-16 13:46:08.450";"1";"0";"1";"74";"73";"module.training_block2.exec-6400.GoNoGo2";;;;;;;;;;;;;;;;;;;;;;;;;;;;;;;;;;;"1261";"2014-10-16 13:37:30.358";"NST_correctLoc";"13";"0";"FINISHED";"LEFT";"success";"320";"0";"2014-10-16 13:37:29.094";"2";;;;;;;;;;;;;;;;;;;;;;;;;;;;;;;;;;;;;;;;;;;;;
"2014_021";"1995";;"Windows 7";"Rachel's Experiment (D.T.)";"1.0";"2";"1";"1";"2";"1";"1";"2014-10-16 13:32:46.344";"2014-10-16 13:46:08.450";"1";"0";"1";"75";"74";"module.training_block2.exec-6400.GoNoGo2";;;;;;;;;;;;;;;;;;;;;;;;;;;;;;;;;;;"1261";"2014-10-16 13:37:32.901";"NST_correctLoc";"15";"1";"FINISHED";"RIGHT";"success";"377";"0";"2014-10-16 13:37:31.637";"2";;;;;;;;;;;;;;;;;;;;;;;;;;;;;;;;;;;;;;;;;;;;;
"2014_021";"1995";;"Windows 7";"Rachel's Experiment (D.T.)";"1.0";"2";"1";"1";"2";"1";"1";"2014-10-16 13:32:46.344";"2014-10-16 13:46:08.450";"1";"0";"1";"76";"75";"module.training_block2.exec-6400.GoNoGo2";;;;;;;;;;;;;;;;;;;;;;;;;;;;;;;;;;;"1261";"2014-10-16 13:37:35.459";"NST_correctLoc";"11";"0";"FINISHED";"LEFT";"success";"290";"0";"2014-10-16 13:37:34.195";"2";;;;;;;;;;;;;;;;;;;;;;;;;;;;;;;;;;;;;;;;;;;;;
"2014_021";"1995";;"Windows 7";"Rachel's Experiment (D.T.)";"1.0";"2";"1";"1";"2";"1";"1";"2014-10-16 13:32:46.344";"2014-10-16 13:46:08.450";"1";"0";"1";"77";"76";"module.training_block2.exec-6400.GoNoGo2";;;;;;;;;;;;;;;;;;;;;;;;;;;;;;;;;;;"1261";"2014-10-16 13:37:38.002";"NST_correctLoc";"19";"1";"FINISHED";"RIGHT";"success";"388";"0";"2014-10-16 13:37:36.738";"3";;;;;;;;;;;;;;;;;;;;;;;;;;;;;;;;;;;;;;;;;;;;;
"2014_021";"1995";;"Windows 7";"Rachel's Experiment (D.T.)";"1.0";"2";"1";"1";"2";"1";"1";"2014-10-16 13:32:46.344";"2014-10-16 13:46:08.450";"1";"0";"1";"78";"77";"module.training_block2.exec-6400.GoNoGo2";;;;;;;;;;;;;;;;;;;;;;;;;;;;;;;;;;;"1261";"2014-10-16 13:37:40.545";"NST_correctLoc";"12";"0";"FINISHED";"LEFT";"success";"293";"0";"2014-10-16 13:37:39.281";"2";;;;;;;;;;;;;;;;;;;;;;;;;;;;;;;;;;;;;;;;;;;;;
"2014_021";"1995";;"Windows 7";"Rachel's Experiment (D.T.)";"1.0";"2";"1";"1";"2";"1";"1";"2014-10-16 13:32:46.344";"2014-10-16 13:46:08.450";"1";"0";"1";"79";"78";"module.training_block2.exec-6400.GoNoGo2";;;;;;;;;;;;;;;;;;;;;;;;;;;;;;;;;;;"1261";"2014-10-16 13:37:43.087";"NST_correctLoc";"25";"0";"FINISHED";"LEFT";"success";"358";"0";"2014-10-16 13:37:41.824";"3";;;;;;;;;;;;;;;;;;;;;;;;;;;;;;;;;;;;;;;;;;;;;
"2014_021";"1995";;"Windows 7";"Rachel's Experiment (D.T.)";"1.0";"2";"1";"1";"2";"1";"1";"2014-10-16 13:32:46.344";"2014-10-16 13:46:08.450";"1";"0";"1";"80";"79";"module.training_block2.exec-6400.GoNoGo2";;;;;;;;;;;;;;;;;;;;;;;;;;;;;;;;;;;"1261";"2014-10-16 13:37:45.630";"NST_correctLoc";"20";"1";"FINISHED";"RIGHT";"success";"319";"0";"2014-10-16 13:37:44.367";"3";;;;;;;;;;;;;;;;;;;;;;;;;;;;;;;;;;;;;;;;;;;;;
"2014_021";"1995";;"Windows 7";"Rachel's Experiment (D.T.)";"1.0";"2";"1";"1";"2";"1";"1";"2014-10-16 13:32:46.344";"2014-10-16 13:46:08.450";"1";"0";"1";"81";"80";"module.training_block2.exec-6400.GoNoGo2";;;;;;;;;;;;;;;;;;;;;;;;;;;;;;;;;;;"1261";"2014-10-16 13:37:48.173";"NST_correctLoc";"23";"1";"FINISHED";"RIGHT";"success";"328";"0";"2014-10-16 13:37:46.909";"3";;;;;;;;;;;;;;;;;;;;;;;;;;;;;;;;;;;;;;;;;;;;;
"2014_021";"1995";;"Windows 7";"Rachel's Experiment (D.T.)";"1.0";"2";"1";"1";"2";"1";"1";"2014-10-16 13:32:46.344";"2014-10-16 13:46:08.450";"1";"0";"1";"82";"81";"module.training_block2.exec-6400.GoNoGo2";;;;;;;;;;;;;;;;;;;;;;;;;;;;;;;;;;;"1261";"2014-10-16 13:37:50.716";"NST_correctLoc";"24";"1";"FINISHED";"RIGHT";"success";"370";"0";"2014-10-16 13:37:49.452";"3";;;;;;;;;;;;;;;;;;;;;;;;;;;;;;;;;;;;;;;;;;;;;
"2014_021";"1995";;"Windows 7";"Rachel's Experiment (D.T.)";"1.0";"2";"1";"1";"2";"1";"1";"2014-10-16 13:32:46.344";"2014-10-16 13:46:08.450";"1";"0";"1";"83";"82";"module.training_block2.exec-6400.GoNoGo2";;;;;;;;;;;;;;;;;;;;;;;;;;;;;;;;;;;"1262";"2014-10-16 13:37:53.259";"NST_correctLoc";"2";"0";"FINISHED";"LEFT";"success";"299";"0";"2014-10-16 13:37:51.995";"1";;;;;;;;;;;;;;;;;;;;;;;;;;;;;;;;;;;;;;;;;;;;;
"2014_021";"1995";;"Windows 7";"Rachel's Experiment (D.T.)";"1.0";"2";"1";"1";"2";"1";"1";"2014-10-16 13:32:46.344";"2014-10-16 13:46:08.450";"1";"0";"1";"84";"83";"module.training_block2.exec-6400.GoNoGo2";;;;;;;;;;;;;;;;;;;;;;;;;;;;;;;;;;;"1261";"2014-10-16 13:37:55.801";"NST_correctLoc";"27";"0";"FINISHED";"LEFT";"success";"340";"0";"2014-10-16 13:37:54.538";"3";;;;;;;;;;;;;;;;;;;;;;;;;;;;;;;;;;;;;;;;;;;;;
"2014_021";"1995";;"Windows 7";"Rachel's Experiment (D.T.)";"1.0";"2";"1";"1";"2";"1";"1";"2014-10-16 13:32:46.344";"2014-10-16 13:46:08.450";"1";"0";"1";"85";"84";"module.training_block2.exec-6400.GoNoGo2";;;;;;;;;;;;;;;;;;;;;;;;;;;;;;;;;;;"1261";"2014-10-16 13:37:58.344";"NST_correctLoc";"17";"1";"FINISHED";"RIGHT";"success";"341";"0";"2014-10-16 13:37:57.081";"2";;;;;;;;;;;;;;;;;;;;;;;;;;;;;;;;;;;;;;;;;;;;;
"2014_021";"1995";;"Windows 7";"Rachel's Experiment (D.T.)";"1.0";"2";"1";"1";"2";"1";"1";"2014-10-16 13:32:46.344";"2014-10-16 13:46:08.450";"1";"0";"1";"86";"85";"module.training_block2.exec-6400.GoNoGo2";;;;;;;;;;;;;;;;;;;;;;;;;;;;;;;;;;;"1261";"2014-10-16 13:38:00.887";"NST_correctLoc";"8";"0";"FINISHED";"LEFT";"success";"318";"0";"2014-10-16 13:37:59.623";"1";;;;;;;;;;;;;;;;;;;;;;;;;;;;;;;;;;;;;;;;;;;;;
"2014_021";"1995";;"Windows 7";"Rachel's Experiment (D.T.)";"1.0";"2";"1";"1";"2";"1";"1";"2014-10-16 13:32:46.344";"2014-10-16 13:46:08.450";"1";"0";"1";"87";"86";"module.training_block2.exec-6400.GoNoGo2";;;;;;;;;;;;;;;;;;;;;;;;;;;;;;;;;;;"1261";"2014-10-16 13:38:03.430";"NST_correctLoc";"6";"0";"FINISHED";"LEFT";"success";"352";"0";"2014-10-16 13:38:02.166";"1";;;;;;;;;;;;;;;;;;;;;;;;;;;;;;;;;;;;;;;;;;;;;
"2014_021";"1995";;"Windows 7";"Rachel's Experiment (D.T.)";"1.0";"2";"1";"1";"2";"1";"1";"2014-10-16 13:32:46.344";"2014-10-16 13:46:08.450";"1";"0";"1";"88";"87";"module.training_block3.exec-2530.GoNoGo3";;;;;;;;;;;;;;;;;;;;;;;;;;;;;;;;;;;;;;;;;;;;;;;"1261";"2014-10-16 13:38:14.194";"NST_correctLoc";"33";"1";"FINISHED";"RIGHT";"success";"435";"0";"2014-10-16 13:38:12.930";"3";;;;;;;;;;;;;;;;;;;;;;;;;;;;;;;;;
"2014_021";"1995";;"Windows 7";"Rachel's Experiment (D.T.)";"1.0";"2";"1";"1";"2";"1";"1";"2014-10-16 13:32:46.344";"2014-10-16 13:46:08.450";"1";"0";"1";"89";"88";"module.training_block3.exec-2530.GoNoGo3";;;;;;;;;;;;;;;;;;;;;;;;;;;;;;;;;;;;;;;;;;;;;;;"1262";"2014-10-16 13:38:16.737";"NST_correctLoc";"11";"0";"FINISHED";"LEFT";"success";"341";"0";"2014-10-16 13:38:15.473";"2";;;;;;;;;;;;;;;;;;;;;;;;;;;;;;;;;
"2014_021";"1995";;"Windows 7";"Rachel's Experiment (D.T.)";"1.0";"2";"1";"1";"2";"1";"1";"2014-10-16 13:32:46.344";"2014-10-16 13:46:08.450";"1";"0";"1";"90";"89";"module.training_block3.exec-2530.GoNoGo3";;;;;;;;;;;;;;;;;;;;;;;;;;;;;;;;;;;;;;;;;;;;;;;"1261";"2014-10-16 13:38:19.280";"NST_correctLoc";"5";"0";"FINISHED";"LEFT";"success";"374";"0";"2014-10-16 13:38:18.016";"1";;;;;;;;;;;;;;;;;;;;;;;;;;;;;;;;;
"2014_021";"1995";;"Windows 7";"Rachel's Experiment (D.T.)";"1.0";"2";"1";"1";"2";"1";"1";"2014-10-16 13:32:46.344";"2014-10-16 13:46:08.450";"1";"0";"1";"91";"90";"module.training_block3.exec-2530.GoNoGo3";;;;;;;;;;;;;;;;;;;;;;;;;;;;;;;;;;;;;;;;;;;;;;;"1261";"2014-10-16 13:38:21.822";"NST_correctLoc";"9";"1";"FINISHED";"RIGHT";"success";"351";"0";"2014-10-16 13:38:20.559";"2";;;;;;;;;;;;;;;;;;;;;;;;;;;;;;;;;
"2014_021";"1995";;"Windows 7";"Rachel's Experiment (D.T.)";"1.0";"2";"1";"1";"2";"1";"1";"2014-10-16 13:32:46.344";"2014-10-16 13:46:08.450";"1";"0";"1";"92";"91";"module.training_block3.exec-2530.GoNoGo3";;;;;;;;;;;;;;;;;;;;;;;;;;;;;;;;;;;;;;;;;;;;;;;"1261";"2014-10-16 13:38:24.365";"NST_correctLoc";"10";"0";"FINISHED";"LEFT";"success";"288";"0";"2014-10-16 13:38:23.102";"2";;;;;;;;;;;;;;;;;;;;;;;;;;;;;;;;;
"2014_021";"1995";;"Windows 7";"Rachel's Experiment (D.T.)";"1.0";"2";"1";"1";"2";"1";"1";"2014-10-16 13:32:46.344";"2014-10-16 13:46:08.450";"1";"0";"1";"93";"92";"module.training_block3.exec-2530.GoNoGo3";;;;;;;;;;;;;;;;;;;;;;;;;;;;;;;;;;;;;;;;;;;;;;;"1261";"2014-10-16 13:38:26.892";"NST_correctLoc";"32";"1";"FINISHED";"RIGHT";"success";"289";"0";"2014-10-16 13:38:25.629";"3";;;;;;;;;;;;;;;;;;;;;;;;;;;;;;;;;
"2014_021";"1995";;"Windows 7";"Rachel's Experiment (D.T.)";"1.0";"2";"1";"1";"2";"1";"1";"2014-10-16 13:32:46.344";"2014-10-16 13:46:08.450";"1";"0";"1";"94";"93";"module.training_block3.exec-2530.GoNoGo3";;;;;;;;;;;;;;;;;;;;;;;;;;;;;;;;;;;;;;;;;;;;;;;"1261";"2014-10-16 13:38:29.435";"NST_correctLoc";"12";"0";"FINISHED";"LEFT";"success";"306";"0";"2014-10-16 13:38:28.172";"2";;;;;;;;;;;;;;;;;;;;;;;;;;;;;;;;;
"2014_021";"1995";;"Windows 7";"Rachel's Experiment (D.T.)";"1.0";"2";"1";"1";"2";"1";"1";"2014-10-16 13:32:46.344";"2014-10-16 13:46:08.450";"1";"0";"1";"95";"94";"module.training_block3.exec-2530.GoNoGo3";;;;;;;;;;;;;;;;;;;;;;;;;;;;;;;;;;;;;;;;;;;;;;;"1262";"2014-10-16 13:38:31.978";"NST_correctLoc";"21";"1";"FINISHED";"RIGHT";"success";"292";"0";"2014-10-16 13:38:30.714";"3";;;;;;;;;;;;;;;;;;;;;;;;;;;;;;;;;
"2014_021";"1995";;"Windows 7";"Rachel's Experiment (D.T.)";"1.0";"2";"1";"1";"2";"1";"1";"2014-10-16 13:32:46.344";"2014-10-16 13:46:08.450";"1";"0";"1";"96";"95";"module.training_block3.exec-2530.GoNoGo3";;;;;;;;;;;;;;;;;;;;;;;;;;;;;;;;;;;;;;;;;;;;;;;"1261";"2014-10-16 13:38:34.505";"NST_correctLoc";"17";"0";"FINISHED";"LEFT";"success";"316";"0";"2014-10-16 13:38:33.242";"2";;;;;;;;;;;;;;;;;;;;;;;;;;;;;;;;;
"2014_021";"1995";;"Windows 7";"Rachel's Experiment (D.T.)";"1.0";"2";"1";"1";"2";"1";"1";"2014-10-16 13:32:46.344";"2014-10-16 13:46:08.450";"1";"0";"1";"97";"96";"module.training_block3.exec-2530.GoNoGo3";;;;;;;;;;;;;;;;;;;;;;;;;;;;;;;;;;;;;;;;;;;;;;;"1261";"2014-10-16 13:38:37.048";"NST_correctLoc";"4";"1";"FINISHED";"RIGHT";"success";"309";"0";"2014-10-16 13:38:35.784";"1";;;;;;;;;;;;;;;;;;;;;;;;;;;;;;;;;
"2014_021";"1995";;"Windows 7";"Rachel's Experiment (D.T.)";"1.0";"2";"1";"1";"2";"1";"1";"2014-10-16 13:32:46.344";"2014-10-16 13:46:08.450";"1";"0";"1";"98";"97";"module.training_block3.exec-2530.GoNoGo3";;;;;;;;;;;;;;;;;;;;;;;;;;;;;;;;;;;;;;;;;;;;;;;"1261";"2014-10-16 13:38:39.575";"NST_correctLoc";"7";"0";"FINISHED";"LEFT";"success";"318";"0";"2014-10-16 13:38:38.312";"1";;;;;;;;;;;;;;;;;;;;;;;;;;;;;;;;;
"2014_021";"1995";;"Windows 7";"Rachel's Experiment (D.T.)";"1.0";"2";"1";"1";"2";"1";"1";"2014-10-16 13:32:46.344";"2014-10-16 13:46:08.450";"1";"0";"1";"99";"98";"module.training_block3.exec-2530.GoNoGo3";;;;;;;;;;;;;;;;;;;;;;;;;;;;;;;;;;;;;;;;;;;;;;;"1262";"2014-10-16 13:38:42.118";"NST_correctLoc";"27";"1";"FINISHED";"RIGHT";"success";"280";"0";"2014-10-16 13:38:40.854";"3";;;;;;;;;;;;;;;;;;;;;;;;;;;;;;;;;
"2014_021";"1995";;"Windows 7";"Rachel's Experiment (D.T.)";"1.0";"2";"1";"1";"2";"1";"1";"2014-10-16 13:32:46.344";"2014-10-16 13:46:08.450";"1";"0";"1";"100";"99";"module.training_block3.exec-2530.GoNoGo3";;;;;;;;;;;;;;;;;;;;;;;;;;;;;;;;;;;;;;;;;;;;;;;"1263";"2014-10-16 13:38:44.661";"NST_correctLoc";"30";"0";"FINISHED";"LEFT";"success";"265";"0";"2014-10-16 13:38:43.397";"3";;;;;;;;;;;;;;;;;;;;;;;;;;;;;;;;;
"2014_021";"1995";;"Windows 7";"Rachel's Experiment (D.T.)";"1.0";"2";"1";"1";"2";"1";"1";"2014-10-16 13:32:46.344";"2014-10-16 13:46:08.450";"1";"0";"1";"101";"100";"module.training_block3.exec-2530.GoNoGo3";;;;;;;;;;;;;;;;;;;;;;;;;;;;;;;;;;;;;;;;;;;;;;;"1262";"2014-10-16 13:38:47.188";"NST_correctLoc";"35";"1";"FINISHED";"RIGHT";"success";"274";"0";"2014-10-16 13:38:45.924";"3";;;;;;;;;;;;;;;;;;;;;;;;;;;;;;;;;
"2014_021";"1995";;"Windows 7";"Rachel's Experiment (D.T.)";"1.0";"2";"1";"1";"2";"1";"1";"2014-10-16 13:32:46.344";"2014-10-16 13:46:08.450";"1";"0";"1";"102";"101";"module.training_block3.exec-2530.GoNoGo3";;;;;;;;;;;;;;;;;;;;;;;;;;;;;;;;;;;;;;;;;;;;;;;"1262";"2014-10-16 13:38:49.731";"NST_correctLoc";"14";"1";"FINISHED";"RIGHT";"success";"314";"0";"2014-10-16 13:38:48.467";"2";;;;;;;;;;;;;;;;;;;;;;;;;;;;;;;;;
"2014_021";"1995";;"Windows 7";"Rachel's Experiment (D.T.)";"1.0";"2";"1";"1";"2";"1";"1";"2014-10-16 13:32:46.344";"2014-10-16 13:46:08.450";"1";"0";"1";"103";"102";"module.training_block3.exec-2530.GoNoGo3";;;;;;;;;;;;;;;;;;;;;;;;;;;;;;;;;;;;;;;;;;;;;;;"1261";"2014-10-16 13:38:52.258";"NST_correctLoc";"29";"1";"FINISHED";"RIGHT";"success";"323";"0";"2014-10-16 13:38:50.994";"3";;;;;;;;;;;;;;;;;;;;;;;;;;;;;;;;;
"2014_021";"1995";;"Windows 7";"Rachel's Experiment (D.T.)";"1.0";"2";"1";"1";"2";"1";"1";"2014-10-16 13:32:46.344";"2014-10-16 13:46:08.450";"1";"0";"1";"104";"103";"module.training_block3.exec-2530.GoNoGo3";;;;;;;;;;;;;;;;;;;;;;;;;;;;;;;;;;;;;;;;;;;;;;;"1261";"2014-10-16 13:38:54.801";"NST_correctLoc";"15";"0";"FINISHED";"LEFT";"success";"348";"0";"2014-10-16 13:38:53.537";"2";;;;;;;;;;;;;;;;;;;;;;;;;;;;;;;;;
"2014_021";"1995";;"Windows 7";"Rachel's Experiment (D.T.)";"1.0";"2";"1";"1";"2";"1";"1";"2014-10-16 13:32:46.344";"2014-10-16 13:46:08.450";"1";"0";"1";"105";"104";"module.training_block3.exec-2530.GoNoGo3";;;;;;;;;;;;;;;;;;;;;;;;;;;;;;;;;;;;;;;;;;;;;;;"1261";"2014-10-16 13:38:57.359";"NST_correctLoc";"26";"1";"FINISHED";"RIGHT";"success";"302";"0";"2014-10-16 13:38:56.096";"3";;;;;;;;;;;;;;;;;;;;;;;;;;;;;;;;;
"2014_021";"1995";;"Windows 7";"Rachel's Experiment (D.T.)";"1.0";"2";"1";"1";"2";"1";"1";"2014-10-16 13:32:46.344";"2014-10-16 13:46:08.450";"1";"0";"1";"106";"105";"module.training_block3.exec-2530.GoNoGo3";;;;;;;;;;;;;;;;;;;;;;;;;;;;;;;;;;;;;;;;;;;;;;;"1262";"2014-10-16 13:38:59.886";"NST_correctLoc";"20";"1";"FINISHED";"RIGHT";"success";"335";"0";"2014-10-16 13:38:58.623";"3";;;;;;;;;;;;;;;;;;;;;;;;;;;;;;;;;
"2014_021";"1995";;"Windows 7";"Rachel's Experiment (D.T.)";"1.0";"2";"1";"1";"2";"1";"1";"2014-10-16 13:32:46.344";"2014-10-16 13:46:08.450";"1";"0";"1";"107";"106";"module.training_block3.exec-2530.GoNoGo3";;;;;;;;;;;;;;;;;;;;;;;;;;;;;;;;;;;;;;;;;;;;;;;"1261";"2014-10-16 13:39:02.429";"NST_correctLoc";"0";"0";"FINISHED";"LEFT";"success";"328";"0";"2014-10-16 13:39:01.166";"1";;;;;;;;;;;;;;;;;;;;;;;;;;;;;;;;;
"2014_021";"1995";;"Windows 7";"Rachel's Experiment (D.T.)";"1.0";"2";"1";"1";"2";"1";"1";"2014-10-16 13:32:46.344";"2014-10-16 13:46:08.450";"1";"0";"1";"108";"107";"module.training_block3.exec-2530.GoNoGo3";;;;;;;;;;;;;;;;;;;;;;;;;;;;;;;;;;;;;;;;;;;;;;;"1261";"2014-10-16 13:39:04.956";"NST_correctLoc";"13";"1";"FINISHED";"RIGHT";"success";"321";"0";"2014-10-16 13:39:03.693";"2";;;;;;;;;;;;;;;;;;;;;;;;;;;;;;;;;
"2014_021";"1995";;"Windows 7";"Rachel's Experiment (D.T.)";"1.0";"2";"1";"1";"2";"1";"1";"2014-10-16 13:32:46.344";"2014-10-16 13:46:08.450";"1";"0";"1";"109";"108";"module.training_block3.exec-2530.GoNoGo3";;;;;;;;;;;;;;;;;;;;;;;;;;;;;;;;;;;;;;;;;;;;;;;"1261";"2014-10-16 13:39:07.484";"NST_correctLoc";"18";"1";"FINISHED";"RIGHT";"success";"345";"0";"2014-10-16 13:39:06.220";"3";;;;;;;;;;;;;;;;;;;;;;;;;;;;;;;;;
"2014_021";"1995";;"Windows 7";"Rachel's Experiment (D.T.)";"1.0";"2";"1";"1";"2";"1";"1";"2014-10-16 13:32:46.344";"2014-10-16 13:46:08.450";"1";"0";"1";"110";"109";"module.training_block3.exec-2530.GoNoGo3";;;;;;;;;;;;;;;;;;;;;;;;;;;;;;;;;;;;;;;;;;;;;;;"1261";"2014-10-16 13:39:10.042";"NST_correctLoc";"22";"1";"FINISHED";"RIGHT";"success";"315";"0";"2014-10-16 13:39:08.778";"3";;;;;;;;;;;;;;;;;;;;;;;;;;;;;;;;;
"2014_021";"1995";;"Windows 7";"Rachel's Experiment (D.T.)";"1.0";"2";"1";"1";"2";"1";"1";"2014-10-16 13:32:46.344";"2014-10-16 13:46:08.450";"1";"0";"1";"111";"110";"module.training_block3.exec-2530.GoNoGo3";;;;;;;;;;;;;;;;;;;;;;;;;;;;;;;;;;;;;;;;;;;;;;;"1261";"2014-10-16 13:39:12.585";"NST_correctLoc";"16";"0";"FINISHED";"LEFT";"success";"380";"0";"2014-10-16 13:39:11.321";"2";;;;;;;;;;;;;;;;;;;;;;;;;;;;;;;;;
"2014_021";"1995";;"Windows 7";"Rachel's Experiment (D.T.)";"1.0";"2";"1";"1";"2";"1";"1";"2014-10-16 13:32:46.344";"2014-10-16 13:46:08.450";"1";"0";"1";"112";"111";"module.training_block3.exec-2530.GoNoGo3";;;;;;;;;;;;;;;;;;;;;;;;;;;;;;;;;;;;;;;;;;;;;;;"1261";"2014-10-16 13:39:15.128";"NST_correctLoc";"24";"0";"FINISHED";"LEFT";"success";"349";"0";"2014-10-16 13:39:13.864";"3";;;;;;;;;;;;;;;;;;;;;;;;;;;;;;;;;
"2014_021";"1995";;"Windows 7";"Rachel's Experiment (D.T.)";"1.0";"2";"1";"1";"2";"1";"1";"2014-10-16 13:32:46.344";"2014-10-16 13:46:08.450";"1";"0";"1";"113";"112";"module.training_block3.exec-2530.GoNoGo3";;;;;;;;;;;;;;;;;;;;;;;;;;;;;;;;;;;;;;;;;;;;;;;"1261";"2014-10-16 13:39:17.655";"NST_correctLoc";"23";"1";"FINISHED";"RIGHT";"success";"358";"0";"2014-10-16 13:39:16.391";"3";;;;;;;;;;;;;;;;;;;;;;;;;;;;;;;;;
"2014_021";"1995";;"Windows 7";"Rachel's Experiment (D.T.)";"1.0";"2";"1";"1";"2";"1";"1";"2014-10-16 13:32:46.344";"2014-10-16 13:46:08.450";"1";"0";"1";"114";"113";"module.training_block3.exec-2530.GoNoGo3";;;;;;;;;;;;;;;;;;;;;;;;;;;;;;;;;;;;;;;;;;;;;;;"1261";"2014-10-16 13:39:20.182";"NST_correctLoc";"28";"0";"FINISHED";"LEFT";"success";"327";"0";"2014-10-16 13:39:18.918";"3";;;;;;;;;;;;;;;;;;;;;;;;;;;;;;;;;
"2014_021";"1995";;"Windows 7";"Rachel's Experiment (D.T.)";"1.0";"2";"1";"1";"2";"1";"1";"2014-10-16 13:32:46.344";"2014-10-16 13:46:08.450";"1";"0";"1";"115";"114";"module.training_block3.exec-2530.GoNoGo3";;;;;;;;;;;;;;;;;;;;;;;;;;;;;;;;;;;;;;;;;;;;;;;"1261";"2014-10-16 13:39:22.709";"NST_correctLoc";"19";"0";"FINISHED";"LEFT";"success";"432";"0";"2014-10-16 13:39:21.446";"3";;;;;;;;;;;;;;;;;;;;;;;;;;;;;;;;;
"2014_021";"1995";;"Windows 7";"Rachel's Experiment (D.T.)";"1.0";"2";"1";"1";"2";"1";"1";"2014-10-16 13:32:46.344";"2014-10-16 13:46:08.450";"1";"0";"1";"116";"115";"module.training_block3.exec-2530.GoNoGo3";;;;;;;;;;;;;;;;;;;;;;;;;;;;;;;;;;;;;;;;;;;;;;;"1261";"2014-10-16 13:39:25.236";"NST_correctLoc";"2";"1";"FINISHED";"RIGHT";"success";"336";"0";"2014-10-16 13:39:23.973";"1";;;;;;;;;;;;;;;;;;;;;;;;;;;;;;;;;
"2014_021";"1995";;"Windows 7";"Rachel's Experiment (D.T.)";"1.0";"2";"1";"1";"2";"1";"1";"2014-10-16 13:32:46.344";"2014-10-16 13:46:08.450";"1";"0";"1";"117";"116";"module.training_block3.exec-2530.GoNoGo3";;;;;;;;;;;;;;;;;;;;;;;;;;;;;;;;;;;;;;;;;;;;;;;"1262";"2014-10-16 13:39:27.764";"NST_correctLoc";"34";"1";"FINISHED";"RIGHT";"success";"369";"0";"2014-10-16 13:39:26.500";"3";;;;;;;;;;;;;;;;;;;;;;;;;;;;;;;;;
"2014_021";"1995";;"Windows 7";"Rachel's Experiment (D.T.)";"1.0";"2";"1";"1";"2";"1";"1";"2014-10-16 13:32:46.344";"2014-10-16 13:46:08.450";"1";"0";"1";"118";"117";"module.training_block3.exec-2530.GoNoGo3";;;;;;;;;;;;;;;;;;;;;;;;;;;;;;;;;;;;;;;;;;;;;;;"1261";"2014-10-16 13:39:30.291";"NST_correctLoc";"25";"1";"FINISHED";"RIGHT";"success";"346";"0";"2014-10-16 13:39:29.027";"3";;;;;;;;;;;;;;;;;;;;;;;;;;;;;;;;;
"2014_021";"1995";;"Windows 7";"Rachel's Experiment (D.T.)";"1.0";"2";"1";"1";"2";"1";"1";"2014-10-16 13:32:46.344";"2014-10-16 13:46:08.450";"1";"0";"1";"119";"118";"module.training_block3.exec-2530.GoNoGo3";;;;;;;;;;;;;;;;;;;;;;;;;;;;;;;;;;;;;;;;;;;;;;;"1262";"2014-10-16 13:39:32.818";"NST_correctLoc";"31";"0";"FINISHED";"LEFT";"success";"339";"0";"2014-10-16 13:39:31.554";"3";;;;;;;;;;;;;;;;;;;;;;;;;;;;;;;;;
"2014_021";"1995";;"Windows 7";"Rachel's Experiment (D.T.)";"1.0";"2";"1";"1";"2";"1";"1";"2014-10-16 13:32:46.344";"2014-10-16 13:46:08.450";"1";"0";"1";"120";"119";"module.training_block3.exec-2530.GoNoGo3";;;;;;;;;;;;;;;;;;;;;;;;;;;;;;;;;;;;;;;;;;;;;;;"1261";"2014-10-16 13:39:35.361";"NST_correctLoc";"3";"1";"FINISHED";"RIGHT";"success";"308";"0";"2014-10-16 13:39:34.097";"1";;;;;;;;;;;;;;;;;;;;;;;;;;;;;;;;;
"2014_021";"1995";;"Windows 7";"Rachel's Experiment (D.T.)";"1.0";"2";"1";"1";"2";"1";"1";"2014-10-16 13:32:46.344";"2014-10-16 13:46:08.450";"1";"0";"1";"121";"120";"module.training_block3.exec-2530.GoNoGo3";;;;;;;;;;;;;;;;;;;;;;;;;;;;;;;;;;;;;;;;;;;;;;;"1262";"2014-10-16 13:39:37.888";"NST_correctLoc";"6";"0";"FINISHED";"LEFT";"success";"245";"0";"2014-10-16 13:39:36.624";"1";;;;;;;;;;;;;;;;;;;;;;;;;;;;;;;;;
"2014_021";"1995";;"Windows 7";"Rachel's Experiment (D.T.)";"1.0";"2";"1";"1";"2";"1";"1";"2014-10-16 13:32:46.344";"2014-10-16 13:46:08.450";"1";"0";"1";"122";"121";"module.training_block3.exec-2530.GoNoGo3";;;;;;;;;;;;;;;;;;;;;;;;;;;;;;;;;;;;;;;;;;;;;;;"1261";"2014-10-16 13:39:40.431";"NST_wrongLoc";"8";"0";"FINISHED";"RIGHT";"failure";"246";"0";"2014-10-16 13:39:39.167";"1";;;;;;;;;;;;;;;;;;;;;;;;;;;;;;;;;
"2014_021";"1995";;"Windows 7";"Rachel's Experiment (D.T.)";"1.0";"2";"1";"1";"2";"1";"1";"2014-10-16 13:32:46.344";"2014-10-16 13:46:08.450";"1";"0";"1";"123";"122";"module.training_block3.exec-2530.GoNoGo3";;;;;;;;;;;;;;;;;;;;;;;;;;;;;;;;;;;;;;;;;;;;;;;"1262";"2014-10-16 13:39:42.958";"NST_correctLoc";"1";"0";"FINISHED";"LEFT";"success";"383";"0";"2014-10-16 13:39:41.694";"1";;;;;;;;;;;;;;;;;;;;;;;;;;;;;;;;;
"2014_021";"1995";;"Windows 7";"Rachel's Experiment (D.T.)";"1.0";"2";"1";"1";"2";"1";"1";"2014-10-16 13:32:46.344";"2014-10-16 13:46:08.450";"1";"0";"1";"124";"123";"module.training_block4.exec-2614.GoNoGo4";;;;;;;;;;;;;;;;;;;;;;;;;;;;;;;;;;;;;;;;;;;;;;;;;;;;;;;;;;;"1261";"2014-10-16 13:39:53.660";"NST_correctLoc";"16";"0";"FINISHED";"LEFT";"success";"361";"0";"2014-10-16 13:39:52.396";"2";;;;;;;;;;;;;;;;;;;;;
"2014_021";"1995";;"Windows 7";"Rachel's Experiment (D.T.)";"1.0";"2";"1";"1";"2";"1";"1";"2014-10-16 13:32:46.344";"2014-10-16 13:46:08.450";"1";"0";"1";"125";"124";"module.training_block4.exec-2614.GoNoGo4";;;;;;;;;;;;;;;;;;;;;;;;;;;;;;;;;;;;;;;;;;;;;;;;;;;;;;;;;;;"1262";"2014-10-16 13:39:56.187";"NST_correctLoc";"21";"0";"FINISHED";"LEFT";"success";"426";"0";"2014-10-16 13:39:54.923";"3";;;;;;;;;;;;;;;;;;;;;
"2014_021";"1995";;"Windows 7";"Rachel's Experiment (D.T.)";"1.0";"2";"1";"1";"2";"1";"1";"2014-10-16 13:32:46.344";"2014-10-16 13:46:08.450";"1";"0";"1";"126";"125";"module.training_block4.exec-2614.GoNoGo4";;;;;;;;;;;;;;;;;;;;;;;;;;;;;;;;;;;;;;;;;;;;;;;;;;;;;;;;;;;"1262";"2014-10-16 13:39:58.714";"NST_correctLoc";"9";"1";"FINISHED";"RIGHT";"success";"387";"0";"2014-10-16 13:39:57.450";"2";;;;;;;;;;;;;;;;;;;;;
"2014_021";"1995";;"Windows 7";"Rachel's Experiment (D.T.)";"1.0";"2";"1";"1";"2";"1";"1";"2014-10-16 13:32:46.344";"2014-10-16 13:46:08.450";"1";"0";"1";"127";"126";"module.training_block4.exec-2614.GoNoGo4";;;;;;;;;;;;;;;;;;;;;;;;;;;;;;;;;;;;;;;;;;;;;;;;;;;;;;;;;;;"1262";"2014-10-16 13:40:01.241";"NST_correctLoc";"4";"1";"FINISHED";"RIGHT";"success";"355";"0";"2014-10-16 13:39:59.978";"1";;;;;;;;;;;;;;;;;;;;;
"2014_021";"1995";;"Windows 7";"Rachel's Experiment (D.T.)";"1.0";"2";"1";"1";"2";"1";"1";"2014-10-16 13:32:46.344";"2014-10-16 13:46:08.450";"1";"0";"1";"128";"127";"module.training_block4.exec-2614.GoNoGo4";;;;;;;;;;;;;;;;;;;;;;;;;;;;;;;;;;;;;;;;;;;;;;;;;;;;;;;;;;;"1261";"2014-10-16 13:40:03.768";"NST_correctLoc";"19";"0";"FINISHED";"LEFT";"success";"356";"0";"2014-10-16 13:40:02.505";"3";;;;;;;;;;;;;;;;;;;;;
"2014_021";"1995";;"Windows 7";"Rachel's Experiment (D.T.)";"1.0";"2";"1";"1";"2";"1";"1";"2014-10-16 13:32:46.344";"2014-10-16 13:46:08.450";"1";"0";"1";"129";"128";"module.training_block4.exec-2614.GoNoGo4";;;;;;;;;;;;;;;;;;;;;;;;;;;;;;;;;;;;;;;;;;;;;;;;;;;;;;;;;;;"1261";"2014-10-16 13:40:06.296";"NST_correctLoc";"2";"1";"FINISHED";"RIGHT";"success";"365";"0";"2014-10-16 13:40:05.032";"1";;;;;;;;;;;;;;;;;;;;;
"2014_021";"1995";;"Windows 7";"Rachel's Experiment (D.T.)";"1.0";"2";"1";"1";"2";"1";"1";"2014-10-16 13:32:46.344";"2014-10-16 13:46:08.450";"1";"0";"1";"130";"129";"module.training_block4.exec-2614.GoNoGo4";;;;;;;;;;;;;;;;;;;;;;;;;;;;;;;;;;;;;;;;;;;;;;;;;;;;;;;;;;;"1262";"2014-10-16 13:40:08.823";"NST_correctLoc";"6";"1";"FINISHED";"RIGHT";"success";"310";"0";"2014-10-16 13:40:07.559";"1";;;;;;;;;;;;;;;;;;;;;
"2014_021";"1995";;"Windows 7";"Rachel's Experiment (D.T.)";"1.0";"2";"1";"1";"2";"1";"1";"2014-10-16 13:32:46.344";"2014-10-16 13:46:08.450";"1";"0";"1";"131";"130";"module.training_block4.exec-2614.GoNoGo4";;;;;;;;;;;;;;;;;;;;;;;;;;;;;;;;;;;;;;;;;;;;;;;;;;;;;;;;;;;"1262";"2014-10-16 13:40:11.350";"NST_correctLoc";"31";"1";"FINISHED";"RIGHT";"success";"350";"0";"2014-10-16 13:40:10.086";"3";;;;;;;;;;;;;;;;;;;;;
"2014_021";"1995";;"Windows 7";"Rachel's Experiment (D.T.)";"1.0";"2";"1";"1";"2";"1";"1";"2014-10-16 13:32:46.344";"2014-10-16 13:46:08.450";"1";"0";"1";"132";"131";"module.training_block4.exec-2614.GoNoGo4";;;;;;;;;;;;;;;;;;;;;;;;;;;;;;;;;;;;;;;;;;;;;;;;;;;;;;;;;;;"1262";"2014-10-16 13:40:13.909";"NST_correctLoc";"13";"0";"FINISHED";"LEFT";"success";"320";"0";"2014-10-16 13:40:12.645";"2";;;;;;;;;;;;;;;;;;;;;
"2014_021";"1995";;"Windows 7";"Rachel's Experiment (D.T.)";"1.0";"2";"1";"1";"2";"1";"1";"2014-10-16 13:32:46.344";"2014-10-16 13:46:08.450";"1";"0";"1";"133";"132";"module.training_block4.exec-2614.GoNoGo4";;;;;;;;;;;;;;;;;;;;;;;;;;;;;;;;;;;;;;;;;;;;;;;;;;;;;;;;;;;"1262";"2014-10-16 13:40:16.436";"NST_correctLoc";"8";"0";"FINISHED";"LEFT";"success";"338";"0";"2014-10-16 13:40:15.172";"1";;;;;;;;;;;;;;;;;;;;;
"2014_021";"1995";;"Windows 7";"Rachel's Experiment (D.T.)";"1.0";"2";"1";"1";"2";"1";"1";"2014-10-16 13:32:46.344";"2014-10-16 13:46:08.450";"1";"0";"1";"134";"133";"module.training_block4.exec-2614.GoNoGo4";;;;;;;;;;;;;;;;;;;;;;;;;;;;;;;;;;;;;;;;;;;;;;;;;;;;;;;;;;;"1262";"2014-10-16 13:40:18.979";"NST_correctLoc";"0";"1";"FINISHED";"RIGHT";"success";"354";"0";"2014-10-16 13:40:17.715";"1";;;;;;;;;;;;;;;;;;;;;
"2014_021";"1995";;"Windows 7";"Rachel's Experiment (D.T.)";"1.0";"2";"1";"1";"2";"1";"1";"2014-10-16 13:32:46.344";"2014-10-16 13:46:08.450";"1";"0";"1";"135";"134";"module.training_block4.exec-2614.GoNoGo4";;;;;;;;;;;;;;;;;;;;;;;;;;;;;;;;;;;;;;;;;;;;;;;;;;;;;;;;;;;"1262";"2014-10-16 13:40:21.506";"NST_correctLoc";"15";"1";"FINISHED";"RIGHT";"success";"339";"0";"2014-10-16 13:40:20.242";"2";;;;;;;;;;;;;;;;;;;;;
"2014_021";"1995";;"Windows 7";"Rachel's Experiment (D.T.)";"1.0";"2";"1";"1";"2";"1";"1";"2014-10-16 13:32:46.344";"2014-10-16 13:46:08.450";"1";"0";"1";"136";"135";"module.training_block4.exec-2614.GoNoGo4";;;;;;;;;;;;;;;;;;;;;;;;;;;;;;;;;;;;;;;;;;;;;;;;;;;;;;;;;;;"1261";"2014-10-16 13:40:24.049";"NST_correctLoc";"24";"1";"FINISHED";"RIGHT";"success";"356";"0";"2014-10-16 13:40:22.785";"3";;;;;;;;;;;;;;;;;;;;;
"2014_021";"1995";;"Windows 7";"Rachel's Experiment (D.T.)";"1.0";"2";"1";"1";"2";"1";"1";"2014-10-16 13:32:46.344";"2014-10-16 13:46:08.450";"1";"0";"1";"137";"136";"module.training_block4.exec-2614.GoNoGo4";;;;;;;;;;;;;;;;;;;;;;;;;;;;;;;;;;;;;;;;;;;;;;;;;;;;;;;;;;;"1262";"2014-10-16 13:40:26.576";"NST_correctLoc";"33";"1";"FINISHED";"RIGHT";"success";"317";"0";"2014-10-16 13:40:25.312";"3";;;;;;;;;;;;;;;;;;;;;
"2014_021";"1995";;"Windows 7";"Rachel's Experiment (D.T.)";"1.0";"2";"1";"1";"2";"1";"1";"2014-10-16 13:32:46.344";"2014-10-16 13:46:08.450";"1";"0";"1";"138";"137";"module.training_block4.exec-2614.GoNoGo4";;;;;;;;;;;;;;;;;;;;;;;;;;;;;;;;;;;;;;;;;;;;;;;;;;;;;;;;;;;"1262";"2014-10-16 13:40:29.103";"NST_correctLoc";"17";"0";"FINISHED";"LEFT";"success";"365";"0";"2014-10-16 13:40:27.839";"2";;;;;;;;;;;;;;;;;;;;;
"2014_021";"1995";;"Windows 7";"Rachel's Experiment (D.T.)";"1.0";"2";"1";"1";"2";"1";"1";"2014-10-16 13:32:46.344";"2014-10-16 13:46:08.450";"1";"0";"1";"139";"138";"module.training_block4.exec-2614.GoNoGo4";;;;;;;;;;;;;;;;;;;;;;;;;;;;;;;;;;;;;;;;;;;;;;;;;;;;;;;;;;;"1262";"2014-10-16 13:40:31.630";"NST_correctLoc";"35";"1";"FINISHED";"RIGHT";"success";"342";"0";"2014-10-16 13:40:30.367";"3";;;;;;;;;;;;;;;;;;;;;
"2014_021";"1995";;"Windows 7";"Rachel's Experiment (D.T.)";"1.0";"2";"1";"1";"2";"1";"1";"2014-10-16 13:32:46.344";"2014-10-16 13:46:08.450";"1";"0";"1";"140";"139";"module.training_block4.exec-2614.GoNoGo4";;;;;;;;;;;;;;;;;;;;;;;;;;;;;;;;;;;;;;;;;;;;;;;;;;;;;;;;;;;"1262";"2014-10-16 13:40:34.157";"NST_correctLoc";"20";"0";"FINISHED";"LEFT";"success";"295";"0";"2014-10-16 13:40:32.894";"3";;;;;;;;;;;;;;;;;;;;;
"2014_021";"1995";;"Windows 7";"Rachel's Experiment (D.T.)";"1.0";"2";"1";"1";"2";"1";"1";"2014-10-16 13:32:46.344";"2014-10-16 13:46:08.450";"1";"0";"1";"141";"140";"module.training_block4.exec-2614.GoNoGo4";;;;;;;;;;;;;;;;;;;;;;;;;;;;;;;;;;;;;;;;;;;;;;;;;;;;;;;;;;;"1262";"2014-10-16 13:40:36.685";"NST_correctLoc";"34";"1";"FINISHED";"RIGHT";"success";"296";"0";"2014-10-16 13:40:35.421";"3";;;;;;;;;;;;;;;;;;;;;
"2014_021";"1995";;"Windows 7";"Rachel's Experiment (D.T.)";"1.0";"2";"1";"1";"2";"1";"1";"2014-10-16 13:32:46.344";"2014-10-16 13:46:08.450";"1";"0";"1";"142";"141";"module.training_block4.exec-2614.GoNoGo4";;;;;;;;;;;;;;;;;;;;;;;;;;;;;;;;;;;;;;;;;;;;;;;;;;;;;;;;;;;"1261";"2014-10-16 13:40:39.227";"NST_correctLoc";"32";"1";"FINISHED";"RIGHT";"success";"361";"0";"2014-10-16 13:40:37.964";"3";;;;;;;;;;;;;;;;;;;;;
"2014_021";"1995";;"Windows 7";"Rachel's Experiment (D.T.)";"1.0";"2";"1";"1";"2";"1";"1";"2014-10-16 13:32:46.344";"2014-10-16 13:46:08.450";"1";"0";"1";"143";"142";"module.training_block4.exec-2614.GoNoGo4";;;;;;;;;;;;;;;;;;;;;;;;;;;;;;;;;;;;;;;;;;;;;;;;;;;;;;;;;;;"1262";"2014-10-16 13:40:41.755";"NST_correctLoc";"27";"1";"FINISHED";"RIGHT";"success";"410";"0";"2014-10-16 13:40:40.491";"3";;;;;;;;;;;;;;;;;;;;;
"2014_021";"1995";;"Windows 7";"Rachel's Experiment (D.T.)";"1.0";"2";"1";"1";"2";"1";"1";"2014-10-16 13:32:46.344";"2014-10-16 13:46:08.450";"1";"0";"1";"144";"143";"module.training_block4.exec-2614.GoNoGo4";;;;;;;;;;;;;;;;;;;;;;;;;;;;;;;;;;;;;;;;;;;;;;;;;;;;;;;;;;;"1262";"2014-10-16 13:40:44.282";"NST_correctLoc";"18";"1";"FINISHED";"RIGHT";"success";"371";"0";"2014-10-16 13:40:43.018";"3";;;;;;;;;;;;;;;;;;;;;
"2014_021";"1995";;"Windows 7";"Rachel's Experiment (D.T.)";"1.0";"2";"1";"1";"2";"1";"1";"2014-10-16 13:32:46.344";"2014-10-16 13:46:08.450";"1";"0";"1";"145";"144";"module.training_block4.exec-2614.GoNoGo4";;;;;;;;;;;;;;;;;;;;;;;;;;;;;;;;;;;;;;;;;;;;;;;;;;;;;;;;;;;"1262";"2014-10-16 13:40:46.809";"NST_correctLoc";"25";"0";"FINISHED";"LEFT";"success";"379";"0";"2014-10-16 13:40:45.545";"3";;;;;;;;;;;;;;;;;;;;;
"2014_021";"1995";;"Windows 7";"Rachel's Experiment (D.T.)";"1.0";"2";"1";"1";"2";"1";"1";"2014-10-16 13:32:46.344";"2014-10-16 13:46:08.450";"1";"0";"1";"146";"145";"module.training_block4.exec-2614.GoNoGo4";;;;;;;;;;;;;;;;;;;;;;;;;;;;;;;;;;;;;;;;;;;;;;;;;;;;;;;;;;;"1262";"2014-10-16 13:40:49.336";"NST_correctLoc";"29";"1";"FINISHED";"RIGHT";"success";"356";"0";"2014-10-16 13:40:48.073";"3";;;;;;;;;;;;;;;;;;;;;
"2014_021";"1995";;"Windows 7";"Rachel's Experiment (D.T.)";"1.0";"2";"1";"1";"2";"1";"1";"2014-10-16 13:32:46.344";"2014-10-16 13:46:08.450";"1";"0";"1";"147";"146";"module.training_block4.exec-2614.GoNoGo4";;;;;;;;;;;;;;;;;;;;;;;;;;;;;;;;;;;;;;;;;;;;;;;;;;;;;;;;;;;"1262";"2014-10-16 13:40:51.863";"NST_correctLoc";"30";"1";"FINISHED";"RIGHT";"success";"381";"0";"2014-10-16 13:40:50.600";"3";;;;;;;;;;;;;;;;;;;;;
"2014_021";"1995";;"Windows 7";"Rachel's Experiment (D.T.)";"1.0";"2";"1";"1";"2";"1";"1";"2014-10-16 13:32:46.344";"2014-10-16 13:46:08.450";"1";"0";"1";"148";"147";"module.training_block4.exec-2614.GoNoGo4";;;;;;;;;;;;;;;;;;;;;;;;;;;;;;;;;;;;;;;;;;;;;;;;;;;;;;;;;;;"1262";"2014-10-16 13:40:54.391";"NST_correctLoc";"7";"0";"FINISHED";"LEFT";"success";"374";"0";"2014-10-16 13:40:53.127";"1";;;;;;;;;;;;;;;;;;;;;
"2014_021";"1995";;"Windows 7";"Rachel's Experiment (D.T.)";"1.0";"2";"1";"1";"2";"1";"1";"2014-10-16 13:32:46.344";"2014-10-16 13:46:08.450";"1";"0";"1";"149";"148";"module.training_block4.exec-2614.GoNoGo4";;;;;;;;;;;;;;;;;;;;;;;;;;;;;;;;;;;;;;;;;;;;;;;;;;;;;;;;;;;"1262";"2014-10-16 13:40:56.918";"NST_correctLoc";"28";"0";"FINISHED";"LEFT";"success";"446";"0";"2014-10-16 13:40:55.654";"3";;;;;;;;;;;;;;;;;;;;;
"2014_021";"1995";;"Windows 7";"Rachel's Experiment (D.T.)";"1.0";"2";"1";"1";"2";"1";"1";"2014-10-16 13:32:46.344";"2014-10-16 13:46:08.450";"1";"0";"1";"150";"149";"module.training_block4.exec-2614.GoNoGo4";;;;;;;;;;;;;;;;;;;;;;;;;;;;;;;;;;;;;;;;;;;;;;;;;;;;;;;;;;;"1262";"2014-10-16 13:40:59.461";"NST_correctLoc";"11";"0";"FINISHED";"LEFT";"success";"360";"0";"2014-10-16 13:40:58.197";"2";;;;;;;;;;;;;;;;;;;;;
"2014_021";"1995";;"Windows 7";"Rachel's Experiment (D.T.)";"1.0";"2";"1";"1";"2";"1";"1";"2014-10-16 13:32:46.344";"2014-10-16 13:46:08.450";"1";"0";"1";"151";"150";"module.training_block4.exec-2614.GoNoGo4";;;;;;;;;;;;;;;;;;;;;;;;;;;;;;;;;;;;;;;;;;;;;;;;;;;;;;;;;;;"1262";"2014-10-16 13:41:01.988";"NST_correctLoc";"14";"0";"FINISHED";"LEFT";"success";"352";"0";"2014-10-16 13:41:00.724";"2";;;;;;;;;;;;;;;;;;;;;
"2014_021";"1995";;"Windows 7";"Rachel's Experiment (D.T.)";"1.0";"2";"1";"1";"2";"1";"1";"2014-10-16 13:32:46.344";"2014-10-16 13:46:08.450";"1";"0";"1";"152";"151";"module.training_block4.exec-2614.GoNoGo4";;;;;;;;;;;;;;;;;;;;;;;;;;;;;;;;;;;;;;;;;;;;;;;;;;;;;;;;;;;"1262";"2014-10-16 13:41:04.515";"NST_correctLoc";"22";"1";"FINISHED";"RIGHT";"success";"361";"0";"2014-10-16 13:41:03.251";"3";;;;;;;;;;;;;;;;;;;;;
"2014_021";"1995";;"Windows 7";"Rachel's Experiment (D.T.)";"1.0";"2";"1";"1";"2";"1";"1";"2014-10-16 13:32:46.344";"2014-10-16 13:46:08.450";"1";"0";"1";"153";"152";"module.training_block4.exec-2614.GoNoGo4";;;;;;;;;;;;;;;;;;;;;;;;;;;;;;;;;;;;;;;;;;;;;;;;;;;;;;;;;;;"1262";"2014-10-16 13:41:07.042";"NST_correctLoc";"12";"0";"FINISHED";"LEFT";"success";"354";"0";"2014-10-16 13:41:05.779";"2";;;;;;;;;;;;;;;;;;;;;
"2014_021";"1995";;"Windows 7";"Rachel's Experiment (D.T.)";"1.0";"2";"1";"1";"2";"1";"1";"2014-10-16 13:32:46.344";"2014-10-16 13:46:08.450";"1";"0";"1";"154";"153";"module.training_block4.exec-2614.GoNoGo4";;;;;;;;;;;;;;;;;;;;;;;;;;;;;;;;;;;;;;;;;;;;;;;;;;;;;;;;;;;"1262";"2014-10-16 13:41:09.569";"NST_correctLoc";"5";"0";"FINISHED";"LEFT";"success";"339";"0";"2014-10-16 13:41:08.306";"1";;;;;;;;;;;;;;;;;;;;;
"2014_021";"1995";;"Windows 7";"Rachel's Experiment (D.T.)";"1.0";"2";"1";"1";"2";"1";"1";"2014-10-16 13:32:46.344";"2014-10-16 13:46:08.450";"1";"0";"1";"155";"154";"module.training_block4.exec-2614.GoNoGo4";;;;;;;;;;;;;;;;;;;;;;;;;;;;;;;;;;;;;;;;;;;;;;;;;;;;;;;;;;;"1262";"2014-10-16 13:41:12.097";"NST_correctLoc";"23";"1";"FINISHED";"RIGHT";"success";"324";"0";"2014-10-16 13:41:10.833";"3";;;;;;;;;;;;;;;;;;;;;
"2014_021";"1995";;"Windows 7";"Rachel's Experiment (D.T.)";"1.0";"2";"1";"1";"2";"1";"1";"2014-10-16 13:32:46.344";"2014-10-16 13:46:08.450";"1";"0";"1";"156";"155";"module.training_block4.exec-2614.GoNoGo4";;;;;;;;;;;;;;;;;;;;;;;;;;;;;;;;;;;;;;;;;;;;;;;;;;;;;;;;;;;"1261";"2014-10-16 13:41:14.624";"NST_correctLoc";"3";"0";"FINISHED";"LEFT";"success";"364";"0";"2014-10-16 13:41:13.360";"1";;;;;;;;;;;;;;;;;;;;;
"2014_021";"1995";;"Windows 7";"Rachel's Experiment (D.T.)";"1.0";"2";"1";"1";"2";"1";"1";"2014-10-16 13:32:46.344";"2014-10-16 13:46:08.450";"1";"0";"1";"157";"156";"module.training_block4.exec-2614.GoNoGo4";;;;;;;;;;;;;;;;;;;;;;;;;;;;;;;;;;;;;;;;;;;;;;;;;;;;;;;;;;;"1261";"2014-10-16 13:41:17.151";"NST_correctLoc";"26";"0";"FINISHED";"LEFT";"success";"357";"0";"2014-10-16 13:41:15.887";"3";;;;;;;;;;;;;;;;;;;;;
"2014_021";"1995";;"Windows 7";"Rachel's Experiment (D.T.)";"1.0";"2";"1";"1";"2";"1";"1";"2014-10-16 13:32:46.344";"2014-10-16 13:46:08.450";"1";"0";"1";"158";"157";"module.training_block4.exec-2614.GoNoGo4";;;;;;;;;;;;;;;;;;;;;;;;;;;;;;;;;;;;;;;;;;;;;;;;;;;;;;;;;;;"1261";"2014-10-16 13:41:19.694";"NST_correctLoc";"10";"0";"FINISHED";"LEFT";"success";"358";"0";"2014-10-16 13:41:18.430";"2";;;;;;;;;;;;;;;;;;;;;
"2014_021";"1995";;"Windows 7";"Rachel's Experiment (D.T.)";"1.0";"2";"1";"1";"2";"1";"1";"2014-10-16 13:32:46.344";"2014-10-16 13:46:08.450";"1";"0";"1";"159";"158";"module.training_block4.exec-2614.GoNoGo4";;;;;;;;;;;;;;;;;;;;;;;;;;;;;;;;;;;;;;;;;;;;;;;;;;;;;;;;;;;"1262";"2014-10-16 13:41:22.221";"NST_correctLoc";"1";"0";"FINISHED";"LEFT";"success";"431";"0";"2014-10-16 13:41:20.957";"1";;;;;;;;;;;;;;;;;;;;;
"2014_021";"1995";;"Windows 7";"Rachel's Experiment (D.T.)";"1.0";"2";"1";"1";"2";"1";"1";"2014-10-16 13:32:46.344";"2014-10-16 13:46:08.450";"1";"0";"1";"160";"159";"module.devaluation_practice.exec-8832.devalPractice";;;;;;;;;;;;"14674";"2014-10-16 13:41:57.945";"0";"8";"4";"6";"2080";"5721";"3826";"2014-10-16 13:41:43.265";;;;;;;;;;;;;;;;;;;;;;;;;;;;;;;;;;;;;;;;;;;;;;;;;;;;;;;;;;;;;;;;;;;;;;
"2014_021";"1995";;"Windows 7";"Rachel's Experiment (D.T.)";"1.0";"2";"1";"1";"2";"1";"1";"2014-10-16 13:32:46.344";"2014-10-16 13:46:08.450";"1";"0";"1";"161";"160";"module.devaluation_practice.exec-8832.devalPractice";;;;;;;;;;;;"9648";"2014-10-16 13:42:07.617";"1";"7";"9";"9";"2851";"1367";"2406";"2014-10-16 13:41:57.976";;;;;;;;;;;;;;;;;;;;;;;;;;;;;;;;;;;;;;;;;;;;;;;;;;;;;;;;;;;;;;;;;;;;;;
"2014_021";"1995";;"Windows 7";"Rachel's Experiment (D.T.)";"1.0";"2";"1";"1";"2";"1";"1";"2014-10-16 13:32:46.344";"2014-10-16 13:46:08.450";"1";"0";"1";"162";"161";"module.devaluation_practice.exec-8832.devalPractice";;;;;;;;;;;;"8653";"2014-10-16 13:42:16.291";"2";"5";"7";"8";"1783";"2080";"1654";"2014-10-16 13:42:07.633";;;;;;;;;;;;;;;;;;;;;;;;;;;;;;;;;;;;;;;;;;;;;;;;;;;;;;;;;;;;;;;;;;;;;;
"2014_021";"1995";;"Windows 7";"Rachel's Experiment (D.T.)";"1.0";"2";"1";"1";"2";"1";"1";"2014-10-16 13:32:46.344";"2014-10-16 13:46:08.450";"1";"0";"1";"163";"162";"module.devaluation_practice.exec-8832.devalPractice";;;;;;;;;;;;"9315";"2014-10-16 13:42:25.635";"3";"7";"8";"9";"2022";"2036";"2206";"2014-10-16 13:42:16.322";;;;;;;;;;;;;;;;;;;;;;;;;;;;;;;;;;;;;;;;;;;;;;;;;;;;;;;;;;;;;;;;;;;;;;
"2014_021";"1995";;"Windows 7";"Rachel's Experiment (D.T.)";"1.0";"2";"1";"1";"2";"1";"1";"2014-10-16 13:32:46.344";"2014-10-16 13:46:08.450";"1";"0";"1";"164";"163";"module.devaluation_block1.exec-7858.deval1";"9755";"2014-10-16 13:42:41.360";"23";"7";"7";"8";"2747";"1774";"2207";"2014-10-16 13:42:31.610";"3";;;;;;;;;;;;;;;;;;;;;;;;;;;;;;;;;;;;;;;;;;;;;;;;;;;;;;;;;;;;;;;;;;;;;;;;;;;;;;;;
"2014_021";"1995";;"Windows 7";"Rachel's Experiment (D.T.)";"1.0";"2";"1";"1";"2";"1";"1";"2014-10-16 13:32:46.344";"2014-10-16 13:46:08.450";"1";"0";"1";"165";"164";"module.devaluation_block1.exec-7858.deval1";"9908";"2014-10-16 13:42:51.297";"26";"8";"8";"8";"1927";"1312";"3646";"2014-10-16 13:42:41.391";"3";;;;;;;;;;;;;;;;;;;;;;;;;;;;;;;;;;;;;;;;;;;;;;;;;;;;;;;;;;;;;;;;;;;;;;;;;;;;;;;;
"2014_021";"1995";;"Windows 7";"Rachel's Experiment (D.T.)";"1.0";"2";"1";"1";"2";"1";"1";"2014-10-16 13:32:46.344";"2014-10-16 13:46:08.450";"1";"0";"1";"166";"165";"module.devaluation_block1.exec-7858.deval1";"10384";"2014-10-16 13:43:01.702";"1";"6";"9";"8";"2894";"1572";"2893";"2014-10-16 13:42:51.328";"1";;;;;;;;;;;;;;;;;;;;;;;;;;;;;;;;;;;;;;;;;;;;;;;;;;;;;;;;;;;;;;;;;;;;;;;;;;;;;;;;
"2014_021";"1995";;"Windows 7";"Rachel's Experiment (D.T.)";"1.0";"2";"1";"1";"2";"1";"1";"2014-10-16 13:32:46.344";"2014-10-16 13:46:08.450";"1";"0";"1";"167";"166";"module.devaluation_block1.exec-7858.deval1";"8729";"2014-10-16 13:43:10.470";"6";"8";"9";"9";"2673";"1339";"1690";"2014-10-16 13:43:01.734";"1";;;;;;;;;;;;;;;;;;;;;;;;;;;;;;;;;;;;;;;;;;;;;;;;;;;;;;;;;;;;;;;;;;;;;;;;;;;;;;;;
"2014_021";"1995";;"Windows 7";"Rachel's Experiment (D.T.)";"1.0";"2";"1";"1";"2";"1";"1";"2014-10-16 13:32:46.344";"2014-10-16 13:46:08.450";"1";"0";"1";"168";"167";"module.devaluation_block1.exec-7858.deval1";"8181";"2014-10-16 13:43:18.660";"25";"5";"4";"6";"1993";"1739";"1425";"2014-10-16 13:43:10.485";"3";;;;;;;;;;;;;;;;;;;;;;;;;;;;;;;;;;;;;;;;;;;;;;;;;;;;;;;;;;;;;;;;;;;;;;;;;;;;;;;;
"2014_021";"1995";;"Windows 7";"Rachel's Experiment (D.T.)";"1.0";"2";"1";"1";"2";"1";"1";"2014-10-16 13:32:46.344";"2014-10-16 13:46:08.450";"1";"0";"1";"169";"168";"module.devaluation_block1.exec-7858.deval1";"7997";"2014-10-16 13:43:26.678";"19";"8";"8";"8";"2539";"909";"1529";"2014-10-16 13:43:18.675";"3";;;;;;;;;;;;;;;;;;;;;;;;;;;;;;;;;;;;;;;;;;;;;;;;;;;;;;;;;;;;;;;;;;;;;;;;;;;;;;;;
"2014_021";"1995";;"Windows 7";"Rachel's Experiment (D.T.)";"1.0";"2";"1";"1";"2";"1";"1";"2014-10-16 13:32:46.344";"2014-10-16 13:46:08.450";"1";"0";"1";"170";"169";"module.devaluation_block1.exec-7858.deval1";"7357";"2014-10-16 13:43:34.057";"2";"7";"9";"8";"1497";"1593";"1236";"2014-10-16 13:43:26.694";"1";;;;;;;;;;;;;;;;;;;;;;;;;;;;;;;;;;;;;;;;;;;;;;;;;;;;;;;;;;;;;;;;;;;;;;;;;;;;;;;;
"2014_021";"1995";;"Windows 7";"Rachel's Experiment (D.T.)";"1.0";"2";"1";"1";"2";"1";"1";"2014-10-16 13:32:46.344";"2014-10-16 13:46:08.450";"1";"0";"1";"171";"170";"module.devaluation_block1.exec-7858.deval1";"9564";"2014-10-16 13:43:43.635";"7";"7";"8";"8";"2910";"1458";"2165";"2014-10-16 13:43:34.072";"1";;;;;;;;;;;;;;;;;;;;;;;;;;;;;;;;;;;;;;;;;;;;;;;;;;;;;;;;;;;;;;;;;;;;;;;;;;;;;;;;
"2014_021";"1995";;"Windows 7";"Rachel's Experiment (D.T.)";"1.0";"2";"1";"1";"2";"1";"1";"2014-10-16 13:32:46.344";"2014-10-16 13:46:08.450";"1";"0";"1";"172";"171";"module.devaluation_block1.exec-7858.deval1";"7310";"2014-10-16 13:43:50.967";"3";"7";"9";"9";"1619";"1205";"1450";"2014-10-16 13:43:43.651";"1";;;;;;;;;;;;;;;;;;;;;;;;;;;;;;;;;;;;;;;;;;;;;;;;;;;;;;;;;;;;;;;;;;;;;;;;;;;;;;;;
"2014_021";"1995";;"Windows 7";"Rachel's Experiment (D.T.)";"1.0";"2";"1";"1";"2";"1";"1";"2014-10-16 13:32:46.344";"2014-10-16 13:46:08.450";"1";"0";"1";"173";"172";"module.devaluation_block1.exec-7858.deval1";"8932";"2014-10-16 13:43:59.922";"13";"4";"1";"1";"1396";"1452";"3064";"2014-10-16 13:43:50.983";"2";;;;;;;;;;;;;;;;;;;;;;;;;;;;;;;;;;;;;;;;;;;;;;;;;;;;;;;;;;;;;;;;;;;;;;;;;;;;;;;;
"2014_021";"1995";;"Windows 7";"Rachel's Experiment (D.T.)";"1.0";"2";"1";"1";"2";"1";"1";"2014-10-16 13:32:46.344";"2014-10-16 13:46:08.450";"1";"0";"1";"174";"173";"module.devaluation_block1.exec-7858.deval1";"6853";"2014-10-16 13:44:06.786";"22";"6";"2";"3";"1357";"1413";"1053";"2014-10-16 13:43:59.937";"3";;;;;;;;;;;;;;;;;;;;;;;;;;;;;;;;;;;;;;;;;;;;;;;;;;;;;;;;;;;;;;;;;;;;;;;;;;;;;;;;
"2014_021";"1995";;"Windows 7";"Rachel's Experiment (D.T.)";"1.0";"2";"1";"1";"2";"1";"1";"2014-10-16 13:32:46.344";"2014-10-16 13:46:08.450";"1";"0";"1";"175";"174";"module.devaluation_block1.exec-7858.deval1";"8124";"2014-10-16 13:44:14.929";"4";"8";"7";"8";"1797";"1772";"1528";"2014-10-16 13:44:06.801";"1";;;;;;;;;;;;;;;;;;;;;;;;;;;;;;;;;;;;;;;;;;;;;;;;;;;;;;;;;;;;;;;;;;;;;;;;;;;;;;;;
"2014_021";"1995";;"Windows 7";"Rachel's Experiment (D.T.)";"1.0";"2";"1";"1";"2";"1";"1";"2014-10-16 13:32:46.344";"2014-10-16 13:46:08.450";"1";"0";"1";"176";"175";"module.devaluation_block1.exec-7858.deval1";"7221";"2014-10-16 13:44:22.167";"21";"5";"5";"6";"2061";"713";"1423";"2014-10-16 13:44:14.945";"3";;;;;;;;;;;;;;;;;;;;;;;;;;;;;;;;;;;;;;;;;;;;;;;;;;;;;;;;;;;;;;;;;;;;;;;;;;;;;;;;
"2014_021";"1995";;"Windows 7";"Rachel's Experiment (D.T.)";"1.0";"2";"1";"1";"2";"1";"1";"2014-10-16 13:32:46.344";"2014-10-16 13:46:08.450";"1";"0";"1";"177";"176";"module.devaluation_block1.exec-7858.deval1";"7920";"2014-10-16 13:44:30.123";"14";"6";"7";"7";"1783";"1247";"1858";"2014-10-16 13:44:22.199";"2";;;;;;;;;;;;;;;;;;;;;;;;;;;;;;;;;;;;;;;;;;;;;;;;;;;;;;;;;;;;;;;;;;;;;;;;;;;;;;;;
"2014_021";"1995";;"Windows 7";"Rachel's Experiment (D.T.)";"1.0";"2";"1";"1";"2";"1";"1";"2014-10-16 13:32:46.344";"2014-10-16 13:46:08.450";"1";"0";"1";"178";"177";"module.devaluation_block1.exec-7858.deval1";"8812";"2014-10-16 13:44:38.953";"18";"4";"4";"6";"1355";"2591";"1835";"2014-10-16 13:44:30.139";"3";;;;;;;;;;;;;;;;;;;;;;;;;;;;;;;;;;;;;;;;;;;;;;;;;;;;;;;;;;;;;;;;;;;;;;;;;;;;;;;;
"2014_021";"1995";;"Windows 7";"Rachel's Experiment (D.T.)";"1.0";"2";"1";"1";"2";"1";"1";"2014-10-16 13:32:46.344";"2014-10-16 13:46:08.450";"1";"0";"1";"179";"178";"module.devaluation_block1.exec-7858.deval1";"8844";"2014-10-16 13:44:47.814";"17";"4";"4";"4";"2021";"1377";"2430";"2014-10-16 13:44:38.969";"2";;;;;;;;;;;;;;;;;;;;;;;;;;;;;;;;;;;;;;;;;;;;;;;;;;;;;;;;;;;;;;;;;;;;;;;;;;;;;;;;
"2014_021";"1995";;"Windows 7";"Rachel's Experiment (D.T.)";"1.0";"2";"1";"1";"2";"1";"1";"2014-10-16 13:32:46.344";"2014-10-16 13:46:08.450";"1";"0";"1";"180";"179";"module.devaluation_block1.exec-7858.deval1";"8733";"2014-10-16 13:44:56.565";"5";"6";"8";"8";"1377";"1565";"2761";"2014-10-16 13:44:47.829";"1";;;;;;;;;;;;;;;;;;;;;;;;;;;;;;;;;;;;;;;;;;;;;;;;;;;;;;;;;;;;;;;;;;;;;;;;;;;;;;;;
"2014_021";"1995";;"Windows 7";"Rachel's Experiment (D.T.)";"1.0";"2";"1";"1";"2";"1";"1";"2014-10-16 13:32:46.344";"2014-10-16 13:46:08.450";"1";"0";"1";"181";"180";"module.devaluation_block1.exec-7858.deval1";"7277";"2014-10-16 13:45:03.866";"20";"8";"9";"9";"2081";"998";"1171";"2014-10-16 13:44:56.581";"3";;;;;;;;;;;;;;;;;;;;;;;;;;;;;;;;;;;;;;;;;;;;;;;;;;;;;;;;;;;;;;;;;;;;;;;;;;;;;;;;
"2014_021";"1995";;"Windows 7";"Rachel's Experiment (D.T.)";"1.0";"2";"1";"1";"2";"1";"1";"2014-10-16 13:32:46.344";"2014-10-16 13:46:08.450";"1";"0";"1";"182";"181";"module.devaluation_block1.exec-7858.deval1";"6341";"2014-10-16 13:45:10.215";"9";"4";"7";"7";"900";"1009";"1416";"2014-10-16 13:45:03.882";"2";;;;;;;;;;;;;;;;;;;;;;;;;;;;;;;;;;;;;;;;;;;;;;;;;;;;;;;;;;;;;;;;;;;;;;;;;;;;;;;;
"2014_021";"1995";;"Windows 7";"Rachel's Experiment (D.T.)";"1.0";"2";"1";"1";"2";"1";"1";"2014-10-16 13:32:46.344";"2014-10-16 13:46:08.450";"1";"0";"1";"183";"182";"module.devaluation_block1.exec-7858.deval1";"6724";"2014-10-16 13:45:16.970";"15";"5";"7";"5";"1767";"858";"1058";"2014-10-16 13:45:10.247";"2";;;;;;;;;;;;;;;;;;;;;;;;;;;;;;;;;;;;;;;;;;;;;;;;;;;;;;;;;;;;;;;;;;;;;;;;;;;;;;;;
"2014_021";"1995";;"Windows 7";"Rachel's Experiment (D.T.)";"1.0";"2";"1";"1";"2";"1";"1";"2014-10-16 13:32:46.344";"2014-10-16 13:46:08.450";"1";"0";"1";"184";"183";"module.devaluation_block1.exec-7858.deval1";"8101";"2014-10-16 13:45:25.082";"8";"6";"7";"6";"1980";"1474";"1612";"2014-10-16 13:45:16.986";"1";;;;;;;;;;;;;;;;;;;;;;;;;;;;;;;;;;;;;;;;;;;;;;;;;;;;;;;;;;;;;;;;;;;;;;;;;;;;;;;;
"2014_021";"1995";;"Windows 7";"Rachel's Experiment (D.T.)";"1.0";"2";"1";"1";"2";"1";"1";"2014-10-16 13:32:46.344";"2014-10-16 13:46:08.450";"1";"0";"1";"185";"184";"module.devaluation_block1.exec-7858.deval1";"7605";"2014-10-16 13:45:32.711";"24";"5";"1";"2";"1772";"1595";"1222";"2014-10-16 13:45:25.098";"3";;;;;;;;;;;;;;;;;;;;;;;;;;;;;;;;;;;;;;;;;;;;;;;;;;;;;;;;;;;;;;;;;;;;;;;;;;;;;;;;
"2014_021";"1995";;"Windows 7";"Rachel's Experiment (D.T.)";"1.0";"2";"1";"1";"2";"1";"1";"2014-10-16 13:32:46.344";"2014-10-16 13:46:08.450";"1";"0";"1";"186";"185";"module.devaluation_block1.exec-7858.deval1";"6961";"2014-10-16 13:45:39.699";"16";"5";"7";"7";"1232";"1535";"1156";"2014-10-16 13:45:32.742";"2";;;;;;;;;;;;;;;;;;;;;;;;;;;;;;;;;;;;;;;;;;;;;;;;;;;;;;;;;;;;;;;;;;;;;;;;;;;;;;;;
"2014_021";"1995";;"Windows 7";"Rachel's Experiment (D.T.)";"1.0";"2";"1";"1";"2";"1";"1";"2014-10-16 13:32:46.344";"2014-10-16 13:46:08.450";"1";"0";"1";"187";"186";"module.devaluation_block1.exec-7858.deval1";"5797";"2014-10-16 13:45:45.518";"10";"6";"3";"4";"658";"861";"1256";"2014-10-16 13:45:39.715";"2";;;;;;;;;;;;;;;;;;;;;;;;;;;;;;;;;;;;;;;;;;;;;;;;;;;;;;;;;;;;;;;;;;;;;;;;;;;;;;;;
"2014_021";"1995";;"Windows 7";"Rachel's Experiment (D.T.)";"1.0";"2";"1";"1";"2";"1";"1";"2014-10-16 13:32:46.344";"2014-10-16 13:46:08.450";"1";"0";"1";"188";"187";"module.devaluation_block1.exec-7858.deval1";"7684";"2014-10-16 13:45:53.225";"0";"5";"8";"8";"1848";"1624";"1196";"2014-10-16 13:45:45.534";"1";;;;;;;;;;;;;;;;;;;;;;;;;;;;;;;;;;;;;;;;;;;;;;;;;;;;;;;;;;;;;;;;;;;;;;;;;;;;;;;;
"2014_021";"1995";;"Windows 7";"Rachel's Experiment (D.T.)";"1.0";"2";"1";"1";"2";"1";"1";"2014-10-16 13:32:46.344";"2014-10-16 13:46:08.450";"1";"0";"1";"189";"188";"module.devaluation_block1.exec-7858.deval1";"5549";"2014-10-16 13:45:58.794";"11";"6";"5";"5";"901";"608";"1025";"2014-10-16 13:45:53.240";"2";;;;;;;;;;;;;;;;;;;;;;;;;;;;;;;;;;;;;;;;;;;;;;;;;;;;;;;;;;;;;;;;;;;;;;;;;;;;;;;;
"2014_021";"1995";;"Windows 7";"Rachel's Experiment (D.T.)";"1.0";"2";"1";"1";"2";"1";"1";"2014-10-16 13:32:46.344";"2014-10-16 13:46:08.450";"1";"0";"1";"190";"189";"module.devaluation_block1.exec-7858.deval1";"8006";"2014-10-16 13:46:06.828";"12";"6";"1";"2";"972";"1285";"2722";"2014-10-16 13:45:58.825";"2";;;;;;;;;;;;;;;;;;;;;;;;;;;;;;;;;;;;;;;;;;;;;;;;;;;;;;;;;;;;;;;;;;;;;;;;;;;;;;;;
