"user.name";"user.yearOfBirth";"user.sex";"user.osName";"module.name";"module.version";"module.online.subject.code";"module.online.study.id";"module.online.module.nr";"module.online.group.nr";"session.id";"session.index";"session.startTime";"session.endTime";"session.completed";"session.node-2981.conditionType";"session.node-7482.DevalQorder";"trial.id";"trial.index";"trial.name";"trial.deval1.durationTime";"trial.deval1.endTime";"trial.deval1.icon";"trial.deval1.Resp_Attractive";"trial.deval1.Resp_Eat";"trial.deval1.Resp_Taste";"trial.deval1.RT_Attractive";"trial.deval1.RT_Eat";"trial.deval1.RT_Taste";"trial.deval1.startTime";"trial.deval1.stimulus type";"trial.devalPractice.durationTime";"trial.devalPractice.endTime";"trial.devalPractice.icon";"trial.devalPractice.Resp_Attractive";"trial.devalPractice.Resp_Eat";"trial.devalPractice.Resp_Taste";"trial.devalPractice.RT_Attractive";"trial.devalPractice.RT_Eat";"trial.devalPractice.RT_Taste";"trial.devalPractice.startTime";"trial.devalPractice.stimulus type";"trial.GoNoGo1.durationTime";"trial.GoNoGo1.endTime";"trial.GoNoGo1.Error Type";"trial.GoNoGo1.icon";"trial.GoNoGo1.location";"trial.GoNoGo1.outcome";"trial.GoNoGo1.response";"trial.GoNoGo1.result";"trial.GoNoGo1.RT";"trial.GoNoGo1.signal";"trial.GoNoGo1.startTime";"trial.GoNoGo1.stimulus type";"trial.GoNoGo2.durationTime";"trial.GoNoGo2.endTime";"trial.GoNoGo2.Error Type";"trial.GoNoGo2.icon";"trial.GoNoGo2.location";"trial.GoNoGo2.outcome";"trial.GoNoGo2.response";"trial.GoNoGo2.result";"trial.GoNoGo2.RT";"trial.GoNoGo2.signal";"trial.GoNoGo2.startTime";"trial.GoNoGo2.stimulus type";"trial.GoNoGo3.durationTime";"trial.GoNoGo3.endTime";"trial.GoNoGo3.Error Type";"trial.GoNoGo3.icon";"trial.GoNoGo3.location";"trial.GoNoGo3.outcome";"trial.GoNoGo3.response";"trial.GoNoGo3.result";"trial.GoNoGo3.RT";"trial.GoNoGo3.signal";"trial.GoNoGo3.startTime";"trial.GoNoGo3.stimulus type";"trial.GoNoGo4.durationTime";"trial.GoNoGo4.endTime";"trial.GoNoGo4.Error Type";"trial.GoNoGo4.icon";"trial.GoNoGo4.location";"trial.GoNoGo4.outcome";"trial.GoNoGo4.response";"trial.GoNoGo4.result";"trial.GoNoGo4.RT";"trial.GoNoGo4.signal";"trial.GoNoGo4.startTime";"trial.GoNoGo4.stimulus type";"trial.GoNoGo_Practice.durationTime";"trial.GoNoGo_Practice.endTime";"trial.GoNoGo_Practice.icon";"trial.GoNoGo_Practice.location";"trial.GoNoGo_Practice.outcome";"trial.GoNoGo_Practice.response";"trial.GoNoGo_Practice.result";"trial.GoNoGo_Practice.RT";"trial.GoNoGo_Practice.signal";"trial.GoNoGo_Practice.startTime";"trial.GoNoGo_Practice.stimulus type";"trial.GoNoGo_Tutorial.durationTime";"trial.GoNoGo_Tutorial.endTime";"trial.GoNoGo_Tutorial.icon";"trial.GoNoGo_Tutorial.location";"trial.GoNoGo_Tutorial.outcome";"trial.GoNoGo_Tutorial.response";"trial.GoNoGo_Tutorial.result";"trial.GoNoGo_Tutorial.RT";"trial.GoNoGo_Tutorial.signal";"trial.GoNoGo_Tutorial.startTime"
"C1329679";"1994";;"Windows 7";"Rachel's Experiment (D.T.)";"1.0";"2";"1";"1";"2";"1";"1";"2014-10-07 11:00:10.096";"2014-10-07 11:13:57.740";"1";"1";"0";"1";"0";"module.GoNoGotutorial.exec-9009.GoNoGo_Tutorial";;;;;;;;;;;;;;;;;;;;;;;;;;;;;;;;;;;;;;;;;;;;;;;;;;;;;;;;;;;;;;;;;;;;;;;;;;;;;;;;;;"3997";"2014-10-07 11:01:20.218";"leftResponse";"0";"FINISHED";"LEFT";"success";"3453";"0";"2014-10-07 11:01:16.209"
"C1329679";"1994";;"Windows 7";"Rachel's Experiment (D.T.)";"1.0";"2";"1";"1";"2";"1";"1";"2014-10-07 11:00:10.096";"2014-10-07 11:13:57.740";"1";"1";"0";"2";"1";"module.GoNoGotutorial.exec-9009.GoNoGo_Tutorial";;;;;;;;;;;;;;;;;;;;;;;;;;;;;;;;;;;;;;;;;;;;;;;;;;;;;;;;;;;;;;;;;;;;;;;;;;;;;;;;;;"4003";"2014-10-07 11:01:25.522";"rightResponse";"1";"FINISHED";"NONE";"failure";"0";"0";"2014-10-07 11:01:21.513"
"C1329679";"1994";;"Windows 7";"Rachel's Experiment (D.T.)";"1.0";"2";"1";"1";"2";"1";"1";"2014-10-07 11:00:10.096";"2014-10-07 11:13:57.740";"1";"1";"0";"3";"2";"module.GoNoGotutorial.exec-9009.GoNoGo_Tutorial";;;;;;;;;;;;;;;;;;;;;;;;;;;;;;;;;;;;;;;;;;;;;;;;;;;;;;;;;;;;;;;;;;;;;;;;;;;;;;;;;;"4003";"2014-10-07 11:01:30.826";"signalResponse";"0";"FINISHED";"NONE";"success";"0";"1";"2014-10-07 11:01:26.817"
"C1329679";"1994";;"Windows 7";"Rachel's Experiment (D.T.)";"1.0";"2";"1";"1";"2";"1";"1";"2014-10-07 11:00:10.096";"2014-10-07 11:13:57.740";"1";"1";"0";"4";"3";"module.GoNoGopractice.exec-8219.GoNoGo_Practice";;;;;;;;;;;;;;;;;;;;;;;;;;;;;;;;;;;;;;;;;;;;;;;;;;;;;;;;;;;;;;;;;;;;;;;"1959";"2014-10-07 11:01:38.080";"18";"0";"FINISHED";"LEFT";"success";"737";"0";"2014-10-07 11:01:36.114";"3";;;;;;;;;;
"C1329679";"1994";;"Windows 7";"Rachel's Experiment (D.T.)";"1.0";"2";"1";"1";"2";"1";"1";"2014-10-07 11:00:10.096";"2014-10-07 11:13:57.740";"1";"1";"0";"5";"4";"module.GoNoGopractice.exec-8219.GoNoGo_Practice";;;;;;;;;;;;;;;;;;;;;;;;;;;;;;;;;;;;;;;;;;;;;;;;;;;;;;;;;;;;;;;;;;;;;;;"1953";"2014-10-07 11:01:41.325";"21";"1";"FINISHED";"RIGHT";"success";"463";"0";"2014-10-07 11:01:39.359";"3";;;;;;;;;;
"C1329679";"1994";;"Windows 7";"Rachel's Experiment (D.T.)";"1.0";"2";"1";"1";"2";"1";"1";"2014-10-07 11:00:10.096";"2014-10-07 11:13:57.740";"1";"1";"0";"6";"5";"module.GoNoGopractice.exec-8219.GoNoGo_Practice";;;;;;;;;;;;;;;;;;;;;;;;;;;;;;;;;;;;;;;;;;;;;;;;;;;;;;;;;;;;;;;;;;;;;;;"1959";"2014-10-07 11:01:44.570";"14";"1";"FINISHED";"NONE";"success";"0";"1";"2014-10-07 11:01:42.604";"2";;;;;;;;;;
"C1329679";"1994";;"Windows 7";"Rachel's Experiment (D.T.)";"1.0";"2";"1";"1";"2";"1";"1";"2014-10-07 11:00:10.096";"2014-10-07 11:13:57.740";"1";"1";"0";"7";"6";"module.GoNoGopractice.exec-8219.GoNoGo_Practice";;;;;;;;;;;;;;;;;;;;;;;;;;;;;;;;;;;;;;;;;;;;;;;;;;;;;;;;;;;;;;;;;;;;;;;"1959";"2014-10-07 11:01:47.814";"26";"0";"FINISHED";"LEFT";"success";"444";"0";"2014-10-07 11:01:45.849";"3";;;;;;;;;;
"C1329679";"1994";;"Windows 7";"Rachel's Experiment (D.T.)";"1.0";"2";"1";"1";"2";"1";"1";"2014-10-07 11:00:10.096";"2014-10-07 11:13:57.740";"1";"1";"0";"8";"7";"module.GoNoGopractice.exec-8219.GoNoGo_Practice";;;;;;;;;;;;;;;;;;;;;;;;;;;;;;;;;;;;;;;;;;;;;;;;;;;;;;;;;;;;;;;;;;;;;;;"1959";"2014-10-07 11:01:51.059";"2";"0";"FINISHED";"LEFT";"success";"543";"0";"2014-10-07 11:01:49.094";"1";;;;;;;;;;
"C1329679";"1994";;"Windows 7";"Rachel's Experiment (D.T.)";"1.0";"2";"1";"1";"2";"1";"1";"2014-10-07 11:00:10.096";"2014-10-07 11:13:57.740";"1";"1";"0";"9";"8";"module.GoNoGopractice.exec-8219.GoNoGo_Practice";;;;;;;;;;;;;;;;;;;;;;;;;;;;;;;;;;;;;;;;;;;;;;;;;;;;;;;;;;;;;;;;;;;;;;;"1960";"2014-10-07 11:01:54.304";"30";"0";"FINISHED";"NONE";"success";"0";"1";"2014-10-07 11:01:52.338";"3";;;;;;;;;;
"C1329679";"1994";;"Windows 7";"Rachel's Experiment (D.T.)";"1.0";"2";"1";"1";"2";"1";"1";"2014-10-07 11:00:10.096";"2014-10-07 11:13:57.740";"1";"1";"0";"10";"9";"module.GoNoGopractice.exec-8219.GoNoGo_Practice";;;;;;;;;;;;;;;;;;;;;;;;;;;;;;;;;;;;;;;;;;;;;;;;;;;;;;;;;;;;;;;;;;;;;;;"1959";"2014-10-07 11:01:57.549";"6";"1";"FINISHED";"NONE";"success";"0";"1";"2014-10-07 11:01:55.583";"1";;;;;;;;;;
"C1329679";"1994";;"Windows 7";"Rachel's Experiment (D.T.)";"1.0";"2";"1";"1";"2";"1";"1";"2014-10-07 11:00:10.096";"2014-10-07 11:13:57.740";"1";"1";"0";"11";"10";"module.GoNoGopractice.exec-8219.GoNoGo_Practice";;;;;;;;;;;;;;;;;;;;;;;;;;;;;;;;;;;;;;;;;;;;;;;;;;;;;;;;;;;;;;;;;;;;;;;"1960";"2014-10-07 11:02:00.794";"34";"0";"FINISHED";"LEFT";"success";"473";"0";"2014-10-07 11:01:58.828";"3";;;;;;;;;;
"C1329679";"1994";;"Windows 7";"Rachel's Experiment (D.T.)";"1.0";"2";"1";"1";"2";"1";"1";"2014-10-07 11:00:10.096";"2014-10-07 11:13:57.740";"1";"1";"0";"12";"11";"module.GoNoGopractice.exec-8219.GoNoGo_Practice";;;;;;;;;;;;;;;;;;;;;;;;;;;;;;;;;;;;;;;;;;;;;;;;;;;;;;;;;;;;;;;;;;;;;;;"1959";"2014-10-07 11:02:04.038";"23";"1";"FINISHED";"RIGHT";"success";"500";"0";"2014-10-07 11:02:02.073";"3";;;;;;;;;;
"C1329679";"1994";;"Windows 7";"Rachel's Experiment (D.T.)";"1.0";"2";"1";"1";"2";"1";"1";"2014-10-07 11:00:10.096";"2014-10-07 11:13:57.740";"1";"1";"0";"13";"12";"module.GoNoGopractice.exec-8219.GoNoGo_Practice";;;;;;;;;;;;;;;;;;;;;;;;;;;;;;;;;;;;;;;;;;;;;;;;;;;;;;;;;;;;;;;;;;;;;;;"1959";"2014-10-07 11:02:07.283";"13";"0";"FINISHED";"NONE";"success";"0";"1";"2014-10-07 11:02:05.318";"2";;;;;;;;;;
"C1329679";"1994";;"Windows 7";"Rachel's Experiment (D.T.)";"1.0";"2";"1";"1";"2";"1";"1";"2014-10-07 11:00:10.096";"2014-10-07 11:13:57.740";"1";"1";"0";"14";"13";"module.GoNoGopractice.exec-8219.GoNoGo_Practice";;;;;;;;;;;;;;;;;;;;;;;;;;;;;;;;;;;;;;;;;;;;;;;;;;;;;;;;;;;;;;;;;;;;;;;"2054";"2014-10-07 11:02:10.622";"3";"1";"FINISHED";"RIGHT";"success";"435";"0";"2014-10-07 11:02:08.562";"1";;;;;;;;;;
"C1329679";"1994";;"Windows 7";"Rachel's Experiment (D.T.)";"1.0";"2";"1";"1";"2";"1";"1";"2014-10-07 11:00:10.096";"2014-10-07 11:13:57.740";"1";"1";"0";"15";"14";"module.GoNoGopractice.exec-8219.GoNoGo_Practice";;;;;;;;;;;;;;;;;;;;;;;;;;;;;;;;;;;;;;;;;;;;;;;;;;;;;;;;;;;;;;;;;;;;;;;"1958";"2014-10-07 11:02:13.866";"27";"1";"FINISHED";"NONE";"success";"0";"1";"2014-10-07 11:02:11.901";"3";;;;;;;;;;
"C1329679";"1994";;"Windows 7";"Rachel's Experiment (D.T.)";"1.0";"2";"1";"1";"2";"1";"1";"2014-10-07 11:00:10.096";"2014-10-07 11:13:57.740";"1";"1";"0";"16";"15";"module.training_block1.exec-4446.GoNoGo1";;;;;;;;;;;;;;;;;;;;;;;"1261";"2014-10-07 11:02:22.649";"ST_correctStop";"3";"0";"FINISHED";"NONE";"success";"0";"1";"2014-10-07 11:02:21.386";"1";;;;;;;;;;;;;;;;;;;;;;;;;;;;;;;;;;;;;;;;;;;;;;;;;;;;;;;;;
"C1329679";"1994";;"Windows 7";"Rachel's Experiment (D.T.)";"1.0";"2";"1";"1";"2";"1";"1";"2014-10-07 11:00:10.096";"2014-10-07 11:13:57.740";"1";"1";"0";"17";"16";"module.training_block1.exec-4446.GoNoGo1";;;;;;;;;;;;;;;;;;;;;;;"1257";"2014-10-07 11:02:25.192";"ST_failedStop";"2";"1";"FINISHED";"RIGHT";"failure";"451";"1";"2014-10-07 11:02:23.928";"1";;;;;;;;;;;;;;;;;;;;;;;;;;;;;;;;;;;;;;;;;;;;;;;;;;;;;;;;;
"C1329679";"1994";;"Windows 7";"Rachel's Experiment (D.T.)";"1.0";"2";"1";"1";"2";"1";"1";"2014-10-07 11:00:10.096";"2014-10-07 11:13:57.740";"1";"1";"0";"18";"17";"module.training_block1.exec-4446.GoNoGo1";;;;;;;;;;;;;;;;;;;;;;;"1257";"2014-10-07 11:02:27.735";"NST_correctLoc";"16";"1";"FINISHED";"RIGHT";"success";"477";"0";"2014-10-07 11:02:26.471";"2";;;;;;;;;;;;;;;;;;;;;;;;;;;;;;;;;;;;;;;;;;;;;;;;;;;;;;;;;
"C1329679";"1994";;"Windows 7";"Rachel's Experiment (D.T.)";"1.0";"2";"1";"1";"2";"1";"1";"2014-10-07 11:00:10.096";"2014-10-07 11:13:57.740";"1";"1";"0";"19";"18";"module.training_block1.exec-4446.GoNoGo1";;;;;;;;;;;;;;;;;;;;;;;"1258";"2014-10-07 11:02:30.278";"ST_correctStop";"29";"0";"FINISHED";"NONE";"success";"0";"1";"2014-10-07 11:02:29.014";"3";;;;;;;;;;;;;;;;;;;;;;;;;;;;;;;;;;;;;;;;;;;;;;;;;;;;;;;;;
"C1329679";"1994";;"Windows 7";"Rachel's Experiment (D.T.)";"1.0";"2";"1";"1";"2";"1";"1";"2014-10-07 11:00:10.096";"2014-10-07 11:13:57.740";"1";"1";"0";"20";"19";"module.training_block1.exec-4446.GoNoGo1";;;;;;;;;;;;;;;;;;;;;;;"1258";"2014-10-07 11:02:32.820";"NST_correctLoc";"20";"0";"FINISHED";"LEFT";"success";"704";"0";"2014-10-07 11:02:31.557";"3";;;;;;;;;;;;;;;;;;;;;;;;;;;;;;;;;;;;;;;;;;;;;;;;;;;;;;;;;
"C1329679";"1994";;"Windows 7";"Rachel's Experiment (D.T.)";"1.0";"2";"1";"1";"2";"1";"1";"2014-10-07 11:00:10.096";"2014-10-07 11:13:57.740";"1";"1";"0";"21";"20";"module.training_block1.exec-4446.GoNoGo1";;;;;;;;;;;;;;;;;;;;;;;"1257";"2014-10-07 11:02:35.363";"NST_correctLoc";"26";"0";"FINISHED";"LEFT";"success";"488";"0";"2014-10-07 11:02:34.100";"3";;;;;;;;;;;;;;;;;;;;;;;;;;;;;;;;;;;;;;;;;;;;;;;;;;;;;;;;;
"C1329679";"1994";;"Windows 7";"Rachel's Experiment (D.T.)";"1.0";"2";"1";"1";"2";"1";"1";"2014-10-07 11:00:10.096";"2014-10-07 11:13:57.740";"1";"1";"0";"22";"21";"module.training_block1.exec-4446.GoNoGo1";;;;;;;;;;;;;;;;;;;;;;;"1257";"2014-10-07 11:02:37.906";"ST_correctStop";"22";"0";"FINISHED";"NONE";"success";"0";"1";"2014-10-07 11:02:36.642";"3";;;;;;;;;;;;;;;;;;;;;;;;;;;;;;;;;;;;;;;;;;;;;;;;;;;;;;;;;
"C1329679";"1994";;"Windows 7";"Rachel's Experiment (D.T.)";"1.0";"2";"1";"1";"2";"1";"1";"2014-10-07 11:00:10.096";"2014-10-07 11:13:57.740";"1";"1";"0";"23";"22";"module.training_block1.exec-4446.GoNoGo1";;;;;;;;;;;;;;;;;;;;;;;"1257";"2014-10-07 11:02:40.449";"ST_correctStop";"23";"0";"FINISHED";"NONE";"success";"0";"1";"2014-10-07 11:02:39.185";"3";;;;;;;;;;;;;;;;;;;;;;;;;;;;;;;;;;;;;;;;;;;;;;;;;;;;;;;;;
"C1329679";"1994";;"Windows 7";"Rachel's Experiment (D.T.)";"1.0";"2";"1";"1";"2";"1";"1";"2014-10-07 11:00:10.096";"2014-10-07 11:13:57.740";"1";"1";"0";"24";"23";"module.training_block1.exec-4446.GoNoGo1";;;;;;;;;;;;;;;;;;;;;;;"1256";"2014-10-07 11:02:42.992";"ST_correctStop";"6";"1";"FINISHED";"NONE";"success";"0";"1";"2014-10-07 11:02:41.728";"1";;;;;;;;;;;;;;;;;;;;;;;;;;;;;;;;;;;;;;;;;;;;;;;;;;;;;;;;;
"C1329679";"1994";;"Windows 7";"Rachel's Experiment (D.T.)";"1.0";"2";"1";"1";"2";"1";"1";"2014-10-07 11:00:10.096";"2014-10-07 11:13:57.740";"1";"1";"0";"25";"24";"module.training_block1.exec-4446.GoNoGo1";;;;;;;;;;;;;;;;;;;;;;;"1258";"2014-10-07 11:02:45.535";"NST_correctLoc";"28";"0";"FINISHED";"LEFT";"success";"558";"0";"2014-10-07 11:02:44.271";"3";;;;;;;;;;;;;;;;;;;;;;;;;;;;;;;;;;;;;;;;;;;;;;;;;;;;;;;;;
"C1329679";"1994";;"Windows 7";"Rachel's Experiment (D.T.)";"1.0";"2";"1";"1";"2";"1";"1";"2014-10-07 11:00:10.096";"2014-10-07 11:13:57.740";"1";"1";"0";"26";"25";"module.training_block1.exec-4446.GoNoGo1";;;;;;;;;;;;;;;;;;;;;;;"1258";"2014-10-07 11:02:48.077";"ST_correctStop";"19";"0";"FINISHED";"NONE";"success";"0";"1";"2014-10-07 11:02:46.814";"3";;;;;;;;;;;;;;;;;;;;;;;;;;;;;;;;;;;;;;;;;;;;;;;;;;;;;;;;;
"C1329679";"1994";;"Windows 7";"Rachel's Experiment (D.T.)";"1.0";"2";"1";"1";"2";"1";"1";"2014-10-07 11:00:10.096";"2014-10-07 11:13:57.740";"1";"1";"0";"27";"26";"module.training_block1.exec-4446.GoNoGo1";;;;;;;;;;;;;;;;;;;;;;;"1257";"2014-10-07 11:02:50.620";"ST_correctStop";"0";"1";"FINISHED";"NONE";"success";"0";"1";"2014-10-07 11:02:49.357";"1";;;;;;;;;;;;;;;;;;;;;;;;;;;;;;;;;;;;;;;;;;;;;;;;;;;;;;;;;
"C1329679";"1994";;"Windows 7";"Rachel's Experiment (D.T.)";"1.0";"2";"1";"1";"2";"1";"1";"2014-10-07 11:00:10.096";"2014-10-07 11:13:57.740";"1";"1";"0";"28";"27";"module.training_block1.exec-4446.GoNoGo1";;;;;;;;;;;;;;;;;;;;;;;"1261";"2014-10-07 11:02:53.163";"ST_failedStop";"27";"1";"FINISHED";"RIGHT";"failure";"717";"1";"2014-10-07 11:02:51.899";"3";;;;;;;;;;;;;;;;;;;;;;;;;;;;;;;;;;;;;;;;;;;;;;;;;;;;;;;;;
"C1329679";"1994";;"Windows 7";"Rachel's Experiment (D.T.)";"1.0";"2";"1";"1";"2";"1";"1";"2014-10-07 11:00:10.096";"2014-10-07 11:13:57.740";"1";"1";"0";"29";"28";"module.training_block1.exec-4446.GoNoGo1";;;;;;;;;;;;;;;;;;;;;;;"1257";"2014-10-07 11:02:55.721";"NST_correctLoc";"17";"1";"FINISHED";"RIGHT";"success";"842";"0";"2014-10-07 11:02:54.458";"2";;;;;;;;;;;;;;;;;;;;;;;;;;;;;;;;;;;;;;;;;;;;;;;;;;;;;;;;;
"C1329679";"1994";;"Windows 7";"Rachel's Experiment (D.T.)";"1.0";"2";"1";"1";"2";"1";"1";"2014-10-07 11:00:10.096";"2014-10-07 11:13:57.740";"1";"1";"0";"30";"29";"module.training_block1.exec-4446.GoNoGo1";;;;;;;;;;;;;;;;;;;;;;;"1258";"2014-10-07 11:02:58.264";"NST_correctLoc";"34";"1";"FINISHED";"RIGHT";"success";"596";"0";"2014-10-07 11:02:57.001";"3";;;;;;;;;;;;;;;;;;;;;;;;;;;;;;;;;;;;;;;;;;;;;;;;;;;;;;;;;
"C1329679";"1994";;"Windows 7";"Rachel's Experiment (D.T.)";"1.0";"2";"1";"1";"2";"1";"1";"2014-10-07 11:00:10.096";"2014-10-07 11:13:57.740";"1";"1";"0";"31";"30";"module.training_block1.exec-4446.GoNoGo1";;;;;;;;;;;;;;;;;;;;;;;"1258";"2014-10-07 11:03:00.807";"ST_correctStop";"5";"0";"FINISHED";"NONE";"success";"0";"1";"2014-10-07 11:02:59.543";"1";;;;;;;;;;;;;;;;;;;;;;;;;;;;;;;;;;;;;;;;;;;;;;;;;;;;;;;;;
"C1329679";"1994";;"Windows 7";"Rachel's Experiment (D.T.)";"1.0";"2";"1";"1";"2";"1";"1";"2014-10-07 11:00:10.096";"2014-10-07 11:13:57.740";"1";"1";"0";"32";"31";"module.training_block1.exec-4446.GoNoGo1";;;;;;;;;;;;;;;;;;;;;;;"1258";"2014-10-07 11:03:03.350";"NST_correctLoc";"30";"1";"FINISHED";"RIGHT";"success";"558";"0";"2014-10-07 11:03:02.086";"3";;;;;;;;;;;;;;;;;;;;;;;;;;;;;;;;;;;;;;;;;;;;;;;;;;;;;;;;;
"C1329679";"1994";;"Windows 7";"Rachel's Experiment (D.T.)";"1.0";"2";"1";"1";"2";"1";"1";"2014-10-07 11:00:10.096";"2014-10-07 11:13:57.740";"1";"1";"0";"33";"32";"module.training_block1.exec-4446.GoNoGo1";;;;;;;;;;;;;;;;;;;;;;;"1257";"2014-10-07 11:03:05.893";"NST_correctLoc";"14";"1";"FINISHED";"RIGHT";"success";"647";"0";"2014-10-07 11:03:04.629";"2";;;;;;;;;;;;;;;;;;;;;;;;;;;;;;;;;;;;;;;;;;;;;;;;;;;;;;;;;
"C1329679";"1994";;"Windows 7";"Rachel's Experiment (D.T.)";"1.0";"2";"1";"1";"2";"1";"1";"2014-10-07 11:00:10.096";"2014-10-07 11:13:57.740";"1";"1";"0";"34";"33";"module.training_block1.exec-4446.GoNoGo1";;;;;;;;;;;;;;;;;;;;;;;"1258";"2014-10-07 11:03:08.435";"NST_correctLoc";"12";"0";"FINISHED";"LEFT";"success";"521";"0";"2014-10-07 11:03:07.172";"2";;;;;;;;;;;;;;;;;;;;;;;;;;;;;;;;;;;;;;;;;;;;;;;;;;;;;;;;;
"C1329679";"1994";;"Windows 7";"Rachel's Experiment (D.T.)";"1.0";"2";"1";"1";"2";"1";"1";"2014-10-07 11:00:10.096";"2014-10-07 11:13:57.740";"1";"1";"0";"35";"34";"module.training_block1.exec-4446.GoNoGo1";;;;;;;;;;;;;;;;;;;;;;;"1257";"2014-10-07 11:03:10.978";"NST_correctLoc";"10";"0";"FINISHED";"LEFT";"success";"530";"0";"2014-10-07 11:03:09.715";"2";;;;;;;;;;;;;;;;;;;;;;;;;;;;;;;;;;;;;;;;;;;;;;;;;;;;;;;;;
"C1329679";"1994";;"Windows 7";"Rachel's Experiment (D.T.)";"1.0";"2";"1";"1";"2";"1";"1";"2014-10-07 11:00:10.096";"2014-10-07 11:13:57.740";"1";"1";"0";"36";"35";"module.training_block1.exec-4446.GoNoGo1";;;;;;;;;;;;;;;;;;;;;;;"1256";"2014-10-07 11:03:13.521";"NST_correctLoc";"15";"1";"FINISHED";"RIGHT";"success";"482";"0";"2014-10-07 11:03:12.257";"2";;;;;;;;;;;;;;;;;;;;;;;;;;;;;;;;;;;;;;;;;;;;;;;;;;;;;;;;;
"C1329679";"1994";;"Windows 7";"Rachel's Experiment (D.T.)";"1.0";"2";"1";"1";"2";"1";"1";"2014-10-07 11:00:10.096";"2014-10-07 11:13:57.740";"1";"1";"0";"37";"36";"module.training_block1.exec-4446.GoNoGo1";;;;;;;;;;;;;;;;;;;;;;;"1257";"2014-10-07 11:03:16.064";"ST_correctStop";"7";"0";"FINISHED";"NONE";"success";"0";"1";"2014-10-07 11:03:14.800";"1";;;;;;;;;;;;;;;;;;;;;;;;;;;;;;;;;;;;;;;;;;;;;;;;;;;;;;;;;
"C1329679";"1994";;"Windows 7";"Rachel's Experiment (D.T.)";"1.0";"2";"1";"1";"2";"1";"1";"2014-10-07 11:00:10.096";"2014-10-07 11:13:57.740";"1";"1";"0";"38";"37";"module.training_block1.exec-4446.GoNoGo1";;;;;;;;;;;;;;;;;;;;;;;"1258";"2014-10-07 11:03:18.607";"NST_correctLoc";"25";"1";"FINISHED";"RIGHT";"success";"589";"0";"2014-10-07 11:03:17.343";"3";;;;;;;;;;;;;;;;;;;;;;;;;;;;;;;;;;;;;;;;;;;;;;;;;;;;;;;;;
"C1329679";"1994";;"Windows 7";"Rachel's Experiment (D.T.)";"1.0";"2";"1";"1";"2";"1";"1";"2014-10-07 11:00:10.096";"2014-10-07 11:13:57.740";"1";"1";"0";"39";"38";"module.training_block1.exec-4446.GoNoGo1";;;;;;;;;;;;;;;;;;;;;;;"1258";"2014-10-07 11:03:21.149";"NST_correctLoc";"11";"1";"FINISHED";"RIGHT";"success";"438";"0";"2014-10-07 11:03:19.886";"2";;;;;;;;;;;;;;;;;;;;;;;;;;;;;;;;;;;;;;;;;;;;;;;;;;;;;;;;;
"C1329679";"1994";;"Windows 7";"Rachel's Experiment (D.T.)";"1.0";"2";"1";"1";"2";"1";"1";"2014-10-07 11:00:10.096";"2014-10-07 11:13:57.740";"1";"1";"0";"40";"39";"module.training_block1.exec-4446.GoNoGo1";;;;;;;;;;;;;;;;;;;;;;;"1258";"2014-10-07 11:03:23.692";"NST_correctLoc";"18";"1";"FINISHED";"RIGHT";"success";"456";"0";"2014-10-07 11:03:22.429";"3";;;;;;;;;;;;;;;;;;;;;;;;;;;;;;;;;;;;;;;;;;;;;;;;;;;;;;;;;
"C1329679";"1994";;"Windows 7";"Rachel's Experiment (D.T.)";"1.0";"2";"1";"1";"2";"1";"1";"2014-10-07 11:00:10.096";"2014-10-07 11:13:57.740";"1";"1";"0";"41";"40";"module.training_block1.exec-4446.GoNoGo1";;;;;;;;;;;;;;;;;;;;;;;"1257";"2014-10-07 11:03:26.235";"NST_correctLoc";"13";"0";"FINISHED";"LEFT";"success";"337";"0";"2014-10-07 11:03:24.971";"2";;;;;;;;;;;;;;;;;;;;;;;;;;;;;;;;;;;;;;;;;;;;;;;;;;;;;;;;;
"C1329679";"1994";;"Windows 7";"Rachel's Experiment (D.T.)";"1.0";"2";"1";"1";"2";"1";"1";"2014-10-07 11:00:10.096";"2014-10-07 11:13:57.740";"1";"1";"0";"42";"41";"module.training_block1.exec-4446.GoNoGo1";;;;;;;;;;;;;;;;;;;;;;;"1258";"2014-10-07 11:03:28.778";"NST_correctLoc";"24";"0";"FINISHED";"LEFT";"success";"394";"0";"2014-10-07 11:03:27.514";"3";;;;;;;;;;;;;;;;;;;;;;;;;;;;;;;;;;;;;;;;;;;;;;;;;;;;;;;;;
"C1329679";"1994";;"Windows 7";"Rachel's Experiment (D.T.)";"1.0";"2";"1";"1";"2";"1";"1";"2014-10-07 11:00:10.096";"2014-10-07 11:13:57.740";"1";"1";"0";"43";"42";"module.training_block1.exec-4446.GoNoGo1";;;;;;;;;;;;;;;;;;;;;;;"1258";"2014-10-07 11:03:31.321";"ST_failedStop";"35";"1";"FINISHED";"RIGHT";"failure";"451";"1";"2014-10-07 11:03:30.057";"3";;;;;;;;;;;;;;;;;;;;;;;;;;;;;;;;;;;;;;;;;;;;;;;;;;;;;;;;;
"C1329679";"1994";;"Windows 7";"Rachel's Experiment (D.T.)";"1.0";"2";"1";"1";"2";"1";"1";"2014-10-07 11:00:10.096";"2014-10-07 11:13:57.740";"1";"1";"0";"44";"43";"module.training_block1.exec-4446.GoNoGo1";;;;;;;;;;;;;;;;;;;;;;;"1257";"2014-10-07 11:03:33.863";"ST_correctStop";"32";"0";"FINISHED";"NONE";"success";"0";"1";"2014-10-07 11:03:32.600";"3";;;;;;;;;;;;;;;;;;;;;;;;;;;;;;;;;;;;;;;;;;;;;;;;;;;;;;;;;
"C1329679";"1994";;"Windows 7";"Rachel's Experiment (D.T.)";"1.0";"2";"1";"1";"2";"1";"1";"2014-10-07 11:00:10.096";"2014-10-07 11:13:57.740";"1";"1";"0";"45";"44";"module.training_block1.exec-4446.GoNoGo1";;;;;;;;;;;;;;;;;;;;;;;"1257";"2014-10-07 11:03:36.406";"ST_correctStop";"8";"1";"FINISHED";"NONE";"success";"0";"1";"2014-10-07 11:03:35.143";"1";;;;;;;;;;;;;;;;;;;;;;;;;;;;;;;;;;;;;;;;;;;;;;;;;;;;;;;;;
"C1329679";"1994";;"Windows 7";"Rachel's Experiment (D.T.)";"1.0";"2";"1";"1";"2";"1";"1";"2014-10-07 11:00:10.096";"2014-10-07 11:13:57.740";"1";"1";"0";"46";"45";"module.training_block1.exec-4446.GoNoGo1";;;;;;;;;;;;;;;;;;;;;;;"1258";"2014-10-07 11:03:38.949";"NST_correctLoc";"9";"1";"FINISHED";"RIGHT";"success";"551";"0";"2014-10-07 11:03:37.685";"2";;;;;;;;;;;;;;;;;;;;;;;;;;;;;;;;;;;;;;;;;;;;;;;;;;;;;;;;;
"C1329679";"1994";;"Windows 7";"Rachel's Experiment (D.T.)";"1.0";"2";"1";"1";"2";"1";"1";"2014-10-07 11:00:10.096";"2014-10-07 11:13:57.740";"1";"1";"0";"47";"46";"module.training_block1.exec-4446.GoNoGo1";;;;;;;;;;;;;;;;;;;;;;;"1257";"2014-10-07 11:03:41.492";"ST_correctStop";"21";"0";"FINISHED";"NONE";"success";"0";"1";"2014-10-07 11:03:40.228";"3";;;;;;;;;;;;;;;;;;;;;;;;;;;;;;;;;;;;;;;;;;;;;;;;;;;;;;;;;
"C1329679";"1994";;"Windows 7";"Rachel's Experiment (D.T.)";"1.0";"2";"1";"1";"2";"1";"1";"2014-10-07 11:00:10.096";"2014-10-07 11:13:57.740";"1";"1";"0";"48";"47";"module.training_block1.exec-4446.GoNoGo1";;;;;;;;;;;;;;;;;;;;;;;"1257";"2014-10-07 11:03:44.035";"ST_correctStop";"31";"0";"FINISHED";"NONE";"success";"0";"1";"2014-10-07 11:03:42.771";"3";;;;;;;;;;;;;;;;;;;;;;;;;;;;;;;;;;;;;;;;;;;;;;;;;;;;;;;;;
"C1329679";"1994";;"Windows 7";"Rachel's Experiment (D.T.)";"1.0";"2";"1";"1";"2";"1";"1";"2014-10-07 11:00:10.096";"2014-10-07 11:13:57.740";"1";"1";"0";"49";"48";"module.training_block1.exec-4446.GoNoGo1";;;;;;;;;;;;;;;;;;;;;;;"1258";"2014-10-07 11:03:46.577";"NST_correctLoc";"33";"1";"FINISHED";"RIGHT";"success";"450";"0";"2014-10-07 11:03:45.314";"3";;;;;;;;;;;;;;;;;;;;;;;;;;;;;;;;;;;;;;;;;;;;;;;;;;;;;;;;;
"C1329679";"1994";;"Windows 7";"Rachel's Experiment (D.T.)";"1.0";"2";"1";"1";"2";"1";"1";"2014-10-07 11:00:10.096";"2014-10-07 11:13:57.740";"1";"1";"0";"50";"49";"module.training_block1.exec-4446.GoNoGo1";;;;;;;;;;;;;;;;;;;;;;;"1258";"2014-10-07 11:03:49.120";"ST_correctStop";"1";"0";"FINISHED";"NONE";"success";"0";"1";"2014-10-07 11:03:47.857";"1";;;;;;;;;;;;;;;;;;;;;;;;;;;;;;;;;;;;;;;;;;;;;;;;;;;;;;;;;
"C1329679";"1994";;"Windows 7";"Rachel's Experiment (D.T.)";"1.0";"2";"1";"1";"2";"1";"1";"2014-10-07 11:00:10.096";"2014-10-07 11:13:57.740";"1";"1";"0";"51";"50";"module.training_block1.exec-4446.GoNoGo1";;;;;;;;;;;;;;;;;;;;;;;"1257";"2014-10-07 11:03:51.663";"ST_correctStop";"4";"0";"FINISHED";"NONE";"success";"0";"1";"2014-10-07 11:03:50.399";"1";;;;;;;;;;;;;;;;;;;;;;;;;;;;;;;;;;;;;;;;;;;;;;;;;;;;;;;;;
"C1329679";"1994";;"Windows 7";"Rachel's Experiment (D.T.)";"1.0";"2";"1";"1";"2";"1";"1";"2014-10-07 11:00:10.096";"2014-10-07 11:13:57.740";"1";"1";"0";"52";"51";"module.training_block2.exec-9262.GoNoGo2";;;;;;;;;;;;;;;;;;;;;;;;;;;;;;;;;;;"1261";"2014-10-07 11:04:04.393";"NST_correctLoc";"25";"1";"FINISHED";"RIGHT";"success";"446";"0";"2014-10-07 11:04:03.129";"3";;;;;;;;;;;;;;;;;;;;;;;;;;;;;;;;;;;;;;;;;;;;;
"C1329679";"1994";;"Windows 7";"Rachel's Experiment (D.T.)";"1.0";"2";"1";"1";"2";"1";"1";"2014-10-07 11:00:10.096";"2014-10-07 11:13:57.740";"1";"1";"0";"53";"52";"module.training_block2.exec-9262.GoNoGo2";;;;;;;;;;;;;;;;;;;;;;;;;;;;;;;;;;;"1261";"2014-10-07 11:04:06.935";"ST_correctStop";"31";"1";"FINISHED";"NONE";"success";"0";"1";"2014-10-07 11:04:05.672";"3";;;;;;;;;;;;;;;;;;;;;;;;;;;;;;;;;;;;;;;;;;;;;
"C1329679";"1994";;"Windows 7";"Rachel's Experiment (D.T.)";"1.0";"2";"1";"1";"2";"1";"1";"2014-10-07 11:00:10.096";"2014-10-07 11:13:57.740";"1";"1";"0";"54";"53";"module.training_block2.exec-9262.GoNoGo2";;;;;;;;;;;;;;;;;;;;;;;;;;;;;;;;;;;"1261";"2014-10-07 11:04:09.478";"NST_correctLoc";"12";"0";"FINISHED";"LEFT";"success";"433";"0";"2014-10-07 11:04:08.215";"2";;;;;;;;;;;;;;;;;;;;;;;;;;;;;;;;;;;;;;;;;;;;;
"C1329679";"1994";;"Windows 7";"Rachel's Experiment (D.T.)";"1.0";"2";"1";"1";"2";"1";"1";"2014-10-07 11:00:10.096";"2014-10-07 11:13:57.740";"1";"1";"0";"55";"54";"module.training_block2.exec-9262.GoNoGo2";;;;;;;;;;;;;;;;;;;;;;;;;;;;;;;;;;;"1261";"2014-10-07 11:04:12.021";"NST_correctLoc";"23";"1";"FINISHED";"RIGHT";"success";"402";"0";"2014-10-07 11:04:10.757";"3";;;;;;;;;;;;;;;;;;;;;;;;;;;;;;;;;;;;;;;;;;;;;
"C1329679";"1994";;"Windows 7";"Rachel's Experiment (D.T.)";"1.0";"2";"1";"1";"2";"1";"1";"2014-10-07 11:00:10.096";"2014-10-07 11:13:57.740";"1";"1";"0";"56";"55";"module.training_block2.exec-9262.GoNoGo2";;;;;;;;;;;;;;;;;;;;;;;;;;;;;;;;;;;"1261";"2014-10-07 11:04:14.564";"NST_correctLoc";"13";"0";"FINISHED";"LEFT";"success";"491";"0";"2014-10-07 11:04:13.300";"2";;;;;;;;;;;;;;;;;;;;;;;;;;;;;;;;;;;;;;;;;;;;;
"C1329679";"1994";;"Windows 7";"Rachel's Experiment (D.T.)";"1.0";"2";"1";"1";"2";"1";"1";"2014-10-07 11:00:10.096";"2014-10-07 11:13:57.740";"1";"1";"0";"57";"56";"module.training_block2.exec-9262.GoNoGo2";;;;;;;;;;;;;;;;;;;;;;;;;;;;;;;;;;;"1261";"2014-10-07 11:04:17.107";"NST_correctLoc";"16";"1";"FINISHED";"RIGHT";"success";"420";"0";"2014-10-07 11:04:15.843";"2";;;;;;;;;;;;;;;;;;;;;;;;;;;;;;;;;;;;;;;;;;;;;
"C1329679";"1994";;"Windows 7";"Rachel's Experiment (D.T.)";"1.0";"2";"1";"1";"2";"1";"1";"2014-10-07 11:00:10.096";"2014-10-07 11:13:57.740";"1";"1";"0";"58";"57";"module.training_block2.exec-9262.GoNoGo2";;;;;;;;;;;;;;;;;;;;;;;;;;;;;;;;;;;"1261";"2014-10-07 11:04:19.649";"ST_correctStop";"3";"1";"FINISHED";"NONE";"success";"0";"1";"2014-10-07 11:04:18.386";"1";;;;;;;;;;;;;;;;;;;;;;;;;;;;;;;;;;;;;;;;;;;;;
"C1329679";"1994";;"Windows 7";"Rachel's Experiment (D.T.)";"1.0";"2";"1";"1";"2";"1";"1";"2014-10-07 11:00:10.096";"2014-10-07 11:13:57.740";"1";"1";"0";"59";"58";"module.training_block2.exec-9262.GoNoGo2";;;;;;;;;;;;;;;;;;;;;;;;;;;;;;;;;;;"1261";"2014-10-07 11:04:22.192";"NST_correctLoc";"9";"1";"FINISHED";"RIGHT";"success";"495";"0";"2014-10-07 11:04:20.929";"2";;;;;;;;;;;;;;;;;;;;;;;;;;;;;;;;;;;;;;;;;;;;;
"C1329679";"1994";;"Windows 7";"Rachel's Experiment (D.T.)";"1.0";"2";"1";"1";"2";"1";"1";"2014-10-07 11:00:10.096";"2014-10-07 11:13:57.740";"1";"1";"0";"60";"59";"module.training_block2.exec-9262.GoNoGo2";;;;;;;;;;;;;;;;;;;;;;;;;;;;;;;;;;;"1261";"2014-10-07 11:04:24.735";"ST_correctStop";"27";"1";"FINISHED";"NONE";"success";"0";"1";"2014-10-07 11:04:23.471";"3";;;;;;;;;;;;;;;;;;;;;;;;;;;;;;;;;;;;;;;;;;;;;
"C1329679";"1994";;"Windows 7";"Rachel's Experiment (D.T.)";"1.0";"2";"1";"1";"2";"1";"1";"2014-10-07 11:00:10.096";"2014-10-07 11:13:57.740";"1";"1";"0";"61";"60";"module.training_block2.exec-9262.GoNoGo2";;;;;;;;;;;;;;;;;;;;;;;;;;;;;;;;;;;"1261";"2014-10-07 11:04:27.278";"ST_correctStop";"6";"1";"FINISHED";"NONE";"success";"0";"1";"2014-10-07 11:04:26.014";"1";;;;;;;;;;;;;;;;;;;;;;;;;;;;;;;;;;;;;;;;;;;;;
"C1329679";"1994";;"Windows 7";"Rachel's Experiment (D.T.)";"1.0";"2";"1";"1";"2";"1";"1";"2014-10-07 11:00:10.096";"2014-10-07 11:13:57.740";"1";"1";"0";"62";"61";"module.training_block2.exec-9262.GoNoGo2";;;;;;;;;;;;;;;;;;;;;;;;;;;;;;;;;;;"1261";"2014-10-07 11:04:29.821";"ST_correctStop";"5";"1";"FINISHED";"NONE";"success";"0";"1";"2014-10-07 11:04:28.557";"1";;;;;;;;;;;;;;;;;;;;;;;;;;;;;;;;;;;;;;;;;;;;;
"C1329679";"1994";;"Windows 7";"Rachel's Experiment (D.T.)";"1.0";"2";"1";"1";"2";"1";"1";"2014-10-07 11:00:10.096";"2014-10-07 11:13:57.740";"1";"1";"0";"63";"62";"module.training_block2.exec-9262.GoNoGo2";;;;;;;;;;;;;;;;;;;;;;;;;;;;;;;;;;;"1261";"2014-10-07 11:04:32.363";"NST_correctLoc";"11";"0";"FINISHED";"LEFT";"success";"371";"0";"2014-10-07 11:04:31.100";"2";;;;;;;;;;;;;;;;;;;;;;;;;;;;;;;;;;;;;;;;;;;;;
"C1329679";"1994";;"Windows 7";"Rachel's Experiment (D.T.)";"1.0";"2";"1";"1";"2";"1";"1";"2014-10-07 11:00:10.096";"2014-10-07 11:13:57.740";"1";"1";"0";"64";"63";"module.training_block2.exec-9262.GoNoGo2";;;;;;;;;;;;;;;;;;;;;;;;;;;;;;;;;;;"1261";"2014-10-07 11:04:34.906";"ST_correctStop";"20";"1";"FINISHED";"NONE";"success";"0";"1";"2014-10-07 11:04:33.643";"3";;;;;;;;;;;;;;;;;;;;;;;;;;;;;;;;;;;;;;;;;;;;;
"C1329679";"1994";;"Windows 7";"Rachel's Experiment (D.T.)";"1.0";"2";"1";"1";"2";"1";"1";"2014-10-07 11:00:10.096";"2014-10-07 11:13:57.740";"1";"1";"0";"65";"64";"module.training_block2.exec-9262.GoNoGo2";;;;;;;;;;;;;;;;;;;;;;;;;;;;;;;;;;;"1261";"2014-10-07 11:04:37.449";"NST_correctLoc";"32";"1";"FINISHED";"RIGHT";"success";"470";"0";"2014-10-07 11:04:36.186";"3";;;;;;;;;;;;;;;;;;;;;;;;;;;;;;;;;;;;;;;;;;;;;
"C1329679";"1994";;"Windows 7";"Rachel's Experiment (D.T.)";"1.0";"2";"1";"1";"2";"1";"1";"2014-10-07 11:00:10.096";"2014-10-07 11:13:57.740";"1";"1";"0";"66";"65";"module.training_block2.exec-9262.GoNoGo2";;;;;;;;;;;;;;;;;;;;;;;;;;;;;;;;;;;"1261";"2014-10-07 11:04:39.992";"ST_correctStop";"29";"1";"FINISHED";"NONE";"success";"0";"1";"2014-10-07 11:04:38.728";"3";;;;;;;;;;;;;;;;;;;;;;;;;;;;;;;;;;;;;;;;;;;;;
"C1329679";"1994";;"Windows 7";"Rachel's Experiment (D.T.)";"1.0";"2";"1";"1";"2";"1";"1";"2014-10-07 11:00:10.096";"2014-10-07 11:13:57.740";"1";"1";"0";"67";"66";"module.training_block2.exec-9262.GoNoGo2";;;;;;;;;;;;;;;;;;;;;;;;;;;;;;;;;;;"1261";"2014-10-07 11:04:42.535";"ST_correctStop";"8";"0";"FINISHED";"NONE";"success";"0";"1";"2014-10-07 11:04:41.271";"1";;;;;;;;;;;;;;;;;;;;;;;;;;;;;;;;;;;;;;;;;;;;;
"C1329679";"1994";;"Windows 7";"Rachel's Experiment (D.T.)";"1.0";"2";"1";"1";"2";"1";"1";"2014-10-07 11:00:10.096";"2014-10-07 11:13:57.740";"1";"1";"0";"68";"67";"module.training_block2.exec-9262.GoNoGo2";;;;;;;;;;;;;;;;;;;;;;;;;;;;;;;;;;;"1261";"2014-10-07 11:04:45.078";"NST_correctLoc";"10";"0";"FINISHED";"LEFT";"success";"481";"0";"2014-10-07 11:04:43.814";"2";;;;;;;;;;;;;;;;;;;;;;;;;;;;;;;;;;;;;;;;;;;;;
"C1329679";"1994";;"Windows 7";"Rachel's Experiment (D.T.)";"1.0";"2";"1";"1";"2";"1";"1";"2014-10-07 11:00:10.096";"2014-10-07 11:13:57.740";"1";"1";"0";"69";"68";"module.training_block2.exec-9262.GoNoGo2";;;;;;;;;;;;;;;;;;;;;;;;;;;;;;;;;;;"1261";"2014-10-07 11:04:47.620";"ST_correctStop";"1";"1";"FINISHED";"NONE";"success";"0";"1";"2014-10-07 11:04:46.357";"1";;;;;;;;;;;;;;;;;;;;;;;;;;;;;;;;;;;;;;;;;;;;;
"C1329679";"1994";;"Windows 7";"Rachel's Experiment (D.T.)";"1.0";"2";"1";"1";"2";"1";"1";"2014-10-07 11:00:10.096";"2014-10-07 11:13:57.740";"1";"1";"0";"70";"69";"module.training_block2.exec-9262.GoNoGo2";;;;;;;;;;;;;;;;;;;;;;;;;;;;;;;;;;;"1261";"2014-10-07 11:04:50.163";"ST_failedStop";"33";"0";"FINISHED";"LEFT";"failure";"556";"1";"2014-10-07 11:04:48.900";"3";;;;;;;;;;;;;;;;;;;;;;;;;;;;;;;;;;;;;;;;;;;;;
"C1329679";"1994";;"Windows 7";"Rachel's Experiment (D.T.)";"1.0";"2";"1";"1";"2";"1";"1";"2014-10-07 11:00:10.096";"2014-10-07 11:13:57.740";"1";"1";"0";"71";"70";"module.training_block2.exec-9262.GoNoGo2";;;;;;;;;;;;;;;;;;;;;;;;;;;;;;;;;;;"1261";"2014-10-07 11:04:52.706";"ST_correctStop";"0";"0";"FINISHED";"NONE";"success";"0";"1";"2014-10-07 11:04:51.442";"1";;;;;;;;;;;;;;;;;;;;;;;;;;;;;;;;;;;;;;;;;;;;;
"C1329679";"1994";;"Windows 7";"Rachel's Experiment (D.T.)";"1.0";"2";"1";"1";"2";"1";"1";"2014-10-07 11:00:10.096";"2014-10-07 11:13:57.740";"1";"1";"0";"72";"71";"module.training_block2.exec-9262.GoNoGo2";;;;;;;;;;;;;;;;;;;;;;;;;;;;;;;;;;;"1261";"2014-10-07 11:04:55.249";"ST_correctStop";"22";"0";"FINISHED";"NONE";"success";"0";"1";"2014-10-07 11:04:53.985";"3";;;;;;;;;;;;;;;;;;;;;;;;;;;;;;;;;;;;;;;;;;;;;
"C1329679";"1994";;"Windows 7";"Rachel's Experiment (D.T.)";"1.0";"2";"1";"1";"2";"1";"1";"2014-10-07 11:00:10.096";"2014-10-07 11:13:57.740";"1";"1";"0";"73";"72";"module.training_block2.exec-9262.GoNoGo2";;;;;;;;;;;;;;;;;;;;;;;;;;;;;;;;;;;"1261";"2014-10-07 11:04:57.792";"NST_correctLoc";"28";"0";"FINISHED";"LEFT";"success";"631";"0";"2014-10-07 11:04:56.528";"3";;;;;;;;;;;;;;;;;;;;;;;;;;;;;;;;;;;;;;;;;;;;;
"C1329679";"1994";;"Windows 7";"Rachel's Experiment (D.T.)";"1.0";"2";"1";"1";"2";"1";"1";"2014-10-07 11:00:10.096";"2014-10-07 11:13:57.740";"1";"1";"0";"74";"73";"module.training_block2.exec-9262.GoNoGo2";;;;;;;;;;;;;;;;;;;;;;;;;;;;;;;;;;;"1261";"2014-10-07 11:05:00.334";"NST_correctLoc";"26";"0";"FINISHED";"LEFT";"success";"704";"0";"2014-10-07 11:04:59.071";"3";;;;;;;;;;;;;;;;;;;;;;;;;;;;;;;;;;;;;;;;;;;;;
"C1329679";"1994";;"Windows 7";"Rachel's Experiment (D.T.)";"1.0";"2";"1";"1";"2";"1";"1";"2014-10-07 11:00:10.096";"2014-10-07 11:13:57.740";"1";"1";"0";"75";"74";"module.training_block2.exec-9262.GoNoGo2";;;;;;;;;;;;;;;;;;;;;;;;;;;;;;;;;;;"1261";"2014-10-07 11:05:02.877";"NST_correctLoc";"14";"0";"FINISHED";"LEFT";"success";"441";"0";"2014-10-07 11:05:01.614";"2";;;;;;;;;;;;;;;;;;;;;;;;;;;;;;;;;;;;;;;;;;;;;
"C1329679";"1994";;"Windows 7";"Rachel's Experiment (D.T.)";"1.0";"2";"1";"1";"2";"1";"1";"2014-10-07 11:00:10.096";"2014-10-07 11:13:57.740";"1";"1";"0";"76";"75";"module.training_block2.exec-9262.GoNoGo2";;;;;;;;;;;;;;;;;;;;;;;;;;;;;;;;;;;"1261";"2014-10-07 11:05:05.420";"ST_correctStop";"34";"0";"FINISHED";"NONE";"success";"0";"1";"2014-10-07 11:05:04.156";"3";;;;;;;;;;;;;;;;;;;;;;;;;;;;;;;;;;;;;;;;;;;;;
"C1329679";"1994";;"Windows 7";"Rachel's Experiment (D.T.)";"1.0";"2";"1";"1";"2";"1";"1";"2014-10-07 11:00:10.096";"2014-10-07 11:13:57.740";"1";"1";"0";"77";"76";"module.training_block2.exec-9262.GoNoGo2";;;;;;;;;;;;;;;;;;;;;;;;;;;;;;;;;;;"1261";"2014-10-07 11:05:07.963";"ST_correctStop";"21";"1";"FINISHED";"NONE";"success";"0";"1";"2014-10-07 11:05:06.699";"3";;;;;;;;;;;;;;;;;;;;;;;;;;;;;;;;;;;;;;;;;;;;;
"C1329679";"1994";;"Windows 7";"Rachel's Experiment (D.T.)";"1.0";"2";"1";"1";"2";"1";"1";"2014-10-07 11:00:10.096";"2014-10-07 11:13:57.740";"1";"1";"0";"78";"77";"module.training_block2.exec-9262.GoNoGo2";;;;;;;;;;;;;;;;;;;;;;;;;;;;;;;;;;;"1261";"2014-10-07 11:05:10.506";"NST_correctLoc";"15";"1";"FINISHED";"RIGHT";"success";"605";"0";"2014-10-07 11:05:09.242";"2";;;;;;;;;;;;;;;;;;;;;;;;;;;;;;;;;;;;;;;;;;;;;
"C1329679";"1994";;"Windows 7";"Rachel's Experiment (D.T.)";"1.0";"2";"1";"1";"2";"1";"1";"2014-10-07 11:00:10.096";"2014-10-07 11:13:57.740";"1";"1";"0";"79";"78";"module.training_block2.exec-9262.GoNoGo2";;;;;;;;;;;;;;;;;;;;;;;;;;;;;;;;;;;"1261";"2014-10-07 11:05:13.048";"ST_correctStop";"2";"1";"FINISHED";"NONE";"success";"0";"1";"2014-10-07 11:05:11.785";"1";;;;;;;;;;;;;;;;;;;;;;;;;;;;;;;;;;;;;;;;;;;;;
"C1329679";"1994";;"Windows 7";"Rachel's Experiment (D.T.)";"1.0";"2";"1";"1";"2";"1";"1";"2014-10-07 11:00:10.096";"2014-10-07 11:13:57.740";"1";"1";"0";"80";"79";"module.training_block2.exec-9262.GoNoGo2";;;;;;;;;;;;;;;;;;;;;;;;;;;;;;;;;;;"1261";"2014-10-07 11:05:15.591";"NST_correctLoc";"35";"1";"FINISHED";"RIGHT";"success";"487";"0";"2014-10-07 11:05:14.328";"3";;;;;;;;;;;;;;;;;;;;;;;;;;;;;;;;;;;;;;;;;;;;;
"C1329679";"1994";;"Windows 7";"Rachel's Experiment (D.T.)";"1.0";"2";"1";"1";"2";"1";"1";"2014-10-07 11:00:10.096";"2014-10-07 11:13:57.740";"1";"1";"0";"81";"80";"module.training_block2.exec-9262.GoNoGo2";;;;;;;;;;;;;;;;;;;;;;;;;;;;;;;;;;;"1261";"2014-10-07 11:05:18.134";"ST_correctStop";"4";"1";"FINISHED";"NONE";"success";"0";"1";"2014-10-07 11:05:16.870";"1";;;;;;;;;;;;;;;;;;;;;;;;;;;;;;;;;;;;;;;;;;;;;
"C1329679";"1994";;"Windows 7";"Rachel's Experiment (D.T.)";"1.0";"2";"1";"1";"2";"1";"1";"2014-10-07 11:00:10.096";"2014-10-07 11:13:57.740";"1";"1";"0";"82";"81";"module.training_block2.exec-9262.GoNoGo2";;;;;;;;;;;;;;;;;;;;;;;;;;;;;;;;;;;"1261";"2014-10-07 11:05:20.677";"NST_correctLoc";"19";"1";"FINISHED";"RIGHT";"success";"522";"0";"2014-10-07 11:05:19.413";"3";;;;;;;;;;;;;;;;;;;;;;;;;;;;;;;;;;;;;;;;;;;;;
"C1329679";"1994";;"Windows 7";"Rachel's Experiment (D.T.)";"1.0";"2";"1";"1";"2";"1";"1";"2014-10-07 11:00:10.096";"2014-10-07 11:13:57.740";"1";"1";"0";"83";"82";"module.training_block2.exec-9262.GoNoGo2";;;;;;;;;;;;;;;;;;;;;;;;;;;;;;;;;;;"1261";"2014-10-07 11:05:23.220";"ST_correctStop";"30";"1";"FINISHED";"NONE";"success";"0";"1";"2014-10-07 11:05:21.956";"3";;;;;;;;;;;;;;;;;;;;;;;;;;;;;;;;;;;;;;;;;;;;;
"C1329679";"1994";;"Windows 7";"Rachel's Experiment (D.T.)";"1.0";"2";"1";"1";"2";"1";"1";"2014-10-07 11:00:10.096";"2014-10-07 11:13:57.740";"1";"1";"0";"84";"83";"module.training_block2.exec-9262.GoNoGo2";;;;;;;;;;;;;;;;;;;;;;;;;;;;;;;;;;;"1261";"2014-10-07 11:05:25.778";"NST_correctLoc";"24";"0";"FINISHED";"LEFT";"success";"573";"0";"2014-10-07 11:05:24.514";"3";;;;;;;;;;;;;;;;;;;;;;;;;;;;;;;;;;;;;;;;;;;;;
"C1329679";"1994";;"Windows 7";"Rachel's Experiment (D.T.)";"1.0";"2";"1";"1";"2";"1";"1";"2014-10-07 11:00:10.096";"2014-10-07 11:13:57.740";"1";"1";"0";"85";"84";"module.training_block2.exec-9262.GoNoGo2";;;;;;;;;;;;;;;;;;;;;;;;;;;;;;;;;;;"1261";"2014-10-07 11:05:28.321";"NST_correctLoc";"18";"0";"FINISHED";"LEFT";"success";"518";"0";"2014-10-07 11:05:27.057";"3";;;;;;;;;;;;;;;;;;;;;;;;;;;;;;;;;;;;;;;;;;;;;
"C1329679";"1994";;"Windows 7";"Rachel's Experiment (D.T.)";"1.0";"2";"1";"1";"2";"1";"1";"2014-10-07 11:00:10.096";"2014-10-07 11:13:57.740";"1";"1";"0";"86";"85";"module.training_block2.exec-9262.GoNoGo2";;;;;;;;;;;;;;;;;;;;;;;;;;;;;;;;;;;"1261";"2014-10-07 11:05:30.864";"NST_correctLoc";"17";"1";"FINISHED";"RIGHT";"success";"567";"0";"2014-10-07 11:05:29.600";"2";;;;;;;;;;;;;;;;;;;;;;;;;;;;;;;;;;;;;;;;;;;;;
"C1329679";"1994";;"Windows 7";"Rachel's Experiment (D.T.)";"1.0";"2";"1";"1";"2";"1";"1";"2014-10-07 11:00:10.096";"2014-10-07 11:13:57.740";"1";"1";"0";"87";"86";"module.training_block2.exec-9262.GoNoGo2";;;;;;;;;;;;;;;;;;;;;;;;;;;;;;;;;;;"1261";"2014-10-07 11:05:33.406";"ST_correctStop";"7";"0";"FINISHED";"NONE";"success";"0";"1";"2014-10-07 11:05:32.143";"1";;;;;;;;;;;;;;;;;;;;;;;;;;;;;;;;;;;;;;;;;;;;;
"C1329679";"1994";;"Windows 7";"Rachel's Experiment (D.T.)";"1.0";"2";"1";"1";"2";"1";"1";"2014-10-07 11:00:10.096";"2014-10-07 11:13:57.740";"1";"1";"0";"88";"87";"module.training_block3.exec-5576.GoNoGo3";;;;;;;;;;;;;;;;;;;;;;;;;;;;;;;;;;;;;;;;;;;;;;;"1261";"2014-10-07 11:05:44.108";"ST_correctStop";"18";"0";"FINISHED";"NONE";"success";"0";"1";"2014-10-07 11:05:42.844";"3";;;;;;;;;;;;;;;;;;;;;;;;;;;;;;;;;
"C1329679";"1994";;"Windows 7";"Rachel's Experiment (D.T.)";"1.0";"2";"1";"1";"2";"1";"1";"2014-10-07 11:00:10.096";"2014-10-07 11:13:57.740";"1";"1";"0";"89";"88";"module.training_block3.exec-5576.GoNoGo3";;;;;;;;;;;;;;;;;;;;;;;;;;;;;;;;;;;;;;;;;;;;;;;"1261";"2014-10-07 11:05:46.651";"ST_correctStop";"23";"0";"FINISHED";"NONE";"success";"0";"1";"2014-10-07 11:05:45.387";"3";;;;;;;;;;;;;;;;;;;;;;;;;;;;;;;;;
"C1329679";"1994";;"Windows 7";"Rachel's Experiment (D.T.)";"1.0";"2";"1";"1";"2";"1";"1";"2014-10-07 11:00:10.096";"2014-10-07 11:13:57.740";"1";"1";"0";"90";"89";"module.training_block3.exec-5576.GoNoGo3";;;;;;;;;;;;;;;;;;;;;;;;;;;;;;;;;;;;;;;;;;;;;;;"1261";"2014-10-07 11:05:49.194";"NST_correctLoc";"33";"1";"FINISHED";"RIGHT";"success";"421";"0";"2014-10-07 11:05:47.930";"3";;;;;;;;;;;;;;;;;;;;;;;;;;;;;;;;;
"C1329679";"1994";;"Windows 7";"Rachel's Experiment (D.T.)";"1.0";"2";"1";"1";"2";"1";"1";"2014-10-07 11:00:10.096";"2014-10-07 11:13:57.740";"1";"1";"0";"91";"90";"module.training_block3.exec-5576.GoNoGo3";;;;;;;;;;;;;;;;;;;;;;;;;;;;;;;;;;;;;;;;;;;;;;;"1261";"2014-10-07 11:05:51.736";"NST_correctLoc";"29";"1";"FINISHED";"RIGHT";"success";"382";"0";"2014-10-07 11:05:50.473";"3";;;;;;;;;;;;;;;;;;;;;;;;;;;;;;;;;
"C1329679";"1994";;"Windows 7";"Rachel's Experiment (D.T.)";"1.0";"2";"1";"1";"2";"1";"1";"2014-10-07 11:00:10.096";"2014-10-07 11:13:57.740";"1";"1";"0";"92";"91";"module.training_block3.exec-5576.GoNoGo3";;;;;;;;;;;;;;;;;;;;;;;;;;;;;;;;;;;;;;;;;;;;;;;"1261";"2014-10-07 11:05:54.295";"NST_correctLoc";"17";"0";"FINISHED";"LEFT";"success";"375";"0";"2014-10-07 11:05:53.031";"2";;;;;;;;;;;;;;;;;;;;;;;;;;;;;;;;;
"C1329679";"1994";;"Windows 7";"Rachel's Experiment (D.T.)";"1.0";"2";"1";"1";"2";"1";"1";"2014-10-07 11:00:10.096";"2014-10-07 11:13:57.740";"1";"1";"0";"93";"92";"module.training_block3.exec-5576.GoNoGo3";;;;;;;;;;;;;;;;;;;;;;;;;;;;;;;;;;;;;;;;;;;;;;;"1261";"2014-10-07 11:05:56.838";"NST_correctLoc";"32";"0";"FINISHED";"LEFT";"success";"369";"0";"2014-10-07 11:05:55.574";"3";;;;;;;;;;;;;;;;;;;;;;;;;;;;;;;;;
"C1329679";"1994";;"Windows 7";"Rachel's Experiment (D.T.)";"1.0";"2";"1";"1";"2";"1";"1";"2014-10-07 11:00:10.096";"2014-10-07 11:13:57.740";"1";"1";"0";"94";"93";"module.training_block3.exec-5576.GoNoGo3";;;;;;;;;;;;;;;;;;;;;;;;;;;;;;;;;;;;;;;;;;;;;;;"1261";"2014-10-07 11:05:59.380";"ST_failedStop";"1";"1";"FINISHED";"RIGHT";"failure";"458";"1";"2014-10-07 11:05:58.117";"1";;;;;;;;;;;;;;;;;;;;;;;;;;;;;;;;;
"C1329679";"1994";;"Windows 7";"Rachel's Experiment (D.T.)";"1.0";"2";"1";"1";"2";"1";"1";"2014-10-07 11:00:10.096";"2014-10-07 11:13:57.740";"1";"1";"0";"95";"94";"module.training_block3.exec-5576.GoNoGo3";;;;;;;;;;;;;;;;;;;;;;;;;;;;;;;;;;;;;;;;;;;;;;;"1261";"2014-10-07 11:06:01.923";"NST_correctLoc";"24";"0";"FINISHED";"LEFT";"success";"459";"0";"2014-10-07 11:06:00.660";"3";;;;;;;;;;;;;;;;;;;;;;;;;;;;;;;;;
"C1329679";"1994";;"Windows 7";"Rachel's Experiment (D.T.)";"1.0";"2";"1";"1";"2";"1";"1";"2014-10-07 11:00:10.096";"2014-10-07 11:13:57.740";"1";"1";"0";"96";"95";"module.training_block3.exec-5576.GoNoGo3";;;;;;;;;;;;;;;;;;;;;;;;;;;;;;;;;;;;;;;;;;;;;;;"1261";"2014-10-07 11:06:04.466";"NST_correctLoc";"15";"1";"FINISHED";"RIGHT";"success";"564";"0";"2014-10-07 11:06:03.202";"2";;;;;;;;;;;;;;;;;;;;;;;;;;;;;;;;;
"C1329679";"1994";;"Windows 7";"Rachel's Experiment (D.T.)";"1.0";"2";"1";"1";"2";"1";"1";"2014-10-07 11:00:10.096";"2014-10-07 11:13:57.740";"1";"1";"0";"97";"96";"module.training_block3.exec-5576.GoNoGo3";;;;;;;;;;;;;;;;;;;;;;;;;;;;;;;;;;;;;;;;;;;;;;;"1261";"2014-10-07 11:06:07.009";"ST_correctStop";"0";"1";"FINISHED";"NONE";"success";"0";"1";"2014-10-07 11:06:05.745";"1";;;;;;;;;;;;;;;;;;;;;;;;;;;;;;;;;
"C1329679";"1994";;"Windows 7";"Rachel's Experiment (D.T.)";"1.0";"2";"1";"1";"2";"1";"1";"2014-10-07 11:00:10.096";"2014-10-07 11:13:57.740";"1";"1";"0";"98";"97";"module.training_block3.exec-5576.GoNoGo3";;;;;;;;;;;;;;;;;;;;;;;;;;;;;;;;;;;;;;;;;;;;;;;"1261";"2014-10-07 11:06:09.552";"ST_correctStop";"2";"0";"FINISHED";"NONE";"success";"0";"1";"2014-10-07 11:06:08.288";"1";;;;;;;;;;;;;;;;;;;;;;;;;;;;;;;;;
"C1329679";"1994";;"Windows 7";"Rachel's Experiment (D.T.)";"1.0";"2";"1";"1";"2";"1";"1";"2014-10-07 11:00:10.096";"2014-10-07 11:13:57.740";"1";"1";"0";"99";"98";"module.training_block3.exec-5576.GoNoGo3";;;;;;;;;;;;;;;;;;;;;;;;;;;;;;;;;;;;;;;;;;;;;;;"1261";"2014-10-07 11:06:12.094";"ST_correctStop";"6";"0";"FINISHED";"NONE";"success";"0";"1";"2014-10-07 11:06:10.831";"1";;;;;;;;;;;;;;;;;;;;;;;;;;;;;;;;;
"C1329679";"1994";;"Windows 7";"Rachel's Experiment (D.T.)";"1.0";"2";"1";"1";"2";"1";"1";"2014-10-07 11:00:10.096";"2014-10-07 11:13:57.740";"1";"1";"0";"100";"99";"module.training_block3.exec-5576.GoNoGo3";;;;;;;;;;;;;;;;;;;;;;;;;;;;;;;;;;;;;;;;;;;;;;;"1261";"2014-10-07 11:06:14.637";"NST_correctLoc";"14";"1";"FINISHED";"RIGHT";"success";"465";"0";"2014-10-07 11:06:13.374";"2";;;;;;;;;;;;;;;;;;;;;;;;;;;;;;;;;
"C1329679";"1994";;"Windows 7";"Rachel's Experiment (D.T.)";"1.0";"2";"1";"1";"2";"1";"1";"2014-10-07 11:00:10.096";"2014-10-07 11:13:57.740";"1";"1";"0";"101";"100";"module.training_block3.exec-5576.GoNoGo3";;;;;;;;;;;;;;;;;;;;;;;;;;;;;;;;;;;;;;;;;;;;;;;"1261";"2014-10-07 11:06:17.196";"ST_failedStop";"22";"1";"FINISHED";"RIGHT";"failure";"523";"1";"2014-10-07 11:06:15.932";"3";;;;;;;;;;;;;;;;;;;;;;;;;;;;;;;;;
"C1329679";"1994";;"Windows 7";"Rachel's Experiment (D.T.)";"1.0";"2";"1";"1";"2";"1";"1";"2014-10-07 11:00:10.096";"2014-10-07 11:13:57.740";"1";"1";"0";"102";"101";"module.training_block3.exec-5576.GoNoGo3";;;;;;;;;;;;;;;;;;;;;;;;;;;;;;;;;;;;;;;;;;;;;;;"1261";"2014-10-07 11:06:19.738";"NST_correctLoc";"16";"1";"FINISHED";"RIGHT";"success";"572";"0";"2014-10-07 11:06:18.475";"2";;;;;;;;;;;;;;;;;;;;;;;;;;;;;;;;;
"C1329679";"1994";;"Windows 7";"Rachel's Experiment (D.T.)";"1.0";"2";"1";"1";"2";"1";"1";"2014-10-07 11:00:10.096";"2014-10-07 11:13:57.740";"1";"1";"0";"103";"102";"module.training_block3.exec-5576.GoNoGo3";;;;;;;;;;;;;;;;;;;;;;;;;;;;;;;;;;;;;;;;;;;;;;;"1261";"2014-10-07 11:06:22.281";"NST_correctLoc";"11";"0";"FINISHED";"LEFT";"success";"541";"0";"2014-10-07 11:06:21.018";"2";;;;;;;;;;;;;;;;;;;;;;;;;;;;;;;;;
"C1329679";"1994";;"Windows 7";"Rachel's Experiment (D.T.)";"1.0";"2";"1";"1";"2";"1";"1";"2014-10-07 11:00:10.096";"2014-10-07 11:13:57.740";"1";"1";"0";"104";"103";"module.training_block3.exec-5576.GoNoGo3";;;;;;;;;;;;;;;;;;;;;;;;;;;;;;;;;;;;;;;;;;;;;;;"1261";"2014-10-07 11:06:24.824";"NST_correctLoc";"34";"1";"FINISHED";"RIGHT";"success";"542";"0";"2014-10-07 11:06:23.560";"3";;;;;;;;;;;;;;;;;;;;;;;;;;;;;;;;;
"C1329679";"1994";;"Windows 7";"Rachel's Experiment (D.T.)";"1.0";"2";"1";"1";"2";"1";"1";"2014-10-07 11:00:10.096";"2014-10-07 11:13:57.740";"1";"1";"0";"105";"104";"module.training_block3.exec-5576.GoNoGo3";;;;;;;;;;;;;;;;;;;;;;;;;;;;;;;;;;;;;;;;;;;;;;;"1261";"2014-10-07 11:06:27.367";"NST_correctLoc";"25";"1";"FINISHED";"RIGHT";"success";"471";"0";"2014-10-07 11:06:26.103";"3";;;;;;;;;;;;;;;;;;;;;;;;;;;;;;;;;
"C1329679";"1994";;"Windows 7";"Rachel's Experiment (D.T.)";"1.0";"2";"1";"1";"2";"1";"1";"2014-10-07 11:00:10.096";"2014-10-07 11:13:57.740";"1";"1";"0";"106";"105";"module.training_block3.exec-5576.GoNoGo3";;;;;;;;;;;;;;;;;;;;;;;;;;;;;;;;;;;;;;;;;;;;;;;"1261";"2014-10-07 11:06:29.910";"ST_correctStop";"3";"1";"FINISHED";"NONE";"success";"0";"1";"2014-10-07 11:06:28.646";"1";;;;;;;;;;;;;;;;;;;;;;;;;;;;;;;;;
"C1329679";"1994";;"Windows 7";"Rachel's Experiment (D.T.)";"1.0";"2";"1";"1";"2";"1";"1";"2014-10-07 11:00:10.096";"2014-10-07 11:13:57.740";"1";"1";"0";"107";"106";"module.training_block3.exec-5576.GoNoGo3";;;;;;;;;;;;;;;;;;;;;;;;;;;;;;;;;;;;;;;;;;;;;;;"1261";"2014-10-07 11:06:32.453";"NST_correctLoc";"12";"0";"FINISHED";"LEFT";"success";"538";"0";"2014-10-07 11:06:31.189";"2";;;;;;;;;;;;;;;;;;;;;;;;;;;;;;;;;
"C1329679";"1994";;"Windows 7";"Rachel's Experiment (D.T.)";"1.0";"2";"1";"1";"2";"1";"1";"2014-10-07 11:00:10.096";"2014-10-07 11:13:57.740";"1";"1";"0";"108";"107";"module.training_block3.exec-5576.GoNoGo3";;;;;;;;;;;;;;;;;;;;;;;;;;;;;;;;;;;;;;;;;;;;;;;"1261";"2014-10-07 11:06:35.011";"NST_correctLoc";"10";"0";"FINISHED";"LEFT";"success";"467";"0";"2014-10-07 11:06:33.747";"2";;;;;;;;;;;;;;;;;;;;;;;;;;;;;;;;;
"C1329679";"1994";;"Windows 7";"Rachel's Experiment (D.T.)";"1.0";"2";"1";"1";"2";"1";"1";"2014-10-07 11:00:10.096";"2014-10-07 11:13:57.740";"1";"1";"0";"109";"108";"module.training_block3.exec-5576.GoNoGo3";;;;;;;;;;;;;;;;;;;;;;;;;;;;;;;;;;;;;;;;;;;;;;;"1261";"2014-10-07 11:06:37.554";"ST_correctStop";"31";"1";"FINISHED";"NONE";"success";"0";"1";"2014-10-07 11:06:36.290";"3";;;;;;;;;;;;;;;;;;;;;;;;;;;;;;;;;
"C1329679";"1994";;"Windows 7";"Rachel's Experiment (D.T.)";"1.0";"2";"1";"1";"2";"1";"1";"2014-10-07 11:00:10.096";"2014-10-07 11:13:57.740";"1";"1";"0";"110";"109";"module.training_block3.exec-5576.GoNoGo3";;;;;;;;;;;;;;;;;;;;;;;;;;;;;;;;;;;;;;;;;;;;;;;"1261";"2014-10-07 11:06:40.112";"ST_correctStop";"30";"1";"FINISHED";"NONE";"success";"0";"1";"2014-10-07 11:06:38.849";"3";;;;;;;;;;;;;;;;;;;;;;;;;;;;;;;;;
"C1329679";"1994";;"Windows 7";"Rachel's Experiment (D.T.)";"1.0";"2";"1";"1";"2";"1";"1";"2014-10-07 11:00:10.096";"2014-10-07 11:13:57.740";"1";"1";"0";"111";"110";"module.training_block3.exec-5576.GoNoGo3";;;;;;;;;;;;;;;;;;;;;;;;;;;;;;;;;;;;;;;;;;;;;;;"1261";"2014-10-07 11:06:42.655";"ST_correctStop";"35";"1";"FINISHED";"NONE";"success";"0";"1";"2014-10-07 11:06:41.391";"3";;;;;;;;;;;;;;;;;;;;;;;;;;;;;;;;;
"C1329679";"1994";;"Windows 7";"Rachel's Experiment (D.T.)";"1.0";"2";"1";"1";"2";"1";"1";"2014-10-07 11:00:10.096";"2014-10-07 11:13:57.740";"1";"1";"0";"112";"111";"module.training_block3.exec-5576.GoNoGo3";;;;;;;;;;;;;;;;;;;;;;;;;;;;;;;;;;;;;;;;;;;;;;;"1261";"2014-10-07 11:06:45.198";"ST_correctStop";"5";"1";"FINISHED";"NONE";"success";"0";"1";"2014-10-07 11:06:43.934";"1";;;;;;;;;;;;;;;;;;;;;;;;;;;;;;;;;
"C1329679";"1994";;"Windows 7";"Rachel's Experiment (D.T.)";"1.0";"2";"1";"1";"2";"1";"1";"2014-10-07 11:00:10.096";"2014-10-07 11:13:57.740";"1";"1";"0";"113";"112";"module.training_block3.exec-5576.GoNoGo3";;;;;;;;;;;;;;;;;;;;;;;;;;;;;;;;;;;;;;;;;;;;;;;"1261";"2014-10-07 11:06:47.741";"NST_correctLoc";"21";"0";"FINISHED";"LEFT";"success";"697";"0";"2014-10-07 11:06:46.477";"3";;;;;;;;;;;;;;;;;;;;;;;;;;;;;;;;;
"C1329679";"1994";;"Windows 7";"Rachel's Experiment (D.T.)";"1.0";"2";"1";"1";"2";"1";"1";"2014-10-07 11:00:10.096";"2014-10-07 11:13:57.740";"1";"1";"0";"114";"113";"module.training_block3.exec-5576.GoNoGo3";;;;;;;;;;;;;;;;;;;;;;;;;;;;;;;;;;;;;;;;;;;;;;;"1261";"2014-10-07 11:06:50.283";"ST_correctStop";"7";"0";"FINISHED";"NONE";"success";"0";"1";"2014-10-07 11:06:49.020";"1";;;;;;;;;;;;;;;;;;;;;;;;;;;;;;;;;
"C1329679";"1994";;"Windows 7";"Rachel's Experiment (D.T.)";"1.0";"2";"1";"1";"2";"1";"1";"2014-10-07 11:00:10.096";"2014-10-07 11:13:57.740";"1";"1";"0";"115";"114";"module.training_block3.exec-5576.GoNoGo3";;;;;;;;;;;;;;;;;;;;;;;;;;;;;;;;;;;;;;;;;;;;;;;"1261";"2014-10-07 11:06:52.826";"NST_correctLoc";"27";"1";"FINISHED";"RIGHT";"success";"580";"0";"2014-10-07 11:06:51.563";"3";;;;;;;;;;;;;;;;;;;;;;;;;;;;;;;;;
"C1329679";"1994";;"Windows 7";"Rachel's Experiment (D.T.)";"1.0";"2";"1";"1";"2";"1";"1";"2014-10-07 11:00:10.096";"2014-10-07 11:13:57.740";"1";"1";"0";"116";"115";"module.training_block3.exec-5576.GoNoGo3";;;;;;;;;;;;;;;;;;;;;;;;;;;;;;;;;;;;;;;;;;;;;;;"1261";"2014-10-07 11:06:55.369";"NST_correctLoc";"9";"0";"FINISHED";"LEFT";"success";"573";"0";"2014-10-07 11:06:54.105";"2";;;;;;;;;;;;;;;;;;;;;;;;;;;;;;;;;
"C1329679";"1994";;"Windows 7";"Rachel's Experiment (D.T.)";"1.0";"2";"1";"1";"2";"1";"1";"2014-10-07 11:00:10.096";"2014-10-07 11:13:57.740";"1";"1";"0";"117";"116";"module.training_block3.exec-5576.GoNoGo3";;;;;;;;;;;;;;;;;;;;;;;;;;;;;;;;;;;;;;;;;;;;;;;"1261";"2014-10-07 11:06:57.912";"ST_correctStop";"26";"0";"FINISHED";"NONE";"success";"0";"1";"2014-10-07 11:06:56.648";"3";;;;;;;;;;;;;;;;;;;;;;;;;;;;;;;;;
"C1329679";"1994";;"Windows 7";"Rachel's Experiment (D.T.)";"1.0";"2";"1";"1";"2";"1";"1";"2014-10-07 11:00:10.096";"2014-10-07 11:13:57.740";"1";"1";"0";"118";"117";"module.training_block3.exec-5576.GoNoGo3";;;;;;;;;;;;;;;;;;;;;;;;;;;;;;;;;;;;;;;;;;;;;;;"1261";"2014-10-07 11:07:00.455";"ST_correctStop";"20";"0";"FINISHED";"NONE";"success";"0";"1";"2014-10-07 11:06:59.191";"3";;;;;;;;;;;;;;;;;;;;;;;;;;;;;;;;;
"C1329679";"1994";;"Windows 7";"Rachel's Experiment (D.T.)";"1.0";"2";"1";"1";"2";"1";"1";"2014-10-07 11:00:10.096";"2014-10-07 11:13:57.740";"1";"1";"0";"119";"118";"module.training_block3.exec-5576.GoNoGo3";;;;;;;;;;;;;;;;;;;;;;;;;;;;;;;;;;;;;;;;;;;;;;;"1261";"2014-10-07 11:07:02.997";"NST_correctLoc";"28";"0";"FINISHED";"LEFT";"success";"592";"0";"2014-10-07 11:07:01.734";"3";;;;;;;;;;;;;;;;;;;;;;;;;;;;;;;;;
"C1329679";"1994";;"Windows 7";"Rachel's Experiment (D.T.)";"1.0";"2";"1";"1";"2";"1";"1";"2014-10-07 11:00:10.096";"2014-10-07 11:13:57.740";"1";"1";"0";"120";"119";"module.training_block3.exec-5576.GoNoGo3";;;;;;;;;;;;;;;;;;;;;;;;;;;;;;;;;;;;;;;;;;;;;;;"1261";"2014-10-07 11:07:05.540";"ST_correctStop";"4";"0";"FINISHED";"NONE";"success";"0";"1";"2014-10-07 11:07:04.277";"1";;;;;;;;;;;;;;;;;;;;;;;;;;;;;;;;;
"C1329679";"1994";;"Windows 7";"Rachel's Experiment (D.T.)";"1.0";"2";"1";"1";"2";"1";"1";"2014-10-07 11:00:10.096";"2014-10-07 11:13:57.740";"1";"1";"0";"121";"120";"module.training_block3.exec-5576.GoNoGo3";;;;;;;;;;;;;;;;;;;;;;;;;;;;;;;;;;;;;;;;;;;;;;;"1261";"2014-10-07 11:07:08.083";"ST_correctStop";"8";"0";"FINISHED";"NONE";"success";"0";"1";"2014-10-07 11:07:06.819";"1";;;;;;;;;;;;;;;;;;;;;;;;;;;;;;;;;
"C1329679";"1994";;"Windows 7";"Rachel's Experiment (D.T.)";"1.0";"2";"1";"1";"2";"1";"1";"2014-10-07 11:00:10.096";"2014-10-07 11:13:57.740";"1";"1";"0";"122";"121";"module.training_block3.exec-5576.GoNoGo3";;;;;;;;;;;;;;;;;;;;;;;;;;;;;;;;;;;;;;;;;;;;;;;"1261";"2014-10-07 11:07:10.626";"NST_correctLoc";"13";"1";"FINISHED";"RIGHT";"success";"508";"0";"2014-10-07 11:07:09.362";"2";;;;;;;;;;;;;;;;;;;;;;;;;;;;;;;;;
"C1329679";"1994";;"Windows 7";"Rachel's Experiment (D.T.)";"1.0";"2";"1";"1";"2";"1";"1";"2014-10-07 11:00:10.096";"2014-10-07 11:13:57.740";"1";"1";"0";"123";"122";"module.training_block3.exec-5576.GoNoGo3";;;;;;;;;;;;;;;;;;;;;;;;;;;;;;;;;;;;;;;;;;;;;;;"1261";"2014-10-07 11:07:13.169";"ST_correctStop";"19";"0";"FINISHED";"NONE";"success";"0";"1";"2014-10-07 11:07:11.905";"3";;;;;;;;;;;;;;;;;;;;;;;;;;;;;;;;;
"C1329679";"1994";;"Windows 7";"Rachel's Experiment (D.T.)";"1.0";"2";"1";"1";"2";"1";"1";"2014-10-07 11:00:10.096";"2014-10-07 11:13:57.740";"1";"1";"0";"124";"123";"module.training_block4.exec-6516.GoNoGo4";;;;;;;;;;;;;;;;;;;;;;;;;;;;;;;;;;;;;;;;;;;;;;;;;;;;;;;;;;;"1261";"2014-10-07 11:07:24.619";"ST_correctStop";"23";"0";"FINISHED";"NONE";"success";"0";"1";"2014-10-07 11:07:23.355";"3";;;;;;;;;;;;;;;;;;;;;
"C1329679";"1994";;"Windows 7";"Rachel's Experiment (D.T.)";"1.0";"2";"1";"1";"2";"1";"1";"2014-10-07 11:00:10.096";"2014-10-07 11:13:57.740";"1";"1";"0";"125";"124";"module.training_block4.exec-6516.GoNoGo4";;;;;;;;;;;;;;;;;;;;;;;;;;;;;;;;;;;;;;;;;;;;;;;;;;;;;;;;;;;"1261";"2014-10-07 11:07:27.177";"NST_correctLoc";"30";"1";"FINISHED";"RIGHT";"success";"508";"0";"2014-10-07 11:07:25.914";"3";;;;;;;;;;;;;;;;;;;;;
"C1329679";"1994";;"Windows 7";"Rachel's Experiment (D.T.)";"1.0";"2";"1";"1";"2";"1";"1";"2014-10-07 11:00:10.096";"2014-10-07 11:13:57.740";"1";"1";"0";"126";"125";"module.training_block4.exec-6516.GoNoGo4";;;;;;;;;;;;;;;;;;;;;;;;;;;;;;;;;;;;;;;;;;;;;;;;;;;;;;;;;;;"1261";"2014-10-07 11:07:29.720";"NST_correctLoc";"11";"0";"FINISHED";"LEFT";"success";"461";"0";"2014-10-07 11:07:28.457";"2";;;;;;;;;;;;;;;;;;;;;
"C1329679";"1994";;"Windows 7";"Rachel's Experiment (D.T.)";"1.0";"2";"1";"1";"2";"1";"1";"2014-10-07 11:00:10.096";"2014-10-07 11:13:57.740";"1";"1";"0";"127";"126";"module.training_block4.exec-6516.GoNoGo4";;;;;;;;;;;;;;;;;;;;;;;;;;;;;;;;;;;;;;;;;;;;;;;;;;;;;;;;;;;"1261";"2014-10-07 11:07:32.279";"ST_correctStop";"8";"1";"FINISHED";"NONE";"success";"0";"1";"2014-10-07 11:07:31.015";"1";;;;;;;;;;;;;;;;;;;;;
"C1329679";"1994";;"Windows 7";"Rachel's Experiment (D.T.)";"1.0";"2";"1";"1";"2";"1";"1";"2014-10-07 11:00:10.096";"2014-10-07 11:13:57.740";"1";"1";"0";"128";"127";"module.training_block4.exec-6516.GoNoGo4";;;;;;;;;;;;;;;;;;;;;;;;;;;;;;;;;;;;;;;;;;;;;;;;;;;;;;;;;;;"1261";"2014-10-07 11:07:34.821";"ST_failedStop";"34";"1";"FINISHED";"RIGHT";"failure";"536";"1";"2014-10-07 11:07:33.558";"3";;;;;;;;;;;;;;;;;;;;;
"C1329679";"1994";;"Windows 7";"Rachel's Experiment (D.T.)";"1.0";"2";"1";"1";"2";"1";"1";"2014-10-07 11:00:10.096";"2014-10-07 11:13:57.740";"1";"1";"0";"129";"128";"module.training_block4.exec-6516.GoNoGo4";;;;;;;;;;;;;;;;;;;;;;;;;;;;;;;;;;;;;;;;;;;;;;;;;;;;;;;;;;;"1261";"2014-10-07 11:07:37.364";"NST_correctLoc";"35";"1";"FINISHED";"RIGHT";"success";"609";"0";"2014-10-07 11:07:36.101";"3";;;;;;;;;;;;;;;;;;;;;
"C1329679";"1994";;"Windows 7";"Rachel's Experiment (D.T.)";"1.0";"2";"1";"1";"2";"1";"1";"2014-10-07 11:00:10.096";"2014-10-07 11:13:57.740";"1";"1";"0";"130";"129";"module.training_block4.exec-6516.GoNoGo4";;;;;;;;;;;;;;;;;;;;;;;;;;;;;;;;;;;;;;;;;;;;;;;;;;;;;;;;;;;"1261";"2014-10-07 11:07:39.907";"NST_correctLoc";"13";"1";"FINISHED";"RIGHT";"success";"563";"0";"2014-10-07 11:07:38.643";"2";;;;;;;;;;;;;;;;;;;;;
"C1329679";"1994";;"Windows 7";"Rachel's Experiment (D.T.)";"1.0";"2";"1";"1";"2";"1";"1";"2014-10-07 11:00:10.096";"2014-10-07 11:13:57.740";"1";"1";"0";"131";"130";"module.training_block4.exec-6516.GoNoGo4";;;;;;;;;;;;;;;;;;;;;;;;;;;;;;;;;;;;;;;;;;;;;;;;;;;;;;;;;;;"1261";"2014-10-07 11:07:42.450";"ST_correctStop";"28";"1";"FINISHED";"NONE";"success";"0";"1";"2014-10-07 11:07:41.186";"3";;;;;;;;;;;;;;;;;;;;;
"C1329679";"1994";;"Windows 7";"Rachel's Experiment (D.T.)";"1.0";"2";"1";"1";"2";"1";"1";"2014-10-07 11:00:10.096";"2014-10-07 11:13:57.740";"1";"1";"0";"132";"131";"module.training_block4.exec-6516.GoNoGo4";;;;;;;;;;;;;;;;;;;;;;;;;;;;;;;;;;;;;;;;;;;;;;;;;;;;;;;;;;;"1261";"2014-10-07 11:07:44.993";"ST_correctStop";"19";"1";"FINISHED";"NONE";"success";"0";"1";"2014-10-07 11:07:43.729";"3";;;;;;;;;;;;;;;;;;;;;
"C1329679";"1994";;"Windows 7";"Rachel's Experiment (D.T.)";"1.0";"2";"1";"1";"2";"1";"1";"2014-10-07 11:00:10.096";"2014-10-07 11:13:57.740";"1";"1";"0";"133";"132";"module.training_block4.exec-6516.GoNoGo4";;;;;;;;;;;;;;;;;;;;;;;;;;;;;;;;;;;;;;;;;;;;;;;;;;;;;;;;;;;"1261";"2014-10-07 11:07:47.535";"NST_correctLoc";"9";"0";"FINISHED";"LEFT";"success";"534";"0";"2014-10-07 11:07:46.272";"2";;;;;;;;;;;;;;;;;;;;;
"C1329679";"1994";;"Windows 7";"Rachel's Experiment (D.T.)";"1.0";"2";"1";"1";"2";"1";"1";"2014-10-07 11:00:10.096";"2014-10-07 11:13:57.740";"1";"1";"0";"134";"133";"module.training_block4.exec-6516.GoNoGo4";;;;;;;;;;;;;;;;;;;;;;;;;;;;;;;;;;;;;;;;;;;;;;;;;;;;;;;;;;;"1261";"2014-10-07 11:07:50.094";"ST_correctStop";"0";"0";"FINISHED";"NONE";"success";"0";"1";"2014-10-07 11:07:48.830";"1";;;;;;;;;;;;;;;;;;;;;
"C1329679";"1994";;"Windows 7";"Rachel's Experiment (D.T.)";"1.0";"2";"1";"1";"2";"1";"1";"2014-10-07 11:00:10.096";"2014-10-07 11:13:57.740";"1";"1";"0";"135";"134";"module.training_block4.exec-6516.GoNoGo4";;;;;;;;;;;;;;;;;;;;;;;;;;;;;;;;;;;;;;;;;;;;;;;;;;;;;;;;;;;"1261";"2014-10-07 11:07:52.637";"ST_correctStop";"4";"1";"FINISHED";"NONE";"success";"0";"1";"2014-10-07 11:07:51.373";"1";;;;;;;;;;;;;;;;;;;;;
"C1329679";"1994";;"Windows 7";"Rachel's Experiment (D.T.)";"1.0";"2";"1";"1";"2";"1";"1";"2014-10-07 11:00:10.096";"2014-10-07 11:13:57.740";"1";"1";"0";"136";"135";"module.training_block4.exec-6516.GoNoGo4";;;;;;;;;;;;;;;;;;;;;;;;;;;;;;;;;;;;;;;;;;;;;;;;;;;;;;;;;;;"1261";"2014-10-07 11:07:55.195";"NST_correctLoc";"29";"1";"FINISHED";"RIGHT";"success";"522";"0";"2014-10-07 11:07:53.931";"3";;;;;;;;;;;;;;;;;;;;;
"C1329679";"1994";;"Windows 7";"Rachel's Experiment (D.T.)";"1.0";"2";"1";"1";"2";"1";"1";"2014-10-07 11:00:10.096";"2014-10-07 11:13:57.740";"1";"1";"0";"137";"136";"module.training_block4.exec-6516.GoNoGo4";;;;;;;;;;;;;;;;;;;;;;;;;;;;;;;;;;;;;;;;;;;;;;;;;;;;;;;;;;;"1261";"2014-10-07 11:07:57.738";"NST_correctLoc";"18";"0";"FINISHED";"LEFT";"success";"596";"0";"2014-10-07 11:07:56.474";"3";;;;;;;;;;;;;;;;;;;;;
"C1329679";"1994";;"Windows 7";"Rachel's Experiment (D.T.)";"1.0";"2";"1";"1";"2";"1";"1";"2014-10-07 11:00:10.096";"2014-10-07 11:13:57.740";"1";"1";"0";"138";"137";"module.training_block4.exec-6516.GoNoGo4";;;;;;;;;;;;;;;;;;;;;;;;;;;;;;;;;;;;;;;;;;;;;;;;;;;;;;;;;;;"1261";"2014-10-07 11:08:00.281";"NST_correctLoc";"25";"1";"FINISHED";"RIGHT";"success";"501";"0";"2014-10-07 11:07:59.017";"3";;;;;;;;;;;;;;;;;;;;;
"C1329679";"1994";;"Windows 7";"Rachel's Experiment (D.T.)";"1.0";"2";"1";"1";"2";"1";"1";"2014-10-07 11:00:10.096";"2014-10-07 11:13:57.740";"1";"1";"0";"139";"138";"module.training_block4.exec-6516.GoNoGo4";;;;;;;;;;;;;;;;;;;;;;;;;;;;;;;;;;;;;;;;;;;;;;;;;;;;;;;;;;;"1261";"2014-10-07 11:08:02.823";"NST_correctLoc";"24";"0";"FINISHED";"LEFT";"success";"438";"0";"2014-10-07 11:08:01.560";"3";;;;;;;;;;;;;;;;;;;;;
"C1329679";"1994";;"Windows 7";"Rachel's Experiment (D.T.)";"1.0";"2";"1";"1";"2";"1";"1";"2014-10-07 11:00:10.096";"2014-10-07 11:13:57.740";"1";"1";"0";"140";"139";"module.training_block4.exec-6516.GoNoGo4";;;;;;;;;;;;;;;;;;;;;;;;;;;;;;;;;;;;;;;;;;;;;;;;;;;;;;;;;;;"1261";"2014-10-07 11:08:05.366";"NST_correctLoc";"17";"1";"FINISHED";"RIGHT";"success";"511";"0";"2014-10-07 11:08:04.103";"2";;;;;;;;;;;;;;;;;;;;;
"C1329679";"1994";;"Windows 7";"Rachel's Experiment (D.T.)";"1.0";"2";"1";"1";"2";"1";"1";"2014-10-07 11:00:10.096";"2014-10-07 11:13:57.740";"1";"1";"0";"141";"140";"module.training_block4.exec-6516.GoNoGo4";;;;;;;;;;;;;;;;;;;;;;;;;;;;;;;;;;;;;;;;;;;;;;;;;;;;;;;;;;;"1261";"2014-10-07 11:08:07.909";"NST_correctLoc";"12";"1";"FINISHED";"RIGHT";"success";"432";"0";"2014-10-07 11:08:06.645";"2";;;;;;;;;;;;;;;;;;;;;
"C1329679";"1994";;"Windows 7";"Rachel's Experiment (D.T.)";"1.0";"2";"1";"1";"2";"1";"1";"2014-10-07 11:00:10.096";"2014-10-07 11:13:57.740";"1";"1";"0";"142";"141";"module.training_block4.exec-6516.GoNoGo4";;;;;;;;;;;;;;;;;;;;;;;;;;;;;;;;;;;;;;;;;;;;;;;;;;;;;;;;;;;"1261";"2014-10-07 11:08:10.452";"NST_correctLoc";"16";"0";"FINISHED";"LEFT";"success";"474";"0";"2014-10-07 11:08:09.188";"2";;;;;;;;;;;;;;;;;;;;;
"C1329679";"1994";;"Windows 7";"Rachel's Experiment (D.T.)";"1.0";"2";"1";"1";"2";"1";"1";"2014-10-07 11:00:10.096";"2014-10-07 11:13:57.740";"1";"1";"0";"143";"142";"module.training_block4.exec-6516.GoNoGo4";;;;;;;;;;;;;;;;;;;;;;;;;;;;;;;;;;;;;;;;;;;;;;;;;;;;;;;;;;;"1261";"2014-10-07 11:08:13.010";"NST_correctLoc";"22";"1";"FINISHED";"RIGHT";"success";"475";"0";"2014-10-07 11:08:11.747";"3";;;;;;;;;;;;;;;;;;;;;
"C1329679";"1994";;"Windows 7";"Rachel's Experiment (D.T.)";"1.0";"2";"1";"1";"2";"1";"1";"2014-10-07 11:00:10.096";"2014-10-07 11:13:57.740";"1";"1";"0";"144";"143";"module.training_block4.exec-6516.GoNoGo4";;;;;;;;;;;;;;;;;;;;;;;;;;;;;;;;;;;;;;;;;;;;;;;;;;;;;;;;;;;"1261";"2014-10-07 11:08:15.553";"ST_correctStop";"6";"0";"FINISHED";"NONE";"success";"0";"1";"2014-10-07 11:08:14.289";"1";;;;;;;;;;;;;;;;;;;;;
"C1329679";"1994";;"Windows 7";"Rachel's Experiment (D.T.)";"1.0";"2";"1";"1";"2";"1";"1";"2014-10-07 11:00:10.096";"2014-10-07 11:13:57.740";"1";"1";"0";"145";"144";"module.training_block4.exec-6516.GoNoGo4";;;;;;;;;;;;;;;;;;;;;;;;;;;;;;;;;;;;;;;;;;;;;;;;;;;;;;;;;;;"1261";"2014-10-07 11:08:18.111";"ST_correctStop";"32";"0";"FINISHED";"NONE";"success";"0";"1";"2014-10-07 11:08:16.848";"3";;;;;;;;;;;;;;;;;;;;;
"C1329679";"1994";;"Windows 7";"Rachel's Experiment (D.T.)";"1.0";"2";"1";"1";"2";"1";"1";"2014-10-07 11:00:10.096";"2014-10-07 11:13:57.740";"1";"1";"0";"146";"145";"module.training_block4.exec-6516.GoNoGo4";;;;;;;;;;;;;;;;;;;;;;;;;;;;;;;;;;;;;;;;;;;;;;;;;;;;;;;;;;;"1261";"2014-10-07 11:08:20.654";"ST_correctStop";"5";"0";"FINISHED";"NONE";"success";"0";"1";"2014-10-07 11:08:19.391";"1";;;;;;;;;;;;;;;;;;;;;
"C1329679";"1994";;"Windows 7";"Rachel's Experiment (D.T.)";"1.0";"2";"1";"1";"2";"1";"1";"2014-10-07 11:00:10.096";"2014-10-07 11:13:57.740";"1";"1";"0";"147";"146";"module.training_block4.exec-6516.GoNoGo4";;;;;;;;;;;;;;;;;;;;;;;;;;;;;;;;;;;;;;;;;;;;;;;;;;;;;;;;;;;"1261";"2014-10-07 11:08:23.197";"ST_correctStop";"26";"0";"FINISHED";"NONE";"success";"0";"1";"2014-10-07 11:08:21.933";"3";;;;;;;;;;;;;;;;;;;;;
"C1329679";"1994";;"Windows 7";"Rachel's Experiment (D.T.)";"1.0";"2";"1";"1";"2";"1";"1";"2014-10-07 11:00:10.096";"2014-10-07 11:13:57.740";"1";"1";"0";"148";"147";"module.training_block4.exec-6516.GoNoGo4";;;;;;;;;;;;;;;;;;;;;;;;;;;;;;;;;;;;;;;;;;;;;;;;;;;;;;;;;;;"1261";"2014-10-07 11:08:25.740";"ST_correctStop";"7";"1";"FINISHED";"NONE";"success";"0";"1";"2014-10-07 11:08:24.476";"1";;;;;;;;;;;;;;;;;;;;;
"C1329679";"1994";;"Windows 7";"Rachel's Experiment (D.T.)";"1.0";"2";"1";"1";"2";"1";"1";"2014-10-07 11:00:10.096";"2014-10-07 11:13:57.740";"1";"1";"0";"149";"148";"module.training_block4.exec-6516.GoNoGo4";;;;;;;;;;;;;;;;;;;;;;;;;;;;;;;;;;;;;;;;;;;;;;;;;;;;;;;;;;;"1261";"2014-10-07 11:08:28.283";"ST_correctStop";"20";"0";"FINISHED";"NONE";"success";"0";"1";"2014-10-07 11:08:27.019";"3";;;;;;;;;;;;;;;;;;;;;
"C1329679";"1994";;"Windows 7";"Rachel's Experiment (D.T.)";"1.0";"2";"1";"1";"2";"1";"1";"2014-10-07 11:00:10.096";"2014-10-07 11:13:57.740";"1";"1";"0";"150";"149";"module.training_block4.exec-6516.GoNoGo4";;;;;;;;;;;;;;;;;;;;;;;;;;;;;;;;;;;;;;;;;;;;;;;;;;;;;;;;;;;"1261";"2014-10-07 11:08:30.826";"ST_correctStop";"3";"1";"FINISHED";"NONE";"success";"0";"1";"2014-10-07 11:08:29.562";"1";;;;;;;;;;;;;;;;;;;;;
"C1329679";"1994";;"Windows 7";"Rachel's Experiment (D.T.)";"1.0";"2";"1";"1";"2";"1";"1";"2014-10-07 11:00:10.096";"2014-10-07 11:13:57.740";"1";"1";"0";"151";"150";"module.training_block4.exec-6516.GoNoGo4";;;;;;;;;;;;;;;;;;;;;;;;;;;;;;;;;;;;;;;;;;;;;;;;;;;;;;;;;;;"1261";"2014-10-07 11:08:33.368";"NST_correctLoc";"10";"1";"FINISHED";"RIGHT";"success";"525";"0";"2014-10-07 11:08:32.105";"2";;;;;;;;;;;;;;;;;;;;;
"C1329679";"1994";;"Windows 7";"Rachel's Experiment (D.T.)";"1.0";"2";"1";"1";"2";"1";"1";"2014-10-07 11:00:10.096";"2014-10-07 11:13:57.740";"1";"1";"0";"152";"151";"module.training_block4.exec-6516.GoNoGo4";;;;;;;;;;;;;;;;;;;;;;;;;;;;;;;;;;;;;;;;;;;;;;;;;;;;;;;;;;;"1261";"2014-10-07 11:08:35.911";"ST_correctStop";"27";"0";"FINISHED";"NONE";"success";"0";"1";"2014-10-07 11:08:34.648";"3";;;;;;;;;;;;;;;;;;;;;
"C1329679";"1994";;"Windows 7";"Rachel's Experiment (D.T.)";"1.0";"2";"1";"1";"2";"1";"1";"2014-10-07 11:00:10.096";"2014-10-07 11:13:57.740";"1";"1";"0";"153";"152";"module.training_block4.exec-6516.GoNoGo4";;;;;;;;;;;;;;;;;;;;;;;;;;;;;;;;;;;;;;;;;;;;;;;;;;;;;;;;;;;"1261";"2014-10-07 11:08:38.454";"ST_correctStop";"2";"0";"FINISHED";"NONE";"success";"0";"1";"2014-10-07 11:08:37.190";"1";;;;;;;;;;;;;;;;;;;;;
"C1329679";"1994";;"Windows 7";"Rachel's Experiment (D.T.)";"1.0";"2";"1";"1";"2";"1";"1";"2014-10-07 11:00:10.096";"2014-10-07 11:13:57.740";"1";"1";"0";"154";"153";"module.training_block4.exec-6516.GoNoGo4";;;;;;;;;;;;;;;;;;;;;;;;;;;;;;;;;;;;;;;;;;;;;;;;;;;;;;;;;;;"1261";"2014-10-07 11:08:40.997";"NST_correctLoc";"31";"0";"FINISHED";"LEFT";"success";"768";"0";"2014-10-07 11:08:39.733";"3";;;;;;;;;;;;;;;;;;;;;
"C1329679";"1994";;"Windows 7";"Rachel's Experiment (D.T.)";"1.0";"2";"1";"1";"2";"1";"1";"2014-10-07 11:00:10.096";"2014-10-07 11:13:57.740";"1";"1";"0";"155";"154";"module.training_block4.exec-6516.GoNoGo4";;;;;;;;;;;;;;;;;;;;;;;;;;;;;;;;;;;;;;;;;;;;;;;;;;;;;;;;;;;"1261";"2014-10-07 11:08:43.540";"NST_correctLoc";"21";"1";"FINISHED";"RIGHT";"success";"474";"0";"2014-10-07 11:08:42.276";"3";;;;;;;;;;;;;;;;;;;;;
"C1329679";"1994";;"Windows 7";"Rachel's Experiment (D.T.)";"1.0";"2";"1";"1";"2";"1";"1";"2014-10-07 11:00:10.096";"2014-10-07 11:13:57.740";"1";"1";"0";"156";"155";"module.training_block4.exec-6516.GoNoGo4";;;;;;;;;;;;;;;;;;;;;;;;;;;;;;;;;;;;;;;;;;;;;;;;;;;;;;;;;;;"1261";"2014-10-07 11:08:46.082";"NST_correctLoc";"14";"0";"FINISHED";"LEFT";"success";"419";"0";"2014-10-07 11:08:44.819";"2";;;;;;;;;;;;;;;;;;;;;
"C1329679";"1994";;"Windows 7";"Rachel's Experiment (D.T.)";"1.0";"2";"1";"1";"2";"1";"1";"2014-10-07 11:00:10.096";"2014-10-07 11:13:57.740";"1";"1";"0";"157";"156";"module.training_block4.exec-6516.GoNoGo4";;;;;;;;;;;;;;;;;;;;;;;;;;;;;;;;;;;;;;;;;;;;;;;;;;;;;;;;;;;"1261";"2014-10-07 11:08:48.625";"NST_correctLoc";"15";"1";"FINISHED";"RIGHT";"success";"436";"0";"2014-10-07 11:08:47.362";"2";;;;;;;;;;;;;;;;;;;;;
"C1329679";"1994";;"Windows 7";"Rachel's Experiment (D.T.)";"1.0";"2";"1";"1";"2";"1";"1";"2014-10-07 11:00:10.096";"2014-10-07 11:13:57.740";"1";"1";"0";"158";"157";"module.training_block4.exec-6516.GoNoGo4";;;;;;;;;;;;;;;;;;;;;;;;;;;;;;;;;;;;;;;;;;;;;;;;;;;;;;;;;;;"1261";"2014-10-07 11:08:51.168";"ST_correctStop";"1";"1";"FINISHED";"NONE";"success";"0";"1";"2014-10-07 11:08:49.904";"1";;;;;;;;;;;;;;;;;;;;;
"C1329679";"1994";;"Windows 7";"Rachel's Experiment (D.T.)";"1.0";"2";"1";"1";"2";"1";"1";"2014-10-07 11:00:10.096";"2014-10-07 11:13:57.740";"1";"1";"0";"159";"158";"module.training_block4.exec-6516.GoNoGo4";;;;;;;;;;;;;;;;;;;;;;;;;;;;;;;;;;;;;;;;;;;;;;;;;;;;;;;;;;;"1261";"2014-10-07 11:08:53.711";"ST_correctStop";"33";"1";"FINISHED";"NONE";"success";"0";"1";"2014-10-07 11:08:52.447";"3";;;;;;;;;;;;;;;;;;;;;
"C1329679";"1994";;"Windows 7";"Rachel's Experiment (D.T.)";"1.0";"2";"1";"1";"2";"1";"1";"2014-10-07 11:00:10.096";"2014-10-07 11:13:57.740";"1";"1";"0";"160";"159";"module.devaluation_practice.exec-1374.devalPractice";;;;;;;;;;;;"14417";"2014-10-07 11:09:42.866";"0";"3";"1";"6";"4992";"2889";"3476";"2014-10-07 11:09:28.452";;;;;;;;;;;;;;;;;;;;;;;;;;;;;;;;;;;;;;;;;;;;;;;;;;;;;;;;;;;;;;;;;;;;;;
"C1329679";"1994";;"Windows 7";"Rachel's Experiment (D.T.)";"1.0";"2";"1";"1";"2";"1";"1";"2014-10-07 11:00:10.096";"2014-10-07 11:13:57.740";"1";"1";"0";"161";"160";"module.devaluation_practice.exec-1374.devalPractice";;;;;;;;;;;;"9554";"2014-10-07 11:09:52.445";"1";"3";"3";"8";"2734";"2066";"1723";"2014-10-07 11:09:42.898";;;;;;;;;;;;;;;;;;;;;;;;;;;;;;;;;;;;;;;;;;;;;;;;;;;;;;;;;;;;;;;;;;;;;;
"C1329679";"1994";;"Windows 7";"Rachel's Experiment (D.T.)";"1.0";"2";"1";"1";"2";"1";"1";"2014-10-07 11:00:10.096";"2014-10-07 11:13:57.740";"1";"1";"0";"162";"161";"module.devaluation_practice.exec-1374.devalPractice";;;;;;;;;;;;"8027";"2014-10-07 11:10:00.494";"2";"1";"1";"6";"1531";"1566";"1913";"2014-10-07 11:09:52.460";;;;;;;;;;;;;;;;;;;;;;;;;;;;;;;;;;;;;;;;;;;;;;;;;;;;;;;;;;;;;;;;;;;;;;
"C1329679";"1994";;"Windows 7";"Rachel's Experiment (D.T.)";"1.0";"2";"1";"1";"2";"1";"1";"2014-10-07 11:00:10.096";"2014-10-07 11:13:57.740";"1";"1";"0";"163";"162";"module.devaluation_practice.exec-1374.devalPractice";;;;;;;;;;;;"7770";"2014-10-07 11:10:08.294";"3";"5";"2";"9";"1146";"2112";"1486";"2014-10-07 11:10:00.526";;;;;;;;;;;;;;;;;;;;;;;;;;;;;;;;;;;;;;;;;;;;;;;;;;;;;;;;;;;;;;;;;;;;;;
"C1329679";"1994";;"Windows 7";"Rachel's Experiment (D.T.)";"1.0";"2";"1";"1";"2";"1";"1";"2014-10-07 11:00:10.096";"2014-10-07 11:13:57.740";"1";"1";"0";"164";"163";"module.devaluation_block1.exec-1732.deval1";"9081";"2014-10-07 11:10:24.191";"11";"9";"2";"1";"1975";"2229";"1839";"2014-10-07 11:10:15.112";"2";;;;;;;;;;;;;;;;;;;;;;;;;;;;;;;;;;;;;;;;;;;;;;;;;;;;;;;;;;;;;;;;;;;;;;;;;;;;;;;;
"C1329679";"1994";;"Windows 7";"Rachel's Experiment (D.T.)";"1.0";"2";"1";"1";"2";"1";"1";"2014-10-07 11:00:10.096";"2014-10-07 11:13:57.740";"1";"1";"0";"165";"164";"module.devaluation_block1.exec-1732.deval1";"7779";"2014-10-07 11:10:31.991";"6";"4";"3";"7";"1003";"1737";"2018";"2014-10-07 11:10:24.207";"1";;;;;;;;;;;;;;;;;;;;;;;;;;;;;;;;;;;;;;;;;;;;;;;;;;;;;;;;;;;;;;;;;;;;;;;;;;;;;;;;
"C1329679";"1994";;"Windows 7";"Rachel's Experiment (D.T.)";"1.0";"2";"1";"1";"2";"1";"1";"2014-10-07 11:00:10.096";"2014-10-07 11:13:57.740";"1";"1";"0";"166";"165";"module.devaluation_block1.exec-1732.deval1";"8890";"2014-10-07 11:10:40.899";"21";"2";"1";"9";"1537";"2240";"2101";"2014-10-07 11:10:32.007";"3";;;;;;;;;;;;;;;;;;;;;;;;;;;;;;;;;;;;;;;;;;;;;;;;;;;;;;;;;;;;;;;;;;;;;;;;;;;;;;;;
"C1329679";"1994";;"Windows 7";"Rachel's Experiment (D.T.)";"1.0";"2";"1";"1";"2";"1";"1";"2014-10-07 11:00:10.096";"2014-10-07 11:13:57.740";"1";"1";"0";"167";"166";"module.devaluation_block1.exec-1732.deval1";"8947";"2014-10-07 11:10:49.869";"15";"2";"2";"1";"1262";"2347";"2291";"2014-10-07 11:10:40.930";"2";;;;;;;;;;;;;;;;;;;;;;;;;;;;;;;;;;;;;;;;;;;;;;;;;;;;;;;;;;;;;;;;;;;;;;;;;;;;;;;;
"C1329679";"1994";;"Windows 7";"Rachel's Experiment (D.T.)";"1.0";"2";"1";"1";"2";"1";"1";"2014-10-07 11:00:10.096";"2014-10-07 11:13:57.740";"1";"1";"0";"168";"167";"module.devaluation_block1.exec-1732.deval1";"9795";"2014-10-07 11:10:59.681";"16";"1";"2";"1";"2763";"2554";"1455";"2014-10-07 11:10:49.884";"2";;;;;;;;;;;;;;;;;;;;;;;;;;;;;;;;;;;;;;;;;;;;;;;;;;;;;;;;;;;;;;;;;;;;;;;;;;;;;;;;
"C1329679";"1994";;"Windows 7";"Rachel's Experiment (D.T.)";"1.0";"2";"1";"1";"2";"1";"1";"2014-10-07 11:00:10.096";"2014-10-07 11:13:57.740";"1";"1";"0";"169";"168";"module.devaluation_block1.exec-1732.deval1";"6876";"2014-10-07 11:11:06.576";"5";"5";"4";"9";"1167";"963";"1698";"2014-10-07 11:10:59.712";"1";;;;;;;;;;;;;;;;;;;;;;;;;;;;;;;;;;;;;;;;;;;;;;;;;;;;;;;;;;;;;;;;;;;;;;;;;;;;;;;;
"C1329679";"1994";;"Windows 7";"Rachel's Experiment (D.T.)";"1.0";"2";"1";"1";"2";"1";"1";"2014-10-07 11:00:10.096";"2014-10-07 11:13:57.740";"1";"1";"0";"170";"169";"module.devaluation_block1.exec-1732.deval1";"7826";"2014-10-07 11:11:14.439";"24";"4";"2";"7";"1024";"1432";"2351";"2014-10-07 11:11:06.607";"3";;;;;;;;;;;;;;;;;;;;;;;;;;;;;;;;;;;;;;;;;;;;;;;;;;;;;;;;;;;;;;;;;;;;;;;;;;;;;;;;
"C1329679";"1994";;"Windows 7";"Rachel's Experiment (D.T.)";"1.0";"2";"1";"1";"2";"1";"1";"2014-10-07 11:00:10.096";"2014-10-07 11:13:57.740";"1";"1";"0";"171";"170";"module.devaluation_block1.exec-1732.deval1";"10979";"2014-10-07 11:11:25.437";"10";"9";"8";"9";"3409";"1777";"2765";"2014-10-07 11:11:14.454";"2";;;;;;;;;;;;;;;;;;;;;;;;;;;;;;;;;;;;;;;;;;;;;;;;;;;;;;;;;;;;;;;;;;;;;;;;;;;;;;;;
"C1329679";"1994";;"Windows 7";"Rachel's Experiment (D.T.)";"1.0";"2";"1";"1";"2";"1";"1";"2014-10-07 11:00:10.096";"2014-10-07 11:13:57.740";"1";"1";"0";"172";"171";"module.devaluation_block1.exec-1732.deval1";"9291";"2014-10-07 11:11:34.750";"17";"3";"4";"5";"1243";"2946";"2072";"2014-10-07 11:11:25.452";"2";;;;;;;;;;;;;;;;;;;;;;;;;;;;;;;;;;;;;;;;;;;;;;;;;;;;;;;;;;;;;;;;;;;;;;;;;;;;;;;;
"C1329679";"1994";;"Windows 7";"Rachel's Experiment (D.T.)";"1.0";"2";"1";"1";"2";"1";"1";"2014-10-07 11:00:10.096";"2014-10-07 11:13:57.740";"1";"1";"0";"173";"172";"module.devaluation_block1.exec-1732.deval1";"6779";"2014-10-07 11:11:41.551";"2";"3";"5";"9";"1034";"1276";"1434";"2014-10-07 11:11:34.781";"1";;;;;;;;;;;;;;;;;;;;;;;;;;;;;;;;;;;;;;;;;;;;;;;;;;;;;;;;;;;;;;;;;;;;;;;;;;;;;;;;
"C1329679";"1994";;"Windows 7";"Rachel's Experiment (D.T.)";"1.0";"2";"1";"1";"2";"1";"1";"2014-10-07 11:00:10.096";"2014-10-07 11:13:57.740";"1";"1";"0";"174";"173";"module.devaluation_block1.exec-1732.deval1";"7635";"2014-10-07 11:11:49.211";"9";"7";"6";"8";"1265";"1491";"1846";"2014-10-07 11:11:41.583";"2";;;;;;;;;;;;;;;;;;;;;;;;;;;;;;;;;;;;;;;;;;;;;;;;;;;;;;;;;;;;;;;;;;;;;;;;;;;;;;;;
"C1329679";"1994";;"Windows 7";"Rachel's Experiment (D.T.)";"1.0";"2";"1";"1";"2";"1";"1";"2014-10-07 11:00:10.096";"2014-10-07 11:13:57.740";"1";"1";"0";"175";"174";"module.devaluation_block1.exec-1732.deval1";"9458";"2014-10-07 11:11:58.696";"19";"7";"6";"9";"1653";"2422";"2340";"2014-10-07 11:11:49.242";"3";;;;;;;;;;;;;;;;;;;;;;;;;;;;;;;;;;;;;;;;;;;;;;;;;;;;;;;;;;;;;;;;;;;;;;;;;;;;;;;;
"C1329679";"1994";;"Windows 7";"Rachel's Experiment (D.T.)";"1.0";"2";"1";"1";"2";"1";"1";"2014-10-07 11:00:10.096";"2014-10-07 11:13:57.740";"1";"1";"0";"176";"175";"module.devaluation_block1.exec-1732.deval1";"7074";"2014-10-07 11:12:05.794";"8";"9";"3";"5";"1272";"1952";"837";"2014-10-07 11:11:58.711";"1";;;;;;;;;;;;;;;;;;;;;;;;;;;;;;;;;;;;;;;;;;;;;;;;;;;;;;;;;;;;;;;;;;;;;;;;;;;;;;;;
"C1329679";"1994";;"Windows 7";"Rachel's Experiment (D.T.)";"1.0";"2";"1";"1";"2";"1";"1";"2014-10-07 11:00:10.096";"2014-10-07 11:13:57.740";"1";"1";"0";"177";"176";"module.devaluation_block1.exec-1732.deval1";"7460";"2014-10-07 11:12:13.266";"1";"3";"2";"9";"1534";"1538";"1354";"2014-10-07 11:12:05.809";"1";;;;;;;;;;;;;;;;;;;;;;;;;;;;;;;;;;;;;;;;;;;;;;;;;;;;;;;;;;;;;;;;;;;;;;;;;;;;;;;;
"C1329679";"1994";;"Windows 7";"Rachel's Experiment (D.T.)";"1.0";"2";"1";"1";"2";"1";"1";"2014-10-07 11:00:10.096";"2014-10-07 11:13:57.740";"1";"1";"0";"178";"177";"module.devaluation_block1.exec-1732.deval1";"7938";"2014-10-07 11:12:21.238";"20";"7";"3";"9";"1022";"1916";"1973";"2014-10-07 11:12:13.298";"3";;;;;;;;;;;;;;;;;;;;;;;;;;;;;;;;;;;;;;;;;;;;;;;;;;;;;;;;;;;;;;;;;;;;;;;;;;;;;;;;
"C1329679";"1994";;"Windows 7";"Rachel's Experiment (D.T.)";"1.0";"2";"1";"1";"2";"1";"1";"2014-10-07 11:00:10.096";"2014-10-07 11:13:57.740";"1";"1";"0";"179";"178";"module.devaluation_block1.exec-1732.deval1";"8909";"2014-10-07 11:12:30.161";"4";"7";"3";"9";"1042";"2662";"2185";"2014-10-07 11:12:21.254";"1";;;;;;;;;;;;;;;;;;;;;;;;;;;;;;;;;;;;;;;;;;;;;;;;;;;;;;;;;;;;;;;;;;;;;;;;;;;;;;;;
"C1329679";"1994";;"Windows 7";"Rachel's Experiment (D.T.)";"1.0";"2";"1";"1";"2";"1";"1";"2014-10-07 11:00:10.096";"2014-10-07 11:13:57.740";"1";"1";"0";"180";"179";"module.devaluation_block1.exec-1732.deval1";"9331";"2014-10-07 11:12:39.521";"7";"4";"1";"5";"1503";"2327";"2466";"2014-10-07 11:12:30.192";"1";;;;;;;;;;;;;;;;;;;;;;;;;;;;;;;;;;;;;;;;;;;;;;;;;;;;;;;;;;;;;;;;;;;;;;;;;;;;;;;;
"C1329679";"1994";;"Windows 7";"Rachel's Experiment (D.T.)";"1.0";"2";"1";"1";"2";"1";"1";"2014-10-07 11:00:10.096";"2014-10-07 11:13:57.740";"1";"1";"0";"181";"180";"module.devaluation_block1.exec-1732.deval1";"7282";"2014-10-07 11:12:46.822";"18";"3";"1";"9";"1046";"1940";"1270";"2014-10-07 11:12:39.537";"3";;;;;;;;;;;;;;;;;;;;;;;;;;;;;;;;;;;;;;;;;;;;;;;;;;;;;;;;;;;;;;;;;;;;;;;;;;;;;;;;
"C1329679";"1994";;"Windows 7";"Rachel's Experiment (D.T.)";"1.0";"2";"1";"1";"2";"1";"1";"2014-10-07 11:00:10.096";"2014-10-07 11:13:57.740";"1";"1";"0";"182";"181";"module.devaluation_block1.exec-1732.deval1";"7875";"2014-10-07 11:12:54.716";"3";"3";"3";"9";"1137";"1880";"1828";"2014-10-07 11:12:46.838";"1";;;;;;;;;;;;;;;;;;;;;;;;;;;;;;;;;;;;;;;;;;;;;;;;;;;;;;;;;;;;;;;;;;;;;;;;;;;;;;;;
"C1329679";"1994";;"Windows 7";"Rachel's Experiment (D.T.)";"1.0";"2";"1";"1";"2";"1";"1";"2014-10-07 11:00:10.096";"2014-10-07 11:13:57.740";"1";"1";"0";"183";"182";"module.devaluation_block1.exec-1732.deval1";"7979";"2014-10-07 11:13:02.718";"25";"4";"1";"7";"732";"1315";"2900";"2014-10-07 11:12:54.731";"3";;;;;;;;;;;;;;;;;;;;;;;;;;;;;;;;;;;;;;;;;;;;;;;;;;;;;;;;;;;;;;;;;;;;;;;;;;;;;;;;
"C1329679";"1994";;"Windows 7";"Rachel's Experiment (D.T.)";"1.0";"2";"1";"1";"2";"1";"1";"2014-10-07 11:00:10.096";"2014-10-07 11:13:57.740";"1";"1";"0";"184";"183";"module.devaluation_block1.exec-1732.deval1";"6411";"2014-10-07 11:13:09.146";"0";"3";"6";"9";"1561";"661";"1158";"2014-10-07 11:13:02.734";"1";;;;;;;;;;;;;;;;;;;;;;;;;;;;;;;;;;;;;;;;;;;;;;;;;;;;;;;;;;;;;;;;;;;;;;;;;;;;;;;;
"C1329679";"1994";;"Windows 7";"Rachel's Experiment (D.T.)";"1.0";"2";"1";"1";"2";"1";"1";"2014-10-07 11:00:10.096";"2014-10-07 11:13:57.740";"1";"1";"0";"185";"184";"module.devaluation_block1.exec-1732.deval1";"7275";"2014-10-07 11:13:16.446";"22";"7";"1";"6";"1790";"1409";"1057";"2014-10-07 11:13:09.177";"3";;;;;;;;;;;;;;;;;;;;;;;;;;;;;;;;;;;;;;;;;;;;;;;;;;;;;;;;;;;;;;;;;;;;;;;;;;;;;;;;
"C1329679";"1994";;"Windows 7";"Rachel's Experiment (D.T.)";"1.0";"2";"1";"1";"2";"1";"1";"2014-10-07 11:00:10.096";"2014-10-07 11:13:57.740";"1";"1";"0";"186";"185";"module.devaluation_block1.exec-1732.deval1";"10010";"2014-10-07 11:13:26.477";"23";"9";"1";"1";"1441";"1582";"3971";"2014-10-07 11:13:16.462";"3";;;;;;;;;;;;;;;;;;;;;;;;;;;;;;;;;;;;;;;;;;;;;;;;;;;;;;;;;;;;;;;;;;;;;;;;;;;;;;;;
"C1329679";"1994";;"Windows 7";"Rachel's Experiment (D.T.)";"1.0";"2";"1";"1";"2";"1";"1";"2014-10-07 11:00:10.096";"2014-10-07 11:13:57.740";"1";"1";"0";"187";"186";"module.devaluation_block1.exec-1732.deval1";"7226";"2014-10-07 11:13:33.731";"14";"7";"1";"5";"1066";"1498";"1642";"2014-10-07 11:13:26.493";"2";;;;;;;;;;;;;;;;;;;;;;;;;;;;;;;;;;;;;;;;;;;;;;;;;;;;;;;;;;;;;;;;;;;;;;;;;;;;;;;;
"C1329679";"1994";;"Windows 7";"Rachel's Experiment (D.T.)";"1.0";"2";"1";"1";"2";"1";"1";"2014-10-07 11:00:10.096";"2014-10-07 11:13:57.740";"1";"1";"0";"188";"187";"module.devaluation_block1.exec-1732.deval1";"6457";"2014-10-07 11:13:40.236";"12";"6";"9";"9";"741";"1527";"1165";"2014-10-07 11:13:33.778";"2";;;;;;;;;;;;;;;;;;;;;;;;;;;;;;;;;;;;;;;;;;;;;;;;;;;;;;;;;;;;;;;;;;;;;;;;;;;;;;;;
"C1329679";"1994";;"Windows 7";"Rachel's Experiment (D.T.)";"1.0";"2";"1";"1";"2";"1";"1";"2014-10-07 11:00:10.096";"2014-10-07 11:13:57.740";"1";"1";"0";"189";"188";"module.devaluation_block1.exec-1732.deval1";"7429";"2014-10-07 11:13:47.678";"26";"8";"6";"6";"1163";"2377";"861";"2014-10-07 11:13:40.252";"3";;;;;;;;;;;;;;;;;;;;;;;;;;;;;;;;;;;;;;;;;;;;;;;;;;;;;;;;;;;;;;;;;;;;;;;;;;;;;;;;
"C1329679";"1994";;"Windows 7";"Rachel's Experiment (D.T.)";"1.0";"2";"1";"1";"2";"1";"1";"2014-10-07 11:00:10.096";"2014-10-07 11:13:57.740";"1";"1";"0";"190";"189";"module.devaluation_block1.exec-1732.deval1";"7035";"2014-10-07 11:13:54.729";"13";"4";"3";"7";"729";"1055";"2238";"2014-10-07 11:13:47.693";"2";;;;;;;;;;;;;;;;;;;;;;;;;;;;;;;;;;;;;;;;;;;;;;;;;;;;;;;;;;;;;;;;;;;;;;;;;;;;;;;;
