"user.name";"user.yearOfBirth";"user.sex";"user.osName";"module.name";"module.version";"module.online.subject.code";"module.online.study.id";"module.online.module.nr";"module.online.group.nr";"session.id";"session.index";"session.startTime";"session.endTime";"session.completed";"session.node-3456.conditionType";"session.node-6795.DevalQorder";"trial.id";"trial.index";"trial.name";"trial.deval1.durationTime";"trial.deval1.endTime";"trial.deval1.icon";"trial.deval1.Resp_Attractive";"trial.deval1.Resp_Eat";"trial.deval1.Resp_Taste";"trial.deval1.RT_Attractive";"trial.deval1.RT_Eat";"trial.deval1.RT_Taste";"trial.deval1.startTime";"trial.deval1.stimulus type";"trial.devalPractice.durationTime";"trial.devalPractice.endTime";"trial.devalPractice.icon";"trial.devalPractice.Resp_Attractive";"trial.devalPractice.Resp_Eat";"trial.devalPractice.Resp_Taste";"trial.devalPractice.RT_Attractive";"trial.devalPractice.RT_Eat";"trial.devalPractice.RT_Taste";"trial.devalPractice.startTime";"trial.devalPractice.stimulus type";"trial.GoNoGo1.durationTime";"trial.GoNoGo1.endTime";"trial.GoNoGo1.Error Type";"trial.GoNoGo1.icon";"trial.GoNoGo1.location";"trial.GoNoGo1.outcome";"trial.GoNoGo1.response";"trial.GoNoGo1.result";"trial.GoNoGo1.RT";"trial.GoNoGo1.signal";"trial.GoNoGo1.startTime";"trial.GoNoGo1.stimulus type";"trial.GoNoGo2.durationTime";"trial.GoNoGo2.endTime";"trial.GoNoGo2.Error Type";"trial.GoNoGo2.icon";"trial.GoNoGo2.location";"trial.GoNoGo2.outcome";"trial.GoNoGo2.response";"trial.GoNoGo2.result";"trial.GoNoGo2.RT";"trial.GoNoGo2.signal";"trial.GoNoGo2.startTime";"trial.GoNoGo2.stimulus type";"trial.GoNoGo3.durationTime";"trial.GoNoGo3.endTime";"trial.GoNoGo3.Error Type";"trial.GoNoGo3.icon";"trial.GoNoGo3.location";"trial.GoNoGo3.outcome";"trial.GoNoGo3.response";"trial.GoNoGo3.result";"trial.GoNoGo3.RT";"trial.GoNoGo3.signal";"trial.GoNoGo3.startTime";"trial.GoNoGo3.stimulus type";"trial.GoNoGo4.durationTime";"trial.GoNoGo4.endTime";"trial.GoNoGo4.Error Type";"trial.GoNoGo4.icon";"trial.GoNoGo4.location";"trial.GoNoGo4.outcome";"trial.GoNoGo4.response";"trial.GoNoGo4.result";"trial.GoNoGo4.RT";"trial.GoNoGo4.signal";"trial.GoNoGo4.startTime";"trial.GoNoGo4.stimulus type";"trial.GoNoGo_Practice.durationTime";"trial.GoNoGo_Practice.endTime";"trial.GoNoGo_Practice.icon";"trial.GoNoGo_Practice.location";"trial.GoNoGo_Practice.outcome";"trial.GoNoGo_Practice.response";"trial.GoNoGo_Practice.result";"trial.GoNoGo_Practice.RT";"trial.GoNoGo_Practice.signal";"trial.GoNoGo_Practice.startTime";"trial.GoNoGo_Practice.stimulus type";"trial.GoNoGo_Tutorial.durationTime";"trial.GoNoGo_Tutorial.endTime";"trial.GoNoGo_Tutorial.icon";"trial.GoNoGo_Tutorial.location";"trial.GoNoGo_Tutorial.outcome";"trial.GoNoGo_Tutorial.response";"trial.GoNoGo_Tutorial.result";"trial.GoNoGo_Tutorial.RT";"trial.GoNoGo_Tutorial.signal";"trial.GoNoGo_Tutorial.startTime"
"174383";;;"Windows 7";"Rachel's Experiment (D.T.)";"1.0";"2";"1";"1";"2";"1";"1";"2014-09-26 14:27:33.141";"2014-09-26 14:42:32.204";"1";"0";"0";"1";"0";"module.GoNoGotutorial.exec-6366.GoNoGo_Tutorial";;;;;;;;;;;;;;;;;;;;;;;;;;;;;;;;;;;;;;;;;;;;;;;;;;;;;;;;;;;;;;;;;;;;;;;;;;;;;;;;;;"3999";"2014-09-26 14:28:38.284";"leftResponse";"0";"FINISHED";"LEFT";"success";"614";"0";"2014-09-26 14:28:34.284"
"174383";;;"Windows 7";"Rachel's Experiment (D.T.)";"1.0";"2";"1";"1";"2";"1";"1";"2014-09-26 14:27:33.141";"2014-09-26 14:42:32.204";"1";"0";"0";"2";"1";"module.GoNoGotutorial.exec-6366.GoNoGo_Tutorial";;;;;;;;;;;;;;;;;;;;;;;;;;;;;;;;;;;;;;;;;;;;;;;;;;;;;;;;;;;;;;;;;;;;;;;;;;;;;;;;;;"3999";"2014-09-26 14:28:43.571";"rightResponse";"1";"FINISHED";"RIGHT";"success";"383";"0";"2014-09-26 14:28:39.571"
"174383";;;"Windows 7";"Rachel's Experiment (D.T.)";"1.0";"2";"1";"1";"2";"1";"1";"2014-09-26 14:27:33.141";"2014-09-26 14:42:32.204";"1";"0";"0";"3";"2";"module.GoNoGotutorial.exec-6366.GoNoGo_Tutorial";;;;;;;;;;;;;;;;;;;;;;;;;;;;;;;;;;;;;;;;;;;;;;;;;;;;;;;;;;;;;;;;;;;;;;;;;;;;;;;;;;"3999";"2014-09-26 14:28:48.856";"quickResponse";"0";"FINISHED";"LEFT";"success";"428";"0";"2014-09-26 14:28:44.856"
"174383";;;"Windows 7";"Rachel's Experiment (D.T.)";"1.0";"2";"1";"1";"2";"1";"1";"2014-09-26 14:27:33.141";"2014-09-26 14:42:32.204";"1";"0";"0";"4";"3";"module.GoNoGopractice.exec-9127.GoNoGo_Practice";;;;;;;;;;;;;;;;;;;;;;;;;;;;;;;;;;;;;;;;;;;;;;;;;;;;;;;;;;;;;;;;;;;;;;;"1955";"2014-09-26 14:28:58.928";"18";"0";"FINISHED";"LEFT";"success";"284";"0";"2014-09-26 14:28:56.973";"3";;;;;;;;;;
"174383";;;"Windows 7";"Rachel's Experiment (D.T.)";"1.0";"2";"1";"1";"2";"1";"1";"2014-09-26 14:27:33.141";"2014-09-26 14:42:32.204";"1";"0";"0";"5";"4";"module.GoNoGopractice.exec-9127.GoNoGo_Practice";;;;;;;;;;;;;;;;;;;;;;;;;;;;;;;;;;;;;;;;;;;;;;;;;;;;;;;;;;;;;;;;;;;;;;;"1950";"2014-09-26 14:29:02.162";"21";"1";"FINISHED";"RIGHT";"success";"281";"0";"2014-09-26 14:29:00.210";"3";;;;;;;;;;
"174383";;;"Windows 7";"Rachel's Experiment (D.T.)";"1.0";"2";"1";"1";"2";"1";"1";"2014-09-26 14:27:33.141";"2014-09-26 14:42:32.204";"1";"0";"0";"6";"5";"module.GoNoGopractice.exec-9127.GoNoGo_Practice";;;;;;;;;;;;;;;;;;;;;;;;;;;;;;;;;;;;;;;;;;;;;;;;;;;;;;;;;;;;;;;;;;;;;;;"1952";"2014-09-26 14:29:05.396";"14";"1";"FINISHED";"LEFT";"failure";"406";"0";"2014-09-26 14:29:03.443";"2";;;;;;;;;;
"174383";;;"Windows 7";"Rachel's Experiment (D.T.)";"1.0";"2";"1";"1";"2";"1";"1";"2014-09-26 14:27:33.141";"2014-09-26 14:42:32.204";"1";"0";"0";"7";"6";"module.GoNoGopractice.exec-9127.GoNoGo_Practice";;;;;;;;;;;;;;;;;;;;;;;;;;;;;;;;;;;;;;;;;;;;;;;;;;;;;;;;;;;;;;;;;;;;;;;"1950";"2014-09-26 14:29:08.628";"26";"0";"FINISHED";"LEFT";"success";"429";"0";"2014-09-26 14:29:06.677";"3";;;;;;;;;;
"174383";;;"Windows 7";"Rachel's Experiment (D.T.)";"1.0";"2";"1";"1";"2";"1";"1";"2014-09-26 14:27:33.141";"2014-09-26 14:42:32.204";"1";"0";"0";"8";"7";"module.GoNoGopractice.exec-9127.GoNoGo_Practice";;;;;;;;;;;;;;;;;;;;;;;;;;;;;;;;;;;;;;;;;;;;;;;;;;;;;;;;;;;;;;;;;;;;;;;"1950";"2014-09-26 14:29:11.867";"2";"0";"FINISHED";"LEFT";"success";"577";"0";"2014-09-26 14:29:09.916";"1";;;;;;;;;;
"174383";;;"Windows 7";"Rachel's Experiment (D.T.)";"1.0";"2";"1";"1";"2";"1";"1";"2014-09-26 14:27:33.141";"2014-09-26 14:42:32.204";"1";"0";"0";"9";"8";"module.GoNoGopractice.exec-9127.GoNoGo_Practice";;;;;;;;;;;;;;;;;;;;;;;;;;;;;;;;;;;;;;;;;;;;;;;;;;;;;;;;;;;;;;;;;;;;;;;"1951";"2014-09-26 14:29:15.099";"30";"0";"FINISHED";"LEFT";"success";"442";"0";"2014-09-26 14:29:13.148";"3";;;;;;;;;;
"174383";;;"Windows 7";"Rachel's Experiment (D.T.)";"1.0";"2";"1";"1";"2";"1";"1";"2014-09-26 14:27:33.141";"2014-09-26 14:42:32.204";"1";"0";"0";"10";"9";"module.GoNoGopractice.exec-9127.GoNoGo_Practice";;;;;;;;;;;;;;;;;;;;;;;;;;;;;;;;;;;;;;;;;;;;;;;;;;;;;;;;;;;;;;;;;;;;;;;"1950";"2014-09-26 14:29:18.330";"6";"1";"FINISHED";"RIGHT";"success";"410";"0";"2014-09-26 14:29:16.378";"1";;;;;;;;;;
"174383";;;"Windows 7";"Rachel's Experiment (D.T.)";"1.0";"2";"1";"1";"2";"1";"1";"2014-09-26 14:27:33.141";"2014-09-26 14:42:32.204";"1";"0";"0";"11";"10";"module.GoNoGopractice.exec-9127.GoNoGo_Practice";;;;;;;;;;;;;;;;;;;;;;;;;;;;;;;;;;;;;;;;;;;;;;;;;;;;;;;;;;;;;;;;;;;;;;;"1950";"2014-09-26 14:29:21.559";"34";"0";"FINISHED";"LEFT";"success";"407";"0";"2014-09-26 14:29:19.608";"3";;;;;;;;;;
"174383";;;"Windows 7";"Rachel's Experiment (D.T.)";"1.0";"2";"1";"1";"2";"1";"1";"2014-09-26 14:27:33.141";"2014-09-26 14:42:32.204";"1";"0";"0";"12";"11";"module.GoNoGopractice.exec-9127.GoNoGo_Practice";;;;;;;;;;;;;;;;;;;;;;;;;;;;;;;;;;;;;;;;;;;;;;;;;;;;;;;;;;;;;;;;;;;;;;;"1950";"2014-09-26 14:29:24.789";"23";"1";"FINISHED";"RIGHT";"success";"315";"0";"2014-09-26 14:29:22.837";"3";;;;;;;;;;
"174383";;;"Windows 7";"Rachel's Experiment (D.T.)";"1.0";"2";"1";"1";"2";"1";"1";"2014-09-26 14:27:33.141";"2014-09-26 14:42:32.204";"1";"0";"0";"13";"12";"module.GoNoGopractice.exec-9127.GoNoGo_Practice";;;;;;;;;;;;;;;;;;;;;;;;;;;;;;;;;;;;;;;;;;;;;;;;;;;;;;;;;;;;;;;;;;;;;;;"1950";"2014-09-26 14:29:28.018";"13";"0";"FINISHED";"LEFT";"success";"263";"0";"2014-09-26 14:29:26.067";"2";;;;;;;;;;
"174383";;;"Windows 7";"Rachel's Experiment (D.T.)";"1.0";"2";"1";"1";"2";"1";"1";"2014-09-26 14:27:33.141";"2014-09-26 14:42:32.204";"1";"0";"0";"14";"13";"module.GoNoGopractice.exec-9127.GoNoGo_Practice";;;;;;;;;;;;;;;;;;;;;;;;;;;;;;;;;;;;;;;;;;;;;;;;;;;;;;;;;;;;;;;;;;;;;;;"1950";"2014-09-26 14:29:31.248";"3";"1";"FINISHED";"RIGHT";"success";"288";"0";"2014-09-26 14:29:29.296";"1";;;;;;;;;;
"174383";;;"Windows 7";"Rachel's Experiment (D.T.)";"1.0";"2";"1";"1";"2";"1";"1";"2014-09-26 14:27:33.141";"2014-09-26 14:42:32.204";"1";"0";"0";"15";"14";"module.GoNoGopractice.exec-9127.GoNoGo_Practice";;;;;;;;;;;;;;;;;;;;;;;;;;;;;;;;;;;;;;;;;;;;;;;;;;;;;;;;;;;;;;;;;;;;;;;"1951";"2014-09-26 14:29:34.478";"27";"1";"FINISHED";"RIGHT";"success";"398";"0";"2014-09-26 14:29:32.527";"3";;;;;;;;;;
"174383";;;"Windows 7";"Rachel's Experiment (D.T.)";"1.0";"2";"1";"1";"2";"1";"1";"2014-09-26 14:27:33.141";"2014-09-26 14:42:32.204";"1";"0";"0";"16";"15";"module.training_block1.exec-9708.GoNoGo1";;;;;;;;;;;;;;;;;;;;;;;"1249";"2014-09-26 14:29:48.773";"NST_correctLoc";"3";"0";"FINISHED";"LEFT";"success";"353";"0";"2014-09-26 14:29:47.523";"1";;;;;;;;;;;;;;;;;;;;;;;;;;;;;;;;;;;;;;;;;;;;;;;;;;;;;;;;;
"174383";;;"Windows 7";"Rachel's Experiment (D.T.)";"1.0";"2";"1";"1";"2";"1";"1";"2014-09-26 14:27:33.141";"2014-09-26 14:42:32.204";"1";"0";"0";"17";"16";"module.training_block1.exec-9708.GoNoGo1";;;;;;;;;;;;;;;;;;;;;;;"1249";"2014-09-26 14:29:51.303";"NST_correctLoc";"7";"0";"FINISHED";"LEFT";"success";"356";"0";"2014-09-26 14:29:50.053";"1";;;;;;;;;;;;;;;;;;;;;;;;;;;;;;;;;;;;;;;;;;;;;;;;;;;;;;;;;
"174383";;;"Windows 7";"Rachel's Experiment (D.T.)";"1.0";"2";"1";"1";"2";"1";"1";"2014-09-26 14:27:33.141";"2014-09-26 14:42:32.204";"1";"0";"0";"18";"17";"module.training_block1.exec-9708.GoNoGo1";;;;;;;;;;;;;;;;;;;;;;;"1249";"2014-09-26 14:29:53.828";"NST_correctLoc";"14";"1";"FINISHED";"RIGHT";"success";"265";"0";"2014-09-26 14:29:52.578";"2";;;;;;;;;;;;;;;;;;;;;;;;;;;;;;;;;;;;;;;;;;;;;;;;;;;;;;;;;
"174383";;;"Windows 7";"Rachel's Experiment (D.T.)";"1.0";"2";"1";"1";"2";"1";"1";"2014-09-26 14:27:33.141";"2014-09-26 14:42:32.204";"1";"0";"0";"19";"18";"module.training_block1.exec-9708.GoNoGo1";;;;;;;;;;;;;;;;;;;;;;;"1249";"2014-09-26 14:29:56.356";"NST_correctLoc";"22";"0";"FINISHED";"LEFT";"success";"379";"0";"2014-09-26 14:29:55.106";"3";;;;;;;;;;;;;;;;;;;;;;;;;;;;;;;;;;;;;;;;;;;;;;;;;;;;;;;;;
"174383";;;"Windows 7";"Rachel's Experiment (D.T.)";"1.0";"2";"1";"1";"2";"1";"1";"2014-09-26 14:27:33.141";"2014-09-26 14:42:32.204";"1";"0";"0";"20";"19";"module.training_block1.exec-9708.GoNoGo1";;;;;;;;;;;;;;;;;;;;;;;"1249";"2014-09-26 14:29:58.883";"NST_correctLoc";"4";"0";"FINISHED";"LEFT";"success";"412";"0";"2014-09-26 14:29:57.633";"1";;;;;;;;;;;;;;;;;;;;;;;;;;;;;;;;;;;;;;;;;;;;;;;;;;;;;;;;;
"174383";;;"Windows 7";"Rachel's Experiment (D.T.)";"1.0";"2";"1";"1";"2";"1";"1";"2014-09-26 14:27:33.141";"2014-09-26 14:42:32.204";"1";"0";"0";"21";"20";"module.training_block1.exec-9708.GoNoGo1";;;;;;;;;;;;;;;;;;;;;;;"1249";"2014-09-26 14:30:01.407";"NST_correctLoc";"23";"0";"FINISHED";"LEFT";"success";"296";"0";"2014-09-26 14:30:00.157";"3";;;;;;;;;;;;;;;;;;;;;;;;;;;;;;;;;;;;;;;;;;;;;;;;;;;;;;;;;
"174383";;;"Windows 7";"Rachel's Experiment (D.T.)";"1.0";"2";"1";"1";"2";"1";"1";"2014-09-26 14:27:33.141";"2014-09-26 14:42:32.204";"1";"0";"0";"22";"21";"module.training_block1.exec-9708.GoNoGo1";;;;;;;;;;;;;;;;;;;;;;;"1250";"2014-09-26 14:30:03.936";"NST_correctLoc";"16";"1";"FINISHED";"RIGHT";"success";"294";"0";"2014-09-26 14:30:02.686";"2";;;;;;;;;;;;;;;;;;;;;;;;;;;;;;;;;;;;;;;;;;;;;;;;;;;;;;;;;
"174383";;;"Windows 7";"Rachel's Experiment (D.T.)";"1.0";"2";"1";"1";"2";"1";"1";"2014-09-26 14:27:33.141";"2014-09-26 14:42:32.204";"1";"0";"0";"23";"22";"module.training_block1.exec-9708.GoNoGo1";;;;;;;;;;;;;;;;;;;;;;;"1249";"2014-09-26 14:30:06.505";"NST_correctLoc";"25";"1";"FINISHED";"RIGHT";"success";"338";"0";"2014-09-26 14:30:05.255";"3";;;;;;;;;;;;;;;;;;;;;;;;;;;;;;;;;;;;;;;;;;;;;;;;;;;;;;;;;
"174383";;;"Windows 7";"Rachel's Experiment (D.T.)";"1.0";"2";"1";"1";"2";"1";"1";"2014-09-26 14:27:33.141";"2014-09-26 14:42:32.204";"1";"0";"0";"24";"23";"module.training_block1.exec-9708.GoNoGo1";;;;;;;;;;;;;;;;;;;;;;;"1249";"2014-09-26 14:30:09.033";"NST_correctLoc";"32";"1";"FINISHED";"RIGHT";"success";"357";"0";"2014-09-26 14:30:07.783";"3";;;;;;;;;;;;;;;;;;;;;;;;;;;;;;;;;;;;;;;;;;;;;;;;;;;;;;;;;
"174383";;;"Windows 7";"Rachel's Experiment (D.T.)";"1.0";"2";"1";"1";"2";"1";"1";"2014-09-26 14:27:33.141";"2014-09-26 14:42:32.204";"1";"0";"0";"25";"24";"module.training_block1.exec-9708.GoNoGo1";;;;;;;;;;;;;;;;;;;;;;;"1249";"2014-09-26 14:30:11.559";"NST_correctLoc";"1";"1";"FINISHED";"RIGHT";"success";"338";"0";"2014-09-26 14:30:10.309";"1";;;;;;;;;;;;;;;;;;;;;;;;;;;;;;;;;;;;;;;;;;;;;;;;;;;;;;;;;
"174383";;;"Windows 7";"Rachel's Experiment (D.T.)";"1.0";"2";"1";"1";"2";"1";"1";"2014-09-26 14:27:33.141";"2014-09-26 14:42:32.204";"1";"0";"0";"26";"25";"module.training_block1.exec-9708.GoNoGo1";;;;;;;;;;;;;;;;;;;;;;;"1249";"2014-09-26 14:30:14.086";"NST_correctLoc";"31";"1";"FINISHED";"RIGHT";"success";"352";"0";"2014-09-26 14:30:12.836";"3";;;;;;;;;;;;;;;;;;;;;;;;;;;;;;;;;;;;;;;;;;;;;;;;;;;;;;;;;
"174383";;;"Windows 7";"Rachel's Experiment (D.T.)";"1.0";"2";"1";"1";"2";"1";"1";"2014-09-26 14:27:33.141";"2014-09-26 14:42:32.204";"1";"0";"0";"27";"26";"module.training_block1.exec-9708.GoNoGo1";;;;;;;;;;;;;;;;;;;;;;;"1249";"2014-09-26 14:30:16.612";"NST_correctLoc";"29";"1";"FINISHED";"RIGHT";"success";"359";"0";"2014-09-26 14:30:15.362";"3";;;;;;;;;;;;;;;;;;;;;;;;;;;;;;;;;;;;;;;;;;;;;;;;;;;;;;;;;
"174383";;;"Windows 7";"Rachel's Experiment (D.T.)";"1.0";"2";"1";"1";"2";"1";"1";"2014-09-26 14:27:33.141";"2014-09-26 14:42:32.204";"1";"0";"0";"28";"27";"module.training_block1.exec-9708.GoNoGo1";;;;;;;;;;;;;;;;;;;;;;;"1249";"2014-09-26 14:30:19.139";"NST_correctLoc";"28";"1";"FINISHED";"RIGHT";"success";"321";"0";"2014-09-26 14:30:17.889";"3";;;;;;;;;;;;;;;;;;;;;;;;;;;;;;;;;;;;;;;;;;;;;;;;;;;;;;;;;
"174383";;;"Windows 7";"Rachel's Experiment (D.T.)";"1.0";"2";"1";"1";"2";"1";"1";"2014-09-26 14:27:33.141";"2014-09-26 14:42:32.204";"1";"0";"0";"29";"28";"module.training_block1.exec-9708.GoNoGo1";;;;;;;;;;;;;;;;;;;;;;;"1249";"2014-09-26 14:30:21.666";"NST_correctLoc";"9";"1";"FINISHED";"RIGHT";"success";"280";"0";"2014-09-26 14:30:20.416";"2";;;;;;;;;;;;;;;;;;;;;;;;;;;;;;;;;;;;;;;;;;;;;;;;;;;;;;;;;
"174383";;;"Windows 7";"Rachel's Experiment (D.T.)";"1.0";"2";"1";"1";"2";"1";"1";"2014-09-26 14:27:33.141";"2014-09-26 14:42:32.204";"1";"0";"0";"30";"29";"module.training_block1.exec-9708.GoNoGo1";;;;;;;;;;;;;;;;;;;;;;;"1249";"2014-09-26 14:30:24.188";"NST_correctLoc";"26";"0";"FINISHED";"LEFT";"success";"369";"0";"2014-09-26 14:30:22.938";"3";;;;;;;;;;;;;;;;;;;;;;;;;;;;;;;;;;;;;;;;;;;;;;;;;;;;;;;;;
"174383";;;"Windows 7";"Rachel's Experiment (D.T.)";"1.0";"2";"1";"1";"2";"1";"1";"2014-09-26 14:27:33.141";"2014-09-26 14:42:32.204";"1";"0";"0";"31";"30";"module.training_block1.exec-9708.GoNoGo1";;;;;;;;;;;;;;;;;;;;;;;"1250";"2014-09-26 14:30:26.714";"NST_correctLoc";"12";"0";"FINISHED";"LEFT";"success";"359";"0";"2014-09-26 14:30:25.464";"2";;;;;;;;;;;;;;;;;;;;;;;;;;;;;;;;;;;;;;;;;;;;;;;;;;;;;;;;;
"174383";;;"Windows 7";"Rachel's Experiment (D.T.)";"1.0";"2";"1";"1";"2";"1";"1";"2014-09-26 14:27:33.141";"2014-09-26 14:42:32.204";"1";"0";"0";"32";"31";"module.training_block1.exec-9708.GoNoGo1";;;;;;;;;;;;;;;;;;;;;;;"1249";"2014-09-26 14:30:29.236";"NST_correctLoc";"27";"1";"FINISHED";"RIGHT";"success";"350";"0";"2014-09-26 14:30:27.986";"3";;;;;;;;;;;;;;;;;;;;;;;;;;;;;;;;;;;;;;;;;;;;;;;;;;;;;;;;;
"174383";;;"Windows 7";"Rachel's Experiment (D.T.)";"1.0";"2";"1";"1";"2";"1";"1";"2014-09-26 14:27:33.141";"2014-09-26 14:42:32.204";"1";"0";"0";"33";"32";"module.training_block1.exec-9708.GoNoGo1";;;;;;;;;;;;;;;;;;;;;;;"1249";"2014-09-26 14:30:31.761";"NST_correctLoc";"0";"0";"FINISHED";"LEFT";"success";"321";"0";"2014-09-26 14:30:30.511";"1";;;;;;;;;;;;;;;;;;;;;;;;;;;;;;;;;;;;;;;;;;;;;;;;;;;;;;;;;
"174383";;;"Windows 7";"Rachel's Experiment (D.T.)";"1.0";"2";"1";"1";"2";"1";"1";"2014-09-26 14:27:33.141";"2014-09-26 14:42:32.204";"1";"0";"0";"34";"33";"module.training_block1.exec-9708.GoNoGo1";;;;;;;;;;;;;;;;;;;;;;;"1249";"2014-09-26 14:30:34.288";"NST_correctLoc";"15";"1";"FINISHED";"RIGHT";"success";"325";"0";"2014-09-26 14:30:33.038";"2";;;;;;;;;;;;;;;;;;;;;;;;;;;;;;;;;;;;;;;;;;;;;;;;;;;;;;;;;
"174383";;;"Windows 7";"Rachel's Experiment (D.T.)";"1.0";"2";"1";"1";"2";"1";"1";"2014-09-26 14:27:33.141";"2014-09-26 14:42:32.204";"1";"0";"0";"35";"34";"module.training_block1.exec-9708.GoNoGo1";;;;;;;;;;;;;;;;;;;;;;;"1249";"2014-09-26 14:30:36.813";"NST_correctLoc";"11";"0";"FINISHED";"LEFT";"success";"348";"0";"2014-09-26 14:30:35.563";"2";;;;;;;;;;;;;;;;;;;;;;;;;;;;;;;;;;;;;;;;;;;;;;;;;;;;;;;;;
"174383";;;"Windows 7";"Rachel's Experiment (D.T.)";"1.0";"2";"1";"1";"2";"1";"1";"2014-09-26 14:27:33.141";"2014-09-26 14:42:32.204";"1";"0";"0";"36";"35";"module.training_block1.exec-9708.GoNoGo1";;;;;;;;;;;;;;;;;;;;;;;"1249";"2014-09-26 14:30:39.337";"NST_correctLoc";"19";"0";"FINISHED";"LEFT";"success";"374";"0";"2014-09-26 14:30:38.087";"3";;;;;;;;;;;;;;;;;;;;;;;;;;;;;;;;;;;;;;;;;;;;;;;;;;;;;;;;;
"174383";;;"Windows 7";"Rachel's Experiment (D.T.)";"1.0";"2";"1";"1";"2";"1";"1";"2014-09-26 14:27:33.141";"2014-09-26 14:42:32.204";"1";"0";"0";"37";"36";"module.training_block1.exec-9708.GoNoGo1";;;;;;;;;;;;;;;;;;;;;;;"1249";"2014-09-26 14:30:41.863";"NST_correctLoc";"17";"0";"FINISHED";"LEFT";"success";"421";"0";"2014-09-26 14:30:40.613";"2";;;;;;;;;;;;;;;;;;;;;;;;;;;;;;;;;;;;;;;;;;;;;;;;;;;;;;;;;
"174383";;;"Windows 7";"Rachel's Experiment (D.T.)";"1.0";"2";"1";"1";"2";"1";"1";"2014-09-26 14:27:33.141";"2014-09-26 14:42:32.204";"1";"0";"0";"38";"37";"module.training_block1.exec-9708.GoNoGo1";;;;;;;;;;;;;;;;;;;;;;;"1249";"2014-09-26 14:30:44.393";"NST_correctLoc";"35";"1";"FINISHED";"RIGHT";"success";"287";"0";"2014-09-26 14:30:43.143";"3";;;;;;;;;;;;;;;;;;;;;;;;;;;;;;;;;;;;;;;;;;;;;;;;;;;;;;;;;
"174383";;;"Windows 7";"Rachel's Experiment (D.T.)";"1.0";"2";"1";"1";"2";"1";"1";"2014-09-26 14:27:33.141";"2014-09-26 14:42:32.204";"1";"0";"0";"39";"38";"module.training_block1.exec-9708.GoNoGo1";;;;;;;;;;;;;;;;;;;;;;;"1249";"2014-09-26 14:30:46.914";"NST_correctLoc";"30";"1";"FINISHED";"RIGHT";"success";"431";"0";"2014-09-26 14:30:45.664";"3";;;;;;;;;;;;;;;;;;;;;;;;;;;;;;;;;;;;;;;;;;;;;;;;;;;;;;;;;
"174383";;;"Windows 7";"Rachel's Experiment (D.T.)";"1.0";"2";"1";"1";"2";"1";"1";"2014-09-26 14:27:33.141";"2014-09-26 14:42:32.204";"1";"0";"0";"40";"39";"module.training_block1.exec-9708.GoNoGo1";;;;;;;;;;;;;;;;;;;;;;;"1249";"2014-09-26 14:30:49.434";"NST_correctLoc";"13";"0";"FINISHED";"LEFT";"success";"411";"0";"2014-09-26 14:30:48.184";"2";;;;;;;;;;;;;;;;;;;;;;;;;;;;;;;;;;;;;;;;;;;;;;;;;;;;;;;;;
"174383";;;"Windows 7";"Rachel's Experiment (D.T.)";"1.0";"2";"1";"1";"2";"1";"1";"2014-09-26 14:27:33.141";"2014-09-26 14:42:32.204";"1";"0";"0";"41";"40";"module.training_block1.exec-9708.GoNoGo1";;;;;;;;;;;;;;;;;;;;;;;"1249";"2014-09-26 14:30:51.960";"NST_correctLoc";"20";"0";"FINISHED";"LEFT";"success";"365";"0";"2014-09-26 14:30:50.710";"3";;;;;;;;;;;;;;;;;;;;;;;;;;;;;;;;;;;;;;;;;;;;;;;;;;;;;;;;;
"174383";;;"Windows 7";"Rachel's Experiment (D.T.)";"1.0";"2";"1";"1";"2";"1";"1";"2014-09-26 14:27:33.141";"2014-09-26 14:42:32.204";"1";"0";"0";"42";"41";"module.training_block1.exec-9708.GoNoGo1";;;;;;;;;;;;;;;;;;;;;;;"1249";"2014-09-26 14:30:54.481";"NST_correctLoc";"34";"1";"FINISHED";"RIGHT";"success";"343";"0";"2014-09-26 14:30:53.231";"3";;;;;;;;;;;;;;;;;;;;;;;;;;;;;;;;;;;;;;;;;;;;;;;;;;;;;;;;;
"174383";;;"Windows 7";"Rachel's Experiment (D.T.)";"1.0";"2";"1";"1";"2";"1";"1";"2014-09-26 14:27:33.141";"2014-09-26 14:42:32.204";"1";"0";"0";"43";"42";"module.training_block1.exec-9708.GoNoGo1";;;;;;;;;;;;;;;;;;;;;;;"1249";"2014-09-26 14:30:57.002";"NST_correctLoc";"18";"1";"FINISHED";"RIGHT";"success";"327";"0";"2014-09-26 14:30:55.752";"3";;;;;;;;;;;;;;;;;;;;;;;;;;;;;;;;;;;;;;;;;;;;;;;;;;;;;;;;;
"174383";;;"Windows 7";"Rachel's Experiment (D.T.)";"1.0";"2";"1";"1";"2";"1";"1";"2014-09-26 14:27:33.141";"2014-09-26 14:42:32.204";"1";"0";"0";"44";"43";"module.training_block1.exec-9708.GoNoGo1";;;;;;;;;;;;;;;;;;;;;;;"1249";"2014-09-26 14:30:59.523";"NST_correctLoc";"2";"1";"FINISHED";"RIGHT";"success";"358";"0";"2014-09-26 14:30:58.273";"1";;;;;;;;;;;;;;;;;;;;;;;;;;;;;;;;;;;;;;;;;;;;;;;;;;;;;;;;;
"174383";;;"Windows 7";"Rachel's Experiment (D.T.)";"1.0";"2";"1";"1";"2";"1";"1";"2014-09-26 14:27:33.141";"2014-09-26 14:42:32.204";"1";"0";"0";"45";"44";"module.training_block1.exec-9708.GoNoGo1";;;;;;;;;;;;;;;;;;;;;;;"1249";"2014-09-26 14:31:02.047";"NST_correctLoc";"24";"0";"FINISHED";"LEFT";"success";"433";"0";"2014-09-26 14:31:00.797";"3";;;;;;;;;;;;;;;;;;;;;;;;;;;;;;;;;;;;;;;;;;;;;;;;;;;;;;;;;
"174383";;;"Windows 7";"Rachel's Experiment (D.T.)";"1.0";"2";"1";"1";"2";"1";"1";"2014-09-26 14:27:33.141";"2014-09-26 14:42:32.204";"1";"0";"0";"46";"45";"module.training_block1.exec-9708.GoNoGo1";;;;;;;;;;;;;;;;;;;;;;;"1249";"2014-09-26 14:31:04.572";"NST_correctLoc";"5";"0";"FINISHED";"LEFT";"success";"511";"0";"2014-09-26 14:31:03.322";"1";;;;;;;;;;;;;;;;;;;;;;;;;;;;;;;;;;;;;;;;;;;;;;;;;;;;;;;;;
"174383";;;"Windows 7";"Rachel's Experiment (D.T.)";"1.0";"2";"1";"1";"2";"1";"1";"2014-09-26 14:27:33.141";"2014-09-26 14:42:32.204";"1";"0";"0";"47";"46";"module.training_block1.exec-9708.GoNoGo1";;;;;;;;;;;;;;;;;;;;;;;"1249";"2014-09-26 14:31:07.093";"NST_correctLoc";"6";"0";"FINISHED";"LEFT";"success";"470";"0";"2014-09-26 14:31:05.843";"1";;;;;;;;;;;;;;;;;;;;;;;;;;;;;;;;;;;;;;;;;;;;;;;;;;;;;;;;;
"174383";;;"Windows 7";"Rachel's Experiment (D.T.)";"1.0";"2";"1";"1";"2";"1";"1";"2014-09-26 14:27:33.141";"2014-09-26 14:42:32.204";"1";"0";"0";"48";"47";"module.training_block1.exec-9708.GoNoGo1";;;;;;;;;;;;;;;;;;;;;;;"1249";"2014-09-26 14:31:09.614";"NST_correctLoc";"21";"0";"FINISHED";"LEFT";"success";"376";"0";"2014-09-26 14:31:08.364";"3";;;;;;;;;;;;;;;;;;;;;;;;;;;;;;;;;;;;;;;;;;;;;;;;;;;;;;;;;
"174383";;;"Windows 7";"Rachel's Experiment (D.T.)";"1.0";"2";"1";"1";"2";"1";"1";"2014-09-26 14:27:33.141";"2014-09-26 14:42:32.204";"1";"0";"0";"49";"48";"module.training_block1.exec-9708.GoNoGo1";;;;;;;;;;;;;;;;;;;;;;;"1250";"2014-09-26 14:31:12.139";"NST_correctLoc";"33";"0";"FINISHED";"LEFT";"success";"356";"0";"2014-09-26 14:31:10.889";"3";;;;;;;;;;;;;;;;;;;;;;;;;;;;;;;;;;;;;;;;;;;;;;;;;;;;;;;;;
"174383";;;"Windows 7";"Rachel's Experiment (D.T.)";"1.0";"2";"1";"1";"2";"1";"1";"2014-09-26 14:27:33.141";"2014-09-26 14:42:32.204";"1";"0";"0";"50";"49";"module.training_block1.exec-9708.GoNoGo1";;;;;;;;;;;;;;;;;;;;;;;"1249";"2014-09-26 14:31:14.663";"NST_correctLoc";"8";"1";"FINISHED";"RIGHT";"success";"307";"0";"2014-09-26 14:31:13.413";"1";;;;;;;;;;;;;;;;;;;;;;;;;;;;;;;;;;;;;;;;;;;;;;;;;;;;;;;;;
"174383";;;"Windows 7";"Rachel's Experiment (D.T.)";"1.0";"2";"1";"1";"2";"1";"1";"2014-09-26 14:27:33.141";"2014-09-26 14:42:32.204";"1";"0";"0";"51";"50";"module.training_block1.exec-9708.GoNoGo1";;;;;;;;;;;;;;;;;;;;;;;"1249";"2014-09-26 14:31:17.187";"NST_correctLoc";"10";"1";"FINISHED";"RIGHT";"success";"323";"0";"2014-09-26 14:31:15.937";"2";;;;;;;;;;;;;;;;;;;;;;;;;;;;;;;;;;;;;;;;;;;;;;;;;;;;;;;;;
"174383";;;"Windows 7";"Rachel's Experiment (D.T.)";"1.0";"2";"1";"1";"2";"1";"1";"2014-09-26 14:27:33.141";"2014-09-26 14:42:32.204";"1";"0";"0";"52";"51";"module.training_block2.exec-3265.GoNoGo2";;;;;;;;;;;;;;;;;;;;;;;;;;;;;;;;;;;"1249";"2014-09-26 14:31:29.320";"NST_correctLoc";"26";"0";"FINISHED";"LEFT";"success";"387";"0";"2014-09-26 14:31:28.070";"3";;;;;;;;;;;;;;;;;;;;;;;;;;;;;;;;;;;;;;;;;;;;;
"174383";;;"Windows 7";"Rachel's Experiment (D.T.)";"1.0";"2";"1";"1";"2";"1";"1";"2014-09-26 14:27:33.141";"2014-09-26 14:42:32.204";"1";"0";"0";"53";"52";"module.training_block2.exec-3265.GoNoGo2";;;;;;;;;;;;;;;;;;;;;;;;;;;;;;;;;;;"1249";"2014-09-26 14:31:31.839";"NST_correctLoc";"4";"0";"FINISHED";"LEFT";"success";"459";"0";"2014-09-26 14:31:30.589";"1";;;;;;;;;;;;;;;;;;;;;;;;;;;;;;;;;;;;;;;;;;;;;
"174383";;;"Windows 7";"Rachel's Experiment (D.T.)";"1.0";"2";"1";"1";"2";"1";"1";"2014-09-26 14:27:33.141";"2014-09-26 14:42:32.204";"1";"0";"0";"54";"53";"module.training_block2.exec-3265.GoNoGo2";;;;;;;;;;;;;;;;;;;;;;;;;;;;;;;;;;;"1249";"2014-09-26 14:31:34.359";"NST_correctLoc";"21";"1";"FINISHED";"RIGHT";"success";"304";"0";"2014-09-26 14:31:33.109";"3";;;;;;;;;;;;;;;;;;;;;;;;;;;;;;;;;;;;;;;;;;;;;
"174383";;;"Windows 7";"Rachel's Experiment (D.T.)";"1.0";"2";"1";"1";"2";"1";"1";"2014-09-26 14:27:33.141";"2014-09-26 14:42:32.204";"1";"0";"0";"55";"54";"module.training_block2.exec-3265.GoNoGo2";;;;;;;;;;;;;;;;;;;;;;;;;;;;;;;;;;;"1249";"2014-09-26 14:31:36.878";"NST_correctLoc";"11";"0";"FINISHED";"LEFT";"success";"395";"0";"2014-09-26 14:31:35.628";"2";;;;;;;;;;;;;;;;;;;;;;;;;;;;;;;;;;;;;;;;;;;;;
"174383";;;"Windows 7";"Rachel's Experiment (D.T.)";"1.0";"2";"1";"1";"2";"1";"1";"2014-09-26 14:27:33.141";"2014-09-26 14:42:32.204";"1";"0";"0";"56";"55";"module.training_block2.exec-3265.GoNoGo2";;;;;;;;;;;;;;;;;;;;;;;;;;;;;;;;;;;"1249";"2014-09-26 14:31:39.403";"NST_correctLoc";"27";"1";"FINISHED";"RIGHT";"success";"378";"0";"2014-09-26 14:31:38.153";"3";;;;;;;;;;;;;;;;;;;;;;;;;;;;;;;;;;;;;;;;;;;;;
"174383";;;"Windows 7";"Rachel's Experiment (D.T.)";"1.0";"2";"1";"1";"2";"1";"1";"2014-09-26 14:27:33.141";"2014-09-26 14:42:32.204";"1";"0";"0";"57";"56";"module.training_block2.exec-3265.GoNoGo2";;;;;;;;;;;;;;;;;;;;;;;;;;;;;;;;;;;"1249";"2014-09-26 14:31:41.922";"NST_correctLoc";"13";"0";"FINISHED";"LEFT";"success";"337";"0";"2014-09-26 14:31:40.672";"2";;;;;;;;;;;;;;;;;;;;;;;;;;;;;;;;;;;;;;;;;;;;;
"174383";;;"Windows 7";"Rachel's Experiment (D.T.)";"1.0";"2";"1";"1";"2";"1";"1";"2014-09-26 14:27:33.141";"2014-09-26 14:42:32.204";"1";"0";"0";"58";"57";"module.training_block2.exec-3265.GoNoGo2";;;;;;;;;;;;;;;;;;;;;;;;;;;;;;;;;;;"1249";"2014-09-26 14:31:44.442";"NST_correctLoc";"24";"0";"FINISHED";"LEFT";"success";"379";"0";"2014-09-26 14:31:43.192";"3";;;;;;;;;;;;;;;;;;;;;;;;;;;;;;;;;;;;;;;;;;;;;
"174383";;;"Windows 7";"Rachel's Experiment (D.T.)";"1.0";"2";"1";"1";"2";"1";"1";"2014-09-26 14:27:33.141";"2014-09-26 14:42:32.204";"1";"0";"0";"59";"58";"module.training_block2.exec-3265.GoNoGo2";;;;;;;;;;;;;;;;;;;;;;;;;;;;;;;;;;;"1249";"2014-09-26 14:31:46.962";"NST_correctLoc";"17";"1";"FINISHED";"RIGHT";"success";"279";"0";"2014-09-26 14:31:45.712";"2";;;;;;;;;;;;;;;;;;;;;;;;;;;;;;;;;;;;;;;;;;;;;
"174383";;;"Windows 7";"Rachel's Experiment (D.T.)";"1.0";"2";"1";"1";"2";"1";"1";"2014-09-26 14:27:33.141";"2014-09-26 14:42:32.204";"1";"0";"0";"60";"59";"module.training_block2.exec-3265.GoNoGo2";;;;;;;;;;;;;;;;;;;;;;;;;;;;;;;;;;;"1249";"2014-09-26 14:31:49.482";"NST_correctLoc";"14";"1";"FINISHED";"RIGHT";"success";"289";"0";"2014-09-26 14:31:48.232";"2";;;;;;;;;;;;;;;;;;;;;;;;;;;;;;;;;;;;;;;;;;;;;
"174383";;;"Windows 7";"Rachel's Experiment (D.T.)";"1.0";"2";"1";"1";"2";"1";"1";"2014-09-26 14:27:33.141";"2014-09-26 14:42:32.204";"1";"0";"0";"61";"60";"module.training_block2.exec-3265.GoNoGo2";;;;;;;;;;;;;;;;;;;;;;;;;;;;;;;;;;;"1249";"2014-09-26 14:31:52.001";"NST_correctLoc";"15";"0";"FINISHED";"LEFT";"success";"378";"0";"2014-09-26 14:31:50.751";"2";;;;;;;;;;;;;;;;;;;;;;;;;;;;;;;;;;;;;;;;;;;;;
"174383";;;"Windows 7";"Rachel's Experiment (D.T.)";"1.0";"2";"1";"1";"2";"1";"1";"2014-09-26 14:27:33.141";"2014-09-26 14:42:32.204";"1";"0";"0";"62";"61";"module.training_block2.exec-3265.GoNoGo2";;;;;;;;;;;;;;;;;;;;;;;;;;;;;;;;;;;"1249";"2014-09-26 14:31:54.521";"NST_correctLoc";"34";"1";"FINISHED";"RIGHT";"success";"363";"0";"2014-09-26 14:31:53.271";"3";;;;;;;;;;;;;;;;;;;;;;;;;;;;;;;;;;;;;;;;;;;;;
"174383";;;"Windows 7";"Rachel's Experiment (D.T.)";"1.0";"2";"1";"1";"2";"1";"1";"2014-09-26 14:27:33.141";"2014-09-26 14:42:32.204";"1";"0";"0";"63";"62";"module.training_block2.exec-3265.GoNoGo2";;;;;;;;;;;;;;;;;;;;;;;;;;;;;;;;;;;"1249";"2014-09-26 14:31:57.041";"NST_correctLoc";"6";"1";"FINISHED";"RIGHT";"success";"332";"0";"2014-09-26 14:31:55.791";"1";;;;;;;;;;;;;;;;;;;;;;;;;;;;;;;;;;;;;;;;;;;;;
"174383";;;"Windows 7";"Rachel's Experiment (D.T.)";"1.0";"2";"1";"1";"2";"1";"1";"2014-09-26 14:27:33.141";"2014-09-26 14:42:32.204";"1";"0";"0";"64";"63";"module.training_block2.exec-3265.GoNoGo2";;;;;;;;;;;;;;;;;;;;;;;;;;;;;;;;;;;"1249";"2014-09-26 14:31:59.560";"NST_correctLoc";"16";"0";"FINISHED";"LEFT";"success";"374";"0";"2014-09-26 14:31:58.310";"2";;;;;;;;;;;;;;;;;;;;;;;;;;;;;;;;;;;;;;;;;;;;;
"174383";;;"Windows 7";"Rachel's Experiment (D.T.)";"1.0";"2";"1";"1";"2";"1";"1";"2014-09-26 14:27:33.141";"2014-09-26 14:42:32.204";"1";"0";"0";"65";"64";"module.training_block2.exec-3265.GoNoGo2";;;;;;;;;;;;;;;;;;;;;;;;;;;;;;;;;;;"1249";"2014-09-26 14:32:02.080";"NST_correctLoc";"12";"0";"FINISHED";"LEFT";"success";"509";"0";"2014-09-26 14:32:00.830";"2";;;;;;;;;;;;;;;;;;;;;;;;;;;;;;;;;;;;;;;;;;;;;
"174383";;;"Windows 7";"Rachel's Experiment (D.T.)";"1.0";"2";"1";"1";"2";"1";"1";"2014-09-26 14:27:33.141";"2014-09-26 14:42:32.204";"1";"0";"0";"66";"65";"module.training_block2.exec-3265.GoNoGo2";;;;;;;;;;;;;;;;;;;;;;;;;;;;;;;;;;;"1249";"2014-09-26 14:32:04.599";"NST_correctLoc";"19";"0";"FINISHED";"LEFT";"success";"543";"0";"2014-09-26 14:32:03.349";"3";;;;;;;;;;;;;;;;;;;;;;;;;;;;;;;;;;;;;;;;;;;;;
"174383";;;"Windows 7";"Rachel's Experiment (D.T.)";"1.0";"2";"1";"1";"2";"1";"1";"2014-09-26 14:27:33.141";"2014-09-26 14:42:32.204";"1";"0";"0";"67";"66";"module.training_block2.exec-3265.GoNoGo2";;;;;;;;;;;;;;;;;;;;;;;;;;;;;;;;;;;"1249";"2014-09-26 14:32:07.119";"NST_correctLoc";"29";"1";"FINISHED";"RIGHT";"success";"357";"0";"2014-09-26 14:32:05.869";"3";;;;;;;;;;;;;;;;;;;;;;;;;;;;;;;;;;;;;;;;;;;;;
"174383";;;"Windows 7";"Rachel's Experiment (D.T.)";"1.0";"2";"1";"1";"2";"1";"1";"2014-09-26 14:27:33.141";"2014-09-26 14:42:32.204";"1";"0";"0";"68";"67";"module.training_block2.exec-3265.GoNoGo2";;;;;;;;;;;;;;;;;;;;;;;;;;;;;;;;;;;"1249";"2014-09-26 14:32:09.637";"NST_correctLoc";"30";"0";"FINISHED";"LEFT";"success";"460";"0";"2014-09-26 14:32:08.387";"3";;;;;;;;;;;;;;;;;;;;;;;;;;;;;;;;;;;;;;;;;;;;;
"174383";;;"Windows 7";"Rachel's Experiment (D.T.)";"1.0";"2";"1";"1";"2";"1";"1";"2014-09-26 14:27:33.141";"2014-09-26 14:42:32.204";"1";"0";"0";"69";"68";"module.training_block2.exec-3265.GoNoGo2";;;;;;;;;;;;;;;;;;;;;;;;;;;;;;;;;;;"1249";"2014-09-26 14:32:12.156";"NST_correctLoc";"7";"0";"FINISHED";"LEFT";"success";"498";"0";"2014-09-26 14:32:10.906";"1";;;;;;;;;;;;;;;;;;;;;;;;;;;;;;;;;;;;;;;;;;;;;
"174383";;;"Windows 7";"Rachel's Experiment (D.T.)";"1.0";"2";"1";"1";"2";"1";"1";"2014-09-26 14:27:33.141";"2014-09-26 14:42:32.204";"1";"0";"0";"70";"69";"module.training_block2.exec-3265.GoNoGo2";;;;;;;;;;;;;;;;;;;;;;;;;;;;;;;;;;;"1249";"2014-09-26 14:32:14.674";"NST_correctLoc";"32";"0";"FINISHED";"LEFT";"success";"416";"0";"2014-09-26 14:32:13.424";"3";;;;;;;;;;;;;;;;;;;;;;;;;;;;;;;;;;;;;;;;;;;;;
"174383";;;"Windows 7";"Rachel's Experiment (D.T.)";"1.0";"2";"1";"1";"2";"1";"1";"2014-09-26 14:27:33.141";"2014-09-26 14:42:32.204";"1";"0";"0";"71";"70";"module.training_block2.exec-3265.GoNoGo2";;;;;;;;;;;;;;;;;;;;;;;;;;;;;;;;;;;"1249";"2014-09-26 14:32:17.193";"NST_correctLoc";"9";"0";"FINISHED";"LEFT";"success";"502";"0";"2014-09-26 14:32:15.943";"2";;;;;;;;;;;;;;;;;;;;;;;;;;;;;;;;;;;;;;;;;;;;;
"174383";;;"Windows 7";"Rachel's Experiment (D.T.)";"1.0";"2";"1";"1";"2";"1";"1";"2014-09-26 14:27:33.141";"2014-09-26 14:42:32.204";"1";"0";"0";"72";"71";"module.training_block2.exec-3265.GoNoGo2";;;;;;;;;;;;;;;;;;;;;;;;;;;;;;;;;;;"1249";"2014-09-26 14:32:19.711";"NST_correctLoc";"3";"0";"FINISHED";"LEFT";"success";"453";"0";"2014-09-26 14:32:18.461";"1";;;;;;;;;;;;;;;;;;;;;;;;;;;;;;;;;;;;;;;;;;;;;
"174383";;;"Windows 7";"Rachel's Experiment (D.T.)";"1.0";"2";"1";"1";"2";"1";"1";"2014-09-26 14:27:33.141";"2014-09-26 14:42:32.204";"1";"0";"0";"73";"72";"module.training_block2.exec-3265.GoNoGo2";;;;;;;;;;;;;;;;;;;;;;;;;;;;;;;;;;;"1249";"2014-09-26 14:32:22.230";"NST_correctLoc";"0";"1";"FINISHED";"RIGHT";"success";"320";"0";"2014-09-26 14:32:20.980";"1";;;;;;;;;;;;;;;;;;;;;;;;;;;;;;;;;;;;;;;;;;;;;
"174383";;;"Windows 7";"Rachel's Experiment (D.T.)";"1.0";"2";"1";"1";"2";"1";"1";"2014-09-26 14:27:33.141";"2014-09-26 14:42:32.204";"1";"0";"0";"74";"73";"module.training_block2.exec-3265.GoNoGo2";;;;;;;;;;;;;;;;;;;;;;;;;;;;;;;;;;;"1249";"2014-09-26 14:32:24.749";"NST_correctLoc";"18";"1";"FINISHED";"RIGHT";"success";"374";"0";"2014-09-26 14:32:23.499";"3";;;;;;;;;;;;;;;;;;;;;;;;;;;;;;;;;;;;;;;;;;;;;
"174383";;;"Windows 7";"Rachel's Experiment (D.T.)";"1.0";"2";"1";"1";"2";"1";"1";"2014-09-26 14:27:33.141";"2014-09-26 14:42:32.204";"1";"0";"0";"75";"74";"module.training_block2.exec-3265.GoNoGo2";;;;;;;;;;;;;;;;;;;;;;;;;;;;;;;;;;;"1249";"2014-09-26 14:32:27.267";"NST_correctLoc";"20";"0";"FINISHED";"LEFT";"success";"341";"0";"2014-09-26 14:32:26.017";"3";;;;;;;;;;;;;;;;;;;;;;;;;;;;;;;;;;;;;;;;;;;;;
"174383";;;"Windows 7";"Rachel's Experiment (D.T.)";"1.0";"2";"1";"1";"2";"1";"1";"2014-09-26 14:27:33.141";"2014-09-26 14:42:32.204";"1";"0";"0";"76";"75";"module.training_block2.exec-3265.GoNoGo2";;;;;;;;;;;;;;;;;;;;;;;;;;;;;;;;;;;"1249";"2014-09-26 14:32:29.786";"NST_correctLoc";"23";"0";"FINISHED";"LEFT";"success";"452";"0";"2014-09-26 14:32:28.536";"3";;;;;;;;;;;;;;;;;;;;;;;;;;;;;;;;;;;;;;;;;;;;;
"174383";;;"Windows 7";"Rachel's Experiment (D.T.)";"1.0";"2";"1";"1";"2";"1";"1";"2014-09-26 14:27:33.141";"2014-09-26 14:42:32.204";"1";"0";"0";"77";"76";"module.training_block2.exec-3265.GoNoGo2";;;;;;;;;;;;;;;;;;;;;;;;;;;;;;;;;;;"1249";"2014-09-26 14:32:32.303";"NST_correctLoc";"22";"1";"FINISHED";"RIGHT";"success";"317";"0";"2014-09-26 14:32:31.053";"3";;;;;;;;;;;;;;;;;;;;;;;;;;;;;;;;;;;;;;;;;;;;;
"174383";;;"Windows 7";"Rachel's Experiment (D.T.)";"1.0";"2";"1";"1";"2";"1";"1";"2014-09-26 14:27:33.141";"2014-09-26 14:42:32.204";"1";"0";"0";"78";"77";"module.training_block2.exec-3265.GoNoGo2";;;;;;;;;;;;;;;;;;;;;;;;;;;;;;;;;;;"1249";"2014-09-26 14:32:34.822";"NST_correctLoc";"1";"1";"FINISHED";"RIGHT";"success";"344";"0";"2014-09-26 14:32:33.572";"1";;;;;;;;;;;;;;;;;;;;;;;;;;;;;;;;;;;;;;;;;;;;;
"174383";;;"Windows 7";"Rachel's Experiment (D.T.)";"1.0";"2";"1";"1";"2";"1";"1";"2014-09-26 14:27:33.141";"2014-09-26 14:42:32.204";"1";"0";"0";"79";"78";"module.training_block2.exec-3265.GoNoGo2";;;;;;;;;;;;;;;;;;;;;;;;;;;;;;;;;;;"1249";"2014-09-26 14:32:37.339";"NST_correctLoc";"10";"1";"FINISHED";"RIGHT";"success";"299";"0";"2014-09-26 14:32:36.089";"2";;;;;;;;;;;;;;;;;;;;;;;;;;;;;;;;;;;;;;;;;;;;;
"174383";;;"Windows 7";"Rachel's Experiment (D.T.)";"1.0";"2";"1";"1";"2";"1";"1";"2014-09-26 14:27:33.141";"2014-09-26 14:42:32.204";"1";"0";"0";"80";"79";"module.training_block2.exec-3265.GoNoGo2";;;;;;;;;;;;;;;;;;;;;;;;;;;;;;;;;;;"1249";"2014-09-26 14:32:39.861";"NST_correctLoc";"35";"0";"FINISHED";"LEFT";"success";"347";"0";"2014-09-26 14:32:38.611";"3";;;;;;;;;;;;;;;;;;;;;;;;;;;;;;;;;;;;;;;;;;;;;
"174383";;;"Windows 7";"Rachel's Experiment (D.T.)";"1.0";"2";"1";"1";"2";"1";"1";"2014-09-26 14:27:33.141";"2014-09-26 14:42:32.204";"1";"0";"0";"81";"80";"module.training_block2.exec-3265.GoNoGo2";;;;;;;;;;;;;;;;;;;;;;;;;;;;;;;;;;;"1249";"2014-09-26 14:32:42.378";"NST_correctLoc";"5";"1";"FINISHED";"RIGHT";"success";"459";"0";"2014-09-26 14:32:41.128";"1";;;;;;;;;;;;;;;;;;;;;;;;;;;;;;;;;;;;;;;;;;;;;
"174383";;;"Windows 7";"Rachel's Experiment (D.T.)";"1.0";"2";"1";"1";"2";"1";"1";"2014-09-26 14:27:33.141";"2014-09-26 14:42:32.204";"1";"0";"0";"82";"81";"module.training_block2.exec-3265.GoNoGo2";;;;;;;;;;;;;;;;;;;;;;;;;;;;;;;;;;;"1249";"2014-09-26 14:32:44.896";"NST_correctLoc";"2";"0";"FINISHED";"LEFT";"success";"607";"0";"2014-09-26 14:32:43.646";"1";;;;;;;;;;;;;;;;;;;;;;;;;;;;;;;;;;;;;;;;;;;;;
"174383";;;"Windows 7";"Rachel's Experiment (D.T.)";"1.0";"2";"1";"1";"2";"1";"1";"2014-09-26 14:27:33.141";"2014-09-26 14:42:32.204";"1";"0";"0";"83";"82";"module.training_block2.exec-3265.GoNoGo2";;;;;;;;;;;;;;;;;;;;;;;;;;;;;;;;;;;"1249";"2014-09-26 14:32:47.414";"NST_correctLoc";"25";"1";"FINISHED";"RIGHT";"success";"344";"0";"2014-09-26 14:32:46.164";"3";;;;;;;;;;;;;;;;;;;;;;;;;;;;;;;;;;;;;;;;;;;;;
"174383";;;"Windows 7";"Rachel's Experiment (D.T.)";"1.0";"2";"1";"1";"2";"1";"1";"2014-09-26 14:27:33.141";"2014-09-26 14:42:32.204";"1";"0";"0";"84";"83";"module.training_block2.exec-3265.GoNoGo2";;;;;;;;;;;;;;;;;;;;;;;;;;;;;;;;;;;"1249";"2014-09-26 14:32:49.931";"NST_correctLoc";"28";"1";"FINISHED";"RIGHT";"success";"298";"0";"2014-09-26 14:32:48.681";"3";;;;;;;;;;;;;;;;;;;;;;;;;;;;;;;;;;;;;;;;;;;;;
"174383";;;"Windows 7";"Rachel's Experiment (D.T.)";"1.0";"2";"1";"1";"2";"1";"1";"2014-09-26 14:27:33.141";"2014-09-26 14:42:32.204";"1";"0";"0";"85";"84";"module.training_block2.exec-3265.GoNoGo2";;;;;;;;;;;;;;;;;;;;;;;;;;;;;;;;;;;"1249";"2014-09-26 14:32:52.449";"NST_correctLoc";"33";"1";"FINISHED";"RIGHT";"success";"578";"0";"2014-09-26 14:32:51.199";"3";;;;;;;;;;;;;;;;;;;;;;;;;;;;;;;;;;;;;;;;;;;;;
"174383";;;"Windows 7";"Rachel's Experiment (D.T.)";"1.0";"2";"1";"1";"2";"1";"1";"2014-09-26 14:27:33.141";"2014-09-26 14:42:32.204";"1";"0";"0";"86";"85";"module.training_block2.exec-3265.GoNoGo2";;;;;;;;;;;;;;;;;;;;;;;;;;;;;;;;;;;"1249";"2014-09-26 14:32:54.966";"NST_correctLoc";"31";"0";"FINISHED";"LEFT";"success";"370";"0";"2014-09-26 14:32:53.716";"3";;;;;;;;;;;;;;;;;;;;;;;;;;;;;;;;;;;;;;;;;;;;;
"174383";;;"Windows 7";"Rachel's Experiment (D.T.)";"1.0";"2";"1";"1";"2";"1";"1";"2014-09-26 14:27:33.141";"2014-09-26 14:42:32.204";"1";"0";"0";"87";"86";"module.training_block2.exec-3265.GoNoGo2";;;;;;;;;;;;;;;;;;;;;;;;;;;;;;;;;;;"1249";"2014-09-26 14:32:57.484";"NST_correctLoc";"8";"0";"FINISHED";"LEFT";"success";"425";"0";"2014-09-26 14:32:56.234";"1";;;;;;;;;;;;;;;;;;;;;;;;;;;;;;;;;;;;;;;;;;;;;
"174383";;;"Windows 7";"Rachel's Experiment (D.T.)";"1.0";"2";"1";"1";"2";"1";"1";"2014-09-26 14:27:33.141";"2014-09-26 14:42:32.204";"1";"0";"0";"88";"87";"module.training_block3.exec-1398.GoNoGo3";;;;;;;;;;;;;;;;;;;;;;;;;;;;;;;;;;;;;;;;;;;;;;;"1249";"2014-09-26 14:33:08.612";"NST_correctLoc";"8";"0";"FINISHED";"LEFT";"success";"351";"0";"2014-09-26 14:33:07.362";"1";;;;;;;;;;;;;;;;;;;;;;;;;;;;;;;;;
"174383";;;"Windows 7";"Rachel's Experiment (D.T.)";"1.0";"2";"1";"1";"2";"1";"1";"2014-09-26 14:27:33.141";"2014-09-26 14:42:32.204";"1";"0";"0";"89";"88";"module.training_block3.exec-1398.GoNoGo3";;;;;;;;;;;;;;;;;;;;;;;;;;;;;;;;;;;;;;;;;;;;;;;"1249";"2014-09-26 14:33:11.129";"NST_correctLoc";"25";"1";"FINISHED";"RIGHT";"success";"314";"0";"2014-09-26 14:33:09.879";"3";;;;;;;;;;;;;;;;;;;;;;;;;;;;;;;;;
"174383";;;"Windows 7";"Rachel's Experiment (D.T.)";"1.0";"2";"1";"1";"2";"1";"1";"2014-09-26 14:27:33.141";"2014-09-26 14:42:32.204";"1";"0";"0";"90";"89";"module.training_block3.exec-1398.GoNoGo3";;;;;;;;;;;;;;;;;;;;;;;;;;;;;;;;;;;;;;;;;;;;;;;"1249";"2014-09-26 14:33:13.646";"NST_correctLoc";"31";"1";"FINISHED";"RIGHT";"success";"390";"0";"2014-09-26 14:33:12.396";"3";;;;;;;;;;;;;;;;;;;;;;;;;;;;;;;;;
"174383";;;"Windows 7";"Rachel's Experiment (D.T.)";"1.0";"2";"1";"1";"2";"1";"1";"2014-09-26 14:27:33.141";"2014-09-26 14:42:32.204";"1";"0";"0";"91";"90";"module.training_block3.exec-1398.GoNoGo3";;;;;;;;;;;;;;;;;;;;;;;;;;;;;;;;;;;;;;;;;;;;;;;"1249";"2014-09-26 14:33:16.163";"NST_correctLoc";"17";"0";"FINISHED";"LEFT";"success";"362";"0";"2014-09-26 14:33:14.913";"2";;;;;;;;;;;;;;;;;;;;;;;;;;;;;;;;;
"174383";;;"Windows 7";"Rachel's Experiment (D.T.)";"1.0";"2";"1";"1";"2";"1";"1";"2014-09-26 14:27:33.141";"2014-09-26 14:42:32.204";"1";"0";"0";"92";"91";"module.training_block3.exec-1398.GoNoGo3";;;;;;;;;;;;;;;;;;;;;;;;;;;;;;;;;;;;;;;;;;;;;;;"1249";"2014-09-26 14:33:18.680";"NST_correctLoc";"9";"0";"FINISHED";"LEFT";"success";"366";"0";"2014-09-26 14:33:17.430";"2";;;;;;;;;;;;;;;;;;;;;;;;;;;;;;;;;
"174383";;;"Windows 7";"Rachel's Experiment (D.T.)";"1.0";"2";"1";"1";"2";"1";"1";"2014-09-26 14:27:33.141";"2014-09-26 14:42:32.204";"1";"0";"0";"93";"92";"module.training_block3.exec-1398.GoNoGo3";;;;;;;;;;;;;;;;;;;;;;;;;;;;;;;;;;;;;;;;;;;;;;;"1249";"2014-09-26 14:33:21.198";"NST_correctLoc";"19";"1";"FINISHED";"RIGHT";"success";"271";"0";"2014-09-26 14:33:19.948";"3";;;;;;;;;;;;;;;;;;;;;;;;;;;;;;;;;
"174383";;;"Windows 7";"Rachel's Experiment (D.T.)";"1.0";"2";"1";"1";"2";"1";"1";"2014-09-26 14:27:33.141";"2014-09-26 14:42:32.204";"1";"0";"0";"94";"93";"module.training_block3.exec-1398.GoNoGo3";;;;;;;;;;;;;;;;;;;;;;;;;;;;;;;;;;;;;;;;;;;;;;;"1249";"2014-09-26 14:33:23.715";"NST_correctLoc";"35";"1";"FINISHED";"RIGHT";"success";"293";"0";"2014-09-26 14:33:22.465";"3";;;;;;;;;;;;;;;;;;;;;;;;;;;;;;;;;
"174383";;;"Windows 7";"Rachel's Experiment (D.T.)";"1.0";"2";"1";"1";"2";"1";"1";"2014-09-26 14:27:33.141";"2014-09-26 14:42:32.204";"1";"0";"0";"95";"94";"module.training_block3.exec-1398.GoNoGo3";;;;;;;;;;;;;;;;;;;;;;;;;;;;;;;;;;;;;;;;;;;;;;;"1249";"2014-09-26 14:33:26.233";"NST_correctLoc";"20";"1";"FINISHED";"RIGHT";"success";"294";"0";"2014-09-26 14:33:24.983";"3";;;;;;;;;;;;;;;;;;;;;;;;;;;;;;;;;
"174383";;;"Windows 7";"Rachel's Experiment (D.T.)";"1.0";"2";"1";"1";"2";"1";"1";"2014-09-26 14:27:33.141";"2014-09-26 14:42:32.204";"1";"0";"0";"96";"95";"module.training_block3.exec-1398.GoNoGo3";;;;;;;;;;;;;;;;;;;;;;;;;;;;;;;;;;;;;;;;;;;;;;;"1249";"2014-09-26 14:33:28.750";"NST_correctLoc";"5";"0";"FINISHED";"LEFT";"success";"349";"0";"2014-09-26 14:33:27.500";"1";;;;;;;;;;;;;;;;;;;;;;;;;;;;;;;;;
"174383";;;"Windows 7";"Rachel's Experiment (D.T.)";"1.0";"2";"1";"1";"2";"1";"1";"2014-09-26 14:27:33.141";"2014-09-26 14:42:32.204";"1";"0";"0";"97";"96";"module.training_block3.exec-1398.GoNoGo3";;;;;;;;;;;;;;;;;;;;;;;;;;;;;;;;;;;;;;;;;;;;;;;"1249";"2014-09-26 14:33:31.268";"NST_correctLoc";"33";"1";"FINISHED";"RIGHT";"success";"288";"0";"2014-09-26 14:33:30.018";"3";;;;;;;;;;;;;;;;;;;;;;;;;;;;;;;;;
"174383";;;"Windows 7";"Rachel's Experiment (D.T.)";"1.0";"2";"1";"1";"2";"1";"1";"2014-09-26 14:27:33.141";"2014-09-26 14:42:32.204";"1";"0";"0";"98";"97";"module.training_block3.exec-1398.GoNoGo3";;;;;;;;;;;;;;;;;;;;;;;;;;;;;;;;;;;;;;;;;;;;;;;"1249";"2014-09-26 14:33:33.786";"NST_correctLoc";"7";"0";"FINISHED";"LEFT";"success";"310";"0";"2014-09-26 14:33:32.536";"1";;;;;;;;;;;;;;;;;;;;;;;;;;;;;;;;;
"174383";;;"Windows 7";"Rachel's Experiment (D.T.)";"1.0";"2";"1";"1";"2";"1";"1";"2014-09-26 14:27:33.141";"2014-09-26 14:42:32.204";"1";"0";"0";"99";"98";"module.training_block3.exec-1398.GoNoGo3";;;;;;;;;;;;;;;;;;;;;;;;;;;;;;;;;;;;;;;;;;;;;;;"1249";"2014-09-26 14:33:36.303";"NST_correctLoc";"0";"0";"FINISHED";"LEFT";"success";"368";"0";"2014-09-26 14:33:35.053";"1";;;;;;;;;;;;;;;;;;;;;;;;;;;;;;;;;
"174383";;;"Windows 7";"Rachel's Experiment (D.T.)";"1.0";"2";"1";"1";"2";"1";"1";"2014-09-26 14:27:33.141";"2014-09-26 14:42:32.204";"1";"0";"0";"100";"99";"module.training_block3.exec-1398.GoNoGo3";;;;;;;;;;;;;;;;;;;;;;;;;;;;;;;;;;;;;;;;;;;;;;;"1249";"2014-09-26 14:33:38.821";"NST_correctLoc";"12";"0";"FINISHED";"LEFT";"success";"414";"0";"2014-09-26 14:33:37.571";"2";;;;;;;;;;;;;;;;;;;;;;;;;;;;;;;;;
"174383";;;"Windows 7";"Rachel's Experiment (D.T.)";"1.0";"2";"1";"1";"2";"1";"1";"2014-09-26 14:27:33.141";"2014-09-26 14:42:32.204";"1";"0";"0";"101";"100";"module.training_block3.exec-1398.GoNoGo3";;;;;;;;;;;;;;;;;;;;;;;;;;;;;;;;;;;;;;;;;;;;;;;"1249";"2014-09-26 14:33:41.338";"NST_correctLoc";"4";"0";"FINISHED";"LEFT";"success";"344";"0";"2014-09-26 14:33:40.088";"1";;;;;;;;;;;;;;;;;;;;;;;;;;;;;;;;;
"174383";;;"Windows 7";"Rachel's Experiment (D.T.)";"1.0";"2";"1";"1";"2";"1";"1";"2014-09-26 14:27:33.141";"2014-09-26 14:42:32.204";"1";"0";"0";"102";"101";"module.training_block3.exec-1398.GoNoGo3";;;;;;;;;;;;;;;;;;;;;;;;;;;;;;;;;;;;;;;;;;;;;;;"1249";"2014-09-26 14:33:43.856";"NST_correctLoc";"18";"1";"FINISHED";"RIGHT";"success";"407";"0";"2014-09-26 14:33:42.606";"3";;;;;;;;;;;;;;;;;;;;;;;;;;;;;;;;;
"174383";;;"Windows 7";"Rachel's Experiment (D.T.)";"1.0";"2";"1";"1";"2";"1";"1";"2014-09-26 14:27:33.141";"2014-09-26 14:42:32.204";"1";"0";"0";"103";"102";"module.training_block3.exec-1398.GoNoGo3";;;;;;;;;;;;;;;;;;;;;;;;;;;;;;;;;;;;;;;;;;;;;;;"1249";"2014-09-26 14:33:46.376";"NST_correctLoc";"11";"0";"FINISHED";"LEFT";"success";"386";"0";"2014-09-26 14:33:45.126";"2";;;;;;;;;;;;;;;;;;;;;;;;;;;;;;;;;
"174383";;;"Windows 7";"Rachel's Experiment (D.T.)";"1.0";"2";"1";"1";"2";"1";"1";"2014-09-26 14:27:33.141";"2014-09-26 14:42:32.204";"1";"0";"0";"104";"103";"module.training_block3.exec-1398.GoNoGo3";;;;;;;;;;;;;;;;;;;;;;;;;;;;;;;;;;;;;;;;;;;;;;;"1249";"2014-09-26 14:33:48.894";"NST_correctLoc";"3";"1";"FINISHED";"RIGHT";"success";"325";"0";"2014-09-26 14:33:47.644";"1";;;;;;;;;;;;;;;;;;;;;;;;;;;;;;;;;
"174383";;;"Windows 7";"Rachel's Experiment (D.T.)";"1.0";"2";"1";"1";"2";"1";"1";"2014-09-26 14:27:33.141";"2014-09-26 14:42:32.204";"1";"0";"0";"105";"104";"module.training_block3.exec-1398.GoNoGo3";;;;;;;;;;;;;;;;;;;;;;;;;;;;;;;;;;;;;;;;;;;;;;;"1249";"2014-09-26 14:33:51.412";"NST_correctLoc";"10";"1";"FINISHED";"RIGHT";"success";"358";"0";"2014-09-26 14:33:50.162";"2";;;;;;;;;;;;;;;;;;;;;;;;;;;;;;;;;
"174383";;;"Windows 7";"Rachel's Experiment (D.T.)";"1.0";"2";"1";"1";"2";"1";"1";"2014-09-26 14:27:33.141";"2014-09-26 14:42:32.204";"1";"0";"0";"106";"105";"module.training_block3.exec-1398.GoNoGo3";;;;;;;;;;;;;;;;;;;;;;;;;;;;;;;;;;;;;;;;;;;;;;;"1249";"2014-09-26 14:33:53.929";"NST_correctLoc";"26";"0";"FINISHED";"LEFT";"success";"367";"0";"2014-09-26 14:33:52.679";"3";;;;;;;;;;;;;;;;;;;;;;;;;;;;;;;;;
"174383";;;"Windows 7";"Rachel's Experiment (D.T.)";"1.0";"2";"1";"1";"2";"1";"1";"2014-09-26 14:27:33.141";"2014-09-26 14:42:32.204";"1";"0";"0";"107";"106";"module.training_block3.exec-1398.GoNoGo3";;;;;;;;;;;;;;;;;;;;;;;;;;;;;;;;;;;;;;;;;;;;;;;"1249";"2014-09-26 14:33:56.447";"NST_correctLoc";"29";"0";"FINISHED";"LEFT";"success";"360";"0";"2014-09-26 14:33:55.197";"3";;;;;;;;;;;;;;;;;;;;;;;;;;;;;;;;;
"174383";;;"Windows 7";"Rachel's Experiment (D.T.)";"1.0";"2";"1";"1";"2";"1";"1";"2014-09-26 14:27:33.141";"2014-09-26 14:42:32.204";"1";"0";"0";"108";"107";"module.training_block3.exec-1398.GoNoGo3";;;;;;;;;;;;;;;;;;;;;;;;;;;;;;;;;;;;;;;;;;;;;;;"1249";"2014-09-26 14:33:58.964";"NST_correctLoc";"2";"0";"FINISHED";"LEFT";"success";"374";"0";"2014-09-26 14:33:57.714";"1";;;;;;;;;;;;;;;;;;;;;;;;;;;;;;;;;
"174383";;;"Windows 7";"Rachel's Experiment (D.T.)";"1.0";"2";"1";"1";"2";"1";"1";"2014-09-26 14:27:33.141";"2014-09-26 14:42:32.204";"1";"0";"0";"109";"108";"module.training_block3.exec-1398.GoNoGo3";;;;;;;;;;;;;;;;;;;;;;;;;;;;;;;;;;;;;;;;;;;;;;;"1249";"2014-09-26 14:34:01.481";"NST_correctLoc";"30";"0";"FINISHED";"LEFT";"success";"362";"0";"2014-09-26 14:34:00.231";"3";;;;;;;;;;;;;;;;;;;;;;;;;;;;;;;;;
"174383";;;"Windows 7";"Rachel's Experiment (D.T.)";"1.0";"2";"1";"1";"2";"1";"1";"2014-09-26 14:27:33.141";"2014-09-26 14:42:32.204";"1";"0";"0";"110";"109";"module.training_block3.exec-1398.GoNoGo3";;;;;;;;;;;;;;;;;;;;;;;;;;;;;;;;;;;;;;;;;;;;;;;"1249";"2014-09-26 14:34:03.999";"NST_correctLoc";"24";"1";"FINISHED";"RIGHT";"success";"309";"0";"2014-09-26 14:34:02.749";"3";;;;;;;;;;;;;;;;;;;;;;;;;;;;;;;;;
"174383";;;"Windows 7";"Rachel's Experiment (D.T.)";"1.0";"2";"1";"1";"2";"1";"1";"2014-09-26 14:27:33.141";"2014-09-26 14:42:32.204";"1";"0";"0";"111";"110";"module.training_block3.exec-1398.GoNoGo3";;;;;;;;;;;;;;;;;;;;;;;;;;;;;;;;;;;;;;;;;;;;;;;"1249";"2014-09-26 14:34:06.516";"NST_correctLoc";"13";"0";"FINISHED";"LEFT";"success";"361";"0";"2014-09-26 14:34:05.266";"2";;;;;;;;;;;;;;;;;;;;;;;;;;;;;;;;;
"174383";;;"Windows 7";"Rachel's Experiment (D.T.)";"1.0";"2";"1";"1";"2";"1";"1";"2014-09-26 14:27:33.141";"2014-09-26 14:42:32.204";"1";"0";"0";"112";"111";"module.training_block3.exec-1398.GoNoGo3";;;;;;;;;;;;;;;;;;;;;;;;;;;;;;;;;;;;;;;;;;;;;;;"1249";"2014-09-26 14:34:09.034";"NST_correctLoc";"16";"0";"FINISHED";"LEFT";"success";"373";"0";"2014-09-26 14:34:07.784";"2";;;;;;;;;;;;;;;;;;;;;;;;;;;;;;;;;
"174383";;;"Windows 7";"Rachel's Experiment (D.T.)";"1.0";"2";"1";"1";"2";"1";"1";"2014-09-26 14:27:33.141";"2014-09-26 14:42:32.204";"1";"0";"0";"113";"112";"module.training_block3.exec-1398.GoNoGo3";;;;;;;;;;;;;;;;;;;;;;;;;;;;;;;;;;;;;;;;;;;;;;;"1249";"2014-09-26 14:34:11.551";"NST_correctLoc";"21";"1";"FINISHED";"RIGHT";"success";"306";"0";"2014-09-26 14:34:10.301";"3";;;;;;;;;;;;;;;;;;;;;;;;;;;;;;;;;
"174383";;;"Windows 7";"Rachel's Experiment (D.T.)";"1.0";"2";"1";"1";"2";"1";"1";"2014-09-26 14:27:33.141";"2014-09-26 14:42:32.204";"1";"0";"0";"114";"113";"module.training_block3.exec-1398.GoNoGo3";;;;;;;;;;;;;;;;;;;;;;;;;;;;;;;;;;;;;;;;;;;;;;;"1249";"2014-09-26 14:34:14.068";"NST_correctLoc";"23";"1";"FINISHED";"RIGHT";"success";"406";"0";"2014-09-26 14:34:12.818";"3";;;;;;;;;;;;;;;;;;;;;;;;;;;;;;;;;
"174383";;;"Windows 7";"Rachel's Experiment (D.T.)";"1.0";"2";"1";"1";"2";"1";"1";"2014-09-26 14:27:33.141";"2014-09-26 14:42:32.204";"1";"0";"0";"115";"114";"module.training_block3.exec-1398.GoNoGo3";;;;;;;;;;;;;;;;;;;;;;;;;;;;;;;;;;;;;;;;;;;;;;;"1249";"2014-09-26 14:34:16.585";"NST_correctLoc";"32";"0";"FINISHED";"LEFT";"success";"380";"0";"2014-09-26 14:34:15.335";"3";;;;;;;;;;;;;;;;;;;;;;;;;;;;;;;;;
"174383";;;"Windows 7";"Rachel's Experiment (D.T.)";"1.0";"2";"1";"1";"2";"1";"1";"2014-09-26 14:27:33.141";"2014-09-26 14:42:32.204";"1";"0";"0";"116";"115";"module.training_block3.exec-1398.GoNoGo3";;;;;;;;;;;;;;;;;;;;;;;;;;;;;;;;;;;;;;;;;;;;;;;"1249";"2014-09-26 14:34:19.103";"NST_correctLoc";"34";"0";"FINISHED";"LEFT";"success";"367";"0";"2014-09-26 14:34:17.853";"3";;;;;;;;;;;;;;;;;;;;;;;;;;;;;;;;;
"174383";;;"Windows 7";"Rachel's Experiment (D.T.)";"1.0";"2";"1";"1";"2";"1";"1";"2014-09-26 14:27:33.141";"2014-09-26 14:42:32.204";"1";"0";"0";"117";"116";"module.training_block3.exec-1398.GoNoGo3";;;;;;;;;;;;;;;;;;;;;;;;;;;;;;;;;;;;;;;;;;;;;;;"1249";"2014-09-26 14:34:21.620";"NST_correctLoc";"22";"1";"FINISHED";"RIGHT";"success";"331";"0";"2014-09-26 14:34:20.370";"3";;;;;;;;;;;;;;;;;;;;;;;;;;;;;;;;;
"174383";;;"Windows 7";"Rachel's Experiment (D.T.)";"1.0";"2";"1";"1";"2";"1";"1";"2014-09-26 14:27:33.141";"2014-09-26 14:42:32.204";"1";"0";"0";"118";"117";"module.training_block3.exec-1398.GoNoGo3";;;;;;;;;;;;;;;;;;;;;;;;;;;;;;;;;;;;;;;;;;;;;;;"1249";"2014-09-26 14:34:24.137";"NST_correctLoc";"14";"0";"FINISHED";"LEFT";"success";"359";"0";"2014-09-26 14:34:22.887";"2";;;;;;;;;;;;;;;;;;;;;;;;;;;;;;;;;
"174383";;;"Windows 7";"Rachel's Experiment (D.T.)";"1.0";"2";"1";"1";"2";"1";"1";"2014-09-26 14:27:33.141";"2014-09-26 14:42:32.204";"1";"0";"0";"119";"118";"module.training_block3.exec-1398.GoNoGo3";;;;;;;;;;;;;;;;;;;;;;;;;;;;;;;;;;;;;;;;;;;;;;;"1249";"2014-09-26 14:34:26.654";"NST_correctLoc";"1";"0";"FINISHED";"LEFT";"success";"353";"0";"2014-09-26 14:34:25.404";"1";;;;;;;;;;;;;;;;;;;;;;;;;;;;;;;;;
"174383";;;"Windows 7";"Rachel's Experiment (D.T.)";"1.0";"2";"1";"1";"2";"1";"1";"2014-09-26 14:27:33.141";"2014-09-26 14:42:32.204";"1";"0";"0";"120";"119";"module.training_block3.exec-1398.GoNoGo3";;;;;;;;;;;;;;;;;;;;;;;;;;;;;;;;;;;;;;;;;;;;;;;"1249";"2014-09-26 14:34:29.170";"NST_correctLoc";"28";"1";"FINISHED";"RIGHT";"success";"301";"0";"2014-09-26 14:34:27.920";"3";;;;;;;;;;;;;;;;;;;;;;;;;;;;;;;;;
"174383";;;"Windows 7";"Rachel's Experiment (D.T.)";"1.0";"2";"1";"1";"2";"1";"1";"2014-09-26 14:27:33.141";"2014-09-26 14:42:32.204";"1";"0";"0";"121";"120";"module.training_block3.exec-1398.GoNoGo3";;;;;;;;;;;;;;;;;;;;;;;;;;;;;;;;;;;;;;;;;;;;;;;"1249";"2014-09-26 14:34:31.687";"NST_correctLoc";"27";"0";"FINISHED";"LEFT";"success";"373";"0";"2014-09-26 14:34:30.437";"3";;;;;;;;;;;;;;;;;;;;;;;;;;;;;;;;;
"174383";;;"Windows 7";"Rachel's Experiment (D.T.)";"1.0";"2";"1";"1";"2";"1";"1";"2014-09-26 14:27:33.141";"2014-09-26 14:42:32.204";"1";"0";"0";"122";"121";"module.training_block3.exec-1398.GoNoGo3";;;;;;;;;;;;;;;;;;;;;;;;;;;;;;;;;;;;;;;;;;;;;;;"1249";"2014-09-26 14:34:34.204";"NST_correctLoc";"15";"1";"FINISHED";"RIGHT";"success";"285";"0";"2014-09-26 14:34:32.954";"2";;;;;;;;;;;;;;;;;;;;;;;;;;;;;;;;;
"174383";;;"Windows 7";"Rachel's Experiment (D.T.)";"1.0";"2";"1";"1";"2";"1";"1";"2014-09-26 14:27:33.141";"2014-09-26 14:42:32.204";"1";"0";"0";"123";"122";"module.training_block3.exec-1398.GoNoGo3";;;;;;;;;;;;;;;;;;;;;;;;;;;;;;;;;;;;;;;;;;;;;;;"1249";"2014-09-26 14:34:36.721";"NST_correctLoc";"6";"0";"FINISHED";"LEFT";"success";"367";"0";"2014-09-26 14:34:35.471";"1";;;;;;;;;;;;;;;;;;;;;;;;;;;;;;;;;
"174383";;;"Windows 7";"Rachel's Experiment (D.T.)";"1.0";"2";"1";"1";"2";"1";"1";"2014-09-26 14:27:33.141";"2014-09-26 14:42:32.204";"1";"0";"0";"124";"123";"module.training_block4.exec-5863.GoNoGo4";;;;;;;;;;;;;;;;;;;;;;;;;;;;;;;;;;;;;;;;;;;;;;;;;;;;;;;;;;;"1249";"2014-09-26 14:34:48.334";"NST_correctLoc";"31";"0";"FINISHED";"LEFT";"success";"378";"0";"2014-09-26 14:34:47.084";"3";;;;;;;;;;;;;;;;;;;;;
"174383";;;"Windows 7";"Rachel's Experiment (D.T.)";"1.0";"2";"1";"1";"2";"1";"1";"2014-09-26 14:27:33.141";"2014-09-26 14:42:32.204";"1";"0";"0";"125";"124";"module.training_block4.exec-5863.GoNoGo4";;;;;;;;;;;;;;;;;;;;;;;;;;;;;;;;;;;;;;;;;;;;;;;;;;;;;;;;;;;"1249";"2014-09-26 14:34:50.851";"NST_correctLoc";"21";"0";"FINISHED";"LEFT";"success";"348";"0";"2014-09-26 14:34:49.601";"3";;;;;;;;;;;;;;;;;;;;;
"174383";;;"Windows 7";"Rachel's Experiment (D.T.)";"1.0";"2";"1";"1";"2";"1";"1";"2014-09-26 14:27:33.141";"2014-09-26 14:42:32.204";"1";"0";"0";"126";"125";"module.training_block4.exec-5863.GoNoGo4";;;;;;;;;;;;;;;;;;;;;;;;;;;;;;;;;;;;;;;;;;;;;;;;;;;;;;;;;;;"1249";"2014-09-26 14:34:53.368";"NST_correctLoc";"3";"1";"FINISHED";"RIGHT";"success";"279";"0";"2014-09-26 14:34:52.118";"1";;;;;;;;;;;;;;;;;;;;;
"174383";;;"Windows 7";"Rachel's Experiment (D.T.)";"1.0";"2";"1";"1";"2";"1";"1";"2014-09-26 14:27:33.141";"2014-09-26 14:42:32.204";"1";"0";"0";"127";"126";"module.training_block4.exec-5863.GoNoGo4";;;;;;;;;;;;;;;;;;;;;;;;;;;;;;;;;;;;;;;;;;;;;;;;;;;;;;;;;;;"1249";"2014-09-26 14:34:55.884";"NST_correctLoc";"30";"0";"FINISHED";"LEFT";"success";"384";"0";"2014-09-26 14:34:54.634";"3";;;;;;;;;;;;;;;;;;;;;
"174383";;;"Windows 7";"Rachel's Experiment (D.T.)";"1.0";"2";"1";"1";"2";"1";"1";"2014-09-26 14:27:33.141";"2014-09-26 14:42:32.204";"1";"0";"0";"128";"127";"module.training_block4.exec-5863.GoNoGo4";;;;;;;;;;;;;;;;;;;;;;;;;;;;;;;;;;;;;;;;;;;;;;;;;;;;;;;;;;;"1249";"2014-09-26 14:34:58.401";"NST_correctLoc";"8";"1";"FINISHED";"RIGHT";"success";"300";"0";"2014-09-26 14:34:57.151";"1";;;;;;;;;;;;;;;;;;;;;
"174383";;;"Windows 7";"Rachel's Experiment (D.T.)";"1.0";"2";"1";"1";"2";"1";"1";"2014-09-26 14:27:33.141";"2014-09-26 14:42:32.204";"1";"0";"0";"129";"128";"module.training_block4.exec-5863.GoNoGo4";;;;;;;;;;;;;;;;;;;;;;;;;;;;;;;;;;;;;;;;;;;;;;;;;;;;;;;;;;;"1249";"2014-09-26 14:35:00.917";"NST_correctLoc";"5";"0";"FINISHED";"LEFT";"success";"343";"0";"2014-09-26 14:34:59.667";"1";;;;;;;;;;;;;;;;;;;;;
"174383";;;"Windows 7";"Rachel's Experiment (D.T.)";"1.0";"2";"1";"1";"2";"1";"1";"2014-09-26 14:27:33.141";"2014-09-26 14:42:32.204";"1";"0";"0";"130";"129";"module.training_block4.exec-5863.GoNoGo4";;;;;;;;;;;;;;;;;;;;;;;;;;;;;;;;;;;;;;;;;;;;;;;;;;;;;;;;;;;"1249";"2014-09-26 14:35:03.434";"NST_correctLoc";"22";"1";"FINISHED";"RIGHT";"success";"291";"0";"2014-09-26 14:35:02.184";"3";;;;;;;;;;;;;;;;;;;;;
"174383";;;"Windows 7";"Rachel's Experiment (D.T.)";"1.0";"2";"1";"1";"2";"1";"1";"2014-09-26 14:27:33.141";"2014-09-26 14:42:32.204";"1";"0";"0";"131";"130";"module.training_block4.exec-5863.GoNoGo4";;;;;;;;;;;;;;;;;;;;;;;;;;;;;;;;;;;;;;;;;;;;;;;;;;;;;;;;;;;"1249";"2014-09-26 14:35:05.951";"NST_correctLoc";"9";"1";"FINISHED";"RIGHT";"success";"323";"0";"2014-09-26 14:35:04.701";"2";;;;;;;;;;;;;;;;;;;;;
"174383";;;"Windows 7";"Rachel's Experiment (D.T.)";"1.0";"2";"1";"1";"2";"1";"1";"2014-09-26 14:27:33.141";"2014-09-26 14:42:32.204";"1";"0";"0";"132";"131";"module.training_block4.exec-5863.GoNoGo4";;;;;;;;;;;;;;;;;;;;;;;;;;;;;;;;;;;;;;;;;;;;;;;;;;;;;;;;;;;"1249";"2014-09-26 14:35:08.467";"NST_correctLoc";"28";"1";"FINISHED";"RIGHT";"success";"338";"0";"2014-09-26 14:35:07.217";"3";;;;;;;;;;;;;;;;;;;;;
"174383";;;"Windows 7";"Rachel's Experiment (D.T.)";"1.0";"2";"1";"1";"2";"1";"1";"2014-09-26 14:27:33.141";"2014-09-26 14:42:32.204";"1";"0";"0";"133";"132";"module.training_block4.exec-5863.GoNoGo4";;;;;;;;;;;;;;;;;;;;;;;;;;;;;;;;;;;;;;;;;;;;;;;;;;;;;;;;;;;"1249";"2014-09-26 14:35:10.984";"NST_correctLoc";"24";"1";"FINISHED";"RIGHT";"success";"354";"0";"2014-09-26 14:35:09.734";"3";;;;;;;;;;;;;;;;;;;;;
"174383";;;"Windows 7";"Rachel's Experiment (D.T.)";"1.0";"2";"1";"1";"2";"1";"1";"2014-09-26 14:27:33.141";"2014-09-26 14:42:32.204";"1";"0";"0";"134";"133";"module.training_block4.exec-5863.GoNoGo4";;;;;;;;;;;;;;;;;;;;;;;;;;;;;;;;;;;;;;;;;;;;;;;;;;;;;;;;;;;"1249";"2014-09-26 14:35:13.500";"NST_correctLoc";"19";"1";"FINISHED";"RIGHT";"success";"323";"0";"2014-09-26 14:35:12.250";"3";;;;;;;;;;;;;;;;;;;;;
"174383";;;"Windows 7";"Rachel's Experiment (D.T.)";"1.0";"2";"1";"1";"2";"1";"1";"2014-09-26 14:27:33.141";"2014-09-26 14:42:32.204";"1";"0";"0";"135";"134";"module.training_block4.exec-5863.GoNoGo4";;;;;;;;;;;;;;;;;;;;;;;;;;;;;;;;;;;;;;;;;;;;;;;;;;;;;;;;;;;"1249";"2014-09-26 14:35:16.017";"NST_correctLoc";"16";"0";"FINISHED";"LEFT";"success";"537";"0";"2014-09-26 14:35:14.767";"2";;;;;;;;;;;;;;;;;;;;;
"174383";;;"Windows 7";"Rachel's Experiment (D.T.)";"1.0";"2";"1";"1";"2";"1";"1";"2014-09-26 14:27:33.141";"2014-09-26 14:42:32.204";"1";"0";"0";"136";"135";"module.training_block4.exec-5863.GoNoGo4";;;;;;;;;;;;;;;;;;;;;;;;;;;;;;;;;;;;;;;;;;;;;;;;;;;;;;;;;;;"1249";"2014-09-26 14:35:18.534";"NST_correctLoc";"15";"0";"FINISHED";"LEFT";"success";"731";"0";"2014-09-26 14:35:17.284";"2";;;;;;;;;;;;;;;;;;;;;
"174383";;;"Windows 7";"Rachel's Experiment (D.T.)";"1.0";"2";"1";"1";"2";"1";"1";"2014-09-26 14:27:33.141";"2014-09-26 14:42:32.204";"1";"0";"0";"137";"136";"module.training_block4.exec-5863.GoNoGo4";;;;;;;;;;;;;;;;;;;;;;;;;;;;;;;;;;;;;;;;;;;;;;;;;;;;;;;;;;;"1249";"2014-09-26 14:35:21.050";"NST_correctLoc";"23";"1";"FINISHED";"RIGHT";"success";"415";"0";"2014-09-26 14:35:19.800";"3";;;;;;;;;;;;;;;;;;;;;
"174383";;;"Windows 7";"Rachel's Experiment (D.T.)";"1.0";"2";"1";"1";"2";"1";"1";"2014-09-26 14:27:33.141";"2014-09-26 14:42:32.204";"1";"0";"0";"138";"137";"module.training_block4.exec-5863.GoNoGo4";;;;;;;;;;;;;;;;;;;;;;;;;;;;;;;;;;;;;;;;;;;;;;;;;;;;;;;;;;;"1249";"2014-09-26 14:35:23.568";"NST_wrongLoc";"6";"1";"FINISHED";"LEFT";"failure";"533";"0";"2014-09-26 14:35:22.318";"1";;;;;;;;;;;;;;;;;;;;;
"174383";;;"Windows 7";"Rachel's Experiment (D.T.)";"1.0";"2";"1";"1";"2";"1";"1";"2014-09-26 14:27:33.141";"2014-09-26 14:42:32.204";"1";"0";"0";"139";"138";"module.training_block4.exec-5863.GoNoGo4";;;;;;;;;;;;;;;;;;;;;;;;;;;;;;;;;;;;;;;;;;;;;;;;;;;;;;;;;;;"1249";"2014-09-26 14:35:26.084";"NST_correctLoc";"1";"0";"FINISHED";"LEFT";"success";"473";"0";"2014-09-26 14:35:24.834";"1";;;;;;;;;;;;;;;;;;;;;
"174383";;;"Windows 7";"Rachel's Experiment (D.T.)";"1.0";"2";"1";"1";"2";"1";"1";"2014-09-26 14:27:33.141";"2014-09-26 14:42:32.204";"1";"0";"0";"140";"139";"module.training_block4.exec-5863.GoNoGo4";;;;;;;;;;;;;;;;;;;;;;;;;;;;;;;;;;;;;;;;;;;;;;;;;;;;;;;;;;;"1249";"2014-09-26 14:35:28.601";"NST_correctLoc";"10";"1";"FINISHED";"RIGHT";"success";"334";"0";"2014-09-26 14:35:27.351";"2";;;;;;;;;;;;;;;;;;;;;
"174383";;;"Windows 7";"Rachel's Experiment (D.T.)";"1.0";"2";"1";"1";"2";"1";"1";"2014-09-26 14:27:33.141";"2014-09-26 14:42:32.204";"1";"0";"0";"141";"140";"module.training_block4.exec-5863.GoNoGo4";;;;;;;;;;;;;;;;;;;;;;;;;;;;;;;;;;;;;;;;;;;;;;;;;;;;;;;;;;;"1249";"2014-09-26 14:35:31.118";"NST_correctLoc";"18";"0";"FINISHED";"LEFT";"success";"363";"0";"2014-09-26 14:35:29.868";"3";;;;;;;;;;;;;;;;;;;;;
"174383";;;"Windows 7";"Rachel's Experiment (D.T.)";"1.0";"2";"1";"1";"2";"1";"1";"2014-09-26 14:27:33.141";"2014-09-26 14:42:32.204";"1";"0";"0";"142";"141";"module.training_block4.exec-5863.GoNoGo4";;;;;;;;;;;;;;;;;;;;;;;;;;;;;;;;;;;;;;;;;;;;;;;;;;;;;;;;;;;"1249";"2014-09-26 14:35:33.634";"NST_correctLoc";"20";"1";"FINISHED";"RIGHT";"success";"319";"0";"2014-09-26 14:35:32.384";"3";;;;;;;;;;;;;;;;;;;;;
"174383";;;"Windows 7";"Rachel's Experiment (D.T.)";"1.0";"2";"1";"1";"2";"1";"1";"2014-09-26 14:27:33.141";"2014-09-26 14:42:32.204";"1";"0";"0";"143";"142";"module.training_block4.exec-5863.GoNoGo4";;;;;;;;;;;;;;;;;;;;;;;;;;;;;;;;;;;;;;;;;;;;;;;;;;;;;;;;;;;"1249";"2014-09-26 14:35:36.152";"NST_correctLoc";"35";"1";"FINISHED";"RIGHT";"success";"358";"0";"2014-09-26 14:35:34.902";"3";;;;;;;;;;;;;;;;;;;;;
"174383";;;"Windows 7";"Rachel's Experiment (D.T.)";"1.0";"2";"1";"1";"2";"1";"1";"2014-09-26 14:27:33.141";"2014-09-26 14:42:32.204";"1";"0";"0";"144";"143";"module.training_block4.exec-5863.GoNoGo4";;;;;;;;;;;;;;;;;;;;;;;;;;;;;;;;;;;;;;;;;;;;;;;;;;;;;;;;;;;"1249";"2014-09-26 14:35:38.668";"NST_correctLoc";"0";"1";"FINISHED";"RIGHT";"success";"350";"0";"2014-09-26 14:35:37.418";"1";;;;;;;;;;;;;;;;;;;;;
"174383";;;"Windows 7";"Rachel's Experiment (D.T.)";"1.0";"2";"1";"1";"2";"1";"1";"2014-09-26 14:27:33.141";"2014-09-26 14:42:32.204";"1";"0";"0";"145";"144";"module.training_block4.exec-5863.GoNoGo4";;;;;;;;;;;;;;;;;;;;;;;;;;;;;;;;;;;;;;;;;;;;;;;;;;;;;;;;;;;"1249";"2014-09-26 14:35:41.184";"NST_correctLoc";"12";"1";"FINISHED";"RIGHT";"success";"386";"0";"2014-09-26 14:35:39.934";"2";;;;;;;;;;;;;;;;;;;;;
"174383";;;"Windows 7";"Rachel's Experiment (D.T.)";"1.0";"2";"1";"1";"2";"1";"1";"2014-09-26 14:27:33.141";"2014-09-26 14:42:32.204";"1";"0";"0";"146";"145";"module.training_block4.exec-5863.GoNoGo4";;;;;;;;;;;;;;;;;;;;;;;;;;;;;;;;;;;;;;;;;;;;;;;;;;;;;;;;;;;"1249";"2014-09-26 14:35:43.700";"NST_correctLoc";"27";"1";"FINISHED";"RIGHT";"success";"356";"0";"2014-09-26 14:35:42.450";"3";;;;;;;;;;;;;;;;;;;;;
"174383";;;"Windows 7";"Rachel's Experiment (D.T.)";"1.0";"2";"1";"1";"2";"1";"1";"2014-09-26 14:27:33.141";"2014-09-26 14:42:32.204";"1";"0";"0";"147";"146";"module.training_block4.exec-5863.GoNoGo4";;;;;;;;;;;;;;;;;;;;;;;;;;;;;;;;;;;;;;;;;;;;;;;;;;;;;;;;;;;"1249";"2014-09-26 14:35:46.216";"NST_correctLoc";"11";"1";"FINISHED";"RIGHT";"success";"448";"0";"2014-09-26 14:35:44.966";"2";;;;;;;;;;;;;;;;;;;;;
"174383";;;"Windows 7";"Rachel's Experiment (D.T.)";"1.0";"2";"1";"1";"2";"1";"1";"2014-09-26 14:27:33.141";"2014-09-26 14:42:32.204";"1";"0";"0";"148";"147";"module.training_block4.exec-5863.GoNoGo4";;;;;;;;;;;;;;;;;;;;;;;;;;;;;;;;;;;;;;;;;;;;;;;;;;;;;;;;;;;"1249";"2014-09-26 14:35:48.733";"NST_correctLoc";"14";"0";"FINISHED";"LEFT";"success";"432";"0";"2014-09-26 14:35:47.483";"2";;;;;;;;;;;;;;;;;;;;;
"174383";;;"Windows 7";"Rachel's Experiment (D.T.)";"1.0";"2";"1";"1";"2";"1";"1";"2014-09-26 14:27:33.141";"2014-09-26 14:42:32.204";"1";"0";"0";"149";"148";"module.training_block4.exec-5863.GoNoGo4";;;;;;;;;;;;;;;;;;;;;;;;;;;;;;;;;;;;;;;;;;;;;;;;;;;;;;;;;;;"1249";"2014-09-26 14:35:51.252";"NST_correctLoc";"4";"1";"FINISHED";"RIGHT";"success";"529";"0";"2014-09-26 14:35:50.002";"1";;;;;;;;;;;;;;;;;;;;;
"174383";;;"Windows 7";"Rachel's Experiment (D.T.)";"1.0";"2";"1";"1";"2";"1";"1";"2014-09-26 14:27:33.141";"2014-09-26 14:42:32.204";"1";"0";"0";"150";"149";"module.training_block4.exec-5863.GoNoGo4";;;;;;;;;;;;;;;;;;;;;;;;;;;;;;;;;;;;;;;;;;;;;;;;;;;;;;;;;;;"1249";"2014-09-26 14:35:53.769";"NST_correctLoc";"29";"1";"FINISHED";"RIGHT";"success";"457";"0";"2014-09-26 14:35:52.519";"3";;;;;;;;;;;;;;;;;;;;;
"174383";;;"Windows 7";"Rachel's Experiment (D.T.)";"1.0";"2";"1";"1";"2";"1";"1";"2014-09-26 14:27:33.141";"2014-09-26 14:42:32.204";"1";"0";"0";"151";"150";"module.training_block4.exec-5863.GoNoGo4";;;;;;;;;;;;;;;;;;;;;;;;;;;;;;;;;;;;;;;;;;;;;;;;;;;;;;;;;;;"1249";"2014-09-26 14:35:56.285";"NST_correctLoc";"32";"0";"FINISHED";"LEFT";"success";"393";"0";"2014-09-26 14:35:55.035";"3";;;;;;;;;;;;;;;;;;;;;
"174383";;;"Windows 7";"Rachel's Experiment (D.T.)";"1.0";"2";"1";"1";"2";"1";"1";"2014-09-26 14:27:33.141";"2014-09-26 14:42:32.204";"1";"0";"0";"152";"151";"module.training_block4.exec-5863.GoNoGo4";;;;;;;;;;;;;;;;;;;;;;;;;;;;;;;;;;;;;;;;;;;;;;;;;;;;;;;;;;;"1249";"2014-09-26 14:35:58.800";"NST_correctLoc";"7";"0";"FINISHED";"LEFT";"success";"393";"0";"2014-09-26 14:35:57.550";"1";;;;;;;;;;;;;;;;;;;;;
"174383";;;"Windows 7";"Rachel's Experiment (D.T.)";"1.0";"2";"1";"1";"2";"1";"1";"2014-09-26 14:27:33.141";"2014-09-26 14:42:32.204";"1";"0";"0";"153";"152";"module.training_block4.exec-5863.GoNoGo4";;;;;;;;;;;;;;;;;;;;;;;;;;;;;;;;;;;;;;;;;;;;;;;;;;;;;;;;;;;"1249";"2014-09-26 14:36:01.317";"NST_correctLoc";"33";"0";"FINISHED";"LEFT";"success";"420";"0";"2014-09-26 14:36:00.067";"3";;;;;;;;;;;;;;;;;;;;;
"174383";;;"Windows 7";"Rachel's Experiment (D.T.)";"1.0";"2";"1";"1";"2";"1";"1";"2014-09-26 14:27:33.141";"2014-09-26 14:42:32.204";"1";"0";"0";"154";"153";"module.training_block4.exec-5863.GoNoGo4";;;;;;;;;;;;;;;;;;;;;;;;;;;;;;;;;;;;;;;;;;;;;;;;;;;;;;;;;;;"1249";"2014-09-26 14:36:03.833";"NST_correctLoc";"2";"1";"FINISHED";"RIGHT";"success";"352";"0";"2014-09-26 14:36:02.583";"1";;;;;;;;;;;;;;;;;;;;;
"174383";;;"Windows 7";"Rachel's Experiment (D.T.)";"1.0";"2";"1";"1";"2";"1";"1";"2014-09-26 14:27:33.141";"2014-09-26 14:42:32.204";"1";"0";"0";"155";"154";"module.training_block4.exec-5863.GoNoGo4";;;;;;;;;;;;;;;;;;;;;;;;;;;;;;;;;;;;;;;;;;;;;;;;;;;;;;;;;;;"1249";"2014-09-26 14:36:06.348";"NST_correctLoc";"34";"1";"FINISHED";"RIGHT";"success";"409";"0";"2014-09-26 14:36:05.098";"3";;;;;;;;;;;;;;;;;;;;;
"174383";;;"Windows 7";"Rachel's Experiment (D.T.)";"1.0";"2";"1";"1";"2";"1";"1";"2014-09-26 14:27:33.141";"2014-09-26 14:42:32.204";"1";"0";"0";"156";"155";"module.training_block4.exec-5863.GoNoGo4";;;;;;;;;;;;;;;;;;;;;;;;;;;;;;;;;;;;;;;;;;;;;;;;;;;;;;;;;;;"1249";"2014-09-26 14:36:08.864";"NST_correctLoc";"25";"0";"FINISHED";"LEFT";"success";"383";"0";"2014-09-26 14:36:07.614";"3";;;;;;;;;;;;;;;;;;;;;
"174383";;;"Windows 7";"Rachel's Experiment (D.T.)";"1.0";"2";"1";"1";"2";"1";"1";"2014-09-26 14:27:33.141";"2014-09-26 14:42:32.204";"1";"0";"0";"157";"156";"module.training_block4.exec-5863.GoNoGo4";;;;;;;;;;;;;;;;;;;;;;;;;;;;;;;;;;;;;;;;;;;;;;;;;;;;;;;;;;;"1249";"2014-09-26 14:36:11.379";"NST_correctLoc";"17";"0";"FINISHED";"LEFT";"success";"432";"0";"2014-09-26 14:36:10.129";"2";;;;;;;;;;;;;;;;;;;;;
"174383";;;"Windows 7";"Rachel's Experiment (D.T.)";"1.0";"2";"1";"1";"2";"1";"1";"2014-09-26 14:27:33.141";"2014-09-26 14:42:32.204";"1";"0";"0";"158";"157";"module.training_block4.exec-5863.GoNoGo4";;;;;;;;;;;;;;;;;;;;;;;;;;;;;;;;;;;;;;;;;;;;;;;;;;;;;;;;;;;"1249";"2014-09-26 14:36:13.895";"NST_correctLoc";"13";"1";"FINISHED";"RIGHT";"success";"304";"0";"2014-09-26 14:36:12.645";"2";;;;;;;;;;;;;;;;;;;;;
"174383";;;"Windows 7";"Rachel's Experiment (D.T.)";"1.0";"2";"1";"1";"2";"1";"1";"2014-09-26 14:27:33.141";"2014-09-26 14:42:32.204";"1";"0";"0";"159";"158";"module.training_block4.exec-5863.GoNoGo4";;;;;;;;;;;;;;;;;;;;;;;;;;;;;;;;;;;;;;;;;;;;;;;;;;;;;;;;;;;"1249";"2014-09-26 14:36:16.411";"NST_correctLoc";"26";"0";"FINISHED";"LEFT";"success";"331";"0";"2014-09-26 14:36:15.161";"3";;;;;;;;;;;;;;;;;;;;;
"174383";;;"Windows 7";"Rachel's Experiment (D.T.)";"1.0";"2";"1";"1";"2";"1";"1";"2014-09-26 14:27:33.141";"2014-09-26 14:42:32.204";"1";"0";"0";"160";"159";"module.devaluation_practice.exec-3195.devalPractice";;;;;;;;;;;;"11485";"2014-09-26 14:37:10.444";"0";"5";"5";"5";"3970";"1053";"3428";"2014-09-26 14:36:58.958";;;;;;;;;;;;;;;;;;;;;;;;;;;;;;;;;;;;;;;;;;;;;;;;;;;;;;;;;;;;;;;;;;;;;;
"174383";;;"Windows 7";"Rachel's Experiment (D.T.)";"1.0";"2";"1";"1";"2";"1";"1";"2014-09-26 14:27:33.141";"2014-09-26 14:42:32.204";"1";"0";"0";"161";"160";"module.devaluation_practice.exec-3195.devalPractice";;;;;;;;;;;;"15973";"2014-09-26 14:37:26.437";"1";"4";"3";"6";"6153";"2404";"4410";"2014-09-26 14:37:10.463";;;;;;;;;;;;;;;;;;;;;;;;;;;;;;;;;;;;;;;;;;;;;;;;;;;;;;;;;;;;;;;;;;;;;;
"174383";;;"Windows 7";"Rachel's Experiment (D.T.)";"1.0";"2";"1";"1";"2";"1";"1";"2014-09-26 14:27:33.141";"2014-09-26 14:42:32.204";"1";"0";"0";"162";"161";"module.devaluation_practice.exec-3195.devalPractice";;;;;;;;;;;;"14231";"2014-09-26 14:37:40.687";"2";"4";"6";"5";"5736";"2474";"3014";"2014-09-26 14:37:26.456";;;;;;;;;;;;;;;;;;;;;;;;;;;;;;;;;;;;;;;;;;;;;;;;;;;;;;;;;;;;;;;;;;;;;;
"174383";;;"Windows 7";"Rachel's Experiment (D.T.)";"1.0";"2";"1";"1";"2";"1";"1";"2014-09-26 14:27:33.141";"2014-09-26 14:42:32.204";"1";"0";"0";"163";"162";"module.devaluation_practice.exec-3195.devalPractice";;;;;;;;;;;;"10972";"2014-09-26 14:37:51.678";"3";"6";"5";"6";"4083";"1929";"1938";"2014-09-26 14:37:40.706";;;;;;;;;;;;;;;;;;;;;;;;;;;;;;;;;;;;;;;;;;;;;;;;;;;;;;;;;;;;;;;;;;;;;;
"174383";;;"Windows 7";"Rachel's Experiment (D.T.)";"1.0";"2";"1";"1";"2";"1";"1";"2014-09-26 14:27:33.141";"2014-09-26 14:42:32.204";"1";"0";"0";"164";"163";"module.devaluation_block1.exec-4068.deval1";"10913";"2014-09-26 14:38:07.518";"12";"7";"6";"7";"2092";"1511";"4301";"2014-09-26 14:37:56.604";"2";;;;;;;;;;;;;;;;;;;;;;;;;;;;;;;;;;;;;;;;;;;;;;;;;;;;;;;;;;;;;;;;;;;;;;;;;;;;;;;;
"174383";;;"Windows 7";"Rachel's Experiment (D.T.)";"1.0";"2";"1";"1";"2";"1";"1";"2014-09-26 14:27:33.141";"2014-09-26 14:42:32.204";"1";"0";"0";"165";"164";"module.devaluation_block1.exec-4068.deval1";"8319";"2014-09-26 14:38:15.857";"11";"6";"3";"3";"946";"2196";"2169";"2014-09-26 14:38:07.537";"2";;;;;;;;;;;;;;;;;;;;;;;;;;;;;;;;;;;;;;;;;;;;;;;;;;;;;;;;;;;;;;;;;;;;;;;;;;;;;;;;
"174383";;;"Windows 7";"Rachel's Experiment (D.T.)";"1.0";"2";"1";"1";"2";"1";"1";"2014-09-26 14:27:33.141";"2014-09-26 14:42:32.204";"1";"0";"0";"166";"165";"module.devaluation_block1.exec-4068.deval1";"12693";"2014-09-26 14:38:28.568";"3";"3";"4";"7";"3114";"1840";"4731";"2014-09-26 14:38:15.875";"1";;;;;;;;;;;;;;;;;;;;;;;;;;;;;;;;;;;;;;;;;;;;;;;;;;;;;;;;;;;;;;;;;;;;;;;;;;;;;;;;
"174383";;;"Windows 7";"Rachel's Experiment (D.T.)";"1.0";"2";"1";"1";"2";"1";"1";"2014-09-26 14:27:33.141";"2014-09-26 14:42:32.204";"1";"0";"0";"167";"166";"module.devaluation_block1.exec-4068.deval1";"8859";"2014-09-26 14:38:37.448";"25";"6";"6";"7";"1005";"2632";"2214";"2014-09-26 14:38:28.588";"3";;;;;;;;;;;;;;;;;;;;;;;;;;;;;;;;;;;;;;;;;;;;;;;;;;;;;;;;;;;;;;;;;;;;;;;;;;;;;;;;
"174383";;;"Windows 7";"Rachel's Experiment (D.T.)";"1.0";"2";"1";"1";"2";"1";"1";"2014-09-26 14:27:33.141";"2014-09-26 14:42:32.204";"1";"0";"0";"168";"167";"module.devaluation_block1.exec-4068.deval1";"8718";"2014-09-26 14:38:46.185";"26";"8";"6";"8";"1417";"1724";"2570";"2014-09-26 14:38:37.467";"3";;;;;;;;;;;;;;;;;;;;;;;;;;;;;;;;;;;;;;;;;;;;;;;;;;;;;;;;;;;;;;;;;;;;;;;;;;;;;;;;
"174383";;;"Windows 7";"Rachel's Experiment (D.T.)";"1.0";"2";"1";"1";"2";"1";"1";"2014-09-26 14:27:33.141";"2014-09-26 14:42:32.204";"1";"0";"0";"169";"168";"module.devaluation_block1.exec-4068.deval1";"7896";"2014-09-26 14:38:54.102";"22";"6";"5";"7";"969";"2656";"1263";"2014-09-26 14:38:46.206";"3";;;;;;;;;;;;;;;;;;;;;;;;;;;;;;;;;;;;;;;;;;;;;;;;;;;;;;;;;;;;;;;;;;;;;;;;;;;;;;;;
"174383";;;"Windows 7";"Rachel's Experiment (D.T.)";"1.0";"2";"1";"1";"2";"1";"1";"2014-09-26 14:27:33.141";"2014-09-26 14:42:32.204";"1";"0";"0";"170";"169";"module.devaluation_block1.exec-4068.deval1";"11205";"2014-09-26 14:39:05.333";"18";"3";"5";"7";"1363";"1970";"4866";"2014-09-26 14:38:54.127";"3";;;;;;;;;;;;;;;;;;;;;;;;;;;;;;;;;;;;;;;;;;;;;;;;;;;;;;;;;;;;;;;;;;;;;;;;;;;;;;;;
"174383";;;"Windows 7";"Rachel's Experiment (D.T.)";"1.0";"2";"1";"1";"2";"1";"1";"2014-09-26 14:27:33.141";"2014-09-26 14:42:32.204";"1";"0";"0";"171";"170";"module.devaluation_block1.exec-4068.deval1";"8686";"2014-09-26 14:39:14.040";"7";"2";"4";"6";"1504";"2394";"1780";"2014-09-26 14:39:05.353";"1";;;;;;;;;;;;;;;;;;;;;;;;;;;;;;;;;;;;;;;;;;;;;;;;;;;;;;;;;;;;;;;;;;;;;;;;;;;;;;;;
"174383";;;"Windows 7";"Rachel's Experiment (D.T.)";"1.0";"2";"1";"1";"2";"1";"1";"2014-09-26 14:27:33.141";"2014-09-26 14:42:32.204";"1";"0";"0";"172";"171";"module.devaluation_block1.exec-4068.deval1";"10289";"2014-09-26 14:39:24.349";"2";"2";"3";"5";"3461";"1899";"1921";"2014-09-26 14:39:14.060";"1";;;;;;;;;;;;;;;;;;;;;;;;;;;;;;;;;;;;;;;;;;;;;;;;;;;;;;;;;;;;;;;;;;;;;;;;;;;;;;;;
"174383";;;"Windows 7";"Rachel's Experiment (D.T.)";"1.0";"2";"1";"1";"2";"1";"1";"2014-09-26 14:27:33.141";"2014-09-26 14:42:32.204";"1";"0";"0";"173";"172";"module.devaluation_block1.exec-4068.deval1";"11623";"2014-09-26 14:39:35.992";"9";"6";"4";"4";"2676";"3611";"2328";"2014-09-26 14:39:24.369";"2";;;;;;;;;;;;;;;;;;;;;;;;;;;;;;;;;;;;;;;;;;;;;;;;;;;;;;;;;;;;;;;;;;;;;;;;;;;;;;;;
"174383";;;"Windows 7";"Rachel's Experiment (D.T.)";"1.0";"2";"1";"1";"2";"1";"1";"2014-09-26 14:27:33.141";"2014-09-26 14:42:32.204";"1";"0";"0";"174";"173";"module.devaluation_block1.exec-4068.deval1";"9811";"2014-09-26 14:39:45.823";"0";"2";"1";"5";"3664";"1867";"1272";"2014-09-26 14:39:36.011";"1";;;;;;;;;;;;;;;;;;;;;;;;;;;;;;;;;;;;;;;;;;;;;;;;;;;;;;;;;;;;;;;;;;;;;;;;;;;;;;;;
"174383";;;"Windows 7";"Rachel's Experiment (D.T.)";"1.0";"2";"1";"1";"2";"1";"1";"2014-09-26 14:27:33.141";"2014-09-26 14:42:32.204";"1";"0";"0";"175";"174";"module.devaluation_block1.exec-4068.deval1";"8166";"2014-09-26 14:39:54.013";"13";"7";"6";"8";"1064";"1938";"2157";"2014-09-26 14:39:45.847";"2";;;;;;;;;;;;;;;;;;;;;;;;;;;;;;;;;;;;;;;;;;;;;;;;;;;;;;;;;;;;;;;;;;;;;;;;;;;;;;;;
"174383";;;"Windows 7";"Rachel's Experiment (D.T.)";"1.0";"2";"1";"1";"2";"1";"1";"2014-09-26 14:27:33.141";"2014-09-26 14:42:32.204";"1";"0";"0";"176";"175";"module.devaluation_block1.exec-4068.deval1";"6442";"2014-09-26 14:40:00.476";"4";"6";"5";"7";"757";"694";"1983";"2014-09-26 14:39:54.033";"1";;;;;;;;;;;;;;;;;;;;;;;;;;;;;;;;;;;;;;;;;;;;;;;;;;;;;;;;;;;;;;;;;;;;;;;;;;;;;;;;
"174383";;;"Windows 7";"Rachel's Experiment (D.T.)";"1.0";"2";"1";"1";"2";"1";"1";"2014-09-26 14:27:33.141";"2014-09-26 14:42:32.204";"1";"0";"0";"177";"176";"module.devaluation_block1.exec-4068.deval1";"12065";"2014-09-26 14:40:12.561";"17";"1";"3";"2";"4093";"1650";"3315";"2014-09-26 14:40:00.495";"2";;;;;;;;;;;;;;;;;;;;;;;;;;;;;;;;;;;;;;;;;;;;;;;;;;;;;;;;;;;;;;;;;;;;;;;;;;;;;;;;
"174383";;;"Windows 7";"Rachel's Experiment (D.T.)";"1.0";"2";"1";"1";"2";"1";"1";"2014-09-26 14:27:33.141";"2014-09-26 14:42:32.204";"1";"0";"0";"178";"177";"module.devaluation_block1.exec-4068.deval1";"8354";"2014-09-26 14:40:20.935";"21";"5";"3";"7";"1184";"2348";"1816";"2014-09-26 14:40:12.580";"3";;;;;;;;;;;;;;;;;;;;;;;;;;;;;;;;;;;;;;;;;;;;;;;;;;;;;;;;;;;;;;;;;;;;;;;;;;;;;;;;
"174383";;;"Windows 7";"Rachel's Experiment (D.T.)";"1.0";"2";"1";"1";"2";"1";"1";"2014-09-26 14:27:33.141";"2014-09-26 14:42:32.204";"1";"0";"0";"179";"178";"module.devaluation_block1.exec-4068.deval1";"7222";"2014-09-26 14:40:28.177";"8";"4";"3";"6";"947";"1134";"2133";"2014-09-26 14:40:20.955";"1";;;;;;;;;;;;;;;;;;;;;;;;;;;;;;;;;;;;;;;;;;;;;;;;;;;;;;;;;;;;;;;;;;;;;;;;;;;;;;;;
"174383";;;"Windows 7";"Rachel's Experiment (D.T.)";"1.0";"2";"1";"1";"2";"1";"1";"2014-09-26 14:27:33.141";"2014-09-26 14:42:32.204";"1";"0";"0";"180";"179";"module.devaluation_block1.exec-4068.deval1";"9266";"2014-09-26 14:40:37.462";"15";"4";"1";"2";"2228";"1621";"2410";"2014-09-26 14:40:28.197";"2";;;;;;;;;;;;;;;;;;;;;;;;;;;;;;;;;;;;;;;;;;;;;;;;;;;;;;;;;;;;;;;;;;;;;;;;;;;;;;;;
"174383";;;"Windows 7";"Rachel's Experiment (D.T.)";"1.0";"2";"1";"1";"2";"1";"1";"2014-09-26 14:27:33.141";"2014-09-26 14:42:32.204";"1";"0";"0";"181";"180";"module.devaluation_block1.exec-4068.deval1";"10316";"2014-09-26 14:40:47.798";"14";"8";"4";"7";"2463";"3179";"1666";"2014-09-26 14:40:37.482";"2";;;;;;;;;;;;;;;;;;;;;;;;;;;;;;;;;;;;;;;;;;;;;;;;;;;;;;;;;;;;;;;;;;;;;;;;;;;;;;;;
"174383";;;"Windows 7";"Rachel's Experiment (D.T.)";"1.0";"2";"1";"1";"2";"1";"1";"2014-09-26 14:27:33.141";"2014-09-26 14:42:32.204";"1";"0";"0";"182";"181";"module.devaluation_block1.exec-4068.deval1";"8414";"2014-09-26 14:40:56.233";"19";"6";"6";"7";"2240";"1330";"1836";"2014-09-26 14:40:47.819";"3";;;;;;;;;;;;;;;;;;;;;;;;;;;;;;;;;;;;;;;;;;;;;;;;;;;;;;;;;;;;;;;;;;;;;;;;;;;;;;;;
"174383";;;"Windows 7";"Rachel's Experiment (D.T.)";"1.0";"2";"1";"1";"2";"1";"1";"2014-09-26 14:27:33.141";"2014-09-26 14:42:32.204";"1";"0";"0";"183";"182";"module.devaluation_block1.exec-4068.deval1";"11088";"2014-09-26 14:41:07.341";"5";"5";"3";"6";"1031";"2594";"4456";"2014-09-26 14:40:56.253";"1";;;;;;;;;;;;;;;;;;;;;;;;;;;;;;;;;;;;;;;;;;;;;;;;;;;;;;;;;;;;;;;;;;;;;;;;;;;;;;;;
"174383";;;"Windows 7";"Rachel's Experiment (D.T.)";"1.0";"2";"1";"1";"2";"1";"1";"2014-09-26 14:27:33.141";"2014-09-26 14:42:32.204";"1";"0";"0";"184";"183";"module.devaluation_block1.exec-4068.deval1";"10539";"2014-09-26 14:41:17.901";"6";"5";"4";"5";"4578";"1169";"1785";"2014-09-26 14:41:07.361";"1";;;;;;;;;;;;;;;;;;;;;;;;;;;;;;;;;;;;;;;;;;;;;;;;;;;;;;;;;;;;;;;;;;;;;;;;;;;;;;;;
"174383";;;"Windows 7";"Rachel's Experiment (D.T.)";"1.0";"2";"1";"1";"2";"1";"1";"2014-09-26 14:27:33.141";"2014-09-26 14:42:32.204";"1";"0";"0";"185";"184";"module.devaluation_block1.exec-4068.deval1";"17662";"2014-09-26 14:41:35.582";"16";"2";"1";"1";"7286";"1929";"5439";"2014-09-26 14:41:17.919";"2";;;;;;;;;;;;;;;;;;;;;;;;;;;;;;;;;;;;;;;;;;;;;;;;;;;;;;;;;;;;;;;;;;;;;;;;;;;;;;;;
"174383";;;"Windows 7";"Rachel's Experiment (D.T.)";"1.0";"2";"1";"1";"2";"1";"1";"2014-09-26 14:27:33.141";"2014-09-26 14:42:32.204";"1";"0";"0";"186";"185";"module.devaluation_block1.exec-4068.deval1";"11118";"2014-09-26 14:41:46.718";"1";"4";"3";"6";"4657";"1921";"1532";"2014-09-26 14:41:35.600";"1";;;;;;;;;;;;;;;;;;;;;;;;;;;;;;;;;;;;;;;;;;;;;;;;;;;;;;;;;;;;;;;;;;;;;;;;;;;;;;;;
"174383";;;"Windows 7";"Rachel's Experiment (D.T.)";"1.0";"2";"1";"1";"2";"1";"1";"2014-09-26 14:27:33.141";"2014-09-26 14:42:32.204";"1";"0";"0";"187";"186";"module.devaluation_block1.exec-4068.deval1";"11447";"2014-09-26 14:41:58.186";"10";"8";"3";"5";"4448";"1554";"2439";"2014-09-26 14:41:46.738";"2";;;;;;;;;;;;;;;;;;;;;;;;;;;;;;;;;;;;;;;;;;;;;;;;;;;;;;;;;;;;;;;;;;;;;;;;;;;;;;;;
"174383";;;"Windows 7";"Rachel's Experiment (D.T.)";"1.0";"2";"1";"1";"2";"1";"1";"2014-09-26 14:27:33.141";"2014-09-26 14:42:32.204";"1";"0";"0";"188";"187";"module.devaluation_block1.exec-4068.deval1";"10437";"2014-09-26 14:42:08.649";"23";"7";"6";"8";"2273";"1382";"3776";"2014-09-26 14:41:58.211";"3";;;;;;;;;;;;;;;;;;;;;;;;;;;;;;;;;;;;;;;;;;;;;;;;;;;;;;;;;;;;;;;;;;;;;;;;;;;;;;;;
"174383";;;"Windows 7";"Rachel's Experiment (D.T.)";"1.0";"2";"1";"1";"2";"1";"1";"2014-09-26 14:27:33.141";"2014-09-26 14:42:32.204";"1";"0";"0";"189";"188";"module.devaluation_block1.exec-4068.deval1";"11835";"2014-09-26 14:42:20.505";"20";"3";"5";"6";"1999";"4245";"2583";"2014-09-26 14:42:08.669";"3";;;;;;;;;;;;;;;;;;;;;;;;;;;;;;;;;;;;;;;;;;;;;;;;;;;;;;;;;;;;;;;;;;;;;;;;;;;;;;;;
"174383";;;"Windows 7";"Rachel's Experiment (D.T.)";"1.0";"2";"1";"1";"2";"1";"1";"2014-09-26 14:27:33.141";"2014-09-26 14:42:32.204";"1";"0";"0";"190";"189";"module.devaluation_block1.exec-4068.deval1";"9082";"2014-09-26 14:42:29.607";"24";"5";"5";"7";"1235";"2892";"1948";"2014-09-26 14:42:20.524";"3";;;;;;;;;;;;;;;;;;;;;;;;;;;;;;;;;;;;;;;;;;;;;;;;;;;;;;;;;;;;;;;;;;;;;;;;;;;;;;;;
