"user.name";"user.yearOfBirth";"user.sex";"user.osName";"module.name";"module.version";"module.online.subject.code";"module.online.study.id";"module.online.module.nr";"module.online.group.nr";"session.id";"session.index";"session.startTime";"session.endTime";"session.completed";"session.node-5652.DevalQorder";"session.node-6426.conditionType";"trial.id";"trial.index";"trial.name";"trial.deval1.durationTime";"trial.deval1.endTime";"trial.deval1.icon";"trial.deval1.Resp_Attractive";"trial.deval1.Resp_Eat";"trial.deval1.Resp_Taste";"trial.deval1.RT_Attractive";"trial.deval1.RT_Eat";"trial.deval1.RT_Taste";"trial.deval1.startTime";"trial.deval1.stimulus type";"trial.devalPractice.durationTime";"trial.devalPractice.endTime";"trial.devalPractice.icon";"trial.devalPractice.Resp_Attractive";"trial.devalPractice.Resp_Eat";"trial.devalPractice.Resp_Taste";"trial.devalPractice.RT_Attractive";"trial.devalPractice.RT_Eat";"trial.devalPractice.RT_Taste";"trial.devalPractice.startTime";"trial.devalPractice.stimulus type";"trial.GoNoGo1.durationTime";"trial.GoNoGo1.endTime";"trial.GoNoGo1.Error Type";"trial.GoNoGo1.icon";"trial.GoNoGo1.location";"trial.GoNoGo1.outcome";"trial.GoNoGo1.response";"trial.GoNoGo1.result";"trial.GoNoGo1.RT";"trial.GoNoGo1.signal";"trial.GoNoGo1.startTime";"trial.GoNoGo1.stimulus type";"trial.GoNoGo2.durationTime";"trial.GoNoGo2.endTime";"trial.GoNoGo2.Error Type";"trial.GoNoGo2.icon";"trial.GoNoGo2.location";"trial.GoNoGo2.outcome";"trial.GoNoGo2.response";"trial.GoNoGo2.result";"trial.GoNoGo2.RT";"trial.GoNoGo2.signal";"trial.GoNoGo2.startTime";"trial.GoNoGo2.stimulus type";"trial.GoNoGo3.durationTime";"trial.GoNoGo3.endTime";"trial.GoNoGo3.Error Type";"trial.GoNoGo3.icon";"trial.GoNoGo3.location";"trial.GoNoGo3.outcome";"trial.GoNoGo3.response";"trial.GoNoGo3.result";"trial.GoNoGo3.RT";"trial.GoNoGo3.signal";"trial.GoNoGo3.startTime";"trial.GoNoGo3.stimulus type";"trial.GoNoGo4.durationTime";"trial.GoNoGo4.endTime";"trial.GoNoGo4.Error Type";"trial.GoNoGo4.icon";"trial.GoNoGo4.location";"trial.GoNoGo4.outcome";"trial.GoNoGo4.response";"trial.GoNoGo4.result";"trial.GoNoGo4.RT";"trial.GoNoGo4.signal";"trial.GoNoGo4.startTime";"trial.GoNoGo4.stimulus type";"trial.GoNoGo_Practice.durationTime";"trial.GoNoGo_Practice.endTime";"trial.GoNoGo_Practice.icon";"trial.GoNoGo_Practice.location";"trial.GoNoGo_Practice.outcome";"trial.GoNoGo_Practice.response";"trial.GoNoGo_Practice.result";"trial.GoNoGo_Practice.RT";"trial.GoNoGo_Practice.signal";"trial.GoNoGo_Practice.startTime";"trial.GoNoGo_Practice.stimulus type";"trial.GoNoGo_Tutorial.durationTime";"trial.GoNoGo_Tutorial.endTime";"trial.GoNoGo_Tutorial.icon";"trial.GoNoGo_Tutorial.location";"trial.GoNoGo_Tutorial.outcome";"trial.GoNoGo_Tutorial.response";"trial.GoNoGo_Tutorial.result";"trial.GoNoGo_Tutorial.RT";"trial.GoNoGo_Tutorial.signal";"trial.GoNoGo_Tutorial.startTime"
"allaboutglee";;;"Windows 7";"Rachel's Experiment (D.T.)";"1.0";"2";"1";"1";"2";"1";"1";"2014-07-18 14:38:29.686";"2014-07-18 14:54:20.679";"1";"1";"0";"1";"0";"module.GoNoGotutorial.exec-4558.GoNoGo_Tutorial";;;;;;;;;;;;;;;;;;;;;;;;;;;;;;;;;;;;;;;;;;;;;;;;;;;;;;;;;;;;;;;;;;;;;;;;;;;;;;;;;;"3995";"2014-07-18 14:40:20.852";"leftResponse";"0";"FINISHED";"LEFT";"success";"871";"0";"2014-07-18 14:40:16.842"
"allaboutglee";;;"Windows 7";"Rachel's Experiment (D.T.)";"1.0";"2";"1";"1";"2";"1";"1";"2014-07-18 14:38:29.686";"2014-07-18 14:54:20.679";"1";"1";"0";"2";"1";"module.GoNoGotutorial.exec-4558.GoNoGo_Tutorial";;;;;;;;;;;;;;;;;;;;;;;;;;;;;;;;;;;;;;;;;;;;;;;;;;;;;;;;;;;;;;;;;;;;;;;;;;;;;;;;;;"4006";"2014-07-18 14:40:26.171";"rightResponse";"1";"FINISHED";"RIGHT";"success";"635";"0";"2014-07-18 14:40:22.162"
"allaboutglee";;;"Windows 7";"Rachel's Experiment (D.T.)";"1.0";"2";"1";"1";"2";"1";"1";"2014-07-18 14:38:29.686";"2014-07-18 14:54:20.679";"1";"1";"0";"3";"2";"module.GoNoGotutorial.exec-4558.GoNoGo_Tutorial";;;;;;;;;;;;;;;;;;;;;;;;;;;;;;;;;;;;;;;;;;;;;;;;;;;;;;;;;;;;;;;;;;;;;;;;;;;;;;;;;;"4003";"2014-07-18 14:40:31.475";"quickResponse";"0";"FINISHED";"NONE";"failure";"0";"0";"2014-07-18 14:40:27.466"
"allaboutglee";;;"Windows 7";"Rachel's Experiment (D.T.)";"1.0";"2";"1";"1";"2";"1";"1";"2014-07-18 14:38:29.686";"2014-07-18 14:54:20.679";"1";"1";"0";"4";"3";"module.GoNoGopractice.exec-7578.GoNoGo_Practice";;;;;;;;;;;;;;;;;;;;;;;;;;;;;;;;;;;;;;;;;;;;;;;;;;;;;;;;;;;;;;;;;;;;;;;"1959";"2014-07-18 14:40:40.040";"18";"0";"FINISHED";"LEFT";"success";"575";"0";"2014-07-18 14:40:38.074";"3";;;;;;;;;;
"allaboutglee";;;"Windows 7";"Rachel's Experiment (D.T.)";"1.0";"2";"1";"1";"2";"1";"1";"2014-07-18 14:38:29.686";"2014-07-18 14:54:20.679";"1";"1";"0";"5";"4";"module.GoNoGopractice.exec-7578.GoNoGo_Practice";;;;;;;;;;;;;;;;;;;;;;;;;;;;;;;;;;;;;;;;;;;;;;;;;;;;;;;;;;;;;;;;;;;;;;;"1959";"2014-07-18 14:40:43.284";"21";"1";"FINISHED";"RIGHT";"success";"443";"0";"2014-07-18 14:40:41.319";"3";;;;;;;;;;
"allaboutglee";;;"Windows 7";"Rachel's Experiment (D.T.)";"1.0";"2";"1";"1";"2";"1";"1";"2014-07-18 14:38:29.686";"2014-07-18 14:54:20.679";"1";"1";"0";"6";"5";"module.GoNoGopractice.exec-7578.GoNoGo_Practice";;;;;;;;;;;;;;;;;;;;;;;;;;;;;;;;;;;;;;;;;;;;;;;;;;;;;;;;;;;;;;;;;;;;;;;"1959";"2014-07-18 14:40:46.529";"14";"1";"FINISHED";"RIGHT";"success";"542";"0";"2014-07-18 14:40:44.564";"2";;;;;;;;;;
"allaboutglee";;;"Windows 7";"Rachel's Experiment (D.T.)";"1.0";"2";"1";"1";"2";"1";"1";"2014-07-18 14:38:29.686";"2014-07-18 14:54:20.679";"1";"1";"0";"7";"6";"module.GoNoGopractice.exec-7578.GoNoGo_Practice";;;;;;;;;;;;;;;;;;;;;;;;;;;;;;;;;;;;;;;;;;;;;;;;;;;;;;;;;;;;;;;;;;;;;;;"1959";"2014-07-18 14:40:49.774";"26";"0";"FINISHED";"LEFT";"success";"329";"0";"2014-07-18 14:40:47.808";"3";;;;;;;;;;
"allaboutglee";;;"Windows 7";"Rachel's Experiment (D.T.)";"1.0";"2";"1";"1";"2";"1";"1";"2014-07-18 14:38:29.686";"2014-07-18 14:54:20.679";"1";"1";"0";"8";"7";"module.GoNoGopractice.exec-7578.GoNoGo_Practice";;;;;;;;;;;;;;;;;;;;;;;;;;;;;;;;;;;;;;;;;;;;;;;;;;;;;;;;;;;;;;;;;;;;;;;"1959";"2014-07-18 14:40:53.019";"2";"0";"FINISHED";"LEFT";"success";"452";"0";"2014-07-18 14:40:51.053";"1";;;;;;;;;;
"allaboutglee";;;"Windows 7";"Rachel's Experiment (D.T.)";"1.0";"2";"1";"1";"2";"1";"1";"2014-07-18 14:38:29.686";"2014-07-18 14:54:20.679";"1";"1";"0";"9";"8";"module.GoNoGopractice.exec-7578.GoNoGo_Practice";;;;;;;;;;;;;;;;;;;;;;;;;;;;;;;;;;;;;;;;;;;;;;;;;;;;;;;;;;;;;;;;;;;;;;;"1960";"2014-07-18 14:40:56.264";"30";"0";"FINISHED";"LEFT";"success";"360";"0";"2014-07-18 14:40:54.298";"3";;;;;;;;;;
"allaboutglee";;;"Windows 7";"Rachel's Experiment (D.T.)";"1.0";"2";"1";"1";"2";"1";"1";"2014-07-18 14:38:29.686";"2014-07-18 14:54:20.679";"1";"1";"0";"10";"9";"module.GoNoGopractice.exec-7578.GoNoGo_Practice";;;;;;;;;;;;;;;;;;;;;;;;;;;;;;;;;;;;;;;;;;;;;;;;;;;;;;;;;;;;;;;;;;;;;;;"1961";"2014-07-18 14:40:59.508";"6";"1";"FINISHED";"RIGHT";"success";"389";"0";"2014-07-18 14:40:57.543";"1";;;;;;;;;;
"allaboutglee";;;"Windows 7";"Rachel's Experiment (D.T.)";"1.0";"2";"1";"1";"2";"1";"1";"2014-07-18 14:38:29.686";"2014-07-18 14:54:20.679";"1";"1";"0";"11";"10";"module.GoNoGopractice.exec-7578.GoNoGo_Practice";;;;;;;;;;;;;;;;;;;;;;;;;;;;;;;;;;;;;;;;;;;;;;;;;;;;;;;;;;;;;;;;;;;;;;;"1960";"2014-07-18 14:41:02.753";"34";"0";"FINISHED";"LEFT";"success";"391";"0";"2014-07-18 14:41:00.788";"3";;;;;;;;;;
"allaboutglee";;;"Windows 7";"Rachel's Experiment (D.T.)";"1.0";"2";"1";"1";"2";"1";"1";"2014-07-18 14:38:29.686";"2014-07-18 14:54:20.679";"1";"1";"0";"12";"11";"module.GoNoGopractice.exec-7578.GoNoGo_Practice";;;;;;;;;;;;;;;;;;;;;;;;;;;;;;;;;;;;;;;;;;;;;;;;;;;;;;;;;;;;;;;;;;;;;;;"1959";"2014-07-18 14:41:06.014";"23";"1";"FINISHED";"RIGHT";"success";"322";"0";"2014-07-18 14:41:04.048";"3";;;;;;;;;;
"allaboutglee";;;"Windows 7";"Rachel's Experiment (D.T.)";"1.0";"2";"1";"1";"2";"1";"1";"2014-07-18 14:38:29.686";"2014-07-18 14:54:20.679";"1";"1";"0";"13";"12";"module.GoNoGopractice.exec-7578.GoNoGo_Practice";;;;;;;;;;;;;;;;;;;;;;;;;;;;;;;;;;;;;;;;;;;;;;;;;;;;;;;;;;;;;;;;;;;;;;;"1959";"2014-07-18 14:41:09.259";"13";"0";"FINISHED";"LEFT";"success";"421";"0";"2014-07-18 14:41:07.293";"2";;;;;;;;;;
"allaboutglee";;;"Windows 7";"Rachel's Experiment (D.T.)";"1.0";"2";"1";"1";"2";"1";"1";"2014-07-18 14:38:29.686";"2014-07-18 14:54:20.679";"1";"1";"0";"14";"13";"module.GoNoGopractice.exec-7578.GoNoGo_Practice";;;;;;;;;;;;;;;;;;;;;;;;;;;;;;;;;;;;;;;;;;;;;;;;;;;;;;;;;;;;;;;;;;;;;;;"1959";"2014-07-18 14:41:12.503";"3";"1";"FINISHED";"RIGHT";"success";"328";"0";"2014-07-18 14:41:10.538";"1";;;;;;;;;;
"allaboutglee";;;"Windows 7";"Rachel's Experiment (D.T.)";"1.0";"2";"1";"1";"2";"1";"1";"2014-07-18 14:38:29.686";"2014-07-18 14:54:20.679";"1";"1";"0";"15";"14";"module.GoNoGopractice.exec-7578.GoNoGo_Practice";;;;;;;;;;;;;;;;;;;;;;;;;;;;;;;;;;;;;;;;;;;;;;;;;;;;;;;;;;;;;;;;;;;;;;;"1959";"2014-07-18 14:41:15.748";"27";"1";"FINISHED";"RIGHT";"success";"451";"0";"2014-07-18 14:41:13.783";"3";;;;;;;;;;
"allaboutglee";;;"Windows 7";"Rachel's Experiment (D.T.)";"1.0";"2";"1";"1";"2";"1";"1";"2014-07-18 14:38:29.686";"2014-07-18 14:54:20.679";"1";"1";"0";"16";"15";"module.training_block1.exec-7124.GoNoGo1";;;;;;;;;;;;;;;;;;;;;;;"1257";"2014-07-18 14:41:26.528";"NST_correctLoc";"35";"0";"FINISHED";"LEFT";"success";"344";"0";"2014-07-18 14:41:25.264";"3";;;;;;;;;;;;;;;;;;;;;;;;;;;;;;;;;;;;;;;;;;;;;;;;;;;;;;;;;
"allaboutglee";;;"Windows 7";"Rachel's Experiment (D.T.)";"1.0";"2";"1";"1";"2";"1";"1";"2014-07-18 14:38:29.686";"2014-07-18 14:54:20.679";"1";"1";"0";"17";"16";"module.training_block1.exec-7124.GoNoGo1";;;;;;;;;;;;;;;;;;;;;;;"1258";"2014-07-18 14:41:29.071";"NST_correctLoc";"0";"1";"FINISHED";"RIGHT";"success";"299";"0";"2014-07-18 14:41:27.807";"1";;;;;;;;;;;;;;;;;;;;;;;;;;;;;;;;;;;;;;;;;;;;;;;;;;;;;;;;;
"allaboutglee";;;"Windows 7";"Rachel's Experiment (D.T.)";"1.0";"2";"1";"1";"2";"1";"1";"2014-07-18 14:38:29.686";"2014-07-18 14:54:20.679";"1";"1";"0";"18";"17";"module.training_block1.exec-7124.GoNoGo1";;;;;;;;;;;;;;;;;;;;;;;"1258";"2014-07-18 14:41:31.613";"NST_correctLoc";"12";"1";"FINISHED";"RIGHT";"success";"372";"0";"2014-07-18 14:41:30.350";"2";;;;;;;;;;;;;;;;;;;;;;;;;;;;;;;;;;;;;;;;;;;;;;;;;;;;;;;;;
"allaboutglee";;;"Windows 7";"Rachel's Experiment (D.T.)";"1.0";"2";"1";"1";"2";"1";"1";"2014-07-18 14:38:29.686";"2014-07-18 14:54:20.679";"1";"1";"0";"19";"18";"module.training_block1.exec-7124.GoNoGo1";;;;;;;;;;;;;;;;;;;;;;;"1258";"2014-07-18 14:41:34.156";"NST_correctLoc";"5";"1";"FINISHED";"RIGHT";"success";"325";"0";"2014-07-18 14:41:32.893";"1";;;;;;;;;;;;;;;;;;;;;;;;;;;;;;;;;;;;;;;;;;;;;;;;;;;;;;;;;
"allaboutglee";;;"Windows 7";"Rachel's Experiment (D.T.)";"1.0";"2";"1";"1";"2";"1";"1";"2014-07-18 14:38:29.686";"2014-07-18 14:54:20.679";"1";"1";"0";"20";"19";"module.training_block1.exec-7124.GoNoGo1";;;;;;;;;;;;;;;;;;;;;;;"1261";"2014-07-18 14:41:36.699";"NST_correctLoc";"3";"1";"FINISHED";"RIGHT";"success";"274";"0";"2014-07-18 14:41:35.435";"1";;;;;;;;;;;;;;;;;;;;;;;;;;;;;;;;;;;;;;;;;;;;;;;;;;;;;;;;;
"allaboutglee";;;"Windows 7";"Rachel's Experiment (D.T.)";"1.0";"2";"1";"1";"2";"1";"1";"2014-07-18 14:38:29.686";"2014-07-18 14:54:20.679";"1";"1";"0";"21";"20";"module.training_block1.exec-7124.GoNoGo1";;;;;;;;;;;;;;;;;;;;;;;"1257";"2014-07-18 14:41:39.242";"NST_correctLoc";"9";"1";"FINISHED";"RIGHT";"success";"311";"0";"2014-07-18 14:41:37.978";"2";;;;;;;;;;;;;;;;;;;;;;;;;;;;;;;;;;;;;;;;;;;;;;;;;;;;;;;;;
"allaboutglee";;;"Windows 7";"Rachel's Experiment (D.T.)";"1.0";"2";"1";"1";"2";"1";"1";"2014-07-18 14:38:29.686";"2014-07-18 14:54:20.679";"1";"1";"0";"22";"21";"module.training_block1.exec-7124.GoNoGo1";;;;;;;;;;;;;;;;;;;;;;;"1261";"2014-07-18 14:41:41.785";"NST_correctLoc";"30";"0";"FINISHED";"LEFT";"success";"316";"0";"2014-07-18 14:41:40.521";"3";;;;;;;;;;;;;;;;;;;;;;;;;;;;;;;;;;;;;;;;;;;;;;;;;;;;;;;;;
"allaboutglee";;;"Windows 7";"Rachel's Experiment (D.T.)";"1.0";"2";"1";"1";"2";"1";"1";"2014-07-18 14:38:29.686";"2014-07-18 14:54:20.679";"1";"1";"0";"23";"22";"module.training_block1.exec-7124.GoNoGo1";;;;;;;;;;;;;;;;;;;;;;;"1256";"2014-07-18 14:41:44.312";"NST_correctLoc";"17";"1";"FINISHED";"RIGHT";"success";"304";"0";"2014-07-18 14:41:43.048";"2";;;;;;;;;;;;;;;;;;;;;;;;;;;;;;;;;;;;;;;;;;;;;;;;;;;;;;;;;
"allaboutglee";;;"Windows 7";"Rachel's Experiment (D.T.)";"1.0";"2";"1";"1";"2";"1";"1";"2014-07-18 14:38:29.686";"2014-07-18 14:54:20.679";"1";"1";"0";"24";"23";"module.training_block1.exec-7124.GoNoGo1";;;;;;;;;;;;;;;;;;;;;;;"1257";"2014-07-18 14:41:46.855";"NST_correctLoc";"4";"0";"FINISHED";"LEFT";"success";"314";"0";"2014-07-18 14:41:45.591";"1";;;;;;;;;;;;;;;;;;;;;;;;;;;;;;;;;;;;;;;;;;;;;;;;;;;;;;;;;
"allaboutglee";;;"Windows 7";"Rachel's Experiment (D.T.)";"1.0";"2";"1";"1";"2";"1";"1";"2014-07-18 14:38:29.686";"2014-07-18 14:54:20.679";"1";"1";"0";"25";"24";"module.training_block1.exec-7124.GoNoGo1";;;;;;;;;;;;;;;;;;;;;;;"1261";"2014-07-18 14:41:49.397";"NST_correctLoc";"27";"1";"FINISHED";"RIGHT";"success";"287";"0";"2014-07-18 14:41:48.134";"3";;;;;;;;;;;;;;;;;;;;;;;;;;;;;;;;;;;;;;;;;;;;;;;;;;;;;;;;;
"allaboutglee";;;"Windows 7";"Rachel's Experiment (D.T.)";"1.0";"2";"1";"1";"2";"1";"1";"2014-07-18 14:38:29.686";"2014-07-18 14:54:20.679";"1";"1";"0";"26";"25";"module.training_block1.exec-7124.GoNoGo1";;;;;;;;;;;;;;;;;;;;;;;"1252";"2014-07-18 14:41:51.940";"NST_correctLoc";"8";"0";"FINISHED";"LEFT";"success";"335";"0";"2014-07-18 14:41:50.677";"1";;;;;;;;;;;;;;;;;;;;;;;;;;;;;;;;;;;;;;;;;;;;;;;;;;;;;;;;;
"allaboutglee";;;"Windows 7";"Rachel's Experiment (D.T.)";"1.0";"2";"1";"1";"2";"1";"1";"2014-07-18 14:38:29.686";"2014-07-18 14:54:20.679";"1";"1";"0";"27";"26";"module.training_block1.exec-7124.GoNoGo1";;;;;;;;;;;;;;;;;;;;;;;"1257";"2014-07-18 14:41:54.483";"NST_correctLoc";"31";"0";"FINISHED";"LEFT";"success";"318";"0";"2014-07-18 14:41:53.219";"3";;;;;;;;;;;;;;;;;;;;;;;;;;;;;;;;;;;;;;;;;;;;;;;;;;;;;;;;;
"allaboutglee";;;"Windows 7";"Rachel's Experiment (D.T.)";"1.0";"2";"1";"1";"2";"1";"1";"2014-07-18 14:38:29.686";"2014-07-18 14:54:20.679";"1";"1";"0";"28";"27";"module.training_block1.exec-7124.GoNoGo1";;;;;;;;;;;;;;;;;;;;;;;"1261";"2014-07-18 14:41:57.026";"NST_correctLoc";"26";"0";"FINISHED";"LEFT";"success";"339";"0";"2014-07-18 14:41:55.762";"3";;;;;;;;;;;;;;;;;;;;;;;;;;;;;;;;;;;;;;;;;;;;;;;;;;;;;;;;;
"allaboutglee";;;"Windows 7";"Rachel's Experiment (D.T.)";"1.0";"2";"1";"1";"2";"1";"1";"2014-07-18 14:38:29.686";"2014-07-18 14:54:20.679";"1";"1";"0";"29";"28";"module.training_block1.exec-7124.GoNoGo1";;;;;;;;;;;;;;;;;;;;;;;"1261";"2014-07-18 14:41:59.569";"NST_correctLoc";"13";"0";"FINISHED";"LEFT";"success";"308";"0";"2014-07-18 14:41:58.305";"2";;;;;;;;;;;;;;;;;;;;;;;;;;;;;;;;;;;;;;;;;;;;;;;;;;;;;;;;;
"allaboutglee";;;"Windows 7";"Rachel's Experiment (D.T.)";"1.0";"2";"1";"1";"2";"1";"1";"2014-07-18 14:38:29.686";"2014-07-18 14:54:20.679";"1";"1";"0";"30";"29";"module.training_block1.exec-7124.GoNoGo1";;;;;;;;;;;;;;;;;;;;;;;"1261";"2014-07-18 14:42:02.111";"NST_correctLoc";"34";"1";"FINISHED";"RIGHT";"success";"301";"0";"2014-07-18 14:42:00.848";"3";;;;;;;;;;;;;;;;;;;;;;;;;;;;;;;;;;;;;;;;;;;;;;;;;;;;;;;;;
"allaboutglee";;;"Windows 7";"Rachel's Experiment (D.T.)";"1.0";"2";"1";"1";"2";"1";"1";"2014-07-18 14:38:29.686";"2014-07-18 14:54:20.679";"1";"1";"0";"31";"30";"module.training_block1.exec-7124.GoNoGo1";;;;;;;;;;;;;;;;;;;;;;;"1257";"2014-07-18 14:42:04.654";"NST_correctLoc";"10";"1";"FINISHED";"RIGHT";"success";"411";"0";"2014-07-18 14:42:03.391";"2";;;;;;;;;;;;;;;;;;;;;;;;;;;;;;;;;;;;;;;;;;;;;;;;;;;;;;;;;
"allaboutglee";;;"Windows 7";"Rachel's Experiment (D.T.)";"1.0";"2";"1";"1";"2";"1";"1";"2014-07-18 14:38:29.686";"2014-07-18 14:54:20.679";"1";"1";"0";"32";"31";"module.training_block1.exec-7124.GoNoGo1";;;;;;;;;;;;;;;;;;;;;;;"1261";"2014-07-18 14:42:07.197";"NST_correctLoc";"6";"0";"FINISHED";"LEFT";"success";"296";"0";"2014-07-18 14:42:05.933";"1";;;;;;;;;;;;;;;;;;;;;;;;;;;;;;;;;;;;;;;;;;;;;;;;;;;;;;;;;
"allaboutglee";;;"Windows 7";"Rachel's Experiment (D.T.)";"1.0";"2";"1";"1";"2";"1";"1";"2014-07-18 14:38:29.686";"2014-07-18 14:54:20.679";"1";"1";"0";"33";"32";"module.training_block1.exec-7124.GoNoGo1";;;;;;;;;;;;;;;;;;;;;;;"1258";"2014-07-18 14:42:09.740";"NST_correctLoc";"22";"1";"FINISHED";"RIGHT";"success";"309";"0";"2014-07-18 14:42:08.476";"3";;;;;;;;;;;;;;;;;;;;;;;;;;;;;;;;;;;;;;;;;;;;;;;;;;;;;;;;;
"allaboutglee";;;"Windows 7";"Rachel's Experiment (D.T.)";"1.0";"2";"1";"1";"2";"1";"1";"2014-07-18 14:38:29.686";"2014-07-18 14:54:20.679";"1";"1";"0";"34";"33";"module.training_block1.exec-7124.GoNoGo1";;;;;;;;;;;;;;;;;;;;;;;"1258";"2014-07-18 14:42:12.283";"NST_correctLoc";"20";"1";"FINISHED";"RIGHT";"success";"303";"0";"2014-07-18 14:42:11.019";"3";;;;;;;;;;;;;;;;;;;;;;;;;;;;;;;;;;;;;;;;;;;;;;;;;;;;;;;;;
"allaboutglee";;;"Windows 7";"Rachel's Experiment (D.T.)";"1.0";"2";"1";"1";"2";"1";"1";"2014-07-18 14:38:29.686";"2014-07-18 14:54:20.679";"1";"1";"0";"35";"34";"module.training_block1.exec-7124.GoNoGo1";;;;;;;;;;;;;;;;;;;;;;;"1257";"2014-07-18 14:42:14.825";"NST_correctLoc";"33";"1";"FINISHED";"RIGHT";"success";"375";"0";"2014-07-18 14:42:13.562";"3";;;;;;;;;;;;;;;;;;;;;;;;;;;;;;;;;;;;;;;;;;;;;;;;;;;;;;;;;
"allaboutglee";;;"Windows 7";"Rachel's Experiment (D.T.)";"1.0";"2";"1";"1";"2";"1";"1";"2014-07-18 14:38:29.686";"2014-07-18 14:54:20.679";"1";"1";"0";"36";"35";"module.training_block1.exec-7124.GoNoGo1";;;;;;;;;;;;;;;;;;;;;;;"1261";"2014-07-18 14:42:17.368";"NST_correctLoc";"18";"0";"FINISHED";"LEFT";"success";"348";"0";"2014-07-18 14:42:16.105";"3";;;;;;;;;;;;;;;;;;;;;;;;;;;;;;;;;;;;;;;;;;;;;;;;;;;;;;;;;
"allaboutglee";;;"Windows 7";"Rachel's Experiment (D.T.)";"1.0";"2";"1";"1";"2";"1";"1";"2014-07-18 14:38:29.686";"2014-07-18 14:54:20.679";"1";"1";"0";"37";"36";"module.training_block1.exec-7124.GoNoGo1";;;;;;;;;;;;;;;;;;;;;;;"1258";"2014-07-18 14:42:19.911";"NST_correctLoc";"25";"0";"FINISHED";"LEFT";"success";"322";"0";"2014-07-18 14:42:18.647";"3";;;;;;;;;;;;;;;;;;;;;;;;;;;;;;;;;;;;;;;;;;;;;;;;;;;;;;;;;
"allaboutglee";;;"Windows 7";"Rachel's Experiment (D.T.)";"1.0";"2";"1";"1";"2";"1";"1";"2014-07-18 14:38:29.686";"2014-07-18 14:54:20.679";"1";"1";"0";"38";"37";"module.training_block1.exec-7124.GoNoGo1";;;;;;;;;;;;;;;;;;;;;;;"1258";"2014-07-18 14:42:22.454";"NST_correctLoc";"1";"0";"FINISHED";"LEFT";"success";"300";"0";"2014-07-18 14:42:21.190";"1";;;;;;;;;;;;;;;;;;;;;;;;;;;;;;;;;;;;;;;;;;;;;;;;;;;;;;;;;
"allaboutglee";;;"Windows 7";"Rachel's Experiment (D.T.)";"1.0";"2";"1";"1";"2";"1";"1";"2014-07-18 14:38:29.686";"2014-07-18 14:54:20.679";"1";"1";"0";"39";"38";"module.training_block1.exec-7124.GoNoGo1";;;;;;;;;;;;;;;;;;;;;;;"1257";"2014-07-18 14:42:24.997";"NST_correctLoc";"7";"1";"FINISHED";"RIGHT";"success";"332";"0";"2014-07-18 14:42:23.733";"1";;;;;;;;;;;;;;;;;;;;;;;;;;;;;;;;;;;;;;;;;;;;;;;;;;;;;;;;;
"allaboutglee";;;"Windows 7";"Rachel's Experiment (D.T.)";"1.0";"2";"1";"1";"2";"1";"1";"2014-07-18 14:38:29.686";"2014-07-18 14:54:20.679";"1";"1";"0";"40";"39";"module.training_block1.exec-7124.GoNoGo1";;;;;;;;;;;;;;;;;;;;;;;"1261";"2014-07-18 14:42:27.539";"NST_correctLoc";"14";"1";"FINISHED";"RIGHT";"success";"361";"0";"2014-07-18 14:42:26.276";"2";;;;;;;;;;;;;;;;;;;;;;;;;;;;;;;;;;;;;;;;;;;;;;;;;;;;;;;;;
"allaboutglee";;;"Windows 7";"Rachel's Experiment (D.T.)";"1.0";"2";"1";"1";"2";"1";"1";"2014-07-18 14:38:29.686";"2014-07-18 14:54:20.679";"1";"1";"0";"41";"40";"module.training_block1.exec-7124.GoNoGo1";;;;;;;;;;;;;;;;;;;;;;;"1258";"2014-07-18 14:42:30.082";"NST_correctLoc";"29";"1";"FINISHED";"RIGHT";"success";"319";"0";"2014-07-18 14:42:28.819";"3";;;;;;;;;;;;;;;;;;;;;;;;;;;;;;;;;;;;;;;;;;;;;;;;;;;;;;;;;
"allaboutglee";;;"Windows 7";"Rachel's Experiment (D.T.)";"1.0";"2";"1";"1";"2";"1";"1";"2014-07-18 14:38:29.686";"2014-07-18 14:54:20.679";"1";"1";"0";"42";"41";"module.training_block1.exec-7124.GoNoGo1";;;;;;;;;;;;;;;;;;;;;;;"1252";"2014-07-18 14:42:32.625";"NST_correctLoc";"15";"0";"FINISHED";"LEFT";"success";"323";"0";"2014-07-18 14:42:31.361";"2";;;;;;;;;;;;;;;;;;;;;;;;;;;;;;;;;;;;;;;;;;;;;;;;;;;;;;;;;
"allaboutglee";;;"Windows 7";"Rachel's Experiment (D.T.)";"1.0";"2";"1";"1";"2";"1";"1";"2014-07-18 14:38:29.686";"2014-07-18 14:54:20.679";"1";"1";"0";"43";"42";"module.training_block1.exec-7124.GoNoGo1";;;;;;;;;;;;;;;;;;;;;;;"1258";"2014-07-18 14:42:35.168";"NST_correctLoc";"24";"0";"FINISHED";"LEFT";"success";"353";"0";"2014-07-18 14:42:33.904";"3";;;;;;;;;;;;;;;;;;;;;;;;;;;;;;;;;;;;;;;;;;;;;;;;;;;;;;;;;
"allaboutglee";;;"Windows 7";"Rachel's Experiment (D.T.)";"1.0";"2";"1";"1";"2";"1";"1";"2014-07-18 14:38:29.686";"2014-07-18 14:54:20.679";"1";"1";"0";"44";"43";"module.training_block1.exec-7124.GoNoGo1";;;;;;;;;;;;;;;;;;;;;;;"1258";"2014-07-18 14:42:37.711";"NST_correctLoc";"16";"1";"FINISHED";"RIGHT";"success";"450";"0";"2014-07-18 14:42:36.447";"2";;;;;;;;;;;;;;;;;;;;;;;;;;;;;;;;;;;;;;;;;;;;;;;;;;;;;;;;;
"allaboutglee";;;"Windows 7";"Rachel's Experiment (D.T.)";"1.0";"2";"1";"1";"2";"1";"1";"2014-07-18 14:38:29.686";"2014-07-18 14:54:20.679";"1";"1";"0";"45";"44";"module.training_block1.exec-7124.GoNoGo1";;;;;;;;;;;;;;;;;;;;;;;"1258";"2014-07-18 14:42:40.253";"NST_correctLoc";"19";"1";"FINISHED";"RIGHT";"success";"324";"0";"2014-07-18 14:42:38.990";"3";;;;;;;;;;;;;;;;;;;;;;;;;;;;;;;;;;;;;;;;;;;;;;;;;;;;;;;;;
"allaboutglee";;;"Windows 7";"Rachel's Experiment (D.T.)";"1.0";"2";"1";"1";"2";"1";"1";"2014-07-18 14:38:29.686";"2014-07-18 14:54:20.679";"1";"1";"0";"46";"45";"module.training_block1.exec-7124.GoNoGo1";;;;;;;;;;;;;;;;;;;;;;;"1257";"2014-07-18 14:42:42.827";"NST_correctLoc";"32";"0";"FINISHED";"LEFT";"success";"269";"0";"2014-07-18 14:42:41.564";"3";;;;;;;;;;;;;;;;;;;;;;;;;;;;;;;;;;;;;;;;;;;;;;;;;;;;;;;;;
"allaboutglee";;;"Windows 7";"Rachel's Experiment (D.T.)";"1.0";"2";"1";"1";"2";"1";"1";"2014-07-18 14:38:29.686";"2014-07-18 14:54:20.679";"1";"1";"0";"47";"46";"module.training_block1.exec-7124.GoNoGo1";;;;;;;;;;;;;;;;;;;;;;;"1257";"2014-07-18 14:42:45.401";"NST_correctLoc";"28";"1";"FINISHED";"RIGHT";"success";"335";"0";"2014-07-18 14:42:44.138";"3";;;;;;;;;;;;;;;;;;;;;;;;;;;;;;;;;;;;;;;;;;;;;;;;;;;;;;;;;
"allaboutglee";;;"Windows 7";"Rachel's Experiment (D.T.)";"1.0";"2";"1";"1";"2";"1";"1";"2014-07-18 14:38:29.686";"2014-07-18 14:54:20.679";"1";"1";"0";"48";"47";"module.training_block1.exec-7124.GoNoGo1";;;;;;;;;;;;;;;;;;;;;;;"1258";"2014-07-18 14:42:47.975";"NST_correctLoc";"11";"1";"FINISHED";"RIGHT";"success";"393";"0";"2014-07-18 14:42:46.712";"2";;;;;;;;;;;;;;;;;;;;;;;;;;;;;;;;;;;;;;;;;;;;;;;;;;;;;;;;;
"allaboutglee";;;"Windows 7";"Rachel's Experiment (D.T.)";"1.0";"2";"1";"1";"2";"1";"1";"2014-07-18 14:38:29.686";"2014-07-18 14:54:20.679";"1";"1";"0";"49";"48";"module.training_block1.exec-7124.GoNoGo1";;;;;;;;;;;;;;;;;;;;;;;"1261";"2014-07-18 14:42:50.534";"NST_correctLoc";"21";"0";"FINISHED";"LEFT";"success";"351";"0";"2014-07-18 14:42:49.270";"3";;;;;;;;;;;;;;;;;;;;;;;;;;;;;;;;;;;;;;;;;;;;;;;;;;;;;;;;;
"allaboutglee";;;"Windows 7";"Rachel's Experiment (D.T.)";"1.0";"2";"1";"1";"2";"1";"1";"2014-07-18 14:38:29.686";"2014-07-18 14:54:20.679";"1";"1";"0";"50";"49";"module.training_block1.exec-7124.GoNoGo1";;;;;;;;;;;;;;;;;;;;;;;"1261";"2014-07-18 14:42:53.077";"NST_correctLoc";"23";"0";"FINISHED";"LEFT";"success";"336";"0";"2014-07-18 14:42:51.813";"3";;;;;;;;;;;;;;;;;;;;;;;;;;;;;;;;;;;;;;;;;;;;;;;;;;;;;;;;;
"allaboutglee";;;"Windows 7";"Rachel's Experiment (D.T.)";"1.0";"2";"1";"1";"2";"1";"1";"2014-07-18 14:38:29.686";"2014-07-18 14:54:20.679";"1";"1";"0";"51";"50";"module.training_block1.exec-7124.GoNoGo1";;;;;;;;;;;;;;;;;;;;;;;"1261";"2014-07-18 14:42:55.619";"NST_correctLoc";"2";"0";"FINISHED";"LEFT";"success";"377";"0";"2014-07-18 14:42:54.356";"1";;;;;;;;;;;;;;;;;;;;;;;;;;;;;;;;;;;;;;;;;;;;;;;;;;;;;;;;;
"allaboutglee";;;"Windows 7";"Rachel's Experiment (D.T.)";"1.0";"2";"1";"1";"2";"1";"1";"2014-07-18 14:38:29.686";"2014-07-18 14:54:20.679";"1";"1";"0";"52";"51";"module.training_block2.exec-5813.GoNoGo2";;;;;;;;;;;;;;;;;;;;;;;;;;;;;;;;;;;"1261";"2014-07-18 14:43:07.975";"NST_correctLoc";"10";"0";"FINISHED";"LEFT";"success";"326";"0";"2014-07-18 14:43:06.711";"2";;;;;;;;;;;;;;;;;;;;;;;;;;;;;;;;;;;;;;;;;;;;;
"allaboutglee";;;"Windows 7";"Rachel's Experiment (D.T.)";"1.0";"2";"1";"1";"2";"1";"1";"2014-07-18 14:38:29.686";"2014-07-18 14:54:20.679";"1";"1";"0";"53";"52";"module.training_block2.exec-5813.GoNoGo2";;;;;;;;;;;;;;;;;;;;;;;;;;;;;;;;;;;"1261";"2014-07-18 14:43:10.518";"NST_correctLoc";"19";"0";"FINISHED";"LEFT";"success";"311";"0";"2014-07-18 14:43:09.254";"3";;;;;;;;;;;;;;;;;;;;;;;;;;;;;;;;;;;;;;;;;;;;;
"allaboutglee";;;"Windows 7";"Rachel's Experiment (D.T.)";"1.0";"2";"1";"1";"2";"1";"1";"2014-07-18 14:38:29.686";"2014-07-18 14:54:20.679";"1";"1";"0";"54";"53";"module.training_block2.exec-5813.GoNoGo2";;;;;;;;;;;;;;;;;;;;;;;;;;;;;;;;;;;"1261";"2014-07-18 14:43:13.060";"NST_correctLoc";"33";"1";"FINISHED";"RIGHT";"success";"368";"0";"2014-07-18 14:43:11.797";"3";;;;;;;;;;;;;;;;;;;;;;;;;;;;;;;;;;;;;;;;;;;;;
"allaboutglee";;;"Windows 7";"Rachel's Experiment (D.T.)";"1.0";"2";"1";"1";"2";"1";"1";"2014-07-18 14:38:29.686";"2014-07-18 14:54:20.679";"1";"1";"0";"55";"54";"module.training_block2.exec-5813.GoNoGo2";;;;;;;;;;;;;;;;;;;;;;;;;;;;;;;;;;;"1261";"2014-07-18 14:43:15.603";"NST_correctLoc";"26";"0";"FINISHED";"LEFT";"success";"313";"0";"2014-07-18 14:43:14.340";"3";;;;;;;;;;;;;;;;;;;;;;;;;;;;;;;;;;;;;;;;;;;;;
"allaboutglee";;;"Windows 7";"Rachel's Experiment (D.T.)";"1.0";"2";"1";"1";"2";"1";"1";"2014-07-18 14:38:29.686";"2014-07-18 14:54:20.679";"1";"1";"0";"56";"55";"module.training_block2.exec-5813.GoNoGo2";;;;;;;;;;;;;;;;;;;;;;;;;;;;;;;;;;;"1261";"2014-07-18 14:43:18.146";"NST_correctLoc";"21";"1";"FINISHED";"RIGHT";"success";"330";"0";"2014-07-18 14:43:16.882";"3";;;;;;;;;;;;;;;;;;;;;;;;;;;;;;;;;;;;;;;;;;;;;
"allaboutglee";;;"Windows 7";"Rachel's Experiment (D.T.)";"1.0";"2";"1";"1";"2";"1";"1";"2014-07-18 14:38:29.686";"2014-07-18 14:54:20.679";"1";"1";"0";"57";"56";"module.training_block2.exec-5813.GoNoGo2";;;;;;;;;;;;;;;;;;;;;;;;;;;;;;;;;;;"1261";"2014-07-18 14:43:20.689";"NST_correctLoc";"17";"0";"FINISHED";"LEFT";"success";"332";"0";"2014-07-18 14:43:19.425";"2";;;;;;;;;;;;;;;;;;;;;;;;;;;;;;;;;;;;;;;;;;;;;
"allaboutglee";;;"Windows 7";"Rachel's Experiment (D.T.)";"1.0";"2";"1";"1";"2";"1";"1";"2014-07-18 14:38:29.686";"2014-07-18 14:54:20.679";"1";"1";"0";"58";"57";"module.training_block2.exec-5813.GoNoGo2";;;;;;;;;;;;;;;;;;;;;;;;;;;;;;;;;;;"1261";"2014-07-18 14:43:23.232";"NST_correctLoc";"2";"1";"FINISHED";"RIGHT";"success";"309";"0";"2014-07-18 14:43:21.968";"1";;;;;;;;;;;;;;;;;;;;;;;;;;;;;;;;;;;;;;;;;;;;;
"allaboutglee";;;"Windows 7";"Rachel's Experiment (D.T.)";"1.0";"2";"1";"1";"2";"1";"1";"2014-07-18 14:38:29.686";"2014-07-18 14:54:20.679";"1";"1";"0";"59";"58";"module.training_block2.exec-5813.GoNoGo2";;;;;;;;;;;;;;;;;;;;;;;;;;;;;;;;;;;"1259";"2014-07-18 14:43:25.884";"NST_correctLoc";"8";"1";"FINISHED";"RIGHT";"success";"358";"0";"2014-07-18 14:43:24.620";"1";;;;;;;;;;;;;;;;;;;;;;;;;;;;;;;;;;;;;;;;;;;;;
"allaboutglee";;;"Windows 7";"Rachel's Experiment (D.T.)";"1.0";"2";"1";"1";"2";"1";"1";"2014-07-18 14:38:29.686";"2014-07-18 14:54:20.679";"1";"1";"0";"60";"59";"module.training_block2.exec-5813.GoNoGo2";;;;;;;;;;;;;;;;;;;;;;;;;;;;;;;;;;;"1258";"2014-07-18 14:43:28.426";"NST_correctLoc";"9";"1";"FINISHED";"RIGHT";"success";"350";"0";"2014-07-18 14:43:27.163";"2";;;;;;;;;;;;;;;;;;;;;;;;;;;;;;;;;;;;;;;;;;;;;
"allaboutglee";;;"Windows 7";"Rachel's Experiment (D.T.)";"1.0";"2";"1";"1";"2";"1";"1";"2014-07-18 14:38:29.686";"2014-07-18 14:54:20.679";"1";"1";"0";"61";"60";"module.training_block2.exec-5813.GoNoGo2";;;;;;;;;;;;;;;;;;;;;;;;;;;;;;;;;;;"1258";"2014-07-18 14:43:30.969";"NST_correctLoc";"18";"0";"FINISHED";"LEFT";"success";"336";"0";"2014-07-18 14:43:29.706";"3";;;;;;;;;;;;;;;;;;;;;;;;;;;;;;;;;;;;;;;;;;;;;
"allaboutglee";;;"Windows 7";"Rachel's Experiment (D.T.)";"1.0";"2";"1";"1";"2";"1";"1";"2014-07-18 14:38:29.686";"2014-07-18 14:54:20.679";"1";"1";"0";"62";"61";"module.training_block2.exec-5813.GoNoGo2";;;;;;;;;;;;;;;;;;;;;;;;;;;;;;;;;;;"1257";"2014-07-18 14:43:33.512";"NST_correctLoc";"4";"0";"FINISHED";"LEFT";"success";"344";"0";"2014-07-18 14:43:32.248";"1";;;;;;;;;;;;;;;;;;;;;;;;;;;;;;;;;;;;;;;;;;;;;
"allaboutglee";;;"Windows 7";"Rachel's Experiment (D.T.)";"1.0";"2";"1";"1";"2";"1";"1";"2014-07-18 14:38:29.686";"2014-07-18 14:54:20.679";"1";"1";"0";"63";"62";"module.training_block2.exec-5813.GoNoGo2";;;;;;;;;;;;;;;;;;;;;;;;;;;;;;;;;;;"1258";"2014-07-18 14:43:36.055";"NST_correctLoc";"31";"0";"FINISHED";"LEFT";"success";"378";"0";"2014-07-18 14:43:34.791";"3";;;;;;;;;;;;;;;;;;;;;;;;;;;;;;;;;;;;;;;;;;;;;
"allaboutglee";;;"Windows 7";"Rachel's Experiment (D.T.)";"1.0";"2";"1";"1";"2";"1";"1";"2014-07-18 14:38:29.686";"2014-07-18 14:54:20.679";"1";"1";"0";"64";"63";"module.training_block2.exec-5813.GoNoGo2";;;;;;;;;;;;;;;;;;;;;;;;;;;;;;;;;;;"1258";"2014-07-18 14:43:38.598";"NST_correctLoc";"30";"1";"FINISHED";"RIGHT";"success";"299";"0";"2014-07-18 14:43:37.334";"3";;;;;;;;;;;;;;;;;;;;;;;;;;;;;;;;;;;;;;;;;;;;;
"allaboutglee";;;"Windows 7";"Rachel's Experiment (D.T.)";"1.0";"2";"1";"1";"2";"1";"1";"2014-07-18 14:38:29.686";"2014-07-18 14:54:20.679";"1";"1";"0";"65";"64";"module.training_block2.exec-5813.GoNoGo2";;;;;;;;;;;;;;;;;;;;;;;;;;;;;;;;;;;"1258";"2014-07-18 14:43:41.140";"NST_correctLoc";"5";"1";"FINISHED";"RIGHT";"success";"333";"0";"2014-07-18 14:43:39.877";"1";;;;;;;;;;;;;;;;;;;;;;;;;;;;;;;;;;;;;;;;;;;;;
"allaboutglee";;;"Windows 7";"Rachel's Experiment (D.T.)";"1.0";"2";"1";"1";"2";"1";"1";"2014-07-18 14:38:29.686";"2014-07-18 14:54:20.679";"1";"1";"0";"66";"65";"module.training_block2.exec-5813.GoNoGo2";;;;;;;;;;;;;;;;;;;;;;;;;;;;;;;;;;;"1258";"2014-07-18 14:43:43.683";"NST_correctLoc";"25";"1";"FINISHED";"RIGHT";"success";"374";"0";"2014-07-18 14:43:42.420";"3";;;;;;;;;;;;;;;;;;;;;;;;;;;;;;;;;;;;;;;;;;;;;
"allaboutglee";;;"Windows 7";"Rachel's Experiment (D.T.)";"1.0";"2";"1";"1";"2";"1";"1";"2014-07-18 14:38:29.686";"2014-07-18 14:54:20.679";"1";"1";"0";"67";"66";"module.training_block2.exec-5813.GoNoGo2";;;;;;;;;;;;;;;;;;;;;;;;;;;;;;;;;;;"1258";"2014-07-18 14:43:46.226";"NST_correctLoc";"24";"1";"FINISHED";"RIGHT";"success";"327";"0";"2014-07-18 14:43:44.962";"3";;;;;;;;;;;;;;;;;;;;;;;;;;;;;;;;;;;;;;;;;;;;;
"allaboutglee";;;"Windows 7";"Rachel's Experiment (D.T.)";"1.0";"2";"1";"1";"2";"1";"1";"2014-07-18 14:38:29.686";"2014-07-18 14:54:20.679";"1";"1";"0";"68";"67";"module.training_block2.exec-5813.GoNoGo2";;;;;;;;;;;;;;;;;;;;;;;;;;;;;;;;;;;"1258";"2014-07-18 14:43:48.769";"NST_correctLoc";"16";"1";"FINISHED";"RIGHT";"success";"536";"0";"2014-07-18 14:43:47.505";"2";;;;;;;;;;;;;;;;;;;;;;;;;;;;;;;;;;;;;;;;;;;;;
"allaboutglee";;;"Windows 7";"Rachel's Experiment (D.T.)";"1.0";"2";"1";"1";"2";"1";"1";"2014-07-18 14:38:29.686";"2014-07-18 14:54:20.679";"1";"1";"0";"69";"68";"module.training_block2.exec-5813.GoNoGo2";;;;;;;;;;;;;;;;;;;;;;;;;;;;;;;;;;;"1258";"2014-07-18 14:43:51.312";"NST_correctLoc";"27";"0";"FINISHED";"LEFT";"success";"361";"0";"2014-07-18 14:43:50.048";"3";;;;;;;;;;;;;;;;;;;;;;;;;;;;;;;;;;;;;;;;;;;;;
"allaboutglee";;;"Windows 7";"Rachel's Experiment (D.T.)";"1.0";"2";"1";"1";"2";"1";"1";"2014-07-18 14:38:29.686";"2014-07-18 14:54:20.679";"1";"1";"0";"70";"69";"module.training_block2.exec-5813.GoNoGo2";;;;;;;;;;;;;;;;;;;;;;;;;;;;;;;;;;;"1258";"2014-07-18 14:43:53.854";"NST_correctLoc";"34";"0";"FINISHED";"LEFT";"success";"314";"0";"2014-07-18 14:43:52.591";"3";;;;;;;;;;;;;;;;;;;;;;;;;;;;;;;;;;;;;;;;;;;;;
"allaboutglee";;;"Windows 7";"Rachel's Experiment (D.T.)";"1.0";"2";"1";"1";"2";"1";"1";"2014-07-18 14:38:29.686";"2014-07-18 14:54:20.679";"1";"1";"0";"71";"70";"module.training_block2.exec-5813.GoNoGo2";;;;;;;;;;;;;;;;;;;;;;;;;;;;;;;;;;;"1257";"2014-07-18 14:43:56.397";"NST_correctLoc";"0";"0";"FINISHED";"LEFT";"success";"322";"0";"2014-07-18 14:43:55.134";"1";;;;;;;;;;;;;;;;;;;;;;;;;;;;;;;;;;;;;;;;;;;;;
"allaboutglee";;;"Windows 7";"Rachel's Experiment (D.T.)";"1.0";"2";"1";"1";"2";"1";"1";"2014-07-18 14:38:29.686";"2014-07-18 14:54:20.679";"1";"1";"0";"72";"71";"module.training_block2.exec-5813.GoNoGo2";;;;;;;;;;;;;;;;;;;;;;;;;;;;;;;;;;;"1258";"2014-07-18 14:43:58.940";"NST_correctLoc";"29";"1";"FINISHED";"RIGHT";"success";"333";"0";"2014-07-18 14:43:57.676";"3";;;;;;;;;;;;;;;;;;;;;;;;;;;;;;;;;;;;;;;;;;;;;
"allaboutglee";;;"Windows 7";"Rachel's Experiment (D.T.)";"1.0";"2";"1";"1";"2";"1";"1";"2014-07-18 14:38:29.686";"2014-07-18 14:54:20.679";"1";"1";"0";"73";"72";"module.training_block2.exec-5813.GoNoGo2";;;;;;;;;;;;;;;;;;;;;;;;;;;;;;;;;;;"1258";"2014-07-18 14:44:01.498";"NST_correctLoc";"35";"0";"FINISHED";"LEFT";"success";"358";"0";"2014-07-18 14:44:00.235";"3";;;;;;;;;;;;;;;;;;;;;;;;;;;;;;;;;;;;;;;;;;;;;
"allaboutglee";;;"Windows 7";"Rachel's Experiment (D.T.)";"1.0";"2";"1";"1";"2";"1";"1";"2014-07-18 14:38:29.686";"2014-07-18 14:54:20.679";"1";"1";"0";"74";"73";"module.training_block2.exec-5813.GoNoGo2";;;;;;;;;;;;;;;;;;;;;;;;;;;;;;;;;;;"1258";"2014-07-18 14:44:04.041";"NST_correctLoc";"11";"1";"FINISHED";"RIGHT";"success";"319";"0";"2014-07-18 14:44:02.778";"2";;;;;;;;;;;;;;;;;;;;;;;;;;;;;;;;;;;;;;;;;;;;;
"allaboutglee";;;"Windows 7";"Rachel's Experiment (D.T.)";"1.0";"2";"1";"1";"2";"1";"1";"2014-07-18 14:38:29.686";"2014-07-18 14:54:20.679";"1";"1";"0";"75";"74";"module.training_block2.exec-5813.GoNoGo2";;;;;;;;;;;;;;;;;;;;;;;;;;;;;;;;;;;"1258";"2014-07-18 14:44:06.584";"NST_correctLoc";"1";"0";"FINISHED";"LEFT";"success";"321";"0";"2014-07-18 14:44:05.320";"1";;;;;;;;;;;;;;;;;;;;;;;;;;;;;;;;;;;;;;;;;;;;;
"allaboutglee";;;"Windows 7";"Rachel's Experiment (D.T.)";"1.0";"2";"1";"1";"2";"1";"1";"2014-07-18 14:38:29.686";"2014-07-18 14:54:20.679";"1";"1";"0";"76";"75";"module.training_block2.exec-5813.GoNoGo2";;;;;;;;;;;;;;;;;;;;;;;;;;;;;;;;;;;"1258";"2014-07-18 14:44:09.127";"NST_correctLoc";"12";"1";"FINISHED";"RIGHT";"success";"314";"0";"2014-07-18 14:44:07.863";"2";;;;;;;;;;;;;;;;;;;;;;;;;;;;;;;;;;;;;;;;;;;;;
"allaboutglee";;;"Windows 7";"Rachel's Experiment (D.T.)";"1.0";"2";"1";"1";"2";"1";"1";"2014-07-18 14:38:29.686";"2014-07-18 14:54:20.679";"1";"1";"0";"77";"76";"module.training_block2.exec-5813.GoNoGo2";;;;;;;;;;;;;;;;;;;;;;;;;;;;;;;;;;;"1258";"2014-07-18 14:44:11.670";"NST_correctLoc";"20";"1";"FINISHED";"RIGHT";"success";"371";"0";"2014-07-18 14:44:10.406";"3";;;;;;;;;;;;;;;;;;;;;;;;;;;;;;;;;;;;;;;;;;;;;
"allaboutglee";;;"Windows 7";"Rachel's Experiment (D.T.)";"1.0";"2";"1";"1";"2";"1";"1";"2014-07-18 14:38:29.686";"2014-07-18 14:54:20.679";"1";"1";"0";"78";"77";"module.training_block2.exec-5813.GoNoGo2";;;;;;;;;;;;;;;;;;;;;;;;;;;;;;;;;;;"1258";"2014-07-18 14:44:14.212";"NST_correctLoc";"3";"0";"FINISHED";"LEFT";"success";"308";"0";"2014-07-18 14:44:12.949";"1";;;;;;;;;;;;;;;;;;;;;;;;;;;;;;;;;;;;;;;;;;;;;
"allaboutglee";;;"Windows 7";"Rachel's Experiment (D.T.)";"1.0";"2";"1";"1";"2";"1";"1";"2014-07-18 14:38:29.686";"2014-07-18 14:54:20.679";"1";"1";"0";"79";"78";"module.training_block2.exec-5813.GoNoGo2";;;;;;;;;;;;;;;;;;;;;;;;;;;;;;;;;;;"1257";"2014-07-18 14:44:16.755";"NST_correctLoc";"7";"0";"FINISHED";"LEFT";"success";"365";"0";"2014-07-18 14:44:15.492";"1";;;;;;;;;;;;;;;;;;;;;;;;;;;;;;;;;;;;;;;;;;;;;
"allaboutglee";;;"Windows 7";"Rachel's Experiment (D.T.)";"1.0";"2";"1";"1";"2";"1";"1";"2014-07-18 14:38:29.686";"2014-07-18 14:54:20.679";"1";"1";"0";"80";"79";"module.training_block2.exec-5813.GoNoGo2";;;;;;;;;;;;;;;;;;;;;;;;;;;;;;;;;;;"1257";"2014-07-18 14:44:19.298";"NST_correctLoc";"15";"1";"FINISHED";"RIGHT";"success";"382";"0";"2014-07-18 14:44:18.034";"2";;;;;;;;;;;;;;;;;;;;;;;;;;;;;;;;;;;;;;;;;;;;;
"allaboutglee";;;"Windows 7";"Rachel's Experiment (D.T.)";"1.0";"2";"1";"1";"2";"1";"1";"2014-07-18 14:38:29.686";"2014-07-18 14:54:20.679";"1";"1";"0";"81";"80";"module.training_block2.exec-5813.GoNoGo2";;;;;;;;;;;;;;;;;;;;;;;;;;;;;;;;;;;"1258";"2014-07-18 14:44:21.841";"NST_correctLoc";"23";"1";"FINISHED";"RIGHT";"success";"351";"0";"2014-07-18 14:44:20.577";"3";;;;;;;;;;;;;;;;;;;;;;;;;;;;;;;;;;;;;;;;;;;;;
"allaboutglee";;;"Windows 7";"Rachel's Experiment (D.T.)";"1.0";"2";"1";"1";"2";"1";"1";"2014-07-18 14:38:29.686";"2014-07-18 14:54:20.679";"1";"1";"0";"82";"81";"module.training_block2.exec-5813.GoNoGo2";;;;;;;;;;;;;;;;;;;;;;;;;;;;;;;;;;;"1257";"2014-07-18 14:44:24.384";"NST_correctLoc";"13";"0";"FINISHED";"LEFT";"success";"320";"0";"2014-07-18 14:44:23.120";"2";;;;;;;;;;;;;;;;;;;;;;;;;;;;;;;;;;;;;;;;;;;;;
"allaboutglee";;;"Windows 7";"Rachel's Experiment (D.T.)";"1.0";"2";"1";"1";"2";"1";"1";"2014-07-18 14:38:29.686";"2014-07-18 14:54:20.679";"1";"1";"0";"83";"82";"module.training_block2.exec-5813.GoNoGo2";;;;;;;;;;;;;;;;;;;;;;;;;;;;;;;;;;;"1257";"2014-07-18 14:44:26.926";"NST_correctLoc";"6";"0";"FINISHED";"LEFT";"success";"361";"0";"2014-07-18 14:44:25.663";"1";;;;;;;;;;;;;;;;;;;;;;;;;;;;;;;;;;;;;;;;;;;;;
"allaboutglee";;;"Windows 7";"Rachel's Experiment (D.T.)";"1.0";"2";"1";"1";"2";"1";"1";"2014-07-18 14:38:29.686";"2014-07-18 14:54:20.679";"1";"1";"0";"84";"83";"module.training_block2.exec-5813.GoNoGo2";;;;;;;;;;;;;;;;;;;;;;;;;;;;;;;;;;;"1257";"2014-07-18 14:44:29.469";"NST_correctLoc";"32";"1";"FINISHED";"RIGHT";"success";"315";"0";"2014-07-18 14:44:28.206";"3";;;;;;;;;;;;;;;;;;;;;;;;;;;;;;;;;;;;;;;;;;;;;
"allaboutglee";;;"Windows 7";"Rachel's Experiment (D.T.)";"1.0";"2";"1";"1";"2";"1";"1";"2014-07-18 14:38:29.686";"2014-07-18 14:54:20.679";"1";"1";"0";"85";"84";"module.training_block2.exec-5813.GoNoGo2";;;;;;;;;;;;;;;;;;;;;;;;;;;;;;;;;;;"1258";"2014-07-18 14:44:31.996";"NST_correctLoc";"22";"1";"FINISHED";"RIGHT";"success";"324";"0";"2014-07-18 14:44:30.733";"3";;;;;;;;;;;;;;;;;;;;;;;;;;;;;;;;;;;;;;;;;;;;;
"allaboutglee";;;"Windows 7";"Rachel's Experiment (D.T.)";"1.0";"2";"1";"1";"2";"1";"1";"2014-07-18 14:38:29.686";"2014-07-18 14:54:20.679";"1";"1";"0";"86";"85";"module.training_block2.exec-5813.GoNoGo2";;;;;;;;;;;;;;;;;;;;;;;;;;;;;;;;;;;"1258";"2014-07-18 14:44:34.539";"NST_correctLoc";"14";"0";"FINISHED";"LEFT";"success";"341";"0";"2014-07-18 14:44:33.276";"2";;;;;;;;;;;;;;;;;;;;;;;;;;;;;;;;;;;;;;;;;;;;;
"allaboutglee";;;"Windows 7";"Rachel's Experiment (D.T.)";"1.0";"2";"1";"1";"2";"1";"1";"2014-07-18 14:38:29.686";"2014-07-18 14:54:20.679";"1";"1";"0";"87";"86";"module.training_block2.exec-5813.GoNoGo2";;;;;;;;;;;;;;;;;;;;;;;;;;;;;;;;;;;"1258";"2014-07-18 14:44:37.098";"NST_correctLoc";"28";"0";"FINISHED";"LEFT";"success";"327";"0";"2014-07-18 14:44:35.834";"3";;;;;;;;;;;;;;;;;;;;;;;;;;;;;;;;;;;;;;;;;;;;;
"allaboutglee";;;"Windows 7";"Rachel's Experiment (D.T.)";"1.0";"2";"1";"1";"2";"1";"1";"2014-07-18 14:38:29.686";"2014-07-18 14:54:20.679";"1";"1";"0";"88";"87";"module.training_block3.exec-9866.GoNoGo3";;;;;;;;;;;;;;;;;;;;;;;;;;;;;;;;;;;;;;;;;;;;;;;"1261";"2014-07-18 14:44:54.866";"NST_correctLoc";"22";"1";"FINISHED";"RIGHT";"success";"434";"0";"2014-07-18 14:44:53.603";"3";;;;;;;;;;;;;;;;;;;;;;;;;;;;;;;;;
"allaboutglee";;;"Windows 7";"Rachel's Experiment (D.T.)";"1.0";"2";"1";"1";"2";"1";"1";"2014-07-18 14:38:29.686";"2014-07-18 14:54:20.679";"1";"1";"0";"89";"88";"module.training_block3.exec-9866.GoNoGo3";;;;;;;;;;;;;;;;;;;;;;;;;;;;;;;;;;;;;;;;;;;;;;;"1257";"2014-07-18 14:44:57.409";"NST_correctLoc";"19";"1";"FINISHED";"RIGHT";"success";"310";"0";"2014-07-18 14:44:56.145";"3";;;;;;;;;;;;;;;;;;;;;;;;;;;;;;;;;
"allaboutglee";;;"Windows 7";"Rachel's Experiment (D.T.)";"1.0";"2";"1";"1";"2";"1";"1";"2014-07-18 14:38:29.686";"2014-07-18 14:54:20.679";"1";"1";"0";"90";"89";"module.training_block3.exec-9866.GoNoGo3";;;;;;;;;;;;;;;;;;;;;;;;;;;;;;;;;;;;;;;;;;;;;;;"1261";"2014-07-18 14:44:59.936";"NST_correctLoc";"12";"0";"FINISHED";"LEFT";"success";"396";"0";"2014-07-18 14:44:58.673";"2";;;;;;;;;;;;;;;;;;;;;;;;;;;;;;;;;
"allaboutglee";;;"Windows 7";"Rachel's Experiment (D.T.)";"1.0";"2";"1";"1";"2";"1";"1";"2014-07-18 14:38:29.686";"2014-07-18 14:54:20.679";"1";"1";"0";"91";"90";"module.training_block3.exec-9866.GoNoGo3";;;;;;;;;;;;;;;;;;;;;;;;;;;;;;;;;;;;;;;;;;;;;;;"1261";"2014-07-18 14:45:02.463";"NST_correctLoc";"4";"0";"FINISHED";"LEFT";"success";"276";"0";"2014-07-18 14:45:01.200";"1";;;;;;;;;;;;;;;;;;;;;;;;;;;;;;;;;
"allaboutglee";;;"Windows 7";"Rachel's Experiment (D.T.)";"1.0";"2";"1";"1";"2";"1";"1";"2014-07-18 14:38:29.686";"2014-07-18 14:54:20.679";"1";"1";"0";"92";"91";"module.training_block3.exec-9866.GoNoGo3";;;;;;;;;;;;;;;;;;;;;;;;;;;;;;;;;;;;;;;;;;;;;;;"1261";"2014-07-18 14:45:04.991";"NST_correctLoc";"16";"0";"FINISHED";"LEFT";"success";"349";"0";"2014-07-18 14:45:03.727";"2";;;;;;;;;;;;;;;;;;;;;;;;;;;;;;;;;
"allaboutglee";;;"Windows 7";"Rachel's Experiment (D.T.)";"1.0";"2";"1";"1";"2";"1";"1";"2014-07-18 14:38:29.686";"2014-07-18 14:54:20.679";"1";"1";"0";"93";"92";"module.training_block3.exec-9866.GoNoGo3";;;;;;;;;;;;;;;;;;;;;;;;;;;;;;;;;;;;;;;;;;;;;;;"1261";"2014-07-18 14:45:07.533";"NST_correctLoc";"3";"0";"FINISHED";"LEFT";"success";"318";"0";"2014-07-18 14:45:06.270";"1";;;;;;;;;;;;;;;;;;;;;;;;;;;;;;;;;
"allaboutglee";;;"Windows 7";"Rachel's Experiment (D.T.)";"1.0";"2";"1";"1";"2";"1";"1";"2014-07-18 14:38:29.686";"2014-07-18 14:54:20.679";"1";"1";"0";"94";"93";"module.training_block3.exec-9866.GoNoGo3";;;;;;;;;;;;;;;;;;;;;;;;;;;;;;;;;;;;;;;;;;;;;;;"1253";"2014-07-18 14:45:10.061";"NST_correctLoc";"33";"1";"FINISHED";"RIGHT";"success";"335";"0";"2014-07-18 14:45:08.797";"3";;;;;;;;;;;;;;;;;;;;;;;;;;;;;;;;;
"allaboutglee";;;"Windows 7";"Rachel's Experiment (D.T.)";"1.0";"2";"1";"1";"2";"1";"1";"2014-07-18 14:38:29.686";"2014-07-18 14:54:20.679";"1";"1";"0";"95";"94";"module.training_block3.exec-9866.GoNoGo3";;;;;;;;;;;;;;;;;;;;;;;;;;;;;;;;;;;;;;;;;;;;;;;"1261";"2014-07-18 14:45:12.603";"NST_correctLoc";"29";"0";"FINISHED";"LEFT";"success";"344";"0";"2014-07-18 14:45:11.340";"3";;;;;;;;;;;;;;;;;;;;;;;;;;;;;;;;;
"allaboutglee";;;"Windows 7";"Rachel's Experiment (D.T.)";"1.0";"2";"1";"1";"2";"1";"1";"2014-07-18 14:38:29.686";"2014-07-18 14:54:20.679";"1";"1";"0";"96";"95";"module.training_block3.exec-9866.GoNoGo3";;;;;;;;;;;;;;;;;;;;;;;;;;;;;;;;;;;;;;;;;;;;;;;"1261";"2014-07-18 14:45:15.131";"NST_correctLoc";"18";"0";"FINISHED";"LEFT";"success";"377";"0";"2014-07-18 14:45:13.867";"3";;;;;;;;;;;;;;;;;;;;;;;;;;;;;;;;;
"allaboutglee";;;"Windows 7";"Rachel's Experiment (D.T.)";"1.0";"2";"1";"1";"2";"1";"1";"2014-07-18 14:38:29.686";"2014-07-18 14:54:20.679";"1";"1";"0";"97";"96";"module.training_block3.exec-9866.GoNoGo3";;;;;;;;;;;;;;;;;;;;;;;;;;;;;;;;;;;;;;;;;;;;;;;"1261";"2014-07-18 14:45:17.658";"NST_correctLoc";"32";"1";"FINISHED";"RIGHT";"success";"306";"0";"2014-07-18 14:45:16.394";"3";;;;;;;;;;;;;;;;;;;;;;;;;;;;;;;;;
"allaboutglee";;;"Windows 7";"Rachel's Experiment (D.T.)";"1.0";"2";"1";"1";"2";"1";"1";"2014-07-18 14:38:29.686";"2014-07-18 14:54:20.679";"1";"1";"0";"98";"97";"module.training_block3.exec-9866.GoNoGo3";;;;;;;;;;;;;;;;;;;;;;;;;;;;;;;;;;;;;;;;;;;;;;;"1261";"2014-07-18 14:45:20.201";"NST_correctLoc";"30";"0";"FINISHED";"LEFT";"success";"331";"0";"2014-07-18 14:45:18.937";"3";;;;;;;;;;;;;;;;;;;;;;;;;;;;;;;;;
"allaboutglee";;;"Windows 7";"Rachel's Experiment (D.T.)";"1.0";"2";"1";"1";"2";"1";"1";"2014-07-18 14:38:29.686";"2014-07-18 14:54:20.679";"1";"1";"0";"99";"98";"module.training_block3.exec-9866.GoNoGo3";;;;;;;;;;;;;;;;;;;;;;;;;;;;;;;;;;;;;;;;;;;;;;;"1261";"2014-07-18 14:45:22.728";"NST_correctLoc";"1";"0";"FINISHED";"LEFT";"success";"332";"0";"2014-07-18 14:45:21.464";"1";;;;;;;;;;;;;;;;;;;;;;;;;;;;;;;;;
"allaboutglee";;;"Windows 7";"Rachel's Experiment (D.T.)";"1.0";"2";"1";"1";"2";"1";"1";"2014-07-18 14:38:29.686";"2014-07-18 14:54:20.679";"1";"1";"0";"100";"99";"module.training_block3.exec-9866.GoNoGo3";;;;;;;;;;;;;;;;;;;;;;;;;;;;;;;;;;;;;;;;;;;;;;;"1261";"2014-07-18 14:45:25.255";"NST_correctLoc";"31";"1";"FINISHED";"RIGHT";"success";"388";"0";"2014-07-18 14:45:23.991";"3";;;;;;;;;;;;;;;;;;;;;;;;;;;;;;;;;
"allaboutglee";;;"Windows 7";"Rachel's Experiment (D.T.)";"1.0";"2";"1";"1";"2";"1";"1";"2014-07-18 14:38:29.686";"2014-07-18 14:54:20.679";"1";"1";"0";"101";"100";"module.training_block3.exec-9866.GoNoGo3";;;;;;;;;;;;;;;;;;;;;;;;;;;;;;;;;;;;;;;;;;;;;;;"1261";"2014-07-18 14:45:27.813";"NST_correctLoc";"28";"0";"FINISHED";"LEFT";"success";"254";"0";"2014-07-18 14:45:26.550";"3";;;;;;;;;;;;;;;;;;;;;;;;;;;;;;;;;
"allaboutglee";;;"Windows 7";"Rachel's Experiment (D.T.)";"1.0";"2";"1";"1";"2";"1";"1";"2014-07-18 14:38:29.686";"2014-07-18 14:54:20.679";"1";"1";"0";"102";"101";"module.training_block3.exec-9866.GoNoGo3";;;;;;;;;;;;;;;;;;;;;;;;;;;;;;;;;;;;;;;;;;;;;;;"1261";"2014-07-18 14:45:30.356";"NST_correctLoc";"23";"1";"FINISHED";"RIGHT";"success";"343";"0";"2014-07-18 14:45:29.093";"3";;;;;;;;;;;;;;;;;;;;;;;;;;;;;;;;;
"allaboutglee";;;"Windows 7";"Rachel's Experiment (D.T.)";"1.0";"2";"1";"1";"2";"1";"1";"2014-07-18 14:38:29.686";"2014-07-18 14:54:20.679";"1";"1";"0";"103";"102";"module.training_block3.exec-9866.GoNoGo3";;;;;;;;;;;;;;;;;;;;;;;;;;;;;;;;;;;;;;;;;;;;;;;"1261";"2014-07-18 14:45:32.915";"NST_correctLoc";"27";"0";"FINISHED";"LEFT";"success";"353";"0";"2014-07-18 14:45:31.651";"3";;;;;;;;;;;;;;;;;;;;;;;;;;;;;;;;;
"allaboutglee";;;"Windows 7";"Rachel's Experiment (D.T.)";"1.0";"2";"1";"1";"2";"1";"1";"2014-07-18 14:38:29.686";"2014-07-18 14:54:20.679";"1";"1";"0";"104";"103";"module.training_block3.exec-9866.GoNoGo3";;;;;;;;;;;;;;;;;;;;;;;;;;;;;;;;;;;;;;;;;;;;;;;"1261";"2014-07-18 14:45:35.442";"NST_correctLoc";"0";"1";"FINISHED";"RIGHT";"success";"354";"0";"2014-07-18 14:45:34.178";"1";;;;;;;;;;;;;;;;;;;;;;;;;;;;;;;;;
"allaboutglee";;;"Windows 7";"Rachel's Experiment (D.T.)";"1.0";"2";"1";"1";"2";"1";"1";"2014-07-18 14:38:29.686";"2014-07-18 14:54:20.679";"1";"1";"0";"105";"104";"module.training_block3.exec-9866.GoNoGo3";;;;;;;;;;;;;;;;;;;;;;;;;;;;;;;;;;;;;;;;;;;;;;;"1261";"2014-07-18 14:45:37.985";"NST_correctLoc";"11";"1";"FINISHED";"RIGHT";"success";"443";"0";"2014-07-18 14:45:36.721";"2";;;;;;;;;;;;;;;;;;;;;;;;;;;;;;;;;
"allaboutglee";;;"Windows 7";"Rachel's Experiment (D.T.)";"1.0";"2";"1";"1";"2";"1";"1";"2014-07-18 14:38:29.686";"2014-07-18 14:54:20.679";"1";"1";"0";"106";"105";"module.training_block3.exec-9866.GoNoGo3";;;;;;;;;;;;;;;;;;;;;;;;;;;;;;;;;;;;;;;;;;;;;;;"1261";"2014-07-18 14:45:40.512";"NST_correctLoc";"7";"0";"FINISHED";"LEFT";"success";"388";"0";"2014-07-18 14:45:39.248";"1";;;;;;;;;;;;;;;;;;;;;;;;;;;;;;;;;
"allaboutglee";;;"Windows 7";"Rachel's Experiment (D.T.)";"1.0";"2";"1";"1";"2";"1";"1";"2014-07-18 14:38:29.686";"2014-07-18 14:54:20.679";"1";"1";"0";"107";"106";"module.training_block3.exec-9866.GoNoGo3";;;;;;;;;;;;;;;;;;;;;;;;;;;;;;;;;;;;;;;;;;;;;;;"1256";"2014-07-18 14:45:43.055";"NST_correctLoc";"26";"1";"FINISHED";"RIGHT";"success";"376";"0";"2014-07-18 14:45:41.791";"3";;;;;;;;;;;;;;;;;;;;;;;;;;;;;;;;;
"allaboutglee";;;"Windows 7";"Rachel's Experiment (D.T.)";"1.0";"2";"1";"1";"2";"1";"1";"2014-07-18 14:38:29.686";"2014-07-18 14:54:20.679";"1";"1";"0";"108";"107";"module.training_block3.exec-9866.GoNoGo3";;;;;;;;;;;;;;;;;;;;;;;;;;;;;;;;;;;;;;;;;;;;;;;"1257";"2014-07-18 14:45:45.582";"NST_correctLoc";"21";"0";"FINISHED";"LEFT";"success";"402";"0";"2014-07-18 14:45:44.318";"3";;;;;;;;;;;;;;;;;;;;;;;;;;;;;;;;;
"allaboutglee";;;"Windows 7";"Rachel's Experiment (D.T.)";"1.0";"2";"1";"1";"2";"1";"1";"2014-07-18 14:38:29.686";"2014-07-18 14:54:20.679";"1";"1";"0";"109";"108";"module.training_block3.exec-9866.GoNoGo3";;;;;;;;;;;;;;;;;;;;;;;;;;;;;;;;;;;;;;;;;;;;;;;"1261";"2014-07-18 14:45:48.109";"NST_correctLoc";"14";"0";"FINISHED";"LEFT";"success";"446";"0";"2014-07-18 14:45:46.845";"2";;;;;;;;;;;;;;;;;;;;;;;;;;;;;;;;;
"allaboutglee";;;"Windows 7";"Rachel's Experiment (D.T.)";"1.0";"2";"1";"1";"2";"1";"1";"2014-07-18 14:38:29.686";"2014-07-18 14:54:20.679";"1";"1";"0";"110";"109";"module.training_block3.exec-9866.GoNoGo3";;;;;;;;;;;;;;;;;;;;;;;;;;;;;;;;;;;;;;;;;;;;;;;"1261";"2014-07-18 14:45:50.636";"NST_correctLoc";"34";"0";"FINISHED";"LEFT";"success";"359";"0";"2014-07-18 14:45:49.373";"3";;;;;;;;;;;;;;;;;;;;;;;;;;;;;;;;;
"allaboutglee";;;"Windows 7";"Rachel's Experiment (D.T.)";"1.0";"2";"1";"1";"2";"1";"1";"2014-07-18 14:38:29.686";"2014-07-18 14:54:20.679";"1";"1";"0";"111";"110";"module.training_block3.exec-9866.GoNoGo3";;;;;;;;;;;;;;;;;;;;;;;;;;;;;;;;;;;;;;;;;;;;;;;"1257";"2014-07-18 14:45:53.163";"NST_correctLoc";"17";"1";"FINISHED";"RIGHT";"success";"356";"0";"2014-07-18 14:45:51.900";"2";;;;;;;;;;;;;;;;;;;;;;;;;;;;;;;;;
"allaboutglee";;;"Windows 7";"Rachel's Experiment (D.T.)";"1.0";"2";"1";"1";"2";"1";"1";"2014-07-18 14:38:29.686";"2014-07-18 14:54:20.679";"1";"1";"0";"112";"111";"module.training_block3.exec-9866.GoNoGo3";;;;;;;;;;;;;;;;;;;;;;;;;;;;;;;;;;;;;;;;;;;;;;;"1261";"2014-07-18 14:45:55.691";"NST_correctLoc";"6";"1";"FINISHED";"RIGHT";"success";"377";"0";"2014-07-18 14:45:54.427";"1";;;;;;;;;;;;;;;;;;;;;;;;;;;;;;;;;
"allaboutglee";;;"Windows 7";"Rachel's Experiment (D.T.)";"1.0";"2";"1";"1";"2";"1";"1";"2014-07-18 14:38:29.686";"2014-07-18 14:54:20.679";"1";"1";"0";"113";"112";"module.training_block3.exec-9866.GoNoGo3";;;;;;;;;;;;;;;;;;;;;;;;;;;;;;;;;;;;;;;;;;;;;;;"1261";"2014-07-18 14:45:58.233";"NST_correctLoc";"9";"1";"FINISHED";"RIGHT";"success";"362";"0";"2014-07-18 14:45:56.970";"2";;;;;;;;;;;;;;;;;;;;;;;;;;;;;;;;;
"allaboutglee";;;"Windows 7";"Rachel's Experiment (D.T.)";"1.0";"2";"1";"1";"2";"1";"1";"2014-07-18 14:38:29.686";"2014-07-18 14:54:20.679";"1";"1";"0";"114";"113";"module.training_block3.exec-9866.GoNoGo3";;;;;;;;;;;;;;;;;;;;;;;;;;;;;;;;;;;;;;;;;;;;;;;"1261";"2014-07-18 14:46:00.761";"NST_correctLoc";"15";"0";"FINISHED";"LEFT";"success";"363";"0";"2014-07-18 14:45:59.497";"2";;;;;;;;;;;;;;;;;;;;;;;;;;;;;;;;;
"allaboutglee";;;"Windows 7";"Rachel's Experiment (D.T.)";"1.0";"2";"1";"1";"2";"1";"1";"2014-07-18 14:38:29.686";"2014-07-18 14:54:20.679";"1";"1";"0";"115";"114";"module.training_block3.exec-9866.GoNoGo3";;;;;;;;;;;;;;;;;;;;;;;;;;;;;;;;;;;;;;;;;;;;;;;"1261";"2014-07-18 14:46:03.288";"NST_correctLoc";"8";"1";"FINISHED";"RIGHT";"success";"347";"0";"2014-07-18 14:46:02.024";"1";;;;;;;;;;;;;;;;;;;;;;;;;;;;;;;;;
"allaboutglee";;;"Windows 7";"Rachel's Experiment (D.T.)";"1.0";"2";"1";"1";"2";"1";"1";"2014-07-18 14:38:29.686";"2014-07-18 14:54:20.679";"1";"1";"0";"116";"115";"module.training_block3.exec-9866.GoNoGo3";;;;;;;;;;;;;;;;;;;;;;;;;;;;;;;;;;;;;;;;;;;;;;;"1261";"2014-07-18 14:46:05.815";"NST_correctLoc";"5";"1";"FINISHED";"RIGHT";"success";"436";"0";"2014-07-18 14:46:04.551";"1";;;;;;;;;;;;;;;;;;;;;;;;;;;;;;;;;
"allaboutglee";;;"Windows 7";"Rachel's Experiment (D.T.)";"1.0";"2";"1";"1";"2";"1";"1";"2014-07-18 14:38:29.686";"2014-07-18 14:54:20.679";"1";"1";"0";"117";"116";"module.training_block3.exec-9866.GoNoGo3";;;;;;;;;;;;;;;;;;;;;;;;;;;;;;;;;;;;;;;;;;;;;;;"1261";"2014-07-18 14:46:08.358";"NST_correctLoc";"25";"1";"FINISHED";"RIGHT";"success";"413";"0";"2014-07-18 14:46:07.094";"3";;;;;;;;;;;;;;;;;;;;;;;;;;;;;;;;;
"allaboutglee";;;"Windows 7";"Rachel's Experiment (D.T.)";"1.0";"2";"1";"1";"2";"1";"1";"2014-07-18 14:38:29.686";"2014-07-18 14:54:20.679";"1";"1";"0";"118";"117";"module.training_block3.exec-9866.GoNoGo3";;;;;;;;;;;;;;;;;;;;;;;;;;;;;;;;;;;;;;;;;;;;;;;"1261";"2014-07-18 14:46:10.885";"NST_correctLoc";"2";"0";"FINISHED";"LEFT";"success";"318";"0";"2014-07-18 14:46:09.621";"1";;;;;;;;;;;;;;;;;;;;;;;;;;;;;;;;;
"allaboutglee";;;"Windows 7";"Rachel's Experiment (D.T.)";"1.0";"2";"1";"1";"2";"1";"1";"2014-07-18 14:38:29.686";"2014-07-18 14:54:20.679";"1";"1";"0";"119";"118";"module.training_block3.exec-9866.GoNoGo3";;;;;;;;;;;;;;;;;;;;;;;;;;;;;;;;;;;;;;;;;;;;;;;"1261";"2014-07-18 14:46:13.412";"NST_correctLoc";"13";"0";"FINISHED";"LEFT";"success";"351";"0";"2014-07-18 14:46:12.149";"2";;;;;;;;;;;;;;;;;;;;;;;;;;;;;;;;;
"allaboutglee";;;"Windows 7";"Rachel's Experiment (D.T.)";"1.0";"2";"1";"1";"2";"1";"1";"2014-07-18 14:38:29.686";"2014-07-18 14:54:20.679";"1";"1";"0";"120";"119";"module.training_block3.exec-9866.GoNoGo3";;;;;;;;;;;;;;;;;;;;;;;;;;;;;;;;;;;;;;;;;;;;;;;"1261";"2014-07-18 14:46:15.955";"NST_correctLoc";"20";"1";"FINISHED";"RIGHT";"success";"416";"0";"2014-07-18 14:46:14.691";"3";;;;;;;;;;;;;;;;;;;;;;;;;;;;;;;;;
"allaboutglee";;;"Windows 7";"Rachel's Experiment (D.T.)";"1.0";"2";"1";"1";"2";"1";"1";"2014-07-18 14:38:29.686";"2014-07-18 14:54:20.679";"1";"1";"0";"121";"120";"module.training_block3.exec-9866.GoNoGo3";;;;;;;;;;;;;;;;;;;;;;;;;;;;;;;;;;;;;;;;;;;;;;;"1261";"2014-07-18 14:46:18.513";"NST_correctLoc";"35";"1";"FINISHED";"RIGHT";"success";"314";"0";"2014-07-18 14:46:17.250";"3";;;;;;;;;;;;;;;;;;;;;;;;;;;;;;;;;
"allaboutglee";;;"Windows 7";"Rachel's Experiment (D.T.)";"1.0";"2";"1";"1";"2";"1";"1";"2014-07-18 14:38:29.686";"2014-07-18 14:54:20.679";"1";"1";"0";"122";"121";"module.training_block3.exec-9866.GoNoGo3";;;;;;;;;;;;;;;;;;;;;;;;;;;;;;;;;;;;;;;;;;;;;;;"1261";"2014-07-18 14:46:21.041";"NST_correctLoc";"24";"1";"FINISHED";"RIGHT";"success";"338";"0";"2014-07-18 14:46:19.777";"3";;;;;;;;;;;;;;;;;;;;;;;;;;;;;;;;;
"allaboutglee";;;"Windows 7";"Rachel's Experiment (D.T.)";"1.0";"2";"1";"1";"2";"1";"1";"2014-07-18 14:38:29.686";"2014-07-18 14:54:20.679";"1";"1";"0";"123";"122";"module.training_block3.exec-9866.GoNoGo3";;;;;;;;;;;;;;;;;;;;;;;;;;;;;;;;;;;;;;;;;;;;;;;"1257";"2014-07-18 14:46:23.583";"NST_correctLoc";"10";"1";"FINISHED";"RIGHT";"success";"343";"0";"2014-07-18 14:46:22.320";"2";;;;;;;;;;;;;;;;;;;;;;;;;;;;;;;;;
"allaboutglee";;;"Windows 7";"Rachel's Experiment (D.T.)";"1.0";"2";"1";"1";"2";"1";"1";"2014-07-18 14:38:29.686";"2014-07-18 14:54:20.679";"1";"1";"0";"124";"123";"module.training_block4.exec-8507.GoNoGo4";;;;;;;;;;;;;;;;;;;;;;;;;;;;;;;;;;;;;;;;;;;;;;;;;;;;;;;;;;;"1261";"2014-07-18 14:46:34.784";"NST_correctLoc";"21";"1";"FINISHED";"RIGHT";"success";"339";"0";"2014-07-18 14:46:33.521";"3";;;;;;;;;;;;;;;;;;;;;
"allaboutglee";;;"Windows 7";"Rachel's Experiment (D.T.)";"1.0";"2";"1";"1";"2";"1";"1";"2014-07-18 14:38:29.686";"2014-07-18 14:54:20.679";"1";"1";"0";"125";"124";"module.training_block4.exec-8507.GoNoGo4";;;;;;;;;;;;;;;;;;;;;;;;;;;;;;;;;;;;;;;;;;;;;;;;;;;;;;;;;;;"1261";"2014-07-18 14:46:37.311";"NST_correctLoc";"28";"0";"FINISHED";"LEFT";"success";"316";"0";"2014-07-18 14:46:36.048";"3";;;;;;;;;;;;;;;;;;;;;
"allaboutglee";;;"Windows 7";"Rachel's Experiment (D.T.)";"1.0";"2";"1";"1";"2";"1";"1";"2014-07-18 14:38:29.686";"2014-07-18 14:54:20.679";"1";"1";"0";"126";"125";"module.training_block4.exec-8507.GoNoGo4";;;;;;;;;;;;;;;;;;;;;;;;;;;;;;;;;;;;;;;;;;;;;;;;;;;;;;;;;;;"1261";"2014-07-18 14:46:39.839";"NST_correctLoc";"9";"0";"FINISHED";"LEFT";"success";"308";"0";"2014-07-18 14:46:38.575";"2";;;;;;;;;;;;;;;;;;;;;
"allaboutglee";;;"Windows 7";"Rachel's Experiment (D.T.)";"1.0";"2";"1";"1";"2";"1";"1";"2014-07-18 14:38:29.686";"2014-07-18 14:54:20.679";"1";"1";"0";"127";"126";"module.training_block4.exec-8507.GoNoGo4";;;;;;;;;;;;;;;;;;;;;;;;;;;;;;;;;;;;;;;;;;;;;;;;;;;;;;;;;;;"1261";"2014-07-18 14:46:42.397";"NST_correctLoc";"8";"0";"FINISHED";"LEFT";"success";"334";"0";"2014-07-18 14:46:41.133";"1";;;;;;;;;;;;;;;;;;;;;
"allaboutglee";;;"Windows 7";"Rachel's Experiment (D.T.)";"1.0";"2";"1";"1";"2";"1";"1";"2014-07-18 14:38:29.686";"2014-07-18 14:54:20.679";"1";"1";"0";"128";"127";"module.training_block4.exec-8507.GoNoGo4";;;;;;;;;;;;;;;;;;;;;;;;;;;;;;;;;;;;;;;;;;;;;;;;;;;;;;;;;;;"1261";"2014-07-18 14:46:44.924";"NST_correctLoc";"35";"0";"FINISHED";"LEFT";"success";"351";"0";"2014-07-18 14:46:43.661";"3";;;;;;;;;;;;;;;;;;;;;
"allaboutglee";;;"Windows 7";"Rachel's Experiment (D.T.)";"1.0";"2";"1";"1";"2";"1";"1";"2014-07-18 14:38:29.686";"2014-07-18 14:54:20.679";"1";"1";"0";"129";"128";"module.training_block4.exec-8507.GoNoGo4";;;;;;;;;;;;;;;;;;;;;;;;;;;;;;;;;;;;;;;;;;;;;;;;;;;;;;;;;;;"1261";"2014-07-18 14:46:47.452";"NST_correctLoc";"33";"1";"FINISHED";"RIGHT";"success";"391";"0";"2014-07-18 14:46:46.188";"3";;;;;;;;;;;;;;;;;;;;;
"allaboutglee";;;"Windows 7";"Rachel's Experiment (D.T.)";"1.0";"2";"1";"1";"2";"1";"1";"2014-07-18 14:38:29.686";"2014-07-18 14:54:20.679";"1";"1";"0";"130";"129";"module.training_block4.exec-8507.GoNoGo4";;;;;;;;;;;;;;;;;;;;;;;;;;;;;;;;;;;;;;;;;;;;;;;;;;;;;;;;;;;"1261";"2014-07-18 14:46:49.979";"NST_correctLoc";"19";"0";"FINISHED";"LEFT";"success";"288";"0";"2014-07-18 14:46:48.715";"3";;;;;;;;;;;;;;;;;;;;;
"allaboutglee";;;"Windows 7";"Rachel's Experiment (D.T.)";"1.0";"2";"1";"1";"2";"1";"1";"2014-07-18 14:38:29.686";"2014-07-18 14:54:20.679";"1";"1";"0";"131";"130";"module.training_block4.exec-8507.GoNoGo4";;;;;;;;;;;;;;;;;;;;;;;;;;;;;;;;;;;;;;;;;;;;;;;;;;;;;;;;;;;"1261";"2014-07-18 14:46:52.506";"NST_correctLoc";"3";"0";"FINISHED";"LEFT";"success";"345";"0";"2014-07-18 14:46:51.242";"1";;;;;;;;;;;;;;;;;;;;;
"allaboutglee";;;"Windows 7";"Rachel's Experiment (D.T.)";"1.0";"2";"1";"1";"2";"1";"1";"2014-07-18 14:38:29.686";"2014-07-18 14:54:20.679";"1";"1";"0";"132";"131";"module.training_block4.exec-8507.GoNoGo4";;;;;;;;;;;;;;;;;;;;;;;;;;;;;;;;;;;;;;;;;;;;;;;;;;;;;;;;;;;"1261";"2014-07-18 14:46:55.049";"NST_correctLoc";"13";"1";"FINISHED";"RIGHT";"success";"530";"0";"2014-07-18 14:46:53.785";"2";;;;;;;;;;;;;;;;;;;;;
"allaboutglee";;;"Windows 7";"Rachel's Experiment (D.T.)";"1.0";"2";"1";"1";"2";"1";"1";"2014-07-18 14:38:29.686";"2014-07-18 14:54:20.679";"1";"1";"0";"133";"132";"module.training_block4.exec-8507.GoNoGo4";;;;;;;;;;;;;;;;;;;;;;;;;;;;;;;;;;;;;;;;;;;;;;;;;;;;;;;;;;;"1261";"2014-07-18 14:46:57.576";"NST_correctLoc";"16";"1";"FINISHED";"RIGHT";"success";"363";"0";"2014-07-18 14:46:56.312";"2";;;;;;;;;;;;;;;;;;;;;
"allaboutglee";;;"Windows 7";"Rachel's Experiment (D.T.)";"1.0";"2";"1";"1";"2";"1";"1";"2014-07-18 14:38:29.686";"2014-07-18 14:54:20.679";"1";"1";"0";"134";"133";"module.training_block4.exec-8507.GoNoGo4";;;;;;;;;;;;;;;;;;;;;;;;;;;;;;;;;;;;;;;;;;;;;;;;;;;;;;;;;;;"1261";"2014-07-18 14:47:00.103";"NST_correctLoc";"31";"0";"FINISHED";"LEFT";"success";"388";"0";"2014-07-18 14:46:58.840";"3";;;;;;;;;;;;;;;;;;;;;
"allaboutglee";;;"Windows 7";"Rachel's Experiment (D.T.)";"1.0";"2";"1";"1";"2";"1";"1";"2014-07-18 14:38:29.686";"2014-07-18 14:54:20.679";"1";"1";"0";"135";"134";"module.training_block4.exec-8507.GoNoGo4";;;;;;;;;;;;;;;;;;;;;;;;;;;;;;;;;;;;;;;;;;;;;;;;;;;;;;;;;;;"1261";"2014-07-18 14:47:02.630";"NST_correctLoc";"2";"0";"FINISHED";"LEFT";"success";"349";"0";"2014-07-18 14:47:01.367";"1";;;;;;;;;;;;;;;;;;;;;
"allaboutglee";;;"Windows 7";"Rachel's Experiment (D.T.)";"1.0";"2";"1";"1";"2";"1";"1";"2014-07-18 14:38:29.686";"2014-07-18 14:54:20.679";"1";"1";"0";"136";"135";"module.training_block4.exec-8507.GoNoGo4";;;;;;;;;;;;;;;;;;;;;;;;;;;;;;;;;;;;;;;;;;;;;;;;;;;;;;;;;;;"1261";"2014-07-18 14:47:05.158";"NST_correctLoc";"12";"0";"FINISHED";"LEFT";"success";"397";"0";"2014-07-18 14:47:03.894";"2";;;;;;;;;;;;;;;;;;;;;
"allaboutglee";;;"Windows 7";"Rachel's Experiment (D.T.)";"1.0";"2";"1";"1";"2";"1";"1";"2014-07-18 14:38:29.686";"2014-07-18 14:54:20.679";"1";"1";"0";"137";"136";"module.training_block4.exec-8507.GoNoGo4";;;;;;;;;;;;;;;;;;;;;;;;;;;;;;;;;;;;;;;;;;;;;;;;;;;;;;;;;;;"1261";"2014-07-18 14:47:07.700";"NST_correctLoc";"34";"0";"FINISHED";"LEFT";"success";"374";"0";"2014-07-18 14:47:06.437";"3";;;;;;;;;;;;;;;;;;;;;
"allaboutglee";;;"Windows 7";"Rachel's Experiment (D.T.)";"1.0";"2";"1";"1";"2";"1";"1";"2014-07-18 14:38:29.686";"2014-07-18 14:54:20.679";"1";"1";"0";"138";"137";"module.training_block4.exec-8507.GoNoGo4";;;;;;;;;;;;;;;;;;;;;;;;;;;;;;;;;;;;;;;;;;;;;;;;;;;;;;;;;;;"1261";"2014-07-18 14:47:10.228";"NST_correctLoc";"6";"0";"FINISHED";"LEFT";"success";"399";"0";"2014-07-18 14:47:08.964";"1";;;;;;;;;;;;;;;;;;;;;
"allaboutglee";;;"Windows 7";"Rachel's Experiment (D.T.)";"1.0";"2";"1";"1";"2";"1";"1";"2014-07-18 14:38:29.686";"2014-07-18 14:54:20.679";"1";"1";"0";"139";"138";"module.training_block4.exec-8507.GoNoGo4";;;;;;;;;;;;;;;;;;;;;;;;;;;;;;;;;;;;;;;;;;;;;;;;;;;;;;;;;;;"1261";"2014-07-18 14:47:12.755";"NST_correctLoc";"5";"1";"FINISHED";"RIGHT";"success";"288";"0";"2014-07-18 14:47:11.491";"1";;;;;;;;;;;;;;;;;;;;;
"allaboutglee";;;"Windows 7";"Rachel's Experiment (D.T.)";"1.0";"2";"1";"1";"2";"1";"1";"2014-07-18 14:38:29.686";"2014-07-18 14:54:20.679";"1";"1";"0";"140";"139";"module.training_block4.exec-8507.GoNoGo4";;;;;;;;;;;;;;;;;;;;;;;;;;;;;;;;;;;;;;;;;;;;;;;;;;;;;;;;;;;"1261";"2014-07-18 14:47:15.313";"NST_correctLoc";"27";"1";"FINISHED";"RIGHT";"success";"306";"0";"2014-07-18 14:47:14.050";"3";;;;;;;;;;;;;;;;;;;;;
"allaboutglee";;;"Windows 7";"Rachel's Experiment (D.T.)";"1.0";"2";"1";"1";"2";"1";"1";"2014-07-18 14:38:29.686";"2014-07-18 14:54:20.679";"1";"1";"0";"141";"140";"module.training_block4.exec-8507.GoNoGo4";;;;;;;;;;;;;;;;;;;;;;;;;;;;;;;;;;;;;;;;;;;;;;;;;;;;;;;;;;;"1261";"2014-07-18 14:47:17.840";"NST_correctLoc";"1";"0";"FINISHED";"LEFT";"success";"346";"0";"2014-07-18 14:47:16.577";"1";;;;;;;;;;;;;;;;;;;;;
"allaboutglee";;;"Windows 7";"Rachel's Experiment (D.T.)";"1.0";"2";"1";"1";"2";"1";"1";"2014-07-18 14:38:29.686";"2014-07-18 14:54:20.679";"1";"1";"0";"142";"141";"module.training_block4.exec-8507.GoNoGo4";;;;;;;;;;;;;;;;;;;;;;;;;;;;;;;;;;;;;;;;;;;;;;;;;;;;;;;;;;;"1261";"2014-07-18 14:47:20.383";"NST_correctLoc";"25";"0";"FINISHED";"LEFT";"success";"428";"0";"2014-07-18 14:47:19.120";"3";;;;;;;;;;;;;;;;;;;;;
"allaboutglee";;;"Windows 7";"Rachel's Experiment (D.T.)";"1.0";"2";"1";"1";"2";"1";"1";"2014-07-18 14:38:29.686";"2014-07-18 14:54:20.679";"1";"1";"0";"143";"142";"module.training_block4.exec-8507.GoNoGo4";;;;;;;;;;;;;;;;;;;;;;;;;;;;;;;;;;;;;;;;;;;;;;;;;;;;;;;;;;;"1261";"2014-07-18 14:47:22.910";"NST_correctLoc";"26";"1";"FINISHED";"RIGHT";"success";"380";"0";"2014-07-18 14:47:21.647";"3";;;;;;;;;;;;;;;;;;;;;
"allaboutglee";;;"Windows 7";"Rachel's Experiment (D.T.)";"1.0";"2";"1";"1";"2";"1";"1";"2014-07-18 14:38:29.686";"2014-07-18 14:54:20.679";"1";"1";"0";"144";"143";"module.training_block4.exec-8507.GoNoGo4";;;;;;;;;;;;;;;;;;;;;;;;;;;;;;;;;;;;;;;;;;;;;;;;;;;;;;;;;;;"1261";"2014-07-18 14:47:25.438";"NST_correctLoc";"11";"0";"FINISHED";"LEFT";"success";"357";"0";"2014-07-18 14:47:24.174";"2";;;;;;;;;;;;;;;;;;;;;
"allaboutglee";;;"Windows 7";"Rachel's Experiment (D.T.)";"1.0";"2";"1";"1";"2";"1";"1";"2014-07-18 14:38:29.686";"2014-07-18 14:54:20.679";"1";"1";"0";"145";"144";"module.training_block4.exec-8507.GoNoGo4";;;;;;;;;;;;;;;;;;;;;;;;;;;;;;;;;;;;;;;;;;;;;;;;;;;;;;;;;;;"1262";"2014-07-18 14:47:27.996";"NST_correctLoc";"4";"0";"FINISHED";"LEFT";"success";"319";"0";"2014-07-18 14:47:26.732";"1";;;;;;;;;;;;;;;;;;;;;
"allaboutglee";;;"Windows 7";"Rachel's Experiment (D.T.)";"1.0";"2";"1";"1";"2";"1";"1";"2014-07-18 14:38:29.686";"2014-07-18 14:54:20.679";"1";"1";"0";"146";"145";"module.training_block4.exec-8507.GoNoGo4";;;;;;;;;;;;;;;;;;;;;;;;;;;;;;;;;;;;;;;;;;;;;;;;;;;;;;;;;;;"1261";"2014-07-18 14:47:30.539";"NST_correctLoc";"30";"0";"FINISHED";"LEFT";"success";"344";"0";"2014-07-18 14:47:29.275";"3";;;;;;;;;;;;;;;;;;;;;
"allaboutglee";;;"Windows 7";"Rachel's Experiment (D.T.)";"1.0";"2";"1";"1";"2";"1";"1";"2014-07-18 14:38:29.686";"2014-07-18 14:54:20.679";"1";"1";"0";"147";"146";"module.training_block4.exec-8507.GoNoGo4";;;;;;;;;;;;;;;;;;;;;;;;;;;;;;;;;;;;;;;;;;;;;;;;;;;;;;;;;;;"1256";"2014-07-18 14:47:33.097";"NST_correctLoc";"17";"1";"FINISHED";"RIGHT";"success";"300";"0";"2014-07-18 14:47:31.834";"2";;;;;;;;;;;;;;;;;;;;;
"allaboutglee";;;"Windows 7";"Rachel's Experiment (D.T.)";"1.0";"2";"1";"1";"2";"1";"1";"2014-07-18 14:38:29.686";"2014-07-18 14:54:20.679";"1";"1";"0";"148";"147";"module.training_block4.exec-8507.GoNoGo4";;;;;;;;;;;;;;;;;;;;;;;;;;;;;;;;;;;;;;;;;;;;;;;;;;;;;;;;;;;"1261";"2014-07-18 14:47:35.624";"NST_correctLoc";"14";"0";"FINISHED";"LEFT";"success";"378";"0";"2014-07-18 14:47:34.361";"2";;;;;;;;;;;;;;;;;;;;;
"allaboutglee";;;"Windows 7";"Rachel's Experiment (D.T.)";"1.0";"2";"1";"1";"2";"1";"1";"2014-07-18 14:38:29.686";"2014-07-18 14:54:20.679";"1";"1";"0";"149";"148";"module.training_block4.exec-8507.GoNoGo4";;;;;;;;;;;;;;;;;;;;;;;;;;;;;;;;;;;;;;;;;;;;;;;;;;;;;;;;;;;"1261";"2014-07-18 14:47:38.167";"NST_correctLoc";"18";"1";"FINISHED";"RIGHT";"success";"387";"0";"2014-07-18 14:47:36.904";"3";;;;;;;;;;;;;;;;;;;;;
"allaboutglee";;;"Windows 7";"Rachel's Experiment (D.T.)";"1.0";"2";"1";"1";"2";"1";"1";"2014-07-18 14:38:29.686";"2014-07-18 14:54:20.679";"1";"1";"0";"150";"149";"module.training_block4.exec-8507.GoNoGo4";;;;;;;;;;;;;;;;;;;;;;;;;;;;;;;;;;;;;;;;;;;;;;;;;;;;;;;;;;;"1261";"2014-07-18 14:47:40.694";"NST_correctLoc";"23";"1";"FINISHED";"RIGHT";"success";"340";"0";"2014-07-18 14:47:39.431";"3";;;;;;;;;;;;;;;;;;;;;
"allaboutglee";;;"Windows 7";"Rachel's Experiment (D.T.)";"1.0";"2";"1";"1";"2";"1";"1";"2014-07-18 14:38:29.686";"2014-07-18 14:54:20.679";"1";"1";"0";"151";"150";"module.training_block4.exec-8507.GoNoGo4";;;;;;;;;;;;;;;;;;;;;;;;;;;;;;;;;;;;;;;;;;;;;;;;;;;;;;;;;;;"1261";"2014-07-18 14:47:43.222";"NST_correctLoc";"32";"1";"FINISHED";"RIGHT";"success";"413";"0";"2014-07-18 14:47:41.958";"3";;;;;;;;;;;;;;;;;;;;;
"allaboutglee";;;"Windows 7";"Rachel's Experiment (D.T.)";"1.0";"2";"1";"1";"2";"1";"1";"2014-07-18 14:38:29.686";"2014-07-18 14:54:20.679";"1";"1";"0";"152";"151";"module.training_block4.exec-8507.GoNoGo4";;;;;;;;;;;;;;;;;;;;;;;;;;;;;;;;;;;;;;;;;;;;;;;;;;;;;;;;;;;"1262";"2014-07-18 14:47:45.780";"NST_correctLoc";"22";"0";"FINISHED";"LEFT";"success";"335";"0";"2014-07-18 14:47:44.516";"3";;;;;;;;;;;;;;;;;;;;;
"allaboutglee";;;"Windows 7";"Rachel's Experiment (D.T.)";"1.0";"2";"1";"1";"2";"1";"1";"2014-07-18 14:38:29.686";"2014-07-18 14:54:20.679";"1";"1";"0";"153";"152";"module.training_block4.exec-8507.GoNoGo4";;;;;;;;;;;;;;;;;;;;;;;;;;;;;;;;;;;;;;;;;;;;;;;;;;;;;;;;;;;"1261";"2014-07-18 14:47:48.307";"NST_correctLoc";"29";"1";"FINISHED";"RIGHT";"success";"335";"0";"2014-07-18 14:47:47.044";"3";;;;;;;;;;;;;;;;;;;;;
"allaboutglee";;;"Windows 7";"Rachel's Experiment (D.T.)";"1.0";"2";"1";"1";"2";"1";"1";"2014-07-18 14:38:29.686";"2014-07-18 14:54:20.679";"1";"1";"0";"154";"153";"module.training_block4.exec-8507.GoNoGo4";;;;;;;;;;;;;;;;;;;;;;;;;;;;;;;;;;;;;;;;;;;;;;;;;;;;;;;;;;;"1261";"2014-07-18 14:47:50.850";"NST_correctLoc";"10";"0";"FINISHED";"LEFT";"success";"353";"0";"2014-07-18 14:47:49.586";"2";;;;;;;;;;;;;;;;;;;;;
"allaboutglee";;;"Windows 7";"Rachel's Experiment (D.T.)";"1.0";"2";"1";"1";"2";"1";"1";"2014-07-18 14:38:29.686";"2014-07-18 14:54:20.679";"1";"1";"0";"155";"154";"module.training_block4.exec-8507.GoNoGo4";;;;;;;;;;;;;;;;;;;;;;;;;;;;;;;;;;;;;;;;;;;;;;;;;;;;;;;;;;;"1261";"2014-07-18 14:47:53.377";"NST_correctLoc";"24";"1";"FINISHED";"RIGHT";"success";"321";"0";"2014-07-18 14:47:52.114";"3";;;;;;;;;;;;;;;;;;;;;
"allaboutglee";;;"Windows 7";"Rachel's Experiment (D.T.)";"1.0";"2";"1";"1";"2";"1";"1";"2014-07-18 14:38:29.686";"2014-07-18 14:54:20.679";"1";"1";"0";"156";"155";"module.training_block4.exec-8507.GoNoGo4";;;;;;;;;;;;;;;;;;;;;;;;;;;;;;;;;;;;;;;;;;;;;;;;;;;;;;;;;;;"1261";"2014-07-18 14:47:55.904";"NST_correctLoc";"20";"0";"FINISHED";"LEFT";"success";"338";"0";"2014-07-18 14:47:54.641";"3";;;;;;;;;;;;;;;;;;;;;
"allaboutglee";;;"Windows 7";"Rachel's Experiment (D.T.)";"1.0";"2";"1";"1";"2";"1";"1";"2014-07-18 14:38:29.686";"2014-07-18 14:54:20.679";"1";"1";"0";"157";"156";"module.training_block4.exec-8507.GoNoGo4";;;;;;;;;;;;;;;;;;;;;;;;;;;;;;;;;;;;;;;;;;;;;;;;;;;;;;;;;;;"1261";"2014-07-18 14:47:58.463";"NST_correctLoc";"7";"0";"FINISHED";"LEFT";"success";"300";"0";"2014-07-18 14:47:57.199";"1";;;;;;;;;;;;;;;;;;;;;
"allaboutglee";;;"Windows 7";"Rachel's Experiment (D.T.)";"1.0";"2";"1";"1";"2";"1";"1";"2014-07-18 14:38:29.686";"2014-07-18 14:54:20.679";"1";"1";"0";"158";"157";"module.training_block4.exec-8507.GoNoGo4";;;;;;;;;;;;;;;;;;;;;;;;;;;;;;;;;;;;;;;;;;;;;;;;;;;;;;;;;;;"1261";"2014-07-18 14:48:00.990";"NST_correctLoc";"0";"0";"FINISHED";"LEFT";"success";"364";"0";"2014-07-18 14:47:59.726";"1";;;;;;;;;;;;;;;;;;;;;
"allaboutglee";;;"Windows 7";"Rachel's Experiment (D.T.)";"1.0";"2";"1";"1";"2";"1";"1";"2014-07-18 14:38:29.686";"2014-07-18 14:54:20.679";"1";"1";"0";"159";"158";"module.training_block4.exec-8507.GoNoGo4";;;;;;;;;;;;;;;;;;;;;;;;;;;;;;;;;;;;;;;;;;;;;;;;;;;;;;;;;;;"1261";"2014-07-18 14:48:03.533";"NST_correctLoc";"15";"1";"FINISHED";"RIGHT";"success";"358";"0";"2014-07-18 14:48:02.269";"2";;;;;;;;;;;;;;;;;;;;;
"allaboutglee";;;"Windows 7";"Rachel's Experiment (D.T.)";"1.0";"2";"1";"1";"2";"1";"1";"2014-07-18 14:38:29.686";"2014-07-18 14:54:20.679";"1";"1";"0";"160";"159";"module.devaluation_practice.exec-8561.devalPractice";;;;;;;;;;;;"15012";"2014-07-18 14:48:56.604";"0";"4";"1";"5";"3038";"4421";"4509";"2014-07-18 14:48:41.581";;;;;;;;;;;;;;;;;;;;;;;;;;;;;;;;;;;;;;;;;;;;;;;;;;;;;;;;;;;;;;;;;;;;;;
"allaboutglee";;;"Windows 7";"Rachel's Experiment (D.T.)";"1.0";"2";"1";"1";"2";"1";"1";"2014-07-18 14:38:29.686";"2014-07-18 14:54:20.679";"1";"1";"0";"161";"160";"module.devaluation_practice.exec-8561.devalPractice";;;;;;;;;;;;"11451";"2014-07-18 14:49:08.086";"1";"2";"1";"3";"3612";"1860";"2946";"2014-07-18 14:48:56.635";;;;;;;;;;;;;;;;;;;;;;;;;;;;;;;;;;;;;;;;;;;;;;;;;;;;;;;;;;;;;;;;;;;;;;
"allaboutglee";;;"Windows 7";"Rachel's Experiment (D.T.)";"1.0";"2";"1";"1";"2";"1";"1";"2014-07-18 14:38:29.686";"2014-07-18 14:54:20.679";"1";"1";"0";"162";"161";"module.devaluation_practice.exec-8561.devalPractice";;;;;;;;;;;;"9405";"2014-07-18 14:49:17.524";"2";"3";"1";"3";"2426";"1963";"1992";"2014-07-18 14:49:08.117";;;;;;;;;;;;;;;;;;;;;;;;;;;;;;;;;;;;;;;;;;;;;;;;;;;;;;;;;;;;;;;;;;;;;;
"allaboutglee";;;"Windows 7";"Rachel's Experiment (D.T.)";"1.0";"2";"1";"1";"2";"1";"1";"2014-07-18 14:38:29.686";"2014-07-18 14:54:20.679";"1";"1";"0";"163";"162";"module.devaluation_practice.exec-8561.devalPractice";;;;;;;;;;;;"14938";"2014-07-18 14:49:32.484";"3";"2";"1";"3";"4636";"2119";"5145";"2014-07-18 14:49:17.539";;;;;;;;;;;;;;;;;;;;;;;;;;;;;;;;;;;;;;;;;;;;;;;;;;;;;;;;;;;;;;;;;;;;;;
"allaboutglee";;;"Windows 7";"Rachel's Experiment (D.T.)";"1.0";"2";"1";"1";"2";"1";"1";"2014-07-18 14:38:29.686";"2014-07-18 14:54:20.679";"1";"1";"0";"164";"163";"module.devaluation_block1.exec-6035.deval1";"13503";"2014-07-18 14:49:51.532";"13";"4";"2";"6";"4317";"3788";"2354";"2014-07-18 14:49:38.022";"2";;;;;;;;;;;;;;;;;;;;;;;;;;;;;;;;;;;;;;;;;;;;;;;;;;;;;;;;;;;;;;;;;;;;;;;;;;;;;;;;
"allaboutglee";;;"Windows 7";"Rachel's Experiment (D.T.)";"1.0";"2";"1";"1";"2";"1";"1";"2014-07-18 14:38:29.686";"2014-07-18 14:54:20.679";"1";"1";"0";"165";"164";"module.devaluation_block1.exec-6035.deval1";"10252";"2014-07-18 14:50:01.797";"8";"6";"1";"2";"2689";"2298";"2227";"2014-07-18 14:49:51.547";"1";;;;;;;;;;;;;;;;;;;;;;;;;;;;;;;;;;;;;;;;;;;;;;;;;;;;;;;;;;;;;;;;;;;;;;;;;;;;;;;;
"allaboutglee";;;"Windows 7";"Rachel's Experiment (D.T.)";"1.0";"2";"1";"1";"2";"1";"1";"2014-07-18 14:38:29.686";"2014-07-18 14:54:20.679";"1";"1";"0";"166";"165";"module.devaluation_block1.exec-6035.deval1";"8386";"2014-07-18 14:50:10.205";"24";"1";"1";"2";"1641";"1588";"2128";"2014-07-18 14:50:01.828";"3";;;;;;;;;;;;;;;;;;;;;;;;;;;;;;;;;;;;;;;;;;;;;;;;;;;;;;;;;;;;;;;;;;;;;;;;;;;;;;;;
"allaboutglee";;;"Windows 7";"Rachel's Experiment (D.T.)";"1.0";"2";"1";"1";"2";"1";"1";"2014-07-18 14:38:29.686";"2014-07-18 14:54:20.679";"1";"1";"0";"167";"166";"module.devaluation_block1.exec-6035.deval1";"11210";"2014-07-18 14:50:21.453";"25";"3";"1";"2";"1793";"1681";"4700";"2014-07-18 14:50:10.252";"3";;;;;;;;;;;;;;;;;;;;;;;;;;;;;;;;;;;;;;;;;;;;;;;;;;;;;;;;;;;;;;;;;;;;;;;;;;;;;;;;
"allaboutglee";;;"Windows 7";"Rachel's Experiment (D.T.)";"1.0";"2";"1";"1";"2";"1";"1";"2014-07-18 14:38:29.686";"2014-07-18 14:54:20.679";"1";"1";"0";"168";"167";"module.devaluation_block1.exec-6035.deval1";"10494";"2014-07-18 14:50:31.967";"0";"2";"1";"5";"2168";"2927";"2365";"2014-07-18 14:50:21.484";"1";;;;;;;;;;;;;;;;;;;;;;;;;;;;;;;;;;;;;;;;;;;;;;;;;;;;;;;;;;;;;;;;;;;;;;;;;;;;;;;;
"allaboutglee";;;"Windows 7";"Rachel's Experiment (D.T.)";"1.0";"2";"1";"1";"2";"1";"1";"2014-07-18 14:38:29.686";"2014-07-18 14:54:20.679";"1";"1";"0";"169";"168";"module.devaluation_block1.exec-6035.deval1";"10196";"2014-07-18 14:50:42.185";"10";"3";"1";"4";"3038";"2067";"2057";"2014-07-18 14:50:31.998";"2";;;;;;;;;;;;;;;;;;;;;;;;;;;;;;;;;;;;;;;;;;;;;;;;;;;;;;;;;;;;;;;;;;;;;;;;;;;;;;;;
"allaboutglee";;;"Windows 7";"Rachel's Experiment (D.T.)";"1.0";"2";"1";"1";"2";"1";"1";"2014-07-18 14:38:29.686";"2014-07-18 14:54:20.679";"1";"1";"0";"170";"169";"module.devaluation_block1.exec-6035.deval1";"9373";"2014-07-18 14:50:51.576";"6";"1";"1";"1";"2596";"1974";"1787";"2014-07-18 14:50:42.201";"1";;;;;;;;;;;;;;;;;;;;;;;;;;;;;;;;;;;;;;;;;;;;;;;;;;;;;;;;;;;;;;;;;;;;;;;;;;;;;;;;
"allaboutglee";;;"Windows 7";"Rachel's Experiment (D.T.)";"1.0";"2";"1";"1";"2";"1";"1";"2014-07-18 14:38:29.686";"2014-07-18 14:54:20.679";"1";"1";"0";"171";"170";"module.devaluation_block1.exec-6035.deval1";"13420";"2014-07-18 14:51:05.133";"11";"2";"1";"1";"6559";"1534";"2279";"2014-07-18 14:50:51.717";"2";;;;;;;;;;;;;;;;;;;;;;;;;;;;;;;;;;;;;;;;;;;;;;;;;;;;;;;;;;;;;;;;;;;;;;;;;;;;;;;;
"allaboutglee";;;"Windows 7";"Rachel's Experiment (D.T.)";"1.0";"2";"1";"1";"2";"1";"1";"2014-07-18 14:38:29.686";"2014-07-18 14:54:20.679";"1";"1";"0";"172";"171";"module.devaluation_block1.exec-6035.deval1";"9685";"2014-07-18 14:51:14.852";"23";"3";"1";"3";"2368";"1666";"2602";"2014-07-18 14:51:05.164";"3";;;;;;;;;;;;;;;;;;;;;;;;;;;;;;;;;;;;;;;;;;;;;;;;;;;;;;;;;;;;;;;;;;;;;;;;;;;;;;;;
"allaboutglee";;;"Windows 7";"Rachel's Experiment (D.T.)";"1.0";"2";"1";"1";"2";"1";"1";"2014-07-18 14:38:29.686";"2014-07-18 14:54:20.679";"1";"1";"0";"173";"172";"module.devaluation_block1.exec-6035.deval1";"9381";"2014-07-18 14:51:24.243";"20";"1";"1";"2";"2449";"1457";"2437";"2014-07-18 14:51:14.867";"3";;;;;;;;;;;;;;;;;;;;;;;;;;;;;;;;;;;;;;;;;;;;;;;;;;;;;;;;;;;;;;;;;;;;;;;;;;;;;;;;
"allaboutglee";;;"Windows 7";"Rachel's Experiment (D.T.)";"1.0";"2";"1";"1";"2";"1";"1";"2014-07-18 14:38:29.686";"2014-07-18 14:54:20.679";"1";"1";"0";"174";"173";"module.devaluation_block1.exec-6035.deval1";"16213";"2014-07-18 14:51:40.482";"19";"3";"1";"2";"8106";"1496";"3598";"2014-07-18 14:51:24.258";"3";;;;;;;;;;;;;;;;;;;;;;;;;;;;;;;;;;;;;;;;;;;;;;;;;;;;;;;;;;;;;;;;;;;;;;;;;;;;;;;;
"allaboutglee";;;"Windows 7";"Rachel's Experiment (D.T.)";"1.0";"2";"1";"1";"2";"1";"1";"2014-07-18 14:38:29.686";"2014-07-18 14:54:20.679";"1";"1";"0";"175";"174";"module.devaluation_block1.exec-6035.deval1";"10140";"2014-07-18 14:51:50.638";"21";"4";"1";"2";"1722";"1578";"3811";"2014-07-18 14:51:40.498";"3";;;;;;;;;;;;;;;;;;;;;;;;;;;;;;;;;;;;;;;;;;;;;;;;;;;;;;;;;;;;;;;;;;;;;;;;;;;;;;;;
"allaboutglee";;;"Windows 7";"Rachel's Experiment (D.T.)";"1.0";"2";"1";"1";"2";"1";"1";"2014-07-18 14:38:29.686";"2014-07-18 14:54:20.679";"1";"1";"0";"176";"175";"module.devaluation_block1.exec-6035.deval1";"13301";"2014-07-18 14:52:03.960";"16";"1";"1";"1";"4102";"1935";"4229";"2014-07-18 14:51:50.654";"2";;;;;;;;;;;;;;;;;;;;;;;;;;;;;;;;;;;;;;;;;;;;;;;;;;;;;;;;;;;;;;;;;;;;;;;;;;;;;;;;
"allaboutglee";;;"Windows 7";"Rachel's Experiment (D.T.)";"1.0";"2";"1";"1";"2";"1";"1";"2014-07-18 14:38:29.686";"2014-07-18 14:54:20.679";"1";"1";"0";"177";"176";"module.devaluation_block1.exec-6035.deval1";"9021";"2014-07-18 14:52:12.993";"18";"1";"1";"2";"2740";"1802";"1455";"2014-07-18 14:52:03.976";"3";;;;;;;;;;;;;;;;;;;;;;;;;;;;;;;;;;;;;;;;;;;;;;;;;;;;;;;;;;;;;;;;;;;;;;;;;;;;;;;;
"allaboutglee";;;"Windows 7";"Rachel's Experiment (D.T.)";"1.0";"2";"1";"1";"2";"1";"1";"2014-07-18 14:38:29.686";"2014-07-18 14:54:20.679";"1";"1";"0";"178";"177";"module.devaluation_block1.exec-6035.deval1";"10621";"2014-07-18 14:52:23.648";"12";"2";"1";"2";"3764";"1498";"2330";"2014-07-18 14:52:13.024";"2";;;;;;;;;;;;;;;;;;;;;;;;;;;;;;;;;;;;;;;;;;;;;;;;;;;;;;;;;;;;;;;;;;;;;;;;;;;;;;;;
"allaboutglee";;;"Windows 7";"Rachel's Experiment (D.T.)";"1.0";"2";"1";"1";"2";"1";"1";"2014-07-18 14:38:29.686";"2014-07-18 14:54:20.679";"1";"1";"0";"179";"178";"module.devaluation_block1.exec-6035.deval1";"8557";"2014-07-18 14:52:32.212";"4";"3";"1";"2";"1301";"1681";"2547";"2014-07-18 14:52:23.663";"1";;;;;;;;;;;;;;;;;;;;;;;;;;;;;;;;;;;;;;;;;;;;;;;;;;;;;;;;;;;;;;;;;;;;;;;;;;;;;;;;
"allaboutglee";;;"Windows 7";"Rachel's Experiment (D.T.)";"1.0";"2";"1";"1";"2";"1";"1";"2014-07-18 14:38:29.686";"2014-07-18 14:54:20.679";"1";"1";"0";"180";"179";"module.devaluation_block1.exec-6035.deval1";"13437";"2014-07-18 14:52:45.675";"14";"5";"1";"7";"1041";"3063";"6304";"2014-07-18 14:52:32.243";"2";;;;;;;;;;;;;;;;;;;;;;;;;;;;;;;;;;;;;;;;;;;;;;;;;;;;;;;;;;;;;;;;;;;;;;;;;;;;;;;;
"allaboutglee";;;"Windows 7";"Rachel's Experiment (D.T.)";"1.0";"2";"1";"1";"2";"1";"1";"2014-07-18 14:38:29.686";"2014-07-18 14:54:20.679";"1";"1";"0";"181";"180";"module.devaluation_block1.exec-6035.deval1";"11862";"2014-07-18 14:52:57.562";"3";"3";"1";"2";"3481";"2432";"2920";"2014-07-18 14:52:45.691";"1";;;;;;;;;;;;;;;;;;;;;;;;;;;;;;;;;;;;;;;;;;;;;;;;;;;;;;;;;;;;;;;;;;;;;;;;;;;;;;;;
"allaboutglee";;;"Windows 7";"Rachel's Experiment (D.T.)";"1.0";"2";"1";"1";"2";"1";"1";"2014-07-18 14:38:29.686";"2014-07-18 14:54:20.679";"1";"1";"0";"182";"181";"module.devaluation_block1.exec-6035.deval1";"8519";"2014-07-18 14:53:06.095";"17";"1";"1";"1";"1786";"1506";"2197";"2014-07-18 14:52:57.578";"2";;;;;;;;;;;;;;;;;;;;;;;;;;;;;;;;;;;;;;;;;;;;;;;;;;;;;;;;;;;;;;;;;;;;;;;;;;;;;;;;
"allaboutglee";;;"Windows 7";"Rachel's Experiment (D.T.)";"1.0";"2";"1";"1";"2";"1";"1";"2014-07-18 14:38:29.686";"2014-07-18 14:54:20.679";"1";"1";"0";"183";"182";"module.devaluation_block1.exec-6035.deval1";"8293";"2014-07-18 14:53:14.410";"9";"1";"1";"4";"1933";"1566";"1771";"2014-07-18 14:53:06.111";"2";;;;;;;;;;;;;;;;;;;;;;;;;;;;;;;;;;;;;;;;;;;;;;;;;;;;;;;;;;;;;;;;;;;;;;;;;;;;;;;;
"allaboutglee";;;"Windows 7";"Rachel's Experiment (D.T.)";"1.0";"2";"1";"1";"2";"1";"1";"2014-07-18 14:38:29.686";"2014-07-18 14:54:20.679";"1";"1";"0";"184";"183";"module.devaluation_block1.exec-6035.deval1";"7667";"2014-07-18 14:53:22.101";"7";"1";"1";"1";"1762";"1493";"1373";"2014-07-18 14:53:14.441";"1";;;;;;;;;;;;;;;;;;;;;;;;;;;;;;;;;;;;;;;;;;;;;;;;;;;;;;;;;;;;;;;;;;;;;;;;;;;;;;;;
"allaboutglee";;;"Windows 7";"Rachel's Experiment (D.T.)";"1.0";"2";"1";"1";"2";"1";"1";"2014-07-18 14:38:29.686";"2014-07-18 14:54:20.679";"1";"1";"0";"185";"184";"module.devaluation_block1.exec-6035.deval1";"8493";"2014-07-18 14:53:30.619";"2";"2";"1";"3";"1447";"1331";"2681";"2014-07-18 14:53:22.132";"1";;;;;;;;;;;;;;;;;;;;;;;;;;;;;;;;;;;;;;;;;;;;;;;;;;;;;;;;;;;;;;;;;;;;;;;;;;;;;;;;
"allaboutglee";;;"Windows 7";"Rachel's Experiment (D.T.)";"1.0";"2";"1";"1";"2";"1";"1";"2014-07-18 14:38:29.686";"2014-07-18 14:54:20.679";"1";"1";"0";"186";"185";"module.devaluation_block1.exec-6035.deval1";"8941";"2014-07-18 14:53:39.573";"22";"1";"1";"2";"2097";"1446";"2380";"2014-07-18 14:53:30.634";"3";;;;;;;;;;;;;;;;;;;;;;;;;;;;;;;;;;;;;;;;;;;;;;;;;;;;;;;;;;;;;;;;;;;;;;;;;;;;;;;;
"allaboutglee";;;"Windows 7";"Rachel's Experiment (D.T.)";"1.0";"2";"1";"1";"2";"1";"1";"2014-07-18 14:38:29.686";"2014-07-18 14:54:20.679";"1";"1";"0";"187";"186";"module.devaluation_block1.exec-6035.deval1";"7144";"2014-07-18 14:53:46.749";"15";"1";"1";"1";"1431";"1251";"1441";"2014-07-18 14:53:39.604";"2";;;;;;;;;;;;;;;;;;;;;;;;;;;;;;;;;;;;;;;;;;;;;;;;;;;;;;;;;;;;;;;;;;;;;;;;;;;;;;;;
"allaboutglee";;;"Windows 7";"Rachel's Experiment (D.T.)";"1.0";"2";"1";"1";"2";"1";"1";"2014-07-18 14:38:29.686";"2014-07-18 14:54:20.679";"1";"1";"0";"188";"187";"module.devaluation_block1.exec-6035.deval1";"11193";"2014-07-18 14:53:57.965";"1";"2";"1";"5";"3119";"3723";"1316";"2014-07-18 14:53:46.780";"1";;;;;;;;;;;;;;;;;;;;;;;;;;;;;;;;;;;;;;;;;;;;;;;;;;;;;;;;;;;;;;;;;;;;;;;;;;;;;;;;
"allaboutglee";;;"Windows 7";"Rachel's Experiment (D.T.)";"1.0";"2";"1";"1";"2";"1";"1";"2014-07-18 14:38:29.686";"2014-07-18 14:54:20.679";"1";"1";"0";"189";"188";"module.devaluation_block1.exec-6035.deval1";"9100";"2014-07-18 14:54:07.091";"26";"5";"1";"5";"1767";"2063";"2241";"2014-07-18 14:53:57.997";"3";;;;;;;;;;;;;;;;;;;;;;;;;;;;;;;;;;;;;;;;;;;;;;;;;;;;;;;;;;;;;;;;;;;;;;;;;;;;;;;;
"allaboutglee";;;"Windows 7";"Rachel's Experiment (D.T.)";"1.0";"2";"1";"1";"2";"1";"1";"2014-07-18 14:38:29.686";"2014-07-18 14:54:20.679";"1";"1";"0";"190";"189";"module.devaluation_block1.exec-6035.deval1";"10830";"2014-07-18 14:54:17.933";"5";"2";"1";"2";"4480";"1399";"1928";"2014-07-18 14:54:07.107";"1";;;;;;;;;;;;;;;;;;;;;;;;;;;;;;;;;;;;;;;;;;;;;;;;;;;;;;;;;;;;;;;;;;;;;;;;;;;;;;;;
