"user.name";"user.yearOfBirth";"user.sex";"user.osName";"module.name";"module.version";"module.online.subject.code";"module.online.study.id";"module.online.module.nr";"module.online.group.nr";"session.id";"session.index";"session.startTime";"session.endTime";"session.completed";"session.node-2961.DevalQorder";"session.node-6751.conditionType";"trial.id";"trial.index";"trial.name";"trial.deval1.durationTime";"trial.deval1.endTime";"trial.deval1.icon";"trial.deval1.Resp_Attractive";"trial.deval1.Resp_Eat";"trial.deval1.Resp_Taste";"trial.deval1.RT_Attractive";"trial.deval1.RT_Eat";"trial.deval1.RT_Taste";"trial.deval1.startTime";"trial.deval1.stimulus type";"trial.devalPractice.durationTime";"trial.devalPractice.endTime";"trial.devalPractice.icon";"trial.devalPractice.Resp_Attractive";"trial.devalPractice.Resp_Eat";"trial.devalPractice.Resp_Taste";"trial.devalPractice.RT_Attractive";"trial.devalPractice.RT_Eat";"trial.devalPractice.RT_Taste";"trial.devalPractice.startTime";"trial.devalPractice.stimulus type";"trial.GoNoGo1.durationTime";"trial.GoNoGo1.endTime";"trial.GoNoGo1.Error Type";"trial.GoNoGo1.icon";"trial.GoNoGo1.location";"trial.GoNoGo1.outcome";"trial.GoNoGo1.response";"trial.GoNoGo1.result";"trial.GoNoGo1.RT";"trial.GoNoGo1.signal";"trial.GoNoGo1.startTime";"trial.GoNoGo1.stimulus type";"trial.GoNoGo2.durationTime";"trial.GoNoGo2.endTime";"trial.GoNoGo2.Error Type";"trial.GoNoGo2.icon";"trial.GoNoGo2.location";"trial.GoNoGo2.outcome";"trial.GoNoGo2.response";"trial.GoNoGo2.result";"trial.GoNoGo2.RT";"trial.GoNoGo2.signal";"trial.GoNoGo2.startTime";"trial.GoNoGo2.stimulus type";"trial.GoNoGo3.durationTime";"trial.GoNoGo3.endTime";"trial.GoNoGo3.Error Type";"trial.GoNoGo3.icon";"trial.GoNoGo3.location";"trial.GoNoGo3.outcome";"trial.GoNoGo3.response";"trial.GoNoGo3.result";"trial.GoNoGo3.RT";"trial.GoNoGo3.signal";"trial.GoNoGo3.startTime";"trial.GoNoGo3.stimulus type";"trial.GoNoGo4.durationTime";"trial.GoNoGo4.endTime";"trial.GoNoGo4.Error Type";"trial.GoNoGo4.icon";"trial.GoNoGo4.location";"trial.GoNoGo4.outcome";"trial.GoNoGo4.response";"trial.GoNoGo4.result";"trial.GoNoGo4.RT";"trial.GoNoGo4.signal";"trial.GoNoGo4.startTime";"trial.GoNoGo4.stimulus type";"trial.GoNoGo_Practice.durationTime";"trial.GoNoGo_Practice.endTime";"trial.GoNoGo_Practice.icon";"trial.GoNoGo_Practice.location";"trial.GoNoGo_Practice.outcome";"trial.GoNoGo_Practice.response";"trial.GoNoGo_Practice.result";"trial.GoNoGo_Practice.RT";"trial.GoNoGo_Practice.signal";"trial.GoNoGo_Practice.startTime";"trial.GoNoGo_Practice.stimulus type";"trial.GoNoGo_Tutorial.durationTime";"trial.GoNoGo_Tutorial.endTime";"trial.GoNoGo_Tutorial.icon";"trial.GoNoGo_Tutorial.location";"trial.GoNoGo_Tutorial.outcome";"trial.GoNoGo_Tutorial.response";"trial.GoNoGo_Tutorial.result";"trial.GoNoGo_Tutorial.RT";"trial.GoNoGo_Tutorial.signal";"trial.GoNoGo_Tutorial.startTime"
"c312456";"1994";;"Windows 7";"Rachel's Experiment (D.T.)";"1.0";"2";"1";"1";"2";"1";"1";"2014-10-06 11:31:23.543";"2014-10-06 11:44:41.374";"1";"0";"0";"1";"0";"module.GoNoGotutorial.exec-5103.GoNoGo_Tutorial";;;;;;;;;;;;;;;;;;;;;;;;;;;;;;;;;;;;;;;;;;;;;;;;;;;;;;;;;;;;;;;;;;;;;;;;;;;;;;;;;;"3999";"2014-10-06 11:32:09.363";"leftResponse";"0";"FINISHED";"LEFT";"success";"1223";"0";"2014-10-06 11:32:05.363"
"c312456";"1994";;"Windows 7";"Rachel's Experiment (D.T.)";"1.0";"2";"1";"1";"2";"1";"1";"2014-10-06 11:31:23.543";"2014-10-06 11:44:41.374";"1";"0";"0";"2";"1";"module.GoNoGotutorial.exec-5103.GoNoGo_Tutorial";;;;;;;;;;;;;;;;;;;;;;;;;;;;;;;;;;;;;;;;;;;;;;;;;;;;;;;;;;;;;;;;;;;;;;;;;;;;;;;;;;"3994";"2014-10-06 11:32:14.643";"rightResponse";"1";"FINISHED";"RIGHT";"success";"762";"0";"2014-10-06 11:32:10.643"
"c312456";"1994";;"Windows 7";"Rachel's Experiment (D.T.)";"1.0";"2";"1";"1";"2";"1";"1";"2014-10-06 11:31:23.543";"2014-10-06 11:44:41.374";"1";"0";"0";"3";"2";"module.GoNoGotutorial.exec-5103.GoNoGo_Tutorial";;;;;;;;;;;;;;;;;;;;;;;;;;;;;;;;;;;;;;;;;;;;;;;;;;;;;;;;;;;;;;;;;;;;;;;;;;;;;;;;;;"3994";"2014-10-06 11:32:19.923";"quickResponse";"0";"FINISHED";"NONE";"failure";"0";"0";"2014-10-06 11:32:15.923"
"c312456";"1994";;"Windows 7";"Rachel's Experiment (D.T.)";"1.0";"2";"1";"1";"2";"1";"1";"2014-10-06 11:31:23.543";"2014-10-06 11:44:41.374";"1";"0";"0";"4";"3";"module.GoNoGopractice.exec-1296.GoNoGo_Practice";;;;;;;;;;;;;;;;;;;;;;;;;;;;;;;;;;;;;;;;;;;;;;;;;;;;;;;;;;;;;;;;;;;;;;;"1943";"2014-10-06 11:32:27.763";"18";"0";"FINISHED";"LEFT";"success";"567";"0";"2014-10-06 11:32:25.813";"3";;;;;;;;;;
"c312456";"1994";;"Windows 7";"Rachel's Experiment (D.T.)";"1.0";"2";"1";"1";"2";"1";"1";"2014-10-06 11:31:23.543";"2014-10-06 11:44:41.374";"1";"0";"0";"5";"4";"module.GoNoGopractice.exec-1296.GoNoGo_Practice";;;;;;;;;;;;;;;;;;;;;;;;;;;;;;;;;;;;;;;;;;;;;;;;;;;;;;;;;;;;;;;;;;;;;;;"1943";"2014-10-06 11:32:30.993";"21";"1";"FINISHED";"RIGHT";"success";"529";"0";"2014-10-06 11:32:29.043";"3";;;;;;;;;;
"c312456";"1994";;"Windows 7";"Rachel's Experiment (D.T.)";"1.0";"2";"1";"1";"2";"1";"1";"2014-10-06 11:31:23.543";"2014-10-06 11:44:41.374";"1";"0";"0";"6";"5";"module.GoNoGopractice.exec-1296.GoNoGo_Practice";;;;;;;;;;;;;;;;;;;;;;;;;;;;;;;;;;;;;;;;;;;;;;;;;;;;;;;;;;;;;;;;;;;;;;;"1943";"2014-10-06 11:32:34.213";"14";"1";"FINISHED";"RIGHT";"success";"661";"0";"2014-10-06 11:32:32.263";"2";;;;;;;;;;
"c312456";"1994";;"Windows 7";"Rachel's Experiment (D.T.)";"1.0";"2";"1";"1";"2";"1";"1";"2014-10-06 11:31:23.543";"2014-10-06 11:44:41.374";"1";"0";"0";"7";"6";"module.GoNoGopractice.exec-1296.GoNoGo_Practice";;;;;;;;;;;;;;;;;;;;;;;;;;;;;;;;;;;;;;;;;;;;;;;;;;;;;;;;;;;;;;;;;;;;;;;"1943";"2014-10-06 11:32:37.433";"26";"0";"FINISHED";"LEFT";"success";"466";"0";"2014-10-06 11:32:35.483";"3";;;;;;;;;;
"c312456";"1994";;"Windows 7";"Rachel's Experiment (D.T.)";"1.0";"2";"1";"1";"2";"1";"1";"2014-10-06 11:31:23.543";"2014-10-06 11:44:41.374";"1";"0";"0";"8";"7";"module.GoNoGopractice.exec-1296.GoNoGo_Practice";;;;;;;;;;;;;;;;;;;;;;;;;;;;;;;;;;;;;;;;;;;;;;;;;;;;;;;;;;;;;;;;;;;;;;;"1943";"2014-10-06 11:32:40.653";"2";"0";"FINISHED";"LEFT";"success";"542";"0";"2014-10-06 11:32:38.703";"1";;;;;;;;;;
"c312456";"1994";;"Windows 7";"Rachel's Experiment (D.T.)";"1.0";"2";"1";"1";"2";"1";"1";"2014-10-06 11:31:23.543";"2014-10-06 11:44:41.374";"1";"0";"0";"9";"8";"module.GoNoGopractice.exec-1296.GoNoGo_Practice";;;;;;;;;;;;;;;;;;;;;;;;;;;;;;;;;;;;;;;;;;;;;;;;;;;;;;;;;;;;;;;;;;;;;;;"1944";"2014-10-06 11:32:43.883";"30";"0";"FINISHED";"LEFT";"success";"912";"0";"2014-10-06 11:32:41.933";"3";;;;;;;;;;
"c312456";"1994";;"Windows 7";"Rachel's Experiment (D.T.)";"1.0";"2";"1";"1";"2";"1";"1";"2014-10-06 11:31:23.543";"2014-10-06 11:44:41.374";"1";"0";"0";"10";"9";"module.GoNoGopractice.exec-1296.GoNoGo_Practice";;;;;;;;;;;;;;;;;;;;;;;;;;;;;;;;;;;;;;;;;;;;;;;;;;;;;;;;;;;;;;;;;;;;;;;"1943";"2014-10-06 11:32:47.103";"6";"1";"FINISHED";"RIGHT";"success";"579";"0";"2014-10-06 11:32:45.153";"1";;;;;;;;;;
"c312456";"1994";;"Windows 7";"Rachel's Experiment (D.T.)";"1.0";"2";"1";"1";"2";"1";"1";"2014-10-06 11:31:23.543";"2014-10-06 11:44:41.374";"1";"0";"0";"11";"10";"module.GoNoGopractice.exec-1296.GoNoGo_Practice";;;;;;;;;;;;;;;;;;;;;;;;;;;;;;;;;;;;;;;;;;;;;;;;;;;;;;;;;;;;;;;;;;;;;;;"1944";"2014-10-06 11:32:50.323";"34";"0";"FINISHED";"LEFT";"success";"616";"0";"2014-10-06 11:32:48.373";"3";;;;;;;;;;
"c312456";"1994";;"Windows 7";"Rachel's Experiment (D.T.)";"1.0";"2";"1";"1";"2";"1";"1";"2014-10-06 11:31:23.543";"2014-10-06 11:44:41.374";"1";"0";"0";"12";"11";"module.GoNoGopractice.exec-1296.GoNoGo_Practice";;;;;;;;;;;;;;;;;;;;;;;;;;;;;;;;;;;;;;;;;;;;;;;;;;;;;;;;;;;;;;;;;;;;;;;"1943";"2014-10-06 11:32:53.543";"23";"1";"FINISHED";"RIGHT";"success";"516";"0";"2014-10-06 11:32:51.593";"3";;;;;;;;;;
"c312456";"1994";;"Windows 7";"Rachel's Experiment (D.T.)";"1.0";"2";"1";"1";"2";"1";"1";"2014-10-06 11:31:23.543";"2014-10-06 11:44:41.374";"1";"0";"0";"13";"12";"module.GoNoGopractice.exec-1296.GoNoGo_Practice";;;;;;;;;;;;;;;;;;;;;;;;;;;;;;;;;;;;;;;;;;;;;;;;;;;;;;;;;;;;;;;;;;;;;;;"1943";"2014-10-06 11:32:56.763";"13";"0";"FINISHED";"LEFT";"success";"432";"0";"2014-10-06 11:32:54.813";"2";;;;;;;;;;
"c312456";"1994";;"Windows 7";"Rachel's Experiment (D.T.)";"1.0";"2";"1";"1";"2";"1";"1";"2014-10-06 11:31:23.543";"2014-10-06 11:44:41.374";"1";"0";"0";"14";"13";"module.GoNoGopractice.exec-1296.GoNoGo_Practice";;;;;;;;;;;;;;;;;;;;;;;;;;;;;;;;;;;;;;;;;;;;;;;;;;;;;;;;;;;;;;;;;;;;;;;"1944";"2014-10-06 11:32:59.983";"3";"1";"FINISHED";"RIGHT";"success";"604";"0";"2014-10-06 11:32:58.033";"1";;;;;;;;;;
"c312456";"1994";;"Windows 7";"Rachel's Experiment (D.T.)";"1.0";"2";"1";"1";"2";"1";"1";"2014-10-06 11:31:23.543";"2014-10-06 11:44:41.374";"1";"0";"0";"15";"14";"module.GoNoGopractice.exec-1296.GoNoGo_Practice";;;;;;;;;;;;;;;;;;;;;;;;;;;;;;;;;;;;;;;;;;;;;;;;;;;;;;;;;;;;;;;;;;;;;;;"1944";"2014-10-06 11:33:03.203";"27";"1";"FINISHED";"RIGHT";"success";"632";"0";"2014-10-06 11:33:01.253";"3";;;;;;;;;;
"c312456";"1994";;"Windows 7";"Rachel's Experiment (D.T.)";"1.0";"2";"1";"1";"2";"1";"1";"2014-10-06 11:31:23.543";"2014-10-06 11:44:41.374";"1";"0";"0";"16";"15";"module.training_block1.exec-3913.GoNoGo1";;;;;;;;;;;;;;;;;;;;;;;"1243";"2014-10-06 11:33:14.723";"NST_correctLoc";"16";"0";"FINISHED";"LEFT";"success";"618";"0";"2014-10-06 11:33:13.473";"2";;;;;;;;;;;;;;;;;;;;;;;;;;;;;;;;;;;;;;;;;;;;;;;;;;;;;;;;;
"c312456";"1994";;"Windows 7";"Rachel's Experiment (D.T.)";"1.0";"2";"1";"1";"2";"1";"1";"2014-10-06 11:31:23.543";"2014-10-06 11:44:41.374";"1";"0";"0";"17";"16";"module.training_block1.exec-3913.GoNoGo1";;;;;;;;;;;;;;;;;;;;;;;"1244";"2014-10-06 11:33:17.243";"NST_correctLoc";"35";"1";"FINISHED";"RIGHT";"success";"508";"0";"2014-10-06 11:33:15.993";"3";;;;;;;;;;;;;;;;;;;;;;;;;;;;;;;;;;;;;;;;;;;;;;;;;;;;;;;;;
"c312456";"1994";;"Windows 7";"Rachel's Experiment (D.T.)";"1.0";"2";"1";"1";"2";"1";"1";"2014-10-06 11:31:23.543";"2014-10-06 11:44:41.374";"1";"0";"0";"18";"17";"module.training_block1.exec-3913.GoNoGo1";;;;;;;;;;;;;;;;;;;;;;;"1248";"2014-10-06 11:33:19.763";"NST_correctLoc";"13";"1";"FINISHED";"RIGHT";"success";"464";"0";"2014-10-06 11:33:18.513";"2";;;;;;;;;;;;;;;;;;;;;;;;;;;;;;;;;;;;;;;;;;;;;;;;;;;;;;;;;
"c312456";"1994";;"Windows 7";"Rachel's Experiment (D.T.)";"1.0";"2";"1";"1";"2";"1";"1";"2014-10-06 11:31:23.543";"2014-10-06 11:44:41.374";"1";"0";"0";"19";"18";"module.training_block1.exec-3913.GoNoGo1";;;;;;;;;;;;;;;;;;;;;;;"1248";"2014-10-06 11:33:22.283";"NST_correctLoc";"27";"1";"FINISHED";"RIGHT";"success";"527";"0";"2014-10-06 11:33:21.033";"3";;;;;;;;;;;;;;;;;;;;;;;;;;;;;;;;;;;;;;;;;;;;;;;;;;;;;;;;;
"c312456";"1994";;"Windows 7";"Rachel's Experiment (D.T.)";"1.0";"2";"1";"1";"2";"1";"1";"2014-10-06 11:31:23.543";"2014-10-06 11:44:41.374";"1";"0";"0";"20";"19";"module.training_block1.exec-3913.GoNoGo1";;;;;;;;;;;;;;;;;;;;;;;"1243";"2014-10-06 11:33:24.803";"NST_correctLoc";"4";"0";"FINISHED";"LEFT";"success";"523";"0";"2014-10-06 11:33:23.553";"1";;;;;;;;;;;;;;;;;;;;;;;;;;;;;;;;;;;;;;;;;;;;;;;;;;;;;;;;;
"c312456";"1994";;"Windows 7";"Rachel's Experiment (D.T.)";"1.0";"2";"1";"1";"2";"1";"1";"2014-10-06 11:31:23.543";"2014-10-06 11:44:41.374";"1";"0";"0";"21";"20";"module.training_block1.exec-3913.GoNoGo1";;;;;;;;;;;;;;;;;;;;;;;"1244";"2014-10-06 11:33:27.323";"NST_correctLoc";"19";"1";"FINISHED";"RIGHT";"success";"396";"0";"2014-10-06 11:33:26.073";"3";;;;;;;;;;;;;;;;;;;;;;;;;;;;;;;;;;;;;;;;;;;;;;;;;;;;;;;;;
"c312456";"1994";;"Windows 7";"Rachel's Experiment (D.T.)";"1.0";"2";"1";"1";"2";"1";"1";"2014-10-06 11:31:23.543";"2014-10-06 11:44:41.374";"1";"0";"0";"22";"21";"module.training_block1.exec-3913.GoNoGo1";;;;;;;;;;;;;;;;;;;;;;;"1243";"2014-10-06 11:33:29.843";"NST_correctLoc";"7";"1";"FINISHED";"RIGHT";"success";"483";"0";"2014-10-06 11:33:28.593";"1";;;;;;;;;;;;;;;;;;;;;;;;;;;;;;;;;;;;;;;;;;;;;;;;;;;;;;;;;
"c312456";"1994";;"Windows 7";"Rachel's Experiment (D.T.)";"1.0";"2";"1";"1";"2";"1";"1";"2014-10-06 11:31:23.543";"2014-10-06 11:44:41.374";"1";"0";"0";"23";"22";"module.training_block1.exec-3913.GoNoGo1";;;;;;;;;;;;;;;;;;;;;;;"1244";"2014-10-06 11:33:32.363";"NST_correctLoc";"24";"1";"FINISHED";"RIGHT";"success";"404";"0";"2014-10-06 11:33:31.113";"3";;;;;;;;;;;;;;;;;;;;;;;;;;;;;;;;;;;;;;;;;;;;;;;;;;;;;;;;;
"c312456";"1994";;"Windows 7";"Rachel's Experiment (D.T.)";"1.0";"2";"1";"1";"2";"1";"1";"2014-10-06 11:31:23.543";"2014-10-06 11:44:41.374";"1";"0";"0";"24";"23";"module.training_block1.exec-3913.GoNoGo1";;;;;;;;;;;;;;;;;;;;;;;"1241";"2014-10-06 11:33:34.883";"NST_correctLoc";"3";"0";"FINISHED";"LEFT";"success";"353";"0";"2014-10-06 11:33:33.633";"1";;;;;;;;;;;;;;;;;;;;;;;;;;;;;;;;;;;;;;;;;;;;;;;;;;;;;;;;;
"c312456";"1994";;"Windows 7";"Rachel's Experiment (D.T.)";"1.0";"2";"1";"1";"2";"1";"1";"2014-10-06 11:31:23.543";"2014-10-06 11:44:41.374";"1";"0";"0";"25";"24";"module.training_block1.exec-3913.GoNoGo1";;;;;;;;;;;;;;;;;;;;;;;"1248";"2014-10-06 11:33:37.403";"NST_correctLoc";"6";"0";"FINISHED";"LEFT";"success";"511";"0";"2014-10-06 11:33:36.153";"1";;;;;;;;;;;;;;;;;;;;;;;;;;;;;;;;;;;;;;;;;;;;;;;;;;;;;;;;;
"c312456";"1994";;"Windows 7";"Rachel's Experiment (D.T.)";"1.0";"2";"1";"1";"2";"1";"1";"2014-10-06 11:31:23.543";"2014-10-06 11:44:41.374";"1";"0";"0";"26";"25";"module.training_block1.exec-3913.GoNoGo1";;;;;;;;;;;;;;;;;;;;;;;"1243";"2014-10-06 11:33:39.923";"NST_correctLoc";"9";"1";"FINISHED";"RIGHT";"success";"338";"0";"2014-10-06 11:33:38.673";"2";;;;;;;;;;;;;;;;;;;;;;;;;;;;;;;;;;;;;;;;;;;;;;;;;;;;;;;;;
"c312456";"1994";;"Windows 7";"Rachel's Experiment (D.T.)";"1.0";"2";"1";"1";"2";"1";"1";"2014-10-06 11:31:23.543";"2014-10-06 11:44:41.374";"1";"0";"0";"27";"26";"module.training_block1.exec-3913.GoNoGo1";;;;;;;;;;;;;;;;;;;;;;;"1248";"2014-10-06 11:33:42.443";"NST_correctLoc";"21";"1";"FINISHED";"RIGHT";"success";"519";"0";"2014-10-06 11:33:41.193";"3";;;;;;;;;;;;;;;;;;;;;;;;;;;;;;;;;;;;;;;;;;;;;;;;;;;;;;;;;
"c312456";"1994";;"Windows 7";"Rachel's Experiment (D.T.)";"1.0";"2";"1";"1";"2";"1";"1";"2014-10-06 11:31:23.543";"2014-10-06 11:44:41.374";"1";"0";"0";"28";"27";"module.training_block1.exec-3913.GoNoGo1";;;;;;;;;;;;;;;;;;;;;;;"1244";"2014-10-06 11:33:44.963";"NST_correctLoc";"10";"0";"FINISHED";"LEFT";"success";"467";"0";"2014-10-06 11:33:43.713";"2";;;;;;;;;;;;;;;;;;;;;;;;;;;;;;;;;;;;;;;;;;;;;;;;;;;;;;;;;
"c312456";"1994";;"Windows 7";"Rachel's Experiment (D.T.)";"1.0";"2";"1";"1";"2";"1";"1";"2014-10-06 11:31:23.543";"2014-10-06 11:44:41.374";"1";"0";"0";"29";"28";"module.training_block1.exec-3913.GoNoGo1";;;;;;;;;;;;;;;;;;;;;;;"1248";"2014-10-06 11:33:47.533";"NST_correctLoc";"23";"0";"FINISHED";"LEFT";"success";"453";"0";"2014-10-06 11:33:46.283";"3";;;;;;;;;;;;;;;;;;;;;;;;;;;;;;;;;;;;;;;;;;;;;;;;;;;;;;;;;
"c312456";"1994";;"Windows 7";"Rachel's Experiment (D.T.)";"1.0";"2";"1";"1";"2";"1";"1";"2014-10-06 11:31:23.543";"2014-10-06 11:44:41.374";"1";"0";"0";"30";"29";"module.training_block1.exec-3913.GoNoGo1";;;;;;;;;;;;;;;;;;;;;;;"1244";"2014-10-06 11:33:50.053";"NST_correctLoc";"1";"1";"FINISHED";"RIGHT";"success";"378";"0";"2014-10-06 11:33:48.803";"1";;;;;;;;;;;;;;;;;;;;;;;;;;;;;;;;;;;;;;;;;;;;;;;;;;;;;;;;;
"c312456";"1994";;"Windows 7";"Rachel's Experiment (D.T.)";"1.0";"2";"1";"1";"2";"1";"1";"2014-10-06 11:31:23.543";"2014-10-06 11:44:41.374";"1";"0";"0";"31";"30";"module.training_block1.exec-3913.GoNoGo1";;;;;;;;;;;;;;;;;;;;;;;"1244";"2014-10-06 11:33:52.573";"NST_correctLoc";"32";"1";"FINISHED";"RIGHT";"success";"609";"0";"2014-10-06 11:33:51.323";"3";;;;;;;;;;;;;;;;;;;;;;;;;;;;;;;;;;;;;;;;;;;;;;;;;;;;;;;;;
"c312456";"1994";;"Windows 7";"Rachel's Experiment (D.T.)";"1.0";"2";"1";"1";"2";"1";"1";"2014-10-06 11:31:23.543";"2014-10-06 11:44:41.374";"1";"0";"0";"32";"31";"module.training_block1.exec-3913.GoNoGo1";;;;;;;;;;;;;;;;;;;;;;;"1248";"2014-10-06 11:33:55.093";"NST_correctLoc";"26";"1";"FINISHED";"RIGHT";"success";"621";"0";"2014-10-06 11:33:53.843";"3";;;;;;;;;;;;;;;;;;;;;;;;;;;;;;;;;;;;;;;;;;;;;;;;;;;;;;;;;
"c312456";"1994";;"Windows 7";"Rachel's Experiment (D.T.)";"1.0";"2";"1";"1";"2";"1";"1";"2014-10-06 11:31:23.543";"2014-10-06 11:44:41.374";"1";"0";"0";"33";"32";"module.training_block1.exec-3913.GoNoGo1";;;;;;;;;;;;;;;;;;;;;;;"1243";"2014-10-06 11:33:57.613";"NST_correctLoc";"17";"0";"FINISHED";"LEFT";"success";"449";"0";"2014-10-06 11:33:56.363";"2";;;;;;;;;;;;;;;;;;;;;;;;;;;;;;;;;;;;;;;;;;;;;;;;;;;;;;;;;
"c312456";"1994";;"Windows 7";"Rachel's Experiment (D.T.)";"1.0";"2";"1";"1";"2";"1";"1";"2014-10-06 11:31:23.543";"2014-10-06 11:44:41.374";"1";"0";"0";"34";"33";"module.training_block1.exec-3913.GoNoGo1";;;;;;;;;;;;;;;;;;;;;;;"1244";"2014-10-06 11:34:00.134";"NST_correctLoc";"31";"1";"FINISHED";"RIGHT";"success";"489";"0";"2014-10-06 11:33:58.883";"3";;;;;;;;;;;;;;;;;;;;;;;;;;;;;;;;;;;;;;;;;;;;;;;;;;;;;;;;;
"c312456";"1994";;"Windows 7";"Rachel's Experiment (D.T.)";"1.0";"2";"1";"1";"2";"1";"1";"2014-10-06 11:31:23.543";"2014-10-06 11:44:41.374";"1";"0";"0";"35";"34";"module.training_block1.exec-3913.GoNoGo1";;;;;;;;;;;;;;;;;;;;;;;"1244";"2014-10-06 11:34:02.654";"NST_correctLoc";"20";"1";"FINISHED";"RIGHT";"success";"449";"0";"2014-10-06 11:34:01.404";"3";;;;;;;;;;;;;;;;;;;;;;;;;;;;;;;;;;;;;;;;;;;;;;;;;;;;;;;;;
"c312456";"1994";;"Windows 7";"Rachel's Experiment (D.T.)";"1.0";"2";"1";"1";"2";"1";"1";"2014-10-06 11:31:23.543";"2014-10-06 11:44:41.374";"1";"0";"0";"36";"35";"module.training_block1.exec-3913.GoNoGo1";;;;;;;;;;;;;;;;;;;;;;;"1244";"2014-10-06 11:34:05.174";"NST_correctLoc";"8";"1";"FINISHED";"RIGHT";"success";"537";"0";"2014-10-06 11:34:03.924";"1";;;;;;;;;;;;;;;;;;;;;;;;;;;;;;;;;;;;;;;;;;;;;;;;;;;;;;;;;
"c312456";"1994";;"Windows 7";"Rachel's Experiment (D.T.)";"1.0";"2";"1";"1";"2";"1";"1";"2014-10-06 11:31:23.543";"2014-10-06 11:44:41.374";"1";"0";"0";"37";"36";"module.training_block1.exec-3913.GoNoGo1";;;;;;;;;;;;;;;;;;;;;;;"1244";"2014-10-06 11:34:07.694";"NST_correctLoc";"33";"1";"FINISHED";"RIGHT";"success";"562";"0";"2014-10-06 11:34:06.444";"3";;;;;;;;;;;;;;;;;;;;;;;;;;;;;;;;;;;;;;;;;;;;;;;;;;;;;;;;;
"c312456";"1994";;"Windows 7";"Rachel's Experiment (D.T.)";"1.0";"2";"1";"1";"2";"1";"1";"2014-10-06 11:31:23.543";"2014-10-06 11:44:41.374";"1";"0";"0";"38";"37";"module.training_block1.exec-3913.GoNoGo1";;;;;;;;;;;;;;;;;;;;;;;"1243";"2014-10-06 11:34:10.214";"NST_correctLoc";"15";"0";"FINISHED";"LEFT";"success";"464";"0";"2014-10-06 11:34:08.964";"2";;;;;;;;;;;;;;;;;;;;;;;;;;;;;;;;;;;;;;;;;;;;;;;;;;;;;;;;;
"c312456";"1994";;"Windows 7";"Rachel's Experiment (D.T.)";"1.0";"2";"1";"1";"2";"1";"1";"2014-10-06 11:31:23.543";"2014-10-06 11:44:41.374";"1";"0";"0";"39";"38";"module.training_block1.exec-3913.GoNoGo1";;;;;;;;;;;;;;;;;;;;;;;"1244";"2014-10-06 11:34:12.734";"NST_correctLoc";"29";"0";"FINISHED";"LEFT";"success";"697";"0";"2014-10-06 11:34:11.484";"3";;;;;;;;;;;;;;;;;;;;;;;;;;;;;;;;;;;;;;;;;;;;;;;;;;;;;;;;;
"c312456";"1994";;"Windows 7";"Rachel's Experiment (D.T.)";"1.0";"2";"1";"1";"2";"1";"1";"2014-10-06 11:31:23.543";"2014-10-06 11:44:41.374";"1";"0";"0";"40";"39";"module.training_block1.exec-3913.GoNoGo1";;;;;;;;;;;;;;;;;;;;;;;"1244";"2014-10-06 11:34:15.254";"NST_correctLoc";"11";"0";"FINISHED";"LEFT";"success";"473";"0";"2014-10-06 11:34:14.004";"2";;;;;;;;;;;;;;;;;;;;;;;;;;;;;;;;;;;;;;;;;;;;;;;;;;;;;;;;;
"c312456";"1994";;"Windows 7";"Rachel's Experiment (D.T.)";"1.0";"2";"1";"1";"2";"1";"1";"2014-10-06 11:31:23.543";"2014-10-06 11:44:41.374";"1";"0";"0";"41";"40";"module.training_block1.exec-3913.GoNoGo1";;;;;;;;;;;;;;;;;;;;;;;"1244";"2014-10-06 11:34:17.774";"NST_correctLoc";"12";"1";"FINISHED";"RIGHT";"success";"482";"0";"2014-10-06 11:34:16.524";"2";;;;;;;;;;;;;;;;;;;;;;;;;;;;;;;;;;;;;;;;;;;;;;;;;;;;;;;;;
"c312456";"1994";;"Windows 7";"Rachel's Experiment (D.T.)";"1.0";"2";"1";"1";"2";"1";"1";"2014-10-06 11:31:23.543";"2014-10-06 11:44:41.374";"1";"0";"0";"42";"41";"module.training_block1.exec-3913.GoNoGo1";;;;;;;;;;;;;;;;;;;;;;;"1248";"2014-10-06 11:34:20.294";"NST_correctLoc";"14";"0";"FINISHED";"LEFT";"success";"437";"0";"2014-10-06 11:34:19.044";"2";;;;;;;;;;;;;;;;;;;;;;;;;;;;;;;;;;;;;;;;;;;;;;;;;;;;;;;;;
"c312456";"1994";;"Windows 7";"Rachel's Experiment (D.T.)";"1.0";"2";"1";"1";"2";"1";"1";"2014-10-06 11:31:23.543";"2014-10-06 11:44:41.374";"1";"0";"0";"43";"42";"module.training_block1.exec-3913.GoNoGo1";;;;;;;;;;;;;;;;;;;;;;;"1248";"2014-10-06 11:34:22.814";"NST_correctLoc";"30";"0";"FINISHED";"LEFT";"success";"605";"0";"2014-10-06 11:34:21.564";"3";;;;;;;;;;;;;;;;;;;;;;;;;;;;;;;;;;;;;;;;;;;;;;;;;;;;;;;;;
"c312456";"1994";;"Windows 7";"Rachel's Experiment (D.T.)";"1.0";"2";"1";"1";"2";"1";"1";"2014-10-06 11:31:23.543";"2014-10-06 11:44:41.374";"1";"0";"0";"44";"43";"module.training_block1.exec-3913.GoNoGo1";;;;;;;;;;;;;;;;;;;;;;;"1248";"2014-10-06 11:34:25.334";"NST_correctLoc";"2";"1";"FINISHED";"RIGHT";"success";"541";"0";"2014-10-06 11:34:24.084";"1";;;;;;;;;;;;;;;;;;;;;;;;;;;;;;;;;;;;;;;;;;;;;;;;;;;;;;;;;
"c312456";"1994";;"Windows 7";"Rachel's Experiment (D.T.)";"1.0";"2";"1";"1";"2";"1";"1";"2014-10-06 11:31:23.543";"2014-10-06 11:44:41.374";"1";"0";"0";"45";"44";"module.training_block1.exec-3913.GoNoGo1";;;;;;;;;;;;;;;;;;;;;;;"1248";"2014-10-06 11:34:27.854";"NST_correctLoc";"34";"0";"FINISHED";"LEFT";"success";"581";"0";"2014-10-06 11:34:26.604";"3";;;;;;;;;;;;;;;;;;;;;;;;;;;;;;;;;;;;;;;;;;;;;;;;;;;;;;;;;
"c312456";"1994";;"Windows 7";"Rachel's Experiment (D.T.)";"1.0";"2";"1";"1";"2";"1";"1";"2014-10-06 11:31:23.543";"2014-10-06 11:44:41.374";"1";"0";"0";"46";"45";"module.training_block1.exec-3913.GoNoGo1";;;;;;;;;;;;;;;;;;;;;;;"1243";"2014-10-06 11:34:30.374";"NST_correctLoc";"25";"1";"FINISHED";"RIGHT";"success";"529";"0";"2014-10-06 11:34:29.124";"3";;;;;;;;;;;;;;;;;;;;;;;;;;;;;;;;;;;;;;;;;;;;;;;;;;;;;;;;;
"c312456";"1994";;"Windows 7";"Rachel's Experiment (D.T.)";"1.0";"2";"1";"1";"2";"1";"1";"2014-10-06 11:31:23.543";"2014-10-06 11:44:41.374";"1";"0";"0";"47";"46";"module.training_block1.exec-3913.GoNoGo1";;;;;;;;;;;;;;;;;;;;;;;"1244";"2014-10-06 11:34:32.894";"NST_correctLoc";"0";"1";"FINISHED";"RIGHT";"success";"569";"0";"2014-10-06 11:34:31.644";"1";;;;;;;;;;;;;;;;;;;;;;;;;;;;;;;;;;;;;;;;;;;;;;;;;;;;;;;;;
"c312456";"1994";;"Windows 7";"Rachel's Experiment (D.T.)";"1.0";"2";"1";"1";"2";"1";"1";"2014-10-06 11:31:23.543";"2014-10-06 11:44:41.374";"1";"0";"0";"48";"47";"module.training_block1.exec-3913.GoNoGo1";;;;;;;;;;;;;;;;;;;;;;;"1248";"2014-10-06 11:34:35.414";"NST_correctLoc";"18";"0";"FINISHED";"LEFT";"success";"477";"0";"2014-10-06 11:34:34.164";"3";;;;;;;;;;;;;;;;;;;;;;;;;;;;;;;;;;;;;;;;;;;;;;;;;;;;;;;;;
"c312456";"1994";;"Windows 7";"Rachel's Experiment (D.T.)";"1.0";"2";"1";"1";"2";"1";"1";"2014-10-06 11:31:23.543";"2014-10-06 11:44:41.374";"1";"0";"0";"49";"48";"module.training_block1.exec-3913.GoNoGo1";;;;;;;;;;;;;;;;;;;;;;;"1244";"2014-10-06 11:34:37.934";"NST_correctLoc";"28";"0";"FINISHED";"LEFT";"success";"649";"0";"2014-10-06 11:34:36.684";"3";;;;;;;;;;;;;;;;;;;;;;;;;;;;;;;;;;;;;;;;;;;;;;;;;;;;;;;;;
"c312456";"1994";;"Windows 7";"Rachel's Experiment (D.T.)";"1.0";"2";"1";"1";"2";"1";"1";"2014-10-06 11:31:23.543";"2014-10-06 11:44:41.374";"1";"0";"0";"50";"49";"module.training_block1.exec-3913.GoNoGo1";;;;;;;;;;;;;;;;;;;;;;;"1243";"2014-10-06 11:34:40.454";"NST_correctLoc";"5";"0";"FINISHED";"LEFT";"success";"632";"0";"2014-10-06 11:34:39.204";"1";;;;;;;;;;;;;;;;;;;;;;;;;;;;;;;;;;;;;;;;;;;;;;;;;;;;;;;;;
"c312456";"1994";;"Windows 7";"Rachel's Experiment (D.T.)";"1.0";"2";"1";"1";"2";"1";"1";"2014-10-06 11:31:23.543";"2014-10-06 11:44:41.374";"1";"0";"0";"51";"50";"module.training_block1.exec-3913.GoNoGo1";;;;;;;;;;;;;;;;;;;;;;;"1244";"2014-10-06 11:34:42.974";"NST_correctLoc";"22";"0";"FINISHED";"LEFT";"success";"665";"0";"2014-10-06 11:34:41.724";"3";;;;;;;;;;;;;;;;;;;;;;;;;;;;;;;;;;;;;;;;;;;;;;;;;;;;;;;;;
"c312456";"1994";;"Windows 7";"Rachel's Experiment (D.T.)";"1.0";"2";"1";"1";"2";"1";"1";"2014-10-06 11:31:23.543";"2014-10-06 11:44:41.374";"1";"0";"0";"52";"51";"module.training_block2.exec-1825.GoNoGo2";;;;;;;;;;;;;;;;;;;;;;;;;;;;;;;;;;;"1248";"2014-10-06 11:34:53.864";"NST_correctLoc";"26";"0";"FINISHED";"LEFT";"success";"635";"0";"2014-10-06 11:34:52.614";"3";;;;;;;;;;;;;;;;;;;;;;;;;;;;;;;;;;;;;;;;;;;;;
"c312456";"1994";;"Windows 7";"Rachel's Experiment (D.T.)";"1.0";"2";"1";"1";"2";"1";"1";"2014-10-06 11:31:23.543";"2014-10-06 11:44:41.374";"1";"0";"0";"53";"52";"module.training_block2.exec-1825.GoNoGo2";;;;;;;;;;;;;;;;;;;;;;;;;;;;;;;;;;;"1248";"2014-10-06 11:34:56.384";"NST_correctLoc";"32";"0";"FINISHED";"LEFT";"success";"523";"0";"2014-10-06 11:34:55.134";"3";;;;;;;;;;;;;;;;;;;;;;;;;;;;;;;;;;;;;;;;;;;;;
"c312456";"1994";;"Windows 7";"Rachel's Experiment (D.T.)";"1.0";"2";"1";"1";"2";"1";"1";"2014-10-06 11:31:23.543";"2014-10-06 11:44:41.374";"1";"0";"0";"54";"53";"module.training_block2.exec-1825.GoNoGo2";;;;;;;;;;;;;;;;;;;;;;;;;;;;;;;;;;;"1248";"2014-10-06 11:34:58.904";"NST_correctLoc";"3";"1";"FINISHED";"RIGHT";"success";"411";"0";"2014-10-06 11:34:57.654";"1";;;;;;;;;;;;;;;;;;;;;;;;;;;;;;;;;;;;;;;;;;;;;
"c312456";"1994";;"Windows 7";"Rachel's Experiment (D.T.)";"1.0";"2";"1";"1";"2";"1";"1";"2014-10-06 11:31:23.543";"2014-10-06 11:44:41.374";"1";"0";"0";"55";"54";"module.training_block2.exec-1825.GoNoGo2";;;;;;;;;;;;;;;;;;;;;;;;;;;;;;;;;;;"1248";"2014-10-06 11:35:01.424";"NST_correctLoc";"28";"0";"FINISHED";"LEFT";"success";"419";"0";"2014-10-06 11:35:00.174";"3";;;;;;;;;;;;;;;;;;;;;;;;;;;;;;;;;;;;;;;;;;;;;
"c312456";"1994";;"Windows 7";"Rachel's Experiment (D.T.)";"1.0";"2";"1";"1";"2";"1";"1";"2014-10-06 11:31:23.543";"2014-10-06 11:44:41.374";"1";"0";"0";"56";"55";"module.training_block2.exec-1825.GoNoGo2";;;;;;;;;;;;;;;;;;;;;;;;;;;;;;;;;;;"1248";"2014-10-06 11:35:03.944";"NST_correctLoc";"7";"0";"FINISHED";"LEFT";"success";"651";"0";"2014-10-06 11:35:02.694";"1";;;;;;;;;;;;;;;;;;;;;;;;;;;;;;;;;;;;;;;;;;;;;
"c312456";"1994";;"Windows 7";"Rachel's Experiment (D.T.)";"1.0";"2";"1";"1";"2";"1";"1";"2014-10-06 11:31:23.543";"2014-10-06 11:44:41.374";"1";"0";"0";"57";"56";"module.training_block2.exec-1825.GoNoGo2";;;;;;;;;;;;;;;;;;;;;;;;;;;;;;;;;;;"1248";"2014-10-06 11:35:06.464";"NST_correctLoc";"18";"1";"FINISHED";"RIGHT";"success";"475";"0";"2014-10-06 11:35:05.214";"3";;;;;;;;;;;;;;;;;;;;;;;;;;;;;;;;;;;;;;;;;;;;;
"c312456";"1994";;"Windows 7";"Rachel's Experiment (D.T.)";"1.0";"2";"1";"1";"2";"1";"1";"2014-10-06 11:31:23.543";"2014-10-06 11:44:41.374";"1";"0";"0";"58";"57";"module.training_block2.exec-1825.GoNoGo2";;;;;;;;;;;;;;;;;;;;;;;;;;;;;;;;;;;"1248";"2014-10-06 11:35:08.984";"NST_correctLoc";"8";"0";"FINISHED";"LEFT";"success";"419";"0";"2014-10-06 11:35:07.734";"1";;;;;;;;;;;;;;;;;;;;;;;;;;;;;;;;;;;;;;;;;;;;;
"c312456";"1994";;"Windows 7";"Rachel's Experiment (D.T.)";"1.0";"2";"1";"1";"2";"1";"1";"2014-10-06 11:31:23.543";"2014-10-06 11:44:41.374";"1";"0";"0";"59";"58";"module.training_block2.exec-1825.GoNoGo2";;;;;;;;;;;;;;;;;;;;;;;;;;;;;;;;;;;"1248";"2014-10-06 11:35:11.504";"NST_correctLoc";"21";"1";"FINISHED";"RIGHT";"success";"419";"0";"2014-10-06 11:35:10.254";"3";;;;;;;;;;;;;;;;;;;;;;;;;;;;;;;;;;;;;;;;;;;;;
"c312456";"1994";;"Windows 7";"Rachel's Experiment (D.T.)";"1.0";"2";"1";"1";"2";"1";"1";"2014-10-06 11:31:23.543";"2014-10-06 11:44:41.374";"1";"0";"0";"60";"59";"module.training_block2.exec-1825.GoNoGo2";;;;;;;;;;;;;;;;;;;;;;;;;;;;;;;;;;;"1248";"2014-10-06 11:35:14.024";"NST_correctLoc";"2";"1";"FINISHED";"RIGHT";"success";"595";"0";"2014-10-06 11:35:12.774";"1";;;;;;;;;;;;;;;;;;;;;;;;;;;;;;;;;;;;;;;;;;;;;
"c312456";"1994";;"Windows 7";"Rachel's Experiment (D.T.)";"1.0";"2";"1";"1";"2";"1";"1";"2014-10-06 11:31:23.543";"2014-10-06 11:44:41.374";"1";"0";"0";"61";"60";"module.training_block2.exec-1825.GoNoGo2";;;;;;;;;;;;;;;;;;;;;;;;;;;;;;;;;;;"1248";"2014-10-06 11:35:16.534";"NST_correctLoc";"6";"1";"FINISHED";"RIGHT";"success";"653";"0";"2014-10-06 11:35:15.284";"1";;;;;;;;;;;;;;;;;;;;;;;;;;;;;;;;;;;;;;;;;;;;;
"c312456";"1994";;"Windows 7";"Rachel's Experiment (D.T.)";"1.0";"2";"1";"1";"2";"1";"1";"2014-10-06 11:31:23.543";"2014-10-06 11:44:41.374";"1";"0";"0";"62";"61";"module.training_block2.exec-1825.GoNoGo2";;;;;;;;;;;;;;;;;;;;;;;;;;;;;;;;;;;"1248";"2014-10-06 11:35:19.054";"NST_correctLoc";"20";"1";"FINISHED";"RIGHT";"success";"509";"0";"2014-10-06 11:35:17.804";"3";;;;;;;;;;;;;;;;;;;;;;;;;;;;;;;;;;;;;;;;;;;;;
"c312456";"1994";;"Windows 7";"Rachel's Experiment (D.T.)";"1.0";"2";"1";"1";"2";"1";"1";"2014-10-06 11:31:23.543";"2014-10-06 11:44:41.374";"1";"0";"0";"63";"62";"module.training_block2.exec-1825.GoNoGo2";;;;;;;;;;;;;;;;;;;;;;;;;;;;;;;;;;;"1248";"2014-10-06 11:35:21.574";"NST_correctLoc";"11";"0";"FINISHED";"LEFT";"success";"469";"0";"2014-10-06 11:35:20.324";"2";;;;;;;;;;;;;;;;;;;;;;;;;;;;;;;;;;;;;;;;;;;;;
"c312456";"1994";;"Windows 7";"Rachel's Experiment (D.T.)";"1.0";"2";"1";"1";"2";"1";"1";"2014-10-06 11:31:23.543";"2014-10-06 11:44:41.374";"1";"0";"0";"64";"63";"module.training_block2.exec-1825.GoNoGo2";;;;;;;;;;;;;;;;;;;;;;;;;;;;;;;;;;;"1248";"2014-10-06 11:35:24.084";"NST_correctLoc";"27";"0";"FINISHED";"LEFT";"success";"655";"0";"2014-10-06 11:35:22.834";"3";;;;;;;;;;;;;;;;;;;;;;;;;;;;;;;;;;;;;;;;;;;;;
"c312456";"1994";;"Windows 7";"Rachel's Experiment (D.T.)";"1.0";"2";"1";"1";"2";"1";"1";"2014-10-06 11:31:23.543";"2014-10-06 11:44:41.374";"1";"0";"0";"65";"64";"module.training_block2.exec-1825.GoNoGo2";;;;;;;;;;;;;;;;;;;;;;;;;;;;;;;;;;;"1248";"2014-10-06 11:35:26.594";"NST_correctLoc";"31";"1";"FINISHED";"RIGHT";"success";"465";"0";"2014-10-06 11:35:25.344";"3";;;;;;;;;;;;;;;;;;;;;;;;;;;;;;;;;;;;;;;;;;;;;
"c312456";"1994";;"Windows 7";"Rachel's Experiment (D.T.)";"1.0";"2";"1";"1";"2";"1";"1";"2014-10-06 11:31:23.543";"2014-10-06 11:44:41.374";"1";"0";"0";"66";"65";"module.training_block2.exec-1825.GoNoGo2";;;;;;;;;;;;;;;;;;;;;;;;;;;;;;;;;;;"1248";"2014-10-06 11:35:29.104";"NST_correctLoc";"5";"1";"FINISHED";"RIGHT";"success";"563";"0";"2014-10-06 11:35:27.854";"1";;;;;;;;;;;;;;;;;;;;;;;;;;;;;;;;;;;;;;;;;;;;;
"c312456";"1994";;"Windows 7";"Rachel's Experiment (D.T.)";"1.0";"2";"1";"1";"2";"1";"1";"2014-10-06 11:31:23.543";"2014-10-06 11:44:41.374";"1";"0";"0";"67";"66";"module.training_block2.exec-1825.GoNoGo2";;;;;;;;;;;;;;;;;;;;;;;;;;;;;;;;;;;"1248";"2014-10-06 11:35:31.614";"NST_correctLoc";"4";"0";"FINISHED";"LEFT";"success";"469";"0";"2014-10-06 11:35:30.364";"1";;;;;;;;;;;;;;;;;;;;;;;;;;;;;;;;;;;;;;;;;;;;;
"c312456";"1994";;"Windows 7";"Rachel's Experiment (D.T.)";"1.0";"2";"1";"1";"2";"1";"1";"2014-10-06 11:31:23.543";"2014-10-06 11:44:41.374";"1";"0";"0";"68";"67";"module.training_block2.exec-1825.GoNoGo2";;;;;;;;;;;;;;;;;;;;;;;;;;;;;;;;;;;"1248";"2014-10-06 11:35:34.134";"NST_correctLoc";"34";"1";"FINISHED";"RIGHT";"success";"605";"0";"2014-10-06 11:35:32.884";"3";;;;;;;;;;;;;;;;;;;;;;;;;;;;;;;;;;;;;;;;;;;;;
"c312456";"1994";;"Windows 7";"Rachel's Experiment (D.T.)";"1.0";"2";"1";"1";"2";"1";"1";"2014-10-06 11:31:23.543";"2014-10-06 11:44:41.374";"1";"0";"0";"69";"68";"module.training_block2.exec-1825.GoNoGo2";;;;;;;;;;;;;;;;;;;;;;;;;;;;;;;;;;;"1248";"2014-10-06 11:35:36.644";"NST_correctLoc";"23";"0";"FINISHED";"LEFT";"success";"447";"0";"2014-10-06 11:35:35.394";"3";;;;;;;;;;;;;;;;;;;;;;;;;;;;;;;;;;;;;;;;;;;;;
"c312456";"1994";;"Windows 7";"Rachel's Experiment (D.T.)";"1.0";"2";"1";"1";"2";"1";"1";"2014-10-06 11:31:23.543";"2014-10-06 11:44:41.374";"1";"0";"0";"70";"69";"module.training_block2.exec-1825.GoNoGo2";;;;;;;;;;;;;;;;;;;;;;;;;;;;;;;;;;;"1248";"2014-10-06 11:35:39.154";"NST_correctLoc";"24";"0";"FINISHED";"LEFT";"success";"409";"0";"2014-10-06 11:35:37.904";"3";;;;;;;;;;;;;;;;;;;;;;;;;;;;;;;;;;;;;;;;;;;;;
"c312456";"1994";;"Windows 7";"Rachel's Experiment (D.T.)";"1.0";"2";"1";"1";"2";"1";"1";"2014-10-06 11:31:23.543";"2014-10-06 11:44:41.374";"1";"0";"0";"71";"70";"module.training_block2.exec-1825.GoNoGo2";;;;;;;;;;;;;;;;;;;;;;;;;;;;;;;;;;;"1248";"2014-10-06 11:35:41.664";"NST_correctLoc";"29";"0";"FINISHED";"LEFT";"success";"467";"0";"2014-10-06 11:35:40.414";"3";;;;;;;;;;;;;;;;;;;;;;;;;;;;;;;;;;;;;;;;;;;;;
"c312456";"1994";;"Windows 7";"Rachel's Experiment (D.T.)";"1.0";"2";"1";"1";"2";"1";"1";"2014-10-06 11:31:23.543";"2014-10-06 11:44:41.374";"1";"0";"0";"72";"71";"module.training_block2.exec-1825.GoNoGo2";;;;;;;;;;;;;;;;;;;;;;;;;;;;;;;;;;;"1248";"2014-10-06 11:35:44.174";"NST_correctLoc";"22";"0";"FINISHED";"LEFT";"success";"581";"0";"2014-10-06 11:35:42.924";"3";;;;;;;;;;;;;;;;;;;;;;;;;;;;;;;;;;;;;;;;;;;;;
"c312456";"1994";;"Windows 7";"Rachel's Experiment (D.T.)";"1.0";"2";"1";"1";"2";"1";"1";"2014-10-06 11:31:23.543";"2014-10-06 11:44:41.374";"1";"0";"0";"73";"72";"module.training_block2.exec-1825.GoNoGo2";;;;;;;;;;;;;;;;;;;;;;;;;;;;;;;;;;;"1248";"2014-10-06 11:35:46.684";"NST_correctLoc";"9";"0";"FINISHED";"LEFT";"success";"503";"0";"2014-10-06 11:35:45.434";"2";;;;;;;;;;;;;;;;;;;;;;;;;;;;;;;;;;;;;;;;;;;;;
"c312456";"1994";;"Windows 7";"Rachel's Experiment (D.T.)";"1.0";"2";"1";"1";"2";"1";"1";"2014-10-06 11:31:23.543";"2014-10-06 11:44:41.374";"1";"0";"0";"74";"73";"module.training_block2.exec-1825.GoNoGo2";;;;;;;;;;;;;;;;;;;;;;;;;;;;;;;;;;;"1248";"2014-10-06 11:35:49.194";"NST_correctLoc";"14";"1";"FINISHED";"RIGHT";"success";"489";"0";"2014-10-06 11:35:47.944";"2";;;;;;;;;;;;;;;;;;;;;;;;;;;;;;;;;;;;;;;;;;;;;
"c312456";"1994";;"Windows 7";"Rachel's Experiment (D.T.)";"1.0";"2";"1";"1";"2";"1";"1";"2014-10-06 11:31:23.543";"2014-10-06 11:44:41.374";"1";"0";"0";"75";"74";"module.training_block2.exec-1825.GoNoGo2";;;;;;;;;;;;;;;;;;;;;;;;;;;;;;;;;;;"1248";"2014-10-06 11:35:51.704";"NST_correctLoc";"1";"1";"FINISHED";"RIGHT";"success";"482";"0";"2014-10-06 11:35:50.454";"1";;;;;;;;;;;;;;;;;;;;;;;;;;;;;;;;;;;;;;;;;;;;;
"c312456";"1994";;"Windows 7";"Rachel's Experiment (D.T.)";"1.0";"2";"1";"1";"2";"1";"1";"2014-10-06 11:31:23.543";"2014-10-06 11:44:41.374";"1";"0";"0";"76";"75";"module.training_block2.exec-1825.GoNoGo2";;;;;;;;;;;;;;;;;;;;;;;;;;;;;;;;;;;"1248";"2014-10-06 11:35:54.214";"NST_correctLoc";"33";"1";"FINISHED";"RIGHT";"success";"540";"0";"2014-10-06 11:35:52.964";"3";;;;;;;;;;;;;;;;;;;;;;;;;;;;;;;;;;;;;;;;;;;;;
"c312456";"1994";;"Windows 7";"Rachel's Experiment (D.T.)";"1.0";"2";"1";"1";"2";"1";"1";"2014-10-06 11:31:23.543";"2014-10-06 11:44:41.374";"1";"0";"0";"77";"76";"module.training_block2.exec-1825.GoNoGo2";;;;;;;;;;;;;;;;;;;;;;;;;;;;;;;;;;;"1248";"2014-10-06 11:35:56.724";"NST_correctLoc";"15";"1";"FINISHED";"RIGHT";"success";"742";"0";"2014-10-06 11:35:55.474";"2";;;;;;;;;;;;;;;;;;;;;;;;;;;;;;;;;;;;;;;;;;;;;
"c312456";"1994";;"Windows 7";"Rachel's Experiment (D.T.)";"1.0";"2";"1";"1";"2";"1";"1";"2014-10-06 11:31:23.543";"2014-10-06 11:44:41.374";"1";"0";"0";"78";"77";"module.training_block2.exec-1825.GoNoGo2";;;;;;;;;;;;;;;;;;;;;;;;;;;;;;;;;;;"1248";"2014-10-06 11:35:59.234";"NST_correctLoc";"19";"1";"FINISHED";"RIGHT";"success";"512";"0";"2014-10-06 11:35:57.984";"3";;;;;;;;;;;;;;;;;;;;;;;;;;;;;;;;;;;;;;;;;;;;;
"c312456";"1994";;"Windows 7";"Rachel's Experiment (D.T.)";"1.0";"2";"1";"1";"2";"1";"1";"2014-10-06 11:31:23.543";"2014-10-06 11:44:41.374";"1";"0";"0";"79";"78";"module.training_block2.exec-1825.GoNoGo2";;;;;;;;;;;;;;;;;;;;;;;;;;;;;;;;;;;"1248";"2014-10-06 11:36:01.744";"NST_correctLoc";"10";"0";"FINISHED";"LEFT";"success";"562";"0";"2014-10-06 11:36:00.494";"2";;;;;;;;;;;;;;;;;;;;;;;;;;;;;;;;;;;;;;;;;;;;;
"c312456";"1994";;"Windows 7";"Rachel's Experiment (D.T.)";"1.0";"2";"1";"1";"2";"1";"1";"2014-10-06 11:31:23.543";"2014-10-06 11:44:41.374";"1";"0";"0";"80";"79";"module.training_block2.exec-1825.GoNoGo2";;;;;;;;;;;;;;;;;;;;;;;;;;;;;;;;;;;"1248";"2014-10-06 11:36:04.254";"NST_correctLoc";"25";"1";"FINISHED";"RIGHT";"success";"436";"0";"2014-10-06 11:36:03.004";"3";;;;;;;;;;;;;;;;;;;;;;;;;;;;;;;;;;;;;;;;;;;;;
"c312456";"1994";;"Windows 7";"Rachel's Experiment (D.T.)";"1.0";"2";"1";"1";"2";"1";"1";"2014-10-06 11:31:23.543";"2014-10-06 11:44:41.374";"1";"0";"0";"81";"80";"module.training_block2.exec-1825.GoNoGo2";;;;;;;;;;;;;;;;;;;;;;;;;;;;;;;;;;;"1248";"2014-10-06 11:36:06.764";"NST_correctLoc";"16";"1";"FINISHED";"RIGHT";"success";"470";"0";"2014-10-06 11:36:05.514";"2";;;;;;;;;;;;;;;;;;;;;;;;;;;;;;;;;;;;;;;;;;;;;
"c312456";"1994";;"Windows 7";"Rachel's Experiment (D.T.)";"1.0";"2";"1";"1";"2";"1";"1";"2014-10-06 11:31:23.543";"2014-10-06 11:44:41.374";"1";"0";"0";"82";"81";"module.training_block2.exec-1825.GoNoGo2";;;;;;;;;;;;;;;;;;;;;;;;;;;;;;;;;;;"1248";"2014-10-06 11:36:09.274";"NST_correctLoc";"0";"1";"FINISHED";"RIGHT";"success";"504";"0";"2014-10-06 11:36:08.024";"1";;;;;;;;;;;;;;;;;;;;;;;;;;;;;;;;;;;;;;;;;;;;;
"c312456";"1994";;"Windows 7";"Rachel's Experiment (D.T.)";"1.0";"2";"1";"1";"2";"1";"1";"2014-10-06 11:31:23.543";"2014-10-06 11:44:41.374";"1";"0";"0";"83";"82";"module.training_block2.exec-1825.GoNoGo2";;;;;;;;;;;;;;;;;;;;;;;;;;;;;;;;;;;"1248";"2014-10-06 11:36:11.784";"NST_correctLoc";"13";"1";"FINISHED";"RIGHT";"success";"530";"0";"2014-10-06 11:36:10.534";"2";;;;;;;;;;;;;;;;;;;;;;;;;;;;;;;;;;;;;;;;;;;;;
"c312456";"1994";;"Windows 7";"Rachel's Experiment (D.T.)";"1.0";"2";"1";"1";"2";"1";"1";"2014-10-06 11:31:23.543";"2014-10-06 11:44:41.374";"1";"0";"0";"84";"83";"module.training_block2.exec-1825.GoNoGo2";;;;;;;;;;;;;;;;;;;;;;;;;;;;;;;;;;;"1248";"2014-10-06 11:36:14.294";"NST_correctLoc";"17";"1";"FINISHED";"RIGHT";"success";"660";"0";"2014-10-06 11:36:13.044";"2";;;;;;;;;;;;;;;;;;;;;;;;;;;;;;;;;;;;;;;;;;;;;
"c312456";"1994";;"Windows 7";"Rachel's Experiment (D.T.)";"1.0";"2";"1";"1";"2";"1";"1";"2014-10-06 11:31:23.543";"2014-10-06 11:44:41.374";"1";"0";"0";"85";"84";"module.training_block2.exec-1825.GoNoGo2";;;;;;;;;;;;;;;;;;;;;;;;;;;;;;;;;;;"1248";"2014-10-06 11:36:16.804";"NST_correctLoc";"12";"1";"FINISHED";"RIGHT";"success";"590";"0";"2014-10-06 11:36:15.554";"2";;;;;;;;;;;;;;;;;;;;;;;;;;;;;;;;;;;;;;;;;;;;;
"c312456";"1994";;"Windows 7";"Rachel's Experiment (D.T.)";"1.0";"2";"1";"1";"2";"1";"1";"2014-10-06 11:31:23.543";"2014-10-06 11:44:41.374";"1";"0";"0";"86";"85";"module.training_block2.exec-1825.GoNoGo2";;;;;;;;;;;;;;;;;;;;;;;;;;;;;;;;;;;"1248";"2014-10-06 11:36:19.314";"NST_correctLoc";"30";"1";"FINISHED";"RIGHT";"success";"704";"0";"2014-10-06 11:36:18.064";"3";;;;;;;;;;;;;;;;;;;;;;;;;;;;;;;;;;;;;;;;;;;;;
"c312456";"1994";;"Windows 7";"Rachel's Experiment (D.T.)";"1.0";"2";"1";"1";"2";"1";"1";"2014-10-06 11:31:23.543";"2014-10-06 11:44:41.374";"1";"0";"0";"87";"86";"module.training_block2.exec-1825.GoNoGo2";;;;;;;;;;;;;;;;;;;;;;;;;;;;;;;;;;;"1248";"2014-10-06 11:36:21.824";"NST_correctLoc";"35";"0";"FINISHED";"LEFT";"success";"546";"0";"2014-10-06 11:36:20.574";"3";;;;;;;;;;;;;;;;;;;;;;;;;;;;;;;;;;;;;;;;;;;;;
"c312456";"1994";;"Windows 7";"Rachel's Experiment (D.T.)";"1.0";"2";"1";"1";"2";"1";"1";"2014-10-06 11:31:23.543";"2014-10-06 11:44:41.374";"1";"0";"0";"88";"87";"module.training_block3.exec-8793.GoNoGo3";;;;;;;;;;;;;;;;;;;;;;;;;;;;;;;;;;;;;;;;;;;;;;;"1248";"2014-10-06 11:36:32.944";"NST_correctLoc";"29";"0";"FINISHED";"LEFT";"success";"562";"0";"2014-10-06 11:36:31.694";"3";;;;;;;;;;;;;;;;;;;;;;;;;;;;;;;;;
"c312456";"1994";;"Windows 7";"Rachel's Experiment (D.T.)";"1.0";"2";"1";"1";"2";"1";"1";"2014-10-06 11:31:23.543";"2014-10-06 11:44:41.374";"1";"0";"0";"89";"88";"module.training_block3.exec-8793.GoNoGo3";;;;;;;;;;;;;;;;;;;;;;;;;;;;;;;;;;;;;;;;;;;;;;;"1248";"2014-10-06 11:36:35.454";"NST_correctLoc";"9";"0";"FINISHED";"LEFT";"success";"508";"0";"2014-10-06 11:36:34.204";"2";;;;;;;;;;;;;;;;;;;;;;;;;;;;;;;;;
"c312456";"1994";;"Windows 7";"Rachel's Experiment (D.T.)";"1.0";"2";"1";"1";"2";"1";"1";"2014-10-06 11:31:23.543";"2014-10-06 11:44:41.374";"1";"0";"0";"90";"89";"module.training_block3.exec-8793.GoNoGo3";;;;;;;;;;;;;;;;;;;;;;;;;;;;;;;;;;;;;;;;;;;;;;;"1248";"2014-10-06 11:36:37.964";"NST_correctLoc";"18";"0";"FINISHED";"LEFT";"success";"398";"0";"2014-10-06 11:36:36.714";"3";;;;;;;;;;;;;;;;;;;;;;;;;;;;;;;;;
"c312456";"1994";;"Windows 7";"Rachel's Experiment (D.T.)";"1.0";"2";"1";"1";"2";"1";"1";"2014-10-06 11:31:23.543";"2014-10-06 11:44:41.374";"1";"0";"0";"91";"90";"module.training_block3.exec-8793.GoNoGo3";;;;;;;;;;;;;;;;;;;;;;;;;;;;;;;;;;;;;;;;;;;;;;;"1248";"2014-10-06 11:36:40.474";"NST_correctLoc";"3";"0";"FINISHED";"LEFT";"success";"376";"0";"2014-10-06 11:36:39.224";"1";;;;;;;;;;;;;;;;;;;;;;;;;;;;;;;;;
"c312456";"1994";;"Windows 7";"Rachel's Experiment (D.T.)";"1.0";"2";"1";"1";"2";"1";"1";"2014-10-06 11:31:23.543";"2014-10-06 11:44:41.374";"1";"0";"0";"92";"91";"module.training_block3.exec-8793.GoNoGo3";;;;;;;;;;;;;;;;;;;;;;;;;;;;;;;;;;;;;;;;;;;;;;;"1248";"2014-10-06 11:36:42.984";"NST_correctLoc";"28";"1";"FINISHED";"RIGHT";"success";"650";"0";"2014-10-06 11:36:41.734";"3";;;;;;;;;;;;;;;;;;;;;;;;;;;;;;;;;
"c312456";"1994";;"Windows 7";"Rachel's Experiment (D.T.)";"1.0";"2";"1";"1";"2";"1";"1";"2014-10-06 11:31:23.543";"2014-10-06 11:44:41.374";"1";"0";"0";"93";"92";"module.training_block3.exec-8793.GoNoGo3";;;;;;;;;;;;;;;;;;;;;;;;;;;;;;;;;;;;;;;;;;;;;;;"1248";"2014-10-06 11:36:45.494";"NST_correctLoc";"10";"0";"FINISHED";"LEFT";"success";"420";"0";"2014-10-06 11:36:44.244";"2";;;;;;;;;;;;;;;;;;;;;;;;;;;;;;;;;
"c312456";"1994";;"Windows 7";"Rachel's Experiment (D.T.)";"1.0";"2";"1";"1";"2";"1";"1";"2014-10-06 11:31:23.543";"2014-10-06 11:44:41.374";"1";"0";"0";"94";"93";"module.training_block3.exec-8793.GoNoGo3";;;;;;;;;;;;;;;;;;;;;;;;;;;;;;;;;;;;;;;;;;;;;;;"1248";"2014-10-06 11:36:48.004";"NST_correctLoc";"21";"0";"FINISHED";"LEFT";"success";"462";"0";"2014-10-06 11:36:46.754";"3";;;;;;;;;;;;;;;;;;;;;;;;;;;;;;;;;
"c312456";"1994";;"Windows 7";"Rachel's Experiment (D.T.)";"1.0";"2";"1";"1";"2";"1";"1";"2014-10-06 11:31:23.543";"2014-10-06 11:44:41.374";"1";"0";"0";"95";"94";"module.training_block3.exec-8793.GoNoGo3";;;;;;;;;;;;;;;;;;;;;;;;;;;;;;;;;;;;;;;;;;;;;;;"1248";"2014-10-06 11:36:50.514";"NST_correctLoc";"27";"0";"FINISHED";"LEFT";"success";"440";"0";"2014-10-06 11:36:49.264";"3";;;;;;;;;;;;;;;;;;;;;;;;;;;;;;;;;
"c312456";"1994";;"Windows 7";"Rachel's Experiment (D.T.)";"1.0";"2";"1";"1";"2";"1";"1";"2014-10-06 11:31:23.543";"2014-10-06 11:44:41.374";"1";"0";"0";"96";"95";"module.training_block3.exec-8793.GoNoGo3";;;;;;;;;;;;;;;;;;;;;;;;;;;;;;;;;;;;;;;;;;;;;;;"1248";"2014-10-06 11:36:53.024";"NST_correctLoc";"23";"1";"FINISHED";"RIGHT";"success";"578";"0";"2014-10-06 11:36:51.774";"3";;;;;;;;;;;;;;;;;;;;;;;;;;;;;;;;;
"c312456";"1994";;"Windows 7";"Rachel's Experiment (D.T.)";"1.0";"2";"1";"1";"2";"1";"1";"2014-10-06 11:31:23.543";"2014-10-06 11:44:41.374";"1";"0";"0";"97";"96";"module.training_block3.exec-8793.GoNoGo3";;;;;;;;;;;;;;;;;;;;;;;;;;;;;;;;;;;;;;;;;;;;;;;"1248";"2014-10-06 11:36:55.534";"NST_correctLoc";"26";"1";"FINISHED";"RIGHT";"success";"692";"0";"2014-10-06 11:36:54.284";"3";;;;;;;;;;;;;;;;;;;;;;;;;;;;;;;;;
"c312456";"1994";;"Windows 7";"Rachel's Experiment (D.T.)";"1.0";"2";"1";"1";"2";"1";"1";"2014-10-06 11:31:23.543";"2014-10-06 11:44:41.374";"1";"0";"0";"98";"97";"module.training_block3.exec-8793.GoNoGo3";;;;;;;;;;;;;;;;;;;;;;;;;;;;;;;;;;;;;;;;;;;;;;;"1248";"2014-10-06 11:36:58.044";"NST_correctLoc";"11";"0";"FINISHED";"LEFT";"success";"646";"0";"2014-10-06 11:36:56.794";"2";;;;;;;;;;;;;;;;;;;;;;;;;;;;;;;;;
"c312456";"1994";;"Windows 7";"Rachel's Experiment (D.T.)";"1.0";"2";"1";"1";"2";"1";"1";"2014-10-06 11:31:23.543";"2014-10-06 11:44:41.374";"1";"0";"0";"99";"98";"module.training_block3.exec-8793.GoNoGo3";;;;;;;;;;;;;;;;;;;;;;;;;;;;;;;;;;;;;;;;;;;;;;;"1248";"2014-10-06 11:37:00.554";"NST_correctLoc";"32";"0";"FINISHED";"LEFT";"success";"608";"0";"2014-10-06 11:36:59.304";"3";;;;;;;;;;;;;;;;;;;;;;;;;;;;;;;;;
"c312456";"1994";;"Windows 7";"Rachel's Experiment (D.T.)";"1.0";"2";"1";"1";"2";"1";"1";"2014-10-06 11:31:23.543";"2014-10-06 11:44:41.374";"1";"0";"0";"100";"99";"module.training_block3.exec-8793.GoNoGo3";;;;;;;;;;;;;;;;;;;;;;;;;;;;;;;;;;;;;;;;;;;;;;;"1248";"2014-10-06 11:37:03.064";"NST_correctLoc";"24";"1";"FINISHED";"RIGHT";"success";"538";"0";"2014-10-06 11:37:01.814";"3";;;;;;;;;;;;;;;;;;;;;;;;;;;;;;;;;
"c312456";"1994";;"Windows 7";"Rachel's Experiment (D.T.)";"1.0";"2";"1";"1";"2";"1";"1";"2014-10-06 11:31:23.543";"2014-10-06 11:44:41.374";"1";"0";"0";"101";"100";"module.training_block3.exec-8793.GoNoGo3";;;;;;;;;;;;;;;;;;;;;;;;;;;;;;;;;;;;;;;;;;;;;;;"1248";"2014-10-06 11:37:05.574";"NST_correctLoc";"35";"0";"FINISHED";"LEFT";"success";"436";"0";"2014-10-06 11:37:04.324";"3";;;;;;;;;;;;;;;;;;;;;;;;;;;;;;;;;
"c312456";"1994";;"Windows 7";"Rachel's Experiment (D.T.)";"1.0";"2";"1";"1";"2";"1";"1";"2014-10-06 11:31:23.543";"2014-10-06 11:44:41.374";"1";"0";"0";"102";"101";"module.training_block3.exec-8793.GoNoGo3";;;;;;;;;;;;;;;;;;;;;;;;;;;;;;;;;;;;;;;;;;;;;;;"1248";"2014-10-06 11:37:08.084";"NST_miss";"33";"1";"FINISHED";"NONE";"failure";"0";"0";"2014-10-06 11:37:06.834";"3";;;;;;;;;;;;;;;;;;;;;;;;;;;;;;;;;
"c312456";"1994";;"Windows 7";"Rachel's Experiment (D.T.)";"1.0";"2";"1";"1";"2";"1";"1";"2014-10-06 11:31:23.543";"2014-10-06 11:44:41.374";"1";"0";"0";"103";"102";"module.training_block3.exec-8793.GoNoGo3";;;;;;;;;;;;;;;;;;;;;;;;;;;;;;;;;;;;;;;;;;;;;;;"1248";"2014-10-06 11:37:10.594";"NST_correctLoc";"15";"0";"FINISHED";"LEFT";"success";"320";"0";"2014-10-06 11:37:09.344";"2";;;;;;;;;;;;;;;;;;;;;;;;;;;;;;;;;
"c312456";"1994";;"Windows 7";"Rachel's Experiment (D.T.)";"1.0";"2";"1";"1";"2";"1";"1";"2014-10-06 11:31:23.543";"2014-10-06 11:44:41.374";"1";"0";"0";"104";"103";"module.training_block3.exec-8793.GoNoGo3";;;;;;;;;;;;;;;;;;;;;;;;;;;;;;;;;;;;;;;;;;;;;;;"1248";"2014-10-06 11:37:13.114";"NST_correctLoc";"1";"0";"FINISHED";"LEFT";"success";"480";"0";"2014-10-06 11:37:11.864";"1";;;;;;;;;;;;;;;;;;;;;;;;;;;;;;;;;
"c312456";"1994";;"Windows 7";"Rachel's Experiment (D.T.)";"1.0";"2";"1";"1";"2";"1";"1";"2014-10-06 11:31:23.543";"2014-10-06 11:44:41.374";"1";"0";"0";"105";"104";"module.training_block3.exec-8793.GoNoGo3";;;;;;;;;;;;;;;;;;;;;;;;;;;;;;;;;;;;;;;;;;;;;;;"1248";"2014-10-06 11:37:15.624";"NST_correctLoc";"7";"0";"FINISHED";"LEFT";"success";"522";"0";"2014-10-06 11:37:14.374";"1";;;;;;;;;;;;;;;;;;;;;;;;;;;;;;;;;
"c312456";"1994";;"Windows 7";"Rachel's Experiment (D.T.)";"1.0";"2";"1";"1";"2";"1";"1";"2014-10-06 11:31:23.543";"2014-10-06 11:44:41.374";"1";"0";"0";"106";"105";"module.training_block3.exec-8793.GoNoGo3";;;;;;;;;;;;;;;;;;;;;;;;;;;;;;;;;;;;;;;;;;;;;;;"1248";"2014-10-06 11:37:18.134";"NST_correctLoc";"8";"0";"FINISHED";"LEFT";"success";"620";"0";"2014-10-06 11:37:16.884";"1";;;;;;;;;;;;;;;;;;;;;;;;;;;;;;;;;
"c312456";"1994";;"Windows 7";"Rachel's Experiment (D.T.)";"1.0";"2";"1";"1";"2";"1";"1";"2014-10-06 11:31:23.543";"2014-10-06 11:44:41.374";"1";"0";"0";"107";"106";"module.training_block3.exec-8793.GoNoGo3";;;;;;;;;;;;;;;;;;;;;;;;;;;;;;;;;;;;;;;;;;;;;;;"1248";"2014-10-06 11:37:20.644";"NST_correctLoc";"30";"1";"FINISHED";"RIGHT";"success";"782";"0";"2014-10-06 11:37:19.394";"3";;;;;;;;;;;;;;;;;;;;;;;;;;;;;;;;;
"c312456";"1994";;"Windows 7";"Rachel's Experiment (D.T.)";"1.0";"2";"1";"1";"2";"1";"1";"2014-10-06 11:31:23.543";"2014-10-06 11:44:41.374";"1";"0";"0";"108";"107";"module.training_block3.exec-8793.GoNoGo3";;;;;;;;;;;;;;;;;;;;;;;;;;;;;;;;;;;;;;;;;;;;;;;"1248";"2014-10-06 11:37:23.164";"NST_correctLoc";"22";"0";"FINISHED";"LEFT";"success";"422";"0";"2014-10-06 11:37:21.914";"3";;;;;;;;;;;;;;;;;;;;;;;;;;;;;;;;;
"c312456";"1994";;"Windows 7";"Rachel's Experiment (D.T.)";"1.0";"2";"1";"1";"2";"1";"1";"2014-10-06 11:31:23.543";"2014-10-06 11:44:41.374";"1";"0";"0";"109";"108";"module.training_block3.exec-8793.GoNoGo3";;;;;;;;;;;;;;;;;;;;;;;;;;;;;;;;;;;;;;;;;;;;;;;"1248";"2014-10-06 11:37:25.674";"NST_correctLoc";"25";"0";"FINISHED";"LEFT";"success";"464";"0";"2014-10-06 11:37:24.424";"3";;;;;;;;;;;;;;;;;;;;;;;;;;;;;;;;;
"c312456";"1994";;"Windows 7";"Rachel's Experiment (D.T.)";"1.0";"2";"1";"1";"2";"1";"1";"2014-10-06 11:31:23.543";"2014-10-06 11:44:41.374";"1";"0";"0";"110";"109";"module.training_block3.exec-8793.GoNoGo3";;;;;;;;;;;;;;;;;;;;;;;;;;;;;;;;;;;;;;;;;;;;;;;"1248";"2014-10-06 11:37:28.184";"NST_correctLoc";"2";"0";"FINISHED";"LEFT";"success";"490";"0";"2014-10-06 11:37:26.934";"1";;;;;;;;;;;;;;;;;;;;;;;;;;;;;;;;;
"c312456";"1994";;"Windows 7";"Rachel's Experiment (D.T.)";"1.0";"2";"1";"1";"2";"1";"1";"2014-10-06 11:31:23.543";"2014-10-06 11:44:41.374";"1";"0";"0";"111";"110";"module.training_block3.exec-8793.GoNoGo3";;;;;;;;;;;;;;;;;;;;;;;;;;;;;;;;;;;;;;;;;;;;;;;"1248";"2014-10-06 11:37:30.694";"NST_correctLoc";"20";"0";"FINISHED";"LEFT";"success";"492";"0";"2014-10-06 11:37:29.444";"3";;;;;;;;;;;;;;;;;;;;;;;;;;;;;;;;;
"c312456";"1994";;"Windows 7";"Rachel's Experiment (D.T.)";"1.0";"2";"1";"1";"2";"1";"1";"2014-10-06 11:31:23.543";"2014-10-06 11:44:41.374";"1";"0";"0";"112";"111";"module.training_block3.exec-8793.GoNoGo3";;;;;;;;;;;;;;;;;;;;;;;;;;;;;;;;;;;;;;;;;;;;;;;"1248";"2014-10-06 11:37:33.214";"NST_correctLoc";"16";"0";"FINISHED";"LEFT";"success";"444";"0";"2014-10-06 11:37:31.964";"2";;;;;;;;;;;;;;;;;;;;;;;;;;;;;;;;;
"c312456";"1994";;"Windows 7";"Rachel's Experiment (D.T.)";"1.0";"2";"1";"1";"2";"1";"1";"2014-10-06 11:31:23.543";"2014-10-06 11:44:41.374";"1";"0";"0";"113";"112";"module.training_block3.exec-8793.GoNoGo3";;;;;;;;;;;;;;;;;;;;;;;;;;;;;;;;;;;;;;;;;;;;;;;"1248";"2014-10-06 11:37:35.724";"NST_correctLoc";"14";"1";"FINISHED";"RIGHT";"success";"454";"0";"2014-10-06 11:37:34.474";"2";;;;;;;;;;;;;;;;;;;;;;;;;;;;;;;;;
"c312456";"1994";;"Windows 7";"Rachel's Experiment (D.T.)";"1.0";"2";"1";"1";"2";"1";"1";"2014-10-06 11:31:23.543";"2014-10-06 11:44:41.374";"1";"0";"0";"114";"113";"module.training_block3.exec-8793.GoNoGo3";;;;;;;;;;;;;;;;;;;;;;;;;;;;;;;;;;;;;;;;;;;;;;;"1248";"2014-10-06 11:37:38.234";"NST_correctLoc";"0";"0";"FINISHED";"LEFT";"success";"664";"0";"2014-10-06 11:37:36.984";"1";;;;;;;;;;;;;;;;;;;;;;;;;;;;;;;;;
"c312456";"1994";;"Windows 7";"Rachel's Experiment (D.T.)";"1.0";"2";"1";"1";"2";"1";"1";"2014-10-06 11:31:23.543";"2014-10-06 11:44:41.374";"1";"0";"0";"115";"114";"module.training_block3.exec-8793.GoNoGo3";;;;;;;;;;;;;;;;;;;;;;;;;;;;;;;;;;;;;;;;;;;;;;;"1248";"2014-10-06 11:37:40.744";"NST_correctLoc";"13";"1";"FINISHED";"RIGHT";"success";"354";"0";"2014-10-06 11:37:39.494";"2";;;;;;;;;;;;;;;;;;;;;;;;;;;;;;;;;
"c312456";"1994";;"Windows 7";"Rachel's Experiment (D.T.)";"1.0";"2";"1";"1";"2";"1";"1";"2014-10-06 11:31:23.543";"2014-10-06 11:44:41.374";"1";"0";"0";"116";"115";"module.training_block3.exec-8793.GoNoGo3";;;;;;;;;;;;;;;;;;;;;;;;;;;;;;;;;;;;;;;;;;;;;;;"1248";"2014-10-06 11:37:43.264";"NST_correctLoc";"17";"0";"FINISHED";"LEFT";"success";"442";"0";"2014-10-06 11:37:42.014";"2";;;;;;;;;;;;;;;;;;;;;;;;;;;;;;;;;
"c312456";"1994";;"Windows 7";"Rachel's Experiment (D.T.)";"1.0";"2";"1";"1";"2";"1";"1";"2014-10-06 11:31:23.543";"2014-10-06 11:44:41.374";"1";"0";"0";"117";"116";"module.training_block3.exec-8793.GoNoGo3";;;;;;;;;;;;;;;;;;;;;;;;;;;;;;;;;;;;;;;;;;;;;;;"1248";"2014-10-06 11:37:45.774";"NST_correctLoc";"4";"1";"FINISHED";"RIGHT";"success";"492";"0";"2014-10-06 11:37:44.524";"1";;;;;;;;;;;;;;;;;;;;;;;;;;;;;;;;;
"c312456";"1994";;"Windows 7";"Rachel's Experiment (D.T.)";"1.0";"2";"1";"1";"2";"1";"1";"2014-10-06 11:31:23.543";"2014-10-06 11:44:41.374";"1";"0";"0";"118";"117";"module.training_block3.exec-8793.GoNoGo3";;;;;;;;;;;;;;;;;;;;;;;;;;;;;;;;;;;;;;;;;;;;;;;"1248";"2014-10-06 11:37:48.284";"NST_correctLoc";"5";"0";"FINISHED";"LEFT";"success";"414";"0";"2014-10-06 11:37:47.034";"1";;;;;;;;;;;;;;;;;;;;;;;;;;;;;;;;;
"c312456";"1994";;"Windows 7";"Rachel's Experiment (D.T.)";"1.0";"2";"1";"1";"2";"1";"1";"2014-10-06 11:31:23.543";"2014-10-06 11:44:41.374";"1";"0";"0";"119";"118";"module.training_block3.exec-8793.GoNoGo3";;;;;;;;;;;;;;;;;;;;;;;;;;;;;;;;;;;;;;;;;;;;;;;"1248";"2014-10-06 11:37:50.794";"NST_correctLoc";"31";"1";"FINISHED";"RIGHT";"success";"440";"0";"2014-10-06 11:37:49.544";"3";;;;;;;;;;;;;;;;;;;;;;;;;;;;;;;;;
"c312456";"1994";;"Windows 7";"Rachel's Experiment (D.T.)";"1.0";"2";"1";"1";"2";"1";"1";"2014-10-06 11:31:23.543";"2014-10-06 11:44:41.374";"1";"0";"0";"120";"119";"module.training_block3.exec-8793.GoNoGo3";;;;;;;;;;;;;;;;;;;;;;;;;;;;;;;;;;;;;;;;;;;;;;;"1248";"2014-10-06 11:37:53.314";"NST_correctLoc";"19";"1";"FINISHED";"RIGHT";"success";"576";"0";"2014-10-06 11:37:52.064";"3";;;;;;;;;;;;;;;;;;;;;;;;;;;;;;;;;
"c312456";"1994";;"Windows 7";"Rachel's Experiment (D.T.)";"1.0";"2";"1";"1";"2";"1";"1";"2014-10-06 11:31:23.543";"2014-10-06 11:44:41.374";"1";"0";"0";"121";"120";"module.training_block3.exec-8793.GoNoGo3";;;;;;;;;;;;;;;;;;;;;;;;;;;;;;;;;;;;;;;;;;;;;;;"1248";"2014-10-06 11:37:55.824";"NST_correctLoc";"6";"1";"FINISHED";"RIGHT";"success";"410";"0";"2014-10-06 11:37:54.574";"1";;;;;;;;;;;;;;;;;;;;;;;;;;;;;;;;;
"c312456";"1994";;"Windows 7";"Rachel's Experiment (D.T.)";"1.0";"2";"1";"1";"2";"1";"1";"2014-10-06 11:31:23.543";"2014-10-06 11:44:41.374";"1";"0";"0";"122";"121";"module.training_block3.exec-8793.GoNoGo3";;;;;;;;;;;;;;;;;;;;;;;;;;;;;;;;;;;;;;;;;;;;;;;"1248";"2014-10-06 11:37:58.334";"NST_correctLoc";"34";"1";"FINISHED";"RIGHT";"success";"468";"0";"2014-10-06 11:37:57.084";"3";;;;;;;;;;;;;;;;;;;;;;;;;;;;;;;;;
"c312456";"1994";;"Windows 7";"Rachel's Experiment (D.T.)";"1.0";"2";"1";"1";"2";"1";"1";"2014-10-06 11:31:23.543";"2014-10-06 11:44:41.374";"1";"0";"0";"123";"122";"module.training_block3.exec-8793.GoNoGo3";;;;;;;;;;;;;;;;;;;;;;;;;;;;;;;;;;;;;;;;;;;;;;;"1248";"2014-10-06 11:38:00.844";"NST_correctLoc";"12";"1";"FINISHED";"RIGHT";"success";"557";"0";"2014-10-06 11:37:59.594";"2";;;;;;;;;;;;;;;;;;;;;;;;;;;;;;;;;
"c312456";"1994";;"Windows 7";"Rachel's Experiment (D.T.)";"1.0";"2";"1";"1";"2";"1";"1";"2014-10-06 11:31:23.543";"2014-10-06 11:44:41.374";"1";"0";"0";"124";"123";"module.training_block4.exec-7401.GoNoGo4";;;;;;;;;;;;;;;;;;;;;;;;;;;;;;;;;;;;;;;;;;;;;;;;;;;;;;;;;;;"1248";"2014-10-06 11:38:11.954";"NST_correctLoc";"28";"1";"FINISHED";"RIGHT";"success";"783";"0";"2014-10-06 11:38:10.704";"3";;;;;;;;;;;;;;;;;;;;;
"c312456";"1994";;"Windows 7";"Rachel's Experiment (D.T.)";"1.0";"2";"1";"1";"2";"1";"1";"2014-10-06 11:31:23.543";"2014-10-06 11:44:41.374";"1";"0";"0";"125";"124";"module.training_block4.exec-7401.GoNoGo4";;;;;;;;;;;;;;;;;;;;;;;;;;;;;;;;;;;;;;;;;;;;;;;;;;;;;;;;;;;"1248";"2014-10-06 11:38:14.464";"NST_correctLoc";"29";"1";"FINISHED";"RIGHT";"success";"449";"0";"2014-10-06 11:38:13.214";"3";;;;;;;;;;;;;;;;;;;;;
"c312456";"1994";;"Windows 7";"Rachel's Experiment (D.T.)";"1.0";"2";"1";"1";"2";"1";"1";"2014-10-06 11:31:23.543";"2014-10-06 11:44:41.374";"1";"0";"0";"126";"125";"module.training_block4.exec-7401.GoNoGo4";;;;;;;;;;;;;;;;;;;;;;;;;;;;;;;;;;;;;;;;;;;;;;;;;;;;;;;;;;;"1248";"2014-10-06 11:38:16.974";"NST_correctLoc";"10";"1";"FINISHED";"RIGHT";"success";"779";"0";"2014-10-06 11:38:15.724";"2";;;;;;;;;;;;;;;;;;;;;
"c312456";"1994";;"Windows 7";"Rachel's Experiment (D.T.)";"1.0";"2";"1";"1";"2";"1";"1";"2014-10-06 11:31:23.543";"2014-10-06 11:44:41.374";"1";"0";"0";"127";"126";"module.training_block4.exec-7401.GoNoGo4";;;;;;;;;;;;;;;;;;;;;;;;;;;;;;;;;;;;;;;;;;;;;;;;;;;;;;;;;;;"1248";"2014-10-06 11:38:19.484";"NST_correctLoc";"23";"0";"FINISHED";"LEFT";"success";"413";"0";"2014-10-06 11:38:18.234";"3";;;;;;;;;;;;;;;;;;;;;
"c312456";"1994";;"Windows 7";"Rachel's Experiment (D.T.)";"1.0";"2";"1";"1";"2";"1";"1";"2014-10-06 11:31:23.543";"2014-10-06 11:44:41.374";"1";"0";"0";"128";"127";"module.training_block4.exec-7401.GoNoGo4";;;;;;;;;;;;;;;;;;;;;;;;;;;;;;;;;;;;;;;;;;;;;;;;;;;;;;;;;;;"1248";"2014-10-06 11:38:21.994";"NST_correctLoc";"13";"0";"FINISHED";"LEFT";"success";"431";"0";"2014-10-06 11:38:20.744";"2";;;;;;;;;;;;;;;;;;;;;
"c312456";"1994";;"Windows 7";"Rachel's Experiment (D.T.)";"1.0";"2";"1";"1";"2";"1";"1";"2014-10-06 11:31:23.543";"2014-10-06 11:44:41.374";"1";"0";"0";"129";"128";"module.training_block4.exec-7401.GoNoGo4";;;;;;;;;;;;;;;;;;;;;;;;;;;;;;;;;;;;;;;;;;;;;;;;;;;;;;;;;;;"1248";"2014-10-06 11:38:24.514";"NST_correctLoc";"6";"1";"FINISHED";"RIGHT";"success";"471";"0";"2014-10-06 11:38:23.264";"1";;;;;;;;;;;;;;;;;;;;;
"c312456";"1994";;"Windows 7";"Rachel's Experiment (D.T.)";"1.0";"2";"1";"1";"2";"1";"1";"2014-10-06 11:31:23.543";"2014-10-06 11:44:41.374";"1";"0";"0";"130";"129";"module.training_block4.exec-7401.GoNoGo4";;;;;;;;;;;;;;;;;;;;;;;;;;;;;;;;;;;;;;;;;;;;;;;;;;;;;;;;;;;"1248";"2014-10-06 11:38:27.024";"NST_correctLoc";"15";"0";"FINISHED";"LEFT";"success";"393";"0";"2014-10-06 11:38:25.774";"2";;;;;;;;;;;;;;;;;;;;;
"c312456";"1994";;"Windows 7";"Rachel's Experiment (D.T.)";"1.0";"2";"1";"1";"2";"1";"1";"2014-10-06 11:31:23.543";"2014-10-06 11:44:41.374";"1";"0";"0";"131";"130";"module.training_block4.exec-7401.GoNoGo4";;;;;;;;;;;;;;;;;;;;;;;;;;;;;;;;;;;;;;;;;;;;;;;;;;;;;;;;;;;"1248";"2014-10-06 11:38:29.534";"NST_correctLoc";"18";"0";"FINISHED";"LEFT";"success";"491";"0";"2014-10-06 11:38:28.284";"3";;;;;;;;;;;;;;;;;;;;;
"c312456";"1994";;"Windows 7";"Rachel's Experiment (D.T.)";"1.0";"2";"1";"1";"2";"1";"1";"2014-10-06 11:31:23.543";"2014-10-06 11:44:41.374";"1";"0";"0";"132";"131";"module.training_block4.exec-7401.GoNoGo4";;;;;;;;;;;;;;;;;;;;;;;;;;;;;;;;;;;;;;;;;;;;;;;;;;;;;;;;;;;"1248";"2014-10-06 11:38:32.044";"NST_correctLoc";"11";"1";"FINISHED";"RIGHT";"success";"701";"0";"2014-10-06 11:38:30.794";"2";;;;;;;;;;;;;;;;;;;;;
"c312456";"1994";;"Windows 7";"Rachel's Experiment (D.T.)";"1.0";"2";"1";"1";"2";"1";"1";"2014-10-06 11:31:23.543";"2014-10-06 11:44:41.374";"1";"0";"0";"133";"132";"module.training_block4.exec-7401.GoNoGo4";;;;;;;;;;;;;;;;;;;;;;;;;;;;;;;;;;;;;;;;;;;;;;;;;;;;;;;;;;;"1248";"2014-10-06 11:38:34.564";"NST_correctLoc";"31";"0";"FINISHED";"LEFT";"success";"605";"0";"2014-10-06 11:38:33.314";"3";;;;;;;;;;;;;;;;;;;;;
"c312456";"1994";;"Windows 7";"Rachel's Experiment (D.T.)";"1.0";"2";"1";"1";"2";"1";"1";"2014-10-06 11:31:23.543";"2014-10-06 11:44:41.374";"1";"0";"0";"134";"133";"module.training_block4.exec-7401.GoNoGo4";;;;;;;;;;;;;;;;;;;;;;;;;;;;;;;;;;;;;;;;;;;;;;;;;;;;;;;;;;;"1248";"2014-10-06 11:38:37.074";"NST_correctLoc";"26";"1";"FINISHED";"RIGHT";"success";"335";"0";"2014-10-06 11:38:35.824";"3";;;;;;;;;;;;;;;;;;;;;
"c312456";"1994";;"Windows 7";"Rachel's Experiment (D.T.)";"1.0";"2";"1";"1";"2";"1";"1";"2014-10-06 11:31:23.543";"2014-10-06 11:44:41.374";"1";"0";"0";"135";"134";"module.training_block4.exec-7401.GoNoGo4";;;;;;;;;;;;;;;;;;;;;;;;;;;;;;;;;;;;;;;;;;;;;;;;;;;;;;;;;;;"1248";"2014-10-06 11:38:39.584";"NST_correctLoc";"33";"0";"FINISHED";"LEFT";"success";"409";"0";"2014-10-06 11:38:38.334";"3";;;;;;;;;;;;;;;;;;;;;
"c312456";"1994";;"Windows 7";"Rachel's Experiment (D.T.)";"1.0";"2";"1";"1";"2";"1";"1";"2014-10-06 11:31:23.543";"2014-10-06 11:44:41.374";"1";"0";"0";"136";"135";"module.training_block4.exec-7401.GoNoGo4";;;;;;;;;;;;;;;;;;;;;;;;;;;;;;;;;;;;;;;;;;;;;;;;;;;;;;;;;;;"1248";"2014-10-06 11:38:42.094";"NST_correctLoc";"21";"1";"FINISHED";"RIGHT";"success";"467";"0";"2014-10-06 11:38:40.844";"3";;;;;;;;;;;;;;;;;;;;;
"c312456";"1994";;"Windows 7";"Rachel's Experiment (D.T.)";"1.0";"2";"1";"1";"2";"1";"1";"2014-10-06 11:31:23.543";"2014-10-06 11:44:41.374";"1";"0";"0";"137";"136";"module.training_block4.exec-7401.GoNoGo4";;;;;;;;;;;;;;;;;;;;;;;;;;;;;;;;;;;;;;;;;;;;;;;;;;;;;;;;;;;"1248";"2014-10-06 11:38:44.614";"NST_correctLoc";"3";"0";"FINISHED";"LEFT";"success";"331";"0";"2014-10-06 11:38:43.364";"1";;;;;;;;;;;;;;;;;;;;;
"c312456";"1994";;"Windows 7";"Rachel's Experiment (D.T.)";"1.0";"2";"1";"1";"2";"1";"1";"2014-10-06 11:31:23.543";"2014-10-06 11:44:41.374";"1";"0";"0";"138";"137";"module.training_block4.exec-7401.GoNoGo4";;;;;;;;;;;;;;;;;;;;;;;;;;;;;;;;;;;;;;;;;;;;;;;;;;;;;;;;;;;"1248";"2014-10-06 11:38:47.124";"NST_correctLoc";"24";"0";"FINISHED";"LEFT";"success";"477";"0";"2014-10-06 11:38:45.874";"3";;;;;;;;;;;;;;;;;;;;;
"c312456";"1994";;"Windows 7";"Rachel's Experiment (D.T.)";"1.0";"2";"1";"1";"2";"1";"1";"2014-10-06 11:31:23.543";"2014-10-06 11:44:41.374";"1";"0";"0";"139";"138";"module.training_block4.exec-7401.GoNoGo4";;;;;;;;;;;;;;;;;;;;;;;;;;;;;;;;;;;;;;;;;;;;;;;;;;;;;;;;;;;"1248";"2014-10-06 11:38:49.634";"NST_correctLoc";"12";"0";"FINISHED";"LEFT";"success";"383";"0";"2014-10-06 11:38:48.384";"2";;;;;;;;;;;;;;;;;;;;;
"c312456";"1994";;"Windows 7";"Rachel's Experiment (D.T.)";"1.0";"2";"1";"1";"2";"1";"1";"2014-10-06 11:31:23.543";"2014-10-06 11:44:41.374";"1";"0";"0";"140";"139";"module.training_block4.exec-7401.GoNoGo4";;;;;;;;;;;;;;;;;;;;;;;;;;;;;;;;;;;;;;;;;;;;;;;;;;;;;;;;;;;"1248";"2014-10-06 11:38:52.144";"NST_correctLoc";"4";"1";"FINISHED";"RIGHT";"success";"489";"0";"2014-10-06 11:38:50.894";"1";;;;;;;;;;;;;;;;;;;;;
"c312456";"1994";;"Windows 7";"Rachel's Experiment (D.T.)";"1.0";"2";"1";"1";"2";"1";"1";"2014-10-06 11:31:23.543";"2014-10-06 11:44:41.374";"1";"0";"0";"141";"140";"module.training_block4.exec-7401.GoNoGo4";;;;;;;;;;;;;;;;;;;;;;;;;;;;;;;;;;;;;;;;;;;;;;;;;;;;;;;;;;;"1248";"2014-10-06 11:38:54.664";"NST_correctLoc";"27";"0";"FINISHED";"LEFT";"success";"409";"0";"2014-10-06 11:38:53.414";"3";;;;;;;;;;;;;;;;;;;;;
"c312456";"1994";;"Windows 7";"Rachel's Experiment (D.T.)";"1.0";"2";"1";"1";"2";"1";"1";"2014-10-06 11:31:23.543";"2014-10-06 11:44:41.374";"1";"0";"0";"142";"141";"module.training_block4.exec-7401.GoNoGo4";;;;;;;;;;;;;;;;;;;;;;;;;;;;;;;;;;;;;;;;;;;;;;;;;;;;;;;;;;;"1248";"2014-10-06 11:38:57.174";"NST_correctLoc";"0";"1";"FINISHED";"RIGHT";"success";"547";"0";"2014-10-06 11:38:55.924";"1";;;;;;;;;;;;;;;;;;;;;
"c312456";"1994";;"Windows 7";"Rachel's Experiment (D.T.)";"1.0";"2";"1";"1";"2";"1";"1";"2014-10-06 11:31:23.543";"2014-10-06 11:44:41.374";"1";"0";"0";"143";"142";"module.training_block4.exec-7401.GoNoGo4";;;;;;;;;;;;;;;;;;;;;;;;;;;;;;;;;;;;;;;;;;;;;;;;;;;;;;;;;;;"1248";"2014-10-06 11:38:59.684";"NST_correctLoc";"22";"1";"FINISHED";"RIGHT";"success";"493";"0";"2014-10-06 11:38:58.434";"3";;;;;;;;;;;;;;;;;;;;;
"c312456";"1994";;"Windows 7";"Rachel's Experiment (D.T.)";"1.0";"2";"1";"1";"2";"1";"1";"2014-10-06 11:31:23.543";"2014-10-06 11:44:41.374";"1";"0";"0";"144";"143";"module.training_block4.exec-7401.GoNoGo4";;;;;;;;;;;;;;;;;;;;;;;;;;;;;;;;;;;;;;;;;;;;;;;;;;;;;;;;;;;"1248";"2014-10-06 11:39:02.194";"NST_correctLoc";"14";"0";"FINISHED";"LEFT";"success";"407";"0";"2014-10-06 11:39:00.944";"2";;;;;;;;;;;;;;;;;;;;;
"c312456";"1994";;"Windows 7";"Rachel's Experiment (D.T.)";"1.0";"2";"1";"1";"2";"1";"1";"2014-10-06 11:31:23.543";"2014-10-06 11:44:41.374";"1";"0";"0";"145";"144";"module.training_block4.exec-7401.GoNoGo4";;;;;;;;;;;;;;;;;;;;;;;;;;;;;;;;;;;;;;;;;;;;;;;;;;;;;;;;;;;"1248";"2014-10-06 11:39:04.714";"NST_correctLoc";"7";"1";"FINISHED";"RIGHT";"success";"327";"0";"2014-10-06 11:39:03.464";"1";;;;;;;;;;;;;;;;;;;;;
"c312456";"1994";;"Windows 7";"Rachel's Experiment (D.T.)";"1.0";"2";"1";"1";"2";"1";"1";"2014-10-06 11:31:23.543";"2014-10-06 11:44:41.374";"1";"0";"0";"146";"145";"module.training_block4.exec-7401.GoNoGo4";;;;;;;;;;;;;;;;;;;;;;;;;;;;;;;;;;;;;;;;;;;;;;;;;;;;;;;;;;;"1248";"2014-10-06 11:39:07.224";"NST_correctLoc";"35";"1";"FINISHED";"RIGHT";"success";"433";"0";"2014-10-06 11:39:05.974";"3";;;;;;;;;;;;;;;;;;;;;
"c312456";"1994";;"Windows 7";"Rachel's Experiment (D.T.)";"1.0";"2";"1";"1";"2";"1";"1";"2014-10-06 11:31:23.543";"2014-10-06 11:44:41.374";"1";"0";"0";"147";"146";"module.training_block4.exec-7401.GoNoGo4";;;;;;;;;;;;;;;;;;;;;;;;;;;;;;;;;;;;;;;;;;;;;;;;;;;;;;;;;;;"1248";"2014-10-06 11:39:09.734";"NST_correctLoc";"5";"1";"FINISHED";"RIGHT";"success";"443";"0";"2014-10-06 11:39:08.484";"1";;;;;;;;;;;;;;;;;;;;;
"c312456";"1994";;"Windows 7";"Rachel's Experiment (D.T.)";"1.0";"2";"1";"1";"2";"1";"1";"2014-10-06 11:31:23.543";"2014-10-06 11:44:41.374";"1";"0";"0";"148";"147";"module.training_block4.exec-7401.GoNoGo4";;;;;;;;;;;;;;;;;;;;;;;;;;;;;;;;;;;;;;;;;;;;;;;;;;;;;;;;;;;"1248";"2014-10-06 11:39:12.244";"NST_correctLoc";"1";"0";"FINISHED";"LEFT";"success";"485";"0";"2014-10-06 11:39:10.994";"1";;;;;;;;;;;;;;;;;;;;;
"c312456";"1994";;"Windows 7";"Rachel's Experiment (D.T.)";"1.0";"2";"1";"1";"2";"1";"1";"2014-10-06 11:31:23.543";"2014-10-06 11:44:41.374";"1";"0";"0";"149";"148";"module.training_block4.exec-7401.GoNoGo4";;;;;;;;;;;;;;;;;;;;;;;;;;;;;;;;;;;;;;;;;;;;;;;;;;;;;;;;;;;"1248";"2014-10-06 11:39:14.764";"NST_correctLoc";"17";"0";"FINISHED";"LEFT";"success";"493";"0";"2014-10-06 11:39:13.514";"2";;;;;;;;;;;;;;;;;;;;;
"c312456";"1994";;"Windows 7";"Rachel's Experiment (D.T.)";"1.0";"2";"1";"1";"2";"1";"1";"2014-10-06 11:31:23.543";"2014-10-06 11:44:41.374";"1";"0";"0";"150";"149";"module.training_block4.exec-7401.GoNoGo4";;;;;;;;;;;;;;;;;;;;;;;;;;;;;;;;;;;;;;;;;;;;;;;;;;;;;;;;;;;"1248";"2014-10-06 11:39:17.274";"NST_correctLoc";"16";"0";"FINISHED";"LEFT";"success";"471";"0";"2014-10-06 11:39:16.024";"2";;;;;;;;;;;;;;;;;;;;;
"c312456";"1994";;"Windows 7";"Rachel's Experiment (D.T.)";"1.0";"2";"1";"1";"2";"1";"1";"2014-10-06 11:31:23.543";"2014-10-06 11:44:41.374";"1";"0";"0";"151";"150";"module.training_block4.exec-7401.GoNoGo4";;;;;;;;;;;;;;;;;;;;;;;;;;;;;;;;;;;;;;;;;;;;;;;;;;;;;;;;;;;"1248";"2014-10-06 11:39:19.784";"NST_correctLoc";"2";"0";"FINISHED";"LEFT";"success";"521";"0";"2014-10-06 11:39:18.534";"1";;;;;;;;;;;;;;;;;;;;;
"c312456";"1994";;"Windows 7";"Rachel's Experiment (D.T.)";"1.0";"2";"1";"1";"2";"1";"1";"2014-10-06 11:31:23.543";"2014-10-06 11:44:41.374";"1";"0";"0";"152";"151";"module.training_block4.exec-7401.GoNoGo4";;;;;;;;;;;;;;;;;;;;;;;;;;;;;;;;;;;;;;;;;;;;;;;;;;;;;;;;;;;"1248";"2014-10-06 11:39:22.294";"NST_correctLoc";"30";"1";"FINISHED";"RIGHT";"success";"443";"0";"2014-10-06 11:39:21.044";"3";;;;;;;;;;;;;;;;;;;;;
"c312456";"1994";;"Windows 7";"Rachel's Experiment (D.T.)";"1.0";"2";"1";"1";"2";"1";"1";"2014-10-06 11:31:23.543";"2014-10-06 11:44:41.374";"1";"0";"0";"153";"152";"module.training_block4.exec-7401.GoNoGo4";;;;;;;;;;;;;;;;;;;;;;;;;;;;;;;;;;;;;;;;;;;;;;;;;;;;;;;;;;;"1248";"2014-10-06 11:39:24.814";"NST_correctLoc";"25";"0";"FINISHED";"LEFT";"success";"435";"0";"2014-10-06 11:39:23.564";"3";;;;;;;;;;;;;;;;;;;;;
"c312456";"1994";;"Windows 7";"Rachel's Experiment (D.T.)";"1.0";"2";"1";"1";"2";"1";"1";"2014-10-06 11:31:23.543";"2014-10-06 11:44:41.374";"1";"0";"0";"154";"153";"module.training_block4.exec-7401.GoNoGo4";;;;;;;;;;;;;;;;;;;;;;;;;;;;;;;;;;;;;;;;;;;;;;;;;;;;;;;;;;;"1248";"2014-10-06 11:39:27.324";"NST_correctLoc";"19";"0";"FINISHED";"LEFT";"success";"629";"0";"2014-10-06 11:39:26.074";"3";;;;;;;;;;;;;;;;;;;;;
"c312456";"1994";;"Windows 7";"Rachel's Experiment (D.T.)";"1.0";"2";"1";"1";"2";"1";"1";"2014-10-06 11:31:23.543";"2014-10-06 11:44:41.374";"1";"0";"0";"155";"154";"module.training_block4.exec-7401.GoNoGo4";;;;;;;;;;;;;;;;;;;;;;;;;;;;;;;;;;;;;;;;;;;;;;;;;;;;;;;;;;;"1248";"2014-10-06 11:39:29.834";"NST_correctLoc";"9";"0";"FINISHED";"LEFT";"success";"471";"0";"2014-10-06 11:39:28.584";"2";;;;;;;;;;;;;;;;;;;;;
"c312456";"1994";;"Windows 7";"Rachel's Experiment (D.T.)";"1.0";"2";"1";"1";"2";"1";"1";"2014-10-06 11:31:23.543";"2014-10-06 11:44:41.374";"1";"0";"0";"156";"155";"module.training_block4.exec-7401.GoNoGo4";;;;;;;;;;;;;;;;;;;;;;;;;;;;;;;;;;;;;;;;;;;;;;;;;;;;;;;;;;;"1248";"2014-10-06 11:39:32.344";"NST_correctLoc";"8";"0";"FINISHED";"LEFT";"success";"633";"0";"2014-10-06 11:39:31.094";"1";;;;;;;;;;;;;;;;;;;;;
"c312456";"1994";;"Windows 7";"Rachel's Experiment (D.T.)";"1.0";"2";"1";"1";"2";"1";"1";"2014-10-06 11:31:23.543";"2014-10-06 11:44:41.374";"1";"0";"0";"157";"156";"module.training_block4.exec-7401.GoNoGo4";;;;;;;;;;;;;;;;;;;;;;;;;;;;;;;;;;;;;;;;;;;;;;;;;;;;;;;;;;;"1248";"2014-10-06 11:39:34.864";"NST_correctLoc";"34";"1";"FINISHED";"RIGHT";"success";"689";"0";"2014-10-06 11:39:33.614";"3";;;;;;;;;;;;;;;;;;;;;
"c312456";"1994";;"Windows 7";"Rachel's Experiment (D.T.)";"1.0";"2";"1";"1";"2";"1";"1";"2014-10-06 11:31:23.543";"2014-10-06 11:44:41.374";"1";"0";"0";"158";"157";"module.training_block4.exec-7401.GoNoGo4";;;;;;;;;;;;;;;;;;;;;;;;;;;;;;;;;;;;;;;;;;;;;;;;;;;;;;;;;;;"1248";"2014-10-06 11:39:37.374";"NST_correctLoc";"20";"0";"FINISHED";"LEFT";"success";"491";"0";"2014-10-06 11:39:36.124";"3";;;;;;;;;;;;;;;;;;;;;
"c312456";"1994";;"Windows 7";"Rachel's Experiment (D.T.)";"1.0";"2";"1";"1";"2";"1";"1";"2014-10-06 11:31:23.543";"2014-10-06 11:44:41.374";"1";"0";"0";"159";"158";"module.training_block4.exec-7401.GoNoGo4";;;;;;;;;;;;;;;;;;;;;;;;;;;;;;;;;;;;;;;;;;;;;;;;;;;;;;;;;;;"1248";"2014-10-06 11:39:39.884";"NST_correctLoc";"32";"1";"FINISHED";"RIGHT";"success";"749";"0";"2014-10-06 11:39:38.634";"3";;;;;;;;;;;;;;;;;;;;;
"c312456";"1994";;"Windows 7";"Rachel's Experiment (D.T.)";"1.0";"2";"1";"1";"2";"1";"1";"2014-10-06 11:31:23.543";"2014-10-06 11:44:41.374";"1";"0";"0";"160";"159";"module.devaluation_practice.exec-6193.devalPractice";;;;;;;;;;;;"16370";"2014-10-06 11:40:23.504";"0";"4";"4";"3";"5923";"2770";"4660";"2014-10-06 11:40:07.124";;;;;;;;;;;;;;;;;;;;;;;;;;;;;;;;;;;;;;;;;;;;;;;;;;;;;;;;;;;;;;;;;;;;;;
"c312456";"1994";;"Windows 7";"Rachel's Experiment (D.T.)";"1.0";"2";"1";"1";"2";"1";"1";"2014-10-06 11:31:23.543";"2014-10-06 11:44:41.374";"1";"0";"0";"161";"160";"module.devaluation_practice.exec-6193.devalPractice";;;;;;;;;;;;"8083";"2014-10-06 11:40:31.604";"1";"2";"3";"3";"2577";"1291";"1211";"2014-10-06 11:40:23.524";;;;;;;;;;;;;;;;;;;;;;;;;;;;;;;;;;;;;;;;;;;;;;;;;;;;;;;;;;;;;;;;;;;;;;
"c312456";"1994";;"Windows 7";"Rachel's Experiment (D.T.)";"1.0";"2";"1";"1";"2";"1";"1";"2014-10-06 11:31:23.543";"2014-10-06 11:44:41.374";"1";"0";"0";"162";"161";"module.devaluation_practice.exec-6193.devalPractice";;;;;;;;;;;;"10380";"2014-10-06 11:40:42.004";"2";"4";"5";"6";"3253";"921";"3209";"2014-10-06 11:40:31.624";;;;;;;;;;;;;;;;;;;;;;;;;;;;;;;;;;;;;;;;;;;;;;;;;;;;;;;;;;;;;;;;;;;;;;
"c312456";"1994";;"Windows 7";"Rachel's Experiment (D.T.)";"1.0";"2";"1";"1";"2";"1";"1";"2014-10-06 11:31:23.543";"2014-10-06 11:44:41.374";"1";"0";"0";"163";"162";"module.devaluation_practice.exec-6193.devalPractice";;;;;;;;;;;;"10764";"2014-10-06 11:40:52.784";"3";"2";"6";"7";"2333";"2935";"2505";"2014-10-06 11:40:42.024";;;;;;;;;;;;;;;;;;;;;;;;;;;;;;;;;;;;;;;;;;;;;;;;;;;;;;;;;;;;;;;;;;;;;;
"c312456";"1994";;"Windows 7";"Rachel's Experiment (D.T.)";"1.0";"2";"1";"1";"2";"1";"1";"2014-10-06 11:31:23.543";"2014-10-06 11:44:41.374";"1";"0";"0";"164";"163";"module.devaluation_block1.exec-1800.deval1";"10393";"2014-10-06 11:41:10.264";"6";"6";"3";"3";"3748";"1737";"1906";"2014-10-06 11:40:59.864";"1";;;;;;;;;;;;;;;;;;;;;;;;;;;;;;;;;;;;;;;;;;;;;;;;;;;;;;;;;;;;;;;;;;;;;;;;;;;;;;;;
"c312456";"1994";;"Windows 7";"Rachel's Experiment (D.T.)";"1.0";"2";"1";"1";"2";"1";"1";"2014-10-06 11:31:23.543";"2014-10-06 11:44:41.374";"1";"0";"0";"165";"164";"module.devaluation_block1.exec-1800.deval1";"7042";"2014-10-06 11:41:17.324";"23";"7";"7";"6";"1272";"1744";"896";"2014-10-06 11:41:10.284";"3";;;;;;;;;;;;;;;;;;;;;;;;;;;;;;;;;;;;;;;;;;;;;;;;;;;;;;;;;;;;;;;;;;;;;;;;;;;;;;;;
"c312456";"1994";;"Windows 7";"Rachel's Experiment (D.T.)";"1.0";"2";"1";"1";"2";"1";"1";"2014-10-06 11:31:23.543";"2014-10-06 11:44:41.374";"1";"0";"0";"166";"165";"module.devaluation_block1.exec-1800.deval1";"6322";"2014-10-06 11:41:23.664";"10";"5";"5";"5";"1205";"1575";"553";"2014-10-06 11:41:17.344";"2";;;;;;;;;;;;;;;;;;;;;;;;;;;;;;;;;;;;;;;;;;;;;;;;;;;;;;;;;;;;;;;;;;;;;;;;;;;;;;;;
"c312456";"1994";;"Windows 7";"Rachel's Experiment (D.T.)";"1.0";"2";"1";"1";"2";"1";"1";"2014-10-06 11:31:23.543";"2014-10-06 11:44:41.374";"1";"0";"0";"167";"166";"module.devaluation_block1.exec-1800.deval1";"7714";"2014-10-06 11:41:31.404";"2";"4";"7";"7";"1881";"1001";"1837";"2014-10-06 11:41:23.684";"1";;;;;;;;;;;;;;;;;;;;;;;;;;;;;;;;;;;;;;;;;;;;;;;;;;;;;;;;;;;;;;;;;;;;;;;;;;;;;;;;
"c312456";"1994";;"Windows 7";"Rachel's Experiment (D.T.)";"1.0";"2";"1";"1";"2";"1";"1";"2014-10-06 11:31:23.543";"2014-10-06 11:44:41.374";"1";"0";"0";"168";"167";"module.devaluation_block1.exec-1800.deval1";"7875";"2014-10-06 11:41:39.294";"4";"8";"7";"9";"1349";"1287";"2237";"2014-10-06 11:41:31.424";"1";;;;;;;;;;;;;;;;;;;;;;;;;;;;;;;;;;;;;;;;;;;;;;;;;;;;;;;;;;;;;;;;;;;;;;;;;;;;;;;;
"c312456";"1994";;"Windows 7";"Rachel's Experiment (D.T.)";"1.0";"2";"1";"1";"2";"1";"1";"2014-10-06 11:31:23.543";"2014-10-06 11:44:41.374";"1";"0";"0";"169";"168";"module.devaluation_block1.exec-1800.deval1";"8820";"2014-10-06 11:41:48.134";"19";"3";"2";"2";"1090";"1747";"2988";"2014-10-06 11:41:39.314";"3";;;;;;;;;;;;;;;;;;;;;;;;;;;;;;;;;;;;;;;;;;;;;;;;;;;;;;;;;;;;;;;;;;;;;;;;;;;;;;;;
"c312456";"1994";;"Windows 7";"Rachel's Experiment (D.T.)";"1.0";"2";"1";"1";"2";"1";"1";"2014-10-06 11:31:23.543";"2014-10-06 11:44:41.374";"1";"0";"0";"170";"169";"module.devaluation_block1.exec-1800.deval1";"10397";"2014-10-06 11:41:58.564";"13";"4";"7";"6";"2136";"1930";"3328";"2014-10-06 11:41:48.164";"2";;;;;;;;;;;;;;;;;;;;;;;;;;;;;;;;;;;;;;;;;;;;;;;;;;;;;;;;;;;;;;;;;;;;;;;;;;;;;;;;
"c312456";"1994";;"Windows 7";"Rachel's Experiment (D.T.)";"1.0";"2";"1";"1";"2";"1";"1";"2014-10-06 11:31:23.543";"2014-10-06 11:44:41.374";"1";"0";"0";"171";"170";"module.devaluation_block1.exec-1800.deval1";"7234";"2014-10-06 11:42:05.814";"14";"7";"7";"6";"1516";"1396";"1320";"2014-10-06 11:41:58.584";"2";;;;;;;;;;;;;;;;;;;;;;;;;;;;;;;;;;;;;;;;;;;;;;;;;;;;;;;;;;;;;;;;;;;;;;;;;;;;;;;;
"c312456";"1994";;"Windows 7";"Rachel's Experiment (D.T.)";"1.0";"2";"1";"1";"2";"1";"1";"2014-10-06 11:31:23.543";"2014-10-06 11:44:41.374";"1";"0";"0";"172";"171";"module.devaluation_block1.exec-1800.deval1";"7188";"2014-10-06 11:42:13.024";"24";"7";"7";"6";"1178";"1784";"1226";"2014-10-06 11:42:05.834";"3";;;;;;;;;;;;;;;;;;;;;;;;;;;;;;;;;;;;;;;;;;;;;;;;;;;;;;;;;;;;;;;;;;;;;;;;;;;;;;;;
"c312456";"1994";;"Windows 7";"Rachel's Experiment (D.T.)";"1.0";"2";"1";"1";"2";"1";"1";"2014-10-06 11:31:23.543";"2014-10-06 11:44:41.374";"1";"0";"0";"173";"172";"module.devaluation_block1.exec-1800.deval1";"10108";"2014-10-06 11:42:23.154";"3";"6";"8";"9";"4016";"1142";"1962";"2014-10-06 11:42:13.044";"1";;;;;;;;;;;;;;;;;;;;;;;;;;;;;;;;;;;;;;;;;;;;;;;;;;;;;;;;;;;;;;;;;;;;;;;;;;;;;;;;
"c312456";"1994";;"Windows 7";"Rachel's Experiment (D.T.)";"1.0";"2";"1";"1";"2";"1";"1";"2014-10-06 11:31:23.543";"2014-10-06 11:44:41.374";"1";"0";"0";"174";"173";"module.devaluation_block1.exec-1800.deval1";"7298";"2014-10-06 11:42:30.484";"12";"8";"9";"9";"1388";"1120";"1794";"2014-10-06 11:42:23.184";"2";;;;;;;;;;;;;;;;;;;;;;;;;;;;;;;;;;;;;;;;;;;;;;;;;;;;;;;;;;;;;;;;;;;;;;;;;;;;;;;;
"c312456";"1994";;"Windows 7";"Rachel's Experiment (D.T.)";"1.0";"2";"1";"1";"2";"1";"1";"2014-10-06 11:31:23.543";"2014-10-06 11:44:41.374";"1";"0";"0";"175";"174";"module.devaluation_block1.exec-1800.deval1";"8028";"2014-10-06 11:42:38.534";"26";"9";"7";"8";"1388";"2188";"1450";"2014-10-06 11:42:30.504";"3";;;;;;;;;;;;;;;;;;;;;;;;;;;;;;;;;;;;;;;;;;;;;;;;;;;;;;;;;;;;;;;;;;;;;;;;;;;;;;;;
"c312456";"1994";;"Windows 7";"Rachel's Experiment (D.T.)";"1.0";"2";"1";"1";"2";"1";"1";"2014-10-06 11:31:23.543";"2014-10-06 11:44:41.374";"1";"0";"0";"176";"175";"module.devaluation_block1.exec-1800.deval1";"8004";"2014-10-06 11:42:46.554";"1";"3";"7";"7";"1706";"1992";"1314";"2014-10-06 11:42:38.554";"1";;;;;;;;;;;;;;;;;;;;;;;;;;;;;;;;;;;;;;;;;;;;;;;;;;;;;;;;;;;;;;;;;;;;;;;;;;;;;;;;
"c312456";"1994";;"Windows 7";"Rachel's Experiment (D.T.)";"1.0";"2";"1";"1";"2";"1";"1";"2014-10-06 11:31:23.543";"2014-10-06 11:44:41.374";"1";"0";"0";"177";"176";"module.devaluation_block1.exec-1800.deval1";"9171";"2014-10-06 11:42:55.764";"22";"3";"6";"6";"2754";"1120";"2304";"2014-10-06 11:42:46.594";"3";;;;;;;;;;;;;;;;;;;;;;;;;;;;;;;;;;;;;;;;;;;;;;;;;;;;;;;;;;;;;;;;;;;;;;;;;;;;;;;;
"c312456";"1994";;"Windows 7";"Rachel's Experiment (D.T.)";"1.0";"2";"1";"1";"2";"1";"1";"2014-10-06 11:31:23.543";"2014-10-06 11:44:41.374";"1";"0";"0";"178";"177";"module.devaluation_block1.exec-1800.deval1";"9355";"2014-10-06 11:43:05.134";"9";"4";"4";"6";"2316";"1786";"2258";"2014-10-06 11:42:55.784";"2";;;;;;;;;;;;;;;;;;;;;;;;;;;;;;;;;;;;;;;;;;;;;;;;;;;;;;;;;;;;;;;;;;;;;;;;;;;;;;;;
"c312456";"1994";;"Windows 7";"Rachel's Experiment (D.T.)";"1.0";"2";"1";"1";"2";"1";"1";"2014-10-06 11:31:23.543";"2014-10-06 11:44:41.374";"1";"0";"0";"179";"178";"module.devaluation_block1.exec-1800.deval1";"10684";"2014-10-06 11:43:15.854";"5";"7";"9";"9";"5072";"1168";"1454";"2014-10-06 11:43:05.164";"1";;;;;;;;;;;;;;;;;;;;;;;;;;;;;;;;;;;;;;;;;;;;;;;;;;;;;;;;;;;;;;;;;;;;;;;;;;;;;;;;
"c312456";"1994";;"Windows 7";"Rachel's Experiment (D.T.)";"1.0";"2";"1";"1";"2";"1";"1";"2014-10-06 11:31:23.543";"2014-10-06 11:44:41.374";"1";"0";"0";"180";"179";"module.devaluation_block1.exec-1800.deval1";"6739";"2014-10-06 11:43:22.614";"16";"1";"1";"1";"1418";"1268";"1050";"2014-10-06 11:43:15.874";"2";;;;;;;;;;;;;;;;;;;;;;;;;;;;;;;;;;;;;;;;;;;;;;;;;;;;;;;;;;;;;;;;;;;;;;;;;;;;;;;;
"c312456";"1994";;"Windows 7";"Rachel's Experiment (D.T.)";"1.0";"2";"1";"1";"2";"1";"1";"2014-10-06 11:31:23.543";"2014-10-06 11:44:41.374";"1";"0";"0";"181";"180";"module.devaluation_block1.exec-1800.deval1";"7265";"2014-10-06 11:43:29.894";"15";"1";"1";"1";"1370";"1546";"1348";"2014-10-06 11:43:22.634";"2";;;;;;;;;;;;;;;;;;;;;;;;;;;;;;;;;;;;;;;;;;;;;;;;;;;;;;;;;;;;;;;;;;;;;;;;;;;;;;;;
"c312456";"1994";;"Windows 7";"Rachel's Experiment (D.T.)";"1.0";"2";"1";"1";"2";"1";"1";"2014-10-06 11:31:23.543";"2014-10-06 11:44:41.374";"1";"0";"0";"182";"181";"module.devaluation_block1.exec-1800.deval1";"8131";"2014-10-06 11:43:38.054";"25";"6";"6";"6";"2074";"1668";"1400";"2014-10-06 11:43:29.914";"3";;;;;;;;;;;;;;;;;;;;;;;;;;;;;;;;;;;;;;;;;;;;;;;;;;;;;;;;;;;;;;;;;;;;;;;;;;;;;;;;
"c312456";"1994";;"Windows 7";"Rachel's Experiment (D.T.)";"1.0";"2";"1";"1";"2";"1";"1";"2014-10-06 11:31:23.543";"2014-10-06 11:44:41.374";"1";"0";"0";"183";"182";"module.devaluation_block1.exec-1800.deval1";"7643";"2014-10-06 11:43:45.714";"17";"1";"1";"1";"1402";"1512";"1734";"2014-10-06 11:43:38.074";"2";;;;;;;;;;;;;;;;;;;;;;;;;;;;;;;;;;;;;;;;;;;;;;;;;;;;;;;;;;;;;;;;;;;;;;;;;;;;;;;;
"c312456";"1994";;"Windows 7";"Rachel's Experiment (D.T.)";"1.0";"2";"1";"1";"2";"1";"1";"2014-10-06 11:31:23.543";"2014-10-06 11:44:41.374";"1";"0";"0";"184";"183";"module.devaluation_block1.exec-1800.deval1";"6795";"2014-10-06 11:43:52.534";"8";"6";"1";"1";"1110";"1278";"1412";"2014-10-06 11:43:45.734";"1";;;;;;;;;;;;;;;;;;;;;;;;;;;;;;;;;;;;;;;;;;;;;;;;;;;;;;;;;;;;;;;;;;;;;;;;;;;;;;;;
"c312456";"1994";;"Windows 7";"Rachel's Experiment (D.T.)";"1.0";"2";"1";"1";"2";"1";"1";"2014-10-06 11:31:23.543";"2014-10-06 11:44:41.374";"1";"0";"0";"185";"184";"module.devaluation_block1.exec-1800.deval1";"8131";"2014-10-06 11:44:00.684";"11";"3";"1";"3";"1098";"1540";"2490";"2014-10-06 11:43:52.554";"2";;;;;;;;;;;;;;;;;;;;;;;;;;;;;;;;;;;;;;;;;;;;;;;;;;;;;;;;;;;;;;;;;;;;;;;;;;;;;;;;
"c312456";"1994";;"Windows 7";"Rachel's Experiment (D.T.)";"1.0";"2";"1";"1";"2";"1";"1";"2014-10-06 11:31:23.543";"2014-10-06 11:44:41.374";"1";"0";"0";"186";"185";"module.devaluation_block1.exec-1800.deval1";"8363";"2014-10-06 11:44:09.064";"18";"4";"7";"7";"1972";"1394";"2006";"2014-10-06 11:44:00.704";"3";;;;;;;;;;;;;;;;;;;;;;;;;;;;;;;;;;;;;;;;;;;;;;;;;;;;;;;;;;;;;;;;;;;;;;;;;;;;;;;;
"c312456";"1994";;"Windows 7";"Rachel's Experiment (D.T.)";"1.0";"2";"1";"1";"2";"1";"1";"2014-10-06 11:31:23.543";"2014-10-06 11:44:41.374";"1";"0";"0";"187";"186";"module.devaluation_block1.exec-1800.deval1";"8515";"2014-10-06 11:44:17.604";"7";"3";"4";"4";"2016";"950";"2562";"2014-10-06 11:44:09.084";"1";;;;;;;;;;;;;;;;;;;;;;;;;;;;;;;;;;;;;;;;;;;;;;;;;;;;;;;;;;;;;;;;;;;;;;;;;;;;;;;;
"c312456";"1994";;"Windows 7";"Rachel's Experiment (D.T.)";"1.0";"2";"1";"1";"2";"1";"1";"2014-10-06 11:31:23.543";"2014-10-06 11:44:41.374";"1";"0";"0";"188";"187";"module.devaluation_block1.exec-1800.deval1";"7827";"2014-10-06 11:44:25.454";"0";"5";"2";"3";"1588";"977";"2266";"2014-10-06 11:44:17.624";"1";;;;;;;;;;;;;;;;;;;;;;;;;;;;;;;;;;;;;;;;;;;;;;;;;;;;;;;;;;;;;;;;;;;;;;;;;;;;;;;;
"c312456";"1994";;"Windows 7";"Rachel's Experiment (D.T.)";"1.0";"2";"1";"1";"2";"1";"1";"2014-10-06 11:31:23.543";"2014-10-06 11:44:41.374";"1";"0";"0";"189";"188";"module.devaluation_block1.exec-1800.deval1";"5900";"2014-10-06 11:44:31.374";"20";"5";"2";"2";"186";"1177";"1537";"2014-10-06 11:44:25.474";"3";;;;;;;;;;;;;;;;;;;;;;;;;;;;;;;;;;;;;;;;;;;;;;;;;;;;;;;;;;;;;;;;;;;;;;;;;;;;;;;;
"c312456";"1994";;"Windows 7";"Rachel's Experiment (D.T.)";"1.0";"2";"1";"1";"2";"1";"1";"2014-10-06 11:31:23.543";"2014-10-06 11:44:41.374";"1";"0";"0";"190";"189";"module.devaluation_block1.exec-1800.deval1";"7366";"2014-10-06 11:44:38.764";"21";"2";"6";"6";"1282";"1520";"1574";"2014-10-06 11:44:31.394";"3";;;;;;;;;;;;;;;;;;;;;;;;;;;;;;;;;;;;;;;;;;;;;;;;;;;;;;;;;;;;;;;;;;;;;;;;;;;;;;;;
