"user.name";"user.yearOfBirth";"user.sex";"user.osName";"module.name";"module.version";"module.online.subject.code";"module.online.study.id";"module.online.module.nr";"module.online.group.nr";"session.id";"session.index";"session.startTime";"session.endTime";"session.completed";"session.node-6799.DevalQorder";"session.node-8525.conditionType";"trial.id";"trial.index";"trial.name";"trial.GoNoGo1.durationTime";"trial.GoNoGo1.endTime";"trial.GoNoGo1.Error Type";"trial.GoNoGo1.icon";"trial.GoNoGo1.location";"trial.GoNoGo1.outcome";"trial.GoNoGo1.response";"trial.GoNoGo1.result";"trial.GoNoGo1.RT";"trial.GoNoGo1.signal";"trial.GoNoGo1.startTime";"trial.GoNoGo1.stimulus type";"trial.GoNoGo2.durationTime";"trial.GoNoGo2.endTime";"trial.GoNoGo2.Error Type";"trial.GoNoGo2.icon";"trial.GoNoGo2.location";"trial.GoNoGo2.outcome";"trial.GoNoGo2.response";"trial.GoNoGo2.result";"trial.GoNoGo2.RT";"trial.GoNoGo2.signal";"trial.GoNoGo2.startTime";"trial.GoNoGo2.stimulus type";"trial.GoNoGo3.durationTime";"trial.GoNoGo3.endTime";"trial.GoNoGo3.Error Type";"trial.GoNoGo3.icon";"trial.GoNoGo3.location";"trial.GoNoGo3.outcome";"trial.GoNoGo3.response";"trial.GoNoGo3.result";"trial.GoNoGo3.RT";"trial.GoNoGo3.signal";"trial.GoNoGo3.startTime";"trial.GoNoGo3.stimulus type";"trial.GoNoGo_Practice.durationTime";"trial.GoNoGo_Practice.endTime";"trial.GoNoGo_Practice.icon";"trial.GoNoGo_Practice.location";"trial.GoNoGo_Practice.outcome";"trial.GoNoGo_Practice.response";"trial.GoNoGo_Practice.result";"trial.GoNoGo_Practice.RT";"trial.GoNoGo_Practice.signal";"trial.GoNoGo_Practice.startTime";"trial.GoNoGo_Practice.stimulus type";"trial.GoNoGo_Tutorial.durationTime";"trial.GoNoGo_Tutorial.endTime";"trial.GoNoGo_Tutorial.icon";"trial.GoNoGo_Tutorial.location";"trial.GoNoGo_Tutorial.outcome";"trial.GoNoGo_Tutorial.response";"trial.GoNoGo_Tutorial.result";"trial.GoNoGo_Tutorial.RT";"trial.GoNoGo_Tutorial.signal";"trial.GoNoGo_Tutorial.startTime"
"alf1601";"1996";;"Windows 8";"Rachel's Experiment (D.T.)";"1.0";"2";"1";"1";"2";"1";"1";"2014-10-16 12:48:06.167";"";"0";"0";"1";"1";"0";"module.GoNoGotutorial.exec-4809.GoNoGo_Tutorial";;;;;;;;;;;;;;;;;;;;;;;;;;;;;;;;;;;;;;;;;;;;;;;;"4002";"2014-10-16 12:49:19.423";"leftResponse";"0";"FINISHED";"LEFT";"success";"3385";"0";"2014-10-16 12:49:15.421"
"alf1601";"1996";;"Windows 8";"Rachel's Experiment (D.T.)";"1.0";"2";"1";"1";"2";"1";"1";"2014-10-16 12:48:06.167";"";"0";"0";"1";"2";"1";"module.GoNoGotutorial.exec-4809.GoNoGo_Tutorial";;;;;;;;;;;;;;;;;;;;;;;;;;;;;;;;;;;;;;;;;;;;;;;;"3999";"2014-10-16 12:49:24.768";"rightResponse";"1";"FINISHED";"RIGHT";"success";"2138";"0";"2014-10-16 12:49:20.768"
"alf1601";"1996";;"Windows 8";"Rachel's Experiment (D.T.)";"1.0";"2";"1";"1";"2";"1";"1";"2014-10-16 12:48:06.167";"";"0";"0";"1";"3";"2";"module.GoNoGotutorial.exec-4809.GoNoGo_Tutorial";;;;;;;;;;;;;;;;;;;;;;;;;;;;;;;;;;;;;;;;;;;;;;;;"3999";"2014-10-16 12:49:30.081";"signalResponse";"0";"FINISHED";"NONE";"success";"0";"1";"2014-10-16 12:49:26.081"
"alf1601";"1996";;"Windows 8";"Rachel's Experiment (D.T.)";"1.0";"2";"1";"1";"2";"1";"1";"2014-10-16 12:48:06.167";"";"0";"0";"1";"4";"3";"module.GoNoGopractice.exec-4462.GoNoGo_Practice";;;;;;;;;;;;;;;;;;;;;;;;;;;;;;;;;;;;;"1963";"2014-10-16 12:49:40.042";"18";"0";"FINISHED";"LEFT";"success";"1119";"0";"2014-10-16 12:49:38.078";"3";;;;;;;;;;
"alf1601";"1996";;"Windows 8";"Rachel's Experiment (D.T.)";"1.0";"2";"1";"1";"2";"1";"1";"2014-10-16 12:48:06.167";"";"0";"0";"1";"5";"4";"module.GoNoGopractice.exec-4462.GoNoGo_Practice";;;;;;;;;;;;;;;;;;;;;;;;;;;;;;;;;;;;;"1952";"2014-10-16 12:49:43.317";"21";"1";"FINISHED";"RIGHT";"success";"647";"0";"2014-10-16 12:49:41.364";"3";;;;;;;;;;
"alf1601";"1996";;"Windows 8";"Rachel's Experiment (D.T.)";"1.0";"2";"1";"1";"2";"1";"1";"2014-10-16 12:48:06.167";"";"0";"0";"1";"6";"5";"module.GoNoGopractice.exec-4462.GoNoGo_Practice";;;;;;;;;;;;;;;;;;;;;;;;;;;;;;;;;;;;;"1959";"2014-10-16 12:49:46.591";"14";"1";"FINISHED";"NONE";"success";"0";"1";"2014-10-16 12:49:44.630";"2";;;;;;;;;;
"alf1601";"1996";;"Windows 8";"Rachel's Experiment (D.T.)";"1.0";"2";"1";"1";"2";"1";"1";"2014-10-16 12:48:06.167";"";"0";"0";"1";"7";"6";"module.GoNoGopractice.exec-4462.GoNoGo_Practice";;;;;;;;;;;;;;;;;;;;;;;;;;;;;;;;;;;;;"1953";"2014-10-16 12:49:49.854";"26";"0";"FINISHED";"LEFT";"success";"745";"0";"2014-10-16 12:49:47.900";"3";;;;;;;;;;
"alf1601";"1996";;"Windows 8";"Rachel's Experiment (D.T.)";"1.0";"2";"1";"1";"2";"1";"1";"2014-10-16 12:48:06.167";"";"0";"0";"1";"8";"7";"module.GoNoGopractice.exec-4462.GoNoGo_Practice";;;;;;;;;;;;;;;;;;;;;;;;;;;;;;;;;;;;;"1953";"2014-10-16 12:49:53.117";"2";"0";"FINISHED";"LEFT";"success";"599";"0";"2014-10-16 12:49:51.163";"1";;;;;;;;;;
"alf1601";"1996";;"Windows 8";"Rachel's Experiment (D.T.)";"1.0";"2";"1";"1";"2";"1";"1";"2014-10-16 12:48:06.167";"";"0";"0";"1";"9";"8";"module.GoNoGopractice.exec-4462.GoNoGo_Practice";;;;;;;;;;;;;;;;;;;;;;;;;;;;;;;;;;;;;"1953";"2014-10-16 12:49:56.376";"30";"0";"FINISHED";"NONE";"success";"0";"1";"2014-10-16 12:49:54.422";"3";;;;;;;;;;
"alf1601";"1996";;"Windows 8";"Rachel's Experiment (D.T.)";"1.0";"2";"1";"1";"2";"1";"1";"2014-10-16 12:48:06.167";"";"0";"0";"1";"10";"9";"module.GoNoGopractice.exec-4462.GoNoGo_Practice";;;;;;;;;;;;;;;;;;;;;;;;;;;;;;;;;;;;;"1959";"2014-10-16 12:49:59.640";"6";"1";"FINISHED";"RIGHT";"failure";"733";"1";"2014-10-16 12:49:57.680";"1";;;;;;;;;;
"alf1601";"1996";;"Windows 8";"Rachel's Experiment (D.T.)";"1.0";"2";"1";"1";"2";"1";"1";"2014-10-16 12:48:06.167";"";"0";"0";"1";"11";"10";"module.GoNoGopractice.exec-4462.GoNoGo_Practice";;;;;;;;;;;;;;;;;;;;;;;;;;;;;;;;;;;;;"1952";"2014-10-16 12:50:02.907";"34";"0";"FINISHED";"LEFT";"success";"546";"0";"2014-10-16 12:50:00.953";"3";;;;;;;;;;
"alf1601";"1996";;"Windows 8";"Rachel's Experiment (D.T.)";"1.0";"2";"1";"1";"2";"1";"1";"2014-10-16 12:48:06.167";"";"0";"0";"1";"12";"11";"module.GoNoGopractice.exec-4462.GoNoGo_Practice";;;;;;;;;;;;;;;;;;;;;;;;;;;;;;;;;;;;;"1954";"2014-10-16 12:50:06.172";"23";"1";"FINISHED";"RIGHT";"success";"896";"0";"2014-10-16 12:50:04.216";"3";;;;;;;;;;
"alf1601";"1996";;"Windows 8";"Rachel's Experiment (D.T.)";"1.0";"2";"1";"1";"2";"1";"1";"2014-10-16 12:48:06.167";"";"0";"0";"1";"13";"12";"module.GoNoGopractice.exec-4462.GoNoGo_Practice";;;;;;;;;;;;;;;;;;;;;;;;;;;;;;;;;;;;;"1953";"2014-10-16 12:50:09.430";"13";"0";"FINISHED";"NONE";"success";"0";"1";"2014-10-16 12:50:07.476";"2";;;;;;;;;;
"alf1601";"1996";;"Windows 8";"Rachel's Experiment (D.T.)";"1.0";"2";"1";"1";"2";"1";"1";"2014-10-16 12:48:06.167";"";"0";"0";"1";"14";"13";"module.GoNoGopractice.exec-4462.GoNoGo_Practice";;;;;;;;;;;;;;;;;;;;;;;;;;;;;;;;;;;;;"1953";"2014-10-16 12:50:12.695";"3";"1";"FINISHED";"RIGHT";"success";"907";"0";"2014-10-16 12:50:10.741";"1";;;;;;;;;;
"alf1601";"1996";;"Windows 8";"Rachel's Experiment (D.T.)";"1.0";"2";"1";"1";"2";"1";"1";"2014-10-16 12:48:06.167";"";"0";"0";"1";"15";"14";"module.GoNoGopractice.exec-4462.GoNoGo_Practice";;;;;;;;;;;;;;;;;;;;;;;;;;;;;;;;;;;;;"1954";"2014-10-16 12:50:15.957";"27";"1";"FINISHED";"NONE";"success";"0";"1";"2014-10-16 12:50:14.002";"3";;;;;;;;;;
"alf1601";"1996";;"Windows 8";"Rachel's Experiment (D.T.)";"1.0";"2";"1";"1";"2";"1";"1";"2014-10-16 12:48:06.167";"";"0";"0";"1";"16";"15";"module.training_block1.exec-7115.GoNoGo1";"1252";"2014-10-16 12:50:26.684";"ST_correctStop";"3";"1";"FINISHED";"NONE";"success";"0";"1";"2014-10-16 12:50:25.432";"1";;;;;;;;;;;;;;;;;;;;;;;;;;;;;;;;;;;;;;;;;;;;;
"alf1601";"1996";;"Windows 8";"Rachel's Experiment (D.T.)";"1.0";"2";"1";"1";"2";"1";"1";"2014-10-16 12:48:06.167";"";"0";"0";"1";"17";"16";"module.training_block1.exec-7115.GoNoGo1";"1249";"2014-10-16 12:50:29.333";"ST_correctStop";"8";"0";"FINISHED";"NONE";"success";"0";"1";"2014-10-16 12:50:28.083";"1";;;;;;;;;;;;;;;;;;;;;;;;;;;;;;;;;;;;;;;;;;;;;
"alf1601";"1996";;"Windows 8";"Rachel's Experiment (D.T.)";"1.0";"2";"1";"1";"2";"1";"1";"2014-10-16 12:48:06.167";"";"0";"0";"1";"18";"17";"module.training_block1.exec-7115.GoNoGo1";"1249";"2014-10-16 12:50:31.896";"NST_correctLoc";"24";"0";"FINISHED";"LEFT";"success";"723";"0";"2014-10-16 12:50:30.645";"3";;;;;;;;;;;;;;;;;;;;;;;;;;;;;;;;;;;;;;;;;;;;;
"alf1601";"1996";;"Windows 8";"Rachel's Experiment (D.T.)";"1.0";"2";"1";"1";"2";"1";"1";"2014-10-16 12:48:06.167";"";"0";"0";"1";"19";"18";"module.training_block1.exec-7115.GoNoGo1";"1250";"2014-10-16 12:50:34.451";"ST_correctStop";"22";"0";"FINISHED";"NONE";"success";"0";"1";"2014-10-16 12:50:33.201";"3";;;;;;;;;;;;;;;;;;;;;;;;;;;;;;;;;;;;;;;;;;;;;
"alf1601";"1996";;"Windows 8";"Rachel's Experiment (D.T.)";"1.0";"2";"1";"1";"2";"1";"1";"2014-10-16 12:48:06.167";"";"0";"0";"1";"20";"19";"module.training_block1.exec-7115.GoNoGo1";"1251";"2014-10-16 12:50:37.003";"ST_correctStop";"29";"1";"FINISHED";"NONE";"success";"0";"1";"2014-10-16 12:50:35.752";"3";;;;;;;;;;;;;;;;;;;;;;;;;;;;;;;;;;;;;;;;;;;;;
"alf1601";"1996";;"Windows 8";"Rachel's Experiment (D.T.)";"1.0";"2";"1";"1";"2";"1";"1";"2014-10-16 12:48:06.167";"";"0";"0";"1";"21";"20";"module.training_block1.exec-7115.GoNoGo1";"1250";"2014-10-16 12:50:39.556";"ST_correctStop";"21";"1";"FINISHED";"NONE";"success";"0";"1";"2014-10-16 12:50:38.306";"3";;;;;;;;;;;;;;;;;;;;;;;;;;;;;;;;;;;;;;;;;;;;;
"alf1601";"1996";;"Windows 8";"Rachel's Experiment (D.T.)";"1.0";"2";"1";"1";"2";"1";"1";"2014-10-16 12:48:06.167";"";"0";"0";"1";"22";"21";"module.training_block1.exec-7115.GoNoGo1";"1250";"2014-10-16 12:50:42.110";"ST_correctStop";"35";"1";"FINISHED";"NONE";"success";"0";"1";"2014-10-16 12:50:40.859";"3";;;;;;;;;;;;;;;;;;;;;;;;;;;;;;;;;;;;;;;;;;;;;
"alf1601";"1996";;"Windows 8";"Rachel's Experiment (D.T.)";"1.0";"2";"1";"1";"2";"1";"1";"2014-10-16 12:48:06.167";"";"0";"0";"1";"23";"22";"module.training_block1.exec-7115.GoNoGo1";"1250";"2014-10-16 12:50:44.662";"NST_correctLoc";"27";"1";"FINISHED";"RIGHT";"success";"767";"0";"2014-10-16 12:50:43.412";"3";;;;;;;;;;;;;;;;;;;;;;;;;;;;;;;;;;;;;;;;;;;;;
"alf1601";"1996";;"Windows 8";"Rachel's Experiment (D.T.)";"1.0";"2";"1";"1";"2";"1";"1";"2014-10-16 12:48:06.167";"";"0";"0";"1";"24";"23";"module.training_block1.exec-7115.GoNoGo1";"1250";"2014-10-16 12:50:47.219";"ST_correctStop";"5";"1";"FINISHED";"NONE";"success";"0";"1";"2014-10-16 12:50:45.969";"1";;;;;;;;;;;;;;;;;;;;;;;;;;;;;;;;;;;;;;;;;;;;;
"alf1601";"1996";;"Windows 8";"Rachel's Experiment (D.T.)";"1.0";"2";"1";"1";"2";"1";"1";"2014-10-16 12:48:06.167";"";"0";"0";"1";"25";"24";"module.training_block1.exec-7115.GoNoGo1";"1249";"2014-10-16 12:50:49.779";"ST_correctStop";"0";"0";"FINISHED";"NONE";"success";"0";"1";"2014-10-16 12:50:48.529";"1";;;;;;;;;;;;;;;;;;;;;;;;;;;;;;;;;;;;;;;;;;;;;
"alf1601";"1996";;"Windows 8";"Rachel's Experiment (D.T.)";"1.0";"2";"1";"1";"2";"1";"1";"2014-10-16 12:48:06.167";"";"0";"0";"1";"26";"25";"module.training_block1.exec-7115.GoNoGo1";"1250";"2014-10-16 12:50:52.329";"ST_correctStop";"4";"1";"FINISHED";"NONE";"success";"0";"1";"2014-10-16 12:50:51.078";"1";;;;;;;;;;;;;;;;;;;;;;;;;;;;;;;;;;;;;;;;;;;;;
"alf1601";"1996";;"Windows 8";"Rachel's Experiment (D.T.)";"1.0";"2";"1";"1";"2";"1";"1";"2014-10-16 12:48:06.167";"";"0";"0";"1";"27";"26";"module.training_block1.exec-7115.GoNoGo1";"1250";"2014-10-16 12:50:54.874";"NST_correctLoc";"20";"1";"FINISHED";"RIGHT";"success";"1091";"0";"2014-10-16 12:50:53.623";"3";;;;;;;;;;;;;;;;;;;;;;;;;;;;;;;;;;;;;;;;;;;;;
"alf1601";"1996";;"Windows 8";"Rachel's Experiment (D.T.)";"1.0";"2";"1";"1";"2";"1";"1";"2014-10-16 12:48:06.167";"";"0";"0";"1";"28";"27";"module.training_block1.exec-7115.GoNoGo1";"1249";"2014-10-16 12:50:57.427";"NST_correctLoc";"23";"0";"FINISHED";"LEFT";"success";"879";"0";"2014-10-16 12:50:56.177";"3";;;;;;;;;;;;;;;;;;;;;;;;;;;;;;;;;;;;;;;;;;;;;
"alf1601";"1996";;"Windows 8";"Rachel's Experiment (D.T.)";"1.0";"2";"1";"1";"2";"1";"1";"2014-10-16 12:48:06.167";"";"0";"0";"1";"29";"28";"module.training_block1.exec-7115.GoNoGo1";"1249";"2014-10-16 12:50:59.976";"NST_correctLoc";"14";"0";"FINISHED";"LEFT";"success";"689";"0";"2014-10-16 12:50:58.726";"2";;;;;;;;;;;;;;;;;;;;;;;;;;;;;;;;;;;;;;;;;;;;;
"alf1601";"1996";;"Windows 8";"Rachel's Experiment (D.T.)";"1.0";"2";"1";"1";"2";"1";"1";"2014-10-16 12:48:06.167";"";"0";"0";"1";"30";"29";"module.training_block1.exec-7115.GoNoGo1";"1250";"2014-10-16 12:51:02.527";"NST_correctLoc";"19";"0";"FINISHED";"LEFT";"success";"837";"0";"2014-10-16 12:51:01.276";"3";;;;;;;;;;;;;;;;;;;;;;;;;;;;;;;;;;;;;;;;;;;;;
"alf1601";"1996";;"Windows 8";"Rachel's Experiment (D.T.)";"1.0";"2";"1";"1";"2";"1";"1";"2014-10-16 12:48:06.167";"";"0";"0";"1";"31";"30";"module.training_block1.exec-7115.GoNoGo1";"1250";"2014-10-16 12:51:05.079";"NST_correctLoc";"13";"1";"FINISHED";"RIGHT";"success";"709";"0";"2014-10-16 12:51:03.829";"2";;;;;;;;;;;;;;;;;;;;;;;;;;;;;;;;;;;;;;;;;;;;;
"alf1601";"1996";;"Windows 8";"Rachel's Experiment (D.T.)";"1.0";"2";"1";"1";"2";"1";"1";"2014-10-16 12:48:06.167";"";"0";"0";"1";"32";"31";"module.training_block1.exec-7115.GoNoGo1";"1250";"2014-10-16 12:51:07.627";"ST_correctStop";"1";"0";"FINISHED";"NONE";"success";"0";"1";"2014-10-16 12:51:06.377";"1";;;;;;;;;;;;;;;;;;;;;;;;;;;;;;;;;;;;;;;;;;;;;
"alf1601";"1996";;"Windows 8";"Rachel's Experiment (D.T.)";"1.0";"2";"1";"1";"2";"1";"1";"2014-10-16 12:48:06.167";"";"0";"0";"1";"33";"32";"module.training_block1.exec-7115.GoNoGo1";"1250";"2014-10-16 12:51:10.176";"NST_correctLoc";"9";"1";"FINISHED";"RIGHT";"success";"787";"0";"2014-10-16 12:51:08.925";"2";;;;;;;;;;;;;;;;;;;;;;;;;;;;;;;;;;;;;;;;;;;;;
"alf1601";"1996";;"Windows 8";"Rachel's Experiment (D.T.)";"1.0";"2";"1";"1";"2";"1";"1";"2014-10-16 12:48:06.167";"";"0";"0";"1";"34";"33";"module.training_block1.exec-7115.GoNoGo1";"1250";"2014-10-16 12:51:12.727";"NST_correctLoc";"26";"0";"FINISHED";"LEFT";"success";"624";"0";"2014-10-16 12:51:11.477";"3";;;;;;;;;;;;;;;;;;;;;;;;;;;;;;;;;;;;;;;;;;;;;
"alf1601";"1996";;"Windows 8";"Rachel's Experiment (D.T.)";"1.0";"2";"1";"1";"2";"1";"1";"2014-10-16 12:48:06.167";"";"0";"0";"1";"35";"34";"module.training_block1.exec-7115.GoNoGo1";"1250";"2014-10-16 12:51:15.278";"ST_correctStop";"2";"1";"FINISHED";"NONE";"success";"0";"1";"2014-10-16 12:51:14.028";"1";;;;;;;;;;;;;;;;;;;;;;;;;;;;;;;;;;;;;;;;;;;;;
"alf1601";"1996";;"Windows 8";"Rachel's Experiment (D.T.)";"1.0";"2";"1";"1";"2";"1";"1";"2014-10-16 12:48:06.167";"";"0";"0";"1";"36";"35";"module.training_block1.exec-7115.GoNoGo1";"1249";"2014-10-16 12:51:17.825";"ST_correctStop";"28";"1";"FINISHED";"NONE";"success";"0";"1";"2014-10-16 12:51:16.575";"3";;;;;;;;;;;;;;;;;;;;;;;;;;;;;;;;;;;;;;;;;;;;;
"alf1601";"1996";;"Windows 8";"Rachel's Experiment (D.T.)";"1.0";"2";"1";"1";"2";"1";"1";"2014-10-16 12:48:06.167";"";"0";"0";"1";"37";"36";"module.training_block1.exec-7115.GoNoGo1";"1249";"2014-10-16 12:51:20.376";"ST_correctStop";"32";"1";"FINISHED";"NONE";"success";"0";"1";"2014-10-16 12:51:19.126";"3";;;;;;;;;;;;;;;;;;;;;;;;;;;;;;;;;;;;;;;;;;;;;
"alf1601";"1996";;"Windows 8";"Rachel's Experiment (D.T.)";"1.0";"2";"1";"1";"2";"1";"1";"2014-10-16 12:48:06.167";"";"0";"0";"1";"38";"37";"module.training_block1.exec-7115.GoNoGo1";"1250";"2014-10-16 12:51:22.929";"NST_correctLoc";"17";"1";"FINISHED";"RIGHT";"success";"549";"0";"2014-10-16 12:51:21.679";"2";;;;;;;;;;;;;;;;;;;;;;;;;;;;;;;;;;;;;;;;;;;;;
"alf1601";"1996";;"Windows 8";"Rachel's Experiment (D.T.)";"1.0";"2";"1";"1";"2";"1";"1";"2014-10-16 12:48:06.167";"";"0";"0";"1";"39";"38";"module.training_block1.exec-7115.GoNoGo1";"1249";"2014-10-16 12:51:25.477";"NST_correctLoc";"31";"0";"FINISHED";"LEFT";"success";"720";"0";"2014-10-16 12:51:24.227";"3";;;;;;;;;;;;;;;;;;;;;;;;;;;;;;;;;;;;;;;;;;;;;
"alf1601";"1996";;"Windows 8";"Rachel's Experiment (D.T.)";"1.0";"2";"1";"1";"2";"1";"1";"2014-10-16 12:48:06.167";"";"0";"0";"1";"40";"39";"module.training_block1.exec-7115.GoNoGo1";"1249";"2014-10-16 12:51:28.025";"NST_correctLoc";"16";"1";"FINISHED";"RIGHT";"success";"1064";"0";"2014-10-16 12:51:26.775";"2";;;;;;;;;;;;;;;;;;;;;;;;;;;;;;;;;;;;;;;;;;;;;
"alf1601";"1996";;"Windows 8";"Rachel's Experiment (D.T.)";"1.0";"2";"1";"1";"2";"1";"1";"2014-10-16 12:48:06.167";"";"0";"0";"1";"41";"40";"module.training_block1.exec-7115.GoNoGo1";"1250";"2014-10-16 12:51:30.572";"ST_correctStop";"25";"0";"FINISHED";"NONE";"success";"0";"1";"2014-10-16 12:51:29.322";"3";;;;;;;;;;;;;;;;;;;;;;;;;;;;;;;;;;;;;;;;;;;;;
"alf1601";"1996";;"Windows 8";"Rachel's Experiment (D.T.)";"1.0";"2";"1";"1";"2";"1";"1";"2014-10-16 12:48:06.167";"";"0";"0";"1";"42";"41";"module.training_block1.exec-7115.GoNoGo1";"1249";"2014-10-16 12:51:33.124";"NST_correctLoc";"10";"1";"FINISHED";"RIGHT";"success";"651";"0";"2014-10-16 12:51:31.874";"2";;;;;;;;;;;;;;;;;;;;;;;;;;;;;;;;;;;;;;;;;;;;;
"alf1601";"1996";;"Windows 8";"Rachel's Experiment (D.T.)";"1.0";"2";"1";"1";"2";"1";"1";"2014-10-16 12:48:06.167";"";"0";"0";"1";"43";"42";"module.training_block1.exec-7115.GoNoGo1";"1249";"2014-10-16 12:51:35.663";"ST_correctStop";"6";"1";"FINISHED";"NONE";"success";"0";"1";"2014-10-16 12:51:34.413";"1";;;;;;;;;;;;;;;;;;;;;;;;;;;;;;;;;;;;;;;;;;;;;
"alf1601";"1996";;"Windows 8";"Rachel's Experiment (D.T.)";"1.0";"2";"1";"1";"2";"1";"1";"2014-10-16 12:48:06.167";"";"0";"0";"1";"44";"43";"module.training_block1.exec-7115.GoNoGo1";"1249";"2014-10-16 12:51:38.213";"NST_correctLoc";"30";"1";"FINISHED";"RIGHT";"success";"950";"0";"2014-10-16 12:51:36.962";"3";;;;;;;;;;;;;;;;;;;;;;;;;;;;;;;;;;;;;;;;;;;;;
"alf1601";"1996";;"Windows 8";"Rachel's Experiment (D.T.)";"1.0";"2";"1";"1";"2";"1";"1";"2014-10-16 12:48:06.167";"";"0";"0";"1";"45";"44";"module.training_block1.exec-7115.GoNoGo1";"1250";"2014-10-16 12:51:40.766";"ST_correctStop";"7";"0";"FINISHED";"NONE";"success";"0";"1";"2014-10-16 12:51:39.515";"1";;;;;;;;;;;;;;;;;;;;;;;;;;;;;;;;;;;;;;;;;;;;;
"alf1601";"1996";;"Windows 8";"Rachel's Experiment (D.T.)";"1.0";"2";"1";"1";"2";"1";"1";"2014-10-16 12:48:06.167";"";"0";"0";"1";"46";"45";"module.training_block1.exec-7115.GoNoGo1";"1250";"2014-10-16 12:51:43.317";"NST_correctLoc";"11";"0";"FINISHED";"LEFT";"success";"561";"0";"2014-10-16 12:51:42.067";"2";;;;;;;;;;;;;;;;;;;;;;;;;;;;;;;;;;;;;;;;;;;;;
"alf1601";"1996";;"Windows 8";"Rachel's Experiment (D.T.)";"1.0";"2";"1";"1";"2";"1";"1";"2014-10-16 12:48:06.167";"";"0";"0";"1";"47";"46";"module.training_block1.exec-7115.GoNoGo1";"1249";"2014-10-16 12:51:45.866";"ST_correctStop";"34";"1";"FINISHED";"NONE";"success";"0";"1";"2014-10-16 12:51:44.616";"3";;;;;;;;;;;;;;;;;;;;;;;;;;;;;;;;;;;;;;;;;;;;;
"alf1601";"1996";;"Windows 8";"Rachel's Experiment (D.T.)";"1.0";"2";"1";"1";"2";"1";"1";"2014-10-16 12:48:06.167";"";"0";"0";"1";"48";"47";"module.training_block1.exec-7115.GoNoGo1";"1250";"2014-10-16 12:51:48.413";"NST_correctLoc";"12";"0";"FINISHED";"LEFT";"success";"578";"0";"2014-10-16 12:51:47.163";"2";;;;;;;;;;;;;;;;;;;;;;;;;;;;;;;;;;;;;;;;;;;;;
"alf1601";"1996";;"Windows 8";"Rachel's Experiment (D.T.)";"1.0";"2";"1";"1";"2";"1";"1";"2014-10-16 12:48:06.167";"";"0";"0";"1";"49";"48";"module.training_block1.exec-7115.GoNoGo1";"1249";"2014-10-16 12:51:50.963";"NST_correctLoc";"18";"1";"FINISHED";"RIGHT";"success";"758";"0";"2014-10-16 12:51:49.712";"3";;;;;;;;;;;;;;;;;;;;;;;;;;;;;;;;;;;;;;;;;;;;;
"alf1601";"1996";;"Windows 8";"Rachel's Experiment (D.T.)";"1.0";"2";"1";"1";"2";"1";"1";"2014-10-16 12:48:06.167";"";"0";"0";"1";"50";"49";"module.training_block1.exec-7115.GoNoGo1";"1249";"2014-10-16 12:51:53.508";"ST_correctStop";"33";"1";"FINISHED";"NONE";"success";"0";"1";"2014-10-16 12:51:52.258";"3";;;;;;;;;;;;;;;;;;;;;;;;;;;;;;;;;;;;;;;;;;;;;
"alf1601";"1996";;"Windows 8";"Rachel's Experiment (D.T.)";"1.0";"2";"1";"1";"2";"1";"1";"2014-10-16 12:48:06.167";"";"0";"0";"1";"51";"50";"module.training_block1.exec-7115.GoNoGo1";"1249";"2014-10-16 12:51:56.059";"NST_correctLoc";"15";"0";"FINISHED";"LEFT";"success";"842";"0";"2014-10-16 12:51:54.809";"2";;;;;;;;;;;;;;;;;;;;;;;;;;;;;;;;;;;;;;;;;;;;;
"alf1601";"1996";;"Windows 8";"Rachel's Experiment (D.T.)";"1.0";"2";"1";"1";"2";"1";"1";"2014-10-16 12:48:06.167";"";"0";"0";"1";"52";"51";"module.training_block2.exec-2916.GoNoGo2";;;;;;;;;;;;;"1249";"2014-10-16 12:52:07.646";"NST_correctLoc";"11";"0";"FINISHED";"LEFT";"success";"585";"0";"2014-10-16 12:52:06.396";"2";;;;;;;;;;;;;;;;;;;;;;;;;;;;;;;;;
"alf1601";"1996";;"Windows 8";"Rachel's Experiment (D.T.)";"1.0";"2";"1";"1";"2";"1";"1";"2014-10-16 12:48:06.167";"";"0";"0";"1";"53";"52";"module.training_block2.exec-2916.GoNoGo2";;;;;;;;;;;;;"1250";"2014-10-16 12:52:10.189";"ST_correctStop";"7";"0";"FINISHED";"NONE";"success";"0";"1";"2014-10-16 12:52:08.938";"1";;;;;;;;;;;;;;;;;;;;;;;;;;;;;;;;;
"alf1601";"1996";;"Windows 8";"Rachel's Experiment (D.T.)";"1.0";"2";"1";"1";"2";"1";"1";"2014-10-16 12:48:06.167";"";"0";"0";"1";"54";"53";"module.training_block2.exec-2916.GoNoGo2";;;;;;;;;;;;;"1250";"2014-10-16 12:52:12.730";"NST_correctLoc";"27";"1";"FINISHED";"RIGHT";"success";"738";"0";"2014-10-16 12:52:11.480";"3";;;;;;;;;;;;;;;;;;;;;;;;;;;;;;;;;
"alf1601";"1996";;"Windows 8";"Rachel's Experiment (D.T.)";"1.0";"2";"1";"1";"2";"1";"1";"2014-10-16 12:48:06.167";"";"0";"0";"1";"55";"54";"module.training_block2.exec-2916.GoNoGo2";;;;;;;;;;;;;"1250";"2014-10-16 12:52:15.274";"NST_correctLoc";"14";"0";"FINISHED";"LEFT";"success";"686";"0";"2014-10-16 12:52:14.024";"2";;;;;;;;;;;;;;;;;;;;;;;;;;;;;;;;;
"alf1601";"1996";;"Windows 8";"Rachel's Experiment (D.T.)";"1.0";"2";"1";"1";"2";"1";"1";"2014-10-16 12:48:06.167";"";"0";"0";"1";"56";"55";"module.training_block2.exec-2916.GoNoGo2";;;;;;;;;;;;;"1249";"2014-10-16 12:52:17.812";"ST_correctStop";"28";"1";"FINISHED";"NONE";"success";"0";"1";"2014-10-16 12:52:16.562";"3";;;;;;;;;;;;;;;;;;;;;;;;;;;;;;;;;
"alf1601";"1996";;"Windows 8";"Rachel's Experiment (D.T.)";"1.0";"2";"1";"1";"2";"1";"1";"2014-10-16 12:48:06.167";"";"0";"0";"1";"57";"56";"module.training_block2.exec-2916.GoNoGo2";;;;;;;;;;;;;"1249";"2014-10-16 12:52:20.351";"NST_correctLoc";"25";"0";"FINISHED";"LEFT";"success";"429";"0";"2014-10-16 12:52:19.101";"3";;;;;;;;;;;;;;;;;;;;;;;;;;;;;;;;;
"alf1601";"1996";;"Windows 8";"Rachel's Experiment (D.T.)";"1.0";"2";"1";"1";"2";"1";"1";"2014-10-16 12:48:06.167";"";"0";"0";"1";"58";"57";"module.training_block2.exec-2916.GoNoGo2";;;;;;;;;;;;;"1250";"2014-10-16 12:52:22.891";"ST_correctStop";"31";"1";"FINISHED";"NONE";"success";"0";"1";"2014-10-16 12:52:21.641";"3";;;;;;;;;;;;;;;;;;;;;;;;;;;;;;;;;
"alf1601";"1996";;"Windows 8";"Rachel's Experiment (D.T.)";"1.0";"2";"1";"1";"2";"1";"1";"2014-10-16 12:48:06.167";"";"0";"0";"1";"59";"58";"module.training_block2.exec-2916.GoNoGo2";;;;;;;;;;;;;"1249";"2014-10-16 12:52:25.432";"NST_correctLoc";"19";"1";"FINISHED";"RIGHT";"success";"600";"0";"2014-10-16 12:52:24.182";"3";;;;;;;;;;;;;;;;;;;;;;;;;;;;;;;;;
"alf1601";"1996";;"Windows 8";"Rachel's Experiment (D.T.)";"1.0";"2";"1";"1";"2";"1";"1";"2014-10-16 12:48:06.167";"";"0";"0";"1";"60";"59";"module.training_block2.exec-2916.GoNoGo2";;;;;;;;;;;;;"1250";"2014-10-16 12:52:27.970";"NST_correctLoc";"24";"1";"FINISHED";"RIGHT";"success";"676";"0";"2014-10-16 12:52:26.720";"3";;;;;;;;;;;;;;;;;;;;;;;;;;;;;;;;;
"alf1601";"1996";;"Windows 8";"Rachel's Experiment (D.T.)";"1.0";"2";"1";"1";"2";"1";"1";"2014-10-16 12:48:06.167";"";"0";"0";"1";"61";"60";"module.training_block2.exec-2916.GoNoGo2";;;;;;;;;;;;;"1250";"2014-10-16 12:52:30.510";"ST_correctStop";"1";"0";"FINISHED";"NONE";"success";"0";"1";"2014-10-16 12:52:29.259";"1";;;;;;;;;;;;;;;;;;;;;;;;;;;;;;;;;
"alf1601";"1996";;"Windows 8";"Rachel's Experiment (D.T.)";"1.0";"2";"1";"1";"2";"1";"1";"2014-10-16 12:48:06.167";"";"0";"0";"1";"62";"61";"module.training_block2.exec-2916.GoNoGo2";;;;;;;;;;;;;"1249";"2014-10-16 12:52:33.062";"NST_correctLoc";"30";"1";"FINISHED";"RIGHT";"success";"534";"0";"2014-10-16 12:52:31.812";"3";;;;;;;;;;;;;;;;;;;;;;;;;;;;;;;;;
"alf1601";"1996";;"Windows 8";"Rachel's Experiment (D.T.)";"1.0";"2";"1";"1";"2";"1";"1";"2014-10-16 12:48:06.167";"";"0";"0";"1";"63";"62";"module.training_block2.exec-2916.GoNoGo2";;;;;;;;;;;;;"1249";"2014-10-16 12:52:35.604";"NST_correctLoc";"15";"1";"FINISHED";"RIGHT";"success";"457";"0";"2014-10-16 12:52:34.354";"2";;;;;;;;;;;;;;;;;;;;;;;;;;;;;;;;;
"alf1601";"1996";;"Windows 8";"Rachel's Experiment (D.T.)";"1.0";"2";"1";"1";"2";"1";"1";"2014-10-16 12:48:06.167";"";"0";"0";"1";"64";"63";"module.training_block2.exec-2916.GoNoGo2";;;;;;;;;;;;;"1250";"2014-10-16 12:52:38.145";"ST_correctStop";"33";"0";"FINISHED";"NONE";"success";"0";"1";"2014-10-16 12:52:36.895";"3";;;;;;;;;;;;;;;;;;;;;;;;;;;;;;;;;
"alf1601";"1996";;"Windows 8";"Rachel's Experiment (D.T.)";"1.0";"2";"1";"1";"2";"1";"1";"2014-10-16 12:48:06.167";"";"0";"0";"1";"65";"64";"module.training_block2.exec-2916.GoNoGo2";;;;;;;;;;;;;"1250";"2014-10-16 12:52:40.685";"NST_correctLoc";"29";"1";"FINISHED";"RIGHT";"success";"530";"0";"2014-10-16 12:52:39.434";"3";;;;;;;;;;;;;;;;;;;;;;;;;;;;;;;;;
"alf1601";"1996";;"Windows 8";"Rachel's Experiment (D.T.)";"1.0";"2";"1";"1";"2";"1";"1";"2014-10-16 12:48:06.167";"";"0";"0";"1";"66";"65";"module.training_block2.exec-2916.GoNoGo2";;;;;;;;;;;;;"1250";"2014-10-16 12:52:43.228";"NST_correctLoc";"22";"1";"FINISHED";"RIGHT";"success";"686";"0";"2014-10-16 12:52:41.978";"3";;;;;;;;;;;;;;;;;;;;;;;;;;;;;;;;;
"alf1601";"1996";;"Windows 8";"Rachel's Experiment (D.T.)";"1.0";"2";"1";"1";"2";"1";"1";"2014-10-16 12:48:06.167";"";"0";"0";"1";"67";"66";"module.training_block2.exec-2916.GoNoGo2";;;;;;;;;;;;;"1250";"2014-10-16 12:52:45.769";"ST_correctStop";"0";"0";"FINISHED";"NONE";"success";"0";"1";"2014-10-16 12:52:44.519";"1";;;;;;;;;;;;;;;;;;;;;;;;;;;;;;;;;
"alf1601";"1996";;"Windows 8";"Rachel's Experiment (D.T.)";"1.0";"2";"1";"1";"2";"1";"1";"2014-10-16 12:48:06.167";"";"0";"0";"1";"68";"67";"module.training_block2.exec-2916.GoNoGo2";;;;;;;;;;;;;"1249";"2014-10-16 12:52:48.309";"ST_correctStop";"21";"0";"FINISHED";"NONE";"success";"0";"1";"2014-10-16 12:52:47.059";"3";;;;;;;;;;;;;;;;;;;;;;;;;;;;;;;;;
"alf1601";"1996";;"Windows 8";"Rachel's Experiment (D.T.)";"1.0";"2";"1";"1";"2";"1";"1";"2014-10-16 12:48:06.167";"";"0";"0";"1";"69";"68";"module.training_block2.exec-2916.GoNoGo2";;;;;;;;;;;;;"1249";"2014-10-16 12:52:50.851";"ST_correctStop";"8";"1";"FINISHED";"NONE";"success";"0";"1";"2014-10-16 12:52:49.601";"1";;;;;;;;;;;;;;;;;;;;;;;;;;;;;;;;;
"alf1601";"1996";;"Windows 8";"Rachel's Experiment (D.T.)";"1.0";"2";"1";"1";"2";"1";"1";"2014-10-16 12:48:06.167";"";"0";"0";"1";"70";"69";"module.training_block2.exec-2916.GoNoGo2";;;;;;;;;;;;;"1250";"2014-10-16 12:52:53.391";"ST_correctStop";"18";"0";"FINISHED";"NONE";"success";"0";"1";"2014-10-16 12:52:52.141";"3";;;;;;;;;;;;;;;;;;;;;;;;;;;;;;;;;
"alf1601";"1996";;"Windows 8";"Rachel's Experiment (D.T.)";"1.0";"2";"1";"1";"2";"1";"1";"2014-10-16 12:48:06.167";"";"0";"0";"1";"71";"70";"module.training_block2.exec-2916.GoNoGo2";;;;;;;;;;;;;"1250";"2014-10-16 12:52:55.932";"ST_correctStop";"5";"1";"FINISHED";"NONE";"success";"0";"1";"2014-10-16 12:52:54.681";"1";;;;;;;;;;;;;;;;;;;;;;;;;;;;;;;;;
"alf1601";"1996";;"Windows 8";"Rachel's Experiment (D.T.)";"1.0";"2";"1";"1";"2";"1";"1";"2014-10-16 12:48:06.167";"";"0";"0";"1";"72";"71";"module.training_block2.exec-2916.GoNoGo2";;;;;;;;;;;;;"1250";"2014-10-16 12:52:58.474";"NST_correctLoc";"12";"0";"FINISHED";"LEFT";"success";"567";"0";"2014-10-16 12:52:57.224";"2";;;;;;;;;;;;;;;;;;;;;;;;;;;;;;;;;
"alf1601";"1996";;"Windows 8";"Rachel's Experiment (D.T.)";"1.0";"2";"1";"1";"2";"1";"1";"2014-10-16 12:48:06.167";"";"0";"0";"1";"73";"72";"module.training_block2.exec-2916.GoNoGo2";;;;;;;;;;;;;"1249";"2014-10-16 12:53:01.024";"NST_correctLoc";"17";"0";"FINISHED";"LEFT";"success";"535";"0";"2014-10-16 12:52:59.774";"2";;;;;;;;;;;;;;;;;;;;;;;;;;;;;;;;;
"alf1601";"1996";;"Windows 8";"Rachel's Experiment (D.T.)";"1.0";"2";"1";"1";"2";"1";"1";"2014-10-16 12:48:06.167";"";"0";"0";"1";"74";"73";"module.training_block2.exec-2916.GoNoGo2";;;;;;;;;;;;;"1250";"2014-10-16 12:53:03.566";"ST_correctStop";"6";"1";"FINISHED";"NONE";"success";"0";"1";"2014-10-16 12:53:02.315";"1";;;;;;;;;;;;;;;;;;;;;;;;;;;;;;;;;
"alf1601";"1996";;"Windows 8";"Rachel's Experiment (D.T.)";"1.0";"2";"1";"1";"2";"1";"1";"2014-10-16 12:48:06.167";"";"0";"0";"1";"75";"74";"module.training_block2.exec-2916.GoNoGo2";;;;;;;;;;;;;"1250";"2014-10-16 12:53:06.111";"ST_correctStop";"3";"1";"FINISHED";"NONE";"success";"0";"1";"2014-10-16 12:53:04.860";"1";;;;;;;;;;;;;;;;;;;;;;;;;;;;;;;;;
"alf1601";"1996";;"Windows 8";"Rachel's Experiment (D.T.)";"1.0";"2";"1";"1";"2";"1";"1";"2014-10-16 12:48:06.167";"";"0";"0";"1";"76";"75";"module.training_block2.exec-2916.GoNoGo2";;;;;;;;;;;;;"1250";"2014-10-16 12:53:08.652";"NST_correctLoc";"16";"0";"FINISHED";"LEFT";"success";"597";"0";"2014-10-16 12:53:07.402";"2";;;;;;;;;;;;;;;;;;;;;;;;;;;;;;;;;
"alf1601";"1996";;"Windows 8";"Rachel's Experiment (D.T.)";"1.0";"2";"1";"1";"2";"1";"1";"2014-10-16 12:48:06.167";"";"0";"0";"1";"77";"76";"module.training_block2.exec-2916.GoNoGo2";;;;;;;;;;;;;"1250";"2014-10-16 12:53:11.190";"NST_correctLoc";"10";"0";"FINISHED";"LEFT";"success";"613";"0";"2014-10-16 12:53:09.939";"2";;;;;;;;;;;;;;;;;;;;;;;;;;;;;;;;;
"alf1601";"1996";;"Windows 8";"Rachel's Experiment (D.T.)";"1.0";"2";"1";"1";"2";"1";"1";"2014-10-16 12:48:06.167";"";"0";"0";"1";"78";"77";"module.training_block2.exec-2916.GoNoGo2";;;;;;;;;;;;;"1249";"2014-10-16 12:53:13.730";"NST_correctLoc";"26";"0";"FINISHED";"LEFT";"success";"708";"0";"2014-10-16 12:53:12.480";"3";;;;;;;;;;;;;;;;;;;;;;;;;;;;;;;;;
"alf1601";"1996";;"Windows 8";"Rachel's Experiment (D.T.)";"1.0";"2";"1";"1";"2";"1";"1";"2014-10-16 12:48:06.167";"";"0";"0";"1";"79";"78";"module.training_block2.exec-2916.GoNoGo2";;;;;;;;;;;;;"1249";"2014-10-16 12:53:16.269";"NST_correctLoc";"34";"1";"FINISHED";"RIGHT";"success";"475";"0";"2014-10-16 12:53:15.019";"3";;;;;;;;;;;;;;;;;;;;;;;;;;;;;;;;;
"alf1601";"1996";;"Windows 8";"Rachel's Experiment (D.T.)";"1.0";"2";"1";"1";"2";"1";"1";"2014-10-16 12:48:06.167";"";"0";"0";"1";"80";"79";"module.training_block2.exec-2916.GoNoGo2";;;;;;;;;;;;;"1250";"2014-10-16 12:53:18.811";"ST_correctStop";"32";"0";"FINISHED";"NONE";"success";"0";"1";"2014-10-16 12:53:17.561";"3";;;;;;;;;;;;;;;;;;;;;;;;;;;;;;;;;
"alf1601";"1996";;"Windows 8";"Rachel's Experiment (D.T.)";"1.0";"2";"1";"1";"2";"1";"1";"2014-10-16 12:48:06.167";"";"0";"0";"1";"81";"80";"module.training_block2.exec-2916.GoNoGo2";;;;;;;;;;;;;"1249";"2014-10-16 12:53:21.351";"ST_correctStop";"20";"1";"FINISHED";"NONE";"success";"0";"1";"2014-10-16 12:53:20.101";"3";;;;;;;;;;;;;;;;;;;;;;;;;;;;;;;;;
"alf1601";"1996";;"Windows 8";"Rachel's Experiment (D.T.)";"1.0";"2";"1";"1";"2";"1";"1";"2014-10-16 12:48:06.167";"";"0";"0";"1";"82";"81";"module.training_block2.exec-2916.GoNoGo2";;;;;;;;;;;;;"1249";"2014-10-16 12:53:23.888";"NST_correctLoc";"9";"0";"FINISHED";"LEFT";"success";"550";"0";"2014-10-16 12:53:22.638";"2";;;;;;;;;;;;;;;;;;;;;;;;;;;;;;;;;
"alf1601";"1996";;"Windows 8";"Rachel's Experiment (D.T.)";"1.0";"2";"1";"1";"2";"1";"1";"2014-10-16 12:48:06.167";"";"0";"0";"1";"83";"82";"module.training_block2.exec-2916.GoNoGo2";;;;;;;;;;;;;"1250";"2014-10-16 12:53:26.423";"ST_correctStop";"23";"0";"FINISHED";"NONE";"success";"0";"1";"2014-10-16 12:53:25.172";"3";;;;;;;;;;;;;;;;;;;;;;;;;;;;;;;;;
"alf1601";"1996";;"Windows 8";"Rachel's Experiment (D.T.)";"1.0";"2";"1";"1";"2";"1";"1";"2014-10-16 12:48:06.167";"";"0";"0";"1";"84";"83";"module.training_block2.exec-2916.GoNoGo2";;;;;;;;;;;;;"1249";"2014-10-16 12:53:28.959";"ST_correctStop";"2";"0";"FINISHED";"NONE";"success";"0";"1";"2014-10-16 12:53:27.709";"1";;;;;;;;;;;;;;;;;;;;;;;;;;;;;;;;;
"alf1601";"1996";;"Windows 8";"Rachel's Experiment (D.T.)";"1.0";"2";"1";"1";"2";"1";"1";"2014-10-16 12:48:06.167";"";"0";"0";"1";"85";"84";"module.training_block2.exec-2916.GoNoGo2";;;;;;;;;;;;;"1250";"2014-10-16 12:53:31.503";"ST_correctStop";"35";"1";"FINISHED";"NONE";"success";"0";"1";"2014-10-16 12:53:30.252";"3";;;;;;;;;;;;;;;;;;;;;;;;;;;;;;;;;
"alf1601";"1996";;"Windows 8";"Rachel's Experiment (D.T.)";"1.0";"2";"1";"1";"2";"1";"1";"2014-10-16 12:48:06.167";"";"0";"0";"1";"86";"85";"module.training_block2.exec-2916.GoNoGo2";;;;;;;;;;;;;"1249";"2014-10-16 12:53:34.038";"NST_correctLoc";"13";"1";"FINISHED";"RIGHT";"success";"560";"0";"2014-10-16 12:53:32.788";"2";;;;;;;;;;;;;;;;;;;;;;;;;;;;;;;;;
"alf1601";"1996";;"Windows 8";"Rachel's Experiment (D.T.)";"1.0";"2";"1";"1";"2";"1";"1";"2014-10-16 12:48:06.167";"";"0";"0";"1";"87";"86";"module.training_block2.exec-2916.GoNoGo2";;;;;;;;;;;;;"1249";"2014-10-16 12:53:36.572";"ST_correctStop";"4";"1";"FINISHED";"NONE";"success";"0";"1";"2014-10-16 12:53:35.322";"1";;;;;;;;;;;;;;;;;;;;;;;;;;;;;;;;;
"alf1601";"1996";;"Windows 8";"Rachel's Experiment (D.T.)";"1.0";"2";"1";"1";"2";"1";"1";"2014-10-16 12:48:06.167";"";"0";"0";"1";"88";"87";"module.training_block3.exec-4430.GoNoGo3";;;;;;;;;;;;;;;;;;;;;;;;;"1249";"2014-10-16 12:53:46.923";"NST_correctLoc";"27";"1";"FINISHED";"RIGHT";"success";"747";"0";"2014-10-16 12:53:45.673";"3";;;;;;;;;;;;;;;;;;;;;
"alf1601";"1996";;"Windows 8";"Rachel's Experiment (D.T.)";"1.0";"2";"1";"1";"2";"1";"1";"2014-10-16 12:48:06.167";"";"0";"0";"1";"89";"88";"module.training_block3.exec-4430.GoNoGo3";;;;;;;;;;;;;;;;;;;;;;;;;"1250";"2014-10-16 12:53:49.462";"NST_correctLoc";"14";"0";"FINISHED";"LEFT";"success";"814";"0";"2014-10-16 12:53:48.211";"2";;;;;;;;;;;;;;;;;;;;;
"alf1601";"1996";;"Windows 8";"Rachel's Experiment (D.T.)";"1.0";"2";"1";"1";"2";"1";"1";"2014-10-16 12:48:06.167";"";"0";"0";"1";"90";"89";"module.training_block3.exec-4430.GoNoGo3";;;;;;;;;;;;;;;;;;;;;;;;;"1249";"2014-10-16 12:53:51.998";"ST_correctStop";"0";"1";"FINISHED";"NONE";"success";"0";"1";"2014-10-16 12:53:50.747";"1";;;;;;;;;;;;;;;;;;;;;
"alf1601";"1996";;"Windows 8";"Rachel's Experiment (D.T.)";"1.0";"2";"1";"1";"2";"1";"1";"2014-10-16 12:48:06.167";"";"0";"0";"1";"91";"90";"module.training_block3.exec-4430.GoNoGo3";;;;;;;;;;;;;;;;;;;;;;;;;"1249";"2014-10-16 12:53:54.537";"ST_correctStop";"6";"0";"FINISHED";"NONE";"success";"0";"1";"2014-10-16 12:53:53.286";"1";;;;;;;;;;;;;;;;;;;;;
"alf1601";"1996";;"Windows 8";"Rachel's Experiment (D.T.)";"1.0";"2";"1";"1";"2";"1";"1";"2014-10-16 12:48:06.167";"";"0";"0";"1";"92";"91";"module.training_block3.exec-4430.GoNoGo3";;;;;;;;;;;;;;;;;;;;;;;;;"1250";"2014-10-16 12:53:57.077";"ST_correctStop";"32";"1";"FINISHED";"NONE";"success";"0";"1";"2014-10-16 12:53:55.827";"3";;;;;;;;;;;;;;;;;;;;;
"alf1601";"1996";;"Windows 8";"Rachel's Experiment (D.T.)";"1.0";"2";"1";"1";"2";"1";"1";"2014-10-16 12:48:06.167";"";"0";"0";"1";"93";"92";"module.training_block3.exec-4430.GoNoGo3";;;;;;;;;;;;;;;;;;;;;;;;;"1249";"2014-10-16 12:53:59.619";"ST_correctStop";"2";"0";"FINISHED";"NONE";"success";"0";"1";"2014-10-16 12:53:58.369";"1";;;;;;;;;;;;;;;;;;;;;
"alf1601";"1996";;"Windows 8";"Rachel's Experiment (D.T.)";"1.0";"2";"1";"1";"2";"1";"1";"2014-10-16 12:48:06.167";"";"0";"0";"1";"94";"93";"module.training_block3.exec-4430.GoNoGo3";;;;;;;;;;;;;;;;;;;;;;;;;"1251";"2014-10-16 12:54:02.157";"NST_correctLoc";"16";"1";"FINISHED";"RIGHT";"success";"698";"0";"2014-10-16 12:54:00.906";"2";;;;;;;;;;;;;;;;;;;;;
"alf1601";"1996";;"Windows 8";"Rachel's Experiment (D.T.)";"1.0";"2";"1";"1";"2";"1";"1";"2014-10-16 12:48:06.167";"";"0";"0";"1";"95";"94";"module.training_block3.exec-4430.GoNoGo3";;;;;;;;;;;;;;;;;;;;;;;;;"1250";"2014-10-16 12:54:04.697";"ST_correctStop";"4";"0";"FINISHED";"NONE";"success";"0";"1";"2014-10-16 12:54:03.446";"1";;;;;;;;;;;;;;;;;;;;;
"alf1601";"1996";;"Windows 8";"Rachel's Experiment (D.T.)";"1.0";"2";"1";"1";"2";"1";"1";"2014-10-16 12:48:06.167";"";"0";"0";"1";"96";"95";"module.training_block3.exec-4430.GoNoGo3";;;;;;;;;;;;;;;;;;;;;;;;;"1250";"2014-10-16 12:54:07.240";"NST_correctLoc";"17";"1";"FINISHED";"RIGHT";"success";"649";"0";"2014-10-16 12:54:05.989";"2";;;;;;;;;;;;;;;;;;;;;
"alf1601";"1996";;"Windows 8";"Rachel's Experiment (D.T.)";"1.0";"2";"1";"1";"2";"1";"1";"2014-10-16 12:48:06.167";"";"0";"0";"1";"97";"96";"module.training_block3.exec-4430.GoNoGo3";;;;;;;;;;;;;;;;;;;;;;;;;"1249";"2014-10-16 12:54:09.778";"NST_correctLoc";"11";"0";"FINISHED";"LEFT";"success";"1039";"0";"2014-10-16 12:54:08.528";"2";;;;;;;;;;;;;;;;;;;;;
"alf1601";"1996";;"Windows 8";"Rachel's Experiment (D.T.)";"1.0";"2";"1";"1";"2";"1";"1";"2014-10-16 12:48:06.167";"";"0";"0";"1";"98";"97";"module.training_block3.exec-4430.GoNoGo3";;;;;;;;;;;;;;;;;;;;;;;;;"1250";"2014-10-16 12:54:12.313";"NST_correctLoc";"24";"1";"FINISHED";"RIGHT";"success";"586";"0";"2014-10-16 12:54:11.062";"3";;;;;;;;;;;;;;;;;;;;;
"alf1601";"1996";;"Windows 8";"Rachel's Experiment (D.T.)";"1.0";"2";"1";"1";"2";"1";"1";"2014-10-16 12:48:06.167";"";"0";"0";"1";"99";"98";"module.training_block3.exec-4430.GoNoGo3";;;;;;;;;;;;;;;;;;;;;;;;;"1250";"2014-10-16 12:54:14.849";"NST_correctLoc";"21";"1";"FINISHED";"RIGHT";"success";"521";"0";"2014-10-16 12:54:13.598";"3";;;;;;;;;;;;;;;;;;;;;
"alf1601";"1996";;"Windows 8";"Rachel's Experiment (D.T.)";"1.0";"2";"1";"1";"2";"1";"1";"2014-10-16 12:48:06.167";"";"0";"0";"1";"100";"99";"module.training_block3.exec-4430.GoNoGo3";;;;;;;;;;;;;;;;;;;;;;;;;"1249";"2014-10-16 12:54:17.387";"ST_correctStop";"8";"0";"FINISHED";"NONE";"success";"0";"1";"2014-10-16 12:54:16.136";"1";;;;;;;;;;;;;;;;;;;;;
"alf1601";"1996";;"Windows 8";"Rachel's Experiment (D.T.)";"1.0";"2";"1";"1";"2";"1";"1";"2014-10-16 12:48:06.167";"";"0";"0";"1";"101";"100";"module.training_block3.exec-4430.GoNoGo3";;;;;;;;;;;;;;;;;;;;;;;;;"1250";"2014-10-16 12:54:19.923";"ST_correctStop";"5";"1";"FINISHED";"NONE";"success";"0";"1";"2014-10-16 12:54:18.672";"1";;;;;;;;;;;;;;;;;;;;;
"alf1601";"1996";;"Windows 8";"Rachel's Experiment (D.T.)";"1.0";"2";"1";"1";"2";"1";"1";"2014-10-16 12:48:06.167";"";"0";"0";"1";"102";"101";"module.training_block3.exec-4430.GoNoGo3";;;;;;;;;;;;;;;;;;;;;;;;;"1250";"2014-10-16 12:54:22.461";"NST_correctLoc";"18";"0";"FINISHED";"LEFT";"success";"539";"0";"2014-10-16 12:54:21.210";"3";;;;;;;;;;;;;;;;;;;;;
"alf1601";"1996";;"Windows 8";"Rachel's Experiment (D.T.)";"1.0";"2";"1";"1";"2";"1";"1";"2014-10-16 12:48:06.167";"";"0";"0";"1";"103";"102";"module.training_block3.exec-4430.GoNoGo3";;;;;;;;;;;;;;;;;;;;;;;;;"1250";"2014-10-16 12:54:24.987";"NST_correctLoc";"12";"0";"FINISHED";"LEFT";"success";"580";"0";"2014-10-16 12:54:23.736";"2";;;;;;;;;;;;;;;;;;;;;
"alf1601";"1996";;"Windows 8";"Rachel's Experiment (D.T.)";"1.0";"2";"1";"1";"2";"1";"1";"2014-10-16 12:48:06.167";"";"0";"0";"1";"104";"103";"module.training_block3.exec-4430.GoNoGo3";;;;;;;;;;;;;;;;;;;;;;;;;"1250";"2014-10-16 12:54:27.526";"NST_correctLoc";"9";"0";"FINISHED";"LEFT";"success";"711";"0";"2014-10-16 12:54:26.275";"2";;;;;;;;;;;;;;;;;;;;;
"alf1601";"1996";;"Windows 8";"Rachel's Experiment (D.T.)";"1.0";"2";"1";"1";"2";"1";"1";"2014-10-16 12:48:06.167";"";"0";"0";"1";"105";"104";"module.training_block3.exec-4430.GoNoGo3";;;;;;;;;;;;;;;;;;;;;;;;;"1249";"2014-10-16 12:54:30.068";"ST_correctStop";"28";"0";"FINISHED";"NONE";"success";"0";"1";"2014-10-16 12:54:28.818";"3";;;;;;;;;;;;;;;;;;;;;
"alf1601";"1996";;"Windows 8";"Rachel's Experiment (D.T.)";"1.0";"2";"1";"1";"2";"1";"1";"2014-10-16 12:48:06.167";"";"0";"0";"1";"106";"105";"module.training_block3.exec-4430.GoNoGo3";;;;;;;;;;;;;;;;;;;;;;;;;"1249";"2014-10-16 12:54:32.607";"NST_correctLoc";"19";"0";"FINISHED";"LEFT";"success";"585";"0";"2014-10-16 12:54:31.356";"3";;;;;;;;;;;;;;;;;;;;;
"alf1601";"1996";;"Windows 8";"Rachel's Experiment (D.T.)";"1.0";"2";"1";"1";"2";"1";"1";"2014-10-16 12:48:06.167";"";"0";"0";"1";"107";"106";"module.training_block3.exec-4430.GoNoGo3";;;;;;;;;;;;;;;;;;;;;;;;;"1250";"2014-10-16 12:54:35.146";"NST_correctLoc";"30";"0";"FINISHED";"LEFT";"success";"598";"0";"2014-10-16 12:54:33.896";"3";;;;;;;;;;;;;;;;;;;;;
"alf1601";"1996";;"Windows 8";"Rachel's Experiment (D.T.)";"1.0";"2";"1";"1";"2";"1";"1";"2014-10-16 12:48:06.167";"";"0";"0";"1";"108";"107";"module.training_block3.exec-4430.GoNoGo3";;;;;;;;;;;;;;;;;;;;;;;;;"1250";"2014-10-16 12:54:37.691";"ST_correctStop";"20";"0";"FINISHED";"NONE";"success";"0";"1";"2014-10-16 12:54:36.440";"3";;;;;;;;;;;;;;;;;;;;;
"alf1601";"1996";;"Windows 8";"Rachel's Experiment (D.T.)";"1.0";"2";"1";"1";"2";"1";"1";"2014-10-16 12:48:06.167";"";"0";"0";"1";"109";"108";"module.training_block3.exec-4430.GoNoGo3";;;;;;;;;;;;;;;;;;;;;;;;;"1249";"2014-10-16 12:54:40.227";"NST_correctLoc";"34";"1";"FINISHED";"RIGHT";"success";"509";"0";"2014-10-16 12:54:38.977";"3";;;;;;;;;;;;;;;;;;;;;
"alf1601";"1996";;"Windows 8";"Rachel's Experiment (D.T.)";"1.0";"2";"1";"1";"2";"1";"1";"2014-10-16 12:48:06.167";"";"0";"0";"1";"110";"109";"module.training_block3.exec-4430.GoNoGo3";;;;;;;;;;;;;;;;;;;;;;;;;"1250";"2014-10-16 12:54:42.747";"ST_correctStop";"7";"1";"FINISHED";"NONE";"success";"0";"1";"2014-10-16 12:54:41.496";"1";;;;;;;;;;;;;;;;;;;;;
"alf1601";"1996";;"Windows 8";"Rachel's Experiment (D.T.)";"1.0";"2";"1";"1";"2";"1";"1";"2014-10-16 12:48:06.167";"";"0";"0";"1";"111";"110";"module.training_block3.exec-4430.GoNoGo3";;;;;;;;;;;;;;;;;;;;;;;;;"1249";"2014-10-16 12:54:45.268";"ST_correctStop";"33";"0";"FINISHED";"NONE";"success";"0";"1";"2014-10-16 12:54:44.018";"3";;;;;;;;;;;;;;;;;;;;;
"alf1601";"1996";;"Windows 8";"Rachel's Experiment (D.T.)";"1.0";"2";"1";"1";"2";"1";"1";"2014-10-16 12:48:06.167";"";"0";"0";"1";"112";"111";"module.training_block3.exec-4430.GoNoGo3";;;;;;;;;;;;;;;;;;;;;;;;;"1249";"2014-10-16 12:54:47.813";"NST_correctLoc";"10";"0";"FINISHED";"LEFT";"success";"577";"0";"2014-10-16 12:54:46.562";"2";;;;;;;;;;;;;;;;;;;;;
"alf1601";"1996";;"Windows 8";"Rachel's Experiment (D.T.)";"1.0";"2";"1";"1";"2";"1";"1";"2014-10-16 12:48:06.167";"";"0";"0";"1";"113";"112";"module.training_block3.exec-4430.GoNoGo3";;;;;;;;;;;;;;;;;;;;;;;;;"1251";"2014-10-16 12:54:52.402";"ST_correctStop";"25";"1";"FINISHED";"NONE";"success";"0";"1";"2014-10-16 12:54:51.151";"3";;;;;;;;;;;;;;;;;;;;;
"alf1601";"1996";;"Windows 8";"Rachel's Experiment (D.T.)";"1.0";"2";"1";"1";"2";"1";"1";"2014-10-16 12:48:06.167";"";"0";"0";"1";"114";"113";"module.training_block3.exec-4430.GoNoGo3";;;;;;;;;;;;;;;;;;;;;;;;;"1250";"2014-10-16 12:54:54.943";"NST_miss";"22";"0";"FINISHED";"NONE";"failure";"0";"0";"2014-10-16 12:54:53.693";"3";;;;;;;;;;;;;;;;;;;;;
"alf1601";"1996";;"Windows 8";"Rachel's Experiment (D.T.)";"1.0";"2";"1";"1";"2";"1";"1";"2014-10-16 12:48:06.167";"";"0";"0";"1";"115";"114";"module.training_block3.exec-4430.GoNoGo3";;;;;;;;;;;;;;;;;;;;;;;;;"1249";"2014-10-16 12:54:57.481";"NST_miss";"13";"0";"FINISHED";"NONE";"failure";"0";"0";"2014-10-16 12:54:56.231";"2";;;;;;;;;;;;;;;;;;;;;
"alf1601";"1996";;"Windows 8";"Rachel's Experiment (D.T.)";"1.0";"2";"1";"1";"2";"1";"1";"2014-10-16 12:48:06.167";"";"0";"0";"1";"116";"115";"module.training_block3.exec-4430.GoNoGo3";;;;;;;;;;;;;;;;;;;;;;;;;"1250";"2014-10-16 12:55:00.009";"ST_correctStop";"35";"1";"FINISHED";"NONE";"success";"0";"1";"2014-10-16 12:54:58.758";"3";;;;;;;;;;;;;;;;;;;;;
"alf1601";"1996";;"Windows 8";"Rachel's Experiment (D.T.)";"1.0";"2";"1";"1";"2";"1";"1";"2014-10-16 12:48:06.167";"";"0";"0";"1";"117";"116";"module.training_block3.exec-4430.GoNoGo3";;;;;;;;;;;;;;;;;;;;;;;;;"1250";"2014-10-16 12:55:02.634";"NST_miss";"26";"1";"FINISHED";"NONE";"failure";"0";"0";"2014-10-16 12:55:01.383";"3";;;;;;;;;;;;;;;;;;;;;
"alf1601";"1996";;"Windows 8";"Rachel's Experiment (D.T.)";"1.0";"2";"1";"1";"2";"1";"1";"2014-10-16 12:48:06.167";"";"0";"0";"1";"118";"117";"module.training_block3.exec-4430.GoNoGo3";;;;;;;;;;;;;;;;;;;;;;;;;"1250";"2014-10-16 12:55:05.284";"ST_correctStop";"1";"1";"FINISHED";"NONE";"success";"0";"1";"2014-10-16 12:55:04.033";"1";;;;;;;;;;;;;;;;;;;;;
"alf1601";"1996";;"Windows 8";"Rachel's Experiment (D.T.)";"1.0";"2";"1";"1";"2";"1";"1";"2014-10-16 12:48:06.167";"";"0";"0";"1";"119";"118";"module.training_block3.exec-4430.GoNoGo3";;;;;;;;;;;;;;;;;;;;;;;;;"1250";"2014-10-16 12:55:08.011";"ST_correctStop";"31";"1";"FINISHED";"NONE";"success";"0";"1";"2014-10-16 12:55:06.761";"3";;;;;;;;;;;;;;;;;;;;;
"alf1601";"1996";;"Windows 8";"Rachel's Experiment (D.T.)";"1.0";"2";"1";"1";"2";"1";"1";"2014-10-16 12:48:06.167";"";"0";"0";"1";"120";"119";"module.training_block3.exec-4430.GoNoGo3";;;;;;;;;;;;;;;;;;;;;;;;;"1689";"2014-10-16 12:55:11.176";"NST_miss";"15";"0";"FINISHED";"NONE";"failure";"0";"0";"2014-10-16 12:55:09.487";"2";;;;;;;;;;;;;;;;;;;;;
"alf1601";"1996";;"Windows 8";"Rachel's Experiment (D.T.)";"1.0";"2";"1";"1";"2";"1";"1";"2014-10-16 12:48:06.167";"";"0";"0";"1";"121";"120";"module.training_block3.exec-4430.GoNoGo3";;;;;;;;;;;;;;;;;;;;;;;;;"1249";"2014-10-16 12:55:13.934";"ST_correctStop";"3";"1";"FINISHED";"NONE";"success";"0";"1";"2014-10-16 12:55:12.684";"1";;;;;;;;;;;;;;;;;;;;;
"alf1601";"1996";;"Windows 8";"Rachel's Experiment (D.T.)";"1.0";"2";"1";"1";"2";"1";"1";"2014-10-16 12:48:06.167";"";"0";"0";"1";"122";"121";"module.training_block3.exec-4430.GoNoGo3";;;;;;;;;;;;;;;;;;;;;;;;;"1250";"2014-10-16 12:55:16.666";"ST_correctStop";"23";"0";"FINISHED";"NONE";"success";"0";"1";"2014-10-16 12:55:15.415";"3";;;;;;;;;;;;;;;;;;;;;
"alf1601";"1996";;"Windows 8";"Rachel's Experiment (D.T.)";"1.0";"2";"1";"1";"2";"1";"1";"2014-10-16 12:48:06.167";"";"0";"0";"1";"123";"122";"module.training_block3.exec-4430.GoNoGo3";;;;;;;;;;;;;;;;;;;;;;;;;"1250";"2014-10-16 12:55:19.408";"ST_correctStop";"29";"0";"FINISHED";"NONE";"success";"0";"1";"2014-10-16 12:55:18.157";"3";;;;;;;;;;;;;;;;;;;;;
