"user.name";"user.yearOfBirth";"user.sex";"user.osName";"module.name";"module.version";"module.online.subject.code";"module.online.study.id";"module.online.module.nr";"module.online.group.nr";"session.id";"session.index";"session.startTime";"session.endTime";"session.completed";"session.node-8638.DevalQorder";"session.node-8901.conditionType";"trial.id";"trial.index";"trial.name";"trial.deval1.durationTime";"trial.deval1.endTime";"trial.deval1.icon";"trial.deval1.Resp_Attractive";"trial.deval1.Resp_Eat";"trial.deval1.Resp_Taste";"trial.deval1.RT_Attractive";"trial.deval1.RT_Eat";"trial.deval1.RT_Taste";"trial.deval1.startTime";"trial.deval1.stimulus type";"trial.devalPractice.durationTime";"trial.devalPractice.endTime";"trial.devalPractice.icon";"trial.devalPractice.Resp_Attractive";"trial.devalPractice.Resp_Eat";"trial.devalPractice.Resp_Taste";"trial.devalPractice.RT_Attractive";"trial.devalPractice.RT_Eat";"trial.devalPractice.RT_Taste";"trial.devalPractice.startTime";"trial.devalPractice.stimulus type";"trial.GoNoGo1.durationTime";"trial.GoNoGo1.endTime";"trial.GoNoGo1.Error Type";"trial.GoNoGo1.icon";"trial.GoNoGo1.location";"trial.GoNoGo1.outcome";"trial.GoNoGo1.response";"trial.GoNoGo1.result";"trial.GoNoGo1.RT";"trial.GoNoGo1.signal";"trial.GoNoGo1.startTime";"trial.GoNoGo1.stimulus type";"trial.GoNoGo2.durationTime";"trial.GoNoGo2.endTime";"trial.GoNoGo2.Error Type";"trial.GoNoGo2.icon";"trial.GoNoGo2.location";"trial.GoNoGo2.outcome";"trial.GoNoGo2.response";"trial.GoNoGo2.result";"trial.GoNoGo2.RT";"trial.GoNoGo2.signal";"trial.GoNoGo2.startTime";"trial.GoNoGo2.stimulus type";"trial.GoNoGo3.durationTime";"trial.GoNoGo3.endTime";"trial.GoNoGo3.Error Type";"trial.GoNoGo3.icon";"trial.GoNoGo3.location";"trial.GoNoGo3.outcome";"trial.GoNoGo3.response";"trial.GoNoGo3.result";"trial.GoNoGo3.RT";"trial.GoNoGo3.signal";"trial.GoNoGo3.startTime";"trial.GoNoGo3.stimulus type";"trial.GoNoGo4.durationTime";"trial.GoNoGo4.endTime";"trial.GoNoGo4.Error Type";"trial.GoNoGo4.icon";"trial.GoNoGo4.location";"trial.GoNoGo4.outcome";"trial.GoNoGo4.response";"trial.GoNoGo4.result";"trial.GoNoGo4.RT";"trial.GoNoGo4.signal";"trial.GoNoGo4.startTime";"trial.GoNoGo4.stimulus type";"trial.GoNoGo_Practice.durationTime";"trial.GoNoGo_Practice.endTime";"trial.GoNoGo_Practice.icon";"trial.GoNoGo_Practice.location";"trial.GoNoGo_Practice.outcome";"trial.GoNoGo_Practice.response";"trial.GoNoGo_Practice.result";"trial.GoNoGo_Practice.RT";"trial.GoNoGo_Practice.signal";"trial.GoNoGo_Practice.startTime";"trial.GoNoGo_Practice.stimulus type";"trial.GoNoGo_Tutorial.durationTime";"trial.GoNoGo_Tutorial.endTime";"trial.GoNoGo_Tutorial.icon";"trial.GoNoGo_Tutorial.location";"trial.GoNoGo_Tutorial.outcome";"trial.GoNoGo_Tutorial.response";"trial.GoNoGo_Tutorial.result";"trial.GoNoGo_Tutorial.RT";"trial.GoNoGo_Tutorial.signal";"trial.GoNoGo_Tutorial.startTime"
"c1210535";;;"Windows 7";"Rachel's Experiment (D.T.)";"1.0";"2";"1";"1";"2";"1";"1";"2014-10-07 10:02:31.055";"2014-10-07 10:15:00.621";"1";"0";"1";"1";"0";"module.GoNoGotutorial.exec-1061.GoNoGo_Tutorial";;;;;;;;;;;;;;;;;;;;;;;;;;;;;;;;;;;;;;;;;;;;;;;;;;;;;;;;;;;;;;;;;;;;;;;;;;;;;;;;;;"3997";"2014-10-07 10:03:43.096";"leftResponse";"0";"FINISHED";"LEFT";"success";"853";"0";"2014-10-07 10:03:39.087"
"c1210535";;;"Windows 7";"Rachel's Experiment (D.T.)";"1.0";"2";"1";"1";"2";"1";"1";"2014-10-07 10:02:31.055";"2014-10-07 10:15:00.621";"1";"0";"1";"2";"1";"module.GoNoGotutorial.exec-1061.GoNoGo_Tutorial";;;;;;;;;;;;;;;;;;;;;;;;;;;;;;;;;;;;;;;;;;;;;;;;;;;;;;;;;;;;;;;;;;;;;;;;;;;;;;;;;;"4003";"2014-10-07 10:03:48.400";"rightResponse";"1";"FINISHED";"RIGHT";"success";"372";"0";"2014-10-07 10:03:44.391"
"c1210535";;;"Windows 7";"Rachel's Experiment (D.T.)";"1.0";"2";"1";"1";"2";"1";"1";"2014-10-07 10:02:31.055";"2014-10-07 10:15:00.621";"1";"0";"1";"3";"2";"module.GoNoGotutorial.exec-1061.GoNoGo_Tutorial";;;;;;;;;;;;;;;;;;;;;;;;;;;;;;;;;;;;;;;;;;;;;;;;;;;;;;;;;;;;;;;;;;;;;;;;;;;;;;;;;;"4003";"2014-10-07 10:03:53.704";"signalResponse";"0";"FINISHED";"NONE";"success";"0";"1";"2014-10-07 10:03:49.695"
"c1210535";;;"Windows 7";"Rachel's Experiment (D.T.)";"1.0";"2";"1";"1";"2";"1";"1";"2014-10-07 10:02:31.055";"2014-10-07 10:15:00.621";"1";"0";"1";"4";"3";"module.GoNoGopractice.exec-7090.GoNoGo_Practice";;;;;;;;;;;;;;;;;;;;;;;;;;;;;;;;;;;;;;;;;;;;;;;;;;;;;;;;;;;;;;;;;;;;;;;"1959";"2014-10-07 10:04:00.365";"18";"0";"FINISHED";"LEFT";"success";"578";"0";"2014-10-07 10:03:58.399";"3";;;;;;;;;;
"c1210535";;;"Windows 7";"Rachel's Experiment (D.T.)";"1.0";"2";"1";"1";"2";"1";"1";"2014-10-07 10:02:31.055";"2014-10-07 10:15:00.621";"1";"0";"1";"5";"4";"module.GoNoGopractice.exec-7090.GoNoGo_Practice";;;;;;;;;;;;;;;;;;;;;;;;;;;;;;;;;;;;;;;;;;;;;;;;;;;;;;;;;;;;;;;;;;;;;;;"1959";"2014-10-07 10:04:03.610";"21";"1";"FINISHED";"RIGHT";"success";"470";"0";"2014-10-07 10:04:01.644";"3";;;;;;;;;;
"c1210535";;;"Windows 7";"Rachel's Experiment (D.T.)";"1.0";"2";"1";"1";"2";"1";"1";"2014-10-07 10:02:31.055";"2014-10-07 10:15:00.621";"1";"0";"1";"6";"5";"module.GoNoGopractice.exec-7090.GoNoGo_Practice";;;;;;;;;;;;;;;;;;;;;;;;;;;;;;;;;;;;;;;;;;;;;;;;;;;;;;;;;;;;;;;;;;;;;;;"1962";"2014-10-07 10:04:06.870";"14";"1";"FINISHED";"NONE";"success";"0";"1";"2014-10-07 10:04:04.905";"2";;;;;;;;;;
"c1210535";;;"Windows 7";"Rachel's Experiment (D.T.)";"1.0";"2";"1";"1";"2";"1";"1";"2014-10-07 10:02:31.055";"2014-10-07 10:15:00.621";"1";"0";"1";"7";"6";"module.GoNoGopractice.exec-7090.GoNoGo_Practice";;;;;;;;;;;;;;;;;;;;;;;;;;;;;;;;;;;;;;;;;;;;;;;;;;;;;;;;;;;;;;;;;;;;;;;"1959";"2014-10-07 10:04:10.115";"26";"0";"FINISHED";"LEFT";"success";"469";"0";"2014-10-07 10:04:08.149";"3";;;;;;;;;;
"c1210535";;;"Windows 7";"Rachel's Experiment (D.T.)";"1.0";"2";"1";"1";"2";"1";"1";"2014-10-07 10:02:31.055";"2014-10-07 10:15:00.621";"1";"0";"1";"8";"7";"module.GoNoGopractice.exec-7090.GoNoGo_Practice";;;;;;;;;;;;;;;;;;;;;;;;;;;;;;;;;;;;;;;;;;;;;;;;;;;;;;;;;;;;;;;;;;;;;;;"1959";"2014-10-07 10:04:13.360";"2";"0";"FINISHED";"LEFT";"success";"504";"0";"2014-10-07 10:04:11.394";"1";;;;;;;;;;
"c1210535";;;"Windows 7";"Rachel's Experiment (D.T.)";"1.0";"2";"1";"1";"2";"1";"1";"2014-10-07 10:02:31.055";"2014-10-07 10:15:00.621";"1";"0";"1";"9";"8";"module.GoNoGopractice.exec-7090.GoNoGo_Practice";;;;;;;;;;;;;;;;;;;;;;;;;;;;;;;;;;;;;;;;;;;;;;;;;;;;;;;;;;;;;;;;;;;;;;;"1960";"2014-10-07 10:04:16.605";"30";"0";"FINISHED";"LEFT";"failure";"492";"1";"2014-10-07 10:04:14.639";"3";;;;;;;;;;
"c1210535";;;"Windows 7";"Rachel's Experiment (D.T.)";"1.0";"2";"1";"1";"2";"1";"1";"2014-10-07 10:02:31.055";"2014-10-07 10:15:00.621";"1";"0";"1";"10";"9";"module.GoNoGopractice.exec-7090.GoNoGo_Practice";;;;;;;;;;;;;;;;;;;;;;;;;;;;;;;;;;;;;;;;;;;;;;;;;;;;;;;;;;;;;;;;;;;;;;;"1959";"2014-10-07 10:04:19.849";"6";"1";"FINISHED";"NONE";"success";"0";"1";"2014-10-07 10:04:17.884";"1";;;;;;;;;;
"c1210535";;;"Windows 7";"Rachel's Experiment (D.T.)";"1.0";"2";"1";"1";"2";"1";"1";"2014-10-07 10:02:31.055";"2014-10-07 10:15:00.621";"1";"0";"1";"11";"10";"module.GoNoGopractice.exec-7090.GoNoGo_Practice";;;;;;;;;;;;;;;;;;;;;;;;;;;;;;;;;;;;;;;;;;;;;;;;;;;;;;;;;;;;;;;;;;;;;;;"1960";"2014-10-07 10:04:23.094";"34";"0";"FINISHED";"LEFT";"success";"699";"0";"2014-10-07 10:04:21.129";"3";;;;;;;;;;
"c1210535";;;"Windows 7";"Rachel's Experiment (D.T.)";"1.0";"2";"1";"1";"2";"1";"1";"2014-10-07 10:02:31.055";"2014-10-07 10:15:00.621";"1";"0";"1";"12";"11";"module.GoNoGopractice.exec-7090.GoNoGo_Practice";;;;;;;;;;;;;;;;;;;;;;;;;;;;;;;;;;;;;;;;;;;;;;;;;;;;;;;;;;;;;;;;;;;;;;;"1959";"2014-10-07 10:04:26.339";"23";"1";"FINISHED";"RIGHT";"success";"549";"0";"2014-10-07 10:04:24.373";"3";;;;;;;;;;
"c1210535";;;"Windows 7";"Rachel's Experiment (D.T.)";"1.0";"2";"1";"1";"2";"1";"1";"2014-10-07 10:02:31.055";"2014-10-07 10:15:00.621";"1";"0";"1";"13";"12";"module.GoNoGopractice.exec-7090.GoNoGo_Practice";;;;;;;;;;;;;;;;;;;;;;;;;;;;;;;;;;;;;;;;;;;;;;;;;;;;;;;;;;;;;;;;;;;;;;;"1959";"2014-10-07 10:04:29.584";"13";"0";"FINISHED";"NONE";"success";"0";"1";"2014-10-07 10:04:27.618";"2";;;;;;;;;;
"c1210535";;;"Windows 7";"Rachel's Experiment (D.T.)";"1.0";"2";"1";"1";"2";"1";"1";"2014-10-07 10:02:31.055";"2014-10-07 10:15:00.621";"1";"0";"1";"14";"13";"module.GoNoGopractice.exec-7090.GoNoGo_Practice";;;;;;;;;;;;;;;;;;;;;;;;;;;;;;;;;;;;;;;;;;;;;;;;;;;;;;;;;;;;;;;;;;;;;;;"1960";"2014-10-07 10:04:32.829";"3";"1";"FINISHED";"RIGHT";"success";"596";"0";"2014-10-07 10:04:30.863";"1";;;;;;;;;;
"c1210535";;;"Windows 7";"Rachel's Experiment (D.T.)";"1.0";"2";"1";"1";"2";"1";"1";"2014-10-07 10:02:31.055";"2014-10-07 10:15:00.621";"1";"0";"1";"15";"14";"module.GoNoGopractice.exec-7090.GoNoGo_Practice";;;;;;;;;;;;;;;;;;;;;;;;;;;;;;;;;;;;;;;;;;;;;;;;;;;;;;;;;;;;;;;;;;;;;;;"1959";"2014-10-07 10:04:36.073";"27";"1";"FINISHED";"NONE";"success";"0";"1";"2014-10-07 10:04:34.108";"3";;;;;;;;;;
"c1210535";;;"Windows 7";"Rachel's Experiment (D.T.)";"1.0";"2";"1";"1";"2";"1";"1";"2014-10-07 10:02:31.055";"2014-10-07 10:15:00.621";"1";"0";"1";"16";"15";"module.training_block1.exec-9052.GoNoGo1";;;;;;;;;;;;;;;;;;;;;;;"1257";"2014-10-07 10:04:43.265";"NST_correctLoc";"25";"1";"FINISHED";"RIGHT";"success";"544";"0";"2014-10-07 10:04:42.002";"3";;;;;;;;;;;;;;;;;;;;;;;;;;;;;;;;;;;;;;;;;;;;;;;;;;;;;;;;;
"c1210535";;;"Windows 7";"Rachel's Experiment (D.T.)";"1.0";"2";"1";"1";"2";"1";"1";"2014-10-07 10:02:31.055";"2014-10-07 10:15:00.621";"1";"0";"1";"17";"16";"module.training_block1.exec-9052.GoNoGo1";;;;;;;;;;;;;;;;;;;;;;;"1257";"2014-10-07 10:04:45.808";"ST_correctStop";"7";"1";"FINISHED";"NONE";"success";"0";"1";"2014-10-07 10:04:44.544";"1";;;;;;;;;;;;;;;;;;;;;;;;;;;;;;;;;;;;;;;;;;;;;;;;;;;;;;;;;
"c1210535";;;"Windows 7";"Rachel's Experiment (D.T.)";"1.0";"2";"1";"1";"2";"1";"1";"2014-10-07 10:02:31.055";"2014-10-07 10:15:00.621";"1";"0";"1";"18";"17";"module.training_block1.exec-9052.GoNoGo1";;;;;;;;;;;;;;;;;;;;;;;"1252";"2014-10-07 10:04:48.351";"NST_correctLoc";"35";"1";"FINISHED";"RIGHT";"success";"454";"0";"2014-10-07 10:04:47.087";"3";;;;;;;;;;;;;;;;;;;;;;;;;;;;;;;;;;;;;;;;;;;;;;;;;;;;;;;;;
"c1210535";;;"Windows 7";"Rachel's Experiment (D.T.)";"1.0";"2";"1";"1";"2";"1";"1";"2014-10-07 10:02:31.055";"2014-10-07 10:15:00.621";"1";"0";"1";"19";"18";"module.training_block1.exec-9052.GoNoGo1";;;;;;;;;;;;;;;;;;;;;;;"1257";"2014-10-07 10:04:50.894";"NST_correctLoc";"32";"1";"FINISHED";"RIGHT";"success";"580";"0";"2014-10-07 10:04:49.630";"3";;;;;;;;;;;;;;;;;;;;;;;;;;;;;;;;;;;;;;;;;;;;;;;;;;;;;;;;;
"c1210535";;;"Windows 7";"Rachel's Experiment (D.T.)";"1.0";"2";"1";"1";"2";"1";"1";"2014-10-07 10:02:31.055";"2014-10-07 10:15:00.621";"1";"0";"1";"20";"19";"module.training_block1.exec-9052.GoNoGo1";;;;;;;;;;;;;;;;;;;;;;;"1258";"2014-10-07 10:04:53.436";"NST_correctLoc";"12";"1";"FINISHED";"RIGHT";"success";"446";"0";"2014-10-07 10:04:52.173";"2";;;;;;;;;;;;;;;;;;;;;;;;;;;;;;;;;;;;;;;;;;;;;;;;;;;;;;;;;
"c1210535";;;"Windows 7";"Rachel's Experiment (D.T.)";"1.0";"2";"1";"1";"2";"1";"1";"2014-10-07 10:02:31.055";"2014-10-07 10:15:00.621";"1";"0";"1";"21";"20";"module.training_block1.exec-9052.GoNoGo1";;;;;;;;;;;;;;;;;;;;;;;"1258";"2014-10-07 10:04:55.979";"ST_correctStop";"31";"0";"FINISHED";"NONE";"success";"0";"1";"2014-10-07 10:04:54.716";"3";;;;;;;;;;;;;;;;;;;;;;;;;;;;;;;;;;;;;;;;;;;;;;;;;;;;;;;;;
"c1210535";;;"Windows 7";"Rachel's Experiment (D.T.)";"1.0";"2";"1";"1";"2";"1";"1";"2014-10-07 10:02:31.055";"2014-10-07 10:15:00.621";"1";"0";"1";"22";"21";"module.training_block1.exec-9052.GoNoGo1";;;;;;;;;;;;;;;;;;;;;;;"1258";"2014-10-07 10:04:58.522";"NST_correctLoc";"16";"0";"FINISHED";"LEFT";"success";"408";"0";"2014-10-07 10:04:57.258";"2";;;;;;;;;;;;;;;;;;;;;;;;;;;;;;;;;;;;;;;;;;;;;;;;;;;;;;;;;
"c1210535";;;"Windows 7";"Rachel's Experiment (D.T.)";"1.0";"2";"1";"1";"2";"1";"1";"2014-10-07 10:02:31.055";"2014-10-07 10:15:00.621";"1";"0";"1";"23";"22";"module.training_block1.exec-9052.GoNoGo1";;;;;;;;;;;;;;;;;;;;;;;"1258";"2014-10-07 10:05:01.065";"NST_correctLoc";"10";"1";"FINISHED";"RIGHT";"success";"425";"0";"2014-10-07 10:04:59.801";"2";;;;;;;;;;;;;;;;;;;;;;;;;;;;;;;;;;;;;;;;;;;;;;;;;;;;;;;;;
"c1210535";;;"Windows 7";"Rachel's Experiment (D.T.)";"1.0";"2";"1";"1";"2";"1";"1";"2014-10-07 10:02:31.055";"2014-10-07 10:15:00.621";"1";"0";"1";"24";"23";"module.training_block1.exec-9052.GoNoGo1";;;;;;;;;;;;;;;;;;;;;;;"1261";"2014-10-07 10:05:03.608";"NST_correctLoc";"18";"1";"FINISHED";"RIGHT";"success";"454";"0";"2014-10-07 10:05:02.344";"3";;;;;;;;;;;;;;;;;;;;;;;;;;;;;;;;;;;;;;;;;;;;;;;;;;;;;;;;;
"c1210535";;;"Windows 7";"Rachel's Experiment (D.T.)";"1.0";"2";"1";"1";"2";"1";"1";"2014-10-07 10:02:31.055";"2014-10-07 10:15:00.621";"1";"0";"1";"25";"24";"module.training_block1.exec-9052.GoNoGo1";;;;;;;;;;;;;;;;;;;;;;;"1258";"2014-10-07 10:05:06.150";"ST_correctStop";"22";"1";"FINISHED";"NONE";"success";"0";"1";"2014-10-07 10:05:04.887";"3";;;;;;;;;;;;;;;;;;;;;;;;;;;;;;;;;;;;;;;;;;;;;;;;;;;;;;;;;
"c1210535";;;"Windows 7";"Rachel's Experiment (D.T.)";"1.0";"2";"1";"1";"2";"1";"1";"2014-10-07 10:02:31.055";"2014-10-07 10:15:00.621";"1";"0";"1";"26";"25";"module.training_block1.exec-9052.GoNoGo1";;;;;;;;;;;;;;;;;;;;;;;"1257";"2014-10-07 10:05:08.693";"NST_correctLoc";"11";"0";"FINISHED";"LEFT";"success";"356";"0";"2014-10-07 10:05:07.430";"2";;;;;;;;;;;;;;;;;;;;;;;;;;;;;;;;;;;;;;;;;;;;;;;;;;;;;;;;;
"c1210535";;;"Windows 7";"Rachel's Experiment (D.T.)";"1.0";"2";"1";"1";"2";"1";"1";"2014-10-07 10:02:31.055";"2014-10-07 10:15:00.621";"1";"0";"1";"27";"26";"module.training_block1.exec-9052.GoNoGo1";;;;;;;;;;;;;;;;;;;;;;;"1261";"2014-10-07 10:05:11.236";"ST_correctStop";"34";"0";"FINISHED";"NONE";"success";"0";"1";"2014-10-07 10:05:09.972";"3";;;;;;;;;;;;;;;;;;;;;;;;;;;;;;;;;;;;;;;;;;;;;;;;;;;;;;;;;
"c1210535";;;"Windows 7";"Rachel's Experiment (D.T.)";"1.0";"2";"1";"1";"2";"1";"1";"2014-10-07 10:02:31.055";"2014-10-07 10:15:00.621";"1";"0";"1";"28";"27";"module.training_block1.exec-9052.GoNoGo1";;;;;;;;;;;;;;;;;;;;;;;"1258";"2014-10-07 10:05:13.779";"ST_correctStop";"5";"0";"FINISHED";"NONE";"success";"0";"1";"2014-10-07 10:05:12.515";"1";;;;;;;;;;;;;;;;;;;;;;;;;;;;;;;;;;;;;;;;;;;;;;;;;;;;;;;;;
"c1210535";;;"Windows 7";"Rachel's Experiment (D.T.)";"1.0";"2";"1";"1";"2";"1";"1";"2014-10-07 10:02:31.055";"2014-10-07 10:15:00.621";"1";"0";"1";"29";"28";"module.training_block1.exec-9052.GoNoGo1";;;;;;;;;;;;;;;;;;;;;;;"1258";"2014-10-07 10:05:16.322";"ST_correctStop";"0";"0";"FINISHED";"NONE";"success";"0";"1";"2014-10-07 10:05:15.058";"1";;;;;;;;;;;;;;;;;;;;;;;;;;;;;;;;;;;;;;;;;;;;;;;;;;;;;;;;;
"c1210535";;;"Windows 7";"Rachel's Experiment (D.T.)";"1.0";"2";"1";"1";"2";"1";"1";"2014-10-07 10:02:31.055";"2014-10-07 10:15:00.621";"1";"0";"1";"30";"29";"module.training_block1.exec-9052.GoNoGo1";;;;;;;;;;;;;;;;;;;;;;;"1261";"2014-10-07 10:05:18.864";"ST_correctStop";"27";"1";"FINISHED";"NONE";"success";"0";"1";"2014-10-07 10:05:17.601";"3";;;;;;;;;;;;;;;;;;;;;;;;;;;;;;;;;;;;;;;;;;;;;;;;;;;;;;;;;
"c1210535";;;"Windows 7";"Rachel's Experiment (D.T.)";"1.0";"2";"1";"1";"2";"1";"1";"2014-10-07 10:02:31.055";"2014-10-07 10:15:00.621";"1";"0";"1";"31";"30";"module.training_block1.exec-9052.GoNoGo1";;;;;;;;;;;;;;;;;;;;;;;"1258";"2014-10-07 10:05:21.407";"ST_correctStop";"1";"1";"FINISHED";"NONE";"success";"0";"1";"2014-10-07 10:05:20.144";"1";;;;;;;;;;;;;;;;;;;;;;;;;;;;;;;;;;;;;;;;;;;;;;;;;;;;;;;;;
"c1210535";;;"Windows 7";"Rachel's Experiment (D.T.)";"1.0";"2";"1";"1";"2";"1";"1";"2014-10-07 10:02:31.055";"2014-10-07 10:15:00.621";"1";"0";"1";"32";"31";"module.training_block1.exec-9052.GoNoGo1";;;;;;;;;;;;;;;;;;;;;;;"1258";"2014-10-07 10:05:23.950";"NST_correctLoc";"33";"1";"FINISHED";"RIGHT";"success";"428";"0";"2014-10-07 10:05:22.686";"3";;;;;;;;;;;;;;;;;;;;;;;;;;;;;;;;;;;;;;;;;;;;;;;;;;;;;;;;;
"c1210535";;;"Windows 7";"Rachel's Experiment (D.T.)";"1.0";"2";"1";"1";"2";"1";"1";"2014-10-07 10:02:31.055";"2014-10-07 10:15:00.621";"1";"0";"1";"33";"32";"module.training_block1.exec-9052.GoNoGo1";;;;;;;;;;;;;;;;;;;;;;;"1256";"2014-10-07 10:05:26.602";"ST_correctStop";"26";"1";"FINISHED";"NONE";"success";"0";"1";"2014-10-07 10:05:25.338";"3";;;;;;;;;;;;;;;;;;;;;;;;;;;;;;;;;;;;;;;;;;;;;;;;;;;;;;;;;
"c1210535";;;"Windows 7";"Rachel's Experiment (D.T.)";"1.0";"2";"1";"1";"2";"1";"1";"2014-10-07 10:02:31.055";"2014-10-07 10:15:00.621";"1";"0";"1";"34";"33";"module.training_block1.exec-9052.GoNoGo1";;;;;;;;;;;;;;;;;;;;;;;"1258";"2014-10-07 10:05:29.145";"NST_correctLoc";"24";"0";"FINISHED";"LEFT";"success";"433";"0";"2014-10-07 10:05:27.881";"3";;;;;;;;;;;;;;;;;;;;;;;;;;;;;;;;;;;;;;;;;;;;;;;;;;;;;;;;;
"c1210535";;;"Windows 7";"Rachel's Experiment (D.T.)";"1.0";"2";"1";"1";"2";"1";"1";"2014-10-07 10:02:31.055";"2014-10-07 10:15:00.621";"1";"0";"1";"35";"34";"module.training_block1.exec-9052.GoNoGo1";;;;;;;;;;;;;;;;;;;;;;;"1258";"2014-10-07 10:05:31.688";"ST_correctStop";"19";"0";"FINISHED";"NONE";"success";"0";"1";"2014-10-07 10:05:30.424";"3";;;;;;;;;;;;;;;;;;;;;;;;;;;;;;;;;;;;;;;;;;;;;;;;;;;;;;;;;
"c1210535";;;"Windows 7";"Rachel's Experiment (D.T.)";"1.0";"2";"1";"1";"2";"1";"1";"2014-10-07 10:02:31.055";"2014-10-07 10:15:00.621";"1";"0";"1";"36";"35";"module.training_block1.exec-9052.GoNoGo1";;;;;;;;;;;;;;;;;;;;;;;"1257";"2014-10-07 10:05:34.230";"ST_correctStop";"8";"1";"FINISHED";"NONE";"success";"0";"1";"2014-10-07 10:05:32.967";"1";;;;;;;;;;;;;;;;;;;;;;;;;;;;;;;;;;;;;;;;;;;;;;;;;;;;;;;;;
"c1210535";;;"Windows 7";"Rachel's Experiment (D.T.)";"1.0";"2";"1";"1";"2";"1";"1";"2014-10-07 10:02:31.055";"2014-10-07 10:15:00.621";"1";"0";"1";"37";"36";"module.training_block1.exec-9052.GoNoGo1";;;;;;;;;;;;;;;;;;;;;;;"1257";"2014-10-07 10:05:36.773";"NST_correctLoc";"14";"0";"FINISHED";"LEFT";"success";"428";"0";"2014-10-07 10:05:35.510";"2";;;;;;;;;;;;;;;;;;;;;;;;;;;;;;;;;;;;;;;;;;;;;;;;;;;;;;;;;
"c1210535";;;"Windows 7";"Rachel's Experiment (D.T.)";"1.0";"2";"1";"1";"2";"1";"1";"2014-10-07 10:02:31.055";"2014-10-07 10:15:00.621";"1";"0";"1";"38";"37";"module.training_block1.exec-9052.GoNoGo1";;;;;;;;;;;;;;;;;;;;;;;"1256";"2014-10-07 10:05:39.316";"NST_correctLoc";"21";"0";"FINISHED";"LEFT";"success";"413";"0";"2014-10-07 10:05:38.052";"3";;;;;;;;;;;;;;;;;;;;;;;;;;;;;;;;;;;;;;;;;;;;;;;;;;;;;;;;;
"c1210535";;;"Windows 7";"Rachel's Experiment (D.T.)";"1.0";"2";"1";"1";"2";"1";"1";"2014-10-07 10:02:31.055";"2014-10-07 10:15:00.621";"1";"0";"1";"39";"38";"module.training_block1.exec-9052.GoNoGo1";;;;;;;;;;;;;;;;;;;;;;;"1258";"2014-10-07 10:05:41.859";"ST_correctStop";"30";"0";"FINISHED";"NONE";"success";"0";"1";"2014-10-07 10:05:40.595";"3";;;;;;;;;;;;;;;;;;;;;;;;;;;;;;;;;;;;;;;;;;;;;;;;;;;;;;;;;
"c1210535";;;"Windows 7";"Rachel's Experiment (D.T.)";"1.0";"2";"1";"1";"2";"1";"1";"2014-10-07 10:02:31.055";"2014-10-07 10:15:00.621";"1";"0";"1";"40";"39";"module.training_block1.exec-9052.GoNoGo1";;;;;;;;;;;;;;;;;;;;;;;"1257";"2014-10-07 10:05:44.402";"ST_correctStop";"6";"1";"FINISHED";"NONE";"success";"0";"1";"2014-10-07 10:05:43.138";"1";;;;;;;;;;;;;;;;;;;;;;;;;;;;;;;;;;;;;;;;;;;;;;;;;;;;;;;;;
"c1210535";;;"Windows 7";"Rachel's Experiment (D.T.)";"1.0";"2";"1";"1";"2";"1";"1";"2014-10-07 10:02:31.055";"2014-10-07 10:15:00.621";"1";"0";"1";"41";"40";"module.training_block1.exec-9052.GoNoGo1";;;;;;;;;;;;;;;;;;;;;;;"1258";"2014-10-07 10:05:46.944";"ST_correctStop";"28";"1";"FINISHED";"NONE";"success";"0";"1";"2014-10-07 10:05:45.681";"3";;;;;;;;;;;;;;;;;;;;;;;;;;;;;;;;;;;;;;;;;;;;;;;;;;;;;;;;;
"c1210535";;;"Windows 7";"Rachel's Experiment (D.T.)";"1.0";"2";"1";"1";"2";"1";"1";"2014-10-07 10:02:31.055";"2014-10-07 10:15:00.621";"1";"0";"1";"42";"41";"module.training_block1.exec-9052.GoNoGo1";;;;;;;;;;;;;;;;;;;;;;;"1256";"2014-10-07 10:05:49.487";"ST_correctStop";"4";"0";"FINISHED";"NONE";"success";"0";"1";"2014-10-07 10:05:48.224";"1";;;;;;;;;;;;;;;;;;;;;;;;;;;;;;;;;;;;;;;;;;;;;;;;;;;;;;;;;
"c1210535";;;"Windows 7";"Rachel's Experiment (D.T.)";"1.0";"2";"1";"1";"2";"1";"1";"2014-10-07 10:02:31.055";"2014-10-07 10:15:00.621";"1";"0";"1";"43";"42";"module.training_block1.exec-9052.GoNoGo1";;;;;;;;;;;;;;;;;;;;;;;"1258";"2014-10-07 10:05:52.030";"ST_correctStop";"29";"1";"FINISHED";"NONE";"success";"0";"1";"2014-10-07 10:05:50.766";"3";;;;;;;;;;;;;;;;;;;;;;;;;;;;;;;;;;;;;;;;;;;;;;;;;;;;;;;;;
"c1210535";;;"Windows 7";"Rachel's Experiment (D.T.)";"1.0";"2";"1";"1";"2";"1";"1";"2014-10-07 10:02:31.055";"2014-10-07 10:15:00.621";"1";"0";"1";"44";"43";"module.training_block1.exec-9052.GoNoGo1";;;;;;;;;;;;;;;;;;;;;;;"1258";"2014-10-07 10:05:54.573";"NST_correctLoc";"20";"1";"FINISHED";"RIGHT";"success";"613";"0";"2014-10-07 10:05:53.309";"3";;;;;;;;;;;;;;;;;;;;;;;;;;;;;;;;;;;;;;;;;;;;;;;;;;;;;;;;;
"c1210535";;;"Windows 7";"Rachel's Experiment (D.T.)";"1.0";"2";"1";"1";"2";"1";"1";"2014-10-07 10:02:31.055";"2014-10-07 10:15:00.621";"1";"0";"1";"45";"44";"module.training_block1.exec-9052.GoNoGo1";;;;;;;;;;;;;;;;;;;;;;;"1257";"2014-10-07 10:05:57.116";"NST_correctLoc";"15";"1";"FINISHED";"RIGHT";"success";"462";"0";"2014-10-07 10:05:55.852";"2";;;;;;;;;;;;;;;;;;;;;;;;;;;;;;;;;;;;;;;;;;;;;;;;;;;;;;;;;
"c1210535";;;"Windows 7";"Rachel's Experiment (D.T.)";"1.0";"2";"1";"1";"2";"1";"1";"2014-10-07 10:02:31.055";"2014-10-07 10:15:00.621";"1";"0";"1";"46";"45";"module.training_block1.exec-9052.GoNoGo1";;;;;;;;;;;;;;;;;;;;;;;"1258";"2014-10-07 10:05:59.658";"NST_correctLoc";"9";"0";"FINISHED";"LEFT";"success";"447";"0";"2014-10-07 10:05:58.395";"2";;;;;;;;;;;;;;;;;;;;;;;;;;;;;;;;;;;;;;;;;;;;;;;;;;;;;;;;;
"c1210535";;;"Windows 7";"Rachel's Experiment (D.T.)";"1.0";"2";"1";"1";"2";"1";"1";"2014-10-07 10:02:31.055";"2014-10-07 10:15:00.621";"1";"0";"1";"47";"46";"module.training_block1.exec-9052.GoNoGo1";;;;;;;;;;;;;;;;;;;;;;;"1258";"2014-10-07 10:06:02.201";"ST_correctStop";"3";"1";"FINISHED";"NONE";"success";"0";"1";"2014-10-07 10:06:00.938";"1";;;;;;;;;;;;;;;;;;;;;;;;;;;;;;;;;;;;;;;;;;;;;;;;;;;;;;;;;
"c1210535";;;"Windows 7";"Rachel's Experiment (D.T.)";"1.0";"2";"1";"1";"2";"1";"1";"2014-10-07 10:02:31.055";"2014-10-07 10:15:00.621";"1";"0";"1";"48";"47";"module.training_block1.exec-9052.GoNoGo1";;;;;;;;;;;;;;;;;;;;;;;"1257";"2014-10-07 10:06:04.744";"NST_correctLoc";"23";"0";"FINISHED";"LEFT";"success";"521";"0";"2014-10-07 10:06:03.480";"3";;;;;;;;;;;;;;;;;;;;;;;;;;;;;;;;;;;;;;;;;;;;;;;;;;;;;;;;;
"c1210535";;;"Windows 7";"Rachel's Experiment (D.T.)";"1.0";"2";"1";"1";"2";"1";"1";"2014-10-07 10:02:31.055";"2014-10-07 10:15:00.621";"1";"0";"1";"49";"48";"module.training_block1.exec-9052.GoNoGo1";;;;;;;;;;;;;;;;;;;;;;;"1257";"2014-10-07 10:06:07.287";"NST_correctLoc";"17";"0";"FINISHED";"LEFT";"success";"418";"0";"2014-10-07 10:06:06.023";"2";;;;;;;;;;;;;;;;;;;;;;;;;;;;;;;;;;;;;;;;;;;;;;;;;;;;;;;;;
"c1210535";;;"Windows 7";"Rachel's Experiment (D.T.)";"1.0";"2";"1";"1";"2";"1";"1";"2014-10-07 10:02:31.055";"2014-10-07 10:15:00.621";"1";"0";"1";"50";"49";"module.training_block1.exec-9052.GoNoGo1";;;;;;;;;;;;;;;;;;;;;;;"1251";"2014-10-07 10:06:09.861";"ST_correctStop";"2";"1";"FINISHED";"NONE";"success";"0";"1";"2014-10-07 10:06:08.597";"1";;;;;;;;;;;;;;;;;;;;;;;;;;;;;;;;;;;;;;;;;;;;;;;;;;;;;;;;;
"c1210535";;;"Windows 7";"Rachel's Experiment (D.T.)";"1.0";"2";"1";"1";"2";"1";"1";"2014-10-07 10:02:31.055";"2014-10-07 10:15:00.621";"1";"0";"1";"51";"50";"module.training_block1.exec-9052.GoNoGo1";;;;;;;;;;;;;;;;;;;;;;;"1257";"2014-10-07 10:06:12.435";"NST_correctLoc";"13";"0";"FINISHED";"LEFT";"success";"358";"0";"2014-10-07 10:06:11.171";"2";;;;;;;;;;;;;;;;;;;;;;;;;;;;;;;;;;;;;;;;;;;;;;;;;;;;;;;;;
"c1210535";;;"Windows 7";"Rachel's Experiment (D.T.)";"1.0";"2";"1";"1";"2";"1";"1";"2014-10-07 10:02:31.055";"2014-10-07 10:15:00.621";"1";"0";"1";"52";"51";"module.training_block2.exec-4115.GoNoGo2";;;;;;;;;;;;;;;;;;;;;;;;;;;;;;;;;;;"1261";"2014-10-07 10:06:23.433";"ST_correctStop";"3";"1";"FINISHED";"NONE";"success";"0";"1";"2014-10-07 10:06:22.169";"1";;;;;;;;;;;;;;;;;;;;;;;;;;;;;;;;;;;;;;;;;;;;;
"c1210535";;;"Windows 7";"Rachel's Experiment (D.T.)";"1.0";"2";"1";"1";"2";"1";"1";"2014-10-07 10:02:31.055";"2014-10-07 10:15:00.621";"1";"0";"1";"53";"52";"module.training_block2.exec-4115.GoNoGo2";;;;;;;;;;;;;;;;;;;;;;;;;;;;;;;;;;;"1261";"2014-10-07 10:06:25.976";"NST_correctLoc";"33";"0";"FINISHED";"LEFT";"success";"389";"0";"2014-10-07 10:06:24.712";"3";;;;;;;;;;;;;;;;;;;;;;;;;;;;;;;;;;;;;;;;;;;;;
"c1210535";;;"Windows 7";"Rachel's Experiment (D.T.)";"1.0";"2";"1";"1";"2";"1";"1";"2014-10-07 10:02:31.055";"2014-10-07 10:15:00.621";"1";"0";"1";"54";"53";"module.training_block2.exec-4115.GoNoGo2";;;;;;;;;;;;;;;;;;;;;;;;;;;;;;;;;;;"1257";"2014-10-07 10:06:28.518";"ST_correctStop";"7";"1";"FINISHED";"NONE";"success";"0";"1";"2014-10-07 10:06:27.255";"1";;;;;;;;;;;;;;;;;;;;;;;;;;;;;;;;;;;;;;;;;;;;;
"c1210535";;;"Windows 7";"Rachel's Experiment (D.T.)";"1.0";"2";"1";"1";"2";"1";"1";"2014-10-07 10:02:31.055";"2014-10-07 10:15:00.621";"1";"0";"1";"55";"54";"module.training_block2.exec-4115.GoNoGo2";;;;;;;;;;;;;;;;;;;;;;;;;;;;;;;;;;;"1261";"2014-10-07 10:06:31.061";"NST_correctLoc";"20";"0";"FINISHED";"LEFT";"success";"472";"0";"2014-10-07 10:06:29.798";"3";;;;;;;;;;;;;;;;;;;;;;;;;;;;;;;;;;;;;;;;;;;;;
"c1210535";;;"Windows 7";"Rachel's Experiment (D.T.)";"1.0";"2";"1";"1";"2";"1";"1";"2014-10-07 10:02:31.055";"2014-10-07 10:15:00.621";"1";"0";"1";"56";"55";"module.training_block2.exec-4115.GoNoGo2";;;;;;;;;;;;;;;;;;;;;;;;;;;;;;;;;;;"1257";"2014-10-07 10:06:33.604";"ST_correctStop";"0";"1";"FINISHED";"NONE";"success";"0";"1";"2014-10-07 10:06:32.341";"1";;;;;;;;;;;;;;;;;;;;;;;;;;;;;;;;;;;;;;;;;;;;;
"c1210535";;;"Windows 7";"Rachel's Experiment (D.T.)";"1.0";"2";"1";"1";"2";"1";"1";"2014-10-07 10:02:31.055";"2014-10-07 10:15:00.621";"1";"0";"1";"57";"56";"module.training_block2.exec-4115.GoNoGo2";;;;;;;;;;;;;;;;;;;;;;;;;;;;;;;;;;;"1261";"2014-10-07 10:06:36.147";"ST_correctStop";"29";"1";"FINISHED";"NONE";"success";"0";"1";"2014-10-07 10:06:34.883";"3";;;;;;;;;;;;;;;;;;;;;;;;;;;;;;;;;;;;;;;;;;;;;
"c1210535";;;"Windows 7";"Rachel's Experiment (D.T.)";"1.0";"2";"1";"1";"2";"1";"1";"2014-10-07 10:02:31.055";"2014-10-07 10:15:00.621";"1";"0";"1";"58";"57";"module.training_block2.exec-4115.GoNoGo2";;;;;;;;;;;;;;;;;;;;;;;;;;;;;;;;;;;"1261";"2014-10-07 10:06:38.690";"ST_correctStop";"6";"0";"FINISHED";"NONE";"success";"0";"1";"2014-10-07 10:06:37.426";"1";;;;;;;;;;;;;;;;;;;;;;;;;;;;;;;;;;;;;;;;;;;;;
"c1210535";;;"Windows 7";"Rachel's Experiment (D.T.)";"1.0";"2";"1";"1";"2";"1";"1";"2014-10-07 10:02:31.055";"2014-10-07 10:15:00.621";"1";"0";"1";"59";"58";"module.training_block2.exec-4115.GoNoGo2";;;;;;;;;;;;;;;;;;;;;;;;;;;;;;;;;;;"1261";"2014-10-07 10:06:41.233";"NST_correctLoc";"14";"1";"FINISHED";"RIGHT";"success";"412";"0";"2014-10-07 10:06:39.969";"2";;;;;;;;;;;;;;;;;;;;;;;;;;;;;;;;;;;;;;;;;;;;;
"c1210535";;;"Windows 7";"Rachel's Experiment (D.T.)";"1.0";"2";"1";"1";"2";"1";"1";"2014-10-07 10:02:31.055";"2014-10-07 10:15:00.621";"1";"0";"1";"60";"59";"module.training_block2.exec-4115.GoNoGo2";;;;;;;;;;;;;;;;;;;;;;;;;;;;;;;;;;;"1257";"2014-10-07 10:06:43.775";"ST_correctStop";"5";"1";"FINISHED";"NONE";"success";"0";"1";"2014-10-07 10:06:42.512";"1";;;;;;;;;;;;;;;;;;;;;;;;;;;;;;;;;;;;;;;;;;;;;
"c1210535";;;"Windows 7";"Rachel's Experiment (D.T.)";"1.0";"2";"1";"1";"2";"1";"1";"2014-10-07 10:02:31.055";"2014-10-07 10:15:00.621";"1";"0";"1";"61";"60";"module.training_block2.exec-4115.GoNoGo2";;;;;;;;;;;;;;;;;;;;;;;;;;;;;;;;;;;"1258";"2014-10-07 10:06:46.318";"NST_correctLoc";"16";"0";"FINISHED";"LEFT";"success";"411";"0";"2014-10-07 10:06:45.055";"2";;;;;;;;;;;;;;;;;;;;;;;;;;;;;;;;;;;;;;;;;;;;;
"c1210535";;;"Windows 7";"Rachel's Experiment (D.T.)";"1.0";"2";"1";"1";"2";"1";"1";"2014-10-07 10:02:31.055";"2014-10-07 10:15:00.621";"1";"0";"1";"62";"61";"module.training_block2.exec-4115.GoNoGo2";;;;;;;;;;;;;;;;;;;;;;;;;;;;;;;;;;;"1261";"2014-10-07 10:06:48.861";"ST_correctStop";"8";"1";"FINISHED";"NONE";"success";"0";"1";"2014-10-07 10:06:47.597";"1";;;;;;;;;;;;;;;;;;;;;;;;;;;;;;;;;;;;;;;;;;;;;
"c1210535";;;"Windows 7";"Rachel's Experiment (D.T.)";"1.0";"2";"1";"1";"2";"1";"1";"2014-10-07 10:02:31.055";"2014-10-07 10:15:00.621";"1";"0";"1";"63";"62";"module.training_block2.exec-4115.GoNoGo2";;;;;;;;;;;;;;;;;;;;;;;;;;;;;;;;;;;"1257";"2014-10-07 10:06:51.404";"NST_correctLoc";"10";"0";"FINISHED";"LEFT";"success";"397";"0";"2014-10-07 10:06:50.140";"2";;;;;;;;;;;;;;;;;;;;;;;;;;;;;;;;;;;;;;;;;;;;;
"c1210535";;;"Windows 7";"Rachel's Experiment (D.T.)";"1.0";"2";"1";"1";"2";"1";"1";"2014-10-07 10:02:31.055";"2014-10-07 10:15:00.621";"1";"0";"1";"64";"63";"module.training_block2.exec-4115.GoNoGo2";;;;;;;;;;;;;;;;;;;;;;;;;;;;;;;;;;;"1261";"2014-10-07 10:06:53.947";"ST_correctStop";"23";"0";"FINISHED";"NONE";"success";"0";"1";"2014-10-07 10:06:52.683";"3";;;;;;;;;;;;;;;;;;;;;;;;;;;;;;;;;;;;;;;;;;;;;
"c1210535";;;"Windows 7";"Rachel's Experiment (D.T.)";"1.0";"2";"1";"1";"2";"1";"1";"2014-10-07 10:02:31.055";"2014-10-07 10:15:00.621";"1";"0";"1";"65";"64";"module.training_block2.exec-4115.GoNoGo2";;;;;;;;;;;;;;;;;;;;;;;;;;;;;;;;;;;"1258";"2014-10-07 10:06:56.489";"NST_correctLoc";"18";"0";"FINISHED";"LEFT";"success";"392";"0";"2014-10-07 10:06:55.226";"3";;;;;;;;;;;;;;;;;;;;;;;;;;;;;;;;;;;;;;;;;;;;;
"c1210535";;;"Windows 7";"Rachel's Experiment (D.T.)";"1.0";"2";"1";"1";"2";"1";"1";"2014-10-07 10:02:31.055";"2014-10-07 10:15:00.621";"1";"0";"1";"66";"65";"module.training_block2.exec-4115.GoNoGo2";;;;;;;;;;;;;;;;;;;;;;;;;;;;;;;;;;;"1261";"2014-10-07 10:06:59.032";"NST_correctLoc";"9";"1";"FINISHED";"RIGHT";"success";"477";"0";"2014-10-07 10:06:57.769";"2";;;;;;;;;;;;;;;;;;;;;;;;;;;;;;;;;;;;;;;;;;;;;
"c1210535";;;"Windows 7";"Rachel's Experiment (D.T.)";"1.0";"2";"1";"1";"2";"1";"1";"2014-10-07 10:02:31.055";"2014-10-07 10:15:00.621";"1";"0";"1";"67";"66";"module.training_block2.exec-4115.GoNoGo2";;;;;;;;;;;;;;;;;;;;;;;;;;;;;;;;;;;"1258";"2014-10-07 10:07:01.575";"NST_correctLoc";"25";"0";"FINISHED";"LEFT";"success";"402";"0";"2014-10-07 10:07:00.311";"3";;;;;;;;;;;;;;;;;;;;;;;;;;;;;;;;;;;;;;;;;;;;;
"c1210535";;;"Windows 7";"Rachel's Experiment (D.T.)";"1.0";"2";"1";"1";"2";"1";"1";"2014-10-07 10:02:31.055";"2014-10-07 10:15:00.621";"1";"0";"1";"68";"67";"module.training_block2.exec-4115.GoNoGo2";;;;;;;;;;;;;;;;;;;;;;;;;;;;;;;;;;;"1261";"2014-10-07 10:07:04.118";"NST_correctLoc";"26";"1";"FINISHED";"RIGHT";"success";"407";"0";"2014-10-07 10:07:02.854";"3";;;;;;;;;;;;;;;;;;;;;;;;;;;;;;;;;;;;;;;;;;;;;
"c1210535";;;"Windows 7";"Rachel's Experiment (D.T.)";"1.0";"2";"1";"1";"2";"1";"1";"2014-10-07 10:02:31.055";"2014-10-07 10:15:00.621";"1";"0";"1";"69";"68";"module.training_block2.exec-4115.GoNoGo2";;;;;;;;;;;;;;;;;;;;;;;;;;;;;;;;;;;"1258";"2014-10-07 10:07:06.661";"ST_correctStop";"1";"0";"FINISHED";"NONE";"success";"0";"1";"2014-10-07 10:07:05.397";"1";;;;;;;;;;;;;;;;;;;;;;;;;;;;;;;;;;;;;;;;;;;;;
"c1210535";;;"Windows 7";"Rachel's Experiment (D.T.)";"1.0";"2";"1";"1";"2";"1";"1";"2014-10-07 10:02:31.055";"2014-10-07 10:15:00.621";"1";"0";"1";"70";"69";"module.training_block2.exec-4115.GoNoGo2";;;;;;;;;;;;;;;;;;;;;;;;;;;;;;;;;;;"1258";"2014-10-07 10:07:09.219";"NST_correctLoc";"12";"1";"FINISHED";"RIGHT";"success";"446";"0";"2014-10-07 10:07:07.955";"2";;;;;;;;;;;;;;;;;;;;;;;;;;;;;;;;;;;;;;;;;;;;;
"c1210535";;;"Windows 7";"Rachel's Experiment (D.T.)";"1.0";"2";"1";"1";"2";"1";"1";"2014-10-07 10:02:31.055";"2014-10-07 10:15:00.621";"1";"0";"1";"71";"70";"module.training_block2.exec-4115.GoNoGo2";;;;;;;;;;;;;;;;;;;;;;;;;;;;;;;;;;;"1258";"2014-10-07 10:07:11.762";"NST_correctLoc";"27";"0";"FINISHED";"LEFT";"success";"464";"0";"2014-10-07 10:07:10.498";"3";;;;;;;;;;;;;;;;;;;;;;;;;;;;;;;;;;;;;;;;;;;;;
"c1210535";;;"Windows 7";"Rachel's Experiment (D.T.)";"1.0";"2";"1";"1";"2";"1";"1";"2014-10-07 10:02:31.055";"2014-10-07 10:15:00.621";"1";"0";"1";"72";"71";"module.training_block2.exec-4115.GoNoGo2";;;;;;;;;;;;;;;;;;;;;;;;;;;;;;;;;;;"1261";"2014-10-07 10:07:14.305";"NST_correctLoc";"13";"1";"FINISHED";"RIGHT";"success";"388";"0";"2014-10-07 10:07:13.041";"2";;;;;;;;;;;;;;;;;;;;;;;;;;;;;;;;;;;;;;;;;;;;;
"c1210535";;;"Windows 7";"Rachel's Experiment (D.T.)";"1.0";"2";"1";"1";"2";"1";"1";"2014-10-07 10:02:31.055";"2014-10-07 10:15:00.621";"1";"0";"1";"73";"72";"module.training_block2.exec-4115.GoNoGo2";;;;;;;;;;;;;;;;;;;;;;;;;;;;;;;;;;;"1261";"2014-10-07 10:07:16.847";"NST_correctLoc";"28";"0";"FINISHED";"LEFT";"success";"349";"0";"2014-10-07 10:07:15.584";"3";;;;;;;;;;;;;;;;;;;;;;;;;;;;;;;;;;;;;;;;;;;;;
"c1210535";;;"Windows 7";"Rachel's Experiment (D.T.)";"1.0";"2";"1";"1";"2";"1";"1";"2014-10-07 10:02:31.055";"2014-10-07 10:15:00.621";"1";"0";"1";"74";"73";"module.training_block2.exec-4115.GoNoGo2";;;;;;;;;;;;;;;;;;;;;;;;;;;;;;;;;;;"1257";"2014-10-07 10:07:19.390";"NST_correctLoc";"35";"0";"FINISHED";"LEFT";"success";"394";"0";"2014-10-07 10:07:18.127";"3";;;;;;;;;;;;;;;;;;;;;;;;;;;;;;;;;;;;;;;;;;;;;
"c1210535";;;"Windows 7";"Rachel's Experiment (D.T.)";"1.0";"2";"1";"1";"2";"1";"1";"2014-10-07 10:02:31.055";"2014-10-07 10:15:00.621";"1";"0";"1";"75";"74";"module.training_block2.exec-4115.GoNoGo2";;;;;;;;;;;;;;;;;;;;;;;;;;;;;;;;;;;"1261";"2014-10-07 10:07:21.933";"ST_correctStop";"4";"1";"FINISHED";"NONE";"success";"0";"1";"2014-10-07 10:07:20.669";"1";;;;;;;;;;;;;;;;;;;;;;;;;;;;;;;;;;;;;;;;;;;;;
"c1210535";;;"Windows 7";"Rachel's Experiment (D.T.)";"1.0";"2";"1";"1";"2";"1";"1";"2014-10-07 10:02:31.055";"2014-10-07 10:15:00.621";"1";"0";"1";"76";"75";"module.training_block2.exec-4115.GoNoGo2";;;;;;;;;;;;;;;;;;;;;;;;;;;;;;;;;;;"1258";"2014-10-07 10:07:24.476";"ST_correctStop";"34";"1";"FINISHED";"NONE";"success";"0";"1";"2014-10-07 10:07:23.212";"3";;;;;;;;;;;;;;;;;;;;;;;;;;;;;;;;;;;;;;;;;;;;;
"c1210535";;;"Windows 7";"Rachel's Experiment (D.T.)";"1.0";"2";"1";"1";"2";"1";"1";"2014-10-07 10:02:31.055";"2014-10-07 10:15:00.621";"1";"0";"1";"77";"76";"module.training_block2.exec-4115.GoNoGo2";;;;;;;;;;;;;;;;;;;;;;;;;;;;;;;;;;;"1258";"2014-10-07 10:07:27.019";"NST_correctLoc";"11";"1";"FINISHED";"RIGHT";"success";"431";"0";"2014-10-07 10:07:25.755";"2";;;;;;;;;;;;;;;;;;;;;;;;;;;;;;;;;;;;;;;;;;;;;
"c1210535";;;"Windows 7";"Rachel's Experiment (D.T.)";"1.0";"2";"1";"1";"2";"1";"1";"2014-10-07 10:02:31.055";"2014-10-07 10:15:00.621";"1";"0";"1";"78";"77";"module.training_block2.exec-4115.GoNoGo2";;;;;;;;;;;;;;;;;;;;;;;;;;;;;;;;;;;"1261";"2014-10-07 10:07:29.561";"NST_correctLoc";"17";"0";"FINISHED";"LEFT";"success";"427";"0";"2014-10-07 10:07:28.298";"2";;;;;;;;;;;;;;;;;;;;;;;;;;;;;;;;;;;;;;;;;;;;;
"c1210535";;;"Windows 7";"Rachel's Experiment (D.T.)";"1.0";"2";"1";"1";"2";"1";"1";"2014-10-07 10:02:31.055";"2014-10-07 10:15:00.621";"1";"0";"1";"79";"78";"module.training_block2.exec-4115.GoNoGo2";;;;;;;;;;;;;;;;;;;;;;;;;;;;;;;;;;;"1261";"2014-10-07 10:07:32.120";"NST_correctLoc";"15";"0";"FINISHED";"LEFT";"success";"413";"0";"2014-10-07 10:07:30.856";"2";;;;;;;;;;;;;;;;;;;;;;;;;;;;;;;;;;;;;;;;;;;;;
"c1210535";;;"Windows 7";"Rachel's Experiment (D.T.)";"1.0";"2";"1";"1";"2";"1";"1";"2014-10-07 10:02:31.055";"2014-10-07 10:15:00.621";"1";"0";"1";"80";"79";"module.training_block2.exec-4115.GoNoGo2";;;;;;;;;;;;;;;;;;;;;;;;;;;;;;;;;;;"1261";"2014-10-07 10:07:34.663";"ST_correctStop";"21";"0";"FINISHED";"NONE";"success";"0";"1";"2014-10-07 10:07:33.399";"3";;;;;;;;;;;;;;;;;;;;;;;;;;;;;;;;;;;;;;;;;;;;;
"c1210535";;;"Windows 7";"Rachel's Experiment (D.T.)";"1.0";"2";"1";"1";"2";"1";"1";"2014-10-07 10:02:31.055";"2014-10-07 10:15:00.621";"1";"0";"1";"81";"80";"module.training_block2.exec-4115.GoNoGo2";;;;;;;;;;;;;;;;;;;;;;;;;;;;;;;;;;;"1257";"2014-10-07 10:07:37.205";"ST_correctStop";"31";"1";"FINISHED";"NONE";"success";"0";"1";"2014-10-07 10:07:35.942";"3";;;;;;;;;;;;;;;;;;;;;;;;;;;;;;;;;;;;;;;;;;;;;
"c1210535";;;"Windows 7";"Rachel's Experiment (D.T.)";"1.0";"2";"1";"1";"2";"1";"1";"2014-10-07 10:02:31.055";"2014-10-07 10:15:00.621";"1";"0";"1";"82";"81";"module.training_block2.exec-4115.GoNoGo2";;;;;;;;;;;;;;;;;;;;;;;;;;;;;;;;;;;"1261";"2014-10-07 10:07:39.748";"ST_correctStop";"30";"1";"FINISHED";"NONE";"success";"0";"1";"2014-10-07 10:07:38.485";"3";;;;;;;;;;;;;;;;;;;;;;;;;;;;;;;;;;;;;;;;;;;;;
"c1210535";;;"Windows 7";"Rachel's Experiment (D.T.)";"1.0";"2";"1";"1";"2";"1";"1";"2014-10-07 10:02:31.055";"2014-10-07 10:15:00.621";"1";"0";"1";"83";"82";"module.training_block2.exec-4115.GoNoGo2";;;;;;;;;;;;;;;;;;;;;;;;;;;;;;;;;;;"1261";"2014-10-07 10:07:42.291";"ST_correctStop";"19";"1";"FINISHED";"NONE";"success";"0";"1";"2014-10-07 10:07:41.027";"3";;;;;;;;;;;;;;;;;;;;;;;;;;;;;;;;;;;;;;;;;;;;;
"c1210535";;;"Windows 7";"Rachel's Experiment (D.T.)";"1.0";"2";"1";"1";"2";"1";"1";"2014-10-07 10:02:31.055";"2014-10-07 10:15:00.621";"1";"0";"1";"84";"83";"module.training_block2.exec-4115.GoNoGo2";;;;;;;;;;;;;;;;;;;;;;;;;;;;;;;;;;;"1257";"2014-10-07 10:07:44.834";"ST_correctStop";"32";"1";"FINISHED";"NONE";"success";"0";"1";"2014-10-07 10:07:43.570";"3";;;;;;;;;;;;;;;;;;;;;;;;;;;;;;;;;;;;;;;;;;;;;
"c1210535";;;"Windows 7";"Rachel's Experiment (D.T.)";"1.0";"2";"1";"1";"2";"1";"1";"2014-10-07 10:02:31.055";"2014-10-07 10:15:00.621";"1";"0";"1";"85";"84";"module.training_block2.exec-4115.GoNoGo2";;;;;;;;;;;;;;;;;;;;;;;;;;;;;;;;;;;"1258";"2014-10-07 10:07:47.377";"ST_correctStop";"22";"0";"FINISHED";"NONE";"success";"0";"1";"2014-10-07 10:07:46.113";"3";;;;;;;;;;;;;;;;;;;;;;;;;;;;;;;;;;;;;;;;;;;;;
"c1210535";;;"Windows 7";"Rachel's Experiment (D.T.)";"1.0";"2";"1";"1";"2";"1";"1";"2014-10-07 10:02:31.055";"2014-10-07 10:15:00.621";"1";"0";"1";"86";"85";"module.training_block2.exec-4115.GoNoGo2";;;;;;;;;;;;;;;;;;;;;;;;;;;;;;;;;;;"1261";"2014-10-07 10:07:49.904";"NST_correctLoc";"24";"0";"FINISHED";"LEFT";"success";"421";"0";"2014-10-07 10:07:48.640";"3";;;;;;;;;;;;;;;;;;;;;;;;;;;;;;;;;;;;;;;;;;;;;
"c1210535";;;"Windows 7";"Rachel's Experiment (D.T.)";"1.0";"2";"1";"1";"2";"1";"1";"2014-10-07 10:02:31.055";"2014-10-07 10:15:00.621";"1";"0";"1";"87";"86";"module.training_block2.exec-4115.GoNoGo2";;;;;;;;;;;;;;;;;;;;;;;;;;;;;;;;;;;"1261";"2014-10-07 10:07:52.447";"ST_correctStop";"2";"0";"FINISHED";"NONE";"success";"0";"1";"2014-10-07 10:07:51.183";"1";;;;;;;;;;;;;;;;;;;;;;;;;;;;;;;;;;;;;;;;;;;;;
"c1210535";;;"Windows 7";"Rachel's Experiment (D.T.)";"1.0";"2";"1";"1";"2";"1";"1";"2014-10-07 10:02:31.055";"2014-10-07 10:15:00.621";"1";"0";"1";"88";"87";"module.training_block3.exec-3623.GoNoGo3";;;;;;;;;;;;;;;;;;;;;;;;;;;;;;;;;;;;;;;;;;;;;;;"1261";"2014-10-07 10:08:03.101";"ST_correctStop";"3";"1";"FINISHED";"NONE";"success";"0";"1";"2014-10-07 10:08:01.838";"1";;;;;;;;;;;;;;;;;;;;;;;;;;;;;;;;;
"c1210535";;;"Windows 7";"Rachel's Experiment (D.T.)";"1.0";"2";"1";"1";"2";"1";"1";"2014-10-07 10:02:31.055";"2014-10-07 10:15:00.621";"1";"0";"1";"89";"88";"module.training_block3.exec-3623.GoNoGo3";;;;;;;;;;;;;;;;;;;;;;;;;;;;;;;;;;;;;;;;;;;;;;;"1261";"2014-10-07 10:08:05.644";"ST_correctStop";"20";"1";"FINISHED";"NONE";"success";"0";"1";"2014-10-07 10:08:04.381";"3";;;;;;;;;;;;;;;;;;;;;;;;;;;;;;;;;
"c1210535";;;"Windows 7";"Rachel's Experiment (D.T.)";"1.0";"2";"1";"1";"2";"1";"1";"2014-10-07 10:02:31.055";"2014-10-07 10:15:00.621";"1";"0";"1";"90";"89";"module.training_block3.exec-3623.GoNoGo3";;;;;;;;;;;;;;;;;;;;;;;;;;;;;;;;;;;;;;;;;;;;;;;"1261";"2014-10-07 10:08:08.203";"NST_correctLoc";"19";"0";"FINISHED";"LEFT";"success";"402";"0";"2014-10-07 10:08:06.939";"3";;;;;;;;;;;;;;;;;;;;;;;;;;;;;;;;;
"c1210535";;;"Windows 7";"Rachel's Experiment (D.T.)";"1.0";"2";"1";"1";"2";"1";"1";"2014-10-07 10:02:31.055";"2014-10-07 10:15:00.621";"1";"0";"1";"91";"90";"module.training_block3.exec-3623.GoNoGo3";;;;;;;;;;;;;;;;;;;;;;;;;;;;;;;;;;;;;;;;;;;;;;;"1261";"2014-10-07 10:08:10.745";"ST_correctStop";"1";"1";"FINISHED";"NONE";"success";"0";"1";"2014-10-07 10:08:09.482";"1";;;;;;;;;;;;;;;;;;;;;;;;;;;;;;;;;
"c1210535";;;"Windows 7";"Rachel's Experiment (D.T.)";"1.0";"2";"1";"1";"2";"1";"1";"2014-10-07 10:02:31.055";"2014-10-07 10:15:00.621";"1";"0";"1";"92";"91";"module.training_block3.exec-3623.GoNoGo3";;;;;;;;;;;;;;;;;;;;;;;;;;;;;;;;;;;;;;;;;;;;;;;"1261";"2014-10-07 10:08:13.288";"ST_correctStop";"33";"0";"FINISHED";"NONE";"success";"0";"1";"2014-10-07 10:08:12.025";"3";;;;;;;;;;;;;;;;;;;;;;;;;;;;;;;;;
"c1210535";;;"Windows 7";"Rachel's Experiment (D.T.)";"1.0";"2";"1";"1";"2";"1";"1";"2014-10-07 10:02:31.055";"2014-10-07 10:15:00.621";"1";"0";"1";"93";"92";"module.training_block3.exec-3623.GoNoGo3";;;;;;;;;;;;;;;;;;;;;;;;;;;;;;;;;;;;;;;;;;;;;;;"1261";"2014-10-07 10:08:15.831";"ST_correctStop";"28";"1";"FINISHED";"NONE";"success";"0";"1";"2014-10-07 10:08:14.567";"3";;;;;;;;;;;;;;;;;;;;;;;;;;;;;;;;;
"c1210535";;;"Windows 7";"Rachel's Experiment (D.T.)";"1.0";"2";"1";"1";"2";"1";"1";"2014-10-07 10:02:31.055";"2014-10-07 10:15:00.621";"1";"0";"1";"94";"93";"module.training_block3.exec-3623.GoNoGo3";;;;;;;;;;;;;;;;;;;;;;;;;;;;;;;;;;;;;;;;;;;;;;;"1261";"2014-10-07 10:08:18.374";"ST_correctStop";"2";"0";"FINISHED";"NONE";"success";"0";"1";"2014-10-07 10:08:17.110";"1";;;;;;;;;;;;;;;;;;;;;;;;;;;;;;;;;
"c1210535";;;"Windows 7";"Rachel's Experiment (D.T.)";"1.0";"2";"1";"1";"2";"1";"1";"2014-10-07 10:02:31.055";"2014-10-07 10:15:00.621";"1";"0";"1";"95";"94";"module.training_block3.exec-3623.GoNoGo3";;;;;;;;;;;;;;;;;;;;;;;;;;;;;;;;;;;;;;;;;;;;;;;"1261";"2014-10-07 10:08:20.917";"NST_correctLoc";"13";"0";"FINISHED";"LEFT";"success";"480";"0";"2014-10-07 10:08:19.653";"2";;;;;;;;;;;;;;;;;;;;;;;;;;;;;;;;;
"c1210535";;;"Windows 7";"Rachel's Experiment (D.T.)";"1.0";"2";"1";"1";"2";"1";"1";"2014-10-07 10:02:31.055";"2014-10-07 10:15:00.621";"1";"0";"1";"96";"95";"module.training_block3.exec-3623.GoNoGo3";;;;;;;;;;;;;;;;;;;;;;;;;;;;;;;;;;;;;;;;;;;;;;;"1261";"2014-10-07 10:08:23.459";"NST_correctLoc";"15";"0";"FINISHED";"LEFT";"success";"393";"0";"2014-10-07 10:08:22.196";"2";;;;;;;;;;;;;;;;;;;;;;;;;;;;;;;;;
"c1210535";;;"Windows 7";"Rachel's Experiment (D.T.)";"1.0";"2";"1";"1";"2";"1";"1";"2014-10-07 10:02:31.055";"2014-10-07 10:15:00.621";"1";"0";"1";"97";"96";"module.training_block3.exec-3623.GoNoGo3";;;;;;;;;;;;;;;;;;;;;;;;;;;;;;;;;;;;;;;;;;;;;;;"1261";"2014-10-07 10:08:26.002";"NST_correctLoc";"32";"0";"FINISHED";"LEFT";"success";"402";"0";"2014-10-07 10:08:24.739";"3";;;;;;;;;;;;;;;;;;;;;;;;;;;;;;;;;
"c1210535";;;"Windows 7";"Rachel's Experiment (D.T.)";"1.0";"2";"1";"1";"2";"1";"1";"2014-10-07 10:02:31.055";"2014-10-07 10:15:00.621";"1";"0";"1";"98";"97";"module.training_block3.exec-3623.GoNoGo3";;;;;;;;;;;;;;;;;;;;;;;;;;;;;;;;;;;;;;;;;;;;;;;"1261";"2014-10-07 10:08:28.545";"NST_correctLoc";"17";"0";"FINISHED";"LEFT";"success";"363";"0";"2014-10-07 10:08:27.282";"2";;;;;;;;;;;;;;;;;;;;;;;;;;;;;;;;;
"c1210535";;;"Windows 7";"Rachel's Experiment (D.T.)";"1.0";"2";"1";"1";"2";"1";"1";"2014-10-07 10:02:31.055";"2014-10-07 10:15:00.621";"1";"0";"1";"99";"98";"module.training_block3.exec-3623.GoNoGo3";;;;;;;;;;;;;;;;;;;;;;;;;;;;;;;;;;;;;;;;;;;;;;;"1261";"2014-10-07 10:08:31.088";"NST_correctLoc";"25";"1";"FINISHED";"RIGHT";"success";"428";"0";"2014-10-07 10:08:29.824";"3";;;;;;;;;;;;;;;;;;;;;;;;;;;;;;;;;
"c1210535";;;"Windows 7";"Rachel's Experiment (D.T.)";"1.0";"2";"1";"1";"2";"1";"1";"2014-10-07 10:02:31.055";"2014-10-07 10:15:00.621";"1";"0";"1";"100";"99";"module.training_block3.exec-3623.GoNoGo3";;;;;;;;;;;;;;;;;;;;;;;;;;;;;;;;;;;;;;;;;;;;;;;"1261";"2014-10-07 10:08:33.631";"NST_correctLoc";"9";"0";"FINISHED";"LEFT";"success";"454";"0";"2014-10-07 10:08:32.367";"2";;;;;;;;;;;;;;;;;;;;;;;;;;;;;;;;;
"c1210535";;;"Windows 7";"Rachel's Experiment (D.T.)";"1.0";"2";"1";"1";"2";"1";"1";"2014-10-07 10:02:31.055";"2014-10-07 10:15:00.621";"1";"0";"1";"101";"100";"module.training_block3.exec-3623.GoNoGo3";;;;;;;;;;;;;;;;;;;;;;;;;;;;;;;;;;;;;;;;;;;;;;;"1261";"2014-10-07 10:08:36.174";"ST_correctStop";"23";"0";"FINISHED";"NONE";"success";"0";"1";"2014-10-07 10:08:34.910";"3";;;;;;;;;;;;;;;;;;;;;;;;;;;;;;;;;
"c1210535";;;"Windows 7";"Rachel's Experiment (D.T.)";"1.0";"2";"1";"1";"2";"1";"1";"2014-10-07 10:02:31.055";"2014-10-07 10:15:00.621";"1";"0";"1";"102";"101";"module.training_block3.exec-3623.GoNoGo3";;;;;;;;;;;;;;;;;;;;;;;;;;;;;;;;;;;;;;;;;;;;;;;"1261";"2014-10-07 10:08:38.716";"ST_failedStop";"34";"0";"FINISHED";"LEFT";"failure";"376";"1";"2014-10-07 10:08:37.453";"3";;;;;;;;;;;;;;;;;;;;;;;;;;;;;;;;;
"c1210535";;;"Windows 7";"Rachel's Experiment (D.T.)";"1.0";"2";"1";"1";"2";"1";"1";"2014-10-07 10:02:31.055";"2014-10-07 10:15:00.621";"1";"0";"1";"103";"102";"module.training_block3.exec-3623.GoNoGo3";;;;;;;;;;;;;;;;;;;;;;;;;;;;;;;;;;;;;;;;;;;;;;;"1261";"2014-10-07 10:08:41.259";"NST_correctLoc";"18";"0";"FINISHED";"LEFT";"success";"433";"0";"2014-10-07 10:08:39.996";"3";;;;;;;;;;;;;;;;;;;;;;;;;;;;;;;;;
"c1210535";;;"Windows 7";"Rachel's Experiment (D.T.)";"1.0";"2";"1";"1";"2";"1";"1";"2014-10-07 10:02:31.055";"2014-10-07 10:15:00.621";"1";"0";"1";"104";"103";"module.training_block3.exec-3623.GoNoGo3";;;;;;;;;;;;;;;;;;;;;;;;;;;;;;;;;;;;;;;;;;;;;;;"1261";"2014-10-07 10:08:43.786";"NST_correctLoc";"31";"1";"FINISHED";"RIGHT";"success";"402";"0";"2014-10-07 10:08:42.523";"3";;;;;;;;;;;;;;;;;;;;;;;;;;;;;;;;;
"c1210535";;;"Windows 7";"Rachel's Experiment (D.T.)";"1.0";"2";"1";"1";"2";"1";"1";"2014-10-07 10:02:31.055";"2014-10-07 10:15:00.621";"1";"0";"1";"105";"104";"module.training_block3.exec-3623.GoNoGo3";;;;;;;;;;;;;;;;;;;;;;;;;;;;;;;;;;;;;;;;;;;;;;;"1261";"2014-10-07 10:08:46.329";"NST_correctLoc";"12";"0";"FINISHED";"LEFT";"success";"371";"0";"2014-10-07 10:08:45.066";"2";;;;;;;;;;;;;;;;;;;;;;;;;;;;;;;;;
"c1210535";;;"Windows 7";"Rachel's Experiment (D.T.)";"1.0";"2";"1";"1";"2";"1";"1";"2014-10-07 10:02:31.055";"2014-10-07 10:15:00.621";"1";"0";"1";"106";"105";"module.training_block3.exec-3623.GoNoGo3";;;;;;;;;;;;;;;;;;;;;;;;;;;;;;;;;;;;;;;;;;;;;;;"1261";"2014-10-07 10:08:48.872";"NST_correctLoc";"22";"0";"FINISHED";"LEFT";"success";"436";"0";"2014-10-07 10:08:47.608";"3";;;;;;;;;;;;;;;;;;;;;;;;;;;;;;;;;
"c1210535";;;"Windows 7";"Rachel's Experiment (D.T.)";"1.0";"2";"1";"1";"2";"1";"1";"2014-10-07 10:02:31.055";"2014-10-07 10:15:00.621";"1";"0";"1";"107";"106";"module.training_block3.exec-3623.GoNoGo3";;;;;;;;;;;;;;;;;;;;;;;;;;;;;;;;;;;;;;;;;;;;;;;"1261";"2014-10-07 10:08:51.415";"ST_correctStop";"8";"0";"FINISHED";"NONE";"success";"0";"1";"2014-10-07 10:08:50.151";"1";;;;;;;;;;;;;;;;;;;;;;;;;;;;;;;;;
"c1210535";;;"Windows 7";"Rachel's Experiment (D.T.)";"1.0";"2";"1";"1";"2";"1";"1";"2014-10-07 10:02:31.055";"2014-10-07 10:15:00.621";"1";"0";"1";"108";"107";"module.training_block3.exec-3623.GoNoGo3";;;;;;;;;;;;;;;;;;;;;;;;;;;;;;;;;;;;;;;;;;;;;;;"1261";"2014-10-07 10:08:53.958";"ST_correctStop";"4";"1";"FINISHED";"NONE";"success";"0";"1";"2014-10-07 10:08:52.694";"1";;;;;;;;;;;;;;;;;;;;;;;;;;;;;;;;;
"c1210535";;;"Windows 7";"Rachel's Experiment (D.T.)";"1.0";"2";"1";"1";"2";"1";"1";"2014-10-07 10:02:31.055";"2014-10-07 10:15:00.621";"1";"0";"1";"109";"108";"module.training_block3.exec-3623.GoNoGo3";;;;;;;;;;;;;;;;;;;;;;;;;;;;;;;;;;;;;;;;;;;;;;;"1261";"2014-10-07 10:08:56.500";"NST_correctLoc";"10";"1";"FINISHED";"RIGHT";"success";"432";"0";"2014-10-07 10:08:55.237";"2";;;;;;;;;;;;;;;;;;;;;;;;;;;;;;;;;
"c1210535";;;"Windows 7";"Rachel's Experiment (D.T.)";"1.0";"2";"1";"1";"2";"1";"1";"2014-10-07 10:02:31.055";"2014-10-07 10:15:00.621";"1";"0";"1";"110";"109";"module.training_block3.exec-3623.GoNoGo3";;;;;;;;;;;;;;;;;;;;;;;;;;;;;;;;;;;;;;;;;;;;;;;"1261";"2014-10-07 10:08:59.043";"NST_correctLoc";"14";"1";"FINISHED";"RIGHT";"success";"449";"0";"2014-10-07 10:08:57.780";"2";;;;;;;;;;;;;;;;;;;;;;;;;;;;;;;;;
"c1210535";;;"Windows 7";"Rachel's Experiment (D.T.)";"1.0";"2";"1";"1";"2";"1";"1";"2014-10-07 10:02:31.055";"2014-10-07 10:15:00.621";"1";"0";"1";"111";"110";"module.training_block3.exec-3623.GoNoGo3";;;;;;;;;;;;;;;;;;;;;;;;;;;;;;;;;;;;;;;;;;;;;;;"1261";"2014-10-07 10:09:01.602";"NST_correctLoc";"27";"0";"FINISHED";"LEFT";"success";"347";"0";"2014-10-07 10:09:00.338";"3";;;;;;;;;;;;;;;;;;;;;;;;;;;;;;;;;
"c1210535";;;"Windows 7";"Rachel's Experiment (D.T.)";"1.0";"2";"1";"1";"2";"1";"1";"2014-10-07 10:02:31.055";"2014-10-07 10:15:00.621";"1";"0";"1";"112";"111";"module.training_block3.exec-3623.GoNoGo3";;;;;;;;;;;;;;;;;;;;;;;;;;;;;;;;;;;;;;;;;;;;;;;"1261";"2014-10-07 10:09:04.144";"NST_correctLoc";"35";"0";"FINISHED";"LEFT";"success";"428";"0";"2014-10-07 10:09:02.881";"3";;;;;;;;;;;;;;;;;;;;;;;;;;;;;;;;;
"c1210535";;;"Windows 7";"Rachel's Experiment (D.T.)";"1.0";"2";"1";"1";"2";"1";"1";"2014-10-07 10:02:31.055";"2014-10-07 10:15:00.621";"1";"0";"1";"113";"112";"module.training_block3.exec-3623.GoNoGo3";;;;;;;;;;;;;;;;;;;;;;;;;;;;;;;;;;;;;;;;;;;;;;;"1261";"2014-10-07 10:09:06.703";"NST_correctLoc";"30";"0";"FINISHED";"LEFT";"success";"357";"0";"2014-10-07 10:09:05.439";"3";;;;;;;;;;;;;;;;;;;;;;;;;;;;;;;;;
"c1210535";;;"Windows 7";"Rachel's Experiment (D.T.)";"1.0";"2";"1";"1";"2";"1";"1";"2014-10-07 10:02:31.055";"2014-10-07 10:15:00.621";"1";"0";"1";"114";"113";"module.training_block3.exec-3623.GoNoGo3";;;;;;;;;;;;;;;;;;;;;;;;;;;;;;;;;;;;;;;;;;;;;;;"1261";"2014-10-07 10:09:09.246";"NST_correctLoc";"11";"0";"FINISHED";"LEFT";"success";"350";"0";"2014-10-07 10:09:07.982";"2";;;;;;;;;;;;;;;;;;;;;;;;;;;;;;;;;
"c1210535";;;"Windows 7";"Rachel's Experiment (D.T.)";"1.0";"2";"1";"1";"2";"1";"1";"2014-10-07 10:02:31.055";"2014-10-07 10:15:00.621";"1";"0";"1";"115";"114";"module.training_block3.exec-3623.GoNoGo3";;;;;;;;;;;;;;;;;;;;;;;;;;;;;;;;;;;;;;;;;;;;;;;"1261";"2014-10-07 10:09:11.788";"ST_failedStop";"5";"1";"FINISHED";"RIGHT";"failure";"416";"1";"2014-10-07 10:09:10.525";"1";;;;;;;;;;;;;;;;;;;;;;;;;;;;;;;;;
"c1210535";;;"Windows 7";"Rachel's Experiment (D.T.)";"1.0";"2";"1";"1";"2";"1";"1";"2014-10-07 10:02:31.055";"2014-10-07 10:15:00.621";"1";"0";"1";"116";"115";"module.training_block3.exec-3623.GoNoGo3";;;;;;;;;;;;;;;;;;;;;;;;;;;;;;;;;;;;;;;;;;;;;;;"1261";"2014-10-07 10:09:14.331";"ST_correctStop";"0";"1";"FINISHED";"NONE";"success";"0";"1";"2014-10-07 10:09:13.068";"1";;;;;;;;;;;;;;;;;;;;;;;;;;;;;;;;;
"c1210535";;;"Windows 7";"Rachel's Experiment (D.T.)";"1.0";"2";"1";"1";"2";"1";"1";"2014-10-07 10:02:31.055";"2014-10-07 10:15:00.621";"1";"0";"1";"117";"116";"module.training_block3.exec-3623.GoNoGo3";;;;;;;;;;;;;;;;;;;;;;;;;;;;;;;;;;;;;;;;;;;;;;;"1261";"2014-10-07 10:09:16.874";"ST_correctStop";"21";"1";"FINISHED";"NONE";"success";"0";"1";"2014-10-07 10:09:15.610";"3";;;;;;;;;;;;;;;;;;;;;;;;;;;;;;;;;
"c1210535";;;"Windows 7";"Rachel's Experiment (D.T.)";"1.0";"2";"1";"1";"2";"1";"1";"2014-10-07 10:02:31.055";"2014-10-07 10:15:00.621";"1";"0";"1";"118";"117";"module.training_block3.exec-3623.GoNoGo3";;;;;;;;;;;;;;;;;;;;;;;;;;;;;;;;;;;;;;;;;;;;;;;"1261";"2014-10-07 10:09:19.417";"ST_correctStop";"6";"1";"FINISHED";"NONE";"success";"0";"1";"2014-10-07 10:09:18.153";"1";;;;;;;;;;;;;;;;;;;;;;;;;;;;;;;;;
"c1210535";;;"Windows 7";"Rachel's Experiment (D.T.)";"1.0";"2";"1";"1";"2";"1";"1";"2014-10-07 10:02:31.055";"2014-10-07 10:15:00.621";"1";"0";"1";"119";"118";"module.training_block3.exec-3623.GoNoGo3";;;;;;;;;;;;;;;;;;;;;;;;;;;;;;;;;;;;;;;;;;;;;;;"1261";"2014-10-07 10:09:21.960";"ST_correctStop";"26";"0";"FINISHED";"NONE";"success";"0";"1";"2014-10-07 10:09:20.696";"3";;;;;;;;;;;;;;;;;;;;;;;;;;;;;;;;;
"c1210535";;;"Windows 7";"Rachel's Experiment (D.T.)";"1.0";"2";"1";"1";"2";"1";"1";"2014-10-07 10:02:31.055";"2014-10-07 10:15:00.621";"1";"0";"1";"120";"119";"module.training_block3.exec-3623.GoNoGo3";;;;;;;;;;;;;;;;;;;;;;;;;;;;;;;;;;;;;;;;;;;;;;;"1261";"2014-10-07 10:09:24.518";"ST_correctStop";"7";"1";"FINISHED";"NONE";"success";"0";"1";"2014-10-07 10:09:23.254";"1";;;;;;;;;;;;;;;;;;;;;;;;;;;;;;;;;
"c1210535";;;"Windows 7";"Rachel's Experiment (D.T.)";"1.0";"2";"1";"1";"2";"1";"1";"2014-10-07 10:02:31.055";"2014-10-07 10:15:00.621";"1";"0";"1";"121";"120";"module.training_block3.exec-3623.GoNoGo3";;;;;;;;;;;;;;;;;;;;;;;;;;;;;;;;;;;;;;;;;;;;;;;"1262";"2014-10-07 10:09:27.061";"NST_correctLoc";"16";"1";"FINISHED";"RIGHT";"success";"655";"0";"2014-10-07 10:09:25.797";"2";;;;;;;;;;;;;;;;;;;;;;;;;;;;;;;;;
"c1210535";;;"Windows 7";"Rachel's Experiment (D.T.)";"1.0";"2";"1";"1";"2";"1";"1";"2014-10-07 10:02:31.055";"2014-10-07 10:15:00.621";"1";"0";"1";"122";"121";"module.training_block3.exec-3623.GoNoGo3";;;;;;;;;;;;;;;;;;;;;;;;;;;;;;;;;;;;;;;;;;;;;;;"1261";"2014-10-07 10:09:29.619";"ST_correctStop";"24";"0";"FINISHED";"NONE";"success";"0";"1";"2014-10-07 10:09:28.356";"3";;;;;;;;;;;;;;;;;;;;;;;;;;;;;;;;;
"c1210535";;;"Windows 7";"Rachel's Experiment (D.T.)";"1.0";"2";"1";"1";"2";"1";"1";"2014-10-07 10:02:31.055";"2014-10-07 10:15:00.621";"1";"0";"1";"123";"122";"module.training_block3.exec-3623.GoNoGo3";;;;;;;;;;;;;;;;;;;;;;;;;;;;;;;;;;;;;;;;;;;;;;;"1261";"2014-10-07 10:09:32.162";"ST_correctStop";"29";"0";"FINISHED";"NONE";"success";"0";"1";"2014-10-07 10:09:30.898";"3";;;;;;;;;;;;;;;;;;;;;;;;;;;;;;;;;
"c1210535";;;"Windows 7";"Rachel's Experiment (D.T.)";"1.0";"2";"1";"1";"2";"1";"1";"2014-10-07 10:02:31.055";"2014-10-07 10:15:00.621";"1";"0";"1";"124";"123";"module.training_block4.exec-6390.GoNoGo4";;;;;;;;;;;;;;;;;;;;;;;;;;;;;;;;;;;;;;;;;;;;;;;;;;;;;;;;;;;"1261";"2014-10-07 10:09:42.864";"NST_correctLoc";"13";"1";"FINISHED";"RIGHT";"success";"500";"0";"2014-10-07 10:09:41.600";"2";;;;;;;;;;;;;;;;;;;;;
"c1210535";;;"Windows 7";"Rachel's Experiment (D.T.)";"1.0";"2";"1";"1";"2";"1";"1";"2014-10-07 10:02:31.055";"2014-10-07 10:15:00.621";"1";"0";"1";"125";"124";"module.training_block4.exec-6390.GoNoGo4";;;;;;;;;;;;;;;;;;;;;;;;;;;;;;;;;;;;;;;;;;;;;;;;;;;;;;;;;;;"1261";"2014-10-07 10:09:45.406";"ST_correctStop";"27";"1";"FINISHED";"NONE";"success";"0";"1";"2014-10-07 10:09:44.143";"3";;;;;;;;;;;;;;;;;;;;;
"c1210535";;;"Windows 7";"Rachel's Experiment (D.T.)";"1.0";"2";"1";"1";"2";"1";"1";"2014-10-07 10:02:31.055";"2014-10-07 10:15:00.621";"1";"0";"1";"126";"125";"module.training_block4.exec-6390.GoNoGo4";;;;;;;;;;;;;;;;;;;;;;;;;;;;;;;;;;;;;;;;;;;;;;;;;;;;;;;;;;;"1262";"2014-10-07 10:09:47.934";"NST_correctLoc";"10";"1";"FINISHED";"RIGHT";"success";"406";"0";"2014-10-07 10:09:46.670";"2";;;;;;;;;;;;;;;;;;;;;
"c1210535";;;"Windows 7";"Rachel's Experiment (D.T.)";"1.0";"2";"1";"1";"2";"1";"1";"2014-10-07 10:02:31.055";"2014-10-07 10:15:00.621";"1";"0";"1";"127";"126";"module.training_block4.exec-6390.GoNoGo4";;;;;;;;;;;;;;;;;;;;;;;;;;;;;;;;;;;;;;;;;;;;;;;;;;;;;;;;;;;"1261";"2014-10-07 10:09:50.476";"ST_correctStop";"4";"0";"FINISHED";"NONE";"success";"0";"1";"2014-10-07 10:09:49.213";"1";;;;;;;;;;;;;;;;;;;;;
"c1210535";;;"Windows 7";"Rachel's Experiment (D.T.)";"1.0";"2";"1";"1";"2";"1";"1";"2014-10-07 10:02:31.055";"2014-10-07 10:15:00.621";"1";"0";"1";"128";"127";"module.training_block4.exec-6390.GoNoGo4";;;;;;;;;;;;;;;;;;;;;;;;;;;;;;;;;;;;;;;;;;;;;;;;;;;;;;;;;;;"1262";"2014-10-07 10:09:53.035";"ST_correctStop";"19";"0";"FINISHED";"NONE";"success";"0";"1";"2014-10-07 10:09:51.771";"3";;;;;;;;;;;;;;;;;;;;;
"c1210535";;;"Windows 7";"Rachel's Experiment (D.T.)";"1.0";"2";"1";"1";"2";"1";"1";"2014-10-07 10:02:31.055";"2014-10-07 10:15:00.621";"1";"0";"1";"129";"128";"module.training_block4.exec-6390.GoNoGo4";;;;;;;;;;;;;;;;;;;;;;;;;;;;;;;;;;;;;;;;;;;;;;;;;;;;;;;;;;;"1262";"2014-10-07 10:09:55.578";"NST_correctLoc";"33";"0";"FINISHED";"LEFT";"success";"386";"0";"2014-10-07 10:09:54.314";"3";;;;;;;;;;;;;;;;;;;;;
"c1210535";;;"Windows 7";"Rachel's Experiment (D.T.)";"1.0";"2";"1";"1";"2";"1";"1";"2014-10-07 10:02:31.055";"2014-10-07 10:15:00.621";"1";"0";"1";"130";"129";"module.training_block4.exec-6390.GoNoGo4";;;;;;;;;;;;;;;;;;;;;;;;;;;;;;;;;;;;;;;;;;;;;;;;;;;;;;;;;;;"1261";"2014-10-07 10:09:58.120";"ST_correctStop";"29";"0";"FINISHED";"NONE";"success";"0";"1";"2014-10-07 10:09:56.857";"3";;;;;;;;;;;;;;;;;;;;;
"c1210535";;;"Windows 7";"Rachel's Experiment (D.T.)";"1.0";"2";"1";"1";"2";"1";"1";"2014-10-07 10:02:31.055";"2014-10-07 10:15:00.621";"1";"0";"1";"131";"130";"module.training_block4.exec-6390.GoNoGo4";;;;;;;;;;;;;;;;;;;;;;;;;;;;;;;;;;;;;;;;;;;;;;;;;;;;;;;;;;;"1262";"2014-10-07 10:10:00.648";"ST_correctStop";"6";"1";"FINISHED";"NONE";"success";"0";"1";"2014-10-07 10:09:59.384";"1";;;;;;;;;;;;;;;;;;;;;
"c1210535";;;"Windows 7";"Rachel's Experiment (D.T.)";"1.0";"2";"1";"1";"2";"1";"1";"2014-10-07 10:02:31.055";"2014-10-07 10:15:00.621";"1";"0";"1";"132";"131";"module.training_block4.exec-6390.GoNoGo4";;;;;;;;;;;;;;;;;;;;;;;;;;;;;;;;;;;;;;;;;;;;;;;;;;;;;;;;;;;"1261";"2014-10-07 10:10:03.175";"ST_correctStop";"24";"0";"FINISHED";"NONE";"success";"0";"1";"2014-10-07 10:10:01.911";"3";;;;;;;;;;;;;;;;;;;;;
"c1210535";;;"Windows 7";"Rachel's Experiment (D.T.)";"1.0";"2";"1";"1";"2";"1";"1";"2014-10-07 10:02:31.055";"2014-10-07 10:15:00.621";"1";"0";"1";"133";"132";"module.training_block4.exec-6390.GoNoGo4";;;;;;;;;;;;;;;;;;;;;;;;;;;;;;;;;;;;;;;;;;;;;;;;;;;;;;;;;;;"1261";"2014-10-07 10:10:05.702";"NST_correctLoc";"31";"0";"FINISHED";"LEFT";"success";"430";"0";"2014-10-07 10:10:04.438";"3";;;;;;;;;;;;;;;;;;;;;
"c1210535";;;"Windows 7";"Rachel's Experiment (D.T.)";"1.0";"2";"1";"1";"2";"1";"1";"2014-10-07 10:02:31.055";"2014-10-07 10:15:00.621";"1";"0";"1";"134";"133";"module.training_block4.exec-6390.GoNoGo4";;;;;;;;;;;;;;;;;;;;;;;;;;;;;;;;;;;;;;;;;;;;;;;;;;;;;;;;;;;"1261";"2014-10-07 10:10:08.229";"NST_correctLoc";"17";"0";"FINISHED";"LEFT";"success";"383";"0";"2014-10-07 10:10:06.966";"2";;;;;;;;;;;;;;;;;;;;;
"c1210535";;;"Windows 7";"Rachel's Experiment (D.T.)";"1.0";"2";"1";"1";"2";"1";"1";"2014-10-07 10:02:31.055";"2014-10-07 10:15:00.621";"1";"0";"1";"135";"134";"module.training_block4.exec-6390.GoNoGo4";;;;;;;;;;;;;;;;;;;;;;;;;;;;;;;;;;;;;;;;;;;;;;;;;;;;;;;;;;;"1261";"2014-10-07 10:10:10.756";"NST_correctLoc";"16";"1";"FINISHED";"RIGHT";"success";"423";"0";"2014-10-07 10:10:09.493";"2";;;;;;;;;;;;;;;;;;;;;
"c1210535";;;"Windows 7";"Rachel's Experiment (D.T.)";"1.0";"2";"1";"1";"2";"1";"1";"2014-10-07 10:02:31.055";"2014-10-07 10:15:00.621";"1";"0";"1";"136";"135";"module.training_block4.exec-6390.GoNoGo4";;;;;;;;;;;;;;;;;;;;;;;;;;;;;;;;;;;;;;;;;;;;;;;;;;;;;;;;;;;"1261";"2014-10-07 10:10:13.284";"NST_correctLoc";"18";"1";"FINISHED";"RIGHT";"success";"496";"0";"2014-10-07 10:10:12.020";"3";;;;;;;;;;;;;;;;;;;;;
"c1210535";;;"Windows 7";"Rachel's Experiment (D.T.)";"1.0";"2";"1";"1";"2";"1";"1";"2014-10-07 10:02:31.055";"2014-10-07 10:15:00.621";"1";"0";"1";"137";"136";"module.training_block4.exec-6390.GoNoGo4";;;;;;;;;;;;;;;;;;;;;;;;;;;;;;;;;;;;;;;;;;;;;;;;;;;;;;;;;;;"1262";"2014-10-07 10:10:15.811";"ST_correctStop";"0";"1";"FINISHED";"NONE";"success";"0";"1";"2014-10-07 10:10:14.547";"1";;;;;;;;;;;;;;;;;;;;;
"c1210535";;;"Windows 7";"Rachel's Experiment (D.T.)";"1.0";"2";"1";"1";"2";"1";"1";"2014-10-07 10:02:31.055";"2014-10-07 10:15:00.621";"1";"0";"1";"138";"137";"module.training_block4.exec-6390.GoNoGo4";;;;;;;;;;;;;;;;;;;;;;;;;;;;;;;;;;;;;;;;;;;;;;;;;;;;;;;;;;;"1261";"2014-10-07 10:10:18.354";"ST_correctStop";"3";"0";"FINISHED";"NONE";"success";"0";"1";"2014-10-07 10:10:17.090";"1";;;;;;;;;;;;;;;;;;;;;
"c1210535";;;"Windows 7";"Rachel's Experiment (D.T.)";"1.0";"2";"1";"1";"2";"1";"1";"2014-10-07 10:02:31.055";"2014-10-07 10:15:00.621";"1";"0";"1";"139";"138";"module.training_block4.exec-6390.GoNoGo4";;;;;;;;;;;;;;;;;;;;;;;;;;;;;;;;;;;;;;;;;;;;;;;;;;;;;;;;;;;"1262";"2014-10-07 10:10:20.881";"ST_correctStop";"32";"1";"FINISHED";"NONE";"success";"0";"1";"2014-10-07 10:10:19.617";"3";;;;;;;;;;;;;;;;;;;;;
"c1210535";;;"Windows 7";"Rachel's Experiment (D.T.)";"1.0";"2";"1";"1";"2";"1";"1";"2014-10-07 10:02:31.055";"2014-10-07 10:15:00.621";"1";"0";"1";"140";"139";"module.training_block4.exec-6390.GoNoGo4";;;;;;;;;;;;;;;;;;;;;;;;;;;;;;;;;;;;;;;;;;;;;;;;;;;;;;;;;;;"1262";"2014-10-07 10:10:23.408";"ST_correctStop";"1";"0";"FINISHED";"NONE";"success";"0";"1";"2014-10-07 10:10:22.145";"1";;;;;;;;;;;;;;;;;;;;;
"c1210535";;;"Windows 7";"Rachel's Experiment (D.T.)";"1.0";"2";"1";"1";"2";"1";"1";"2014-10-07 10:02:31.055";"2014-10-07 10:15:00.621";"1";"0";"1";"141";"140";"module.training_block4.exec-6390.GoNoGo4";;;;;;;;;;;;;;;;;;;;;;;;;;;;;;;;;;;;;;;;;;;;;;;;;;;;;;;;;;;"1261";"2014-10-07 10:10:25.935";"ST_correctStop";"23";"0";"FINISHED";"NONE";"success";"0";"1";"2014-10-07 10:10:24.672";"3";;;;;;;;;;;;;;;;;;;;;
"c1210535";;;"Windows 7";"Rachel's Experiment (D.T.)";"1.0";"2";"1";"1";"2";"1";"1";"2014-10-07 10:02:31.055";"2014-10-07 10:15:00.621";"1";"0";"1";"142";"141";"module.training_block4.exec-6390.GoNoGo4";;;;;;;;;;;;;;;;;;;;;;;;;;;;;;;;;;;;;;;;;;;;;;;;;;;;;;;;;;;"1261";"2014-10-07 10:10:28.463";"NST_correctLoc";"20";"0";"FINISHED";"LEFT";"success";"429";"0";"2014-10-07 10:10:27.199";"3";;;;;;;;;;;;;;;;;;;;;
"c1210535";;;"Windows 7";"Rachel's Experiment (D.T.)";"1.0";"2";"1";"1";"2";"1";"1";"2014-10-07 10:02:31.055";"2014-10-07 10:15:00.621";"1";"0";"1";"143";"142";"module.training_block4.exec-6390.GoNoGo4";;;;;;;;;;;;;;;;;;;;;;;;;;;;;;;;;;;;;;;;;;;;;;;;;;;;;;;;;;;"1261";"2014-10-07 10:10:31.005";"ST_correctStop";"30";"1";"FINISHED";"NONE";"success";"0";"1";"2014-10-07 10:10:29.742";"3";;;;;;;;;;;;;;;;;;;;;
"c1210535";;;"Windows 7";"Rachel's Experiment (D.T.)";"1.0";"2";"1";"1";"2";"1";"1";"2014-10-07 10:02:31.055";"2014-10-07 10:15:00.621";"1";"0";"1";"144";"143";"module.training_block4.exec-6390.GoNoGo4";;;;;;;;;;;;;;;;;;;;;;;;;;;;;;;;;;;;;;;;;;;;;;;;;;;;;;;;;;;"1261";"2014-10-07 10:10:33.533";"NST_correctLoc";"35";"0";"FINISHED";"LEFT";"success";"391";"0";"2014-10-07 10:10:32.269";"3";;;;;;;;;;;;;;;;;;;;;
"c1210535";;;"Windows 7";"Rachel's Experiment (D.T.)";"1.0";"2";"1";"1";"2";"1";"1";"2014-10-07 10:02:31.055";"2014-10-07 10:15:00.621";"1";"0";"1";"145";"144";"module.training_block4.exec-6390.GoNoGo4";;;;;;;;;;;;;;;;;;;;;;;;;;;;;;;;;;;;;;;;;;;;;;;;;;;;;;;;;;;"1261";"2014-10-07 10:10:36.060";"NST_correctLoc";"9";"1";"FINISHED";"RIGHT";"success";"448";"0";"2014-10-07 10:10:34.796";"2";;;;;;;;;;;;;;;;;;;;;
"c1210535";;;"Windows 7";"Rachel's Experiment (D.T.)";"1.0";"2";"1";"1";"2";"1";"1";"2014-10-07 10:02:31.055";"2014-10-07 10:15:00.621";"1";"0";"1";"146";"145";"module.training_block4.exec-6390.GoNoGo4";;;;;;;;;;;;;;;;;;;;;;;;;;;;;;;;;;;;;;;;;;;;;;;;;;;;;;;;;;;"1261";"2014-10-07 10:10:38.618";"ST_correctStop";"2";"1";"FINISHED";"NONE";"success";"0";"1";"2014-10-07 10:10:37.355";"1";;;;;;;;;;;;;;;;;;;;;
"c1210535";;;"Windows 7";"Rachel's Experiment (D.T.)";"1.0";"2";"1";"1";"2";"1";"1";"2014-10-07 10:02:31.055";"2014-10-07 10:15:00.621";"1";"0";"1";"147";"146";"module.training_block4.exec-6390.GoNoGo4";;;;;;;;;;;;;;;;;;;;;;;;;;;;;;;;;;;;;;;;;;;;;;;;;;;;;;;;;;;"1261";"2014-10-07 10:10:41.145";"ST_correctStop";"28";"1";"FINISHED";"NONE";"success";"0";"1";"2014-10-07 10:10:39.882";"3";;;;;;;;;;;;;;;;;;;;;
"c1210535";;;"Windows 7";"Rachel's Experiment (D.T.)";"1.0";"2";"1";"1";"2";"1";"1";"2014-10-07 10:02:31.055";"2014-10-07 10:15:00.621";"1";"0";"1";"148";"147";"module.training_block4.exec-6390.GoNoGo4";;;;;;;;;;;;;;;;;;;;;;;;;;;;;;;;;;;;;;;;;;;;;;;;;;;;;;;;;;;"1261";"2014-10-07 10:10:43.688";"ST_correctStop";"8";"0";"FINISHED";"NONE";"success";"0";"1";"2014-10-07 10:10:42.425";"1";;;;;;;;;;;;;;;;;;;;;
"c1210535";;;"Windows 7";"Rachel's Experiment (D.T.)";"1.0";"2";"1";"1";"2";"1";"1";"2014-10-07 10:02:31.055";"2014-10-07 10:15:00.621";"1";"0";"1";"149";"148";"module.training_block4.exec-6390.GoNoGo4";;;;;;;;;;;;;;;;;;;;;;;;;;;;;;;;;;;;;;;;;;;;;;;;;;;;;;;;;;;"1261";"2014-10-07 10:10:46.215";"NST_correctLoc";"25";"1";"FINISHED";"RIGHT";"success";"460";"0";"2014-10-07 10:10:44.952";"3";;;;;;;;;;;;;;;;;;;;;
"c1210535";;;"Windows 7";"Rachel's Experiment (D.T.)";"1.0";"2";"1";"1";"2";"1";"1";"2014-10-07 10:02:31.055";"2014-10-07 10:15:00.621";"1";"0";"1";"150";"149";"module.training_block4.exec-6390.GoNoGo4";;;;;;;;;;;;;;;;;;;;;;;;;;;;;;;;;;;;;;;;;;;;;;;;;;;;;;;;;;;"1261";"2014-10-07 10:10:48.743";"NST_correctLoc";"14";"1";"FINISHED";"RIGHT";"success";"413";"0";"2014-10-07 10:10:47.479";"2";;;;;;;;;;;;;;;;;;;;;
"c1210535";;;"Windows 7";"Rachel's Experiment (D.T.)";"1.0";"2";"1";"1";"2";"1";"1";"2014-10-07 10:02:31.055";"2014-10-07 10:15:00.621";"1";"0";"1";"151";"150";"module.training_block4.exec-6390.GoNoGo4";;;;;;;;;;;;;;;;;;;;;;;;;;;;;;;;;;;;;;;;;;;;;;;;;;;;;;;;;;;"1261";"2014-10-07 10:10:51.301";"NST_correctLoc";"21";"1";"FINISHED";"RIGHT";"success";"415";"0";"2014-10-07 10:10:50.037";"3";;;;;;;;;;;;;;;;;;;;;
"c1210535";;;"Windows 7";"Rachel's Experiment (D.T.)";"1.0";"2";"1";"1";"2";"1";"1";"2014-10-07 10:02:31.055";"2014-10-07 10:15:00.621";"1";"0";"1";"152";"151";"module.training_block4.exec-6390.GoNoGo4";;;;;;;;;;;;;;;;;;;;;;;;;;;;;;;;;;;;;;;;;;;;;;;;;;;;;;;;;;;"1261";"2014-10-07 10:10:53.844";"NST_correctLoc";"15";"1";"FINISHED";"RIGHT";"success";"384";"0";"2014-10-07 10:10:52.580";"2";;;;;;;;;;;;;;;;;;;;;
"c1210535";;;"Windows 7";"Rachel's Experiment (D.T.)";"1.0";"2";"1";"1";"2";"1";"1";"2014-10-07 10:02:31.055";"2014-10-07 10:15:00.621";"1";"0";"1";"153";"152";"module.training_block4.exec-6390.GoNoGo4";;;;;;;;;;;;;;;;;;;;;;;;;;;;;;;;;;;;;;;;;;;;;;;;;;;;;;;;;;;"1261";"2014-10-07 10:10:56.402";"ST_correctStop";"7";"0";"FINISHED";"NONE";"success";"0";"1";"2014-10-07 10:10:55.139";"1";;;;;;;;;;;;;;;;;;;;;
"c1210535";;;"Windows 7";"Rachel's Experiment (D.T.)";"1.0";"2";"1";"1";"2";"1";"1";"2014-10-07 10:02:31.055";"2014-10-07 10:15:00.621";"1";"0";"1";"154";"153";"module.training_block4.exec-6390.GoNoGo4";;;;;;;;;;;;;;;;;;;;;;;;;;;;;;;;;;;;;;;;;;;;;;;;;;;;;;;;;;;"1261";"2014-10-07 10:10:58.929";"NST_correctLoc";"11";"1";"FINISHED";"RIGHT";"success";"410";"0";"2014-10-07 10:10:57.666";"2";;;;;;;;;;;;;;;;;;;;;
"c1210535";;;"Windows 7";"Rachel's Experiment (D.T.)";"1.0";"2";"1";"1";"2";"1";"1";"2014-10-07 10:02:31.055";"2014-10-07 10:15:00.621";"1";"0";"1";"155";"154";"module.training_block4.exec-6390.GoNoGo4";;;;;;;;;;;;;;;;;;;;;;;;;;;;;;;;;;;;;;;;;;;;;;;;;;;;;;;;;;;"1261";"2014-10-07 10:11:01.472";"NST_correctLoc";"26";"0";"FINISHED";"LEFT";"success";"411";"0";"2014-10-07 10:11:00.209";"3";;;;;;;;;;;;;;;;;;;;;
"c1210535";;;"Windows 7";"Rachel's Experiment (D.T.)";"1.0";"2";"1";"1";"2";"1";"1";"2014-10-07 10:02:31.055";"2014-10-07 10:15:00.621";"1";"0";"1";"156";"155";"module.training_block4.exec-6390.GoNoGo4";;;;;;;;;;;;;;;;;;;;;;;;;;;;;;;;;;;;;;;;;;;;;;;;;;;;;;;;;;;"1261";"2014-10-07 10:11:03.999";"ST_correctStop";"5";"0";"FINISHED";"NONE";"success";"0";"1";"2014-10-07 10:11:02.736";"1";;;;;;;;;;;;;;;;;;;;;
"c1210535";;;"Windows 7";"Rachel's Experiment (D.T.)";"1.0";"2";"1";"1";"2";"1";"1";"2014-10-07 10:02:31.055";"2014-10-07 10:15:00.621";"1";"0";"1";"157";"156";"module.training_block4.exec-6390.GoNoGo4";;;;;;;;;;;;;;;;;;;;;;;;;;;;;;;;;;;;;;;;;;;;;;;;;;;;;;;;;;;"1262";"2014-10-07 10:11:06.527";"NST_correctLoc";"12";"0";"FINISHED";"LEFT";"success";"437";"0";"2014-10-07 10:11:05.263";"2";;;;;;;;;;;;;;;;;;;;;
"c1210535";;;"Windows 7";"Rachel's Experiment (D.T.)";"1.0";"2";"1";"1";"2";"1";"1";"2014-10-07 10:02:31.055";"2014-10-07 10:15:00.621";"1";"0";"1";"158";"157";"module.training_block4.exec-6390.GoNoGo4";;;;;;;;;;;;;;;;;;;;;;;;;;;;;;;;;;;;;;;;;;;;;;;;;;;;;;;;;;;"1261";"2014-10-07 10:11:09.085";"ST_correctStop";"22";"1";"FINISHED";"NONE";"success";"0";"1";"2014-10-07 10:11:07.821";"3";;;;;;;;;;;;;;;;;;;;;
"c1210535";;;"Windows 7";"Rachel's Experiment (D.T.)";"1.0";"2";"1";"1";"2";"1";"1";"2014-10-07 10:02:31.055";"2014-10-07 10:15:00.621";"1";"0";"1";"159";"158";"module.training_block4.exec-6390.GoNoGo4";;;;;;;;;;;;;;;;;;;;;;;;;;;;;;;;;;;;;;;;;;;;;;;;;;;;;;;;;;;"1261";"2014-10-07 10:11:11.612";"NST_correctLoc";"34";"1";"FINISHED";"RIGHT";"success";"543";"0";"2014-10-07 10:11:10.349";"3";;;;;;;;;;;;;;;;;;;;;
"c1210535";;;"Windows 7";"Rachel's Experiment (D.T.)";"1.0";"2";"1";"1";"2";"1";"1";"2014-10-07 10:02:31.055";"2014-10-07 10:15:00.621";"1";"0";"1";"160";"159";"module.devaluation_practice.exec-2217.devalPractice";;;;;;;;;;;;"16011";"2014-10-07 10:11:57.445";"0";"5";"5";"5";"4715";"4281";"3968";"2014-10-07 10:11:41.424";;;;;;;;;;;;;;;;;;;;;;;;;;;;;;;;;;;;;;;;;;;;;;;;;;;;;;;;;;;;;;;;;;;;;;
"c1210535";;;"Windows 7";"Rachel's Experiment (D.T.)";"1.0";"2";"1";"1";"2";"1";"1";"2014-10-07 10:02:31.055";"2014-10-07 10:15:00.621";"1";"0";"1";"161";"160";"module.devaluation_practice.exec-2217.devalPractice";;;;;;;;;;;;"8836";"2014-10-07 10:12:06.290";"1";"8";"8";"7";"2233";"1053";"2522";"2014-10-07 10:11:57.461";;;;;;;;;;;;;;;;;;;;;;;;;;;;;;;;;;;;;;;;;;;;;;;;;;;;;;;;;;;;;;;;;;;;;;
"c1210535";;;"Windows 7";"Rachel's Experiment (D.T.)";"1.0";"2";"1";"1";"2";"1";"1";"2014-10-07 10:02:31.055";"2014-10-07 10:15:00.621";"1";"0";"1";"162";"161";"module.devaluation_practice.exec-2217.devalPractice";;;;;;;;;;;;"7453";"2014-10-07 10:12:13.763";"2";"7";"6";"7";"1084";"1911";"1447";"2014-10-07 10:12:06.306";;;;;;;;;;;;;;;;;;;;;;;;;;;;;;;;;;;;;;;;;;;;;;;;;;;;;;;;;;;;;;;;;;;;;;
"c1210535";;;"Windows 7";"Rachel's Experiment (D.T.)";"1.0";"2";"1";"1";"2";"1";"1";"2014-10-07 10:02:31.055";"2014-10-07 10:15:00.621";"1";"0";"1";"163";"162";"module.devaluation_practice.exec-2217.devalPractice";;;;;;;;;;;;"5588";"2014-10-07 10:12:19.379";"3";"4";"4";"3";"819";"670";"1080";"2014-10-07 10:12:13.778";;;;;;;;;;;;;;;;;;;;;;;;;;;;;;;;;;;;;;;;;;;;;;;;;;;;;;;;;;;;;;;;;;;;;;
"c1210535";;;"Windows 7";"Rachel's Experiment (D.T.)";"1.0";"2";"1";"1";"2";"1";"1";"2014-10-07 10:02:31.055";"2014-10-07 10:15:00.621";"1";"0";"1";"164";"163";"module.devaluation_block1.exec-2416.deval1";"5364";"2014-10-07 10:12:30.314";"3";"6";"5";"5";"745";"406";"1170";"2014-10-07 10:12:24.948";"1";;;;;;;;;;;;;;;;;;;;;;;;;;;;;;;;;;;;;;;;;;;;;;;;;;;;;;;;;;;;;;;;;;;;;;;;;;;;;;;;
"c1210535";;;"Windows 7";"Rachel's Experiment (D.T.)";"1.0";"2";"1";"1";"2";"1";"1";"2014-10-07 10:02:31.055";"2014-10-07 10:15:00.621";"1";"0";"1";"165";"164";"module.devaluation_block1.exec-2416.deval1";"5860";"2014-10-07 10:12:36.196";"23";"7";"8";"8";"884";"950";"1007";"2014-10-07 10:12:30.330";"3";;;;;;;;;;;;;;;;;;;;;;;;;;;;;;;;;;;;;;;;;;;;;;;;;;;;;;;;;;;;;;;;;;;;;;;;;;;;;;;;
"c1210535";;;"Windows 7";"Rachel's Experiment (D.T.)";"1.0";"2";"1";"1";"2";"1";"1";"2014-10-07 10:02:31.055";"2014-10-07 10:15:00.621";"1";"0";"1";"166";"165";"module.devaluation_block1.exec-2416.deval1";"5830";"2014-10-07 10:12:42.030";"12";"6";"5";"6";"538";"371";"1893";"2014-10-07 10:12:36.211";"2";;;;;;;;;;;;;;;;;;;;;;;;;;;;;;;;;;;;;;;;;;;;;;;;;;;;;;;;;;;;;;;;;;;;;;;;;;;;;;;;
"c1210535";;;"Windows 7";"Rachel's Experiment (D.T.)";"1.0";"2";"1";"1";"2";"1";"1";"2014-10-07 10:02:31.055";"2014-10-07 10:15:00.621";"1";"0";"1";"167";"166";"module.devaluation_block1.exec-2416.deval1";"5531";"2014-10-07 10:12:47.584";"5";"4";"5";"5";"1264";"369";"862";"2014-10-07 10:12:42.061";"1";;;;;;;;;;;;;;;;;;;;;;;;;;;;;;;;;;;;;;;;;;;;;;;;;;;;;;;;;;;;;;;;;;;;;;;;;;;;;;;;
"c1210535";;;"Windows 7";"Rachel's Experiment (D.T.)";"1.0";"2";"1";"1";"2";"1";"1";"2014-10-07 10:02:31.055";"2014-10-07 10:15:00.621";"1";"0";"1";"168";"167";"module.devaluation_block1.exec-2416.deval1";"5428";"2014-10-07 10:12:53.044";"8";"7";"7";"7";"751";"747";"895";"2014-10-07 10:12:47.615";"1";;;;;;;;;;;;;;;;;;;;;;;;;;;;;;;;;;;;;;;;;;;;;;;;;;;;;;;;;;;;;;;;;;;;;;;;;;;;;;;;
"c1210535";;;"Windows 7";"Rachel's Experiment (D.T.)";"1.0";"2";"1";"1";"2";"1";"1";"2014-10-07 10:02:31.055";"2014-10-07 10:15:00.621";"1";"0";"1";"169";"168";"module.devaluation_block1.exec-2416.deval1";"4980";"2014-10-07 10:12:58.036";"19";"5";"5";"5";"1051";"365";"539";"2014-10-07 10:12:53.059";"3";;;;;;;;;;;;;;;;;;;;;;;;;;;;;;;;;;;;;;;;;;;;;;;;;;;;;;;;;;;;;;;;;;;;;;;;;;;;;;;;
"c1210535";;;"Windows 7";"Rachel's Experiment (D.T.)";"1.0";"2";"1";"1";"2";"1";"1";"2014-10-07 10:02:31.055";"2014-10-07 10:15:00.621";"1";"0";"1";"170";"169";"module.devaluation_block1.exec-2416.deval1";"5740";"2014-10-07 10:13:03.808";"4";"8";"7";"8";"963";"824";"928";"2014-10-07 10:12:58.067";"1";;;;;;;;;;;;;;;;;;;;;;;;;;;;;;;;;;;;;;;;;;;;;;;;;;;;;;;;;;;;;;;;;;;;;;;;;;;;;;;;
"c1210535";;;"Windows 7";"Rachel's Experiment (D.T.)";"1.0";"2";"1";"1";"2";"1";"1";"2014-10-07 10:02:31.055";"2014-10-07 10:15:00.621";"1";"0";"1";"171";"170";"module.devaluation_block1.exec-2416.deval1";"5205";"2014-10-07 10:13:09.034";"9";"4";"3";"3";"766";"687";"727";"2014-10-07 10:13:03.823";"2";;;;;;;;;;;;;;;;;;;;;;;;;;;;;;;;;;;;;;;;;;;;;;;;;;;;;;;;;;;;;;;;;;;;;;;;;;;;;;;;
"c1210535";;;"Windows 7";"Rachel's Experiment (D.T.)";"1.0";"2";"1";"1";"2";"1";"1";"2014-10-07 10:02:31.055";"2014-10-07 10:15:00.621";"1";"0";"1";"172";"171";"module.devaluation_block1.exec-2416.deval1";"5909";"2014-10-07 10:13:14.962";"10";"3";"3";"3";"780";"1030";"1061";"2014-10-07 10:13:09.049";"2";;;;;;;;;;;;;;;;;;;;;;;;;;;;;;;;;;;;;;;;;;;;;;;;;;;;;;;;;;;;;;;;;;;;;;;;;;;;;;;;
"c1210535";;;"Windows 7";"Rachel's Experiment (D.T.)";"1.0";"2";"1";"1";"2";"1";"1";"2014-10-07 10:02:31.055";"2014-10-07 10:15:00.621";"1";"0";"1";"173";"172";"module.devaluation_block1.exec-2416.deval1";"5725";"2014-10-07 10:13:20.702";"0";"7";"6";"6";"964";"721";"1010";"2014-10-07 10:13:14.977";"1";;;;;;;;;;;;;;;;;;;;;;;;;;;;;;;;;;;;;;;;;;;;;;;;;;;;;;;;;;;;;;;;;;;;;;;;;;;;;;;;
"c1210535";;;"Windows 7";"Rachel's Experiment (D.T.)";"1.0";"2";"1";"1";"2";"1";"1";"2014-10-07 10:02:31.055";"2014-10-07 10:15:00.621";"1";"0";"1";"174";"173";"module.devaluation_block1.exec-2416.deval1";"6640";"2014-10-07 10:13:27.379";"26";"9";"9";"9";"1160";"1340";"1115";"2014-10-07 10:13:20.734";"3";;;;;;;;;;;;;;;;;;;;;;;;;;;;;;;;;;;;;;;;;;;;;;;;;;;;;;;;;;;;;;;;;;;;;;;;;;;;;;;;
"c1210535";;;"Windows 7";"Rachel's Experiment (D.T.)";"1.0";"2";"1";"1";"2";"1";"1";"2014-10-07 10:02:31.055";"2014-10-07 10:15:00.621";"1";"0";"1";"175";"174";"module.devaluation_block1.exec-2416.deval1";"5044";"2014-10-07 10:13:32.543";"25";"6";"6";"6";"597";"847";"548";"2014-10-07 10:13:27.504";"3";;;;;;;;;;;;;;;;;;;;;;;;;;;;;;;;;;;;;;;;;;;;;;;;;;;;;;;;;;;;;;;;;;;;;;;;;;;;;;;;
"c1210535";;;"Windows 7";"Rachel's Experiment (D.T.)";"1.0";"2";"1";"1";"2";"1";"1";"2014-10-07 10:02:31.055";"2014-10-07 10:15:00.621";"1";"0";"1";"176";"175";"module.devaluation_block1.exec-2416.deval1";"4917";"2014-10-07 10:13:37.488";"18";"7";"6";"6";"775";"501";"608";"2014-10-07 10:13:32.574";"3";;;;;;;;;;;;;;;;;;;;;;;;;;;;;;;;;;;;;;;;;;;;;;;;;;;;;;;;;;;;;;;;;;;;;;;;;;;;;;;;
"c1210535";;;"Windows 7";"Rachel's Experiment (D.T.)";"1.0";"2";"1";"1";"2";"1";"1";"2014-10-07 10:02:31.055";"2014-10-07 10:15:00.621";"1";"0";"1";"177";"176";"module.devaluation_block1.exec-2416.deval1";"6024";"2014-10-07 10:13:43.541";"13";"8";"9";"8";"974";"1097";"932";"2014-10-07 10:13:37.519";"2";;;;;;;;;;;;;;;;;;;;;;;;;;;;;;;;;;;;;;;;;;;;;;;;;;;;;;;;;;;;;;;;;;;;;;;;;;;;;;;;
"c1210535";;;"Windows 7";"Rachel's Experiment (D.T.)";"1.0";"2";"1";"1";"2";"1";"1";"2014-10-07 10:02:31.055";"2014-10-07 10:15:00.621";"1";"0";"1";"178";"177";"module.devaluation_block1.exec-2416.deval1";"5061";"2014-10-07 10:13:48.626";"6";"7";"6";"6";"801";"576";"667";"2014-10-07 10:13:43.556";"1";;;;;;;;;;;;;;;;;;;;;;;;;;;;;;;;;;;;;;;;;;;;;;;;;;;;;;;;;;;;;;;;;;;;;;;;;;;;;;;;
"c1210535";;;"Windows 7";"Rachel's Experiment (D.T.)";"1.0";"2";"1";"1";"2";"1";"1";"2014-10-07 10:02:31.055";"2014-10-07 10:15:00.621";"1";"0";"1";"179";"178";"module.devaluation_block1.exec-2416.deval1";"4589";"2014-10-07 10:13:53.228";"1";"5";"6";"6";"451";"567";"540";"2014-10-07 10:13:48.642";"1";;;;;;;;;;;;;;;;;;;;;;;;;;;;;;;;;;;;;;;;;;;;;;;;;;;;;;;;;;;;;;;;;;;;;;;;;;;;;;;;
"c1210535";;;"Windows 7";"Rachel's Experiment (D.T.)";"1.0";"2";"1";"1";"2";"1";"1";"2014-10-07 10:02:31.055";"2014-10-07 10:15:00.621";"1";"0";"1";"180";"179";"module.devaluation_block1.exec-2416.deval1";"5492";"2014-10-07 10:13:58.735";"2";"5";"6";"6";"1289";"712";"479";"2014-10-07 10:13:53.244";"1";;;;;;;;;;;;;;;;;;;;;;;;;;;;;;;;;;;;;;;;;;;;;;;;;;;;;;;;;;;;;;;;;;;;;;;;;;;;;;;;
"c1210535";;;"Windows 7";"Rachel's Experiment (D.T.)";"1.0";"2";"1";"1";"2";"1";"1";"2014-10-07 10:02:31.055";"2014-10-07 10:15:00.621";"1";"0";"1";"181";"180";"module.devaluation_block1.exec-2416.deval1";"5853";"2014-10-07 10:14:04.616";"22";"8";"9";"8";"903";"1000";"907";"2014-10-07 10:13:58.766";"3";;;;;;;;;;;;;;;;;;;;;;;;;;;;;;;;;;;;;;;;;;;;;;;;;;;;;;;;;;;;;;;;;;;;;;;;;;;;;;;;
"c1210535";;;"Windows 7";"Rachel's Experiment (D.T.)";"1.0";"2";"1";"1";"2";"1";"1";"2014-10-07 10:02:31.055";"2014-10-07 10:15:00.621";"1";"0";"1";"182";"181";"module.devaluation_block1.exec-2416.deval1";"7045";"2014-10-07 10:14:11.683";"24";"9";"9";"9";"1109";"1730";"1167";"2014-10-07 10:14:04.632";"3";;;;;;;;;;;;;;;;;;;;;;;;;;;;;;;;;;;;;;;;;;;;;;;;;;;;;;;;;;;;;;;;;;;;;;;;;;;;;;;;
"c1210535";;;"Windows 7";"Rachel's Experiment (D.T.)";"1.0";"2";"1";"1";"2";"1";"1";"2014-10-07 10:02:31.055";"2014-10-07 10:15:00.621";"1";"0";"1";"183";"182";"module.devaluation_block1.exec-2416.deval1";"6493";"2014-10-07 10:14:18.189";"14";"6";"7";"6";"538";"2439";"493";"2014-10-07 10:14:11.699";"2";;;;;;;;;;;;;;;;;;;;;;;;;;;;;;;;;;;;;;;;;;;;;;;;;;;;;;;;;;;;;;;;;;;;;;;;;;;;;;;;
"c1210535";;;"Windows 7";"Rachel's Experiment (D.T.)";"1.0";"2";"1";"1";"2";"1";"1";"2014-10-07 10:02:31.055";"2014-10-07 10:15:00.621";"1";"0";"1";"184";"183";"module.devaluation_block1.exec-2416.deval1";"6264";"2014-10-07 10:14:24.475";"21";"4";"5";"4";"1474";"662";"1092";"2014-10-07 10:14:18.220";"3";;;;;;;;;;;;;;;;;;;;;;;;;;;;;;;;;;;;;;;;;;;;;;;;;;;;;;;;;;;;;;;;;;;;;;;;;;;;;;;;
"c1210535";;;"Windows 7";"Rachel's Experiment (D.T.)";"1.0";"2";"1";"1";"2";"1";"1";"2014-10-07 10:02:31.055";"2014-10-07 10:15:00.621";"1";"0";"1";"185";"184";"module.devaluation_block1.exec-2416.deval1";"3884";"2014-10-07 10:14:28.375";"16";"5";"5";"5";"330";"120";"408";"2014-10-07 10:14:24.491";"2";;;;;;;;;;;;;;;;;;;;;;;;;;;;;;;;;;;;;;;;;;;;;;;;;;;;;;;;;;;;;;;;;;;;;;;;;;;;;;;;
"c1210535";;;"Windows 7";"Rachel's Experiment (D.T.)";"1.0";"2";"1";"1";"2";"1";"1";"2014-10-07 10:02:31.055";"2014-10-07 10:15:00.621";"1";"0";"1";"186";"185";"module.devaluation_block1.exec-2416.deval1";"5542";"2014-10-07 10:14:33.945";"11";"4";"2";"3";"534";"1187";"801";"2014-10-07 10:14:28.391";"2";;;;;;;;;;;;;;;;;;;;;;;;;;;;;;;;;;;;;;;;;;;;;;;;;;;;;;;;;;;;;;;;;;;;;;;;;;;;;;;;
"c1210535";;;"Windows 7";"Rachel's Experiment (D.T.)";"1.0";"2";"1";"1";"2";"1";"1";"2014-10-07 10:02:31.055";"2014-10-07 10:15:00.621";"1";"0";"1";"187";"186";"module.devaluation_block1.exec-2416.deval1";"5117";"2014-10-07 10:14:39.077";"20";"6";"5";"5";"605";"660";"826";"2014-10-07 10:14:33.960";"3";;;;;;;;;;;;;;;;;;;;;;;;;;;;;;;;;;;;;;;;;;;;;;;;;;;;;;;;;;;;;;;;;;;;;;;;;;;;;;;;
"c1210535";;;"Windows 7";"Rachel's Experiment (D.T.)";"1.0";"2";"1";"1";"2";"1";"1";"2014-10-07 10:02:31.055";"2014-10-07 10:15:00.621";"1";"0";"1";"188";"187";"module.devaluation_block1.exec-2416.deval1";"7477";"2014-10-07 10:14:46.565";"17";"5";"5";"6";"329";"1245";"2878";"2014-10-07 10:14:39.093";"2";;;;;;;;;;;;;;;;;;;;;;;;;;;;;;;;;;;;;;;;;;;;;;;;;;;;;;;;;;;;;;;;;;;;;;;;;;;;;;;;
"c1210535";;;"Windows 7";"Rachel's Experiment (D.T.)";"1.0";"2";"1";"1";"2";"1";"1";"2014-10-07 10:02:31.055";"2014-10-07 10:15:00.621";"1";"0";"1";"189";"188";"module.devaluation_block1.exec-2416.deval1";"3901";"2014-10-07 10:14:50.496";"15";"5";"5";"5";"441";"111";"322";"2014-10-07 10:14:46.596";"2";;;;;;;;;;;;;;;;;;;;;;;;;;;;;;;;;;;;;;;;;;;;;;;;;;;;;;;;;;;;;;;;;;;;;;;;;;;;;;;;
"c1210535";;;"Windows 7";"Rachel's Experiment (D.T.)";"1.0";"2";"1";"1";"2";"1";"1";"2014-10-07 10:02:31.055";"2014-10-07 10:15:00.621";"1";"0";"1";"190";"189";"module.devaluation_block1.exec-2416.deval1";"5269";"2014-10-07 10:14:55.785";"7";"7";"8";"7";"765";"843";"630";"2014-10-07 10:14:50.512";"1";;;;;;;;;;;;;;;;;;;;;;;;;;;;;;;;;;;;;;;;;;;;;;;;;;;;;;;;;;;;;;;;;;;;;;;;;;;;;;;;
