"user.name";"user.yearOfBirth";"user.sex";"user.osName";"module.name";"module.version";"module.online.subject.code";"module.online.study.id";"module.online.module.nr";"module.online.group.nr";"session.id";"session.index";"session.startTime";"session.endTime";"session.completed";"session.node-3340.DPorder";"session.node-9946.conditionType";"trial.id";"trial.index";"trial.name";"trial.GoNoGo1.durationTime";"trial.GoNoGo1.endTime";"trial.GoNoGo1.icon";"trial.GoNoGo1.location";"trial.GoNoGo1.outcome";"trial.GoNoGo1.response";"trial.GoNoGo1.result";"trial.GoNoGo1.RT";"trial.GoNoGo1.signal";"trial.GoNoGo1.startTime";"trial.GoNoGo1.stimulus type";"trial.GoNoGo2.durationTime";"trial.GoNoGo2.endTime";"trial.GoNoGo2.icon";"trial.GoNoGo2.location";"trial.GoNoGo2.outcome";"trial.GoNoGo2.response";"trial.GoNoGo2.result";"trial.GoNoGo2.RT";"trial.GoNoGo2.signal";"trial.GoNoGo2.startTime";"trial.GoNoGo2.stimulus type";"trial.GoNoGo3.durationTime";"trial.GoNoGo3.endTime";"trial.GoNoGo3.icon";"trial.GoNoGo3.location";"trial.GoNoGo3.outcome";"trial.GoNoGo3.response";"trial.GoNoGo3.result";"trial.GoNoGo3.RT";"trial.GoNoGo3.signal";"trial.GoNoGo3.startTime";"trial.GoNoGo3.stimulus type";"trial.GoNoGo4.durationTime";"trial.GoNoGo4.endTime";"trial.GoNoGo4.icon";"trial.GoNoGo4.location";"trial.GoNoGo4.outcome";"trial.GoNoGo4.response";"trial.GoNoGo4.result";"trial.GoNoGo4.RT";"trial.GoNoGo4.signal";"trial.GoNoGo4.startTime";"trial.GoNoGo4.stimulus type";"trial.GoNoGo_Practice.durationTime";"trial.GoNoGo_Practice.endTime";"trial.GoNoGo_Practice.icon";"trial.GoNoGo_Practice.location";"trial.GoNoGo_Practice.outcome";"trial.GoNoGo_Practice.response";"trial.GoNoGo_Practice.result";"trial.GoNoGo_Practice.RT";"trial.GoNoGo_Practice.signal";"trial.GoNoGo_Practice.startTime";"trial.GoNoGo_Practice.stimulus type";"trial.GoNoGo_Tutorial.durationTime";"trial.GoNoGo_Tutorial.endTime";"trial.GoNoGo_Tutorial.icon";"trial.GoNoGo_Tutorial.location";"trial.GoNoGo_Tutorial.outcome";"trial.GoNoGo_Tutorial.response";"trial.GoNoGo_Tutorial.result";"trial.GoNoGo_Tutorial.RT";"trial.GoNoGo_Tutorial.signal";"trial.GoNoGo_Tutorial.startTime"
"Yr2Prac_PPG";"1994";;"Windows 7";"Rachels Experiment - DP";"1.0";"2";"1";"1";"2";"1";"1";"2014-02-13 16:40:28.430";"2014-02-13 16:52:13.254";"1";"5";"0";"1";"0";"module.GoNoGotutorial.exec-2114.GoNoGo_Tutorial";;;;;;;;;;;;;;;;;;;;;;;;;;;;;;;;;;;;;;;;;;;;;;;;;;;;;;;;"4001";"2014-02-13 16:40:40.497";"leftResponse";"0";"FINISHED";"NONE";"failure";"0";"0";"2014-02-13 16:40:36.495"
"Yr2Prac_PPG";"1994";;"Windows 7";"Rachels Experiment - DP";"1.0";"2";"1";"1";"2";"1";"1";"2014-02-13 16:40:28.430";"2014-02-13 16:52:13.254";"1";"5";"0";"2";"1";"module.GoNoGotutorial.exec-2114.GoNoGo_Tutorial";;;;;;;;;;;;;;;;;;;;;;;;;;;;;;;;;;;;;;;;;;;;;;;;;;;;;;;;"4000";"2014-02-13 16:40:45.847";"rightResponse";"1";"FINISHED";"NONE";"failure";"0";"0";"2014-02-13 16:40:41.847"
"Yr2Prac_PPG";"1994";;"Windows 7";"Rachels Experiment - DP";"1.0";"2";"1";"1";"2";"1";"1";"2014-02-13 16:40:28.430";"2014-02-13 16:52:13.254";"1";"5";"0";"3";"2";"module.GoNoGotutorial.exec-2114.GoNoGo_Tutorial";;;;;;;;;;;;;;;;;;;;;;;;;;;;;;;;;;;;;;;;;;;;;;;;;;;;;;;;"3999";"2014-02-13 16:40:51.183";"quickResponse";"0";"FINISHED";"NONE";"failure";"0";"0";"2014-02-13 16:40:47.182"
"Yr2Prac_PPG";"1994";;"Windows 7";"Rachels Experiment - DP";"1.0";"2";"1";"1";"2";"1";"1";"2014-02-13 16:40:28.430";"2014-02-13 16:52:13.254";"1";"5";"0";"4";"3";"module.GoNoGopractice.exec-6401.GoNoGo_Practice";;;;;;;;;;;;;;;;;;;;;;;;;;;;;;;;;;;;;;;;;;;;;"1962";"2014-02-13 16:40:57.931";"18";"0";"FINISHED";"LEFT";"success";"567";"0";"2014-02-13 16:40:55.969";"3";;;;;;;;;;
"Yr2Prac_PPG";"1994";;"Windows 7";"Rachels Experiment - DP";"1.0";"2";"1";"1";"2";"1";"1";"2014-02-13 16:40:28.430";"2014-02-13 16:52:13.254";"1";"5";"0";"5";"4";"module.GoNoGopractice.exec-6401.GoNoGo_Practice";;;;;;;;;;;;;;;;;;;;;;;;;;;;;;;;;;;;;;;;;;;;;"1952";"2014-02-13 16:41:01.203";"21";"1";"FINISHED";"RIGHT";"success";"258";"0";"2014-02-13 16:40:59.251";"3";;;;;;;;;;
"Yr2Prac_PPG";"1994";;"Windows 7";"Rachels Experiment - DP";"1.0";"2";"1";"1";"2";"1";"1";"2014-02-13 16:40:28.430";"2014-02-13 16:52:13.254";"1";"5";"0";"6";"5";"module.GoNoGopractice.exec-6401.GoNoGo_Practice";;;;;;;;;;;;;;;;;;;;;;;;;;;;;;;;;;;;;;;;;;;;;"1951";"2014-02-13 16:41:04.469";"14";"1";"FINISHED";"RIGHT";"success";"302";"0";"2014-02-13 16:41:02.517";"2";;;;;;;;;;
"Yr2Prac_PPG";"1994";;"Windows 7";"Rachels Experiment - DP";"1.0";"2";"1";"1";"2";"1";"1";"2014-02-13 16:40:28.430";"2014-02-13 16:52:13.254";"1";"5";"0";"7";"6";"module.GoNoGopractice.exec-6401.GoNoGo_Practice";;;;;;;;;;;;;;;;;;;;;;;;;;;;;;;;;;;;;;;;;;;;;"1951";"2014-02-13 16:41:07.738";"26";"0";"FINISHED";"LEFT";"success";"415";"0";"2014-02-13 16:41:05.786";"3";;;;;;;;;;
"Yr2Prac_PPG";"1994";;"Windows 7";"Rachels Experiment - DP";"1.0";"2";"1";"1";"2";"1";"1";"2014-02-13 16:40:28.430";"2014-02-13 16:52:13.254";"1";"5";"0";"8";"7";"module.GoNoGopractice.exec-6401.GoNoGo_Practice";;;;;;;;;;;;;;;;;;;;;;;;;;;;;;;;;;;;;;;;;;;;;"1951";"2014-02-13 16:41:11.007";"2";"0";"FINISHED";"LEFT";"success";"1080";"0";"2014-02-13 16:41:09.055";"1";;;;;;;;;;
"Yr2Prac_PPG";"1994";;"Windows 7";"Rachels Experiment - DP";"1.0";"2";"1";"1";"2";"1";"1";"2014-02-13 16:40:28.430";"2014-02-13 16:52:13.254";"1";"5";"0";"9";"8";"module.GoNoGopractice.exec-6401.GoNoGo_Practice";;;;;;;;;;;;;;;;;;;;;;;;;;;;;;;;;;;;;;;;;;;;;"1952";"2014-02-13 16:41:14.294";"30";"0";"FINISHED";"LEFT";"success";"366";"0";"2014-02-13 16:41:12.342";"3";;;;;;;;;;
"Yr2Prac_PPG";"1994";;"Windows 7";"Rachels Experiment - DP";"1.0";"2";"1";"1";"2";"1";"1";"2014-02-13 16:40:28.430";"2014-02-13 16:52:13.254";"1";"5";"0";"10";"9";"module.GoNoGopractice.exec-6401.GoNoGo_Practice";;;;;;;;;;;;;;;;;;;;;;;;;;;;;;;;;;;;;;;;;;;;;"1952";"2014-02-13 16:41:17.566";"6";"1";"FINISHED";"RIGHT";"success";"287";"0";"2014-02-13 16:41:15.613";"1";;;;;;;;;;
"Yr2Prac_PPG";"1994";;"Windows 7";"Rachels Experiment - DP";"1.0";"2";"1";"1";"2";"1";"1";"2014-02-13 16:40:28.430";"2014-02-13 16:52:13.254";"1";"5";"0";"11";"10";"module.GoNoGopractice.exec-6401.GoNoGo_Practice";;;;;;;;;;;;;;;;;;;;;;;;;;;;;;;;;;;;;;;;;;;;;"1951";"2014-02-13 16:41:20.833";"34";"0";"FINISHED";"LEFT";"success";"380";"0";"2014-02-13 16:41:18.881";"3";;;;;;;;;;
"Yr2Prac_PPG";"1994";;"Windows 7";"Rachels Experiment - DP";"1.0";"2";"1";"1";"2";"1";"1";"2014-02-13 16:40:28.430";"2014-02-13 16:52:13.254";"1";"5";"0";"12";"11";"module.GoNoGopractice.exec-6401.GoNoGo_Practice";;;;;;;;;;;;;;;;;;;;;;;;;;;;;;;;;;;;;;;;;;;;;"1965";"2014-02-13 16:41:24.116";"23";"1";"FINISHED";"RIGHT";"success";"281";"0";"2014-02-13 16:41:22.150";"3";;;;;;;;;;
"Yr2Prac_PPG";"1994";;"Windows 7";"Rachels Experiment - DP";"1.0";"2";"1";"1";"2";"1";"1";"2014-02-13 16:40:28.430";"2014-02-13 16:52:13.254";"1";"5";"0";"13";"12";"module.GoNoGopractice.exec-6401.GoNoGo_Practice";;;;;;;;;;;;;;;;;;;;;;;;;;;;;;;;;;;;;;;;;;;;;"1951";"2014-02-13 16:41:27.387";"13";"0";"FINISHED";"LEFT";"success";"420";"0";"2014-02-13 16:41:25.435";"2";;;;;;;;;;
"Yr2Prac_PPG";"1994";;"Windows 7";"Rachels Experiment - DP";"1.0";"2";"1";"1";"2";"1";"1";"2014-02-13 16:40:28.430";"2014-02-13 16:52:13.254";"1";"5";"0";"14";"13";"module.GoNoGopractice.exec-6401.GoNoGo_Practice";;;;;;;;;;;;;;;;;;;;;;;;;;;;;;;;;;;;;;;;;;;;;"1950";"2014-02-13 16:41:30.652";"3";"1";"FINISHED";"RIGHT";"success";"608";"0";"2014-02-13 16:41:28.701";"1";;;;;;;;;;
"Yr2Prac_PPG";"1994";;"Windows 7";"Rachels Experiment - DP";"1.0";"2";"1";"1";"2";"1";"1";"2014-02-13 16:40:28.430";"2014-02-13 16:52:13.254";"1";"5";"0";"15";"14";"module.GoNoGopractice.exec-6401.GoNoGo_Practice";;;;;;;;;;;;;;;;;;;;;;;;;;;;;;;;;;;;;;;;;;;;;"1958";"2014-02-13 16:41:33.928";"27";"1";"FINISHED";"NONE";"failure";"0";"0";"2014-02-13 16:41:31.969";"3";;;;;;;;;;
"Yr2Prac_PPG";"1994";;"Windows 7";"Rachels Experiment - DP";"1.0";"2";"1";"1";"2";"1";"1";"2014-02-13 16:40:28.430";"2014-02-13 16:52:13.254";"1";"5";"0";"16";"15";"module.training_block1.exec-7205.GoNoGo1";"1251";"2014-02-13 16:41:46.221";"31";"0";"FINISHED";"LEFT";"success";"358";"0";"2014-02-13 16:41:44.970";"3";;;;;;;;;;;;;;;;;;;;;;;;;;;;;;;;;;;;;;;;;;;;;;;;;;;;;;
"Yr2Prac_PPG";"1994";;"Windows 7";"Rachels Experiment - DP";"1.0";"2";"1";"1";"2";"1";"1";"2014-02-13 16:40:28.430";"2014-02-13 16:52:13.254";"1";"5";"0";"17";"16";"module.training_block1.exec-7205.GoNoGo1";"1249";"2014-02-13 16:41:48.783";"2";"1";"FINISHED";"RIGHT";"success";"281";"0";"2014-02-13 16:41:47.533";"1";;;;;;;;;;;;;;;;;;;;;;;;;;;;;;;;;;;;;;;;;;;;;;;;;;;;;;
"Yr2Prac_PPG";"1994";;"Windows 7";"Rachels Experiment - DP";"1.0";"2";"1";"1";"2";"1";"1";"2014-02-13 16:40:28.430";"2014-02-13 16:52:13.254";"1";"5";"0";"18";"17";"module.training_block1.exec-7205.GoNoGo1";"1249";"2014-02-13 16:41:51.356";"15";"1";"FINISHED";"RIGHT";"success";"288";"0";"2014-02-13 16:41:50.106";"2";;;;;;;;;;;;;;;;;;;;;;;;;;;;;;;;;;;;;;;;;;;;;;;;;;;;;;
"Yr2Prac_PPG";"1994";;"Windows 7";"Rachels Experiment - DP";"1.0";"2";"1";"1";"2";"1";"1";"2014-02-13 16:40:28.430";"2014-02-13 16:52:13.254";"1";"5";"0";"19";"18";"module.training_block1.exec-7205.GoNoGo1";"1249";"2014-02-13 16:41:53.915";"20";"0";"FINISHED";"LEFT";"success";"461";"0";"2014-02-13 16:41:52.665";"3";;;;;;;;;;;;;;;;;;;;;;;;;;;;;;;;;;;;;;;;;;;;;;;;;;;;;;
"Yr2Prac_PPG";"1994";;"Windows 7";"Rachels Experiment - DP";"1.0";"2";"1";"1";"2";"1";"1";"2014-02-13 16:40:28.430";"2014-02-13 16:52:13.254";"1";"5";"0";"20";"19";"module.training_block1.exec-7205.GoNoGo1";"1249";"2014-02-13 16:41:56.522";"5";"0";"FINISHED";"LEFT";"success";"287";"0";"2014-02-13 16:41:55.272";"1";;;;;;;;;;;;;;;;;;;;;;;;;;;;;;;;;;;;;;;;;;;;;;;;;;;;;;
"Yr2Prac_PPG";"1994";;"Windows 7";"Rachels Experiment - DP";"1.0";"2";"1";"1";"2";"1";"1";"2014-02-13 16:40:28.430";"2014-02-13 16:52:13.254";"1";"5";"0";"21";"20";"module.training_block1.exec-7205.GoNoGo1";"1249";"2014-02-13 16:41:59.079";"33";"1";"FINISHED";"RIGHT";"success";"296";"0";"2014-02-13 16:41:57.828";"3";;;;;;;;;;;;;;;;;;;;;;;;;;;;;;;;;;;;;;;;;;;;;;;;;;;;;;
"Yr2Prac_PPG";"1994";;"Windows 7";"Rachels Experiment - DP";"1.0";"2";"1";"1";"2";"1";"1";"2014-02-13 16:40:28.430";"2014-02-13 16:52:13.254";"1";"5";"0";"22";"21";"module.training_block1.exec-7205.GoNoGo1";"1249";"2014-02-13 16:42:01.646";"29";"0";"FINISHED";"LEFT";"success";"266";"0";"2014-02-13 16:42:00.396";"3";;;;;;;;;;;;;;;;;;;;;;;;;;;;;;;;;;;;;;;;;;;;;;;;;;;;;;
"Yr2Prac_PPG";"1994";;"Windows 7";"Rachels Experiment - DP";"1.0";"2";"1";"1";"2";"1";"1";"2014-02-13 16:40:28.430";"2014-02-13 16:52:13.254";"1";"5";"0";"23";"22";"module.training_block1.exec-7205.GoNoGo1";"1249";"2014-02-13 16:42:04.211";"21";"0";"FINISHED";"LEFT";"success";"341";"0";"2014-02-13 16:42:02.961";"3";;;;;;;;;;;;;;;;;;;;;;;;;;;;;;;;;;;;;;;;;;;;;;;;;;;;;;
"Yr2Prac_PPG";"1994";;"Windows 7";"Rachels Experiment - DP";"1.0";"2";"1";"1";"2";"1";"1";"2014-02-13 16:40:28.430";"2014-02-13 16:52:13.254";"1";"5";"0";"24";"23";"module.training_block1.exec-7205.GoNoGo1";"1249";"2014-02-13 16:42:06.763";"9";"0";"FINISHED";"LEFT";"success";"281";"0";"2014-02-13 16:42:05.513";"2";;;;;;;;;;;;;;;;;;;;;;;;;;;;;;;;;;;;;;;;;;;;;;;;;;;;;;
"Yr2Prac_PPG";"1994";;"Windows 7";"Rachels Experiment - DP";"1.0";"2";"1";"1";"2";"1";"1";"2014-02-13 16:40:28.430";"2014-02-13 16:52:13.254";"1";"5";"0";"25";"24";"module.training_block1.exec-7205.GoNoGo1";"1249";"2014-02-13 16:42:09.325";"32";"1";"FINISHED";"RIGHT";"success";"310";"0";"2014-02-13 16:42:08.075";"3";;;;;;;;;;;;;;;;;;;;;;;;;;;;;;;;;;;;;;;;;;;;;;;;;;;;;;
"Yr2Prac_PPG";"1994";;"Windows 7";"Rachels Experiment - DP";"1.0";"2";"1";"1";"2";"1";"1";"2014-02-13 16:40:28.430";"2014-02-13 16:52:13.254";"1";"5";"0";"26";"25";"module.training_block1.exec-7205.GoNoGo1";"1249";"2014-02-13 16:42:11.886";"16";"1";"FINISHED";"RIGHT";"success";"460";"0";"2014-02-13 16:42:10.636";"2";;;;;;;;;;;;;;;;;;;;;;;;;;;;;;;;;;;;;;;;;;;;;;;;;;;;;;
"Yr2Prac_PPG";"1994";;"Windows 7";"Rachels Experiment - DP";"1.0";"2";"1";"1";"2";"1";"1";"2014-02-13 16:40:28.430";"2014-02-13 16:52:13.254";"1";"5";"0";"27";"26";"module.training_block1.exec-7205.GoNoGo1";"1249";"2014-02-13 16:42:14.448";"18";"1";"FINISHED";"RIGHT";"success";"329";"0";"2014-02-13 16:42:13.198";"3";;;;;;;;;;;;;;;;;;;;;;;;;;;;;;;;;;;;;;;;;;;;;;;;;;;;;;
"Yr2Prac_PPG";"1994";;"Windows 7";"Rachels Experiment - DP";"1.0";"2";"1";"1";"2";"1";"1";"2014-02-13 16:40:28.430";"2014-02-13 16:52:13.254";"1";"5";"0";"28";"27";"module.training_block1.exec-7205.GoNoGo1";"1249";"2014-02-13 16:42:17.005";"12";"0";"FINISHED";"LEFT";"success";"278";"0";"2014-02-13 16:42:15.755";"2";;;;;;;;;;;;;;;;;;;;;;;;;;;;;;;;;;;;;;;;;;;;;;;;;;;;;;
"Yr2Prac_PPG";"1994";;"Windows 7";"Rachels Experiment - DP";"1.0";"2";"1";"1";"2";"1";"1";"2014-02-13 16:40:28.430";"2014-02-13 16:52:13.254";"1";"5";"0";"29";"28";"module.training_block1.exec-7205.GoNoGo1";"1249";"2014-02-13 16:42:19.564";"34";"0";"FINISHED";"LEFT";"success";"285";"0";"2014-02-13 16:42:18.314";"3";;;;;;;;;;;;;;;;;;;;;;;;;;;;;;;;;;;;;;;;;;;;;;;;;;;;;;
"Yr2Prac_PPG";"1994";;"Windows 7";"Rachels Experiment - DP";"1.0";"2";"1";"1";"2";"1";"1";"2014-02-13 16:40:28.430";"2014-02-13 16:52:13.254";"1";"5";"0";"30";"29";"module.training_block1.exec-7205.GoNoGo1";"1250";"2014-02-13 16:42:22.118";"11";"1";"FINISHED";"RIGHT";"success";"315";"0";"2014-02-13 16:42:20.868";"2";;;;;;;;;;;;;;;;;;;;;;;;;;;;;;;;;;;;;;;;;;;;;;;;;;;;;;
"Yr2Prac_PPG";"1994";;"Windows 7";"Rachels Experiment - DP";"1.0";"2";"1";"1";"2";"1";"1";"2014-02-13 16:40:28.430";"2014-02-13 16:52:13.254";"1";"5";"0";"31";"30";"module.training_block1.exec-7205.GoNoGo1";"1249";"2014-02-13 16:42:24.685";"10";"1";"FINISHED";"RIGHT";"success";"290";"0";"2014-02-13 16:42:23.435";"2";;;;;;;;;;;;;;;;;;;;;;;;;;;;;;;;;;;;;;;;;;;;;;;;;;;;;;
"Yr2Prac_PPG";"1994";;"Windows 7";"Rachels Experiment - DP";"1.0";"2";"1";"1";"2";"1";"1";"2014-02-13 16:40:28.430";"2014-02-13 16:52:13.254";"1";"5";"0";"32";"31";"module.training_block1.exec-7205.GoNoGo1";"1249";"2014-02-13 16:42:27.250";"23";"0";"FINISHED";"LEFT";"success";"324";"0";"2014-02-13 16:42:26.000";"3";;;;;;;;;;;;;;;;;;;;;;;;;;;;;;;;;;;;;;;;;;;;;;;;;;;;;;
"Yr2Prac_PPG";"1994";;"Windows 7";"Rachels Experiment - DP";"1.0";"2";"1";"1";"2";"1";"1";"2014-02-13 16:40:28.430";"2014-02-13 16:52:13.254";"1";"5";"0";"33";"32";"module.training_block1.exec-7205.GoNoGo1";"1249";"2014-02-13 16:42:29.819";"6";"1";"FINISHED";"RIGHT";"success";"254";"0";"2014-02-13 16:42:28.569";"1";;;;;;;;;;;;;;;;;;;;;;;;;;;;;;;;;;;;;;;;;;;;;;;;;;;;;;
"Yr2Prac_PPG";"1994";;"Windows 7";"Rachels Experiment - DP";"1.0";"2";"1";"1";"2";"1";"1";"2014-02-13 16:40:28.430";"2014-02-13 16:52:13.254";"1";"5";"0";"34";"33";"module.training_block1.exec-7205.GoNoGo1";"1250";"2014-02-13 16:42:32.375";"0";"1";"FINISHED";"RIGHT";"success";"307";"0";"2014-02-13 16:42:31.125";"1";;;;;;;;;;;;;;;;;;;;;;;;;;;;;;;;;;;;;;;;;;;;;;;;;;;;;;
"Yr2Prac_PPG";"1994";;"Windows 7";"Rachels Experiment - DP";"1.0";"2";"1";"1";"2";"1";"1";"2014-02-13 16:40:28.430";"2014-02-13 16:52:13.254";"1";"5";"0";"35";"34";"module.training_block1.exec-7205.GoNoGo1";"1250";"2014-02-13 16:42:34.932";"1";"1";"FINISHED";"RIGHT";"success";"280";"0";"2014-02-13 16:42:33.682";"1";;;;;;;;;;;;;;;;;;;;;;;;;;;;;;;;;;;;;;;;;;;;;;;;;;;;;;
"Yr2Prac_PPG";"1994";;"Windows 7";"Rachels Experiment - DP";"1.0";"2";"1";"1";"2";"1";"1";"2014-02-13 16:40:28.430";"2014-02-13 16:52:13.254";"1";"5";"0";"36";"35";"module.training_block1.exec-7205.GoNoGo1";"1249";"2014-02-13 16:42:37.492";"14";"1";"FINISHED";"RIGHT";"success";"303";"0";"2014-02-13 16:42:36.242";"2";;;;;;;;;;;;;;;;;;;;;;;;;;;;;;;;;;;;;;;;;;;;;;;;;;;;;;
"Yr2Prac_PPG";"1994";;"Windows 7";"Rachels Experiment - DP";"1.0";"2";"1";"1";"2";"1";"1";"2014-02-13 16:40:28.430";"2014-02-13 16:52:13.254";"1";"5";"0";"37";"36";"module.training_block1.exec-7205.GoNoGo1";"1249";"2014-02-13 16:42:40.047";"28";"1";"FINISHED";"RIGHT";"success";"286";"0";"2014-02-13 16:42:38.797";"3";;;;;;;;;;;;;;;;;;;;;;;;;;;;;;;;;;;;;;;;;;;;;;;;;;;;;;
"Yr2Prac_PPG";"1994";;"Windows 7";"Rachels Experiment - DP";"1.0";"2";"1";"1";"2";"1";"1";"2014-02-13 16:40:28.430";"2014-02-13 16:52:13.254";"1";"5";"0";"38";"37";"module.training_block1.exec-7205.GoNoGo1";"1249";"2014-02-13 16:42:42.601";"35";"1";"FINISHED";"RIGHT";"success";"265";"0";"2014-02-13 16:42:41.351";"3";;;;;;;;;;;;;;;;;;;;;;;;;;;;;;;;;;;;;;;;;;;;;;;;;;;;;;
"Yr2Prac_PPG";"1994";;"Windows 7";"Rachels Experiment - DP";"1.0";"2";"1";"1";"2";"1";"1";"2014-02-13 16:40:28.430";"2014-02-13 16:52:13.254";"1";"5";"0";"39";"38";"module.training_block1.exec-7205.GoNoGo1";"1249";"2014-02-13 16:42:45.155";"19";"1";"FINISHED";"RIGHT";"success";"269";"0";"2014-02-13 16:42:43.905";"3";;;;;;;;;;;;;;;;;;;;;;;;;;;;;;;;;;;;;;;;;;;;;;;;;;;;;;
"Yr2Prac_PPG";"1994";;"Windows 7";"Rachels Experiment - DP";"1.0";"2";"1";"1";"2";"1";"1";"2014-02-13 16:40:28.430";"2014-02-13 16:52:13.254";"1";"5";"0";"40";"39";"module.training_block1.exec-7205.GoNoGo1";"1251";"2014-02-13 16:42:47.711";"24";"0";"FINISHED";"LEFT";"success";"311";"0";"2014-02-13 16:42:46.460";"3";;;;;;;;;;;;;;;;;;;;;;;;;;;;;;;;;;;;;;;;;;;;;;;;;;;;;;
"Yr2Prac_PPG";"1994";;"Windows 7";"Rachels Experiment - DP";"1.0";"2";"1";"1";"2";"1";"1";"2014-02-13 16:40:28.430";"2014-02-13 16:52:13.254";"1";"5";"0";"41";"40";"module.training_block1.exec-7205.GoNoGo1";"1250";"2014-02-13 16:42:50.266";"17";"1";"FINISHED";"RIGHT";"success";"386";"0";"2014-02-13 16:42:49.016";"2";;;;;;;;;;;;;;;;;;;;;;;;;;;;;;;;;;;;;;;;;;;;;;;;;;;;;;
"Yr2Prac_PPG";"1994";;"Windows 7";"Rachels Experiment - DP";"1.0";"2";"1";"1";"2";"1";"1";"2014-02-13 16:40:28.430";"2014-02-13 16:52:13.254";"1";"5";"0";"42";"41";"module.training_block1.exec-7205.GoNoGo1";"1249";"2014-02-13 16:42:52.820";"8";"0";"FINISHED";"LEFT";"success";"348";"0";"2014-02-13 16:42:51.570";"1";;;;;;;;;;;;;;;;;;;;;;;;;;;;;;;;;;;;;;;;;;;;;;;;;;;;;;
"Yr2Prac_PPG";"1994";;"Windows 7";"Rachels Experiment - DP";"1.0";"2";"1";"1";"2";"1";"1";"2014-02-13 16:40:28.430";"2014-02-13 16:52:13.254";"1";"5";"0";"43";"42";"module.training_block1.exec-7205.GoNoGo1";"1250";"2014-02-13 16:42:55.375";"22";"0";"FINISHED";"LEFT";"success";"327";"0";"2014-02-13 16:42:54.125";"3";;;;;;;;;;;;;;;;;;;;;;;;;;;;;;;;;;;;;;;;;;;;;;;;;;;;;;
"Yr2Prac_PPG";"1994";;"Windows 7";"Rachels Experiment - DP";"1.0";"2";"1";"1";"2";"1";"1";"2014-02-13 16:40:28.430";"2014-02-13 16:52:13.254";"1";"5";"0";"44";"43";"module.training_block1.exec-7205.GoNoGo1";"1249";"2014-02-13 16:42:57.976";"7";"0";"FINISHED";"LEFT";"success";"287";"0";"2014-02-13 16:42:56.726";"1";;;;;;;;;;;;;;;;;;;;;;;;;;;;;;;;;;;;;;;;;;;;;;;;;;;;;;
"Yr2Prac_PPG";"1994";;"Windows 7";"Rachels Experiment - DP";"1.0";"2";"1";"1";"2";"1";"1";"2014-02-13 16:40:28.430";"2014-02-13 16:52:13.254";"1";"5";"0";"45";"44";"module.training_block1.exec-7205.GoNoGo1";"1249";"2014-02-13 16:43:00.528";"30";"0";"FINISHED";"LEFT";"success";"337";"0";"2014-02-13 16:42:59.278";"3";;;;;;;;;;;;;;;;;;;;;;;;;;;;;;;;;;;;;;;;;;;;;;;;;;;;;;
"Yr2Prac_PPG";"1994";;"Windows 7";"Rachels Experiment - DP";"1.0";"2";"1";"1";"2";"1";"1";"2014-02-13 16:40:28.430";"2014-02-13 16:52:13.254";"1";"5";"0";"46";"45";"module.training_block1.exec-7205.GoNoGo1";"1249";"2014-02-13 16:43:03.091";"25";"1";"FINISHED";"RIGHT";"success";"608";"0";"2014-02-13 16:43:01.841";"3";;;;;;;;;;;;;;;;;;;;;;;;;;;;;;;;;;;;;;;;;;;;;;;;;;;;;;
"Yr2Prac_PPG";"1994";;"Windows 7";"Rachels Experiment - DP";"1.0";"2";"1";"1";"2";"1";"1";"2014-02-13 16:40:28.430";"2014-02-13 16:52:13.254";"1";"5";"0";"47";"46";"module.training_block1.exec-7205.GoNoGo1";"1249";"2014-02-13 16:43:05.659";"13";"1";"FINISHED";"RIGHT";"success";"377";"0";"2014-02-13 16:43:04.409";"2";;;;;;;;;;;;;;;;;;;;;;;;;;;;;;;;;;;;;;;;;;;;;;;;;;;;;;
"Yr2Prac_PPG";"1994";;"Windows 7";"Rachels Experiment - DP";"1.0";"2";"1";"1";"2";"1";"1";"2014-02-13 16:40:28.430";"2014-02-13 16:52:13.254";"1";"5";"0";"48";"47";"module.training_block1.exec-7205.GoNoGo1";"1250";"2014-02-13 16:43:08.217";"27";"0";"FINISHED";"LEFT";"success";"269";"0";"2014-02-13 16:43:06.966";"3";;;;;;;;;;;;;;;;;;;;;;;;;;;;;;;;;;;;;;;;;;;;;;;;;;;;;;
"Yr2Prac_PPG";"1994";;"Windows 7";"Rachels Experiment - DP";"1.0";"2";"1";"1";"2";"1";"1";"2014-02-13 16:40:28.430";"2014-02-13 16:52:13.254";"1";"5";"0";"49";"48";"module.training_block1.exec-7205.GoNoGo1";"1251";"2014-02-13 16:43:10.772";"26";"0";"FINISHED";"LEFT";"success";"301";"0";"2014-02-13 16:43:09.520";"3";;;;;;;;;;;;;;;;;;;;;;;;;;;;;;;;;;;;;;;;;;;;;;;;;;;;;;
"Yr2Prac_PPG";"1994";;"Windows 7";"Rachels Experiment - DP";"1.0";"2";"1";"1";"2";"1";"1";"2014-02-13 16:40:28.430";"2014-02-13 16:52:13.254";"1";"5";"0";"50";"49";"module.training_block1.exec-7205.GoNoGo1";"1249";"2014-02-13 16:43:13.323";"3";"1";"FINISHED";"RIGHT";"success";"347";"0";"2014-02-13 16:43:12.073";"1";;;;;;;;;;;;;;;;;;;;;;;;;;;;;;;;;;;;;;;;;;;;;;;;;;;;;;
"Yr2Prac_PPG";"1994";;"Windows 7";"Rachels Experiment - DP";"1.0";"2";"1";"1";"2";"1";"1";"2014-02-13 16:40:28.430";"2014-02-13 16:52:13.254";"1";"5";"0";"51";"50";"module.training_block1.exec-7205.GoNoGo1";"1250";"2014-02-13 16:43:15.868";"4";"0";"FINISHED";"LEFT";"success";"268";"0";"2014-02-13 16:43:14.618";"1";;;;;;;;;;;;;;;;;;;;;;;;;;;;;;;;;;;;;;;;;;;;;;;;;;;;;;
"Yr2Prac_PPG";"1994";;"Windows 7";"Rachels Experiment - DP";"1.0";"2";"1";"1";"2";"1";"1";"2014-02-13 16:40:28.430";"2014-02-13 16:52:13.254";"1";"5";"0";"52";"51";"module.training_block2.exec-6547.GoNoGo2";;;;;;;;;;;;"1249";"2014-02-13 16:46:33.828";"28";"0";"FINISHED";"LEFT";"success";"965";"0";"2014-02-13 16:46:32.578";"3";;;;;;;;;;;;;;;;;;;;;;;;;;;;;;;;;;;;;;;;;;;
"Yr2Prac_PPG";"1994";;"Windows 7";"Rachels Experiment - DP";"1.0";"2";"1";"1";"2";"1";"1";"2014-02-13 16:40:28.430";"2014-02-13 16:52:13.254";"1";"5";"0";"53";"52";"module.training_block2.exec-6547.GoNoGo2";;;;;;;;;;;;"1249";"2014-02-13 16:46:36.371";"12";"1";"FINISHED";"RIGHT";"success";"696";"0";"2014-02-13 16:46:35.121";"2";;;;;;;;;;;;;;;;;;;;;;;;;;;;;;;;;;;;;;;;;;;
"Yr2Prac_PPG";"1994";;"Windows 7";"Rachels Experiment - DP";"1.0";"2";"1";"1";"2";"1";"1";"2014-02-13 16:40:28.430";"2014-02-13 16:52:13.254";"1";"5";"0";"54";"53";"module.training_block2.exec-6547.GoNoGo2";;;;;;;;;;;;"1249";"2014-02-13 16:46:38.916";"19";"0";"FINISHED";"LEFT";"success";"1225";"0";"2014-02-13 16:46:37.666";"3";;;;;;;;;;;;;;;;;;;;;;;;;;;;;;;;;;;;;;;;;;;
"Yr2Prac_PPG";"1994";;"Windows 7";"Rachels Experiment - DP";"1.0";"2";"1";"1";"2";"1";"1";"2014-02-13 16:40:28.430";"2014-02-13 16:52:13.254";"1";"5";"0";"55";"54";"module.training_block2.exec-6547.GoNoGo2";;;;;;;;;;;;"1249";"2014-02-13 16:46:41.459";"27";"1";"FINISHED";"RIGHT";"success";"390";"0";"2014-02-13 16:46:40.209";"3";;;;;;;;;;;;;;;;;;;;;;;;;;;;;;;;;;;;;;;;;;;
"Yr2Prac_PPG";"1994";;"Windows 7";"Rachels Experiment - DP";"1.0";"2";"1";"1";"2";"1";"1";"2014-02-13 16:40:28.430";"2014-02-13 16:52:13.254";"1";"5";"0";"56";"55";"module.training_block2.exec-6547.GoNoGo2";;;;;;;;;;;;"1249";"2014-02-13 16:46:44.003";"22";"1";"FINISHED";"RIGHT";"success";"296";"0";"2014-02-13 16:46:42.753";"3";;;;;;;;;;;;;;;;;;;;;;;;;;;;;;;;;;;;;;;;;;;
"Yr2Prac_PPG";"1994";;"Windows 7";"Rachels Experiment - DP";"1.0";"2";"1";"1";"2";"1";"1";"2014-02-13 16:40:28.430";"2014-02-13 16:52:13.254";"1";"5";"0";"57";"56";"module.training_block2.exec-6547.GoNoGo2";;;;;;;;;;;;"1249";"2014-02-13 16:46:46.545";"14";"0";"FINISHED";"LEFT";"success";"309";"0";"2014-02-13 16:46:45.295";"2";;;;;;;;;;;;;;;;;;;;;;;;;;;;;;;;;;;;;;;;;;;
"Yr2Prac_PPG";"1994";;"Windows 7";"Rachels Experiment - DP";"1.0";"2";"1";"1";"2";"1";"1";"2014-02-13 16:40:28.430";"2014-02-13 16:52:13.254";"1";"5";"0";"58";"57";"module.training_block2.exec-6547.GoNoGo2";;;;;;;;;;;;"1249";"2014-02-13 16:46:49.087";"20";"1";"FINISHED";"RIGHT";"success";"272";"0";"2014-02-13 16:46:47.837";"3";;;;;;;;;;;;;;;;;;;;;;;;;;;;;;;;;;;;;;;;;;;
"Yr2Prac_PPG";"1994";;"Windows 7";"Rachels Experiment - DP";"1.0";"2";"1";"1";"2";"1";"1";"2014-02-13 16:40:28.430";"2014-02-13 16:52:13.254";"1";"5";"0";"59";"58";"module.training_block2.exec-6547.GoNoGo2";;;;;;;;;;;;"1249";"2014-02-13 16:46:51.630";"13";"0";"FINISHED";"LEFT";"success";"280";"0";"2014-02-13 16:46:50.380";"2";;;;;;;;;;;;;;;;;;;;;;;;;;;;;;;;;;;;;;;;;;;
"Yr2Prac_PPG";"1994";;"Windows 7";"Rachels Experiment - DP";"1.0";"2";"1";"1";"2";"1";"1";"2014-02-13 16:40:28.430";"2014-02-13 16:52:13.254";"1";"5";"0";"60";"59";"module.training_block2.exec-6547.GoNoGo2";;;;;;;;;;;;"1250";"2014-02-13 16:46:54.187";"15";"0";"FINISHED";"LEFT";"success";"341";"0";"2014-02-13 16:46:52.937";"2";;;;;;;;;;;;;;;;;;;;;;;;;;;;;;;;;;;;;;;;;;;
"Yr2Prac_PPG";"1994";;"Windows 7";"Rachels Experiment - DP";"1.0";"2";"1";"1";"2";"1";"1";"2014-02-13 16:40:28.430";"2014-02-13 16:52:13.254";"1";"5";"0";"61";"60";"module.training_block2.exec-6547.GoNoGo2";;;;;;;;;;;;"1249";"2014-02-13 16:46:56.730";"23";"1";"FINISHED";"RIGHT";"success";"267";"0";"2014-02-13 16:46:55.480";"3";;;;;;;;;;;;;;;;;;;;;;;;;;;;;;;;;;;;;;;;;;;
"Yr2Prac_PPG";"1994";;"Windows 7";"Rachels Experiment - DP";"1.0";"2";"1";"1";"2";"1";"1";"2014-02-13 16:40:28.430";"2014-02-13 16:52:13.254";"1";"5";"0";"62";"61";"module.training_block2.exec-6547.GoNoGo2";;;;;;;;;;;;"1249";"2014-02-13 16:46:59.272";"7";"1";"FINISHED";"RIGHT";"success";"345";"0";"2014-02-13 16:46:58.022";"1";;;;;;;;;;;;;;;;;;;;;;;;;;;;;;;;;;;;;;;;;;;
"Yr2Prac_PPG";"1994";;"Windows 7";"Rachels Experiment - DP";"1.0";"2";"1";"1";"2";"1";"1";"2014-02-13 16:40:28.430";"2014-02-13 16:52:13.254";"1";"5";"0";"63";"62";"module.training_block2.exec-6547.GoNoGo2";;;;;;;;;;;;"1249";"2014-02-13 16:47:01.817";"0";"1";"FINISHED";"RIGHT";"success";"312";"0";"2014-02-13 16:47:00.567";"1";;;;;;;;;;;;;;;;;;;;;;;;;;;;;;;;;;;;;;;;;;;
"Yr2Prac_PPG";"1994";;"Windows 7";"Rachels Experiment - DP";"1.0";"2";"1";"1";"2";"1";"1";"2014-02-13 16:40:28.430";"2014-02-13 16:52:13.254";"1";"5";"0";"64";"63";"module.training_block2.exec-6547.GoNoGo2";;;;;;;;;;;;"1249";"2014-02-13 16:47:04.369";"5";"1";"FINISHED";"RIGHT";"success";"250";"0";"2014-02-13 16:47:03.119";"1";;;;;;;;;;;;;;;;;;;;;;;;;;;;;;;;;;;;;;;;;;;
"Yr2Prac_PPG";"1994";;"Windows 7";"Rachels Experiment - DP";"1.0";"2";"1";"1";"2";"1";"1";"2014-02-13 16:40:28.430";"2014-02-13 16:52:13.254";"1";"5";"0";"65";"64";"module.training_block2.exec-6547.GoNoGo2";;;;;;;;;;;;"1250";"2014-02-13 16:47:06.915";"32";"0";"FINISHED";"LEFT";"success";"318";"0";"2014-02-13 16:47:05.665";"3";;;;;;;;;;;;;;;;;;;;;;;;;;;;;;;;;;;;;;;;;;;
"Yr2Prac_PPG";"1994";;"Windows 7";"Rachels Experiment - DP";"1.0";"2";"1";"1";"2";"1";"1";"2014-02-13 16:40:28.430";"2014-02-13 16:52:13.254";"1";"5";"0";"66";"65";"module.training_block2.exec-6547.GoNoGo2";;;;;;;;;;;;"1249";"2014-02-13 16:47:09.458";"30";"0";"FINISHED";"LEFT";"success";"297";"0";"2014-02-13 16:47:08.208";"3";;;;;;;;;;;;;;;;;;;;;;;;;;;;;;;;;;;;;;;;;;;
"Yr2Prac_PPG";"1994";;"Windows 7";"Rachels Experiment - DP";"1.0";"2";"1";"1";"2";"1";"1";"2014-02-13 16:40:28.430";"2014-02-13 16:52:13.254";"1";"5";"0";"67";"66";"module.training_block2.exec-6547.GoNoGo2";;;;;;;;;;;;"1249";"2014-02-13 16:47:11.998";"29";"0";"FINISHED";"LEFT";"success";"283";"0";"2014-02-13 16:47:10.748";"3";;;;;;;;;;;;;;;;;;;;;;;;;;;;;;;;;;;;;;;;;;;
"Yr2Prac_PPG";"1994";;"Windows 7";"Rachels Experiment - DP";"1.0";"2";"1";"1";"2";"1";"1";"2014-02-13 16:40:28.430";"2014-02-13 16:52:13.254";"1";"5";"0";"68";"67";"module.training_block2.exec-6547.GoNoGo2";;;;;;;;;;;;"1249";"2014-02-13 16:47:14.540";"35";"1";"FINISHED";"RIGHT";"success";"250";"0";"2014-02-13 16:47:13.290";"3";;;;;;;;;;;;;;;;;;;;;;;;;;;;;;;;;;;;;;;;;;;
"Yr2Prac_PPG";"1994";;"Windows 7";"Rachels Experiment - DP";"1.0";"2";"1";"1";"2";"1";"1";"2014-02-13 16:40:28.430";"2014-02-13 16:52:13.254";"1";"5";"0";"69";"68";"module.training_block2.exec-6547.GoNoGo2";;;;;;;;;;;;"1249";"2014-02-13 16:47:17.083";"34";"1";"FINISHED";"RIGHT";"success";"308";"0";"2014-02-13 16:47:15.833";"3";;;;;;;;;;;;;;;;;;;;;;;;;;;;;;;;;;;;;;;;;;;
"Yr2Prac_PPG";"1994";;"Windows 7";"Rachels Experiment - DP";"1.0";"2";"1";"1";"2";"1";"1";"2014-02-13 16:40:28.430";"2014-02-13 16:52:13.254";"1";"5";"0";"70";"69";"module.training_block2.exec-6547.GoNoGo2";;;;;;;;;;;;"1249";"2014-02-13 16:47:19.628";"17";"0";"FINISHED";"LEFT";"success";"279";"0";"2014-02-13 16:47:18.378";"2";;;;;;;;;;;;;;;;;;;;;;;;;;;;;;;;;;;;;;;;;;;
"Yr2Prac_PPG";"1994";;"Windows 7";"Rachels Experiment - DP";"1.0";"2";"1";"1";"2";"1";"1";"2014-02-13 16:40:28.430";"2014-02-13 16:52:13.254";"1";"5";"0";"71";"70";"module.training_block2.exec-6547.GoNoGo2";;;;;;;;;;;;"1249";"2014-02-13 16:47:22.167";"25";"1";"FINISHED";"RIGHT";"success";"303";"0";"2014-02-13 16:47:20.917";"3";;;;;;;;;;;;;;;;;;;;;;;;;;;;;;;;;;;;;;;;;;;
"Yr2Prac_PPG";"1994";;"Windows 7";"Rachels Experiment - DP";"1.0";"2";"1";"1";"2";"1";"1";"2014-02-13 16:40:28.430";"2014-02-13 16:52:13.254";"1";"5";"0";"72";"71";"module.training_block2.exec-6547.GoNoGo2";;;;;;;;;;;;"1249";"2014-02-13 16:47:24.708";"24";"0";"FINISHED";"LEFT";"success";"310";"0";"2014-02-13 16:47:23.458";"3";;;;;;;;;;;;;;;;;;;;;;;;;;;;;;;;;;;;;;;;;;;
"Yr2Prac_PPG";"1994";;"Windows 7";"Rachels Experiment - DP";"1.0";"2";"1";"1";"2";"1";"1";"2014-02-13 16:40:28.430";"2014-02-13 16:52:13.254";"1";"5";"0";"73";"72";"module.training_block2.exec-6547.GoNoGo2";;;;;;;;;;;;"1249";"2014-02-13 16:47:27.250";"1";"1";"FINISHED";"RIGHT";"success";"353";"0";"2014-02-13 16:47:26.000";"1";;;;;;;;;;;;;;;;;;;;;;;;;;;;;;;;;;;;;;;;;;;
"Yr2Prac_PPG";"1994";;"Windows 7";"Rachels Experiment - DP";"1.0";"2";"1";"1";"2";"1";"1";"2014-02-13 16:40:28.430";"2014-02-13 16:52:13.254";"1";"5";"0";"74";"73";"module.training_block2.exec-6547.GoNoGo2";;;;;;;;;;;;"1249";"2014-02-13 16:47:29.790";"18";"0";"FINISHED";"LEFT";"success";"272";"0";"2014-02-13 16:47:28.540";"3";;;;;;;;;;;;;;;;;;;;;;;;;;;;;;;;;;;;;;;;;;;
"Yr2Prac_PPG";"1994";;"Windows 7";"Rachels Experiment - DP";"1.0";"2";"1";"1";"2";"1";"1";"2014-02-13 16:40:28.430";"2014-02-13 16:52:13.254";"1";"5";"0";"75";"74";"module.training_block2.exec-6547.GoNoGo2";;;;;;;;;;;;"1250";"2014-02-13 16:47:32.360";"2";"1";"FINISHED";"RIGHT";"success";"276";"0";"2014-02-13 16:47:31.110";"1";;;;;;;;;;;;;;;;;;;;;;;;;;;;;;;;;;;;;;;;;;;
"Yr2Prac_PPG";"1994";;"Windows 7";"Rachels Experiment - DP";"1.0";"2";"1";"1";"2";"1";"1";"2014-02-13 16:40:28.430";"2014-02-13 16:52:13.254";"1";"5";"0";"76";"75";"module.training_block2.exec-6547.GoNoGo2";;;;;;;;;;;;"1250";"2014-02-13 16:47:34.899";"9";"0";"FINISHED";"LEFT";"success";"500";"0";"2014-02-13 16:47:33.649";"2";;;;;;;;;;;;;;;;;;;;;;;;;;;;;;;;;;;;;;;;;;;
"Yr2Prac_PPG";"1994";;"Windows 7";"Rachels Experiment - DP";"1.0";"2";"1";"1";"2";"1";"1";"2014-02-13 16:40:28.430";"2014-02-13 16:52:13.254";"1";"5";"0";"77";"76";"module.training_block2.exec-6547.GoNoGo2";;;;;;;;;;;;"1249";"2014-02-13 16:47:37.440";"10";"1";"FINISHED";"RIGHT";"success";"336";"0";"2014-02-13 16:47:36.190";"2";;;;;;;;;;;;;;;;;;;;;;;;;;;;;;;;;;;;;;;;;;;
"Yr2Prac_PPG";"1994";;"Windows 7";"Rachels Experiment - DP";"1.0";"2";"1";"1";"2";"1";"1";"2014-02-13 16:40:28.430";"2014-02-13 16:52:13.254";"1";"5";"0";"78";"77";"module.training_block2.exec-6547.GoNoGo2";;;;;;;;;;;;"1249";"2014-02-13 16:47:39.981";"3";"1";"FINISHED";"RIGHT";"success";"335";"0";"2014-02-13 16:47:38.731";"1";;;;;;;;;;;;;;;;;;;;;;;;;;;;;;;;;;;;;;;;;;;
"Yr2Prac_PPG";"1994";;"Windows 7";"Rachels Experiment - DP";"1.0";"2";"1";"1";"2";"1";"1";"2014-02-13 16:40:28.430";"2014-02-13 16:52:13.254";"1";"5";"0";"79";"78";"module.training_block2.exec-6547.GoNoGo2";;;;;;;;;;;;"1249";"2014-02-13 16:47:42.518";"6";"1";"FINISHED";"RIGHT";"success";"397";"0";"2014-02-13 16:47:41.268";"1";;;;;;;;;;;;;;;;;;;;;;;;;;;;;;;;;;;;;;;;;;;
"Yr2Prac_PPG";"1994";;"Windows 7";"Rachels Experiment - DP";"1.0";"2";"1";"1";"2";"1";"1";"2014-02-13 16:40:28.430";"2014-02-13 16:52:13.254";"1";"5";"0";"80";"79";"module.training_block2.exec-6547.GoNoGo2";;;;;;;;;;;;"1250";"2014-02-13 16:47:45.055";"11";"0";"FINISHED";"LEFT";"success";"369";"0";"2014-02-13 16:47:43.805";"2";;;;;;;;;;;;;;;;;;;;;;;;;;;;;;;;;;;;;;;;;;;
"Yr2Prac_PPG";"1994";;"Windows 7";"Rachels Experiment - DP";"1.0";"2";"1";"1";"2";"1";"1";"2014-02-13 16:40:28.430";"2014-02-13 16:52:13.254";"1";"5";"0";"81";"80";"module.training_block2.exec-6547.GoNoGo2";;;;;;;;;;;;"1250";"2014-02-13 16:47:47.595";"4";"1";"FINISHED";"RIGHT";"success";"281";"0";"2014-02-13 16:47:46.344";"1";;;;;;;;;;;;;;;;;;;;;;;;;;;;;;;;;;;;;;;;;;;
"Yr2Prac_PPG";"1994";;"Windows 7";"Rachels Experiment - DP";"1.0";"2";"1";"1";"2";"1";"1";"2014-02-13 16:40:28.430";"2014-02-13 16:52:13.254";"1";"5";"0";"82";"81";"module.training_block2.exec-6547.GoNoGo2";;;;;;;;;;;;"1250";"2014-02-13 16:47:50.131";"8";"1";"FINISHED";"RIGHT";"success";"356";"0";"2014-02-13 16:47:48.881";"1";;;;;;;;;;;;;;;;;;;;;;;;;;;;;;;;;;;;;;;;;;;
"Yr2Prac_PPG";"1994";;"Windows 7";"Rachels Experiment - DP";"1.0";"2";"1";"1";"2";"1";"1";"2014-02-13 16:40:28.430";"2014-02-13 16:52:13.254";"1";"5";"0";"83";"82";"module.training_block2.exec-6547.GoNoGo2";;;;;;;;;;;;"1250";"2014-02-13 16:47:52.669";"33";"0";"FINISHED";"LEFT";"success";"305";"0";"2014-02-13 16:47:51.419";"3";;;;;;;;;;;;;;;;;;;;;;;;;;;;;;;;;;;;;;;;;;;
"Yr2Prac_PPG";"1994";;"Windows 7";"Rachels Experiment - DP";"1.0";"2";"1";"1";"2";"1";"1";"2014-02-13 16:40:28.430";"2014-02-13 16:52:13.254";"1";"5";"0";"84";"83";"module.training_block2.exec-6547.GoNoGo2";;;;;;;;;;;;"1249";"2014-02-13 16:47:55.207";"26";"1";"FINISHED";"RIGHT";"success";"243";"0";"2014-02-13 16:47:53.957";"3";;;;;;;;;;;;;;;;;;;;;;;;;;;;;;;;;;;;;;;;;;;
"Yr2Prac_PPG";"1994";;"Windows 7";"Rachels Experiment - DP";"1.0";"2";"1";"1";"2";"1";"1";"2014-02-13 16:40:28.430";"2014-02-13 16:52:13.254";"1";"5";"0";"85";"84";"module.training_block2.exec-6547.GoNoGo2";;;;;;;;;;;;"1249";"2014-02-13 16:47:57.751";"21";"1";"FINISHED";"RIGHT";"success";"360";"0";"2014-02-13 16:47:56.501";"3";;;;;;;;;;;;;;;;;;;;;;;;;;;;;;;;;;;;;;;;;;;
"Yr2Prac_PPG";"1994";;"Windows 7";"Rachels Experiment - DP";"1.0";"2";"1";"1";"2";"1";"1";"2014-02-13 16:40:28.430";"2014-02-13 16:52:13.254";"1";"5";"0";"86";"85";"module.training_block2.exec-6547.GoNoGo2";;;;;;;;;;;;"1249";"2014-02-13 16:48:00.287";"16";"1";"FINISHED";"RIGHT";"success";"320";"0";"2014-02-13 16:47:59.037";"2";;;;;;;;;;;;;;;;;;;;;;;;;;;;;;;;;;;;;;;;;;;
"Yr2Prac_PPG";"1994";;"Windows 7";"Rachels Experiment - DP";"1.0";"2";"1";"1";"2";"1";"1";"2014-02-13 16:40:28.430";"2014-02-13 16:52:13.254";"1";"5";"0";"87";"86";"module.training_block2.exec-6547.GoNoGo2";;;;;;;;;;;;"1249";"2014-02-13 16:48:02.837";"31";"1";"FINISHED";"RIGHT";"success";"359";"0";"2014-02-13 16:48:01.587";"3";;;;;;;;;;;;;;;;;;;;;;;;;;;;;;;;;;;;;;;;;;;
"Yr2Prac_PPG";"1994";;"Windows 7";"Rachels Experiment - DP";"1.0";"2";"1";"1";"2";"1";"1";"2014-02-13 16:40:28.430";"2014-02-13 16:52:13.254";"1";"5";"0";"88";"87";"module.training_block3.exec-8637.GoNoGo3";;;;;;;;;;;;;;;;;;;;;;;"1249";"2014-02-13 16:48:47.996";"29";"1";"FINISHED";"RIGHT";"success";"908";"0";"2014-02-13 16:48:46.746";"3";;;;;;;;;;;;;;;;;;;;;;;;;;;;;;;;
"Yr2Prac_PPG";"1994";;"Windows 7";"Rachels Experiment - DP";"1.0";"2";"1";"1";"2";"1";"1";"2014-02-13 16:40:28.430";"2014-02-13 16:52:13.254";"1";"5";"0";"89";"88";"module.training_block3.exec-8637.GoNoGo3";;;;;;;;;;;;;;;;;;;;;;;"1250";"2014-02-13 16:48:50.533";"23";"1";"FINISHED";"RIGHT";"success";"293";"0";"2014-02-13 16:48:49.283";"3";;;;;;;;;;;;;;;;;;;;;;;;;;;;;;;;
"Yr2Prac_PPG";"1994";;"Windows 7";"Rachels Experiment - DP";"1.0";"2";"1";"1";"2";"1";"1";"2014-02-13 16:40:28.430";"2014-02-13 16:52:13.254";"1";"5";"0";"90";"89";"module.training_block3.exec-8637.GoNoGo3";;;;;;;;;;;;;;;;;;;;;;;"1250";"2014-02-13 16:48:53.069";"31";"1";"FINISHED";"RIGHT";"success";"314";"0";"2014-02-13 16:48:51.819";"3";;;;;;;;;;;;;;;;;;;;;;;;;;;;;;;;
"Yr2Prac_PPG";"1994";;"Windows 7";"Rachels Experiment - DP";"1.0";"2";"1";"1";"2";"1";"1";"2014-02-13 16:40:28.430";"2014-02-13 16:52:13.254";"1";"5";"0";"91";"90";"module.training_block3.exec-8637.GoNoGo3";;;;;;;;;;;;;;;;;;;;;;;"1250";"2014-02-13 16:48:55.604";"4";"1";"FINISHED";"RIGHT";"success";"279";"0";"2014-02-13 16:48:54.354";"1";;;;;;;;;;;;;;;;;;;;;;;;;;;;;;;;
"Yr2Prac_PPG";"1994";;"Windows 7";"Rachels Experiment - DP";"1.0";"2";"1";"1";"2";"1";"1";"2014-02-13 16:40:28.430";"2014-02-13 16:52:13.254";"1";"5";"0";"92";"91";"module.training_block3.exec-8637.GoNoGo3";;;;;;;;;;;;;;;;;;;;;;;"1250";"2014-02-13 16:48:58.140";"12";"0";"FINISHED";"LEFT";"success";"270";"0";"2014-02-13 16:48:56.889";"2";;;;;;;;;;;;;;;;;;;;;;;;;;;;;;;;
"Yr2Prac_PPG";"1994";;"Windows 7";"Rachels Experiment - DP";"1.0";"2";"1";"1";"2";"1";"1";"2014-02-13 16:40:28.430";"2014-02-13 16:52:13.254";"1";"5";"0";"93";"92";"module.training_block3.exec-8637.GoNoGo3";;;;;;;;;;;;;;;;;;;;;;;"1250";"2014-02-13 16:49:00.675";"27";"1";"FINISHED";"RIGHT";"success";"280";"0";"2014-02-13 16:48:59.425";"3";;;;;;;;;;;;;;;;;;;;;;;;;;;;;;;;
"Yr2Prac_PPG";"1994";;"Windows 7";"Rachels Experiment - DP";"1.0";"2";"1";"1";"2";"1";"1";"2014-02-13 16:40:28.430";"2014-02-13 16:52:13.254";"1";"5";"0";"94";"93";"module.training_block3.exec-8637.GoNoGo3";;;;;;;;;;;;;;;;;;;;;;;"1250";"2014-02-13 16:49:03.210";"32";"0";"FINISHED";"LEFT";"success";"267";"0";"2014-02-13 16:49:01.960";"3";;;;;;;;;;;;;;;;;;;;;;;;;;;;;;;;
"Yr2Prac_PPG";"1994";;"Windows 7";"Rachels Experiment - DP";"1.0";"2";"1";"1";"2";"1";"1";"2014-02-13 16:40:28.430";"2014-02-13 16:52:13.254";"1";"5";"0";"95";"94";"module.training_block3.exec-8637.GoNoGo3";;;;;;;;;;;;;;;;;;;;;;;"1250";"2014-02-13 16:49:05.746";"25";"1";"FINISHED";"RIGHT";"success";"298";"0";"2014-02-13 16:49:04.496";"3";;;;;;;;;;;;;;;;;;;;;;;;;;;;;;;;
"Yr2Prac_PPG";"1994";;"Windows 7";"Rachels Experiment - DP";"1.0";"2";"1";"1";"2";"1";"1";"2014-02-13 16:40:28.430";"2014-02-13 16:52:13.254";"1";"5";"0";"96";"95";"module.training_block3.exec-8637.GoNoGo3";;;;;;;;;;;;;;;;;;;;;;;"1249";"2014-02-13 16:49:08.280";"18";"0";"FINISHED";"LEFT";"success";"301";"0";"2014-02-13 16:49:07.030";"3";;;;;;;;;;;;;;;;;;;;;;;;;;;;;;;;
"Yr2Prac_PPG";"1994";;"Windows 7";"Rachels Experiment - DP";"1.0";"2";"1";"1";"2";"1";"1";"2014-02-13 16:40:28.430";"2014-02-13 16:52:13.254";"1";"5";"0";"97";"96";"module.training_block3.exec-8637.GoNoGo3";;;;;;;;;;;;;;;;;;;;;;;"1249";"2014-02-13 16:49:10.815";"16";"1";"FINISHED";"RIGHT";"success";"300";"0";"2014-02-13 16:49:09.565";"2";;;;;;;;;;;;;;;;;;;;;;;;;;;;;;;;
"Yr2Prac_PPG";"1994";;"Windows 7";"Rachels Experiment - DP";"1.0";"2";"1";"1";"2";"1";"1";"2014-02-13 16:40:28.430";"2014-02-13 16:52:13.254";"1";"5";"0";"98";"97";"module.training_block3.exec-8637.GoNoGo3";;;;;;;;;;;;;;;;;;;;;;;"1250";"2014-02-13 16:49:13.349";"9";"1";"FINISHED";"RIGHT";"success";"349";"0";"2014-02-13 16:49:12.099";"2";;;;;;;;;;;;;;;;;;;;;;;;;;;;;;;;
"Yr2Prac_PPG";"1994";;"Windows 7";"Rachels Experiment - DP";"1.0";"2";"1";"1";"2";"1";"1";"2014-02-13 16:40:28.430";"2014-02-13 16:52:13.254";"1";"5";"0";"99";"98";"module.training_block3.exec-8637.GoNoGo3";;;;;;;;;;;;;;;;;;;;;;;"1249";"2014-02-13 16:49:15.892";"15";"1";"FINISHED";"RIGHT";"success";"270";"0";"2014-02-13 16:49:14.641";"2";;;;;;;;;;;;;;;;;;;;;;;;;;;;;;;;
"Yr2Prac_PPG";"1994";;"Windows 7";"Rachels Experiment - DP";"1.0";"2";"1";"1";"2";"1";"1";"2014-02-13 16:40:28.430";"2014-02-13 16:52:13.254";"1";"5";"0";"100";"99";"module.training_block3.exec-8637.GoNoGo3";;;;;;;;;;;;;;;;;;;;;;;"1250";"2014-02-13 16:49:18.427";"17";"0";"FINISHED";"LEFT";"success";"365";"0";"2014-02-13 16:49:17.177";"2";;;;;;;;;;;;;;;;;;;;;;;;;;;;;;;;
"Yr2Prac_PPG";"1994";;"Windows 7";"Rachels Experiment - DP";"1.0";"2";"1";"1";"2";"1";"1";"2014-02-13 16:40:28.430";"2014-02-13 16:52:13.254";"1";"5";"0";"101";"100";"module.training_block3.exec-8637.GoNoGo3";;;;;;;;;;;;;;;;;;;;;;;"1249";"2014-02-13 16:49:20.962";"19";"1";"FINISHED";"RIGHT";"success";"348";"0";"2014-02-13 16:49:19.712";"3";;;;;;;;;;;;;;;;;;;;;;;;;;;;;;;;
"Yr2Prac_PPG";"1994";;"Windows 7";"Rachels Experiment - DP";"1.0";"2";"1";"1";"2";"1";"1";"2014-02-13 16:40:28.430";"2014-02-13 16:52:13.254";"1";"5";"0";"102";"101";"module.training_block3.exec-8637.GoNoGo3";;;;;;;;;;;;;;;;;;;;;;;"1250";"2014-02-13 16:49:23.496";"1";"0";"FINISHED";"LEFT";"success";"325";"0";"2014-02-13 16:49:22.246";"1";;;;;;;;;;;;;;;;;;;;;;;;;;;;;;;;
"Yr2Prac_PPG";"1994";;"Windows 7";"Rachels Experiment - DP";"1.0";"2";"1";"1";"2";"1";"1";"2014-02-13 16:40:28.430";"2014-02-13 16:52:13.254";"1";"5";"0";"103";"102";"module.training_block3.exec-8637.GoNoGo3";;;;;;;;;;;;;;;;;;;;;;;"1249";"2014-02-13 16:49:26.032";"5";"0";"FINISHED";"LEFT";"success";"356";"0";"2014-02-13 16:49:24.782";"1";;;;;;;;;;;;;;;;;;;;;;;;;;;;;;;;
"Yr2Prac_PPG";"1994";;"Windows 7";"Rachels Experiment - DP";"1.0";"2";"1";"1";"2";"1";"1";"2014-02-13 16:40:28.430";"2014-02-13 16:52:13.254";"1";"5";"0";"104";"103";"module.training_block3.exec-8637.GoNoGo3";;;;;;;;;;;;;;;;;;;;;;;"1250";"2014-02-13 16:49:28.575";"30";"0";"FINISHED";"LEFT";"success";"288";"0";"2014-02-13 16:49:27.325";"3";;;;;;;;;;;;;;;;;;;;;;;;;;;;;;;;
"Yr2Prac_PPG";"1994";;"Windows 7";"Rachels Experiment - DP";"1.0";"2";"1";"1";"2";"1";"1";"2014-02-13 16:40:28.430";"2014-02-13 16:52:13.254";"1";"5";"0";"105";"104";"module.training_block3.exec-8637.GoNoGo3";;;;;;;;;;;;;;;;;;;;;;;"1250";"2014-02-13 16:49:31.112";"0";"0";"FINISHED";"LEFT";"success";"254";"0";"2014-02-13 16:49:29.862";"1";;;;;;;;;;;;;;;;;;;;;;;;;;;;;;;;
"Yr2Prac_PPG";"1994";;"Windows 7";"Rachels Experiment - DP";"1.0";"2";"1";"1";"2";"1";"1";"2014-02-13 16:40:28.430";"2014-02-13 16:52:13.254";"1";"5";"0";"106";"105";"module.training_block3.exec-8637.GoNoGo3";;;;;;;;;;;;;;;;;;;;;;;"1250";"2014-02-13 16:49:33.648";"24";"0";"FINISHED";"LEFT";"success";"257";"0";"2014-02-13 16:49:32.397";"3";;;;;;;;;;;;;;;;;;;;;;;;;;;;;;;;
"Yr2Prac_PPG";"1994";;"Windows 7";"Rachels Experiment - DP";"1.0";"2";"1";"1";"2";"1";"1";"2014-02-13 16:40:28.430";"2014-02-13 16:52:13.254";"1";"5";"0";"107";"106";"module.training_block3.exec-8637.GoNoGo3";;;;;;;;;;;;;;;;;;;;;;;"1250";"2014-02-13 16:49:36.183";"34";"0";"FINISHED";"LEFT";"success";"265";"0";"2014-02-13 16:49:34.933";"3";;;;;;;;;;;;;;;;;;;;;;;;;;;;;;;;
"Yr2Prac_PPG";"1994";;"Windows 7";"Rachels Experiment - DP";"1.0";"2";"1";"1";"2";"1";"1";"2014-02-13 16:40:28.430";"2014-02-13 16:52:13.254";"1";"5";"0";"108";"107";"module.training_block3.exec-8637.GoNoGo3";;;;;;;;;;;;;;;;;;;;;;;"1249";"2014-02-13 16:49:38.717";"14";"0";"FINISHED";"LEFT";"success";"268";"0";"2014-02-13 16:49:37.467";"2";;;;;;;;;;;;;;;;;;;;;;;;;;;;;;;;
"Yr2Prac_PPG";"1994";;"Windows 7";"Rachels Experiment - DP";"1.0";"2";"1";"1";"2";"1";"1";"2014-02-13 16:40:28.430";"2014-02-13 16:52:13.254";"1";"5";"0";"109";"108";"module.training_block3.exec-8637.GoNoGo3";;;;;;;;;;;;;;;;;;;;;;;"1250";"2014-02-13 16:49:41.252";"35";"1";"FINISHED";"RIGHT";"success";"295";"0";"2014-02-13 16:49:40.002";"3";;;;;;;;;;;;;;;;;;;;;;;;;;;;;;;;
"Yr2Prac_PPG";"1994";;"Windows 7";"Rachels Experiment - DP";"1.0";"2";"1";"1";"2";"1";"1";"2014-02-13 16:40:28.430";"2014-02-13 16:52:13.254";"1";"5";"0";"110";"109";"module.training_block3.exec-8637.GoNoGo3";;;;;;;;;;;;;;;;;;;;;;;"1250";"2014-02-13 16:49:43.789";"33";"0";"FINISHED";"LEFT";"success";"287";"0";"2014-02-13 16:49:42.539";"3";;;;;;;;;;;;;;;;;;;;;;;;;;;;;;;;
"Yr2Prac_PPG";"1994";;"Windows 7";"Rachels Experiment - DP";"1.0";"2";"1";"1";"2";"1";"1";"2014-02-13 16:40:28.430";"2014-02-13 16:52:13.254";"1";"5";"0";"111";"110";"module.training_block3.exec-8637.GoNoGo3";;;;;;;;;;;;;;;;;;;;;;;"1249";"2014-02-13 16:49:46.328";"26";"0";"FINISHED";"LEFT";"success";"320";"0";"2014-02-13 16:49:45.078";"3";;;;;;;;;;;;;;;;;;;;;;;;;;;;;;;;
"Yr2Prac_PPG";"1994";;"Windows 7";"Rachels Experiment - DP";"1.0";"2";"1";"1";"2";"1";"1";"2014-02-13 16:40:28.430";"2014-02-13 16:52:13.254";"1";"5";"0";"112";"111";"module.training_block3.exec-8637.GoNoGo3";;;;;;;;;;;;;;;;;;;;;;;"1250";"2014-02-13 16:49:48.863";"11";"0";"FINISHED";"LEFT";"success";"317";"0";"2014-02-13 16:49:47.613";"2";;;;;;;;;;;;;;;;;;;;;;;;;;;;;;;;
"Yr2Prac_PPG";"1994";;"Windows 7";"Rachels Experiment - DP";"1.0";"2";"1";"1";"2";"1";"1";"2014-02-13 16:40:28.430";"2014-02-13 16:52:13.254";"1";"5";"0";"113";"112";"module.training_block3.exec-8637.GoNoGo3";;;;;;;;;;;;;;;;;;;;;;;"1250";"2014-02-13 16:49:51.398";"6";"1";"FINISHED";"RIGHT";"success";"291";"0";"2014-02-13 16:49:50.148";"1";;;;;;;;;;;;;;;;;;;;;;;;;;;;;;;;
"Yr2Prac_PPG";"1994";;"Windows 7";"Rachels Experiment - DP";"1.0";"2";"1";"1";"2";"1";"1";"2014-02-13 16:40:28.430";"2014-02-13 16:52:13.254";"1";"5";"0";"114";"113";"module.training_block3.exec-8637.GoNoGo3";;;;;;;;;;;;;;;;;;;;;;;"1249";"2014-02-13 16:49:53.932";"28";"1";"FINISHED";"RIGHT";"success";"362";"0";"2014-02-13 16:49:52.682";"3";;;;;;;;;;;;;;;;;;;;;;;;;;;;;;;;
"Yr2Prac_PPG";"1994";;"Windows 7";"Rachels Experiment - DP";"1.0";"2";"1";"1";"2";"1";"1";"2014-02-13 16:40:28.430";"2014-02-13 16:52:13.254";"1";"5";"0";"115";"114";"module.training_block3.exec-8637.GoNoGo3";;;;;;;;;;;;;;;;;;;;;;;"1250";"2014-02-13 16:49:56.468";"22";"1";"FINISHED";"RIGHT";"success";"316";"0";"2014-02-13 16:49:55.218";"3";;;;;;;;;;;;;;;;;;;;;;;;;;;;;;;;
"Yr2Prac_PPG";"1994";;"Windows 7";"Rachels Experiment - DP";"1.0";"2";"1";"1";"2";"1";"1";"2014-02-13 16:40:28.430";"2014-02-13 16:52:13.254";"1";"5";"0";"116";"115";"module.training_block3.exec-8637.GoNoGo3";;;;;;;;;;;;;;;;;;;;;;;"1249";"2014-02-13 16:49:59.004";"20";"1";"FINISHED";"RIGHT";"success";"305";"0";"2014-02-13 16:49:57.754";"3";;;;;;;;;;;;;;;;;;;;;;;;;;;;;;;;
"Yr2Prac_PPG";"1994";;"Windows 7";"Rachels Experiment - DP";"1.0";"2";"1";"1";"2";"1";"1";"2014-02-13 16:40:28.430";"2014-02-13 16:52:13.254";"1";"5";"0";"117";"116";"module.training_block3.exec-8637.GoNoGo3";;;;;;;;;;;;;;;;;;;;;;;"1250";"2014-02-13 16:50:01.539";"7";"1";"FINISHED";"RIGHT";"success";"321";"0";"2014-02-13 16:50:00.289";"1";;;;;;;;;;;;;;;;;;;;;;;;;;;;;;;;
"Yr2Prac_PPG";"1994";;"Windows 7";"Rachels Experiment - DP";"1.0";"2";"1";"1";"2";"1";"1";"2014-02-13 16:40:28.430";"2014-02-13 16:52:13.254";"1";"5";"0";"118";"117";"module.training_block3.exec-8637.GoNoGo3";;;;;;;;;;;;;;;;;;;;;;;"1250";"2014-02-13 16:50:04.079";"21";"1";"FINISHED";"RIGHT";"success";"321";"0";"2014-02-13 16:50:02.829";"3";;;;;;;;;;;;;;;;;;;;;;;;;;;;;;;;
"Yr2Prac_PPG";"1994";;"Windows 7";"Rachels Experiment - DP";"1.0";"2";"1";"1";"2";"1";"1";"2014-02-13 16:40:28.430";"2014-02-13 16:52:13.254";"1";"5";"0";"119";"118";"module.training_block3.exec-8637.GoNoGo3";;;;;;;;;;;;;;;;;;;;;;;"1250";"2014-02-13 16:50:06.625";"2";"1";"FINISHED";"RIGHT";"success";"273";"0";"2014-02-13 16:50:05.375";"1";;;;;;;;;;;;;;;;;;;;;;;;;;;;;;;;
"Yr2Prac_PPG";"1994";;"Windows 7";"Rachels Experiment - DP";"1.0";"2";"1";"1";"2";"1";"1";"2014-02-13 16:40:28.430";"2014-02-13 16:52:13.254";"1";"5";"0";"120";"119";"module.training_block3.exec-8637.GoNoGo3";;;;;;;;;;;;;;;;;;;;;;;"1249";"2014-02-13 16:50:09.162";"8";"1";"FINISHED";"RIGHT";"success";"276";"0";"2014-02-13 16:50:07.912";"1";;;;;;;;;;;;;;;;;;;;;;;;;;;;;;;;
"Yr2Prac_PPG";"1994";;"Windows 7";"Rachels Experiment - DP";"1.0";"2";"1";"1";"2";"1";"1";"2014-02-13 16:40:28.430";"2014-02-13 16:52:13.254";"1";"5";"0";"121";"120";"module.training_block3.exec-8637.GoNoGo3";;;;;;;;;;;;;;;;;;;;;;;"1250";"2014-02-13 16:50:11.695";"10";"0";"FINISHED";"LEFT";"success";"291";"0";"2014-02-13 16:50:10.445";"2";;;;;;;;;;;;;;;;;;;;;;;;;;;;;;;;
"Yr2Prac_PPG";"1994";;"Windows 7";"Rachels Experiment - DP";"1.0";"2";"1";"1";"2";"1";"1";"2014-02-13 16:40:28.430";"2014-02-13 16:52:13.254";"1";"5";"0";"122";"121";"module.training_block3.exec-8637.GoNoGo3";;;;;;;;;;;;;;;;;;;;;;;"1249";"2014-02-13 16:50:14.230";"13";"0";"FINISHED";"LEFT";"success";"273";"0";"2014-02-13 16:50:12.980";"2";;;;;;;;;;;;;;;;;;;;;;;;;;;;;;;;
"Yr2Prac_PPG";"1994";;"Windows 7";"Rachels Experiment - DP";"1.0";"2";"1";"1";"2";"1";"1";"2014-02-13 16:40:28.430";"2014-02-13 16:52:13.254";"1";"5";"0";"123";"122";"module.training_block3.exec-8637.GoNoGo3";;;;;;;;;;;;;;;;;;;;;;;"1250";"2014-02-13 16:50:16.770";"3";"0";"FINISHED";"LEFT";"success";"352";"0";"2014-02-13 16:50:15.520";"1";;;;;;;;;;;;;;;;;;;;;;;;;;;;;;;;
"Yr2Prac_PPG";"1994";;"Windows 7";"Rachels Experiment - DP";"1.0";"2";"1";"1";"2";"1";"1";"2014-02-13 16:40:28.430";"2014-02-13 16:52:13.254";"1";"5";"0";"124";"123";"module.training_block4.exec-9124.GoNoGo4";;;;;;;;;;;;;;;;;;;;;;;;;;;;;;;;;;"1250";"2014-02-13 16:50:32.256";"28";"0";"FINISHED";"LEFT";"success";"345";"0";"2014-02-13 16:50:31.006";"3";;;;;;;;;;;;;;;;;;;;;
"Yr2Prac_PPG";"1994";;"Windows 7";"Rachels Experiment - DP";"1.0";"2";"1";"1";"2";"1";"1";"2014-02-13 16:40:28.430";"2014-02-13 16:52:13.254";"1";"5";"0";"125";"124";"module.training_block4.exec-9124.GoNoGo4";;;;;;;;;;;;;;;;;;;;;;;;;;;;;;;;;;"1249";"2014-02-13 16:50:34.790";"11";"1";"FINISHED";"RIGHT";"success";"303";"0";"2014-02-13 16:50:33.540";"2";;;;;;;;;;;;;;;;;;;;;
"Yr2Prac_PPG";"1994";;"Windows 7";"Rachels Experiment - DP";"1.0";"2";"1";"1";"2";"1";"1";"2014-02-13 16:40:28.430";"2014-02-13 16:52:13.254";"1";"5";"0";"126";"125";"module.training_block4.exec-9124.GoNoGo4";;;;;;;;;;;;;;;;;;;;;;;;;;;;;;;;;;"1249";"2014-02-13 16:50:37.323";"35";"0";"FINISHED";"LEFT";"success";"311";"0";"2014-02-13 16:50:36.073";"3";;;;;;;;;;;;;;;;;;;;;
"Yr2Prac_PPG";"1994";;"Windows 7";"Rachels Experiment - DP";"1.0";"2";"1";"1";"2";"1";"1";"2014-02-13 16:40:28.430";"2014-02-13 16:52:13.254";"1";"5";"0";"127";"126";"module.training_block4.exec-9124.GoNoGo4";;;;;;;;;;;;;;;;;;;;;;;;;;;;;;;;;;"1249";"2014-02-13 16:50:39.857";"23";"1";"FINISHED";"RIGHT";"success";"263";"0";"2014-02-13 16:50:38.607";"3";;;;;;;;;;;;;;;;;;;;;
"Yr2Prac_PPG";"1994";;"Windows 7";"Rachels Experiment - DP";"1.0";"2";"1";"1";"2";"1";"1";"2014-02-13 16:40:28.430";"2014-02-13 16:52:13.254";"1";"5";"0";"128";"127";"module.training_block4.exec-9124.GoNoGo4";;;;;;;;;;;;;;;;;;;;;;;;;;;;;;;;;;"1250";"2014-02-13 16:50:42.391";"19";"0";"FINISHED";"LEFT";"success";"268";"0";"2014-02-13 16:50:41.140";"3";;;;;;;;;;;;;;;;;;;;;
"Yr2Prac_PPG";"1994";;"Windows 7";"Rachels Experiment - DP";"1.0";"2";"1";"1";"2";"1";"1";"2014-02-13 16:40:28.430";"2014-02-13 16:52:13.254";"1";"5";"0";"129";"128";"module.training_block4.exec-9124.GoNoGo4";;;;;;;;;;;;;;;;;;;;;;;;;;;;;;;;;;"1249";"2014-02-13 16:50:44.923";"24";"0";"FINISHED";"LEFT";"success";"278";"0";"2014-02-13 16:50:43.673";"3";;;;;;;;;;;;;;;;;;;;;
"Yr2Prac_PPG";"1994";;"Windows 7";"Rachels Experiment - DP";"1.0";"2";"1";"1";"2";"1";"1";"2014-02-13 16:40:28.430";"2014-02-13 16:52:13.254";"1";"5";"0";"130";"129";"module.training_block4.exec-9124.GoNoGo4";;;;;;;;;;;;;;;;;;;;;;;;;;;;;;;;;;"1249";"2014-02-13 16:50:47.459";"17";"1";"FINISHED";"RIGHT";"success";"294";"0";"2014-02-13 16:50:46.209";"2";;;;;;;;;;;;;;;;;;;;;
"Yr2Prac_PPG";"1994";;"Windows 7";"Rachels Experiment - DP";"1.0";"2";"1";"1";"2";"1";"1";"2014-02-13 16:40:28.430";"2014-02-13 16:52:13.254";"1";"5";"0";"131";"130";"module.training_block4.exec-9124.GoNoGo4";;;;;;;;;;;;;;;;;;;;;;;;;;;;;;;;;;"1249";"2014-02-13 16:50:49.993";"9";"0";"FINISHED";"LEFT";"success";"277";"0";"2014-02-13 16:50:48.743";"2";;;;;;;;;;;;;;;;;;;;;
"Yr2Prac_PPG";"1994";;"Windows 7";"Rachels Experiment - DP";"1.0";"2";"1";"1";"2";"1";"1";"2014-02-13 16:40:28.430";"2014-02-13 16:52:13.254";"1";"5";"0";"132";"131";"module.training_block4.exec-9124.GoNoGo4";;;;;;;;;;;;;;;;;;;;;;;;;;;;;;;;;;"1250";"2014-02-13 16:50:52.530";"26";"0";"FINISHED";"LEFT";"success";"284";"0";"2014-02-13 16:50:51.280";"3";;;;;;;;;;;;;;;;;;;;;
"Yr2Prac_PPG";"1994";;"Windows 7";"Rachels Experiment - DP";"1.0";"2";"1";"1";"2";"1";"1";"2014-02-13 16:40:28.430";"2014-02-13 16:52:13.254";"1";"5";"0";"133";"132";"module.training_block4.exec-9124.GoNoGo4";;;;;;;;;;;;;;;;;;;;;;;;;;;;;;;;;;"1250";"2014-02-13 16:50:55.066";"2";"0";"FINISHED";"LEFT";"success";"301";"0";"2014-02-13 16:50:53.816";"1";;;;;;;;;;;;;;;;;;;;;
"Yr2Prac_PPG";"1994";;"Windows 7";"Rachels Experiment - DP";"1.0";"2";"1";"1";"2";"1";"1";"2014-02-13 16:40:28.430";"2014-02-13 16:52:13.254";"1";"5";"0";"134";"133";"module.training_block4.exec-9124.GoNoGo4";;;;;;;;;;;;;;;;;;;;;;;;;;;;;;;;;;"1250";"2014-02-13 16:50:57.603";"30";"1";"FINISHED";"RIGHT";"success";"301";"0";"2014-02-13 16:50:56.353";"3";;;;;;;;;;;;;;;;;;;;;
"Yr2Prac_PPG";"1994";;"Windows 7";"Rachels Experiment - DP";"1.0";"2";"1";"1";"2";"1";"1";"2014-02-13 16:40:28.430";"2014-02-13 16:52:13.254";"1";"5";"0";"135";"134";"module.training_block4.exec-9124.GoNoGo4";;;;;;;;;;;;;;;;;;;;;;;;;;;;;;;;;;"1250";"2014-02-13 16:51:00.138";"7";"1";"FINISHED";"RIGHT";"success";"328";"0";"2014-02-13 16:50:58.887";"1";;;;;;;;;;;;;;;;;;;;;
"Yr2Prac_PPG";"1994";;"Windows 7";"Rachels Experiment - DP";"1.0";"2";"1";"1";"2";"1";"1";"2014-02-13 16:40:28.430";"2014-02-13 16:52:13.254";"1";"5";"0";"136";"135";"module.training_block4.exec-9124.GoNoGo4";;;;;;;;;;;;;;;;;;;;;;;;;;;;;;;;;;"1249";"2014-02-13 16:51:02.670";"0";"1";"FINISHED";"RIGHT";"success";"346";"0";"2014-02-13 16:51:01.420";"1";;;;;;;;;;;;;;;;;;;;;
"Yr2Prac_PPG";"1994";;"Windows 7";"Rachels Experiment - DP";"1.0";"2";"1";"1";"2";"1";"1";"2014-02-13 16:40:28.430";"2014-02-13 16:52:13.254";"1";"5";"0";"137";"136";"module.training_block4.exec-9124.GoNoGo4";;;;;;;;;;;;;;;;;;;;;;;;;;;;;;;;;;"1249";"2014-02-13 16:51:05.202";"6";"1";"FINISHED";"RIGHT";"success";"287";"0";"2014-02-13 16:51:03.952";"1";;;;;;;;;;;;;;;;;;;;;
"Yr2Prac_PPG";"1994";;"Windows 7";"Rachels Experiment - DP";"1.0";"2";"1";"1";"2";"1";"1";"2014-02-13 16:40:28.430";"2014-02-13 16:52:13.254";"1";"5";"0";"138";"137";"module.training_block4.exec-9124.GoNoGo4";;;;;;;;;;;;;;;;;;;;;;;;;;;;;;;;;;"1249";"2014-02-13 16:51:07.737";"21";"1";"FINISHED";"RIGHT";"success";"303";"0";"2014-02-13 16:51:06.487";"3";;;;;;;;;;;;;;;;;;;;;
"Yr2Prac_PPG";"1994";;"Windows 7";"Rachels Experiment - DP";"1.0";"2";"1";"1";"2";"1";"1";"2014-02-13 16:40:28.430";"2014-02-13 16:52:13.254";"1";"5";"0";"139";"138";"module.training_block4.exec-9124.GoNoGo4";;;;;;;;;;;;;;;;;;;;;;;;;;;;;;;;;;"1249";"2014-02-13 16:51:10.273";"22";"0";"FINISHED";"LEFT";"success";"298";"0";"2014-02-13 16:51:09.023";"3";;;;;;;;;;;;;;;;;;;;;
"Yr2Prac_PPG";"1994";;"Windows 7";"Rachels Experiment - DP";"1.0";"2";"1";"1";"2";"1";"1";"2014-02-13 16:40:28.430";"2014-02-13 16:52:13.254";"1";"5";"0";"140";"139";"module.training_block4.exec-9124.GoNoGo4";;;;;;;;;;;;;;;;;;;;;;;;;;;;;;;;;;"1249";"2014-02-13 16:51:12.805";"12";"1";"FINISHED";"RIGHT";"success";"305";"0";"2014-02-13 16:51:11.555";"2";;;;;;;;;;;;;;;;;;;;;
"Yr2Prac_PPG";"1994";;"Windows 7";"Rachels Experiment - DP";"1.0";"2";"1";"1";"2";"1";"1";"2014-02-13 16:40:28.430";"2014-02-13 16:52:13.254";"1";"5";"0";"141";"140";"module.training_block4.exec-9124.GoNoGo4";;;;;;;;;;;;;;;;;;;;;;;;;;;;;;;;;;"1250";"2014-02-13 16:51:15.336";"25";"1";"FINISHED";"RIGHT";"success";"327";"0";"2014-02-13 16:51:14.086";"3";;;;;;;;;;;;;;;;;;;;;
"Yr2Prac_PPG";"1994";;"Windows 7";"Rachels Experiment - DP";"1.0";"2";"1";"1";"2";"1";"1";"2014-02-13 16:40:28.430";"2014-02-13 16:52:13.254";"1";"5";"0";"142";"141";"module.training_block4.exec-9124.GoNoGo4";;;;;;;;;;;;;;;;;;;;;;;;;;;;;;;;;;"1249";"2014-02-13 16:51:17.871";"10";"1";"FINISHED";"RIGHT";"success";"281";"0";"2014-02-13 16:51:16.620";"2";;;;;;;;;;;;;;;;;;;;;
"Yr2Prac_PPG";"1994";;"Windows 7";"Rachels Experiment - DP";"1.0";"2";"1";"1";"2";"1";"1";"2014-02-13 16:40:28.430";"2014-02-13 16:52:13.254";"1";"5";"0";"143";"142";"module.training_block4.exec-9124.GoNoGo4";;;;;;;;;;;;;;;;;;;;;;;;;;;;;;;;;;"1250";"2014-02-13 16:51:20.404";"5";"1";"FINISHED";"RIGHT";"success";"279";"0";"2014-02-13 16:51:19.154";"1";;;;;;;;;;;;;;;;;;;;;
"Yr2Prac_PPG";"1994";;"Windows 7";"Rachels Experiment - DP";"1.0";"2";"1";"1";"2";"1";"1";"2014-02-13 16:40:28.430";"2014-02-13 16:52:13.254";"1";"5";"0";"144";"143";"module.training_block4.exec-9124.GoNoGo4";;;;;;;;;;;;;;;;;;;;;;;;;;;;;;;;;;"1250";"2014-02-13 16:51:22.935";"32";"1";"FINISHED";"RIGHT";"success";"322";"0";"2014-02-13 16:51:21.685";"3";;;;;;;;;;;;;;;;;;;;;
"Yr2Prac_PPG";"1994";;"Windows 7";"Rachels Experiment - DP";"1.0";"2";"1";"1";"2";"1";"1";"2014-02-13 16:40:28.430";"2014-02-13 16:52:13.254";"1";"5";"0";"145";"144";"module.training_block4.exec-9124.GoNoGo4";;;;;;;;;;;;;;;;;;;;;;;;;;;;;;;;;;"1249";"2014-02-13 16:51:25.466";"34";"1";"FINISHED";"RIGHT";"success";"264";"0";"2014-02-13 16:51:24.216";"3";;;;;;;;;;;;;;;;;;;;;
"Yr2Prac_PPG";"1994";;"Windows 7";"Rachels Experiment - DP";"1.0";"2";"1";"1";"2";"1";"1";"2014-02-13 16:40:28.430";"2014-02-13 16:52:13.254";"1";"5";"0";"146";"145";"module.training_block4.exec-9124.GoNoGo4";;;;;;;;;;;;;;;;;;;;;;;;;;;;;;;;;;"1250";"2014-02-13 16:51:27.999";"13";"1";"FINISHED";"RIGHT";"success";"322";"0";"2014-02-13 16:51:26.749";"2";;;;;;;;;;;;;;;;;;;;;
"Yr2Prac_PPG";"1994";;"Windows 7";"Rachels Experiment - DP";"1.0";"2";"1";"1";"2";"1";"1";"2014-02-13 16:40:28.430";"2014-02-13 16:52:13.254";"1";"5";"0";"147";"146";"module.training_block4.exec-9124.GoNoGo4";;;;;;;;;;;;;;;;;;;;;;;;;;;;;;;;;;"1249";"2014-02-13 16:51:30.529";"1";"1";"FINISHED";"RIGHT";"success";"254";"0";"2014-02-13 16:51:29.279";"1";;;;;;;;;;;;;;;;;;;;;
"Yr2Prac_PPG";"1994";;"Windows 7";"Rachels Experiment - DP";"1.0";"2";"1";"1";"2";"1";"1";"2014-02-13 16:40:28.430";"2014-02-13 16:52:13.254";"1";"5";"0";"148";"147";"module.training_block4.exec-9124.GoNoGo4";;;;;;;;;;;;;;;;;;;;;;;;;;;;;;;;;;"1250";"2014-02-13 16:51:33.055";"27";"0";"FINISHED";"LEFT";"success";"306";"0";"2014-02-13 16:51:31.805";"3";;;;;;;;;;;;;;;;;;;;;
"Yr2Prac_PPG";"1994";;"Windows 7";"Rachels Experiment - DP";"1.0";"2";"1";"1";"2";"1";"1";"2014-02-13 16:40:28.430";"2014-02-13 16:52:13.254";"1";"5";"0";"149";"148";"module.training_block4.exec-9124.GoNoGo4";;;;;;;;;;;;;;;;;;;;;;;;;;;;;;;;;;"1250";"2014-02-13 16:51:35.588";"33";"1";"FINISHED";"RIGHT";"success";"254";"0";"2014-02-13 16:51:34.337";"3";;;;;;;;;;;;;;;;;;;;;
"Yr2Prac_PPG";"1994";;"Windows 7";"Rachels Experiment - DP";"1.0";"2";"1";"1";"2";"1";"1";"2014-02-13 16:40:28.430";"2014-02-13 16:52:13.254";"1";"5";"0";"150";"149";"module.training_block4.exec-9124.GoNoGo4";;;;;;;;;;;;;;;;;;;;;;;;;;;;;;;;;;"1249";"2014-02-13 16:51:38.118";"15";"0";"FINISHED";"LEFT";"success";"295";"0";"2014-02-13 16:51:36.868";"2";;;;;;;;;;;;;;;;;;;;;
"Yr2Prac_PPG";"1994";;"Windows 7";"Rachels Experiment - DP";"1.0";"2";"1";"1";"2";"1";"1";"2014-02-13 16:40:28.430";"2014-02-13 16:52:13.254";"1";"5";"0";"151";"150";"module.training_block4.exec-9124.GoNoGo4";;;;;;;;;;;;;;;;;;;;;;;;;;;;;;;;;;"1249";"2014-02-13 16:51:40.649";"31";"1";"FINISHED";"RIGHT";"success";"243";"0";"2014-02-13 16:51:39.399";"3";;;;;;;;;;;;;;;;;;;;;
"Yr2Prac_PPG";"1994";;"Windows 7";"Rachels Experiment - DP";"1.0";"2";"1";"1";"2";"1";"1";"2014-02-13 16:40:28.430";"2014-02-13 16:52:13.254";"1";"5";"0";"152";"151";"module.training_block4.exec-9124.GoNoGo4";;;;;;;;;;;;;;;;;;;;;;;;;;;;;;;;;;"1249";"2014-02-13 16:51:43.180";"8";"1";"FINISHED";"RIGHT";"success";"280";"0";"2014-02-13 16:51:41.930";"1";;;;;;;;;;;;;;;;;;;;;
"Yr2Prac_PPG";"1994";;"Windows 7";"Rachels Experiment - DP";"1.0";"2";"1";"1";"2";"1";"1";"2014-02-13 16:40:28.430";"2014-02-13 16:52:13.254";"1";"5";"0";"153";"152";"module.training_block4.exec-9124.GoNoGo4";;;;;;;;;;;;;;;;;;;;;;;;;;;;;;;;;;"1251";"2014-02-13 16:51:45.711";"20";"1";"FINISHED";"RIGHT";"success";"280";"0";"2014-02-13 16:51:44.460";"3";;;;;;;;;;;;;;;;;;;;;
"Yr2Prac_PPG";"1994";;"Windows 7";"Rachels Experiment - DP";"1.0";"2";"1";"1";"2";"1";"1";"2014-02-13 16:40:28.430";"2014-02-13 16:52:13.254";"1";"5";"0";"154";"153";"module.training_block4.exec-9124.GoNoGo4";;;;;;;;;;;;;;;;;;;;;;;;;;;;;;;;;;"1249";"2014-02-13 16:51:48.244";"4";"1";"FINISHED";"RIGHT";"success";"271";"0";"2014-02-13 16:51:46.994";"1";;;;;;;;;;;;;;;;;;;;;
"Yr2Prac_PPG";"1994";;"Windows 7";"Rachels Experiment - DP";"1.0";"2";"1";"1";"2";"1";"1";"2014-02-13 16:40:28.430";"2014-02-13 16:52:13.254";"1";"5";"0";"155";"154";"module.training_block4.exec-9124.GoNoGo4";;;;;;;;;;;;;;;;;;;;;;;;;;;;;;;;;;"1249";"2014-02-13 16:51:50.776";"16";"1";"FINISHED";"RIGHT";"success";"266";"0";"2014-02-13 16:51:49.526";"2";;;;;;;;;;;;;;;;;;;;;
"Yr2Prac_PPG";"1994";;"Windows 7";"Rachels Experiment - DP";"1.0";"2";"1";"1";"2";"1";"1";"2014-02-13 16:40:28.430";"2014-02-13 16:52:13.254";"1";"5";"0";"156";"155";"module.training_block4.exec-9124.GoNoGo4";;;;;;;;;;;;;;;;;;;;;;;;;;;;;;;;;;"1249";"2014-02-13 16:51:53.308";"29";"0";"FINISHED";"LEFT";"success";"285";"0";"2014-02-13 16:51:52.057";"3";;;;;;;;;;;;;;;;;;;;;
"Yr2Prac_PPG";"1994";;"Windows 7";"Rachels Experiment - DP";"1.0";"2";"1";"1";"2";"1";"1";"2014-02-13 16:40:28.430";"2014-02-13 16:52:13.254";"1";"5";"0";"157";"156";"module.training_block4.exec-9124.GoNoGo4";;;;;;;;;;;;;;;;;;;;;;;;;;;;;;;;;;"1250";"2014-02-13 16:51:55.840";"14";"0";"FINISHED";"LEFT";"success";"279";"0";"2014-02-13 16:51:54.590";"2";;;;;;;;;;;;;;;;;;;;;
"Yr2Prac_PPG";"1994";;"Windows 7";"Rachels Experiment - DP";"1.0";"2";"1";"1";"2";"1";"1";"2014-02-13 16:40:28.430";"2014-02-13 16:52:13.254";"1";"5";"0";"158";"157";"module.training_block4.exec-9124.GoNoGo4";;;;;;;;;;;;;;;;;;;;;;;;;;;;;;;;;;"1250";"2014-02-13 16:51:58.371";"18";"0";"FINISHED";"LEFT";"success";"254";"0";"2014-02-13 16:51:57.120";"3";;;;;;;;;;;;;;;;;;;;;
"Yr2Prac_PPG";"1994";;"Windows 7";"Rachels Experiment - DP";"1.0";"2";"1";"1";"2";"1";"1";"2014-02-13 16:40:28.430";"2014-02-13 16:52:13.254";"1";"5";"0";"159";"158";"module.training_block4.exec-9124.GoNoGo4";;;;;;;;;;;;;;;;;;;;;;;;;;;;;;;;;;"1249";"2014-02-13 16:52:00.900";"3";"1";"FINISHED";"RIGHT";"success";"222";"0";"2014-02-13 16:51:59.650";"1";;;;;;;;;;;;;;;;;;;;;
