"user.name";"user.yearOfBirth";"user.sex";"user.osName";"module.name";"module.version";"module.online.subject.code";"module.online.study.id";"module.online.module.nr";"module.online.group.nr";"session.id";"session.index";"session.startTime";"session.endTime";"session.completed";"session.node-1968.conditionType";"session.node-6054.DevalQorder";"trial.id";"trial.index";"trial.name";"trial.deval1.durationTime";"trial.deval1.endTime";"trial.deval1.icon";"trial.deval1.Resp_Attractive";"trial.deval1.Resp_Eat";"trial.deval1.Resp_Taste";"trial.deval1.RT_Attractive";"trial.deval1.RT_Eat";"trial.deval1.RT_Taste";"trial.deval1.startTime";"trial.deval1.stimulus type";"trial.devalPractice.durationTime";"trial.devalPractice.endTime";"trial.devalPractice.icon";"trial.devalPractice.Resp_Attractive";"trial.devalPractice.Resp_Eat";"trial.devalPractice.Resp_Taste";"trial.devalPractice.RT_Attractive";"trial.devalPractice.RT_Eat";"trial.devalPractice.RT_Taste";"trial.devalPractice.startTime";"trial.devalPractice.stimulus type";"trial.GoNoGo1.durationTime";"trial.GoNoGo1.endTime";"trial.GoNoGo1.Error Type";"trial.GoNoGo1.icon";"trial.GoNoGo1.location";"trial.GoNoGo1.outcome";"trial.GoNoGo1.response";"trial.GoNoGo1.result";"trial.GoNoGo1.RT";"trial.GoNoGo1.signal";"trial.GoNoGo1.startTime";"trial.GoNoGo1.stimulus type";"trial.GoNoGo2.durationTime";"trial.GoNoGo2.endTime";"trial.GoNoGo2.Error Type";"trial.GoNoGo2.icon";"trial.GoNoGo2.location";"trial.GoNoGo2.outcome";"trial.GoNoGo2.response";"trial.GoNoGo2.result";"trial.GoNoGo2.RT";"trial.GoNoGo2.signal";"trial.GoNoGo2.startTime";"trial.GoNoGo2.stimulus type";"trial.GoNoGo3.durationTime";"trial.GoNoGo3.endTime";"trial.GoNoGo3.Error Type";"trial.GoNoGo3.icon";"trial.GoNoGo3.location";"trial.GoNoGo3.outcome";"trial.GoNoGo3.response";"trial.GoNoGo3.result";"trial.GoNoGo3.RT";"trial.GoNoGo3.signal";"trial.GoNoGo3.startTime";"trial.GoNoGo3.stimulus type";"trial.GoNoGo4.durationTime";"trial.GoNoGo4.endTime";"trial.GoNoGo4.Error Type";"trial.GoNoGo4.icon";"trial.GoNoGo4.location";"trial.GoNoGo4.outcome";"trial.GoNoGo4.response";"trial.GoNoGo4.result";"trial.GoNoGo4.RT";"trial.GoNoGo4.signal";"trial.GoNoGo4.startTime";"trial.GoNoGo4.stimulus type";"trial.GoNoGo_Practice.durationTime";"trial.GoNoGo_Practice.endTime";"trial.GoNoGo_Practice.icon";"trial.GoNoGo_Practice.location";"trial.GoNoGo_Practice.outcome";"trial.GoNoGo_Practice.response";"trial.GoNoGo_Practice.result";"trial.GoNoGo_Practice.RT";"trial.GoNoGo_Practice.signal";"trial.GoNoGo_Practice.startTime";"trial.GoNoGo_Practice.stimulus type";"trial.GoNoGo_Tutorial.durationTime";"trial.GoNoGo_Tutorial.endTime";"trial.GoNoGo_Tutorial.icon";"trial.GoNoGo_Tutorial.location";"trial.GoNoGo_Tutorial.outcome";"trial.GoNoGo_Tutorial.response";"trial.GoNoGo_Tutorial.result";"trial.GoNoGo_Tutorial.RT";"trial.GoNoGo_Tutorial.signal";"trial.GoNoGo_Tutorial.startTime"
"kvkay2014";"1994";;"Windows 8";"Rachel's Experiment (D.T.)";"1.0";"2";"1";"1";"2";"1";"1";"2014-10-14 11:36:24.491";"2014-10-14 11:50:32.650";"1";"0";"0";"1";"0";"module.GoNoGotutorial.exec-1500.GoNoGo_Tutorial";;;;;;;;;;;;;;;;;;;;;;;;;;;;;;;;;;;;;;;;;;;;;;;;;;;;;;;;;;;;;;;;;;;;;;;;;;;;;;;;;;"4002";"2014-10-14 11:37:32.667";"leftResponse";"0";"FINISHED";"LEFT";"success";"3871";"0";"2014-10-14 11:37:28.664"
"kvkay2014";"1994";;"Windows 8";"Rachel's Experiment (D.T.)";"1.0";"2";"1";"1";"2";"1";"1";"2014-10-14 11:36:24.491";"2014-10-14 11:50:32.650";"1";"0";"0";"2";"1";"module.GoNoGotutorial.exec-1500.GoNoGo_Tutorial";;;;;;;;;;;;;;;;;;;;;;;;;;;;;;;;;;;;;;;;;;;;;;;;;;;;;;;;;;;;;;;;;;;;;;;;;;;;;;;;;;"4000";"2014-10-14 11:37:37.958";"rightResponse";"1";"FINISHED";"RIGHT";"success";"1358";"0";"2014-10-14 11:37:33.957"
"kvkay2014";"1994";;"Windows 8";"Rachel's Experiment (D.T.)";"1.0";"2";"1";"1";"2";"1";"1";"2014-10-14 11:36:24.491";"2014-10-14 11:50:32.650";"1";"0";"0";"3";"2";"module.GoNoGotutorial.exec-1500.GoNoGo_Tutorial";;;;;;;;;;;;;;;;;;;;;;;;;;;;;;;;;;;;;;;;;;;;;;;;;;;;;;;;;;;;;;;;;;;;;;;;;;;;;;;;;;"4000";"2014-10-14 11:37:43.243";"quickResponse";"0";"FINISHED";"NONE";"failure";"0";"0";"2014-10-14 11:37:39.243"
"kvkay2014";"1994";;"Windows 8";"Rachel's Experiment (D.T.)";"1.0";"2";"1";"1";"2";"1";"1";"2014-10-14 11:36:24.491";"2014-10-14 11:50:32.650";"1";"0";"0";"4";"3";"module.GoNoGopractice.exec-8692.GoNoGo_Practice";;;;;;;;;;;;;;;;;;;;;;;;;;;;;;;;;;;;;;;;;;;;;;;;;;;;;;;;;;;;;;;;;;;;;;;"1958";"2014-10-14 11:37:51.587";"18";"0";"FINISHED";"LEFT";"success";"386";"0";"2014-10-14 11:37:49.629";"3";;;;;;;;;;
"kvkay2014";"1994";;"Windows 8";"Rachel's Experiment (D.T.)";"1.0";"2";"1";"1";"2";"1";"1";"2014-10-14 11:36:24.491";"2014-10-14 11:50:32.650";"1";"0";"0";"5";"4";"module.GoNoGopractice.exec-8692.GoNoGo_Practice";;;;;;;;;;;;;;;;;;;;;;;;;;;;;;;;;;;;;;;;;;;;;;;;;;;;;;;;;;;;;;;;;;;;;;;"1952";"2014-10-14 11:37:54.823";"21";"1";"FINISHED";"RIGHT";"success";"374";"0";"2014-10-14 11:37:52.870";"3";;;;;;;;;;
"kvkay2014";"1994";;"Windows 8";"Rachel's Experiment (D.T.)";"1.0";"2";"1";"1";"2";"1";"1";"2014-10-14 11:36:24.491";"2014-10-14 11:50:32.650";"1";"0";"0";"6";"5";"module.GoNoGopractice.exec-8692.GoNoGo_Practice";;;;;;;;;;;;;;;;;;;;;;;;;;;;;;;;;;;;;;;;;;;;;;;;;;;;;;;;;;;;;;;;;;;;;;;"1952";"2014-10-14 11:37:58.053";"14";"1";"FINISHED";"RIGHT";"success";"476";"0";"2014-10-14 11:37:56.101";"2";;;;;;;;;;
"kvkay2014";"1994";;"Windows 8";"Rachel's Experiment (D.T.)";"1.0";"2";"1";"1";"2";"1";"1";"2014-10-14 11:36:24.491";"2014-10-14 11:50:32.650";"1";"0";"0";"7";"6";"module.GoNoGopractice.exec-8692.GoNoGo_Practice";;;;;;;;;;;;;;;;;;;;;;;;;;;;;;;;;;;;;;;;;;;;;;;;;;;;;;;;;;;;;;;;;;;;;;;"1951";"2014-10-14 11:38:01.287";"26";"0";"FINISHED";"LEFT";"success";"396";"0";"2014-10-14 11:37:59.335";"3";;;;;;;;;;
"kvkay2014";"1994";;"Windows 8";"Rachel's Experiment (D.T.)";"1.0";"2";"1";"1";"2";"1";"1";"2014-10-14 11:36:24.491";"2014-10-14 11:50:32.650";"1";"0";"0";"8";"7";"module.GoNoGopractice.exec-8692.GoNoGo_Practice";;;;;;;;;;;;;;;;;;;;;;;;;;;;;;;;;;;;;;;;;;;;;;;;;;;;;;;;;;;;;;;;;;;;;;;"1951";"2014-10-14 11:38:04.520";"2";"0";"FINISHED";"LEFT";"success";"436";"0";"2014-10-14 11:38:02.567";"1";;;;;;;;;;
"kvkay2014";"1994";;"Windows 8";"Rachel's Experiment (D.T.)";"1.0";"2";"1";"1";"2";"1";"1";"2014-10-14 11:36:24.491";"2014-10-14 11:50:32.650";"1";"0";"0";"9";"8";"module.GoNoGopractice.exec-8692.GoNoGo_Practice";;;;;;;;;;;;;;;;;;;;;;;;;;;;;;;;;;;;;;;;;;;;;;;;;;;;;;;;;;;;;;;;;;;;;;;"1951";"2014-10-14 11:38:07.753";"30";"0";"FINISHED";"LEFT";"success";"434";"0";"2014-10-14 11:38:05.800";"3";;;;;;;;;;
"kvkay2014";"1994";;"Windows 8";"Rachel's Experiment (D.T.)";"1.0";"2";"1";"1";"2";"1";"1";"2014-10-14 11:36:24.491";"2014-10-14 11:50:32.650";"1";"0";"0";"10";"9";"module.GoNoGopractice.exec-8692.GoNoGo_Practice";;;;;;;;;;;;;;;;;;;;;;;;;;;;;;;;;;;;;;;;;;;;;;;;;;;;;;;;;;;;;;;;;;;;;;;"1952";"2014-10-14 11:38:10.983";"6";"1";"FINISHED";"RIGHT";"success";"334";"0";"2014-10-14 11:38:09.031";"1";;;;;;;;;;
"kvkay2014";"1994";;"Windows 8";"Rachel's Experiment (D.T.)";"1.0";"2";"1";"1";"2";"1";"1";"2014-10-14 11:36:24.491";"2014-10-14 11:50:32.650";"1";"0";"0";"11";"10";"module.GoNoGopractice.exec-8692.GoNoGo_Practice";;;;;;;;;;;;;;;;;;;;;;;;;;;;;;;;;;;;;;;;;;;;;;;;;;;;;;;;;;;;;;;;;;;;;;;"1951";"2014-10-14 11:38:14.217";"34";"0";"FINISHED";"LEFT";"success";"327";"0";"2014-10-14 11:38:12.265";"3";;;;;;;;;;
"kvkay2014";"1994";;"Windows 8";"Rachel's Experiment (D.T.)";"1.0";"2";"1";"1";"2";"1";"1";"2014-10-14 11:36:24.491";"2014-10-14 11:50:32.650";"1";"0";"0";"12";"11";"module.GoNoGopractice.exec-8692.GoNoGo_Practice";;;;;;;;;;;;;;;;;;;;;;;;;;;;;;;;;;;;;;;;;;;;;;;;;;;;;;;;;;;;;;;;;;;;;;;"1952";"2014-10-14 11:38:17.448";"23";"1";"FINISHED";"RIGHT";"success";"324";"0";"2014-10-14 11:38:15.495";"3";;;;;;;;;;
"kvkay2014";"1994";;"Windows 8";"Rachel's Experiment (D.T.)";"1.0";"2";"1";"1";"2";"1";"1";"2014-10-14 11:36:24.491";"2014-10-14 11:50:32.650";"1";"0";"0";"13";"12";"module.GoNoGopractice.exec-8692.GoNoGo_Practice";;;;;;;;;;;;;;;;;;;;;;;;;;;;;;;;;;;;;;;;;;;;;;;;;;;;;;;;;;;;;;;;;;;;;;;"1955";"2014-10-14 11:38:20.777";"13";"0";"FINISHED";"LEFT";"success";"374";"0";"2014-10-14 11:38:18.822";"2";;;;;;;;;;
"kvkay2014";"1994";;"Windows 8";"Rachel's Experiment (D.T.)";"1.0";"2";"1";"1";"2";"1";"1";"2014-10-14 11:36:24.491";"2014-10-14 11:50:32.650";"1";"0";"0";"14";"13";"module.GoNoGopractice.exec-8692.GoNoGo_Practice";;;;;;;;;;;;;;;;;;;;;;;;;;;;;;;;;;;;;;;;;;;;;;;;;;;;;;;;;;;;;;;;;;;;;;;"1953";"2014-10-14 11:38:24.008";"3";"1";"FINISHED";"RIGHT";"success";"392";"0";"2014-10-14 11:38:22.055";"1";;;;;;;;;;
"kvkay2014";"1994";;"Windows 8";"Rachel's Experiment (D.T.)";"1.0";"2";"1";"1";"2";"1";"1";"2014-10-14 11:36:24.491";"2014-10-14 11:50:32.650";"1";"0";"0";"15";"14";"module.GoNoGopractice.exec-8692.GoNoGo_Practice";;;;;;;;;;;;;;;;;;;;;;;;;;;;;;;;;;;;;;;;;;;;;;;;;;;;;;;;;;;;;;;;;;;;;;;"1951";"2014-10-14 11:38:27.240";"27";"1";"FINISHED";"RIGHT";"success";"361";"0";"2014-10-14 11:38:25.287";"3";;;;;;;;;;
"kvkay2014";"1994";;"Windows 8";"Rachel's Experiment (D.T.)";"1.0";"2";"1";"1";"2";"1";"1";"2014-10-14 11:36:24.491";"2014-10-14 11:50:32.650";"1";"0";"0";"16";"15";"module.training_block1.exec-4040.GoNoGo1";;;;;;;;;;;;;;;;;;;;;;;"1251";"2014-10-14 11:38:39.212";"NST_correctLoc";"25";"1";"FINISHED";"RIGHT";"success";"417";"0";"2014-10-14 11:38:37.960";"3";;;;;;;;;;;;;;;;;;;;;;;;;;;;;;;;;;;;;;;;;;;;;;;;;;;;;;;;;
"kvkay2014";"1994";;"Windows 8";"Rachel's Experiment (D.T.)";"1.0";"2";"1";"1";"2";"1";"1";"2014-10-14 11:36:24.491";"2014-10-14 11:50:32.650";"1";"0";"0";"17";"16";"module.training_block1.exec-4040.GoNoGo1";;;;;;;;;;;;;;;;;;;;;;;"1250";"2014-10-14 11:38:41.741";"NST_correctLoc";"35";"0";"FINISHED";"LEFT";"success";"353";"0";"2014-10-14 11:38:40.490";"3";;;;;;;;;;;;;;;;;;;;;;;;;;;;;;;;;;;;;;;;;;;;;;;;;;;;;;;;;
"kvkay2014";"1994";;"Windows 8";"Rachel's Experiment (D.T.)";"1.0";"2";"1";"1";"2";"1";"1";"2014-10-14 11:36:24.491";"2014-10-14 11:50:32.650";"1";"0";"0";"18";"17";"module.training_block1.exec-4040.GoNoGo1";;;;;;;;;;;;;;;;;;;;;;;"1250";"2014-10-14 11:38:44.270";"NST_correctLoc";"26";"0";"FINISHED";"LEFT";"success";"379";"0";"2014-10-14 11:38:43.019";"3";;;;;;;;;;;;;;;;;;;;;;;;;;;;;;;;;;;;;;;;;;;;;;;;;;;;;;;;;
"kvkay2014";"1994";;"Windows 8";"Rachel's Experiment (D.T.)";"1.0";"2";"1";"1";"2";"1";"1";"2014-10-14 11:36:24.491";"2014-10-14 11:50:32.650";"1";"0";"0";"19";"18";"module.training_block1.exec-4040.GoNoGo1";;;;;;;;;;;;;;;;;;;;;;;"1250";"2014-10-14 11:38:46.799";"NST_correctLoc";"30";"1";"FINISHED";"RIGHT";"success";"354";"0";"2014-10-14 11:38:45.548";"3";;;;;;;;;;;;;;;;;;;;;;;;;;;;;;;;;;;;;;;;;;;;;;;;;;;;;;;;;
"kvkay2014";"1994";;"Windows 8";"Rachel's Experiment (D.T.)";"1.0";"2";"1";"1";"2";"1";"1";"2014-10-14 11:36:24.491";"2014-10-14 11:50:32.650";"1";"0";"0";"20";"19";"module.training_block1.exec-4040.GoNoGo1";;;;;;;;;;;;;;;;;;;;;;;"1250";"2014-10-14 11:38:49.326";"NST_correctLoc";"22";"0";"FINISHED";"LEFT";"success";"347";"0";"2014-10-14 11:38:48.075";"3";;;;;;;;;;;;;;;;;;;;;;;;;;;;;;;;;;;;;;;;;;;;;;;;;;;;;;;;;
"kvkay2014";"1994";;"Windows 8";"Rachel's Experiment (D.T.)";"1.0";"2";"1";"1";"2";"1";"1";"2014-10-14 11:36:24.491";"2014-10-14 11:50:32.650";"1";"0";"0";"21";"20";"module.training_block1.exec-4040.GoNoGo1";;;;;;;;;;;;;;;;;;;;;;;"1250";"2014-10-14 11:38:51.853";"NST_correctLoc";"21";"0";"FINISHED";"LEFT";"success";"376";"0";"2014-10-14 11:38:50.602";"3";;;;;;;;;;;;;;;;;;;;;;;;;;;;;;;;;;;;;;;;;;;;;;;;;;;;;;;;;
"kvkay2014";"1994";;"Windows 8";"Rachel's Experiment (D.T.)";"1.0";"2";"1";"1";"2";"1";"1";"2014-10-14 11:36:24.491";"2014-10-14 11:50:32.650";"1";"0";"0";"22";"21";"module.training_block1.exec-4040.GoNoGo1";;;;;;;;;;;;;;;;;;;;;;;"1250";"2014-10-14 11:38:54.381";"NST_correctLoc";"12";"1";"FINISHED";"RIGHT";"success";"349";"0";"2014-10-14 11:38:53.130";"2";;;;;;;;;;;;;;;;;;;;;;;;;;;;;;;;;;;;;;;;;;;;;;;;;;;;;;;;;
"kvkay2014";"1994";;"Windows 8";"Rachel's Experiment (D.T.)";"1.0";"2";"1";"1";"2";"1";"1";"2014-10-14 11:36:24.491";"2014-10-14 11:50:32.650";"1";"0";"0";"23";"22";"module.training_block1.exec-4040.GoNoGo1";;;;;;;;;;;;;;;;;;;;;;;"1250";"2014-10-14 11:38:56.911";"NST_correctLoc";"24";"1";"FINISHED";"RIGHT";"success";"364";"0";"2014-10-14 11:38:55.660";"3";;;;;;;;;;;;;;;;;;;;;;;;;;;;;;;;;;;;;;;;;;;;;;;;;;;;;;;;;
"kvkay2014";"1994";;"Windows 8";"Rachel's Experiment (D.T.)";"1.0";"2";"1";"1";"2";"1";"1";"2014-10-14 11:36:24.491";"2014-10-14 11:50:32.650";"1";"0";"0";"24";"23";"module.training_block1.exec-4040.GoNoGo1";;;;;;;;;;;;;;;;;;;;;;;"1250";"2014-10-14 11:38:59.444";"NST_correctLoc";"11";"0";"FINISHED";"LEFT";"success";"302";"0";"2014-10-14 11:38:58.193";"2";;;;;;;;;;;;;;;;;;;;;;;;;;;;;;;;;;;;;;;;;;;;;;;;;;;;;;;;;
"kvkay2014";"1994";;"Windows 8";"Rachel's Experiment (D.T.)";"1.0";"2";"1";"1";"2";"1";"1";"2014-10-14 11:36:24.491";"2014-10-14 11:50:32.650";"1";"0";"0";"25";"24";"module.training_block1.exec-4040.GoNoGo1";;;;;;;;;;;;;;;;;;;;;;;"1250";"2014-10-14 11:39:01.969";"NST_correctLoc";"14";"1";"FINISHED";"RIGHT";"success";"372";"0";"2014-10-14 11:39:00.718";"2";;;;;;;;;;;;;;;;;;;;;;;;;;;;;;;;;;;;;;;;;;;;;;;;;;;;;;;;;
"kvkay2014";"1994";;"Windows 8";"Rachel's Experiment (D.T.)";"1.0";"2";"1";"1";"2";"1";"1";"2014-10-14 11:36:24.491";"2014-10-14 11:50:32.650";"1";"0";"0";"26";"25";"module.training_block1.exec-4040.GoNoGo1";;;;;;;;;;;;;;;;;;;;;;;"1250";"2014-10-14 11:39:04.496";"NST_correctLoc";"19";"0";"FINISHED";"LEFT";"success";"349";"0";"2014-10-14 11:39:03.245";"3";;;;;;;;;;;;;;;;;;;;;;;;;;;;;;;;;;;;;;;;;;;;;;;;;;;;;;;;;
"kvkay2014";"1994";;"Windows 8";"Rachel's Experiment (D.T.)";"1.0";"2";"1";"1";"2";"1";"1";"2014-10-14 11:36:24.491";"2014-10-14 11:50:32.650";"1";"0";"0";"27";"26";"module.training_block1.exec-4040.GoNoGo1";;;;;;;;;;;;;;;;;;;;;;;"1250";"2014-10-14 11:39:07.021";"NST_correctLoc";"29";"0";"FINISHED";"LEFT";"success";"306";"0";"2014-10-14 11:39:05.770";"3";;;;;;;;;;;;;;;;;;;;;;;;;;;;;;;;;;;;;;;;;;;;;;;;;;;;;;;;;
"kvkay2014";"1994";;"Windows 8";"Rachel's Experiment (D.T.)";"1.0";"2";"1";"1";"2";"1";"1";"2014-10-14 11:36:24.491";"2014-10-14 11:50:32.650";"1";"0";"0";"28";"27";"module.training_block1.exec-4040.GoNoGo1";;;;;;;;;;;;;;;;;;;;;;;"1250";"2014-10-14 11:39:09.554";"NST_correctLoc";"33";"1";"FINISHED";"RIGHT";"success";"385";"0";"2014-10-14 11:39:08.303";"3";;;;;;;;;;;;;;;;;;;;;;;;;;;;;;;;;;;;;;;;;;;;;;;;;;;;;;;;;
"kvkay2014";"1994";;"Windows 8";"Rachel's Experiment (D.T.)";"1.0";"2";"1";"1";"2";"1";"1";"2014-10-14 11:36:24.491";"2014-10-14 11:50:32.650";"1";"0";"0";"29";"28";"module.training_block1.exec-4040.GoNoGo1";;;;;;;;;;;;;;;;;;;;;;;"1250";"2014-10-14 11:39:12.080";"NST_correctLoc";"28";"0";"FINISHED";"LEFT";"success";"325";"0";"2014-10-14 11:39:10.830";"3";;;;;;;;;;;;;;;;;;;;;;;;;;;;;;;;;;;;;;;;;;;;;;;;;;;;;;;;;
"kvkay2014";"1994";;"Windows 8";"Rachel's Experiment (D.T.)";"1.0";"2";"1";"1";"2";"1";"1";"2014-10-14 11:36:24.491";"2014-10-14 11:50:32.650";"1";"0";"0";"30";"29";"module.training_block1.exec-4040.GoNoGo1";;;;;;;;;;;;;;;;;;;;;;;"1250";"2014-10-14 11:39:14.611";"NST_correctLoc";"5";"0";"FINISHED";"LEFT";"success";"316";"0";"2014-10-14 11:39:13.360";"1";;;;;;;;;;;;;;;;;;;;;;;;;;;;;;;;;;;;;;;;;;;;;;;;;;;;;;;;;
"kvkay2014";"1994";;"Windows 8";"Rachel's Experiment (D.T.)";"1.0";"2";"1";"1";"2";"1";"1";"2014-10-14 11:36:24.491";"2014-10-14 11:50:32.650";"1";"0";"0";"31";"30";"module.training_block1.exec-4040.GoNoGo1";;;;;;;;;;;;;;;;;;;;;;;"1250";"2014-10-14 11:39:17.133";"NST_correctLoc";"3";"1";"FINISHED";"RIGHT";"success";"343";"0";"2014-10-14 11:39:15.882";"1";;;;;;;;;;;;;;;;;;;;;;;;;;;;;;;;;;;;;;;;;;;;;;;;;;;;;;;;;
"kvkay2014";"1994";;"Windows 8";"Rachel's Experiment (D.T.)";"1.0";"2";"1";"1";"2";"1";"1";"2014-10-14 11:36:24.491";"2014-10-14 11:50:32.650";"1";"0";"0";"32";"31";"module.training_block1.exec-4040.GoNoGo1";;;;;;;;;;;;;;;;;;;;;;;"1250";"2014-10-14 11:39:19.660";"NST_correctLoc";"23";"1";"FINISHED";"RIGHT";"success";"369";"0";"2014-10-14 11:39:18.409";"3";;;;;;;;;;;;;;;;;;;;;;;;;;;;;;;;;;;;;;;;;;;;;;;;;;;;;;;;;
"kvkay2014";"1994";;"Windows 8";"Rachel's Experiment (D.T.)";"1.0";"2";"1";"1";"2";"1";"1";"2014-10-14 11:36:24.491";"2014-10-14 11:50:32.650";"1";"0";"0";"33";"32";"module.training_block1.exec-4040.GoNoGo1";;;;;;;;;;;;;;;;;;;;;;;"1250";"2014-10-14 11:39:22.188";"NST_correctLoc";"2";"1";"FINISHED";"RIGHT";"success";"374";"0";"2014-10-14 11:39:20.937";"1";;;;;;;;;;;;;;;;;;;;;;;;;;;;;;;;;;;;;;;;;;;;;;;;;;;;;;;;;
"kvkay2014";"1994";;"Windows 8";"Rachel's Experiment (D.T.)";"1.0";"2";"1";"1";"2";"1";"1";"2014-10-14 11:36:24.491";"2014-10-14 11:50:32.650";"1";"0";"0";"34";"33";"module.training_block1.exec-4040.GoNoGo1";;;;;;;;;;;;;;;;;;;;;;;"1250";"2014-10-14 11:39:24.767";"NST_correctLoc";"20";"0";"FINISHED";"LEFT";"success";"351";"0";"2014-10-14 11:39:23.517";"3";;;;;;;;;;;;;;;;;;;;;;;;;;;;;;;;;;;;;;;;;;;;;;;;;;;;;;;;;
"kvkay2014";"1994";;"Windows 8";"Rachel's Experiment (D.T.)";"1.0";"2";"1";"1";"2";"1";"1";"2014-10-14 11:36:24.491";"2014-10-14 11:50:32.650";"1";"0";"0";"35";"34";"module.training_block1.exec-4040.GoNoGo1";;;;;;;;;;;;;;;;;;;;;;;"1250";"2014-10-14 11:39:27.295";"NST_correctLoc";"34";"1";"FINISHED";"RIGHT";"success";"312";"0";"2014-10-14 11:39:26.044";"3";;;;;;;;;;;;;;;;;;;;;;;;;;;;;;;;;;;;;;;;;;;;;;;;;;;;;;;;;
"kvkay2014";"1994";;"Windows 8";"Rachel's Experiment (D.T.)";"1.0";"2";"1";"1";"2";"1";"1";"2014-10-14 11:36:24.491";"2014-10-14 11:50:32.650";"1";"0";"0";"36";"35";"module.training_block1.exec-4040.GoNoGo1";;;;;;;;;;;;;;;;;;;;;;;"1250";"2014-10-14 11:39:29.822";"NST_correctLoc";"1";"0";"FINISHED";"LEFT";"success";"330";"0";"2014-10-14 11:39:28.571";"1";;;;;;;;;;;;;;;;;;;;;;;;;;;;;;;;;;;;;;;;;;;;;;;;;;;;;;;;;
"kvkay2014";"1994";;"Windows 8";"Rachel's Experiment (D.T.)";"1.0";"2";"1";"1";"2";"1";"1";"2014-10-14 11:36:24.491";"2014-10-14 11:50:32.650";"1";"0";"0";"37";"36";"module.training_block1.exec-4040.GoNoGo1";;;;;;;;;;;;;;;;;;;;;;;"1250";"2014-10-14 11:39:32.348";"NST_correctLoc";"8";"0";"FINISHED";"LEFT";"success";"369";"0";"2014-10-14 11:39:31.097";"1";;;;;;;;;;;;;;;;;;;;;;;;;;;;;;;;;;;;;;;;;;;;;;;;;;;;;;;;;
"kvkay2014";"1994";;"Windows 8";"Rachel's Experiment (D.T.)";"1.0";"2";"1";"1";"2";"1";"1";"2014-10-14 11:36:24.491";"2014-10-14 11:50:32.650";"1";"0";"0";"38";"37";"module.training_block1.exec-4040.GoNoGo1";;;;;;;;;;;;;;;;;;;;;;;"1250";"2014-10-14 11:39:34.872";"NST_correctLoc";"27";"0";"FINISHED";"LEFT";"success";"337";"0";"2014-10-14 11:39:33.621";"3";;;;;;;;;;;;;;;;;;;;;;;;;;;;;;;;;;;;;;;;;;;;;;;;;;;;;;;;;
"kvkay2014";"1994";;"Windows 8";"Rachel's Experiment (D.T.)";"1.0";"2";"1";"1";"2";"1";"1";"2014-10-14 11:36:24.491";"2014-10-14 11:50:32.650";"1";"0";"0";"39";"38";"module.training_block1.exec-4040.GoNoGo1";;;;;;;;;;;;;;;;;;;;;;;"1250";"2014-10-14 11:39:37.394";"NST_correctLoc";"7";"1";"FINISHED";"RIGHT";"success";"438";"0";"2014-10-14 11:39:36.144";"1";;;;;;;;;;;;;;;;;;;;;;;;;;;;;;;;;;;;;;;;;;;;;;;;;;;;;;;;;
"kvkay2014";"1994";;"Windows 8";"Rachel's Experiment (D.T.)";"1.0";"2";"1";"1";"2";"1";"1";"2014-10-14 11:36:24.491";"2014-10-14 11:50:32.650";"1";"0";"0";"40";"39";"module.training_block1.exec-4040.GoNoGo1";;;;;;;;;;;;;;;;;;;;;;;"1250";"2014-10-14 11:39:39.922";"NST_correctLoc";"15";"0";"FINISHED";"LEFT";"success";"266";"0";"2014-10-14 11:39:38.671";"2";;;;;;;;;;;;;;;;;;;;;;;;;;;;;;;;;;;;;;;;;;;;;;;;;;;;;;;;;
"kvkay2014";"1994";;"Windows 8";"Rachel's Experiment (D.T.)";"1.0";"2";"1";"1";"2";"1";"1";"2014-10-14 11:36:24.491";"2014-10-14 11:50:32.650";"1";"0";"0";"41";"40";"module.training_block1.exec-4040.GoNoGo1";;;;;;;;;;;;;;;;;;;;;;;"1250";"2014-10-14 11:39:42.451";"NST_correctLoc";"16";"1";"FINISHED";"RIGHT";"success";"343";"0";"2014-10-14 11:39:41.200";"2";;;;;;;;;;;;;;;;;;;;;;;;;;;;;;;;;;;;;;;;;;;;;;;;;;;;;;;;;
"kvkay2014";"1994";;"Windows 8";"Rachel's Experiment (D.T.)";"1.0";"2";"1";"1";"2";"1";"1";"2014-10-14 11:36:24.491";"2014-10-14 11:50:32.650";"1";"0";"0";"42";"41";"module.training_block1.exec-4040.GoNoGo1";;;;;;;;;;;;;;;;;;;;;;;"1250";"2014-10-14 11:39:44.974";"NST_correctLoc";"31";"0";"FINISHED";"LEFT";"success";"247";"0";"2014-10-14 11:39:43.723";"3";;;;;;;;;;;;;;;;;;;;;;;;;;;;;;;;;;;;;;;;;;;;;;;;;;;;;;;;;
"kvkay2014";"1994";;"Windows 8";"Rachel's Experiment (D.T.)";"1.0";"2";"1";"1";"2";"1";"1";"2014-10-14 11:36:24.491";"2014-10-14 11:50:32.650";"1";"0";"0";"43";"42";"module.training_block1.exec-4040.GoNoGo1";;;;;;;;;;;;;;;;;;;;;;;"1250";"2014-10-14 11:39:47.498";"NST_correctLoc";"10";"0";"FINISHED";"LEFT";"success";"333";"0";"2014-10-14 11:39:46.247";"2";;;;;;;;;;;;;;;;;;;;;;;;;;;;;;;;;;;;;;;;;;;;;;;;;;;;;;;;;
"kvkay2014";"1994";;"Windows 8";"Rachel's Experiment (D.T.)";"1.0";"2";"1";"1";"2";"1";"1";"2014-10-14 11:36:24.491";"2014-10-14 11:50:32.650";"1";"0";"0";"44";"43";"module.training_block1.exec-4040.GoNoGo1";;;;;;;;;;;;;;;;;;;;;;;"1250";"2014-10-14 11:39:50.021";"NST_correctLoc";"6";"1";"FINISHED";"RIGHT";"success";"329";"0";"2014-10-14 11:39:48.771";"1";;;;;;;;;;;;;;;;;;;;;;;;;;;;;;;;;;;;;;;;;;;;;;;;;;;;;;;;;
"kvkay2014";"1994";;"Windows 8";"Rachel's Experiment (D.T.)";"1.0";"2";"1";"1";"2";"1";"1";"2014-10-14 11:36:24.491";"2014-10-14 11:50:32.650";"1";"0";"0";"45";"44";"module.training_block1.exec-4040.GoNoGo1";;;;;;;;;;;;;;;;;;;;;;;"1250";"2014-10-14 11:39:52.542";"NST_correctLoc";"13";"1";"FINISHED";"RIGHT";"success";"316";"0";"2014-10-14 11:39:51.291";"2";;;;;;;;;;;;;;;;;;;;;;;;;;;;;;;;;;;;;;;;;;;;;;;;;;;;;;;;;
"kvkay2014";"1994";;"Windows 8";"Rachel's Experiment (D.T.)";"1.0";"2";"1";"1";"2";"1";"1";"2014-10-14 11:36:24.491";"2014-10-14 11:50:32.650";"1";"0";"0";"46";"45";"module.training_block1.exec-4040.GoNoGo1";;;;;;;;;;;;;;;;;;;;;;;"1250";"2014-10-14 11:39:55.066";"NST_correctLoc";"9";"1";"FINISHED";"RIGHT";"success";"363";"0";"2014-10-14 11:39:53.815";"2";;;;;;;;;;;;;;;;;;;;;;;;;;;;;;;;;;;;;;;;;;;;;;;;;;;;;;;;;
"kvkay2014";"1994";;"Windows 8";"Rachel's Experiment (D.T.)";"1.0";"2";"1";"1";"2";"1";"1";"2014-10-14 11:36:24.491";"2014-10-14 11:50:32.650";"1";"0";"0";"47";"46";"module.training_block1.exec-4040.GoNoGo1";;;;;;;;;;;;;;;;;;;;;;;"1250";"2014-10-14 11:39:57.590";"NST_correctLoc";"32";"0";"FINISHED";"LEFT";"success";"367";"0";"2014-10-14 11:39:56.339";"3";;;;;;;;;;;;;;;;;;;;;;;;;;;;;;;;;;;;;;;;;;;;;;;;;;;;;;;;;
"kvkay2014";"1994";;"Windows 8";"Rachel's Experiment (D.T.)";"1.0";"2";"1";"1";"2";"1";"1";"2014-10-14 11:36:24.491";"2014-10-14 11:50:32.650";"1";"0";"0";"48";"47";"module.training_block1.exec-4040.GoNoGo1";;;;;;;;;;;;;;;;;;;;;;;"1250";"2014-10-14 11:40:00.116";"NST_correctLoc";"4";"1";"FINISHED";"RIGHT";"success";"351";"0";"2014-10-14 11:39:58.865";"1";;;;;;;;;;;;;;;;;;;;;;;;;;;;;;;;;;;;;;;;;;;;;;;;;;;;;;;;;
"kvkay2014";"1994";;"Windows 8";"Rachel's Experiment (D.T.)";"1.0";"2";"1";"1";"2";"1";"1";"2014-10-14 11:36:24.491";"2014-10-14 11:50:32.650";"1";"0";"0";"49";"48";"module.training_block1.exec-4040.GoNoGo1";;;;;;;;;;;;;;;;;;;;;;;"1250";"2014-10-14 11:40:02.642";"NST_correctLoc";"0";"0";"FINISHED";"LEFT";"success";"340";"0";"2014-10-14 11:40:01.391";"1";;;;;;;;;;;;;;;;;;;;;;;;;;;;;;;;;;;;;;;;;;;;;;;;;;;;;;;;;
"kvkay2014";"1994";;"Windows 8";"Rachel's Experiment (D.T.)";"1.0";"2";"1";"1";"2";"1";"1";"2014-10-14 11:36:24.491";"2014-10-14 11:50:32.650";"1";"0";"0";"50";"49";"module.training_block1.exec-4040.GoNoGo1";;;;;;;;;;;;;;;;;;;;;;;"1250";"2014-10-14 11:40:05.165";"NST_correctLoc";"18";"1";"FINISHED";"RIGHT";"success";"325";"0";"2014-10-14 11:40:03.914";"3";;;;;;;;;;;;;;;;;;;;;;;;;;;;;;;;;;;;;;;;;;;;;;;;;;;;;;;;;
"kvkay2014";"1994";;"Windows 8";"Rachel's Experiment (D.T.)";"1.0";"2";"1";"1";"2";"1";"1";"2014-10-14 11:36:24.491";"2014-10-14 11:50:32.650";"1";"0";"0";"51";"50";"module.training_block1.exec-4040.GoNoGo1";;;;;;;;;;;;;;;;;;;;;;;"1250";"2014-10-14 11:40:07.694";"NST_correctLoc";"17";"0";"FINISHED";"LEFT";"success";"308";"0";"2014-10-14 11:40:06.443";"2";;;;;;;;;;;;;;;;;;;;;;;;;;;;;;;;;;;;;;;;;;;;;;;;;;;;;;;;;
"kvkay2014";"1994";;"Windows 8";"Rachel's Experiment (D.T.)";"1.0";"2";"1";"1";"2";"1";"1";"2014-10-14 11:36:24.491";"2014-10-14 11:50:32.650";"1";"0";"0";"52";"51";"module.training_block2.exec-7223.GoNoGo2";;;;;;;;;;;;;;;;;;;;;;;;;;;;;;;;;;;"1250";"2014-10-14 11:40:23.401";"NST_correctLoc";"15";"1";"FINISHED";"RIGHT";"success";"492";"0";"2014-10-14 11:40:22.150";"2";;;;;;;;;;;;;;;;;;;;;;;;;;;;;;;;;;;;;;;;;;;;;
"kvkay2014";"1994";;"Windows 8";"Rachel's Experiment (D.T.)";"1.0";"2";"1";"1";"2";"1";"1";"2014-10-14 11:36:24.491";"2014-10-14 11:50:32.650";"1";"0";"0";"53";"52";"module.training_block2.exec-7223.GoNoGo2";;;;;;;;;;;;;;;;;;;;;;;;;;;;;;;;;;;"1250";"2014-10-14 11:40:25.926";"NST_correctLoc";"19";"0";"FINISHED";"LEFT";"success";"353";"0";"2014-10-14 11:40:24.675";"3";;;;;;;;;;;;;;;;;;;;;;;;;;;;;;;;;;;;;;;;;;;;;
"kvkay2014";"1994";;"Windows 8";"Rachel's Experiment (D.T.)";"1.0";"2";"1";"1";"2";"1";"1";"2014-10-14 11:36:24.491";"2014-10-14 11:50:32.650";"1";"0";"0";"54";"53";"module.training_block2.exec-7223.GoNoGo2";;;;;;;;;;;;;;;;;;;;;;;;;;;;;;;;;;;"1250";"2014-10-14 11:40:28.445";"NST_correctLoc";"29";"0";"FINISHED";"LEFT";"success";"406";"0";"2014-10-14 11:40:27.194";"3";;;;;;;;;;;;;;;;;;;;;;;;;;;;;;;;;;;;;;;;;;;;;
"kvkay2014";"1994";;"Windows 8";"Rachel's Experiment (D.T.)";"1.0";"2";"1";"1";"2";"1";"1";"2014-10-14 11:36:24.491";"2014-10-14 11:50:32.650";"1";"0";"0";"55";"54";"module.training_block2.exec-7223.GoNoGo2";;;;;;;;;;;;;;;;;;;;;;;;;;;;;;;;;;;"1250";"2014-10-14 11:40:30.965";"NST_correctLoc";"28";"0";"FINISHED";"LEFT";"success";"343";"0";"2014-10-14 11:40:29.715";"3";;;;;;;;;;;;;;;;;;;;;;;;;;;;;;;;;;;;;;;;;;;;;
"kvkay2014";"1994";;"Windows 8";"Rachel's Experiment (D.T.)";"1.0";"2";"1";"1";"2";"1";"1";"2014-10-14 11:36:24.491";"2014-10-14 11:50:32.650";"1";"0";"0";"56";"55";"module.training_block2.exec-7223.GoNoGo2";;;;;;;;;;;;;;;;;;;;;;;;;;;;;;;;;;;"1250";"2014-10-14 11:40:33.483";"NST_correctLoc";"7";"0";"FINISHED";"LEFT";"success";"335";"0";"2014-10-14 11:40:32.232";"1";;;;;;;;;;;;;;;;;;;;;;;;;;;;;;;;;;;;;;;;;;;;;
"kvkay2014";"1994";;"Windows 8";"Rachel's Experiment (D.T.)";"1.0";"2";"1";"1";"2";"1";"1";"2014-10-14 11:36:24.491";"2014-10-14 11:50:32.650";"1";"0";"0";"57";"56";"module.training_block2.exec-7223.GoNoGo2";;;;;;;;;;;;;;;;;;;;;;;;;;;;;;;;;;;"1250";"2014-10-14 11:40:36.002";"NST_correctLoc";"17";"1";"FINISHED";"RIGHT";"success";"388";"0";"2014-10-14 11:40:34.751";"2";;;;;;;;;;;;;;;;;;;;;;;;;;;;;;;;;;;;;;;;;;;;;
"kvkay2014";"1994";;"Windows 8";"Rachel's Experiment (D.T.)";"1.0";"2";"1";"1";"2";"1";"1";"2014-10-14 11:36:24.491";"2014-10-14 11:50:32.650";"1";"0";"0";"58";"57";"module.training_block2.exec-7223.GoNoGo2";;;;;;;;;;;;;;;;;;;;;;;;;;;;;;;;;;;"1250";"2014-10-14 11:40:38.525";"NST_correctLoc";"2";"1";"FINISHED";"RIGHT";"success";"359";"0";"2014-10-14 11:40:37.274";"1";;;;;;;;;;;;;;;;;;;;;;;;;;;;;;;;;;;;;;;;;;;;;
"kvkay2014";"1994";;"Windows 8";"Rachel's Experiment (D.T.)";"1.0";"2";"1";"1";"2";"1";"1";"2014-10-14 11:36:24.491";"2014-10-14 11:50:32.650";"1";"0";"0";"59";"58";"module.training_block2.exec-7223.GoNoGo2";;;;;;;;;;;;;;;;;;;;;;;;;;;;;;;;;;;"1250";"2014-10-14 11:40:41.044";"NST_correctLoc";"26";"1";"FINISHED";"RIGHT";"success";"342";"0";"2014-10-14 11:40:39.793";"3";;;;;;;;;;;;;;;;;;;;;;;;;;;;;;;;;;;;;;;;;;;;;
"kvkay2014";"1994";;"Windows 8";"Rachel's Experiment (D.T.)";"1.0";"2";"1";"1";"2";"1";"1";"2014-10-14 11:36:24.491";"2014-10-14 11:50:32.650";"1";"0";"0";"60";"59";"module.training_block2.exec-7223.GoNoGo2";;;;;;;;;;;;;;;;;;;;;;;;;;;;;;;;;;;"1250";"2014-10-14 11:40:43.562";"NST_correctLoc";"4";"1";"FINISHED";"RIGHT";"success";"354";"0";"2014-10-14 11:40:42.311";"1";;;;;;;;;;;;;;;;;;;;;;;;;;;;;;;;;;;;;;;;;;;;;
"kvkay2014";"1994";;"Windows 8";"Rachel's Experiment (D.T.)";"1.0";"2";"1";"1";"2";"1";"1";"2014-10-14 11:36:24.491";"2014-10-14 11:50:32.650";"1";"0";"0";"61";"60";"module.training_block2.exec-7223.GoNoGo2";;;;;;;;;;;;;;;;;;;;;;;;;;;;;;;;;;;"1250";"2014-10-14 11:40:46.085";"NST_correctLoc";"16";"1";"FINISHED";"RIGHT";"success";"389";"0";"2014-10-14 11:40:44.834";"2";;;;;;;;;;;;;;;;;;;;;;;;;;;;;;;;;;;;;;;;;;;;;
"kvkay2014";"1994";;"Windows 8";"Rachel's Experiment (D.T.)";"1.0";"2";"1";"1";"2";"1";"1";"2014-10-14 11:36:24.491";"2014-10-14 11:50:32.650";"1";"0";"0";"62";"61";"module.training_block2.exec-7223.GoNoGo2";;;;;;;;;;;;;;;;;;;;;;;;;;;;;;;;;;;"1250";"2014-10-14 11:40:48.605";"NST_correctLoc";"21";"0";"FINISHED";"LEFT";"success";"354";"0";"2014-10-14 11:40:47.354";"3";;;;;;;;;;;;;;;;;;;;;;;;;;;;;;;;;;;;;;;;;;;;;
"kvkay2014";"1994";;"Windows 8";"Rachel's Experiment (D.T.)";"1.0";"2";"1";"1";"2";"1";"1";"2014-10-14 11:36:24.491";"2014-10-14 11:50:32.650";"1";"0";"0";"63";"62";"module.training_block2.exec-7223.GoNoGo2";;;;;;;;;;;;;;;;;;;;;;;;;;;;;;;;;;;"1250";"2014-10-14 11:40:51.131";"NST_correctLoc";"30";"1";"FINISHED";"RIGHT";"success";"340";"0";"2014-10-14 11:40:49.880";"3";;;;;;;;;;;;;;;;;;;;;;;;;;;;;;;;;;;;;;;;;;;;;
"kvkay2014";"1994";;"Windows 8";"Rachel's Experiment (D.T.)";"1.0";"2";"1";"1";"2";"1";"1";"2014-10-14 11:36:24.491";"2014-10-14 11:50:32.650";"1";"0";"0";"64";"63";"module.training_block2.exec-7223.GoNoGo2";;;;;;;;;;;;;;;;;;;;;;;;;;;;;;;;;;;"1250";"2014-10-14 11:40:53.655";"NST_correctLoc";"22";"1";"FINISHED";"RIGHT";"success";"361";"0";"2014-10-14 11:40:52.404";"3";;;;;;;;;;;;;;;;;;;;;;;;;;;;;;;;;;;;;;;;;;;;;
"kvkay2014";"1994";;"Windows 8";"Rachel's Experiment (D.T.)";"1.0";"2";"1";"1";"2";"1";"1";"2014-10-14 11:36:24.491";"2014-10-14 11:50:32.650";"1";"0";"0";"65";"64";"module.training_block2.exec-7223.GoNoGo2";;;;;;;;;;;;;;;;;;;;;;;;;;;;;;;;;;;"1250";"2014-10-14 11:40:56.177";"NST_correctLoc";"33";"1";"FINISHED";"RIGHT";"success";"357";"0";"2014-10-14 11:40:54.926";"3";;;;;;;;;;;;;;;;;;;;;;;;;;;;;;;;;;;;;;;;;;;;;
"kvkay2014";"1994";;"Windows 8";"Rachel's Experiment (D.T.)";"1.0";"2";"1";"1";"2";"1";"1";"2014-10-14 11:36:24.491";"2014-10-14 11:50:32.650";"1";"0";"0";"66";"65";"module.training_block2.exec-7223.GoNoGo2";;;;;;;;;;;;;;;;;;;;;;;;;;;;;;;;;;;"1250";"2014-10-14 11:40:58.695";"NST_correctLoc";"8";"1";"FINISHED";"RIGHT";"success";"349";"0";"2014-10-14 11:40:57.444";"1";;;;;;;;;;;;;;;;;;;;;;;;;;;;;;;;;;;;;;;;;;;;;
"kvkay2014";"1994";;"Windows 8";"Rachel's Experiment (D.T.)";"1.0";"2";"1";"1";"2";"1";"1";"2014-10-14 11:36:24.491";"2014-10-14 11:50:32.650";"1";"0";"0";"67";"66";"module.training_block2.exec-7223.GoNoGo2";;;;;;;;;;;;;;;;;;;;;;;;;;;;;;;;;;;"1250";"2014-10-14 11:41:01.220";"NST_correctLoc";"20";"0";"FINISHED";"LEFT";"success";"325";"0";"2014-10-14 11:40:59.969";"3";;;;;;;;;;;;;;;;;;;;;;;;;;;;;;;;;;;;;;;;;;;;;
"kvkay2014";"1994";;"Windows 8";"Rachel's Experiment (D.T.)";"1.0";"2";"1";"1";"2";"1";"1";"2014-10-14 11:36:24.491";"2014-10-14 11:50:32.650";"1";"0";"0";"68";"67";"module.training_block2.exec-7223.GoNoGo2";;;;;;;;;;;;;;;;;;;;;;;;;;;;;;;;;;;"1250";"2014-10-14 11:41:03.738";"NST_correctLoc";"18";"1";"FINISHED";"RIGHT";"success";"290";"0";"2014-10-14 11:41:02.487";"3";;;;;;;;;;;;;;;;;;;;;;;;;;;;;;;;;;;;;;;;;;;;;
"kvkay2014";"1994";;"Windows 8";"Rachel's Experiment (D.T.)";"1.0";"2";"1";"1";"2";"1";"1";"2014-10-14 11:36:24.491";"2014-10-14 11:50:32.650";"1";"0";"0";"69";"68";"module.training_block2.exec-7223.GoNoGo2";;;;;;;;;;;;;;;;;;;;;;;;;;;;;;;;;;;"1250";"2014-10-14 11:41:06.256";"NST_correctLoc";"27";"1";"FINISHED";"RIGHT";"success";"324";"0";"2014-10-14 11:41:05.006";"3";;;;;;;;;;;;;;;;;;;;;;;;;;;;;;;;;;;;;;;;;;;;;
"kvkay2014";"1994";;"Windows 8";"Rachel's Experiment (D.T.)";"1.0";"2";"1";"1";"2";"1";"1";"2014-10-14 11:36:24.491";"2014-10-14 11:50:32.650";"1";"0";"0";"70";"69";"module.training_block2.exec-7223.GoNoGo2";;;;;;;;;;;;;;;;;;;;;;;;;;;;;;;;;;;"1250";"2014-10-14 11:41:08.778";"NST_correctLoc";"1";"1";"FINISHED";"RIGHT";"success";"374";"0";"2014-10-14 11:41:07.527";"1";;;;;;;;;;;;;;;;;;;;;;;;;;;;;;;;;;;;;;;;;;;;;
"kvkay2014";"1994";;"Windows 8";"Rachel's Experiment (D.T.)";"1.0";"2";"1";"1";"2";"1";"1";"2014-10-14 11:36:24.491";"2014-10-14 11:50:32.650";"1";"0";"0";"71";"70";"module.training_block2.exec-7223.GoNoGo2";;;;;;;;;;;;;;;;;;;;;;;;;;;;;;;;;;;"1250";"2014-10-14 11:41:11.299";"NST_correctLoc";"14";"0";"FINISHED";"LEFT";"success";"339";"0";"2014-10-14 11:41:10.048";"2";;;;;;;;;;;;;;;;;;;;;;;;;;;;;;;;;;;;;;;;;;;;;
"kvkay2014";"1994";;"Windows 8";"Rachel's Experiment (D.T.)";"1.0";"2";"1";"1";"2";"1";"1";"2014-10-14 11:36:24.491";"2014-10-14 11:50:32.650";"1";"0";"0";"72";"71";"module.training_block2.exec-7223.GoNoGo2";;;;;;;;;;;;;;;;;;;;;;;;;;;;;;;;;;;"1250";"2014-10-14 11:41:13.817";"NST_correctLoc";"9";"1";"FINISHED";"RIGHT";"success";"324";"0";"2014-10-14 11:41:12.566";"2";;;;;;;;;;;;;;;;;;;;;;;;;;;;;;;;;;;;;;;;;;;;;
"kvkay2014";"1994";;"Windows 8";"Rachel's Experiment (D.T.)";"1.0";"2";"1";"1";"2";"1";"1";"2014-10-14 11:36:24.491";"2014-10-14 11:50:32.650";"1";"0";"0";"73";"72";"module.training_block2.exec-7223.GoNoGo2";;;;;;;;;;;;;;;;;;;;;;;;;;;;;;;;;;;"1250";"2014-10-14 11:41:16.338";"NST_correctLoc";"35";"0";"FINISHED";"LEFT";"success";"372";"0";"2014-10-14 11:41:15.087";"3";;;;;;;;;;;;;;;;;;;;;;;;;;;;;;;;;;;;;;;;;;;;;
"kvkay2014";"1994";;"Windows 8";"Rachel's Experiment (D.T.)";"1.0";"2";"1";"1";"2";"1";"1";"2014-10-14 11:36:24.491";"2014-10-14 11:50:32.650";"1";"0";"0";"74";"73";"module.training_block2.exec-7223.GoNoGo2";;;;;;;;;;;;;;;;;;;;;;;;;;;;;;;;;;;"1250";"2014-10-14 11:41:18.855";"NST_correctLoc";"32";"1";"FINISHED";"RIGHT";"success";"359";"0";"2014-10-14 11:41:17.605";"3";;;;;;;;;;;;;;;;;;;;;;;;;;;;;;;;;;;;;;;;;;;;;
"kvkay2014";"1994";;"Windows 8";"Rachel's Experiment (D.T.)";"1.0";"2";"1";"1";"2";"1";"1";"2014-10-14 11:36:24.491";"2014-10-14 11:50:32.650";"1";"0";"0";"75";"74";"module.training_block2.exec-7223.GoNoGo2";;;;;;;;;;;;;;;;;;;;;;;;;;;;;;;;;;;"1250";"2014-10-14 11:41:21.374";"NST_correctLoc";"34";"0";"FINISHED";"LEFT";"success";"321";"0";"2014-10-14 11:41:20.123";"3";;;;;;;;;;;;;;;;;;;;;;;;;;;;;;;;;;;;;;;;;;;;;
"kvkay2014";"1994";;"Windows 8";"Rachel's Experiment (D.T.)";"1.0";"2";"1";"1";"2";"1";"1";"2014-10-14 11:36:24.491";"2014-10-14 11:50:32.650";"1";"0";"0";"76";"75";"module.training_block2.exec-7223.GoNoGo2";;;;;;;;;;;;;;;;;;;;;;;;;;;;;;;;;;;"1250";"2014-10-14 11:41:23.899";"NST_correctLoc";"6";"0";"FINISHED";"LEFT";"success";"354";"0";"2014-10-14 11:41:22.648";"1";;;;;;;;;;;;;;;;;;;;;;;;;;;;;;;;;;;;;;;;;;;;;
"kvkay2014";"1994";;"Windows 8";"Rachel's Experiment (D.T.)";"1.0";"2";"1";"1";"2";"1";"1";"2014-10-14 11:36:24.491";"2014-10-14 11:50:32.650";"1";"0";"0";"77";"76";"module.training_block2.exec-7223.GoNoGo2";;;;;;;;;;;;;;;;;;;;;;;;;;;;;;;;;;;"1250";"2014-10-14 11:41:26.418";"NST_correctLoc";"13";"0";"FINISHED";"LEFT";"success";"409";"0";"2014-10-14 11:41:25.167";"2";;;;;;;;;;;;;;;;;;;;;;;;;;;;;;;;;;;;;;;;;;;;;
"kvkay2014";"1994";;"Windows 8";"Rachel's Experiment (D.T.)";"1.0";"2";"1";"1";"2";"1";"1";"2014-10-14 11:36:24.491";"2014-10-14 11:50:32.650";"1";"0";"0";"78";"77";"module.training_block2.exec-7223.GoNoGo2";;;;;;;;;;;;;;;;;;;;;;;;;;;;;;;;;;;"1250";"2014-10-14 11:41:28.942";"NST_correctLoc";"12";"1";"FINISHED";"RIGHT";"success";"376";"0";"2014-10-14 11:41:27.691";"2";;;;;;;;;;;;;;;;;;;;;;;;;;;;;;;;;;;;;;;;;;;;;
"kvkay2014";"1994";;"Windows 8";"Rachel's Experiment (D.T.)";"1.0";"2";"1";"1";"2";"1";"1";"2014-10-14 11:36:24.491";"2014-10-14 11:50:32.650";"1";"0";"0";"79";"78";"module.training_block2.exec-7223.GoNoGo2";;;;;;;;;;;;;;;;;;;;;;;;;;;;;;;;;;;"1250";"2014-10-14 11:41:31.458";"NST_correctLoc";"23";"1";"FINISHED";"RIGHT";"success";"367";"0";"2014-10-14 11:41:30.207";"3";;;;;;;;;;;;;;;;;;;;;;;;;;;;;;;;;;;;;;;;;;;;;
"kvkay2014";"1994";;"Windows 8";"Rachel's Experiment (D.T.)";"1.0";"2";"1";"1";"2";"1";"1";"2014-10-14 11:36:24.491";"2014-10-14 11:50:32.650";"1";"0";"0";"80";"79";"module.training_block2.exec-7223.GoNoGo2";;;;;;;;;;;;;;;;;;;;;;;;;;;;;;;;;;;"1250";"2014-10-14 11:41:33.975";"NST_correctLoc";"11";"1";"FINISHED";"RIGHT";"success";"359";"0";"2014-10-14 11:41:32.724";"2";;;;;;;;;;;;;;;;;;;;;;;;;;;;;;;;;;;;;;;;;;;;;
"kvkay2014";"1994";;"Windows 8";"Rachel's Experiment (D.T.)";"1.0";"2";"1";"1";"2";"1";"1";"2014-10-14 11:36:24.491";"2014-10-14 11:50:32.650";"1";"0";"0";"81";"80";"module.training_block2.exec-7223.GoNoGo2";;;;;;;;;;;;;;;;;;;;;;;;;;;;;;;;;;;"1250";"2014-10-14 11:41:36.492";"NST_correctLoc";"25";"0";"FINISHED";"LEFT";"success";"357";"0";"2014-10-14 11:41:35.241";"3";;;;;;;;;;;;;;;;;;;;;;;;;;;;;;;;;;;;;;;;;;;;;
"kvkay2014";"1994";;"Windows 8";"Rachel's Experiment (D.T.)";"1.0";"2";"1";"1";"2";"1";"1";"2014-10-14 11:36:24.491";"2014-10-14 11:50:32.650";"1";"0";"0";"82";"81";"module.training_block2.exec-7223.GoNoGo2";;;;;;;;;;;;;;;;;;;;;;;;;;;;;;;;;;;"1250";"2014-10-14 11:41:39.017";"NST_correctLoc";"3";"1";"FINISHED";"RIGHT";"success";"351";"0";"2014-10-14 11:41:37.766";"1";;;;;;;;;;;;;;;;;;;;;;;;;;;;;;;;;;;;;;;;;;;;;
"kvkay2014";"1994";;"Windows 8";"Rachel's Experiment (D.T.)";"1.0";"2";"1";"1";"2";"1";"1";"2014-10-14 11:36:24.491";"2014-10-14 11:50:32.650";"1";"0";"0";"83";"82";"module.training_block2.exec-7223.GoNoGo2";;;;;;;;;;;;;;;;;;;;;;;;;;;;;;;;;;;"1250";"2014-10-14 11:41:41.533";"NST_correctLoc";"10";"1";"FINISHED";"RIGHT";"success";"336";"0";"2014-10-14 11:41:40.282";"2";;;;;;;;;;;;;;;;;;;;;;;;;;;;;;;;;;;;;;;;;;;;;
"kvkay2014";"1994";;"Windows 8";"Rachel's Experiment (D.T.)";"1.0";"2";"1";"1";"2";"1";"1";"2014-10-14 11:36:24.491";"2014-10-14 11:50:32.650";"1";"0";"0";"84";"83";"module.training_block2.exec-7223.GoNoGo2";;;;;;;;;;;;;;;;;;;;;;;;;;;;;;;;;;;"1250";"2014-10-14 11:41:44.050";"NST_correctLoc";"31";"1";"FINISHED";"RIGHT";"success";"344";"0";"2014-10-14 11:41:42.799";"3";;;;;;;;;;;;;;;;;;;;;;;;;;;;;;;;;;;;;;;;;;;;;
"kvkay2014";"1994";;"Windows 8";"Rachel's Experiment (D.T.)";"1.0";"2";"1";"1";"2";"1";"1";"2014-10-14 11:36:24.491";"2014-10-14 11:50:32.650";"1";"0";"0";"85";"84";"module.training_block2.exec-7223.GoNoGo2";;;;;;;;;;;;;;;;;;;;;;;;;;;;;;;;;;;"1250";"2014-10-14 11:41:46.572";"NST_correctLoc";"0";"0";"FINISHED";"LEFT";"success";"337";"0";"2014-10-14 11:41:45.321";"1";;;;;;;;;;;;;;;;;;;;;;;;;;;;;;;;;;;;;;;;;;;;;
"kvkay2014";"1994";;"Windows 8";"Rachel's Experiment (D.T.)";"1.0";"2";"1";"1";"2";"1";"1";"2014-10-14 11:36:24.491";"2014-10-14 11:50:32.650";"1";"0";"0";"86";"85";"module.training_block2.exec-7223.GoNoGo2";;;;;;;;;;;;;;;;;;;;;;;;;;;;;;;;;;;"1250";"2014-10-14 11:41:49.088";"NST_correctLoc";"24";"0";"FINISHED";"LEFT";"success";"331";"0";"2014-10-14 11:41:47.837";"3";;;;;;;;;;;;;;;;;;;;;;;;;;;;;;;;;;;;;;;;;;;;;
"kvkay2014";"1994";;"Windows 8";"Rachel's Experiment (D.T.)";"1.0";"2";"1";"1";"2";"1";"1";"2014-10-14 11:36:24.491";"2014-10-14 11:50:32.650";"1";"0";"0";"87";"86";"module.training_block2.exec-7223.GoNoGo2";;;;;;;;;;;;;;;;;;;;;;;;;;;;;;;;;;;"1250";"2014-10-14 11:41:51.606";"NST_correctLoc";"5";"1";"FINISHED";"RIGHT";"success";"356";"0";"2014-10-14 11:41:50.355";"1";;;;;;;;;;;;;;;;;;;;;;;;;;;;;;;;;;;;;;;;;;;;;
"kvkay2014";"1994";;"Windows 8";"Rachel's Experiment (D.T.)";"1.0";"2";"1";"1";"2";"1";"1";"2014-10-14 11:36:24.491";"2014-10-14 11:50:32.650";"1";"0";"0";"88";"87";"module.training_block3.exec-6527.GoNoGo3";;;;;;;;;;;;;;;;;;;;;;;;;;;;;;;;;;;;;;;;;;;;;;;"1250";"2014-10-14 11:42:05.247";"NST_correctLoc";"21";"1";"FINISHED";"RIGHT";"success";"408";"0";"2014-10-14 11:42:03.996";"3";;;;;;;;;;;;;;;;;;;;;;;;;;;;;;;;;
"kvkay2014";"1994";;"Windows 8";"Rachel's Experiment (D.T.)";"1.0";"2";"1";"1";"2";"1";"1";"2014-10-14 11:36:24.491";"2014-10-14 11:50:32.650";"1";"0";"0";"89";"88";"module.training_block3.exec-6527.GoNoGo3";;;;;;;;;;;;;;;;;;;;;;;;;;;;;;;;;;;;;;;;;;;;;;;"1250";"2014-10-14 11:42:07.771";"NST_wrongLoc";"3";"1";"FINISHED";"LEFT";"failure";"423";"0";"2014-10-14 11:42:06.520";"1";;;;;;;;;;;;;;;;;;;;;;;;;;;;;;;;;
"kvkay2014";"1994";;"Windows 8";"Rachel's Experiment (D.T.)";"1.0";"2";"1";"1";"2";"1";"1";"2014-10-14 11:36:24.491";"2014-10-14 11:50:32.650";"1";"0";"0";"90";"89";"module.training_block3.exec-6527.GoNoGo3";;;;;;;;;;;;;;;;;;;;;;;;;;;;;;;;;;;;;;;;;;;;;;;"1250";"2014-10-14 11:42:10.287";"NST_correctLoc";"9";"1";"FINISHED";"RIGHT";"success";"401";"0";"2014-10-14 11:42:09.036";"2";;;;;;;;;;;;;;;;;;;;;;;;;;;;;;;;;
"kvkay2014";"1994";;"Windows 8";"Rachel's Experiment (D.T.)";"1.0";"2";"1";"1";"2";"1";"1";"2014-10-14 11:36:24.491";"2014-10-14 11:50:32.650";"1";"0";"0";"91";"90";"module.training_block3.exec-6527.GoNoGo3";;;;;;;;;;;;;;;;;;;;;;;;;;;;;;;;;;;;;;;;;;;;;;;"1250";"2014-10-14 11:42:12.803";"NST_correctLoc";"5";"1";"FINISHED";"RIGHT";"success";"385";"0";"2014-10-14 11:42:11.552";"1";;;;;;;;;;;;;;;;;;;;;;;;;;;;;;;;;
"kvkay2014";"1994";;"Windows 8";"Rachel's Experiment (D.T.)";"1.0";"2";"1";"1";"2";"1";"1";"2014-10-14 11:36:24.491";"2014-10-14 11:50:32.650";"1";"0";"0";"92";"91";"module.training_block3.exec-6527.GoNoGo3";;;;;;;;;;;;;;;;;;;;;;;;;;;;;;;;;;;;;;;;;;;;;;;"1250";"2014-10-14 11:42:15.319";"NST_correctLoc";"17";"1";"FINISHED";"RIGHT";"success";"437";"0";"2014-10-14 11:42:14.069";"2";;;;;;;;;;;;;;;;;;;;;;;;;;;;;;;;;
"kvkay2014";"1994";;"Windows 8";"Rachel's Experiment (D.T.)";"1.0";"2";"1";"1";"2";"1";"1";"2014-10-14 11:36:24.491";"2014-10-14 11:50:32.650";"1";"0";"0";"93";"92";"module.training_block3.exec-6527.GoNoGo3";;;;;;;;;;;;;;;;;;;;;;;;;;;;;;;;;;;;;;;;;;;;;;;"1250";"2014-10-14 11:42:17.834";"NST_correctLoc";"26";"1";"FINISHED";"RIGHT";"success";"388";"0";"2014-10-14 11:42:16.583";"3";;;;;;;;;;;;;;;;;;;;;;;;;;;;;;;;;
"kvkay2014";"1994";;"Windows 8";"Rachel's Experiment (D.T.)";"1.0";"2";"1";"1";"2";"1";"1";"2014-10-14 11:36:24.491";"2014-10-14 11:50:32.650";"1";"0";"0";"94";"93";"module.training_block3.exec-6527.GoNoGo3";;;;;;;;;;;;;;;;;;;;;;;;;;;;;;;;;;;;;;;;;;;;;;;"1250";"2014-10-14 11:42:20.359";"NST_correctLoc";"13";"0";"FINISHED";"LEFT";"success";"334";"0";"2014-10-14 11:42:19.108";"2";;;;;;;;;;;;;;;;;;;;;;;;;;;;;;;;;
"kvkay2014";"1994";;"Windows 8";"Rachel's Experiment (D.T.)";"1.0";"2";"1";"1";"2";"1";"1";"2014-10-14 11:36:24.491";"2014-10-14 11:50:32.650";"1";"0";"0";"95";"94";"module.training_block3.exec-6527.GoNoGo3";;;;;;;;;;;;;;;;;;;;;;;;;;;;;;;;;;;;;;;;;;;;;;;"1250";"2014-10-14 11:42:22.875";"NST_correctLoc";"15";"1";"FINISHED";"RIGHT";"success";"342";"0";"2014-10-14 11:42:21.624";"2";;;;;;;;;;;;;;;;;;;;;;;;;;;;;;;;;
"kvkay2014";"1994";;"Windows 8";"Rachel's Experiment (D.T.)";"1.0";"2";"1";"1";"2";"1";"1";"2014-10-14 11:36:24.491";"2014-10-14 11:50:32.650";"1";"0";"0";"96";"95";"module.training_block3.exec-6527.GoNoGo3";;;;;;;;;;;;;;;;;;;;;;;;;;;;;;;;;;;;;;;;;;;;;;;"1250";"2014-10-14 11:42:25.391";"NST_correctLoc";"8";"1";"FINISHED";"RIGHT";"success";"385";"0";"2014-10-14 11:42:24.140";"1";;;;;;;;;;;;;;;;;;;;;;;;;;;;;;;;;
"kvkay2014";"1994";;"Windows 8";"Rachel's Experiment (D.T.)";"1.0";"2";"1";"1";"2";"1";"1";"2014-10-14 11:36:24.491";"2014-10-14 11:50:32.650";"1";"0";"0";"97";"96";"module.training_block3.exec-6527.GoNoGo3";;;;;;;;;;;;;;;;;;;;;;;;;;;;;;;;;;;;;;;;;;;;;;;"1250";"2014-10-14 11:42:27.907";"NST_correctLoc";"2";"1";"FINISHED";"RIGHT";"success";"378";"0";"2014-10-14 11:42:26.657";"1";;;;;;;;;;;;;;;;;;;;;;;;;;;;;;;;;
"kvkay2014";"1994";;"Windows 8";"Rachel's Experiment (D.T.)";"1.0";"2";"1";"1";"2";"1";"1";"2014-10-14 11:36:24.491";"2014-10-14 11:50:32.650";"1";"0";"0";"98";"97";"module.training_block3.exec-6527.GoNoGo3";;;;;;;;;;;;;;;;;;;;;;;;;;;;;;;;;;;;;;;;;;;;;;;"1250";"2014-10-14 11:42:30.427";"NST_correctLoc";"6";"1";"FINISHED";"RIGHT";"success";"355";"0";"2014-10-14 11:42:29.176";"1";;;;;;;;;;;;;;;;;;;;;;;;;;;;;;;;;
"kvkay2014";"1994";;"Windows 8";"Rachel's Experiment (D.T.)";"1.0";"2";"1";"1";"2";"1";"1";"2014-10-14 11:36:24.491";"2014-10-14 11:50:32.650";"1";"0";"0";"99";"98";"module.training_block3.exec-6527.GoNoGo3";;;;;;;;;;;;;;;;;;;;;;;;;;;;;;;;;;;;;;;;;;;;;;;"1250";"2014-10-14 11:42:32.945";"NST_correctLoc";"35";"1";"FINISHED";"RIGHT";"success";"367";"0";"2014-10-14 11:42:31.694";"3";;;;;;;;;;;;;;;;;;;;;;;;;;;;;;;;;
"kvkay2014";"1994";;"Windows 8";"Rachel's Experiment (D.T.)";"1.0";"2";"1";"1";"2";"1";"1";"2014-10-14 11:36:24.491";"2014-10-14 11:50:32.650";"1";"0";"0";"100";"99";"module.training_block3.exec-6527.GoNoGo3";;;;;;;;;;;;;;;;;;;;;;;;;;;;;;;;;;;;;;;;;;;;;;;"1250";"2014-10-14 11:42:35.462";"NST_correctLoc";"7";"0";"FINISHED";"LEFT";"success";"334";"0";"2014-10-14 11:42:34.211";"1";;;;;;;;;;;;;;;;;;;;;;;;;;;;;;;;;
"kvkay2014";"1994";;"Windows 8";"Rachel's Experiment (D.T.)";"1.0";"2";"1";"1";"2";"1";"1";"2014-10-14 11:36:24.491";"2014-10-14 11:50:32.650";"1";"0";"0";"101";"100";"module.training_block3.exec-6527.GoNoGo3";;;;;;;;;;;;;;;;;;;;;;;;;;;;;;;;;;;;;;;;;;;;;;;"1250";"2014-10-14 11:42:37.978";"NST_correctLoc";"31";"1";"FINISHED";"RIGHT";"success";"346";"0";"2014-10-14 11:42:36.727";"3";;;;;;;;;;;;;;;;;;;;;;;;;;;;;;;;;
"kvkay2014";"1994";;"Windows 8";"Rachel's Experiment (D.T.)";"1.0";"2";"1";"1";"2";"1";"1";"2014-10-14 11:36:24.491";"2014-10-14 11:50:32.650";"1";"0";"0";"102";"101";"module.training_block3.exec-6527.GoNoGo3";;;;;;;;;;;;;;;;;;;;;;;;;;;;;;;;;;;;;;;;;;;;;;;"1250";"2014-10-14 11:42:40.493";"NST_correctLoc";"20";"0";"FINISHED";"LEFT";"success";"353";"0";"2014-10-14 11:42:39.242";"3";;;;;;;;;;;;;;;;;;;;;;;;;;;;;;;;;
"kvkay2014";"1994";;"Windows 8";"Rachel's Experiment (D.T.)";"1.0";"2";"1";"1";"2";"1";"1";"2014-10-14 11:36:24.491";"2014-10-14 11:50:32.650";"1";"0";"0";"103";"102";"module.training_block3.exec-6527.GoNoGo3";;;;;;;;;;;;;;;;;;;;;;;;;;;;;;;;;;;;;;;;;;;;;;;"1250";"2014-10-14 11:42:43.008";"NST_correctLoc";"29";"1";"FINISHED";"RIGHT";"success";"329";"0";"2014-10-14 11:42:41.757";"3";;;;;;;;;;;;;;;;;;;;;;;;;;;;;;;;;
"kvkay2014";"1994";;"Windows 8";"Rachel's Experiment (D.T.)";"1.0";"2";"1";"1";"2";"1";"1";"2014-10-14 11:36:24.491";"2014-10-14 11:50:32.650";"1";"0";"0";"104";"103";"module.training_block3.exec-6527.GoNoGo3";;;;;;;;;;;;;;;;;;;;;;;;;;;;;;;;;;;;;;;;;;;;;;;"1250";"2014-10-14 11:42:45.523";"NST_correctLoc";"4";"1";"FINISHED";"RIGHT";"success";"383";"0";"2014-10-14 11:42:44.272";"1";;;;;;;;;;;;;;;;;;;;;;;;;;;;;;;;;
"kvkay2014";"1994";;"Windows 8";"Rachel's Experiment (D.T.)";"1.0";"2";"1";"1";"2";"1";"1";"2014-10-14 11:36:24.491";"2014-10-14 11:50:32.650";"1";"0";"0";"105";"104";"module.training_block3.exec-6527.GoNoGo3";;;;;;;;;;;;;;;;;;;;;;;;;;;;;;;;;;;;;;;;;;;;;;;"1250";"2014-10-14 11:42:48.038";"NST_correctLoc";"0";"1";"FINISHED";"RIGHT";"success";"453";"0";"2014-10-14 11:42:46.787";"1";;;;;;;;;;;;;;;;;;;;;;;;;;;;;;;;;
"kvkay2014";"1994";;"Windows 8";"Rachel's Experiment (D.T.)";"1.0";"2";"1";"1";"2";"1";"1";"2014-10-14 11:36:24.491";"2014-10-14 11:50:32.650";"1";"0";"0";"106";"105";"module.training_block3.exec-6527.GoNoGo3";;;;;;;;;;;;;;;;;;;;;;;;;;;;;;;;;;;;;;;;;;;;;;;"1250";"2014-10-14 11:42:50.557";"NST_correctLoc";"18";"0";"FINISHED";"LEFT";"success";"383";"0";"2014-10-14 11:42:49.307";"3";;;;;;;;;;;;;;;;;;;;;;;;;;;;;;;;;
"kvkay2014";"1994";;"Windows 8";"Rachel's Experiment (D.T.)";"1.0";"2";"1";"1";"2";"1";"1";"2014-10-14 11:36:24.491";"2014-10-14 11:50:32.650";"1";"0";"0";"107";"106";"module.training_block3.exec-6527.GoNoGo3";;;;;;;;;;;;;;;;;;;;;;;;;;;;;;;;;;;;;;;;;;;;;;;"1250";"2014-10-14 11:42:53.077";"NST_correctLoc";"10";"0";"FINISHED";"LEFT";"success";"368";"0";"2014-10-14 11:42:51.826";"2";;;;;;;;;;;;;;;;;;;;;;;;;;;;;;;;;
"kvkay2014";"1994";;"Windows 8";"Rachel's Experiment (D.T.)";"1.0";"2";"1";"1";"2";"1";"1";"2014-10-14 11:36:24.491";"2014-10-14 11:50:32.650";"1";"0";"0";"108";"107";"module.training_block3.exec-6527.GoNoGo3";;;;;;;;;;;;;;;;;;;;;;;;;;;;;;;;;;;;;;;;;;;;;;;"1250";"2014-10-14 11:42:55.593";"NST_correctLoc";"30";"1";"FINISHED";"RIGHT";"success";"389";"0";"2014-10-14 11:42:54.342";"3";;;;;;;;;;;;;;;;;;;;;;;;;;;;;;;;;
"kvkay2014";"1994";;"Windows 8";"Rachel's Experiment (D.T.)";"1.0";"2";"1";"1";"2";"1";"1";"2014-10-14 11:36:24.491";"2014-10-14 11:50:32.650";"1";"0";"0";"109";"108";"module.training_block3.exec-6527.GoNoGo3";;;;;;;;;;;;;;;;;;;;;;;;;;;;;;;;;;;;;;;;;;;;;;;"1250";"2014-10-14 11:42:58.110";"NST_correctLoc";"19";"0";"FINISHED";"LEFT";"success";"325";"0";"2014-10-14 11:42:56.859";"3";;;;;;;;;;;;;;;;;;;;;;;;;;;;;;;;;
"kvkay2014";"1994";;"Windows 8";"Rachel's Experiment (D.T.)";"1.0";"2";"1";"1";"2";"1";"1";"2014-10-14 11:36:24.491";"2014-10-14 11:50:32.650";"1";"0";"0";"110";"109";"module.training_block3.exec-6527.GoNoGo3";;;;;;;;;;;;;;;;;;;;;;;;;;;;;;;;;;;;;;;;;;;;;;;"1250";"2014-10-14 11:43:00.626";"NST_correctLoc";"16";"1";"FINISHED";"RIGHT";"success";"318";"0";"2014-10-14 11:42:59.375";"2";;;;;;;;;;;;;;;;;;;;;;;;;;;;;;;;;
"kvkay2014";"1994";;"Windows 8";"Rachel's Experiment (D.T.)";"1.0";"2";"1";"1";"2";"1";"1";"2014-10-14 11:36:24.491";"2014-10-14 11:50:32.650";"1";"0";"0";"111";"110";"module.training_block3.exec-6527.GoNoGo3";;;;;;;;;;;;;;;;;;;;;;;;;;;;;;;;;;;;;;;;;;;;;;;"1250";"2014-10-14 11:43:03.152";"NST_correctLoc";"11";"1";"FINISHED";"RIGHT";"success";"338";"0";"2014-10-14 11:43:01.902";"2";;;;;;;;;;;;;;;;;;;;;;;;;;;;;;;;;
"kvkay2014";"1994";;"Windows 8";"Rachel's Experiment (D.T.)";"1.0";"2";"1";"1";"2";"1";"1";"2014-10-14 11:36:24.491";"2014-10-14 11:50:32.650";"1";"0";"0";"112";"111";"module.training_block3.exec-6527.GoNoGo3";;;;;;;;;;;;;;;;;;;;;;;;;;;;;;;;;;;;;;;;;;;;;;;"1250";"2014-10-14 11:43:05.669";"NST_correctLoc";"1";"0";"FINISHED";"LEFT";"success";"316";"0";"2014-10-14 11:43:04.418";"1";;;;;;;;;;;;;;;;;;;;;;;;;;;;;;;;;
"kvkay2014";"1994";;"Windows 8";"Rachel's Experiment (D.T.)";"1.0";"2";"1";"1";"2";"1";"1";"2014-10-14 11:36:24.491";"2014-10-14 11:50:32.650";"1";"0";"0";"113";"112";"module.training_block3.exec-6527.GoNoGo3";;;;;;;;;;;;;;;;;;;;;;;;;;;;;;;;;;;;;;;;;;;;;;;"1250";"2014-10-14 11:43:08.185";"NST_correctLoc";"28";"0";"FINISHED";"LEFT";"success";"391";"0";"2014-10-14 11:43:06.934";"3";;;;;;;;;;;;;;;;;;;;;;;;;;;;;;;;;
"kvkay2014";"1994";;"Windows 8";"Rachel's Experiment (D.T.)";"1.0";"2";"1";"1";"2";"1";"1";"2014-10-14 11:36:24.491";"2014-10-14 11:50:32.650";"1";"0";"0";"114";"113";"module.training_block3.exec-6527.GoNoGo3";;;;;;;;;;;;;;;;;;;;;;;;;;;;;;;;;;;;;;;;;;;;;;;"1250";"2014-10-14 11:43:10.709";"NST_correctLoc";"33";"1";"FINISHED";"RIGHT";"success";"359";"0";"2014-10-14 11:43:09.458";"3";;;;;;;;;;;;;;;;;;;;;;;;;;;;;;;;;
"kvkay2014";"1994";;"Windows 8";"Rachel's Experiment (D.T.)";"1.0";"2";"1";"1";"2";"1";"1";"2014-10-14 11:36:24.491";"2014-10-14 11:50:32.650";"1";"0";"0";"115";"114";"module.training_block3.exec-6527.GoNoGo3";;;;;;;;;;;;;;;;;;;;;;;;;;;;;;;;;;;;;;;;;;;;;;;"1250";"2014-10-14 11:43:13.230";"NST_correctLoc";"32";"1";"FINISHED";"RIGHT";"success";"397";"0";"2014-10-14 11:43:11.979";"3";;;;;;;;;;;;;;;;;;;;;;;;;;;;;;;;;
"kvkay2014";"1994";;"Windows 8";"Rachel's Experiment (D.T.)";"1.0";"2";"1";"1";"2";"1";"1";"2014-10-14 11:36:24.491";"2014-10-14 11:50:32.650";"1";"0";"0";"116";"115";"module.training_block3.exec-6527.GoNoGo3";;;;;;;;;;;;;;;;;;;;;;;;;;;;;;;;;;;;;;;;;;;;;;;"1250";"2014-10-14 11:43:15.746";"NST_correctLoc";"34";"0";"FINISHED";"LEFT";"success";"326";"0";"2014-10-14 11:43:14.495";"3";;;;;;;;;;;;;;;;;;;;;;;;;;;;;;;;;
"kvkay2014";"1994";;"Windows 8";"Rachel's Experiment (D.T.)";"1.0";"2";"1";"1";"2";"1";"1";"2014-10-14 11:36:24.491";"2014-10-14 11:50:32.650";"1";"0";"0";"117";"116";"module.training_block3.exec-6527.GoNoGo3";;;;;;;;;;;;;;;;;;;;;;;;;;;;;;;;;;;;;;;;;;;;;;;"1250";"2014-10-14 11:43:18.268";"NST_correctLoc";"22";"0";"FINISHED";"LEFT";"success";"334";"0";"2014-10-14 11:43:17.017";"3";;;;;;;;;;;;;;;;;;;;;;;;;;;;;;;;;
"kvkay2014";"1994";;"Windows 8";"Rachel's Experiment (D.T.)";"1.0";"2";"1";"1";"2";"1";"1";"2014-10-14 11:36:24.491";"2014-10-14 11:50:32.650";"1";"0";"0";"118";"117";"module.training_block3.exec-6527.GoNoGo3";;;;;;;;;;;;;;;;;;;;;;;;;;;;;;;;;;;;;;;;;;;;;;;"1250";"2014-10-14 11:43:20.784";"NST_correctLoc";"23";"1";"FINISHED";"RIGHT";"success";"342";"0";"2014-10-14 11:43:19.533";"3";;;;;;;;;;;;;;;;;;;;;;;;;;;;;;;;;
"kvkay2014";"1994";;"Windows 8";"Rachel's Experiment (D.T.)";"1.0";"2";"1";"1";"2";"1";"1";"2014-10-14 11:36:24.491";"2014-10-14 11:50:32.650";"1";"0";"0";"119";"118";"module.training_block3.exec-6527.GoNoGo3";;;;;;;;;;;;;;;;;;;;;;;;;;;;;;;;;;;;;;;;;;;;;;;"1250";"2014-10-14 11:43:23.299";"NST_correctLoc";"25";"0";"FINISHED";"LEFT";"success";"326";"0";"2014-10-14 11:43:22.048";"3";;;;;;;;;;;;;;;;;;;;;;;;;;;;;;;;;
"kvkay2014";"1994";;"Windows 8";"Rachel's Experiment (D.T.)";"1.0";"2";"1";"1";"2";"1";"1";"2014-10-14 11:36:24.491";"2014-10-14 11:50:32.650";"1";"0";"0";"120";"119";"module.training_block3.exec-6527.GoNoGo3";;;;;;;;;;;;;;;;;;;;;;;;;;;;;;;;;;;;;;;;;;;;;;;"1250";"2014-10-14 11:43:25.813";"NST_correctLoc";"27";"1";"FINISHED";"RIGHT";"success";"344";"0";"2014-10-14 11:43:24.563";"3";;;;;;;;;;;;;;;;;;;;;;;;;;;;;;;;;
"kvkay2014";"1994";;"Windows 8";"Rachel's Experiment (D.T.)";"1.0";"2";"1";"1";"2";"1";"1";"2014-10-14 11:36:24.491";"2014-10-14 11:50:32.650";"1";"0";"0";"121";"120";"module.training_block3.exec-6527.GoNoGo3";;;;;;;;;;;;;;;;;;;;;;;;;;;;;;;;;;;;;;;;;;;;;;;"1250";"2014-10-14 11:43:28.331";"NST_correctLoc";"14";"1";"FINISHED";"RIGHT";"success";"314";"0";"2014-10-14 11:43:27.080";"2";;;;;;;;;;;;;;;;;;;;;;;;;;;;;;;;;
"kvkay2014";"1994";;"Windows 8";"Rachel's Experiment (D.T.)";"1.0";"2";"1";"1";"2";"1";"1";"2014-10-14 11:36:24.491";"2014-10-14 11:50:32.650";"1";"0";"0";"122";"121";"module.training_block3.exec-6527.GoNoGo3";;;;;;;;;;;;;;;;;;;;;;;;;;;;;;;;;;;;;;;;;;;;;;;"1250";"2014-10-14 11:43:30.848";"NST_correctLoc";"24";"0";"FINISHED";"LEFT";"success";"448";"0";"2014-10-14 11:43:29.597";"3";;;;;;;;;;;;;;;;;;;;;;;;;;;;;;;;;
"kvkay2014";"1994";;"Windows 8";"Rachel's Experiment (D.T.)";"1.0";"2";"1";"1";"2";"1";"1";"2014-10-14 11:36:24.491";"2014-10-14 11:50:32.650";"1";"0";"0";"123";"122";"module.training_block3.exec-6527.GoNoGo3";;;;;;;;;;;;;;;;;;;;;;;;;;;;;;;;;;;;;;;;;;;;;;;"1250";"2014-10-14 11:43:33.369";"NST_correctLoc";"12";"1";"FINISHED";"RIGHT";"success";"443";"0";"2014-10-14 11:43:32.118";"2";;;;;;;;;;;;;;;;;;;;;;;;;;;;;;;;;
"kvkay2014";"1994";;"Windows 8";"Rachel's Experiment (D.T.)";"1.0";"2";"1";"1";"2";"1";"1";"2014-10-14 11:36:24.491";"2014-10-14 11:50:32.650";"1";"0";"0";"124";"123";"module.training_block4.exec-6484.GoNoGo4";;;;;;;;;;;;;;;;;;;;;;;;;;;;;;;;;;;;;;;;;;;;;;;;;;;;;;;;;;;"1250";"2014-10-14 11:43:45.008";"NST_correctLoc";"10";"0";"FINISHED";"LEFT";"success";"426";"0";"2014-10-14 11:43:43.757";"2";;;;;;;;;;;;;;;;;;;;;
"kvkay2014";"1994";;"Windows 8";"Rachel's Experiment (D.T.)";"1.0";"2";"1";"1";"2";"1";"1";"2014-10-14 11:36:24.491";"2014-10-14 11:50:32.650";"1";"0";"0";"125";"124";"module.training_block4.exec-6484.GoNoGo4";;;;;;;;;;;;;;;;;;;;;;;;;;;;;;;;;;;;;;;;;;;;;;;;;;;;;;;;;;;"1250";"2014-10-14 11:43:47.524";"NST_correctLoc";"3";"1";"FINISHED";"RIGHT";"success";"347";"0";"2014-10-14 11:43:46.273";"1";;;;;;;;;;;;;;;;;;;;;
"kvkay2014";"1994";;"Windows 8";"Rachel's Experiment (D.T.)";"1.0";"2";"1";"1";"2";"1";"1";"2014-10-14 11:36:24.491";"2014-10-14 11:50:32.650";"1";"0";"0";"126";"125";"module.training_block4.exec-6484.GoNoGo4";;;;;;;;;;;;;;;;;;;;;;;;;;;;;;;;;;;;;;;;;;;;;;;;;;;;;;;;;;;"1250";"2014-10-14 11:43:50.039";"NST_correctLoc";"9";"1";"FINISHED";"RIGHT";"success";"354";"0";"2014-10-14 11:43:48.788";"2";;;;;;;;;;;;;;;;;;;;;
"kvkay2014";"1994";;"Windows 8";"Rachel's Experiment (D.T.)";"1.0";"2";"1";"1";"2";"1";"1";"2014-10-14 11:36:24.491";"2014-10-14 11:50:32.650";"1";"0";"0";"127";"126";"module.training_block4.exec-6484.GoNoGo4";;;;;;;;;;;;;;;;;;;;;;;;;;;;;;;;;;;;;;;;;;;;;;;;;;;;;;;;;;;"1250";"2014-10-14 11:43:52.553";"NST_correctLoc";"21";"1";"FINISHED";"RIGHT";"success";"393";"0";"2014-10-14 11:43:51.303";"3";;;;;;;;;;;;;;;;;;;;;
"kvkay2014";"1994";;"Windows 8";"Rachel's Experiment (D.T.)";"1.0";"2";"1";"1";"2";"1";"1";"2014-10-14 11:36:24.491";"2014-10-14 11:50:32.650";"1";"0";"0";"128";"127";"module.training_block4.exec-6484.GoNoGo4";;;;;;;;;;;;;;;;;;;;;;;;;;;;;;;;;;;;;;;;;;;;;;;;;;;;;;;;;;;"1250";"2014-10-14 11:43:55.068";"NST_correctLoc";"15";"0";"FINISHED";"LEFT";"success";"309";"0";"2014-10-14 11:43:53.817";"2";;;;;;;;;;;;;;;;;;;;;
"kvkay2014";"1994";;"Windows 8";"Rachel's Experiment (D.T.)";"1.0";"2";"1";"1";"2";"1";"1";"2014-10-14 11:36:24.491";"2014-10-14 11:50:32.650";"1";"0";"0";"129";"128";"module.training_block4.exec-6484.GoNoGo4";;;;;;;;;;;;;;;;;;;;;;;;;;;;;;;;;;;;;;;;;;;;;;;;;;;;;;;;;;;"1250";"2014-10-14 11:43:57.584";"NST_correctLoc";"14";"1";"FINISHED";"RIGHT";"success";"328";"0";"2014-10-14 11:43:56.333";"2";;;;;;;;;;;;;;;;;;;;;
"kvkay2014";"1994";;"Windows 8";"Rachel's Experiment (D.T.)";"1.0";"2";"1";"1";"2";"1";"1";"2014-10-14 11:36:24.491";"2014-10-14 11:50:32.650";"1";"0";"0";"130";"129";"module.training_block4.exec-6484.GoNoGo4";;;;;;;;;;;;;;;;;;;;;;;;;;;;;;;;;;;;;;;;;;;;;;;;;;;;;;;;;;;"1250";"2014-10-14 11:44:00.100";"NST_correctLoc";"27";"0";"FINISHED";"LEFT";"success";"325";"0";"2014-10-14 11:43:58.849";"3";;;;;;;;;;;;;;;;;;;;;
"kvkay2014";"1994";;"Windows 8";"Rachel's Experiment (D.T.)";"1.0";"2";"1";"1";"2";"1";"1";"2014-10-14 11:36:24.491";"2014-10-14 11:50:32.650";"1";"0";"0";"131";"130";"module.training_block4.exec-6484.GoNoGo4";;;;;;;;;;;;;;;;;;;;;;;;;;;;;;;;;;;;;;;;;;;;;;;;;;;;;;;;;;;"1251";"2014-10-14 11:44:02.620";"NST_correctLoc";"25";"1";"FINISHED";"RIGHT";"success";"366";"0";"2014-10-14 11:44:01.368";"3";;;;;;;;;;;;;;;;;;;;;
"kvkay2014";"1994";;"Windows 8";"Rachel's Experiment (D.T.)";"1.0";"2";"1";"1";"2";"1";"1";"2014-10-14 11:36:24.491";"2014-10-14 11:50:32.650";"1";"0";"0";"132";"131";"module.training_block4.exec-6484.GoNoGo4";;;;;;;;;;;;;;;;;;;;;;;;;;;;;;;;;;;;;;;;;;;;;;;;;;;;;;;;;;;"1250";"2014-10-14 11:44:05.138";"NST_correctLoc";"16";"0";"FINISHED";"LEFT";"success";"343";"0";"2014-10-14 11:44:03.888";"2";;;;;;;;;;;;;;;;;;;;;
"kvkay2014";"1994";;"Windows 8";"Rachel's Experiment (D.T.)";"1.0";"2";"1";"1";"2";"1";"1";"2014-10-14 11:36:24.491";"2014-10-14 11:50:32.650";"1";"0";"0";"133";"132";"module.training_block4.exec-6484.GoNoGo4";;;;;;;;;;;;;;;;;;;;;;;;;;;;;;;;;;;;;;;;;;;;;;;;;;;;;;;;;;;"1250";"2014-10-14 11:44:07.653";"NST_correctLoc";"24";"1";"FINISHED";"RIGHT";"success";"338";"0";"2014-10-14 11:44:06.402";"3";;;;;;;;;;;;;;;;;;;;;
"kvkay2014";"1994";;"Windows 8";"Rachel's Experiment (D.T.)";"1.0";"2";"1";"1";"2";"1";"1";"2014-10-14 11:36:24.491";"2014-10-14 11:50:32.650";"1";"0";"0";"134";"133";"module.training_block4.exec-6484.GoNoGo4";;;;;;;;;;;;;;;;;;;;;;;;;;;;;;;;;;;;;;;;;;;;;;;;;;;;;;;;;;;"1250";"2014-10-14 11:44:10.169";"NST_correctLoc";"5";"0";"FINISHED";"LEFT";"success";"333";"0";"2014-10-14 11:44:08.918";"1";;;;;;;;;;;;;;;;;;;;;
"kvkay2014";"1994";;"Windows 8";"Rachel's Experiment (D.T.)";"1.0";"2";"1";"1";"2";"1";"1";"2014-10-14 11:36:24.491";"2014-10-14 11:50:32.650";"1";"0";"0";"135";"134";"module.training_block4.exec-6484.GoNoGo4";;;;;;;;;;;;;;;;;;;;;;;;;;;;;;;;;;;;;;;;;;;;;;;;;;;;;;;;;;;"1250";"2014-10-14 11:44:12.686";"NST_correctLoc";"4";"0";"FINISHED";"LEFT";"success";"329";"0";"2014-10-14 11:44:11.435";"1";;;;;;;;;;;;;;;;;;;;;
"kvkay2014";"1994";;"Windows 8";"Rachel's Experiment (D.T.)";"1.0";"2";"1";"1";"2";"1";"1";"2014-10-14 11:36:24.491";"2014-10-14 11:50:32.650";"1";"0";"0";"136";"135";"module.training_block4.exec-6484.GoNoGo4";;;;;;;;;;;;;;;;;;;;;;;;;;;;;;;;;;;;;;;;;;;;;;;;;;;;;;;;;;;"1250";"2014-10-14 11:44:15.203";"NST_correctLoc";"19";"0";"FINISHED";"LEFT";"success";"330";"0";"2014-10-14 11:44:13.952";"3";;;;;;;;;;;;;;;;;;;;;
"kvkay2014";"1994";;"Windows 8";"Rachel's Experiment (D.T.)";"1.0";"2";"1";"1";"2";"1";"1";"2014-10-14 11:36:24.491";"2014-10-14 11:50:32.650";"1";"0";"0";"137";"136";"module.training_block4.exec-6484.GoNoGo4";;;;;;;;;;;;;;;;;;;;;;;;;;;;;;;;;;;;;;;;;;;;;;;;;;;;;;;;;;;"1250";"2014-10-14 11:44:17.726";"NST_correctLoc";"12";"1";"FINISHED";"RIGHT";"success";"377";"0";"2014-10-14 11:44:16.475";"2";;;;;;;;;;;;;;;;;;;;;
"kvkay2014";"1994";;"Windows 8";"Rachel's Experiment (D.T.)";"1.0";"2";"1";"1";"2";"1";"1";"2014-10-14 11:36:24.491";"2014-10-14 11:50:32.650";"1";"0";"0";"138";"137";"module.training_block4.exec-6484.GoNoGo4";;;;;;;;;;;;;;;;;;;;;;;;;;;;;;;;;;;;;;;;;;;;;;;;;;;;;;;;;;;"1250";"2014-10-14 11:44:20.245";"NST_correctLoc";"1";"1";"FINISHED";"RIGHT";"success";"365";"0";"2014-10-14 11:44:18.994";"1";;;;;;;;;;;;;;;;;;;;;
"kvkay2014";"1994";;"Windows 8";"Rachel's Experiment (D.T.)";"1.0";"2";"1";"1";"2";"1";"1";"2014-10-14 11:36:24.491";"2014-10-14 11:50:32.650";"1";"0";"0";"139";"138";"module.training_block4.exec-6484.GoNoGo4";;;;;;;;;;;;;;;;;;;;;;;;;;;;;;;;;;;;;;;;;;;;;;;;;;;;;;;;;;;"1250";"2014-10-14 11:44:22.761";"NST_correctLoc";"30";"1";"FINISHED";"RIGHT";"success";"393";"0";"2014-10-14 11:44:21.510";"3";;;;;;;;;;;;;;;;;;;;;
"kvkay2014";"1994";;"Windows 8";"Rachel's Experiment (D.T.)";"1.0";"2";"1";"1";"2";"1";"1";"2014-10-14 11:36:24.491";"2014-10-14 11:50:32.650";"1";"0";"0";"140";"139";"module.training_block4.exec-6484.GoNoGo4";;;;;;;;;;;;;;;;;;;;;;;;;;;;;;;;;;;;;;;;;;;;;;;;;;;;;;;;;;;"1250";"2014-10-14 11:44:25.275";"NST_correctLoc";"2";"0";"FINISHED";"LEFT";"success";"330";"0";"2014-10-14 11:44:24.024";"1";;;;;;;;;;;;;;;;;;;;;
"kvkay2014";"1994";;"Windows 8";"Rachel's Experiment (D.T.)";"1.0";"2";"1";"1";"2";"1";"1";"2014-10-14 11:36:24.491";"2014-10-14 11:50:32.650";"1";"0";"0";"141";"140";"module.training_block4.exec-6484.GoNoGo4";;;;;;;;;;;;;;;;;;;;;;;;;;;;;;;;;;;;;;;;;;;;;;;;;;;;;;;;;;;"1250";"2014-10-14 11:44:27.789";"NST_correctLoc";"26";"1";"FINISHED";"RIGHT";"success";"345";"0";"2014-10-14 11:44:26.539";"3";;;;;;;;;;;;;;;;;;;;;
"kvkay2014";"1994";;"Windows 8";"Rachel's Experiment (D.T.)";"1.0";"2";"1";"1";"2";"1";"1";"2014-10-14 11:36:24.491";"2014-10-14 11:50:32.650";"1";"0";"0";"142";"141";"module.training_block4.exec-6484.GoNoGo4";;;;;;;;;;;;;;;;;;;;;;;;;;;;;;;;;;;;;;;;;;;;;;;;;;;;;;;;;;;"1250";"2014-10-14 11:44:30.303";"NST_correctLoc";"32";"1";"FINISHED";"RIGHT";"success";"309";"0";"2014-10-14 11:44:29.052";"3";;;;;;;;;;;;;;;;;;;;;
"kvkay2014";"1994";;"Windows 8";"Rachel's Experiment (D.T.)";"1.0";"2";"1";"1";"2";"1";"1";"2014-10-14 11:36:24.491";"2014-10-14 11:50:32.650";"1";"0";"0";"143";"142";"module.training_block4.exec-6484.GoNoGo4";;;;;;;;;;;;;;;;;;;;;;;;;;;;;;;;;;;;;;;;;;;;;;;;;;;;;;;;;;;"1250";"2014-10-14 11:44:32.817";"NST_correctLoc";"28";"0";"FINISHED";"LEFT";"success";"324";"0";"2014-10-14 11:44:31.566";"3";;;;;;;;;;;;;;;;;;;;;
"kvkay2014";"1994";;"Windows 8";"Rachel's Experiment (D.T.)";"1.0";"2";"1";"1";"2";"1";"1";"2014-10-14 11:36:24.491";"2014-10-14 11:50:32.650";"1";"0";"0";"144";"143";"module.training_block4.exec-6484.GoNoGo4";;;;;;;;;;;;;;;;;;;;;;;;;;;;;;;;;;;;;;;;;;;;;;;;;;;;;;;;;;;"1250";"2014-10-14 11:44:35.336";"NST_correctLoc";"18";"1";"FINISHED";"RIGHT";"success";"354";"0";"2014-10-14 11:44:34.085";"3";;;;;;;;;;;;;;;;;;;;;
"kvkay2014";"1994";;"Windows 8";"Rachel's Experiment (D.T.)";"1.0";"2";"1";"1";"2";"1";"1";"2014-10-14 11:36:24.491";"2014-10-14 11:50:32.650";"1";"0";"0";"145";"144";"module.training_block4.exec-6484.GoNoGo4";;;;;;;;;;;;;;;;;;;;;;;;;;;;;;;;;;;;;;;;;;;;;;;;;;;;;;;;;;;"1250";"2014-10-14 11:44:37.856";"NST_correctLoc";"11";"0";"FINISHED";"LEFT";"success";"306";"0";"2014-10-14 11:44:36.605";"2";;;;;;;;;;;;;;;;;;;;;
"kvkay2014";"1994";;"Windows 8";"Rachel's Experiment (D.T.)";"1.0";"2";"1";"1";"2";"1";"1";"2014-10-14 11:36:24.491";"2014-10-14 11:50:32.650";"1";"0";"0";"146";"145";"module.training_block4.exec-6484.GoNoGo4";;;;;;;;;;;;;;;;;;;;;;;;;;;;;;;;;;;;;;;;;;;;;;;;;;;;;;;;;;;"1250";"2014-10-14 11:44:40.370";"NST_correctLoc";"31";"0";"FINISHED";"LEFT";"success";"314";"0";"2014-10-14 11:44:39.119";"3";;;;;;;;;;;;;;;;;;;;;
"kvkay2014";"1994";;"Windows 8";"Rachel's Experiment (D.T.)";"1.0";"2";"1";"1";"2";"1";"1";"2014-10-14 11:36:24.491";"2014-10-14 11:50:32.650";"1";"0";"0";"147";"146";"module.training_block4.exec-6484.GoNoGo4";;;;;;;;;;;;;;;;;;;;;;;;;;;;;;;;;;;;;;;;;;;;;;;;;;;;;;;;;;;"1250";"2014-10-14 11:44:42.885";"NST_correctLoc";"29";"0";"FINISHED";"LEFT";"success";"307";"0";"2014-10-14 11:44:41.634";"3";;;;;;;;;;;;;;;;;;;;;
"kvkay2014";"1994";;"Windows 8";"Rachel's Experiment (D.T.)";"1.0";"2";"1";"1";"2";"1";"1";"2014-10-14 11:36:24.491";"2014-10-14 11:50:32.650";"1";"0";"0";"148";"147";"module.training_block4.exec-6484.GoNoGo4";;;;;;;;;;;;;;;;;;;;;;;;;;;;;;;;;;;;;;;;;;;;;;;;;;;;;;;;;;;"1250";"2014-10-14 11:44:45.404";"NST_correctLoc";"13";"1";"FINISHED";"RIGHT";"success";"346";"0";"2014-10-14 11:44:44.153";"2";;;;;;;;;;;;;;;;;;;;;
"kvkay2014";"1994";;"Windows 8";"Rachel's Experiment (D.T.)";"1.0";"2";"1";"1";"2";"1";"1";"2014-10-14 11:36:24.491";"2014-10-14 11:50:32.650";"1";"0";"0";"149";"148";"module.training_block4.exec-6484.GoNoGo4";;;;;;;;;;;;;;;;;;;;;;;;;;;;;;;;;;;;;;;;;;;;;;;;;;;;;;;;;;;"1250";"2014-10-14 11:44:47.918";"NST_correctLoc";"8";"0";"FINISHED";"LEFT";"success";"344";"0";"2014-10-14 11:44:46.667";"1";;;;;;;;;;;;;;;;;;;;;
"kvkay2014";"1994";;"Windows 8";"Rachel's Experiment (D.T.)";"1.0";"2";"1";"1";"2";"1";"1";"2014-10-14 11:36:24.491";"2014-10-14 11:50:32.650";"1";"0";"0";"150";"149";"module.training_block4.exec-6484.GoNoGo4";;;;;;;;;;;;;;;;;;;;;;;;;;;;;;;;;;;;;;;;;;;;;;;;;;;;;;;;;;;"1250";"2014-10-14 11:44:50.433";"NST_correctLoc";"7";"0";"FINISHED";"LEFT";"success";"321";"0";"2014-10-14 11:44:49.182";"1";;;;;;;;;;;;;;;;;;;;;
"kvkay2014";"1994";;"Windows 8";"Rachel's Experiment (D.T.)";"1.0";"2";"1";"1";"2";"1";"1";"2014-10-14 11:36:24.491";"2014-10-14 11:50:32.650";"1";"0";"0";"151";"150";"module.training_block4.exec-6484.GoNoGo4";;;;;;;;;;;;;;;;;;;;;;;;;;;;;;;;;;;;;;;;;;;;;;;;;;;;;;;;;;;"1250";"2014-10-14 11:44:52.950";"NST_correctLoc";"0";"1";"FINISHED";"RIGHT";"success";"350";"0";"2014-10-14 11:44:51.699";"1";;;;;;;;;;;;;;;;;;;;;
"kvkay2014";"1994";;"Windows 8";"Rachel's Experiment (D.T.)";"1.0";"2";"1";"1";"2";"1";"1";"2014-10-14 11:36:24.491";"2014-10-14 11:50:32.650";"1";"0";"0";"152";"151";"module.training_block4.exec-6484.GoNoGo4";;;;;;;;;;;;;;;;;;;;;;;;;;;;;;;;;;;;;;;;;;;;;;;;;;;;;;;;;;;"1250";"2014-10-14 11:44:55.473";"NST_correctLoc";"23";"1";"FINISHED";"RIGHT";"success";"350";"0";"2014-10-14 11:44:54.222";"3";;;;;;;;;;;;;;;;;;;;;
"kvkay2014";"1994";;"Windows 8";"Rachel's Experiment (D.T.)";"1.0";"2";"1";"1";"2";"1";"1";"2014-10-14 11:36:24.491";"2014-10-14 11:50:32.650";"1";"0";"0";"153";"152";"module.training_block4.exec-6484.GoNoGo4";;;;;;;;;;;;;;;;;;;;;;;;;;;;;;;;;;;;;;;;;;;;;;;;;;;;;;;;;;;"1250";"2014-10-14 11:44:57.987";"NST_correctLoc";"35";"1";"FINISHED";"RIGHT";"success";"377";"0";"2014-10-14 11:44:56.736";"3";;;;;;;;;;;;;;;;;;;;;
"kvkay2014";"1994";;"Windows 8";"Rachel's Experiment (D.T.)";"1.0";"2";"1";"1";"2";"1";"1";"2014-10-14 11:36:24.491";"2014-10-14 11:50:32.650";"1";"0";"0";"154";"153";"module.training_block4.exec-6484.GoNoGo4";;;;;;;;;;;;;;;;;;;;;;;;;;;;;;;;;;;;;;;;;;;;;;;;;;;;;;;;;;;"1251";"2014-10-14 11:45:00.504";"NST_correctLoc";"22";"0";"FINISHED";"LEFT";"success";"326";"0";"2014-10-14 11:44:59.252";"3";;;;;;;;;;;;;;;;;;;;;
"kvkay2014";"1994";;"Windows 8";"Rachel's Experiment (D.T.)";"1.0";"2";"1";"1";"2";"1";"1";"2014-10-14 11:36:24.491";"2014-10-14 11:50:32.650";"1";"0";"0";"155";"154";"module.training_block4.exec-6484.GoNoGo4";;;;;;;;;;;;;;;;;;;;;;;;;;;;;;;;;;;;;;;;;;;;;;;;;;;;;;;;;;;"1250";"2014-10-14 11:45:03.020";"NST_correctLoc";"34";"1";"FINISHED";"RIGHT";"success";"329";"0";"2014-10-14 11:45:01.770";"3";;;;;;;;;;;;;;;;;;;;;
"kvkay2014";"1994";;"Windows 8";"Rachel's Experiment (D.T.)";"1.0";"2";"1";"1";"2";"1";"1";"2014-10-14 11:36:24.491";"2014-10-14 11:50:32.650";"1";"0";"0";"156";"155";"module.training_block4.exec-6484.GoNoGo4";;;;;;;;;;;;;;;;;;;;;;;;;;;;;;;;;;;;;;;;;;;;;;;;;;;;;;;;;;;"1250";"2014-10-14 11:45:05.534";"NST_correctLoc";"20";"1";"FINISHED";"RIGHT";"success";"351";"0";"2014-10-14 11:45:04.283";"3";;;;;;;;;;;;;;;;;;;;;
"kvkay2014";"1994";;"Windows 8";"Rachel's Experiment (D.T.)";"1.0";"2";"1";"1";"2";"1";"1";"2014-10-14 11:36:24.491";"2014-10-14 11:50:32.650";"1";"0";"0";"157";"156";"module.training_block4.exec-6484.GoNoGo4";;;;;;;;;;;;;;;;;;;;;;;;;;;;;;;;;;;;;;;;;;;;;;;;;;;;;;;;;;;"1250";"2014-10-14 11:45:08.048";"NST_correctLoc";"17";"0";"FINISHED";"LEFT";"success";"329";"0";"2014-10-14 11:45:06.797";"2";;;;;;;;;;;;;;;;;;;;;
"kvkay2014";"1994";;"Windows 8";"Rachel's Experiment (D.T.)";"1.0";"2";"1";"1";"2";"1";"1";"2014-10-14 11:36:24.491";"2014-10-14 11:50:32.650";"1";"0";"0";"158";"157";"module.training_block4.exec-6484.GoNoGo4";;;;;;;;;;;;;;;;;;;;;;;;;;;;;;;;;;;;;;;;;;;;;;;;;;;;;;;;;;;"1250";"2014-10-14 11:45:10.563";"NST_correctLoc";"6";"0";"FINISHED";"LEFT";"success";"342";"0";"2014-10-14 11:45:09.312";"1";;;;;;;;;;;;;;;;;;;;;
"kvkay2014";"1994";;"Windows 8";"Rachel's Experiment (D.T.)";"1.0";"2";"1";"1";"2";"1";"1";"2014-10-14 11:36:24.491";"2014-10-14 11:50:32.650";"1";"0";"0";"159";"158";"module.training_block4.exec-6484.GoNoGo4";;;;;;;;;;;;;;;;;;;;;;;;;;;;;;;;;;;;;;;;;;;;;;;;;;;;;;;;;;;"1250";"2014-10-14 11:45:13.077";"NST_correctLoc";"33";"1";"FINISHED";"RIGHT";"success";"362";"0";"2014-10-14 11:45:11.826";"3";;;;;;;;;;;;;;;;;;;;;
"kvkay2014";"1994";;"Windows 8";"Rachel's Experiment (D.T.)";"1.0";"2";"1";"1";"2";"1";"1";"2014-10-14 11:36:24.491";"2014-10-14 11:50:32.650";"1";"0";"0";"160";"159";"module.devaluation_practice.exec-5991.devalPractice";;;;;;;;;;;;"18551";"2014-10-14 11:46:02.808";"0";"7";"7";"6";"4550";"3942";"7020";"2014-10-14 11:45:44.257";;;;;;;;;;;;;;;;;;;;;;;;;;;;;;;;;;;;;;;;;;;;;;;;;;;;;;;;;;;;;;;;;;;;;;
"kvkay2014";"1994";;"Windows 8";"Rachel's Experiment (D.T.)";"1.0";"2";"1";"1";"2";"1";"1";"2014-10-14 11:36:24.491";"2014-10-14 11:50:32.650";"1";"0";"0";"161";"160";"module.devaluation_practice.exec-5991.devalPractice";;;;;;;;;;;;"11503";"2014-10-14 11:46:14.327";"1";"3";"4";"2";"2730";"3171";"2586";"2014-10-14 11:46:02.824";;;;;;;;;;;;;;;;;;;;;;;;;;;;;;;;;;;;;;;;;;;;;;;;;;;;;;;;;;;;;;;;;;;;;;
"kvkay2014";"1994";;"Windows 8";"Rachel's Experiment (D.T.)";"1.0";"2";"1";"1";"2";"1";"1";"2014-10-14 11:36:24.491";"2014-10-14 11:50:32.650";"1";"0";"0";"162";"161";"module.devaluation_practice.exec-5991.devalPractice";;;;;;;;;;;;"12255";"2014-10-14 11:46:26.604";"2";"8";"7";"9";"2771";"3589";"2873";"2014-10-14 11:46:14.348";;;;;;;;;;;;;;;;;;;;;;;;;;;;;;;;;;;;;;;;;;;;;;;;;;;;;;;;;;;;;;;;;;;;;;
"kvkay2014";"1994";;"Windows 8";"Rachel's Experiment (D.T.)";"1.0";"2";"1";"1";"2";"1";"1";"2014-10-14 11:36:24.491";"2014-10-14 11:50:32.650";"1";"0";"0";"163";"162";"module.devaluation_practice.exec-5991.devalPractice";;;;;;;;;;;;"9200";"2014-10-14 11:46:35.818";"3";"7";"9";"8";"1796";"2397";"1991";"2014-10-14 11:46:26.619";;;;;;;;;;;;;;;;;;;;;;;;;;;;;;;;;;;;;;;;;;;;;;;;;;;;;;;;;;;;;;;;;;;;;;
"kvkay2014";"1994";;"Windows 8";"Rachel's Experiment (D.T.)";"1.0";"2";"1";"1";"2";"1";"1";"2014-10-14 11:36:24.491";"2014-10-14 11:50:32.650";"1";"0";"0";"164";"163";"module.devaluation_block1.exec-2175.deval1";"7926";"2014-10-14 11:46:51.396";"3";"7";"8";"8";"1689";"1731";"1477";"2014-10-14 11:46:43.470";"1";;;;;;;;;;;;;;;;;;;;;;;;;;;;;;;;;;;;;;;;;;;;;;;;;;;;;;;;;;;;;;;;;;;;;;;;;;;;;;;;
"kvkay2014";"1994";;"Windows 8";"Rachel's Experiment (D.T.)";"1.0";"2";"1";"1";"2";"1";"1";"2014-10-14 11:36:24.491";"2014-10-14 11:50:32.650";"1";"0";"0";"165";"164";"module.devaluation_block1.exec-2175.deval1";"8200";"2014-10-14 11:46:59.613";"22";"4";"2";"3";"1623";"1947";"1611";"2014-10-14 11:46:51.412";"3";;;;;;;;;;;;;;;;;;;;;;;;;;;;;;;;;;;;;;;;;;;;;;;;;;;;;;;;;;;;;;;;;;;;;;;;;;;;;;;;
"kvkay2014";"1994";;"Windows 8";"Rachel's Experiment (D.T.)";"1.0";"2";"1";"1";"2";"1";"1";"2014-10-14 11:36:24.491";"2014-10-14 11:50:32.650";"1";"0";"0";"166";"165";"module.devaluation_block1.exec-2175.deval1";"8135";"2014-10-14 11:47:07.769";"7";"2";"5";"4";"2265";"1171";"1681";"2014-10-14 11:46:59.633";"1";;;;;;;;;;;;;;;;;;;;;;;;;;;;;;;;;;;;;;;;;;;;;;;;;;;;;;;;;;;;;;;;;;;;;;;;;;;;;;;;
"kvkay2014";"1994";;"Windows 8";"Rachel's Experiment (D.T.)";"1.0";"2";"1";"1";"2";"1";"1";"2014-10-14 11:36:24.491";"2014-10-14 11:50:32.650";"1";"0";"0";"167";"166";"module.devaluation_block1.exec-2175.deval1";"8603";"2014-10-14 11:47:16.395";"24";"5";"5";"6";"2231";"2163";"1191";"2014-10-14 11:47:07.792";"3";;;;;;;;;;;;;;;;;;;;;;;;;;;;;;;;;;;;;;;;;;;;;;;;;;;;;;;;;;;;;;;;;;;;;;;;;;;;;;;;
"kvkay2014";"1994";;"Windows 8";"Rachel's Experiment (D.T.)";"1.0";"2";"1";"1";"2";"1";"1";"2014-10-14 11:36:24.491";"2014-10-14 11:50:32.650";"1";"0";"0";"168";"167";"module.devaluation_block1.exec-2175.deval1";"11345";"2014-10-14 11:47:27.761";"13";"4";"6";"6";"2543";"3318";"2465";"2014-10-14 11:47:16.416";"2";;;;;;;;;;;;;;;;;;;;;;;;;;;;;;;;;;;;;;;;;;;;;;;;;;;;;;;;;;;;;;;;;;;;;;;;;;;;;;;;
"kvkay2014";"1994";;"Windows 8";"Rachel's Experiment (D.T.)";"1.0";"2";"1";"1";"2";"1";"1";"2014-10-14 11:36:24.491";"2014-10-14 11:50:32.650";"1";"0";"0";"169";"168";"module.devaluation_block1.exec-2175.deval1";"10595";"2014-10-14 11:47:38.373";"20";"6";"5";"6";"3823";"993";"2760";"2014-10-14 11:47:27.777";"3";;;;;;;;;;;;;;;;;;;;;;;;;;;;;;;;;;;;;;;;;;;;;;;;;;;;;;;;;;;;;;;;;;;;;;;;;;;;;;;;
"kvkay2014";"1994";;"Windows 8";"Rachel's Experiment (D.T.)";"1.0";"2";"1";"1";"2";"1";"1";"2014-10-14 11:36:24.491";"2014-10-14 11:50:32.650";"1";"0";"0";"170";"169";"module.devaluation_block1.exec-2175.deval1";"10226";"2014-10-14 11:47:48.623";"15";"2";"1";"2";"3821";"2058";"1326";"2014-10-14 11:47:38.397";"2";;;;;;;;;;;;;;;;;;;;;;;;;;;;;;;;;;;;;;;;;;;;;;;;;;;;;;;;;;;;;;;;;;;;;;;;;;;;;;;;
"kvkay2014";"1994";;"Windows 8";"Rachel's Experiment (D.T.)";"1.0";"2";"1";"1";"2";"1";"1";"2014-10-14 11:36:24.491";"2014-10-14 11:50:32.650";"1";"0";"0";"171";"170";"module.devaluation_block1.exec-2175.deval1";"9256";"2014-10-14 11:47:57.895";"18";"7";"8";"8";"1602";"2811";"1825";"2014-10-14 11:47:48.637";"3";;;;;;;;;;;;;;;;;;;;;;;;;;;;;;;;;;;;;;;;;;;;;;;;;;;;;;;;;;;;;;;;;;;;;;;;;;;;;;;;
"kvkay2014";"1994";;"Windows 8";"Rachel's Experiment (D.T.)";"1.0";"2";"1";"1";"2";"1";"1";"2014-10-14 11:36:24.491";"2014-10-14 11:50:32.650";"1";"0";"0";"172";"171";"module.devaluation_block1.exec-2175.deval1";"8564";"2014-10-14 11:48:06.474";"9";"3";"6";"2";"1074";"1216";"3257";"2014-10-14 11:47:57.911";"2";;;;;;;;;;;;;;;;;;;;;;;;;;;;;;;;;;;;;;;;;;;;;;;;;;;;;;;;;;;;;;;;;;;;;;;;;;;;;;;;
"kvkay2014";"1994";;"Windows 8";"Rachel's Experiment (D.T.)";"1.0";"2";"1";"1";"2";"1";"1";"2014-10-14 11:36:24.491";"2014-10-14 11:50:32.650";"1";"0";"0";"173";"172";"module.devaluation_block1.exec-2175.deval1";"8852";"2014-10-14 11:48:15.341";"8";"3";"4";"5";"2199";"1242";"2394";"2014-10-14 11:48:06.488";"1";;;;;;;;;;;;;;;;;;;;;;;;;;;;;;;;;;;;;;;;;;;;;;;;;;;;;;;;;;;;;;;;;;;;;;;;;;;;;;;;
"kvkay2014";"1994";;"Windows 8";"Rachel's Experiment (D.T.)";"1.0";"2";"1";"1";"2";"1";"1";"2014-10-14 11:36:24.491";"2014-10-14 11:50:32.650";"1";"0";"0";"174";"173";"module.devaluation_block1.exec-2175.deval1";"8900";"2014-10-14 11:48:24.258";"6";"4";"5";"3";"3535";"1295";"1050";"2014-10-14 11:48:15.358";"1";;;;;;;;;;;;;;;;;;;;;;;;;;;;;;;;;;;;;;;;;;;;;;;;;;;;;;;;;;;;;;;;;;;;;;;;;;;;;;;;
"kvkay2014";"1994";;"Windows 8";"Rachel's Experiment (D.T.)";"1.0";"2";"1";"1";"2";"1";"1";"2014-10-14 11:36:24.491";"2014-10-14 11:50:32.650";"1";"0";"0";"175";"174";"module.devaluation_block1.exec-2175.deval1";"13622";"2014-10-14 11:48:37.905";"25";"7";"9";"8";"3682";"2899";"4024";"2014-10-14 11:48:24.282";"3";;;;;;;;;;;;;;;;;;;;;;;;;;;;;;;;;;;;;;;;;;;;;;;;;;;;;;;;;;;;;;;;;;;;;;;;;;;;;;;;
"kvkay2014";"1994";;"Windows 8";"Rachel's Experiment (D.T.)";"1.0";"2";"1";"1";"2";"1";"1";"2014-10-14 11:36:24.491";"2014-10-14 11:50:32.650";"1";"0";"0";"176";"175";"module.devaluation_block1.exec-2175.deval1";"10786";"2014-10-14 11:48:48.708";"19";"9";"9";"9";"2612";"1359";"3797";"2014-10-14 11:48:37.922";"3";;;;;;;;;;;;;;;;;;;;;;;;;;;;;;;;;;;;;;;;;;;;;;;;;;;;;;;;;;;;;;;;;;;;;;;;;;;;;;;;
"kvkay2014";"1994";;"Windows 8";"Rachel's Experiment (D.T.)";"1.0";"2";"1";"1";"2";"1";"1";"2014-10-14 11:36:24.491";"2014-10-14 11:50:32.650";"1";"0";"0";"177";"176";"module.devaluation_block1.exec-2175.deval1";"6691";"2014-10-14 11:48:55.417";"17";"4";"2";"4";"1556";"1018";"1100";"2014-10-14 11:48:48.726";"2";;;;;;;;;;;;;;;;;;;;;;;;;;;;;;;;;;;;;;;;;;;;;;;;;;;;;;;;;;;;;;;;;;;;;;;;;;;;;;;;
"kvkay2014";"1994";;"Windows 8";"Rachel's Experiment (D.T.)";"1.0";"2";"1";"1";"2";"1";"1";"2014-10-14 11:36:24.491";"2014-10-14 11:50:32.650";"1";"0";"0";"178";"177";"module.devaluation_block1.exec-2175.deval1";"6786";"2014-10-14 11:49:02.223";"2";"7";"7";"8";"1127";"971";"1671";"2014-10-14 11:48:55.437";"1";;;;;;;;;;;;;;;;;;;;;;;;;;;;;;;;;;;;;;;;;;;;;;;;;;;;;;;;;;;;;;;;;;;;;;;;;;;;;;;;
"kvkay2014";"1994";;"Windows 8";"Rachel's Experiment (D.T.)";"1.0";"2";"1";"1";"2";"1";"1";"2014-10-14 11:36:24.491";"2014-10-14 11:50:32.650";"1";"0";"0";"179";"178";"module.devaluation_block1.exec-2175.deval1";"7715";"2014-10-14 11:49:09.962";"4";"9";"9";"8";"1854";"1480";"1363";"2014-10-14 11:49:02.246";"1";;;;;;;;;;;;;;;;;;;;;;;;;;;;;;;;;;;;;;;;;;;;;;;;;;;;;;;;;;;;;;;;;;;;;;;;;;;;;;;;
"kvkay2014";"1994";;"Windows 8";"Rachel's Experiment (D.T.)";"1.0";"2";"1";"1";"2";"1";"1";"2014-10-14 11:36:24.491";"2014-10-14 11:50:32.650";"1";"0";"0";"180";"179";"module.devaluation_block1.exec-2175.deval1";"6538";"2014-10-14 11:49:16.515";"26";"8";"8";"8";"1296";"1022";"1204";"2014-10-14 11:49:09.977";"3";;;;;;;;;;;;;;;;;;;;;;;;;;;;;;;;;;;;;;;;;;;;;;;;;;;;;;;;;;;;;;;;;;;;;;;;;;;;;;;;
"kvkay2014";"1994";;"Windows 8";"Rachel's Experiment (D.T.)";"1.0";"2";"1";"1";"2";"1";"1";"2014-10-14 11:36:24.491";"2014-10-14 11:50:32.650";"1";"0";"0";"181";"180";"module.devaluation_block1.exec-2175.deval1";"5952";"2014-10-14 11:49:22.487";"0";"6";"7";"7";"885";"1040";"1005";"2014-10-14 11:49:16.534";"1";;;;;;;;;;;;;;;;;;;;;;;;;;;;;;;;;;;;;;;;;;;;;;;;;;;;;;;;;;;;;;;;;;;;;;;;;;;;;;;;
"kvkay2014";"1994";;"Windows 8";"Rachel's Experiment (D.T.)";"1.0";"2";"1";"1";"2";"1";"1";"2014-10-14 11:36:24.491";"2014-10-14 11:50:32.650";"1";"0";"0";"182";"181";"module.devaluation_block1.exec-2175.deval1";"5813";"2014-10-14 11:49:28.324";"16";"3";"3";"3";"911";"935";"950";"2014-10-14 11:49:22.511";"2";;;;;;;;;;;;;;;;;;;;;;;;;;;;;;;;;;;;;;;;;;;;;;;;;;;;;;;;;;;;;;;;;;;;;;;;;;;;;;;;
"kvkay2014";"1994";;"Windows 8";"Rachel's Experiment (D.T.)";"1.0";"2";"1";"1";"2";"1";"1";"2014-10-14 11:36:24.491";"2014-10-14 11:50:32.650";"1";"0";"0";"183";"182";"module.devaluation_block1.exec-2175.deval1";"5825";"2014-10-14 11:49:34.164";"14";"7";"7";"7";"1206";"753";"849";"2014-10-14 11:49:28.338";"2";;;;;;;;;;;;;;;;;;;;;;;;;;;;;;;;;;;;;;;;;;;;;;;;;;;;;;;;;;;;;;;;;;;;;;;;;;;;;;;;
"kvkay2014";"1994";;"Windows 8";"Rachel's Experiment (D.T.)";"1.0";"2";"1";"1";"2";"1";"1";"2014-10-14 11:36:24.491";"2014-10-14 11:50:32.650";"1";"0";"0";"184";"183";"module.devaluation_block1.exec-2175.deval1";"5746";"2014-10-14 11:49:39.927";"10";"3";"4";"3";"900";"946";"883";"2014-10-14 11:49:34.181";"2";;;;;;;;;;;;;;;;;;;;;;;;;;;;;;;;;;;;;;;;;;;;;;;;;;;;;;;;;;;;;;;;;;;;;;;;;;;;;;;;
"kvkay2014";"1994";;"Windows 8";"Rachel's Experiment (D.T.)";"1.0";"2";"1";"1";"2";"1";"1";"2014-10-14 11:36:24.491";"2014-10-14 11:50:32.650";"1";"0";"0";"185";"184";"module.devaluation_block1.exec-2175.deval1";"7760";"2014-10-14 11:49:47.701";"1";"8";"8";"7";"1966";"1805";"970";"2014-10-14 11:49:39.942";"1";;;;;;;;;;;;;;;;;;;;;;;;;;;;;;;;;;;;;;;;;;;;;;;;;;;;;;;;;;;;;;;;;;;;;;;;;;;;;;;;
"kvkay2014";"1994";;"Windows 8";"Rachel's Experiment (D.T.)";"1.0";"2";"1";"1";"2";"1";"1";"2014-10-14 11:36:24.491";"2014-10-14 11:50:32.650";"1";"0";"0";"186";"185";"module.devaluation_block1.exec-2175.deval1";"8215";"2014-10-14 11:49:55.936";"21";"9";"7";"7";"1636";"1928";"1630";"2014-10-14 11:49:47.720";"3";;;;;;;;;;;;;;;;;;;;;;;;;;;;;;;;;;;;;;;;;;;;;;;;;;;;;;;;;;;;;;;;;;;;;;;;;;;;;;;;
"kvkay2014";"1994";;"Windows 8";"Rachel's Experiment (D.T.)";"1.0";"2";"1";"1";"2";"1";"1";"2014-10-14 11:36:24.491";"2014-10-14 11:50:32.650";"1";"0";"0";"187";"186";"module.devaluation_block1.exec-2175.deval1";"7299";"2014-10-14 11:50:03.259";"5";"9";"9";"8";"1718";"1371";"1190";"2014-10-14 11:49:55.960";"1";;;;;;;;;;;;;;;;;;;;;;;;;;;;;;;;;;;;;;;;;;;;;;;;;;;;;;;;;;;;;;;;;;;;;;;;;;;;;;;;
"kvkay2014";"1994";;"Windows 8";"Rachel's Experiment (D.T.)";"1.0";"2";"1";"1";"2";"1";"1";"2014-10-14 11:36:24.491";"2014-10-14 11:50:32.650";"1";"0";"0";"188";"187";"module.devaluation_block1.exec-2175.deval1";"8980";"2014-10-14 11:50:12.254";"11";"6";"4";"3";"649";"2090";"3224";"2014-10-14 11:50:03.273";"2";;;;;;;;;;;;;;;;;;;;;;;;;;;;;;;;;;;;;;;;;;;;;;;;;;;;;;;;;;;;;;;;;;;;;;;;;;;;;;;;
"kvkay2014";"1994";;"Windows 8";"Rachel's Experiment (D.T.)";"1.0";"2";"1";"1";"2";"1";"1";"2014-10-14 11:36:24.491";"2014-10-14 11:50:32.650";"1";"0";"0";"189";"188";"module.devaluation_block1.exec-2175.deval1";"7965";"2014-10-14 11:50:20.243";"23";"9";"4";"6";"1843";"1303";"1803";"2014-10-14 11:50:12.278";"3";;;;;;;;;;;;;;;;;;;;;;;;;;;;;;;;;;;;;;;;;;;;;;;;;;;;;;;;;;;;;;;;;;;;;;;;;;;;;;;;
"kvkay2014";"1994";;"Windows 8";"Rachel's Experiment (D.T.)";"1.0";"2";"1";"1";"2";"1";"1";"2014-10-14 11:36:24.491";"2014-10-14 11:50:32.650";"1";"0";"0";"190";"189";"module.devaluation_block1.exec-2175.deval1";"9850";"2014-10-14 11:50:30.110";"12";"4";"7";"6";"679";"2484";"3667";"2014-10-14 11:50:20.260";"2";;;;;;;;;;;;;;;;;;;;;;;;;;;;;;;;;;;;;;;;;;;;;;;;;;;;;;;;;;;;;;;;;;;;;;;;;;;;;;;;
