"user.name";"user.yearOfBirth";"user.sex";"user.osName";"module.name";"module.version";"module.online.subject.code";"module.online.study.id";"module.online.module.nr";"module.online.group.nr";"session.id";"session.index";"session.startTime";"session.endTime";"session.completed";"session.node-4312.DevalQorder";"session.node-5463.conditionType";"session.node-6045.conditionType";"session.node-7832.DevalQorder";"trial.id";"trial.index";"trial.name";"trial.deval1.durationTime";"trial.deval1.endTime";"trial.deval1.icon";"trial.deval1.Resp_Attractive";"trial.deval1.Resp_Eat";"trial.deval1.Resp_Taste";"trial.deval1.RT_Attractive";"trial.deval1.RT_Eat";"trial.deval1.RT_Taste";"trial.deval1.startTime";"trial.deval1.stimulus type";"trial.devalPractice.durationTime";"trial.devalPractice.endTime";"trial.devalPractice.icon";"trial.devalPractice.Resp_Attractive";"trial.devalPractice.Resp_Eat";"trial.devalPractice.Resp_Taste";"trial.devalPractice.RT_Attractive";"trial.devalPractice.RT_Eat";"trial.devalPractice.RT_Taste";"trial.devalPractice.startTime";"trial.devalPractice.stimulus type";"trial.GoNoGo1.durationTime";"trial.GoNoGo1.endTime";"trial.GoNoGo1.Error Type";"trial.GoNoGo1.icon";"trial.GoNoGo1.location";"trial.GoNoGo1.outcome";"trial.GoNoGo1.response";"trial.GoNoGo1.result";"trial.GoNoGo1.RT";"trial.GoNoGo1.signal";"trial.GoNoGo1.startTime";"trial.GoNoGo1.stimulus type";"trial.GoNoGo2.durationTime";"trial.GoNoGo2.endTime";"trial.GoNoGo2.Error Type";"trial.GoNoGo2.icon";"trial.GoNoGo2.location";"trial.GoNoGo2.outcome";"trial.GoNoGo2.response";"trial.GoNoGo2.result";"trial.GoNoGo2.RT";"trial.GoNoGo2.signal";"trial.GoNoGo2.startTime";"trial.GoNoGo2.stimulus type";"trial.GoNoGo3.durationTime";"trial.GoNoGo3.endTime";"trial.GoNoGo3.Error Type";"trial.GoNoGo3.icon";"trial.GoNoGo3.location";"trial.GoNoGo3.outcome";"trial.GoNoGo3.response";"trial.GoNoGo3.result";"trial.GoNoGo3.RT";"trial.GoNoGo3.signal";"trial.GoNoGo3.startTime";"trial.GoNoGo3.stimulus type";"trial.GoNoGo4.durationTime";"trial.GoNoGo4.endTime";"trial.GoNoGo4.Error Type";"trial.GoNoGo4.icon";"trial.GoNoGo4.location";"trial.GoNoGo4.outcome";"trial.GoNoGo4.response";"trial.GoNoGo4.result";"trial.GoNoGo4.RT";"trial.GoNoGo4.signal";"trial.GoNoGo4.startTime";"trial.GoNoGo4.stimulus type";"trial.GoNoGo_Practice.durationTime";"trial.GoNoGo_Practice.endTime";"trial.GoNoGo_Practice.icon";"trial.GoNoGo_Practice.location";"trial.GoNoGo_Practice.outcome";"trial.GoNoGo_Practice.response";"trial.GoNoGo_Practice.result";"trial.GoNoGo_Practice.RT";"trial.GoNoGo_Practice.signal";"trial.GoNoGo_Practice.startTime";"trial.GoNoGo_Practice.stimulus type";"trial.GoNoGo_Tutorial.durationTime";"trial.GoNoGo_Tutorial.endTime";"trial.GoNoGo_Tutorial.icon";"trial.GoNoGo_Tutorial.location";"trial.GoNoGo_Tutorial.outcome";"trial.GoNoGo_Tutorial.response";"trial.GoNoGo_Tutorial.result";"trial.GoNoGo_Tutorial.RT";"trial.GoNoGo_Tutorial.signal";"trial.GoNoGo_Tutorial.startTime"
"shuan01";"1988";;"Windows 8";"Rachel's Experiment (D.T.)";"1.0";"2";"1";"1";"2";"2";"2";"2014-10-06 00:15:38.883";"2014-10-06 00:30:44.833";"1";;"1";;"1";"1";"0";"module.GoNoGotutorial.exec-9218.GoNoGo_Tutorial";;;;;;;;;;;;;;;;;;;;;;;;;;;;;;;;;;;;;;;;;;;;;;;;;;;;;;;;;;;;;;;;;;;;;;;;;;;;;;;;;;"4001";"2014-10-06 00:16:28.415";"leftResponse";"0";"FINISHED";"LEFT";"success";"3564";"0";"2014-10-06 00:16:24.413"
"shuan01";"1988";;"Windows 8";"Rachel's Experiment (D.T.)";"1.0";"2";"1";"1";"2";"2";"2";"2014-10-06 00:15:38.883";"2014-10-06 00:30:44.833";"1";;"1";;"1";"2";"1";"module.GoNoGotutorial.exec-9218.GoNoGo_Tutorial";;;;;;;;;;;;;;;;;;;;;;;;;;;;;;;;;;;;;;;;;;;;;;;;;;;;;;;;;;;;;;;;;;;;;;;;;;;;;;;;;;"3999";"2014-10-06 00:16:33.777";"rightResponse";"1";"FINISHED";"RIGHT";"success";"1917";"0";"2014-10-06 00:16:29.777"
"shuan01";"1988";;"Windows 8";"Rachel's Experiment (D.T.)";"1.0";"2";"1";"1";"2";"2";"2";"2014-10-06 00:15:38.883";"2014-10-06 00:30:44.833";"1";;"1";;"1";"3";"2";"module.GoNoGotutorial.exec-9218.GoNoGo_Tutorial";;;;;;;;;;;;;;;;;;;;;;;;;;;;;;;;;;;;;;;;;;;;;;;;;;;;;;;;;;;;;;;;;;;;;;;;;;;;;;;;;;"3999";"2014-10-06 00:16:39.122";"signalResponse";"0";"FINISHED";"NONE";"success";"0";"1";"2014-10-06 00:16:35.122"
"shuan01";"1988";;"Windows 8";"Rachel's Experiment (D.T.)";"1.0";"2";"1";"1";"2";"2";"2";"2014-10-06 00:15:38.883";"2014-10-06 00:30:44.833";"1";;"1";;"1";"4";"3";"module.GoNoGopractice.exec-1375.GoNoGo_Practice";;;;;;;;;;;;;;;;;;;;;;;;;;;;;;;;;;;;;;;;;;;;;;;;;;;;;;;;;;;;;;;;;;;;;;;"1968";"2014-10-06 00:16:50.673";"18";"0";"FINISHED";"LEFT";"success";"843";"0";"2014-10-06 00:16:48.705";"3";;;;;;;;;;
"shuan01";"1988";;"Windows 8";"Rachel's Experiment (D.T.)";"1.0";"2";"1";"1";"2";"2";"2";"2014-10-06 00:15:38.883";"2014-10-06 00:30:44.833";"1";;"1";;"1";"5";"4";"module.GoNoGopractice.exec-1375.GoNoGo_Practice";;;;;;;;;;;;;;;;;;;;;;;;;;;;;;;;;;;;;;;;;;;;;;;;;;;;;;;;;;;;;;;;;;;;;;;"1955";"2014-10-06 00:16:53.978";"21";"1";"FINISHED";"RIGHT";"success";"578";"0";"2014-10-06 00:16:52.023";"3";;;;;;;;;;
"shuan01";"1988";;"Windows 8";"Rachel's Experiment (D.T.)";"1.0";"2";"1";"1";"2";"2";"2";"2014-10-06 00:15:38.883";"2014-10-06 00:30:44.833";"1";;"1";;"1";"6";"5";"module.GoNoGopractice.exec-1375.GoNoGo_Practice";;;;;;;;;;;;;;;;;;;;;;;;;;;;;;;;;;;;;;;;;;;;;;;;;;;;;;;;;;;;;;;;;;;;;;;"1963";"2014-10-06 00:16:57.294";"14";"1";"FINISHED";"RIGHT";"failure";"633";"1";"2014-10-06 00:16:55.330";"2";;;;;;;;;;
"shuan01";"1988";;"Windows 8";"Rachel's Experiment (D.T.)";"1.0";"2";"1";"1";"2";"2";"2";"2014-10-06 00:15:38.883";"2014-10-06 00:30:44.833";"1";;"1";;"1";"7";"6";"module.GoNoGopractice.exec-1375.GoNoGo_Practice";;;;;;;;;;;;;;;;;;;;;;;;;;;;;;;;;;;;;;;;;;;;;;;;;;;;;;;;;;;;;;;;;;;;;;;"1954";"2014-10-06 00:17:00.593";"26";"0";"FINISHED";"LEFT";"success";"829";"0";"2014-10-06 00:16:58.638";"3";;;;;;;;;;
"shuan01";"1988";;"Windows 8";"Rachel's Experiment (D.T.)";"1.0";"2";"1";"1";"2";"2";"2";"2014-10-06 00:15:38.883";"2014-10-06 00:30:44.833";"1";;"1";;"1";"8";"7";"module.GoNoGopractice.exec-1375.GoNoGo_Practice";;;;;;;;;;;;;;;;;;;;;;;;;;;;;;;;;;;;;;;;;;;;;;;;;;;;;;;;;;;;;;;;;;;;;;;"1956";"2014-10-06 00:17:03.895";"2";"0";"FINISHED";"LEFT";"success";"615";"0";"2014-10-06 00:17:01.939";"1";;;;;;;;;;
"shuan01";"1988";;"Windows 8";"Rachel's Experiment (D.T.)";"1.0";"2";"1";"1";"2";"2";"2";"2014-10-06 00:15:38.883";"2014-10-06 00:30:44.833";"1";;"1";;"1";"9";"8";"module.GoNoGopractice.exec-1375.GoNoGo_Practice";;;;;;;;;;;;;;;;;;;;;;;;;;;;;;;;;;;;;;;;;;;;;;;;;;;;;;;;;;;;;;;;;;;;;;;"1964";"2014-10-06 00:17:07.203";"30";"0";"FINISHED";"NONE";"success";"0";"1";"2014-10-06 00:17:05.238";"3";;;;;;;;;;
"shuan01";"1988";;"Windows 8";"Rachel's Experiment (D.T.)";"1.0";"2";"1";"1";"2";"2";"2";"2014-10-06 00:15:38.883";"2014-10-06 00:30:44.833";"1";;"1";;"1";"10";"9";"module.GoNoGopractice.exec-1375.GoNoGo_Practice";;;;;;;;;;;;;;;;;;;;;;;;;;;;;;;;;;;;;;;;;;;;;;;;;;;;;;;;;;;;;;;;;;;;;;;"1953";"2014-10-06 00:17:10.500";"6";"1";"FINISHED";"NONE";"success";"0";"1";"2014-10-06 00:17:08.545";"1";;;;;;;;;;
"shuan01";"1988";;"Windows 8";"Rachel's Experiment (D.T.)";"1.0";"2";"1";"1";"2";"2";"2";"2014-10-06 00:15:38.883";"2014-10-06 00:30:44.833";"1";;"1";;"1";"11";"10";"module.GoNoGopractice.exec-1375.GoNoGo_Practice";;;;;;;;;;;;;;;;;;;;;;;;;;;;;;;;;;;;;;;;;;;;;;;;;;;;;;;;;;;;;;;;;;;;;;;"1953";"2014-10-06 00:17:13.799";"34";"0";"FINISHED";"LEFT";"success";"811";"0";"2014-10-06 00:17:11.845";"3";;;;;;;;;;
"shuan01";"1988";;"Windows 8";"Rachel's Experiment (D.T.)";"1.0";"2";"1";"1";"2";"2";"2";"2014-10-06 00:15:38.883";"2014-10-06 00:30:44.833";"1";;"1";;"1";"12";"11";"module.GoNoGopractice.exec-1375.GoNoGo_Practice";;;;;;;;;;;;;;;;;;;;;;;;;;;;;;;;;;;;;;;;;;;;;;;;;;;;;;;;;;;;;;;;;;;;;;;"1954";"2014-10-06 00:17:17.095";"23";"1";"FINISHED";"RIGHT";"success";"362";"0";"2014-10-06 00:17:15.140";"3";;;;;;;;;;
"shuan01";"1988";;"Windows 8";"Rachel's Experiment (D.T.)";"1.0";"2";"1";"1";"2";"2";"2";"2014-10-06 00:15:38.883";"2014-10-06 00:30:44.833";"1";;"1";;"1";"13";"12";"module.GoNoGopractice.exec-1375.GoNoGo_Practice";;;;;;;;;;;;;;;;;;;;;;;;;;;;;;;;;;;;;;;;;;;;;;;;;;;;;;;;;;;;;;;;;;;;;;;"1955";"2014-10-06 00:17:20.390";"13";"0";"FINISHED";"NONE";"success";"0";"1";"2014-10-06 00:17:18.434";"2";;;;;;;;;;
"shuan01";"1988";;"Windows 8";"Rachel's Experiment (D.T.)";"1.0";"2";"1";"1";"2";"2";"2";"2014-10-06 00:15:38.883";"2014-10-06 00:30:44.833";"1";;"1";;"1";"14";"13";"module.GoNoGopractice.exec-1375.GoNoGo_Practice";;;;;;;;;;;;;;;;;;;;;;;;;;;;;;;;;;;;;;;;;;;;;;;;;;;;;;;;;;;;;;;;;;;;;;;"1954";"2014-10-06 00:17:23.683";"3";"1";"FINISHED";"RIGHT";"success";"658";"0";"2014-10-06 00:17:21.728";"1";;;;;;;;;;
"shuan01";"1988";;"Windows 8";"Rachel's Experiment (D.T.)";"1.0";"2";"1";"1";"2";"2";"2";"2014-10-06 00:15:38.883";"2014-10-06 00:30:44.833";"1";;"1";;"1";"15";"14";"module.GoNoGopractice.exec-1375.GoNoGo_Practice";;;;;;;;;;;;;;;;;;;;;;;;;;;;;;;;;;;;;;;;;;;;;;;;;;;;;;;;;;;;;;;;;;;;;;;"1953";"2014-10-06 00:17:26.991";"27";"1";"FINISHED";"RIGHT";"failure";"598";"1";"2014-10-06 00:17:25.037";"3";;;;;;;;;;
"shuan01";"1988";;"Windows 8";"Rachel's Experiment (D.T.)";"1.0";"2";"1";"1";"2";"2";"2";"2014-10-06 00:15:38.883";"2014-10-06 00:30:44.833";"1";;"1";;"1";"16";"15";"module.training_block1.exec-8427.GoNoGo1";;;;;;;;;;;;;;;;;;;;;;;"1253";"2014-10-06 00:17:43.741";"NST_correctLoc";"27";"0";"FINISHED";"LEFT";"success";"519";"0";"2014-10-06 00:17:42.488";"3";;;;;;;;;;;;;;;;;;;;;;;;;;;;;;;;;;;;;;;;;;;;;;;;;;;;;;;;;
"shuan01";"1988";;"Windows 8";"Rachel's Experiment (D.T.)";"1.0";"2";"1";"1";"2";"2";"2";"2014-10-06 00:15:38.883";"2014-10-06 00:30:44.833";"1";;"1";;"1";"17";"16";"module.training_block1.exec-8427.GoNoGo1";;;;;;;;;;;;;;;;;;;;;;;"1250";"2014-10-06 00:17:46.335";"ST_correctStop";"20";"1";"FINISHED";"NONE";"success";"0";"1";"2014-10-06 00:17:45.084";"3";;;;;;;;;;;;;;;;;;;;;;;;;;;;;;;;;;;;;;;;;;;;;;;;;;;;;;;;;
"shuan01";"1988";;"Windows 8";"Rachel's Experiment (D.T.)";"1.0";"2";"1";"1";"2";"2";"2";"2014-10-06 00:15:38.883";"2014-10-06 00:30:44.833";"1";;"1";;"1";"18";"17";"module.training_block1.exec-8427.GoNoGo1";;;;;;;;;;;;;;;;;;;;;;;"1250";"2014-10-06 00:17:48.923";"NST_correctLoc";"22";"1";"FINISHED";"RIGHT";"success";"693";"0";"2014-10-06 00:17:47.673";"3";;;;;;;;;;;;;;;;;;;;;;;;;;;;;;;;;;;;;;;;;;;;;;;;;;;;;;;;;
"shuan01";"1988";;"Windows 8";"Rachel's Experiment (D.T.)";"1.0";"2";"1";"1";"2";"2";"2";"2014-10-06 00:15:38.883";"2014-10-06 00:30:44.833";"1";;"1";;"1";"19";"18";"module.training_block1.exec-8427.GoNoGo1";;;;;;;;;;;;;;;;;;;;;;;"1250";"2014-10-06 00:17:51.528";"NST_correctLoc";"25";"0";"FINISHED";"LEFT";"success";"566";"0";"2014-10-06 00:17:50.278";"3";;;;;;;;;;;;;;;;;;;;;;;;;;;;;;;;;;;;;;;;;;;;;;;;;;;;;;;;;
"shuan01";"1988";;"Windows 8";"Rachel's Experiment (D.T.)";"1.0";"2";"1";"1";"2";"2";"2";"2014-10-06 00:15:38.883";"2014-10-06 00:30:44.833";"1";;"1";;"1";"20";"19";"module.training_block1.exec-8427.GoNoGo1";;;;;;;;;;;;;;;;;;;;;;;"1249";"2014-10-06 00:17:54.113";"NST_correctLoc";"12";"0";"FINISHED";"LEFT";"success";"624";"0";"2014-10-06 00:17:52.863";"2";;;;;;;;;;;;;;;;;;;;;;;;;;;;;;;;;;;;;;;;;;;;;;;;;;;;;;;;;
"shuan01";"1988";;"Windows 8";"Rachel's Experiment (D.T.)";"1.0";"2";"1";"1";"2";"2";"2";"2014-10-06 00:15:38.883";"2014-10-06 00:30:44.833";"1";;"1";;"1";"21";"20";"module.training_block1.exec-8427.GoNoGo1";;;;;;;;;;;;;;;;;;;;;;;"1250";"2014-10-06 00:17:56.691";"NST_correctLoc";"13";"1";"FINISHED";"RIGHT";"success";"602";"0";"2014-10-06 00:17:55.440";"2";;;;;;;;;;;;;;;;;;;;;;;;;;;;;;;;;;;;;;;;;;;;;;;;;;;;;;;;;
"shuan01";"1988";;"Windows 8";"Rachel's Experiment (D.T.)";"1.0";"2";"1";"1";"2";"2";"2";"2014-10-06 00:15:38.883";"2014-10-06 00:30:44.833";"1";;"1";;"1";"22";"21";"module.training_block1.exec-8427.GoNoGo1";;;;;;;;;;;;;;;;;;;;;;;"1249";"2014-10-06 00:17:59.280";"NST_correctLoc";"10";"0";"FINISHED";"LEFT";"success";"468";"0";"2014-10-06 00:17:58.029";"2";;;;;;;;;;;;;;;;;;;;;;;;;;;;;;;;;;;;;;;;;;;;;;;;;;;;;;;;;
"shuan01";"1988";;"Windows 8";"Rachel's Experiment (D.T.)";"1.0";"2";"1";"1";"2";"2";"2";"2014-10-06 00:15:38.883";"2014-10-06 00:30:44.833";"1";;"1";;"1";"23";"22";"module.training_block1.exec-8427.GoNoGo1";;;;;;;;;;;;;;;;;;;;;;;"1250";"2014-10-06 00:18:01.858";"NST_correctLoc";"23";"1";"FINISHED";"RIGHT";"success";"487";"0";"2014-10-06 00:18:00.608";"3";;;;;;;;;;;;;;;;;;;;;;;;;;;;;;;;;;;;;;;;;;;;;;;;;;;;;;;;;
"shuan01";"1988";;"Windows 8";"Rachel's Experiment (D.T.)";"1.0";"2";"1";"1";"2";"2";"2";"2014-10-06 00:15:38.883";"2014-10-06 00:30:44.833";"1";;"1";;"1";"24";"23";"module.training_block1.exec-8427.GoNoGo1";;;;;;;;;;;;;;;;;;;;;;;"1249";"2014-10-06 00:18:04.440";"ST_correctStop";"8";"1";"FINISHED";"NONE";"success";"0";"1";"2014-10-06 00:18:03.190";"1";;;;;;;;;;;;;;;;;;;;;;;;;;;;;;;;;;;;;;;;;;;;;;;;;;;;;;;;;
"shuan01";"1988";;"Windows 8";"Rachel's Experiment (D.T.)";"1.0";"2";"1";"1";"2";"2";"2";"2014-10-06 00:15:38.883";"2014-10-06 00:30:44.833";"1";;"1";;"1";"25";"24";"module.training_block1.exec-8427.GoNoGo1";;;;;;;;;;;;;;;;;;;;;;;"1250";"2014-10-06 00:18:07.024";"NST_correctLoc";"24";"0";"FINISHED";"LEFT";"success";"546";"0";"2014-10-06 00:18:05.774";"3";;;;;;;;;;;;;;;;;;;;;;;;;;;;;;;;;;;;;;;;;;;;;;;;;;;;;;;;;
"shuan01";"1988";;"Windows 8";"Rachel's Experiment (D.T.)";"1.0";"2";"1";"1";"2";"2";"2";"2014-10-06 00:15:38.883";"2014-10-06 00:30:44.833";"1";;"1";;"1";"26";"25";"module.training_block1.exec-8427.GoNoGo1";;;;;;;;;;;;;;;;;;;;;;;"1250";"2014-10-06 00:18:09.609";"NST_correctLoc";"31";"0";"FINISHED";"LEFT";"success";"482";"0";"2014-10-06 00:18:08.358";"3";;;;;;;;;;;;;;;;;;;;;;;;;;;;;;;;;;;;;;;;;;;;;;;;;;;;;;;;;
"shuan01";"1988";;"Windows 8";"Rachel's Experiment (D.T.)";"1.0";"2";"1";"1";"2";"2";"2";"2014-10-06 00:15:38.883";"2014-10-06 00:30:44.833";"1";;"1";;"1";"27";"26";"module.training_block1.exec-8427.GoNoGo1";;;;;;;;;;;;;;;;;;;;;;;"1250";"2014-10-06 00:18:12.190";"ST_correctStop";"28";"1";"FINISHED";"NONE";"success";"0";"1";"2014-10-06 00:18:10.939";"3";;;;;;;;;;;;;;;;;;;;;;;;;;;;;;;;;;;;;;;;;;;;;;;;;;;;;;;;;
"shuan01";"1988";;"Windows 8";"Rachel's Experiment (D.T.)";"1.0";"2";"1";"1";"2";"2";"2";"2014-10-06 00:15:38.883";"2014-10-06 00:30:44.833";"1";;"1";;"1";"28";"27";"module.training_block1.exec-8427.GoNoGo1";;;;;;;;;;;;;;;;;;;;;;;"1250";"2014-10-06 00:18:14.773";"NST_correctLoc";"15";"0";"FINISHED";"LEFT";"success";"494";"0";"2014-10-06 00:18:13.523";"2";;;;;;;;;;;;;;;;;;;;;;;;;;;;;;;;;;;;;;;;;;;;;;;;;;;;;;;;;
"shuan01";"1988";;"Windows 8";"Rachel's Experiment (D.T.)";"1.0";"2";"1";"1";"2";"2";"2";"2014-10-06 00:15:38.883";"2014-10-06 00:30:44.833";"1";;"1";;"1";"29";"28";"module.training_block1.exec-8427.GoNoGo1";;;;;;;;;;;;;;;;;;;;;;;"1249";"2014-10-06 00:18:17.358";"ST_failedStop";"2";"0";"FINISHED";"LEFT";"failure";"409";"1";"2014-10-06 00:18:16.108";"1";;;;;;;;;;;;;;;;;;;;;;;;;;;;;;;;;;;;;;;;;;;;;;;;;;;;;;;;;
"shuan01";"1988";;"Windows 8";"Rachel's Experiment (D.T.)";"1.0";"2";"1";"1";"2";"2";"2";"2014-10-06 00:15:38.883";"2014-10-06 00:30:44.833";"1";;"1";;"1";"30";"29";"module.training_block1.exec-8427.GoNoGo1";;;;;;;;;;;;;;;;;;;;;;;"1249";"2014-10-06 00:18:19.940";"NST_correctLoc";"9";"0";"FINISHED";"LEFT";"success";"753";"0";"2014-10-06 00:18:18.689";"2";;;;;;;;;;;;;;;;;;;;;;;;;;;;;;;;;;;;;;;;;;;;;;;;;;;;;;;;;
"shuan01";"1988";;"Windows 8";"Rachel's Experiment (D.T.)";"1.0";"2";"1";"1";"2";"2";"2";"2014-10-06 00:15:38.883";"2014-10-06 00:30:44.833";"1";;"1";;"1";"31";"30";"module.training_block1.exec-8427.GoNoGo1";;;;;;;;;;;;;;;;;;;;;;;"1250";"2014-10-06 00:18:22.522";"NST_correctLoc";"11";"1";"FINISHED";"RIGHT";"success";"601";"0";"2014-10-06 00:18:21.272";"2";;;;;;;;;;;;;;;;;;;;;;;;;;;;;;;;;;;;;;;;;;;;;;;;;;;;;;;;;
"shuan01";"1988";;"Windows 8";"Rachel's Experiment (D.T.)";"1.0";"2";"1";"1";"2";"2";"2";"2014-10-06 00:15:38.883";"2014-10-06 00:30:44.833";"1";;"1";;"1";"32";"31";"module.training_block1.exec-8427.GoNoGo1";;;;;;;;;;;;;;;;;;;;;;;"1249";"2014-10-06 00:18:25.092";"ST_correctStop";"6";"0";"FINISHED";"NONE";"success";"0";"1";"2014-10-06 00:18:23.842";"1";;;;;;;;;;;;;;;;;;;;;;;;;;;;;;;;;;;;;;;;;;;;;;;;;;;;;;;;;
"shuan01";"1988";;"Windows 8";"Rachel's Experiment (D.T.)";"1.0";"2";"1";"1";"2";"2";"2";"2014-10-06 00:15:38.883";"2014-10-06 00:30:44.833";"1";;"1";;"1";"33";"32";"module.training_block1.exec-8427.GoNoGo1";;;;;;;;;;;;;;;;;;;;;;;"1249";"2014-10-06 00:18:27.661";"ST_correctStop";"18";"1";"FINISHED";"NONE";"success";"0";"1";"2014-10-06 00:18:26.410";"3";;;;;;;;;;;;;;;;;;;;;;;;;;;;;;;;;;;;;;;;;;;;;;;;;;;;;;;;;
"shuan01";"1988";;"Windows 8";"Rachel's Experiment (D.T.)";"1.0";"2";"1";"1";"2";"2";"2";"2014-10-06 00:15:38.883";"2014-10-06 00:30:44.833";"1";;"1";;"1";"34";"33";"module.training_block1.exec-8427.GoNoGo1";;;;;;;;;;;;;;;;;;;;;;;"1250";"2014-10-06 00:18:30.242";"ST_correctStop";"0";"0";"FINISHED";"NONE";"success";"0";"1";"2014-10-06 00:18:28.991";"1";;;;;;;;;;;;;;;;;;;;;;;;;;;;;;;;;;;;;;;;;;;;;;;;;;;;;;;;;
"shuan01";"1988";;"Windows 8";"Rachel's Experiment (D.T.)";"1.0";"2";"1";"1";"2";"2";"2";"2014-10-06 00:15:38.883";"2014-10-06 00:30:44.833";"1";;"1";;"1";"35";"34";"module.training_block1.exec-8427.GoNoGo1";;;;;;;;;;;;;;;;;;;;;;;"1249";"2014-10-06 00:18:32.810";"NST_correctLoc";"14";"0";"FINISHED";"LEFT";"success";"668";"0";"2014-10-06 00:18:31.560";"2";;;;;;;;;;;;;;;;;;;;;;;;;;;;;;;;;;;;;;;;;;;;;;;;;;;;;;;;;
"shuan01";"1988";;"Windows 8";"Rachel's Experiment (D.T.)";"1.0";"2";"1";"1";"2";"2";"2";"2014-10-06 00:15:38.883";"2014-10-06 00:30:44.833";"1";;"1";;"1";"36";"35";"module.training_block1.exec-8427.GoNoGo1";;;;;;;;;;;;;;;;;;;;;;;"1249";"2014-10-06 00:18:35.379";"NST_correctLoc";"26";"1";"FINISHED";"RIGHT";"success";"642";"0";"2014-10-06 00:18:34.129";"3";;;;;;;;;;;;;;;;;;;;;;;;;;;;;;;;;;;;;;;;;;;;;;;;;;;;;;;;;
"shuan01";"1988";;"Windows 8";"Rachel's Experiment (D.T.)";"1.0";"2";"1";"1";"2";"2";"2";"2014-10-06 00:15:38.883";"2014-10-06 00:30:44.833";"1";;"1";;"1";"37";"36";"module.training_block1.exec-8427.GoNoGo1";;;;;;;;;;;;;;;;;;;;;;;"1249";"2014-10-06 00:18:37.948";"ST_correctStop";"21";"0";"FINISHED";"NONE";"success";"0";"1";"2014-10-06 00:18:36.698";"3";;;;;;;;;;;;;;;;;;;;;;;;;;;;;;;;;;;;;;;;;;;;;;;;;;;;;;;;;
"shuan01";"1988";;"Windows 8";"Rachel's Experiment (D.T.)";"1.0";"2";"1";"1";"2";"2";"2";"2014-10-06 00:15:38.883";"2014-10-06 00:30:44.833";"1";;"1";;"1";"38";"37";"module.training_block1.exec-8427.GoNoGo1";;;;;;;;;;;;;;;;;;;;;;;"1249";"2014-10-06 00:18:40.529";"NST_correctLoc";"16";"0";"FINISHED";"LEFT";"success";"550";"0";"2014-10-06 00:18:39.279";"2";;;;;;;;;;;;;;;;;;;;;;;;;;;;;;;;;;;;;;;;;;;;;;;;;;;;;;;;;
"shuan01";"1988";;"Windows 8";"Rachel's Experiment (D.T.)";"1.0";"2";"1";"1";"2";"2";"2";"2014-10-06 00:15:38.883";"2014-10-06 00:30:44.833";"1";;"1";;"1";"39";"38";"module.training_block1.exec-8427.GoNoGo1";;;;;;;;;;;;;;;;;;;;;;;"1250";"2014-10-06 00:18:43.107";"NST_correctLoc";"17";"1";"FINISHED";"RIGHT";"success";"633";"0";"2014-10-06 00:18:41.857";"2";;;;;;;;;;;;;;;;;;;;;;;;;;;;;;;;;;;;;;;;;;;;;;;;;;;;;;;;;
"shuan01";"1988";;"Windows 8";"Rachel's Experiment (D.T.)";"1.0";"2";"1";"1";"2";"2";"2";"2014-10-06 00:15:38.883";"2014-10-06 00:30:44.833";"1";;"1";;"1";"40";"39";"module.training_block1.exec-8427.GoNoGo1";;;;;;;;;;;;;;;;;;;;;;;"1250";"2014-10-06 00:18:45.677";"ST_correctStop";"34";"0";"FINISHED";"NONE";"success";"0";"1";"2014-10-06 00:18:44.427";"3";;;;;;;;;;;;;;;;;;;;;;;;;;;;;;;;;;;;;;;;;;;;;;;;;;;;;;;;;
"shuan01";"1988";;"Windows 8";"Rachel's Experiment (D.T.)";"1.0";"2";"1";"1";"2";"2";"2";"2014-10-06 00:15:38.883";"2014-10-06 00:30:44.833";"1";;"1";;"1";"41";"40";"module.training_block1.exec-8427.GoNoGo1";;;;;;;;;;;;;;;;;;;;;;;"1249";"2014-10-06 00:18:48.243";"ST_correctStop";"30";"1";"FINISHED";"NONE";"success";"0";"1";"2014-10-06 00:18:46.993";"3";;;;;;;;;;;;;;;;;;;;;;;;;;;;;;;;;;;;;;;;;;;;;;;;;;;;;;;;;
"shuan01";"1988";;"Windows 8";"Rachel's Experiment (D.T.)";"1.0";"2";"1";"1";"2";"2";"2";"2014-10-06 00:15:38.883";"2014-10-06 00:30:44.833";"1";;"1";;"1";"42";"41";"module.training_block1.exec-8427.GoNoGo1";;;;;;;;;;;;;;;;;;;;;;;"1250";"2014-10-06 00:18:50.821";"ST_correctStop";"7";"1";"FINISHED";"NONE";"success";"0";"1";"2014-10-06 00:18:49.571";"1";;;;;;;;;;;;;;;;;;;;;;;;;;;;;;;;;;;;;;;;;;;;;;;;;;;;;;;;;
"shuan01";"1988";;"Windows 8";"Rachel's Experiment (D.T.)";"1.0";"2";"1";"1";"2";"2";"2";"2014-10-06 00:15:38.883";"2014-10-06 00:30:44.833";"1";;"1";;"1";"43";"42";"module.training_block1.exec-8427.GoNoGo1";;;;;;;;;;;;;;;;;;;;;;;"1249";"2014-10-06 00:18:53.400";"ST_correctStop";"32";"0";"FINISHED";"NONE";"success";"0";"1";"2014-10-06 00:18:52.150";"3";;;;;;;;;;;;;;;;;;;;;;;;;;;;;;;;;;;;;;;;;;;;;;;;;;;;;;;;;
"shuan01";"1988";;"Windows 8";"Rachel's Experiment (D.T.)";"1.0";"2";"1";"1";"2";"2";"2";"2014-10-06 00:15:38.883";"2014-10-06 00:30:44.833";"1";;"1";;"1";"44";"43";"module.training_block1.exec-8427.GoNoGo1";;;;;;;;;;;;;;;;;;;;;;;"1250";"2014-10-06 00:18:55.975";"NST_correctLoc";"33";"1";"FINISHED";"RIGHT";"success";"693";"0";"2014-10-06 00:18:54.724";"3";;;;;;;;;;;;;;;;;;;;;;;;;;;;;;;;;;;;;;;;;;;;;;;;;;;;;;;;;
"shuan01";"1988";;"Windows 8";"Rachel's Experiment (D.T.)";"1.0";"2";"1";"1";"2";"2";"2";"2014-10-06 00:15:38.883";"2014-10-06 00:30:44.833";"1";;"1";;"1";"45";"44";"module.training_block1.exec-8427.GoNoGo1";;;;;;;;;;;;;;;;;;;;;;;"1249";"2014-10-06 00:18:58.556";"ST_correctStop";"3";"1";"FINISHED";"NONE";"success";"0";"1";"2014-10-06 00:18:57.305";"1";;;;;;;;;;;;;;;;;;;;;;;;;;;;;;;;;;;;;;;;;;;;;;;;;;;;;;;;;
"shuan01";"1988";;"Windows 8";"Rachel's Experiment (D.T.)";"1.0";"2";"1";"1";"2";"2";"2";"2014-10-06 00:15:38.883";"2014-10-06 00:30:44.833";"1";;"1";;"1";"46";"45";"module.training_block1.exec-8427.GoNoGo1";;;;;;;;;;;;;;;;;;;;;;;"1250";"2014-10-06 00:19:01.134";"ST_correctStop";"35";"0";"FINISHED";"NONE";"success";"0";"1";"2014-10-06 00:18:59.884";"3";;;;;;;;;;;;;;;;;;;;;;;;;;;;;;;;;;;;;;;;;;;;;;;;;;;;;;;;;
"shuan01";"1988";;"Windows 8";"Rachel's Experiment (D.T.)";"1.0";"2";"1";"1";"2";"2";"2";"2014-10-06 00:15:38.883";"2014-10-06 00:30:44.833";"1";;"1";;"1";"47";"46";"module.training_block1.exec-8427.GoNoGo1";;;;;;;;;;;;;;;;;;;;;;;"1250";"2014-10-06 00:19:03.707";"ST_correctStop";"5";"0";"FINISHED";"NONE";"success";"0";"1";"2014-10-06 00:19:02.457";"1";;;;;;;;;;;;;;;;;;;;;;;;;;;;;;;;;;;;;;;;;;;;;;;;;;;;;;;;;
"shuan01";"1988";;"Windows 8";"Rachel's Experiment (D.T.)";"1.0";"2";"1";"1";"2";"2";"2";"2014-10-06 00:15:38.883";"2014-10-06 00:30:44.833";"1";;"1";;"1";"48";"47";"module.training_block1.exec-8427.GoNoGo1";;;;;;;;;;;;;;;;;;;;;;;"1249";"2014-10-06 00:19:06.283";"NST_correctLoc";"29";"1";"FINISHED";"RIGHT";"success";"944";"0";"2014-10-06 00:19:05.032";"3";;;;;;;;;;;;;;;;;;;;;;;;;;;;;;;;;;;;;;;;;;;;;;;;;;;;;;;;;
"shuan01";"1988";;"Windows 8";"Rachel's Experiment (D.T.)";"1.0";"2";"1";"1";"2";"2";"2";"2014-10-06 00:15:38.883";"2014-10-06 00:30:44.833";"1";;"1";;"1";"49";"48";"module.training_block1.exec-8427.GoNoGo1";;;;;;;;;;;;;;;;;;;;;;;"1250";"2014-10-06 00:19:08.857";"ST_correctStop";"19";"0";"FINISHED";"NONE";"success";"0";"1";"2014-10-06 00:19:07.607";"3";;;;;;;;;;;;;;;;;;;;;;;;;;;;;;;;;;;;;;;;;;;;;;;;;;;;;;;;;
"shuan01";"1988";;"Windows 8";"Rachel's Experiment (D.T.)";"1.0";"2";"1";"1";"2";"2";"2";"2014-10-06 00:15:38.883";"2014-10-06 00:30:44.833";"1";;"1";;"1";"50";"49";"module.training_block1.exec-8427.GoNoGo1";;;;;;;;;;;;;;;;;;;;;;;"1250";"2014-10-06 00:19:11.429";"ST_correctStop";"1";"0";"FINISHED";"NONE";"success";"0";"1";"2014-10-06 00:19:10.179";"1";;;;;;;;;;;;;;;;;;;;;;;;;;;;;;;;;;;;;;;;;;;;;;;;;;;;;;;;;
"shuan01";"1988";;"Windows 8";"Rachel's Experiment (D.T.)";"1.0";"2";"1";"1";"2";"2";"2";"2014-10-06 00:15:38.883";"2014-10-06 00:30:44.833";"1";;"1";;"1";"51";"50";"module.training_block1.exec-8427.GoNoGo1";;;;;;;;;;;;;;;;;;;;;;;"1250";"2014-10-06 00:19:14.003";"ST_correctStop";"4";"1";"FINISHED";"NONE";"success";"0";"1";"2014-10-06 00:19:12.753";"1";;;;;;;;;;;;;;;;;;;;;;;;;;;;;;;;;;;;;;;;;;;;;;;;;;;;;;;;;
"shuan01";"1988";;"Windows 8";"Rachel's Experiment (D.T.)";"1.0";"2";"1";"1";"2";"2";"2";"2014-10-06 00:15:38.883";"2014-10-06 00:30:44.833";"1";;"1";;"1";"52";"51";"module.training_block2.exec-8496.GoNoGo2";;;;;;;;;;;;;;;;;;;;;;;;;;;;;;;;;;;"1250";"2014-10-06 00:19:25.229";"NST_correctLoc";"33";"1";"FINISHED";"RIGHT";"success";"503";"0";"2014-10-06 00:19:23.978";"3";;;;;;;;;;;;;;;;;;;;;;;;;;;;;;;;;;;;;;;;;;;;;
"shuan01";"1988";;"Windows 8";"Rachel's Experiment (D.T.)";"1.0";"2";"1";"1";"2";"2";"2";"2014-10-06 00:15:38.883";"2014-10-06 00:30:44.833";"1";;"1";;"1";"53";"52";"module.training_block2.exec-8496.GoNoGo2";;;;;;;;;;;;;;;;;;;;;;;;;;;;;;;;;;;"1250";"2014-10-06 00:19:27.792";"NST_correctLoc";"28";"1";"FINISHED";"RIGHT";"success";"419";"0";"2014-10-06 00:19:26.541";"3";;;;;;;;;;;;;;;;;;;;;;;;;;;;;;;;;;;;;;;;;;;;;
"shuan01";"1988";;"Windows 8";"Rachel's Experiment (D.T.)";"1.0";"2";"1";"1";"2";"2";"2";"2014-10-06 00:15:38.883";"2014-10-06 00:30:44.833";"1";;"1";;"1";"54";"53";"module.training_block2.exec-8496.GoNoGo2";;;;;;;;;;;;;;;;;;;;;;;;;;;;;;;;;;;"1249";"2014-10-06 00:19:30.354";"NST_correctLoc";"31";"1";"FINISHED";"RIGHT";"success";"443";"0";"2014-10-06 00:19:29.104";"3";;;;;;;;;;;;;;;;;;;;;;;;;;;;;;;;;;;;;;;;;;;;;
"shuan01";"1988";;"Windows 8";"Rachel's Experiment (D.T.)";"1.0";"2";"1";"1";"2";"2";"2";"2014-10-06 00:15:38.883";"2014-10-06 00:30:44.833";"1";;"1";;"1";"55";"54";"module.training_block2.exec-8496.GoNoGo2";;;;;;;;;;;;;;;;;;;;;;;;;;;;;;;;;;;"1249";"2014-10-06 00:19:32.917";"NST_correctLoc";"17";"1";"FINISHED";"RIGHT";"success";"426";"0";"2014-10-06 00:19:31.667";"2";;;;;;;;;;;;;;;;;;;;;;;;;;;;;;;;;;;;;;;;;;;;;
"shuan01";"1988";;"Windows 8";"Rachel's Experiment (D.T.)";"1.0";"2";"1";"1";"2";"2";"2";"2014-10-06 00:15:38.883";"2014-10-06 00:30:44.833";"1";;"1";;"1";"56";"55";"module.training_block2.exec-8496.GoNoGo2";;;;;;;;;;;;;;;;;;;;;;;;;;;;;;;;;;;"1250";"2014-10-06 00:19:35.480";"NST_correctLoc";"26";"1";"FINISHED";"RIGHT";"success";"449";"0";"2014-10-06 00:19:34.230";"3";;;;;;;;;;;;;;;;;;;;;;;;;;;;;;;;;;;;;;;;;;;;;
"shuan01";"1988";;"Windows 8";"Rachel's Experiment (D.T.)";"1.0";"2";"1";"1";"2";"2";"2";"2014-10-06 00:15:38.883";"2014-10-06 00:30:44.833";"1";;"1";;"1";"57";"56";"module.training_block2.exec-8496.GoNoGo2";;;;;;;;;;;;;;;;;;;;;;;;;;;;;;;;;;;"1250";"2014-10-06 00:19:38.042";"ST_correctStop";"7";"0";"FINISHED";"NONE";"success";"0";"1";"2014-10-06 00:19:36.792";"1";;;;;;;;;;;;;;;;;;;;;;;;;;;;;;;;;;;;;;;;;;;;;
"shuan01";"1988";;"Windows 8";"Rachel's Experiment (D.T.)";"1.0";"2";"1";"1";"2";"2";"2";"2014-10-06 00:15:38.883";"2014-10-06 00:30:44.833";"1";;"1";;"1";"58";"57";"module.training_block2.exec-8496.GoNoGo2";;;;;;;;;;;;;;;;;;;;;;;;;;;;;;;;;;;"1250";"2014-10-06 00:19:40.602";"NST_correctLoc";"15";"0";"FINISHED";"LEFT";"success";"610";"0";"2014-10-06 00:19:39.351";"2";;;;;;;;;;;;;;;;;;;;;;;;;;;;;;;;;;;;;;;;;;;;;
"shuan01";"1988";;"Windows 8";"Rachel's Experiment (D.T.)";"1.0";"2";"1";"1";"2";"2";"2";"2014-10-06 00:15:38.883";"2014-10-06 00:30:44.833";"1";;"1";;"1";"59";"58";"module.training_block2.exec-8496.GoNoGo2";;;;;;;;;;;;;;;;;;;;;;;;;;;;;;;;;;;"1250";"2014-10-06 00:19:43.166";"ST_correctStop";"2";"1";"FINISHED";"NONE";"success";"0";"1";"2014-10-06 00:19:41.915";"1";;;;;;;;;;;;;;;;;;;;;;;;;;;;;;;;;;;;;;;;;;;;;
"shuan01";"1988";;"Windows 8";"Rachel's Experiment (D.T.)";"1.0";"2";"1";"1";"2";"2";"2";"2014-10-06 00:15:38.883";"2014-10-06 00:30:44.833";"1";;"1";;"1";"60";"59";"module.training_block2.exec-8496.GoNoGo2";;;;;;;;;;;;;;;;;;;;;;;;;;;;;;;;;;;"1249";"2014-10-06 00:19:45.726";"ST_correctStop";"18";"1";"FINISHED";"NONE";"success";"0";"1";"2014-10-06 00:19:44.476";"3";;;;;;;;;;;;;;;;;;;;;;;;;;;;;;;;;;;;;;;;;;;;;
"shuan01";"1988";;"Windows 8";"Rachel's Experiment (D.T.)";"1.0";"2";"1";"1";"2";"2";"2";"2014-10-06 00:15:38.883";"2014-10-06 00:30:44.833";"1";;"1";;"1";"61";"60";"module.training_block2.exec-8496.GoNoGo2";;;;;;;;;;;;;;;;;;;;;;;;;;;;;;;;;;;"1250";"2014-10-06 00:19:48.288";"NST_correctLoc";"9";"1";"FINISHED";"RIGHT";"success";"606";"0";"2014-10-06 00:19:47.038";"2";;;;;;;;;;;;;;;;;;;;;;;;;;;;;;;;;;;;;;;;;;;;;
"shuan01";"1988";;"Windows 8";"Rachel's Experiment (D.T.)";"1.0";"2";"1";"1";"2";"2";"2";"2014-10-06 00:15:38.883";"2014-10-06 00:30:44.833";"1";;"1";;"1";"62";"61";"module.training_block2.exec-8496.GoNoGo2";;;;;;;;;;;;;;;;;;;;;;;;;;;;;;;;;;;"1249";"2014-10-06 00:19:50.866";"NST_correctLoc";"29";"0";"FINISHED";"LEFT";"success";"500";"0";"2014-10-06 00:19:49.615";"3";;;;;;;;;;;;;;;;;;;;;;;;;;;;;;;;;;;;;;;;;;;;;
"shuan01";"1988";;"Windows 8";"Rachel's Experiment (D.T.)";"1.0";"2";"1";"1";"2";"2";"2";"2014-10-06 00:15:38.883";"2014-10-06 00:30:44.833";"1";;"1";;"1";"63";"62";"module.training_block2.exec-8496.GoNoGo2";;;;;;;;;;;;;;;;;;;;;;;;;;;;;;;;;;;"1250";"2014-10-06 00:19:53.429";"ST_correctStop";"0";"1";"FINISHED";"NONE";"success";"0";"1";"2014-10-06 00:19:52.179";"1";;;;;;;;;;;;;;;;;;;;;;;;;;;;;;;;;;;;;;;;;;;;;
"shuan01";"1988";;"Windows 8";"Rachel's Experiment (D.T.)";"1.0";"2";"1";"1";"2";"2";"2";"2014-10-06 00:15:38.883";"2014-10-06 00:30:44.833";"1";;"1";;"1";"64";"63";"module.training_block2.exec-8496.GoNoGo2";;;;;;;;;;;;;;;;;;;;;;;;;;;;;;;;;;;"1250";"2014-10-06 00:19:55.992";"NST_correctLoc";"12";"0";"FINISHED";"LEFT";"success";"630";"0";"2014-10-06 00:19:54.742";"2";;;;;;;;;;;;;;;;;;;;;;;;;;;;;;;;;;;;;;;;;;;;;
"shuan01";"1988";;"Windows 8";"Rachel's Experiment (D.T.)";"1.0";"2";"1";"1";"2";"2";"2";"2014-10-06 00:15:38.883";"2014-10-06 00:30:44.833";"1";;"1";;"1";"65";"64";"module.training_block2.exec-8496.GoNoGo2";;;;;;;;;;;;;;;;;;;;;;;;;;;;;;;;;;;"1249";"2014-10-06 00:19:58.553";"NST_correctLoc";"16";"0";"FINISHED";"LEFT";"success";"573";"0";"2014-10-06 00:19:57.303";"2";;;;;;;;;;;;;;;;;;;;;;;;;;;;;;;;;;;;;;;;;;;;;
"shuan01";"1988";;"Windows 8";"Rachel's Experiment (D.T.)";"1.0";"2";"1";"1";"2";"2";"2";"2014-10-06 00:15:38.883";"2014-10-06 00:30:44.833";"1";;"1";;"1";"66";"65";"module.training_block2.exec-8496.GoNoGo2";;;;;;;;;;;;;;;;;;;;;;;;;;;;;;;;;;;"1249";"2014-10-06 00:20:01.114";"ST_correctStop";"8";"0";"FINISHED";"NONE";"success";"0";"1";"2014-10-06 00:19:59.863";"1";;;;;;;;;;;;;;;;;;;;;;;;;;;;;;;;;;;;;;;;;;;;;
"shuan01";"1988";;"Windows 8";"Rachel's Experiment (D.T.)";"1.0";"2";"1";"1";"2";"2";"2";"2014-10-06 00:15:38.883";"2014-10-06 00:30:44.833";"1";;"1";;"1";"67";"66";"module.training_block2.exec-8496.GoNoGo2";;;;;;;;;;;;;;;;;;;;;;;;;;;;;;;;;;;"1250";"2014-10-06 00:20:03.672";"ST_correctStop";"21";"1";"FINISHED";"NONE";"success";"0";"1";"2014-10-06 00:20:02.421";"3";;;;;;;;;;;;;;;;;;;;;;;;;;;;;;;;;;;;;;;;;;;;;
"shuan01";"1988";;"Windows 8";"Rachel's Experiment (D.T.)";"1.0";"2";"1";"1";"2";"2";"2";"2014-10-06 00:15:38.883";"2014-10-06 00:30:44.833";"1";;"1";;"1";"68";"67";"module.training_block2.exec-8496.GoNoGo2";;;;;;;;;;;;;;;;;;;;;;;;;;;;;;;;;;;"1249";"2014-10-06 00:20:06.232";"NST_correctLoc";"19";"0";"FINISHED";"LEFT";"success";"593";"0";"2014-10-06 00:20:04.981";"3";;;;;;;;;;;;;;;;;;;;;;;;;;;;;;;;;;;;;;;;;;;;;
"shuan01";"1988";;"Windows 8";"Rachel's Experiment (D.T.)";"1.0";"2";"1";"1";"2";"2";"2";"2014-10-06 00:15:38.883";"2014-10-06 00:30:44.833";"1";;"1";;"1";"69";"68";"module.training_block2.exec-8496.GoNoGo2";;;;;;;;;;;;;;;;;;;;;;;;;;;;;;;;;;;"1250";"2014-10-06 00:20:08.791";"ST_correctStop";"4";"0";"FINISHED";"NONE";"success";"0";"1";"2014-10-06 00:20:07.541";"1";;;;;;;;;;;;;;;;;;;;;;;;;;;;;;;;;;;;;;;;;;;;;
"shuan01";"1988";;"Windows 8";"Rachel's Experiment (D.T.)";"1.0";"2";"1";"1";"2";"2";"2";"2014-10-06 00:15:38.883";"2014-10-06 00:30:44.833";"1";;"1";;"1";"70";"69";"module.training_block2.exec-8496.GoNoGo2";;;;;;;;;;;;;;;;;;;;;;;;;;;;;;;;;;;"1250";"2014-10-06 00:20:11.350";"NST_correctLoc";"20";"1";"FINISHED";"RIGHT";"success";"458";"0";"2014-10-06 00:20:10.100";"3";;;;;;;;;;;;;;;;;;;;;;;;;;;;;;;;;;;;;;;;;;;;;
"shuan01";"1988";;"Windows 8";"Rachel's Experiment (D.T.)";"1.0";"2";"1";"1";"2";"2";"2";"2014-10-06 00:15:38.883";"2014-10-06 00:30:44.833";"1";;"1";;"1";"71";"70";"module.training_block2.exec-8496.GoNoGo2";;;;;;;;;;;;;;;;;;;;;;;;;;;;;;;;;;;"1250";"2014-10-06 00:20:13.908";"NST_correctLoc";"25";"0";"FINISHED";"LEFT";"success";"472";"0";"2014-10-06 00:20:12.658";"3";;;;;;;;;;;;;;;;;;;;;;;;;;;;;;;;;;;;;;;;;;;;;
"shuan01";"1988";;"Windows 8";"Rachel's Experiment (D.T.)";"1.0";"2";"1";"1";"2";"2";"2";"2014-10-06 00:15:38.883";"2014-10-06 00:30:44.833";"1";;"1";;"1";"72";"71";"module.training_block2.exec-8496.GoNoGo2";;;;;;;;;;;;;;;;;;;;;;;;;;;;;;;;;;;"1250";"2014-10-06 00:20:16.467";"NST_correctLoc";"13";"0";"FINISHED";"LEFT";"success";"502";"0";"2014-10-06 00:20:15.216";"2";;;;;;;;;;;;;;;;;;;;;;;;;;;;;;;;;;;;;;;;;;;;;
"shuan01";"1988";;"Windows 8";"Rachel's Experiment (D.T.)";"1.0";"2";"1";"1";"2";"2";"2";"2014-10-06 00:15:38.883";"2014-10-06 00:30:44.833";"1";;"1";;"1";"73";"72";"module.training_block2.exec-8496.GoNoGo2";;;;;;;;;;;;;;;;;;;;;;;;;;;;;;;;;;;"1250";"2014-10-06 00:20:19.027";"ST_correctStop";"23";"0";"FINISHED";"NONE";"success";"0";"1";"2014-10-06 00:20:17.777";"3";;;;;;;;;;;;;;;;;;;;;;;;;;;;;;;;;;;;;;;;;;;;;
"shuan01";"1988";;"Windows 8";"Rachel's Experiment (D.T.)";"1.0";"2";"1";"1";"2";"2";"2";"2014-10-06 00:15:38.883";"2014-10-06 00:30:44.833";"1";;"1";;"1";"74";"73";"module.training_block2.exec-8496.GoNoGo2";;;;;;;;;;;;;;;;;;;;;;;;;;;;;;;;;;;"1250";"2014-10-06 00:20:21.586";"ST_correctStop";"27";"0";"FINISHED";"NONE";"success";"0";"1";"2014-10-06 00:20:20.334";"3";;;;;;;;;;;;;;;;;;;;;;;;;;;;;;;;;;;;;;;;;;;;;
"shuan01";"1988";;"Windows 8";"Rachel's Experiment (D.T.)";"1.0";"2";"1";"1";"2";"2";"2";"2014-10-06 00:15:38.883";"2014-10-06 00:30:44.833";"1";;"1";;"1";"75";"74";"module.training_block2.exec-8496.GoNoGo2";;;;;;;;;;;;;;;;;;;;;;;;;;;;;;;;;;;"1250";"2014-10-06 00:20:24.144";"ST_correctStop";"3";"1";"FINISHED";"NONE";"success";"0";"1";"2014-10-06 00:20:22.894";"1";;;;;;;;;;;;;;;;;;;;;;;;;;;;;;;;;;;;;;;;;;;;;
"shuan01";"1988";;"Windows 8";"Rachel's Experiment (D.T.)";"1.0";"2";"1";"1";"2";"2";"2";"2014-10-06 00:15:38.883";"2014-10-06 00:30:44.833";"1";;"1";;"1";"76";"75";"module.training_block2.exec-8496.GoNoGo2";;;;;;;;;;;;;;;;;;;;;;;;;;;;;;;;;;;"1251";"2014-10-06 00:20:26.705";"ST_correctStop";"1";"0";"FINISHED";"NONE";"success";"0";"1";"2014-10-06 00:20:25.453";"1";;;;;;;;;;;;;;;;;;;;;;;;;;;;;;;;;;;;;;;;;;;;;
"shuan01";"1988";;"Windows 8";"Rachel's Experiment (D.T.)";"1.0";"2";"1";"1";"2";"2";"2";"2014-10-06 00:15:38.883";"2014-10-06 00:30:44.833";"1";;"1";;"1";"77";"76";"module.training_block2.exec-8496.GoNoGo2";;;;;;;;;;;;;;;;;;;;;;;;;;;;;;;;;;;"1250";"2014-10-06 00:20:29.260";"NST_correctLoc";"14";"1";"FINISHED";"RIGHT";"success";"1021";"0";"2014-10-06 00:20:28.010";"2";;;;;;;;;;;;;;;;;;;;;;;;;;;;;;;;;;;;;;;;;;;;;
"shuan01";"1988";;"Windows 8";"Rachel's Experiment (D.T.)";"1.0";"2";"1";"1";"2";"2";"2";"2014-10-06 00:15:38.883";"2014-10-06 00:30:44.833";"1";;"1";;"1";"78";"77";"module.training_block2.exec-8496.GoNoGo2";;;;;;;;;;;;;;;;;;;;;;;;;;;;;;;;;;;"1250";"2014-10-06 00:20:31.816";"NST_correctLoc";"30";"1";"FINISHED";"RIGHT";"success";"583";"0";"2014-10-06 00:20:30.565";"3";;;;;;;;;;;;;;;;;;;;;;;;;;;;;;;;;;;;;;;;;;;;;
"shuan01";"1988";;"Windows 8";"Rachel's Experiment (D.T.)";"1.0";"2";"1";"1";"2";"2";"2";"2014-10-06 00:15:38.883";"2014-10-06 00:30:44.833";"1";;"1";;"1";"79";"78";"module.training_block2.exec-8496.GoNoGo2";;;;;;;;;;;;;;;;;;;;;;;;;;;;;;;;;;;"1250";"2014-10-06 00:20:34.369";"ST_correctStop";"35";"0";"FINISHED";"NONE";"success";"0";"1";"2014-10-06 00:20:33.119";"3";;;;;;;;;;;;;;;;;;;;;;;;;;;;;;;;;;;;;;;;;;;;;
"shuan01";"1988";;"Windows 8";"Rachel's Experiment (D.T.)";"1.0";"2";"1";"1";"2";"2";"2";"2014-10-06 00:15:38.883";"2014-10-06 00:30:44.833";"1";;"1";;"1";"80";"79";"module.training_block2.exec-8496.GoNoGo2";;;;;;;;;;;;;;;;;;;;;;;;;;;;;;;;;;;"1250";"2014-10-06 00:20:36.924";"NST_correctLoc";"11";"0";"FINISHED";"LEFT";"success";"518";"0";"2014-10-06 00:20:35.674";"2";;;;;;;;;;;;;;;;;;;;;;;;;;;;;;;;;;;;;;;;;;;;;
"shuan01";"1988";;"Windows 8";"Rachel's Experiment (D.T.)";"1.0";"2";"1";"1";"2";"2";"2";"2014-10-06 00:15:38.883";"2014-10-06 00:30:44.833";"1";;"1";;"1";"81";"80";"module.training_block2.exec-8496.GoNoGo2";;;;;;;;;;;;;;;;;;;;;;;;;;;;;;;;;;;"1249";"2014-10-06 00:20:39.476";"ST_correctStop";"6";"1";"FINISHED";"NONE";"success";"0";"1";"2014-10-06 00:20:38.226";"1";;;;;;;;;;;;;;;;;;;;;;;;;;;;;;;;;;;;;;;;;;;;;
"shuan01";"1988";;"Windows 8";"Rachel's Experiment (D.T.)";"1.0";"2";"1";"1";"2";"2";"2";"2014-10-06 00:15:38.883";"2014-10-06 00:30:44.833";"1";;"1";;"1";"82";"81";"module.training_block2.exec-8496.GoNoGo2";;;;;;;;;;;;;;;;;;;;;;;;;;;;;;;;;;;"1250";"2014-10-06 00:20:42.043";"ST_correctStop";"22";"0";"FINISHED";"NONE";"success";"0";"1";"2014-10-06 00:20:40.792";"3";;;;;;;;;;;;;;;;;;;;;;;;;;;;;;;;;;;;;;;;;;;;;
"shuan01";"1988";;"Windows 8";"Rachel's Experiment (D.T.)";"1.0";"2";"1";"1";"2";"2";"2";"2014-10-06 00:15:38.883";"2014-10-06 00:30:44.833";"1";;"1";;"1";"83";"82";"module.training_block2.exec-8496.GoNoGo2";;;;;;;;;;;;;;;;;;;;;;;;;;;;;;;;;;;"1250";"2014-10-06 00:20:44.594";"ST_correctStop";"5";"0";"FINISHED";"NONE";"success";"0";"1";"2014-10-06 00:20:43.343";"1";;;;;;;;;;;;;;;;;;;;;;;;;;;;;;;;;;;;;;;;;;;;;
"shuan01";"1988";;"Windows 8";"Rachel's Experiment (D.T.)";"1.0";"2";"1";"1";"2";"2";"2";"2014-10-06 00:15:38.883";"2014-10-06 00:30:44.833";"1";;"1";;"1";"84";"83";"module.training_block2.exec-8496.GoNoGo2";;;;;;;;;;;;;;;;;;;;;;;;;;;;;;;;;;;"1250";"2014-10-06 00:20:47.147";"NST_correctLoc";"10";"0";"FINISHED";"LEFT";"success";"485";"0";"2014-10-06 00:20:45.897";"2";;;;;;;;;;;;;;;;;;;;;;;;;;;;;;;;;;;;;;;;;;;;;
"shuan01";"1988";;"Windows 8";"Rachel's Experiment (D.T.)";"1.0";"2";"1";"1";"2";"2";"2";"2014-10-06 00:15:38.883";"2014-10-06 00:30:44.833";"1";;"1";;"1";"85";"84";"module.training_block2.exec-8496.GoNoGo2";;;;;;;;;;;;;;;;;;;;;;;;;;;;;;;;;;;"1250";"2014-10-06 00:20:49.700";"ST_correctStop";"34";"1";"FINISHED";"NONE";"success";"0";"1";"2014-10-06 00:20:48.450";"3";;;;;;;;;;;;;;;;;;;;;;;;;;;;;;;;;;;;;;;;;;;;;
"shuan01";"1988";;"Windows 8";"Rachel's Experiment (D.T.)";"1.0";"2";"1";"1";"2";"2";"2";"2014-10-06 00:15:38.883";"2014-10-06 00:30:44.833";"1";;"1";;"1";"86";"85";"module.training_block2.exec-8496.GoNoGo2";;;;;;;;;;;;;;;;;;;;;;;;;;;;;;;;;;;"1250";"2014-10-06 00:20:52.253";"ST_correctStop";"32";"1";"FINISHED";"NONE";"success";"0";"1";"2014-10-06 00:20:51.002";"3";;;;;;;;;;;;;;;;;;;;;;;;;;;;;;;;;;;;;;;;;;;;;
"shuan01";"1988";;"Windows 8";"Rachel's Experiment (D.T.)";"1.0";"2";"1";"1";"2";"2";"2";"2014-10-06 00:15:38.883";"2014-10-06 00:30:44.833";"1";;"1";;"1";"87";"86";"module.training_block2.exec-8496.GoNoGo2";;;;;;;;;;;;;;;;;;;;;;;;;;;;;;;;;;;"1250";"2014-10-06 00:20:54.805";"ST_correctStop";"24";"0";"FINISHED";"NONE";"success";"0";"1";"2014-10-06 00:20:53.554";"3";;;;;;;;;;;;;;;;;;;;;;;;;;;;;;;;;;;;;;;;;;;;;
"shuan01";"1988";;"Windows 8";"Rachel's Experiment (D.T.)";"1.0";"2";"1";"1";"2";"2";"2";"2014-10-06 00:15:38.883";"2014-10-06 00:30:44.833";"1";;"1";;"1";"88";"87";"module.training_block3.exec-1814.GoNoGo3";;;;;;;;;;;;;;;;;;;;;;;;;;;;;;;;;;;;;;;;;;;;;;;"1250";"2014-10-06 00:21:05.208";"ST_correctStop";"22";"0";"FINISHED";"NONE";"success";"0";"1";"2014-10-06 00:21:03.957";"3";;;;;;;;;;;;;;;;;;;;;;;;;;;;;;;;;
"shuan01";"1988";;"Windows 8";"Rachel's Experiment (D.T.)";"1.0";"2";"1";"1";"2";"2";"2";"2014-10-06 00:15:38.883";"2014-10-06 00:30:44.833";"1";;"1";;"1";"89";"88";"module.training_block3.exec-1814.GoNoGo3";;;;;;;;;;;;;;;;;;;;;;;;;;;;;;;;;;;;;;;;;;;;;;;"1250";"2014-10-06 00:21:07.760";"ST_correctStop";"3";"0";"FINISHED";"NONE";"success";"0";"1";"2014-10-06 00:21:06.509";"1";;;;;;;;;;;;;;;;;;;;;;;;;;;;;;;;;
"shuan01";"1988";;"Windows 8";"Rachel's Experiment (D.T.)";"1.0";"2";"1";"1";"2";"2";"2";"2014-10-06 00:15:38.883";"2014-10-06 00:30:44.833";"1";;"1";;"1";"90";"89";"module.training_block3.exec-1814.GoNoGo3";;;;;;;;;;;;;;;;;;;;;;;;;;;;;;;;;;;;;;;;;;;;;;;"1250";"2014-10-06 00:21:10.313";"ST_correctStop";"21";"0";"FINISHED";"NONE";"success";"0";"1";"2014-10-06 00:21:09.062";"3";;;;;;;;;;;;;;;;;;;;;;;;;;;;;;;;;
"shuan01";"1988";;"Windows 8";"Rachel's Experiment (D.T.)";"1.0";"2";"1";"1";"2";"2";"2";"2014-10-06 00:15:38.883";"2014-10-06 00:30:44.833";"1";;"1";;"1";"91";"90";"module.training_block3.exec-1814.GoNoGo3";;;;;;;;;;;;;;;;;;;;;;;;;;;;;;;;;;;;;;;;;;;;;;;"1250";"2014-10-06 00:21:12.866";"NST_correctLoc";"15";"1";"FINISHED";"RIGHT";"success";"836";"0";"2014-10-06 00:21:11.616";"2";;;;;;;;;;;;;;;;;;;;;;;;;;;;;;;;;
"shuan01";"1988";;"Windows 8";"Rachel's Experiment (D.T.)";"1.0";"2";"1";"1";"2";"2";"2";"2014-10-06 00:15:38.883";"2014-10-06 00:30:44.833";"1";;"1";;"1";"92";"91";"module.training_block3.exec-1814.GoNoGo3";;;;;;;;;;;;;;;;;;;;;;;;;;;;;;;;;;;;;;;;;;;;;;;"1250";"2014-10-06 00:21:15.419";"ST_correctStop";"6";"0";"FINISHED";"NONE";"success";"0";"1";"2014-10-06 00:21:14.169";"1";;;;;;;;;;;;;;;;;;;;;;;;;;;;;;;;;
"shuan01";"1988";;"Windows 8";"Rachel's Experiment (D.T.)";"1.0";"2";"1";"1";"2";"2";"2";"2014-10-06 00:15:38.883";"2014-10-06 00:30:44.833";"1";;"1";;"1";"93";"92";"module.training_block3.exec-1814.GoNoGo3";;;;;;;;;;;;;;;;;;;;;;;;;;;;;;;;;;;;;;;;;;;;;;;"1250";"2014-10-06 00:21:17.971";"NST_correctLoc";"19";"1";"FINISHED";"RIGHT";"success";"667";"0";"2014-10-06 00:21:16.721";"3";;;;;;;;;;;;;;;;;;;;;;;;;;;;;;;;;
"shuan01";"1988";;"Windows 8";"Rachel's Experiment (D.T.)";"1.0";"2";"1";"1";"2";"2";"2";"2014-10-06 00:15:38.883";"2014-10-06 00:30:44.833";"1";;"1";;"1";"94";"93";"module.training_block3.exec-1814.GoNoGo3";;;;;;;;;;;;;;;;;;;;;;;;;;;;;;;;;;;;;;;;;;;;;;;"1250";"2014-10-06 00:21:20.522";"ST_correctStop";"2";"0";"FINISHED";"NONE";"success";"0";"1";"2014-10-06 00:21:19.272";"1";;;;;;;;;;;;;;;;;;;;;;;;;;;;;;;;;
"shuan01";"1988";;"Windows 8";"Rachel's Experiment (D.T.)";"1.0";"2";"1";"1";"2";"2";"2";"2014-10-06 00:15:38.883";"2014-10-06 00:30:44.833";"1";;"1";;"1";"95";"94";"module.training_block3.exec-1814.GoNoGo3";;;;;;;;;;;;;;;;;;;;;;;;;;;;;;;;;;;;;;;;;;;;;;;"1250";"2014-10-06 00:21:23.074";"ST_correctStop";"7";"0";"FINISHED";"NONE";"success";"0";"1";"2014-10-06 00:21:21.823";"1";;;;;;;;;;;;;;;;;;;;;;;;;;;;;;;;;
"shuan01";"1988";;"Windows 8";"Rachel's Experiment (D.T.)";"1.0";"2";"1";"1";"2";"2";"2";"2014-10-06 00:15:38.883";"2014-10-06 00:30:44.833";"1";;"1";;"1";"96";"95";"module.training_block3.exec-1814.GoNoGo3";;;;;;;;;;;;;;;;;;;;;;;;;;;;;;;;;;;;;;;;;;;;;;;"1250";"2014-10-06 00:21:25.624";"ST_correctStop";"27";"1";"FINISHED";"NONE";"success";"0";"1";"2014-10-06 00:21:24.373";"3";;;;;;;;;;;;;;;;;;;;;;;;;;;;;;;;;
"shuan01";"1988";;"Windows 8";"Rachel's Experiment (D.T.)";"1.0";"2";"1";"1";"2";"2";"2";"2014-10-06 00:15:38.883";"2014-10-06 00:30:44.833";"1";;"1";;"1";"97";"96";"module.training_block3.exec-1814.GoNoGo3";;;;;;;;;;;;;;;;;;;;;;;;;;;;;;;;;;;;;;;;;;;;;;;"1250";"2014-10-06 00:21:28.176";"NST_correctLoc";"30";"1";"FINISHED";"RIGHT";"success";"831";"0";"2014-10-06 00:21:26.925";"3";;;;;;;;;;;;;;;;;;;;;;;;;;;;;;;;;
"shuan01";"1988";;"Windows 8";"Rachel's Experiment (D.T.)";"1.0";"2";"1";"1";"2";"2";"2";"2014-10-06 00:15:38.883";"2014-10-06 00:30:44.833";"1";;"1";;"1";"98";"97";"module.training_block3.exec-1814.GoNoGo3";;;;;;;;;;;;;;;;;;;;;;;;;;;;;;;;;;;;;;;;;;;;;;;"1251";"2014-10-06 00:21:30.728";"ST_correctStop";"1";"0";"FINISHED";"NONE";"success";"0";"1";"2014-10-06 00:21:29.477";"1";;;;;;;;;;;;;;;;;;;;;;;;;;;;;;;;;
"shuan01";"1988";;"Windows 8";"Rachel's Experiment (D.T.)";"1.0";"2";"1";"1";"2";"2";"2";"2014-10-06 00:15:38.883";"2014-10-06 00:30:44.833";"1";;"1";;"1";"99";"98";"module.training_block3.exec-1814.GoNoGo3";;;;;;;;;;;;;;;;;;;;;;;;;;;;;;;;;;;;;;;;;;;;;;;"1249";"2014-10-06 00:21:33.279";"ST_correctStop";"5";"1";"FINISHED";"NONE";"success";"0";"1";"2014-10-06 00:21:32.029";"1";;;;;;;;;;;;;;;;;;;;;;;;;;;;;;;;;
"shuan01";"1988";;"Windows 8";"Rachel's Experiment (D.T.)";"1.0";"2";"1";"1";"2";"2";"2";"2014-10-06 00:15:38.883";"2014-10-06 00:30:44.833";"1";;"1";;"1";"100";"99";"module.training_block3.exec-1814.GoNoGo3";;;;;;;;;;;;;;;;;;;;;;;;;;;;;;;;;;;;;;;;;;;;;;;"1250";"2014-10-06 00:21:35.832";"NST_correctLoc";"12";"0";"FINISHED";"LEFT";"success";"860";"0";"2014-10-06 00:21:34.581";"2";;;;;;;;;;;;;;;;;;;;;;;;;;;;;;;;;
"shuan01";"1988";;"Windows 8";"Rachel's Experiment (D.T.)";"1.0";"2";"1";"1";"2";"2";"2";"2014-10-06 00:15:38.883";"2014-10-06 00:30:44.833";"1";;"1";;"1";"101";"100";"module.training_block3.exec-1814.GoNoGo3";;;;;;;;;;;;;;;;;;;;;;;;;;;;;;;;;;;;;;;;;;;;;;;"1250";"2014-10-06 00:21:38.395";"ST_correctStop";"4";"1";"FINISHED";"NONE";"success";"0";"1";"2014-10-06 00:21:37.145";"1";;;;;;;;;;;;;;;;;;;;;;;;;;;;;;;;;
"shuan01";"1988";;"Windows 8";"Rachel's Experiment (D.T.)";"1.0";"2";"1";"1";"2";"2";"2";"2014-10-06 00:15:38.883";"2014-10-06 00:30:44.833";"1";;"1";;"1";"102";"101";"module.training_block3.exec-1814.GoNoGo3";;;;;;;;;;;;;;;;;;;;;;;;;;;;;;;;;;;;;;;;;;;;;;;"1250";"2014-10-06 00:21:40.948";"NST_correctLoc";"10";"1";"FINISHED";"RIGHT";"success";"457";"0";"2014-10-06 00:21:39.698";"2";;;;;;;;;;;;;;;;;;;;;;;;;;;;;;;;;
"shuan01";"1988";;"Windows 8";"Rachel's Experiment (D.T.)";"1.0";"2";"1";"1";"2";"2";"2";"2014-10-06 00:15:38.883";"2014-10-06 00:30:44.833";"1";;"1";;"1";"103";"102";"module.training_block3.exec-1814.GoNoGo3";;;;;;;;;;;;;;;;;;;;;;;;;;;;;;;;;;;;;;;;;;;;;;;"1251";"2014-10-06 00:21:43.504";"NST_correctLoc";"24";"1";"FINISHED";"RIGHT";"success";"592";"0";"2014-10-06 00:21:42.254";"3";;;;;;;;;;;;;;;;;;;;;;;;;;;;;;;;;
"shuan01";"1988";;"Windows 8";"Rachel's Experiment (D.T.)";"1.0";"2";"1";"1";"2";"2";"2";"2014-10-06 00:15:38.883";"2014-10-06 00:30:44.833";"1";;"1";;"1";"104";"103";"module.training_block3.exec-1814.GoNoGo3";;;;;;;;;;;;;;;;;;;;;;;;;;;;;;;;;;;;;;;;;;;;;;;"1249";"2014-10-06 00:21:46.058";"NST_correctLoc";"28";"1";"FINISHED";"RIGHT";"success";"585";"0";"2014-10-06 00:21:44.808";"3";;;;;;;;;;;;;;;;;;;;;;;;;;;;;;;;;
"shuan01";"1988";;"Windows 8";"Rachel's Experiment (D.T.)";"1.0";"2";"1";"1";"2";"2";"2";"2014-10-06 00:15:38.883";"2014-10-06 00:30:44.833";"1";;"1";;"1";"105";"104";"module.training_block3.exec-1814.GoNoGo3";;;;;;;;;;;;;;;;;;;;;;;;;;;;;;;;;;;;;;;;;;;;;;;"1249";"2014-10-06 00:21:48.608";"ST_failedStop";"20";"0";"FINISHED";"LEFT";"failure";"422";"1";"2014-10-06 00:21:47.358";"3";;;;;;;;;;;;;;;;;;;;;;;;;;;;;;;;;
"shuan01";"1988";;"Windows 8";"Rachel's Experiment (D.T.)";"1.0";"2";"1";"1";"2";"2";"2";"2014-10-06 00:15:38.883";"2014-10-06 00:30:44.833";"1";;"1";;"1";"106";"105";"module.training_block3.exec-1814.GoNoGo3";;;;;;;;;;;;;;;;;;;;;;;;;;;;;;;;;;;;;;;;;;;;;;;"1249";"2014-10-06 00:21:51.162";"ST_correctStop";"0";"0";"FINISHED";"NONE";"success";"0";"1";"2014-10-06 00:21:49.911";"1";;;;;;;;;;;;;;;;;;;;;;;;;;;;;;;;;
"shuan01";"1988";;"Windows 8";"Rachel's Experiment (D.T.)";"1.0";"2";"1";"1";"2";"2";"2";"2014-10-06 00:15:38.883";"2014-10-06 00:30:44.833";"1";;"1";;"1";"107";"106";"module.training_block3.exec-1814.GoNoGo3";;;;;;;;;;;;;;;;;;;;;;;;;;;;;;;;;;;;;;;;;;;;;;;"1250";"2014-10-06 00:21:53.714";"NST_correctLoc";"13";"0";"FINISHED";"LEFT";"success";"621";"0";"2014-10-06 00:21:52.462";"2";;;;;;;;;;;;;;;;;;;;;;;;;;;;;;;;;
"shuan01";"1988";;"Windows 8";"Rachel's Experiment (D.T.)";"1.0";"2";"1";"1";"2";"2";"2";"2014-10-06 00:15:38.883";"2014-10-06 00:30:44.833";"1";;"1";;"1";"108";"107";"module.training_block3.exec-1814.GoNoGo3";;;;;;;;;;;;;;;;;;;;;;;;;;;;;;;;;;;;;;;;;;;;;;;"1249";"2014-10-06 00:21:56.265";"NST_correctLoc";"9";"1";"FINISHED";"RIGHT";"success";"436";"0";"2014-10-06 00:21:55.015";"2";;;;;;;;;;;;;;;;;;;;;;;;;;;;;;;;;
"shuan01";"1988";;"Windows 8";"Rachel's Experiment (D.T.)";"1.0";"2";"1";"1";"2";"2";"2";"2014-10-06 00:15:38.883";"2014-10-06 00:30:44.833";"1";;"1";;"1";"109";"108";"module.training_block3.exec-1814.GoNoGo3";;;;;;;;;;;;;;;;;;;;;;;;;;;;;;;;;;;;;;;;;;;;;;;"1250";"2014-10-06 00:21:58.823";"NST_correctLoc";"17";"0";"FINISHED";"LEFT";"success";"458";"0";"2014-10-06 00:21:57.572";"2";;;;;;;;;;;;;;;;;;;;;;;;;;;;;;;;;
"shuan01";"1988";;"Windows 8";"Rachel's Experiment (D.T.)";"1.0";"2";"1";"1";"2";"2";"2";"2014-10-06 00:15:38.883";"2014-10-06 00:30:44.833";"1";;"1";;"1";"110";"109";"module.training_block3.exec-1814.GoNoGo3";;;;;;;;;;;;;;;;;;;;;;;;;;;;;;;;;;;;;;;;;;;;;;;"1249";"2014-10-06 00:22:01.384";"NST_correctLoc";"32";"0";"FINISHED";"LEFT";"success";"578";"0";"2014-10-06 00:22:00.134";"3";;;;;;;;;;;;;;;;;;;;;;;;;;;;;;;;;
"shuan01";"1988";;"Windows 8";"Rachel's Experiment (D.T.)";"1.0";"2";"1";"1";"2";"2";"2";"2014-10-06 00:15:38.883";"2014-10-06 00:30:44.833";"1";;"1";;"1";"111";"110";"module.training_block3.exec-1814.GoNoGo3";;;;;;;;;;;;;;;;;;;;;;;;;;;;;;;;;;;;;;;;;;;;;;;"1250";"2014-10-06 00:22:03.937";"ST_correctStop";"33";"1";"FINISHED";"NONE";"success";"0";"1";"2014-10-06 00:22:02.687";"3";;;;;;;;;;;;;;;;;;;;;;;;;;;;;;;;;
"shuan01";"1988";;"Windows 8";"Rachel's Experiment (D.T.)";"1.0";"2";"1";"1";"2";"2";"2";"2014-10-06 00:15:38.883";"2014-10-06 00:30:44.833";"1";;"1";;"1";"112";"111";"module.training_block3.exec-1814.GoNoGo3";;;;;;;;;;;;;;;;;;;;;;;;;;;;;;;;;;;;;;;;;;;;;;;"1250";"2014-10-06 00:22:06.489";"ST_failedStop";"34";"1";"FINISHED";"RIGHT";"failure";"950";"1";"2014-10-06 00:22:05.239";"3";;;;;;;;;;;;;;;;;;;;;;;;;;;;;;;;;
"shuan01";"1988";;"Windows 8";"Rachel's Experiment (D.T.)";"1.0";"2";"1";"1";"2";"2";"2";"2014-10-06 00:15:38.883";"2014-10-06 00:30:44.833";"1";;"1";;"1";"113";"112";"module.training_block3.exec-1814.GoNoGo3";;;;;;;;;;;;;;;;;;;;;;;;;;;;;;;;;;;;;;;;;;;;;;;"1250";"2014-10-06 00:22:09.039";"ST_correctStop";"18";"0";"FINISHED";"NONE";"success";"0";"1";"2014-10-06 00:22:07.788";"3";;;;;;;;;;;;;;;;;;;;;;;;;;;;;;;;;
"shuan01";"1988";;"Windows 8";"Rachel's Experiment (D.T.)";"1.0";"2";"1";"1";"2";"2";"2";"2014-10-06 00:15:38.883";"2014-10-06 00:30:44.833";"1";;"1";;"1";"114";"113";"module.training_block3.exec-1814.GoNoGo3";;;;;;;;;;;;;;;;;;;;;;;;;;;;;;;;;;;;;;;;;;;;;;;"1249";"2014-10-06 00:22:11.590";"NST_correctLoc";"14";"1";"FINISHED";"RIGHT";"success";"598";"0";"2014-10-06 00:22:10.340";"2";;;;;;;;;;;;;;;;;;;;;;;;;;;;;;;;;
"shuan01";"1988";;"Windows 8";"Rachel's Experiment (D.T.)";"1.0";"2";"1";"1";"2";"2";"2";"2014-10-06 00:15:38.883";"2014-10-06 00:30:44.833";"1";;"1";;"1";"115";"114";"module.training_block3.exec-1814.GoNoGo3";;;;;;;;;;;;;;;;;;;;;;;;;;;;;;;;;;;;;;;;;;;;;;;"1251";"2014-10-06 00:22:14.140";"NST_correctLoc";"16";"0";"FINISHED";"LEFT";"success";"533";"0";"2014-10-06 00:22:12.889";"2";;;;;;;;;;;;;;;;;;;;;;;;;;;;;;;;;
"shuan01";"1988";;"Windows 8";"Rachel's Experiment (D.T.)";"1.0";"2";"1";"1";"2";"2";"2";"2014-10-06 00:15:38.883";"2014-10-06 00:30:44.833";"1";;"1";;"1";"116";"115";"module.training_block3.exec-1814.GoNoGo3";;;;;;;;;;;;;;;;;;;;;;;;;;;;;;;;;;;;;;;;;;;;;;;"1249";"2014-10-06 00:22:16.689";"NST_correctLoc";"31";"0";"FINISHED";"LEFT";"success";"646";"0";"2014-10-06 00:22:15.439";"3";;;;;;;;;;;;;;;;;;;;;;;;;;;;;;;;;
"shuan01";"1988";;"Windows 8";"Rachel's Experiment (D.T.)";"1.0";"2";"1";"1";"2";"2";"2";"2014-10-06 00:15:38.883";"2014-10-06 00:30:44.833";"1";;"1";;"1";"117";"116";"module.training_block3.exec-1814.GoNoGo3";;;;;;;;;;;;;;;;;;;;;;;;;;;;;;;;;;;;;;;;;;;;;;;"1250";"2014-10-06 00:22:19.239";"NST_correctLoc";"11";"0";"FINISHED";"LEFT";"success";"517";"0";"2014-10-06 00:22:17.989";"2";;;;;;;;;;;;;;;;;;;;;;;;;;;;;;;;;
"shuan01";"1988";;"Windows 8";"Rachel's Experiment (D.T.)";"1.0";"2";"1";"1";"2";"2";"2";"2014-10-06 00:15:38.883";"2014-10-06 00:30:44.833";"1";;"1";;"1";"118";"117";"module.training_block3.exec-1814.GoNoGo3";;;;;;;;;;;;;;;;;;;;;;;;;;;;;;;;;;;;;;;;;;;;;;;"1251";"2014-10-06 00:22:21.791";"NST_correctLoc";"23";"1";"FINISHED";"RIGHT";"success";"528";"0";"2014-10-06 00:22:20.540";"3";;;;;;;;;;;;;;;;;;;;;;;;;;;;;;;;;
"shuan01";"1988";;"Windows 8";"Rachel's Experiment (D.T.)";"1.0";"2";"1";"1";"2";"2";"2";"2014-10-06 00:15:38.883";"2014-10-06 00:30:44.833";"1";;"1";;"1";"119";"118";"module.training_block3.exec-1814.GoNoGo3";;;;;;;;;;;;;;;;;;;;;;;;;;;;;;;;;;;;;;;;;;;;;;;"1249";"2014-10-06 00:22:24.341";"NST_correctLoc";"35";"0";"FINISHED";"LEFT";"success";"732";"0";"2014-10-06 00:22:23.091";"3";;;;;;;;;;;;;;;;;;;;;;;;;;;;;;;;;
"shuan01";"1988";;"Windows 8";"Rachel's Experiment (D.T.)";"1.0";"2";"1";"1";"2";"2";"2";"2014-10-06 00:15:38.883";"2014-10-06 00:30:44.833";"1";;"1";;"1";"120";"119";"module.training_block3.exec-1814.GoNoGo3";;;;;;;;;;;;;;;;;;;;;;;;;;;;;;;;;;;;;;;;;;;;;;;"1249";"2014-10-06 00:22:26.891";"ST_correctStop";"26";"0";"FINISHED";"NONE";"success";"0";"1";"2014-10-06 00:22:25.641";"3";;;;;;;;;;;;;;;;;;;;;;;;;;;;;;;;;
"shuan01";"1988";;"Windows 8";"Rachel's Experiment (D.T.)";"1.0";"2";"1";"1";"2";"2";"2";"2014-10-06 00:15:38.883";"2014-10-06 00:30:44.833";"1";;"1";;"1";"121";"120";"module.training_block3.exec-1814.GoNoGo3";;;;;;;;;;;;;;;;;;;;;;;;;;;;;;;;;;;;;;;;;;;;;;;"1250";"2014-10-06 00:22:29.439";"ST_correctStop";"29";"1";"FINISHED";"NONE";"success";"0";"1";"2014-10-06 00:22:28.188";"3";;;;;;;;;;;;;;;;;;;;;;;;;;;;;;;;;
"shuan01";"1988";;"Windows 8";"Rachel's Experiment (D.T.)";"1.0";"2";"1";"1";"2";"2";"2";"2014-10-06 00:15:38.883";"2014-10-06 00:30:44.833";"1";;"1";;"1";"122";"121";"module.training_block3.exec-1814.GoNoGo3";;;;;;;;;;;;;;;;;;;;;;;;;;;;;;;;;;;;;;;;;;;;;;;"1249";"2014-10-06 00:22:31.988";"NST_correctLoc";"25";"0";"FINISHED";"LEFT";"success";"731";"0";"2014-10-06 00:22:30.738";"3";;;;;;;;;;;;;;;;;;;;;;;;;;;;;;;;;
"shuan01";"1988";;"Windows 8";"Rachel's Experiment (D.T.)";"1.0";"2";"1";"1";"2";"2";"2";"2014-10-06 00:15:38.883";"2014-10-06 00:30:44.833";"1";;"1";;"1";"123";"122";"module.training_block3.exec-1814.GoNoGo3";;;;;;;;;;;;;;;;;;;;;;;;;;;;;;;;;;;;;;;;;;;;;;;"1250";"2014-10-06 00:22:34.539";"ST_correctStop";"8";"1";"FINISHED";"NONE";"success";"0";"1";"2014-10-06 00:22:33.288";"1";;;;;;;;;;;;;;;;;;;;;;;;;;;;;;;;;
"shuan01";"1988";;"Windows 8";"Rachel's Experiment (D.T.)";"1.0";"2";"1";"1";"2";"2";"2";"2014-10-06 00:15:38.883";"2014-10-06 00:30:44.833";"1";;"1";;"1";"124";"123";"module.training_block4.exec-6361.GoNoGo4";;;;;;;;;;;;;;;;;;;;;;;;;;;;;;;;;;;;;;;;;;;;;;;;;;;;;;;;;;;"1250";"2014-10-06 00:22:44.870";"NST_correctLoc";"15";"1";"FINISHED";"RIGHT";"success";"406";"0";"2014-10-06 00:22:43.619";"2";;;;;;;;;;;;;;;;;;;;;
"shuan01";"1988";;"Windows 8";"Rachel's Experiment (D.T.)";"1.0";"2";"1";"1";"2";"2";"2";"2014-10-06 00:15:38.883";"2014-10-06 00:30:44.833";"1";;"1";;"1";"125";"124";"module.training_block4.exec-6361.GoNoGo4";;;;;;;;;;;;;;;;;;;;;;;;;;;;;;;;;;;;;;;;;;;;;;;;;;;;;;;;;;;"1250";"2014-10-06 00:22:47.421";"NST_correctLoc";"12";"0";"FINISHED";"LEFT";"success";"473";"0";"2014-10-06 00:22:46.171";"2";;;;;;;;;;;;;;;;;;;;;
"shuan01";"1988";;"Windows 8";"Rachel's Experiment (D.T.)";"1.0";"2";"1";"1";"2";"2";"2";"2014-10-06 00:15:38.883";"2014-10-06 00:30:44.833";"1";;"1";;"1";"126";"125";"module.training_block4.exec-6361.GoNoGo4";;;;;;;;;;;;;;;;;;;;;;;;;;;;;;;;;;;;;;;;;;;;;;;;;;;;;;;;;;;"1249";"2014-10-06 00:22:49.975";"NST_correctLoc";"30";"1";"FINISHED";"RIGHT";"success";"480";"0";"2014-10-06 00:22:48.725";"3";;;;;;;;;;;;;;;;;;;;;
"shuan01";"1988";;"Windows 8";"Rachel's Experiment (D.T.)";"1.0";"2";"1";"1";"2";"2";"2";"2014-10-06 00:15:38.883";"2014-10-06 00:30:44.833";"1";;"1";;"1";"127";"126";"module.training_block4.exec-6361.GoNoGo4";;;;;;;;;;;;;;;;;;;;;;;;;;;;;;;;;;;;;;;;;;;;;;;;;;;;;;;;;;;"1249";"2014-10-06 00:22:52.524";"ST_correctStop";"22";"1";"FINISHED";"NONE";"success";"0";"1";"2014-10-06 00:22:51.273";"3";;;;;;;;;;;;;;;;;;;;;
"shuan01";"1988";;"Windows 8";"Rachel's Experiment (D.T.)";"1.0";"2";"1";"1";"2";"2";"2";"2014-10-06 00:15:38.883";"2014-10-06 00:30:44.833";"1";;"1";;"1";"128";"127";"module.training_block4.exec-6361.GoNoGo4";;;;;;;;;;;;;;;;;;;;;;;;;;;;;;;;;;;;;;;;;;;;;;;;;;;;;;;;;;;"1250";"2014-10-06 00:22:55.072";"ST_correctStop";"5";"0";"FINISHED";"NONE";"success";"0";"1";"2014-10-06 00:22:53.821";"1";;;;;;;;;;;;;;;;;;;;;
"shuan01";"1988";;"Windows 8";"Rachel's Experiment (D.T.)";"1.0";"2";"1";"1";"2";"2";"2";"2014-10-06 00:15:38.883";"2014-10-06 00:30:44.833";"1";;"1";;"1";"129";"128";"module.training_block4.exec-6361.GoNoGo4";;;;;;;;;;;;;;;;;;;;;;;;;;;;;;;;;;;;;;;;;;;;;;;;;;;;;;;;;;;"1250";"2014-10-06 00:22:57.619";"ST_correctStop";"8";"0";"FINISHED";"NONE";"success";"0";"1";"2014-10-06 00:22:56.369";"1";;;;;;;;;;;;;;;;;;;;;
"shuan01";"1988";;"Windows 8";"Rachel's Experiment (D.T.)";"1.0";"2";"1";"1";"2";"2";"2";"2014-10-06 00:15:38.883";"2014-10-06 00:30:44.833";"1";;"1";;"1";"130";"129";"module.training_block4.exec-6361.GoNoGo4";;;;;;;;;;;;;;;;;;;;;;;;;;;;;;;;;;;;;;;;;;;;;;;;;;;;;;;;;;;"1250";"2014-10-06 00:23:00.167";"NST_correctLoc";"13";"0";"FINISHED";"LEFT";"success";"709";"0";"2014-10-06 00:22:58.916";"2";;;;;;;;;;;;;;;;;;;;;
"shuan01";"1988";;"Windows 8";"Rachel's Experiment (D.T.)";"1.0";"2";"1";"1";"2";"2";"2";"2014-10-06 00:15:38.883";"2014-10-06 00:30:44.833";"1";;"1";;"1";"131";"130";"module.training_block4.exec-6361.GoNoGo4";;;;;;;;;;;;;;;;;;;;;;;;;;;;;;;;;;;;;;;;;;;;;;;;;;;;;;;;;;;"1249";"2014-10-06 00:23:02.715";"ST_correctStop";"7";"1";"FINISHED";"NONE";"success";"0";"1";"2014-10-06 00:23:01.465";"1";;;;;;;;;;;;;;;;;;;;;
"shuan01";"1988";;"Windows 8";"Rachel's Experiment (D.T.)";"1.0";"2";"1";"1";"2";"2";"2";"2014-10-06 00:15:38.883";"2014-10-06 00:30:44.833";"1";;"1";;"1";"132";"131";"module.training_block4.exec-6361.GoNoGo4";;;;;;;;;;;;;;;;;;;;;;;;;;;;;;;;;;;;;;;;;;;;;;;;;;;;;;;;;;;"1249";"2014-10-06 00:23:05.263";"NST_correctLoc";"32";"1";"FINISHED";"RIGHT";"success";"564";"0";"2014-10-06 00:23:04.013";"3";;;;;;;;;;;;;;;;;;;;;
"shuan01";"1988";;"Windows 8";"Rachel's Experiment (D.T.)";"1.0";"2";"1";"1";"2";"2";"2";"2014-10-06 00:15:38.883";"2014-10-06 00:30:44.833";"1";;"1";;"1";"133";"132";"module.training_block4.exec-6361.GoNoGo4";;;;;;;;;;;;;;;;;;;;;;;;;;;;;;;;;;;;;;;;;;;;;;;;;;;;;;;;;;;"1250";"2014-10-06 00:23:07.812";"ST_correctStop";"27";"0";"FINISHED";"NONE";"success";"0";"1";"2014-10-06 00:23:06.560";"3";;;;;;;;;;;;;;;;;;;;;
"shuan01";"1988";;"Windows 8";"Rachel's Experiment (D.T.)";"1.0";"2";"1";"1";"2";"2";"2";"2014-10-06 00:15:38.883";"2014-10-06 00:30:44.833";"1";;"1";;"1";"134";"133";"module.training_block4.exec-6361.GoNoGo4";;;;;;;;;;;;;;;;;;;;;;;;;;;;;;;;;;;;;;;;;;;;;;;;;;;;;;;;;;;"1250";"2014-10-06 00:23:10.361";"NST_correctLoc";"18";"0";"FINISHED";"LEFT";"success";"598";"0";"2014-10-06 00:23:09.111";"3";;;;;;;;;;;;;;;;;;;;;
"shuan01";"1988";;"Windows 8";"Rachel's Experiment (D.T.)";"1.0";"2";"1";"1";"2";"2";"2";"2014-10-06 00:15:38.883";"2014-10-06 00:30:44.833";"1";;"1";;"1";"135";"134";"module.training_block4.exec-6361.GoNoGo4";;;;;;;;;;;;;;;;;;;;;;;;;;;;;;;;;;;;;;;;;;;;;;;;;;;;;;;;;;;"1250";"2014-10-06 00:23:12.907";"NST_correctLoc";"14";"0";"FINISHED";"LEFT";"success";"529";"0";"2014-10-06 00:23:11.657";"2";;;;;;;;;;;;;;;;;;;;;
"shuan01";"1988";;"Windows 8";"Rachel's Experiment (D.T.)";"1.0";"2";"1";"1";"2";"2";"2";"2014-10-06 00:15:38.883";"2014-10-06 00:30:44.833";"1";;"1";;"1";"136";"135";"module.training_block4.exec-6361.GoNoGo4";;;;;;;;;;;;;;;;;;;;;;;;;;;;;;;;;;;;;;;;;;;;;;;;;;;;;;;;;;;"1250";"2014-10-06 00:23:15.455";"ST_correctStop";"23";"0";"FINISHED";"NONE";"success";"0";"1";"2014-10-06 00:23:14.205";"3";;;;;;;;;;;;;;;;;;;;;
"shuan01";"1988";;"Windows 8";"Rachel's Experiment (D.T.)";"1.0";"2";"1";"1";"2";"2";"2";"2014-10-06 00:15:38.883";"2014-10-06 00:30:44.833";"1";;"1";;"1";"137";"136";"module.training_block4.exec-6361.GoNoGo4";;;;;;;;;;;;;;;;;;;;;;;;;;;;;;;;;;;;;;;;;;;;;;;;;;;;;;;;;;;"1249";"2014-10-06 00:23:18.003";"ST_correctStop";"19";"0";"FINISHED";"NONE";"success";"0";"1";"2014-10-06 00:23:16.753";"3";;;;;;;;;;;;;;;;;;;;;
"shuan01";"1988";;"Windows 8";"Rachel's Experiment (D.T.)";"1.0";"2";"1";"1";"2";"2";"2";"2014-10-06 00:15:38.883";"2014-10-06 00:30:44.833";"1";;"1";;"1";"138";"137";"module.training_block4.exec-6361.GoNoGo4";;;;;;;;;;;;;;;;;;;;;;;;;;;;;;;;;;;;;;;;;;;;;;;;;;;;;;;;;;;"1249";"2014-10-06 00:23:20.552";"NST_correctLoc";"29";"1";"FINISHED";"RIGHT";"success";"790";"0";"2014-10-06 00:23:19.302";"3";;;;;;;;;;;;;;;;;;;;;
"shuan01";"1988";;"Windows 8";"Rachel's Experiment (D.T.)";"1.0";"2";"1";"1";"2";"2";"2";"2014-10-06 00:15:38.883";"2014-10-06 00:30:44.833";"1";;"1";;"1";"139";"138";"module.training_block4.exec-6361.GoNoGo4";;;;;;;;;;;;;;;;;;;;;;;;;;;;;;;;;;;;;;;;;;;;;;;;;;;;;;;;;;;"1250";"2014-10-06 00:23:23.112";"NST_correctLoc";"9";"0";"FINISHED";"LEFT";"success";"482";"0";"2014-10-06 00:23:21.862";"2";;;;;;;;;;;;;;;;;;;;;
"shuan01";"1988";;"Windows 8";"Rachel's Experiment (D.T.)";"1.0";"2";"1";"1";"2";"2";"2";"2014-10-06 00:15:38.883";"2014-10-06 00:30:44.833";"1";;"1";;"1";"140";"139";"module.training_block4.exec-6361.GoNoGo4";;;;;;;;;;;;;;;;;;;;;;;;;;;;;;;;;;;;;;;;;;;;;;;;;;;;;;;;;;;"1250";"2014-10-06 00:23:25.661";"NST_correctLoc";"33";"1";"FINISHED";"RIGHT";"success";"431";"0";"2014-10-06 00:23:24.410";"3";;;;;;;;;;;;;;;;;;;;;
"shuan01";"1988";;"Windows 8";"Rachel's Experiment (D.T.)";"1.0";"2";"1";"1";"2";"2";"2";"2014-10-06 00:15:38.883";"2014-10-06 00:30:44.833";"1";;"1";;"1";"141";"140";"module.training_block4.exec-6361.GoNoGo4";;;;;;;;;;;;;;;;;;;;;;;;;;;;;;;;;;;;;;;;;;;;;;;;;;;;;;;;;;;"1249";"2014-10-06 00:23:28.210";"NST_correctLoc";"28";"0";"FINISHED";"LEFT";"success";"499";"0";"2014-10-06 00:23:26.960";"3";;;;;;;;;;;;;;;;;;;;;
"shuan01";"1988";;"Windows 8";"Rachel's Experiment (D.T.)";"1.0";"2";"1";"1";"2";"2";"2";"2014-10-06 00:15:38.883";"2014-10-06 00:30:44.833";"1";;"1";;"1";"142";"141";"module.training_block4.exec-6361.GoNoGo4";;;;;;;;;;;;;;;;;;;;;;;;;;;;;;;;;;;;;;;;;;;;;;;;;;;;;;;;;;;"1249";"2014-10-06 00:23:30.756";"NST_correctLoc";"11";"0";"FINISHED";"LEFT";"success";"559";"0";"2014-10-06 00:23:29.506";"2";;;;;;;;;;;;;;;;;;;;;
"shuan01";"1988";;"Windows 8";"Rachel's Experiment (D.T.)";"1.0";"2";"1";"1";"2";"2";"2";"2014-10-06 00:15:38.883";"2014-10-06 00:30:44.833";"1";;"1";;"1";"143";"142";"module.training_block4.exec-6361.GoNoGo4";;;;;;;;;;;;;;;;;;;;;;;;;;;;;;;;;;;;;;;;;;;;;;;;;;;;;;;;;;;"1249";"2014-10-06 00:23:33.302";"NST_correctLoc";"17";"1";"FINISHED";"RIGHT";"success";"456";"0";"2014-10-06 00:23:32.052";"2";;;;;;;;;;;;;;;;;;;;;
"shuan01";"1988";;"Windows 8";"Rachel's Experiment (D.T.)";"1.0";"2";"1";"1";"2";"2";"2";"2014-10-06 00:15:38.883";"2014-10-06 00:30:44.833";"1";;"1";;"1";"144";"143";"module.training_block4.exec-6361.GoNoGo4";;;;;;;;;;;;;;;;;;;;;;;;;;;;;;;;;;;;;;;;;;;;;;;;;;;;;;;;;;;"1250";"2014-10-06 00:23:35.851";"NST_correctLoc";"26";"1";"FINISHED";"RIGHT";"success";"522";"0";"2014-10-06 00:23:34.601";"3";;;;;;;;;;;;;;;;;;;;;
"shuan01";"1988";;"Windows 8";"Rachel's Experiment (D.T.)";"1.0";"2";"1";"1";"2";"2";"2";"2014-10-06 00:15:38.883";"2014-10-06 00:30:44.833";"1";;"1";;"1";"145";"144";"module.training_block4.exec-6361.GoNoGo4";;;;;;;;;;;;;;;;;;;;;;;;;;;;;;;;;;;;;;;;;;;;;;;;;;;;;;;;;;;"1249";"2014-10-06 00:23:38.398";"ST_correctStop";"4";"1";"FINISHED";"NONE";"success";"0";"1";"2014-10-06 00:23:37.147";"1";;;;;;;;;;;;;;;;;;;;;
"shuan01";"1988";;"Windows 8";"Rachel's Experiment (D.T.)";"1.0";"2";"1";"1";"2";"2";"2";"2014-10-06 00:15:38.883";"2014-10-06 00:30:44.833";"1";;"1";;"1";"146";"145";"module.training_block4.exec-6361.GoNoGo4";;;;;;;;;;;;;;;;;;;;;;;;;;;;;;;;;;;;;;;;;;;;;;;;;;;;;;;;;;;"1249";"2014-10-06 00:23:40.943";"ST_correctStop";"3";"0";"FINISHED";"NONE";"success";"0";"1";"2014-10-06 00:23:39.693";"1";;;;;;;;;;;;;;;;;;;;;
"shuan01";"1988";;"Windows 8";"Rachel's Experiment (D.T.)";"1.0";"2";"1";"1";"2";"2";"2";"2014-10-06 00:15:38.883";"2014-10-06 00:30:44.833";"1";;"1";;"1";"147";"146";"module.training_block4.exec-6361.GoNoGo4";;;;;;;;;;;;;;;;;;;;;;;;;;;;;;;;;;;;;;;;;;;;;;;;;;;;;;;;;;;"1249";"2014-10-06 00:23:43.490";"ST_correctStop";"6";"0";"FINISHED";"NONE";"success";"0";"1";"2014-10-06 00:23:42.239";"1";;;;;;;;;;;;;;;;;;;;;
"shuan01";"1988";;"Windows 8";"Rachel's Experiment (D.T.)";"1.0";"2";"1";"1";"2";"2";"2";"2014-10-06 00:15:38.883";"2014-10-06 00:30:44.833";"1";;"1";;"1";"148";"147";"module.training_block4.exec-6361.GoNoGo4";;;;;;;;;;;;;;;;;;;;;;;;;;;;;;;;;;;;;;;;;;;;;;;;;;;;;;;;;;;"1250";"2014-10-06 00:23:46.038";"ST_correctStop";"2";"1";"FINISHED";"NONE";"success";"0";"1";"2014-10-06 00:23:44.788";"1";;;;;;;;;;;;;;;;;;;;;
"shuan01";"1988";;"Windows 8";"Rachel's Experiment (D.T.)";"1.0";"2";"1";"1";"2";"2";"2";"2014-10-06 00:15:38.883";"2014-10-06 00:30:44.833";"1";;"1";;"1";"149";"148";"module.training_block4.exec-6361.GoNoGo4";;;;;;;;;;;;;;;;;;;;;;;;;;;;;;;;;;;;;;;;;;;;;;;;;;;;;;;;;;;"1249";"2014-10-06 00:23:48.582";"NST_correctLoc";"35";"0";"FINISHED";"LEFT";"success";"694";"0";"2014-10-06 00:23:47.332";"3";;;;;;;;;;;;;;;;;;;;;
"shuan01";"1988";;"Windows 8";"Rachel's Experiment (D.T.)";"1.0";"2";"1";"1";"2";"2";"2";"2014-10-06 00:15:38.883";"2014-10-06 00:30:44.833";"1";;"1";;"1";"150";"149";"module.training_block4.exec-6361.GoNoGo4";;;;;;;;;;;;;;;;;;;;;;;;;;;;;;;;;;;;;;;;;;;;;;;;;;;;;;;;;;;"1249";"2014-10-06 00:23:51.126";"NST_correctLoc";"16";"0";"FINISHED";"LEFT";"success";"577";"0";"2014-10-06 00:23:49.875";"2";;;;;;;;;;;;;;;;;;;;;
"shuan01";"1988";;"Windows 8";"Rachel's Experiment (D.T.)";"1.0";"2";"1";"1";"2";"2";"2";"2014-10-06 00:15:38.883";"2014-10-06 00:30:44.833";"1";;"1";;"1";"151";"150";"module.training_block4.exec-6361.GoNoGo4";;;;;;;;;;;;;;;;;;;;;;;;;;;;;;;;;;;;;;;;;;;;;;;;;;;;;;;;;;;"1249";"2014-10-06 00:23:53.672";"ST_correctStop";"0";"1";"FINISHED";"NONE";"success";"0";"1";"2014-10-06 00:23:52.421";"1";;;;;;;;;;;;;;;;;;;;;
"shuan01";"1988";;"Windows 8";"Rachel's Experiment (D.T.)";"1.0";"2";"1";"1";"2";"2";"2";"2014-10-06 00:15:38.883";"2014-10-06 00:30:44.833";"1";;"1";;"1";"152";"151";"module.training_block4.exec-6361.GoNoGo4";;;;;;;;;;;;;;;;;;;;;;;;;;;;;;;;;;;;;;;;;;;;;;;;;;;;;;;;;;;"1249";"2014-10-06 00:23:56.217";"ST_correctStop";"24";"0";"FINISHED";"NONE";"success";"0";"1";"2014-10-06 00:23:54.967";"3";;;;;;;;;;;;;;;;;;;;;
"shuan01";"1988";;"Windows 8";"Rachel's Experiment (D.T.)";"1.0";"2";"1";"1";"2";"2";"2";"2014-10-06 00:15:38.883";"2014-10-06 00:30:44.833";"1";;"1";;"1";"153";"152";"module.training_block4.exec-6361.GoNoGo4";;;;;;;;;;;;;;;;;;;;;;;;;;;;;;;;;;;;;;;;;;;;;;;;;;;;;;;;;;;"1250";"2014-10-06 00:23:58.764";"ST_correctStop";"34";"1";"FINISHED";"NONE";"success";"0";"1";"2014-10-06 00:23:57.513";"3";;;;;;;;;;;;;;;;;;;;;
"shuan01";"1988";;"Windows 8";"Rachel's Experiment (D.T.)";"1.0";"2";"1";"1";"2";"2";"2";"2014-10-06 00:15:38.883";"2014-10-06 00:30:44.833";"1";;"1";;"1";"154";"153";"module.training_block4.exec-6361.GoNoGo4";;;;;;;;;;;;;;;;;;;;;;;;;;;;;;;;;;;;;;;;;;;;;;;;;;;;;;;;;;;"1249";"2014-10-06 00:24:01.310";"ST_correctStop";"25";"0";"FINISHED";"NONE";"success";"0";"1";"2014-10-06 00:24:00.059";"3";;;;;;;;;;;;;;;;;;;;;
"shuan01";"1988";;"Windows 8";"Rachel's Experiment (D.T.)";"1.0";"2";"1";"1";"2";"2";"2";"2014-10-06 00:15:38.883";"2014-10-06 00:30:44.833";"1";;"1";;"1";"155";"154";"module.training_block4.exec-6361.GoNoGo4";;;;;;;;;;;;;;;;;;;;;;;;;;;;;;;;;;;;;;;;;;;;;;;;;;;;;;;;;;;"1250";"2014-10-06 00:24:03.856";"ST_correctStop";"31";"0";"FINISHED";"NONE";"success";"0";"1";"2014-10-06 00:24:02.605";"3";;;;;;;;;;;;;;;;;;;;;
"shuan01";"1988";;"Windows 8";"Rachel's Experiment (D.T.)";"1.0";"2";"1";"1";"2";"2";"2";"2014-10-06 00:15:38.883";"2014-10-06 00:30:44.833";"1";;"1";;"1";"156";"155";"module.training_block4.exec-6361.GoNoGo4";;;;;;;;;;;;;;;;;;;;;;;;;;;;;;;;;;;;;;;;;;;;;;;;;;;;;;;;;;;"1249";"2014-10-06 00:24:06.433";"ST_correctStop";"21";"1";"FINISHED";"NONE";"success";"0";"1";"2014-10-06 00:24:05.183";"3";;;;;;;;;;;;;;;;;;;;;
"shuan01";"1988";;"Windows 8";"Rachel's Experiment (D.T.)";"1.0";"2";"1";"1";"2";"2";"2";"2014-10-06 00:15:38.883";"2014-10-06 00:30:44.833";"1";;"1";;"1";"157";"156";"module.training_block4.exec-6361.GoNoGo4";;;;;;;;;;;;;;;;;;;;;;;;;;;;;;;;;;;;;;;;;;;;;;;;;;;;;;;;;;;"1249";"2014-10-06 00:24:08.979";"NST_correctLoc";"20";"1";"FINISHED";"RIGHT";"success";"887";"0";"2014-10-06 00:24:07.729";"3";;;;;;;;;;;;;;;;;;;;;
"shuan01";"1988";;"Windows 8";"Rachel's Experiment (D.T.)";"1.0";"2";"1";"1";"2";"2";"2";"2014-10-06 00:15:38.883";"2014-10-06 00:30:44.833";"1";;"1";;"1";"158";"157";"module.training_block4.exec-6361.GoNoGo4";;;;;;;;;;;;;;;;;;;;;;;;;;;;;;;;;;;;;;;;;;;;;;;;;;;;;;;;;;;"1249";"2014-10-06 00:24:11.523";"NST_correctLoc";"10";"0";"FINISHED";"LEFT";"success";"481";"0";"2014-10-06 00:24:10.273";"2";;;;;;;;;;;;;;;;;;;;;
"shuan01";"1988";;"Windows 8";"Rachel's Experiment (D.T.)";"1.0";"2";"1";"1";"2";"2";"2";"2014-10-06 00:15:38.883";"2014-10-06 00:30:44.833";"1";;"1";;"1";"159";"158";"module.training_block4.exec-6361.GoNoGo4";;;;;;;;;;;;;;;;;;;;;;;;;;;;;;;;;;;;;;;;;;;;;;;;;;;;;;;;;;;"1250";"2014-10-06 00:24:14.082";"ST_correctStop";"1";"0";"FINISHED";"NONE";"success";"0";"1";"2014-10-06 00:24:12.831";"1";;;;;;;;;;;;;;;;;;;;;
"shuan01";"1988";;"Windows 8";"Rachel's Experiment (D.T.)";"1.0";"2";"1";"1";"2";"2";"2";"2014-10-06 00:15:38.883";"2014-10-06 00:30:44.833";"1";;"1";;"1";"160";"159";"module.devaluation_practice.exec-6897.devalPractice";;;;;;;;;;;;"20981";"2014-10-06 00:25:25.539";"0";"7";"6";"6";"6597";"6271";"5009";"2014-10-06 00:25:04.558";;;;;;;;;;;;;;;;;;;;;;;;;;;;;;;;;;;;;;;;;;;;;;;;;;;;;;;;;;;;;;;;;;;;;;
"shuan01";"1988";;"Windows 8";"Rachel's Experiment (D.T.)";"1.0";"2";"1";"1";"2";"2";"2";"2014-10-06 00:15:38.883";"2014-10-06 00:30:44.833";"1";;"1";;"1";"161";"160";"module.devaluation_practice.exec-6897.devalPractice";;;;;;;;;;;;"15697";"2014-10-06 00:25:41.289";"1";"3";"5";"3";"3518";"3306";"5837";"2014-10-06 00:25:25.591";;;;;;;;;;;;;;;;;;;;;;;;;;;;;;;;;;;;;;;;;;;;;;;;;;;;;;;;;;;;;;;;;;;;;;
"shuan01";"1988";;"Windows 8";"Rachel's Experiment (D.T.)";"1.0";"2";"1";"1";"2";"2";"2";"2014-10-06 00:15:38.883";"2014-10-06 00:30:44.833";"1";;"1";;"1";"162";"161";"module.devaluation_practice.exec-6897.devalPractice";;;;;;;;;;;;"14812";"2014-10-06 00:25:56.152";"2";"6";"8";"8";"5325";"2317";"4103";"2014-10-06 00:25:41.340";;;;;;;;;;;;;;;;;;;;;;;;;;;;;;;;;;;;;;;;;;;;;;;;;;;;;;;;;;;;;;;;;;;;;;
"shuan01";"1988";;"Windows 8";"Rachel's Experiment (D.T.)";"1.0";"2";"1";"1";"2";"2";"2";"2014-10-06 00:15:38.883";"2014-10-06 00:30:44.833";"1";;"1";;"1";"163";"162";"module.devaluation_practice.exec-6897.devalPractice";;;;;;;;;;;;"11302";"2014-10-06 00:26:07.504";"3";"6";"7";"7";"2247";"1364";"4637";"2014-10-06 00:25:56.201";;;;;;;;;;;;;;;;;;;;;;;;;;;;;;;;;;;;;;;;;;;;;;;;;;;;;;;;;;;;;;;;;;;;;;
"shuan01";"1988";;"Windows 8";"Rachel's Experiment (D.T.)";"1.0";"2";"1";"1";"2";"2";"2";"2014-10-06 00:15:38.883";"2014-10-06 00:30:44.833";"1";;"1";;"1";"164";"163";"module.devaluation_block1.exec-8164.deval1";"14959";"2014-10-06 00:26:26.564";"23";"9";"6";"9";"5372";"2932";"3601";"2014-10-06 00:26:11.605";"3";;;;;;;;;;;;;;;;;;;;;;;;;;;;;;;;;;;;;;;;;;;;;;;;;;;;;;;;;;;;;;;;;;;;;;;;;;;;;;;;
"shuan01";"1988";;"Windows 8";"Rachel's Experiment (D.T.)";"1.0";"2";"1";"1";"2";"2";"2";"2014-10-06 00:15:38.883";"2014-10-06 00:30:44.833";"1";;"1";;"1";"165";"164";"module.devaluation_block1.exec-8164.deval1";"10653";"2014-10-06 00:26:37.270";"17";"2";"2";"1";"2576";"2347";"2684";"2014-10-06 00:26:26.616";"2";;;;;;;;;;;;;;;;;;;;;;;;;;;;;;;;;;;;;;;;;;;;;;;;;;;;;;;;;;;;;;;;;;;;;;;;;;;;;;;;
"shuan01";"1988";;"Windows 8";"Rachel's Experiment (D.T.)";"1.0";"2";"1";"1";"2";"2";"2";"2014-10-06 00:15:38.883";"2014-10-06 00:30:44.833";"1";;"1";;"1";"166";"165";"module.devaluation_block1.exec-8164.deval1";"9375";"2014-10-06 00:26:46.695";"8";"7";"6";"8";"2020";"2158";"2149";"2014-10-06 00:26:37.319";"1";;;;;;;;;;;;;;;;;;;;;;;;;;;;;;;;;;;;;;;;;;;;;;;;;;;;;;;;;;;;;;;;;;;;;;;;;;;;;;;;
"shuan01";"1988";;"Windows 8";"Rachel's Experiment (D.T.)";"1.0";"2";"1";"1";"2";"2";"2";"2014-10-06 00:15:38.883";"2014-10-06 00:30:44.833";"1";;"1";;"1";"167";"166";"module.devaluation_block1.exec-8164.deval1";"9672";"2014-10-06 00:26:56.434";"22";"7";"5";"7";"3460";"1367";"1799";"2014-10-06 00:26:46.762";"3";;;;;;;;;;;;;;;;;;;;;;;;;;;;;;;;;;;;;;;;;;;;;;;;;;;;;;;;;;;;;;;;;;;;;;;;;;;;;;;;
"shuan01";"1988";;"Windows 8";"Rachel's Experiment (D.T.)";"1.0";"2";"1";"1";"2";"2";"2";"2014-10-06 00:15:38.883";"2014-10-06 00:30:44.833";"1";;"1";;"1";"168";"167";"module.devaluation_block1.exec-8164.deval1";"9794";"2014-10-06 00:27:06.280";"24";"5";"7";"9";"2965";"1791";"1993";"2014-10-06 00:26:56.486";"3";;;;;;;;;;;;;;;;;;;;;;;;;;;;;;;;;;;;;;;;;;;;;;;;;;;;;;;;;;;;;;;;;;;;;;;;;;;;;;;;
"shuan01";"1988";;"Windows 8";"Rachel's Experiment (D.T.)";"1.0";"2";"1";"1";"2";"2";"2";"2014-10-06 00:15:38.883";"2014-10-06 00:30:44.833";"1";;"1";;"1";"169";"168";"module.devaluation_block1.exec-8164.deval1";"10064";"2014-10-06 00:27:16.395";"7";"6";"5";"7";"1556";"3785";"1675";"2014-10-06 00:27:06.331";"1";;;;;;;;;;;;;;;;;;;;;;;;;;;;;;;;;;;;;;;;;;;;;;;;;;;;;;;;;;;;;;;;;;;;;;;;;;;;;;;;
"shuan01";"1988";;"Windows 8";"Rachel's Experiment (D.T.)";"1.0";"2";"1";"1";"2";"2";"2";"2014-10-06 00:15:38.883";"2014-10-06 00:30:44.833";"1";;"1";;"1";"170";"169";"module.devaluation_block1.exec-8164.deval1";"14019";"2014-10-06 00:27:30.467";"6";"6";"5";"7";"5770";"1541";"3661";"2014-10-06 00:27:16.448";"1";;;;;;;;;;;;;;;;;;;;;;;;;;;;;;;;;;;;;;;;;;;;;;;;;;;;;;;;;;;;;;;;;;;;;;;;;;;;;;;;
"shuan01";"1988";;"Windows 8";"Rachel's Experiment (D.T.)";"1.0";"2";"1";"1";"2";"2";"2";"2014-10-06 00:15:38.883";"2014-10-06 00:30:44.833";"1";;"1";;"1";"171";"170";"module.devaluation_block1.exec-8164.deval1";"8647";"2014-10-06 00:27:39.166";"5";"7";"5";"7";"3014";"763";"1824";"2014-10-06 00:27:30.518";"1";;;;;;;;;;;;;;;;;;;;;;;;;;;;;;;;;;;;;;;;;;;;;;;;;;;;;;;;;;;;;;;;;;;;;;;;;;;;;;;;
"shuan01";"1988";;"Windows 8";"Rachel's Experiment (D.T.)";"1.0";"2";"1";"1";"2";"2";"2";"2014-10-06 00:15:38.883";"2014-10-06 00:30:44.833";"1";;"1";;"1";"172";"171";"module.devaluation_block1.exec-8164.deval1";"10183";"2014-10-06 00:27:49.401";"21";"7";"8";"9";"3258";"2089";"1790";"2014-10-06 00:27:39.218";"3";;;;;;;;;;;;;;;;;;;;;;;;;;;;;;;;;;;;;;;;;;;;;;;;;;;;;;;;;;;;;;;;;;;;;;;;;;;;;;;;
"shuan01";"1988";;"Windows 8";"Rachel's Experiment (D.T.)";"1.0";"2";"1";"1";"2";"2";"2";"2014-10-06 00:15:38.883";"2014-10-06 00:30:44.833";"1";;"1";;"1";"173";"172";"module.devaluation_block1.exec-8164.deval1";"11048";"2014-10-06 00:28:00.500";"25";"7";"5";"8";"2143";"2566";"3296";"2014-10-06 00:27:49.452";"3";;;;;;;;;;;;;;;;;;;;;;;;;;;;;;;;;;;;;;;;;;;;;;;;;;;;;;;;;;;;;;;;;;;;;;;;;;;;;;;;
"shuan01";"1988";;"Windows 8";"Rachel's Experiment (D.T.)";"1.0";"2";"1";"1";"2";"2";"2";"2014-10-06 00:15:38.883";"2014-10-06 00:30:44.833";"1";;"1";;"1";"174";"173";"module.devaluation_block1.exec-8164.deval1";"10377";"2014-10-06 00:28:10.930";"16";"2";"2";"2";"3703";"2070";"1558";"2014-10-06 00:28:00.552";"2";;;;;;;;;;;;;;;;;;;;;;;;;;;;;;;;;;;;;;;;;;;;;;;;;;;;;;;;;;;;;;;;;;;;;;;;;;;;;;;;
"shuan01";"1988";;"Windows 8";"Rachel's Experiment (D.T.)";"1.0";"2";"1";"1";"2";"2";"2";"2014-10-06 00:15:38.883";"2014-10-06 00:30:44.833";"1";;"1";;"1";"175";"174";"module.devaluation_block1.exec-8164.deval1";"10373";"2014-10-06 00:28:21.352";"12";"7";"7";"8";"2711";"2285";"2331";"2014-10-06 00:28:10.980";"2";;;;;;;;;;;;;;;;;;;;;;;;;;;;;;;;;;;;;;;;;;;;;;;;;;;;;;;;;;;;;;;;;;;;;;;;;;;;;;;;
"shuan01";"1988";;"Windows 8";"Rachel's Experiment (D.T.)";"1.0";"2";"1";"1";"2";"2";"2";"2014-10-06 00:15:38.883";"2014-10-06 00:30:44.833";"1";;"1";;"1";"176";"175";"module.devaluation_block1.exec-8164.deval1";"9735";"2014-10-06 00:28:31.139";"15";"1";"2";"2";"2390";"2274";"2028";"2014-10-06 00:28:21.404";"2";;;;;;;;;;;;;;;;;;;;;;;;;;;;;;;;;;;;;;;;;;;;;;;;;;;;;;;;;;;;;;;;;;;;;;;;;;;;;;;;
"shuan01";"1988";;"Windows 8";"Rachel's Experiment (D.T.)";"1.0";"2";"1";"1";"2";"2";"2";"2014-10-06 00:15:38.883";"2014-10-06 00:30:44.833";"1";;"1";;"1";"177";"176";"module.devaluation_block1.exec-8164.deval1";"9354";"2014-10-06 00:28:40.547";"19";"8";"8";"8";"2213";"1394";"2702";"2014-10-06 00:28:31.193";"3";;;;;;;;;;;;;;;;;;;;;;;;;;;;;;;;;;;;;;;;;;;;;;;;;;;;;;;;;;;;;;;;;;;;;;;;;;;;;;;;
"shuan01";"1988";;"Windows 8";"Rachel's Experiment (D.T.)";"1.0";"2";"1";"1";"2";"2";"2";"2014-10-06 00:15:38.883";"2014-10-06 00:30:44.833";"1";;"1";;"1";"178";"177";"module.devaluation_block1.exec-8164.deval1";"11342";"2014-10-06 00:28:51.941";"14";"7";"6";"7";"2788";"1099";"4411";"2014-10-06 00:28:40.598";"2";;;;;;;;;;;;;;;;;;;;;;;;;;;;;;;;;;;;;;;;;;;;;;;;;;;;;;;;;;;;;;;;;;;;;;;;;;;;;;;;
"shuan01";"1988";;"Windows 8";"Rachel's Experiment (D.T.)";"1.0";"2";"1";"1";"2";"2";"2";"2014-10-06 00:15:38.883";"2014-10-06 00:30:44.833";"1";;"1";;"1";"179";"178";"module.devaluation_block1.exec-8164.deval1";"8999";"2014-10-06 00:29:00.992";"26";"8";"6";"9";"1883";"2570";"1504";"2014-10-06 00:28:51.993";"3";;;;;;;;;;;;;;;;;;;;;;;;;;;;;;;;;;;;;;;;;;;;;;;;;;;;;;;;;;;;;;;;;;;;;;;;;;;;;;;;
"shuan01";"1988";;"Windows 8";"Rachel's Experiment (D.T.)";"1.0";"2";"1";"1";"2";"2";"2";"2014-10-06 00:15:38.883";"2014-10-06 00:30:44.833";"1";;"1";;"1";"180";"179";"module.devaluation_block1.exec-8164.deval1";"10190";"2014-10-06 00:29:11.230";"3";"7";"5";"8";"3620";"989";"2538";"2014-10-06 00:29:01.040";"1";;;;;;;;;;;;;;;;;;;;;;;;;;;;;;;;;;;;;;;;;;;;;;;;;;;;;;;;;;;;;;;;;;;;;;;;;;;;;;;;
"shuan01";"1988";;"Windows 8";"Rachel's Experiment (D.T.)";"1.0";"2";"1";"1";"2";"2";"2";"2014-10-06 00:15:38.883";"2014-10-06 00:30:44.833";"1";;"1";;"1";"181";"180";"module.devaluation_block1.exec-8164.deval1";"9773";"2014-10-06 00:29:21.055";"1";"6";"7";"8";"2341";"2255";"2134";"2014-10-06 00:29:11.280";"1";;;;;;;;;;;;;;;;;;;;;;;;;;;;;;;;;;;;;;;;;;;;;;;;;;;;;;;;;;;;;;;;;;;;;;;;;;;;;;;;
"shuan01";"1988";;"Windows 8";"Rachel's Experiment (D.T.)";"1.0";"2";"1";"1";"2";"2";"2";"2014-10-06 00:15:38.883";"2014-10-06 00:30:44.833";"1";;"1";;"1";"182";"181";"module.devaluation_block1.exec-8164.deval1";"8429";"2014-10-06 00:29:29.536";"20";"6";"7";"7";"2328";"1174";"1884";"2014-10-06 00:29:21.107";"3";;;;;;;;;;;;;;;;;;;;;;;;;;;;;;;;;;;;;;;;;;;;;;;;;;;;;;;;;;;;;;;;;;;;;;;;;;;;;;;;
"shuan01";"1988";;"Windows 8";"Rachel's Experiment (D.T.)";"1.0";"2";"1";"1";"2";"2";"2";"2014-10-06 00:15:38.883";"2014-10-06 00:30:44.833";"1";;"1";;"1";"183";"182";"module.devaluation_block1.exec-8164.deval1";"12856";"2014-10-06 00:29:42.443";"13";"5";"5";"7";"6662";"926";"2225";"2014-10-06 00:29:29.587";"2";;;;;;;;;;;;;;;;;;;;;;;;;;;;;;;;;;;;;;;;;;;;;;;;;;;;;;;;;;;;;;;;;;;;;;;;;;;;;;;;
"shuan01";"1988";;"Windows 8";"Rachel's Experiment (D.T.)";"1.0";"2";"1";"1";"2";"2";"2";"2014-10-06 00:15:38.883";"2014-10-06 00:30:44.833";"1";;"1";;"1";"184";"183";"module.devaluation_block1.exec-8164.deval1";"7110";"2014-10-06 00:29:49.607";"9";"5";"5";"5";"1572";"827";"1667";"2014-10-06 00:29:42.497";"2";;;;;;;;;;;;;;;;;;;;;;;;;;;;;;;;;;;;;;;;;;;;;;;;;;;;;;;;;;;;;;;;;;;;;;;;;;;;;;;;
"shuan01";"1988";;"Windows 8";"Rachel's Experiment (D.T.)";"1.0";"2";"1";"1";"2";"2";"2";"2014-10-06 00:15:38.883";"2014-10-06 00:30:44.833";"1";;"1";;"1";"185";"184";"module.devaluation_block1.exec-8164.deval1";"10429";"2014-10-06 00:30:00.088";"18";"5";"7";"8";"2563";"2357";"2467";"2014-10-06 00:29:49.659";"3";;;;;;;;;;;;;;;;;;;;;;;;;;;;;;;;;;;;;;;;;;;;;;;;;;;;;;;;;;;;;;;;;;;;;;;;;;;;;;;;
"shuan01";"1988";;"Windows 8";"Rachel's Experiment (D.T.)";"1.0";"2";"1";"1";"2";"2";"2";"2014-10-06 00:15:38.883";"2014-10-06 00:30:44.833";"1";;"1";;"1";"186";"185";"module.devaluation_block1.exec-8164.deval1";"8703";"2014-10-06 00:30:08.843";"0";"6";"7";"7";"1509";"1585";"2567";"2014-10-06 00:30:00.139";"1";;;;;;;;;;;;;;;;;;;;;;;;;;;;;;;;;;;;;;;;;;;;;;;;;;;;;;;;;;;;;;;;;;;;;;;;;;;;;;;;
"shuan01";"1988";;"Windows 8";"Rachel's Experiment (D.T.)";"1.0";"2";"1";"1";"2";"2";"2";"2014-10-06 00:15:38.883";"2014-10-06 00:30:44.833";"1";;"1";;"1";"187";"186";"module.devaluation_block1.exec-8164.deval1";"7790";"2014-10-06 00:30:16.687";"4";"9";"5";"9";"2102";"1259";"1387";"2014-10-06 00:30:08.896";"1";;;;;;;;;;;;;;;;;;;;;;;;;;;;;;;;;;;;;;;;;;;;;;;;;;;;;;;;;;;;;;;;;;;;;;;;;;;;;;;;
"shuan01";"1988";;"Windows 8";"Rachel's Experiment (D.T.)";"1.0";"2";"1";"1";"2";"2";"2";"2014-10-06 00:15:38.883";"2014-10-06 00:30:44.833";"1";;"1";;"1";"188";"187";"module.devaluation_block1.exec-8164.deval1";"9163";"2014-10-06 00:30:25.903";"10";"6";"5";"4";"3069";"1328";"1721";"2014-10-06 00:30:16.739";"2";;;;;;;;;;;;;;;;;;;;;;;;;;;;;;;;;;;;;;;;;;;;;;;;;;;;;;;;;;;;;;;;;;;;;;;;;;;;;;;;
"shuan01";"1988";;"Windows 8";"Rachel's Experiment (D.T.)";"1.0";"2";"1";"1";"2";"2";"2";"2014-10-06 00:15:38.883";"2014-10-06 00:30:44.833";"1";;"1";;"1";"189";"188";"module.devaluation_block1.exec-8164.deval1";"9579";"2014-10-06 00:30:35.534";"2";"6";"7";"8";"3683";"1419";"1435";"2014-10-06 00:30:25.955";"1";;;;;;;;;;;;;;;;;;;;;;;;;;;;;;;;;;;;;;;;;;;;;;;;;;;;;;;;;;;;;;;;;;;;;;;;;;;;;;;;
"shuan01";"1988";;"Windows 8";"Rachel's Experiment (D.T.)";"1.0";"2";"1";"1";"2";"2";"2";"2014-10-06 00:15:38.883";"2014-10-06 00:30:44.833";"1";;"1";;"1";"190";"189";"module.devaluation_block1.exec-8164.deval1";"6755";"2014-10-06 00:30:42.339";"11";"6";"5";"4";"1263";"967";"1482";"2014-10-06 00:30:35.584";"2";;;;;;;;;;;;;;;;;;;;;;;;;;;;;;;;;;;;;;;;;;;;;;;;;;;;;;;;;;;;;;;;;;;;;;;;;;;;;;;;
