"user.name";"user.yearOfBirth";"user.sex";"user.osName";"module.name";"module.version";"module.online.subject.code";"module.online.study.id";"module.online.module.nr";"module.online.group.nr";"session.id";"session.index";"session.startTime";"session.endTime";"session.completed";"session.node-1665.DevalQorder";"session.node-7693.conditionType";"trial.id";"trial.index";"trial.name";"trial.deval1.durationTime";"trial.deval1.endTime";"trial.deval1.icon";"trial.deval1.Resp_Attractive";"trial.deval1.Resp_Eat";"trial.deval1.Resp_Taste";"trial.deval1.RT_Attractive";"trial.deval1.RT_Eat";"trial.deval1.RT_Taste";"trial.deval1.startTime";"trial.deval1.stimulus type";"trial.devalPractice.durationTime";"trial.devalPractice.endTime";"trial.devalPractice.icon";"trial.devalPractice.Resp_Attractive";"trial.devalPractice.Resp_Eat";"trial.devalPractice.Resp_Taste";"trial.devalPractice.RT_Attractive";"trial.devalPractice.RT_Eat";"trial.devalPractice.RT_Taste";"trial.devalPractice.startTime";"trial.devalPractice.stimulus type";"trial.GoNoGo1.durationTime";"trial.GoNoGo1.endTime";"trial.GoNoGo1.Error Type";"trial.GoNoGo1.icon";"trial.GoNoGo1.location";"trial.GoNoGo1.outcome";"trial.GoNoGo1.response";"trial.GoNoGo1.result";"trial.GoNoGo1.RT";"trial.GoNoGo1.signal";"trial.GoNoGo1.startTime";"trial.GoNoGo1.stimulus type";"trial.GoNoGo2.durationTime";"trial.GoNoGo2.endTime";"trial.GoNoGo2.Error Type";"trial.GoNoGo2.icon";"trial.GoNoGo2.location";"trial.GoNoGo2.outcome";"trial.GoNoGo2.response";"trial.GoNoGo2.result";"trial.GoNoGo2.RT";"trial.GoNoGo2.signal";"trial.GoNoGo2.startTime";"trial.GoNoGo2.stimulus type";"trial.GoNoGo3.durationTime";"trial.GoNoGo3.endTime";"trial.GoNoGo3.Error Type";"trial.GoNoGo3.icon";"trial.GoNoGo3.location";"trial.GoNoGo3.outcome";"trial.GoNoGo3.response";"trial.GoNoGo3.result";"trial.GoNoGo3.RT";"trial.GoNoGo3.signal";"trial.GoNoGo3.startTime";"trial.GoNoGo3.stimulus type";"trial.GoNoGo4.durationTime";"trial.GoNoGo4.endTime";"trial.GoNoGo4.Error Type";"trial.GoNoGo4.icon";"trial.GoNoGo4.location";"trial.GoNoGo4.outcome";"trial.GoNoGo4.response";"trial.GoNoGo4.result";"trial.GoNoGo4.RT";"trial.GoNoGo4.signal";"trial.GoNoGo4.startTime";"trial.GoNoGo4.stimulus type";"trial.GoNoGo_Practice.durationTime";"trial.GoNoGo_Practice.endTime";"trial.GoNoGo_Practice.icon";"trial.GoNoGo_Practice.location";"trial.GoNoGo_Practice.outcome";"trial.GoNoGo_Practice.response";"trial.GoNoGo_Practice.result";"trial.GoNoGo_Practice.RT";"trial.GoNoGo_Practice.signal";"trial.GoNoGo_Practice.startTime";"trial.GoNoGo_Practice.stimulus type";"trial.GoNoGo_Tutorial.durationTime";"trial.GoNoGo_Tutorial.endTime";"trial.GoNoGo_Tutorial.icon";"trial.GoNoGo_Tutorial.location";"trial.GoNoGo_Tutorial.outcome";"trial.GoNoGo_Tutorial.response";"trial.GoNoGo_Tutorial.result";"trial.GoNoGo_Tutorial.RT";"trial.GoNoGo_Tutorial.signal";"trial.GoNoGo_Tutorial.startTime"
"Carrot";"1996";;"Mac OS X";"Rachel's Experiment (D.T.)";"1.0";"2";"1";"1";"2";"1";"1";"2014-10-16 16:26:04.740";"2014-10-16 16:40:14.851";"1";"1";"0";"1";"0";"module.GoNoGotutorial.exec-3730.GoNoGo_Tutorial";;;;;;;;;;;;;;;;;;;;;;;;;;;;;;;;;;;;;;;;;;;;;;;;;;;;;;;;;;;;;;;;;;;;;;;;;;;;;;;;;;"4002";"2014-10-16 16:27:49.311";"leftResponse";"0";"FINISHED";"LEFT";"success";"3362";"0";"2014-10-16 16:27:45.309"
"Carrot";"1996";;"Mac OS X";"Rachel's Experiment (D.T.)";"1.0";"2";"1";"1";"2";"1";"1";"2014-10-16 16:26:04.740";"2014-10-16 16:40:14.851";"1";"1";"0";"2";"1";"module.GoNoGotutorial.exec-3730.GoNoGo_Tutorial";;;;;;;;;;;;;;;;;;;;;;;;;;;;;;;;;;;;;;;;;;;;;;;;;;;;;;;;;;;;;;;;;;;;;;;;;;;;;;;;;;"4000";"2014-10-16 16:27:54.605";"rightResponse";"1";"FINISHED";"RIGHT";"success";"464";"0";"2014-10-16 16:27:50.604"
"Carrot";"1996";;"Mac OS X";"Rachel's Experiment (D.T.)";"1.0";"2";"1";"1";"2";"1";"1";"2014-10-16 16:26:04.740";"2014-10-16 16:40:14.851";"1";"1";"0";"3";"2";"module.GoNoGotutorial.exec-3730.GoNoGo_Tutorial";;;;;;;;;;;;;;;;;;;;;;;;;;;;;;;;;;;;;;;;;;;;;;;;;;;;;;;;;;;;;;;;;;;;;;;;;;;;;;;;;;"4000";"2014-10-16 16:27:59.892";"quickResponse";"0";"FINISHED";"NONE";"failure";"0";"0";"2014-10-16 16:27:55.891"
"Carrot";"1996";;"Mac OS X";"Rachel's Experiment (D.T.)";"1.0";"2";"1";"1";"2";"1";"1";"2014-10-16 16:26:04.740";"2014-10-16 16:40:14.851";"1";"1";"0";"4";"3";"module.GoNoGopractice.exec-3725.GoNoGo_Practice";;;;;;;;;;;;;;;;;;;;;;;;;;;;;;;;;;;;;;;;;;;;;;;;;;;;;;;;;;;;;;;;;;;;;;;"1958";"2014-10-16 16:28:08.351";"18";"0";"FINISHED";"LEFT";"success";"293";"0";"2014-10-16 16:28:06.392";"3";;;;;;;;;;
"Carrot";"1996";;"Mac OS X";"Rachel's Experiment (D.T.)";"1.0";"2";"1";"1";"2";"1";"1";"2014-10-16 16:26:04.740";"2014-10-16 16:40:14.851";"1";"1";"0";"5";"4";"module.GoNoGopractice.exec-3725.GoNoGo_Practice";;;;;;;;;;;;;;;;;;;;;;;;;;;;;;;;;;;;;;;;;;;;;;;;;;;;;;;;;;;;;;;;;;;;;;;"1953";"2014-10-16 16:28:11.590";"21";"1";"FINISHED";"RIGHT";"success";"351";"0";"2014-10-16 16:28:09.637";"3";;;;;;;;;;
"Carrot";"1996";;"Mac OS X";"Rachel's Experiment (D.T.)";"1.0";"2";"1";"1";"2";"1";"1";"2014-10-16 16:26:04.740";"2014-10-16 16:40:14.851";"1";"1";"0";"6";"5";"module.GoNoGopractice.exec-3725.GoNoGo_Practice";;;;;;;;;;;;;;;;;;;;;;;;;;;;;;;;;;;;;;;;;;;;;;;;;;;;;;;;;;;;;;;;;;;;;;;"1953";"2014-10-16 16:28:14.823";"14";"1";"FINISHED";"RIGHT";"success";"381";"0";"2014-10-16 16:28:12.869";"2";;;;;;;;;;
"Carrot";"1996";;"Mac OS X";"Rachel's Experiment (D.T.)";"1.0";"2";"1";"1";"2";"1";"1";"2014-10-16 16:26:04.740";"2014-10-16 16:40:14.851";"1";"1";"0";"7";"6";"module.GoNoGopractice.exec-3725.GoNoGo_Practice";;;;;;;;;;;;;;;;;;;;;;;;;;;;;;;;;;;;;;;;;;;;;;;;;;;;;;;;;;;;;;;;;;;;;;;"1952";"2014-10-16 16:28:18.063";"26";"0";"FINISHED";"LEFT";"success";"384";"0";"2014-10-16 16:28:16.110";"3";;;;;;;;;;
"Carrot";"1996";;"Mac OS X";"Rachel's Experiment (D.T.)";"1.0";"2";"1";"1";"2";"1";"1";"2014-10-16 16:26:04.740";"2014-10-16 16:40:14.851";"1";"1";"0";"8";"7";"module.GoNoGopractice.exec-3725.GoNoGo_Practice";;;;;;;;;;;;;;;;;;;;;;;;;;;;;;;;;;;;;;;;;;;;;;;;;;;;;;;;;;;;;;;;;;;;;;;"1953";"2014-10-16 16:28:21.297";"2";"0";"FINISHED";"LEFT";"success";"386";"0";"2014-10-16 16:28:19.344";"1";;;;;;;;;;
"Carrot";"1996";;"Mac OS X";"Rachel's Experiment (D.T.)";"1.0";"2";"1";"1";"2";"1";"1";"2014-10-16 16:26:04.740";"2014-10-16 16:40:14.851";"1";"1";"0";"9";"8";"module.GoNoGopractice.exec-3725.GoNoGo_Practice";;;;;;;;;;;;;;;;;;;;;;;;;;;;;;;;;;;;;;;;;;;;;;;;;;;;;;;;;;;;;;;;;;;;;;;"1953";"2014-10-16 16:28:24.531";"30";"0";"FINISHED";"LEFT";"success";"404";"0";"2014-10-16 16:28:22.577";"3";;;;;;;;;;
"Carrot";"1996";;"Mac OS X";"Rachel's Experiment (D.T.)";"1.0";"2";"1";"1";"2";"1";"1";"2014-10-16 16:26:04.740";"2014-10-16 16:40:14.851";"1";"1";"0";"10";"9";"module.GoNoGopractice.exec-3725.GoNoGo_Practice";;;;;;;;;;;;;;;;;;;;;;;;;;;;;;;;;;;;;;;;;;;;;;;;;;;;;;;;;;;;;;;;;;;;;;;"1953";"2014-10-16 16:28:27.765";"6";"1";"FINISHED";"RIGHT";"success";"435";"0";"2014-10-16 16:28:25.811";"1";;;;;;;;;;
"Carrot";"1996";;"Mac OS X";"Rachel's Experiment (D.T.)";"1.0";"2";"1";"1";"2";"1";"1";"2014-10-16 16:26:04.740";"2014-10-16 16:40:14.851";"1";"1";"0";"11";"10";"module.GoNoGopractice.exec-3725.GoNoGo_Practice";;;;;;;;;;;;;;;;;;;;;;;;;;;;;;;;;;;;;;;;;;;;;;;;;;;;;;;;;;;;;;;;;;;;;;;"1953";"2014-10-16 16:28:30.998";"34";"0";"FINISHED";"LEFT";"success";"621";"0";"2014-10-16 16:28:29.044";"3";;;;;;;;;;
"Carrot";"1996";;"Mac OS X";"Rachel's Experiment (D.T.)";"1.0";"2";"1";"1";"2";"1";"1";"2014-10-16 16:26:04.740";"2014-10-16 16:40:14.851";"1";"1";"0";"12";"11";"module.GoNoGopractice.exec-3725.GoNoGo_Practice";;;;;;;;;;;;;;;;;;;;;;;;;;;;;;;;;;;;;;;;;;;;;;;;;;;;;;;;;;;;;;;;;;;;;;;"1952";"2014-10-16 16:28:34.231";"23";"1";"FINISHED";"RIGHT";"success";"766";"0";"2014-10-16 16:28:32.278";"3";;;;;;;;;;
"Carrot";"1996";;"Mac OS X";"Rachel's Experiment (D.T.)";"1.0";"2";"1";"1";"2";"1";"1";"2014-10-16 16:26:04.740";"2014-10-16 16:40:14.851";"1";"1";"0";"13";"12";"module.GoNoGopractice.exec-3725.GoNoGo_Practice";;;;;;;;;;;;;;;;;;;;;;;;;;;;;;;;;;;;;;;;;;;;;;;;;;;;;;;;;;;;;;;;;;;;;;;"1953";"2014-10-16 16:28:37.464";"13";"0";"FINISHED";"LEFT";"success";"311";"0";"2014-10-16 16:28:35.510";"2";;;;;;;;;;
"Carrot";"1996";;"Mac OS X";"Rachel's Experiment (D.T.)";"1.0";"2";"1";"1";"2";"1";"1";"2014-10-16 16:26:04.740";"2014-10-16 16:40:14.851";"1";"1";"0";"14";"13";"module.GoNoGopractice.exec-3725.GoNoGo_Practice";;;;;;;;;;;;;;;;;;;;;;;;;;;;;;;;;;;;;;;;;;;;;;;;;;;;;;;;;;;;;;;;;;;;;;;"1952";"2014-10-16 16:28:40.693";"3";"1";"FINISHED";"RIGHT";"success";"410";"0";"2014-10-16 16:28:38.741";"1";;;;;;;;;;
"Carrot";"1996";;"Mac OS X";"Rachel's Experiment (D.T.)";"1.0";"2";"1";"1";"2";"1";"1";"2014-10-16 16:26:04.740";"2014-10-16 16:40:14.851";"1";"1";"0";"15";"14";"module.GoNoGopractice.exec-3725.GoNoGo_Practice";;;;;;;;;;;;;;;;;;;;;;;;;;;;;;;;;;;;;;;;;;;;;;;;;;;;;;;;;;;;;;;;;;;;;;;"1953";"2014-10-16 16:28:43.924";"27";"1";"FINISHED";"RIGHT";"success";"444";"0";"2014-10-16 16:28:41.970";"3";;;;;;;;;;
"Carrot";"1996";;"Mac OS X";"Rachel's Experiment (D.T.)";"1.0";"2";"1";"1";"2";"1";"1";"2014-10-16 16:26:04.740";"2014-10-16 16:40:14.851";"1";"1";"0";"16";"15";"module.training_block1.exec-2098.GoNoGo1";;;;;;;;;;;;;;;;;;;;;;;"1252";"2014-10-16 16:28:52.904";"NST_correctLoc";"27";"0";"FINISHED";"LEFT";"success";"261";"0";"2014-10-16 16:28:51.651";"3";;;;;;;;;;;;;;;;;;;;;;;;;;;;;;;;;;;;;;;;;;;;;;;;;;;;;;;;;
"Carrot";"1996";;"Mac OS X";"Rachel's Experiment (D.T.)";"1.0";"2";"1";"1";"2";"1";"1";"2014-10-16 16:26:04.740";"2014-10-16 16:40:14.851";"1";"1";"0";"17";"16";"module.training_block1.exec-2098.GoNoGo1";;;;;;;;;;;;;;;;;;;;;;;"1251";"2014-10-16 16:28:55.432";"NST_correctLoc";"23";"1";"FINISHED";"RIGHT";"success";"270";"0";"2014-10-16 16:28:54.180";"3";;;;;;;;;;;;;;;;;;;;;;;;;;;;;;;;;;;;;;;;;;;;;;;;;;;;;;;;;
"Carrot";"1996";;"Mac OS X";"Rachel's Experiment (D.T.)";"1.0";"2";"1";"1";"2";"1";"1";"2014-10-16 16:26:04.740";"2014-10-16 16:40:14.851";"1";"1";"0";"18";"17";"module.training_block1.exec-2098.GoNoGo1";;;;;;;;;;;;;;;;;;;;;;;"1251";"2014-10-16 16:28:57.964";"NST_correctLoc";"28";"1";"FINISHED";"RIGHT";"success";"269";"0";"2014-10-16 16:28:56.713";"3";;;;;;;;;;;;;;;;;;;;;;;;;;;;;;;;;;;;;;;;;;;;;;;;;;;;;;;;;
"Carrot";"1996";;"Mac OS X";"Rachel's Experiment (D.T.)";"1.0";"2";"1";"1";"2";"1";"1";"2014-10-16 16:26:04.740";"2014-10-16 16:40:14.851";"1";"1";"0";"19";"18";"module.training_block1.exec-2098.GoNoGo1";;;;;;;;;;;;;;;;;;;;;;;"1250";"2014-10-16 16:29:00.495";"NST_correctLoc";"24";"1";"FINISHED";"RIGHT";"success";"314";"0";"2014-10-16 16:28:59.244";"3";;;;;;;;;;;;;;;;;;;;;;;;;;;;;;;;;;;;;;;;;;;;;;;;;;;;;;;;;
"Carrot";"1996";;"Mac OS X";"Rachel's Experiment (D.T.)";"1.0";"2";"1";"1";"2";"1";"1";"2014-10-16 16:26:04.740";"2014-10-16 16:40:14.851";"1";"1";"0";"20";"19";"module.training_block1.exec-2098.GoNoGo1";;;;;;;;;;;;;;;;;;;;;;;"1251";"2014-10-16 16:29:03.025";"NST_correctLoc";"19";"1";"FINISHED";"RIGHT";"success";"322";"0";"2014-10-16 16:29:01.773";"3";;;;;;;;;;;;;;;;;;;;;;;;;;;;;;;;;;;;;;;;;;;;;;;;;;;;;;;;;
"Carrot";"1996";;"Mac OS X";"Rachel's Experiment (D.T.)";"1.0";"2";"1";"1";"2";"1";"1";"2014-10-16 16:26:04.740";"2014-10-16 16:40:14.851";"1";"1";"0";"21";"20";"module.training_block1.exec-2098.GoNoGo1";;;;;;;;;;;;;;;;;;;;;;;"1251";"2014-10-16 16:29:05.553";"NST_correctLoc";"7";"0";"FINISHED";"LEFT";"success";"335";"0";"2014-10-16 16:29:04.302";"1";;;;;;;;;;;;;;;;;;;;;;;;;;;;;;;;;;;;;;;;;;;;;;;;;;;;;;;;;
"Carrot";"1996";;"Mac OS X";"Rachel's Experiment (D.T.)";"1.0";"2";"1";"1";"2";"1";"1";"2014-10-16 16:26:04.740";"2014-10-16 16:40:14.851";"1";"1";"0";"22";"21";"module.training_block1.exec-2098.GoNoGo1";;;;;;;;;;;;;;;;;;;;;;;"1251";"2014-10-16 16:29:08.082";"NST_correctLoc";"22";"1";"FINISHED";"RIGHT";"success";"290";"0";"2014-10-16 16:29:06.831";"3";;;;;;;;;;;;;;;;;;;;;;;;;;;;;;;;;;;;;;;;;;;;;;;;;;;;;;;;;
"Carrot";"1996";;"Mac OS X";"Rachel's Experiment (D.T.)";"1.0";"2";"1";"1";"2";"1";"1";"2014-10-16 16:26:04.740";"2014-10-16 16:40:14.851";"1";"1";"0";"23";"22";"module.training_block1.exec-2098.GoNoGo1";;;;;;;;;;;;;;;;;;;;;;;"1250";"2014-10-16 16:29:10.608";"NST_correctLoc";"20";"1";"FINISHED";"RIGHT";"success";"263";"0";"2014-10-16 16:29:09.357";"3";;;;;;;;;;;;;;;;;;;;;;;;;;;;;;;;;;;;;;;;;;;;;;;;;;;;;;;;;
"Carrot";"1996";;"Mac OS X";"Rachel's Experiment (D.T.)";"1.0";"2";"1";"1";"2";"1";"1";"2014-10-16 16:26:04.740";"2014-10-16 16:40:14.851";"1";"1";"0";"24";"23";"module.training_block1.exec-2098.GoNoGo1";;;;;;;;;;;;;;;;;;;;;;;"1251";"2014-10-16 16:29:13.140";"NST_correctLoc";"29";"1";"FINISHED";"RIGHT";"success";"274";"0";"2014-10-16 16:29:11.888";"3";;;;;;;;;;;;;;;;;;;;;;;;;;;;;;;;;;;;;;;;;;;;;;;;;;;;;;;;;
"Carrot";"1996";;"Mac OS X";"Rachel's Experiment (D.T.)";"1.0";"2";"1";"1";"2";"1";"1";"2014-10-16 16:26:04.740";"2014-10-16 16:40:14.851";"1";"1";"0";"25";"24";"module.training_block1.exec-2098.GoNoGo1";;;;;;;;;;;;;;;;;;;;;;;"1251";"2014-10-16 16:29:15.668";"NST_correctLoc";"35";"0";"FINISHED";"LEFT";"success";"303";"0";"2014-10-16 16:29:14.417";"3";;;;;;;;;;;;;;;;;;;;;;;;;;;;;;;;;;;;;;;;;;;;;;;;;;;;;;;;;
"Carrot";"1996";;"Mac OS X";"Rachel's Experiment (D.T.)";"1.0";"2";"1";"1";"2";"1";"1";"2014-10-16 16:26:04.740";"2014-10-16 16:40:14.851";"1";"1";"0";"26";"25";"module.training_block1.exec-2098.GoNoGo1";;;;;;;;;;;;;;;;;;;;;;;"1251";"2014-10-16 16:29:18.191";"NST_correctLoc";"3";"1";"FINISHED";"RIGHT";"success";"274";"0";"2014-10-16 16:29:16.939";"1";;;;;;;;;;;;;;;;;;;;;;;;;;;;;;;;;;;;;;;;;;;;;;;;;;;;;;;;;
"Carrot";"1996";;"Mac OS X";"Rachel's Experiment (D.T.)";"1.0";"2";"1";"1";"2";"1";"1";"2014-10-16 16:26:04.740";"2014-10-16 16:40:14.851";"1";"1";"0";"27";"26";"module.training_block1.exec-2098.GoNoGo1";;;;;;;;;;;;;;;;;;;;;;;"1251";"2014-10-16 16:29:20.719";"NST_correctLoc";"8";"1";"FINISHED";"RIGHT";"success";"297";"0";"2014-10-16 16:29:19.468";"1";;;;;;;;;;;;;;;;;;;;;;;;;;;;;;;;;;;;;;;;;;;;;;;;;;;;;;;;;
"Carrot";"1996";;"Mac OS X";"Rachel's Experiment (D.T.)";"1.0";"2";"1";"1";"2";"1";"1";"2014-10-16 16:26:04.740";"2014-10-16 16:40:14.851";"1";"1";"0";"28";"27";"module.training_block1.exec-2098.GoNoGo1";;;;;;;;;;;;;;;;;;;;;;;"1251";"2014-10-16 16:29:23.251";"NST_correctLoc";"9";"0";"FINISHED";"LEFT";"success";"271";"0";"2014-10-16 16:29:22.000";"2";;;;;;;;;;;;;;;;;;;;;;;;;;;;;;;;;;;;;;;;;;;;;;;;;;;;;;;;;
"Carrot";"1996";;"Mac OS X";"Rachel's Experiment (D.T.)";"1.0";"2";"1";"1";"2";"1";"1";"2014-10-16 16:26:04.740";"2014-10-16 16:40:14.851";"1";"1";"0";"29";"28";"module.training_block1.exec-2098.GoNoGo1";;;;;;;;;;;;;;;;;;;;;;;"1251";"2014-10-16 16:29:25.779";"NST_correctLoc";"21";"1";"FINISHED";"RIGHT";"success";"276";"0";"2014-10-16 16:29:24.527";"3";;;;;;;;;;;;;;;;;;;;;;;;;;;;;;;;;;;;;;;;;;;;;;;;;;;;;;;;;
"Carrot";"1996";;"Mac OS X";"Rachel's Experiment (D.T.)";"1.0";"2";"1";"1";"2";"1";"1";"2014-10-16 16:26:04.740";"2014-10-16 16:40:14.851";"1";"1";"0";"30";"29";"module.training_block1.exec-2098.GoNoGo1";;;;;;;;;;;;;;;;;;;;;;;"1250";"2014-10-16 16:29:28.305";"NST_correctLoc";"1";"1";"FINISHED";"RIGHT";"success";"271";"0";"2014-10-16 16:29:27.055";"1";;;;;;;;;;;;;;;;;;;;;;;;;;;;;;;;;;;;;;;;;;;;;;;;;;;;;;;;;
"Carrot";"1996";;"Mac OS X";"Rachel's Experiment (D.T.)";"1.0";"2";"1";"1";"2";"1";"1";"2014-10-16 16:26:04.740";"2014-10-16 16:40:14.851";"1";"1";"0";"31";"30";"module.training_block1.exec-2098.GoNoGo1";;;;;;;;;;;;;;;;;;;;;;;"1251";"2014-10-16 16:29:30.831";"NST_correctLoc";"16";"1";"FINISHED";"RIGHT";"success";"325";"0";"2014-10-16 16:29:29.580";"2";;;;;;;;;;;;;;;;;;;;;;;;;;;;;;;;;;;;;;;;;;;;;;;;;;;;;;;;;
"Carrot";"1996";;"Mac OS X";"Rachel's Experiment (D.T.)";"1.0";"2";"1";"1";"2";"1";"1";"2014-10-16 16:26:04.740";"2014-10-16 16:40:14.851";"1";"1";"0";"32";"31";"module.training_block1.exec-2098.GoNoGo1";;;;;;;;;;;;;;;;;;;;;;;"1251";"2014-10-16 16:29:33.352";"NST_correctLoc";"18";"1";"FINISHED";"RIGHT";"success";"287";"0";"2014-10-16 16:29:32.101";"3";;;;;;;;;;;;;;;;;;;;;;;;;;;;;;;;;;;;;;;;;;;;;;;;;;;;;;;;;
"Carrot";"1996";;"Mac OS X";"Rachel's Experiment (D.T.)";"1.0";"2";"1";"1";"2";"1";"1";"2014-10-16 16:26:04.740";"2014-10-16 16:40:14.851";"1";"1";"0";"33";"32";"module.training_block1.exec-2098.GoNoGo1";;;;;;;;;;;;;;;;;;;;;;;"1250";"2014-10-16 16:29:35.883";"NST_correctLoc";"12";"1";"FINISHED";"RIGHT";"success";"287";"0";"2014-10-16 16:29:34.632";"2";;;;;;;;;;;;;;;;;;;;;;;;;;;;;;;;;;;;;;;;;;;;;;;;;;;;;;;;;
"Carrot";"1996";;"Mac OS X";"Rachel's Experiment (D.T.)";"1.0";"2";"1";"1";"2";"1";"1";"2014-10-16 16:26:04.740";"2014-10-16 16:40:14.851";"1";"1";"0";"34";"33";"module.training_block1.exec-2098.GoNoGo1";;;;;;;;;;;;;;;;;;;;;;;"1251";"2014-10-16 16:29:38.405";"NST_correctLoc";"33";"0";"FINISHED";"LEFT";"success";"313";"0";"2014-10-16 16:29:37.154";"3";;;;;;;;;;;;;;;;;;;;;;;;;;;;;;;;;;;;;;;;;;;;;;;;;;;;;;;;;
"Carrot";"1996";;"Mac OS X";"Rachel's Experiment (D.T.)";"1.0";"2";"1";"1";"2";"1";"1";"2014-10-16 16:26:04.740";"2014-10-16 16:40:14.851";"1";"1";"0";"35";"34";"module.training_block1.exec-2098.GoNoGo1";;;;;;;;;;;;;;;;;;;;;;;"1251";"2014-10-16 16:29:40.933";"NST_correctLoc";"17";"0";"FINISHED";"LEFT";"success";"289";"0";"2014-10-16 16:29:39.682";"2";;;;;;;;;;;;;;;;;;;;;;;;;;;;;;;;;;;;;;;;;;;;;;;;;;;;;;;;;
"Carrot";"1996";;"Mac OS X";"Rachel's Experiment (D.T.)";"1.0";"2";"1";"1";"2";"1";"1";"2014-10-16 16:26:04.740";"2014-10-16 16:40:14.851";"1";"1";"0";"36";"35";"module.training_block1.exec-2098.GoNoGo1";;;;;;;;;;;;;;;;;;;;;;;"1251";"2014-10-16 16:29:43.456";"NST_correctLoc";"13";"1";"FINISHED";"RIGHT";"success";"278";"0";"2014-10-16 16:29:42.205";"2";;;;;;;;;;;;;;;;;;;;;;;;;;;;;;;;;;;;;;;;;;;;;;;;;;;;;;;;;
"Carrot";"1996";;"Mac OS X";"Rachel's Experiment (D.T.)";"1.0";"2";"1";"1";"2";"1";"1";"2014-10-16 16:26:04.740";"2014-10-16 16:40:14.851";"1";"1";"0";"37";"36";"module.training_block1.exec-2098.GoNoGo1";;;;;;;;;;;;;;;;;;;;;;;"1250";"2014-10-16 16:29:45.977";"NST_correctLoc";"34";"0";"FINISHED";"LEFT";"success";"286";"0";"2014-10-16 16:29:44.726";"3";;;;;;;;;;;;;;;;;;;;;;;;;;;;;;;;;;;;;;;;;;;;;;;;;;;;;;;;;
"Carrot";"1996";;"Mac OS X";"Rachel's Experiment (D.T.)";"1.0";"2";"1";"1";"2";"1";"1";"2014-10-16 16:26:04.740";"2014-10-16 16:40:14.851";"1";"1";"0";"38";"37";"module.training_block1.exec-2098.GoNoGo1";;;;;;;;;;;;;;;;;;;;;;;"1251";"2014-10-16 16:29:48.502";"NST_correctLoc";"32";"0";"FINISHED";"LEFT";"success";"452";"0";"2014-10-16 16:29:47.250";"3";;;;;;;;;;;;;;;;;;;;;;;;;;;;;;;;;;;;;;;;;;;;;;;;;;;;;;;;;
"Carrot";"1996";;"Mac OS X";"Rachel's Experiment (D.T.)";"1.0";"2";"1";"1";"2";"1";"1";"2014-10-16 16:26:04.740";"2014-10-16 16:40:14.851";"1";"1";"0";"39";"38";"module.training_block1.exec-2098.GoNoGo1";;;;;;;;;;;;;;;;;;;;;;;"1251";"2014-10-16 16:29:51.021";"NST_correctLoc";"14";"0";"FINISHED";"LEFT";"success";"299";"0";"2014-10-16 16:29:49.769";"2";;;;;;;;;;;;;;;;;;;;;;;;;;;;;;;;;;;;;;;;;;;;;;;;;;;;;;;;;
"Carrot";"1996";;"Mac OS X";"Rachel's Experiment (D.T.)";"1.0";"2";"1";"1";"2";"1";"1";"2014-10-16 16:26:04.740";"2014-10-16 16:40:14.851";"1";"1";"0";"40";"39";"module.training_block1.exec-2098.GoNoGo1";;;;;;;;;;;;;;;;;;;;;;;"1251";"2014-10-16 16:29:53.544";"NST_correctLoc";"2";"1";"FINISHED";"RIGHT";"success";"260";"0";"2014-10-16 16:29:52.293";"1";;;;;;;;;;;;;;;;;;;;;;;;;;;;;;;;;;;;;;;;;;;;;;;;;;;;;;;;;
"Carrot";"1996";;"Mac OS X";"Rachel's Experiment (D.T.)";"1.0";"2";"1";"1";"2";"1";"1";"2014-10-16 16:26:04.740";"2014-10-16 16:40:14.851";"1";"1";"0";"41";"40";"module.training_block1.exec-2098.GoNoGo1";;;;;;;;;;;;;;;;;;;;;;;"1251";"2014-10-16 16:29:56.069";"NST_correctLoc";"4";"0";"FINISHED";"LEFT";"success";"262";"0";"2014-10-16 16:29:54.817";"1";;;;;;;;;;;;;;;;;;;;;;;;;;;;;;;;;;;;;;;;;;;;;;;;;;;;;;;;;
"Carrot";"1996";;"Mac OS X";"Rachel's Experiment (D.T.)";"1.0";"2";"1";"1";"2";"1";"1";"2014-10-16 16:26:04.740";"2014-10-16 16:40:14.851";"1";"1";"0";"42";"41";"module.training_block1.exec-2098.GoNoGo1";;;;;;;;;;;;;;;;;;;;;;;"1250";"2014-10-16 16:29:58.589";"NST_correctLoc";"6";"1";"FINISHED";"RIGHT";"success";"326";"0";"2014-10-16 16:29:57.339";"1";;;;;;;;;;;;;;;;;;;;;;;;;;;;;;;;;;;;;;;;;;;;;;;;;;;;;;;;;
"Carrot";"1996";;"Mac OS X";"Rachel's Experiment (D.T.)";"1.0";"2";"1";"1";"2";"1";"1";"2014-10-16 16:26:04.740";"2014-10-16 16:40:14.851";"1";"1";"0";"43";"42";"module.training_block1.exec-2098.GoNoGo1";;;;;;;;;;;;;;;;;;;;;;;"1251";"2014-10-16 16:30:01.111";"NST_correctLoc";"30";"0";"FINISHED";"LEFT";"success";"341";"0";"2014-10-16 16:29:59.860";"3";;;;;;;;;;;;;;;;;;;;;;;;;;;;;;;;;;;;;;;;;;;;;;;;;;;;;;;;;
"Carrot";"1996";;"Mac OS X";"Rachel's Experiment (D.T.)";"1.0";"2";"1";"1";"2";"1";"1";"2014-10-16 16:26:04.740";"2014-10-16 16:40:14.851";"1";"1";"0";"44";"43";"module.training_block1.exec-2098.GoNoGo1";;;;;;;;;;;;;;;;;;;;;;;"1251";"2014-10-16 16:30:03.631";"NST_correctLoc";"26";"1";"FINISHED";"RIGHT";"success";"296";"0";"2014-10-16 16:30:02.380";"3";;;;;;;;;;;;;;;;;;;;;;;;;;;;;;;;;;;;;;;;;;;;;;;;;;;;;;;;;
"Carrot";"1996";;"Mac OS X";"Rachel's Experiment (D.T.)";"1.0";"2";"1";"1";"2";"1";"1";"2014-10-16 16:26:04.740";"2014-10-16 16:40:14.851";"1";"1";"0";"45";"44";"module.training_block1.exec-2098.GoNoGo1";;;;;;;;;;;;;;;;;;;;;;;"1251";"2014-10-16 16:30:06.155";"NST_correctLoc";"11";"1";"FINISHED";"RIGHT";"success";"343";"0";"2014-10-16 16:30:04.903";"2";;;;;;;;;;;;;;;;;;;;;;;;;;;;;;;;;;;;;;;;;;;;;;;;;;;;;;;;;
"Carrot";"1996";;"Mac OS X";"Rachel's Experiment (D.T.)";"1.0";"2";"1";"1";"2";"1";"1";"2014-10-16 16:26:04.740";"2014-10-16 16:40:14.851";"1";"1";"0";"46";"45";"module.training_block1.exec-2098.GoNoGo1";;;;;;;;;;;;;;;;;;;;;;;"1251";"2014-10-16 16:30:08.677";"NST_correctLoc";"25";"1";"FINISHED";"RIGHT";"success";"312";"0";"2014-10-16 16:30:07.425";"3";;;;;;;;;;;;;;;;;;;;;;;;;;;;;;;;;;;;;;;;;;;;;;;;;;;;;;;;;
"Carrot";"1996";;"Mac OS X";"Rachel's Experiment (D.T.)";"1.0";"2";"1";"1";"2";"1";"1";"2014-10-16 16:26:04.740";"2014-10-16 16:40:14.851";"1";"1";"0";"47";"46";"module.training_block1.exec-2098.GoNoGo1";;;;;;;;;;;;;;;;;;;;;;;"1251";"2014-10-16 16:30:11.202";"NST_correctLoc";"15";"1";"FINISHED";"RIGHT";"success";"321";"0";"2014-10-16 16:30:09.951";"2";;;;;;;;;;;;;;;;;;;;;;;;;;;;;;;;;;;;;;;;;;;;;;;;;;;;;;;;;
"Carrot";"1996";;"Mac OS X";"Rachel's Experiment (D.T.)";"1.0";"2";"1";"1";"2";"1";"1";"2014-10-16 16:26:04.740";"2014-10-16 16:40:14.851";"1";"1";"0";"48";"47";"module.training_block1.exec-2098.GoNoGo1";;;;;;;;;;;;;;;;;;;;;;;"1250";"2014-10-16 16:30:13.726";"NST_correctLoc";"31";"0";"FINISHED";"LEFT";"success";"335";"0";"2014-10-16 16:30:12.475";"3";;;;;;;;;;;;;;;;;;;;;;;;;;;;;;;;;;;;;;;;;;;;;;;;;;;;;;;;;
"Carrot";"1996";;"Mac OS X";"Rachel's Experiment (D.T.)";"1.0";"2";"1";"1";"2";"1";"1";"2014-10-16 16:26:04.740";"2014-10-16 16:40:14.851";"1";"1";"0";"49";"48";"module.training_block1.exec-2098.GoNoGo1";;;;;;;;;;;;;;;;;;;;;;;"1251";"2014-10-16 16:30:16.250";"NST_wrongLoc";"10";"0";"FINISHED";"RIGHT";"failure";"268";"0";"2014-10-16 16:30:14.999";"2";;;;;;;;;;;;;;;;;;;;;;;;;;;;;;;;;;;;;;;;;;;;;;;;;;;;;;;;;
"Carrot";"1996";;"Mac OS X";"Rachel's Experiment (D.T.)";"1.0";"2";"1";"1";"2";"1";"1";"2014-10-16 16:26:04.740";"2014-10-16 16:40:14.851";"1";"1";"0";"50";"49";"module.training_block1.exec-2098.GoNoGo1";;;;;;;;;;;;;;;;;;;;;;;"1251";"2014-10-16 16:30:18.769";"NST_correctLoc";"0";"0";"FINISHED";"LEFT";"success";"314";"0";"2014-10-16 16:30:17.518";"1";;;;;;;;;;;;;;;;;;;;;;;;;;;;;;;;;;;;;;;;;;;;;;;;;;;;;;;;;
"Carrot";"1996";;"Mac OS X";"Rachel's Experiment (D.T.)";"1.0";"2";"1";"1";"2";"1";"1";"2014-10-16 16:26:04.740";"2014-10-16 16:40:14.851";"1";"1";"0";"51";"50";"module.training_block1.exec-2098.GoNoGo1";;;;;;;;;;;;;;;;;;;;;;;"1251";"2014-10-16 16:30:21.293";"NST_correctLoc";"5";"1";"FINISHED";"RIGHT";"success";"292";"0";"2014-10-16 16:30:20.041";"1";;;;;;;;;;;;;;;;;;;;;;;;;;;;;;;;;;;;;;;;;;;;;;;;;;;;;;;;;
"Carrot";"1996";;"Mac OS X";"Rachel's Experiment (D.T.)";"1.0";"2";"1";"1";"2";"1";"1";"2014-10-16 16:26:04.740";"2014-10-16 16:40:14.851";"1";"1";"0";"52";"51";"module.training_block2.exec-4980.GoNoGo2";;;;;;;;;;;;;;;;;;;;;;;;;;;;;;;;;;;"1251";"2014-10-16 16:30:32.792";"NST_correctLoc";"21";"1";"FINISHED";"RIGHT";"success";"343";"0";"2014-10-16 16:30:31.541";"3";;;;;;;;;;;;;;;;;;;;;;;;;;;;;;;;;;;;;;;;;;;;;
"Carrot";"1996";;"Mac OS X";"Rachel's Experiment (D.T.)";"1.0";"2";"1";"1";"2";"1";"1";"2014-10-16 16:26:04.740";"2014-10-16 16:40:14.851";"1";"1";"0";"53";"52";"module.training_block2.exec-4980.GoNoGo2";;;;;;;;;;;;;;;;;;;;;;;;;;;;;;;;;;;"1251";"2014-10-16 16:30:35.316";"NST_correctLoc";"12";"0";"FINISHED";"LEFT";"success";"341";"0";"2014-10-16 16:30:34.065";"2";;;;;;;;;;;;;;;;;;;;;;;;;;;;;;;;;;;;;;;;;;;;;
"Carrot";"1996";;"Mac OS X";"Rachel's Experiment (D.T.)";"1.0";"2";"1";"1";"2";"1";"1";"2014-10-16 16:26:04.740";"2014-10-16 16:40:14.851";"1";"1";"0";"54";"53";"module.training_block2.exec-4980.GoNoGo2";;;;;;;;;;;;;;;;;;;;;;;;;;;;;;;;;;;"1251";"2014-10-16 16:30:37.835";"NST_correctLoc";"2";"1";"FINISHED";"RIGHT";"success";"247";"0";"2014-10-16 16:30:36.583";"1";;;;;;;;;;;;;;;;;;;;;;;;;;;;;;;;;;;;;;;;;;;;;
"Carrot";"1996";;"Mac OS X";"Rachel's Experiment (D.T.)";"1.0";"2";"1";"1";"2";"1";"1";"2014-10-16 16:26:04.740";"2014-10-16 16:40:14.851";"1";"1";"0";"55";"54";"module.training_block2.exec-4980.GoNoGo2";;;;;;;;;;;;;;;;;;;;;;;;;;;;;;;;;;;"1251";"2014-10-16 16:30:40.353";"NST_correctLoc";"26";"0";"FINISHED";"LEFT";"success";"239";"0";"2014-10-16 16:30:39.101";"3";;;;;;;;;;;;;;;;;;;;;;;;;;;;;;;;;;;;;;;;;;;;;
"Carrot";"1996";;"Mac OS X";"Rachel's Experiment (D.T.)";"1.0";"2";"1";"1";"2";"1";"1";"2014-10-16 16:26:04.740";"2014-10-16 16:40:14.851";"1";"1";"0";"56";"55";"module.training_block2.exec-4980.GoNoGo2";;;;;;;;;;;;;;;;;;;;;;;;;;;;;;;;;;;"1251";"2014-10-16 16:30:42.871";"NST_correctLoc";"20";"1";"FINISHED";"RIGHT";"success";"302";"0";"2014-10-16 16:30:41.620";"3";;;;;;;;;;;;;;;;;;;;;;;;;;;;;;;;;;;;;;;;;;;;;
"Carrot";"1996";;"Mac OS X";"Rachel's Experiment (D.T.)";"1.0";"2";"1";"1";"2";"1";"1";"2014-10-16 16:26:04.740";"2014-10-16 16:40:14.851";"1";"1";"0";"57";"56";"module.training_block2.exec-4980.GoNoGo2";;;;;;;;;;;;;;;;;;;;;;;;;;;;;;;;;;;"1251";"2014-10-16 16:30:45.389";"NST_correctLoc";"13";"0";"FINISHED";"LEFT";"success";"134";"0";"2014-10-16 16:30:44.138";"2";;;;;;;;;;;;;;;;;;;;;;;;;;;;;;;;;;;;;;;;;;;;;
"Carrot";"1996";;"Mac OS X";"Rachel's Experiment (D.T.)";"1.0";"2";"1";"1";"2";"1";"1";"2014-10-16 16:26:04.740";"2014-10-16 16:40:14.851";"1";"1";"0";"58";"57";"module.training_block2.exec-4980.GoNoGo2";;;;;;;;;;;;;;;;;;;;;;;;;;;;;;;;;;;"1251";"2014-10-16 16:30:47.908";"NST_correctLoc";"28";"0";"FINISHED";"LEFT";"success";"317";"0";"2014-10-16 16:30:46.657";"3";;;;;;;;;;;;;;;;;;;;;;;;;;;;;;;;;;;;;;;;;;;;;
"Carrot";"1996";;"Mac OS X";"Rachel's Experiment (D.T.)";"1.0";"2";"1";"1";"2";"1";"1";"2014-10-16 16:26:04.740";"2014-10-16 16:40:14.851";"1";"1";"0";"59";"58";"module.training_block2.exec-4980.GoNoGo2";;;;;;;;;;;;;;;;;;;;;;;;;;;;;;;;;;;"1251";"2014-10-16 16:30:50.430";"NST_correctLoc";"3";"0";"FINISHED";"LEFT";"success";"281";"0";"2014-10-16 16:30:49.178";"1";;;;;;;;;;;;;;;;;;;;;;;;;;;;;;;;;;;;;;;;;;;;;
"Carrot";"1996";;"Mac OS X";"Rachel's Experiment (D.T.)";"1.0";"2";"1";"1";"2";"1";"1";"2014-10-16 16:26:04.740";"2014-10-16 16:40:14.851";"1";"1";"0";"60";"59";"module.training_block2.exec-4980.GoNoGo2";;;;;;;;;;;;;;;;;;;;;;;;;;;;;;;;;;;"1250";"2014-10-16 16:30:52.949";"NST_correctLoc";"0";"0";"FINISHED";"LEFT";"success";"220";"0";"2014-10-16 16:30:51.698";"1";;;;;;;;;;;;;;;;;;;;;;;;;;;;;;;;;;;;;;;;;;;;;
"Carrot";"1996";;"Mac OS X";"Rachel's Experiment (D.T.)";"1.0";"2";"1";"1";"2";"1";"1";"2014-10-16 16:26:04.740";"2014-10-16 16:40:14.851";"1";"1";"0";"61";"60";"module.training_block2.exec-4980.GoNoGo2";;;;;;;;;;;;;;;;;;;;;;;;;;;;;;;;;;;"1251";"2014-10-16 16:30:55.469";"NST_correctLoc";"9";"0";"FINISHED";"LEFT";"success";"327";"0";"2014-10-16 16:30:54.218";"2";;;;;;;;;;;;;;;;;;;;;;;;;;;;;;;;;;;;;;;;;;;;;
"Carrot";"1996";;"Mac OS X";"Rachel's Experiment (D.T.)";"1.0";"2";"1";"1";"2";"1";"1";"2014-10-16 16:26:04.740";"2014-10-16 16:40:14.851";"1";"1";"0";"62";"61";"module.training_block2.exec-4980.GoNoGo2";;;;;;;;;;;;;;;;;;;;;;;;;;;;;;;;;;;"1251";"2014-10-16 16:30:57.987";"NST_correctLoc";"23";"1";"FINISHED";"RIGHT";"success";"285";"0";"2014-10-16 16:30:56.735";"3";;;;;;;;;;;;;;;;;;;;;;;;;;;;;;;;;;;;;;;;;;;;;
"Carrot";"1996";;"Mac OS X";"Rachel's Experiment (D.T.)";"1.0";"2";"1";"1";"2";"1";"1";"2014-10-16 16:26:04.740";"2014-10-16 16:40:14.851";"1";"1";"0";"63";"62";"module.training_block2.exec-4980.GoNoGo2";;;;;;;;;;;;;;;;;;;;;;;;;;;;;;;;;;;"1250";"2014-10-16 16:31:00.662";"NST_correctLoc";"8";"1";"FINISHED";"RIGHT";"success";"386";"0";"2014-10-16 16:30:59.412";"1";;;;;;;;;;;;;;;;;;;;;;;;;;;;;;;;;;;;;;;;;;;;;
"Carrot";"1996";;"Mac OS X";"Rachel's Experiment (D.T.)";"1.0";"2";"1";"1";"2";"1";"1";"2014-10-16 16:26:04.740";"2014-10-16 16:40:14.851";"1";"1";"0";"64";"63";"module.training_block2.exec-4980.GoNoGo2";;;;;;;;;;;;;;;;;;;;;;;;;;;;;;;;;;;"1251";"2014-10-16 16:31:03.181";"NST_correctLoc";"5";"1";"FINISHED";"RIGHT";"success";"287";"0";"2014-10-16 16:31:01.930";"1";;;;;;;;;;;;;;;;;;;;;;;;;;;;;;;;;;;;;;;;;;;;;
"Carrot";"1996";;"Mac OS X";"Rachel's Experiment (D.T.)";"1.0";"2";"1";"1";"2";"1";"1";"2014-10-16 16:26:04.740";"2014-10-16 16:40:14.851";"1";"1";"0";"65";"64";"module.training_block2.exec-4980.GoNoGo2";;;;;;;;;;;;;;;;;;;;;;;;;;;;;;;;;;;"1250";"2014-10-16 16:31:05.700";"NST_correctLoc";"17";"1";"FINISHED";"RIGHT";"success";"287";"0";"2014-10-16 16:31:04.449";"2";;;;;;;;;;;;;;;;;;;;;;;;;;;;;;;;;;;;;;;;;;;;;
"Carrot";"1996";;"Mac OS X";"Rachel's Experiment (D.T.)";"1.0";"2";"1";"1";"2";"1";"1";"2014-10-16 16:26:04.740";"2014-10-16 16:40:14.851";"1";"1";"0";"66";"65";"module.training_block2.exec-4980.GoNoGo2";;;;;;;;;;;;;;;;;;;;;;;;;;;;;;;;;;;"1251";"2014-10-16 16:31:08.218";"NST_correctLoc";"34";"0";"FINISHED";"LEFT";"success";"282";"0";"2014-10-16 16:31:06.967";"3";;;;;;;;;;;;;;;;;;;;;;;;;;;;;;;;;;;;;;;;;;;;;
"Carrot";"1996";;"Mac OS X";"Rachel's Experiment (D.T.)";"1.0";"2";"1";"1";"2";"1";"1";"2014-10-16 16:26:04.740";"2014-10-16 16:40:14.851";"1";"1";"0";"67";"66";"module.training_block2.exec-4980.GoNoGo2";;;;;;;;;;;;;;;;;;;;;;;;;;;;;;;;;;;"1251";"2014-10-16 16:31:10.740";"NST_correctLoc";"18";"0";"FINISHED";"LEFT";"success";"280";"0";"2014-10-16 16:31:09.488";"3";;;;;;;;;;;;;;;;;;;;;;;;;;;;;;;;;;;;;;;;;;;;;
"Carrot";"1996";;"Mac OS X";"Rachel's Experiment (D.T.)";"1.0";"2";"1";"1";"2";"1";"1";"2014-10-16 16:26:04.740";"2014-10-16 16:40:14.851";"1";"1";"0";"68";"67";"module.training_block2.exec-4980.GoNoGo2";;;;;;;;;;;;;;;;;;;;;;;;;;;;;;;;;;;"1251";"2014-10-16 16:31:13.257";"NST_correctLoc";"10";"0";"FINISHED";"LEFT";"success";"286";"0";"2014-10-16 16:31:12.006";"2";;;;;;;;;;;;;;;;;;;;;;;;;;;;;;;;;;;;;;;;;;;;;
"Carrot";"1996";;"Mac OS X";"Rachel's Experiment (D.T.)";"1.0";"2";"1";"1";"2";"1";"1";"2014-10-16 16:26:04.740";"2014-10-16 16:40:14.851";"1";"1";"0";"69";"68";"module.training_block2.exec-4980.GoNoGo2";;;;;;;;;;;;;;;;;;;;;;;;;;;;;;;;;;;"1251";"2014-10-16 16:31:15.776";"NST_correctLoc";"25";"1";"FINISHED";"RIGHT";"success";"296";"0";"2014-10-16 16:31:14.524";"3";;;;;;;;;;;;;;;;;;;;;;;;;;;;;;;;;;;;;;;;;;;;;
"Carrot";"1996";;"Mac OS X";"Rachel's Experiment (D.T.)";"1.0";"2";"1";"1";"2";"1";"1";"2014-10-16 16:26:04.740";"2014-10-16 16:40:14.851";"1";"1";"0";"70";"69";"module.training_block2.exec-4980.GoNoGo2";;;;;;;;;;;;;;;;;;;;;;;;;;;;;;;;;;;"1250";"2014-10-16 16:31:18.293";"NST_correctLoc";"11";"0";"FINISHED";"LEFT";"success";"298";"0";"2014-10-16 16:31:17.043";"2";;;;;;;;;;;;;;;;;;;;;;;;;;;;;;;;;;;;;;;;;;;;;
"Carrot";"1996";;"Mac OS X";"Rachel's Experiment (D.T.)";"1.0";"2";"1";"1";"2";"1";"1";"2014-10-16 16:26:04.740";"2014-10-16 16:40:14.851";"1";"1";"0";"71";"70";"module.training_block2.exec-4980.GoNoGo2";;;;;;;;;;;;;;;;;;;;;;;;;;;;;;;;;;;"1251";"2014-10-16 16:31:20.814";"NST_correctLoc";"16";"1";"FINISHED";"RIGHT";"success";"336";"0";"2014-10-16 16:31:19.562";"2";;;;;;;;;;;;;;;;;;;;;;;;;;;;;;;;;;;;;;;;;;;;;
"Carrot";"1996";;"Mac OS X";"Rachel's Experiment (D.T.)";"1.0";"2";"1";"1";"2";"1";"1";"2014-10-16 16:26:04.740";"2014-10-16 16:40:14.851";"1";"1";"0";"72";"71";"module.training_block2.exec-4980.GoNoGo2";;;;;;;;;;;;;;;;;;;;;;;;;;;;;;;;;;;"1251";"2014-10-16 16:31:23.334";"NST_correctLoc";"6";"1";"FINISHED";"RIGHT";"success";"350";"0";"2014-10-16 16:31:22.083";"1";;;;;;;;;;;;;;;;;;;;;;;;;;;;;;;;;;;;;;;;;;;;;
"Carrot";"1996";;"Mac OS X";"Rachel's Experiment (D.T.)";"1.0";"2";"1";"1";"2";"1";"1";"2014-10-16 16:26:04.740";"2014-10-16 16:40:14.851";"1";"1";"0";"73";"72";"module.training_block2.exec-4980.GoNoGo2";;;;;;;;;;;;;;;;;;;;;;;;;;;;;;;;;;;"1251";"2014-10-16 16:31:25.856";"NST_correctLoc";"22";"1";"FINISHED";"RIGHT";"success";"293";"0";"2014-10-16 16:31:24.605";"3";;;;;;;;;;;;;;;;;;;;;;;;;;;;;;;;;;;;;;;;;;;;;
"Carrot";"1996";;"Mac OS X";"Rachel's Experiment (D.T.)";"1.0";"2";"1";"1";"2";"1";"1";"2014-10-16 16:26:04.740";"2014-10-16 16:40:14.851";"1";"1";"0";"74";"73";"module.training_block2.exec-4980.GoNoGo2";;;;;;;;;;;;;;;;;;;;;;;;;;;;;;;;;;;"1250";"2014-10-16 16:31:28.380";"NST_correctLoc";"27";"0";"FINISHED";"LEFT";"success";"388";"0";"2014-10-16 16:31:27.129";"3";;;;;;;;;;;;;;;;;;;;;;;;;;;;;;;;;;;;;;;;;;;;;
"Carrot";"1996";;"Mac OS X";"Rachel's Experiment (D.T.)";"1.0";"2";"1";"1";"2";"1";"1";"2014-10-16 16:26:04.740";"2014-10-16 16:40:14.851";"1";"1";"0";"75";"74";"module.training_block2.exec-4980.GoNoGo2";;;;;;;;;;;;;;;;;;;;;;;;;;;;;;;;;;;"1251";"2014-10-16 16:31:30.907";"NST_correctLoc";"24";"1";"FINISHED";"RIGHT";"success";"542";"0";"2014-10-16 16:31:29.655";"3";;;;;;;;;;;;;;;;;;;;;;;;;;;;;;;;;;;;;;;;;;;;;
"Carrot";"1996";;"Mac OS X";"Rachel's Experiment (D.T.)";"1.0";"2";"1";"1";"2";"1";"1";"2014-10-16 16:26:04.740";"2014-10-16 16:40:14.851";"1";"1";"0";"76";"75";"module.training_block2.exec-4980.GoNoGo2";;;;;;;;;;;;;;;;;;;;;;;;;;;;;;;;;;;"1251";"2014-10-16 16:31:33.425";"NST_correctLoc";"7";"0";"FINISHED";"LEFT";"success";"372";"0";"2014-10-16 16:31:32.174";"1";;;;;;;;;;;;;;;;;;;;;;;;;;;;;;;;;;;;;;;;;;;;;
"Carrot";"1996";;"Mac OS X";"Rachel's Experiment (D.T.)";"1.0";"2";"1";"1";"2";"1";"1";"2014-10-16 16:26:04.740";"2014-10-16 16:40:14.851";"1";"1";"0";"77";"76";"module.training_block2.exec-4980.GoNoGo2";;;;;;;;;;;;;;;;;;;;;;;;;;;;;;;;;;;"1251";"2014-10-16 16:31:35.943";"NST_correctLoc";"33";"1";"FINISHED";"RIGHT";"success";"324";"0";"2014-10-16 16:31:34.692";"3";;;;;;;;;;;;;;;;;;;;;;;;;;;;;;;;;;;;;;;;;;;;;
"Carrot";"1996";;"Mac OS X";"Rachel's Experiment (D.T.)";"1.0";"2";"1";"1";"2";"1";"1";"2014-10-16 16:26:04.740";"2014-10-16 16:40:14.851";"1";"1";"0";"78";"77";"module.training_block2.exec-4980.GoNoGo2";;;;;;;;;;;;;;;;;;;;;;;;;;;;;;;;;;;"1250";"2014-10-16 16:31:38.465";"NST_correctLoc";"35";"1";"FINISHED";"RIGHT";"success";"283";"0";"2014-10-16 16:31:37.214";"3";;;;;;;;;;;;;;;;;;;;;;;;;;;;;;;;;;;;;;;;;;;;;
"Carrot";"1996";;"Mac OS X";"Rachel's Experiment (D.T.)";"1.0";"2";"1";"1";"2";"1";"1";"2014-10-16 16:26:04.740";"2014-10-16 16:40:14.851";"1";"1";"0";"79";"78";"module.training_block2.exec-4980.GoNoGo2";;;;;;;;;;;;;;;;;;;;;;;;;;;;;;;;;;;"1251";"2014-10-16 16:31:40.984";"NST_correctLoc";"32";"0";"FINISHED";"LEFT";"success";"286";"0";"2014-10-16 16:31:39.732";"3";;;;;;;;;;;;;;;;;;;;;;;;;;;;;;;;;;;;;;;;;;;;;
"Carrot";"1996";;"Mac OS X";"Rachel's Experiment (D.T.)";"1.0";"2";"1";"1";"2";"1";"1";"2014-10-16 16:26:04.740";"2014-10-16 16:40:14.851";"1";"1";"0";"80";"79";"module.training_block2.exec-4980.GoNoGo2";;;;;;;;;;;;;;;;;;;;;;;;;;;;;;;;;;;"1250";"2014-10-16 16:31:43.500";"NST_correctLoc";"31";"0";"FINISHED";"LEFT";"success";"334";"0";"2014-10-16 16:31:42.249";"3";;;;;;;;;;;;;;;;;;;;;;;;;;;;;;;;;;;;;;;;;;;;;
"Carrot";"1996";;"Mac OS X";"Rachel's Experiment (D.T.)";"1.0";"2";"1";"1";"2";"1";"1";"2014-10-16 16:26:04.740";"2014-10-16 16:40:14.851";"1";"1";"0";"81";"80";"module.training_block2.exec-4980.GoNoGo2";;;;;;;;;;;;;;;;;;;;;;;;;;;;;;;;;;;"1250";"2014-10-16 16:31:46.017";"NST_correctLoc";"14";"0";"FINISHED";"LEFT";"success";"334";"0";"2014-10-16 16:31:44.767";"2";;;;;;;;;;;;;;;;;;;;;;;;;;;;;;;;;;;;;;;;;;;;;
"Carrot";"1996";;"Mac OS X";"Rachel's Experiment (D.T.)";"1.0";"2";"1";"1";"2";"1";"1";"2014-10-16 16:26:04.740";"2014-10-16 16:40:14.851";"1";"1";"0";"82";"81";"module.training_block2.exec-4980.GoNoGo2";;;;;;;;;;;;;;;;;;;;;;;;;;;;;;;;;;;"1251";"2014-10-16 16:31:48.535";"NST_correctLoc";"4";"1";"FINISHED";"RIGHT";"success";"346";"0";"2014-10-16 16:31:47.283";"1";;;;;;;;;;;;;;;;;;;;;;;;;;;;;;;;;;;;;;;;;;;;;
"Carrot";"1996";;"Mac OS X";"Rachel's Experiment (D.T.)";"1.0";"2";"1";"1";"2";"1";"1";"2014-10-16 16:26:04.740";"2014-10-16 16:40:14.851";"1";"1";"0";"83";"82";"module.training_block2.exec-4980.GoNoGo2";;;;;;;;;;;;;;;;;;;;;;;;;;;;;;;;;;;"1251";"2014-10-16 16:31:51.052";"NST_correctLoc";"30";"0";"FINISHED";"LEFT";"success";"284";"0";"2014-10-16 16:31:49.800";"3";;;;;;;;;;;;;;;;;;;;;;;;;;;;;;;;;;;;;;;;;;;;;
"Carrot";"1996";;"Mac OS X";"Rachel's Experiment (D.T.)";"1.0";"2";"1";"1";"2";"1";"1";"2014-10-16 16:26:04.740";"2014-10-16 16:40:14.851";"1";"1";"0";"84";"83";"module.training_block2.exec-4980.GoNoGo2";;;;;;;;;;;;;;;;;;;;;;;;;;;;;;;;;;;"1251";"2014-10-16 16:31:53.571";"NST_correctLoc";"19";"1";"FINISHED";"RIGHT";"success";"344";"0";"2014-10-16 16:31:52.320";"3";;;;;;;;;;;;;;;;;;;;;;;;;;;;;;;;;;;;;;;;;;;;;
"Carrot";"1996";;"Mac OS X";"Rachel's Experiment (D.T.)";"1.0";"2";"1";"1";"2";"1";"1";"2014-10-16 16:26:04.740";"2014-10-16 16:40:14.851";"1";"1";"0";"85";"84";"module.training_block2.exec-4980.GoNoGo2";;;;;;;;;;;;;;;;;;;;;;;;;;;;;;;;;;;"1251";"2014-10-16 16:31:56.092";"NST_correctLoc";"1";"1";"FINISHED";"RIGHT";"success";"513";"0";"2014-10-16 16:31:54.841";"1";;;;;;;;;;;;;;;;;;;;;;;;;;;;;;;;;;;;;;;;;;;;;
"Carrot";"1996";;"Mac OS X";"Rachel's Experiment (D.T.)";"1.0";"2";"1";"1";"2";"1";"1";"2014-10-16 16:26:04.740";"2014-10-16 16:40:14.851";"1";"1";"0";"86";"85";"module.training_block2.exec-4980.GoNoGo2";;;;;;;;;;;;;;;;;;;;;;;;;;;;;;;;;;;"1250";"2014-10-16 16:31:58.614";"NST_correctLoc";"29";"0";"FINISHED";"LEFT";"success";"302";"0";"2014-10-16 16:31:57.364";"3";;;;;;;;;;;;;;;;;;;;;;;;;;;;;;;;;;;;;;;;;;;;;
"Carrot";"1996";;"Mac OS X";"Rachel's Experiment (D.T.)";"1.0";"2";"1";"1";"2";"1";"1";"2014-10-16 16:26:04.740";"2014-10-16 16:40:14.851";"1";"1";"0";"87";"86";"module.training_block2.exec-4980.GoNoGo2";;;;;;;;;;;;;;;;;;;;;;;;;;;;;;;;;;;"1251";"2014-10-16 16:32:01.131";"NST_correctLoc";"15";"1";"FINISHED";"RIGHT";"success";"390";"0";"2014-10-16 16:31:59.880";"2";;;;;;;;;;;;;;;;;;;;;;;;;;;;;;;;;;;;;;;;;;;;;
"Carrot";"1996";;"Mac OS X";"Rachel's Experiment (D.T.)";"1.0";"2";"1";"1";"2";"1";"1";"2014-10-16 16:26:04.740";"2014-10-16 16:40:14.851";"1";"1";"0";"88";"87";"module.training_block3.exec-9315.GoNoGo3";;;;;;;;;;;;;;;;;;;;;;;;;;;;;;;;;;;;;;;;;;;;;;;"1250";"2014-10-16 16:32:11.920";"NST_correctLoc";"26";"0";"FINISHED";"LEFT";"success";"293";"0";"2014-10-16 16:32:10.670";"3";;;;;;;;;;;;;;;;;;;;;;;;;;;;;;;;;
"Carrot";"1996";;"Mac OS X";"Rachel's Experiment (D.T.)";"1.0";"2";"1";"1";"2";"1";"1";"2014-10-16 16:26:04.740";"2014-10-16 16:40:14.851";"1";"1";"0";"89";"88";"module.training_block3.exec-9315.GoNoGo3";;;;;;;;;;;;;;;;;;;;;;;;;;;;;;;;;;;;;;;;;;;;;;;"1251";"2014-10-16 16:32:14.438";"NST_correctLoc";"16";"1";"FINISHED";"RIGHT";"success";"268";"0";"2014-10-16 16:32:13.187";"2";;;;;;;;;;;;;;;;;;;;;;;;;;;;;;;;;
"Carrot";"1996";;"Mac OS X";"Rachel's Experiment (D.T.)";"1.0";"2";"1";"1";"2";"1";"1";"2014-10-16 16:26:04.740";"2014-10-16 16:40:14.851";"1";"1";"0";"90";"89";"module.training_block3.exec-9315.GoNoGo3";;;;;;;;;;;;;;;;;;;;;;;;;;;;;;;;;;;;;;;;;;;;;;;"1251";"2014-10-16 16:32:16.955";"NST_correctLoc";"17";"0";"FINISHED";"LEFT";"success";"334";"0";"2014-10-16 16:32:15.704";"2";;;;;;;;;;;;;;;;;;;;;;;;;;;;;;;;;
"Carrot";"1996";;"Mac OS X";"Rachel's Experiment (D.T.)";"1.0";"2";"1";"1";"2";"1";"1";"2014-10-16 16:26:04.740";"2014-10-16 16:40:14.851";"1";"1";"0";"91";"90";"module.training_block3.exec-9315.GoNoGo3";;;;;;;;;;;;;;;;;;;;;;;;;;;;;;;;;;;;;;;;;;;;;;;"1251";"2014-10-16 16:32:19.470";"NST_correctLoc";"27";"1";"FINISHED";"RIGHT";"success";"264";"0";"2014-10-16 16:32:18.219";"3";;;;;;;;;;;;;;;;;;;;;;;;;;;;;;;;;
"Carrot";"1996";;"Mac OS X";"Rachel's Experiment (D.T.)";"1.0";"2";"1";"1";"2";"1";"1";"2014-10-16 16:26:04.740";"2014-10-16 16:40:14.851";"1";"1";"0";"92";"91";"module.training_block3.exec-9315.GoNoGo3";;;;;;;;;;;;;;;;;;;;;;;;;;;;;;;;;;;;;;;;;;;;;;;"1251";"2014-10-16 16:32:21.990";"NST_correctLoc";"22";"1";"FINISHED";"RIGHT";"success";"316";"0";"2014-10-16 16:32:20.739";"3";;;;;;;;;;;;;;;;;;;;;;;;;;;;;;;;;
"Carrot";"1996";;"Mac OS X";"Rachel's Experiment (D.T.)";"1.0";"2";"1";"1";"2";"1";"1";"2014-10-16 16:26:04.740";"2014-10-16 16:40:14.851";"1";"1";"0";"93";"92";"module.training_block3.exec-9315.GoNoGo3";;;;;;;;;;;;;;;;;;;;;;;;;;;;;;;;;;;;;;;;;;;;;;;"1250";"2014-10-16 16:32:24.505";"NST_correctLoc";"25";"1";"FINISHED";"RIGHT";"success";"305";"0";"2014-10-16 16:32:23.255";"3";;;;;;;;;;;;;;;;;;;;;;;;;;;;;;;;;
"Carrot";"1996";;"Mac OS X";"Rachel's Experiment (D.T.)";"1.0";"2";"1";"1";"2";"1";"1";"2014-10-16 16:26:04.740";"2014-10-16 16:40:14.851";"1";"1";"0";"94";"93";"module.training_block3.exec-9315.GoNoGo3";;;;;;;;;;;;;;;;;;;;;;;;;;;;;;;;;;;;;;;;;;;;;;;"1251";"2014-10-16 16:32:27.023";"NST_correctLoc";"32";"0";"FINISHED";"LEFT";"success";"273";"0";"2014-10-16 16:32:25.771";"3";;;;;;;;;;;;;;;;;;;;;;;;;;;;;;;;;
"Carrot";"1996";;"Mac OS X";"Rachel's Experiment (D.T.)";"1.0";"2";"1";"1";"2";"1";"1";"2014-10-16 16:26:04.740";"2014-10-16 16:40:14.851";"1";"1";"0";"95";"94";"module.training_block3.exec-9315.GoNoGo3";;;;;;;;;;;;;;;;;;;;;;;;;;;;;;;;;;;;;;;;;;;;;;;"1251";"2014-10-16 16:32:29.542";"NST_correctLoc";"0";"0";"FINISHED";"LEFT";"success";"291";"0";"2014-10-16 16:32:28.290";"1";;;;;;;;;;;;;;;;;;;;;;;;;;;;;;;;;
"Carrot";"1996";;"Mac OS X";"Rachel's Experiment (D.T.)";"1.0";"2";"1";"1";"2";"1";"1";"2014-10-16 16:26:04.740";"2014-10-16 16:40:14.851";"1";"1";"0";"96";"95";"module.training_block3.exec-9315.GoNoGo3";;;;;;;;;;;;;;;;;;;;;;;;;;;;;;;;;;;;;;;;;;;;;;;"1251";"2014-10-16 16:32:32.061";"NST_correctLoc";"3";"0";"FINISHED";"LEFT";"success";"298";"0";"2014-10-16 16:32:30.809";"1";;;;;;;;;;;;;;;;;;;;;;;;;;;;;;;;;
"Carrot";"1996";;"Mac OS X";"Rachel's Experiment (D.T.)";"1.0";"2";"1";"1";"2";"1";"1";"2014-10-16 16:26:04.740";"2014-10-16 16:40:14.851";"1";"1";"0";"97";"96";"module.training_block3.exec-9315.GoNoGo3";;;;;;;;;;;;;;;;;;;;;;;;;;;;;;;;;;;;;;;;;;;;;;;"1251";"2014-10-16 16:32:34.577";"NST_correctLoc";"2";"0";"FINISHED";"LEFT";"success";"326";"0";"2014-10-16 16:32:33.326";"1";;;;;;;;;;;;;;;;;;;;;;;;;;;;;;;;;
"Carrot";"1996";;"Mac OS X";"Rachel's Experiment (D.T.)";"1.0";"2";"1";"1";"2";"1";"1";"2014-10-16 16:26:04.740";"2014-10-16 16:40:14.851";"1";"1";"0";"98";"97";"module.training_block3.exec-9315.GoNoGo3";;;;;;;;;;;;;;;;;;;;;;;;;;;;;;;;;;;;;;;;;;;;;;;"1251";"2014-10-16 16:32:37.094";"NST_correctLoc";"20";"1";"FINISHED";"RIGHT";"success";"315";"0";"2014-10-16 16:32:35.843";"3";;;;;;;;;;;;;;;;;;;;;;;;;;;;;;;;;
"Carrot";"1996";;"Mac OS X";"Rachel's Experiment (D.T.)";"1.0";"2";"1";"1";"2";"1";"1";"2014-10-16 16:26:04.740";"2014-10-16 16:40:14.851";"1";"1";"0";"99";"98";"module.training_block3.exec-9315.GoNoGo3";;;;;;;;;;;;;;;;;;;;;;;;;;;;;;;;;;;;;;;;;;;;;;;"1251";"2014-10-16 16:32:39.610";"NST_correctLoc";"10";"1";"FINISHED";"RIGHT";"success";"330";"0";"2014-10-16 16:32:38.358";"2";;;;;;;;;;;;;;;;;;;;;;;;;;;;;;;;;
"Carrot";"1996";;"Mac OS X";"Rachel's Experiment (D.T.)";"1.0";"2";"1";"1";"2";"1";"1";"2014-10-16 16:26:04.740";"2014-10-16 16:40:14.851";"1";"1";"0";"100";"99";"module.training_block3.exec-9315.GoNoGo3";;;;;;;;;;;;;;;;;;;;;;;;;;;;;;;;;;;;;;;;;;;;;;;"1251";"2014-10-16 16:32:42.126";"NST_correctLoc";"28";"0";"FINISHED";"LEFT";"success";"275";"0";"2014-10-16 16:32:40.874";"3";;;;;;;;;;;;;;;;;;;;;;;;;;;;;;;;;
"Carrot";"1996";;"Mac OS X";"Rachel's Experiment (D.T.)";"1.0";"2";"1";"1";"2";"1";"1";"2014-10-16 16:26:04.740";"2014-10-16 16:40:14.851";"1";"1";"0";"101";"100";"module.training_block3.exec-9315.GoNoGo3";;;;;;;;;;;;;;;;;;;;;;;;;;;;;;;;;;;;;;;;;;;;;;;"1251";"2014-10-16 16:32:44.643";"NST_correctLoc";"33";"0";"FINISHED";"LEFT";"success";"308";"0";"2014-10-16 16:32:43.392";"3";;;;;;;;;;;;;;;;;;;;;;;;;;;;;;;;;
"Carrot";"1996";;"Mac OS X";"Rachel's Experiment (D.T.)";"1.0";"2";"1";"1";"2";"1";"1";"2014-10-16 16:26:04.740";"2014-10-16 16:40:14.851";"1";"1";"0";"102";"101";"module.training_block3.exec-9315.GoNoGo3";;;;;;;;;;;;;;;;;;;;;;;;;;;;;;;;;;;;;;;;;;;;;;;"1251";"2014-10-16 16:32:47.159";"NST_correctLoc";"8";"1";"FINISHED";"RIGHT";"success";"298";"0";"2014-10-16 16:32:45.908";"1";;;;;;;;;;;;;;;;;;;;;;;;;;;;;;;;;
"Carrot";"1996";;"Mac OS X";"Rachel's Experiment (D.T.)";"1.0";"2";"1";"1";"2";"1";"1";"2014-10-16 16:26:04.740";"2014-10-16 16:40:14.851";"1";"1";"0";"103";"102";"module.training_block3.exec-9315.GoNoGo3";;;;;;;;;;;;;;;;;;;;;;;;;;;;;;;;;;;;;;;;;;;;;;;"1251";"2014-10-16 16:32:49.676";"NST_correctLoc";"7";"1";"FINISHED";"RIGHT";"success";"277";"0";"2014-10-16 16:32:48.425";"1";;;;;;;;;;;;;;;;;;;;;;;;;;;;;;;;;
"Carrot";"1996";;"Mac OS X";"Rachel's Experiment (D.T.)";"1.0";"2";"1";"1";"2";"1";"1";"2014-10-16 16:26:04.740";"2014-10-16 16:40:14.851";"1";"1";"0";"104";"103";"module.training_block3.exec-9315.GoNoGo3";;;;;;;;;;;;;;;;;;;;;;;;;;;;;;;;;;;;;;;;;;;;;;;"1251";"2014-10-16 16:32:52.191";"NST_correctLoc";"1";"1";"FINISHED";"RIGHT";"success";"293";"0";"2014-10-16 16:32:50.940";"1";;;;;;;;;;;;;;;;;;;;;;;;;;;;;;;;;
"Carrot";"1996";;"Mac OS X";"Rachel's Experiment (D.T.)";"1.0";"2";"1";"1";"2";"1";"1";"2014-10-16 16:26:04.740";"2014-10-16 16:40:14.851";"1";"1";"0";"105";"104";"module.training_block3.exec-9315.GoNoGo3";;;;;;;;;;;;;;;;;;;;;;;;;;;;;;;;;;;;;;;;;;;;;;;"1250";"2014-10-16 16:32:54.707";"NST_correctLoc";"13";"0";"FINISHED";"LEFT";"success";"258";"0";"2014-10-16 16:32:53.456";"2";;;;;;;;;;;;;;;;;;;;;;;;;;;;;;;;;
"Carrot";"1996";;"Mac OS X";"Rachel's Experiment (D.T.)";"1.0";"2";"1";"1";"2";"1";"1";"2014-10-16 16:26:04.740";"2014-10-16 16:40:14.851";"1";"1";"0";"106";"105";"module.training_block3.exec-9315.GoNoGo3";;;;;;;;;;;;;;;;;;;;;;;;;;;;;;;;;;;;;;;;;;;;;;;"1250";"2014-10-16 16:32:57.224";"NST_correctLoc";"15";"0";"FINISHED";"LEFT";"success";"298";"0";"2014-10-16 16:32:55.974";"2";;;;;;;;;;;;;;;;;;;;;;;;;;;;;;;;;
"Carrot";"1996";;"Mac OS X";"Rachel's Experiment (D.T.)";"1.0";"2";"1";"1";"2";"1";"1";"2014-10-16 16:26:04.740";"2014-10-16 16:40:14.851";"1";"1";"0";"107";"106";"module.training_block3.exec-9315.GoNoGo3";;;;;;;;;;;;;;;;;;;;;;;;;;;;;;;;;;;;;;;;;;;;;;;"1251";"2014-10-16 16:32:59.741";"NST_correctLoc";"35";"1";"FINISHED";"RIGHT";"success";"323";"0";"2014-10-16 16:32:58.489";"3";;;;;;;;;;;;;;;;;;;;;;;;;;;;;;;;;
"Carrot";"1996";;"Mac OS X";"Rachel's Experiment (D.T.)";"1.0";"2";"1";"1";"2";"1";"1";"2014-10-16 16:26:04.740";"2014-10-16 16:40:14.851";"1";"1";"0";"108";"107";"module.training_block3.exec-9315.GoNoGo3";;;;;;;;;;;;;;;;;;;;;;;;;;;;;;;;;;;;;;;;;;;;;;;"1251";"2014-10-16 16:33:02.255";"NST_correctLoc";"4";"1";"FINISHED";"RIGHT";"success";"305";"0";"2014-10-16 16:33:01.004";"1";;;;;;;;;;;;;;;;;;;;;;;;;;;;;;;;;
"Carrot";"1996";;"Mac OS X";"Rachel's Experiment (D.T.)";"1.0";"2";"1";"1";"2";"1";"1";"2014-10-16 16:26:04.740";"2014-10-16 16:40:14.851";"1";"1";"0";"109";"108";"module.training_block3.exec-9315.GoNoGo3";;;;;;;;;;;;;;;;;;;;;;;;;;;;;;;;;;;;;;;;;;;;;;;"1250";"2014-10-16 16:33:04.771";"NST_correctLoc";"12";"0";"FINISHED";"LEFT";"success";"311";"0";"2014-10-16 16:33:03.520";"2";;;;;;;;;;;;;;;;;;;;;;;;;;;;;;;;;
"Carrot";"1996";;"Mac OS X";"Rachel's Experiment (D.T.)";"1.0";"2";"1";"1";"2";"1";"1";"2014-10-16 16:26:04.740";"2014-10-16 16:40:14.851";"1";"1";"0";"110";"109";"module.training_block3.exec-9315.GoNoGo3";;;;;;;;;;;;;;;;;;;;;;;;;;;;;;;;;;;;;;;;;;;;;;;"1250";"2014-10-16 16:33:07.288";"NST_correctLoc";"18";"0";"FINISHED";"LEFT";"success";"377";"0";"2014-10-16 16:33:06.037";"3";;;;;;;;;;;;;;;;;;;;;;;;;;;;;;;;;
"Carrot";"1996";;"Mac OS X";"Rachel's Experiment (D.T.)";"1.0";"2";"1";"1";"2";"1";"1";"2014-10-16 16:26:04.740";"2014-10-16 16:40:14.851";"1";"1";"0";"111";"110";"module.training_block3.exec-9315.GoNoGo3";;;;;;;;;;;;;;;;;;;;;;;;;;;;;;;;;;;;;;;;;;;;;;;"1251";"2014-10-16 16:33:09.805";"NST_correctLoc";"9";"0";"FINISHED";"LEFT";"success";"337";"0";"2014-10-16 16:33:08.554";"2";;;;;;;;;;;;;;;;;;;;;;;;;;;;;;;;;
"Carrot";"1996";;"Mac OS X";"Rachel's Experiment (D.T.)";"1.0";"2";"1";"1";"2";"1";"1";"2014-10-16 16:26:04.740";"2014-10-16 16:40:14.851";"1";"1";"0";"112";"111";"module.training_block3.exec-9315.GoNoGo3";;;;;;;;;;;;;;;;;;;;;;;;;;;;;;;;;;;;;;;;;;;;;;;"1251";"2014-10-16 16:33:12.322";"NST_correctLoc";"34";"0";"FINISHED";"LEFT";"success";"310";"0";"2014-10-16 16:33:11.070";"3";;;;;;;;;;;;;;;;;;;;;;;;;;;;;;;;;
"Carrot";"1996";;"Mac OS X";"Rachel's Experiment (D.T.)";"1.0";"2";"1";"1";"2";"1";"1";"2014-10-16 16:26:04.740";"2014-10-16 16:40:14.851";"1";"1";"0";"113";"112";"module.training_block3.exec-9315.GoNoGo3";;;;;;;;;;;;;;;;;;;;;;;;;;;;;;;;;;;;;;;;;;;;;;;"1251";"2014-10-16 16:33:14.838";"NST_correctLoc";"23";"1";"FINISHED";"RIGHT";"success";"256";"0";"2014-10-16 16:33:13.587";"3";;;;;;;;;;;;;;;;;;;;;;;;;;;;;;;;;
"Carrot";"1996";;"Mac OS X";"Rachel's Experiment (D.T.)";"1.0";"2";"1";"1";"2";"1";"1";"2014-10-16 16:26:04.740";"2014-10-16 16:40:14.851";"1";"1";"0";"114";"113";"module.training_block3.exec-9315.GoNoGo3";;;;;;;;;;;;;;;;;;;;;;;;;;;;;;;;;;;;;;;;;;;;;;;"1251";"2014-10-16 16:33:17.355";"NST_correctLoc";"14";"1";"FINISHED";"RIGHT";"success";"271";"0";"2014-10-16 16:33:16.103";"2";;;;;;;;;;;;;;;;;;;;;;;;;;;;;;;;;
"Carrot";"1996";;"Mac OS X";"Rachel's Experiment (D.T.)";"1.0";"2";"1";"1";"2";"1";"1";"2014-10-16 16:26:04.740";"2014-10-16 16:40:14.851";"1";"1";"0";"115";"114";"module.training_block3.exec-9315.GoNoGo3";;;;;;;;;;;;;;;;;;;;;;;;;;;;;;;;;;;;;;;;;;;;;;;"1250";"2014-10-16 16:33:19.872";"NST_correctLoc";"31";"1";"FINISHED";"RIGHT";"success";"476";"0";"2014-10-16 16:33:18.621";"3";;;;;;;;;;;;;;;;;;;;;;;;;;;;;;;;;
"Carrot";"1996";;"Mac OS X";"Rachel's Experiment (D.T.)";"1.0";"2";"1";"1";"2";"1";"1";"2014-10-16 16:26:04.740";"2014-10-16 16:40:14.851";"1";"1";"0";"116";"115";"module.training_block3.exec-9315.GoNoGo3";;;;;;;;;;;;;;;;;;;;;;;;;;;;;;;;;;;;;;;;;;;;;;;"1251";"2014-10-16 16:33:22.388";"NST_correctLoc";"19";"1";"FINISHED";"RIGHT";"success";"365";"0";"2014-10-16 16:33:21.137";"3";;;;;;;;;;;;;;;;;;;;;;;;;;;;;;;;;
"Carrot";"1996";;"Mac OS X";"Rachel's Experiment (D.T.)";"1.0";"2";"1";"1";"2";"1";"1";"2014-10-16 16:26:04.740";"2014-10-16 16:40:14.851";"1";"1";"0";"117";"116";"module.training_block3.exec-9315.GoNoGo3";;;;;;;;;;;;;;;;;;;;;;;;;;;;;;;;;;;;;;;;;;;;;;;"1250";"2014-10-16 16:33:24.905";"NST_correctLoc";"11";"0";"FINISHED";"LEFT";"success";"281";"0";"2014-10-16 16:33:23.654";"2";;;;;;;;;;;;;;;;;;;;;;;;;;;;;;;;;
"Carrot";"1996";;"Mac OS X";"Rachel's Experiment (D.T.)";"1.0";"2";"1";"1";"2";"1";"1";"2014-10-16 16:26:04.740";"2014-10-16 16:40:14.851";"1";"1";"0";"118";"117";"module.training_block3.exec-9315.GoNoGo3";;;;;;;;;;;;;;;;;;;;;;;;;;;;;;;;;;;;;;;;;;;;;;;"1251";"2014-10-16 16:33:27.422";"NST_correctLoc";"21";"0";"FINISHED";"LEFT";"success";"249";"0";"2014-10-16 16:33:26.170";"3";;;;;;;;;;;;;;;;;;;;;;;;;;;;;;;;;
"Carrot";"1996";;"Mac OS X";"Rachel's Experiment (D.T.)";"1.0";"2";"1";"1";"2";"1";"1";"2014-10-16 16:26:04.740";"2014-10-16 16:40:14.851";"1";"1";"0";"119";"118";"module.training_block3.exec-9315.GoNoGo3";;;;;;;;;;;;;;;;;;;;;;;;;;;;;;;;;;;;;;;;;;;;;;;"1251";"2014-10-16 16:33:29.939";"NST_wrongLoc";"30";"0";"FINISHED";"RIGHT";"failure";"325";"0";"2014-10-16 16:33:28.688";"3";;;;;;;;;;;;;;;;;;;;;;;;;;;;;;;;;
"Carrot";"1996";;"Mac OS X";"Rachel's Experiment (D.T.)";"1.0";"2";"1";"1";"2";"1";"1";"2014-10-16 16:26:04.740";"2014-10-16 16:40:14.851";"1";"1";"0";"120";"119";"module.training_block3.exec-9315.GoNoGo3";;;;;;;;;;;;;;;;;;;;;;;;;;;;;;;;;;;;;;;;;;;;;;;"1251";"2014-10-16 16:33:32.456";"NST_correctLoc";"24";"0";"FINISHED";"LEFT";"success";"298";"0";"2014-10-16 16:33:31.204";"3";;;;;;;;;;;;;;;;;;;;;;;;;;;;;;;;;
"Carrot";"1996";;"Mac OS X";"Rachel's Experiment (D.T.)";"1.0";"2";"1";"1";"2";"1";"1";"2014-10-16 16:26:04.740";"2014-10-16 16:40:14.851";"1";"1";"0";"121";"120";"module.training_block3.exec-9315.GoNoGo3";;;;;;;;;;;;;;;;;;;;;;;;;;;;;;;;;;;;;;;;;;;;;;;"1251";"2014-10-16 16:33:34.972";"NST_correctLoc";"29";"1";"FINISHED";"RIGHT";"success";"302";"0";"2014-10-16 16:33:33.721";"3";;;;;;;;;;;;;;;;;;;;;;;;;;;;;;;;;
"Carrot";"1996";;"Mac OS X";"Rachel's Experiment (D.T.)";"1.0";"2";"1";"1";"2";"1";"1";"2014-10-16 16:26:04.740";"2014-10-16 16:40:14.851";"1";"1";"0";"122";"121";"module.training_block3.exec-9315.GoNoGo3";;;;;;;;;;;;;;;;;;;;;;;;;;;;;;;;;;;;;;;;;;;;;;;"1250";"2014-10-16 16:33:37.489";"NST_correctLoc";"6";"1";"FINISHED";"RIGHT";"success";"287";"0";"2014-10-16 16:33:36.238";"1";;;;;;;;;;;;;;;;;;;;;;;;;;;;;;;;;
"Carrot";"1996";;"Mac OS X";"Rachel's Experiment (D.T.)";"1.0";"2";"1";"1";"2";"1";"1";"2014-10-16 16:26:04.740";"2014-10-16 16:40:14.851";"1";"1";"0";"123";"122";"module.training_block3.exec-9315.GoNoGo3";;;;;;;;;;;;;;;;;;;;;;;;;;;;;;;;;;;;;;;;;;;;;;;"1251";"2014-10-16 16:33:40.007";"NST_correctLoc";"5";"0";"FINISHED";"LEFT";"success";"284";"0";"2014-10-16 16:33:38.755";"1";;;;;;;;;;;;;;;;;;;;;;;;;;;;;;;;;
"Carrot";"1996";;"Mac OS X";"Rachel's Experiment (D.T.)";"1.0";"2";"1";"1";"2";"1";"1";"2014-10-16 16:26:04.740";"2014-10-16 16:40:14.851";"1";"1";"0";"124";"123";"module.training_block4.exec-3511.GoNoGo4";;;;;;;;;;;;;;;;;;;;;;;;;;;;;;;;;;;;;;;;;;;;;;;;;;;;;;;;;;;"1251";"2014-10-16 16:33:51.363";"NST_correctLoc";"5";"0";"FINISHED";"LEFT";"success";"388";"0";"2014-10-16 16:33:50.111";"1";;;;;;;;;;;;;;;;;;;;;
"Carrot";"1996";;"Mac OS X";"Rachel's Experiment (D.T.)";"1.0";"2";"1";"1";"2";"1";"1";"2014-10-16 16:26:04.740";"2014-10-16 16:40:14.851";"1";"1";"0";"125";"124";"module.training_block4.exec-3511.GoNoGo4";;;;;;;;;;;;;;;;;;;;;;;;;;;;;;;;;;;;;;;;;;;;;;;;;;;;;;;;;;;"1251";"2014-10-16 16:33:53.879";"NST_correctLoc";"25";"1";"FINISHED";"RIGHT";"success";"334";"0";"2014-10-16 16:33:52.628";"3";;;;;;;;;;;;;;;;;;;;;
"Carrot";"1996";;"Mac OS X";"Rachel's Experiment (D.T.)";"1.0";"2";"1";"1";"2";"1";"1";"2014-10-16 16:26:04.740";"2014-10-16 16:40:14.851";"1";"1";"0";"126";"125";"module.training_block4.exec-3511.GoNoGo4";;;;;;;;;;;;;;;;;;;;;;;;;;;;;;;;;;;;;;;;;;;;;;;;;;;;;;;;;;;"1251";"2014-10-16 16:33:56.400";"NST_correctLoc";"18";"0";"FINISHED";"LEFT";"success";"322";"0";"2014-10-16 16:33:55.149";"3";;;;;;;;;;;;;;;;;;;;;
"Carrot";"1996";;"Mac OS X";"Rachel's Experiment (D.T.)";"1.0";"2";"1";"1";"2";"1";"1";"2014-10-16 16:26:04.740";"2014-10-16 16:40:14.851";"1";"1";"0";"127";"126";"module.training_block4.exec-3511.GoNoGo4";;;;;;;;;;;;;;;;;;;;;;;;;;;;;;;;;;;;;;;;;;;;;;;;;;;;;;;;;;;"1251";"2014-10-16 16:33:58.917";"NST_correctLoc";"22";"1";"FINISHED";"RIGHT";"success";"310";"0";"2014-10-16 16:33:57.665";"3";;;;;;;;;;;;;;;;;;;;;
"Carrot";"1996";;"Mac OS X";"Rachel's Experiment (D.T.)";"1.0";"2";"1";"1";"2";"1";"1";"2014-10-16 16:26:04.740";"2014-10-16 16:40:14.851";"1";"1";"0";"128";"127";"module.training_block4.exec-3511.GoNoGo4";;;;;;;;;;;;;;;;;;;;;;;;;;;;;;;;;;;;;;;;;;;;;;;;;;;;;;;;;;;"1251";"2014-10-16 16:34:01.434";"NST_correctLoc";"7";"1";"FINISHED";"RIGHT";"success";"266";"0";"2014-10-16 16:34:00.183";"1";;;;;;;;;;;;;;;;;;;;;
"Carrot";"1996";;"Mac OS X";"Rachel's Experiment (D.T.)";"1.0";"2";"1";"1";"2";"1";"1";"2014-10-16 16:26:04.740";"2014-10-16 16:40:14.851";"1";"1";"0";"129";"128";"module.training_block4.exec-3511.GoNoGo4";;;;;;;;;;;;;;;;;;;;;;;;;;;;;;;;;;;;;;;;;;;;;;;;;;;;;;;;;;;"1251";"2014-10-16 16:34:03.951";"NST_correctLoc";"13";"0";"FINISHED";"LEFT";"success";"323";"0";"2014-10-16 16:34:02.700";"2";;;;;;;;;;;;;;;;;;;;;
"Carrot";"1996";;"Mac OS X";"Rachel's Experiment (D.T.)";"1.0";"2";"1";"1";"2";"1";"1";"2014-10-16 16:26:04.740";"2014-10-16 16:40:14.851";"1";"1";"0";"130";"129";"module.training_block4.exec-3511.GoNoGo4";;;;;;;;;;;;;;;;;;;;;;;;;;;;;;;;;;;;;;;;;;;;;;;;;;;;;;;;;;;"1251";"2014-10-16 16:34:06.467";"NST_correctLoc";"35";"1";"FINISHED";"RIGHT";"success";"291";"0";"2014-10-16 16:34:05.216";"3";;;;;;;;;;;;;;;;;;;;;
"Carrot";"1996";;"Mac OS X";"Rachel's Experiment (D.T.)";"1.0";"2";"1";"1";"2";"1";"1";"2014-10-16 16:26:04.740";"2014-10-16 16:40:14.851";"1";"1";"0";"131";"130";"module.training_block4.exec-3511.GoNoGo4";;;;;;;;;;;;;;;;;;;;;;;;;;;;;;;;;;;;;;;;;;;;;;;;;;;;;;;;;;;"1251";"2014-10-16 16:34:08.982";"NST_correctLoc";"9";"1";"FINISHED";"RIGHT";"success";"294";"0";"2014-10-16 16:34:07.730";"2";;;;;;;;;;;;;;;;;;;;;
"Carrot";"1996";;"Mac OS X";"Rachel's Experiment (D.T.)";"1.0";"2";"1";"1";"2";"1";"1";"2014-10-16 16:26:04.740";"2014-10-16 16:40:14.851";"1";"1";"0";"132";"131";"module.training_block4.exec-3511.GoNoGo4";;;;;;;;;;;;;;;;;;;;;;;;;;;;;;;;;;;;;;;;;;;;;;;;;;;;;;;;;;;"1250";"2014-10-16 16:34:11.498";"NST_correctLoc";"34";"0";"FINISHED";"LEFT";"success";"283";"0";"2014-10-16 16:34:10.248";"3";;;;;;;;;;;;;;;;;;;;;
"Carrot";"1996";;"Mac OS X";"Rachel's Experiment (D.T.)";"1.0";"2";"1";"1";"2";"1";"1";"2014-10-16 16:26:04.740";"2014-10-16 16:40:14.851";"1";"1";"0";"133";"132";"module.training_block4.exec-3511.GoNoGo4";;;;;;;;;;;;;;;;;;;;;;;;;;;;;;;;;;;;;;;;;;;;;;;;;;;;;;;;;;;"1251";"2014-10-16 16:34:14.013";"NST_correctLoc";"20";"0";"FINISHED";"LEFT";"success";"318";"0";"2014-10-16 16:34:12.762";"3";;;;;;;;;;;;;;;;;;;;;
"Carrot";"1996";;"Mac OS X";"Rachel's Experiment (D.T.)";"1.0";"2";"1";"1";"2";"1";"1";"2014-10-16 16:26:04.740";"2014-10-16 16:40:14.851";"1";"1";"0";"134";"133";"module.training_block4.exec-3511.GoNoGo4";;;;;;;;;;;;;;;;;;;;;;;;;;;;;;;;;;;;;;;;;;;;;;;;;;;;;;;;;;;"1250";"2014-10-16 16:34:16.526";"NST_correctLoc";"3";"1";"FINISHED";"RIGHT";"success";"318";"0";"2014-10-16 16:34:15.276";"1";;;;;;;;;;;;;;;;;;;;;
"Carrot";"1996";;"Mac OS X";"Rachel's Experiment (D.T.)";"1.0";"2";"1";"1";"2";"1";"1";"2014-10-16 16:26:04.740";"2014-10-16 16:40:14.851";"1";"1";"0";"135";"134";"module.training_block4.exec-3511.GoNoGo4";;;;;;;;;;;;;;;;;;;;;;;;;;;;;;;;;;;;;;;;;;;;;;;;;;;;;;;;;;;"1251";"2014-10-16 16:34:19.042";"NST_correctLoc";"23";"1";"FINISHED";"RIGHT";"success";"282";"0";"2014-10-16 16:34:17.791";"3";;;;;;;;;;;;;;;;;;;;;
"Carrot";"1996";;"Mac OS X";"Rachel's Experiment (D.T.)";"1.0";"2";"1";"1";"2";"1";"1";"2014-10-16 16:26:04.740";"2014-10-16 16:40:14.851";"1";"1";"0";"136";"135";"module.training_block4.exec-3511.GoNoGo4";;;;;;;;;;;;;;;;;;;;;;;;;;;;;;;;;;;;;;;;;;;;;;;;;;;;;;;;;;;"1251";"2014-10-16 16:34:21.556";"NST_correctLoc";"15";"1";"FINISHED";"RIGHT";"success";"294";"0";"2014-10-16 16:34:20.305";"2";;;;;;;;;;;;;;;;;;;;;
"Carrot";"1996";;"Mac OS X";"Rachel's Experiment (D.T.)";"1.0";"2";"1";"1";"2";"1";"1";"2014-10-16 16:26:04.740";"2014-10-16 16:40:14.851";"1";"1";"0";"137";"136";"module.training_block4.exec-3511.GoNoGo4";;;;;;;;;;;;;;;;;;;;;;;;;;;;;;;;;;;;;;;;;;;;;;;;;;;;;;;;;;;"1251";"2014-10-16 16:34:24.073";"NST_correctLoc";"2";"0";"FINISHED";"LEFT";"success";"277";"0";"2014-10-16 16:34:22.822";"1";;;;;;;;;;;;;;;;;;;;;
"Carrot";"1996";;"Mac OS X";"Rachel's Experiment (D.T.)";"1.0";"2";"1";"1";"2";"1";"1";"2014-10-16 16:26:04.740";"2014-10-16 16:40:14.851";"1";"1";"0";"138";"137";"module.training_block4.exec-3511.GoNoGo4";;;;;;;;;;;;;;;;;;;;;;;;;;;;;;;;;;;;;;;;;;;;;;;;;;;;;;;;;;;"1250";"2014-10-16 16:34:26.589";"NST_correctLoc";"27";"0";"FINISHED";"LEFT";"success";"277";"0";"2014-10-16 16:34:25.338";"3";;;;;;;;;;;;;;;;;;;;;
"Carrot";"1996";;"Mac OS X";"Rachel's Experiment (D.T.)";"1.0";"2";"1";"1";"2";"1";"1";"2014-10-16 16:26:04.740";"2014-10-16 16:40:14.851";"1";"1";"0";"139";"138";"module.training_block4.exec-3511.GoNoGo4";;;;;;;;;;;;;;;;;;;;;;;;;;;;;;;;;;;;;;;;;;;;;;;;;;;;;;;;;;;"1251";"2014-10-16 16:34:29.107";"NST_correctLoc";"16";"0";"FINISHED";"LEFT";"success";"410";"0";"2014-10-16 16:34:27.856";"2";;;;;;;;;;;;;;;;;;;;;
"Carrot";"1996";;"Mac OS X";"Rachel's Experiment (D.T.)";"1.0";"2";"1";"1";"2";"1";"1";"2014-10-16 16:26:04.740";"2014-10-16 16:40:14.851";"1";"1";"0";"140";"139";"module.training_block4.exec-3511.GoNoGo4";;;;;;;;;;;;;;;;;;;;;;;;;;;;;;;;;;;;;;;;;;;;;;;;;;;;;;;;;;;"1251";"2014-10-16 16:34:31.624";"NST_correctLoc";"26";"0";"FINISHED";"LEFT";"success";"284";"0";"2014-10-16 16:34:30.373";"3";;;;;;;;;;;;;;;;;;;;;
"Carrot";"1996";;"Mac OS X";"Rachel's Experiment (D.T.)";"1.0";"2";"1";"1";"2";"1";"1";"2014-10-16 16:26:04.740";"2014-10-16 16:40:14.851";"1";"1";"0";"141";"140";"module.training_block4.exec-3511.GoNoGo4";;;;;;;;;;;;;;;;;;;;;;;;;;;;;;;;;;;;;;;;;;;;;;;;;;;;;;;;;;;"1251";"2014-10-16 16:34:34.141";"NST_correctLoc";"4";"0";"FINISHED";"LEFT";"success";"244";"0";"2014-10-16 16:34:32.890";"1";;;;;;;;;;;;;;;;;;;;;
"Carrot";"1996";;"Mac OS X";"Rachel's Experiment (D.T.)";"1.0";"2";"1";"1";"2";"1";"1";"2014-10-16 16:26:04.740";"2014-10-16 16:40:14.851";"1";"1";"0";"142";"141";"module.training_block4.exec-3511.GoNoGo4";;;;;;;;;;;;;;;;;;;;;;;;;;;;;;;;;;;;;;;;;;;;;;;;;;;;;;;;;;;"1250";"2014-10-16 16:34:36.656";"NST_correctLoc";"1";"1";"FINISHED";"RIGHT";"success";"271";"0";"2014-10-16 16:34:35.406";"1";;;;;;;;;;;;;;;;;;;;;
"Carrot";"1996";;"Mac OS X";"Rachel's Experiment (D.T.)";"1.0";"2";"1";"1";"2";"1";"1";"2014-10-16 16:26:04.740";"2014-10-16 16:40:14.851";"1";"1";"0";"143";"142";"module.training_block4.exec-3511.GoNoGo4";;;;;;;;;;;;;;;;;;;;;;;;;;;;;;;;;;;;;;;;;;;;;;;;;;;;;;;;;;;"1251";"2014-10-16 16:34:39.174";"NST_correctLoc";"33";"1";"FINISHED";"RIGHT";"success";"390";"0";"2014-10-16 16:34:37.923";"3";;;;;;;;;;;;;;;;;;;;;
"Carrot";"1996";;"Mac OS X";"Rachel's Experiment (D.T.)";"1.0";"2";"1";"1";"2";"1";"1";"2014-10-16 16:26:04.740";"2014-10-16 16:40:14.851";"1";"1";"0";"144";"143";"module.training_block4.exec-3511.GoNoGo4";;;;;;;;;;;;;;;;;;;;;;;;;;;;;;;;;;;;;;;;;;;;;;;;;;;;;;;;;;;"1251";"2014-10-16 16:34:41.692";"NST_correctLoc";"29";"1";"FINISHED";"RIGHT";"success";"402";"0";"2014-10-16 16:34:40.440";"3";;;;;;;;;;;;;;;;;;;;;
"Carrot";"1996";;"Mac OS X";"Rachel's Experiment (D.T.)";"1.0";"2";"1";"1";"2";"1";"1";"2014-10-16 16:26:04.740";"2014-10-16 16:40:14.851";"1";"1";"0";"145";"144";"module.training_block4.exec-3511.GoNoGo4";;;;;;;;;;;;;;;;;;;;;;;;;;;;;;;;;;;;;;;;;;;;;;;;;;;;;;;;;;;"1251";"2014-10-16 16:34:44.208";"NST_correctLoc";"21";"0";"FINISHED";"LEFT";"success";"447";"0";"2014-10-16 16:34:42.957";"3";;;;;;;;;;;;;;;;;;;;;
"Carrot";"1996";;"Mac OS X";"Rachel's Experiment (D.T.)";"1.0";"2";"1";"1";"2";"1";"1";"2014-10-16 16:26:04.740";"2014-10-16 16:40:14.851";"1";"1";"0";"146";"145";"module.training_block4.exec-3511.GoNoGo4";;;;;;;;;;;;;;;;;;;;;;;;;;;;;;;;;;;;;;;;;;;;;;;;;;;;;;;;;;;"1251";"2014-10-16 16:34:46.725";"NST_correctLoc";"0";"1";"FINISHED";"RIGHT";"success";"257";"0";"2014-10-16 16:34:45.473";"1";;;;;;;;;;;;;;;;;;;;;
"Carrot";"1996";;"Mac OS X";"Rachel's Experiment (D.T.)";"1.0";"2";"1";"1";"2";"1";"1";"2014-10-16 16:26:04.740";"2014-10-16 16:40:14.851";"1";"1";"0";"147";"146";"module.training_block4.exec-3511.GoNoGo4";;;;;;;;;;;;;;;;;;;;;;;;;;;;;;;;;;;;;;;;;;;;;;;;;;;;;;;;;;;"1251";"2014-10-16 16:34:49.241";"NST_correctLoc";"32";"1";"FINISHED";"RIGHT";"success";"391";"0";"2014-10-16 16:34:47.989";"3";;;;;;;;;;;;;;;;;;;;;
"Carrot";"1996";;"Mac OS X";"Rachel's Experiment (D.T.)";"1.0";"2";"1";"1";"2";"1";"1";"2014-10-16 16:26:04.740";"2014-10-16 16:40:14.851";"1";"1";"0";"148";"147";"module.training_block4.exec-3511.GoNoGo4";;;;;;;;;;;;;;;;;;;;;;;;;;;;;;;;;;;;;;;;;;;;;;;;;;;;;;;;;;;"1251";"2014-10-16 16:34:51.760";"NST_wrongLoc";"30";"0";"FINISHED";"RIGHT";"failure";"873";"0";"2014-10-16 16:34:50.508";"3";;;;;;;;;;;;;;;;;;;;;
"Carrot";"1996";;"Mac OS X";"Rachel's Experiment (D.T.)";"1.0";"2";"1";"1";"2";"1";"1";"2014-10-16 16:26:04.740";"2014-10-16 16:40:14.851";"1";"1";"0";"149";"148";"module.training_block4.exec-3511.GoNoGo4";;;;;;;;;;;;;;;;;;;;;;;;;;;;;;;;;;;;;;;;;;;;;;;;;;;;;;;;;;;"1251";"2014-10-16 16:34:54.275";"NST_correctLoc";"17";"1";"FINISHED";"RIGHT";"success";"314";"0";"2014-10-16 16:34:53.024";"2";;;;;;;;;;;;;;;;;;;;;
"Carrot";"1996";;"Mac OS X";"Rachel's Experiment (D.T.)";"1.0";"2";"1";"1";"2";"1";"1";"2014-10-16 16:26:04.740";"2014-10-16 16:40:14.851";"1";"1";"0";"150";"149";"module.training_block4.exec-3511.GoNoGo4";;;;;;;;;;;;;;;;;;;;;;;;;;;;;;;;;;;;;;;;;;;;;;;;;;;;;;;;;;;"1251";"2014-10-16 16:34:56.791";"NST_correctLoc";"11";"1";"FINISHED";"RIGHT";"success";"494";"0";"2014-10-16 16:34:55.540";"2";;;;;;;;;;;;;;;;;;;;;
"Carrot";"1996";;"Mac OS X";"Rachel's Experiment (D.T.)";"1.0";"2";"1";"1";"2";"1";"1";"2014-10-16 16:26:04.740";"2014-10-16 16:40:14.851";"1";"1";"0";"151";"150";"module.training_block4.exec-3511.GoNoGo4";;;;;;;;;;;;;;;;;;;;;;;;;;;;;;;;;;;;;;;;;;;;;;;;;;;;;;;;;;;"1251";"2014-10-16 16:34:59.309";"NST_correctLoc";"19";"1";"FINISHED";"RIGHT";"success";"319";"0";"2014-10-16 16:34:58.058";"3";;;;;;;;;;;;;;;;;;;;;
"Carrot";"1996";;"Mac OS X";"Rachel's Experiment (D.T.)";"1.0";"2";"1";"1";"2";"1";"1";"2014-10-16 16:26:04.740";"2014-10-16 16:40:14.851";"1";"1";"0";"152";"151";"module.training_block4.exec-3511.GoNoGo4";;;;;;;;;;;;;;;;;;;;;;;;;;;;;;;;;;;;;;;;;;;;;;;;;;;;;;;;;;;"1250";"2014-10-16 16:35:01.824";"NST_correctLoc";"24";"1";"FINISHED";"RIGHT";"success";"288";"0";"2014-10-16 16:35:00.574";"3";;;;;;;;;;;;;;;;;;;;;
"Carrot";"1996";;"Mac OS X";"Rachel's Experiment (D.T.)";"1.0";"2";"1";"1";"2";"1";"1";"2014-10-16 16:26:04.740";"2014-10-16 16:40:14.851";"1";"1";"0";"153";"152";"module.training_block4.exec-3511.GoNoGo4";;;;;;;;;;;;;;;;;;;;;;;;;;;;;;;;;;;;;;;;;;;;;;;;;;;;;;;;;;;"1251";"2014-10-16 16:35:04.342";"NST_correctLoc";"31";"0";"FINISHED";"LEFT";"success";"308";"0";"2014-10-16 16:35:03.091";"3";;;;;;;;;;;;;;;;;;;;;
"Carrot";"1996";;"Mac OS X";"Rachel's Experiment (D.T.)";"1.0";"2";"1";"1";"2";"1";"1";"2014-10-16 16:26:04.740";"2014-10-16 16:40:14.851";"1";"1";"0";"154";"153";"module.training_block4.exec-3511.GoNoGo4";;;;;;;;;;;;;;;;;;;;;;;;;;;;;;;;;;;;;;;;;;;;;;;;;;;;;;;;;;;"1251";"2014-10-16 16:35:06.858";"NST_correctLoc";"6";"1";"FINISHED";"RIGHT";"success";"290";"0";"2014-10-16 16:35:05.606";"1";;;;;;;;;;;;;;;;;;;;;
"Carrot";"1996";;"Mac OS X";"Rachel's Experiment (D.T.)";"1.0";"2";"1";"1";"2";"1";"1";"2014-10-16 16:26:04.740";"2014-10-16 16:40:14.851";"1";"1";"0";"155";"154";"module.training_block4.exec-3511.GoNoGo4";;;;;;;;;;;;;;;;;;;;;;;;;;;;;;;;;;;;;;;;;;;;;;;;;;;;;;;;;;;"1250";"2014-10-16 16:35:09.374";"NST_correctLoc";"10";"1";"FINISHED";"RIGHT";"success";"310";"0";"2014-10-16 16:35:08.124";"2";;;;;;;;;;;;;;;;;;;;;
"Carrot";"1996";;"Mac OS X";"Rachel's Experiment (D.T.)";"1.0";"2";"1";"1";"2";"1";"1";"2014-10-16 16:26:04.740";"2014-10-16 16:40:14.851";"1";"1";"0";"156";"155";"module.training_block4.exec-3511.GoNoGo4";;;;;;;;;;;;;;;;;;;;;;;;;;;;;;;;;;;;;;;;;;;;;;;;;;;;;;;;;;;"1251";"2014-10-16 16:35:11.891";"NST_correctLoc";"14";"1";"FINISHED";"RIGHT";"success";"291";"0";"2014-10-16 16:35:10.640";"2";;;;;;;;;;;;;;;;;;;;;
"Carrot";"1996";;"Mac OS X";"Rachel's Experiment (D.T.)";"1.0";"2";"1";"1";"2";"1";"1";"2014-10-16 16:26:04.740";"2014-10-16 16:40:14.851";"1";"1";"0";"157";"156";"module.training_block4.exec-3511.GoNoGo4";;;;;;;;;;;;;;;;;;;;;;;;;;;;;;;;;;;;;;;;;;;;;;;;;;;;;;;;;;;"1251";"2014-10-16 16:35:14.407";"NST_correctLoc";"12";"0";"FINISHED";"LEFT";"success";"290";"0";"2014-10-16 16:35:13.156";"2";;;;;;;;;;;;;;;;;;;;;
"Carrot";"1996";;"Mac OS X";"Rachel's Experiment (D.T.)";"1.0";"2";"1";"1";"2";"1";"1";"2014-10-16 16:26:04.740";"2014-10-16 16:40:14.851";"1";"1";"0";"158";"157";"module.training_block4.exec-3511.GoNoGo4";;;;;;;;;;;;;;;;;;;;;;;;;;;;;;;;;;;;;;;;;;;;;;;;;;;;;;;;;;;"1251";"2014-10-16 16:35:16.925";"NST_correctLoc";"8";"0";"FINISHED";"LEFT";"success";"295";"0";"2014-10-16 16:35:15.674";"1";;;;;;;;;;;;;;;;;;;;;
"Carrot";"1996";;"Mac OS X";"Rachel's Experiment (D.T.)";"1.0";"2";"1";"1";"2";"1";"1";"2014-10-16 16:26:04.740";"2014-10-16 16:40:14.851";"1";"1";"0";"159";"158";"module.training_block4.exec-3511.GoNoGo4";;;;;;;;;;;;;;;;;;;;;;;;;;;;;;;;;;;;;;;;;;;;;;;;;;;;;;;;;;;"1250";"2014-10-16 16:35:19.441";"NST_correctLoc";"28";"1";"FINISHED";"RIGHT";"success";"301";"0";"2014-10-16 16:35:18.190";"3";;;;;;;;;;;;;;;;;;;;;
"Carrot";"1996";;"Mac OS X";"Rachel's Experiment (D.T.)";"1.0";"2";"1";"1";"2";"1";"1";"2014-10-16 16:26:04.740";"2014-10-16 16:40:14.851";"1";"1";"0";"160";"159";"module.devaluation_practice.exec-5646.devalPractice";;;;;;;;;;;;"18508";"2014-10-16 16:36:22.456";"0";"3";"7";"7";"5000";"2481";"7994";"2014-10-16 16:36:03.947";;;;;;;;;;;;;;;;;;;;;;;;;;;;;;;;;;;;;;;;;;;;;;;;;;;;;;;;;;;;;;;;;;;;;;
"Carrot";"1996";;"Mac OS X";"Rachel's Experiment (D.T.)";"1.0";"2";"1";"1";"2";"1";"1";"2014-10-16 16:26:04.740";"2014-10-16 16:40:14.851";"1";"1";"0";"161";"160";"module.devaluation_practice.exec-5646.devalPractice";;;;;;;;;;;;"9211";"2014-10-16 16:36:31.685";"1";"5";"1";"2";"1196";"1984";"3020";"2014-10-16 16:36:22.473";;;;;;;;;;;;;;;;;;;;;;;;;;;;;;;;;;;;;;;;;;;;;;;;;;;;;;;;;;;;;;;;;;;;;;
"Carrot";"1996";;"Mac OS X";"Rachel's Experiment (D.T.)";"1.0";"2";"1";"1";"2";"1";"1";"2014-10-16 16:26:04.740";"2014-10-16 16:40:14.851";"1";"1";"0";"162";"161";"module.devaluation_practice.exec-5646.devalPractice";;;;;;;;;;;;"7192";"2014-10-16 16:36:38.890";"2";"6";"7";"6";"1415";"1051";"1716";"2014-10-16 16:36:31.697";;;;;;;;;;;;;;;;;;;;;;;;;;;;;;;;;;;;;;;;;;;;;;;;;;;;;;;;;;;;;;;;;;;;;;
"Carrot";"1996";;"Mac OS X";"Rachel's Experiment (D.T.)";"1.0";"2";"1";"1";"2";"1";"1";"2014-10-16 16:26:04.740";"2014-10-16 16:40:14.851";"1";"1";"0";"163";"162";"module.devaluation_practice.exec-5646.devalPractice";;;;;;;;;;;;"8480";"2014-10-16 16:36:47.385";"3";"9";"9";"8";"2167";"1337";"1965";"2014-10-16 16:36:38.904";;;;;;;;;;;;;;;;;;;;;;;;;;;;;;;;;;;;;;;;;;;;;;;;;;;;;;;;;;;;;;;;;;;;;;
"Carrot";"1996";;"Mac OS X";"Rachel's Experiment (D.T.)";"1.0";"2";"1";"1";"2";"1";"1";"2014-10-16 16:26:04.740";"2014-10-16 16:40:14.851";"1";"1";"0";"164";"163";"module.devaluation_block1.exec-4540.deval1";"7296";"2014-10-16 16:37:05.837";"5";"8";"4";"7";"1856";"1180";"1247";"2014-10-16 16:36:58.540";"1";;;;;;;;;;;;;;;;;;;;;;;;;;;;;;;;;;;;;;;;;;;;;;;;;;;;;;;;;;;;;;;;;;;;;;;;;;;;;;;;
"Carrot";"1996";;"Mac OS X";"Rachel's Experiment (D.T.)";"1.0";"2";"1";"1";"2";"1";"1";"2014-10-16 16:26:04.740";"2014-10-16 16:40:14.851";"1";"1";"0";"165";"164";"module.devaluation_block1.exec-4540.deval1";"7629";"2014-10-16 16:37:13.478";"12";"9";"6";"7";"1784";"798";"2036";"2014-10-16 16:37:05.848";"2";;;;;;;;;;;;;;;;;;;;;;;;;;;;;;;;;;;;;;;;;;;;;;;;;;;;;;;;;;;;;;;;;;;;;;;;;;;;;;;;
"Carrot";"1996";;"Mac OS X";"Rachel's Experiment (D.T.)";"1.0";"2";"1";"1";"2";"1";"1";"2014-10-16 16:26:04.740";"2014-10-16 16:40:14.851";"1";"1";"0";"166";"165";"module.devaluation_block1.exec-4540.deval1";"13821";"2014-10-16 16:37:27.312";"10";"9";"6";"7";"1673";"7360";"1775";"2014-10-16 16:37:13.490";"2";;;;;;;;;;;;;;;;;;;;;;;;;;;;;;;;;;;;;;;;;;;;;;;;;;;;;;;;;;;;;;;;;;;;;;;;;;;;;;;;
"Carrot";"1996";;"Mac OS X";"Rachel's Experiment (D.T.)";"1.0";"2";"1";"1";"2";"1";"1";"2014-10-16 16:26:04.740";"2014-10-16 16:40:14.851";"1";"1";"0";"167";"166";"module.devaluation_block1.exec-4540.deval1";"7134";"2014-10-16 16:37:34.461";"11";"4";"2";"3";"2188";"952";"983";"2014-10-16 16:37:27.326";"2";;;;;;;;;;;;;;;;;;;;;;;;;;;;;;;;;;;;;;;;;;;;;;;;;;;;;;;;;;;;;;;;;;;;;;;;;;;;;;;;
"Carrot";"1996";;"Mac OS X";"Rachel's Experiment (D.T.)";"1.0";"2";"1";"1";"2";"1";"1";"2014-10-16 16:26:04.740";"2014-10-16 16:40:14.851";"1";"1";"0";"168";"167";"module.devaluation_block1.exec-4540.deval1";"8343";"2014-10-16 16:37:42.815";"16";"6";"6";"7";"1648";"1248";"2435";"2014-10-16 16:37:34.471";"2";;;;;;;;;;;;;;;;;;;;;;;;;;;;;;;;;;;;;;;;;;;;;;;;;;;;;;;;;;;;;;;;;;;;;;;;;;;;;;;;
"Carrot";"1996";;"Mac OS X";"Rachel's Experiment (D.T.)";"1.0";"2";"1";"1";"2";"1";"1";"2014-10-16 16:26:04.740";"2014-10-16 16:40:14.851";"1";"1";"0";"169";"168";"module.devaluation_block1.exec-4540.deval1";"5810";"2014-10-16 16:37:48.638";"20";"9";"9";"9";"976";"832";"991";"2014-10-16 16:37:42.827";"3";;;;;;;;;;;;;;;;;;;;;;;;;;;;;;;;;;;;;;;;;;;;;;;;;;;;;;;;;;;;;;;;;;;;;;;;;;;;;;;;
"Carrot";"1996";;"Mac OS X";"Rachel's Experiment (D.T.)";"1.0";"2";"1";"1";"2";"1";"1";"2014-10-16 16:26:04.740";"2014-10-16 16:40:14.851";"1";"1";"0";"170";"169";"module.devaluation_block1.exec-4540.deval1";"7822";"2014-10-16 16:37:56.471";"13";"9";"8";"7";"1176";"2447";"1188";"2014-10-16 16:37:48.648";"2";;;;;;;;;;;;;;;;;;;;;;;;;;;;;;;;;;;;;;;;;;;;;;;;;;;;;;;;;;;;;;;;;;;;;;;;;;;;;;;;
"Carrot";"1996";;"Mac OS X";"Rachel's Experiment (D.T.)";"1.0";"2";"1";"1";"2";"1";"1";"2014-10-16 16:26:04.740";"2014-10-16 16:40:14.851";"1";"1";"0";"171";"170";"module.devaluation_block1.exec-4540.deval1";"8699";"2014-10-16 16:38:05.182";"6";"5";"9";"8";"344";"2574";"2769";"2014-10-16 16:37:56.482";"1";;;;;;;;;;;;;;;;;;;;;;;;;;;;;;;;;;;;;;;;;;;;;;;;;;;;;;;;;;;;;;;;;;;;;;;;;;;;;;;;
"Carrot";"1996";;"Mac OS X";"Rachel's Experiment (D.T.)";"1.0";"2";"1";"1";"2";"1";"1";"2014-10-16 16:26:04.740";"2014-10-16 16:40:14.851";"1";"1";"0";"172";"171";"module.devaluation_block1.exec-4540.deval1";"6975";"2014-10-16 16:38:12.174";"2";"7";"6";"7";"1814";"723";"1427";"2014-10-16 16:38:05.197";"1";;;;;;;;;;;;;;;;;;;;;;;;;;;;;;;;;;;;;;;;;;;;;;;;;;;;;;;;;;;;;;;;;;;;;;;;;;;;;;;;
"Carrot";"1996";;"Mac OS X";"Rachel's Experiment (D.T.)";"1.0";"2";"1";"1";"2";"1";"1";"2014-10-16 16:26:04.740";"2014-10-16 16:40:14.851";"1";"1";"0";"173";"172";"module.devaluation_block1.exec-4540.deval1";"7438";"2014-10-16 16:38:19.625";"1";"8";"8";"7";"1388";"1124";"1913";"2014-10-16 16:38:12.187";"1";;;;;;;;;;;;;;;;;;;;;;;;;;;;;;;;;;;;;;;;;;;;;;;;;;;;;;;;;;;;;;;;;;;;;;;;;;;;;;;;
"Carrot";"1996";;"Mac OS X";"Rachel's Experiment (D.T.)";"1.0";"2";"1";"1";"2";"1";"1";"2014-10-16 16:26:04.740";"2014-10-16 16:40:14.851";"1";"1";"0";"174";"173";"module.devaluation_block1.exec-4540.deval1";"6280";"2014-10-16 16:38:25.917";"21";"8";"8";"9";"1229";"998";"1041";"2014-10-16 16:38:19.637";"3";;;;;;;;;;;;;;;;;;;;;;;;;;;;;;;;;;;;;;;;;;;;;;;;;;;;;;;;;;;;;;;;;;;;;;;;;;;;;;;;
"Carrot";"1996";;"Mac OS X";"Rachel's Experiment (D.T.)";"1.0";"2";"1";"1";"2";"1";"1";"2014-10-16 16:26:04.740";"2014-10-16 16:40:14.851";"1";"1";"0";"175";"174";"module.devaluation_block1.exec-4540.deval1";"7687";"2014-10-16 16:38:33.617";"7";"5";"6";"6";"3263";"751";"660";"2014-10-16 16:38:25.930";"1";;;;;;;;;;;;;;;;;;;;;;;;;;;;;;;;;;;;;;;;;;;;;;;;;;;;;;;;;;;;;;;;;;;;;;;;;;;;;;;;
"Carrot";"1996";;"Mac OS X";"Rachel's Experiment (D.T.)";"1.0";"2";"1";"1";"2";"1";"1";"2014-10-16 16:26:04.740";"2014-10-16 16:40:14.851";"1";"1";"0";"176";"175";"module.devaluation_block1.exec-4540.deval1";"7462";"2014-10-16 16:38:41.093";"19";"5";"9";"9";"291";"2122";"2038";"2014-10-16 16:38:33.630";"3";;;;;;;;;;;;;;;;;;;;;;;;;;;;;;;;;;;;;;;;;;;;;;;;;;;;;;;;;;;;;;;;;;;;;;;;;;;;;;;;
"Carrot";"1996";;"Mac OS X";"Rachel's Experiment (D.T.)";"1.0";"2";"1";"1";"2";"1";"1";"2014-10-16 16:26:04.740";"2014-10-16 16:40:14.851";"1";"1";"0";"177";"176";"module.devaluation_block1.exec-4540.deval1";"7645";"2014-10-16 16:38:48.750";"14";"8";"6";"7";"2038";"599";"1996";"2014-10-16 16:38:41.105";"2";;;;;;;;;;;;;;;;;;;;;;;;;;;;;;;;;;;;;;;;;;;;;;;;;;;;;;;;;;;;;;;;;;;;;;;;;;;;;;;;
"Carrot";"1996";;"Mac OS X";"Rachel's Experiment (D.T.)";"1.0";"2";"1";"1";"2";"1";"1";"2014-10-16 16:26:04.740";"2014-10-16 16:40:14.851";"1";"1";"0";"178";"177";"module.devaluation_block1.exec-4540.deval1";"7197";"2014-10-16 16:38:55.964";"0";"8";"9";"9";"1676";"1480";"1030";"2014-10-16 16:38:48.766";"1";;;;;;;;;;;;;;;;;;;;;;;;;;;;;;;;;;;;;;;;;;;;;;;;;;;;;;;;;;;;;;;;;;;;;;;;;;;;;;;;
"Carrot";"1996";;"Mac OS X";"Rachel's Experiment (D.T.)";"1.0";"2";"1";"1";"2";"1";"1";"2014-10-16 16:26:04.740";"2014-10-16 16:40:14.851";"1";"1";"0";"179";"178";"module.devaluation_block1.exec-4540.deval1";"7814";"2014-10-16 16:39:03.791";"15";"6";"5";"6";"3196";"800";"809";"2014-10-16 16:38:55.976";"2";;;;;;;;;;;;;;;;;;;;;;;;;;;;;;;;;;;;;;;;;;;;;;;;;;;;;;;;;;;;;;;;;;;;;;;;;;;;;;;;
"Carrot";"1996";;"Mac OS X";"Rachel's Experiment (D.T.)";"1.0";"2";"1";"1";"2";"1";"1";"2014-10-16 16:26:04.740";"2014-10-16 16:40:14.851";"1";"1";"0";"180";"179";"module.devaluation_block1.exec-4540.deval1";"5738";"2014-10-16 16:39:09.539";"26";"9";"8";"7";"1062";"945";"719";"2014-10-16 16:39:03.800";"3";;;;;;;;;;;;;;;;;;;;;;;;;;;;;;;;;;;;;;;;;;;;;;;;;;;;;;;;;;;;;;;;;;;;;;;;;;;;;;;;
"Carrot";"1996";;"Mac OS X";"Rachel's Experiment (D.T.)";"1.0";"2";"1";"1";"2";"1";"1";"2014-10-16 16:26:04.740";"2014-10-16 16:40:14.851";"1";"1";"0";"181";"180";"module.devaluation_block1.exec-4540.deval1";"6491";"2014-10-16 16:39:16.041";"24";"9";"8";"9";"1581";"950";"950";"2014-10-16 16:39:09.549";"3";;;;;;;;;;;;;;;;;;;;;;;;;;;;;;;;;;;;;;;;;;;;;;;;;;;;;;;;;;;;;;;;;;;;;;;;;;;;;;;;
"Carrot";"1996";;"Mac OS X";"Rachel's Experiment (D.T.)";"1.0";"2";"1";"1";"2";"1";"1";"2014-10-16 16:26:04.740";"2014-10-16 16:40:14.851";"1";"1";"0";"182";"181";"module.devaluation_block1.exec-4540.deval1";"4871";"2014-10-16 16:39:20.923";"8";"8";"5";"6";"784";"504";"572";"2014-10-16 16:39:16.051";"1";;;;;;;;;;;;;;;;;;;;;;;;;;;;;;;;;;;;;;;;;;;;;;;;;;;;;;;;;;;;;;;;;;;;;;;;;;;;;;;;
"Carrot";"1996";;"Mac OS X";"Rachel's Experiment (D.T.)";"1.0";"2";"1";"1";"2";"1";"1";"2014-10-16 16:26:04.740";"2014-10-16 16:40:14.851";"1";"1";"0";"183";"182";"module.devaluation_block1.exec-4540.deval1";"6642";"2014-10-16 16:39:27.575";"17";"8";"7";"7";"734";"2115";"781";"2014-10-16 16:39:20.932";"2";;;;;;;;;;;;;;;;;;;;;;;;;;;;;;;;;;;;;;;;;;;;;;;;;;;;;;;;;;;;;;;;;;;;;;;;;;;;;;;;
"Carrot";"1996";;"Mac OS X";"Rachel's Experiment (D.T.)";"1.0";"2";"1";"1";"2";"1";"1";"2014-10-16 16:26:04.740";"2014-10-16 16:40:14.851";"1";"1";"0";"184";"183";"module.devaluation_block1.exec-4540.deval1";"6534";"2014-10-16 16:39:34.124";"23";"5";"7";"9";"258";"996";"2266";"2014-10-16 16:39:27.588";"3";;;;;;;;;;;;;;;;;;;;;;;;;;;;;;;;;;;;;;;;;;;;;;;;;;;;;;;;;;;;;;;;;;;;;;;;;;;;;;;;
"Carrot";"1996";;"Mac OS X";"Rachel's Experiment (D.T.)";"1.0";"2";"1";"1";"2";"1";"1";"2014-10-16 16:26:04.740";"2014-10-16 16:40:14.851";"1";"1";"0";"185";"184";"module.devaluation_block1.exec-4540.deval1";"6741";"2014-10-16 16:39:40.880";"9";"6";"3";"3";"552";"698";"2476";"2014-10-16 16:39:34.139";"2";;;;;;;;;;;;;;;;;;;;;;;;;;;;;;;;;;;;;;;;;;;;;;;;;;;;;;;;;;;;;;;;;;;;;;;;;;;;;;;;
"Carrot";"1996";;"Mac OS X";"Rachel's Experiment (D.T.)";"1.0";"2";"1";"1";"2";"1";"1";"2014-10-16 16:26:04.740";"2014-10-16 16:40:14.851";"1";"1";"0";"186";"185";"module.devaluation_block1.exec-4540.deval1";"5479";"2014-10-16 16:39:46.372";"3";"8";"6";"7";"1027";"674";"767";"2014-10-16 16:39:40.893";"1";;;;;;;;;;;;;;;;;;;;;;;;;;;;;;;;;;;;;;;;;;;;;;;;;;;;;;;;;;;;;;;;;;;;;;;;;;;;;;;;
"Carrot";"1996";;"Mac OS X";"Rachel's Experiment (D.T.)";"1.0";"2";"1";"1";"2";"1";"1";"2014-10-16 16:26:04.740";"2014-10-16 16:40:14.851";"1";"1";"0";"187";"186";"module.devaluation_block1.exec-4540.deval1";"5220";"2014-10-16 16:39:51.604";"18";"7";"8";"8";"927";"614";"668";"2014-10-16 16:39:46.384";"3";;;;;;;;;;;;;;;;;;;;;;;;;;;;;;;;;;;;;;;;;;;;;;;;;;;;;;;;;;;;;;;;;;;;;;;;;;;;;;;;
"Carrot";"1996";;"Mac OS X";"Rachel's Experiment (D.T.)";"1.0";"2";"1";"1";"2";"1";"1";"2014-10-16 16:26:04.740";"2014-10-16 16:40:14.851";"1";"1";"0";"188";"187";"module.devaluation_block1.exec-4540.deval1";"11026";"2014-10-16 16:40:02.642";"4";"9";"9";"9";"6210";"887";"916";"2014-10-16 16:39:51.615";"1";;;;;;;;;;;;;;;;;;;;;;;;;;;;;;;;;;;;;;;;;;;;;;;;;;;;;;;;;;;;;;;;;;;;;;;;;;;;;;;;
"Carrot";"1996";;"Mac OS X";"Rachel's Experiment (D.T.)";"1.0";"2";"1";"1";"2";"1";"1";"2014-10-16 16:26:04.740";"2014-10-16 16:40:14.851";"1";"1";"0";"189";"188";"module.devaluation_block1.exec-4540.deval1";"6006";"2014-10-16 16:40:08.659";"25";"9";"8";"9";"1016";"1018";"962";"2014-10-16 16:40:02.652";"3";;;;;;;;;;;;;;;;;;;;;;;;;;;;;;;;;;;;;;;;;;;;;;;;;;;;;;;;;;;;;;;;;;;;;;;;;;;;;;;;
"Carrot";"1996";;"Mac OS X";"Rachel's Experiment (D.T.)";"1.0";"2";"1";"1";"2";"1";"1";"2014-10-16 16:26:04.740";"2014-10-16 16:40:14.851";"1";"1";"0";"190";"189";"module.devaluation_block1.exec-4540.deval1";"4884";"2014-10-16 16:40:13.553";"22";"6";"7";"7";"928";"425";"519";"2014-10-16 16:40:08.668";"3";;;;;;;;;;;;;;;;;;;;;;;;;;;;;;;;;;;;;;;;;;;;;;;;;;;;;;;;;;;;;;;;;;;;;;;;;;;;;;;;
