"user.name";"user.yearOfBirth";"user.sex";"user.osName";"module.name";"module.version";"module.online.subject.code";"module.online.study.id";"module.online.module.nr";"module.online.group.nr";"session.id";"session.index";"session.startTime";"session.endTime";"session.completed";"session.node-4725.DevalQorder";"session.node-8027.conditionType";"trial.id";"trial.index";"trial.name";"trial.deval1.durationTime";"trial.deval1.endTime";"trial.deval1.icon";"trial.deval1.Resp_Attractive";"trial.deval1.Resp_Eat";"trial.deval1.Resp_Taste";"trial.deval1.RT_Attractive";"trial.deval1.RT_Eat";"trial.deval1.RT_Taste";"trial.deval1.startTime";"trial.deval1.stimulus type";"trial.devalPractice.durationTime";"trial.devalPractice.endTime";"trial.devalPractice.icon";"trial.devalPractice.Resp_Attractive";"trial.devalPractice.Resp_Eat";"trial.devalPractice.Resp_Taste";"trial.devalPractice.RT_Attractive";"trial.devalPractice.RT_Eat";"trial.devalPractice.RT_Taste";"trial.devalPractice.startTime";"trial.devalPractice.stimulus type";"trial.GoNoGo1.durationTime";"trial.GoNoGo1.endTime";"trial.GoNoGo1.Error Type";"trial.GoNoGo1.icon";"trial.GoNoGo1.location";"trial.GoNoGo1.outcome";"trial.GoNoGo1.response";"trial.GoNoGo1.result";"trial.GoNoGo1.RT";"trial.GoNoGo1.signal";"trial.GoNoGo1.startTime";"trial.GoNoGo1.stimulus type";"trial.GoNoGo2.durationTime";"trial.GoNoGo2.endTime";"trial.GoNoGo2.Error Type";"trial.GoNoGo2.icon";"trial.GoNoGo2.location";"trial.GoNoGo2.outcome";"trial.GoNoGo2.response";"trial.GoNoGo2.result";"trial.GoNoGo2.RT";"trial.GoNoGo2.signal";"trial.GoNoGo2.startTime";"trial.GoNoGo2.stimulus type";"trial.GoNoGo3.durationTime";"trial.GoNoGo3.endTime";"trial.GoNoGo3.Error Type";"trial.GoNoGo3.icon";"trial.GoNoGo3.location";"trial.GoNoGo3.outcome";"trial.GoNoGo3.response";"trial.GoNoGo3.result";"trial.GoNoGo3.RT";"trial.GoNoGo3.signal";"trial.GoNoGo3.startTime";"trial.GoNoGo3.stimulus type";"trial.GoNoGo4.durationTime";"trial.GoNoGo4.endTime";"trial.GoNoGo4.Error Type";"trial.GoNoGo4.icon";"trial.GoNoGo4.location";"trial.GoNoGo4.outcome";"trial.GoNoGo4.response";"trial.GoNoGo4.result";"trial.GoNoGo4.RT";"trial.GoNoGo4.signal";"trial.GoNoGo4.startTime";"trial.GoNoGo4.stimulus type";"trial.GoNoGo_Practice.durationTime";"trial.GoNoGo_Practice.endTime";"trial.GoNoGo_Practice.icon";"trial.GoNoGo_Practice.location";"trial.GoNoGo_Practice.outcome";"trial.GoNoGo_Practice.response";"trial.GoNoGo_Practice.result";"trial.GoNoGo_Practice.RT";"trial.GoNoGo_Practice.signal";"trial.GoNoGo_Practice.startTime";"trial.GoNoGo_Practice.stimulus type";"trial.GoNoGo_Tutorial.durationTime";"trial.GoNoGo_Tutorial.endTime";"trial.GoNoGo_Tutorial.icon";"trial.GoNoGo_Tutorial.location";"trial.GoNoGo_Tutorial.outcome";"trial.GoNoGo_Tutorial.response";"trial.GoNoGo_Tutorial.result";"trial.GoNoGo_Tutorial.RT";"trial.GoNoGo_Tutorial.signal";"trial.GoNoGo_Tutorial.startTime"
"squirrel2";;;"Windows 7";"Rachel's Experiment (D.T.)";"1.0";"2";"1";"1";"2";"1";"1";"2014-10-13 19:52:08.120";"2014-10-13 20:05:38.375";"1";"1";"1";"1";"0";"module.GoNoGotutorial.exec-7824.GoNoGo_Tutorial";;;;;;;;;;;;;;;;;;;;;;;;;;;;;;;;;;;;;;;;;;;;;;;;;;;;;;;;;;;;;;;;;;;;;;;;;;;;;;;;;;"3997";"2014-10-13 19:52:19.497";"leftResponse";"0";"FINISHED";"LEFT";"success";"2491";"0";"2014-10-13 19:52:15.494"
"squirrel2";;;"Windows 7";"Rachel's Experiment (D.T.)";"1.0";"2";"1";"1";"2";"1";"1";"2014-10-13 19:52:08.120";"2014-10-13 20:05:38.375";"1";"1";"1";"2";"1";"module.GoNoGotutorial.exec-7824.GoNoGo_Tutorial";;;;;;;;;;;;;;;;;;;;;;;;;;;;;;;;;;;;;;;;;;;;;;;;;;;;;;;;;;;;;;;;;;;;;;;;;;;;;;;;;;"3992";"2014-10-13 19:52:24.787";"rightResponse";"1";"FINISHED";"RIGHT";"success";"394";"0";"2014-10-13 19:52:20.787"
"squirrel2";;;"Windows 7";"Rachel's Experiment (D.T.)";"1.0";"2";"1";"1";"2";"1";"1";"2014-10-13 19:52:08.120";"2014-10-13 20:05:38.375";"1";"1";"1";"3";"2";"module.GoNoGotutorial.exec-7824.GoNoGo_Tutorial";;;;;;;;;;;;;;;;;;;;;;;;;;;;;;;;;;;;;;;;;;;;;;;;;;;;;;;;;;;;;;;;;;;;;;;;;;;;;;;;;;"3995";"2014-10-13 19:52:30.099";"signalResponse";"0";"FINISHED";"LEFT";"failure";"363";"1";"2014-10-13 19:52:26.097"
"squirrel2";;;"Windows 7";"Rachel's Experiment (D.T.)";"1.0";"2";"1";"1";"2";"1";"1";"2014-10-13 19:52:08.120";"2014-10-13 20:05:38.375";"1";"1";"1";"4";"3";"module.GoNoGopractice.exec-4876.GoNoGo_Practice";;;;;;;;;;;;;;;;;;;;;;;;;;;;;;;;;;;;;;;;;;;;;;;;;;;;;;;;;;;;;;;;;;;;;;;"1950";"2014-10-13 19:52:36.362";"18";"0";"FINISHED";"LEFT";"success";"526";"0";"2014-10-13 19:52:34.412";"3";;;;;;;;;;
"squirrel2";;;"Windows 7";"Rachel's Experiment (D.T.)";"1.0";"2";"1";"1";"2";"1";"1";"2014-10-13 19:52:08.120";"2014-10-13 20:05:38.375";"1";"1";"1";"5";"4";"module.GoNoGopractice.exec-4876.GoNoGo_Practice";;;;;;;;;;;;;;;;;;;;;;;;;;;;;;;;;;;;;;;;;;;;;;;;;;;;;;;;;;;;;;;;;;;;;;;"1941";"2014-10-13 19:52:39.608";"21";"1";"FINISHED";"RIGHT";"success";"396";"0";"2014-10-13 19:52:37.658";"3";;;;;;;;;;
"squirrel2";;;"Windows 7";"Rachel's Experiment (D.T.)";"1.0";"2";"1";"1";"2";"1";"1";"2014-10-13 19:52:08.120";"2014-10-13 20:05:38.375";"1";"1";"1";"6";"5";"module.GoNoGopractice.exec-4876.GoNoGo_Practice";;;;;;;;;;;;;;;;;;;;;;;;;;;;;;;;;;;;;;;;;;;;;;;;;;;;;;;;;;;;;;;;;;;;;;;"1957";"2014-10-13 19:52:42.875";"14";"1";"FINISHED";"RIGHT";"failure";"345";"1";"2014-10-13 19:52:40.908";"2";;;;;;;;;;
"squirrel2";;;"Windows 7";"Rachel's Experiment (D.T.)";"1.0";"2";"1";"1";"2";"1";"1";"2014-10-13 19:52:08.120";"2014-10-13 20:05:38.375";"1";"1";"1";"7";"6";"module.GoNoGopractice.exec-4876.GoNoGo_Practice";;;;;;;;;;;;;;;;;;;;;;;;;;;;;;;;;;;;;;;;;;;;;;;;;;;;;;;;;;;;;;;;;;;;;;;"1944";"2014-10-13 19:52:46.177";"26";"0";"FINISHED";"LEFT";"success";"374";"0";"2014-10-13 19:52:44.227";"3";;;;;;;;;;
"squirrel2";;;"Windows 7";"Rachel's Experiment (D.T.)";"1.0";"2";"1";"1";"2";"1";"1";"2014-10-13 19:52:08.120";"2014-10-13 20:05:38.375";"1";"1";"1";"8";"7";"module.GoNoGopractice.exec-4876.GoNoGo_Practice";;;;;;;;;;;;;;;;;;;;;;;;;;;;;;;;;;;;;;;;;;;;;;;;;;;;;;;;;;;;;;;;;;;;;;;"1949";"2014-10-13 19:52:49.430";"2";"0";"FINISHED";"LEFT";"success";"425";"0";"2014-10-13 19:52:47.472";"1";;;;;;;;;;
"squirrel2";;;"Windows 7";"Rachel's Experiment (D.T.)";"1.0";"2";"1";"1";"2";"1";"1";"2014-10-13 19:52:08.120";"2014-10-13 20:05:38.375";"1";"1";"1";"9";"8";"module.GoNoGopractice.exec-4876.GoNoGo_Practice";;;;;;;;;;;;;;;;;;;;;;;;;;;;;;;;;;;;;;;;;;;;;;;;;;;;;;;;;;;;;;;;;;;;;;;"1957";"2014-10-13 19:52:52.682";"30";"0";"FINISHED";"NONE";"success";"0";"1";"2014-10-13 19:52:50.720";"3";;;;;;;;;;
"squirrel2";;;"Windows 7";"Rachel's Experiment (D.T.)";"1.0";"2";"1";"1";"2";"1";"1";"2014-10-13 19:52:08.120";"2014-10-13 20:05:38.375";"1";"1";"1";"10";"9";"module.GoNoGopractice.exec-4876.GoNoGo_Practice";;;;;;;;;;;;;;;;;;;;;;;;;;;;;;;;;;;;;;;;;;;;;;;;;;;;;;;;;;;;;;;;;;;;;;;"1950";"2014-10-13 19:52:55.931";"6";"1";"FINISHED";"NONE";"success";"0";"1";"2014-10-13 19:52:53.971";"1";;;;;;;;;;
"squirrel2";;;"Windows 7";"Rachel's Experiment (D.T.)";"1.0";"2";"1";"1";"2";"1";"1";"2014-10-13 19:52:08.120";"2014-10-13 20:05:38.375";"1";"1";"1";"11";"10";"module.GoNoGopractice.exec-4876.GoNoGo_Practice";;;;;;;;;;;;;;;;;;;;;;;;;;;;;;;;;;;;;;;;;;;;;;;;;;;;;;;;;;;;;;;;;;;;;;;"1955";"2014-10-13 19:52:59.463";"34";"0";"FINISHED";"LEFT";"success";"718";"0";"2014-10-13 19:52:57.501";"3";;;;;;;;;;
"squirrel2";;;"Windows 7";"Rachel's Experiment (D.T.)";"1.0";"2";"1";"1";"2";"1";"1";"2014-10-13 19:52:08.120";"2014-10-13 20:05:38.375";"1";"1";"1";"12";"11";"module.GoNoGopractice.exec-4876.GoNoGo_Practice";;;;;;;;;;;;;;;;;;;;;;;;;;;;;;;;;;;;;;;;;;;;;;;;;;;;;;;;;;;;;;;;;;;;;;;"1941";"2014-10-13 19:53:02.711";"23";"1";"FINISHED";"NONE";"failure";"0";"0";"2014-10-13 19:53:00.761";"3";;;;;;;;;;
"squirrel2";;;"Windows 7";"Rachel's Experiment (D.T.)";"1.0";"2";"1";"1";"2";"1";"1";"2014-10-13 19:52:08.120";"2014-10-13 20:05:38.375";"1";"1";"1";"13";"12";"module.GoNoGopractice.exec-4876.GoNoGo_Practice";;;;;;;;;;;;;;;;;;;;;;;;;;;;;;;;;;;;;;;;;;;;;;;;;;;;;;;;;;;;;;;;;;;;;;;"1940";"2014-10-13 19:53:05.951";"13";"0";"FINISHED";"NONE";"success";"0";"1";"2014-10-13 19:53:04.001";"2";;;;;;;;;;
"squirrel2";;;"Windows 7";"Rachel's Experiment (D.T.)";"1.0";"2";"1";"1";"2";"1";"1";"2014-10-13 19:52:08.120";"2014-10-13 20:05:38.375";"1";"1";"1";"14";"13";"module.GoNoGopractice.exec-4876.GoNoGo_Practice";;;;;;;;;;;;;;;;;;;;;;;;;;;;;;;;;;;;;;;;;;;;;;;;;;;;;;;;;;;;;;;;;;;;;;;"1942";"2014-10-13 19:53:09.198";"3";"1";"FINISHED";"RIGHT";"success";"732";"0";"2014-10-13 19:53:07.248";"1";;;;;;;;;;
"squirrel2";;;"Windows 7";"Rachel's Experiment (D.T.)";"1.0";"2";"1";"1";"2";"1";"1";"2014-10-13 19:52:08.120";"2014-10-13 20:05:38.375";"1";"1";"1";"15";"14";"module.GoNoGopractice.exec-4876.GoNoGo_Practice";;;;;;;;;;;;;;;;;;;;;;;;;;;;;;;;;;;;;;;;;;;;;;;;;;;;;;;;;;;;;;;;;;;;;;;"1951";"2014-10-13 19:53:12.448";"27";"1";"FINISHED";"NONE";"success";"0";"1";"2014-10-13 19:53:10.488";"3";;;;;;;;;;
"squirrel2";;;"Windows 7";"Rachel's Experiment (D.T.)";"1.0";"2";"1";"1";"2";"1";"1";"2014-10-13 19:52:08.120";"2014-10-13 20:05:38.375";"1";"1";"1";"16";"15";"module.training_block1.exec-1465.GoNoGo1";;;;;;;;;;;;;;;;;;;;;;;"1246";"2014-10-13 19:53:18.168";"NST_correctLoc";"23";"1";"FINISHED";"RIGHT";"success";"671";"0";"2014-10-13 19:53:16.918";"3";;;;;;;;;;;;;;;;;;;;;;;;;;;;;;;;;;;;;;;;;;;;;;;;;;;;;;;;;
"squirrel2";;;"Windows 7";"Rachel's Experiment (D.T.)";"1.0";"2";"1";"1";"2";"1";"1";"2014-10-13 19:52:08.120";"2014-10-13 20:05:38.375";"1";"1";"1";"17";"16";"module.training_block1.exec-1465.GoNoGo1";;;;;;;;;;;;;;;;;;;;;;;"1252";"2014-10-13 19:53:20.730";"ST_correctStop";"21";"0";"FINISHED";"NONE";"success";"0";"1";"2014-10-13 19:53:19.475";"3";;;;;;;;;;;;;;;;;;;;;;;;;;;;;;;;;;;;;;;;;;;;;;;;;;;;;;;;;
"squirrel2";;;"Windows 7";"Rachel's Experiment (D.T.)";"1.0";"2";"1";"1";"2";"1";"1";"2014-10-13 19:52:08.120";"2014-10-13 20:05:38.375";"1";"1";"1";"18";"17";"module.training_block1.exec-1465.GoNoGo1";;;;;;;;;;;;;;;;;;;;;;;"1247";"2014-10-13 19:53:23.275";"NST_correctLoc";"13";"0";"FINISHED";"LEFT";"success";"453";"0";"2014-10-13 19:53:22.025";"2";;;;;;;;;;;;;;;;;;;;;;;;;;;;;;;;;;;;;;;;;;;;;;;;;;;;;;;;;
"squirrel2";;;"Windows 7";"Rachel's Experiment (D.T.)";"1.0";"2";"1";"1";"2";"1";"1";"2014-10-13 19:52:08.120";"2014-10-13 20:05:38.375";"1";"1";"1";"19";"18";"module.training_block1.exec-1465.GoNoGo1";;;;;;;;;;;;;;;;;;;;;;;"1246";"2014-10-13 19:53:25.820";"NST_correctLoc";"14";"0";"FINISHED";"LEFT";"success";"453";"0";"2014-10-13 19:53:24.570";"2";;;;;;;;;;;;;;;;;;;;;;;;;;;;;;;;;;;;;;;;;;;;;;;;;;;;;;;;;
"squirrel2";;;"Windows 7";"Rachel's Experiment (D.T.)";"1.0";"2";"1";"1";"2";"1";"1";"2014-10-13 19:52:08.120";"2014-10-13 20:05:38.375";"1";"1";"1";"20";"19";"module.training_block1.exec-1465.GoNoGo1";;;;;;;;;;;;;;;;;;;;;;;"1247";"2014-10-13 19:53:28.360";"ST_failedStop";"26";"1";"FINISHED";"RIGHT";"failure";"379";"1";"2014-10-13 19:53:27.110";"3";;;;;;;;;;;;;;;;;;;;;;;;;;;;;;;;;;;;;;;;;;;;;;;;;;;;;;;;;
"squirrel2";;;"Windows 7";"Rachel's Experiment (D.T.)";"1.0";"2";"1";"1";"2";"1";"1";"2014-10-13 19:52:08.120";"2014-10-13 20:05:38.375";"1";"1";"1";"21";"20";"module.training_block1.exec-1465.GoNoGo1";;;;;;;;;;;;;;;;;;;;;;;"1241";"2014-10-13 19:53:30.905";"ST_correctStop";"5";"1";"FINISHED";"NONE";"success";"0";"1";"2014-10-13 19:53:29.655";"1";;;;;;;;;;;;;;;;;;;;;;;;;;;;;;;;;;;;;;;;;;;;;;;;;;;;;;;;;
"squirrel2";;;"Windows 7";"Rachel's Experiment (D.T.)";"1.0";"2";"1";"1";"2";"1";"1";"2014-10-13 19:52:08.120";"2014-10-13 20:05:38.375";"1";"1";"1";"22";"21";"module.training_block1.exec-1465.GoNoGo1";;;;;;;;;;;;;;;;;;;;;;;"1242";"2014-10-13 19:53:33.450";"NST_correctLoc";"33";"0";"FINISHED";"LEFT";"success";"572";"0";"2014-10-13 19:53:32.200";"3";;;;;;;;;;;;;;;;;;;;;;;;;;;;;;;;;;;;;;;;;;;;;;;;;;;;;;;;;
"squirrel2";;;"Windows 7";"Rachel's Experiment (D.T.)";"1.0";"2";"1";"1";"2";"1";"1";"2014-10-13 19:52:08.120";"2014-10-13 20:05:38.375";"1";"1";"1";"23";"22";"module.training_block1.exec-1465.GoNoGo1";;;;;;;;;;;;;;;;;;;;;;;"1245";"2014-10-13 19:53:35.995";"ST_correctStop";"8";"0";"FINISHED";"NONE";"success";"0";"1";"2014-10-13 19:53:34.740";"1";;;;;;;;;;;;;;;;;;;;;;;;;;;;;;;;;;;;;;;;;;;;;;;;;;;;;;;;;
"squirrel2";;;"Windows 7";"Rachel's Experiment (D.T.)";"1.0";"2";"1";"1";"2";"1";"1";"2014-10-13 19:52:08.120";"2014-10-13 20:05:38.375";"1";"1";"1";"24";"23";"module.training_block1.exec-1465.GoNoGo1";;;;;;;;;;;;;;;;;;;;;;;"1246";"2014-10-13 19:53:38.530";"NST_correctLoc";"12";"0";"FINISHED";"LEFT";"success";"434";"0";"2014-10-13 19:53:37.275";"2";;;;;;;;;;;;;;;;;;;;;;;;;;;;;;;;;;;;;;;;;;;;;;;;;;;;;;;;;
"squirrel2";;;"Windows 7";"Rachel's Experiment (D.T.)";"1.0";"2";"1";"1";"2";"1";"1";"2014-10-13 19:52:08.120";"2014-10-13 20:05:38.375";"1";"1";"1";"25";"24";"module.training_block1.exec-1465.GoNoGo1";;;;;;;;;;;;;;;;;;;;;;;"1249";"2014-10-13 19:53:41.079";"NST_correctLoc";"22";"0";"FINISHED";"LEFT";"success";"430";"0";"2014-10-13 19:53:39.820";"3";;;;;;;;;;;;;;;;;;;;;;;;;;;;;;;;;;;;;;;;;;;;;;;;;;;;;;;;;
"squirrel2";;;"Windows 7";"Rachel's Experiment (D.T.)";"1.0";"2";"1";"1";"2";"1";"1";"2014-10-13 19:52:08.120";"2014-10-13 20:05:38.375";"1";"1";"1";"26";"25";"module.training_block1.exec-1465.GoNoGo1";;;;;;;;;;;;;;;;;;;;;;;"1251";"2014-10-13 19:53:43.629";"ST_correctStop";"6";"0";"FINISHED";"NONE";"success";"0";"1";"2014-10-13 19:53:42.374";"1";;;;;;;;;;;;;;;;;;;;;;;;;;;;;;;;;;;;;;;;;;;;;;;;;;;;;;;;;
"squirrel2";;;"Windows 7";"Rachel's Experiment (D.T.)";"1.0";"2";"1";"1";"2";"1";"1";"2014-10-13 19:52:08.120";"2014-10-13 20:05:38.375";"1";"1";"1";"27";"26";"module.training_block1.exec-1465.GoNoGo1";;;;;;;;;;;;;;;;;;;;;;;"1240";"2014-10-13 19:53:46.159";"NST_correctLoc";"28";"1";"FINISHED";"RIGHT";"success";"537";"0";"2014-10-13 19:53:44.909";"3";;;;;;;;;;;;;;;;;;;;;;;;;;;;;;;;;;;;;;;;;;;;;;;;;;;;;;;;;
"squirrel2";;;"Windows 7";"Rachel's Experiment (D.T.)";"1.0";"2";"1";"1";"2";"1";"1";"2014-10-13 19:52:08.120";"2014-10-13 20:05:38.375";"1";"1";"1";"28";"27";"module.training_block1.exec-1465.GoNoGo1";;;;;;;;;;;;;;;;;;;;;;;"1248";"2014-10-13 19:53:48.707";"NST_correctLoc";"9";"1";"FINISHED";"RIGHT";"success";"552";"0";"2014-10-13 19:53:47.449";"2";;;;;;;;;;;;;;;;;;;;;;;;;;;;;;;;;;;;;;;;;;;;;;;;;;;;;;;;;
"squirrel2";;;"Windows 7";"Rachel's Experiment (D.T.)";"1.0";"2";"1";"1";"2";"1";"1";"2014-10-13 19:52:08.120";"2014-10-13 20:05:38.375";"1";"1";"1";"29";"28";"module.training_block1.exec-1465.GoNoGo1";;;;;;;;;;;;;;;;;;;;;;;"1242";"2014-10-13 19:53:51.250";"ST_failedStop";"4";"0";"FINISHED";"LEFT";"failure";"411";"1";"2014-10-13 19:53:49.999";"1";;;;;;;;;;;;;;;;;;;;;;;;;;;;;;;;;;;;;;;;;;;;;;;;;;;;;;;;;
"squirrel2";;;"Windows 7";"Rachel's Experiment (D.T.)";"1.0";"2";"1";"1";"2";"1";"1";"2014-10-13 19:52:08.120";"2014-10-13 20:05:38.375";"1";"1";"1";"30";"29";"module.training_block1.exec-1465.GoNoGo1";;;;;;;;;;;;;;;;;;;;;;;"1247";"2014-10-13 19:53:53.800";"NST_correctLoc";"35";"1";"FINISHED";"RIGHT";"success";"368";"0";"2014-10-13 19:53:52.545";"3";;;;;;;;;;;;;;;;;;;;;;;;;;;;;;;;;;;;;;;;;;;;;;;;;;;;;;;;;
"squirrel2";;;"Windows 7";"Rachel's Experiment (D.T.)";"1.0";"2";"1";"1";"2";"1";"1";"2014-10-13 19:52:08.120";"2014-10-13 20:05:38.375";"1";"1";"1";"31";"30";"module.training_block1.exec-1465.GoNoGo1";;;;;;;;;;;;;;;;;;;;;;;"1242";"2014-10-13 19:53:56.340";"ST_correctStop";"25";"0";"FINISHED";"NONE";"success";"0";"1";"2014-10-13 19:53:55.090";"3";;;;;;;;;;;;;;;;;;;;;;;;;;;;;;;;;;;;;;;;;;;;;;;;;;;;;;;;;
"squirrel2";;;"Windows 7";"Rachel's Experiment (D.T.)";"1.0";"2";"1";"1";"2";"1";"1";"2014-10-13 19:52:08.120";"2014-10-13 20:05:38.375";"1";"1";"1";"32";"31";"module.training_block1.exec-1465.GoNoGo1";;;;;;;;;;;;;;;;;;;;;;;"1244";"2014-10-13 19:53:58.870";"NST_correctLoc";"11";"1";"FINISHED";"RIGHT";"success";"361";"0";"2014-10-13 19:53:57.620";"2";;;;;;;;;;;;;;;;;;;;;;;;;;;;;;;;;;;;;;;;;;;;;;;;;;;;;;;;;
"squirrel2";;;"Windows 7";"Rachel's Experiment (D.T.)";"1.0";"2";"1";"1";"2";"1";"1";"2014-10-13 19:52:08.120";"2014-10-13 20:05:38.375";"1";"1";"1";"33";"32";"module.training_block1.exec-1465.GoNoGo1";;;;;;;;;;;;;;;;;;;;;;;"1246";"2014-10-13 19:54:01.412";"ST_failedStop";"34";"1";"FINISHED";"RIGHT";"failure";"717";"1";"2014-10-13 19:54:00.162";"3";;;;;;;;;;;;;;;;;;;;;;;;;;;;;;;;;;;;;;;;;;;;;;;;;;;;;;;;;
"squirrel2";;;"Windows 7";"Rachel's Experiment (D.T.)";"1.0";"2";"1";"1";"2";"1";"1";"2014-10-13 19:52:08.120";"2014-10-13 20:05:38.375";"1";"1";"1";"34";"33";"module.training_block1.exec-1465.GoNoGo1";;;;;;;;;;;;;;;;;;;;;;;"1247";"2014-10-13 19:54:03.942";"ST_correctStop";"2";"0";"FINISHED";"NONE";"success";"0";"1";"2014-10-13 19:54:02.692";"1";;;;;;;;;;;;;;;;;;;;;;;;;;;;;;;;;;;;;;;;;;;;;;;;;;;;;;;;;
"squirrel2";;;"Windows 7";"Rachel's Experiment (D.T.)";"1.0";"2";"1";"1";"2";"1";"1";"2014-10-13 19:52:08.120";"2014-10-13 20:05:38.375";"1";"1";"1";"35";"34";"module.training_block1.exec-1465.GoNoGo1";;;;;;;;;;;;;;;;;;;;;;;"1247";"2014-10-13 19:54:06.482";"ST_correctStop";"3";"1";"FINISHED";"NONE";"success";"0";"1";"2014-10-13 19:54:05.232";"1";;;;;;;;;;;;;;;;;;;;;;;;;;;;;;;;;;;;;;;;;;;;;;;;;;;;;;;;;
"squirrel2";;;"Windows 7";"Rachel's Experiment (D.T.)";"1.0";"2";"1";"1";"2";"1";"1";"2014-10-13 19:52:08.120";"2014-10-13 20:05:38.375";"1";"1";"1";"36";"35";"module.training_block1.exec-1465.GoNoGo1";;;;;;;;;;;;;;;;;;;;;;;"1244";"2014-10-13 19:54:09.014";"ST_correctStop";"31";"0";"FINISHED";"NONE";"success";"0";"1";"2014-10-13 19:54:07.762";"3";;;;;;;;;;;;;;;;;;;;;;;;;;;;;;;;;;;;;;;;;;;;;;;;;;;;;;;;;
"squirrel2";;;"Windows 7";"Rachel's Experiment (D.T.)";"1.0";"2";"1";"1";"2";"1";"1";"2014-10-13 19:52:08.120";"2014-10-13 20:05:38.375";"1";"1";"1";"37";"36";"module.training_block1.exec-1465.GoNoGo1";;;;;;;;;;;;;;;;;;;;;;;"1246";"2014-10-13 19:54:11.561";"NST_correctLoc";"24";"1";"FINISHED";"RIGHT";"success";"640";"0";"2014-10-13 19:54:10.306";"3";;;;;;;;;;;;;;;;;;;;;;;;;;;;;;;;;;;;;;;;;;;;;;;;;;;;;;;;;
"squirrel2";;;"Windows 7";"Rachel's Experiment (D.T.)";"1.0";"2";"1";"1";"2";"1";"1";"2014-10-13 19:52:08.120";"2014-10-13 20:05:38.375";"1";"1";"1";"38";"37";"module.training_block1.exec-1465.GoNoGo1";;;;;;;;;;;;;;;;;;;;;;;"1244";"2014-10-13 19:54:14.121";"NST_correctLoc";"15";"0";"FINISHED";"LEFT";"success";"620";"0";"2014-10-13 19:54:12.871";"2";;;;;;;;;;;;;;;;;;;;;;;;;;;;;;;;;;;;;;;;;;;;;;;;;;;;;;;;;
"squirrel2";;;"Windows 7";"Rachel's Experiment (D.T.)";"1.0";"2";"1";"1";"2";"1";"1";"2014-10-13 19:52:08.120";"2014-10-13 20:05:38.375";"1";"1";"1";"39";"38";"module.training_block1.exec-1465.GoNoGo1";;;;;;;;;;;;;;;;;;;;;;;"1244";"2014-10-13 19:54:16.681";"NST_correctLoc";"10";"1";"FINISHED";"RIGHT";"success";"416";"0";"2014-10-13 19:54:15.431";"2";;;;;;;;;;;;;;;;;;;;;;;;;;;;;;;;;;;;;;;;;;;;;;;;;;;;;;;;;
"squirrel2";;;"Windows 7";"Rachel's Experiment (D.T.)";"1.0";"2";"1";"1";"2";"1";"1";"2014-10-13 19:52:08.120";"2014-10-13 20:05:38.375";"1";"1";"1";"40";"39";"module.training_block1.exec-1465.GoNoGo1";;;;;;;;;;;;;;;;;;;;;;;"1246";"2014-10-13 19:54:19.224";"NST_correctLoc";"16";"0";"FINISHED";"LEFT";"success";"742";"0";"2014-10-13 19:54:17.969";"2";;;;;;;;;;;;;;;;;;;;;;;;;;;;;;;;;;;;;;;;;;;;;;;;;;;;;;;;;
"squirrel2";;;"Windows 7";"Rachel's Experiment (D.T.)";"1.0";"2";"1";"1";"2";"1";"1";"2014-10-13 19:52:08.120";"2014-10-13 20:05:38.375";"1";"1";"1";"41";"40";"module.training_block1.exec-1465.GoNoGo1";;;;;;;;;;;;;;;;;;;;;;;"1248";"2014-10-13 19:54:21.771";"NST_correctLoc";"17";"1";"FINISHED";"RIGHT";"success";"564";"0";"2014-10-13 19:54:20.514";"2";;;;;;;;;;;;;;;;;;;;;;;;;;;;;;;;;;;;;;;;;;;;;;;;;;;;;;;;;
"squirrel2";;;"Windows 7";"Rachel's Experiment (D.T.)";"1.0";"2";"1";"1";"2";"1";"1";"2014-10-13 19:52:08.120";"2014-10-13 20:05:38.375";"1";"1";"1";"42";"41";"module.training_block1.exec-1465.GoNoGo1";;;;;;;;;;;;;;;;;;;;;;;"1253";"2014-10-13 19:54:24.315";"NST_correctLoc";"18";"1";"FINISHED";"RIGHT";"success";"551";"0";"2014-10-13 19:54:23.056";"3";;;;;;;;;;;;;;;;;;;;;;;;;;;;;;;;;;;;;;;;;;;;;;;;;;;;;;;;;
"squirrel2";;;"Windows 7";"Rachel's Experiment (D.T.)";"1.0";"2";"1";"1";"2";"1";"1";"2014-10-13 19:52:08.120";"2014-10-13 20:05:38.375";"1";"1";"1";"43";"42";"module.training_block1.exec-1465.GoNoGo1";;;;;;;;;;;;;;;;;;;;;;;"1241";"2014-10-13 19:54:26.862";"ST_correctStop";"7";"0";"FINISHED";"NONE";"success";"0";"1";"2014-10-13 19:54:25.612";"1";;;;;;;;;;;;;;;;;;;;;;;;;;;;;;;;;;;;;;;;;;;;;;;;;;;;;;;;;
"squirrel2";;;"Windows 7";"Rachel's Experiment (D.T.)";"1.0";"2";"1";"1";"2";"1";"1";"2014-10-13 19:52:08.120";"2014-10-13 20:05:38.375";"1";"1";"1";"44";"43";"module.training_block1.exec-1465.GoNoGo1";;;;;;;;;;;;;;;;;;;;;;;"1249";"2014-10-13 19:54:29.417";"NST_correctLoc";"32";"1";"FINISHED";"RIGHT";"success";"619";"0";"2014-10-13 19:54:28.167";"3";;;;;;;;;;;;;;;;;;;;;;;;;;;;;;;;;;;;;;;;;;;;;;;;;;;;;;;;;
"squirrel2";;;"Windows 7";"Rachel's Experiment (D.T.)";"1.0";"2";"1";"1";"2";"1";"1";"2014-10-13 19:52:08.120";"2014-10-13 20:05:38.375";"1";"1";"1";"45";"44";"module.training_block1.exec-1465.GoNoGo1";;;;;;;;;;;;;;;;;;;;;;;"1251";"2014-10-13 19:54:31.952";"ST_correctStop";"30";"0";"FINISHED";"NONE";"success";"0";"1";"2014-10-13 19:54:30.697";"3";;;;;;;;;;;;;;;;;;;;;;;;;;;;;;;;;;;;;;;;;;;;;;;;;;;;;;;;;
"squirrel2";;;"Windows 7";"Rachel's Experiment (D.T.)";"1.0";"2";"1";"1";"2";"1";"1";"2014-10-13 19:52:08.120";"2014-10-13 20:05:38.375";"1";"1";"1";"46";"45";"module.training_block1.exec-1465.GoNoGo1";;;;;;;;;;;;;;;;;;;;;;;"1247";"2014-10-13 19:54:34.502";"ST_correctStop";"29";"0";"FINISHED";"NONE";"success";"0";"1";"2014-10-13 19:54:33.247";"3";;;;;;;;;;;;;;;;;;;;;;;;;;;;;;;;;;;;;;;;;;;;;;;;;;;;;;;;;
"squirrel2";;;"Windows 7";"Rachel's Experiment (D.T.)";"1.0";"2";"1";"1";"2";"1";"1";"2014-10-13 19:52:08.120";"2014-10-13 20:05:38.375";"1";"1";"1";"47";"46";"module.training_block1.exec-1465.GoNoGo1";;;;;;;;;;;;;;;;;;;;;;;"1249";"2014-10-13 19:54:37.052";"ST_correctStop";"0";"0";"FINISHED";"NONE";"success";"0";"1";"2014-10-13 19:54:35.797";"1";;;;;;;;;;;;;;;;;;;;;;;;;;;;;;;;;;;;;;;;;;;;;;;;;;;;;;;;;
"squirrel2";;;"Windows 7";"Rachel's Experiment (D.T.)";"1.0";"2";"1";"1";"2";"1";"1";"2014-10-13 19:52:08.120";"2014-10-13 20:05:38.375";"1";"1";"1";"48";"47";"module.training_block1.exec-1465.GoNoGo1";;;;;;;;;;;;;;;;;;;;;;;"1241";"2014-10-13 19:54:39.589";"ST_correctStop";"20";"1";"FINISHED";"NONE";"success";"0";"1";"2014-10-13 19:54:38.339";"3";;;;;;;;;;;;;;;;;;;;;;;;;;;;;;;;;;;;;;;;;;;;;;;;;;;;;;;;;
"squirrel2";;;"Windows 7";"Rachel's Experiment (D.T.)";"1.0";"2";"1";"1";"2";"1";"1";"2014-10-13 19:52:08.120";"2014-10-13 20:05:38.375";"1";"1";"1";"49";"48";"module.training_block1.exec-1465.GoNoGo1";;;;;;;;;;;;;;;;;;;;;;;"1246";"2014-10-13 19:54:42.129";"ST_correctStop";"27";"0";"FINISHED";"NONE";"success";"0";"1";"2014-10-13 19:54:40.879";"3";;;;;;;;;;;;;;;;;;;;;;;;;;;;;;;;;;;;;;;;;;;;;;;;;;;;;;;;;
"squirrel2";;;"Windows 7";"Rachel's Experiment (D.T.)";"1.0";"2";"1";"1";"2";"1";"1";"2014-10-13 19:52:08.120";"2014-10-13 20:05:38.375";"1";"1";"1";"50";"49";"module.training_block1.exec-1465.GoNoGo1";;;;;;;;;;;;;;;;;;;;;;;"1242";"2014-10-13 19:54:44.659";"ST_correctStop";"1";"1";"FINISHED";"NONE";"success";"0";"1";"2014-10-13 19:54:43.409";"1";;;;;;;;;;;;;;;;;;;;;;;;;;;;;;;;;;;;;;;;;;;;;;;;;;;;;;;;;
"squirrel2";;;"Windows 7";"Rachel's Experiment (D.T.)";"1.0";"2";"1";"1";"2";"1";"1";"2014-10-13 19:52:08.120";"2014-10-13 20:05:38.375";"1";"1";"1";"51";"50";"module.training_block1.exec-1465.GoNoGo1";;;;;;;;;;;;;;;;;;;;;;;"1241";"2014-10-13 19:54:47.201";"NST_correctLoc";"19";"1";"FINISHED";"RIGHT";"success";"602";"0";"2014-10-13 19:54:45.951";"3";;;;;;;;;;;;;;;;;;;;;;;;;;;;;;;;;;;;;;;;;;;;;;;;;;;;;;;;;
"squirrel2";;;"Windows 7";"Rachel's Experiment (D.T.)";"1.0";"2";"1";"1";"2";"1";"1";"2014-10-13 19:52:08.120";"2014-10-13 20:05:38.375";"1";"1";"1";"52";"51";"module.training_block2.exec-8442.GoNoGo2";;;;;;;;;;;;;;;;;;;;;;;;;;;;;;;;;;;"1249";"2014-10-13 19:54:57.772";"NST_correctLoc";"31";"1";"FINISHED";"RIGHT";"success";"584";"0";"2014-10-13 19:54:56.517";"3";;;;;;;;;;;;;;;;;;;;;;;;;;;;;;;;;;;;;;;;;;;;;
"squirrel2";;;"Windows 7";"Rachel's Experiment (D.T.)";"1.0";"2";"1";"1";"2";"1";"1";"2014-10-13 19:52:08.120";"2014-10-13 20:05:38.375";"1";"1";"1";"53";"52";"module.training_block2.exec-8442.GoNoGo2";;;;;;;;;;;;;;;;;;;;;;;;;;;;;;;;;;;"1247";"2014-10-13 19:55:00.307";"ST_correctStop";"0";"1";"FINISHED";"NONE";"success";"0";"1";"2014-10-13 19:54:59.057";"1";;;;;;;;;;;;;;;;;;;;;;;;;;;;;;;;;;;;;;;;;;;;;
"squirrel2";;;"Windows 7";"Rachel's Experiment (D.T.)";"1.0";"2";"1";"1";"2";"1";"1";"2014-10-13 19:52:08.120";"2014-10-13 20:05:38.375";"1";"1";"1";"54";"53";"module.training_block2.exec-8442.GoNoGo2";;;;;;;;;;;;;;;;;;;;;;;;;;;;;;;;;;;"1246";"2014-10-13 19:55:02.847";"ST_correctStop";"19";"1";"FINISHED";"NONE";"success";"0";"1";"2014-10-13 19:55:01.597";"3";;;;;;;;;;;;;;;;;;;;;;;;;;;;;;;;;;;;;;;;;;;;;
"squirrel2";;;"Windows 7";"Rachel's Experiment (D.T.)";"1.0";"2";"1";"1";"2";"1";"1";"2014-10-13 19:52:08.120";"2014-10-13 20:05:38.375";"1";"1";"1";"55";"54";"module.training_block2.exec-8442.GoNoGo2";;;;;;;;;;;;;;;;;;;;;;;;;;;;;;;;;;;"1246";"2014-10-13 19:55:05.377";"ST_correctStop";"30";"1";"FINISHED";"NONE";"success";"0";"1";"2014-10-13 19:55:04.127";"3";;;;;;;;;;;;;;;;;;;;;;;;;;;;;;;;;;;;;;;;;;;;;
"squirrel2";;;"Windows 7";"Rachel's Experiment (D.T.)";"1.0";"2";"1";"1";"2";"1";"1";"2014-10-13 19:52:08.120";"2014-10-13 20:05:38.375";"1";"1";"1";"56";"55";"module.training_block2.exec-8442.GoNoGo2";;;;;;;;;;;;;;;;;;;;;;;;;;;;;;;;;;;"1251";"2014-10-13 19:55:07.934";"NST_correctLoc";"35";"1";"FINISHED";"RIGHT";"success";"405";"0";"2014-10-13 19:55:06.682";"3";;;;;;;;;;;;;;;;;;;;;;;;;;;;;;;;;;;;;;;;;;;;;
"squirrel2";;;"Windows 7";"Rachel's Experiment (D.T.)";"1.0";"2";"1";"1";"2";"1";"1";"2014-10-13 19:52:08.120";"2014-10-13 20:05:38.375";"1";"1";"1";"57";"56";"module.training_block2.exec-8442.GoNoGo2";;;;;;;;;;;;;;;;;;;;;;;;;;;;;;;;;;;"1246";"2014-10-13 19:55:10.469";"NST_correctLoc";"22";"0";"FINISHED";"LEFT";"success";"481";"0";"2014-10-13 19:55:09.219";"3";;;;;;;;;;;;;;;;;;;;;;;;;;;;;;;;;;;;;;;;;;;;;
"squirrel2";;;"Windows 7";"Rachel's Experiment (D.T.)";"1.0";"2";"1";"1";"2";"1";"1";"2014-10-13 19:52:08.120";"2014-10-13 20:05:38.375";"1";"1";"1";"58";"57";"module.training_block2.exec-8442.GoNoGo2";;;;;;;;;;;;;;;;;;;;;;;;;;;;;;;;;;;"1246";"2014-10-13 19:55:13.014";"NST_correctLoc";"25";"0";"FINISHED";"LEFT";"success";"423";"0";"2014-10-13 19:55:11.764";"3";;;;;;;;;;;;;;;;;;;;;;;;;;;;;;;;;;;;;;;;;;;;;
"squirrel2";;;"Windows 7";"Rachel's Experiment (D.T.)";"1.0";"2";"1";"1";"2";"1";"1";"2014-10-13 19:52:08.120";"2014-10-13 20:05:38.375";"1";"1";"1";"59";"58";"module.training_block2.exec-8442.GoNoGo2";;;;;;;;;;;;;;;;;;;;;;;;;;;;;;;;;;;"1246";"2014-10-13 19:55:15.544";"NST_correctLoc";"11";"1";"FINISHED";"RIGHT";"success";"422";"0";"2014-10-13 19:55:14.294";"2";;;;;;;;;;;;;;;;;;;;;;;;;;;;;;;;;;;;;;;;;;;;;
"squirrel2";;;"Windows 7";"Rachel's Experiment (D.T.)";"1.0";"2";"1";"1";"2";"1";"1";"2014-10-13 19:52:08.120";"2014-10-13 20:05:38.375";"1";"1";"1";"60";"59";"module.training_block2.exec-8442.GoNoGo2";;;;;;;;;;;;;;;;;;;;;;;;;;;;;;;;;;;"1249";"2014-10-13 19:55:18.078";"NST_correctLoc";"28";"1";"FINISHED";"RIGHT";"success";"483";"0";"2014-10-13 19:55:16.826";"3";;;;;;;;;;;;;;;;;;;;;;;;;;;;;;;;;;;;;;;;;;;;;
"squirrel2";;;"Windows 7";"Rachel's Experiment (D.T.)";"1.0";"2";"1";"1";"2";"1";"1";"2014-10-13 19:52:08.120";"2014-10-13 20:05:38.375";"1";"1";"1";"61";"60";"module.training_block2.exec-8442.GoNoGo2";;;;;;;;;;;;;;;;;;;;;;;;;;;;;;;;;;;"1251";"2014-10-13 19:55:20.628";"ST_correctStop";"7";"1";"FINISHED";"NONE";"success";"0";"1";"2014-10-13 19:55:19.373";"1";;;;;;;;;;;;;;;;;;;;;;;;;;;;;;;;;;;;;;;;;;;;;
"squirrel2";;;"Windows 7";"Rachel's Experiment (D.T.)";"1.0";"2";"1";"1";"2";"1";"1";"2014-10-13 19:52:08.120";"2014-10-13 20:05:38.375";"1";"1";"1";"62";"61";"module.training_block2.exec-8442.GoNoGo2";;;;;;;;;;;;;;;;;;;;;;;;;;;;;;;;;;;"1246";"2014-10-13 19:55:23.173";"ST_correctStop";"4";"1";"FINISHED";"NONE";"success";"0";"1";"2014-10-13 19:55:21.923";"1";;;;;;;;;;;;;;;;;;;;;;;;;;;;;;;;;;;;;;;;;;;;;
"squirrel2";;;"Windows 7";"Rachel's Experiment (D.T.)";"1.0";"2";"1";"1";"2";"1";"1";"2014-10-13 19:52:08.120";"2014-10-13 20:05:38.375";"1";"1";"1";"63";"62";"module.training_block2.exec-8442.GoNoGo2";;;;;;;;;;;;;;;;;;;;;;;;;;;;;;;;;;;"1246";"2014-10-13 19:55:25.708";"NST_correctLoc";"14";"1";"FINISHED";"RIGHT";"success";"424";"0";"2014-10-13 19:55:24.458";"2";;;;;;;;;;;;;;;;;;;;;;;;;;;;;;;;;;;;;;;;;;;;;
"squirrel2";;;"Windows 7";"Rachel's Experiment (D.T.)";"1.0";"2";"1";"1";"2";"1";"1";"2014-10-13 19:52:08.120";"2014-10-13 20:05:38.375";"1";"1";"1";"64";"63";"module.training_block2.exec-8442.GoNoGo2";;;;;;;;;;;;;;;;;;;;;;;;;;;;;;;;;;;"1247";"2014-10-13 19:55:28.256";"NST_correctLoc";"33";"0";"FINISHED";"LEFT";"success";"454";"0";"2014-10-13 19:55:27.006";"3";;;;;;;;;;;;;;;;;;;;;;;;;;;;;;;;;;;;;;;;;;;;;
"squirrel2";;;"Windows 7";"Rachel's Experiment (D.T.)";"1.0";"2";"1";"1";"2";"1";"1";"2014-10-13 19:52:08.120";"2014-10-13 20:05:38.375";"1";"1";"1";"65";"64";"module.training_block2.exec-8442.GoNoGo2";;;;;;;;;;;;;;;;;;;;;;;;;;;;;;;;;;;"1246";"2014-10-13 19:55:30.786";"NST_correctLoc";"20";"0";"FINISHED";"LEFT";"success";"450";"0";"2014-10-13 19:55:29.536";"3";;;;;;;;;;;;;;;;;;;;;;;;;;;;;;;;;;;;;;;;;;;;;
"squirrel2";;;"Windows 7";"Rachel's Experiment (D.T.)";"1.0";"2";"1";"1";"2";"1";"1";"2014-10-13 19:52:08.120";"2014-10-13 20:05:38.375";"1";"1";"1";"66";"65";"module.training_block2.exec-8442.GoNoGo2";;;;;;;;;;;;;;;;;;;;;;;;;;;;;;;;;;;"1247";"2014-10-13 19:55:33.333";"ST_correctStop";"2";"0";"FINISHED";"NONE";"success";"0";"1";"2014-10-13 19:55:32.083";"1";;;;;;;;;;;;;;;;;;;;;;;;;;;;;;;;;;;;;;;;;;;;;
"squirrel2";;;"Windows 7";"Rachel's Experiment (D.T.)";"1.0";"2";"1";"1";"2";"1";"1";"2014-10-13 19:52:08.120";"2014-10-13 20:05:38.375";"1";"1";"1";"67";"66";"module.training_block2.exec-8442.GoNoGo2";;;;;;;;;;;;;;;;;;;;;;;;;;;;;;;;;;;"1249";"2014-10-13 19:55:35.866";"NST_correctLoc";"24";"1";"FINISHED";"RIGHT";"success";"506";"0";"2014-10-13 19:55:34.613";"3";;;;;;;;;;;;;;;;;;;;;;;;;;;;;;;;;;;;;;;;;;;;;
"squirrel2";;;"Windows 7";"Rachel's Experiment (D.T.)";"1.0";"2";"1";"1";"2";"1";"1";"2014-10-13 19:52:08.120";"2014-10-13 20:05:38.375";"1";"1";"1";"68";"67";"module.training_block2.exec-8442.GoNoGo2";;;;;;;;;;;;;;;;;;;;;;;;;;;;;;;;;;;"1246";"2014-10-13 19:55:38.406";"ST_correctStop";"34";"1";"FINISHED";"NONE";"success";"0";"1";"2014-10-13 19:55:37.156";"3";;;;;;;;;;;;;;;;;;;;;;;;;;;;;;;;;;;;;;;;;;;;;
"squirrel2";;;"Windows 7";"Rachel's Experiment (D.T.)";"1.0";"2";"1";"1";"2";"1";"1";"2014-10-13 19:52:08.120";"2014-10-13 20:05:38.375";"1";"1";"1";"69";"68";"module.training_block2.exec-8442.GoNoGo2";;;;;;;;;;;;;;;;;;;;;;;;;;;;;;;;;;;"1247";"2014-10-13 19:55:40.941";"NST_correctLoc";"9";"1";"FINISHED";"RIGHT";"success";"351";"0";"2014-10-13 19:55:39.691";"2";;;;;;;;;;;;;;;;;;;;;;;;;;;;;;;;;;;;;;;;;;;;;
"squirrel2";;;"Windows 7";"Rachel's Experiment (D.T.)";"1.0";"2";"1";"1";"2";"1";"1";"2014-10-13 19:52:08.120";"2014-10-13 20:05:38.375";"1";"1";"1";"70";"69";"module.training_block2.exec-8442.GoNoGo2";;;;;;;;;;;;;;;;;;;;;;;;;;;;;;;;;;;"1246";"2014-10-13 19:55:43.483";"NST_correctLoc";"12";"0";"FINISHED";"LEFT";"success";"363";"0";"2014-10-13 19:55:42.233";"2";;;;;;;;;;;;;;;;;;;;;;;;;;;;;;;;;;;;;;;;;;;;;
"squirrel2";;;"Windows 7";"Rachel's Experiment (D.T.)";"1.0";"2";"1";"1";"2";"1";"1";"2014-10-13 19:52:08.120";"2014-10-13 20:05:38.375";"1";"1";"1";"71";"70";"module.training_block2.exec-8442.GoNoGo2";;;;;;;;;;;;;;;;;;;;;;;;;;;;;;;;;;;"1247";"2014-10-13 19:55:46.023";"NST_correctLoc";"15";"0";"FINISHED";"LEFT";"success";"388";"0";"2014-10-13 19:55:44.773";"2";;;;;;;;;;;;;;;;;;;;;;;;;;;;;;;;;;;;;;;;;;;;;
"squirrel2";;;"Windows 7";"Rachel's Experiment (D.T.)";"1.0";"2";"1";"1";"2";"1";"1";"2014-10-13 19:52:08.120";"2014-10-13 20:05:38.375";"1";"1";"1";"72";"71";"module.training_block2.exec-8442.GoNoGo2";;;;;;;;;;;;;;;;;;;;;;;;;;;;;;;;;;;"1254";"2014-10-13 19:55:48.560";"NST_correctLoc";"26";"0";"FINISHED";"LEFT";"success";"368";"0";"2014-10-13 19:55:47.305";"3";;;;;;;;;;;;;;;;;;;;;;;;;;;;;;;;;;;;;;;;;;;;;
"squirrel2";;;"Windows 7";"Rachel's Experiment (D.T.)";"1.0";"2";"1";"1";"2";"1";"1";"2014-10-13 19:52:08.120";"2014-10-13 20:05:38.375";"1";"1";"1";"73";"72";"module.training_block2.exec-8442.GoNoGo2";;;;;;;;;;;;;;;;;;;;;;;;;;;;;;;;;;;"1241";"2014-10-13 19:55:51.138";"NST_correctLoc";"16";"1";"FINISHED";"RIGHT";"success";"395";"0";"2014-10-13 19:55:49.888";"2";;;;;;;;;;;;;;;;;;;;;;;;;;;;;;;;;;;;;;;;;;;;;
"squirrel2";;;"Windows 7";"Rachel's Experiment (D.T.)";"1.0";"2";"1";"1";"2";"1";"1";"2014-10-13 19:52:08.120";"2014-10-13 20:05:38.375";"1";"1";"1";"74";"73";"module.training_block2.exec-8442.GoNoGo2";;;;;;;;;;;;;;;;;;;;;;;;;;;;;;;;;;;"1247";"2014-10-13 19:55:53.683";"NST_correctLoc";"13";"0";"FINISHED";"LEFT";"success";"327";"0";"2014-10-13 19:55:52.433";"2";;;;;;;;;;;;;;;;;;;;;;;;;;;;;;;;;;;;;;;;;;;;;
"squirrel2";;;"Windows 7";"Rachel's Experiment (D.T.)";"1.0";"2";"1";"1";"2";"1";"1";"2014-10-13 19:52:08.120";"2014-10-13 20:05:38.375";"1";"1";"1";"75";"74";"module.training_block2.exec-8442.GoNoGo2";;;;;;;;;;;;;;;;;;;;;;;;;;;;;;;;;;;"1254";"2014-10-13 19:55:56.232";"ST_correctStop";"27";"0";"FINISHED";"NONE";"success";"0";"1";"2014-10-13 19:55:54.975";"3";;;;;;;;;;;;;;;;;;;;;;;;;;;;;;;;;;;;;;;;;;;;;
"squirrel2";;;"Windows 7";"Rachel's Experiment (D.T.)";"1.0";"2";"1";"1";"2";"1";"1";"2014-10-13 19:52:08.120";"2014-10-13 20:05:38.375";"1";"1";"1";"76";"75";"module.training_block2.exec-8442.GoNoGo2";;;;;;;;;;;;;;;;;;;;;;;;;;;;;;;;;;;"1251";"2014-10-13 19:55:58.786";"ST_correctStop";"5";"0";"FINISHED";"NONE";"success";"0";"1";"2014-10-13 19:55:57.531";"1";;;;;;;;;;;;;;;;;;;;;;;;;;;;;;;;;;;;;;;;;;;;;
"squirrel2";;;"Windows 7";"Rachel's Experiment (D.T.)";"1.0";"2";"1";"1";"2";"1";"1";"2014-10-13 19:52:08.120";"2014-10-13 20:05:38.375";"1";"1";"1";"77";"76";"module.training_block2.exec-8442.GoNoGo2";;;;;;;;;;;;;;;;;;;;;;;;;;;;;;;;;;;"1252";"2014-10-13 19:56:01.373";"NST_correctLoc";"17";"1";"FINISHED";"RIGHT";"success";"491";"0";"2014-10-13 19:56:00.118";"2";;;;;;;;;;;;;;;;;;;;;;;;;;;;;;;;;;;;;;;;;;;;;
"squirrel2";;;"Windows 7";"Rachel's Experiment (D.T.)";"1.0";"2";"1";"1";"2";"1";"1";"2014-10-13 19:52:08.120";"2014-10-13 20:05:38.375";"1";"1";"1";"78";"77";"module.training_block2.exec-8442.GoNoGo2";;;;;;;;;;;;;;;;;;;;;;;;;;;;;;;;;;;"1252";"2014-10-13 19:56:03.920";"ST_correctStop";"8";"0";"FINISHED";"NONE";"success";"0";"1";"2014-10-13 19:56:02.665";"1";;;;;;;;;;;;;;;;;;;;;;;;;;;;;;;;;;;;;;;;;;;;;
"squirrel2";;;"Windows 7";"Rachel's Experiment (D.T.)";"1.0";"2";"1";"1";"2";"1";"1";"2014-10-13 19:52:08.120";"2014-10-13 20:05:38.375";"1";"1";"1";"79";"78";"module.training_block2.exec-8442.GoNoGo2";;;;;;;;;;;;;;;;;;;;;;;;;;;;;;;;;;;"1247";"2014-10-13 19:56:06.460";"ST_failedStop";"23";"1";"FINISHED";"RIGHT";"failure";"703";"1";"2014-10-13 19:56:05.210";"3";;;;;;;;;;;;;;;;;;;;;;;;;;;;;;;;;;;;;;;;;;;;;
"squirrel2";;;"Windows 7";"Rachel's Experiment (D.T.)";"1.0";"2";"1";"1";"2";"1";"1";"2014-10-13 19:52:08.120";"2014-10-13 20:05:38.375";"1";"1";"1";"80";"79";"module.training_block2.exec-8442.GoNoGo2";;;;;;;;;;;;;;;;;;;;;;;;;;;;;;;;;;;"1252";"2014-10-13 19:56:09.005";"NST_correctLoc";"10";"1";"FINISHED";"RIGHT";"success";"378";"0";"2014-10-13 19:56:07.750";"2";;;;;;;;;;;;;;;;;;;;;;;;;;;;;;;;;;;;;;;;;;;;;
"squirrel2";;;"Windows 7";"Rachel's Experiment (D.T.)";"1.0";"2";"1";"1";"2";"1";"1";"2014-10-13 19:52:08.120";"2014-10-13 20:05:38.375";"1";"1";"1";"81";"80";"module.training_block2.exec-8442.GoNoGo2";;;;;;;;;;;;;;;;;;;;;;;;;;;;;;;;;;;"1247";"2014-10-13 19:56:11.540";"ST_correctStop";"3";"1";"FINISHED";"NONE";"success";"0";"1";"2014-10-13 19:56:10.290";"1";;;;;;;;;;;;;;;;;;;;;;;;;;;;;;;;;;;;;;;;;;;;;
"squirrel2";;;"Windows 7";"Rachel's Experiment (D.T.)";"1.0";"2";"1";"1";"2";"1";"1";"2014-10-13 19:52:08.120";"2014-10-13 20:05:38.375";"1";"1";"1";"82";"81";"module.training_block2.exec-8442.GoNoGo2";;;;;;;;;;;;;;;;;;;;;;;;;;;;;;;;;;;"1251";"2014-10-13 19:56:14.075";"ST_correctStop";"1";"0";"FINISHED";"NONE";"success";"0";"1";"2014-10-13 19:56:12.820";"1";;;;;;;;;;;;;;;;;;;;;;;;;;;;;;;;;;;;;;;;;;;;;
"squirrel2";;;"Windows 7";"Rachel's Experiment (D.T.)";"1.0";"2";"1";"1";"2";"1";"1";"2014-10-13 19:52:08.120";"2014-10-13 20:05:38.375";"1";"1";"1";"83";"82";"module.training_block2.exec-8442.GoNoGo2";;;;;;;;;;;;;;;;;;;;;;;;;;;;;;;;;;;"1249";"2014-10-13 19:56:16.610";"ST_correctStop";"29";"0";"FINISHED";"NONE";"success";"0";"1";"2014-10-13 19:56:15.355";"3";;;;;;;;;;;;;;;;;;;;;;;;;;;;;;;;;;;;;;;;;;;;;
"squirrel2";;;"Windows 7";"Rachel's Experiment (D.T.)";"1.0";"2";"1";"1";"2";"1";"1";"2014-10-13 19:52:08.120";"2014-10-13 20:05:38.375";"1";"1";"1";"84";"83";"module.training_block2.exec-8442.GoNoGo2";;;;;;;;;;;;;;;;;;;;;;;;;;;;;;;;;;;"1252";"2014-10-13 19:56:19.156";"ST_correctStop";"21";"0";"FINISHED";"NONE";"success";"0";"1";"2014-10-13 19:56:17.900";"3";;;;;;;;;;;;;;;;;;;;;;;;;;;;;;;;;;;;;;;;;;;;;
"squirrel2";;;"Windows 7";"Rachel's Experiment (D.T.)";"1.0";"2";"1";"1";"2";"1";"1";"2014-10-13 19:52:08.120";"2014-10-13 20:05:38.375";"1";"1";"1";"85";"84";"module.training_block2.exec-8442.GoNoGo2";;;;;;;;;;;;;;;;;;;;;;;;;;;;;;;;;;;"1247";"2014-10-13 19:56:21.691";"ST_correctStop";"32";"0";"FINISHED";"NONE";"success";"0";"1";"2014-10-13 19:56:20.441";"3";;;;;;;;;;;;;;;;;;;;;;;;;;;;;;;;;;;;;;;;;;;;;
"squirrel2";;;"Windows 7";"Rachel's Experiment (D.T.)";"1.0";"2";"1";"1";"2";"1";"1";"2014-10-13 19:52:08.120";"2014-10-13 20:05:38.375";"1";"1";"1";"86";"85";"module.training_block2.exec-8442.GoNoGo2";;;;;;;;;;;;;;;;;;;;;;;;;;;;;;;;;;;"1247";"2014-10-13 19:56:24.223";"ST_correctStop";"18";"0";"FINISHED";"NONE";"success";"0";"1";"2014-10-13 19:56:22.973";"3";;;;;;;;;;;;;;;;;;;;;;;;;;;;;;;;;;;;;;;;;;;;;
"squirrel2";;;"Windows 7";"Rachel's Experiment (D.T.)";"1.0";"2";"1";"1";"2";"1";"1";"2014-10-13 19:52:08.120";"2014-10-13 20:05:38.375";"1";"1";"1";"87";"86";"module.training_block2.exec-8442.GoNoGo2";;;;;;;;;;;;;;;;;;;;;;;;;;;;;;;;;;;"1247";"2014-10-13 19:56:26.753";"ST_correctStop";"6";"0";"FINISHED";"NONE";"success";"0";"1";"2014-10-13 19:56:25.503";"1";;;;;;;;;;;;;;;;;;;;;;;;;;;;;;;;;;;;;;;;;;;;;
"squirrel2";;;"Windows 7";"Rachel's Experiment (D.T.)";"1.0";"2";"1";"1";"2";"1";"1";"2014-10-13 19:52:08.120";"2014-10-13 20:05:38.375";"1";"1";"1";"88";"87";"module.training_block3.exec-7822.GoNoGo3";;;;;;;;;;;;;;;;;;;;;;;;;;;;;;;;;;;;;;;;;;;;;;;"1251";"2014-10-13 19:56:37.396";"ST_correctStop";"2";"0";"FINISHED";"NONE";"success";"0";"1";"2014-10-13 19:56:36.141";"1";;;;;;;;;;;;;;;;;;;;;;;;;;;;;;;;;
"squirrel2";;;"Windows 7";"Rachel's Experiment (D.T.)";"1.0";"2";"1";"1";"2";"1";"1";"2014-10-13 19:52:08.120";"2014-10-13 20:05:38.375";"1";"1";"1";"89";"88";"module.training_block3.exec-7822.GoNoGo3";;;;;;;;;;;;;;;;;;;;;;;;;;;;;;;;;;;;;;;;;;;;;;;"1249";"2014-10-13 19:56:39.929";"NST_correctLoc";"26";"1";"FINISHED";"RIGHT";"success";"424";"0";"2014-10-13 19:56:38.677";"3";;;;;;;;;;;;;;;;;;;;;;;;;;;;;;;;;
"squirrel2";;;"Windows 7";"Rachel's Experiment (D.T.)";"1.0";"2";"1";"1";"2";"1";"1";"2014-10-13 19:52:08.120";"2014-10-13 20:05:38.375";"1";"1";"1";"90";"89";"module.training_block3.exec-7822.GoNoGo3";;;;;;;;;;;;;;;;;;;;;;;;;;;;;;;;;;;;;;;;;;;;;;;"1247";"2014-10-13 19:56:42.471";"ST_failedStop";"3";"1";"FINISHED";"RIGHT";"failure";"321";"1";"2014-10-13 19:56:41.221";"1";;;;;;;;;;;;;;;;;;;;;;;;;;;;;;;;;
"squirrel2";;;"Windows 7";"Rachel's Experiment (D.T.)";"1.0";"2";"1";"1";"2";"1";"1";"2014-10-13 19:52:08.120";"2014-10-13 20:05:38.375";"1";"1";"1";"91";"90";"module.training_block3.exec-7822.GoNoGo3";;;;;;;;;;;;;;;;;;;;;;;;;;;;;;;;;;;;;;;;;;;;;;;"1251";"2014-10-13 19:56:45.006";"ST_correctStop";"6";"0";"FINISHED";"NONE";"success";"0";"1";"2014-10-13 19:56:43.751";"1";;;;;;;;;;;;;;;;;;;;;;;;;;;;;;;;;
"squirrel2";;;"Windows 7";"Rachel's Experiment (D.T.)";"1.0";"2";"1";"1";"2";"1";"1";"2014-10-13 19:52:08.120";"2014-10-13 20:05:38.375";"1";"1";"1";"92";"91";"module.training_block3.exec-7822.GoNoGo3";;;;;;;;;;;;;;;;;;;;;;;;;;;;;;;;;;;;;;;;;;;;;;;"1246";"2014-10-13 19:56:47.536";"NST_correctLoc";"13";"1";"FINISHED";"RIGHT";"success";"437";"0";"2014-10-13 19:56:46.286";"2";;;;;;;;;;;;;;;;;;;;;;;;;;;;;;;;;
"squirrel2";;;"Windows 7";"Rachel's Experiment (D.T.)";"1.0";"2";"1";"1";"2";"1";"1";"2014-10-13 19:52:08.120";"2014-10-13 20:05:38.375";"1";"1";"1";"93";"92";"module.training_block3.exec-7822.GoNoGo3";;;;;;;;;;;;;;;;;;;;;;;;;;;;;;;;;;;;;;;;;;;;;;;"1247";"2014-10-13 19:56:50.078";"ST_correctStop";"8";"1";"FINISHED";"NONE";"success";"0";"1";"2014-10-13 19:56:48.828";"1";;;;;;;;;;;;;;;;;;;;;;;;;;;;;;;;;
"squirrel2";;;"Windows 7";"Rachel's Experiment (D.T.)";"1.0";"2";"1";"1";"2";"1";"1";"2014-10-13 19:52:08.120";"2014-10-13 20:05:38.375";"1";"1";"1";"94";"93";"module.training_block3.exec-7822.GoNoGo3";;;;;;;;;;;;;;;;;;;;;;;;;;;;;;;;;;;;;;;;;;;;;;;"1247";"2014-10-13 19:56:52.618";"NST_correctLoc";"21";"1";"FINISHED";"RIGHT";"success";"633";"0";"2014-10-13 19:56:51.368";"3";;;;;;;;;;;;;;;;;;;;;;;;;;;;;;;;;
"squirrel2";;;"Windows 7";"Rachel's Experiment (D.T.)";"1.0";"2";"1";"1";"2";"1";"1";"2014-10-13 19:52:08.120";"2014-10-13 20:05:38.375";"1";"1";"1";"95";"94";"module.training_block3.exec-7822.GoNoGo3";;;;;;;;;;;;;;;;;;;;;;;;;;;;;;;;;;;;;;;;;;;;;;;"1247";"2014-10-13 19:56:55.149";"NST_correctLoc";"23";"0";"FINISHED";"LEFT";"success";"413";"0";"2014-10-13 19:56:53.899";"3";;;;;;;;;;;;;;;;;;;;;;;;;;;;;;;;;
"squirrel2";;;"Windows 7";"Rachel's Experiment (D.T.)";"1.0";"2";"1";"1";"2";"1";"1";"2014-10-13 19:52:08.120";"2014-10-13 20:05:38.375";"1";"1";"1";"96";"95";"module.training_block3.exec-7822.GoNoGo3";;;;;;;;;;;;;;;;;;;;;;;;;;;;;;;;;;;;;;;;;;;;;;;"1247";"2014-10-13 19:56:57.684";"ST_correctStop";"20";"0";"FINISHED";"NONE";"success";"0";"1";"2014-10-13 19:56:56.434";"3";;;;;;;;;;;;;;;;;;;;;;;;;;;;;;;;;
"squirrel2";;;"Windows 7";"Rachel's Experiment (D.T.)";"1.0";"2";"1";"1";"2";"1";"1";"2014-10-13 19:52:08.120";"2014-10-13 20:05:38.375";"1";"1";"1";"97";"96";"module.training_block3.exec-7822.GoNoGo3";;;;;;;;;;;;;;;;;;;;;;;;;;;;;;;;;;;;;;;;;;;;;;;"1247";"2014-10-13 19:57:00.226";"NST_correctLoc";"35";"1";"FINISHED";"RIGHT";"success";"417";"0";"2014-10-13 19:56:58.976";"3";;;;;;;;;;;;;;;;;;;;;;;;;;;;;;;;;
"squirrel2";;;"Windows 7";"Rachel's Experiment (D.T.)";"1.0";"2";"1";"1";"2";"1";"1";"2014-10-13 19:52:08.120";"2014-10-13 20:05:38.375";"1";"1";"1";"98";"97";"module.training_block3.exec-7822.GoNoGo3";;;;;;;;;;;;;;;;;;;;;;;;;;;;;;;;;;;;;;;;;;;;;;;"1252";"2014-10-13 19:57:02.766";"NST_correctLoc";"14";"0";"FINISHED";"LEFT";"success";"628";"0";"2014-10-13 19:57:01.511";"2";;;;;;;;;;;;;;;;;;;;;;;;;;;;;;;;;
"squirrel2";;;"Windows 7";"Rachel's Experiment (D.T.)";"1.0";"2";"1";"1";"2";"1";"1";"2014-10-13 19:52:08.120";"2014-10-13 20:05:38.375";"1";"1";"1";"99";"98";"module.training_block3.exec-7822.GoNoGo3";;;;;;;;;;;;;;;;;;;;;;;;;;;;;;;;;;;;;;;;;;;;;;;"1248";"2014-10-13 19:57:05.296";"NST_correctLoc";"32";"1";"FINISHED";"RIGHT";"success";"505";"0";"2014-10-13 19:57:04.046";"3";;;;;;;;;;;;;;;;;;;;;;;;;;;;;;;;;
"squirrel2";;;"Windows 7";"Rachel's Experiment (D.T.)";"1.0";"2";"1";"1";"2";"1";"1";"2014-10-13 19:52:08.120";"2014-10-13 20:05:38.375";"1";"1";"1";"100";"99";"module.training_block3.exec-7822.GoNoGo3";;;;;;;;;;;;;;;;;;;;;;;;;;;;;;;;;;;;;;;;;;;;;;;"1249";"2014-10-13 19:57:07.850";"NST_correctLoc";"16";"1";"FINISHED";"RIGHT";"success";"492";"0";"2014-10-13 19:57:06.598";"2";;;;;;;;;;;;;;;;;;;;;;;;;;;;;;;;;
"squirrel2";;;"Windows 7";"Rachel's Experiment (D.T.)";"1.0";"2";"1";"1";"2";"1";"1";"2014-10-13 19:52:08.120";"2014-10-13 20:05:38.375";"1";"1";"1";"101";"100";"module.training_block3.exec-7822.GoNoGo3";;;;;;;;;;;;;;;;;;;;;;;;;;;;;;;;;;;;;;;;;;;;;;;"1247";"2014-10-13 19:57:10.380";"NST_correctLoc";"12";"1";"FINISHED";"RIGHT";"success";"520";"0";"2014-10-13 19:57:09.130";"2";;;;;;;;;;;;;;;;;;;;;;;;;;;;;;;;;
"squirrel2";;;"Windows 7";"Rachel's Experiment (D.T.)";"1.0";"2";"1";"1";"2";"1";"1";"2014-10-13 19:52:08.120";"2014-10-13 20:05:38.375";"1";"1";"1";"102";"101";"module.training_block3.exec-7822.GoNoGo3";;;;;;;;;;;;;;;;;;;;;;;;;;;;;;;;;;;;;;;;;;;;;;;"1247";"2014-10-13 19:57:12.915";"ST_correctStop";"0";"0";"FINISHED";"NONE";"success";"0";"1";"2014-10-13 19:57:11.665";"1";;;;;;;;;;;;;;;;;;;;;;;;;;;;;;;;;
"squirrel2";;;"Windows 7";"Rachel's Experiment (D.T.)";"1.0";"2";"1";"1";"2";"1";"1";"2014-10-13 19:52:08.120";"2014-10-13 20:05:38.375";"1";"1";"1";"103";"102";"module.training_block3.exec-7822.GoNoGo3";;;;;;;;;;;;;;;;;;;;;;;;;;;;;;;;;;;;;;;;;;;;;;;"1246";"2014-10-13 19:57:15.445";"NST_correctLoc";"15";"0";"FINISHED";"LEFT";"success";"862";"0";"2014-10-13 19:57:14.195";"2";;;;;;;;;;;;;;;;;;;;;;;;;;;;;;;;;
"squirrel2";;;"Windows 7";"Rachel's Experiment (D.T.)";"1.0";"2";"1";"1";"2";"1";"1";"2014-10-13 19:52:08.120";"2014-10-13 20:05:38.375";"1";"1";"1";"104";"103";"module.training_block3.exec-7822.GoNoGo3";;;;;;;;;;;;;;;;;;;;;;;;;;;;;;;;;;;;;;;;;;;;;;;"1251";"2014-10-13 19:57:17.986";"NST_correctLoc";"10";"1";"FINISHED";"RIGHT";"success";"425";"0";"2014-10-13 19:57:16.731";"2";;;;;;;;;;;;;;;;;;;;;;;;;;;;;;;;;
"squirrel2";;;"Windows 7";"Rachel's Experiment (D.T.)";"1.0";"2";"1";"1";"2";"1";"1";"2014-10-13 19:52:08.120";"2014-10-13 20:05:38.375";"1";"1";"1";"105";"104";"module.training_block3.exec-7822.GoNoGo3";;;;;;;;;;;;;;;;;;;;;;;;;;;;;;;;;;;;;;;;;;;;;;;"1247";"2014-10-13 19:57:20.536";"NST_correctLoc";"28";"1";"FINISHED";"RIGHT";"success";"527";"0";"2014-10-13 19:57:19.286";"3";;;;;;;;;;;;;;;;;;;;;;;;;;;;;;;;;
"squirrel2";;;"Windows 7";"Rachel's Experiment (D.T.)";"1.0";"2";"1";"1";"2";"1";"1";"2014-10-13 19:52:08.120";"2014-10-13 20:05:38.375";"1";"1";"1";"106";"105";"module.training_block3.exec-7822.GoNoGo3";;;;;;;;;;;;;;;;;;;;;;;;;;;;;;;;;;;;;;;;;;;;;;;"1247";"2014-10-13 19:57:23.083";"NST_correctLoc";"11";"0";"FINISHED";"LEFT";"success";"483";"0";"2014-10-13 19:57:21.833";"2";;;;;;;;;;;;;;;;;;;;;;;;;;;;;;;;;
"squirrel2";;;"Windows 7";"Rachel's Experiment (D.T.)";"1.0";"2";"1";"1";"2";"1";"1";"2014-10-13 19:52:08.120";"2014-10-13 20:05:38.375";"1";"1";"1";"107";"106";"module.training_block3.exec-7822.GoNoGo3";;;;;;;;;;;;;;;;;;;;;;;;;;;;;;;;;;;;;;;;;;;;;;;"1247";"2014-10-13 19:57:25.630";"ST_failedStop";"27";"1";"FINISHED";"RIGHT";"failure";"342";"1";"2014-10-13 19:57:24.380";"3";;;;;;;;;;;;;;;;;;;;;;;;;;;;;;;;;
"squirrel2";;;"Windows 7";"Rachel's Experiment (D.T.)";"1.0";"2";"1";"1";"2";"1";"1";"2014-10-13 19:52:08.120";"2014-10-13 20:05:38.375";"1";"1";"1";"108";"107";"module.training_block3.exec-7822.GoNoGo3";;;;;;;;;;;;;;;;;;;;;;;;;;;;;;;;;;;;;;;;;;;;;;;"1252";"2014-10-13 19:57:28.165";"ST_failedStop";"19";"0";"FINISHED";"LEFT";"failure";"468";"1";"2014-10-13 19:57:26.910";"3";;;;;;;;;;;;;;;;;;;;;;;;;;;;;;;;;
"squirrel2";;;"Windows 7";"Rachel's Experiment (D.T.)";"1.0";"2";"1";"1";"2";"1";"1";"2014-10-13 19:52:08.120";"2014-10-13 20:05:38.375";"1";"1";"1";"109";"108";"module.training_block3.exec-7822.GoNoGo3";;;;;;;;;;;;;;;;;;;;;;;;;;;;;;;;;;;;;;;;;;;;;;;"1251";"2014-10-13 19:57:30.705";"ST_correctStop";"5";"1";"FINISHED";"NONE";"success";"0";"1";"2014-10-13 19:57:29.450";"1";;;;;;;;;;;;;;;;;;;;;;;;;;;;;;;;;
"squirrel2";;;"Windows 7";"Rachel's Experiment (D.T.)";"1.0";"2";"1";"1";"2";"1";"1";"2014-10-13 19:52:08.120";"2014-10-13 20:05:38.375";"1";"1";"1";"110";"109";"module.training_block3.exec-7822.GoNoGo3";;;;;;;;;;;;;;;;;;;;;;;;;;;;;;;;;;;;;;;;;;;;;;;"1249";"2014-10-13 19:57:33.237";"NST_correctLoc";"18";"0";"FINISHED";"LEFT";"success";"532";"0";"2014-10-13 19:57:31.985";"3";;;;;;;;;;;;;;;;;;;;;;;;;;;;;;;;;
"squirrel2";;;"Windows 7";"Rachel's Experiment (D.T.)";"1.0";"2";"1";"1";"2";"1";"1";"2014-10-13 19:52:08.120";"2014-10-13 20:05:38.375";"1";"1";"1";"111";"110";"module.training_block3.exec-7822.GoNoGo3";;;;;;;;;;;;;;;;;;;;;;;;;;;;;;;;;;;;;;;;;;;;;;;"1252";"2014-10-13 19:57:35.777";"ST_correctStop";"1";"1";"FINISHED";"NONE";"success";"0";"1";"2014-10-13 19:57:34.522";"1";;;;;;;;;;;;;;;;;;;;;;;;;;;;;;;;;
"squirrel2";;;"Windows 7";"Rachel's Experiment (D.T.)";"1.0";"2";"1";"1";"2";"1";"1";"2014-10-13 19:52:08.120";"2014-10-13 20:05:38.375";"1";"1";"1";"112";"111";"module.training_block3.exec-7822.GoNoGo3";;;;;;;;;;;;;;;;;;;;;;;;;;;;;;;;;;;;;;;;;;;;;;;"1247";"2014-10-13 19:57:38.312";"NST_correctLoc";"17";"1";"FINISHED";"RIGHT";"success";"595";"0";"2014-10-13 19:57:37.062";"2";;;;;;;;;;;;;;;;;;;;;;;;;;;;;;;;;
"squirrel2";;;"Windows 7";"Rachel's Experiment (D.T.)";"1.0";"2";"1";"1";"2";"1";"1";"2014-10-13 19:52:08.120";"2014-10-13 20:05:38.375";"1";"1";"1";"113";"112";"module.training_block3.exec-7822.GoNoGo3";;;;;;;;;;;;;;;;;;;;;;;;;;;;;;;;;;;;;;;;;;;;;;;"1252";"2014-10-13 19:57:40.854";"ST_correctStop";"4";"0";"FINISHED";"NONE";"success";"0";"1";"2014-10-13 19:57:39.599";"1";;;;;;;;;;;;;;;;;;;;;;;;;;;;;;;;;
"squirrel2";;;"Windows 7";"Rachel's Experiment (D.T.)";"1.0";"2";"1";"1";"2";"1";"1";"2014-10-13 19:52:08.120";"2014-10-13 20:05:38.375";"1";"1";"1";"114";"113";"module.training_block3.exec-7822.GoNoGo3";;;;;;;;;;;;;;;;;;;;;;;;;;;;;;;;;;;;;;;;;;;;;;;"1252";"2014-10-13 19:57:43.389";"ST_correctStop";"30";"1";"FINISHED";"NONE";"success";"0";"1";"2014-10-13 19:57:42.134";"3";;;;;;;;;;;;;;;;;;;;;;;;;;;;;;;;;
"squirrel2";;;"Windows 7";"Rachel's Experiment (D.T.)";"1.0";"2";"1";"1";"2";"1";"1";"2014-10-13 19:52:08.120";"2014-10-13 20:05:38.375";"1";"1";"1";"115";"114";"module.training_block3.exec-7822.GoNoGo3";;;;;;;;;;;;;;;;;;;;;;;;;;;;;;;;;;;;;;;;;;;;;;;"1251";"2014-10-13 19:57:45.924";"NST_correctLoc";"34";"0";"FINISHED";"LEFT";"success";"757";"0";"2014-10-13 19:57:44.669";"3";;;;;;;;;;;;;;;;;;;;;;;;;;;;;;;;;
"squirrel2";;;"Windows 7";"Rachel's Experiment (D.T.)";"1.0";"2";"1";"1";"2";"1";"1";"2014-10-13 19:52:08.120";"2014-10-13 20:05:38.375";"1";"1";"1";"116";"115";"module.training_block3.exec-7822.GoNoGo3";;;;;;;;;;;;;;;;;;;;;;;;;;;;;;;;;;;;;;;;;;;;;;;"1247";"2014-10-13 19:57:48.459";"ST_correctStop";"25";"1";"FINISHED";"NONE";"success";"0";"1";"2014-10-13 19:57:47.209";"3";;;;;;;;;;;;;;;;;;;;;;;;;;;;;;;;;
"squirrel2";;;"Windows 7";"Rachel's Experiment (D.T.)";"1.0";"2";"1";"1";"2";"1";"1";"2014-10-13 19:52:08.120";"2014-10-13 20:05:38.375";"1";"1";"1";"117";"116";"module.training_block3.exec-7822.GoNoGo3";;;;;;;;;;;;;;;;;;;;;;;;;;;;;;;;;;;;;;;;;;;;;;;"1247";"2014-10-13 19:57:50.999";"ST_correctStop";"22";"0";"FINISHED";"NONE";"success";"0";"1";"2014-10-13 19:57:49.749";"3";;;;;;;;;;;;;;;;;;;;;;;;;;;;;;;;;
"squirrel2";;;"Windows 7";"Rachel's Experiment (D.T.)";"1.0";"2";"1";"1";"2";"1";"1";"2014-10-13 19:52:08.120";"2014-10-13 20:05:38.375";"1";"1";"1";"118";"117";"module.training_block3.exec-7822.GoNoGo3";;;;;;;;;;;;;;;;;;;;;;;;;;;;;;;;;;;;;;;;;;;;;;;"1252";"2014-10-13 19:57:53.534";"ST_correctStop";"31";"1";"FINISHED";"NONE";"success";"0";"1";"2014-10-13 19:57:52.279";"3";;;;;;;;;;;;;;;;;;;;;;;;;;;;;;;;;
"squirrel2";;;"Windows 7";"Rachel's Experiment (D.T.)";"1.0";"2";"1";"1";"2";"1";"1";"2014-10-13 19:52:08.120";"2014-10-13 20:05:38.375";"1";"1";"1";"119";"118";"module.training_block3.exec-7822.GoNoGo3";;;;;;;;;;;;;;;;;;;;;;;;;;;;;;;;;;;;;;;;;;;;;;;"1246";"2014-10-13 19:57:56.107";"ST_correctStop";"24";"1";"FINISHED";"NONE";"success";"0";"1";"2014-10-13 19:57:54.857";"3";;;;;;;;;;;;;;;;;;;;;;;;;;;;;;;;;
"squirrel2";;;"Windows 7";"Rachel's Experiment (D.T.)";"1.0";"2";"1";"1";"2";"1";"1";"2014-10-13 19:52:08.120";"2014-10-13 20:05:38.375";"1";"1";"1";"120";"119";"module.training_block3.exec-7822.GoNoGo3";;;;;;;;;;;;;;;;;;;;;;;;;;;;;;;;;;;;;;;;;;;;;;;"1252";"2014-10-13 19:57:58.642";"ST_correctStop";"29";"0";"FINISHED";"NONE";"success";"0";"1";"2014-10-13 19:57:57.387";"3";;;;;;;;;;;;;;;;;;;;;;;;;;;;;;;;;
"squirrel2";;;"Windows 7";"Rachel's Experiment (D.T.)";"1.0";"2";"1";"1";"2";"1";"1";"2014-10-13 19:52:08.120";"2014-10-13 20:05:38.375";"1";"1";"1";"121";"120";"module.training_block3.exec-7822.GoNoGo3";;;;;;;;;;;;;;;;;;;;;;;;;;;;;;;;;;;;;;;;;;;;;;;"1249";"2014-10-13 19:58:01.174";"NST_correctLoc";"33";"1";"FINISHED";"RIGHT";"success";"724";"0";"2014-10-13 19:57:59.922";"3";;;;;;;;;;;;;;;;;;;;;;;;;;;;;;;;;
"squirrel2";;;"Windows 7";"Rachel's Experiment (D.T.)";"1.0";"2";"1";"1";"2";"1";"1";"2014-10-13 19:52:08.120";"2014-10-13 20:05:38.375";"1";"1";"1";"122";"121";"module.training_block3.exec-7822.GoNoGo3";;;;;;;;;;;;;;;;;;;;;;;;;;;;;;;;;;;;;;;;;;;;;;;"1246";"2014-10-13 19:58:03.711";"ST_correctStop";"7";"1";"FINISHED";"NONE";"success";"0";"1";"2014-10-13 19:58:02.461";"1";;;;;;;;;;;;;;;;;;;;;;;;;;;;;;;;;
"squirrel2";;;"Windows 7";"Rachel's Experiment (D.T.)";"1.0";"2";"1";"1";"2";"1";"1";"2014-10-13 19:52:08.120";"2014-10-13 20:05:38.375";"1";"1";"1";"123";"122";"module.training_block3.exec-7822.GoNoGo3";;;;;;;;;;;;;;;;;;;;;;;;;;;;;;;;;;;;;;;;;;;;;;;"1249";"2014-10-13 19:58:06.244";"NST_correctLoc";"9";"1";"FINISHED";"RIGHT";"success";"583";"0";"2014-10-13 19:58:04.991";"2";;;;;;;;;;;;;;;;;;;;;;;;;;;;;;;;;
"squirrel2";;;"Windows 7";"Rachel's Experiment (D.T.)";"1.0";"2";"1";"1";"2";"1";"1";"2014-10-13 19:52:08.120";"2014-10-13 20:05:38.375";"1";"1";"1";"124";"123";"module.training_block4.exec-5849.GoNoGo4";;;;;;;;;;;;;;;;;;;;;;;;;;;;;;;;;;;;;;;;;;;;;;;;;;;;;;;;;;;"1241";"2014-10-13 19:58:16.736";"NST_correctLoc";"22";"0";"FINISHED";"LEFT";"success";"458";"0";"2014-10-13 19:58:15.486";"3";;;;;;;;;;;;;;;;;;;;;
"squirrel2";;;"Windows 7";"Rachel's Experiment (D.T.)";"1.0";"2";"1";"1";"2";"1";"1";"2014-10-13 19:52:08.120";"2014-10-13 20:05:38.375";"1";"1";"1";"125";"124";"module.training_block4.exec-5849.GoNoGo4";;;;;;;;;;;;;;;;;;;;;;;;;;;;;;;;;;;;;;;;;;;;;;;;;;;;;;;;;;;"1249";"2014-10-13 19:58:19.274";"ST_correctStop";"20";"1";"FINISHED";"NONE";"success";"0";"1";"2014-10-13 19:58:18.021";"3";;;;;;;;;;;;;;;;;;;;;
"squirrel2";;;"Windows 7";"Rachel's Experiment (D.T.)";"1.0";"2";"1";"1";"2";"1";"1";"2014-10-13 19:52:08.120";"2014-10-13 20:05:38.375";"1";"1";"1";"126";"125";"module.training_block4.exec-5849.GoNoGo4";;;;;;;;;;;;;;;;;;;;;;;;;;;;;;;;;;;;;;;;;;;;;;;;;;;;;;;;;;;"1252";"2014-10-13 19:58:21.811";"ST_failedStop";"6";"0";"FINISHED";"LEFT";"failure";"335";"1";"2014-10-13 19:58:20.556";"1";;;;;;;;;;;;;;;;;;;;;
"squirrel2";;;"Windows 7";"Rachel's Experiment (D.T.)";"1.0";"2";"1";"1";"2";"1";"1";"2014-10-13 19:52:08.120";"2014-10-13 20:05:38.375";"1";"1";"1";"127";"126";"module.training_block4.exec-5849.GoNoGo4";;;;;;;;;;;;;;;;;;;;;;;;;;;;;;;;;;;;;;;;;;;;;;;;;;;;;;;;;;;"1247";"2014-10-13 19:58:24.346";"NST_correctLoc";"23";"0";"FINISHED";"LEFT";"success";"500";"0";"2014-10-13 19:58:23.096";"3";;;;;;;;;;;;;;;;;;;;;
"squirrel2";;;"Windows 7";"Rachel's Experiment (D.T.)";"1.0";"2";"1";"1";"2";"1";"1";"2014-10-13 19:52:08.120";"2014-10-13 20:05:38.375";"1";"1";"1";"128";"127";"module.training_block4.exec-5849.GoNoGo4";;;;;;;;;;;;;;;;;;;;;;;;;;;;;;;;;;;;;;;;;;;;;;;;;;;;;;;;;;;"1247";"2014-10-13 19:58:26.883";"ST_correctStop";"32";"0";"FINISHED";"NONE";"success";"0";"1";"2014-10-13 19:58:25.633";"3";;;;;;;;;;;;;;;;;;;;;
"squirrel2";;;"Windows 7";"Rachel's Experiment (D.T.)";"1.0";"2";"1";"1";"2";"1";"1";"2014-10-13 19:52:08.120";"2014-10-13 20:05:38.375";"1";"1";"1";"129";"128";"module.training_block4.exec-5849.GoNoGo4";;;;;;;;;;;;;;;;;;;;;;;;;;;;;;;;;;;;;;;;;;;;;;;;;;;;;;;;;;;"1249";"2014-10-13 19:58:29.416";"NST_correctLoc";"16";"1";"FINISHED";"RIGHT";"success";"423";"0";"2014-10-13 19:58:28.163";"2";;;;;;;;;;;;;;;;;;;;;
"squirrel2";;;"Windows 7";"Rachel's Experiment (D.T.)";"1.0";"2";"1";"1";"2";"1";"1";"2014-10-13 19:52:08.120";"2014-10-13 20:05:38.375";"1";"1";"1";"130";"129";"module.training_block4.exec-5849.GoNoGo4";;;;;;;;;;;;;;;;;;;;;;;;;;;;;;;;;;;;;;;;;;;;;;;;;;;;;;;;;;;"1252";"2014-10-13 19:58:31.960";"ST_correctStop";"0";"0";"FINISHED";"NONE";"success";"0";"1";"2014-10-13 19:58:30.705";"1";;;;;;;;;;;;;;;;;;;;;
"squirrel2";;;"Windows 7";"Rachel's Experiment (D.T.)";"1.0";"2";"1";"1";"2";"1";"1";"2014-10-13 19:52:08.120";"2014-10-13 20:05:38.375";"1";"1";"1";"131";"130";"module.training_block4.exec-5849.GoNoGo4";;;;;;;;;;;;;;;;;;;;;;;;;;;;;;;;;;;;;;;;;;;;;;;;;;;;;;;;;;;"1247";"2014-10-13 19:58:34.490";"ST_correctStop";"28";"1";"FINISHED";"NONE";"success";"0";"1";"2014-10-13 19:58:33.240";"3";;;;;;;;;;;;;;;;;;;;;
"squirrel2";;;"Windows 7";"Rachel's Experiment (D.T.)";"1.0";"2";"1";"1";"2";"1";"1";"2014-10-13 19:52:08.120";"2014-10-13 20:05:38.375";"1";"1";"1";"132";"131";"module.training_block4.exec-5849.GoNoGo4";;;;;;;;;;;;;;;;;;;;;;;;;;;;;;;;;;;;;;;;;;;;;;;;;;;;;;;;;;;"1247";"2014-10-13 19:58:37.020";"NST_correctLoc";"35";"0";"FINISHED";"LEFT";"success";"793";"0";"2014-10-13 19:58:35.770";"3";;;;;;;;;;;;;;;;;;;;;
"squirrel2";;;"Windows 7";"Rachel's Experiment (D.T.)";"1.0";"2";"1";"1";"2";"1";"1";"2014-10-13 19:52:08.120";"2014-10-13 20:05:38.375";"1";"1";"1";"133";"132";"module.training_block4.exec-5849.GoNoGo4";;;;;;;;;;;;;;;;;;;;;;;;;;;;;;;;;;;;;;;;;;;;;;;;;;;;;;;;;;;"1249";"2014-10-13 19:58:39.558";"NST_correctLoc";"31";"0";"FINISHED";"LEFT";"success";"451";"0";"2014-10-13 19:58:38.305";"3";;;;;;;;;;;;;;;;;;;;;
"squirrel2";;;"Windows 7";"Rachel's Experiment (D.T.)";"1.0";"2";"1";"1";"2";"1";"1";"2014-10-13 19:52:08.120";"2014-10-13 20:05:38.375";"1";"1";"1";"134";"133";"module.training_block4.exec-5849.GoNoGo4";;;;;;;;;;;;;;;;;;;;;;;;;;;;;;;;;;;;;;;;;;;;;;;;;;;;;;;;;;;"1247";"2014-10-13 19:58:42.093";"NST_correctLoc";"17";"0";"FINISHED";"LEFT";"success";"622";"0";"2014-10-13 19:58:40.843";"2";;;;;;;;;;;;;;;;;;;;;
"squirrel2";;;"Windows 7";"Rachel's Experiment (D.T.)";"1.0";"2";"1";"1";"2";"1";"1";"2014-10-13 19:52:08.120";"2014-10-13 20:05:38.375";"1";"1";"1";"135";"134";"module.training_block4.exec-5849.GoNoGo4";;;;;;;;;;;;;;;;;;;;;;;;;;;;;;;;;;;;;;;;;;;;;;;;;;;;;;;;;;;"1247";"2014-10-13 19:58:44.650";"ST_correctStop";"8";"0";"FINISHED";"NONE";"success";"0";"1";"2014-10-13 19:58:43.400";"1";;;;;;;;;;;;;;;;;;;;;
"squirrel2";;;"Windows 7";"Rachel's Experiment (D.T.)";"1.0";"2";"1";"1";"2";"1";"1";"2014-10-13 19:52:08.120";"2014-10-13 20:05:38.375";"1";"1";"1";"136";"135";"module.training_block4.exec-5849.GoNoGo4";;;;;;;;;;;;;;;;;;;;;;;;;;;;;;;;;;;;;;;;;;;;;;;;;;;;;;;;;;;"1246";"2014-10-13 19:58:47.187";"NST_correctLoc";"9";"1";"FINISHED";"RIGHT";"success";"632";"0";"2014-10-13 19:58:45.937";"2";;;;;;;;;;;;;;;;;;;;;
"squirrel2";;;"Windows 7";"Rachel's Experiment (D.T.)";"1.0";"2";"1";"1";"2";"1";"1";"2014-10-13 19:52:08.120";"2014-10-13 20:05:38.375";"1";"1";"1";"137";"136";"module.training_block4.exec-5849.GoNoGo4";;;;;;;;;;;;;;;;;;;;;;;;;;;;;;;;;;;;;;;;;;;;;;;;;;;;;;;;;;;"1247";"2014-10-13 19:58:49.717";"ST_correctStop";"25";"0";"FINISHED";"NONE";"success";"0";"1";"2014-10-13 19:58:48.467";"3";;;;;;;;;;;;;;;;;;;;;
"squirrel2";;;"Windows 7";"Rachel's Experiment (D.T.)";"1.0";"2";"1";"1";"2";"1";"1";"2014-10-13 19:52:08.120";"2014-10-13 20:05:38.375";"1";"1";"1";"138";"137";"module.training_block4.exec-5849.GoNoGo4";;;;;;;;;;;;;;;;;;;;;;;;;;;;;;;;;;;;;;;;;;;;;;;;;;;;;;;;;;;"1247";"2014-10-13 19:58:52.259";"ST_correctStop";"4";"0";"FINISHED";"NONE";"success";"0";"1";"2014-10-13 19:58:51.009";"1";;;;;;;;;;;;;;;;;;;;;
"squirrel2";;;"Windows 7";"Rachel's Experiment (D.T.)";"1.0";"2";"1";"1";"2";"1";"1";"2014-10-13 19:52:08.120";"2014-10-13 20:05:38.375";"1";"1";"1";"139";"138";"module.training_block4.exec-5849.GoNoGo4";;;;;;;;;;;;;;;;;;;;;;;;;;;;;;;;;;;;;;;;;;;;;;;;;;;;;;;;;;;"1247";"2014-10-13 19:58:54.789";"NST_correctLoc";"27";"0";"FINISHED";"LEFT";"success";"409";"0";"2014-10-13 19:58:53.539";"3";;;;;;;;;;;;;;;;;;;;;
"squirrel2";;;"Windows 7";"Rachel's Experiment (D.T.)";"1.0";"2";"1";"1";"2";"1";"1";"2014-10-13 19:52:08.120";"2014-10-13 20:05:38.375";"1";"1";"1";"140";"139";"module.training_block4.exec-5849.GoNoGo4";;;;;;;;;;;;;;;;;;;;;;;;;;;;;;;;;;;;;;;;;;;;;;;;;;;;;;;;;;;"1247";"2014-10-13 19:58:57.324";"NST_correctLoc";"11";"0";"FINISHED";"LEFT";"success";"478";"0";"2014-10-13 19:58:56.074";"2";;;;;;;;;;;;;;;;;;;;;
"squirrel2";;;"Windows 7";"Rachel's Experiment (D.T.)";"1.0";"2";"1";"1";"2";"1";"1";"2014-10-13 19:52:08.120";"2014-10-13 20:05:38.375";"1";"1";"1";"141";"140";"module.training_block4.exec-5849.GoNoGo4";;;;;;;;;;;;;;;;;;;;;;;;;;;;;;;;;;;;;;;;;;;;;;;;;;;;;;;;;;;"1247";"2014-10-13 19:58:59.854";"ST_correctStop";"2";"0";"FINISHED";"NONE";"success";"0";"1";"2014-10-13 19:58:58.604";"1";;;;;;;;;;;;;;;;;;;;;
"squirrel2";;;"Windows 7";"Rachel's Experiment (D.T.)";"1.0";"2";"1";"1";"2";"1";"1";"2014-10-13 19:52:08.120";"2014-10-13 20:05:38.375";"1";"1";"1";"142";"141";"module.training_block4.exec-5849.GoNoGo4";;;;;;;;;;;;;;;;;;;;;;;;;;;;;;;;;;;;;;;;;;;;;;;;;;;;;;;;;;;"1252";"2014-10-13 19:59:02.389";"ST_correctStop";"18";"1";"FINISHED";"NONE";"success";"0";"1";"2014-10-13 19:59:01.134";"3";;;;;;;;;;;;;;;;;;;;;
"squirrel2";;;"Windows 7";"Rachel's Experiment (D.T.)";"1.0";"2";"1";"1";"2";"1";"1";"2014-10-13 19:52:08.120";"2014-10-13 20:05:38.375";"1";"1";"1";"143";"142";"module.training_block4.exec-5849.GoNoGo4";;;;;;;;;;;;;;;;;;;;;;;;;;;;;;;;;;;;;;;;;;;;;;;;;;;;;;;;;;;"1247";"2014-10-13 19:59:04.919";"NST_correctLoc";"14";"0";"FINISHED";"LEFT";"success";"462";"0";"2014-10-13 19:59:03.669";"2";;;;;;;;;;;;;;;;;;;;;
"squirrel2";;;"Windows 7";"Rachel's Experiment (D.T.)";"1.0";"2";"1";"1";"2";"1";"1";"2014-10-13 19:52:08.120";"2014-10-13 20:05:38.375";"1";"1";"1";"144";"143";"module.training_block4.exec-5849.GoNoGo4";;;;;;;;;;;;;;;;;;;;;;;;;;;;;;;;;;;;;;;;;;;;;;;;;;;;;;;;;;;"1252";"2014-10-13 19:59:07.461";"ST_correctStop";"5";"0";"FINISHED";"NONE";"success";"0";"1";"2014-10-13 19:59:06.206";"1";;;;;;;;;;;;;;;;;;;;;
"squirrel2";;;"Windows 7";"Rachel's Experiment (D.T.)";"1.0";"2";"1";"1";"2";"1";"1";"2014-10-13 19:52:08.120";"2014-10-13 20:05:38.375";"1";"1";"1";"145";"144";"module.training_block4.exec-5849.GoNoGo4";;;;;;;;;;;;;;;;;;;;;;;;;;;;;;;;;;;;;;;;;;;;;;;;;;;;;;;;;;;"1247";"2014-10-13 19:59:10.003";"NST_correctLoc";"12";"0";"FINISHED";"LEFT";"success";"588";"0";"2014-10-13 19:59:08.753";"2";;;;;;;;;;;;;;;;;;;;;
"squirrel2";;;"Windows 7";"Rachel's Experiment (D.T.)";"1.0";"2";"1";"1";"2";"1";"1";"2014-10-13 19:52:08.120";"2014-10-13 20:05:38.375";"1";"1";"1";"146";"145";"module.training_block4.exec-5849.GoNoGo4";;;;;;;;;;;;;;;;;;;;;;;;;;;;;;;;;;;;;;;;;;;;;;;;;;;;;;;;;;;"1247";"2014-10-13 19:59:12.543";"ST_correctStop";"21";"1";"FINISHED";"NONE";"success";"0";"1";"2014-10-13 19:59:11.293";"3";;;;;;;;;;;;;;;;;;;;;
"squirrel2";;;"Windows 7";"Rachel's Experiment (D.T.)";"1.0";"2";"1";"1";"2";"1";"1";"2014-10-13 19:52:08.120";"2014-10-13 20:05:38.375";"1";"1";"1";"147";"146";"module.training_block4.exec-5849.GoNoGo4";;;;;;;;;;;;;;;;;;;;;;;;;;;;;;;;;;;;;;;;;;;;;;;;;;;;;;;;;;;"1247";"2014-10-13 19:59:15.113";"NST_correctLoc";"24";"1";"FINISHED";"RIGHT";"success";"455";"0";"2014-10-13 19:59:13.863";"3";;;;;;;;;;;;;;;;;;;;;
"squirrel2";;;"Windows 7";"Rachel's Experiment (D.T.)";"1.0";"2";"1";"1";"2";"1";"1";"2014-10-13 19:52:08.120";"2014-10-13 20:05:38.375";"1";"1";"1";"148";"147";"module.training_block4.exec-5849.GoNoGo4";;;;;;;;;;;;;;;;;;;;;;;;;;;;;;;;;;;;;;;;;;;;;;;;;;;;;;;;;;;"1246";"2014-10-13 19:59:17.633";"ST_correctStop";"33";"1";"FINISHED";"NONE";"success";"0";"1";"2014-10-13 19:59:16.383";"3";;;;;;;;;;;;;;;;;;;;;
"squirrel2";;;"Windows 7";"Rachel's Experiment (D.T.)";"1.0";"2";"1";"1";"2";"1";"1";"2014-10-13 19:52:08.120";"2014-10-13 20:05:38.375";"1";"1";"1";"149";"148";"module.training_block4.exec-5849.GoNoGo4";;;;;;;;;;;;;;;;;;;;;;;;;;;;;;;;;;;;;;;;;;;;;;;;;;;;;;;;;;;"1247";"2014-10-13 19:59:20.156";"ST_correctStop";"1";"0";"FINISHED";"NONE";"success";"0";"1";"2014-10-13 19:59:18.906";"1";;;;;;;;;;;;;;;;;;;;;
"squirrel2";;;"Windows 7";"Rachel's Experiment (D.T.)";"1.0";"2";"1";"1";"2";"1";"1";"2014-10-13 19:52:08.120";"2014-10-13 20:05:38.375";"1";"1";"1";"150";"149";"module.training_block4.exec-5849.GoNoGo4";;;;;;;;;;;;;;;;;;;;;;;;;;;;;;;;;;;;;;;;;;;;;;;;;;;;;;;;;;;"1247";"2014-10-13 19:59:22.691";"NST_correctLoc";"29";"1";"FINISHED";"RIGHT";"success";"549";"0";"2014-10-13 19:59:21.441";"3";;;;;;;;;;;;;;;;;;;;;
"squirrel2";;;"Windows 7";"Rachel's Experiment (D.T.)";"1.0";"2";"1";"1";"2";"1";"1";"2014-10-13 19:52:08.120";"2014-10-13 20:05:38.375";"1";"1";"1";"151";"150";"module.training_block4.exec-5849.GoNoGo4";;;;;;;;;;;;;;;;;;;;;;;;;;;;;;;;;;;;;;;;;;;;;;;;;;;;;;;;;;;"1247";"2014-10-13 19:59:25.233";"ST_correctStop";"7";"0";"FINISHED";"NONE";"success";"0";"1";"2014-10-13 19:59:23.983";"1";;;;;;;;;;;;;;;;;;;;;
"squirrel2";;;"Windows 7";"Rachel's Experiment (D.T.)";"1.0";"2";"1";"1";"2";"1";"1";"2014-10-13 19:52:08.120";"2014-10-13 20:05:38.375";"1";"1";"1";"152";"151";"module.training_block4.exec-5849.GoNoGo4";;;;;;;;;;;;;;;;;;;;;;;;;;;;;;;;;;;;;;;;;;;;;;;;;;;;;;;;;;;"1252";"2014-10-13 19:59:27.768";"ST_correctStop";"19";"0";"FINISHED";"NONE";"success";"0";"1";"2014-10-13 19:59:26.513";"3";;;;;;;;;;;;;;;;;;;;;
"squirrel2";;;"Windows 7";"Rachel's Experiment (D.T.)";"1.0";"2";"1";"1";"2";"1";"1";"2014-10-13 19:52:08.120";"2014-10-13 20:05:38.375";"1";"1";"1";"153";"152";"module.training_block4.exec-5849.GoNoGo4";;;;;;;;;;;;;;;;;;;;;;;;;;;;;;;;;;;;;;;;;;;;;;;;;;;;;;;;;;;"1252";"2014-10-13 19:59:30.293";"NST_correctLoc";"13";"0";"FINISHED";"LEFT";"success";"428";"0";"2014-10-13 19:59:29.038";"2";;;;;;;;;;;;;;;;;;;;;
"squirrel2";;;"Windows 7";"Rachel's Experiment (D.T.)";"1.0";"2";"1";"1";"2";"1";"1";"2014-10-13 19:52:08.120";"2014-10-13 20:05:38.375";"1";"1";"1";"154";"153";"module.training_block4.exec-5849.GoNoGo4";;;;;;;;;;;;;;;;;;;;;;;;;;;;;;;;;;;;;;;;;;;;;;;;;;;;;;;;;;;"1247";"2014-10-13 19:59:32.823";"NST_correctLoc";"30";"0";"FINISHED";"LEFT";"success";"441";"0";"2014-10-13 19:59:31.573";"3";;;;;;;;;;;;;;;;;;;;;
"squirrel2";;;"Windows 7";"Rachel's Experiment (D.T.)";"1.0";"2";"1";"1";"2";"1";"1";"2014-10-13 19:52:08.120";"2014-10-13 20:05:38.375";"1";"1";"1";"155";"154";"module.training_block4.exec-5849.GoNoGo4";;;;;;;;;;;;;;;;;;;;;;;;;;;;;;;;;;;;;;;;;;;;;;;;;;;;;;;;;;;"1252";"2014-10-13 19:59:35.348";"NST_correctLoc";"10";"1";"FINISHED";"RIGHT";"success";"370";"0";"2014-10-13 19:59:34.093";"2";;;;;;;;;;;;;;;;;;;;;
"squirrel2";;;"Windows 7";"Rachel's Experiment (D.T.)";"1.0";"2";"1";"1";"2";"1";"1";"2014-10-13 19:52:08.120";"2014-10-13 20:05:38.375";"1";"1";"1";"156";"155";"module.training_block4.exec-5849.GoNoGo4";;;;;;;;;;;;;;;;;;;;;;;;;;;;;;;;;;;;;;;;;;;;;;;;;;;;;;;;;;;"1247";"2014-10-13 19:59:37.881";"NST_correctLoc";"15";"1";"FINISHED";"RIGHT";"success";"322";"0";"2014-10-13 19:59:36.631";"2";;;;;;;;;;;;;;;;;;;;;
"squirrel2";;;"Windows 7";"Rachel's Experiment (D.T.)";"1.0";"2";"1";"1";"2";"1";"1";"2014-10-13 19:52:08.120";"2014-10-13 20:05:38.375";"1";"1";"1";"157";"156";"module.training_block4.exec-5849.GoNoGo4";;;;;;;;;;;;;;;;;;;;;;;;;;;;;;;;;;;;;;;;;;;;;;;;;;;;;;;;;;;"1247";"2014-10-13 19:59:40.403";"NST_correctLoc";"26";"1";"FINISHED";"RIGHT";"success";"456";"0";"2014-10-13 19:59:39.153";"3";;;;;;;;;;;;;;;;;;;;;
"squirrel2";;;"Windows 7";"Rachel's Experiment (D.T.)";"1.0";"2";"1";"1";"2";"1";"1";"2014-10-13 19:52:08.120";"2014-10-13 20:05:38.375";"1";"1";"1";"158";"157";"module.training_block4.exec-5849.GoNoGo4";;;;;;;;;;;;;;;;;;;;;;;;;;;;;;;;;;;;;;;;;;;;;;;;;;;;;;;;;;;"1247";"2014-10-13 19:59:42.930";"ST_correctStop";"3";"1";"FINISHED";"NONE";"success";"0";"1";"2014-10-13 19:59:41.680";"1";;;;;;;;;;;;;;;;;;;;;
"squirrel2";;;"Windows 7";"Rachel's Experiment (D.T.)";"1.0";"2";"1";"1";"2";"1";"1";"2014-10-13 19:52:08.120";"2014-10-13 20:05:38.375";"1";"1";"1";"159";"158";"module.training_block4.exec-5849.GoNoGo4";;;;;;;;;;;;;;;;;;;;;;;;;;;;;;;;;;;;;;;;;;;;;;;;;;;;;;;;;;;"1252";"2014-10-13 19:59:45.460";"ST_failedStop";"34";"1";"FINISHED";"RIGHT";"failure";"411";"1";"2014-10-13 19:59:44.205";"3";;;;;;;;;;;;;;;;;;;;;
"squirrel2";;;"Windows 7";"Rachel's Experiment (D.T.)";"1.0";"2";"1";"1";"2";"1";"1";"2014-10-13 19:52:08.120";"2014-10-13 20:05:38.375";"1";"1";"1";"160";"159";"module.devaluation_practice.exec-8789.devalPractice";;;;;;;;;;;;"17022";"2014-10-13 20:00:21.755";"0";"5";"2";"3";"4211";"5451";"4314";"2014-10-13 20:00:04.738";;;;;;;;;;;;;;;;;;;;;;;;;;;;;;;;;;;;;;;;;;;;;;;;;;;;;;;;;;;;;;;;;;;;;;
"squirrel2";;;"Windows 7";"Rachel's Experiment (D.T.)";"1.0";"2";"1";"1";"2";"1";"1";"2014-10-13 19:52:08.120";"2014-10-13 20:05:38.375";"1";"1";"1";"161";"160";"module.devaluation_practice.exec-8789.devalPractice";;;;;;;;;;;;"20098";"2014-10-13 20:00:41.898";"1";"6";"2";"4";"6814";"2803";"7475";"2014-10-13 20:00:21.795";;;;;;;;;;;;;;;;;;;;;;;;;;;;;;;;;;;;;;;;;;;;;;;;;;;;;;;;;;;;;;;;;;;;;;
"squirrel2";;;"Windows 7";"Rachel's Experiment (D.T.)";"1.0";"2";"1";"1";"2";"1";"1";"2014-10-13 19:52:08.120";"2014-10-13 20:05:38.375";"1";"1";"1";"162";"161";"module.devaluation_practice.exec-8789.devalPractice";;;;;;;;;;;;"10178";"2014-10-13 20:00:52.110";"2";"3";"1";"6";"1791";"2739";"2640";"2014-10-13 20:00:41.938";;;;;;;;;;;;;;;;;;;;;;;;;;;;;;;;;;;;;;;;;;;;;;;;;;;;;;;;;;;;;;;;;;;;;;
"squirrel2";;;"Windows 7";"Rachel's Experiment (D.T.)";"1.0";"2";"1";"1";"2";"1";"1";"2014-10-13 19:52:08.120";"2014-10-13 20:05:38.375";"1";"1";"1";"163";"162";"module.devaluation_practice.exec-8789.devalPractice";;;;;;;;;;;;"13082";"2014-10-13 20:01:05.232";"3";"2";"2";"7";"4985";"2547";"2548";"2014-10-13 20:00:52.150";;;;;;;;;;;;;;;;;;;;;;;;;;;;;;;;;;;;;;;;;;;;;;;;;;;;;;;;;;;;;;;;;;;;;;
"squirrel2";;;"Windows 7";"Rachel's Experiment (D.T.)";"1.0";"2";"1";"1";"2";"1";"1";"2014-10-13 19:52:08.120";"2014-10-13 20:05:38.375";"1";"1";"1";"164";"163";"module.devaluation_block1.exec-9130.deval1";"11527";"2014-10-13 20:01:20.323";"3";"2";"5";"7";"2734";"2599";"3178";"2014-10-13 20:01:08.802";"1";;;;;;;;;;;;;;;;;;;;;;;;;;;;;;;;;;;;;;;;;;;;;;;;;;;;;;;;;;;;;;;;;;;;;;;;;;;;;;;;
"squirrel2";;;"Windows 7";"Rachel's Experiment (D.T.)";"1.0";"2";"1";"1";"2";"1";"1";"2014-10-13 19:52:08.120";"2014-10-13 20:05:38.375";"1";"1";"1";"165";"164";"module.devaluation_block1.exec-9130.deval1";"13856";"2014-10-13 20:01:34.221";"5";"3";"6";"7";"5922";"3601";"1325";"2014-10-13 20:01:20.363";"1";;;;;;;;;;;;;;;;;;;;;;;;;;;;;;;;;;;;;;;;;;;;;;;;;;;;;;;;;;;;;;;;;;;;;;;;;;;;;;;;
"squirrel2";;;"Windows 7";"Rachel's Experiment (D.T.)";"1.0";"2";"1";"1";"2";"1";"1";"2014-10-13 19:52:08.120";"2014-10-13 20:05:38.375";"1";"1";"1";"166";"165";"module.devaluation_block1.exec-9130.deval1";"8375";"2014-10-13 20:01:42.634";"13";"4";"6";"6";"2032";"1657";"1679";"2014-10-13 20:01:34.261";"2";;;;;;;;;;;;;;;;;;;;;;;;;;;;;;;;;;;;;;;;;;;;;;;;;;;;;;;;;;;;;;;;;;;;;;;;;;;;;;;;
"squirrel2";;;"Windows 7";"Rachel's Experiment (D.T.)";"1.0";"2";"1";"1";"2";"1";"1";"2014-10-13 19:52:08.120";"2014-10-13 20:05:38.375";"1";"1";"1";"167";"166";"module.devaluation_block1.exec-9130.deval1";"14774";"2014-10-13 20:01:57.459";"10";"4";"1";"3";"4366";"1976";"5424";"2014-10-13 20:01:42.684";"2";;;;;;;;;;;;;;;;;;;;;;;;;;;;;;;;;;;;;;;;;;;;;;;;;;;;;;;;;;;;;;;;;;;;;;;;;;;;;;;;
"squirrel2";;;"Windows 7";"Rachel's Experiment (D.T.)";"1.0";"2";"1";"1";"2";"1";"1";"2014-10-13 19:52:08.120";"2014-10-13 20:05:38.375";"1";"1";"1";"168";"167";"module.devaluation_block1.exec-9130.deval1";"10551";"2014-10-13 20:02:08.042";"9";"3";"1";"3";"2029";"1639";"3882";"2014-10-13 20:01:57.499";"2";;;;;;;;;;;;;;;;;;;;;;;;;;;;;;;;;;;;;;;;;;;;;;;;;;;;;;;;;;;;;;;;;;;;;;;;;;;;;;;;
"squirrel2";;;"Windows 7";"Rachel's Experiment (D.T.)";"1.0";"2";"1";"1";"2";"1";"1";"2014-10-13 19:52:08.120";"2014-10-13 20:05:38.375";"1";"1";"1";"169";"168";"module.devaluation_block1.exec-9130.deval1";"9056";"2014-10-13 20:02:17.137";"4";"4";"2";"7";"2865";"2289";"895";"2014-10-13 20:02:08.082";"1";;;;;;;;;;;;;;;;;;;;;;;;;;;;;;;;;;;;;;;;;;;;;;;;;;;;;;;;;;;;;;;;;;;;;;;;;;;;;;;;
"squirrel2";;;"Windows 7";"Rachel's Experiment (D.T.)";"1.0";"2";"1";"1";"2";"1";"1";"2014-10-13 19:52:08.120";"2014-10-13 20:05:38.375";"1";"1";"1";"170";"169";"module.devaluation_block1.exec-9130.deval1";"8427";"2014-10-13 20:02:25.599";"6";"2";"2";"5";"1277";"1771";"2362";"2014-10-13 20:02:17.177";"1";;;;;;;;;;;;;;;;;;;;;;;;;;;;;;;;;;;;;;;;;;;;;;;;;;;;;;;;;;;;;;;;;;;;;;;;;;;;;;;;
"squirrel2";;;"Windows 7";"Rachel's Experiment (D.T.)";"1.0";"2";"1";"1";"2";"1";"1";"2014-10-13 19:52:08.120";"2014-10-13 20:05:38.375";"1";"1";"1";"171";"170";"module.devaluation_block1.exec-9130.deval1";"7580";"2014-10-13 20:02:33.219";"16";"1";"1";"1";"1526";"1327";"1715";"2014-10-13 20:02:25.639";"2";;;;;;;;;;;;;;;;;;;;;;;;;;;;;;;;;;;;;;;;;;;;;;;;;;;;;;;;;;;;;;;;;;;;;;;;;;;;;;;;
"squirrel2";;;"Windows 7";"Rachel's Experiment (D.T.)";"1.0";"2";"1";"1";"2";"1";"1";"2014-10-13 19:52:08.120";"2014-10-13 20:05:38.375";"1";"1";"1";"172";"171";"module.devaluation_block1.exec-9130.deval1";"8860";"2014-10-13 20:02:42.122";"0";"2";"2";"4";"2041";"2121";"1694";"2014-10-13 20:02:33.259";"1";;;;;;;;;;;;;;;;;;;;;;;;;;;;;;;;;;;;;;;;;;;;;;;;;;;;;;;;;;;;;;;;;;;;;;;;;;;;;;;;
"squirrel2";;;"Windows 7";"Rachel's Experiment (D.T.)";"1.0";"2";"1";"1";"2";"1";"1";"2014-10-13 19:52:08.120";"2014-10-13 20:05:38.375";"1";"1";"1";"173";"172";"module.devaluation_block1.exec-9130.deval1";"10618";"2014-10-13 20:02:52.773";"25";"4";"3";"5";"2306";"2658";"2421";"2014-10-13 20:02:42.162";"3";;;;;;;;;;;;;;;;;;;;;;;;;;;;;;;;;;;;;;;;;;;;;;;;;;;;;;;;;;;;;;;;;;;;;;;;;;;;;;;;
"squirrel2";;;"Windows 7";"Rachel's Experiment (D.T.)";"1.0";"2";"1";"1";"2";"1";"1";"2014-10-13 19:52:08.120";"2014-10-13 20:05:38.375";"1";"1";"1";"174";"173";"module.devaluation_block1.exec-9130.deval1";"8146";"2014-10-13 20:03:00.953";"14";"5";"2";"5";"642";"2732";"1762";"2014-10-13 20:02:52.813";"2";;;;;;;;;;;;;;;;;;;;;;;;;;;;;;;;;;;;;;;;;;;;;;;;;;;;;;;;;;;;;;;;;;;;;;;;;;;;;;;;
"squirrel2";;;"Windows 7";"Rachel's Experiment (D.T.)";"1.0";"2";"1";"1";"2";"1";"1";"2014-10-13 19:52:08.120";"2014-10-13 20:05:38.375";"1";"1";"1";"175";"174";"module.devaluation_block1.exec-9130.deval1";"7938";"2014-10-13 20:03:08.926";"24";"4";"2";"7";"2178";"1823";"927";"2014-10-13 20:03:00.993";"3";;;;;;;;;;;;;;;;;;;;;;;;;;;;;;;;;;;;;;;;;;;;;;;;;;;;;;;;;;;;;;;;;;;;;;;;;;;;;;;;
"squirrel2";;;"Windows 7";"Rachel's Experiment (D.T.)";"1.0";"2";"1";"1";"2";"1";"1";"2014-10-13 19:52:08.120";"2014-10-13 20:05:38.375";"1";"1";"1";"176";"175";"module.devaluation_block1.exec-9130.deval1";"11599";"2014-10-13 20:03:20.573";"19";"5";"2";"8";"5386";"2051";"1160";"2014-10-13 20:03:08.976";"3";;;;;;;;;;;;;;;;;;;;;;;;;;;;;;;;;;;;;;;;;;;;;;;;;;;;;;;;;;;;;;;;;;;;;;;;;;;;;;;;
"squirrel2";;;"Windows 7";"Rachel's Experiment (D.T.)";"1.0";"2";"1";"1";"2";"1";"1";"2014-10-13 19:52:08.120";"2014-10-13 20:05:38.375";"1";"1";"1";"177";"176";"module.devaluation_block1.exec-9130.deval1";"6924";"2014-10-13 20:03:27.533";"11";"4";"1";"1";"916";"1615";"1382";"2014-10-13 20:03:20.613";"2";;;;;;;;;;;;;;;;;;;;;;;;;;;;;;;;;;;;;;;;;;;;;;;;;;;;;;;;;;;;;;;;;;;;;;;;;;;;;;;;
"squirrel2";;;"Windows 7";"Rachel's Experiment (D.T.)";"1.0";"2";"1";"1";"2";"1";"1";"2014-10-13 19:52:08.120";"2014-10-13 20:05:38.375";"1";"1";"1";"178";"177";"module.devaluation_block1.exec-9130.deval1";"10557";"2014-10-13 20:03:38.126";"15";"1";"2";"1";"4632";"1715";"1207";"2014-10-13 20:03:27.573";"2";;;;;;;;;;;;;;;;;;;;;;;;;;;;;;;;;;;;;;;;;;;;;;;;;;;;;;;;;;;;;;;;;;;;;;;;;;;;;;;;
"squirrel2";;;"Windows 7";"Rachel's Experiment (D.T.)";"1.0";"2";"1";"1";"2";"1";"1";"2014-10-13 19:52:08.120";"2014-10-13 20:05:38.375";"1";"1";"1";"179";"178";"module.devaluation_block1.exec-9130.deval1";"8180";"2014-10-13 20:03:46.346";"18";"4";"2";"7";"1674";"2349";"1149";"2014-10-13 20:03:38.166";"3";;;;;;;;;;;;;;;;;;;;;;;;;;;;;;;;;;;;;;;;;;;;;;;;;;;;;;;;;;;;;;;;;;;;;;;;;;;;;;;;
"squirrel2";;;"Windows 7";"Rachel's Experiment (D.T.)";"1.0";"2";"1";"1";"2";"1";"1";"2014-10-13 19:52:08.120";"2014-10-13 20:05:38.375";"1";"1";"1";"180";"179";"module.devaluation_block1.exec-9130.deval1";"8880";"2014-10-13 20:03:55.254";"22";"5";"2";"6";"2130";"2916";"821";"2014-10-13 20:03:46.376";"3";;;;;;;;;;;;;;;;;;;;;;;;;;;;;;;;;;;;;;;;;;;;;;;;;;;;;;;;;;;;;;;;;;;;;;;;;;;;;;;;
"squirrel2";;;"Windows 7";"Rachel's Experiment (D.T.)";"1.0";"2";"1";"1";"2";"1";"1";"2014-10-13 19:52:08.120";"2014-10-13 20:05:38.375";"1";"1";"1";"181";"180";"module.devaluation_block1.exec-9130.deval1";"14625";"2014-10-13 20:04:09.916";"23";"7";"4";"8";"4249";"3331";"4040";"2014-10-13 20:03:55.294";"3";;;;;;;;;;;;;;;;;;;;;;;;;;;;;;;;;;;;;;;;;;;;;;;;;;;;;;;;;;;;;;;;;;;;;;;;;;;;;;;;
"squirrel2";;;"Windows 7";"Rachel's Experiment (D.T.)";"1.0";"2";"1";"1";"2";"1";"1";"2014-10-13 19:52:08.120";"2014-10-13 20:05:38.375";"1";"1";"1";"182";"181";"module.devaluation_block1.exec-9130.deval1";"6606";"2014-10-13 20:04:16.564";"2";"2";"1";"4";"1087";"1728";"781";"2014-10-13 20:04:09.956";"1";;;;;;;;;;;;;;;;;;;;;;;;;;;;;;;;;;;;;;;;;;;;;;;;;;;;;;;;;;;;;;;;;;;;;;;;;;;;;;;;
"squirrel2";;;"Windows 7";"Rachel's Experiment (D.T.)";"1.0";"2";"1";"1";"2";"1";"1";"2014-10-13 19:52:08.120";"2014-10-13 20:05:38.375";"1";"1";"1";"183";"182";"module.devaluation_block1.exec-9130.deval1";"8766";"2014-10-13 20:04:25.364";"1";"2";"1";"4";"2040";"1461";"2268";"2014-10-13 20:04:16.594";"1";;;;;;;;;;;;;;;;;;;;;;;;;;;;;;;;;;;;;;;;;;;;;;;;;;;;;;;;;;;;;;;;;;;;;;;;;;;;;;;;
"squirrel2";;;"Windows 7";"Rachel's Experiment (D.T.)";"1.0";"2";"1";"1";"2";"1";"1";"2014-10-13 19:52:08.120";"2014-10-13 20:05:38.375";"1";"1";"1";"184";"183";"module.devaluation_block1.exec-9130.deval1";"5976";"2014-10-13 20:04:31.376";"12";"4";"4";"6";"749";"1441";"784";"2014-10-13 20:04:25.394";"2";;;;;;;;;;;;;;;;;;;;;;;;;;;;;;;;;;;;;;;;;;;;;;;;;;;;;;;;;;;;;;;;;;;;;;;;;;;;;;;;
"squirrel2";;;"Windows 7";"Rachel's Experiment (D.T.)";"1.0";"2";"1";"1";"2";"1";"1";"2014-10-13 19:52:08.120";"2014-10-13 20:05:38.375";"1";"1";"1";"185";"184";"module.devaluation_block1.exec-9130.deval1";"13018";"2014-10-13 20:04:44.422";"21";"5";"1";"6";"5202";"1412";"3396";"2014-10-13 20:04:31.406";"3";;;;;;;;;;;;;;;;;;;;;;;;;;;;;;;;;;;;;;;;;;;;;;;;;;;;;;;;;;;;;;;;;;;;;;;;;;;;;;;;
"squirrel2";;;"Windows 7";"Rachel's Experiment (D.T.)";"1.0";"2";"1";"1";"2";"1";"1";"2014-10-13 19:52:08.120";"2014-10-13 20:05:38.375";"1";"1";"1";"186";"185";"module.devaluation_block1.exec-9130.deval1";"8880";"2014-10-13 20:04:53.343";"26";"9";"7";"8";"2296";"1468";"2109";"2014-10-13 20:04:44.462";"3";;;;;;;;;;;;;;;;;;;;;;;;;;;;;;;;;;;;;;;;;;;;;;;;;;;;;;;;;;;;;;;;;;;;;;;;;;;;;;;;
"squirrel2";;;"Windows 7";"Rachel's Experiment (D.T.)";"1.0";"2";"1";"1";"2";"1";"1";"2014-10-13 19:52:08.120";"2014-10-13 20:05:38.375";"1";"1";"1";"187";"186";"module.devaluation_block1.exec-9130.deval1";"10700";"2014-10-13 20:05:04.075";"8";"2";"3";"3";"1893";"2522";"3278";"2014-10-13 20:04:53.373";"1";;;;;;;;;;;;;;;;;;;;;;;;;;;;;;;;;;;;;;;;;;;;;;;;;;;;;;;;;;;;;;;;;;;;;;;;;;;;;;;;
"squirrel2";;;"Windows 7";"Rachel's Experiment (D.T.)";"1.0";"2";"1";"1";"2";"1";"1";"2014-10-13 19:52:08.120";"2014-10-13 20:05:38.375";"1";"1";"1";"188";"187";"module.devaluation_block1.exec-9130.deval1";"7286";"2014-10-13 20:05:11.388";"17";"1";"1";"1";"1579";"1248";"1450";"2014-10-13 20:05:04.105";"2";;;;;;;;;;;;;;;;;;;;;;;;;;;;;;;;;;;;;;;;;;;;;;;;;;;;;;;;;;;;;;;;;;;;;;;;;;;;;;;;
"squirrel2";;;"Windows 7";"Rachel's Experiment (D.T.)";"1.0";"2";"1";"1";"2";"1";"1";"2014-10-13 19:52:08.120";"2014-10-13 20:05:38.375";"1";"1";"1";"189";"188";"module.devaluation_block1.exec-9130.deval1";"8809";"2014-10-13 20:05:20.235";"20";"2";"1";"3";"2472";"1889";"1427";"2014-10-13 20:05:11.428";"3";;;;;;;;;;;;;;;;;;;;;;;;;;;;;;;;;;;;;;;;;;;;;;;;;;;;;;;;;;;;;;;;;;;;;;;;;;;;;;;;
"squirrel2";;;"Windows 7";"Rachel's Experiment (D.T.)";"1.0";"2";"1";"1";"2";"1";"1";"2014-10-13 19:52:08.120";"2014-10-13 20:05:38.375";"1";"1";"1";"190";"189";"module.devaluation_block1.exec-9130.deval1";"16534";"2014-10-13 20:05:36.795";"7";"2";"1";"2";"9646";"1407";"2482";"2014-10-13 20:05:20.255";"1";;;;;;;;;;;;;;;;;;;;;;;;;;;;;;;;;;;;;;;;;;;;;;;;;;;;;;;;;;;;;;;;;;;;;;;;;;;;;;;;
