"user.name";"user.yearOfBirth";"user.sex";"user.osName";"module.name";"module.version";"module.online.subject.code";"module.online.study.id";"module.online.module.nr";"module.online.group.nr";"session.id";"session.index";"session.startTime";"session.endTime";"session.completed";"session.node-5793.conditionType";"session.node-9936.DevalQorder";"trial.id";"trial.index";"trial.name";"trial.deval1.durationTime";"trial.deval1.endTime";"trial.deval1.icon";"trial.deval1.Resp_Attractive";"trial.deval1.Resp_Eat";"trial.deval1.Resp_Taste";"trial.deval1.RT_Attractive";"trial.deval1.RT_Eat";"trial.deval1.RT_Taste";"trial.deval1.startTime";"trial.deval1.stimulus type";"trial.devalPractice.durationTime";"trial.devalPractice.endTime";"trial.devalPractice.icon";"trial.devalPractice.Resp_Attractive";"trial.devalPractice.Resp_Eat";"trial.devalPractice.Resp_Taste";"trial.devalPractice.RT_Attractive";"trial.devalPractice.RT_Eat";"trial.devalPractice.RT_Taste";"trial.devalPractice.startTime";"trial.devalPractice.stimulus type";"trial.GoNoGo1.durationTime";"trial.GoNoGo1.endTime";"trial.GoNoGo1.Error Type";"trial.GoNoGo1.icon";"trial.GoNoGo1.location";"trial.GoNoGo1.outcome";"trial.GoNoGo1.response";"trial.GoNoGo1.result";"trial.GoNoGo1.RT";"trial.GoNoGo1.signal";"trial.GoNoGo1.startTime";"trial.GoNoGo1.stimulus type";"trial.GoNoGo2.durationTime";"trial.GoNoGo2.endTime";"trial.GoNoGo2.Error Type";"trial.GoNoGo2.icon";"trial.GoNoGo2.location";"trial.GoNoGo2.outcome";"trial.GoNoGo2.response";"trial.GoNoGo2.result";"trial.GoNoGo2.RT";"trial.GoNoGo2.signal";"trial.GoNoGo2.startTime";"trial.GoNoGo2.stimulus type";"trial.GoNoGo3.durationTime";"trial.GoNoGo3.endTime";"trial.GoNoGo3.Error Type";"trial.GoNoGo3.icon";"trial.GoNoGo3.location";"trial.GoNoGo3.outcome";"trial.GoNoGo3.response";"trial.GoNoGo3.result";"trial.GoNoGo3.RT";"trial.GoNoGo3.signal";"trial.GoNoGo3.startTime";"trial.GoNoGo3.stimulus type";"trial.GoNoGo4.durationTime";"trial.GoNoGo4.endTime";"trial.GoNoGo4.Error Type";"trial.GoNoGo4.icon";"trial.GoNoGo4.location";"trial.GoNoGo4.outcome";"trial.GoNoGo4.response";"trial.GoNoGo4.result";"trial.GoNoGo4.RT";"trial.GoNoGo4.signal";"trial.GoNoGo4.startTime";"trial.GoNoGo4.stimulus type";"trial.GoNoGo_Practice.durationTime";"trial.GoNoGo_Practice.endTime";"trial.GoNoGo_Practice.icon";"trial.GoNoGo_Practice.location";"trial.GoNoGo_Practice.outcome";"trial.GoNoGo_Practice.response";"trial.GoNoGo_Practice.result";"trial.GoNoGo_Practice.RT";"trial.GoNoGo_Practice.signal";"trial.GoNoGo_Practice.startTime";"trial.GoNoGo_Practice.stimulus type";"trial.GoNoGo_Tutorial.durationTime";"trial.GoNoGo_Tutorial.endTime";"trial.GoNoGo_Tutorial.icon";"trial.GoNoGo_Tutorial.location";"trial.GoNoGo_Tutorial.outcome";"trial.GoNoGo_Tutorial.response";"trial.GoNoGo_Tutorial.result";"trial.GoNoGo_Tutorial.RT";"trial.GoNoGo_Tutorial.signal";"trial.GoNoGo_Tutorial.startTime"
"diff130";"1995";;"Windows 7";"Rachel's Experiment (D.T.)";"1.0";"2";"1";"1";"2";"1";"1";"2014-09-29 14:47:46.909";"2014-09-29 15:06:09.564";"1";"0";"1";"1";"0";"module.GoNoGotutorial.exec-8190.GoNoGo_Tutorial";;;;;;;;;;;;;;;;;;;;;;;;;;;;;;;;;;;;;;;;;;;;;;;;;;;;;;;;;;;;;;;;;;;;;;;;;;;;;;;;;;"4001";"2014-09-29 14:48:55.818";"leftResponse";"0";"FINISHED";"NONE";"failure";"0";"0";"2014-09-29 14:48:51.817"
"diff130";"1995";;"Windows 7";"Rachel's Experiment (D.T.)";"1.0";"2";"1";"1";"2";"1";"1";"2014-09-29 14:47:46.909";"2014-09-29 15:06:09.564";"1";"0";"1";"2";"1";"module.GoNoGotutorial.exec-8190.GoNoGo_Tutorial";;;;;;;;;;;;;;;;;;;;;;;;;;;;;;;;;;;;;;;;;;;;;;;;;;;;;;;;;;;;;;;;;;;;;;;;;;;;;;;;;;"4001";"2014-09-29 14:49:01.191";"rightResponse";"1";"FINISHED";"NONE";"failure";"0";"0";"2014-09-29 14:48:57.191"
"diff130";"1995";;"Windows 7";"Rachel's Experiment (D.T.)";"1.0";"2";"1";"1";"2";"1";"1";"2014-09-29 14:47:46.909";"2014-09-29 15:06:09.564";"1";"0";"1";"3";"2";"module.GoNoGotutorial.exec-8190.GoNoGo_Tutorial";;;;;;;;;;;;;;;;;;;;;;;;;;;;;;;;;;;;;;;;;;;;;;;;;;;;;;;;;;;;;;;;;;;;;;;;;;;;;;;;;;"4000";"2014-09-29 14:49:06.513";"quickResponse";"0";"FINISHED";"NONE";"failure";"0";"0";"2014-09-29 14:49:02.513"
"diff130";"1995";;"Windows 7";"Rachel's Experiment (D.T.)";"1.0";"2";"1";"1";"2";"1";"1";"2014-09-29 14:47:46.909";"2014-09-29 15:06:09.564";"1";"0";"1";"4";"3";"module.GoNoGopractice.exec-7242.GoNoGo_Practice";;;;;;;;;;;;;;;;;;;;;;;;;;;;;;;;;;;;;;;;;;;;;;;;;;;;;;;;;;;;;;;;;;;;;;;"1963";"2014-09-29 14:49:15.343";"18";"0";"FINISHED";"LEFT";"success";"351";"0";"2014-09-29 14:49:13.378";"3";;;;;;;;;;
"diff130";"1995";;"Windows 7";"Rachel's Experiment (D.T.)";"1.0";"2";"1";"1";"2";"1";"1";"2014-09-29 14:47:46.909";"2014-09-29 15:06:09.564";"1";"0";"1";"5";"4";"module.GoNoGopractice.exec-7242.GoNoGo_Practice";;;;;;;;;;;;;;;;;;;;;;;;;;;;;;;;;;;;;;;;;;;;;;;;;;;;;;;;;;;;;;;;;;;;;;;"1951";"2014-09-29 14:49:18.648";"21";"1";"FINISHED";"RIGHT";"success";"348";"0";"2014-09-29 14:49:16.696";"3";;;;;;;;;;
"diff130";"1995";;"Windows 7";"Rachel's Experiment (D.T.)";"1.0";"2";"1";"1";"2";"1";"1";"2014-09-29 14:47:46.909";"2014-09-29 15:06:09.564";"1";"0";"1";"6";"5";"module.GoNoGopractice.exec-7242.GoNoGo_Practice";;;;;;;;;;;;;;;;;;;;;;;;;;;;;;;;;;;;;;;;;;;;;;;;;;;;;;;;;;;;;;;;;;;;;;;"1952";"2014-09-29 14:49:21.930";"14";"1";"FINISHED";"RIGHT";"success";"354";"0";"2014-09-29 14:49:19.978";"2";;;;;;;;;;
"diff130";"1995";;"Windows 7";"Rachel's Experiment (D.T.)";"1.0";"2";"1";"1";"2";"1";"1";"2014-09-29 14:47:46.909";"2014-09-29 15:06:09.564";"1";"0";"1";"7";"6";"module.GoNoGopractice.exec-7242.GoNoGo_Practice";;;;;;;;;;;;;;;;;;;;;;;;;;;;;;;;;;;;;;;;;;;;;;;;;;;;;;;;;;;;;;;;;;;;;;;"1952";"2014-09-29 14:49:25.208";"26";"0";"FINISHED";"LEFT";"success";"312";"0";"2014-09-29 14:49:23.255";"3";;;;;;;;;;
"diff130";"1995";;"Windows 7";"Rachel's Experiment (D.T.)";"1.0";"2";"1";"1";"2";"1";"1";"2014-09-29 14:47:46.909";"2014-09-29 15:06:09.564";"1";"0";"1";"8";"7";"module.GoNoGopractice.exec-7242.GoNoGo_Practice";;;;;;;;;;;;;;;;;;;;;;;;;;;;;;;;;;;;;;;;;;;;;;;;;;;;;;;;;;;;;;;;;;;;;;;"1953";"2014-09-29 14:49:28.507";"2";"0";"FINISHED";"LEFT";"success";"331";"0";"2014-09-29 14:49:26.554";"1";;;;;;;;;;
"diff130";"1995";;"Windows 7";"Rachel's Experiment (D.T.)";"1.0";"2";"1";"1";"2";"1";"1";"2014-09-29 14:47:46.909";"2014-09-29 15:06:09.564";"1";"0";"1";"9";"8";"module.GoNoGopractice.exec-7242.GoNoGo_Practice";;;;;;;;;;;;;;;;;;;;;;;;;;;;;;;;;;;;;;;;;;;;;;;;;;;;;;;;;;;;;;;;;;;;;;;"1951";"2014-09-29 14:49:31.791";"30";"0";"FINISHED";"LEFT";"success";"352";"0";"2014-09-29 14:49:29.838";"3";;;;;;;;;;
"diff130";"1995";;"Windows 7";"Rachel's Experiment (D.T.)";"1.0";"2";"1";"1";"2";"1";"1";"2014-09-29 14:47:46.909";"2014-09-29 15:06:09.564";"1";"0";"1";"10";"9";"module.GoNoGopractice.exec-7242.GoNoGo_Practice";;;;;;;;;;;;;;;;;;;;;;;;;;;;;;;;;;;;;;;;;;;;;;;;;;;;;;;;;;;;;;;;;;;;;;;"1952";"2014-09-29 14:49:35.064";"6";"1";"FINISHED";"RIGHT";"success";"327";"0";"2014-09-29 14:49:33.112";"1";;;;;;;;;;
"diff130";"1995";;"Windows 7";"Rachel's Experiment (D.T.)";"1.0";"2";"1";"1";"2";"1";"1";"2014-09-29 14:47:46.909";"2014-09-29 15:06:09.564";"1";"0";"1";"11";"10";"module.GoNoGopractice.exec-7242.GoNoGo_Practice";;;;;;;;;;;;;;;;;;;;;;;;;;;;;;;;;;;;;;;;;;;;;;;;;;;;;;;;;;;;;;;;;;;;;;;"1951";"2014-09-29 14:49:38.332";"34";"0";"FINISHED";"LEFT";"success";"362";"0";"2014-09-29 14:49:36.380";"3";;;;;;;;;;
"diff130";"1995";;"Windows 7";"Rachel's Experiment (D.T.)";"1.0";"2";"1";"1";"2";"1";"1";"2014-09-29 14:47:46.909";"2014-09-29 15:06:09.564";"1";"0";"1";"12";"11";"module.GoNoGopractice.exec-7242.GoNoGo_Practice";;;;;;;;;;;;;;;;;;;;;;;;;;;;;;;;;;;;;;;;;;;;;;;;;;;;;;;;;;;;;;;;;;;;;;;"1974";"2014-09-29 14:49:41.625";"23";"1";"FINISHED";"RIGHT";"success";"416";"0";"2014-09-29 14:49:39.650";"3";;;;;;;;;;
"diff130";"1995";;"Windows 7";"Rachel's Experiment (D.T.)";"1.0";"2";"1";"1";"2";"1";"1";"2014-09-29 14:47:46.909";"2014-09-29 15:06:09.564";"1";"0";"1";"13";"12";"module.GoNoGopractice.exec-7242.GoNoGo_Practice";;;;;;;;;;;;;;;;;;;;;;;;;;;;;;;;;;;;;;;;;;;;;;;;;;;;;;;;;;;;;;;;;;;;;;;"1951";"2014-09-29 14:49:44.919";"13";"0";"FINISHED";"LEFT";"success";"367";"0";"2014-09-29 14:49:42.967";"2";;;;;;;;;;
"diff130";"1995";;"Windows 7";"Rachel's Experiment (D.T.)";"1.0";"2";"1";"1";"2";"1";"1";"2014-09-29 14:47:46.909";"2014-09-29 15:06:09.564";"1";"0";"1";"14";"13";"module.GoNoGopractice.exec-7242.GoNoGo_Practice";;;;;;;;;;;;;;;;;;;;;;;;;;;;;;;;;;;;;;;;;;;;;;;;;;;;;;;;;;;;;;;;;;;;;;;"1960";"2014-09-29 14:49:48.195";"3";"1";"FINISHED";"RIGHT";"success";"374";"0";"2014-09-29 14:49:46.234";"1";;;;;;;;;;
"diff130";"1995";;"Windows 7";"Rachel's Experiment (D.T.)";"1.0";"2";"1";"1";"2";"1";"1";"2014-09-29 14:47:46.909";"2014-09-29 15:06:09.564";"1";"0";"1";"15";"14";"module.GoNoGopractice.exec-7242.GoNoGo_Practice";;;;;;;;;;;;;;;;;;;;;;;;;;;;;;;;;;;;;;;;;;;;;;;;;;;;;;;;;;;;;;;;;;;;;;;"1954";"2014-09-29 14:49:51.476";"27";"1";"FINISHED";"RIGHT";"success";"343";"0";"2014-09-29 14:49:49.522";"3";;;;;;;;;;
"diff130";"1995";;"Windows 7";"Rachel's Experiment (D.T.)";"1.0";"2";"1";"1";"2";"1";"1";"2014-09-29 14:47:46.909";"2014-09-29 15:06:09.564";"1";"0";"1";"16";"15";"module.training_block1.exec-7668.GoNoGo1";;;;;;;;;;;;;;;;;;;;;;;"1251";"2014-09-29 14:50:00.116";"NST_correctLoc";"18";"0";"FINISHED";"LEFT";"success";"338";"0";"2014-09-29 14:49:58.865";"3";;;;;;;;;;;;;;;;;;;;;;;;;;;;;;;;;;;;;;;;;;;;;;;;;;;;;;;;;
"diff130";"1995";;"Windows 7";"Rachel's Experiment (D.T.)";"1.0";"2";"1";"1";"2";"1";"1";"2014-09-29 14:47:46.909";"2014-09-29 15:06:09.564";"1";"0";"1";"17";"16";"module.training_block1.exec-7668.GoNoGo1";;;;;;;;;;;;;;;;;;;;;;;"1249";"2014-09-29 14:50:02.939";"NST_correctLoc";"11";"1";"FINISHED";"RIGHT";"success";"424";"0";"2014-09-29 14:50:01.689";"2";;;;;;;;;;;;;;;;;;;;;;;;;;;;;;;;;;;;;;;;;;;;;;;;;;;;;;;;;
"diff130";"1995";;"Windows 7";"Rachel's Experiment (D.T.)";"1.0";"2";"1";"1";"2";"1";"1";"2014-09-29 14:47:46.909";"2014-09-29 15:06:09.564";"1";"0";"1";"18";"17";"module.training_block1.exec-7668.GoNoGo1";;;;;;;;;;;;;;;;;;;;;;;"1251";"2014-09-29 14:50:05.510";"NST_correctLoc";"20";"1";"FINISHED";"RIGHT";"success";"399";"0";"2014-09-29 14:50:04.258";"3";;;;;;;;;;;;;;;;;;;;;;;;;;;;;;;;;;;;;;;;;;;;;;;;;;;;;;;;;
"diff130";"1995";;"Windows 7";"Rachel's Experiment (D.T.)";"1.0";"2";"1";"1";"2";"1";"1";"2014-09-29 14:47:46.909";"2014-09-29 15:06:09.564";"1";"0";"1";"19";"18";"module.training_block1.exec-7668.GoNoGo1";;;;;;;;;;;;;;;;;;;;;;;"1250";"2014-09-29 14:50:08.077";"NST_correctLoc";"25";"1";"FINISHED";"RIGHT";"success";"571";"0";"2014-09-29 14:50:06.827";"3";;;;;;;;;;;;;;;;;;;;;;;;;;;;;;;;;;;;;;;;;;;;;;;;;;;;;;;;;
"diff130";"1995";;"Windows 7";"Rachel's Experiment (D.T.)";"1.0";"2";"1";"1";"2";"1";"1";"2014-09-29 14:47:46.909";"2014-09-29 15:06:09.564";"1";"0";"1";"20";"19";"module.training_block1.exec-7668.GoNoGo1";;;;;;;;;;;;;;;;;;;;;;;"1250";"2014-09-29 14:50:10.646";"NST_correctLoc";"7";"1";"FINISHED";"RIGHT";"success";"572";"0";"2014-09-29 14:50:09.395";"1";;;;;;;;;;;;;;;;;;;;;;;;;;;;;;;;;;;;;;;;;;;;;;;;;;;;;;;;;
"diff130";"1995";;"Windows 7";"Rachel's Experiment (D.T.)";"1.0";"2";"1";"1";"2";"1";"1";"2014-09-29 14:47:46.909";"2014-09-29 15:06:09.564";"1";"0";"1";"21";"20";"module.training_block1.exec-7668.GoNoGo1";;;;;;;;;;;;;;;;;;;;;;;"1250";"2014-09-29 14:50:13.236";"NST_correctLoc";"5";"0";"FINISHED";"LEFT";"success";"383";"0";"2014-09-29 14:50:11.986";"1";;;;;;;;;;;;;;;;;;;;;;;;;;;;;;;;;;;;;;;;;;;;;;;;;;;;;;;;;
"diff130";"1995";;"Windows 7";"Rachel's Experiment (D.T.)";"1.0";"2";"1";"1";"2";"1";"1";"2014-09-29 14:47:46.909";"2014-09-29 15:06:09.564";"1";"0";"1";"22";"21";"module.training_block1.exec-7668.GoNoGo1";;;;;;;;;;;;;;;;;;;;;;;"1250";"2014-09-29 14:50:15.809";"NST_correctLoc";"15";"1";"FINISHED";"RIGHT";"success";"330";"0";"2014-09-29 14:50:14.559";"2";;;;;;;;;;;;;;;;;;;;;;;;;;;;;;;;;;;;;;;;;;;;;;;;;;;;;;;;;
"diff130";"1995";;"Windows 7";"Rachel's Experiment (D.T.)";"1.0";"2";"1";"1";"2";"1";"1";"2014-09-29 14:47:46.909";"2014-09-29 15:06:09.564";"1";"0";"1";"23";"22";"module.training_block1.exec-7668.GoNoGo1";;;;;;;;;;;;;;;;;;;;;;;"1249";"2014-09-29 14:50:18.370";"NST_correctLoc";"2";"0";"FINISHED";"LEFT";"success";"434";"0";"2014-09-29 14:50:17.120";"1";;;;;;;;;;;;;;;;;;;;;;;;;;;;;;;;;;;;;;;;;;;;;;;;;;;;;;;;;
"diff130";"1995";;"Windows 7";"Rachel's Experiment (D.T.)";"1.0";"2";"1";"1";"2";"1";"1";"2014-09-29 14:47:46.909";"2014-09-29 15:06:09.564";"1";"0";"1";"24";"23";"module.training_block1.exec-7668.GoNoGo1";;;;;;;;;;;;;;;;;;;;;;;"1249";"2014-09-29 14:50:20.990";"NST_correctLoc";"22";"1";"FINISHED";"RIGHT";"success";"337";"0";"2014-09-29 14:50:19.740";"3";;;;;;;;;;;;;;;;;;;;;;;;;;;;;;;;;;;;;;;;;;;;;;;;;;;;;;;;;
"diff130";"1995";;"Windows 7";"Rachel's Experiment (D.T.)";"1.0";"2";"1";"1";"2";"1";"1";"2014-09-29 14:47:46.909";"2014-09-29 15:06:09.564";"1";"0";"1";"25";"24";"module.training_block1.exec-7668.GoNoGo1";;;;;;;;;;;;;;;;;;;;;;;"1249";"2014-09-29 14:50:23.553";"NST_correctLoc";"27";"1";"FINISHED";"RIGHT";"success";"344";"0";"2014-09-29 14:50:22.302";"3";;;;;;;;;;;;;;;;;;;;;;;;;;;;;;;;;;;;;;;;;;;;;;;;;;;;;;;;;
"diff130";"1995";;"Windows 7";"Rachel's Experiment (D.T.)";"1.0";"2";"1";"1";"2";"1";"1";"2014-09-29 14:47:46.909";"2014-09-29 15:06:09.564";"1";"0";"1";"26";"25";"module.training_block1.exec-7668.GoNoGo1";;;;;;;;;;;;;;;;;;;;;;;"1250";"2014-09-29 14:50:26.119";"NST_correctLoc";"1";"0";"FINISHED";"LEFT";"success";"343";"0";"2014-09-29 14:50:24.869";"1";;;;;;;;;;;;;;;;;;;;;;;;;;;;;;;;;;;;;;;;;;;;;;;;;;;;;;;;;
"diff130";"1995";;"Windows 7";"Rachel's Experiment (D.T.)";"1.0";"2";"1";"1";"2";"1";"1";"2014-09-29 14:47:46.909";"2014-09-29 15:06:09.564";"1";"0";"1";"27";"26";"module.training_block1.exec-7668.GoNoGo1";;;;;;;;;;;;;;;;;;;;;;;"1251";"2014-09-29 14:50:28.687";"NST_correctLoc";"10";"0";"FINISHED";"LEFT";"success";"421";"0";"2014-09-29 14:50:27.436";"2";;;;;;;;;;;;;;;;;;;;;;;;;;;;;;;;;;;;;;;;;;;;;;;;;;;;;;;;;
"diff130";"1995";;"Windows 7";"Rachel's Experiment (D.T.)";"1.0";"2";"1";"1";"2";"1";"1";"2014-09-29 14:47:46.909";"2014-09-29 15:06:09.564";"1";"0";"1";"28";"27";"module.training_block1.exec-7668.GoNoGo1";;;;;;;;;;;;;;;;;;;;;;;"1250";"2014-09-29 14:50:31.246";"NST_correctLoc";"3";"0";"FINISHED";"LEFT";"success";"369";"0";"2014-09-29 14:50:29.996";"1";;;;;;;;;;;;;;;;;;;;;;;;;;;;;;;;;;;;;;;;;;;;;;;;;;;;;;;;;
"diff130";"1995";;"Windows 7";"Rachel's Experiment (D.T.)";"1.0";"2";"1";"1";"2";"1";"1";"2014-09-29 14:47:46.909";"2014-09-29 15:06:09.564";"1";"0";"1";"29";"28";"module.training_block1.exec-7668.GoNoGo1";;;;;;;;;;;;;;;;;;;;;;;"1249";"2014-09-29 14:50:33.808";"NST_correctLoc";"16";"0";"FINISHED";"LEFT";"success";"389";"0";"2014-09-29 14:50:32.558";"2";;;;;;;;;;;;;;;;;;;;;;;;;;;;;;;;;;;;;;;;;;;;;;;;;;;;;;;;;
"diff130";"1995";;"Windows 7";"Rachel's Experiment (D.T.)";"1.0";"2";"1";"1";"2";"1";"1";"2014-09-29 14:47:46.909";"2014-09-29 15:06:09.564";"1";"0";"1";"30";"29";"module.training_block1.exec-7668.GoNoGo1";;;;;;;;;;;;;;;;;;;;;;;"1249";"2014-09-29 14:50:36.362";"NST_correctLoc";"30";"1";"FINISHED";"RIGHT";"success";"356";"0";"2014-09-29 14:50:35.112";"3";;;;;;;;;;;;;;;;;;;;;;;;;;;;;;;;;;;;;;;;;;;;;;;;;;;;;;;;;
"diff130";"1995";;"Windows 7";"Rachel's Experiment (D.T.)";"1.0";"2";"1";"1";"2";"1";"1";"2014-09-29 14:47:46.909";"2014-09-29 15:06:09.564";"1";"0";"1";"31";"30";"module.training_block1.exec-7668.GoNoGo1";;;;;;;;;;;;;;;;;;;;;;;"1249";"2014-09-29 14:50:38.924";"NST_correctLoc";"23";"0";"FINISHED";"LEFT";"success";"344";"0";"2014-09-29 14:50:37.674";"3";;;;;;;;;;;;;;;;;;;;;;;;;;;;;;;;;;;;;;;;;;;;;;;;;;;;;;;;;
"diff130";"1995";;"Windows 7";"Rachel's Experiment (D.T.)";"1.0";"2";"1";"1";"2";"1";"1";"2014-09-29 14:47:46.909";"2014-09-29 15:06:09.564";"1";"0";"1";"32";"31";"module.training_block1.exec-7668.GoNoGo1";;;;;;;;;;;;;;;;;;;;;;;"1249";"2014-09-29 14:50:41.497";"NST_correctLoc";"8";"0";"FINISHED";"LEFT";"success";"373";"0";"2014-09-29 14:50:40.246";"1";;;;;;;;;;;;;;;;;;;;;;;;;;;;;;;;;;;;;;;;;;;;;;;;;;;;;;;;;
"diff130";"1995";;"Windows 7";"Rachel's Experiment (D.T.)";"1.0";"2";"1";"1";"2";"1";"1";"2014-09-29 14:47:46.909";"2014-09-29 15:06:09.564";"1";"0";"1";"33";"32";"module.training_block1.exec-7668.GoNoGo1";;;;;;;;;;;;;;;;;;;;;;;"1249";"2014-09-29 14:50:44.061";"NST_correctLoc";"24";"1";"FINISHED";"RIGHT";"success";"366";"0";"2014-09-29 14:50:42.811";"3";;;;;;;;;;;;;;;;;;;;;;;;;;;;;;;;;;;;;;;;;;;;;;;;;;;;;;;;;
"diff130";"1995";;"Windows 7";"Rachel's Experiment (D.T.)";"1.0";"2";"1";"1";"2";"1";"1";"2014-09-29 14:47:46.909";"2014-09-29 15:06:09.564";"1";"0";"1";"34";"33";"module.training_block1.exec-7668.GoNoGo1";;;;;;;;;;;;;;;;;;;;;;;"1249";"2014-09-29 14:50:46.621";"NST_correctLoc";"6";"0";"FINISHED";"LEFT";"success";"373";"0";"2014-09-29 14:50:45.371";"1";;;;;;;;;;;;;;;;;;;;;;;;;;;;;;;;;;;;;;;;;;;;;;;;;;;;;;;;;
"diff130";"1995";;"Windows 7";"Rachel's Experiment (D.T.)";"1.0";"2";"1";"1";"2";"1";"1";"2014-09-29 14:47:46.909";"2014-09-29 15:06:09.564";"1";"0";"1";"35";"34";"module.training_block1.exec-7668.GoNoGo1";;;;;;;;;;;;;;;;;;;;;;;"1250";"2014-09-29 14:50:49.179";"NST_correctLoc";"0";"1";"FINISHED";"RIGHT";"success";"403";"0";"2014-09-29 14:50:47.929";"1";;;;;;;;;;;;;;;;;;;;;;;;;;;;;;;;;;;;;;;;;;;;;;;;;;;;;;;;;
"diff130";"1995";;"Windows 7";"Rachel's Experiment (D.T.)";"1.0";"2";"1";"1";"2";"1";"1";"2014-09-29 14:47:46.909";"2014-09-29 15:06:09.564";"1";"0";"1";"36";"35";"module.training_block1.exec-7668.GoNoGo1";;;;;;;;;;;;;;;;;;;;;;;"1252";"2014-09-29 14:50:51.864";"NST_correctLoc";"32";"1";"FINISHED";"RIGHT";"success";"366";"0";"2014-09-29 14:50:50.612";"3";;;;;;;;;;;;;;;;;;;;;;;;;;;;;;;;;;;;;;;;;;;;;;;;;;;;;;;;;
"diff130";"1995";;"Windows 7";"Rachel's Experiment (D.T.)";"1.0";"2";"1";"1";"2";"1";"1";"2014-09-29 14:47:46.909";"2014-09-29 15:06:09.564";"1";"0";"1";"37";"36";"module.training_block1.exec-7668.GoNoGo1";;;;;;;;;;;;;;;;;;;;;;;"1250";"2014-09-29 14:50:54.423";"NST_correctLoc";"21";"0";"FINISHED";"LEFT";"success";"390";"0";"2014-09-29 14:50:53.173";"3";;;;;;;;;;;;;;;;;;;;;;;;;;;;;;;;;;;;;;;;;;;;;;;;;;;;;;;;;
"diff130";"1995";;"Windows 7";"Rachel's Experiment (D.T.)";"1.0";"2";"1";"1";"2";"1";"1";"2014-09-29 14:47:46.909";"2014-09-29 15:06:09.564";"1";"0";"1";"38";"37";"module.training_block1.exec-7668.GoNoGo1";;;;;;;;;;;;;;;;;;;;;;;"1249";"2014-09-29 14:50:56.978";"NST_correctLoc";"28";"0";"FINISHED";"LEFT";"success";"366";"0";"2014-09-29 14:50:55.728";"3";;;;;;;;;;;;;;;;;;;;;;;;;;;;;;;;;;;;;;;;;;;;;;;;;;;;;;;;;
"diff130";"1995";;"Windows 7";"Rachel's Experiment (D.T.)";"1.0";"2";"1";"1";"2";"1";"1";"2014-09-29 14:47:46.909";"2014-09-29 15:06:09.564";"1";"0";"1";"39";"38";"module.training_block1.exec-7668.GoNoGo1";;;;;;;;;;;;;;;;;;;;;;;"1250";"2014-09-29 14:50:59.545";"NST_correctLoc";"26";"0";"FINISHED";"LEFT";"success";"373";"0";"2014-09-29 14:50:58.294";"3";;;;;;;;;;;;;;;;;;;;;;;;;;;;;;;;;;;;;;;;;;;;;;;;;;;;;;;;;
"diff130";"1995";;"Windows 7";"Rachel's Experiment (D.T.)";"1.0";"2";"1";"1";"2";"1";"1";"2014-09-29 14:47:46.909";"2014-09-29 15:06:09.564";"1";"0";"1";"40";"39";"module.training_block1.exec-7668.GoNoGo1";;;;;;;;;;;;;;;;;;;;;;;"1249";"2014-09-29 14:51:02.100";"NST_correctLoc";"29";"0";"FINISHED";"LEFT";"success";"377";"0";"2014-09-29 14:51:00.850";"3";;;;;;;;;;;;;;;;;;;;;;;;;;;;;;;;;;;;;;;;;;;;;;;;;;;;;;;;;
"diff130";"1995";;"Windows 7";"Rachel's Experiment (D.T.)";"1.0";"2";"1";"1";"2";"1";"1";"2014-09-29 14:47:46.909";"2014-09-29 15:06:09.564";"1";"0";"1";"41";"40";"module.training_block1.exec-7668.GoNoGo1";;;;;;;;;;;;;;;;;;;;;;;"1249";"2014-09-29 14:51:04.657";"NST_correctLoc";"12";"1";"FINISHED";"RIGHT";"success";"373";"0";"2014-09-29 14:51:03.407";"2";;;;;;;;;;;;;;;;;;;;;;;;;;;;;;;;;;;;;;;;;;;;;;;;;;;;;;;;;
"diff130";"1995";;"Windows 7";"Rachel's Experiment (D.T.)";"1.0";"2";"1";"1";"2";"1";"1";"2014-09-29 14:47:46.909";"2014-09-29 15:06:09.564";"1";"0";"1";"42";"41";"module.training_block1.exec-7668.GoNoGo1";;;;;;;;;;;;;;;;;;;;;;;"1249";"2014-09-29 14:51:07.218";"NST_correctLoc";"17";"0";"FINISHED";"LEFT";"success";"368";"0";"2014-09-29 14:51:05.968";"2";;;;;;;;;;;;;;;;;;;;;;;;;;;;;;;;;;;;;;;;;;;;;;;;;;;;;;;;;
"diff130";"1995";;"Windows 7";"Rachel's Experiment (D.T.)";"1.0";"2";"1";"1";"2";"1";"1";"2014-09-29 14:47:46.909";"2014-09-29 15:06:09.564";"1";"0";"1";"43";"42";"module.training_block1.exec-7668.GoNoGo1";;;;;;;;;;;;;;;;;;;;;;;"1249";"2014-09-29 14:51:09.785";"NST_correctLoc";"19";"0";"FINISHED";"LEFT";"success";"331";"0";"2014-09-29 14:51:08.535";"3";;;;;;;;;;;;;;;;;;;;;;;;;;;;;;;;;;;;;;;;;;;;;;;;;;;;;;;;;
"diff130";"1995";;"Windows 7";"Rachel's Experiment (D.T.)";"1.0";"2";"1";"1";"2";"1";"1";"2014-09-29 14:47:46.909";"2014-09-29 15:06:09.564";"1";"0";"1";"44";"43";"module.training_block1.exec-7668.GoNoGo1";;;;;;;;;;;;;;;;;;;;;;;"1250";"2014-09-29 14:51:12.358";"NST_correctLoc";"35";"0";"FINISHED";"LEFT";"success";"392";"0";"2014-09-29 14:51:11.108";"3";;;;;;;;;;;;;;;;;;;;;;;;;;;;;;;;;;;;;;;;;;;;;;;;;;;;;;;;;
"diff130";"1995";;"Windows 7";"Rachel's Experiment (D.T.)";"1.0";"2";"1";"1";"2";"1";"1";"2014-09-29 14:47:46.909";"2014-09-29 15:06:09.564";"1";"0";"1";"45";"44";"module.training_block1.exec-7668.GoNoGo1";;;;;;;;;;;;;;;;;;;;;;;"1249";"2014-09-29 14:51:14.912";"NST_correctLoc";"34";"1";"FINISHED";"RIGHT";"success";"373";"0";"2014-09-29 14:51:13.662";"3";;;;;;;;;;;;;;;;;;;;;;;;;;;;;;;;;;;;;;;;;;;;;;;;;;;;;;;;;
"diff130";"1995";;"Windows 7";"Rachel's Experiment (D.T.)";"1.0";"2";"1";"1";"2";"1";"1";"2014-09-29 14:47:46.909";"2014-09-29 15:06:09.564";"1";"0";"1";"46";"45";"module.training_block1.exec-7668.GoNoGo1";;;;;;;;;;;;;;;;;;;;;;;"1250";"2014-09-29 14:51:17.470";"NST_correctLoc";"4";"0";"FINISHED";"LEFT";"success";"326";"0";"2014-09-29 14:51:16.220";"1";;;;;;;;;;;;;;;;;;;;;;;;;;;;;;;;;;;;;;;;;;;;;;;;;;;;;;;;;
"diff130";"1995";;"Windows 7";"Rachel's Experiment (D.T.)";"1.0";"2";"1";"1";"2";"1";"1";"2014-09-29 14:47:46.909";"2014-09-29 15:06:09.564";"1";"0";"1";"47";"46";"module.training_block1.exec-7668.GoNoGo1";;;;;;;;;;;;;;;;;;;;;;;"1249";"2014-09-29 14:51:20.042";"NST_correctLoc";"31";"0";"FINISHED";"LEFT";"success";"361";"0";"2014-09-29 14:51:18.792";"3";;;;;;;;;;;;;;;;;;;;;;;;;;;;;;;;;;;;;;;;;;;;;;;;;;;;;;;;;
"diff130";"1995";;"Windows 7";"Rachel's Experiment (D.T.)";"1.0";"2";"1";"1";"2";"1";"1";"2014-09-29 14:47:46.909";"2014-09-29 15:06:09.564";"1";"0";"1";"48";"47";"module.training_block1.exec-7668.GoNoGo1";;;;;;;;;;;;;;;;;;;;;;;"1249";"2014-09-29 14:51:22.616";"NST_correctLoc";"33";"0";"FINISHED";"LEFT";"success";"339";"0";"2014-09-29 14:51:21.366";"3";;;;;;;;;;;;;;;;;;;;;;;;;;;;;;;;;;;;;;;;;;;;;;;;;;;;;;;;;
"diff130";"1995";;"Windows 7";"Rachel's Experiment (D.T.)";"1.0";"2";"1";"1";"2";"1";"1";"2014-09-29 14:47:46.909";"2014-09-29 15:06:09.564";"1";"0";"1";"49";"48";"module.training_block1.exec-7668.GoNoGo1";;;;;;;;;;;;;;;;;;;;;;;"1249";"2014-09-29 14:51:25.170";"NST_correctLoc";"13";"1";"FINISHED";"RIGHT";"success";"344";"0";"2014-09-29 14:51:23.920";"2";;;;;;;;;;;;;;;;;;;;;;;;;;;;;;;;;;;;;;;;;;;;;;;;;;;;;;;;;
"diff130";"1995";;"Windows 7";"Rachel's Experiment (D.T.)";"1.0";"2";"1";"1";"2";"1";"1";"2014-09-29 14:47:46.909";"2014-09-29 15:06:09.564";"1";"0";"1";"50";"49";"module.training_block1.exec-7668.GoNoGo1";;;;;;;;;;;;;;;;;;;;;;;"1249";"2014-09-29 14:51:27.718";"NST_correctLoc";"9";"1";"FINISHED";"RIGHT";"success";"364";"0";"2014-09-29 14:51:26.468";"2";;;;;;;;;;;;;;;;;;;;;;;;;;;;;;;;;;;;;;;;;;;;;;;;;;;;;;;;;
"diff130";"1995";;"Windows 7";"Rachel's Experiment (D.T.)";"1.0";"2";"1";"1";"2";"1";"1";"2014-09-29 14:47:46.909";"2014-09-29 15:06:09.564";"1";"0";"1";"51";"50";"module.training_block1.exec-7668.GoNoGo1";;;;;;;;;;;;;;;;;;;;;;;"1250";"2014-09-29 14:51:30.273";"NST_correctLoc";"14";"0";"FINISHED";"LEFT";"success";"311";"0";"2014-09-29 14:51:29.023";"2";;;;;;;;;;;;;;;;;;;;;;;;;;;;;;;;;;;;;;;;;;;;;;;;;;;;;;;;;
"diff130";"1995";;"Windows 7";"Rachel's Experiment (D.T.)";"1.0";"2";"1";"1";"2";"1";"1";"2014-09-29 14:47:46.909";"2014-09-29 15:06:09.564";"1";"0";"1";"52";"51";"module.training_block2.exec-5803.GoNoGo2";;;;;;;;;;;;;;;;;;;;;;;;;;;;;;;;;;;"1249";"2014-09-29 14:52:46.807";"NST_correctLoc";"34";"1";"FINISHED";"RIGHT";"success";"549";"0";"2014-09-29 14:52:45.557";"3";;;;;;;;;;;;;;;;;;;;;;;;;;;;;;;;;;;;;;;;;;;;;
"diff130";"1995";;"Windows 7";"Rachel's Experiment (D.T.)";"1.0";"2";"1";"1";"2";"1";"1";"2014-09-29 14:47:46.909";"2014-09-29 15:06:09.564";"1";"0";"1";"53";"52";"module.training_block2.exec-5803.GoNoGo2";;;;;;;;;;;;;;;;;;;;;;;;;;;;;;;;;;;"1250";"2014-09-29 14:52:49.357";"NST_correctLoc";"33";"0";"FINISHED";"LEFT";"success";"393";"0";"2014-09-29 14:52:48.107";"3";;;;;;;;;;;;;;;;;;;;;;;;;;;;;;;;;;;;;;;;;;;;;
"diff130";"1995";;"Windows 7";"Rachel's Experiment (D.T.)";"1.0";"2";"1";"1";"2";"1";"1";"2014-09-29 14:47:46.909";"2014-09-29 15:06:09.564";"1";"0";"1";"54";"53";"module.training_block2.exec-5803.GoNoGo2";;;;;;;;;;;;;;;;;;;;;;;;;;;;;;;;;;;"1249";"2014-09-29 14:52:51.904";"NST_correctLoc";"15";"1";"FINISHED";"RIGHT";"success";"531";"0";"2014-09-29 14:52:50.654";"2";;;;;;;;;;;;;;;;;;;;;;;;;;;;;;;;;;;;;;;;;;;;;
"diff130";"1995";;"Windows 7";"Rachel's Experiment (D.T.)";"1.0";"2";"1";"1";"2";"1";"1";"2014-09-29 14:47:46.909";"2014-09-29 15:06:09.564";"1";"0";"1";"55";"54";"module.training_block2.exec-5803.GoNoGo2";;;;;;;;;;;;;;;;;;;;;;;;;;;;;;;;;;;"1250";"2014-09-29 14:52:54.440";"NST_correctLoc";"22";"1";"FINISHED";"RIGHT";"success";"324";"0";"2014-09-29 14:52:53.190";"3";;;;;;;;;;;;;;;;;;;;;;;;;;;;;;;;;;;;;;;;;;;;;
"diff130";"1995";;"Windows 7";"Rachel's Experiment (D.T.)";"1.0";"2";"1";"1";"2";"1";"1";"2014-09-29 14:47:46.909";"2014-09-29 15:06:09.564";"1";"0";"1";"56";"55";"module.training_block2.exec-5803.GoNoGo2";;;;;;;;;;;;;;;;;;;;;;;;;;;;;;;;;;;"1250";"2014-09-29 14:52:56.983";"NST_correctLoc";"16";"1";"FINISHED";"RIGHT";"success";"348";"0";"2014-09-29 14:52:55.733";"2";;;;;;;;;;;;;;;;;;;;;;;;;;;;;;;;;;;;;;;;;;;;;
"diff130";"1995";;"Windows 7";"Rachel's Experiment (D.T.)";"1.0";"2";"1";"1";"2";"1";"1";"2014-09-29 14:47:46.909";"2014-09-29 15:06:09.564";"1";"0";"1";"57";"56";"module.training_block2.exec-5803.GoNoGo2";;;;;;;;;;;;;;;;;;;;;;;;;;;;;;;;;;;"1249";"2014-09-29 14:52:59.532";"NST_correctLoc";"18";"0";"FINISHED";"LEFT";"success";"295";"0";"2014-09-29 14:52:58.282";"3";;;;;;;;;;;;;;;;;;;;;;;;;;;;;;;;;;;;;;;;;;;;;
"diff130";"1995";;"Windows 7";"Rachel's Experiment (D.T.)";"1.0";"2";"1";"1";"2";"1";"1";"2014-09-29 14:47:46.909";"2014-09-29 15:06:09.564";"1";"0";"1";"58";"57";"module.training_block2.exec-5803.GoNoGo2";;;;;;;;;;;;;;;;;;;;;;;;;;;;;;;;;;;"1249";"2014-09-29 14:53:02.082";"NST_correctLoc";"11";"0";"FINISHED";"LEFT";"success";"321";"0";"2014-09-29 14:53:00.832";"2";;;;;;;;;;;;;;;;;;;;;;;;;;;;;;;;;;;;;;;;;;;;;
"diff130";"1995";;"Windows 7";"Rachel's Experiment (D.T.)";"1.0";"2";"1";"1";"2";"1";"1";"2014-09-29 14:47:46.909";"2014-09-29 15:06:09.564";"1";"0";"1";"59";"58";"module.training_block2.exec-5803.GoNoGo2";;;;;;;;;;;;;;;;;;;;;;;;;;;;;;;;;;;"1251";"2014-09-29 14:53:04.625";"NST_correctLoc";"30";"1";"FINISHED";"RIGHT";"success";"323";"0";"2014-09-29 14:53:03.375";"3";;;;;;;;;;;;;;;;;;;;;;;;;;;;;;;;;;;;;;;;;;;;;
"diff130";"1995";;"Windows 7";"Rachel's Experiment (D.T.)";"1.0";"2";"1";"1";"2";"1";"1";"2014-09-29 14:47:46.909";"2014-09-29 15:06:09.564";"1";"0";"1";"60";"59";"module.training_block2.exec-5803.GoNoGo2";;;;;;;;;;;;;;;;;;;;;;;;;;;;;;;;;;;"1249";"2014-09-29 14:53:07.174";"NST_correctLoc";"31";"1";"FINISHED";"RIGHT";"success";"321";"0";"2014-09-29 14:53:05.924";"3";;;;;;;;;;;;;;;;;;;;;;;;;;;;;;;;;;;;;;;;;;;;;
"diff130";"1995";;"Windows 7";"Rachel's Experiment (D.T.)";"1.0";"2";"1";"1";"2";"1";"1";"2014-09-29 14:47:46.909";"2014-09-29 15:06:09.564";"1";"0";"1";"61";"60";"module.training_block2.exec-5803.GoNoGo2";;;;;;;;;;;;;;;;;;;;;;;;;;;;;;;;;;;"1250";"2014-09-29 14:53:09.751";"NST_correctLoc";"3";"1";"FINISHED";"RIGHT";"success";"331";"0";"2014-09-29 14:53:08.501";"1";;;;;;;;;;;;;;;;;;;;;;;;;;;;;;;;;;;;;;;;;;;;;
"diff130";"1995";;"Windows 7";"Rachel's Experiment (D.T.)";"1.0";"2";"1";"1";"2";"1";"1";"2014-09-29 14:47:46.909";"2014-09-29 15:06:09.564";"1";"0";"1";"62";"61";"module.training_block2.exec-5803.GoNoGo2";;;;;;;;;;;;;;;;;;;;;;;;;;;;;;;;;;;"1249";"2014-09-29 14:53:12.299";"NST_correctLoc";"17";"0";"FINISHED";"LEFT";"success";"311";"0";"2014-09-29 14:53:11.049";"2";;;;;;;;;;;;;;;;;;;;;;;;;;;;;;;;;;;;;;;;;;;;;
"diff130";"1995";;"Windows 7";"Rachel's Experiment (D.T.)";"1.0";"2";"1";"1";"2";"1";"1";"2014-09-29 14:47:46.909";"2014-09-29 15:06:09.564";"1";"0";"1";"63";"62";"module.training_block2.exec-5803.GoNoGo2";;;;;;;;;;;;;;;;;;;;;;;;;;;;;;;;;;;"1250";"2014-09-29 14:53:14.849";"NST_correctLoc";"9";"0";"FINISHED";"LEFT";"success";"347";"0";"2014-09-29 14:53:13.599";"2";;;;;;;;;;;;;;;;;;;;;;;;;;;;;;;;;;;;;;;;;;;;;
"diff130";"1995";;"Windows 7";"Rachel's Experiment (D.T.)";"1.0";"2";"1";"1";"2";"1";"1";"2014-09-29 14:47:46.909";"2014-09-29 15:06:09.564";"1";"0";"1";"64";"63";"module.training_block2.exec-5803.GoNoGo2";;;;;;;;;;;;;;;;;;;;;;;;;;;;;;;;;;;"1250";"2014-09-29 14:53:17.394";"NST_correctLoc";"10";"1";"FINISHED";"RIGHT";"success";"351";"0";"2014-09-29 14:53:16.144";"2";;;;;;;;;;;;;;;;;;;;;;;;;;;;;;;;;;;;;;;;;;;;;
"diff130";"1995";;"Windows 7";"Rachel's Experiment (D.T.)";"1.0";"2";"1";"1";"2";"1";"1";"2014-09-29 14:47:46.909";"2014-09-29 15:06:09.564";"1";"0";"1";"65";"64";"module.training_block2.exec-5803.GoNoGo2";;;;;;;;;;;;;;;;;;;;;;;;;;;;;;;;;;;"1249";"2014-09-29 14:53:19.940";"NST_correctLoc";"13";"1";"FINISHED";"RIGHT";"success";"371";"0";"2014-09-29 14:53:18.690";"2";;;;;;;;;;;;;;;;;;;;;;;;;;;;;;;;;;;;;;;;;;;;;
"diff130";"1995";;"Windows 7";"Rachel's Experiment (D.T.)";"1.0";"2";"1";"1";"2";"1";"1";"2014-09-29 14:47:46.909";"2014-09-29 15:06:09.564";"1";"0";"1";"66";"65";"module.training_block2.exec-5803.GoNoGo2";;;;;;;;;;;;;;;;;;;;;;;;;;;;;;;;;;;"1250";"2014-09-29 14:53:22.497";"NST_correctLoc";"19";"0";"FINISHED";"LEFT";"success";"321";"0";"2014-09-29 14:53:21.247";"3";;;;;;;;;;;;;;;;;;;;;;;;;;;;;;;;;;;;;;;;;;;;;
"diff130";"1995";;"Windows 7";"Rachel's Experiment (D.T.)";"1.0";"2";"1";"1";"2";"1";"1";"2014-09-29 14:47:46.909";"2014-09-29 15:06:09.564";"1";"0";"1";"67";"66";"module.training_block2.exec-5803.GoNoGo2";;;;;;;;;;;;;;;;;;;;;;;;;;;;;;;;;;;"1249";"2014-09-29 14:53:25.037";"NST_correctLoc";"0";"0";"FINISHED";"LEFT";"success";"365";"0";"2014-09-29 14:53:23.787";"1";;;;;;;;;;;;;;;;;;;;;;;;;;;;;;;;;;;;;;;;;;;;;
"diff130";"1995";;"Windows 7";"Rachel's Experiment (D.T.)";"1.0";"2";"1";"1";"2";"1";"1";"2014-09-29 14:47:46.909";"2014-09-29 15:06:09.564";"1";"0";"1";"68";"67";"module.training_block2.exec-5803.GoNoGo2";;;;;;;;;;;;;;;;;;;;;;;;;;;;;;;;;;;"1250";"2014-09-29 14:53:27.573";"NST_correctLoc";"29";"0";"FINISHED";"LEFT";"success";"318";"0";"2014-09-29 14:53:26.323";"3";;;;;;;;;;;;;;;;;;;;;;;;;;;;;;;;;;;;;;;;;;;;;
"diff130";"1995";;"Windows 7";"Rachel's Experiment (D.T.)";"1.0";"2";"1";"1";"2";"1";"1";"2014-09-29 14:47:46.909";"2014-09-29 15:06:09.564";"1";"0";"1";"69";"68";"module.training_block2.exec-5803.GoNoGo2";;;;;;;;;;;;;;;;;;;;;;;;;;;;;;;;;;;"1251";"2014-09-29 14:53:30.117";"NST_correctLoc";"35";"1";"FINISHED";"RIGHT";"success";"347";"0";"2014-09-29 14:53:28.866";"3";;;;;;;;;;;;;;;;;;;;;;;;;;;;;;;;;;;;;;;;;;;;;
"diff130";"1995";;"Windows 7";"Rachel's Experiment (D.T.)";"1.0";"2";"1";"1";"2";"1";"1";"2014-09-29 14:47:46.909";"2014-09-29 15:06:09.564";"1";"0";"1";"70";"69";"module.training_block2.exec-5803.GoNoGo2";;;;;;;;;;;;;;;;;;;;;;;;;;;;;;;;;;;"1249";"2014-09-29 14:53:32.658";"NST_correctLoc";"6";"0";"FINISHED";"LEFT";"success";"324";"0";"2014-09-29 14:53:31.408";"1";;;;;;;;;;;;;;;;;;;;;;;;;;;;;;;;;;;;;;;;;;;;;
"diff130";"1995";;"Windows 7";"Rachel's Experiment (D.T.)";"1.0";"2";"1";"1";"2";"1";"1";"2014-09-29 14:47:46.909";"2014-09-29 15:06:09.564";"1";"0";"1";"71";"70";"module.training_block2.exec-5803.GoNoGo2";;;;;;;;;;;;;;;;;;;;;;;;;;;;;;;;;;;"1249";"2014-09-29 14:53:35.199";"NST_correctLoc";"23";"0";"FINISHED";"LEFT";"success";"322";"0";"2014-09-29 14:53:33.949";"3";;;;;;;;;;;;;;;;;;;;;;;;;;;;;;;;;;;;;;;;;;;;;
"diff130";"1995";;"Windows 7";"Rachel's Experiment (D.T.)";"1.0";"2";"1";"1";"2";"1";"1";"2014-09-29 14:47:46.909";"2014-09-29 15:06:09.564";"1";"0";"1";"72";"71";"module.training_block2.exec-5803.GoNoGo2";;;;;;;;;;;;;;;;;;;;;;;;;;;;;;;;;;;"1249";"2014-09-29 14:53:37.743";"NST_correctLoc";"8";"1";"FINISHED";"RIGHT";"success";"373";"0";"2014-09-29 14:53:36.493";"1";;;;;;;;;;;;;;;;;;;;;;;;;;;;;;;;;;;;;;;;;;;;;
"diff130";"1995";;"Windows 7";"Rachel's Experiment (D.T.)";"1.0";"2";"1";"1";"2";"1";"1";"2014-09-29 14:47:46.909";"2014-09-29 15:06:09.564";"1";"0";"1";"73";"72";"module.training_block2.exec-5803.GoNoGo2";;;;;;;;;;;;;;;;;;;;;;;;;;;;;;;;;;;"1249";"2014-09-29 14:53:40.288";"NST_correctLoc";"21";"1";"FINISHED";"RIGHT";"success";"326";"0";"2014-09-29 14:53:39.038";"3";;;;;;;;;;;;;;;;;;;;;;;;;;;;;;;;;;;;;;;;;;;;;
"diff130";"1995";;"Windows 7";"Rachel's Experiment (D.T.)";"1.0";"2";"1";"1";"2";"1";"1";"2014-09-29 14:47:46.909";"2014-09-29 15:06:09.564";"1";"0";"1";"74";"73";"module.training_block2.exec-5803.GoNoGo2";;;;;;;;;;;;;;;;;;;;;;;;;;;;;;;;;;;"1251";"2014-09-29 14:53:42.827";"NST_correctLoc";"7";"0";"FINISHED";"LEFT";"success";"316";"0";"2014-09-29 14:53:41.576";"1";;;;;;;;;;;;;;;;;;;;;;;;;;;;;;;;;;;;;;;;;;;;;
"diff130";"1995";;"Windows 7";"Rachel's Experiment (D.T.)";"1.0";"2";"1";"1";"2";"1";"1";"2014-09-29 14:47:46.909";"2014-09-29 15:06:09.564";"1";"0";"1";"75";"74";"module.training_block2.exec-5803.GoNoGo2";;;;;;;;;;;;;;;;;;;;;;;;;;;;;;;;;;;"1250";"2014-09-29 14:53:45.407";"NST_correctLoc";"4";"1";"FINISHED";"RIGHT";"success";"351";"0";"2014-09-29 14:53:44.157";"1";;;;;;;;;;;;;;;;;;;;;;;;;;;;;;;;;;;;;;;;;;;;;
"diff130";"1995";;"Windows 7";"Rachel's Experiment (D.T.)";"1.0";"2";"1";"1";"2";"1";"1";"2014-09-29 14:47:46.909";"2014-09-29 15:06:09.564";"1";"0";"1";"76";"75";"module.training_block2.exec-5803.GoNoGo2";;;;;;;;;;;;;;;;;;;;;;;;;;;;;;;;;;;"1249";"2014-09-29 14:53:47.952";"NST_correctLoc";"25";"1";"FINISHED";"RIGHT";"success";"394";"0";"2014-09-29 14:53:46.702";"3";;;;;;;;;;;;;;;;;;;;;;;;;;;;;;;;;;;;;;;;;;;;;
"diff130";"1995";;"Windows 7";"Rachel's Experiment (D.T.)";"1.0";"2";"1";"1";"2";"1";"1";"2014-09-29 14:47:46.909";"2014-09-29 15:06:09.564";"1";"0";"1";"77";"76";"module.training_block2.exec-5803.GoNoGo2";;;;;;;;;;;;;;;;;;;;;;;;;;;;;;;;;;;"1250";"2014-09-29 14:53:50.492";"NST_correctLoc";"20";"0";"FINISHED";"LEFT";"success";"359";"0";"2014-09-29 14:53:49.242";"3";;;;;;;;;;;;;;;;;;;;;;;;;;;;;;;;;;;;;;;;;;;;;
"diff130";"1995";;"Windows 7";"Rachel's Experiment (D.T.)";"1.0";"2";"1";"1";"2";"1";"1";"2014-09-29 14:47:46.909";"2014-09-29 15:06:09.564";"1";"0";"1";"78";"77";"module.training_block2.exec-5803.GoNoGo2";;;;;;;;;;;;;;;;;;;;;;;;;;;;;;;;;;;"1250";"2014-09-29 14:53:53.031";"NST_correctLoc";"2";"1";"FINISHED";"RIGHT";"success";"343";"0";"2014-09-29 14:53:51.781";"1";;;;;;;;;;;;;;;;;;;;;;;;;;;;;;;;;;;;;;;;;;;;;
"diff130";"1995";;"Windows 7";"Rachel's Experiment (D.T.)";"1.0";"2";"1";"1";"2";"1";"1";"2014-09-29 14:47:46.909";"2014-09-29 15:06:09.564";"1";"0";"1";"79";"78";"module.training_block2.exec-5803.GoNoGo2";;;;;;;;;;;;;;;;;;;;;;;;;;;;;;;;;;;"1250";"2014-09-29 14:53:55.573";"NST_correctLoc";"26";"1";"FINISHED";"RIGHT";"success";"423";"0";"2014-09-29 14:53:54.323";"3";;;;;;;;;;;;;;;;;;;;;;;;;;;;;;;;;;;;;;;;;;;;;
"diff130";"1995";;"Windows 7";"Rachel's Experiment (D.T.)";"1.0";"2";"1";"1";"2";"1";"1";"2014-09-29 14:47:46.909";"2014-09-29 15:06:09.564";"1";"0";"1";"80";"79";"module.training_block2.exec-5803.GoNoGo2";;;;;;;;;;;;;;;;;;;;;;;;;;;;;;;;;;;"1250";"2014-09-29 14:53:58.112";"NST_correctLoc";"1";"0";"FINISHED";"LEFT";"success";"380";"0";"2014-09-29 14:53:56.862";"1";;;;;;;;;;;;;;;;;;;;;;;;;;;;;;;;;;;;;;;;;;;;;
"diff130";"1995";;"Windows 7";"Rachel's Experiment (D.T.)";"1.0";"2";"1";"1";"2";"1";"1";"2014-09-29 14:47:46.909";"2014-09-29 15:06:09.564";"1";"0";"1";"81";"80";"module.training_block2.exec-5803.GoNoGo2";;;;;;;;;;;;;;;;;;;;;;;;;;;;;;;;;;;"1249";"2014-09-29 14:54:00.662";"NST_correctLoc";"28";"1";"FINISHED";"RIGHT";"success";"384";"0";"2014-09-29 14:53:59.412";"3";;;;;;;;;;;;;;;;;;;;;;;;;;;;;;;;;;;;;;;;;;;;;
"diff130";"1995";;"Windows 7";"Rachel's Experiment (D.T.)";"1.0";"2";"1";"1";"2";"1";"1";"2014-09-29 14:47:46.909";"2014-09-29 15:06:09.564";"1";"0";"1";"82";"81";"module.training_block2.exec-5803.GoNoGo2";;;;;;;;;;;;;;;;;;;;;;;;;;;;;;;;;;;"1249";"2014-09-29 14:54:03.192";"NST_correctLoc";"32";"1";"FINISHED";"RIGHT";"success";"348";"0";"2014-09-29 14:54:01.942";"3";;;;;;;;;;;;;;;;;;;;;;;;;;;;;;;;;;;;;;;;;;;;;
"diff130";"1995";;"Windows 7";"Rachel's Experiment (D.T.)";"1.0";"2";"1";"1";"2";"1";"1";"2014-09-29 14:47:46.909";"2014-09-29 15:06:09.564";"1";"0";"1";"83";"82";"module.training_block2.exec-5803.GoNoGo2";;;;;;;;;;;;;;;;;;;;;;;;;;;;;;;;;;;"1250";"2014-09-29 14:54:05.736";"NST_correctLoc";"27";"0";"FINISHED";"LEFT";"success";"390";"0";"2014-09-29 14:54:04.486";"3";;;;;;;;;;;;;;;;;;;;;;;;;;;;;;;;;;;;;;;;;;;;;
"diff130";"1995";;"Windows 7";"Rachel's Experiment (D.T.)";"1.0";"2";"1";"1";"2";"1";"1";"2014-09-29 14:47:46.909";"2014-09-29 15:06:09.564";"1";"0";"1";"84";"83";"module.training_block2.exec-5803.GoNoGo2";;;;;;;;;;;;;;;;;;;;;;;;;;;;;;;;;;;"1250";"2014-09-29 14:54:08.275";"NST_correctLoc";"5";"1";"FINISHED";"RIGHT";"success";"351";"0";"2014-09-29 14:54:07.025";"1";;;;;;;;;;;;;;;;;;;;;;;;;;;;;;;;;;;;;;;;;;;;;
"diff130";"1995";;"Windows 7";"Rachel's Experiment (D.T.)";"1.0";"2";"1";"1";"2";"1";"1";"2014-09-29 14:47:46.909";"2014-09-29 15:06:09.564";"1";"0";"1";"85";"84";"module.training_block2.exec-5803.GoNoGo2";;;;;;;;;;;;;;;;;;;;;;;;;;;;;;;;;;;"1249";"2014-09-29 14:54:10.816";"NST_correctLoc";"14";"1";"FINISHED";"RIGHT";"success";"342";"0";"2014-09-29 14:54:09.565";"2";;;;;;;;;;;;;;;;;;;;;;;;;;;;;;;;;;;;;;;;;;;;;
"diff130";"1995";;"Windows 7";"Rachel's Experiment (D.T.)";"1.0";"2";"1";"1";"2";"1";"1";"2014-09-29 14:47:46.909";"2014-09-29 15:06:09.564";"1";"0";"1";"86";"85";"module.training_block2.exec-5803.GoNoGo2";;;;;;;;;;;;;;;;;;;;;;;;;;;;;;;;;;;"1249";"2014-09-29 14:54:13.356";"NST_correctLoc";"24";"1";"FINISHED";"RIGHT";"success";"355";"0";"2014-09-29 14:54:12.106";"3";;;;;;;;;;;;;;;;;;;;;;;;;;;;;;;;;;;;;;;;;;;;;
"diff130";"1995";;"Windows 7";"Rachel's Experiment (D.T.)";"1.0";"2";"1";"1";"2";"1";"1";"2014-09-29 14:47:46.909";"2014-09-29 15:06:09.564";"1";"0";"1";"87";"86";"module.training_block2.exec-5803.GoNoGo2";;;;;;;;;;;;;;;;;;;;;;;;;;;;;;;;;;;"1250";"2014-09-29 14:54:15.903";"NST_correctLoc";"12";"0";"FINISHED";"LEFT";"success";"359";"0";"2014-09-29 14:54:14.652";"2";;;;;;;;;;;;;;;;;;;;;;;;;;;;;;;;;;;;;;;;;;;;;
"diff130";"1995";;"Windows 7";"Rachel's Experiment (D.T.)";"1.0";"2";"1";"1";"2";"1";"1";"2014-09-29 14:47:46.909";"2014-09-29 15:06:09.564";"1";"0";"1";"88";"87";"module.training_block3.exec-5828.GoNoGo3";;;;;;;;;;;;;;;;;;;;;;;;;;;;;;;;;;;;;;;;;;;;;;;"1250";"2014-09-29 14:54:50.229";"NST_correctLoc";"0";"0";"FINISHED";"LEFT";"success";"906";"0";"2014-09-29 14:54:48.979";"1";;;;;;;;;;;;;;;;;;;;;;;;;;;;;;;;;
"diff130";"1995";;"Windows 7";"Rachel's Experiment (D.T.)";"1.0";"2";"1";"1";"2";"1";"1";"2014-09-29 14:47:46.909";"2014-09-29 15:06:09.564";"1";"0";"1";"89";"88";"module.training_block3.exec-5828.GoNoGo3";;;;;;;;;;;;;;;;;;;;;;;;;;;;;;;;;;;;;;;;;;;;;;;"1249";"2014-09-29 14:54:52.782";"NST_correctLoc";"7";"0";"FINISHED";"LEFT";"success";"350";"0";"2014-09-29 14:54:51.532";"1";;;;;;;;;;;;;;;;;;;;;;;;;;;;;;;;;
"diff130";"1995";;"Windows 7";"Rachel's Experiment (D.T.)";"1.0";"2";"1";"1";"2";"1";"1";"2014-09-29 14:47:46.909";"2014-09-29 15:06:09.564";"1";"0";"1";"90";"89";"module.training_block3.exec-5828.GoNoGo3";;;;;;;;;;;;;;;;;;;;;;;;;;;;;;;;;;;;;;;;;;;;;;;"1250";"2014-09-29 14:54:55.319";"NST_correctLoc";"35";"0";"FINISHED";"LEFT";"success";"563";"0";"2014-09-29 14:54:54.068";"3";;;;;;;;;;;;;;;;;;;;;;;;;;;;;;;;;
"diff130";"1995";;"Windows 7";"Rachel's Experiment (D.T.)";"1.0";"2";"1";"1";"2";"1";"1";"2014-09-29 14:47:46.909";"2014-09-29 15:06:09.564";"1";"0";"1";"91";"90";"module.training_block3.exec-5828.GoNoGo3";;;;;;;;;;;;;;;;;;;;;;;;;;;;;;;;;;;;;;;;;;;;;;;"1249";"2014-09-29 14:54:57.857";"NST_correctLoc";"23";"1";"FINISHED";"RIGHT";"success";"296";"0";"2014-09-29 14:54:56.607";"3";;;;;;;;;;;;;;;;;;;;;;;;;;;;;;;;;
"diff130";"1995";;"Windows 7";"Rachel's Experiment (D.T.)";"1.0";"2";"1";"1";"2";"1";"1";"2014-09-29 14:47:46.909";"2014-09-29 15:06:09.564";"1";"0";"1";"92";"91";"module.training_block3.exec-5828.GoNoGo3";;;;;;;;;;;;;;;;;;;;;;;;;;;;;;;;;;;;;;;;;;;;;;;"1249";"2014-09-29 14:55:00.395";"NST_correctLoc";"25";"1";"FINISHED";"RIGHT";"success";"360";"0";"2014-09-29 14:54:59.145";"3";;;;;;;;;;;;;;;;;;;;;;;;;;;;;;;;;
"diff130";"1995";;"Windows 7";"Rachel's Experiment (D.T.)";"1.0";"2";"1";"1";"2";"1";"1";"2014-09-29 14:47:46.909";"2014-09-29 15:06:09.564";"1";"0";"1";"93";"92";"module.training_block3.exec-5828.GoNoGo3";;;;;;;;;;;;;;;;;;;;;;;;;;;;;;;;;;;;;;;;;;;;;;;"1249";"2014-09-29 14:55:02.935";"NST_correctLoc";"13";"1";"FINISHED";"RIGHT";"success";"317";"0";"2014-09-29 14:55:01.685";"2";;;;;;;;;;;;;;;;;;;;;;;;;;;;;;;;;
"diff130";"1995";;"Windows 7";"Rachel's Experiment (D.T.)";"1.0";"2";"1";"1";"2";"1";"1";"2014-09-29 14:47:46.909";"2014-09-29 15:06:09.564";"1";"0";"1";"94";"93";"module.training_block3.exec-5828.GoNoGo3";;;;;;;;;;;;;;;;;;;;;;;;;;;;;;;;;;;;;;;;;;;;;;;"1250";"2014-09-29 14:55:05.467";"NST_correctLoc";"20";"0";"FINISHED";"LEFT";"success";"301";"0";"2014-09-29 14:55:04.217";"3";;;;;;;;;;;;;;;;;;;;;;;;;;;;;;;;;
"diff130";"1995";;"Windows 7";"Rachel's Experiment (D.T.)";"1.0";"2";"1";"1";"2";"1";"1";"2014-09-29 14:47:46.909";"2014-09-29 15:06:09.564";"1";"0";"1";"95";"94";"module.training_block3.exec-5828.GoNoGo3";;;;;;;;;;;;;;;;;;;;;;;;;;;;;;;;;;;;;;;;;;;;;;;"1250";"2014-09-29 14:55:08.003";"NST_correctLoc";"11";"1";"FINISHED";"RIGHT";"success";"364";"0";"2014-09-29 14:55:06.753";"2";;;;;;;;;;;;;;;;;;;;;;;;;;;;;;;;;
"diff130";"1995";;"Windows 7";"Rachel's Experiment (D.T.)";"1.0";"2";"1";"1";"2";"1";"1";"2014-09-29 14:47:46.909";"2014-09-29 15:06:09.564";"1";"0";"1";"96";"95";"module.training_block3.exec-5828.GoNoGo3";;;;;;;;;;;;;;;;;;;;;;;;;;;;;;;;;;;;;;;;;;;;;;;"1250";"2014-09-29 14:55:10.539";"NST_correctLoc";"8";"0";"FINISHED";"LEFT";"success";"337";"0";"2014-09-29 14:55:09.289";"1";;;;;;;;;;;;;;;;;;;;;;;;;;;;;;;;;
"diff130";"1995";;"Windows 7";"Rachel's Experiment (D.T.)";"1.0";"2";"1";"1";"2";"1";"1";"2014-09-29 14:47:46.909";"2014-09-29 15:06:09.564";"1";"0";"1";"97";"96";"module.training_block3.exec-5828.GoNoGo3";;;;;;;;;;;;;;;;;;;;;;;;;;;;;;;;;;;;;;;;;;;;;;;"1249";"2014-09-29 14:55:13.076";"NST_correctLoc";"31";"1";"FINISHED";"RIGHT";"success";"635";"0";"2014-09-29 14:55:11.826";"3";;;;;;;;;;;;;;;;;;;;;;;;;;;;;;;;;
"diff130";"1995";;"Windows 7";"Rachel's Experiment (D.T.)";"1.0";"2";"1";"1";"2";"1";"1";"2014-09-29 14:47:46.909";"2014-09-29 15:06:09.564";"1";"0";"1";"98";"97";"module.training_block3.exec-5828.GoNoGo3";;;;;;;;;;;;;;;;;;;;;;;;;;;;;;;;;;;;;;;;;;;;;;;"1250";"2014-09-29 14:55:15.616";"NST_correctLoc";"33";"0";"FINISHED";"LEFT";"success";"545";"0";"2014-09-29 14:55:14.366";"3";;;;;;;;;;;;;;;;;;;;;;;;;;;;;;;;;
"diff130";"1995";;"Windows 7";"Rachel's Experiment (D.T.)";"1.0";"2";"1";"1";"2";"1";"1";"2014-09-29 14:47:46.909";"2014-09-29 15:06:09.564";"1";"0";"1";"99";"98";"module.training_block3.exec-5828.GoNoGo3";;;;;;;;;;;;;;;;;;;;;;;;;;;;;;;;;;;;;;;;;;;;;;;"1249";"2014-09-29 14:55:18.209";"NST_correctLoc";"24";"0";"FINISHED";"LEFT";"success";"599";"0";"2014-09-29 14:55:16.959";"3";;;;;;;;;;;;;;;;;;;;;;;;;;;;;;;;;
"diff130";"1995";;"Windows 7";"Rachel's Experiment (D.T.)";"1.0";"2";"1";"1";"2";"1";"1";"2014-09-29 14:47:46.909";"2014-09-29 15:06:09.564";"1";"0";"1";"100";"99";"module.training_block3.exec-5828.GoNoGo3";;;;;;;;;;;;;;;;;;;;;;;;;;;;;;;;;;;;;;;;;;;;;;;"1249";"2014-09-29 14:55:20.745";"NST_correctLoc";"30";"0";"FINISHED";"LEFT";"success";"653";"0";"2014-09-29 14:55:19.494";"3";;;;;;;;;;;;;;;;;;;;;;;;;;;;;;;;;
"diff130";"1995";;"Windows 7";"Rachel's Experiment (D.T.)";"1.0";"2";"1";"1";"2";"1";"1";"2014-09-29 14:47:46.909";"2014-09-29 15:06:09.564";"1";"0";"1";"101";"100";"module.training_block3.exec-5828.GoNoGo3";;;;;;;;;;;;;;;;;;;;;;;;;;;;;;;;;;;;;;;;;;;;;;;"1250";"2014-09-29 14:55:23.281";"NST_correctLoc";"34";"0";"FINISHED";"LEFT";"success";"707";"0";"2014-09-29 14:55:22.031";"3";;;;;;;;;;;;;;;;;;;;;;;;;;;;;;;;;
"diff130";"1995";;"Windows 7";"Rachel's Experiment (D.T.)";"1.0";"2";"1";"1";"2";"1";"1";"2014-09-29 14:47:46.909";"2014-09-29 15:06:09.564";"1";"0";"1";"102";"101";"module.training_block3.exec-5828.GoNoGo3";;;;;;;;;;;;;;;;;;;;;;;;;;;;;;;;;;;;;;;;;;;;;;;"1249";"2014-09-29 14:55:25.821";"NST_correctLoc";"3";"0";"FINISHED";"LEFT";"success";"435";"0";"2014-09-29 14:55:24.571";"1";;;;;;;;;;;;;;;;;;;;;;;;;;;;;;;;;
"diff130";"1995";;"Windows 7";"Rachel's Experiment (D.T.)";"1.0";"2";"1";"1";"2";"1";"1";"2014-09-29 14:47:46.909";"2014-09-29 15:06:09.564";"1";"0";"1";"103";"102";"module.training_block3.exec-5828.GoNoGo3";;;;;;;;;;;;;;;;;;;;;;;;;;;;;;;;;;;;;;;;;;;;;;;"1249";"2014-09-29 14:55:28.356";"NST_correctLoc";"21";"1";"FINISHED";"RIGHT";"success";"428";"0";"2014-09-29 14:55:27.106";"3";;;;;;;;;;;;;;;;;;;;;;;;;;;;;;;;;
"diff130";"1995";;"Windows 7";"Rachel's Experiment (D.T.)";"1.0";"2";"1";"1";"2";"1";"1";"2014-09-29 14:47:46.909";"2014-09-29 15:06:09.564";"1";"0";"1";"104";"103";"module.training_block3.exec-5828.GoNoGo3";;;;;;;;;;;;;;;;;;;;;;;;;;;;;;;;;;;;;;;;;;;;;;;"1250";"2014-09-29 14:55:30.894";"NST_correctLoc";"19";"0";"FINISHED";"LEFT";"success";"317";"0";"2014-09-29 14:55:29.644";"3";;;;;;;;;;;;;;;;;;;;;;;;;;;;;;;;;
"diff130";"1995";;"Windows 7";"Rachel's Experiment (D.T.)";"1.0";"2";"1";"1";"2";"1";"1";"2014-09-29 14:47:46.909";"2014-09-29 15:06:09.564";"1";"0";"1";"105";"104";"module.training_block3.exec-5828.GoNoGo3";;;;;;;;;;;;;;;;;;;;;;;;;;;;;;;;;;;;;;;;;;;;;;;"1249";"2014-09-29 14:55:33.438";"NST_correctLoc";"29";"0";"FINISHED";"LEFT";"success";"375";"0";"2014-09-29 14:55:32.188";"3";;;;;;;;;;;;;;;;;;;;;;;;;;;;;;;;;
"diff130";"1995";;"Windows 7";"Rachel's Experiment (D.T.)";"1.0";"2";"1";"1";"2";"1";"1";"2014-09-29 14:47:46.909";"2014-09-29 15:06:09.564";"1";"0";"1";"106";"105";"module.training_block3.exec-5828.GoNoGo3";;;;;;;;;;;;;;;;;;;;;;;;;;;;;;;;;;;;;;;;;;;;;;;"1250";"2014-09-29 14:55:35.974";"NST_correctLoc";"18";"0";"FINISHED";"LEFT";"success";"331";"0";"2014-09-29 14:55:34.724";"3";;;;;;;;;;;;;;;;;;;;;;;;;;;;;;;;;
"diff130";"1995";;"Windows 7";"Rachel's Experiment (D.T.)";"1.0";"2";"1";"1";"2";"1";"1";"2014-09-29 14:47:46.909";"2014-09-29 15:06:09.564";"1";"0";"1";"107";"106";"module.training_block3.exec-5828.GoNoGo3";;;;;;;;;;;;;;;;;;;;;;;;;;;;;;;;;;;;;;;;;;;;;;;"1249";"2014-09-29 14:55:38.514";"NST_correctLoc";"32";"1";"FINISHED";"RIGHT";"success";"298";"0";"2014-09-29 14:55:37.263";"3";;;;;;;;;;;;;;;;;;;;;;;;;;;;;;;;;
"diff130";"1995";;"Windows 7";"Rachel's Experiment (D.T.)";"1.0";"2";"1";"1";"2";"1";"1";"2014-09-29 14:47:46.909";"2014-09-29 15:06:09.564";"1";"0";"1";"108";"107";"module.training_block3.exec-5828.GoNoGo3";;;;;;;;;;;;;;;;;;;;;;;;;;;;;;;;;;;;;;;;;;;;;;;"1249";"2014-09-29 14:55:41.049";"NST_correctLoc";"22";"0";"FINISHED";"LEFT";"success";"344";"0";"2014-09-29 14:55:39.799";"3";;;;;;;;;;;;;;;;;;;;;;;;;;;;;;;;;
"diff130";"1995";;"Windows 7";"Rachel's Experiment (D.T.)";"1.0";"2";"1";"1";"2";"1";"1";"2014-09-29 14:47:46.909";"2014-09-29 15:06:09.564";"1";"0";"1";"109";"108";"module.training_block3.exec-5828.GoNoGo3";;;;;;;;;;;;;;;;;;;;;;;;;;;;;;;;;;;;;;;;;;;;;;;"1249";"2014-09-29 14:55:43.583";"NST_correctLoc";"4";"1";"FINISHED";"RIGHT";"success";"346";"0";"2014-09-29 14:55:42.333";"1";;;;;;;;;;;;;;;;;;;;;;;;;;;;;;;;;
"diff130";"1995";;"Windows 7";"Rachel's Experiment (D.T.)";"1.0";"2";"1";"1";"2";"1";"1";"2014-09-29 14:47:46.909";"2014-09-29 15:06:09.564";"1";"0";"1";"110";"109";"module.training_block3.exec-5828.GoNoGo3";;;;;;;;;;;;;;;;;;;;;;;;;;;;;;;;;;;;;;;;;;;;;;;"1249";"2014-09-29 14:55:46.118";"NST_correctLoc";"16";"0";"FINISHED";"LEFT";"success";"326";"0";"2014-09-29 14:55:44.868";"2";;;;;;;;;;;;;;;;;;;;;;;;;;;;;;;;;
"diff130";"1995";;"Windows 7";"Rachel's Experiment (D.T.)";"1.0";"2";"1";"1";"2";"1";"1";"2014-09-29 14:47:46.909";"2014-09-29 15:06:09.564";"1";"0";"1";"111";"110";"module.training_block3.exec-5828.GoNoGo3";;;;;;;;;;;;;;;;;;;;;;;;;;;;;;;;;;;;;;;;;;;;;;;"1249";"2014-09-29 14:55:48.659";"NST_correctLoc";"6";"1";"FINISHED";"RIGHT";"success";"308";"0";"2014-09-29 14:55:47.409";"1";;;;;;;;;;;;;;;;;;;;;;;;;;;;;;;;;
"diff130";"1995";;"Windows 7";"Rachel's Experiment (D.T.)";"1.0";"2";"1";"1";"2";"1";"1";"2014-09-29 14:47:46.909";"2014-09-29 15:06:09.564";"1";"0";"1";"112";"111";"module.training_block3.exec-5828.GoNoGo3";;;;;;;;;;;;;;;;;;;;;;;;;;;;;;;;;;;;;;;;;;;;;;;"1249";"2014-09-29 14:55:51.196";"NST_correctLoc";"1";"0";"FINISHED";"LEFT";"success";"337";"0";"2014-09-29 14:55:49.946";"1";;;;;;;;;;;;;;;;;;;;;;;;;;;;;;;;;
"diff130";"1995";;"Windows 7";"Rachel's Experiment (D.T.)";"1.0";"2";"1";"1";"2";"1";"1";"2014-09-29 14:47:46.909";"2014-09-29 15:06:09.564";"1";"0";"1";"113";"112";"module.training_block3.exec-5828.GoNoGo3";;;;;;;;;;;;;;;;;;;;;;;;;;;;;;;;;;;;;;;;;;;;;;;"1250";"2014-09-29 14:55:53.741";"NST_correctLoc";"14";"1";"FINISHED";"RIGHT";"success";"337";"0";"2014-09-29 14:55:52.491";"2";;;;;;;;;;;;;;;;;;;;;;;;;;;;;;;;;
"diff130";"1995";;"Windows 7";"Rachel's Experiment (D.T.)";"1.0";"2";"1";"1";"2";"1";"1";"2014-09-29 14:47:46.909";"2014-09-29 15:06:09.564";"1";"0";"1";"114";"113";"module.training_block3.exec-5828.GoNoGo3";;;;;;;;;;;;;;;;;;;;;;;;;;;;;;;;;;;;;;;;;;;;;;;"1249";"2014-09-29 14:55:56.297";"NST_correctLoc";"10";"1";"FINISHED";"RIGHT";"success";"331";"0";"2014-09-29 14:55:55.046";"2";;;;;;;;;;;;;;;;;;;;;;;;;;;;;;;;;
"diff130";"1995";;"Windows 7";"Rachel's Experiment (D.T.)";"1.0";"2";"1";"1";"2";"1";"1";"2014-09-29 14:47:46.909";"2014-09-29 15:06:09.564";"1";"0";"1";"115";"114";"module.training_block3.exec-5828.GoNoGo3";;;;;;;;;;;;;;;;;;;;;;;;;;;;;;;;;;;;;;;;;;;;;;;"1250";"2014-09-29 14:55:58.841";"NST_correctLoc";"17";"0";"FINISHED";"LEFT";"success";"334";"0";"2014-09-29 14:55:57.591";"2";;;;;;;;;;;;;;;;;;;;;;;;;;;;;;;;;
"diff130";"1995";;"Windows 7";"Rachel's Experiment (D.T.)";"1.0";"2";"1";"1";"2";"1";"1";"2014-09-29 14:47:46.909";"2014-09-29 15:06:09.564";"1";"0";"1";"116";"115";"module.training_block3.exec-5828.GoNoGo3";;;;;;;;;;;;;;;;;;;;;;;;;;;;;;;;;;;;;;;;;;;;;;;"1250";"2014-09-29 14:56:01.378";"NST_correctLoc";"28";"0";"FINISHED";"LEFT";"success";"328";"0";"2014-09-29 14:56:00.128";"3";;;;;;;;;;;;;;;;;;;;;;;;;;;;;;;;;
"diff130";"1995";;"Windows 7";"Rachel's Experiment (D.T.)";"1.0";"2";"1";"1";"2";"1";"1";"2014-09-29 14:47:46.909";"2014-09-29 15:06:09.564";"1";"0";"1";"117";"116";"module.training_block3.exec-5828.GoNoGo3";;;;;;;;;;;;;;;;;;;;;;;;;;;;;;;;;;;;;;;;;;;;;;;"1250";"2014-09-29 14:56:03.912";"NST_correctLoc";"27";"0";"FINISHED";"LEFT";"success";"334";"0";"2014-09-29 14:56:02.662";"3";;;;;;;;;;;;;;;;;;;;;;;;;;;;;;;;;
"diff130";"1995";;"Windows 7";"Rachel's Experiment (D.T.)";"1.0";"2";"1";"1";"2";"1";"1";"2014-09-29 14:47:46.909";"2014-09-29 15:06:09.564";"1";"0";"1";"118";"117";"module.training_block3.exec-5828.GoNoGo3";;;;;;;;;;;;;;;;;;;;;;;;;;;;;;;;;;;;;;;;;;;;;;;"1249";"2014-09-29 14:56:06.449";"NST_correctLoc";"15";"0";"FINISHED";"LEFT";"success";"495";"0";"2014-09-29 14:56:05.199";"2";;;;;;;;;;;;;;;;;;;;;;;;;;;;;;;;;
"diff130";"1995";;"Windows 7";"Rachel's Experiment (D.T.)";"1.0";"2";"1";"1";"2";"1";"1";"2014-09-29 14:47:46.909";"2014-09-29 15:06:09.564";"1";"0";"1";"119";"118";"module.training_block3.exec-5828.GoNoGo3";;;;;;;;;;;;;;;;;;;;;;;;;;;;;;;;;;;;;;;;;;;;;;;"1249";"2014-09-29 14:56:08.983";"NST_correctLoc";"9";"1";"FINISHED";"RIGHT";"success";"487";"0";"2014-09-29 14:56:07.733";"2";;;;;;;;;;;;;;;;;;;;;;;;;;;;;;;;;
"diff130";"1995";;"Windows 7";"Rachel's Experiment (D.T.)";"1.0";"2";"1";"1";"2";"1";"1";"2014-09-29 14:47:46.909";"2014-09-29 15:06:09.564";"1";"0";"1";"120";"119";"module.training_block3.exec-5828.GoNoGo3";;;;;;;;;;;;;;;;;;;;;;;;;;;;;;;;;;;;;;;;;;;;;;;"1250";"2014-09-29 14:56:11.519";"NST_correctLoc";"26";"0";"FINISHED";"LEFT";"success";"456";"0";"2014-09-29 14:56:10.269";"3";;;;;;;;;;;;;;;;;;;;;;;;;;;;;;;;;
"diff130";"1995";;"Windows 7";"Rachel's Experiment (D.T.)";"1.0";"2";"1";"1";"2";"1";"1";"2014-09-29 14:47:46.909";"2014-09-29 15:06:09.564";"1";"0";"1";"121";"120";"module.training_block3.exec-5828.GoNoGo3";;;;;;;;;;;;;;;;;;;;;;;;;;;;;;;;;;;;;;;;;;;;;;;"1250";"2014-09-29 14:56:14.059";"NST_correctLoc";"5";"0";"FINISHED";"LEFT";"success";"441";"0";"2014-09-29 14:56:12.808";"1";;;;;;;;;;;;;;;;;;;;;;;;;;;;;;;;;
"diff130";"1995";;"Windows 7";"Rachel's Experiment (D.T.)";"1.0";"2";"1";"1";"2";"1";"1";"2014-09-29 14:47:46.909";"2014-09-29 15:06:09.564";"1";"0";"1";"122";"121";"module.training_block3.exec-5828.GoNoGo3";;;;;;;;;;;;;;;;;;;;;;;;;;;;;;;;;;;;;;;;;;;;;;;"1252";"2014-09-29 14:56:16.592";"NST_correctLoc";"12";"0";"FINISHED";"LEFT";"success";"349";"0";"2014-09-29 14:56:15.341";"2";;;;;;;;;;;;;;;;;;;;;;;;;;;;;;;;;
"diff130";"1995";;"Windows 7";"Rachel's Experiment (D.T.)";"1.0";"2";"1";"1";"2";"1";"1";"2014-09-29 14:47:46.909";"2014-09-29 15:06:09.564";"1";"0";"1";"123";"122";"module.training_block3.exec-5828.GoNoGo3";;;;;;;;;;;;;;;;;;;;;;;;;;;;;;;;;;;;;;;;;;;;;;;"1250";"2014-09-29 14:56:19.148";"NST_correctLoc";"2";"0";"FINISHED";"LEFT";"success";"343";"0";"2014-09-29 14:56:17.898";"1";;;;;;;;;;;;;;;;;;;;;;;;;;;;;;;;;
"diff130";"1995";;"Windows 7";"Rachel's Experiment (D.T.)";"1.0";"2";"1";"1";"2";"1";"1";"2014-09-29 14:47:46.909";"2014-09-29 15:06:09.564";"1";"0";"1";"124";"123";"module.training_block4.exec-3398.GoNoGo4";;;;;;;;;;;;;;;;;;;;;;;;;;;;;;;;;;;;;;;;;;;;;;;;;;;;;;;;;;;"1249";"2014-09-29 14:56:45.676";"NST_correctLoc";"4";"1";"FINISHED";"RIGHT";"success";"594";"0";"2014-09-29 14:56:44.426";"1";;;;;;;;;;;;;;;;;;;;;
"diff130";"1995";;"Windows 7";"Rachel's Experiment (D.T.)";"1.0";"2";"1";"1";"2";"1";"1";"2014-09-29 14:47:46.909";"2014-09-29 15:06:09.564";"1";"0";"1";"125";"124";"module.training_block4.exec-3398.GoNoGo4";;;;;;;;;;;;;;;;;;;;;;;;;;;;;;;;;;;;;;;;;;;;;;;;;;;;;;;;;;;"1249";"2014-09-29 14:56:48.214";"NST_correctLoc";"1";"0";"FINISHED";"LEFT";"success";"790";"0";"2014-09-29 14:56:46.963";"1";;;;;;;;;;;;;;;;;;;;;
"diff130";"1995";;"Windows 7";"Rachel's Experiment (D.T.)";"1.0";"2";"1";"1";"2";"1";"1";"2014-09-29 14:47:46.909";"2014-09-29 15:06:09.564";"1";"0";"1";"126";"125";"module.training_block4.exec-3398.GoNoGo4";;;;;;;;;;;;;;;;;;;;;;;;;;;;;;;;;;;;;;;;;;;;;;;;;;;;;;;;;;;"1250";"2014-09-29 14:56:50.798";"NST_correctLoc";"34";"1";"FINISHED";"RIGHT";"success";"543";"0";"2014-09-29 14:56:49.548";"3";;;;;;;;;;;;;;;;;;;;;
"diff130";"1995";;"Windows 7";"Rachel's Experiment (D.T.)";"1.0";"2";"1";"1";"2";"1";"1";"2014-09-29 14:47:46.909";"2014-09-29 15:06:09.564";"1";"0";"1";"127";"126";"module.training_block4.exec-3398.GoNoGo4";;;;;;;;;;;;;;;;;;;;;;;;;;;;;;;;;;;;;;;;;;;;;;;;;;;;;;;;;;;"1249";"2014-09-29 14:56:53.329";"NST_correctLoc";"14";"1";"FINISHED";"RIGHT";"success";"671";"0";"2014-09-29 14:56:52.079";"2";;;;;;;;;;;;;;;;;;;;;
"diff130";"1995";;"Windows 7";"Rachel's Experiment (D.T.)";"1.0";"2";"1";"1";"2";"1";"1";"2014-09-29 14:47:46.909";"2014-09-29 15:06:09.564";"1";"0";"1";"128";"127";"module.training_block4.exec-3398.GoNoGo4";;;;;;;;;;;;;;;;;;;;;;;;;;;;;;;;;;;;;;;;;;;;;;;;;;;;;;;;;;;"1250";"2014-09-29 14:56:55.862";"NST_correctLoc";"16";"0";"FINISHED";"LEFT";"success";"450";"0";"2014-09-29 14:56:54.612";"2";;;;;;;;;;;;;;;;;;;;;
"diff130";"1995";;"Windows 7";"Rachel's Experiment (D.T.)";"1.0";"2";"1";"1";"2";"1";"1";"2014-09-29 14:47:46.909";"2014-09-29 15:06:09.564";"1";"0";"1";"129";"128";"module.training_block4.exec-3398.GoNoGo4";;;;;;;;;;;;;;;;;;;;;;;;;;;;;;;;;;;;;;;;;;;;;;;;;;;;;;;;;;;"1250";"2014-09-29 14:56:58.396";"NST_correctLoc";"7";"0";"FINISHED";"LEFT";"success";"362";"0";"2014-09-29 14:56:57.145";"1";;;;;;;;;;;;;;;;;;;;;
"diff130";"1995";;"Windows 7";"Rachel's Experiment (D.T.)";"1.0";"2";"1";"1";"2";"1";"1";"2014-09-29 14:47:46.909";"2014-09-29 15:06:09.564";"1";"0";"1";"130";"129";"module.training_block4.exec-3398.GoNoGo4";;;;;;;;;;;;;;;;;;;;;;;;;;;;;;;;;;;;;;;;;;;;;;;;;;;;;;;;;;;"1250";"2014-09-29 14:57:00.923";"NST_correctLoc";"22";"0";"FINISHED";"LEFT";"success";"391";"0";"2014-09-29 14:56:59.673";"3";;;;;;;;;;;;;;;;;;;;;
"diff130";"1995";;"Windows 7";"Rachel's Experiment (D.T.)";"1.0";"2";"1";"1";"2";"1";"1";"2014-09-29 14:47:46.909";"2014-09-29 15:06:09.564";"1";"0";"1";"131";"130";"module.training_block4.exec-3398.GoNoGo4";;;;;;;;;;;;;;;;;;;;;;;;;;;;;;;;;;;;;;;;;;;;;;;;;;;;;;;;;;;"1249";"2014-09-29 14:57:03.455";"NST_correctLoc";"17";"0";"FINISHED";"LEFT";"success";"369";"0";"2014-09-29 14:57:02.205";"2";;;;;;;;;;;;;;;;;;;;;
"diff130";"1995";;"Windows 7";"Rachel's Experiment (D.T.)";"1.0";"2";"1";"1";"2";"1";"1";"2014-09-29 14:47:46.909";"2014-09-29 15:06:09.564";"1";"0";"1";"132";"131";"module.training_block4.exec-3398.GoNoGo4";;;;;;;;;;;;;;;;;;;;;;;;;;;;;;;;;;;;;;;;;;;;;;;;;;;;;;;;;;;"1249";"2014-09-29 14:57:05.986";"NST_correctLoc";"29";"0";"FINISHED";"LEFT";"success";"353";"0";"2014-09-29 14:57:04.735";"3";;;;;;;;;;;;;;;;;;;;;
"diff130";"1995";;"Windows 7";"Rachel's Experiment (D.T.)";"1.0";"2";"1";"1";"2";"1";"1";"2014-09-29 14:47:46.909";"2014-09-29 15:06:09.564";"1";"0";"1";"133";"132";"module.training_block4.exec-3398.GoNoGo4";;;;;;;;;;;;;;;;;;;;;;;;;;;;;;;;;;;;;;;;;;;;;;;;;;;;;;;;;;;"1249";"2014-09-29 14:57:08.526";"NST_correctLoc";"33";"0";"FINISHED";"LEFT";"success";"383";"0";"2014-09-29 14:57:07.276";"3";;;;;;;;;;;;;;;;;;;;;
"diff130";"1995";;"Windows 7";"Rachel's Experiment (D.T.)";"1.0";"2";"1";"1";"2";"1";"1";"2014-09-29 14:47:46.909";"2014-09-29 15:06:09.564";"1";"0";"1";"134";"133";"module.training_block4.exec-3398.GoNoGo4";;;;;;;;;;;;;;;;;;;;;;;;;;;;;;;;;;;;;;;;;;;;;;;;;;;;;;;;;;;"1249";"2014-09-29 14:57:11.058";"NST_correctLoc";"8";"1";"FINISHED";"RIGHT";"success";"366";"0";"2014-09-29 14:57:09.808";"1";;;;;;;;;;;;;;;;;;;;;
"diff130";"1995";;"Windows 7";"Rachel's Experiment (D.T.)";"1.0";"2";"1";"1";"2";"1";"1";"2014-09-29 14:47:46.909";"2014-09-29 15:06:09.564";"1";"0";"1";"135";"134";"module.training_block4.exec-3398.GoNoGo4";;;;;;;;;;;;;;;;;;;;;;;;;;;;;;;;;;;;;;;;;;;;;;;;;;;;;;;;;;;"1249";"2014-09-29 14:57:13.589";"NST_correctLoc";"3";"1";"FINISHED";"RIGHT";"success";"334";"0";"2014-09-29 14:57:12.339";"1";;;;;;;;;;;;;;;;;;;;;
"diff130";"1995";;"Windows 7";"Rachel's Experiment (D.T.)";"1.0";"2";"1";"1";"2";"1";"1";"2014-09-29 14:47:46.909";"2014-09-29 15:06:09.564";"1";"0";"1";"136";"135";"module.training_block4.exec-3398.GoNoGo4";;;;;;;;;;;;;;;;;;;;;;;;;;;;;;;;;;;;;;;;;;;;;;;;;;;;;;;;;;;"1249";"2014-09-29 14:57:16.139";"NST_correctLoc";"10";"1";"FINISHED";"RIGHT";"success";"312";"0";"2014-09-29 14:57:14.889";"2";;;;;;;;;;;;;;;;;;;;;
"diff130";"1995";;"Windows 7";"Rachel's Experiment (D.T.)";"1.0";"2";"1";"1";"2";"1";"1";"2014-09-29 14:47:46.909";"2014-09-29 15:06:09.564";"1";"0";"1";"137";"136";"module.training_block4.exec-3398.GoNoGo4";;;;;;;;;;;;;;;;;;;;;;;;;;;;;;;;;;;;;;;;;;;;;;;;;;;;;;;;;;;"1250";"2014-09-29 14:57:18.672";"NST_correctLoc";"19";"1";"FINISHED";"RIGHT";"success";"324";"0";"2014-09-29 14:57:17.421";"3";;;;;;;;;;;;;;;;;;;;;
"diff130";"1995";;"Windows 7";"Rachel's Experiment (D.T.)";"1.0";"2";"1";"1";"2";"1";"1";"2014-09-29 14:47:46.909";"2014-09-29 15:06:09.564";"1";"0";"1";"138";"137";"module.training_block4.exec-3398.GoNoGo4";;;;;;;;;;;;;;;;;;;;;;;;;;;;;;;;;;;;;;;;;;;;;;;;;;;;;;;;;;;"1249";"2014-09-29 14:57:21.222";"NST_correctLoc";"31";"0";"FINISHED";"LEFT";"success";"308";"0";"2014-09-29 14:57:19.972";"3";;;;;;;;;;;;;;;;;;;;;
"diff130";"1995";;"Windows 7";"Rachel's Experiment (D.T.)";"1.0";"2";"1";"1";"2";"1";"1";"2014-09-29 14:47:46.909";"2014-09-29 15:06:09.564";"1";"0";"1";"139";"138";"module.training_block4.exec-3398.GoNoGo4";;;;;;;;;;;;;;;;;;;;;;;;;;;;;;;;;;;;;;;;;;;;;;;;;;;;;;;;;;;"1250";"2014-09-29 14:57:23.764";"NST_correctLoc";"28";"0";"FINISHED";"LEFT";"success";"346";"0";"2014-09-29 14:57:22.513";"3";;;;;;;;;;;;;;;;;;;;;
"diff130";"1995";;"Windows 7";"Rachel's Experiment (D.T.)";"1.0";"2";"1";"1";"2";"1";"1";"2014-09-29 14:47:46.909";"2014-09-29 15:06:09.564";"1";"0";"1";"140";"139";"module.training_block4.exec-3398.GoNoGo4";;;;;;;;;;;;;;;;;;;;;;;;;;;;;;;;;;;;;;;;;;;;;;;;;;;;;;;;;;;"1249";"2014-09-29 14:57:26.317";"NST_correctLoc";"2";"0";"FINISHED";"LEFT";"success";"348";"0";"2014-09-29 14:57:25.067";"1";;;;;;;;;;;;;;;;;;;;;
"diff130";"1995";;"Windows 7";"Rachel's Experiment (D.T.)";"1.0";"2";"1";"1";"2";"1";"1";"2014-09-29 14:47:46.909";"2014-09-29 15:06:09.564";"1";"0";"1";"141";"140";"module.training_block4.exec-3398.GoNoGo4";;;;;;;;;;;;;;;;;;;;;;;;;;;;;;;;;;;;;;;;;;;;;;;;;;;;;;;;;;;"1249";"2014-09-29 14:57:28.849";"NST_correctLoc";"23";"0";"FINISHED";"LEFT";"success";"342";"0";"2014-09-29 14:57:27.599";"3";;;;;;;;;;;;;;;;;;;;;
"diff130";"1995";;"Windows 7";"Rachel's Experiment (D.T.)";"1.0";"2";"1";"1";"2";"1";"1";"2014-09-29 14:47:46.909";"2014-09-29 15:06:09.564";"1";"0";"1";"142";"141";"module.training_block4.exec-3398.GoNoGo4";;;;;;;;;;;;;;;;;;;;;;;;;;;;;;;;;;;;;;;;;;;;;;;;;;;;;;;;;;;"1249";"2014-09-29 14:57:31.381";"NST_correctLoc";"26";"1";"FINISHED";"RIGHT";"success";"317";"0";"2014-09-29 14:57:30.131";"3";;;;;;;;;;;;;;;;;;;;;
"diff130";"1995";;"Windows 7";"Rachel's Experiment (D.T.)";"1.0";"2";"1";"1";"2";"1";"1";"2014-09-29 14:47:46.909";"2014-09-29 15:06:09.564";"1";"0";"1";"143";"142";"module.training_block4.exec-3398.GoNoGo4";;;;;;;;;;;;;;;;;;;;;;;;;;;;;;;;;;;;;;;;;;;;;;;;;;;;;;;;;;;"1252";"2014-09-29 14:57:33.915";"NST_correctLoc";"12";"0";"FINISHED";"LEFT";"success";"319";"0";"2014-09-29 14:57:32.663";"2";;;;;;;;;;;;;;;;;;;;;
"diff130";"1995";;"Windows 7";"Rachel's Experiment (D.T.)";"1.0";"2";"1";"1";"2";"1";"1";"2014-09-29 14:47:46.909";"2014-09-29 15:06:09.564";"1";"0";"1";"144";"143";"module.training_block4.exec-3398.GoNoGo4";;;;;;;;;;;;;;;;;;;;;;;;;;;;;;;;;;;;;;;;;;;;;;;;;;;;;;;;;;;"1253";"2014-09-29 14:57:36.451";"NST_correctLoc";"30";"1";"FINISHED";"RIGHT";"success";"330";"0";"2014-09-29 14:57:35.197";"3";;;;;;;;;;;;;;;;;;;;;
"diff130";"1995";;"Windows 7";"Rachel's Experiment (D.T.)";"1.0";"2";"1";"1";"2";"1";"1";"2014-09-29 14:47:46.909";"2014-09-29 15:06:09.564";"1";"0";"1";"145";"144";"module.training_block4.exec-3398.GoNoGo4";;;;;;;;;;;;;;;;;;;;;;;;;;;;;;;;;;;;;;;;;;;;;;;;;;;;;;;;;;;"1250";"2014-09-29 14:57:38.982";"NST_correctLoc";"32";"1";"FINISHED";"RIGHT";"success";"304";"0";"2014-09-29 14:57:37.732";"3";;;;;;;;;;;;;;;;;;;;;
"diff130";"1995";;"Windows 7";"Rachel's Experiment (D.T.)";"1.0";"2";"1";"1";"2";"1";"1";"2014-09-29 14:47:46.909";"2014-09-29 15:06:09.564";"1";"0";"1";"146";"145";"module.training_block4.exec-3398.GoNoGo4";;;;;;;;;;;;;;;;;;;;;;;;;;;;;;;;;;;;;;;;;;;;;;;;;;;;;;;;;;;"1249";"2014-09-29 14:57:41.522";"NST_correctLoc";"20";"0";"FINISHED";"LEFT";"success";"318";"0";"2014-09-29 14:57:40.271";"3";;;;;;;;;;;;;;;;;;;;;
"diff130";"1995";;"Windows 7";"Rachel's Experiment (D.T.)";"1.0";"2";"1";"1";"2";"1";"1";"2014-09-29 14:47:46.909";"2014-09-29 15:06:09.564";"1";"0";"1";"147";"146";"module.training_block4.exec-3398.GoNoGo4";;;;;;;;;;;;;;;;;;;;;;;;;;;;;;;;;;;;;;;;;;;;;;;;;;;;;;;;;;;"1249";"2014-09-29 14:57:44.056";"NST_correctLoc";"15";"0";"FINISHED";"LEFT";"success";"325";"0";"2014-09-29 14:57:42.806";"2";;;;;;;;;;;;;;;;;;;;;
"diff130";"1995";;"Windows 7";"Rachel's Experiment (D.T.)";"1.0";"2";"1";"1";"2";"1";"1";"2014-09-29 14:47:46.909";"2014-09-29 15:06:09.564";"1";"0";"1";"148";"147";"module.training_block4.exec-3398.GoNoGo4";;;;;;;;;;;;;;;;;;;;;;;;;;;;;;;;;;;;;;;;;;;;;;;;;;;;;;;;;;;"1249";"2014-09-29 14:57:46.588";"NST_correctLoc";"6";"1";"FINISHED";"RIGHT";"success";"367";"0";"2014-09-29 14:57:45.338";"1";;;;;;;;;;;;;;;;;;;;;
"diff130";"1995";;"Windows 7";"Rachel's Experiment (D.T.)";"1.0";"2";"1";"1";"2";"1";"1";"2014-09-29 14:47:46.909";"2014-09-29 15:06:09.564";"1";"0";"1";"149";"148";"module.training_block4.exec-3398.GoNoGo4";;;;;;;;;;;;;;;;;;;;;;;;;;;;;;;;;;;;;;;;;;;;;;;;;;;;;;;;;;;"1249";"2014-09-29 14:57:49.119";"NST_correctLoc";"25";"1";"FINISHED";"RIGHT";"success";"364";"0";"2014-09-29 14:57:47.869";"3";;;;;;;;;;;;;;;;;;;;;
"diff130";"1995";;"Windows 7";"Rachel's Experiment (D.T.)";"1.0";"2";"1";"1";"2";"1";"1";"2014-09-29 14:47:46.909";"2014-09-29 15:06:09.564";"1";"0";"1";"150";"149";"module.training_block4.exec-3398.GoNoGo4";;;;;;;;;;;;;;;;;;;;;;;;;;;;;;;;;;;;;;;;;;;;;;;;;;;;;;;;;;;"1249";"2014-09-29 14:57:51.660";"NST_correctLoc";"13";"1";"FINISHED";"RIGHT";"success";"363";"0";"2014-09-29 14:57:50.410";"2";;;;;;;;;;;;;;;;;;;;;
"diff130";"1995";;"Windows 7";"Rachel's Experiment (D.T.)";"1.0";"2";"1";"1";"2";"1";"1";"2014-09-29 14:47:46.909";"2014-09-29 15:06:09.564";"1";"0";"1";"151";"150";"module.training_block4.exec-3398.GoNoGo4";;;;;;;;;;;;;;;;;;;;;;;;;;;;;;;;;;;;;;;;;;;;;;;;;;;;;;;;;;;"1250";"2014-09-29 14:57:54.190";"NST_correctLoc";"5";"0";"FINISHED";"LEFT";"success";"318";"0";"2014-09-29 14:57:52.940";"1";;;;;;;;;;;;;;;;;;;;;
"diff130";"1995";;"Windows 7";"Rachel's Experiment (D.T.)";"1.0";"2";"1";"1";"2";"1";"1";"2014-09-29 14:47:46.909";"2014-09-29 15:06:09.564";"1";"0";"1";"152";"151";"module.training_block4.exec-3398.GoNoGo4";;;;;;;;;;;;;;;;;;;;;;;;;;;;;;;;;;;;;;;;;;;;;;;;;;;;;;;;;;;"1250";"2014-09-29 14:57:56.725";"NST_correctLoc";"27";"0";"FINISHED";"LEFT";"success";"333";"0";"2014-09-29 14:57:55.475";"3";;;;;;;;;;;;;;;;;;;;;
"diff130";"1995";;"Windows 7";"Rachel's Experiment (D.T.)";"1.0";"2";"1";"1";"2";"1";"1";"2014-09-29 14:47:46.909";"2014-09-29 15:06:09.564";"1";"0";"1";"153";"152";"module.training_block4.exec-3398.GoNoGo4";;;;;;;;;;;;;;;;;;;;;;;;;;;;;;;;;;;;;;;;;;;;;;;;;;;;;;;;;;;"1250";"2014-09-29 14:57:59.260";"NST_correctLoc";"18";"1";"FINISHED";"RIGHT";"success";"310";"0";"2014-09-29 14:57:58.010";"3";;;;;;;;;;;;;;;;;;;;;
"diff130";"1995";;"Windows 7";"Rachel's Experiment (D.T.)";"1.0";"2";"1";"1";"2";"1";"1";"2014-09-29 14:47:46.909";"2014-09-29 15:06:09.564";"1";"0";"1";"154";"153";"module.training_block4.exec-3398.GoNoGo4";;;;;;;;;;;;;;;;;;;;;;;;;;;;;;;;;;;;;;;;;;;;;;;;;;;;;;;;;;;"1249";"2014-09-29 14:58:01.790";"NST_correctLoc";"24";"1";"FINISHED";"RIGHT";"success";"320";"0";"2014-09-29 14:58:00.540";"3";;;;;;;;;;;;;;;;;;;;;
"diff130";"1995";;"Windows 7";"Rachel's Experiment (D.T.)";"1.0";"2";"1";"1";"2";"1";"1";"2014-09-29 14:47:46.909";"2014-09-29 15:06:09.564";"1";"0";"1";"155";"154";"module.training_block4.exec-3398.GoNoGo4";;;;;;;;;;;;;;;;;;;;;;;;;;;;;;;;;;;;;;;;;;;;;;;;;;;;;;;;;;;"1249";"2014-09-29 14:58:04.322";"NST_correctLoc";"35";"0";"FINISHED";"LEFT";"success";"340";"0";"2014-09-29 14:58:03.072";"3";;;;;;;;;;;;;;;;;;;;;
"diff130";"1995";;"Windows 7";"Rachel's Experiment (D.T.)";"1.0";"2";"1";"1";"2";"1";"1";"2014-09-29 14:47:46.909";"2014-09-29 15:06:09.564";"1";"0";"1";"156";"155";"module.training_block4.exec-3398.GoNoGo4";;;;;;;;;;;;;;;;;;;;;;;;;;;;;;;;;;;;;;;;;;;;;;;;;;;;;;;;;;;"1249";"2014-09-29 14:58:06.851";"NST_correctLoc";"0";"1";"FINISHED";"RIGHT";"success";"333";"0";"2014-09-29 14:58:05.601";"1";;;;;;;;;;;;;;;;;;;;;
"diff130";"1995";;"Windows 7";"Rachel's Experiment (D.T.)";"1.0";"2";"1";"1";"2";"1";"1";"2014-09-29 14:47:46.909";"2014-09-29 15:06:09.564";"1";"0";"1";"157";"156";"module.training_block4.exec-3398.GoNoGo4";;;;;;;;;;;;;;;;;;;;;;;;;;;;;;;;;;;;;;;;;;;;;;;;;;;;;;;;;;;"1250";"2014-09-29 14:58:09.382";"NST_correctLoc";"21";"1";"FINISHED";"RIGHT";"success";"351";"0";"2014-09-29 14:58:08.132";"3";;;;;;;;;;;;;;;;;;;;;
"diff130";"1995";;"Windows 7";"Rachel's Experiment (D.T.)";"1.0";"2";"1";"1";"2";"1";"1";"2014-09-29 14:47:46.909";"2014-09-29 15:06:09.564";"1";"0";"1";"158";"157";"module.training_block4.exec-3398.GoNoGo4";;;;;;;;;;;;;;;;;;;;;;;;;;;;;;;;;;;;;;;;;;;;;;;;;;;;;;;;;;;"1250";"2014-09-29 14:58:11.920";"NST_correctLoc";"11";"0";"FINISHED";"LEFT";"success";"330";"0";"2014-09-29 14:58:10.670";"2";;;;;;;;;;;;;;;;;;;;;
"diff130";"1995";;"Windows 7";"Rachel's Experiment (D.T.)";"1.0";"2";"1";"1";"2";"1";"1";"2014-09-29 14:47:46.909";"2014-09-29 15:06:09.564";"1";"0";"1";"159";"158";"module.training_block4.exec-3398.GoNoGo4";;;;;;;;;;;;;;;;;;;;;;;;;;;;;;;;;;;;;;;;;;;;;;;;;;;;;;;;;;;"1249";"2014-09-29 14:58:14.453";"NST_correctLoc";"9";"1";"FINISHED";"RIGHT";"success";"339";"0";"2014-09-29 14:58:13.203";"2";;;;;;;;;;;;;;;;;;;;;
"diff130";"1995";;"Windows 7";"Rachel's Experiment (D.T.)";"1.0";"2";"1";"1";"2";"1";"1";"2014-09-29 14:47:46.909";"2014-09-29 15:06:09.564";"1";"0";"1";"160";"159";"module.devaluation_practice.exec-3610.devalPractice";;;;;;;;;;;;"17088";"2014-09-29 14:59:41.141";"0";"6";"8";"7";"4215";"3873";"5911";"2014-09-29 14:59:24.052";;;;;;;;;;;;;;;;;;;;;;;;;;;;;;;;;;;;;;;;;;;;;;;;;;;;;;;;;;;;;;;;;;;;;;
"diff130";"1995";;"Windows 7";"Rachel's Experiment (D.T.)";"1.0";"2";"1";"1";"2";"1";"1";"2014-09-29 14:47:46.909";"2014-09-29 15:06:09.564";"1";"0";"1";"161";"160";"module.devaluation_practice.exec-3610.devalPractice";;;;;;;;;;;;"9973";"2014-09-29 14:59:51.150";"1";"4";"4";"5";"1778";"2333";"2834";"2014-09-29 14:59:41.177";;;;;;;;;;;;;;;;;;;;;;;;;;;;;;;;;;;;;;;;;;;;;;;;;;;;;;;;;;;;;;;;;;;;;;
"diff130";"1995";;"Windows 7";"Rachel's Experiment (D.T.)";"1.0";"2";"1";"1";"2";"1";"1";"2014-09-29 14:47:46.909";"2014-09-29 15:06:09.564";"1";"0";"1";"162";"161";"module.devaluation_practice.exec-3610.devalPractice";;;;;;;;;;;;"9546";"2014-09-29 15:00:00.734";"2";"6";"7";"7";"1741";"1272";"3315";"2014-09-29 14:59:51.187";;;;;;;;;;;;;;;;;;;;;;;;;;;;;;;;;;;;;;;;;;;;;;;;;;;;;;;;;;;;;;;;;;;;;;
"diff130";"1995";;"Windows 7";"Rachel's Experiment (D.T.)";"1.0";"2";"1";"1";"2";"1";"1";"2014-09-29 14:47:46.909";"2014-09-29 15:06:09.564";"1";"0";"1";"163";"162";"module.devaluation_practice.exec-3610.devalPractice";;;;;;;;;;;;"9624";"2014-09-29 15:00:10.410";"3";"7";"8";"8";"1434";"1562";"3280";"2014-09-29 15:00:00.786";;;;;;;;;;;;;;;;;;;;;;;;;;;;;;;;;;;;;;;;;;;;;;;;;;;;;;;;;;;;;;;;;;;;;;
"diff130";"1995";;"Windows 7";"Rachel's Experiment (D.T.)";"1.0";"2";"1";"1";"2";"1";"1";"2014-09-29 14:47:46.909";"2014-09-29 15:06:09.564";"1";"0";"1";"164";"163";"module.devaluation_block1.exec-6267.deval1";"18921";"2014-09-29 15:00:34.148";"18";"7";"8";"8";"13511";"825";"1550";"2014-09-29 15:00:15.226";"3";;;;;;;;;;;;;;;;;;;;;;;;;;;;;;;;;;;;;;;;;;;;;;;;;;;;;;;;;;;;;;;;;;;;;;;;;;;;;;;;
"diff130";"1995";;"Windows 7";"Rachel's Experiment (D.T.)";"1.0";"2";"1";"1";"2";"1";"1";"2014-09-29 14:47:46.909";"2014-09-29 15:06:09.564";"1";"0";"1";"165";"164";"module.devaluation_block1.exec-6267.deval1";"8217";"2014-09-29 15:00:42.411";"20";"8";"9";"9";"2337";"1805";"1055";"2014-09-29 15:00:34.192";"3";;;;;;;;;;;;;;;;;;;;;;;;;;;;;;;;;;;;;;;;;;;;;;;;;;;;;;;;;;;;;;;;;;;;;;;;;;;;;;;;
"diff130";"1995";;"Windows 7";"Rachel's Experiment (D.T.)";"1.0";"2";"1";"1";"2";"1";"1";"2014-09-29 14:47:46.909";"2014-09-29 15:06:09.564";"1";"0";"1";"166";"165";"module.devaluation_block1.exec-6267.deval1";"9274";"2014-09-29 15:00:51.725";"16";"4";"2";"2";"2852";"1442";"1957";"2014-09-29 15:00:42.451";"2";;;;;;;;;;;;;;;;;;;;;;;;;;;;;;;;;;;;;;;;;;;;;;;;;;;;;;;;;;;;;;;;;;;;;;;;;;;;;;;;
"diff130";"1995";;"Windows 7";"Rachel's Experiment (D.T.)";"1.0";"2";"1";"1";"2";"1";"1";"2014-09-29 14:47:46.909";"2014-09-29 15:06:09.564";"1";"0";"1";"167";"166";"module.devaluation_block1.exec-6267.deval1";"7243";"2014-09-29 15:00:59.010";"2";"6";"6";"7";"2041";"851";"1329";"2014-09-29 15:00:51.765";"1";;;;;;;;;;;;;;;;;;;;;;;;;;;;;;;;;;;;;;;;;;;;;;;;;;;;;;;;;;;;;;;;;;;;;;;;;;;;;;;;
"diff130";"1995";;"Windows 7";"Rachel's Experiment (D.T.)";"1.0";"2";"1";"1";"2";"1";"1";"2014-09-29 14:47:46.909";"2014-09-29 15:06:09.564";"1";"0";"1";"168";"167";"module.devaluation_block1.exec-6267.deval1";"7959";"2014-09-29 15:01:07.007";"24";"6";"7";"7";"1533";"806";"2560";"2014-09-29 15:00:59.048";"3";;;;;;;;;;;;;;;;;;;;;;;;;;;;;;;;;;;;;;;;;;;;;;;;;;;;;;;;;;;;;;;;;;;;;;;;;;;;;;;;
"diff130";"1995";;"Windows 7";"Rachel's Experiment (D.T.)";"1.0";"2";"1";"1";"2";"1";"1";"2014-09-29 14:47:46.909";"2014-09-29 15:06:09.564";"1";"0";"1";"169";"168";"module.devaluation_block1.exec-6267.deval1";"13845";"2014-09-29 15:01:20.893";"17";"4";"3";"4";"2732";"7245";"845";"2014-09-29 15:01:07.047";"2";;;;;;;;;;;;;;;;;;;;;;;;;;;;;;;;;;;;;;;;;;;;;;;;;;;;;;;;;;;;;;;;;;;;;;;;;;;;;;;;
"diff130";"1995";;"Windows 7";"Rachel's Experiment (D.T.)";"1.0";"2";"1";"1";"2";"1";"1";"2014-09-29 14:47:46.909";"2014-09-29 15:06:09.564";"1";"0";"1";"170";"169";"module.devaluation_block1.exec-6267.deval1";"14765";"2014-09-29 15:01:35.700";"22";"8";"8";"7";"3835";"2752";"5159";"2014-09-29 15:01:20.934";"3";;;;;;;;;;;;;;;;;;;;;;;;;;;;;;;;;;;;;;;;;;;;;;;;;;;;;;;;;;;;;;;;;;;;;;;;;;;;;;;;
"diff130";"1995";;"Windows 7";"Rachel's Experiment (D.T.)";"1.0";"2";"1";"1";"2";"1";"1";"2014-09-29 14:47:46.909";"2014-09-29 15:06:09.564";"1";"0";"1";"171";"170";"module.devaluation_block1.exec-6267.deval1";"23421";"2014-09-29 15:01:59.160";"11";"4";"4";"5";"6339";"2891";"11170";"2014-09-29 15:01:35.739";"2";;;;;;;;;;;;;;;;;;;;;;;;;;;;;;;;;;;;;;;;;;;;;;;;;;;;;;;;;;;;;;;;;;;;;;;;;;;;;;;;
"diff130";"1995";;"Windows 7";"Rachel's Experiment (D.T.)";"1.0";"2";"1";"1";"2";"1";"1";"2014-09-29 14:47:46.909";"2014-09-29 15:06:09.564";"1";"0";"1";"172";"171";"module.devaluation_block1.exec-6267.deval1";"7167";"2014-09-29 15:02:06.374";"7";"6";"7";"7";"2497";"561";"1068";"2014-09-29 15:01:59.206";"1";;;;;;;;;;;;;;;;;;;;;;;;;;;;;;;;;;;;;;;;;;;;;;;;;;;;;;;;;;;;;;;;;;;;;;;;;;;;;;;;
"diff130";"1995";;"Windows 7";"Rachel's Experiment (D.T.)";"1.0";"2";"1";"1";"2";"1";"1";"2014-09-29 14:47:46.909";"2014-09-29 15:06:09.564";"1";"0";"1";"173";"172";"module.devaluation_block1.exec-6267.deval1";"25147";"2014-09-29 15:02:31.563";"5";"7";"7";"7";"1398";"18786";"1943";"2014-09-29 15:02:06.415";"1";;;;;;;;;;;;;;;;;;;;;;;;;;;;;;;;;;;;;;;;;;;;;;;;;;;;;;;;;;;;;;;;;;;;;;;;;;;;;;;;
"diff130";"1995";;"Windows 7";"Rachel's Experiment (D.T.)";"1.0";"2";"1";"1";"2";"1";"1";"2014-09-29 14:47:46.909";"2014-09-29 15:06:09.564";"1";"0";"1";"174";"173";"module.devaluation_block1.exec-6267.deval1";"36185";"2014-09-29 15:03:07.798";"21";"6";"7";"7";"8610";"1684";"22834";"2014-09-29 15:02:31.614";"3";;;;;;;;;;;;;;;;;;;;;;;;;;;;;;;;;;;;;;;;;;;;;;;;;;;;;;;;;;;;;;;;;;;;;;;;;;;;;;;;
"diff130";"1995";;"Windows 7";"Rachel's Experiment (D.T.)";"1.0";"2";"1";"1";"2";"1";"1";"2014-09-29 14:47:46.909";"2014-09-29 15:06:09.564";"1";"0";"1";"175";"174";"module.devaluation_block1.exec-6267.deval1";"32463";"2014-09-29 15:03:40.304";"10";"6";"2";"3";"24304";"2387";"2752";"2014-09-29 15:03:07.841";"2";;;;;;;;;;;;;;;;;;;;;;;;;;;;;;;;;;;;;;;;;;;;;;;;;;;;;;;;;;;;;;;;;;;;;;;;;;;;;;;;
"diff130";"1995";;"Windows 7";"Rachel's Experiment (D.T.)";"1.0";"2";"1";"1";"2";"1";"1";"2014-09-29 14:47:46.909";"2014-09-29 15:06:09.564";"1";"0";"1";"176";"175";"module.devaluation_block1.exec-6267.deval1";"8574";"2014-09-29 15:03:48.924";"6";"6";"7";"7";"4225";"649";"683";"2014-09-29 15:03:40.349";"1";;;;;;;;;;;;;;;;;;;;;;;;;;;;;;;;;;;;;;;;;;;;;;;;;;;;;;;;;;;;;;;;;;;;;;;;;;;;;;;;
"diff130";"1995";;"Windows 7";"Rachel's Experiment (D.T.)";"1.0";"2";"1";"1";"2";"1";"1";"2014-09-29 14:47:46.909";"2014-09-29 15:06:09.564";"1";"0";"1";"177";"176";"module.devaluation_block1.exec-6267.deval1";"12639";"2014-09-29 15:04:01.611";"15";"4";"2";"3";"7902";"917";"793";"2014-09-29 15:03:48.972";"2";;;;;;;;;;;;;;;;;;;;;;;;;;;;;;;;;;;;;;;;;;;;;;;;;;;;;;;;;;;;;;;;;;;;;;;;;;;;;;;;
"diff130";"1995";;"Windows 7";"Rachel's Experiment (D.T.)";"1.0";"2";"1";"1";"2";"1";"1";"2014-09-29 14:47:46.909";"2014-09-29 15:06:09.564";"1";"0";"1";"178";"177";"module.devaluation_block1.exec-6267.deval1";"6606";"2014-09-29 15:04:08.250";"4";"7";"5";"5";"1269";"1651";"639";"2014-09-29 15:04:01.643";"1";;;;;;;;;;;;;;;;;;;;;;;;;;;;;;;;;;;;;;;;;;;;;;;;;;;;;;;;;;;;;;;;;;;;;;;;;;;;;;;;
"diff130";"1995";;"Windows 7";"Rachel's Experiment (D.T.)";"1.0";"2";"1";"1";"2";"1";"1";"2014-09-29 14:47:46.909";"2014-09-29 15:06:09.564";"1";"0";"1";"179";"178";"module.devaluation_block1.exec-6267.deval1";"7081";"2014-09-29 15:04:15.372";"1";"7";"8";"7";"1223";"980";"1859";"2014-09-29 15:04:08.292";"1";;;;;;;;;;;;;;;;;;;;;;;;;;;;;;;;;;;;;;;;;;;;;;;;;;;;;;;;;;;;;;;;;;;;;;;;;;;;;;;;
"diff130";"1995";;"Windows 7";"Rachel's Experiment (D.T.)";"1.0";"2";"1";"1";"2";"1";"1";"2014-09-29 14:47:46.909";"2014-09-29 15:06:09.564";"1";"0";"1";"180";"179";"module.devaluation_block1.exec-6267.deval1";"7280";"2014-09-29 15:04:22.698";"19";"8";"7";"7";"2705";"614";"941";"2014-09-29 15:04:15.417";"3";;;;;;;;;;;;;;;;;;;;;;;;;;;;;;;;;;;;;;;;;;;;;;;;;;;;;;;;;;;;;;;;;;;;;;;;;;;;;;;;
"diff130";"1995";;"Windows 7";"Rachel's Experiment (D.T.)";"1.0";"2";"1";"1";"2";"1";"1";"2014-09-29 14:47:46.909";"2014-09-29 15:06:09.564";"1";"0";"1";"181";"180";"module.devaluation_block1.exec-6267.deval1";"11205";"2014-09-29 15:04:33.942";"12";"5";"6";"7";"1791";"5719";"674";"2014-09-29 15:04:22.737";"2";;;;;;;;;;;;;;;;;;;;;;;;;;;;;;;;;;;;;;;;;;;;;;;;;;;;;;;;;;;;;;;;;;;;;;;;;;;;;;;;
"diff130";"1995";;"Windows 7";"Rachel's Experiment (D.T.)";"1.0";"2";"1";"1";"2";"1";"1";"2014-09-29 14:47:46.909";"2014-09-29 15:06:09.564";"1";"0";"1";"182";"181";"module.devaluation_block1.exec-6267.deval1";"6059";"2014-09-29 15:04:40.041";"9";"5";"6";"6";"763";"853";"1417";"2014-09-29 15:04:33.982";"2";;;;;;;;;;;;;;;;;;;;;;;;;;;;;;;;;;;;;;;;;;;;;;;;;;;;;;;;;;;;;;;;;;;;;;;;;;;;;;;;
"diff130";"1995";;"Windows 7";"Rachel's Experiment (D.T.)";"1.0";"2";"1";"1";"2";"1";"1";"2014-09-29 14:47:46.909";"2014-09-29 15:06:09.564";"1";"0";"1";"183";"182";"module.devaluation_block1.exec-6267.deval1";"28621";"2014-09-29 15:05:08.700";"3";"6";"7";"7";"1712";"22300";"1590";"2014-09-29 15:04:40.079";"1";;;;;;;;;;;;;;;;;;;;;;;;;;;;;;;;;;;;;;;;;;;;;;;;;;;;;;;;;;;;;;;;;;;;;;;;;;;;;;;;
"diff130";"1995";;"Windows 7";"Rachel's Experiment (D.T.)";"1.0";"2";"1";"1";"2";"1";"1";"2014-09-29 14:47:46.909";"2014-09-29 15:06:09.564";"1";"0";"1";"184";"183";"module.devaluation_block1.exec-6267.deval1";"10685";"2014-09-29 15:05:19.420";"13";"6";"6";"7";"526";"4144";"2996";"2014-09-29 15:05:08.734";"2";;;;;;;;;;;;;;;;;;;;;;;;;;;;;;;;;;;;;;;;;;;;;;;;;;;;;;;;;;;;;;;;;;;;;;;;;;;;;;;;
"diff130";"1995";;"Windows 7";"Rachel's Experiment (D.T.)";"1.0";"2";"1";"1";"2";"1";"1";"2014-09-29 14:47:46.909";"2014-09-29 15:06:09.564";"1";"0";"1";"185";"184";"module.devaluation_block1.exec-6267.deval1";"6737";"2014-09-29 15:05:26.208";"14";"6";"6";"7";"2140";"467";"1112";"2014-09-29 15:05:19.471";"2";;;;;;;;;;;;;;;;;;;;;;;;;;;;;;;;;;;;;;;;;;;;;;;;;;;;;;;;;;;;;;;;;;;;;;;;;;;;;;;;
"diff130";"1995";;"Windows 7";"Rachel's Experiment (D.T.)";"1.0";"2";"1";"1";"2";"1";"1";"2014-09-29 14:47:46.909";"2014-09-29 15:06:09.564";"1";"0";"1";"186";"185";"module.devaluation_block1.exec-6267.deval1";"9880";"2014-09-29 15:05:36.133";"23";"7";"5";"6";"2954";"1958";"1950";"2014-09-29 15:05:26.251";"3";;;;;;;;;;;;;;;;;;;;;;;;;;;;;;;;;;;;;;;;;;;;;;;;;;;;;;;;;;;;;;;;;;;;;;;;;;;;;;;;
"diff130";"1995";;"Windows 7";"Rachel's Experiment (D.T.)";"1.0";"2";"1";"1";"2";"1";"1";"2014-09-29 14:47:46.909";"2014-09-29 15:06:09.564";"1";"0";"1";"187";"186";"module.devaluation_block1.exec-6267.deval1";"7821";"2014-09-29 15:05:43.990";"26";"9";"8";"8";"2839";"655";"1306";"2014-09-29 15:05:36.169";"3";;;;;;;;;;;;;;;;;;;;;;;;;;;;;;;;;;;;;;;;;;;;;;;;;;;;;;;;;;;;;;;;;;;;;;;;;;;;;;;;
"diff130";"1995";;"Windows 7";"Rachel's Experiment (D.T.)";"1.0";"2";"1";"1";"2";"1";"1";"2014-09-29 14:47:46.909";"2014-09-29 15:06:09.564";"1";"0";"1";"188";"187";"module.devaluation_block1.exec-6267.deval1";"8783";"2014-09-29 15:05:52.815";"25";"8";"7";"8";"3689";"979";"1098";"2014-09-29 15:05:44.030";"3";;;;;;;;;;;;;;;;;;;;;;;;;;;;;;;;;;;;;;;;;;;;;;;;;;;;;;;;;;;;;;;;;;;;;;;;;;;;;;;;
"diff130";"1995";;"Windows 7";"Rachel's Experiment (D.T.)";"1.0";"2";"1";"1";"2";"1";"1";"2014-09-29 14:47:46.909";"2014-09-29 15:06:09.564";"1";"0";"1";"189";"188";"module.devaluation_block1.exec-6267.deval1";"7002";"2014-09-29 15:05:59.856";"8";"7";"6";"6";"2709";"418";"856";"2014-09-29 15:05:52.853";"1";;;;;;;;;;;;;;;;;;;;;;;;;;;;;;;;;;;;;;;;;;;;;;;;;;;;;;;;;;;;;;;;;;;;;;;;;;;;;;;;
"diff130";"1995";;"Windows 7";"Rachel's Experiment (D.T.)";"1.0";"2";"1";"1";"2";"1";"1";"2014-09-29 14:47:46.909";"2014-09-29 15:06:09.564";"1";"0";"1";"190";"189";"module.devaluation_block1.exec-6267.deval1";"6981";"2014-09-29 15:06:06.872";"0";"6";"7";"7";"806";"621";"2529";"2014-09-29 15:05:59.892";"1";;;;;;;;;;;;;;;;;;;;;;;;;;;;;;;;;;;;;;;;;;;;;;;;;;;;;;;;;;;;;;;;;;;;;;;;;;;;;;;;
