"user.name";"user.yearOfBirth";"user.sex";"user.osName";"module.name";"module.version";"module.online.subject.code";"module.online.study.id";"module.online.module.nr";"module.online.group.nr";"session.id";"session.index";"session.startTime";"session.endTime";"session.completed";"session.node-3222.conditionType";"session.node-8043.DevalQorder";"trial.id";"trial.index";"trial.name";"trial.deval1.durationTime";"trial.deval1.endTime";"trial.deval1.icon";"trial.deval1.Resp_Attractive";"trial.deval1.Resp_Eat";"trial.deval1.Resp_Taste";"trial.deval1.RT_Attractive";"trial.deval1.RT_Eat";"trial.deval1.RT_Taste";"trial.deval1.startTime";"trial.deval1.stimulus type";"trial.devalPractice.durationTime";"trial.devalPractice.endTime";"trial.devalPractice.icon";"trial.devalPractice.Resp_Attractive";"trial.devalPractice.Resp_Eat";"trial.devalPractice.Resp_Taste";"trial.devalPractice.RT_Attractive";"trial.devalPractice.RT_Eat";"trial.devalPractice.RT_Taste";"trial.devalPractice.startTime";"trial.devalPractice.stimulus type";"trial.GoNoGo1.durationTime";"trial.GoNoGo1.endTime";"trial.GoNoGo1.Error Type";"trial.GoNoGo1.icon";"trial.GoNoGo1.location";"trial.GoNoGo1.outcome";"trial.GoNoGo1.response";"trial.GoNoGo1.result";"trial.GoNoGo1.RT";"trial.GoNoGo1.signal";"trial.GoNoGo1.startTime";"trial.GoNoGo1.stimulus type";"trial.GoNoGo2.durationTime";"trial.GoNoGo2.endTime";"trial.GoNoGo2.Error Type";"trial.GoNoGo2.icon";"trial.GoNoGo2.location";"trial.GoNoGo2.outcome";"trial.GoNoGo2.response";"trial.GoNoGo2.result";"trial.GoNoGo2.RT";"trial.GoNoGo2.signal";"trial.GoNoGo2.startTime";"trial.GoNoGo2.stimulus type";"trial.GoNoGo3.durationTime";"trial.GoNoGo3.endTime";"trial.GoNoGo3.Error Type";"trial.GoNoGo3.icon";"trial.GoNoGo3.location";"trial.GoNoGo3.outcome";"trial.GoNoGo3.response";"trial.GoNoGo3.result";"trial.GoNoGo3.RT";"trial.GoNoGo3.signal";"trial.GoNoGo3.startTime";"trial.GoNoGo3.stimulus type";"trial.GoNoGo4.durationTime";"trial.GoNoGo4.endTime";"trial.GoNoGo4.Error Type";"trial.GoNoGo4.icon";"trial.GoNoGo4.location";"trial.GoNoGo4.outcome";"trial.GoNoGo4.response";"trial.GoNoGo4.result";"trial.GoNoGo4.RT";"trial.GoNoGo4.signal";"trial.GoNoGo4.startTime";"trial.GoNoGo4.stimulus type";"trial.GoNoGo_Practice.durationTime";"trial.GoNoGo_Practice.endTime";"trial.GoNoGo_Practice.icon";"trial.GoNoGo_Practice.location";"trial.GoNoGo_Practice.outcome";"trial.GoNoGo_Practice.response";"trial.GoNoGo_Practice.result";"trial.GoNoGo_Practice.RT";"trial.GoNoGo_Practice.signal";"trial.GoNoGo_Practice.startTime";"trial.GoNoGo_Practice.stimulus type";"trial.GoNoGo_Tutorial.durationTime";"trial.GoNoGo_Tutorial.endTime";"trial.GoNoGo_Tutorial.icon";"trial.GoNoGo_Tutorial.location";"trial.GoNoGo_Tutorial.outcome";"trial.GoNoGo_Tutorial.response";"trial.GoNoGo_Tutorial.result";"trial.GoNoGo_Tutorial.RT";"trial.GoNoGo_Tutorial.signal";"trial.GoNoGo_Tutorial.startTime"
"Smizzle123";"1995";;"Windows 7";"Rachel's Experiment (D.T.)";"1.0";"2";"1";"1";"2";"1";"1";"2014-10-16 11:14:26.234";"2014-10-16 11:27:12.660";"1";"1";"0";"1";"0";"module.GoNoGotutorial.exec-5723.GoNoGo_Tutorial";;;;;;;;;;;;;;;;;;;;;;;;;;;;;;;;;;;;;;;;;;;;;;;;;;;;;;;;;;;;;;;;;;;;;;;;;;;;;;;;;;"3995";"2014-10-16 11:15:05.989";"leftResponse";"0";"FINISHED";"NONE";"failure";"0";"0";"2014-10-16 11:15:01.979"
"Smizzle123";"1995";;"Windows 7";"Rachel's Experiment (D.T.)";"1.0";"2";"1";"1";"2";"1";"1";"2014-10-16 11:14:26.234";"2014-10-16 11:27:12.660";"1";"1";"0";"2";"1";"module.GoNoGotutorial.exec-5723.GoNoGo_Tutorial";;;;;;;;;;;;;;;;;;;;;;;;;;;;;;;;;;;;;;;;;;;;;;;;;;;;;;;;;;;;;;;;;;;;;;;;;;;;;;;;;;"4003";"2014-10-16 11:15:11.418";"rightResponse";"1";"FINISHED";"NONE";"failure";"0";"0";"2014-10-16 11:15:07.409"
"Smizzle123";"1995";;"Windows 7";"Rachel's Experiment (D.T.)";"1.0";"2";"1";"1";"2";"1";"1";"2014-10-16 11:14:26.234";"2014-10-16 11:27:12.660";"1";"1";"0";"3";"2";"module.GoNoGotutorial.exec-5723.GoNoGo_Tutorial";;;;;;;;;;;;;;;;;;;;;;;;;;;;;;;;;;;;;;;;;;;;;;;;;;;;;;;;;;;;;;;;;;;;;;;;;;;;;;;;;;"4003";"2014-10-16 11:15:16.723";"signalResponse";"0";"FINISHED";"NONE";"success";"0";"1";"2014-10-16 11:15:12.713"
"Smizzle123";"1995";;"Windows 7";"Rachel's Experiment (D.T.)";"1.0";"2";"1";"1";"2";"1";"1";"2014-10-16 11:14:26.234";"2014-10-16 11:27:12.660";"1";"1";"0";"4";"3";"module.GoNoGopractice.exec-4187.GoNoGo_Practice";;;;;;;;;;;;;;;;;;;;;;;;;;;;;;;;;;;;;;;;;;;;;;;;;;;;;;;;;;;;;;;;;;;;;;;"1959";"2014-10-16 11:15:24.868";"18";"0";"FINISHED";"LEFT";"success";"576";"0";"2014-10-16 11:15:22.902";"3";;;;;;;;;;
"Smizzle123";"1995";;"Windows 7";"Rachel's Experiment (D.T.)";"1.0";"2";"1";"1";"2";"1";"1";"2014-10-16 11:14:26.234";"2014-10-16 11:27:12.660";"1";"1";"0";"5";"4";"module.GoNoGopractice.exec-4187.GoNoGo_Practice";;;;;;;;;;;;;;;;;;;;;;;;;;;;;;;;;;;;;;;;;;;;;;;;;;;;;;;;;;;;;;;;;;;;;;;"1959";"2014-10-16 11:15:28.129";"21";"1";"FINISHED";"RIGHT";"success";"436";"0";"2014-10-16 11:15:26.163";"3";;;;;;;;;;
"Smizzle123";"1995";;"Windows 7";"Rachel's Experiment (D.T.)";"1.0";"2";"1";"1";"2";"1";"1";"2014-10-16 11:14:26.234";"2014-10-16 11:27:12.660";"1";"1";"0";"6";"5";"module.GoNoGopractice.exec-4187.GoNoGo_Practice";;;;;;;;;;;;;;;;;;;;;;;;;;;;;;;;;;;;;;;;;;;;;;;;;;;;;;;;;;;;;;;;;;;;;;;"1959";"2014-10-16 11:15:31.374";"14";"1";"FINISHED";"RIGHT";"failure";"543";"1";"2014-10-16 11:15:29.408";"2";;;;;;;;;;
"Smizzle123";"1995";;"Windows 7";"Rachel's Experiment (D.T.)";"1.0";"2";"1";"1";"2";"1";"1";"2014-10-16 11:14:26.234";"2014-10-16 11:27:12.660";"1";"1";"0";"7";"6";"module.GoNoGopractice.exec-4187.GoNoGo_Practice";;;;;;;;;;;;;;;;;;;;;;;;;;;;;;;;;;;;;;;;;;;;;;;;;;;;;;;;;;;;;;;;;;;;;;;"1959";"2014-10-16 11:15:34.619";"26";"0";"FINISHED";"LEFT";"success";"562";"0";"2014-10-16 11:15:32.653";"3";;;;;;;;;;
"Smizzle123";"1995";;"Windows 7";"Rachel's Experiment (D.T.)";"1.0";"2";"1";"1";"2";"1";"1";"2014-10-16 11:14:26.234";"2014-10-16 11:27:12.660";"1";"1";"0";"8";"7";"module.GoNoGopractice.exec-4187.GoNoGo_Practice";;;;;;;;;;;;;;;;;;;;;;;;;;;;;;;;;;;;;;;;;;;;;;;;;;;;;;;;;;;;;;;;;;;;;;;"1959";"2014-10-16 11:15:37.865";"2";"0";"FINISHED";"LEFT";"success";"558";"0";"2014-10-16 11:15:35.899";"1";;;;;;;;;;
"Smizzle123";"1995";;"Windows 7";"Rachel's Experiment (D.T.)";"1.0";"2";"1";"1";"2";"1";"1";"2014-10-16 11:14:26.234";"2014-10-16 11:27:12.660";"1";"1";"0";"9";"8";"module.GoNoGopractice.exec-4187.GoNoGo_Practice";;;;;;;;;;;;;;;;;;;;;;;;;;;;;;;;;;;;;;;;;;;;;;;;;;;;;;;;;;;;;;;;;;;;;;;"1960";"2014-10-16 11:15:41.110";"30";"0";"FINISHED";"NONE";"success";"0";"1";"2014-10-16 11:15:39.144";"3";;;;;;;;;;
"Smizzle123";"1995";;"Windows 7";"Rachel's Experiment (D.T.)";"1.0";"2";"1";"1";"2";"1";"1";"2014-10-16 11:14:26.234";"2014-10-16 11:27:12.660";"1";"1";"0";"10";"9";"module.GoNoGopractice.exec-4187.GoNoGo_Practice";;;;;;;;;;;;;;;;;;;;;;;;;;;;;;;;;;;;;;;;;;;;;;;;;;;;;;;;;;;;;;;;;;;;;;;"1959";"2014-10-16 11:15:44.355";"6";"1";"FINISHED";"RIGHT";"failure";"476";"1";"2014-10-16 11:15:42.389";"1";;;;;;;;;;
"Smizzle123";"1995";;"Windows 7";"Rachel's Experiment (D.T.)";"1.0";"2";"1";"1";"2";"1";"1";"2014-10-16 11:14:26.234";"2014-10-16 11:27:12.660";"1";"1";"0";"11";"10";"module.GoNoGopractice.exec-4187.GoNoGo_Practice";;;;;;;;;;;;;;;;;;;;;;;;;;;;;;;;;;;;;;;;;;;;;;;;;;;;;;;;;;;;;;;;;;;;;;;"1960";"2014-10-16 11:15:47.616";"34";"0";"FINISHED";"LEFT";"success";"577";"0";"2014-10-16 11:15:45.650";"3";;;;;;;;;;
"Smizzle123";"1995";;"Windows 7";"Rachel's Experiment (D.T.)";"1.0";"2";"1";"1";"2";"1";"1";"2014-10-16 11:14:26.234";"2014-10-16 11:27:12.660";"1";"1";"0";"12";"11";"module.GoNoGopractice.exec-4187.GoNoGo_Practice";;;;;;;;;;;;;;;;;;;;;;;;;;;;;;;;;;;;;;;;;;;;;;;;;;;;;;;;;;;;;;;;;;;;;;;"1959";"2014-10-16 11:15:50.862";"23";"1";"FINISHED";"RIGHT";"success";"547";"0";"2014-10-16 11:15:48.896";"3";;;;;;;;;;
"Smizzle123";"1995";;"Windows 7";"Rachel's Experiment (D.T.)";"1.0";"2";"1";"1";"2";"1";"1";"2014-10-16 11:14:26.234";"2014-10-16 11:27:12.660";"1";"1";"0";"13";"12";"module.GoNoGopractice.exec-4187.GoNoGo_Practice";;;;;;;;;;;;;;;;;;;;;;;;;;;;;;;;;;;;;;;;;;;;;;;;;;;;;;;;;;;;;;;;;;;;;;;"1959";"2014-10-16 11:15:54.107";"13";"0";"FINISHED";"NONE";"success";"0";"1";"2014-10-16 11:15:52.141";"2";;;;;;;;;;
"Smizzle123";"1995";;"Windows 7";"Rachel's Experiment (D.T.)";"1.0";"2";"1";"1";"2";"1";"1";"2014-10-16 11:14:26.234";"2014-10-16 11:27:12.660";"1";"1";"0";"14";"13";"module.GoNoGopractice.exec-4187.GoNoGo_Practice";;;;;;;;;;;;;;;;;;;;;;;;;;;;;;;;;;;;;;;;;;;;;;;;;;;;;;;;;;;;;;;;;;;;;;;"1960";"2014-10-16 11:15:57.352";"3";"1";"FINISHED";"RIGHT";"success";"466";"0";"2014-10-16 11:15:55.386";"1";;;;;;;;;;
"Smizzle123";"1995";;"Windows 7";"Rachel's Experiment (D.T.)";"1.0";"2";"1";"1";"2";"1";"1";"2014-10-16 11:14:26.234";"2014-10-16 11:27:12.660";"1";"1";"0";"15";"14";"module.GoNoGopractice.exec-4187.GoNoGo_Practice";;;;;;;;;;;;;;;;;;;;;;;;;;;;;;;;;;;;;;;;;;;;;;;;;;;;;;;;;;;;;;;;;;;;;;;"1959";"2014-10-16 11:16:00.598";"27";"1";"FINISHED";"NONE";"success";"0";"1";"2014-10-16 11:15:58.632";"3";;;;;;;;;;
"Smizzle123";"1995";;"Windows 7";"Rachel's Experiment (D.T.)";"1.0";"2";"1";"1";"2";"1";"1";"2014-10-16 11:14:26.234";"2014-10-16 11:27:12.660";"1";"1";"0";"16";"15";"module.training_block1.exec-6939.GoNoGo1";;;;;;;;;;;;;;;;;;;;;;;"1256";"2014-10-16 11:16:08.196";"NST_correctLoc";"25";"1";"FINISHED";"RIGHT";"success";"471";"0";"2014-10-16 11:16:06.932";"3";;;;;;;;;;;;;;;;;;;;;;;;;;;;;;;;;;;;;;;;;;;;;;;;;;;;;;;;;
"Smizzle123";"1995";;"Windows 7";"Rachel's Experiment (D.T.)";"1.0";"2";"1";"1";"2";"1";"1";"2014-10-16 11:14:26.234";"2014-10-16 11:27:12.660";"1";"1";"0";"17";"16";"module.training_block1.exec-6939.GoNoGo1";;;;;;;;;;;;;;;;;;;;;;;"1261";"2014-10-16 11:16:10.739";"NST_correctLoc";"18";"0";"FINISHED";"LEFT";"success";"462";"0";"2014-10-16 11:16:09.475";"3";;;;;;;;;;;;;;;;;;;;;;;;;;;;;;;;;;;;;;;;;;;;;;;;;;;;;;;;;
"Smizzle123";"1995";;"Windows 7";"Rachel's Experiment (D.T.)";"1.0";"2";"1";"1";"2";"1";"1";"2014-10-16 11:14:26.234";"2014-10-16 11:27:12.660";"1";"1";"0";"18";"17";"module.training_block1.exec-6939.GoNoGo1";;;;;;;;;;;;;;;;;;;;;;;"1257";"2014-10-16 11:16:13.282";"NST_correctLoc";"31";"0";"FINISHED";"LEFT";"success";"483";"0";"2014-10-16 11:16:12.019";"3";;;;;;;;;;;;;;;;;;;;;;;;;;;;;;;;;;;;;;;;;;;;;;;;;;;;;;;;;
"Smizzle123";"1995";;"Windows 7";"Rachel's Experiment (D.T.)";"1.0";"2";"1";"1";"2";"1";"1";"2014-10-16 11:14:26.234";"2014-10-16 11:27:12.660";"1";"1";"0";"19";"18";"module.training_block1.exec-6939.GoNoGo1";;;;;;;;;;;;;;;;;;;;;;;"1257";"2014-10-16 11:16:15.826";"ST_correctStop";"0";"0";"FINISHED";"NONE";"success";"0";"1";"2014-10-16 11:16:14.562";"1";;;;;;;;;;;;;;;;;;;;;;;;;;;;;;;;;;;;;;;;;;;;;;;;;;;;;;;;;
"Smizzle123";"1995";;"Windows 7";"Rachel's Experiment (D.T.)";"1.0";"2";"1";"1";"2";"1";"1";"2014-10-16 11:14:26.234";"2014-10-16 11:27:12.660";"1";"1";"0";"20";"19";"module.training_block1.exec-6939.GoNoGo1";;;;;;;;;;;;;;;;;;;;;;;"1261";"2014-10-16 11:16:18.369";"NST_correctLoc";"34";"1";"FINISHED";"RIGHT";"success";"410";"0";"2014-10-16 11:16:17.105";"3";;;;;;;;;;;;;;;;;;;;;;;;;;;;;;;;;;;;;;;;;;;;;;;;;;;;;;;;;
"Smizzle123";"1995";;"Windows 7";"Rachel's Experiment (D.T.)";"1.0";"2";"1";"1";"2";"1";"1";"2014-10-16 11:14:26.234";"2014-10-16 11:27:12.660";"1";"1";"0";"21";"20";"module.training_block1.exec-6939.GoNoGo1";;;;;;;;;;;;;;;;;;;;;;;"1257";"2014-10-16 11:16:20.912";"ST_correctStop";"7";"0";"FINISHED";"NONE";"success";"0";"1";"2014-10-16 11:16:19.648";"1";;;;;;;;;;;;;;;;;;;;;;;;;;;;;;;;;;;;;;;;;;;;;;;;;;;;;;;;;
"Smizzle123";"1995";;"Windows 7";"Rachel's Experiment (D.T.)";"1.0";"2";"1";"1";"2";"1";"1";"2014-10-16 11:14:26.234";"2014-10-16 11:27:12.660";"1";"1";"0";"22";"21";"module.training_block1.exec-6939.GoNoGo1";;;;;;;;;;;;;;;;;;;;;;;"1260";"2014-10-16 11:16:23.455";"NST_correctLoc";"19";"1";"FINISHED";"RIGHT";"success";"427";"0";"2014-10-16 11:16:22.191";"3";;;;;;;;;;;;;;;;;;;;;;;;;;;;;;;;;;;;;;;;;;;;;;;;;;;;;;;;;
"Smizzle123";"1995";;"Windows 7";"Rachel's Experiment (D.T.)";"1.0";"2";"1";"1";"2";"1";"1";"2014-10-16 11:14:26.234";"2014-10-16 11:27:12.660";"1";"1";"0";"23";"22";"module.training_block1.exec-6939.GoNoGo1";;;;;;;;;;;;;;;;;;;;;;;"1261";"2014-10-16 11:16:25.998";"NST_correctLoc";"13";"0";"FINISHED";"LEFT";"success";"581";"0";"2014-10-16 11:16:24.735";"2";;;;;;;;;;;;;;;;;;;;;;;;;;;;;;;;;;;;;;;;;;;;;;;;;;;;;;;;;
"Smizzle123";"1995";;"Windows 7";"Rachel's Experiment (D.T.)";"1.0";"2";"1";"1";"2";"1";"1";"2014-10-16 11:14:26.234";"2014-10-16 11:27:12.660";"1";"1";"0";"24";"23";"module.training_block1.exec-6939.GoNoGo1";;;;;;;;;;;;;;;;;;;;;;;"1257";"2014-10-16 11:16:28.542";"NST_correctLoc";"17";"1";"FINISHED";"RIGHT";"success";"442";"0";"2014-10-16 11:16:27.278";"2";;;;;;;;;;;;;;;;;;;;;;;;;;;;;;;;;;;;;;;;;;;;;;;;;;;;;;;;;
"Smizzle123";"1995";;"Windows 7";"Rachel's Experiment (D.T.)";"1.0";"2";"1";"1";"2";"1";"1";"2014-10-16 11:14:26.234";"2014-10-16 11:27:12.660";"1";"1";"0";"25";"24";"module.training_block1.exec-6939.GoNoGo1";;;;;;;;;;;;;;;;;;;;;;;"1261";"2014-10-16 11:16:31.194";"ST_correctStop";"5";"1";"FINISHED";"NONE";"success";"0";"1";"2014-10-16 11:16:29.930";"1";;;;;;;;;;;;;;;;;;;;;;;;;;;;;;;;;;;;;;;;;;;;;;;;;;;;;;;;;
"Smizzle123";"1995";;"Windows 7";"Rachel's Experiment (D.T.)";"1.0";"2";"1";"1";"2";"1";"1";"2014-10-16 11:14:26.234";"2014-10-16 11:27:12.660";"1";"1";"0";"26";"25";"module.training_block1.exec-6939.GoNoGo1";;;;;;;;;;;;;;;;;;;;;;;"1258";"2014-10-16 11:16:33.737";"ST_failedStop";"1";"1";"FINISHED";"RIGHT";"failure";"480";"1";"2014-10-16 11:16:32.473";"1";;;;;;;;;;;;;;;;;;;;;;;;;;;;;;;;;;;;;;;;;;;;;;;;;;;;;;;;;
"Smizzle123";"1995";;"Windows 7";"Rachel's Experiment (D.T.)";"1.0";"2";"1";"1";"2";"1";"1";"2014-10-16 11:14:26.234";"2014-10-16 11:27:12.660";"1";"1";"0";"27";"26";"module.training_block1.exec-6939.GoNoGo1";;;;;;;;;;;;;;;;;;;;;;;"1257";"2014-10-16 11:16:36.280";"ST_correctStop";"4";"1";"FINISHED";"NONE";"success";"0";"1";"2014-10-16 11:16:35.017";"1";;;;;;;;;;;;;;;;;;;;;;;;;;;;;;;;;;;;;;;;;;;;;;;;;;;;;;;;;
"Smizzle123";"1995";;"Windows 7";"Rachel's Experiment (D.T.)";"1.0";"2";"1";"1";"2";"1";"1";"2014-10-16 11:14:26.234";"2014-10-16 11:27:12.660";"1";"1";"0";"28";"27";"module.training_block1.exec-6939.GoNoGo1";;;;;;;;;;;;;;;;;;;;;;;"1257";"2014-10-16 11:16:38.824";"NST_correctLoc";"29";"0";"FINISHED";"LEFT";"success";"434";"0";"2014-10-16 11:16:37.560";"3";;;;;;;;;;;;;;;;;;;;;;;;;;;;;;;;;;;;;;;;;;;;;;;;;;;;;;;;;
"Smizzle123";"1995";;"Windows 7";"Rachel's Experiment (D.T.)";"1.0";"2";"1";"1";"2";"1";"1";"2014-10-16 11:14:26.234";"2014-10-16 11:27:12.660";"1";"1";"0";"29";"28";"module.training_block1.exec-6939.GoNoGo1";;;;;;;;;;;;;;;;;;;;;;;"1257";"2014-10-16 11:16:41.367";"NST_correctLoc";"22";"0";"FINISHED";"LEFT";"success";"555";"0";"2014-10-16 11:16:40.103";"3";;;;;;;;;;;;;;;;;;;;;;;;;;;;;;;;;;;;;;;;;;;;;;;;;;;;;;;;;
"Smizzle123";"1995";;"Windows 7";"Rachel's Experiment (D.T.)";"1.0";"2";"1";"1";"2";"1";"1";"2014-10-16 11:14:26.234";"2014-10-16 11:27:12.660";"1";"1";"0";"30";"29";"module.training_block1.exec-6939.GoNoGo1";;;;;;;;;;;;;;;;;;;;;;;"1257";"2014-10-16 11:16:43.910";"NST_correctLoc";"10";"0";"FINISHED";"LEFT";"success";"476";"0";"2014-10-16 11:16:42.646";"2";;;;;;;;;;;;;;;;;;;;;;;;;;;;;;;;;;;;;;;;;;;;;;;;;;;;;;;;;
"Smizzle123";"1995";;"Windows 7";"Rachel's Experiment (D.T.)";"1.0";"2";"1";"1";"2";"1";"1";"2014-10-16 11:14:26.234";"2014-10-16 11:27:12.660";"1";"1";"0";"31";"30";"module.training_block1.exec-6939.GoNoGo1";;;;;;;;;;;;;;;;;;;;;;;"1257";"2014-10-16 11:16:46.453";"NST_correctLoc";"9";"1";"FINISHED";"RIGHT";"success";"534";"0";"2014-10-16 11:16:45.189";"2";;;;;;;;;;;;;;;;;;;;;;;;;;;;;;;;;;;;;;;;;;;;;;;;;;;;;;;;;
"Smizzle123";"1995";;"Windows 7";"Rachel's Experiment (D.T.)";"1.0";"2";"1";"1";"2";"1";"1";"2014-10-16 11:14:26.234";"2014-10-16 11:27:12.660";"1";"1";"0";"32";"31";"module.training_block1.exec-6939.GoNoGo1";;;;;;;;;;;;;;;;;;;;;;;"1257";"2014-10-16 11:16:48.997";"ST_correctStop";"21";"1";"FINISHED";"NONE";"success";"0";"1";"2014-10-16 11:16:47.733";"3";;;;;;;;;;;;;;;;;;;;;;;;;;;;;;;;;;;;;;;;;;;;;;;;;;;;;;;;;
"Smizzle123";"1995";;"Windows 7";"Rachel's Experiment (D.T.)";"1.0";"2";"1";"1";"2";"1";"1";"2014-10-16 11:14:26.234";"2014-10-16 11:27:12.660";"1";"1";"0";"33";"32";"module.training_block1.exec-6939.GoNoGo1";;;;;;;;;;;;;;;;;;;;;;;"1257";"2014-10-16 11:16:51.540";"ST_correctStop";"6";"0";"FINISHED";"NONE";"success";"0";"1";"2014-10-16 11:16:50.276";"1";;;;;;;;;;;;;;;;;;;;;;;;;;;;;;;;;;;;;;;;;;;;;;;;;;;;;;;;;
"Smizzle123";"1995";;"Windows 7";"Rachel's Experiment (D.T.)";"1.0";"2";"1";"1";"2";"1";"1";"2014-10-16 11:14:26.234";"2014-10-16 11:27:12.660";"1";"1";"0";"34";"33";"module.training_block1.exec-6939.GoNoGo1";;;;;;;;;;;;;;;;;;;;;;;"1257";"2014-10-16 11:16:54.083";"NST_correctLoc";"11";"1";"FINISHED";"RIGHT";"success";"537";"0";"2014-10-16 11:16:52.819";"2";;;;;;;;;;;;;;;;;;;;;;;;;;;;;;;;;;;;;;;;;;;;;;;;;;;;;;;;;
"Smizzle123";"1995";;"Windows 7";"Rachel's Experiment (D.T.)";"1.0";"2";"1";"1";"2";"1";"1";"2014-10-16 11:14:26.234";"2014-10-16 11:27:12.660";"1";"1";"0";"35";"34";"module.training_block1.exec-6939.GoNoGo1";;;;;;;;;;;;;;;;;;;;;;;"1257";"2014-10-16 11:16:56.626";"NST_correctLoc";"32";"1";"FINISHED";"RIGHT";"success";"522";"0";"2014-10-16 11:16:55.362";"3";;;;;;;;;;;;;;;;;;;;;;;;;;;;;;;;;;;;;;;;;;;;;;;;;;;;;;;;;
"Smizzle123";"1995";;"Windows 7";"Rachel's Experiment (D.T.)";"1.0";"2";"1";"1";"2";"1";"1";"2014-10-16 11:14:26.234";"2014-10-16 11:27:12.660";"1";"1";"0";"36";"35";"module.training_block1.exec-6939.GoNoGo1";;;;;;;;;;;;;;;;;;;;;;;"1257";"2014-10-16 11:16:59.169";"ST_correctStop";"23";"1";"FINISHED";"NONE";"success";"0";"1";"2014-10-16 11:16:57.906";"3";;;;;;;;;;;;;;;;;;;;;;;;;;;;;;;;;;;;;;;;;;;;;;;;;;;;;;;;;
"Smizzle123";"1995";;"Windows 7";"Rachel's Experiment (D.T.)";"1.0";"2";"1";"1";"2";"1";"1";"2014-10-16 11:14:26.234";"2014-10-16 11:27:12.660";"1";"1";"0";"37";"36";"module.training_block1.exec-6939.GoNoGo1";;;;;;;;;;;;;;;;;;;;;;;"1258";"2014-10-16 11:17:01.713";"ST_correctStop";"35";"1";"FINISHED";"NONE";"success";"0";"1";"2014-10-16 11:17:00.449";"3";;;;;;;;;;;;;;;;;;;;;;;;;;;;;;;;;;;;;;;;;;;;;;;;;;;;;;;;;
"Smizzle123";"1995";;"Windows 7";"Rachel's Experiment (D.T.)";"1.0";"2";"1";"1";"2";"1";"1";"2014-10-16 11:14:26.234";"2014-10-16 11:27:12.660";"1";"1";"0";"38";"37";"module.training_block1.exec-6939.GoNoGo1";;;;;;;;;;;;;;;;;;;;;;;"1257";"2014-10-16 11:17:04.256";"NST_correctLoc";"15";"1";"FINISHED";"RIGHT";"success";"533";"0";"2014-10-16 11:17:02.992";"2";;;;;;;;;;;;;;;;;;;;;;;;;;;;;;;;;;;;;;;;;;;;;;;;;;;;;;;;;
"Smizzle123";"1995";;"Windows 7";"Rachel's Experiment (D.T.)";"1.0";"2";"1";"1";"2";"1";"1";"2014-10-16 11:14:26.234";"2014-10-16 11:27:12.660";"1";"1";"0";"39";"38";"module.training_block1.exec-6939.GoNoGo1";;;;;;;;;;;;;;;;;;;;;;;"1258";"2014-10-16 11:17:06.799";"ST_correctStop";"30";"0";"FINISHED";"NONE";"success";"0";"1";"2014-10-16 11:17:05.535";"3";;;;;;;;;;;;;;;;;;;;;;;;;;;;;;;;;;;;;;;;;;;;;;;;;;;;;;;;;
"Smizzle123";"1995";;"Windows 7";"Rachel's Experiment (D.T.)";"1.0";"2";"1";"1";"2";"1";"1";"2014-10-16 11:14:26.234";"2014-10-16 11:27:12.660";"1";"1";"0";"40";"39";"module.training_block1.exec-6939.GoNoGo1";;;;;;;;;;;;;;;;;;;;;;;"1257";"2014-10-16 11:17:09.342";"ST_correctStop";"28";"0";"FINISHED";"NONE";"success";"0";"1";"2014-10-16 11:17:08.078";"3";;;;;;;;;;;;;;;;;;;;;;;;;;;;;;;;;;;;;;;;;;;;;;;;;;;;;;;;;
"Smizzle123";"1995";;"Windows 7";"Rachel's Experiment (D.T.)";"1.0";"2";"1";"1";"2";"1";"1";"2014-10-16 11:14:26.234";"2014-10-16 11:27:12.660";"1";"1";"0";"41";"40";"module.training_block1.exec-6939.GoNoGo1";;;;;;;;;;;;;;;;;;;;;;;"1257";"2014-10-16 11:17:11.885";"NST_correctLoc";"16";"0";"FINISHED";"LEFT";"success";"538";"0";"2014-10-16 11:17:10.622";"2";;;;;;;;;;;;;;;;;;;;;;;;;;;;;;;;;;;;;;;;;;;;;;;;;;;;;;;;;
"Smizzle123";"1995";;"Windows 7";"Rachel's Experiment (D.T.)";"1.0";"2";"1";"1";"2";"1";"1";"2014-10-16 11:14:26.234";"2014-10-16 11:27:12.660";"1";"1";"0";"42";"41";"module.training_block1.exec-6939.GoNoGo1";;;;;;;;;;;;;;;;;;;;;;;"1258";"2014-10-16 11:17:14.429";"ST_correctStop";"3";"1";"FINISHED";"NONE";"success";"0";"1";"2014-10-16 11:17:13.165";"1";;;;;;;;;;;;;;;;;;;;;;;;;;;;;;;;;;;;;;;;;;;;;;;;;;;;;;;;;
"Smizzle123";"1995";;"Windows 7";"Rachel's Experiment (D.T.)";"1.0";"2";"1";"1";"2";"1";"1";"2014-10-16 11:14:26.234";"2014-10-16 11:27:12.660";"1";"1";"0";"43";"42";"module.training_block1.exec-6939.GoNoGo1";;;;;;;;;;;;;;;;;;;;;;;"1252";"2014-10-16 11:17:16.972";"ST_correctStop";"8";"0";"FINISHED";"NONE";"success";"0";"1";"2014-10-16 11:17:15.708";"1";;;;;;;;;;;;;;;;;;;;;;;;;;;;;;;;;;;;;;;;;;;;;;;;;;;;;;;;;
"Smizzle123";"1995";;"Windows 7";"Rachel's Experiment (D.T.)";"1.0";"2";"1";"1";"2";"1";"1";"2014-10-16 11:14:26.234";"2014-10-16 11:27:12.660";"1";"1";"0";"44";"43";"module.training_block1.exec-6939.GoNoGo1";;;;;;;;;;;;;;;;;;;;;;;"1257";"2014-10-16 11:17:19.515";"NST_correctLoc";"26";"0";"FINISHED";"LEFT";"success";"501";"0";"2014-10-16 11:17:18.251";"3";;;;;;;;;;;;;;;;;;;;;;;;;;;;;;;;;;;;;;;;;;;;;;;;;;;;;;;;;
"Smizzle123";"1995";;"Windows 7";"Rachel's Experiment (D.T.)";"1.0";"2";"1";"1";"2";"1";"1";"2014-10-16 11:14:26.234";"2014-10-16 11:27:12.660";"1";"1";"0";"45";"44";"module.training_block1.exec-6939.GoNoGo1";;;;;;;;;;;;;;;;;;;;;;;"1257";"2014-10-16 11:17:22.058";"ST_correctStop";"27";"0";"FINISHED";"NONE";"success";"0";"1";"2014-10-16 11:17:20.794";"3";;;;;;;;;;;;;;;;;;;;;;;;;;;;;;;;;;;;;;;;;;;;;;;;;;;;;;;;;
"Smizzle123";"1995";;"Windows 7";"Rachel's Experiment (D.T.)";"1.0";"2";"1";"1";"2";"1";"1";"2014-10-16 11:14:26.234";"2014-10-16 11:27:12.660";"1";"1";"0";"46";"45";"module.training_block1.exec-6939.GoNoGo1";;;;;;;;;;;;;;;;;;;;;;;"1258";"2014-10-16 11:17:24.601";"NST_correctLoc";"12";"0";"FINISHED";"LEFT";"success";"512";"0";"2014-10-16 11:17:23.338";"2";;;;;;;;;;;;;;;;;;;;;;;;;;;;;;;;;;;;;;;;;;;;;;;;;;;;;;;;;
"Smizzle123";"1995";;"Windows 7";"Rachel's Experiment (D.T.)";"1.0";"2";"1";"1";"2";"1";"1";"2014-10-16 11:14:26.234";"2014-10-16 11:27:12.660";"1";"1";"0";"47";"46";"module.training_block1.exec-6939.GoNoGo1";;;;;;;;;;;;;;;;;;;;;;;"1257";"2014-10-16 11:17:27.145";"ST_correctStop";"20";"1";"FINISHED";"NONE";"success";"0";"1";"2014-10-16 11:17:25.881";"3";;;;;;;;;;;;;;;;;;;;;;;;;;;;;;;;;;;;;;;;;;;;;;;;;;;;;;;;;
"Smizzle123";"1995";;"Windows 7";"Rachel's Experiment (D.T.)";"1.0";"2";"1";"1";"2";"1";"1";"2014-10-16 11:14:26.234";"2014-10-16 11:27:12.660";"1";"1";"0";"48";"47";"module.training_block1.exec-6939.GoNoGo1";;;;;;;;;;;;;;;;;;;;;;;"1258";"2014-10-16 11:17:29.688";"ST_correctStop";"33";"1";"FINISHED";"NONE";"success";"0";"1";"2014-10-16 11:17:28.424";"3";;;;;;;;;;;;;;;;;;;;;;;;;;;;;;;;;;;;;;;;;;;;;;;;;;;;;;;;;
"Smizzle123";"1995";;"Windows 7";"Rachel's Experiment (D.T.)";"1.0";"2";"1";"1";"2";"1";"1";"2014-10-16 11:14:26.234";"2014-10-16 11:27:12.660";"1";"1";"0";"49";"48";"module.training_block1.exec-6939.GoNoGo1";;;;;;;;;;;;;;;;;;;;;;;"1257";"2014-10-16 11:17:32.231";"ST_correctStop";"24";"1";"FINISHED";"NONE";"success";"0";"1";"2014-10-16 11:17:30.967";"3";;;;;;;;;;;;;;;;;;;;;;;;;;;;;;;;;;;;;;;;;;;;;;;;;;;;;;;;;
"Smizzle123";"1995";;"Windows 7";"Rachel's Experiment (D.T.)";"1.0";"2";"1";"1";"2";"1";"1";"2014-10-16 11:14:26.234";"2014-10-16 11:27:12.660";"1";"1";"0";"50";"49";"module.training_block1.exec-6939.GoNoGo1";;;;;;;;;;;;;;;;;;;;;;;"1257";"2014-10-16 11:17:34.774";"ST_correctStop";"2";"1";"FINISHED";"NONE";"success";"0";"1";"2014-10-16 11:17:33.510";"1";;;;;;;;;;;;;;;;;;;;;;;;;;;;;;;;;;;;;;;;;;;;;;;;;;;;;;;;;
"Smizzle123";"1995";;"Windows 7";"Rachel's Experiment (D.T.)";"1.0";"2";"1";"1";"2";"1";"1";"2014-10-16 11:14:26.234";"2014-10-16 11:27:12.660";"1";"1";"0";"51";"50";"module.training_block1.exec-6939.GoNoGo1";;;;;;;;;;;;;;;;;;;;;;;"1257";"2014-10-16 11:17:37.317";"NST_correctLoc";"14";"0";"FINISHED";"LEFT";"success";"469";"0";"2014-10-16 11:17:36.054";"2";;;;;;;;;;;;;;;;;;;;;;;;;;;;;;;;;;;;;;;;;;;;;;;;;;;;;;;;;
"Smizzle123";"1995";;"Windows 7";"Rachel's Experiment (D.T.)";"1.0";"2";"1";"1";"2";"1";"1";"2014-10-16 11:14:26.234";"2014-10-16 11:27:12.660";"1";"1";"0";"52";"51";"module.training_block2.exec-6207.GoNoGo2";;;;;;;;;;;;;;;;;;;;;;;;;;;;;;;;;;;"1261";"2014-10-16 11:17:54.324";"ST_correctStop";"8";"1";"FINISHED";"NONE";"success";"0";"1";"2014-10-16 11:17:53.060";"1";;;;;;;;;;;;;;;;;;;;;;;;;;;;;;;;;;;;;;;;;;;;;
"Smizzle123";"1995";;"Windows 7";"Rachel's Experiment (D.T.)";"1.0";"2";"1";"1";"2";"1";"1";"2014-10-16 11:14:26.234";"2014-10-16 11:27:12.660";"1";"1";"0";"53";"52";"module.training_block2.exec-6207.GoNoGo2";;;;;;;;;;;;;;;;;;;;;;;;;;;;;;;;;;;"1261";"2014-10-16 11:17:56.867";"ST_correctStop";"6";"0";"FINISHED";"NONE";"success";"0";"1";"2014-10-16 11:17:55.604";"1";;;;;;;;;;;;;;;;;;;;;;;;;;;;;;;;;;;;;;;;;;;;;
"Smizzle123";"1995";;"Windows 7";"Rachel's Experiment (D.T.)";"1.0";"2";"1";"1";"2";"1";"1";"2014-10-16 11:14:26.234";"2014-10-16 11:27:12.660";"1";"1";"0";"54";"53";"module.training_block2.exec-6207.GoNoGo2";;;;;;;;;;;;;;;;;;;;;;;;;;;;;;;;;;;"1257";"2014-10-16 11:17:59.411";"NST_correctLoc";"34";"0";"FINISHED";"LEFT";"success";"612";"0";"2014-10-16 11:17:58.147";"3";;;;;;;;;;;;;;;;;;;;;;;;;;;;;;;;;;;;;;;;;;;;;
"Smizzle123";"1995";;"Windows 7";"Rachel's Experiment (D.T.)";"1.0";"2";"1";"1";"2";"1";"1";"2014-10-16 11:14:26.234";"2014-10-16 11:27:12.660";"1";"1";"0";"55";"54";"module.training_block2.exec-6207.GoNoGo2";;;;;;;;;;;;;;;;;;;;;;;;;;;;;;;;;;;"1257";"2014-10-16 11:18:01.954";"ST_correctStop";"7";"0";"FINISHED";"NONE";"success";"0";"1";"2014-10-16 11:18:00.690";"1";;;;;;;;;;;;;;;;;;;;;;;;;;;;;;;;;;;;;;;;;;;;;
"Smizzle123";"1995";;"Windows 7";"Rachel's Experiment (D.T.)";"1.0";"2";"1";"1";"2";"1";"1";"2014-10-16 11:14:26.234";"2014-10-16 11:27:12.660";"1";"1";"0";"56";"55";"module.training_block2.exec-6207.GoNoGo2";;;;;;;;;;;;;;;;;;;;;;;;;;;;;;;;;;;"1261";"2014-10-16 11:18:04.497";"ST_correctStop";"20";"1";"FINISHED";"NONE";"success";"0";"1";"2014-10-16 11:18:03.233";"3";;;;;;;;;;;;;;;;;;;;;;;;;;;;;;;;;;;;;;;;;;;;;
"Smizzle123";"1995";;"Windows 7";"Rachel's Experiment (D.T.)";"1.0";"2";"1";"1";"2";"1";"1";"2014-10-16 11:14:26.234";"2014-10-16 11:27:12.660";"1";"1";"0";"57";"56";"module.training_block2.exec-6207.GoNoGo2";;;;;;;;;;;;;;;;;;;;;;;;;;;;;;;;;;;"1261";"2014-10-16 11:18:07.040";"ST_correctStop";"2";"0";"FINISHED";"NONE";"success";"0";"1";"2014-10-16 11:18:05.776";"1";;;;;;;;;;;;;;;;;;;;;;;;;;;;;;;;;;;;;;;;;;;;;
"Smizzle123";"1995";;"Windows 7";"Rachel's Experiment (D.T.)";"1.0";"2";"1";"1";"2";"1";"1";"2014-10-16 11:14:26.234";"2014-10-16 11:27:12.660";"1";"1";"0";"58";"57";"module.training_block2.exec-6207.GoNoGo2";;;;;;;;;;;;;;;;;;;;;;;;;;;;;;;;;;;"1261";"2014-10-16 11:18:09.583";"NST_correctLoc";"16";"0";"FINISHED";"LEFT";"success";"548";"0";"2014-10-16 11:18:08.320";"2";;;;;;;;;;;;;;;;;;;;;;;;;;;;;;;;;;;;;;;;;;;;;
"Smizzle123";"1995";;"Windows 7";"Rachel's Experiment (D.T.)";"1.0";"2";"1";"1";"2";"1";"1";"2014-10-16 11:14:26.234";"2014-10-16 11:27:12.660";"1";"1";"0";"59";"58";"module.training_block2.exec-6207.GoNoGo2";;;;;;;;;;;;;;;;;;;;;;;;;;;;;;;;;;;"1261";"2014-10-16 11:18:12.127";"ST_correctStop";"5";"1";"FINISHED";"NONE";"success";"0";"1";"2014-10-16 11:18:10.863";"1";;;;;;;;;;;;;;;;;;;;;;;;;;;;;;;;;;;;;;;;;;;;;
"Smizzle123";"1995";;"Windows 7";"Rachel's Experiment (D.T.)";"1.0";"2";"1";"1";"2";"1";"1";"2014-10-16 11:14:26.234";"2014-10-16 11:27:12.660";"1";"1";"0";"60";"59";"module.training_block2.exec-6207.GoNoGo2";;;;;;;;;;;;;;;;;;;;;;;;;;;;;;;;;;;"1261";"2014-10-16 11:18:14.670";"NST_correctLoc";"11";"0";"FINISHED";"LEFT";"success";"527";"0";"2014-10-16 11:18:13.406";"2";;;;;;;;;;;;;;;;;;;;;;;;;;;;;;;;;;;;;;;;;;;;;
"Smizzle123";"1995";;"Windows 7";"Rachel's Experiment (D.T.)";"1.0";"2";"1";"1";"2";"1";"1";"2014-10-16 11:14:26.234";"2014-10-16 11:27:12.660";"1";"1";"0";"61";"60";"module.training_block2.exec-6207.GoNoGo2";;;;;;;;;;;;;;;;;;;;;;;;;;;;;;;;;;;"1261";"2014-10-16 11:18:17.213";"ST_correctStop";"21";"1";"FINISHED";"NONE";"success";"0";"1";"2014-10-16 11:18:15.949";"3";;;;;;;;;;;;;;;;;;;;;;;;;;;;;;;;;;;;;;;;;;;;;
"Smizzle123";"1995";;"Windows 7";"Rachel's Experiment (D.T.)";"1.0";"2";"1";"1";"2";"1";"1";"2014-10-16 11:14:26.234";"2014-10-16 11:27:12.660";"1";"1";"0";"62";"61";"module.training_block2.exec-6207.GoNoGo2";;;;;;;;;;;;;;;;;;;;;;;;;;;;;;;;;;;"1261";"2014-10-16 11:18:19.756";"NST_correctLoc";"29";"1";"FINISHED";"RIGHT";"success";"665";"0";"2014-10-16 11:18:18.492";"3";;;;;;;;;;;;;;;;;;;;;;;;;;;;;;;;;;;;;;;;;;;;;
"Smizzle123";"1995";;"Windows 7";"Rachel's Experiment (D.T.)";"1.0";"2";"1";"1";"2";"1";"1";"2014-10-16 11:14:26.234";"2014-10-16 11:27:12.660";"1";"1";"0";"63";"62";"module.training_block2.exec-6207.GoNoGo2";;;;;;;;;;;;;;;;;;;;;;;;;;;;;;;;;;;"1261";"2014-10-16 11:18:22.299";"NST_correctLoc";"26";"0";"FINISHED";"LEFT";"success";"610";"0";"2014-10-16 11:18:21.036";"3";;;;;;;;;;;;;;;;;;;;;;;;;;;;;;;;;;;;;;;;;;;;;
"Smizzle123";"1995";;"Windows 7";"Rachel's Experiment (D.T.)";"1.0";"2";"1";"1";"2";"1";"1";"2014-10-16 11:14:26.234";"2014-10-16 11:27:12.660";"1";"1";"0";"64";"63";"module.training_block2.exec-6207.GoNoGo2";;;;;;;;;;;;;;;;;;;;;;;;;;;;;;;;;;;"1261";"2014-10-16 11:18:24.843";"NST_correctLoc";"14";"0";"FINISHED";"LEFT";"success";"507";"0";"2014-10-16 11:18:23.579";"2";;;;;;;;;;;;;;;;;;;;;;;;;;;;;;;;;;;;;;;;;;;;;
"Smizzle123";"1995";;"Windows 7";"Rachel's Experiment (D.T.)";"1.0";"2";"1";"1";"2";"1";"1";"2014-10-16 11:14:26.234";"2014-10-16 11:27:12.660";"1";"1";"0";"65";"64";"module.training_block2.exec-6207.GoNoGo2";;;;;;;;;;;;;;;;;;;;;;;;;;;;;;;;;;;"1261";"2014-10-16 11:18:27.386";"ST_correctStop";"28";"0";"FINISHED";"NONE";"success";"0";"1";"2014-10-16 11:18:26.122";"3";;;;;;;;;;;;;;;;;;;;;;;;;;;;;;;;;;;;;;;;;;;;;
"Smizzle123";"1995";;"Windows 7";"Rachel's Experiment (D.T.)";"1.0";"2";"1";"1";"2";"1";"1";"2014-10-16 11:14:26.234";"2014-10-16 11:27:12.660";"1";"1";"0";"66";"65";"module.training_block2.exec-6207.GoNoGo2";;;;;;;;;;;;;;;;;;;;;;;;;;;;;;;;;;;"1256";"2014-10-16 11:18:29.929";"ST_correctStop";"32";"0";"FINISHED";"NONE";"success";"0";"1";"2014-10-16 11:18:28.665";"3";;;;;;;;;;;;;;;;;;;;;;;;;;;;;;;;;;;;;;;;;;;;;
"Smizzle123";"1995";;"Windows 7";"Rachel's Experiment (D.T.)";"1.0";"2";"1";"1";"2";"1";"1";"2014-10-16 11:14:26.234";"2014-10-16 11:27:12.660";"1";"1";"0";"67";"66";"module.training_block2.exec-6207.GoNoGo2";;;;;;;;;;;;;;;;;;;;;;;;;;;;;;;;;;;"1261";"2014-10-16 11:18:32.472";"NST_correctLoc";"27";"1";"FINISHED";"RIGHT";"success";"462";"0";"2014-10-16 11:18:31.208";"3";;;;;;;;;;;;;;;;;;;;;;;;;;;;;;;;;;;;;;;;;;;;;
"Smizzle123";"1995";;"Windows 7";"Rachel's Experiment (D.T.)";"1.0";"2";"1";"1";"2";"1";"1";"2014-10-16 11:14:26.234";"2014-10-16 11:27:12.660";"1";"1";"0";"68";"67";"module.training_block2.exec-6207.GoNoGo2";;;;;;;;;;;;;;;;;;;;;;;;;;;;;;;;;;;"1256";"2014-10-16 11:18:35.015";"NST_correctLoc";"19";"1";"FINISHED";"RIGHT";"success";"563";"0";"2014-10-16 11:18:33.752";"3";;;;;;;;;;;;;;;;;;;;;;;;;;;;;;;;;;;;;;;;;;;;;
"Smizzle123";"1995";;"Windows 7";"Rachel's Experiment (D.T.)";"1.0";"2";"1";"1";"2";"1";"1";"2014-10-16 11:14:26.234";"2014-10-16 11:27:12.660";"1";"1";"0";"69";"68";"module.training_block2.exec-6207.GoNoGo2";;;;;;;;;;;;;;;;;;;;;;;;;;;;;;;;;;;"1258";"2014-10-16 11:18:37.559";"NST_correctLoc";"25";"1";"FINISHED";"RIGHT";"success";"518";"0";"2014-10-16 11:18:36.295";"3";;;;;;;;;;;;;;;;;;;;;;;;;;;;;;;;;;;;;;;;;;;;;
"Smizzle123";"1995";;"Windows 7";"Rachel's Experiment (D.T.)";"1.0";"2";"1";"1";"2";"1";"1";"2014-10-16 11:14:26.234";"2014-10-16 11:27:12.660";"1";"1";"0";"70";"69";"module.training_block2.exec-6207.GoNoGo2";;;;;;;;;;;;;;;;;;;;;;;;;;;;;;;;;;;"1257";"2014-10-16 11:18:40.102";"NST_correctLoc";"17";"1";"FINISHED";"RIGHT";"success";"582";"0";"2014-10-16 11:18:38.838";"2";;;;;;;;;;;;;;;;;;;;;;;;;;;;;;;;;;;;;;;;;;;;;
"Smizzle123";"1995";;"Windows 7";"Rachel's Experiment (D.T.)";"1.0";"2";"1";"1";"2";"1";"1";"2014-10-16 11:14:26.234";"2014-10-16 11:27:12.660";"1";"1";"0";"71";"70";"module.training_block2.exec-6207.GoNoGo2";;;;;;;;;;;;;;;;;;;;;;;;;;;;;;;;;;;"1261";"2014-10-16 11:18:42.645";"ST_correctStop";"1";"1";"FINISHED";"NONE";"success";"0";"1";"2014-10-16 11:18:41.381";"1";;;;;;;;;;;;;;;;;;;;;;;;;;;;;;;;;;;;;;;;;;;;;
"Smizzle123";"1995";;"Windows 7";"Rachel's Experiment (D.T.)";"1.0";"2";"1";"1";"2";"1";"1";"2014-10-16 11:14:26.234";"2014-10-16 11:27:12.660";"1";"1";"0";"72";"71";"module.training_block2.exec-6207.GoNoGo2";;;;;;;;;;;;;;;;;;;;;;;;;;;;;;;;;;;"1261";"2014-10-16 11:18:45.188";"NST_correctLoc";"9";"0";"FINISHED";"LEFT";"success";"445";"0";"2014-10-16 11:18:43.925";"2";;;;;;;;;;;;;;;;;;;;;;;;;;;;;;;;;;;;;;;;;;;;;
"Smizzle123";"1995";;"Windows 7";"Rachel's Experiment (D.T.)";"1.0";"2";"1";"1";"2";"1";"1";"2014-10-16 11:14:26.234";"2014-10-16 11:27:12.660";"1";"1";"0";"73";"72";"module.training_block2.exec-6207.GoNoGo2";;;;;;;;;;;;;;;;;;;;;;;;;;;;;;;;;;;"1257";"2014-10-16 11:18:47.732";"ST_correctStop";"0";"0";"FINISHED";"NONE";"success";"0";"1";"2014-10-16 11:18:46.468";"1";;;;;;;;;;;;;;;;;;;;;;;;;;;;;;;;;;;;;;;;;;;;;
"Smizzle123";"1995";;"Windows 7";"Rachel's Experiment (D.T.)";"1.0";"2";"1";"1";"2";"1";"1";"2014-10-16 11:14:26.234";"2014-10-16 11:27:12.660";"1";"1";"0";"74";"73";"module.training_block2.exec-6207.GoNoGo2";;;;;;;;;;;;;;;;;;;;;;;;;;;;;;;;;;;"1261";"2014-10-16 11:18:50.259";"ST_correctStop";"22";"1";"FINISHED";"NONE";"success";"0";"1";"2014-10-16 11:18:48.995";"3";;;;;;;;;;;;;;;;;;;;;;;;;;;;;;;;;;;;;;;;;;;;;
"Smizzle123";"1995";;"Windows 7";"Rachel's Experiment (D.T.)";"1.0";"2";"1";"1";"2";"1";"1";"2014-10-16 11:14:26.234";"2014-10-16 11:27:12.660";"1";"1";"0";"75";"74";"module.training_block2.exec-6207.GoNoGo2";;;;;;;;;;;;;;;;;;;;;;;;;;;;;;;;;;;"1261";"2014-10-16 11:18:52.802";"ST_correctStop";"4";"1";"FINISHED";"NONE";"success";"0";"1";"2014-10-16 11:18:51.539";"1";;;;;;;;;;;;;;;;;;;;;;;;;;;;;;;;;;;;;;;;;;;;;
"Smizzle123";"1995";;"Windows 7";"Rachel's Experiment (D.T.)";"1.0";"2";"1";"1";"2";"1";"1";"2014-10-16 11:14:26.234";"2014-10-16 11:27:12.660";"1";"1";"0";"76";"75";"module.training_block2.exec-6207.GoNoGo2";;;;;;;;;;;;;;;;;;;;;;;;;;;;;;;;;;;"1261";"2014-10-16 11:18:55.346";"NST_correctLoc";"30";"0";"FINISHED";"LEFT";"success";"505";"0";"2014-10-16 11:18:54.082";"3";;;;;;;;;;;;;;;;;;;;;;;;;;;;;;;;;;;;;;;;;;;;;
"Smizzle123";"1995";;"Windows 7";"Rachel's Experiment (D.T.)";"1.0";"2";"1";"1";"2";"1";"1";"2014-10-16 11:14:26.234";"2014-10-16 11:27:12.660";"1";"1";"0";"77";"76";"module.training_block2.exec-6207.GoNoGo2";;;;;;;;;;;;;;;;;;;;;;;;;;;;;;;;;;;"1261";"2014-10-16 11:18:57.889";"ST_correctStop";"35";"1";"FINISHED";"NONE";"success";"0";"1";"2014-10-16 11:18:56.625";"3";;;;;;;;;;;;;;;;;;;;;;;;;;;;;;;;;;;;;;;;;;;;;
"Smizzle123";"1995";;"Windows 7";"Rachel's Experiment (D.T.)";"1.0";"2";"1";"1";"2";"1";"1";"2014-10-16 11:14:26.234";"2014-10-16 11:27:12.660";"1";"1";"0";"78";"77";"module.training_block2.exec-6207.GoNoGo2";;;;;;;;;;;;;;;;;;;;;;;;;;;;;;;;;;;"1261";"2014-10-16 11:19:00.432";"ST_correctStop";"3";"0";"FINISHED";"NONE";"success";"0";"1";"2014-10-16 11:18:59.168";"1";;;;;;;;;;;;;;;;;;;;;;;;;;;;;;;;;;;;;;;;;;;;;
"Smizzle123";"1995";;"Windows 7";"Rachel's Experiment (D.T.)";"1.0";"2";"1";"1";"2";"1";"1";"2014-10-16 11:14:26.234";"2014-10-16 11:27:12.660";"1";"1";"0";"79";"78";"module.training_block2.exec-6207.GoNoGo2";;;;;;;;;;;;;;;;;;;;;;;;;;;;;;;;;;;"1257";"2014-10-16 11:19:02.975";"NST_correctLoc";"13";"0";"FINISHED";"LEFT";"success";"552";"0";"2014-10-16 11:19:01.711";"2";;;;;;;;;;;;;;;;;;;;;;;;;;;;;;;;;;;;;;;;;;;;;
"Smizzle123";"1995";;"Windows 7";"Rachel's Experiment (D.T.)";"1.0";"2";"1";"1";"2";"1";"1";"2014-10-16 11:14:26.234";"2014-10-16 11:27:12.660";"1";"1";"0";"80";"79";"module.training_block2.exec-6207.GoNoGo2";;;;;;;;;;;;;;;;;;;;;;;;;;;;;;;;;;;"1261";"2014-10-16 11:19:05.518";"NST_correctLoc";"33";"1";"FINISHED";"RIGHT";"success";"630";"0";"2014-10-16 11:19:04.255";"3";;;;;;;;;;;;;;;;;;;;;;;;;;;;;;;;;;;;;;;;;;;;;
"Smizzle123";"1995";;"Windows 7";"Rachel's Experiment (D.T.)";"1.0";"2";"1";"1";"2";"1";"1";"2014-10-16 11:14:26.234";"2014-10-16 11:27:12.660";"1";"1";"0";"81";"80";"module.training_block2.exec-6207.GoNoGo2";;;;;;;;;;;;;;;;;;;;;;;;;;;;;;;;;;;"1261";"2014-10-16 11:19:08.062";"ST_correctStop";"23";"1";"FINISHED";"NONE";"success";"0";"1";"2014-10-16 11:19:06.798";"3";;;;;;;;;;;;;;;;;;;;;;;;;;;;;;;;;;;;;;;;;;;;;
"Smizzle123";"1995";;"Windows 7";"Rachel's Experiment (D.T.)";"1.0";"2";"1";"1";"2";"1";"1";"2014-10-16 11:14:26.234";"2014-10-16 11:27:12.660";"1";"1";"0";"82";"81";"module.training_block2.exec-6207.GoNoGo2";;;;;;;;;;;;;;;;;;;;;;;;;;;;;;;;;;;"1257";"2014-10-16 11:19:10.620";"ST_correctStop";"18";"1";"FINISHED";"NONE";"success";"0";"1";"2014-10-16 11:19:09.357";"3";;;;;;;;;;;;;;;;;;;;;;;;;;;;;;;;;;;;;;;;;;;;;
"Smizzle123";"1995";;"Windows 7";"Rachel's Experiment (D.T.)";"1.0";"2";"1";"1";"2";"1";"1";"2014-10-16 11:14:26.234";"2014-10-16 11:27:12.660";"1";"1";"0";"83";"82";"module.training_block2.exec-6207.GoNoGo2";;;;;;;;;;;;;;;;;;;;;;;;;;;;;;;;;;;"1261";"2014-10-16 11:19:13.164";"NST_correctLoc";"15";"1";"FINISHED";"RIGHT";"success";"442";"0";"2014-10-16 11:19:11.900";"2";;;;;;;;;;;;;;;;;;;;;;;;;;;;;;;;;;;;;;;;;;;;;
"Smizzle123";"1995";;"Windows 7";"Rachel's Experiment (D.T.)";"1.0";"2";"1";"1";"2";"1";"1";"2014-10-16 11:14:26.234";"2014-10-16 11:27:12.660";"1";"1";"0";"84";"83";"module.training_block2.exec-6207.GoNoGo2";;;;;;;;;;;;;;;;;;;;;;;;;;;;;;;;;;;"1262";"2014-10-16 11:19:15.707";"ST_correctStop";"24";"1";"FINISHED";"NONE";"success";"0";"1";"2014-10-16 11:19:14.443";"3";;;;;;;;;;;;;;;;;;;;;;;;;;;;;;;;;;;;;;;;;;;;;
"Smizzle123";"1995";;"Windows 7";"Rachel's Experiment (D.T.)";"1.0";"2";"1";"1";"2";"1";"1";"2014-10-16 11:14:26.234";"2014-10-16 11:27:12.660";"1";"1";"0";"85";"84";"module.training_block2.exec-6207.GoNoGo2";;;;;;;;;;;;;;;;;;;;;;;;;;;;;;;;;;;"1257";"2014-10-16 11:19:18.250";"NST_correctLoc";"31";"0";"FINISHED";"LEFT";"success";"632";"0";"2014-10-16 11:19:16.986";"3";;;;;;;;;;;;;;;;;;;;;;;;;;;;;;;;;;;;;;;;;;;;;
"Smizzle123";"1995";;"Windows 7";"Rachel's Experiment (D.T.)";"1.0";"2";"1";"1";"2";"1";"1";"2014-10-16 11:14:26.234";"2014-10-16 11:27:12.660";"1";"1";"0";"86";"85";"module.training_block2.exec-6207.GoNoGo2";;;;;;;;;;;;;;;;;;;;;;;;;;;;;;;;;;;"1261";"2014-10-16 11:19:20.793";"NST_correctLoc";"10";"0";"FINISHED";"LEFT";"success";"525";"0";"2014-10-16 11:19:19.529";"2";;;;;;;;;;;;;;;;;;;;;;;;;;;;;;;;;;;;;;;;;;;;;
"Smizzle123";"1995";;"Windows 7";"Rachel's Experiment (D.T.)";"1.0";"2";"1";"1";"2";"1";"1";"2014-10-16 11:14:26.234";"2014-10-16 11:27:12.660";"1";"1";"0";"87";"86";"module.training_block2.exec-6207.GoNoGo2";;;;;;;;;;;;;;;;;;;;;;;;;;;;;;;;;;;"1261";"2014-10-16 11:19:23.336";"NST_correctLoc";"12";"0";"FINISHED";"LEFT";"success";"486";"0";"2014-10-16 11:19:22.073";"2";;;;;;;;;;;;;;;;;;;;;;;;;;;;;;;;;;;;;;;;;;;;;
"Smizzle123";"1995";;"Windows 7";"Rachel's Experiment (D.T.)";"1.0";"2";"1";"1";"2";"1";"1";"2014-10-16 11:14:26.234";"2014-10-16 11:27:12.660";"1";"1";"0";"88";"87";"module.training_block3.exec-2773.GoNoGo3";;;;;;;;;;;;;;;;;;;;;;;;;;;;;;;;;;;;;;;;;;;;;;;"1261";"2014-10-16 11:19:34.945";"NST_correctLoc";"16";"1";"FINISHED";"RIGHT";"success";"464";"0";"2014-10-16 11:19:33.681";"2";;;;;;;;;;;;;;;;;;;;;;;;;;;;;;;;;
"Smizzle123";"1995";;"Windows 7";"Rachel's Experiment (D.T.)";"1.0";"2";"1";"1";"2";"1";"1";"2014-10-16 11:14:26.234";"2014-10-16 11:27:12.660";"1";"1";"0";"89";"88";"module.training_block3.exec-2773.GoNoGo3";;;;;;;;;;;;;;;;;;;;;;;;;;;;;;;;;;;;;;;;;;;;;;;"1261";"2014-10-16 11:19:37.488";"ST_correctStop";"8";"1";"FINISHED";"NONE";"success";"0";"1";"2014-10-16 11:19:36.224";"1";;;;;;;;;;;;;;;;;;;;;;;;;;;;;;;;;
"Smizzle123";"1995";;"Windows 7";"Rachel's Experiment (D.T.)";"1.0";"2";"1";"1";"2";"1";"1";"2014-10-16 11:14:26.234";"2014-10-16 11:27:12.660";"1";"1";"0";"90";"89";"module.training_block3.exec-2773.GoNoGo3";;;;;;;;;;;;;;;;;;;;;;;;;;;;;;;;;;;;;;;;;;;;;;;"1262";"2014-10-16 11:19:40.031";"NST_correctLoc";"13";"0";"FINISHED";"LEFT";"success";"442";"0";"2014-10-16 11:19:38.767";"2";;;;;;;;;;;;;;;;;;;;;;;;;;;;;;;;;
"Smizzle123";"1995";;"Windows 7";"Rachel's Experiment (D.T.)";"1.0";"2";"1";"1";"2";"1";"1";"2014-10-16 11:14:26.234";"2014-10-16 11:27:12.660";"1";"1";"0";"91";"90";"module.training_block3.exec-2773.GoNoGo3";;;;;;;;;;;;;;;;;;;;;;;;;;;;;;;;;;;;;;;;;;;;;;;"1257";"2014-10-16 11:19:42.574";"NST_correctLoc";"9";"1";"FINISHED";"RIGHT";"success";"543";"0";"2014-10-16 11:19:41.311";"2";;;;;;;;;;;;;;;;;;;;;;;;;;;;;;;;;
"Smizzle123";"1995";;"Windows 7";"Rachel's Experiment (D.T.)";"1.0";"2";"1";"1";"2";"1";"1";"2014-10-16 11:14:26.234";"2014-10-16 11:27:12.660";"1";"1";"0";"92";"91";"module.training_block3.exec-2773.GoNoGo3";;;;;;;;;;;;;;;;;;;;;;;;;;;;;;;;;;;;;;;;;;;;;;;"1262";"2014-10-16 11:19:45.118";"NST_correctLoc";"11";"0";"FINISHED";"LEFT";"success";"549";"0";"2014-10-16 11:19:43.854";"2";;;;;;;;;;;;;;;;;;;;;;;;;;;;;;;;;
"Smizzle123";"1995";;"Windows 7";"Rachel's Experiment (D.T.)";"1.0";"2";"1";"1";"2";"1";"1";"2014-10-16 11:14:26.234";"2014-10-16 11:27:12.660";"1";"1";"0";"93";"92";"module.training_block3.exec-2773.GoNoGo3";;;;;;;;;;;;;;;;;;;;;;;;;;;;;;;;;;;;;;;;;;;;;;;"1261";"2014-10-16 11:19:47.676";"ST_failedStop";"22";"1";"FINISHED";"RIGHT";"failure";"478";"1";"2014-10-16 11:19:46.413";"3";;;;;;;;;;;;;;;;;;;;;;;;;;;;;;;;;
"Smizzle123";"1995";;"Windows 7";"Rachel's Experiment (D.T.)";"1.0";"2";"1";"1";"2";"1";"1";"2014-10-16 11:14:26.234";"2014-10-16 11:27:12.660";"1";"1";"0";"94";"93";"module.training_block3.exec-2773.GoNoGo3";;;;;;;;;;;;;;;;;;;;;;;;;;;;;;;;;;;;;;;;;;;;;;;"1261";"2014-10-16 11:19:50.220";"ST_correctStop";"26";"1";"FINISHED";"NONE";"success";"0";"1";"2014-10-16 11:19:48.956";"3";;;;;;;;;;;;;;;;;;;;;;;;;;;;;;;;;
"Smizzle123";"1995";;"Windows 7";"Rachel's Experiment (D.T.)";"1.0";"2";"1";"1";"2";"1";"1";"2014-10-16 11:14:26.234";"2014-10-16 11:27:12.660";"1";"1";"0";"95";"94";"module.training_block3.exec-2773.GoNoGo3";;;;;;;;;;;;;;;;;;;;;;;;;;;;;;;;;;;;;;;;;;;;;;;"1261";"2014-10-16 11:19:52.763";"NST_correctLoc";"14";"0";"FINISHED";"LEFT";"success";"409";"0";"2014-10-16 11:19:51.499";"2";;;;;;;;;;;;;;;;;;;;;;;;;;;;;;;;;
"Smizzle123";"1995";;"Windows 7";"Rachel's Experiment (D.T.)";"1.0";"2";"1";"1";"2";"1";"1";"2014-10-16 11:14:26.234";"2014-10-16 11:27:12.660";"1";"1";"0";"96";"95";"module.training_block3.exec-2773.GoNoGo3";;;;;;;;;;;;;;;;;;;;;;;;;;;;;;;;;;;;;;;;;;;;;;;"1261";"2014-10-16 11:19:55.306";"ST_correctStop";"4";"1";"FINISHED";"NONE";"success";"0";"1";"2014-10-16 11:19:54.042";"1";;;;;;;;;;;;;;;;;;;;;;;;;;;;;;;;;
"Smizzle123";"1995";;"Windows 7";"Rachel's Experiment (D.T.)";"1.0";"2";"1";"1";"2";"1";"1";"2014-10-16 11:14:26.234";"2014-10-16 11:27:12.660";"1";"1";"0";"97";"96";"module.training_block3.exec-2773.GoNoGo3";;;;;;;;;;;;;;;;;;;;;;;;;;;;;;;;;;;;;;;;;;;;;;;"1262";"2014-10-16 11:19:57.849";"ST_correctStop";"1";"1";"FINISHED";"NONE";"success";"0";"1";"2014-10-16 11:19:56.585";"1";;;;;;;;;;;;;;;;;;;;;;;;;;;;;;;;;
"Smizzle123";"1995";;"Windows 7";"Rachel's Experiment (D.T.)";"1.0";"2";"1";"1";"2";"1";"1";"2014-10-16 11:14:26.234";"2014-10-16 11:27:12.660";"1";"1";"0";"98";"97";"module.training_block3.exec-2773.GoNoGo3";;;;;;;;;;;;;;;;;;;;;;;;;;;;;;;;;;;;;;;;;;;;;;;"1261";"2014-10-16 11:20:00.392";"NST_correctLoc";"18";"1";"FINISHED";"RIGHT";"success";"444";"0";"2014-10-16 11:19:59.129";"3";;;;;;;;;;;;;;;;;;;;;;;;;;;;;;;;;
"Smizzle123";"1995";;"Windows 7";"Rachel's Experiment (D.T.)";"1.0";"2";"1";"1";"2";"1";"1";"2014-10-16 11:14:26.234";"2014-10-16 11:27:12.660";"1";"1";"0";"99";"98";"module.training_block3.exec-2773.GoNoGo3";;;;;;;;;;;;;;;;;;;;;;;;;;;;;;;;;;;;;;;;;;;;;;;"1261";"2014-10-16 11:20:02.936";"NST_correctLoc";"30";"1";"FINISHED";"RIGHT";"success";"525";"0";"2014-10-16 11:20:01.672";"3";;;;;;;;;;;;;;;;;;;;;;;;;;;;;;;;;
"Smizzle123";"1995";;"Windows 7";"Rachel's Experiment (D.T.)";"1.0";"2";"1";"1";"2";"1";"1";"2014-10-16 11:14:26.234";"2014-10-16 11:27:12.660";"1";"1";"0";"100";"99";"module.training_block3.exec-2773.GoNoGo3";;;;;;;;;;;;;;;;;;;;;;;;;;;;;;;;;;;;;;;;;;;;;;;"1261";"2014-10-16 11:20:05.479";"ST_correctStop";"0";"0";"FINISHED";"NONE";"success";"0";"1";"2014-10-16 11:20:04.215";"1";;;;;;;;;;;;;;;;;;;;;;;;;;;;;;;;;
"Smizzle123";"1995";;"Windows 7";"Rachel's Experiment (D.T.)";"1.0";"2";"1";"1";"2";"1";"1";"2014-10-16 11:14:26.234";"2014-10-16 11:27:12.660";"1";"1";"0";"101";"100";"module.training_block3.exec-2773.GoNoGo3";;;;;;;;;;;;;;;;;;;;;;;;;;;;;;;;;;;;;;;;;;;;;;;"1262";"2014-10-16 11:20:08.022";"ST_correctStop";"7";"1";"FINISHED";"NONE";"success";"0";"1";"2014-10-16 11:20:06.758";"1";;;;;;;;;;;;;;;;;;;;;;;;;;;;;;;;;
"Smizzle123";"1995";;"Windows 7";"Rachel's Experiment (D.T.)";"1.0";"2";"1";"1";"2";"1";"1";"2014-10-16 11:14:26.234";"2014-10-16 11:27:12.660";"1";"1";"0";"102";"101";"module.training_block3.exec-2773.GoNoGo3";;;;;;;;;;;;;;;;;;;;;;;;;;;;;;;;;;;;;;;;;;;;;;;"1261";"2014-10-16 11:20:10.565";"NST_correctLoc";"28";"1";"FINISHED";"RIGHT";"success";"457";"0";"2014-10-16 11:20:09.301";"3";;;;;;;;;;;;;;;;;;;;;;;;;;;;;;;;;
"Smizzle123";"1995";;"Windows 7";"Rachel's Experiment (D.T.)";"1.0";"2";"1";"1";"2";"1";"1";"2014-10-16 11:14:26.234";"2014-10-16 11:27:12.660";"1";"1";"0";"103";"102";"module.training_block3.exec-2773.GoNoGo3";;;;;;;;;;;;;;;;;;;;;;;;;;;;;;;;;;;;;;;;;;;;;;;"1262";"2014-10-16 11:20:13.108";"NST_correctLoc";"21";"0";"FINISHED";"LEFT";"success";"490";"0";"2014-10-16 11:20:11.845";"3";;;;;;;;;;;;;;;;;;;;;;;;;;;;;;;;;
"Smizzle123";"1995";;"Windows 7";"Rachel's Experiment (D.T.)";"1.0";"2";"1";"1";"2";"1";"1";"2014-10-16 11:14:26.234";"2014-10-16 11:27:12.660";"1";"1";"0";"104";"103";"module.training_block3.exec-2773.GoNoGo3";;;;;;;;;;;;;;;;;;;;;;;;;;;;;;;;;;;;;;;;;;;;;;;"1261";"2014-10-16 11:20:15.652";"ST_correctStop";"24";"0";"FINISHED";"NONE";"success";"0";"1";"2014-10-16 11:20:14.388";"3";;;;;;;;;;;;;;;;;;;;;;;;;;;;;;;;;
"Smizzle123";"1995";;"Windows 7";"Rachel's Experiment (D.T.)";"1.0";"2";"1";"1";"2";"1";"1";"2014-10-16 11:14:26.234";"2014-10-16 11:27:12.660";"1";"1";"0";"105";"104";"module.training_block3.exec-2773.GoNoGo3";;;;;;;;;;;;;;;;;;;;;;;;;;;;;;;;;;;;;;;;;;;;;;;"1262";"2014-10-16 11:20:18.195";"ST_correctStop";"32";"0";"FINISHED";"NONE";"success";"0";"1";"2014-10-16 11:20:16.931";"3";;;;;;;;;;;;;;;;;;;;;;;;;;;;;;;;;
"Smizzle123";"1995";;"Windows 7";"Rachel's Experiment (D.T.)";"1.0";"2";"1";"1";"2";"1";"1";"2014-10-16 11:14:26.234";"2014-10-16 11:27:12.660";"1";"1";"0";"106";"105";"module.training_block3.exec-2773.GoNoGo3";;;;;;;;;;;;;;;;;;;;;;;;;;;;;;;;;;;;;;;;;;;;;;;"1262";"2014-10-16 11:20:20.738";"ST_correctStop";"3";"1";"FINISHED";"NONE";"success";"0";"1";"2014-10-16 11:20:19.474";"1";;;;;;;;;;;;;;;;;;;;;;;;;;;;;;;;;
"Smizzle123";"1995";;"Windows 7";"Rachel's Experiment (D.T.)";"1.0";"2";"1";"1";"2";"1";"1";"2014-10-16 11:14:26.234";"2014-10-16 11:27:12.660";"1";"1";"0";"107";"106";"module.training_block3.exec-2773.GoNoGo3";;;;;;;;;;;;;;;;;;;;;;;;;;;;;;;;;;;;;;;;;;;;;;;"1261";"2014-10-16 11:20:23.281";"NST_correctLoc";"10";"0";"FINISHED";"LEFT";"success";"575";"0";"2014-10-16 11:20:22.017";"2";;;;;;;;;;;;;;;;;;;;;;;;;;;;;;;;;
"Smizzle123";"1995";;"Windows 7";"Rachel's Experiment (D.T.)";"1.0";"2";"1";"1";"2";"1";"1";"2014-10-16 11:14:26.234";"2014-10-16 11:27:12.660";"1";"1";"0";"108";"107";"module.training_block3.exec-2773.GoNoGo3";;;;;;;;;;;;;;;;;;;;;;;;;;;;;;;;;;;;;;;;;;;;;;;"1261";"2014-10-16 11:20:25.824";"NST_correctLoc";"15";"0";"FINISHED";"LEFT";"success";"520";"0";"2014-10-16 11:20:24.561";"2";;;;;;;;;;;;;;;;;;;;;;;;;;;;;;;;;
"Smizzle123";"1995";;"Windows 7";"Rachel's Experiment (D.T.)";"1.0";"2";"1";"1";"2";"1";"1";"2014-10-16 11:14:26.234";"2014-10-16 11:27:12.660";"1";"1";"0";"109";"108";"module.training_block3.exec-2773.GoNoGo3";;;;;;;;;;;;;;;;;;;;;;;;;;;;;;;;;;;;;;;;;;;;;;;"1262";"2014-10-16 11:20:28.368";"NST_correctLoc";"29";"1";"FINISHED";"RIGHT";"success";"513";"0";"2014-10-16 11:20:27.104";"3";;;;;;;;;;;;;;;;;;;;;;;;;;;;;;;;;
"Smizzle123";"1995";;"Windows 7";"Rachel's Experiment (D.T.)";"1.0";"2";"1";"1";"2";"1";"1";"2014-10-16 11:14:26.234";"2014-10-16 11:27:12.660";"1";"1";"0";"110";"109";"module.training_block3.exec-2773.GoNoGo3";;;;;;;;;;;;;;;;;;;;;;;;;;;;;;;;;;;;;;;;;;;;;;;"1262";"2014-10-16 11:20:30.911";"NST_correctLoc";"12";"0";"FINISHED";"LEFT";"success";"466";"0";"2014-10-16 11:20:29.647";"2";;;;;;;;;;;;;;;;;;;;;;;;;;;;;;;;;
"Smizzle123";"1995";;"Windows 7";"Rachel's Experiment (D.T.)";"1.0";"2";"1";"1";"2";"1";"1";"2014-10-16 11:14:26.234";"2014-10-16 11:27:12.660";"1";"1";"0";"111";"110";"module.training_block3.exec-2773.GoNoGo3";;;;;;;;;;;;;;;;;;;;;;;;;;;;;;;;;;;;;;;;;;;;;;;"1262";"2014-10-16 11:20:33.454";"ST_correctStop";"6";"1";"FINISHED";"NONE";"success";"0";"1";"2014-10-16 11:20:32.190";"1";;;;;;;;;;;;;;;;;;;;;;;;;;;;;;;;;
"Smizzle123";"1995";;"Windows 7";"Rachel's Experiment (D.T.)";"1.0";"2";"1";"1";"2";"1";"1";"2014-10-16 11:14:26.234";"2014-10-16 11:27:12.660";"1";"1";"0";"112";"111";"module.training_block3.exec-2773.GoNoGo3";;;;;;;;;;;;;;;;;;;;;;;;;;;;;;;;;;;;;;;;;;;;;;;"1261";"2014-10-16 11:20:35.997";"NST_correctLoc";"34";"0";"FINISHED";"LEFT";"success";"493";"0";"2014-10-16 11:20:34.733";"3";;;;;;;;;;;;;;;;;;;;;;;;;;;;;;;;;
"Smizzle123";"1995";;"Windows 7";"Rachel's Experiment (D.T.)";"1.0";"2";"1";"1";"2";"1";"1";"2014-10-16 11:14:26.234";"2014-10-16 11:27:12.660";"1";"1";"0";"113";"112";"module.training_block3.exec-2773.GoNoGo3";;;;;;;;;;;;;;;;;;;;;;;;;;;;;;;;;;;;;;;;;;;;;;;"1261";"2014-10-16 11:20:38.540";"ST_correctStop";"2";"0";"FINISHED";"NONE";"success";"0";"1";"2014-10-16 11:20:37.277";"1";;;;;;;;;;;;;;;;;;;;;;;;;;;;;;;;;
"Smizzle123";"1995";;"Windows 7";"Rachel's Experiment (D.T.)";"1.0";"2";"1";"1";"2";"1";"1";"2014-10-16 11:14:26.234";"2014-10-16 11:27:12.660";"1";"1";"0";"114";"113";"module.training_block3.exec-2773.GoNoGo3";;;;;;;;;;;;;;;;;;;;;;;;;;;;;;;;;;;;;;;;;;;;;;;"1261";"2014-10-16 11:20:41.084";"ST_correctStop";"25";"0";"FINISHED";"NONE";"success";"0";"1";"2014-10-16 11:20:39.820";"3";;;;;;;;;;;;;;;;;;;;;;;;;;;;;;;;;
"Smizzle123";"1995";;"Windows 7";"Rachel's Experiment (D.T.)";"1.0";"2";"1";"1";"2";"1";"1";"2014-10-16 11:14:26.234";"2014-10-16 11:27:12.660";"1";"1";"0";"115";"114";"module.training_block3.exec-2773.GoNoGo3";;;;;;;;;;;;;;;;;;;;;;;;;;;;;;;;;;;;;;;;;;;;;;;"1261";"2014-10-16 11:20:43.627";"ST_correctStop";"35";"0";"FINISHED";"NONE";"success";"0";"1";"2014-10-16 11:20:42.363";"3";;;;;;;;;;;;;;;;;;;;;;;;;;;;;;;;;
"Smizzle123";"1995";;"Windows 7";"Rachel's Experiment (D.T.)";"1.0";"2";"1";"1";"2";"1";"1";"2014-10-16 11:14:26.234";"2014-10-16 11:27:12.660";"1";"1";"0";"116";"115";"module.training_block3.exec-2773.GoNoGo3";;;;;;;;;;;;;;;;;;;;;;;;;;;;;;;;;;;;;;;;;;;;;;;"1261";"2014-10-16 11:20:46.170";"ST_correctStop";"19";"0";"FINISHED";"NONE";"success";"0";"1";"2014-10-16 11:20:44.906";"3";;;;;;;;;;;;;;;;;;;;;;;;;;;;;;;;;
"Smizzle123";"1995";;"Windows 7";"Rachel's Experiment (D.T.)";"1.0";"2";"1";"1";"2";"1";"1";"2014-10-16 11:14:26.234";"2014-10-16 11:27:12.660";"1";"1";"0";"117";"116";"module.training_block3.exec-2773.GoNoGo3";;;;;;;;;;;;;;;;;;;;;;;;;;;;;;;;;;;;;;;;;;;;;;;"1261";"2014-10-16 11:20:48.713";"ST_correctStop";"5";"0";"FINISHED";"NONE";"success";"0";"1";"2014-10-16 11:20:47.450";"1";;;;;;;;;;;;;;;;;;;;;;;;;;;;;;;;;
"Smizzle123";"1995";;"Windows 7";"Rachel's Experiment (D.T.)";"1.0";"2";"1";"1";"2";"1";"1";"2014-10-16 11:14:26.234";"2014-10-16 11:27:12.660";"1";"1";"0";"118";"117";"module.training_block3.exec-2773.GoNoGo3";;;;;;;;;;;;;;;;;;;;;;;;;;;;;;;;;;;;;;;;;;;;;;;"1261";"2014-10-16 11:20:51.257";"NST_correctLoc";"27";"0";"FINISHED";"LEFT";"success";"468";"0";"2014-10-16 11:20:49.993";"3";;;;;;;;;;;;;;;;;;;;;;;;;;;;;;;;;
"Smizzle123";"1995";;"Windows 7";"Rachel's Experiment (D.T.)";"1.0";"2";"1";"1";"2";"1";"1";"2014-10-16 11:14:26.234";"2014-10-16 11:27:12.660";"1";"1";"0";"119";"118";"module.training_block3.exec-2773.GoNoGo3";;;;;;;;;;;;;;;;;;;;;;;;;;;;;;;;;;;;;;;;;;;;;;;"1261";"2014-10-16 11:20:53.800";"NST_correctLoc";"20";"1";"FINISHED";"RIGHT";"success";"637";"0";"2014-10-16 11:20:52.536";"3";;;;;;;;;;;;;;;;;;;;;;;;;;;;;;;;;
"Smizzle123";"1995";;"Windows 7";"Rachel's Experiment (D.T.)";"1.0";"2";"1";"1";"2";"1";"1";"2014-10-16 11:14:26.234";"2014-10-16 11:27:12.660";"1";"1";"0";"120";"119";"module.training_block3.exec-2773.GoNoGo3";;;;;;;;;;;;;;;;;;;;;;;;;;;;;;;;;;;;;;;;;;;;;;;"1261";"2014-10-16 11:20:56.343";"NST_correctLoc";"17";"1";"FINISHED";"RIGHT";"success";"646";"0";"2014-10-16 11:20:55.079";"2";;;;;;;;;;;;;;;;;;;;;;;;;;;;;;;;;
"Smizzle123";"1995";;"Windows 7";"Rachel's Experiment (D.T.)";"1.0";"2";"1";"1";"2";"1";"1";"2014-10-16 11:14:26.234";"2014-10-16 11:27:12.660";"1";"1";"0";"121";"120";"module.training_block3.exec-2773.GoNoGo3";;;;;;;;;;;;;;;;;;;;;;;;;;;;;;;;;;;;;;;;;;;;;;;"1262";"2014-10-16 11:20:58.886";"NST_correctLoc";"31";"1";"FINISHED";"RIGHT";"success";"495";"0";"2014-10-16 11:20:57.622";"3";;;;;;;;;;;;;;;;;;;;;;;;;;;;;;;;;
"Smizzle123";"1995";;"Windows 7";"Rachel's Experiment (D.T.)";"1.0";"2";"1";"1";"2";"1";"1";"2014-10-16 11:14:26.234";"2014-10-16 11:27:12.660";"1";"1";"0";"122";"121";"module.training_block3.exec-2773.GoNoGo3";;;;;;;;;;;;;;;;;;;;;;;;;;;;;;;;;;;;;;;;;;;;;;;"1257";"2014-10-16 11:21:01.429";"ST_correctStop";"33";"1";"FINISHED";"NONE";"success";"0";"1";"2014-10-16 11:21:00.166";"3";;;;;;;;;;;;;;;;;;;;;;;;;;;;;;;;;
"Smizzle123";"1995";;"Windows 7";"Rachel's Experiment (D.T.)";"1.0";"2";"1";"1";"2";"1";"1";"2014-10-16 11:14:26.234";"2014-10-16 11:27:12.660";"1";"1";"0";"123";"122";"module.training_block3.exec-2773.GoNoGo3";;;;;;;;;;;;;;;;;;;;;;;;;;;;;;;;;;;;;;;;;;;;;;;"1261";"2014-10-16 11:21:03.988";"ST_correctStop";"23";"1";"FINISHED";"NONE";"success";"0";"1";"2014-10-16 11:21:02.724";"3";;;;;;;;;;;;;;;;;;;;;;;;;;;;;;;;;
"Smizzle123";"1995";;"Windows 7";"Rachel's Experiment (D.T.)";"1.0";"2";"1";"1";"2";"1";"1";"2014-10-16 11:14:26.234";"2014-10-16 11:27:12.660";"1";"1";"0";"124";"123";"module.training_block4.exec-9640.GoNoGo4";;;;;;;;;;;;;;;;;;;;;;;;;;;;;;;;;;;;;;;;;;;;;;;;;;;;;;;;;;;"1261";"2014-10-16 11:21:17.266";"ST_correctStop";"28";"0";"FINISHED";"NONE";"success";"0";"1";"2014-10-16 11:21:16.002";"3";;;;;;;;;;;;;;;;;;;;;
"Smizzle123";"1995";;"Windows 7";"Rachel's Experiment (D.T.)";"1.0";"2";"1";"1";"2";"1";"1";"2014-10-16 11:14:26.234";"2014-10-16 11:27:12.660";"1";"1";"0";"125";"124";"module.training_block4.exec-9640.GoNoGo4";;;;;;;;;;;;;;;;;;;;;;;;;;;;;;;;;;;;;;;;;;;;;;;;;;;;;;;;;;;"1261";"2014-10-16 11:21:19.809";"NST_correctLoc";"16";"1";"FINISHED";"RIGHT";"success";"440";"0";"2014-10-16 11:21:18.545";"2";;;;;;;;;;;;;;;;;;;;;
"Smizzle123";"1995";;"Windows 7";"Rachel's Experiment (D.T.)";"1.0";"2";"1";"1";"2";"1";"1";"2014-10-16 11:14:26.234";"2014-10-16 11:27:12.660";"1";"1";"0";"126";"125";"module.training_block4.exec-9640.GoNoGo4";;;;;;;;;;;;;;;;;;;;;;;;;;;;;;;;;;;;;;;;;;;;;;;;;;;;;;;;;;;"1262";"2014-10-16 11:21:22.352";"NST_correctLoc";"26";"0";"FINISHED";"LEFT";"success";"505";"0";"2014-10-16 11:21:21.088";"3";;;;;;;;;;;;;;;;;;;;;
"Smizzle123";"1995";;"Windows 7";"Rachel's Experiment (D.T.)";"1.0";"2";"1";"1";"2";"1";"1";"2014-10-16 11:14:26.234";"2014-10-16 11:27:12.660";"1";"1";"0";"127";"126";"module.training_block4.exec-9640.GoNoGo4";;;;;;;;;;;;;;;;;;;;;;;;;;;;;;;;;;;;;;;;;;;;;;;;;;;;;;;;;;;"1262";"2014-10-16 11:21:24.896";"NST_correctLoc";"27";"1";"FINISHED";"RIGHT";"success";"490";"0";"2014-10-16 11:21:23.632";"3";;;;;;;;;;;;;;;;;;;;;
"Smizzle123";"1995";;"Windows 7";"Rachel's Experiment (D.T.)";"1.0";"2";"1";"1";"2";"1";"1";"2014-10-16 11:14:26.234";"2014-10-16 11:27:12.660";"1";"1";"0";"128";"127";"module.training_block4.exec-9640.GoNoGo4";;;;;;;;;;;;;;;;;;;;;;;;;;;;;;;;;;;;;;;;;;;;;;;;;;;;;;;;;;;"1262";"2014-10-16 11:21:27.439";"NST_correctLoc";"10";"0";"FINISHED";"LEFT";"success";"459";"0";"2014-10-16 11:21:26.175";"2";;;;;;;;;;;;;;;;;;;;;
"Smizzle123";"1995";;"Windows 7";"Rachel's Experiment (D.T.)";"1.0";"2";"1";"1";"2";"1";"1";"2014-10-16 11:14:26.234";"2014-10-16 11:27:12.660";"1";"1";"0";"129";"128";"module.training_block4.exec-9640.GoNoGo4";;;;;;;;;;;;;;;;;;;;;;;;;;;;;;;;;;;;;;;;;;;;;;;;;;;;;;;;;;;"1262";"2014-10-16 11:21:29.982";"NST_correctLoc";"33";"0";"FINISHED";"LEFT";"success";"484";"0";"2014-10-16 11:21:28.718";"3";;;;;;;;;;;;;;;;;;;;;
"Smizzle123";"1995";;"Windows 7";"Rachel's Experiment (D.T.)";"1.0";"2";"1";"1";"2";"1";"1";"2014-10-16 11:14:26.234";"2014-10-16 11:27:12.660";"1";"1";"0";"130";"129";"module.training_block4.exec-9640.GoNoGo4";;;;;;;;;;;;;;;;;;;;;;;;;;;;;;;;;;;;;;;;;;;;;;;;;;;;;;;;;;;"1262";"2014-10-16 11:21:32.525";"ST_correctStop";"4";"1";"FINISHED";"NONE";"success";"0";"1";"2014-10-16 11:21:31.261";"1";;;;;;;;;;;;;;;;;;;;;
"Smizzle123";"1995";;"Windows 7";"Rachel's Experiment (D.T.)";"1.0";"2";"1";"1";"2";"1";"1";"2014-10-16 11:14:26.234";"2014-10-16 11:27:12.660";"1";"1";"0";"131";"130";"module.training_block4.exec-9640.GoNoGo4";;;;;;;;;;;;;;;;;;;;;;;;;;;;;;;;;;;;;;;;;;;;;;;;;;;;;;;;;;;"1262";"2014-10-16 11:21:35.068";"ST_correctStop";"6";"0";"FINISHED";"NONE";"success";"0";"1";"2014-10-16 11:21:33.805";"1";;;;;;;;;;;;;;;;;;;;;
"Smizzle123";"1995";;"Windows 7";"Rachel's Experiment (D.T.)";"1.0";"2";"1";"1";"2";"1";"1";"2014-10-16 11:14:26.234";"2014-10-16 11:27:12.660";"1";"1";"0";"132";"131";"module.training_block4.exec-9640.GoNoGo4";;;;;;;;;;;;;;;;;;;;;;;;;;;;;;;;;;;;;;;;;;;;;;;;;;;;;;;;;;;"1262";"2014-10-16 11:21:37.612";"NST_correctLoc";"14";"0";"FINISHED";"LEFT";"success";"528";"0";"2014-10-16 11:21:36.348";"2";;;;;;;;;;;;;;;;;;;;;
"Smizzle123";"1995";;"Windows 7";"Rachel's Experiment (D.T.)";"1.0";"2";"1";"1";"2";"1";"1";"2014-10-16 11:14:26.234";"2014-10-16 11:27:12.660";"1";"1";"0";"133";"132";"module.training_block4.exec-9640.GoNoGo4";;;;;;;;;;;;;;;;;;;;;;;;;;;;;;;;;;;;;;;;;;;;;;;;;;;;;;;;;;;"1261";"2014-10-16 11:21:40.155";"NST_correctLoc";"11";"1";"FINISHED";"RIGHT";"success";"529";"0";"2014-10-16 11:21:38.891";"2";;;;;;;;;;;;;;;;;;;;;
"Smizzle123";"1995";;"Windows 7";"Rachel's Experiment (D.T.)";"1.0";"2";"1";"1";"2";"1";"1";"2014-10-16 11:14:26.234";"2014-10-16 11:27:12.660";"1";"1";"0";"134";"133";"module.training_block4.exec-9640.GoNoGo4";;;;;;;;;;;;;;;;;;;;;;;;;;;;;;;;;;;;;;;;;;;;;;;;;;;;;;;;;;;"1262";"2014-10-16 11:21:42.698";"ST_correctStop";"7";"0";"FINISHED";"NONE";"success";"0";"1";"2014-10-16 11:21:41.434";"1";;;;;;;;;;;;;;;;;;;;;
"Smizzle123";"1995";;"Windows 7";"Rachel's Experiment (D.T.)";"1.0";"2";"1";"1";"2";"1";"1";"2014-10-16 11:14:26.234";"2014-10-16 11:27:12.660";"1";"1";"0";"135";"134";"module.training_block4.exec-9640.GoNoGo4";;;;;;;;;;;;;;;;;;;;;;;;;;;;;;;;;;;;;;;;;;;;;;;;;;;;;;;;;;;"1262";"2014-10-16 11:21:45.241";"NST_correctLoc";"18";"0";"FINISHED";"LEFT";"success";"459";"0";"2014-10-16 11:21:43.977";"3";;;;;;;;;;;;;;;;;;;;;
"Smizzle123";"1995";;"Windows 7";"Rachel's Experiment (D.T.)";"1.0";"2";"1";"1";"2";"1";"1";"2014-10-16 11:14:26.234";"2014-10-16 11:27:12.660";"1";"1";"0";"136";"135";"module.training_block4.exec-9640.GoNoGo4";;;;;;;;;;;;;;;;;;;;;;;;;;;;;;;;;;;;;;;;;;;;;;;;;;;;;;;;;;;"1262";"2014-10-16 11:21:47.784";"ST_correctStop";"0";"1";"FINISHED";"NONE";"success";"0";"1";"2014-10-16 11:21:46.521";"1";;;;;;;;;;;;;;;;;;;;;
"Smizzle123";"1995";;"Windows 7";"Rachel's Experiment (D.T.)";"1.0";"2";"1";"1";"2";"1";"1";"2014-10-16 11:14:26.234";"2014-10-16 11:27:12.660";"1";"1";"0";"137";"136";"module.training_block4.exec-9640.GoNoGo4";;;;;;;;;;;;;;;;;;;;;;;;;;;;;;;;;;;;;;;;;;;;;;;;;;;;;;;;;;;"1262";"2014-10-16 11:21:50.312";"ST_correctStop";"1";"1";"FINISHED";"NONE";"success";"0";"1";"2014-10-16 11:21:49.048";"1";;;;;;;;;;;;;;;;;;;;;
"Smizzle123";"1995";;"Windows 7";"Rachel's Experiment (D.T.)";"1.0";"2";"1";"1";"2";"1";"1";"2014-10-16 11:14:26.234";"2014-10-16 11:27:12.660";"1";"1";"0";"138";"137";"module.training_block4.exec-9640.GoNoGo4";;;;;;;;;;;;;;;;;;;;;;;;;;;;;;;;;;;;;;;;;;;;;;;;;;;;;;;;;;;"1262";"2014-10-16 11:21:52.855";"NST_correctLoc";"9";"1";"FINISHED";"RIGHT";"success";"494";"0";"2014-10-16 11:21:51.591";"2";;;;;;;;;;;;;;;;;;;;;
"Smizzle123";"1995";;"Windows 7";"Rachel's Experiment (D.T.)";"1.0";"2";"1";"1";"2";"1";"1";"2014-10-16 11:14:26.234";"2014-10-16 11:27:12.660";"1";"1";"0";"139";"138";"module.training_block4.exec-9640.GoNoGo4";;;;;;;;;;;;;;;;;;;;;;;;;;;;;;;;;;;;;;;;;;;;;;;;;;;;;;;;;;;"1262";"2014-10-16 11:21:55.398";"ST_correctStop";"22";"1";"FINISHED";"NONE";"success";"0";"1";"2014-10-16 11:21:54.135";"3";;;;;;;;;;;;;;;;;;;;;
"Smizzle123";"1995";;"Windows 7";"Rachel's Experiment (D.T.)";"1.0";"2";"1";"1";"2";"1";"1";"2014-10-16 11:14:26.234";"2014-10-16 11:27:12.660";"1";"1";"0";"140";"139";"module.training_block4.exec-9640.GoNoGo4";;;;;;;;;;;;;;;;;;;;;;;;;;;;;;;;;;;;;;;;;;;;;;;;;;;;;;;;;;;"1261";"2014-10-16 11:21:57.942";"ST_correctStop";"31";"0";"FINISHED";"NONE";"success";"0";"1";"2014-10-16 11:21:56.678";"3";;;;;;;;;;;;;;;;;;;;;
"Smizzle123";"1995";;"Windows 7";"Rachel's Experiment (D.T.)";"1.0";"2";"1";"1";"2";"1";"1";"2014-10-16 11:14:26.234";"2014-10-16 11:27:12.660";"1";"1";"0";"141";"140";"module.training_block4.exec-9640.GoNoGo4";;;;;;;;;;;;;;;;;;;;;;;;;;;;;;;;;;;;;;;;;;;;;;;;;;;;;;;;;;;"1262";"2014-10-16 11:22:00.485";"ST_correctStop";"34";"0";"FINISHED";"NONE";"success";"0";"1";"2014-10-16 11:21:59.221";"3";;;;;;;;;;;;;;;;;;;;;
"Smizzle123";"1995";;"Windows 7";"Rachel's Experiment (D.T.)";"1.0";"2";"1";"1";"2";"1";"1";"2014-10-16 11:14:26.234";"2014-10-16 11:27:12.660";"1";"1";"0";"142";"141";"module.training_block4.exec-9640.GoNoGo4";;;;;;;;;;;;;;;;;;;;;;;;;;;;;;;;;;;;;;;;;;;;;;;;;;;;;;;;;;;"1262";"2014-10-16 11:22:03.028";"ST_correctStop";"5";"1";"FINISHED";"NONE";"success";"0";"1";"2014-10-16 11:22:01.764";"1";;;;;;;;;;;;;;;;;;;;;
"Smizzle123";"1995";;"Windows 7";"Rachel's Experiment (D.T.)";"1.0";"2";"1";"1";"2";"1";"1";"2014-10-16 11:14:26.234";"2014-10-16 11:27:12.660";"1";"1";"0";"143";"142";"module.training_block4.exec-9640.GoNoGo4";;;;;;;;;;;;;;;;;;;;;;;;;;;;;;;;;;;;;;;;;;;;;;;;;;;;;;;;;;;"1261";"2014-10-16 11:22:05.571";"NST_correctLoc";"13";"0";"FINISHED";"LEFT";"success";"484";"0";"2014-10-16 11:22:04.307";"2";;;;;;;;;;;;;;;;;;;;;
"Smizzle123";"1995";;"Windows 7";"Rachel's Experiment (D.T.)";"1.0";"2";"1";"1";"2";"1";"1";"2014-10-16 11:14:26.234";"2014-10-16 11:27:12.660";"1";"1";"0";"144";"143";"module.training_block4.exec-9640.GoNoGo4";;;;;;;;;;;;;;;;;;;;;;;;;;;;;;;;;;;;;;;;;;;;;;;;;;;;;;;;;;;"1261";"2014-10-16 11:22:08.130";"ST_correctStop";"25";"1";"FINISHED";"NONE";"success";"0";"1";"2014-10-16 11:22:06.866";"3";;;;;;;;;;;;;;;;;;;;;
"Smizzle123";"1995";;"Windows 7";"Rachel's Experiment (D.T.)";"1.0";"2";"1";"1";"2";"1";"1";"2014-10-16 11:14:26.234";"2014-10-16 11:27:12.660";"1";"1";"0";"145";"144";"module.training_block4.exec-9640.GoNoGo4";;;;;;;;;;;;;;;;;;;;;;;;;;;;;;;;;;;;;;;;;;;;;;;;;;;;;;;;;;;"1261";"2014-10-16 11:22:10.673";"NST_correctLoc";"12";"1";"FINISHED";"RIGHT";"success";"503";"0";"2014-10-16 11:22:09.409";"2";;;;;;;;;;;;;;;;;;;;;
"Smizzle123";"1995";;"Windows 7";"Rachel's Experiment (D.T.)";"1.0";"2";"1";"1";"2";"1";"1";"2014-10-16 11:14:26.234";"2014-10-16 11:27:12.660";"1";"1";"0";"146";"145";"module.training_block4.exec-9640.GoNoGo4";;;;;;;;;;;;;;;;;;;;;;;;;;;;;;;;;;;;;;;;;;;;;;;;;;;;;;;;;;;"1262";"2014-10-16 11:22:13.232";"ST_correctStop";"2";"1";"FINISHED";"NONE";"success";"0";"1";"2014-10-16 11:22:11.968";"1";;;;;;;;;;;;;;;;;;;;;
"Smizzle123";"1995";;"Windows 7";"Rachel's Experiment (D.T.)";"1.0";"2";"1";"1";"2";"1";"1";"2014-10-16 11:14:26.234";"2014-10-16 11:27:12.660";"1";"1";"0";"147";"146";"module.training_block4.exec-9640.GoNoGo4";;;;;;;;;;;;;;;;;;;;;;;;;;;;;;;;;;;;;;;;;;;;;;;;;;;;;;;;;;;"1262";"2014-10-16 11:22:15.775";"NST_correctLoc";"35";"0";"FINISHED";"LEFT";"success";"466";"0";"2014-10-16 11:22:14.511";"3";;;;;;;;;;;;;;;;;;;;;
"Smizzle123";"1995";;"Windows 7";"Rachel's Experiment (D.T.)";"1.0";"2";"1";"1";"2";"1";"1";"2014-10-16 11:14:26.234";"2014-10-16 11:27:12.660";"1";"1";"0";"148";"147";"module.training_block4.exec-9640.GoNoGo4";;;;;;;;;;;;;;;;;;;;;;;;;;;;;;;;;;;;;;;;;;;;;;;;;;;;;;;;;;;"1262";"2014-10-16 11:22:18.318";"ST_correctStop";"32";"0";"FINISHED";"NONE";"success";"0";"1";"2014-10-16 11:22:17.055";"3";;;;;;;;;;;;;;;;;;;;;
"Smizzle123";"1995";;"Windows 7";"Rachel's Experiment (D.T.)";"1.0";"2";"1";"1";"2";"1";"1";"2014-10-16 11:14:26.234";"2014-10-16 11:27:12.660";"1";"1";"0";"149";"148";"module.training_block4.exec-9640.GoNoGo4";;;;;;;;;;;;;;;;;;;;;;;;;;;;;;;;;;;;;;;;;;;;;;;;;;;;;;;;;;;"1262";"2014-10-16 11:22:20.862";"NST_correctLoc";"19";"1";"FINISHED";"RIGHT";"success";"436";"0";"2014-10-16 11:22:19.598";"3";;;;;;;;;;;;;;;;;;;;;
"Smizzle123";"1995";;"Windows 7";"Rachel's Experiment (D.T.)";"1.0";"2";"1";"1";"2";"1";"1";"2014-10-16 11:14:26.234";"2014-10-16 11:27:12.660";"1";"1";"0";"150";"149";"module.training_block4.exec-9640.GoNoGo4";;;;;;;;;;;;;;;;;;;;;;;;;;;;;;;;;;;;;;;;;;;;;;;;;;;;;;;;;;;"1262";"2014-10-16 11:22:23.405";"NST_correctLoc";"17";"1";"FINISHED";"RIGHT";"success";"589";"0";"2014-10-16 11:22:22.141";"2";;;;;;;;;;;;;;;;;;;;;
"Smizzle123";"1995";;"Windows 7";"Rachel's Experiment (D.T.)";"1.0";"2";"1";"1";"2";"1";"1";"2014-10-16 11:14:26.234";"2014-10-16 11:27:12.660";"1";"1";"0";"151";"150";"module.training_block4.exec-9640.GoNoGo4";;;;;;;;;;;;;;;;;;;;;;;;;;;;;;;;;;;;;;;;;;;;;;;;;;;;;;;;;;;"1262";"2014-10-16 11:22:25.948";"ST_correctStop";"8";"0";"FINISHED";"NONE";"success";"0";"1";"2014-10-16 11:22:24.684";"1";;;;;;;;;;;;;;;;;;;;;
"Smizzle123";"1995";;"Windows 7";"Rachel's Experiment (D.T.)";"1.0";"2";"1";"1";"2";"1";"1";"2014-10-16 11:14:26.234";"2014-10-16 11:27:12.660";"1";"1";"0";"152";"151";"module.training_block4.exec-9640.GoNoGo4";;;;;;;;;;;;;;;;;;;;;;;;;;;;;;;;;;;;;;;;;;;;;;;;;;;;;;;;;;;"1261";"2014-10-16 11:22:28.491";"ST_correctStop";"3";"1";"FINISHED";"NONE";"success";"0";"1";"2014-10-16 11:22:27.227";"1";;;;;;;;;;;;;;;;;;;;;
"Smizzle123";"1995";;"Windows 7";"Rachel's Experiment (D.T.)";"1.0";"2";"1";"1";"2";"1";"1";"2014-10-16 11:14:26.234";"2014-10-16 11:27:12.660";"1";"1";"0";"153";"152";"module.training_block4.exec-9640.GoNoGo4";;;;;;;;;;;;;;;;;;;;;;;;;;;;;;;;;;;;;;;;;;;;;;;;;;;;;;;;;;;"1262";"2014-10-16 11:22:31.019";"ST_correctStop";"30";"1";"FINISHED";"NONE";"success";"0";"1";"2014-10-16 11:22:29.755";"3";;;;;;;;;;;;;;;;;;;;;
"Smizzle123";"1995";;"Windows 7";"Rachel's Experiment (D.T.)";"1.0";"2";"1";"1";"2";"1";"1";"2014-10-16 11:14:26.234";"2014-10-16 11:27:12.660";"1";"1";"0";"154";"153";"module.training_block4.exec-9640.GoNoGo4";;;;;;;;;;;;;;;;;;;;;;;;;;;;;;;;;;;;;;;;;;;;;;;;;;;;;;;;;;;"1262";"2014-10-16 11:22:33.562";"ST_correctStop";"29";"0";"FINISHED";"NONE";"success";"0";"1";"2014-10-16 11:22:32.298";"3";;;;;;;;;;;;;;;;;;;;;
"Smizzle123";"1995";;"Windows 7";"Rachel's Experiment (D.T.)";"1.0";"2";"1";"1";"2";"1";"1";"2014-10-16 11:14:26.234";"2014-10-16 11:27:12.660";"1";"1";"0";"155";"154";"module.training_block4.exec-9640.GoNoGo4";;;;;;;;;;;;;;;;;;;;;;;;;;;;;;;;;;;;;;;;;;;;;;;;;;;;;;;;;;;"1262";"2014-10-16 11:22:36.090";"NST_correctLoc";"21";"0";"FINISHED";"LEFT";"success";"466";"0";"2014-10-16 11:22:34.826";"3";;;;;;;;;;;;;;;;;;;;;
"Smizzle123";"1995";;"Windows 7";"Rachel's Experiment (D.T.)";"1.0";"2";"1";"1";"2";"1";"1";"2014-10-16 11:14:26.234";"2014-10-16 11:27:12.660";"1";"1";"0";"156";"155";"module.training_block4.exec-9640.GoNoGo4";;;;;;;;;;;;;;;;;;;;;;;;;;;;;;;;;;;;;;;;;;;;;;;;;;;;;;;;;;;"1262";"2014-10-16 11:22:38.617";"ST_correctStop";"23";"0";"FINISHED";"NONE";"success";"0";"1";"2014-10-16 11:22:37.354";"3";;;;;;;;;;;;;;;;;;;;;
"Smizzle123";"1995";;"Windows 7";"Rachel's Experiment (D.T.)";"1.0";"2";"1";"1";"2";"1";"1";"2014-10-16 11:14:26.234";"2014-10-16 11:27:12.660";"1";"1";"0";"157";"156";"module.training_block4.exec-9640.GoNoGo4";;;;;;;;;;;;;;;;;;;;;;;;;;;;;;;;;;;;;;;;;;;;;;;;;;;;;;;;;;;"1262";"2014-10-16 11:22:41.161";"NST_correctLoc";"20";"0";"FINISHED";"LEFT";"success";"460";"0";"2014-10-16 11:22:39.897";"3";;;;;;;;;;;;;;;;;;;;;
"Smizzle123";"1995";;"Windows 7";"Rachel's Experiment (D.T.)";"1.0";"2";"1";"1";"2";"1";"1";"2014-10-16 11:14:26.234";"2014-10-16 11:27:12.660";"1";"1";"0";"158";"157";"module.training_block4.exec-9640.GoNoGo4";;;;;;;;;;;;;;;;;;;;;;;;;;;;;;;;;;;;;;;;;;;;;;;;;;;;;;;;;;;"1262";"2014-10-16 11:22:43.719";"NST_correctLoc";"24";"1";"FINISHED";"RIGHT";"success";"510";"0";"2014-10-16 11:22:42.456";"3";;;;;;;;;;;;;;;;;;;;;
"Smizzle123";"1995";;"Windows 7";"Rachel's Experiment (D.T.)";"1.0";"2";"1";"1";"2";"1";"1";"2014-10-16 11:14:26.234";"2014-10-16 11:27:12.660";"1";"1";"0";"159";"158";"module.training_block4.exec-9640.GoNoGo4";;;;;;;;;;;;;;;;;;;;;;;;;;;;;;;;;;;;;;;;;;;;;;;;;;;;;;;;;;;"1261";"2014-10-16 11:22:46.263";"NST_correctLoc";"15";"1";"FINISHED";"RIGHT";"success";"455";"0";"2014-10-16 11:22:44.999";"2";;;;;;;;;;;;;;;;;;;;;
"Smizzle123";"1995";;"Windows 7";"Rachel's Experiment (D.T.)";"1.0";"2";"1";"1";"2";"1";"1";"2014-10-16 11:14:26.234";"2014-10-16 11:27:12.660";"1";"1";"0";"160";"159";"module.devaluation_practice.exec-8276.devalPractice";;;;;;;;;;;;"14326";"2014-10-16 11:23:26.782";"0";"7";"3";"7";"3998";"3079";"4192";"2014-10-16 11:23:12.444";;;;;;;;;;;;;;;;;;;;;;;;;;;;;;;;;;;;;;;;;;;;;;;;;;;;;;;;;;;;;;;;;;;;;;
"Smizzle123";"1995";;"Windows 7";"Rachel's Experiment (D.T.)";"1.0";"2";"1";"1";"2";"1";"1";"2014-10-16 11:14:26.234";"2014-10-16 11:27:12.660";"1";"1";"0";"161";"160";"module.devaluation_practice.exec-8276.devalPractice";;;;;;;;;;;;"8859";"2014-10-16 11:23:35.660";"1";"3";"2";"5";"2809";"1732";"1280";"2014-10-16 11:23:26.798";;;;;;;;;;;;;;;;;;;;;;;;;;;;;;;;;;;;;;;;;;;;;;;;;;;;;;;;;;;;;;;;;;;;;;
"Smizzle123";"1995";;"Windows 7";"Rachel's Experiment (D.T.)";"1.0";"2";"1";"1";"2";"1";"1";"2014-10-16 11:14:26.234";"2014-10-16 11:27:12.660";"1";"1";"0";"162";"161";"module.devaluation_practice.exec-8276.devalPractice";;;;;;;;;;;;"8804";"2014-10-16 11:23:44.475";"2";"2";"5";"4";"2236";"2210";"1325";"2014-10-16 11:23:35.676";;;;;;;;;;;;;;;;;;;;;;;;;;;;;;;;;;;;;;;;;;;;;;;;;;;;;;;;;;;;;;;;;;;;;;
"Smizzle123";"1995";;"Windows 7";"Rachel's Experiment (D.T.)";"1.0";"2";"1";"1";"2";"1";"1";"2014-10-16 11:14:26.234";"2014-10-16 11:27:12.660";"1";"1";"0";"163";"162";"module.devaluation_practice.exec-8276.devalPractice";;;;;;;;;;;;"7768";"2014-10-16 11:23:52.277";"3";"5";"4";"5";"1239";"1812";"1686";"2014-10-16 11:23:44.507";;;;;;;;;;;;;;;;;;;;;;;;;;;;;;;;;;;;;;;;;;;;;;;;;;;;;;;;;;;;;;;;;;;;;;
"Smizzle123";"1995";;"Windows 7";"Rachel's Experiment (D.T.)";"1.0";"2";"1";"1";"2";"1";"1";"2014-10-16 11:14:26.234";"2014-10-16 11:27:12.660";"1";"1";"0";"164";"163";"module.devaluation_block1.exec-2169.deval1";"9206";"2014-10-16 11:24:08.035";"20";"4";"3";"5";"3101";"1784";"1290";"2014-10-16 11:23:58.830";"3";;;;;;;;;;;;;;;;;;;;;;;;;;;;;;;;;;;;;;;;;;;;;;;;;;;;;;;;;;;;;;;;;;;;;;;;;;;;;;;;
"Smizzle123";"1995";;"Windows 7";"Rachel's Experiment (D.T.)";"1.0";"2";"1";"1";"2";"1";"1";"2014-10-16 11:14:26.234";"2014-10-16 11:27:12.660";"1";"1";"0";"165";"164";"module.devaluation_block1.exec-2169.deval1";"10651";"2014-10-16 11:24:18.707";"16";"4";"5";"6";"1330";"1568";"4737";"2014-10-16 11:24:08.051";"2";;;;;;;;;;;;;;;;;;;;;;;;;;;;;;;;;;;;;;;;;;;;;;;;;;;;;;;;;;;;;;;;;;;;;;;;;;;;;;;;
"Smizzle123";"1995";;"Windows 7";"Rachel's Experiment (D.T.)";"1.0";"2";"1";"1";"2";"1";"1";"2014-10-16 11:14:26.234";"2014-10-16 11:27:12.660";"1";"1";"0";"166";"165";"module.devaluation_block1.exec-2169.deval1";"7323";"2014-10-16 11:24:26.056";"25";"5";"6";"8";"1228";"1377";"1696";"2014-10-16 11:24:18.739";"3";;;;;;;;;;;;;;;;;;;;;;;;;;;;;;;;;;;;;;;;;;;;;;;;;;;;;;;;;;;;;;;;;;;;;;;;;;;;;;;;
"Smizzle123";"1995";;"Windows 7";"Rachel's Experiment (D.T.)";"1.0";"2";"1";"1";"2";"1";"1";"2014-10-16 11:14:26.234";"2014-10-16 11:27:12.660";"1";"1";"0";"167";"166";"module.devaluation_block1.exec-2169.deval1";"8955";"2014-10-16 11:24:35.028";"2";"4";"7";"9";"1040";"1804";"3096";"2014-10-16 11:24:26.072";"1";;;;;;;;;;;;;;;;;;;;;;;;;;;;;;;;;;;;;;;;;;;;;;;;;;;;;;;;;;;;;;;;;;;;;;;;;;;;;;;;
"Smizzle123";"1995";;"Windows 7";"Rachel's Experiment (D.T.)";"1.0";"2";"1";"1";"2";"1";"1";"2014-10-16 11:14:26.234";"2014-10-16 11:27:12.660";"1";"1";"0";"168";"167";"module.devaluation_block1.exec-2169.deval1";"7100";"2014-10-16 11:24:42.158";"22";"7";"6";"8";"1390";"1171";"1495";"2014-10-16 11:24:35.059";"3";;;;;;;;;;;;;;;;;;;;;;;;;;;;;;;;;;;;;;;;;;;;;;;;;;;;;;;;;;;;;;;;;;;;;;;;;;;;;;;;
"Smizzle123";"1995";;"Windows 7";"Rachel's Experiment (D.T.)";"1.0";"2";"1";"1";"2";"1";"1";"2014-10-16 11:14:26.234";"2014-10-16 11:27:12.660";"1";"1";"0";"169";"168";"module.devaluation_block1.exec-2169.deval1";"7142";"2014-10-16 11:24:49.335";"15";"4";"5";"6";"1590";"1046";"1467";"2014-10-16 11:24:42.189";"2";;;;;;;;;;;;;;;;;;;;;;;;;;;;;;;;;;;;;;;;;;;;;;;;;;;;;;;;;;;;;;;;;;;;;;;;;;;;;;;;
"Smizzle123";"1995";;"Windows 7";"Rachel's Experiment (D.T.)";"1.0";"2";"1";"1";"2";"1";"1";"2014-10-16 11:14:26.234";"2014-10-16 11:27:12.660";"1";"1";"0";"170";"169";"module.devaluation_block1.exec-2169.deval1";"7451";"2014-10-16 11:24:56.809";"9";"6";"3";"4";"1821";"983";"1632";"2014-10-16 11:24:49.351";"2";;;;;;;;;;;;;;;;;;;;;;;;;;;;;;;;;;;;;;;;;;;;;;;;;;;;;;;;;;;;;;;;;;;;;;;;;;;;;;;;
"Smizzle123";"1995";;"Windows 7";"Rachel's Experiment (D.T.)";"1.0";"2";"1";"1";"2";"1";"1";"2014-10-16 11:14:26.234";"2014-10-16 11:27:12.660";"1";"1";"0";"171";"170";"module.devaluation_block1.exec-2169.deval1";"7106";"2014-10-16 11:25:03.939";"17";"3";"1";"2";"1188";"1185";"1712";"2014-10-16 11:24:56.824";"2";;;;;;;;;;;;;;;;;;;;;;;;;;;;;;;;;;;;;;;;;;;;;;;;;;;;;;;;;;;;;;;;;;;;;;;;;;;;;;;;
"Smizzle123";"1995";;"Windows 7";"Rachel's Experiment (D.T.)";"1.0";"2";"1";"1";"2";"1";"1";"2014-10-16 11:14:26.234";"2014-10-16 11:27:12.660";"1";"1";"0";"172";"171";"module.devaluation_block1.exec-2169.deval1";"7283";"2014-10-16 11:25:11.241";"8";"6";"2";"3";"1435";"1141";"1677";"2014-10-16 11:25:03.955";"1";;;;;;;;;;;;;;;;;;;;;;;;;;;;;;;;;;;;;;;;;;;;;;;;;;;;;;;;;;;;;;;;;;;;;;;;;;;;;;;;
"Smizzle123";"1995";;"Windows 7";"Rachel's Experiment (D.T.)";"1.0";"2";"1";"1";"2";"1";"1";"2014-10-16 11:14:26.234";"2014-10-16 11:27:12.660";"1";"1";"0";"173";"172";"module.devaluation_block1.exec-2169.deval1";"6460";"2014-10-16 11:25:17.716";"21";"4";"6";"8";"1510";"1007";"914";"2014-10-16 11:25:11.257";"3";;;;;;;;;;;;;;;;;;;;;;;;;;;;;;;;;;;;;;;;;;;;;;;;;;;;;;;;;;;;;;;;;;;;;;;;;;;;;;;;
"Smizzle123";"1995";;"Windows 7";"Rachel's Experiment (D.T.)";"1.0";"2";"1";"1";"2";"1";"1";"2014-10-16 11:14:26.234";"2014-10-16 11:27:12.660";"1";"1";"0";"174";"173";"module.devaluation_block1.exec-2169.deval1";"6971";"2014-10-16 11:25:24.706";"0";"5";"4";"7";"1653";"1103";"1172";"2014-10-16 11:25:17.747";"1";;;;;;;;;;;;;;;;;;;;;;;;;;;;;;;;;;;;;;;;;;;;;;;;;;;;;;;;;;;;;;;;;;;;;;;;;;;;;;;;
"Smizzle123";"1995";;"Windows 7";"Rachel's Experiment (D.T.)";"1.0";"2";"1";"1";"2";"1";"1";"2014-10-16 11:14:26.234";"2014-10-16 11:27:12.660";"1";"1";"0";"175";"174";"module.devaluation_block1.exec-2169.deval1";"7481";"2014-10-16 11:25:32.211";"12";"5";"6";"8";"1960";"1197";"1303";"2014-10-16 11:25:24.737";"2";;;;;;;;;;;;;;;;;;;;;;;;;;;;;;;;;;;;;;;;;;;;;;;;;;;;;;;;;;;;;;;;;;;;;;;;;;;;;;;;
"Smizzle123";"1995";;"Windows 7";"Rachel's Experiment (D.T.)";"1.0";"2";"1";"1";"2";"1";"1";"2014-10-16 11:14:26.234";"2014-10-16 11:27:12.660";"1";"1";"0";"176";"175";"module.devaluation_block1.exec-2169.deval1";"6578";"2014-10-16 11:25:38.826";"18";"7";"7";"9";"1160";"1129";"1243";"2014-10-16 11:25:32.242";"3";;;;;;;;;;;;;;;;;;;;;;;;;;;;;;;;;;;;;;;;;;;;;;;;;;;;;;;;;;;;;;;;;;;;;;;;;;;;;;;;
"Smizzle123";"1995";;"Windows 7";"Rachel's Experiment (D.T.)";"1.0";"2";"1";"1";"2";"1";"1";"2014-10-16 11:14:26.234";"2014-10-16 11:27:12.660";"1";"1";"0";"177";"176";"module.devaluation_block1.exec-2169.deval1";"8411";"2014-10-16 11:25:47.252";"23";"9";"3";"8";"2195";"2127";"1040";"2014-10-16 11:25:38.842";"3";;;;;;;;;;;;;;;;;;;;;;;;;;;;;;;;;;;;;;;;;;;;;;;;;;;;;;;;;;;;;;;;;;;;;;;;;;;;;;;;
"Smizzle123";"1995";;"Windows 7";"Rachel's Experiment (D.T.)";"1.0";"2";"1";"1";"2";"1";"1";"2014-10-16 11:14:26.234";"2014-10-16 11:27:12.660";"1";"1";"0";"178";"177";"module.devaluation_block1.exec-2169.deval1";"6484";"2014-10-16 11:25:53.758";"3";"4";"4";"7";"1209";"1330";"917";"2014-10-16 11:25:47.267";"1";;;;;;;;;;;;;;;;;;;;;;;;;;;;;;;;;;;;;;;;;;;;;;;;;;;;;;;;;;;;;;;;;;;;;;;;;;;;;;;;
"Smizzle123";"1995";;"Windows 7";"Rachel's Experiment (D.T.)";"1.0";"2";"1";"1";"2";"1";"1";"2014-10-16 11:14:26.234";"2014-10-16 11:27:12.660";"1";"1";"0";"179";"178";"module.devaluation_block1.exec-2169.deval1";"6363";"2014-10-16 11:26:00.139";"4";"9";"6";"9";"1104";"990";"1249";"2014-10-16 11:25:53.773";"1";;;;;;;;;;;;;;;;;;;;;;;;;;;;;;;;;;;;;;;;;;;;;;;;;;;;;;;;;;;;;;;;;;;;;;;;;;;;;;;;
"Smizzle123";"1995";;"Windows 7";"Rachel's Experiment (D.T.)";"1.0";"2";"1";"1";"2";"1";"1";"2014-10-16 11:14:26.234";"2014-10-16 11:27:12.660";"1";"1";"0";"180";"179";"module.devaluation_block1.exec-2169.deval1";"7155";"2014-10-16 11:26:07.316";"1";"3";"7";"8";"2355";"943";"837";"2014-10-16 11:26:00.155";"1";;;;;;;;;;;;;;;;;;;;;;;;;;;;;;;;;;;;;;;;;;;;;;;;;;;;;;;;;;;;;;;;;;;;;;;;;;;;;;;;
"Smizzle123";"1995";;"Windows 7";"Rachel's Experiment (D.T.)";"1.0";"2";"1";"1";"2";"1";"1";"2014-10-16 11:14:26.234";"2014-10-16 11:27:12.660";"1";"1";"0";"181";"180";"module.devaluation_block1.exec-2169.deval1";"5917";"2014-10-16 11:26:13.261";"26";"9";"7";"9";"1100";"788";"997";"2014-10-16 11:26:07.348";"3";;;;;;;;;;;;;;;;;;;;;;;;;;;;;;;;;;;;;;;;;;;;;;;;;;;;;;;;;;;;;;;;;;;;;;;;;;;;;;;;
"Smizzle123";"1995";;"Windows 7";"Rachel's Experiment (D.T.)";"1.0";"2";"1";"1";"2";"1";"1";"2014-10-16 11:14:26.234";"2014-10-16 11:27:12.660";"1";"1";"0";"182";"181";"module.devaluation_block1.exec-2169.deval1";"5644";"2014-10-16 11:26:18.925";"24";"5";"6";"8";"932";"805";"889";"2014-10-16 11:26:13.277";"3";;;;;;;;;;;;;;;;;;;;;;;;;;;;;;;;;;;;;;;;;;;;;;;;;;;;;;;;;;;;;;;;;;;;;;;;;;;;;;;;
"Smizzle123";"1995";;"Windows 7";"Rachel's Experiment (D.T.)";"1.0";"2";"1";"1";"2";"1";"1";"2014-10-16 11:14:26.234";"2014-10-16 11:27:12.660";"1";"1";"0";"183";"182";"module.devaluation_block1.exec-2169.deval1";"6155";"2014-10-16 11:26:25.103";"13";"5";"7";"7";"677";"772";"1676";"2014-10-16 11:26:18.956";"2";;;;;;;;;;;;;;;;;;;;;;;;;;;;;;;;;;;;;;;;;;;;;;;;;;;;;;;;;;;;;;;;;;;;;;;;;;;;;;;;
"Smizzle123";"1995";;"Windows 7";"Rachel's Experiment (D.T.)";"1.0";"2";"1";"1";"2";"1";"1";"2014-10-16 11:14:26.234";"2014-10-16 11:27:12.660";"1";"1";"0";"184";"183";"module.devaluation_block1.exec-2169.deval1";"7148";"2014-10-16 11:26:32.280";"7";"4";"5";"6";"1292";"1084";"1730";"2014-10-16 11:26:25.134";"1";;;;;;;;;;;;;;;;;;;;;;;;;;;;;;;;;;;;;;;;;;;;;;;;;;;;;;;;;;;;;;;;;;;;;;;;;;;;;;;;
"Smizzle123";"1995";;"Windows 7";"Rachel's Experiment (D.T.)";"1.0";"2";"1";"1";"2";"1";"1";"2014-10-16 11:14:26.234";"2014-10-16 11:27:12.660";"1";"1";"0";"185";"184";"module.devaluation_block1.exec-2169.deval1";"6052";"2014-10-16 11:26:38.350";"14";"5";"6";"6";"1051";"1228";"755";"2014-10-16 11:26:32.296";"2";;;;;;;;;;;;;;;;;;;;;;;;;;;;;;;;;;;;;;;;;;;;;;;;;;;;;;;;;;;;;;;;;;;;;;;;;;;;;;;;
"Smizzle123";"1995";;"Windows 7";"Rachel's Experiment (D.T.)";"1.0";"2";"1";"1";"2";"1";"1";"2014-10-16 11:14:26.234";"2014-10-16 11:27:12.660";"1";"1";"0";"186";"185";"module.devaluation_block1.exec-2169.deval1";"7567";"2014-10-16 11:26:45.948";"5";"5";"6";"7";"1335";"2236";"974";"2014-10-16 11:26:38.381";"1";;;;;;;;;;;;;;;;;;;;;;;;;;;;;;;;;;;;;;;;;;;;;;;;;;;;;;;;;;;;;;;;;;;;;;;;;;;;;;;;
"Smizzle123";"1995";;"Windows 7";"Rachel's Experiment (D.T.)";"1.0";"2";"1";"1";"2";"1";"1";"2014-10-16 11:14:26.234";"2014-10-16 11:27:12.660";"1";"1";"0";"187";"186";"module.devaluation_block1.exec-2169.deval1";"6947";"2014-10-16 11:26:52.922";"19";"9";"9";"9";"1105";"1888";"931";"2014-10-16 11:26:45.964";"3";;;;;;;;;;;;;;;;;;;;;;;;;;;;;;;;;;;;;;;;;;;;;;;;;;;;;;;;;;;;;;;;;;;;;;;;;;;;;;;;
"Smizzle123";"1995";;"Windows 7";"Rachel's Experiment (D.T.)";"1.0";"2";"1";"1";"2";"1";"1";"2014-10-16 11:14:26.234";"2014-10-16 11:27:12.660";"1";"1";"0";"188";"187";"module.devaluation_block1.exec-2169.deval1";"6204";"2014-10-16 11:26:59.148";"6";"3";"5";"6";"1372";"1357";"445";"2014-10-16 11:26:52.938";"1";;;;;;;;;;;;;;;;;;;;;;;;;;;;;;;;;;;;;;;;;;;;;;;;;;;;;;;;;;;;;;;;;;;;;;;;;;;;;;;;
"Smizzle123";"1995";;"Windows 7";"Rachel's Experiment (D.T.)";"1.0";"2";"1";"1";"2";"1";"1";"2014-10-16 11:14:26.234";"2014-10-16 11:27:12.660";"1";"1";"0";"189";"188";"module.devaluation_block1.exec-2169.deval1";"6245";"2014-10-16 11:27:05.420";"10";"7";"1";"2";"1004";"1007";"1203";"2014-10-16 11:26:59.179";"2";;;;;;;;;;;;;;;;;;;;;;;;;;;;;;;;;;;;;;;;;;;;;;;;;;;;;;;;;;;;;;;;;;;;;;;;;;;;;;;;
"Smizzle123";"1995";;"Windows 7";"Rachel's Experiment (D.T.)";"1.0";"2";"1";"1";"2";"1";"1";"2014-10-16 11:14:26.234";"2014-10-16 11:27:12.660";"1";"1";"0";"190";"189";"module.devaluation_block1.exec-2169.deval1";"5532";"2014-10-16 11:27:10.975";"11";"4";"2";"3";"853";"974";"687";"2014-10-16 11:27:05.436";"2";;;;;;;;;;;;;;;;;;;;;;;;;;;;;;;;;;;;;;;;;;;;;;;;;;;;;;;;;;;;;;;;;;;;;;;;;;;;;;;;
