"user.name";"user.yearOfBirth";"user.sex";"user.osName";"module.name";"module.version";"module.online.subject.code";"module.online.study.id";"module.online.module.nr";"module.online.group.nr";"session.id";"session.index";"session.startTime";"session.endTime";"session.completed";"session.node-3910.conditionType";"session.node-8149.DevalQorder";"trial.id";"trial.index";"trial.name";"trial.deval1.durationTime";"trial.deval1.endTime";"trial.deval1.icon";"trial.deval1.Resp_Attractive";"trial.deval1.Resp_Eat";"trial.deval1.Resp_Taste";"trial.deval1.RT_Attractive";"trial.deval1.RT_Eat";"trial.deval1.RT_Taste";"trial.deval1.startTime";"trial.deval1.stimulus type";"trial.devalPractice.durationTime";"trial.devalPractice.endTime";"trial.devalPractice.icon";"trial.devalPractice.Resp_Attractive";"trial.devalPractice.Resp_Eat";"trial.devalPractice.Resp_Taste";"trial.devalPractice.RT_Attractive";"trial.devalPractice.RT_Eat";"trial.devalPractice.RT_Taste";"trial.devalPractice.startTime";"trial.devalPractice.stimulus type";"trial.GoNoGo1.durationTime";"trial.GoNoGo1.endTime";"trial.GoNoGo1.Error Type";"trial.GoNoGo1.icon";"trial.GoNoGo1.location";"trial.GoNoGo1.outcome";"trial.GoNoGo1.response";"trial.GoNoGo1.result";"trial.GoNoGo1.RT";"trial.GoNoGo1.signal";"trial.GoNoGo1.startTime";"trial.GoNoGo1.stimulus type";"trial.GoNoGo2.durationTime";"trial.GoNoGo2.endTime";"trial.GoNoGo2.Error Type";"trial.GoNoGo2.icon";"trial.GoNoGo2.location";"trial.GoNoGo2.outcome";"trial.GoNoGo2.response";"trial.GoNoGo2.result";"trial.GoNoGo2.RT";"trial.GoNoGo2.signal";"trial.GoNoGo2.startTime";"trial.GoNoGo2.stimulus type";"trial.GoNoGo3.durationTime";"trial.GoNoGo3.endTime";"trial.GoNoGo3.Error Type";"trial.GoNoGo3.icon";"trial.GoNoGo3.location";"trial.GoNoGo3.outcome";"trial.GoNoGo3.response";"trial.GoNoGo3.result";"trial.GoNoGo3.RT";"trial.GoNoGo3.signal";"trial.GoNoGo3.startTime";"trial.GoNoGo3.stimulus type";"trial.GoNoGo4.durationTime";"trial.GoNoGo4.endTime";"trial.GoNoGo4.Error Type";"trial.GoNoGo4.icon";"trial.GoNoGo4.location";"trial.GoNoGo4.outcome";"trial.GoNoGo4.response";"trial.GoNoGo4.result";"trial.GoNoGo4.RT";"trial.GoNoGo4.signal";"trial.GoNoGo4.startTime";"trial.GoNoGo4.stimulus type";"trial.GoNoGo_Practice.durationTime";"trial.GoNoGo_Practice.endTime";"trial.GoNoGo_Practice.icon";"trial.GoNoGo_Practice.location";"trial.GoNoGo_Practice.outcome";"trial.GoNoGo_Practice.response";"trial.GoNoGo_Practice.result";"trial.GoNoGo_Practice.RT";"trial.GoNoGo_Practice.signal";"trial.GoNoGo_Practice.startTime";"trial.GoNoGo_Practice.stimulus type";"trial.GoNoGo_Tutorial.durationTime";"trial.GoNoGo_Tutorial.endTime";"trial.GoNoGo_Tutorial.icon";"trial.GoNoGo_Tutorial.location";"trial.GoNoGo_Tutorial.outcome";"trial.GoNoGo_Tutorial.response";"trial.GoNoGo_Tutorial.result";"trial.GoNoGo_Tutorial.RT";"trial.GoNoGo_Tutorial.signal";"trial.GoNoGo_Tutorial.startTime"
"1324083";;;"Windows 7";"Rachel's Experiment (D.T.)";"1.0";"2";"1";"1";"2";"1";"1";"2014-10-15 17:29:43.822";"2014-10-15 17:42:11.484";"1";"1";"1";"1";"0";"module.GoNoGotutorial.exec-6221.GoNoGo_Tutorial";;;;;;;;;;;;;;;;;;;;;;;;;;;;;;;;;;;;;;;;;;;;;;;;;;;;;;;;;;;;;;;;;;;;;;;;;;;;;;;;;;"3998";"2014-10-15 17:30:32.088";"leftResponse";"0";"FINISHED";"LEFT";"success";"3720";"0";"2014-10-15 17:30:28.079"
"1324083";;;"Windows 7";"Rachel's Experiment (D.T.)";"1.0";"2";"1";"1";"2";"1";"1";"2014-10-15 17:29:43.822";"2014-10-15 17:42:11.484";"1";"1";"1";"2";"1";"module.GoNoGotutorial.exec-6221.GoNoGo_Tutorial";;;;;;;;;;;;;;;;;;;;;;;;;;;;;;;;;;;;;;;;;;;;;;;;;;;;;;;;;;;;;;;;;;;;;;;;;;;;;;;;;;"4003";"2014-10-15 17:30:37.392";"rightResponse";"1";"FINISHED";"RIGHT";"success";"1085";"0";"2014-10-15 17:30:33.383"
"1324083";;;"Windows 7";"Rachel's Experiment (D.T.)";"1.0";"2";"1";"1";"2";"1";"1";"2014-10-15 17:29:43.822";"2014-10-15 17:42:11.484";"1";"1";"1";"3";"2";"module.GoNoGotutorial.exec-6221.GoNoGo_Tutorial";;;;;;;;;;;;;;;;;;;;;;;;;;;;;;;;;;;;;;;;;;;;;;;;;;;;;;;;;;;;;;;;;;;;;;;;;;;;;;;;;;"4003";"2014-10-15 17:30:42.696";"signalResponse";"0";"FINISHED";"NONE";"success";"0";"1";"2014-10-15 17:30:38.687"
"1324083";;;"Windows 7";"Rachel's Experiment (D.T.)";"1.0";"2";"1";"1";"2";"1";"1";"2014-10-15 17:29:43.822";"2014-10-15 17:42:11.484";"1";"1";"1";"4";"3";"module.GoNoGopractice.exec-6250.GoNoGo_Practice";;;;;;;;;;;;;;;;;;;;;;;;;;;;;;;;;;;;;;;;;;;;;;;;;;;;;;;;;;;;;;;;;;;;;;;"1959";"2014-10-15 17:30:51.588";"18";"0";"FINISHED";"LEFT";"success";"740";"0";"2014-10-15 17:30:49.623";"3";;;;;;;;;;
"1324083";;;"Windows 7";"Rachel's Experiment (D.T.)";"1.0";"2";"1";"1";"2";"1";"1";"2014-10-15 17:29:43.822";"2014-10-15 17:42:11.484";"1";"1";"1";"5";"4";"module.GoNoGopractice.exec-6250.GoNoGo_Practice";;;;;;;;;;;;;;;;;;;;;;;;;;;;;;;;;;;;;;;;;;;;;;;;;;;;;;;;;;;;;;;;;;;;;;;"1954";"2014-10-15 17:30:54.833";"21";"1";"FINISHED";"RIGHT";"success";"947";"0";"2014-10-15 17:30:52.867";"3";;;;;;;;;;
"1324083";;;"Windows 7";"Rachel's Experiment (D.T.)";"1.0";"2";"1";"1";"2";"1";"1";"2014-10-15 17:29:43.822";"2014-10-15 17:42:11.484";"1";"1";"1";"6";"5";"module.GoNoGopractice.exec-6250.GoNoGo_Practice";;;;;;;;;;;;;;;;;;;;;;;;;;;;;;;;;;;;;;;;;;;;;;;;;;;;;;;;;;;;;;;;;;;;;;;"1958";"2014-10-15 17:30:58.078";"14";"1";"FINISHED";"NONE";"success";"0";"1";"2014-10-15 17:30:56.112";"2";;;;;;;;;;
"1324083";;;"Windows 7";"Rachel's Experiment (D.T.)";"1.0";"2";"1";"1";"2";"1";"1";"2014-10-15 17:29:43.822";"2014-10-15 17:42:11.484";"1";"1";"1";"7";"6";"module.GoNoGopractice.exec-6250.GoNoGo_Practice";;;;;;;;;;;;;;;;;;;;;;;;;;;;;;;;;;;;;;;;;;;;;;;;;;;;;;;;;;;;;;;;;;;;;;;"1959";"2014-10-15 17:31:01.323";"26";"0";"FINISHED";"LEFT";"success";"614";"0";"2014-10-15 17:30:59.357";"3";;;;;;;;;;
"1324083";;;"Windows 7";"Rachel's Experiment (D.T.)";"1.0";"2";"1";"1";"2";"1";"1";"2014-10-15 17:29:43.822";"2014-10-15 17:42:11.484";"1";"1";"1";"8";"7";"module.GoNoGopractice.exec-6250.GoNoGo_Practice";;;;;;;;;;;;;;;;;;;;;;;;;;;;;;;;;;;;;;;;;;;;;;;;;;;;;;;;;;;;;;;;;;;;;;;"1959";"2014-10-15 17:31:04.567";"2";"0";"FINISHED";"LEFT";"success";"666";"0";"2014-10-15 17:31:02.602";"1";;;;;;;;;;
"1324083";;;"Windows 7";"Rachel's Experiment (D.T.)";"1.0";"2";"1";"1";"2";"1";"1";"2014-10-15 17:29:43.822";"2014-10-15 17:42:11.484";"1";"1";"1";"9";"8";"module.GoNoGopractice.exec-6250.GoNoGo_Practice";;;;;;;;;;;;;;;;;;;;;;;;;;;;;;;;;;;;;;;;;;;;;;;;;;;;;;;;;;;;;;;;;;;;;;;"1960";"2014-10-15 17:31:07.812";"30";"0";"FINISHED";"NONE";"success";"0";"1";"2014-10-15 17:31:05.847";"3";;;;;;;;;;
"1324083";;;"Windows 7";"Rachel's Experiment (D.T.)";"1.0";"2";"1";"1";"2";"1";"1";"2014-10-15 17:29:43.822";"2014-10-15 17:42:11.484";"1";"1";"1";"10";"9";"module.GoNoGopractice.exec-6250.GoNoGo_Practice";;;;;;;;;;;;;;;;;;;;;;;;;;;;;;;;;;;;;;;;;;;;;;;;;;;;;;;;;;;;;;;;;;;;;;;"1959";"2014-10-15 17:31:11.057";"6";"1";"FINISHED";"NONE";"success";"0";"1";"2014-10-15 17:31:09.091";"1";;;;;;;;;;
"1324083";;;"Windows 7";"Rachel's Experiment (D.T.)";"1.0";"2";"1";"1";"2";"1";"1";"2014-10-15 17:29:43.822";"2014-10-15 17:42:11.484";"1";"1";"1";"11";"10";"module.GoNoGopractice.exec-6250.GoNoGo_Practice";;;;;;;;;;;;;;;;;;;;;;;;;;;;;;;;;;;;;;;;;;;;;;;;;;;;;;;;;;;;;;;;;;;;;;;"1960";"2014-10-15 17:31:14.302";"34";"0";"FINISHED";"LEFT";"success";"828";"0";"2014-10-15 17:31:12.336";"3";;;;;;;;;;
"1324083";;;"Windows 7";"Rachel's Experiment (D.T.)";"1.0";"2";"1";"1";"2";"1";"1";"2014-10-15 17:29:43.822";"2014-10-15 17:42:11.484";"1";"1";"1";"12";"11";"module.GoNoGopractice.exec-6250.GoNoGo_Practice";;;;;;;;;;;;;;;;;;;;;;;;;;;;;;;;;;;;;;;;;;;;;;;;;;;;;;;;;;;;;;;;;;;;;;;"1959";"2014-10-15 17:31:17.547";"23";"1";"FINISHED";"RIGHT";"success";"390";"0";"2014-10-15 17:31:15.581";"3";;;;;;;;;;
"1324083";;;"Windows 7";"Rachel's Experiment (D.T.)";"1.0";"2";"1";"1";"2";"1";"1";"2014-10-15 17:29:43.822";"2014-10-15 17:42:11.484";"1";"1";"1";"13";"12";"module.GoNoGopractice.exec-6250.GoNoGo_Practice";;;;;;;;;;;;;;;;;;;;;;;;;;;;;;;;;;;;;;;;;;;;;;;;;;;;;;;;;;;;;;;;;;;;;;;"1959";"2014-10-15 17:31:20.791";"13";"0";"FINISHED";"NONE";"success";"0";"1";"2014-10-15 17:31:18.826";"2";;;;;;;;;;
"1324083";;;"Windows 7";"Rachel's Experiment (D.T.)";"1.0";"2";"1";"1";"2";"1";"1";"2014-10-15 17:29:43.822";"2014-10-15 17:42:11.484";"1";"1";"1";"14";"13";"module.GoNoGopractice.exec-6250.GoNoGo_Practice";;;;;;;;;;;;;;;;;;;;;;;;;;;;;;;;;;;;;;;;;;;;;;;;;;;;;;;;;;;;;;;;;;;;;;;"1959";"2014-10-15 17:31:24.130";"3";"1";"FINISHED";"RIGHT";"success";"542";"0";"2014-10-15 17:31:22.164";"1";;;;;;;;;;
"1324083";;;"Windows 7";"Rachel's Experiment (D.T.)";"1.0";"2";"1";"1";"2";"1";"1";"2014-10-15 17:29:43.822";"2014-10-15 17:42:11.484";"1";"1";"1";"15";"14";"module.GoNoGopractice.exec-6250.GoNoGo_Practice";;;;;;;;;;;;;;;;;;;;;;;;;;;;;;;;;;;;;;;;;;;;;;;;;;;;;;;;;;;;;;;;;;;;;;;"1959";"2014-10-15 17:31:27.375";"27";"1";"FINISHED";"NONE";"success";"0";"1";"2014-10-15 17:31:25.409";"3";;;;;;;;;;
"1324083";;;"Windows 7";"Rachel's Experiment (D.T.)";"1.0";"2";"1";"1";"2";"1";"1";"2014-10-15 17:29:43.822";"2014-10-15 17:42:11.484";"1";"1";"1";"16";"15";"module.training_block1.exec-4644.GoNoGo1";;;;;;;;;;;;;;;;;;;;;;;"1256";"2014-10-15 17:31:37.000";"ST_correctStop";"4";"1";"FINISHED";"NONE";"success";"0";"1";"2014-10-15 17:31:35.736";"1";;;;;;;;;;;;;;;;;;;;;;;;;;;;;;;;;;;;;;;;;;;;;;;;;;;;;;;;;
"1324083";;;"Windows 7";"Rachel's Experiment (D.T.)";"1.0";"2";"1";"1";"2";"1";"1";"2014-10-15 17:29:43.822";"2014-10-15 17:42:11.484";"1";"1";"1";"17";"16";"module.training_block1.exec-4644.GoNoGo1";;;;;;;;;;;;;;;;;;;;;;;"1261";"2014-10-15 17:31:39.543";"NST_correctLoc";"27";"0";"FINISHED";"LEFT";"success";"360";"0";"2014-10-15 17:31:38.279";"3";;;;;;;;;;;;;;;;;;;;;;;;;;;;;;;;;;;;;;;;;;;;;;;;;;;;;;;;;
"1324083";;;"Windows 7";"Rachel's Experiment (D.T.)";"1.0";"2";"1";"1";"2";"1";"1";"2014-10-15 17:29:43.822";"2014-10-15 17:42:11.484";"1";"1";"1";"18";"17";"module.training_block1.exec-4644.GoNoGo1";;;;;;;;;;;;;;;;;;;;;;;"1258";"2014-10-15 17:31:42.085";"ST_correctStop";"30";"1";"FINISHED";"NONE";"success";"0";"1";"2014-10-15 17:31:40.822";"3";;;;;;;;;;;;;;;;;;;;;;;;;;;;;;;;;;;;;;;;;;;;;;;;;;;;;;;;;
"1324083";;;"Windows 7";"Rachel's Experiment (D.T.)";"1.0";"2";"1";"1";"2";"1";"1";"2014-10-15 17:29:43.822";"2014-10-15 17:42:11.484";"1";"1";"1";"19";"18";"module.training_block1.exec-4644.GoNoGo1";;;;;;;;;;;;;;;;;;;;;;;"1257";"2014-10-15 17:31:44.628";"ST_correctStop";"8";"0";"FINISHED";"NONE";"success";"0";"1";"2014-10-15 17:31:43.365";"1";;;;;;;;;;;;;;;;;;;;;;;;;;;;;;;;;;;;;;;;;;;;;;;;;;;;;;;;;
"1324083";;;"Windows 7";"Rachel's Experiment (D.T.)";"1.0";"2";"1";"1";"2";"1";"1";"2014-10-15 17:29:43.822";"2014-10-15 17:42:11.484";"1";"1";"1";"20";"19";"module.training_block1.exec-4644.GoNoGo1";;;;;;;;;;;;;;;;;;;;;;;"1257";"2014-10-15 17:31:47.171";"NST_correctLoc";"9";"1";"FINISHED";"RIGHT";"success";"744";"0";"2014-10-15 17:31:45.907";"2";;;;;;;;;;;;;;;;;;;;;;;;;;;;;;;;;;;;;;;;;;;;;;;;;;;;;;;;;
"1324083";;;"Windows 7";"Rachel's Experiment (D.T.)";"1.0";"2";"1";"1";"2";"1";"1";"2014-10-15 17:29:43.822";"2014-10-15 17:42:11.484";"1";"1";"1";"21";"20";"module.training_block1.exec-4644.GoNoGo1";;;;;;;;;;;;;;;;;;;;;;;"1258";"2014-10-15 17:31:49.714";"ST_correctStop";"18";"1";"FINISHED";"NONE";"success";"0";"1";"2014-10-15 17:31:48.450";"3";;;;;;;;;;;;;;;;;;;;;;;;;;;;;;;;;;;;;;;;;;;;;;;;;;;;;;;;;
"1324083";;;"Windows 7";"Rachel's Experiment (D.T.)";"1.0";"2";"1";"1";"2";"1";"1";"2014-10-15 17:29:43.822";"2014-10-15 17:42:11.484";"1";"1";"1";"22";"21";"module.training_block1.exec-4644.GoNoGo1";;;;;;;;;;;;;;;;;;;;;;;"1258";"2014-10-15 17:31:52.257";"ST_correctStop";"5";"1";"FINISHED";"NONE";"success";"0";"1";"2014-10-15 17:31:50.993";"1";;;;;;;;;;;;;;;;;;;;;;;;;;;;;;;;;;;;;;;;;;;;;;;;;;;;;;;;;
"1324083";;;"Windows 7";"Rachel's Experiment (D.T.)";"1.0";"2";"1";"1";"2";"1";"1";"2014-10-15 17:29:43.822";"2014-10-15 17:42:11.484";"1";"1";"1";"23";"22";"module.training_block1.exec-4644.GoNoGo1";;;;;;;;;;;;;;;;;;;;;;;"1258";"2014-10-15 17:31:54.799";"ST_correctStop";"20";"1";"FINISHED";"NONE";"success";"0";"1";"2014-10-15 17:31:53.536";"3";;;;;;;;;;;;;;;;;;;;;;;;;;;;;;;;;;;;;;;;;;;;;;;;;;;;;;;;;
"1324083";;;"Windows 7";"Rachel's Experiment (D.T.)";"1.0";"2";"1";"1";"2";"1";"1";"2014-10-15 17:29:43.822";"2014-10-15 17:42:11.484";"1";"1";"1";"24";"23";"module.training_block1.exec-4644.GoNoGo1";;;;;;;;;;;;;;;;;;;;;;;"1258";"2014-10-15 17:31:57.342";"ST_correctStop";"35";"0";"FINISHED";"NONE";"success";"0";"1";"2014-10-15 17:31:56.079";"3";;;;;;;;;;;;;;;;;;;;;;;;;;;;;;;;;;;;;;;;;;;;;;;;;;;;;;;;;
"1324083";;;"Windows 7";"Rachel's Experiment (D.T.)";"1.0";"2";"1";"1";"2";"1";"1";"2014-10-15 17:29:43.822";"2014-10-15 17:42:11.484";"1";"1";"1";"25";"24";"module.training_block1.exec-4644.GoNoGo1";;;;;;;;;;;;;;;;;;;;;;;"1256";"2014-10-15 17:31:59.885";"NST_correctLoc";"13";"0";"FINISHED";"LEFT";"success";"445";"0";"2014-10-15 17:31:58.621";"2";;;;;;;;;;;;;;;;;;;;;;;;;;;;;;;;;;;;;;;;;;;;;;;;;;;;;;;;;
"1324083";;;"Windows 7";"Rachel's Experiment (D.T.)";"1.0";"2";"1";"1";"2";"1";"1";"2014-10-15 17:29:43.822";"2014-10-15 17:42:11.484";"1";"1";"1";"26";"25";"module.training_block1.exec-4644.GoNoGo1";;;;;;;;;;;;;;;;;;;;;;;"1257";"2014-10-15 17:32:02.428";"NST_correctLoc";"10";"1";"FINISHED";"RIGHT";"success";"535";"0";"2014-10-15 17:32:01.164";"2";;;;;;;;;;;;;;;;;;;;;;;;;;;;;;;;;;;;;;;;;;;;;;;;;;;;;;;;;
"1324083";;;"Windows 7";"Rachel's Experiment (D.T.)";"1.0";"2";"1";"1";"2";"1";"1";"2014-10-15 17:29:43.822";"2014-10-15 17:42:11.484";"1";"1";"1";"27";"26";"module.training_block1.exec-4644.GoNoGo1";;;;;;;;;;;;;;;;;;;;;;;"1261";"2014-10-15 17:32:04.971";"ST_correctStop";"3";"0";"FINISHED";"NONE";"success";"0";"1";"2014-10-15 17:32:03.707";"1";;;;;;;;;;;;;;;;;;;;;;;;;;;;;;;;;;;;;;;;;;;;;;;;;;;;;;;;;
"1324083";;;"Windows 7";"Rachel's Experiment (D.T.)";"1.0";"2";"1";"1";"2";"1";"1";"2014-10-15 17:29:43.822";"2014-10-15 17:42:11.484";"1";"1";"1";"28";"27";"module.training_block1.exec-4644.GoNoGo1";;;;;;;;;;;;;;;;;;;;;;;"1253";"2014-10-15 17:32:07.513";"ST_correctStop";"24";"1";"FINISHED";"NONE";"success";"0";"1";"2014-10-15 17:32:06.250";"3";;;;;;;;;;;;;;;;;;;;;;;;;;;;;;;;;;;;;;;;;;;;;;;;;;;;;;;;;
"1324083";;;"Windows 7";"Rachel's Experiment (D.T.)";"1.0";"2";"1";"1";"2";"1";"1";"2014-10-15 17:29:43.822";"2014-10-15 17:42:11.484";"1";"1";"1";"29";"28";"module.training_block1.exec-4644.GoNoGo1";;;;;;;;;;;;;;;;;;;;;;;"1257";"2014-10-15 17:32:10.056";"ST_correctStop";"6";"0";"FINISHED";"NONE";"success";"0";"1";"2014-10-15 17:32:08.793";"1";;;;;;;;;;;;;;;;;;;;;;;;;;;;;;;;;;;;;;;;;;;;;;;;;;;;;;;;;
"1324083";;;"Windows 7";"Rachel's Experiment (D.T.)";"1.0";"2";"1";"1";"2";"1";"1";"2014-10-15 17:29:43.822";"2014-10-15 17:42:11.484";"1";"1";"1";"30";"29";"module.training_block1.exec-4644.GoNoGo1";;;;;;;;;;;;;;;;;;;;;;;"1258";"2014-10-15 17:32:12.599";"NST_correctLoc";"33";"0";"FINISHED";"LEFT";"success";"476";"0";"2014-10-15 17:32:11.335";"3";;;;;;;;;;;;;;;;;;;;;;;;;;;;;;;;;;;;;;;;;;;;;;;;;;;;;;;;;
"1324083";;;"Windows 7";"Rachel's Experiment (D.T.)";"1.0";"2";"1";"1";"2";"1";"1";"2014-10-15 17:29:43.822";"2014-10-15 17:42:11.484";"1";"1";"1";"31";"30";"module.training_block1.exec-4644.GoNoGo1";;;;;;;;;;;;;;;;;;;;;;;"1257";"2014-10-15 17:32:15.142";"NST_correctLoc";"17";"0";"FINISHED";"LEFT";"success";"693";"0";"2014-10-15 17:32:13.878";"2";;;;;;;;;;;;;;;;;;;;;;;;;;;;;;;;;;;;;;;;;;;;;;;;;;;;;;;;;
"1324083";;;"Windows 7";"Rachel's Experiment (D.T.)";"1.0";"2";"1";"1";"2";"1";"1";"2014-10-15 17:29:43.822";"2014-10-15 17:42:11.484";"1";"1";"1";"32";"31";"module.training_block1.exec-4644.GoNoGo1";;;;;;;;;;;;;;;;;;;;;;;"1258";"2014-10-15 17:32:17.685";"NST_correctLoc";"25";"0";"FINISHED";"LEFT";"success";"502";"0";"2014-10-15 17:32:16.421";"3";;;;;;;;;;;;;;;;;;;;;;;;;;;;;;;;;;;;;;;;;;;;;;;;;;;;;;;;;
"1324083";;;"Windows 7";"Rachel's Experiment (D.T.)";"1.0";"2";"1";"1";"2";"1";"1";"2014-10-15 17:29:43.822";"2014-10-15 17:42:11.484";"1";"1";"1";"33";"32";"module.training_block1.exec-4644.GoNoGo1";;;;;;;;;;;;;;;;;;;;;;;"1258";"2014-10-15 17:32:20.228";"ST_correctStop";"28";"0";"FINISHED";"NONE";"success";"0";"1";"2014-10-15 17:32:18.964";"3";;;;;;;;;;;;;;;;;;;;;;;;;;;;;;;;;;;;;;;;;;;;;;;;;;;;;;;;;
"1324083";;;"Windows 7";"Rachel's Experiment (D.T.)";"1.0";"2";"1";"1";"2";"1";"1";"2014-10-15 17:29:43.822";"2014-10-15 17:42:11.484";"1";"1";"1";"34";"33";"module.training_block1.exec-4644.GoNoGo1";;;;;;;;;;;;;;;;;;;;;;;"1257";"2014-10-15 17:32:22.770";"ST_correctStop";"2";"0";"FINISHED";"NONE";"success";"0";"1";"2014-10-15 17:32:21.507";"1";;;;;;;;;;;;;;;;;;;;;;;;;;;;;;;;;;;;;;;;;;;;;;;;;;;;;;;;;
"1324083";;;"Windows 7";"Rachel's Experiment (D.T.)";"1.0";"2";"1";"1";"2";"1";"1";"2014-10-15 17:29:43.822";"2014-10-15 17:42:11.484";"1";"1";"1";"35";"34";"module.training_block1.exec-4644.GoNoGo1";;;;;;;;;;;;;;;;;;;;;;;"1257";"2014-10-15 17:32:25.313";"NST_correctLoc";"14";"0";"FINISHED";"LEFT";"success";"409";"0";"2014-10-15 17:32:24.050";"2";;;;;;;;;;;;;;;;;;;;;;;;;;;;;;;;;;;;;;;;;;;;;;;;;;;;;;;;;
"1324083";;;"Windows 7";"Rachel's Experiment (D.T.)";"1.0";"2";"1";"1";"2";"1";"1";"2014-10-15 17:29:43.822";"2014-10-15 17:42:11.484";"1";"1";"1";"36";"35";"module.training_block1.exec-4644.GoNoGo1";;;;;;;;;;;;;;;;;;;;;;;"1258";"2014-10-15 17:32:27.856";"NST_correctLoc";"16";"1";"FINISHED";"RIGHT";"success";"539";"0";"2014-10-15 17:32:26.592";"2";;;;;;;;;;;;;;;;;;;;;;;;;;;;;;;;;;;;;;;;;;;;;;;;;;;;;;;;;
"1324083";;;"Windows 7";"Rachel's Experiment (D.T.)";"1.0";"2";"1";"1";"2";"1";"1";"2014-10-15 17:29:43.822";"2014-10-15 17:42:11.484";"1";"1";"1";"37";"36";"module.training_block1.exec-4644.GoNoGo1";;;;;;;;;;;;;;;;;;;;;;;"1257";"2014-10-15 17:32:30.399";"NST_correctLoc";"22";"1";"FINISHED";"RIGHT";"success";"427";"0";"2014-10-15 17:32:29.135";"3";;;;;;;;;;;;;;;;;;;;;;;;;;;;;;;;;;;;;;;;;;;;;;;;;;;;;;;;;
"1324083";;;"Windows 7";"Rachel's Experiment (D.T.)";"1.0";"2";"1";"1";"2";"1";"1";"2014-10-15 17:29:43.822";"2014-10-15 17:42:11.484";"1";"1";"1";"38";"37";"module.training_block1.exec-4644.GoNoGo1";;;;;;;;;;;;;;;;;;;;;;;"1258";"2014-10-15 17:32:32.942";"ST_correctStop";"1";"1";"FINISHED";"NONE";"success";"0";"1";"2014-10-15 17:32:31.678";"1";;;;;;;;;;;;;;;;;;;;;;;;;;;;;;;;;;;;;;;;;;;;;;;;;;;;;;;;;
"1324083";;;"Windows 7";"Rachel's Experiment (D.T.)";"1.0";"2";"1";"1";"2";"1";"1";"2014-10-15 17:29:43.822";"2014-10-15 17:42:11.484";"1";"1";"1";"39";"38";"module.training_block1.exec-4644.GoNoGo1";;;;;;;;;;;;;;;;;;;;;;;"1258";"2014-10-15 17:32:35.484";"ST_correctStop";"34";"1";"FINISHED";"NONE";"success";"0";"1";"2014-10-15 17:32:34.221";"3";;;;;;;;;;;;;;;;;;;;;;;;;;;;;;;;;;;;;;;;;;;;;;;;;;;;;;;;;
"1324083";;;"Windows 7";"Rachel's Experiment (D.T.)";"1.0";"2";"1";"1";"2";"1";"1";"2014-10-15 17:29:43.822";"2014-10-15 17:42:11.484";"1";"1";"1";"40";"39";"module.training_block1.exec-4644.GoNoGo1";;;;;;;;;;;;;;;;;;;;;;;"1258";"2014-10-15 17:32:38.027";"ST_correctStop";"19";"0";"FINISHED";"NONE";"success";"0";"1";"2014-10-15 17:32:36.764";"3";;;;;;;;;;;;;;;;;;;;;;;;;;;;;;;;;;;;;;;;;;;;;;;;;;;;;;;;;
"1324083";;;"Windows 7";"Rachel's Experiment (D.T.)";"1.0";"2";"1";"1";"2";"1";"1";"2014-10-15 17:29:43.822";"2014-10-15 17:42:11.484";"1";"1";"1";"41";"40";"module.training_block1.exec-4644.GoNoGo1";;;;;;;;;;;;;;;;;;;;;;;"1257";"2014-10-15 17:32:40.570";"NST_correctLoc";"15";"0";"FINISHED";"LEFT";"success";"472";"0";"2014-10-15 17:32:39.306";"2";;;;;;;;;;;;;;;;;;;;;;;;;;;;;;;;;;;;;;;;;;;;;;;;;;;;;;;;;
"1324083";;;"Windows 7";"Rachel's Experiment (D.T.)";"1.0";"2";"1";"1";"2";"1";"1";"2014-10-15 17:29:43.822";"2014-10-15 17:42:11.484";"1";"1";"1";"42";"41";"module.training_block1.exec-4644.GoNoGo1";;;;;;;;;;;;;;;;;;;;;;;"1257";"2014-10-15 17:32:43.113";"NST_correctLoc";"26";"0";"FINISHED";"LEFT";"success";"418";"0";"2014-10-15 17:32:41.849";"3";;;;;;;;;;;;;;;;;;;;;;;;;;;;;;;;;;;;;;;;;;;;;;;;;;;;;;;;;
"1324083";;;"Windows 7";"Rachel's Experiment (D.T.)";"1.0";"2";"1";"1";"2";"1";"1";"2014-10-15 17:29:43.822";"2014-10-15 17:42:11.484";"1";"1";"1";"43";"42";"module.training_block1.exec-4644.GoNoGo1";;;;;;;;;;;;;;;;;;;;;;;"1253";"2014-10-15 17:32:45.656";"ST_correctStop";"0";"0";"FINISHED";"NONE";"success";"0";"1";"2014-10-15 17:32:44.392";"1";;;;;;;;;;;;;;;;;;;;;;;;;;;;;;;;;;;;;;;;;;;;;;;;;;;;;;;;;
"1324083";;;"Windows 7";"Rachel's Experiment (D.T.)";"1.0";"2";"1";"1";"2";"1";"1";"2014-10-15 17:29:43.822";"2014-10-15 17:42:11.484";"1";"1";"1";"44";"43";"module.training_block1.exec-4644.GoNoGo1";;;;;;;;;;;;;;;;;;;;;;;"1257";"2014-10-15 17:32:48.198";"NST_correctLoc";"32";"1";"FINISHED";"RIGHT";"success";"460";"0";"2014-10-15 17:32:46.935";"3";;;;;;;;;;;;;;;;;;;;;;;;;;;;;;;;;;;;;;;;;;;;;;;;;;;;;;;;;
"1324083";;;"Windows 7";"Rachel's Experiment (D.T.)";"1.0";"2";"1";"1";"2";"1";"1";"2014-10-15 17:29:43.822";"2014-10-15 17:42:11.484";"1";"1";"1";"45";"44";"module.training_block1.exec-4644.GoNoGo1";;;;;;;;;;;;;;;;;;;;;;;"1257";"2014-10-15 17:32:50.741";"ST_correctStop";"7";"0";"FINISHED";"NONE";"success";"0";"1";"2014-10-15 17:32:49.478";"1";;;;;;;;;;;;;;;;;;;;;;;;;;;;;;;;;;;;;;;;;;;;;;;;;;;;;;;;;
"1324083";;;"Windows 7";"Rachel's Experiment (D.T.)";"1.0";"2";"1";"1";"2";"1";"1";"2014-10-15 17:29:43.822";"2014-10-15 17:42:11.484";"1";"1";"1";"46";"45";"module.training_block1.exec-4644.GoNoGo1";;;;;;;;;;;;;;;;;;;;;;;"1257";"2014-10-15 17:32:53.284";"NST_correctLoc";"21";"0";"FINISHED";"LEFT";"success";"446";"0";"2014-10-15 17:32:52.020";"3";;;;;;;;;;;;;;;;;;;;;;;;;;;;;;;;;;;;;;;;;;;;;;;;;;;;;;;;;
"1324083";;;"Windows 7";"Rachel's Experiment (D.T.)";"1.0";"2";"1";"1";"2";"1";"1";"2014-10-15 17:29:43.822";"2014-10-15 17:42:11.484";"1";"1";"1";"47";"46";"module.training_block1.exec-4644.GoNoGo1";;;;;;;;;;;;;;;;;;;;;;;"1258";"2014-10-15 17:32:55.827";"NST_correctLoc";"12";"0";"FINISHED";"LEFT";"success";"472";"0";"2014-10-15 17:32:54.563";"2";;;;;;;;;;;;;;;;;;;;;;;;;;;;;;;;;;;;;;;;;;;;;;;;;;;;;;;;;
"1324083";;;"Windows 7";"Rachel's Experiment (D.T.)";"1.0";"2";"1";"1";"2";"1";"1";"2014-10-15 17:29:43.822";"2014-10-15 17:42:11.484";"1";"1";"1";"48";"47";"module.training_block1.exec-4644.GoNoGo1";;;;;;;;;;;;;;;;;;;;;;;"1257";"2014-10-15 17:32:58.370";"ST_correctStop";"31";"1";"FINISHED";"NONE";"success";"0";"1";"2014-10-15 17:32:57.106";"3";;;;;;;;;;;;;;;;;;;;;;;;;;;;;;;;;;;;;;;;;;;;;;;;;;;;;;;;;
"1324083";;;"Windows 7";"Rachel's Experiment (D.T.)";"1.0";"2";"1";"1";"2";"1";"1";"2014-10-15 17:29:43.822";"2014-10-15 17:42:11.484";"1";"1";"1";"49";"48";"module.training_block1.exec-4644.GoNoGo1";;;;;;;;;;;;;;;;;;;;;;;"1257";"2014-10-15 17:33:00.912";"NST_correctLoc";"29";"1";"FINISHED";"RIGHT";"success";"417";"0";"2014-10-15 17:32:59.649";"3";;;;;;;;;;;;;;;;;;;;;;;;;;;;;;;;;;;;;;;;;;;;;;;;;;;;;;;;;
"1324083";;;"Windows 7";"Rachel's Experiment (D.T.)";"1.0";"2";"1";"1";"2";"1";"1";"2014-10-15 17:29:43.822";"2014-10-15 17:42:11.484";"1";"1";"1";"50";"49";"module.training_block1.exec-4644.GoNoGo1";;;;;;;;;;;;;;;;;;;;;;;"1257";"2014-10-15 17:33:03.455";"NST_correctLoc";"23";"0";"FINISHED";"LEFT";"success";"643";"0";"2014-10-15 17:33:02.192";"3";;;;;;;;;;;;;;;;;;;;;;;;;;;;;;;;;;;;;;;;;;;;;;;;;;;;;;;;;
"1324083";;;"Windows 7";"Rachel's Experiment (D.T.)";"1.0";"2";"1";"1";"2";"1";"1";"2014-10-15 17:29:43.822";"2014-10-15 17:42:11.484";"1";"1";"1";"51";"50";"module.training_block1.exec-4644.GoNoGo1";;;;;;;;;;;;;;;;;;;;;;;"1257";"2014-10-15 17:33:05.998";"NST_correctLoc";"11";"0";"FINISHED";"LEFT";"success";"476";"0";"2014-10-15 17:33:04.734";"2";;;;;;;;;;;;;;;;;;;;;;;;;;;;;;;;;;;;;;;;;;;;;;;;;;;;;;;;;
"1324083";;;"Windows 7";"Rachel's Experiment (D.T.)";"1.0";"2";"1";"1";"2";"1";"1";"2014-10-15 17:29:43.822";"2014-10-15 17:42:11.484";"1";"1";"1";"52";"51";"module.training_block2.exec-2143.GoNoGo2";;;;;;;;;;;;;;;;;;;;;;;;;;;;;;;;;;;"1261";"2014-10-15 17:33:16.980";"ST_correctStop";"19";"1";"FINISHED";"NONE";"success";"0";"1";"2014-10-15 17:33:15.717";"3";;;;;;;;;;;;;;;;;;;;;;;;;;;;;;;;;;;;;;;;;;;;;
"1324083";;;"Windows 7";"Rachel's Experiment (D.T.)";"1.0";"2";"1";"1";"2";"1";"1";"2014-10-15 17:29:43.822";"2014-10-15 17:42:11.484";"1";"1";"1";"53";"52";"module.training_block2.exec-2143.GoNoGo2";;;;;;;;;;;;;;;;;;;;;;;;;;;;;;;;;;;"1261";"2014-10-15 17:33:19.523";"NST_correctLoc";"20";"1";"FINISHED";"RIGHT";"success";"427";"0";"2014-10-15 17:33:18.260";"3";;;;;;;;;;;;;;;;;;;;;;;;;;;;;;;;;;;;;;;;;;;;;
"1324083";;;"Windows 7";"Rachel's Experiment (D.T.)";"1.0";"2";"1";"1";"2";"1";"1";"2014-10-15 17:29:43.822";"2014-10-15 17:42:11.484";"1";"1";"1";"54";"53";"module.training_block2.exec-2143.GoNoGo2";;;;;;;;;;;;;;;;;;;;;;;;;;;;;;;;;;;"1261";"2014-10-15 17:33:22.066";"NST_correctLoc";"10";"1";"FINISHED";"RIGHT";"success";"396";"0";"2014-10-15 17:33:20.802";"2";;;;;;;;;;;;;;;;;;;;;;;;;;;;;;;;;;;;;;;;;;;;;
"1324083";;;"Windows 7";"Rachel's Experiment (D.T.)";"1.0";"2";"1";"1";"2";"1";"1";"2014-10-15 17:29:43.822";"2014-10-15 17:42:11.484";"1";"1";"1";"55";"54";"module.training_block2.exec-2143.GoNoGo2";;;;;;;;;;;;;;;;;;;;;;;;;;;;;;;;;;;"1261";"2014-10-15 17:33:24.609";"ST_correctStop";"4";"1";"FINISHED";"NONE";"success";"0";"1";"2014-10-15 17:33:23.345";"1";;;;;;;;;;;;;;;;;;;;;;;;;;;;;;;;;;;;;;;;;;;;;
"1324083";;;"Windows 7";"Rachel's Experiment (D.T.)";"1.0";"2";"1";"1";"2";"1";"1";"2014-10-15 17:29:43.822";"2014-10-15 17:42:11.484";"1";"1";"1";"56";"55";"module.training_block2.exec-2143.GoNoGo2";;;;;;;;;;;;;;;;;;;;;;;;;;;;;;;;;;;"1261";"2014-10-15 17:33:27.152";"NST_correctLoc";"34";"1";"FINISHED";"RIGHT";"success";"606";"0";"2014-10-15 17:33:25.888";"3";;;;;;;;;;;;;;;;;;;;;;;;;;;;;;;;;;;;;;;;;;;;;
"1324083";;;"Windows 7";"Rachel's Experiment (D.T.)";"1.0";"2";"1";"1";"2";"1";"1";"2014-10-15 17:29:43.822";"2014-10-15 17:42:11.484";"1";"1";"1";"57";"56";"module.training_block2.exec-2143.GoNoGo2";;;;;;;;;;;;;;;;;;;;;;;;;;;;;;;;;;;"1261";"2014-10-15 17:33:29.694";"NST_correctLoc";"18";"1";"FINISHED";"RIGHT";"success";"647";"0";"2014-10-15 17:33:28.431";"3";;;;;;;;;;;;;;;;;;;;;;;;;;;;;;;;;;;;;;;;;;;;;
"1324083";;;"Windows 7";"Rachel's Experiment (D.T.)";"1.0";"2";"1";"1";"2";"1";"1";"2014-10-15 17:29:43.822";"2014-10-15 17:42:11.484";"1";"1";"1";"58";"57";"module.training_block2.exec-2143.GoNoGo2";;;;;;;;;;;;;;;;;;;;;;;;;;;;;;;;;;;"1261";"2014-10-15 17:33:32.237";"ST_correctStop";"35";"1";"FINISHED";"NONE";"success";"0";"1";"2014-10-15 17:33:30.974";"3";;;;;;;;;;;;;;;;;;;;;;;;;;;;;;;;;;;;;;;;;;;;;
"1324083";;;"Windows 7";"Rachel's Experiment (D.T.)";"1.0";"2";"1";"1";"2";"1";"1";"2014-10-15 17:29:43.822";"2014-10-15 17:42:11.484";"1";"1";"1";"59";"58";"module.training_block2.exec-2143.GoNoGo2";;;;;;;;;;;;;;;;;;;;;;;;;;;;;;;;;;;"1261";"2014-10-15 17:33:34.780";"NST_correctLoc";"25";"0";"FINISHED";"LEFT";"success";"490";"0";"2014-10-15 17:33:33.516";"3";;;;;;;;;;;;;;;;;;;;;;;;;;;;;;;;;;;;;;;;;;;;;
"1324083";;;"Windows 7";"Rachel's Experiment (D.T.)";"1.0";"2";"1";"1";"2";"1";"1";"2014-10-15 17:29:43.822";"2014-10-15 17:42:11.484";"1";"1";"1";"60";"59";"module.training_block2.exec-2143.GoNoGo2";;;;;;;;;;;;;;;;;;;;;;;;;;;;;;;;;;;"1261";"2014-10-15 17:33:37.323";"NST_correctLoc";"14";"1";"FINISHED";"RIGHT";"success";"539";"0";"2014-10-15 17:33:36.059";"2";;;;;;;;;;;;;;;;;;;;;;;;;;;;;;;;;;;;;;;;;;;;;
"1324083";;;"Windows 7";"Rachel's Experiment (D.T.)";"1.0";"2";"1";"1";"2";"1";"1";"2014-10-15 17:29:43.822";"2014-10-15 17:42:11.484";"1";"1";"1";"61";"60";"module.training_block2.exec-2143.GoNoGo2";;;;;;;;;;;;;;;;;;;;;;;;;;;;;;;;;;;"1261";"2014-10-15 17:33:39.866";"NST_correctLoc";"23";"0";"FINISHED";"LEFT";"success";"540";"0";"2014-10-15 17:33:38.602";"3";;;;;;;;;;;;;;;;;;;;;;;;;;;;;;;;;;;;;;;;;;;;;
"1324083";;;"Windows 7";"Rachel's Experiment (D.T.)";"1.0";"2";"1";"1";"2";"1";"1";"2014-10-15 17:29:43.822";"2014-10-15 17:42:11.484";"1";"1";"1";"62";"61";"module.training_block2.exec-2143.GoNoGo2";;;;;;;;;;;;;;;;;;;;;;;;;;;;;;;;;;;"1261";"2014-10-15 17:33:42.408";"ST_correctStop";"3";"1";"FINISHED";"NONE";"success";"0";"1";"2014-10-15 17:33:41.145";"1";;;;;;;;;;;;;;;;;;;;;;;;;;;;;;;;;;;;;;;;;;;;;
"1324083";;;"Windows 7";"Rachel's Experiment (D.T.)";"1.0";"2";"1";"1";"2";"1";"1";"2014-10-15 17:29:43.822";"2014-10-15 17:42:11.484";"1";"1";"1";"63";"62";"module.training_block2.exec-2143.GoNoGo2";;;;;;;;;;;;;;;;;;;;;;;;;;;;;;;;;;;"1261";"2014-10-15 17:33:44.982";"ST_correctStop";"21";"1";"FINISHED";"NONE";"success";"0";"1";"2014-10-15 17:33:43.719";"3";;;;;;;;;;;;;;;;;;;;;;;;;;;;;;;;;;;;;;;;;;;;;
"1324083";;;"Windows 7";"Rachel's Experiment (D.T.)";"1.0";"2";"1";"1";"2";"1";"1";"2014-10-15 17:29:43.822";"2014-10-15 17:42:11.484";"1";"1";"1";"64";"63";"module.training_block2.exec-2143.GoNoGo2";;;;;;;;;;;;;;;;;;;;;;;;;;;;;;;;;;;"1261";"2014-10-15 17:33:47.572";"NST_correctLoc";"15";"1";"FINISHED";"RIGHT";"success";"498";"0";"2014-10-15 17:33:46.308";"2";;;;;;;;;;;;;;;;;;;;;;;;;;;;;;;;;;;;;;;;;;;;;
"1324083";;;"Windows 7";"Rachel's Experiment (D.T.)";"1.0";"2";"1";"1";"2";"1";"1";"2014-10-15 17:29:43.822";"2014-10-15 17:42:11.484";"1";"1";"1";"65";"64";"module.training_block2.exec-2143.GoNoGo2";;;;;;;;;;;;;;;;;;;;;;;;;;;;;;;;;;;"1261";"2014-10-15 17:33:50.115";"NST_correctLoc";"9";"0";"FINISHED";"LEFT";"success";"507";"0";"2014-10-15 17:33:48.851";"2";;;;;;;;;;;;;;;;;;;;;;;;;;;;;;;;;;;;;;;;;;;;;
"1324083";;;"Windows 7";"Rachel's Experiment (D.T.)";"1.0";"2";"1";"1";"2";"1";"1";"2014-10-15 17:29:43.822";"2014-10-15 17:42:11.484";"1";"1";"1";"66";"65";"module.training_block2.exec-2143.GoNoGo2";;;;;;;;;;;;;;;;;;;;;;;;;;;;;;;;;;;"1261";"2014-10-15 17:33:52.658";"ST_correctStop";"28";"1";"FINISHED";"NONE";"success";"0";"1";"2014-10-15 17:33:51.394";"3";;;;;;;;;;;;;;;;;;;;;;;;;;;;;;;;;;;;;;;;;;;;;
"1324083";;;"Windows 7";"Rachel's Experiment (D.T.)";"1.0";"2";"1";"1";"2";"1";"1";"2014-10-15 17:29:43.822";"2014-10-15 17:42:11.484";"1";"1";"1";"67";"66";"module.training_block2.exec-2143.GoNoGo2";;;;;;;;;;;;;;;;;;;;;;;;;;;;;;;;;;;"1261";"2014-10-15 17:33:55.200";"ST_correctStop";"2";"0";"FINISHED";"NONE";"success";"0";"1";"2014-10-15 17:33:53.937";"1";;;;;;;;;;;;;;;;;;;;;;;;;;;;;;;;;;;;;;;;;;;;;
"1324083";;;"Windows 7";"Rachel's Experiment (D.T.)";"1.0";"2";"1";"1";"2";"1";"1";"2014-10-15 17:29:43.822";"2014-10-15 17:42:11.484";"1";"1";"1";"68";"67";"module.training_block2.exec-2143.GoNoGo2";;;;;;;;;;;;;;;;;;;;;;;;;;;;;;;;;;;"1261";"2014-10-15 17:33:57.743";"NST_correctLoc";"12";"1";"FINISHED";"RIGHT";"success";"431";"0";"2014-10-15 17:33:56.480";"2";;;;;;;;;;;;;;;;;;;;;;;;;;;;;;;;;;;;;;;;;;;;;
"1324083";;;"Windows 7";"Rachel's Experiment (D.T.)";"1.0";"2";"1";"1";"2";"1";"1";"2014-10-15 17:29:43.822";"2014-10-15 17:42:11.484";"1";"1";"1";"69";"68";"module.training_block2.exec-2143.GoNoGo2";;;;;;;;;;;;;;;;;;;;;;;;;;;;;;;;;;;"1261";"2014-10-15 17:34:00.286";"NST_correctLoc";"13";"1";"FINISHED";"RIGHT";"success";"456";"0";"2014-10-15 17:33:59.022";"2";;;;;;;;;;;;;;;;;;;;;;;;;;;;;;;;;;;;;;;;;;;;;
"1324083";;;"Windows 7";"Rachel's Experiment (D.T.)";"1.0";"2";"1";"1";"2";"1";"1";"2014-10-15 17:29:43.822";"2014-10-15 17:42:11.484";"1";"1";"1";"70";"69";"module.training_block2.exec-2143.GoNoGo2";;;;;;;;;;;;;;;;;;;;;;;;;;;;;;;;;;;"1261";"2014-10-15 17:34:02.829";"ST_correctStop";"26";"0";"FINISHED";"NONE";"success";"0";"1";"2014-10-15 17:34:01.565";"3";;;;;;;;;;;;;;;;;;;;;;;;;;;;;;;;;;;;;;;;;;;;;
"1324083";;;"Windows 7";"Rachel's Experiment (D.T.)";"1.0";"2";"1";"1";"2";"1";"1";"2014-10-15 17:29:43.822";"2014-10-15 17:42:11.484";"1";"1";"1";"71";"70";"module.training_block2.exec-2143.GoNoGo2";;;;;;;;;;;;;;;;;;;;;;;;;;;;;;;;;;;"1261";"2014-10-15 17:34:05.372";"ST_correctStop";"7";"1";"FINISHED";"NONE";"success";"0";"1";"2014-10-15 17:34:04.108";"1";;;;;;;;;;;;;;;;;;;;;;;;;;;;;;;;;;;;;;;;;;;;;
"1324083";;;"Windows 7";"Rachel's Experiment (D.T.)";"1.0";"2";"1";"1";"2";"1";"1";"2014-10-15 17:29:43.822";"2014-10-15 17:42:11.484";"1";"1";"1";"72";"71";"module.training_block2.exec-2143.GoNoGo2";;;;;;;;;;;;;;;;;;;;;;;;;;;;;;;;;;;"1261";"2014-10-15 17:34:07.914";"NST_correctLoc";"30";"0";"FINISHED";"LEFT";"success";"571";"0";"2014-10-15 17:34:06.651";"3";;;;;;;;;;;;;;;;;;;;;;;;;;;;;;;;;;;;;;;;;;;;;
"1324083";;;"Windows 7";"Rachel's Experiment (D.T.)";"1.0";"2";"1";"1";"2";"1";"1";"2014-10-15 17:29:43.822";"2014-10-15 17:42:11.484";"1";"1";"1";"73";"72";"module.training_block2.exec-2143.GoNoGo2";;;;;;;;;;;;;;;;;;;;;;;;;;;;;;;;;;;"1261";"2014-10-15 17:34:10.457";"NST_correctLoc";"17";"1";"FINISHED";"RIGHT";"success";"548";"0";"2014-10-15 17:34:09.194";"2";;;;;;;;;;;;;;;;;;;;;;;;;;;;;;;;;;;;;;;;;;;;;
"1324083";;;"Windows 7";"Rachel's Experiment (D.T.)";"1.0";"2";"1";"1";"2";"1";"1";"2014-10-15 17:29:43.822";"2014-10-15 17:42:11.484";"1";"1";"1";"74";"73";"module.training_block2.exec-2143.GoNoGo2";;;;;;;;;;;;;;;;;;;;;;;;;;;;;;;;;;;"1261";"2014-10-15 17:34:13.016";"NST_correctLoc";"16";"1";"FINISHED";"RIGHT";"success";"478";"0";"2014-10-15 17:34:11.752";"2";;;;;;;;;;;;;;;;;;;;;;;;;;;;;;;;;;;;;;;;;;;;;
"1324083";;;"Windows 7";"Rachel's Experiment (D.T.)";"1.0";"2";"1";"1";"2";"1";"1";"2014-10-15 17:29:43.822";"2014-10-15 17:42:11.484";"1";"1";"1";"75";"74";"module.training_block2.exec-2143.GoNoGo2";;;;;;;;;;;;;;;;;;;;;;;;;;;;;;;;;;;"1261";"2014-10-15 17:34:15.559";"NST_correctLoc";"11";"0";"FINISHED";"LEFT";"success";"543";"0";"2014-10-15 17:34:14.295";"2";;;;;;;;;;;;;;;;;;;;;;;;;;;;;;;;;;;;;;;;;;;;;
"1324083";;;"Windows 7";"Rachel's Experiment (D.T.)";"1.0";"2";"1";"1";"2";"1";"1";"2014-10-15 17:29:43.822";"2014-10-15 17:42:11.484";"1";"1";"1";"76";"75";"module.training_block2.exec-2143.GoNoGo2";;;;;;;;;;;;;;;;;;;;;;;;;;;;;;;;;;;"1261";"2014-10-15 17:34:18.101";"ST_correctStop";"0";"1";"FINISHED";"NONE";"success";"0";"1";"2014-10-15 17:34:16.838";"1";;;;;;;;;;;;;;;;;;;;;;;;;;;;;;;;;;;;;;;;;;;;;
"1324083";;;"Windows 7";"Rachel's Experiment (D.T.)";"1.0";"2";"1";"1";"2";"1";"1";"2014-10-15 17:29:43.822";"2014-10-15 17:42:11.484";"1";"1";"1";"77";"76";"module.training_block2.exec-2143.GoNoGo2";;;;;;;;;;;;;;;;;;;;;;;;;;;;;;;;;;;"1261";"2014-10-15 17:34:20.644";"NST_correctLoc";"22";"1";"FINISHED";"RIGHT";"success";"577";"0";"2014-10-15 17:34:19.381";"3";;;;;;;;;;;;;;;;;;;;;;;;;;;;;;;;;;;;;;;;;;;;;
"1324083";;;"Windows 7";"Rachel's Experiment (D.T.)";"1.0";"2";"1";"1";"2";"1";"1";"2014-10-15 17:29:43.822";"2014-10-15 17:42:11.484";"1";"1";"1";"78";"77";"module.training_block2.exec-2143.GoNoGo2";;;;;;;;;;;;;;;;;;;;;;;;;;;;;;;;;;;"1261";"2014-10-15 17:34:23.187";"ST_failedStop";"24";"0";"FINISHED";"LEFT";"failure";"571";"1";"2014-10-15 17:34:21.923";"3";;;;;;;;;;;;;;;;;;;;;;;;;;;;;;;;;;;;;;;;;;;;;
"1324083";;;"Windows 7";"Rachel's Experiment (D.T.)";"1.0";"2";"1";"1";"2";"1";"1";"2014-10-15 17:29:43.822";"2014-10-15 17:42:11.484";"1";"1";"1";"79";"78";"module.training_block2.exec-2143.GoNoGo2";;;;;;;;;;;;;;;;;;;;;;;;;;;;;;;;;;;"1261";"2014-10-15 17:34:25.730";"ST_correctStop";"6";"0";"FINISHED";"NONE";"success";"0";"1";"2014-10-15 17:34:24.466";"1";;;;;;;;;;;;;;;;;;;;;;;;;;;;;;;;;;;;;;;;;;;;;
"1324083";;;"Windows 7";"Rachel's Experiment (D.T.)";"1.0";"2";"1";"1";"2";"1";"1";"2014-10-15 17:29:43.822";"2014-10-15 17:42:11.484";"1";"1";"1";"80";"79";"module.training_block2.exec-2143.GoNoGo2";;;;;;;;;;;;;;;;;;;;;;;;;;;;;;;;;;;"1261";"2014-10-15 17:34:28.273";"ST_correctStop";"31";"1";"FINISHED";"NONE";"success";"0";"1";"2014-10-15 17:34:27.009";"3";;;;;;;;;;;;;;;;;;;;;;;;;;;;;;;;;;;;;;;;;;;;;
"1324083";;;"Windows 7";"Rachel's Experiment (D.T.)";"1.0";"2";"1";"1";"2";"1";"1";"2014-10-15 17:29:43.822";"2014-10-15 17:42:11.484";"1";"1";"1";"81";"80";"module.training_block2.exec-2143.GoNoGo2";;;;;;;;;;;;;;;;;;;;;;;;;;;;;;;;;;;"1261";"2014-10-15 17:34:30.815";"ST_correctStop";"8";"1";"FINISHED";"NONE";"success";"0";"1";"2014-10-15 17:34:29.552";"1";;;;;;;;;;;;;;;;;;;;;;;;;;;;;;;;;;;;;;;;;;;;;
"1324083";;;"Windows 7";"Rachel's Experiment (D.T.)";"1.0";"2";"1";"1";"2";"1";"1";"2014-10-15 17:29:43.822";"2014-10-15 17:42:11.484";"1";"1";"1";"82";"81";"module.training_block2.exec-2143.GoNoGo2";;;;;;;;;;;;;;;;;;;;;;;;;;;;;;;;;;;"1261";"2014-10-15 17:34:33.358";"ST_correctStop";"1";"1";"FINISHED";"NONE";"success";"0";"1";"2014-10-15 17:34:32.095";"1";;;;;;;;;;;;;;;;;;;;;;;;;;;;;;;;;;;;;;;;;;;;;
"1324083";;;"Windows 7";"Rachel's Experiment (D.T.)";"1.0";"2";"1";"1";"2";"1";"1";"2014-10-15 17:29:43.822";"2014-10-15 17:42:11.484";"1";"1";"1";"83";"82";"module.training_block2.exec-2143.GoNoGo2";;;;;;;;;;;;;;;;;;;;;;;;;;;;;;;;;;;"1261";"2014-10-15 17:34:35.917";"NST_correctLoc";"32";"1";"FINISHED";"RIGHT";"success";"721";"0";"2014-10-15 17:34:34.653";"3";;;;;;;;;;;;;;;;;;;;;;;;;;;;;;;;;;;;;;;;;;;;;
"1324083";;;"Windows 7";"Rachel's Experiment (D.T.)";"1.0";"2";"1";"1";"2";"1";"1";"2014-10-15 17:29:43.822";"2014-10-15 17:42:11.484";"1";"1";"1";"84";"83";"module.training_block2.exec-2143.GoNoGo2";;;;;;;;;;;;;;;;;;;;;;;;;;;;;;;;;;;"1261";"2014-10-15 17:34:38.459";"ST_correctStop";"33";"1";"FINISHED";"NONE";"success";"0";"1";"2014-10-15 17:34:37.196";"3";;;;;;;;;;;;;;;;;;;;;;;;;;;;;;;;;;;;;;;;;;;;;
"1324083";;;"Windows 7";"Rachel's Experiment (D.T.)";"1.0";"2";"1";"1";"2";"1";"1";"2014-10-15 17:29:43.822";"2014-10-15 17:42:11.484";"1";"1";"1";"85";"84";"module.training_block2.exec-2143.GoNoGo2";;;;;;;;;;;;;;;;;;;;;;;;;;;;;;;;;;;"1261";"2014-10-15 17:34:41.002";"ST_correctStop";"29";"1";"FINISHED";"NONE";"success";"0";"1";"2014-10-15 17:34:39.739";"3";;;;;;;;;;;;;;;;;;;;;;;;;;;;;;;;;;;;;;;;;;;;;
"1324083";;;"Windows 7";"Rachel's Experiment (D.T.)";"1.0";"2";"1";"1";"2";"1";"1";"2014-10-15 17:29:43.822";"2014-10-15 17:42:11.484";"1";"1";"1";"86";"85";"module.training_block2.exec-2143.GoNoGo2";;;;;;;;;;;;;;;;;;;;;;;;;;;;;;;;;;;"1261";"2014-10-15 17:34:43.545";"NST_correctLoc";"27";"1";"FINISHED";"RIGHT";"success";"644";"0";"2014-10-15 17:34:42.281";"3";;;;;;;;;;;;;;;;;;;;;;;;;;;;;;;;;;;;;;;;;;;;;
"1324083";;;"Windows 7";"Rachel's Experiment (D.T.)";"1.0";"2";"1";"1";"2";"1";"1";"2014-10-15 17:29:43.822";"2014-10-15 17:42:11.484";"1";"1";"1";"87";"86";"module.training_block2.exec-2143.GoNoGo2";;;;;;;;;;;;;;;;;;;;;;;;;;;;;;;;;;;"1261";"2014-10-15 17:34:46.088";"ST_correctStop";"5";"1";"FINISHED";"NONE";"success";"0";"1";"2014-10-15 17:34:44.824";"1";;;;;;;;;;;;;;;;;;;;;;;;;;;;;;;;;;;;;;;;;;;;;
"1324083";;;"Windows 7";"Rachel's Experiment (D.T.)";"1.0";"2";"1";"1";"2";"1";"1";"2014-10-15 17:29:43.822";"2014-10-15 17:42:11.484";"1";"1";"1";"88";"87";"module.training_block3.exec-1413.GoNoGo3";;;;;;;;;;;;;;;;;;;;;;;;;;;;;;;;;;;;;;;;;;;;;;;"1261";"2014-10-15 17:34:56.821";"ST_correctStop";"21";"0";"FINISHED";"NONE";"success";"0";"1";"2014-10-15 17:34:55.557";"3";;;;;;;;;;;;;;;;;;;;;;;;;;;;;;;;;
"1324083";;;"Windows 7";"Rachel's Experiment (D.T.)";"1.0";"2";"1";"1";"2";"1";"1";"2014-10-15 17:29:43.822";"2014-10-15 17:42:11.484";"1";"1";"1";"89";"88";"module.training_block3.exec-1413.GoNoGo3";;;;;;;;;;;;;;;;;;;;;;;;;;;;;;;;;;;;;;;;;;;;;;;"1261";"2014-10-15 17:34:59.363";"ST_correctStop";"32";"1";"FINISHED";"NONE";"success";"0";"1";"2014-10-15 17:34:58.100";"3";;;;;;;;;;;;;;;;;;;;;;;;;;;;;;;;;
"1324083";;;"Windows 7";"Rachel's Experiment (D.T.)";"1.0";"2";"1";"1";"2";"1";"1";"2014-10-15 17:29:43.822";"2014-10-15 17:42:11.484";"1";"1";"1";"90";"89";"module.training_block3.exec-1413.GoNoGo3";;;;;;;;;;;;;;;;;;;;;;;;;;;;;;;;;;;;;;;;;;;;;;;"1261";"2014-10-15 17:35:01.906";"ST_correctStop";"1";"1";"FINISHED";"NONE";"success";"0";"1";"2014-10-15 17:35:00.643";"1";;;;;;;;;;;;;;;;;;;;;;;;;;;;;;;;;
"1324083";;;"Windows 7";"Rachel's Experiment (D.T.)";"1.0";"2";"1";"1";"2";"1";"1";"2014-10-15 17:29:43.822";"2014-10-15 17:42:11.484";"1";"1";"1";"91";"90";"module.training_block3.exec-1413.GoNoGo3";;;;;;;;;;;;;;;;;;;;;;;;;;;;;;;;;;;;;;;;;;;;;;;"1261";"2014-10-15 17:35:04.449";"ST_correctStop";"0";"1";"FINISHED";"NONE";"success";"0";"1";"2014-10-15 17:35:03.185";"1";;;;;;;;;;;;;;;;;;;;;;;;;;;;;;;;;
"1324083";;;"Windows 7";"Rachel's Experiment (D.T.)";"1.0";"2";"1";"1";"2";"1";"1";"2014-10-15 17:29:43.822";"2014-10-15 17:42:11.484";"1";"1";"1";"92";"91";"module.training_block3.exec-1413.GoNoGo3";;;;;;;;;;;;;;;;;;;;;;;;;;;;;;;;;;;;;;;;;;;;;;;"1261";"2014-10-15 17:35:06.992";"NST_correctLoc";"24";"0";"FINISHED";"LEFT";"success";"566";"0";"2014-10-15 17:35:05.728";"3";;;;;;;;;;;;;;;;;;;;;;;;;;;;;;;;;
"1324083";;;"Windows 7";"Rachel's Experiment (D.T.)";"1.0";"2";"1";"1";"2";"1";"1";"2014-10-15 17:29:43.822";"2014-10-15 17:42:11.484";"1";"1";"1";"93";"92";"module.training_block3.exec-1413.GoNoGo3";;;;;;;;;;;;;;;;;;;;;;;;;;;;;;;;;;;;;;;;;;;;;;;"1261";"2014-10-15 17:35:09.535";"ST_correctStop";"6";"1";"FINISHED";"NONE";"success";"0";"1";"2014-10-15 17:35:08.271";"1";;;;;;;;;;;;;;;;;;;;;;;;;;;;;;;;;
"1324083";;;"Windows 7";"Rachel's Experiment (D.T.)";"1.0";"2";"1";"1";"2";"1";"1";"2014-10-15 17:29:43.822";"2014-10-15 17:42:11.484";"1";"1";"1";"94";"93";"module.training_block3.exec-1413.GoNoGo3";;;;;;;;;;;;;;;;;;;;;;;;;;;;;;;;;;;;;;;;;;;;;;;"1261";"2014-10-15 17:35:12.077";"ST_correctStop";"3";"1";"FINISHED";"NONE";"success";"0";"1";"2014-10-15 17:35:10.814";"1";;;;;;;;;;;;;;;;;;;;;;;;;;;;;;;;;
"1324083";;;"Windows 7";"Rachel's Experiment (D.T.)";"1.0";"2";"1";"1";"2";"1";"1";"2014-10-15 17:29:43.822";"2014-10-15 17:42:11.484";"1";"1";"1";"95";"94";"module.training_block3.exec-1413.GoNoGo3";;;;;;;;;;;;;;;;;;;;;;;;;;;;;;;;;;;;;;;;;;;;;;;"1261";"2014-10-15 17:35:14.620";"NST_correctLoc";"14";"1";"FINISHED";"RIGHT";"success";"521";"0";"2014-10-15 17:35:13.357";"2";;;;;;;;;;;;;;;;;;;;;;;;;;;;;;;;;
"1324083";;;"Windows 7";"Rachel's Experiment (D.T.)";"1.0";"2";"1";"1";"2";"1";"1";"2014-10-15 17:29:43.822";"2014-10-15 17:42:11.484";"1";"1";"1";"96";"95";"module.training_block3.exec-1413.GoNoGo3";;;;;;;;;;;;;;;;;;;;;;;;;;;;;;;;;;;;;;;;;;;;;;;"1261";"2014-10-15 17:35:17.163";"NST_correctLoc";"10";"1";"FINISHED";"RIGHT";"success";"482";"0";"2014-10-15 17:35:15.899";"2";;;;;;;;;;;;;;;;;;;;;;;;;;;;;;;;;
"1324083";;;"Windows 7";"Rachel's Experiment (D.T.)";"1.0";"2";"1";"1";"2";"1";"1";"2014-10-15 17:29:43.822";"2014-10-15 17:42:11.484";"1";"1";"1";"97";"96";"module.training_block3.exec-1413.GoNoGo3";;;;;;;;;;;;;;;;;;;;;;;;;;;;;;;;;;;;;;;;;;;;;;;"1261";"2014-10-15 17:35:19.706";"NST_correctLoc";"33";"1";"FINISHED";"RIGHT";"success";"676";"0";"2014-10-15 17:35:18.442";"3";;;;;;;;;;;;;;;;;;;;;;;;;;;;;;;;;
"1324083";;;"Windows 7";"Rachel's Experiment (D.T.)";"1.0";"2";"1";"1";"2";"1";"1";"2014-10-15 17:29:43.822";"2014-10-15 17:42:11.484";"1";"1";"1";"98";"97";"module.training_block3.exec-1413.GoNoGo3";;;;;;;;;;;;;;;;;;;;;;;;;;;;;;;;;;;;;;;;;;;;;;;"1261";"2014-10-15 17:35:22.249";"NST_correctLoc";"25";"1";"FINISHED";"RIGHT";"success";"517";"0";"2014-10-15 17:35:20.985";"3";;;;;;;;;;;;;;;;;;;;;;;;;;;;;;;;;
"1324083";;;"Windows 7";"Rachel's Experiment (D.T.)";"1.0";"2";"1";"1";"2";"1";"1";"2014-10-15 17:29:43.822";"2014-10-15 17:42:11.484";"1";"1";"1";"99";"98";"module.training_block3.exec-1413.GoNoGo3";;;;;;;;;;;;;;;;;;;;;;;;;;;;;;;;;;;;;;;;;;;;;;;"1261";"2014-10-15 17:35:24.791";"NST_correctLoc";"13";"0";"FINISHED";"LEFT";"success";"478";"0";"2014-10-15 17:35:23.528";"2";;;;;;;;;;;;;;;;;;;;;;;;;;;;;;;;;
"1324083";;;"Windows 7";"Rachel's Experiment (D.T.)";"1.0";"2";"1";"1";"2";"1";"1";"2014-10-15 17:29:43.822";"2014-10-15 17:42:11.484";"1";"1";"1";"100";"99";"module.training_block3.exec-1413.GoNoGo3";;;;;;;;;;;;;;;;;;;;;;;;;;;;;;;;;;;;;;;;;;;;;;;"1261";"2014-10-15 17:35:27.334";"ST_correctStop";"8";"0";"FINISHED";"NONE";"success";"0";"1";"2014-10-15 17:35:26.071";"1";;;;;;;;;;;;;;;;;;;;;;;;;;;;;;;;;
"1324083";;;"Windows 7";"Rachel's Experiment (D.T.)";"1.0";"2";"1";"1";"2";"1";"1";"2014-10-15 17:29:43.822";"2014-10-15 17:42:11.484";"1";"1";"1";"101";"100";"module.training_block3.exec-1413.GoNoGo3";;;;;;;;;;;;;;;;;;;;;;;;;;;;;;;;;;;;;;;;;;;;;;;"1261";"2014-10-15 17:35:29.877";"NST_correctLoc";"16";"1";"FINISHED";"RIGHT";"success";"768";"0";"2014-10-15 17:35:28.613";"2";;;;;;;;;;;;;;;;;;;;;;;;;;;;;;;;;
"1324083";;;"Windows 7";"Rachel's Experiment (D.T.)";"1.0";"2";"1";"1";"2";"1";"1";"2014-10-15 17:29:43.822";"2014-10-15 17:42:11.484";"1";"1";"1";"102";"101";"module.training_block3.exec-1413.GoNoGo3";;;;;;;;;;;;;;;;;;;;;;;;;;;;;;;;;;;;;;;;;;;;;;;"1261";"2014-10-15 17:35:32.420";"NST_correctLoc";"19";"1";"FINISHED";"RIGHT";"success";"601";"0";"2014-10-15 17:35:31.156";"3";;;;;;;;;;;;;;;;;;;;;;;;;;;;;;;;;
"1324083";;;"Windows 7";"Rachel's Experiment (D.T.)";"1.0";"2";"1";"1";"2";"1";"1";"2014-10-15 17:29:43.822";"2014-10-15 17:42:11.484";"1";"1";"1";"103";"102";"module.training_block3.exec-1413.GoNoGo3";;;;;;;;;;;;;;;;;;;;;;;;;;;;;;;;;;;;;;;;;;;;;;;"1261";"2014-10-15 17:35:34.963";"ST_correctStop";"22";"0";"FINISHED";"NONE";"success";"0";"1";"2014-10-15 17:35:33.699";"3";;;;;;;;;;;;;;;;;;;;;;;;;;;;;;;;;
"1324083";;;"Windows 7";"Rachel's Experiment (D.T.)";"1.0";"2";"1";"1";"2";"1";"1";"2014-10-15 17:29:43.822";"2014-10-15 17:42:11.484";"1";"1";"1";"104";"103";"module.training_block3.exec-1413.GoNoGo3";;;;;;;;;;;;;;;;;;;;;;;;;;;;;;;;;;;;;;;;;;;;;;;"1261";"2014-10-15 17:35:37.505";"ST_correctStop";"29";"1";"FINISHED";"NONE";"success";"0";"1";"2014-10-15 17:35:36.242";"3";;;;;;;;;;;;;;;;;;;;;;;;;;;;;;;;;
"1324083";;;"Windows 7";"Rachel's Experiment (D.T.)";"1.0";"2";"1";"1";"2";"1";"1";"2014-10-15 17:29:43.822";"2014-10-15 17:42:11.484";"1";"1";"1";"105";"104";"module.training_block3.exec-1413.GoNoGo3";;;;;;;;;;;;;;;;;;;;;;;;;;;;;;;;;;;;;;;;;;;;;;;"1262";"2014-10-15 17:35:40.033";"ST_correctStop";"4";"1";"FINISHED";"NONE";"success";"0";"1";"2014-10-15 17:35:38.769";"1";;;;;;;;;;;;;;;;;;;;;;;;;;;;;;;;;
"1324083";;;"Windows 7";"Rachel's Experiment (D.T.)";"1.0";"2";"1";"1";"2";"1";"1";"2014-10-15 17:29:43.822";"2014-10-15 17:42:11.484";"1";"1";"1";"106";"105";"module.training_block3.exec-1413.GoNoGo3";;;;;;;;;;;;;;;;;;;;;;;;;;;;;;;;;;;;;;;;;;;;;;;"1261";"2014-10-15 17:35:42.575";"NST_correctLoc";"9";"1";"FINISHED";"RIGHT";"success";"510";"0";"2014-10-15 17:35:41.312";"2";;;;;;;;;;;;;;;;;;;;;;;;;;;;;;;;;
"1324083";;;"Windows 7";"Rachel's Experiment (D.T.)";"1.0";"2";"1";"1";"2";"1";"1";"2014-10-15 17:29:43.822";"2014-10-15 17:42:11.484";"1";"1";"1";"107";"106";"module.training_block3.exec-1413.GoNoGo3";;;;;;;;;;;;;;;;;;;;;;;;;;;;;;;;;;;;;;;;;;;;;;;"1261";"2014-10-15 17:35:45.118";"ST_correctStop";"20";"0";"FINISHED";"NONE";"success";"0";"1";"2014-10-15 17:35:43.855";"3";;;;;;;;;;;;;;;;;;;;;;;;;;;;;;;;;
"1324083";;;"Windows 7";"Rachel's Experiment (D.T.)";"1.0";"2";"1";"1";"2";"1";"1";"2014-10-15 17:29:43.822";"2014-10-15 17:42:11.484";"1";"1";"1";"108";"107";"module.training_block3.exec-1413.GoNoGo3";;;;;;;;;;;;;;;;;;;;;;;;;;;;;;;;;;;;;;;;;;;;;;;"1261";"2014-10-15 17:35:47.661";"NST_correctLoc";"26";"1";"FINISHED";"RIGHT";"success";"464";"0";"2014-10-15 17:35:46.397";"3";;;;;;;;;;;;;;;;;;;;;;;;;;;;;;;;;
"1324083";;;"Windows 7";"Rachel's Experiment (D.T.)";"1.0";"2";"1";"1";"2";"1";"1";"2014-10-15 17:29:43.822";"2014-10-15 17:42:11.484";"1";"1";"1";"109";"108";"module.training_block3.exec-1413.GoNoGo3";;;;;;;;;;;;;;;;;;;;;;;;;;;;;;;;;;;;;;;;;;;;;;;"1261";"2014-10-15 17:35:50.204";"NST_correctLoc";"15";"1";"FINISHED";"RIGHT";"success";"561";"0";"2014-10-15 17:35:48.940";"2";;;;;;;;;;;;;;;;;;;;;;;;;;;;;;;;;
"1324083";;;"Windows 7";"Rachel's Experiment (D.T.)";"1.0";"2";"1";"1";"2";"1";"1";"2014-10-15 17:29:43.822";"2014-10-15 17:42:11.484";"1";"1";"1";"110";"109";"module.training_block3.exec-1413.GoNoGo3";;;;;;;;;;;;;;;;;;;;;;;;;;;;;;;;;;;;;;;;;;;;;;;"1262";"2014-10-15 17:35:52.731";"NST_correctLoc";"31";"0";"FINISHED";"LEFT";"success";"506";"0";"2014-10-15 17:35:51.467";"3";;;;;;;;;;;;;;;;;;;;;;;;;;;;;;;;;
"1324083";;;"Windows 7";"Rachel's Experiment (D.T.)";"1.0";"2";"1";"1";"2";"1";"1";"2014-10-15 17:29:43.822";"2014-10-15 17:42:11.484";"1";"1";"1";"111";"110";"module.training_block3.exec-1413.GoNoGo3";;;;;;;;;;;;;;;;;;;;;;;;;;;;;;;;;;;;;;;;;;;;;;;"1261";"2014-10-15 17:35:55.274";"ST_correctStop";"28";"0";"FINISHED";"NONE";"success";"0";"1";"2014-10-15 17:35:54.010";"3";;;;;;;;;;;;;;;;;;;;;;;;;;;;;;;;;
"1324083";;;"Windows 7";"Rachel's Experiment (D.T.)";"1.0";"2";"1";"1";"2";"1";"1";"2014-10-15 17:29:43.822";"2014-10-15 17:42:11.484";"1";"1";"1";"112";"111";"module.training_block3.exec-1413.GoNoGo3";;;;;;;;;;;;;;;;;;;;;;;;;;;;;;;;;;;;;;;;;;;;;;;"1261";"2014-10-15 17:35:57.832";"NST_correctLoc";"30";"1";"FINISHED";"RIGHT";"success";"589";"0";"2014-10-15 17:35:56.569";"3";;;;;;;;;;;;;;;;;;;;;;;;;;;;;;;;;
"1324083";;;"Windows 7";"Rachel's Experiment (D.T.)";"1.0";"2";"1";"1";"2";"1";"1";"2014-10-15 17:29:43.822";"2014-10-15 17:42:11.484";"1";"1";"1";"113";"112";"module.training_block3.exec-1413.GoNoGo3";;;;;;;;;;;;;;;;;;;;;;;;;;;;;;;;;;;;;;;;;;;;;;;"1261";"2014-10-15 17:36:00.375";"NST_correctLoc";"35";"0";"FINISHED";"LEFT";"success";"814";"0";"2014-10-15 17:35:59.111";"3";;;;;;;;;;;;;;;;;;;;;;;;;;;;;;;;;
"1324083";;;"Windows 7";"Rachel's Experiment (D.T.)";"1.0";"2";"1";"1";"2";"1";"1";"2014-10-15 17:29:43.822";"2014-10-15 17:42:11.484";"1";"1";"1";"114";"113";"module.training_block3.exec-1413.GoNoGo3";;;;;;;;;;;;;;;;;;;;;;;;;;;;;;;;;;;;;;;;;;;;;;;"1261";"2014-10-15 17:36:02.918";"NST_correctLoc";"23";"0";"FINISHED";"LEFT";"success";"519";"0";"2014-10-15 17:36:01.654";"3";;;;;;;;;;;;;;;;;;;;;;;;;;;;;;;;;
"1324083";;;"Windows 7";"Rachel's Experiment (D.T.)";"1.0";"2";"1";"1";"2";"1";"1";"2014-10-15 17:29:43.822";"2014-10-15 17:42:11.484";"1";"1";"1";"115";"114";"module.training_block3.exec-1413.GoNoGo3";;;;;;;;;;;;;;;;;;;;;;;;;;;;;;;;;;;;;;;;;;;;;;;"1261";"2014-10-15 17:36:05.445";"NST_correctLoc";"17";"0";"FINISHED";"LEFT";"success";"608";"0";"2014-10-15 17:36:04.182";"2";;;;;;;;;;;;;;;;;;;;;;;;;;;;;;;;;
"1324083";;;"Windows 7";"Rachel's Experiment (D.T.)";"1.0";"2";"1";"1";"2";"1";"1";"2014-10-15 17:29:43.822";"2014-10-15 17:42:11.484";"1";"1";"1";"116";"115";"module.training_block3.exec-1413.GoNoGo3";;;;;;;;;;;;;;;;;;;;;;;;;;;;;;;;;;;;;;;;;;;;;;;"1261";"2014-10-15 17:36:07.988";"ST_correctStop";"27";"1";"FINISHED";"NONE";"success";"0";"1";"2014-10-15 17:36:06.724";"3";;;;;;;;;;;;;;;;;;;;;;;;;;;;;;;;;
"1324083";;;"Windows 7";"Rachel's Experiment (D.T.)";"1.0";"2";"1";"1";"2";"1";"1";"2014-10-15 17:29:43.822";"2014-10-15 17:42:11.484";"1";"1";"1";"117";"116";"module.training_block3.exec-1413.GoNoGo3";;;;;;;;;;;;;;;;;;;;;;;;;;;;;;;;;;;;;;;;;;;;;;;"1261";"2014-10-15 17:36:10.515";"ST_correctStop";"2";"0";"FINISHED";"NONE";"success";"0";"1";"2014-10-15 17:36:09.252";"1";;;;;;;;;;;;;;;;;;;;;;;;;;;;;;;;;
"1324083";;;"Windows 7";"Rachel's Experiment (D.T.)";"1.0";"2";"1";"1";"2";"1";"1";"2014-10-15 17:29:43.822";"2014-10-15 17:42:11.484";"1";"1";"1";"118";"117";"module.training_block3.exec-1413.GoNoGo3";;;;;;;;;;;;;;;;;;;;;;;;;;;;;;;;;;;;;;;;;;;;;;;"1262";"2014-10-15 17:36:13.042";"ST_correctStop";"34";"0";"FINISHED";"NONE";"success";"0";"1";"2014-10-15 17:36:11.779";"3";;;;;;;;;;;;;;;;;;;;;;;;;;;;;;;;;
"1324083";;;"Windows 7";"Rachel's Experiment (D.T.)";"1.0";"2";"1";"1";"2";"1";"1";"2014-10-15 17:29:43.822";"2014-10-15 17:42:11.484";"1";"1";"1";"119";"118";"module.training_block3.exec-1413.GoNoGo3";;;;;;;;;;;;;;;;;;;;;;;;;;;;;;;;;;;;;;;;;;;;;;;"1261";"2014-10-15 17:36:15.585";"NST_correctLoc";"11";"0";"FINISHED";"LEFT";"success";"548";"0";"2014-10-15 17:36:14.322";"2";;;;;;;;;;;;;;;;;;;;;;;;;;;;;;;;;
"1324083";;;"Windows 7";"Rachel's Experiment (D.T.)";"1.0";"2";"1";"1";"2";"1";"1";"2014-10-15 17:29:43.822";"2014-10-15 17:42:11.484";"1";"1";"1";"120";"119";"module.training_block3.exec-1413.GoNoGo3";;;;;;;;;;;;;;;;;;;;;;;;;;;;;;;;;;;;;;;;;;;;;;;"1261";"2014-10-15 17:36:18.112";"NST_correctLoc";"12";"1";"FINISHED";"RIGHT";"success";"485";"0";"2014-10-15 17:36:16.849";"2";;;;;;;;;;;;;;;;;;;;;;;;;;;;;;;;;
"1324083";;;"Windows 7";"Rachel's Experiment (D.T.)";"1.0";"2";"1";"1";"2";"1";"1";"2014-10-15 17:29:43.822";"2014-10-15 17:42:11.484";"1";"1";"1";"121";"120";"module.training_block3.exec-1413.GoNoGo3";;;;;;;;;;;;;;;;;;;;;;;;;;;;;;;;;;;;;;;;;;;;;;;"1261";"2014-10-15 17:36:20.640";"ST_correctStop";"5";"1";"FINISHED";"NONE";"success";"0";"1";"2014-10-15 17:36:19.376";"1";;;;;;;;;;;;;;;;;;;;;;;;;;;;;;;;;
"1324083";;;"Windows 7";"Rachel's Experiment (D.T.)";"1.0";"2";"1";"1";"2";"1";"1";"2014-10-15 17:29:43.822";"2014-10-15 17:42:11.484";"1";"1";"1";"122";"121";"module.training_block3.exec-1413.GoNoGo3";;;;;;;;;;;;;;;;;;;;;;;;;;;;;;;;;;;;;;;;;;;;;;;"1261";"2014-10-15 17:36:23.198";"ST_correctStop";"7";"0";"FINISHED";"NONE";"success";"0";"1";"2014-10-15 17:36:21.934";"1";;;;;;;;;;;;;;;;;;;;;;;;;;;;;;;;;
"1324083";;;"Windows 7";"Rachel's Experiment (D.T.)";"1.0";"2";"1";"1";"2";"1";"1";"2014-10-15 17:29:43.822";"2014-10-15 17:42:11.484";"1";"1";"1";"123";"122";"module.training_block3.exec-1413.GoNoGo3";;;;;;;;;;;;;;;;;;;;;;;;;;;;;;;;;;;;;;;;;;;;;;;"1261";"2014-10-15 17:36:25.725";"ST_correctStop";"18";"0";"FINISHED";"NONE";"success";"0";"1";"2014-10-15 17:36:24.462";"3";;;;;;;;;;;;;;;;;;;;;;;;;;;;;;;;;
"1324083";;;"Windows 7";"Rachel's Experiment (D.T.)";"1.0";"2";"1";"1";"2";"1";"1";"2014-10-15 17:29:43.822";"2014-10-15 17:42:11.484";"1";"1";"1";"124";"123";"module.training_block4.exec-2395.GoNoGo4";;;;;;;;;;;;;;;;;;;;;;;;;;;;;;;;;;;;;;;;;;;;;;;;;;;;;;;;;;;"1261";"2014-10-15 17:36:35.912";"ST_correctStop";"18";"1";"FINISHED";"NONE";"success";"0";"1";"2014-10-15 17:36:34.648";"3";;;;;;;;;;;;;;;;;;;;;
"1324083";;;"Windows 7";"Rachel's Experiment (D.T.)";"1.0";"2";"1";"1";"2";"1";"1";"2014-10-15 17:29:43.822";"2014-10-15 17:42:11.484";"1";"1";"1";"125";"124";"module.training_block4.exec-2395.GoNoGo4";;;;;;;;;;;;;;;;;;;;;;;;;;;;;;;;;;;;;;;;;;;;;;;;;;;;;;;;;;;"1261";"2014-10-15 17:36:38.455";"NST_correctLoc";"9";"0";"FINISHED";"LEFT";"success";"438";"0";"2014-10-15 17:36:37.191";"2";;;;;;;;;;;;;;;;;;;;;
"1324083";;;"Windows 7";"Rachel's Experiment (D.T.)";"1.0";"2";"1";"1";"2";"1";"1";"2014-10-15 17:29:43.822";"2014-10-15 17:42:11.484";"1";"1";"1";"126";"125";"module.training_block4.exec-2395.GoNoGo4";;;;;;;;;;;;;;;;;;;;;;;;;;;;;;;;;;;;;;;;;;;;;;;;;;;;;;;;;;;"1261";"2014-10-15 17:36:40.982";"NST_correctLoc";"11";"1";"FINISHED";"RIGHT";"success";"543";"0";"2014-10-15 17:36:39.718";"2";;;;;;;;;;;;;;;;;;;;;
"1324083";;;"Windows 7";"Rachel's Experiment (D.T.)";"1.0";"2";"1";"1";"2";"1";"1";"2014-10-15 17:29:43.822";"2014-10-15 17:42:11.484";"1";"1";"1";"127";"126";"module.training_block4.exec-2395.GoNoGo4";;;;;;;;;;;;;;;;;;;;;;;;;;;;;;;;;;;;;;;;;;;;;;;;;;;;;;;;;;;"1261";"2014-10-15 17:36:43.509";"NST_correctLoc";"25";"0";"FINISHED";"LEFT";"success";"528";"0";"2014-10-15 17:36:42.246";"3";;;;;;;;;;;;;;;;;;;;;
"1324083";;;"Windows 7";"Rachel's Experiment (D.T.)";"1.0";"2";"1";"1";"2";"1";"1";"2014-10-15 17:29:43.822";"2014-10-15 17:42:11.484";"1";"1";"1";"128";"127";"module.training_block4.exec-2395.GoNoGo4";;;;;;;;;;;;;;;;;;;;;;;;;;;;;;;;;;;;;;;;;;;;;;;;;;;;;;;;;;;"1261";"2014-10-15 17:36:46.052";"NST_correctLoc";"27";"1";"FINISHED";"RIGHT";"success";"609";"0";"2014-10-15 17:36:44.788";"3";;;;;;;;;;;;;;;;;;;;;
"1324083";;;"Windows 7";"Rachel's Experiment (D.T.)";"1.0";"2";"1";"1";"2";"1";"1";"2014-10-15 17:29:43.822";"2014-10-15 17:42:11.484";"1";"1";"1";"129";"128";"module.training_block4.exec-2395.GoNoGo4";;;;;;;;;;;;;;;;;;;;;;;;;;;;;;;;;;;;;;;;;;;;;;;;;;;;;;;;;;;"1261";"2014-10-15 17:36:48.579";"ST_correctStop";"4";"1";"FINISHED";"NONE";"success";"0";"1";"2014-10-15 17:36:47.316";"1";;;;;;;;;;;;;;;;;;;;;
"1324083";;;"Windows 7";"Rachel's Experiment (D.T.)";"1.0";"2";"1";"1";"2";"1";"1";"2014-10-15 17:29:43.822";"2014-10-15 17:42:11.484";"1";"1";"1";"130";"129";"module.training_block4.exec-2395.GoNoGo4";;;;;;;;;;;;;;;;;;;;;;;;;;;;;;;;;;;;;;;;;;;;;;;;;;;;;;;;;;;"1261";"2014-10-15 17:36:51.106";"NST_correctLoc";"14";"1";"FINISHED";"RIGHT";"success";"562";"0";"2014-10-15 17:36:49.843";"2";;;;;;;;;;;;;;;;;;;;;
"1324083";;;"Windows 7";"Rachel's Experiment (D.T.)";"1.0";"2";"1";"1";"2";"1";"1";"2014-10-15 17:29:43.822";"2014-10-15 17:42:11.484";"1";"1";"1";"131";"130";"module.training_block4.exec-2395.GoNoGo4";;;;;;;;;;;;;;;;;;;;;;;;;;;;;;;;;;;;;;;;;;;;;;;;;;;;;;;;;;;"1261";"2014-10-15 17:36:53.665";"NST_correctLoc";"15";"0";"FINISHED";"LEFT";"success";"460";"0";"2014-10-15 17:36:52.401";"2";;;;;;;;;;;;;;;;;;;;;
"1324083";;;"Windows 7";"Rachel's Experiment (D.T.)";"1.0";"2";"1";"1";"2";"1";"1";"2014-10-15 17:29:43.822";"2014-10-15 17:42:11.484";"1";"1";"1";"132";"131";"module.training_block4.exec-2395.GoNoGo4";;;;;;;;;;;;;;;;;;;;;;;;;;;;;;;;;;;;;;;;;;;;;;;;;;;;;;;;;;;"1261";"2014-10-15 17:36:56.192";"ST_correctStop";"19";"1";"FINISHED";"NONE";"success";"0";"1";"2014-10-15 17:36:54.928";"3";;;;;;;;;;;;;;;;;;;;;
"1324083";;;"Windows 7";"Rachel's Experiment (D.T.)";"1.0";"2";"1";"1";"2";"1";"1";"2014-10-15 17:29:43.822";"2014-10-15 17:42:11.484";"1";"1";"1";"133";"132";"module.training_block4.exec-2395.GoNoGo4";;;;;;;;;;;;;;;;;;;;;;;;;;;;;;;;;;;;;;;;;;;;;;;;;;;;;;;;;;;"1261";"2014-10-15 17:36:58.735";"ST_correctStop";"31";"0";"FINISHED";"NONE";"success";"0";"1";"2014-10-15 17:36:57.471";"3";;;;;;;;;;;;;;;;;;;;;
"1324083";;;"Windows 7";"Rachel's Experiment (D.T.)";"1.0";"2";"1";"1";"2";"1";"1";"2014-10-15 17:29:43.822";"2014-10-15 17:42:11.484";"1";"1";"1";"134";"133";"module.training_block4.exec-2395.GoNoGo4";;;;;;;;;;;;;;;;;;;;;;;;;;;;;;;;;;;;;;;;;;;;;;;;;;;;;;;;;;;"1262";"2014-10-15 17:37:01.262";"NST_correctLoc";"16";"0";"FINISHED";"LEFT";"success";"495";"0";"2014-10-15 17:36:59.998";"2";;;;;;;;;;;;;;;;;;;;;
"1324083";;;"Windows 7";"Rachel's Experiment (D.T.)";"1.0";"2";"1";"1";"2";"1";"1";"2014-10-15 17:29:43.822";"2014-10-15 17:42:11.484";"1";"1";"1";"135";"134";"module.training_block4.exec-2395.GoNoGo4";;;;;;;;;;;;;;;;;;;;;;;;;;;;;;;;;;;;;;;;;;;;;;;;;;;;;;;;;;;"1261";"2014-10-15 17:37:03.805";"NST_correctLoc";"35";"0";"FINISHED";"LEFT";"success";"488";"0";"2014-10-15 17:37:02.541";"3";;;;;;;;;;;;;;;;;;;;;
"1324083";;;"Windows 7";"Rachel's Experiment (D.T.)";"1.0";"2";"1";"1";"2";"1";"1";"2014-10-15 17:29:43.822";"2014-10-15 17:42:11.484";"1";"1";"1";"136";"135";"module.training_block4.exec-2395.GoNoGo4";;;;;;;;;;;;;;;;;;;;;;;;;;;;;;;;;;;;;;;;;;;;;;;;;;;;;;;;;;;"1262";"2014-10-15 17:37:06.332";"NST_correctLoc";"23";"0";"FINISHED";"LEFT";"success";"433";"0";"2014-10-15 17:37:05.068";"3";;;;;;;;;;;;;;;;;;;;;
"1324083";;;"Windows 7";"Rachel's Experiment (D.T.)";"1.0";"2";"1";"1";"2";"1";"1";"2014-10-15 17:29:43.822";"2014-10-15 17:42:11.484";"1";"1";"1";"137";"136";"module.training_block4.exec-2395.GoNoGo4";;;;;;;;;;;;;;;;;;;;;;;;;;;;;;;;;;;;;;;;;;;;;;;;;;;;;;;;;;;"1262";"2014-10-15 17:37:08.859";"ST_correctStop";"29";"0";"FINISHED";"NONE";"success";"0";"1";"2014-10-15 17:37:07.596";"3";;;;;;;;;;;;;;;;;;;;;
"1324083";;;"Windows 7";"Rachel's Experiment (D.T.)";"1.0";"2";"1";"1";"2";"1";"1";"2014-10-15 17:29:43.822";"2014-10-15 17:42:11.484";"1";"1";"1";"138";"137";"module.training_block4.exec-2395.GoNoGo4";;;;;;;;;;;;;;;;;;;;;;;;;;;;;;;;;;;;;;;;;;;;;;;;;;;;;;;;;;;"1262";"2014-10-15 17:37:11.402";"NST_correctLoc";"28";"1";"FINISHED";"RIGHT";"success";"443";"0";"2014-10-15 17:37:10.138";"3";;;;;;;;;;;;;;;;;;;;;
"1324083";;;"Windows 7";"Rachel's Experiment (D.T.)";"1.0";"2";"1";"1";"2";"1";"1";"2014-10-15 17:29:43.822";"2014-10-15 17:42:11.484";"1";"1";"1";"139";"138";"module.training_block4.exec-2395.GoNoGo4";;;;;;;;;;;;;;;;;;;;;;;;;;;;;;;;;;;;;;;;;;;;;;;;;;;;;;;;;;;"1261";"2014-10-15 17:37:13.929";"NST_correctLoc";"13";"1";"FINISHED";"RIGHT";"success";"443";"0";"2014-10-15 17:37:12.666";"2";;;;;;;;;;;;;;;;;;;;;
"1324083";;;"Windows 7";"Rachel's Experiment (D.T.)";"1.0";"2";"1";"1";"2";"1";"1";"2014-10-15 17:29:43.822";"2014-10-15 17:42:11.484";"1";"1";"1";"140";"139";"module.training_block4.exec-2395.GoNoGo4";;;;;;;;;;;;;;;;;;;;;;;;;;;;;;;;;;;;;;;;;;;;;;;;;;;;;;;;;;;"1261";"2014-10-15 17:37:16.456";"ST_correctStop";"0";"1";"FINISHED";"NONE";"success";"0";"1";"2014-10-15 17:37:15.193";"1";;;;;;;;;;;;;;;;;;;;;
"1324083";;;"Windows 7";"Rachel's Experiment (D.T.)";"1.0";"2";"1";"1";"2";"1";"1";"2014-10-15 17:29:43.822";"2014-10-15 17:42:11.484";"1";"1";"1";"141";"140";"module.training_block4.exec-2395.GoNoGo4";;;;;;;;;;;;;;;;;;;;;;;;;;;;;;;;;;;;;;;;;;;;;;;;;;;;;;;;;;;"1262";"2014-10-15 17:37:19.015";"ST_correctStop";"2";"0";"FINISHED";"NONE";"success";"0";"1";"2014-10-15 17:37:17.751";"1";;;;;;;;;;;;;;;;;;;;;
"1324083";;;"Windows 7";"Rachel's Experiment (D.T.)";"1.0";"2";"1";"1";"2";"1";"1";"2014-10-15 17:29:43.822";"2014-10-15 17:42:11.484";"1";"1";"1";"142";"141";"module.training_block4.exec-2395.GoNoGo4";;;;;;;;;;;;;;;;;;;;;;;;;;;;;;;;;;;;;;;;;;;;;;;;;;;;;;;;;;;"1261";"2014-10-15 17:37:21.542";"ST_correctStop";"30";"0";"FINISHED";"NONE";"success";"0";"1";"2014-10-15 17:37:20.278";"3";;;;;;;;;;;;;;;;;;;;;
"1324083";;;"Windows 7";"Rachel's Experiment (D.T.)";"1.0";"2";"1";"1";"2";"1";"1";"2014-10-15 17:29:43.822";"2014-10-15 17:42:11.484";"1";"1";"1";"143";"142";"module.training_block4.exec-2395.GoNoGo4";;;;;;;;;;;;;;;;;;;;;;;;;;;;;;;;;;;;;;;;;;;;;;;;;;;;;;;;;;;"1261";"2014-10-15 17:37:24.085";"NST_correctLoc";"32";"1";"FINISHED";"RIGHT";"success";"528";"0";"2014-10-15 17:37:22.821";"3";;;;;;;;;;;;;;;;;;;;;
"1324083";;;"Windows 7";"Rachel's Experiment (D.T.)";"1.0";"2";"1";"1";"2";"1";"1";"2014-10-15 17:29:43.822";"2014-10-15 17:42:11.484";"1";"1";"1";"144";"143";"module.training_block4.exec-2395.GoNoGo4";;;;;;;;;;;;;;;;;;;;;;;;;;;;;;;;;;;;;;;;;;;;;;;;;;;;;;;;;;;"1261";"2014-10-15 17:37:26.612";"ST_correctStop";"21";"1";"FINISHED";"NONE";"success";"0";"1";"2014-10-15 17:37:25.348";"3";;;;;;;;;;;;;;;;;;;;;
"1324083";;;"Windows 7";"Rachel's Experiment (D.T.)";"1.0";"2";"1";"1";"2";"1";"1";"2014-10-15 17:29:43.822";"2014-10-15 17:42:11.484";"1";"1";"1";"145";"144";"module.training_block4.exec-2395.GoNoGo4";;;;;;;;;;;;;;;;;;;;;;;;;;;;;;;;;;;;;;;;;;;;;;;;;;;;;;;;;;;"1262";"2014-10-15 17:37:29.139";"ST_correctStop";"34";"1";"FINISHED";"NONE";"success";"0";"1";"2014-10-15 17:37:27.876";"3";;;;;;;;;;;;;;;;;;;;;
"1324083";;;"Windows 7";"Rachel's Experiment (D.T.)";"1.0";"2";"1";"1";"2";"1";"1";"2014-10-15 17:29:43.822";"2014-10-15 17:42:11.484";"1";"1";"1";"146";"145";"module.training_block4.exec-2395.GoNoGo4";;;;;;;;;;;;;;;;;;;;;;;;;;;;;;;;;;;;;;;;;;;;;;;;;;;;;;;;;;;"1261";"2014-10-15 17:37:31.698";"ST_correctStop";"7";"0";"FINISHED";"NONE";"success";"0";"1";"2014-10-15 17:37:30.434";"1";;;;;;;;;;;;;;;;;;;;;
"1324083";;;"Windows 7";"Rachel's Experiment (D.T.)";"1.0";"2";"1";"1";"2";"1";"1";"2014-10-15 17:29:43.822";"2014-10-15 17:42:11.484";"1";"1";"1";"147";"146";"module.training_block4.exec-2395.GoNoGo4";;;;;;;;;;;;;;;;;;;;;;;;;;;;;;;;;;;;;;;;;;;;;;;;;;;;;;;;;;;"1261";"2014-10-15 17:37:34.225";"ST_correctStop";"3";"1";"FINISHED";"NONE";"success";"0";"1";"2014-10-15 17:37:32.961";"1";;;;;;;;;;;;;;;;;;;;;
"1324083";;;"Windows 7";"Rachel's Experiment (D.T.)";"1.0";"2";"1";"1";"2";"1";"1";"2014-10-15 17:29:43.822";"2014-10-15 17:42:11.484";"1";"1";"1";"148";"147";"module.training_block4.exec-2395.GoNoGo4";;;;;;;;;;;;;;;;;;;;;;;;;;;;;;;;;;;;;;;;;;;;;;;;;;;;;;;;;;;"1261";"2014-10-15 17:37:36.768";"NST_correctLoc";"22";"0";"FINISHED";"LEFT";"success";"509";"0";"2014-10-15 17:37:35.504";"3";;;;;;;;;;;;;;;;;;;;;
"1324083";;;"Windows 7";"Rachel's Experiment (D.T.)";"1.0";"2";"1";"1";"2";"1";"1";"2014-10-15 17:29:43.822";"2014-10-15 17:42:11.484";"1";"1";"1";"149";"148";"module.training_block4.exec-2395.GoNoGo4";;;;;;;;;;;;;;;;;;;;;;;;;;;;;;;;;;;;;;;;;;;;;;;;;;;;;;;;;;;"1262";"2014-10-15 17:37:39.295";"ST_correctStop";"6";"1";"FINISHED";"NONE";"success";"0";"1";"2014-10-15 17:37:38.031";"1";;;;;;;;;;;;;;;;;;;;;
"1324083";;;"Windows 7";"Rachel's Experiment (D.T.)";"1.0";"2";"1";"1";"2";"1";"1";"2014-10-15 17:29:43.822";"2014-10-15 17:42:11.484";"1";"1";"1";"150";"149";"module.training_block4.exec-2395.GoNoGo4";;;;;;;;;;;;;;;;;;;;;;;;;;;;;;;;;;;;;;;;;;;;;;;;;;;;;;;;;;;"1261";"2014-10-15 17:37:41.822";"ST_correctStop";"26";"0";"FINISHED";"NONE";"success";"0";"1";"2014-10-15 17:37:40.558";"3";;;;;;;;;;;;;;;;;;;;;
"1324083";;;"Windows 7";"Rachel's Experiment (D.T.)";"1.0";"2";"1";"1";"2";"1";"1";"2014-10-15 17:29:43.822";"2014-10-15 17:42:11.484";"1";"1";"1";"151";"150";"module.training_block4.exec-2395.GoNoGo4";;;;;;;;;;;;;;;;;;;;;;;;;;;;;;;;;;;;;;;;;;;;;;;;;;;;;;;;;;;"1261";"2014-10-15 17:37:44.349";"NST_correctLoc";"33";"1";"FINISHED";"RIGHT";"success";"647";"0";"2014-10-15 17:37:43.086";"3";;;;;;;;;;;;;;;;;;;;;
"1324083";;;"Windows 7";"Rachel's Experiment (D.T.)";"1.0";"2";"1";"1";"2";"1";"1";"2014-10-15 17:29:43.822";"2014-10-15 17:42:11.484";"1";"1";"1";"152";"151";"module.training_block4.exec-2395.GoNoGo4";;;;;;;;;;;;;;;;;;;;;;;;;;;;;;;;;;;;;;;;;;;;;;;;;;;;;;;;;;;"1262";"2014-10-15 17:37:46.876";"NST_correctLoc";"17";"1";"FINISHED";"RIGHT";"success";"536";"0";"2014-10-15 17:37:45.613";"2";;;;;;;;;;;;;;;;;;;;;
"1324083";;;"Windows 7";"Rachel's Experiment (D.T.)";"1.0";"2";"1";"1";"2";"1";"1";"2014-10-15 17:29:43.822";"2014-10-15 17:42:11.484";"1";"1";"1";"153";"152";"module.training_block4.exec-2395.GoNoGo4";;;;;;;;;;;;;;;;;;;;;;;;;;;;;;;;;;;;;;;;;;;;;;;;;;;;;;;;;;;"1261";"2014-10-15 17:37:49.404";"ST_correctStop";"8";"1";"FINISHED";"NONE";"success";"0";"1";"2014-10-15 17:37:48.140";"1";;;;;;;;;;;;;;;;;;;;;
"1324083";;;"Windows 7";"Rachel's Experiment (D.T.)";"1.0";"2";"1";"1";"2";"1";"1";"2014-10-15 17:29:43.822";"2014-10-15 17:42:11.484";"1";"1";"1";"154";"153";"module.training_block4.exec-2395.GoNoGo4";;;;;;;;;;;;;;;;;;;;;;;;;;;;;;;;;;;;;;;;;;;;;;;;;;;;;;;;;;;"1261";"2014-10-15 17:37:51.931";"NST_correctLoc";"12";"0";"FINISHED";"LEFT";"success";"609";"0";"2014-10-15 17:37:50.667";"2";;;;;;;;;;;;;;;;;;;;;
"1324083";;;"Windows 7";"Rachel's Experiment (D.T.)";"1.0";"2";"1";"1";"2";"1";"1";"2014-10-15 17:29:43.822";"2014-10-15 17:42:11.484";"1";"1";"1";"155";"154";"module.training_block4.exec-2395.GoNoGo4";;;;;;;;;;;;;;;;;;;;;;;;;;;;;;;;;;;;;;;;;;;;;;;;;;;;;;;;;;;"1262";"2014-10-15 17:37:54.458";"NST_correctLoc";"10";"0";"FINISHED";"LEFT";"success";"554";"0";"2014-10-15 17:37:53.194";"2";;;;;;;;;;;;;;;;;;;;;
"1324083";;;"Windows 7";"Rachel's Experiment (D.T.)";"1.0";"2";"1";"1";"2";"1";"1";"2014-10-15 17:29:43.822";"2014-10-15 17:42:11.484";"1";"1";"1";"156";"155";"module.training_block4.exec-2395.GoNoGo4";;;;;;;;;;;;;;;;;;;;;;;;;;;;;;;;;;;;;;;;;;;;;;;;;;;;;;;;;;;"1261";"2014-10-15 17:37:57.001";"ST_correctStop";"5";"0";"FINISHED";"NONE";"success";"0";"1";"2014-10-15 17:37:55.737";"1";;;;;;;;;;;;;;;;;;;;;
"1324083";;;"Windows 7";"Rachel's Experiment (D.T.)";"1.0";"2";"1";"1";"2";"1";"1";"2014-10-15 17:29:43.822";"2014-10-15 17:42:11.484";"1";"1";"1";"157";"156";"module.training_block4.exec-2395.GoNoGo4";;;;;;;;;;;;;;;;;;;;;;;;;;;;;;;;;;;;;;;;;;;;;;;;;;;;;;;;;;;"1262";"2014-10-15 17:37:59.528";"ST_correctStop";"20";"1";"FINISHED";"NONE";"success";"0";"1";"2014-10-15 17:37:58.265";"3";;;;;;;;;;;;;;;;;;;;;
"1324083";;;"Windows 7";"Rachel's Experiment (D.T.)";"1.0";"2";"1";"1";"2";"1";"1";"2014-10-15 17:29:43.822";"2014-10-15 17:42:11.484";"1";"1";"1";"158";"157";"module.training_block4.exec-2395.GoNoGo4";;;;;;;;;;;;;;;;;;;;;;;;;;;;;;;;;;;;;;;;;;;;;;;;;;;;;;;;;;;"1261";"2014-10-15 17:38:02.055";"NST_correctLoc";"24";"0";"FINISHED";"LEFT";"success";"637";"0";"2014-10-15 17:38:00.792";"3";;;;;;;;;;;;;;;;;;;;;
"1324083";;;"Windows 7";"Rachel's Experiment (D.T.)";"1.0";"2";"1";"1";"2";"1";"1";"2014-10-15 17:29:43.822";"2014-10-15 17:42:11.484";"1";"1";"1";"159";"158";"module.training_block4.exec-2395.GoNoGo4";;;;;;;;;;;;;;;;;;;;;;;;;;;;;;;;;;;;;;;;;;;;;;;;;;;;;;;;;;;"1261";"2014-10-15 17:38:04.583";"ST_correctStop";"1";"1";"FINISHED";"NONE";"success";"0";"1";"2014-10-15 17:38:03.319";"1";;;;;;;;;;;;;;;;;;;;;
"1324083";;;"Windows 7";"Rachel's Experiment (D.T.)";"1.0";"2";"1";"1";"2";"1";"1";"2014-10-15 17:29:43.822";"2014-10-15 17:42:11.484";"1";"1";"1";"160";"159";"module.devaluation_practice.exec-7389.devalPractice";;;;;;;;;;;;"20745";"2014-10-15 17:38:43.879";"0";"7";"3";"8";"4221";"3430";"10040";"2014-10-15 17:38:23.131";;;;;;;;;;;;;;;;;;;;;;;;;;;;;;;;;;;;;;;;;;;;;;;;;;;;;;;;;;;;;;;;;;;;;;
"1324083";;;"Windows 7";"Rachel's Experiment (D.T.)";"1.0";"2";"1";"1";"2";"1";"1";"2014-10-15 17:29:43.822";"2014-10-15 17:42:11.484";"1";"1";"1";"161";"160";"module.devaluation_practice.exec-7389.devalPractice";;;;;;;;;;;;"6893";"2014-10-15 17:38:50.790";"1";"3";"3";"4";"1102";"942";"1832";"2014-10-15 17:38:43.895";;;;;;;;;;;;;;;;;;;;;;;;;;;;;;;;;;;;;;;;;;;;;;;;;;;;;;;;;;;;;;;;;;;;;;
"1324083";;;"Windows 7";"Rachel's Experiment (D.T.)";"1.0";"2";"1";"1";"2";"1";"1";"2014-10-15 17:29:43.822";"2014-10-15 17:42:11.484";"1";"1";"1";"162";"161";"module.devaluation_practice.exec-7389.devalPractice";;;;;;;;;;;;"7803";"2014-10-15 17:38:58.621";"2";"7";"7";"9";"2189";"1168";"1425";"2014-10-15 17:38:50.805";;;;;;;;;;;;;;;;;;;;;;;;;;;;;;;;;;;;;;;;;;;;;;;;;;;;;;;;;;;;;;;;;;;;;;
"1324083";;;"Windows 7";"Rachel's Experiment (D.T.)";"1.0";"2";"1";"1";"2";"1";"1";"2014-10-15 17:29:43.822";"2014-10-15 17:42:11.484";"1";"1";"1";"163";"162";"module.devaluation_practice.exec-7389.devalPractice";;;;;;;;;;;;"9647";"2014-10-15 17:39:08.309";"3";"5";"3";"7";"2015";"2269";"2324";"2014-10-15 17:38:58.652";;;;;;;;;;;;;;;;;;;;;;;;;;;;;;;;;;;;;;;;;;;;;;;;;;;;;;;;;;;;;;;;;;;;;;
"1324083";;;"Windows 7";"Rachel's Experiment (D.T.)";"1.0";"2";"1";"1";"2";"1";"1";"2014-10-15 17:29:43.822";"2014-10-15 17:42:11.484";"1";"1";"1";"164";"163";"module.devaluation_block1.exec-7755.deval1";"8768";"2014-10-15 17:39:21.023";"1";"3";"1";"4";"2822";"1408";"1508";"2014-10-15 17:39:12.255";"1";;;;;;;;;;;;;;;;;;;;;;;;;;;;;;;;;;;;;;;;;;;;;;;;;;;;;;;;;;;;;;;;;;;;;;;;;;;;;;;;
"1324083";;;"Windows 7";"Rachel's Experiment (D.T.)";"1.0";"2";"1";"1";"2";"1";"1";"2014-10-15 17:29:43.822";"2014-10-15 17:42:11.484";"1";"1";"1";"165";"164";"module.devaluation_block1.exec-7755.deval1";"7092";"2014-10-15 17:39:28.136";"17";"1";"1";"1";"1360";"1360";"1352";"2014-10-15 17:39:21.038";"2";;;;;;;;;;;;;;;;;;;;;;;;;;;;;;;;;;;;;;;;;;;;;;;;;;;;;;;;;;;;;;;;;;;;;;;;;;;;;;;;
"1324083";;;"Windows 7";"Rachel's Experiment (D.T.)";"1.0";"2";"1";"1";"2";"1";"1";"2014-10-15 17:29:43.822";"2014-10-15 17:42:11.484";"1";"1";"1";"166";"165";"module.devaluation_block1.exec-7755.deval1";"6561";"2014-10-15 17:39:34.719";"26";"7";"2";"6";"991";"1026";"1510";"2014-10-15 17:39:28.167";"3";;;;;;;;;;;;;;;;;;;;;;;;;;;;;;;;;;;;;;;;;;;;;;;;;;;;;;;;;;;;;;;;;;;;;;;;;;;;;;;;
"1324083";;;"Windows 7";"Rachel's Experiment (D.T.)";"1.0";"2";"1";"1";"2";"1";"1";"2014-10-15 17:29:43.822";"2014-10-15 17:42:11.484";"1";"1";"1";"167";"166";"module.devaluation_block1.exec-7755.deval1";"7669";"2014-10-15 17:39:42.410";"21";"7";"8";"8";"2160";"1179";"1292";"2014-10-15 17:39:34.751";"3";;;;;;;;;;;;;;;;;;;;;;;;;;;;;;;;;;;;;;;;;;;;;;;;;;;;;;;;;;;;;;;;;;;;;;;;;;;;;;;;
"1324083";;;"Windows 7";"Rachel's Experiment (D.T.)";"1.0";"2";"1";"1";"2";"1";"1";"2014-10-15 17:29:43.822";"2014-10-15 17:42:11.484";"1";"1";"1";"168";"167";"module.devaluation_block1.exec-7755.deval1";"6391";"2014-10-15 17:39:48.837";"4";"8";"7";"9";"1157";"1090";"1112";"2014-10-15 17:39:42.441";"1";;;;;;;;;;;;;;;;;;;;;;;;;;;;;;;;;;;;;;;;;;;;;;;;;;;;;;;;;;;;;;;;;;;;;;;;;;;;;;;;
"1324083";;;"Windows 7";"Rachel's Experiment (D.T.)";"1.0";"2";"1";"1";"2";"1";"1";"2014-10-15 17:29:43.822";"2014-10-15 17:42:11.484";"1";"1";"1";"169";"168";"module.devaluation_block1.exec-7755.deval1";"5571";"2014-10-15 17:39:54.438";"25";"7";"7";"8";"930";"707";"911";"2014-10-15 17:39:48.869";"3";;;;;;;;;;;;;;;;;;;;;;;;;;;;;;;;;;;;;;;;;;;;;;;;;;;;;;;;;;;;;;;;;;;;;;;;;;;;;;;;
"1324083";;;"Windows 7";"Rachel's Experiment (D.T.)";"1.0";"2";"1";"1";"2";"1";"1";"2014-10-15 17:29:43.822";"2014-10-15 17:42:11.484";"1";"1";"1";"170";"169";"module.devaluation_block1.exec-7755.deval1";"5533";"2014-10-15 17:39:59.992";"8";"5";"4";"6";"397";"752";"1360";"2014-10-15 17:39:54.454";"1";;;;;;;;;;;;;;;;;;;;;;;;;;;;;;;;;;;;;;;;;;;;;;;;;;;;;;;;;;;;;;;;;;;;;;;;;;;;;;;;
"1324083";;;"Windows 7";"Rachel's Experiment (D.T.)";"1.0";"2";"1";"1";"2";"1";"1";"2014-10-15 17:29:43.822";"2014-10-15 17:42:11.484";"1";"1";"1";"171";"170";"module.devaluation_block1.exec-7755.deval1";"5277";"2014-10-15 17:40:05.280";"2";"5";"3";"5";"463";"666";"1128";"2014-10-15 17:40:00.007";"1";;;;;;;;;;;;;;;;;;;;;;;;;;;;;;;;;;;;;;;;;;;;;;;;;;;;;;;;;;;;;;;;;;;;;;;;;;;;;;;;
"1324083";;;"Windows 7";"Rachel's Experiment (D.T.)";"1.0";"2";"1";"1";"2";"1";"1";"2014-10-15 17:29:43.822";"2014-10-15 17:42:11.484";"1";"1";"1";"172";"171";"module.devaluation_block1.exec-7755.deval1";"5669";"2014-10-15 17:40:10.974";"9";"4";"6";"6";"831";"582";"1218";"2014-10-15 17:40:05.311";"2";;;;;;;;;;;;;;;;;;;;;;;;;;;;;;;;;;;;;;;;;;;;;;;;;;;;;;;;;;;;;;;;;;;;;;;;;;;;;;;;
"1324083";;;"Windows 7";"Rachel's Experiment (D.T.)";"1.0";"2";"1";"1";"2";"1";"1";"2014-10-15 17:29:43.822";"2014-10-15 17:42:11.484";"1";"1";"1";"173";"172";"module.devaluation_block1.exec-7755.deval1";"7036";"2014-10-15 17:40:18.025";"15";"3";"3";"3";"1281";"868";"1855";"2014-10-15 17:40:10.990";"2";;;;;;;;;;;;;;;;;;;;;;;;;;;;;;;;;;;;;;;;;;;;;;;;;;;;;;;;;;;;;;;;;;;;;;;;;;;;;;;;
"1324083";;;"Windows 7";"Rachel's Experiment (D.T.)";"1.0";"2";"1";"1";"2";"1";"1";"2014-10-15 17:29:43.822";"2014-10-15 17:42:11.484";"1";"1";"1";"174";"173";"module.devaluation_block1.exec-7755.deval1";"7676";"2014-10-15 17:40:25.732";"18";"6";"9";"9";"1382";"1357";"1910";"2014-10-15 17:40:18.056";"3";;;;;;;;;;;;;;;;;;;;;;;;;;;;;;;;;;;;;;;;;;;;;;;;;;;;;;;;;;;;;;;;;;;;;;;;;;;;;;;;
"1324083";;;"Windows 7";"Rachel's Experiment (D.T.)";"1.0";"2";"1";"1";"2";"1";"1";"2014-10-15 17:29:43.822";"2014-10-15 17:42:11.484";"1";"1";"1";"175";"174";"module.devaluation_block1.exec-7755.deval1";"6845";"2014-10-15 17:40:32.596";"19";"7";"9";"9";"1139";"967";"1702";"2014-10-15 17:40:25.747";"3";;;;;;;;;;;;;;;;;;;;;;;;;;;;;;;;;;;;;;;;;;;;;;;;;;;;;;;;;;;;;;;;;;;;;;;;;;;;;;;;
"1324083";;;"Windows 7";"Rachel's Experiment (D.T.)";"1.0";"2";"1";"1";"2";"1";"1";"2014-10-15 17:29:43.822";"2014-10-15 17:42:11.484";"1";"1";"1";"176";"175";"module.devaluation_block1.exec-7755.deval1";"5397";"2014-10-15 17:40:38.009";"11";"6";"7";"6";"515";"638";"1206";"2014-10-15 17:40:32.611";"2";;;;;;;;;;;;;;;;;;;;;;;;;;;;;;;;;;;;;;;;;;;;;;;;;;;;;;;;;;;;;;;;;;;;;;;;;;;;;;;;
"1324083";;;"Windows 7";"Rachel's Experiment (D.T.)";"1.0";"2";"1";"1";"2";"1";"1";"2014-10-15 17:29:43.822";"2014-10-15 17:42:11.484";"1";"1";"1";"177";"176";"module.devaluation_block1.exec-7755.deval1";"5453";"2014-10-15 17:40:43.484";"16";"3";"3";"3";"766";"966";"687";"2014-10-15 17:40:38.024";"2";;;;;;;;;;;;;;;;;;;;;;;;;;;;;;;;;;;;;;;;;;;;;;;;;;;;;;;;;;;;;;;;;;;;;;;;;;;;;;;;
"1324083";;;"Windows 7";"Rachel's Experiment (D.T.)";"1.0";"2";"1";"1";"2";"1";"1";"2014-10-15 17:29:43.822";"2014-10-15 17:42:11.484";"1";"1";"1";"178";"177";"module.devaluation_block1.exec-7755.deval1";"6277";"2014-10-15 17:40:49.771";"12";"6";"7";"5";"602";"1536";"1111";"2014-10-15 17:40:43.500";"2";;;;;;;;;;;;;;;;;;;;;;;;;;;;;;;;;;;;;;;;;;;;;;;;;;;;;;;;;;;;;;;;;;;;;;;;;;;;;;;;
"1324083";;;"Windows 7";"Rachel's Experiment (D.T.)";"1.0";"2";"1";"1";"2";"1";"1";"2014-10-15 17:29:43.822";"2014-10-15 17:42:11.484";"1";"1";"1";"179";"178";"module.devaluation_block1.exec-7755.deval1";"6237";"2014-10-15 17:40:56.027";"13";"5";"1";"1";"836";"1272";"1110";"2014-10-15 17:40:49.787";"2";;;;;;;;;;;;;;;;;;;;;;;;;;;;;;;;;;;;;;;;;;;;;;;;;;;;;;;;;;;;;;;;;;;;;;;;;;;;;;;;
"1324083";;;"Windows 7";"Rachel's Experiment (D.T.)";"1.0";"2";"1";"1";"2";"1";"1";"2014-10-15 17:29:43.822";"2014-10-15 17:42:11.484";"1";"1";"1";"180";"179";"module.devaluation_block1.exec-7755.deval1";"5413";"2014-10-15 17:41:01.456";"24";"5";"1";"4";"684";"994";"699";"2014-10-15 17:40:56.042";"3";;;;;;;;;;;;;;;;;;;;;;;;;;;;;;;;;;;;;;;;;;;;;;;;;;;;;;;;;;;;;;;;;;;;;;;;;;;;;;;;
"1324083";;;"Windows 7";"Rachel's Experiment (D.T.)";"1.0";"2";"1";"1";"2";"1";"1";"2014-10-15 17:29:43.822";"2014-10-15 17:42:11.484";"1";"1";"1";"181";"180";"module.devaluation_block1.exec-7755.deval1";"5246";"2014-10-15 17:41:06.728";"0";"4";"5";"5";"687";"595";"926";"2014-10-15 17:41:01.487";"1";;;;;;;;;;;;;;;;;;;;;;;;;;;;;;;;;;;;;;;;;;;;;;;;;;;;;;;;;;;;;;;;;;;;;;;;;;;;;;;;
"1324083";;;"Windows 7";"Rachel's Experiment (D.T.)";"1.0";"2";"1";"1";"2";"1";"1";"2014-10-15 17:29:43.822";"2014-10-15 17:42:11.484";"1";"1";"1";"182";"181";"module.devaluation_block1.exec-7755.deval1";"8517";"2014-10-15 17:41:15.262";"22";"8";"8";"9";"1510";"1347";"2618";"2014-10-15 17:41:06.744";"3";;;;;;;;;;;;;;;;;;;;;;;;;;;;;;;;;;;;;;;;;;;;;;;;;;;;;;;;;;;;;;;;;;;;;;;;;;;;;;;;
"1324083";;;"Windows 7";"Rachel's Experiment (D.T.)";"1.0";"2";"1";"1";"2";"1";"1";"2014-10-15 17:29:43.822";"2014-10-15 17:42:11.484";"1";"1";"1";"183";"182";"module.devaluation_block1.exec-7755.deval1";"9084";"2014-10-15 17:41:24.372";"20";"8";"8";"7";"1257";"2292";"2510";"2014-10-15 17:41:15.277";"3";;;;;;;;;;;;;;;;;;;;;;;;;;;;;;;;;;;;;;;;;;;;;;;;;;;;;;;;;;;;;;;;;;;;;;;;;;;;;;;;
"1324083";;;"Windows 7";"Rachel's Experiment (D.T.)";"1.0";"2";"1";"1";"2";"1";"1";"2014-10-15 17:29:43.822";"2014-10-15 17:42:11.484";"1";"1";"1";"184";"183";"module.devaluation_block1.exec-7755.deval1";"6868";"2014-10-15 17:41:31.267";"5";"9";"9";"9";"1955";"928";"962";"2014-10-15 17:41:24.403";"1";;;;;;;;;;;;;;;;;;;;;;;;;;;;;;;;;;;;;;;;;;;;;;;;;;;;;;;;;;;;;;;;;;;;;;;;;;;;;;;;
"1324083";;;"Windows 7";"Rachel's Experiment (D.T.)";"1.0";"2";"1";"1";"2";"1";"1";"2014-10-15 17:29:43.822";"2014-10-15 17:42:11.484";"1";"1";"1";"185";"184";"module.devaluation_block1.exec-7755.deval1";"5613";"2014-10-15 17:41:36.899";"10";"7";"6";"6";"667";"1193";"737";"2014-10-15 17:41:31.283";"2";;;;;;;;;;;;;;;;;;;;;;;;;;;;;;;;;;;;;;;;;;;;;;;;;;;;;;;;;;;;;;;;;;;;;;;;;;;;;;;;
"1324083";;;"Windows 7";"Rachel's Experiment (D.T.)";"1.0";"2";"1";"1";"2";"1";"1";"2014-10-15 17:29:43.822";"2014-10-15 17:42:11.484";"1";"1";"1";"186";"185";"module.devaluation_block1.exec-7755.deval1";"5357";"2014-10-15 17:41:42.281";"14";"4";"3";"4";"652";"719";"969";"2014-10-15 17:41:36.914";"2";;;;;;;;;;;;;;;;;;;;;;;;;;;;;;;;;;;;;;;;;;;;;;;;;;;;;;;;;;;;;;;;;;;;;;;;;;;;;;;;
"1324083";;;"Windows 7";"Rachel's Experiment (D.T.)";"1.0";"2";"1";"1";"2";"1";"1";"2014-10-15 17:29:43.822";"2014-10-15 17:42:11.484";"1";"1";"1";"187";"186";"module.devaluation_block1.exec-7755.deval1";"6589";"2014-10-15 17:41:48.880";"7";"5";"6";"6";"678";"1352";"1540";"2014-10-15 17:41:42.296";"1";;;;;;;;;;;;;;;;;;;;;;;;;;;;;;;;;;;;;;;;;;;;;;;;;;;;;;;;;;;;;;;;;;;;;;;;;;;;;;;;
"1324083";;;"Windows 7";"Rachel's Experiment (D.T.)";"1.0";"2";"1";"1";"2";"1";"1";"2014-10-15 17:29:43.822";"2014-10-15 17:42:11.484";"1";"1";"1";"188";"187";"module.devaluation_block1.exec-7755.deval1";"6859";"2014-10-15 17:41:55.759";"23";"6";"2";"3";"1575";"947";"1301";"2014-10-15 17:41:48.911";"3";;;;;;;;;;;;;;;;;;;;;;;;;;;;;;;;;;;;;;;;;;;;;;;;;;;;;;;;;;;;;;;;;;;;;;;;;;;;;;;;
"1324083";;;"Windows 7";"Rachel's Experiment (D.T.)";"1.0";"2";"1";"1";"2";"1";"1";"2014-10-15 17:29:43.822";"2014-10-15 17:42:11.484";"1";"1";"1";"189";"188";"module.devaluation_block1.exec-7755.deval1";"5632";"2014-10-15 17:42:01.422";"6";"4";"6";"6";"951";"753";"901";"2014-10-15 17:41:55.791";"1";;;;;;;;;;;;;;;;;;;;;;;;;;;;;;;;;;;;;;;;;;;;;;;;;;;;;;;;;;;;;;;;;;;;;;;;;;;;;;;;
"1324083";;;"Windows 7";"Rachel's Experiment (D.T.)";"1.0";"2";"1";"1";"2";"1";"1";"2014-10-15 17:29:43.822";"2014-10-15 17:42:11.484";"1";"1";"1";"190";"189";"module.devaluation_block1.exec-7755.deval1";"7422";"2014-10-15 17:42:08.863";"3";"5";"9";"9";"328";"1953";"2118";"2014-10-15 17:42:01.438";"1";;;;;;;;;;;;;;;;;;;;;;;;;;;;;;;;;;;;;;;;;;;;;;;;;;;;;;;;;;;;;;;;;;;;;;;;;;;;;;;;
