"user.name";"user.yearOfBirth";"user.sex";"user.osName";"module.name";"module.version";"module.online.subject.code";"module.online.study.id";"module.online.module.nr";"module.online.group.nr";"session.id";"session.index";"session.startTime";"session.endTime";"session.completed";"session.node-5383.conditionType";"session.node-9549.DevalQorder";"trial.id";"trial.index";"trial.name";"trial.deval1.durationTime";"trial.deval1.endTime";"trial.deval1.icon";"trial.deval1.Resp_Attractive";"trial.deval1.Resp_Eat";"trial.deval1.Resp_Taste";"trial.deval1.RT_Attractive";"trial.deval1.RT_Eat";"trial.deval1.RT_Taste";"trial.deval1.startTime";"trial.deval1.stimulus type";"trial.devalPractice.durationTime";"trial.devalPractice.endTime";"trial.devalPractice.icon";"trial.devalPractice.Resp_Attractive";"trial.devalPractice.Resp_Eat";"trial.devalPractice.Resp_Taste";"trial.devalPractice.RT_Attractive";"trial.devalPractice.RT_Eat";"trial.devalPractice.RT_Taste";"trial.devalPractice.startTime";"trial.devalPractice.stimulus type";"trial.GoNoGo1.durationTime";"trial.GoNoGo1.endTime";"trial.GoNoGo1.Error Type";"trial.GoNoGo1.icon";"trial.GoNoGo1.location";"trial.GoNoGo1.outcome";"trial.GoNoGo1.response";"trial.GoNoGo1.result";"trial.GoNoGo1.RT";"trial.GoNoGo1.signal";"trial.GoNoGo1.startTime";"trial.GoNoGo1.stimulus type";"trial.GoNoGo2.durationTime";"trial.GoNoGo2.endTime";"trial.GoNoGo2.Error Type";"trial.GoNoGo2.icon";"trial.GoNoGo2.location";"trial.GoNoGo2.outcome";"trial.GoNoGo2.response";"trial.GoNoGo2.result";"trial.GoNoGo2.RT";"trial.GoNoGo2.signal";"trial.GoNoGo2.startTime";"trial.GoNoGo2.stimulus type";"trial.GoNoGo3.durationTime";"trial.GoNoGo3.endTime";"trial.GoNoGo3.Error Type";"trial.GoNoGo3.icon";"trial.GoNoGo3.location";"trial.GoNoGo3.outcome";"trial.GoNoGo3.response";"trial.GoNoGo3.result";"trial.GoNoGo3.RT";"trial.GoNoGo3.signal";"trial.GoNoGo3.startTime";"trial.GoNoGo3.stimulus type";"trial.GoNoGo4.durationTime";"trial.GoNoGo4.endTime";"trial.GoNoGo4.Error Type";"trial.GoNoGo4.icon";"trial.GoNoGo4.location";"trial.GoNoGo4.outcome";"trial.GoNoGo4.response";"trial.GoNoGo4.result";"trial.GoNoGo4.RT";"trial.GoNoGo4.signal";"trial.GoNoGo4.startTime";"trial.GoNoGo4.stimulus type";"trial.GoNoGo_Practice.durationTime";"trial.GoNoGo_Practice.endTime";"trial.GoNoGo_Practice.icon";"trial.GoNoGo_Practice.location";"trial.GoNoGo_Practice.outcome";"trial.GoNoGo_Practice.response";"trial.GoNoGo_Practice.result";"trial.GoNoGo_Practice.RT";"trial.GoNoGo_Practice.signal";"trial.GoNoGo_Practice.startTime";"trial.GoNoGo_Practice.stimulus type";"trial.GoNoGo_Tutorial.durationTime";"trial.GoNoGo_Tutorial.endTime";"trial.GoNoGo_Tutorial.icon";"trial.GoNoGo_Tutorial.location";"trial.GoNoGo_Tutorial.outcome";"trial.GoNoGo_Tutorial.response";"trial.GoNoGo_Tutorial.result";"trial.GoNoGo_Tutorial.RT";"trial.GoNoGo_Tutorial.signal";"trial.GoNoGo_Tutorial.startTime"
"pol181";"1993";;"Windows 8";"Rachel's Experiment (D.T.)";"1.0";"2";"1";"1";"2";"1";"1";"2014-07-22 10:39:29.366";"2014-07-22 10:54:18.517";"1";"0";"1";"1";"0";"module.GoNoGotutorial.exec-2766.GoNoGo_Tutorial";;;;;;;;;;;;;;;;;;;;;;;;;;;;;;;;;;;;;;;;;;;;;;;;;;;;;;;;;;;;;;;;;;;;;;;;;;;;;;;;;;"4002";"2014-07-22 10:40:51.193";"leftResponse";"0";"FINISHED";"LEFT";"success";"1086";"0";"2014-07-22 10:40:47.191"
"pol181";"1993";;"Windows 8";"Rachel's Experiment (D.T.)";"1.0";"2";"1";"1";"2";"1";"1";"2014-07-22 10:39:29.366";"2014-07-22 10:54:18.517";"1";"0";"1";"2";"1";"module.GoNoGotutorial.exec-2766.GoNoGo_Tutorial";;;;;;;;;;;;;;;;;;;;;;;;;;;;;;;;;;;;;;;;;;;;;;;;;;;;;;;;;;;;;;;;;;;;;;;;;;;;;;;;;;"3999";"2014-07-22 10:40:56.494";"rightResponse";"1";"FINISHED";"RIGHT";"success";"590";"0";"2014-07-22 10:40:52.494"
"pol181";"1993";;"Windows 8";"Rachel's Experiment (D.T.)";"1.0";"2";"1";"1";"2";"1";"1";"2014-07-22 10:39:29.366";"2014-07-22 10:54:18.517";"1";"0";"1";"3";"2";"module.GoNoGotutorial.exec-2766.GoNoGo_Tutorial";;;;;;;;;;;;;;;;;;;;;;;;;;;;;;;;;;;;;;;;;;;;;;;;;;;;;;;;;;;;;;;;;;;;;;;;;;;;;;;;;;"3999";"2014-07-22 10:41:01.804";"quickResponse";"0";"FINISHED";"LEFT";"success";"783";"0";"2014-07-22 10:40:57.804"
"pol181";"1993";;"Windows 8";"Rachel's Experiment (D.T.)";"1.0";"2";"1";"1";"2";"1";"1";"2014-07-22 10:39:29.366";"2014-07-22 10:54:18.517";"1";"0";"1";"4";"3";"module.GoNoGopractice.exec-3759.GoNoGo_Practice";;;;;;;;;;;;;;;;;;;;;;;;;;;;;;;;;;;;;;;;;;;;;;;;;;;;;;;;;;;;;;;;;;;;;;;"1963";"2014-07-22 10:41:09.901";"18";"0";"FINISHED";"LEFT";"success";"295";"0";"2014-07-22 10:41:07.936";"3";;;;;;;;;;
"pol181";"1993";;"Windows 8";"Rachel's Experiment (D.T.)";"1.0";"2";"1";"1";"2";"1";"1";"2014-07-22 10:39:29.366";"2014-07-22 10:54:18.517";"1";"0";"1";"5";"4";"module.GoNoGopractice.exec-3759.GoNoGo_Practice";;;;;;;;;;;;;;;;;;;;;;;;;;;;;;;;;;;;;;;;;;;;;;;;;;;;;;;;;;;;;;;;;;;;;;;"1961";"2014-07-22 10:41:13.279";"21";"1";"FINISHED";"RIGHT";"success";"267";"0";"2014-07-22 10:41:11.317";"3";;;;;;;;;;
"pol181";"1993";;"Windows 8";"Rachel's Experiment (D.T.)";"1.0";"2";"1";"1";"2";"1";"1";"2014-07-22 10:39:29.366";"2014-07-22 10:54:18.517";"1";"0";"1";"6";"5";"module.GoNoGopractice.exec-3759.GoNoGo_Practice";;;;;;;;;;;;;;;;;;;;;;;;;;;;;;;;;;;;;;;;;;;;;;;;;;;;;;;;;;;;;;;;;;;;;;;"1953";"2014-07-22 10:41:16.535";"14";"1";"FINISHED";"RIGHT";"success";"286";"0";"2014-07-22 10:41:14.581";"2";;;;;;;;;;
"pol181";"1993";;"Windows 8";"Rachel's Experiment (D.T.)";"1.0";"2";"1";"1";"2";"1";"1";"2014-07-22 10:39:29.366";"2014-07-22 10:54:18.517";"1";"0";"1";"7";"6";"module.GoNoGopractice.exec-3759.GoNoGo_Practice";;;;;;;;;;;;;;;;;;;;;;;;;;;;;;;;;;;;;;;;;;;;;;;;;;;;;;;;;;;;;;;;;;;;;;;"1952";"2014-07-22 10:41:19.791";"26";"0";"FINISHED";"LEFT";"success";"274";"0";"2014-07-22 10:41:17.838";"3";;;;;;;;;;
"pol181";"1993";;"Windows 8";"Rachel's Experiment (D.T.)";"1.0";"2";"1";"1";"2";"1";"1";"2014-07-22 10:39:29.366";"2014-07-22 10:54:18.517";"1";"0";"1";"8";"7";"module.GoNoGopractice.exec-3759.GoNoGo_Practice";;;;;;;;;;;;;;;;;;;;;;;;;;;;;;;;;;;;;;;;;;;;;;;;;;;;;;;;;;;;;;;;;;;;;;;"1952";"2014-07-22 10:41:23.055";"2";"0";"FINISHED";"LEFT";"success";"317";"0";"2014-07-22 10:41:21.101";"1";;;;;;;;;;
"pol181";"1993";;"Windows 8";"Rachel's Experiment (D.T.)";"1.0";"2";"1";"1";"2";"1";"1";"2014-07-22 10:39:29.366";"2014-07-22 10:54:18.517";"1";"0";"1";"9";"8";"module.GoNoGopractice.exec-3759.GoNoGo_Practice";;;;;;;;;;;;;;;;;;;;;;;;;;;;;;;;;;;;;;;;;;;;;;;;;;;;;;;;;;;;;;;;;;;;;;;"1952";"2014-07-22 10:41:26.310";"30";"0";"FINISHED";"LEFT";"success";"318";"0";"2014-07-22 10:41:24.357";"3";;;;;;;;;;
"pol181";"1993";;"Windows 8";"Rachel's Experiment (D.T.)";"1.0";"2";"1";"1";"2";"1";"1";"2014-07-22 10:39:29.366";"2014-07-22 10:54:18.517";"1";"0";"1";"10";"9";"module.GoNoGopractice.exec-3759.GoNoGo_Practice";;;;;;;;;;;;;;;;;;;;;;;;;;;;;;;;;;;;;;;;;;;;;;;;;;;;;;;;;;;;;;;;;;;;;;;"1953";"2014-07-22 10:41:29.568";"6";"1";"FINISHED";"RIGHT";"success";"305";"0";"2014-07-22 10:41:27.615";"1";;;;;;;;;;
"pol181";"1993";;"Windows 8";"Rachel's Experiment (D.T.)";"1.0";"2";"1";"1";"2";"1";"1";"2014-07-22 10:39:29.366";"2014-07-22 10:54:18.517";"1";"0";"1";"11";"10";"module.GoNoGopractice.exec-3759.GoNoGo_Practice";;;;;;;;;;;;;;;;;;;;;;;;;;;;;;;;;;;;;;;;;;;;;;;;;;;;;;;;;;;;;;;;;;;;;;;"1953";"2014-07-22 10:41:32.832";"34";"0";"FINISHED";"LEFT";"success";"293";"0";"2014-07-22 10:41:30.879";"3";;;;;;;;;;
"pol181";"1993";;"Windows 8";"Rachel's Experiment (D.T.)";"1.0";"2";"1";"1";"2";"1";"1";"2014-07-22 10:39:29.366";"2014-07-22 10:54:18.517";"1";"0";"1";"12";"11";"module.GoNoGopractice.exec-3759.GoNoGo_Practice";;;;;;;;;;;;;;;;;;;;;;;;;;;;;;;;;;;;;;;;;;;;;;;;;;;;;;;;;;;;;;;;;;;;;;;"1953";"2014-07-22 10:41:36.087";"23";"1";"FINISHED";"RIGHT";"success";"316";"0";"2014-07-22 10:41:34.134";"3";;;;;;;;;;
"pol181";"1993";;"Windows 8";"Rachel's Experiment (D.T.)";"1.0";"2";"1";"1";"2";"1";"1";"2014-07-22 10:39:29.366";"2014-07-22 10:54:18.517";"1";"0";"1";"13";"12";"module.GoNoGopractice.exec-3759.GoNoGo_Practice";;;;;;;;;;;;;;;;;;;;;;;;;;;;;;;;;;;;;;;;;;;;;;;;;;;;;;;;;;;;;;;;;;;;;;;"1952";"2014-07-22 10:41:39.346";"13";"0";"FINISHED";"LEFT";"success";"296";"0";"2014-07-22 10:41:37.393";"2";;;;;;;;;;
"pol181";"1993";;"Windows 8";"Rachel's Experiment (D.T.)";"1.0";"2";"1";"1";"2";"1";"1";"2014-07-22 10:39:29.366";"2014-07-22 10:54:18.517";"1";"0";"1";"14";"13";"module.GoNoGopractice.exec-3759.GoNoGo_Practice";;;;;;;;;;;;;;;;;;;;;;;;;;;;;;;;;;;;;;;;;;;;;;;;;;;;;;;;;;;;;;;;;;;;;;;"1954";"2014-07-22 10:41:42.600";"3";"1";"FINISHED";"RIGHT";"success";"335";"0";"2014-07-22 10:41:40.645";"1";;;;;;;;;;
"pol181";"1993";;"Windows 8";"Rachel's Experiment (D.T.)";"1.0";"2";"1";"1";"2";"1";"1";"2014-07-22 10:39:29.366";"2014-07-22 10:54:18.517";"1";"0";"1";"15";"14";"module.GoNoGopractice.exec-3759.GoNoGo_Practice";;;;;;;;;;;;;;;;;;;;;;;;;;;;;;;;;;;;;;;;;;;;;;;;;;;;;;;;;;;;;;;;;;;;;;;"1953";"2014-07-22 10:41:45.857";"27";"1";"FINISHED";"RIGHT";"success";"341";"0";"2014-07-22 10:41:43.903";"3";;;;;;;;;;
"pol181";"1993";;"Windows 8";"Rachel's Experiment (D.T.)";"1.0";"2";"1";"1";"2";"1";"1";"2014-07-22 10:39:29.366";"2014-07-22 10:54:18.517";"1";"0";"1";"16";"15";"module.training_block1.exec-9297.GoNoGo1";;;;;;;;;;;;;;;;;;;;;;;"1251";"2014-07-22 10:41:56.698";"NST_correctLoc";"35";"1";"FINISHED";"RIGHT";"success";"421";"0";"2014-07-22 10:41:55.447";"3";;;;;;;;;;;;;;;;;;;;;;;;;;;;;;;;;;;;;;;;;;;;;;;;;;;;;;;;;
"pol181";"1993";;"Windows 8";"Rachel's Experiment (D.T.)";"1.0";"2";"1";"1";"2";"1";"1";"2014-07-22 10:39:29.366";"2014-07-22 10:54:18.517";"1";"0";"1";"17";"16";"module.training_block1.exec-9297.GoNoGo1";;;;;;;;;;;;;;;;;;;;;;;"1249";"2014-07-22 10:41:59.246";"NST_correctLoc";"6";"1";"FINISHED";"RIGHT";"success";"364";"0";"2014-07-22 10:41:57.996";"1";;;;;;;;;;;;;;;;;;;;;;;;;;;;;;;;;;;;;;;;;;;;;;;;;;;;;;;;;
"pol181";"1993";;"Windows 8";"Rachel's Experiment (D.T.)";"1.0";"2";"1";"1";"2";"1";"1";"2014-07-22 10:39:29.366";"2014-07-22 10:54:18.517";"1";"0";"1";"18";"17";"module.training_block1.exec-9297.GoNoGo1";;;;;;;;;;;;;;;;;;;;;;;"1249";"2014-07-22 10:42:01.801";"NST_correctLoc";"9";"1";"FINISHED";"RIGHT";"success";"356";"0";"2014-07-22 10:42:00.551";"2";;;;;;;;;;;;;;;;;;;;;;;;;;;;;;;;;;;;;;;;;;;;;;;;;;;;;;;;;
"pol181";"1993";;"Windows 8";"Rachel's Experiment (D.T.)";"1.0";"2";"1";"1";"2";"1";"1";"2014-07-22 10:39:29.366";"2014-07-22 10:54:18.517";"1";"0";"1";"19";"18";"module.training_block1.exec-9297.GoNoGo1";;;;;;;;;;;;;;;;;;;;;;;"1249";"2014-07-22 10:42:04.352";"NST_correctLoc";"1";"1";"FINISHED";"RIGHT";"success";"374";"0";"2014-07-22 10:42:03.102";"1";;;;;;;;;;;;;;;;;;;;;;;;;;;;;;;;;;;;;;;;;;;;;;;;;;;;;;;;;
"pol181";"1993";;"Windows 8";"Rachel's Experiment (D.T.)";"1.0";"2";"1";"1";"2";"1";"1";"2014-07-22 10:39:29.366";"2014-07-22 10:54:18.517";"1";"0";"1";"20";"19";"module.training_block1.exec-9297.GoNoGo1";;;;;;;;;;;;;;;;;;;;;;;"1250";"2014-07-22 10:42:06.896";"NST_correctLoc";"3";"0";"FINISHED";"LEFT";"success";"346";"0";"2014-07-22 10:42:05.645";"1";;;;;;;;;;;;;;;;;;;;;;;;;;;;;;;;;;;;;;;;;;;;;;;;;;;;;;;;;
"pol181";"1993";;"Windows 8";"Rachel's Experiment (D.T.)";"1.0";"2";"1";"1";"2";"1";"1";"2014-07-22 10:39:29.366";"2014-07-22 10:54:18.517";"1";"0";"1";"21";"20";"module.training_block1.exec-9297.GoNoGo1";;;;;;;;;;;;;;;;;;;;;;;"1249";"2014-07-22 10:42:09.441";"NST_correctLoc";"27";"0";"FINISHED";"LEFT";"success";"474";"0";"2014-07-22 10:42:08.191";"3";;;;;;;;;;;;;;;;;;;;;;;;;;;;;;;;;;;;;;;;;;;;;;;;;;;;;;;;;
"pol181";"1993";;"Windows 8";"Rachel's Experiment (D.T.)";"1.0";"2";"1";"1";"2";"1";"1";"2014-07-22 10:39:29.366";"2014-07-22 10:54:18.517";"1";"0";"1";"22";"21";"module.training_block1.exec-9297.GoNoGo1";;;;;;;;;;;;;;;;;;;;;;;"1249";"2014-07-22 10:42:11.989";"NST_correctLoc";"13";"1";"FINISHED";"RIGHT";"success";"329";"0";"2014-07-22 10:42:10.738";"2";;;;;;;;;;;;;;;;;;;;;;;;;;;;;;;;;;;;;;;;;;;;;;;;;;;;;;;;;
"pol181";"1993";;"Windows 8";"Rachel's Experiment (D.T.)";"1.0";"2";"1";"1";"2";"1";"1";"2014-07-22 10:39:29.366";"2014-07-22 10:54:18.517";"1";"0";"1";"23";"22";"module.training_block1.exec-9297.GoNoGo1";;;;;;;;;;;;;;;;;;;;;;;"1250";"2014-07-22 10:42:14.540";"NST_correctLoc";"21";"1";"FINISHED";"RIGHT";"success";"346";"0";"2014-07-22 10:42:13.289";"3";;;;;;;;;;;;;;;;;;;;;;;;;;;;;;;;;;;;;;;;;;;;;;;;;;;;;;;;;
"pol181";"1993";;"Windows 8";"Rachel's Experiment (D.T.)";"1.0";"2";"1";"1";"2";"1";"1";"2014-07-22 10:39:29.366";"2014-07-22 10:54:18.517";"1";"0";"1";"24";"23";"module.training_block1.exec-9297.GoNoGo1";;;;;;;;;;;;;;;;;;;;;;;"1249";"2014-07-22 10:42:17.099";"NST_correctLoc";"33";"0";"FINISHED";"LEFT";"success";"285";"0";"2014-07-22 10:42:15.849";"3";;;;;;;;;;;;;;;;;;;;;;;;;;;;;;;;;;;;;;;;;;;;;;;;;;;;;;;;;
"pol181";"1993";;"Windows 8";"Rachel's Experiment (D.T.)";"1.0";"2";"1";"1";"2";"1";"1";"2014-07-22 10:39:29.366";"2014-07-22 10:54:18.517";"1";"0";"1";"25";"24";"module.training_block1.exec-9297.GoNoGo1";;;;;;;;;;;;;;;;;;;;;;;"1250";"2014-07-22 10:42:19.644";"NST_correctLoc";"2";"1";"FINISHED";"RIGHT";"success";"349";"0";"2014-07-22 10:42:18.394";"1";;;;;;;;;;;;;;;;;;;;;;;;;;;;;;;;;;;;;;;;;;;;;;;;;;;;;;;;;
"pol181";"1993";;"Windows 8";"Rachel's Experiment (D.T.)";"1.0";"2";"1";"1";"2";"1";"1";"2014-07-22 10:39:29.366";"2014-07-22 10:54:18.517";"1";"0";"1";"26";"25";"module.training_block1.exec-9297.GoNoGo1";;;;;;;;;;;;;;;;;;;;;;;"1250";"2014-07-22 10:42:22.199";"NST_correctLoc";"24";"0";"FINISHED";"LEFT";"success";"376";"0";"2014-07-22 10:42:20.949";"3";;;;;;;;;;;;;;;;;;;;;;;;;;;;;;;;;;;;;;;;;;;;;;;;;;;;;;;;;
"pol181";"1993";;"Windows 8";"Rachel's Experiment (D.T.)";"1.0";"2";"1";"1";"2";"1";"1";"2014-07-22 10:39:29.366";"2014-07-22 10:54:18.517";"1";"0";"1";"27";"26";"module.training_block1.exec-9297.GoNoGo1";;;;;;;;;;;;;;;;;;;;;;;"1249";"2014-07-22 10:42:24.751";"NST_correctLoc";"5";"1";"FINISHED";"RIGHT";"success";"305";"0";"2014-07-22 10:42:23.501";"1";;;;;;;;;;;;;;;;;;;;;;;;;;;;;;;;;;;;;;;;;;;;;;;;;;;;;;;;;
"pol181";"1993";;"Windows 8";"Rachel's Experiment (D.T.)";"1.0";"2";"1";"1";"2";"1";"1";"2014-07-22 10:39:29.366";"2014-07-22 10:54:18.517";"1";"0";"1";"28";"27";"module.training_block1.exec-9297.GoNoGo1";;;;;;;;;;;;;;;;;;;;;;;"1250";"2014-07-22 10:42:27.311";"NST_correctLoc";"17";"0";"FINISHED";"LEFT";"success";"361";"0";"2014-07-22 10:42:26.060";"2";;;;;;;;;;;;;;;;;;;;;;;;;;;;;;;;;;;;;;;;;;;;;;;;;;;;;;;;;
"pol181";"1993";;"Windows 8";"Rachel's Experiment (D.T.)";"1.0";"2";"1";"1";"2";"1";"1";"2014-07-22 10:39:29.366";"2014-07-22 10:54:18.517";"1";"0";"1";"29";"28";"module.training_block1.exec-9297.GoNoGo1";;;;;;;;;;;;;;;;;;;;;;;"1249";"2014-07-22 10:42:29.857";"NST_correctLoc";"11";"1";"FINISHED";"RIGHT";"success";"324";"0";"2014-07-22 10:42:28.607";"2";;;;;;;;;;;;;;;;;;;;;;;;;;;;;;;;;;;;;;;;;;;;;;;;;;;;;;;;;
"pol181";"1993";;"Windows 8";"Rachel's Experiment (D.T.)";"1.0";"2";"1";"1";"2";"1";"1";"2014-07-22 10:39:29.366";"2014-07-22 10:54:18.517";"1";"0";"1";"30";"29";"module.training_block1.exec-9297.GoNoGo1";;;;;;;;;;;;;;;;;;;;;;;"1249";"2014-07-22 10:42:32.403";"NST_correctLoc";"29";"1";"FINISHED";"RIGHT";"success";"341";"0";"2014-07-22 10:42:31.153";"3";;;;;;;;;;;;;;;;;;;;;;;;;;;;;;;;;;;;;;;;;;;;;;;;;;;;;;;;;
"pol181";"1993";;"Windows 8";"Rachel's Experiment (D.T.)";"1.0";"2";"1";"1";"2";"1";"1";"2014-07-22 10:39:29.366";"2014-07-22 10:54:18.517";"1";"0";"1";"31";"30";"module.training_block1.exec-9297.GoNoGo1";;;;;;;;;;;;;;;;;;;;;;;"1249";"2014-07-22 10:42:34.945";"NST_correctLoc";"23";"1";"FINISHED";"RIGHT";"success";"330";"0";"2014-07-22 10:42:33.695";"3";;;;;;;;;;;;;;;;;;;;;;;;;;;;;;;;;;;;;;;;;;;;;;;;;;;;;;;;;
"pol181";"1993";;"Windows 8";"Rachel's Experiment (D.T.)";"1.0";"2";"1";"1";"2";"1";"1";"2014-07-22 10:39:29.366";"2014-07-22 10:54:18.517";"1";"0";"1";"32";"31";"module.training_block1.exec-9297.GoNoGo1";;;;;;;;;;;;;;;;;;;;;;;"1249";"2014-07-22 10:42:37.498";"NST_correctLoc";"18";"1";"FINISHED";"RIGHT";"success";"330";"0";"2014-07-22 10:42:36.248";"3";;;;;;;;;;;;;;;;;;;;;;;;;;;;;;;;;;;;;;;;;;;;;;;;;;;;;;;;;
"pol181";"1993";;"Windows 8";"Rachel's Experiment (D.T.)";"1.0";"2";"1";"1";"2";"1";"1";"2014-07-22 10:39:29.366";"2014-07-22 10:54:18.517";"1";"0";"1";"33";"32";"module.training_block1.exec-9297.GoNoGo1";;;;;;;;;;;;;;;;;;;;;;;"1249";"2014-07-22 10:42:40.049";"NST_correctLoc";"8";"1";"FINISHED";"RIGHT";"success";"298";"0";"2014-07-22 10:42:38.799";"1";;;;;;;;;;;;;;;;;;;;;;;;;;;;;;;;;;;;;;;;;;;;;;;;;;;;;;;;;
"pol181";"1993";;"Windows 8";"Rachel's Experiment (D.T.)";"1.0";"2";"1";"1";"2";"1";"1";"2014-07-22 10:39:29.366";"2014-07-22 10:54:18.517";"1";"0";"1";"34";"33";"module.training_block1.exec-9297.GoNoGo1";;;;;;;;;;;;;;;;;;;;;;;"1249";"2014-07-22 10:42:42.600";"NST_correctLoc";"10";"1";"FINISHED";"RIGHT";"success";"306";"0";"2014-07-22 10:42:41.350";"2";;;;;;;;;;;;;;;;;;;;;;;;;;;;;;;;;;;;;;;;;;;;;;;;;;;;;;;;;
"pol181";"1993";;"Windows 8";"Rachel's Experiment (D.T.)";"1.0";"2";"1";"1";"2";"1";"1";"2014-07-22 10:39:29.366";"2014-07-22 10:54:18.517";"1";"0";"1";"35";"34";"module.training_block1.exec-9297.GoNoGo1";;;;;;;;;;;;;;;;;;;;;;;"1250";"2014-07-22 10:42:45.143";"NST_correctLoc";"26";"1";"FINISHED";"RIGHT";"success";"323";"0";"2014-07-22 10:42:43.893";"3";;;;;;;;;;;;;;;;;;;;;;;;;;;;;;;;;;;;;;;;;;;;;;;;;;;;;;;;;
"pol181";"1993";;"Windows 8";"Rachel's Experiment (D.T.)";"1.0";"2";"1";"1";"2";"1";"1";"2014-07-22 10:39:29.366";"2014-07-22 10:54:18.517";"1";"0";"1";"36";"35";"module.training_block1.exec-9297.GoNoGo1";;;;;;;;;;;;;;;;;;;;;;;"1249";"2014-07-22 10:42:47.698";"NST_correctLoc";"32";"0";"FINISHED";"LEFT";"success";"318";"0";"2014-07-22 10:42:46.447";"3";;;;;;;;;;;;;;;;;;;;;;;;;;;;;;;;;;;;;;;;;;;;;;;;;;;;;;;;;
"pol181";"1993";;"Windows 8";"Rachel's Experiment (D.T.)";"1.0";"2";"1";"1";"2";"1";"1";"2014-07-22 10:39:29.366";"2014-07-22 10:54:18.517";"1";"0";"1";"37";"36";"module.training_block1.exec-9297.GoNoGo1";;;;;;;;;;;;;;;;;;;;;;;"1249";"2014-07-22 10:42:50.241";"NST_correctLoc";"30";"0";"FINISHED";"LEFT";"success";"330";"0";"2014-07-22 10:42:48.991";"3";;;;;;;;;;;;;;;;;;;;;;;;;;;;;;;;;;;;;;;;;;;;;;;;;;;;;;;;;
"pol181";"1993";;"Windows 8";"Rachel's Experiment (D.T.)";"1.0";"2";"1";"1";"2";"1";"1";"2014-07-22 10:39:29.366";"2014-07-22 10:54:18.517";"1";"0";"1";"38";"37";"module.training_block1.exec-9297.GoNoGo1";;;;;;;;;;;;;;;;;;;;;;;"1249";"2014-07-22 10:42:52.792";"NST_correctLoc";"25";"1";"FINISHED";"RIGHT";"success";"343";"0";"2014-07-22 10:42:51.542";"3";;;;;;;;;;;;;;;;;;;;;;;;;;;;;;;;;;;;;;;;;;;;;;;;;;;;;;;;;
"pol181";"1993";;"Windows 8";"Rachel's Experiment (D.T.)";"1.0";"2";"1";"1";"2";"1";"1";"2014-07-22 10:39:29.366";"2014-07-22 10:54:18.517";"1";"0";"1";"39";"38";"module.training_block1.exec-9297.GoNoGo1";;;;;;;;;;;;;;;;;;;;;;;"1250";"2014-07-22 10:42:55.325";"NST_correctLoc";"19";"1";"FINISHED";"RIGHT";"success";"322";"0";"2014-07-22 10:42:54.074";"3";;;;;;;;;;;;;;;;;;;;;;;;;;;;;;;;;;;;;;;;;;;;;;;;;;;;;;;;;
"pol181";"1993";;"Windows 8";"Rachel's Experiment (D.T.)";"1.0";"2";"1";"1";"2";"1";"1";"2014-07-22 10:39:29.366";"2014-07-22 10:54:18.517";"1";"0";"1";"40";"39";"module.training_block1.exec-9297.GoNoGo1";;;;;;;;;;;;;;;;;;;;;;;"1249";"2014-07-22 10:42:57.865";"NST_correctLoc";"14";"0";"FINISHED";"LEFT";"success";"347";"0";"2014-07-22 10:42:56.615";"2";;;;;;;;;;;;;;;;;;;;;;;;;;;;;;;;;;;;;;;;;;;;;;;;;;;;;;;;;
"pol181";"1993";;"Windows 8";"Rachel's Experiment (D.T.)";"1.0";"2";"1";"1";"2";"1";"1";"2014-07-22 10:39:29.366";"2014-07-22 10:54:18.517";"1";"0";"1";"41";"40";"module.training_block1.exec-9297.GoNoGo1";;;;;;;;;;;;;;;;;;;;;;;"1249";"2014-07-22 10:43:00.424";"NST_correctLoc";"16";"1";"FINISHED";"RIGHT";"success";"295";"0";"2014-07-22 10:42:59.174";"2";;;;;;;;;;;;;;;;;;;;;;;;;;;;;;;;;;;;;;;;;;;;;;;;;;;;;;;;;
"pol181";"1993";;"Windows 8";"Rachel's Experiment (D.T.)";"1.0";"2";"1";"1";"2";"1";"1";"2014-07-22 10:39:29.366";"2014-07-22 10:54:18.517";"1";"0";"1";"42";"41";"module.training_block1.exec-9297.GoNoGo1";;;;;;;;;;;;;;;;;;;;;;;"1249";"2014-07-22 10:43:02.971";"NST_correctLoc";"20";"0";"FINISHED";"LEFT";"success";"323";"0";"2014-07-22 10:43:01.721";"3";;;;;;;;;;;;;;;;;;;;;;;;;;;;;;;;;;;;;;;;;;;;;;;;;;;;;;;;;
"pol181";"1993";;"Windows 8";"Rachel's Experiment (D.T.)";"1.0";"2";"1";"1";"2";"1";"1";"2014-07-22 10:39:29.366";"2014-07-22 10:54:18.517";"1";"0";"1";"43";"42";"module.training_block1.exec-9297.GoNoGo1";;;;;;;;;;;;;;;;;;;;;;;"1249";"2014-07-22 10:43:05.520";"NST_correctLoc";"22";"1";"FINISHED";"RIGHT";"success";"292";"0";"2014-07-22 10:43:04.270";"3";;;;;;;;;;;;;;;;;;;;;;;;;;;;;;;;;;;;;;;;;;;;;;;;;;;;;;;;;
"pol181";"1993";;"Windows 8";"Rachel's Experiment (D.T.)";"1.0";"2";"1";"1";"2";"1";"1";"2014-07-22 10:39:29.366";"2014-07-22 10:54:18.517";"1";"0";"1";"44";"43";"module.training_block1.exec-9297.GoNoGo1";;;;;;;;;;;;;;;;;;;;;;;"1250";"2014-07-22 10:43:08.069";"NST_correctLoc";"7";"0";"FINISHED";"LEFT";"success";"277";"0";"2014-07-22 10:43:06.819";"1";;;;;;;;;;;;;;;;;;;;;;;;;;;;;;;;;;;;;;;;;;;;;;;;;;;;;;;;;
"pol181";"1993";;"Windows 8";"Rachel's Experiment (D.T.)";"1.0";"2";"1";"1";"2";"1";"1";"2014-07-22 10:39:29.366";"2014-07-22 10:54:18.517";"1";"0";"1";"45";"44";"module.training_block1.exec-9297.GoNoGo1";;;;;;;;;;;;;;;;;;;;;;;"1249";"2014-07-22 10:43:10.617";"NST_correctLoc";"28";"1";"FINISHED";"RIGHT";"success";"249";"0";"2014-07-22 10:43:09.367";"3";;;;;;;;;;;;;;;;;;;;;;;;;;;;;;;;;;;;;;;;;;;;;;;;;;;;;;;;;
"pol181";"1993";;"Windows 8";"Rachel's Experiment (D.T.)";"1.0";"2";"1";"1";"2";"1";"1";"2014-07-22 10:39:29.366";"2014-07-22 10:54:18.517";"1";"0";"1";"46";"45";"module.training_block1.exec-9297.GoNoGo1";;;;;;;;;;;;;;;;;;;;;;;"1249";"2014-07-22 10:43:13.167";"NST_correctLoc";"0";"1";"FINISHED";"RIGHT";"success";"330";"0";"2014-07-22 10:43:11.917";"1";;;;;;;;;;;;;;;;;;;;;;;;;;;;;;;;;;;;;;;;;;;;;;;;;;;;;;;;;
"pol181";"1993";;"Windows 8";"Rachel's Experiment (D.T.)";"1.0";"2";"1";"1";"2";"1";"1";"2014-07-22 10:39:29.366";"2014-07-22 10:54:18.517";"1";"0";"1";"47";"46";"module.training_block1.exec-9297.GoNoGo1";;;;;;;;;;;;;;;;;;;;;;;"1249";"2014-07-22 10:43:15.717";"NST_correctLoc";"12";"1";"FINISHED";"RIGHT";"success";"301";"0";"2014-07-22 10:43:14.467";"2";;;;;;;;;;;;;;;;;;;;;;;;;;;;;;;;;;;;;;;;;;;;;;;;;;;;;;;;;
"pol181";"1993";;"Windows 8";"Rachel's Experiment (D.T.)";"1.0";"2";"1";"1";"2";"1";"1";"2014-07-22 10:39:29.366";"2014-07-22 10:54:18.517";"1";"0";"1";"48";"47";"module.training_block1.exec-9297.GoNoGo1";;;;;;;;;;;;;;;;;;;;;;;"1249";"2014-07-22 10:43:18.263";"NST_correctLoc";"15";"1";"FINISHED";"RIGHT";"success";"291";"0";"2014-07-22 10:43:17.013";"2";;;;;;;;;;;;;;;;;;;;;;;;;;;;;;;;;;;;;;;;;;;;;;;;;;;;;;;;;
"pol181";"1993";;"Windows 8";"Rachel's Experiment (D.T.)";"1.0";"2";"1";"1";"2";"1";"1";"2014-07-22 10:39:29.366";"2014-07-22 10:54:18.517";"1";"0";"1";"49";"48";"module.training_block1.exec-9297.GoNoGo1";;;;;;;;;;;;;;;;;;;;;;;"1249";"2014-07-22 10:43:20.809";"NST_correctLoc";"31";"1";"FINISHED";"RIGHT";"success";"310";"0";"2014-07-22 10:43:19.559";"3";;;;;;;;;;;;;;;;;;;;;;;;;;;;;;;;;;;;;;;;;;;;;;;;;;;;;;;;;
"pol181";"1993";;"Windows 8";"Rachel's Experiment (D.T.)";"1.0";"2";"1";"1";"2";"1";"1";"2014-07-22 10:39:29.366";"2014-07-22 10:54:18.517";"1";"0";"1";"50";"49";"module.training_block1.exec-9297.GoNoGo1";;;;;;;;;;;;;;;;;;;;;;;"1249";"2014-07-22 10:43:23.357";"NST_correctLoc";"4";"1";"FINISHED";"RIGHT";"success";"423";"0";"2014-07-22 10:43:22.107";"1";;;;;;;;;;;;;;;;;;;;;;;;;;;;;;;;;;;;;;;;;;;;;;;;;;;;;;;;;
"pol181";"1993";;"Windows 8";"Rachel's Experiment (D.T.)";"1.0";"2";"1";"1";"2";"1";"1";"2014-07-22 10:39:29.366";"2014-07-22 10:54:18.517";"1";"0";"1";"51";"50";"module.training_block1.exec-9297.GoNoGo1";;;;;;;;;;;;;;;;;;;;;;;"1249";"2014-07-22 10:43:25.898";"NST_correctLoc";"34";"0";"FINISHED";"LEFT";"success";"372";"0";"2014-07-22 10:43:24.648";"3";;;;;;;;;;;;;;;;;;;;;;;;;;;;;;;;;;;;;;;;;;;;;;;;;;;;;;;;;
"pol181";"1993";;"Windows 8";"Rachel's Experiment (D.T.)";"1.0";"2";"1";"1";"2";"1";"1";"2014-07-22 10:39:29.366";"2014-07-22 10:54:18.517";"1";"0";"1";"52";"51";"module.training_block2.exec-7012.GoNoGo2";;;;;;;;;;;;;;;;;;;;;;;;;;;;;;;;;;;"1249";"2014-07-22 10:43:41.502";"NST_correctLoc";"11";"1";"FINISHED";"RIGHT";"success";"383";"0";"2014-07-22 10:43:40.252";"2";;;;;;;;;;;;;;;;;;;;;;;;;;;;;;;;;;;;;;;;;;;;;
"pol181";"1993";;"Windows 8";"Rachel's Experiment (D.T.)";"1.0";"2";"1";"1";"2";"1";"1";"2014-07-22 10:39:29.366";"2014-07-22 10:54:18.517";"1";"0";"1";"53";"52";"module.training_block2.exec-7012.GoNoGo2";;;;;;;;;;;;;;;;;;;;;;;;;;;;;;;;;;;"1249";"2014-07-22 10:43:44.043";"NST_correctLoc";"25";"0";"FINISHED";"LEFT";"success";"337";"0";"2014-07-22 10:43:42.793";"3";;;;;;;;;;;;;;;;;;;;;;;;;;;;;;;;;;;;;;;;;;;;;
"pol181";"1993";;"Windows 8";"Rachel's Experiment (D.T.)";"1.0";"2";"1";"1";"2";"1";"1";"2014-07-22 10:39:29.366";"2014-07-22 10:54:18.517";"1";"0";"1";"54";"53";"module.training_block2.exec-7012.GoNoGo2";;;;;;;;;;;;;;;;;;;;;;;;;;;;;;;;;;;"1249";"2014-07-22 10:43:46.578";"NST_correctLoc";"5";"0";"FINISHED";"LEFT";"success";"375";"0";"2014-07-22 10:43:45.328";"1";;;;;;;;;;;;;;;;;;;;;;;;;;;;;;;;;;;;;;;;;;;;;
"pol181";"1993";;"Windows 8";"Rachel's Experiment (D.T.)";"1.0";"2";"1";"1";"2";"1";"1";"2014-07-22 10:39:29.366";"2014-07-22 10:54:18.517";"1";"0";"1";"55";"54";"module.training_block2.exec-7012.GoNoGo2";;;;;;;;;;;;;;;;;;;;;;;;;;;;;;;;;;;"1249";"2014-07-22 10:43:49.118";"NST_correctLoc";"10";"0";"FINISHED";"LEFT";"success";"363";"0";"2014-07-22 10:43:47.867";"2";;;;;;;;;;;;;;;;;;;;;;;;;;;;;;;;;;;;;;;;;;;;;
"pol181";"1993";;"Windows 8";"Rachel's Experiment (D.T.)";"1.0";"2";"1";"1";"2";"1";"1";"2014-07-22 10:39:29.366";"2014-07-22 10:54:18.517";"1";"0";"1";"56";"55";"module.training_block2.exec-7012.GoNoGo2";;;;;;;;;;;;;;;;;;;;;;;;;;;;;;;;;;;"1249";"2014-07-22 10:43:51.658";"NST_correctLoc";"23";"0";"FINISHED";"LEFT";"success";"322";"0";"2014-07-22 10:43:50.408";"3";;;;;;;;;;;;;;;;;;;;;;;;;;;;;;;;;;;;;;;;;;;;;
"pol181";"1993";;"Windows 8";"Rachel's Experiment (D.T.)";"1.0";"2";"1";"1";"2";"1";"1";"2014-07-22 10:39:29.366";"2014-07-22 10:54:18.517";"1";"0";"1";"57";"56";"module.training_block2.exec-7012.GoNoGo2";;;;;;;;;;;;;;;;;;;;;;;;;;;;;;;;;;;"1249";"2014-07-22 10:43:54.191";"NST_correctLoc";"4";"0";"FINISHED";"LEFT";"success";"347";"0";"2014-07-22 10:43:52.941";"1";;;;;;;;;;;;;;;;;;;;;;;;;;;;;;;;;;;;;;;;;;;;;
"pol181";"1993";;"Windows 8";"Rachel's Experiment (D.T.)";"1.0";"2";"1";"1";"2";"1";"1";"2014-07-22 10:39:29.366";"2014-07-22 10:54:18.517";"1";"0";"1";"58";"57";"module.training_block2.exec-7012.GoNoGo2";;;;;;;;;;;;;;;;;;;;;;;;;;;;;;;;;;;"1249";"2014-07-22 10:43:56.732";"NST_correctLoc";"7";"1";"FINISHED";"RIGHT";"success";"304";"0";"2014-07-22 10:43:55.482";"1";;;;;;;;;;;;;;;;;;;;;;;;;;;;;;;;;;;;;;;;;;;;;
"pol181";"1993";;"Windows 8";"Rachel's Experiment (D.T.)";"1.0";"2";"1";"1";"2";"1";"1";"2014-07-22 10:39:29.366";"2014-07-22 10:54:18.517";"1";"0";"1";"59";"58";"module.training_block2.exec-7012.GoNoGo2";;;;;;;;;;;;;;;;;;;;;;;;;;;;;;;;;;;"1249";"2014-07-22 10:43:59.272";"NST_correctLoc";"8";"1";"FINISHED";"RIGHT";"success";"466";"0";"2014-07-22 10:43:58.021";"1";;;;;;;;;;;;;;;;;;;;;;;;;;;;;;;;;;;;;;;;;;;;;
"pol181";"1993";;"Windows 8";"Rachel's Experiment (D.T.)";"1.0";"2";"1";"1";"2";"1";"1";"2014-07-22 10:39:29.366";"2014-07-22 10:54:18.517";"1";"0";"1";"60";"59";"module.training_block2.exec-7012.GoNoGo2";;;;;;;;;;;;;;;;;;;;;;;;;;;;;;;;;;;"1250";"2014-07-22 10:44:01.813";"NST_correctLoc";"13";"1";"FINISHED";"RIGHT";"success";"437";"0";"2014-07-22 10:44:00.563";"2";;;;;;;;;;;;;;;;;;;;;;;;;;;;;;;;;;;;;;;;;;;;;
"pol181";"1993";;"Windows 8";"Rachel's Experiment (D.T.)";"1.0";"2";"1";"1";"2";"1";"1";"2014-07-22 10:39:29.366";"2014-07-22 10:54:18.517";"1";"0";"1";"61";"60";"module.training_block2.exec-7012.GoNoGo2";;;;;;;;;;;;;;;;;;;;;;;;;;;;;;;;;;;"1249";"2014-07-22 10:44:04.353";"NST_correctLoc";"18";"1";"FINISHED";"RIGHT";"success";"345";"0";"2014-07-22 10:44:03.103";"3";;;;;;;;;;;;;;;;;;;;;;;;;;;;;;;;;;;;;;;;;;;;;
"pol181";"1993";;"Windows 8";"Rachel's Experiment (D.T.)";"1.0";"2";"1";"1";"2";"1";"1";"2014-07-22 10:39:29.366";"2014-07-22 10:54:18.517";"1";"0";"1";"62";"61";"module.training_block2.exec-7012.GoNoGo2";;;;;;;;;;;;;;;;;;;;;;;;;;;;;;;;;;;"1249";"2014-07-22 10:44:06.892";"NST_correctLoc";"16";"1";"FINISHED";"RIGHT";"success";"348";"0";"2014-07-22 10:44:05.642";"2";;;;;;;;;;;;;;;;;;;;;;;;;;;;;;;;;;;;;;;;;;;;;
"pol181";"1993";;"Windows 8";"Rachel's Experiment (D.T.)";"1.0";"2";"1";"1";"2";"1";"1";"2014-07-22 10:39:29.366";"2014-07-22 10:54:18.517";"1";"0";"1";"63";"62";"module.training_block2.exec-7012.GoNoGo2";;;;;;;;;;;;;;;;;;;;;;;;;;;;;;;;;;;"1249";"2014-07-22 10:44:09.432";"NST_correctLoc";"28";"1";"FINISHED";"RIGHT";"success";"263";"0";"2014-07-22 10:44:08.182";"3";;;;;;;;;;;;;;;;;;;;;;;;;;;;;;;;;;;;;;;;;;;;;
"pol181";"1993";;"Windows 8";"Rachel's Experiment (D.T.)";"1.0";"2";"1";"1";"2";"1";"1";"2014-07-22 10:39:29.366";"2014-07-22 10:54:18.517";"1";"0";"1";"64";"63";"module.training_block2.exec-7012.GoNoGo2";;;;;;;;;;;;;;;;;;;;;;;;;;;;;;;;;;;"1250";"2014-07-22 10:44:11.967";"NST_correctLoc";"3";"0";"FINISHED";"LEFT";"success";"319";"0";"2014-07-22 10:44:10.717";"1";;;;;;;;;;;;;;;;;;;;;;;;;;;;;;;;;;;;;;;;;;;;;
"pol181";"1993";;"Windows 8";"Rachel's Experiment (D.T.)";"1.0";"2";"1";"1";"2";"1";"1";"2014-07-22 10:39:29.366";"2014-07-22 10:54:18.517";"1";"0";"1";"65";"64";"module.training_block2.exec-7012.GoNoGo2";;;;;;;;;;;;;;;;;;;;;;;;;;;;;;;;;;;"1249";"2014-07-22 10:44:14.509";"NST_correctLoc";"1";"1";"FINISHED";"RIGHT";"success";"364";"0";"2014-07-22 10:44:13.259";"1";;;;;;;;;;;;;;;;;;;;;;;;;;;;;;;;;;;;;;;;;;;;;
"pol181";"1993";;"Windows 8";"Rachel's Experiment (D.T.)";"1.0";"2";"1";"1";"2";"1";"1";"2014-07-22 10:39:29.366";"2014-07-22 10:54:18.517";"1";"0";"1";"66";"65";"module.training_block2.exec-7012.GoNoGo2";;;;;;;;;;;;;;;;;;;;;;;;;;;;;;;;;;;"1249";"2014-07-22 10:44:17.042";"NST_correctLoc";"9";"0";"FINISHED";"LEFT";"success";"323";"0";"2014-07-22 10:44:15.792";"2";;;;;;;;;;;;;;;;;;;;;;;;;;;;;;;;;;;;;;;;;;;;;
"pol181";"1993";;"Windows 8";"Rachel's Experiment (D.T.)";"1.0";"2";"1";"1";"2";"1";"1";"2014-07-22 10:39:29.366";"2014-07-22 10:54:18.517";"1";"0";"1";"67";"66";"module.training_block2.exec-7012.GoNoGo2";;;;;;;;;;;;;;;;;;;;;;;;;;;;;;;;;;;"1250";"2014-07-22 10:44:19.563";"NST_correctLoc";"34";"0";"FINISHED";"LEFT";"success";"390";"0";"2014-07-22 10:44:18.311";"3";;;;;;;;;;;;;;;;;;;;;;;;;;;;;;;;;;;;;;;;;;;;;
"pol181";"1993";;"Windows 8";"Rachel's Experiment (D.T.)";"1.0";"2";"1";"1";"2";"1";"1";"2014-07-22 10:39:29.366";"2014-07-22 10:54:18.517";"1";"0";"1";"68";"67";"module.training_block2.exec-7012.GoNoGo2";;;;;;;;;;;;;;;;;;;;;;;;;;;;;;;;;;;"1249";"2014-07-22 10:44:22.101";"NST_correctLoc";"19";"0";"FINISHED";"LEFT";"success";"301";"0";"2014-07-22 10:44:20.851";"3";;;;;;;;;;;;;;;;;;;;;;;;;;;;;;;;;;;;;;;;;;;;;
"pol181";"1993";;"Windows 8";"Rachel's Experiment (D.T.)";"1.0";"2";"1";"1";"2";"1";"1";"2014-07-22 10:39:29.366";"2014-07-22 10:54:18.517";"1";"0";"1";"69";"68";"module.training_block2.exec-7012.GoNoGo2";;;;;;;;;;;;;;;;;;;;;;;;;;;;;;;;;;;"1250";"2014-07-22 10:44:24.646";"NST_correctLoc";"21";"0";"FINISHED";"LEFT";"success";"320";"0";"2014-07-22 10:44:23.396";"3";;;;;;;;;;;;;;;;;;;;;;;;;;;;;;;;;;;;;;;;;;;;;
"pol181";"1993";;"Windows 8";"Rachel's Experiment (D.T.)";"1.0";"2";"1";"1";"2";"1";"1";"2014-07-22 10:39:29.366";"2014-07-22 10:54:18.517";"1";"0";"1";"70";"69";"module.training_block2.exec-7012.GoNoGo2";;;;;;;;;;;;;;;;;;;;;;;;;;;;;;;;;;;"1250";"2014-07-22 10:44:27.179";"NST_correctLoc";"31";"0";"FINISHED";"LEFT";"success";"321";"0";"2014-07-22 10:44:25.928";"3";;;;;;;;;;;;;;;;;;;;;;;;;;;;;;;;;;;;;;;;;;;;;
"pol181";"1993";;"Windows 8";"Rachel's Experiment (D.T.)";"1.0";"2";"1";"1";"2";"1";"1";"2014-07-22 10:39:29.366";"2014-07-22 10:54:18.517";"1";"0";"1";"71";"70";"module.training_block2.exec-7012.GoNoGo2";;;;;;;;;;;;;;;;;;;;;;;;;;;;;;;;;;;"1249";"2014-07-22 10:44:29.716";"NST_correctLoc";"26";"1";"FINISHED";"RIGHT";"success";"323";"0";"2014-07-22 10:44:28.465";"3";;;;;;;;;;;;;;;;;;;;;;;;;;;;;;;;;;;;;;;;;;;;;
"pol181";"1993";;"Windows 8";"Rachel's Experiment (D.T.)";"1.0";"2";"1";"1";"2";"1";"1";"2014-07-22 10:39:29.366";"2014-07-22 10:54:18.517";"1";"0";"1";"72";"71";"module.training_block2.exec-7012.GoNoGo2";;;;;;;;;;;;;;;;;;;;;;;;;;;;;;;;;;;"1249";"2014-07-22 10:44:32.252";"NST_correctLoc";"6";"1";"FINISHED";"RIGHT";"success";"345";"0";"2014-07-22 10:44:31.002";"1";;;;;;;;;;;;;;;;;;;;;;;;;;;;;;;;;;;;;;;;;;;;;
"pol181";"1993";;"Windows 8";"Rachel's Experiment (D.T.)";"1.0";"2";"1";"1";"2";"1";"1";"2014-07-22 10:39:29.366";"2014-07-22 10:54:18.517";"1";"0";"1";"73";"72";"module.training_block2.exec-7012.GoNoGo2";;;;;;;;;;;;;;;;;;;;;;;;;;;;;;;;;;;"1249";"2014-07-22 10:44:34.788";"NST_correctLoc";"0";"0";"FINISHED";"LEFT";"success";"325";"0";"2014-07-22 10:44:33.538";"1";;;;;;;;;;;;;;;;;;;;;;;;;;;;;;;;;;;;;;;;;;;;;
"pol181";"1993";;"Windows 8";"Rachel's Experiment (D.T.)";"1.0";"2";"1";"1";"2";"1";"1";"2014-07-22 10:39:29.366";"2014-07-22 10:54:18.517";"1";"0";"1";"74";"73";"module.training_block2.exec-7012.GoNoGo2";;;;;;;;;;;;;;;;;;;;;;;;;;;;;;;;;;;"1249";"2014-07-22 10:44:37.320";"NST_correctLoc";"30";"1";"FINISHED";"RIGHT";"success";"338";"0";"2014-07-22 10:44:36.069";"3";;;;;;;;;;;;;;;;;;;;;;;;;;;;;;;;;;;;;;;;;;;;;
"pol181";"1993";;"Windows 8";"Rachel's Experiment (D.T.)";"1.0";"2";"1";"1";"2";"1";"1";"2014-07-22 10:39:29.366";"2014-07-22 10:54:18.517";"1";"0";"1";"75";"74";"module.training_block2.exec-7012.GoNoGo2";;;;;;;;;;;;;;;;;;;;;;;;;;;;;;;;;;;"1249";"2014-07-22 10:44:39.854";"NST_correctLoc";"15";"1";"FINISHED";"RIGHT";"success";"347";"0";"2014-07-22 10:44:38.604";"2";;;;;;;;;;;;;;;;;;;;;;;;;;;;;;;;;;;;;;;;;;;;;
"pol181";"1993";;"Windows 8";"Rachel's Experiment (D.T.)";"1.0";"2";"1";"1";"2";"1";"1";"2014-07-22 10:39:29.366";"2014-07-22 10:54:18.517";"1";"0";"1";"76";"75";"module.training_block2.exec-7012.GoNoGo2";;;;;;;;;;;;;;;;;;;;;;;;;;;;;;;;;;;"1250";"2014-07-22 10:44:42.394";"NST_correctLoc";"12";"1";"FINISHED";"RIGHT";"success";"294";"0";"2014-07-22 10:44:41.143";"2";;;;;;;;;;;;;;;;;;;;;;;;;;;;;;;;;;;;;;;;;;;;;
"pol181";"1993";;"Windows 8";"Rachel's Experiment (D.T.)";"1.0";"2";"1";"1";"2";"1";"1";"2014-07-22 10:39:29.366";"2014-07-22 10:54:18.517";"1";"0";"1";"77";"76";"module.training_block2.exec-7012.GoNoGo2";;;;;;;;;;;;;;;;;;;;;;;;;;;;;;;;;;;"1249";"2014-07-22 10:44:44.930";"NST_correctLoc";"32";"1";"FINISHED";"RIGHT";"success";"311";"0";"2014-07-22 10:44:43.679";"3";;;;;;;;;;;;;;;;;;;;;;;;;;;;;;;;;;;;;;;;;;;;;
"pol181";"1993";;"Windows 8";"Rachel's Experiment (D.T.)";"1.0";"2";"1";"1";"2";"1";"1";"2014-07-22 10:39:29.366";"2014-07-22 10:54:18.517";"1";"0";"1";"78";"77";"module.training_block2.exec-7012.GoNoGo2";;;;;;;;;;;;;;;;;;;;;;;;;;;;;;;;;;;"1249";"2014-07-22 10:44:47.466";"NST_correctLoc";"14";"1";"FINISHED";"RIGHT";"success";"320";"0";"2014-07-22 10:44:46.216";"2";;;;;;;;;;;;;;;;;;;;;;;;;;;;;;;;;;;;;;;;;;;;;
"pol181";"1993";;"Windows 8";"Rachel's Experiment (D.T.)";"1.0";"2";"1";"1";"2";"1";"1";"2014-07-22 10:39:29.366";"2014-07-22 10:54:18.517";"1";"0";"1";"79";"78";"module.training_block2.exec-7012.GoNoGo2";;;;;;;;;;;;;;;;;;;;;;;;;;;;;;;;;;;"1249";"2014-07-22 10:44:50.002";"NST_correctLoc";"24";"0";"FINISHED";"LEFT";"success";"337";"0";"2014-07-22 10:44:48.752";"3";;;;;;;;;;;;;;;;;;;;;;;;;;;;;;;;;;;;;;;;;;;;;
"pol181";"1993";;"Windows 8";"Rachel's Experiment (D.T.)";"1.0";"2";"1";"1";"2";"1";"1";"2014-07-22 10:39:29.366";"2014-07-22 10:54:18.517";"1";"0";"1";"80";"79";"module.training_block2.exec-7012.GoNoGo2";;;;;;;;;;;;;;;;;;;;;;;;;;;;;;;;;;;"1249";"2014-07-22 10:44:52.536";"NST_correctLoc";"35";"0";"FINISHED";"LEFT";"success";"317";"0";"2014-07-22 10:44:51.286";"3";;;;;;;;;;;;;;;;;;;;;;;;;;;;;;;;;;;;;;;;;;;;;
"pol181";"1993";;"Windows 8";"Rachel's Experiment (D.T.)";"1.0";"2";"1";"1";"2";"1";"1";"2014-07-22 10:39:29.366";"2014-07-22 10:54:18.517";"1";"0";"1";"81";"80";"module.training_block2.exec-7012.GoNoGo2";;;;;;;;;;;;;;;;;;;;;;;;;;;;;;;;;;;"1249";"2014-07-22 10:44:55.070";"NST_correctLoc";"33";"0";"FINISHED";"LEFT";"success";"794";"0";"2014-07-22 10:44:53.820";"3";;;;;;;;;;;;;;;;;;;;;;;;;;;;;;;;;;;;;;;;;;;;;
"pol181";"1993";;"Windows 8";"Rachel's Experiment (D.T.)";"1.0";"2";"1";"1";"2";"1";"1";"2014-07-22 10:39:29.366";"2014-07-22 10:54:18.517";"1";"0";"1";"82";"81";"module.training_block2.exec-7012.GoNoGo2";;;;;;;;;;;;;;;;;;;;;;;;;;;;;;;;;;;"1250";"2014-07-22 10:44:57.605";"NST_correctLoc";"17";"1";"FINISHED";"RIGHT";"success";"327";"0";"2014-07-22 10:44:56.355";"2";;;;;;;;;;;;;;;;;;;;;;;;;;;;;;;;;;;;;;;;;;;;;
"pol181";"1993";;"Windows 8";"Rachel's Experiment (D.T.)";"1.0";"2";"1";"1";"2";"1";"1";"2014-07-22 10:39:29.366";"2014-07-22 10:54:18.517";"1";"0";"1";"83";"82";"module.training_block2.exec-7012.GoNoGo2";;;;;;;;;;;;;;;;;;;;;;;;;;;;;;;;;;;"1249";"2014-07-22 10:45:00.135";"NST_correctLoc";"27";"1";"FINISHED";"RIGHT";"success";"360";"0";"2014-07-22 10:44:58.885";"3";;;;;;;;;;;;;;;;;;;;;;;;;;;;;;;;;;;;;;;;;;;;;
"pol181";"1993";;"Windows 8";"Rachel's Experiment (D.T.)";"1.0";"2";"1";"1";"2";"1";"1";"2014-07-22 10:39:29.366";"2014-07-22 10:54:18.517";"1";"0";"1";"84";"83";"module.training_block2.exec-7012.GoNoGo2";;;;;;;;;;;;;;;;;;;;;;;;;;;;;;;;;;;"1249";"2014-07-22 10:45:02.669";"NST_correctLoc";"22";"0";"FINISHED";"LEFT";"success";"326";"0";"2014-07-22 10:45:01.418";"3";;;;;;;;;;;;;;;;;;;;;;;;;;;;;;;;;;;;;;;;;;;;;
"pol181";"1993";;"Windows 8";"Rachel's Experiment (D.T.)";"1.0";"2";"1";"1";"2";"1";"1";"2014-07-22 10:39:29.366";"2014-07-22 10:54:18.517";"1";"0";"1";"85";"84";"module.training_block2.exec-7012.GoNoGo2";;;;;;;;;;;;;;;;;;;;;;;;;;;;;;;;;;;"1249";"2014-07-22 10:45:05.201";"NST_correctLoc";"29";"0";"FINISHED";"LEFT";"success";"336";"0";"2014-07-22 10:45:03.951";"3";;;;;;;;;;;;;;;;;;;;;;;;;;;;;;;;;;;;;;;;;;;;;
"pol181";"1993";;"Windows 8";"Rachel's Experiment (D.T.)";"1.0";"2";"1";"1";"2";"1";"1";"2014-07-22 10:39:29.366";"2014-07-22 10:54:18.517";"1";"0";"1";"86";"85";"module.training_block2.exec-7012.GoNoGo2";;;;;;;;;;;;;;;;;;;;;;;;;;;;;;;;;;;"1249";"2014-07-22 10:45:07.741";"NST_correctLoc";"20";"1";"FINISHED";"RIGHT";"success";"314";"0";"2014-07-22 10:45:06.491";"3";;;;;;;;;;;;;;;;;;;;;;;;;;;;;;;;;;;;;;;;;;;;;
"pol181";"1993";;"Windows 8";"Rachel's Experiment (D.T.)";"1.0";"2";"1";"1";"2";"1";"1";"2014-07-22 10:39:29.366";"2014-07-22 10:54:18.517";"1";"0";"1";"87";"86";"module.training_block2.exec-7012.GoNoGo2";;;;;;;;;;;;;;;;;;;;;;;;;;;;;;;;;;;"1249";"2014-07-22 10:45:10.273";"NST_correctLoc";"2";"0";"FINISHED";"LEFT";"success";"290";"0";"2014-07-22 10:45:09.023";"1";;;;;;;;;;;;;;;;;;;;;;;;;;;;;;;;;;;;;;;;;;;;;
"pol181";"1993";;"Windows 8";"Rachel's Experiment (D.T.)";"1.0";"2";"1";"1";"2";"1";"1";"2014-07-22 10:39:29.366";"2014-07-22 10:54:18.517";"1";"0";"1";"88";"87";"module.training_block3.exec-2641.GoNoGo3";;;;;;;;;;;;;;;;;;;;;;;;;;;;;;;;;;;;;;;;;;;;;;;"1249";"2014-07-22 10:45:20.437";"NST_correctLoc";"15";"1";"FINISHED";"RIGHT";"success";"332";"0";"2014-07-22 10:45:19.187";"2";;;;;;;;;;;;;;;;;;;;;;;;;;;;;;;;;
"pol181";"1993";;"Windows 8";"Rachel's Experiment (D.T.)";"1.0";"2";"1";"1";"2";"1";"1";"2014-07-22 10:39:29.366";"2014-07-22 10:54:18.517";"1";"0";"1";"89";"88";"module.training_block3.exec-2641.GoNoGo3";;;;;;;;;;;;;;;;;;;;;;;;;;;;;;;;;;;;;;;;;;;;;;;"1250";"2014-07-22 10:45:22.967";"NST_correctLoc";"29";"1";"FINISHED";"RIGHT";"success";"296";"0";"2014-07-22 10:45:21.715";"3";;;;;;;;;;;;;;;;;;;;;;;;;;;;;;;;;
"pol181";"1993";;"Windows 8";"Rachel's Experiment (D.T.)";"1.0";"2";"1";"1";"2";"1";"1";"2014-07-22 10:39:29.366";"2014-07-22 10:54:18.517";"1";"0";"1";"90";"89";"module.training_block3.exec-2641.GoNoGo3";;;;;;;;;;;;;;;;;;;;;;;;;;;;;;;;;;;;;;;;;;;;;;;"1249";"2014-07-22 10:45:25.500";"NST_correctLoc";"16";"0";"FINISHED";"LEFT";"success";"323";"0";"2014-07-22 10:45:24.250";"2";;;;;;;;;;;;;;;;;;;;;;;;;;;;;;;;;
"pol181";"1993";;"Windows 8";"Rachel's Experiment (D.T.)";"1.0";"2";"1";"1";"2";"1";"1";"2014-07-22 10:39:29.366";"2014-07-22 10:54:18.517";"1";"0";"1";"91";"90";"module.training_block3.exec-2641.GoNoGo3";;;;;;;;;;;;;;;;;;;;;;;;;;;;;;;;;;;;;;;;;;;;;;;"1249";"2014-07-22 10:45:28.031";"NST_correctLoc";"4";"0";"FINISHED";"LEFT";"success";"330";"0";"2014-07-22 10:45:26.781";"1";;;;;;;;;;;;;;;;;;;;;;;;;;;;;;;;;
"pol181";"1993";;"Windows 8";"Rachel's Experiment (D.T.)";"1.0";"2";"1";"1";"2";"1";"1";"2014-07-22 10:39:29.366";"2014-07-22 10:54:18.517";"1";"0";"1";"92";"91";"module.training_block3.exec-2641.GoNoGo3";;;;;;;;;;;;;;;;;;;;;;;;;;;;;;;;;;;;;;;;;;;;;;;"1250";"2014-07-22 10:45:30.564";"NST_correctLoc";"3";"1";"FINISHED";"RIGHT";"success";"319";"0";"2014-07-22 10:45:29.314";"1";;;;;;;;;;;;;;;;;;;;;;;;;;;;;;;;;
"pol181";"1993";;"Windows 8";"Rachel's Experiment (D.T.)";"1.0";"2";"1";"1";"2";"1";"1";"2014-07-22 10:39:29.366";"2014-07-22 10:54:18.517";"1";"0";"1";"93";"92";"module.training_block3.exec-2641.GoNoGo3";;;;;;;;;;;;;;;;;;;;;;;;;;;;;;;;;;;;;;;;;;;;;;;"1249";"2014-07-22 10:45:33.098";"NST_correctLoc";"9";"1";"FINISHED";"RIGHT";"success";"383";"0";"2014-07-22 10:45:31.847";"2";;;;;;;;;;;;;;;;;;;;;;;;;;;;;;;;;
"pol181";"1993";;"Windows 8";"Rachel's Experiment (D.T.)";"1.0";"2";"1";"1";"2";"1";"1";"2014-07-22 10:39:29.366";"2014-07-22 10:54:18.517";"1";"0";"1";"94";"93";"module.training_block3.exec-2641.GoNoGo3";;;;;;;;;;;;;;;;;;;;;;;;;;;;;;;;;;;;;;;;;;;;;;;"1250";"2014-07-22 10:45:35.626";"NST_correctLoc";"30";"1";"FINISHED";"RIGHT";"success";"316";"0";"2014-07-22 10:45:34.376";"3";;;;;;;;;;;;;;;;;;;;;;;;;;;;;;;;;
"pol181";"1993";;"Windows 8";"Rachel's Experiment (D.T.)";"1.0";"2";"1";"1";"2";"1";"1";"2014-07-22 10:39:29.366";"2014-07-22 10:54:18.517";"1";"0";"1";"95";"94";"module.training_block3.exec-2641.GoNoGo3";;;;;;;;;;;;;;;;;;;;;;;;;;;;;;;;;;;;;;;;;;;;;;;"1249";"2014-07-22 10:45:38.159";"NST_correctLoc";"22";"1";"FINISHED";"RIGHT";"success";"301";"0";"2014-07-22 10:45:36.909";"3";;;;;;;;;;;;;;;;;;;;;;;;;;;;;;;;;
"pol181";"1993";;"Windows 8";"Rachel's Experiment (D.T.)";"1.0";"2";"1";"1";"2";"1";"1";"2014-07-22 10:39:29.366";"2014-07-22 10:54:18.517";"1";"0";"1";"96";"95";"module.training_block3.exec-2641.GoNoGo3";;;;;;;;;;;;;;;;;;;;;;;;;;;;;;;;;;;;;;;;;;;;;;;"1249";"2014-07-22 10:45:40.691";"NST_correctLoc";"2";"1";"FINISHED";"RIGHT";"success";"415";"0";"2014-07-22 10:45:39.441";"1";;;;;;;;;;;;;;;;;;;;;;;;;;;;;;;;;
"pol181";"1993";;"Windows 8";"Rachel's Experiment (D.T.)";"1.0";"2";"1";"1";"2";"1";"1";"2014-07-22 10:39:29.366";"2014-07-22 10:54:18.517";"1";"0";"1";"97";"96";"module.training_block3.exec-2641.GoNoGo3";;;;;;;;;;;;;;;;;;;;;;;;;;;;;;;;;;;;;;;;;;;;;;;"1249";"2014-07-22 10:45:43.224";"NST_correctLoc";"0";"1";"FINISHED";"RIGHT";"success";"338";"0";"2014-07-22 10:45:41.973";"1";;;;;;;;;;;;;;;;;;;;;;;;;;;;;;;;;
"pol181";"1993";;"Windows 8";"Rachel's Experiment (D.T.)";"1.0";"2";"1";"1";"2";"1";"1";"2014-07-22 10:39:29.366";"2014-07-22 10:54:18.517";"1";"0";"1";"98";"97";"module.training_block3.exec-2641.GoNoGo3";;;;;;;;;;;;;;;;;;;;;;;;;;;;;;;;;;;;;;;;;;;;;;;"1249";"2014-07-22 10:45:45.757";"NST_correctLoc";"18";"0";"FINISHED";"LEFT";"success";"378";"0";"2014-07-22 10:45:44.506";"3";;;;;;;;;;;;;;;;;;;;;;;;;;;;;;;;;
"pol181";"1993";;"Windows 8";"Rachel's Experiment (D.T.)";"1.0";"2";"1";"1";"2";"1";"1";"2014-07-22 10:39:29.366";"2014-07-22 10:54:18.517";"1";"0";"1";"99";"98";"module.training_block3.exec-2641.GoNoGo3";;;;;;;;;;;;;;;;;;;;;;;;;;;;;;;;;;;;;;;;;;;;;;;"1250";"2014-07-22 10:45:48.286";"NST_correctLoc";"32";"0";"FINISHED";"LEFT";"success";"333";"0";"2014-07-22 10:45:47.036";"3";;;;;;;;;;;;;;;;;;;;;;;;;;;;;;;;;
"pol181";"1993";;"Windows 8";"Rachel's Experiment (D.T.)";"1.0";"2";"1";"1";"2";"1";"1";"2014-07-22 10:39:29.366";"2014-07-22 10:54:18.517";"1";"0";"1";"100";"99";"module.training_block3.exec-2641.GoNoGo3";;;;;;;;;;;;;;;;;;;;;;;;;;;;;;;;;;;;;;;;;;;;;;;"1249";"2014-07-22 10:45:50.819";"NST_correctLoc";"11";"1";"FINISHED";"RIGHT";"success";"319";"0";"2014-07-22 10:45:49.569";"2";;;;;;;;;;;;;;;;;;;;;;;;;;;;;;;;;
"pol181";"1993";;"Windows 8";"Rachel's Experiment (D.T.)";"1.0";"2";"1";"1";"2";"1";"1";"2014-07-22 10:39:29.366";"2014-07-22 10:54:18.517";"1";"0";"1";"101";"100";"module.training_block3.exec-2641.GoNoGo3";;;;;;;;;;;;;;;;;;;;;;;;;;;;;;;;;;;;;;;;;;;;;;;"1249";"2014-07-22 10:45:53.351";"NST_correctLoc";"23";"0";"FINISHED";"LEFT";"success";"319";"0";"2014-07-22 10:45:52.101";"3";;;;;;;;;;;;;;;;;;;;;;;;;;;;;;;;;
"pol181";"1993";;"Windows 8";"Rachel's Experiment (D.T.)";"1.0";"2";"1";"1";"2";"1";"1";"2014-07-22 10:39:29.366";"2014-07-22 10:54:18.517";"1";"0";"1";"102";"101";"module.training_block3.exec-2641.GoNoGo3";;;;;;;;;;;;;;;;;;;;;;;;;;;;;;;;;;;;;;;;;;;;;;;"1249";"2014-07-22 10:45:55.893";"NST_correctLoc";"35";"0";"FINISHED";"LEFT";"success";"340";"0";"2014-07-22 10:45:54.643";"3";;;;;;;;;;;;;;;;;;;;;;;;;;;;;;;;;
"pol181";"1993";;"Windows 8";"Rachel's Experiment (D.T.)";"1.0";"2";"1";"1";"2";"1";"1";"2014-07-22 10:39:29.366";"2014-07-22 10:54:18.517";"1";"0";"1";"103";"102";"module.training_block3.exec-2641.GoNoGo3";;;;;;;;;;;;;;;;;;;;;;;;;;;;;;;;;;;;;;;;;;;;;;;"1250";"2014-07-22 10:45:58.425";"NST_correctLoc";"14";"1";"FINISHED";"RIGHT";"success";"319";"0";"2014-07-22 10:45:57.175";"2";;;;;;;;;;;;;;;;;;;;;;;;;;;;;;;;;
"pol181";"1993";;"Windows 8";"Rachel's Experiment (D.T.)";"1.0";"2";"1";"1";"2";"1";"1";"2014-07-22 10:39:29.366";"2014-07-22 10:54:18.517";"1";"0";"1";"104";"103";"module.training_block3.exec-2641.GoNoGo3";;;;;;;;;;;;;;;;;;;;;;;;;;;;;;;;;;;;;;;;;;;;;;;"1250";"2014-07-22 10:46:00.957";"NST_correctLoc";"7";"1";"FINISHED";"RIGHT";"success";"316";"0";"2014-07-22 10:45:59.707";"1";;;;;;;;;;;;;;;;;;;;;;;;;;;;;;;;;
"pol181";"1993";;"Windows 8";"Rachel's Experiment (D.T.)";"1.0";"2";"1";"1";"2";"1";"1";"2014-07-22 10:39:29.366";"2014-07-22 10:54:18.517";"1";"0";"1";"105";"104";"module.training_block3.exec-2641.GoNoGo3";;;;;;;;;;;;;;;;;;;;;;;;;;;;;;;;;;;;;;;;;;;;;;;"1250";"2014-07-22 10:46:03.490";"NST_correctLoc";"13";"1";"FINISHED";"RIGHT";"success";"384";"0";"2014-07-22 10:46:02.240";"2";;;;;;;;;;;;;;;;;;;;;;;;;;;;;;;;;
"pol181";"1993";;"Windows 8";"Rachel's Experiment (D.T.)";"1.0";"2";"1";"1";"2";"1";"1";"2014-07-22 10:39:29.366";"2014-07-22 10:54:18.517";"1";"0";"1";"106";"105";"module.training_block3.exec-2641.GoNoGo3";;;;;;;;;;;;;;;;;;;;;;;;;;;;;;;;;;;;;;;;;;;;;;;"1250";"2014-07-22 10:46:06.023";"NST_correctLoc";"10";"1";"FINISHED";"RIGHT";"success";"368";"0";"2014-07-22 10:46:04.773";"2";;;;;;;;;;;;;;;;;;;;;;;;;;;;;;;;;
"pol181";"1993";;"Windows 8";"Rachel's Experiment (D.T.)";"1.0";"2";"1";"1";"2";"1";"1";"2014-07-22 10:39:29.366";"2014-07-22 10:54:18.517";"1";"0";"1";"107";"106";"module.training_block3.exec-2641.GoNoGo3";;;;;;;;;;;;;;;;;;;;;;;;;;;;;;;;;;;;;;;;;;;;;;;"1250";"2014-07-22 10:46:08.555";"NST_correctLoc";"26";"1";"FINISHED";"RIGHT";"success";"415";"0";"2014-07-22 10:46:07.305";"3";;;;;;;;;;;;;;;;;;;;;;;;;;;;;;;;;
"pol181";"1993";;"Windows 8";"Rachel's Experiment (D.T.)";"1.0";"2";"1";"1";"2";"1";"1";"2014-07-22 10:39:29.366";"2014-07-22 10:54:18.517";"1";"0";"1";"108";"107";"module.training_block3.exec-2641.GoNoGo3";;;;;;;;;;;;;;;;;;;;;;;;;;;;;;;;;;;;;;;;;;;;;;;"1250";"2014-07-22 10:46:11.089";"NST_correctLoc";"6";"1";"FINISHED";"RIGHT";"success";"323";"0";"2014-07-22 10:46:09.838";"1";;;;;;;;;;;;;;;;;;;;;;;;;;;;;;;;;
"pol181";"1993";;"Windows 8";"Rachel's Experiment (D.T.)";"1.0";"2";"1";"1";"2";"1";"1";"2014-07-22 10:39:29.366";"2014-07-22 10:54:18.517";"1";"0";"1";"109";"108";"module.training_block3.exec-2641.GoNoGo3";;;;;;;;;;;;;;;;;;;;;;;;;;;;;;;;;;;;;;;;;;;;;;;"1249";"2014-07-22 10:46:13.620";"NST_correctLoc";"25";"1";"FINISHED";"RIGHT";"success";"390";"0";"2014-07-22 10:46:12.370";"3";;;;;;;;;;;;;;;;;;;;;;;;;;;;;;;;;
"pol181";"1993";;"Windows 8";"Rachel's Experiment (D.T.)";"1.0";"2";"1";"1";"2";"1";"1";"2014-07-22 10:39:29.366";"2014-07-22 10:54:18.517";"1";"0";"1";"110";"109";"module.training_block3.exec-2641.GoNoGo3";;;;;;;;;;;;;;;;;;;;;;;;;;;;;;;;;;;;;;;;;;;;;;;"1250";"2014-07-22 10:46:16.153";"NST_correctLoc";"27";"0";"FINISHED";"LEFT";"success";"382";"0";"2014-07-22 10:46:14.903";"3";;;;;;;;;;;;;;;;;;;;;;;;;;;;;;;;;
"pol181";"1993";;"Windows 8";"Rachel's Experiment (D.T.)";"1.0";"2";"1";"1";"2";"1";"1";"2014-07-22 10:39:29.366";"2014-07-22 10:54:18.517";"1";"0";"1";"111";"110";"module.training_block3.exec-2641.GoNoGo3";;;;;;;;;;;;;;;;;;;;;;;;;;;;;;;;;;;;;;;;;;;;;;;"1249";"2014-07-22 10:46:18.686";"NST_correctLoc";"1";"0";"FINISHED";"LEFT";"success";"379";"0";"2014-07-22 10:46:17.436";"1";;;;;;;;;;;;;;;;;;;;;;;;;;;;;;;;;
"pol181";"1993";;"Windows 8";"Rachel's Experiment (D.T.)";"1.0";"2";"1";"1";"2";"1";"1";"2014-07-22 10:39:29.366";"2014-07-22 10:54:18.517";"1";"0";"1";"112";"111";"module.training_block3.exec-2641.GoNoGo3";;;;;;;;;;;;;;;;;;;;;;;;;;;;;;;;;;;;;;;;;;;;;;;"1249";"2014-07-22 10:46:21.218";"NST_correctLoc";"28";"1";"FINISHED";"RIGHT";"success";"406";"0";"2014-07-22 10:46:19.968";"3";;;;;;;;;;;;;;;;;;;;;;;;;;;;;;;;;
"pol181";"1993";;"Windows 8";"Rachel's Experiment (D.T.)";"1.0";"2";"1";"1";"2";"1";"1";"2014-07-22 10:39:29.366";"2014-07-22 10:54:18.517";"1";"0";"1";"113";"112";"module.training_block3.exec-2641.GoNoGo3";;;;;;;;;;;;;;;;;;;;;;;;;;;;;;;;;;;;;;;;;;;;;;;"1250";"2014-07-22 10:46:23.749";"NST_correctLoc";"24";"0";"FINISHED";"LEFT";"success";"331";"0";"2014-07-22 10:46:22.499";"3";;;;;;;;;;;;;;;;;;;;;;;;;;;;;;;;;
"pol181";"1993";;"Windows 8";"Rachel's Experiment (D.T.)";"1.0";"2";"1";"1";"2";"1";"1";"2014-07-22 10:39:29.366";"2014-07-22 10:54:18.517";"1";"0";"1";"114";"113";"module.training_block3.exec-2641.GoNoGo3";;;;;;;;;;;;;;;;;;;;;;;;;;;;;;;;;;;;;;;;;;;;;;;"1250";"2014-07-22 10:46:26.279";"NST_correctLoc";"20";"0";"FINISHED";"LEFT";"success";"340";"0";"2014-07-22 10:46:25.029";"3";;;;;;;;;;;;;;;;;;;;;;;;;;;;;;;;;
"pol181";"1993";;"Windows 8";"Rachel's Experiment (D.T.)";"1.0";"2";"1";"1";"2";"1";"1";"2014-07-22 10:39:29.366";"2014-07-22 10:54:18.517";"1";"0";"1";"115";"114";"module.training_block3.exec-2641.GoNoGo3";;;;;;;;;;;;;;;;;;;;;;;;;;;;;;;;;;;;;;;;;;;;;;;"1250";"2014-07-22 10:46:28.810";"NST_correctLoc";"34";"0";"FINISHED";"LEFT";"success";"337";"0";"2014-07-22 10:46:27.560";"3";;;;;;;;;;;;;;;;;;;;;;;;;;;;;;;;;
"pol181";"1993";;"Windows 8";"Rachel's Experiment (D.T.)";"1.0";"2";"1";"1";"2";"1";"1";"2014-07-22 10:39:29.366";"2014-07-22 10:54:18.517";"1";"0";"1";"116";"115";"module.training_block3.exec-2641.GoNoGo3";;;;;;;;;;;;;;;;;;;;;;;;;;;;;;;;;;;;;;;;;;;;;;;"1250";"2014-07-22 10:46:31.342";"NST_correctLoc";"31";"0";"FINISHED";"LEFT";"success";"356";"0";"2014-07-22 10:46:30.092";"3";;;;;;;;;;;;;;;;;;;;;;;;;;;;;;;;;
"pol181";"1993";;"Windows 8";"Rachel's Experiment (D.T.)";"1.0";"2";"1";"1";"2";"1";"1";"2014-07-22 10:39:29.366";"2014-07-22 10:54:18.517";"1";"0";"1";"117";"116";"module.training_block3.exec-2641.GoNoGo3";;;;;;;;;;;;;;;;;;;;;;;;;;;;;;;;;;;;;;;;;;;;;;;"1250";"2014-07-22 10:46:33.872";"NST_correctLoc";"5";"0";"FINISHED";"LEFT";"success";"322";"0";"2014-07-22 10:46:32.622";"1";;;;;;;;;;;;;;;;;;;;;;;;;;;;;;;;;
"pol181";"1993";;"Windows 8";"Rachel's Experiment (D.T.)";"1.0";"2";"1";"1";"2";"1";"1";"2014-07-22 10:39:29.366";"2014-07-22 10:54:18.517";"1";"0";"1";"118";"117";"module.training_block3.exec-2641.GoNoGo3";;;;;;;;;;;;;;;;;;;;;;;;;;;;;;;;;;;;;;;;;;;;;;;"1250";"2014-07-22 10:46:36.412";"NST_correctLoc";"17";"0";"FINISHED";"LEFT";"success";"431";"0";"2014-07-22 10:46:35.161";"2";;;;;;;;;;;;;;;;;;;;;;;;;;;;;;;;;
"pol181";"1993";;"Windows 8";"Rachel's Experiment (D.T.)";"1.0";"2";"1";"1";"2";"1";"1";"2014-07-22 10:39:29.366";"2014-07-22 10:54:18.517";"1";"0";"1";"119";"118";"module.training_block3.exec-2641.GoNoGo3";;;;;;;;;;;;;;;;;;;;;;;;;;;;;;;;;;;;;;;;;;;;;;;"1250";"2014-07-22 10:46:38.941";"NST_correctLoc";"12";"1";"FINISHED";"RIGHT";"success";"379";"0";"2014-07-22 10:46:37.691";"2";;;;;;;;;;;;;;;;;;;;;;;;;;;;;;;;;
"pol181";"1993";;"Windows 8";"Rachel's Experiment (D.T.)";"1.0";"2";"1";"1";"2";"1";"1";"2014-07-22 10:39:29.366";"2014-07-22 10:54:18.517";"1";"0";"1";"120";"119";"module.training_block3.exec-2641.GoNoGo3";;;;;;;;;;;;;;;;;;;;;;;;;;;;;;;;;;;;;;;;;;;;;;;"1249";"2014-07-22 10:46:41.472";"NST_correctLoc";"8";"0";"FINISHED";"LEFT";"success";"362";"0";"2014-07-22 10:46:40.222";"1";;;;;;;;;;;;;;;;;;;;;;;;;;;;;;;;;
"pol181";"1993";;"Windows 8";"Rachel's Experiment (D.T.)";"1.0";"2";"1";"1";"2";"1";"1";"2014-07-22 10:39:29.366";"2014-07-22 10:54:18.517";"1";"0";"1";"121";"120";"module.training_block3.exec-2641.GoNoGo3";;;;;;;;;;;;;;;;;;;;;;;;;;;;;;;;;;;;;;;;;;;;;;;"1249";"2014-07-22 10:46:44.004";"NST_correctLoc";"21";"1";"FINISHED";"RIGHT";"success";"496";"0";"2014-07-22 10:46:42.754";"3";;;;;;;;;;;;;;;;;;;;;;;;;;;;;;;;;
"pol181";"1993";;"Windows 8";"Rachel's Experiment (D.T.)";"1.0";"2";"1";"1";"2";"1";"1";"2014-07-22 10:39:29.366";"2014-07-22 10:54:18.517";"1";"0";"1";"122";"121";"module.training_block3.exec-2641.GoNoGo3";;;;;;;;;;;;;;;;;;;;;;;;;;;;;;;;;;;;;;;;;;;;;;;"1249";"2014-07-22 10:46:46.536";"NST_correctLoc";"19";"0";"FINISHED";"LEFT";"success";"337";"0";"2014-07-22 10:46:45.285";"3";;;;;;;;;;;;;;;;;;;;;;;;;;;;;;;;;
"pol181";"1993";;"Windows 8";"Rachel's Experiment (D.T.)";"1.0";"2";"1";"1";"2";"1";"1";"2014-07-22 10:39:29.366";"2014-07-22 10:54:18.517";"1";"0";"1";"123";"122";"module.training_block3.exec-2641.GoNoGo3";;;;;;;;;;;;;;;;;;;;;;;;;;;;;;;;;;;;;;;;;;;;;;;"1250";"2014-07-22 10:46:49.068";"NST_correctLoc";"33";"0";"FINISHED";"LEFT";"success";"396";"0";"2014-07-22 10:46:47.817";"3";;;;;;;;;;;;;;;;;;;;;;;;;;;;;;;;;
"pol181";"1993";;"Windows 8";"Rachel's Experiment (D.T.)";"1.0";"2";"1";"1";"2";"1";"1";"2014-07-22 10:39:29.366";"2014-07-22 10:54:18.517";"1";"0";"1";"124";"123";"module.training_block4.exec-9822.GoNoGo4";;;;;;;;;;;;;;;;;;;;;;;;;;;;;;;;;;;;;;;;;;;;;;;;;;;;;;;;;;;"1249";"2014-07-22 10:46:59.958";"NST_correctLoc";"24";"1";"FINISHED";"RIGHT";"success";"451";"0";"2014-07-22 10:46:58.708";"3";;;;;;;;;;;;;;;;;;;;;
"pol181";"1993";;"Windows 8";"Rachel's Experiment (D.T.)";"1.0";"2";"1";"1";"2";"1";"1";"2014-07-22 10:39:29.366";"2014-07-22 10:54:18.517";"1";"0";"1";"125";"124";"module.training_block4.exec-9822.GoNoGo4";;;;;;;;;;;;;;;;;;;;;;;;;;;;;;;;;;;;;;;;;;;;;;;;;;;;;;;;;;;"1250";"2014-07-22 10:47:02.489";"NST_correctLoc";"23";"1";"FINISHED";"RIGHT";"success";"494";"0";"2014-07-22 10:47:01.239";"3";;;;;;;;;;;;;;;;;;;;;
"pol181";"1993";;"Windows 8";"Rachel's Experiment (D.T.)";"1.0";"2";"1";"1";"2";"1";"1";"2014-07-22 10:39:29.366";"2014-07-22 10:54:18.517";"1";"0";"1";"126";"125";"module.training_block4.exec-9822.GoNoGo4";;;;;;;;;;;;;;;;;;;;;;;;;;;;;;;;;;;;;;;;;;;;;;;;;;;;;;;;;;;"1250";"2014-07-22 10:47:05.021";"NST_correctLoc";"35";"1";"FINISHED";"RIGHT";"success";"499";"0";"2014-07-22 10:47:03.771";"3";;;;;;;;;;;;;;;;;;;;;
"pol181";"1993";;"Windows 8";"Rachel's Experiment (D.T.)";"1.0";"2";"1";"1";"2";"1";"1";"2014-07-22 10:39:29.366";"2014-07-22 10:54:18.517";"1";"0";"1";"127";"126";"module.training_block4.exec-9822.GoNoGo4";;;;;;;;;;;;;;;;;;;;;;;;;;;;;;;;;;;;;;;;;;;;;;;;;;;;;;;;;;;"1250";"2014-07-22 10:47:07.552";"NST_correctLoc";"22";"1";"FINISHED";"RIGHT";"success";"453";"0";"2014-07-22 10:47:06.302";"3";;;;;;;;;;;;;;;;;;;;;
"pol181";"1993";;"Windows 8";"Rachel's Experiment (D.T.)";"1.0";"2";"1";"1";"2";"1";"1";"2014-07-22 10:39:29.366";"2014-07-22 10:54:18.517";"1";"0";"1";"128";"127";"module.training_block4.exec-9822.GoNoGo4";;;;;;;;;;;;;;;;;;;;;;;;;;;;;;;;;;;;;;;;;;;;;;;;;;;;;;;;;;;"1250";"2014-07-22 10:47:10.084";"NST_correctLoc";"29";"1";"FINISHED";"RIGHT";"success";"412";"0";"2014-07-22 10:47:08.833";"3";;;;;;;;;;;;;;;;;;;;;
"pol181";"1993";;"Windows 8";"Rachel's Experiment (D.T.)";"1.0";"2";"1";"1";"2";"1";"1";"2014-07-22 10:39:29.366";"2014-07-22 10:54:18.517";"1";"0";"1";"129";"128";"module.training_block4.exec-9822.GoNoGo4";;;;;;;;;;;;;;;;;;;;;;;;;;;;;;;;;;;;;;;;;;;;;;;;;;;;;;;;;;;"1250";"2014-07-22 10:47:12.614";"NST_correctLoc";"26";"1";"FINISHED";"RIGHT";"success";"469";"0";"2014-07-22 10:47:11.364";"3";;;;;;;;;;;;;;;;;;;;;
"pol181";"1993";;"Windows 8";"Rachel's Experiment (D.T.)";"1.0";"2";"1";"1";"2";"1";"1";"2014-07-22 10:39:29.366";"2014-07-22 10:54:18.517";"1";"0";"1";"130";"129";"module.training_block4.exec-9822.GoNoGo4";;;;;;;;;;;;;;;;;;;;;;;;;;;;;;;;;;;;;;;;;;;;;;;;;;;;;;;;;;;"1250";"2014-07-22 10:47:15.143";"NST_correctLoc";"18";"1";"FINISHED";"RIGHT";"success";"379";"0";"2014-07-22 10:47:13.893";"3";;;;;;;;;;;;;;;;;;;;;
"pol181";"1993";;"Windows 8";"Rachel's Experiment (D.T.)";"1.0";"2";"1";"1";"2";"1";"1";"2014-07-22 10:39:29.366";"2014-07-22 10:54:18.517";"1";"0";"1";"131";"130";"module.training_block4.exec-9822.GoNoGo4";;;;;;;;;;;;;;;;;;;;;;;;;;;;;;;;;;;;;;;;;;;;;;;;;;;;;;;;;;;"1250";"2014-07-22 10:47:17.673";"NST_correctLoc";"30";"1";"FINISHED";"RIGHT";"success";"361";"0";"2014-07-22 10:47:16.423";"3";;;;;;;;;;;;;;;;;;;;;
"pol181";"1993";;"Windows 8";"Rachel's Experiment (D.T.)";"1.0";"2";"1";"1";"2";"1";"1";"2014-07-22 10:39:29.366";"2014-07-22 10:54:18.517";"1";"0";"1";"132";"131";"module.training_block4.exec-9822.GoNoGo4";;;;;;;;;;;;;;;;;;;;;;;;;;;;;;;;;;;;;;;;;;;;;;;;;;;;;;;;;;;"1250";"2014-07-22 10:47:20.205";"NST_correctLoc";"13";"1";"FINISHED";"RIGHT";"success";"437";"0";"2014-07-22 10:47:18.954";"2";;;;;;;;;;;;;;;;;;;;;
"pol181";"1993";;"Windows 8";"Rachel's Experiment (D.T.)";"1.0";"2";"1";"1";"2";"1";"1";"2014-07-22 10:39:29.366";"2014-07-22 10:54:18.517";"1";"0";"1";"133";"132";"module.training_block4.exec-9822.GoNoGo4";;;;;;;;;;;;;;;;;;;;;;;;;;;;;;;;;;;;;;;;;;;;;;;;;;;;;;;;;;;"1250";"2014-07-22 10:47:22.735";"NST_correctLoc";"33";"1";"FINISHED";"RIGHT";"success";"560";"0";"2014-07-22 10:47:21.485";"3";;;;;;;;;;;;;;;;;;;;;
"pol181";"1993";;"Windows 8";"Rachel's Experiment (D.T.)";"1.0";"2";"1";"1";"2";"1";"1";"2014-07-22 10:39:29.366";"2014-07-22 10:54:18.517";"1";"0";"1";"134";"133";"module.training_block4.exec-9822.GoNoGo4";;;;;;;;;;;;;;;;;;;;;;;;;;;;;;;;;;;;;;;;;;;;;;;;;;;;;;;;;;;"1250";"2014-07-22 10:47:25.273";"NST_correctLoc";"11";"0";"FINISHED";"LEFT";"success";"389";"0";"2014-07-22 10:47:24.022";"2";;;;;;;;;;;;;;;;;;;;;
"pol181";"1993";;"Windows 8";"Rachel's Experiment (D.T.)";"1.0";"2";"1";"1";"2";"1";"1";"2014-07-22 10:39:29.366";"2014-07-22 10:54:18.517";"1";"0";"1";"135";"134";"module.training_block4.exec-9822.GoNoGo4";;;;;;;;;;;;;;;;;;;;;;;;;;;;;;;;;;;;;;;;;;;;;;;;;;;;;;;;;;;"1250";"2014-07-22 10:47:27.796";"NST_correctLoc";"1";"1";"FINISHED";"RIGHT";"success";"390";"0";"2014-07-22 10:47:26.546";"1";;;;;;;;;;;;;;;;;;;;;
"pol181";"1993";;"Windows 8";"Rachel's Experiment (D.T.)";"1.0";"2";"1";"1";"2";"1";"1";"2014-07-22 10:39:29.366";"2014-07-22 10:54:18.517";"1";"0";"1";"136";"135";"module.training_block4.exec-9822.GoNoGo4";;;;;;;;;;;;;;;;;;;;;;;;;;;;;;;;;;;;;;;;;;;;;;;;;;;;;;;;;;;"1249";"2014-07-22 10:47:30.328";"NST_correctLoc";"3";"1";"FINISHED";"RIGHT";"success";"481";"0";"2014-07-22 10:47:29.078";"1";;;;;;;;;;;;;;;;;;;;;
"pol181";"1993";;"Windows 8";"Rachel's Experiment (D.T.)";"1.0";"2";"1";"1";"2";"1";"1";"2014-07-22 10:39:29.366";"2014-07-22 10:54:18.517";"1";"0";"1";"137";"136";"module.training_block4.exec-9822.GoNoGo4";;;;;;;;;;;;;;;;;;;;;;;;;;;;;;;;;;;;;;;;;;;;;;;;;;;;;;;;;;;"1250";"2014-07-22 10:47:32.859";"NST_correctLoc";"12";"0";"FINISHED";"LEFT";"success";"325";"0";"2014-07-22 10:47:31.608";"2";;;;;;;;;;;;;;;;;;;;;
"pol181";"1993";;"Windows 8";"Rachel's Experiment (D.T.)";"1.0";"2";"1";"1";"2";"1";"1";"2014-07-22 10:39:29.366";"2014-07-22 10:54:18.517";"1";"0";"1";"138";"137";"module.training_block4.exec-9822.GoNoGo4";;;;;;;;;;;;;;;;;;;;;;;;;;;;;;;;;;;;;;;;;;;;;;;;;;;;;;;;;;;"1250";"2014-07-22 10:47:35.387";"NST_correctLoc";"8";"1";"FINISHED";"RIGHT";"success";"332";"0";"2014-07-22 10:47:34.136";"1";;;;;;;;;;;;;;;;;;;;;
"pol181";"1993";;"Windows 8";"Rachel's Experiment (D.T.)";"1.0";"2";"1";"1";"2";"1";"1";"2014-07-22 10:39:29.366";"2014-07-22 10:54:18.517";"1";"0";"1";"139";"138";"module.training_block4.exec-9822.GoNoGo4";;;;;;;;;;;;;;;;;;;;;;;;;;;;;;;;;;;;;;;;;;;;;;;;;;;;;;;;;;;"1250";"2014-07-22 10:47:37.918";"NST_correctLoc";"15";"0";"FINISHED";"LEFT";"success";"301";"0";"2014-07-22 10:47:36.668";"2";;;;;;;;;;;;;;;;;;;;;
"pol181";"1993";;"Windows 8";"Rachel's Experiment (D.T.)";"1.0";"2";"1";"1";"2";"1";"1";"2014-07-22 10:39:29.366";"2014-07-22 10:54:18.517";"1";"0";"1";"140";"139";"module.training_block4.exec-9822.GoNoGo4";;;;;;;;;;;;;;;;;;;;;;;;;;;;;;;;;;;;;;;;;;;;;;;;;;;;;;;;;;;"1250";"2014-07-22 10:47:40.448";"NST_correctLoc";"2";"1";"FINISHED";"RIGHT";"success";"323";"0";"2014-07-22 10:47:39.198";"1";;;;;;;;;;;;;;;;;;;;;
"pol181";"1993";;"Windows 8";"Rachel's Experiment (D.T.)";"1.0";"2";"1";"1";"2";"1";"1";"2014-07-22 10:39:29.366";"2014-07-22 10:54:18.517";"1";"0";"1";"141";"140";"module.training_block4.exec-9822.GoNoGo4";;;;;;;;;;;;;;;;;;;;;;;;;;;;;;;;;;;;;;;;;;;;;;;;;;;;;;;;;;;"1250";"2014-07-22 10:47:42.977";"NST_correctLoc";"14";"0";"FINISHED";"LEFT";"success";"323";"0";"2014-07-22 10:47:41.727";"2";;;;;;;;;;;;;;;;;;;;;
"pol181";"1993";;"Windows 8";"Rachel's Experiment (D.T.)";"1.0";"2";"1";"1";"2";"1";"1";"2014-07-22 10:39:29.366";"2014-07-22 10:54:18.517";"1";"0";"1";"142";"141";"module.training_block4.exec-9822.GoNoGo4";;;;;;;;;;;;;;;;;;;;;;;;;;;;;;;;;;;;;;;;;;;;;;;;;;;;;;;;;;;"1251";"2014-07-22 10:47:45.510";"NST_correctLoc";"27";"1";"FINISHED";"RIGHT";"success";"425";"0";"2014-07-22 10:47:44.259";"3";;;;;;;;;;;;;;;;;;;;;
"pol181";"1993";;"Windows 8";"Rachel's Experiment (D.T.)";"1.0";"2";"1";"1";"2";"1";"1";"2014-07-22 10:39:29.366";"2014-07-22 10:54:18.517";"1";"0";"1";"143";"142";"module.training_block4.exec-9822.GoNoGo4";;;;;;;;;;;;;;;;;;;;;;;;;;;;;;;;;;;;;;;;;;;;;;;;;;;;;;;;;;;"1250";"2014-07-22 10:47:48.040";"NST_correctLoc";"21";"0";"FINISHED";"LEFT";"success";"537";"0";"2014-07-22 10:47:46.790";"3";;;;;;;;;;;;;;;;;;;;;
"pol181";"1993";;"Windows 8";"Rachel's Experiment (D.T.)";"1.0";"2";"1";"1";"2";"1";"1";"2014-07-22 10:39:29.366";"2014-07-22 10:54:18.517";"1";"0";"1";"144";"143";"module.training_block4.exec-9822.GoNoGo4";;;;;;;;;;;;;;;;;;;;;;;;;;;;;;;;;;;;;;;;;;;;;;;;;;;;;;;;;;;"1250";"2014-07-22 10:47:50.570";"NST_correctLoc";"31";"1";"FINISHED";"RIGHT";"success";"329";"0";"2014-07-22 10:47:49.320";"3";;;;;;;;;;;;;;;;;;;;;
"pol181";"1993";;"Windows 8";"Rachel's Experiment (D.T.)";"1.0";"2";"1";"1";"2";"1";"1";"2014-07-22 10:39:29.366";"2014-07-22 10:54:18.517";"1";"0";"1";"145";"144";"module.training_block4.exec-9822.GoNoGo4";;;;;;;;;;;;;;;;;;;;;;;;;;;;;;;;;;;;;;;;;;;;;;;;;;;;;;;;;;;"1249";"2014-07-22 10:47:53.098";"NST_correctLoc";"5";"0";"FINISHED";"LEFT";"success";"382";"0";"2014-07-22 10:47:51.848";"1";;;;;;;;;;;;;;;;;;;;;
"pol181";"1993";;"Windows 8";"Rachel's Experiment (D.T.)";"1.0";"2";"1";"1";"2";"1";"1";"2014-07-22 10:39:29.366";"2014-07-22 10:54:18.517";"1";"0";"1";"146";"145";"module.training_block4.exec-9822.GoNoGo4";;;;;;;;;;;;;;;;;;;;;;;;;;;;;;;;;;;;;;;;;;;;;;;;;;;;;;;;;;;"1250";"2014-07-22 10:47:55.625";"NST_correctLoc";"0";"0";"FINISHED";"LEFT";"success";"362";"0";"2014-07-22 10:47:54.375";"1";;;;;;;;;;;;;;;;;;;;;
"pol181";"1993";;"Windows 8";"Rachel's Experiment (D.T.)";"1.0";"2";"1";"1";"2";"1";"1";"2014-07-22 10:39:29.366";"2014-07-22 10:54:18.517";"1";"0";"1";"147";"146";"module.training_block4.exec-9822.GoNoGo4";;;;;;;;;;;;;;;;;;;;;;;;;;;;;;;;;;;;;;;;;;;;;;;;;;;;;;;;;;;"1250";"2014-07-22 10:47:58.154";"NST_correctLoc";"9";"1";"FINISHED";"RIGHT";"success";"385";"0";"2014-07-22 10:47:56.904";"2";;;;;;;;;;;;;;;;;;;;;
"pol181";"1993";;"Windows 8";"Rachel's Experiment (D.T.)";"1.0";"2";"1";"1";"2";"1";"1";"2014-07-22 10:39:29.366";"2014-07-22 10:54:18.517";"1";"0";"1";"148";"147";"module.training_block4.exec-9822.GoNoGo4";;;;;;;;;;;;;;;;;;;;;;;;;;;;;;;;;;;;;;;;;;;;;;;;;;;;;;;;;;;"1249";"2014-07-22 10:48:00.684";"NST_correctLoc";"17";"1";"FINISHED";"RIGHT";"success";"394";"0";"2014-07-22 10:47:59.434";"2";;;;;;;;;;;;;;;;;;;;;
"pol181";"1993";;"Windows 8";"Rachel's Experiment (D.T.)";"1.0";"2";"1";"1";"2";"1";"1";"2014-07-22 10:39:29.366";"2014-07-22 10:54:18.517";"1";"0";"1";"149";"148";"module.training_block4.exec-9822.GoNoGo4";;;;;;;;;;;;;;;;;;;;;;;;;;;;;;;;;;;;;;;;;;;;;;;;;;;;;;;;;;;"1249";"2014-07-22 10:48:03.211";"NST_correctLoc";"32";"1";"FINISHED";"RIGHT";"success";"340";"0";"2014-07-22 10:48:01.961";"3";;;;;;;;;;;;;;;;;;;;;
"pol181";"1993";;"Windows 8";"Rachel's Experiment (D.T.)";"1.0";"2";"1";"1";"2";"1";"1";"2014-07-22 10:39:29.366";"2014-07-22 10:54:18.517";"1";"0";"1";"150";"149";"module.training_block4.exec-9822.GoNoGo4";;;;;;;;;;;;;;;;;;;;;;;;;;;;;;;;;;;;;;;;;;;;;;;;;;;;;;;;;;;"1249";"2014-07-22 10:48:05.740";"NST_correctLoc";"28";"1";"FINISHED";"RIGHT";"success";"481";"0";"2014-07-22 10:48:04.489";"3";;;;;;;;;;;;;;;;;;;;;
"pol181";"1993";;"Windows 8";"Rachel's Experiment (D.T.)";"1.0";"2";"1";"1";"2";"1";"1";"2014-07-22 10:39:29.366";"2014-07-22 10:54:18.517";"1";"0";"1";"151";"150";"module.training_block4.exec-9822.GoNoGo4";;;;;;;;;;;;;;;;;;;;;;;;;;;;;;;;;;;;;;;;;;;;;;;;;;;;;;;;;;;"1250";"2014-07-22 10:48:08.277";"NST_correctLoc";"20";"0";"FINISHED";"LEFT";"success";"402";"0";"2014-07-22 10:48:07.027";"3";;;;;;;;;;;;;;;;;;;;;
"pol181";"1993";;"Windows 8";"Rachel's Experiment (D.T.)";"1.0";"2";"1";"1";"2";"1";"1";"2014-07-22 10:39:29.366";"2014-07-22 10:54:18.517";"1";"0";"1";"152";"151";"module.training_block4.exec-9822.GoNoGo4";;;;;;;;;;;;;;;;;;;;;;;;;;;;;;;;;;;;;;;;;;;;;;;;;;;;;;;;;;;"1250";"2014-07-22 10:48:10.803";"NST_correctLoc";"10";"0";"FINISHED";"LEFT";"success";"346";"0";"2014-07-22 10:48:09.553";"2";;;;;;;;;;;;;;;;;;;;;
"pol181";"1993";;"Windows 8";"Rachel's Experiment (D.T.)";"1.0";"2";"1";"1";"2";"1";"1";"2014-07-22 10:39:29.366";"2014-07-22 10:54:18.517";"1";"0";"1";"153";"152";"module.training_block4.exec-9822.GoNoGo4";;;;;;;;;;;;;;;;;;;;;;;;;;;;;;;;;;;;;;;;;;;;;;;;;;;;;;;;;;;"1249";"2014-07-22 10:48:13.332";"NST_correctLoc";"6";"1";"FINISHED";"RIGHT";"success";"338";"0";"2014-07-22 10:48:12.082";"1";;;;;;;;;;;;;;;;;;;;;
"pol181";"1993";;"Windows 8";"Rachel's Experiment (D.T.)";"1.0";"2";"1";"1";"2";"1";"1";"2014-07-22 10:39:29.366";"2014-07-22 10:54:18.517";"1";"0";"1";"154";"153";"module.training_block4.exec-9822.GoNoGo4";;;;;;;;;;;;;;;;;;;;;;;;;;;;;;;;;;;;;;;;;;;;;;;;;;;;;;;;;;;"1250";"2014-07-22 10:48:15.861";"NST_correctLoc";"4";"0";"FINISHED";"LEFT";"success";"312";"0";"2014-07-22 10:48:14.611";"1";;;;;;;;;;;;;;;;;;;;;
"pol181";"1993";;"Windows 8";"Rachel's Experiment (D.T.)";"1.0";"2";"1";"1";"2";"1";"1";"2014-07-22 10:39:29.366";"2014-07-22 10:54:18.517";"1";"0";"1";"155";"154";"module.training_block4.exec-9822.GoNoGo4";;;;;;;;;;;;;;;;;;;;;;;;;;;;;;;;;;;;;;;;;;;;;;;;;;;;;;;;;;;"1249";"2014-07-22 10:48:18.390";"NST_correctLoc";"16";"0";"FINISHED";"LEFT";"success";"363";"0";"2014-07-22 10:48:17.139";"2";;;;;;;;;;;;;;;;;;;;;
"pol181";"1993";;"Windows 8";"Rachel's Experiment (D.T.)";"1.0";"2";"1";"1";"2";"1";"1";"2014-07-22 10:39:29.366";"2014-07-22 10:54:18.517";"1";"0";"1";"156";"155";"module.training_block4.exec-9822.GoNoGo4";;;;;;;;;;;;;;;;;;;;;;;;;;;;;;;;;;;;;;;;;;;;;;;;;;;;;;;;;;;"1251";"2014-07-22 10:48:20.921";"NST_correctLoc";"34";"0";"FINISHED";"LEFT";"success";"339";"0";"2014-07-22 10:48:19.670";"3";;;;;;;;;;;;;;;;;;;;;
"pol181";"1993";;"Windows 8";"Rachel's Experiment (D.T.)";"1.0";"2";"1";"1";"2";"1";"1";"2014-07-22 10:39:29.366";"2014-07-22 10:54:18.517";"1";"0";"1";"157";"156";"module.training_block4.exec-9822.GoNoGo4";;;;;;;;;;;;;;;;;;;;;;;;;;;;;;;;;;;;;;;;;;;;;;;;;;;;;;;;;;;"1250";"2014-07-22 10:48:23.450";"NST_correctLoc";"19";"0";"FINISHED";"LEFT";"success";"283";"0";"2014-07-22 10:48:22.200";"3";;;;;;;;;;;;;;;;;;;;;
"pol181";"1993";;"Windows 8";"Rachel's Experiment (D.T.)";"1.0";"2";"1";"1";"2";"1";"1";"2014-07-22 10:39:29.366";"2014-07-22 10:54:18.517";"1";"0";"1";"158";"157";"module.training_block4.exec-9822.GoNoGo4";;;;;;;;;;;;;;;;;;;;;;;;;;;;;;;;;;;;;;;;;;;;;;;;;;;;;;;;;;;"1249";"2014-07-22 10:48:25.978";"NST_correctLoc";"25";"1";"FINISHED";"RIGHT";"success";"366";"0";"2014-07-22 10:48:24.728";"3";;;;;;;;;;;;;;;;;;;;;
"pol181";"1993";;"Windows 8";"Rachel's Experiment (D.T.)";"1.0";"2";"1";"1";"2";"1";"1";"2014-07-22 10:39:29.366";"2014-07-22 10:54:18.517";"1";"0";"1";"159";"158";"module.training_block4.exec-9822.GoNoGo4";;;;;;;;;;;;;;;;;;;;;;;;;;;;;;;;;;;;;;;;;;;;;;;;;;;;;;;;;;;"1250";"2014-07-22 10:48:28.507";"NST_correctLoc";"7";"0";"FINISHED";"LEFT";"success";"373";"0";"2014-07-22 10:48:27.257";"1";;;;;;;;;;;;;;;;;;;;;
"pol181";"1993";;"Windows 8";"Rachel's Experiment (D.T.)";"1.0";"2";"1";"1";"2";"1";"1";"2014-07-22 10:39:29.366";"2014-07-22 10:54:18.517";"1";"0";"1";"160";"159";"module.devaluation_practice.exec-1297.devalPractice";;;;;;;;;;;;"26495";"2014-07-22 10:49:17.325";"0";"7";"5";"6";"10030";"4892";"8499";"2014-07-22 10:48:50.830";;;;;;;;;;;;;;;;;;;;;;;;;;;;;;;;;;;;;;;;;;;;;;;;;;;;;;;;;;;;;;;;;;;;;;
"pol181";"1993";;"Windows 8";"Rachel's Experiment (D.T.)";"1.0";"2";"1";"1";"2";"1";"1";"2014-07-22 10:39:29.366";"2014-07-22 10:54:18.517";"1";"0";"1";"161";"160";"module.devaluation_practice.exec-1297.devalPractice";;;;;;;;;;;;"11350";"2014-07-22 10:49:28.699";"1";"3";"4";"5";"2433";"2547";"3346";"2014-07-22 10:49:17.348";;;;;;;;;;;;;;;;;;;;;;;;;;;;;;;;;;;;;;;;;;;;;;;;;;;;;;;;;;;;;;;;;;;;;;
"pol181";"1993";;"Windows 8";"Rachel's Experiment (D.T.)";"1.0";"2";"1";"1";"2";"1";"1";"2014-07-22 10:39:29.366";"2014-07-22 10:54:18.517";"1";"0";"1";"162";"161";"module.devaluation_practice.exec-1297.devalPractice";;;;;;;;;;;;"13871";"2014-07-22 10:49:42.587";"2";"2";"7";"8";"3088";"2741";"4989";"2014-07-22 10:49:28.715";;;;;;;;;;;;;;;;;;;;;;;;;;;;;;;;;;;;;;;;;;;;;;;;;;;;;;;;;;;;;;;;;;;;;;
"pol181";"1993";;"Windows 8";"Rachel's Experiment (D.T.)";"1.0";"2";"1";"1";"2";"1";"1";"2014-07-22 10:39:29.366";"2014-07-22 10:54:18.517";"1";"0";"1";"163";"162";"module.devaluation_practice.exec-1297.devalPractice";;;;;;;;;;;;"11379";"2014-07-22 10:49:53.985";"3";"2";"4";"4";"1827";"2146";"4368";"2014-07-22 10:49:42.605";;;;;;;;;;;;;;;;;;;;;;;;;;;;;;;;;;;;;;;;;;;;;;;;;;;;;;;;;;;;;;;;;;;;;;
"pol181";"1993";;"Windows 8";"Rachel's Experiment (D.T.)";"1.0";"2";"1";"1";"2";"1";"1";"2014-07-22 10:39:29.366";"2014-07-22 10:54:18.517";"1";"0";"1";"164";"163";"module.devaluation_block1.exec-8590.deval1";"14070";"2014-07-22 10:50:14.233";"8";"8";"7";"7";"4215";"3049";"3769";"2014-07-22 10:50:00.162";"1";;;;;;;;;;;;;;;;;;;;;;;;;;;;;;;;;;;;;;;;;;;;;;;;;;;;;;;;;;;;;;;;;;;;;;;;;;;;;;;;
"pol181";"1993";;"Windows 8";"Rachel's Experiment (D.T.)";"1.0";"2";"1";"1";"2";"1";"1";"2014-07-22 10:39:29.366";"2014-07-22 10:54:18.517";"1";"0";"1";"165";"164";"module.devaluation_block1.exec-8590.deval1";"11056";"2014-07-22 10:50:25.306";"16";"3";"8";"6";"3273";"2566";"2185";"2014-07-22 10:50:14.250";"2";;;;;;;;;;;;;;;;;;;;;;;;;;;;;;;;;;;;;;;;;;;;;;;;;;;;;;;;;;;;;;;;;;;;;;;;;;;;;;;;
"pol181";"1993";;"Windows 8";"Rachel's Experiment (D.T.)";"1.0";"2";"1";"1";"2";"1";"1";"2014-07-22 10:39:29.366";"2014-07-22 10:54:18.517";"1";"0";"1";"166";"165";"module.devaluation_block1.exec-8590.deval1";"10182";"2014-07-22 10:50:35.503";"7";"7";"7";"6";"4197";"1478";"1478";"2014-07-22 10:50:25.320";"1";;;;;;;;;;;;;;;;;;;;;;;;;;;;;;;;;;;;;;;;;;;;;;;;;;;;;;;;;;;;;;;;;;;;;;;;;;;;;;;;
"pol181";"1993";;"Windows 8";"Rachel's Experiment (D.T.)";"1.0";"2";"1";"1";"2";"1";"1";"2014-07-22 10:39:29.366";"2014-07-22 10:54:18.517";"1";"0";"1";"167";"166";"module.devaluation_block1.exec-8590.deval1";"7837";"2014-07-22 10:50:43.356";"18";"9";"8";"8";"1571";"1365";"1869";"2014-07-22 10:50:35.518";"3";;;;;;;;;;;;;;;;;;;;;;;;;;;;;;;;;;;;;;;;;;;;;;;;;;;;;;;;;;;;;;;;;;;;;;;;;;;;;;;;
"pol181";"1993";;"Windows 8";"Rachel's Experiment (D.T.)";"1.0";"2";"1";"1";"2";"1";"1";"2014-07-22 10:39:29.366";"2014-07-22 10:54:18.517";"1";"0";"1";"168";"167";"module.devaluation_block1.exec-8590.deval1";"9373";"2014-07-22 10:50:52.744";"24";"8";"9";"9";"3282";"1566";"1496";"2014-07-22 10:50:43.370";"3";;;;;;;;;;;;;;;;;;;;;;;;;;;;;;;;;;;;;;;;;;;;;;;;;;;;;;;;;;;;;;;;;;;;;;;;;;;;;;;;
"pol181";"1993";;"Windows 8";"Rachel's Experiment (D.T.)";"1.0";"2";"1";"1";"2";"1";"1";"2014-07-22 10:39:29.366";"2014-07-22 10:54:18.517";"1";"0";"1";"169";"168";"module.devaluation_block1.exec-8590.deval1";"8268";"2014-07-22 10:51:01.027";"20";"4";"1";"3";"949";"3002";"1285";"2014-07-22 10:50:52.759";"3";;;;;;;;;;;;;;;;;;;;;;;;;;;;;;;;;;;;;;;;;;;;;;;;;;;;;;;;;;;;;;;;;;;;;;;;;;;;;;;;
"pol181";"1993";;"Windows 8";"Rachel's Experiment (D.T.)";"1.0";"2";"1";"1";"2";"1";"1";"2014-07-22 10:39:29.366";"2014-07-22 10:54:18.517";"1";"0";"1";"170";"169";"module.devaluation_block1.exec-8590.deval1";"8816";"2014-07-22 10:51:09.858";"0";"4";"7";"6";"2774";"1352";"1667";"2014-07-22 10:51:01.042";"1";;;;;;;;;;;;;;;;;;;;;;;;;;;;;;;;;;;;;;;;;;;;;;;;;;;;;;;;;;;;;;;;;;;;;;;;;;;;;;;;
"pol181";"1993";;"Windows 8";"Rachel's Experiment (D.T.)";"1.0";"2";"1";"1";"2";"1";"1";"2014-07-22 10:39:29.366";"2014-07-22 10:54:18.517";"1";"0";"1";"171";"170";"module.devaluation_block1.exec-8590.deval1";"8998";"2014-07-22 10:51:18.872";"2";"7";"7";"7";"1376";"3105";"1488";"2014-07-22 10:51:09.874";"1";;;;;;;;;;;;;;;;;;;;;;;;;;;;;;;;;;;;;;;;;;;;;;;;;;;;;;;;;;;;;;;;;;;;;;;;;;;;;;;;
"pol181";"1993";;"Windows 8";"Rachel's Experiment (D.T.)";"1.0";"2";"1";"1";"2";"1";"1";"2014-07-22 10:39:29.366";"2014-07-22 10:54:18.517";"1";"0";"1";"172";"171";"module.devaluation_block1.exec-8590.deval1";"9836";"2014-07-22 10:51:28.724";"9";"8";"3";"4";"2296";"2071";"2436";"2014-07-22 10:51:18.887";"2";;;;;;;;;;;;;;;;;;;;;;;;;;;;;;;;;;;;;;;;;;;;;;;;;;;;;;;;;;;;;;;;;;;;;;;;;;;;;;;;
"pol181";"1993";;"Windows 8";"Rachel's Experiment (D.T.)";"1.0";"2";"1";"1";"2";"1";"1";"2014-07-22 10:39:29.366";"2014-07-22 10:54:18.517";"1";"0";"1";"173";"172";"module.devaluation_block1.exec-8590.deval1";"10886";"2014-07-22 10:51:39.626";"23";"6";"7";"7";"4294";"1476";"2087";"2014-07-22 10:51:28.739";"3";;;;;;;;;;;;;;;;;;;;;;;;;;;;;;;;;;;;;;;;;;;;;;;;;;;;;;;;;;;;;;;;;;;;;;;;;;;;;;;;
"pol181";"1993";;"Windows 8";"Rachel's Experiment (D.T.)";"1.0";"2";"1";"1";"2";"1";"1";"2014-07-22 10:39:29.366";"2014-07-22 10:54:18.517";"1";"0";"1";"174";"173";"module.devaluation_block1.exec-8590.deval1";"6632";"2014-07-22 10:51:46.274";"19";"9";"9";"9";"1460";"1012";"1131";"2014-07-22 10:51:39.641";"3";;;;;;;;;;;;;;;;;;;;;;;;;;;;;;;;;;;;;;;;;;;;;;;;;;;;;;;;;;;;;;;;;;;;;;;;;;;;;;;;
"pol181";"1993";;"Windows 8";"Rachel's Experiment (D.T.)";"1.0";"2";"1";"1";"2";"1";"1";"2014-07-22 10:39:29.366";"2014-07-22 10:54:18.517";"1";"0";"1";"175";"174";"module.devaluation_block1.exec-8590.deval1";"6601";"2014-07-22 10:51:52.890";"14";"7";"3";"7";"1089";"878";"1603";"2014-07-22 10:51:46.288";"2";;;;;;;;;;;;;;;;;;;;;;;;;;;;;;;;;;;;;;;;;;;;;;;;;;;;;;;;;;;;;;;;;;;;;;;;;;;;;;;;
"pol181";"1993";;"Windows 8";"Rachel's Experiment (D.T.)";"1.0";"2";"1";"1";"2";"1";"1";"2014-07-22 10:39:29.366";"2014-07-22 10:54:18.517";"1";"0";"1";"176";"175";"module.devaluation_block1.exec-8590.deval1";"7517";"2014-07-22 10:52:00.423";"15";"2";"4";"6";"1285";"1663";"1540";"2014-07-22 10:51:52.904";"2";;;;;;;;;;;;;;;;;;;;;;;;;;;;;;;;;;;;;;;;;;;;;;;;;;;;;;;;;;;;;;;;;;;;;;;;;;;;;;;;
"pol181";"1993";;"Windows 8";"Rachel's Experiment (D.T.)";"1.0";"2";"1";"1";"2";"1";"1";"2014-07-22 10:39:29.366";"2014-07-22 10:54:18.517";"1";"0";"1";"177";"176";"module.devaluation_block1.exec-8590.deval1";"11375";"2014-07-22 10:52:11.814";"6";"3";"4";"6";"1707";"4048";"2591";"2014-07-22 10:52:00.439";"1";;;;;;;;;;;;;;;;;;;;;;;;;;;;;;;;;;;;;;;;;;;;;;;;;;;;;;;;;;;;;;;;;;;;;;;;;;;;;;;;
"pol181";"1993";;"Windows 8";"Rachel's Experiment (D.T.)";"1.0";"2";"1";"1";"2";"1";"1";"2014-07-22 10:39:29.366";"2014-07-22 10:54:18.517";"1";"0";"1";"178";"177";"module.devaluation_block1.exec-8590.deval1";"6545";"2014-07-22 10:52:18.375";"13";"7";"3";"6";"959";"910";"1649";"2014-07-22 10:52:11.829";"2";;;;;;;;;;;;;;;;;;;;;;;;;;;;;;;;;;;;;;;;;;;;;;;;;;;;;;;;;;;;;;;;;;;;;;;;;;;;;;;;
"pol181";"1993";;"Windows 8";"Rachel's Experiment (D.T.)";"1.0";"2";"1";"1";"2";"1";"1";"2014-07-22 10:39:29.366";"2014-07-22 10:54:18.517";"1";"0";"1";"179";"178";"module.devaluation_block1.exec-8590.deval1";"10179";"2014-07-22 10:52:28.572";"17";"3";"3";"3";"2240";"2204";"2705";"2014-07-22 10:52:18.391";"2";;;;;;;;;;;;;;;;;;;;;;;;;;;;;;;;;;;;;;;;;;;;;;;;;;;;;;;;;;;;;;;;;;;;;;;;;;;;;;;;
"pol181";"1993";;"Windows 8";"Rachel's Experiment (D.T.)";"1.0";"2";"1";"1";"2";"1";"1";"2014-07-22 10:39:29.366";"2014-07-22 10:54:18.517";"1";"0";"1";"180";"179";"module.devaluation_block1.exec-8590.deval1";"9796";"2014-07-22 10:52:38.385";"1";"6";"5";"8";"4471";"1075";"1222";"2014-07-22 10:52:28.588";"1";;;;;;;;;;;;;;;;;;;;;;;;;;;;;;;;;;;;;;;;;;;;;;;;;;;;;;;;;;;;;;;;;;;;;;;;;;;;;;;;
"pol181";"1993";;"Windows 8";"Rachel's Experiment (D.T.)";"1.0";"2";"1";"1";"2";"1";"1";"2014-07-22 10:39:29.366";"2014-07-22 10:54:18.517";"1";"0";"1";"181";"180";"module.devaluation_block1.exec-8590.deval1";"9357";"2014-07-22 10:52:47.764";"3";"3";"7";"9";"2721";"2465";"1143";"2014-07-22 10:52:38.406";"1";;;;;;;;;;;;;;;;;;;;;;;;;;;;;;;;;;;;;;;;;;;;;;;;;;;;;;;;;;;;;;;;;;;;;;;;;;;;;;;;
"pol181";"1993";;"Windows 8";"Rachel's Experiment (D.T.)";"1.0";"2";"1";"1";"2";"1";"1";"2014-07-22 10:39:29.366";"2014-07-22 10:54:18.517";"1";"0";"1";"182";"181";"module.devaluation_block1.exec-8590.deval1";"7295";"2014-07-22 10:52:55.073";"11";"7";"5";"6";"963";"1156";"2148";"2014-07-22 10:52:47.778";"2";;;;;;;;;;;;;;;;;;;;;;;;;;;;;;;;;;;;;;;;;;;;;;;;;;;;;;;;;;;;;;;;;;;;;;;;;;;;;;;;
"pol181";"1993";;"Windows 8";"Rachel's Experiment (D.T.)";"1.0";"2";"1";"1";"2";"1";"1";"2014-07-22 10:39:29.366";"2014-07-22 10:54:18.517";"1";"0";"1";"183";"182";"module.devaluation_block1.exec-8590.deval1";"10687";"2014-07-22 10:53:05.778";"4";"6";"6";"4";"4374";"1838";"1446";"2014-07-22 10:52:55.090";"1";;;;;;;;;;;;;;;;;;;;;;;;;;;;;;;;;;;;;;;;;;;;;;;;;;;;;;;;;;;;;;;;;;;;;;;;;;;;;;;;
"pol181";"1993";;"Windows 8";"Rachel's Experiment (D.T.)";"1.0";"2";"1";"1";"2";"1";"1";"2014-07-22 10:39:29.366";"2014-07-22 10:54:18.517";"1";"0";"1";"184";"183";"module.devaluation_block1.exec-8590.deval1";"7699";"2014-07-22 10:53:13.493";"26";"8";"6";"7";"1252";"1896";"1523";"2014-07-22 10:53:05.793";"3";;;;;;;;;;;;;;;;;;;;;;;;;;;;;;;;;;;;;;;;;;;;;;;;;;;;;;;;;;;;;;;;;;;;;;;;;;;;;;;;
"pol181";"1993";;"Windows 8";"Rachel's Experiment (D.T.)";"1.0";"2";"1";"1";"2";"1";"1";"2014-07-22 10:39:29.366";"2014-07-22 10:54:18.517";"1";"0";"1";"185";"184";"module.devaluation_block1.exec-8590.deval1";"9134";"2014-07-22 10:53:22.644";"10";"8";"4";"5";"1350";"2878";"1879";"2014-07-22 10:53:13.509";"2";;;;;;;;;;;;;;;;;;;;;;;;;;;;;;;;;;;;;;;;;;;;;;;;;;;;;;;;;;;;;;;;;;;;;;;;;;;;;;;;
"pol181";"1993";;"Windows 8";"Rachel's Experiment (D.T.)";"1.0";"2";"1";"1";"2";"1";"1";"2014-07-22 10:39:29.366";"2014-07-22 10:54:18.517";"1";"0";"1";"186";"185";"module.devaluation_block1.exec-8590.deval1";"11342";"2014-07-22 10:53:34.002";"12";"4";"5";"5";"3574";"1267";"3473";"2014-07-22 10:53:22.659";"2";;;;;;;;;;;;;;;;;;;;;;;;;;;;;;;;;;;;;;;;;;;;;;;;;;;;;;;;;;;;;;;;;;;;;;;;;;;;;;;;
"pol181";"1993";;"Windows 8";"Rachel's Experiment (D.T.)";"1.0";"2";"1";"1";"2";"1";"1";"2014-07-22 10:39:29.366";"2014-07-22 10:54:18.517";"1";"0";"1";"187";"186";"module.devaluation_block1.exec-8590.deval1";"10933";"2014-07-22 10:53:44.951";"25";"6";"7";"7";"2851";"3142";"1912";"2014-07-22 10:53:34.017";"3";;;;;;;;;;;;;;;;;;;;;;;;;;;;;;;;;;;;;;;;;;;;;;;;;;;;;;;;;;;;;;;;;;;;;;;;;;;;;;;;
"pol181";"1993";;"Windows 8";"Rachel's Experiment (D.T.)";"1.0";"2";"1";"1";"2";"1";"1";"2014-07-22 10:39:29.366";"2014-07-22 10:54:18.517";"1";"0";"1";"188";"187";"module.devaluation_block1.exec-8590.deval1";"10788";"2014-07-22 10:53:55.754";"5";"6";"8";"8";"5387";"957";"1417";"2014-07-22 10:53:44.965";"1";;;;;;;;;;;;;;;;;;;;;;;;;;;;;;;;;;;;;;;;;;;;;;;;;;;;;;;;;;;;;;;;;;;;;;;;;;;;;;;;
"pol181";"1993";;"Windows 8";"Rachel's Experiment (D.T.)";"1.0";"2";"1";"1";"2";"1";"1";"2014-07-22 10:39:29.366";"2014-07-22 10:54:18.517";"1";"0";"1";"189";"188";"module.devaluation_block1.exec-8590.deval1";"9741";"2014-07-22 10:54:05.519";"21";"3";"8";"8";"2849";"1846";"2019";"2014-07-22 10:53:55.777";"3";;;;;;;;;;;;;;;;;;;;;;;;;;;;;;;;;;;;;;;;;;;;;;;;;;;;;;;;;;;;;;;;;;;;;;;;;;;;;;;;
"pol181";"1993";;"Windows 8";"Rachel's Experiment (D.T.)";"1.0";"2";"1";"1";"2";"1";"1";"2014-07-22 10:39:29.366";"2014-07-22 10:54:18.517";"1";"0";"1";"190";"189";"module.devaluation_block1.exec-8590.deval1";"10986";"2014-07-22 10:54:16.520";"22";"6";"7";"7";"1670";"4617";"1671";"2014-07-22 10:54:05.534";"3";;;;;;;;;;;;;;;;;;;;;;;;;;;;;;;;;;;;;;;;;;;;;;;;;;;;;;;;;;;;;;;;;;;;;;;;;;;;;;;;
