"user.name";"user.yearOfBirth";"user.sex";"user.osName";"module.name";"module.version";"module.online.subject.code";"module.online.study.id";"module.online.module.nr";"module.online.group.nr";"session.id";"session.index";"session.startTime";"session.endTime";"session.completed";"session.node-3777.DevalQorder";"session.node-7420.conditionType";"trial.id";"trial.index";"trial.name";"trial.deval1.durationTime";"trial.deval1.endTime";"trial.deval1.icon";"trial.deval1.Resp_Attractive";"trial.deval1.Resp_Eat";"trial.deval1.Resp_Taste";"trial.deval1.RT_Attractive";"trial.deval1.RT_Eat";"trial.deval1.RT_Taste";"trial.deval1.startTime";"trial.deval1.stimulus type";"trial.devalPractice.durationTime";"trial.devalPractice.endTime";"trial.devalPractice.icon";"trial.devalPractice.Resp_Attractive";"trial.devalPractice.Resp_Eat";"trial.devalPractice.Resp_Taste";"trial.devalPractice.RT_Attractive";"trial.devalPractice.RT_Eat";"trial.devalPractice.RT_Taste";"trial.devalPractice.startTime";"trial.devalPractice.stimulus type";"trial.GoNoGo1.durationTime";"trial.GoNoGo1.endTime";"trial.GoNoGo1.Error Type";"trial.GoNoGo1.icon";"trial.GoNoGo1.location";"trial.GoNoGo1.outcome";"trial.GoNoGo1.response";"trial.GoNoGo1.result";"trial.GoNoGo1.RT";"trial.GoNoGo1.signal";"trial.GoNoGo1.startTime";"trial.GoNoGo1.stimulus type";"trial.GoNoGo2.durationTime";"trial.GoNoGo2.endTime";"trial.GoNoGo2.Error Type";"trial.GoNoGo2.icon";"trial.GoNoGo2.location";"trial.GoNoGo2.outcome";"trial.GoNoGo2.response";"trial.GoNoGo2.result";"trial.GoNoGo2.RT";"trial.GoNoGo2.signal";"trial.GoNoGo2.startTime";"trial.GoNoGo2.stimulus type";"trial.GoNoGo3.durationTime";"trial.GoNoGo3.endTime";"trial.GoNoGo3.Error Type";"trial.GoNoGo3.icon";"trial.GoNoGo3.location";"trial.GoNoGo3.outcome";"trial.GoNoGo3.response";"trial.GoNoGo3.result";"trial.GoNoGo3.RT";"trial.GoNoGo3.signal";"trial.GoNoGo3.startTime";"trial.GoNoGo3.stimulus type";"trial.GoNoGo4.durationTime";"trial.GoNoGo4.endTime";"trial.GoNoGo4.Error Type";"trial.GoNoGo4.icon";"trial.GoNoGo4.location";"trial.GoNoGo4.outcome";"trial.GoNoGo4.response";"trial.GoNoGo4.result";"trial.GoNoGo4.RT";"trial.GoNoGo4.signal";"trial.GoNoGo4.startTime";"trial.GoNoGo4.stimulus type";"trial.GoNoGo_Practice.durationTime";"trial.GoNoGo_Practice.endTime";"trial.GoNoGo_Practice.icon";"trial.GoNoGo_Practice.location";"trial.GoNoGo_Practice.outcome";"trial.GoNoGo_Practice.response";"trial.GoNoGo_Practice.result";"trial.GoNoGo_Practice.RT";"trial.GoNoGo_Practice.signal";"trial.GoNoGo_Practice.startTime";"trial.GoNoGo_Practice.stimulus type";"trial.GoNoGo_Tutorial.durationTime";"trial.GoNoGo_Tutorial.endTime";"trial.GoNoGo_Tutorial.icon";"trial.GoNoGo_Tutorial.location";"trial.GoNoGo_Tutorial.outcome";"trial.GoNoGo_Tutorial.response";"trial.GoNoGo_Tutorial.result";"trial.GoNoGo_Tutorial.RT";"trial.GoNoGo_Tutorial.signal";"trial.GoNoGo_Tutorial.startTime"
"diehard3";"1979";;"Windows 7";"Rachel's Experiment (D.T.)";"1.0";"2";"1";"1";"2";"1";"1";"2014-07-18 09:13:55.549";"2014-07-18 09:29:01.889";"1";"0";"0";"1";"0";"module.GoNoGotutorial.exec-5430.GoNoGo_Tutorial";;;;;;;;;;;;;;;;;;;;;;;;;;;;;;;;;;;;;;;;;;;;;;;;;;;;;;;;;;;;;;;;;;;;;;;;;;;;;;;;;;"4000";"2014-07-18 09:15:00.344";"leftResponse";"0";"FINISHED";"NONE";"failure";"0";"0";"2014-07-18 09:14:56.344"
"diehard3";"1979";;"Windows 7";"Rachel's Experiment (D.T.)";"1.0";"2";"1";"1";"2";"1";"1";"2014-07-18 09:13:55.549";"2014-07-18 09:29:01.889";"1";"0";"0";"2";"1";"module.GoNoGotutorial.exec-5430.GoNoGo_Tutorial";;;;;;;;;;;;;;;;;;;;;;;;;;;;;;;;;;;;;;;;;;;;;;;;;;;;;;;;;;;;;;;;;;;;;;;;;;;;;;;;;;"3999";"2014-07-18 09:15:05.632";"rightResponse";"1";"FINISHED";"NONE";"failure";"0";"0";"2014-07-18 09:15:01.632"
"diehard3";"1979";;"Windows 7";"Rachel's Experiment (D.T.)";"1.0";"2";"1";"1";"2";"1";"1";"2014-07-18 09:13:55.549";"2014-07-18 09:29:01.889";"1";"0";"0";"3";"2";"module.GoNoGotutorial.exec-5430.GoNoGo_Tutorial";;;;;;;;;;;;;;;;;;;;;;;;;;;;;;;;;;;;;;;;;;;;;;;;;;;;;;;;;;;;;;;;;;;;;;;;;;;;;;;;;;"3999";"2014-07-18 09:15:10.919";"quickResponse";"0";"FINISHED";"NONE";"failure";"0";"0";"2014-07-18 09:15:06.919"
"diehard3";"1979";;"Windows 7";"Rachel's Experiment (D.T.)";"1.0";"2";"1";"1";"2";"1";"1";"2014-07-18 09:13:55.549";"2014-07-18 09:29:01.889";"1";"0";"0";"4";"3";"module.GoNoGopractice.exec-1440.GoNoGo_Practice";;;;;;;;;;;;;;;;;;;;;;;;;;;;;;;;;;;;;;;;;;;;;;;;;;;;;;;;;;;;;;;;;;;;;;;"1954";"2014-07-18 09:15:19.569";"18";"0";"FINISHED";"LEFT";"success";"416";"0";"2014-07-18 09:15:17.614";"3";;;;;;;;;;
"diehard3";"1979";;"Windows 7";"Rachel's Experiment (D.T.)";"1.0";"2";"1";"1";"2";"1";"1";"2014-07-18 09:13:55.549";"2014-07-18 09:29:01.889";"1";"0";"0";"5";"4";"module.GoNoGopractice.exec-1440.GoNoGo_Practice";;;;;;;;;;;;;;;;;;;;;;;;;;;;;;;;;;;;;;;;;;;;;;;;;;;;;;;;;;;;;;;;;;;;;;;"1950";"2014-07-18 09:15:22.805";"21";"1";"FINISHED";"RIGHT";"success";"344";"0";"2014-07-18 09:15:20.854";"3";;;;;;;;;;
"diehard3";"1979";;"Windows 7";"Rachel's Experiment (D.T.)";"1.0";"2";"1";"1";"2";"1";"1";"2014-07-18 09:13:55.549";"2014-07-18 09:29:01.889";"1";"0";"0";"6";"5";"module.GoNoGopractice.exec-1440.GoNoGo_Practice";;;;;;;;;;;;;;;;;;;;;;;;;;;;;;;;;;;;;;;;;;;;;;;;;;;;;;;;;;;;;;;;;;;;;;;"1950";"2014-07-18 09:15:26.039";"14";"1";"FINISHED";"RIGHT";"success";"392";"0";"2014-07-18 09:15:24.087";"2";;;;;;;;;;
"diehard3";"1979";;"Windows 7";"Rachel's Experiment (D.T.)";"1.0";"2";"1";"1";"2";"1";"1";"2014-07-18 09:13:55.549";"2014-07-18 09:29:01.889";"1";"0";"0";"7";"6";"module.GoNoGopractice.exec-1440.GoNoGo_Practice";;;;;;;;;;;;;;;;;;;;;;;;;;;;;;;;;;;;;;;;;;;;;;;;;;;;;;;;;;;;;;;;;;;;;;;"1950";"2014-07-18 09:15:29.272";"26";"0";"FINISHED";"LEFT";"success";"414";"0";"2014-07-18 09:15:27.321";"3";;;;;;;;;;
"diehard3";"1979";;"Windows 7";"Rachel's Experiment (D.T.)";"1.0";"2";"1";"1";"2";"1";"1";"2014-07-18 09:13:55.549";"2014-07-18 09:29:01.889";"1";"0";"0";"8";"7";"module.GoNoGopractice.exec-1440.GoNoGo_Practice";;;;;;;;;;;;;;;;;;;;;;;;;;;;;;;;;;;;;;;;;;;;;;;;;;;;;;;;;;;;;;;;;;;;;;;"1950";"2014-07-18 09:15:32.506";"2";"0";"FINISHED";"LEFT";"success";"620";"0";"2014-07-18 09:15:30.555";"1";;;;;;;;;;
"diehard3";"1979";;"Windows 7";"Rachel's Experiment (D.T.)";"1.0";"2";"1";"1";"2";"1";"1";"2014-07-18 09:13:55.549";"2014-07-18 09:29:01.889";"1";"0";"0";"9";"8";"module.GoNoGopractice.exec-1440.GoNoGo_Practice";;;;;;;;;;;;;;;;;;;;;;;;;;;;;;;;;;;;;;;;;;;;;;;;;;;;;;;;;;;;;;;;;;;;;;;"1951";"2014-07-18 09:15:35.739";"30";"0";"FINISHED";"LEFT";"success";"355";"0";"2014-07-18 09:15:33.788";"3";;;;;;;;;;
"diehard3";"1979";;"Windows 7";"Rachel's Experiment (D.T.)";"1.0";"2";"1";"1";"2";"1";"1";"2014-07-18 09:13:55.549";"2014-07-18 09:29:01.889";"1";"0";"0";"10";"9";"module.GoNoGopractice.exec-1440.GoNoGo_Practice";;;;;;;;;;;;;;;;;;;;;;;;;;;;;;;;;;;;;;;;;;;;;;;;;;;;;;;;;;;;;;;;;;;;;;;"1950";"2014-07-18 09:15:38.971";"6";"1";"FINISHED";"RIGHT";"success";"379";"0";"2014-07-18 09:15:37.020";"1";;;;;;;;;;
"diehard3";"1979";;"Windows 7";"Rachel's Experiment (D.T.)";"1.0";"2";"1";"1";"2";"1";"1";"2014-07-18 09:13:55.549";"2014-07-18 09:29:01.889";"1";"0";"0";"11";"10";"module.GoNoGopractice.exec-1440.GoNoGo_Practice";;;;;;;;;;;;;;;;;;;;;;;;;;;;;;;;;;;;;;;;;;;;;;;;;;;;;;;;;;;;;;;;;;;;;;;"1950";"2014-07-18 09:15:42.203";"34";"0";"FINISHED";"LEFT";"success";"372";"0";"2014-07-18 09:15:40.251";"3";;;;;;;;;;
"diehard3";"1979";;"Windows 7";"Rachel's Experiment (D.T.)";"1.0";"2";"1";"1";"2";"1";"1";"2014-07-18 09:13:55.549";"2014-07-18 09:29:01.889";"1";"0";"0";"12";"11";"module.GoNoGopractice.exec-1440.GoNoGo_Practice";;;;;;;;;;;;;;;;;;;;;;;;;;;;;;;;;;;;;;;;;;;;;;;;;;;;;;;;;;;;;;;;;;;;;;;"1950";"2014-07-18 09:15:45.434";"23";"1";"FINISHED";"RIGHT";"success";"356";"0";"2014-07-18 09:15:43.483";"3";;;;;;;;;;
"diehard3";"1979";;"Windows 7";"Rachel's Experiment (D.T.)";"1.0";"2";"1";"1";"2";"1";"1";"2014-07-18 09:13:55.549";"2014-07-18 09:29:01.889";"1";"0";"0";"13";"12";"module.GoNoGopractice.exec-1440.GoNoGo_Practice";;;;;;;;;;;;;;;;;;;;;;;;;;;;;;;;;;;;;;;;;;;;;;;;;;;;;;;;;;;;;;;;;;;;;;;"1950";"2014-07-18 09:15:48.665";"13";"0";"FINISHED";"LEFT";"success";"277";"0";"2014-07-18 09:15:46.714";"2";;;;;;;;;;
"diehard3";"1979";;"Windows 7";"Rachel's Experiment (D.T.)";"1.0";"2";"1";"1";"2";"1";"1";"2014-07-18 09:13:55.549";"2014-07-18 09:29:01.889";"1";"0";"0";"14";"13";"module.GoNoGopractice.exec-1440.GoNoGo_Practice";;;;;;;;;;;;;;;;;;;;;;;;;;;;;;;;;;;;;;;;;;;;;;;;;;;;;;;;;;;;;;;;;;;;;;;"1950";"2014-07-18 09:15:51.894";"3";"1";"FINISHED";"RIGHT";"success";"328";"0";"2014-07-18 09:15:49.943";"1";;;;;;;;;;
"diehard3";"1979";;"Windows 7";"Rachel's Experiment (D.T.)";"1.0";"2";"1";"1";"2";"1";"1";"2014-07-18 09:13:55.549";"2014-07-18 09:29:01.889";"1";"0";"0";"15";"14";"module.GoNoGopractice.exec-1440.GoNoGo_Practice";;;;;;;;;;;;;;;;;;;;;;;;;;;;;;;;;;;;;;;;;;;;;;;;;;;;;;;;;;;;;;;;;;;;;;;"1951";"2014-07-18 09:15:55.125";"27";"1";"FINISHED";"RIGHT";"success";"361";"0";"2014-07-18 09:15:53.174";"3";;;;;;;;;;
"diehard3";"1979";;"Windows 7";"Rachel's Experiment (D.T.)";"1.0";"2";"1";"1";"2";"1";"1";"2014-07-18 09:13:55.549";"2014-07-18 09:29:01.889";"1";"0";"0";"16";"15";"module.training_block1.exec-8337.GoNoGo1";;;;;;;;;;;;;;;;;;;;;;;"1250";"2014-07-18 09:16:09.246";"NST_correctLoc";"15";"1";"FINISHED";"RIGHT";"success";"395";"0";"2014-07-18 09:16:07.996";"2";;;;;;;;;;;;;;;;;;;;;;;;;;;;;;;;;;;;;;;;;;;;;;;;;;;;;;;;;
"diehard3";"1979";;"Windows 7";"Rachel's Experiment (D.T.)";"1.0";"2";"1";"1";"2";"1";"1";"2014-07-18 09:13:55.549";"2014-07-18 09:29:01.889";"1";"0";"0";"17";"16";"module.training_block1.exec-8337.GoNoGo1";;;;;;;;;;;;;;;;;;;;;;;"1250";"2014-07-18 09:16:11.774";"NST_correctLoc";"26";"0";"FINISHED";"LEFT";"success";"307";"0";"2014-07-18 09:16:10.524";"3";;;;;;;;;;;;;;;;;;;;;;;;;;;;;;;;;;;;;;;;;;;;;;;;;;;;;;;;;
"diehard3";"1979";;"Windows 7";"Rachel's Experiment (D.T.)";"1.0";"2";"1";"1";"2";"1";"1";"2014-07-18 09:13:55.549";"2014-07-18 09:29:01.889";"1";"0";"0";"18";"17";"module.training_block1.exec-8337.GoNoGo1";;;;;;;;;;;;;;;;;;;;;;;"1249";"2014-07-18 09:16:14.304";"NST_correctLoc";"8";"1";"FINISHED";"RIGHT";"success";"296";"0";"2014-07-18 09:16:13.054";"1";;;;;;;;;;;;;;;;;;;;;;;;;;;;;;;;;;;;;;;;;;;;;;;;;;;;;;;;;
"diehard3";"1979";;"Windows 7";"Rachel's Experiment (D.T.)";"1.0";"2";"1";"1";"2";"1";"1";"2014-07-18 09:13:55.549";"2014-07-18 09:29:01.889";"1";"0";"0";"19";"18";"module.training_block1.exec-8337.GoNoGo1";;;;;;;;;;;;;;;;;;;;;;;"1249";"2014-07-18 09:16:16.833";"NST_correctLoc";"24";"0";"FINISHED";"LEFT";"success";"336";"0";"2014-07-18 09:16:15.582";"3";;;;;;;;;;;;;;;;;;;;;;;;;;;;;;;;;;;;;;;;;;;;;;;;;;;;;;;;;
"diehard3";"1979";;"Windows 7";"Rachel's Experiment (D.T.)";"1.0";"2";"1";"1";"2";"1";"1";"2014-07-18 09:13:55.549";"2014-07-18 09:29:01.889";"1";"0";"0";"20";"19";"module.training_block1.exec-8337.GoNoGo1";;;;;;;;;;;;;;;;;;;;;;;"1250";"2014-07-18 09:16:19.362";"NST_correctLoc";"22";"0";"FINISHED";"LEFT";"success";"383";"0";"2014-07-18 09:16:18.112";"3";;;;;;;;;;;;;;;;;;;;;;;;;;;;;;;;;;;;;;;;;;;;;;;;;;;;;;;;;
"diehard3";"1979";;"Windows 7";"Rachel's Experiment (D.T.)";"1.0";"2";"1";"1";"2";"1";"1";"2014-07-18 09:13:55.549";"2014-07-18 09:29:01.889";"1";"0";"0";"21";"20";"module.training_block1.exec-8337.GoNoGo1";;;;;;;;;;;;;;;;;;;;;;;"1249";"2014-07-18 09:16:21.891";"NST_correctLoc";"19";"0";"FINISHED";"LEFT";"success";"366";"0";"2014-07-18 09:16:20.641";"3";;;;;;;;;;;;;;;;;;;;;;;;;;;;;;;;;;;;;;;;;;;;;;;;;;;;;;;;;
"diehard3";"1979";;"Windows 7";"Rachel's Experiment (D.T.)";"1.0";"2";"1";"1";"2";"1";"1";"2014-07-18 09:13:55.549";"2014-07-18 09:29:01.889";"1";"0";"0";"22";"21";"module.training_block1.exec-8337.GoNoGo1";;;;;;;;;;;;;;;;;;;;;;;"1249";"2014-07-18 09:16:24.419";"NST_correctLoc";"29";"1";"FINISHED";"RIGHT";"success";"309";"0";"2014-07-18 09:16:23.169";"3";;;;;;;;;;;;;;;;;;;;;;;;;;;;;;;;;;;;;;;;;;;;;;;;;;;;;;;;;
"diehard3";"1979";;"Windows 7";"Rachel's Experiment (D.T.)";"1.0";"2";"1";"1";"2";"1";"1";"2014-07-18 09:13:55.549";"2014-07-18 09:29:01.889";"1";"0";"0";"23";"22";"module.training_block1.exec-8337.GoNoGo1";;;;;;;;;;;;;;;;;;;;;;;"1250";"2014-07-18 09:16:26.949";"NST_correctLoc";"4";"1";"FINISHED";"RIGHT";"success";"564";"0";"2014-07-18 09:16:25.699";"1";;;;;;;;;;;;;;;;;;;;;;;;;;;;;;;;;;;;;;;;;;;;;;;;;;;;;;;;;
"diehard3";"1979";;"Windows 7";"Rachel's Experiment (D.T.)";"1.0";"2";"1";"1";"2";"1";"1";"2014-07-18 09:13:55.549";"2014-07-18 09:29:01.889";"1";"0";"0";"24";"23";"module.training_block1.exec-8337.GoNoGo1";;;;;;;;;;;;;;;;;;;;;;;"1250";"2014-07-18 09:16:29.478";"NST_correctLoc";"16";"0";"FINISHED";"LEFT";"success";"355";"0";"2014-07-18 09:16:28.228";"2";;;;;;;;;;;;;;;;;;;;;;;;;;;;;;;;;;;;;;;;;;;;;;;;;;;;;;;;;
"diehard3";"1979";;"Windows 7";"Rachel's Experiment (D.T.)";"1.0";"2";"1";"1";"2";"1";"1";"2014-07-18 09:13:55.549";"2014-07-18 09:29:01.889";"1";"0";"0";"25";"24";"module.training_block1.exec-8337.GoNoGo1";;;;;;;;;;;;;;;;;;;;;;;"1250";"2014-07-18 09:16:32.002";"NST_correctLoc";"27";"1";"FINISHED";"RIGHT";"success";"343";"0";"2014-07-18 09:16:30.752";"3";;;;;;;;;;;;;;;;;;;;;;;;;;;;;;;;;;;;;;;;;;;;;;;;;;;;;;;;;
"diehard3";"1979";;"Windows 7";"Rachel's Experiment (D.T.)";"1.0";"2";"1";"1";"2";"1";"1";"2014-07-18 09:13:55.549";"2014-07-18 09:29:01.889";"1";"0";"0";"26";"25";"module.training_block1.exec-8337.GoNoGo1";;;;;;;;;;;;;;;;;;;;;;;"1250";"2014-07-18 09:16:34.527";"NST_correctLoc";"18";"1";"FINISHED";"RIGHT";"success";"403";"0";"2014-07-18 09:16:33.275";"3";;;;;;;;;;;;;;;;;;;;;;;;;;;;;;;;;;;;;;;;;;;;;;;;;;;;;;;;;
"diehard3";"1979";;"Windows 7";"Rachel's Experiment (D.T.)";"1.0";"2";"1";"1";"2";"1";"1";"2014-07-18 09:13:55.549";"2014-07-18 09:29:01.889";"1";"0";"0";"27";"26";"module.training_block1.exec-8337.GoNoGo1";;;;;;;;;;;;;;;;;;;;;;;"1249";"2014-07-18 09:16:37.055";"NST_correctLoc";"17";"0";"FINISHED";"LEFT";"success";"306";"0";"2014-07-18 09:16:35.805";"2";;;;;;;;;;;;;;;;;;;;;;;;;;;;;;;;;;;;;;;;;;;;;;;;;;;;;;;;;
"diehard3";"1979";;"Windows 7";"Rachel's Experiment (D.T.)";"1.0";"2";"1";"1";"2";"1";"1";"2014-07-18 09:13:55.549";"2014-07-18 09:29:01.889";"1";"0";"0";"28";"27";"module.training_block1.exec-8337.GoNoGo1";;;;;;;;;;;;;;;;;;;;;;;"1249";"2014-07-18 09:16:39.587";"NST_correctLoc";"1";"0";"FINISHED";"LEFT";"success";"382";"0";"2014-07-18 09:16:38.337";"1";;;;;;;;;;;;;;;;;;;;;;;;;;;;;;;;;;;;;;;;;;;;;;;;;;;;;;;;;
"diehard3";"1979";;"Windows 7";"Rachel's Experiment (D.T.)";"1.0";"2";"1";"1";"2";"1";"1";"2014-07-18 09:13:55.549";"2014-07-18 09:29:01.889";"1";"0";"0";"29";"28";"module.training_block1.exec-8337.GoNoGo1";;;;;;;;;;;;;;;;;;;;;;;"1250";"2014-07-18 09:16:42.110";"NST_correctLoc";"14";"1";"FINISHED";"RIGHT";"success";"299";"0";"2014-07-18 09:16:40.860";"2";;;;;;;;;;;;;;;;;;;;;;;;;;;;;;;;;;;;;;;;;;;;;;;;;;;;;;;;;
"diehard3";"1979";;"Windows 7";"Rachel's Experiment (D.T.)";"1.0";"2";"1";"1";"2";"1";"1";"2014-07-18 09:13:55.549";"2014-07-18 09:29:01.889";"1";"0";"0";"30";"29";"module.training_block1.exec-8337.GoNoGo1";;;;;;;;;;;;;;;;;;;;;;;"1250";"2014-07-18 09:16:44.637";"NST_correctLoc";"28";"1";"FINISHED";"RIGHT";"success";"364";"0";"2014-07-18 09:16:43.387";"3";;;;;;;;;;;;;;;;;;;;;;;;;;;;;;;;;;;;;;;;;;;;;;;;;;;;;;;;;
"diehard3";"1979";;"Windows 7";"Rachel's Experiment (D.T.)";"1.0";"2";"1";"1";"2";"1";"1";"2014-07-18 09:13:55.549";"2014-07-18 09:29:01.889";"1";"0";"0";"31";"30";"module.training_block1.exec-8337.GoNoGo1";;;;;;;;;;;;;;;;;;;;;;;"1250";"2014-07-18 09:16:47.164";"NST_correctLoc";"11";"1";"FINISHED";"RIGHT";"success";"421";"0";"2014-07-18 09:16:45.914";"2";;;;;;;;;;;;;;;;;;;;;;;;;;;;;;;;;;;;;;;;;;;;;;;;;;;;;;;;;
"diehard3";"1979";;"Windows 7";"Rachel's Experiment (D.T.)";"1.0";"2";"1";"1";"2";"1";"1";"2014-07-18 09:13:55.549";"2014-07-18 09:29:01.889";"1";"0";"0";"32";"31";"module.training_block1.exec-8337.GoNoGo1";;;;;;;;;;;;;;;;;;;;;;;"1249";"2014-07-18 09:16:49.690";"NST_correctLoc";"5";"0";"FINISHED";"LEFT";"success";"390";"0";"2014-07-18 09:16:48.440";"1";;;;;;;;;;;;;;;;;;;;;;;;;;;;;;;;;;;;;;;;;;;;;;;;;;;;;;;;;
"diehard3";"1979";;"Windows 7";"Rachel's Experiment (D.T.)";"1.0";"2";"1";"1";"2";"1";"1";"2014-07-18 09:13:55.549";"2014-07-18 09:29:01.889";"1";"0";"0";"33";"32";"module.training_block1.exec-8337.GoNoGo1";;;;;;;;;;;;;;;;;;;;;;;"1249";"2014-07-18 09:16:52.216";"NST_correctLoc";"12";"1";"FINISHED";"RIGHT";"success";"345";"0";"2014-07-18 09:16:50.965";"2";;;;;;;;;;;;;;;;;;;;;;;;;;;;;;;;;;;;;;;;;;;;;;;;;;;;;;;;;
"diehard3";"1979";;"Windows 7";"Rachel's Experiment (D.T.)";"1.0";"2";"1";"1";"2";"1";"1";"2014-07-18 09:13:55.549";"2014-07-18 09:29:01.889";"1";"0";"0";"34";"33";"module.training_block1.exec-8337.GoNoGo1";;;;;;;;;;;;;;;;;;;;;;;"1250";"2014-07-18 09:16:54.736";"NST_correctLoc";"2";"0";"FINISHED";"LEFT";"success";"281";"0";"2014-07-18 09:16:53.486";"1";;;;;;;;;;;;;;;;;;;;;;;;;;;;;;;;;;;;;;;;;;;;;;;;;;;;;;;;;
"diehard3";"1979";;"Windows 7";"Rachel's Experiment (D.T.)";"1.0";"2";"1";"1";"2";"1";"1";"2014-07-18 09:13:55.549";"2014-07-18 09:29:01.889";"1";"0";"0";"35";"34";"module.training_block1.exec-8337.GoNoGo1";;;;;;;;;;;;;;;;;;;;;;;"1249";"2014-07-18 09:16:57.258";"NST_correctLoc";"3";"0";"FINISHED";"LEFT";"success";"414";"0";"2014-07-18 09:16:56.008";"1";;;;;;;;;;;;;;;;;;;;;;;;;;;;;;;;;;;;;;;;;;;;;;;;;;;;;;;;;
"diehard3";"1979";;"Windows 7";"Rachel's Experiment (D.T.)";"1.0";"2";"1";"1";"2";"1";"1";"2014-07-18 09:13:55.549";"2014-07-18 09:29:01.889";"1";"0";"0";"36";"35";"module.training_block1.exec-8337.GoNoGo1";;;;;;;;;;;;;;;;;;;;;;;"1250";"2014-07-18 09:16:59.780";"NST_correctLoc";"30";"0";"FINISHED";"LEFT";"success";"413";"0";"2014-07-18 09:16:58.530";"3";;;;;;;;;;;;;;;;;;;;;;;;;;;;;;;;;;;;;;;;;;;;;;;;;;;;;;;;;
"diehard3";"1979";;"Windows 7";"Rachel's Experiment (D.T.)";"1.0";"2";"1";"1";"2";"1";"1";"2014-07-18 09:13:55.549";"2014-07-18 09:29:01.889";"1";"0";"0";"37";"36";"module.training_block1.exec-8337.GoNoGo1";;;;;;;;;;;;;;;;;;;;;;;"1250";"2014-07-18 09:17:02.307";"NST_correctLoc";"20";"1";"FINISHED";"RIGHT";"success";"374";"0";"2014-07-18 09:17:01.057";"3";;;;;;;;;;;;;;;;;;;;;;;;;;;;;;;;;;;;;;;;;;;;;;;;;;;;;;;;;
"diehard3";"1979";;"Windows 7";"Rachel's Experiment (D.T.)";"1.0";"2";"1";"1";"2";"1";"1";"2014-07-18 09:13:55.549";"2014-07-18 09:29:01.889";"1";"0";"0";"38";"37";"module.training_block1.exec-8337.GoNoGo1";;;;;;;;;;;;;;;;;;;;;;;"1249";"2014-07-18 09:17:04.833";"NST_correctLoc";"7";"0";"FINISHED";"LEFT";"success";"295";"0";"2014-07-18 09:17:03.583";"1";;;;;;;;;;;;;;;;;;;;;;;;;;;;;;;;;;;;;;;;;;;;;;;;;;;;;;;;;
"diehard3";"1979";;"Windows 7";"Rachel's Experiment (D.T.)";"1.0";"2";"1";"1";"2";"1";"1";"2014-07-18 09:13:55.549";"2014-07-18 09:29:01.889";"1";"0";"0";"39";"38";"module.training_block1.exec-8337.GoNoGo1";;;;;;;;;;;;;;;;;;;;;;;"1249";"2014-07-18 09:17:07.359";"NST_correctLoc";"10";"0";"FINISHED";"LEFT";"success";"457";"0";"2014-07-18 09:17:06.109";"2";;;;;;;;;;;;;;;;;;;;;;;;;;;;;;;;;;;;;;;;;;;;;;;;;;;;;;;;;
"diehard3";"1979";;"Windows 7";"Rachel's Experiment (D.T.)";"1.0";"2";"1";"1";"2";"1";"1";"2014-07-18 09:13:55.549";"2014-07-18 09:29:01.889";"1";"0";"0";"40";"39";"module.training_block1.exec-8337.GoNoGo1";;;;;;;;;;;;;;;;;;;;;;;"1250";"2014-07-18 09:17:09.882";"NST_correctLoc";"6";"0";"FINISHED";"LEFT";"success";"383";"0";"2014-07-18 09:17:08.631";"1";;;;;;;;;;;;;;;;;;;;;;;;;;;;;;;;;;;;;;;;;;;;;;;;;;;;;;;;;
"diehard3";"1979";;"Windows 7";"Rachel's Experiment (D.T.)";"1.0";"2";"1";"1";"2";"1";"1";"2014-07-18 09:13:55.549";"2014-07-18 09:29:01.889";"1";"0";"0";"41";"40";"module.training_block1.exec-8337.GoNoGo1";;;;;;;;;;;;;;;;;;;;;;;"1249";"2014-07-18 09:17:12.408";"NST_correctLoc";"0";"0";"FINISHED";"LEFT";"success";"393";"0";"2014-07-18 09:17:11.158";"1";;;;;;;;;;;;;;;;;;;;;;;;;;;;;;;;;;;;;;;;;;;;;;;;;;;;;;;;;
"diehard3";"1979";;"Windows 7";"Rachel's Experiment (D.T.)";"1.0";"2";"1";"1";"2";"1";"1";"2014-07-18 09:13:55.549";"2014-07-18 09:29:01.889";"1";"0";"0";"42";"41";"module.training_block1.exec-8337.GoNoGo1";;;;;;;;;;;;;;;;;;;;;;;"1250";"2014-07-18 09:17:14.930";"NST_correctLoc";"23";"0";"FINISHED";"LEFT";"success";"311";"0";"2014-07-18 09:17:13.680";"3";;;;;;;;;;;;;;;;;;;;;;;;;;;;;;;;;;;;;;;;;;;;;;;;;;;;;;;;;
"diehard3";"1979";;"Windows 7";"Rachel's Experiment (D.T.)";"1.0";"2";"1";"1";"2";"1";"1";"2014-07-18 09:13:55.549";"2014-07-18 09:29:01.889";"1";"0";"0";"43";"42";"module.training_block1.exec-8337.GoNoGo1";;;;;;;;;;;;;;;;;;;;;;;"1249";"2014-07-18 09:17:17.461";"NST_correctLoc";"9";"0";"FINISHED";"LEFT";"success";"379";"0";"2014-07-18 09:17:16.211";"2";;;;;;;;;;;;;;;;;;;;;;;;;;;;;;;;;;;;;;;;;;;;;;;;;;;;;;;;;
"diehard3";"1979";;"Windows 7";"Rachel's Experiment (D.T.)";"1.0";"2";"1";"1";"2";"1";"1";"2014-07-18 09:13:55.549";"2014-07-18 09:29:01.889";"1";"0";"0";"44";"43";"module.training_block1.exec-8337.GoNoGo1";;;;;;;;;;;;;;;;;;;;;;;"1250";"2014-07-18 09:17:19.986";"NST_correctLoc";"31";"1";"FINISHED";"RIGHT";"success";"422";"0";"2014-07-18 09:17:18.736";"3";;;;;;;;;;;;;;;;;;;;;;;;;;;;;;;;;;;;;;;;;;;;;;;;;;;;;;;;;
"diehard3";"1979";;"Windows 7";"Rachel's Experiment (D.T.)";"1.0";"2";"1";"1";"2";"1";"1";"2014-07-18 09:13:55.549";"2014-07-18 09:29:01.889";"1";"0";"0";"45";"44";"module.training_block1.exec-8337.GoNoGo1";;;;;;;;;;;;;;;;;;;;;;;"1250";"2014-07-18 09:17:22.507";"NST_correctLoc";"13";"1";"FINISHED";"RIGHT";"success";"573";"0";"2014-07-18 09:17:21.257";"2";;;;;;;;;;;;;;;;;;;;;;;;;;;;;;;;;;;;;;;;;;;;;;;;;;;;;;;;;
"diehard3";"1979";;"Windows 7";"Rachel's Experiment (D.T.)";"1.0";"2";"1";"1";"2";"1";"1";"2014-07-18 09:13:55.549";"2014-07-18 09:29:01.889";"1";"0";"0";"46";"45";"module.training_block1.exec-8337.GoNoGo1";;;;;;;;;;;;;;;;;;;;;;;"1250";"2014-07-18 09:17:25.028";"NST_correctLoc";"21";"1";"FINISHED";"RIGHT";"success";"484";"0";"2014-07-18 09:17:23.778";"3";;;;;;;;;;;;;;;;;;;;;;;;;;;;;;;;;;;;;;;;;;;;;;;;;;;;;;;;;
"diehard3";"1979";;"Windows 7";"Rachel's Experiment (D.T.)";"1.0";"2";"1";"1";"2";"1";"1";"2014-07-18 09:13:55.549";"2014-07-18 09:29:01.889";"1";"0";"0";"47";"46";"module.training_block1.exec-8337.GoNoGo1";;;;;;;;;;;;;;;;;;;;;;;"1249";"2014-07-18 09:17:27.551";"NST_correctLoc";"35";"0";"FINISHED";"LEFT";"success";"369";"0";"2014-07-18 09:17:26.300";"3";;;;;;;;;;;;;;;;;;;;;;;;;;;;;;;;;;;;;;;;;;;;;;;;;;;;;;;;;
"diehard3";"1979";;"Windows 7";"Rachel's Experiment (D.T.)";"1.0";"2";"1";"1";"2";"1";"1";"2014-07-18 09:13:55.549";"2014-07-18 09:29:01.889";"1";"0";"0";"48";"47";"module.training_block1.exec-8337.GoNoGo1";;;;;;;;;;;;;;;;;;;;;;;"1249";"2014-07-18 09:17:30.075";"NST_correctLoc";"33";"1";"FINISHED";"RIGHT";"success";"429";"0";"2014-07-18 09:17:28.825";"3";;;;;;;;;;;;;;;;;;;;;;;;;;;;;;;;;;;;;;;;;;;;;;;;;;;;;;;;;
"diehard3";"1979";;"Windows 7";"Rachel's Experiment (D.T.)";"1.0";"2";"1";"1";"2";"1";"1";"2014-07-18 09:13:55.549";"2014-07-18 09:29:01.889";"1";"0";"0";"49";"48";"module.training_block1.exec-8337.GoNoGo1";;;;;;;;;;;;;;;;;;;;;;;"1249";"2014-07-18 09:17:32.600";"NST_correctLoc";"25";"1";"FINISHED";"RIGHT";"success";"472";"0";"2014-07-18 09:17:31.350";"3";;;;;;;;;;;;;;;;;;;;;;;;;;;;;;;;;;;;;;;;;;;;;;;;;;;;;;;;;
"diehard3";"1979";;"Windows 7";"Rachel's Experiment (D.T.)";"1.0";"2";"1";"1";"2";"1";"1";"2014-07-18 09:13:55.549";"2014-07-18 09:29:01.889";"1";"0";"0";"50";"49";"module.training_block1.exec-8337.GoNoGo1";;;;;;;;;;;;;;;;;;;;;;;"1250";"2014-07-18 09:17:35.120";"NST_correctLoc";"34";"1";"FINISHED";"RIGHT";"success";"489";"0";"2014-07-18 09:17:33.870";"3";;;;;;;;;;;;;;;;;;;;;;;;;;;;;;;;;;;;;;;;;;;;;;;;;;;;;;;;;
"diehard3";"1979";;"Windows 7";"Rachel's Experiment (D.T.)";"1.0";"2";"1";"1";"2";"1";"1";"2014-07-18 09:13:55.549";"2014-07-18 09:29:01.889";"1";"0";"0";"51";"50";"module.training_block1.exec-8337.GoNoGo1";;;;;;;;;;;;;;;;;;;;;;;"1249";"2014-07-18 09:17:37.644";"NST_correctLoc";"32";"1";"FINISHED";"RIGHT";"success";"468";"0";"2014-07-18 09:17:36.394";"3";;;;;;;;;;;;;;;;;;;;;;;;;;;;;;;;;;;;;;;;;;;;;;;;;;;;;;;;;
"diehard3";"1979";;"Windows 7";"Rachel's Experiment (D.T.)";"1.0";"2";"1";"1";"2";"1";"1";"2014-07-18 09:13:55.549";"2014-07-18 09:29:01.889";"1";"0";"0";"52";"51";"module.training_block2.exec-9184.GoNoGo2";;;;;;;;;;;;;;;;;;;;;;;;;;;;;;;;;;;"1250";"2014-07-18 09:17:49.429";"NST_correctLoc";"26";"0";"FINISHED";"LEFT";"success";"412";"0";"2014-07-18 09:17:48.179";"3";;;;;;;;;;;;;;;;;;;;;;;;;;;;;;;;;;;;;;;;;;;;;
"diehard3";"1979";;"Windows 7";"Rachel's Experiment (D.T.)";"1.0";"2";"1";"1";"2";"1";"1";"2014-07-18 09:13:55.549";"2014-07-18 09:29:01.889";"1";"0";"0";"53";"52";"module.training_block2.exec-9184.GoNoGo2";;;;;;;;;;;;;;;;;;;;;;;;;;;;;;;;;;;"1250";"2014-07-18 09:17:51.950";"NST_correctLoc";"11";"0";"FINISHED";"LEFT";"success";"403";"0";"2014-07-18 09:17:50.699";"2";;;;;;;;;;;;;;;;;;;;;;;;;;;;;;;;;;;;;;;;;;;;;
"diehard3";"1979";;"Windows 7";"Rachel's Experiment (D.T.)";"1.0";"2";"1";"1";"2";"1";"1";"2014-07-18 09:13:55.549";"2014-07-18 09:29:01.889";"1";"0";"0";"54";"53";"module.training_block2.exec-9184.GoNoGo2";;;;;;;;;;;;;;;;;;;;;;;;;;;;;;;;;;;"1249";"2014-07-18 09:17:54.469";"NST_correctLoc";"19";"0";"FINISHED";"LEFT";"success";"346";"0";"2014-07-18 09:17:53.219";"3";;;;;;;;;;;;;;;;;;;;;;;;;;;;;;;;;;;;;;;;;;;;;
"diehard3";"1979";;"Windows 7";"Rachel's Experiment (D.T.)";"1.0";"2";"1";"1";"2";"1";"1";"2014-07-18 09:13:55.549";"2014-07-18 09:29:01.889";"1";"0";"0";"55";"54";"module.training_block2.exec-9184.GoNoGo2";;;;;;;;;;;;;;;;;;;;;;;;;;;;;;;;;;;"1250";"2014-07-18 09:17:56.990";"NST_correctLoc";"0";"1";"FINISHED";"RIGHT";"success";"330";"0";"2014-07-18 09:17:55.740";"1";;;;;;;;;;;;;;;;;;;;;;;;;;;;;;;;;;;;;;;;;;;;;
"diehard3";"1979";;"Windows 7";"Rachel's Experiment (D.T.)";"1.0";"2";"1";"1";"2";"1";"1";"2014-07-18 09:13:55.549";"2014-07-18 09:29:01.889";"1";"0";"0";"56";"55";"module.training_block2.exec-9184.GoNoGo2";;;;;;;;;;;;;;;;;;;;;;;;;;;;;;;;;;;"1249";"2014-07-18 09:17:59.509";"NST_correctLoc";"18";"1";"FINISHED";"RIGHT";"success";"634";"0";"2014-07-18 09:17:58.259";"3";;;;;;;;;;;;;;;;;;;;;;;;;;;;;;;;;;;;;;;;;;;;;
"diehard3";"1979";;"Windows 7";"Rachel's Experiment (D.T.)";"1.0";"2";"1";"1";"2";"1";"1";"2014-07-18 09:13:55.549";"2014-07-18 09:29:01.889";"1";"0";"0";"57";"56";"module.training_block2.exec-9184.GoNoGo2";;;;;;;;;;;;;;;;;;;;;;;;;;;;;;;;;;;"1249";"2014-07-18 09:18:02.030";"NST_correctLoc";"16";"1";"FINISHED";"RIGHT";"success";"554";"0";"2014-07-18 09:18:00.779";"2";;;;;;;;;;;;;;;;;;;;;;;;;;;;;;;;;;;;;;;;;;;;;
"diehard3";"1979";;"Windows 7";"Rachel's Experiment (D.T.)";"1.0";"2";"1";"1";"2";"1";"1";"2014-07-18 09:13:55.549";"2014-07-18 09:29:01.889";"1";"0";"0";"58";"57";"module.training_block2.exec-9184.GoNoGo2";;;;;;;;;;;;;;;;;;;;;;;;;;;;;;;;;;;"1249";"2014-07-18 09:18:04.549";"NST_correctLoc";"31";"0";"FINISHED";"LEFT";"success";"419";"0";"2014-07-18 09:18:03.299";"3";;;;;;;;;;;;;;;;;;;;;;;;;;;;;;;;;;;;;;;;;;;;;
"diehard3";"1979";;"Windows 7";"Rachel's Experiment (D.T.)";"1.0";"2";"1";"1";"2";"1";"1";"2014-07-18 09:13:55.549";"2014-07-18 09:29:01.889";"1";"0";"0";"59";"58";"module.training_block2.exec-9184.GoNoGo2";;;;;;;;;;;;;;;;;;;;;;;;;;;;;;;;;;;"1249";"2014-07-18 09:18:07.068";"NST_correctLoc";"7";"0";"FINISHED";"LEFT";"success";"452";"0";"2014-07-18 09:18:05.818";"1";;;;;;;;;;;;;;;;;;;;;;;;;;;;;;;;;;;;;;;;;;;;;
"diehard3";"1979";;"Windows 7";"Rachel's Experiment (D.T.)";"1.0";"2";"1";"1";"2";"1";"1";"2014-07-18 09:13:55.549";"2014-07-18 09:29:01.889";"1";"0";"0";"60";"59";"module.training_block2.exec-9184.GoNoGo2";;;;;;;;;;;;;;;;;;;;;;;;;;;;;;;;;;;"1249";"2014-07-18 09:18:09.587";"NST_correctLoc";"25";"0";"FINISHED";"LEFT";"success";"372";"0";"2014-07-18 09:18:08.337";"3";;;;;;;;;;;;;;;;;;;;;;;;;;;;;;;;;;;;;;;;;;;;;
"diehard3";"1979";;"Windows 7";"Rachel's Experiment (D.T.)";"1.0";"2";"1";"1";"2";"1";"1";"2014-07-18 09:13:55.549";"2014-07-18 09:29:01.889";"1";"0";"0";"61";"60";"module.training_block2.exec-9184.GoNoGo2";;;;;;;;;;;;;;;;;;;;;;;;;;;;;;;;;;;"1249";"2014-07-18 09:18:12.215";"NST_correctLoc";"1";"0";"FINISHED";"LEFT";"success";"408";"0";"2014-07-18 09:18:10.965";"1";;;;;;;;;;;;;;;;;;;;;;;;;;;;;;;;;;;;;;;;;;;;;
"diehard3";"1979";;"Windows 7";"Rachel's Experiment (D.T.)";"1.0";"2";"1";"1";"2";"1";"1";"2014-07-18 09:13:55.549";"2014-07-18 09:29:01.889";"1";"0";"0";"62";"61";"module.training_block2.exec-9184.GoNoGo2";;;;;;;;;;;;;;;;;;;;;;;;;;;;;;;;;;;"1249";"2014-07-18 09:18:14.738";"NST_correctLoc";"6";"1";"FINISHED";"RIGHT";"success";"350";"0";"2014-07-18 09:18:13.488";"1";;;;;;;;;;;;;;;;;;;;;;;;;;;;;;;;;;;;;;;;;;;;;
"diehard3";"1979";;"Windows 7";"Rachel's Experiment (D.T.)";"1.0";"2";"1";"1";"2";"1";"1";"2014-07-18 09:13:55.549";"2014-07-18 09:29:01.889";"1";"0";"0";"63";"62";"module.training_block2.exec-9184.GoNoGo2";;;;;;;;;;;;;;;;;;;;;;;;;;;;;;;;;;;"1250";"2014-07-18 09:18:17.261";"NST_correctLoc";"8";"1";"FINISHED";"RIGHT";"success";"443";"0";"2014-07-18 09:18:16.011";"1";;;;;;;;;;;;;;;;;;;;;;;;;;;;;;;;;;;;;;;;;;;;;
"diehard3";"1979";;"Windows 7";"Rachel's Experiment (D.T.)";"1.0";"2";"1";"1";"2";"1";"1";"2014-07-18 09:13:55.549";"2014-07-18 09:29:01.889";"1";"0";"0";"64";"63";"module.training_block2.exec-9184.GoNoGo2";;;;;;;;;;;;;;;;;;;;;;;;;;;;;;;;;;;"1249";"2014-07-18 09:18:19.784";"NST_correctLoc";"22";"1";"FINISHED";"RIGHT";"success";"544";"0";"2014-07-18 09:18:18.533";"3";;;;;;;;;;;;;;;;;;;;;;;;;;;;;;;;;;;;;;;;;;;;;
"diehard3";"1979";;"Windows 7";"Rachel's Experiment (D.T.)";"1.0";"2";"1";"1";"2";"1";"1";"2014-07-18 09:13:55.549";"2014-07-18 09:29:01.889";"1";"0";"0";"65";"64";"module.training_block2.exec-9184.GoNoGo2";;;;;;;;;;;;;;;;;;;;;;;;;;;;;;;;;;;"1249";"2014-07-18 09:18:22.307";"NST_correctLoc";"17";"1";"FINISHED";"RIGHT";"success";"549";"0";"2014-07-18 09:18:21.057";"2";;;;;;;;;;;;;;;;;;;;;;;;;;;;;;;;;;;;;;;;;;;;;
"diehard3";"1979";;"Windows 7";"Rachel's Experiment (D.T.)";"1.0";"2";"1";"1";"2";"1";"1";"2014-07-18 09:13:55.549";"2014-07-18 09:29:01.889";"1";"0";"0";"66";"65";"module.training_block2.exec-9184.GoNoGo2";;;;;;;;;;;;;;;;;;;;;;;;;;;;;;;;;;;"1249";"2014-07-18 09:18:24.829";"NST_correctLoc";"9";"0";"FINISHED";"LEFT";"success";"322";"0";"2014-07-18 09:18:23.579";"2";;;;;;;;;;;;;;;;;;;;;;;;;;;;;;;;;;;;;;;;;;;;;
"diehard3";"1979";;"Windows 7";"Rachel's Experiment (D.T.)";"1.0";"2";"1";"1";"2";"1";"1";"2014-07-18 09:13:55.549";"2014-07-18 09:29:01.889";"1";"0";"0";"67";"66";"module.training_block2.exec-9184.GoNoGo2";;;;;;;;;;;;;;;;;;;;;;;;;;;;;;;;;;;"1250";"2014-07-18 09:18:27.351";"NST_correctLoc";"14";"1";"FINISHED";"RIGHT";"success";"457";"0";"2014-07-18 09:18:26.101";"2";;;;;;;;;;;;;;;;;;;;;;;;;;;;;;;;;;;;;;;;;;;;;
"diehard3";"1979";;"Windows 7";"Rachel's Experiment (D.T.)";"1.0";"2";"1";"1";"2";"1";"1";"2014-07-18 09:13:55.549";"2014-07-18 09:29:01.889";"1";"0";"0";"68";"67";"module.training_block2.exec-9184.GoNoGo2";;;;;;;;;;;;;;;;;;;;;;;;;;;;;;;;;;;"1249";"2014-07-18 09:18:29.874";"NST_correctLoc";"23";"1";"FINISHED";"RIGHT";"success";"454";"0";"2014-07-18 09:18:28.624";"3";;;;;;;;;;;;;;;;;;;;;;;;;;;;;;;;;;;;;;;;;;;;;
"diehard3";"1979";;"Windows 7";"Rachel's Experiment (D.T.)";"1.0";"2";"1";"1";"2";"1";"1";"2014-07-18 09:13:55.549";"2014-07-18 09:29:01.889";"1";"0";"0";"69";"68";"module.training_block2.exec-9184.GoNoGo2";;;;;;;;;;;;;;;;;;;;;;;;;;;;;;;;;;;"1249";"2014-07-18 09:18:32.396";"NST_correctLoc";"4";"1";"FINISHED";"RIGHT";"success";"492";"0";"2014-07-18 09:18:31.146";"1";;;;;;;;;;;;;;;;;;;;;;;;;;;;;;;;;;;;;;;;;;;;;
"diehard3";"1979";;"Windows 7";"Rachel's Experiment (D.T.)";"1.0";"2";"1";"1";"2";"1";"1";"2014-07-18 09:13:55.549";"2014-07-18 09:29:01.889";"1";"0";"0";"70";"69";"module.training_block2.exec-9184.GoNoGo2";;;;;;;;;;;;;;;;;;;;;;;;;;;;;;;;;;;"1249";"2014-07-18 09:18:34.918";"NST_correctLoc";"28";"0";"FINISHED";"LEFT";"success";"361";"0";"2014-07-18 09:18:33.668";"3";;;;;;;;;;;;;;;;;;;;;;;;;;;;;;;;;;;;;;;;;;;;;
"diehard3";"1979";;"Windows 7";"Rachel's Experiment (D.T.)";"1.0";"2";"1";"1";"2";"1";"1";"2014-07-18 09:13:55.549";"2014-07-18 09:29:01.889";"1";"0";"0";"71";"70";"module.training_block2.exec-9184.GoNoGo2";;;;;;;;;;;;;;;;;;;;;;;;;;;;;;;;;;;"1249";"2014-07-18 09:18:37.442";"NST_correctLoc";"15";"1";"FINISHED";"RIGHT";"success";"374";"0";"2014-07-18 09:18:36.191";"2";;;;;;;;;;;;;;;;;;;;;;;;;;;;;;;;;;;;;;;;;;;;;
"diehard3";"1979";;"Windows 7";"Rachel's Experiment (D.T.)";"1.0";"2";"1";"1";"2";"1";"1";"2014-07-18 09:13:55.549";"2014-07-18 09:29:01.889";"1";"0";"0";"72";"71";"module.training_block2.exec-9184.GoNoGo2";;;;;;;;;;;;;;;;;;;;;;;;;;;;;;;;;;;"1250";"2014-07-18 09:18:39.964";"NST_correctLoc";"2";"0";"FINISHED";"LEFT";"success";"316";"0";"2014-07-18 09:18:38.714";"1";;;;;;;;;;;;;;;;;;;;;;;;;;;;;;;;;;;;;;;;;;;;;
"diehard3";"1979";;"Windows 7";"Rachel's Experiment (D.T.)";"1.0";"2";"1";"1";"2";"1";"1";"2014-07-18 09:13:55.549";"2014-07-18 09:29:01.889";"1";"0";"0";"73";"72";"module.training_block2.exec-9184.GoNoGo2";;;;;;;;;;;;;;;;;;;;;;;;;;;;;;;;;;;"1249";"2014-07-18 09:18:42.481";"NST_correctLoc";"32";"1";"FINISHED";"RIGHT";"success";"358";"0";"2014-07-18 09:18:41.231";"3";;;;;;;;;;;;;;;;;;;;;;;;;;;;;;;;;;;;;;;;;;;;;
"diehard3";"1979";;"Windows 7";"Rachel's Experiment (D.T.)";"1.0";"2";"1";"1";"2";"1";"1";"2014-07-18 09:13:55.549";"2014-07-18 09:29:01.889";"1";"0";"0";"74";"73";"module.training_block2.exec-9184.GoNoGo2";;;;;;;;;;;;;;;;;;;;;;;;;;;;;;;;;;;"1249";"2014-07-18 09:18:45.003";"NST_correctLoc";"33";"0";"FINISHED";"LEFT";"success";"332";"0";"2014-07-18 09:18:43.753";"3";;;;;;;;;;;;;;;;;;;;;;;;;;;;;;;;;;;;;;;;;;;;;
"diehard3";"1979";;"Windows 7";"Rachel's Experiment (D.T.)";"1.0";"2";"1";"1";"2";"1";"1";"2014-07-18 09:13:55.549";"2014-07-18 09:29:01.889";"1";"0";"0";"75";"74";"module.training_block2.exec-9184.GoNoGo2";;;;;;;;;;;;;;;;;;;;;;;;;;;;;;;;;;;"1249";"2014-07-18 09:18:47.525";"NST_correctLoc";"13";"0";"FINISHED";"LEFT";"success";"403";"0";"2014-07-18 09:18:46.275";"2";;;;;;;;;;;;;;;;;;;;;;;;;;;;;;;;;;;;;;;;;;;;;
"diehard3";"1979";;"Windows 7";"Rachel's Experiment (D.T.)";"1.0";"2";"1";"1";"2";"1";"1";"2014-07-18 09:13:55.549";"2014-07-18 09:29:01.889";"1";"0";"0";"76";"75";"module.training_block2.exec-9184.GoNoGo2";;;;;;;;;;;;;;;;;;;;;;;;;;;;;;;;;;;"1249";"2014-07-18 09:18:50.046";"NST_correctLoc";"24";"1";"FINISHED";"RIGHT";"success";"393";"0";"2014-07-18 09:18:48.796";"3";;;;;;;;;;;;;;;;;;;;;;;;;;;;;;;;;;;;;;;;;;;;;
"diehard3";"1979";;"Windows 7";"Rachel's Experiment (D.T.)";"1.0";"2";"1";"1";"2";"1";"1";"2014-07-18 09:13:55.549";"2014-07-18 09:29:01.889";"1";"0";"0";"77";"76";"module.training_block2.exec-9184.GoNoGo2";;;;;;;;;;;;;;;;;;;;;;;;;;;;;;;;;;;"1249";"2014-07-18 09:18:52.567";"NST_correctLoc";"35";"0";"FINISHED";"LEFT";"success";"488";"0";"2014-07-18 09:18:51.317";"3";;;;;;;;;;;;;;;;;;;;;;;;;;;;;;;;;;;;;;;;;;;;;
"diehard3";"1979";;"Windows 7";"Rachel's Experiment (D.T.)";"1.0";"2";"1";"1";"2";"1";"1";"2014-07-18 09:13:55.549";"2014-07-18 09:29:01.889";"1";"0";"0";"78";"77";"module.training_block2.exec-9184.GoNoGo2";;;;;;;;;;;;;;;;;;;;;;;;;;;;;;;;;;;"1249";"2014-07-18 09:18:55.096";"NST_correctLoc";"5";"0";"FINISHED";"LEFT";"success";"416";"0";"2014-07-18 09:18:53.845";"1";;;;;;;;;;;;;;;;;;;;;;;;;;;;;;;;;;;;;;;;;;;;;
"diehard3";"1979";;"Windows 7";"Rachel's Experiment (D.T.)";"1.0";"2";"1";"1";"2";"1";"1";"2014-07-18 09:13:55.549";"2014-07-18 09:29:01.889";"1";"0";"0";"79";"78";"module.training_block2.exec-9184.GoNoGo2";;;;;;;;;;;;;;;;;;;;;;;;;;;;;;;;;;;"1250";"2014-07-18 09:18:57.617";"NST_correctLoc";"27";"1";"FINISHED";"RIGHT";"success";"431";"0";"2014-07-18 09:18:56.367";"3";;;;;;;;;;;;;;;;;;;;;;;;;;;;;;;;;;;;;;;;;;;;;
"diehard3";"1979";;"Windows 7";"Rachel's Experiment (D.T.)";"1.0";"2";"1";"1";"2";"1";"1";"2014-07-18 09:13:55.549";"2014-07-18 09:29:01.889";"1";"0";"0";"80";"79";"module.training_block2.exec-9184.GoNoGo2";;;;;;;;;;;;;;;;;;;;;;;;;;;;;;;;;;;"1249";"2014-07-18 09:19:00.137";"NST_correctLoc";"30";"0";"FINISHED";"LEFT";"success";"382";"0";"2014-07-18 09:18:58.887";"3";;;;;;;;;;;;;;;;;;;;;;;;;;;;;;;;;;;;;;;;;;;;;
"diehard3";"1979";;"Windows 7";"Rachel's Experiment (D.T.)";"1.0";"2";"1";"1";"2";"1";"1";"2014-07-18 09:13:55.549";"2014-07-18 09:29:01.889";"1";"0";"0";"81";"80";"module.training_block2.exec-9184.GoNoGo2";;;;;;;;;;;;;;;;;;;;;;;;;;;;;;;;;;;"1250";"2014-07-18 09:19:02.660";"NST_correctLoc";"10";"0";"FINISHED";"LEFT";"success";"380";"0";"2014-07-18 09:19:01.409";"2";;;;;;;;;;;;;;;;;;;;;;;;;;;;;;;;;;;;;;;;;;;;;
"diehard3";"1979";;"Windows 7";"Rachel's Experiment (D.T.)";"1.0";"2";"1";"1";"2";"1";"1";"2014-07-18 09:13:55.549";"2014-07-18 09:29:01.889";"1";"0";"0";"82";"81";"module.training_block2.exec-9184.GoNoGo2";;;;;;;;;;;;;;;;;;;;;;;;;;;;;;;;;;;"1249";"2014-07-18 09:19:05.181";"NST_correctLoc";"20";"0";"FINISHED";"LEFT";"success";"490";"0";"2014-07-18 09:19:03.931";"3";;;;;;;;;;;;;;;;;;;;;;;;;;;;;;;;;;;;;;;;;;;;;
"diehard3";"1979";;"Windows 7";"Rachel's Experiment (D.T.)";"1.0";"2";"1";"1";"2";"1";"1";"2014-07-18 09:13:55.549";"2014-07-18 09:29:01.889";"1";"0";"0";"83";"82";"module.training_block2.exec-9184.GoNoGo2";;;;;;;;;;;;;;;;;;;;;;;;;;;;;;;;;;;"1249";"2014-07-18 09:19:07.702";"NST_correctLoc";"21";"1";"FINISHED";"RIGHT";"success";"657";"0";"2014-07-18 09:19:06.452";"3";;;;;;;;;;;;;;;;;;;;;;;;;;;;;;;;;;;;;;;;;;;;;
"diehard3";"1979";;"Windows 7";"Rachel's Experiment (D.T.)";"1.0";"2";"1";"1";"2";"1";"1";"2014-07-18 09:13:55.549";"2014-07-18 09:29:01.889";"1";"0";"0";"84";"83";"module.training_block2.exec-9184.GoNoGo2";;;;;;;;;;;;;;;;;;;;;;;;;;;;;;;;;;;"1249";"2014-07-18 09:19:10.223";"NST_correctLoc";"34";"0";"FINISHED";"LEFT";"success";"384";"0";"2014-07-18 09:19:08.973";"3";;;;;;;;;;;;;;;;;;;;;;;;;;;;;;;;;;;;;;;;;;;;;
"diehard3";"1979";;"Windows 7";"Rachel's Experiment (D.T.)";"1.0";"2";"1";"1";"2";"1";"1";"2014-07-18 09:13:55.549";"2014-07-18 09:29:01.889";"1";"0";"0";"85";"84";"module.training_block2.exec-9184.GoNoGo2";;;;;;;;;;;;;;;;;;;;;;;;;;;;;;;;;;;"1249";"2014-07-18 09:19:12.744";"NST_correctLoc";"29";"0";"FINISHED";"LEFT";"success";"480";"0";"2014-07-18 09:19:11.494";"3";;;;;;;;;;;;;;;;;;;;;;;;;;;;;;;;;;;;;;;;;;;;;
"diehard3";"1979";;"Windows 7";"Rachel's Experiment (D.T.)";"1.0";"2";"1";"1";"2";"1";"1";"2014-07-18 09:13:55.549";"2014-07-18 09:29:01.889";"1";"0";"0";"86";"85";"module.training_block2.exec-9184.GoNoGo2";;;;;;;;;;;;;;;;;;;;;;;;;;;;;;;;;;;"1249";"2014-07-18 09:19:15.264";"NST_correctLoc";"3";"0";"FINISHED";"LEFT";"success";"639";"0";"2014-07-18 09:19:14.014";"1";;;;;;;;;;;;;;;;;;;;;;;;;;;;;;;;;;;;;;;;;;;;;
"diehard3";"1979";;"Windows 7";"Rachel's Experiment (D.T.)";"1.0";"2";"1";"1";"2";"1";"1";"2014-07-18 09:13:55.549";"2014-07-18 09:29:01.889";"1";"0";"0";"87";"86";"module.training_block2.exec-9184.GoNoGo2";;;;;;;;;;;;;;;;;;;;;;;;;;;;;;;;;;;"1249";"2014-07-18 09:19:17.784";"NST_correctLoc";"12";"0";"FINISHED";"LEFT";"success";"543";"0";"2014-07-18 09:19:16.534";"2";;;;;;;;;;;;;;;;;;;;;;;;;;;;;;;;;;;;;;;;;;;;;
"diehard3";"1979";;"Windows 7";"Rachel's Experiment (D.T.)";"1.0";"2";"1";"1";"2";"1";"1";"2014-07-18 09:13:55.549";"2014-07-18 09:29:01.889";"1";"0";"0";"88";"87";"module.training_block3.exec-5797.GoNoGo3";;;;;;;;;;;;;;;;;;;;;;;;;;;;;;;;;;;;;;;;;;;;;;;"1249";"2014-07-18 09:19:28.370";"NST_correctLoc";"5";"0";"FINISHED";"LEFT";"success";"556";"0";"2014-07-18 09:19:27.120";"1";;;;;;;;;;;;;;;;;;;;;;;;;;;;;;;;;
"diehard3";"1979";;"Windows 7";"Rachel's Experiment (D.T.)";"1.0";"2";"1";"1";"2";"1";"1";"2014-07-18 09:13:55.549";"2014-07-18 09:29:01.889";"1";"0";"0";"89";"88";"module.training_block3.exec-5797.GoNoGo3";;;;;;;;;;;;;;;;;;;;;;;;;;;;;;;;;;;;;;;;;;;;;;;"1249";"2014-07-18 09:19:30.892";"NST_correctLoc";"11";"1";"FINISHED";"RIGHT";"success";"476";"0";"2014-07-18 09:19:29.642";"2";;;;;;;;;;;;;;;;;;;;;;;;;;;;;;;;;
"diehard3";"1979";;"Windows 7";"Rachel's Experiment (D.T.)";"1.0";"2";"1";"1";"2";"1";"1";"2014-07-18 09:13:55.549";"2014-07-18 09:29:01.889";"1";"0";"0";"90";"89";"module.training_block3.exec-5797.GoNoGo3";;;;;;;;;;;;;;;;;;;;;;;;;;;;;;;;;;;;;;;;;;;;;;;"1249";"2014-07-18 09:19:33.408";"NST_correctLoc";"6";"1";"FINISHED";"RIGHT";"success";"495";"0";"2014-07-18 09:19:32.158";"1";;;;;;;;;;;;;;;;;;;;;;;;;;;;;;;;;
"diehard3";"1979";;"Windows 7";"Rachel's Experiment (D.T.)";"1.0";"2";"1";"1";"2";"1";"1";"2014-07-18 09:13:55.549";"2014-07-18 09:29:01.889";"1";"0";"0";"91";"90";"module.training_block3.exec-5797.GoNoGo3";;;;;;;;;;;;;;;;;;;;;;;;;;;;;;;;;;;;;;;;;;;;;;;"1249";"2014-07-18 09:19:35.924";"NST_correctLoc";"9";"0";"FINISHED";"LEFT";"success";"315";"0";"2014-07-18 09:19:34.674";"2";;;;;;;;;;;;;;;;;;;;;;;;;;;;;;;;;
"diehard3";"1979";;"Windows 7";"Rachel's Experiment (D.T.)";"1.0";"2";"1";"1";"2";"1";"1";"2014-07-18 09:13:55.549";"2014-07-18 09:29:01.889";"1";"0";"0";"92";"91";"module.training_block3.exec-5797.GoNoGo3";;;;;;;;;;;;;;;;;;;;;;;;;;;;;;;;;;;;;;;;;;;;;;;"1249";"2014-07-18 09:19:38.443";"NST_correctLoc";"15";"0";"FINISHED";"LEFT";"success";"668";"0";"2014-07-18 09:19:37.193";"2";;;;;;;;;;;;;;;;;;;;;;;;;;;;;;;;;
"diehard3";"1979";;"Windows 7";"Rachel's Experiment (D.T.)";"1.0";"2";"1";"1";"2";"1";"1";"2014-07-18 09:13:55.549";"2014-07-18 09:29:01.889";"1";"0";"0";"93";"92";"module.training_block3.exec-5797.GoNoGo3";;;;;;;;;;;;;;;;;;;;;;;;;;;;;;;;;;;;;;;;;;;;;;;"1249";"2014-07-18 09:19:40.959";"NST_correctLoc";"28";"0";"FINISHED";"LEFT";"success";"568";"0";"2014-07-18 09:19:39.709";"3";;;;;;;;;;;;;;;;;;;;;;;;;;;;;;;;;
"diehard3";"1979";;"Windows 7";"Rachel's Experiment (D.T.)";"1.0";"2";"1";"1";"2";"1";"1";"2014-07-18 09:13:55.549";"2014-07-18 09:29:01.889";"1";"0";"0";"94";"93";"module.training_block3.exec-5797.GoNoGo3";;;;;;;;;;;;;;;;;;;;;;;;;;;;;;;;;;;;;;;;;;;;;;;"1249";"2014-07-18 09:19:43.475";"NST_correctLoc";"13";"0";"FINISHED";"LEFT";"success";"452";"0";"2014-07-18 09:19:42.225";"2";;;;;;;;;;;;;;;;;;;;;;;;;;;;;;;;;
"diehard3";"1979";;"Windows 7";"Rachel's Experiment (D.T.)";"1.0";"2";"1";"1";"2";"1";"1";"2014-07-18 09:13:55.549";"2014-07-18 09:29:01.889";"1";"0";"0";"95";"94";"module.training_block3.exec-5797.GoNoGo3";;;;;;;;;;;;;;;;;;;;;;;;;;;;;;;;;;;;;;;;;;;;;;;"1249";"2014-07-18 09:19:45.991";"NST_correctLoc";"25";"1";"FINISHED";"RIGHT";"success";"407";"0";"2014-07-18 09:19:44.741";"3";;;;;;;;;;;;;;;;;;;;;;;;;;;;;;;;;
"diehard3";"1979";;"Windows 7";"Rachel's Experiment (D.T.)";"1.0";"2";"1";"1";"2";"1";"1";"2014-07-18 09:13:55.549";"2014-07-18 09:29:01.889";"1";"0";"0";"96";"95";"module.training_block3.exec-5797.GoNoGo3";;;;;;;;;;;;;;;;;;;;;;;;;;;;;;;;;;;;;;;;;;;;;;;"1249";"2014-07-18 09:19:48.519";"NST_correctLoc";"0";"0";"FINISHED";"LEFT";"success";"352";"0";"2014-07-18 09:19:47.269";"1";;;;;;;;;;;;;;;;;;;;;;;;;;;;;;;;;
"diehard3";"1979";;"Windows 7";"Rachel's Experiment (D.T.)";"1.0";"2";"1";"1";"2";"1";"1";"2014-07-18 09:13:55.549";"2014-07-18 09:29:01.889";"1";"0";"0";"97";"96";"module.training_block3.exec-5797.GoNoGo3";;;;;;;;;;;;;;;;;;;;;;;;;;;;;;;;;;;;;;;;;;;;;;;"1249";"2014-07-18 09:19:51.035";"NST_correctLoc";"17";"1";"FINISHED";"RIGHT";"success";"308";"0";"2014-07-18 09:19:49.785";"2";;;;;;;;;;;;;;;;;;;;;;;;;;;;;;;;;
"diehard3";"1979";;"Windows 7";"Rachel's Experiment (D.T.)";"1.0";"2";"1";"1";"2";"1";"1";"2014-07-18 09:13:55.549";"2014-07-18 09:29:01.889";"1";"0";"0";"98";"97";"module.training_block3.exec-5797.GoNoGo3";;;;;;;;;;;;;;;;;;;;;;;;;;;;;;;;;;;;;;;;;;;;;;;"1249";"2014-07-18 09:19:53.551";"NST_correctLoc";"35";"1";"FINISHED";"RIGHT";"success";"448";"0";"2014-07-18 09:19:52.301";"3";;;;;;;;;;;;;;;;;;;;;;;;;;;;;;;;;
"diehard3";"1979";;"Windows 7";"Rachel's Experiment (D.T.)";"1.0";"2";"1";"1";"2";"1";"1";"2014-07-18 09:13:55.549";"2014-07-18 09:29:01.889";"1";"0";"0";"99";"98";"module.training_block3.exec-5797.GoNoGo3";;;;;;;;;;;;;;;;;;;;;;;;;;;;;;;;;;;;;;;;;;;;;;;"1249";"2014-07-18 09:19:56.067";"NST_correctLoc";"3";"1";"FINISHED";"RIGHT";"success";"428";"0";"2014-07-18 09:19:54.817";"1";;;;;;;;;;;;;;;;;;;;;;;;;;;;;;;;;
"diehard3";"1979";;"Windows 7";"Rachel's Experiment (D.T.)";"1.0";"2";"1";"1";"2";"1";"1";"2014-07-18 09:13:55.549";"2014-07-18 09:29:01.889";"1";"0";"0";"100";"99";"module.training_block3.exec-5797.GoNoGo3";;;;;;;;;;;;;;;;;;;;;;;;;;;;;;;;;;;;;;;;;;;;;;;"1249";"2014-07-18 09:19:58.583";"NST_correctLoc";"20";"1";"FINISHED";"RIGHT";"success";"448";"0";"2014-07-18 09:19:57.333";"3";;;;;;;;;;;;;;;;;;;;;;;;;;;;;;;;;
"diehard3";"1979";;"Windows 7";"Rachel's Experiment (D.T.)";"1.0";"2";"1";"1";"2";"1";"1";"2014-07-18 09:13:55.549";"2014-07-18 09:29:01.889";"1";"0";"0";"101";"100";"module.training_block3.exec-5797.GoNoGo3";;;;;;;;;;;;;;;;;;;;;;;;;;;;;;;;;;;;;;;;;;;;;;;"1249";"2014-07-18 09:20:01.102";"NST_correctLoc";"29";"1";"FINISHED";"RIGHT";"success";"432";"0";"2014-07-18 09:19:59.852";"3";;;;;;;;;;;;;;;;;;;;;;;;;;;;;;;;;
"diehard3";"1979";;"Windows 7";"Rachel's Experiment (D.T.)";"1.0";"2";"1";"1";"2";"1";"1";"2014-07-18 09:13:55.549";"2014-07-18 09:29:01.889";"1";"0";"0";"102";"101";"module.training_block3.exec-5797.GoNoGo3";;;;;;;;;;;;;;;;;;;;;;;;;;;;;;;;;;;;;;;;;;;;;;;"1249";"2014-07-18 09:20:03.622";"NST_correctLoc";"19";"0";"FINISHED";"LEFT";"success";"344";"0";"2014-07-18 09:20:02.372";"3";;;;;;;;;;;;;;;;;;;;;;;;;;;;;;;;;
"diehard3";"1979";;"Windows 7";"Rachel's Experiment (D.T.)";"1.0";"2";"1";"1";"2";"1";"1";"2014-07-18 09:13:55.549";"2014-07-18 09:29:01.889";"1";"0";"0";"103";"102";"module.training_block3.exec-5797.GoNoGo3";;;;;;;;;;;;;;;;;;;;;;;;;;;;;;;;;;;;;;;;;;;;;;;"1249";"2014-07-18 09:20:06.139";"NST_correctLoc";"10";"1";"FINISHED";"RIGHT";"success";"668";"0";"2014-07-18 09:20:04.889";"2";;;;;;;;;;;;;;;;;;;;;;;;;;;;;;;;;
"diehard3";"1979";;"Windows 7";"Rachel's Experiment (D.T.)";"1.0";"2";"1";"1";"2";"1";"1";"2014-07-18 09:13:55.549";"2014-07-18 09:29:01.889";"1";"0";"0";"104";"103";"module.training_block3.exec-5797.GoNoGo3";;;;;;;;;;;;;;;;;;;;;;;;;;;;;;;;;;;;;;;;;;;;;;;"1249";"2014-07-18 09:20:08.655";"NST_correctLoc";"24";"0";"FINISHED";"LEFT";"success";"536";"0";"2014-07-18 09:20:07.405";"3";;;;;;;;;;;;;;;;;;;;;;;;;;;;;;;;;
"diehard3";"1979";;"Windows 7";"Rachel's Experiment (D.T.)";"1.0";"2";"1";"1";"2";"1";"1";"2014-07-18 09:13:55.549";"2014-07-18 09:29:01.889";"1";"0";"0";"105";"104";"module.training_block3.exec-5797.GoNoGo3";;;;;;;;;;;;;;;;;;;;;;;;;;;;;;;;;;;;;;;;;;;;;;;"1250";"2014-07-18 09:20:11.176";"NST_correctLoc";"16";"0";"FINISHED";"LEFT";"success";"855";"0";"2014-07-18 09:20:09.926";"2";;;;;;;;;;;;;;;;;;;;;;;;;;;;;;;;;
"diehard3";"1979";;"Windows 7";"Rachel's Experiment (D.T.)";"1.0";"2";"1";"1";"2";"1";"1";"2014-07-18 09:13:55.549";"2014-07-18 09:29:01.889";"1";"0";"0";"106";"105";"module.training_block3.exec-5797.GoNoGo3";;;;;;;;;;;;;;;;;;;;;;;;;;;;;;;;;;;;;;;;;;;;;;;"1249";"2014-07-18 09:20:13.692";"NST_correctLoc";"2";"1";"FINISHED";"RIGHT";"success";"555";"0";"2014-07-18 09:20:12.442";"1";;;;;;;;;;;;;;;;;;;;;;;;;;;;;;;;;
"diehard3";"1979";;"Windows 7";"Rachel's Experiment (D.T.)";"1.0";"2";"1";"1";"2";"1";"1";"2014-07-18 09:13:55.549";"2014-07-18 09:29:01.889";"1";"0";"0";"107";"106";"module.training_block3.exec-5797.GoNoGo3";;;;;;;;;;;;;;;;;;;;;;;;;;;;;;;;;;;;;;;;;;;;;;;"1249";"2014-07-18 09:20:16.208";"NST_correctLoc";"27";"1";"FINISHED";"RIGHT";"success";"454";"0";"2014-07-18 09:20:14.958";"3";;;;;;;;;;;;;;;;;;;;;;;;;;;;;;;;;
"diehard3";"1979";;"Windows 7";"Rachel's Experiment (D.T.)";"1.0";"2";"1";"1";"2";"1";"1";"2014-07-18 09:13:55.549";"2014-07-18 09:29:01.889";"1";"0";"0";"108";"107";"module.training_block3.exec-5797.GoNoGo3";;;;;;;;;;;;;;;;;;;;;;;;;;;;;;;;;;;;;;;;;;;;;;;"1250";"2014-07-18 09:20:18.724";"NST_correctLoc";"14";"0";"FINISHED";"LEFT";"success";"347";"0";"2014-07-18 09:20:17.474";"2";;;;;;;;;;;;;;;;;;;;;;;;;;;;;;;;;
"diehard3";"1979";;"Windows 7";"Rachel's Experiment (D.T.)";"1.0";"2";"1";"1";"2";"1";"1";"2014-07-18 09:13:55.549";"2014-07-18 09:29:01.889";"1";"0";"0";"109";"108";"module.training_block3.exec-5797.GoNoGo3";;;;;;;;;;;;;;;;;;;;;;;;;;;;;;;;;;;;;;;;;;;;;;;"1250";"2014-07-18 09:20:21.246";"NST_correctLoc";"26";"0";"FINISHED";"LEFT";"success";"457";"0";"2014-07-18 09:20:19.996";"3";;;;;;;;;;;;;;;;;;;;;;;;;;;;;;;;;
"diehard3";"1979";;"Windows 7";"Rachel's Experiment (D.T.)";"1.0";"2";"1";"1";"2";"1";"1";"2014-07-18 09:13:55.549";"2014-07-18 09:29:01.889";"1";"0";"0";"110";"109";"module.training_block3.exec-5797.GoNoGo3";;;;;;;;;;;;;;;;;;;;;;;;;;;;;;;;;;;;;;;;;;;;;;;"1249";"2014-07-18 09:20:23.767";"NST_correctLoc";"7";"1";"FINISHED";"RIGHT";"success";"560";"0";"2014-07-18 09:20:22.517";"1";;;;;;;;;;;;;;;;;;;;;;;;;;;;;;;;;
"diehard3";"1979";;"Windows 7";"Rachel's Experiment (D.T.)";"1.0";"2";"1";"1";"2";"1";"1";"2014-07-18 09:13:55.549";"2014-07-18 09:29:01.889";"1";"0";"0";"111";"110";"module.training_block3.exec-5797.GoNoGo3";;;;;;;;;;;;;;;;;;;;;;;;;;;;;;;;;;;;;;;;;;;;;;;"1249";"2014-07-18 09:20:26.283";"NST_correctLoc";"33";"0";"FINISHED";"LEFT";"success";"468";"0";"2014-07-18 09:20:25.033";"3";;;;;;;;;;;;;;;;;;;;;;;;;;;;;;;;;
"diehard3";"1979";;"Windows 7";"Rachel's Experiment (D.T.)";"1.0";"2";"1";"1";"2";"1";"1";"2014-07-18 09:13:55.549";"2014-07-18 09:29:01.889";"1";"0";"0";"112";"111";"module.training_block3.exec-5797.GoNoGo3";;;;;;;;;;;;;;;;;;;;;;;;;;;;;;;;;;;;;;;;;;;;;;;"1249";"2014-07-18 09:20:28.803";"NST_correctLoc";"18";"1";"FINISHED";"RIGHT";"success";"604";"0";"2014-07-18 09:20:27.553";"3";;;;;;;;;;;;;;;;;;;;;;;;;;;;;;;;;
"diehard3";"1979";;"Windows 7";"Rachel's Experiment (D.T.)";"1.0";"2";"1";"1";"2";"1";"1";"2014-07-18 09:13:55.549";"2014-07-18 09:29:01.889";"1";"0";"0";"113";"112";"module.training_block3.exec-5797.GoNoGo3";;;;;;;;;;;;;;;;;;;;;;;;;;;;;;;;;;;;;;;;;;;;;;;"1249";"2014-07-18 09:20:31.319";"NST_correctLoc";"1";"0";"FINISHED";"LEFT";"success";"671";"0";"2014-07-18 09:20:30.069";"1";;;;;;;;;;;;;;;;;;;;;;;;;;;;;;;;;
"diehard3";"1979";;"Windows 7";"Rachel's Experiment (D.T.)";"1.0";"2";"1";"1";"2";"1";"1";"2014-07-18 09:13:55.549";"2014-07-18 09:29:01.889";"1";"0";"0";"114";"113";"module.training_block3.exec-5797.GoNoGo3";;;;;;;;;;;;;;;;;;;;;;;;;;;;;;;;;;;;;;;;;;;;;;;"1249";"2014-07-18 09:20:33.835";"NST_correctLoc";"12";"0";"FINISHED";"LEFT";"success";"539";"0";"2014-07-18 09:20:32.585";"2";;;;;;;;;;;;;;;;;;;;;;;;;;;;;;;;;
"diehard3";"1979";;"Windows 7";"Rachel's Experiment (D.T.)";"1.0";"2";"1";"1";"2";"1";"1";"2014-07-18 09:13:55.549";"2014-07-18 09:29:01.889";"1";"0";"0";"115";"114";"module.training_block3.exec-5797.GoNoGo3";;;;;;;;;;;;;;;;;;;;;;;;;;;;;;;;;;;;;;;;;;;;;;;"1249";"2014-07-18 09:20:36.351";"NST_correctLoc";"32";"0";"FINISHED";"LEFT";"success";"423";"0";"2014-07-18 09:20:35.101";"3";;;;;;;;;;;;;;;;;;;;;;;;;;;;;;;;;
"diehard3";"1979";;"Windows 7";"Rachel's Experiment (D.T.)";"1.0";"2";"1";"1";"2";"1";"1";"2014-07-18 09:13:55.549";"2014-07-18 09:29:01.889";"1";"0";"0";"116";"115";"module.training_block3.exec-5797.GoNoGo3";;;;;;;;;;;;;;;;;;;;;;;;;;;;;;;;;;;;;;;;;;;;;;;"1249";"2014-07-18 09:20:38.867";"NST_correctLoc";"8";"0";"FINISHED";"LEFT";"success";"379";"0";"2014-07-18 09:20:37.617";"1";;;;;;;;;;;;;;;;;;;;;;;;;;;;;;;;;
"diehard3";"1979";;"Windows 7";"Rachel's Experiment (D.T.)";"1.0";"2";"1";"1";"2";"1";"1";"2014-07-18 09:13:55.549";"2014-07-18 09:29:01.889";"1";"0";"0";"117";"116";"module.training_block3.exec-5797.GoNoGo3";;;;;;;;;;;;;;;;;;;;;;;;;;;;;;;;;;;;;;;;;;;;;;;"1249";"2014-07-18 09:20:41.384";"NST_correctLoc";"34";"0";"FINISHED";"LEFT";"success";"447";"0";"2014-07-18 09:20:40.134";"3";;;;;;;;;;;;;;;;;;;;;;;;;;;;;;;;;
"diehard3";"1979";;"Windows 7";"Rachel's Experiment (D.T.)";"1.0";"2";"1";"1";"2";"1";"1";"2014-07-18 09:13:55.549";"2014-07-18 09:29:01.889";"1";"0";"0";"118";"117";"module.training_block3.exec-5797.GoNoGo3";;;;;;;;;;;;;;;;;;;;;;;;;;;;;;;;;;;;;;;;;;;;;;;"1249";"2014-07-18 09:20:43.900";"NST_correctLoc";"30";"0";"FINISHED";"LEFT";"success";"395";"0";"2014-07-18 09:20:42.650";"3";;;;;;;;;;;;;;;;;;;;;;;;;;;;;;;;;
"diehard3";"1979";;"Windows 7";"Rachel's Experiment (D.T.)";"1.0";"2";"1";"1";"2";"1";"1";"2014-07-18 09:13:55.549";"2014-07-18 09:29:01.889";"1";"0";"0";"119";"118";"module.training_block3.exec-5797.GoNoGo3";;;;;;;;;;;;;;;;;;;;;;;;;;;;;;;;;;;;;;;;;;;;;;;"1250";"2014-07-18 09:20:46.416";"NST_correctLoc";"22";"1";"FINISHED";"RIGHT";"success";"407";"0";"2014-07-18 09:20:45.166";"3";;;;;;;;;;;;;;;;;;;;;;;;;;;;;;;;;
"diehard3";"1979";;"Windows 7";"Rachel's Experiment (D.T.)";"1.0";"2";"1";"1";"2";"1";"1";"2014-07-18 09:13:55.549";"2014-07-18 09:29:01.889";"1";"0";"0";"120";"119";"module.training_block3.exec-5797.GoNoGo3";;;;;;;;;;;;;;;;;;;;;;;;;;;;;;;;;;;;;;;;;;;;;;;"1249";"2014-07-18 09:20:48.932";"NST_correctLoc";"23";"0";"FINISHED";"LEFT";"success";"282";"0";"2014-07-18 09:20:47.682";"3";;;;;;;;;;;;;;;;;;;;;;;;;;;;;;;;;
"diehard3";"1979";;"Windows 7";"Rachel's Experiment (D.T.)";"1.0";"2";"1";"1";"2";"1";"1";"2014-07-18 09:13:55.549";"2014-07-18 09:29:01.889";"1";"0";"0";"121";"120";"module.training_block3.exec-5797.GoNoGo3";;;;;;;;;;;;;;;;;;;;;;;;;;;;;;;;;;;;;;;;;;;;;;;"1249";"2014-07-18 09:20:51.453";"NST_correctLoc";"21";"1";"FINISHED";"RIGHT";"success";"417";"0";"2014-07-18 09:20:50.203";"3";;;;;;;;;;;;;;;;;;;;;;;;;;;;;;;;;
"diehard3";"1979";;"Windows 7";"Rachel's Experiment (D.T.)";"1.0";"2";"1";"1";"2";"1";"1";"2014-07-18 09:13:55.549";"2014-07-18 09:29:01.889";"1";"0";"0";"122";"121";"module.training_block3.exec-5797.GoNoGo3";;;;;;;;;;;;;;;;;;;;;;;;;;;;;;;;;;;;;;;;;;;;;;;"1250";"2014-07-18 09:20:53.975";"NST_correctLoc";"31";"1";"FINISHED";"RIGHT";"success";"376";"0";"2014-07-18 09:20:52.725";"3";;;;;;;;;;;;;;;;;;;;;;;;;;;;;;;;;
"diehard3";"1979";;"Windows 7";"Rachel's Experiment (D.T.)";"1.0";"2";"1";"1";"2";"1";"1";"2014-07-18 09:13:55.549";"2014-07-18 09:29:01.889";"1";"0";"0";"123";"122";"module.training_block3.exec-5797.GoNoGo3";;;;;;;;;;;;;;;;;;;;;;;;;;;;;;;;;;;;;;;;;;;;;;;"1249";"2014-07-18 09:20:56.493";"NST_correctLoc";"4";"0";"FINISHED";"LEFT";"success";"378";"0";"2014-07-18 09:20:55.242";"1";;;;;;;;;;;;;;;;;;;;;;;;;;;;;;;;;
"diehard3";"1979";;"Windows 7";"Rachel's Experiment (D.T.)";"1.0";"2";"1";"1";"2";"1";"1";"2014-07-18 09:13:55.549";"2014-07-18 09:29:01.889";"1";"0";"0";"124";"123";"module.training_block4.exec-7298.GoNoGo4";;;;;;;;;;;;;;;;;;;;;;;;;;;;;;;;;;;;;;;;;;;;;;;;;;;;;;;;;;;"1249";"2014-07-18 09:21:08.218";"NST_correctLoc";"5";"0";"FINISHED";"LEFT";"success";"700";"0";"2014-07-18 09:21:06.968";"1";;;;;;;;;;;;;;;;;;;;;
"diehard3";"1979";;"Windows 7";"Rachel's Experiment (D.T.)";"1.0";"2";"1";"1";"2";"1";"1";"2014-07-18 09:13:55.549";"2014-07-18 09:29:01.889";"1";"0";"0";"125";"124";"module.training_block4.exec-7298.GoNoGo4";;;;;;;;;;;;;;;;;;;;;;;;;;;;;;;;;;;;;;;;;;;;;;;;;;;;;;;;;;;"1249";"2014-07-18 09:21:10.734";"NST_correctLoc";"35";"1";"FINISHED";"RIGHT";"success";"368";"0";"2014-07-18 09:21:09.484";"3";;;;;;;;;;;;;;;;;;;;;
"diehard3";"1979";;"Windows 7";"Rachel's Experiment (D.T.)";"1.0";"2";"1";"1";"2";"1";"1";"2014-07-18 09:13:55.549";"2014-07-18 09:29:01.889";"1";"0";"0";"126";"125";"module.training_block4.exec-7298.GoNoGo4";;;;;;;;;;;;;;;;;;;;;;;;;;;;;;;;;;;;;;;;;;;;;;;;;;;;;;;;;;;"1249";"2014-07-18 09:21:13.250";"NST_correctLoc";"0";"0";"FINISHED";"LEFT";"success";"500";"0";"2014-07-18 09:21:12.000";"1";;;;;;;;;;;;;;;;;;;;;
"diehard3";"1979";;"Windows 7";"Rachel's Experiment (D.T.)";"1.0";"2";"1";"1";"2";"1";"1";"2014-07-18 09:13:55.549";"2014-07-18 09:29:01.889";"1";"0";"0";"127";"126";"module.training_block4.exec-7298.GoNoGo4";;;;;;;;;;;;;;;;;;;;;;;;;;;;;;;;;;;;;;;;;;;;;;;;;;;;;;;;;;;"1249";"2014-07-18 09:21:15.767";"NST_correctLoc";"22";"1";"FINISHED";"RIGHT";"success";"408";"0";"2014-07-18 09:21:14.517";"3";;;;;;;;;;;;;;;;;;;;;
"diehard3";"1979";;"Windows 7";"Rachel's Experiment (D.T.)";"1.0";"2";"1";"1";"2";"1";"1";"2014-07-18 09:13:55.549";"2014-07-18 09:29:01.889";"1";"0";"0";"128";"127";"module.training_block4.exec-7298.GoNoGo4";;;;;;;;;;;;;;;;;;;;;;;;;;;;;;;;;;;;;;;;;;;;;;;;;;;;;;;;;;;"1249";"2014-07-18 09:21:18.283";"NST_correctLoc";"30";"0";"FINISHED";"LEFT";"success";"331";"0";"2014-07-18 09:21:17.033";"3";;;;;;;;;;;;;;;;;;;;;
"diehard3";"1979";;"Windows 7";"Rachel's Experiment (D.T.)";"1.0";"2";"1";"1";"2";"1";"1";"2014-07-18 09:13:55.549";"2014-07-18 09:29:01.889";"1";"0";"0";"129";"128";"module.training_block4.exec-7298.GoNoGo4";;;;;;;;;;;;;;;;;;;;;;;;;;;;;;;;;;;;;;;;;;;;;;;;;;;;;;;;;;;"1249";"2014-07-18 09:21:20.799";"NST_correctLoc";"8";"1";"FINISHED";"RIGHT";"success";"359";"0";"2014-07-18 09:21:19.549";"1";;;;;;;;;;;;;;;;;;;;;
"diehard3";"1979";;"Windows 7";"Rachel's Experiment (D.T.)";"1.0";"2";"1";"1";"2";"1";"1";"2014-07-18 09:13:55.549";"2014-07-18 09:29:01.889";"1";"0";"0";"130";"129";"module.training_block4.exec-7298.GoNoGo4";;;;;;;;;;;;;;;;;;;;;;;;;;;;;;;;;;;;;;;;;;;;;;;;;;;;;;;;;;;"1249";"2014-07-18 09:21:23.315";"NST_correctLoc";"12";"0";"FINISHED";"LEFT";"success";"331";"0";"2014-07-18 09:21:22.065";"2";;;;;;;;;;;;;;;;;;;;;
"diehard3";"1979";;"Windows 7";"Rachel's Experiment (D.T.)";"1.0";"2";"1";"1";"2";"1";"1";"2014-07-18 09:13:55.549";"2014-07-18 09:29:01.889";"1";"0";"0";"131";"130";"module.training_block4.exec-7298.GoNoGo4";;;;;;;;;;;;;;;;;;;;;;;;;;;;;;;;;;;;;;;;;;;;;;;;;;;;;;;;;;;"1249";"2014-07-18 09:21:25.831";"NST_correctLoc";"31";"0";"FINISHED";"LEFT";"success";"319";"0";"2014-07-18 09:21:24.581";"3";;;;;;;;;;;;;;;;;;;;;
"diehard3";"1979";;"Windows 7";"Rachel's Experiment (D.T.)";"1.0";"2";"1";"1";"2";"1";"1";"2014-07-18 09:13:55.549";"2014-07-18 09:29:01.889";"1";"0";"0";"132";"131";"module.training_block4.exec-7298.GoNoGo4";;;;;;;;;;;;;;;;;;;;;;;;;;;;;;;;;;;;;;;;;;;;;;;;;;;;;;;;;;;"1250";"2014-07-18 09:21:28.347";"NST_correctLoc";"11";"0";"FINISHED";"LEFT";"success";"316";"0";"2014-07-18 09:21:27.097";"2";;;;;;;;;;;;;;;;;;;;;
"diehard3";"1979";;"Windows 7";"Rachel's Experiment (D.T.)";"1.0";"2";"1";"1";"2";"1";"1";"2014-07-18 09:13:55.549";"2014-07-18 09:29:01.889";"1";"0";"0";"133";"132";"module.training_block4.exec-7298.GoNoGo4";;;;;;;;;;;;;;;;;;;;;;;;;;;;;;;;;;;;;;;;;;;;;;;;;;;;;;;;;;;"1249";"2014-07-18 09:21:30.863";"NST_correctLoc";"4";"0";"FINISHED";"LEFT";"success";"383";"0";"2014-07-18 09:21:29.613";"1";;;;;;;;;;;;;;;;;;;;;
"diehard3";"1979";;"Windows 7";"Rachel's Experiment (D.T.)";"1.0";"2";"1";"1";"2";"1";"1";"2014-07-18 09:13:55.549";"2014-07-18 09:29:01.889";"1";"0";"0";"134";"133";"module.training_block4.exec-7298.GoNoGo4";;;;;;;;;;;;;;;;;;;;;;;;;;;;;;;;;;;;;;;;;;;;;;;;;;;;;;;;;;;"1249";"2014-07-18 09:21:33.380";"NST_correctLoc";"13";"1";"FINISHED";"RIGHT";"success";"403";"0";"2014-07-18 09:21:32.130";"2";;;;;;;;;;;;;;;;;;;;;
"diehard3";"1979";;"Windows 7";"Rachel's Experiment (D.T.)";"1.0";"2";"1";"1";"2";"1";"1";"2014-07-18 09:13:55.549";"2014-07-18 09:29:01.889";"1";"0";"0";"135";"134";"module.training_block4.exec-7298.GoNoGo4";;;;;;;;;;;;;;;;;;;;;;;;;;;;;;;;;;;;;;;;;;;;;;;;;;;;;;;;;;;"1249";"2014-07-18 09:21:35.896";"NST_correctLoc";"10";"0";"FINISHED";"LEFT";"success";"311";"0";"2014-07-18 09:21:34.646";"2";;;;;;;;;;;;;;;;;;;;;
"diehard3";"1979";;"Windows 7";"Rachel's Experiment (D.T.)";"1.0";"2";"1";"1";"2";"1";"1";"2014-07-18 09:13:55.549";"2014-07-18 09:29:01.889";"1";"0";"0";"136";"135";"module.training_block4.exec-7298.GoNoGo4";;;;;;;;;;;;;;;;;;;;;;;;;;;;;;;;;;;;;;;;;;;;;;;;;;;;;;;;;;;"1249";"2014-07-18 09:21:38.412";"NST_correctLoc";"3";"0";"FINISHED";"LEFT";"success";"370";"0";"2014-07-18 09:21:37.162";"1";;;;;;;;;;;;;;;;;;;;;
"diehard3";"1979";;"Windows 7";"Rachel's Experiment (D.T.)";"1.0";"2";"1";"1";"2";"1";"1";"2014-07-18 09:13:55.549";"2014-07-18 09:29:01.889";"1";"0";"0";"137";"136";"module.training_block4.exec-7298.GoNoGo4";;;;;;;;;;;;;;;;;;;;;;;;;;;;;;;;;;;;;;;;;;;;;;;;;;;;;;;;;;;"1249";"2014-07-18 09:21:40.928";"NST_correctLoc";"28";"0";"FINISHED";"LEFT";"success";"526";"0";"2014-07-18 09:21:39.678";"3";;;;;;;;;;;;;;;;;;;;;
"diehard3";"1979";;"Windows 7";"Rachel's Experiment (D.T.)";"1.0";"2";"1";"1";"2";"1";"1";"2014-07-18 09:13:55.549";"2014-07-18 09:29:01.889";"1";"0";"0";"138";"137";"module.training_block4.exec-7298.GoNoGo4";;;;;;;;;;;;;;;;;;;;;;;;;;;;;;;;;;;;;;;;;;;;;;;;;;;;;;;;;;;"1249";"2014-07-18 09:21:43.444";"NST_correctLoc";"27";"0";"FINISHED";"LEFT";"success";"370";"0";"2014-07-18 09:21:42.194";"3";;;;;;;;;;;;;;;;;;;;;
"diehard3";"1979";;"Windows 7";"Rachel's Experiment (D.T.)";"1.0";"2";"1";"1";"2";"1";"1";"2014-07-18 09:13:55.549";"2014-07-18 09:29:01.889";"1";"0";"0";"139";"138";"module.training_block4.exec-7298.GoNoGo4";;;;;;;;;;;;;;;;;;;;;;;;;;;;;;;;;;;;;;;;;;;;;;;;;;;;;;;;;;;"1250";"2014-07-18 09:21:45.959";"NST_correctLoc";"29";"0";"FINISHED";"LEFT";"success";"327";"0";"2014-07-18 09:21:44.709";"3";;;;;;;;;;;;;;;;;;;;;
"diehard3";"1979";;"Windows 7";"Rachel's Experiment (D.T.)";"1.0";"2";"1";"1";"2";"1";"1";"2014-07-18 09:13:55.549";"2014-07-18 09:29:01.889";"1";"0";"0";"140";"139";"module.training_block4.exec-7298.GoNoGo4";;;;;;;;;;;;;;;;;;;;;;;;;;;;;;;;;;;;;;;;;;;;;;;;;;;;;;;;;;;"1249";"2014-07-18 09:21:48.475";"NST_correctLoc";"33";"1";"FINISHED";"RIGHT";"success";"451";"0";"2014-07-18 09:21:47.225";"3";;;;;;;;;;;;;;;;;;;;;
"diehard3";"1979";;"Windows 7";"Rachel's Experiment (D.T.)";"1.0";"2";"1";"1";"2";"1";"1";"2014-07-18 09:13:55.549";"2014-07-18 09:29:01.889";"1";"0";"0";"141";"140";"module.training_block4.exec-7298.GoNoGo4";;;;;;;;;;;;;;;;;;;;;;;;;;;;;;;;;;;;;;;;;;;;;;;;;;;;;;;;;;;"1249";"2014-07-18 09:21:50.992";"NST_correctLoc";"34";"1";"FINISHED";"RIGHT";"success";"638";"0";"2014-07-18 09:21:49.742";"3";;;;;;;;;;;;;;;;;;;;;
"diehard3";"1979";;"Windows 7";"Rachel's Experiment (D.T.)";"1.0";"2";"1";"1";"2";"1";"1";"2014-07-18 09:13:55.549";"2014-07-18 09:29:01.889";"1";"0";"0";"142";"141";"module.training_block4.exec-7298.GoNoGo4";;;;;;;;;;;;;;;;;;;;;;;;;;;;;;;;;;;;;;;;;;;;;;;;;;;;;;;;;;;"1249";"2014-07-18 09:21:53.507";"NST_correctLoc";"24";"0";"FINISHED";"LEFT";"success";"403";"0";"2014-07-18 09:21:52.257";"3";;;;;;;;;;;;;;;;;;;;;
"diehard3";"1979";;"Windows 7";"Rachel's Experiment (D.T.)";"1.0";"2";"1";"1";"2";"1";"1";"2014-07-18 09:13:55.549";"2014-07-18 09:29:01.889";"1";"0";"0";"143";"142";"module.training_block4.exec-7298.GoNoGo4";;;;;;;;;;;;;;;;;;;;;;;;;;;;;;;;;;;;;;;;;;;;;;;;;;;;;;;;;;;"1249";"2014-07-18 09:21:56.022";"NST_correctLoc";"16";"0";"FINISHED";"LEFT";"success";"568";"0";"2014-07-18 09:21:54.772";"2";;;;;;;;;;;;;;;;;;;;;
"diehard3";"1979";;"Windows 7";"Rachel's Experiment (D.T.)";"1.0";"2";"1";"1";"2";"1";"1";"2014-07-18 09:13:55.549";"2014-07-18 09:29:01.889";"1";"0";"0";"144";"143";"module.training_block4.exec-7298.GoNoGo4";;;;;;;;;;;;;;;;;;;;;;;;;;;;;;;;;;;;;;;;;;;;;;;;;;;;;;;;;;;"1249";"2014-07-18 09:21:58.537";"NST_correctLoc";"25";"1";"FINISHED";"RIGHT";"success";"429";"0";"2014-07-18 09:21:57.287";"3";;;;;;;;;;;;;;;;;;;;;
"diehard3";"1979";;"Windows 7";"Rachel's Experiment (D.T.)";"1.0";"2";"1";"1";"2";"1";"1";"2014-07-18 09:13:55.549";"2014-07-18 09:29:01.889";"1";"0";"0";"145";"144";"module.training_block4.exec-7298.GoNoGo4";;;;;;;;;;;;;;;;;;;;;;;;;;;;;;;;;;;;;;;;;;;;;;;;;;;;;;;;;;;"1249";"2014-07-18 09:22:01.052";"NST_correctLoc";"6";"0";"FINISHED";"LEFT";"success";"490";"0";"2014-07-18 09:21:59.802";"1";;;;;;;;;;;;;;;;;;;;;
"diehard3";"1979";;"Windows 7";"Rachel's Experiment (D.T.)";"1.0";"2";"1";"1";"2";"1";"1";"2014-07-18 09:13:55.549";"2014-07-18 09:29:01.889";"1";"0";"0";"146";"145";"module.training_block4.exec-7298.GoNoGo4";;;;;;;;;;;;;;;;;;;;;;;;;;;;;;;;;;;;;;;;;;;;;;;;;;;;;;;;;;;"1249";"2014-07-18 09:22:03.567";"NST_correctLoc";"32";"1";"FINISHED";"RIGHT";"success";"495";"0";"2014-07-18 09:22:02.317";"3";;;;;;;;;;;;;;;;;;;;;
"diehard3";"1979";;"Windows 7";"Rachel's Experiment (D.T.)";"1.0";"2";"1";"1";"2";"1";"1";"2014-07-18 09:13:55.549";"2014-07-18 09:29:01.889";"1";"0";"0";"147";"146";"module.training_block4.exec-7298.GoNoGo4";;;;;;;;;;;;;;;;;;;;;;;;;;;;;;;;;;;;;;;;;;;;;;;;;;;;;;;;;;;"1249";"2014-07-18 09:22:06.087";"NST_correctLoc";"17";"1";"FINISHED";"RIGHT";"success";"686";"0";"2014-07-18 09:22:04.837";"2";;;;;;;;;;;;;;;;;;;;;
"diehard3";"1979";;"Windows 7";"Rachel's Experiment (D.T.)";"1.0";"2";"1";"1";"2";"1";"1";"2014-07-18 09:13:55.549";"2014-07-18 09:29:01.889";"1";"0";"0";"148";"147";"module.training_block4.exec-7298.GoNoGo4";;;;;;;;;;;;;;;;;;;;;;;;;;;;;;;;;;;;;;;;;;;;;;;;;;;;;;;;;;;"1249";"2014-07-18 09:22:08.609";"NST_correctLoc";"7";"1";"FINISHED";"RIGHT";"success";"558";"0";"2014-07-18 09:22:07.359";"1";;;;;;;;;;;;;;;;;;;;;
"diehard3";"1979";;"Windows 7";"Rachel's Experiment (D.T.)";"1.0";"2";"1";"1";"2";"1";"1";"2014-07-18 09:13:55.549";"2014-07-18 09:29:01.889";"1";"0";"0";"149";"148";"module.training_block4.exec-7298.GoNoGo4";;;;;;;;;;;;;;;;;;;;;;;;;;;;;;;;;;;;;;;;;;;;;;;;;;;;;;;;;;;"1249";"2014-07-18 09:22:11.125";"NST_correctLoc";"23";"0";"FINISHED";"LEFT";"success";"465";"0";"2014-07-18 09:22:09.875";"3";;;;;;;;;;;;;;;;;;;;;
"diehard3";"1979";;"Windows 7";"Rachel's Experiment (D.T.)";"1.0";"2";"1";"1";"2";"1";"1";"2014-07-18 09:13:55.549";"2014-07-18 09:29:01.889";"1";"0";"0";"150";"149";"module.training_block4.exec-7298.GoNoGo4";;;;;;;;;;;;;;;;;;;;;;;;;;;;;;;;;;;;;;;;;;;;;;;;;;;;;;;;;;;"1249";"2014-07-18 09:22:13.641";"NST_correctLoc";"20";"1";"FINISHED";"RIGHT";"success";"701";"0";"2014-07-18 09:22:12.391";"3";;;;;;;;;;;;;;;;;;;;;
"diehard3";"1979";;"Windows 7";"Rachel's Experiment (D.T.)";"1.0";"2";"1";"1";"2";"1";"1";"2014-07-18 09:13:55.549";"2014-07-18 09:29:01.889";"1";"0";"0";"151";"150";"module.training_block4.exec-7298.GoNoGo4";;;;;;;;;;;;;;;;;;;;;;;;;;;;;;;;;;;;;;;;;;;;;;;;;;;;;;;;;;;"1249";"2014-07-18 09:22:16.160";"NST_correctLoc";"19";"0";"FINISHED";"LEFT";"success";"414";"0";"2014-07-18 09:22:14.910";"3";;;;;;;;;;;;;;;;;;;;;
"diehard3";"1979";;"Windows 7";"Rachel's Experiment (D.T.)";"1.0";"2";"1";"1";"2";"1";"1";"2014-07-18 09:13:55.549";"2014-07-18 09:29:01.889";"1";"0";"0";"152";"151";"module.training_block4.exec-7298.GoNoGo4";;;;;;;;;;;;;;;;;;;;;;;;;;;;;;;;;;;;;;;;;;;;;;;;;;;;;;;;;;;"1249";"2014-07-18 09:22:18.675";"NST_correctLoc";"2";"1";"FINISHED";"RIGHT";"success";"395";"0";"2014-07-18 09:22:17.425";"1";;;;;;;;;;;;;;;;;;;;;
"diehard3";"1979";;"Windows 7";"Rachel's Experiment (D.T.)";"1.0";"2";"1";"1";"2";"1";"1";"2014-07-18 09:13:55.549";"2014-07-18 09:29:01.889";"1";"0";"0";"153";"152";"module.training_block4.exec-7298.GoNoGo4";;;;;;;;;;;;;;;;;;;;;;;;;;;;;;;;;;;;;;;;;;;;;;;;;;;;;;;;;;;"1249";"2014-07-18 09:22:21.195";"NST_correctLoc";"26";"1";"FINISHED";"RIGHT";"success";"459";"0";"2014-07-18 09:22:19.945";"3";;;;;;;;;;;;;;;;;;;;;
"diehard3";"1979";;"Windows 7";"Rachel's Experiment (D.T.)";"1.0";"2";"1";"1";"2";"1";"1";"2014-07-18 09:13:55.549";"2014-07-18 09:29:01.889";"1";"0";"0";"154";"153";"module.training_block4.exec-7298.GoNoGo4";;;;;;;;;;;;;;;;;;;;;;;;;;;;;;;;;;;;;;;;;;;;;;;;;;;;;;;;;;;"1249";"2014-07-18 09:22:23.704";"NST_correctLoc";"21";"1";"FINISHED";"RIGHT";"success";"485";"0";"2014-07-18 09:22:22.454";"3";;;;;;;;;;;;;;;;;;;;;
"diehard3";"1979";;"Windows 7";"Rachel's Experiment (D.T.)";"1.0";"2";"1";"1";"2";"1";"1";"2014-07-18 09:13:55.549";"2014-07-18 09:29:01.889";"1";"0";"0";"155";"154";"module.training_block4.exec-7298.GoNoGo4";;;;;;;;;;;;;;;;;;;;;;;;;;;;;;;;;;;;;;;;;;;;;;;;;;;;;;;;;;;"1249";"2014-07-18 09:22:26.224";"NST_correctLoc";"18";"1";"FINISHED";"RIGHT";"success";"606";"0";"2014-07-18 09:22:24.974";"3";;;;;;;;;;;;;;;;;;;;;
"diehard3";"1979";;"Windows 7";"Rachel's Experiment (D.T.)";"1.0";"2";"1";"1";"2";"1";"1";"2014-07-18 09:13:55.549";"2014-07-18 09:29:01.889";"1";"0";"0";"156";"155";"module.training_block4.exec-7298.GoNoGo4";;;;;;;;;;;;;;;;;;;;;;;;;;;;;;;;;;;;;;;;;;;;;;;;;;;;;;;;;;;"1249";"2014-07-18 09:22:28.739";"NST_correctLoc";"15";"1";"FINISHED";"RIGHT";"success";"491";"0";"2014-07-18 09:22:27.489";"2";;;;;;;;;;;;;;;;;;;;;
"diehard3";"1979";;"Windows 7";"Rachel's Experiment (D.T.)";"1.0";"2";"1";"1";"2";"1";"1";"2014-07-18 09:13:55.549";"2014-07-18 09:29:01.889";"1";"0";"0";"157";"156";"module.training_block4.exec-7298.GoNoGo4";;;;;;;;;;;;;;;;;;;;;;;;;;;;;;;;;;;;;;;;;;;;;;;;;;;;;;;;;;;"1249";"2014-07-18 09:22:31.254";"NST_correctLoc";"1";"1";"FINISHED";"RIGHT";"success";"432";"0";"2014-07-18 09:22:30.004";"1";;;;;;;;;;;;;;;;;;;;;
"diehard3";"1979";;"Windows 7";"Rachel's Experiment (D.T.)";"1.0";"2";"1";"1";"2";"1";"1";"2014-07-18 09:13:55.549";"2014-07-18 09:29:01.889";"1";"0";"0";"158";"157";"module.training_block4.exec-7298.GoNoGo4";;;;;;;;;;;;;;;;;;;;;;;;;;;;;;;;;;;;;;;;;;;;;;;;;;;;;;;;;;;"1249";"2014-07-18 09:22:33.769";"NST_correctLoc";"14";"0";"FINISHED";"LEFT";"success";"365";"0";"2014-07-18 09:22:32.519";"2";;;;;;;;;;;;;;;;;;;;;
"diehard3";"1979";;"Windows 7";"Rachel's Experiment (D.T.)";"1.0";"2";"1";"1";"2";"1";"1";"2014-07-18 09:13:55.549";"2014-07-18 09:29:01.889";"1";"0";"0";"159";"158";"module.training_block4.exec-7298.GoNoGo4";;;;;;;;;;;;;;;;;;;;;;;;;;;;;;;;;;;;;;;;;;;;;;;;;;;;;;;;;;;"1249";"2014-07-18 09:22:36.284";"NST_correctLoc";"9";"0";"FINISHED";"LEFT";"success";"481";"0";"2014-07-18 09:22:35.034";"2";;;;;;;;;;;;;;;;;;;;;
"diehard3";"1979";;"Windows 7";"Rachel's Experiment (D.T.)";"1.0";"2";"1";"1";"2";"1";"1";"2014-07-18 09:13:55.549";"2014-07-18 09:29:01.889";"1";"0";"0";"160";"159";"module.devaluation_practice.exec-4327.devalPractice";;;;;;;;;;;;"16737";"2014-07-18 09:23:29.516";"0";"7";"7";"5";"6070";"4385";"3243";"2014-07-18 09:23:12.778";;;;;;;;;;;;;;;;;;;;;;;;;;;;;;;;;;;;;;;;;;;;;;;;;;;;;;;;;;;;;;;;;;;;;;
"diehard3";"1979";;"Windows 7";"Rachel's Experiment (D.T.)";"1.0";"2";"1";"1";"2";"1";"1";"2014-07-18 09:13:55.549";"2014-07-18 09:29:01.889";"1";"0";"0";"161";"160";"module.devaluation_practice.exec-4327.devalPractice";;;;;;;;;;;;"9620";"2014-07-18 09:23:39.156";"1";"3";"5";"4";"3258";"1112";"2242";"2014-07-18 09:23:29.535";;;;;;;;;;;;;;;;;;;;;;;;;;;;;;;;;;;;;;;;;;;;;;;;;;;;;;;;;;;;;;;;;;;;;;
"diehard3";"1979";;"Windows 7";"Rachel's Experiment (D.T.)";"1.0";"2";"1";"1";"2";"1";"1";"2014-07-18 09:13:55.549";"2014-07-18 09:29:01.889";"1";"0";"0";"162";"161";"module.devaluation_practice.exec-4327.devalPractice";;;;;;;;;;;;"12021";"2014-07-18 09:23:51.195";"2";"6";"5";"7";"5324";"1401";"2291";"2014-07-18 09:23:39.174";;;;;;;;;;;;;;;;;;;;;;;;;;;;;;;;;;;;;;;;;;;;;;;;;;;;;;;;;;;;;;;;;;;;;;
"diehard3";"1979";;"Windows 7";"Rachel's Experiment (D.T.)";"1.0";"2";"1";"1";"2";"1";"1";"2014-07-18 09:13:55.549";"2014-07-18 09:29:01.889";"1";"0";"0";"163";"162";"module.devaluation_practice.exec-4327.devalPractice";;;;;;;;;;;;"13836";"2014-07-18 09:24:05.051";"3";"3";"5";"5";"4834";"1529";"4467";"2014-07-18 09:23:51.214";;;;;;;;;;;;;;;;;;;;;;;;;;;;;;;;;;;;;;;;;;;;;;;;;;;;;;;;;;;;;;;;;;;;;;
"diehard3";"1979";;"Windows 7";"Rachel's Experiment (D.T.)";"1.0";"2";"1";"1";"2";"1";"1";"2014-07-18 09:13:55.549";"2014-07-18 09:29:01.889";"1";"0";"0";"164";"163";"module.devaluation_block1.exec-7977.deval1";"7818";"2014-07-18 09:24:22.947";"6";"6";"6";"6";"2558";"1016";"1232";"2014-07-18 09:24:15.129";"1";;;;;;;;;;;;;;;;;;;;;;;;;;;;;;;;;;;;;;;;;;;;;;;;;;;;;;;;;;;;;;;;;;;;;;;;;;;;;;;;
"diehard3";"1979";;"Windows 7";"Rachel's Experiment (D.T.)";"1.0";"2";"1";"1";"2";"1";"1";"2014-07-18 09:13:55.549";"2014-07-18 09:29:01.889";"1";"0";"0";"165";"164";"module.devaluation_block1.exec-7977.deval1";"8907";"2014-07-18 09:24:31.876";"9";"5";"5";"5";"1945";"1921";"2032";"2014-07-18 09:24:22.967";"2";;;;;;;;;;;;;;;;;;;;;;;;;;;;;;;;;;;;;;;;;;;;;;;;;;;;;;;;;;;;;;;;;;;;;;;;;;;;;;;;
"diehard3";"1979";;"Windows 7";"Rachel's Experiment (D.T.)";"1.0";"2";"1";"1";"2";"1";"1";"2014-07-18 09:13:55.549";"2014-07-18 09:29:01.889";"1";"0";"0";"166";"165";"module.devaluation_block1.exec-7977.deval1";"14009";"2014-07-18 09:24:45.908";"19";"6";"7";"7";"4391";"3304";"3304";"2014-07-18 09:24:31.898";"3";;;;;;;;;;;;;;;;;;;;;;;;;;;;;;;;;;;;;;;;;;;;;;;;;;;;;;;;;;;;;;;;;;;;;;;;;;;;;;;;
"diehard3";"1979";;"Windows 7";"Rachel's Experiment (D.T.)";"1.0";"2";"1";"1";"2";"1";"1";"2014-07-18 09:13:55.549";"2014-07-18 09:29:01.889";"1";"0";"0";"167";"166";"module.devaluation_block1.exec-7977.deval1";"14612";"2014-07-18 09:25:00.539";"25";"8";"7";"7";"3522";"2456";"5624";"2014-07-18 09:24:45.927";"3";;;;;;;;;;;;;;;;;;;;;;;;;;;;;;;;;;;;;;;;;;;;;;;;;;;;;;;;;;;;;;;;;;;;;;;;;;;;;;;;
"diehard3";"1979";;"Windows 7";"Rachel's Experiment (D.T.)";"1.0";"2";"1";"1";"2";"1";"1";"2014-07-18 09:13:55.549";"2014-07-18 09:29:01.889";"1";"0";"0";"168";"167";"module.devaluation_block1.exec-7977.deval1";"7851";"2014-07-18 09:25:08.411";"11";"5";"3";"4";"1697";"1409";"1737";"2014-07-18 09:25:00.559";"2";;;;;;;;;;;;;;;;;;;;;;;;;;;;;;;;;;;;;;;;;;;;;;;;;;;;;;;;;;;;;;;;;;;;;;;;;;;;;;;;
"diehard3";"1979";;"Windows 7";"Rachel's Experiment (D.T.)";"1.0";"2";"1";"1";"2";"1";"1";"2014-07-18 09:13:55.549";"2014-07-18 09:29:01.889";"1";"0";"0";"169";"168";"module.devaluation_block1.exec-7977.deval1";"8309";"2014-07-18 09:25:16.739";"0";"5";"6";"6";"1459";"1585";"2256";"2014-07-18 09:25:08.429";"1";;;;;;;;;;;;;;;;;;;;;;;;;;;;;;;;;;;;;;;;;;;;;;;;;;;;;;;;;;;;;;;;;;;;;;;;;;;;;;;;
"diehard3";"1979";;"Windows 7";"Rachel's Experiment (D.T.)";"1.0";"2";"1";"1";"2";"1";"1";"2014-07-18 09:13:55.549";"2014-07-18 09:29:01.889";"1";"0";"0";"170";"169";"module.devaluation_block1.exec-7977.deval1";"13572";"2014-07-18 09:25:30.331";"17";"4";"4";"4";"6051";"1824";"2688";"2014-07-18 09:25:16.757";"2";;;;;;;;;;;;;;;;;;;;;;;;;;;;;;;;;;;;;;;;;;;;;;;;;;;;;;;;;;;;;;;;;;;;;;;;;;;;;;;;
"diehard3";"1979";;"Windows 7";"Rachel's Experiment (D.T.)";"1.0";"2";"1";"1";"2";"1";"1";"2014-07-18 09:13:55.549";"2014-07-18 09:29:01.889";"1";"0";"0";"171";"170";"module.devaluation_block1.exec-7977.deval1";"9660";"2014-07-18 09:25:40.011";"22";"6";"6";"6";"2978";"1569";"2105";"2014-07-18 09:25:30.350";"3";;;;;;;;;;;;;;;;;;;;;;;;;;;;;;;;;;;;;;;;;;;;;;;;;;;;;;;;;;;;;;;;;;;;;;;;;;;;;;;;
"diehard3";"1979";;"Windows 7";"Rachel's Experiment (D.T.)";"1.0";"2";"1";"1";"2";"1";"1";"2014-07-18 09:13:55.549";"2014-07-18 09:29:01.889";"1";"0";"0";"172";"171";"module.devaluation_block1.exec-7977.deval1";"12643";"2014-07-18 09:25:52.675";"23";"5";"5";"5";"1665";"1681";"6288";"2014-07-18 09:25:40.031";"3";;;;;;;;;;;;;;;;;;;;;;;;;;;;;;;;;;;;;;;;;;;;;;;;;;;;;;;;;;;;;;;;;;;;;;;;;;;;;;;;
"diehard3";"1979";;"Windows 7";"Rachel's Experiment (D.T.)";"1.0";"2";"1";"1";"2";"1";"1";"2014-07-18 09:13:55.549";"2014-07-18 09:29:01.889";"1";"0";"0";"173";"172";"module.devaluation_block1.exec-7977.deval1";"9884";"2014-07-18 09:26:02.579";"16";"3";"3";"4";"1938";"2464";"2472";"2014-07-18 09:25:52.693";"2";;;;;;;;;;;;;;;;;;;;;;;;;;;;;;;;;;;;;;;;;;;;;;;;;;;;;;;;;;;;;;;;;;;;;;;;;;;;;;;;
"diehard3";"1979";;"Windows 7";"Rachel's Experiment (D.T.)";"1.0";"2";"1";"1";"2";"1";"1";"2014-07-18 09:13:55.549";"2014-07-18 09:29:01.889";"1";"0";"0";"174";"173";"module.devaluation_block1.exec-7977.deval1";"9865";"2014-07-18 09:26:12.467";"20";"6";"7";"8";"1304";"2753";"2802";"2014-07-18 09:26:02.600";"3";;;;;;;;;;;;;;;;;;;;;;;;;;;;;;;;;;;;;;;;;;;;;;;;;;;;;;;;;;;;;;;;;;;;;;;;;;;;;;;;
"diehard3";"1979";;"Windows 7";"Rachel's Experiment (D.T.)";"1.0";"2";"1";"1";"2";"1";"1";"2014-07-18 09:13:55.549";"2014-07-18 09:29:01.889";"1";"0";"0";"175";"174";"module.devaluation_block1.exec-7977.deval1";"11763";"2014-07-18 09:26:24.251";"18";"5";"8";"8";"2785";"2349";"3500";"2014-07-18 09:26:12.487";"3";;;;;;;;;;;;;;;;;;;;;;;;;;;;;;;;;;;;;;;;;;;;;;;;;;;;;;;;;;;;;;;;;;;;;;;;;;;;;;;;
"diehard3";"1979";;"Windows 7";"Rachel's Experiment (D.T.)";"1.0";"2";"1";"1";"2";"1";"1";"2014-07-18 09:13:55.549";"2014-07-18 09:29:01.889";"1";"0";"0";"176";"175";"module.devaluation_block1.exec-7977.deval1";"12285";"2014-07-18 09:26:36.555";"21";"5";"6";"5";"3836";"657";"4776";"2014-07-18 09:26:24.269";"3";;;;;;;;;;;;;;;;;;;;;;;;;;;;;;;;;;;;;;;;;;;;;;;;;;;;;;;;;;;;;;;;;;;;;;;;;;;;;;;;
"diehard3";"1979";;"Windows 7";"Rachel's Experiment (D.T.)";"1.0";"2";"1";"1";"2";"1";"1";"2014-07-18 09:13:55.549";"2014-07-18 09:29:01.889";"1";"0";"0";"177";"176";"module.devaluation_block1.exec-7977.deval1";"8740";"2014-07-18 09:26:45.314";"24";"6";"8";"7";"1635";"1105";"2993";"2014-07-18 09:26:36.573";"3";;;;;;;;;;;;;;;;;;;;;;;;;;;;;;;;;;;;;;;;;;;;;;;;;;;;;;;;;;;;;;;;;;;;;;;;;;;;;;;;
"diehard3";"1979";;"Windows 7";"Rachel's Experiment (D.T.)";"1.0";"2";"1";"1";"2";"1";"1";"2014-07-18 09:13:55.549";"2014-07-18 09:29:01.889";"1";"0";"0";"178";"177";"module.devaluation_block1.exec-7977.deval1";"12265";"2014-07-18 09:26:57.602";"7";"5";"6";"6";"1311";"1665";"6280";"2014-07-18 09:26:45.336";"1";;;;;;;;;;;;;;;;;;;;;;;;;;;;;;;;;;;;;;;;;;;;;;;;;;;;;;;;;;;;;;;;;;;;;;;;;;;;;;;;
"diehard3";"1979";;"Windows 7";"Rachel's Experiment (D.T.)";"1.0";"2";"1";"1";"2";"1";"1";"2014-07-18 09:13:55.549";"2014-07-18 09:29:01.889";"1";"0";"0";"179";"178";"module.devaluation_block1.exec-7977.deval1";"10484";"2014-07-18 09:27:08.107";"10";"7";"5";"6";"2378";"2193";"2904";"2014-07-18 09:26:57.621";"2";;;;;;;;;;;;;;;;;;;;;;;;;;;;;;;;;;;;;;;;;;;;;;;;;;;;;;;;;;;;;;;;;;;;;;;;;;;;;;;;
"diehard3";"1979";;"Windows 7";"Rachel's Experiment (D.T.)";"1.0";"2";"1";"1";"2";"1";"1";"2014-07-18 09:13:55.549";"2014-07-18 09:29:01.889";"1";"0";"0";"180";"179";"module.devaluation_block1.exec-7977.deval1";"12866";"2014-07-18 09:27:20.994";"5";"7";"8";"8";"4632";"1249";"3976";"2014-07-18 09:27:08.128";"1";;;;;;;;;;;;;;;;;;;;;;;;;;;;;;;;;;;;;;;;;;;;;;;;;;;;;;;;;;;;;;;;;;;;;;;;;;;;;;;;
"diehard3";"1979";;"Windows 7";"Rachel's Experiment (D.T.)";"1.0";"2";"1";"1";"2";"1";"1";"2014-07-18 09:13:55.549";"2014-07-18 09:29:01.889";"1";"0";"0";"181";"180";"module.devaluation_block1.exec-7977.deval1";"9843";"2014-07-18 09:27:30.858";"4";"7";"7";"7";"2705";"1137";"2993";"2014-07-18 09:27:21.014";"1";;;;;;;;;;;;;;;;;;;;;;;;;;;;;;;;;;;;;;;;;;;;;;;;;;;;;;;;;;;;;;;;;;;;;;;;;;;;;;;;
"diehard3";"1979";;"Windows 7";"Rachel's Experiment (D.T.)";"1.0";"2";"1";"1";"2";"1";"1";"2014-07-18 09:13:55.549";"2014-07-18 09:29:01.889";"1";"0";"0";"182";"181";"module.devaluation_block1.exec-7977.deval1";"11901";"2014-07-18 09:27:42.779";"1";"5";"5";"5";"6091";"561";"2241";"2014-07-18 09:27:30.876";"1";;;;;;;;;;;;;;;;;;;;;;;;;;;;;;;;;;;;;;;;;;;;;;;;;;;;;;;;;;;;;;;;;;;;;;;;;;;;;;;;
"diehard3";"1979";;"Windows 7";"Rachel's Experiment (D.T.)";"1.0";"2";"1";"1";"2";"1";"1";"2014-07-18 09:13:55.549";"2014-07-18 09:29:01.889";"1";"0";"0";"183";"182";"module.devaluation_block1.exec-7977.deval1";"6970";"2014-07-18 09:27:49.770";"12";"7";"6";"7";"1008";"1305";"1649";"2014-07-18 09:27:42.800";"2";;;;;;;;;;;;;;;;;;;;;;;;;;;;;;;;;;;;;;;;;;;;;;;;;;;;;;;;;;;;;;;;;;;;;;;;;;;;;;;;
"diehard3";"1979";;"Windows 7";"Rachel's Experiment (D.T.)";"1.0";"2";"1";"1";"2";"1";"1";"2014-07-18 09:13:55.549";"2014-07-18 09:29:01.889";"1";"0";"0";"184";"183";"module.devaluation_block1.exec-7977.deval1";"9972";"2014-07-18 09:27:59.762";"26";"9";"9";"8";"3650";"1801";"1513";"2014-07-18 09:27:49.789";"3";;;;;;;;;;;;;;;;;;;;;;;;;;;;;;;;;;;;;;;;;;;;;;;;;;;;;;;;;;;;;;;;;;;;;;;;;;;;;;;;
"diehard3";"1979";;"Windows 7";"Rachel's Experiment (D.T.)";"1.0";"2";"1";"1";"2";"1";"1";"2014-07-18 09:13:55.549";"2014-07-18 09:29:01.889";"1";"0";"0";"185";"184";"module.devaluation_block1.exec-7977.deval1";"6878";"2014-07-18 09:28:06.658";"3";"7";"7";"7";"1396";"1034";"1441";"2014-07-18 09:27:59.780";"1";;;;;;;;;;;;;;;;;;;;;;;;;;;;;;;;;;;;;;;;;;;;;;;;;;;;;;;;;;;;;;;;;;;;;;;;;;;;;;;;
"diehard3";"1979";;"Windows 7";"Rachel's Experiment (D.T.)";"1.0";"2";"1";"1";"2";"1";"1";"2014-07-18 09:13:55.549";"2014-07-18 09:29:01.889";"1";"0";"0";"186";"185";"module.devaluation_block1.exec-7977.deval1";"6581";"2014-07-18 09:28:13.257";"2";"6";"7";"7";"1155";"1321";"1097";"2014-07-18 09:28:06.676";"1";;;;;;;;;;;;;;;;;;;;;;;;;;;;;;;;;;;;;;;;;;;;;;;;;;;;;;;;;;;;;;;;;;;;;;;;;;;;;;;;
"diehard3";"1979";;"Windows 7";"Rachel's Experiment (D.T.)";"1.0";"2";"1";"1";"2";"1";"1";"2014-07-18 09:13:55.549";"2014-07-18 09:29:01.889";"1";"0";"0";"187";"186";"module.devaluation_block1.exec-7977.deval1";"11044";"2014-07-18 09:28:24.322";"8";"7";"7";"7";"1411";"1137";"5489";"2014-07-18 09:28:13.276";"1";;;;;;;;;;;;;;;;;;;;;;;;;;;;;;;;;;;;;;;;;;;;;;;;;;;;;;;;;;;;;;;;;;;;;;;;;;;;;;;;
"diehard3";"1979";;"Windows 7";"Rachel's Experiment (D.T.)";"1.0";"2";"1";"1";"2";"1";"1";"2014-07-18 09:13:55.549";"2014-07-18 09:29:01.889";"1";"0";"0";"188";"187";"module.devaluation_block1.exec-7977.deval1";"13251";"2014-07-18 09:28:37.594";"13";"7";"6";"7";"1618";"5841";"2785";"2014-07-18 09:28:24.341";"2";;;;;;;;;;;;;;;;;;;;;;;;;;;;;;;;;;;;;;;;;;;;;;;;;;;;;;;;;;;;;;;;;;;;;;;;;;;;;;;;
"diehard3";"1979";;"Windows 7";"Rachel's Experiment (D.T.)";"1.0";"2";"1";"1";"2";"1";"1";"2014-07-18 09:13:55.549";"2014-07-18 09:29:01.889";"1";"0";"0";"189";"188";"module.devaluation_block1.exec-7977.deval1";"9450";"2014-07-18 09:28:47.065";"15";"5";"4";"4";"1312";"3529";"1601";"2014-07-18 09:28:37.615";"2";;;;;;;;;;;;;;;;;;;;;;;;;;;;;;;;;;;;;;;;;;;;;;;;;;;;;;;;;;;;;;;;;;;;;;;;;;;;;;;;
"diehard3";"1979";;"Windows 7";"Rachel's Experiment (D.T.)";"1.0";"2";"1";"1";"2";"1";"1";"2014-07-18 09:13:55.549";"2014-07-18 09:29:01.889";"1";"0";"0";"190";"189";"module.devaluation_block1.exec-7977.deval1";"11196";"2014-07-18 09:28:58.282";"14";"7";"7";"7";"2603";"3633";"1953";"2014-07-18 09:28:47.084";"2";;;;;;;;;;;;;;;;;;;;;;;;;;;;;;;;;;;;;;;;;;;;;;;;;;;;;;;;;;;;;;;;;;;;;;;;;;;;;;;;
