"user.name";"user.yearOfBirth";"user.sex";"user.osName";"module.name";"module.version";"module.online.subject.code";"module.online.study.id";"module.online.module.nr";"module.online.group.nr";"session.id";"session.index";"session.startTime";"session.endTime";"session.completed";"session.node-7953.DevalQorder";"session.node-9946.conditionType";"trial.id";"trial.index";"trial.name";"trial.deval1.durationTime";"trial.deval1.endTime";"trial.deval1.icon";"trial.deval1.Resp_Attractive";"trial.deval1.Resp_Eat";"trial.deval1.Resp_Taste";"trial.deval1.RT_Attractive";"trial.deval1.RT_Eat";"trial.deval1.RT_Taste";"trial.deval1.startTime";"trial.deval1.stimulus type";"trial.devalPractice.durationTime";"trial.devalPractice.endTime";"trial.devalPractice.icon";"trial.devalPractice.Resp_Attractive";"trial.devalPractice.Resp_Eat";"trial.devalPractice.Resp_Taste";"trial.devalPractice.RT_Attractive";"trial.devalPractice.RT_Eat";"trial.devalPractice.RT_Taste";"trial.devalPractice.startTime";"trial.devalPractice.stimulus type";"trial.GoNoGo1.durationTime";"trial.GoNoGo1.endTime";"trial.GoNoGo1.Error Type";"trial.GoNoGo1.icon";"trial.GoNoGo1.location";"trial.GoNoGo1.outcome";"trial.GoNoGo1.response";"trial.GoNoGo1.result";"trial.GoNoGo1.RT";"trial.GoNoGo1.signal";"trial.GoNoGo1.startTime";"trial.GoNoGo1.stimulus type";"trial.GoNoGo2.durationTime";"trial.GoNoGo2.endTime";"trial.GoNoGo2.Error Type";"trial.GoNoGo2.icon";"trial.GoNoGo2.location";"trial.GoNoGo2.outcome";"trial.GoNoGo2.response";"trial.GoNoGo2.result";"trial.GoNoGo2.RT";"trial.GoNoGo2.signal";"trial.GoNoGo2.startTime";"trial.GoNoGo2.stimulus type";"trial.GoNoGo3.durationTime";"trial.GoNoGo3.endTime";"trial.GoNoGo3.Error Type";"trial.GoNoGo3.icon";"trial.GoNoGo3.location";"trial.GoNoGo3.outcome";"trial.GoNoGo3.response";"trial.GoNoGo3.result";"trial.GoNoGo3.RT";"trial.GoNoGo3.signal";"trial.GoNoGo3.startTime";"trial.GoNoGo3.stimulus type";"trial.GoNoGo4.durationTime";"trial.GoNoGo4.endTime";"trial.GoNoGo4.Error Type";"trial.GoNoGo4.icon";"trial.GoNoGo4.location";"trial.GoNoGo4.outcome";"trial.GoNoGo4.response";"trial.GoNoGo4.result";"trial.GoNoGo4.RT";"trial.GoNoGo4.signal";"trial.GoNoGo4.startTime";"trial.GoNoGo4.stimulus type";"trial.GoNoGo_Practice.durationTime";"trial.GoNoGo_Practice.endTime";"trial.GoNoGo_Practice.icon";"trial.GoNoGo_Practice.location";"trial.GoNoGo_Practice.outcome";"trial.GoNoGo_Practice.response";"trial.GoNoGo_Practice.result";"trial.GoNoGo_Practice.RT";"trial.GoNoGo_Practice.signal";"trial.GoNoGo_Practice.startTime";"trial.GoNoGo_Practice.stimulus type";"trial.GoNoGo_Tutorial.durationTime";"trial.GoNoGo_Tutorial.endTime";"trial.GoNoGo_Tutorial.icon";"trial.GoNoGo_Tutorial.location";"trial.GoNoGo_Tutorial.outcome";"trial.GoNoGo_Tutorial.response";"trial.GoNoGo_Tutorial.result";"trial.GoNoGo_Tutorial.RT";"trial.GoNoGo_Tutorial.signal";"trial.GoNoGo_Tutorial.startTime"
"4umk84";"1994";;"Windows XP";"Rachel's Experiment (D.T.)";"1.0";"2";"1";"1";"2";"1";"1";"2014-08-08 12:57:14.602";"2014-08-08 13:11:18.306";"1";"0";"1";"1";"0";"module.GoNoGotutorial.exec-4516.GoNoGo_Tutorial";;;;;;;;;;;;;;;;;;;;;;;;;;;;;;;;;;;;;;;;;;;;;;;;;;;;;;;;;;;;;;;;;;;;;;;;;;;;;;;;;;"4001";"2014-08-08 12:58:21.073";"leftResponse";"0";"FINISHED";"LEFT";"success";"1419";"0";"2014-08-08 12:58:17.073"
"4umk84";"1994";;"Windows XP";"Rachel's Experiment (D.T.)";"1.0";"2";"1";"1";"2";"1";"1";"2014-08-08 12:57:14.602";"2014-08-08 13:11:18.306";"1";"0";"1";"2";"1";"module.GoNoGotutorial.exec-4516.GoNoGo_Tutorial";;;;;;;;;;;;;;;;;;;;;;;;;;;;;;;;;;;;;;;;;;;;;;;;;;;;;;;;;;;;;;;;;;;;;;;;;;;;;;;;;;"4002";"2014-08-08 12:58:26.401";"rightResponse";"1";"FINISHED";"RIGHT";"success";"1678";"0";"2014-08-08 12:58:22.401"
"4umk84";"1994";;"Windows XP";"Rachel's Experiment (D.T.)";"1.0";"2";"1";"1";"2";"1";"1";"2014-08-08 12:57:14.602";"2014-08-08 13:11:18.306";"1";"0";"1";"3";"2";"module.GoNoGotutorial.exec-4516.GoNoGo_Tutorial";;;;;;;;;;;;;;;;;;;;;;;;;;;;;;;;;;;;;;;;;;;;;;;;;;;;;;;;;;;;;;;;;;;;;;;;;;;;;;;;;;"3999";"2014-08-08 12:58:31.730";"signalResponse";"0";"FINISHED";"NONE";"success";"0";"1";"2014-08-08 12:58:27.730"
"4umk84";"1994";;"Windows XP";"Rachel's Experiment (D.T.)";"1.0";"2";"1";"1";"2";"1";"1";"2014-08-08 12:57:14.602";"2014-08-08 13:11:18.306";"1";"0";"1";"4";"3";"module.GoNoGopractice.exec-3402.GoNoGo_Practice";;;;;;;;;;;;;;;;;;;;;;;;;;;;;;;;;;;;;;;;;;;;;;;;;;;;;;;;;;;;;;;;;;;;;;;"1974";"2014-08-08 12:58:40.324";"18";"0";"FINISHED";"LEFT";"success";"461";"0";"2014-08-08 12:58:38.355";"3";;;;;;;;;;
"4umk84";"1994";;"Windows XP";"Rachel's Experiment (D.T.)";"1.0";"2";"1";"1";"2";"1";"1";"2014-08-08 12:57:14.602";"2014-08-08 13:11:18.306";"1";"0";"1";"5";"4";"module.GoNoGopractice.exec-3402.GoNoGo_Practice";;;;;;;;;;;;;;;;;;;;;;;;;;;;;;;;;;;;;;;;;;;;;;;;;;;;;;;;;;;;;;;;;;;;;;;"1954";"2014-08-08 12:58:43.605";"21";"1";"FINISHED";"RIGHT";"success";"365";"0";"2014-08-08 12:58:41.652";"3";;;;;;;;;;
"4umk84";"1994";;"Windows XP";"Rachel's Experiment (D.T.)";"1.0";"2";"1";"1";"2";"1";"1";"2014-08-08 12:57:14.602";"2014-08-08 13:11:18.306";"1";"0";"1";"6";"5";"module.GoNoGopractice.exec-3402.GoNoGo_Practice";;;;;;;;;;;;;;;;;;;;;;;;;;;;;;;;;;;;;;;;;;;;;;;;;;;;;;;;;;;;;;;;;;;;;;;"1957";"2014-08-08 12:58:46.871";"14";"1";"FINISHED";"RIGHT";"failure";"539";"1";"2014-08-08 12:58:44.918";"2";;;;;;;;;;
"4umk84";"1994";;"Windows XP";"Rachel's Experiment (D.T.)";"1.0";"2";"1";"1";"2";"1";"1";"2014-08-08 12:57:14.602";"2014-08-08 13:11:18.306";"1";"0";"1";"7";"6";"module.GoNoGopractice.exec-3402.GoNoGo_Practice";;;;;;;;;;;;;;;;;;;;;;;;;;;;;;;;;;;;;;;;;;;;;;;;;;;;;;;;;;;;;;;;;;;;;;;"1952";"2014-08-08 12:58:50.152";"26";"0";"FINISHED";"LEFT";"success";"487";"0";"2014-08-08 12:58:48.199";"3";;;;;;;;;;
"4umk84";"1994";;"Windows XP";"Rachel's Experiment (D.T.)";"1.0";"2";"1";"1";"2";"1";"1";"2014-08-08 12:57:14.602";"2014-08-08 13:11:18.306";"1";"0";"1";"8";"7";"module.GoNoGopractice.exec-3402.GoNoGo_Practice";;;;;;;;;;;;;;;;;;;;;;;;;;;;;;;;;;;;;;;;;;;;;;;;;;;;;;;;;;;;;;;;;;;;;;;"1954";"2014-08-08 12:58:53.434";"2";"0";"FINISHED";"LEFT";"success";"467";"0";"2014-08-08 12:58:51.481";"1";;;;;;;;;;
"4umk84";"1994";;"Windows XP";"Rachel's Experiment (D.T.)";"1.0";"2";"1";"1";"2";"1";"1";"2014-08-08 12:57:14.602";"2014-08-08 13:11:18.306";"1";"0";"1";"9";"8";"module.GoNoGopractice.exec-3402.GoNoGo_Practice";;;;;;;;;;;;;;;;;;;;;;;;;;;;;;;;;;;;;;;;;;;;;;;;;;;;;;;;;;;;;;;;;;;;;;;"1955";"2014-08-08 12:58:56.731";"30";"0";"FINISHED";"NONE";"success";"0";"1";"2014-08-08 12:58:54.778";"3";;;;;;;;;;
"4umk84";"1994";;"Windows XP";"Rachel's Experiment (D.T.)";"1.0";"2";"1";"1";"2";"1";"1";"2014-08-08 12:57:14.602";"2014-08-08 13:11:18.306";"1";"0";"1";"10";"9";"module.GoNoGopractice.exec-3402.GoNoGo_Practice";;;;;;;;;;;;;;;;;;;;;;;;;;;;;;;;;;;;;;;;;;;;;;;;;;;;;;;;;;;;;;;;;;;;;;;"1951";"2014-08-08 12:58:59.997";"6";"1";"FINISHED";"RIGHT";"failure";"419";"1";"2014-08-08 12:58:58.043";"1";;;;;;;;;;
"4umk84";"1994";;"Windows XP";"Rachel's Experiment (D.T.)";"1.0";"2";"1";"1";"2";"1";"1";"2014-08-08 12:57:14.602";"2014-08-08 13:11:18.306";"1";"0";"1";"11";"10";"module.GoNoGopractice.exec-3402.GoNoGo_Practice";;;;;;;;;;;;;;;;;;;;;;;;;;;;;;;;;;;;;;;;;;;;;;;;;;;;;;;;;;;;;;;;;;;;;;;"1966";"2014-08-08 12:59:03.278";"34";"0";"FINISHED";"LEFT";"success";"861";"0";"2014-08-08 12:59:01.309";"3";;;;;;;;;;
"4umk84";"1994";;"Windows XP";"Rachel's Experiment (D.T.)";"1.0";"2";"1";"1";"2";"1";"1";"2014-08-08 12:57:14.602";"2014-08-08 13:11:18.306";"1";"0";"1";"12";"11";"module.GoNoGopractice.exec-3402.GoNoGo_Practice";;;;;;;;;;;;;;;;;;;;;;;;;;;;;;;;;;;;;;;;;;;;;;;;;;;;;;;;;;;;;;;;;;;;;;;"1955";"2014-08-08 12:59:06.559";"23";"1";"FINISHED";"RIGHT";"success";"485";"0";"2014-08-08 12:59:04.606";"3";;;;;;;;;;
"4umk84";"1994";;"Windows XP";"Rachel's Experiment (D.T.)";"1.0";"2";"1";"1";"2";"1";"1";"2014-08-08 12:57:14.602";"2014-08-08 13:11:18.306";"1";"0";"1";"13";"12";"module.GoNoGopractice.exec-3402.GoNoGo_Practice";;;;;;;;;;;;;;;;;;;;;;;;;;;;;;;;;;;;;;;;;;;;;;;;;;;;;;;;;;;;;;;;;;;;;;;"1951";"2014-08-08 12:59:09.825";"13";"0";"FINISHED";"NONE";"success";"0";"1";"2014-08-08 12:59:07.872";"2";;;;;;;;;;
"4umk84";"1994";;"Windows XP";"Rachel's Experiment (D.T.)";"1.0";"2";"1";"1";"2";"1";"1";"2014-08-08 12:57:14.602";"2014-08-08 13:11:18.306";"1";"0";"1";"14";"13";"module.GoNoGopractice.exec-3402.GoNoGo_Practice";;;;;;;;;;;;;;;;;;;;;;;;;;;;;;;;;;;;;;;;;;;;;;;;;;;;;;;;;;;;;;;;;;;;;;;"1946";"2014-08-08 12:59:13.075";"3";"1";"FINISHED";"RIGHT";"success";"634";"0";"2014-08-08 12:59:11.122";"1";;;;;;;;;;
"4umk84";"1994";;"Windows XP";"Rachel's Experiment (D.T.)";"1.0";"2";"1";"1";"2";"1";"1";"2014-08-08 12:57:14.602";"2014-08-08 13:11:18.306";"1";"0";"1";"15";"14";"module.GoNoGopractice.exec-3402.GoNoGo_Practice";;;;;;;;;;;;;;;;;;;;;;;;;;;;;;;;;;;;;;;;;;;;;;;;;;;;;;;;;;;;;;;;;;;;;;;"1954";"2014-08-08 12:59:16.325";"27";"1";"FINISHED";"NONE";"success";"0";"1";"2014-08-08 12:59:14.372";"3";;;;;;;;;;
"4umk84";"1994";;"Windows XP";"Rachel's Experiment (D.T.)";"1.0";"2";"1";"1";"2";"1";"1";"2014-08-08 12:57:14.602";"2014-08-08 13:11:18.306";"1";"0";"1";"16";"15";"module.training_block1.exec-4675.GoNoGo1";;;;;;;;;;;;;;;;;;;;;;;"1251";"2014-08-08 12:59:26.154";"NST_correctLoc";"14";"1";"FINISHED";"RIGHT";"success";"510";"0";"2014-08-08 12:59:24.904";"2";;;;;;;;;;;;;;;;;;;;;;;;;;;;;;;;;;;;;;;;;;;;;;;;;;;;;;;;;
"4umk84";"1994";;"Windows XP";"Rachel's Experiment (D.T.)";"1.0";"2";"1";"1";"2";"1";"1";"2014-08-08 12:57:14.602";"2014-08-08 13:11:18.306";"1";"0";"1";"17";"16";"module.training_block1.exec-4675.GoNoGo1";;;;;;;;;;;;;;;;;;;;;;;"1251";"2014-08-08 12:59:28.732";"NST_correctLoc";"10";"1";"FINISHED";"RIGHT";"success";"460";"0";"2014-08-08 12:59:27.482";"2";;;;;;;;;;;;;;;;;;;;;;;;;;;;;;;;;;;;;;;;;;;;;;;;;;;;;;;;;
"4umk84";"1994";;"Windows XP";"Rachel's Experiment (D.T.)";"1.0";"2";"1";"1";"2";"1";"1";"2014-08-08 12:57:14.602";"2014-08-08 13:11:18.306";"1";"0";"1";"18";"17";"module.training_block1.exec-4675.GoNoGo1";;;;;;;;;;;;;;;;;;;;;;;"1251";"2014-08-08 12:59:31.295";"NST_correctLoc";"29";"1";"FINISHED";"RIGHT";"success";"531";"0";"2014-08-08 12:59:30.045";"3";;;;;;;;;;;;;;;;;;;;;;;;;;;;;;;;;;;;;;;;;;;;;;;;;;;;;;;;;
"4umk84";"1994";;"Windows XP";"Rachel's Experiment (D.T.)";"1.0";"2";"1";"1";"2";"1";"1";"2014-08-08 12:57:14.602";"2014-08-08 13:11:18.306";"1";"0";"1";"19";"18";"module.training_block1.exec-4675.GoNoGo1";;;;;;;;;;;;;;;;;;;;;;;"1251";"2014-08-08 12:59:33.842";"NST_correctLoc";"27";"1";"FINISHED";"RIGHT";"success";"528";"0";"2014-08-08 12:59:32.592";"3";;;;;;;;;;;;;;;;;;;;;;;;;;;;;;;;;;;;;;;;;;;;;;;;;;;;;;;;;
"4umk84";"1994";;"Windows XP";"Rachel's Experiment (D.T.)";"1.0";"2";"1";"1";"2";"1";"1";"2014-08-08 12:57:14.602";"2014-08-08 13:11:18.306";"1";"0";"1";"20";"19";"module.training_block1.exec-4675.GoNoGo1";;;;;;;;;;;;;;;;;;;;;;;"1249";"2014-08-08 12:59:36.389";"ST_correctStop";"31";"0";"FINISHED";"NONE";"success";"0";"1";"2014-08-08 12:59:35.139";"3";;;;;;;;;;;;;;;;;;;;;;;;;;;;;;;;;;;;;;;;;;;;;;;;;;;;;;;;;
"4umk84";"1994";;"Windows XP";"Rachel's Experiment (D.T.)";"1.0";"2";"1";"1";"2";"1";"1";"2014-08-08 12:57:14.602";"2014-08-08 13:11:18.306";"1";"0";"1";"21";"20";"module.training_block1.exec-4675.GoNoGo1";;;;;;;;;;;;;;;;;;;;;;;"1249";"2014-08-08 12:59:38.967";"ST_correctStop";"1";"1";"FINISHED";"NONE";"success";"0";"1";"2014-08-08 12:59:37.717";"1";;;;;;;;;;;;;;;;;;;;;;;;;;;;;;;;;;;;;;;;;;;;;;;;;;;;;;;;;
"4umk84";"1994";;"Windows XP";"Rachel's Experiment (D.T.)";"1.0";"2";"1";"1";"2";"1";"1";"2014-08-08 12:57:14.602";"2014-08-08 13:11:18.306";"1";"0";"1";"22";"21";"module.training_block1.exec-4675.GoNoGo1";;;;;;;;;;;;;;;;;;;;;;;"1249";"2014-08-08 12:59:41.514";"ST_correctStop";"25";"1";"FINISHED";"NONE";"success";"0";"1";"2014-08-08 12:59:40.264";"3";;;;;;;;;;;;;;;;;;;;;;;;;;;;;;;;;;;;;;;;;;;;;;;;;;;;;;;;;
"4umk84";"1994";;"Windows XP";"Rachel's Experiment (D.T.)";"1.0";"2";"1";"1";"2";"1";"1";"2014-08-08 12:57:14.602";"2014-08-08 13:11:18.306";"1";"0";"1";"23";"22";"module.training_block1.exec-4675.GoNoGo1";;;;;;;;;;;;;;;;;;;;;;;"1250";"2014-08-08 12:59:44.092";"ST_correctStop";"28";"1";"FINISHED";"NONE";"success";"0";"1";"2014-08-08 12:59:42.842";"3";;;;;;;;;;;;;;;;;;;;;;;;;;;;;;;;;;;;;;;;;;;;;;;;;;;;;;;;;
"4umk84";"1994";;"Windows XP";"Rachel's Experiment (D.T.)";"1.0";"2";"1";"1";"2";"1";"1";"2014-08-08 12:57:14.602";"2014-08-08 13:11:18.306";"1";"0";"1";"24";"23";"module.training_block1.exec-4675.GoNoGo1";;;;;;;;;;;;;;;;;;;;;;;"1250";"2014-08-08 12:59:46.639";"ST_correctStop";"3";"0";"FINISHED";"NONE";"success";"0";"1";"2014-08-08 12:59:45.389";"1";;;;;;;;;;;;;;;;;;;;;;;;;;;;;;;;;;;;;;;;;;;;;;;;;;;;;;;;;
"4umk84";"1994";;"Windows XP";"Rachel's Experiment (D.T.)";"1.0";"2";"1";"1";"2";"1";"1";"2014-08-08 12:57:14.602";"2014-08-08 13:11:18.306";"1";"0";"1";"25";"24";"module.training_block1.exec-4675.GoNoGo1";;;;;;;;;;;;;;;;;;;;;;;"1235";"2014-08-08 12:59:49.186";"ST_correctStop";"32";"0";"FINISHED";"NONE";"success";"0";"1";"2014-08-08 12:59:47.936";"3";;;;;;;;;;;;;;;;;;;;;;;;;;;;;;;;;;;;;;;;;;;;;;;;;;;;;;;;;
"4umk84";"1994";;"Windows XP";"Rachel's Experiment (D.T.)";"1.0";"2";"1";"1";"2";"1";"1";"2014-08-08 12:57:14.602";"2014-08-08 13:11:18.306";"1";"0";"1";"26";"25";"module.training_block1.exec-4675.GoNoGo1";;;;;;;;;;;;;;;;;;;;;;;"1251";"2014-08-08 12:59:51.733";"NST_correctLoc";"13";"1";"FINISHED";"RIGHT";"success";"554";"0";"2014-08-08 12:59:50.483";"2";;;;;;;;;;;;;;;;;;;;;;;;;;;;;;;;;;;;;;;;;;;;;;;;;;;;;;;;;
"4umk84";"1994";;"Windows XP";"Rachel's Experiment (D.T.)";"1.0";"2";"1";"1";"2";"1";"1";"2014-08-08 12:57:14.602";"2014-08-08 13:11:18.306";"1";"0";"1";"27";"26";"module.training_block1.exec-4675.GoNoGo1";;;;;;;;;;;;;;;;;;;;;;;"1249";"2014-08-08 12:59:54.311";"ST_correctStop";"5";"0";"FINISHED";"NONE";"success";"0";"1";"2014-08-08 12:59:53.061";"1";;;;;;;;;;;;;;;;;;;;;;;;;;;;;;;;;;;;;;;;;;;;;;;;;;;;;;;;;
"4umk84";"1994";;"Windows XP";"Rachel's Experiment (D.T.)";"1.0";"2";"1";"1";"2";"1";"1";"2014-08-08 12:57:14.602";"2014-08-08 13:11:18.306";"1";"0";"1";"28";"27";"module.training_block1.exec-4675.GoNoGo1";;;;;;;;;;;;;;;;;;;;;;;"1250";"2014-08-08 12:59:56.874";"ST_correctStop";"23";"0";"FINISHED";"NONE";"success";"0";"1";"2014-08-08 12:59:55.624";"3";;;;;;;;;;;;;;;;;;;;;;;;;;;;;;;;;;;;;;;;;;;;;;;;;;;;;;;;;
"4umk84";"1994";;"Windows XP";"Rachel's Experiment (D.T.)";"1.0";"2";"1";"1";"2";"1";"1";"2014-08-08 12:57:14.602";"2014-08-08 13:11:18.306";"1";"0";"1";"29";"28";"module.training_block1.exec-4675.GoNoGo1";;;;;;;;;;;;;;;;;;;;;;;"1249";"2014-08-08 12:59:59.421";"NST_correctLoc";"33";"1";"FINISHED";"RIGHT";"success";"536";"0";"2014-08-08 12:59:58.171";"3";;;;;;;;;;;;;;;;;;;;;;;;;;;;;;;;;;;;;;;;;;;;;;;;;;;;;;;;;
"4umk84";"1994";;"Windows XP";"Rachel's Experiment (D.T.)";"1.0";"2";"1";"1";"2";"1";"1";"2014-08-08 12:57:14.602";"2014-08-08 13:11:18.306";"1";"0";"1";"30";"29";"module.training_block1.exec-4675.GoNoGo1";;;;;;;;;;;;;;;;;;;;;;;"1251";"2014-08-08 13:00:01.968";"NST_correctLoc";"17";"0";"FINISHED";"LEFT";"success";"789";"0";"2014-08-08 13:00:00.718";"2";;;;;;;;;;;;;;;;;;;;;;;;;;;;;;;;;;;;;;;;;;;;;;;;;;;;;;;;;
"4umk84";"1994";;"Windows XP";"Rachel's Experiment (D.T.)";"1.0";"2";"1";"1";"2";"1";"1";"2014-08-08 12:57:14.602";"2014-08-08 13:11:18.306";"1";"0";"1";"31";"30";"module.training_block1.exec-4675.GoNoGo1";;;;;;;;;;;;;;;;;;;;;;;"1252";"2014-08-08 13:00:04.515";"ST_correctStop";"2";"1";"FINISHED";"NONE";"success";"0";"1";"2014-08-08 13:00:03.265";"1";;;;;;;;;;;;;;;;;;;;;;;;;;;;;;;;;;;;;;;;;;;;;;;;;;;;;;;;;
"4umk84";"1994";;"Windows XP";"Rachel's Experiment (D.T.)";"1.0";"2";"1";"1";"2";"1";"1";"2014-08-08 12:57:14.602";"2014-08-08 13:11:18.306";"1";"0";"1";"32";"31";"module.training_block1.exec-4675.GoNoGo1";;;;;;;;;;;;;;;;;;;;;;;"1249";"2014-08-08 13:00:07.062";"ST_correctStop";"6";"1";"FINISHED";"NONE";"success";"0";"1";"2014-08-08 13:00:05.812";"1";;;;;;;;;;;;;;;;;;;;;;;;;;;;;;;;;;;;;;;;;;;;;;;;;;;;;;;;;
"4umk84";"1994";;"Windows XP";"Rachel's Experiment (D.T.)";"1.0";"2";"1";"1";"2";"1";"1";"2014-08-08 12:57:14.602";"2014-08-08 13:11:18.306";"1";"0";"1";"33";"32";"module.training_block1.exec-4675.GoNoGo1";;;;;;;;;;;;;;;;;;;;;;;"1251";"2014-08-08 13:00:09.655";"NST_correctLoc";"22";"1";"FINISHED";"RIGHT";"success";"447";"0";"2014-08-08 13:00:08.405";"3";;;;;;;;;;;;;;;;;;;;;;;;;;;;;;;;;;;;;;;;;;;;;;;;;;;;;;;;;
"4umk84";"1994";;"Windows XP";"Rachel's Experiment (D.T.)";"1.0";"2";"1";"1";"2";"1";"1";"2014-08-08 12:57:14.602";"2014-08-08 13:11:18.306";"1";"0";"1";"34";"33";"module.training_block1.exec-4675.GoNoGo1";;;;;;;;;;;;;;;;;;;;;;;"1249";"2014-08-08 13:00:12.202";"ST_correctStop";"4";"1";"FINISHED";"NONE";"success";"0";"1";"2014-08-08 13:00:10.952";"1";;;;;;;;;;;;;;;;;;;;;;;;;;;;;;;;;;;;;;;;;;;;;;;;;;;;;;;;;
"4umk84";"1994";;"Windows XP";"Rachel's Experiment (D.T.)";"1.0";"2";"1";"1";"2";"1";"1";"2014-08-08 12:57:14.602";"2014-08-08 13:11:18.306";"1";"0";"1";"35";"34";"module.training_block1.exec-4675.GoNoGo1";;;;;;;;;;;;;;;;;;;;;;;"1251";"2014-08-08 13:00:14.749";"NST_correctLoc";"11";"1";"FINISHED";"RIGHT";"success";"451";"0";"2014-08-08 13:00:13.499";"2";;;;;;;;;;;;;;;;;;;;;;;;;;;;;;;;;;;;;;;;;;;;;;;;;;;;;;;;;
"4umk84";"1994";;"Windows XP";"Rachel's Experiment (D.T.)";"1.0";"2";"1";"1";"2";"1";"1";"2014-08-08 12:57:14.602";"2014-08-08 13:11:18.306";"1";"0";"1";"36";"35";"module.training_block1.exec-4675.GoNoGo1";;;;;;;;;;;;;;;;;;;;;;;"1249";"2014-08-08 13:00:17.312";"ST_correctStop";"18";"1";"FINISHED";"NONE";"success";"0";"1";"2014-08-08 13:00:16.062";"3";;;;;;;;;;;;;;;;;;;;;;;;;;;;;;;;;;;;;;;;;;;;;;;;;;;;;;;;;
"4umk84";"1994";;"Windows XP";"Rachel's Experiment (D.T.)";"1.0";"2";"1";"1";"2";"1";"1";"2014-08-08 12:57:14.602";"2014-08-08 13:11:18.306";"1";"0";"1";"37";"36";"module.training_block1.exec-4675.GoNoGo1";;;;;;;;;;;;;;;;;;;;;;;"1251";"2014-08-08 13:00:19.875";"NST_correctLoc";"12";"0";"FINISHED";"LEFT";"success";"470";"0";"2014-08-08 13:00:18.625";"2";;;;;;;;;;;;;;;;;;;;;;;;;;;;;;;;;;;;;;;;;;;;;;;;;;;;;;;;;
"4umk84";"1994";;"Windows XP";"Rachel's Experiment (D.T.)";"1.0";"2";"1";"1";"2";"1";"1";"2014-08-08 12:57:14.602";"2014-08-08 13:11:18.306";"1";"0";"1";"38";"37";"module.training_block1.exec-4675.GoNoGo1";;;;;;;;;;;;;;;;;;;;;;;"1249";"2014-08-08 13:00:22.422";"ST_correctStop";"34";"0";"FINISHED";"NONE";"success";"0";"1";"2014-08-08 13:00:21.172";"3";;;;;;;;;;;;;;;;;;;;;;;;;;;;;;;;;;;;;;;;;;;;;;;;;;;;;;;;;
"4umk84";"1994";;"Windows XP";"Rachel's Experiment (D.T.)";"1.0";"2";"1";"1";"2";"1";"1";"2014-08-08 12:57:14.602";"2014-08-08 13:11:18.306";"1";"0";"1";"39";"38";"module.training_block1.exec-4675.GoNoGo1";;;;;;;;;;;;;;;;;;;;;;;"1251";"2014-08-08 13:00:24.969";"NST_correctLoc";"15";"1";"FINISHED";"RIGHT";"success";"396";"0";"2014-08-08 13:00:23.718";"2";;;;;;;;;;;;;;;;;;;;;;;;;;;;;;;;;;;;;;;;;;;;;;;;;;;;;;;;;
"4umk84";"1994";;"Windows XP";"Rachel's Experiment (D.T.)";"1.0";"2";"1";"1";"2";"1";"1";"2014-08-08 12:57:14.602";"2014-08-08 13:11:18.306";"1";"0";"1";"40";"39";"module.training_block1.exec-4675.GoNoGo1";;;;;;;;;;;;;;;;;;;;;;;"1249";"2014-08-08 13:00:27.516";"NST_correctLoc";"24";"1";"FINISHED";"RIGHT";"success";"553";"0";"2014-08-08 13:00:26.265";"3";;;;;;;;;;;;;;;;;;;;;;;;;;;;;;;;;;;;;;;;;;;;;;;;;;;;;;;;;
"4umk84";"1994";;"Windows XP";"Rachel's Experiment (D.T.)";"1.0";"2";"1";"1";"2";"1";"1";"2014-08-08 12:57:14.602";"2014-08-08 13:11:18.306";"1";"0";"1";"41";"40";"module.training_block1.exec-4675.GoNoGo1";;;;;;;;;;;;;;;;;;;;;;;"1249";"2014-08-08 13:00:30.062";"ST_correctStop";"30";"1";"FINISHED";"NONE";"success";"0";"1";"2014-08-08 13:00:28.812";"3";;;;;;;;;;;;;;;;;;;;;;;;;;;;;;;;;;;;;;;;;;;;;;;;;;;;;;;;;
"4umk84";"1994";;"Windows XP";"Rachel's Experiment (D.T.)";"1.0";"2";"1";"1";"2";"1";"1";"2014-08-08 12:57:14.602";"2014-08-08 13:11:18.306";"1";"0";"1";"42";"41";"module.training_block1.exec-4675.GoNoGo1";;;;;;;;;;;;;;;;;;;;;;;"1249";"2014-08-08 13:00:32.625";"ST_correctStop";"8";"0";"FINISHED";"NONE";"success";"0";"1";"2014-08-08 13:00:31.375";"1";;;;;;;;;;;;;;;;;;;;;;;;;;;;;;;;;;;;;;;;;;;;;;;;;;;;;;;;;
"4umk84";"1994";;"Windows XP";"Rachel's Experiment (D.T.)";"1.0";"2";"1";"1";"2";"1";"1";"2014-08-08 12:57:14.602";"2014-08-08 13:11:18.306";"1";"0";"1";"43";"42";"module.training_block1.exec-4675.GoNoGo1";;;;;;;;;;;;;;;;;;;;;;;"1250";"2014-08-08 13:00:35.156";"ST_correctStop";"7";"1";"FINISHED";"NONE";"success";"0";"1";"2014-08-08 13:00:33.906";"1";;;;;;;;;;;;;;;;;;;;;;;;;;;;;;;;;;;;;;;;;;;;;;;;;;;;;;;;;
"4umk84";"1994";;"Windows XP";"Rachel's Experiment (D.T.)";"1.0";"2";"1";"1";"2";"1";"1";"2014-08-08 12:57:14.602";"2014-08-08 13:11:18.306";"1";"0";"1";"44";"43";"module.training_block1.exec-4675.GoNoGo1";;;;;;;;;;;;;;;;;;;;;;;"1252";"2014-08-08 13:00:37.766";"NST_correctLoc";"9";"1";"FINISHED";"RIGHT";"success";"452";"0";"2014-08-08 13:00:36.516";"2";;;;;;;;;;;;;;;;;;;;;;;;;;;;;;;;;;;;;;;;;;;;;;;;;;;;;;;;;
"4umk84";"1994";;"Windows XP";"Rachel's Experiment (D.T.)";"1.0";"2";"1";"1";"2";"1";"1";"2014-08-08 12:57:14.602";"2014-08-08 13:11:18.306";"1";"0";"1";"45";"44";"module.training_block1.exec-4675.GoNoGo1";;;;;;;;;;;;;;;;;;;;;;;"1251";"2014-08-08 13:00:40.313";"NST_correctLoc";"16";"1";"FINISHED";"RIGHT";"success";"615";"0";"2014-08-08 13:00:39.063";"2";;;;;;;;;;;;;;;;;;;;;;;;;;;;;;;;;;;;;;;;;;;;;;;;;;;;;;;;;
"4umk84";"1994";;"Windows XP";"Rachel's Experiment (D.T.)";"1.0";"2";"1";"1";"2";"1";"1";"2014-08-08 12:57:14.602";"2014-08-08 13:11:18.306";"1";"0";"1";"46";"45";"module.training_block1.exec-4675.GoNoGo1";;;;;;;;;;;;;;;;;;;;;;;"1249";"2014-08-08 13:00:42.875";"ST_correctStop";"0";"1";"FINISHED";"NONE";"success";"0";"1";"2014-08-08 13:00:41.625";"1";;;;;;;;;;;;;;;;;;;;;;;;;;;;;;;;;;;;;;;;;;;;;;;;;;;;;;;;;
"4umk84";"1994";;"Windows XP";"Rachel's Experiment (D.T.)";"1.0";"2";"1";"1";"2";"1";"1";"2014-08-08 12:57:14.602";"2014-08-08 13:11:18.306";"1";"0";"1";"47";"46";"module.training_block1.exec-4675.GoNoGo1";;;;;;;;;;;;;;;;;;;;;;;"1249";"2014-08-08 13:00:45.407";"ST_correctStop";"21";"0";"FINISHED";"NONE";"success";"0";"1";"2014-08-08 13:00:44.157";"3";;;;;;;;;;;;;;;;;;;;;;;;;;;;;;;;;;;;;;;;;;;;;;;;;;;;;;;;;
"4umk84";"1994";;"Windows XP";"Rachel's Experiment (D.T.)";"1.0";"2";"1";"1";"2";"1";"1";"2014-08-08 12:57:14.602";"2014-08-08 13:11:18.306";"1";"0";"1";"48";"47";"module.training_block1.exec-4675.GoNoGo1";;;;;;;;;;;;;;;;;;;;;;;"1251";"2014-08-08 13:00:47.954";"NST_correctLoc";"20";"1";"FINISHED";"RIGHT";"success";"453";"0";"2014-08-08 13:00:46.704";"3";;;;;;;;;;;;;;;;;;;;;;;;;;;;;;;;;;;;;;;;;;;;;;;;;;;;;;;;;
"4umk84";"1994";;"Windows XP";"Rachel's Experiment (D.T.)";"1.0";"2";"1";"1";"2";"1";"1";"2014-08-08 12:57:14.602";"2014-08-08 13:11:18.306";"1";"0";"1";"49";"48";"module.training_block1.exec-4675.GoNoGo1";;;;;;;;;;;;;;;;;;;;;;;"1251";"2014-08-08 13:00:50.501";"NST_correctLoc";"26";"0";"FINISHED";"LEFT";"success";"534";"0";"2014-08-08 13:00:49.251";"3";;;;;;;;;;;;;;;;;;;;;;;;;;;;;;;;;;;;;;;;;;;;;;;;;;;;;;;;;
"4umk84";"1994";;"Windows XP";"Rachel's Experiment (D.T.)";"1.0";"2";"1";"1";"2";"1";"1";"2014-08-08 12:57:14.602";"2014-08-08 13:11:18.306";"1";"0";"1";"50";"49";"module.training_block1.exec-4675.GoNoGo1";;;;;;;;;;;;;;;;;;;;;;;"1251";"2014-08-08 13:00:53.048";"NST_correctLoc";"19";"0";"FINISHED";"LEFT";"success";"592";"0";"2014-08-08 13:00:51.798";"3";;;;;;;;;;;;;;;;;;;;;;;;;;;;;;;;;;;;;;;;;;;;;;;;;;;;;;;;;
"4umk84";"1994";;"Windows XP";"Rachel's Experiment (D.T.)";"1.0";"2";"1";"1";"2";"1";"1";"2014-08-08 12:57:14.602";"2014-08-08 13:11:18.306";"1";"0";"1";"51";"50";"module.training_block1.exec-4675.GoNoGo1";;;;;;;;;;;;;;;;;;;;;;;"1251";"2014-08-08 13:00:55.595";"NST_correctLoc";"35";"0";"FINISHED";"LEFT";"success";"441";"0";"2014-08-08 13:00:54.345";"3";;;;;;;;;;;;;;;;;;;;;;;;;;;;;;;;;;;;;;;;;;;;;;;;;;;;;;;;;
"4umk84";"1994";;"Windows XP";"Rachel's Experiment (D.T.)";"1.0";"2";"1";"1";"2";"1";"1";"2014-08-08 12:57:14.602";"2014-08-08 13:11:18.306";"1";"0";"1";"52";"51";"module.training_block2.exec-6245.GoNoGo2";;;;;;;;;;;;;;;;;;;;;;;;;;;;;;;;;;;"1251";"2014-08-08 13:01:17.721";"NST_correctLoc";"33";"0";"FINISHED";"LEFT";"success";"477";"0";"2014-08-08 13:01:16.471";"3";;;;;;;;;;;;;;;;;;;;;;;;;;;;;;;;;;;;;;;;;;;;;
"4umk84";"1994";;"Windows XP";"Rachel's Experiment (D.T.)";"1.0";"2";"1";"1";"2";"1";"1";"2014-08-08 12:57:14.602";"2014-08-08 13:11:18.306";"1";"0";"1";"53";"52";"module.training_block2.exec-6245.GoNoGo2";;;;;;;;;;;;;;;;;;;;;;;;;;;;;;;;;;;"1251";"2014-08-08 13:01:20.268";"NST_correctLoc";"16";"1";"FINISHED";"RIGHT";"success";"430";"0";"2014-08-08 13:01:19.017";"2";;;;;;;;;;;;;;;;;;;;;;;;;;;;;;;;;;;;;;;;;;;;;
"4umk84";"1994";;"Windows XP";"Rachel's Experiment (D.T.)";"1.0";"2";"1";"1";"2";"1";"1";"2014-08-08 12:57:14.602";"2014-08-08 13:11:18.306";"1";"0";"1";"54";"53";"module.training_block2.exec-6245.GoNoGo2";;;;;;;;;;;;;;;;;;;;;;;;;;;;;;;;;;;"1249";"2014-08-08 13:01:22.799";"ST_correctStop";"4";"1";"FINISHED";"NONE";"success";"0";"1";"2014-08-08 13:01:21.549";"1";;;;;;;;;;;;;;;;;;;;;;;;;;;;;;;;;;;;;;;;;;;;;
"4umk84";"1994";;"Windows XP";"Rachel's Experiment (D.T.)";"1.0";"2";"1";"1";"2";"1";"1";"2014-08-08 12:57:14.602";"2014-08-08 13:11:18.306";"1";"0";"1";"55";"54";"module.training_block2.exec-6245.GoNoGo2";;;;;;;;;;;;;;;;;;;;;;;;;;;;;;;;;;;"1251";"2014-08-08 13:01:25.346";"NST_correctLoc";"18";"1";"FINISHED";"RIGHT";"success";"423";"0";"2014-08-08 13:01:24.096";"3";;;;;;;;;;;;;;;;;;;;;;;;;;;;;;;;;;;;;;;;;;;;;
"4umk84";"1994";;"Windows XP";"Rachel's Experiment (D.T.)";"1.0";"2";"1";"1";"2";"1";"1";"2014-08-08 12:57:14.602";"2014-08-08 13:11:18.306";"1";"0";"1";"56";"55";"module.training_block2.exec-6245.GoNoGo2";;;;;;;;;;;;;;;;;;;;;;;;;;;;;;;;;;;"1251";"2014-08-08 13:01:27.877";"NST_correctLoc";"23";"0";"FINISHED";"LEFT";"success";"543";"0";"2014-08-08 13:01:26.627";"3";;;;;;;;;;;;;;;;;;;;;;;;;;;;;;;;;;;;;;;;;;;;;
"4umk84";"1994";;"Windows XP";"Rachel's Experiment (D.T.)";"1.0";"2";"1";"1";"2";"1";"1";"2014-08-08 12:57:14.602";"2014-08-08 13:11:18.306";"1";"0";"1";"57";"56";"module.training_block2.exec-6245.GoNoGo2";;;;;;;;;;;;;;;;;;;;;;;;;;;;;;;;;;;"1249";"2014-08-08 13:01:30.424";"ST_correctStop";"7";"1";"FINISHED";"NONE";"success";"0";"1";"2014-08-08 13:01:29.174";"1";;;;;;;;;;;;;;;;;;;;;;;;;;;;;;;;;;;;;;;;;;;;;
"4umk84";"1994";;"Windows XP";"Rachel's Experiment (D.T.)";"1.0";"2";"1";"1";"2";"1";"1";"2014-08-08 12:57:14.602";"2014-08-08 13:11:18.306";"1";"0";"1";"58";"57";"module.training_block2.exec-6245.GoNoGo2";;;;;;;;;;;;;;;;;;;;;;;;;;;;;;;;;;;"1249";"2014-08-08 13:01:32.956";"ST_correctStop";"25";"0";"FINISHED";"NONE";"success";"0";"1";"2014-08-08 13:01:31.705";"3";;;;;;;;;;;;;;;;;;;;;;;;;;;;;;;;;;;;;;;;;;;;;
"4umk84";"1994";;"Windows XP";"Rachel's Experiment (D.T.)";"1.0";"2";"1";"1";"2";"1";"1";"2014-08-08 12:57:14.602";"2014-08-08 13:11:18.306";"1";"0";"1";"59";"58";"module.training_block2.exec-6245.GoNoGo2";;;;;;;;;;;;;;;;;;;;;;;;;;;;;;;;;;;"1249";"2014-08-08 13:01:35.503";"NST_correctLoc";"13";"0";"FINISHED";"LEFT";"success";"409";"0";"2014-08-08 13:01:34.252";"2";;;;;;;;;;;;;;;;;;;;;;;;;;;;;;;;;;;;;;;;;;;;;
"4umk84";"1994";;"Windows XP";"Rachel's Experiment (D.T.)";"1.0";"2";"1";"1";"2";"1";"1";"2014-08-08 12:57:14.602";"2014-08-08 13:11:18.306";"1";"0";"1";"60";"59";"module.training_block2.exec-6245.GoNoGo2";;;;;;;;;;;;;;;;;;;;;;;;;;;;;;;;;;;"1249";"2014-08-08 13:01:38.049";"ST_correctStop";"19";"0";"FINISHED";"NONE";"success";"0";"1";"2014-08-08 13:01:36.799";"3";;;;;;;;;;;;;;;;;;;;;;;;;;;;;;;;;;;;;;;;;;;;;
"4umk84";"1994";;"Windows XP";"Rachel's Experiment (D.T.)";"1.0";"2";"1";"1";"2";"1";"1";"2014-08-08 12:57:14.602";"2014-08-08 13:11:18.306";"1";"0";"1";"61";"60";"module.training_block2.exec-6245.GoNoGo2";;;;;;;;;;;;;;;;;;;;;;;;;;;;;;;;;;;"1236";"2014-08-08 13:01:40.596";"NST_correctLoc";"20";"0";"FINISHED";"LEFT";"success";"492";"0";"2014-08-08 13:01:39.346";"3";;;;;;;;;;;;;;;;;;;;;;;;;;;;;;;;;;;;;;;;;;;;;
"4umk84";"1994";;"Windows XP";"Rachel's Experiment (D.T.)";"1.0";"2";"1";"1";"2";"1";"1";"2014-08-08 12:57:14.602";"2014-08-08 13:11:18.306";"1";"0";"1";"62";"61";"module.training_block2.exec-6245.GoNoGo2";;;;;;;;;;;;;;;;;;;;;;;;;;;;;;;;;;;"1249";"2014-08-08 13:01:43.128";"ST_correctStop";"28";"1";"FINISHED";"NONE";"success";"0";"1";"2014-08-08 13:01:41.878";"3";;;;;;;;;;;;;;;;;;;;;;;;;;;;;;;;;;;;;;;;;;;;;
"4umk84";"1994";;"Windows XP";"Rachel's Experiment (D.T.)";"1.0";"2";"1";"1";"2";"1";"1";"2014-08-08 12:57:14.602";"2014-08-08 13:11:18.306";"1";"0";"1";"63";"62";"module.training_block2.exec-6245.GoNoGo2";;;;;;;;;;;;;;;;;;;;;;;;;;;;;;;;;;;"1249";"2014-08-08 13:01:45.675";"NST_correctLoc";"14";"1";"FINISHED";"RIGHT";"success";"415";"0";"2014-08-08 13:01:44.425";"2";;;;;;;;;;;;;;;;;;;;;;;;;;;;;;;;;;;;;;;;;;;;;
"4umk84";"1994";;"Windows XP";"Rachel's Experiment (D.T.)";"1.0";"2";"1";"1";"2";"1";"1";"2014-08-08 12:57:14.602";"2014-08-08 13:11:18.306";"1";"0";"1";"64";"63";"module.training_block2.exec-6245.GoNoGo2";;;;;;;;;;;;;;;;;;;;;;;;;;;;;;;;;;;"1251";"2014-08-08 13:01:48.222";"NST_correctLoc";"17";"0";"FINISHED";"LEFT";"success";"572";"0";"2014-08-08 13:01:46.972";"2";;;;;;;;;;;;;;;;;;;;;;;;;;;;;;;;;;;;;;;;;;;;;
"4umk84";"1994";;"Windows XP";"Rachel's Experiment (D.T.)";"1.0";"2";"1";"1";"2";"1";"1";"2014-08-08 12:57:14.602";"2014-08-08 13:11:18.306";"1";"0";"1";"65";"64";"module.training_block2.exec-6245.GoNoGo2";;;;;;;;;;;;;;;;;;;;;;;;;;;;;;;;;;;"1251";"2014-08-08 13:01:50.769";"NST_correctLoc";"27";"1";"FINISHED";"RIGHT";"success";"539";"0";"2014-08-08 13:01:49.519";"3";;;;;;;;;;;;;;;;;;;;;;;;;;;;;;;;;;;;;;;;;;;;;
"4umk84";"1994";;"Windows XP";"Rachel's Experiment (D.T.)";"1.0";"2";"1";"1";"2";"1";"1";"2014-08-08 12:57:14.602";"2014-08-08 13:11:18.306";"1";"0";"1";"66";"65";"module.training_block2.exec-6245.GoNoGo2";;;;;;;;;;;;;;;;;;;;;;;;;;;;;;;;;;;"1249";"2014-08-08 13:01:53.316";"ST_correctStop";"35";"1";"FINISHED";"NONE";"success";"0";"1";"2014-08-08 13:01:52.066";"3";;;;;;;;;;;;;;;;;;;;;;;;;;;;;;;;;;;;;;;;;;;;;
"4umk84";"1994";;"Windows XP";"Rachel's Experiment (D.T.)";"1.0";"2";"1";"1";"2";"1";"1";"2014-08-08 12:57:14.602";"2014-08-08 13:11:18.306";"1";"0";"1";"67";"66";"module.training_block2.exec-6245.GoNoGo2";;;;;;;;;;;;;;;;;;;;;;;;;;;;;;;;;;;"1250";"2014-08-08 13:01:55.847";"ST_correctStop";"2";"0";"FINISHED";"NONE";"success";"0";"1";"2014-08-08 13:01:54.597";"1";;;;;;;;;;;;;;;;;;;;;;;;;;;;;;;;;;;;;;;;;;;;;
"4umk84";"1994";;"Windows XP";"Rachel's Experiment (D.T.)";"1.0";"2";"1";"1";"2";"1";"1";"2014-08-08 12:57:14.602";"2014-08-08 13:11:18.306";"1";"0";"1";"68";"67";"module.training_block2.exec-6245.GoNoGo2";;;;;;;;;;;;;;;;;;;;;;;;;;;;;;;;;;;"1249";"2014-08-08 13:01:58.378";"ST_correctStop";"34";"1";"FINISHED";"NONE";"success";"0";"1";"2014-08-08 13:01:57.128";"3";;;;;;;;;;;;;;;;;;;;;;;;;;;;;;;;;;;;;;;;;;;;;
"4umk84";"1994";;"Windows XP";"Rachel's Experiment (D.T.)";"1.0";"2";"1";"1";"2";"1";"1";"2014-08-08 12:57:14.602";"2014-08-08 13:11:18.306";"1";"0";"1";"69";"68";"module.training_block2.exec-6245.GoNoGo2";;;;;;;;;;;;;;;;;;;;;;;;;;;;;;;;;;;"1251";"2014-08-08 13:02:00.925";"NST_correctLoc";"9";"1";"FINISHED";"RIGHT";"success";"426";"0";"2014-08-08 13:01:59.675";"2";;;;;;;;;;;;;;;;;;;;;;;;;;;;;;;;;;;;;;;;;;;;;
"4umk84";"1994";;"Windows XP";"Rachel's Experiment (D.T.)";"1.0";"2";"1";"1";"2";"1";"1";"2014-08-08 12:57:14.602";"2014-08-08 13:11:18.306";"1";"0";"1";"70";"69";"module.training_block2.exec-6245.GoNoGo2";;;;;;;;;;;;;;;;;;;;;;;;;;;;;;;;;;;"1250";"2014-08-08 13:02:03.457";"ST_correctStop";"26";"1";"FINISHED";"NONE";"success";"0";"1";"2014-08-08 13:02:02.207";"3";;;;;;;;;;;;;;;;;;;;;;;;;;;;;;;;;;;;;;;;;;;;;
"4umk84";"1994";;"Windows XP";"Rachel's Experiment (D.T.)";"1.0";"2";"1";"1";"2";"1";"1";"2014-08-08 12:57:14.602";"2014-08-08 13:11:18.306";"1";"0";"1";"71";"70";"module.training_block2.exec-6245.GoNoGo2";;;;;;;;;;;;;;;;;;;;;;;;;;;;;;;;;;;"1251";"2014-08-08 13:02:05.988";"NST_correctLoc";"12";"0";"FINISHED";"LEFT";"success";"417";"0";"2014-08-08 13:02:04.738";"2";;;;;;;;;;;;;;;;;;;;;;;;;;;;;;;;;;;;;;;;;;;;;
"4umk84";"1994";;"Windows XP";"Rachel's Experiment (D.T.)";"1.0";"2";"1";"1";"2";"1";"1";"2014-08-08 12:57:14.602";"2014-08-08 13:11:18.306";"1";"0";"1";"72";"71";"module.training_block2.exec-6245.GoNoGo2";;;;;;;;;;;;;;;;;;;;;;;;;;;;;;;;;;;"1251";"2014-08-08 13:02:08.535";"NST_correctLoc";"10";"1";"FINISHED";"RIGHT";"success";"517";"0";"2014-08-08 13:02:07.285";"2";;;;;;;;;;;;;;;;;;;;;;;;;;;;;;;;;;;;;;;;;;;;;
"4umk84";"1994";;"Windows XP";"Rachel's Experiment (D.T.)";"1.0";"2";"1";"1";"2";"1";"1";"2014-08-08 12:57:14.602";"2014-08-08 13:11:18.306";"1";"0";"1";"73";"72";"module.training_block2.exec-6245.GoNoGo2";;;;;;;;;;;;;;;;;;;;;;;;;;;;;;;;;;;"1249";"2014-08-08 13:02:11.066";"ST_correctStop";"5";"1";"FINISHED";"NONE";"success";"0";"1";"2014-08-08 13:02:09.816";"1";;;;;;;;;;;;;;;;;;;;;;;;;;;;;;;;;;;;;;;;;;;;;
"4umk84";"1994";;"Windows XP";"Rachel's Experiment (D.T.)";"1.0";"2";"1";"1";"2";"1";"1";"2014-08-08 12:57:14.602";"2014-08-08 13:11:18.306";"1";"0";"1";"74";"73";"module.training_block2.exec-6245.GoNoGo2";;;;;;;;;;;;;;;;;;;;;;;;;;;;;;;;;;;"1251";"2014-08-08 13:02:13.598";"NST_correctLoc";"30";"0";"FINISHED";"LEFT";"success";"682";"0";"2014-08-08 13:02:12.348";"3";;;;;;;;;;;;;;;;;;;;;;;;;;;;;;;;;;;;;;;;;;;;;
"4umk84";"1994";;"Windows XP";"Rachel's Experiment (D.T.)";"1.0";"2";"1";"1";"2";"1";"1";"2014-08-08 12:57:14.602";"2014-08-08 13:11:18.306";"1";"0";"1";"75";"74";"module.training_block2.exec-6245.GoNoGo2";;;;;;;;;;;;;;;;;;;;;;;;;;;;;;;;;;;"1251";"2014-08-08 13:02:16.145";"NST_correctLoc";"11";"1";"FINISHED";"RIGHT";"success";"558";"0";"2014-08-08 13:02:14.895";"2";;;;;;;;;;;;;;;;;;;;;;;;;;;;;;;;;;;;;;;;;;;;;
"4umk84";"1994";;"Windows XP";"Rachel's Experiment (D.T.)";"1.0";"2";"1";"1";"2";"1";"1";"2014-08-08 12:57:14.602";"2014-08-08 13:11:18.306";"1";"0";"1";"76";"75";"module.training_block2.exec-6245.GoNoGo2";;;;;;;;;;;;;;;;;;;;;;;;;;;;;;;;;;;"1249";"2014-08-08 13:02:18.676";"ST_correctStop";"1";"1";"FINISHED";"NONE";"success";"0";"1";"2014-08-08 13:02:17.426";"1";;;;;;;;;;;;;;;;;;;;;;;;;;;;;;;;;;;;;;;;;;;;;
"4umk84";"1994";;"Windows XP";"Rachel's Experiment (D.T.)";"1.0";"2";"1";"1";"2";"1";"1";"2014-08-08 12:57:14.602";"2014-08-08 13:11:18.306";"1";"0";"1";"77";"76";"module.training_block2.exec-6245.GoNoGo2";;;;;;;;;;;;;;;;;;;;;;;;;;;;;;;;;;;"1249";"2014-08-08 13:02:21.223";"ST_correctStop";"3";"1";"FINISHED";"NONE";"success";"0";"1";"2014-08-08 13:02:19.973";"1";;;;;;;;;;;;;;;;;;;;;;;;;;;;;;;;;;;;;;;;;;;;;
"4umk84";"1994";;"Windows XP";"Rachel's Experiment (D.T.)";"1.0";"2";"1";"1";"2";"1";"1";"2014-08-08 12:57:14.602";"2014-08-08 13:11:18.306";"1";"0";"1";"78";"77";"module.training_block2.exec-6245.GoNoGo2";;;;;;;;;;;;;;;;;;;;;;;;;;;;;;;;;;;"1249";"2014-08-08 13:02:23.770";"ST_correctStop";"24";"1";"FINISHED";"NONE";"success";"0";"1";"2014-08-08 13:02:22.520";"3";;;;;;;;;;;;;;;;;;;;;;;;;;;;;;;;;;;;;;;;;;;;;
"4umk84";"1994";;"Windows XP";"Rachel's Experiment (D.T.)";"1.0";"2";"1";"1";"2";"1";"1";"2014-08-08 12:57:14.602";"2014-08-08 13:11:18.306";"1";"0";"1";"79";"78";"module.training_block2.exec-6245.GoNoGo2";;;;;;;;;;;;;;;;;;;;;;;;;;;;;;;;;;;"1249";"2014-08-08 13:02:26.301";"ST_correctStop";"8";"1";"FINISHED";"NONE";"success";"0";"1";"2014-08-08 13:02:25.051";"1";;;;;;;;;;;;;;;;;;;;;;;;;;;;;;;;;;;;;;;;;;;;;
"4umk84";"1994";;"Windows XP";"Rachel's Experiment (D.T.)";"1.0";"2";"1";"1";"2";"1";"1";"2014-08-08 12:57:14.602";"2014-08-08 13:11:18.306";"1";"0";"1";"80";"79";"module.training_block2.exec-6245.GoNoGo2";;;;;;;;;;;;;;;;;;;;;;;;;;;;;;;;;;;"1249";"2014-08-08 13:02:28.833";"ST_correctStop";"31";"0";"FINISHED";"NONE";"success";"0";"1";"2014-08-08 13:02:27.583";"3";;;;;;;;;;;;;;;;;;;;;;;;;;;;;;;;;;;;;;;;;;;;;
"4umk84";"1994";;"Windows XP";"Rachel's Experiment (D.T.)";"1.0";"2";"1";"1";"2";"1";"1";"2014-08-08 12:57:14.602";"2014-08-08 13:11:18.306";"1";"0";"1";"81";"80";"module.training_block2.exec-6245.GoNoGo2";;;;;;;;;;;;;;;;;;;;;;;;;;;;;;;;;;;"1251";"2014-08-08 13:02:31.364";"NST_correctLoc";"22";"1";"FINISHED";"RIGHT";"success";"452";"0";"2014-08-08 13:02:30.114";"3";;;;;;;;;;;;;;;;;;;;;;;;;;;;;;;;;;;;;;;;;;;;;
"4umk84";"1994";;"Windows XP";"Rachel's Experiment (D.T.)";"1.0";"2";"1";"1";"2";"1";"1";"2014-08-08 12:57:14.602";"2014-08-08 13:11:18.306";"1";"0";"1";"82";"81";"module.training_block2.exec-6245.GoNoGo2";;;;;;;;;;;;;;;;;;;;;;;;;;;;;;;;;;;"1249";"2014-08-08 13:02:33.895";"ST_correctStop";"6";"1";"FINISHED";"NONE";"success";"0";"1";"2014-08-08 13:02:32.645";"1";;;;;;;;;;;;;;;;;;;;;;;;;;;;;;;;;;;;;;;;;;;;;
"4umk84";"1994";;"Windows XP";"Rachel's Experiment (D.T.)";"1.0";"2";"1";"1";"2";"1";"1";"2014-08-08 12:57:14.602";"2014-08-08 13:11:18.306";"1";"0";"1";"83";"82";"module.training_block2.exec-6245.GoNoGo2";;;;;;;;;;;;;;;;;;;;;;;;;;;;;;;;;;;"1249";"2014-08-08 13:02:36.427";"ST_correctStop";"29";"1";"FINISHED";"NONE";"success";"0";"1";"2014-08-08 13:02:35.177";"3";;;;;;;;;;;;;;;;;;;;;;;;;;;;;;;;;;;;;;;;;;;;;
"4umk84";"1994";;"Windows XP";"Rachel's Experiment (D.T.)";"1.0";"2";"1";"1";"2";"1";"1";"2014-08-08 12:57:14.602";"2014-08-08 13:11:18.306";"1";"0";"1";"84";"83";"module.training_block2.exec-6245.GoNoGo2";;;;;;;;;;;;;;;;;;;;;;;;;;;;;;;;;;;"1251";"2014-08-08 13:02:38.958";"NST_correctLoc";"21";"1";"FINISHED";"RIGHT";"success";"574";"0";"2014-08-08 13:02:37.708";"3";;;;;;;;;;;;;;;;;;;;;;;;;;;;;;;;;;;;;;;;;;;;;
"4umk84";"1994";;"Windows XP";"Rachel's Experiment (D.T.)";"1.0";"2";"1";"1";"2";"1";"1";"2014-08-08 12:57:14.602";"2014-08-08 13:11:18.306";"1";"0";"1";"85";"84";"module.training_block2.exec-6245.GoNoGo2";;;;;;;;;;;;;;;;;;;;;;;;;;;;;;;;;;;"1251";"2014-08-08 13:02:41.489";"NST_correctLoc";"32";"1";"FINISHED";"RIGHT";"success";"996";"0";"2014-08-08 13:02:40.239";"3";;;;;;;;;;;;;;;;;;;;;;;;;;;;;;;;;;;;;;;;;;;;;
"4umk84";"1994";;"Windows XP";"Rachel's Experiment (D.T.)";"1.0";"2";"1";"1";"2";"1";"1";"2014-08-08 12:57:14.602";"2014-08-08 13:11:18.306";"1";"0";"1";"86";"85";"module.training_block2.exec-6245.GoNoGo2";;;;;;;;;;;;;;;;;;;;;;;;;;;;;;;;;;;"1252";"2014-08-08 13:02:44.036";"NST_correctLoc";"15";"0";"FINISHED";"LEFT";"success";"504";"0";"2014-08-08 13:02:42.786";"2";;;;;;;;;;;;;;;;;;;;;;;;;;;;;;;;;;;;;;;;;;;;;
"4umk84";"1994";;"Windows XP";"Rachel's Experiment (D.T.)";"1.0";"2";"1";"1";"2";"1";"1";"2014-08-08 12:57:14.602";"2014-08-08 13:11:18.306";"1";"0";"1";"87";"86";"module.training_block2.exec-6245.GoNoGo2";;;;;;;;;;;;;;;;;;;;;;;;;;;;;;;;;;;"1250";"2014-08-08 13:02:46.568";"ST_correctStop";"0";"1";"FINISHED";"NONE";"success";"0";"1";"2014-08-08 13:02:45.318";"1";;;;;;;;;;;;;;;;;;;;;;;;;;;;;;;;;;;;;;;;;;;;;
"4umk84";"1994";;"Windows XP";"Rachel's Experiment (D.T.)";"1.0";"2";"1";"1";"2";"1";"1";"2014-08-08 12:57:14.602";"2014-08-08 13:11:18.306";"1";"0";"1";"88";"87";"module.training_block3.exec-4334.GoNoGo3";;;;;;;;;;;;;;;;;;;;;;;;;;;;;;;;;;;;;;;;;;;;;;;"1251";"2014-08-08 13:03:05.022";"NST_correctLoc";"14";"1";"FINISHED";"RIGHT";"success";"475";"0";"2014-08-08 13:03:03.772";"2";;;;;;;;;;;;;;;;;;;;;;;;;;;;;;;;;
"4umk84";"1994";;"Windows XP";"Rachel's Experiment (D.T.)";"1.0";"2";"1";"1";"2";"1";"1";"2014-08-08 12:57:14.602";"2014-08-08 13:11:18.306";"1";"0";"1";"89";"88";"module.training_block3.exec-4334.GoNoGo3";;;;;;;;;;;;;;;;;;;;;;;;;;;;;;;;;;;;;;;;;;;;;;;"1249";"2014-08-08 13:03:07.553";"ST_correctStop";"20";"1";"FINISHED";"NONE";"success";"0";"1";"2014-08-08 13:03:06.303";"3";;;;;;;;;;;;;;;;;;;;;;;;;;;;;;;;;
"4umk84";"1994";;"Windows XP";"Rachel's Experiment (D.T.)";"1.0";"2";"1";"1";"2";"1";"1";"2014-08-08 12:57:14.602";"2014-08-08 13:11:18.306";"1";"0";"1";"90";"89";"module.training_block3.exec-4334.GoNoGo3";;;;;;;;;;;;;;;;;;;;;;;;;;;;;;;;;;;;;;;;;;;;;;;"1250";"2014-08-08 13:03:10.084";"ST_correctStop";"5";"0";"FINISHED";"NONE";"success";"0";"1";"2014-08-08 13:03:08.834";"1";;;;;;;;;;;;;;;;;;;;;;;;;;;;;;;;;
"4umk84";"1994";;"Windows XP";"Rachel's Experiment (D.T.)";"1.0";"2";"1";"1";"2";"1";"1";"2014-08-08 12:57:14.602";"2014-08-08 13:11:18.306";"1";"0";"1";"91";"90";"module.training_block3.exec-4334.GoNoGo3";;;;;;;;;;;;;;;;;;;;;;;;;;;;;;;;;;;;;;;;;;;;;;;"1251";"2014-08-08 13:03:12.616";"NST_correctLoc";"28";"1";"FINISHED";"RIGHT";"success";"372";"0";"2014-08-08 13:03:11.366";"3";;;;;;;;;;;;;;;;;;;;;;;;;;;;;;;;;
"4umk84";"1994";;"Windows XP";"Rachel's Experiment (D.T.)";"1.0";"2";"1";"1";"2";"1";"1";"2014-08-08 12:57:14.602";"2014-08-08 13:11:18.306";"1";"0";"1";"92";"91";"module.training_block3.exec-4334.GoNoGo3";;;;;;;;;;;;;;;;;;;;;;;;;;;;;;;;;;;;;;;;;;;;;;;"1249";"2014-08-08 13:03:15.147";"ST_failedStop";"24";"0";"FINISHED";"LEFT";"failure";"509";"1";"2014-08-08 13:03:13.897";"3";;;;;;;;;;;;;;;;;;;;;;;;;;;;;;;;;
"4umk84";"1994";;"Windows XP";"Rachel's Experiment (D.T.)";"1.0";"2";"1";"1";"2";"1";"1";"2014-08-08 12:57:14.602";"2014-08-08 13:11:18.306";"1";"0";"1";"93";"92";"module.training_block3.exec-4334.GoNoGo3";;;;;;;;;;;;;;;;;;;;;;;;;;;;;;;;;;;;;;;;;;;;;;;"1235";"2014-08-08 13:03:17.678";"NST_correctLoc";"17";"0";"FINISHED";"LEFT";"success";"582";"0";"2014-08-08 13:03:16.428";"2";;;;;;;;;;;;;;;;;;;;;;;;;;;;;;;;;
"4umk84";"1994";;"Windows XP";"Rachel's Experiment (D.T.)";"1.0";"2";"1";"1";"2";"1";"1";"2014-08-08 12:57:14.602";"2014-08-08 13:11:18.306";"1";"0";"1";"94";"93";"module.training_block3.exec-4334.GoNoGo3";;;;;;;;;;;;;;;;;;;;;;;;;;;;;;;;;;;;;;;;;;;;;;;"1249";"2014-08-08 13:03:20.210";"ST_correctStop";"22";"0";"FINISHED";"NONE";"success";"0";"1";"2014-08-08 13:03:18.960";"3";;;;;;;;;;;;;;;;;;;;;;;;;;;;;;;;;
"4umk84";"1994";;"Windows XP";"Rachel's Experiment (D.T.)";"1.0";"2";"1";"1";"2";"1";"1";"2014-08-08 12:57:14.602";"2014-08-08 13:11:18.306";"1";"0";"1";"95";"94";"module.training_block3.exec-4334.GoNoGo3";;;;;;;;;;;;;;;;;;;;;;;;;;;;;;;;;;;;;;;;;;;;;;;"1235";"2014-08-08 13:03:22.725";"NST_correctLoc";"27";"0";"FINISHED";"LEFT";"success";"704";"0";"2014-08-08 13:03:21.475";"3";;;;;;;;;;;;;;;;;;;;;;;;;;;;;;;;;
"4umk84";"1994";;"Windows XP";"Rachel's Experiment (D.T.)";"1.0";"2";"1";"1";"2";"1";"1";"2014-08-08 12:57:14.602";"2014-08-08 13:11:18.306";"1";"0";"1";"96";"95";"module.training_block3.exec-4334.GoNoGo3";;;;;;;;;;;;;;;;;;;;;;;;;;;;;;;;;;;;;;;;;;;;;;;"1250";"2014-08-08 13:03:25.241";"ST_correctStop";"1";"0";"FINISHED";"NONE";"success";"0";"1";"2014-08-08 13:03:23.991";"1";;;;;;;;;;;;;;;;;;;;;;;;;;;;;;;;;
"4umk84";"1994";;"Windows XP";"Rachel's Experiment (D.T.)";"1.0";"2";"1";"1";"2";"1";"1";"2014-08-08 12:57:14.602";"2014-08-08 13:11:18.306";"1";"0";"1";"97";"96";"module.training_block3.exec-4334.GoNoGo3";;;;;;;;;;;;;;;;;;;;;;;;;;;;;;;;;;;;;;;;;;;;;;;"1251";"2014-08-08 13:03:27.772";"ST_correctStop";"8";"1";"FINISHED";"NONE";"success";"0";"1";"2014-08-08 13:03:26.522";"1";;;;;;;;;;;;;;;;;;;;;;;;;;;;;;;;;
"4umk84";"1994";;"Windows XP";"Rachel's Experiment (D.T.)";"1.0";"2";"1";"1";"2";"1";"1";"2014-08-08 12:57:14.602";"2014-08-08 13:11:18.306";"1";"0";"1";"98";"97";"module.training_block3.exec-4334.GoNoGo3";;;;;;;;;;;;;;;;;;;;;;;;;;;;;;;;;;;;;;;;;;;;;;;"1249";"2014-08-08 13:03:30.319";"ST_correctStop";"4";"0";"FINISHED";"NONE";"success";"0";"1";"2014-08-08 13:03:29.069";"1";;;;;;;;;;;;;;;;;;;;;;;;;;;;;;;;;
"4umk84";"1994";;"Windows XP";"Rachel's Experiment (D.T.)";"1.0";"2";"1";"1";"2";"1";"1";"2014-08-08 12:57:14.602";"2014-08-08 13:11:18.306";"1";"0";"1";"99";"98";"module.training_block3.exec-4334.GoNoGo3";;;;;;;;;;;;;;;;;;;;;;;;;;;;;;;;;;;;;;;;;;;;;;;"1251";"2014-08-08 13:03:32.851";"NST_correctLoc";"32";"1";"FINISHED";"RIGHT";"success";"396";"0";"2014-08-08 13:03:31.601";"3";;;;;;;;;;;;;;;;;;;;;;;;;;;;;;;;;
"4umk84";"1994";;"Windows XP";"Rachel's Experiment (D.T.)";"1.0";"2";"1";"1";"2";"1";"1";"2014-08-08 12:57:14.602";"2014-08-08 13:11:18.306";"1";"0";"1";"100";"99";"module.training_block3.exec-4334.GoNoGo3";;;;;;;;;;;;;;;;;;;;;;;;;;;;;;;;;;;;;;;;;;;;;;;"1249";"2014-08-08 13:03:35.382";"ST_correctStop";"3";"1";"FINISHED";"NONE";"success";"0";"1";"2014-08-08 13:03:34.132";"1";;;;;;;;;;;;;;;;;;;;;;;;;;;;;;;;;
"4umk84";"1994";;"Windows XP";"Rachel's Experiment (D.T.)";"1.0";"2";"1";"1";"2";"1";"1";"2014-08-08 12:57:14.602";"2014-08-08 13:11:18.306";"1";"0";"1";"101";"100";"module.training_block3.exec-4334.GoNoGo3";;;;;;;;;;;;;;;;;;;;;;;;;;;;;;;;;;;;;;;;;;;;;;;"1249";"2014-08-08 13:03:37.913";"NST_correctLoc";"29";"1";"FINISHED";"RIGHT";"success";"421";"0";"2014-08-08 13:03:36.663";"3";;;;;;;;;;;;;;;;;;;;;;;;;;;;;;;;;
"4umk84";"1994";;"Windows XP";"Rachel's Experiment (D.T.)";"1.0";"2";"1";"1";"2";"1";"1";"2014-08-08 12:57:14.602";"2014-08-08 13:11:18.306";"1";"0";"1";"102";"101";"module.training_block3.exec-4334.GoNoGo3";;;;;;;;;;;;;;;;;;;;;;;;;;;;;;;;;;;;;;;;;;;;;;;"1236";"2014-08-08 13:03:40.445";"NST_correctLoc";"16";"0";"FINISHED";"LEFT";"success";"489";"0";"2014-08-08 13:03:39.195";"2";;;;;;;;;;;;;;;;;;;;;;;;;;;;;;;;;
"4umk84";"1994";;"Windows XP";"Rachel's Experiment (D.T.)";"1.0";"2";"1";"1";"2";"1";"1";"2014-08-08 12:57:14.602";"2014-08-08 13:11:18.306";"1";"0";"1";"103";"102";"module.training_block3.exec-4334.GoNoGo3";;;;;;;;;;;;;;;;;;;;;;;;;;;;;;;;;;;;;;;;;;;;;;;"1250";"2014-08-08 13:03:42.976";"NST_correctLoc";"11";"0";"FINISHED";"LEFT";"success";"560";"0";"2014-08-08 13:03:41.726";"2";;;;;;;;;;;;;;;;;;;;;;;;;;;;;;;;;
"4umk84";"1994";;"Windows XP";"Rachel's Experiment (D.T.)";"1.0";"2";"1";"1";"2";"1";"1";"2014-08-08 12:57:14.602";"2014-08-08 13:11:18.306";"1";"0";"1";"104";"103";"module.training_block3.exec-4334.GoNoGo3";;;;;;;;;;;;;;;;;;;;;;;;;;;;;;;;;;;;;;;;;;;;;;;"1249";"2014-08-08 13:03:45.507";"ST_correctStop";"30";"1";"FINISHED";"NONE";"success";"0";"1";"2014-08-08 13:03:44.257";"3";;;;;;;;;;;;;;;;;;;;;;;;;;;;;;;;;
"4umk84";"1994";;"Windows XP";"Rachel's Experiment (D.T.)";"1.0";"2";"1";"1";"2";"1";"1";"2014-08-08 12:57:14.602";"2014-08-08 13:11:18.306";"1";"0";"1";"105";"104";"module.training_block3.exec-4334.GoNoGo3";;;;;;;;;;;;;;;;;;;;;;;;;;;;;;;;;;;;;;;;;;;;;;;"1250";"2014-08-08 13:03:48.039";"NST_correctLoc";"21";"0";"FINISHED";"LEFT";"success";"618";"0";"2014-08-08 13:03:46.789";"3";;;;;;;;;;;;;;;;;;;;;;;;;;;;;;;;;
"4umk84";"1994";;"Windows XP";"Rachel's Experiment (D.T.)";"1.0";"2";"1";"1";"2";"1";"1";"2014-08-08 12:57:14.602";"2014-08-08 13:11:18.306";"1";"0";"1";"106";"105";"module.training_block3.exec-4334.GoNoGo3";;;;;;;;;;;;;;;;;;;;;;;;;;;;;;;;;;;;;;;;;;;;;;;"1249";"2014-08-08 13:03:50.570";"ST_correctStop";"35";"1";"FINISHED";"NONE";"success";"0";"1";"2014-08-08 13:03:49.320";"3";;;;;;;;;;;;;;;;;;;;;;;;;;;;;;;;;
"4umk84";"1994";;"Windows XP";"Rachel's Experiment (D.T.)";"1.0";"2";"1";"1";"2";"1";"1";"2014-08-08 12:57:14.602";"2014-08-08 13:11:18.306";"1";"0";"1";"107";"106";"module.training_block3.exec-4334.GoNoGo3";;;;;;;;;;;;;;;;;;;;;;;;;;;;;;;;;;;;;;;;;;;;;;;"1251";"2014-08-08 13:03:53.102";"NST_correctLoc";"15";"1";"FINISHED";"RIGHT";"success";"452";"0";"2014-08-08 13:03:51.851";"2";;;;;;;;;;;;;;;;;;;;;;;;;;;;;;;;;
"4umk84";"1994";;"Windows XP";"Rachel's Experiment (D.T.)";"1.0";"2";"1";"1";"2";"1";"1";"2014-08-08 12:57:14.602";"2014-08-08 13:11:18.306";"1";"0";"1";"108";"107";"module.training_block3.exec-4334.GoNoGo3";;;;;;;;;;;;;;;;;;;;;;;;;;;;;;;;;;;;;;;;;;;;;;;"1251";"2014-08-08 13:03:55.633";"NST_correctLoc";"13";"0";"FINISHED";"LEFT";"success";"527";"0";"2014-08-08 13:03:54.383";"2";;;;;;;;;;;;;;;;;;;;;;;;;;;;;;;;;
"4umk84";"1994";;"Windows XP";"Rachel's Experiment (D.T.)";"1.0";"2";"1";"1";"2";"1";"1";"2014-08-08 12:57:14.602";"2014-08-08 13:11:18.306";"1";"0";"1";"109";"108";"module.training_block3.exec-4334.GoNoGo3";;;;;;;;;;;;;;;;;;;;;;;;;;;;;;;;;;;;;;;;;;;;;;;"1251";"2014-08-08 13:03:58.164";"NST_correctLoc";"26";"1";"FINISHED";"RIGHT";"success";"427";"0";"2014-08-08 13:03:56.914";"3";;;;;;;;;;;;;;;;;;;;;;;;;;;;;;;;;
"4umk84";"1994";;"Windows XP";"Rachel's Experiment (D.T.)";"1.0";"2";"1";"1";"2";"1";"1";"2014-08-08 12:57:14.602";"2014-08-08 13:11:18.306";"1";"0";"1";"110";"109";"module.training_block3.exec-4334.GoNoGo3";;;;;;;;;;;;;;;;;;;;;;;;;;;;;;;;;;;;;;;;;;;;;;;"1250";"2014-08-08 13:04:00.696";"ST_correctStop";"6";"1";"FINISHED";"NONE";"success";"0";"1";"2014-08-08 13:03:59.446";"1";;;;;;;;;;;;;;;;;;;;;;;;;;;;;;;;;
"4umk84";"1994";;"Windows XP";"Rachel's Experiment (D.T.)";"1.0";"2";"1";"1";"2";"1";"1";"2014-08-08 12:57:14.602";"2014-08-08 13:11:18.306";"1";"0";"1";"111";"110";"module.training_block3.exec-4334.GoNoGo3";;;;;;;;;;;;;;;;;;;;;;;;;;;;;;;;;;;;;;;;;;;;;;;"1250";"2014-08-08 13:04:03.227";"ST_correctStop";"18";"1";"FINISHED";"NONE";"success";"0";"1";"2014-08-08 13:04:01.977";"3";;;;;;;;;;;;;;;;;;;;;;;;;;;;;;;;;
"4umk84";"1994";;"Windows XP";"Rachel's Experiment (D.T.)";"1.0";"2";"1";"1";"2";"1";"1";"2014-08-08 12:57:14.602";"2014-08-08 13:11:18.306";"1";"0";"1";"112";"111";"module.training_block3.exec-4334.GoNoGo3";;;;;;;;;;;;;;;;;;;;;;;;;;;;;;;;;;;;;;;;;;;;;;;"1250";"2014-08-08 13:04:05.774";"NST_correctLoc";"34";"1";"FINISHED";"RIGHT";"success";"534";"0";"2014-08-08 13:04:04.524";"3";;;;;;;;;;;;;;;;;;;;;;;;;;;;;;;;;
"4umk84";"1994";;"Windows XP";"Rachel's Experiment (D.T.)";"1.0";"2";"1";"1";"2";"1";"1";"2014-08-08 12:57:14.602";"2014-08-08 13:11:18.306";"1";"0";"1";"113";"112";"module.training_block3.exec-4334.GoNoGo3";;;;;;;;;;;;;;;;;;;;;;;;;;;;;;;;;;;;;;;;;;;;;;;"1250";"2014-08-08 13:04:08.290";"ST_correctStop";"7";"0";"FINISHED";"NONE";"success";"0";"1";"2014-08-08 13:04:07.040";"1";;;;;;;;;;;;;;;;;;;;;;;;;;;;;;;;;
"4umk84";"1994";;"Windows XP";"Rachel's Experiment (D.T.)";"1.0";"2";"1";"1";"2";"1";"1";"2014-08-08 12:57:14.602";"2014-08-08 13:11:18.306";"1";"0";"1";"114";"113";"module.training_block3.exec-4334.GoNoGo3";;;;;;;;;;;;;;;;;;;;;;;;;;;;;;;;;;;;;;;;;;;;;;;"1250";"2014-08-08 13:04:10.821";"NST_correctLoc";"23";"1";"FINISHED";"RIGHT";"success";"585";"0";"2014-08-08 13:04:09.571";"3";;;;;;;;;;;;;;;;;;;;;;;;;;;;;;;;;
"4umk84";"1994";;"Windows XP";"Rachel's Experiment (D.T.)";"1.0";"2";"1";"1";"2";"1";"1";"2014-08-08 12:57:14.602";"2014-08-08 13:11:18.306";"1";"0";"1";"115";"114";"module.training_block3.exec-4334.GoNoGo3";;;;;;;;;;;;;;;;;;;;;;;;;;;;;;;;;;;;;;;;;;;;;;;"1251";"2014-08-08 13:04:13.352";"NST_correctLoc";"12";"0";"FINISHED";"LEFT";"success";"437";"0";"2014-08-08 13:04:12.102";"2";;;;;;;;;;;;;;;;;;;;;;;;;;;;;;;;;
"4umk84";"1994";;"Windows XP";"Rachel's Experiment (D.T.)";"1.0";"2";"1";"1";"2";"1";"1";"2014-08-08 12:57:14.602";"2014-08-08 13:11:18.306";"1";"0";"1";"116";"115";"module.training_block3.exec-4334.GoNoGo3";;;;;;;;;;;;;;;;;;;;;;;;;;;;;;;;;;;;;;;;;;;;;;;"1250";"2014-08-08 13:04:15.884";"NST_correctLoc";"10";"1";"FINISHED";"RIGHT";"success";"498";"0";"2014-08-08 13:04:14.634";"2";;;;;;;;;;;;;;;;;;;;;;;;;;;;;;;;;
"4umk84";"1994";;"Windows XP";"Rachel's Experiment (D.T.)";"1.0";"2";"1";"1";"2";"1";"1";"2014-08-08 12:57:14.602";"2014-08-08 13:11:18.306";"1";"0";"1";"117";"116";"module.training_block3.exec-4334.GoNoGo3";;;;;;;;;;;;;;;;;;;;;;;;;;;;;;;;;;;;;;;;;;;;;;;"1249";"2014-08-08 13:04:18.415";"ST_correctStop";"19";"0";"FINISHED";"NONE";"success";"0";"1";"2014-08-08 13:04:17.165";"3";;;;;;;;;;;;;;;;;;;;;;;;;;;;;;;;;
"4umk84";"1994";;"Windows XP";"Rachel's Experiment (D.T.)";"1.0";"2";"1";"1";"2";"1";"1";"2014-08-08 12:57:14.602";"2014-08-08 13:11:18.306";"1";"0";"1";"118";"117";"module.training_block3.exec-4334.GoNoGo3";;;;;;;;;;;;;;;;;;;;;;;;;;;;;;;;;;;;;;;;;;;;;;;"1250";"2014-08-08 13:04:20.946";"ST_correctStop";"33";"0";"FINISHED";"NONE";"success";"0";"1";"2014-08-08 13:04:19.696";"3";;;;;;;;;;;;;;;;;;;;;;;;;;;;;;;;;
"4umk84";"1994";;"Windows XP";"Rachel's Experiment (D.T.)";"1.0";"2";"1";"1";"2";"1";"1";"2014-08-08 12:57:14.602";"2014-08-08 13:11:18.306";"1";"0";"1";"119";"118";"module.training_block3.exec-4334.GoNoGo3";;;;;;;;;;;;;;;;;;;;;;;;;;;;;;;;;;;;;;;;;;;;;;;"1250";"2014-08-08 13:04:23.478";"ST_correctStop";"2";"1";"FINISHED";"NONE";"success";"0";"1";"2014-08-08 13:04:22.228";"1";;;;;;;;;;;;;;;;;;;;;;;;;;;;;;;;;
"4umk84";"1994";;"Windows XP";"Rachel's Experiment (D.T.)";"1.0";"2";"1";"1";"2";"1";"1";"2014-08-08 12:57:14.602";"2014-08-08 13:11:18.306";"1";"0";"1";"120";"119";"module.training_block3.exec-4334.GoNoGo3";;;;;;;;;;;;;;;;;;;;;;;;;;;;;;;;;;;;;;;;;;;;;;;"1251";"2014-08-08 13:04:25.993";"NST_correctLoc";"25";"1";"FINISHED";"RIGHT";"success";"554";"0";"2014-08-08 13:04:24.743";"3";;;;;;;;;;;;;;;;;;;;;;;;;;;;;;;;;
"4umk84";"1994";;"Windows XP";"Rachel's Experiment (D.T.)";"1.0";"2";"1";"1";"2";"1";"1";"2014-08-08 12:57:14.602";"2014-08-08 13:11:18.306";"1";"0";"1";"121";"120";"module.training_block3.exec-4334.GoNoGo3";;;;;;;;;;;;;;;;;;;;;;;;;;;;;;;;;;;;;;;;;;;;;;;"1249";"2014-08-08 13:04:28.525";"ST_correctStop";"0";"1";"FINISHED";"NONE";"success";"0";"1";"2014-08-08 13:04:27.275";"1";;;;;;;;;;;;;;;;;;;;;;;;;;;;;;;;;
"4umk84";"1994";;"Windows XP";"Rachel's Experiment (D.T.)";"1.0";"2";"1";"1";"2";"1";"1";"2014-08-08 12:57:14.602";"2014-08-08 13:11:18.306";"1";"0";"1";"122";"121";"module.training_block3.exec-4334.GoNoGo3";;;;;;;;;;;;;;;;;;;;;;;;;;;;;;;;;;;;;;;;;;;;;;;"1251";"2014-08-08 13:04:31.056";"NST_correctLoc";"9";"1";"FINISHED";"RIGHT";"success";"528";"0";"2014-08-08 13:04:29.806";"2";;;;;;;;;;;;;;;;;;;;;;;;;;;;;;;;;
"4umk84";"1994";;"Windows XP";"Rachel's Experiment (D.T.)";"1.0";"2";"1";"1";"2";"1";"1";"2014-08-08 12:57:14.602";"2014-08-08 13:11:18.306";"1";"0";"1";"123";"122";"module.training_block3.exec-4334.GoNoGo3";;;;;;;;;;;;;;;;;;;;;;;;;;;;;;;;;;;;;;;;;;;;;;;"1250";"2014-08-08 13:04:33.587";"ST_correctStop";"31";"1";"FINISHED";"NONE";"success";"0";"1";"2014-08-08 13:04:32.337";"3";;;;;;;;;;;;;;;;;;;;;;;;;;;;;;;;;
"4umk84";"1994";;"Windows XP";"Rachel's Experiment (D.T.)";"1.0";"2";"1";"1";"2";"1";"1";"2014-08-08 12:57:14.602";"2014-08-08 13:11:18.306";"1";"0";"1";"124";"123";"module.training_block4.exec-7875.GoNoGo4";;;;;;;;;;;;;;;;;;;;;;;;;;;;;;;;;;;;;;;;;;;;;;;;;;;;;;;;;;;"1249";"2014-08-08 13:04:54.463";"ST_correctStop";"24";"1";"FINISHED";"NONE";"success";"0";"1";"2014-08-08 13:04:53.213";"3";;;;;;;;;;;;;;;;;;;;;
"4umk84";"1994";;"Windows XP";"Rachel's Experiment (D.T.)";"1.0";"2";"1";"1";"2";"1";"1";"2014-08-08 12:57:14.602";"2014-08-08 13:11:18.306";"1";"0";"1";"125";"124";"module.training_block4.exec-7875.GoNoGo4";;;;;;;;;;;;;;;;;;;;;;;;;;;;;;;;;;;;;;;;;;;;;;;;;;;;;;;;;;;"1250";"2014-08-08 13:04:56.995";"NST_correctLoc";"11";"0";"FINISHED";"LEFT";"success";"459";"0";"2014-08-08 13:04:55.745";"2";;;;;;;;;;;;;;;;;;;;;
"4umk84";"1994";;"Windows XP";"Rachel's Experiment (D.T.)";"1.0";"2";"1";"1";"2";"1";"1";"2014-08-08 12:57:14.602";"2014-08-08 13:11:18.306";"1";"0";"1";"126";"125";"module.training_block4.exec-7875.GoNoGo4";;;;;;;;;;;;;;;;;;;;;;;;;;;;;;;;;;;;;;;;;;;;;;;;;;;;;;;;;;;"1250";"2014-08-08 13:04:59.526";"ST_correctStop";"1";"0";"FINISHED";"NONE";"success";"0";"1";"2014-08-08 13:04:58.276";"1";;;;;;;;;;;;;;;;;;;;;
"4umk84";"1994";;"Windows XP";"Rachel's Experiment (D.T.)";"1.0";"2";"1";"1";"2";"1";"1";"2014-08-08 12:57:14.602";"2014-08-08 13:11:18.306";"1";"0";"1";"127";"126";"module.training_block4.exec-7875.GoNoGo4";;;;;;;;;;;;;;;;;;;;;;;;;;;;;;;;;;;;;;;;;;;;;;;;;;;;;;;;;;;"1250";"2014-08-08 13:05:02.073";"NST_correctLoc";"17";"1";"FINISHED";"RIGHT";"success";"349";"0";"2014-08-08 13:05:00.823";"2";;;;;;;;;;;;;;;;;;;;;
"4umk84";"1994";;"Windows XP";"Rachel's Experiment (D.T.)";"1.0";"2";"1";"1";"2";"1";"1";"2014-08-08 12:57:14.602";"2014-08-08 13:11:18.306";"1";"0";"1";"128";"127";"module.training_block4.exec-7875.GoNoGo4";;;;;;;;;;;;;;;;;;;;;;;;;;;;;;;;;;;;;;;;;;;;;;;;;;;;;;;;;;;"1250";"2014-08-08 13:05:04.604";"ST_correctStop";"8";"1";"FINISHED";"NONE";"success";"0";"1";"2014-08-08 13:05:03.354";"1";;;;;;;;;;;;;;;;;;;;;
"4umk84";"1994";;"Windows XP";"Rachel's Experiment (D.T.)";"1.0";"2";"1";"1";"2";"1";"1";"2014-08-08 12:57:14.602";"2014-08-08 13:11:18.306";"1";"0";"1";"129";"128";"module.training_block4.exec-7875.GoNoGo4";;;;;;;;;;;;;;;;;;;;;;;;;;;;;;;;;;;;;;;;;;;;;;;;;;;;;;;;;;;"1250";"2014-08-08 13:05:07.120";"ST_correctStop";"31";"1";"FINISHED";"NONE";"success";"0";"1";"2014-08-08 13:05:05.870";"3";;;;;;;;;;;;;;;;;;;;;
"4umk84";"1994";;"Windows XP";"Rachel's Experiment (D.T.)";"1.0";"2";"1";"1";"2";"1";"1";"2014-08-08 12:57:14.602";"2014-08-08 13:11:18.306";"1";"0";"1";"130";"129";"module.training_block4.exec-7875.GoNoGo4";;;;;;;;;;;;;;;;;;;;;;;;;;;;;;;;;;;;;;;;;;;;;;;;;;;;;;;;;;;"1251";"2014-08-08 13:05:09.651";"NST_correctLoc";"19";"0";"FINISHED";"LEFT";"success";"376";"0";"2014-08-08 13:05:08.401";"3";;;;;;;;;;;;;;;;;;;;;
"4umk84";"1994";;"Windows XP";"Rachel's Experiment (D.T.)";"1.0";"2";"1";"1";"2";"1";"1";"2014-08-08 12:57:14.602";"2014-08-08 13:11:18.306";"1";"0";"1";"131";"130";"module.training_block4.exec-7875.GoNoGo4";;;;;;;;;;;;;;;;;;;;;;;;;;;;;;;;;;;;;;;;;;;;;;;;;;;;;;;;;;;"1250";"2014-08-08 13:05:12.183";"NST_correctLoc";"13";"1";"FINISHED";"RIGHT";"success";"549";"0";"2014-08-08 13:05:10.933";"2";;;;;;;;;;;;;;;;;;;;;
"4umk84";"1994";;"Windows XP";"Rachel's Experiment (D.T.)";"1.0";"2";"1";"1";"2";"1";"1";"2014-08-08 12:57:14.602";"2014-08-08 13:11:18.306";"1";"0";"1";"132";"131";"module.training_block4.exec-7875.GoNoGo4";;;;;;;;;;;;;;;;;;;;;;;;;;;;;;;;;;;;;;;;;;;;;;;;;;;;;;;;;;;"1250";"2014-08-08 13:05:14.714";"ST_correctStop";"23";"1";"FINISHED";"NONE";"success";"0";"1";"2014-08-08 13:05:13.464";"3";;;;;;;;;;;;;;;;;;;;;
"4umk84";"1994";;"Windows XP";"Rachel's Experiment (D.T.)";"1.0";"2";"1";"1";"2";"1";"1";"2014-08-08 12:57:14.602";"2014-08-08 13:11:18.306";"1";"0";"1";"133";"132";"module.training_block4.exec-7875.GoNoGo4";;;;;;;;;;;;;;;;;;;;;;;;;;;;;;;;;;;;;;;;;;;;;;;;;;;;;;;;;;;"1234";"2014-08-08 13:05:17.245";"ST_correctStop";"0";"0";"FINISHED";"NONE";"success";"0";"1";"2014-08-08 13:05:15.995";"1";;;;;;;;;;;;;;;;;;;;;
"4umk84";"1994";;"Windows XP";"Rachel's Experiment (D.T.)";"1.0";"2";"1";"1";"2";"1";"1";"2014-08-08 12:57:14.602";"2014-08-08 13:11:18.306";"1";"0";"1";"134";"133";"module.training_block4.exec-7875.GoNoGo4";;;;;;;;;;;;;;;;;;;;;;;;;;;;;;;;;;;;;;;;;;;;;;;;;;;;;;;;;;;"1250";"2014-08-08 13:05:19.761";"ST_correctStop";"7";"0";"FINISHED";"NONE";"success";"0";"1";"2014-08-08 13:05:18.511";"1";;;;;;;;;;;;;;;;;;;;;
"4umk84";"1994";;"Windows XP";"Rachel's Experiment (D.T.)";"1.0";"2";"1";"1";"2";"1";"1";"2014-08-08 12:57:14.602";"2014-08-08 13:11:18.306";"1";"0";"1";"135";"134";"module.training_block4.exec-7875.GoNoGo4";;;;;;;;;;;;;;;;;;;;;;;;;;;;;;;;;;;;;;;;;;;;;;;;;;;;;;;;;;;"1250";"2014-08-08 13:05:22.292";"NST_correctLoc";"25";"0";"FINISHED";"LEFT";"success";"601";"0";"2014-08-08 13:05:21.042";"3";;;;;;;;;;;;;;;;;;;;;
"4umk84";"1994";;"Windows XP";"Rachel's Experiment (D.T.)";"1.0";"2";"1";"1";"2";"1";"1";"2014-08-08 12:57:14.602";"2014-08-08 13:11:18.306";"1";"0";"1";"136";"135";"module.training_block4.exec-7875.GoNoGo4";;;;;;;;;;;;;;;;;;;;;;;;;;;;;;;;;;;;;;;;;;;;;;;;;;;;;;;;;;;"1250";"2014-08-08 13:05:24.824";"ST_correctStop";"33";"1";"FINISHED";"NONE";"success";"0";"1";"2014-08-08 13:05:23.574";"3";;;;;;;;;;;;;;;;;;;;;
"4umk84";"1994";;"Windows XP";"Rachel's Experiment (D.T.)";"1.0";"2";"1";"1";"2";"1";"1";"2014-08-08 12:57:14.602";"2014-08-08 13:11:18.306";"1";"0";"1";"137";"136";"module.training_block4.exec-7875.GoNoGo4";;;;;;;;;;;;;;;;;;;;;;;;;;;;;;;;;;;;;;;;;;;;;;;;;;;;;;;;;;;"1249";"2014-08-08 13:05:27.386";"ST_correctStop";"22";"0";"FINISHED";"NONE";"success";"0";"1";"2014-08-08 13:05:26.136";"3";;;;;;;;;;;;;;;;;;;;;
"4umk84";"1994";;"Windows XP";"Rachel's Experiment (D.T.)";"1.0";"2";"1";"1";"2";"1";"1";"2014-08-08 12:57:14.602";"2014-08-08 13:11:18.306";"1";"0";"1";"138";"137";"module.training_block4.exec-7875.GoNoGo4";;;;;;;;;;;;;;;;;;;;;;;;;;;;;;;;;;;;;;;;;;;;;;;;;;;;;;;;;;;"1250";"2014-08-08 13:05:29.918";"ST_correctStop";"6";"1";"FINISHED";"NONE";"success";"0";"1";"2014-08-08 13:05:28.668";"1";;;;;;;;;;;;;;;;;;;;;
"4umk84";"1994";;"Windows XP";"Rachel's Experiment (D.T.)";"1.0";"2";"1";"1";"2";"1";"1";"2014-08-08 12:57:14.602";"2014-08-08 13:11:18.306";"1";"0";"1";"139";"138";"module.training_block4.exec-7875.GoNoGo4";;;;;;;;;;;;;;;;;;;;;;;;;;;;;;;;;;;;;;;;;;;;;;;;;;;;;;;;;;;"1250";"2014-08-08 13:05:32.449";"NST_correctLoc";"32";"0";"FINISHED";"LEFT";"success";"392";"0";"2014-08-08 13:05:31.199";"3";;;;;;;;;;;;;;;;;;;;;
"4umk84";"1994";;"Windows XP";"Rachel's Experiment (D.T.)";"1.0";"2";"1";"1";"2";"1";"1";"2014-08-08 12:57:14.602";"2014-08-08 13:11:18.306";"1";"0";"1";"140";"139";"module.training_block4.exec-7875.GoNoGo4";;;;;;;;;;;;;;;;;;;;;;;;;;;;;;;;;;;;;;;;;;;;;;;;;;;;;;;;;;;"1250";"2014-08-08 13:05:34.965";"ST_correctStop";"34";"0";"FINISHED";"NONE";"success";"0";"1";"2014-08-08 13:05:33.715";"3";;;;;;;;;;;;;;;;;;;;;
"4umk84";"1994";;"Windows XP";"Rachel's Experiment (D.T.)";"1.0";"2";"1";"1";"2";"1";"1";"2014-08-08 12:57:14.602";"2014-08-08 13:11:18.306";"1";"0";"1";"141";"140";"module.training_block4.exec-7875.GoNoGo4";;;;;;;;;;;;;;;;;;;;;;;;;;;;;;;;;;;;;;;;;;;;;;;;;;;;;;;;;;;"1250";"2014-08-08 13:05:37.496";"NST_correctLoc";"21";"1";"FINISHED";"RIGHT";"success";"412";"0";"2014-08-08 13:05:36.246";"3";;;;;;;;;;;;;;;;;;;;;
"4umk84";"1994";;"Windows XP";"Rachel's Experiment (D.T.)";"1.0";"2";"1";"1";"2";"1";"1";"2014-08-08 12:57:14.602";"2014-08-08 13:11:18.306";"1";"0";"1";"142";"141";"module.training_block4.exec-7875.GoNoGo4";;;;;;;;;;;;;;;;;;;;;;;;;;;;;;;;;;;;;;;;;;;;;;;;;;;;;;;;;;;"1250";"2014-08-08 13:05:40.028";"ST_correctStop";"2";"0";"FINISHED";"NONE";"success";"0";"1";"2014-08-08 13:05:38.777";"1";;;;;;;;;;;;;;;;;;;;;
"4umk84";"1994";;"Windows XP";"Rachel's Experiment (D.T.)";"1.0";"2";"1";"1";"2";"1";"1";"2014-08-08 12:57:14.602";"2014-08-08 13:11:18.306";"1";"0";"1";"143";"142";"module.training_block4.exec-7875.GoNoGo4";;;;;;;;;;;;;;;;;;;;;;;;;;;;;;;;;;;;;;;;;;;;;;;;;;;;;;;;;;;"1249";"2014-08-08 13:05:42.559";"ST_correctStop";"3";"0";"FINISHED";"NONE";"success";"0";"1";"2014-08-08 13:05:41.309";"1";;;;;;;;;;;;;;;;;;;;;
"4umk84";"1994";;"Windows XP";"Rachel's Experiment (D.T.)";"1.0";"2";"1";"1";"2";"1";"1";"2014-08-08 12:57:14.602";"2014-08-08 13:11:18.306";"1";"0";"1";"144";"143";"module.training_block4.exec-7875.GoNoGo4";;;;;;;;;;;;;;;;;;;;;;;;;;;;;;;;;;;;;;;;;;;;;;;;;;;;;;;;;;;"1250";"2014-08-08 13:05:45.075";"ST_correctStop";"4";"0";"FINISHED";"NONE";"success";"0";"1";"2014-08-08 13:05:43.825";"1";;;;;;;;;;;;;;;;;;;;;
"4umk84";"1994";;"Windows XP";"Rachel's Experiment (D.T.)";"1.0";"2";"1";"1";"2";"1";"1";"2014-08-08 12:57:14.602";"2014-08-08 13:11:18.306";"1";"0";"1";"145";"144";"module.training_block4.exec-7875.GoNoGo4";;;;;;;;;;;;;;;;;;;;;;;;;;;;;;;;;;;;;;;;;;;;;;;;;;;;;;;;;;;"1250";"2014-08-08 13:05:47.606";"NST_correctLoc";"27";"0";"FINISHED";"LEFT";"success";"522";"0";"2014-08-08 13:05:46.356";"3";;;;;;;;;;;;;;;;;;;;;
"4umk84";"1994";;"Windows XP";"Rachel's Experiment (D.T.)";"1.0";"2";"1";"1";"2";"1";"1";"2014-08-08 12:57:14.602";"2014-08-08 13:11:18.306";"1";"0";"1";"146";"145";"module.training_block4.exec-7875.GoNoGo4";;;;;;;;;;;;;;;;;;;;;;;;;;;;;;;;;;;;;;;;;;;;;;;;;;;;;;;;;;;"1250";"2014-08-08 13:05:50.153";"NST_correctLoc";"10";"0";"FINISHED";"LEFT";"success";"495";"0";"2014-08-08 13:05:48.903";"2";;;;;;;;;;;;;;;;;;;;;
"4umk84";"1994";;"Windows XP";"Rachel's Experiment (D.T.)";"1.0";"2";"1";"1";"2";"1";"1";"2014-08-08 12:57:14.602";"2014-08-08 13:11:18.306";"1";"0";"1";"147";"146";"module.training_block4.exec-7875.GoNoGo4";;;;;;;;;;;;;;;;;;;;;;;;;;;;;;;;;;;;;;;;;;;;;;;;;;;;;;;;;;;"1249";"2014-08-08 13:05:52.669";"ST_correctStop";"29";"1";"FINISHED";"NONE";"success";"0";"1";"2014-08-08 13:05:51.419";"3";;;;;;;;;;;;;;;;;;;;;
"4umk84";"1994";;"Windows XP";"Rachel's Experiment (D.T.)";"1.0";"2";"1";"1";"2";"1";"1";"2014-08-08 12:57:14.602";"2014-08-08 13:11:18.306";"1";"0";"1";"148";"147";"module.training_block4.exec-7875.GoNoGo4";;;;;;;;;;;;;;;;;;;;;;;;;;;;;;;;;;;;;;;;;;;;;;;;;;;;;;;;;;;"1250";"2014-08-08 13:05:55.200";"NST_correctLoc";"20";"1";"FINISHED";"RIGHT";"success";"516";"0";"2014-08-08 13:05:53.950";"3";;;;;;;;;;;;;;;;;;;;;
"4umk84";"1994";;"Windows XP";"Rachel's Experiment (D.T.)";"1.0";"2";"1";"1";"2";"1";"1";"2014-08-08 12:57:14.602";"2014-08-08 13:11:18.306";"1";"0";"1";"149";"148";"module.training_block4.exec-7875.GoNoGo4";;;;;;;;;;;;;;;;;;;;;;;;;;;;;;;;;;;;;;;;;;;;;;;;;;;;;;;;;;;"1251";"2014-08-08 13:05:57.731";"NST_correctLoc";"12";"0";"FINISHED";"LEFT";"success";"503";"0";"2014-08-08 13:05:56.481";"2";;;;;;;;;;;;;;;;;;;;;
"4umk84";"1994";;"Windows XP";"Rachel's Experiment (D.T.)";"1.0";"2";"1";"1";"2";"1";"1";"2014-08-08 12:57:14.602";"2014-08-08 13:11:18.306";"1";"0";"1";"150";"149";"module.training_block4.exec-7875.GoNoGo4";;;;;;;;;;;;;;;;;;;;;;;;;;;;;;;;;;;;;;;;;;;;;;;;;;;;;;;;;;;"1250";"2014-08-08 13:06:00.247";"ST_correctStop";"5";"1";"FINISHED";"NONE";"success";"0";"1";"2014-08-08 13:05:58.997";"1";;;;;;;;;;;;;;;;;;;;;
"4umk84";"1994";;"Windows XP";"Rachel's Experiment (D.T.)";"1.0";"2";"1";"1";"2";"1";"1";"2014-08-08 12:57:14.602";"2014-08-08 13:11:18.306";"1";"0";"1";"151";"150";"module.training_block4.exec-7875.GoNoGo4";;;;;;;;;;;;;;;;;;;;;;;;;;;;;;;;;;;;;;;;;;;;;;;;;;;;;;;;;;;"1250";"2014-08-08 13:06:02.778";"NST_correctLoc";"16";"1";"FINISHED";"RIGHT";"success";"473";"0";"2014-08-08 13:06:01.528";"2";;;;;;;;;;;;;;;;;;;;;
"4umk84";"1994";;"Windows XP";"Rachel's Experiment (D.T.)";"1.0";"2";"1";"1";"2";"1";"1";"2014-08-08 12:57:14.602";"2014-08-08 13:11:18.306";"1";"0";"1";"152";"151";"module.training_block4.exec-7875.GoNoGo4";;;;;;;;;;;;;;;;;;;;;;;;;;;;;;;;;;;;;;;;;;;;;;;;;;;;;;;;;;;"1249";"2014-08-08 13:06:05.310";"NST_correctLoc";"26";"1";"FINISHED";"RIGHT";"success";"602";"0";"2014-08-08 13:06:04.060";"3";;;;;;;;;;;;;;;;;;;;;
"4umk84";"1994";;"Windows XP";"Rachel's Experiment (D.T.)";"1.0";"2";"1";"1";"2";"1";"1";"2014-08-08 12:57:14.602";"2014-08-08 13:11:18.306";"1";"0";"1";"153";"152";"module.training_block4.exec-7875.GoNoGo4";;;;;;;;;;;;;;;;;;;;;;;;;;;;;;;;;;;;;;;;;;;;;;;;;;;;;;;;;;;"1251";"2014-08-08 13:06:07.825";"NST_correctLoc";"28";"1";"FINISHED";"RIGHT";"success";"526";"0";"2014-08-08 13:06:06.575";"3";;;;;;;;;;;;;;;;;;;;;
"4umk84";"1994";;"Windows XP";"Rachel's Experiment (D.T.)";"1.0";"2";"1";"1";"2";"1";"1";"2014-08-08 12:57:14.602";"2014-08-08 13:11:18.306";"1";"0";"1";"154";"153";"module.training_block4.exec-7875.GoNoGo4";;;;;;;;;;;;;;;;;;;;;;;;;;;;;;;;;;;;;;;;;;;;;;;;;;;;;;;;;;;"1250";"2014-08-08 13:06:10.357";"ST_correctStop";"18";"0";"FINISHED";"NONE";"success";"0";"1";"2014-08-08 13:06:09.107";"3";;;;;;;;;;;;;;;;;;;;;
"4umk84";"1994";;"Windows XP";"Rachel's Experiment (D.T.)";"1.0";"2";"1";"1";"2";"1";"1";"2014-08-08 12:57:14.602";"2014-08-08 13:11:18.306";"1";"0";"1";"155";"154";"module.training_block4.exec-7875.GoNoGo4";;;;;;;;;;;;;;;;;;;;;;;;;;;;;;;;;;;;;;;;;;;;;;;;;;;;;;;;;;;"1250";"2014-08-08 13:06:12.888";"ST_correctStop";"30";"1";"FINISHED";"NONE";"success";"0";"1";"2014-08-08 13:06:11.638";"3";;;;;;;;;;;;;;;;;;;;;
"4umk84";"1994";;"Windows XP";"Rachel's Experiment (D.T.)";"1.0";"2";"1";"1";"2";"1";"1";"2014-08-08 12:57:14.602";"2014-08-08 13:11:18.306";"1";"0";"1";"156";"155";"module.training_block4.exec-7875.GoNoGo4";;;;;;;;;;;;;;;;;;;;;;;;;;;;;;;;;;;;;;;;;;;;;;;;;;;;;;;;;;;"1251";"2014-08-08 13:06:15.404";"NST_correctLoc";"15";"1";"FINISHED";"RIGHT";"success";"437";"0";"2014-08-08 13:06:14.154";"2";;;;;;;;;;;;;;;;;;;;;
"4umk84";"1994";;"Windows XP";"Rachel's Experiment (D.T.)";"1.0";"2";"1";"1";"2";"1";"1";"2014-08-08 12:57:14.602";"2014-08-08 13:11:18.306";"1";"0";"1";"157";"156";"module.training_block4.exec-7875.GoNoGo4";;;;;;;;;;;;;;;;;;;;;;;;;;;;;;;;;;;;;;;;;;;;;;;;;;;;;;;;;;;"1251";"2014-08-08 13:06:17.935";"NST_correctLoc";"9";"0";"FINISHED";"LEFT";"success";"432";"0";"2014-08-08 13:06:16.685";"2";;;;;;;;;;;;;;;;;;;;;
"4umk84";"1994";;"Windows XP";"Rachel's Experiment (D.T.)";"1.0";"2";"1";"1";"2";"1";"1";"2014-08-08 12:57:14.602";"2014-08-08 13:11:18.306";"1";"0";"1";"158";"157";"module.training_block4.exec-7875.GoNoGo4";;;;;;;;;;;;;;;;;;;;;;;;;;;;;;;;;;;;;;;;;;;;;;;;;;;;;;;;;;;"1251";"2014-08-08 13:06:20.467";"NST_correctLoc";"35";"1";"FINISHED";"RIGHT";"success";"642";"0";"2014-08-08 13:06:19.217";"3";;;;;;;;;;;;;;;;;;;;;
"4umk84";"1994";;"Windows XP";"Rachel's Experiment (D.T.)";"1.0";"2";"1";"1";"2";"1";"1";"2014-08-08 12:57:14.602";"2014-08-08 13:11:18.306";"1";"0";"1";"159";"158";"module.training_block4.exec-7875.GoNoGo4";;;;;;;;;;;;;;;;;;;;;;;;;;;;;;;;;;;;;;;;;;;;;;;;;;;;;;;;;;;"1250";"2014-08-08 13:06:22.998";"NST_correctLoc";"14";"1";"FINISHED";"RIGHT";"success";"453";"0";"2014-08-08 13:06:21.748";"2";;;;;;;;;;;;;;;;;;;;;
"4umk84";"1994";;"Windows XP";"Rachel's Experiment (D.T.)";"1.0";"2";"1";"1";"2";"1";"1";"2014-08-08 12:57:14.602";"2014-08-08 13:11:18.306";"1";"0";"1";"160";"159";"module.devaluation_practice.exec-5050.devalPractice";;;;;;;;;;;;"17198";"2014-08-08 13:07:01.249";"0";"6";"2";"6";"7281";"2715";"4135";"2014-08-08 13:06:44.046";;;;;;;;;;;;;;;;;;;;;;;;;;;;;;;;;;;;;;;;;;;;;;;;;;;;;;;;;;;;;;;;;;;;;;
"4umk84";"1994";;"Windows XP";"Rachel's Experiment (D.T.)";"1.0";"2";"1";"1";"2";"1";"1";"2014-08-08 12:57:14.602";"2014-08-08 13:11:18.306";"1";"0";"1";"161";"160";"module.devaluation_practice.exec-5050.devalPractice";;;;;;;;;;;;"10035";"2014-08-08 13:07:11.312";"1";"6";"3";"5";"1871";"2182";"2970";"2014-08-08 13:07:01.281";;;;;;;;;;;;;;;;;;;;;;;;;;;;;;;;;;;;;;;;;;;;;;;;;;;;;;;;;;;;;;;;;;;;;;
"4umk84";"1994";;"Windows XP";"Rachel's Experiment (D.T.)";"1.0";"2";"1";"1";"2";"1";"1";"2014-08-08 12:57:14.602";"2014-08-08 13:11:18.306";"1";"0";"1";"162";"161";"module.devaluation_practice.exec-5050.devalPractice";;;;;;;;;;;;"9010";"2014-08-08 13:07:20.359";"2";"7";"6";"9";"2701";"1587";"1705";"2014-08-08 13:07:11.344";;;;;;;;;;;;;;;;;;;;;;;;;;;;;;;;;;;;;;;;;;;;;;;;;;;;;;;;;;;;;;;;;;;;;;
"4umk84";"1994";;"Windows XP";"Rachel's Experiment (D.T.)";"1.0";"2";"1";"1";"2";"1";"1";"2014-08-08 12:57:14.602";"2014-08-08 13:11:18.306";"1";"0";"1";"163";"162";"module.devaluation_practice.exec-5050.devalPractice";;;;;;;;;;;;"8931";"2014-08-08 13:07:29.313";"3";"5";"1";"4";"1214";"2498";"2202";"2014-08-08 13:07:20.391";;;;;;;;;;;;;;;;;;;;;;;;;;;;;;;;;;;;;;;;;;;;;;;;;;;;;;;;;;;;;;;;;;;;;;
"4umk84";"1994";;"Windows XP";"Rachel's Experiment (D.T.)";"1.0";"2";"1";"1";"2";"1";"1";"2014-08-08 12:57:14.602";"2014-08-08 13:11:18.306";"1";"0";"1";"164";"163";"module.devaluation_block1.exec-1297.deval1";"10316";"2014-08-08 13:07:47.689";"0";"4";"3";"7";"3176";"1830";"2235";"2014-08-08 13:07:37.360";"1";;;;;;;;;;;;;;;;;;;;;;;;;;;;;;;;;;;;;;;;;;;;;;;;;;;;;;;;;;;;;;;;;;;;;;;;;;;;;;;;
"4umk84";"1994";;"Windows XP";"Rachel's Experiment (D.T.)";"1.0";"2";"1";"1";"2";"1";"1";"2014-08-08 12:57:14.602";"2014-08-08 13:11:18.306";"1";"0";"1";"165";"164";"module.devaluation_block1.exec-1297.deval1";"9411";"2014-08-08 13:07:57.127";"13";"4";"4";"4";"2750";"1316";"2325";"2014-08-08 13:07:47.720";"2";;;;;;;;;;;;;;;;;;;;;;;;;;;;;;;;;;;;;;;;;;;;;;;;;;;;;;;;;;;;;;;;;;;;;;;;;;;;;;;;
"4umk84";"1994";;"Windows XP";"Rachel's Experiment (D.T.)";"1.0";"2";"1";"1";"2";"1";"1";"2014-08-08 12:57:14.602";"2014-08-08 13:11:18.306";"1";"0";"1";"166";"165";"module.devaluation_block1.exec-1297.deval1";"8204";"2014-08-08 13:08:05.377";"6";"6";"5";"7";"2839";"1030";"1318";"2014-08-08 13:07:57.173";"1";;;;;;;;;;;;;;;;;;;;;;;;;;;;;;;;;;;;;;;;;;;;;;;;;;;;;;;;;;;;;;;;;;;;;;;;;;;;;;;;
"4umk84";"1994";;"Windows XP";"Rachel's Experiment (D.T.)";"1.0";"2";"1";"1";"2";"1";"1";"2014-08-08 12:57:14.602";"2014-08-08 13:11:18.306";"1";"0";"1";"167";"166";"module.devaluation_block1.exec-1297.deval1";"8492";"2014-08-08 13:08:13.908";"10";"5";"9";"7";"3063";"1238";"1172";"2014-08-08 13:08:05.424";"2";;;;;;;;;;;;;;;;;;;;;;;;;;;;;;;;;;;;;;;;;;;;;;;;;;;;;;;;;;;;;;;;;;;;;;;;;;;;;;;;
"4umk84";"1994";;"Windows XP";"Rachel's Experiment (D.T.)";"1.0";"2";"1";"1";"2";"1";"1";"2014-08-08 12:57:14.602";"2014-08-08 13:11:18.306";"1";"0";"1";"168";"167";"module.devaluation_block1.exec-1297.deval1";"9611";"2014-08-08 13:08:23.565";"5";"4";"3";"7";"2997";"2419";"1174";"2014-08-08 13:08:13.940";"1";;;;;;;;;;;;;;;;;;;;;;;;;;;;;;;;;;;;;;;;;;;;;;;;;;;;;;;;;;;;;;;;;;;;;;;;;;;;;;;;
"4umk84";"1994";;"Windows XP";"Rachel's Experiment (D.T.)";"1.0";"2";"1";"1";"2";"1";"1";"2014-08-08 12:57:14.602";"2014-08-08 13:11:18.306";"1";"0";"1";"169";"168";"module.devaluation_block1.exec-1297.deval1";"8996";"2014-08-08 13:08:32.581";"12";"5";"4";"6";"1918";"1814";"2243";"2014-08-08 13:08:23.581";"2";;;;;;;;;;;;;;;;;;;;;;;;;;;;;;;;;;;;;;;;;;;;;;;;;;;;;;;;;;;;;;;;;;;;;;;;;;;;;;;;
"4umk84";"1994";;"Windows XP";"Rachel's Experiment (D.T.)";"1.0";"2";"1";"1";"2";"1";"1";"2014-08-08 12:57:14.602";"2014-08-08 13:11:18.306";"1";"0";"1";"170";"169";"module.devaluation_block1.exec-1297.deval1";"9178";"2014-08-08 13:08:41.800";"15";"3";"7";"6";"2117";"2053";"2005";"2014-08-08 13:08:32.612";"2";;;;;;;;;;;;;;;;;;;;;;;;;;;;;;;;;;;;;;;;;;;;;;;;;;;;;;;;;;;;;;;;;;;;;;;;;;;;;;;;
"4umk84";"1994";;"Windows XP";"Rachel's Experiment (D.T.)";"1.0";"2";"1";"1";"2";"1";"1";"2014-08-08 12:57:14.602";"2014-08-08 13:11:18.306";"1";"0";"1";"171";"170";"module.devaluation_block1.exec-1297.deval1";"8084";"2014-08-08 13:08:49.941";"7";"5";"3";"5";"2751";"1220";"1093";"2014-08-08 13:08:41.863";"1";;;;;;;;;;;;;;;;;;;;;;;;;;;;;;;;;;;;;;;;;;;;;;;;;;;;;;;;;;;;;;;;;;;;;;;;;;;;;;;;
"4umk84";"1994";;"Windows XP";"Rachel's Experiment (D.T.)";"1.0";"2";"1";"1";"2";"1";"1";"2014-08-08 12:57:14.602";"2014-08-08 13:11:18.306";"1";"0";"1";"172";"171";"module.devaluation_block1.exec-1297.deval1";"8012";"2014-08-08 13:08:57.988";"4";"6";"4";"7";"1719";"1167";"2097";"2014-08-08 13:08:49.972";"1";;;;;;;;;;;;;;;;;;;;;;;;;;;;;;;;;;;;;;;;;;;;;;;;;;;;;;;;;;;;;;;;;;;;;;;;;;;;;;;;
"4umk84";"1994";;"Windows XP";"Rachel's Experiment (D.T.)";"1.0";"2";"1";"1";"2";"1";"1";"2014-08-08 12:57:14.602";"2014-08-08 13:11:18.306";"1";"0";"1";"173";"172";"module.devaluation_block1.exec-1297.deval1";"8147";"2014-08-08 13:09:06.160";"19";"4";"1";"6";"1951";"1558";"1620";"2014-08-08 13:08:58.019";"3";;;;;;;;;;;;;;;;;;;;;;;;;;;;;;;;;;;;;;;;;;;;;;;;;;;;;;;;;;;;;;;;;;;;;;;;;;;;;;;;
"4umk84";"1994";;"Windows XP";"Rachel's Experiment (D.T.)";"1.0";"2";"1";"1";"2";"1";"1";"2014-08-08 12:57:14.602";"2014-08-08 13:11:18.306";"1";"0";"1";"174";"173";"module.devaluation_block1.exec-1297.deval1";"8721";"2014-08-08 13:09:14.926";"26";"7";"7";"8";"2153";"1638";"1910";"2014-08-08 13:09:06.192";"3";;;;;;;;;;;;;;;;;;;;;;;;;;;;;;;;;;;;;;;;;;;;;;;;;;;;;;;;;;;;;;;;;;;;;;;;;;;;;;;;
"4umk84";"1994";;"Windows XP";"Rachel's Experiment (D.T.)";"1.0";"2";"1";"1";"2";"1";"1";"2014-08-08 12:57:14.602";"2014-08-08 13:11:18.306";"1";"0";"1";"175";"174";"module.devaluation_block1.exec-1297.deval1";"6548";"2014-08-08 13:09:21.489";"11";"3";"9";"6";"1183";"1062";"1299";"2014-08-08 13:09:14.942";"2";;;;;;;;;;;;;;;;;;;;;;;;;;;;;;;;;;;;;;;;;;;;;;;;;;;;;;;;;;;;;;;;;;;;;;;;;;;;;;;;
"4umk84";"1994";;"Windows XP";"Rachel's Experiment (D.T.)";"1.0";"2";"1";"1";"2";"1";"1";"2014-08-08 12:57:14.602";"2014-08-08 13:11:18.306";"1";"0";"1";"176";"175";"module.devaluation_block1.exec-1297.deval1";"9139";"2014-08-08 13:09:30.661";"21";"6";"7";"8";"3548";"1622";"947";"2014-08-08 13:09:21.520";"3";;;;;;;;;;;;;;;;;;;;;;;;;;;;;;;;;;;;;;;;;;;;;;;;;;;;;;;;;;;;;;;;;;;;;;;;;;;;;;;;
"4umk84";"1994";;"Windows XP";"Rachel's Experiment (D.T.)";"1.0";"2";"1";"1";"2";"1";"1";"2014-08-08 12:57:14.602";"2014-08-08 13:11:18.306";"1";"0";"1";"177";"176";"module.devaluation_block1.exec-1297.deval1";"8876";"2014-08-08 13:09:39.584";"2";"3";"6";"6";"2502";"903";"2470";"2014-08-08 13:09:30.693";"1";;;;;;;;;;;;;;;;;;;;;;;;;;;;;;;;;;;;;;;;;;;;;;;;;;;;;;;;;;;;;;;;;;;;;;;;;;;;;;;;
"4umk84";"1994";;"Windows XP";"Rachel's Experiment (D.T.)";"1.0";"2";"1";"1";"2";"1";"1";"2014-08-08 12:57:14.602";"2014-08-08 13:11:18.306";"1";"0";"1";"178";"177";"module.devaluation_block1.exec-1297.deval1";"6746";"2014-08-08 13:09:46.365";"14";"6";"9";"9";"806";"1095";"1828";"2014-08-08 13:09:39.615";"2";;;;;;;;;;;;;;;;;;;;;;;;;;;;;;;;;;;;;;;;;;;;;;;;;;;;;;;;;;;;;;;;;;;;;;;;;;;;;;;;
"4umk84";"1994";;"Windows XP";"Rachel's Experiment (D.T.)";"1.0";"2";"1";"1";"2";"1";"1";"2014-08-08 12:57:14.602";"2014-08-08 13:11:18.306";"1";"0";"1";"179";"178";"module.devaluation_block1.exec-1297.deval1";"9572";"2014-08-08 13:09:55.959";"24";"4";"3";"7";"2319";"1461";"2775";"2014-08-08 13:09:46.396";"3";;;;;;;;;;;;;;;;;;;;;;;;;;;;;;;;;;;;;;;;;;;;;;;;;;;;;;;;;;;;;;;;;;;;;;;;;;;;;;;;
"4umk84";"1994";;"Windows XP";"Rachel's Experiment (D.T.)";"1.0";"2";"1";"1";"2";"1";"1";"2014-08-08 12:57:14.602";"2014-08-08 13:11:18.306";"1";"0";"1";"180";"179";"module.devaluation_block1.exec-1297.deval1";"6484";"2014-08-08 13:10:02.475";"3";"5";"1";"7";"1600";"1108";"758";"2014-08-08 13:09:55.990";"1";;;;;;;;;;;;;;;;;;;;;;;;;;;;;;;;;;;;;;;;;;;;;;;;;;;;;;;;;;;;;;;;;;;;;;;;;;;;;;;;
"4umk84";"1994";;"Windows XP";"Rachel's Experiment (D.T.)";"1.0";"2";"1";"1";"2";"1";"1";"2014-08-08 12:57:14.602";"2014-08-08 13:11:18.306";"1";"0";"1";"181";"180";"module.devaluation_block1.exec-1297.deval1";"6171";"2014-08-08 13:10:08.678";"25";"7";"8";"8";"935";"1334";"899";"2014-08-08 13:10:02.506";"3";;;;;;;;;;;;;;;;;;;;;;;;;;;;;;;;;;;;;;;;;;;;;;;;;;;;;;;;;;;;;;;;;;;;;;;;;;;;;;;;
"4umk84";"1994";;"Windows XP";"Rachel's Experiment (D.T.)";"1.0";"2";"1";"1";"2";"1";"1";"2014-08-08 12:57:14.602";"2014-08-08 13:11:18.306";"1";"0";"1";"182";"181";"module.devaluation_block1.exec-1297.deval1";"6357";"2014-08-08 13:10:15.101";"20";"3";"1";"3";"1440";"1028";"869";"2014-08-08 13:10:08.741";"3";;;;;;;;;;;;;;;;;;;;;;;;;;;;;;;;;;;;;;;;;;;;;;;;;;;;;;;;;;;;;;;;;;;;;;;;;;;;;;;;
"4umk84";"1994";;"Windows XP";"Rachel's Experiment (D.T.)";"1.0";"2";"1";"1";"2";"1";"1";"2014-08-08 12:57:14.602";"2014-08-08 13:11:18.306";"1";"0";"1";"183";"182";"module.devaluation_block1.exec-1297.deval1";"7284";"2014-08-08 13:10:22.413";"8";"6";"6";"7";"945";"1815";"1510";"2014-08-08 13:10:15.132";"1";;;;;;;;;;;;;;;;;;;;;;;;;;;;;;;;;;;;;;;;;;;;;;;;;;;;;;;;;;;;;;;;;;;;;;;;;;;;;;;;
"4umk84";"1994";;"Windows XP";"Rachel's Experiment (D.T.)";"1.0";"2";"1";"1";"2";"1";"1";"2014-08-08 12:57:14.602";"2014-08-08 13:11:18.306";"1";"0";"1";"184";"183";"module.devaluation_block1.exec-1297.deval1";"7747";"2014-08-08 13:10:30.195";"22";"7";"7";"9";"1343";"1525";"1861";"2014-08-08 13:10:22.445";"3";;;;;;;;;;;;;;;;;;;;;;;;;;;;;;;;;;;;;;;;;;;;;;;;;;;;;;;;;;;;;;;;;;;;;;;;;;;;;;;;
"4umk84";"1994";;"Windows XP";"Rachel's Experiment (D.T.)";"1.0";"2";"1";"1";"2";"1";"1";"2014-08-08 12:57:14.602";"2014-08-08 13:11:18.306";"1";"0";"1";"185";"184";"module.devaluation_block1.exec-1297.deval1";"6556";"2014-08-08 13:10:36.773";"16";"6";"7";"7";"728";"1607";"1200";"2014-08-08 13:10:30.226";"2";;;;;;;;;;;;;;;;;;;;;;;;;;;;;;;;;;;;;;;;;;;;;;;;;;;;;;;;;;;;;;;;;;;;;;;;;;;;;;;;
"4umk84";"1994";;"Windows XP";"Rachel's Experiment (D.T.)";"1.0";"2";"1";"1";"2";"1";"1";"2014-08-08 12:57:14.602";"2014-08-08 13:11:18.306";"1";"0";"1";"186";"185";"module.devaluation_block1.exec-1297.deval1";"8259";"2014-08-08 13:10:45.070";"18";"3";"6";"8";"1679";"1862";"1703";"2014-08-08 13:10:36.805";"3";;;;;;;;;;;;;;;;;;;;;;;;;;;;;;;;;;;;;;;;;;;;;;;;;;;;;;;;;;;;;;;;;;;;;;;;;;;;;;;;
"4umk84";"1994";;"Windows XP";"Rachel's Experiment (D.T.)";"1.0";"2";"1";"1";"2";"1";"1";"2014-08-08 12:57:14.602";"2014-08-08 13:11:18.306";"1";"0";"1";"187";"186";"module.devaluation_block1.exec-1297.deval1";"8241";"2014-08-08 13:10:53.336";"17";"2";"1";"2";"1469";"1207";"2547";"2014-08-08 13:10:45.102";"2";;;;;;;;;;;;;;;;;;;;;;;;;;;;;;;;;;;;;;;;;;;;;;;;;;;;;;;;;;;;;;;;;;;;;;;;;;;;;;;;
"4umk84";"1994";;"Windows XP";"Rachel's Experiment (D.T.)";"1.0";"2";"1";"1";"2";"1";"1";"2014-08-08 12:57:14.602";"2014-08-08 13:11:18.306";"1";"0";"1";"188";"187";"module.devaluation_block1.exec-1297.deval1";"7012";"2014-08-08 13:11:00.384";"9";"4";"4";"7";"1297";"1909";"789";"2014-08-08 13:10:53.368";"2";;;;;;;;;;;;;;;;;;;;;;;;;;;;;;;;;;;;;;;;;;;;;;;;;;;;;;;;;;;;;;;;;;;;;;;;;;;;;;;;
"4umk84";"1994";;"Windows XP";"Rachel's Experiment (D.T.)";"1.0";"2";"1";"1";"2";"1";"1";"2014-08-08 12:57:14.602";"2014-08-08 13:11:18.306";"1";"0";"1";"189";"188";"module.devaluation_block1.exec-1297.deval1";"7423";"2014-08-08 13:11:07.853";"1";"3";"3";"6";"1643";"839";"1926";"2014-08-08 13:11:00.430";"1";;;;;;;;;;;;;;;;;;;;;;;;;;;;;;;;;;;;;;;;;;;;;;;;;;;;;;;;;;;;;;;;;;;;;;;;;;;;;;;;
"4umk84";"1994";;"Windows XP";"Rachel's Experiment (D.T.)";"1.0";"2";"1";"1";"2";"1";"1";"2014-08-08 12:57:14.602";"2014-08-08 13:11:18.306";"1";"0";"1";"190";"189";"module.devaluation_block1.exec-1297.deval1";"8332";"2014-08-08 13:11:16.228";"23";"2";"1";"4";"1751";"1174";"2386";"2014-08-08 13:11:07.884";"3";;;;;;;;;;;;;;;;;;;;;;;;;;;;;;;;;;;;;;;;;;;;;;;;;;;;;;;;;;;;;;;;;;;;;;;;;;;;;;;;
