"user.name";"user.yearOfBirth";"user.sex";"user.osName";"module.name";"module.version";"module.online.subject.code";"module.online.study.id";"module.online.module.nr";"module.online.group.nr";"session.id";"session.index";"session.startTime";"session.endTime";"session.completed";"session.node-3388.DevalQorder";"session.node-4957.conditionType";"trial.id";"trial.index";"trial.name";"trial.deval1.durationTime";"trial.deval1.endTime";"trial.deval1.icon";"trial.deval1.Resp_Attractive";"trial.deval1.Resp_Eat";"trial.deval1.Resp_Taste";"trial.deval1.RT_Attractive";"trial.deval1.RT_Eat";"trial.deval1.RT_Taste";"trial.deval1.startTime";"trial.deval1.stimulus type";"trial.devalPractice.durationTime";"trial.devalPractice.endTime";"trial.devalPractice.icon";"trial.devalPractice.Resp_Attractive";"trial.devalPractice.Resp_Eat";"trial.devalPractice.Resp_Taste";"trial.devalPractice.RT_Attractive";"trial.devalPractice.RT_Eat";"trial.devalPractice.RT_Taste";"trial.devalPractice.startTime";"trial.devalPractice.stimulus type";"trial.GoNoGo1.durationTime";"trial.GoNoGo1.endTime";"trial.GoNoGo1.Error Type";"trial.GoNoGo1.icon";"trial.GoNoGo1.location";"trial.GoNoGo1.outcome";"trial.GoNoGo1.response";"trial.GoNoGo1.result";"trial.GoNoGo1.RT";"trial.GoNoGo1.signal";"trial.GoNoGo1.startTime";"trial.GoNoGo1.stimulus type";"trial.GoNoGo2.durationTime";"trial.GoNoGo2.endTime";"trial.GoNoGo2.Error Type";"trial.GoNoGo2.icon";"trial.GoNoGo2.location";"trial.GoNoGo2.outcome";"trial.GoNoGo2.response";"trial.GoNoGo2.result";"trial.GoNoGo2.RT";"trial.GoNoGo2.signal";"trial.GoNoGo2.startTime";"trial.GoNoGo2.stimulus type";"trial.GoNoGo3.durationTime";"trial.GoNoGo3.endTime";"trial.GoNoGo3.Error Type";"trial.GoNoGo3.icon";"trial.GoNoGo3.location";"trial.GoNoGo3.outcome";"trial.GoNoGo3.response";"trial.GoNoGo3.result";"trial.GoNoGo3.RT";"trial.GoNoGo3.signal";"trial.GoNoGo3.startTime";"trial.GoNoGo3.stimulus type";"trial.GoNoGo4.durationTime";"trial.GoNoGo4.endTime";"trial.GoNoGo4.Error Type";"trial.GoNoGo4.icon";"trial.GoNoGo4.location";"trial.GoNoGo4.outcome";"trial.GoNoGo4.response";"trial.GoNoGo4.result";"trial.GoNoGo4.RT";"trial.GoNoGo4.signal";"trial.GoNoGo4.startTime";"trial.GoNoGo4.stimulus type";"trial.GoNoGo_Practice.durationTime";"trial.GoNoGo_Practice.endTime";"trial.GoNoGo_Practice.icon";"trial.GoNoGo_Practice.location";"trial.GoNoGo_Practice.outcome";"trial.GoNoGo_Practice.response";"trial.GoNoGo_Practice.result";"trial.GoNoGo_Practice.RT";"trial.GoNoGo_Practice.signal";"trial.GoNoGo_Practice.startTime";"trial.GoNoGo_Practice.stimulus type";"trial.GoNoGo_Tutorial.durationTime";"trial.GoNoGo_Tutorial.endTime";"trial.GoNoGo_Tutorial.icon";"trial.GoNoGo_Tutorial.location";"trial.GoNoGo_Tutorial.outcome";"trial.GoNoGo_Tutorial.response";"trial.GoNoGo_Tutorial.result";"trial.GoNoGo_Tutorial.RT";"trial.GoNoGo_Tutorial.signal";"trial.GoNoGo_Tutorial.startTime"
"C1413999";;;"Windows 7";"Rachel's Experiment (D.T.)";"1.0";"2";"1";"1";"2";"1";"1";"2014-10-15 16:49:57.488";"2014-10-15 17:03:31.045";"1";"1";"1";"1";"0";"module.GoNoGotutorial.exec-2478.GoNoGo_Tutorial";;;;;;;;;;;;;;;;;;;;;;;;;;;;;;;;;;;;;;;;;;;;;;;;;;;;;;;;;;;;;;;;;;;;;;;;;;;;;;;;;;"3997";"2014-10-15 16:51:22.633";"leftResponse";"0";"FINISHED";"LEFT";"success";"1102";"0";"2014-10-15 16:51:18.624"
"C1413999";;;"Windows 7";"Rachel's Experiment (D.T.)";"1.0";"2";"1";"1";"2";"1";"1";"2014-10-15 16:49:57.488";"2014-10-15 17:03:31.045";"1";"1";"1";"2";"1";"module.GoNoGotutorial.exec-2478.GoNoGo_Tutorial";;;;;;;;;;;;;;;;;;;;;;;;;;;;;;;;;;;;;;;;;;;;;;;;;;;;;;;;;;;;;;;;;;;;;;;;;;;;;;;;;;"4003";"2014-10-15 16:51:27.937";"rightResponse";"1";"FINISHED";"RIGHT";"success";"508";"0";"2014-10-15 16:51:23.928"
"C1413999";;;"Windows 7";"Rachel's Experiment (D.T.)";"1.0";"2";"1";"1";"2";"1";"1";"2014-10-15 16:49:57.488";"2014-10-15 17:03:31.045";"1";"1";"1";"3";"2";"module.GoNoGotutorial.exec-2478.GoNoGo_Tutorial";;;;;;;;;;;;;;;;;;;;;;;;;;;;;;;;;;;;;;;;;;;;;;;;;;;;;;;;;;;;;;;;;;;;;;;;;;;;;;;;;;"4003";"2014-10-15 16:51:33.241";"signalResponse";"0";"FINISHED";"NONE";"success";"0";"1";"2014-10-15 16:51:29.232"
"C1413999";;;"Windows 7";"Rachel's Experiment (D.T.)";"1.0";"2";"1";"1";"2";"1";"1";"2014-10-15 16:49:57.488";"2014-10-15 17:03:31.045";"1";"1";"1";"4";"3";"module.GoNoGopractice.exec-7291.GoNoGo_Practice";;;;;;;;;;;;;;;;;;;;;;;;;;;;;;;;;;;;;;;;;;;;;;;;;;;;;;;;;;;;;;;;;;;;;;;"1959";"2014-10-15 16:51:41.166";"18";"0";"FINISHED";"LEFT";"success";"475";"0";"2014-10-15 16:51:39.200";"3";;;;;;;;;;
"C1413999";;;"Windows 7";"Rachel's Experiment (D.T.)";"1.0";"2";"1";"1";"2";"1";"1";"2014-10-15 16:49:57.488";"2014-10-15 17:03:31.045";"1";"1";"1";"5";"4";"module.GoNoGopractice.exec-7291.GoNoGo_Practice";;;;;;;;;;;;;;;;;;;;;;;;;;;;;;;;;;;;;;;;;;;;;;;;;;;;;;;;;;;;;;;;;;;;;;;"1958";"2014-10-15 16:51:44.411";"21";"1";"FINISHED";"RIGHT";"success";"430";"0";"2014-10-15 16:51:42.445";"3";;;;;;;;;;
"C1413999";;;"Windows 7";"Rachel's Experiment (D.T.)";"1.0";"2";"1";"1";"2";"1";"1";"2014-10-15 16:49:57.488";"2014-10-15 17:03:31.045";"1";"1";"1";"6";"5";"module.GoNoGopractice.exec-7291.GoNoGo_Practice";;;;;;;;;;;;;;;;;;;;;;;;;;;;;;;;;;;;;;;;;;;;;;;;;;;;;;;;;;;;;;;;;;;;;;;"1959";"2014-10-15 16:51:47.655";"14";"1";"FINISHED";"NONE";"success";"0";"1";"2014-10-15 16:51:45.690";"2";;;;;;;;;;
"C1413999";;;"Windows 7";"Rachel's Experiment (D.T.)";"1.0";"2";"1";"1";"2";"1";"1";"2014-10-15 16:49:57.488";"2014-10-15 17:03:31.045";"1";"1";"1";"7";"6";"module.GoNoGopractice.exec-7291.GoNoGo_Practice";;;;;;;;;;;;;;;;;;;;;;;;;;;;;;;;;;;;;;;;;;;;;;;;;;;;;;;;;;;;;;;;;;;;;;;"1959";"2014-10-15 16:51:50.900";"26";"0";"FINISHED";"LEFT";"success";"509";"0";"2014-10-15 16:51:48.935";"3";;;;;;;;;;
"C1413999";;;"Windows 7";"Rachel's Experiment (D.T.)";"1.0";"2";"1";"1";"2";"1";"1";"2014-10-15 16:49:57.488";"2014-10-15 17:03:31.045";"1";"1";"1";"8";"7";"module.GoNoGopractice.exec-7291.GoNoGo_Practice";;;;;;;;;;;;;;;;;;;;;;;;;;;;;;;;;;;;;;;;;;;;;;;;;;;;;;;;;;;;;;;;;;;;;;;"1959";"2014-10-15 16:51:54.145";"2";"0";"FINISHED";"LEFT";"success";"385";"0";"2014-10-15 16:51:52.179";"1";;;;;;;;;;
"C1413999";;;"Windows 7";"Rachel's Experiment (D.T.)";"1.0";"2";"1";"1";"2";"1";"1";"2014-10-15 16:49:57.488";"2014-10-15 17:03:31.045";"1";"1";"1";"9";"8";"module.GoNoGopractice.exec-7291.GoNoGo_Practice";;;;;;;;;;;;;;;;;;;;;;;;;;;;;;;;;;;;;;;;;;;;;;;;;;;;;;;;;;;;;;;;;;;;;;;"2053";"2014-10-15 16:51:57.483";"30";"0";"FINISHED";"LEFT";"failure";"452";"1";"2014-10-15 16:51:55.424";"3";;;;;;;;;;
"C1413999";;;"Windows 7";"Rachel's Experiment (D.T.)";"1.0";"2";"1";"1";"2";"1";"1";"2014-10-15 16:49:57.488";"2014-10-15 17:03:31.045";"1";"1";"1";"10";"9";"module.GoNoGopractice.exec-7291.GoNoGo_Practice";;;;;;;;;;;;;;;;;;;;;;;;;;;;;;;;;;;;;;;;;;;;;;;;;;;;;;;;;;;;;;;;;;;;;;;"1957";"2014-10-15 16:52:00.728";"6";"1";"FINISHED";"NONE";"success";"0";"1";"2014-10-15 16:51:58.763";"1";;;;;;;;;;
"C1413999";;;"Windows 7";"Rachel's Experiment (D.T.)";"1.0";"2";"1";"1";"2";"1";"1";"2014-10-15 16:49:57.488";"2014-10-15 17:03:31.045";"1";"1";"1";"11";"10";"module.GoNoGopractice.exec-7291.GoNoGo_Practice";;;;;;;;;;;;;;;;;;;;;;;;;;;;;;;;;;;;;;;;;;;;;;;;;;;;;;;;;;;;;;;;;;;;;;;"1960";"2014-10-15 16:52:03.973";"34";"0";"FINISHED";"LEFT";"success";"549";"0";"2014-10-15 16:52:02.007";"3";;;;;;;;;;
"C1413999";;;"Windows 7";"Rachel's Experiment (D.T.)";"1.0";"2";"1";"1";"2";"1";"1";"2014-10-15 16:49:57.488";"2014-10-15 17:03:31.045";"1";"1";"1";"12";"11";"module.GoNoGopractice.exec-7291.GoNoGo_Practice";;;;;;;;;;;;;;;;;;;;;;;;;;;;;;;;;;;;;;;;;;;;;;;;;;;;;;;;;;;;;;;;;;;;;;;"1959";"2014-10-15 16:52:07.218";"23";"1";"FINISHED";"RIGHT";"success";"584";"0";"2014-10-15 16:52:05.252";"3";;;;;;;;;;
"C1413999";;;"Windows 7";"Rachel's Experiment (D.T.)";"1.0";"2";"1";"1";"2";"1";"1";"2014-10-15 16:49:57.488";"2014-10-15 17:03:31.045";"1";"1";"1";"13";"12";"module.GoNoGopractice.exec-7291.GoNoGo_Practice";;;;;;;;;;;;;;;;;;;;;;;;;;;;;;;;;;;;;;;;;;;;;;;;;;;;;;;;;;;;;;;;;;;;;;;"1959";"2014-10-15 16:52:10.463";"13";"0";"FINISHED";"NONE";"success";"0";"1";"2014-10-15 16:52:08.497";"2";;;;;;;;;;
"C1413999";;;"Windows 7";"Rachel's Experiment (D.T.)";"1.0";"2";"1";"1";"2";"1";"1";"2014-10-15 16:49:57.488";"2014-10-15 17:03:31.045";"1";"1";"1";"14";"13";"module.GoNoGopractice.exec-7291.GoNoGo_Practice";;;;;;;;;;;;;;;;;;;;;;;;;;;;;;;;;;;;;;;;;;;;;;;;;;;;;;;;;;;;;;;;;;;;;;;"1960";"2014-10-15 16:52:13.707";"3";"1";"FINISHED";"RIGHT";"success";"535";"0";"2014-10-15 16:52:11.742";"1";;;;;;;;;;
"C1413999";;;"Windows 7";"Rachel's Experiment (D.T.)";"1.0";"2";"1";"1";"2";"1";"1";"2014-10-15 16:49:57.488";"2014-10-15 17:03:31.045";"1";"1";"1";"15";"14";"module.GoNoGopractice.exec-7291.GoNoGo_Practice";;;;;;;;;;;;;;;;;;;;;;;;;;;;;;;;;;;;;;;;;;;;;;;;;;;;;;;;;;;;;;;;;;;;;;;"1959";"2014-10-15 16:52:16.952";"27";"1";"FINISHED";"RIGHT";"failure";"616";"1";"2014-10-15 16:52:14.987";"3";;;;;;;;;;
"C1413999";;;"Windows 7";"Rachel's Experiment (D.T.)";"1.0";"2";"1";"1";"2";"1";"1";"2014-10-15 16:49:57.488";"2014-10-15 17:03:31.045";"1";"1";"1";"16";"15";"module.training_block1.exec-6173.GoNoGo1";;;;;;;;;;;;;;;;;;;;;;;"1256";"2014-10-15 16:52:23.879";"ST_correctStop";"7";"0";"FINISHED";"NONE";"success";"0";"1";"2014-10-15 16:52:22.615";"1";;;;;;;;;;;;;;;;;;;;;;;;;;;;;;;;;;;;;;;;;;;;;;;;;;;;;;;;;
"C1413999";;;"Windows 7";"Rachel's Experiment (D.T.)";"1.0";"2";"1";"1";"2";"1";"1";"2014-10-15 16:49:57.488";"2014-10-15 17:03:31.045";"1";"1";"1";"17";"16";"module.training_block1.exec-6173.GoNoGo1";;;;;;;;;;;;;;;;;;;;;;;"1261";"2014-10-15 16:52:26.421";"NST_correctLoc";"34";"0";"FINISHED";"LEFT";"success";"570";"0";"2014-10-15 16:52:25.158";"3";;;;;;;;;;;;;;;;;;;;;;;;;;;;;;;;;;;;;;;;;;;;;;;;;;;;;;;;;
"C1413999";;;"Windows 7";"Rachel's Experiment (D.T.)";"1.0";"2";"1";"1";"2";"1";"1";"2014-10-15 16:49:57.488";"2014-10-15 17:03:31.045";"1";"1";"1";"18";"17";"module.training_block1.exec-6173.GoNoGo1";;;;;;;;;;;;;;;;;;;;;;;"1258";"2014-10-15 16:52:28.964";"ST_correctStop";"5";"1";"FINISHED";"NONE";"success";"0";"1";"2014-10-15 16:52:27.701";"1";;;;;;;;;;;;;;;;;;;;;;;;;;;;;;;;;;;;;;;;;;;;;;;;;;;;;;;;;
"C1413999";;;"Windows 7";"Rachel's Experiment (D.T.)";"1.0";"2";"1";"1";"2";"1";"1";"2014-10-15 16:49:57.488";"2014-10-15 17:03:31.045";"1";"1";"1";"19";"18";"module.training_block1.exec-6173.GoNoGo1";;;;;;;;;;;;;;;;;;;;;;;"1258";"2014-10-15 16:52:31.507";"ST_correctStop";"1";"1";"FINISHED";"NONE";"success";"0";"1";"2014-10-15 16:52:30.243";"1";;;;;;;;;;;;;;;;;;;;;;;;;;;;;;;;;;;;;;;;;;;;;;;;;;;;;;;;;
"C1413999";;;"Windows 7";"Rachel's Experiment (D.T.)";"1.0";"2";"1";"1";"2";"1";"1";"2014-10-15 16:49:57.488";"2014-10-15 17:03:31.045";"1";"1";"1";"20";"19";"module.training_block1.exec-6173.GoNoGo1";;;;;;;;;;;;;;;;;;;;;;;"1257";"2014-10-15 16:52:34.050";"NST_correctLoc";"9";"1";"FINISHED";"RIGHT";"success";"617";"0";"2014-10-15 16:52:32.786";"2";;;;;;;;;;;;;;;;;;;;;;;;;;;;;;;;;;;;;;;;;;;;;;;;;;;;;;;;;
"C1413999";;;"Windows 7";"Rachel's Experiment (D.T.)";"1.0";"2";"1";"1";"2";"1";"1";"2014-10-15 16:49:57.488";"2014-10-15 17:03:31.045";"1";"1";"1";"21";"20";"module.training_block1.exec-6173.GoNoGo1";;;;;;;;;;;;;;;;;;;;;;;"1261";"2014-10-15 16:52:36.593";"NST_correctLoc";"13";"1";"FINISHED";"RIGHT";"success";"414";"0";"2014-10-15 16:52:35.329";"2";;;;;;;;;;;;;;;;;;;;;;;;;;;;;;;;;;;;;;;;;;;;;;;;;;;;;;;;;
"C1413999";;;"Windows 7";"Rachel's Experiment (D.T.)";"1.0";"2";"1";"1";"2";"1";"1";"2014-10-15 16:49:57.488";"2014-10-15 17:03:31.045";"1";"1";"1";"22";"21";"module.training_block1.exec-6173.GoNoGo1";;;;;;;;;;;;;;;;;;;;;;;"1257";"2014-10-15 16:52:39.135";"NST_correctLoc";"14";"0";"FINISHED";"LEFT";"success";"483";"0";"2014-10-15 16:52:37.872";"2";;;;;;;;;;;;;;;;;;;;;;;;;;;;;;;;;;;;;;;;;;;;;;;;;;;;;;;;;
"C1413999";;;"Windows 7";"Rachel's Experiment (D.T.)";"1.0";"2";"1";"1";"2";"1";"1";"2014-10-15 16:49:57.488";"2014-10-15 17:03:31.045";"1";"1";"1";"23";"22";"module.training_block1.exec-6173.GoNoGo1";;;;;;;;;;;;;;;;;;;;;;;"1256";"2014-10-15 16:52:41.678";"ST_failedStop";"30";"1";"FINISHED";"RIGHT";"failure";"492";"1";"2014-10-15 16:52:40.415";"3";;;;;;;;;;;;;;;;;;;;;;;;;;;;;;;;;;;;;;;;;;;;;;;;;;;;;;;;;
"C1413999";;;"Windows 7";"Rachel's Experiment (D.T.)";"1.0";"2";"1";"1";"2";"1";"1";"2014-10-15 16:49:57.488";"2014-10-15 17:03:31.045";"1";"1";"1";"24";"23";"module.training_block1.exec-6173.GoNoGo1";;;;;;;;;;;;;;;;;;;;;;;"1261";"2014-10-15 16:52:44.221";"NST_correctLoc";"27";"1";"FINISHED";"RIGHT";"success";"626";"0";"2014-10-15 16:52:42.957";"3";;;;;;;;;;;;;;;;;;;;;;;;;;;;;;;;;;;;;;;;;;;;;;;;;;;;;;;;;
"C1413999";;;"Windows 7";"Rachel's Experiment (D.T.)";"1.0";"2";"1";"1";"2";"1";"1";"2014-10-15 16:49:57.488";"2014-10-15 17:03:31.045";"1";"1";"1";"25";"24";"module.training_block1.exec-6173.GoNoGo1";;;;;;;;;;;;;;;;;;;;;;;"1256";"2014-10-15 16:52:46.764";"ST_correctStop";"26";"0";"FINISHED";"NONE";"success";"0";"1";"2014-10-15 16:52:45.500";"3";;;;;;;;;;;;;;;;;;;;;;;;;;;;;;;;;;;;;;;;;;;;;;;;;;;;;;;;;
"C1413999";;;"Windows 7";"Rachel's Experiment (D.T.)";"1.0";"2";"1";"1";"2";"1";"1";"2014-10-15 16:49:57.488";"2014-10-15 17:03:31.045";"1";"1";"1";"26";"25";"module.training_block1.exec-6173.GoNoGo1";;;;;;;;;;;;;;;;;;;;;;;"1258";"2014-10-15 16:52:49.307";"ST_correctStop";"25";"0";"FINISHED";"NONE";"success";"0";"1";"2014-10-15 16:52:48.043";"3";;;;;;;;;;;;;;;;;;;;;;;;;;;;;;;;;;;;;;;;;;;;;;;;;;;;;;;;;
"C1413999";;;"Windows 7";"Rachel's Experiment (D.T.)";"1.0";"2";"1";"1";"2";"1";"1";"2014-10-15 16:49:57.488";"2014-10-15 17:03:31.045";"1";"1";"1";"27";"26";"module.training_block1.exec-6173.GoNoGo1";;;;;;;;;;;;;;;;;;;;;;;"1258";"2014-10-15 16:52:51.849";"NST_correctLoc";"24";"0";"FINISHED";"LEFT";"success";"538";"0";"2014-10-15 16:52:50.586";"3";;;;;;;;;;;;;;;;;;;;;;;;;;;;;;;;;;;;;;;;;;;;;;;;;;;;;;;;;
"C1413999";;;"Windows 7";"Rachel's Experiment (D.T.)";"1.0";"2";"1";"1";"2";"1";"1";"2014-10-15 16:49:57.488";"2014-10-15 17:03:31.045";"1";"1";"1";"28";"27";"module.training_block1.exec-6173.GoNoGo1";;;;;;;;;;;;;;;;;;;;;;;"1261";"2014-10-15 16:52:54.392";"ST_correctStop";"3";"1";"FINISHED";"NONE";"success";"0";"1";"2014-10-15 16:52:53.129";"1";;;;;;;;;;;;;;;;;;;;;;;;;;;;;;;;;;;;;;;;;;;;;;;;;;;;;;;;;
"C1413999";;;"Windows 7";"Rachel's Experiment (D.T.)";"1.0";"2";"1";"1";"2";"1";"1";"2014-10-15 16:49:57.488";"2014-10-15 17:03:31.045";"1";"1";"1";"29";"28";"module.training_block1.exec-6173.GoNoGo1";;;;;;;;;;;;;;;;;;;;;;;"1257";"2014-10-15 16:52:56.935";"NST_correctLoc";"15";"1";"FINISHED";"RIGHT";"success";"635";"0";"2014-10-15 16:52:55.671";"2";;;;;;;;;;;;;;;;;;;;;;;;;;;;;;;;;;;;;;;;;;;;;;;;;;;;;;;;;
"C1413999";;;"Windows 7";"Rachel's Experiment (D.T.)";"1.0";"2";"1";"1";"2";"1";"1";"2014-10-15 16:49:57.488";"2014-10-15 17:03:31.045";"1";"1";"1";"30";"29";"module.training_block1.exec-6173.GoNoGo1";;;;;;;;;;;;;;;;;;;;;;;"1261";"2014-10-15 16:52:59.478";"ST_correctStop";"23";"1";"FINISHED";"NONE";"success";"0";"1";"2014-10-15 16:52:58.214";"3";;;;;;;;;;;;;;;;;;;;;;;;;;;;;;;;;;;;;;;;;;;;;;;;;;;;;;;;;
"C1413999";;;"Windows 7";"Rachel's Experiment (D.T.)";"1.0";"2";"1";"1";"2";"1";"1";"2014-10-15 16:49:57.488";"2014-10-15 17:03:31.045";"1";"1";"1";"31";"30";"module.training_block1.exec-6173.GoNoGo1";;;;;;;;;;;;;;;;;;;;;;;"1257";"2014-10-15 16:53:02.021";"NST_correctLoc";"32";"0";"FINISHED";"LEFT";"success";"646";"0";"2014-10-15 16:53:00.757";"3";;;;;;;;;;;;;;;;;;;;;;;;;;;;;;;;;;;;;;;;;;;;;;;;;;;;;;;;;
"C1413999";;;"Windows 7";"Rachel's Experiment (D.T.)";"1.0";"2";"1";"1";"2";"1";"1";"2014-10-15 16:49:57.488";"2014-10-15 17:03:31.045";"1";"1";"1";"32";"31";"module.training_block1.exec-6173.GoNoGo1";;;;;;;;;;;;;;;;;;;;;;;"1257";"2014-10-15 16:53:04.563";"NST_correctLoc";"10";"1";"FINISHED";"RIGHT";"success";"511";"0";"2014-10-15 16:53:03.300";"2";;;;;;;;;;;;;;;;;;;;;;;;;;;;;;;;;;;;;;;;;;;;;;;;;;;;;;;;;
"C1413999";;;"Windows 7";"Rachel's Experiment (D.T.)";"1.0";"2";"1";"1";"2";"1";"1";"2014-10-15 16:49:57.488";"2014-10-15 17:03:31.045";"1";"1";"1";"33";"32";"module.training_block1.exec-6173.GoNoGo1";;;;;;;;;;;;;;;;;;;;;;;"1261";"2014-10-15 16:53:07.106";"ST_correctStop";"6";"0";"FINISHED";"NONE";"success";"0";"1";"2014-10-15 16:53:05.843";"1";;;;;;;;;;;;;;;;;;;;;;;;;;;;;;;;;;;;;;;;;;;;;;;;;;;;;;;;;
"C1413999";;;"Windows 7";"Rachel's Experiment (D.T.)";"1.0";"2";"1";"1";"2";"1";"1";"2014-10-15 16:49:57.488";"2014-10-15 17:03:31.045";"1";"1";"1";"34";"33";"module.training_block1.exec-6173.GoNoGo1";;;;;;;;;;;;;;;;;;;;;;;"1257";"2014-10-15 16:53:09.649";"ST_correctStop";"21";"1";"FINISHED";"NONE";"success";"0";"1";"2014-10-15 16:53:08.385";"3";;;;;;;;;;;;;;;;;;;;;;;;;;;;;;;;;;;;;;;;;;;;;;;;;;;;;;;;;
"C1413999";;;"Windows 7";"Rachel's Experiment (D.T.)";"1.0";"2";"1";"1";"2";"1";"1";"2014-10-15 16:49:57.488";"2014-10-15 17:03:31.045";"1";"1";"1";"35";"34";"module.training_block1.exec-6173.GoNoGo1";;;;;;;;;;;;;;;;;;;;;;;"1258";"2014-10-15 16:53:12.192";"NST_correctLoc";"31";"0";"FINISHED";"LEFT";"success";"619";"0";"2014-10-15 16:53:10.928";"3";;;;;;;;;;;;;;;;;;;;;;;;;;;;;;;;;;;;;;;;;;;;;;;;;;;;;;;;;
"C1413999";;;"Windows 7";"Rachel's Experiment (D.T.)";"1.0";"2";"1";"1";"2";"1";"1";"2014-10-15 16:49:57.488";"2014-10-15 17:03:31.045";"1";"1";"1";"36";"35";"module.training_block1.exec-6173.GoNoGo1";;;;;;;;;;;;;;;;;;;;;;;"1258";"2014-10-15 16:53:14.735";"NST_correctLoc";"20";"1";"FINISHED";"RIGHT";"success";"564";"0";"2014-10-15 16:53:13.471";"3";;;;;;;;;;;;;;;;;;;;;;;;;;;;;;;;;;;;;;;;;;;;;;;;;;;;;;;;;
"C1413999";;;"Windows 7";"Rachel's Experiment (D.T.)";"1.0";"2";"1";"1";"2";"1";"1";"2014-10-15 16:49:57.488";"2014-10-15 17:03:31.045";"1";"1";"1";"37";"36";"module.training_block1.exec-6173.GoNoGo1";;;;;;;;;;;;;;;;;;;;;;;"1257";"2014-10-15 16:53:17.277";"NST_correctLoc";"33";"0";"FINISHED";"LEFT";"success";"453";"0";"2014-10-15 16:53:16.014";"3";;;;;;;;;;;;;;;;;;;;;;;;;;;;;;;;;;;;;;;;;;;;;;;;;;;;;;;;;
"C1413999";;;"Windows 7";"Rachel's Experiment (D.T.)";"1.0";"2";"1";"1";"2";"1";"1";"2014-10-15 16:49:57.488";"2014-10-15 17:03:31.045";"1";"1";"1";"38";"37";"module.training_block1.exec-6173.GoNoGo1";;;;;;;;;;;;;;;;;;;;;;;"1258";"2014-10-15 16:53:19.820";"ST_correctStop";"29";"0";"FINISHED";"NONE";"success";"0";"1";"2014-10-15 16:53:18.557";"3";;;;;;;;;;;;;;;;;;;;;;;;;;;;;;;;;;;;;;;;;;;;;;;;;;;;;;;;;
"C1413999";;;"Windows 7";"Rachel's Experiment (D.T.)";"1.0";"2";"1";"1";"2";"1";"1";"2014-10-15 16:49:57.488";"2014-10-15 17:03:31.045";"1";"1";"1";"39";"38";"module.training_block1.exec-6173.GoNoGo1";;;;;;;;;;;;;;;;;;;;;;;"1257";"2014-10-15 16:53:22.363";"ST_correctStop";"2";"0";"FINISHED";"NONE";"success";"0";"1";"2014-10-15 16:53:21.099";"1";;;;;;;;;;;;;;;;;;;;;;;;;;;;;;;;;;;;;;;;;;;;;;;;;;;;;;;;;
"C1413999";;;"Windows 7";"Rachel's Experiment (D.T.)";"1.0";"2";"1";"1";"2";"1";"1";"2014-10-15 16:49:57.488";"2014-10-15 17:03:31.045";"1";"1";"1";"40";"39";"module.training_block1.exec-6173.GoNoGo1";;;;;;;;;;;;;;;;;;;;;;;"1252";"2014-10-15 16:53:24.906";"ST_correctStop";"4";"1";"FINISHED";"NONE";"success";"0";"1";"2014-10-15 16:53:23.642";"1";;;;;;;;;;;;;;;;;;;;;;;;;;;;;;;;;;;;;;;;;;;;;;;;;;;;;;;;;
"C1413999";;;"Windows 7";"Rachel's Experiment (D.T.)";"1.0";"2";"1";"1";"2";"1";"1";"2014-10-15 16:49:57.488";"2014-10-15 17:03:31.045";"1";"1";"1";"41";"40";"module.training_block1.exec-6173.GoNoGo1";;;;;;;;;;;;;;;;;;;;;;;"1258";"2014-10-15 16:53:27.449";"NST_correctLoc";"12";"1";"FINISHED";"RIGHT";"success";"411";"0";"2014-10-15 16:53:26.185";"2";;;;;;;;;;;;;;;;;;;;;;;;;;;;;;;;;;;;;;;;;;;;;;;;;;;;;;;;;
"C1413999";;;"Windows 7";"Rachel's Experiment (D.T.)";"1.0";"2";"1";"1";"2";"1";"1";"2014-10-15 16:49:57.488";"2014-10-15 17:03:31.045";"1";"1";"1";"42";"41";"module.training_block1.exec-6173.GoNoGo1";;;;;;;;;;;;;;;;;;;;;;;"1258";"2014-10-15 16:53:29.992";"ST_correctStop";"18";"0";"FINISHED";"NONE";"success";"0";"1";"2014-10-15 16:53:28.728";"3";;;;;;;;;;;;;;;;;;;;;;;;;;;;;;;;;;;;;;;;;;;;;;;;;;;;;;;;;
"C1413999";;;"Windows 7";"Rachel's Experiment (D.T.)";"1.0";"2";"1";"1";"2";"1";"1";"2014-10-15 16:49:57.488";"2014-10-15 17:03:31.045";"1";"1";"1";"43";"42";"module.training_block1.exec-6173.GoNoGo1";;;;;;;;;;;;;;;;;;;;;;;"1258";"2014-10-15 16:53:32.534";"NST_correctLoc";"11";"0";"FINISHED";"LEFT";"success";"421";"0";"2014-10-15 16:53:31.271";"2";;;;;;;;;;;;;;;;;;;;;;;;;;;;;;;;;;;;;;;;;;;;;;;;;;;;;;;;;
"C1413999";;;"Windows 7";"Rachel's Experiment (D.T.)";"1.0";"2";"1";"1";"2";"1";"1";"2014-10-15 16:49:57.488";"2014-10-15 17:03:31.045";"1";"1";"1";"44";"43";"module.training_block1.exec-6173.GoNoGo1";;;;;;;;;;;;;;;;;;;;;;;"1257";"2014-10-15 16:53:35.077";"NST_correctLoc";"17";"0";"FINISHED";"LEFT";"success";"406";"0";"2014-10-15 16:53:33.814";"2";;;;;;;;;;;;;;;;;;;;;;;;;;;;;;;;;;;;;;;;;;;;;;;;;;;;;;;;;
"C1413999";;;"Windows 7";"Rachel's Experiment (D.T.)";"1.0";"2";"1";"1";"2";"1";"1";"2014-10-15 16:49:57.488";"2014-10-15 17:03:31.045";"1";"1";"1";"45";"44";"module.training_block1.exec-6173.GoNoGo1";;;;;;;;;;;;;;;;;;;;;;;"1258";"2014-10-15 16:53:37.620";"NST_correctLoc";"19";"1";"FINISHED";"RIGHT";"success";"655";"0";"2014-10-15 16:53:36.356";"3";;;;;;;;;;;;;;;;;;;;;;;;;;;;;;;;;;;;;;;;;;;;;;;;;;;;;;;;;
"C1413999";;;"Windows 7";"Rachel's Experiment (D.T.)";"1.0";"2";"1";"1";"2";"1";"1";"2014-10-15 16:49:57.488";"2014-10-15 17:03:31.045";"1";"1";"1";"46";"45";"module.training_block1.exec-6173.GoNoGo1";;;;;;;;;;;;;;;;;;;;;;;"1258";"2014-10-15 16:53:40.163";"NST_correctLoc";"16";"1";"FINISHED";"RIGHT";"success";"488";"0";"2014-10-15 16:53:38.899";"2";;;;;;;;;;;;;;;;;;;;;;;;;;;;;;;;;;;;;;;;;;;;;;;;;;;;;;;;;
"C1413999";;;"Windows 7";"Rachel's Experiment (D.T.)";"1.0";"2";"1";"1";"2";"1";"1";"2014-10-15 16:49:57.488";"2014-10-15 17:03:31.045";"1";"1";"1";"47";"46";"module.training_block1.exec-6173.GoNoGo1";;;;;;;;;;;;;;;;;;;;;;;"1258";"2014-10-15 16:53:42.706";"NST_correctLoc";"28";"0";"FINISHED";"LEFT";"success";"546";"0";"2014-10-15 16:53:41.442";"3";;;;;;;;;;;;;;;;;;;;;;;;;;;;;;;;;;;;;;;;;;;;;;;;;;;;;;;;;
"C1413999";;;"Windows 7";"Rachel's Experiment (D.T.)";"1.0";"2";"1";"1";"2";"1";"1";"2014-10-15 16:49:57.488";"2014-10-15 17:03:31.045";"1";"1";"1";"48";"47";"module.training_block1.exec-6173.GoNoGo1";;;;;;;;;;;;;;;;;;;;;;;"1257";"2014-10-15 16:53:45.248";"ST_failedStop";"8";"0";"FINISHED";"LEFT";"failure";"474";"1";"2014-10-15 16:53:43.985";"1";;;;;;;;;;;;;;;;;;;;;;;;;;;;;;;;;;;;;;;;;;;;;;;;;;;;;;;;;
"C1413999";;;"Windows 7";"Rachel's Experiment (D.T.)";"1.0";"2";"1";"1";"2";"1";"1";"2014-10-15 16:49:57.488";"2014-10-15 17:03:31.045";"1";"1";"1";"49";"48";"module.training_block1.exec-6173.GoNoGo1";;;;;;;;;;;;;;;;;;;;;;;"1257";"2014-10-15 16:53:47.791";"ST_correctStop";"22";"1";"FINISHED";"NONE";"success";"0";"1";"2014-10-15 16:53:46.528";"3";;;;;;;;;;;;;;;;;;;;;;;;;;;;;;;;;;;;;;;;;;;;;;;;;;;;;;;;;
"C1413999";;;"Windows 7";"Rachel's Experiment (D.T.)";"1.0";"2";"1";"1";"2";"1";"1";"2014-10-15 16:49:57.488";"2014-10-15 17:03:31.045";"1";"1";"1";"50";"49";"module.training_block1.exec-6173.GoNoGo1";;;;;;;;;;;;;;;;;;;;;;;"1258";"2014-10-15 16:53:50.334";"ST_correctStop";"35";"0";"FINISHED";"NONE";"success";"0";"1";"2014-10-15 16:53:49.070";"3";;;;;;;;;;;;;;;;;;;;;;;;;;;;;;;;;;;;;;;;;;;;;;;;;;;;;;;;;
"C1413999";;;"Windows 7";"Rachel's Experiment (D.T.)";"1.0";"2";"1";"1";"2";"1";"1";"2014-10-15 16:49:57.488";"2014-10-15 17:03:31.045";"1";"1";"1";"51";"50";"module.training_block1.exec-6173.GoNoGo1";;;;;;;;;;;;;;;;;;;;;;;"1257";"2014-10-15 16:53:52.877";"ST_correctStop";"0";"1";"FINISHED";"NONE";"success";"0";"1";"2014-10-15 16:53:51.613";"1";;;;;;;;;;;;;;;;;;;;;;;;;;;;;;;;;;;;;;;;;;;;;;;;;;;;;;;;;
"C1413999";;;"Windows 7";"Rachel's Experiment (D.T.)";"1.0";"2";"1";"1";"2";"1";"1";"2014-10-15 16:49:57.488";"2014-10-15 17:03:31.045";"1";"1";"1";"52";"51";"module.training_block2.exec-1616.GoNoGo2";;;;;;;;;;;;;;;;;;;;;;;;;;;;;;;;;;;"1261";"2014-10-15 16:54:04.374";"ST_correctStop";"7";"1";"FINISHED";"NONE";"success";"0";"1";"2014-10-15 16:54:03.110";"1";;;;;;;;;;;;;;;;;;;;;;;;;;;;;;;;;;;;;;;;;;;;;
"C1413999";;;"Windows 7";"Rachel's Experiment (D.T.)";"1.0";"2";"1";"1";"2";"1";"1";"2014-10-15 16:49:57.488";"2014-10-15 17:03:31.045";"1";"1";"1";"53";"52";"module.training_block2.exec-1616.GoNoGo2";;;;;;;;;;;;;;;;;;;;;;;;;;;;;;;;;;;"1261";"2014-10-15 16:54:06.901";"NST_correctLoc";"16";"1";"FINISHED";"RIGHT";"success";"409";"0";"2014-10-15 16:54:05.638";"2";;;;;;;;;;;;;;;;;;;;;;;;;;;;;;;;;;;;;;;;;;;;;
"C1413999";;;"Windows 7";"Rachel's Experiment (D.T.)";"1.0";"2";"1";"1";"2";"1";"1";"2014-10-15 16:49:57.488";"2014-10-15 17:03:31.045";"1";"1";"1";"54";"53";"module.training_block2.exec-1616.GoNoGo2";;;;;;;;;;;;;;;;;;;;;;;;;;;;;;;;;;;"1261";"2014-10-15 16:54:09.444";"NST_correctLoc";"14";"1";"FINISHED";"RIGHT";"success";"434";"0";"2014-10-15 16:54:08.180";"2";;;;;;;;;;;;;;;;;;;;;;;;;;;;;;;;;;;;;;;;;;;;;
"C1413999";;;"Windows 7";"Rachel's Experiment (D.T.)";"1.0";"2";"1";"1";"2";"1";"1";"2014-10-15 16:49:57.488";"2014-10-15 17:03:31.045";"1";"1";"1";"55";"54";"module.training_block2.exec-1616.GoNoGo2";;;;;;;;;;;;;;;;;;;;;;;;;;;;;;;;;;;"1261";"2014-10-15 16:54:11.987";"ST_correctStop";"22";"1";"FINISHED";"NONE";"success";"0";"1";"2014-10-15 16:54:10.723";"3";;;;;;;;;;;;;;;;;;;;;;;;;;;;;;;;;;;;;;;;;;;;;
"C1413999";;;"Windows 7";"Rachel's Experiment (D.T.)";"1.0";"2";"1";"1";"2";"1";"1";"2014-10-15 16:49:57.488";"2014-10-15 17:03:31.045";"1";"1";"1";"56";"55";"module.training_block2.exec-1616.GoNoGo2";;;;;;;;;;;;;;;;;;;;;;;;;;;;;;;;;;;"1257";"2014-10-15 16:54:14.530";"NST_correctLoc";"28";"0";"FINISHED";"LEFT";"success";"481";"0";"2014-10-15 16:54:13.266";"3";;;;;;;;;;;;;;;;;;;;;;;;;;;;;;;;;;;;;;;;;;;;;
"C1413999";;;"Windows 7";"Rachel's Experiment (D.T.)";"1.0";"2";"1";"1";"2";"1";"1";"2014-10-15 16:49:57.488";"2014-10-15 17:03:31.045";"1";"1";"1";"57";"56";"module.training_block2.exec-1616.GoNoGo2";;;;;;;;;;;;;;;;;;;;;;;;;;;;;;;;;;;"1261";"2014-10-15 16:54:17.072";"ST_failedStop";"8";"0";"FINISHED";"LEFT";"failure";"414";"1";"2014-10-15 16:54:15.809";"1";;;;;;;;;;;;;;;;;;;;;;;;;;;;;;;;;;;;;;;;;;;;;
"C1413999";;;"Windows 7";"Rachel's Experiment (D.T.)";"1.0";"2";"1";"1";"2";"1";"1";"2014-10-15 16:49:57.488";"2014-10-15 17:03:31.045";"1";"1";"1";"58";"57";"module.training_block2.exec-1616.GoNoGo2";;;;;;;;;;;;;;;;;;;;;;;;;;;;;;;;;;;"1261";"2014-10-15 16:54:19.615";"NST_correctLoc";"9";"0";"FINISHED";"LEFT";"success";"679";"0";"2014-10-15 16:54:18.352";"2";;;;;;;;;;;;;;;;;;;;;;;;;;;;;;;;;;;;;;;;;;;;;
"C1413999";;;"Windows 7";"Rachel's Experiment (D.T.)";"1.0";"2";"1";"1";"2";"1";"1";"2014-10-15 16:49:57.488";"2014-10-15 17:03:31.045";"1";"1";"1";"59";"58";"module.training_block2.exec-1616.GoNoGo2";;;;;;;;;;;;;;;;;;;;;;;;;;;;;;;;;;;"1261";"2014-10-15 16:54:22.158";"NST_correctLoc";"10";"0";"FINISHED";"LEFT";"success";"568";"0";"2014-10-15 16:54:20.894";"2";;;;;;;;;;;;;;;;;;;;;;;;;;;;;;;;;;;;;;;;;;;;;
"C1413999";;;"Windows 7";"Rachel's Experiment (D.T.)";"1.0";"2";"1";"1";"2";"1";"1";"2014-10-15 16:49:57.488";"2014-10-15 17:03:31.045";"1";"1";"1";"60";"59";"module.training_block2.exec-1616.GoNoGo2";;;;;;;;;;;;;;;;;;;;;;;;;;;;;;;;;;;"1261";"2014-10-15 16:54:24.701";"ST_correctStop";"30";"0";"FINISHED";"NONE";"success";"0";"1";"2014-10-15 16:54:23.437";"3";;;;;;;;;;;;;;;;;;;;;;;;;;;;;;;;;;;;;;;;;;;;;
"C1413999";;;"Windows 7";"Rachel's Experiment (D.T.)";"1.0";"2";"1";"1";"2";"1";"1";"2014-10-15 16:49:57.488";"2014-10-15 17:03:31.045";"1";"1";"1";"61";"60";"module.training_block2.exec-1616.GoNoGo2";;;;;;;;;;;;;;;;;;;;;;;;;;;;;;;;;;;"1261";"2014-10-15 16:54:27.244";"NST_correctLoc";"12";"0";"FINISHED";"LEFT";"success";"491";"0";"2014-10-15 16:54:25.980";"2";;;;;;;;;;;;;;;;;;;;;;;;;;;;;;;;;;;;;;;;;;;;;
"C1413999";;;"Windows 7";"Rachel's Experiment (D.T.)";"1.0";"2";"1";"1";"2";"1";"1";"2014-10-15 16:49:57.488";"2014-10-15 17:03:31.045";"1";"1";"1";"62";"61";"module.training_block2.exec-1616.GoNoGo2";;;;;;;;;;;;;;;;;;;;;;;;;;;;;;;;;;;"1261";"2014-10-15 16:54:29.786";"ST_failedStop";"29";"0";"FINISHED";"LEFT";"failure";"524";"1";"2014-10-15 16:54:28.523";"3";;;;;;;;;;;;;;;;;;;;;;;;;;;;;;;;;;;;;;;;;;;;;
"C1413999";;;"Windows 7";"Rachel's Experiment (D.T.)";"1.0";"2";"1";"1";"2";"1";"1";"2014-10-15 16:49:57.488";"2014-10-15 17:03:31.045";"1";"1";"1";"63";"62";"module.training_block2.exec-1616.GoNoGo2";;;;;;;;;;;;;;;;;;;;;;;;;;;;;;;;;;;"1261";"2014-10-15 16:54:32.329";"NST_correctLoc";"27";"1";"FINISHED";"RIGHT";"success";"605";"0";"2014-10-15 16:54:31.066";"3";;;;;;;;;;;;;;;;;;;;;;;;;;;;;;;;;;;;;;;;;;;;;
"C1413999";;;"Windows 7";"Rachel's Experiment (D.T.)";"1.0";"2";"1";"1";"2";"1";"1";"2014-10-15 16:49:57.488";"2014-10-15 17:03:31.045";"1";"1";"1";"64";"63";"module.training_block2.exec-1616.GoNoGo2";;;;;;;;;;;;;;;;;;;;;;;;;;;;;;;;;;;"1261";"2014-10-15 16:54:34.872";"ST_correctStop";"5";"0";"FINISHED";"NONE";"success";"0";"1";"2014-10-15 16:54:33.608";"1";;;;;;;;;;;;;;;;;;;;;;;;;;;;;;;;;;;;;;;;;;;;;
"C1413999";;;"Windows 7";"Rachel's Experiment (D.T.)";"1.0";"2";"1";"1";"2";"1";"1";"2014-10-15 16:49:57.488";"2014-10-15 17:03:31.045";"1";"1";"1";"65";"64";"module.training_block2.exec-1616.GoNoGo2";;;;;;;;;;;;;;;;;;;;;;;;;;;;;;;;;;;"1261";"2014-10-15 16:54:37.415";"ST_correctStop";"1";"0";"FINISHED";"NONE";"success";"0";"1";"2014-10-15 16:54:36.151";"1";;;;;;;;;;;;;;;;;;;;;;;;;;;;;;;;;;;;;;;;;;;;;
"C1413999";;;"Windows 7";"Rachel's Experiment (D.T.)";"1.0";"2";"1";"1";"2";"1";"1";"2014-10-15 16:49:57.488";"2014-10-15 17:03:31.045";"1";"1";"1";"66";"65";"module.training_block2.exec-1616.GoNoGo2";;;;;;;;;;;;;;;;;;;;;;;;;;;;;;;;;;;"1261";"2014-10-15 16:54:39.958";"NST_correctLoc";"17";"1";"FINISHED";"RIGHT";"success";"489";"0";"2014-10-15 16:54:38.694";"2";;;;;;;;;;;;;;;;;;;;;;;;;;;;;;;;;;;;;;;;;;;;;
"C1413999";;;"Windows 7";"Rachel's Experiment (D.T.)";"1.0";"2";"1";"1";"2";"1";"1";"2014-10-15 16:49:57.488";"2014-10-15 17:03:31.045";"1";"1";"1";"67";"66";"module.training_block2.exec-1616.GoNoGo2";;;;;;;;;;;;;;;;;;;;;;;;;;;;;;;;;;;"1261";"2014-10-15 16:54:42.500";"NST_correctLoc";"20";"0";"FINISHED";"LEFT";"success";"586";"0";"2014-10-15 16:54:41.237";"3";;;;;;;;;;;;;;;;;;;;;;;;;;;;;;;;;;;;;;;;;;;;;
"C1413999";;;"Windows 7";"Rachel's Experiment (D.T.)";"1.0";"2";"1";"1";"2";"1";"1";"2014-10-15 16:49:57.488";"2014-10-15 17:03:31.045";"1";"1";"1";"68";"67";"module.training_block2.exec-1616.GoNoGo2";;;;;;;;;;;;;;;;;;;;;;;;;;;;;;;;;;;"1261";"2014-10-15 16:54:45.043";"ST_correctStop";"3";"1";"FINISHED";"NONE";"success";"0";"1";"2014-10-15 16:54:43.780";"1";;;;;;;;;;;;;;;;;;;;;;;;;;;;;;;;;;;;;;;;;;;;;
"C1413999";;;"Windows 7";"Rachel's Experiment (D.T.)";"1.0";"2";"1";"1";"2";"1";"1";"2014-10-15 16:49:57.488";"2014-10-15 17:03:31.045";"1";"1";"1";"69";"68";"module.training_block2.exec-1616.GoNoGo2";;;;;;;;;;;;;;;;;;;;;;;;;;;;;;;;;;;"1261";"2014-10-15 16:54:47.586";"NST_correctLoc";"25";"1";"FINISHED";"RIGHT";"success";"516";"0";"2014-10-15 16:54:46.322";"3";;;;;;;;;;;;;;;;;;;;;;;;;;;;;;;;;;;;;;;;;;;;;
"C1413999";;;"Windows 7";"Rachel's Experiment (D.T.)";"1.0";"2";"1";"1";"2";"1";"1";"2014-10-15 16:49:57.488";"2014-10-15 17:03:31.045";"1";"1";"1";"70";"69";"module.training_block2.exec-1616.GoNoGo2";;;;;;;;;;;;;;;;;;;;;;;;;;;;;;;;;;;"1261";"2014-10-15 16:54:50.129";"ST_correctStop";"32";"1";"FINISHED";"NONE";"success";"0";"1";"2014-10-15 16:54:48.865";"3";;;;;;;;;;;;;;;;;;;;;;;;;;;;;;;;;;;;;;;;;;;;;
"C1413999";;;"Windows 7";"Rachel's Experiment (D.T.)";"1.0";"2";"1";"1";"2";"1";"1";"2014-10-15 16:49:57.488";"2014-10-15 17:03:31.045";"1";"1";"1";"71";"70";"module.training_block2.exec-1616.GoNoGo2";;;;;;;;;;;;;;;;;;;;;;;;;;;;;;;;;;;"1261";"2014-10-15 16:54:52.672";"ST_correctStop";"18";"1";"FINISHED";"NONE";"success";"0";"1";"2014-10-15 16:54:51.408";"3";;;;;;;;;;;;;;;;;;;;;;;;;;;;;;;;;;;;;;;;;;;;;
"C1413999";;;"Windows 7";"Rachel's Experiment (D.T.)";"1.0";"2";"1";"1";"2";"1";"1";"2014-10-15 16:49:57.488";"2014-10-15 17:03:31.045";"1";"1";"1";"72";"71";"module.training_block2.exec-1616.GoNoGo2";;;;;;;;;;;;;;;;;;;;;;;;;;;;;;;;;;;"1261";"2014-10-15 16:54:55.214";"NST_correctLoc";"23";"1";"FINISHED";"RIGHT";"success";"576";"0";"2014-10-15 16:54:53.951";"3";;;;;;;;;;;;;;;;;;;;;;;;;;;;;;;;;;;;;;;;;;;;;
"C1413999";;;"Windows 7";"Rachel's Experiment (D.T.)";"1.0";"2";"1";"1";"2";"1";"1";"2014-10-15 16:49:57.488";"2014-10-15 17:03:31.045";"1";"1";"1";"73";"72";"module.training_block2.exec-1616.GoNoGo2";;;;;;;;;;;;;;;;;;;;;;;;;;;;;;;;;;;"1261";"2014-10-15 16:54:57.757";"NST_correctLoc";"11";"1";"FINISHED";"RIGHT";"success";"577";"0";"2014-10-15 16:54:56.494";"2";;;;;;;;;;;;;;;;;;;;;;;;;;;;;;;;;;;;;;;;;;;;;
"C1413999";;;"Windows 7";"Rachel's Experiment (D.T.)";"1.0";"2";"1";"1";"2";"1";"1";"2014-10-15 16:49:57.488";"2014-10-15 17:03:31.045";"1";"1";"1";"74";"73";"module.training_block2.exec-1616.GoNoGo2";;;;;;;;;;;;;;;;;;;;;;;;;;;;;;;;;;;"1261";"2014-10-15 16:55:00.316";"NST_correctLoc";"24";"1";"FINISHED";"RIGHT";"success";"555";"0";"2014-10-15 16:54:59.052";"3";;;;;;;;;;;;;;;;;;;;;;;;;;;;;;;;;;;;;;;;;;;;;
"C1413999";;;"Windows 7";"Rachel's Experiment (D.T.)";"1.0";"2";"1";"1";"2";"1";"1";"2014-10-15 16:49:57.488";"2014-10-15 17:03:31.045";"1";"1";"1";"75";"74";"module.training_block2.exec-1616.GoNoGo2";;;;;;;;;;;;;;;;;;;;;;;;;;;;;;;;;;;"1261";"2014-10-15 16:55:02.858";"ST_correctStop";"26";"0";"FINISHED";"NONE";"success";"0";"1";"2014-10-15 16:55:01.595";"3";;;;;;;;;;;;;;;;;;;;;;;;;;;;;;;;;;;;;;;;;;;;;
"C1413999";;;"Windows 7";"Rachel's Experiment (D.T.)";"1.0";"2";"1";"1";"2";"1";"1";"2014-10-15 16:49:57.488";"2014-10-15 17:03:31.045";"1";"1";"1";"76";"75";"module.training_block2.exec-1616.GoNoGo2";;;;;;;;;;;;;;;;;;;;;;;;;;;;;;;;;;;"1261";"2014-10-15 16:55:05.401";"ST_correctStop";"0";"1";"FINISHED";"NONE";"success";"0";"1";"2014-10-15 16:55:04.138";"1";;;;;;;;;;;;;;;;;;;;;;;;;;;;;;;;;;;;;;;;;;;;;
"C1413999";;;"Windows 7";"Rachel's Experiment (D.T.)";"1.0";"2";"1";"1";"2";"1";"1";"2014-10-15 16:49:57.488";"2014-10-15 17:03:31.045";"1";"1";"1";"77";"76";"module.training_block2.exec-1616.GoNoGo2";;;;;;;;;;;;;;;;;;;;;;;;;;;;;;;;;;;"1261";"2014-10-15 16:55:07.944";"NST_correctLoc";"19";"0";"FINISHED";"LEFT";"success";"582";"0";"2014-10-15 16:55:06.680";"3";;;;;;;;;;;;;;;;;;;;;;;;;;;;;;;;;;;;;;;;;;;;;
"C1413999";;;"Windows 7";"Rachel's Experiment (D.T.)";"1.0";"2";"1";"1";"2";"1";"1";"2014-10-15 16:49:57.488";"2014-10-15 17:03:31.045";"1";"1";"1";"78";"77";"module.training_block2.exec-1616.GoNoGo2";;;;;;;;;;;;;;;;;;;;;;;;;;;;;;;;;;;"1261";"2014-10-15 16:55:10.487";"ST_correctStop";"35";"1";"FINISHED";"NONE";"success";"0";"1";"2014-10-15 16:55:09.223";"3";;;;;;;;;;;;;;;;;;;;;;;;;;;;;;;;;;;;;;;;;;;;;
"C1413999";;;"Windows 7";"Rachel's Experiment (D.T.)";"1.0";"2";"1";"1";"2";"1";"1";"2014-10-15 16:49:57.488";"2014-10-15 17:03:31.045";"1";"1";"1";"79";"78";"module.training_block2.exec-1616.GoNoGo2";;;;;;;;;;;;;;;;;;;;;;;;;;;;;;;;;;;"1261";"2014-10-15 16:55:13.030";"ST_correctStop";"4";"0";"FINISHED";"NONE";"success";"0";"1";"2014-10-15 16:55:11.766";"1";;;;;;;;;;;;;;;;;;;;;;;;;;;;;;;;;;;;;;;;;;;;;
"C1413999";;;"Windows 7";"Rachel's Experiment (D.T.)";"1.0";"2";"1";"1";"2";"1";"1";"2014-10-15 16:49:57.488";"2014-10-15 17:03:31.045";"1";"1";"1";"80";"79";"module.training_block2.exec-1616.GoNoGo2";;;;;;;;;;;;;;;;;;;;;;;;;;;;;;;;;;;"1261";"2014-10-15 16:55:15.572";"ST_correctStop";"33";"0";"FINISHED";"NONE";"success";"0";"1";"2014-10-15 16:55:14.309";"3";;;;;;;;;;;;;;;;;;;;;;;;;;;;;;;;;;;;;;;;;;;;;
"C1413999";;;"Windows 7";"Rachel's Experiment (D.T.)";"1.0";"2";"1";"1";"2";"1";"1";"2014-10-15 16:49:57.488";"2014-10-15 17:03:31.045";"1";"1";"1";"81";"80";"module.training_block2.exec-1616.GoNoGo2";;;;;;;;;;;;;;;;;;;;;;;;;;;;;;;;;;;"1261";"2014-10-15 16:55:18.115";"NST_correctLoc";"34";"1";"FINISHED";"RIGHT";"success";"515";"0";"2014-10-15 16:55:16.852";"3";;;;;;;;;;;;;;;;;;;;;;;;;;;;;;;;;;;;;;;;;;;;;
"C1413999";;;"Windows 7";"Rachel's Experiment (D.T.)";"1.0";"2";"1";"1";"2";"1";"1";"2014-10-15 16:49:57.488";"2014-10-15 17:03:31.045";"1";"1";"1";"82";"81";"module.training_block2.exec-1616.GoNoGo2";;;;;;;;;;;;;;;;;;;;;;;;;;;;;;;;;;;"1261";"2014-10-15 16:55:20.658";"NST_correctLoc";"13";"1";"FINISHED";"RIGHT";"success";"516";"0";"2014-10-15 16:55:19.395";"2";;;;;;;;;;;;;;;;;;;;;;;;;;;;;;;;;;;;;;;;;;;;;
"C1413999";;;"Windows 7";"Rachel's Experiment (D.T.)";"1.0";"2";"1";"1";"2";"1";"1";"2014-10-15 16:49:57.488";"2014-10-15 17:03:31.045";"1";"1";"1";"83";"82";"module.training_block2.exec-1616.GoNoGo2";;;;;;;;;;;;;;;;;;;;;;;;;;;;;;;;;;;"1261";"2014-10-15 16:55:23.217";"NST_correctLoc";"21";"0";"FINISHED";"LEFT";"success";"414";"0";"2014-10-15 16:55:21.953";"3";;;;;;;;;;;;;;;;;;;;;;;;;;;;;;;;;;;;;;;;;;;;;
"C1413999";;;"Windows 7";"Rachel's Experiment (D.T.)";"1.0";"2";"1";"1";"2";"1";"1";"2014-10-15 16:49:57.488";"2014-10-15 17:03:31.045";"1";"1";"1";"84";"83";"module.training_block2.exec-1616.GoNoGo2";;;;;;;;;;;;;;;;;;;;;;;;;;;;;;;;;;;"1261";"2014-10-15 16:55:25.759";"NST_correctLoc";"15";"0";"FINISHED";"LEFT";"success";"383";"0";"2014-10-15 16:55:24.496";"2";;;;;;;;;;;;;;;;;;;;;;;;;;;;;;;;;;;;;;;;;;;;;
"C1413999";;;"Windows 7";"Rachel's Experiment (D.T.)";"1.0";"2";"1";"1";"2";"1";"1";"2014-10-15 16:49:57.488";"2014-10-15 17:03:31.045";"1";"1";"1";"85";"84";"module.training_block2.exec-1616.GoNoGo2";;;;;;;;;;;;;;;;;;;;;;;;;;;;;;;;;;;"1261";"2014-10-15 16:55:28.287";"ST_failedStop";"31";"0";"FINISHED";"LEFT";"failure";"424";"1";"2014-10-15 16:55:27.023";"3";;;;;;;;;;;;;;;;;;;;;;;;;;;;;;;;;;;;;;;;;;;;;
"C1413999";;;"Windows 7";"Rachel's Experiment (D.T.)";"1.0";"2";"1";"1";"2";"1";"1";"2014-10-15 16:49:57.488";"2014-10-15 17:03:31.045";"1";"1";"1";"86";"85";"module.training_block2.exec-1616.GoNoGo2";;;;;;;;;;;;;;;;;;;;;;;;;;;;;;;;;;;"1261";"2014-10-15 16:55:30.829";"ST_correctStop";"2";"1";"FINISHED";"NONE";"success";"0";"1";"2014-10-15 16:55:29.566";"1";;;;;;;;;;;;;;;;;;;;;;;;;;;;;;;;;;;;;;;;;;;;;
"C1413999";;;"Windows 7";"Rachel's Experiment (D.T.)";"1.0";"2";"1";"1";"2";"1";"1";"2014-10-15 16:49:57.488";"2014-10-15 17:03:31.045";"1";"1";"1";"87";"86";"module.training_block2.exec-1616.GoNoGo2";;;;;;;;;;;;;;;;;;;;;;;;;;;;;;;;;;;"1261";"2014-10-15 16:55:33.372";"ST_correctStop";"6";"1";"FINISHED";"NONE";"success";"0";"1";"2014-10-15 16:55:32.109";"1";;;;;;;;;;;;;;;;;;;;;;;;;;;;;;;;;;;;;;;;;;;;;
"C1413999";;;"Windows 7";"Rachel's Experiment (D.T.)";"1.0";"2";"1";"1";"2";"1";"1";"2014-10-15 16:49:57.488";"2014-10-15 17:03:31.045";"1";"1";"1";"88";"87";"module.training_block3.exec-4829.GoNoGo3";;;;;;;;;;;;;;;;;;;;;;;;;;;;;;;;;;;;;;;;;;;;;;;"1261";"2014-10-15 16:55:44.152";"NST_correctLoc";"18";"0";"FINISHED";"LEFT";"success";"470";"0";"2014-10-15 16:55:42.888";"3";;;;;;;;;;;;;;;;;;;;;;;;;;;;;;;;;
"C1413999";;;"Windows 7";"Rachel's Experiment (D.T.)";"1.0";"2";"1";"1";"2";"1";"1";"2014-10-15 16:49:57.488";"2014-10-15 17:03:31.045";"1";"1";"1";"89";"88";"module.training_block3.exec-4829.GoNoGo3";;;;;;;;;;;;;;;;;;;;;;;;;;;;;;;;;;;;;;;;;;;;;;;"1261";"2014-10-15 16:55:46.695";"NST_correctLoc";"11";"1";"FINISHED";"RIGHT";"success";"559";"0";"2014-10-15 16:55:45.431";"2";;;;;;;;;;;;;;;;;;;;;;;;;;;;;;;;;
"C1413999";;;"Windows 7";"Rachel's Experiment (D.T.)";"1.0";"2";"1";"1";"2";"1";"1";"2014-10-15 16:49:57.488";"2014-10-15 17:03:31.045";"1";"1";"1";"90";"89";"module.training_block3.exec-4829.GoNoGo3";;;;;;;;;;;;;;;;;;;;;;;;;;;;;;;;;;;;;;;;;;;;;;;"1261";"2014-10-15 16:55:49.237";"ST_failedStop";"7";"1";"FINISHED";"RIGHT";"failure";"473";"1";"2014-10-15 16:55:47.974";"1";;;;;;;;;;;;;;;;;;;;;;;;;;;;;;;;;
"C1413999";;;"Windows 7";"Rachel's Experiment (D.T.)";"1.0";"2";"1";"1";"2";"1";"1";"2014-10-15 16:49:57.488";"2014-10-15 17:03:31.045";"1";"1";"1";"91";"90";"module.training_block3.exec-4829.GoNoGo3";;;;;;;;;;;;;;;;;;;;;;;;;;;;;;;;;;;;;;;;;;;;;;;"1261";"2014-10-15 16:55:51.780";"ST_correctStop";"8";"0";"FINISHED";"NONE";"success";"0";"1";"2014-10-15 16:55:50.517";"1";;;;;;;;;;;;;;;;;;;;;;;;;;;;;;;;;
"C1413999";;;"Windows 7";"Rachel's Experiment (D.T.)";"1.0";"2";"1";"1";"2";"1";"1";"2014-10-15 16:49:57.488";"2014-10-15 17:03:31.045";"1";"1";"1";"92";"91";"module.training_block3.exec-4829.GoNoGo3";;;;;;;;;;;;;;;;;;;;;;;;;;;;;;;;;;;;;;;;;;;;;;;"1261";"2014-10-15 16:55:54.323";"NST_correctLoc";"21";"1";"FINISHED";"RIGHT";"success";"635";"0";"2014-10-15 16:55:53.059";"3";;;;;;;;;;;;;;;;;;;;;;;;;;;;;;;;;
"C1413999";;;"Windows 7";"Rachel's Experiment (D.T.)";"1.0";"2";"1";"1";"2";"1";"1";"2014-10-15 16:49:57.488";"2014-10-15 17:03:31.045";"1";"1";"1";"93";"92";"module.training_block3.exec-4829.GoNoGo3";;;;;;;;;;;;;;;;;;;;;;;;;;;;;;;;;;;;;;;;;;;;;;;"1261";"2014-10-15 16:55:56.850";"ST_correctStop";"19";"0";"FINISHED";"NONE";"success";"0";"1";"2014-10-15 16:55:55.587";"3";;;;;;;;;;;;;;;;;;;;;;;;;;;;;;;;;
"C1413999";;;"Windows 7";"Rachel's Experiment (D.T.)";"1.0";"2";"1";"1";"2";"1";"1";"2014-10-15 16:49:57.488";"2014-10-15 17:03:31.045";"1";"1";"1";"94";"93";"module.training_block3.exec-4829.GoNoGo3";;;;;;;;;;;;;;;;;;;;;;;;;;;;;;;;;;;;;;;;;;;;;;;"1261";"2014-10-15 16:55:59.393";"NST_correctLoc";"12";"1";"FINISHED";"RIGHT";"success";"581";"0";"2014-10-15 16:55:58.129";"2";;;;;;;;;;;;;;;;;;;;;;;;;;;;;;;;;
"C1413999";;;"Windows 7";"Rachel's Experiment (D.T.)";"1.0";"2";"1";"1";"2";"1";"1";"2014-10-15 16:49:57.488";"2014-10-15 17:03:31.045";"1";"1";"1";"95";"94";"module.training_block3.exec-4829.GoNoGo3";;;;;;;;;;;;;;;;;;;;;;;;;;;;;;;;;;;;;;;;;;;;;;;"1261";"2014-10-15 16:56:01.936";"NST_correctLoc";"20";"0";"FINISHED";"LEFT";"success";"566";"0";"2014-10-15 16:56:00.672";"3";;;;;;;;;;;;;;;;;;;;;;;;;;;;;;;;;
"C1413999";;;"Windows 7";"Rachel's Experiment (D.T.)";"1.0";"2";"1";"1";"2";"1";"1";"2014-10-15 16:49:57.488";"2014-10-15 17:03:31.045";"1";"1";"1";"96";"95";"module.training_block3.exec-4829.GoNoGo3";;;;;;;;;;;;;;;;;;;;;;;;;;;;;;;;;;;;;;;;;;;;;;;"1261";"2014-10-15 16:56:04.463";"NST_correctLoc";"30";"1";"FINISHED";"RIGHT";"success";"679";"0";"2014-10-15 16:56:03.199";"3";;;;;;;;;;;;;;;;;;;;;;;;;;;;;;;;;
"C1413999";;;"Windows 7";"Rachel's Experiment (D.T.)";"1.0";"2";"1";"1";"2";"1";"1";"2014-10-15 16:49:57.488";"2014-10-15 17:03:31.045";"1";"1";"1";"97";"96";"module.training_block3.exec-4829.GoNoGo3";;;;;;;;;;;;;;;;;;;;;;;;;;;;;;;;;;;;;;;;;;;;;;;"1261";"2014-10-15 16:56:07.006";"ST_correctStop";"4";"1";"FINISHED";"NONE";"success";"0";"1";"2014-10-15 16:56:05.742";"1";;;;;;;;;;;;;;;;;;;;;;;;;;;;;;;;;
"C1413999";;;"Windows 7";"Rachel's Experiment (D.T.)";"1.0";"2";"1";"1";"2";"1";"1";"2014-10-15 16:49:57.488";"2014-10-15 17:03:31.045";"1";"1";"1";"98";"97";"module.training_block3.exec-4829.GoNoGo3";;;;;;;;;;;;;;;;;;;;;;;;;;;;;;;;;;;;;;;;;;;;;;;"1261";"2014-10-15 16:56:09.549";"NST_correctLoc";"16";"1";"FINISHED";"RIGHT";"success";"561";"0";"2014-10-15 16:56:08.285";"2";;;;;;;;;;;;;;;;;;;;;;;;;;;;;;;;;
"C1413999";;;"Windows 7";"Rachel's Experiment (D.T.)";"1.0";"2";"1";"1";"2";"1";"1";"2014-10-15 16:49:57.488";"2014-10-15 17:03:31.045";"1";"1";"1";"99";"98";"module.training_block3.exec-4829.GoNoGo3";;;;;;;;;;;;;;;;;;;;;;;;;;;;;;;;;;;;;;;;;;;;;;;"1261";"2014-10-15 16:56:12.091";"ST_correctStop";"28";"1";"FINISHED";"NONE";"success";"0";"1";"2014-10-15 16:56:10.828";"3";;;;;;;;;;;;;;;;;;;;;;;;;;;;;;;;;
"C1413999";;;"Windows 7";"Rachel's Experiment (D.T.)";"1.0";"2";"1";"1";"2";"1";"1";"2014-10-15 16:49:57.488";"2014-10-15 17:03:31.045";"1";"1";"1";"100";"99";"module.training_block3.exec-4829.GoNoGo3";;;;;;;;;;;;;;;;;;;;;;;;;;;;;;;;;;;;;;;;;;;;;;;"1261";"2014-10-15 16:56:14.634";"ST_correctStop";"3";"1";"FINISHED";"NONE";"success";"0";"1";"2014-10-15 16:56:13.371";"1";;;;;;;;;;;;;;;;;;;;;;;;;;;;;;;;;
"C1413999";;;"Windows 7";"Rachel's Experiment (D.T.)";"1.0";"2";"1";"1";"2";"1";"1";"2014-10-15 16:49:57.488";"2014-10-15 17:03:31.045";"1";"1";"1";"101";"100";"module.training_block3.exec-4829.GoNoGo3";;;;;;;;;;;;;;;;;;;;;;;;;;;;;;;;;;;;;;;;;;;;;;;"1261";"2014-10-15 16:56:17.177";"ST_correctStop";"1";"0";"FINISHED";"NONE";"success";"0";"1";"2014-10-15 16:56:15.913";"1";;;;;;;;;;;;;;;;;;;;;;;;;;;;;;;;;
"C1413999";;;"Windows 7";"Rachel's Experiment (D.T.)";"1.0";"2";"1";"1";"2";"1";"1";"2014-10-15 16:49:57.488";"2014-10-15 17:03:31.045";"1";"1";"1";"102";"101";"module.training_block3.exec-4829.GoNoGo3";;;;;;;;;;;;;;;;;;;;;;;;;;;;;;;;;;;;;;;;;;;;;;;"1261";"2014-10-15 16:56:19.720";"ST_correctStop";"6";"1";"FINISHED";"NONE";"success";"0";"1";"2014-10-15 16:56:18.456";"1";;;;;;;;;;;;;;;;;;;;;;;;;;;;;;;;;
"C1413999";;;"Windows 7";"Rachel's Experiment (D.T.)";"1.0";"2";"1";"1";"2";"1";"1";"2014-10-15 16:49:57.488";"2014-10-15 17:03:31.045";"1";"1";"1";"103";"102";"module.training_block3.exec-4829.GoNoGo3";;;;;;;;;;;;;;;;;;;;;;;;;;;;;;;;;;;;;;;;;;;;;;;"1261";"2014-10-15 16:56:22.263";"ST_correctStop";"2";"0";"FINISHED";"NONE";"success";"0";"1";"2014-10-15 16:56:20.999";"1";;;;;;;;;;;;;;;;;;;;;;;;;;;;;;;;;
"C1413999";;;"Windows 7";"Rachel's Experiment (D.T.)";"1.0";"2";"1";"1";"2";"1";"1";"2014-10-15 16:49:57.488";"2014-10-15 17:03:31.045";"1";"1";"1";"104";"103";"module.training_block3.exec-4829.GoNoGo3";;;;;;;;;;;;;;;;;;;;;;;;;;;;;;;;;;;;;;;;;;;;;;;"1262";"2014-10-15 16:56:24.805";"NST_correctLoc";"14";"0";"FINISHED";"LEFT";"success";"576";"0";"2014-10-15 16:56:23.542";"2";;;;;;;;;;;;;;;;;;;;;;;;;;;;;;;;;
"C1413999";;;"Windows 7";"Rachel's Experiment (D.T.)";"1.0";"2";"1";"1";"2";"1";"1";"2014-10-15 16:49:57.488";"2014-10-15 17:03:31.045";"1";"1";"1";"105";"104";"module.training_block3.exec-4829.GoNoGo3";;;;;;;;;;;;;;;;;;;;;;;;;;;;;;;;;;;;;;;;;;;;;;;"1262";"2014-10-15 16:56:27.333";"ST_correctStop";"33";"1";"FINISHED";"NONE";"success";"0";"1";"2014-10-15 16:56:26.069";"3";;;;;;;;;;;;;;;;;;;;;;;;;;;;;;;;;
"C1413999";;;"Windows 7";"Rachel's Experiment (D.T.)";"1.0";"2";"1";"1";"2";"1";"1";"2014-10-15 16:49:57.488";"2014-10-15 17:03:31.045";"1";"1";"1";"106";"105";"module.training_block3.exec-4829.GoNoGo3";;;;;;;;;;;;;;;;;;;;;;;;;;;;;;;;;;;;;;;;;;;;;;;"1262";"2014-10-15 16:56:29.875";"ST_correctStop";"34";"1";"FINISHED";"NONE";"success";"0";"1";"2014-10-15 16:56:28.612";"3";;;;;;;;;;;;;;;;;;;;;;;;;;;;;;;;;
"C1413999";;;"Windows 7";"Rachel's Experiment (D.T.)";"1.0";"2";"1";"1";"2";"1";"1";"2014-10-15 16:49:57.488";"2014-10-15 17:03:31.045";"1";"1";"1";"107";"106";"module.training_block3.exec-4829.GoNoGo3";;;;;;;;;;;;;;;;;;;;;;;;;;;;;;;;;;;;;;;;;;;;;;;"1261";"2014-10-15 16:56:32.418";"NST_correctLoc";"24";"0";"FINISHED";"LEFT";"success";"603";"0";"2014-10-15 16:56:31.155";"3";;;;;;;;;;;;;;;;;;;;;;;;;;;;;;;;;
"C1413999";;;"Windows 7";"Rachel's Experiment (D.T.)";"1.0";"2";"1";"1";"2";"1";"1";"2014-10-15 16:49:57.488";"2014-10-15 17:03:31.045";"1";"1";"1";"108";"107";"module.training_block3.exec-4829.GoNoGo3";;;;;;;;;;;;;;;;;;;;;;;;;;;;;;;;;;;;;;;;;;;;;;;"1261";"2014-10-15 16:56:34.961";"NST_correctLoc";"23";"1";"FINISHED";"RIGHT";"success";"677";"0";"2014-10-15 16:56:33.697";"3";;;;;;;;;;;;;;;;;;;;;;;;;;;;;;;;;
"C1413999";;;"Windows 7";"Rachel's Experiment (D.T.)";"1.0";"2";"1";"1";"2";"1";"1";"2014-10-15 16:49:57.488";"2014-10-15 17:03:31.045";"1";"1";"1";"109";"108";"module.training_block3.exec-4829.GoNoGo3";;;;;;;;;;;;;;;;;;;;;;;;;;;;;;;;;;;;;;;;;;;;;;;"1262";"2014-10-15 16:56:37.504";"ST_failedStop";"22";"0";"FINISHED";"LEFT";"failure";"614";"1";"2014-10-15 16:56:36.240";"3";;;;;;;;;;;;;;;;;;;;;;;;;;;;;;;;;
"C1413999";;;"Windows 7";"Rachel's Experiment (D.T.)";"1.0";"2";"1";"1";"2";"1";"1";"2014-10-15 16:49:57.488";"2014-10-15 17:03:31.045";"1";"1";"1";"110";"109";"module.training_block3.exec-4829.GoNoGo3";;;;;;;;;;;;;;;;;;;;;;;;;;;;;;;;;;;;;;;;;;;;;;;"1262";"2014-10-15 16:56:40.031";"ST_correctStop";"26";"0";"FINISHED";"NONE";"success";"0";"1";"2014-10-15 16:56:38.767";"3";;;;;;;;;;;;;;;;;;;;;;;;;;;;;;;;;
"C1413999";;;"Windows 7";"Rachel's Experiment (D.T.)";"1.0";"2";"1";"1";"2";"1";"1";"2014-10-15 16:49:57.488";"2014-10-15 17:03:31.045";"1";"1";"1";"111";"110";"module.training_block3.exec-4829.GoNoGo3";;;;;;;;;;;;;;;;;;;;;;;;;;;;;;;;;;;;;;;;;;;;;;;"1261";"2014-10-15 16:56:42.558";"NST_correctLoc";"17";"1";"FINISHED";"RIGHT";"success";"607";"0";"2014-10-15 16:56:41.295";"2";;;;;;;;;;;;;;;;;;;;;;;;;;;;;;;;;
"C1413999";;;"Windows 7";"Rachel's Experiment (D.T.)";"1.0";"2";"1";"1";"2";"1";"1";"2014-10-15 16:49:57.488";"2014-10-15 17:03:31.045";"1";"1";"1";"112";"111";"module.training_block3.exec-4829.GoNoGo3";;;;;;;;;;;;;;;;;;;;;;;;;;;;;;;;;;;;;;;;;;;;;;;"1262";"2014-10-15 16:56:45.101";"ST_correctStop";"27";"0";"FINISHED";"NONE";"success";"0";"1";"2014-10-15 16:56:43.837";"3";;;;;;;;;;;;;;;;;;;;;;;;;;;;;;;;;
"C1413999";;;"Windows 7";"Rachel's Experiment (D.T.)";"1.0";"2";"1";"1";"2";"1";"1";"2014-10-15 16:49:57.488";"2014-10-15 17:03:31.045";"1";"1";"1";"113";"112";"module.training_block3.exec-4829.GoNoGo3";;;;;;;;;;;;;;;;;;;;;;;;;;;;;;;;;;;;;;;;;;;;;;;"1261";"2014-10-15 16:56:47.644";"ST_correctStop";"29";"1";"FINISHED";"NONE";"success";"0";"1";"2014-10-15 16:56:46.380";"3";;;;;;;;;;;;;;;;;;;;;;;;;;;;;;;;;
"C1413999";;;"Windows 7";"Rachel's Experiment (D.T.)";"1.0";"2";"1";"1";"2";"1";"1";"2014-10-15 16:49:57.488";"2014-10-15 17:03:31.045";"1";"1";"1";"114";"113";"module.training_block3.exec-4829.GoNoGo3";;;;;;;;;;;;;;;;;;;;;;;;;;;;;;;;;;;;;;;;;;;;;;;"1262";"2014-10-15 16:56:50.187";"NST_correctLoc";"31";"0";"FINISHED";"LEFT";"success";"611";"0";"2014-10-15 16:56:48.923";"3";;;;;;;;;;;;;;;;;;;;;;;;;;;;;;;;;
"C1413999";;;"Windows 7";"Rachel's Experiment (D.T.)";"1.0";"2";"1";"1";"2";"1";"1";"2014-10-15 16:49:57.488";"2014-10-15 17:03:31.045";"1";"1";"1";"115";"114";"module.training_block3.exec-4829.GoNoGo3";;;;;;;;;;;;;;;;;;;;;;;;;;;;;;;;;;;;;;;;;;;;;;;"1261";"2014-10-15 16:56:52.714";"NST_correctLoc";"15";"1";"FINISHED";"RIGHT";"success";"444";"0";"2014-10-15 16:56:51.450";"2";;;;;;;;;;;;;;;;;;;;;;;;;;;;;;;;;
"C1413999";;;"Windows 7";"Rachel's Experiment (D.T.)";"1.0";"2";"1";"1";"2";"1";"1";"2014-10-15 16:49:57.488";"2014-10-15 17:03:31.045";"1";"1";"1";"116";"115";"module.training_block3.exec-4829.GoNoGo3";;;;;;;;;;;;;;;;;;;;;;;;;;;;;;;;;;;;;;;;;;;;;;;"1262";"2014-10-15 16:56:55.241";"NST_correctLoc";"32";"0";"FINISHED";"LEFT";"success";"420";"0";"2014-10-15 16:56:53.977";"3";;;;;;;;;;;;;;;;;;;;;;;;;;;;;;;;;
"C1413999";;;"Windows 7";"Rachel's Experiment (D.T.)";"1.0";"2";"1";"1";"2";"1";"1";"2014-10-15 16:49:57.488";"2014-10-15 17:03:31.045";"1";"1";"1";"117";"116";"module.training_block3.exec-4829.GoNoGo3";;;;;;;;;;;;;;;;;;;;;;;;;;;;;;;;;;;;;;;;;;;;;;;"1262";"2014-10-15 16:56:57.784";"ST_correctStop";"5";"1";"FINISHED";"NONE";"success";"0";"1";"2014-10-15 16:56:56.520";"1";;;;;;;;;;;;;;;;;;;;;;;;;;;;;;;;;
"C1413999";;;"Windows 7";"Rachel's Experiment (D.T.)";"1.0";"2";"1";"1";"2";"1";"1";"2014-10-15 16:49:57.488";"2014-10-15 17:03:31.045";"1";"1";"1";"118";"117";"module.training_block3.exec-4829.GoNoGo3";;;;;;;;;;;;;;;;;;;;;;;;;;;;;;;;;;;;;;;;;;;;;;;"1261";"2014-10-15 16:57:00.311";"NST_correctLoc";"13";"0";"FINISHED";"LEFT";"success";"638";"0";"2014-10-15 16:56:59.047";"2";;;;;;;;;;;;;;;;;;;;;;;;;;;;;;;;;
"C1413999";;;"Windows 7";"Rachel's Experiment (D.T.)";"1.0";"2";"1";"1";"2";"1";"1";"2014-10-15 16:49:57.488";"2014-10-15 17:03:31.045";"1";"1";"1";"119";"118";"module.training_block3.exec-4829.GoNoGo3";;;;;;;;;;;;;;;;;;;;;;;;;;;;;;;;;;;;;;;;;;;;;;;"1261";"2014-10-15 16:57:02.838";"NST_correctLoc";"35";"1";"FINISHED";"RIGHT";"success";"807";"0";"2014-10-15 16:57:01.575";"3";;;;;;;;;;;;;;;;;;;;;;;;;;;;;;;;;
"C1413999";;;"Windows 7";"Rachel's Experiment (D.T.)";"1.0";"2";"1";"1";"2";"1";"1";"2014-10-15 16:49:57.488";"2014-10-15 17:03:31.045";"1";"1";"1";"120";"119";"module.training_block3.exec-4829.GoNoGo3";;;;;;;;;;;;;;;;;;;;;;;;;;;;;;;;;;;;;;;;;;;;;;;"1262";"2014-10-15 16:57:05.365";"ST_failedStop";"25";"0";"FINISHED";"LEFT";"failure";"520";"1";"2014-10-15 16:57:04.102";"3";;;;;;;;;;;;;;;;;;;;;;;;;;;;;;;;;
"C1413999";;;"Windows 7";"Rachel's Experiment (D.T.)";"1.0";"2";"1";"1";"2";"1";"1";"2014-10-15 16:49:57.488";"2014-10-15 17:03:31.045";"1";"1";"1";"121";"120";"module.training_block3.exec-4829.GoNoGo3";;;;;;;;;;;;;;;;;;;;;;;;;;;;;;;;;;;;;;;;;;;;;;;"1261";"2014-10-15 16:57:07.893";"NST_correctLoc";"10";"1";"FINISHED";"RIGHT";"success";"465";"0";"2014-10-15 16:57:06.629";"2";;;;;;;;;;;;;;;;;;;;;;;;;;;;;;;;;
"C1413999";;;"Windows 7";"Rachel's Experiment (D.T.)";"1.0";"2";"1";"1";"2";"1";"1";"2014-10-15 16:49:57.488";"2014-10-15 17:03:31.045";"1";"1";"1";"122";"121";"module.training_block3.exec-4829.GoNoGo3";;;;;;;;;;;;;;;;;;;;;;;;;;;;;;;;;;;;;;;;;;;;;;;"1262";"2014-10-15 16:57:10.420";"ST_correctStop";"0";"0";"FINISHED";"NONE";"success";"0";"1";"2014-10-15 16:57:09.156";"1";;;;;;;;;;;;;;;;;;;;;;;;;;;;;;;;;
"C1413999";;;"Windows 7";"Rachel's Experiment (D.T.)";"1.0";"2";"1";"1";"2";"1";"1";"2014-10-15 16:49:57.488";"2014-10-15 17:03:31.045";"1";"1";"1";"123";"122";"module.training_block3.exec-4829.GoNoGo3";;;;;;;;;;;;;;;;;;;;;;;;;;;;;;;;;;;;;;;;;;;;;;;"1262";"2014-10-15 16:57:12.947";"NST_correctLoc";"9";"0";"FINISHED";"LEFT";"success";"498";"0";"2014-10-15 16:57:11.684";"2";;;;;;;;;;;;;;;;;;;;;;;;;;;;;;;;;
"C1413999";;;"Windows 7";"Rachel's Experiment (D.T.)";"1.0";"2";"1";"1";"2";"1";"1";"2014-10-15 16:49:57.488";"2014-10-15 17:03:31.045";"1";"1";"1";"124";"123";"module.training_block4.exec-5355.GoNoGo4";;;;;;;;;;;;;;;;;;;;;;;;;;;;;;;;;;;;;;;;;;;;;;;;;;;;;;;;;;;"1261";"2014-10-15 16:57:26.129";"ST_correctStop";"8";"1";"FINISHED";"NONE";"success";"0";"1";"2014-10-15 16:57:24.866";"1";;;;;;;;;;;;;;;;;;;;;
"C1413999";;;"Windows 7";"Rachel's Experiment (D.T.)";"1.0";"2";"1";"1";"2";"1";"1";"2014-10-15 16:49:57.488";"2014-10-15 17:03:31.045";"1";"1";"1";"125";"124";"module.training_block4.exec-5355.GoNoGo4";;;;;;;;;;;;;;;;;;;;;;;;;;;;;;;;;;;;;;;;;;;;;;;;;;;;;;;;;;;"1261";"2014-10-15 16:57:28.656";"NST_correctLoc";"12";"1";"FINISHED";"RIGHT";"success";"533";"0";"2014-10-15 16:57:27.393";"2";;;;;;;;;;;;;;;;;;;;;
"C1413999";;;"Windows 7";"Rachel's Experiment (D.T.)";"1.0";"2";"1";"1";"2";"1";"1";"2014-10-15 16:49:57.488";"2014-10-15 17:03:31.045";"1";"1";"1";"126";"125";"module.training_block4.exec-5355.GoNoGo4";;;;;;;;;;;;;;;;;;;;;;;;;;;;;;;;;;;;;;;;;;;;;;;;;;;;;;;;;;;"1262";"2014-10-15 16:57:31.215";"NST_correctLoc";"17";"0";"FINISHED";"LEFT";"success";"431";"0";"2014-10-15 16:57:29.951";"2";;;;;;;;;;;;;;;;;;;;;
"C1413999";;;"Windows 7";"Rachel's Experiment (D.T.)";"1.0";"2";"1";"1";"2";"1";"1";"2014-10-15 16:49:57.488";"2014-10-15 17:03:31.045";"1";"1";"1";"127";"126";"module.training_block4.exec-5355.GoNoGo4";;;;;;;;;;;;;;;;;;;;;;;;;;;;;;;;;;;;;;;;;;;;;;;;;;;;;;;;;;;"1262";"2014-10-15 16:57:33.742";"ST_correctStop";"27";"0";"FINISHED";"NONE";"success";"0";"1";"2014-10-15 16:57:32.478";"3";;;;;;;;;;;;;;;;;;;;;
"C1413999";;;"Windows 7";"Rachel's Experiment (D.T.)";"1.0";"2";"1";"1";"2";"1";"1";"2014-10-15 16:49:57.488";"2014-10-15 17:03:31.045";"1";"1";"1";"128";"127";"module.training_block4.exec-5355.GoNoGo4";;;;;;;;;;;;;;;;;;;;;;;;;;;;;;;;;;;;;;;;;;;;;;;;;;;;;;;;;;;"1262";"2014-10-15 16:57:36.285";"ST_correctStop";"19";"0";"FINISHED";"NONE";"success";"0";"1";"2014-10-15 16:57:35.021";"3";;;;;;;;;;;;;;;;;;;;;
"C1413999";;;"Windows 7";"Rachel's Experiment (D.T.)";"1.0";"2";"1";"1";"2";"1";"1";"2014-10-15 16:49:57.488";"2014-10-15 17:03:31.045";"1";"1";"1";"129";"128";"module.training_block4.exec-5355.GoNoGo4";;;;;;;;;;;;;;;;;;;;;;;;;;;;;;;;;;;;;;;;;;;;;;;;;;;;;;;;;;;"1257";"2014-10-15 16:57:38.812";"NST_correctLoc";"24";"0";"FINISHED";"LEFT";"success";"637";"0";"2014-10-15 16:57:37.548";"3";;;;;;;;;;;;;;;;;;;;;
"C1413999";;;"Windows 7";"Rachel's Experiment (D.T.)";"1.0";"2";"1";"1";"2";"1";"1";"2014-10-15 16:49:57.488";"2014-10-15 17:03:31.045";"1";"1";"1";"130";"129";"module.training_block4.exec-5355.GoNoGo4";;;;;;;;;;;;;;;;;;;;;;;;;;;;;;;;;;;;;;;;;;;;;;;;;;;;;;;;;;;"1262";"2014-10-15 16:57:41.339";"ST_correctStop";"5";"1";"FINISHED";"NONE";"success";"0";"1";"2014-10-15 16:57:40.076";"1";;;;;;;;;;;;;;;;;;;;;
"C1413999";;;"Windows 7";"Rachel's Experiment (D.T.)";"1.0";"2";"1";"1";"2";"1";"1";"2014-10-15 16:49:57.488";"2014-10-15 17:03:31.045";"1";"1";"1";"131";"130";"module.training_block4.exec-5355.GoNoGo4";;;;;;;;;;;;;;;;;;;;;;;;;;;;;;;;;;;;;;;;;;;;;;;;;;;;;;;;;;;"1262";"2014-10-15 16:57:43.898";"ST_correctStop";"31";"1";"FINISHED";"NONE";"success";"0";"1";"2014-10-15 16:57:42.634";"3";;;;;;;;;;;;;;;;;;;;;
"C1413999";;;"Windows 7";"Rachel's Experiment (D.T.)";"1.0";"2";"1";"1";"2";"1";"1";"2014-10-15 16:49:57.488";"2014-10-15 17:03:31.045";"1";"1";"1";"132";"131";"module.training_block4.exec-5355.GoNoGo4";;;;;;;;;;;;;;;;;;;;;;;;;;;;;;;;;;;;;;;;;;;;;;;;;;;;;;;;;;;"1262";"2014-10-15 16:57:46.425";"NST_correctLoc";"26";"0";"FINISHED";"LEFT";"success";"540";"0";"2014-10-15 16:57:45.161";"3";;;;;;;;;;;;;;;;;;;;;
"C1413999";;;"Windows 7";"Rachel's Experiment (D.T.)";"1.0";"2";"1";"1";"2";"1";"1";"2014-10-15 16:49:57.488";"2014-10-15 17:03:31.045";"1";"1";"1";"133";"132";"module.training_block4.exec-5355.GoNoGo4";;;;;;;;;;;;;;;;;;;;;;;;;;;;;;;;;;;;;;;;;;;;;;;;;;;;;;;;;;;"1261";"2014-10-15 16:57:48.968";"ST_correctStop";"4";"1";"FINISHED";"NONE";"success";"0";"1";"2014-10-15 16:57:47.704";"1";;;;;;;;;;;;;;;;;;;;;
"C1413999";;;"Windows 7";"Rachel's Experiment (D.T.)";"1.0";"2";"1";"1";"2";"1";"1";"2014-10-15 16:49:57.488";"2014-10-15 17:03:31.045";"1";"1";"1";"134";"133";"module.training_block4.exec-5355.GoNoGo4";;;;;;;;;;;;;;;;;;;;;;;;;;;;;;;;;;;;;;;;;;;;;;;;;;;;;;;;;;;"1261";"2014-10-15 16:57:51.495";"ST_correctStop";"32";"1";"FINISHED";"NONE";"success";"0";"1";"2014-10-15 16:57:50.231";"3";;;;;;;;;;;;;;;;;;;;;
"C1413999";;;"Windows 7";"Rachel's Experiment (D.T.)";"1.0";"2";"1";"1";"2";"1";"1";"2014-10-15 16:49:57.488";"2014-10-15 17:03:31.045";"1";"1";"1";"135";"134";"module.training_block4.exec-5355.GoNoGo4";;;;;;;;;;;;;;;;;;;;;;;;;;;;;;;;;;;;;;;;;;;;;;;;;;;;;;;;;;;"1262";"2014-10-15 16:57:54.022";"NST_correctLoc";"9";"1";"FINISHED";"RIGHT";"success";"463";"0";"2014-10-15 16:57:52.758";"2";;;;;;;;;;;;;;;;;;;;;
"C1413999";;;"Windows 7";"Rachel's Experiment (D.T.)";"1.0";"2";"1";"1";"2";"1";"1";"2014-10-15 16:49:57.488";"2014-10-15 17:03:31.045";"1";"1";"1";"136";"135";"module.training_block4.exec-5355.GoNoGo4";;;;;;;;;;;;;;;;;;;;;;;;;;;;;;;;;;;;;;;;;;;;;;;;;;;;;;;;;;;"1262";"2014-10-15 16:57:56.549";"NST_correctLoc";"11";"1";"FINISHED";"RIGHT";"success";"504";"0";"2014-10-15 16:57:55.286";"2";;;;;;;;;;;;;;;;;;;;;
"C1413999";;;"Windows 7";"Rachel's Experiment (D.T.)";"1.0";"2";"1";"1";"2";"1";"1";"2014-10-15 16:49:57.488";"2014-10-15 17:03:31.045";"1";"1";"1";"137";"136";"module.training_block4.exec-5355.GoNoGo4";;;;;;;;;;;;;;;;;;;;;;;;;;;;;;;;;;;;;;;;;;;;;;;;;;;;;;;;;;;"1262";"2014-10-15 16:57:59.076";"ST_correctStop";"2";"1";"FINISHED";"NONE";"success";"0";"1";"2014-10-15 16:57:57.813";"1";;;;;;;;;;;;;;;;;;;;;
"C1413999";;;"Windows 7";"Rachel's Experiment (D.T.)";"1.0";"2";"1";"1";"2";"1";"1";"2014-10-15 16:49:57.488";"2014-10-15 17:03:31.045";"1";"1";"1";"138";"137";"module.training_block4.exec-5355.GoNoGo4";;;;;;;;;;;;;;;;;;;;;;;;;;;;;;;;;;;;;;;;;;;;;;;;;;;;;;;;;;;"1261";"2014-10-15 16:58:01.604";"NST_correctLoc";"14";"0";"FINISHED";"LEFT";"success";"553";"0";"2014-10-15 16:58:00.340";"2";;;;;;;;;;;;;;;;;;;;;
"C1413999";;;"Windows 7";"Rachel's Experiment (D.T.)";"1.0";"2";"1";"1";"2";"1";"1";"2014-10-15 16:49:57.488";"2014-10-15 17:03:31.045";"1";"1";"1";"139";"138";"module.training_block4.exec-5355.GoNoGo4";;;;;;;;;;;;;;;;;;;;;;;;;;;;;;;;;;;;;;;;;;;;;;;;;;;;;;;;;;;"1262";"2014-10-15 16:58:04.131";"ST_correctStop";"7";"1";"FINISHED";"NONE";"success";"0";"1";"2014-10-15 16:58:02.867";"1";;;;;;;;;;;;;;;;;;;;;
"C1413999";;;"Windows 7";"Rachel's Experiment (D.T.)";"1.0";"2";"1";"1";"2";"1";"1";"2014-10-15 16:49:57.488";"2014-10-15 17:03:31.045";"1";"1";"1";"140";"139";"module.training_block4.exec-5355.GoNoGo4";;;;;;;;;;;;;;;;;;;;;;;;;;;;;;;;;;;;;;;;;;;;;;;;;;;;;;;;;;;"1262";"2014-10-15 16:58:06.658";"ST_correctStop";"0";"1";"FINISHED";"NONE";"success";"0";"1";"2014-10-15 16:58:05.394";"1";;;;;;;;;;;;;;;;;;;;;
"C1413999";;;"Windows 7";"Rachel's Experiment (D.T.)";"1.0";"2";"1";"1";"2";"1";"1";"2014-10-15 16:49:57.488";"2014-10-15 17:03:31.045";"1";"1";"1";"141";"140";"module.training_block4.exec-5355.GoNoGo4";;;;;;;;;;;;;;;;;;;;;;;;;;;;;;;;;;;;;;;;;;;;;;;;;;;;;;;;;;;"1261";"2014-10-15 16:58:09.201";"ST_correctStop";"34";"1";"FINISHED";"NONE";"success";"0";"1";"2014-10-15 16:58:07.937";"3";;;;;;;;;;;;;;;;;;;;;
"C1413999";;;"Windows 7";"Rachel's Experiment (D.T.)";"1.0";"2";"1";"1";"2";"1";"1";"2014-10-15 16:49:57.488";"2014-10-15 17:03:31.045";"1";"1";"1";"142";"141";"module.training_block4.exec-5355.GoNoGo4";;;;;;;;;;;;;;;;;;;;;;;;;;;;;;;;;;;;;;;;;;;;;;;;;;;;;;;;;;;"1262";"2014-10-15 16:58:11.728";"ST_correctStop";"33";"0";"FINISHED";"NONE";"success";"0";"1";"2014-10-15 16:58:10.464";"3";;;;;;;;;;;;;;;;;;;;;
"C1413999";;;"Windows 7";"Rachel's Experiment (D.T.)";"1.0";"2";"1";"1";"2";"1";"1";"2014-10-15 16:49:57.488";"2014-10-15 17:03:31.045";"1";"1";"1";"143";"142";"module.training_block4.exec-5355.GoNoGo4";;;;;;;;;;;;;;;;;;;;;;;;;;;;;;;;;;;;;;;;;;;;;;;;;;;;;;;;;;;"1261";"2014-10-15 16:58:14.255";"NST_correctLoc";"23";"1";"FINISHED";"RIGHT";"success";"510";"0";"2014-10-15 16:58:12.992";"3";;;;;;;;;;;;;;;;;;;;;
"C1413999";;;"Windows 7";"Rachel's Experiment (D.T.)";"1.0";"2";"1";"1";"2";"1";"1";"2014-10-15 16:49:57.488";"2014-10-15 17:03:31.045";"1";"1";"1";"144";"143";"module.training_block4.exec-5355.GoNoGo4";;;;;;;;;;;;;;;;;;;;;;;;;;;;;;;;;;;;;;;;;;;;;;;;;;;;;;;;;;;"1261";"2014-10-15 16:58:16.782";"ST_correctStop";"6";"1";"FINISHED";"NONE";"success";"0";"1";"2014-10-15 16:58:15.519";"1";;;;;;;;;;;;;;;;;;;;;
"C1413999";;;"Windows 7";"Rachel's Experiment (D.T.)";"1.0";"2";"1";"1";"2";"1";"1";"2014-10-15 16:49:57.488";"2014-10-15 17:03:31.045";"1";"1";"1";"145";"144";"module.training_block4.exec-5355.GoNoGo4";;;;;;;;;;;;;;;;;;;;;;;;;;;;;;;;;;;;;;;;;;;;;;;;;;;;;;;;;;;"1261";"2014-10-15 16:58:19.310";"NST_correctLoc";"15";"0";"FINISHED";"LEFT";"success";"439";"0";"2014-10-15 16:58:18.046";"2";;;;;;;;;;;;;;;;;;;;;
"C1413999";;;"Windows 7";"Rachel's Experiment (D.T.)";"1.0";"2";"1";"1";"2";"1";"1";"2014-10-15 16:49:57.488";"2014-10-15 17:03:31.045";"1";"1";"1";"146";"145";"module.training_block4.exec-5355.GoNoGo4";;;;;;;;;;;;;;;;;;;;;;;;;;;;;;;;;;;;;;;;;;;;;;;;;;;;;;;;;;;"1262";"2014-10-15 16:58:21.837";"NST_correctLoc";"21";"0";"FINISHED";"LEFT";"success";"432";"0";"2014-10-15 16:58:20.573";"3";;;;;;;;;;;;;;;;;;;;;
"C1413999";;;"Windows 7";"Rachel's Experiment (D.T.)";"1.0";"2";"1";"1";"2";"1";"1";"2014-10-15 16:49:57.488";"2014-10-15 17:03:31.045";"1";"1";"1";"147";"146";"module.training_block4.exec-5355.GoNoGo4";;;;;;;;;;;;;;;;;;;;;;;;;;;;;;;;;;;;;;;;;;;;;;;;;;;;;;;;;;;"1262";"2014-10-15 16:58:24.364";"NST_correctLoc";"28";"0";"FINISHED";"LEFT";"success";"377";"0";"2014-10-15 16:58:23.100";"3";;;;;;;;;;;;;;;;;;;;;
"C1413999";;;"Windows 7";"Rachel's Experiment (D.T.)";"1.0";"2";"1";"1";"2";"1";"1";"2014-10-15 16:49:57.488";"2014-10-15 17:03:31.045";"1";"1";"1";"148";"147";"module.training_block4.exec-5355.GoNoGo4";;;;;;;;;;;;;;;;;;;;;;;;;;;;;;;;;;;;;;;;;;;;;;;;;;;;;;;;;;;"1262";"2014-10-15 16:58:26.891";"NST_correctLoc";"13";"0";"FINISHED";"LEFT";"success";"458";"0";"2014-10-15 16:58:25.628";"2";;;;;;;;;;;;;;;;;;;;;
"C1413999";;;"Windows 7";"Rachel's Experiment (D.T.)";"1.0";"2";"1";"1";"2";"1";"1";"2014-10-15 16:49:57.488";"2014-10-15 17:03:31.045";"1";"1";"1";"149";"148";"module.training_block4.exec-5355.GoNoGo4";;;;;;;;;;;;;;;;;;;;;;;;;;;;;;;;;;;;;;;;;;;;;;;;;;;;;;;;;;;"1262";"2014-10-15 16:58:29.434";"NST_correctLoc";"20";"1";"FINISHED";"RIGHT";"success";"451";"0";"2014-10-15 16:58:28.170";"3";;;;;;;;;;;;;;;;;;;;;
"C1413999";;;"Windows 7";"Rachel's Experiment (D.T.)";"1.0";"2";"1";"1";"2";"1";"1";"2014-10-15 16:49:57.488";"2014-10-15 17:03:31.045";"1";"1";"1";"150";"149";"module.training_block4.exec-5355.GoNoGo4";;;;;;;;;;;;;;;;;;;;;;;;;;;;;;;;;;;;;;;;;;;;;;;;;;;;;;;;;;;"1262";"2014-10-15 16:58:31.961";"ST_correctStop";"35";"1";"FINISHED";"NONE";"success";"0";"1";"2014-10-15 16:58:30.698";"3";;;;;;;;;;;;;;;;;;;;;
"C1413999";;;"Windows 7";"Rachel's Experiment (D.T.)";"1.0";"2";"1";"1";"2";"1";"1";"2014-10-15 16:49:57.488";"2014-10-15 17:03:31.045";"1";"1";"1";"151";"150";"module.training_block4.exec-5355.GoNoGo4";;;;;;;;;;;;;;;;;;;;;;;;;;;;;;;;;;;;;;;;;;;;;;;;;;;;;;;;;;;"1262";"2014-10-15 16:58:34.488";"NST_correctLoc";"18";"0";"FINISHED";"LEFT";"success";"460";"0";"2014-10-15 16:58:33.225";"3";;;;;;;;;;;;;;;;;;;;;
"C1413999";;;"Windows 7";"Rachel's Experiment (D.T.)";"1.0";"2";"1";"1";"2";"1";"1";"2014-10-15 16:49:57.488";"2014-10-15 17:03:31.045";"1";"1";"1";"152";"151";"module.training_block4.exec-5355.GoNoGo4";;;;;;;;;;;;;;;;;;;;;;;;;;;;;;;;;;;;;;;;;;;;;;;;;;;;;;;;;;;"1262";"2014-10-15 16:58:37.016";"NST_correctLoc";"16";"1";"FINISHED";"RIGHT";"success";"421";"0";"2014-10-15 16:58:35.752";"2";;;;;;;;;;;;;;;;;;;;;
"C1413999";;;"Windows 7";"Rachel's Experiment (D.T.)";"1.0";"2";"1";"1";"2";"1";"1";"2014-10-15 16:49:57.488";"2014-10-15 17:03:31.045";"1";"1";"1";"153";"152";"module.training_block4.exec-5355.GoNoGo4";;;;;;;;;;;;;;;;;;;;;;;;;;;;;;;;;;;;;;;;;;;;;;;;;;;;;;;;;;;"1262";"2014-10-15 16:58:39.543";"NST_correctLoc";"25";"1";"FINISHED";"RIGHT";"success";"558";"0";"2014-10-15 16:58:38.279";"3";;;;;;;;;;;;;;;;;;;;;
"C1413999";;;"Windows 7";"Rachel's Experiment (D.T.)";"1.0";"2";"1";"1";"2";"1";"1";"2014-10-15 16:49:57.488";"2014-10-15 17:03:31.045";"1";"1";"1";"154";"153";"module.training_block4.exec-5355.GoNoGo4";;;;;;;;;;;;;;;;;;;;;;;;;;;;;;;;;;;;;;;;;;;;;;;;;;;;;;;;;;;"1262";"2014-10-15 16:58:42.070";"ST_failedStop";"30";"0";"FINISHED";"LEFT";"failure";"551";"1";"2014-10-15 16:58:40.806";"3";;;;;;;;;;;;;;;;;;;;;
"C1413999";;;"Windows 7";"Rachel's Experiment (D.T.)";"1.0";"2";"1";"1";"2";"1";"1";"2014-10-15 16:49:57.488";"2014-10-15 17:03:31.045";"1";"1";"1";"155";"154";"module.training_block4.exec-5355.GoNoGo4";;;;;;;;;;;;;;;;;;;;;;;;;;;;;;;;;;;;;;;;;;;;;;;;;;;;;;;;;;;"1262";"2014-10-15 16:58:44.613";"ST_correctStop";"29";"1";"FINISHED";"NONE";"success";"0";"1";"2014-10-15 16:58:43.349";"3";;;;;;;;;;;;;;;;;;;;;
"C1413999";;;"Windows 7";"Rachel's Experiment (D.T.)";"1.0";"2";"1";"1";"2";"1";"1";"2014-10-15 16:49:57.488";"2014-10-15 17:03:31.045";"1";"1";"1";"156";"155";"module.training_block4.exec-5355.GoNoGo4";;;;;;;;;;;;;;;;;;;;;;;;;;;;;;;;;;;;;;;;;;;;;;;;;;;;;;;;;;;"1262";"2014-10-15 16:58:47.140";"NST_correctLoc";"22";"0";"FINISHED";"LEFT";"success";"537";"0";"2014-10-15 16:58:45.876";"3";;;;;;;;;;;;;;;;;;;;;
"C1413999";;;"Windows 7";"Rachel's Experiment (D.T.)";"1.0";"2";"1";"1";"2";"1";"1";"2014-10-15 16:49:57.488";"2014-10-15 17:03:31.045";"1";"1";"1";"157";"156";"module.training_block4.exec-5355.GoNoGo4";;;;;;;;;;;;;;;;;;;;;;;;;;;;;;;;;;;;;;;;;;;;;;;;;;;;;;;;;;;"1262";"2014-10-15 16:58:49.683";"ST_correctStop";"1";"1";"FINISHED";"NONE";"success";"0";"1";"2014-10-15 16:58:48.419";"1";;;;;;;;;;;;;;;;;;;;;
"C1413999";;;"Windows 7";"Rachel's Experiment (D.T.)";"1.0";"2";"1";"1";"2";"1";"1";"2014-10-15 16:49:57.488";"2014-10-15 17:03:31.045";"1";"1";"1";"158";"157";"module.training_block4.exec-5355.GoNoGo4";;;;;;;;;;;;;;;;;;;;;;;;;;;;;;;;;;;;;;;;;;;;;;;;;;;;;;;;;;;"1262";"2014-10-15 16:58:52.210";"ST_correctStop";"3";"1";"FINISHED";"NONE";"success";"0";"1";"2014-10-15 16:58:50.946";"1";;;;;;;;;;;;;;;;;;;;;
"C1413999";;;"Windows 7";"Rachel's Experiment (D.T.)";"1.0";"2";"1";"1";"2";"1";"1";"2014-10-15 16:49:57.488";"2014-10-15 17:03:31.045";"1";"1";"1";"159";"158";"module.training_block4.exec-5355.GoNoGo4";;;;;;;;;;;;;;;;;;;;;;;;;;;;;;;;;;;;;;;;;;;;;;;;;;;;;;;;;;;"1262";"2014-10-15 16:58:54.737";"NST_correctLoc";"10";"1";"FINISHED";"RIGHT";"success";"611";"0";"2014-10-15 16:58:53.474";"2";;;;;;;;;;;;;;;;;;;;;
"C1413999";;;"Windows 7";"Rachel's Experiment (D.T.)";"1.0";"2";"1";"1";"2";"1";"1";"2014-10-15 16:49:57.488";"2014-10-15 17:03:31.045";"1";"1";"1";"160";"159";"module.devaluation_practice.exec-5380.devalPractice";;;;;;;;;;;;"12678";"2014-10-15 16:59:36.857";"0";"3";"5";"6";"4729";"1774";"3134";"2014-10-15 16:59:24.175";;;;;;;;;;;;;;;;;;;;;;;;;;;;;;;;;;;;;;;;;;;;;;;;;;;;;;;;;;;;;;;;;;;;;;
"C1413999";;;"Windows 7";"Rachel's Experiment (D.T.)";"1.0";"2";"1";"1";"2";"1";"1";"2014-10-15 16:49:57.488";"2014-10-15 17:03:31.045";"1";"1";"1";"161";"160";"module.devaluation_practice.exec-5380.devalPractice";;;;;;;;;;;;"10084";"2014-10-15 16:59:46.966";"1";"2";"4";"4";"2292";"2322";"2430";"2014-10-15 16:59:36.873";;;;;;;;;;;;;;;;;;;;;;;;;;;;;;;;;;;;;;;;;;;;;;;;;;;;;;;;;;;;;;;;;;;;;;
"C1413999";;;"Windows 7";"Rachel's Experiment (D.T.)";"1.0";"2";"1";"1";"2";"1";"1";"2014-10-15 16:49:57.488";"2014-10-15 17:03:31.045";"1";"1";"1";"162";"161";"module.devaluation_practice.exec-5380.devalPractice";;;;;;;;;;;;"8973";"2014-10-15 16:59:55.952";"2";"2";"1";"3";"1792";"1689";"2473";"2014-10-15 16:59:46.982";;;;;;;;;;;;;;;;;;;;;;;;;;;;;;;;;;;;;;;;;;;;;;;;;;;;;;;;;;;;;;;;;;;;;;
"C1413999";;;"Windows 7";"Rachel's Experiment (D.T.)";"1.0";"2";"1";"1";"2";"1";"1";"2014-10-15 16:49:57.488";"2014-10-15 17:03:31.045";"1";"1";"1";"163";"162";"module.devaluation_practice.exec-5380.devalPractice";;;;;;;;;;;;"10554";"2014-10-15 17:00:06.529";"3";"8";"9";"9";"2967";"1743";"2808";"2014-10-15 16:59:55.983";;;;;;;;;;;;;;;;;;;;;;;;;;;;;;;;;;;;;;;;;;;;;;;;;;;;;;;;;;;;;;;;;;;;;;
"C1413999";;;"Windows 7";"Rachel's Experiment (D.T.)";"1.0";"2";"1";"1";"2";"1";"1";"2014-10-15 16:49:57.488";"2014-10-15 17:03:31.045";"1";"1";"1";"164";"163";"module.devaluation_block1.exec-4337.deval1";"8230";"2014-10-15 17:00:19.211";"0";"3";"1";"2";"1879";"1997";"1325";"2014-10-15 17:00:10.975";"1";;;;;;;;;;;;;;;;;;;;;;;;;;;;;;;;;;;;;;;;;;;;;;;;;;;;;;;;;;;;;;;;;;;;;;;;;;;;;;;;
"C1413999";;;"Windows 7";"Rachel's Experiment (D.T.)";"1.0";"2";"1";"1";"2";"1";"1";"2014-10-15 16:49:57.488";"2014-10-15 17:03:31.045";"1";"1";"1";"165";"164";"module.devaluation_block1.exec-4337.deval1";"6333";"2014-10-15 17:00:25.561";"8";"3";"4";"2";"1060";"752";"1492";"2014-10-15 17:00:19.227";"1";;;;;;;;;;;;;;;;;;;;;;;;;;;;;;;;;;;;;;;;;;;;;;;;;;;;;;;;;;;;;;;;;;;;;;;;;;;;;;;;
"C1413999";;;"Windows 7";"Rachel's Experiment (D.T.)";"1.0";"2";"1";"1";"2";"1";"1";"2014-10-15 16:49:57.488";"2014-10-15 17:03:31.045";"1";"1";"1";"166";"165";"module.devaluation_block1.exec-4337.deval1";"7268";"2014-10-15 17:00:32.846";"2";"4";"4";"3";"1711";"1253";"1279";"2014-10-15 17:00:25.576";"1";;;;;;;;;;;;;;;;;;;;;;;;;;;;;;;;;;;;;;;;;;;;;;;;;;;;;;;;;;;;;;;;;;;;;;;;;;;;;;;;
"C1413999";;;"Windows 7";"Rachel's Experiment (D.T.)";"1.0";"2";"1";"1";"2";"1";"1";"2014-10-15 16:49:57.488";"2014-10-15 17:03:31.045";"1";"1";"1";"167";"166";"module.devaluation_block1.exec-4337.deval1";"6863";"2014-10-15 17:00:39.741";"16";"7";"7";"6";"1466";"1231";"1125";"2014-10-15 17:00:32.877";"2";;;;;;;;;;;;;;;;;;;;;;;;;;;;;;;;;;;;;;;;;;;;;;;;;;;;;;;;;;;;;;;;;;;;;;;;;;;;;;;;
"C1413999";;;"Windows 7";"Rachel's Experiment (D.T.)";"1.0";"2";"1";"1";"2";"1";"1";"2014-10-15 16:49:57.488";"2014-10-15 17:03:31.045";"1";"1";"1";"168";"167";"module.devaluation_block1.exec-4337.deval1";"7677";"2014-10-15 17:00:47.432";"3";"7";"7";"6";"1050";"1844";"1746";"2014-10-15 17:00:39.757";"1";;;;;;;;;;;;;;;;;;;;;;;;;;;;;;;;;;;;;;;;;;;;;;;;;;;;;;;;;;;;;;;;;;;;;;;;;;;;;;;;
"C1413999";;;"Windows 7";"Rachel's Experiment (D.T.)";"1.0";"2";"1";"1";"2";"1";"1";"2014-10-15 16:49:57.488";"2014-10-15 17:03:31.045";"1";"1";"1";"169";"168";"module.devaluation_block1.exec-4337.deval1";"9777";"2014-10-15 17:00:57.244";"24";"6";"2";"6";"4016";"1450";"1276";"2014-10-15 17:00:47.463";"3";;;;;;;;;;;;;;;;;;;;;;;;;;;;;;;;;;;;;;;;;;;;;;;;;;;;;;;;;;;;;;;;;;;;;;;;;;;;;;;;
"C1413999";;;"Windows 7";"Rachel's Experiment (D.T.)";"1.0";"2";"1";"1";"2";"1";"1";"2014-10-15 16:49:57.488";"2014-10-15 17:03:31.045";"1";"1";"1";"170";"169";"module.devaluation_block1.exec-4337.deval1";"10988";"2014-10-15 17:01:08.242";"10";"8";"9";"9";"2787";"2645";"2527";"2014-10-15 17:00:57.260";"2";;;;;;;;;;;;;;;;;;;;;;;;;;;;;;;;;;;;;;;;;;;;;;;;;;;;;;;;;;;;;;;;;;;;;;;;;;;;;;;;
"C1413999";;;"Windows 7";"Rachel's Experiment (D.T.)";"1.0";"2";"1";"1";"2";"1";"1";"2014-10-15 16:49:57.488";"2014-10-15 17:03:31.045";"1";"1";"1";"171";"170";"module.devaluation_block1.exec-4337.deval1";"8036";"2014-10-15 17:01:16.308";"9";"9";"8";"8";"1805";"1856";"1360";"2014-10-15 17:01:08.258";"2";;;;;;;;;;;;;;;;;;;;;;;;;;;;;;;;;;;;;;;;;;;;;;;;;;;;;;;;;;;;;;;;;;;;;;;;;;;;;;;;
"C1413999";;;"Windows 7";"Rachel's Experiment (D.T.)";"1.0";"2";"1";"1";"2";"1";"1";"2014-10-15 16:49:57.488";"2014-10-15 17:03:31.045";"1";"1";"1";"172";"171";"module.devaluation_block1.exec-4337.deval1";"6588";"2014-10-15 17:01:22.906";"23";"3";"3";"3";"1380";"992";"1188";"2014-10-15 17:01:16.323";"3";;;;;;;;;;;;;;;;;;;;;;;;;;;;;;;;;;;;;;;;;;;;;;;;;;;;;;;;;;;;;;;;;;;;;;;;;;;;;;;;
"C1413999";;;"Windows 7";"Rachel's Experiment (D.T.)";"1.0";"2";"1";"1";"2";"1";"1";"2014-10-15 16:49:57.488";"2014-10-15 17:03:31.045";"1";"1";"1";"173";"172";"module.devaluation_block1.exec-4337.deval1";"6086";"2014-10-15 17:01:29.022";"1";"3";"3";"3";"1213";"902";"961";"2014-10-15 17:01:22.922";"1";;;;;;;;;;;;;;;;;;;;;;;;;;;;;;;;;;;;;;;;;;;;;;;;;;;;;;;;;;;;;;;;;;;;;;;;;;;;;;;;
"C1413999";;;"Windows 7";"Rachel's Experiment (D.T.)";"1.0";"2";"1";"1";"2";"1";"1";"2014-10-15 16:49:57.488";"2014-10-15 17:03:31.045";"1";"1";"1";"174";"173";"module.devaluation_block1.exec-4337.deval1";"6968";"2014-10-15 17:01:36.010";"12";"2";"2";"2";"1762";"1077";"1100";"2014-10-15 17:01:29.037";"2";;;;;;;;;;;;;;;;;;;;;;;;;;;;;;;;;;;;;;;;;;;;;;;;;;;;;;;;;;;;;;;;;;;;;;;;;;;;;;;;
"C1413999";;;"Windows 7";"Rachel's Experiment (D.T.)";"1.0";"2";"1";"1";"2";"1";"1";"2014-10-15 16:49:57.488";"2014-10-15 17:03:31.045";"1";"1";"1";"175";"174";"module.devaluation_block1.exec-4337.deval1";"6253";"2014-10-15 17:01:42.282";"21";"8";"8";"8";"1293";"922";"1003";"2014-10-15 17:01:36.026";"3";;;;;;;;;;;;;;;;;;;;;;;;;;;;;;;;;;;;;;;;;;;;;;;;;;;;;;;;;;;;;;;;;;;;;;;;;;;;;;;;
"C1413999";;;"Windows 7";"Rachel's Experiment (D.T.)";"1.0";"2";"1";"1";"2";"1";"1";"2014-10-15 16:49:57.488";"2014-10-15 17:03:31.045";"1";"1";"1";"176";"175";"module.devaluation_block1.exec-4337.deval1";"5796";"2014-10-15 17:01:48.100";"19";"7";"7";"7";"1078";"779";"902";"2014-10-15 17:01:42.297";"3";;;;;;;;;;;;;;;;;;;;;;;;;;;;;;;;;;;;;;;;;;;;;;;;;;;;;;;;;;;;;;;;;;;;;;;;;;;;;;;;
"C1413999";;;"Windows 7";"Rachel's Experiment (D.T.)";"1.0";"2";"1";"1";"2";"1";"1";"2014-10-15 16:49:57.488";"2014-10-15 17:03:31.045";"1";"1";"1";"177";"176";"module.devaluation_block1.exec-4337.deval1";"6469";"2014-10-15 17:01:54.590";"7";"2";"2";"2";"1123";"1323";"981";"2014-10-15 17:01:48.116";"1";;;;;;;;;;;;;;;;;;;;;;;;;;;;;;;;;;;;;;;;;;;;;;;;;;;;;;;;;;;;;;;;;;;;;;;;;;;;;;;;
"C1413999";;;"Windows 7";"Rachel's Experiment (D.T.)";"1.0";"2";"1";"1";"2";"1";"1";"2014-10-15 16:49:57.488";"2014-10-15 17:03:31.045";"1";"1";"1";"178";"177";"module.devaluation_block1.exec-4337.deval1";"5362";"2014-10-15 17:01:59.972";"13";"6";"6";"6";"921";"779";"622";"2014-10-15 17:01:54.606";"2";;;;;;;;;;;;;;;;;;;;;;;;;;;;;;;;;;;;;;;;;;;;;;;;;;;;;;;;;;;;;;;;;;;;;;;;;;;;;;;;
"C1413999";;;"Windows 7";"Rachel's Experiment (D.T.)";"1.0";"2";"1";"1";"2";"1";"1";"2014-10-15 16:49:57.488";"2014-10-15 17:03:31.045";"1";"1";"1";"179";"178";"module.devaluation_block1.exec-4337.deval1";"7548";"2014-10-15 17:02:07.554";"20";"3";"1";"1";"1147";"1905";"1478";"2014-10-15 17:02:00.003";"3";;;;;;;;;;;;;;;;;;;;;;;;;;;;;;;;;;;;;;;;;;;;;;;;;;;;;;;;;;;;;;;;;;;;;;;;;;;;;;;;
"C1413999";;;"Windows 7";"Rachel's Experiment (D.T.)";"1.0";"2";"1";"1";"2";"1";"1";"2014-10-15 16:49:57.488";"2014-10-15 17:03:31.045";"1";"1";"1";"180";"179";"module.devaluation_block1.exec-4337.deval1";"10751";"2014-10-15 17:02:18.333";"4";"3";"2";"3";"3750";"1020";"2947";"2014-10-15 17:02:07.585";"1";;;;;;;;;;;;;;;;;;;;;;;;;;;;;;;;;;;;;;;;;;;;;;;;;;;;;;;;;;;;;;;;;;;;;;;;;;;;;;;;
"C1413999";;;"Windows 7";"Rachel's Experiment (D.T.)";"1.0";"2";"1";"1";"2";"1";"1";"2014-10-15 16:49:57.488";"2014-10-15 17:03:31.045";"1";"1";"1";"181";"180";"module.devaluation_block1.exec-4337.deval1";"8756";"2014-10-15 17:02:27.116";"18";"9";"9";"9";"1986";"1247";"2506";"2014-10-15 17:02:18.349";"3";;;;;;;;;;;;;;;;;;;;;;;;;;;;;;;;;;;;;;;;;;;;;;;;;;;;;;;;;;;;;;;;;;;;;;;;;;;;;;;;
"C1413999";;;"Windows 7";"Rachel's Experiment (D.T.)";"1.0";"2";"1";"1";"2";"1";"1";"2014-10-15 16:49:57.488";"2014-10-15 17:03:31.045";"1";"1";"1";"182";"181";"module.devaluation_block1.exec-4337.deval1";"6926";"2014-10-15 17:02:34.058";"15";"8";"8";"8";"2027";"859";"996";"2014-10-15 17:02:27.132";"2";;;;;;;;;;;;;;;;;;;;;;;;;;;;;;;;;;;;;;;;;;;;;;;;;;;;;;;;;;;;;;;;;;;;;;;;;;;;;;;;
"C1413999";;;"Windows 7";"Rachel's Experiment (D.T.)";"1.0";"2";"1";"1";"2";"1";"1";"2014-10-15 16:49:57.488";"2014-10-15 17:03:31.045";"1";"1";"1";"183";"182";"module.devaluation_block1.exec-4337.deval1";"5245";"2014-10-15 17:02:39.315";"5";"6";"6";"6";"893";"585";"745";"2014-10-15 17:02:34.074";"1";;;;;;;;;;;;;;;;;;;;;;;;;;;;;;;;;;;;;;;;;;;;;;;;;;;;;;;;;;;;;;;;;;;;;;;;;;;;;;;;
"C1413999";;;"Windows 7";"Rachel's Experiment (D.T.)";"1.0";"2";"1";"1";"2";"1";"1";"2014-10-15 16:49:57.488";"2014-10-15 17:03:31.045";"1";"1";"1";"184";"183";"module.devaluation_block1.exec-4337.deval1";"7301";"2014-10-15 17:02:46.632";"25";"1";"1";"1";"1964";"1072";"1243";"2014-10-15 17:02:39.331";"3";;;;;;;;;;;;;;;;;;;;;;;;;;;;;;;;;;;;;;;;;;;;;;;;;;;;;;;;;;;;;;;;;;;;;;;;;;;;;;;;
"C1413999";;;"Windows 7";"Rachel's Experiment (D.T.)";"1.0";"2";"1";"1";"2";"1";"1";"2014-10-15 16:49:57.488";"2014-10-15 17:03:31.045";"1";"1";"1";"185";"184";"module.devaluation_block1.exec-4337.deval1";"6061";"2014-10-15 17:02:52.716";"17";"7";"8";"7";"1088";"927";"1024";"2014-10-15 17:02:46.663";"2";;;;;;;;;;;;;;;;;;;;;;;;;;;;;;;;;;;;;;;;;;;;;;;;;;;;;;;;;;;;;;;;;;;;;;;;;;;;;;;;
"C1413999";;;"Windows 7";"Rachel's Experiment (D.T.)";"1.0";"2";"1";"1";"2";"1";"1";"2014-10-15 16:49:57.488";"2014-10-15 17:03:31.045";"1";"1";"1";"186";"185";"module.devaluation_block1.exec-4337.deval1";"4988";"2014-10-15 17:02:57.723";"14";"4";"4";"4";"715";"694";"555";"2014-10-15 17:02:52.731";"2";;;;;;;;;;;;;;;;;;;;;;;;;;;;;;;;;;;;;;;;;;;;;;;;;;;;;;;;;;;;;;;;;;;;;;;;;;;;;;;;
"C1413999";;;"Windows 7";"Rachel's Experiment (D.T.)";"1.0";"2";"1";"1";"2";"1";"1";"2014-10-15 16:49:57.488";"2014-10-15 17:03:31.045";"1";"1";"1";"187";"186";"module.devaluation_block1.exec-4337.deval1";"5381";"2014-10-15 17:03:03.121";"22";"7";"7";"7";"780";"790";"788";"2014-10-15 17:02:57.739";"3";;;;;;;;;;;;;;;;;;;;;;;;;;;;;;;;;;;;;;;;;;;;;;;;;;;;;;;;;;;;;;;;;;;;;;;;;;;;;;;;
"C1413999";;;"Windows 7";"Rachel's Experiment (D.T.)";"1.0";"2";"1";"1";"2";"1";"1";"2014-10-15 16:49:57.488";"2014-10-15 17:03:31.045";"1";"1";"1";"188";"187";"module.devaluation_block1.exec-4337.deval1";"6181";"2014-10-15 17:03:09.330";"6";"1";"1";"1";"1190";"1046";"921";"2014-10-15 17:03:03.137";"1";;;;;;;;;;;;;;;;;;;;;;;;;;;;;;;;;;;;;;;;;;;;;;;;;;;;;;;;;;;;;;;;;;;;;;;;;;;;;;;;
"C1413999";;;"Windows 7";"Rachel's Experiment (D.T.)";"1.0";"2";"1";"1";"2";"1";"1";"2014-10-15 16:49:57.488";"2014-10-15 17:03:31.045";"1";"1";"1";"189";"188";"module.devaluation_block1.exec-4337.deval1";"6845";"2014-10-15 17:03:16.194";"11";"9";"9";"9";"1653";"1046";"1109";"2014-10-15 17:03:09.345";"2";;;;;;;;;;;;;;;;;;;;;;;;;;;;;;;;;;;;;;;;;;;;;;;;;;;;;;;;;;;;;;;;;;;;;;;;;;;;;;;;
"C1413999";;;"Windows 7";"Rachel's Experiment (D.T.)";"1.0";"2";"1";"1";"2";"1";"1";"2014-10-15 16:49:57.488";"2014-10-15 17:03:31.045";"1";"1";"1";"190";"189";"module.devaluation_block1.exec-4337.deval1";"12612";"2014-10-15 17:03:28.814";"26";"7";"2";"7";"5997";"824";"2764";"2014-10-15 17:03:16.209";"3";;;;;;;;;;;;;;;;;;;;;;;;;;;;;;;;;;;;;;;;;;;;;;;;;;;;;;;;;;;;;;;;;;;;;;;;;;;;;;;;
