"user.name";"user.yearOfBirth";"user.sex";"user.osName";"module.name";"module.version";"module.online.subject.code";"module.online.study.id";"module.online.module.nr";"module.online.group.nr";"session.id";"session.index";"session.startTime";"session.endTime";"session.completed";"session.node-5746.conditionType";"session.node-8270.DevalQorder";"trial.id";"trial.index";"trial.name";"trial.deval1.durationTime";"trial.deval1.endTime";"trial.deval1.icon";"trial.deval1.Resp_Attractive";"trial.deval1.Resp_Eat";"trial.deval1.Resp_Taste";"trial.deval1.RT_Attractive";"trial.deval1.RT_Eat";"trial.deval1.RT_Taste";"trial.deval1.startTime";"trial.deval1.stimulus type";"trial.devalPractice.durationTime";"trial.devalPractice.endTime";"trial.devalPractice.icon";"trial.devalPractice.Resp_Attractive";"trial.devalPractice.Resp_Eat";"trial.devalPractice.Resp_Taste";"trial.devalPractice.RT_Attractive";"trial.devalPractice.RT_Eat";"trial.devalPractice.RT_Taste";"trial.devalPractice.startTime";"trial.devalPractice.stimulus type";"trial.GoNoGo1.durationTime";"trial.GoNoGo1.endTime";"trial.GoNoGo1.Error Type";"trial.GoNoGo1.icon";"trial.GoNoGo1.location";"trial.GoNoGo1.outcome";"trial.GoNoGo1.response";"trial.GoNoGo1.result";"trial.GoNoGo1.RT";"trial.GoNoGo1.signal";"trial.GoNoGo1.startTime";"trial.GoNoGo1.stimulus type";"trial.GoNoGo2.durationTime";"trial.GoNoGo2.endTime";"trial.GoNoGo2.Error Type";"trial.GoNoGo2.icon";"trial.GoNoGo2.location";"trial.GoNoGo2.outcome";"trial.GoNoGo2.response";"trial.GoNoGo2.result";"trial.GoNoGo2.RT";"trial.GoNoGo2.signal";"trial.GoNoGo2.startTime";"trial.GoNoGo2.stimulus type";"trial.GoNoGo3.durationTime";"trial.GoNoGo3.endTime";"trial.GoNoGo3.Error Type";"trial.GoNoGo3.icon";"trial.GoNoGo3.location";"trial.GoNoGo3.outcome";"trial.GoNoGo3.response";"trial.GoNoGo3.result";"trial.GoNoGo3.RT";"trial.GoNoGo3.signal";"trial.GoNoGo3.startTime";"trial.GoNoGo3.stimulus type";"trial.GoNoGo4.durationTime";"trial.GoNoGo4.endTime";"trial.GoNoGo4.Error Type";"trial.GoNoGo4.icon";"trial.GoNoGo4.location";"trial.GoNoGo4.outcome";"trial.GoNoGo4.response";"trial.GoNoGo4.result";"trial.GoNoGo4.RT";"trial.GoNoGo4.signal";"trial.GoNoGo4.startTime";"trial.GoNoGo4.stimulus type";"trial.GoNoGo_Practice.durationTime";"trial.GoNoGo_Practice.endTime";"trial.GoNoGo_Practice.icon";"trial.GoNoGo_Practice.location";"trial.GoNoGo_Practice.outcome";"trial.GoNoGo_Practice.response";"trial.GoNoGo_Practice.result";"trial.GoNoGo_Practice.RT";"trial.GoNoGo_Practice.signal";"trial.GoNoGo_Practice.startTime";"trial.GoNoGo_Practice.stimulus type";"trial.GoNoGo_Tutorial.durationTime";"trial.GoNoGo_Tutorial.endTime";"trial.GoNoGo_Tutorial.icon";"trial.GoNoGo_Tutorial.location";"trial.GoNoGo_Tutorial.outcome";"trial.GoNoGo_Tutorial.response";"trial.GoNoGo_Tutorial.result";"trial.GoNoGo_Tutorial.RT";"trial.GoNoGo_Tutorial.signal";"trial.GoNoGo_Tutorial.startTime"
"c1315824";;;"Windows 7";"Rachel's Experiment (D.T.)";"1.0";"2";"1";"1";"2";"1";"1";"2014-10-16 12:58:36.634";"2014-10-16 13:14:46.878";"1";"1";"1";"1";"0";"module.GoNoGotutorial.exec-6194.GoNoGo_Tutorial";;;;;;;;;;;;;;;;;;;;;;;;;;;;;;;;;;;;;;;;;;;;;;;;;;;;;;;;;;;;;;;;;;;;;;;;;;;;;;;;;;"3998";"2014-10-16 13:01:43.429";"leftResponse";"0";"FINISHED";"LEFT";"success";"3848";"0";"2014-10-16 13:01:39.419"
"c1315824";;;"Windows 7";"Rachel's Experiment (D.T.)";"1.0";"2";"1";"1";"2";"1";"1";"2014-10-16 12:58:36.634";"2014-10-16 13:14:46.878";"1";"1";"1";"2";"1";"module.GoNoGotutorial.exec-6194.GoNoGo_Tutorial";;;;;;;;;;;;;;;;;;;;;;;;;;;;;;;;;;;;;;;;;;;;;;;;;;;;;;;;;;;;;;;;;;;;;;;;;;;;;;;;;;"4002";"2014-10-16 13:01:48.733";"rightResponse";"1";"FINISHED";"RIGHT";"success";"1636";"0";"2014-10-16 13:01:44.723"
"c1315824";;;"Windows 7";"Rachel's Experiment (D.T.)";"1.0";"2";"1";"1";"2";"1";"1";"2014-10-16 12:58:36.634";"2014-10-16 13:14:46.878";"1";"1";"1";"3";"2";"module.GoNoGotutorial.exec-6194.GoNoGo_Tutorial";;;;;;;;;;;;;;;;;;;;;;;;;;;;;;;;;;;;;;;;;;;;;;;;;;;;;;;;;;;;;;;;;;;;;;;;;;;;;;;;;;"4003";"2014-10-16 13:01:54.037";"signalResponse";"0";"FINISHED";"NONE";"success";"0";"1";"2014-10-16 13:01:50.027"
"c1315824";;;"Windows 7";"Rachel's Experiment (D.T.)";"1.0";"2";"1";"1";"2";"1";"1";"2014-10-16 12:58:36.634";"2014-10-16 13:14:46.878";"1";"1";"1";"4";"3";"module.GoNoGopractice.exec-3696.GoNoGo_Practice";;;;;;;;;;;;;;;;;;;;;;;;;;;;;;;;;;;;;;;;;;;;;;;;;;;;;;;;;;;;;;;;;;;;;;;"1959";"2014-10-16 13:02:03.568";"18";"0";"FINISHED";"LEFT";"success";"405";"0";"2014-10-16 13:02:01.603";"3";;;;;;;;;;
"c1315824";;;"Windows 7";"Rachel's Experiment (D.T.)";"1.0";"2";"1";"1";"2";"1";"1";"2014-10-16 12:58:36.634";"2014-10-16 13:14:46.878";"1";"1";"1";"5";"4";"module.GoNoGopractice.exec-3696.GoNoGo_Practice";;;;;;;;;;;;;;;;;;;;;;;;;;;;;;;;;;;;;;;;;;;;;;;;;;;;;;;;;;;;;;;;;;;;;;;"1958";"2014-10-16 13:02:06.813";"21";"1";"FINISHED";"RIGHT";"success";"408";"0";"2014-10-16 13:02:04.847";"3";;;;;;;;;;
"c1315824";;;"Windows 7";"Rachel's Experiment (D.T.)";"1.0";"2";"1";"1";"2";"1";"1";"2014-10-16 12:58:36.634";"2014-10-16 13:14:46.878";"1";"1";"1";"6";"5";"module.GoNoGopractice.exec-3696.GoNoGo_Practice";;;;;;;;;;;;;;;;;;;;;;;;;;;;;;;;;;;;;;;;;;;;;;;;;;;;;;;;;;;;;;;;;;;;;;;"1959";"2014-10-16 13:02:10.058";"14";"1";"FINISHED";"RIGHT";"failure";"516";"1";"2014-10-16 13:02:08.092";"2";;;;;;;;;;
"c1315824";;;"Windows 7";"Rachel's Experiment (D.T.)";"1.0";"2";"1";"1";"2";"1";"1";"2014-10-16 12:58:36.634";"2014-10-16 13:14:46.878";"1";"1";"1";"7";"6";"module.GoNoGopractice.exec-3696.GoNoGo_Practice";;;;;;;;;;;;;;;;;;;;;;;;;;;;;;;;;;;;;;;;;;;;;;;;;;;;;;;;;;;;;;;;;;;;;;;"1959";"2014-10-16 13:02:13.303";"26";"0";"FINISHED";"LEFT";"success";"407";"0";"2014-10-16 13:02:11.337";"3";;;;;;;;;;
"c1315824";;;"Windows 7";"Rachel's Experiment (D.T.)";"1.0";"2";"1";"1";"2";"1";"1";"2014-10-16 12:58:36.634";"2014-10-16 13:14:46.878";"1";"1";"1";"8";"7";"module.GoNoGopractice.exec-3696.GoNoGo_Practice";;;;;;;;;;;;;;;;;;;;;;;;;;;;;;;;;;;;;;;;;;;;;;;;;;;;;;;;;;;;;;;;;;;;;;;"1959";"2014-10-16 13:02:16.547";"2";"0";"FINISHED";"LEFT";"success";"466";"0";"2014-10-16 13:02:14.582";"1";;;;;;;;;;
"c1315824";;;"Windows 7";"Rachel's Experiment (D.T.)";"1.0";"2";"1";"1";"2";"1";"1";"2014-10-16 12:58:36.634";"2014-10-16 13:14:46.878";"1";"1";"1";"9";"8";"module.GoNoGopractice.exec-3696.GoNoGo_Practice";;;;;;;;;;;;;;;;;;;;;;;;;;;;;;;;;;;;;;;;;;;;;;;;;;;;;;;;;;;;;;;;;;;;;;;"1960";"2014-10-16 13:02:19.792";"30";"0";"FINISHED";"NONE";"success";"0";"1";"2014-10-16 13:02:17.827";"3";;;;;;;;;;
"c1315824";;;"Windows 7";"Rachel's Experiment (D.T.)";"1.0";"2";"1";"1";"2";"1";"1";"2014-10-16 12:58:36.634";"2014-10-16 13:14:46.878";"1";"1";"1";"10";"9";"module.GoNoGopractice.exec-3696.GoNoGo_Practice";;;;;;;;;;;;;;;;;;;;;;;;;;;;;;;;;;;;;;;;;;;;;;;;;;;;;;;;;;;;;;;;;;;;;;;"1959";"2014-10-16 13:02:23.037";"6";"1";"FINISHED";"NONE";"success";"0";"1";"2014-10-16 13:02:21.071";"1";;;;;;;;;;
"c1315824";;;"Windows 7";"Rachel's Experiment (D.T.)";"1.0";"2";"1";"1";"2";"1";"1";"2014-10-16 12:58:36.634";"2014-10-16 13:14:46.878";"1";"1";"1";"11";"10";"module.GoNoGopractice.exec-3696.GoNoGo_Practice";;;;;;;;;;;;;;;;;;;;;;;;;;;;;;;;;;;;;;;;;;;;;;;;;;;;;;;;;;;;;;;;;;;;;;;"2053";"2014-10-16 13:02:26.375";"34";"0";"FINISHED";"NONE";"failure";"0";"0";"2014-10-16 13:02:24.316";"3";;;;;;;;;;
"c1315824";;;"Windows 7";"Rachel's Experiment (D.T.)";"1.0";"2";"1";"1";"2";"1";"1";"2014-10-16 12:58:36.634";"2014-10-16 13:14:46.878";"1";"1";"1";"12";"11";"module.GoNoGopractice.exec-3696.GoNoGo_Practice";;;;;;;;;;;;;;;;;;;;;;;;;;;;;;;;;;;;;;;;;;;;;;;;;;;;;;;;;;;;;;;;;;;;;;;"1957";"2014-10-16 13:02:29.620";"23";"1";"FINISHED";"RIGHT";"success";"519";"0";"2014-10-16 13:02:27.655";"3";;;;;;;;;;
"c1315824";;;"Windows 7";"Rachel's Experiment (D.T.)";"1.0";"2";"1";"1";"2";"1";"1";"2014-10-16 12:58:36.634";"2014-10-16 13:14:46.878";"1";"1";"1";"13";"12";"module.GoNoGopractice.exec-3696.GoNoGo_Practice";;;;;;;;;;;;;;;;;;;;;;;;;;;;;;;;;;;;;;;;;;;;;;;;;;;;;;;;;;;;;;;;;;;;;;;"1959";"2014-10-16 13:02:32.865";"13";"0";"FINISHED";"NONE";"success";"0";"1";"2014-10-16 13:02:30.900";"2";;;;;;;;;;
"c1315824";;;"Windows 7";"Rachel's Experiment (D.T.)";"1.0";"2";"1";"1";"2";"1";"1";"2014-10-16 12:58:36.634";"2014-10-16 13:14:46.878";"1";"1";"1";"14";"13";"module.GoNoGopractice.exec-3696.GoNoGo_Practice";;;;;;;;;;;;;;;;;;;;;;;;;;;;;;;;;;;;;;;;;;;;;;;;;;;;;;;;;;;;;;;;;;;;;;;"1960";"2014-10-16 13:02:36.110";"3";"1";"FINISHED";"RIGHT";"success";"440";"0";"2014-10-16 13:02:34.144";"1";;;;;;;;;;
"c1315824";;;"Windows 7";"Rachel's Experiment (D.T.)";"1.0";"2";"1";"1";"2";"1";"1";"2014-10-16 12:58:36.634";"2014-10-16 13:14:46.878";"1";"1";"1";"15";"14";"module.GoNoGopractice.exec-3696.GoNoGo_Practice";;;;;;;;;;;;;;;;;;;;;;;;;;;;;;;;;;;;;;;;;;;;;;;;;;;;;;;;;;;;;;;;;;;;;;;"1958";"2014-10-16 13:02:39.355";"27";"1";"FINISHED";"RIGHT";"failure";"498";"1";"2014-10-16 13:02:37.389";"3";;;;;;;;;;
"c1315824";;;"Windows 7";"Rachel's Experiment (D.T.)";"1.0";"2";"1";"1";"2";"1";"1";"2014-10-16 12:58:36.634";"2014-10-16 13:14:46.878";"1";"1";"1";"16";"15";"module.training_block1.exec-9132.GoNoGo1";;;;;;;;;;;;;;;;;;;;;;;"1256";"2014-10-16 13:02:47.124";"NST_correctLoc";"10";"0";"FINISHED";"LEFT";"success";"426";"0";"2014-10-16 13:02:45.860";"2";;;;;;;;;;;;;;;;;;;;;;;;;;;;;;;;;;;;;;;;;;;;;;;;;;;;;;;;;
"c1315824";;;"Windows 7";"Rachel's Experiment (D.T.)";"1.0";"2";"1";"1";"2";"1";"1";"2014-10-16 12:58:36.634";"2014-10-16 13:14:46.878";"1";"1";"1";"17";"16";"module.training_block1.exec-9132.GoNoGo1";;;;;;;;;;;;;;;;;;;;;;;"1258";"2014-10-16 13:02:49.666";"ST_correctStop";"33";"0";"FINISHED";"NONE";"success";"0";"1";"2014-10-16 13:02:48.403";"3";;;;;;;;;;;;;;;;;;;;;;;;;;;;;;;;;;;;;;;;;;;;;;;;;;;;;;;;;
"c1315824";;;"Windows 7";"Rachel's Experiment (D.T.)";"1.0";"2";"1";"1";"2";"1";"1";"2014-10-16 12:58:36.634";"2014-10-16 13:14:46.878";"1";"1";"1";"18";"17";"module.training_block1.exec-9132.GoNoGo1";;;;;;;;;;;;;;;;;;;;;;;"1257";"2014-10-16 13:02:52.209";"NST_correctLoc";"14";"0";"FINISHED";"LEFT";"success";"414";"0";"2014-10-16 13:02:50.946";"2";;;;;;;;;;;;;;;;;;;;;;;;;;;;;;;;;;;;;;;;;;;;;;;;;;;;;;;;;
"c1315824";;;"Windows 7";"Rachel's Experiment (D.T.)";"1.0";"2";"1";"1";"2";"1";"1";"2014-10-16 12:58:36.634";"2014-10-16 13:14:46.878";"1";"1";"1";"19";"18";"module.training_block1.exec-9132.GoNoGo1";;;;;;;;;;;;;;;;;;;;;;;"1261";"2014-10-16 13:02:54.752";"NST_correctLoc";"27";"0";"FINISHED";"LEFT";"success";"499";"0";"2014-10-16 13:02:53.488";"3";;;;;;;;;;;;;;;;;;;;;;;;;;;;;;;;;;;;;;;;;;;;;;;;;;;;;;;;;
"c1315824";;;"Windows 7";"Rachel's Experiment (D.T.)";"1.0";"2";"1";"1";"2";"1";"1";"2014-10-16 12:58:36.634";"2014-10-16 13:14:46.878";"1";"1";"1";"20";"19";"module.training_block1.exec-9132.GoNoGo1";;;;;;;;;;;;;;;;;;;;;;;"1257";"2014-10-16 13:02:57.295";"NST_correctLoc";"31";"1";"FINISHED";"RIGHT";"success";"465";"0";"2014-10-16 13:02:56.031";"3";;;;;;;;;;;;;;;;;;;;;;;;;;;;;;;;;;;;;;;;;;;;;;;;;;;;;;;;;
"c1315824";;;"Windows 7";"Rachel's Experiment (D.T.)";"1.0";"2";"1";"1";"2";"1";"1";"2014-10-16 12:58:36.634";"2014-10-16 13:14:46.878";"1";"1";"1";"21";"20";"module.training_block1.exec-9132.GoNoGo1";;;;;;;;;;;;;;;;;;;;;;;"1257";"2014-10-16 13:02:59.838";"ST_correctStop";"2";"0";"FINISHED";"NONE";"success";"0";"1";"2014-10-16 13:02:58.574";"1";;;;;;;;;;;;;;;;;;;;;;;;;;;;;;;;;;;;;;;;;;;;;;;;;;;;;;;;;
"c1315824";;;"Windows 7";"Rachel's Experiment (D.T.)";"1.0";"2";"1";"1";"2";"1";"1";"2014-10-16 12:58:36.634";"2014-10-16 13:14:46.878";"1";"1";"1";"22";"21";"module.training_block1.exec-9132.GoNoGo1";;;;;;;;;;;;;;;;;;;;;;;"1258";"2014-10-16 13:03:02.380";"NST_correctLoc";"12";"1";"FINISHED";"RIGHT";"success";"467";"0";"2014-10-16 13:03:01.117";"2";;;;;;;;;;;;;;;;;;;;;;;;;;;;;;;;;;;;;;;;;;;;;;;;;;;;;;;;;
"c1315824";;;"Windows 7";"Rachel's Experiment (D.T.)";"1.0";"2";"1";"1";"2";"1";"1";"2014-10-16 12:58:36.634";"2014-10-16 13:14:46.878";"1";"1";"1";"23";"22";"module.training_block1.exec-9132.GoNoGo1";;;;;;;;;;;;;;;;;;;;;;;"1258";"2014-10-16 13:03:04.923";"NST_correctLoc";"30";"1";"FINISHED";"RIGHT";"success";"460";"0";"2014-10-16 13:03:03.660";"3";;;;;;;;;;;;;;;;;;;;;;;;;;;;;;;;;;;;;;;;;;;;;;;;;;;;;;;;;
"c1315824";;;"Windows 7";"Rachel's Experiment (D.T.)";"1.0";"2";"1";"1";"2";"1";"1";"2014-10-16 12:58:36.634";"2014-10-16 13:14:46.878";"1";"1";"1";"24";"23";"module.training_block1.exec-9132.GoNoGo1";;;;;;;;;;;;;;;;;;;;;;;"1253";"2014-10-16 13:03:07.466";"NST_correctLoc";"20";"0";"FINISHED";"LEFT";"success";"537";"0";"2014-10-16 13:03:06.202";"3";;;;;;;;;;;;;;;;;;;;;;;;;;;;;;;;;;;;;;;;;;;;;;;;;;;;;;;;;
"c1315824";;;"Windows 7";"Rachel's Experiment (D.T.)";"1.0";"2";"1";"1";"2";"1";"1";"2014-10-16 12:58:36.634";"2014-10-16 13:14:46.878";"1";"1";"1";"25";"24";"module.training_block1.exec-9132.GoNoGo1";;;;;;;;;;;;;;;;;;;;;;;"1257";"2014-10-16 13:03:10.009";"NST_correctLoc";"16";"1";"FINISHED";"RIGHT";"success";"598";"0";"2014-10-16 13:03:08.745";"2";;;;;;;;;;;;;;;;;;;;;;;;;;;;;;;;;;;;;;;;;;;;;;;;;;;;;;;;;
"c1315824";;;"Windows 7";"Rachel's Experiment (D.T.)";"1.0";"2";"1";"1";"2";"1";"1";"2014-10-16 12:58:36.634";"2014-10-16 13:14:46.878";"1";"1";"1";"26";"25";"module.training_block1.exec-9132.GoNoGo1";;;;;;;;;;;;;;;;;;;;;;;"1257";"2014-10-16 13:03:12.552";"NST_correctLoc";"11";"0";"FINISHED";"LEFT";"success";"400";"0";"2014-10-16 13:03:11.288";"2";;;;;;;;;;;;;;;;;;;;;;;;;;;;;;;;;;;;;;;;;;;;;;;;;;;;;;;;;
"c1315824";;;"Windows 7";"Rachel's Experiment (D.T.)";"1.0";"2";"1";"1";"2";"1";"1";"2014-10-16 12:58:36.634";"2014-10-16 13:14:46.878";"1";"1";"1";"27";"26";"module.training_block1.exec-9132.GoNoGo1";;;;;;;;;;;;;;;;;;;;;;;"1257";"2014-10-16 13:03:15.094";"NST_correctLoc";"21";"1";"FINISHED";"RIGHT";"success";"457";"0";"2014-10-16 13:03:13.831";"3";;;;;;;;;;;;;;;;;;;;;;;;;;;;;;;;;;;;;;;;;;;;;;;;;;;;;;;;;
"c1315824";;;"Windows 7";"Rachel's Experiment (D.T.)";"1.0";"2";"1";"1";"2";"1";"1";"2014-10-16 12:58:36.634";"2014-10-16 13:14:46.878";"1";"1";"1";"28";"27";"module.training_block1.exec-9132.GoNoGo1";;;;;;;;;;;;;;;;;;;;;;;"1257";"2014-10-16 13:03:17.637";"ST_failedStop";"26";"0";"FINISHED";"LEFT";"failure";"530";"1";"2014-10-16 13:03:16.374";"3";;;;;;;;;;;;;;;;;;;;;;;;;;;;;;;;;;;;;;;;;;;;;;;;;;;;;;;;;
"c1315824";;;"Windows 7";"Rachel's Experiment (D.T.)";"1.0";"2";"1";"1";"2";"1";"1";"2014-10-16 12:58:36.634";"2014-10-16 13:14:46.878";"1";"1";"1";"29";"28";"module.training_block1.exec-9132.GoNoGo1";;;;;;;;;;;;;;;;;;;;;;;"1258";"2014-10-16 13:03:20.180";"ST_correctStop";"28";"0";"FINISHED";"NONE";"success";"0";"1";"2014-10-16 13:03:18.916";"3";;;;;;;;;;;;;;;;;;;;;;;;;;;;;;;;;;;;;;;;;;;;;;;;;;;;;;;;;
"c1315824";;;"Windows 7";"Rachel's Experiment (D.T.)";"1.0";"2";"1";"1";"2";"1";"1";"2014-10-16 12:58:36.634";"2014-10-16 13:14:46.878";"1";"1";"1";"30";"29";"module.training_block1.exec-9132.GoNoGo1";;;;;;;;;;;;;;;;;;;;;;;"1258";"2014-10-16 13:03:22.723";"ST_correctStop";"19";"0";"FINISHED";"NONE";"success";"0";"1";"2014-10-16 13:03:21.459";"3";;;;;;;;;;;;;;;;;;;;;;;;;;;;;;;;;;;;;;;;;;;;;;;;;;;;;;;;;
"c1315824";;;"Windows 7";"Rachel's Experiment (D.T.)";"1.0";"2";"1";"1";"2";"1";"1";"2014-10-16 12:58:36.634";"2014-10-16 13:14:46.878";"1";"1";"1";"31";"30";"module.training_block1.exec-9132.GoNoGo1";;;;;;;;;;;;;;;;;;;;;;;"1257";"2014-10-16 13:03:25.266";"NST_correctLoc";"17";"0";"FINISHED";"LEFT";"success";"573";"0";"2014-10-16 13:03:24.002";"2";;;;;;;;;;;;;;;;;;;;;;;;;;;;;;;;;;;;;;;;;;;;;;;;;;;;;;;;;
"c1315824";;;"Windows 7";"Rachel's Experiment (D.T.)";"1.0";"2";"1";"1";"2";"1";"1";"2014-10-16 12:58:36.634";"2014-10-16 13:14:46.878";"1";"1";"1";"32";"31";"module.training_block1.exec-9132.GoNoGo1";;;;;;;;;;;;;;;;;;;;;;;"1261";"2014-10-16 13:03:27.808";"ST_failedStop";"34";"1";"FINISHED";"RIGHT";"failure";"707";"1";"2014-10-16 13:03:26.545";"3";;;;;;;;;;;;;;;;;;;;;;;;;;;;;;;;;;;;;;;;;;;;;;;;;;;;;;;;;
"c1315824";;;"Windows 7";"Rachel's Experiment (D.T.)";"1.0";"2";"1";"1";"2";"1";"1";"2014-10-16 12:58:36.634";"2014-10-16 13:14:46.878";"1";"1";"1";"33";"32";"module.training_block1.exec-9132.GoNoGo1";;;;;;;;;;;;;;;;;;;;;;;"1257";"2014-10-16 13:03:30.351";"ST_correctStop";"0";"0";"FINISHED";"NONE";"success";"0";"1";"2014-10-16 13:03:29.088";"1";;;;;;;;;;;;;;;;;;;;;;;;;;;;;;;;;;;;;;;;;;;;;;;;;;;;;;;;;
"c1315824";;;"Windows 7";"Rachel's Experiment (D.T.)";"1.0";"2";"1";"1";"2";"1";"1";"2014-10-16 12:58:36.634";"2014-10-16 13:14:46.878";"1";"1";"1";"34";"33";"module.training_block1.exec-9132.GoNoGo1";;;;;;;;;;;;;;;;;;;;;;;"1258";"2014-10-16 13:03:32.894";"NST_correctLoc";"9";"1";"FINISHED";"RIGHT";"success";"537";"0";"2014-10-16 13:03:31.630";"2";;;;;;;;;;;;;;;;;;;;;;;;;;;;;;;;;;;;;;;;;;;;;;;;;;;;;;;;;
"c1315824";;;"Windows 7";"Rachel's Experiment (D.T.)";"1.0";"2";"1";"1";"2";"1";"1";"2014-10-16 12:58:36.634";"2014-10-16 13:14:46.878";"1";"1";"1";"35";"34";"module.training_block1.exec-9132.GoNoGo1";;;;;;;;;;;;;;;;;;;;;;;"1257";"2014-10-16 13:03:35.437";"ST_correctStop";"4";"0";"FINISHED";"NONE";"success";"0";"1";"2014-10-16 13:03:34.173";"1";;;;;;;;;;;;;;;;;;;;;;;;;;;;;;;;;;;;;;;;;;;;;;;;;;;;;;;;;
"c1315824";;;"Windows 7";"Rachel's Experiment (D.T.)";"1.0";"2";"1";"1";"2";"1";"1";"2014-10-16 12:58:36.634";"2014-10-16 13:14:46.878";"1";"1";"1";"36";"35";"module.training_block1.exec-9132.GoNoGo1";;;;;;;;;;;;;;;;;;;;;;;"1261";"2014-10-16 13:03:37.980";"NST_correctLoc";"23";"1";"FINISHED";"RIGHT";"success";"519";"0";"2014-10-16 13:03:36.716";"3";;;;;;;;;;;;;;;;;;;;;;;;;;;;;;;;;;;;;;;;;;;;;;;;;;;;;;;;;
"c1315824";;;"Windows 7";"Rachel's Experiment (D.T.)";"1.0";"2";"1";"1";"2";"1";"1";"2014-10-16 12:58:36.634";"2014-10-16 13:14:46.878";"1";"1";"1";"37";"36";"module.training_block1.exec-9132.GoNoGo1";;;;;;;;;;;;;;;;;;;;;;;"1257";"2014-10-16 13:03:40.522";"NST_correctLoc";"22";"1";"FINISHED";"RIGHT";"success";"532";"0";"2014-10-16 13:03:39.259";"3";;;;;;;;;;;;;;;;;;;;;;;;;;;;;;;;;;;;;;;;;;;;;;;;;;;;;;;;;
"c1315824";;;"Windows 7";"Rachel's Experiment (D.T.)";"1.0";"2";"1";"1";"2";"1";"1";"2014-10-16 12:58:36.634";"2014-10-16 13:14:46.878";"1";"1";"1";"38";"37";"module.training_block1.exec-9132.GoNoGo1";;;;;;;;;;;;;;;;;;;;;;;"1258";"2014-10-16 13:03:43.065";"NST_correctLoc";"35";"1";"FINISHED";"RIGHT";"success";"494";"0";"2014-10-16 13:03:41.802";"3";;;;;;;;;;;;;;;;;;;;;;;;;;;;;;;;;;;;;;;;;;;;;;;;;;;;;;;;;
"c1315824";;;"Windows 7";"Rachel's Experiment (D.T.)";"1.0";"2";"1";"1";"2";"1";"1";"2014-10-16 12:58:36.634";"2014-10-16 13:14:46.878";"1";"1";"1";"39";"38";"module.training_block1.exec-9132.GoNoGo1";;;;;;;;;;;;;;;;;;;;;;;"1257";"2014-10-16 13:03:45.608";"ST_correctStop";"6";"1";"FINISHED";"NONE";"success";"0";"1";"2014-10-16 13:03:44.344";"1";;;;;;;;;;;;;;;;;;;;;;;;;;;;;;;;;;;;;;;;;;;;;;;;;;;;;;;;;
"c1315824";;;"Windows 7";"Rachel's Experiment (D.T.)";"1.0";"2";"1";"1";"2";"1";"1";"2014-10-16 12:58:36.634";"2014-10-16 13:14:46.878";"1";"1";"1";"40";"39";"module.training_block1.exec-9132.GoNoGo1";;;;;;;;;;;;;;;;;;;;;;;"1253";"2014-10-16 13:03:48.151";"ST_correctStop";"7";"0";"FINISHED";"NONE";"success";"0";"1";"2014-10-16 13:03:46.887";"1";;;;;;;;;;;;;;;;;;;;;;;;;;;;;;;;;;;;;;;;;;;;;;;;;;;;;;;;;
"c1315824";;;"Windows 7";"Rachel's Experiment (D.T.)";"1.0";"2";"1";"1";"2";"1";"1";"2014-10-16 12:58:36.634";"2014-10-16 13:14:46.878";"1";"1";"1";"41";"40";"module.training_block1.exec-9132.GoNoGo1";;;;;;;;;;;;;;;;;;;;;;;"1257";"2014-10-16 13:03:50.694";"ST_correctStop";"8";"0";"FINISHED";"NONE";"success";"0";"1";"2014-10-16 13:03:49.430";"1";;;;;;;;;;;;;;;;;;;;;;;;;;;;;;;;;;;;;;;;;;;;;;;;;;;;;;;;;
"c1315824";;;"Windows 7";"Rachel's Experiment (D.T.)";"1.0";"2";"1";"1";"2";"1";"1";"2014-10-16 12:58:36.634";"2014-10-16 13:14:46.878";"1";"1";"1";"42";"41";"module.training_block1.exec-9132.GoNoGo1";;;;;;;;;;;;;;;;;;;;;;;"1257";"2014-10-16 13:03:53.236";"ST_correctStop";"32";"0";"FINISHED";"NONE";"success";"0";"1";"2014-10-16 13:03:51.973";"3";;;;;;;;;;;;;;;;;;;;;;;;;;;;;;;;;;;;;;;;;;;;;;;;;;;;;;;;;
"c1315824";;;"Windows 7";"Rachel's Experiment (D.T.)";"1.0";"2";"1";"1";"2";"1";"1";"2014-10-16 12:58:36.634";"2014-10-16 13:14:46.878";"1";"1";"1";"43";"42";"module.training_block1.exec-9132.GoNoGo1";;;;;;;;;;;;;;;;;;;;;;;"1258";"2014-10-16 13:03:55.779";"NST_correctLoc";"29";"0";"FINISHED";"LEFT";"success";"484";"0";"2014-10-16 13:03:54.516";"3";;;;;;;;;;;;;;;;;;;;;;;;;;;;;;;;;;;;;;;;;;;;;;;;;;;;;;;;;
"c1315824";;;"Windows 7";"Rachel's Experiment (D.T.)";"1.0";"2";"1";"1";"2";"1";"1";"2014-10-16 12:58:36.634";"2014-10-16 13:14:46.878";"1";"1";"1";"44";"43";"module.training_block1.exec-9132.GoNoGo1";;;;;;;;;;;;;;;;;;;;;;;"1258";"2014-10-16 13:03:58.322";"ST_failedStop";"25";"1";"FINISHED";"RIGHT";"failure";"605";"1";"2014-10-16 13:03:57.058";"3";;;;;;;;;;;;;;;;;;;;;;;;;;;;;;;;;;;;;;;;;;;;;;;;;;;;;;;;;
"c1315824";;;"Windows 7";"Rachel's Experiment (D.T.)";"1.0";"2";"1";"1";"2";"1";"1";"2014-10-16 12:58:36.634";"2014-10-16 13:14:46.878";"1";"1";"1";"45";"44";"module.training_block1.exec-9132.GoNoGo1";;;;;;;;;;;;;;;;;;;;;;;"1261";"2014-10-16 13:04:00.865";"NST_correctLoc";"13";"0";"FINISHED";"LEFT";"success";"650";"0";"2014-10-16 13:03:59.601";"2";;;;;;;;;;;;;;;;;;;;;;;;;;;;;;;;;;;;;;;;;;;;;;;;;;;;;;;;;
"c1315824";;;"Windows 7";"Rachel's Experiment (D.T.)";"1.0";"2";"1";"1";"2";"1";"1";"2014-10-16 12:58:36.634";"2014-10-16 13:14:46.878";"1";"1";"1";"46";"45";"module.training_block1.exec-9132.GoNoGo1";;;;;;;;;;;;;;;;;;;;;;;"1258";"2014-10-16 13:04:03.408";"ST_correctStop";"18";"0";"FINISHED";"NONE";"success";"0";"1";"2014-10-16 13:04:02.144";"3";;;;;;;;;;;;;;;;;;;;;;;;;;;;;;;;;;;;;;;;;;;;;;;;;;;;;;;;;
"c1315824";;;"Windows 7";"Rachel's Experiment (D.T.)";"1.0";"2";"1";"1";"2";"1";"1";"2014-10-16 12:58:36.634";"2014-10-16 13:14:46.878";"1";"1";"1";"47";"46";"module.training_block1.exec-9132.GoNoGo1";;;;;;;;;;;;;;;;;;;;;;;"1258";"2014-10-16 13:04:05.950";"ST_correctStop";"1";"0";"FINISHED";"NONE";"success";"0";"1";"2014-10-16 13:04:04.687";"1";;;;;;;;;;;;;;;;;;;;;;;;;;;;;;;;;;;;;;;;;;;;;;;;;;;;;;;;;
"c1315824";;;"Windows 7";"Rachel's Experiment (D.T.)";"1.0";"2";"1";"1";"2";"1";"1";"2014-10-16 12:58:36.634";"2014-10-16 13:14:46.878";"1";"1";"1";"48";"47";"module.training_block1.exec-9132.GoNoGo1";;;;;;;;;;;;;;;;;;;;;;;"1258";"2014-10-16 13:04:08.493";"ST_correctStop";"24";"1";"FINISHED";"NONE";"success";"0";"1";"2014-10-16 13:04:07.230";"3";;;;;;;;;;;;;;;;;;;;;;;;;;;;;;;;;;;;;;;;;;;;;;;;;;;;;;;;;
"c1315824";;;"Windows 7";"Rachel's Experiment (D.T.)";"1.0";"2";"1";"1";"2";"1";"1";"2014-10-16 12:58:36.634";"2014-10-16 13:14:46.878";"1";"1";"1";"49";"48";"module.training_block1.exec-9132.GoNoGo1";;;;;;;;;;;;;;;;;;;;;;;"1257";"2014-10-16 13:04:11.036";"ST_correctStop";"5";"1";"FINISHED";"NONE";"success";"0";"1";"2014-10-16 13:04:09.772";"1";;;;;;;;;;;;;;;;;;;;;;;;;;;;;;;;;;;;;;;;;;;;;;;;;;;;;;;;;
"c1315824";;;"Windows 7";"Rachel's Experiment (D.T.)";"1.0";"2";"1";"1";"2";"1";"1";"2014-10-16 12:58:36.634";"2014-10-16 13:14:46.878";"1";"1";"1";"50";"49";"module.training_block1.exec-9132.GoNoGo1";;;;;;;;;;;;;;;;;;;;;;;"1257";"2014-10-16 13:04:13.579";"NST_correctLoc";"15";"0";"FINISHED";"LEFT";"success";"708";"0";"2014-10-16 13:04:12.315";"2";;;;;;;;;;;;;;;;;;;;;;;;;;;;;;;;;;;;;;;;;;;;;;;;;;;;;;;;;
"c1315824";;;"Windows 7";"Rachel's Experiment (D.T.)";"1.0";"2";"1";"1";"2";"1";"1";"2014-10-16 12:58:36.634";"2014-10-16 13:14:46.878";"1";"1";"1";"51";"50";"module.training_block1.exec-9132.GoNoGo1";;;;;;;;;;;;;;;;;;;;;;;"1261";"2014-10-16 13:04:16.122";"ST_correctStop";"3";"1";"FINISHED";"NONE";"success";"0";"1";"2014-10-16 13:04:14.858";"1";;;;;;;;;;;;;;;;;;;;;;;;;;;;;;;;;;;;;;;;;;;;;;;;;;;;;;;;;
"c1315824";;;"Windows 7";"Rachel's Experiment (D.T.)";"1.0";"2";"1";"1";"2";"1";"1";"2014-10-16 12:58:36.634";"2014-10-16 13:14:46.878";"1";"1";"1";"52";"51";"module.training_block2.exec-6133.GoNoGo2";;;;;;;;;;;;;;;;;;;;;;;;;;;;;;;;;;;"1261";"2014-10-16 13:04:27.588";"ST_correctStop";"1";"1";"FINISHED";"NONE";"success";"0";"1";"2014-10-16 13:04:26.324";"1";;;;;;;;;;;;;;;;;;;;;;;;;;;;;;;;;;;;;;;;;;;;;
"c1315824";;;"Windows 7";"Rachel's Experiment (D.T.)";"1.0";"2";"1";"1";"2";"1";"1";"2014-10-16 12:58:36.634";"2014-10-16 13:14:46.878";"1";"1";"1";"53";"52";"module.training_block2.exec-6133.GoNoGo2";;;;;;;;;;;;;;;;;;;;;;;;;;;;;;;;;;;"1261";"2014-10-16 13:04:30.131";"ST_correctStop";"0";"0";"FINISHED";"NONE";"success";"0";"1";"2014-10-16 13:04:28.867";"1";;;;;;;;;;;;;;;;;;;;;;;;;;;;;;;;;;;;;;;;;;;;;
"c1315824";;;"Windows 7";"Rachel's Experiment (D.T.)";"1.0";"2";"1";"1";"2";"1";"1";"2014-10-16 12:58:36.634";"2014-10-16 13:14:46.878";"1";"1";"1";"54";"53";"module.training_block2.exec-6133.GoNoGo2";;;;;;;;;;;;;;;;;;;;;;;;;;;;;;;;;;;"1261";"2014-10-16 13:04:32.673";"NST_correctLoc";"16";"1";"FINISHED";"RIGHT";"success";"769";"0";"2014-10-16 13:04:31.410";"2";;;;;;;;;;;;;;;;;;;;;;;;;;;;;;;;;;;;;;;;;;;;;
"c1315824";;;"Windows 7";"Rachel's Experiment (D.T.)";"1.0";"2";"1";"1";"2";"1";"1";"2014-10-16 12:58:36.634";"2014-10-16 13:14:46.878";"1";"1";"1";"55";"54";"module.training_block2.exec-6133.GoNoGo2";;;;;;;;;;;;;;;;;;;;;;;;;;;;;;;;;;;"1261";"2014-10-16 13:04:35.216";"NST_correctLoc";"20";"0";"FINISHED";"LEFT";"success";"658";"0";"2014-10-16 13:04:33.953";"3";;;;;;;;;;;;;;;;;;;;;;;;;;;;;;;;;;;;;;;;;;;;;
"c1315824";;;"Windows 7";"Rachel's Experiment (D.T.)";"1.0";"2";"1";"1";"2";"1";"1";"2014-10-16 12:58:36.634";"2014-10-16 13:14:46.878";"1";"1";"1";"56";"55";"module.training_block2.exec-6133.GoNoGo2";;;;;;;;;;;;;;;;;;;;;;;;;;;;;;;;;;;"1261";"2014-10-16 13:04:37.759";"NST_correctLoc";"14";"1";"FINISHED";"RIGHT";"success";"468";"0";"2014-10-16 13:04:36.495";"2";;;;;;;;;;;;;;;;;;;;;;;;;;;;;;;;;;;;;;;;;;;;;
"c1315824";;;"Windows 7";"Rachel's Experiment (D.T.)";"1.0";"2";"1";"1";"2";"1";"1";"2014-10-16 12:58:36.634";"2014-10-16 13:14:46.878";"1";"1";"1";"57";"56";"module.training_block2.exec-6133.GoNoGo2";;;;;;;;;;;;;;;;;;;;;;;;;;;;;;;;;;;"1261";"2014-10-16 13:04:40.302";"NST_correctLoc";"13";"0";"FINISHED";"LEFT";"success";"413";"0";"2014-10-16 13:04:39.038";"2";;;;;;;;;;;;;;;;;;;;;;;;;;;;;;;;;;;;;;;;;;;;;
"c1315824";;;"Windows 7";"Rachel's Experiment (D.T.)";"1.0";"2";"1";"1";"2";"1";"1";"2014-10-16 12:58:36.634";"2014-10-16 13:14:46.878";"1";"1";"1";"58";"57";"module.training_block2.exec-6133.GoNoGo2";;;;;;;;;;;;;;;;;;;;;;;;;;;;;;;;;;;"1261";"2014-10-16 13:04:42.845";"ST_correctStop";"7";"1";"FINISHED";"NONE";"success";"0";"1";"2014-10-16 13:04:41.581";"1";;;;;;;;;;;;;;;;;;;;;;;;;;;;;;;;;;;;;;;;;;;;;
"c1315824";;;"Windows 7";"Rachel's Experiment (D.T.)";"1.0";"2";"1";"1";"2";"1";"1";"2014-10-16 12:58:36.634";"2014-10-16 13:14:46.878";"1";"1";"1";"59";"58";"module.training_block2.exec-6133.GoNoGo2";;;;;;;;;;;;;;;;;;;;;;;;;;;;;;;;;;;"1261";"2014-10-16 13:04:45.387";"ST_correctStop";"32";"1";"FINISHED";"NONE";"success";"0";"1";"2014-10-16 13:04:44.124";"3";;;;;;;;;;;;;;;;;;;;;;;;;;;;;;;;;;;;;;;;;;;;;
"c1315824";;;"Windows 7";"Rachel's Experiment (D.T.)";"1.0";"2";"1";"1";"2";"1";"1";"2014-10-16 12:58:36.634";"2014-10-16 13:14:46.878";"1";"1";"1";"60";"59";"module.training_block2.exec-6133.GoNoGo2";;;;;;;;;;;;;;;;;;;;;;;;;;;;;;;;;;;"1261";"2014-10-16 13:04:47.993";"ST_correctStop";"27";"0";"FINISHED";"NONE";"success";"0";"1";"2014-10-16 13:04:46.729";"3";;;;;;;;;;;;;;;;;;;;;;;;;;;;;;;;;;;;;;;;;;;;;
"c1315824";;;"Windows 7";"Rachel's Experiment (D.T.)";"1.0";"2";"1";"1";"2";"1";"1";"2014-10-16 12:58:36.634";"2014-10-16 13:14:46.878";"1";"1";"1";"61";"60";"module.training_block2.exec-6133.GoNoGo2";;;;;;;;;;;;;;;;;;;;;;;;;;;;;;;;;;;"1261";"2014-10-16 13:04:50.535";"ST_correctStop";"8";"1";"FINISHED";"NONE";"success";"0";"1";"2014-10-16 13:04:49.272";"1";;;;;;;;;;;;;;;;;;;;;;;;;;;;;;;;;;;;;;;;;;;;;
"c1315824";;;"Windows 7";"Rachel's Experiment (D.T.)";"1.0";"2";"1";"1";"2";"1";"1";"2014-10-16 12:58:36.634";"2014-10-16 13:14:46.878";"1";"1";"1";"62";"61";"module.training_block2.exec-6133.GoNoGo2";;;;;;;;;;;;;;;;;;;;;;;;;;;;;;;;;;;"1261";"2014-10-16 13:04:53.094";"NST_correctLoc";"35";"0";"FINISHED";"LEFT";"success";"565";"0";"2014-10-16 13:04:51.830";"3";;;;;;;;;;;;;;;;;;;;;;;;;;;;;;;;;;;;;;;;;;;;;
"c1315824";;;"Windows 7";"Rachel's Experiment (D.T.)";"1.0";"2";"1";"1";"2";"1";"1";"2014-10-16 12:58:36.634";"2014-10-16 13:14:46.878";"1";"1";"1";"63";"62";"module.training_block2.exec-6133.GoNoGo2";;;;;;;;;;;;;;;;;;;;;;;;;;;;;;;;;;;"1261";"2014-10-16 13:04:55.637";"ST_correctStop";"21";"1";"FINISHED";"NONE";"success";"0";"1";"2014-10-16 13:04:54.373";"3";;;;;;;;;;;;;;;;;;;;;;;;;;;;;;;;;;;;;;;;;;;;;
"c1315824";;;"Windows 7";"Rachel's Experiment (D.T.)";"1.0";"2";"1";"1";"2";"1";"1";"2014-10-16 12:58:36.634";"2014-10-16 13:14:46.878";"1";"1";"1";"64";"63";"module.training_block2.exec-6133.GoNoGo2";;;;;;;;;;;;;;;;;;;;;;;;;;;;;;;;;;;"1261";"2014-10-16 13:04:58.179";"ST_correctStop";"5";"0";"FINISHED";"NONE";"success";"0";"1";"2014-10-16 13:04:56.916";"1";;;;;;;;;;;;;;;;;;;;;;;;;;;;;;;;;;;;;;;;;;;;;
"c1315824";;;"Windows 7";"Rachel's Experiment (D.T.)";"1.0";"2";"1";"1";"2";"1";"1";"2014-10-16 12:58:36.634";"2014-10-16 13:14:46.878";"1";"1";"1";"65";"64";"module.training_block2.exec-6133.GoNoGo2";;;;;;;;;;;;;;;;;;;;;;;;;;;;;;;;;;;"1261";"2014-10-16 13:05:00.722";"ST_failedStop";"4";"0";"FINISHED";"LEFT";"failure";"624";"1";"2014-10-16 13:04:59.459";"1";;;;;;;;;;;;;;;;;;;;;;;;;;;;;;;;;;;;;;;;;;;;;
"c1315824";;;"Windows 7";"Rachel's Experiment (D.T.)";"1.0";"2";"1";"1";"2";"1";"1";"2014-10-16 12:58:36.634";"2014-10-16 13:14:46.878";"1";"1";"1";"66";"65";"module.training_block2.exec-6133.GoNoGo2";;;;;;;;;;;;;;;;;;;;;;;;;;;;;;;;;;;"1261";"2014-10-16 13:05:03.265";"NST_correctLoc";"12";"1";"FINISHED";"RIGHT";"success";"769";"0";"2014-10-16 13:05:02.001";"2";;;;;;;;;;;;;;;;;;;;;;;;;;;;;;;;;;;;;;;;;;;;;
"c1315824";;;"Windows 7";"Rachel's Experiment (D.T.)";"1.0";"2";"1";"1";"2";"1";"1";"2014-10-16 12:58:36.634";"2014-10-16 13:14:46.878";"1";"1";"1";"67";"66";"module.training_block2.exec-6133.GoNoGo2";;;;;;;;;;;;;;;;;;;;;;;;;;;;;;;;;;;"1261";"2014-10-16 13:05:05.808";"ST_correctStop";"34";"0";"FINISHED";"NONE";"success";"0";"1";"2014-10-16 13:05:04.544";"3";;;;;;;;;;;;;;;;;;;;;;;;;;;;;;;;;;;;;;;;;;;;;
"c1315824";;;"Windows 7";"Rachel's Experiment (D.T.)";"1.0";"2";"1";"1";"2";"1";"1";"2014-10-16 12:58:36.634";"2014-10-16 13:14:46.878";"1";"1";"1";"68";"67";"module.training_block2.exec-6133.GoNoGo2";;;;;;;;;;;;;;;;;;;;;;;;;;;;;;;;;;;"1261";"2014-10-16 13:05:08.351";"ST_correctStop";"33";"1";"FINISHED";"NONE";"success";"0";"1";"2014-10-16 13:05:07.087";"3";;;;;;;;;;;;;;;;;;;;;;;;;;;;;;;;;;;;;;;;;;;;;
"c1315824";;;"Windows 7";"Rachel's Experiment (D.T.)";"1.0";"2";"1";"1";"2";"1";"1";"2014-10-16 12:58:36.634";"2014-10-16 13:14:46.878";"1";"1";"1";"69";"68";"module.training_block2.exec-6133.GoNoGo2";;;;;;;;;;;;;;;;;;;;;;;;;;;;;;;;;;;"1261";"2014-10-16 13:05:10.893";"NST_correctLoc";"15";"0";"FINISHED";"LEFT";"success";"917";"0";"2014-10-16 13:05:09.630";"2";;;;;;;;;;;;;;;;;;;;;;;;;;;;;;;;;;;;;;;;;;;;;
"c1315824";;;"Windows 7";"Rachel's Experiment (D.T.)";"1.0";"2";"1";"1";"2";"1";"1";"2014-10-16 12:58:36.634";"2014-10-16 13:14:46.878";"1";"1";"1";"70";"69";"module.training_block2.exec-6133.GoNoGo2";;;;;;;;;;;;;;;;;;;;;;;;;;;;;;;;;;;"1261";"2014-10-16 13:05:13.436";"ST_correctStop";"23";"1";"FINISHED";"NONE";"success";"0";"1";"2014-10-16 13:05:12.173";"3";;;;;;;;;;;;;;;;;;;;;;;;;;;;;;;;;;;;;;;;;;;;;
"c1315824";;;"Windows 7";"Rachel's Experiment (D.T.)";"1.0";"2";"1";"1";"2";"1";"1";"2014-10-16 12:58:36.634";"2014-10-16 13:14:46.878";"1";"1";"1";"71";"70";"module.training_block2.exec-6133.GoNoGo2";;;;;;;;;;;;;;;;;;;;;;;;;;;;;;;;;;;"1261";"2014-10-16 13:05:15.979";"NST_correctLoc";"10";"0";"FINISHED";"LEFT";"success";"567";"0";"2014-10-16 13:05:14.715";"2";;;;;;;;;;;;;;;;;;;;;;;;;;;;;;;;;;;;;;;;;;;;;
"c1315824";;;"Windows 7";"Rachel's Experiment (D.T.)";"1.0";"2";"1";"1";"2";"1";"1";"2014-10-16 12:58:36.634";"2014-10-16 13:14:46.878";"1";"1";"1";"72";"71";"module.training_block2.exec-6133.GoNoGo2";;;;;;;;;;;;;;;;;;;;;;;;;;;;;;;;;;;"1261";"2014-10-16 13:05:18.522";"NST_correctLoc";"17";"0";"FINISHED";"LEFT";"success";"832";"0";"2014-10-16 13:05:17.258";"2";;;;;;;;;;;;;;;;;;;;;;;;;;;;;;;;;;;;;;;;;;;;;
"c1315824";;;"Windows 7";"Rachel's Experiment (D.T.)";"1.0";"2";"1";"1";"2";"1";"1";"2014-10-16 12:58:36.634";"2014-10-16 13:14:46.878";"1";"1";"1";"73";"72";"module.training_block2.exec-6133.GoNoGo2";;;;;;;;;;;;;;;;;;;;;;;;;;;;;;;;;;;"1261";"2014-10-16 13:05:21.065";"ST_correctStop";"30";"0";"FINISHED";"NONE";"success";"0";"1";"2014-10-16 13:05:19.801";"3";;;;;;;;;;;;;;;;;;;;;;;;;;;;;;;;;;;;;;;;;;;;;
"c1315824";;;"Windows 7";"Rachel's Experiment (D.T.)";"1.0";"2";"1";"1";"2";"1";"1";"2014-10-16 12:58:36.634";"2014-10-16 13:14:46.878";"1";"1";"1";"74";"73";"module.training_block2.exec-6133.GoNoGo2";;;;;;;;;;;;;;;;;;;;;;;;;;;;;;;;;;;"1261";"2014-10-16 13:05:23.607";"NST_correctLoc";"31";"0";"FINISHED";"LEFT";"success";"979";"0";"2014-10-16 13:05:22.344";"3";;;;;;;;;;;;;;;;;;;;;;;;;;;;;;;;;;;;;;;;;;;;;
"c1315824";;;"Windows 7";"Rachel's Experiment (D.T.)";"1.0";"2";"1";"1";"2";"1";"1";"2014-10-16 12:58:36.634";"2014-10-16 13:14:46.878";"1";"1";"1";"75";"74";"module.training_block2.exec-6133.GoNoGo2";;;;;;;;;;;;;;;;;;;;;;;;;;;;;;;;;;;"1261";"2014-10-16 13:05:26.150";"NST_correctLoc";"29";"0";"FINISHED";"LEFT";"success";"668";"0";"2014-10-16 13:05:24.887";"3";;;;;;;;;;;;;;;;;;;;;;;;;;;;;;;;;;;;;;;;;;;;;
"c1315824";;;"Windows 7";"Rachel's Experiment (D.T.)";"1.0";"2";"1";"1";"2";"1";"1";"2014-10-16 12:58:36.634";"2014-10-16 13:14:46.878";"1";"1";"1";"76";"75";"module.training_block2.exec-6133.GoNoGo2";;;;;;;;;;;;;;;;;;;;;;;;;;;;;;;;;;;"1261";"2014-10-16 13:05:28.693";"ST_correctStop";"6";"0";"FINISHED";"NONE";"success";"0";"1";"2014-10-16 13:05:27.429";"1";;;;;;;;;;;;;;;;;;;;;;;;;;;;;;;;;;;;;;;;;;;;;
"c1315824";;;"Windows 7";"Rachel's Experiment (D.T.)";"1.0";"2";"1";"1";"2";"1";"1";"2014-10-16 12:58:36.634";"2014-10-16 13:14:46.878";"1";"1";"1";"77";"76";"module.training_block2.exec-6133.GoNoGo2";;;;;;;;;;;;;;;;;;;;;;;;;;;;;;;;;;;"1261";"2014-10-16 13:05:31.236";"NST_correctLoc";"26";"0";"FINISHED";"LEFT";"success";"510";"0";"2014-10-16 13:05:29.972";"3";;;;;;;;;;;;;;;;;;;;;;;;;;;;;;;;;;;;;;;;;;;;;
"c1315824";;;"Windows 7";"Rachel's Experiment (D.T.)";"1.0";"2";"1";"1";"2";"1";"1";"2014-10-16 12:58:36.634";"2014-10-16 13:14:46.878";"1";"1";"1";"78";"77";"module.training_block2.exec-6133.GoNoGo2";;;;;;;;;;;;;;;;;;;;;;;;;;;;;;;;;;;"1261";"2014-10-16 13:05:33.779";"NST_correctLoc";"18";"0";"FINISHED";"LEFT";"success";"631";"0";"2014-10-16 13:05:32.515";"3";;;;;;;;;;;;;;;;;;;;;;;;;;;;;;;;;;;;;;;;;;;;;
"c1315824";;;"Windows 7";"Rachel's Experiment (D.T.)";"1.0";"2";"1";"1";"2";"1";"1";"2014-10-16 12:58:36.634";"2014-10-16 13:14:46.878";"1";"1";"1";"79";"78";"module.training_block2.exec-6133.GoNoGo2";;;;;;;;;;;;;;;;;;;;;;;;;;;;;;;;;;;"1261";"2014-10-16 13:05:36.321";"NST_correctLoc";"25";"0";"FINISHED";"LEFT";"success";"801";"0";"2014-10-16 13:05:35.058";"3";;;;;;;;;;;;;;;;;;;;;;;;;;;;;;;;;;;;;;;;;;;;;
"c1315824";;;"Windows 7";"Rachel's Experiment (D.T.)";"1.0";"2";"1";"1";"2";"1";"1";"2014-10-16 12:58:36.634";"2014-10-16 13:14:46.878";"1";"1";"1";"80";"79";"module.training_block2.exec-6133.GoNoGo2";;;;;;;;;;;;;;;;;;;;;;;;;;;;;;;;;;;"1261";"2014-10-16 13:05:38.864";"ST_correctStop";"2";"0";"FINISHED";"NONE";"success";"0";"1";"2014-10-16 13:05:37.601";"1";;;;;;;;;;;;;;;;;;;;;;;;;;;;;;;;;;;;;;;;;;;;;
"c1315824";;;"Windows 7";"Rachel's Experiment (D.T.)";"1.0";"2";"1";"1";"2";"1";"1";"2014-10-16 12:58:36.634";"2014-10-16 13:14:46.878";"1";"1";"1";"81";"80";"module.training_block2.exec-6133.GoNoGo2";;;;;;;;;;;;;;;;;;;;;;;;;;;;;;;;;;;"1261";"2014-10-16 13:05:41.407";"NST_correctLoc";"9";"1";"FINISHED";"RIGHT";"success";"675";"0";"2014-10-16 13:05:40.143";"2";;;;;;;;;;;;;;;;;;;;;;;;;;;;;;;;;;;;;;;;;;;;;
"c1315824";;;"Windows 7";"Rachel's Experiment (D.T.)";"1.0";"2";"1";"1";"2";"1";"1";"2014-10-16 12:58:36.634";"2014-10-16 13:14:46.878";"1";"1";"1";"82";"81";"module.training_block2.exec-6133.GoNoGo2";;;;;;;;;;;;;;;;;;;;;;;;;;;;;;;;;;;"1261";"2014-10-16 13:05:43.934";"ST_correctStop";"22";"1";"FINISHED";"NONE";"success";"0";"1";"2014-10-16 13:05:42.671";"3";;;;;;;;;;;;;;;;;;;;;;;;;;;;;;;;;;;;;;;;;;;;;
"c1315824";;;"Windows 7";"Rachel's Experiment (D.T.)";"1.0";"2";"1";"1";"2";"1";"1";"2014-10-16 12:58:36.634";"2014-10-16 13:14:46.878";"1";"1";"1";"83";"82";"module.training_block2.exec-6133.GoNoGo2";;;;;;;;;;;;;;;;;;;;;;;;;;;;;;;;;;;"1257";"2014-10-16 13:05:46.477";"ST_correctStop";"3";"1";"FINISHED";"NONE";"success";"0";"1";"2014-10-16 13:05:45.213";"1";;;;;;;;;;;;;;;;;;;;;;;;;;;;;;;;;;;;;;;;;;;;;
"c1315824";;;"Windows 7";"Rachel's Experiment (D.T.)";"1.0";"2";"1";"1";"2";"1";"1";"2014-10-16 12:58:36.634";"2014-10-16 13:14:46.878";"1";"1";"1";"84";"83";"module.training_block2.exec-6133.GoNoGo2";;;;;;;;;;;;;;;;;;;;;;;;;;;;;;;;;;;"1261";"2014-10-16 13:05:49.035";"NST_correctLoc";"24";"1";"FINISHED";"RIGHT";"success";"567";"0";"2014-10-16 13:05:47.772";"3";;;;;;;;;;;;;;;;;;;;;;;;;;;;;;;;;;;;;;;;;;;;;
"c1315824";;;"Windows 7";"Rachel's Experiment (D.T.)";"1.0";"2";"1";"1";"2";"1";"1";"2014-10-16 12:58:36.634";"2014-10-16 13:14:46.878";"1";"1";"1";"85";"84";"module.training_block2.exec-6133.GoNoGo2";;;;;;;;;;;;;;;;;;;;;;;;;;;;;;;;;;;"1261";"2014-10-16 13:05:51.578";"ST_correctStop";"19";"0";"FINISHED";"NONE";"success";"0";"1";"2014-10-16 13:05:50.315";"3";;;;;;;;;;;;;;;;;;;;;;;;;;;;;;;;;;;;;;;;;;;;;
"c1315824";;;"Windows 7";"Rachel's Experiment (D.T.)";"1.0";"2";"1";"1";"2";"1";"1";"2014-10-16 12:58:36.634";"2014-10-16 13:14:46.878";"1";"1";"1";"86";"85";"module.training_block2.exec-6133.GoNoGo2";;;;;;;;;;;;;;;;;;;;;;;;;;;;;;;;;;;"1261";"2014-10-16 13:05:54.137";"NST_correctLoc";"11";"1";"FINISHED";"RIGHT";"success";"706";"0";"2014-10-16 13:05:52.873";"2";;;;;;;;;;;;;;;;;;;;;;;;;;;;;;;;;;;;;;;;;;;;;
"c1315824";;;"Windows 7";"Rachel's Experiment (D.T.)";"1.0";"2";"1";"1";"2";"1";"1";"2014-10-16 12:58:36.634";"2014-10-16 13:14:46.878";"1";"1";"1";"87";"86";"module.training_block2.exec-6133.GoNoGo2";;;;;;;;;;;;;;;;;;;;;;;;;;;;;;;;;;;"1261";"2014-10-16 13:05:56.679";"NST_correctLoc";"28";"1";"FINISHED";"RIGHT";"success";"891";"0";"2014-10-16 13:05:55.416";"3";;;;;;;;;;;;;;;;;;;;;;;;;;;;;;;;;;;;;;;;;;;;;
"c1315824";;;"Windows 7";"Rachel's Experiment (D.T.)";"1.0";"2";"1";"1";"2";"1";"1";"2014-10-16 12:58:36.634";"2014-10-16 13:14:46.878";"1";"1";"1";"88";"87";"module.training_block3.exec-7943.GoNoGo3";;;;;;;;;;;;;;;;;;;;;;;;;;;;;;;;;;;;;;;;;;;;;;;"1261";"2014-10-16 13:06:09.300";"NST_correctLoc";"19";"0";"FINISHED";"LEFT";"success";"670";"0";"2014-10-16 13:06:08.036";"3";;;;;;;;;;;;;;;;;;;;;;;;;;;;;;;;;
"c1315824";;;"Windows 7";"Rachel's Experiment (D.T.)";"1.0";"2";"1";"1";"2";"1";"1";"2014-10-16 12:58:36.634";"2014-10-16 13:14:46.878";"1";"1";"1";"89";"88";"module.training_block3.exec-7943.GoNoGo3";;;;;;;;;;;;;;;;;;;;;;;;;;;;;;;;;;;;;;;;;;;;;;;"1261";"2014-10-16 13:06:11.843";"ST_correctStop";"32";"1";"FINISHED";"NONE";"success";"0";"1";"2014-10-16 13:06:10.579";"3";;;;;;;;;;;;;;;;;;;;;;;;;;;;;;;;;
"c1315824";;;"Windows 7";"Rachel's Experiment (D.T.)";"1.0";"2";"1";"1";"2";"1";"1";"2014-10-16 12:58:36.634";"2014-10-16 13:14:46.878";"1";"1";"1";"90";"89";"module.training_block3.exec-7943.GoNoGo3";;;;;;;;;;;;;;;;;;;;;;;;;;;;;;;;;;;;;;;;;;;;;;;"1261";"2014-10-16 13:06:14.385";"ST_correctStop";"0";"1";"FINISHED";"NONE";"success";"0";"1";"2014-10-16 13:06:13.122";"1";;;;;;;;;;;;;;;;;;;;;;;;;;;;;;;;;
"c1315824";;;"Windows 7";"Rachel's Experiment (D.T.)";"1.0";"2";"1";"1";"2";"1";"1";"2014-10-16 12:58:36.634";"2014-10-16 13:14:46.878";"1";"1";"1";"91";"90";"module.training_block3.exec-7943.GoNoGo3";;;;;;;;;;;;;;;;;;;;;;;;;;;;;;;;;;;;;;;;;;;;;;;"1261";"2014-10-16 13:06:16.928";"ST_correctStop";"5";"1";"FINISHED";"NONE";"success";"0";"1";"2014-10-16 13:06:15.665";"1";;;;;;;;;;;;;;;;;;;;;;;;;;;;;;;;;
"c1315824";;;"Windows 7";"Rachel's Experiment (D.T.)";"1.0";"2";"1";"1";"2";"1";"1";"2014-10-16 12:58:36.634";"2014-10-16 13:14:46.878";"1";"1";"1";"92";"91";"module.training_block3.exec-7943.GoNoGo3";;;;;;;;;;;;;;;;;;;;;;;;;;;;;;;;;;;;;;;;;;;;;;;"1261";"2014-10-16 13:06:19.471";"ST_correctStop";"7";"0";"FINISHED";"NONE";"success";"0";"1";"2014-10-16 13:06:18.208";"1";;;;;;;;;;;;;;;;;;;;;;;;;;;;;;;;;
"c1315824";;;"Windows 7";"Rachel's Experiment (D.T.)";"1.0";"2";"1";"1";"2";"1";"1";"2014-10-16 12:58:36.634";"2014-10-16 13:14:46.878";"1";"1";"1";"93";"92";"module.training_block3.exec-7943.GoNoGo3";;;;;;;;;;;;;;;;;;;;;;;;;;;;;;;;;;;;;;;;;;;;;;;"1261";"2014-10-16 13:06:22.014";"NST_correctLoc";"9";"1";"FINISHED";"RIGHT";"success";"636";"0";"2014-10-16 13:06:20.750";"2";;;;;;;;;;;;;;;;;;;;;;;;;;;;;;;;;
"c1315824";;;"Windows 7";"Rachel's Experiment (D.T.)";"1.0";"2";"1";"1";"2";"1";"1";"2014-10-16 12:58:36.634";"2014-10-16 13:14:46.878";"1";"1";"1";"94";"93";"module.training_block3.exec-7943.GoNoGo3";;;;;;;;;;;;;;;;;;;;;;;;;;;;;;;;;;;;;;;;;;;;;;;"1261";"2014-10-16 13:06:24.557";"NST_correctLoc";"17";"0";"FINISHED";"LEFT";"success";"773";"0";"2014-10-16 13:06:23.293";"2";;;;;;;;;;;;;;;;;;;;;;;;;;;;;;;;;
"c1315824";;;"Windows 7";"Rachel's Experiment (D.T.)";"1.0";"2";"1";"1";"2";"1";"1";"2014-10-16 12:58:36.634";"2014-10-16 13:14:46.878";"1";"1";"1";"95";"94";"module.training_block3.exec-7943.GoNoGo3";;;;;;;;;;;;;;;;;;;;;;;;;;;;;;;;;;;;;;;;;;;;;;;"1261";"2014-10-16 13:06:27.100";"ST_correctStop";"24";"0";"FINISHED";"NONE";"success";"0";"1";"2014-10-16 13:06:25.836";"3";;;;;;;;;;;;;;;;;;;;;;;;;;;;;;;;;
"c1315824";;;"Windows 7";"Rachel's Experiment (D.T.)";"1.0";"2";"1";"1";"2";"1";"1";"2014-10-16 12:58:36.634";"2014-10-16 13:14:46.878";"1";"1";"1";"96";"95";"module.training_block3.exec-7943.GoNoGo3";;;;;;;;;;;;;;;;;;;;;;;;;;;;;;;;;;;;;;;;;;;;;;;"1261";"2014-10-16 13:06:29.642";"ST_correctStop";"23";"0";"FINISHED";"NONE";"success";"0";"1";"2014-10-16 13:06:28.379";"3";;;;;;;;;;;;;;;;;;;;;;;;;;;;;;;;;
"c1315824";;;"Windows 7";"Rachel's Experiment (D.T.)";"1.0";"2";"1";"1";"2";"1";"1";"2014-10-16 12:58:36.634";"2014-10-16 13:14:46.878";"1";"1";"1";"97";"96";"module.training_block3.exec-7943.GoNoGo3";;;;;;;;;;;;;;;;;;;;;;;;;;;;;;;;;;;;;;;;;;;;;;;"1261";"2014-10-16 13:06:32.185";"NST_correctLoc";"31";"0";"FINISHED";"LEFT";"success";"809";"0";"2014-10-16 13:06:30.922";"3";;;;;;;;;;;;;;;;;;;;;;;;;;;;;;;;;
"c1315824";;;"Windows 7";"Rachel's Experiment (D.T.)";"1.0";"2";"1";"1";"2";"1";"1";"2014-10-16 12:58:36.634";"2014-10-16 13:14:46.878";"1";"1";"1";"98";"97";"module.training_block3.exec-7943.GoNoGo3";;;;;;;;;;;;;;;;;;;;;;;;;;;;;;;;;;;;;;;;;;;;;;;"1261";"2014-10-16 13:06:34.728";"NST_correctLoc";"13";"1";"FINISHED";"RIGHT";"success";"818";"0";"2014-10-16 13:06:33.464";"2";;;;;;;;;;;;;;;;;;;;;;;;;;;;;;;;;
"c1315824";;;"Windows 7";"Rachel's Experiment (D.T.)";"1.0";"2";"1";"1";"2";"1";"1";"2014-10-16 12:58:36.634";"2014-10-16 13:14:46.878";"1";"1";"1";"99";"98";"module.training_block3.exec-7943.GoNoGo3";;;;;;;;;;;;;;;;;;;;;;;;;;;;;;;;;;;;;;;;;;;;;;;"1261";"2014-10-16 13:06:37.286";"NST_correctLoc";"12";"0";"FINISHED";"LEFT";"success";"668";"0";"2014-10-16 13:06:36.023";"2";;;;;;;;;;;;;;;;;;;;;;;;;;;;;;;;;
"c1315824";;;"Windows 7";"Rachel's Experiment (D.T.)";"1.0";"2";"1";"1";"2";"1";"1";"2014-10-16 12:58:36.634";"2014-10-16 13:14:46.878";"1";"1";"1";"100";"99";"module.training_block3.exec-7943.GoNoGo3";;;;;;;;;;;;;;;;;;;;;;;;;;;;;;;;;;;;;;;;;;;;;;;"1261";"2014-10-16 13:06:39.829";"NST_correctLoc";"34";"1";"FINISHED";"RIGHT";"success";"693";"0";"2014-10-16 13:06:38.566";"3";;;;;;;;;;;;;;;;;;;;;;;;;;;;;;;;;
"c1315824";;;"Windows 7";"Rachel's Experiment (D.T.)";"1.0";"2";"1";"1";"2";"1";"1";"2014-10-16 12:58:36.634";"2014-10-16 13:14:46.878";"1";"1";"1";"101";"100";"module.training_block3.exec-7943.GoNoGo3";;;;;;;;;;;;;;;;;;;;;;;;;;;;;;;;;;;;;;;;;;;;;;;"1261";"2014-10-16 13:06:42.372";"NST_correctLoc";"30";"0";"FINISHED";"LEFT";"success";"926";"0";"2014-10-16 13:06:41.108";"3";;;;;;;;;;;;;;;;;;;;;;;;;;;;;;;;;
"c1315824";;;"Windows 7";"Rachel's Experiment (D.T.)";"1.0";"2";"1";"1";"2";"1";"1";"2014-10-16 12:58:36.634";"2014-10-16 13:14:46.878";"1";"1";"1";"102";"101";"module.training_block3.exec-7943.GoNoGo3";;;;;;;;;;;;;;;;;;;;;;;;;;;;;;;;;;;;;;;;;;;;;;;"1261";"2014-10-16 13:06:44.915";"NST_correctLoc";"22";"0";"FINISHED";"LEFT";"success";"879";"0";"2014-10-16 13:06:43.651";"3";;;;;;;;;;;;;;;;;;;;;;;;;;;;;;;;;
"c1315824";;;"Windows 7";"Rachel's Experiment (D.T.)";"1.0";"2";"1";"1";"2";"1";"1";"2014-10-16 12:58:36.634";"2014-10-16 13:14:46.878";"1";"1";"1";"103";"102";"module.training_block3.exec-7943.GoNoGo3";;;;;;;;;;;;;;;;;;;;;;;;;;;;;;;;;;;;;;;;;;;;;;;"1261";"2014-10-16 13:06:47.458";"ST_correctStop";"25";"1";"FINISHED";"NONE";"success";"0";"1";"2014-10-16 13:06:46.194";"3";;;;;;;;;;;;;;;;;;;;;;;;;;;;;;;;;
"c1315824";;;"Windows 7";"Rachel's Experiment (D.T.)";"1.0";"2";"1";"1";"2";"1";"1";"2014-10-16 12:58:36.634";"2014-10-16 13:14:46.878";"1";"1";"1";"104";"103";"module.training_block3.exec-7943.GoNoGo3";;;;;;;;;;;;;;;;;;;;;;;;;;;;;;;;;;;;;;;;;;;;;;;"1261";"2014-10-16 13:06:49.985";"ST_correctStop";"35";"1";"FINISHED";"NONE";"success";"0";"1";"2014-10-16 13:06:48.721";"3";;;;;;;;;;;;;;;;;;;;;;;;;;;;;;;;;
"c1315824";;;"Windows 7";"Rachel's Experiment (D.T.)";"1.0";"2";"1";"1";"2";"1";"1";"2014-10-16 12:58:36.634";"2014-10-16 13:14:46.878";"1";"1";"1";"105";"104";"module.training_block3.exec-7943.GoNoGo3";;;;;;;;;;;;;;;;;;;;;;;;;;;;;;;;;;;;;;;;;;;;;;;"1261";"2014-10-16 13:06:52.528";"NST_correctLoc";"15";"1";"FINISHED";"RIGHT";"success";"826";"0";"2014-10-16 13:06:51.264";"2";;;;;;;;;;;;;;;;;;;;;;;;;;;;;;;;;
"c1315824";;;"Windows 7";"Rachel's Experiment (D.T.)";"1.0";"2";"1";"1";"2";"1";"1";"2014-10-16 12:58:36.634";"2014-10-16 13:14:46.878";"1";"1";"1";"106";"105";"module.training_block3.exec-7943.GoNoGo3";;;;;;;;;;;;;;;;;;;;;;;;;;;;;;;;;;;;;;;;;;;;;;;"1261";"2014-10-16 13:06:55.086";"ST_correctStop";"20";"0";"FINISHED";"NONE";"success";"0";"1";"2014-10-16 13:06:53.822";"3";;;;;;;;;;;;;;;;;;;;;;;;;;;;;;;;;
"c1315824";;;"Windows 7";"Rachel's Experiment (D.T.)";"1.0";"2";"1";"1";"2";"1";"1";"2014-10-16 12:58:36.634";"2014-10-16 13:14:46.878";"1";"1";"1";"107";"106";"module.training_block3.exec-7943.GoNoGo3";;;;;;;;;;;;;;;;;;;;;;;;;;;;;;;;;;;;;;;;;;;;;;;"1261";"2014-10-16 13:06:57.629";"ST_correctStop";"27";"0";"FINISHED";"NONE";"success";"0";"1";"2014-10-16 13:06:56.365";"3";;;;;;;;;;;;;;;;;;;;;;;;;;;;;;;;;
"c1315824";;;"Windows 7";"Rachel's Experiment (D.T.)";"1.0";"2";"1";"1";"2";"1";"1";"2014-10-16 12:58:36.634";"2014-10-16 13:14:46.878";"1";"1";"1";"108";"107";"module.training_block3.exec-7943.GoNoGo3";;;;;;;;;;;;;;;;;;;;;;;;;;;;;;;;;;;;;;;;;;;;;;;"1261";"2014-10-16 13:07:00.172";"NST_correctLoc";"26";"1";"FINISHED";"RIGHT";"success";"662";"0";"2014-10-16 13:06:58.908";"3";;;;;;;;;;;;;;;;;;;;;;;;;;;;;;;;;
"c1315824";;;"Windows 7";"Rachel's Experiment (D.T.)";"1.0";"2";"1";"1";"2";"1";"1";"2014-10-16 12:58:36.634";"2014-10-16 13:14:46.878";"1";"1";"1";"109";"108";"module.training_block3.exec-7943.GoNoGo3";;;;;;;;;;;;;;;;;;;;;;;;;;;;;;;;;;;;;;;;;;;;;;;"1261";"2014-10-16 13:07:02.714";"ST_correctStop";"18";"1";"FINISHED";"NONE";"success";"0";"1";"2014-10-16 13:07:01.451";"3";;;;;;;;;;;;;;;;;;;;;;;;;;;;;;;;;
"c1315824";;;"Windows 7";"Rachel's Experiment (D.T.)";"1.0";"2";"1";"1";"2";"1";"1";"2014-10-16 12:58:36.634";"2014-10-16 13:14:46.878";"1";"1";"1";"110";"109";"module.training_block3.exec-7943.GoNoGo3";;;;;;;;;;;;;;;;;;;;;;;;;;;;;;;;;;;;;;;;;;;;;;;"1261";"2014-10-16 13:07:05.257";"ST_correctStop";"8";"0";"FINISHED";"NONE";"success";"0";"1";"2014-10-16 13:07:03.994";"1";;;;;;;;;;;;;;;;;;;;;;;;;;;;;;;;;
"c1315824";;;"Windows 7";"Rachel's Experiment (D.T.)";"1.0";"2";"1";"1";"2";"1";"1";"2014-10-16 12:58:36.634";"2014-10-16 13:14:46.878";"1";"1";"1";"111";"110";"module.training_block3.exec-7943.GoNoGo3";;;;;;;;;;;;;;;;;;;;;;;;;;;;;;;;;;;;;;;;;;;;;;;"1262";"2014-10-16 13:07:07.784";"NST_correctLoc";"16";"1";"FINISHED";"RIGHT";"success";"793";"0";"2014-10-16 13:07:06.521";"2";;;;;;;;;;;;;;;;;;;;;;;;;;;;;;;;;
"c1315824";;;"Windows 7";"Rachel's Experiment (D.T.)";"1.0";"2";"1";"1";"2";"1";"1";"2014-10-16 12:58:36.634";"2014-10-16 13:14:46.878";"1";"1";"1";"112";"111";"module.training_block3.exec-7943.GoNoGo3";;;;;;;;;;;;;;;;;;;;;;;;;;;;;;;;;;;;;;;;;;;;;;;"1261";"2014-10-16 13:07:10.312";"ST_correctStop";"21";"0";"FINISHED";"NONE";"success";"0";"1";"2014-10-16 13:07:09.048";"3";;;;;;;;;;;;;;;;;;;;;;;;;;;;;;;;;
"c1315824";;;"Windows 7";"Rachel's Experiment (D.T.)";"1.0";"2";"1";"1";"2";"1";"1";"2014-10-16 12:58:36.634";"2014-10-16 13:14:46.878";"1";"1";"1";"113";"112";"module.training_block3.exec-7943.GoNoGo3";;;;;;;;;;;;;;;;;;;;;;;;;;;;;;;;;;;;;;;;;;;;;;;"1261";"2014-10-16 13:07:12.854";"ST_correctStop";"4";"1";"FINISHED";"NONE";"success";"0";"1";"2014-10-16 13:07:11.591";"1";;;;;;;;;;;;;;;;;;;;;;;;;;;;;;;;;
"c1315824";;;"Windows 7";"Rachel's Experiment (D.T.)";"1.0";"2";"1";"1";"2";"1";"1";"2014-10-16 12:58:36.634";"2014-10-16 13:14:46.878";"1";"1";"1";"114";"113";"module.training_block3.exec-7943.GoNoGo3";;;;;;;;;;;;;;;;;;;;;;;;;;;;;;;;;;;;;;;;;;;;;;;"1262";"2014-10-16 13:07:15.382";"ST_correctStop";"1";"0";"FINISHED";"NONE";"success";"0";"1";"2014-10-16 13:07:14.118";"1";;;;;;;;;;;;;;;;;;;;;;;;;;;;;;;;;
"c1315824";;;"Windows 7";"Rachel's Experiment (D.T.)";"1.0";"2";"1";"1";"2";"1";"1";"2014-10-16 12:58:36.634";"2014-10-16 13:14:46.878";"1";"1";"1";"115";"114";"module.training_block3.exec-7943.GoNoGo3";;;;;;;;;;;;;;;;;;;;;;;;;;;;;;;;;;;;;;;;;;;;;;;"1261";"2014-10-16 13:07:17.924";"ST_correctStop";"2";"0";"FINISHED";"NONE";"success";"0";"1";"2014-10-16 13:07:16.661";"1";;;;;;;;;;;;;;;;;;;;;;;;;;;;;;;;;
"c1315824";;;"Windows 7";"Rachel's Experiment (D.T.)";"1.0";"2";"1";"1";"2";"1";"1";"2014-10-16 12:58:36.634";"2014-10-16 13:14:46.878";"1";"1";"1";"116";"115";"module.training_block3.exec-7943.GoNoGo3";;;;;;;;;;;;;;;;;;;;;;;;;;;;;;;;;;;;;;;;;;;;;;;"1261";"2014-10-16 13:07:20.452";"ST_correctStop";"3";"0";"FINISHED";"NONE";"success";"0";"1";"2014-10-16 13:07:19.188";"1";;;;;;;;;;;;;;;;;;;;;;;;;;;;;;;;;
"c1315824";;;"Windows 7";"Rachel's Experiment (D.T.)";"1.0";"2";"1";"1";"2";"1";"1";"2014-10-16 12:58:36.634";"2014-10-16 13:14:46.878";"1";"1";"1";"117";"116";"module.training_block3.exec-7943.GoNoGo3";;;;;;;;;;;;;;;;;;;;;;;;;;;;;;;;;;;;;;;;;;;;;;;"1261";"2014-10-16 13:07:22.994";"NST_correctLoc";"10";"0";"FINISHED";"LEFT";"success";"607";"0";"2014-10-16 13:07:21.731";"2";;;;;;;;;;;;;;;;;;;;;;;;;;;;;;;;;
"c1315824";;;"Windows 7";"Rachel's Experiment (D.T.)";"1.0";"2";"1";"1";"2";"1";"1";"2014-10-16 12:58:36.634";"2014-10-16 13:14:46.878";"1";"1";"1";"118";"117";"module.training_block3.exec-7943.GoNoGo3";;;;;;;;;;;;;;;;;;;;;;;;;;;;;;;;;;;;;;;;;;;;;;;"1261";"2014-10-16 13:07:25.537";"NST_correctLoc";"33";"1";"FINISHED";"RIGHT";"success";"904";"0";"2014-10-16 13:07:24.274";"3";;;;;;;;;;;;;;;;;;;;;;;;;;;;;;;;;
"c1315824";;;"Windows 7";"Rachel's Experiment (D.T.)";"1.0";"2";"1";"1";"2";"1";"1";"2014-10-16 12:58:36.634";"2014-10-16 13:14:46.878";"1";"1";"1";"119";"118";"module.training_block3.exec-7943.GoNoGo3";;;;;;;;;;;;;;;;;;;;;;;;;;;;;;;;;;;;;;;;;;;;;;;"1262";"2014-10-16 13:07:28.064";"NST_correctLoc";"28";"1";"FINISHED";"RIGHT";"success";"849";"0";"2014-10-16 13:07:26.801";"3";;;;;;;;;;;;;;;;;;;;;;;;;;;;;;;;;
"c1315824";;;"Windows 7";"Rachel's Experiment (D.T.)";"1.0";"2";"1";"1";"2";"1";"1";"2014-10-16 12:58:36.634";"2014-10-16 13:14:46.878";"1";"1";"1";"120";"119";"module.training_block3.exec-7943.GoNoGo3";;;;;;;;;;;;;;;;;;;;;;;;;;;;;;;;;;;;;;;;;;;;;;;"1262";"2014-10-16 13:07:30.607";"NST_correctLoc";"14";"1";"FINISHED";"RIGHT";"success";"730";"0";"2014-10-16 13:07:29.344";"2";;;;;;;;;;;;;;;;;;;;;;;;;;;;;;;;;
"c1315824";;;"Windows 7";"Rachel's Experiment (D.T.)";"1.0";"2";"1";"1";"2";"1";"1";"2014-10-16 12:58:36.634";"2014-10-16 13:14:46.878";"1";"1";"1";"121";"120";"module.training_block3.exec-7943.GoNoGo3";;;;;;;;;;;;;;;;;;;;;;;;;;;;;;;;;;;;;;;;;;;;;;;"1262";"2014-10-16 13:07:33.134";"NST_correctLoc";"11";"1";"FINISHED";"RIGHT";"success";"523";"0";"2014-10-16 13:07:31.871";"2";;;;;;;;;;;;;;;;;;;;;;;;;;;;;;;;;
"c1315824";;;"Windows 7";"Rachel's Experiment (D.T.)";"1.0";"2";"1";"1";"2";"1";"1";"2014-10-16 12:58:36.634";"2014-10-16 13:14:46.878";"1";"1";"1";"122";"121";"module.training_block3.exec-7943.GoNoGo3";;;;;;;;;;;;;;;;;;;;;;;;;;;;;;;;;;;;;;;;;;;;;;;"1261";"2014-10-16 13:07:35.662";"NST_correctLoc";"29";"0";"FINISHED";"LEFT";"success";"1180";"0";"2014-10-16 13:07:34.398";"3";;;;;;;;;;;;;;;;;;;;;;;;;;;;;;;;;
"c1315824";;;"Windows 7";"Rachel's Experiment (D.T.)";"1.0";"2";"1";"1";"2";"1";"1";"2014-10-16 12:58:36.634";"2014-10-16 13:14:46.878";"1";"1";"1";"123";"122";"module.training_block3.exec-7943.GoNoGo3";;;;;;;;;;;;;;;;;;;;;;;;;;;;;;;;;;;;;;;;;;;;;;;"1261";"2014-10-16 13:07:38.204";"ST_failedStop";"6";"0";"FINISHED";"LEFT";"failure";"509";"1";"2014-10-16 13:07:36.941";"1";;;;;;;;;;;;;;;;;;;;;;;;;;;;;;;;;
"c1315824";;;"Windows 7";"Rachel's Experiment (D.T.)";"1.0";"2";"1";"1";"2";"1";"1";"2014-10-16 12:58:36.634";"2014-10-16 13:14:46.878";"1";"1";"1";"124";"123";"module.training_block4.exec-1033.GoNoGo4";;;;;;;;;;;;;;;;;;;;;;;;;;;;;;;;;;;;;;;;;;;;;;;;;;;;;;;;;;;"1261";"2014-10-16 13:07:59.186";"ST_failedStop";"24";"1";"FINISHED";"RIGHT";"failure";"599";"1";"2014-10-16 13:07:57.923";"3";;;;;;;;;;;;;;;;;;;;;
"c1315824";;;"Windows 7";"Rachel's Experiment (D.T.)";"1.0";"2";"1";"1";"2";"1";"1";"2014-10-16 12:58:36.634";"2014-10-16 13:14:46.878";"1";"1";"1";"125";"124";"module.training_block4.exec-1033.GoNoGo4";;;;;;;;;;;;;;;;;;;;;;;;;;;;;;;;;;;;;;;;;;;;;;;;;;;;;;;;;;;"1261";"2014-10-16 13:08:01.714";"ST_correctStop";"34";"0";"FINISHED";"NONE";"success";"0";"1";"2014-10-16 13:08:00.450";"3";;;;;;;;;;;;;;;;;;;;;
"c1315824";;;"Windows 7";"Rachel's Experiment (D.T.)";"1.0";"2";"1";"1";"2";"1";"1";"2014-10-16 12:58:36.634";"2014-10-16 13:14:46.878";"1";"1";"1";"126";"125";"module.training_block4.exec-1033.GoNoGo4";;;;;;;;;;;;;;;;;;;;;;;;;;;;;;;;;;;;;;;;;;;;;;;;;;;;;;;;;;;"1261";"2014-10-16 13:08:04.241";"ST_correctStop";"8";"0";"FINISHED";"NONE";"success";"0";"1";"2014-10-16 13:08:02.977";"1";;;;;;;;;;;;;;;;;;;;;
"c1315824";;;"Windows 7";"Rachel's Experiment (D.T.)";"1.0";"2";"1";"1";"2";"1";"1";"2014-10-16 12:58:36.634";"2014-10-16 13:14:46.878";"1";"1";"1";"127";"126";"module.training_block4.exec-1033.GoNoGo4";;;;;;;;;;;;;;;;;;;;;;;;;;;;;;;;;;;;;;;;;;;;;;;;;;;;;;;;;;;"1261";"2014-10-16 13:08:06.768";"NST_correctLoc";"23";"1";"FINISHED";"RIGHT";"success";"713";"0";"2014-10-16 13:08:05.504";"3";;;;;;;;;;;;;;;;;;;;;
"c1315824";;;"Windows 7";"Rachel's Experiment (D.T.)";"1.0";"2";"1";"1";"2";"1";"1";"2014-10-16 12:58:36.634";"2014-10-16 13:14:46.878";"1";"1";"1";"128";"127";"module.training_block4.exec-1033.GoNoGo4";;;;;;;;;;;;;;;;;;;;;;;;;;;;;;;;;;;;;;;;;;;;;;;;;;;;;;;;;;;"1261";"2014-10-16 13:08:09.295";"ST_correctStop";"33";"0";"FINISHED";"NONE";"success";"0";"1";"2014-10-16 13:08:08.032";"3";;;;;;;;;;;;;;;;;;;;;
"c1315824";;;"Windows 7";"Rachel's Experiment (D.T.)";"1.0";"2";"1";"1";"2";"1";"1";"2014-10-16 12:58:36.634";"2014-10-16 13:14:46.878";"1";"1";"1";"129";"128";"module.training_block4.exec-1033.GoNoGo4";;;;;;;;;;;;;;;;;;;;;;;;;;;;;;;;;;;;;;;;;;;;;;;;;;;;;;;;;;;"1261";"2014-10-16 13:08:11.838";"NST_correctLoc";"17";"0";"FINISHED";"LEFT";"success";"619";"0";"2014-10-16 13:08:10.575";"2";;;;;;;;;;;;;;;;;;;;;
"c1315824";;;"Windows 7";"Rachel's Experiment (D.T.)";"1.0";"2";"1";"1";"2";"1";"1";"2014-10-16 12:58:36.634";"2014-10-16 13:14:46.878";"1";"1";"1";"130";"129";"module.training_block4.exec-1033.GoNoGo4";;;;;;;;;;;;;;;;;;;;;;;;;;;;;;;;;;;;;;;;;;;;;;;;;;;;;;;;;;;"1261";"2014-10-16 13:08:14.365";"NST_correctLoc";"25";"0";"FINISHED";"LEFT";"success";"564";"0";"2014-10-16 13:08:13.102";"3";;;;;;;;;;;;;;;;;;;;;
"c1315824";;;"Windows 7";"Rachel's Experiment (D.T.)";"1.0";"2";"1";"1";"2";"1";"1";"2014-10-16 12:58:36.634";"2014-10-16 13:14:46.878";"1";"1";"1";"131";"130";"module.training_block4.exec-1033.GoNoGo4";;;;;;;;;;;;;;;;;;;;;;;;;;;;;;;;;;;;;;;;;;;;;;;;;;;;;;;;;;;"1258";"2014-10-16 13:08:16.893";"ST_correctStop";"1";"1";"FINISHED";"NONE";"success";"0";"1";"2014-10-16 13:08:15.629";"1";;;;;;;;;;;;;;;;;;;;;
"c1315824";;;"Windows 7";"Rachel's Experiment (D.T.)";"1.0";"2";"1";"1";"2";"1";"1";"2014-10-16 12:58:36.634";"2014-10-16 13:14:46.878";"1";"1";"1";"132";"131";"module.training_block4.exec-1033.GoNoGo4";;;;;;;;;;;;;;;;;;;;;;;;;;;;;;;;;;;;;;;;;;;;;;;;;;;;;;;;;;;"1261";"2014-10-16 13:08:19.451";"ST_failedStop";"35";"0";"FINISHED";"LEFT";"failure";"382";"1";"2014-10-16 13:08:18.187";"3";;;;;;;;;;;;;;;;;;;;;
"c1315824";;;"Windows 7";"Rachel's Experiment (D.T.)";"1.0";"2";"1";"1";"2";"1";"1";"2014-10-16 12:58:36.634";"2014-10-16 13:14:46.878";"1";"1";"1";"133";"132";"module.training_block4.exec-1033.GoNoGo4";;;;;;;;;;;;;;;;;;;;;;;;;;;;;;;;;;;;;;;;;;;;;;;;;;;;;;;;;;;"1261";"2014-10-16 13:08:21.978";"ST_correctStop";"0";"0";"FINISHED";"NONE";"success";"0";"1";"2014-10-16 13:08:20.715";"1";;;;;;;;;;;;;;;;;;;;;
"c1315824";;;"Windows 7";"Rachel's Experiment (D.T.)";"1.0";"2";"1";"1";"2";"1";"1";"2014-10-16 12:58:36.634";"2014-10-16 13:14:46.878";"1";"1";"1";"134";"133";"module.training_block4.exec-1033.GoNoGo4";;;;;;;;;;;;;;;;;;;;;;;;;;;;;;;;;;;;;;;;;;;;;;;;;;;;;;;;;;;"1261";"2014-10-16 13:08:24.521";"ST_correctStop";"19";"0";"FINISHED";"NONE";"success";"0";"1";"2014-10-16 13:08:23.257";"3";;;;;;;;;;;;;;;;;;;;;
"c1315824";;;"Windows 7";"Rachel's Experiment (D.T.)";"1.0";"2";"1";"1";"2";"1";"1";"2014-10-16 12:58:36.634";"2014-10-16 13:14:46.878";"1";"1";"1";"135";"134";"module.training_block4.exec-1033.GoNoGo4";;;;;;;;;;;;;;;;;;;;;;;;;;;;;;;;;;;;;;;;;;;;;;;;;;;;;;;;;;;"1261";"2014-10-16 13:08:27.048";"NST_correctLoc";"18";"0";"FINISHED";"LEFT";"success";"601";"0";"2014-10-16 13:08:25.785";"3";;;;;;;;;;;;;;;;;;;;;
"c1315824";;;"Windows 7";"Rachel's Experiment (D.T.)";"1.0";"2";"1";"1";"2";"1";"1";"2014-10-16 12:58:36.634";"2014-10-16 13:14:46.878";"1";"1";"1";"136";"135";"module.training_block4.exec-1033.GoNoGo4";;;;;;;;;;;;;;;;;;;;;;;;;;;;;;;;;;;;;;;;;;;;;;;;;;;;;;;;;;;"1261";"2014-10-16 13:08:29.575";"NST_correctLoc";"13";"1";"FINISHED";"RIGHT";"success";"634";"0";"2014-10-16 13:08:28.312";"2";;;;;;;;;;;;;;;;;;;;;
"c1315824";;;"Windows 7";"Rachel's Experiment (D.T.)";"1.0";"2";"1";"1";"2";"1";"1";"2014-10-16 12:58:36.634";"2014-10-16 13:14:46.878";"1";"1";"1";"137";"136";"module.training_block4.exec-1033.GoNoGo4";;;;;;;;;;;;;;;;;;;;;;;;;;;;;;;;;;;;;;;;;;;;;;;;;;;;;;;;;;;"1261";"2014-10-16 13:08:32.103";"ST_correctStop";"4";"0";"FINISHED";"NONE";"success";"0";"1";"2014-10-16 13:08:30.839";"1";;;;;;;;;;;;;;;;;;;;;
"c1315824";;;"Windows 7";"Rachel's Experiment (D.T.)";"1.0";"2";"1";"1";"2";"1";"1";"2014-10-16 12:58:36.634";"2014-10-16 13:14:46.878";"1";"1";"1";"138";"137";"module.training_block4.exec-1033.GoNoGo4";;;;;;;;;;;;;;;;;;;;;;;;;;;;;;;;;;;;;;;;;;;;;;;;;;;;;;;;;;;"1261";"2014-10-16 13:08:34.630";"NST_correctLoc";"14";"0";"FINISHED";"LEFT";"success";"923";"0";"2014-10-16 13:08:33.366";"2";;;;;;;;;;;;;;;;;;;;;
"c1315824";;;"Windows 7";"Rachel's Experiment (D.T.)";"1.0";"2";"1";"1";"2";"1";"1";"2014-10-16 12:58:36.634";"2014-10-16 13:14:46.878";"1";"1";"1";"139";"138";"module.training_block4.exec-1033.GoNoGo4";;;;;;;;;;;;;;;;;;;;;;;;;;;;;;;;;;;;;;;;;;;;;;;;;;;;;;;;;;;"1261";"2014-10-16 13:08:37.157";"ST_correctStop";"30";"0";"FINISHED";"NONE";"success";"0";"1";"2014-10-16 13:08:35.893";"3";;;;;;;;;;;;;;;;;;;;;
"c1315824";;;"Windows 7";"Rachel's Experiment (D.T.)";"1.0";"2";"1";"1";"2";"1";"1";"2014-10-16 12:58:36.634";"2014-10-16 13:14:46.878";"1";"1";"1";"140";"139";"module.training_block4.exec-1033.GoNoGo4";;;;;;;;;;;;;;;;;;;;;;;;;;;;;;;;;;;;;;;;;;;;;;;;;;;;;;;;;;;"1262";"2014-10-16 13:08:39.684";"NST_miss";"31";"0";"FINISHED";"NONE";"failure";"0";"0";"2014-10-16 13:08:38.421";"3";;;;;;;;;;;;;;;;;;;;;
"c1315824";;;"Windows 7";"Rachel's Experiment (D.T.)";"1.0";"2";"1";"1";"2";"1";"1";"2014-10-16 12:58:36.634";"2014-10-16 13:14:46.878";"1";"1";"1";"141";"140";"module.training_block4.exec-1033.GoNoGo4";;;;;;;;;;;;;;;;;;;;;;;;;;;;;;;;;;;;;;;;;;;;;;;;;;;;;;;;;;;"1262";"2014-10-16 13:08:42.211";"NST_correctLoc";"11";"0";"FINISHED";"LEFT";"success";"470";"0";"2014-10-16 13:08:40.948";"2";;;;;;;;;;;;;;;;;;;;;
"c1315824";;;"Windows 7";"Rachel's Experiment (D.T.)";"1.0";"2";"1";"1";"2";"1";"1";"2014-10-16 12:58:36.634";"2014-10-16 13:14:46.878";"1";"1";"1";"142";"141";"module.training_block4.exec-1033.GoNoGo4";;;;;;;;;;;;;;;;;;;;;;;;;;;;;;;;;;;;;;;;;;;;;;;;;;;;;;;;;;;"1261";"2014-10-16 13:08:44.754";"ST_correctStop";"7";"1";"FINISHED";"NONE";"success";"0";"1";"2014-10-16 13:08:43.491";"1";;;;;;;;;;;;;;;;;;;;;
"c1315824";;;"Windows 7";"Rachel's Experiment (D.T.)";"1.0";"2";"1";"1";"2";"1";"1";"2014-10-16 12:58:36.634";"2014-10-16 13:14:46.878";"1";"1";"1";"143";"142";"module.training_block4.exec-1033.GoNoGo4";;;;;;;;;;;;;;;;;;;;;;;;;;;;;;;;;;;;;;;;;;;;;;;;;;;;;;;;;;;"1261";"2014-10-16 13:08:47.281";"ST_correctStop";"6";"0";"FINISHED";"NONE";"success";"0";"1";"2014-10-16 13:08:46.018";"1";;;;;;;;;;;;;;;;;;;;;
"c1315824";;;"Windows 7";"Rachel's Experiment (D.T.)";"1.0";"2";"1";"1";"2";"1";"1";"2014-10-16 12:58:36.634";"2014-10-16 13:14:46.878";"1";"1";"1";"144";"143";"module.training_block4.exec-1033.GoNoGo4";;;;;;;;;;;;;;;;;;;;;;;;;;;;;;;;;;;;;;;;;;;;;;;;;;;;;;;;;;;"1261";"2014-10-16 13:08:49.809";"NST_correctLoc";"12";"0";"FINISHED";"LEFT";"success";"496";"0";"2014-10-16 13:08:48.545";"2";;;;;;;;;;;;;;;;;;;;;
"c1315824";;;"Windows 7";"Rachel's Experiment (D.T.)";"1.0";"2";"1";"1";"2";"1";"1";"2014-10-16 12:58:36.634";"2014-10-16 13:14:46.878";"1";"1";"1";"145";"144";"module.training_block4.exec-1033.GoNoGo4";;;;;;;;;;;;;;;;;;;;;;;;;;;;;;;;;;;;;;;;;;;;;;;;;;;;;;;;;;;"1262";"2014-10-16 13:08:52.336";"NST_correctLoc";"20";"1";"FINISHED";"RIGHT";"success";"481";"0";"2014-10-16 13:08:51.072";"3";;;;;;;;;;;;;;;;;;;;;
"c1315824";;;"Windows 7";"Rachel's Experiment (D.T.)";"1.0";"2";"1";"1";"2";"1";"1";"2014-10-16 12:58:36.634";"2014-10-16 13:14:46.878";"1";"1";"1";"146";"145";"module.training_block4.exec-1033.GoNoGo4";;;;;;;;;;;;;;;;;;;;;;;;;;;;;;;;;;;;;;;;;;;;;;;;;;;;;;;;;;;"1261";"2014-10-16 13:08:54.863";"NST_correctLoc";"9";"0";"FINISHED";"LEFT";"success";"626";"0";"2014-10-16 13:08:53.599";"2";;;;;;;;;;;;;;;;;;;;;
"c1315824";;;"Windows 7";"Rachel's Experiment (D.T.)";"1.0";"2";"1";"1";"2";"1";"1";"2014-10-16 12:58:36.634";"2014-10-16 13:14:46.878";"1";"1";"1";"147";"146";"module.training_block4.exec-1033.GoNoGo4";;;;;;;;;;;;;;;;;;;;;;;;;;;;;;;;;;;;;;;;;;;;;;;;;;;;;;;;;;;"1262";"2014-10-16 13:08:57.406";"ST_correctStop";"5";"0";"FINISHED";"NONE";"success";"0";"1";"2014-10-16 13:08:56.142";"1";;;;;;;;;;;;;;;;;;;;;
"c1315824";;;"Windows 7";"Rachel's Experiment (D.T.)";"1.0";"2";"1";"1";"2";"1";"1";"2014-10-16 12:58:36.634";"2014-10-16 13:14:46.878";"1";"1";"1";"148";"147";"module.training_block4.exec-1033.GoNoGo4";;;;;;;;;;;;;;;;;;;;;;;;;;;;;;;;;;;;;;;;;;;;;;;;;;;;;;;;;;;"1262";"2014-10-16 13:08:59.933";"NST_correctLoc";"28";"0";"FINISHED";"LEFT";"success";"860";"0";"2014-10-16 13:08:58.669";"3";;;;;;;;;;;;;;;;;;;;;
"c1315824";;;"Windows 7";"Rachel's Experiment (D.T.)";"1.0";"2";"1";"1";"2";"1";"1";"2014-10-16 12:58:36.634";"2014-10-16 13:14:46.878";"1";"1";"1";"149";"148";"module.training_block4.exec-1033.GoNoGo4";;;;;;;;;;;;;;;;;;;;;;;;;;;;;;;;;;;;;;;;;;;;;;;;;;;;;;;;;;;"1261";"2014-10-16 13:09:02.460";"ST_failedStop";"26";"1";"FINISHED";"RIGHT";"failure";"1021";"1";"2014-10-16 13:09:01.197";"3";;;;;;;;;;;;;;;;;;;;;
"c1315824";;;"Windows 7";"Rachel's Experiment (D.T.)";"1.0";"2";"1";"1";"2";"1";"1";"2014-10-16 12:58:36.634";"2014-10-16 13:14:46.878";"1";"1";"1";"150";"149";"module.training_block4.exec-1033.GoNoGo4";;;;;;;;;;;;;;;;;;;;;;;;;;;;;;;;;;;;;;;;;;;;;;;;;;;;;;;;;;;"1262";"2014-10-16 13:09:05.019";"NST_correctLoc";"21";"1";"FINISHED";"RIGHT";"success";"790";"0";"2014-10-16 13:09:03.755";"3";;;;;;;;;;;;;;;;;;;;;
"c1315824";;;"Windows 7";"Rachel's Experiment (D.T.)";"1.0";"2";"1";"1";"2";"1";"1";"2014-10-16 12:58:36.634";"2014-10-16 13:14:46.878";"1";"1";"1";"151";"150";"module.training_block4.exec-1033.GoNoGo4";;;;;;;;;;;;;;;;;;;;;;;;;;;;;;;;;;;;;;;;;;;;;;;;;;;;;;;;;;;"1261";"2014-10-16 13:09:07.546";"ST_correctStop";"2";"0";"FINISHED";"NONE";"success";"0";"1";"2014-10-16 13:09:06.282";"1";;;;;;;;;;;;;;;;;;;;;
"c1315824";;;"Windows 7";"Rachel's Experiment (D.T.)";"1.0";"2";"1";"1";"2";"1";"1";"2014-10-16 12:58:36.634";"2014-10-16 13:14:46.878";"1";"1";"1";"152";"151";"module.training_block4.exec-1033.GoNoGo4";;;;;;;;;;;;;;;;;;;;;;;;;;;;;;;;;;;;;;;;;;;;;;;;;;;;;;;;;;;"1261";"2014-10-16 13:09:10.089";"NST_correctLoc";"29";"1";"FINISHED";"RIGHT";"success";"584";"0";"2014-10-16 13:09:08.825";"3";;;;;;;;;;;;;;;;;;;;;
"c1315824";;;"Windows 7";"Rachel's Experiment (D.T.)";"1.0";"2";"1";"1";"2";"1";"1";"2014-10-16 12:58:36.634";"2014-10-16 13:14:46.878";"1";"1";"1";"153";"152";"module.training_block4.exec-1033.GoNoGo4";;;;;;;;;;;;;;;;;;;;;;;;;;;;;;;;;;;;;;;;;;;;;;;;;;;;;;;;;;;"1261";"2014-10-16 13:09:12.616";"ST_correctStop";"3";"1";"FINISHED";"NONE";"success";"0";"1";"2014-10-16 13:09:11.352";"1";;;;;;;;;;;;;;;;;;;;;
"c1315824";;;"Windows 7";"Rachel's Experiment (D.T.)";"1.0";"2";"1";"1";"2";"1";"1";"2014-10-16 12:58:36.634";"2014-10-16 13:14:46.878";"1";"1";"1";"154";"153";"module.training_block4.exec-1033.GoNoGo4";;;;;;;;;;;;;;;;;;;;;;;;;;;;;;;;;;;;;;;;;;;;;;;;;;;;;;;;;;;"1261";"2014-10-16 13:09:15.143";"NST_miss";"16";"1";"FINISHED";"NONE";"failure";"0";"0";"2014-10-16 13:09:13.879";"2";;;;;;;;;;;;;;;;;;;;;
"c1315824";;;"Windows 7";"Rachel's Experiment (D.T.)";"1.0";"2";"1";"1";"2";"1";"1";"2014-10-16 12:58:36.634";"2014-10-16 13:14:46.878";"1";"1";"1";"155";"154";"module.training_block4.exec-1033.GoNoGo4";;;;;;;;;;;;;;;;;;;;;;;;;;;;;;;;;;;;;;;;;;;;;;;;;;;;;;;;;;;"1261";"2014-10-16 13:09:17.701";"ST_correctStop";"22";"0";"FINISHED";"NONE";"success";"0";"1";"2014-10-16 13:09:16.438";"3";;;;;;;;;;;;;;;;;;;;;
"c1315824";;;"Windows 7";"Rachel's Experiment (D.T.)";"1.0";"2";"1";"1";"2";"1";"1";"2014-10-16 12:58:36.634";"2014-10-16 13:14:46.878";"1";"1";"1";"156";"155";"module.training_block4.exec-1033.GoNoGo4";;;;;;;;;;;;;;;;;;;;;;;;;;;;;;;;;;;;;;;;;;;;;;;;;;;;;;;;;;;"1258";"2014-10-16 13:09:20.229";"NST_correctLoc";"10";"0";"FINISHED";"LEFT";"success";"808";"0";"2014-10-16 13:09:18.965";"2";;;;;;;;;;;;;;;;;;;;;
"c1315824";;;"Windows 7";"Rachel's Experiment (D.T.)";"1.0";"2";"1";"1";"2";"1";"1";"2014-10-16 12:58:36.634";"2014-10-16 13:14:46.878";"1";"1";"1";"157";"156";"module.training_block4.exec-1033.GoNoGo4";;;;;;;;;;;;;;;;;;;;;;;;;;;;;;;;;;;;;;;;;;;;;;;;;;;;;;;;;;;"1262";"2014-10-16 13:09:22.771";"NST_correctLoc";"27";"0";"FINISHED";"LEFT";"success";"901";"0";"2014-10-16 13:09:21.508";"3";;;;;;;;;;;;;;;;;;;;;
"c1315824";;;"Windows 7";"Rachel's Experiment (D.T.)";"1.0";"2";"1";"1";"2";"1";"1";"2014-10-16 12:58:36.634";"2014-10-16 13:14:46.878";"1";"1";"1";"158";"157";"module.training_block4.exec-1033.GoNoGo4";;;;;;;;;;;;;;;;;;;;;;;;;;;;;;;;;;;;;;;;;;;;;;;;;;;;;;;;;;;"1261";"2014-10-16 13:09:25.299";"NST_correctLoc";"15";"0";"FINISHED";"LEFT";"success";"798";"0";"2014-10-16 13:09:24.035";"2";;;;;;;;;;;;;;;;;;;;;
"c1315824";;;"Windows 7";"Rachel's Experiment (D.T.)";"1.0";"2";"1";"1";"2";"1";"1";"2014-10-16 12:58:36.634";"2014-10-16 13:14:46.878";"1";"1";"1";"159";"158";"module.training_block4.exec-1033.GoNoGo4";;;;;;;;;;;;;;;;;;;;;;;;;;;;;;;;;;;;;;;;;;;;;;;;;;;;;;;;;;;"1262";"2014-10-16 13:09:27.826";"ST_correctStop";"32";"0";"FINISHED";"NONE";"success";"0";"1";"2014-10-16 13:09:26.562";"3";;;;;;;;;;;;;;;;;;;;;
"c1315824";;;"Windows 7";"Rachel's Experiment (D.T.)";"1.0";"2";"1";"1";"2";"1";"1";"2014-10-16 12:58:36.634";"2014-10-16 13:14:46.878";"1";"1";"1";"160";"159";"module.devaluation_practice.exec-6958.devalPractice";;;;;;;;;;;;"20797";"2014-10-16 13:10:10.430";"0";"7";"7";"7";"6203";"3014";"8525";"2014-10-16 13:09:49.635";;;;;;;;;;;;;;;;;;;;;;;;;;;;;;;;;;;;;;;;;;;;;;;;;;;;;;;;;;;;;;;;;;;;;;
"c1315824";;;"Windows 7";"Rachel's Experiment (D.T.)";"1.0";"2";"1";"1";"2";"1";"1";"2014-10-16 12:58:36.634";"2014-10-16 13:14:46.878";"1";"1";"1";"161";"160";"module.devaluation_practice.exec-6958.devalPractice";;;;;;;;;;;;"10072";"2014-10-16 13:10:20.538";"1";"6";"6";"7";"2248";"1245";"3542";"2014-10-16 13:10:10.461";;;;;;;;;;;;;;;;;;;;;;;;;;;;;;;;;;;;;;;;;;;;;;;;;;;;;;;;;;;;;;;;;;;;;;
"c1315824";;;"Windows 7";"Rachel's Experiment (D.T.)";"1.0";"2";"1";"1";"2";"1";"1";"2014-10-16 12:58:36.634";"2014-10-16 13:14:46.878";"1";"1";"1";"162";"161";"module.devaluation_practice.exec-6958.devalPractice";;;;;;;;;;;;"9221";"2014-10-16 13:10:29.774";"2";"5";"5";"5";"1029";"938";"4217";"2014-10-16 13:10:20.554";;;;;;;;;;;;;;;;;;;;;;;;;;;;;;;;;;;;;;;;;;;;;;;;;;;;;;;;;;;;;;;;;;;;;;
"c1315824";;;"Windows 7";"Rachel's Experiment (D.T.)";"1.0";"2";"1";"1";"2";"1";"1";"2014-10-16 12:58:36.634";"2014-10-16 13:14:46.878";"1";"1";"1";"163";"162";"module.devaluation_practice.exec-6958.devalPractice";;;;;;;;;;;;"7632";"2014-10-16 13:10:37.433";"3";"6";"8";"7";"1618";"1270";"1726";"2014-10-16 13:10:29.805";;;;;;;;;;;;;;;;;;;;;;;;;;;;;;;;;;;;;;;;;;;;;;;;;;;;;;;;;;;;;;;;;;;;;;
"c1315824";;;"Windows 7";"Rachel's Experiment (D.T.)";"1.0";"2";"1";"1";"2";"1";"1";"2014-10-16 12:58:36.634";"2014-10-16 13:14:46.878";"1";"1";"1";"164";"163";"module.devaluation_block1.exec-4376.deval1";"9978";"2014-10-16 13:10:54.843";"26";"9";"9";"9";"3543";"1455";"1960";"2014-10-16 13:10:44.859";"3";;;;;;;;;;;;;;;;;;;;;;;;;;;;;;;;;;;;;;;;;;;;;;;;;;;;;;;;;;;;;;;;;;;;;;;;;;;;;;;;
"c1315824";;;"Windows 7";"Rachel's Experiment (D.T.)";"1.0";"2";"1";"1";"2";"1";"1";"2014-10-16 12:58:36.634";"2014-10-16 13:14:46.878";"1";"1";"1";"165";"164";"module.devaluation_block1.exec-4376.deval1";"8461";"2014-10-16 13:11:03.329";"4";"9";"9";"8";"1521";"1574";"2349";"2014-10-16 13:10:54.858";"1";;;;;;;;;;;;;;;;;;;;;;;;;;;;;;;;;;;;;;;;;;;;;;;;;;;;;;;;;;;;;;;;;;;;;;;;;;;;;;;;
"c1315824";;;"Windows 7";"Rachel's Experiment (D.T.)";"1.0";"2";"1";"1";"2";"1";"1";"2014-10-16 12:58:36.634";"2014-10-16 13:14:46.878";"1";"1";"1";"166";"165";"module.devaluation_block1.exec-4376.deval1";"8525";"2014-10-16 13:11:11.862";"3";"9";"9";"9";"2202";"1647";"1640";"2014-10-16 13:11:03.345";"1";;;;;;;;;;;;;;;;;;;;;;;;;;;;;;;;;;;;;;;;;;;;;;;;;;;;;;;;;;;;;;;;;;;;;;;;;;;;;;;;
"c1315824";;;"Windows 7";"Rachel's Experiment (D.T.)";"1.0";"2";"1";"1";"2";"1";"1";"2014-10-16 12:58:36.634";"2014-10-16 13:14:46.878";"1";"1";"1";"167";"166";"module.devaluation_block1.exec-4376.deval1";"8843";"2014-10-16 13:11:20.832";"5";"9";"7";"9";"1696";"2418";"1690";"2014-10-16 13:11:11.987";"1";;;;;;;;;;;;;;;;;;;;;;;;;;;;;;;;;;;;;;;;;;;;;;;;;;;;;;;;;;;;;;;;;;;;;;;;;;;;;;;;
"c1315824";;;"Windows 7";"Rachel's Experiment (D.T.)";"1.0";"2";"1";"1";"2";"1";"1";"2014-10-16 12:58:36.634";"2014-10-16 13:14:46.878";"1";"1";"1";"168";"167";"module.devaluation_block1.exec-4376.deval1";"13117";"2014-10-16 13:11:33.983";"0";"8";"7";"9";"2867";"2964";"4242";"2014-10-16 13:11:20.864";"1";;;;;;;;;;;;;;;;;;;;;;;;;;;;;;;;;;;;;;;;;;;;;;;;;;;;;;;;;;;;;;;;;;;;;;;;;;;;;;;;
"c1315824";;;"Windows 7";"Rachel's Experiment (D.T.)";"1.0";"2";"1";"1";"2";"1";"1";"2014-10-16 12:58:36.634";"2014-10-16 13:14:46.878";"1";"1";"1";"169";"168";"module.devaluation_block1.exec-4376.deval1";"8149";"2014-10-16 13:11:42.142";"1";"9";"9";"9";"2596";"1054";"1476";"2014-10-16 13:11:33.999";"1";;;;;;;;;;;;;;;;;;;;;;;;;;;;;;;;;;;;;;;;;;;;;;;;;;;;;;;;;;;;;;;;;;;;;;;;;;;;;;;;
"c1315824";;;"Windows 7";"Rachel's Experiment (D.T.)";"1.0";"2";"1";"1";"2";"1";"1";"2014-10-16 12:58:36.634";"2014-10-16 13:14:46.878";"1";"1";"1";"170";"169";"module.devaluation_block1.exec-4376.deval1";"10628";"2014-10-16 13:11:52.797";"17";"7";"7";"8";"4285";"1485";"1840";"2014-10-16 13:11:42.158";"2";;;;;;;;;;;;;;;;;;;;;;;;;;;;;;;;;;;;;;;;;;;;;;;;;;;;;;;;;;;;;;;;;;;;;;;;;;;;;;;;
"c1315824";;;"Windows 7";"Rachel's Experiment (D.T.)";"1.0";"2";"1";"1";"2";"1";"1";"2014-10-16 12:58:36.634";"2014-10-16 13:14:46.878";"1";"1";"1";"171";"170";"module.devaluation_block1.exec-4376.deval1";"8628";"2014-10-16 13:12:01.439";"22";"7";"6";"7";"2478";"1178";"1931";"2014-10-16 13:11:52.812";"3";;;;;;;;;;;;;;;;;;;;;;;;;;;;;;;;;;;;;;;;;;;;;;;;;;;;;;;;;;;;;;;;;;;;;;;;;;;;;;;;
"c1315824";;;"Windows 7";"Rachel's Experiment (D.T.)";"1.0";"2";"1";"1";"2";"1";"1";"2014-10-16 12:58:36.634";"2014-10-16 13:14:46.878";"1";"1";"1";"172";"171";"module.devaluation_block1.exec-4376.deval1";"10700";"2014-10-16 13:12:12.157";"11";"5";"5";"5";"3708";"978";"3000";"2014-10-16 13:12:01.455";"2";;;;;;;;;;;;;;;;;;;;;;;;;;;;;;;;;;;;;;;;;;;;;;;;;;;;;;;;;;;;;;;;;;;;;;;;;;;;;;;;
"c1315824";;;"Windows 7";"Rachel's Experiment (D.T.)";"1.0";"2";"1";"1";"2";"1";"1";"2014-10-16 12:58:36.634";"2014-10-16 13:14:46.878";"1";"1";"1";"173";"172";"module.devaluation_block1.exec-4376.deval1";"8004";"2014-10-16 13:12:20.191";"10";"7";"7";"6";"2695";"952";"1329";"2014-10-16 13:12:12.188";"2";;;;;;;;;;;;;;;;;;;;;;;;;;;;;;;;;;;;;;;;;;;;;;;;;;;;;;;;;;;;;;;;;;;;;;;;;;;;;;;;
"c1315824";;;"Windows 7";"Rachel's Experiment (D.T.)";"1.0";"2";"1";"1";"2";"1";"1";"2014-10-16 12:58:36.634";"2014-10-16 13:14:46.878";"1";"1";"1";"174";"173";"module.devaluation_block1.exec-4376.deval1";"7525";"2014-10-16 13:12:27.741";"23";"8";"8";"8";"1661";"1399";"1445";"2014-10-16 13:12:20.222";"3";;;;;;;;;;;;;;;;;;;;;;;;;;;;;;;;;;;;;;;;;;;;;;;;;;;;;;;;;;;;;;;;;;;;;;;;;;;;;;;;
"c1315824";;;"Windows 7";"Rachel's Experiment (D.T.)";"1.0";"2";"1";"1";"2";"1";"1";"2014-10-16 12:58:36.634";"2014-10-16 13:14:46.878";"1";"1";"1";"175";"174";"module.devaluation_block1.exec-4376.deval1";"10221";"2014-10-16 13:12:37.990";"8";"7";"8";"7";"2182";"1296";"3708";"2014-10-16 13:12:27.772";"1";;;;;;;;;;;;;;;;;;;;;;;;;;;;;;;;;;;;;;;;;;;;;;;;;;;;;;;;;;;;;;;;;;;;;;;;;;;;;;;;
"c1315824";;;"Windows 7";"Rachel's Experiment (D.T.)";"1.0";"2";"1";"1";"2";"1";"1";"2014-10-16 12:58:36.634";"2014-10-16 13:14:46.878";"1";"1";"1";"176";"175";"module.devaluation_block1.exec-4376.deval1";"6766";"2014-10-16 13:12:44.792";"15";"5";"5";"7";"1533";"1107";"1098";"2014-10-16 13:12:38.021";"2";;;;;;;;;;;;;;;;;;;;;;;;;;;;;;;;;;;;;;;;;;;;;;;;;;;;;;;;;;;;;;;;;;;;;;;;;;;;;;;;
"c1315824";;;"Windows 7";"Rachel's Experiment (D.T.)";"1.0";"2";"1";"1";"2";"1";"1";"2014-10-16 12:58:36.634";"2014-10-16 13:14:46.878";"1";"1";"1";"177";"176";"module.devaluation_block1.exec-4376.deval1";"8612";"2014-10-16 13:12:53.434";"14";"7";"3";"6";"2763";"878";"1936";"2014-10-16 13:12:44.823";"2";;;;;;;;;;;;;;;;;;;;;;;;;;;;;;;;;;;;;;;;;;;;;;;;;;;;;;;;;;;;;;;;;;;;;;;;;;;;;;;;
"c1315824";;;"Windows 7";"Rachel's Experiment (D.T.)";"1.0";"2";"1";"1";"2";"1";"1";"2014-10-16 12:58:36.634";"2014-10-16 13:14:46.878";"1";"1";"1";"178";"177";"module.devaluation_block1.exec-4376.deval1";"8619";"2014-10-16 13:13:02.077";"12";"7";"8";"7";"1705";"1244";"2634";"2014-10-16 13:12:53.465";"2";;;;;;;;;;;;;;;;;;;;;;;;;;;;;;;;;;;;;;;;;;;;;;;;;;;;;;;;;;;;;;;;;;;;;;;;;;;;;;;;
"c1315824";;;"Windows 7";"Rachel's Experiment (D.T.)";"1.0";"2";"1";"1";"2";"1";"1";"2014-10-16 12:58:36.634";"2014-10-16 13:14:46.878";"1";"1";"1";"179";"178";"module.devaluation_block1.exec-4376.deval1";"11389";"2014-10-16 13:13:13.496";"25";"3";"1";"7";"4654";"1341";"2363";"2014-10-16 13:13:02.108";"3";;;;;;;;;;;;;;;;;;;;;;;;;;;;;;;;;;;;;;;;;;;;;;;;;;;;;;;;;;;;;;;;;;;;;;;;;;;;;;;;
"c1315824";;;"Windows 7";"Rachel's Experiment (D.T.)";"1.0";"2";"1";"1";"2";"1";"1";"2014-10-16 12:58:36.634";"2014-10-16 13:14:46.878";"1";"1";"1";"180";"179";"module.devaluation_block1.exec-4376.deval1";"7925";"2014-10-16 13:13:21.436";"24";"6";"2";"6";"2651";"1048";"1196";"2014-10-16 13:13:13.511";"3";;;;;;;;;;;;;;;;;;;;;;;;;;;;;;;;;;;;;;;;;;;;;;;;;;;;;;;;;;;;;;;;;;;;;;;;;;;;;;;;
"c1315824";;;"Windows 7";"Rachel's Experiment (D.T.)";"1.0";"2";"1";"1";"2";"1";"1";"2014-10-16 12:58:36.634";"2014-10-16 13:14:46.878";"1";"1";"1";"181";"180";"module.devaluation_block1.exec-4376.deval1";"7079";"2014-10-16 13:13:28.550";"21";"6";"7";"7";"1895";"765";"1397";"2014-10-16 13:13:21.467";"3";;;;;;;;;;;;;;;;;;;;;;;;;;;;;;;;;;;;;;;;;;;;;;;;;;;;;;;;;;;;;;;;;;;;;;;;;;;;;;;;
"c1315824";;;"Windows 7";"Rachel's Experiment (D.T.)";"1.0";"2";"1";"1";"2";"1";"1";"2014-10-16 12:58:36.634";"2014-10-16 13:14:46.878";"1";"1";"1";"182";"181";"module.devaluation_block1.exec-4376.deval1";"7333";"2014-10-16 13:13:35.897";"9";"5";"4";"6";"509";"2080";"1719";"2014-10-16 13:13:28.565";"2";;;;;;;;;;;;;;;;;;;;;;;;;;;;;;;;;;;;;;;;;;;;;;;;;;;;;;;;;;;;;;;;;;;;;;;;;;;;;;;;
"c1315824";;;"Windows 7";"Rachel's Experiment (D.T.)";"1.0";"2";"1";"1";"2";"1";"1";"2014-10-16 12:58:36.634";"2014-10-16 13:14:46.878";"1";"1";"1";"183";"182";"module.devaluation_block1.exec-4376.deval1";"7693";"2014-10-16 13:13:43.604";"18";"6";"2";"7";"1401";"1165";"2098";"2014-10-16 13:13:35.913";"3";;;;;;;;;;;;;;;;;;;;;;;;;;;;;;;;;;;;;;;;;;;;;;;;;;;;;;;;;;;;;;;;;;;;;;;;;;;;;;;;
"c1315824";;;"Windows 7";"Rachel's Experiment (D.T.)";"1.0";"2";"1";"1";"2";"1";"1";"2014-10-16 12:58:36.634";"2014-10-16 13:14:46.878";"1";"1";"1";"184";"183";"module.devaluation_block1.exec-4376.deval1";"8149";"2014-10-16 13:13:51.778";"13";"6";"6";"7";"2687";"987";"1433";"2014-10-16 13:13:43.635";"2";;;;;;;;;;;;;;;;;;;;;;;;;;;;;;;;;;;;;;;;;;;;;;;;;;;;;;;;;;;;;;;;;;;;;;;;;;;;;;;;
"c1315824";;;"Windows 7";"Rachel's Experiment (D.T.)";"1.0";"2";"1";"1";"2";"1";"1";"2014-10-16 12:58:36.634";"2014-10-16 13:14:46.878";"1";"1";"1";"185";"184";"module.devaluation_block1.exec-4376.deval1";"9100";"2014-10-16 13:14:00.904";"16";"4";"3";"6";"2456";"2229";"1388";"2014-10-16 13:13:51.794";"2";;;;;;;;;;;;;;;;;;;;;;;;;;;;;;;;;;;;;;;;;;;;;;;;;;;;;;;;;;;;;;;;;;;;;;;;;;;;;;;;
"c1315824";;;"Windows 7";"Rachel's Experiment (D.T.)";"1.0";"2";"1";"1";"2";"1";"1";"2014-10-16 12:58:36.634";"2014-10-16 13:14:46.878";"1";"1";"1";"186";"185";"module.devaluation_block1.exec-4376.deval1";"10293";"2014-10-16 13:14:11.216";"20";"9";"7";"9";"3714";"1683";"1855";"2014-10-16 13:14:00.920";"3";;;;;;;;;;;;;;;;;;;;;;;;;;;;;;;;;;;;;;;;;;;;;;;;;;;;;;;;;;;;;;;;;;;;;;;;;;;;;;;;
"c1315824";;;"Windows 7";"Rachel's Experiment (D.T.)";"1.0";"2";"1";"1";"2";"1";"1";"2014-10-16 12:58:36.634";"2014-10-16 13:14:46.878";"1";"1";"1";"187";"186";"module.devaluation_block1.exec-4376.deval1";"8292";"2014-10-16 13:14:19.515";"19";"5";"4";"7";"2738";"947";"1574";"2014-10-16 13:14:11.232";"3";;;;;;;;;;;;;;;;;;;;;;;;;;;;;;;;;;;;;;;;;;;;;;;;;;;;;;;;;;;;;;;;;;;;;;;;;;;;;;;;
"c1315824";;;"Windows 7";"Rachel's Experiment (D.T.)";"1.0";"2";"1";"1";"2";"1";"1";"2014-10-16 12:58:36.634";"2014-10-16 13:14:46.878";"1";"1";"1";"188";"187";"module.devaluation_block1.exec-4376.deval1";"10172";"2014-10-16 13:14:29.718";"7";"6";"4";"5";"3703";"2263";"1172";"2014-10-16 13:14:19.546";"1";;;;;;;;;;;;;;;;;;;;;;;;;;;;;;;;;;;;;;;;;;;;;;;;;;;;;;;;;;;;;;;;;;;;;;;;;;;;;;;;
"c1315824";;;"Windows 7";"Rachel's Experiment (D.T.)";"1.0";"2";"1";"1";"2";"1";"1";"2014-10-16 12:58:36.634";"2014-10-16 13:14:46.878";"1";"1";"1";"189";"188";"module.devaluation_block1.exec-4376.deval1";"6836";"2014-10-16 13:14:36.566";"6";"5";"4";"4";"1333";"1709";"764";"2014-10-16 13:14:29.733";"1";;;;;;;;;;;;;;;;;;;;;;;;;;;;;;;;;;;;;;;;;;;;;;;;;;;;;;;;;;;;;;;;;;;;;;;;;;;;;;;;
"c1315824";;;"Windows 7";"Rachel's Experiment (D.T.)";"1.0";"2";"1";"1";"2";"1";"1";"2014-10-16 12:58:36.634";"2014-10-16 13:14:46.878";"1";"1";"1";"190";"189";"module.devaluation_block1.exec-4376.deval1";"7526";"2014-10-16 13:14:44.116";"2";"7";"7";"7";"2557";"806";"1131";"2014-10-16 13:14:36.597";"1";;;;;;;;;;;;;;;;;;;;;;;;;;;;;;;;;;;;;;;;;;;;;;;;;;;;;;;;;;;;;;;;;;;;;;;;;;;;;;;;
