"user.name";"user.yearOfBirth";"user.sex";"user.osName";"module.name";"module.version";"module.online.subject.code";"module.online.study.id";"module.online.module.nr";"module.online.group.nr";"session.id";"session.index";"session.startTime";"session.endTime";"session.completed";"session.node-3210.DevalQorder";"session.node-7908.conditionType";"trial.id";"trial.index";"trial.name";"trial.deval1.durationTime";"trial.deval1.endTime";"trial.deval1.icon";"trial.deval1.Resp_Attractive";"trial.deval1.Resp_Eat";"trial.deval1.Resp_Taste";"trial.deval1.RT_Attractive";"trial.deval1.RT_Eat";"trial.deval1.RT_Taste";"trial.deval1.startTime";"trial.deval1.stimulus type";"trial.devalPractice.durationTime";"trial.devalPractice.endTime";"trial.devalPractice.icon";"trial.devalPractice.Resp_Attractive";"trial.devalPractice.Resp_Eat";"trial.devalPractice.Resp_Taste";"trial.devalPractice.RT_Attractive";"trial.devalPractice.RT_Eat";"trial.devalPractice.RT_Taste";"trial.devalPractice.startTime";"trial.devalPractice.stimulus type";"trial.GoNoGo1.durationTime";"trial.GoNoGo1.endTime";"trial.GoNoGo1.Error Type";"trial.GoNoGo1.icon";"trial.GoNoGo1.location";"trial.GoNoGo1.outcome";"trial.GoNoGo1.response";"trial.GoNoGo1.result";"trial.GoNoGo1.RT";"trial.GoNoGo1.signal";"trial.GoNoGo1.startTime";"trial.GoNoGo1.stimulus type";"trial.GoNoGo2.durationTime";"trial.GoNoGo2.endTime";"trial.GoNoGo2.Error Type";"trial.GoNoGo2.icon";"trial.GoNoGo2.location";"trial.GoNoGo2.outcome";"trial.GoNoGo2.response";"trial.GoNoGo2.result";"trial.GoNoGo2.RT";"trial.GoNoGo2.signal";"trial.GoNoGo2.startTime";"trial.GoNoGo2.stimulus type";"trial.GoNoGo3.durationTime";"trial.GoNoGo3.endTime";"trial.GoNoGo3.Error Type";"trial.GoNoGo3.icon";"trial.GoNoGo3.location";"trial.GoNoGo3.outcome";"trial.GoNoGo3.response";"trial.GoNoGo3.result";"trial.GoNoGo3.RT";"trial.GoNoGo3.signal";"trial.GoNoGo3.startTime";"trial.GoNoGo3.stimulus type";"trial.GoNoGo4.durationTime";"trial.GoNoGo4.endTime";"trial.GoNoGo4.Error Type";"trial.GoNoGo4.icon";"trial.GoNoGo4.location";"trial.GoNoGo4.outcome";"trial.GoNoGo4.response";"trial.GoNoGo4.result";"trial.GoNoGo4.RT";"trial.GoNoGo4.signal";"trial.GoNoGo4.startTime";"trial.GoNoGo4.stimulus type";"trial.GoNoGo_Practice.durationTime";"trial.GoNoGo_Practice.endTime";"trial.GoNoGo_Practice.icon";"trial.GoNoGo_Practice.location";"trial.GoNoGo_Practice.outcome";"trial.GoNoGo_Practice.response";"trial.GoNoGo_Practice.result";"trial.GoNoGo_Practice.RT";"trial.GoNoGo_Practice.signal";"trial.GoNoGo_Practice.startTime";"trial.GoNoGo_Practice.stimulus type";"trial.GoNoGo_Tutorial.durationTime";"trial.GoNoGo_Tutorial.endTime";"trial.GoNoGo_Tutorial.icon";"trial.GoNoGo_Tutorial.location";"trial.GoNoGo_Tutorial.outcome";"trial.GoNoGo_Tutorial.response";"trial.GoNoGo_Tutorial.result";"trial.GoNoGo_Tutorial.RT";"trial.GoNoGo_Tutorial.signal";"trial.GoNoGo_Tutorial.startTime"
"04501443";;;"Windows 7";"Rachel's Experiment (D.T.)";"1.0";"2";"1";"1";"2";"3";"1";"2014-07-22 12:05:50.468";"2014-07-22 12:25:05.360";"1";"1";"0";"496";"0";"module.GoNoGotutorial.exec-9035.GoNoGo_Tutorial";;;;;;;;;;;;;;;;;;;;;;;;;;;;;;;;;;;;;;;;;;;;;;;;;;;;;;;;;;;;;;;;;;;;;;;;;;;;;;;;;;"4000";"2014-07-22 12:06:24.362";"leftResponse";"0";"FINISHED";"LEFT";"success";"589";"0";"2014-07-22 12:06:20.360"
"04501443";;;"Windows 7";"Rachel's Experiment (D.T.)";"1.0";"2";"1";"1";"2";"3";"1";"2014-07-22 12:05:50.468";"2014-07-22 12:25:05.360";"1";"1";"0";"497";"1";"module.GoNoGotutorial.exec-9035.GoNoGo_Tutorial";;;;;;;;;;;;;;;;;;;;;;;;;;;;;;;;;;;;;;;;;;;;;;;;;;;;;;;;;;;;;;;;;;;;;;;;;;;;;;;;;;"3999";"2014-07-22 12:06:29.654";"rightResponse";"1";"FINISHED";"RIGHT";"success";"424";"0";"2014-07-22 12:06:25.654"
"04501443";;;"Windows 7";"Rachel's Experiment (D.T.)";"1.0";"2";"1";"1";"2";"3";"1";"2014-07-22 12:05:50.468";"2014-07-22 12:25:05.360";"1";"1";"0";"498";"2";"module.GoNoGotutorial.exec-9035.GoNoGo_Tutorial";;;;;;;;;;;;;;;;;;;;;;;;;;;;;;;;;;;;;;;;;;;;;;;;;;;;;;;;;;;;;;;;;;;;;;;;;;;;;;;;;;"3999";"2014-07-22 12:06:34.941";"quickResponse";"0";"FINISHED";"LEFT";"success";"1096";"0";"2014-07-22 12:06:30.941"
"04501443";;;"Windows 7";"Rachel's Experiment (D.T.)";"1.0";"2";"1";"1";"2";"3";"1";"2014-07-22 12:05:50.468";"2014-07-22 12:25:05.360";"1";"1";"0";"499";"3";"module.GoNoGopractice.exec-3841.GoNoGo_Practice";;;;;;;;;;;;;;;;;;;;;;;;;;;;;;;;;;;;;;;;;;;;;;;;;;;;;;;;;;;;;;;;;;;;;;;"1955";"2014-07-22 12:06:58.338";"18";"0";"FINISHED";"LEFT";"success";"326";"0";"2014-07-22 12:06:56.383";"3";;;;;;;;;;
"04501443";;;"Windows 7";"Rachel's Experiment (D.T.)";"1.0";"2";"1";"1";"2";"3";"1";"2014-07-22 12:05:50.468";"2014-07-22 12:25:05.360";"1";"1";"0";"500";"4";"module.GoNoGopractice.exec-3841.GoNoGo_Practice";;;;;;;;;;;;;;;;;;;;;;;;;;;;;;;;;;;;;;;;;;;;;;;;;;;;;;;;;;;;;;;;;;;;;;;"1950";"2014-07-22 12:07:01.577";"21";"1";"FINISHED";"RIGHT";"success";"468";"0";"2014-07-22 12:06:59.626";"3";;;;;;;;;;
"04501443";;;"Windows 7";"Rachel's Experiment (D.T.)";"1.0";"2";"1";"1";"2";"3";"1";"2014-07-22 12:05:50.468";"2014-07-22 12:25:05.360";"1";"1";"0";"501";"5";"module.GoNoGopractice.exec-3841.GoNoGo_Practice";;;;;;;;;;;;;;;;;;;;;;;;;;;;;;;;;;;;;;;;;;;;;;;;;;;;;;;;;;;;;;;;;;;;;;;"1951";"2014-07-22 12:07:04.812";"14";"1";"FINISHED";"RIGHT";"success";"401";"0";"2014-07-22 12:07:02.861";"2";;;;;;;;;;
"04501443";;;"Windows 7";"Rachel's Experiment (D.T.)";"1.0";"2";"1";"1";"2";"3";"1";"2014-07-22 12:05:50.468";"2014-07-22 12:25:05.360";"1";"1";"0";"502";"6";"module.GoNoGopractice.exec-3841.GoNoGo_Practice";;;;;;;;;;;;;;;;;;;;;;;;;;;;;;;;;;;;;;;;;;;;;;;;;;;;;;;;;;;;;;;;;;;;;;;"1950";"2014-07-22 12:07:08.054";"26";"0";"FINISHED";"LEFT";"success";"311";"0";"2014-07-22 12:07:06.103";"3";;;;;;;;;;
"04501443";;;"Windows 7";"Rachel's Experiment (D.T.)";"1.0";"2";"1";"1";"2";"3";"1";"2014-07-22 12:05:50.468";"2014-07-22 12:25:05.360";"1";"1";"0";"503";"7";"module.GoNoGopractice.exec-3841.GoNoGo_Practice";;;;;;;;;;;;;;;;;;;;;;;;;;;;;;;;;;;;;;;;;;;;;;;;;;;;;;;;;;;;;;;;;;;;;;;"1950";"2014-07-22 12:07:11.291";"2";"0";"FINISHED";"LEFT";"success";"354";"0";"2014-07-22 12:07:09.340";"1";;;;;;;;;;
"04501443";;;"Windows 7";"Rachel's Experiment (D.T.)";"1.0";"2";"1";"1";"2";"3";"1";"2014-07-22 12:05:50.468";"2014-07-22 12:25:05.360";"1";"1";"0";"504";"8";"module.GoNoGopractice.exec-3841.GoNoGo_Practice";;;;;;;;;;;;;;;;;;;;;;;;;;;;;;;;;;;;;;;;;;;;;;;;;;;;;;;;;;;;;;;;;;;;;;;"1950";"2014-07-22 12:07:14.521";"30";"0";"FINISHED";"LEFT";"success";"371";"0";"2014-07-22 12:07:12.570";"3";;;;;;;;;;
"04501443";;;"Windows 7";"Rachel's Experiment (D.T.)";"1.0";"2";"1";"1";"2";"3";"1";"2014-07-22 12:05:50.468";"2014-07-22 12:25:05.360";"1";"1";"0";"505";"9";"module.GoNoGopractice.exec-3841.GoNoGo_Practice";;;;;;;;;;;;;;;;;;;;;;;;;;;;;;;;;;;;;;;;;;;;;;;;;;;;;;;;;;;;;;;;;;;;;;;"1950";"2014-07-22 12:07:17.756";"6";"1";"FINISHED";"RIGHT";"success";"353";"0";"2014-07-22 12:07:15.804";"1";;;;;;;;;;
"04501443";;;"Windows 7";"Rachel's Experiment (D.T.)";"1.0";"2";"1";"1";"2";"3";"1";"2014-07-22 12:05:50.468";"2014-07-22 12:25:05.360";"1";"1";"0";"506";"10";"module.GoNoGopractice.exec-3841.GoNoGo_Practice";;;;;;;;;;;;;;;;;;;;;;;;;;;;;;;;;;;;;;;;;;;;;;;;;;;;;;;;;;;;;;;;;;;;;;;"1950";"2014-07-22 12:07:20.989";"34";"0";"FINISHED";"LEFT";"success";"568";"0";"2014-07-22 12:07:19.038";"3";;;;;;;;;;
"04501443";;;"Windows 7";"Rachel's Experiment (D.T.)";"1.0";"2";"1";"1";"2";"3";"1";"2014-07-22 12:05:50.468";"2014-07-22 12:25:05.360";"1";"1";"0";"507";"11";"module.GoNoGopractice.exec-3841.GoNoGo_Practice";;;;;;;;;;;;;;;;;;;;;;;;;;;;;;;;;;;;;;;;;;;;;;;;;;;;;;;;;;;;;;;;;;;;;;;"1950";"2014-07-22 12:07:24.222";"23";"1";"FINISHED";"RIGHT";"success";"383";"0";"2014-07-22 12:07:22.271";"3";;;;;;;;;;
"04501443";;;"Windows 7";"Rachel's Experiment (D.T.)";"1.0";"2";"1";"1";"2";"3";"1";"2014-07-22 12:05:50.468";"2014-07-22 12:25:05.360";"1";"1";"0";"508";"12";"module.GoNoGopractice.exec-3841.GoNoGo_Practice";;;;;;;;;;;;;;;;;;;;;;;;;;;;;;;;;;;;;;;;;;;;;;;;;;;;;;;;;;;;;;;;;;;;;;;"1950";"2014-07-22 12:07:27.455";"13";"0";"FINISHED";"LEFT";"success";"333";"0";"2014-07-22 12:07:25.504";"2";;;;;;;;;;
"04501443";;;"Windows 7";"Rachel's Experiment (D.T.)";"1.0";"2";"1";"1";"2";"3";"1";"2014-07-22 12:05:50.468";"2014-07-22 12:25:05.360";"1";"1";"0";"509";"13";"module.GoNoGopractice.exec-3841.GoNoGo_Practice";;;;;;;;;;;;;;;;;;;;;;;;;;;;;;;;;;;;;;;;;;;;;;;;;;;;;;;;;;;;;;;;;;;;;;;"1950";"2014-07-22 12:07:30.686";"3";"1";"FINISHED";"RIGHT";"success";"350";"0";"2014-07-22 12:07:28.735";"1";;;;;;;;;;
"04501443";;;"Windows 7";"Rachel's Experiment (D.T.)";"1.0";"2";"1";"1";"2";"3";"1";"2014-07-22 12:05:50.468";"2014-07-22 12:25:05.360";"1";"1";"0";"510";"14";"module.GoNoGopractice.exec-3841.GoNoGo_Practice";;;;;;;;;;;;;;;;;;;;;;;;;;;;;;;;;;;;;;;;;;;;;;;;;;;;;;;;;;;;;;;;;;;;;;;"1950";"2014-07-22 12:07:33.918";"27";"1";"FINISHED";"RIGHT";"success";"359";"0";"2014-07-22 12:07:31.966";"3";;;;;;;;;;
"04501443";;;"Windows 7";"Rachel's Experiment (D.T.)";"1.0";"2";"1";"1";"2";"3";"1";"2014-07-22 12:05:50.468";"2014-07-22 12:25:05.360";"1";"1";"0";"511";"15";"module.training_block1.exec-4938.GoNoGo1";;;;;;;;;;;;;;;;;;;;;;;"1250";"2014-07-22 12:09:59.821";"NST_correctLoc";"32";"1";"FINISHED";"RIGHT";"success";"386";"0";"2014-07-22 12:09:58.571";"3";;;;;;;;;;;;;;;;;;;;;;;;;;;;;;;;;;;;;;;;;;;;;;;;;;;;;;;;;
"04501443";;;"Windows 7";"Rachel's Experiment (D.T.)";"1.0";"2";"1";"1";"2";"3";"1";"2014-07-22 12:05:50.468";"2014-07-22 12:25:05.360";"1";"1";"0";"512";"16";"module.training_block1.exec-4938.GoNoGo1";;;;;;;;;;;;;;;;;;;;;;;"1250";"2014-07-22 12:10:02.356";"NST_correctLoc";"16";"0";"FINISHED";"LEFT";"success";"363";"0";"2014-07-22 12:10:01.106";"2";;;;;;;;;;;;;;;;;;;;;;;;;;;;;;;;;;;;;;;;;;;;;;;;;;;;;;;;;
"04501443";;;"Windows 7";"Rachel's Experiment (D.T.)";"1.0";"2";"1";"1";"2";"3";"1";"2014-07-22 12:05:50.468";"2014-07-22 12:25:05.360";"1";"1";"0";"513";"17";"module.training_block1.exec-4938.GoNoGo1";;;;;;;;;;;;;;;;;;;;;;;"1249";"2014-07-22 12:10:04.887";"NST_correctLoc";"25";"1";"FINISHED";"RIGHT";"success";"367";"0";"2014-07-22 12:10:03.637";"3";;;;;;;;;;;;;;;;;;;;;;;;;;;;;;;;;;;;;;;;;;;;;;;;;;;;;;;;;
"04501443";;;"Windows 7";"Rachel's Experiment (D.T.)";"1.0";"2";"1";"1";"2";"3";"1";"2014-07-22 12:05:50.468";"2014-07-22 12:25:05.360";"1";"1";"0";"514";"18";"module.training_block1.exec-4938.GoNoGo1";;;;;;;;;;;;;;;;;;;;;;;"1250";"2014-07-22 12:10:07.414";"NST_correctLoc";"30";"0";"FINISHED";"LEFT";"success";"336";"0";"2014-07-22 12:10:06.164";"3";;;;;;;;;;;;;;;;;;;;;;;;;;;;;;;;;;;;;;;;;;;;;;;;;;;;;;;;;
"04501443";;;"Windows 7";"Rachel's Experiment (D.T.)";"1.0";"2";"1";"1";"2";"3";"1";"2014-07-22 12:05:50.468";"2014-07-22 12:25:05.360";"1";"1";"0";"515";"19";"module.training_block1.exec-4938.GoNoGo1";;;;;;;;;;;;;;;;;;;;;;;"1249";"2014-07-22 12:10:09.945";"NST_correctLoc";"17";"0";"FINISHED";"LEFT";"success";"333";"0";"2014-07-22 12:10:08.695";"2";;;;;;;;;;;;;;;;;;;;;;;;;;;;;;;;;;;;;;;;;;;;;;;;;;;;;;;;;
"04501443";;;"Windows 7";"Rachel's Experiment (D.T.)";"1.0";"2";"1";"1";"2";"3";"1";"2014-07-22 12:05:50.468";"2014-07-22 12:25:05.360";"1";"1";"0";"516";"20";"module.training_block1.exec-4938.GoNoGo1";;;;;;;;;;;;;;;;;;;;;;;"1249";"2014-07-22 12:10:12.475";"NST_correctLoc";"1";"1";"FINISHED";"RIGHT";"success";"371";"0";"2014-07-22 12:10:11.225";"1";;;;;;;;;;;;;;;;;;;;;;;;;;;;;;;;;;;;;;;;;;;;;;;;;;;;;;;;;
"04501443";;;"Windows 7";"Rachel's Experiment (D.T.)";"1.0";"2";"1";"1";"2";"3";"1";"2014-07-22 12:05:50.468";"2014-07-22 12:25:05.360";"1";"1";"0";"517";"21";"module.training_block1.exec-4938.GoNoGo1";;;;;;;;;;;;;;;;;;;;;;;"1250";"2014-07-22 12:10:15.002";"NST_correctLoc";"34";"0";"FINISHED";"LEFT";"success";"397";"0";"2014-07-22 12:10:13.752";"3";;;;;;;;;;;;;;;;;;;;;;;;;;;;;;;;;;;;;;;;;;;;;;;;;;;;;;;;;
"04501443";;;"Windows 7";"Rachel's Experiment (D.T.)";"1.0";"2";"1";"1";"2";"3";"1";"2014-07-22 12:05:50.468";"2014-07-22 12:25:05.360";"1";"1";"0";"518";"22";"module.training_block1.exec-4938.GoNoGo1";;;;;;;;;;;;;;;;;;;;;;;"1249";"2014-07-22 12:10:17.527";"NST_correctLoc";"27";"0";"FINISHED";"LEFT";"success";"319";"0";"2014-07-22 12:10:16.277";"3";;;;;;;;;;;;;;;;;;;;;;;;;;;;;;;;;;;;;;;;;;;;;;;;;;;;;;;;;
"04501443";;;"Windows 7";"Rachel's Experiment (D.T.)";"1.0";"2";"1";"1";"2";"3";"1";"2014-07-22 12:05:50.468";"2014-07-22 12:25:05.360";"1";"1";"0";"519";"23";"module.training_block1.exec-4938.GoNoGo1";;;;;;;;;;;;;;;;;;;;;;;"1249";"2014-07-22 12:10:20.052";"NST_correctLoc";"6";"0";"FINISHED";"LEFT";"success";"298";"0";"2014-07-22 12:10:18.802";"1";;;;;;;;;;;;;;;;;;;;;;;;;;;;;;;;;;;;;;;;;;;;;;;;;;;;;;;;;
"04501443";;;"Windows 7";"Rachel's Experiment (D.T.)";"1.0";"2";"1";"1";"2";"3";"1";"2014-07-22 12:05:50.468";"2014-07-22 12:25:05.360";"1";"1";"0";"520";"24";"module.training_block1.exec-4938.GoNoGo1";;;;;;;;;;;;;;;;;;;;;;;"1249";"2014-07-22 12:10:22.581";"NST_correctLoc";"20";"0";"FINISHED";"LEFT";"success";"329";"0";"2014-07-22 12:10:21.331";"3";;;;;;;;;;;;;;;;;;;;;;;;;;;;;;;;;;;;;;;;;;;;;;;;;;;;;;;;;
"04501443";;;"Windows 7";"Rachel's Experiment (D.T.)";"1.0";"2";"1";"1";"2";"3";"1";"2014-07-22 12:05:50.468";"2014-07-22 12:25:05.360";"1";"1";"0";"521";"25";"module.training_block1.exec-4938.GoNoGo1";;;;;;;;;;;;;;;;;;;;;;;"1250";"2014-07-22 12:10:25.106";"NST_correctLoc";"2";"0";"FINISHED";"LEFT";"success";"340";"0";"2014-07-22 12:10:23.856";"1";;;;;;;;;;;;;;;;;;;;;;;;;;;;;;;;;;;;;;;;;;;;;;;;;;;;;;;;;
"04501443";;;"Windows 7";"Rachel's Experiment (D.T.)";"1.0";"2";"1";"1";"2";"3";"1";"2014-07-22 12:05:50.468";"2014-07-22 12:25:05.360";"1";"1";"0";"522";"26";"module.training_block1.exec-4938.GoNoGo1";;;;;;;;;;;;;;;;;;;;;;;"1249";"2014-07-22 12:10:27.634";"NST_correctLoc";"5";"1";"FINISHED";"RIGHT";"success";"339";"0";"2014-07-22 12:10:26.384";"1";;;;;;;;;;;;;;;;;;;;;;;;;;;;;;;;;;;;;;;;;;;;;;;;;;;;;;;;;
"04501443";;;"Windows 7";"Rachel's Experiment (D.T.)";"1.0";"2";"1";"1";"2";"3";"1";"2014-07-22 12:05:50.468";"2014-07-22 12:25:05.360";"1";"1";"0";"523";"27";"module.training_block1.exec-4938.GoNoGo1";;;;;;;;;;;;;;;;;;;;;;;"1250";"2014-07-22 12:10:30.169";"NST_correctLoc";"33";"1";"FINISHED";"RIGHT";"success";"358";"0";"2014-07-22 12:10:28.918";"3";;;;;;;;;;;;;;;;;;;;;;;;;;;;;;;;;;;;;;;;;;;;;;;;;;;;;;;;;
"04501443";;;"Windows 7";"Rachel's Experiment (D.T.)";"1.0";"2";"1";"1";"2";"3";"1";"2014-07-22 12:05:50.468";"2014-07-22 12:25:05.360";"1";"1";"0";"524";"28";"module.training_block1.exec-4938.GoNoGo1";;;;;;;;;;;;;;;;;;;;;;;"1250";"2014-07-22 12:10:32.693";"NST_correctLoc";"21";"0";"FINISHED";"LEFT";"success";"386";"0";"2014-07-22 12:10:31.443";"3";;;;;;;;;;;;;;;;;;;;;;;;;;;;;;;;;;;;;;;;;;;;;;;;;;;;;;;;;
"04501443";;;"Windows 7";"Rachel's Experiment (D.T.)";"1.0";"2";"1";"1";"2";"3";"1";"2014-07-22 12:05:50.468";"2014-07-22 12:25:05.360";"1";"1";"0";"525";"29";"module.training_block1.exec-4938.GoNoGo1";;;;;;;;;;;;;;;;;;;;;;;"1249";"2014-07-22 12:10:35.221";"NST_correctLoc";"35";"1";"FINISHED";"RIGHT";"success";"361";"0";"2014-07-22 12:10:33.971";"3";;;;;;;;;;;;;;;;;;;;;;;;;;;;;;;;;;;;;;;;;;;;;;;;;;;;;;;;;
"04501443";;;"Windows 7";"Rachel's Experiment (D.T.)";"1.0";"2";"1";"1";"2";"3";"1";"2014-07-22 12:05:50.468";"2014-07-22 12:25:05.360";"1";"1";"0";"526";"30";"module.training_block1.exec-4938.GoNoGo1";;;;;;;;;;;;;;;;;;;;;;;"1249";"2014-07-22 12:10:37.745";"NST_correctLoc";"18";"0";"FINISHED";"LEFT";"success";"317";"0";"2014-07-22 12:10:36.495";"3";;;;;;;;;;;;;;;;;;;;;;;;;;;;;;;;;;;;;;;;;;;;;;;;;;;;;;;;;
"04501443";;;"Windows 7";"Rachel's Experiment (D.T.)";"1.0";"2";"1";"1";"2";"3";"1";"2014-07-22 12:05:50.468";"2014-07-22 12:25:05.360";"1";"1";"0";"527";"31";"module.training_block1.exec-4938.GoNoGo1";;;;;;;;;;;;;;;;;;;;;;;"1249";"2014-07-22 12:10:40.273";"NST_correctLoc";"24";"1";"FINISHED";"RIGHT";"success";"293";"0";"2014-07-22 12:10:39.023";"3";;;;;;;;;;;;;;;;;;;;;;;;;;;;;;;;;;;;;;;;;;;;;;;;;;;;;;;;;
"04501443";;;"Windows 7";"Rachel's Experiment (D.T.)";"1.0";"2";"1";"1";"2";"3";"1";"2014-07-22 12:05:50.468";"2014-07-22 12:25:05.360";"1";"1";"0";"528";"32";"module.training_block1.exec-4938.GoNoGo1";;;;;;;;;;;;;;;;;;;;;;;"1249";"2014-07-22 12:10:42.799";"NST_correctLoc";"29";"1";"FINISHED";"RIGHT";"success";"334";"0";"2014-07-22 12:10:41.549";"3";;;;;;;;;;;;;;;;;;;;;;;;;;;;;;;;;;;;;;;;;;;;;;;;;;;;;;;;;
"04501443";;;"Windows 7";"Rachel's Experiment (D.T.)";"1.0";"2";"1";"1";"2";"3";"1";"2014-07-22 12:05:50.468";"2014-07-22 12:25:05.360";"1";"1";"0";"529";"33";"module.training_block1.exec-4938.GoNoGo1";;;;;;;;;;;;;;;;;;;;;;;"1249";"2014-07-22 12:10:45.326";"NST_correctLoc";"12";"1";"FINISHED";"RIGHT";"success";"343";"0";"2014-07-22 12:10:44.076";"2";;;;;;;;;;;;;;;;;;;;;;;;;;;;;;;;;;;;;;;;;;;;;;;;;;;;;;;;;
"04501443";;;"Windows 7";"Rachel's Experiment (D.T.)";"1.0";"2";"1";"1";"2";"3";"1";"2014-07-22 12:05:50.468";"2014-07-22 12:25:05.360";"1";"1";"0";"530";"34";"module.training_block1.exec-4938.GoNoGo1";;;;;;;;;;;;;;;;;;;;;;;"1249";"2014-07-22 12:10:47.853";"NST_correctLoc";"19";"1";"FINISHED";"RIGHT";"success";"329";"0";"2014-07-22 12:10:46.603";"3";;;;;;;;;;;;;;;;;;;;;;;;;;;;;;;;;;;;;;;;;;;;;;;;;;;;;;;;;
"04501443";;;"Windows 7";"Rachel's Experiment (D.T.)";"1.0";"2";"1";"1";"2";"3";"1";"2014-07-22 12:05:50.468";"2014-07-22 12:25:05.360";"1";"1";"0";"531";"35";"module.training_block1.exec-4938.GoNoGo1";;;;;;;;;;;;;;;;;;;;;;;"1249";"2014-07-22 12:10:50.380";"NST_correctLoc";"11";"1";"FINISHED";"RIGHT";"success";"331";"0";"2014-07-22 12:10:49.130";"2";;;;;;;;;;;;;;;;;;;;;;;;;;;;;;;;;;;;;;;;;;;;;;;;;;;;;;;;;
"04501443";;;"Windows 7";"Rachel's Experiment (D.T.)";"1.0";"2";"1";"1";"2";"3";"1";"2014-07-22 12:05:50.468";"2014-07-22 12:25:05.360";"1";"1";"0";"532";"36";"module.training_block1.exec-4938.GoNoGo1";;;;;;;;;;;;;;;;;;;;;;;"1250";"2014-07-22 12:10:52.902";"NST_correctLoc";"26";"0";"FINISHED";"LEFT";"success";"313";"0";"2014-07-22 12:10:51.651";"3";;;;;;;;;;;;;;;;;;;;;;;;;;;;;;;;;;;;;;;;;;;;;;;;;;;;;;;;;
"04501443";;;"Windows 7";"Rachel's Experiment (D.T.)";"1.0";"2";"1";"1";"2";"3";"1";"2014-07-22 12:05:50.468";"2014-07-22 12:25:05.360";"1";"1";"0";"533";"37";"module.training_block1.exec-4938.GoNoGo1";;;;;;;;;;;;;;;;;;;;;;;"1249";"2014-07-22 12:10:55.429";"NST_correctLoc";"15";"0";"FINISHED";"LEFT";"success";"369";"0";"2014-07-22 12:10:54.179";"2";;;;;;;;;;;;;;;;;;;;;;;;;;;;;;;;;;;;;;;;;;;;;;;;;;;;;;;;;
"04501443";;;"Windows 7";"Rachel's Experiment (D.T.)";"1.0";"2";"1";"1";"2";"3";"1";"2014-07-22 12:05:50.468";"2014-07-22 12:25:05.360";"1";"1";"0";"534";"38";"module.training_block1.exec-4938.GoNoGo1";;;;;;;;;;;;;;;;;;;;;;;"1250";"2014-07-22 12:10:57.952";"NST_correctLoc";"3";"0";"FINISHED";"LEFT";"success";"382";"0";"2014-07-22 12:10:56.702";"1";;;;;;;;;;;;;;;;;;;;;;;;;;;;;;;;;;;;;;;;;;;;;;;;;;;;;;;;;
"04501443";;;"Windows 7";"Rachel's Experiment (D.T.)";"1.0";"2";"1";"1";"2";"3";"1";"2014-07-22 12:05:50.468";"2014-07-22 12:25:05.360";"1";"1";"0";"535";"39";"module.training_block1.exec-4938.GoNoGo1";;;;;;;;;;;;;;;;;;;;;;;"1249";"2014-07-22 12:11:00.485";"NST_correctLoc";"31";"1";"FINISHED";"RIGHT";"success";"296";"0";"2014-07-22 12:10:59.235";"3";;;;;;;;;;;;;;;;;;;;;;;;;;;;;;;;;;;;;;;;;;;;;;;;;;;;;;;;;
"04501443";;;"Windows 7";"Rachel's Experiment (D.T.)";"1.0";"2";"1";"1";"2";"3";"1";"2014-07-22 12:05:50.468";"2014-07-22 12:25:05.360";"1";"1";"0";"536";"40";"module.training_block1.exec-4938.GoNoGo1";;;;;;;;;;;;;;;;;;;;;;;"1250";"2014-07-22 12:11:03.013";"NST_correctLoc";"8";"1";"FINISHED";"RIGHT";"success";"321";"0";"2014-07-22 12:11:01.763";"1";;;;;;;;;;;;;;;;;;;;;;;;;;;;;;;;;;;;;;;;;;;;;;;;;;;;;;;;;
"04501443";;;"Windows 7";"Rachel's Experiment (D.T.)";"1.0";"2";"1";"1";"2";"3";"1";"2014-07-22 12:05:50.468";"2014-07-22 12:25:05.360";"1";"1";"0";"537";"41";"module.training_block1.exec-4938.GoNoGo1";;;;;;;;;;;;;;;;;;;;;;;"1250";"2014-07-22 12:11:05.540";"NST_correctLoc";"7";"1";"FINISHED";"RIGHT";"success";"362";"0";"2014-07-22 12:11:04.290";"1";;;;;;;;;;;;;;;;;;;;;;;;;;;;;;;;;;;;;;;;;;;;;;;;;;;;;;;;;
"04501443";;;"Windows 7";"Rachel's Experiment (D.T.)";"1.0";"2";"1";"1";"2";"3";"1";"2014-07-22 12:05:50.468";"2014-07-22 12:25:05.360";"1";"1";"0";"538";"42";"module.training_block1.exec-4938.GoNoGo1";;;;;;;;;;;;;;;;;;;;;;;"1249";"2014-07-22 12:11:08.067";"NST_correctLoc";"0";"1";"FINISHED";"RIGHT";"success";"347";"0";"2014-07-22 12:11:06.817";"1";;;;;;;;;;;;;;;;;;;;;;;;;;;;;;;;;;;;;;;;;;;;;;;;;;;;;;;;;
"04501443";;;"Windows 7";"Rachel's Experiment (D.T.)";"1.0";"2";"1";"1";"2";"3";"1";"2014-07-22 12:05:50.468";"2014-07-22 12:25:05.360";"1";"1";"0";"539";"43";"module.training_block1.exec-4938.GoNoGo1";;;;;;;;;;;;;;;;;;;;;;;"1249";"2014-07-22 12:11:10.592";"NST_correctLoc";"22";"0";"FINISHED";"LEFT";"success";"302";"0";"2014-07-22 12:11:09.342";"3";;;;;;;;;;;;;;;;;;;;;;;;;;;;;;;;;;;;;;;;;;;;;;;;;;;;;;;;;
"04501443";;;"Windows 7";"Rachel's Experiment (D.T.)";"1.0";"2";"1";"1";"2";"3";"1";"2014-07-22 12:05:50.468";"2014-07-22 12:25:05.360";"1";"1";"0";"540";"44";"module.training_block1.exec-4938.GoNoGo1";;;;;;;;;;;;;;;;;;;;;;;"1249";"2014-07-22 12:11:13.117";"NST_correctLoc";"28";"0";"FINISHED";"LEFT";"success";"329";"0";"2014-07-22 12:11:11.867";"3";;;;;;;;;;;;;;;;;;;;;;;;;;;;;;;;;;;;;;;;;;;;;;;;;;;;;;;;;
"04501443";;;"Windows 7";"Rachel's Experiment (D.T.)";"1.0";"2";"1";"1";"2";"3";"1";"2014-07-22 12:05:50.468";"2014-07-22 12:25:05.360";"1";"1";"0";"541";"45";"module.training_block1.exec-4938.GoNoGo1";;;;;;;;;;;;;;;;;;;;;;;"1249";"2014-07-22 12:11:15.643";"NST_correctLoc";"4";"1";"FINISHED";"RIGHT";"success";"299";"0";"2014-07-22 12:11:14.393";"1";;;;;;;;;;;;;;;;;;;;;;;;;;;;;;;;;;;;;;;;;;;;;;;;;;;;;;;;;
"04501443";;;"Windows 7";"Rachel's Experiment (D.T.)";"1.0";"2";"1";"1";"2";"3";"1";"2014-07-22 12:05:50.468";"2014-07-22 12:25:05.360";"1";"1";"0";"542";"46";"module.training_block1.exec-4938.GoNoGo1";;;;;;;;;;;;;;;;;;;;;;;"1249";"2014-07-22 12:11:18.168";"NST_correctLoc";"9";"1";"FINISHED";"RIGHT";"success";"365";"0";"2014-07-22 12:11:16.918";"2";;;;;;;;;;;;;;;;;;;;;;;;;;;;;;;;;;;;;;;;;;;;;;;;;;;;;;;;;
"04501443";;;"Windows 7";"Rachel's Experiment (D.T.)";"1.0";"2";"1";"1";"2";"3";"1";"2014-07-22 12:05:50.468";"2014-07-22 12:25:05.360";"1";"1";"0";"543";"47";"module.training_block1.exec-4938.GoNoGo1";;;;;;;;;;;;;;;;;;;;;;;"1249";"2014-07-22 12:11:20.694";"NST_correctLoc";"10";"0";"FINISHED";"LEFT";"success";"304";"0";"2014-07-22 12:11:19.443";"2";;;;;;;;;;;;;;;;;;;;;;;;;;;;;;;;;;;;;;;;;;;;;;;;;;;;;;;;;
"04501443";;;"Windows 7";"Rachel's Experiment (D.T.)";"1.0";"2";"1";"1";"2";"3";"1";"2014-07-22 12:05:50.468";"2014-07-22 12:25:05.360";"1";"1";"0";"544";"48";"module.training_block1.exec-4938.GoNoGo1";;;;;;;;;;;;;;;;;;;;;;;"1250";"2014-07-22 12:11:23.215";"NST_correctLoc";"13";"0";"FINISHED";"LEFT";"success";"368";"0";"2014-07-22 12:11:21.965";"2";;;;;;;;;;;;;;;;;;;;;;;;;;;;;;;;;;;;;;;;;;;;;;;;;;;;;;;;;
"04501443";;;"Windows 7";"Rachel's Experiment (D.T.)";"1.0";"2";"1";"1";"2";"3";"1";"2014-07-22 12:05:50.468";"2014-07-22 12:25:05.360";"1";"1";"0";"545";"49";"module.training_block1.exec-4938.GoNoGo1";;;;;;;;;;;;;;;;;;;;;;;"1249";"2014-07-22 12:11:25.735";"NST_correctLoc";"23";"1";"FINISHED";"RIGHT";"success";"334";"0";"2014-07-22 12:11:24.485";"3";;;;;;;;;;;;;;;;;;;;;;;;;;;;;;;;;;;;;;;;;;;;;;;;;;;;;;;;;
"04501443";;;"Windows 7";"Rachel's Experiment (D.T.)";"1.0";"2";"1";"1";"2";"3";"1";"2014-07-22 12:05:50.468";"2014-07-22 12:25:05.360";"1";"1";"0";"546";"50";"module.training_block1.exec-4938.GoNoGo1";;;;;;;;;;;;;;;;;;;;;;;"1249";"2014-07-22 12:11:28.354";"NST_correctLoc";"14";"1";"FINISHED";"RIGHT";"success";"380";"0";"2014-07-22 12:11:27.104";"2";;;;;;;;;;;;;;;;;;;;;;;;;;;;;;;;;;;;;;;;;;;;;;;;;;;;;;;;;
"04501443";;;"Windows 7";"Rachel's Experiment (D.T.)";"1.0";"2";"1";"1";"2";"3";"1";"2014-07-22 12:05:50.468";"2014-07-22 12:25:05.360";"1";"1";"0";"547";"51";"module.training_block2.exec-6531.GoNoGo2";;;;;;;;;;;;;;;;;;;;;;;;;;;;;;;;;;;"1249";"2014-07-22 12:11:40.639";"NST_correctLoc";"22";"0";"FINISHED";"LEFT";"success";"295";"0";"2014-07-22 12:11:39.389";"3";;;;;;;;;;;;;;;;;;;;;;;;;;;;;;;;;;;;;;;;;;;;;
"04501443";;;"Windows 7";"Rachel's Experiment (D.T.)";"1.0";"2";"1";"1";"2";"3";"1";"2014-07-22 12:05:50.468";"2014-07-22 12:25:05.360";"1";"1";"0";"548";"52";"module.training_block2.exec-6531.GoNoGo2";;;;;;;;;;;;;;;;;;;;;;;;;;;;;;;;;;;"1249";"2014-07-22 12:11:43.164";"NST_correctLoc";"6";"0";"FINISHED";"LEFT";"success";"322";"0";"2014-07-22 12:11:41.914";"1";;;;;;;;;;;;;;;;;;;;;;;;;;;;;;;;;;;;;;;;;;;;;
"04501443";;;"Windows 7";"Rachel's Experiment (D.T.)";"1.0";"2";"1";"1";"2";"3";"1";"2014-07-22 12:05:50.468";"2014-07-22 12:25:05.360";"1";"1";"0";"549";"53";"module.training_block2.exec-6531.GoNoGo2";;;;;;;;;;;;;;;;;;;;;;;;;;;;;;;;;;;"1250";"2014-07-22 12:11:45.686";"NST_correctLoc";"14";"0";"FINISHED";"LEFT";"success";"304";"0";"2014-07-22 12:11:44.436";"2";;;;;;;;;;;;;;;;;;;;;;;;;;;;;;;;;;;;;;;;;;;;;
"04501443";;;"Windows 7";"Rachel's Experiment (D.T.)";"1.0";"2";"1";"1";"2";"3";"1";"2014-07-22 12:05:50.468";"2014-07-22 12:25:05.360";"1";"1";"0";"550";"54";"module.training_block2.exec-6531.GoNoGo2";;;;;;;;;;;;;;;;;;;;;;;;;;;;;;;;;;;"1249";"2014-07-22 12:11:48.210";"NST_correctLoc";"12";"0";"FINISHED";"LEFT";"success";"331";"0";"2014-07-22 12:11:46.960";"2";;;;;;;;;;;;;;;;;;;;;;;;;;;;;;;;;;;;;;;;;;;;;
"04501443";;;"Windows 7";"Rachel's Experiment (D.T.)";"1.0";"2";"1";"1";"2";"3";"1";"2014-07-22 12:05:50.468";"2014-07-22 12:25:05.360";"1";"1";"0";"551";"55";"module.training_block2.exec-6531.GoNoGo2";;;;;;;;;;;;;;;;;;;;;;;;;;;;;;;;;;;"1250";"2014-07-22 12:11:50.736";"NST_correctLoc";"16";"0";"FINISHED";"LEFT";"success";"366";"0";"2014-07-22 12:11:49.486";"2";;;;;;;;;;;;;;;;;;;;;;;;;;;;;;;;;;;;;;;;;;;;;
"04501443";;;"Windows 7";"Rachel's Experiment (D.T.)";"1.0";"2";"1";"1";"2";"3";"1";"2014-07-22 12:05:50.468";"2014-07-22 12:25:05.360";"1";"1";"0";"552";"56";"module.training_block2.exec-6531.GoNoGo2";;;;;;;;;;;;;;;;;;;;;;;;;;;;;;;;;;;"1250";"2014-07-22 12:11:53.261";"NST_correctLoc";"0";"1";"FINISHED";"RIGHT";"success";"297";"0";"2014-07-22 12:11:52.011";"1";;;;;;;;;;;;;;;;;;;;;;;;;;;;;;;;;;;;;;;;;;;;;
"04501443";;;"Windows 7";"Rachel's Experiment (D.T.)";"1.0";"2";"1";"1";"2";"3";"1";"2014-07-22 12:05:50.468";"2014-07-22 12:25:05.360";"1";"1";"0";"553";"57";"module.training_block2.exec-6531.GoNoGo2";;;;;;;;;;;;;;;;;;;;;;;;;;;;;;;;;;;"1249";"2014-07-22 12:11:55.786";"NST_correctLoc";"20";"1";"FINISHED";"RIGHT";"success";"332";"0";"2014-07-22 12:11:54.535";"3";;;;;;;;;;;;;;;;;;;;;;;;;;;;;;;;;;;;;;;;;;;;;
"04501443";;;"Windows 7";"Rachel's Experiment (D.T.)";"1.0";"2";"1";"1";"2";"3";"1";"2014-07-22 12:05:50.468";"2014-07-22 12:25:05.360";"1";"1";"0";"554";"58";"module.training_block2.exec-6531.GoNoGo2";;;;;;;;;;;;;;;;;;;;;;;;;;;;;;;;;;;"1249";"2014-07-22 12:11:58.310";"NST_correctLoc";"34";"0";"FINISHED";"LEFT";"success";"336";"0";"2014-07-22 12:11:57.060";"3";;;;;;;;;;;;;;;;;;;;;;;;;;;;;;;;;;;;;;;;;;;;;
"04501443";;;"Windows 7";"Rachel's Experiment (D.T.)";"1.0";"2";"1";"1";"2";"3";"1";"2014-07-22 12:05:50.468";"2014-07-22 12:25:05.360";"1";"1";"0";"555";"59";"module.training_block2.exec-6531.GoNoGo2";;;;;;;;;;;;;;;;;;;;;;;;;;;;;;;;;;;"1250";"2014-07-22 12:12:00.834";"NST_correctLoc";"2";"0";"FINISHED";"LEFT";"success";"356";"0";"2014-07-22 12:11:59.584";"1";;;;;;;;;;;;;;;;;;;;;;;;;;;;;;;;;;;;;;;;;;;;;
"04501443";;;"Windows 7";"Rachel's Experiment (D.T.)";"1.0";"2";"1";"1";"2";"3";"1";"2014-07-22 12:05:50.468";"2014-07-22 12:25:05.360";"1";"1";"0";"556";"60";"module.training_block2.exec-6531.GoNoGo2";;;;;;;;;;;;;;;;;;;;;;;;;;;;;;;;;;;"1249";"2014-07-22 12:12:03.357";"NST_correctLoc";"29";"1";"FINISHED";"RIGHT";"success";"312";"0";"2014-07-22 12:12:02.107";"3";;;;;;;;;;;;;;;;;;;;;;;;;;;;;;;;;;;;;;;;;;;;;
"04501443";;;"Windows 7";"Rachel's Experiment (D.T.)";"1.0";"2";"1";"1";"2";"3";"1";"2014-07-22 12:05:50.468";"2014-07-22 12:25:05.360";"1";"1";"0";"557";"61";"module.training_block2.exec-6531.GoNoGo2";;;;;;;;;;;;;;;;;;;;;;;;;;;;;;;;;;;"1250";"2014-07-22 12:12:05.890";"NST_correctLoc";"27";"0";"FINISHED";"LEFT";"success";"348";"0";"2014-07-22 12:12:04.640";"3";;;;;;;;;;;;;;;;;;;;;;;;;;;;;;;;;;;;;;;;;;;;;
"04501443";;;"Windows 7";"Rachel's Experiment (D.T.)";"1.0";"2";"1";"1";"2";"3";"1";"2014-07-22 12:05:50.468";"2014-07-22 12:25:05.360";"1";"1";"0";"558";"62";"module.training_block2.exec-6531.GoNoGo2";;;;;;;;;;;;;;;;;;;;;;;;;;;;;;;;;;;"1249";"2014-07-22 12:12:08.413";"NST_correctLoc";"28";"1";"FINISHED";"RIGHT";"success";"320";"0";"2014-07-22 12:12:07.163";"3";;;;;;;;;;;;;;;;;;;;;;;;;;;;;;;;;;;;;;;;;;;;;
"04501443";;;"Windows 7";"Rachel's Experiment (D.T.)";"1.0";"2";"1";"1";"2";"3";"1";"2014-07-22 12:05:50.468";"2014-07-22 12:25:05.360";"1";"1";"0";"559";"63";"module.training_block2.exec-6531.GoNoGo2";;;;;;;;;;;;;;;;;;;;;;;;;;;;;;;;;;;"1249";"2014-07-22 12:12:10.938";"NST_correctLoc";"13";"1";"FINISHED";"RIGHT";"success";"331";"0";"2014-07-22 12:12:09.688";"2";;;;;;;;;;;;;;;;;;;;;;;;;;;;;;;;;;;;;;;;;;;;;
"04501443";;;"Windows 7";"Rachel's Experiment (D.T.)";"1.0";"2";"1";"1";"2";"3";"1";"2014-07-22 12:05:50.468";"2014-07-22 12:25:05.360";"1";"1";"0";"560";"64";"module.training_block2.exec-6531.GoNoGo2";;;;;;;;;;;;;;;;;;;;;;;;;;;;;;;;;;;"1249";"2014-07-22 12:12:13.464";"NST_correctLoc";"4";"0";"FINISHED";"LEFT";"success";"358";"0";"2014-07-22 12:12:12.213";"1";;;;;;;;;;;;;;;;;;;;;;;;;;;;;;;;;;;;;;;;;;;;;
"04501443";;;"Windows 7";"Rachel's Experiment (D.T.)";"1.0";"2";"1";"1";"2";"3";"1";"2014-07-22 12:05:50.468";"2014-07-22 12:25:05.360";"1";"1";"0";"561";"65";"module.training_block2.exec-6531.GoNoGo2";;;;;;;;;;;;;;;;;;;;;;;;;;;;;;;;;;;"1249";"2014-07-22 12:12:15.987";"NST_correctLoc";"7";"0";"FINISHED";"LEFT";"success";"339";"0";"2014-07-22 12:12:14.737";"1";;;;;;;;;;;;;;;;;;;;;;;;;;;;;;;;;;;;;;;;;;;;;
"04501443";;;"Windows 7";"Rachel's Experiment (D.T.)";"1.0";"2";"1";"1";"2";"3";"1";"2014-07-22 12:05:50.468";"2014-07-22 12:25:05.360";"1";"1";"0";"562";"66";"module.training_block2.exec-6531.GoNoGo2";;;;;;;;;;;;;;;;;;;;;;;;;;;;;;;;;;;"1249";"2014-07-22 12:12:18.511";"NST_correctLoc";"32";"1";"FINISHED";"RIGHT";"success";"327";"0";"2014-07-22 12:12:17.261";"3";;;;;;;;;;;;;;;;;;;;;;;;;;;;;;;;;;;;;;;;;;;;;
"04501443";;;"Windows 7";"Rachel's Experiment (D.T.)";"1.0";"2";"1";"1";"2";"3";"1";"2014-07-22 12:05:50.468";"2014-07-22 12:25:05.360";"1";"1";"0";"563";"67";"module.training_block2.exec-6531.GoNoGo2";;;;;;;;;;;;;;;;;;;;;;;;;;;;;;;;;;;"1250";"2014-07-22 12:12:21.034";"NST_correctLoc";"8";"1";"FINISHED";"RIGHT";"success";"324";"0";"2014-07-22 12:12:19.784";"1";;;;;;;;;;;;;;;;;;;;;;;;;;;;;;;;;;;;;;;;;;;;;
"04501443";;;"Windows 7";"Rachel's Experiment (D.T.)";"1.0";"2";"1";"1";"2";"3";"1";"2014-07-22 12:05:50.468";"2014-07-22 12:25:05.360";"1";"1";"0";"564";"68";"module.training_block2.exec-6531.GoNoGo2";;;;;;;;;;;;;;;;;;;;;;;;;;;;;;;;;;;"1250";"2014-07-22 12:12:23.558";"NST_correctLoc";"11";"1";"FINISHED";"RIGHT";"success";"296";"0";"2014-07-22 12:12:22.308";"2";;;;;;;;;;;;;;;;;;;;;;;;;;;;;;;;;;;;;;;;;;;;;
"04501443";;;"Windows 7";"Rachel's Experiment (D.T.)";"1.0";"2";"1";"1";"2";"3";"1";"2014-07-22 12:05:50.468";"2014-07-22 12:25:05.360";"1";"1";"0";"565";"69";"module.training_block2.exec-6531.GoNoGo2";;;;;;;;;;;;;;;;;;;;;;;;;;;;;;;;;;;"1249";"2014-07-22 12:12:26.081";"NST_correctLoc";"1";"1";"FINISHED";"RIGHT";"success";"332";"0";"2014-07-22 12:12:24.831";"1";;;;;;;;;;;;;;;;;;;;;;;;;;;;;;;;;;;;;;;;;;;;;
"04501443";;;"Windows 7";"Rachel's Experiment (D.T.)";"1.0";"2";"1";"1";"2";"3";"1";"2014-07-22 12:05:50.468";"2014-07-22 12:25:05.360";"1";"1";"0";"566";"70";"module.training_block2.exec-6531.GoNoGo2";;;;;;;;;;;;;;;;;;;;;;;;;;;;;;;;;;;"1249";"2014-07-22 12:12:28.603";"NST_correctLoc";"25";"1";"FINISHED";"RIGHT";"success";"298";"0";"2014-07-22 12:12:27.353";"3";;;;;;;;;;;;;;;;;;;;;;;;;;;;;;;;;;;;;;;;;;;;;
"04501443";;;"Windows 7";"Rachel's Experiment (D.T.)";"1.0";"2";"1";"1";"2";"3";"1";"2014-07-22 12:05:50.468";"2014-07-22 12:25:05.360";"1";"1";"0";"567";"71";"module.training_block2.exec-6531.GoNoGo2";;;;;;;;;;;;;;;;;;;;;;;;;;;;;;;;;;;"1249";"2014-07-22 12:12:31.127";"NST_correctLoc";"9";"0";"FINISHED";"LEFT";"success";"591";"0";"2014-07-22 12:12:29.876";"2";;;;;;;;;;;;;;;;;;;;;;;;;;;;;;;;;;;;;;;;;;;;;
"04501443";;;"Windows 7";"Rachel's Experiment (D.T.)";"1.0";"2";"1";"1";"2";"3";"1";"2014-07-22 12:05:50.468";"2014-07-22 12:25:05.360";"1";"1";"0";"568";"72";"module.training_block2.exec-6531.GoNoGo2";;;;;;;;;;;;;;;;;;;;;;;;;;;;;;;;;;;"1249";"2014-07-22 12:12:33.645";"NST_correctLoc";"23";"1";"FINISHED";"RIGHT";"success";"352";"0";"2014-07-22 12:12:32.395";"3";;;;;;;;;;;;;;;;;;;;;;;;;;;;;;;;;;;;;;;;;;;;;
"04501443";;;"Windows 7";"Rachel's Experiment (D.T.)";"1.0";"2";"1";"1";"2";"3";"1";"2014-07-22 12:05:50.468";"2014-07-22 12:25:05.360";"1";"1";"0";"569";"73";"module.training_block2.exec-6531.GoNoGo2";;;;;;;;;;;;;;;;;;;;;;;;;;;;;;;;;;;"1249";"2014-07-22 12:12:36.167";"NST_correctLoc";"5";"1";"FINISHED";"RIGHT";"success";"342";"0";"2014-07-22 12:12:34.917";"1";;;;;;;;;;;;;;;;;;;;;;;;;;;;;;;;;;;;;;;;;;;;;
"04501443";;;"Windows 7";"Rachel's Experiment (D.T.)";"1.0";"2";"1";"1";"2";"3";"1";"2014-07-22 12:05:50.468";"2014-07-22 12:25:05.360";"1";"1";"0";"570";"74";"module.training_block2.exec-6531.GoNoGo2";;;;;;;;;;;;;;;;;;;;;;;;;;;;;;;;;;;"1249";"2014-07-22 12:12:38.699";"NST_correctLoc";"21";"1";"FINISHED";"RIGHT";"success";"338";"0";"2014-07-22 12:12:37.449";"3";;;;;;;;;;;;;;;;;;;;;;;;;;;;;;;;;;;;;;;;;;;;;
"04501443";;;"Windows 7";"Rachel's Experiment (D.T.)";"1.0";"2";"1";"1";"2";"3";"1";"2014-07-22 12:05:50.468";"2014-07-22 12:25:05.360";"1";"1";"0";"571";"75";"module.training_block2.exec-6531.GoNoGo2";;;;;;;;;;;;;;;;;;;;;;;;;;;;;;;;;;;"1249";"2014-07-22 12:12:41.220";"NST_correctLoc";"33";"0";"FINISHED";"LEFT";"success";"265";"0";"2014-07-22 12:12:39.970";"3";;;;;;;;;;;;;;;;;;;;;;;;;;;;;;;;;;;;;;;;;;;;;
"04501443";;;"Windows 7";"Rachel's Experiment (D.T.)";"1.0";"2";"1";"1";"2";"3";"1";"2014-07-22 12:05:50.468";"2014-07-22 12:25:05.360";"1";"1";"0";"572";"76";"module.training_block2.exec-6531.GoNoGo2";;;;;;;;;;;;;;;;;;;;;;;;;;;;;;;;;;;"1250";"2014-07-22 12:12:43.741";"NST_correctLoc";"3";"1";"FINISHED";"RIGHT";"success";"360";"0";"2014-07-22 12:12:42.491";"1";;;;;;;;;;;;;;;;;;;;;;;;;;;;;;;;;;;;;;;;;;;;;
"04501443";;;"Windows 7";"Rachel's Experiment (D.T.)";"1.0";"2";"1";"1";"2";"3";"1";"2014-07-22 12:05:50.468";"2014-07-22 12:25:05.360";"1";"1";"0";"573";"77";"module.training_block2.exec-6531.GoNoGo2";;;;;;;;;;;;;;;;;;;;;;;;;;;;;;;;;;;"1249";"2014-07-22 12:12:46.263";"NST_correctLoc";"17";"1";"FINISHED";"RIGHT";"success";"342";"0";"2014-07-22 12:12:45.013";"2";;;;;;;;;;;;;;;;;;;;;;;;;;;;;;;;;;;;;;;;;;;;;
"04501443";;;"Windows 7";"Rachel's Experiment (D.T.)";"1.0";"2";"1";"1";"2";"3";"1";"2014-07-22 12:05:50.468";"2014-07-22 12:25:05.360";"1";"1";"0";"574";"78";"module.training_block2.exec-6531.GoNoGo2";;;;;;;;;;;;;;;;;;;;;;;;;;;;;;;;;;;"1250";"2014-07-22 12:12:48.786";"NST_correctLoc";"10";"0";"FINISHED";"LEFT";"success";"276";"0";"2014-07-22 12:12:47.535";"2";;;;;;;;;;;;;;;;;;;;;;;;;;;;;;;;;;;;;;;;;;;;;
"04501443";;;"Windows 7";"Rachel's Experiment (D.T.)";"1.0";"2";"1";"1";"2";"3";"1";"2014-07-22 12:05:50.468";"2014-07-22 12:25:05.360";"1";"1";"0";"575";"79";"module.training_block2.exec-6531.GoNoGo2";;;;;;;;;;;;;;;;;;;;;;;;;;;;;;;;;;;"1250";"2014-07-22 12:12:51.307";"NST_correctLoc";"30";"1";"FINISHED";"RIGHT";"success";"363";"0";"2014-07-22 12:12:50.057";"3";;;;;;;;;;;;;;;;;;;;;;;;;;;;;;;;;;;;;;;;;;;;;
"04501443";;;"Windows 7";"Rachel's Experiment (D.T.)";"1.0";"2";"1";"1";"2";"3";"1";"2014-07-22 12:05:50.468";"2014-07-22 12:25:05.360";"1";"1";"0";"576";"80";"module.training_block2.exec-6531.GoNoGo2";;;;;;;;;;;;;;;;;;;;;;;;;;;;;;;;;;;"1249";"2014-07-22 12:12:53.828";"NST_correctLoc";"19";"1";"FINISHED";"RIGHT";"success";"329";"0";"2014-07-22 12:12:52.578";"3";;;;;;;;;;;;;;;;;;;;;;;;;;;;;;;;;;;;;;;;;;;;;
"04501443";;;"Windows 7";"Rachel's Experiment (D.T.)";"1.0";"2";"1";"1";"2";"3";"1";"2014-07-22 12:05:50.468";"2014-07-22 12:25:05.360";"1";"1";"0";"577";"81";"module.training_block2.exec-6531.GoNoGo2";;;;;;;;;;;;;;;;;;;;;;;;;;;;;;;;;;;"1249";"2014-07-22 12:12:56.350";"NST_correctLoc";"15";"1";"FINISHED";"RIGHT";"success";"367";"0";"2014-07-22 12:12:55.100";"2";;;;;;;;;;;;;;;;;;;;;;;;;;;;;;;;;;;;;;;;;;;;;
"04501443";;;"Windows 7";"Rachel's Experiment (D.T.)";"1.0";"2";"1";"1";"2";"3";"1";"2014-07-22 12:05:50.468";"2014-07-22 12:25:05.360";"1";"1";"0";"578";"82";"module.training_block2.exec-6531.GoNoGo2";;;;;;;;;;;;;;;;;;;;;;;;;;;;;;;;;;;"1249";"2014-07-22 12:12:58.871";"NST_correctLoc";"24";"0";"FINISHED";"LEFT";"success";"326";"0";"2014-07-22 12:12:57.621";"3";;;;;;;;;;;;;;;;;;;;;;;;;;;;;;;;;;;;;;;;;;;;;
"04501443";;;"Windows 7";"Rachel's Experiment (D.T.)";"1.0";"2";"1";"1";"2";"3";"1";"2014-07-22 12:05:50.468";"2014-07-22 12:25:05.360";"1";"1";"0";"579";"83";"module.training_block2.exec-6531.GoNoGo2";;;;;;;;;;;;;;;;;;;;;;;;;;;;;;;;;;;"1250";"2014-07-22 12:13:01.385";"NST_correctLoc";"31";"1";"FINISHED";"RIGHT";"success";"380";"0";"2014-07-22 12:13:00.135";"3";;;;;;;;;;;;;;;;;;;;;;;;;;;;;;;;;;;;;;;;;;;;;
"04501443";;;"Windows 7";"Rachel's Experiment (D.T.)";"1.0";"2";"1";"1";"2";"3";"1";"2014-07-22 12:05:50.468";"2014-07-22 12:25:05.360";"1";"1";"0";"580";"84";"module.training_block2.exec-6531.GoNoGo2";;;;;;;;;;;;;;;;;;;;;;;;;;;;;;;;;;;"1249";"2014-07-22 12:13:03.906";"NST_correctLoc";"26";"0";"FINISHED";"LEFT";"success";"347";"0";"2014-07-22 12:13:02.656";"3";;;;;;;;;;;;;;;;;;;;;;;;;;;;;;;;;;;;;;;;;;;;;
"04501443";;;"Windows 7";"Rachel's Experiment (D.T.)";"1.0";"2";"1";"1";"2";"3";"1";"2014-07-22 12:05:50.468";"2014-07-22 12:25:05.360";"1";"1";"0";"581";"85";"module.training_block2.exec-6531.GoNoGo2";;;;;;;;;;;;;;;;;;;;;;;;;;;;;;;;;;;"1249";"2014-07-22 12:13:06.429";"NST_correctLoc";"35";"1";"FINISHED";"RIGHT";"success";"313";"0";"2014-07-22 12:13:05.178";"3";;;;;;;;;;;;;;;;;;;;;;;;;;;;;;;;;;;;;;;;;;;;;
"04501443";;;"Windows 7";"Rachel's Experiment (D.T.)";"1.0";"2";"1";"1";"2";"3";"1";"2014-07-22 12:05:50.468";"2014-07-22 12:25:05.360";"1";"1";"0";"582";"86";"module.training_block2.exec-6531.GoNoGo2";;;;;;;;;;;;;;;;;;;;;;;;;;;;;;;;;;;"1249";"2014-07-22 12:13:08.953";"NST_correctLoc";"18";"0";"FINISHED";"LEFT";"success";"340";"0";"2014-07-22 12:13:07.703";"3";;;;;;;;;;;;;;;;;;;;;;;;;;;;;;;;;;;;;;;;;;;;;
"04501443";;;"Windows 7";"Rachel's Experiment (D.T.)";"1.0";"2";"1";"1";"2";"3";"1";"2014-07-22 12:05:50.468";"2014-07-22 12:25:05.360";"1";"1";"0";"583";"87";"module.training_block3.exec-9854.GoNoGo3";;;;;;;;;;;;;;;;;;;;;;;;;;;;;;;;;;;;;;;;;;;;;;;"1250";"2014-07-22 12:13:20.137";"NST_correctLoc";"6";"1";"FINISHED";"RIGHT";"success";"308";"0";"2014-07-22 12:13:18.887";"1";;;;;;;;;;;;;;;;;;;;;;;;;;;;;;;;;
"04501443";;;"Windows 7";"Rachel's Experiment (D.T.)";"1.0";"2";"1";"1";"2";"3";"1";"2014-07-22 12:05:50.468";"2014-07-22 12:25:05.360";"1";"1";"0";"584";"88";"module.training_block3.exec-9854.GoNoGo3";;;;;;;;;;;;;;;;;;;;;;;;;;;;;;;;;;;;;;;;;;;;;;;"1249";"2014-07-22 12:13:22.654";"NST_correctLoc";"20";"0";"FINISHED";"LEFT";"success";"326";"0";"2014-07-22 12:13:21.404";"3";;;;;;;;;;;;;;;;;;;;;;;;;;;;;;;;;
"04501443";;;"Windows 7";"Rachel's Experiment (D.T.)";"1.0";"2";"1";"1";"2";"3";"1";"2014-07-22 12:05:50.468";"2014-07-22 12:25:05.360";"1";"1";"0";"585";"89";"module.training_block3.exec-9854.GoNoGo3";;;;;;;;;;;;;;;;;;;;;;;;;;;;;;;;;;;;;;;;;;;;;;;"1249";"2014-07-22 12:13:25.171";"NST_correctLoc";"3";"0";"FINISHED";"LEFT";"success";"330";"0";"2014-07-22 12:13:23.921";"1";;;;;;;;;;;;;;;;;;;;;;;;;;;;;;;;;
"04501443";;;"Windows 7";"Rachel's Experiment (D.T.)";"1.0";"2";"1";"1";"2";"3";"1";"2014-07-22 12:05:50.468";"2014-07-22 12:25:05.360";"1";"1";"0";"586";"90";"module.training_block3.exec-9854.GoNoGo3";;;;;;;;;;;;;;;;;;;;;;;;;;;;;;;;;;;;;;;;;;;;;;;"1249";"2014-07-22 12:13:27.687";"NST_correctLoc";"4";"0";"FINISHED";"LEFT";"success";"302";"0";"2014-07-22 12:13:26.437";"1";;;;;;;;;;;;;;;;;;;;;;;;;;;;;;;;;
"04501443";;;"Windows 7";"Rachel's Experiment (D.T.)";"1.0";"2";"1";"1";"2";"3";"1";"2014-07-22 12:05:50.468";"2014-07-22 12:25:05.360";"1";"1";"0";"587";"91";"module.training_block3.exec-9854.GoNoGo3";;;;;;;;;;;;;;;;;;;;;;;;;;;;;;;;;;;;;;;;;;;;;;;"1250";"2014-07-22 12:13:30.204";"NST_correctLoc";"7";"1";"FINISHED";"RIGHT";"success";"337";"0";"2014-07-22 12:13:28.954";"1";;;;;;;;;;;;;;;;;;;;;;;;;;;;;;;;;
"04501443";;;"Windows 7";"Rachel's Experiment (D.T.)";"1.0";"2";"1";"1";"2";"3";"1";"2014-07-22 12:05:50.468";"2014-07-22 12:25:05.360";"1";"1";"0";"588";"92";"module.training_block3.exec-9854.GoNoGo3";;;;;;;;;;;;;;;;;;;;;;;;;;;;;;;;;;;;;;;;;;;;;;;"1249";"2014-07-22 12:13:32.721";"NST_correctLoc";"23";"0";"FINISHED";"LEFT";"success";"355";"0";"2014-07-22 12:13:31.471";"3";;;;;;;;;;;;;;;;;;;;;;;;;;;;;;;;;
"04501443";;;"Windows 7";"Rachel's Experiment (D.T.)";"1.0";"2";"1";"1";"2";"3";"1";"2014-07-22 12:05:50.468";"2014-07-22 12:25:05.360";"1";"1";"0";"589";"93";"module.training_block3.exec-9854.GoNoGo3";;;;;;;;;;;;;;;;;;;;;;;;;;;;;;;;;;;;;;;;;;;;;;;"1249";"2014-07-22 12:13:35.238";"NST_correctLoc";"13";"1";"FINISHED";"RIGHT";"success";"334";"0";"2014-07-22 12:13:33.988";"2";;;;;;;;;;;;;;;;;;;;;;;;;;;;;;;;;
"04501443";;;"Windows 7";"Rachel's Experiment (D.T.)";"1.0";"2";"1";"1";"2";"3";"1";"2014-07-22 12:05:50.468";"2014-07-22 12:25:05.360";"1";"1";"0";"590";"94";"module.training_block3.exec-9854.GoNoGo3";;;;;;;;;;;;;;;;;;;;;;;;;;;;;;;;;;;;;;;;;;;;;;;"1249";"2014-07-22 12:13:37.755";"NST_correctLoc";"35";"0";"FINISHED";"LEFT";"success";"297";"0";"2014-07-22 12:13:36.505";"3";;;;;;;;;;;;;;;;;;;;;;;;;;;;;;;;;
"04501443";;;"Windows 7";"Rachel's Experiment (D.T.)";"1.0";"2";"1";"1";"2";"3";"1";"2014-07-22 12:05:50.468";"2014-07-22 12:25:05.360";"1";"1";"0";"591";"95";"module.training_block3.exec-9854.GoNoGo3";;;;;;;;;;;;;;;;;;;;;;;;;;;;;;;;;;;;;;;;;;;;;;;"1249";"2014-07-22 12:13:40.271";"NST_correctLoc";"21";"1";"FINISHED";"RIGHT";"success";"309";"0";"2014-07-22 12:13:39.021";"3";;;;;;;;;;;;;;;;;;;;;;;;;;;;;;;;;
"04501443";;;"Windows 7";"Rachel's Experiment (D.T.)";"1.0";"2";"1";"1";"2";"3";"1";"2014-07-22 12:05:50.468";"2014-07-22 12:25:05.360";"1";"1";"0";"592";"96";"module.training_block3.exec-9854.GoNoGo3";;;;;;;;;;;;;;;;;;;;;;;;;;;;;;;;;;;;;;;;;;;;;;;"1249";"2014-07-22 12:13:42.789";"NST_correctLoc";"8";"1";"FINISHED";"RIGHT";"success";"336";"0";"2014-07-22 12:13:41.539";"1";;;;;;;;;;;;;;;;;;;;;;;;;;;;;;;;;
"04501443";;;"Windows 7";"Rachel's Experiment (D.T.)";"1.0";"2";"1";"1";"2";"3";"1";"2014-07-22 12:05:50.468";"2014-07-22 12:25:05.360";"1";"1";"0";"593";"97";"module.training_block3.exec-9854.GoNoGo3";;;;;;;;;;;;;;;;;;;;;;;;;;;;;;;;;;;;;;;;;;;;;;;"1249";"2014-07-22 12:13:45.305";"NST_correctLoc";"32";"1";"FINISHED";"RIGHT";"success";"308";"0";"2014-07-22 12:13:44.055";"3";;;;;;;;;;;;;;;;;;;;;;;;;;;;;;;;;
"04501443";;;"Windows 7";"Rachel's Experiment (D.T.)";"1.0";"2";"1";"1";"2";"3";"1";"2014-07-22 12:05:50.468";"2014-07-22 12:25:05.360";"1";"1";"0";"594";"98";"module.training_block3.exec-9854.GoNoGo3";;;;;;;;;;;;;;;;;;;;;;;;;;;;;;;;;;;;;;;;;;;;;;;"1249";"2014-07-22 12:13:47.821";"NST_correctLoc";"30";"0";"FINISHED";"LEFT";"success";"319";"0";"2014-07-22 12:13:46.571";"3";;;;;;;;;;;;;;;;;;;;;;;;;;;;;;;;;
"04501443";;;"Windows 7";"Rachel's Experiment (D.T.)";"1.0";"2";"1";"1";"2";"3";"1";"2014-07-22 12:05:50.468";"2014-07-22 12:25:05.360";"1";"1";"0";"595";"99";"module.training_block3.exec-9854.GoNoGo3";;;;;;;;;;;;;;;;;;;;;;;;;;;;;;;;;;;;;;;;;;;;;;;"1249";"2014-07-22 12:13:50.337";"NST_correctLoc";"31";"0";"FINISHED";"LEFT";"success";"347";"0";"2014-07-22 12:13:49.087";"3";;;;;;;;;;;;;;;;;;;;;;;;;;;;;;;;;
"04501443";;;"Windows 7";"Rachel's Experiment (D.T.)";"1.0";"2";"1";"1";"2";"3";"1";"2014-07-22 12:05:50.468";"2014-07-22 12:25:05.360";"1";"1";"0";"596";"100";"module.training_block3.exec-9854.GoNoGo3";;;;;;;;;;;;;;;;;;;;;;;;;;;;;;;;;;;;;;;;;;;;;;;"1249";"2014-07-22 12:13:52.854";"NST_correctLoc";"27";"0";"FINISHED";"LEFT";"success";"318";"0";"2014-07-22 12:13:51.604";"3";;;;;;;;;;;;;;;;;;;;;;;;;;;;;;;;;
"04501443";;;"Windows 7";"Rachel's Experiment (D.T.)";"1.0";"2";"1";"1";"2";"3";"1";"2014-07-22 12:05:50.468";"2014-07-22 12:25:05.360";"1";"1";"0";"597";"101";"module.training_block3.exec-9854.GoNoGo3";;;;;;;;;;;;;;;;;;;;;;;;;;;;;;;;;;;;;;;;;;;;;;;"1249";"2014-07-22 12:13:55.370";"NST_correctLoc";"0";"1";"FINISHED";"RIGHT";"success";"330";"0";"2014-07-22 12:13:54.120";"1";;;;;;;;;;;;;;;;;;;;;;;;;;;;;;;;;
"04501443";;;"Windows 7";"Rachel's Experiment (D.T.)";"1.0";"2";"1";"1";"2";"3";"1";"2014-07-22 12:05:50.468";"2014-07-22 12:25:05.360";"1";"1";"0";"598";"102";"module.training_block3.exec-9854.GoNoGo3";;;;;;;;;;;;;;;;;;;;;;;;;;;;;;;;;;;;;;;;;;;;;;;"1249";"2014-07-22 12:13:57.887";"NST_correctLoc";"9";"0";"FINISHED";"LEFT";"success";"341";"0";"2014-07-22 12:13:56.637";"2";;;;;;;;;;;;;;;;;;;;;;;;;;;;;;;;;
"04501443";;;"Windows 7";"Rachel's Experiment (D.T.)";"1.0";"2";"1";"1";"2";"3";"1";"2014-07-22 12:05:50.468";"2014-07-22 12:25:05.360";"1";"1";"0";"599";"103";"module.training_block3.exec-9854.GoNoGo3";;;;;;;;;;;;;;;;;;;;;;;;;;;;;;;;;;;;;;;;;;;;;;;"1249";"2014-07-22 12:14:00.404";"NST_correctLoc";"29";"1";"FINISHED";"RIGHT";"success";"313";"0";"2014-07-22 12:13:59.154";"3";;;;;;;;;;;;;;;;;;;;;;;;;;;;;;;;;
"04501443";;;"Windows 7";"Rachel's Experiment (D.T.)";"1.0";"2";"1";"1";"2";"3";"1";"2014-07-22 12:05:50.468";"2014-07-22 12:25:05.360";"1";"1";"0";"600";"104";"module.training_block3.exec-9854.GoNoGo3";;;;;;;;;;;;;;;;;;;;;;;;;;;;;;;;;;;;;;;;;;;;;;;"1249";"2014-07-22 12:14:02.920";"NST_correctLoc";"12";"1";"FINISHED";"RIGHT";"success";"332";"0";"2014-07-22 12:14:01.670";"2";;;;;;;;;;;;;;;;;;;;;;;;;;;;;;;;;
"04501443";;;"Windows 7";"Rachel's Experiment (D.T.)";"1.0";"2";"1";"1";"2";"3";"1";"2014-07-22 12:05:50.468";"2014-07-22 12:25:05.360";"1";"1";"0";"601";"105";"module.training_block3.exec-9854.GoNoGo3";;;;;;;;;;;;;;;;;;;;;;;;;;;;;;;;;;;;;;;;;;;;;;;"1249";"2014-07-22 12:14:05.442";"NST_correctLoc";"18";"1";"FINISHED";"RIGHT";"success";"338";"0";"2014-07-22 12:14:04.192";"3";;;;;;;;;;;;;;;;;;;;;;;;;;;;;;;;;
"04501443";;;"Windows 7";"Rachel's Experiment (D.T.)";"1.0";"2";"1";"1";"2";"3";"1";"2014-07-22 12:05:50.468";"2014-07-22 12:25:05.360";"1";"1";"0";"602";"106";"module.training_block3.exec-9854.GoNoGo3";;;;;;;;;;;;;;;;;;;;;;;;;;;;;;;;;;;;;;;;;;;;;;;"1249";"2014-07-22 12:14:07.958";"NST_correctLoc";"24";"0";"FINISHED";"LEFT";"success";"342";"0";"2014-07-22 12:14:06.708";"3";;;;;;;;;;;;;;;;;;;;;;;;;;;;;;;;;
"04501443";;;"Windows 7";"Rachel's Experiment (D.T.)";"1.0";"2";"1";"1";"2";"3";"1";"2014-07-22 12:05:50.468";"2014-07-22 12:25:05.360";"1";"1";"0";"603";"107";"module.training_block3.exec-9854.GoNoGo3";;;;;;;;;;;;;;;;;;;;;;;;;;;;;;;;;;;;;;;;;;;;;;;"1249";"2014-07-22 12:14:10.474";"NST_correctLoc";"26";"0";"FINISHED";"LEFT";"success";"330";"0";"2014-07-22 12:14:09.224";"3";;;;;;;;;;;;;;;;;;;;;;;;;;;;;;;;;
"04501443";;;"Windows 7";"Rachel's Experiment (D.T.)";"1.0";"2";"1";"1";"2";"3";"1";"2014-07-22 12:05:50.468";"2014-07-22 12:25:05.360";"1";"1";"0";"604";"108";"module.training_block3.exec-9854.GoNoGo3";;;;;;;;;;;;;;;;;;;;;;;;;;;;;;;;;;;;;;;;;;;;;;;"1250";"2014-07-22 12:14:12.990";"NST_correctLoc";"14";"1";"FINISHED";"RIGHT";"success";"327";"0";"2014-07-22 12:14:11.740";"2";;;;;;;;;;;;;;;;;;;;;;;;;;;;;;;;;
"04501443";;;"Windows 7";"Rachel's Experiment (D.T.)";"1.0";"2";"1";"1";"2";"3";"1";"2014-07-22 12:05:50.468";"2014-07-22 12:25:05.360";"1";"1";"0";"605";"109";"module.training_block3.exec-9854.GoNoGo3";;;;;;;;;;;;;;;;;;;;;;;;;;;;;;;;;;;;;;;;;;;;;;;"1249";"2014-07-22 12:14:15.507";"NST_correctLoc";"22";"1";"FINISHED";"RIGHT";"success";"354";"0";"2014-07-22 12:14:14.256";"3";;;;;;;;;;;;;;;;;;;;;;;;;;;;;;;;;
"04501443";;;"Windows 7";"Rachel's Experiment (D.T.)";"1.0";"2";"1";"1";"2";"3";"1";"2014-07-22 12:05:50.468";"2014-07-22 12:25:05.360";"1";"1";"0";"606";"110";"module.training_block3.exec-9854.GoNoGo3";;;;;;;;;;;;;;;;;;;;;;;;;;;;;;;;;;;;;;;;;;;;;;;"1249";"2014-07-22 12:14:18.023";"NST_correctLoc";"10";"1";"FINISHED";"RIGHT";"success";"293";"0";"2014-07-22 12:14:16.773";"2";;;;;;;;;;;;;;;;;;;;;;;;;;;;;;;;;
"04501443";;;"Windows 7";"Rachel's Experiment (D.T.)";"1.0";"2";"1";"1";"2";"3";"1";"2014-07-22 12:05:50.468";"2014-07-22 12:25:05.360";"1";"1";"0";"607";"111";"module.training_block3.exec-9854.GoNoGo3";;;;;;;;;;;;;;;;;;;;;;;;;;;;;;;;;;;;;;;;;;;;;;;"1249";"2014-07-22 12:14:20.540";"NST_correctLoc";"19";"1";"FINISHED";"RIGHT";"success";"344";"0";"2014-07-22 12:14:19.290";"3";;;;;;;;;;;;;;;;;;;;;;;;;;;;;;;;;
"04501443";;;"Windows 7";"Rachel's Experiment (D.T.)";"1.0";"2";"1";"1";"2";"3";"1";"2014-07-22 12:05:50.468";"2014-07-22 12:25:05.360";"1";"1";"0";"608";"112";"module.training_block3.exec-9854.GoNoGo3";;;;;;;;;;;;;;;;;;;;;;;;;;;;;;;;;;;;;;;;;;;;;;;"1249";"2014-07-22 12:14:23.057";"NST_correctLoc";"2";"1";"FINISHED";"RIGHT";"success";"331";"0";"2014-07-22 12:14:21.807";"1";;;;;;;;;;;;;;;;;;;;;;;;;;;;;;;;;
"04501443";;;"Windows 7";"Rachel's Experiment (D.T.)";"1.0";"2";"1";"1";"2";"3";"1";"2014-07-22 12:05:50.468";"2014-07-22 12:25:05.360";"1";"1";"0";"609";"113";"module.training_block3.exec-9854.GoNoGo3";;;;;;;;;;;;;;;;;;;;;;;;;;;;;;;;;;;;;;;;;;;;;;;"1249";"2014-07-22 12:14:25.573";"NST_correctLoc";"5";"0";"FINISHED";"LEFT";"success";"335";"0";"2014-07-22 12:14:24.323";"1";;;;;;;;;;;;;;;;;;;;;;;;;;;;;;;;;
"04501443";;;"Windows 7";"Rachel's Experiment (D.T.)";"1.0";"2";"1";"1";"2";"3";"1";"2014-07-22 12:05:50.468";"2014-07-22 12:25:05.360";"1";"1";"0";"610";"114";"module.training_block3.exec-9854.GoNoGo3";;;;;;;;;;;;;;;;;;;;;;;;;;;;;;;;;;;;;;;;;;;;;;;"1249";"2014-07-22 12:14:28.089";"NST_correctLoc";"28";"0";"FINISHED";"LEFT";"success";"315";"0";"2014-07-22 12:14:26.839";"3";;;;;;;;;;;;;;;;;;;;;;;;;;;;;;;;;
"04501443";;;"Windows 7";"Rachel's Experiment (D.T.)";"1.0";"2";"1";"1";"2";"3";"1";"2014-07-22 12:05:50.468";"2014-07-22 12:25:05.360";"1";"1";"0";"611";"115";"module.training_block3.exec-9854.GoNoGo3";;;;;;;;;;;;;;;;;;;;;;;;;;;;;;;;;;;;;;;;;;;;;;;"1249";"2014-07-22 12:14:30.605";"NST_correctLoc";"15";"0";"FINISHED";"LEFT";"success";"335";"0";"2014-07-22 12:14:29.355";"2";;;;;;;;;;;;;;;;;;;;;;;;;;;;;;;;;
"04501443";;;"Windows 7";"Rachel's Experiment (D.T.)";"1.0";"2";"1";"1";"2";"3";"1";"2014-07-22 12:05:50.468";"2014-07-22 12:25:05.360";"1";"1";"0";"612";"116";"module.training_block3.exec-9854.GoNoGo3";;;;;;;;;;;;;;;;;;;;;;;;;;;;;;;;;;;;;;;;;;;;;;;"1249";"2014-07-22 12:14:33.122";"NST_correctLoc";"33";"1";"FINISHED";"RIGHT";"success";"347";"0";"2014-07-22 12:14:31.871";"3";;;;;;;;;;;;;;;;;;;;;;;;;;;;;;;;;
"04501443";;;"Windows 7";"Rachel's Experiment (D.T.)";"1.0";"2";"1";"1";"2";"3";"1";"2014-07-22 12:05:50.468";"2014-07-22 12:25:05.360";"1";"1";"0";"613";"117";"module.training_block3.exec-9854.GoNoGo3";;;;;;;;;;;;;;;;;;;;;;;;;;;;;;;;;;;;;;;;;;;;;;;"1249";"2014-07-22 12:14:35.638";"NST_correctLoc";"25";"1";"FINISHED";"RIGHT";"success";"374";"0";"2014-07-22 12:14:34.388";"3";;;;;;;;;;;;;;;;;;;;;;;;;;;;;;;;;
"04501443";;;"Windows 7";"Rachel's Experiment (D.T.)";"1.0";"2";"1";"1";"2";"3";"1";"2014-07-22 12:05:50.468";"2014-07-22 12:25:05.360";"1";"1";"0";"614";"118";"module.training_block3.exec-9854.GoNoGo3";;;;;;;;;;;;;;;;;;;;;;;;;;;;;;;;;;;;;;;;;;;;;;;"1249";"2014-07-22 12:14:38.155";"NST_correctLoc";"16";"0";"FINISHED";"LEFT";"success";"297";"0";"2014-07-22 12:14:36.905";"2";;;;;;;;;;;;;;;;;;;;;;;;;;;;;;;;;
"04501443";;;"Windows 7";"Rachel's Experiment (D.T.)";"1.0";"2";"1";"1";"2";"3";"1";"2014-07-22 12:05:50.468";"2014-07-22 12:25:05.360";"1";"1";"0";"615";"119";"module.training_block3.exec-9854.GoNoGo3";;;;;;;;;;;;;;;;;;;;;;;;;;;;;;;;;;;;;;;;;;;;;;;"1249";"2014-07-22 12:14:40.671";"NST_correctLoc";"11";"1";"FINISHED";"RIGHT";"success";"349";"0";"2014-07-22 12:14:39.421";"2";;;;;;;;;;;;;;;;;;;;;;;;;;;;;;;;;
"04501443";;;"Windows 7";"Rachel's Experiment (D.T.)";"1.0";"2";"1";"1";"2";"3";"1";"2014-07-22 12:05:50.468";"2014-07-22 12:25:05.360";"1";"1";"0";"616";"120";"module.training_block3.exec-9854.GoNoGo3";;;;;;;;;;;;;;;;;;;;;;;;;;;;;;;;;;;;;;;;;;;;;;;"1249";"2014-07-22 12:14:43.189";"NST_correctLoc";"17";"0";"FINISHED";"LEFT";"success";"319";"0";"2014-07-22 12:14:41.939";"2";;;;;;;;;;;;;;;;;;;;;;;;;;;;;;;;;
"04501443";;;"Windows 7";"Rachel's Experiment (D.T.)";"1.0";"2";"1";"1";"2";"3";"1";"2014-07-22 12:05:50.468";"2014-07-22 12:25:05.360";"1";"1";"0";"617";"121";"module.training_block3.exec-9854.GoNoGo3";;;;;;;;;;;;;;;;;;;;;;;;;;;;;;;;;;;;;;;;;;;;;;;"1249";"2014-07-22 12:14:45.705";"NST_correctLoc";"1";"0";"FINISHED";"LEFT";"success";"339";"0";"2014-07-22 12:14:44.455";"1";;;;;;;;;;;;;;;;;;;;;;;;;;;;;;;;;
"04501443";;;"Windows 7";"Rachel's Experiment (D.T.)";"1.0";"2";"1";"1";"2";"3";"1";"2014-07-22 12:05:50.468";"2014-07-22 12:25:05.360";"1";"1";"0";"618";"122";"module.training_block3.exec-9854.GoNoGo3";;;;;;;;;;;;;;;;;;;;;;;;;;;;;;;;;;;;;;;;;;;;;;;"1249";"2014-07-22 12:14:48.221";"NST_correctLoc";"34";"0";"FINISHED";"LEFT";"success";"359";"0";"2014-07-22 12:14:46.971";"3";;;;;;;;;;;;;;;;;;;;;;;;;;;;;;;;;
"04501443";;;"Windows 7";"Rachel's Experiment (D.T.)";"1.0";"2";"1";"1";"2";"3";"1";"2014-07-22 12:05:50.468";"2014-07-22 12:25:05.360";"1";"1";"0";"619";"123";"module.training_block4.exec-1726.GoNoGo4";;;;;;;;;;;;;;;;;;;;;;;;;;;;;;;;;;;;;;;;;;;;;;;;;;;;;;;;;;;"1249";"2014-07-22 12:14:58.967";"NST_correctLoc";"8";"0";"FINISHED";"LEFT";"success";"309";"0";"2014-07-22 12:14:57.717";"1";;;;;;;;;;;;;;;;;;;;;
"04501443";;;"Windows 7";"Rachel's Experiment (D.T.)";"1.0";"2";"1";"1";"2";"3";"1";"2014-07-22 12:05:50.468";"2014-07-22 12:25:05.360";"1";"1";"0";"620";"124";"module.training_block4.exec-1726.GoNoGo4";;;;;;;;;;;;;;;;;;;;;;;;;;;;;;;;;;;;;;;;;;;;;;;;;;;;;;;;;;;"1249";"2014-07-22 12:15:01.488";"NST_correctLoc";"1";"1";"FINISHED";"RIGHT";"success";"332";"0";"2014-07-22 12:15:00.238";"1";;;;;;;;;;;;;;;;;;;;;
"04501443";;;"Windows 7";"Rachel's Experiment (D.T.)";"1.0";"2";"1";"1";"2";"3";"1";"2014-07-22 12:05:50.468";"2014-07-22 12:25:05.360";"1";"1";"0";"621";"125";"module.training_block4.exec-1726.GoNoGo4";;;;;;;;;;;;;;;;;;;;;;;;;;;;;;;;;;;;;;;;;;;;;;;;;;;;;;;;;;;"1249";"2014-07-22 12:15:04.004";"NST_correctLoc";"19";"0";"FINISHED";"LEFT";"success";"344";"0";"2014-07-22 12:15:02.754";"3";;;;;;;;;;;;;;;;;;;;;
"04501443";;;"Windows 7";"Rachel's Experiment (D.T.)";"1.0";"2";"1";"1";"2";"3";"1";"2014-07-22 12:05:50.468";"2014-07-22 12:25:05.360";"1";"1";"0";"622";"126";"module.training_block4.exec-1726.GoNoGo4";;;;;;;;;;;;;;;;;;;;;;;;;;;;;;;;;;;;;;;;;;;;;;;;;;;;;;;;;;;"1249";"2014-07-22 12:15:06.520";"NST_correctLoc";"11";"1";"FINISHED";"RIGHT";"success";"307";"0";"2014-07-22 12:15:05.270";"2";;;;;;;;;;;;;;;;;;;;;
"04501443";;;"Windows 7";"Rachel's Experiment (D.T.)";"1.0";"2";"1";"1";"2";"3";"1";"2014-07-22 12:05:50.468";"2014-07-22 12:25:05.360";"1";"1";"0";"623";"127";"module.training_block4.exec-1726.GoNoGo4";;;;;;;;;;;;;;;;;;;;;;;;;;;;;;;;;;;;;;;;;;;;;;;;;;;;;;;;;;;"1249";"2014-07-22 12:15:09.037";"NST_correctLoc";"32";"1";"FINISHED";"RIGHT";"success";"375";"0";"2014-07-22 12:15:07.786";"3";;;;;;;;;;;;;;;;;;;;;
"04501443";;;"Windows 7";"Rachel's Experiment (D.T.)";"1.0";"2";"1";"1";"2";"3";"1";"2014-07-22 12:05:50.468";"2014-07-22 12:25:05.360";"1";"1";"0";"624";"128";"module.training_block4.exec-1726.GoNoGo4";;;;;;;;;;;;;;;;;;;;;;;;;;;;;;;;;;;;;;;;;;;;;;;;;;;;;;;;;;;"1249";"2014-07-22 12:15:11.553";"NST_correctLoc";"7";"0";"FINISHED";"LEFT";"success";"323";"0";"2014-07-22 12:15:10.303";"1";;;;;;;;;;;;;;;;;;;;;
"04501443";;;"Windows 7";"Rachel's Experiment (D.T.)";"1.0";"2";"1";"1";"2";"3";"1";"2014-07-22 12:05:50.468";"2014-07-22 12:25:05.360";"1";"1";"0";"625";"129";"module.training_block4.exec-1726.GoNoGo4";;;;;;;;;;;;;;;;;;;;;;;;;;;;;;;;;;;;;;;;;;;;;;;;;;;;;;;;;;;"1249";"2014-07-22 12:15:14.069";"NST_correctLoc";"9";"1";"FINISHED";"RIGHT";"success";"319";"0";"2014-07-22 12:15:12.819";"2";;;;;;;;;;;;;;;;;;;;;
"04501443";;;"Windows 7";"Rachel's Experiment (D.T.)";"1.0";"2";"1";"1";"2";"3";"1";"2014-07-22 12:05:50.468";"2014-07-22 12:25:05.360";"1";"1";"0";"626";"130";"module.training_block4.exec-1726.GoNoGo4";;;;;;;;;;;;;;;;;;;;;;;;;;;;;;;;;;;;;;;;;;;;;;;;;;;;;;;;;;;"1249";"2014-07-22 12:15:16.585";"NST_correctLoc";"22";"1";"FINISHED";"RIGHT";"success";"491";"0";"2014-07-22 12:15:15.335";"3";;;;;;;;;;;;;;;;;;;;;
"04501443";;;"Windows 7";"Rachel's Experiment (D.T.)";"1.0";"2";"1";"1";"2";"3";"1";"2014-07-22 12:05:50.468";"2014-07-22 12:25:05.360";"1";"1";"0";"627";"131";"module.training_block4.exec-1726.GoNoGo4";;;;;;;;;;;;;;;;;;;;;;;;;;;;;;;;;;;;;;;;;;;;;;;;;;;;;;;;;;;"1249";"2014-07-22 12:15:19.101";"NST_correctLoc";"35";"1";"FINISHED";"RIGHT";"success";"343";"0";"2014-07-22 12:15:17.851";"3";;;;;;;;;;;;;;;;;;;;;
"04501443";;;"Windows 7";"Rachel's Experiment (D.T.)";"1.0";"2";"1";"1";"2";"3";"1";"2014-07-22 12:05:50.468";"2014-07-22 12:25:05.360";"1";"1";"0";"628";"132";"module.training_block4.exec-1726.GoNoGo4";;;;;;;;;;;;;;;;;;;;;;;;;;;;;;;;;;;;;;;;;;;;;;;;;;;;;;;;;;;"1249";"2014-07-22 12:15:21.617";"NST_correctLoc";"27";"0";"FINISHED";"LEFT";"success";"283";"0";"2014-07-22 12:15:20.367";"3";;;;;;;;;;;;;;;;;;;;;
"04501443";;;"Windows 7";"Rachel's Experiment (D.T.)";"1.0";"2";"1";"1";"2";"3";"1";"2014-07-22 12:05:50.468";"2014-07-22 12:25:05.360";"1";"1";"0";"629";"133";"module.training_block4.exec-1726.GoNoGo4";;;;;;;;;;;;;;;;;;;;;;;;;;;;;;;;;;;;;;;;;;;;;;;;;;;;;;;;;;;"1249";"2014-07-22 12:15:24.135";"NST_correctLoc";"2";"0";"FINISHED";"LEFT";"success";"340";"0";"2014-07-22 12:15:22.885";"1";;;;;;;;;;;;;;;;;;;;;
"04501443";;;"Windows 7";"Rachel's Experiment (D.T.)";"1.0";"2";"1";"1";"2";"3";"1";"2014-07-22 12:05:50.468";"2014-07-22 12:25:05.360";"1";"1";"0";"630";"134";"module.training_block4.exec-1726.GoNoGo4";;;;;;;;;;;;;;;;;;;;;;;;;;;;;;;;;;;;;;;;;;;;;;;;;;;;;;;;;;;"1249";"2014-07-22 12:15:26.652";"NST_correctLoc";"12";"0";"FINISHED";"LEFT";"success";"336";"0";"2014-07-22 12:15:25.401";"2";;;;;;;;;;;;;;;;;;;;;
"04501443";;;"Windows 7";"Rachel's Experiment (D.T.)";"1.0";"2";"1";"1";"2";"3";"1";"2014-07-22 12:05:50.468";"2014-07-22 12:25:05.360";"1";"1";"0";"631";"135";"module.training_block4.exec-1726.GoNoGo4";;;;;;;;;;;;;;;;;;;;;;;;;;;;;;;;;;;;;;;;;;;;;;;;;;;;;;;;;;;"1249";"2014-07-22 12:15:29.168";"NST_correctLoc";"18";"0";"FINISHED";"LEFT";"success";"340";"0";"2014-07-22 12:15:27.918";"3";;;;;;;;;;;;;;;;;;;;;
"04501443";;;"Windows 7";"Rachel's Experiment (D.T.)";"1.0";"2";"1";"1";"2";"3";"1";"2014-07-22 12:05:50.468";"2014-07-22 12:25:05.360";"1";"1";"0";"632";"136";"module.training_block4.exec-1726.GoNoGo4";;;;;;;;;;;;;;;;;;;;;;;;;;;;;;;;;;;;;;;;;;;;;;;;;;;;;;;;;;;"1249";"2014-07-22 12:15:31.684";"NST_correctLoc";"28";"1";"FINISHED";"RIGHT";"success";"296";"0";"2014-07-22 12:15:30.434";"3";;;;;;;;;;;;;;;;;;;;;
"04501443";;;"Windows 7";"Rachel's Experiment (D.T.)";"1.0";"2";"1";"1";"2";"3";"1";"2014-07-22 12:05:50.468";"2014-07-22 12:25:05.360";"1";"1";"0";"633";"137";"module.training_block4.exec-1726.GoNoGo4";;;;;;;;;;;;;;;;;;;;;;;;;;;;;;;;;;;;;;;;;;;;;;;;;;;;;;;;;;;"1249";"2014-07-22 12:15:34.200";"NST_correctLoc";"26";"0";"FINISHED";"LEFT";"success";"340";"0";"2014-07-22 12:15:32.950";"3";;;;;;;;;;;;;;;;;;;;;
"04501443";;;"Windows 7";"Rachel's Experiment (D.T.)";"1.0";"2";"1";"1";"2";"3";"1";"2014-07-22 12:05:50.468";"2014-07-22 12:25:05.360";"1";"1";"0";"634";"138";"module.training_block4.exec-1726.GoNoGo4";;;;;;;;;;;;;;;;;;;;;;;;;;;;;;;;;;;;;;;;;;;;;;;;;;;;;;;;;;;"1249";"2014-07-22 12:15:36.716";"NST_correctLoc";"25";"1";"FINISHED";"RIGHT";"success";"343";"0";"2014-07-22 12:15:35.466";"3";;;;;;;;;;;;;;;;;;;;;
"04501443";;;"Windows 7";"Rachel's Experiment (D.T.)";"1.0";"2";"1";"1";"2";"3";"1";"2014-07-22 12:05:50.468";"2014-07-22 12:25:05.360";"1";"1";"0";"635";"139";"module.training_block4.exec-1726.GoNoGo4";;;;;;;;;;;;;;;;;;;;;;;;;;;;;;;;;;;;;;;;;;;;;;;;;;;;;;;;;;;"1249";"2014-07-22 12:15:39.231";"NST_correctLoc";"30";"0";"FINISHED";"LEFT";"success";"340";"0";"2014-07-22 12:15:37.981";"3";;;;;;;;;;;;;;;;;;;;;
"04501443";;;"Windows 7";"Rachel's Experiment (D.T.)";"1.0";"2";"1";"1";"2";"3";"1";"2014-07-22 12:05:50.468";"2014-07-22 12:25:05.360";"1";"1";"0";"636";"140";"module.training_block4.exec-1726.GoNoGo4";;;;;;;;;;;;;;;;;;;;;;;;;;;;;;;;;;;;;;;;;;;;;;;;;;;;;;;;;;;"1249";"2014-07-22 12:15:41.747";"NST_correctLoc";"15";"1";"FINISHED";"RIGHT";"success";"344";"0";"2014-07-22 12:15:40.497";"2";;;;;;;;;;;;;;;;;;;;;
"04501443";;;"Windows 7";"Rachel's Experiment (D.T.)";"1.0";"2";"1";"1";"2";"3";"1";"2014-07-22 12:05:50.468";"2014-07-22 12:25:05.360";"1";"1";"0";"637";"141";"module.training_block4.exec-1726.GoNoGo4";;;;;;;;;;;;;;;;;;;;;;;;;;;;;;;;;;;;;;;;;;;;;;;;;;;;;;;;;;;"1249";"2014-07-22 12:15:44.264";"NST_correctLoc";"20";"0";"FINISHED";"LEFT";"success";"340";"0";"2014-07-22 12:15:43.014";"3";;;;;;;;;;;;;;;;;;;;;
"04501443";;;"Windows 7";"Rachel's Experiment (D.T.)";"1.0";"2";"1";"1";"2";"3";"1";"2014-07-22 12:05:50.468";"2014-07-22 12:25:05.360";"1";"1";"0";"638";"142";"module.training_block4.exec-1726.GoNoGo4";;;;;;;;;;;;;;;;;;;;;;;;;;;;;;;;;;;;;;;;;;;;;;;;;;;;;;;;;;;"1249";"2014-07-22 12:15:46.780";"NST_wrongLoc";"24";"0";"FINISHED";"RIGHT";"failure";"416";"0";"2014-07-22 12:15:45.530";"3";;;;;;;;;;;;;;;;;;;;;
"04501443";;;"Windows 7";"Rachel's Experiment (D.T.)";"1.0";"2";"1";"1";"2";"3";"1";"2014-07-22 12:05:50.468";"2014-07-22 12:25:05.360";"1";"1";"0";"639";"143";"module.training_block4.exec-1726.GoNoGo4";;;;;;;;;;;;;;;;;;;;;;;;;;;;;;;;;;;;;;;;;;;;;;;;;;;;;;;;;;;"1249";"2014-07-22 12:15:49.296";"NST_correctLoc";"33";"1";"FINISHED";"RIGHT";"success";"348";"0";"2014-07-22 12:15:48.046";"3";;;;;;;;;;;;;;;;;;;;;
"04501443";;;"Windows 7";"Rachel's Experiment (D.T.)";"1.0";"2";"1";"1";"2";"3";"1";"2014-07-22 12:05:50.468";"2014-07-22 12:25:05.360";"1";"1";"0";"640";"144";"module.training_block4.exec-1726.GoNoGo4";;;;;;;;;;;;;;;;;;;;;;;;;;;;;;;;;;;;;;;;;;;;;;;;;;;;;;;;;;;"1249";"2014-07-22 12:15:51.816";"NST_correctLoc";"4";"0";"FINISHED";"LEFT";"success";"380";"0";"2014-07-22 12:15:50.566";"1";;;;;;;;;;;;;;;;;;;;;
"04501443";;;"Windows 7";"Rachel's Experiment (D.T.)";"1.0";"2";"1";"1";"2";"3";"1";"2014-07-22 12:05:50.468";"2014-07-22 12:25:05.360";"1";"1";"0";"641";"145";"module.training_block4.exec-1726.GoNoGo4";;;;;;;;;;;;;;;;;;;;;;;;;;;;;;;;;;;;;;;;;;;;;;;;;;;;;;;;;;;"1249";"2014-07-22 12:15:54.332";"NST_correctLoc";"23";"1";"FINISHED";"RIGHT";"success";"495";"0";"2014-07-22 12:15:53.082";"3";;;;;;;;;;;;;;;;;;;;;
"04501443";;;"Windows 7";"Rachel's Experiment (D.T.)";"1.0";"2";"1";"1";"2";"3";"1";"2014-07-22 12:05:50.468";"2014-07-22 12:25:05.360";"1";"1";"0";"642";"146";"module.training_block4.exec-1726.GoNoGo4";;;;;;;;;;;;;;;;;;;;;;;;;;;;;;;;;;;;;;;;;;;;;;;;;;;;;;;;;;;"1249";"2014-07-22 12:15:56.848";"NST_correctLoc";"0";"0";"FINISHED";"LEFT";"success";"363";"0";"2014-07-22 12:15:55.598";"1";;;;;;;;;;;;;;;;;;;;;
"04501443";;;"Windows 7";"Rachel's Experiment (D.T.)";"1.0";"2";"1";"1";"2";"3";"1";"2014-07-22 12:05:50.468";"2014-07-22 12:25:05.360";"1";"1";"0";"643";"147";"module.training_block4.exec-1726.GoNoGo4";;;;;;;;;;;;;;;;;;;;;;;;;;;;;;;;;;;;;;;;;;;;;;;;;;;;;;;;;;;"1249";"2014-07-22 12:15:59.363";"NST_correctLoc";"14";"0";"FINISHED";"LEFT";"success";"352";"0";"2014-07-22 12:15:58.113";"2";;;;;;;;;;;;;;;;;;;;;
"04501443";;;"Windows 7";"Rachel's Experiment (D.T.)";"1.0";"2";"1";"1";"2";"3";"1";"2014-07-22 12:05:50.468";"2014-07-22 12:25:05.360";"1";"1";"0";"644";"148";"module.training_block4.exec-1726.GoNoGo4";;;;;;;;;;;;;;;;;;;;;;;;;;;;;;;;;;;;;;;;;;;;;;;;;;;;;;;;;;;"1249";"2014-07-22 12:16:01.879";"NST_correctLoc";"3";"1";"FINISHED";"RIGHT";"success";"357";"0";"2014-07-22 12:16:00.629";"1";;;;;;;;;;;;;;;;;;;;;
"04501443";;;"Windows 7";"Rachel's Experiment (D.T.)";"1.0";"2";"1";"1";"2";"3";"1";"2014-07-22 12:05:50.468";"2014-07-22 12:25:05.360";"1";"1";"0";"645";"149";"module.training_block4.exec-1726.GoNoGo4";;;;;;;;;;;;;;;;;;;;;;;;;;;;;;;;;;;;;;;;;;;;;;;;;;;;;;;;;;;"1249";"2014-07-22 12:16:04.394";"NST_correctLoc";"5";"0";"FINISHED";"LEFT";"success";"298";"0";"2014-07-22 12:16:03.144";"1";;;;;;;;;;;;;;;;;;;;;
"04501443";;;"Windows 7";"Rachel's Experiment (D.T.)";"1.0";"2";"1";"1";"2";"3";"1";"2014-07-22 12:05:50.468";"2014-07-22 12:25:05.360";"1";"1";"0";"646";"150";"module.training_block4.exec-1726.GoNoGo4";;;;;;;;;;;;;;;;;;;;;;;;;;;;;;;;;;;;;;;;;;;;;;;;;;;;;;;;;;;"1249";"2014-07-22 12:16:06.909";"NST_correctLoc";"34";"0";"FINISHED";"LEFT";"success";"383";"0";"2014-07-22 12:16:05.659";"3";;;;;;;;;;;;;;;;;;;;;
"04501443";;;"Windows 7";"Rachel's Experiment (D.T.)";"1.0";"2";"1";"1";"2";"3";"1";"2014-07-22 12:05:50.468";"2014-07-22 12:25:05.360";"1";"1";"0";"647";"151";"module.training_block4.exec-1726.GoNoGo4";;;;;;;;;;;;;;;;;;;;;;;;;;;;;;;;;;;;;;;;;;;;;;;;;;;;;;;;;;;"1249";"2014-07-22 12:16:09.427";"NST_correctLoc";"31";"0";"FINISHED";"LEFT";"success";"352";"0";"2014-07-22 12:16:08.177";"3";;;;;;;;;;;;;;;;;;;;;
"04501443";;;"Windows 7";"Rachel's Experiment (D.T.)";"1.0";"2";"1";"1";"2";"3";"1";"2014-07-22 12:05:50.468";"2014-07-22 12:25:05.360";"1";"1";"0";"648";"152";"module.training_block4.exec-1726.GoNoGo4";;;;;;;;;;;;;;;;;;;;;;;;;;;;;;;;;;;;;;;;;;;;;;;;;;;;;;;;;;;"1249";"2014-07-22 12:16:11.942";"NST_correctLoc";"29";"0";"FINISHED";"LEFT";"success";"349";"0";"2014-07-22 12:16:10.692";"3";;;;;;;;;;;;;;;;;;;;;
"04501443";;;"Windows 7";"Rachel's Experiment (D.T.)";"1.0";"2";"1";"1";"2";"3";"1";"2014-07-22 12:05:50.468";"2014-07-22 12:25:05.360";"1";"1";"0";"649";"153";"module.training_block4.exec-1726.GoNoGo4";;;;;;;;;;;;;;;;;;;;;;;;;;;;;;;;;;;;;;;;;;;;;;;;;;;;;;;;;;;"1249";"2014-07-22 12:16:14.456";"NST_correctLoc";"13";"1";"FINISHED";"RIGHT";"success";"299";"0";"2014-07-22 12:16:13.206";"2";;;;;;;;;;;;;;;;;;;;;
"04501443";;;"Windows 7";"Rachel's Experiment (D.T.)";"1.0";"2";"1";"1";"2";"3";"1";"2014-07-22 12:05:50.468";"2014-07-22 12:25:05.360";"1";"1";"0";"650";"154";"module.training_block4.exec-1726.GoNoGo4";;;;;;;;;;;;;;;;;;;;;;;;;;;;;;;;;;;;;;;;;;;;;;;;;;;;;;;;;;;"1249";"2014-07-22 12:16:16.971";"NST_correctLoc";"10";"1";"FINISHED";"RIGHT";"success";"352";"0";"2014-07-22 12:16:15.721";"2";;;;;;;;;;;;;;;;;;;;;
"04501443";;;"Windows 7";"Rachel's Experiment (D.T.)";"1.0";"2";"1";"1";"2";"3";"1";"2014-07-22 12:05:50.468";"2014-07-22 12:25:05.360";"1";"1";"0";"651";"155";"module.training_block4.exec-1726.GoNoGo4";;;;;;;;;;;;;;;;;;;;;;;;;;;;;;;;;;;;;;;;;;;;;;;;;;;;;;;;;;;"1249";"2014-07-22 12:16:19.487";"NST_correctLoc";"21";"1";"FINISHED";"RIGHT";"success";"373";"0";"2014-07-22 12:16:18.237";"3";;;;;;;;;;;;;;;;;;;;;
"04501443";;;"Windows 7";"Rachel's Experiment (D.T.)";"1.0";"2";"1";"1";"2";"3";"1";"2014-07-22 12:05:50.468";"2014-07-22 12:25:05.360";"1";"1";"0";"652";"156";"module.training_block4.exec-1726.GoNoGo4";;;;;;;;;;;;;;;;;;;;;;;;;;;;;;;;;;;;;;;;;;;;;;;;;;;;;;;;;;;"1249";"2014-07-22 12:16:22.002";"NST_correctLoc";"17";"0";"FINISHED";"LEFT";"success";"346";"0";"2014-07-22 12:16:20.752";"2";;;;;;;;;;;;;;;;;;;;;
"04501443";;;"Windows 7";"Rachel's Experiment (D.T.)";"1.0";"2";"1";"1";"2";"3";"1";"2014-07-22 12:05:50.468";"2014-07-22 12:25:05.360";"1";"1";"0";"653";"157";"module.training_block4.exec-1726.GoNoGo4";;;;;;;;;;;;;;;;;;;;;;;;;;;;;;;;;;;;;;;;;;;;;;;;;;;;;;;;;;;"1249";"2014-07-22 12:16:24.517";"NST_correctLoc";"6";"1";"FINISHED";"RIGHT";"success";"382";"0";"2014-07-22 12:16:23.267";"1";;;;;;;;;;;;;;;;;;;;;
"04501443";;;"Windows 7";"Rachel's Experiment (D.T.)";"1.0";"2";"1";"1";"2";"3";"1";"2014-07-22 12:05:50.468";"2014-07-22 12:25:05.360";"1";"1";"0";"654";"158";"module.training_block4.exec-1726.GoNoGo4";;;;;;;;;;;;;;;;;;;;;;;;;;;;;;;;;;;;;;;;;;;;;;;;;;;;;;;;;;;"1249";"2014-07-22 12:16:27.031";"NST_correctLoc";"16";"1";"FINISHED";"RIGHT";"success";"420";"0";"2014-07-22 12:16:25.781";"2";;;;;;;;;;;;;;;;;;;;;
"04501443";;;"Windows 7";"Rachel's Experiment (D.T.)";"1.0";"2";"1";"1";"2";"3";"1";"2014-07-22 12:05:50.468";"2014-07-22 12:25:05.360";"1";"1";"0";"655";"159";"module.devaluation_practice.exec-9281.devalPractice";;;;;;;;;;;;"17108";"2014-07-22 12:17:24.889";"0";"6";"4";"5";"5546";"3217";"5317";"2014-07-22 12:17:07.780";;;;;;;;;;;;;;;;;;;;;;;;;;;;;;;;;;;;;;;;;;;;;;;;;;;;;;;;;;;;;;;;;;;;;;
"04501443";;;"Windows 7";"Rachel's Experiment (D.T.)";"1.0";"2";"1";"1";"2";"3";"1";"2014-07-22 12:05:50.468";"2014-07-22 12:25:05.360";"1";"1";"0";"656";"160";"module.devaluation_practice.exec-9281.devalPractice";;;;;;;;;;;;"13859";"2014-07-22 12:17:38.769";"1";"5";"5";"6";"2939";"2440";"5473";"2014-07-22 12:17:24.909";;;;;;;;;;;;;;;;;;;;;;;;;;;;;;;;;;;;;;;;;;;;;;;;;;;;;;;;;;;;;;;;;;;;;;
"04501443";;;"Windows 7";"Rachel's Experiment (D.T.)";"1.0";"2";"1";"1";"2";"3";"1";"2014-07-22 12:05:50.468";"2014-07-22 12:25:05.360";"1";"1";"0";"657";"161";"module.devaluation_practice.exec-9281.devalPractice";;;;;;;;;;;;"21267";"2014-07-22 12:18:00.065";"2";"3";"5";"7";"7866";"2952";"7442";"2014-07-22 12:17:38.796";;;;;;;;;;;;;;;;;;;;;;;;;;;;;;;;;;;;;;;;;;;;;;;;;;;;;;;;;;;;;;;;;;;;;;
"04501443";;;"Windows 7";"Rachel's Experiment (D.T.)";"1.0";"2";"1";"1";"2";"3";"1";"2014-07-22 12:05:50.468";"2014-07-22 12:25:05.360";"1";"1";"0";"658";"162";"module.devaluation_practice.exec-9281.devalPractice";;;;;;;;;;;;"20844";"2014-07-22 12:18:20.930";"3";"5";"4";"6";"2994";"8232";"6611";"2014-07-22 12:18:00.083";;;;;;;;;;;;;;;;;;;;;;;;;;;;;;;;;;;;;;;;;;;;;;;;;;;;;;;;;;;;;;;;;;;;;;
"04501443";;;"Windows 7";"Rachel's Experiment (D.T.)";"1.0";"2";"1";"1";"2";"3";"1";"2014-07-22 12:05:50.468";"2014-07-22 12:25:05.360";"1";"1";"0";"659";"163";"module.devaluation_block1.exec-4829.deval1";"19737";"2014-07-22 12:18:47.793";"25";"5";"4";"6";"191";"9424";"7111";"2014-07-22 12:18:28.054";"3";;;;;;;;;;;;;;;;;;;;;;;;;;;;;;;;;;;;;;;;;;;;;;;;;;;;;;;;;;;;;;;;;;;;;;;;;;;;;;;;
"04501443";;;"Windows 7";"Rachel's Experiment (D.T.)";"1.0";"2";"1";"1";"2";"3";"1";"2014-07-22 12:05:50.468";"2014-07-22 12:25:05.360";"1";"1";"0";"660";"164";"module.devaluation_block1.exec-4829.deval1";"16140";"2014-07-22 12:19:03.953";"8";"2";"2";"4";"5243";"5017";"2852";"2014-07-22 12:18:47.811";"1";;;;;;;;;;;;;;;;;;;;;;;;;;;;;;;;;;;;;;;;;;;;;;;;;;;;;;;;;;;;;;;;;;;;;;;;;;;;;;;;
"04501443";;;"Windows 7";"Rachel's Experiment (D.T.)";"1.0";"2";"1";"1";"2";"3";"1";"2014-07-22 12:05:50.468";"2014-07-22 12:25:05.360";"1";"1";"0";"661";"165";"module.devaluation_block1.exec-4829.deval1";"13700";"2014-07-22 12:19:17.673";"15";"3";"2";"3";"3468";"3664";"3552";"2014-07-22 12:19:03.971";"2";;;;;;;;;;;;;;;;;;;;;;;;;;;;;;;;;;;;;;;;;;;;;;;;;;;;;;;;;;;;;;;;;;;;;;;;;;;;;;;;
"04501443";;;"Windows 7";"Rachel's Experiment (D.T.)";"1.0";"2";"1";"1";"2";"3";"1";"2014-07-22 12:05:50.468";"2014-07-22 12:25:05.360";"1";"1";"0";"662";"166";"module.devaluation_block1.exec-4829.deval1";"24539";"2014-07-22 12:19:42.233";"19";"6";"4";"7";"6931";"6680";"7920";"2014-07-22 12:19:17.691";"3";;;;;;;;;;;;;;;;;;;;;;;;;;;;;;;;;;;;;;;;;;;;;;;;;;;;;;;;;;;;;;;;;;;;;;;;;;;;;;;;
"04501443";;;"Windows 7";"Rachel's Experiment (D.T.)";"1.0";"2";"1";"1";"2";"3";"1";"2014-07-22 12:05:50.468";"2014-07-22 12:25:05.360";"1";"1";"0";"663";"167";"module.devaluation_block1.exec-4829.deval1";"22307";"2014-07-22 12:20:04.560";"26";"7";"2";"6";"8977";"2552";"7768";"2014-07-22 12:19:42.252";"3";;;;;;;;;;;;;;;;;;;;;;;;;;;;;;;;;;;;;;;;;;;;;;;;;;;;;;;;;;;;;;;;;;;;;;;;;;;;;;;;
"04501443";;;"Windows 7";"Rachel's Experiment (D.T.)";"1.0";"2";"1";"1";"2";"3";"1";"2014-07-22 12:05:50.468";"2014-07-22 12:25:05.360";"1";"1";"0";"664";"168";"module.devaluation_block1.exec-4829.deval1";"17171";"2014-07-22 12:20:21.752";"1";"1";"2";"4";"5722";"4264";"4176";"2014-07-22 12:20:04.579";"1";;;;;;;;;;;;;;;;;;;;;;;;;;;;;;;;;;;;;;;;;;;;;;;;;;;;;;;;;;;;;;;;;;;;;;;;;;;;;;;;
"04501443";;;"Windows 7";"Rachel's Experiment (D.T.)";"1.0";"2";"1";"1";"2";"3";"1";"2014-07-22 12:05:50.468";"2014-07-22 12:25:05.360";"1";"1";"0";"665";"169";"module.devaluation_block1.exec-4829.deval1";"17275";"2014-07-22 12:20:39.048";"4";"6";"2";"6";"6898";"1385";"5984";"2014-07-22 12:20:21.771";"1";;;;;;;;;;;;;;;;;;;;;;;;;;;;;;;;;;;;;;;;;;;;;;;;;;;;;;;;;;;;;;;;;;;;;;;;;;;;;;;;
"04501443";;;"Windows 7";"Rachel's Experiment (D.T.)";"1.0";"2";"1";"1";"2";"3";"1";"2014-07-22 12:05:50.468";"2014-07-22 12:25:05.360";"1";"1";"0";"666";"170";"module.devaluation_block1.exec-4829.deval1";"11907";"2014-07-22 12:20:50.976";"23";"5";"2";"6";"5128";"1664";"2104";"2014-07-22 12:20:39.068";"3";;;;;;;;;;;;;;;;;;;;;;;;;;;;;;;;;;;;;;;;;;;;;;;;;;;;;;;;;;;;;;;;;;;;;;;;;;;;;;;;
"04501443";;;"Windows 7";"Rachel's Experiment (D.T.)";"1.0";"2";"1";"1";"2";"3";"1";"2014-07-22 12:05:50.468";"2014-07-22 12:25:05.360";"1";"1";"0";"667";"171";"module.devaluation_block1.exec-4829.deval1";"17084";"2014-07-22 12:21:08.080";"0";"2";"3";"5";"3179";"4824";"6073";"2014-07-22 12:20:50.994";"1";;;;;;;;;;;;;;;;;;;;;;;;;;;;;;;;;;;;;;;;;;;;;;;;;;;;;;;;;;;;;;;;;;;;;;;;;;;;;;;;
"04501443";;;"Windows 7";"Rachel's Experiment (D.T.)";"1.0";"2";"1";"1";"2";"3";"1";"2014-07-22 12:05:50.468";"2014-07-22 12:25:05.360";"1";"1";"0";"668";"172";"module.devaluation_block1.exec-4829.deval1";"12421";"2014-07-22 12:21:20.520";"5";"2";"1";"5";"3715";"2280";"3417";"2014-07-22 12:21:08.098";"1";;;;;;;;;;;;;;;;;;;;;;;;;;;;;;;;;;;;;;;;;;;;;;;;;;;;;;;;;;;;;;;;;;;;;;;;;;;;;;;;
"04501443";;;"Windows 7";"Rachel's Experiment (D.T.)";"1.0";"2";"1";"1";"2";"3";"1";"2014-07-22 12:05:50.468";"2014-07-22 12:25:05.360";"1";"1";"0";"669";"173";"module.devaluation_block1.exec-4829.deval1";"14979";"2014-07-22 12:21:35.520";"11";"6";"2";"5";"4385";"5416";"2169";"2014-07-22 12:21:20.540";"2";;;;;;;;;;;;;;;;;;;;;;;;;;;;;;;;;;;;;;;;;;;;;;;;;;;;;;;;;;;;;;;;;;;;;;;;;;;;;;;;
"04501443";;;"Windows 7";"Rachel's Experiment (D.T.)";"1.0";"2";"1";"1";"2";"3";"1";"2014-07-22 12:05:50.468";"2014-07-22 12:25:05.360";"1";"1";"0";"670";"174";"module.devaluation_block1.exec-4829.deval1";"13364";"2014-07-22 12:21:48.903";"20";"3";"2";"4";"4386";"1705";"4265";"2014-07-22 12:21:35.539";"3";;;;;;;;;;;;;;;;;;;;;;;;;;;;;;;;;;;;;;;;;;;;;;;;;;;;;;;;;;;;;;;;;;;;;;;;;;;;;;;;
"04501443";;;"Windows 7";"Rachel's Experiment (D.T.)";"1.0";"2";"1";"1";"2";"3";"1";"2014-07-22 12:05:50.468";"2014-07-22 12:25:05.360";"1";"1";"0";"671";"175";"module.devaluation_block1.exec-4829.deval1";"9812";"2014-07-22 12:21:58.736";"2";"1";"2";"4";"1274";"2049";"3480";"2014-07-22 12:21:48.922";"1";;;;;;;;;;;;;;;;;;;;;;;;;;;;;;;;;;;;;;;;;;;;;;;;;;;;;;;;;;;;;;;;;;;;;;;;;;;;;;;;
"04501443";;;"Windows 7";"Rachel's Experiment (D.T.)";"1.0";"2";"1";"1";"2";"3";"1";"2014-07-22 12:05:50.468";"2014-07-22 12:25:05.360";"1";"1";"0";"672";"176";"module.devaluation_block1.exec-4829.deval1";"19179";"2014-07-22 12:22:17.935";"10";"7";"5";"7";"10241";"3857";"2073";"2014-07-22 12:21:58.755";"2";;;;;;;;;;;;;;;;;;;;;;;;;;;;;;;;;;;;;;;;;;;;;;;;;;;;;;;;;;;;;;;;;;;;;;;;;;;;;;;;
"04501443";;;"Windows 7";"Rachel's Experiment (D.T.)";"1.0";"2";"1";"1";"2";"3";"1";"2014-07-22 12:05:50.468";"2014-07-22 12:25:05.360";"1";"1";"0";"673";"177";"module.devaluation_block1.exec-4829.deval1";"7052";"2014-07-22 12:22:25.007";"13";"7";"6";"7";"906";"2128";"1009";"2014-07-22 12:22:17.955";"2";;;;;;;;;;;;;;;;;;;;;;;;;;;;;;;;;;;;;;;;;;;;;;;;;;;;;;;;;;;;;;;;;;;;;;;;;;;;;;;;
"04501443";;;"Windows 7";"Rachel's Experiment (D.T.)";"1.0";"2";"1";"1";"2";"3";"1";"2014-07-22 12:05:50.468";"2014-07-22 12:25:05.360";"1";"1";"0";"674";"178";"module.devaluation_block1.exec-4829.deval1";"9789";"2014-07-22 12:22:34.815";"21";"4";"3";"6";"1587";"3449";"1745";"2014-07-22 12:22:25.026";"3";;;;;;;;;;;;;;;;;;;;;;;;;;;;;;;;;;;;;;;;;;;;;;;;;;;;;;;;;;;;;;;;;;;;;;;;;;;;;;;;
"04501443";;;"Windows 7";"Rachel's Experiment (D.T.)";"1.0";"2";"1";"1";"2";"3";"1";"2014-07-22 12:05:50.468";"2014-07-22 12:25:05.360";"1";"1";"0";"675";"179";"module.devaluation_block1.exec-4829.deval1";"15244";"2014-07-22 12:22:50.079";"12";"6";"6";"7";"2211";"1185";"8840";"2014-07-22 12:22:34.834";"2";;;;;;;;;;;;;;;;;;;;;;;;;;;;;;;;;;;;;;;;;;;;;;;;;;;;;;;;;;;;;;;;;;;;;;;;;;;;;;;;
"04501443";;;"Windows 7";"Rachel's Experiment (D.T.)";"1.0";"2";"1";"1";"2";"3";"1";"2014-07-22 12:05:50.468";"2014-07-22 12:25:05.360";"1";"1";"0";"676";"180";"module.devaluation_block1.exec-4829.deval1";"13212";"2014-07-22 12:23:03.312";"24";"1";"1";"3";"1696";"4273";"4232";"2014-07-22 12:22:50.098";"3";;;;;;;;;;;;;;;;;;;;;;;;;;;;;;;;;;;;;;;;;;;;;;;;;;;;;;;;;;;;;;;;;;;;;;;;;;;;;;;;
"04501443";;;"Windows 7";"Rachel's Experiment (D.T.)";"1.0";"2";"1";"1";"2";"3";"1";"2014-07-22 12:05:50.468";"2014-07-22 12:25:05.360";"1";"1";"0";"677";"181";"module.devaluation_block1.exec-4829.deval1";"8692";"2014-07-22 12:23:12.023";"17";"2";"1";"2";"1794";"1289";"2600";"2014-07-22 12:23:03.331";"2";;;;;;;;;;;;;;;;;;;;;;;;;;;;;;;;;;;;;;;;;;;;;;;;;;;;;;;;;;;;;;;;;;;;;;;;;;;;;;;;
"04501443";;;"Windows 7";"Rachel's Experiment (D.T.)";"1.0";"2";"1";"1";"2";"3";"1";"2014-07-22 12:05:50.468";"2014-07-22 12:25:05.360";"1";"1";"0";"678";"182";"module.devaluation_block1.exec-4829.deval1";"13564";"2014-07-22 12:23:25.607";"18";"5";"5";"4";"4002";"4529";"2025";"2014-07-22 12:23:12.042";"3";;;;;;;;;;;;;;;;;;;;;;;;;;;;;;;;;;;;;;;;;;;;;;;;;;;;;;;;;;;;;;;;;;;;;;;;;;;;;;;;
"04501443";;;"Windows 7";"Rachel's Experiment (D.T.)";"1.0";"2";"1";"1";"2";"3";"1";"2014-07-22 12:05:50.468";"2014-07-22 12:25:05.360";"1";"1";"0";"679";"183";"module.devaluation_block1.exec-4829.deval1";"22804";"2014-07-22 12:23:48.431";"14";"7";"6";"6";"11419";"3905";"4473";"2014-07-22 12:23:25.625";"2";;;;;;;;;;;;;;;;;;;;;;;;;;;;;;;;;;;;;;;;;;;;;;;;;;;;;;;;;;;;;;;;;;;;;;;;;;;;;;;;
"04501443";;;"Windows 7";"Rachel's Experiment (D.T.)";"1.0";"2";"1";"1";"2";"3";"1";"2014-07-22 12:05:50.468";"2014-07-22 12:25:05.360";"1";"1";"0";"680";"184";"module.devaluation_block1.exec-4829.deval1";"14100";"2014-07-22 12:24:02.551";"3";"2";"2";"5";"3915";"3193";"3985";"2014-07-22 12:23:48.449";"1";;;;;;;;;;;;;;;;;;;;;;;;;;;;;;;;;;;;;;;;;;;;;;;;;;;;;;;;;;;;;;;;;;;;;;;;;;;;;;;;
"04501443";;;"Windows 7";"Rachel's Experiment (D.T.)";"1.0";"2";"1";"1";"2";"3";"1";"2014-07-22 12:05:50.468";"2014-07-22 12:25:05.360";"1";"1";"0";"681";"185";"module.devaluation_block1.exec-4829.deval1";"13260";"2014-07-22 12:24:15.831";"9";"7";"6";"5";"3909";"3120";"3216";"2014-07-22 12:24:02.569";"2";;;;;;;;;;;;;;;;;;;;;;;;;;;;;;;;;;;;;;;;;;;;;;;;;;;;;;;;;;;;;;;;;;;;;;;;;;;;;;;;
"04501443";;;"Windows 7";"Rachel's Experiment (D.T.)";"1.0";"2";"1";"1";"2";"3";"1";"2014-07-22 12:05:50.468";"2014-07-22 12:25:05.360";"1";"1";"0";"682";"186";"module.devaluation_block1.exec-4829.deval1";"8932";"2014-07-22 12:24:24.782";"16";"3";"4";"4";"2315";"2233";"1377";"2014-07-22 12:24:15.849";"2";;;;;;;;;;;;;;;;;;;;;;;;;;;;;;;;;;;;;;;;;;;;;;;;;;;;;;;;;;;;;;;;;;;;;;;;;;;;;;;;
"04501443";;;"Windows 7";"Rachel's Experiment (D.T.)";"1.0";"2";"1";"1";"2";"3";"1";"2014-07-22 12:05:50.468";"2014-07-22 12:25:05.360";"1";"1";"0";"683";"187";"module.devaluation_block1.exec-4829.deval1";"7348";"2014-07-22 12:24:32.151";"7";"3";"1";"3";"1867";"1449";"1025";"2014-07-22 12:24:24.801";"1";;;;;;;;;;;;;;;;;;;;;;;;;;;;;;;;;;;;;;;;;;;;;;;;;;;;;;;;;;;;;;;;;;;;;;;;;;;;;;;;
"04501443";;;"Windows 7";"Rachel's Experiment (D.T.)";"1.0";"2";"1";"1";"2";"3";"1";"2014-07-22 12:05:50.468";"2014-07-22 12:25:05.360";"1";"1";"0";"684";"188";"module.devaluation_block1.exec-4829.deval1";"16812";"2014-07-22 12:24:48.983";"22";"7";"4";"6";"10395";"985";"2424";"2014-07-22 12:24:32.169";"3";;;;;;;;;;;;;;;;;;;;;;;;;;;;;;;;;;;;;;;;;;;;;;;;;;;;;;;;;;;;;;;;;;;;;;;;;;;;;;;;
"04501443";;;"Windows 7";"Rachel's Experiment (D.T.)";"1.0";"2";"1";"1";"2";"3";"1";"2014-07-22 12:05:50.468";"2014-07-22 12:25:05.360";"1";"1";"0";"685";"189";"module.devaluation_block1.exec-4829.deval1";"13324";"2014-07-22 12:25:02.326";"6";"2";"2";"5";"2242";"4656";"3417";"2014-07-22 12:24:49.002";"1";;;;;;;;;;;;;;;;;;;;;;;;;;;;;;;;;;;;;;;;;;;;;;;;;;;;;;;;;;;;;;;;;;;;;;;;;;;;;;;;
