"user.name";"user.yearOfBirth";"user.sex";"user.osName";"module.name";"module.version";"module.online.subject.code";"module.online.study.id";"module.online.module.nr";"module.online.group.nr";"session.id";"session.index";"session.startTime";"session.endTime";"session.completed";"session.node-9238.conditionType";"session.node-9616.DevalQorder";"trial.id";"trial.index";"trial.name";"trial.deval1.durationTime";"trial.deval1.endTime";"trial.deval1.icon";"trial.deval1.Resp_Attractive";"trial.deval1.Resp_Eat";"trial.deval1.Resp_Taste";"trial.deval1.RT_Attractive";"trial.deval1.RT_Eat";"trial.deval1.RT_Taste";"trial.deval1.startTime";"trial.deval1.stimulus type";"trial.devalPractice.durationTime";"trial.devalPractice.endTime";"trial.devalPractice.icon";"trial.devalPractice.Resp_Attractive";"trial.devalPractice.Resp_Eat";"trial.devalPractice.Resp_Taste";"trial.devalPractice.RT_Attractive";"trial.devalPractice.RT_Eat";"trial.devalPractice.RT_Taste";"trial.devalPractice.startTime";"trial.devalPractice.stimulus type";"trial.GoNoGo1.durationTime";"trial.GoNoGo1.endTime";"trial.GoNoGo1.Error Type";"trial.GoNoGo1.icon";"trial.GoNoGo1.location";"trial.GoNoGo1.outcome";"trial.GoNoGo1.response";"trial.GoNoGo1.result";"trial.GoNoGo1.RT";"trial.GoNoGo1.signal";"trial.GoNoGo1.startTime";"trial.GoNoGo1.stimulus type";"trial.GoNoGo2.durationTime";"trial.GoNoGo2.endTime";"trial.GoNoGo2.Error Type";"trial.GoNoGo2.icon";"trial.GoNoGo2.location";"trial.GoNoGo2.outcome";"trial.GoNoGo2.response";"trial.GoNoGo2.result";"trial.GoNoGo2.RT";"trial.GoNoGo2.signal";"trial.GoNoGo2.startTime";"trial.GoNoGo2.stimulus type";"trial.GoNoGo3.durationTime";"trial.GoNoGo3.endTime";"trial.GoNoGo3.Error Type";"trial.GoNoGo3.icon";"trial.GoNoGo3.location";"trial.GoNoGo3.outcome";"trial.GoNoGo3.response";"trial.GoNoGo3.result";"trial.GoNoGo3.RT";"trial.GoNoGo3.signal";"trial.GoNoGo3.startTime";"trial.GoNoGo3.stimulus type";"trial.GoNoGo4.durationTime";"trial.GoNoGo4.endTime";"trial.GoNoGo4.Error Type";"trial.GoNoGo4.icon";"trial.GoNoGo4.location";"trial.GoNoGo4.outcome";"trial.GoNoGo4.response";"trial.GoNoGo4.result";"trial.GoNoGo4.RT";"trial.GoNoGo4.signal";"trial.GoNoGo4.startTime";"trial.GoNoGo4.stimulus type";"trial.GoNoGo_Practice.durationTime";"trial.GoNoGo_Practice.endTime";"trial.GoNoGo_Practice.icon";"trial.GoNoGo_Practice.location";"trial.GoNoGo_Practice.outcome";"trial.GoNoGo_Practice.response";"trial.GoNoGo_Practice.result";"trial.GoNoGo_Practice.RT";"trial.GoNoGo_Practice.signal";"trial.GoNoGo_Practice.startTime";"trial.GoNoGo_Practice.stimulus type";"trial.GoNoGo_Tutorial.durationTime";"trial.GoNoGo_Tutorial.endTime";"trial.GoNoGo_Tutorial.icon";"trial.GoNoGo_Tutorial.location";"trial.GoNoGo_Tutorial.outcome";"trial.GoNoGo_Tutorial.response";"trial.GoNoGo_Tutorial.result";"trial.GoNoGo_Tutorial.RT";"trial.GoNoGo_Tutorial.signal";"trial.GoNoGo_Tutorial.startTime"
"7674asdf";"1995";;"Windows 7";"Rachel's Experiment (D.T.)";"1.0";"2";"1";"1";"2";"1";"1";"2014-10-13 13:12:19.675";"2014-10-13 13:24:21.786";"1";"1";"1";"1";"0";"module.GoNoGotutorial.exec-6759.GoNoGo_Tutorial";;;;;;;;;;;;;;;;;;;;;;;;;;;;;;;;;;;;;;;;;;;;;;;;;;;;;;;;;;;;;;;;;;;;;;;;;;;;;;;;;;"3996";"2014-10-13 13:13:11.375";"leftResponse";"0";"FINISHED";"LEFT";"success";"1129";"0";"2014-10-13 13:13:07.375"
"7674asdf";"1995";;"Windows 7";"Rachel's Experiment (D.T.)";"1.0";"2";"1";"1";"2";"1";"1";"2014-10-13 13:12:19.675";"2014-10-13 13:24:21.786";"1";"1";"1";"2";"1";"module.GoNoGotutorial.exec-6759.GoNoGo_Tutorial";;;;;;;;;;;;;;;;;;;;;;;;;;;;;;;;;;;;;;;;;;;;;;;;;;;;;;;;;;;;;;;;;;;;;;;;;;;;;;;;;;"3994";"2014-10-13 13:13:16.656";"rightResponse";"1";"FINISHED";"RIGHT";"success";"647";"0";"2014-10-13 13:13:12.655"
"7674asdf";"1995";;"Windows 7";"Rachel's Experiment (D.T.)";"1.0";"2";"1";"1";"2";"1";"1";"2014-10-13 13:12:19.675";"2014-10-13 13:24:21.786";"1";"1";"1";"3";"2";"module.GoNoGotutorial.exec-6759.GoNoGo_Tutorial";;;;;;;;;;;;;;;;;;;;;;;;;;;;;;;;;;;;;;;;;;;;;;;;;;;;;;;;;;;;;;;;;;;;;;;;;;;;;;;;;;"3994";"2014-10-13 13:13:21.936";"signalResponse";"0";"FINISHED";"NONE";"success";"0";"1";"2014-10-13 13:13:17.936"
"7674asdf";"1995";;"Windows 7";"Rachel's Experiment (D.T.)";"1.0";"2";"1";"1";"2";"1";"1";"2014-10-13 13:12:19.675";"2014-10-13 13:24:21.786";"1";"1";"1";"4";"3";"module.GoNoGopractice.exec-9484.GoNoGo_Practice";;;;;;;;;;;;;;;;;;;;;;;;;;;;;;;;;;;;;;;;;;;;;;;;;;;;;;;;;;;;;;;;;;;;;;;"1943";"2014-10-13 13:13:30.136";"18";"0";"FINISHED";"LEFT";"success";"532";"0";"2014-10-13 13:13:28.186";"3";;;;;;;;;;
"7674asdf";"1995";;"Windows 7";"Rachel's Experiment (D.T.)";"1.0";"2";"1";"1";"2";"1";"1";"2014-10-13 13:12:19.675";"2014-10-13 13:24:21.786";"1";"1";"1";"5";"4";"module.GoNoGopractice.exec-9484.GoNoGo_Practice";;;;;;;;;;;;;;;;;;;;;;;;;;;;;;;;;;;;;;;;;;;;;;;;;;;;;;;;;;;;;;;;;;;;;;;"1943";"2014-10-13 13:13:33.366";"21";"1";"FINISHED";"RIGHT";"success";"430";"0";"2014-10-13 13:13:31.416";"3";;;;;;;;;;
"7674asdf";"1995";;"Windows 7";"Rachel's Experiment (D.T.)";"1.0";"2";"1";"1";"2";"1";"1";"2014-10-13 13:12:19.675";"2014-10-13 13:24:21.786";"1";"1";"1";"6";"5";"module.GoNoGopractice.exec-9484.GoNoGo_Practice";;;;;;;;;;;;;;;;;;;;;;;;;;;;;;;;;;;;;;;;;;;;;;;;;;;;;;;;;;;;;;;;;;;;;;;"1942";"2014-10-13 13:13:36.596";"14";"1";"FINISHED";"RIGHT";"failure";"551";"1";"2014-10-13 13:13:34.646";"2";;;;;;;;;;
"7674asdf";"1995";;"Windows 7";"Rachel's Experiment (D.T.)";"1.0";"2";"1";"1";"2";"1";"1";"2014-10-13 13:12:19.675";"2014-10-13 13:24:21.786";"1";"1";"1";"7";"6";"module.GoNoGopractice.exec-9484.GoNoGo_Practice";;;;;;;;;;;;;;;;;;;;;;;;;;;;;;;;;;;;;;;;;;;;;;;;;;;;;;;;;;;;;;;;;;;;;;;"1943";"2014-10-13 13:13:39.826";"26";"0";"FINISHED";"LEFT";"success";"346";"0";"2014-10-13 13:13:37.876";"3";;;;;;;;;;
"7674asdf";"1995";;"Windows 7";"Rachel's Experiment (D.T.)";"1.0";"2";"1";"1";"2";"1";"1";"2014-10-13 13:12:19.675";"2014-10-13 13:24:21.786";"1";"1";"1";"8";"7";"module.GoNoGopractice.exec-9484.GoNoGo_Practice";;;;;;;;;;;;;;;;;;;;;;;;;;;;;;;;;;;;;;;;;;;;;;;;;;;;;;;;;;;;;;;;;;;;;;;"2043";"2014-10-13 13:13:43.136";"2";"0";"FINISHED";"LEFT";"success";"615";"0";"2014-10-13 13:13:41.096";"1";;;;;;;;;;
"7674asdf";"1995";;"Windows 7";"Rachel's Experiment (D.T.)";"1.0";"2";"1";"1";"2";"1";"1";"2014-10-13 13:12:19.675";"2014-10-13 13:24:21.786";"1";"1";"1";"9";"8";"module.GoNoGopractice.exec-9484.GoNoGo_Practice";;;;;;;;;;;;;;;;;;;;;;;;;;;;;;;;;;;;;;;;;;;;;;;;;;;;;;;;;;;;;;;;;;;;;;;"1942";"2014-10-13 13:13:46.356";"30";"0";"FINISHED";"NONE";"success";"0";"1";"2014-10-13 13:13:44.406";"3";;;;;;;;;;
"7674asdf";"1995";;"Windows 7";"Rachel's Experiment (D.T.)";"1.0";"2";"1";"1";"2";"1";"1";"2014-10-13 13:12:19.675";"2014-10-13 13:24:21.786";"1";"1";"1";"10";"9";"module.GoNoGopractice.exec-9484.GoNoGo_Practice";;;;;;;;;;;;;;;;;;;;;;;;;;;;;;;;;;;;;;;;;;;;;;;;;;;;;;;;;;;;;;;;;;;;;;;"1943";"2014-10-13 13:13:49.576";"6";"1";"FINISHED";"RIGHT";"failure";"452";"1";"2014-10-13 13:13:47.626";"1";;;;;;;;;;
"7674asdf";"1995";;"Windows 7";"Rachel's Experiment (D.T.)";"1.0";"2";"1";"1";"2";"1";"1";"2014-10-13 13:12:19.675";"2014-10-13 13:24:21.786";"1";"1";"1";"11";"10";"module.GoNoGopractice.exec-9484.GoNoGo_Practice";;;;;;;;;;;;;;;;;;;;;;;;;;;;;;;;;;;;;;;;;;;;;;;;;;;;;;;;;;;;;;;;;;;;;;;"1944";"2014-10-13 13:13:52.796";"34";"0";"FINISHED";"LEFT";"success";"481";"0";"2014-10-13 13:13:50.846";"3";;;;;;;;;;
"7674asdf";"1995";;"Windows 7";"Rachel's Experiment (D.T.)";"1.0";"2";"1";"1";"2";"1";"1";"2014-10-13 13:12:19.675";"2014-10-13 13:24:21.786";"1";"1";"1";"12";"11";"module.GoNoGopractice.exec-9484.GoNoGo_Practice";;;;;;;;;;;;;;;;;;;;;;;;;;;;;;;;;;;;;;;;;;;;;;;;;;;;;;;;;;;;;;;;;;;;;;;"1943";"2014-10-13 13:13:56.016";"23";"1";"FINISHED";"RIGHT";"success";"652";"0";"2014-10-13 13:13:54.066";"3";;;;;;;;;;
"7674asdf";"1995";;"Windows 7";"Rachel's Experiment (D.T.)";"1.0";"2";"1";"1";"2";"1";"1";"2014-10-13 13:12:19.675";"2014-10-13 13:24:21.786";"1";"1";"1";"13";"12";"module.GoNoGopractice.exec-9484.GoNoGo_Practice";;;;;;;;;;;;;;;;;;;;;;;;;;;;;;;;;;;;;;;;;;;;;;;;;;;;;;;;;;;;;;;;;;;;;;;"1943";"2014-10-13 13:13:59.236";"13";"0";"FINISHED";"NONE";"success";"0";"1";"2014-10-13 13:13:57.286";"2";;;;;;;;;;
"7674asdf";"1995";;"Windows 7";"Rachel's Experiment (D.T.)";"1.0";"2";"1";"1";"2";"1";"1";"2014-10-13 13:12:19.675";"2014-10-13 13:24:21.786";"1";"1";"1";"14";"13";"module.GoNoGopractice.exec-9484.GoNoGo_Practice";;;;;;;;;;;;;;;;;;;;;;;;;;;;;;;;;;;;;;;;;;;;;;;;;;;;;;;;;;;;;;;;;;;;;;;"1944";"2014-10-13 13:14:02.456";"3";"1";"FINISHED";"RIGHT";"success";"533";"0";"2014-10-13 13:14:00.506";"1";;;;;;;;;;
"7674asdf";"1995";;"Windows 7";"Rachel's Experiment (D.T.)";"1.0";"2";"1";"1";"2";"1";"1";"2014-10-13 13:12:19.675";"2014-10-13 13:24:21.786";"1";"1";"1";"15";"14";"module.GoNoGopractice.exec-9484.GoNoGo_Practice";;;;;;;;;;;;;;;;;;;;;;;;;;;;;;;;;;;;;;;;;;;;;;;;;;;;;;;;;;;;;;;;;;;;;;;"1943";"2014-10-13 13:14:05.676";"27";"1";"FINISHED";"NONE";"success";"0";"1";"2014-10-13 13:14:03.726";"3";;;;;;;;;;
"7674asdf";"1995";;"Windows 7";"Rachel's Experiment (D.T.)";"1.0";"2";"1";"1";"2";"1";"1";"2014-10-13 13:12:19.675";"2014-10-13 13:24:21.786";"1";"1";"1";"16";"15";"module.training_block1.exec-5372.GoNoGo1";;;;;;;;;;;;;;;;;;;;;;;"1242";"2014-10-13 13:14:13.026";"NST_correctLoc";"17";"0";"FINISHED";"LEFT";"success";"556";"0";"2014-10-13 13:14:11.776";"2";;;;;;;;;;;;;;;;;;;;;;;;;;;;;;;;;;;;;;;;;;;;;;;;;;;;;;;;;
"7674asdf";"1995";;"Windows 7";"Rachel's Experiment (D.T.)";"1.0";"2";"1";"1";"2";"1";"1";"2014-10-13 13:12:19.675";"2014-10-13 13:24:21.786";"1";"1";"1";"17";"16";"module.training_block1.exec-5372.GoNoGo1";;;;;;;;;;;;;;;;;;;;;;;"1244";"2014-10-13 13:14:15.546";"NST_correctLoc";"28";"0";"FINISHED";"LEFT";"success";"566";"0";"2014-10-13 13:14:14.296";"3";;;;;;;;;;;;;;;;;;;;;;;;;;;;;;;;;;;;;;;;;;;;;;;;;;;;;;;;;
"7674asdf";"1995";;"Windows 7";"Rachel's Experiment (D.T.)";"1.0";"2";"1";"1";"2";"1";"1";"2014-10-13 13:12:19.675";"2014-10-13 13:24:21.786";"1";"1";"1";"18";"17";"module.training_block1.exec-5372.GoNoGo1";;;;;;;;;;;;;;;;;;;;;;;"1243";"2014-10-13 13:14:18.066";"ST_correctStop";"4";"0";"FINISHED";"NONE";"success";"0";"1";"2014-10-13 13:14:16.816";"1";;;;;;;;;;;;;;;;;;;;;;;;;;;;;;;;;;;;;;;;;;;;;;;;;;;;;;;;;
"7674asdf";"1995";;"Windows 7";"Rachel's Experiment (D.T.)";"1.0";"2";"1";"1";"2";"1";"1";"2014-10-13 13:12:19.675";"2014-10-13 13:24:21.786";"1";"1";"1";"19";"18";"module.training_block1.exec-5372.GoNoGo1";;;;;;;;;;;;;;;;;;;;;;;"1243";"2014-10-13 13:14:20.586";"NST_correctLoc";"15";"1";"FINISHED";"RIGHT";"success";"534";"0";"2014-10-13 13:14:19.336";"2";;;;;;;;;;;;;;;;;;;;;;;;;;;;;;;;;;;;;;;;;;;;;;;;;;;;;;;;;
"7674asdf";"1995";;"Windows 7";"Rachel's Experiment (D.T.)";"1.0";"2";"1";"1";"2";"1";"1";"2014-10-13 13:12:19.675";"2014-10-13 13:24:21.786";"1";"1";"1";"20";"19";"module.training_block1.exec-5372.GoNoGo1";;;;;;;;;;;;;;;;;;;;;;;"1243";"2014-10-13 13:14:23.106";"NST_correctLoc";"10";"0";"FINISHED";"LEFT";"success";"590";"0";"2014-10-13 13:14:21.856";"2";;;;;;;;;;;;;;;;;;;;;;;;;;;;;;;;;;;;;;;;;;;;;;;;;;;;;;;;;
"7674asdf";"1995";;"Windows 7";"Rachel's Experiment (D.T.)";"1.0";"2";"1";"1";"2";"1";"1";"2014-10-13 13:12:19.675";"2014-10-13 13:24:21.786";"1";"1";"1";"21";"20";"module.training_block1.exec-5372.GoNoGo1";;;;;;;;;;;;;;;;;;;;;;;"1243";"2014-10-13 13:14:25.626";"NST_correctLoc";"14";"0";"FINISHED";"LEFT";"success";"430";"0";"2014-10-13 13:14:24.376";"2";;;;;;;;;;;;;;;;;;;;;;;;;;;;;;;;;;;;;;;;;;;;;;;;;;;;;;;;;
"7674asdf";"1995";;"Windows 7";"Rachel's Experiment (D.T.)";"1.0";"2";"1";"1";"2";"1";"1";"2014-10-13 13:12:19.675";"2014-10-13 13:24:21.786";"1";"1";"1";"22";"21";"module.training_block1.exec-5372.GoNoGo1";;;;;;;;;;;;;;;;;;;;;;;"1244";"2014-10-13 13:14:28.146";"NST_correctLoc";"31";"0";"FINISHED";"LEFT";"success";"654";"0";"2014-10-13 13:14:26.896";"3";;;;;;;;;;;;;;;;;;;;;;;;;;;;;;;;;;;;;;;;;;;;;;;;;;;;;;;;;
"7674asdf";"1995";;"Windows 7";"Rachel's Experiment (D.T.)";"1.0";"2";"1";"1";"2";"1";"1";"2014-10-13 13:12:19.675";"2014-10-13 13:24:21.786";"1";"1";"1";"23";"22";"module.training_block1.exec-5372.GoNoGo1";;;;;;;;;;;;;;;;;;;;;;;"1243";"2014-10-13 13:14:30.666";"ST_correctStop";"8";"1";"FINISHED";"NONE";"success";"0";"1";"2014-10-13 13:14:29.416";"1";;;;;;;;;;;;;;;;;;;;;;;;;;;;;;;;;;;;;;;;;;;;;;;;;;;;;;;;;
"7674asdf";"1995";;"Windows 7";"Rachel's Experiment (D.T.)";"1.0";"2";"1";"1";"2";"1";"1";"2014-10-13 13:12:19.675";"2014-10-13 13:24:21.786";"1";"1";"1";"24";"23";"module.training_block1.exec-5372.GoNoGo1";;;;;;;;;;;;;;;;;;;;;;;"1247";"2014-10-13 13:14:33.196";"NST_correctLoc";"34";"0";"FINISHED";"LEFT";"success";"552";"0";"2014-10-13 13:14:31.946";"3";;;;;;;;;;;;;;;;;;;;;;;;;;;;;;;;;;;;;;;;;;;;;;;;;;;;;;;;;
"7674asdf";"1995";;"Windows 7";"Rachel's Experiment (D.T.)";"1.0";"2";"1";"1";"2";"1";"1";"2014-10-13 13:12:19.675";"2014-10-13 13:24:21.786";"1";"1";"1";"25";"24";"module.training_block1.exec-5372.GoNoGo1";;;;;;;;;;;;;;;;;;;;;;;"1247";"2014-10-13 13:14:35.726";"ST_correctStop";"19";"1";"FINISHED";"NONE";"success";"0";"1";"2014-10-13 13:14:34.476";"3";;;;;;;;;;;;;;;;;;;;;;;;;;;;;;;;;;;;;;;;;;;;;;;;;;;;;;;;;
"7674asdf";"1995";;"Windows 7";"Rachel's Experiment (D.T.)";"1.0";"2";"1";"1";"2";"1";"1";"2014-10-13 13:12:19.675";"2014-10-13 13:24:21.786";"1";"1";"1";"26";"25";"module.training_block1.exec-5372.GoNoGo1";;;;;;;;;;;;;;;;;;;;;;;"1243";"2014-10-13 13:14:38.246";"ST_correctStop";"33";"1";"FINISHED";"NONE";"success";"0";"1";"2014-10-13 13:14:36.996";"3";;;;;;;;;;;;;;;;;;;;;;;;;;;;;;;;;;;;;;;;;;;;;;;;;;;;;;;;;
"7674asdf";"1995";;"Windows 7";"Rachel's Experiment (D.T.)";"1.0";"2";"1";"1";"2";"1";"1";"2014-10-13 13:12:19.675";"2014-10-13 13:24:21.786";"1";"1";"1";"27";"26";"module.training_block1.exec-5372.GoNoGo1";;;;;;;;;;;;;;;;;;;;;;;"1243";"2014-10-13 13:14:40.766";"NST_correctLoc";"16";"0";"FINISHED";"LEFT";"success";"602";"0";"2014-10-13 13:14:39.516";"2";;;;;;;;;;;;;;;;;;;;;;;;;;;;;;;;;;;;;;;;;;;;;;;;;;;;;;;;;
"7674asdf";"1995";;"Windows 7";"Rachel's Experiment (D.T.)";"1.0";"2";"1";"1";"2";"1";"1";"2014-10-13 13:12:19.675";"2014-10-13 13:24:21.786";"1";"1";"1";"28";"27";"module.training_block1.exec-5372.GoNoGo1";;;;;;;;;;;;;;;;;;;;;;;"1244";"2014-10-13 13:14:43.286";"NST_correctLoc";"18";"0";"FINISHED";"LEFT";"success";"650";"0";"2014-10-13 13:14:42.036";"3";;;;;;;;;;;;;;;;;;;;;;;;;;;;;;;;;;;;;;;;;;;;;;;;;;;;;;;;;
"7674asdf";"1995";;"Windows 7";"Rachel's Experiment (D.T.)";"1.0";"2";"1";"1";"2";"1";"1";"2014-10-13 13:12:19.675";"2014-10-13 13:24:21.786";"1";"1";"1";"29";"28";"module.training_block1.exec-5372.GoNoGo1";;;;;;;;;;;;;;;;;;;;;;;"1244";"2014-10-13 13:14:45.806";"ST_correctStop";"24";"0";"FINISHED";"NONE";"success";"0";"1";"2014-10-13 13:14:44.556";"3";;;;;;;;;;;;;;;;;;;;;;;;;;;;;;;;;;;;;;;;;;;;;;;;;;;;;;;;;
"7674asdf";"1995";;"Windows 7";"Rachel's Experiment (D.T.)";"1.0";"2";"1";"1";"2";"1";"1";"2014-10-13 13:12:19.675";"2014-10-13 13:24:21.786";"1";"1";"1";"30";"29";"module.training_block1.exec-5372.GoNoGo1";;;;;;;;;;;;;;;;;;;;;;;"1248";"2014-10-13 13:14:48.326";"ST_correctStop";"30";"1";"FINISHED";"NONE";"success";"0";"1";"2014-10-13 13:14:47.076";"3";;;;;;;;;;;;;;;;;;;;;;;;;;;;;;;;;;;;;;;;;;;;;;;;;;;;;;;;;
"7674asdf";"1995";;"Windows 7";"Rachel's Experiment (D.T.)";"1.0";"2";"1";"1";"2";"1";"1";"2014-10-13 13:12:19.675";"2014-10-13 13:24:21.786";"1";"1";"1";"31";"30";"module.training_block1.exec-5372.GoNoGo1";;;;;;;;;;;;;;;;;;;;;;;"1243";"2014-10-13 13:14:50.846";"ST_correctStop";"7";"0";"FINISHED";"NONE";"success";"0";"1";"2014-10-13 13:14:49.596";"1";;;;;;;;;;;;;;;;;;;;;;;;;;;;;;;;;;;;;;;;;;;;;;;;;;;;;;;;;
"7674asdf";"1995";;"Windows 7";"Rachel's Experiment (D.T.)";"1.0";"2";"1";"1";"2";"1";"1";"2014-10-13 13:12:19.675";"2014-10-13 13:24:21.786";"1";"1";"1";"32";"31";"module.training_block1.exec-5372.GoNoGo1";;;;;;;;;;;;;;;;;;;;;;;"1244";"2014-10-13 13:14:53.366";"NST_correctLoc";"11";"0";"FINISHED";"LEFT";"success";"490";"0";"2014-10-13 13:14:52.116";"2";;;;;;;;;;;;;;;;;;;;;;;;;;;;;;;;;;;;;;;;;;;;;;;;;;;;;;;;;
"7674asdf";"1995";;"Windows 7";"Rachel's Experiment (D.T.)";"1.0";"2";"1";"1";"2";"1";"1";"2014-10-13 13:12:19.675";"2014-10-13 13:24:21.786";"1";"1";"1";"33";"32";"module.training_block1.exec-5372.GoNoGo1";;;;;;;;;;;;;;;;;;;;;;;"1244";"2014-10-13 13:14:55.886";"NST_correctLoc";"35";"1";"FINISHED";"RIGHT";"success";"562";"0";"2014-10-13 13:14:54.636";"3";;;;;;;;;;;;;;;;;;;;;;;;;;;;;;;;;;;;;;;;;;;;;;;;;;;;;;;;;
"7674asdf";"1995";;"Windows 7";"Rachel's Experiment (D.T.)";"1.0";"2";"1";"1";"2";"1";"1";"2014-10-13 13:12:19.675";"2014-10-13 13:24:21.786";"1";"1";"1";"34";"33";"module.training_block1.exec-5372.GoNoGo1";;;;;;;;;;;;;;;;;;;;;;;"1243";"2014-10-13 13:14:58.406";"ST_failedStop";"26";"1";"FINISHED";"RIGHT";"failure";"434";"1";"2014-10-13 13:14:57.156";"3";;;;;;;;;;;;;;;;;;;;;;;;;;;;;;;;;;;;;;;;;;;;;;;;;;;;;;;;;
"7674asdf";"1995";;"Windows 7";"Rachel's Experiment (D.T.)";"1.0";"2";"1";"1";"2";"1";"1";"2014-10-13 13:12:19.675";"2014-10-13 13:24:21.786";"1";"1";"1";"35";"34";"module.training_block1.exec-5372.GoNoGo1";;;;;;;;;;;;;;;;;;;;;;;"1248";"2014-10-13 13:15:00.926";"ST_correctStop";"3";"0";"FINISHED";"NONE";"success";"0";"1";"2014-10-13 13:14:59.676";"1";;;;;;;;;;;;;;;;;;;;;;;;;;;;;;;;;;;;;;;;;;;;;;;;;;;;;;;;;
"7674asdf";"1995";;"Windows 7";"Rachel's Experiment (D.T.)";"1.0";"2";"1";"1";"2";"1";"1";"2014-10-13 13:12:19.675";"2014-10-13 13:24:21.786";"1";"1";"1";"36";"35";"module.training_block1.exec-5372.GoNoGo1";;;;;;;;;;;;;;;;;;;;;;;"1244";"2014-10-13 13:15:03.446";"ST_correctStop";"5";"0";"FINISHED";"NONE";"success";"0";"1";"2014-10-13 13:15:02.196";"1";;;;;;;;;;;;;;;;;;;;;;;;;;;;;;;;;;;;;;;;;;;;;;;;;;;;;;;;;
"7674asdf";"1995";;"Windows 7";"Rachel's Experiment (D.T.)";"1.0";"2";"1";"1";"2";"1";"1";"2014-10-13 13:12:19.675";"2014-10-13 13:24:21.786";"1";"1";"1";"37";"36";"module.training_block1.exec-5372.GoNoGo1";;;;;;;;;;;;;;;;;;;;;;;"1248";"2014-10-13 13:15:05.966";"NST_correctLoc";"13";"1";"FINISHED";"RIGHT";"success";"470";"0";"2014-10-13 13:15:04.716";"2";;;;;;;;;;;;;;;;;;;;;;;;;;;;;;;;;;;;;;;;;;;;;;;;;;;;;;;;;
"7674asdf";"1995";;"Windows 7";"Rachel's Experiment (D.T.)";"1.0";"2";"1";"1";"2";"1";"1";"2014-10-13 13:12:19.675";"2014-10-13 13:24:21.786";"1";"1";"1";"38";"37";"module.training_block1.exec-5372.GoNoGo1";;;;;;;;;;;;;;;;;;;;;;;"1243";"2014-10-13 13:15:08.486";"NST_correctLoc";"29";"1";"FINISHED";"RIGHT";"success";"713";"0";"2014-10-13 13:15:07.236";"3";;;;;;;;;;;;;;;;;;;;;;;;;;;;;;;;;;;;;;;;;;;;;;;;;;;;;;;;;
"7674asdf";"1995";;"Windows 7";"Rachel's Experiment (D.T.)";"1.0";"2";"1";"1";"2";"1";"1";"2014-10-13 13:12:19.675";"2014-10-13 13:24:21.786";"1";"1";"1";"39";"38";"module.training_block1.exec-5372.GoNoGo1";;;;;;;;;;;;;;;;;;;;;;;"1244";"2014-10-13 13:15:11.006";"ST_correctStop";"1";"0";"FINISHED";"NONE";"success";"0";"1";"2014-10-13 13:15:09.756";"1";;;;;;;;;;;;;;;;;;;;;;;;;;;;;;;;;;;;;;;;;;;;;;;;;;;;;;;;;
"7674asdf";"1995";;"Windows 7";"Rachel's Experiment (D.T.)";"1.0";"2";"1";"1";"2";"1";"1";"2014-10-13 13:12:19.675";"2014-10-13 13:24:21.786";"1";"1";"1";"40";"39";"module.training_block1.exec-5372.GoNoGo1";;;;;;;;;;;;;;;;;;;;;;;"1244";"2014-10-13 13:15:13.526";"ST_correctStop";"2";"1";"FINISHED";"NONE";"success";"0";"1";"2014-10-13 13:15:12.276";"1";;;;;;;;;;;;;;;;;;;;;;;;;;;;;;;;;;;;;;;;;;;;;;;;;;;;;;;;;
"7674asdf";"1995";;"Windows 7";"Rachel's Experiment (D.T.)";"1.0";"2";"1";"1";"2";"1";"1";"2014-10-13 13:12:19.675";"2014-10-13 13:24:21.786";"1";"1";"1";"41";"40";"module.training_block1.exec-5372.GoNoGo1";;;;;;;;;;;;;;;;;;;;;;;"1244";"2014-10-13 13:15:16.046";"NST_correctLoc";"25";"1";"FINISHED";"RIGHT";"success";"434";"0";"2014-10-13 13:15:14.796";"3";;;;;;;;;;;;;;;;;;;;;;;;;;;;;;;;;;;;;;;;;;;;;;;;;;;;;;;;;
"7674asdf";"1995";;"Windows 7";"Rachel's Experiment (D.T.)";"1.0";"2";"1";"1";"2";"1";"1";"2014-10-13 13:12:19.675";"2014-10-13 13:24:21.786";"1";"1";"1";"42";"41";"module.training_block1.exec-5372.GoNoGo1";;;;;;;;;;;;;;;;;;;;;;;"1248";"2014-10-13 13:15:18.566";"ST_correctStop";"27";"0";"FINISHED";"NONE";"success";"0";"1";"2014-10-13 13:15:17.316";"3";;;;;;;;;;;;;;;;;;;;;;;;;;;;;;;;;;;;;;;;;;;;;;;;;;;;;;;;;
"7674asdf";"1995";;"Windows 7";"Rachel's Experiment (D.T.)";"1.0";"2";"1";"1";"2";"1";"1";"2014-10-13 13:12:19.675";"2014-10-13 13:24:21.786";"1";"1";"1";"43";"42";"module.training_block1.exec-5372.GoNoGo1";;;;;;;;;;;;;;;;;;;;;;;"1244";"2014-10-13 13:15:21.086";"NST_correctLoc";"20";"1";"FINISHED";"RIGHT";"success";"513";"0";"2014-10-13 13:15:19.836";"3";;;;;;;;;;;;;;;;;;;;;;;;;;;;;;;;;;;;;;;;;;;;;;;;;;;;;;;;;
"7674asdf";"1995";;"Windows 7";"Rachel's Experiment (D.T.)";"1.0";"2";"1";"1";"2";"1";"1";"2014-10-13 13:12:19.675";"2014-10-13 13:24:21.786";"1";"1";"1";"44";"43";"module.training_block1.exec-5372.GoNoGo1";;;;;;;;;;;;;;;;;;;;;;;"1244";"2014-10-13 13:15:23.606";"NST_correctLoc";"9";"1";"FINISHED";"RIGHT";"success";"674";"0";"2014-10-13 13:15:22.356";"2";;;;;;;;;;;;;;;;;;;;;;;;;;;;;;;;;;;;;;;;;;;;;;;;;;;;;;;;;
"7674asdf";"1995";;"Windows 7";"Rachel's Experiment (D.T.)";"1.0";"2";"1";"1";"2";"1";"1";"2014-10-13 13:12:19.675";"2014-10-13 13:24:21.786";"1";"1";"1";"45";"44";"module.training_block1.exec-5372.GoNoGo1";;;;;;;;;;;;;;;;;;;;;;;"1244";"2014-10-13 13:15:26.126";"NST_correctLoc";"12";"1";"FINISHED";"RIGHT";"success";"474";"0";"2014-10-13 13:15:24.876";"2";;;;;;;;;;;;;;;;;;;;;;;;;;;;;;;;;;;;;;;;;;;;;;;;;;;;;;;;;
"7674asdf";"1995";;"Windows 7";"Rachel's Experiment (D.T.)";"1.0";"2";"1";"1";"2";"1";"1";"2014-10-13 13:12:19.675";"2014-10-13 13:24:21.786";"1";"1";"1";"46";"45";"module.training_block1.exec-5372.GoNoGo1";;;;;;;;;;;;;;;;;;;;;;;"1244";"2014-10-13 13:15:28.646";"NST_correctLoc";"22";"0";"FINISHED";"LEFT";"success";"490";"0";"2014-10-13 13:15:27.396";"3";;;;;;;;;;;;;;;;;;;;;;;;;;;;;;;;;;;;;;;;;;;;;;;;;;;;;;;;;
"7674asdf";"1995";;"Windows 7";"Rachel's Experiment (D.T.)";"1.0";"2";"1";"1";"2";"1";"1";"2014-10-13 13:12:19.675";"2014-10-13 13:24:21.786";"1";"1";"1";"47";"46";"module.training_block1.exec-5372.GoNoGo1";;;;;;;;;;;;;;;;;;;;;;;"1244";"2014-10-13 13:15:31.166";"ST_correctStop";"0";"0";"FINISHED";"NONE";"success";"0";"1";"2014-10-13 13:15:29.916";"1";;;;;;;;;;;;;;;;;;;;;;;;;;;;;;;;;;;;;;;;;;;;;;;;;;;;;;;;;
"7674asdf";"1995";;"Windows 7";"Rachel's Experiment (D.T.)";"1.0";"2";"1";"1";"2";"1";"1";"2014-10-13 13:12:19.675";"2014-10-13 13:24:21.786";"1";"1";"1";"48";"47";"module.training_block1.exec-5372.GoNoGo1";;;;;;;;;;;;;;;;;;;;;;;"1243";"2014-10-13 13:15:33.686";"ST_correctStop";"32";"1";"FINISHED";"NONE";"success";"0";"1";"2014-10-13 13:15:32.436";"3";;;;;;;;;;;;;;;;;;;;;;;;;;;;;;;;;;;;;;;;;;;;;;;;;;;;;;;;;
"7674asdf";"1995";;"Windows 7";"Rachel's Experiment (D.T.)";"1.0";"2";"1";"1";"2";"1";"1";"2014-10-13 13:12:19.675";"2014-10-13 13:24:21.786";"1";"1";"1";"49";"48";"module.training_block1.exec-5372.GoNoGo1";;;;;;;;;;;;;;;;;;;;;;;"1248";"2014-10-13 13:15:36.206";"ST_correctStop";"6";"0";"FINISHED";"NONE";"success";"0";"1";"2014-10-13 13:15:34.956";"1";;;;;;;;;;;;;;;;;;;;;;;;;;;;;;;;;;;;;;;;;;;;;;;;;;;;;;;;;
"7674asdf";"1995";;"Windows 7";"Rachel's Experiment (D.T.)";"1.0";"2";"1";"1";"2";"1";"1";"2014-10-13 13:12:19.675";"2014-10-13 13:24:21.786";"1";"1";"1";"50";"49";"module.training_block1.exec-5372.GoNoGo1";;;;;;;;;;;;;;;;;;;;;;;"1242";"2014-10-13 13:15:38.726";"ST_correctStop";"21";"1";"FINISHED";"NONE";"success";"0";"1";"2014-10-13 13:15:37.476";"3";;;;;;;;;;;;;;;;;;;;;;;;;;;;;;;;;;;;;;;;;;;;;;;;;;;;;;;;;
"7674asdf";"1995";;"Windows 7";"Rachel's Experiment (D.T.)";"1.0";"2";"1";"1";"2";"1";"1";"2014-10-13 13:12:19.675";"2014-10-13 13:24:21.786";"1";"1";"1";"51";"50";"module.training_block1.exec-5372.GoNoGo1";;;;;;;;;;;;;;;;;;;;;;;"1248";"2014-10-13 13:15:41.246";"ST_correctStop";"23";"0";"FINISHED";"NONE";"success";"0";"1";"2014-10-13 13:15:39.996";"3";;;;;;;;;;;;;;;;;;;;;;;;;;;;;;;;;;;;;;;;;;;;;;;;;;;;;;;;;
"7674asdf";"1995";;"Windows 7";"Rachel's Experiment (D.T.)";"1.0";"2";"1";"1";"2";"1";"1";"2014-10-13 13:12:19.675";"2014-10-13 13:24:21.786";"1";"1";"1";"52";"51";"module.training_block2.exec-1799.GoNoGo2";;;;;;;;;;;;;;;;;;;;;;;;;;;;;;;;;;;"1247";"2014-10-13 13:15:53.636";"NST_correctLoc";"32";"1";"FINISHED";"RIGHT";"success";"511";"0";"2014-10-13 13:15:52.386";"3";;;;;;;;;;;;;;;;;;;;;;;;;;;;;;;;;;;;;;;;;;;;;
"7674asdf";"1995";;"Windows 7";"Rachel's Experiment (D.T.)";"1.0";"2";"1";"1";"2";"1";"1";"2014-10-13 13:12:19.675";"2014-10-13 13:24:21.786";"1";"1";"1";"53";"52";"module.training_block2.exec-1799.GoNoGo2";;;;;;;;;;;;;;;;;;;;;;;;;;;;;;;;;;;"1248";"2014-10-13 13:15:56.156";"NST_correctLoc";"16";"1";"FINISHED";"RIGHT";"success";"535";"0";"2014-10-13 13:15:54.906";"2";;;;;;;;;;;;;;;;;;;;;;;;;;;;;;;;;;;;;;;;;;;;;
"7674asdf";"1995";;"Windows 7";"Rachel's Experiment (D.T.)";"1.0";"2";"1";"1";"2";"1";"1";"2014-10-13 13:12:19.675";"2014-10-13 13:24:21.786";"1";"1";"1";"54";"53";"module.training_block2.exec-1799.GoNoGo2";;;;;;;;;;;;;;;;;;;;;;;;;;;;;;;;;;;"1248";"2014-10-13 13:15:58.676";"NST_correctLoc";"11";"1";"FINISHED";"RIGHT";"success";"463";"0";"2014-10-13 13:15:57.426";"2";;;;;;;;;;;;;;;;;;;;;;;;;;;;;;;;;;;;;;;;;;;;;
"7674asdf";"1995";;"Windows 7";"Rachel's Experiment (D.T.)";"1.0";"2";"1";"1";"2";"1";"1";"2014-10-13 13:12:19.675";"2014-10-13 13:24:21.786";"1";"1";"1";"55";"54";"module.training_block2.exec-1799.GoNoGo2";;;;;;;;;;;;;;;;;;;;;;;;;;;;;;;;;;;"1248";"2014-10-13 13:16:01.196";"NST_correctLoc";"13";"1";"FINISHED";"RIGHT";"success";"367";"0";"2014-10-13 13:15:59.946";"2";;;;;;;;;;;;;;;;;;;;;;;;;;;;;;;;;;;;;;;;;;;;;
"7674asdf";"1995";;"Windows 7";"Rachel's Experiment (D.T.)";"1.0";"2";"1";"1";"2";"1";"1";"2014-10-13 13:12:19.675";"2014-10-13 13:24:21.786";"1";"1";"1";"56";"55";"module.training_block2.exec-1799.GoNoGo2";;;;;;;;;;;;;;;;;;;;;;;;;;;;;;;;;;;"1248";"2014-10-13 13:16:03.716";"ST_correctStop";"28";"1";"FINISHED";"NONE";"success";"0";"1";"2014-10-13 13:16:02.466";"3";;;;;;;;;;;;;;;;;;;;;;;;;;;;;;;;;;;;;;;;;;;;;
"7674asdf";"1995";;"Windows 7";"Rachel's Experiment (D.T.)";"1.0";"2";"1";"1";"2";"1";"1";"2014-10-13 13:12:19.675";"2014-10-13 13:24:21.786";"1";"1";"1";"57";"56";"module.training_block2.exec-1799.GoNoGo2";;;;;;;;;;;;;;;;;;;;;;;;;;;;;;;;;;;"1248";"2014-10-13 13:16:06.236";"ST_correctStop";"8";"1";"FINISHED";"NONE";"success";"0";"1";"2014-10-13 13:16:04.986";"1";;;;;;;;;;;;;;;;;;;;;;;;;;;;;;;;;;;;;;;;;;;;;
"7674asdf";"1995";;"Windows 7";"Rachel's Experiment (D.T.)";"1.0";"2";"1";"1";"2";"1";"1";"2014-10-13 13:12:19.675";"2014-10-13 13:24:21.786";"1";"1";"1";"58";"57";"module.training_block2.exec-1799.GoNoGo2";;;;;;;;;;;;;;;;;;;;;;;;;;;;;;;;;;;"1248";"2014-10-13 13:16:08.756";"ST_correctStop";"6";"1";"FINISHED";"NONE";"success";"0";"1";"2014-10-13 13:16:07.506";"1";;;;;;;;;;;;;;;;;;;;;;;;;;;;;;;;;;;;;;;;;;;;;
"7674asdf";"1995";;"Windows 7";"Rachel's Experiment (D.T.)";"1.0";"2";"1";"1";"2";"1";"1";"2014-10-13 13:12:19.675";"2014-10-13 13:24:21.786";"1";"1";"1";"59";"58";"module.training_block2.exec-1799.GoNoGo2";;;;;;;;;;;;;;;;;;;;;;;;;;;;;;;;;;;"1248";"2014-10-13 13:16:11.276";"NST_correctLoc";"10";"0";"FINISHED";"LEFT";"success";"407";"0";"2014-10-13 13:16:10.026";"2";;;;;;;;;;;;;;;;;;;;;;;;;;;;;;;;;;;;;;;;;;;;;
"7674asdf";"1995";;"Windows 7";"Rachel's Experiment (D.T.)";"1.0";"2";"1";"1";"2";"1";"1";"2014-10-13 13:12:19.675";"2014-10-13 13:24:21.786";"1";"1";"1";"60";"59";"module.training_block2.exec-1799.GoNoGo2";;;;;;;;;;;;;;;;;;;;;;;;;;;;;;;;;;;"1248";"2014-10-13 13:16:13.796";"ST_correctStop";"31";"0";"FINISHED";"NONE";"success";"0";"1";"2014-10-13 13:16:12.546";"3";;;;;;;;;;;;;;;;;;;;;;;;;;;;;;;;;;;;;;;;;;;;;
"7674asdf";"1995";;"Windows 7";"Rachel's Experiment (D.T.)";"1.0";"2";"1";"1";"2";"1";"1";"2014-10-13 13:12:19.675";"2014-10-13 13:24:21.786";"1";"1";"1";"61";"60";"module.training_block2.exec-1799.GoNoGo2";;;;;;;;;;;;;;;;;;;;;;;;;;;;;;;;;;;"1248";"2014-10-13 13:16:16.316";"ST_correctStop";"22";"0";"FINISHED";"NONE";"success";"0";"1";"2014-10-13 13:16:15.066";"3";;;;;;;;;;;;;;;;;;;;;;;;;;;;;;;;;;;;;;;;;;;;;
"7674asdf";"1995";;"Windows 7";"Rachel's Experiment (D.T.)";"1.0";"2";"1";"1";"2";"1";"1";"2014-10-13 13:12:19.675";"2014-10-13 13:24:21.786";"1";"1";"1";"62";"61";"module.training_block2.exec-1799.GoNoGo2";;;;;;;;;;;;;;;;;;;;;;;;;;;;;;;;;;;"1248";"2014-10-13 13:16:18.836";"NST_correctLoc";"33";"1";"FINISHED";"RIGHT";"success";"551";"0";"2014-10-13 13:16:17.586";"3";;;;;;;;;;;;;;;;;;;;;;;;;;;;;;;;;;;;;;;;;;;;;
"7674asdf";"1995";;"Windows 7";"Rachel's Experiment (D.T.)";"1.0";"2";"1";"1";"2";"1";"1";"2014-10-13 13:12:19.675";"2014-10-13 13:24:21.786";"1";"1";"1";"63";"62";"module.training_block2.exec-1799.GoNoGo2";;;;;;;;;;;;;;;;;;;;;;;;;;;;;;;;;;;"1248";"2014-10-13 13:16:21.356";"ST_correctStop";"1";"0";"FINISHED";"NONE";"success";"0";"1";"2014-10-13 13:16:20.106";"1";;;;;;;;;;;;;;;;;;;;;;;;;;;;;;;;;;;;;;;;;;;;;
"7674asdf";"1995";;"Windows 7";"Rachel's Experiment (D.T.)";"1.0";"2";"1";"1";"2";"1";"1";"2014-10-13 13:12:19.675";"2014-10-13 13:24:21.786";"1";"1";"1";"64";"63";"module.training_block2.exec-1799.GoNoGo2";;;;;;;;;;;;;;;;;;;;;;;;;;;;;;;;;;;"1248";"2014-10-13 13:16:23.876";"NST_correctLoc";"14";"0";"FINISHED";"LEFT";"success";"535";"0";"2014-10-13 13:16:22.626";"2";;;;;;;;;;;;;;;;;;;;;;;;;;;;;;;;;;;;;;;;;;;;;
"7674asdf";"1995";;"Windows 7";"Rachel's Experiment (D.T.)";"1.0";"2";"1";"1";"2";"1";"1";"2014-10-13 13:12:19.675";"2014-10-13 13:24:21.786";"1";"1";"1";"65";"64";"module.training_block2.exec-1799.GoNoGo2";;;;;;;;;;;;;;;;;;;;;;;;;;;;;;;;;;;"1248";"2014-10-13 13:16:26.396";"ST_correctStop";"2";"0";"FINISHED";"NONE";"success";"0";"1";"2014-10-13 13:16:25.146";"1";;;;;;;;;;;;;;;;;;;;;;;;;;;;;;;;;;;;;;;;;;;;;
"7674asdf";"1995";;"Windows 7";"Rachel's Experiment (D.T.)";"1.0";"2";"1";"1";"2";"1";"1";"2014-10-13 13:12:19.675";"2014-10-13 13:24:21.786";"1";"1";"1";"66";"65";"module.training_block2.exec-1799.GoNoGo2";;;;;;;;;;;;;;;;;;;;;;;;;;;;;;;;;;;"1248";"2014-10-13 13:16:28.906";"NST_correctLoc";"15";"0";"FINISHED";"LEFT";"success";"689";"0";"2014-10-13 13:16:27.656";"2";;;;;;;;;;;;;;;;;;;;;;;;;;;;;;;;;;;;;;;;;;;;;
"7674asdf";"1995";;"Windows 7";"Rachel's Experiment (D.T.)";"1.0";"2";"1";"1";"2";"1";"1";"2014-10-13 13:12:19.675";"2014-10-13 13:24:21.786";"1";"1";"1";"67";"66";"module.training_block2.exec-1799.GoNoGo2";;;;;;;;;;;;;;;;;;;;;;;;;;;;;;;;;;;"1248";"2014-10-13 13:16:31.416";"NST_correctLoc";"30";"1";"FINISHED";"RIGHT";"success";"595";"0";"2014-10-13 13:16:30.166";"3";;;;;;;;;;;;;;;;;;;;;;;;;;;;;;;;;;;;;;;;;;;;;
"7674asdf";"1995";;"Windows 7";"Rachel's Experiment (D.T.)";"1.0";"2";"1";"1";"2";"1";"1";"2014-10-13 13:12:19.675";"2014-10-13 13:24:21.786";"1";"1";"1";"68";"67";"module.training_block2.exec-1799.GoNoGo2";;;;;;;;;;;;;;;;;;;;;;;;;;;;;;;;;;;"1248";"2014-10-13 13:16:33.926";"ST_correctStop";"19";"0";"FINISHED";"NONE";"success";"0";"1";"2014-10-13 13:16:32.676";"3";;;;;;;;;;;;;;;;;;;;;;;;;;;;;;;;;;;;;;;;;;;;;
"7674asdf";"1995";;"Windows 7";"Rachel's Experiment (D.T.)";"1.0";"2";"1";"1";"2";"1";"1";"2014-10-13 13:12:19.675";"2014-10-13 13:24:21.786";"1";"1";"1";"69";"68";"module.training_block2.exec-1799.GoNoGo2";;;;;;;;;;;;;;;;;;;;;;;;;;;;;;;;;;;"1248";"2014-10-13 13:16:36.436";"ST_correctStop";"24";"1";"FINISHED";"NONE";"success";"0";"1";"2014-10-13 13:16:35.186";"3";;;;;;;;;;;;;;;;;;;;;;;;;;;;;;;;;;;;;;;;;;;;;
"7674asdf";"1995";;"Windows 7";"Rachel's Experiment (D.T.)";"1.0";"2";"1";"1";"2";"1";"1";"2014-10-13 13:12:19.675";"2014-10-13 13:24:21.786";"1";"1";"1";"70";"69";"module.training_block2.exec-1799.GoNoGo2";;;;;;;;;;;;;;;;;;;;;;;;;;;;;;;;;;;"1248";"2014-10-13 13:16:38.946";"ST_correctStop";"23";"1";"FINISHED";"NONE";"success";"0";"1";"2014-10-13 13:16:37.696";"3";;;;;;;;;;;;;;;;;;;;;;;;;;;;;;;;;;;;;;;;;;;;;
"7674asdf";"1995";;"Windows 7";"Rachel's Experiment (D.T.)";"1.0";"2";"1";"1";"2";"1";"1";"2014-10-13 13:12:19.675";"2014-10-13 13:24:21.786";"1";"1";"1";"71";"70";"module.training_block2.exec-1799.GoNoGo2";;;;;;;;;;;;;;;;;;;;;;;;;;;;;;;;;;;"1248";"2014-10-13 13:16:41.466";"ST_correctStop";"4";"1";"FINISHED";"NONE";"success";"0";"1";"2014-10-13 13:16:40.216";"1";;;;;;;;;;;;;;;;;;;;;;;;;;;;;;;;;;;;;;;;;;;;;
"7674asdf";"1995";;"Windows 7";"Rachel's Experiment (D.T.)";"1.0";"2";"1";"1";"2";"1";"1";"2014-10-13 13:12:19.675";"2014-10-13 13:24:21.786";"1";"1";"1";"72";"71";"module.training_block2.exec-1799.GoNoGo2";;;;;;;;;;;;;;;;;;;;;;;;;;;;;;;;;;;"1248";"2014-10-13 13:16:43.976";"ST_correctStop";"20";"0";"FINISHED";"NONE";"success";"0";"1";"2014-10-13 13:16:42.726";"3";;;;;;;;;;;;;;;;;;;;;;;;;;;;;;;;;;;;;;;;;;;;;
"7674asdf";"1995";;"Windows 7";"Rachel's Experiment (D.T.)";"1.0";"2";"1";"1";"2";"1";"1";"2014-10-13 13:12:19.675";"2014-10-13 13:24:21.786";"1";"1";"1";"73";"72";"module.training_block2.exec-1799.GoNoGo2";;;;;;;;;;;;;;;;;;;;;;;;;;;;;;;;;;;"1248";"2014-10-13 13:16:46.486";"NST_correctLoc";"9";"0";"FINISHED";"LEFT";"success";"485";"0";"2014-10-13 13:16:45.236";"2";;;;;;;;;;;;;;;;;;;;;;;;;;;;;;;;;;;;;;;;;;;;;
"7674asdf";"1995";;"Windows 7";"Rachel's Experiment (D.T.)";"1.0";"2";"1";"1";"2";"1";"1";"2014-10-13 13:12:19.675";"2014-10-13 13:24:21.786";"1";"1";"1";"74";"73";"module.training_block2.exec-1799.GoNoGo2";;;;;;;;;;;;;;;;;;;;;;;;;;;;;;;;;;;"1248";"2014-10-13 13:16:48.996";"ST_correctStop";"27";"0";"FINISHED";"NONE";"success";"0";"1";"2014-10-13 13:16:47.746";"3";;;;;;;;;;;;;;;;;;;;;;;;;;;;;;;;;;;;;;;;;;;;;
"7674asdf";"1995";;"Windows 7";"Rachel's Experiment (D.T.)";"1.0";"2";"1";"1";"2";"1";"1";"2014-10-13 13:12:19.675";"2014-10-13 13:24:21.786";"1";"1";"1";"75";"74";"module.training_block2.exec-1799.GoNoGo2";;;;;;;;;;;;;;;;;;;;;;;;;;;;;;;;;;;"1248";"2014-10-13 13:16:51.506";"ST_correctStop";"7";"1";"FINISHED";"NONE";"success";"0";"1";"2014-10-13 13:16:50.256";"1";;;;;;;;;;;;;;;;;;;;;;;;;;;;;;;;;;;;;;;;;;;;;
"7674asdf";"1995";;"Windows 7";"Rachel's Experiment (D.T.)";"1.0";"2";"1";"1";"2";"1";"1";"2014-10-13 13:12:19.675";"2014-10-13 13:24:21.786";"1";"1";"1";"76";"75";"module.training_block2.exec-1799.GoNoGo2";;;;;;;;;;;;;;;;;;;;;;;;;;;;;;;;;;;"1248";"2014-10-13 13:16:54.016";"NST_correctLoc";"21";"1";"FINISHED";"RIGHT";"success";"515";"0";"2014-10-13 13:16:52.766";"3";;;;;;;;;;;;;;;;;;;;;;;;;;;;;;;;;;;;;;;;;;;;;
"7674asdf";"1995";;"Windows 7";"Rachel's Experiment (D.T.)";"1.0";"2";"1";"1";"2";"1";"1";"2014-10-13 13:12:19.675";"2014-10-13 13:24:21.786";"1";"1";"1";"77";"76";"module.training_block2.exec-1799.GoNoGo2";;;;;;;;;;;;;;;;;;;;;;;;;;;;;;;;;;;"1248";"2014-10-13 13:16:56.526";"NST_correctLoc";"34";"0";"FINISHED";"LEFT";"success";"461";"0";"2014-10-13 13:16:55.276";"3";;;;;;;;;;;;;;;;;;;;;;;;;;;;;;;;;;;;;;;;;;;;;
"7674asdf";"1995";;"Windows 7";"Rachel's Experiment (D.T.)";"1.0";"2";"1";"1";"2";"1";"1";"2014-10-13 13:12:19.675";"2014-10-13 13:24:21.786";"1";"1";"1";"78";"77";"module.training_block2.exec-1799.GoNoGo2";;;;;;;;;;;;;;;;;;;;;;;;;;;;;;;;;;;"1248";"2014-10-13 13:16:59.036";"NST_correctLoc";"26";"0";"FINISHED";"LEFT";"success";"423";"0";"2014-10-13 13:16:57.786";"3";;;;;;;;;;;;;;;;;;;;;;;;;;;;;;;;;;;;;;;;;;;;;
"7674asdf";"1995";;"Windows 7";"Rachel's Experiment (D.T.)";"1.0";"2";"1";"1";"2";"1";"1";"2014-10-13 13:12:19.675";"2014-10-13 13:24:21.786";"1";"1";"1";"79";"78";"module.training_block2.exec-1799.GoNoGo2";;;;;;;;;;;;;;;;;;;;;;;;;;;;;;;;;;;"1248";"2014-10-13 13:17:01.546";"NST_correctLoc";"25";"1";"FINISHED";"RIGHT";"success";"401";"0";"2014-10-13 13:17:00.296";"3";;;;;;;;;;;;;;;;;;;;;;;;;;;;;;;;;;;;;;;;;;;;;
"7674asdf";"1995";;"Windows 7";"Rachel's Experiment (D.T.)";"1.0";"2";"1";"1";"2";"1";"1";"2014-10-13 13:12:19.675";"2014-10-13 13:24:21.786";"1";"1";"1";"80";"79";"module.training_block2.exec-1799.GoNoGo2";;;;;;;;;;;;;;;;;;;;;;;;;;;;;;;;;;;"1248";"2014-10-13 13:17:04.056";"ST_correctStop";"18";"1";"FINISHED";"NONE";"success";"0";"1";"2014-10-13 13:17:02.806";"3";;;;;;;;;;;;;;;;;;;;;;;;;;;;;;;;;;;;;;;;;;;;;
"7674asdf";"1995";;"Windows 7";"Rachel's Experiment (D.T.)";"1.0";"2";"1";"1";"2";"1";"1";"2014-10-13 13:12:19.675";"2014-10-13 13:24:21.786";"1";"1";"1";"81";"80";"module.training_block2.exec-1799.GoNoGo2";;;;;;;;;;;;;;;;;;;;;;;;;;;;;;;;;;;"1248";"2014-10-13 13:17:06.566";"ST_correctStop";"0";"1";"FINISHED";"NONE";"success";"0";"1";"2014-10-13 13:17:05.316";"1";;;;;;;;;;;;;;;;;;;;;;;;;;;;;;;;;;;;;;;;;;;;;
"7674asdf";"1995";;"Windows 7";"Rachel's Experiment (D.T.)";"1.0";"2";"1";"1";"2";"1";"1";"2014-10-13 13:12:19.675";"2014-10-13 13:24:21.786";"1";"1";"1";"82";"81";"module.training_block2.exec-1799.GoNoGo2";;;;;;;;;;;;;;;;;;;;;;;;;;;;;;;;;;;"1248";"2014-10-13 13:17:09.076";"ST_correctStop";"5";"1";"FINISHED";"NONE";"success";"0";"1";"2014-10-13 13:17:07.826";"1";;;;;;;;;;;;;;;;;;;;;;;;;;;;;;;;;;;;;;;;;;;;;
"7674asdf";"1995";;"Windows 7";"Rachel's Experiment (D.T.)";"1.0";"2";"1";"1";"2";"1";"1";"2014-10-13 13:12:19.675";"2014-10-13 13:24:21.786";"1";"1";"1";"83";"82";"module.training_block2.exec-1799.GoNoGo2";;;;;;;;;;;;;;;;;;;;;;;;;;;;;;;;;;;"1248";"2014-10-13 13:17:11.586";"NST_correctLoc";"29";"0";"FINISHED";"LEFT";"success";"377";"0";"2014-10-13 13:17:10.336";"3";;;;;;;;;;;;;;;;;;;;;;;;;;;;;;;;;;;;;;;;;;;;;
"7674asdf";"1995";;"Windows 7";"Rachel's Experiment (D.T.)";"1.0";"2";"1";"1";"2";"1";"1";"2014-10-13 13:12:19.675";"2014-10-13 13:24:21.786";"1";"1";"1";"84";"83";"module.training_block2.exec-1799.GoNoGo2";;;;;;;;;;;;;;;;;;;;;;;;;;;;;;;;;;;"1248";"2014-10-13 13:17:14.096";"NST_correctLoc";"12";"0";"FINISHED";"LEFT";"success";"435";"0";"2014-10-13 13:17:12.846";"2";;;;;;;;;;;;;;;;;;;;;;;;;;;;;;;;;;;;;;;;;;;;;
"7674asdf";"1995";;"Windows 7";"Rachel's Experiment (D.T.)";"1.0";"2";"1";"1";"2";"1";"1";"2014-10-13 13:12:19.675";"2014-10-13 13:24:21.786";"1";"1";"1";"85";"84";"module.training_block2.exec-1799.GoNoGo2";;;;;;;;;;;;;;;;;;;;;;;;;;;;;;;;;;;"1248";"2014-10-13 13:17:16.606";"NST_correctLoc";"35";"1";"FINISHED";"RIGHT";"success";"397";"0";"2014-10-13 13:17:15.356";"3";;;;;;;;;;;;;;;;;;;;;;;;;;;;;;;;;;;;;;;;;;;;;
"7674asdf";"1995";;"Windows 7";"Rachel's Experiment (D.T.)";"1.0";"2";"1";"1";"2";"1";"1";"2014-10-13 13:12:19.675";"2014-10-13 13:24:21.786";"1";"1";"1";"86";"85";"module.training_block2.exec-1799.GoNoGo2";;;;;;;;;;;;;;;;;;;;;;;;;;;;;;;;;;;"1248";"2014-10-13 13:17:19.116";"ST_correctStop";"3";"0";"FINISHED";"NONE";"success";"0";"1";"2014-10-13 13:17:17.866";"1";;;;;;;;;;;;;;;;;;;;;;;;;;;;;;;;;;;;;;;;;;;;;
"7674asdf";"1995";;"Windows 7";"Rachel's Experiment (D.T.)";"1.0";"2";"1";"1";"2";"1";"1";"2014-10-13 13:12:19.675";"2014-10-13 13:24:21.786";"1";"1";"1";"87";"86";"module.training_block2.exec-1799.GoNoGo2";;;;;;;;;;;;;;;;;;;;;;;;;;;;;;;;;;;"1248";"2014-10-13 13:17:21.626";"NST_correctLoc";"17";"0";"FINISHED";"LEFT";"success";"425";"0";"2014-10-13 13:17:20.376";"2";;;;;;;;;;;;;;;;;;;;;;;;;;;;;;;;;;;;;;;;;;;;;
"7674asdf";"1995";;"Windows 7";"Rachel's Experiment (D.T.)";"1.0";"2";"1";"1";"2";"1";"1";"2014-10-13 13:12:19.675";"2014-10-13 13:24:21.786";"1";"1";"1";"88";"87";"module.training_block3.exec-2779.GoNoGo3";;;;;;;;;;;;;;;;;;;;;;;;;;;;;;;;;;;;;;;;;;;;;;;"1248";"2014-10-13 13:17:32.386";"NST_correctLoc";"19";"0";"FINISHED";"LEFT";"success";"392";"0";"2014-10-13 13:17:31.136";"3";;;;;;;;;;;;;;;;;;;;;;;;;;;;;;;;;
"7674asdf";"1995";;"Windows 7";"Rachel's Experiment (D.T.)";"1.0";"2";"1";"1";"2";"1";"1";"2014-10-13 13:12:19.675";"2014-10-13 13:24:21.786";"1";"1";"1";"89";"88";"module.training_block3.exec-2779.GoNoGo3";;;;;;;;;;;;;;;;;;;;;;;;;;;;;;;;;;;;;;;;;;;;;;;"1248";"2014-10-13 13:17:34.896";"ST_correctStop";"29";"0";"FINISHED";"NONE";"success";"0";"1";"2014-10-13 13:17:33.646";"3";;;;;;;;;;;;;;;;;;;;;;;;;;;;;;;;;
"7674asdf";"1995";;"Windows 7";"Rachel's Experiment (D.T.)";"1.0";"2";"1";"1";"2";"1";"1";"2014-10-13 13:12:19.675";"2014-10-13 13:24:21.786";"1";"1";"1";"90";"89";"module.training_block3.exec-2779.GoNoGo3";;;;;;;;;;;;;;;;;;;;;;;;;;;;;;;;;;;;;;;;;;;;;;;"1248";"2014-10-13 13:17:37.406";"ST_failedStop";"0";"0";"FINISHED";"LEFT";"failure";"381";"1";"2014-10-13 13:17:36.156";"1";;;;;;;;;;;;;;;;;;;;;;;;;;;;;;;;;
"7674asdf";"1995";;"Windows 7";"Rachel's Experiment (D.T.)";"1.0";"2";"1";"1";"2";"1";"1";"2014-10-13 13:12:19.675";"2014-10-13 13:24:21.786";"1";"1";"1";"91";"90";"module.training_block3.exec-2779.GoNoGo3";;;;;;;;;;;;;;;;;;;;;;;;;;;;;;;;;;;;;;;;;;;;;;;"1248";"2014-10-13 13:17:39.916";"ST_correctStop";"4";"0";"FINISHED";"NONE";"success";"0";"1";"2014-10-13 13:17:38.666";"1";;;;;;;;;;;;;;;;;;;;;;;;;;;;;;;;;
"7674asdf";"1995";;"Windows 7";"Rachel's Experiment (D.T.)";"1.0";"2";"1";"1";"2";"1";"1";"2014-10-13 13:12:19.675";"2014-10-13 13:24:21.786";"1";"1";"1";"92";"91";"module.training_block3.exec-2779.GoNoGo3";;;;;;;;;;;;;;;;;;;;;;;;;;;;;;;;;;;;;;;;;;;;;;;"1248";"2014-10-13 13:17:42.426";"ST_correctStop";"27";"1";"FINISHED";"NONE";"success";"0";"1";"2014-10-13 13:17:41.176";"3";;;;;;;;;;;;;;;;;;;;;;;;;;;;;;;;;
"7674asdf";"1995";;"Windows 7";"Rachel's Experiment (D.T.)";"1.0";"2";"1";"1";"2";"1";"1";"2014-10-13 13:12:19.675";"2014-10-13 13:24:21.786";"1";"1";"1";"93";"92";"module.training_block3.exec-2779.GoNoGo3";;;;;;;;;;;;;;;;;;;;;;;;;;;;;;;;;;;;;;;;;;;;;;;"1248";"2014-10-13 13:17:44.936";"ST_correctStop";"33";"0";"FINISHED";"NONE";"success";"0";"1";"2014-10-13 13:17:43.686";"3";;;;;;;;;;;;;;;;;;;;;;;;;;;;;;;;;
"7674asdf";"1995";;"Windows 7";"Rachel's Experiment (D.T.)";"1.0";"2";"1";"1";"2";"1";"1";"2014-10-13 13:12:19.675";"2014-10-13 13:24:21.786";"1";"1";"1";"94";"93";"module.training_block3.exec-2779.GoNoGo3";;;;;;;;;;;;;;;;;;;;;;;;;;;;;;;;;;;;;;;;;;;;;;;"1248";"2014-10-13 13:17:47.446";"NST_correctLoc";"9";"0";"FINISHED";"LEFT";"success";"501";"0";"2014-10-13 13:17:46.196";"2";;;;;;;;;;;;;;;;;;;;;;;;;;;;;;;;;
"7674asdf";"1995";;"Windows 7";"Rachel's Experiment (D.T.)";"1.0";"2";"1";"1";"2";"1";"1";"2014-10-13 13:12:19.675";"2014-10-13 13:24:21.786";"1";"1";"1";"95";"94";"module.training_block3.exec-2779.GoNoGo3";;;;;;;;;;;;;;;;;;;;;;;;;;;;;;;;;;;;;;;;;;;;;;;"1248";"2014-10-13 13:17:49.956";"ST_correctStop";"1";"0";"FINISHED";"NONE";"success";"0";"1";"2014-10-13 13:17:48.706";"1";;;;;;;;;;;;;;;;;;;;;;;;;;;;;;;;;
"7674asdf";"1995";;"Windows 7";"Rachel's Experiment (D.T.)";"1.0";"2";"1";"1";"2";"1";"1";"2014-10-13 13:12:19.675";"2014-10-13 13:24:21.786";"1";"1";"1";"96";"95";"module.training_block3.exec-2779.GoNoGo3";;;;;;;;;;;;;;;;;;;;;;;;;;;;;;;;;;;;;;;;;;;;;;;"1248";"2014-10-13 13:17:52.466";"NST_correctLoc";"21";"0";"FINISHED";"LEFT";"success";"521";"0";"2014-10-13 13:17:51.216";"3";;;;;;;;;;;;;;;;;;;;;;;;;;;;;;;;;
"7674asdf";"1995";;"Windows 7";"Rachel's Experiment (D.T.)";"1.0";"2";"1";"1";"2";"1";"1";"2014-10-13 13:12:19.675";"2014-10-13 13:24:21.786";"1";"1";"1";"97";"96";"module.training_block3.exec-2779.GoNoGo3";;;;;;;;;;;;;;;;;;;;;;;;;;;;;;;;;;;;;;;;;;;;;;;"1248";"2014-10-13 13:17:54.976";"ST_correctStop";"35";"1";"FINISHED";"NONE";"success";"0";"1";"2014-10-13 13:17:53.726";"3";;;;;;;;;;;;;;;;;;;;;;;;;;;;;;;;;
"7674asdf";"1995";;"Windows 7";"Rachel's Experiment (D.T.)";"1.0";"2";"1";"1";"2";"1";"1";"2014-10-13 13:12:19.675";"2014-10-13 13:24:21.786";"1";"1";"1";"98";"97";"module.training_block3.exec-2779.GoNoGo3";;;;;;;;;;;;;;;;;;;;;;;;;;;;;;;;;;;;;;;;;;;;;;;"1248";"2014-10-13 13:17:57.486";"NST_correctLoc";"34";"1";"FINISHED";"RIGHT";"success";"476";"0";"2014-10-13 13:17:56.236";"3";;;;;;;;;;;;;;;;;;;;;;;;;;;;;;;;;
"7674asdf";"1995";;"Windows 7";"Rachel's Experiment (D.T.)";"1.0";"2";"1";"1";"2";"1";"1";"2014-10-13 13:12:19.675";"2014-10-13 13:24:21.786";"1";"1";"1";"99";"98";"module.training_block3.exec-2779.GoNoGo3";;;;;;;;;;;;;;;;;;;;;;;;;;;;;;;;;;;;;;;;;;;;;;;"1248";"2014-10-13 13:17:59.996";"ST_correctStop";"8";"1";"FINISHED";"NONE";"success";"0";"1";"2014-10-13 13:17:58.746";"1";;;;;;;;;;;;;;;;;;;;;;;;;;;;;;;;;
"7674asdf";"1995";;"Windows 7";"Rachel's Experiment (D.T.)";"1.0";"2";"1";"1";"2";"1";"1";"2014-10-13 13:12:19.675";"2014-10-13 13:24:21.786";"1";"1";"1";"100";"99";"module.training_block3.exec-2779.GoNoGo3";;;;;;;;;;;;;;;;;;;;;;;;;;;;;;;;;;;;;;;;;;;;;;;"1248";"2014-10-13 13:18:02.516";"ST_correctStop";"18";"0";"FINISHED";"NONE";"success";"0";"1";"2014-10-13 13:18:01.266";"3";;;;;;;;;;;;;;;;;;;;;;;;;;;;;;;;;
"7674asdf";"1995";;"Windows 7";"Rachel's Experiment (D.T.)";"1.0";"2";"1";"1";"2";"1";"1";"2014-10-13 13:12:19.675";"2014-10-13 13:24:21.786";"1";"1";"1";"101";"100";"module.training_block3.exec-2779.GoNoGo3";;;;;;;;;;;;;;;;;;;;;;;;;;;;;;;;;;;;;;;;;;;;;;;"1248";"2014-10-13 13:18:05.026";"NST_correctLoc";"14";"0";"FINISHED";"LEFT";"success";"528";"0";"2014-10-13 13:18:03.776";"2";;;;;;;;;;;;;;;;;;;;;;;;;;;;;;;;;
"7674asdf";"1995";;"Windows 7";"Rachel's Experiment (D.T.)";"1.0";"2";"1";"1";"2";"1";"1";"2014-10-13 13:12:19.675";"2014-10-13 13:24:21.786";"1";"1";"1";"102";"101";"module.training_block3.exec-2779.GoNoGo3";;;;;;;;;;;;;;;;;;;;;;;;;;;;;;;;;;;;;;;;;;;;;;;"1248";"2014-10-13 13:18:07.536";"ST_correctStop";"3";"0";"FINISHED";"NONE";"success";"0";"1";"2014-10-13 13:18:06.286";"1";;;;;;;;;;;;;;;;;;;;;;;;;;;;;;;;;
"7674asdf";"1995";;"Windows 7";"Rachel's Experiment (D.T.)";"1.0";"2";"1";"1";"2";"1";"1";"2014-10-13 13:12:19.675";"2014-10-13 13:24:21.786";"1";"1";"1";"103";"102";"module.training_block3.exec-2779.GoNoGo3";;;;;;;;;;;;;;;;;;;;;;;;;;;;;;;;;;;;;;;;;;;;;;;"1248";"2014-10-13 13:18:10.046";"NST_correctLoc";"31";"1";"FINISHED";"RIGHT";"success";"460";"0";"2014-10-13 13:18:08.796";"3";;;;;;;;;;;;;;;;;;;;;;;;;;;;;;;;;
"7674asdf";"1995";;"Windows 7";"Rachel's Experiment (D.T.)";"1.0";"2";"1";"1";"2";"1";"1";"2014-10-13 13:12:19.675";"2014-10-13 13:24:21.786";"1";"1";"1";"104";"103";"module.training_block3.exec-2779.GoNoGo3";;;;;;;;;;;;;;;;;;;;;;;;;;;;;;;;;;;;;;;;;;;;;;;"1248";"2014-10-13 13:18:12.556";"NST_correctLoc";"12";"0";"FINISHED";"LEFT";"success";"510";"0";"2014-10-13 13:18:11.306";"2";;;;;;;;;;;;;;;;;;;;;;;;;;;;;;;;;
"7674asdf";"1995";;"Windows 7";"Rachel's Experiment (D.T.)";"1.0";"2";"1";"1";"2";"1";"1";"2014-10-13 13:12:19.675";"2014-10-13 13:24:21.786";"1";"1";"1";"105";"104";"module.training_block3.exec-2779.GoNoGo3";;;;;;;;;;;;;;;;;;;;;;;;;;;;;;;;;;;;;;;;;;;;;;;"1248";"2014-10-13 13:18:15.066";"ST_correctStop";"30";"1";"FINISHED";"NONE";"success";"0";"1";"2014-10-13 13:18:13.816";"3";;;;;;;;;;;;;;;;;;;;;;;;;;;;;;;;;
"7674asdf";"1995";;"Windows 7";"Rachel's Experiment (D.T.)";"1.0";"2";"1";"1";"2";"1";"1";"2014-10-13 13:12:19.675";"2014-10-13 13:24:21.786";"1";"1";"1";"106";"105";"module.training_block3.exec-2779.GoNoGo3";;;;;;;;;;;;;;;;;;;;;;;;;;;;;;;;;;;;;;;;;;;;;;;"1248";"2014-10-13 13:18:17.576";"NST_correctLoc";"25";"0";"FINISHED";"LEFT";"success";"482";"0";"2014-10-13 13:18:16.326";"3";;;;;;;;;;;;;;;;;;;;;;;;;;;;;;;;;
"7674asdf";"1995";;"Windows 7";"Rachel's Experiment (D.T.)";"1.0";"2";"1";"1";"2";"1";"1";"2014-10-13 13:12:19.675";"2014-10-13 13:24:21.786";"1";"1";"1";"107";"106";"module.training_block3.exec-2779.GoNoGo3";;;;;;;;;;;;;;;;;;;;;;;;;;;;;;;;;;;;;;;;;;;;;;;"1248";"2014-10-13 13:18:20.086";"NST_correctLoc";"11";"0";"FINISHED";"LEFT";"success";"444";"0";"2014-10-13 13:18:18.836";"2";;;;;;;;;;;;;;;;;;;;;;;;;;;;;;;;;
"7674asdf";"1995";;"Windows 7";"Rachel's Experiment (D.T.)";"1.0";"2";"1";"1";"2";"1";"1";"2014-10-13 13:12:19.675";"2014-10-13 13:24:21.786";"1";"1";"1";"108";"107";"module.training_block3.exec-2779.GoNoGo3";;;;;;;;;;;;;;;;;;;;;;;;;;;;;;;;;;;;;;;;;;;;;;;"1248";"2014-10-13 13:18:22.596";"ST_correctStop";"7";"1";"FINISHED";"NONE";"success";"0";"1";"2014-10-13 13:18:21.346";"1";;;;;;;;;;;;;;;;;;;;;;;;;;;;;;;;;
"7674asdf";"1995";;"Windows 7";"Rachel's Experiment (D.T.)";"1.0";"2";"1";"1";"2";"1";"1";"2014-10-13 13:12:19.675";"2014-10-13 13:24:21.786";"1";"1";"1";"109";"108";"module.training_block3.exec-2779.GoNoGo3";;;;;;;;;;;;;;;;;;;;;;;;;;;;;;;;;;;;;;;;;;;;;;;"1248";"2014-10-13 13:18:25.106";"NST_correctLoc";"17";"1";"FINISHED";"RIGHT";"success";"464";"0";"2014-10-13 13:18:23.856";"2";;;;;;;;;;;;;;;;;;;;;;;;;;;;;;;;;
"7674asdf";"1995";;"Windows 7";"Rachel's Experiment (D.T.)";"1.0";"2";"1";"1";"2";"1";"1";"2014-10-13 13:12:19.675";"2014-10-13 13:24:21.786";"1";"1";"1";"110";"109";"module.training_block3.exec-2779.GoNoGo3";;;;;;;;;;;;;;;;;;;;;;;;;;;;;;;;;;;;;;;;;;;;;;;"1248";"2014-10-13 13:18:27.616";"NST_correctLoc";"13";"0";"FINISHED";"LEFT";"success";"450";"0";"2014-10-13 13:18:26.366";"2";;;;;;;;;;;;;;;;;;;;;;;;;;;;;;;;;
"7674asdf";"1995";;"Windows 7";"Rachel's Experiment (D.T.)";"1.0";"2";"1";"1";"2";"1";"1";"2014-10-13 13:12:19.675";"2014-10-13 13:24:21.786";"1";"1";"1";"111";"110";"module.training_block3.exec-2779.GoNoGo3";;;;;;;;;;;;;;;;;;;;;;;;;;;;;;;;;;;;;;;;;;;;;;;"1248";"2014-10-13 13:18:30.126";"NST_correctLoc";"24";"0";"FINISHED";"LEFT";"success";"404";"0";"2014-10-13 13:18:28.876";"3";;;;;;;;;;;;;;;;;;;;;;;;;;;;;;;;;
"7674asdf";"1995";;"Windows 7";"Rachel's Experiment (D.T.)";"1.0";"2";"1";"1";"2";"1";"1";"2014-10-13 13:12:19.675";"2014-10-13 13:24:21.786";"1";"1";"1";"112";"111";"module.training_block3.exec-2779.GoNoGo3";;;;;;;;;;;;;;;;;;;;;;;;;;;;;;;;;;;;;;;;;;;;;;;"1248";"2014-10-13 13:18:32.636";"ST_correctStop";"6";"1";"FINISHED";"NONE";"success";"0";"1";"2014-10-13 13:18:31.386";"1";;;;;;;;;;;;;;;;;;;;;;;;;;;;;;;;;
"7674asdf";"1995";;"Windows 7";"Rachel's Experiment (D.T.)";"1.0";"2";"1";"1";"2";"1";"1";"2014-10-13 13:12:19.675";"2014-10-13 13:24:21.786";"1";"1";"1";"113";"112";"module.training_block3.exec-2779.GoNoGo3";;;;;;;;;;;;;;;;;;;;;;;;;;;;;;;;;;;;;;;;;;;;;;;"1248";"2014-10-13 13:18:35.146";"NST_correctLoc";"16";"0";"FINISHED";"LEFT";"success";"456";"0";"2014-10-13 13:18:33.896";"2";;;;;;;;;;;;;;;;;;;;;;;;;;;;;;;;;
"7674asdf";"1995";;"Windows 7";"Rachel's Experiment (D.T.)";"1.0";"2";"1";"1";"2";"1";"1";"2014-10-13 13:12:19.675";"2014-10-13 13:24:21.786";"1";"1";"1";"114";"113";"module.training_block3.exec-2779.GoNoGo3";;;;;;;;;;;;;;;;;;;;;;;;;;;;;;;;;;;;;;;;;;;;;;;"1248";"2014-10-13 13:18:37.656";"NST_correctLoc";"10";"0";"FINISHED";"LEFT";"success";"410";"0";"2014-10-13 13:18:36.406";"2";;;;;;;;;;;;;;;;;;;;;;;;;;;;;;;;;
"7674asdf";"1995";;"Windows 7";"Rachel's Experiment (D.T.)";"1.0";"2";"1";"1";"2";"1";"1";"2014-10-13 13:12:19.675";"2014-10-13 13:24:21.786";"1";"1";"1";"115";"114";"module.training_block3.exec-2779.GoNoGo3";;;;;;;;;;;;;;;;;;;;;;;;;;;;;;;;;;;;;;;;;;;;;;;"1248";"2014-10-13 13:18:40.166";"ST_correctStop";"26";"0";"FINISHED";"NONE";"success";"0";"1";"2014-10-13 13:18:38.916";"3";;;;;;;;;;;;;;;;;;;;;;;;;;;;;;;;;
"7674asdf";"1995";;"Windows 7";"Rachel's Experiment (D.T.)";"1.0";"2";"1";"1";"2";"1";"1";"2014-10-13 13:12:19.675";"2014-10-13 13:24:21.786";"1";"1";"1";"116";"115";"module.training_block3.exec-2779.GoNoGo3";;;;;;;;;;;;;;;;;;;;;;;;;;;;;;;;;;;;;;;;;;;;;;;"1248";"2014-10-13 13:18:42.676";"NST_correctLoc";"15";"0";"FINISHED";"LEFT";"success";"382";"0";"2014-10-13 13:18:41.426";"2";;;;;;;;;;;;;;;;;;;;;;;;;;;;;;;;;
"7674asdf";"1995";;"Windows 7";"Rachel's Experiment (D.T.)";"1.0";"2";"1";"1";"2";"1";"1";"2014-10-13 13:12:19.675";"2014-10-13 13:24:21.786";"1";"1";"1";"117";"116";"module.training_block3.exec-2779.GoNoGo3";;;;;;;;;;;;;;;;;;;;;;;;;;;;;;;;;;;;;;;;;;;;;;;"1248";"2014-10-13 13:18:45.186";"NST_correctLoc";"28";"1";"FINISHED";"RIGHT";"success";"544";"0";"2014-10-13 13:18:43.936";"3";;;;;;;;;;;;;;;;;;;;;;;;;;;;;;;;;
"7674asdf";"1995";;"Windows 7";"Rachel's Experiment (D.T.)";"1.0";"2";"1";"1";"2";"1";"1";"2014-10-13 13:12:19.675";"2014-10-13 13:24:21.786";"1";"1";"1";"118";"117";"module.training_block3.exec-2779.GoNoGo3";;;;;;;;;;;;;;;;;;;;;;;;;;;;;;;;;;;;;;;;;;;;;;;"1248";"2014-10-13 13:18:47.696";"ST_correctStop";"2";"0";"FINISHED";"NONE";"success";"0";"1";"2014-10-13 13:18:46.446";"1";;;;;;;;;;;;;;;;;;;;;;;;;;;;;;;;;
"7674asdf";"1995";;"Windows 7";"Rachel's Experiment (D.T.)";"1.0";"2";"1";"1";"2";"1";"1";"2014-10-13 13:12:19.675";"2014-10-13 13:24:21.786";"1";"1";"1";"119";"118";"module.training_block3.exec-2779.GoNoGo3";;;;;;;;;;;;;;;;;;;;;;;;;;;;;;;;;;;;;;;;;;;;;;;"1248";"2014-10-13 13:18:50.206";"ST_failedStop";"20";"1";"FINISHED";"RIGHT";"failure";"388";"1";"2014-10-13 13:18:48.956";"3";;;;;;;;;;;;;;;;;;;;;;;;;;;;;;;;;
"7674asdf";"1995";;"Windows 7";"Rachel's Experiment (D.T.)";"1.0";"2";"1";"1";"2";"1";"1";"2014-10-13 13:12:19.675";"2014-10-13 13:24:21.786";"1";"1";"1";"120";"119";"module.training_block3.exec-2779.GoNoGo3";;;;;;;;;;;;;;;;;;;;;;;;;;;;;;;;;;;;;;;;;;;;;;;"1243";"2014-10-13 13:18:52.716";"ST_correctStop";"22";"0";"FINISHED";"NONE";"success";"0";"1";"2014-10-13 13:18:51.466";"3";;;;;;;;;;;;;;;;;;;;;;;;;;;;;;;;;
"7674asdf";"1995";;"Windows 7";"Rachel's Experiment (D.T.)";"1.0";"2";"1";"1";"2";"1";"1";"2014-10-13 13:12:19.675";"2014-10-13 13:24:21.786";"1";"1";"1";"121";"120";"module.training_block3.exec-2779.GoNoGo3";;;;;;;;;;;;;;;;;;;;;;;;;;;;;;;;;;;;;;;;;;;;;;;"1248";"2014-10-13 13:18:55.226";"NST_correctLoc";"23";"1";"FINISHED";"RIGHT";"success";"488";"0";"2014-10-13 13:18:53.976";"3";;;;;;;;;;;;;;;;;;;;;;;;;;;;;;;;;
"7674asdf";"1995";;"Windows 7";"Rachel's Experiment (D.T.)";"1.0";"2";"1";"1";"2";"1";"1";"2014-10-13 13:12:19.675";"2014-10-13 13:24:21.786";"1";"1";"1";"122";"121";"module.training_block3.exec-2779.GoNoGo3";;;;;;;;;;;;;;;;;;;;;;;;;;;;;;;;;;;;;;;;;;;;;;;"1248";"2014-10-13 13:18:57.736";"ST_correctStop";"5";"1";"FINISHED";"NONE";"success";"0";"1";"2014-10-13 13:18:56.486";"1";;;;;;;;;;;;;;;;;;;;;;;;;;;;;;;;;
"7674asdf";"1995";;"Windows 7";"Rachel's Experiment (D.T.)";"1.0";"2";"1";"1";"2";"1";"1";"2014-10-13 13:12:19.675";"2014-10-13 13:24:21.786";"1";"1";"1";"123";"122";"module.training_block3.exec-2779.GoNoGo3";;;;;;;;;;;;;;;;;;;;;;;;;;;;;;;;;;;;;;;;;;;;;;;"1243";"2014-10-13 13:19:00.246";"NST_correctLoc";"32";"1";"FINISHED";"RIGHT";"success";"471";"0";"2014-10-13 13:18:58.996";"3";;;;;;;;;;;;;;;;;;;;;;;;;;;;;;;;;
"7674asdf";"1995";;"Windows 7";"Rachel's Experiment (D.T.)";"1.0";"2";"1";"1";"2";"1";"1";"2014-10-13 13:12:19.675";"2014-10-13 13:24:21.786";"1";"1";"1";"124";"123";"module.training_block4.exec-6441.GoNoGo4";;;;;;;;;;;;;;;;;;;;;;;;;;;;;;;;;;;;;;;;;;;;;;;;;;;;;;;;;;;"1248";"2014-10-13 13:19:11.016";"NST_correctLoc";"18";"1";"FINISHED";"RIGHT";"success";"418";"0";"2014-10-13 13:19:09.766";"3";;;;;;;;;;;;;;;;;;;;;
"7674asdf";"1995";;"Windows 7";"Rachel's Experiment (D.T.)";"1.0";"2";"1";"1";"2";"1";"1";"2014-10-13 13:12:19.675";"2014-10-13 13:24:21.786";"1";"1";"1";"125";"124";"module.training_block4.exec-6441.GoNoGo4";;;;;;;;;;;;;;;;;;;;;;;;;;;;;;;;;;;;;;;;;;;;;;;;;;;;;;;;;;;"1248";"2014-10-13 13:19:13.526";"ST_failedStop";"25";"0";"FINISHED";"LEFT";"failure";"428";"1";"2014-10-13 13:19:12.276";"3";;;;;;;;;;;;;;;;;;;;;
"7674asdf";"1995";;"Windows 7";"Rachel's Experiment (D.T.)";"1.0";"2";"1";"1";"2";"1";"1";"2014-10-13 13:12:19.675";"2014-10-13 13:24:21.786";"1";"1";"1";"126";"125";"module.training_block4.exec-6441.GoNoGo4";;;;;;;;;;;;;;;;;;;;;;;;;;;;;;;;;;;;;;;;;;;;;;;;;;;;;;;;;;;"1248";"2014-10-13 13:19:16.036";"ST_correctStop";"5";"0";"FINISHED";"NONE";"success";"0";"1";"2014-10-13 13:19:14.786";"1";;;;;;;;;;;;;;;;;;;;;
"7674asdf";"1995";;"Windows 7";"Rachel's Experiment (D.T.)";"1.0";"2";"1";"1";"2";"1";"1";"2014-10-13 13:12:19.675";"2014-10-13 13:24:21.786";"1";"1";"1";"127";"126";"module.training_block4.exec-6441.GoNoGo4";;;;;;;;;;;;;;;;;;;;;;;;;;;;;;;;;;;;;;;;;;;;;;;;;;;;;;;;;;;"1248";"2014-10-13 13:19:18.546";"NST_correctLoc";"10";"0";"FINISHED";"LEFT";"success";"392";"0";"2014-10-13 13:19:17.296";"2";;;;;;;;;;;;;;;;;;;;;
"7674asdf";"1995";;"Windows 7";"Rachel's Experiment (D.T.)";"1.0";"2";"1";"1";"2";"1";"1";"2014-10-13 13:12:19.675";"2014-10-13 13:24:21.786";"1";"1";"1";"128";"127";"module.training_block4.exec-6441.GoNoGo4";;;;;;;;;;;;;;;;;;;;;;;;;;;;;;;;;;;;;;;;;;;;;;;;;;;;;;;;;;;"1248";"2014-10-13 13:19:21.056";"ST_correctStop";"22";"1";"FINISHED";"NONE";"success";"0";"1";"2014-10-13 13:19:19.806";"3";;;;;;;;;;;;;;;;;;;;;
"7674asdf";"1995";;"Windows 7";"Rachel's Experiment (D.T.)";"1.0";"2";"1";"1";"2";"1";"1";"2014-10-13 13:12:19.675";"2014-10-13 13:24:21.786";"1";"1";"1";"129";"128";"module.training_block4.exec-6441.GoNoGo4";;;;;;;;;;;;;;;;;;;;;;;;;;;;;;;;;;;;;;;;;;;;;;;;;;;;;;;;;;;"1248";"2014-10-13 13:19:23.566";"NST_correctLoc";"33";"1";"FINISHED";"RIGHT";"success";"452";"0";"2014-10-13 13:19:22.316";"3";;;;;;;;;;;;;;;;;;;;;
"7674asdf";"1995";;"Windows 7";"Rachel's Experiment (D.T.)";"1.0";"2";"1";"1";"2";"1";"1";"2014-10-13 13:12:19.675";"2014-10-13 13:24:21.786";"1";"1";"1";"130";"129";"module.training_block4.exec-6441.GoNoGo4";;;;;;;;;;;;;;;;;;;;;;;;;;;;;;;;;;;;;;;;;;;;;;;;;;;;;;;;;;;"1248";"2014-10-13 13:19:26.076";"ST_correctStop";"7";"0";"FINISHED";"NONE";"success";"0";"1";"2014-10-13 13:19:24.826";"1";;;;;;;;;;;;;;;;;;;;;
"7674asdf";"1995";;"Windows 7";"Rachel's Experiment (D.T.)";"1.0";"2";"1";"1";"2";"1";"1";"2014-10-13 13:12:19.675";"2014-10-13 13:24:21.786";"1";"1";"1";"131";"130";"module.training_block4.exec-6441.GoNoGo4";;;;;;;;;;;;;;;;;;;;;;;;;;;;;;;;;;;;;;;;;;;;;;;;;;;;;;;;;;;"1248";"2014-10-13 13:19:28.586";"ST_correctStop";"4";"0";"FINISHED";"NONE";"success";"0";"1";"2014-10-13 13:19:27.336";"1";;;;;;;;;;;;;;;;;;;;;
"7674asdf";"1995";;"Windows 7";"Rachel's Experiment (D.T.)";"1.0";"2";"1";"1";"2";"1";"1";"2014-10-13 13:12:19.675";"2014-10-13 13:24:21.786";"1";"1";"1";"132";"131";"module.training_block4.exec-6441.GoNoGo4";;;;;;;;;;;;;;;;;;;;;;;;;;;;;;;;;;;;;;;;;;;;;;;;;;;;;;;;;;;"1248";"2014-10-13 13:19:31.096";"NST_correctLoc";"15";"0";"FINISHED";"LEFT";"success";"578";"0";"2014-10-13 13:19:29.846";"2";;;;;;;;;;;;;;;;;;;;;
"7674asdf";"1995";;"Windows 7";"Rachel's Experiment (D.T.)";"1.0";"2";"1";"1";"2";"1";"1";"2014-10-13 13:12:19.675";"2014-10-13 13:24:21.786";"1";"1";"1";"133";"132";"module.training_block4.exec-6441.GoNoGo4";;;;;;;;;;;;;;;;;;;;;;;;;;;;;;;;;;;;;;;;;;;;;;;;;;;;;;;;;;;"1248";"2014-10-13 13:19:33.606";"NST_correctLoc";"35";"1";"FINISHED";"RIGHT";"success";"516";"0";"2014-10-13 13:19:32.356";"3";;;;;;;;;;;;;;;;;;;;;
"7674asdf";"1995";;"Windows 7";"Rachel's Experiment (D.T.)";"1.0";"2";"1";"1";"2";"1";"1";"2014-10-13 13:12:19.675";"2014-10-13 13:24:21.786";"1";"1";"1";"134";"133";"module.training_block4.exec-6441.GoNoGo4";;;;;;;;;;;;;;;;;;;;;;;;;;;;;;;;;;;;;;;;;;;;;;;;;;;;;;;;;;;"1248";"2014-10-13 13:19:36.116";"NST_correctLoc";"20";"0";"FINISHED";"LEFT";"success";"494";"0";"2014-10-13 13:19:34.866";"3";;;;;;;;;;;;;;;;;;;;;
"7674asdf";"1995";;"Windows 7";"Rachel's Experiment (D.T.)";"1.0";"2";"1";"1";"2";"1";"1";"2014-10-13 13:12:19.675";"2014-10-13 13:24:21.786";"1";"1";"1";"135";"134";"module.training_block4.exec-6441.GoNoGo4";;;;;;;;;;;;;;;;;;;;;;;;;;;;;;;;;;;;;;;;;;;;;;;;;;;;;;;;;;;"1248";"2014-10-13 13:19:38.626";"NST_correctLoc";"13";"0";"FINISHED";"LEFT";"success";"632";"0";"2014-10-13 13:19:37.376";"2";;;;;;;;;;;;;;;;;;;;;
"7674asdf";"1995";;"Windows 7";"Rachel's Experiment (D.T.)";"1.0";"2";"1";"1";"2";"1";"1";"2014-10-13 13:12:19.675";"2014-10-13 13:24:21.786";"1";"1";"1";"136";"135";"module.training_block4.exec-6441.GoNoGo4";;;;;;;;;;;;;;;;;;;;;;;;;;;;;;;;;;;;;;;;;;;;;;;;;;;;;;;;;;;"1248";"2014-10-13 13:19:41.136";"NST_correctLoc";"14";"1";"FINISHED";"RIGHT";"success";"378";"0";"2014-10-13 13:19:39.886";"2";;;;;;;;;;;;;;;;;;;;;
"7674asdf";"1995";;"Windows 7";"Rachel's Experiment (D.T.)";"1.0";"2";"1";"1";"2";"1";"1";"2014-10-13 13:12:19.675";"2014-10-13 13:24:21.786";"1";"1";"1";"137";"136";"module.training_block4.exec-6441.GoNoGo4";;;;;;;;;;;;;;;;;;;;;;;;;;;;;;;;;;;;;;;;;;;;;;;;;;;;;;;;;;;"1248";"2014-10-13 13:19:43.646";"NST_correctLoc";"29";"0";"FINISHED";"LEFT";"success";"396";"0";"2014-10-13 13:19:42.396";"3";;;;;;;;;;;;;;;;;;;;;
"7674asdf";"1995";;"Windows 7";"Rachel's Experiment (D.T.)";"1.0";"2";"1";"1";"2";"1";"1";"2014-10-13 13:12:19.675";"2014-10-13 13:24:21.786";"1";"1";"1";"138";"137";"module.training_block4.exec-6441.GoNoGo4";;;;;;;;;;;;;;;;;;;;;;;;;;;;;;;;;;;;;;;;;;;;;;;;;;;;;;;;;;;"1248";"2014-10-13 13:19:46.156";"ST_correctStop";"24";"0";"FINISHED";"NONE";"success";"0";"1";"2014-10-13 13:19:44.906";"3";;;;;;;;;;;;;;;;;;;;;
"7674asdf";"1995";;"Windows 7";"Rachel's Experiment (D.T.)";"1.0";"2";"1";"1";"2";"1";"1";"2014-10-13 13:12:19.675";"2014-10-13 13:24:21.786";"1";"1";"1";"139";"138";"module.training_block4.exec-6441.GoNoGo4";;;;;;;;;;;;;;;;;;;;;;;;;;;;;;;;;;;;;;;;;;;;;;;;;;;;;;;;;;;"1248";"2014-10-13 13:19:48.666";"NST_correctLoc";"12";"0";"FINISHED";"LEFT";"success";"424";"0";"2014-10-13 13:19:47.416";"2";;;;;;;;;;;;;;;;;;;;;
"7674asdf";"1995";;"Windows 7";"Rachel's Experiment (D.T.)";"1.0";"2";"1";"1";"2";"1";"1";"2014-10-13 13:12:19.675";"2014-10-13 13:24:21.786";"1";"1";"1";"140";"139";"module.training_block4.exec-6441.GoNoGo4";;;;;;;;;;;;;;;;;;;;;;;;;;;;;;;;;;;;;;;;;;;;;;;;;;;;;;;;;;;"1248";"2014-10-13 13:19:51.176";"ST_correctStop";"1";"1";"FINISHED";"NONE";"success";"0";"1";"2014-10-13 13:19:49.926";"1";;;;;;;;;;;;;;;;;;;;;
"7674asdf";"1995";;"Windows 7";"Rachel's Experiment (D.T.)";"1.0";"2";"1";"1";"2";"1";"1";"2014-10-13 13:12:19.675";"2014-10-13 13:24:21.786";"1";"1";"1";"141";"140";"module.training_block4.exec-6441.GoNoGo4";;;;;;;;;;;;;;;;;;;;;;;;;;;;;;;;;;;;;;;;;;;;;;;;;;;;;;;;;;;"1248";"2014-10-13 13:19:53.686";"NST_correctLoc";"19";"0";"FINISHED";"LEFT";"success";"412";"0";"2014-10-13 13:19:52.436";"3";;;;;;;;;;;;;;;;;;;;;
"7674asdf";"1995";;"Windows 7";"Rachel's Experiment (D.T.)";"1.0";"2";"1";"1";"2";"1";"1";"2014-10-13 13:12:19.675";"2014-10-13 13:24:21.786";"1";"1";"1";"142";"141";"module.training_block4.exec-6441.GoNoGo4";;;;;;;;;;;;;;;;;;;;;;;;;;;;;;;;;;;;;;;;;;;;;;;;;;;;;;;;;;;"1248";"2014-10-13 13:19:56.196";"NST_correctLoc";"16";"1";"FINISHED";"RIGHT";"success";"398";"0";"2014-10-13 13:19:54.946";"2";;;;;;;;;;;;;;;;;;;;;
"7674asdf";"1995";;"Windows 7";"Rachel's Experiment (D.T.)";"1.0";"2";"1";"1";"2";"1";"1";"2014-10-13 13:12:19.675";"2014-10-13 13:24:21.786";"1";"1";"1";"143";"142";"module.training_block4.exec-6441.GoNoGo4";;;;;;;;;;;;;;;;;;;;;;;;;;;;;;;;;;;;;;;;;;;;;;;;;;;;;;;;;;;"1243";"2014-10-13 13:19:58.706";"ST_correctStop";"21";"0";"FINISHED";"NONE";"success";"0";"1";"2014-10-13 13:19:57.456";"3";;;;;;;;;;;;;;;;;;;;;
"7674asdf";"1995";;"Windows 7";"Rachel's Experiment (D.T.)";"1.0";"2";"1";"1";"2";"1";"1";"2014-10-13 13:12:19.675";"2014-10-13 13:24:21.786";"1";"1";"1";"144";"143";"module.training_block4.exec-6441.GoNoGo4";;;;;;;;;;;;;;;;;;;;;;;;;;;;;;;;;;;;;;;;;;;;;;;;;;;;;;;;;;;"1248";"2014-10-13 13:20:01.216";"NST_correctLoc";"31";"0";"FINISHED";"LEFT";"success";"417";"0";"2014-10-13 13:19:59.966";"3";;;;;;;;;;;;;;;;;;;;;
"7674asdf";"1995";;"Windows 7";"Rachel's Experiment (D.T.)";"1.0";"2";"1";"1";"2";"1";"1";"2014-10-13 13:12:19.675";"2014-10-13 13:24:21.786";"1";"1";"1";"145";"144";"module.training_block4.exec-6441.GoNoGo4";;;;;;;;;;;;;;;;;;;;;;;;;;;;;;;;;;;;;;;;;;;;;;;;;;;;;;;;;;;"1248";"2014-10-13 13:20:03.726";"ST_correctStop";"32";"1";"FINISHED";"NONE";"success";"0";"1";"2014-10-13 13:20:02.476";"3";;;;;;;;;;;;;;;;;;;;;
"7674asdf";"1995";;"Windows 7";"Rachel's Experiment (D.T.)";"1.0";"2";"1";"1";"2";"1";"1";"2014-10-13 13:12:19.675";"2014-10-13 13:24:21.786";"1";"1";"1";"146";"145";"module.training_block4.exec-6441.GoNoGo4";;;;;;;;;;;;;;;;;;;;;;;;;;;;;;;;;;;;;;;;;;;;;;;;;;;;;;;;;;;"1248";"2014-10-13 13:20:06.236";"ST_correctStop";"2";"0";"FINISHED";"NONE";"success";"0";"1";"2014-10-13 13:20:04.986";"1";;;;;;;;;;;;;;;;;;;;;
"7674asdf";"1995";;"Windows 7";"Rachel's Experiment (D.T.)";"1.0";"2";"1";"1";"2";"1";"1";"2014-10-13 13:12:19.675";"2014-10-13 13:24:21.786";"1";"1";"1";"147";"146";"module.training_block4.exec-6441.GoNoGo4";;;;;;;;;;;;;;;;;;;;;;;;;;;;;;;;;;;;;;;;;;;;;;;;;;;;;;;;;;;"1248";"2014-10-13 13:20:08.746";"ST_correctStop";"26";"1";"FINISHED";"NONE";"success";"0";"1";"2014-10-13 13:20:07.496";"3";;;;;;;;;;;;;;;;;;;;;
"7674asdf";"1995";;"Windows 7";"Rachel's Experiment (D.T.)";"1.0";"2";"1";"1";"2";"1";"1";"2014-10-13 13:12:19.675";"2014-10-13 13:24:21.786";"1";"1";"1";"148";"147";"module.training_block4.exec-6441.GoNoGo4";;;;;;;;;;;;;;;;;;;;;;;;;;;;;;;;;;;;;;;;;;;;;;;;;;;;;;;;;;;"1248";"2014-10-13 13:20:11.256";"ST_correctStop";"3";"1";"FINISHED";"NONE";"success";"0";"1";"2014-10-13 13:20:10.006";"1";;;;;;;;;;;;;;;;;;;;;
"7674asdf";"1995";;"Windows 7";"Rachel's Experiment (D.T.)";"1.0";"2";"1";"1";"2";"1";"1";"2014-10-13 13:12:19.675";"2014-10-13 13:24:21.786";"1";"1";"1";"149";"148";"module.training_block4.exec-6441.GoNoGo4";;;;;;;;;;;;;;;;;;;;;;;;;;;;;;;;;;;;;;;;;;;;;;;;;;;;;;;;;;;"1248";"2014-10-13 13:20:13.766";"ST_correctStop";"28";"1";"FINISHED";"NONE";"success";"0";"1";"2014-10-13 13:20:12.516";"3";;;;;;;;;;;;;;;;;;;;;
"7674asdf";"1995";;"Windows 7";"Rachel's Experiment (D.T.)";"1.0";"2";"1";"1";"2";"1";"1";"2014-10-13 13:12:19.675";"2014-10-13 13:24:21.786";"1";"1";"1";"150";"149";"module.training_block4.exec-6441.GoNoGo4";;;;;;;;;;;;;;;;;;;;;;;;;;;;;;;;;;;;;;;;;;;;;;;;;;;;;;;;;;;"1248";"2014-10-13 13:20:16.276";"NST_correctLoc";"11";"0";"FINISHED";"LEFT";"success";"429";"0";"2014-10-13 13:20:15.026";"2";;;;;;;;;;;;;;;;;;;;;
"7674asdf";"1995";;"Windows 7";"Rachel's Experiment (D.T.)";"1.0";"2";"1";"1";"2";"1";"1";"2014-10-13 13:12:19.675";"2014-10-13 13:24:21.786";"1";"1";"1";"151";"150";"module.training_block4.exec-6441.GoNoGo4";;;;;;;;;;;;;;;;;;;;;;;;;;;;;;;;;;;;;;;;;;;;;;;;;;;;;;;;;;;"1248";"2014-10-13 13:20:18.786";"ST_correctStop";"6";"1";"FINISHED";"NONE";"success";"0";"1";"2014-10-13 13:20:17.536";"1";;;;;;;;;;;;;;;;;;;;;
"7674asdf";"1995";;"Windows 7";"Rachel's Experiment (D.T.)";"1.0";"2";"1";"1";"2";"1";"1";"2014-10-13 13:12:19.675";"2014-10-13 13:24:21.786";"1";"1";"1";"152";"151";"module.training_block4.exec-6441.GoNoGo4";;;;;;;;;;;;;;;;;;;;;;;;;;;;;;;;;;;;;;;;;;;;;;;;;;;;;;;;;;;"1248";"2014-10-13 13:20:21.296";"ST_correctStop";"27";"0";"FINISHED";"NONE";"success";"0";"1";"2014-10-13 13:20:20.046";"3";;;;;;;;;;;;;;;;;;;;;
"7674asdf";"1995";;"Windows 7";"Rachel's Experiment (D.T.)";"1.0";"2";"1";"1";"2";"1";"1";"2014-10-13 13:12:19.675";"2014-10-13 13:24:21.786";"1";"1";"1";"153";"152";"module.training_block4.exec-6441.GoNoGo4";;;;;;;;;;;;;;;;;;;;;;;;;;;;;;;;;;;;;;;;;;;;;;;;;;;;;;;;;;;"1248";"2014-10-13 13:20:23.806";"ST_correctStop";"23";"0";"FINISHED";"NONE";"success";"0";"1";"2014-10-13 13:20:22.556";"3";;;;;;;;;;;;;;;;;;;;;
"7674asdf";"1995";;"Windows 7";"Rachel's Experiment (D.T.)";"1.0";"2";"1";"1";"2";"1";"1";"2014-10-13 13:12:19.675";"2014-10-13 13:24:21.786";"1";"1";"1";"154";"153";"module.training_block4.exec-6441.GoNoGo4";;;;;;;;;;;;;;;;;;;;;;;;;;;;;;;;;;;;;;;;;;;;;;;;;;;;;;;;;;;"1248";"2014-10-13 13:20:26.316";"NST_correctLoc";"9";"1";"FINISHED";"RIGHT";"success";"573";"0";"2014-10-13 13:20:25.066";"2";;;;;;;;;;;;;;;;;;;;;
"7674asdf";"1995";;"Windows 7";"Rachel's Experiment (D.T.)";"1.0";"2";"1";"1";"2";"1";"1";"2014-10-13 13:12:19.675";"2014-10-13 13:24:21.786";"1";"1";"1";"155";"154";"module.training_block4.exec-6441.GoNoGo4";;;;;;;;;;;;;;;;;;;;;;;;;;;;;;;;;;;;;;;;;;;;;;;;;;;;;;;;;;;"1248";"2014-10-13 13:20:28.826";"NST_correctLoc";"30";"1";"FINISHED";"RIGHT";"success";"567";"0";"2014-10-13 13:20:27.576";"3";;;;;;;;;;;;;;;;;;;;;
"7674asdf";"1995";;"Windows 7";"Rachel's Experiment (D.T.)";"1.0";"2";"1";"1";"2";"1";"1";"2014-10-13 13:12:19.675";"2014-10-13 13:24:21.786";"1";"1";"1";"156";"155";"module.training_block4.exec-6441.GoNoGo4";;;;;;;;;;;;;;;;;;;;;;;;;;;;;;;;;;;;;;;;;;;;;;;;;;;;;;;;;;;"1248";"2014-10-13 13:20:31.336";"NST_correctLoc";"34";"1";"FINISHED";"RIGHT";"success";"521";"0";"2014-10-13 13:20:30.086";"3";;;;;;;;;;;;;;;;;;;;;
"7674asdf";"1995";;"Windows 7";"Rachel's Experiment (D.T.)";"1.0";"2";"1";"1";"2";"1";"1";"2014-10-13 13:12:19.675";"2014-10-13 13:24:21.786";"1";"1";"1";"157";"156";"module.training_block4.exec-6441.GoNoGo4";;;;;;;;;;;;;;;;;;;;;;;;;;;;;;;;;;;;;;;;;;;;;;;;;;;;;;;;;;;"1248";"2014-10-13 13:20:33.856";"NST_correctLoc";"17";"0";"FINISHED";"LEFT";"success";"529";"0";"2014-10-13 13:20:32.606";"2";;;;;;;;;;;;;;;;;;;;;
"7674asdf";"1995";;"Windows 7";"Rachel's Experiment (D.T.)";"1.0";"2";"1";"1";"2";"1";"1";"2014-10-13 13:12:19.675";"2014-10-13 13:24:21.786";"1";"1";"1";"158";"157";"module.training_block4.exec-6441.GoNoGo4";;;;;;;;;;;;;;;;;;;;;;;;;;;;;;;;;;;;;;;;;;;;;;;;;;;;;;;;;;;"1248";"2014-10-13 13:20:36.366";"ST_correctStop";"8";"0";"FINISHED";"NONE";"success";"0";"1";"2014-10-13 13:20:35.116";"1";;;;;;;;;;;;;;;;;;;;;
"7674asdf";"1995";;"Windows 7";"Rachel's Experiment (D.T.)";"1.0";"2";"1";"1";"2";"1";"1";"2014-10-13 13:12:19.675";"2014-10-13 13:24:21.786";"1";"1";"1";"159";"158";"module.training_block4.exec-6441.GoNoGo4";;;;;;;;;;;;;;;;;;;;;;;;;;;;;;;;;;;;;;;;;;;;;;;;;;;;;;;;;;;"1243";"2014-10-13 13:20:38.876";"ST_correctStop";"0";"0";"FINISHED";"NONE";"success";"0";"1";"2014-10-13 13:20:37.626";"1";;;;;;;;;;;;;;;;;;;;;
"7674asdf";"1995";;"Windows 7";"Rachel's Experiment (D.T.)";"1.0";"2";"1";"1";"2";"1";"1";"2014-10-13 13:12:19.675";"2014-10-13 13:24:21.786";"1";"1";"1";"160";"159";"module.devaluation_practice.exec-8127.devalPractice";;;;;;;;;;;;"19186";"2014-10-13 13:21:22.506";"0";"6";"8";"7";"4159";"2867";"9141";"2014-10-13 13:21:03.316";;;;;;;;;;;;;;;;;;;;;;;;;;;;;;;;;;;;;;;;;;;;;;;;;;;;;;;;;;;;;;;;;;;;;;
"7674asdf";"1995";;"Windows 7";"Rachel's Experiment (D.T.)";"1.0";"2";"1";"1";"2";"1";"1";"2014-10-13 13:12:19.675";"2014-10-13 13:24:21.786";"1";"1";"1";"161";"160";"module.devaluation_practice.exec-8127.devalPractice";;;;;;;;;;;;"9019";"2014-10-13 13:21:31.546";"1";"4";"2";"5";"1362";"1484";"3184";"2014-10-13 13:21:22.526";;;;;;;;;;;;;;;;;;;;;;;;;;;;;;;;;;;;;;;;;;;;;;;;;;;;;;;;;;;;;;;;;;;;;;
"7674asdf";"1995";;"Windows 7";"Rachel's Experiment (D.T.)";"1.0";"2";"1";"1";"2";"1";"1";"2014-10-13 13:12:19.675";"2014-10-13 13:24:21.786";"1";"1";"1";"162";"161";"module.devaluation_practice.exec-8127.devalPractice";;;;;;;;;;;;"7939";"2014-10-13 13:21:39.506";"2";"2";"4";"6";"1538";"1794";"1624";"2014-10-13 13:21:31.566";;;;;;;;;;;;;;;;;;;;;;;;;;;;;;;;;;;;;;;;;;;;;;;;;;;;;;;;;;;;;;;;;;;;;;
"7674asdf";"1995";;"Windows 7";"Rachel's Experiment (D.T.)";"1.0";"2";"1";"1";"2";"1";"1";"2014-10-13 13:12:19.675";"2014-10-13 13:24:21.786";"1";"1";"1";"163";"162";"module.devaluation_practice.exec-8127.devalPractice";;;;;;;;;;;;"6172";"2014-10-13 13:21:45.696";"3";"7";"8";"7";"1191";"915";"1071";"2014-10-13 13:21:39.526";;;;;;;;;;;;;;;;;;;;;;;;;;;;;;;;;;;;;;;;;;;;;;;;;;;;;;;;;;;;;;;;;;;;;;
"7674asdf";"1995";;"Windows 7";"Rachel's Experiment (D.T.)";"1.0";"2";"1";"1";"2";"1";"1";"2014-10-13 13:12:19.675";"2014-10-13 13:24:21.786";"1";"1";"1";"164";"163";"module.devaluation_block1.exec-7101.deval1";"9042";"2014-10-13 13:22:01.296";"11";"5";"1";"3";"3004";"1535";"1513";"2014-10-13 13:21:52.256";"2";;;;;;;;;;;;;;;;;;;;;;;;;;;;;;;;;;;;;;;;;;;;;;;;;;;;;;;;;;;;;;;;;;;;;;;;;;;;;;;;
"7674asdf";"1995";;"Windows 7";"Rachel's Experiment (D.T.)";"1.0";"2";"1";"1";"2";"1";"1";"2014-10-13 13:12:19.675";"2014-10-13 13:24:21.786";"1";"1";"1";"165";"164";"module.devaluation_block1.exec-7101.deval1";"6899";"2014-10-13 13:22:08.216";"0";"3";"8";"7";"1945";"1025";"937";"2014-10-13 13:22:01.316";"1";;;;;;;;;;;;;;;;;;;;;;;;;;;;;;;;;;;;;;;;;;;;;;;;;;;;;;;;;;;;;;;;;;;;;;;;;;;;;;;;
"7674asdf";"1995";;"Windows 7";"Rachel's Experiment (D.T.)";"1.0";"2";"1";"1";"2";"1";"1";"2014-10-13 13:12:19.675";"2014-10-13 13:24:21.786";"1";"1";"1";"166";"165";"module.devaluation_block1.exec-7101.deval1";"5724";"2014-10-13 13:22:13.966";"12";"6";"8";"7";"1081";"799";"853";"2014-10-13 13:22:08.236";"2";;;;;;;;;;;;;;;;;;;;;;;;;;;;;;;;;;;;;;;;;;;;;;;;;;;;;;;;;;;;;;;;;;;;;;;;;;;;;;;;
"7674asdf";"1995";;"Windows 7";"Rachel's Experiment (D.T.)";"1.0";"2";"1";"1";"2";"1";"1";"2014-10-13 13:12:19.675";"2014-10-13 13:24:21.786";"1";"1";"1";"167";"166";"module.devaluation_block1.exec-7101.deval1";"5556";"2014-10-13 13:22:19.536";"1";"3";"2";"3";"939";"805";"811";"2014-10-13 13:22:13.986";"1";;;;;;;;;;;;;;;;;;;;;;;;;;;;;;;;;;;;;;;;;;;;;;;;;;;;;;;;;;;;;;;;;;;;;;;;;;;;;;;;
"7674asdf";"1995";;"Windows 7";"Rachel's Experiment (D.T.)";"1.0";"2";"1";"1";"2";"1";"1";"2014-10-13 13:12:19.675";"2014-10-13 13:24:21.786";"1";"1";"1";"168";"167";"module.devaluation_block1.exec-7101.deval1";"6107";"2014-10-13 13:22:25.666";"26";"7";"2";"8";"1161";"1003";"949";"2014-10-13 13:22:19.556";"3";;;;;;;;;;;;;;;;;;;;;;;;;;;;;;;;;;;;;;;;;;;;;;;;;;;;;;;;;;;;;;;;;;;;;;;;;;;;;;;;
"7674asdf";"1995";;"Windows 7";"Rachel's Experiment (D.T.)";"1.0";"2";"1";"1";"2";"1";"1";"2014-10-13 13:12:19.675";"2014-10-13 13:24:21.786";"1";"1";"1";"169";"168";"module.devaluation_block1.exec-7101.deval1";"5709";"2014-10-13 13:22:31.516";"5";"8";"9";"8";"927";"924";"843";"2014-10-13 13:22:25.806";"1";;;;;;;;;;;;;;;;;;;;;;;;;;;;;;;;;;;;;;;;;;;;;;;;;;;;;;;;;;;;;;;;;;;;;;;;;;;;;;;;
"7674asdf";"1995";;"Windows 7";"Rachel's Experiment (D.T.)";"1.0";"2";"1";"1";"2";"1";"1";"2014-10-13 13:12:19.675";"2014-10-13 13:24:21.786";"1";"1";"1";"170";"169";"module.devaluation_block1.exec-7101.deval1";"5236";"2014-10-13 13:22:36.776";"19";"7";"8";"8";"621";"787";"821";"2014-10-13 13:22:31.536";"3";;;;;;;;;;;;;;;;;;;;;;;;;;;;;;;;;;;;;;;;;;;;;;;;;;;;;;;;;;;;;;;;;;;;;;;;;;;;;;;;
"7674asdf";"1995";;"Windows 7";"Rachel's Experiment (D.T.)";"1.0";"2";"1";"1";"2";"1";"1";"2014-10-13 13:12:19.675";"2014-10-13 13:24:21.786";"1";"1";"1";"171";"170";"module.devaluation_block1.exec-7101.deval1";"5955";"2014-10-13 13:22:42.746";"22";"7";"9";"9";"641";"793";"1525";"2014-10-13 13:22:36.796";"3";;;;;;;;;;;;;;;;;;;;;;;;;;;;;;;;;;;;;;;;;;;;;;;;;;;;;;;;;;;;;;;;;;;;;;;;;;;;;;;;
"7674asdf";"1995";;"Windows 7";"Rachel's Experiment (D.T.)";"1.0";"2";"1";"1";"2";"1";"1";"2014-10-13 13:12:19.675";"2014-10-13 13:24:21.786";"1";"1";"1";"172";"171";"module.devaluation_block1.exec-7101.deval1";"5411";"2014-10-13 13:22:48.176";"4";"7";"9";"8";"583";"965";"871";"2014-10-13 13:22:42.766";"1";;;;;;;;;;;;;;;;;;;;;;;;;;;;;;;;;;;;;;;;;;;;;;;;;;;;;;;;;;;;;;;;;;;;;;;;;;;;;;;;
"7674asdf";"1995";;"Windows 7";"Rachel's Experiment (D.T.)";"1.0";"2";"1";"1";"2";"1";"1";"2014-10-13 13:12:19.675";"2014-10-13 13:24:21.786";"1";"1";"1";"173";"172";"module.devaluation_block1.exec-7101.deval1";"5716";"2014-10-13 13:22:53.926";"23";"7";"2";"3";"1095";"909";"721";"2014-10-13 13:22:48.206";"3";;;;;;;;;;;;;;;;;;;;;;;;;;;;;;;;;;;;;;;;;;;;;;;;;;;;;;;;;;;;;;;;;;;;;;;;;;;;;;;;
"7674asdf";"1995";;"Windows 7";"Rachel's Experiment (D.T.)";"1.0";"2";"1";"1";"2";"1";"1";"2014-10-13 13:12:19.675";"2014-10-13 13:24:21.786";"1";"1";"1";"174";"173";"module.devaluation_block1.exec-7101.deval1";"5043";"2014-10-13 13:22:58.986";"7";"7";"2";"3";"611";"773";"661";"2014-10-13 13:22:53.946";"1";;;;;;;;;;;;;;;;;;;;;;;;;;;;;;;;;;;;;;;;;;;;;;;;;;;;;;;;;;;;;;;;;;;;;;;;;;;;;;;;
"7674asdf";"1995";;"Windows 7";"Rachel's Experiment (D.T.)";"1.0";"2";"1";"1";"2";"1";"1";"2014-10-13 13:12:19.675";"2014-10-13 13:24:21.786";"1";"1";"1";"175";"174";"module.devaluation_block1.exec-7101.deval1";"5235";"2014-10-13 13:23:04.246";"25";"7";"3";"7";"639";"579";"1019";"2014-10-13 13:22:59.006";"3";;;;;;;;;;;;;;;;;;;;;;;;;;;;;;;;;;;;;;;;;;;;;;;;;;;;;;;;;;;;;;;;;;;;;;;;;;;;;;;;
"7674asdf";"1995";;"Windows 7";"Rachel's Experiment (D.T.)";"1.0";"2";"1";"1";"2";"1";"1";"2014-10-13 13:12:19.675";"2014-10-13 13:24:21.786";"1";"1";"1";"176";"175";"module.devaluation_block1.exec-7101.deval1";"6148";"2014-10-13 13:23:10.416";"9";"6";"1";"2";"1380";"937";"827";"2014-10-13 13:23:04.266";"2";;;;;;;;;;;;;;;;;;;;;;;;;;;;;;;;;;;;;;;;;;;;;;;;;;;;;;;;;;;;;;;;;;;;;;;;;;;;;;;;
"7674asdf";"1995";;"Windows 7";"Rachel's Experiment (D.T.)";"1.0";"2";"1";"1";"2";"1";"1";"2014-10-13 13:12:19.675";"2014-10-13 13:24:21.786";"1";"1";"1";"177";"176";"module.devaluation_block1.exec-7101.deval1";"5374";"2014-10-13 13:23:15.816";"18";"7";"9";"8";"889";"817";"667";"2014-10-13 13:23:10.436";"3";;;;;;;;;;;;;;;;;;;;;;;;;;;;;;;;;;;;;;;;;;;;;;;;;;;;;;;;;;;;;;;;;;;;;;;;;;;;;;;;
"7674asdf";"1995";;"Windows 7";"Rachel's Experiment (D.T.)";"1.0";"2";"1";"1";"2";"1";"1";"2014-10-13 13:12:19.675";"2014-10-13 13:24:21.786";"1";"1";"1";"178";"177";"module.devaluation_block1.exec-7101.deval1";"4902";"2014-10-13 13:23:20.736";"3";"7";"8";"8";"425";"585";"897";"2014-10-13 13:23:15.836";"1";;;;;;;;;;;;;;;;;;;;;;;;;;;;;;;;;;;;;;;;;;;;;;;;;;;;;;;;;;;;;;;;;;;;;;;;;;;;;;;;
"7674asdf";"1995";;"Windows 7";"Rachel's Experiment (D.T.)";"1.0";"2";"1";"1";"2";"1";"1";"2014-10-13 13:12:19.675";"2014-10-13 13:24:21.786";"1";"1";"1";"179";"178";"module.devaluation_block1.exec-7101.deval1";"5140";"2014-10-13 13:23:25.896";"21";"6";"2";"3";"833";"665";"647";"2014-10-13 13:23:20.756";"3";;;;;;;;;;;;;;;;;;;;;;;;;;;;;;;;;;;;;;;;;;;;;;;;;;;;;;;;;;;;;;;;;;;;;;;;;;;;;;;;
"7674asdf";"1995";;"Windows 7";"Rachel's Experiment (D.T.)";"1.0";"2";"1";"1";"2";"1";"1";"2014-10-13 13:12:19.675";"2014-10-13 13:24:21.786";"1";"1";"1";"180";"179";"module.devaluation_block1.exec-7101.deval1";"5395";"2014-10-13 13:23:31.316";"20";"7";"9";"9";"617";"881";"905";"2014-10-13 13:23:25.916";"3";;;;;;;;;;;;;;;;;;;;;;;;;;;;;;;;;;;;;;;;;;;;;;;;;;;;;;;;;;;;;;;;;;;;;;;;;;;;;;;;
"7674asdf";"1995";;"Windows 7";"Rachel's Experiment (D.T.)";"1.0";"2";"1";"1";"2";"1";"1";"2014-10-13 13:12:19.675";"2014-10-13 13:24:21.786";"1";"1";"1";"181";"180";"module.devaluation_block1.exec-7101.deval1";"4860";"2014-10-13 13:23:36.196";"2";"6";"2";"5";"477";"1011";"369";"2014-10-13 13:23:31.336";"1";;;;;;;;;;;;;;;;;;;;;;;;;;;;;;;;;;;;;;;;;;;;;;;;;;;;;;;;;;;;;;;;;;;;;;;;;;;;;;;;
"7674asdf";"1995";;"Windows 7";"Rachel's Experiment (D.T.)";"1.0";"2";"1";"1";"2";"1";"1";"2014-10-13 13:12:19.675";"2014-10-13 13:24:21.786";"1";"1";"1";"182";"181";"module.devaluation_block1.exec-7101.deval1";"4702";"2014-10-13 13:23:40.926";"16";"4";"3";"3";"541";"659";"509";"2014-10-13 13:23:36.216";"2";;;;;;;;;;;;;;;;;;;;;;;;;;;;;;;;;;;;;;;;;;;;;;;;;;;;;;;;;;;;;;;;;;;;;;;;;;;;;;;;
"7674asdf";"1995";;"Windows 7";"Rachel's Experiment (D.T.)";"1.0";"2";"1";"1";"2";"1";"1";"2014-10-13 13:12:19.675";"2014-10-13 13:24:21.786";"1";"1";"1";"183";"182";"module.devaluation_block1.exec-7101.deval1";"4740";"2014-10-13 13:23:45.686";"13";"6";"7";"7";"779";"469";"491";"2014-10-13 13:23:40.946";"2";;;;;;;;;;;;;;;;;;;;;;;;;;;;;;;;;;;;;;;;;;;;;;;;;;;;;;;;;;;;;;;;;;;;;;;;;;;;;;;;
"7674asdf";"1995";;"Windows 7";"Rachel's Experiment (D.T.)";"1.0";"2";"1";"1";"2";"1";"1";"2014-10-13 13:12:19.675";"2014-10-13 13:24:21.786";"1";"1";"1";"184";"183";"module.devaluation_block1.exec-7101.deval1";"4803";"2014-10-13 13:23:50.506";"8";"7";"8";"8";"571";"673";"557";"2014-10-13 13:23:45.706";"1";;;;;;;;;;;;;;;;;;;;;;;;;;;;;;;;;;;;;;;;;;;;;;;;;;;;;;;;;;;;;;;;;;;;;;;;;;;;;;;;
"7674asdf";"1995";;"Windows 7";"Rachel's Experiment (D.T.)";"1.0";"2";"1";"1";"2";"1";"1";"2014-10-13 13:12:19.675";"2014-10-13 13:24:21.786";"1";"1";"1";"185";"184";"module.devaluation_block1.exec-7101.deval1";"4916";"2014-10-13 13:23:55.446";"17";"4";"2";"3";"663";"809";"447";"2014-10-13 13:23:50.526";"2";;;;;;;;;;;;;;;;;;;;;;;;;;;;;;;;;;;;;;;;;;;;;;;;;;;;;;;;;;;;;;;;;;;;;;;;;;;;;;;;
"7674asdf";"1995";;"Windows 7";"Rachel's Experiment (D.T.)";"1.0";"2";"1";"1";"2";"1";"1";"2014-10-13 13:12:19.675";"2014-10-13 13:24:21.786";"1";"1";"1";"186";"185";"module.devaluation_block1.exec-7101.deval1";"5220";"2014-10-13 13:24:00.686";"15";"4";"2";"3";"683";"749";"791";"2014-10-13 13:23:55.466";"2";;;;;;;;;;;;;;;;;;;;;;;;;;;;;;;;;;;;;;;;;;;;;;;;;;;;;;;;;;;;;;;;;;;;;;;;;;;;;;;;
"7674asdf";"1995";;"Windows 7";"Rachel's Experiment (D.T.)";"1.0";"2";"1";"1";"2";"1";"1";"2014-10-13 13:12:19.675";"2014-10-13 13:24:21.786";"1";"1";"1";"187";"186";"module.devaluation_block1.exec-7101.deval1";"5019";"2014-10-13 13:24:05.726";"10";"6";"6";"6";"779";"409";"827";"2014-10-13 13:24:00.706";"2";;;;;;;;;;;;;;;;;;;;;;;;;;;;;;;;;;;;;;;;;;;;;;;;;;;;;;;;;;;;;;;;;;;;;;;;;;;;;;;;
"7674asdf";"1995";;"Windows 7";"Rachel's Experiment (D.T.)";"1.0";"2";"1";"1";"2";"1";"1";"2014-10-13 13:12:19.675";"2014-10-13 13:24:21.786";"1";"1";"1";"188";"187";"module.devaluation_block1.exec-7101.deval1";"4580";"2014-10-13 13:24:10.326";"6";"6";"7";"7";"443";"529";"615";"2014-10-13 13:24:05.746";"1";;;;;;;;;;;;;;;;;;;;;;;;;;;;;;;;;;;;;;;;;;;;;;;;;;;;;;;;;;;;;;;;;;;;;;;;;;;;;;;;
"7674asdf";"1995";;"Windows 7";"Rachel's Experiment (D.T.)";"1.0";"2";"1";"1";"2";"1";"1";"2014-10-13 13:12:19.675";"2014-10-13 13:24:21.786";"1";"1";"1";"189";"188";"module.devaluation_block1.exec-7101.deval1";"4988";"2014-10-13 13:24:15.326";"24";"7";"8";"8";"651";"627";"717";"2014-10-13 13:24:10.346";"3";;;;;;;;;;;;;;;;;;;;;;;;;;;;;;;;;;;;;;;;;;;;;;;;;;;;;;;;;;;;;;;;;;;;;;;;;;;;;;;;
"7674asdf";"1995";;"Windows 7";"Rachel's Experiment (D.T.)";"1.0";"2";"1";"1";"2";"1";"1";"2014-10-13 13:12:19.675";"2014-10-13 13:24:21.786";"1";"1";"1";"190";"189";"module.devaluation_block1.exec-7101.deval1";"4455";"2014-10-13 13:24:19.806";"14";"6";"7";"7";"489";"477";"491";"2014-10-13 13:24:15.356";"2";;;;;;;;;;;;;;;;;;;;;;;;;;;;;;;;;;;;;;;;;;;;;;;;;;;;;;;;;;;;;;;;;;;;;;;;;;;;;;;;
