"user.name";"user.yearOfBirth";"user.sex";"user.osName";"module.name";"module.version";"module.online.subject.code";"module.online.study.id";"module.online.module.nr";"module.online.group.nr";"session.id";"session.index";"session.startTime";"session.endTime";"session.completed";"session.node-1886.DevalQorder";"session.node-5123.conditionType";"trial.id";"trial.index";"trial.name";"trial.deval1.durationTime";"trial.deval1.endTime";"trial.deval1.icon";"trial.deval1.Resp_Attractive";"trial.deval1.Resp_Eat";"trial.deval1.Resp_Taste";"trial.deval1.RT_Attractive";"trial.deval1.RT_Eat";"trial.deval1.RT_Taste";"trial.deval1.startTime";"trial.deval1.stimulus type";"trial.devalPractice.durationTime";"trial.devalPractice.endTime";"trial.devalPractice.icon";"trial.devalPractice.Resp_Attractive";"trial.devalPractice.Resp_Eat";"trial.devalPractice.Resp_Taste";"trial.devalPractice.RT_Attractive";"trial.devalPractice.RT_Eat";"trial.devalPractice.RT_Taste";"trial.devalPractice.startTime";"trial.devalPractice.stimulus type";"trial.GoNoGo1.durationTime";"trial.GoNoGo1.endTime";"trial.GoNoGo1.Error Type";"trial.GoNoGo1.icon";"trial.GoNoGo1.location";"trial.GoNoGo1.outcome";"trial.GoNoGo1.response";"trial.GoNoGo1.result";"trial.GoNoGo1.RT";"trial.GoNoGo1.signal";"trial.GoNoGo1.startTime";"trial.GoNoGo1.stimulus type";"trial.GoNoGo2.durationTime";"trial.GoNoGo2.endTime";"trial.GoNoGo2.Error Type";"trial.GoNoGo2.icon";"trial.GoNoGo2.location";"trial.GoNoGo2.outcome";"trial.GoNoGo2.response";"trial.GoNoGo2.result";"trial.GoNoGo2.RT";"trial.GoNoGo2.signal";"trial.GoNoGo2.startTime";"trial.GoNoGo2.stimulus type";"trial.GoNoGo3.durationTime";"trial.GoNoGo3.endTime";"trial.GoNoGo3.Error Type";"trial.GoNoGo3.icon";"trial.GoNoGo3.location";"trial.GoNoGo3.outcome";"trial.GoNoGo3.response";"trial.GoNoGo3.result";"trial.GoNoGo3.RT";"trial.GoNoGo3.signal";"trial.GoNoGo3.startTime";"trial.GoNoGo3.stimulus type";"trial.GoNoGo4.durationTime";"trial.GoNoGo4.endTime";"trial.GoNoGo4.Error Type";"trial.GoNoGo4.icon";"trial.GoNoGo4.location";"trial.GoNoGo4.outcome";"trial.GoNoGo4.response";"trial.GoNoGo4.result";"trial.GoNoGo4.RT";"trial.GoNoGo4.signal";"trial.GoNoGo4.startTime";"trial.GoNoGo4.stimulus type";"trial.GoNoGo_Practice.durationTime";"trial.GoNoGo_Practice.endTime";"trial.GoNoGo_Practice.icon";"trial.GoNoGo_Practice.location";"trial.GoNoGo_Practice.outcome";"trial.GoNoGo_Practice.response";"trial.GoNoGo_Practice.result";"trial.GoNoGo_Practice.RT";"trial.GoNoGo_Practice.signal";"trial.GoNoGo_Practice.startTime";"trial.GoNoGo_Practice.stimulus type";"trial.GoNoGo_Tutorial.durationTime";"trial.GoNoGo_Tutorial.endTime";"trial.GoNoGo_Tutorial.icon";"trial.GoNoGo_Tutorial.location";"trial.GoNoGo_Tutorial.outcome";"trial.GoNoGo_Tutorial.response";"trial.GoNoGo_Tutorial.result";"trial.GoNoGo_Tutorial.RT";"trial.GoNoGo_Tutorial.signal";"trial.GoNoGo_Tutorial.startTime"
"gaiagaia";;;"Mac OS X";"Rachel's Experiment (D.T.)";"1.0";"2";"1";"1";"2";"4";"1";"2014-10-11 12:14:16.260";"2014-10-11 12:28:07.080";"1";"0";"0";"21";"0";"module.GoNoGotutorial.exec-1899.GoNoGo_Tutorial";;;;;;;;;;;;;;;;;;;;;;;;;;;;;;;;;;;;;;;;;;;;;;;;;;;;;;;;;;;;;;;;;;;;;;;;;;;;;;;;;;"4001";"2014-10-11 12:15:49.204";"leftResponse";"0";"FINISHED";"LEFT";"success";"770";"0";"2014-10-11 12:15:45.202"
"gaiagaia";;;"Mac OS X";"Rachel's Experiment (D.T.)";"1.0";"2";"1";"1";"2";"4";"1";"2014-10-11 12:14:16.260";"2014-10-11 12:28:07.080";"1";"0";"0";"22";"1";"module.GoNoGotutorial.exec-1899.GoNoGo_Tutorial";;;;;;;;;;;;;;;;;;;;;;;;;;;;;;;;;;;;;;;;;;;;;;;;;;;;;;;;;;;;;;;;;;;;;;;;;;;;;;;;;;"4001";"2014-10-11 12:15:54.525";"rightResponse";"1";"FINISHED";"RIGHT";"success";"760";"0";"2014-10-11 12:15:50.523"
"gaiagaia";;;"Mac OS X";"Rachel's Experiment (D.T.)";"1.0";"2";"1";"1";"2";"4";"1";"2014-10-11 12:14:16.260";"2014-10-11 12:28:07.080";"1";"0";"0";"23";"2";"module.GoNoGotutorial.exec-1899.GoNoGo_Tutorial";;;;;;;;;;;;;;;;;;;;;;;;;;;;;;;;;;;;;;;;;;;;;;;;;;;;;;;;;;;;;;;;;;;;;;;;;;;;;;;;;;"4001";"2014-10-11 12:15:59.819";"quickResponse";"0";"FINISHED";"NONE";"failure";"0";"0";"2014-10-11 12:15:55.818"
"gaiagaia";;;"Mac OS X";"Rachel's Experiment (D.T.)";"1.0";"2";"1";"1";"2";"4";"1";"2014-10-11 12:14:16.260";"2014-10-11 12:28:07.080";"1";"0";"0";"24";"3";"module.GoNoGopractice.exec-5563.GoNoGo_Practice";;;;;;;;;;;;;;;;;;;;;;;;;;;;;;;;;;;;;;;;;;;;;;;;;;;;;;;;;;;;;;;;;;;;;;;"1959";"2014-10-11 12:16:11.015";"18";"0";"FINISHED";"LEFT";"success";"560";"0";"2014-10-11 12:16:09.055";"3";;;;;;;;;;
"gaiagaia";;;"Mac OS X";"Rachel's Experiment (D.T.)";"1.0";"2";"1";"1";"2";"4";"1";"2014-10-11 12:14:16.260";"2014-10-11 12:28:07.080";"1";"0";"0";"25";"4";"module.GoNoGopractice.exec-5563.GoNoGo_Practice";;;;;;;;;;;;;;;;;;;;;;;;;;;;;;;;;;;;;;;;;;;;;;;;;;;;;;;;;;;;;;;;;;;;;;;"1953";"2014-10-11 12:16:14.265";"21";"1";"FINISHED";"RIGHT";"success";"392";"0";"2014-10-11 12:16:12.311";"3";;;;;;;;;;
"gaiagaia";;;"Mac OS X";"Rachel's Experiment (D.T.)";"1.0";"2";"1";"1";"2";"4";"1";"2014-10-11 12:14:16.260";"2014-10-11 12:28:07.080";"1";"0";"0";"26";"5";"module.GoNoGopractice.exec-5563.GoNoGo_Practice";;;;;;;;;;;;;;;;;;;;;;;;;;;;;;;;;;;;;;;;;;;;;;;;;;;;;;;;;;;;;;;;;;;;;;;"1953";"2014-10-11 12:16:17.506";"14";"1";"FINISHED";"RIGHT";"success";"383";"0";"2014-10-11 12:16:15.552";"2";;;;;;;;;;
"gaiagaia";;;"Mac OS X";"Rachel's Experiment (D.T.)";"1.0";"2";"1";"1";"2";"4";"1";"2014-10-11 12:14:16.260";"2014-10-11 12:28:07.080";"1";"0";"0";"27";"6";"module.GoNoGopractice.exec-5563.GoNoGo_Practice";;;;;;;;;;;;;;;;;;;;;;;;;;;;;;;;;;;;;;;;;;;;;;;;;;;;;;;;;;;;;;;;;;;;;;;"1954";"2014-10-11 12:16:20.749";"26";"0";"FINISHED";"LEFT";"success";"325";"0";"2014-10-11 12:16:18.794";"3";;;;;;;;;;
"gaiagaia";;;"Mac OS X";"Rachel's Experiment (D.T.)";"1.0";"2";"1";"1";"2";"4";"1";"2014-10-11 12:14:16.260";"2014-10-11 12:28:07.080";"1";"0";"0";"28";"7";"module.GoNoGopractice.exec-5563.GoNoGo_Practice";;;;;;;;;;;;;;;;;;;;;;;;;;;;;;;;;;;;;;;;;;;;;;;;;;;;;;;;;;;;;;;;;;;;;;;"1953";"2014-10-11 12:16:23.989";"2";"0";"FINISHED";"LEFT";"success";"324";"0";"2014-10-11 12:16:22.035";"1";;;;;;;;;;
"gaiagaia";;;"Mac OS X";"Rachel's Experiment (D.T.)";"1.0";"2";"1";"1";"2";"4";"1";"2014-10-11 12:14:16.260";"2014-10-11 12:28:07.080";"1";"0";"0";"29";"8";"module.GoNoGopractice.exec-5563.GoNoGo_Practice";;;;;;;;;;;;;;;;;;;;;;;;;;;;;;;;;;;;;;;;;;;;;;;;;;;;;;;;;;;;;;;;;;;;;;;"1953";"2014-10-11 12:16:27.230";"30";"0";"FINISHED";"LEFT";"success";"394";"0";"2014-10-11 12:16:25.277";"3";;;;;;;;;;
"gaiagaia";;;"Mac OS X";"Rachel's Experiment (D.T.)";"1.0";"2";"1";"1";"2";"4";"1";"2014-10-11 12:14:16.260";"2014-10-11 12:28:07.080";"1";"0";"0";"30";"9";"module.GoNoGopractice.exec-5563.GoNoGo_Practice";;;;;;;;;;;;;;;;;;;;;;;;;;;;;;;;;;;;;;;;;;;;;;;;;;;;;;;;;;;;;;;;;;;;;;;"1954";"2014-10-11 12:16:30.471";"6";"1";"FINISHED";"RIGHT";"success";"346";"0";"2014-10-11 12:16:28.516";"1";;;;;;;;;;
"gaiagaia";;;"Mac OS X";"Rachel's Experiment (D.T.)";"1.0";"2";"1";"1";"2";"4";"1";"2014-10-11 12:14:16.260";"2014-10-11 12:28:07.080";"1";"0";"0";"31";"10";"module.GoNoGopractice.exec-5563.GoNoGo_Practice";;;;;;;;;;;;;;;;;;;;;;;;;;;;;;;;;;;;;;;;;;;;;;;;;;;;;;;;;;;;;;;;;;;;;;;"1953";"2014-10-11 12:16:33.710";"34";"0";"FINISHED";"LEFT";"success";"306";"0";"2014-10-11 12:16:31.756";"3";;;;;;;;;;
"gaiagaia";;;"Mac OS X";"Rachel's Experiment (D.T.)";"1.0";"2";"1";"1";"2";"4";"1";"2014-10-11 12:14:16.260";"2014-10-11 12:28:07.080";"1";"0";"0";"32";"11";"module.GoNoGopractice.exec-5563.GoNoGo_Practice";;;;;;;;;;;;;;;;;;;;;;;;;;;;;;;;;;;;;;;;;;;;;;;;;;;;;;;;;;;;;;;;;;;;;;;"1953";"2014-10-11 12:16:36.948";"23";"1";"FINISHED";"RIGHT";"success";"446";"0";"2014-10-11 12:16:34.995";"3";;;;;;;;;;
"gaiagaia";;;"Mac OS X";"Rachel's Experiment (D.T.)";"1.0";"2";"1";"1";"2";"4";"1";"2014-10-11 12:14:16.260";"2014-10-11 12:28:07.080";"1";"0";"0";"33";"12";"module.GoNoGopractice.exec-5563.GoNoGo_Practice";;;;;;;;;;;;;;;;;;;;;;;;;;;;;;;;;;;;;;;;;;;;;;;;;;;;;;;;;;;;;;;;;;;;;;;"1953";"2014-10-11 12:16:40.188";"13";"0";"FINISHED";"LEFT";"success";"383";"0";"2014-10-11 12:16:38.235";"2";;;;;;;;;;
"gaiagaia";;;"Mac OS X";"Rachel's Experiment (D.T.)";"1.0";"2";"1";"1";"2";"4";"1";"2014-10-11 12:14:16.260";"2014-10-11 12:28:07.080";"1";"0";"0";"34";"13";"module.GoNoGopractice.exec-5563.GoNoGo_Practice";;;;;;;;;;;;;;;;;;;;;;;;;;;;;;;;;;;;;;;;;;;;;;;;;;;;;;;;;;;;;;;;;;;;;;;"1953";"2014-10-11 12:16:43.431";"3";"1";"FINISHED";"RIGHT";"success";"316";"0";"2014-10-11 12:16:41.477";"1";;;;;;;;;;
"gaiagaia";;;"Mac OS X";"Rachel's Experiment (D.T.)";"1.0";"2";"1";"1";"2";"4";"1";"2014-10-11 12:14:16.260";"2014-10-11 12:28:07.080";"1";"0";"0";"35";"14";"module.GoNoGopractice.exec-5563.GoNoGo_Practice";;;;;;;;;;;;;;;;;;;;;;;;;;;;;;;;;;;;;;;;;;;;;;;;;;;;;;;;;;;;;;;;;;;;;;;"1954";"2014-10-11 12:16:46.670";"27";"1";"FINISHED";"RIGHT";"success";"477";"0";"2014-10-11 12:16:44.715";"3";;;;;;;;;;
"gaiagaia";;;"Mac OS X";"Rachel's Experiment (D.T.)";"1.0";"2";"1";"1";"2";"4";"1";"2014-10-11 12:14:16.260";"2014-10-11 12:28:07.080";"1";"0";"0";"36";"15";"module.training_block1.exec-3682.GoNoGo1";;;;;;;;;;;;;;;;;;;;;;;"1252";"2014-10-11 12:16:55.593";"NST_correctLoc";"0";"0";"FINISHED";"LEFT";"success";"452";"0";"2014-10-11 12:16:54.341";"1";;;;;;;;;;;;;;;;;;;;;;;;;;;;;;;;;;;;;;;;;;;;;;;;;;;;;;;;;
"gaiagaia";;;"Mac OS X";"Rachel's Experiment (D.T.)";"1.0";"2";"1";"1";"2";"4";"1";"2014-10-11 12:14:16.260";"2014-10-11 12:28:07.080";"1";"0";"0";"37";"16";"module.training_block1.exec-3682.GoNoGo1";;;;;;;;;;;;;;;;;;;;;;;"1251";"2014-10-11 12:16:58.129";"NST_correctLoc";"13";"0";"FINISHED";"LEFT";"success";"364";"0";"2014-10-11 12:16:56.877";"2";;;;;;;;;;;;;;;;;;;;;;;;;;;;;;;;;;;;;;;;;;;;;;;;;;;;;;;;;
"gaiagaia";;;"Mac OS X";"Rachel's Experiment (D.T.)";"1.0";"2";"1";"1";"2";"4";"1";"2014-10-11 12:14:16.260";"2014-10-11 12:28:07.080";"1";"0";"0";"38";"17";"module.training_block1.exec-3682.GoNoGo1";;;;;;;;;;;;;;;;;;;;;;;"1251";"2014-10-11 12:17:00.675";"NST_correctLoc";"15";"0";"FINISHED";"LEFT";"success";"393";"0";"2014-10-11 12:16:59.424";"2";;;;;;;;;;;;;;;;;;;;;;;;;;;;;;;;;;;;;;;;;;;;;;;;;;;;;;;;;
"gaiagaia";;;"Mac OS X";"Rachel's Experiment (D.T.)";"1.0";"2";"1";"1";"2";"4";"1";"2014-10-11 12:14:16.260";"2014-10-11 12:28:07.080";"1";"0";"0";"39";"18";"module.training_block1.exec-3682.GoNoGo1";;;;;;;;;;;;;;;;;;;;;;;"1251";"2014-10-11 12:17:03.213";"NST_correctLoc";"4";"1";"FINISHED";"RIGHT";"success";"376";"0";"2014-10-11 12:17:01.961";"1";;;;;;;;;;;;;;;;;;;;;;;;;;;;;;;;;;;;;;;;;;;;;;;;;;;;;;;;;
"gaiagaia";;;"Mac OS X";"Rachel's Experiment (D.T.)";"1.0";"2";"1";"1";"2";"4";"1";"2014-10-11 12:14:16.260";"2014-10-11 12:28:07.080";"1";"0";"0";"40";"19";"module.training_block1.exec-3682.GoNoGo1";;;;;;;;;;;;;;;;;;;;;;;"1251";"2014-10-11 12:17:05.752";"NST_correctLoc";"11";"1";"FINISHED";"RIGHT";"success";"420";"0";"2014-10-11 12:17:04.500";"2";;;;;;;;;;;;;;;;;;;;;;;;;;;;;;;;;;;;;;;;;;;;;;;;;;;;;;;;;
"gaiagaia";;;"Mac OS X";"Rachel's Experiment (D.T.)";"1.0";"2";"1";"1";"2";"4";"1";"2014-10-11 12:14:16.260";"2014-10-11 12:28:07.080";"1";"0";"0";"41";"20";"module.training_block1.exec-3682.GoNoGo1";;;;;;;;;;;;;;;;;;;;;;;"1251";"2014-10-11 12:17:08.285";"NST_correctLoc";"34";"1";"FINISHED";"RIGHT";"success";"431";"0";"2014-10-11 12:17:07.034";"3";;;;;;;;;;;;;;;;;;;;;;;;;;;;;;;;;;;;;;;;;;;;;;;;;;;;;;;;;
"gaiagaia";;;"Mac OS X";"Rachel's Experiment (D.T.)";"1.0";"2";"1";"1";"2";"4";"1";"2014-10-11 12:14:16.260";"2014-10-11 12:28:07.080";"1";"0";"0";"42";"21";"module.training_block1.exec-3682.GoNoGo1";;;;;;;;;;;;;;;;;;;;;;;"1251";"2014-10-11 12:17:10.823";"NST_correctLoc";"31";"1";"FINISHED";"RIGHT";"success";"389";"0";"2014-10-11 12:17:09.571";"3";;;;;;;;;;;;;;;;;;;;;;;;;;;;;;;;;;;;;;;;;;;;;;;;;;;;;;;;;
"gaiagaia";;;"Mac OS X";"Rachel's Experiment (D.T.)";"1.0";"2";"1";"1";"2";"4";"1";"2014-10-11 12:14:16.260";"2014-10-11 12:28:07.080";"1";"0";"0";"43";"22";"module.training_block1.exec-3682.GoNoGo1";;;;;;;;;;;;;;;;;;;;;;;"1251";"2014-10-11 12:17:13.356";"NST_correctLoc";"21";"0";"FINISHED";"LEFT";"success";"360";"0";"2014-10-11 12:17:12.105";"3";;;;;;;;;;;;;;;;;;;;;;;;;;;;;;;;;;;;;;;;;;;;;;;;;;;;;;;;;
"gaiagaia";;;"Mac OS X";"Rachel's Experiment (D.T.)";"1.0";"2";"1";"1";"2";"4";"1";"2014-10-11 12:14:16.260";"2014-10-11 12:28:07.080";"1";"0";"0";"44";"23";"module.training_block1.exec-3682.GoNoGo1";;;;;;;;;;;;;;;;;;;;;;;"1251";"2014-10-11 12:17:15.889";"NST_correctLoc";"26";"1";"FINISHED";"RIGHT";"success";"363";"0";"2014-10-11 12:17:14.638";"3";;;;;;;;;;;;;;;;;;;;;;;;;;;;;;;;;;;;;;;;;;;;;;;;;;;;;;;;;
"gaiagaia";;;"Mac OS X";"Rachel's Experiment (D.T.)";"1.0";"2";"1";"1";"2";"4";"1";"2014-10-11 12:14:16.260";"2014-10-11 12:28:07.080";"1";"0";"0";"45";"24";"module.training_block1.exec-3682.GoNoGo1";;;;;;;;;;;;;;;;;;;;;;;"1251";"2014-10-11 12:17:18.426";"NST_correctLoc";"35";"0";"FINISHED";"LEFT";"success";"418";"0";"2014-10-11 12:17:17.175";"3";;;;;;;;;;;;;;;;;;;;;;;;;;;;;;;;;;;;;;;;;;;;;;;;;;;;;;;;;
"gaiagaia";;;"Mac OS X";"Rachel's Experiment (D.T.)";"1.0";"2";"1";"1";"2";"4";"1";"2014-10-11 12:14:16.260";"2014-10-11 12:28:07.080";"1";"0";"0";"46";"25";"module.training_block1.exec-3682.GoNoGo1";;;;;;;;;;;;;;;;;;;;;;;"1251";"2014-10-11 12:17:20.962";"NST_correctLoc";"24";"1";"FINISHED";"RIGHT";"success";"426";"0";"2014-10-11 12:17:19.710";"3";;;;;;;;;;;;;;;;;;;;;;;;;;;;;;;;;;;;;;;;;;;;;;;;;;;;;;;;;
"gaiagaia";;;"Mac OS X";"Rachel's Experiment (D.T.)";"1.0";"2";"1";"1";"2";"4";"1";"2014-10-11 12:14:16.260";"2014-10-11 12:28:07.080";"1";"0";"0";"47";"26";"module.training_block1.exec-3682.GoNoGo1";;;;;;;;;;;;;;;;;;;;;;;"1251";"2014-10-11 12:17:23.497";"NST_correctLoc";"29";"0";"FINISHED";"LEFT";"success";"314";"0";"2014-10-11 12:17:22.246";"3";;;;;;;;;;;;;;;;;;;;;;;;;;;;;;;;;;;;;;;;;;;;;;;;;;;;;;;;;
"gaiagaia";;;"Mac OS X";"Rachel's Experiment (D.T.)";"1.0";"2";"1";"1";"2";"4";"1";"2014-10-11 12:14:16.260";"2014-10-11 12:28:07.080";"1";"0";"0";"48";"27";"module.training_block1.exec-3682.GoNoGo1";;;;;;;;;;;;;;;;;;;;;;;"1251";"2014-10-11 12:17:26.033";"NST_correctLoc";"22";"0";"FINISHED";"LEFT";"success";"379";"0";"2014-10-11 12:17:24.782";"3";;;;;;;;;;;;;;;;;;;;;;;;;;;;;;;;;;;;;;;;;;;;;;;;;;;;;;;;;
"gaiagaia";;;"Mac OS X";"Rachel's Experiment (D.T.)";"1.0";"2";"1";"1";"2";"4";"1";"2014-10-11 12:14:16.260";"2014-10-11 12:28:07.080";"1";"0";"0";"49";"28";"module.training_block1.exec-3682.GoNoGo1";;;;;;;;;;;;;;;;;;;;;;;"1251";"2014-10-11 12:17:28.569";"NST_correctLoc";"16";"0";"FINISHED";"LEFT";"success";"403";"0";"2014-10-11 12:17:27.317";"2";;;;;;;;;;;;;;;;;;;;;;;;;;;;;;;;;;;;;;;;;;;;;;;;;;;;;;;;;
"gaiagaia";;;"Mac OS X";"Rachel's Experiment (D.T.)";"1.0";"2";"1";"1";"2";"4";"1";"2014-10-11 12:14:16.260";"2014-10-11 12:28:07.080";"1";"0";"0";"50";"29";"module.training_block1.exec-3682.GoNoGo1";;;;;;;;;;;;;;;;;;;;;;;"1251";"2014-10-11 12:17:31.105";"NST_correctLoc";"10";"1";"FINISHED";"RIGHT";"success";"371";"0";"2014-10-11 12:17:29.854";"2";;;;;;;;;;;;;;;;;;;;;;;;;;;;;;;;;;;;;;;;;;;;;;;;;;;;;;;;;
"gaiagaia";;;"Mac OS X";"Rachel's Experiment (D.T.)";"1.0";"2";"1";"1";"2";"4";"1";"2014-10-11 12:14:16.260";"2014-10-11 12:28:07.080";"1";"0";"0";"51";"30";"module.training_block1.exec-3682.GoNoGo1";;;;;;;;;;;;;;;;;;;;;;;"1251";"2014-10-11 12:17:33.642";"NST_correctLoc";"8";"1";"FINISHED";"RIGHT";"success";"441";"0";"2014-10-11 12:17:32.391";"1";;;;;;;;;;;;;;;;;;;;;;;;;;;;;;;;;;;;;;;;;;;;;;;;;;;;;;;;;
"gaiagaia";;;"Mac OS X";"Rachel's Experiment (D.T.)";"1.0";"2";"1";"1";"2";"4";"1";"2014-10-11 12:14:16.260";"2014-10-11 12:28:07.080";"1";"0";"0";"52";"31";"module.training_block1.exec-3682.GoNoGo1";;;;;;;;;;;;;;;;;;;;;;;"1251";"2014-10-11 12:17:36.174";"NST_correctLoc";"2";"1";"FINISHED";"RIGHT";"success";"437";"0";"2014-10-11 12:17:34.923";"1";;;;;;;;;;;;;;;;;;;;;;;;;;;;;;;;;;;;;;;;;;;;;;;;;;;;;;;;;
"gaiagaia";;;"Mac OS X";"Rachel's Experiment (D.T.)";"1.0";"2";"1";"1";"2";"4";"1";"2014-10-11 12:14:16.260";"2014-10-11 12:28:07.080";"1";"0";"0";"53";"32";"module.training_block1.exec-3682.GoNoGo1";;;;;;;;;;;;;;;;;;;;;;;"1251";"2014-10-11 12:17:38.706";"NST_correctLoc";"23";"1";"FINISHED";"RIGHT";"success";"426";"0";"2014-10-11 12:17:37.454";"3";;;;;;;;;;;;;;;;;;;;;;;;;;;;;;;;;;;;;;;;;;;;;;;;;;;;;;;;;
"gaiagaia";;;"Mac OS X";"Rachel's Experiment (D.T.)";"1.0";"2";"1";"1";"2";"4";"1";"2014-10-11 12:14:16.260";"2014-10-11 12:28:07.080";"1";"0";"0";"54";"33";"module.training_block1.exec-3682.GoNoGo1";;;;;;;;;;;;;;;;;;;;;;;"1251";"2014-10-11 12:17:41.241";"NST_correctLoc";"17";"0";"FINISHED";"LEFT";"success";"387";"0";"2014-10-11 12:17:39.989";"2";;;;;;;;;;;;;;;;;;;;;;;;;;;;;;;;;;;;;;;;;;;;;;;;;;;;;;;;;
"gaiagaia";;;"Mac OS X";"Rachel's Experiment (D.T.)";"1.0";"2";"1";"1";"2";"4";"1";"2014-10-11 12:14:16.260";"2014-10-11 12:28:07.080";"1";"0";"0";"55";"34";"module.training_block1.exec-3682.GoNoGo1";;;;;;;;;;;;;;;;;;;;;;;"1251";"2014-10-11 12:17:43.776";"NST_correctLoc";"33";"1";"FINISHED";"RIGHT";"success";"443";"0";"2014-10-11 12:17:42.525";"3";;;;;;;;;;;;;;;;;;;;;;;;;;;;;;;;;;;;;;;;;;;;;;;;;;;;;;;;;
"gaiagaia";;;"Mac OS X";"Rachel's Experiment (D.T.)";"1.0";"2";"1";"1";"2";"4";"1";"2014-10-11 12:14:16.260";"2014-10-11 12:28:07.080";"1";"0";"0";"56";"35";"module.training_block1.exec-3682.GoNoGo1";;;;;;;;;;;;;;;;;;;;;;;"1251";"2014-10-11 12:17:46.311";"NST_correctLoc";"18";"1";"FINISHED";"RIGHT";"success";"380";"0";"2014-10-11 12:17:45.060";"3";;;;;;;;;;;;;;;;;;;;;;;;;;;;;;;;;;;;;;;;;;;;;;;;;;;;;;;;;
"gaiagaia";;;"Mac OS X";"Rachel's Experiment (D.T.)";"1.0";"2";"1";"1";"2";"4";"1";"2014-10-11 12:14:16.260";"2014-10-11 12:28:07.080";"1";"0";"0";"57";"36";"module.training_block1.exec-3682.GoNoGo1";;;;;;;;;;;;;;;;;;;;;;;"1251";"2014-10-11 12:17:48.850";"NST_correctLoc";"32";"1";"FINISHED";"RIGHT";"success";"393";"0";"2014-10-11 12:17:47.599";"3";;;;;;;;;;;;;;;;;;;;;;;;;;;;;;;;;;;;;;;;;;;;;;;;;;;;;;;;;
"gaiagaia";;;"Mac OS X";"Rachel's Experiment (D.T.)";"1.0";"2";"1";"1";"2";"4";"1";"2014-10-11 12:14:16.260";"2014-10-11 12:28:07.080";"1";"0";"0";"58";"37";"module.training_block1.exec-3682.GoNoGo1";;;;;;;;;;;;;;;;;;;;;;;"1251";"2014-10-11 12:17:51.385";"NST_correctLoc";"5";"1";"FINISHED";"RIGHT";"success";"410";"0";"2014-10-11 12:17:50.134";"1";;;;;;;;;;;;;;;;;;;;;;;;;;;;;;;;;;;;;;;;;;;;;;;;;;;;;;;;;
"gaiagaia";;;"Mac OS X";"Rachel's Experiment (D.T.)";"1.0";"2";"1";"1";"2";"4";"1";"2014-10-11 12:14:16.260";"2014-10-11 12:28:07.080";"1";"0";"0";"59";"38";"module.training_block1.exec-3682.GoNoGo1";;;;;;;;;;;;;;;;;;;;;;;"1251";"2014-10-11 12:17:53.918";"NST_correctLoc";"6";"0";"FINISHED";"LEFT";"success";"357";"0";"2014-10-11 12:17:52.666";"1";;;;;;;;;;;;;;;;;;;;;;;;;;;;;;;;;;;;;;;;;;;;;;;;;;;;;;;;;
"gaiagaia";;;"Mac OS X";"Rachel's Experiment (D.T.)";"1.0";"2";"1";"1";"2";"4";"1";"2014-10-11 12:14:16.260";"2014-10-11 12:28:07.080";"1";"0";"0";"60";"39";"module.training_block1.exec-3682.GoNoGo1";;;;;;;;;;;;;;;;;;;;;;;"1250";"2014-10-11 12:17:56.639";"NST_correctLoc";"1";"1";"FINISHED";"RIGHT";"success";"371";"0";"2014-10-11 12:17:55.388";"1";;;;;;;;;;;;;;;;;;;;;;;;;;;;;;;;;;;;;;;;;;;;;;;;;;;;;;;;;
"gaiagaia";;;"Mac OS X";"Rachel's Experiment (D.T.)";"1.0";"2";"1";"1";"2";"4";"1";"2014-10-11 12:14:16.260";"2014-10-11 12:28:07.080";"1";"0";"0";"61";"40";"module.training_block1.exec-3682.GoNoGo1";;;;;;;;;;;;;;;;;;;;;;;"1251";"2014-10-11 12:17:59.173";"NST_correctLoc";"30";"0";"FINISHED";"LEFT";"success";"358";"0";"2014-10-11 12:17:57.922";"3";;;;;;;;;;;;;;;;;;;;;;;;;;;;;;;;;;;;;;;;;;;;;;;;;;;;;;;;;
"gaiagaia";;;"Mac OS X";"Rachel's Experiment (D.T.)";"1.0";"2";"1";"1";"2";"4";"1";"2014-10-11 12:14:16.260";"2014-10-11 12:28:07.080";"1";"0";"0";"62";"41";"module.training_block1.exec-3682.GoNoGo1";;;;;;;;;;;;;;;;;;;;;;;"1251";"2014-10-11 12:18:01.709";"NST_correctLoc";"7";"0";"FINISHED";"LEFT";"success";"389";"0";"2014-10-11 12:18:00.458";"1";;;;;;;;;;;;;;;;;;;;;;;;;;;;;;;;;;;;;;;;;;;;;;;;;;;;;;;;;
"gaiagaia";;;"Mac OS X";"Rachel's Experiment (D.T.)";"1.0";"2";"1";"1";"2";"4";"1";"2014-10-11 12:14:16.260";"2014-10-11 12:28:07.080";"1";"0";"0";"63";"42";"module.training_block1.exec-3682.GoNoGo1";;;;;;;;;;;;;;;;;;;;;;;"1251";"2014-10-11 12:18:04.244";"NST_correctLoc";"14";"0";"FINISHED";"LEFT";"success";"399";"0";"2014-10-11 12:18:02.993";"2";;;;;;;;;;;;;;;;;;;;;;;;;;;;;;;;;;;;;;;;;;;;;;;;;;;;;;;;;
"gaiagaia";;;"Mac OS X";"Rachel's Experiment (D.T.)";"1.0";"2";"1";"1";"2";"4";"1";"2014-10-11 12:14:16.260";"2014-10-11 12:28:07.080";"1";"0";"0";"64";"43";"module.training_block1.exec-3682.GoNoGo1";;;;;;;;;;;;;;;;;;;;;;;"1251";"2014-10-11 12:18:06.777";"NST_correctLoc";"9";"0";"FINISHED";"LEFT";"success";"433";"0";"2014-10-11 12:18:05.526";"2";;;;;;;;;;;;;;;;;;;;;;;;;;;;;;;;;;;;;;;;;;;;;;;;;;;;;;;;;
"gaiagaia";;;"Mac OS X";"Rachel's Experiment (D.T.)";"1.0";"2";"1";"1";"2";"4";"1";"2014-10-11 12:14:16.260";"2014-10-11 12:28:07.080";"1";"0";"0";"65";"44";"module.training_block1.exec-3682.GoNoGo1";;;;;;;;;;;;;;;;;;;;;;;"1251";"2014-10-11 12:18:09.311";"NST_correctLoc";"3";"1";"FINISHED";"RIGHT";"success";"355";"0";"2014-10-11 12:18:08.060";"1";;;;;;;;;;;;;;;;;;;;;;;;;;;;;;;;;;;;;;;;;;;;;;;;;;;;;;;;;
"gaiagaia";;;"Mac OS X";"Rachel's Experiment (D.T.)";"1.0";"2";"1";"1";"2";"4";"1";"2014-10-11 12:14:16.260";"2014-10-11 12:28:07.080";"1";"0";"0";"66";"45";"module.training_block1.exec-3682.GoNoGo1";;;;;;;;;;;;;;;;;;;;;;;"1251";"2014-10-11 12:18:11.878";"NST_correctLoc";"27";"1";"FINISHED";"RIGHT";"success";"405";"0";"2014-10-11 12:18:10.627";"3";;;;;;;;;;;;;;;;;;;;;;;;;;;;;;;;;;;;;;;;;;;;;;;;;;;;;;;;;
"gaiagaia";;;"Mac OS X";"Rachel's Experiment (D.T.)";"1.0";"2";"1";"1";"2";"4";"1";"2014-10-11 12:14:16.260";"2014-10-11 12:28:07.080";"1";"0";"0";"67";"46";"module.training_block1.exec-3682.GoNoGo1";;;;;;;;;;;;;;;;;;;;;;;"1251";"2014-10-11 12:18:14.412";"NST_correctLoc";"28";"1";"FINISHED";"RIGHT";"success";"334";"0";"2014-10-11 12:18:13.161";"3";;;;;;;;;;;;;;;;;;;;;;;;;;;;;;;;;;;;;;;;;;;;;;;;;;;;;;;;;
"gaiagaia";;;"Mac OS X";"Rachel's Experiment (D.T.)";"1.0";"2";"1";"1";"2";"4";"1";"2014-10-11 12:14:16.260";"2014-10-11 12:28:07.080";"1";"0";"0";"68";"47";"module.training_block1.exec-3682.GoNoGo1";;;;;;;;;;;;;;;;;;;;;;;"1251";"2014-10-11 12:18:16.948";"NST_correctLoc";"19";"1";"FINISHED";"RIGHT";"success";"382";"0";"2014-10-11 12:18:15.697";"3";;;;;;;;;;;;;;;;;;;;;;;;;;;;;;;;;;;;;;;;;;;;;;;;;;;;;;;;;
"gaiagaia";;;"Mac OS X";"Rachel's Experiment (D.T.)";"1.0";"2";"1";"1";"2";"4";"1";"2014-10-11 12:14:16.260";"2014-10-11 12:28:07.080";"1";"0";"0";"69";"48";"module.training_block1.exec-3682.GoNoGo1";;;;;;;;;;;;;;;;;;;;;;;"1251";"2014-10-11 12:18:19.490";"NST_correctLoc";"20";"1";"FINISHED";"RIGHT";"success";"393";"0";"2014-10-11 12:18:18.238";"3";;;;;;;;;;;;;;;;;;;;;;;;;;;;;;;;;;;;;;;;;;;;;;;;;;;;;;;;;
"gaiagaia";;;"Mac OS X";"Rachel's Experiment (D.T.)";"1.0";"2";"1";"1";"2";"4";"1";"2014-10-11 12:14:16.260";"2014-10-11 12:28:07.080";"1";"0";"0";"70";"49";"module.training_block1.exec-3682.GoNoGo1";;;;;;;;;;;;;;;;;;;;;;;"1251";"2014-10-11 12:18:22.024";"NST_correctLoc";"12";"0";"FINISHED";"LEFT";"success";"370";"0";"2014-10-11 12:18:20.773";"2";;;;;;;;;;;;;;;;;;;;;;;;;;;;;;;;;;;;;;;;;;;;;;;;;;;;;;;;;
"gaiagaia";;;"Mac OS X";"Rachel's Experiment (D.T.)";"1.0";"2";"1";"1";"2";"4";"1";"2014-10-11 12:14:16.260";"2014-10-11 12:28:07.080";"1";"0";"0";"71";"50";"module.training_block1.exec-3682.GoNoGo1";;;;;;;;;;;;;;;;;;;;;;;"1251";"2014-10-11 12:18:24.558";"NST_correctLoc";"25";"1";"FINISHED";"RIGHT";"success";"381";"0";"2014-10-11 12:18:23.306";"3";;;;;;;;;;;;;;;;;;;;;;;;;;;;;;;;;;;;;;;;;;;;;;;;;;;;;;;;;
"gaiagaia";;;"Mac OS X";"Rachel's Experiment (D.T.)";"1.0";"2";"1";"1";"2";"4";"1";"2014-10-11 12:14:16.260";"2014-10-11 12:28:07.080";"1";"0";"0";"72";"51";"module.training_block2.exec-9529.GoNoGo2";;;;;;;;;;;;;;;;;;;;;;;;;;;;;;;;;;;"1251";"2014-10-11 12:18:35.674";"NST_correctLoc";"24";"0";"FINISHED";"LEFT";"success";"396";"0";"2014-10-11 12:18:34.423";"3";;;;;;;;;;;;;;;;;;;;;;;;;;;;;;;;;;;;;;;;;;;;;
"gaiagaia";;;"Mac OS X";"Rachel's Experiment (D.T.)";"1.0";"2";"1";"1";"2";"4";"1";"2014-10-11 12:14:16.260";"2014-10-11 12:28:07.080";"1";"0";"0";"73";"52";"module.training_block2.exec-9529.GoNoGo2";;;;;;;;;;;;;;;;;;;;;;;;;;;;;;;;;;;"1251";"2014-10-11 12:18:38.205";"NST_correctLoc";"23";"0";"FINISHED";"LEFT";"success";"345";"0";"2014-10-11 12:18:36.954";"3";;;;;;;;;;;;;;;;;;;;;;;;;;;;;;;;;;;;;;;;;;;;;
"gaiagaia";;;"Mac OS X";"Rachel's Experiment (D.T.)";"1.0";"2";"1";"1";"2";"4";"1";"2014-10-11 12:14:16.260";"2014-10-11 12:28:07.080";"1";"0";"0";"74";"53";"module.training_block2.exec-9529.GoNoGo2";;;;;;;;;;;;;;;;;;;;;;;;;;;;;;;;;;;"1250";"2014-10-11 12:18:40.735";"NST_correctLoc";"19";"1";"FINISHED";"RIGHT";"success";"350";"0";"2014-10-11 12:18:39.484";"3";;;;;;;;;;;;;;;;;;;;;;;;;;;;;;;;;;;;;;;;;;;;;
"gaiagaia";;;"Mac OS X";"Rachel's Experiment (D.T.)";"1.0";"2";"1";"1";"2";"4";"1";"2014-10-11 12:14:16.260";"2014-10-11 12:28:07.080";"1";"0";"0";"75";"54";"module.training_block2.exec-9529.GoNoGo2";;;;;;;;;;;;;;;;;;;;;;;;;;;;;;;;;;;"1251";"2014-10-11 12:18:43.268";"NST_correctLoc";"2";"0";"FINISHED";"LEFT";"success";"314";"0";"2014-10-11 12:18:42.017";"1";;;;;;;;;;;;;;;;;;;;;;;;;;;;;;;;;;;;;;;;;;;;;
"gaiagaia";;;"Mac OS X";"Rachel's Experiment (D.T.)";"1.0";"2";"1";"1";"2";"4";"1";"2014-10-11 12:14:16.260";"2014-10-11 12:28:07.080";"1";"0";"0";"76";"55";"module.training_block2.exec-9529.GoNoGo2";;;;;;;;;;;;;;;;;;;;;;;;;;;;;;;;;;;"1250";"2014-10-11 12:18:45.799";"NST_correctLoc";"0";"1";"FINISHED";"RIGHT";"success";"326";"0";"2014-10-11 12:18:44.548";"1";;;;;;;;;;;;;;;;;;;;;;;;;;;;;;;;;;;;;;;;;;;;;
"gaiagaia";;;"Mac OS X";"Rachel's Experiment (D.T.)";"1.0";"2";"1";"1";"2";"4";"1";"2014-10-11 12:14:16.260";"2014-10-11 12:28:07.080";"1";"0";"0";"77";"56";"module.training_block2.exec-9529.GoNoGo2";;;;;;;;;;;;;;;;;;;;;;;;;;;;;;;;;;;"1250";"2014-10-11 12:18:48.330";"NST_correctLoc";"34";"1";"FINISHED";"RIGHT";"success";"339";"0";"2014-10-11 12:18:47.079";"3";;;;;;;;;;;;;;;;;;;;;;;;;;;;;;;;;;;;;;;;;;;;;
"gaiagaia";;;"Mac OS X";"Rachel's Experiment (D.T.)";"1.0";"2";"1";"1";"2";"4";"1";"2014-10-11 12:14:16.260";"2014-10-11 12:28:07.080";"1";"0";"0";"78";"57";"module.training_block2.exec-9529.GoNoGo2";;;;;;;;;;;;;;;;;;;;;;;;;;;;;;;;;;;"1251";"2014-10-11 12:18:50.865";"NST_correctLoc";"9";"1";"FINISHED";"RIGHT";"success";"405";"0";"2014-10-11 12:18:49.614";"2";;;;;;;;;;;;;;;;;;;;;;;;;;;;;;;;;;;;;;;;;;;;;
"gaiagaia";;;"Mac OS X";"Rachel's Experiment (D.T.)";"1.0";"2";"1";"1";"2";"4";"1";"2014-10-11 12:14:16.260";"2014-10-11 12:28:07.080";"1";"0";"0";"79";"58";"module.training_block2.exec-9529.GoNoGo2";;;;;;;;;;;;;;;;;;;;;;;;;;;;;;;;;;;"1250";"2014-10-11 12:18:53.395";"NST_correctLoc";"11";"0";"FINISHED";"LEFT";"success";"322";"0";"2014-10-11 12:18:52.144";"2";;;;;;;;;;;;;;;;;;;;;;;;;;;;;;;;;;;;;;;;;;;;;
"gaiagaia";;;"Mac OS X";"Rachel's Experiment (D.T.)";"1.0";"2";"1";"1";"2";"4";"1";"2014-10-11 12:14:16.260";"2014-10-11 12:28:07.080";"1";"0";"0";"80";"59";"module.training_block2.exec-9529.GoNoGo2";;;;;;;;;;;;;;;;;;;;;;;;;;;;;;;;;;;"1251";"2014-10-11 12:18:55.931";"NST_correctLoc";"8";"1";"FINISHED";"RIGHT";"success";"315";"0";"2014-10-11 12:18:54.679";"1";;;;;;;;;;;;;;;;;;;;;;;;;;;;;;;;;;;;;;;;;;;;;
"gaiagaia";;;"Mac OS X";"Rachel's Experiment (D.T.)";"1.0";"2";"1";"1";"2";"4";"1";"2014-10-11 12:14:16.260";"2014-10-11 12:28:07.080";"1";"0";"0";"81";"60";"module.training_block2.exec-9529.GoNoGo2";;;;;;;;;;;;;;;;;;;;;;;;;;;;;;;;;;;"1251";"2014-10-11 12:18:58.466";"NST_correctLoc";"18";"0";"FINISHED";"LEFT";"success";"404";"0";"2014-10-11 12:18:57.215";"3";;;;;;;;;;;;;;;;;;;;;;;;;;;;;;;;;;;;;;;;;;;;;
"gaiagaia";;;"Mac OS X";"Rachel's Experiment (D.T.)";"1.0";"2";"1";"1";"2";"4";"1";"2014-10-11 12:14:16.260";"2014-10-11 12:28:07.080";"1";"0";"0";"82";"61";"module.training_block2.exec-9529.GoNoGo2";;;;;;;;;;;;;;;;;;;;;;;;;;;;;;;;;;;"1251";"2014-10-11 12:19:00.996";"NST_correctLoc";"5";"1";"FINISHED";"RIGHT";"success";"394";"0";"2014-10-11 12:18:59.744";"1";;;;;;;;;;;;;;;;;;;;;;;;;;;;;;;;;;;;;;;;;;;;;
"gaiagaia";;;"Mac OS X";"Rachel's Experiment (D.T.)";"1.0";"2";"1";"1";"2";"4";"1";"2014-10-11 12:14:16.260";"2014-10-11 12:28:07.080";"1";"0";"0";"83";"62";"module.training_block2.exec-9529.GoNoGo2";;;;;;;;;;;;;;;;;;;;;;;;;;;;;;;;;;;"1251";"2014-10-11 12:19:03.526";"NST_correctLoc";"21";"0";"FINISHED";"LEFT";"success";"360";"0";"2014-10-11 12:19:02.274";"3";;;;;;;;;;;;;;;;;;;;;;;;;;;;;;;;;;;;;;;;;;;;;
"gaiagaia";;;"Mac OS X";"Rachel's Experiment (D.T.)";"1.0";"2";"1";"1";"2";"4";"1";"2014-10-11 12:14:16.260";"2014-10-11 12:28:07.080";"1";"0";"0";"84";"63";"module.training_block2.exec-9529.GoNoGo2";;;;;;;;;;;;;;;;;;;;;;;;;;;;;;;;;;;"1251";"2014-10-11 12:19:06.056";"NST_correctLoc";"28";"0";"FINISHED";"LEFT";"success";"390";"0";"2014-10-11 12:19:04.805";"3";;;;;;;;;;;;;;;;;;;;;;;;;;;;;;;;;;;;;;;;;;;;;
"gaiagaia";;;"Mac OS X";"Rachel's Experiment (D.T.)";"1.0";"2";"1";"1";"2";"4";"1";"2014-10-11 12:14:16.260";"2014-10-11 12:28:07.080";"1";"0";"0";"85";"64";"module.training_block2.exec-9529.GoNoGo2";;;;;;;;;;;;;;;;;;;;;;;;;;;;;;;;;;;"1251";"2014-10-11 12:19:08.587";"NST_correctLoc";"14";"1";"FINISHED";"RIGHT";"success";"314";"0";"2014-10-11 12:19:07.336";"2";;;;;;;;;;;;;;;;;;;;;;;;;;;;;;;;;;;;;;;;;;;;;
"gaiagaia";;;"Mac OS X";"Rachel's Experiment (D.T.)";"1.0";"2";"1";"1";"2";"4";"1";"2014-10-11 12:14:16.260";"2014-10-11 12:28:07.080";"1";"0";"0";"86";"65";"module.training_block2.exec-9529.GoNoGo2";;;;;;;;;;;;;;;;;;;;;;;;;;;;;;;;;;;"1251";"2014-10-11 12:19:11.119";"NST_correctLoc";"16";"0";"FINISHED";"LEFT";"success";"318";"0";"2014-10-11 12:19:09.867";"2";;;;;;;;;;;;;;;;;;;;;;;;;;;;;;;;;;;;;;;;;;;;;
"gaiagaia";;;"Mac OS X";"Rachel's Experiment (D.T.)";"1.0";"2";"1";"1";"2";"4";"1";"2014-10-11 12:14:16.260";"2014-10-11 12:28:07.080";"1";"0";"0";"87";"66";"module.training_block2.exec-9529.GoNoGo2";;;;;;;;;;;;;;;;;;;;;;;;;;;;;;;;;;;"1251";"2014-10-11 12:19:13.649";"NST_correctLoc";"10";"0";"FINISHED";"LEFT";"success";"349";"0";"2014-10-11 12:19:12.397";"2";;;;;;;;;;;;;;;;;;;;;;;;;;;;;;;;;;;;;;;;;;;;;
"gaiagaia";;;"Mac OS X";"Rachel's Experiment (D.T.)";"1.0";"2";"1";"1";"2";"4";"1";"2014-10-11 12:14:16.260";"2014-10-11 12:28:07.080";"1";"0";"0";"88";"67";"module.training_block2.exec-9529.GoNoGo2";;;;;;;;;;;;;;;;;;;;;;;;;;;;;;;;;;;"1251";"2014-10-11 12:19:16.178";"NST_correctLoc";"15";"1";"FINISHED";"RIGHT";"success";"291";"0";"2014-10-11 12:19:14.927";"2";;;;;;;;;;;;;;;;;;;;;;;;;;;;;;;;;;;;;;;;;;;;;
"gaiagaia";;;"Mac OS X";"Rachel's Experiment (D.T.)";"1.0";"2";"1";"1";"2";"4";"1";"2014-10-11 12:14:16.260";"2014-10-11 12:28:07.080";"1";"0";"0";"89";"68";"module.training_block2.exec-9529.GoNoGo2";;;;;;;;;;;;;;;;;;;;;;;;;;;;;;;;;;;"1251";"2014-10-11 12:19:18.709";"NST_correctLoc";"4";"0";"FINISHED";"LEFT";"success";"280";"0";"2014-10-11 12:19:17.458";"1";;;;;;;;;;;;;;;;;;;;;;;;;;;;;;;;;;;;;;;;;;;;;
"gaiagaia";;;"Mac OS X";"Rachel's Experiment (D.T.)";"1.0";"2";"1";"1";"2";"4";"1";"2014-10-11 12:14:16.260";"2014-10-11 12:28:07.080";"1";"0";"0";"90";"69";"module.training_block2.exec-9529.GoNoGo2";;;;;;;;;;;;;;;;;;;;;;;;;;;;;;;;;;;"1251";"2014-10-11 12:19:21.239";"NST_correctLoc";"7";"0";"FINISHED";"LEFT";"success";"350";"0";"2014-10-11 12:19:19.988";"1";;;;;;;;;;;;;;;;;;;;;;;;;;;;;;;;;;;;;;;;;;;;;
"gaiagaia";;;"Mac OS X";"Rachel's Experiment (D.T.)";"1.0";"2";"1";"1";"2";"4";"1";"2014-10-11 12:14:16.260";"2014-10-11 12:28:07.080";"1";"0";"0";"91";"70";"module.training_block2.exec-9529.GoNoGo2";;;;;;;;;;;;;;;;;;;;;;;;;;;;;;;;;;;"1251";"2014-10-11 12:19:23.770";"NST_correctLoc";"20";"0";"FINISHED";"LEFT";"success";"323";"0";"2014-10-11 12:19:22.519";"3";;;;;;;;;;;;;;;;;;;;;;;;;;;;;;;;;;;;;;;;;;;;;
"gaiagaia";;;"Mac OS X";"Rachel's Experiment (D.T.)";"1.0";"2";"1";"1";"2";"4";"1";"2014-10-11 12:14:16.260";"2014-10-11 12:28:07.080";"1";"0";"0";"92";"71";"module.training_block2.exec-9529.GoNoGo2";;;;;;;;;;;;;;;;;;;;;;;;;;;;;;;;;;;"1251";"2014-10-11 12:19:26.300";"NST_correctLoc";"30";"0";"FINISHED";"LEFT";"success";"353";"0";"2014-10-11 12:19:25.049";"3";;;;;;;;;;;;;;;;;;;;;;;;;;;;;;;;;;;;;;;;;;;;;
"gaiagaia";;;"Mac OS X";"Rachel's Experiment (D.T.)";"1.0";"2";"1";"1";"2";"4";"1";"2014-10-11 12:14:16.260";"2014-10-11 12:28:07.080";"1";"0";"0";"93";"72";"module.training_block2.exec-9529.GoNoGo2";;;;;;;;;;;;;;;;;;;;;;;;;;;;;;;;;;;"1251";"2014-10-11 12:19:28.831";"NST_correctLoc";"35";"0";"FINISHED";"LEFT";"success";"294";"0";"2014-10-11 12:19:27.579";"3";;;;;;;;;;;;;;;;;;;;;;;;;;;;;;;;;;;;;;;;;;;;;
"gaiagaia";;;"Mac OS X";"Rachel's Experiment (D.T.)";"1.0";"2";"1";"1";"2";"4";"1";"2014-10-11 12:14:16.260";"2014-10-11 12:28:07.080";"1";"0";"0";"94";"73";"module.training_block2.exec-9529.GoNoGo2";;;;;;;;;;;;;;;;;;;;;;;;;;;;;;;;;;;"1251";"2014-10-11 12:19:31.363";"NST_correctLoc";"13";"0";"FINISHED";"LEFT";"success";"369";"0";"2014-10-11 12:19:30.112";"2";;;;;;;;;;;;;;;;;;;;;;;;;;;;;;;;;;;;;;;;;;;;;
"gaiagaia";;;"Mac OS X";"Rachel's Experiment (D.T.)";"1.0";"2";"1";"1";"2";"4";"1";"2014-10-11 12:14:16.260";"2014-10-11 12:28:07.080";"1";"0";"0";"95";"74";"module.training_block2.exec-9529.GoNoGo2";;;;;;;;;;;;;;;;;;;;;;;;;;;;;;;;;;;"1251";"2014-10-11 12:19:33.895";"NST_correctLoc";"25";"1";"FINISHED";"RIGHT";"success";"381";"0";"2014-10-11 12:19:32.644";"3";;;;;;;;;;;;;;;;;;;;;;;;;;;;;;;;;;;;;;;;;;;;;
"gaiagaia";;;"Mac OS X";"Rachel's Experiment (D.T.)";"1.0";"2";"1";"1";"2";"4";"1";"2014-10-11 12:14:16.260";"2014-10-11 12:28:07.080";"1";"0";"0";"96";"75";"module.training_block2.exec-9529.GoNoGo2";;;;;;;;;;;;;;;;;;;;;;;;;;;;;;;;;;;"1251";"2014-10-11 12:19:36.428";"NST_correctLoc";"22";"0";"FINISHED";"LEFT";"success";"353";"0";"2014-10-11 12:19:35.177";"3";;;;;;;;;;;;;;;;;;;;;;;;;;;;;;;;;;;;;;;;;;;;;
"gaiagaia";;;"Mac OS X";"Rachel's Experiment (D.T.)";"1.0";"2";"1";"1";"2";"4";"1";"2014-10-11 12:14:16.260";"2014-10-11 12:28:07.080";"1";"0";"0";"97";"76";"module.training_block2.exec-9529.GoNoGo2";;;;;;;;;;;;;;;;;;;;;;;;;;;;;;;;;;;"1251";"2014-10-11 12:19:38.958";"NST_correctLoc";"26";"0";"FINISHED";"LEFT";"success";"351";"0";"2014-10-11 12:19:37.707";"3";;;;;;;;;;;;;;;;;;;;;;;;;;;;;;;;;;;;;;;;;;;;;
"gaiagaia";;;"Mac OS X";"Rachel's Experiment (D.T.)";"1.0";"2";"1";"1";"2";"4";"1";"2014-10-11 12:14:16.260";"2014-10-11 12:28:07.080";"1";"0";"0";"98";"77";"module.training_block2.exec-9529.GoNoGo2";;;;;;;;;;;;;;;;;;;;;;;;;;;;;;;;;;;"1250";"2014-10-11 12:19:41.487";"NST_correctLoc";"3";"1";"FINISHED";"RIGHT";"success";"669";"0";"2014-10-11 12:19:40.237";"1";;;;;;;;;;;;;;;;;;;;;;;;;;;;;;;;;;;;;;;;;;;;;
"gaiagaia";;;"Mac OS X";"Rachel's Experiment (D.T.)";"1.0";"2";"1";"1";"2";"4";"1";"2014-10-11 12:14:16.260";"2014-10-11 12:28:07.080";"1";"0";"0";"99";"78";"module.training_block2.exec-9529.GoNoGo2";;;;;;;;;;;;;;;;;;;;;;;;;;;;;;;;;;;"1251";"2014-10-11 12:19:44.016";"NST_correctLoc";"31";"1";"FINISHED";"RIGHT";"success";"484";"0";"2014-10-11 12:19:42.765";"3";;;;;;;;;;;;;;;;;;;;;;;;;;;;;;;;;;;;;;;;;;;;;
"gaiagaia";;;"Mac OS X";"Rachel's Experiment (D.T.)";"1.0";"2";"1";"1";"2";"4";"1";"2014-10-11 12:14:16.260";"2014-10-11 12:28:07.080";"1";"0";"0";"100";"79";"module.training_block2.exec-9529.GoNoGo2";;;;;;;;;;;;;;;;;;;;;;;;;;;;;;;;;;;"1251";"2014-10-11 12:19:46.545";"NST_correctLoc";"27";"1";"FINISHED";"RIGHT";"success";"324";"0";"2014-10-11 12:19:45.293";"3";;;;;;;;;;;;;;;;;;;;;;;;;;;;;;;;;;;;;;;;;;;;;
"gaiagaia";;;"Mac OS X";"Rachel's Experiment (D.T.)";"1.0";"2";"1";"1";"2";"4";"1";"2014-10-11 12:14:16.260";"2014-10-11 12:28:07.080";"1";"0";"0";"101";"80";"module.training_block2.exec-9529.GoNoGo2";;;;;;;;;;;;;;;;;;;;;;;;;;;;;;;;;;;"1251";"2014-10-11 12:19:49.082";"NST_correctLoc";"1";"1";"FINISHED";"RIGHT";"success";"410";"0";"2014-10-11 12:19:47.830";"1";;;;;;;;;;;;;;;;;;;;;;;;;;;;;;;;;;;;;;;;;;;;;
"gaiagaia";;;"Mac OS X";"Rachel's Experiment (D.T.)";"1.0";"2";"1";"1";"2";"4";"1";"2014-10-11 12:14:16.260";"2014-10-11 12:28:07.080";"1";"0";"0";"102";"81";"module.training_block2.exec-9529.GoNoGo2";;;;;;;;;;;;;;;;;;;;;;;;;;;;;;;;;;;"1250";"2014-10-11 12:19:51.612";"NST_correctLoc";"17";"1";"FINISHED";"RIGHT";"success";"343";"0";"2014-10-11 12:19:50.361";"2";;;;;;;;;;;;;;;;;;;;;;;;;;;;;;;;;;;;;;;;;;;;;
"gaiagaia";;;"Mac OS X";"Rachel's Experiment (D.T.)";"1.0";"2";"1";"1";"2";"4";"1";"2014-10-11 12:14:16.260";"2014-10-11 12:28:07.080";"1";"0";"0";"103";"82";"module.training_block2.exec-9529.GoNoGo2";;;;;;;;;;;;;;;;;;;;;;;;;;;;;;;;;;;"1251";"2014-10-11 12:19:54.142";"NST_correctLoc";"12";"0";"FINISHED";"LEFT";"success";"334";"0";"2014-10-11 12:19:52.890";"2";;;;;;;;;;;;;;;;;;;;;;;;;;;;;;;;;;;;;;;;;;;;;
"gaiagaia";;;"Mac OS X";"Rachel's Experiment (D.T.)";"1.0";"2";"1";"1";"2";"4";"1";"2014-10-11 12:14:16.260";"2014-10-11 12:28:07.080";"1";"0";"0";"104";"83";"module.training_block2.exec-9529.GoNoGo2";;;;;;;;;;;;;;;;;;;;;;;;;;;;;;;;;;;"1251";"2014-10-11 12:19:56.670";"NST_correctLoc";"32";"1";"FINISHED";"RIGHT";"success";"262";"0";"2014-10-11 12:19:55.419";"3";;;;;;;;;;;;;;;;;;;;;;;;;;;;;;;;;;;;;;;;;;;;;
"gaiagaia";;;"Mac OS X";"Rachel's Experiment (D.T.)";"1.0";"2";"1";"1";"2";"4";"1";"2014-10-11 12:14:16.260";"2014-10-11 12:28:07.080";"1";"0";"0";"105";"84";"module.training_block2.exec-9529.GoNoGo2";;;;;;;;;;;;;;;;;;;;;;;;;;;;;;;;;;;"1250";"2014-10-11 12:19:59.203";"NST_correctLoc";"33";"1";"FINISHED";"RIGHT";"success";"336";"0";"2014-10-11 12:19:57.952";"3";;;;;;;;;;;;;;;;;;;;;;;;;;;;;;;;;;;;;;;;;;;;;
"gaiagaia";;;"Mac OS X";"Rachel's Experiment (D.T.)";"1.0";"2";"1";"1";"2";"4";"1";"2014-10-11 12:14:16.260";"2014-10-11 12:28:07.080";"1";"0";"0";"106";"85";"module.training_block2.exec-9529.GoNoGo2";;;;;;;;;;;;;;;;;;;;;;;;;;;;;;;;;;;"1251";"2014-10-11 12:20:01.731";"NST_correctLoc";"29";"1";"FINISHED";"RIGHT";"success";"353";"0";"2014-10-11 12:20:00.480";"3";;;;;;;;;;;;;;;;;;;;;;;;;;;;;;;;;;;;;;;;;;;;;
"gaiagaia";;;"Mac OS X";"Rachel's Experiment (D.T.)";"1.0";"2";"1";"1";"2";"4";"1";"2014-10-11 12:14:16.260";"2014-10-11 12:28:07.080";"1";"0";"0";"107";"86";"module.training_block2.exec-9529.GoNoGo2";;;;;;;;;;;;;;;;;;;;;;;;;;;;;;;;;;;"1250";"2014-10-11 12:20:04.260";"NST_correctLoc";"6";"1";"FINISHED";"RIGHT";"success";"351";"0";"2014-10-11 12:20:03.009";"1";;;;;;;;;;;;;;;;;;;;;;;;;;;;;;;;;;;;;;;;;;;;;
"gaiagaia";;;"Mac OS X";"Rachel's Experiment (D.T.)";"1.0";"2";"1";"1";"2";"4";"1";"2014-10-11 12:14:16.260";"2014-10-11 12:28:07.080";"1";"0";"0";"108";"87";"module.training_block3.exec-4264.GoNoGo3";;;;;;;;;;;;;;;;;;;;;;;;;;;;;;;;;;;;;;;;;;;;;;;"1251";"2014-10-11 12:20:21.298";"NST_correctLoc";"28";"1";"FINISHED";"RIGHT";"success";"365";"0";"2014-10-11 12:20:20.047";"3";;;;;;;;;;;;;;;;;;;;;;;;;;;;;;;;;
"gaiagaia";;;"Mac OS X";"Rachel's Experiment (D.T.)";"1.0";"2";"1";"1";"2";"4";"1";"2014-10-11 12:14:16.260";"2014-10-11 12:28:07.080";"1";"0";"0";"109";"88";"module.training_block3.exec-4264.GoNoGo3";;;;;;;;;;;;;;;;;;;;;;;;;;;;;;;;;;;;;;;;;;;;;;;"1250";"2014-10-11 12:20:23.828";"NST_correctLoc";"18";"0";"FINISHED";"LEFT";"success";"354";"0";"2014-10-11 12:20:22.577";"3";;;;;;;;;;;;;;;;;;;;;;;;;;;;;;;;;
"gaiagaia";;;"Mac OS X";"Rachel's Experiment (D.T.)";"1.0";"2";"1";"1";"2";"4";"1";"2014-10-11 12:14:16.260";"2014-10-11 12:28:07.080";"1";"0";"0";"110";"89";"module.training_block3.exec-4264.GoNoGo3";;;;;;;;;;;;;;;;;;;;;;;;;;;;;;;;;;;;;;;;;;;;;;;"1251";"2014-10-11 12:20:26.357";"NST_correctLoc";"0";"1";"FINISHED";"RIGHT";"success";"346";"0";"2014-10-11 12:20:25.106";"1";;;;;;;;;;;;;;;;;;;;;;;;;;;;;;;;;
"gaiagaia";;;"Mac OS X";"Rachel's Experiment (D.T.)";"1.0";"2";"1";"1";"2";"4";"1";"2014-10-11 12:14:16.260";"2014-10-11 12:28:07.080";"1";"0";"0";"111";"90";"module.training_block3.exec-4264.GoNoGo3";;;;;;;;;;;;;;;;;;;;;;;;;;;;;;;;;;;;;;;;;;;;;;;"1250";"2014-10-11 12:20:28.888";"NST_correctLoc";"3";"0";"FINISHED";"LEFT";"success";"366";"0";"2014-10-11 12:20:27.637";"1";;;;;;;;;;;;;;;;;;;;;;;;;;;;;;;;;
"gaiagaia";;;"Mac OS X";"Rachel's Experiment (D.T.)";"1.0";"2";"1";"1";"2";"4";"1";"2014-10-11 12:14:16.260";"2014-10-11 12:28:07.080";"1";"0";"0";"112";"91";"module.training_block3.exec-4264.GoNoGo3";;;;;;;;;;;;;;;;;;;;;;;;;;;;;;;;;;;;;;;;;;;;;;;"1251";"2014-10-11 12:20:31.416";"NST_correctLoc";"25";"0";"FINISHED";"LEFT";"success";"383";"0";"2014-10-11 12:20:30.164";"3";;;;;;;;;;;;;;;;;;;;;;;;;;;;;;;;;
"gaiagaia";;;"Mac OS X";"Rachel's Experiment (D.T.)";"1.0";"2";"1";"1";"2";"4";"1";"2014-10-11 12:14:16.260";"2014-10-11 12:28:07.080";"1";"0";"0";"113";"92";"module.training_block3.exec-4264.GoNoGo3";;;;;;;;;;;;;;;;;;;;;;;;;;;;;;;;;;;;;;;;;;;;;;;"1250";"2014-10-11 12:20:33.943";"NST_correctLoc";"4";"1";"FINISHED";"RIGHT";"success";"335";"0";"2014-10-11 12:20:32.693";"1";;;;;;;;;;;;;;;;;;;;;;;;;;;;;;;;;
"gaiagaia";;;"Mac OS X";"Rachel's Experiment (D.T.)";"1.0";"2";"1";"1";"2";"4";"1";"2014-10-11 12:14:16.260";"2014-10-11 12:28:07.080";"1";"0";"0";"114";"93";"module.training_block3.exec-4264.GoNoGo3";;;;;;;;;;;;;;;;;;;;;;;;;;;;;;;;;;;;;;;;;;;;;;;"1251";"2014-10-11 12:20:36.475";"NST_correctLoc";"33";"1";"FINISHED";"RIGHT";"success";"315";"0";"2014-10-11 12:20:35.224";"3";;;;;;;;;;;;;;;;;;;;;;;;;;;;;;;;;
"gaiagaia";;;"Mac OS X";"Rachel's Experiment (D.T.)";"1.0";"2";"1";"1";"2";"4";"1";"2014-10-11 12:14:16.260";"2014-10-11 12:28:07.080";"1";"0";"0";"115";"94";"module.training_block3.exec-4264.GoNoGo3";;;;;;;;;;;;;;;;;;;;;;;;;;;;;;;;;;;;;;;;;;;;;;;"1251";"2014-10-11 12:20:39.006";"NST_correctLoc";"20";"1";"FINISHED";"RIGHT";"success";"329";"0";"2014-10-11 12:20:37.754";"3";;;;;;;;;;;;;;;;;;;;;;;;;;;;;;;;;
"gaiagaia";;;"Mac OS X";"Rachel's Experiment (D.T.)";"1.0";"2";"1";"1";"2";"4";"1";"2014-10-11 12:14:16.260";"2014-10-11 12:28:07.080";"1";"0";"0";"116";"95";"module.training_block3.exec-4264.GoNoGo3";;;;;;;;;;;;;;;;;;;;;;;;;;;;;;;;;;;;;;;;;;;;;;;"1251";"2014-10-11 12:20:41.535";"NST_correctLoc";"17";"0";"FINISHED";"LEFT";"success";"416";"0";"2014-10-11 12:20:40.283";"2";;;;;;;;;;;;;;;;;;;;;;;;;;;;;;;;;
"gaiagaia";;;"Mac OS X";"Rachel's Experiment (D.T.)";"1.0";"2";"1";"1";"2";"4";"1";"2014-10-11 12:14:16.260";"2014-10-11 12:28:07.080";"1";"0";"0";"117";"96";"module.training_block3.exec-4264.GoNoGo3";;;;;;;;;;;;;;;;;;;;;;;;;;;;;;;;;;;;;;;;;;;;;;;"1250";"2014-10-11 12:20:44.063";"NST_correctLoc";"31";"1";"FINISHED";"RIGHT";"success";"423";"0";"2014-10-11 12:20:42.812";"3";;;;;;;;;;;;;;;;;;;;;;;;;;;;;;;;;
"gaiagaia";;;"Mac OS X";"Rachel's Experiment (D.T.)";"1.0";"2";"1";"1";"2";"4";"1";"2014-10-11 12:14:16.260";"2014-10-11 12:28:07.080";"1";"0";"0";"118";"97";"module.training_block3.exec-4264.GoNoGo3";;;;;;;;;;;;;;;;;;;;;;;;;;;;;;;;;;;;;;;;;;;;;;;"1251";"2014-10-11 12:20:46.595";"NST_correctLoc";"19";"1";"FINISHED";"RIGHT";"success";"348";"0";"2014-10-11 12:20:45.343";"3";;;;;;;;;;;;;;;;;;;;;;;;;;;;;;;;;
"gaiagaia";;;"Mac OS X";"Rachel's Experiment (D.T.)";"1.0";"2";"1";"1";"2";"4";"1";"2014-10-11 12:14:16.260";"2014-10-11 12:28:07.080";"1";"0";"0";"119";"98";"module.training_block3.exec-4264.GoNoGo3";;;;;;;;;;;;;;;;;;;;;;;;;;;;;;;;;;;;;;;;;;;;;;;"1250";"2014-10-11 12:20:49.121";"NST_correctLoc";"2";"1";"FINISHED";"RIGHT";"success";"381";"0";"2014-10-11 12:20:47.870";"1";;;;;;;;;;;;;;;;;;;;;;;;;;;;;;;;;
"gaiagaia";;;"Mac OS X";"Rachel's Experiment (D.T.)";"1.0";"2";"1";"1";"2";"4";"1";"2014-10-11 12:14:16.260";"2014-10-11 12:28:07.080";"1";"0";"0";"120";"99";"module.training_block3.exec-4264.GoNoGo3";;;;;;;;;;;;;;;;;;;;;;;;;;;;;;;;;;;;;;;;;;;;;;;"1250";"2014-10-11 12:20:51.648";"NST_correctLoc";"21";"0";"FINISHED";"LEFT";"success";"341";"0";"2014-10-11 12:20:50.398";"3";;;;;;;;;;;;;;;;;;;;;;;;;;;;;;;;;
"gaiagaia";;;"Mac OS X";"Rachel's Experiment (D.T.)";"1.0";"2";"1";"1";"2";"4";"1";"2014-10-11 12:14:16.260";"2014-10-11 12:28:07.080";"1";"0";"0";"121";"100";"module.training_block3.exec-4264.GoNoGo3";;;;;;;;;;;;;;;;;;;;;;;;;;;;;;;;;;;;;;;;;;;;;;;"1251";"2014-10-11 12:20:54.176";"NST_correctLoc";"22";"1";"FINISHED";"RIGHT";"success";"438";"0";"2014-10-11 12:20:52.925";"3";;;;;;;;;;;;;;;;;;;;;;;;;;;;;;;;;
"gaiagaia";;;"Mac OS X";"Rachel's Experiment (D.T.)";"1.0";"2";"1";"1";"2";"4";"1";"2014-10-11 12:14:16.260";"2014-10-11 12:28:07.080";"1";"0";"0";"122";"101";"module.training_block3.exec-4264.GoNoGo3";;;;;;;;;;;;;;;;;;;;;;;;;;;;;;;;;;;;;;;;;;;;;;;"1251";"2014-10-11 12:20:56.711";"NST_correctLoc";"13";"0";"FINISHED";"LEFT";"success";"351";"0";"2014-10-11 12:20:55.460";"2";;;;;;;;;;;;;;;;;;;;;;;;;;;;;;;;;
"gaiagaia";;;"Mac OS X";"Rachel's Experiment (D.T.)";"1.0";"2";"1";"1";"2";"4";"1";"2014-10-11 12:14:16.260";"2014-10-11 12:28:07.080";"1";"0";"0";"123";"102";"module.training_block3.exec-4264.GoNoGo3";;;;;;;;;;;;;;;;;;;;;;;;;;;;;;;;;;;;;;;;;;;;;;;"1251";"2014-10-11 12:20:59.238";"NST_correctLoc";"14";"1";"FINISHED";"RIGHT";"success";"304";"0";"2014-10-11 12:20:57.987";"2";;;;;;;;;;;;;;;;;;;;;;;;;;;;;;;;;
"gaiagaia";;;"Mac OS X";"Rachel's Experiment (D.T.)";"1.0";"2";"1";"1";"2";"4";"1";"2014-10-11 12:14:16.260";"2014-10-11 12:28:07.080";"1";"0";"0";"124";"103";"module.training_block3.exec-4264.GoNoGo3";;;;;;;;;;;;;;;;;;;;;;;;;;;;;;;;;;;;;;;;;;;;;;;"1251";"2014-10-11 12:21:01.765";"NST_correctLoc";"24";"0";"FINISHED";"LEFT";"success";"353";"0";"2014-10-11 12:21:00.514";"3";;;;;;;;;;;;;;;;;;;;;;;;;;;;;;;;;
"gaiagaia";;;"Mac OS X";"Rachel's Experiment (D.T.)";"1.0";"2";"1";"1";"2";"4";"1";"2014-10-11 12:14:16.260";"2014-10-11 12:28:07.080";"1";"0";"0";"125";"104";"module.training_block3.exec-4264.GoNoGo3";;;;;;;;;;;;;;;;;;;;;;;;;;;;;;;;;;;;;;;;;;;;;;;"1251";"2014-10-11 12:21:04.291";"NST_correctLoc";"7";"1";"FINISHED";"RIGHT";"success";"291";"0";"2014-10-11 12:21:03.039";"1";;;;;;;;;;;;;;;;;;;;;;;;;;;;;;;;;
"gaiagaia";;;"Mac OS X";"Rachel's Experiment (D.T.)";"1.0";"2";"1";"1";"2";"4";"1";"2014-10-11 12:14:16.260";"2014-10-11 12:28:07.080";"1";"0";"0";"126";"105";"module.training_block3.exec-4264.GoNoGo3";;;;;;;;;;;;;;;;;;;;;;;;;;;;;;;;;;;;;;;;;;;;;;;"1251";"2014-10-11 12:21:06.817";"NST_correctLoc";"12";"1";"FINISHED";"RIGHT";"success";"380";"0";"2014-10-11 12:21:05.566";"2";;;;;;;;;;;;;;;;;;;;;;;;;;;;;;;;;
"gaiagaia";;;"Mac OS X";"Rachel's Experiment (D.T.)";"1.0";"2";"1";"1";"2";"4";"1";"2014-10-11 12:14:16.260";"2014-10-11 12:28:07.080";"1";"0";"0";"127";"106";"module.training_block3.exec-4264.GoNoGo3";;;;;;;;;;;;;;;;;;;;;;;;;;;;;;;;;;;;;;;;;;;;;;;"1251";"2014-10-11 12:21:09.345";"NST_correctLoc";"16";"1";"FINISHED";"RIGHT";"success";"365";"0";"2014-10-11 12:21:08.093";"2";;;;;;;;;;;;;;;;;;;;;;;;;;;;;;;;;
"gaiagaia";;;"Mac OS X";"Rachel's Experiment (D.T.)";"1.0";"2";"1";"1";"2";"4";"1";"2014-10-11 12:14:16.260";"2014-10-11 12:28:07.080";"1";"0";"0";"128";"107";"module.training_block3.exec-4264.GoNoGo3";;;;;;;;;;;;;;;;;;;;;;;;;;;;;;;;;;;;;;;;;;;;;;;"1251";"2014-10-11 12:21:11.870";"NST_correctLoc";"26";"1";"FINISHED";"RIGHT";"success";"327";"0";"2014-10-11 12:21:10.619";"3";;;;;;;;;;;;;;;;;;;;;;;;;;;;;;;;;
"gaiagaia";;;"Mac OS X";"Rachel's Experiment (D.T.)";"1.0";"2";"1";"1";"2";"4";"1";"2014-10-11 12:14:16.260";"2014-10-11 12:28:07.080";"1";"0";"0";"129";"108";"module.training_block3.exec-4264.GoNoGo3";;;;;;;;;;;;;;;;;;;;;;;;;;;;;;;;;;;;;;;;;;;;;;;"1251";"2014-10-11 12:21:14.399";"NST_correctLoc";"32";"1";"FINISHED";"RIGHT";"success";"366";"0";"2014-10-11 12:21:13.148";"3";;;;;;;;;;;;;;;;;;;;;;;;;;;;;;;;;
"gaiagaia";;;"Mac OS X";"Rachel's Experiment (D.T.)";"1.0";"2";"1";"1";"2";"4";"1";"2014-10-11 12:14:16.260";"2014-10-11 12:28:07.080";"1";"0";"0";"130";"109";"module.training_block3.exec-4264.GoNoGo3";;;;;;;;;;;;;;;;;;;;;;;;;;;;;;;;;;;;;;;;;;;;;;;"1251";"2014-10-11 12:21:16.932";"NST_correctLoc";"10";"1";"FINISHED";"RIGHT";"success";"418";"0";"2014-10-11 12:21:15.681";"2";;;;;;;;;;;;;;;;;;;;;;;;;;;;;;;;;
"gaiagaia";;;"Mac OS X";"Rachel's Experiment (D.T.)";"1.0";"2";"1";"1";"2";"4";"1";"2014-10-11 12:14:16.260";"2014-10-11 12:28:07.080";"1";"0";"0";"131";"110";"module.training_block3.exec-4264.GoNoGo3";;;;;;;;;;;;;;;;;;;;;;;;;;;;;;;;;;;;;;;;;;;;;;;"1251";"2014-10-11 12:21:19.461";"NST_correctLoc";"1";"0";"FINISHED";"LEFT";"success";"361";"0";"2014-10-11 12:21:18.209";"1";;;;;;;;;;;;;;;;;;;;;;;;;;;;;;;;;
"gaiagaia";;;"Mac OS X";"Rachel's Experiment (D.T.)";"1.0";"2";"1";"1";"2";"4";"1";"2014-10-11 12:14:16.260";"2014-10-11 12:28:07.080";"1";"0";"0";"132";"111";"module.training_block3.exec-4264.GoNoGo3";;;;;;;;;;;;;;;;;;;;;;;;;;;;;;;;;;;;;;;;;;;;;;;"1251";"2014-10-11 12:21:21.989";"NST_correctLoc";"29";"0";"FINISHED";"LEFT";"success";"369";"0";"2014-10-11 12:21:20.738";"3";;;;;;;;;;;;;;;;;;;;;;;;;;;;;;;;;
"gaiagaia";;;"Mac OS X";"Rachel's Experiment (D.T.)";"1.0";"2";"1";"1";"2";"4";"1";"2014-10-11 12:14:16.260";"2014-10-11 12:28:07.080";"1";"0";"0";"133";"112";"module.training_block3.exec-4264.GoNoGo3";;;;;;;;;;;;;;;;;;;;;;;;;;;;;;;;;;;;;;;;;;;;;;;"1250";"2014-10-11 12:21:24.514";"NST_correctLoc";"34";"1";"FINISHED";"RIGHT";"success";"298";"0";"2014-10-11 12:21:23.264";"3";;;;;;;;;;;;;;;;;;;;;;;;;;;;;;;;;
"gaiagaia";;;"Mac OS X";"Rachel's Experiment (D.T.)";"1.0";"2";"1";"1";"2";"4";"1";"2014-10-11 12:14:16.260";"2014-10-11 12:28:07.080";"1";"0";"0";"134";"113";"module.training_block3.exec-4264.GoNoGo3";;;;;;;;;;;;;;;;;;;;;;;;;;;;;;;;;;;;;;;;;;;;;;;"1251";"2014-10-11 12:21:27.043";"NST_correctLoc";"9";"0";"FINISHED";"LEFT";"success";"362";"0";"2014-10-11 12:21:25.792";"2";;;;;;;;;;;;;;;;;;;;;;;;;;;;;;;;;
"gaiagaia";;;"Mac OS X";"Rachel's Experiment (D.T.)";"1.0";"2";"1";"1";"2";"4";"1";"2014-10-11 12:14:16.260";"2014-10-11 12:28:07.080";"1";"0";"0";"135";"114";"module.training_block3.exec-4264.GoNoGo3";;;;;;;;;;;;;;;;;;;;;;;;;;;;;;;;;;;;;;;;;;;;;;;"1251";"2014-10-11 12:21:29.570";"NST_correctLoc";"30";"0";"FINISHED";"LEFT";"success";"356";"0";"2014-10-11 12:21:28.318";"3";;;;;;;;;;;;;;;;;;;;;;;;;;;;;;;;;
"gaiagaia";;;"Mac OS X";"Rachel's Experiment (D.T.)";"1.0";"2";"1";"1";"2";"4";"1";"2014-10-11 12:14:16.260";"2014-10-11 12:28:07.080";"1";"0";"0";"136";"115";"module.training_block3.exec-4264.GoNoGo3";;;;;;;;;;;;;;;;;;;;;;;;;;;;;;;;;;;;;;;;;;;;;;;"1251";"2014-10-11 12:21:32.100";"NST_correctLoc";"35";"1";"FINISHED";"RIGHT";"success";"337";"0";"2014-10-11 12:21:30.849";"3";;;;;;;;;;;;;;;;;;;;;;;;;;;;;;;;;
"gaiagaia";;;"Mac OS X";"Rachel's Experiment (D.T.)";"1.0";"2";"1";"1";"2";"4";"1";"2014-10-11 12:14:16.260";"2014-10-11 12:28:07.080";"1";"0";"0";"137";"116";"module.training_block3.exec-4264.GoNoGo3";;;;;;;;;;;;;;;;;;;;;;;;;;;;;;;;;;;;;;;;;;;;;;;"1251";"2014-10-11 12:21:34.626";"NST_correctLoc";"8";"0";"FINISHED";"LEFT";"success";"307";"0";"2014-10-11 12:21:33.375";"1";;;;;;;;;;;;;;;;;;;;;;;;;;;;;;;;;
"gaiagaia";;;"Mac OS X";"Rachel's Experiment (D.T.)";"1.0";"2";"1";"1";"2";"4";"1";"2014-10-11 12:14:16.260";"2014-10-11 12:28:07.080";"1";"0";"0";"138";"117";"module.training_block3.exec-4264.GoNoGo3";;;;;;;;;;;;;;;;;;;;;;;;;;;;;;;;;;;;;;;;;;;;;;;"1251";"2014-10-11 12:21:37.153";"NST_correctLoc";"11";"0";"FINISHED";"LEFT";"success";"308";"0";"2014-10-11 12:21:35.901";"2";;;;;;;;;;;;;;;;;;;;;;;;;;;;;;;;;
"gaiagaia";;;"Mac OS X";"Rachel's Experiment (D.T.)";"1.0";"2";"1";"1";"2";"4";"1";"2014-10-11 12:14:16.260";"2014-10-11 12:28:07.080";"1";"0";"0";"139";"118";"module.training_block3.exec-4264.GoNoGo3";;;;;;;;;;;;;;;;;;;;;;;;;;;;;;;;;;;;;;;;;;;;;;;"1251";"2014-10-11 12:21:39.680";"NST_correctLoc";"5";"0";"FINISHED";"LEFT";"success";"325";"0";"2014-10-11 12:21:38.429";"1";;;;;;;;;;;;;;;;;;;;;;;;;;;;;;;;;
"gaiagaia";;;"Mac OS X";"Rachel's Experiment (D.T.)";"1.0";"2";"1";"1";"2";"4";"1";"2014-10-11 12:14:16.260";"2014-10-11 12:28:07.080";"1";"0";"0";"140";"119";"module.training_block3.exec-4264.GoNoGo3";;;;;;;;;;;;;;;;;;;;;;;;;;;;;;;;;;;;;;;;;;;;;;;"1251";"2014-10-11 12:21:42.207";"NST_correctLoc";"27";"1";"FINISHED";"RIGHT";"success";"470";"0";"2014-10-11 12:21:40.955";"3";;;;;;;;;;;;;;;;;;;;;;;;;;;;;;;;;
"gaiagaia";;;"Mac OS X";"Rachel's Experiment (D.T.)";"1.0";"2";"1";"1";"2";"4";"1";"2014-10-11 12:14:16.260";"2014-10-11 12:28:07.080";"1";"0";"0";"141";"120";"module.training_block3.exec-4264.GoNoGo3";;;;;;;;;;;;;;;;;;;;;;;;;;;;;;;;;;;;;;;;;;;;;;;"1251";"2014-10-11 12:21:44.734";"NST_correctLoc";"6";"0";"FINISHED";"LEFT";"success";"375";"0";"2014-10-11 12:21:43.482";"1";;;;;;;;;;;;;;;;;;;;;;;;;;;;;;;;;
"gaiagaia";;;"Mac OS X";"Rachel's Experiment (D.T.)";"1.0";"2";"1";"1";"2";"4";"1";"2014-10-11 12:14:16.260";"2014-10-11 12:28:07.080";"1";"0";"0";"142";"121";"module.training_block3.exec-4264.GoNoGo3";;;;;;;;;;;;;;;;;;;;;;;;;;;;;;;;;;;;;;;;;;;;;;;"1250";"2014-10-11 12:21:47.260";"NST_correctLoc";"23";"1";"FINISHED";"RIGHT";"success";"328";"0";"2014-10-11 12:21:46.009";"3";;;;;;;;;;;;;;;;;;;;;;;;;;;;;;;;;
"gaiagaia";;;"Mac OS X";"Rachel's Experiment (D.T.)";"1.0";"2";"1";"1";"2";"4";"1";"2014-10-11 12:14:16.260";"2014-10-11 12:28:07.080";"1";"0";"0";"143";"122";"module.training_block3.exec-4264.GoNoGo3";;;;;;;;;;;;;;;;;;;;;;;;;;;;;;;;;;;;;;;;;;;;;;;"1251";"2014-10-11 12:21:49.788";"NST_correctLoc";"15";"1";"FINISHED";"RIGHT";"success";"393";"0";"2014-10-11 12:21:48.536";"2";;;;;;;;;;;;;;;;;;;;;;;;;;;;;;;;;
"gaiagaia";;;"Mac OS X";"Rachel's Experiment (D.T.)";"1.0";"2";"1";"1";"2";"4";"1";"2014-10-11 12:14:16.260";"2014-10-11 12:28:07.080";"1";"0";"0";"144";"123";"module.training_block4.exec-3147.GoNoGo4";;;;;;;;;;;;;;;;;;;;;;;;;;;;;;;;;;;;;;;;;;;;;;;;;;;;;;;;;;;"1251";"2014-10-11 12:22:05.206";"NST_correctLoc";"23";"0";"FINISHED";"LEFT";"success";"519";"0";"2014-10-11 12:22:03.954";"3";;;;;;;;;;;;;;;;;;;;;
"gaiagaia";;;"Mac OS X";"Rachel's Experiment (D.T.)";"1.0";"2";"1";"1";"2";"4";"1";"2014-10-11 12:14:16.260";"2014-10-11 12:28:07.080";"1";"0";"0";"145";"124";"module.training_block4.exec-3147.GoNoGo4";;;;;;;;;;;;;;;;;;;;;;;;;;;;;;;;;;;;;;;;;;;;;;;;;;;;;;;;;;;"1251";"2014-10-11 12:22:07.732";"NST_correctLoc";"7";"1";"FINISHED";"RIGHT";"success";"304";"0";"2014-10-11 12:22:06.481";"1";;;;;;;;;;;;;;;;;;;;;
"gaiagaia";;;"Mac OS X";"Rachel's Experiment (D.T.)";"1.0";"2";"1";"1";"2";"4";"1";"2014-10-11 12:14:16.260";"2014-10-11 12:28:07.080";"1";"0";"0";"146";"125";"module.training_block4.exec-3147.GoNoGo4";;;;;;;;;;;;;;;;;;;;;;;;;;;;;;;;;;;;;;;;;;;;;;;;;;;;;;;;;;;"1251";"2014-10-11 12:22:10.265";"NST_correctLoc";"24";"0";"FINISHED";"LEFT";"success";"332";"0";"2014-10-11 12:22:09.013";"3";;;;;;;;;;;;;;;;;;;;;
"gaiagaia";;;"Mac OS X";"Rachel's Experiment (D.T.)";"1.0";"2";"1";"1";"2";"4";"1";"2014-10-11 12:14:16.260";"2014-10-11 12:28:07.080";"1";"0";"0";"147";"126";"module.training_block4.exec-3147.GoNoGo4";;;;;;;;;;;;;;;;;;;;;;;;;;;;;;;;;;;;;;;;;;;;;;;;;;;;;;;;;;;"1250";"2014-10-11 12:22:12.790";"NST_correctLoc";"34";"1";"FINISHED";"RIGHT";"success";"302";"0";"2014-10-11 12:22:11.539";"3";;;;;;;;;;;;;;;;;;;;;
"gaiagaia";;;"Mac OS X";"Rachel's Experiment (D.T.)";"1.0";"2";"1";"1";"2";"4";"1";"2014-10-11 12:14:16.260";"2014-10-11 12:28:07.080";"1";"0";"0";"148";"127";"module.training_block4.exec-3147.GoNoGo4";;;;;;;;;;;;;;;;;;;;;;;;;;;;;;;;;;;;;;;;;;;;;;;;;;;;;;;;;;;"1251";"2014-10-11 12:22:15.316";"NST_correctLoc";"18";"1";"FINISHED";"RIGHT";"success";"384";"0";"2014-10-11 12:22:14.064";"3";;;;;;;;;;;;;;;;;;;;;
"gaiagaia";;;"Mac OS X";"Rachel's Experiment (D.T.)";"1.0";"2";"1";"1";"2";"4";"1";"2014-10-11 12:14:16.260";"2014-10-11 12:28:07.080";"1";"0";"0";"149";"128";"module.training_block4.exec-3147.GoNoGo4";;;;;;;;;;;;;;;;;;;;;;;;;;;;;;;;;;;;;;;;;;;;;;;;;;;;;;;;;;;"1251";"2014-10-11 12:22:17.843";"NST_correctLoc";"15";"0";"FINISHED";"LEFT";"success";"329";"0";"2014-10-11 12:22:16.592";"2";;;;;;;;;;;;;;;;;;;;;
"gaiagaia";;;"Mac OS X";"Rachel's Experiment (D.T.)";"1.0";"2";"1";"1";"2";"4";"1";"2014-10-11 12:14:16.260";"2014-10-11 12:28:07.080";"1";"0";"0";"150";"129";"module.training_block4.exec-3147.GoNoGo4";;;;;;;;;;;;;;;;;;;;;;;;;;;;;;;;;;;;;;;;;;;;;;;;;;;;;;;;;;;"1251";"2014-10-11 12:22:20.370";"NST_correctLoc";"25";"1";"FINISHED";"RIGHT";"success";"323";"0";"2014-10-11 12:22:19.118";"3";;;;;;;;;;;;;;;;;;;;;
"gaiagaia";;;"Mac OS X";"Rachel's Experiment (D.T.)";"1.0";"2";"1";"1";"2";"4";"1";"2014-10-11 12:14:16.260";"2014-10-11 12:28:07.080";"1";"0";"0";"151";"130";"module.training_block4.exec-3147.GoNoGo4";;;;;;;;;;;;;;;;;;;;;;;;;;;;;;;;;;;;;;;;;;;;;;;;;;;;;;;;;;;"1251";"2014-10-11 12:22:22.895";"NST_correctLoc";"2";"0";"FINISHED";"LEFT";"success";"285";"0";"2014-10-11 12:22:21.644";"1";;;;;;;;;;;;;;;;;;;;;
"gaiagaia";;;"Mac OS X";"Rachel's Experiment (D.T.)";"1.0";"2";"1";"1";"2";"4";"1";"2014-10-11 12:14:16.260";"2014-10-11 12:28:07.080";"1";"0";"0";"152";"131";"module.training_block4.exec-3147.GoNoGo4";;;;;;;;;;;;;;;;;;;;;;;;;;;;;;;;;;;;;;;;;;;;;;;;;;;;;;;;;;;"1251";"2014-10-11 12:22:25.422";"NST_correctLoc";"17";"0";"FINISHED";"LEFT";"success";"382";"0";"2014-10-11 12:22:24.171";"2";;;;;;;;;;;;;;;;;;;;;
"gaiagaia";;;"Mac OS X";"Rachel's Experiment (D.T.)";"1.0";"2";"1";"1";"2";"4";"1";"2014-10-11 12:14:16.260";"2014-10-11 12:28:07.080";"1";"0";"0";"153";"132";"module.training_block4.exec-3147.GoNoGo4";;;;;;;;;;;;;;;;;;;;;;;;;;;;;;;;;;;;;;;;;;;;;;;;;;;;;;;;;;;"1251";"2014-10-11 12:22:27.952";"NST_correctLoc";"3";"1";"FINISHED";"RIGHT";"success";"300";"0";"2014-10-11 12:22:26.701";"1";;;;;;;;;;;;;;;;;;;;;
"gaiagaia";;;"Mac OS X";"Rachel's Experiment (D.T.)";"1.0";"2";"1";"1";"2";"4";"1";"2014-10-11 12:14:16.260";"2014-10-11 12:28:07.080";"1";"0";"0";"154";"133";"module.training_block4.exec-3147.GoNoGo4";;;;;;;;;;;;;;;;;;;;;;;;;;;;;;;;;;;;;;;;;;;;;;;;;;;;;;;;;;;"1251";"2014-10-11 12:22:30.482";"NST_correctLoc";"12";"0";"FINISHED";"LEFT";"success";"330";"0";"2014-10-11 12:22:29.231";"2";;;;;;;;;;;;;;;;;;;;;
"gaiagaia";;;"Mac OS X";"Rachel's Experiment (D.T.)";"1.0";"2";"1";"1";"2";"4";"1";"2014-10-11 12:14:16.260";"2014-10-11 12:28:07.080";"1";"0";"0";"155";"134";"module.training_block4.exec-3147.GoNoGo4";;;;;;;;;;;;;;;;;;;;;;;;;;;;;;;;;;;;;;;;;;;;;;;;;;;;;;;;;;;"1251";"2014-10-11 12:22:33.009";"NST_correctLoc";"28";"1";"FINISHED";"RIGHT";"success";"299";"0";"2014-10-11 12:22:31.758";"3";;;;;;;;;;;;;;;;;;;;;
"gaiagaia";;;"Mac OS X";"Rachel's Experiment (D.T.)";"1.0";"2";"1";"1";"2";"4";"1";"2014-10-11 12:14:16.260";"2014-10-11 12:28:07.080";"1";"0";"0";"156";"135";"module.training_block4.exec-3147.GoNoGo4";;;;;;;;;;;;;;;;;;;;;;;;;;;;;;;;;;;;;;;;;;;;;;;;;;;;;;;;;;;"1251";"2014-10-11 12:22:35.535";"NST_correctLoc";"1";"1";"FINISHED";"RIGHT";"success";"365";"0";"2014-10-11 12:22:34.283";"1";;;;;;;;;;;;;;;;;;;;;
"gaiagaia";;;"Mac OS X";"Rachel's Experiment (D.T.)";"1.0";"2";"1";"1";"2";"4";"1";"2014-10-11 12:14:16.260";"2014-10-11 12:28:07.080";"1";"0";"0";"157";"136";"module.training_block4.exec-3147.GoNoGo4";;;;;;;;;;;;;;;;;;;;;;;;;;;;;;;;;;;;;;;;;;;;;;;;;;;;;;;;;;;"1251";"2014-10-11 12:22:38.061";"NST_correctLoc";"26";"0";"FINISHED";"LEFT";"success";"343";"0";"2014-10-11 12:22:36.810";"3";;;;;;;;;;;;;;;;;;;;;
"gaiagaia";;;"Mac OS X";"Rachel's Experiment (D.T.)";"1.0";"2";"1";"1";"2";"4";"1";"2014-10-11 12:14:16.260";"2014-10-11 12:28:07.080";"1";"0";"0";"158";"137";"module.training_block4.exec-3147.GoNoGo4";;;;;;;;;;;;;;;;;;;;;;;;;;;;;;;;;;;;;;;;;;;;;;;;;;;;;;;;;;;"1251";"2014-10-11 12:22:40.587";"NST_correctLoc";"30";"1";"FINISHED";"RIGHT";"success";"424";"0";"2014-10-11 12:22:39.336";"3";;;;;;;;;;;;;;;;;;;;;
"gaiagaia";;;"Mac OS X";"Rachel's Experiment (D.T.)";"1.0";"2";"1";"1";"2";"4";"1";"2014-10-11 12:14:16.260";"2014-10-11 12:28:07.080";"1";"0";"0";"159";"138";"module.training_block4.exec-3147.GoNoGo4";;;;;;;;;;;;;;;;;;;;;;;;;;;;;;;;;;;;;;;;;;;;;;;;;;;;;;;;;;;"1251";"2014-10-11 12:22:43.115";"NST_correctLoc";"32";"0";"FINISHED";"LEFT";"success";"304";"0";"2014-10-11 12:22:41.864";"3";;;;;;;;;;;;;;;;;;;;;
"gaiagaia";;;"Mac OS X";"Rachel's Experiment (D.T.)";"1.0";"2";"1";"1";"2";"4";"1";"2014-10-11 12:14:16.260";"2014-10-11 12:28:07.080";"1";"0";"0";"160";"139";"module.training_block4.exec-3147.GoNoGo4";;;;;;;;;;;;;;;;;;;;;;;;;;;;;;;;;;;;;;;;;;;;;;;;;;;;;;;;;;;"1251";"2014-10-11 12:22:45.645";"NST_correctLoc";"11";"0";"FINISHED";"LEFT";"success";"414";"0";"2014-10-11 12:22:44.394";"2";;;;;;;;;;;;;;;;;;;;;
"gaiagaia";;;"Mac OS X";"Rachel's Experiment (D.T.)";"1.0";"2";"1";"1";"2";"4";"1";"2014-10-11 12:14:16.260";"2014-10-11 12:28:07.080";"1";"0";"0";"161";"140";"module.training_block4.exec-3147.GoNoGo4";;;;;;;;;;;;;;;;;;;;;;;;;;;;;;;;;;;;;;;;;;;;;;;;;;;;;;;;;;;"1251";"2014-10-11 12:22:48.171";"NST_correctLoc";"29";"1";"FINISHED";"RIGHT";"success";"464";"0";"2014-10-11 12:22:46.920";"3";;;;;;;;;;;;;;;;;;;;;
"gaiagaia";;;"Mac OS X";"Rachel's Experiment (D.T.)";"1.0";"2";"1";"1";"2";"4";"1";"2014-10-11 12:14:16.260";"2014-10-11 12:28:07.080";"1";"0";"0";"162";"141";"module.training_block4.exec-3147.GoNoGo4";;;;;;;;;;;;;;;;;;;;;;;;;;;;;;;;;;;;;;;;;;;;;;;;;;;;;;;;;;;"1251";"2014-10-11 12:22:50.702";"NST_correctLoc";"0";"0";"FINISHED";"LEFT";"success";"326";"0";"2014-10-11 12:22:49.450";"1";;;;;;;;;;;;;;;;;;;;;
"gaiagaia";;;"Mac OS X";"Rachel's Experiment (D.T.)";"1.0";"2";"1";"1";"2";"4";"1";"2014-10-11 12:14:16.260";"2014-10-11 12:28:07.080";"1";"0";"0";"163";"142";"module.training_block4.exec-3147.GoNoGo4";;;;;;;;;;;;;;;;;;;;;;;;;;;;;;;;;;;;;;;;;;;;;;;;;;;;;;;;;;;"1251";"2014-10-11 12:22:53.227";"NST_correctLoc";"27";"0";"FINISHED";"LEFT";"success";"432";"0";"2014-10-11 12:22:51.976";"3";;;;;;;;;;;;;;;;;;;;;
"gaiagaia";;;"Mac OS X";"Rachel's Experiment (D.T.)";"1.0";"2";"1";"1";"2";"4";"1";"2014-10-11 12:14:16.260";"2014-10-11 12:28:07.080";"1";"0";"0";"164";"143";"module.training_block4.exec-3147.GoNoGo4";;;;;;;;;;;;;;;;;;;;;;;;;;;;;;;;;;;;;;;;;;;;;;;;;;;;;;;;;;;"1251";"2014-10-11 12:22:55.753";"NST_correctLoc";"33";"1";"FINISHED";"RIGHT";"success";"338";"0";"2014-10-11 12:22:54.502";"3";;;;;;;;;;;;;;;;;;;;;
"gaiagaia";;;"Mac OS X";"Rachel's Experiment (D.T.)";"1.0";"2";"1";"1";"2";"4";"1";"2014-10-11 12:14:16.260";"2014-10-11 12:28:07.080";"1";"0";"0";"165";"144";"module.training_block4.exec-3147.GoNoGo4";;;;;;;;;;;;;;;;;;;;;;;;;;;;;;;;;;;;;;;;;;;;;;;;;;;;;;;;;;;"1250";"2014-10-11 12:22:58.278";"NST_correctLoc";"13";"1";"FINISHED";"RIGHT";"success";"428";"0";"2014-10-11 12:22:57.027";"2";;;;;;;;;;;;;;;;;;;;;
"gaiagaia";;;"Mac OS X";"Rachel's Experiment (D.T.)";"1.0";"2";"1";"1";"2";"4";"1";"2014-10-11 12:14:16.260";"2014-10-11 12:28:07.080";"1";"0";"0";"166";"145";"module.training_block4.exec-3147.GoNoGo4";;;;;;;;;;;;;;;;;;;;;;;;;;;;;;;;;;;;;;;;;;;;;;;;;;;;;;;;;;;"1251";"2014-10-11 12:23:00.803";"NST_correctLoc";"4";"0";"FINISHED";"LEFT";"success";"432";"0";"2014-10-11 12:22:59.552";"1";;;;;;;;;;;;;;;;;;;;;
"gaiagaia";;;"Mac OS X";"Rachel's Experiment (D.T.)";"1.0";"2";"1";"1";"2";"4";"1";"2014-10-11 12:14:16.260";"2014-10-11 12:28:07.080";"1";"0";"0";"167";"146";"module.training_block4.exec-3147.GoNoGo4";;;;;;;;;;;;;;;;;;;;;;;;;;;;;;;;;;;;;;;;;;;;;;;;;;;;;;;;;;;"1251";"2014-10-11 12:23:03.326";"NST_correctLoc";"14";"1";"FINISHED";"RIGHT";"success";"318";"0";"2014-10-11 12:23:02.074";"2";;;;;;;;;;;;;;;;;;;;;
"gaiagaia";;;"Mac OS X";"Rachel's Experiment (D.T.)";"1.0";"2";"1";"1";"2";"4";"1";"2014-10-11 12:14:16.260";"2014-10-11 12:28:07.080";"1";"0";"0";"168";"147";"module.training_block4.exec-3147.GoNoGo4";;;;;;;;;;;;;;;;;;;;;;;;;;;;;;;;;;;;;;;;;;;;;;;;;;;;;;;;;;;"1251";"2014-10-11 12:23:05.849";"NST_correctLoc";"10";"0";"FINISHED";"LEFT";"success";"362";"0";"2014-10-11 12:23:04.598";"2";;;;;;;;;;;;;;;;;;;;;
"gaiagaia";;;"Mac OS X";"Rachel's Experiment (D.T.)";"1.0";"2";"1";"1";"2";"4";"1";"2014-10-11 12:14:16.260";"2014-10-11 12:28:07.080";"1";"0";"0";"169";"148";"module.training_block4.exec-3147.GoNoGo4";;;;;;;;;;;;;;;;;;;;;;;;;;;;;;;;;;;;;;;;;;;;;;;;;;;;;;;;;;;"1250";"2014-10-11 12:23:08.374";"NST_correctLoc";"31";"1";"FINISHED";"RIGHT";"success";"308";"0";"2014-10-11 12:23:07.124";"3";;;;;;;;;;;;;;;;;;;;;
"gaiagaia";;;"Mac OS X";"Rachel's Experiment (D.T.)";"1.0";"2";"1";"1";"2";"4";"1";"2014-10-11 12:14:16.260";"2014-10-11 12:28:07.080";"1";"0";"0";"170";"149";"module.training_block4.exec-3147.GoNoGo4";;;;;;;;;;;;;;;;;;;;;;;;;;;;;;;;;;;;;;;;;;;;;;;;;;;;;;;;;;;"1251";"2014-10-11 12:23:10.900";"NST_correctLoc";"8";"0";"FINISHED";"LEFT";"success";"359";"0";"2014-10-11 12:23:09.648";"1";;;;;;;;;;;;;;;;;;;;;
"gaiagaia";;;"Mac OS X";"Rachel's Experiment (D.T.)";"1.0";"2";"1";"1";"2";"4";"1";"2014-10-11 12:14:16.260";"2014-10-11 12:28:07.080";"1";"0";"0";"171";"150";"module.training_block4.exec-3147.GoNoGo4";;;;;;;;;;;;;;;;;;;;;;;;;;;;;;;;;;;;;;;;;;;;;;;;;;;;;;;;;;;"1251";"2014-10-11 12:23:13.425";"NST_correctLoc";"20";"1";"FINISHED";"RIGHT";"success";"498";"0";"2014-10-11 12:23:12.174";"3";;;;;;;;;;;;;;;;;;;;;
"gaiagaia";;;"Mac OS X";"Rachel's Experiment (D.T.)";"1.0";"2";"1";"1";"2";"4";"1";"2014-10-11 12:14:16.260";"2014-10-11 12:28:07.080";"1";"0";"0";"172";"151";"module.training_block4.exec-3147.GoNoGo4";;;;;;;;;;;;;;;;;;;;;;;;;;;;;;;;;;;;;;;;;;;;;;;;;;;;;;;;;;;"1250";"2014-10-11 12:23:15.949";"NST_correctLoc";"22";"0";"FINISHED";"LEFT";"success";"485";"0";"2014-10-11 12:23:14.698";"3";;;;;;;;;;;;;;;;;;;;;
"gaiagaia";;;"Mac OS X";"Rachel's Experiment (D.T.)";"1.0";"2";"1";"1";"2";"4";"1";"2014-10-11 12:14:16.260";"2014-10-11 12:28:07.080";"1";"0";"0";"173";"152";"module.training_block4.exec-3147.GoNoGo4";;;;;;;;;;;;;;;;;;;;;;;;;;;;;;;;;;;;;;;;;;;;;;;;;;;;;;;;;;;"1250";"2014-10-11 12:23:18.472";"NST_correctLoc";"9";"1";"FINISHED";"RIGHT";"success";"794";"0";"2014-10-11 12:23:17.221";"2";;;;;;;;;;;;;;;;;;;;;
"gaiagaia";;;"Mac OS X";"Rachel's Experiment (D.T.)";"1.0";"2";"1";"1";"2";"4";"1";"2014-10-11 12:14:16.260";"2014-10-11 12:28:07.080";"1";"0";"0";"174";"153";"module.training_block4.exec-3147.GoNoGo4";;;;;;;;;;;;;;;;;;;;;;;;;;;;;;;;;;;;;;;;;;;;;;;;;;;;;;;;;;;"1250";"2014-10-11 12:23:21.001";"NST_correctLoc";"6";"1";"FINISHED";"RIGHT";"success";"441";"0";"2014-10-11 12:23:19.751";"1";;;;;;;;;;;;;;;;;;;;;
"gaiagaia";;;"Mac OS X";"Rachel's Experiment (D.T.)";"1.0";"2";"1";"1";"2";"4";"1";"2014-10-11 12:14:16.260";"2014-10-11 12:28:07.080";"1";"0";"0";"175";"154";"module.training_block4.exec-3147.GoNoGo4";;;;;;;;;;;;;;;;;;;;;;;;;;;;;;;;;;;;;;;;;;;;;;;;;;;;;;;;;;;"1251";"2014-10-11 12:23:23.525";"NST_correctLoc";"35";"0";"FINISHED";"LEFT";"success";"357";"0";"2014-10-11 12:23:22.274";"3";;;;;;;;;;;;;;;;;;;;;
"gaiagaia";;;"Mac OS X";"Rachel's Experiment (D.T.)";"1.0";"2";"1";"1";"2";"4";"1";"2014-10-11 12:14:16.260";"2014-10-11 12:28:07.080";"1";"0";"0";"176";"155";"module.training_block4.exec-3147.GoNoGo4";;;;;;;;;;;;;;;;;;;;;;;;;;;;;;;;;;;;;;;;;;;;;;;;;;;;;;;;;;;"1251";"2014-10-11 12:23:26.049";"NST_correctLoc";"5";"0";"FINISHED";"LEFT";"success";"385";"0";"2014-10-11 12:23:24.798";"1";;;;;;;;;;;;;;;;;;;;;
"gaiagaia";;;"Mac OS X";"Rachel's Experiment (D.T.)";"1.0";"2";"1";"1";"2";"4";"1";"2014-10-11 12:14:16.260";"2014-10-11 12:28:07.080";"1";"0";"0";"177";"156";"module.training_block4.exec-3147.GoNoGo4";;;;;;;;;;;;;;;;;;;;;;;;;;;;;;;;;;;;;;;;;;;;;;;;;;;;;;;;;;;"1251";"2014-10-11 12:23:28.581";"NST_correctLoc";"19";"1";"FINISHED";"RIGHT";"success";"485";"0";"2014-10-11 12:23:27.330";"3";;;;;;;;;;;;;;;;;;;;;
"gaiagaia";;;"Mac OS X";"Rachel's Experiment (D.T.)";"1.0";"2";"1";"1";"2";"4";"1";"2014-10-11 12:14:16.260";"2014-10-11 12:28:07.080";"1";"0";"0";"178";"157";"module.training_block4.exec-3147.GoNoGo4";;;;;;;;;;;;;;;;;;;;;;;;;;;;;;;;;;;;;;;;;;;;;;;;;;;;;;;;;;;"1251";"2014-10-11 12:23:31.106";"NST_correctLoc";"21";"1";"FINISHED";"RIGHT";"success";"464";"0";"2014-10-11 12:23:29.855";"3";;;;;;;;;;;;;;;;;;;;;
"gaiagaia";;;"Mac OS X";"Rachel's Experiment (D.T.)";"1.0";"2";"1";"1";"2";"4";"1";"2014-10-11 12:14:16.260";"2014-10-11 12:28:07.080";"1";"0";"0";"179";"158";"module.training_block4.exec-3147.GoNoGo4";;;;;;;;;;;;;;;;;;;;;;;;;;;;;;;;;;;;;;;;;;;;;;;;;;;;;;;;;;;"1251";"2014-10-11 12:23:33.630";"NST_correctLoc";"16";"1";"FINISHED";"RIGHT";"success";"660";"0";"2014-10-11 12:23:32.379";"2";;;;;;;;;;;;;;;;;;;;;
"gaiagaia";;;"Mac OS X";"Rachel's Experiment (D.T.)";"1.0";"2";"1";"1";"2";"4";"1";"2014-10-11 12:14:16.260";"2014-10-11 12:28:07.080";"1";"0";"0";"180";"159";"module.devaluation_practice.exec-1481.devalPractice";;;;;;;;;;;;"23621";"2014-10-11 12:24:17.983";"0";"6";"7";"7";"9048";"5170";"6372";"2014-10-11 12:23:54.362";;;;;;;;;;;;;;;;;;;;;;;;;;;;;;;;;;;;;;;;;;;;;;;;;;;;;;;;;;;;;;;;;;;;;;
"gaiagaia";;;"Mac OS X";"Rachel's Experiment (D.T.)";"1.0";"2";"1";"1";"2";"4";"1";"2014-10-11 12:14:16.260";"2014-10-11 12:28:07.080";"1";"0";"0";"181";"160";"module.devaluation_practice.exec-1481.devalPractice";;;;;;;;;;;;"17503";"2014-10-11 12:24:35.511";"1";"1";"7";"4";"4466";"3573";"6448";"2014-10-11 12:24:18.008";;;;;;;;;;;;;;;;;;;;;;;;;;;;;;;;;;;;;;;;;;;;;;;;;;;;;;;;;;;;;;;;;;;;;;
"gaiagaia";;;"Mac OS X";"Rachel's Experiment (D.T.)";"1.0";"2";"1";"1";"2";"4";"1";"2014-10-11 12:14:16.260";"2014-10-11 12:28:07.080";"1";"0";"0";"182";"161";"module.devaluation_practice.exec-1481.devalPractice";;;;;;;;;;;;"18203";"2014-10-11 12:24:53.737";"2";"4";"8";"6";"9991";"3710";"1490";"2014-10-11 12:24:35.533";;;;;;;;;;;;;;;;;;;;;;;;;;;;;;;;;;;;;;;;;;;;;;;;;;;;;;;;;;;;;;;;;;;;;;
"gaiagaia";;;"Mac OS X";"Rachel's Experiment (D.T.)";"1.0";"2";"1";"1";"2";"4";"1";"2014-10-11 12:14:16.260";"2014-10-11 12:28:07.080";"1";"0";"0";"183";"162";"module.devaluation_practice.exec-1481.devalPractice";;;;;;;;;;;;"6265";"2014-10-11 12:25:00.025";"3";"9";"9";"9";"1395";"854";"1001";"2014-10-11 12:24:53.759";;;;;;;;;;;;;;;;;;;;;;;;;;;;;;;;;;;;;;;;;;;;;;;;;;;;;;;;;;;;;;;;;;;;;;
"gaiagaia";;;"Mac OS X";"Rachel's Experiment (D.T.)";"1.0";"2";"1";"1";"2";"4";"1";"2014-10-11 12:14:16.260";"2014-10-11 12:28:07.080";"1";"0";"0";"184";"163";"module.devaluation_block1.exec-6379.deval1";"9126";"2014-10-11 12:25:17.356";"13";"9";"9";"8";"2800";"2261";"1045";"2014-10-11 12:25:08.229";"2";;;;;;;;;;;;;;;;;;;;;;;;;;;;;;;;;;;;;;;;;;;;;;;;;;;;;;;;;;;;;;;;;;;;;;;;;;;;;;;;
"gaiagaia";;;"Mac OS X";"Rachel's Experiment (D.T.)";"1.0";"2";"1";"1";"2";"4";"1";"2014-10-11 12:14:16.260";"2014-10-11 12:28:07.080";"1";"0";"0";"185";"164";"module.devaluation_block1.exec-6379.deval1";"6371";"2014-10-11 12:25:23.748";"9";"9";"9";"9";"1367";"1102";"885";"2014-10-11 12:25:17.376";"2";;;;;;;;;;;;;;;;;;;;;;;;;;;;;;;;;;;;;;;;;;;;;;;;;;;;;;;;;;;;;;;;;;;;;;;;;;;;;;;;
"gaiagaia";;;"Mac OS X";"Rachel's Experiment (D.T.)";"1.0";"2";"1";"1";"2";"4";"1";"2014-10-11 12:14:16.260";"2014-10-11 12:28:07.080";"1";"0";"0";"186";"165";"module.devaluation_block1.exec-6379.deval1";"8104";"2014-10-11 12:25:31.873";"22";"9";"9";"9";"2859";"1286";"942";"2014-10-11 12:25:23.769";"3";;;;;;;;;;;;;;;;;;;;;;;;;;;;;;;;;;;;;;;;;;;;;;;;;;;;;;;;;;;;;;;;;;;;;;;;;;;;;;;;
"gaiagaia";;;"Mac OS X";"Rachel's Experiment (D.T.)";"1.0";"2";"1";"1";"2";"4";"1";"2014-10-11 12:14:16.260";"2014-10-11 12:28:07.080";"1";"0";"0";"187";"166";"module.devaluation_block1.exec-6379.deval1";"10380";"2014-10-11 12:25:42.273";"5";"5";"6";"6";"2855";"2806";"1702";"2014-10-11 12:25:31.892";"1";;;;;;;;;;;;;;;;;;;;;;;;;;;;;;;;;;;;;;;;;;;;;;;;;;;;;;;;;;;;;;;;;;;;;;;;;;;;;;;;
"gaiagaia";;;"Mac OS X";"Rachel's Experiment (D.T.)";"1.0";"2";"1";"1";"2";"4";"1";"2014-10-11 12:14:16.260";"2014-10-11 12:28:07.080";"1";"0";"0";"188";"167";"module.devaluation_block1.exec-6379.deval1";"7859";"2014-10-11 12:25:50.161";"14";"7";"7";"9";"1062";"1494";"2285";"2014-10-11 12:25:42.301";"2";;;;;;;;;;;;;;;;;;;;;;;;;;;;;;;;;;;;;;;;;;;;;;;;;;;;;;;;;;;;;;;;;;;;;;;;;;;;;;;;
"gaiagaia";;;"Mac OS X";"Rachel's Experiment (D.T.)";"1.0";"2";"1";"1";"2";"4";"1";"2014-10-11 12:14:16.260";"2014-10-11 12:28:07.080";"1";"0";"0";"189";"168";"module.devaluation_block1.exec-6379.deval1";"5643";"2014-10-11 12:25:55.824";"17";"5";"5";"5";"518";"1014";"1094";"2014-10-11 12:25:50.181";"2";;;;;;;;;;;;;;;;;;;;;;;;;;;;;;;;;;;;;;;;;;;;;;;;;;;;;;;;;;;;;;;;;;;;;;;;;;;;;;;;
"gaiagaia";;;"Mac OS X";"Rachel's Experiment (D.T.)";"1.0";"2";"1";"1";"2";"4";"1";"2014-10-11 12:14:16.260";"2014-10-11 12:28:07.080";"1";"0";"0";"190";"169";"module.devaluation_block1.exec-6379.deval1";"5666";"2014-10-11 12:26:01.513";"23";"9";"9";"9";"926";"838";"886";"2014-10-11 12:25:55.846";"3";;;;;;;;;;;;;;;;;;;;;;;;;;;;;;;;;;;;;;;;;;;;;;;;;;;;;;;;;;;;;;;;;;;;;;;;;;;;;;;;
"gaiagaia";;;"Mac OS X";"Rachel's Experiment (D.T.)";"1.0";"2";"1";"1";"2";"4";"1";"2014-10-11 12:14:16.260";"2014-10-11 12:28:07.080";"1";"0";"0";"191";"170";"module.devaluation_block1.exec-6379.deval1";"8971";"2014-10-11 12:26:10.504";"11";"1";"2";"1";"2981";"1456";"1510";"2014-10-11 12:26:01.533";"2";;;;;;;;;;;;;;;;;;;;;;;;;;;;;;;;;;;;;;;;;;;;;;;;;;;;;;;;;;;;;;;;;;;;;;;;;;;;;;;;
"gaiagaia";;;"Mac OS X";"Rachel's Experiment (D.T.)";"1.0";"2";"1";"1";"2";"4";"1";"2014-10-11 12:14:16.260";"2014-10-11 12:28:07.080";"1";"0";"0";"192";"171";"module.devaluation_block1.exec-6379.deval1";"6356";"2014-10-11 12:26:16.880";"3";"5";"6";"6";"1791";"870";"678";"2014-10-11 12:26:10.524";"1";;;;;;;;;;;;;;;;;;;;;;;;;;;;;;;;;;;;;;;;;;;;;;;;;;;;;;;;;;;;;;;;;;;;;;;;;;;;;;;;
"gaiagaia";;;"Mac OS X";"Rachel's Experiment (D.T.)";"1.0";"2";"1";"1";"2";"4";"1";"2014-10-11 12:14:16.260";"2014-10-11 12:28:07.080";"1";"0";"0";"193";"172";"module.devaluation_block1.exec-6379.deval1";"8162";"2014-10-11 12:26:25.064";"7";"7";"7";"6";"1342";"1486";"2318";"2014-10-11 12:26:16.901";"1";;;;;;;;;;;;;;;;;;;;;;;;;;;;;;;;;;;;;;;;;;;;;;;;;;;;;;;;;;;;;;;;;;;;;;;;;;;;;;;;
"gaiagaia";;;"Mac OS X";"Rachel's Experiment (D.T.)";"1.0";"2";"1";"1";"2";"4";"1";"2014-10-11 12:14:16.260";"2014-10-11 12:28:07.080";"1";"0";"0";"194";"173";"module.devaluation_block1.exec-6379.deval1";"5877";"2014-10-11 12:26:31.128";"18";"9";"9";"9";"1040";"918";"901";"2014-10-11 12:26:25.250";"3";;;;;;;;;;;;;;;;;;;;;;;;;;;;;;;;;;;;;;;;;;;;;;;;;;;;;;;;;;;;;;;;;;;;;;;;;;;;;;;;
"gaiagaia";;;"Mac OS X";"Rachel's Experiment (D.T.)";"1.0";"2";"1";"1";"2";"4";"1";"2014-10-11 12:14:16.260";"2014-10-11 12:28:07.080";"1";"0";"0";"195";"174";"module.devaluation_block1.exec-6379.deval1";"5807";"2014-10-11 12:26:36.960";"1";"9";"9";"9";"802";"998";"990";"2014-10-11 12:26:31.152";"1";;;;;;;;;;;;;;;;;;;;;;;;;;;;;;;;;;;;;;;;;;;;;;;;;;;;;;;;;;;;;;;;;;;;;;;;;;;;;;;;
"gaiagaia";;;"Mac OS X";"Rachel's Experiment (D.T.)";"1.0";"2";"1";"1";"2";"4";"1";"2014-10-11 12:14:16.260";"2014-10-11 12:28:07.080";"1";"0";"0";"196";"175";"module.devaluation_block1.exec-6379.deval1";"5859";"2014-10-11 12:26:42.839";"0";"9";"9";"9";"838";"1005";"999";"2014-10-11 12:26:36.980";"1";;;;;;;;;;;;;;;;;;;;;;;;;;;;;;;;;;;;;;;;;;;;;;;;;;;;;;;;;;;;;;;;;;;;;;;;;;;;;;;;
"gaiagaia";;;"Mac OS X";"Rachel's Experiment (D.T.)";"1.0";"2";"1";"1";"2";"4";"1";"2014-10-11 12:14:16.260";"2014-10-11 12:28:07.080";"1";"0";"0";"197";"176";"module.devaluation_block1.exec-6379.deval1";"6146";"2014-10-11 12:26:49.007";"20";"9";"9";"9";"1277";"943";"910";"2014-10-11 12:26:42.861";"3";;;;;;;;;;;;;;;;;;;;;;;;;;;;;;;;;;;;;;;;;;;;;;;;;;;;;;;;;;;;;;;;;;;;;;;;;;;;;;;;
"gaiagaia";;;"Mac OS X";"Rachel's Experiment (D.T.)";"1.0";"2";"1";"1";"2";"4";"1";"2014-10-11 12:14:16.260";"2014-10-11 12:28:07.080";"1";"0";"0";"198";"177";"module.devaluation_block1.exec-6379.deval1";"5027";"2014-10-11 12:26:54.055";"6";"7";"7";"7";"846";"614";"550";"2014-10-11 12:26:49.028";"1";;;;;;;;;;;;;;;;;;;;;;;;;;;;;;;;;;;;;;;;;;;;;;;;;;;;;;;;;;;;;;;;;;;;;;;;;;;;;;;;
"gaiagaia";;;"Mac OS X";"Rachel's Experiment (D.T.)";"1.0";"2";"1";"1";"2";"4";"1";"2014-10-11 12:14:16.260";"2014-10-11 12:28:07.080";"1";"0";"0";"199";"178";"module.devaluation_block1.exec-6379.deval1";"6026";"2014-10-11 12:27:00.103";"24";"9";"9";"9";"998";"967";"1046";"2014-10-11 12:26:54.076";"3";;;;;;;;;;;;;;;;;;;;;;;;;;;;;;;;;;;;;;;;;;;;;;;;;;;;;;;;;;;;;;;;;;;;;;;;;;;;;;;;
"gaiagaia";;;"Mac OS X";"Rachel's Experiment (D.T.)";"1.0";"2";"1";"1";"2";"4";"1";"2014-10-11 12:14:16.260";"2014-10-11 12:28:07.080";"1";"0";"0";"200";"179";"module.devaluation_block1.exec-6379.deval1";"6105";"2014-10-11 12:27:06.231";"15";"3";"3";"3";"1084";"783";"1223";"2014-10-11 12:27:00.126";"2";;;;;;;;;;;;;;;;;;;;;;;;;;;;;;;;;;;;;;;;;;;;;;;;;;;;;;;;;;;;;;;;;;;;;;;;;;;;;;;;
"gaiagaia";;;"Mac OS X";"Rachel's Experiment (D.T.)";"1.0";"2";"1";"1";"2";"4";"1";"2014-10-11 12:14:16.260";"2014-10-11 12:28:07.080";"1";"0";"0";"201";"180";"module.devaluation_block1.exec-6379.deval1";"5939";"2014-10-11 12:27:12.191";"26";"6";"6";"6";"1390";"654";"878";"2014-10-11 12:27:06.251";"3";;;;;;;;;;;;;;;;;;;;;;;;;;;;;;;;;;;;;;;;;;;;;;;;;;;;;;;;;;;;;;;;;;;;;;;;;;;;;;;;
"gaiagaia";;;"Mac OS X";"Rachel's Experiment (D.T.)";"1.0";"2";"1";"1";"2";"4";"1";"2014-10-11 12:14:16.260";"2014-10-11 12:28:07.080";"1";"0";"0";"202";"181";"module.devaluation_block1.exec-6379.deval1";"5529";"2014-10-11 12:27:17.743";"19";"6";"7";"7";"868";"694";"950";"2014-10-11 12:27:12.214";"3";;;;;;;;;;;;;;;;;;;;;;;;;;;;;;;;;;;;;;;;;;;;;;;;;;;;;;;;;;;;;;;;;;;;;;;;;;;;;;;;
"gaiagaia";;;"Mac OS X";"Rachel's Experiment (D.T.)";"1.0";"2";"1";"1";"2";"4";"1";"2014-10-11 12:14:16.260";"2014-10-11 12:28:07.080";"1";"0";"0";"203";"182";"module.devaluation_block1.exec-6379.deval1";"6356";"2014-10-11 12:27:24.118";"10";"3";"3";"3";"1328";"1031";"982";"2014-10-11 12:27:17.762";"2";;;;;;;;;;;;;;;;;;;;;;;;;;;;;;;;;;;;;;;;;;;;;;;;;;;;;;;;;;;;;;;;;;;;;;;;;;;;;;;;
"gaiagaia";;;"Mac OS X";"Rachel's Experiment (D.T.)";"1.0";"2";"1";"1";"2";"4";"1";"2014-10-11 12:14:16.260";"2014-10-11 12:28:07.080";"1";"0";"0";"204";"183";"module.devaluation_block1.exec-6379.deval1";"5532";"2014-10-11 12:27:29.670";"2";"9";"9";"9";"847";"774";"894";"2014-10-11 12:27:24.138";"1";;;;;;;;;;;;;;;;;;;;;;;;;;;;;;;;;;;;;;;;;;;;;;;;;;;;;;;;;;;;;;;;;;;;;;;;;;;;;;;;
"gaiagaia";;;"Mac OS X";"Rachel's Experiment (D.T.)";"1.0";"2";"1";"1";"2";"4";"1";"2014-10-11 12:14:16.260";"2014-10-11 12:28:07.080";"1";"0";"0";"205";"184";"module.devaluation_block1.exec-6379.deval1";"5323";"2014-10-11 12:27:35.014";"8";"7";"7";"8";"655";"478";"1175";"2014-10-11 12:27:29.690";"1";;;;;;;;;;;;;;;;;;;;;;;;;;;;;;;;;;;;;;;;;;;;;;;;;;;;;;;;;;;;;;;;;;;;;;;;;;;;;;;;
"gaiagaia";;;"Mac OS X";"Rachel's Experiment (D.T.)";"1.0";"2";"1";"1";"2";"4";"1";"2014-10-11 12:14:16.260";"2014-10-11 12:28:07.080";"1";"0";"0";"206";"185";"module.devaluation_block1.exec-6379.deval1";"5965";"2014-10-11 12:27:40.998";"12";"9";"9";"9";"1112";"1070";"766";"2014-10-11 12:27:35.033";"2";;;;;;;;;;;;;;;;;;;;;;;;;;;;;;;;;;;;;;;;;;;;;;;;;;;;;;;;;;;;;;;;;;;;;;;;;;;;;;;;
"gaiagaia";;;"Mac OS X";"Rachel's Experiment (D.T.)";"1.0";"2";"1";"1";"2";"4";"1";"2014-10-11 12:14:16.260";"2014-10-11 12:28:07.080";"1";"0";"0";"207";"186";"module.devaluation_block1.exec-6379.deval1";"6245";"2014-10-11 12:27:47.262";"4";"9";"9";"9";"1377";"1007";"846";"2014-10-11 12:27:41.016";"1";;;;;;;;;;;;;;;;;;;;;;;;;;;;;;;;;;;;;;;;;;;;;;;;;;;;;;;;;;;;;;;;;;;;;;;;;;;;;;;;
"gaiagaia";;;"Mac OS X";"Rachel's Experiment (D.T.)";"1.0";"2";"1";"1";"2";"4";"1";"2014-10-11 12:14:16.260";"2014-10-11 12:28:07.080";"1";"0";"0";"208";"187";"module.devaluation_block1.exec-6379.deval1";"5323";"2014-10-11 12:27:52.606";"25";"6";"6";"6";"1055";"438";"814";"2014-10-11 12:27:47.282";"3";;;;;;;;;;;;;;;;;;;;;;;;;;;;;;;;;;;;;;;;;;;;;;;;;;;;;;;;;;;;;;;;;;;;;;;;;;;;;;;;
"gaiagaia";;;"Mac OS X";"Rachel's Experiment (D.T.)";"1.0";"2";"1";"1";"2";"4";"1";"2014-10-11 12:14:16.260";"2014-10-11 12:28:07.080";"1";"0";"0";"209";"188";"module.devaluation_block1.exec-6379.deval1";"7741";"2014-10-11 12:28:00.365";"16";"3";"3";"2";"837";"2903";"982";"2014-10-11 12:27:52.624";"2";;;;;;;;;;;;;;;;;;;;;;;;;;;;;;;;;;;;;;;;;;;;;;;;;;;;;;;;;;;;;;;;;;;;;;;;;;;;;;;;
"gaiagaia";;;"Mac OS X";"Rachel's Experiment (D.T.)";"1.0";"2";"1";"1";"2";"4";"1";"2014-10-11 12:14:16.260";"2014-10-11 12:28:07.080";"1";"0";"0";"210";"189";"module.devaluation_block1.exec-6379.deval1";"5355";"2014-10-11 12:28:05.741";"21";"6";"7";"7";"686";"887";"766";"2014-10-11 12:28:00.386";"3";;;;;;;;;;;;;;;;;;;;;;;;;;;;;;;;;;;;;;;;;;;;;;;;;;;;;;;;;;;;;;;;;;;;;;;;;;;;;;;;
