"user.name";"user.yearOfBirth";"user.sex";"user.osName";"module.name";"module.version";"module.online.subject.code";"module.online.study.id";"module.online.module.nr";"module.online.group.nr";"session.id";"session.index";"session.startTime";"session.endTime";"session.completed";"session.node-2769.conditionType";"session.node-5841.DevalQorder";"trial.id";"trial.index";"trial.name";"trial.deval1.durationTime";"trial.deval1.endTime";"trial.deval1.icon";"trial.deval1.Resp_Attractive";"trial.deval1.Resp_Eat";"trial.deval1.Resp_Taste";"trial.deval1.RT_Attractive";"trial.deval1.RT_Eat";"trial.deval1.RT_Taste";"trial.deval1.startTime";"trial.deval1.stimulus type";"trial.devalPractice.durationTime";"trial.devalPractice.endTime";"trial.devalPractice.icon";"trial.devalPractice.Resp_Attractive";"trial.devalPractice.Resp_Eat";"trial.devalPractice.Resp_Taste";"trial.devalPractice.RT_Attractive";"trial.devalPractice.RT_Eat";"trial.devalPractice.RT_Taste";"trial.devalPractice.startTime";"trial.devalPractice.stimulus type";"trial.GoNoGo1.durationTime";"trial.GoNoGo1.endTime";"trial.GoNoGo1.Error Type";"trial.GoNoGo1.icon";"trial.GoNoGo1.location";"trial.GoNoGo1.outcome";"trial.GoNoGo1.response";"trial.GoNoGo1.result";"trial.GoNoGo1.RT";"trial.GoNoGo1.signal";"trial.GoNoGo1.startTime";"trial.GoNoGo1.stimulus type";"trial.GoNoGo2.durationTime";"trial.GoNoGo2.endTime";"trial.GoNoGo2.Error Type";"trial.GoNoGo2.icon";"trial.GoNoGo2.location";"trial.GoNoGo2.outcome";"trial.GoNoGo2.response";"trial.GoNoGo2.result";"trial.GoNoGo2.RT";"trial.GoNoGo2.signal";"trial.GoNoGo2.startTime";"trial.GoNoGo2.stimulus type";"trial.GoNoGo3.durationTime";"trial.GoNoGo3.endTime";"trial.GoNoGo3.Error Type";"trial.GoNoGo3.icon";"trial.GoNoGo3.location";"trial.GoNoGo3.outcome";"trial.GoNoGo3.response";"trial.GoNoGo3.result";"trial.GoNoGo3.RT";"trial.GoNoGo3.signal";"trial.GoNoGo3.startTime";"trial.GoNoGo3.stimulus type";"trial.GoNoGo4.durationTime";"trial.GoNoGo4.endTime";"trial.GoNoGo4.Error Type";"trial.GoNoGo4.icon";"trial.GoNoGo4.location";"trial.GoNoGo4.outcome";"trial.GoNoGo4.response";"trial.GoNoGo4.result";"trial.GoNoGo4.RT";"trial.GoNoGo4.signal";"trial.GoNoGo4.startTime";"trial.GoNoGo4.stimulus type";"trial.GoNoGo_Practice.durationTime";"trial.GoNoGo_Practice.endTime";"trial.GoNoGo_Practice.icon";"trial.GoNoGo_Practice.location";"trial.GoNoGo_Practice.outcome";"trial.GoNoGo_Practice.response";"trial.GoNoGo_Practice.result";"trial.GoNoGo_Practice.RT";"trial.GoNoGo_Practice.signal";"trial.GoNoGo_Practice.startTime";"trial.GoNoGo_Practice.stimulus type";"trial.GoNoGo_Tutorial.durationTime";"trial.GoNoGo_Tutorial.endTime";"trial.GoNoGo_Tutorial.icon";"trial.GoNoGo_Tutorial.location";"trial.GoNoGo_Tutorial.outcome";"trial.GoNoGo_Tutorial.response";"trial.GoNoGo_Tutorial.result";"trial.GoNoGo_Tutorial.RT";"trial.GoNoGo_Tutorial.signal";"trial.GoNoGo_Tutorial.startTime"
"scd2014";;;"Windows 7";"Rachel's Experiment (D.T.)";"1.0";"2";"1";"1";"2";"1";"1";"2014-10-16 12:24:23.749";"2014-10-16 12:38:12.182";"1";"1";"1";"1";"0";"module.GoNoGotutorial.exec-9561.GoNoGo_Tutorial";;;;;;;;;;;;;;;;;;;;;;;;;;;;;;;;;;;;;;;;;;;;;;;;;;;;;;;;;;;;;;;;;;;;;;;;;;;;;;;;;;"3998";"2014-10-16 12:25:15.640";"leftResponse";"0";"FINISHED";"LEFT";"success";"2166";"0";"2014-10-16 12:25:11.630"
"scd2014";;;"Windows 7";"Rachel's Experiment (D.T.)";"1.0";"2";"1";"1";"2";"1";"1";"2014-10-16 12:24:23.749";"2014-10-16 12:38:12.182";"1";"1";"1";"2";"1";"module.GoNoGotutorial.exec-9561.GoNoGo_Tutorial";;;;;;;;;;;;;;;;;;;;;;;;;;;;;;;;;;;;;;;;;;;;;;;;;;;;;;;;;;;;;;;;;;;;;;;;;;;;;;;;;;"4003";"2014-10-16 12:25:20.944";"rightResponse";"1";"FINISHED";"RIGHT";"success";"883";"0";"2014-10-16 12:25:16.935"
"scd2014";;;"Windows 7";"Rachel's Experiment (D.T.)";"1.0";"2";"1";"1";"2";"1";"1";"2014-10-16 12:24:23.749";"2014-10-16 12:38:12.182";"1";"1";"1";"3";"2";"module.GoNoGotutorial.exec-9561.GoNoGo_Tutorial";;;;;;;;;;;;;;;;;;;;;;;;;;;;;;;;;;;;;;;;;;;;;;;;;;;;;;;;;;;;;;;;;;;;;;;;;;;;;;;;;;"4003";"2014-10-16 12:25:26.249";"signalResponse";"0";"FINISHED";"NONE";"success";"0";"1";"2014-10-16 12:25:22.239"
"scd2014";;;"Windows 7";"Rachel's Experiment (D.T.)";"1.0";"2";"1";"1";"2";"1";"1";"2014-10-16 12:24:23.749";"2014-10-16 12:38:12.182";"1";"1";"1";"4";"3";"module.GoNoGopractice.exec-2717.GoNoGo_Practice";;;;;;;;;;;;;;;;;;;;;;;;;;;;;;;;;;;;;;;;;;;;;;;;;;;;;;;;;;;;;;;;;;;;;;;"1959";"2014-10-16 12:25:34.533";"18";"0";"FINISHED";"LEFT";"success";"626";"0";"2014-10-16 12:25:32.567";"3";;;;;;;;;;
"scd2014";;;"Windows 7";"Rachel's Experiment (D.T.)";"1.0";"2";"1";"1";"2";"1";"1";"2014-10-16 12:24:23.749";"2014-10-16 12:38:12.182";"1";"1";"1";"5";"4";"module.GoNoGopractice.exec-2717.GoNoGo_Practice";;;;;;;;;;;;;;;;;;;;;;;;;;;;;;;;;;;;;;;;;;;;;;;;;;;;;;;;;;;;;;;;;;;;;;;"1953";"2014-10-16 12:25:37.778";"21";"1";"FINISHED";"RIGHT";"success";"457";"0";"2014-10-16 12:25:35.812";"3";;;;;;;;;;
"scd2014";;;"Windows 7";"Rachel's Experiment (D.T.)";"1.0";"2";"1";"1";"2";"1";"1";"2014-10-16 12:24:23.749";"2014-10-16 12:38:12.182";"1";"1";"1";"6";"5";"module.GoNoGopractice.exec-2717.GoNoGo_Practice";;;;;;;;;;;;;;;;;;;;;;;;;;;;;;;;;;;;;;;;;;;;;;;;;;;;;;;;;;;;;;;;;;;;;;;"1958";"2014-10-16 12:25:41.023";"14";"1";"FINISHED";"NONE";"success";"0";"1";"2014-10-16 12:25:39.057";"2";;;;;;;;;;
"scd2014";;;"Windows 7";"Rachel's Experiment (D.T.)";"1.0";"2";"1";"1";"2";"1";"1";"2014-10-16 12:24:23.749";"2014-10-16 12:38:12.182";"1";"1";"1";"7";"6";"module.GoNoGopractice.exec-2717.GoNoGo_Practice";;;;;;;;;;;;;;;;;;;;;;;;;;;;;;;;;;;;;;;;;;;;;;;;;;;;;;;;;;;;;;;;;;;;;;;"1959";"2014-10-16 12:25:44.268";"26";"0";"FINISHED";"LEFT";"success";"469";"0";"2014-10-16 12:25:42.302";"3";;;;;;;;;;
"scd2014";;;"Windows 7";"Rachel's Experiment (D.T.)";"1.0";"2";"1";"1";"2";"1";"1";"2014-10-16 12:24:23.749";"2014-10-16 12:38:12.182";"1";"1";"1";"8";"7";"module.GoNoGopractice.exec-2717.GoNoGo_Practice";;;;;;;;;;;;;;;;;;;;;;;;;;;;;;;;;;;;;;;;;;;;;;;;;;;;;;;;;;;;;;;;;;;;;;;"1959";"2014-10-16 12:25:47.513";"2";"0";"FINISHED";"LEFT";"success";"488";"0";"2014-10-16 12:25:45.548";"1";;;;;;;;;;
"scd2014";;;"Windows 7";"Rachel's Experiment (D.T.)";"1.0";"2";"1";"1";"2";"1";"1";"2014-10-16 12:24:23.749";"2014-10-16 12:38:12.182";"1";"1";"1";"9";"8";"module.GoNoGopractice.exec-2717.GoNoGo_Practice";;;;;;;;;;;;;;;;;;;;;;;;;;;;;;;;;;;;;;;;;;;;;;;;;;;;;;;;;;;;;;;;;;;;;;;"1959";"2014-10-16 12:25:50.758";"30";"0";"FINISHED";"NONE";"success";"0";"1";"2014-10-16 12:25:48.793";"3";;;;;;;;;;
"scd2014";;;"Windows 7";"Rachel's Experiment (D.T.)";"1.0";"2";"1";"1";"2";"1";"1";"2014-10-16 12:24:23.749";"2014-10-16 12:38:12.182";"1";"1";"1";"10";"9";"module.GoNoGopractice.exec-2717.GoNoGo_Practice";;;;;;;;;;;;;;;;;;;;;;;;;;;;;;;;;;;;;;;;;;;;;;;;;;;;;;;;;;;;;;;;;;;;;;;"1959";"2014-10-16 12:25:54.004";"6";"1";"FINISHED";"NONE";"success";"0";"1";"2014-10-16 12:25:52.038";"1";;;;;;;;;;
"scd2014";;;"Windows 7";"Rachel's Experiment (D.T.)";"1.0";"2";"1";"1";"2";"1";"1";"2014-10-16 12:24:23.749";"2014-10-16 12:38:12.182";"1";"1";"1";"11";"10";"module.GoNoGopractice.exec-2717.GoNoGo_Practice";;;;;;;;;;;;;;;;;;;;;;;;;;;;;;;;;;;;;;;;;;;;;;;;;;;;;;;;;;;;;;;;;;;;;;;"1960";"2014-10-16 12:25:57.249";"34";"0";"FINISHED";"LEFT";"success";"522";"0";"2014-10-16 12:25:55.283";"3";;;;;;;;;;
"scd2014";;;"Windows 7";"Rachel's Experiment (D.T.)";"1.0";"2";"1";"1";"2";"1";"1";"2014-10-16 12:24:23.749";"2014-10-16 12:38:12.182";"1";"1";"1";"12";"11";"module.GoNoGopractice.exec-2717.GoNoGo_Practice";;;;;;;;;;;;;;;;;;;;;;;;;;;;;;;;;;;;;;;;;;;;;;;;;;;;;;;;;;;;;;;;;;;;;;;"1959";"2014-10-16 12:26:00.494";"23";"1";"FINISHED";"RIGHT";"success";"461";"0";"2014-10-16 12:25:58.528";"3";;;;;;;;;;
"scd2014";;;"Windows 7";"Rachel's Experiment (D.T.)";"1.0";"2";"1";"1";"2";"1";"1";"2014-10-16 12:24:23.749";"2014-10-16 12:38:12.182";"1";"1";"1";"13";"12";"module.GoNoGopractice.exec-2717.GoNoGo_Practice";;;;;;;;;;;;;;;;;;;;;;;;;;;;;;;;;;;;;;;;;;;;;;;;;;;;;;;;;;;;;;;;;;;;;;;"1959";"2014-10-16 12:26:03.739";"13";"0";"FINISHED";"NONE";"success";"0";"1";"2014-10-16 12:26:01.773";"2";;;;;;;;;;
"scd2014";;;"Windows 7";"Rachel's Experiment (D.T.)";"1.0";"2";"1";"1";"2";"1";"1";"2014-10-16 12:24:23.749";"2014-10-16 12:38:12.182";"1";"1";"1";"14";"13";"module.GoNoGopractice.exec-2717.GoNoGo_Practice";;;;;;;;;;;;;;;;;;;;;;;;;;;;;;;;;;;;;;;;;;;;;;;;;;;;;;;;;;;;;;;;;;;;;;;"1959";"2014-10-16 12:26:07.078";"3";"1";"FINISHED";"RIGHT";"success";"613";"0";"2014-10-16 12:26:05.112";"1";;;;;;;;;;
"scd2014";;;"Windows 7";"Rachel's Experiment (D.T.)";"1.0";"2";"1";"1";"2";"1";"1";"2014-10-16 12:24:23.749";"2014-10-16 12:38:12.182";"1";"1";"1";"15";"14";"module.GoNoGopractice.exec-2717.GoNoGo_Practice";;;;;;;;;;;;;;;;;;;;;;;;;;;;;;;;;;;;;;;;;;;;;;;;;;;;;;;;;;;;;;;;;;;;;;;"1959";"2014-10-16 12:26:10.323";"27";"1";"FINISHED";"NONE";"success";"0";"1";"2014-10-16 12:26:08.357";"3";;;;;;;;;;
"scd2014";;;"Windows 7";"Rachel's Experiment (D.T.)";"1.0";"2";"1";"1";"2";"1";"1";"2014-10-16 12:24:23.749";"2014-10-16 12:38:12.182";"1";"1";"1";"16";"15";"module.training_block1.exec-5144.GoNoGo1";;;;;;;;;;;;;;;;;;;;;;;"1257";"2014-10-16 12:26:19.247";"ST_correctStop";"5";"0";"FINISHED";"NONE";"success";"0";"1";"2014-10-16 12:26:17.983";"1";;;;;;;;;;;;;;;;;;;;;;;;;;;;;;;;;;;;;;;;;;;;;;;;;;;;;;;;;
"scd2014";;;"Windows 7";"Rachel's Experiment (D.T.)";"1.0";"2";"1";"1";"2";"1";"1";"2014-10-16 12:24:23.749";"2014-10-16 12:38:12.182";"1";"1";"1";"17";"16";"module.training_block1.exec-5144.GoNoGo1";;;;;;;;;;;;;;;;;;;;;;;"1258";"2014-10-16 12:26:21.790";"ST_correctStop";"29";"1";"FINISHED";"NONE";"success";"0";"1";"2014-10-16 12:26:20.526";"3";;;;;;;;;;;;;;;;;;;;;;;;;;;;;;;;;;;;;;;;;;;;;;;;;;;;;;;;;
"scd2014";;;"Windows 7";"Rachel's Experiment (D.T.)";"1.0";"2";"1";"1";"2";"1";"1";"2014-10-16 12:24:23.749";"2014-10-16 12:38:12.182";"1";"1";"1";"18";"17";"module.training_block1.exec-5144.GoNoGo1";;;;;;;;;;;;;;;;;;;;;;;"1257";"2014-10-16 12:26:24.333";"ST_correctStop";"26";"1";"FINISHED";"NONE";"success";"0";"1";"2014-10-16 12:26:23.069";"3";;;;;;;;;;;;;;;;;;;;;;;;;;;;;;;;;;;;;;;;;;;;;;;;;;;;;;;;;
"scd2014";;;"Windows 7";"Rachel's Experiment (D.T.)";"1.0";"2";"1";"1";"2";"1";"1";"2014-10-16 12:24:23.749";"2014-10-16 12:38:12.182";"1";"1";"1";"19";"18";"module.training_block1.exec-5144.GoNoGo1";;;;;;;;;;;;;;;;;;;;;;;"1257";"2014-10-16 12:26:26.876";"ST_correctStop";"0";"0";"FINISHED";"NONE";"success";"0";"1";"2014-10-16 12:26:25.612";"1";;;;;;;;;;;;;;;;;;;;;;;;;;;;;;;;;;;;;;;;;;;;;;;;;;;;;;;;;
"scd2014";;;"Windows 7";"Rachel's Experiment (D.T.)";"1.0";"2";"1";"1";"2";"1";"1";"2014-10-16 12:24:23.749";"2014-10-16 12:38:12.182";"1";"1";"1";"20";"19";"module.training_block1.exec-5144.GoNoGo1";;;;;;;;;;;;;;;;;;;;;;;"1258";"2014-10-16 12:26:29.419";"ST_correctStop";"1";"1";"FINISHED";"NONE";"success";"0";"1";"2014-10-16 12:26:28.155";"1";;;;;;;;;;;;;;;;;;;;;;;;;;;;;;;;;;;;;;;;;;;;;;;;;;;;;;;;;
"scd2014";;;"Windows 7";"Rachel's Experiment (D.T.)";"1.0";"2";"1";"1";"2";"1";"1";"2014-10-16 12:24:23.749";"2014-10-16 12:38:12.182";"1";"1";"1";"21";"20";"module.training_block1.exec-5144.GoNoGo1";;;;;;;;;;;;;;;;;;;;;;;"1257";"2014-10-16 12:26:31.962";"NST_correctLoc";"17";"0";"FINISHED";"LEFT";"success";"557";"0";"2014-10-16 12:26:30.698";"2";;;;;;;;;;;;;;;;;;;;;;;;;;;;;;;;;;;;;;;;;;;;;;;;;;;;;;;;;
"scd2014";;;"Windows 7";"Rachel's Experiment (D.T.)";"1.0";"2";"1";"1";"2";"1";"1";"2014-10-16 12:24:23.749";"2014-10-16 12:38:12.182";"1";"1";"1";"22";"21";"module.training_block1.exec-5144.GoNoGo1";;;;;;;;;;;;;;;;;;;;;;;"1258";"2014-10-16 12:26:34.505";"ST_correctStop";"20";"0";"FINISHED";"NONE";"success";"0";"1";"2014-10-16 12:26:33.241";"3";;;;;;;;;;;;;;;;;;;;;;;;;;;;;;;;;;;;;;;;;;;;;;;;;;;;;;;;;
"scd2014";;;"Windows 7";"Rachel's Experiment (D.T.)";"1.0";"2";"1";"1";"2";"1";"1";"2014-10-16 12:24:23.749";"2014-10-16 12:38:12.182";"1";"1";"1";"23";"22";"module.training_block1.exec-5144.GoNoGo1";;;;;;;;;;;;;;;;;;;;;;;"1257";"2014-10-16 12:26:37.048";"ST_correctStop";"7";"1";"FINISHED";"NONE";"success";"0";"1";"2014-10-16 12:26:35.784";"1";;;;;;;;;;;;;;;;;;;;;;;;;;;;;;;;;;;;;;;;;;;;;;;;;;;;;;;;;
"scd2014";;;"Windows 7";"Rachel's Experiment (D.T.)";"1.0";"2";"1";"1";"2";"1";"1";"2014-10-16 12:24:23.749";"2014-10-16 12:38:12.182";"1";"1";"1";"24";"23";"module.training_block1.exec-5144.GoNoGo1";;;;;;;;;;;;;;;;;;;;;;;"1257";"2014-10-16 12:26:39.591";"NST_correctLoc";"21";"1";"FINISHED";"RIGHT";"success";"537";"0";"2014-10-16 12:26:38.327";"3";;;;;;;;;;;;;;;;;;;;;;;;;;;;;;;;;;;;;;;;;;;;;;;;;;;;;;;;;
"scd2014";;;"Windows 7";"Rachel's Experiment (D.T.)";"1.0";"2";"1";"1";"2";"1";"1";"2014-10-16 12:24:23.749";"2014-10-16 12:38:12.182";"1";"1";"1";"25";"24";"module.training_block1.exec-5144.GoNoGo1";;;;;;;;;;;;;;;;;;;;;;;"1257";"2014-10-16 12:26:42.134";"ST_correctStop";"18";"0";"FINISHED";"NONE";"success";"0";"1";"2014-10-16 12:26:40.870";"3";;;;;;;;;;;;;;;;;;;;;;;;;;;;;;;;;;;;;;;;;;;;;;;;;;;;;;;;;
"scd2014";;;"Windows 7";"Rachel's Experiment (D.T.)";"1.0";"2";"1";"1";"2";"1";"1";"2014-10-16 12:24:23.749";"2014-10-16 12:38:12.182";"1";"1";"1";"26";"25";"module.training_block1.exec-5144.GoNoGo1";;;;;;;;;;;;;;;;;;;;;;;"1261";"2014-10-16 12:26:44.677";"ST_correctStop";"27";"1";"FINISHED";"NONE";"success";"0";"1";"2014-10-16 12:26:43.413";"3";;;;;;;;;;;;;;;;;;;;;;;;;;;;;;;;;;;;;;;;;;;;;;;;;;;;;;;;;
"scd2014";;;"Windows 7";"Rachel's Experiment (D.T.)";"1.0";"2";"1";"1";"2";"1";"1";"2014-10-16 12:24:23.749";"2014-10-16 12:38:12.182";"1";"1";"1";"27";"26";"module.training_block1.exec-5144.GoNoGo1";;;;;;;;;;;;;;;;;;;;;;;"1257";"2014-10-16 12:26:47.220";"ST_correctStop";"2";"1";"FINISHED";"NONE";"success";"0";"1";"2014-10-16 12:26:45.956";"1";;;;;;;;;;;;;;;;;;;;;;;;;;;;;;;;;;;;;;;;;;;;;;;;;;;;;;;;;
"scd2014";;;"Windows 7";"Rachel's Experiment (D.T.)";"1.0";"2";"1";"1";"2";"1";"1";"2014-10-16 12:24:23.749";"2014-10-16 12:38:12.182";"1";"1";"1";"28";"27";"module.training_block1.exec-5144.GoNoGo1";;;;;;;;;;;;;;;;;;;;;;;"1258";"2014-10-16 12:26:49.763";"ST_correctStop";"22";"0";"FINISHED";"NONE";"success";"0";"1";"2014-10-16 12:26:48.499";"3";;;;;;;;;;;;;;;;;;;;;;;;;;;;;;;;;;;;;;;;;;;;;;;;;;;;;;;;;
"scd2014";;;"Windows 7";"Rachel's Experiment (D.T.)";"1.0";"2";"1";"1";"2";"1";"1";"2014-10-16 12:24:23.749";"2014-10-16 12:38:12.182";"1";"1";"1";"29";"28";"module.training_block1.exec-5144.GoNoGo1";;;;;;;;;;;;;;;;;;;;;;;"1257";"2014-10-16 12:26:52.337";"ST_correctStop";"8";"1";"FINISHED";"NONE";"success";"0";"1";"2014-10-16 12:26:51.073";"1";;;;;;;;;;;;;;;;;;;;;;;;;;;;;;;;;;;;;;;;;;;;;;;;;;;;;;;;;
"scd2014";;;"Windows 7";"Rachel's Experiment (D.T.)";"1.0";"2";"1";"1";"2";"1";"1";"2014-10-16 12:24:23.749";"2014-10-16 12:38:12.182";"1";"1";"1";"30";"29";"module.training_block1.exec-5144.GoNoGo1";;;;;;;;;;;;;;;;;;;;;;;"1258";"2014-10-16 12:26:54.911";"NST_correctLoc";"35";"0";"FINISHED";"LEFT";"success";"458";"0";"2014-10-16 12:26:53.648";"3";;;;;;;;;;;;;;;;;;;;;;;;;;;;;;;;;;;;;;;;;;;;;;;;;;;;;;;;;
"scd2014";;;"Windows 7";"Rachel's Experiment (D.T.)";"1.0";"2";"1";"1";"2";"1";"1";"2014-10-16 12:24:23.749";"2014-10-16 12:38:12.182";"1";"1";"1";"31";"30";"module.training_block1.exec-5144.GoNoGo1";;;;;;;;;;;;;;;;;;;;;;;"1258";"2014-10-16 12:26:57.454";"NST_correctLoc";"11";"0";"FINISHED";"LEFT";"success";"427";"0";"2014-10-16 12:26:56.191";"2";;;;;;;;;;;;;;;;;;;;;;;;;;;;;;;;;;;;;;;;;;;;;;;;;;;;;;;;;
"scd2014";;;"Windows 7";"Rachel's Experiment (D.T.)";"1.0";"2";"1";"1";"2";"1";"1";"2014-10-16 12:24:23.749";"2014-10-16 12:38:12.182";"1";"1";"1";"32";"31";"module.training_block1.exec-5144.GoNoGo1";;;;;;;;;;;;;;;;;;;;;;;"1258";"2014-10-16 12:26:59.997";"NST_correctLoc";"12";"0";"FINISHED";"LEFT";"success";"588";"0";"2014-10-16 12:26:58.734";"2";;;;;;;;;;;;;;;;;;;;;;;;;;;;;;;;;;;;;;;;;;;;;;;;;;;;;;;;;
"scd2014";;;"Windows 7";"Rachel's Experiment (D.T.)";"1.0";"2";"1";"1";"2";"1";"1";"2014-10-16 12:24:23.749";"2014-10-16 12:38:12.182";"1";"1";"1";"33";"32";"module.training_block1.exec-5144.GoNoGo1";;;;;;;;;;;;;;;;;;;;;;;"1257";"2014-10-16 12:27:02.540";"ST_correctStop";"6";"1";"FINISHED";"NONE";"success";"0";"1";"2014-10-16 12:27:01.277";"1";;;;;;;;;;;;;;;;;;;;;;;;;;;;;;;;;;;;;;;;;;;;;;;;;;;;;;;;;
"scd2014";;;"Windows 7";"Rachel's Experiment (D.T.)";"1.0";"2";"1";"1";"2";"1";"1";"2014-10-16 12:24:23.749";"2014-10-16 12:38:12.182";"1";"1";"1";"34";"33";"module.training_block1.exec-5144.GoNoGo1";;;;;;;;;;;;;;;;;;;;;;;"1257";"2014-10-16 12:27:05.084";"NST_correctLoc";"31";"0";"FINISHED";"LEFT";"success";"542";"0";"2014-10-16 12:27:03.820";"3";;;;;;;;;;;;;;;;;;;;;;;;;;;;;;;;;;;;;;;;;;;;;;;;;;;;;;;;;
"scd2014";;;"Windows 7";"Rachel's Experiment (D.T.)";"1.0";"2";"1";"1";"2";"1";"1";"2014-10-16 12:24:23.749";"2014-10-16 12:38:12.182";"1";"1";"1";"35";"34";"module.training_block1.exec-5144.GoNoGo1";;;;;;;;;;;;;;;;;;;;;;;"1258";"2014-10-16 12:27:07.627";"NST_correctLoc";"25";"1";"FINISHED";"RIGHT";"success";"456";"0";"2014-10-16 12:27:06.363";"3";;;;;;;;;;;;;;;;;;;;;;;;;;;;;;;;;;;;;;;;;;;;;;;;;;;;;;;;;
"scd2014";;;"Windows 7";"Rachel's Experiment (D.T.)";"1.0";"2";"1";"1";"2";"1";"1";"2014-10-16 12:24:23.749";"2014-10-16 12:38:12.182";"1";"1";"1";"36";"35";"module.training_block1.exec-5144.GoNoGo1";;;;;;;;;;;;;;;;;;;;;;;"1261";"2014-10-16 12:27:10.170";"ST_correctStop";"3";"0";"FINISHED";"NONE";"success";"0";"1";"2014-10-16 12:27:08.906";"1";;;;;;;;;;;;;;;;;;;;;;;;;;;;;;;;;;;;;;;;;;;;;;;;;;;;;;;;;
"scd2014";;;"Windows 7";"Rachel's Experiment (D.T.)";"1.0";"2";"1";"1";"2";"1";"1";"2014-10-16 12:24:23.749";"2014-10-16 12:38:12.182";"1";"1";"1";"37";"36";"module.training_block1.exec-5144.GoNoGo1";;;;;;;;;;;;;;;;;;;;;;;"1256";"2014-10-16 12:27:12.713";"ST_correctStop";"24";"0";"FINISHED";"NONE";"success";"0";"1";"2014-10-16 12:27:11.449";"3";;;;;;;;;;;;;;;;;;;;;;;;;;;;;;;;;;;;;;;;;;;;;;;;;;;;;;;;;
"scd2014";;;"Windows 7";"Rachel's Experiment (D.T.)";"1.0";"2";"1";"1";"2";"1";"1";"2014-10-16 12:24:23.749";"2014-10-16 12:38:12.182";"1";"1";"1";"38";"37";"module.training_block1.exec-5144.GoNoGo1";;;;;;;;;;;;;;;;;;;;;;;"1258";"2014-10-16 12:27:15.256";"NST_correctLoc";"28";"1";"FINISHED";"RIGHT";"success";"443";"0";"2014-10-16 12:27:13.992";"3";;;;;;;;;;;;;;;;;;;;;;;;;;;;;;;;;;;;;;;;;;;;;;;;;;;;;;;;;
"scd2014";;;"Windows 7";"Rachel's Experiment (D.T.)";"1.0";"2";"1";"1";"2";"1";"1";"2014-10-16 12:24:23.749";"2014-10-16 12:38:12.182";"1";"1";"1";"39";"38";"module.training_block1.exec-5144.GoNoGo1";;;;;;;;;;;;;;;;;;;;;;;"1257";"2014-10-16 12:27:17.799";"ST_correctStop";"4";"0";"FINISHED";"NONE";"success";"0";"1";"2014-10-16 12:27:16.535";"1";;;;;;;;;;;;;;;;;;;;;;;;;;;;;;;;;;;;;;;;;;;;;;;;;;;;;;;;;
"scd2014";;;"Windows 7";"Rachel's Experiment (D.T.)";"1.0";"2";"1";"1";"2";"1";"1";"2014-10-16 12:24:23.749";"2014-10-16 12:38:12.182";"1";"1";"1";"40";"39";"module.training_block1.exec-5144.GoNoGo1";;;;;;;;;;;;;;;;;;;;;;;"1257";"2014-10-16 12:27:20.342";"NST_correctLoc";"13";"0";"FINISHED";"LEFT";"success";"485";"0";"2014-10-16 12:27:19.078";"2";;;;;;;;;;;;;;;;;;;;;;;;;;;;;;;;;;;;;;;;;;;;;;;;;;;;;;;;;
"scd2014";;;"Windows 7";"Rachel's Experiment (D.T.)";"1.0";"2";"1";"1";"2";"1";"1";"2014-10-16 12:24:23.749";"2014-10-16 12:38:12.182";"1";"1";"1";"41";"40";"module.training_block1.exec-5144.GoNoGo1";;;;;;;;;;;;;;;;;;;;;;;"1257";"2014-10-16 12:27:22.885";"NST_correctLoc";"23";"1";"FINISHED";"RIGHT";"success";"494";"0";"2014-10-16 12:27:21.621";"3";;;;;;;;;;;;;;;;;;;;;;;;;;;;;;;;;;;;;;;;;;;;;;;;;;;;;;;;;
"scd2014";;;"Windows 7";"Rachel's Experiment (D.T.)";"1.0";"2";"1";"1";"2";"1";"1";"2014-10-16 12:24:23.749";"2014-10-16 12:38:12.182";"1";"1";"1";"42";"41";"module.training_block1.exec-5144.GoNoGo1";;;;;;;;;;;;;;;;;;;;;;;"1257";"2014-10-16 12:27:25.428";"NST_correctLoc";"10";"1";"FINISHED";"RIGHT";"success";"584";"0";"2014-10-16 12:27:24.164";"2";;;;;;;;;;;;;;;;;;;;;;;;;;;;;;;;;;;;;;;;;;;;;;;;;;;;;;;;;
"scd2014";;;"Windows 7";"Rachel's Experiment (D.T.)";"1.0";"2";"1";"1";"2";"1";"1";"2014-10-16 12:24:23.749";"2014-10-16 12:38:12.182";"1";"1";"1";"43";"42";"module.training_block1.exec-5144.GoNoGo1";;;;;;;;;;;;;;;;;;;;;;;"1253";"2014-10-16 12:27:27.971";"NST_correctLoc";"16";"1";"FINISHED";"RIGHT";"success";"420";"0";"2014-10-16 12:27:26.707";"2";;;;;;;;;;;;;;;;;;;;;;;;;;;;;;;;;;;;;;;;;;;;;;;;;;;;;;;;;
"scd2014";;;"Windows 7";"Rachel's Experiment (D.T.)";"1.0";"2";"1";"1";"2";"1";"1";"2014-10-16 12:24:23.749";"2014-10-16 12:38:12.182";"1";"1";"1";"44";"43";"module.training_block1.exec-5144.GoNoGo1";;;;;;;;;;;;;;;;;;;;;;;"1258";"2014-10-16 12:27:30.514";"NST_correctLoc";"30";"0";"FINISHED";"LEFT";"success";"490";"0";"2014-10-16 12:27:29.250";"3";;;;;;;;;;;;;;;;;;;;;;;;;;;;;;;;;;;;;;;;;;;;;;;;;;;;;;;;;
"scd2014";;;"Windows 7";"Rachel's Experiment (D.T.)";"1.0";"2";"1";"1";"2";"1";"1";"2014-10-16 12:24:23.749";"2014-10-16 12:38:12.182";"1";"1";"1";"45";"44";"module.training_block1.exec-5144.GoNoGo1";;;;;;;;;;;;;;;;;;;;;;;"1257";"2014-10-16 12:27:33.057";"NST_correctLoc";"15";"0";"FINISHED";"LEFT";"success";"499";"0";"2014-10-16 12:27:31.793";"2";;;;;;;;;;;;;;;;;;;;;;;;;;;;;;;;;;;;;;;;;;;;;;;;;;;;;;;;;
"scd2014";;;"Windows 7";"Rachel's Experiment (D.T.)";"1.0";"2";"1";"1";"2";"1";"1";"2014-10-16 12:24:23.749";"2014-10-16 12:38:12.182";"1";"1";"1";"46";"45";"module.training_block1.exec-5144.GoNoGo1";;;;;;;;;;;;;;;;;;;;;;;"1257";"2014-10-16 12:27:35.600";"NST_correctLoc";"14";"1";"FINISHED";"RIGHT";"success";"484";"0";"2014-10-16 12:27:34.336";"2";;;;;;;;;;;;;;;;;;;;;;;;;;;;;;;;;;;;;;;;;;;;;;;;;;;;;;;;;
"scd2014";;;"Windows 7";"Rachel's Experiment (D.T.)";"1.0";"2";"1";"1";"2";"1";"1";"2014-10-16 12:24:23.749";"2014-10-16 12:38:12.182";"1";"1";"1";"47";"46";"module.training_block1.exec-5144.GoNoGo1";;;;;;;;;;;;;;;;;;;;;;;"1257";"2014-10-16 12:27:38.143";"ST_correctStop";"32";"0";"FINISHED";"NONE";"success";"0";"1";"2014-10-16 12:27:36.879";"3";;;;;;;;;;;;;;;;;;;;;;;;;;;;;;;;;;;;;;;;;;;;;;;;;;;;;;;;;
"scd2014";;;"Windows 7";"Rachel's Experiment (D.T.)";"1.0";"2";"1";"1";"2";"1";"1";"2014-10-16 12:24:23.749";"2014-10-16 12:38:12.182";"1";"1";"1";"48";"47";"module.training_block1.exec-5144.GoNoGo1";;;;;;;;;;;;;;;;;;;;;;;"1258";"2014-10-16 12:27:40.686";"NST_correctLoc";"33";"0";"FINISHED";"LEFT";"success";"543";"0";"2014-10-16 12:27:39.422";"3";;;;;;;;;;;;;;;;;;;;;;;;;;;;;;;;;;;;;;;;;;;;;;;;;;;;;;;;;
"scd2014";;;"Windows 7";"Rachel's Experiment (D.T.)";"1.0";"2";"1";"1";"2";"1";"1";"2014-10-16 12:24:23.749";"2014-10-16 12:38:12.182";"1";"1";"1";"49";"48";"module.training_block1.exec-5144.GoNoGo1";;;;;;;;;;;;;;;;;;;;;;;"1257";"2014-10-16 12:27:43.245";"NST_correctLoc";"19";"0";"FINISHED";"LEFT";"success";"600";"0";"2014-10-16 12:27:41.981";"3";;;;;;;;;;;;;;;;;;;;;;;;;;;;;;;;;;;;;;;;;;;;;;;;;;;;;;;;;
"scd2014";;;"Windows 7";"Rachel's Experiment (D.T.)";"1.0";"2";"1";"1";"2";"1";"1";"2014-10-16 12:24:23.749";"2014-10-16 12:38:12.182";"1";"1";"1";"50";"49";"module.training_block1.exec-5144.GoNoGo1";;;;;;;;;;;;;;;;;;;;;;;"1258";"2014-10-16 12:27:45.788";"ST_correctStop";"34";"0";"FINISHED";"NONE";"success";"0";"1";"2014-10-16 12:27:44.524";"3";;;;;;;;;;;;;;;;;;;;;;;;;;;;;;;;;;;;;;;;;;;;;;;;;;;;;;;;;
"scd2014";;;"Windows 7";"Rachel's Experiment (D.T.)";"1.0";"2";"1";"1";"2";"1";"1";"2014-10-16 12:24:23.749";"2014-10-16 12:38:12.182";"1";"1";"1";"51";"50";"module.training_block1.exec-5144.GoNoGo1";;;;;;;;;;;;;;;;;;;;;;;"1257";"2014-10-16 12:27:48.331";"NST_correctLoc";"9";"1";"FINISHED";"RIGHT";"success";"507";"0";"2014-10-16 12:27:47.067";"2";;;;;;;;;;;;;;;;;;;;;;;;;;;;;;;;;;;;;;;;;;;;;;;;;;;;;;;;;
"scd2014";;;"Windows 7";"Rachel's Experiment (D.T.)";"1.0";"2";"1";"1";"2";"1";"1";"2014-10-16 12:24:23.749";"2014-10-16 12:38:12.182";"1";"1";"1";"52";"51";"module.training_block2.exec-4568.GoNoGo2";;;;;;;;;;;;;;;;;;;;;;;;;;;;;;;;;;;"1261";"2014-10-16 12:27:59.517";"NST_correctLoc";"12";"0";"FINISHED";"LEFT";"success";"485";"0";"2014-10-16 12:27:58.253";"2";;;;;;;;;;;;;;;;;;;;;;;;;;;;;;;;;;;;;;;;;;;;;
"scd2014";;;"Windows 7";"Rachel's Experiment (D.T.)";"1.0";"2";"1";"1";"2";"1";"1";"2014-10-16 12:24:23.749";"2014-10-16 12:38:12.182";"1";"1";"1";"53";"52";"module.training_block2.exec-4568.GoNoGo2";;;;;;;;;;;;;;;;;;;;;;;;;;;;;;;;;;;"1261";"2014-10-16 12:28:02.060";"ST_correctStop";"24";"0";"FINISHED";"NONE";"success";"0";"1";"2014-10-16 12:28:00.796";"3";;;;;;;;;;;;;;;;;;;;;;;;;;;;;;;;;;;;;;;;;;;;;
"scd2014";;;"Windows 7";"Rachel's Experiment (D.T.)";"1.0";"2";"1";"1";"2";"1";"1";"2014-10-16 12:24:23.749";"2014-10-16 12:38:12.182";"1";"1";"1";"54";"53";"module.training_block2.exec-4568.GoNoGo2";;;;;;;;;;;;;;;;;;;;;;;;;;;;;;;;;;;"1261";"2014-10-16 12:28:04.603";"NST_correctLoc";"14";"0";"FINISHED";"LEFT";"success";"455";"0";"2014-10-16 12:28:03.339";"2";;;;;;;;;;;;;;;;;;;;;;;;;;;;;;;;;;;;;;;;;;;;;
"scd2014";;;"Windows 7";"Rachel's Experiment (D.T.)";"1.0";"2";"1";"1";"2";"1";"1";"2014-10-16 12:24:23.749";"2014-10-16 12:38:12.182";"1";"1";"1";"55";"54";"module.training_block2.exec-4568.GoNoGo2";;;;;;;;;;;;;;;;;;;;;;;;;;;;;;;;;;;"1261";"2014-10-16 12:28:07.146";"NST_correctLoc";"9";"0";"FINISHED";"LEFT";"success";"529";"0";"2014-10-16 12:28:05.882";"2";;;;;;;;;;;;;;;;;;;;;;;;;;;;;;;;;;;;;;;;;;;;;
"scd2014";;;"Windows 7";"Rachel's Experiment (D.T.)";"1.0";"2";"1";"1";"2";"1";"1";"2014-10-16 12:24:23.749";"2014-10-16 12:38:12.182";"1";"1";"1";"56";"55";"module.training_block2.exec-4568.GoNoGo2";;;;;;;;;;;;;;;;;;;;;;;;;;;;;;;;;;;"1261";"2014-10-16 12:28:09.689";"NST_correctLoc";"15";"1";"FINISHED";"RIGHT";"success";"546";"0";"2014-10-16 12:28:08.425";"2";;;;;;;;;;;;;;;;;;;;;;;;;;;;;;;;;;;;;;;;;;;;;
"scd2014";;;"Windows 7";"Rachel's Experiment (D.T.)";"1.0";"2";"1";"1";"2";"1";"1";"2014-10-16 12:24:23.749";"2014-10-16 12:38:12.182";"1";"1";"1";"57";"56";"module.training_block2.exec-4568.GoNoGo2";;;;;;;;;;;;;;;;;;;;;;;;;;;;;;;;;;;"1261";"2014-10-16 12:28:12.232";"ST_correctStop";"31";"1";"FINISHED";"NONE";"success";"0";"1";"2014-10-16 12:28:10.968";"3";;;;;;;;;;;;;;;;;;;;;;;;;;;;;;;;;;;;;;;;;;;;;
"scd2014";;;"Windows 7";"Rachel's Experiment (D.T.)";"1.0";"2";"1";"1";"2";"1";"1";"2014-10-16 12:24:23.749";"2014-10-16 12:38:12.182";"1";"1";"1";"58";"57";"module.training_block2.exec-4568.GoNoGo2";;;;;;;;;;;;;;;;;;;;;;;;;;;;;;;;;;;"1261";"2014-10-16 12:28:14.775";"ST_correctStop";"8";"0";"FINISHED";"NONE";"success";"0";"1";"2014-10-16 12:28:13.511";"1";;;;;;;;;;;;;;;;;;;;;;;;;;;;;;;;;;;;;;;;;;;;;
"scd2014";;;"Windows 7";"Rachel's Experiment (D.T.)";"1.0";"2";"1";"1";"2";"1";"1";"2014-10-16 12:24:23.749";"2014-10-16 12:38:12.182";"1";"1";"1";"59";"58";"module.training_block2.exec-4568.GoNoGo2";;;;;;;;;;;;;;;;;;;;;;;;;;;;;;;;;;;"1261";"2014-10-16 12:28:17.318";"ST_correctStop";"19";"1";"FINISHED";"NONE";"success";"0";"1";"2014-10-16 12:28:16.054";"3";;;;;;;;;;;;;;;;;;;;;;;;;;;;;;;;;;;;;;;;;;;;;
"scd2014";;;"Windows 7";"Rachel's Experiment (D.T.)";"1.0";"2";"1";"1";"2";"1";"1";"2014-10-16 12:24:23.749";"2014-10-16 12:38:12.182";"1";"1";"1";"60";"59";"module.training_block2.exec-4568.GoNoGo2";;;;;;;;;;;;;;;;;;;;;;;;;;;;;;;;;;;"1261";"2014-10-16 12:28:19.861";"ST_correctStop";"0";"0";"FINISHED";"NONE";"success";"0";"1";"2014-10-16 12:28:18.597";"1";;;;;;;;;;;;;;;;;;;;;;;;;;;;;;;;;;;;;;;;;;;;;
"scd2014";;;"Windows 7";"Rachel's Experiment (D.T.)";"1.0";"2";"1";"1";"2";"1";"1";"2014-10-16 12:24:23.749";"2014-10-16 12:38:12.182";"1";"1";"1";"61";"60";"module.training_block2.exec-4568.GoNoGo2";;;;;;;;;;;;;;;;;;;;;;;;;;;;;;;;;;;"1261";"2014-10-16 12:28:22.404";"ST_correctStop";"27";"1";"FINISHED";"NONE";"success";"0";"1";"2014-10-16 12:28:21.140";"3";;;;;;;;;;;;;;;;;;;;;;;;;;;;;;;;;;;;;;;;;;;;;
"scd2014";;;"Windows 7";"Rachel's Experiment (D.T.)";"1.0";"2";"1";"1";"2";"1";"1";"2014-10-16 12:24:23.749";"2014-10-16 12:38:12.182";"1";"1";"1";"62";"61";"module.training_block2.exec-4568.GoNoGo2";;;;;;;;;;;;;;;;;;;;;;;;;;;;;;;;;;;"1261";"2014-10-16 12:28:24.947";"ST_correctStop";"2";"0";"FINISHED";"NONE";"success";"0";"1";"2014-10-16 12:28:23.683";"1";;;;;;;;;;;;;;;;;;;;;;;;;;;;;;;;;;;;;;;;;;;;;
"scd2014";;;"Windows 7";"Rachel's Experiment (D.T.)";"1.0";"2";"1";"1";"2";"1";"1";"2014-10-16 12:24:23.749";"2014-10-16 12:38:12.182";"1";"1";"1";"63";"62";"module.training_block2.exec-4568.GoNoGo2";;;;;;;;;;;;;;;;;;;;;;;;;;;;;;;;;;;"1261";"2014-10-16 12:28:27.506";"NST_correctLoc";"16";"0";"FINISHED";"LEFT";"success";"563";"0";"2014-10-16 12:28:26.242";"2";;;;;;;;;;;;;;;;;;;;;;;;;;;;;;;;;;;;;;;;;;;;;
"scd2014";;;"Windows 7";"Rachel's Experiment (D.T.)";"1.0";"2";"1";"1";"2";"1";"1";"2014-10-16 12:24:23.749";"2014-10-16 12:38:12.182";"1";"1";"1";"64";"63";"module.training_block2.exec-4568.GoNoGo2";;;;;;;;;;;;;;;;;;;;;;;;;;;;;;;;;;;"1261";"2014-10-16 12:28:30.049";"ST_correctStop";"1";"0";"FINISHED";"NONE";"success";"0";"1";"2014-10-16 12:28:28.785";"1";;;;;;;;;;;;;;;;;;;;;;;;;;;;;;;;;;;;;;;;;;;;;
"scd2014";;;"Windows 7";"Rachel's Experiment (D.T.)";"1.0";"2";"1";"1";"2";"1";"1";"2014-10-16 12:24:23.749";"2014-10-16 12:38:12.182";"1";"1";"1";"65";"64";"module.training_block2.exec-4568.GoNoGo2";;;;;;;;;;;;;;;;;;;;;;;;;;;;;;;;;;;"1261";"2014-10-16 12:28:32.592";"NST_correctLoc";"34";"0";"FINISHED";"LEFT";"success";"445";"0";"2014-10-16 12:28:31.328";"3";;;;;;;;;;;;;;;;;;;;;;;;;;;;;;;;;;;;;;;;;;;;;
"scd2014";;;"Windows 7";"Rachel's Experiment (D.T.)";"1.0";"2";"1";"1";"2";"1";"1";"2014-10-16 12:24:23.749";"2014-10-16 12:38:12.182";"1";"1";"1";"66";"65";"module.training_block2.exec-4568.GoNoGo2";;;;;;;;;;;;;;;;;;;;;;;;;;;;;;;;;;;"1261";"2014-10-16 12:28:35.135";"NST_correctLoc";"11";"0";"FINISHED";"LEFT";"success";"470";"0";"2014-10-16 12:28:33.871";"2";;;;;;;;;;;;;;;;;;;;;;;;;;;;;;;;;;;;;;;;;;;;;
"scd2014";;;"Windows 7";"Rachel's Experiment (D.T.)";"1.0";"2";"1";"1";"2";"1";"1";"2014-10-16 12:24:23.749";"2014-10-16 12:38:12.182";"1";"1";"1";"67";"66";"module.training_block2.exec-4568.GoNoGo2";;;;;;;;;;;;;;;;;;;;;;;;;;;;;;;;;;;"1261";"2014-10-16 12:28:37.678";"ST_correctStop";"23";"0";"FINISHED";"NONE";"success";"0";"1";"2014-10-16 12:28:36.414";"3";;;;;;;;;;;;;;;;;;;;;;;;;;;;;;;;;;;;;;;;;;;;;
"scd2014";;;"Windows 7";"Rachel's Experiment (D.T.)";"1.0";"2";"1";"1";"2";"1";"1";"2014-10-16 12:24:23.749";"2014-10-16 12:38:12.182";"1";"1";"1";"68";"67";"module.training_block2.exec-4568.GoNoGo2";;;;;;;;;;;;;;;;;;;;;;;;;;;;;;;;;;;"1261";"2014-10-16 12:28:40.221";"ST_correctStop";"7";"0";"FINISHED";"NONE";"success";"0";"1";"2014-10-16 12:28:38.957";"1";;;;;;;;;;;;;;;;;;;;;;;;;;;;;;;;;;;;;;;;;;;;;
"scd2014";;;"Windows 7";"Rachel's Experiment (D.T.)";"1.0";"2";"1";"1";"2";"1";"1";"2014-10-16 12:24:23.749";"2014-10-16 12:38:12.182";"1";"1";"1";"69";"68";"module.training_block2.exec-4568.GoNoGo2";;;;;;;;;;;;;;;;;;;;;;;;;;;;;;;;;;;"1261";"2014-10-16 12:28:42.764";"ST_correctStop";"3";"0";"FINISHED";"NONE";"success";"0";"1";"2014-10-16 12:28:41.500";"1";;;;;;;;;;;;;;;;;;;;;;;;;;;;;;;;;;;;;;;;;;;;;
"scd2014";;;"Windows 7";"Rachel's Experiment (D.T.)";"1.0";"2";"1";"1";"2";"1";"1";"2014-10-16 12:24:23.749";"2014-10-16 12:38:12.182";"1";"1";"1";"70";"69";"module.training_block2.exec-4568.GoNoGo2";;;;;;;;;;;;;;;;;;;;;;;;;;;;;;;;;;;"1261";"2014-10-16 12:28:45.307";"ST_correctStop";"4";"0";"FINISHED";"NONE";"success";"0";"1";"2014-10-16 12:28:44.043";"1";;;;;;;;;;;;;;;;;;;;;;;;;;;;;;;;;;;;;;;;;;;;;
"scd2014";;;"Windows 7";"Rachel's Experiment (D.T.)";"1.0";"2";"1";"1";"2";"1";"1";"2014-10-16 12:24:23.749";"2014-10-16 12:38:12.182";"1";"1";"1";"71";"70";"module.training_block2.exec-4568.GoNoGo2";;;;;;;;;;;;;;;;;;;;;;;;;;;;;;;;;;;"1261";"2014-10-16 12:28:47.850";"NST_correctLoc";"33";"1";"FINISHED";"RIGHT";"success";"500";"0";"2014-10-16 12:28:46.586";"3";;;;;;;;;;;;;;;;;;;;;;;;;;;;;;;;;;;;;;;;;;;;;
"scd2014";;;"Windows 7";"Rachel's Experiment (D.T.)";"1.0";"2";"1";"1";"2";"1";"1";"2014-10-16 12:24:23.749";"2014-10-16 12:38:12.182";"1";"1";"1";"72";"71";"module.training_block2.exec-4568.GoNoGo2";;;;;;;;;;;;;;;;;;;;;;;;;;;;;;;;;;;"1261";"2014-10-16 12:28:50.393";"NST_correctLoc";"25";"0";"FINISHED";"LEFT";"success";"397";"0";"2014-10-16 12:28:49.129";"3";;;;;;;;;;;;;;;;;;;;;;;;;;;;;;;;;;;;;;;;;;;;;
"scd2014";;;"Windows 7";"Rachel's Experiment (D.T.)";"1.0";"2";"1";"1";"2";"1";"1";"2014-10-16 12:24:23.749";"2014-10-16 12:38:12.182";"1";"1";"1";"73";"72";"module.training_block2.exec-4568.GoNoGo2";;;;;;;;;;;;;;;;;;;;;;;;;;;;;;;;;;;"1261";"2014-10-16 12:28:52.936";"ST_correctStop";"6";"0";"FINISHED";"NONE";"success";"0";"1";"2014-10-16 12:28:51.672";"1";;;;;;;;;;;;;;;;;;;;;;;;;;;;;;;;;;;;;;;;;;;;;
"scd2014";;;"Windows 7";"Rachel's Experiment (D.T.)";"1.0";"2";"1";"1";"2";"1";"1";"2014-10-16 12:24:23.749";"2014-10-16 12:38:12.182";"1";"1";"1";"74";"73";"module.training_block2.exec-4568.GoNoGo2";;;;;;;;;;;;;;;;;;;;;;;;;;;;;;;;;;;"1261";"2014-10-16 12:28:55.479";"NST_correctLoc";"21";"0";"FINISHED";"LEFT";"success";"584";"0";"2014-10-16 12:28:54.215";"3";;;;;;;;;;;;;;;;;;;;;;;;;;;;;;;;;;;;;;;;;;;;;
"scd2014";;;"Windows 7";"Rachel's Experiment (D.T.)";"1.0";"2";"1";"1";"2";"1";"1";"2014-10-16 12:24:23.749";"2014-10-16 12:38:12.182";"1";"1";"1";"75";"74";"module.training_block2.exec-4568.GoNoGo2";;;;;;;;;;;;;;;;;;;;;;;;;;;;;;;;;;;"1261";"2014-10-16 12:28:58.022";"ST_correctStop";"32";"1";"FINISHED";"NONE";"success";"0";"1";"2014-10-16 12:28:56.758";"3";;;;;;;;;;;;;;;;;;;;;;;;;;;;;;;;;;;;;;;;;;;;;
"scd2014";;;"Windows 7";"Rachel's Experiment (D.T.)";"1.0";"2";"1";"1";"2";"1";"1";"2014-10-16 12:24:23.749";"2014-10-16 12:38:12.182";"1";"1";"1";"76";"75";"module.training_block2.exec-4568.GoNoGo2";;;;;;;;;;;;;;;;;;;;;;;;;;;;;;;;;;;"1261";"2014-10-16 12:29:00.565";"ST_correctStop";"26";"1";"FINISHED";"NONE";"success";"0";"1";"2014-10-16 12:28:59.301";"3";;;;;;;;;;;;;;;;;;;;;;;;;;;;;;;;;;;;;;;;;;;;;
"scd2014";;;"Windows 7";"Rachel's Experiment (D.T.)";"1.0";"2";"1";"1";"2";"1";"1";"2014-10-16 12:24:23.749";"2014-10-16 12:38:12.182";"1";"1";"1";"77";"76";"module.training_block2.exec-4568.GoNoGo2";;;;;;;;;;;;;;;;;;;;;;;;;;;;;;;;;;;"1261";"2014-10-16 12:29:03.108";"NST_correctLoc";"10";"0";"FINISHED";"LEFT";"success";"443";"0";"2014-10-16 12:29:01.844";"2";;;;;;;;;;;;;;;;;;;;;;;;;;;;;;;;;;;;;;;;;;;;;
"scd2014";;;"Windows 7";"Rachel's Experiment (D.T.)";"1.0";"2";"1";"1";"2";"1";"1";"2014-10-16 12:24:23.749";"2014-10-16 12:38:12.182";"1";"1";"1";"78";"77";"module.training_block2.exec-4568.GoNoGo2";;;;;;;;;;;;;;;;;;;;;;;;;;;;;;;;;;;"1261";"2014-10-16 12:29:05.651";"NST_correctLoc";"29";"0";"FINISHED";"LEFT";"success";"460";"0";"2014-10-16 12:29:04.387";"3";;;;;;;;;;;;;;;;;;;;;;;;;;;;;;;;;;;;;;;;;;;;;
"scd2014";;;"Windows 7";"Rachel's Experiment (D.T.)";"1.0";"2";"1";"1";"2";"1";"1";"2014-10-16 12:24:23.749";"2014-10-16 12:38:12.182";"1";"1";"1";"79";"78";"module.training_block2.exec-4568.GoNoGo2";;;;;;;;;;;;;;;;;;;;;;;;;;;;;;;;;;;"1261";"2014-10-16 12:29:08.194";"NST_correctLoc";"20";"0";"FINISHED";"LEFT";"success";"429";"0";"2014-10-16 12:29:06.930";"3";;;;;;;;;;;;;;;;;;;;;;;;;;;;;;;;;;;;;;;;;;;;;
"scd2014";;;"Windows 7";"Rachel's Experiment (D.T.)";"1.0";"2";"1";"1";"2";"1";"1";"2014-10-16 12:24:23.749";"2014-10-16 12:38:12.182";"1";"1";"1";"80";"79";"module.training_block2.exec-4568.GoNoGo2";;;;;;;;;;;;;;;;;;;;;;;;;;;;;;;;;;;"1261";"2014-10-16 12:29:10.737";"ST_correctStop";"35";"0";"FINISHED";"NONE";"success";"0";"1";"2014-10-16 12:29:09.473";"3";;;;;;;;;;;;;;;;;;;;;;;;;;;;;;;;;;;;;;;;;;;;;
"scd2014";;;"Windows 7";"Rachel's Experiment (D.T.)";"1.0";"2";"1";"1";"2";"1";"1";"2014-10-16 12:24:23.749";"2014-10-16 12:38:12.182";"1";"1";"1";"81";"80";"module.training_block2.exec-4568.GoNoGo2";;;;;;;;;;;;;;;;;;;;;;;;;;;;;;;;;;;"1261";"2014-10-16 12:29:13.280";"NST_correctLoc";"22";"0";"FINISHED";"LEFT";"success";"576";"0";"2014-10-16 12:29:12.017";"3";;;;;;;;;;;;;;;;;;;;;;;;;;;;;;;;;;;;;;;;;;;;;
"scd2014";;;"Windows 7";"Rachel's Experiment (D.T.)";"1.0";"2";"1";"1";"2";"1";"1";"2014-10-16 12:24:23.749";"2014-10-16 12:38:12.182";"1";"1";"1";"82";"81";"module.training_block2.exec-4568.GoNoGo2";;;;;;;;;;;;;;;;;;;;;;;;;;;;;;;;;;;"1261";"2014-10-16 12:29:15.823";"ST_correctStop";"30";"0";"FINISHED";"NONE";"success";"0";"1";"2014-10-16 12:29:14.560";"3";;;;;;;;;;;;;;;;;;;;;;;;;;;;;;;;;;;;;;;;;;;;;
"scd2014";;;"Windows 7";"Rachel's Experiment (D.T.)";"1.0";"2";"1";"1";"2";"1";"1";"2014-10-16 12:24:23.749";"2014-10-16 12:38:12.182";"1";"1";"1";"83";"82";"module.training_block2.exec-4568.GoNoGo2";;;;;;;;;;;;;;;;;;;;;;;;;;;;;;;;;;;"1261";"2014-10-16 12:29:18.366";"ST_correctStop";"5";"0";"FINISHED";"NONE";"success";"0";"1";"2014-10-16 12:29:17.103";"1";;;;;;;;;;;;;;;;;;;;;;;;;;;;;;;;;;;;;;;;;;;;;
"scd2014";;;"Windows 7";"Rachel's Experiment (D.T.)";"1.0";"2";"1";"1";"2";"1";"1";"2014-10-16 12:24:23.749";"2014-10-16 12:38:12.182";"1";"1";"1";"84";"83";"module.training_block2.exec-4568.GoNoGo2";;;;;;;;;;;;;;;;;;;;;;;;;;;;;;;;;;;"1261";"2014-10-16 12:29:20.909";"NST_correctLoc";"17";"0";"FINISHED";"LEFT";"success";"427";"0";"2014-10-16 12:29:19.646";"2";;;;;;;;;;;;;;;;;;;;;;;;;;;;;;;;;;;;;;;;;;;;;
"scd2014";;;"Windows 7";"Rachel's Experiment (D.T.)";"1.0";"2";"1";"1";"2";"1";"1";"2014-10-16 12:24:23.749";"2014-10-16 12:38:12.182";"1";"1";"1";"85";"84";"module.training_block2.exec-4568.GoNoGo2";;;;;;;;;;;;;;;;;;;;;;;;;;;;;;;;;;;"1261";"2014-10-16 12:29:23.452";"NST_correctLoc";"28";"0";"FINISHED";"LEFT";"success";"461";"0";"2014-10-16 12:29:22.189";"3";;;;;;;;;;;;;;;;;;;;;;;;;;;;;;;;;;;;;;;;;;;;;
"scd2014";;;"Windows 7";"Rachel's Experiment (D.T.)";"1.0";"2";"1";"1";"2";"1";"1";"2014-10-16 12:24:23.749";"2014-10-16 12:38:12.182";"1";"1";"1";"86";"85";"module.training_block2.exec-4568.GoNoGo2";;;;;;;;;;;;;;;;;;;;;;;;;;;;;;;;;;;"1261";"2014-10-16 12:29:25.995";"NST_correctLoc";"18";"0";"FINISHED";"LEFT";"success";"422";"0";"2014-10-16 12:29:24.732";"3";;;;;;;;;;;;;;;;;;;;;;;;;;;;;;;;;;;;;;;;;;;;;
"scd2014";;;"Windows 7";"Rachel's Experiment (D.T.)";"1.0";"2";"1";"1";"2";"1";"1";"2014-10-16 12:24:23.749";"2014-10-16 12:38:12.182";"1";"1";"1";"87";"86";"module.training_block2.exec-4568.GoNoGo2";;;;;;;;;;;;;;;;;;;;;;;;;;;;;;;;;;;"1261";"2014-10-16 12:29:28.538";"NST_correctLoc";"13";"1";"FINISHED";"RIGHT";"success";"463";"0";"2014-10-16 12:29:27.275";"2";;;;;;;;;;;;;;;;;;;;;;;;;;;;;;;;;;;;;;;;;;;;;
"scd2014";;;"Windows 7";"Rachel's Experiment (D.T.)";"1.0";"2";"1";"1";"2";"1";"1";"2014-10-16 12:24:23.749";"2014-10-16 12:38:12.182";"1";"1";"1";"88";"87";"module.training_block3.exec-7048.GoNoGo3";;;;;;;;;;;;;;;;;;;;;;;;;;;;;;;;;;;;;;;;;;;;;;;"1261";"2014-10-16 12:29:39.225";"NST_correctLoc";"27";"1";"FINISHED";"RIGHT";"success";"513";"0";"2014-10-16 12:29:37.962";"3";;;;;;;;;;;;;;;;;;;;;;;;;;;;;;;;;
"scd2014";;;"Windows 7";"Rachel's Experiment (D.T.)";"1.0";"2";"1";"1";"2";"1";"1";"2014-10-16 12:24:23.749";"2014-10-16 12:38:12.182";"1";"1";"1";"89";"88";"module.training_block3.exec-7048.GoNoGo3";;;;;;;;;;;;;;;;;;;;;;;;;;;;;;;;;;;;;;;;;;;;;;;"1261";"2014-10-16 12:29:41.768";"ST_correctStop";"4";"0";"FINISHED";"NONE";"success";"0";"1";"2014-10-16 12:29:40.505";"1";;;;;;;;;;;;;;;;;;;;;;;;;;;;;;;;;
"scd2014";;;"Windows 7";"Rachel's Experiment (D.T.)";"1.0";"2";"1";"1";"2";"1";"1";"2014-10-16 12:24:23.749";"2014-10-16 12:38:12.182";"1";"1";"1";"90";"89";"module.training_block3.exec-7048.GoNoGo3";;;;;;;;;;;;;;;;;;;;;;;;;;;;;;;;;;;;;;;;;;;;;;;"1261";"2014-10-16 12:29:44.311";"ST_correctStop";"21";"0";"FINISHED";"NONE";"success";"0";"1";"2014-10-16 12:29:43.048";"3";;;;;;;;;;;;;;;;;;;;;;;;;;;;;;;;;
"scd2014";;;"Windows 7";"Rachel's Experiment (D.T.)";"1.0";"2";"1";"1";"2";"1";"1";"2014-10-16 12:24:23.749";"2014-10-16 12:38:12.182";"1";"1";"1";"91";"90";"module.training_block3.exec-7048.GoNoGo3";;;;;;;;;;;;;;;;;;;;;;;;;;;;;;;;;;;;;;;;;;;;;;;"1261";"2014-10-16 12:29:46.854";"NST_correctLoc";"19";"1";"FINISHED";"RIGHT";"success";"404";"0";"2014-10-16 12:29:45.591";"3";;;;;;;;;;;;;;;;;;;;;;;;;;;;;;;;;
"scd2014";;;"Windows 7";"Rachel's Experiment (D.T.)";"1.0";"2";"1";"1";"2";"1";"1";"2014-10-16 12:24:23.749";"2014-10-16 12:38:12.182";"1";"1";"1";"92";"91";"module.training_block3.exec-7048.GoNoGo3";;;;;;;;;;;;;;;;;;;;;;;;;;;;;;;;;;;;;;;;;;;;;;;"1261";"2014-10-16 12:29:49.397";"NST_correctLoc";"12";"1";"FINISHED";"RIGHT";"success";"406";"0";"2014-10-16 12:29:48.134";"2";;;;;;;;;;;;;;;;;;;;;;;;;;;;;;;;;
"scd2014";;;"Windows 7";"Rachel's Experiment (D.T.)";"1.0";"2";"1";"1";"2";"1";"1";"2014-10-16 12:24:23.749";"2014-10-16 12:38:12.182";"1";"1";"1";"93";"92";"module.training_block3.exec-7048.GoNoGo3";;;;;;;;;;;;;;;;;;;;;;;;;;;;;;;;;;;;;;;;;;;;;;;"1261";"2014-10-16 12:29:51.940";"ST_correctStop";"26";"1";"FINISHED";"NONE";"success";"0";"1";"2014-10-16 12:29:50.677";"3";;;;;;;;;;;;;;;;;;;;;;;;;;;;;;;;;
"scd2014";;;"Windows 7";"Rachel's Experiment (D.T.)";"1.0";"2";"1";"1";"2";"1";"1";"2014-10-16 12:24:23.749";"2014-10-16 12:38:12.182";"1";"1";"1";"94";"93";"module.training_block3.exec-7048.GoNoGo3";;;;;;;;;;;;;;;;;;;;;;;;;;;;;;;;;;;;;;;;;;;;;;;"1261";"2014-10-16 12:29:54.484";"ST_correctStop";"20";"0";"FINISHED";"NONE";"success";"0";"1";"2014-10-16 12:29:53.220";"3";;;;;;;;;;;;;;;;;;;;;;;;;;;;;;;;;
"scd2014";;;"Windows 7";"Rachel's Experiment (D.T.)";"1.0";"2";"1";"1";"2";"1";"1";"2014-10-16 12:24:23.749";"2014-10-16 12:38:12.182";"1";"1";"1";"95";"94";"module.training_block3.exec-7048.GoNoGo3";;;;;;;;;;;;;;;;;;;;;;;;;;;;;;;;;;;;;;;;;;;;;;;"1261";"2014-10-16 12:29:57.027";"NST_correctLoc";"13";"1";"FINISHED";"RIGHT";"success";"385";"0";"2014-10-16 12:29:55.763";"2";;;;;;;;;;;;;;;;;;;;;;;;;;;;;;;;;
"scd2014";;;"Windows 7";"Rachel's Experiment (D.T.)";"1.0";"2";"1";"1";"2";"1";"1";"2014-10-16 12:24:23.749";"2014-10-16 12:38:12.182";"1";"1";"1";"96";"95";"module.training_block3.exec-7048.GoNoGo3";;;;;;;;;;;;;;;;;;;;;;;;;;;;;;;;;;;;;;;;;;;;;;;"1261";"2014-10-16 12:29:59.570";"NST_correctLoc";"25";"1";"FINISHED";"RIGHT";"success";"586";"0";"2014-10-16 12:29:58.306";"3";;;;;;;;;;;;;;;;;;;;;;;;;;;;;;;;;
"scd2014";;;"Windows 7";"Rachel's Experiment (D.T.)";"1.0";"2";"1";"1";"2";"1";"1";"2014-10-16 12:24:23.749";"2014-10-16 12:38:12.182";"1";"1";"1";"97";"96";"module.training_block3.exec-7048.GoNoGo3";;;;;;;;;;;;;;;;;;;;;;;;;;;;;;;;;;;;;;;;;;;;;;;"1261";"2014-10-16 12:30:02.113";"ST_correctStop";"6";"0";"FINISHED";"NONE";"success";"0";"1";"2014-10-16 12:30:00.849";"1";;;;;;;;;;;;;;;;;;;;;;;;;;;;;;;;;
"scd2014";;;"Windows 7";"Rachel's Experiment (D.T.)";"1.0";"2";"1";"1";"2";"1";"1";"2014-10-16 12:24:23.749";"2014-10-16 12:38:12.182";"1";"1";"1";"98";"97";"module.training_block3.exec-7048.GoNoGo3";;;;;;;;;;;;;;;;;;;;;;;;;;;;;;;;;;;;;;;;;;;;;;;"1261";"2014-10-16 12:30:04.656";"NST_correctLoc";"31";"1";"FINISHED";"RIGHT";"success";"421";"0";"2014-10-16 12:30:03.392";"3";;;;;;;;;;;;;;;;;;;;;;;;;;;;;;;;;
"scd2014";;;"Windows 7";"Rachel's Experiment (D.T.)";"1.0";"2";"1";"1";"2";"1";"1";"2014-10-16 12:24:23.749";"2014-10-16 12:38:12.182";"1";"1";"1";"99";"98";"module.training_block3.exec-7048.GoNoGo3";;;;;;;;;;;;;;;;;;;;;;;;;;;;;;;;;;;;;;;;;;;;;;;"1261";"2014-10-16 12:30:07.199";"ST_correctStop";"35";"1";"FINISHED";"NONE";"success";"0";"1";"2014-10-16 12:30:05.935";"3";;;;;;;;;;;;;;;;;;;;;;;;;;;;;;;;;
"scd2014";;;"Windows 7";"Rachel's Experiment (D.T.)";"1.0";"2";"1";"1";"2";"1";"1";"2014-10-16 12:24:23.749";"2014-10-16 12:38:12.182";"1";"1";"1";"100";"99";"module.training_block3.exec-7048.GoNoGo3";;;;;;;;;;;;;;;;;;;;;;;;;;;;;;;;;;;;;;;;;;;;;;;"1261";"2014-10-16 12:30:09.742";"ST_correctStop";"0";"0";"FINISHED";"NONE";"success";"0";"1";"2014-10-16 12:30:08.478";"1";;;;;;;;;;;;;;;;;;;;;;;;;;;;;;;;;
"scd2014";;;"Windows 7";"Rachel's Experiment (D.T.)";"1.0";"2";"1";"1";"2";"1";"1";"2014-10-16 12:24:23.749";"2014-10-16 12:38:12.182";"1";"1";"1";"101";"100";"module.training_block3.exec-7048.GoNoGo3";;;;;;;;;;;;;;;;;;;;;;;;;;;;;;;;;;;;;;;;;;;;;;;"1261";"2014-10-16 12:30:12.285";"ST_correctStop";"34";"0";"FINISHED";"NONE";"success";"0";"1";"2014-10-16 12:30:11.021";"3";;;;;;;;;;;;;;;;;;;;;;;;;;;;;;;;;
"scd2014";;;"Windows 7";"Rachel's Experiment (D.T.)";"1.0";"2";"1";"1";"2";"1";"1";"2014-10-16 12:24:23.749";"2014-10-16 12:38:12.182";"1";"1";"1";"102";"101";"module.training_block3.exec-7048.GoNoGo3";;;;;;;;;;;;;;;;;;;;;;;;;;;;;;;;;;;;;;;;;;;;;;;"1261";"2014-10-16 12:30:14.828";"NST_correctLoc";"11";"0";"FINISHED";"LEFT";"success";"433";"0";"2014-10-16 12:30:13.564";"2";;;;;;;;;;;;;;;;;;;;;;;;;;;;;;;;;
"scd2014";;;"Windows 7";"Rachel's Experiment (D.T.)";"1.0";"2";"1";"1";"2";"1";"1";"2014-10-16 12:24:23.749";"2014-10-16 12:38:12.182";"1";"1";"1";"103";"102";"module.training_block3.exec-7048.GoNoGo3";;;;;;;;;;;;;;;;;;;;;;;;;;;;;;;;;;;;;;;;;;;;;;;"1261";"2014-10-16 12:30:17.371";"NST_correctLoc";"16";"0";"FINISHED";"LEFT";"success";"475";"0";"2014-10-16 12:30:16.107";"2";;;;;;;;;;;;;;;;;;;;;;;;;;;;;;;;;
"scd2014";;;"Windows 7";"Rachel's Experiment (D.T.)";"1.0";"2";"1";"1";"2";"1";"1";"2014-10-16 12:24:23.749";"2014-10-16 12:38:12.182";"1";"1";"1";"104";"103";"module.training_block3.exec-7048.GoNoGo3";;;;;;;;;;;;;;;;;;;;;;;;;;;;;;;;;;;;;;;;;;;;;;;"1261";"2014-10-16 12:30:19.914";"NST_correctLoc";"28";"1";"FINISHED";"RIGHT";"success";"540";"0";"2014-10-16 12:30:18.650";"3";;;;;;;;;;;;;;;;;;;;;;;;;;;;;;;;;
"scd2014";;;"Windows 7";"Rachel's Experiment (D.T.)";"1.0";"2";"1";"1";"2";"1";"1";"2014-10-16 12:24:23.749";"2014-10-16 12:38:12.182";"1";"1";"1";"105";"104";"module.training_block3.exec-7048.GoNoGo3";;;;;;;;;;;;;;;;;;;;;;;;;;;;;;;;;;;;;;;;;;;;;;;"1261";"2014-10-16 12:30:22.457";"ST_correctStop";"2";"0";"FINISHED";"NONE";"success";"0";"1";"2014-10-16 12:30:21.193";"1";;;;;;;;;;;;;;;;;;;;;;;;;;;;;;;;;
"scd2014";;;"Windows 7";"Rachel's Experiment (D.T.)";"1.0";"2";"1";"1";"2";"1";"1";"2014-10-16 12:24:23.749";"2014-10-16 12:38:12.182";"1";"1";"1";"106";"105";"module.training_block3.exec-7048.GoNoGo3";;;;;;;;;;;;;;;;;;;;;;;;;;;;;;;;;;;;;;;;;;;;;;;"1261";"2014-10-16 12:30:25.000";"ST_correctStop";"1";"0";"FINISHED";"NONE";"success";"0";"1";"2014-10-16 12:30:23.736";"1";;;;;;;;;;;;;;;;;;;;;;;;;;;;;;;;;
"scd2014";;;"Windows 7";"Rachel's Experiment (D.T.)";"1.0";"2";"1";"1";"2";"1";"1";"2014-10-16 12:24:23.749";"2014-10-16 12:38:12.182";"1";"1";"1";"107";"106";"module.training_block3.exec-7048.GoNoGo3";;;;;;;;;;;;;;;;;;;;;;;;;;;;;;;;;;;;;;;;;;;;;;;"1261";"2014-10-16 12:30:27.543";"ST_correctStop";"5";"1";"FINISHED";"NONE";"success";"0";"1";"2014-10-16 12:30:26.279";"1";;;;;;;;;;;;;;;;;;;;;;;;;;;;;;;;;
"scd2014";;;"Windows 7";"Rachel's Experiment (D.T.)";"1.0";"2";"1";"1";"2";"1";"1";"2014-10-16 12:24:23.749";"2014-10-16 12:38:12.182";"1";"1";"1";"108";"107";"module.training_block3.exec-7048.GoNoGo3";;;;;;;;;;;;;;;;;;;;;;;;;;;;;;;;;;;;;;;;;;;;;;;"1261";"2014-10-16 12:30:30.086";"ST_correctStop";"18";"1";"FINISHED";"NONE";"success";"0";"1";"2014-10-16 12:30:28.822";"3";;;;;;;;;;;;;;;;;;;;;;;;;;;;;;;;;
"scd2014";;;"Windows 7";"Rachel's Experiment (D.T.)";"1.0";"2";"1";"1";"2";"1";"1";"2014-10-16 12:24:23.749";"2014-10-16 12:38:12.182";"1";"1";"1";"109";"108";"module.training_block3.exec-7048.GoNoGo3";;;;;;;;;;;;;;;;;;;;;;;;;;;;;;;;;;;;;;;;;;;;;;;"1261";"2014-10-16 12:30:32.629";"NST_correctLoc";"9";"1";"FINISHED";"RIGHT";"success";"450";"0";"2014-10-16 12:30:31.365";"2";;;;;;;;;;;;;;;;;;;;;;;;;;;;;;;;;
"scd2014";;;"Windows 7";"Rachel's Experiment (D.T.)";"1.0";"2";"1";"1";"2";"1";"1";"2014-10-16 12:24:23.749";"2014-10-16 12:38:12.182";"1";"1";"1";"110";"109";"module.training_block3.exec-7048.GoNoGo3";;;;;;;;;;;;;;;;;;;;;;;;;;;;;;;;;;;;;;;;;;;;;;;"1262";"2014-10-16 12:30:35.188";"NST_correctLoc";"32";"1";"FINISHED";"RIGHT";"success";"427";"0";"2014-10-16 12:30:33.924";"3";;;;;;;;;;;;;;;;;;;;;;;;;;;;;;;;;
"scd2014";;;"Windows 7";"Rachel's Experiment (D.T.)";"1.0";"2";"1";"1";"2";"1";"1";"2014-10-16 12:24:23.749";"2014-10-16 12:38:12.182";"1";"1";"1";"111";"110";"module.training_block3.exec-7048.GoNoGo3";;;;;;;;;;;;;;;;;;;;;;;;;;;;;;;;;;;;;;;;;;;;;;;"1261";"2014-10-16 12:30:37.731";"ST_correctStop";"30";"0";"FINISHED";"NONE";"success";"0";"1";"2014-10-16 12:30:36.467";"3";;;;;;;;;;;;;;;;;;;;;;;;;;;;;;;;;
"scd2014";;;"Windows 7";"Rachel's Experiment (D.T.)";"1.0";"2";"1";"1";"2";"1";"1";"2014-10-16 12:24:23.749";"2014-10-16 12:38:12.182";"1";"1";"1";"112";"111";"module.training_block3.exec-7048.GoNoGo3";;;;;;;;;;;;;;;;;;;;;;;;;;;;;;;;;;;;;;;;;;;;;;;"1261";"2014-10-16 12:30:40.258";"NST_correctLoc";"29";"1";"FINISHED";"RIGHT";"success";"437";"0";"2014-10-16 12:30:38.994";"3";;;;;;;;;;;;;;;;;;;;;;;;;;;;;;;;;
"scd2014";;;"Windows 7";"Rachel's Experiment (D.T.)";"1.0";"2";"1";"1";"2";"1";"1";"2014-10-16 12:24:23.749";"2014-10-16 12:38:12.182";"1";"1";"1";"113";"112";"module.training_block3.exec-7048.GoNoGo3";;;;;;;;;;;;;;;;;;;;;;;;;;;;;;;;;;;;;;;;;;;;;;;"1261";"2014-10-16 12:30:42.801";"ST_failedStop";"24";"0";"FINISHED";"LEFT";"failure";"606";"1";"2014-10-16 12:30:41.537";"3";;;;;;;;;;;;;;;;;;;;;;;;;;;;;;;;;
"scd2014";;;"Windows 7";"Rachel's Experiment (D.T.)";"1.0";"2";"1";"1";"2";"1";"1";"2014-10-16 12:24:23.749";"2014-10-16 12:38:12.182";"1";"1";"1";"114";"113";"module.training_block3.exec-7048.GoNoGo3";;;;;;;;;;;;;;;;;;;;;;;;;;;;;;;;;;;;;;;;;;;;;;;"1261";"2014-10-16 12:30:45.344";"ST_correctStop";"8";"0";"FINISHED";"NONE";"success";"0";"1";"2014-10-16 12:30:44.080";"1";;;;;;;;;;;;;;;;;;;;;;;;;;;;;;;;;
"scd2014";;;"Windows 7";"Rachel's Experiment (D.T.)";"1.0";"2";"1";"1";"2";"1";"1";"2014-10-16 12:24:23.749";"2014-10-16 12:38:12.182";"1";"1";"1";"115";"114";"module.training_block3.exec-7048.GoNoGo3";;;;;;;;;;;;;;;;;;;;;;;;;;;;;;;;;;;;;;;;;;;;;;;"1261";"2014-10-16 12:30:47.872";"NST_correctLoc";"10";"0";"FINISHED";"LEFT";"success";"648";"0";"2014-10-16 12:30:46.608";"2";;;;;;;;;;;;;;;;;;;;;;;;;;;;;;;;;
"scd2014";;;"Windows 7";"Rachel's Experiment (D.T.)";"1.0";"2";"1";"1";"2";"1";"1";"2014-10-16 12:24:23.749";"2014-10-16 12:38:12.182";"1";"1";"1";"116";"115";"module.training_block3.exec-7048.GoNoGo3";;;;;;;;;;;;;;;;;;;;;;;;;;;;;;;;;;;;;;;;;;;;;;;"1261";"2014-10-16 12:30:50.415";"NST_correctLoc";"17";"1";"FINISHED";"RIGHT";"success";"634";"0";"2014-10-16 12:30:49.151";"2";;;;;;;;;;;;;;;;;;;;;;;;;;;;;;;;;
"scd2014";;;"Windows 7";"Rachel's Experiment (D.T.)";"1.0";"2";"1";"1";"2";"1";"1";"2014-10-16 12:24:23.749";"2014-10-16 12:38:12.182";"1";"1";"1";"117";"116";"module.training_block3.exec-7048.GoNoGo3";;;;;;;;;;;;;;;;;;;;;;;;;;;;;;;;;;;;;;;;;;;;;;;"1261";"2014-10-16 12:30:52.958";"ST_correctStop";"33";"1";"FINISHED";"NONE";"success";"0";"1";"2014-10-16 12:30:51.694";"3";;;;;;;;;;;;;;;;;;;;;;;;;;;;;;;;;
"scd2014";;;"Windows 7";"Rachel's Experiment (D.T.)";"1.0";"2";"1";"1";"2";"1";"1";"2014-10-16 12:24:23.749";"2014-10-16 12:38:12.182";"1";"1";"1";"118";"117";"module.training_block3.exec-7048.GoNoGo3";;;;;;;;;;;;;;;;;;;;;;;;;;;;;;;;;;;;;;;;;;;;;;;"1261";"2014-10-16 12:30:55.485";"ST_correctStop";"3";"0";"FINISHED";"NONE";"success";"0";"1";"2014-10-16 12:30:54.221";"1";;;;;;;;;;;;;;;;;;;;;;;;;;;;;;;;;
"scd2014";;;"Windows 7";"Rachel's Experiment (D.T.)";"1.0";"2";"1";"1";"2";"1";"1";"2014-10-16 12:24:23.749";"2014-10-16 12:38:12.182";"1";"1";"1";"119";"118";"module.training_block3.exec-7048.GoNoGo3";;;;;;;;;;;;;;;;;;;;;;;;;;;;;;;;;;;;;;;;;;;;;;;"1262";"2014-10-16 12:30:58.012";"NST_correctLoc";"23";"0";"FINISHED";"LEFT";"success";"540";"0";"2014-10-16 12:30:56.749";"3";;;;;;;;;;;;;;;;;;;;;;;;;;;;;;;;;
"scd2014";;;"Windows 7";"Rachel's Experiment (D.T.)";"1.0";"2";"1";"1";"2";"1";"1";"2014-10-16 12:24:23.749";"2014-10-16 12:38:12.182";"1";"1";"1";"120";"119";"module.training_block3.exec-7048.GoNoGo3";;;;;;;;;;;;;;;;;;;;;;;;;;;;;;;;;;;;;;;;;;;;;;;"1261";"2014-10-16 12:31:00.540";"NST_correctLoc";"14";"1";"FINISHED";"RIGHT";"success";"405";"0";"2014-10-16 12:30:59.276";"2";;;;;;;;;;;;;;;;;;;;;;;;;;;;;;;;;
"scd2014";;;"Windows 7";"Rachel's Experiment (D.T.)";"1.0";"2";"1";"1";"2";"1";"1";"2014-10-16 12:24:23.749";"2014-10-16 12:38:12.182";"1";"1";"1";"121";"120";"module.training_block3.exec-7048.GoNoGo3";;;;;;;;;;;;;;;;;;;;;;;;;;;;;;;;;;;;;;;;;;;;;;;"1262";"2014-10-16 12:31:03.067";"NST_correctLoc";"22";"0";"FINISHED";"LEFT";"success";"454";"0";"2014-10-16 12:31:01.804";"3";;;;;;;;;;;;;;;;;;;;;;;;;;;;;;;;;
"scd2014";;;"Windows 7";"Rachel's Experiment (D.T.)";"1.0";"2";"1";"1";"2";"1";"1";"2014-10-16 12:24:23.749";"2014-10-16 12:38:12.182";"1";"1";"1";"122";"121";"module.training_block3.exec-7048.GoNoGo3";;;;;;;;;;;;;;;;;;;;;;;;;;;;;;;;;;;;;;;;;;;;;;;"1261";"2014-10-16 12:31:05.595";"NST_correctLoc";"15";"0";"FINISHED";"LEFT";"success";"519";"0";"2014-10-16 12:31:04.331";"2";;;;;;;;;;;;;;;;;;;;;;;;;;;;;;;;;
"scd2014";;;"Windows 7";"Rachel's Experiment (D.T.)";"1.0";"2";"1";"1";"2";"1";"1";"2014-10-16 12:24:23.749";"2014-10-16 12:38:12.182";"1";"1";"1";"123";"122";"module.training_block3.exec-7048.GoNoGo3";;;;;;;;;;;;;;;;;;;;;;;;;;;;;;;;;;;;;;;;;;;;;;;"1262";"2014-10-16 12:31:08.122";"ST_correctStop";"7";"0";"FINISHED";"NONE";"success";"0";"1";"2014-10-16 12:31:06.858";"1";;;;;;;;;;;;;;;;;;;;;;;;;;;;;;;;;
"scd2014";;;"Windows 7";"Rachel's Experiment (D.T.)";"1.0";"2";"1";"1";"2";"1";"1";"2014-10-16 12:24:23.749";"2014-10-16 12:38:12.182";"1";"1";"1";"124";"123";"module.training_block4.exec-1856.GoNoGo4";;;;;;;;;;;;;;;;;;;;;;;;;;;;;;;;;;;;;;;;;;;;;;;;;;;;;;;;;;;"1261";"2014-10-16 12:31:19.012";"ST_failedStop";"0";"0";"FINISHED";"LEFT";"failure";"566";"1";"2014-10-16 12:31:17.748";"1";;;;;;;;;;;;;;;;;;;;;
"scd2014";;;"Windows 7";"Rachel's Experiment (D.T.)";"1.0";"2";"1";"1";"2";"1";"1";"2014-10-16 12:24:23.749";"2014-10-16 12:38:12.182";"1";"1";"1";"125";"124";"module.training_block4.exec-1856.GoNoGo4";;;;;;;;;;;;;;;;;;;;;;;;;;;;;;;;;;;;;;;;;;;;;;;;;;;;;;;;;;;"1262";"2014-10-16 12:31:21.539";"ST_correctStop";"8";"0";"FINISHED";"NONE";"success";"0";"1";"2014-10-16 12:31:20.276";"1";;;;;;;;;;;;;;;;;;;;;
"scd2014";;;"Windows 7";"Rachel's Experiment (D.T.)";"1.0";"2";"1";"1";"2";"1";"1";"2014-10-16 12:24:23.749";"2014-10-16 12:38:12.182";"1";"1";"1";"126";"125";"module.training_block4.exec-1856.GoNoGo4";;;;;;;;;;;;;;;;;;;;;;;;;;;;;;;;;;;;;;;;;;;;;;;;;;;;;;;;;;;"1262";"2014-10-16 12:31:24.067";"NST_correctLoc";"35";"0";"FINISHED";"LEFT";"success";"520";"0";"2014-10-16 12:31:22.803";"3";;;;;;;;;;;;;;;;;;;;;
"scd2014";;;"Windows 7";"Rachel's Experiment (D.T.)";"1.0";"2";"1";"1";"2";"1";"1";"2014-10-16 12:24:23.749";"2014-10-16 12:38:12.182";"1";"1";"1";"127";"126";"module.training_block4.exec-1856.GoNoGo4";;;;;;;;;;;;;;;;;;;;;;;;;;;;;;;;;;;;;;;;;;;;;;;;;;;;;;;;;;;"1261";"2014-10-16 12:31:26.610";"NST_correctLoc";"33";"1";"FINISHED";"RIGHT";"success";"465";"0";"2014-10-16 12:31:25.346";"3";;;;;;;;;;;;;;;;;;;;;
"scd2014";;;"Windows 7";"Rachel's Experiment (D.T.)";"1.0";"2";"1";"1";"2";"1";"1";"2014-10-16 12:24:23.749";"2014-10-16 12:38:12.182";"1";"1";"1";"128";"127";"module.training_block4.exec-1856.GoNoGo4";;;;;;;;;;;;;;;;;;;;;;;;;;;;;;;;;;;;;;;;;;;;;;;;;;;;;;;;;;;"1261";"2014-10-16 12:31:29.137";"NST_correctLoc";"21";"1";"FINISHED";"RIGHT";"success";"514";"0";"2014-10-16 12:31:27.874";"3";;;;;;;;;;;;;;;;;;;;;
"scd2014";;;"Windows 7";"Rachel's Experiment (D.T.)";"1.0";"2";"1";"1";"2";"1";"1";"2014-10-16 12:24:23.749";"2014-10-16 12:38:12.182";"1";"1";"1";"129";"128";"module.training_block4.exec-1856.GoNoGo4";;;;;;;;;;;;;;;;;;;;;;;;;;;;;;;;;;;;;;;;;;;;;;;;;;;;;;;;;;;"1261";"2014-10-16 12:31:31.665";"NST_correctLoc";"28";"0";"FINISHED";"LEFT";"success";"483";"0";"2014-10-16 12:31:30.401";"3";;;;;;;;;;;;;;;;;;;;;
"scd2014";;;"Windows 7";"Rachel's Experiment (D.T.)";"1.0";"2";"1";"1";"2";"1";"1";"2014-10-16 12:24:23.749";"2014-10-16 12:38:12.182";"1";"1";"1";"130";"129";"module.training_block4.exec-1856.GoNoGo4";;;;;;;;;;;;;;;;;;;;;;;;;;;;;;;;;;;;;;;;;;;;;;;;;;;;;;;;;;;"1262";"2014-10-16 12:31:34.192";"ST_correctStop";"25";"1";"FINISHED";"NONE";"success";"0";"1";"2014-10-16 12:31:32.928";"3";;;;;;;;;;;;;;;;;;;;;
"scd2014";;;"Windows 7";"Rachel's Experiment (D.T.)";"1.0";"2";"1";"1";"2";"1";"1";"2014-10-16 12:24:23.749";"2014-10-16 12:38:12.182";"1";"1";"1";"131";"130";"module.training_block4.exec-1856.GoNoGo4";;;;;;;;;;;;;;;;;;;;;;;;;;;;;;;;;;;;;;;;;;;;;;;;;;;;;;;;;;;"1262";"2014-10-16 12:31:36.720";"ST_correctStop";"4";"0";"FINISHED";"NONE";"success";"0";"1";"2014-10-16 12:31:35.456";"1";;;;;;;;;;;;;;;;;;;;;
"scd2014";;;"Windows 7";"Rachel's Experiment (D.T.)";"1.0";"2";"1";"1";"2";"1";"1";"2014-10-16 12:24:23.749";"2014-10-16 12:38:12.182";"1";"1";"1";"132";"131";"module.training_block4.exec-1856.GoNoGo4";;;;;;;;;;;;;;;;;;;;;;;;;;;;;;;;;;;;;;;;;;;;;;;;;;;;;;;;;;;"1261";"2014-10-16 12:31:39.263";"ST_correctStop";"7";"0";"FINISHED";"NONE";"success";"0";"1";"2014-10-16 12:31:37.999";"1";;;;;;;;;;;;;;;;;;;;;
"scd2014";;;"Windows 7";"Rachel's Experiment (D.T.)";"1.0";"2";"1";"1";"2";"1";"1";"2014-10-16 12:24:23.749";"2014-10-16 12:38:12.182";"1";"1";"1";"133";"132";"module.training_block4.exec-1856.GoNoGo4";;;;;;;;;;;;;;;;;;;;;;;;;;;;;;;;;;;;;;;;;;;;;;;;;;;;;;;;;;;"1262";"2014-10-16 12:31:41.790";"ST_correctStop";"29";"0";"FINISHED";"NONE";"success";"0";"1";"2014-10-16 12:31:40.526";"3";;;;;;;;;;;;;;;;;;;;;
"scd2014";;;"Windows 7";"Rachel's Experiment (D.T.)";"1.0";"2";"1";"1";"2";"1";"1";"2014-10-16 12:24:23.749";"2014-10-16 12:38:12.182";"1";"1";"1";"134";"133";"module.training_block4.exec-1856.GoNoGo4";;;;;;;;;;;;;;;;;;;;;;;;;;;;;;;;;;;;;;;;;;;;;;;;;;;;;;;;;;;"1262";"2014-10-16 12:31:44.317";"ST_correctStop";"1";"1";"FINISHED";"NONE";"success";"0";"1";"2014-10-16 12:31:43.054";"1";;;;;;;;;;;;;;;;;;;;;
"scd2014";;;"Windows 7";"Rachel's Experiment (D.T.)";"1.0";"2";"1";"1";"2";"1";"1";"2014-10-16 12:24:23.749";"2014-10-16 12:38:12.182";"1";"1";"1";"135";"134";"module.training_block4.exec-1856.GoNoGo4";;;;;;;;;;;;;;;;;;;;;;;;;;;;;;;;;;;;;;;;;;;;;;;;;;;;;;;;;;;"1261";"2014-10-16 12:31:46.860";"NST_correctLoc";"22";"1";"FINISHED";"RIGHT";"success";"504";"0";"2014-10-16 12:31:45.597";"3";;;;;;;;;;;;;;;;;;;;;
"scd2014";;;"Windows 7";"Rachel's Experiment (D.T.)";"1.0";"2";"1";"1";"2";"1";"1";"2014-10-16 12:24:23.749";"2014-10-16 12:38:12.182";"1";"1";"1";"136";"135";"module.training_block4.exec-1856.GoNoGo4";;;;;;;;;;;;;;;;;;;;;;;;;;;;;;;;;;;;;;;;;;;;;;;;;;;;;;;;;;;"1262";"2014-10-16 12:31:49.388";"ST_correctStop";"34";"1";"FINISHED";"NONE";"success";"0";"1";"2014-10-16 12:31:48.124";"3";;;;;;;;;;;;;;;;;;;;;
"scd2014";;;"Windows 7";"Rachel's Experiment (D.T.)";"1.0";"2";"1";"1";"2";"1";"1";"2014-10-16 12:24:23.749";"2014-10-16 12:38:12.182";"1";"1";"1";"137";"136";"module.training_block4.exec-1856.GoNoGo4";;;;;;;;;;;;;;;;;;;;;;;;;;;;;;;;;;;;;;;;;;;;;;;;;;;;;;;;;;;"1261";"2014-10-16 12:31:51.915";"ST_correctStop";"20";"1";"FINISHED";"NONE";"success";"0";"1";"2014-10-16 12:31:50.652";"3";;;;;;;;;;;;;;;;;;;;;
"scd2014";;;"Windows 7";"Rachel's Experiment (D.T.)";"1.0";"2";"1";"1";"2";"1";"1";"2014-10-16 12:24:23.749";"2014-10-16 12:38:12.182";"1";"1";"1";"138";"137";"module.training_block4.exec-1856.GoNoGo4";;;;;;;;;;;;;;;;;;;;;;;;;;;;;;;;;;;;;;;;;;;;;;;;;;;;;;;;;;;"1262";"2014-10-16 12:31:54.443";"NST_correctLoc";"31";"1";"FINISHED";"RIGHT";"success";"443";"0";"2014-10-16 12:31:53.179";"3";;;;;;;;;;;;;;;;;;;;;
"scd2014";;;"Windows 7";"Rachel's Experiment (D.T.)";"1.0";"2";"1";"1";"2";"1";"1";"2014-10-16 12:24:23.749";"2014-10-16 12:38:12.182";"1";"1";"1";"139";"138";"module.training_block4.exec-1856.GoNoGo4";;;;;;;;;;;;;;;;;;;;;;;;;;;;;;;;;;;;;;;;;;;;;;;;;;;;;;;;;;;"1262";"2014-10-16 12:31:56.970";"NST_correctLoc";"10";"0";"FINISHED";"LEFT";"success";"555";"0";"2014-10-16 12:31:55.706";"2";;;;;;;;;;;;;;;;;;;;;
"scd2014";;;"Windows 7";"Rachel's Experiment (D.T.)";"1.0";"2";"1";"1";"2";"1";"1";"2014-10-16 12:24:23.749";"2014-10-16 12:38:12.182";"1";"1";"1";"140";"139";"module.training_block4.exec-1856.GoNoGo4";;;;;;;;;;;;;;;;;;;;;;;;;;;;;;;;;;;;;;;;;;;;;;;;;;;;;;;;;;;"1261";"2014-10-16 12:31:59.513";"NST_correctLoc";"13";"1";"FINISHED";"RIGHT";"success";"436";"0";"2014-10-16 12:31:58.249";"2";;;;;;;;;;;;;;;;;;;;;
"scd2014";;;"Windows 7";"Rachel's Experiment (D.T.)";"1.0";"2";"1";"1";"2";"1";"1";"2014-10-16 12:24:23.749";"2014-10-16 12:38:12.182";"1";"1";"1";"141";"140";"module.training_block4.exec-1856.GoNoGo4";;;;;;;;;;;;;;;;;;;;;;;;;;;;;;;;;;;;;;;;;;;;;;;;;;;;;;;;;;;"1262";"2014-10-16 12:32:02.041";"NST_correctLoc";"11";"1";"FINISHED";"RIGHT";"success";"429";"0";"2014-10-16 12:32:00.777";"2";;;;;;;;;;;;;;;;;;;;;
"scd2014";;;"Windows 7";"Rachel's Experiment (D.T.)";"1.0";"2";"1";"1";"2";"1";"1";"2014-10-16 12:24:23.749";"2014-10-16 12:38:12.182";"1";"1";"1";"142";"141";"module.training_block4.exec-1856.GoNoGo4";;;;;;;;;;;;;;;;;;;;;;;;;;;;;;;;;;;;;;;;;;;;;;;;;;;;;;;;;;;"1261";"2014-10-16 12:32:04.568";"ST_correctStop";"30";"0";"FINISHED";"NONE";"success";"0";"1";"2014-10-16 12:32:03.304";"3";;;;;;;;;;;;;;;;;;;;;
"scd2014";;;"Windows 7";"Rachel's Experiment (D.T.)";"1.0";"2";"1";"1";"2";"1";"1";"2014-10-16 12:24:23.749";"2014-10-16 12:38:12.182";"1";"1";"1";"143";"142";"module.training_block4.exec-1856.GoNoGo4";;;;;;;;;;;;;;;;;;;;;;;;;;;;;;;;;;;;;;;;;;;;;;;;;;;;;;;;;;;"1261";"2014-10-16 12:32:07.095";"ST_correctStop";"18";"1";"FINISHED";"NONE";"success";"0";"1";"2014-10-16 12:32:05.832";"3";;;;;;;;;;;;;;;;;;;;;
"scd2014";;;"Windows 7";"Rachel's Experiment (D.T.)";"1.0";"2";"1";"1";"2";"1";"1";"2014-10-16 12:24:23.749";"2014-10-16 12:38:12.182";"1";"1";"1";"144";"143";"module.training_block4.exec-1856.GoNoGo4";;;;;;;;;;;;;;;;;;;;;;;;;;;;;;;;;;;;;;;;;;;;;;;;;;;;;;;;;;;"1262";"2014-10-16 12:32:09.623";"NST_correctLoc";"27";"0";"FINISHED";"LEFT";"success";"392";"0";"2014-10-16 12:32:08.359";"3";;;;;;;;;;;;;;;;;;;;;
"scd2014";;;"Windows 7";"Rachel's Experiment (D.T.)";"1.0";"2";"1";"1";"2";"1";"1";"2014-10-16 12:24:23.749";"2014-10-16 12:38:12.182";"1";"1";"1";"145";"144";"module.training_block4.exec-1856.GoNoGo4";;;;;;;;;;;;;;;;;;;;;;;;;;;;;;;;;;;;;;;;;;;;;;;;;;;;;;;;;;;"1262";"2014-10-16 12:32:12.166";"ST_correctStop";"5";"1";"FINISHED";"NONE";"success";"0";"1";"2014-10-16 12:32:10.902";"1";;;;;;;;;;;;;;;;;;;;;
"scd2014";;;"Windows 7";"Rachel's Experiment (D.T.)";"1.0";"2";"1";"1";"2";"1";"1";"2014-10-16 12:24:23.749";"2014-10-16 12:38:12.182";"1";"1";"1";"146";"145";"module.training_block4.exec-1856.GoNoGo4";;;;;;;;;;;;;;;;;;;;;;;;;;;;;;;;;;;;;;;;;;;;;;;;;;;;;;;;;;;"1261";"2014-10-16 12:32:14.693";"NST_correctLoc";"17";"1";"FINISHED";"RIGHT";"success";"474";"0";"2014-10-16 12:32:13.430";"2";;;;;;;;;;;;;;;;;;;;;
"scd2014";;;"Windows 7";"Rachel's Experiment (D.T.)";"1.0";"2";"1";"1";"2";"1";"1";"2014-10-16 12:24:23.749";"2014-10-16 12:38:12.182";"1";"1";"1";"147";"146";"module.training_block4.exec-1856.GoNoGo4";;;;;;;;;;;;;;;;;;;;;;;;;;;;;;;;;;;;;;;;;;;;;;;;;;;;;;;;;;;"1261";"2014-10-16 12:32:17.221";"ST_correctStop";"23";"0";"FINISHED";"NONE";"success";"0";"1";"2014-10-16 12:32:15.957";"3";;;;;;;;;;;;;;;;;;;;;
"scd2014";;;"Windows 7";"Rachel's Experiment (D.T.)";"1.0";"2";"1";"1";"2";"1";"1";"2014-10-16 12:24:23.749";"2014-10-16 12:38:12.182";"1";"1";"1";"148";"147";"module.training_block4.exec-1856.GoNoGo4";;;;;;;;;;;;;;;;;;;;;;;;;;;;;;;;;;;;;;;;;;;;;;;;;;;;;;;;;;;"1261";"2014-10-16 12:32:19.779";"ST_correctStop";"3";"1";"FINISHED";"NONE";"success";"0";"1";"2014-10-16 12:32:18.516";"1";;;;;;;;;;;;;;;;;;;;;
"scd2014";;;"Windows 7";"Rachel's Experiment (D.T.)";"1.0";"2";"1";"1";"2";"1";"1";"2014-10-16 12:24:23.749";"2014-10-16 12:38:12.182";"1";"1";"1";"149";"148";"module.training_block4.exec-1856.GoNoGo4";;;;;;;;;;;;;;;;;;;;;;;;;;;;;;;;;;;;;;;;;;;;;;;;;;;;;;;;;;;"1261";"2014-10-16 12:32:22.307";"ST_correctStop";"6";"0";"FINISHED";"NONE";"success";"0";"1";"2014-10-16 12:32:21.043";"1";;;;;;;;;;;;;;;;;;;;;
"scd2014";;;"Windows 7";"Rachel's Experiment (D.T.)";"1.0";"2";"1";"1";"2";"1";"1";"2014-10-16 12:24:23.749";"2014-10-16 12:38:12.182";"1";"1";"1";"150";"149";"module.training_block4.exec-1856.GoNoGo4";;;;;;;;;;;;;;;;;;;;;;;;;;;;;;;;;;;;;;;;;;;;;;;;;;;;;;;;;;;"1261";"2014-10-16 12:32:24.850";"NST_correctLoc";"15";"1";"FINISHED";"RIGHT";"success";"486";"0";"2014-10-16 12:32:23.586";"2";;;;;;;;;;;;;;;;;;;;;
"scd2014";;;"Windows 7";"Rachel's Experiment (D.T.)";"1.0";"2";"1";"1";"2";"1";"1";"2014-10-16 12:24:23.749";"2014-10-16 12:38:12.182";"1";"1";"1";"151";"150";"module.training_block4.exec-1856.GoNoGo4";;;;;;;;;;;;;;;;;;;;;;;;;;;;;;;;;;;;;;;;;;;;;;;;;;;;;;;;;;;"1262";"2014-10-16 12:32:27.377";"NST_correctLoc";"12";"1";"FINISHED";"RIGHT";"success";"455";"0";"2014-10-16 12:32:26.114";"2";;;;;;;;;;;;;;;;;;;;;
"scd2014";;;"Windows 7";"Rachel's Experiment (D.T.)";"1.0";"2";"1";"1";"2";"1";"1";"2014-10-16 12:24:23.749";"2014-10-16 12:38:12.182";"1";"1";"1";"152";"151";"module.training_block4.exec-1856.GoNoGo4";;;;;;;;;;;;;;;;;;;;;;;;;;;;;;;;;;;;;;;;;;;;;;;;;;;;;;;;;;;"1261";"2014-10-16 12:32:29.905";"ST_correctStop";"24";"0";"FINISHED";"NONE";"success";"0";"1";"2014-10-16 12:32:28.641";"3";;;;;;;;;;;;;;;;;;;;;
"scd2014";;;"Windows 7";"Rachel's Experiment (D.T.)";"1.0";"2";"1";"1";"2";"1";"1";"2014-10-16 12:24:23.749";"2014-10-16 12:38:12.182";"1";"1";"1";"153";"152";"module.training_block4.exec-1856.GoNoGo4";;;;;;;;;;;;;;;;;;;;;;;;;;;;;;;;;;;;;;;;;;;;;;;;;;;;;;;;;;;"1261";"2014-10-16 12:32:32.463";"ST_correctStop";"2";"0";"FINISHED";"NONE";"success";"0";"1";"2014-10-16 12:32:31.200";"1";;;;;;;;;;;;;;;;;;;;;
"scd2014";;;"Windows 7";"Rachel's Experiment (D.T.)";"1.0";"2";"1";"1";"2";"1";"1";"2014-10-16 12:24:23.749";"2014-10-16 12:38:12.182";"1";"1";"1";"154";"153";"module.training_block4.exec-1856.GoNoGo4";;;;;;;;;;;;;;;;;;;;;;;;;;;;;;;;;;;;;;;;;;;;;;;;;;;;;;;;;;;"1262";"2014-10-16 12:32:34.991";"ST_correctStop";"26";"1";"FINISHED";"NONE";"success";"0";"1";"2014-10-16 12:32:33.727";"3";;;;;;;;;;;;;;;;;;;;;
"scd2014";;;"Windows 7";"Rachel's Experiment (D.T.)";"1.0";"2";"1";"1";"2";"1";"1";"2014-10-16 12:24:23.749";"2014-10-16 12:38:12.182";"1";"1";"1";"155";"154";"module.training_block4.exec-1856.GoNoGo4";;;;;;;;;;;;;;;;;;;;;;;;;;;;;;;;;;;;;;;;;;;;;;;;;;;;;;;;;;;"1262";"2014-10-16 12:32:37.534";"NST_correctLoc";"16";"1";"FINISHED";"RIGHT";"success";"452";"0";"2014-10-16 12:32:36.270";"2";;;;;;;;;;;;;;;;;;;;;
"scd2014";;;"Windows 7";"Rachel's Experiment (D.T.)";"1.0";"2";"1";"1";"2";"1";"1";"2014-10-16 12:24:23.749";"2014-10-16 12:38:12.182";"1";"1";"1";"156";"155";"module.training_block4.exec-1856.GoNoGo4";;;;;;;;;;;;;;;;;;;;;;;;;;;;;;;;;;;;;;;;;;;;;;;;;;;;;;;;;;;"1262";"2014-10-16 12:32:40.061";"NST_correctLoc";"14";"0";"FINISHED";"LEFT";"success";"604";"0";"2014-10-16 12:32:38.797";"2";;;;;;;;;;;;;;;;;;;;;
"scd2014";;;"Windows 7";"Rachel's Experiment (D.T.)";"1.0";"2";"1";"1";"2";"1";"1";"2014-10-16 12:24:23.749";"2014-10-16 12:38:12.182";"1";"1";"1";"157";"156";"module.training_block4.exec-1856.GoNoGo4";;;;;;;;;;;;;;;;;;;;;;;;;;;;;;;;;;;;;;;;;;;;;;;;;;;;;;;;;;;"1262";"2014-10-16 12:32:42.589";"NST_correctLoc";"9";"0";"FINISHED";"LEFT";"success";"453";"0";"2014-10-16 12:32:41.325";"2";;;;;;;;;;;;;;;;;;;;;
"scd2014";;;"Windows 7";"Rachel's Experiment (D.T.)";"1.0";"2";"1";"1";"2";"1";"1";"2014-10-16 12:24:23.749";"2014-10-16 12:38:12.182";"1";"1";"1";"158";"157";"module.training_block4.exec-1856.GoNoGo4";;;;;;;;;;;;;;;;;;;;;;;;;;;;;;;;;;;;;;;;;;;;;;;;;;;;;;;;;;;"1262";"2014-10-16 12:32:45.147";"NST_correctLoc";"32";"0";"FINISHED";"LEFT";"success";"478";"0";"2014-10-16 12:32:43.884";"3";;;;;;;;;;;;;;;;;;;;;
"scd2014";;;"Windows 7";"Rachel's Experiment (D.T.)";"1.0";"2";"1";"1";"2";"1";"1";"2014-10-16 12:24:23.749";"2014-10-16 12:38:12.182";"1";"1";"1";"159";"158";"module.training_block4.exec-1856.GoNoGo4";;;;;;;;;;;;;;;;;;;;;;;;;;;;;;;;;;;;;;;;;;;;;;;;;;;;;;;;;;;"1262";"2014-10-16 12:32:47.675";"NST_correctLoc";"19";"1";"FINISHED";"RIGHT";"success";"511";"0";"2014-10-16 12:32:46.411";"3";;;;;;;;;;;;;;;;;;;;;
"scd2014";;;"Windows 7";"Rachel's Experiment (D.T.)";"1.0";"2";"1";"1";"2";"1";"1";"2014-10-16 12:24:23.749";"2014-10-16 12:38:12.182";"1";"1";"1";"160";"159";"module.devaluation_practice.exec-7614.devalPractice";;;;;;;;;;;;"16377";"2014-10-16 12:33:25.664";"0";"6";"2";"3";"3817";"4006";"5496";"2014-10-16 12:33:09.283";;;;;;;;;;;;;;;;;;;;;;;;;;;;;;;;;;;;;;;;;;;;;;;;;;;;;;;;;;;;;;;;;;;;;;
"scd2014";;;"Windows 7";"Rachel's Experiment (D.T.)";"1.0";"2";"1";"1";"2";"1";"1";"2014-10-16 12:24:23.749";"2014-10-16 12:38:12.182";"1";"1";"1";"161";"160";"module.devaluation_practice.exec-7614.devalPractice";;;;;;;;;;;;"14093";"2014-10-16 12:33:39.783";"1";"6";"5";"4";"4082";"3757";"3240";"2014-10-16 12:33:25.680";;;;;;;;;;;;;;;;;;;;;;;;;;;;;;;;;;;;;;;;;;;;;;;;;;;;;;;;;;;;;;;;;;;;;;
"scd2014";;;"Windows 7";"Rachel's Experiment (D.T.)";"1.0";"2";"1";"1";"2";"1";"1";"2014-10-16 12:24:23.749";"2014-10-16 12:38:12.182";"1";"1";"1";"162";"161";"module.devaluation_practice.exec-7614.devalPractice";;;;;;;;;;;;"14788";"2014-10-16 12:33:54.589";"2";"3";"7";"7";"6202";"2404";"3154";"2014-10-16 12:33:39.799";;;;;;;;;;;;;;;;;;;;;;;;;;;;;;;;;;;;;;;;;;;;;;;;;;;;;;;;;;;;;;;;;;;;;;
"scd2014";;;"Windows 7";"Rachel's Experiment (D.T.)";"1.0";"2";"1";"1";"2";"1";"1";"2014-10-16 12:24:23.749";"2014-10-16 12:38:12.182";"1";"1";"1";"163";"162";"module.devaluation_practice.exec-7614.devalPractice";;;;;;;;;;;;"11128";"2014-10-16 12:34:05.744";"3";"3";"5";"4";"4037";"2208";"1839";"2014-10-16 12:33:54.605";;;;;;;;;;;;;;;;;;;;;;;;;;;;;;;;;;;;;;;;;;;;;;;;;;;;;;;;;;;;;;;;;;;;;;
"scd2014";;;"Windows 7";"Rachel's Experiment (D.T.)";"1.0";"2";"1";"1";"2";"1";"1";"2014-10-16 12:24:23.749";"2014-10-16 12:38:12.182";"1";"1";"1";"164";"163";"module.devaluation_block1.exec-3408.deval1";"15629";"2014-10-16 12:34:27.711";"18";"3";"9";"9";"6564";"2015";"4010";"2014-10-16 12:34:12.078";"3";;;;;;;;;;;;;;;;;;;;;;;;;;;;;;;;;;;;;;;;;;;;;;;;;;;;;;;;;;;;;;;;;;;;;;;;;;;;;;;;
"scd2014";;;"Windows 7";"Rachel's Experiment (D.T.)";"1.0";"2";"1";"1";"2";"1";"1";"2014-10-16 12:24:23.749";"2014-10-16 12:38:12.182";"1";"1";"1";"165";"164";"module.devaluation_block1.exec-3408.deval1";"11712";"2014-10-16 12:34:39.459";"16";"2";"2";"4";"5638";"1029";"2020";"2014-10-16 12:34:27.742";"2";;;;;;;;;;;;;;;;;;;;;;;;;;;;;;;;;;;;;;;;;;;;;;;;;;;;;;;;;;;;;;;;;;;;;;;;;;;;;;;;
"scd2014";;;"Windows 7";"Rachel's Experiment (D.T.)";"1.0";"2";"1";"1";"2";"1";"1";"2014-10-16 12:24:23.749";"2014-10-16 12:38:12.182";"1";"1";"1";"166";"165";"module.devaluation_block1.exec-3408.deval1";"9141";"2014-10-16 12:34:48.617";"11";"5";"1";"1";"2395";"1437";"2278";"2014-10-16 12:34:39.474";"2";;;;;;;;;;;;;;;;;;;;;;;;;;;;;;;;;;;;;;;;;;;;;;;;;;;;;;;;;;;;;;;;;;;;;;;;;;;;;;;;
"scd2014";;;"Windows 7";"Rachel's Experiment (D.T.)";"1.0";"2";"1";"1";"2";"1";"1";"2014-10-16 12:24:23.749";"2014-10-16 12:38:12.182";"1";"1";"1";"167";"166";"module.devaluation_block1.exec-3408.deval1";"10277";"2014-10-16 12:34:58.914";"17";"3";"3";"4";"2158";"1468";"3618";"2014-10-16 12:34:48.632";"2";;;;;;;;;;;;;;;;;;;;;;;;;;;;;;;;;;;;;;;;;;;;;;;;;;;;;;;;;;;;;;;;;;;;;;;;;;;;;;;;
"scd2014";;;"Windows 7";"Rachel's Experiment (D.T.)";"1.0";"2";"1";"1";"2";"1";"1";"2014-10-16 12:24:23.749";"2014-10-16 12:38:12.182";"1";"1";"1";"168";"167";"module.devaluation_block1.exec-3408.deval1";"8295";"2014-10-16 12:35:07.245";"14";"7";"4";"6";"2038";"1341";"1888";"2014-10-16 12:34:58.945";"2";;;;;;;;;;;;;;;;;;;;;;;;;;;;;;;;;;;;;;;;;;;;;;;;;;;;;;;;;;;;;;;;;;;;;;;;;;;;;;;;
"scd2014";;;"Windows 7";"Rachel's Experiment (D.T.)";"1.0";"2";"1";"1";"2";"1";"1";"2014-10-16 12:24:23.749";"2014-10-16 12:38:12.182";"1";"1";"1";"169";"168";"module.devaluation_block1.exec-3408.deval1";"8461";"2014-10-16 12:35:15.716";"10";"7";"2";"3";"1995";"1257";"2180";"2014-10-16 12:35:07.260";"2";;;;;;;;;;;;;;;;;;;;;;;;;;;;;;;;;;;;;;;;;;;;;;;;;;;;;;;;;;;;;;;;;;;;;;;;;;;;;;;;
"scd2014";;;"Windows 7";"Rachel's Experiment (D.T.)";"1.0";"2";"1";"1";"2";"1";"1";"2014-10-16 12:24:23.749";"2014-10-16 12:38:12.182";"1";"1";"1";"170";"169";"module.devaluation_block1.exec-3408.deval1";"7740";"2014-10-16 12:35:23.486";"4";"6";"6";"7";"1397";"1544";"1789";"2014-10-16 12:35:15.732";"1";;;;;;;;;;;;;;;;;;;;;;;;;;;;;;;;;;;;;;;;;;;;;;;;;;;;;;;;;;;;;;;;;;;;;;;;;;;;;;;;
"scd2014";;;"Windows 7";"Rachel's Experiment (D.T.)";"1.0";"2";"1";"1";"2";"1";"1";"2014-10-16 12:24:23.749";"2014-10-16 12:38:12.182";"1";"1";"1";"171";"170";"module.devaluation_block1.exec-3408.deval1";"7965";"2014-10-16 12:35:31.489";"23";"6";"3";"4";"1684";"715";"2524";"2014-10-16 12:35:23.517";"3";;;;;;;;;;;;;;;;;;;;;;;;;;;;;;;;;;;;;;;;;;;;;;;;;;;;;;;;;;;;;;;;;;;;;;;;;;;;;;;;
"scd2014";;;"Windows 7";"Rachel's Experiment (D.T.)";"1.0";"2";"1";"1";"2";"1";"1";"2014-10-16 12:24:23.749";"2014-10-16 12:38:12.182";"1";"1";"1";"172";"171";"module.devaluation_block1.exec-3408.deval1";"8553";"2014-10-16 12:35:40.055";"6";"4";"5";"5";"2425";"1022";"2076";"2014-10-16 12:35:31.505";"1";;;;;;;;;;;;;;;;;;;;;;;;;;;;;;;;;;;;;;;;;;;;;;;;;;;;;;;;;;;;;;;;;;;;;;;;;;;;;;;;
"scd2014";;;"Windows 7";"Rachel's Experiment (D.T.)";"1.0";"2";"1";"1";"2";"1";"1";"2014-10-16 12:24:23.749";"2014-10-16 12:38:12.182";"1";"1";"1";"173";"172";"module.devaluation_block1.exec-3408.deval1";"8349";"2014-10-16 12:35:48.432";"22";"7";"8";"8";"1964";"1528";"1836";"2014-10-16 12:35:40.070";"3";;;;;;;;;;;;;;;;;;;;;;;;;;;;;;;;;;;;;;;;;;;;;;;;;;;;;;;;;;;;;;;;;;;;;;;;;;;;;;;;
"scd2014";;;"Windows 7";"Rachel's Experiment (D.T.)";"1.0";"2";"1";"1";"2";"1";"1";"2014-10-16 12:24:23.749";"2014-10-16 12:38:12.182";"1";"1";"1";"174";"173";"module.devaluation_block1.exec-3408.deval1";"8781";"2014-10-16 12:35:57.232";"26";"8";"7";"8";"2251";"1483";"2018";"2014-10-16 12:35:48.448";"3";;;;;;;;;;;;;;;;;;;;;;;;;;;;;;;;;;;;;;;;;;;;;;;;;;;;;;;;;;;;;;;;;;;;;;;;;;;;;;;;
"scd2014";;;"Windows 7";"Rachel's Experiment (D.T.)";"1.0";"2";"1";"1";"2";"1";"1";"2014-10-16 12:24:23.749";"2014-10-16 12:38:12.182";"1";"1";"1";"175";"174";"module.devaluation_block1.exec-3408.deval1";"9070";"2014-10-16 12:36:06.312";"5";"5";"9";"9";"3197";"1336";"1500";"2014-10-16 12:35:57.247";"1";;;;;;;;;;;;;;;;;;;;;;;;;;;;;;;;;;;;;;;;;;;;;;;;;;;;;;;;;;;;;;;;;;;;;;;;;;;;;;;;
"scd2014";;;"Windows 7";"Rachel's Experiment (D.T.)";"1.0";"2";"1";"1";"2";"1";"1";"2014-10-16 12:24:23.749";"2014-10-16 12:38:12.182";"1";"1";"1";"176";"175";"module.devaluation_block1.exec-3408.deval1";"7070";"2014-10-16 12:36:13.410";"8";"6";"5";"5";"1478";"850";"1713";"2014-10-16 12:36:06.343";"1";;;;;;;;;;;;;;;;;;;;;;;;;;;;;;;;;;;;;;;;;;;;;;;;;;;;;;;;;;;;;;;;;;;;;;;;;;;;;;;;
"scd2014";;;"Windows 7";"Rachel's Experiment (D.T.)";"1.0";"2";"1";"1";"2";"1";"1";"2014-10-16 12:24:23.749";"2014-10-16 12:38:12.182";"1";"1";"1";"177";"176";"module.devaluation_block1.exec-3408.deval1";"8797";"2014-10-16 12:36:22.225";"7";"5";"5";"6";"1187";"1991";"2599";"2014-10-16 12:36:13.426";"1";;;;;;;;;;;;;;;;;;;;;;;;;;;;;;;;;;;;;;;;;;;;;;;;;;;;;;;;;;;;;;;;;;;;;;;;;;;;;;;;
"scd2014";;;"Windows 7";"Rachel's Experiment (D.T.)";"1.0";"2";"1";"1";"2";"1";"1";"2014-10-16 12:24:23.749";"2014-10-16 12:38:12.182";"1";"1";"1";"178";"177";"module.devaluation_block1.exec-3408.deval1";"7261";"2014-10-16 12:36:29.511";"25";"7";"9";"9";"1053";"1455";"1733";"2014-10-16 12:36:22.241";"3";;;;;;;;;;;;;;;;;;;;;;;;;;;;;;;;;;;;;;;;;;;;;;;;;;;;;;;;;;;;;;;;;;;;;;;;;;;;;;;;
"scd2014";;;"Windows 7";"Rachel's Experiment (D.T.)";"1.0";"2";"1";"1";"2";"1";"1";"2014-10-16 12:24:23.749";"2014-10-16 12:38:12.182";"1";"1";"1";"179";"178";"module.devaluation_block1.exec-3408.deval1";"7621";"2014-10-16 12:36:37.156";"0";"4";"8";"8";"1000";"1404";"2183";"2014-10-16 12:36:29.527";"1";;;;;;;;;;;;;;;;;;;;;;;;;;;;;;;;;;;;;;;;;;;;;;;;;;;;;;;;;;;;;;;;;;;;;;;;;;;;;;;;
"scd2014";;;"Windows 7";"Rachel's Experiment (D.T.)";"1.0";"2";"1";"1";"2";"1";"1";"2014-10-16 12:24:23.749";"2014-10-16 12:38:12.182";"1";"1";"1";"180";"179";"module.devaluation_block1.exec-3408.deval1";"8236";"2014-10-16 12:36:45.424";"19";"6";"9";"9";"2356";"909";"1942";"2014-10-16 12:36:37.187";"3";;;;;;;;;;;;;;;;;;;;;;;;;;;;;;;;;;;;;;;;;;;;;;;;;;;;;;;;;;;;;;;;;;;;;;;;;;;;;;;;
"scd2014";;;"Windows 7";"Rachel's Experiment (D.T.)";"1.0";"2";"1";"1";"2";"1";"1";"2014-10-16 12:24:23.749";"2014-10-16 12:38:12.182";"1";"1";"1";"181";"180";"module.devaluation_block1.exec-3408.deval1";"7837";"2014-10-16 12:36:53.287";"1";"3";"7";"7";"2456";"996";"1364";"2014-10-16 12:36:45.440";"1";;;;;;;;;;;;;;;;;;;;;;;;;;;;;;;;;;;;;;;;;;;;;;;;;;;;;;;;;;;;;;;;;;;;;;;;;;;;;;;;
"scd2014";;;"Windows 7";"Rachel's Experiment (D.T.)";"1.0";"2";"1";"1";"2";"1";"1";"2014-10-16 12:24:23.749";"2014-10-16 12:38:12.182";"1";"1";"1";"182";"181";"module.devaluation_block1.exec-3408.deval1";"6110";"2014-10-16 12:36:59.403";"12";"7";"4";"6";"1082";"868";"1122";"2014-10-16 12:36:53.303";"2";;;;;;;;;;;;;;;;;;;;;;;;;;;;;;;;;;;;;;;;;;;;;;;;;;;;;;;;;;;;;;;;;;;;;;;;;;;;;;;;
"scd2014";;;"Windows 7";"Rachel's Experiment (D.T.)";"1.0";"2";"1";"1";"2";"1";"1";"2014-10-16 12:24:23.749";"2014-10-16 12:38:12.182";"1";"1";"1";"183";"182";"module.devaluation_block1.exec-3408.deval1";"6708";"2014-10-16 12:37:06.142";"15";"2";"3";"4";"1007";"841";"1829";"2014-10-16 12:36:59.434";"2";;;;;;;;;;;;;;;;;;;;;;;;;;;;;;;;;;;;;;;;;;;;;;;;;;;;;;;;;;;;;;;;;;;;;;;;;;;;;;;;
"scd2014";;;"Windows 7";"Rachel's Experiment (D.T.)";"1.0";"2";"1";"1";"2";"1";"1";"2014-10-16 12:24:23.749";"2014-10-16 12:38:12.182";"1";"1";"1";"184";"183";"module.devaluation_block1.exec-3408.deval1";"15332";"2014-10-16 12:37:21.510";"20";"6";"5";"3";"2003";"7080";"3212";"2014-10-16 12:37:06.174";"3";;;;;;;;;;;;;;;;;;;;;;;;;;;;;;;;;;;;;;;;;;;;;;;;;;;;;;;;;;;;;;;;;;;;;;;;;;;;;;;;
"scd2014";;;"Windows 7";"Rachel's Experiment (D.T.)";"1.0";"2";"1";"1";"2";"1";"1";"2014-10-16 12:24:23.749";"2014-10-16 12:38:12.182";"1";"1";"1";"185";"184";"module.devaluation_block1.exec-3408.deval1";"9437";"2014-10-16 12:37:30.979";"21";"6";"9";"9";"3741";"971";"1690";"2014-10-16 12:37:21.541";"3";;;;;;;;;;;;;;;;;;;;;;;;;;;;;;;;;;;;;;;;;;;;;;;;;;;;;;;;;;;;;;;;;;;;;;;;;;;;;;;;
"scd2014";;;"Windows 7";"Rachel's Experiment (D.T.)";"1.0";"2";"1";"1";"2";"1";"1";"2014-10-16 12:24:23.749";"2014-10-16 12:38:12.182";"1";"1";"1";"186";"185";"module.devaluation_block1.exec-3408.deval1";"8061";"2014-10-16 12:37:39.061";"13";"7";"2";"2";"872";"1017";"3147";"2014-10-16 12:37:30.995";"2";;;;;;;;;;;;;;;;;;;;;;;;;;;;;;;;;;;;;;;;;;;;;;;;;;;;;;;;;;;;;;;;;;;;;;;;;;;;;;;;
"scd2014";;;"Windows 7";"Rachel's Experiment (D.T.)";"1.0";"2";"1";"1";"2";"1";"1";"2014-10-16 12:24:23.749";"2014-10-16 12:38:12.182";"1";"1";"1";"187";"186";"module.devaluation_block1.exec-3408.deval1";"6973";"2014-10-16 12:37:46.050";"9";"4";"1";"1";"1327";"1192";"1422";"2014-10-16 12:37:39.076";"2";;;;;;;;;;;;;;;;;;;;;;;;;;;;;;;;;;;;;;;;;;;;;;;;;;;;;;;;;;;;;;;;;;;;;;;;;;;;;;;;
"scd2014";;;"Windows 7";"Rachel's Experiment (D.T.)";"1.0";"2";"1";"1";"2";"1";"1";"2014-10-16 12:24:23.749";"2014-10-16 12:38:12.182";"1";"1";"1";"188";"187";"module.devaluation_block1.exec-3408.deval1";"7677";"2014-10-16 12:37:53.741";"2";"4";"7";"7";"2002";"1072";"1586";"2014-10-16 12:37:46.066";"1";;;;;;;;;;;;;;;;;;;;;;;;;;;;;;;;;;;;;;;;;;;;;;;;;;;;;;;;;;;;;;;;;;;;;;;;;;;;;;;;
"scd2014";;;"Windows 7";"Rachel's Experiment (D.T.)";"1.0";"2";"1";"1";"2";"1";"1";"2014-10-16 12:24:23.749";"2014-10-16 12:38:12.182";"1";"1";"1";"189";"188";"module.devaluation_block1.exec-3408.deval1";"7372";"2014-10-16 12:38:01.136";"24";"7";"9";"9";"1456";"1366";"1514";"2014-10-16 12:37:53.773";"3";;;;;;;;;;;;;;;;;;;;;;;;;;;;;;;;;;;;;;;;;;;;;;;;;;;;;;;;;;;;;;;;;;;;;;;;;;;;;;;;
"scd2014";;;"Windows 7";"Rachel's Experiment (D.T.)";"1.0";"2";"1";"1";"2";"1";"1";"2014-10-16 12:24:23.749";"2014-10-16 12:38:12.182";"1";"1";"1";"190";"189";"module.devaluation_block1.exec-3408.deval1";"9215";"2014-10-16 12:38:10.388";"3";"5";"9";"9";"4077";"1090";"1019";"2014-10-16 12:38:01.168";"1";;;;;;;;;;;;;;;;;;;;;;;;;;;;;;;;;;;;;;;;;;;;;;;;;;;;;;;;;;;;;;;;;;;;;;;;;;;;;;;;
