"user.name";"user.yearOfBirth";"user.sex";"user.osName";"module.name";"module.version";"module.online.subject.code";"module.online.study.id";"module.online.module.nr";"module.online.group.nr";"session.id";"session.index";"session.startTime";"session.endTime";"session.completed";"session.node-3389.DevalQorder";"session.node-7614.conditionType";"trial.id";"trial.index";"trial.name";"trial.deval1.durationTime";"trial.deval1.endTime";"trial.deval1.icon";"trial.deval1.Resp_Attractive";"trial.deval1.Resp_Eat";"trial.deval1.Resp_Taste";"trial.deval1.RT_Attractive";"trial.deval1.RT_Eat";"trial.deval1.RT_Taste";"trial.deval1.startTime";"trial.deval1.stimulus type";"trial.devalPractice.durationTime";"trial.devalPractice.endTime";"trial.devalPractice.icon";"trial.devalPractice.Resp_Attractive";"trial.devalPractice.Resp_Eat";"trial.devalPractice.Resp_Taste";"trial.devalPractice.RT_Attractive";"trial.devalPractice.RT_Eat";"trial.devalPractice.RT_Taste";"trial.devalPractice.startTime";"trial.devalPractice.stimulus type";"trial.GoNoGo1.durationTime";"trial.GoNoGo1.endTime";"trial.GoNoGo1.Error Type";"trial.GoNoGo1.icon";"trial.GoNoGo1.location";"trial.GoNoGo1.outcome";"trial.GoNoGo1.response";"trial.GoNoGo1.result";"trial.GoNoGo1.RT";"trial.GoNoGo1.signal";"trial.GoNoGo1.startTime";"trial.GoNoGo1.stimulus type";"trial.GoNoGo2.durationTime";"trial.GoNoGo2.endTime";"trial.GoNoGo2.Error Type";"trial.GoNoGo2.icon";"trial.GoNoGo2.location";"trial.GoNoGo2.outcome";"trial.GoNoGo2.response";"trial.GoNoGo2.result";"trial.GoNoGo2.RT";"trial.GoNoGo2.signal";"trial.GoNoGo2.startTime";"trial.GoNoGo2.stimulus type";"trial.GoNoGo3.durationTime";"trial.GoNoGo3.endTime";"trial.GoNoGo3.Error Type";"trial.GoNoGo3.icon";"trial.GoNoGo3.location";"trial.GoNoGo3.outcome";"trial.GoNoGo3.response";"trial.GoNoGo3.result";"trial.GoNoGo3.RT";"trial.GoNoGo3.signal";"trial.GoNoGo3.startTime";"trial.GoNoGo3.stimulus type";"trial.GoNoGo4.durationTime";"trial.GoNoGo4.endTime";"trial.GoNoGo4.Error Type";"trial.GoNoGo4.icon";"trial.GoNoGo4.location";"trial.GoNoGo4.outcome";"trial.GoNoGo4.response";"trial.GoNoGo4.result";"trial.GoNoGo4.RT";"trial.GoNoGo4.signal";"trial.GoNoGo4.startTime";"trial.GoNoGo4.stimulus type";"trial.GoNoGo_Practice.durationTime";"trial.GoNoGo_Practice.endTime";"trial.GoNoGo_Practice.icon";"trial.GoNoGo_Practice.location";"trial.GoNoGo_Practice.outcome";"trial.GoNoGo_Practice.response";"trial.GoNoGo_Practice.result";"trial.GoNoGo_Practice.RT";"trial.GoNoGo_Practice.signal";"trial.GoNoGo_Practice.startTime";"trial.GoNoGo_Practice.stimulus type";"trial.GoNoGo_Tutorial.durationTime";"trial.GoNoGo_Tutorial.endTime";"trial.GoNoGo_Tutorial.icon";"trial.GoNoGo_Tutorial.location";"trial.GoNoGo_Tutorial.outcome";"trial.GoNoGo_Tutorial.response";"trial.GoNoGo_Tutorial.result";"trial.GoNoGo_Tutorial.RT";"trial.GoNoGo_Tutorial.signal";"trial.GoNoGo_Tutorial.startTime"
"abi10";"1994";;"Windows 7";"Rachel's Experiment (D.T.)";"1.0";"2";"1";"1";"2";"1";"1";"2014-10-07 10:00:11.188";"2014-10-07 10:13:06.446";"1";"0";"1";"1";"0";"module.GoNoGotutorial.exec-6353.GoNoGo_Tutorial";;;;;;;;;;;;;;;;;;;;;;;;;;;;;;;;;;;;;;;;;;;;;;;;;;;;;;;;;;;;;;;;;;;;;;;;;;;;;;;;;;"3997";"2014-10-07 10:01:07.706";"leftResponse";"0";"FINISHED";"NONE";"failure";"0";"0";"2014-10-07 10:01:03.697"
"abi10";"1994";;"Windows 7";"Rachel's Experiment (D.T.)";"1.0";"2";"1";"1";"2";"1";"1";"2014-10-07 10:00:11.188";"2014-10-07 10:13:06.446";"1";"0";"1";"2";"1";"module.GoNoGotutorial.exec-6353.GoNoGo_Tutorial";;;;;;;;;;;;;;;;;;;;;;;;;;;;;;;;;;;;;;;;;;;;;;;;;;;;;;;;;;;;;;;;;;;;;;;;;;;;;;;;;;"4003";"2014-10-07 10:01:13.010";"rightResponse";"1";"FINISHED";"NONE";"failure";"0";"0";"2014-10-07 10:01:09.001"
"abi10";"1994";;"Windows 7";"Rachel's Experiment (D.T.)";"1.0";"2";"1";"1";"2";"1";"1";"2014-10-07 10:00:11.188";"2014-10-07 10:13:06.446";"1";"0";"1";"3";"2";"module.GoNoGotutorial.exec-6353.GoNoGo_Tutorial";;;;;;;;;;;;;;;;;;;;;;;;;;;;;;;;;;;;;;;;;;;;;;;;;;;;;;;;;;;;;;;;;;;;;;;;;;;;;;;;;;"4003";"2014-10-07 10:01:18.314";"signalResponse";"0";"FINISHED";"NONE";"success";"0";"1";"2014-10-07 10:01:14.305"
"abi10";"1994";;"Windows 7";"Rachel's Experiment (D.T.)";"1.0";"2";"1";"1";"2";"1";"1";"2014-10-07 10:00:11.188";"2014-10-07 10:13:06.446";"1";"0";"1";"4";"3";"module.GoNoGopractice.exec-1447.GoNoGo_Practice";;;;;;;;;;;;;;;;;;;;;;;;;;;;;;;;;;;;;;;;;;;;;;;;;;;;;;;;;;;;;;;;;;;;;;;"1959";"2014-10-07 10:01:27.269";"18";"0";"FINISHED";"LEFT";"success";"786";"0";"2014-10-07 10:01:25.303";"3";;;;;;;;;;
"abi10";"1994";;"Windows 7";"Rachel's Experiment (D.T.)";"1.0";"2";"1";"1";"2";"1";"1";"2014-10-07 10:00:11.188";"2014-10-07 10:13:06.446";"1";"0";"1";"5";"4";"module.GoNoGopractice.exec-1447.GoNoGo_Practice";;;;;;;;;;;;;;;;;;;;;;;;;;;;;;;;;;;;;;;;;;;;;;;;;;;;;;;;;;;;;;;;;;;;;;;"1959";"2014-10-07 10:01:30.514";"21";"1";"FINISHED";"RIGHT";"success";"469";"0";"2014-10-07 10:01:28.548";"3";;;;;;;;;;
"abi10";"1994";;"Windows 7";"Rachel's Experiment (D.T.)";"1.0";"2";"1";"1";"2";"1";"1";"2014-10-07 10:00:11.188";"2014-10-07 10:13:06.446";"1";"0";"1";"6";"5";"module.GoNoGopractice.exec-1447.GoNoGo_Practice";;;;;;;;;;;;;;;;;;;;;;;;;;;;;;;;;;;;;;;;;;;;;;;;;;;;;;;;;;;;;;;;;;;;;;;"1958";"2014-10-07 10:01:33.758";"14";"1";"FINISHED";"NONE";"success";"0";"1";"2014-10-07 10:01:31.793";"2";;;;;;;;;;
"abi10";"1994";;"Windows 7";"Rachel's Experiment (D.T.)";"1.0";"2";"1";"1";"2";"1";"1";"2014-10-07 10:00:11.188";"2014-10-07 10:13:06.446";"1";"0";"1";"7";"6";"module.GoNoGopractice.exec-1447.GoNoGo_Practice";;;;;;;;;;;;;;;;;;;;;;;;;;;;;;;;;;;;;;;;;;;;;;;;;;;;;;;;;;;;;;;;;;;;;;;"1959";"2014-10-07 10:01:37.003";"26";"0";"FINISHED";"LEFT";"success";"460";"0";"2014-10-07 10:01:35.038";"3";;;;;;;;;;
"abi10";"1994";;"Windows 7";"Rachel's Experiment (D.T.)";"1.0";"2";"1";"1";"2";"1";"1";"2014-10-07 10:00:11.188";"2014-10-07 10:13:06.446";"1";"0";"1";"8";"7";"module.GoNoGopractice.exec-1447.GoNoGo_Practice";;;;;;;;;;;;;;;;;;;;;;;;;;;;;;;;;;;;;;;;;;;;;;;;;;;;;;;;;;;;;;;;;;;;;;;"1959";"2014-10-07 10:01:40.248";"2";"0";"FINISHED";"LEFT";"success";"463";"0";"2014-10-07 10:01:38.282";"1";;;;;;;;;;
"abi10";"1994";;"Windows 7";"Rachel's Experiment (D.T.)";"1.0";"2";"1";"1";"2";"1";"1";"2014-10-07 10:00:11.188";"2014-10-07 10:13:06.446";"1";"0";"1";"9";"8";"module.GoNoGopractice.exec-1447.GoNoGo_Practice";;;;;;;;;;;;;;;;;;;;;;;;;;;;;;;;;;;;;;;;;;;;;;;;;;;;;;;;;;;;;;;;;;;;;;;"1960";"2014-10-07 10:01:43.493";"30";"0";"FINISHED";"LEFT";"failure";"539";"1";"2014-10-07 10:01:41.527";"3";;;;;;;;;;
"abi10";"1994";;"Windows 7";"Rachel's Experiment (D.T.)";"1.0";"2";"1";"1";"2";"1";"1";"2014-10-07 10:00:11.188";"2014-10-07 10:13:06.446";"1";"0";"1";"10";"9";"module.GoNoGopractice.exec-1447.GoNoGo_Practice";;;;;;;;;;;;;;;;;;;;;;;;;;;;;;;;;;;;;;;;;;;;;;;;;;;;;;;;;;;;;;;;;;;;;;;"1959";"2014-10-07 10:01:46.753";"6";"1";"FINISHED";"NONE";"success";"0";"1";"2014-10-07 10:01:44.788";"1";;;;;;;;;;
"abi10";"1994";;"Windows 7";"Rachel's Experiment (D.T.)";"1.0";"2";"1";"1";"2";"1";"1";"2014-10-07 10:00:11.188";"2014-10-07 10:13:06.446";"1";"0";"1";"11";"10";"module.GoNoGopractice.exec-1447.GoNoGo_Practice";;;;;;;;;;;;;;;;;;;;;;;;;;;;;;;;;;;;;;;;;;;;;;;;;;;;;;;;;;;;;;;;;;;;;;;"1960";"2014-10-07 10:01:49.998";"34";"0";"FINISHED";"LEFT";"success";"634";"0";"2014-10-07 10:01:48.032";"3";;;;;;;;;;
"abi10";"1994";;"Windows 7";"Rachel's Experiment (D.T.)";"1.0";"2";"1";"1";"2";"1";"1";"2014-10-07 10:00:11.188";"2014-10-07 10:13:06.446";"1";"0";"1";"12";"11";"module.GoNoGopractice.exec-1447.GoNoGo_Practice";;;;;;;;;;;;;;;;;;;;;;;;;;;;;;;;;;;;;;;;;;;;;;;;;;;;;;;;;;;;;;;;;;;;;;;"1959";"2014-10-07 10:01:53.243";"23";"1";"FINISHED";"RIGHT";"success";"612";"0";"2014-10-07 10:01:51.277";"3";;;;;;;;;;
"abi10";"1994";;"Windows 7";"Rachel's Experiment (D.T.)";"1.0";"2";"1";"1";"2";"1";"1";"2014-10-07 10:00:11.188";"2014-10-07 10:13:06.446";"1";"0";"1";"13";"12";"module.GoNoGopractice.exec-1447.GoNoGo_Practice";;;;;;;;;;;;;;;;;;;;;;;;;;;;;;;;;;;;;;;;;;;;;;;;;;;;;;;;;;;;;;;;;;;;;;;"1959";"2014-10-07 10:01:56.488";"13";"0";"FINISHED";"NONE";"success";"0";"1";"2014-10-07 10:01:54.522";"2";;;;;;;;;;
"abi10";"1994";;"Windows 7";"Rachel's Experiment (D.T.)";"1.0";"2";"1";"1";"2";"1";"1";"2014-10-07 10:00:11.188";"2014-10-07 10:13:06.446";"1";"0";"1";"14";"13";"module.GoNoGopractice.exec-1447.GoNoGo_Practice";;;;;;;;;;;;;;;;;;;;;;;;;;;;;;;;;;;;;;;;;;;;;;;;;;;;;;;;;;;;;;;;;;;;;;;"1960";"2014-10-07 10:01:59.733";"3";"1";"FINISHED";"RIGHT";"success";"540";"0";"2014-10-07 10:01:57.767";"1";;;;;;;;;;
"abi10";"1994";;"Windows 7";"Rachel's Experiment (D.T.)";"1.0";"2";"1";"1";"2";"1";"1";"2014-10-07 10:00:11.188";"2014-10-07 10:13:06.446";"1";"0";"1";"15";"14";"module.GoNoGopractice.exec-1447.GoNoGo_Practice";;;;;;;;;;;;;;;;;;;;;;;;;;;;;;;;;;;;;;;;;;;;;;;;;;;;;;;;;;;;;;;;;;;;;;;"1959";"2014-10-07 10:02:02.977";"27";"1";"FINISHED";"NONE";"success";"0";"1";"2014-10-07 10:02:01.012";"3";;;;;;;;;;
"abi10";"1994";;"Windows 7";"Rachel's Experiment (D.T.)";"1.0";"2";"1";"1";"2";"1";"1";"2014-10-07 10:00:11.188";"2014-10-07 10:13:06.446";"1";"0";"1";"16";"15";"module.training_block1.exec-1005.GoNoGo1";;;;;;;;;;;;;;;;;;;;;;;"1261";"2014-10-07 10:02:13.663";"ST_correctStop";"2";"0";"FINISHED";"NONE";"success";"0";"1";"2014-10-07 10:02:12.400";"1";;;;;;;;;;;;;;;;;;;;;;;;;;;;;;;;;;;;;;;;;;;;;;;;;;;;;;;;;
"abi10";"1994";;"Windows 7";"Rachel's Experiment (D.T.)";"1.0";"2";"1";"1";"2";"1";"1";"2014-10-07 10:00:11.188";"2014-10-07 10:13:06.446";"1";"0";"1";"17";"16";"module.training_block1.exec-1005.GoNoGo1";;;;;;;;;;;;;;;;;;;;;;;"1258";"2014-10-07 10:02:16.206";"NST_correctLoc";"33";"1";"FINISHED";"RIGHT";"success";"451";"0";"2014-10-07 10:02:14.943";"3";;;;;;;;;;;;;;;;;;;;;;;;;;;;;;;;;;;;;;;;;;;;;;;;;;;;;;;;;
"abi10";"1994";;"Windows 7";"Rachel's Experiment (D.T.)";"1.0";"2";"1";"1";"2";"1";"1";"2014-10-07 10:00:11.188";"2014-10-07 10:13:06.446";"1";"0";"1";"18";"17";"module.training_block1.exec-1005.GoNoGo1";;;;;;;;;;;;;;;;;;;;;;;"1257";"2014-10-07 10:02:18.749";"ST_correctStop";"7";"1";"FINISHED";"NONE";"success";"0";"1";"2014-10-07 10:02:17.485";"1";;;;;;;;;;;;;;;;;;;;;;;;;;;;;;;;;;;;;;;;;;;;;;;;;;;;;;;;;
"abi10";"1994";;"Windows 7";"Rachel's Experiment (D.T.)";"1.0";"2";"1";"1";"2";"1";"1";"2014-10-07 10:00:11.188";"2014-10-07 10:13:06.446";"1";"0";"1";"19";"18";"module.training_block1.exec-1005.GoNoGo1";;;;;;;;;;;;;;;;;;;;;;;"1258";"2014-10-07 10:02:21.292";"ST_correctStop";"5";"0";"FINISHED";"NONE";"success";"0";"1";"2014-10-07 10:02:20.028";"1";;;;;;;;;;;;;;;;;;;;;;;;;;;;;;;;;;;;;;;;;;;;;;;;;;;;;;;;;
"abi10";"1994";;"Windows 7";"Rachel's Experiment (D.T.)";"1.0";"2";"1";"1";"2";"1";"1";"2014-10-07 10:00:11.188";"2014-10-07 10:13:06.446";"1";"0";"1";"20";"19";"module.training_block1.exec-1005.GoNoGo1";;;;;;;;;;;;;;;;;;;;;;;"1257";"2014-10-07 10:02:23.835";"ST_correctStop";"0";"1";"FINISHED";"NONE";"success";"0";"1";"2014-10-07 10:02:22.571";"1";;;;;;;;;;;;;;;;;;;;;;;;;;;;;;;;;;;;;;;;;;;;;;;;;;;;;;;;;
"abi10";"1994";;"Windows 7";"Rachel's Experiment (D.T.)";"1.0";"2";"1";"1";"2";"1";"1";"2014-10-07 10:00:11.188";"2014-10-07 10:13:06.446";"1";"0";"1";"21";"20";"module.training_block1.exec-1005.GoNoGo1";;;;;;;;;;;;;;;;;;;;;;;"1261";"2014-10-07 10:02:26.377";"NST_correctLoc";"14";"0";"FINISHED";"LEFT";"success";"468";"0";"2014-10-07 10:02:25.114";"2";;;;;;;;;;;;;;;;;;;;;;;;;;;;;;;;;;;;;;;;;;;;;;;;;;;;;;;;;
"abi10";"1994";;"Windows 7";"Rachel's Experiment (D.T.)";"1.0";"2";"1";"1";"2";"1";"1";"2014-10-07 10:00:11.188";"2014-10-07 10:13:06.446";"1";"0";"1";"22";"21";"module.training_block1.exec-1005.GoNoGo1";;;;;;;;;;;;;;;;;;;;;;;"1261";"2014-10-07 10:02:28.920";"ST_correctStop";"23";"1";"FINISHED";"NONE";"success";"0";"1";"2014-10-07 10:02:27.657";"3";;;;;;;;;;;;;;;;;;;;;;;;;;;;;;;;;;;;;;;;;;;;;;;;;;;;;;;;;
"abi10";"1994";;"Windows 7";"Rachel's Experiment (D.T.)";"1.0";"2";"1";"1";"2";"1";"1";"2014-10-07 10:00:11.188";"2014-10-07 10:13:06.446";"1";"0";"1";"23";"22";"module.training_block1.exec-1005.GoNoGo1";;;;;;;;;;;;;;;;;;;;;;;"1261";"2014-10-07 10:02:31.463";"ST_correctStop";"3";"0";"FINISHED";"NONE";"success";"0";"1";"2014-10-07 10:02:30.199";"1";;;;;;;;;;;;;;;;;;;;;;;;;;;;;;;;;;;;;;;;;;;;;;;;;;;;;;;;;
"abi10";"1994";;"Windows 7";"Rachel's Experiment (D.T.)";"1.0";"2";"1";"1";"2";"1";"1";"2014-10-07 10:00:11.188";"2014-10-07 10:13:06.446";"1";"0";"1";"24";"23";"module.training_block1.exec-1005.GoNoGo1";;;;;;;;;;;;;;;;;;;;;;;"1258";"2014-10-07 10:02:34.006";"NST_correctLoc";"28";"1";"FINISHED";"RIGHT";"success";"499";"0";"2014-10-07 10:02:32.742";"3";;;;;;;;;;;;;;;;;;;;;;;;;;;;;;;;;;;;;;;;;;;;;;;;;;;;;;;;;
"abi10";"1994";;"Windows 7";"Rachel's Experiment (D.T.)";"1.0";"2";"1";"1";"2";"1";"1";"2014-10-07 10:00:11.188";"2014-10-07 10:13:06.446";"1";"0";"1";"25";"24";"module.training_block1.exec-1005.GoNoGo1";;;;;;;;;;;;;;;;;;;;;;;"1261";"2014-10-07 10:02:36.549";"ST_correctStop";"26";"0";"FINISHED";"NONE";"success";"0";"1";"2014-10-07 10:02:35.285";"3";;;;;;;;;;;;;;;;;;;;;;;;;;;;;;;;;;;;;;;;;;;;;;;;;;;;;;;;;
"abi10";"1994";;"Windows 7";"Rachel's Experiment (D.T.)";"1.0";"2";"1";"1";"2";"1";"1";"2014-10-07 10:00:11.188";"2014-10-07 10:13:06.446";"1";"0";"1";"26";"25";"module.training_block1.exec-1005.GoNoGo1";;;;;;;;;;;;;;;;;;;;;;;"1261";"2014-10-07 10:02:39.091";"ST_correctStop";"34";"0";"FINISHED";"NONE";"success";"0";"1";"2014-10-07 10:02:37.828";"3";;;;;;;;;;;;;;;;;;;;;;;;;;;;;;;;;;;;;;;;;;;;;;;;;;;;;;;;;
"abi10";"1994";;"Windows 7";"Rachel's Experiment (D.T.)";"1.0";"2";"1";"1";"2";"1";"1";"2014-10-07 10:00:11.188";"2014-10-07 10:13:06.446";"1";"0";"1";"27";"26";"module.training_block1.exec-1005.GoNoGo1";;;;;;;;;;;;;;;;;;;;;;;"1256";"2014-10-07 10:02:41.634";"ST_correctStop";"4";"0";"FINISHED";"NONE";"success";"0";"1";"2014-10-07 10:02:40.371";"1";;;;;;;;;;;;;;;;;;;;;;;;;;;;;;;;;;;;;;;;;;;;;;;;;;;;;;;;;
"abi10";"1994";;"Windows 7";"Rachel's Experiment (D.T.)";"1.0";"2";"1";"1";"2";"1";"1";"2014-10-07 10:00:11.188";"2014-10-07 10:13:06.446";"1";"0";"1";"28";"27";"module.training_block1.exec-1005.GoNoGo1";;;;;;;;;;;;;;;;;;;;;;;"1258";"2014-10-07 10:02:44.177";"ST_correctStop";"24";"1";"FINISHED";"NONE";"success";"0";"1";"2014-10-07 10:02:42.913";"3";;;;;;;;;;;;;;;;;;;;;;;;;;;;;;;;;;;;;;;;;;;;;;;;;;;;;;;;;
"abi10";"1994";;"Windows 7";"Rachel's Experiment (D.T.)";"1.0";"2";"1";"1";"2";"1";"1";"2014-10-07 10:00:11.188";"2014-10-07 10:13:06.446";"1";"0";"1";"29";"28";"module.training_block1.exec-1005.GoNoGo1";;;;;;;;;;;;;;;;;;;;;;;"1261";"2014-10-07 10:02:46.720";"NST_correctLoc";"21";"1";"FINISHED";"RIGHT";"success";"525";"0";"2014-10-07 10:02:45.456";"3";;;;;;;;;;;;;;;;;;;;;;;;;;;;;;;;;;;;;;;;;;;;;;;;;;;;;;;;;
"abi10";"1994";;"Windows 7";"Rachel's Experiment (D.T.)";"1.0";"2";"1";"1";"2";"1";"1";"2014-10-07 10:00:11.188";"2014-10-07 10:13:06.446";"1";"0";"1";"30";"29";"module.training_block1.exec-1005.GoNoGo1";;;;;;;;;;;;;;;;;;;;;;;"1261";"2014-10-07 10:02:49.263";"ST_correctStop";"27";"1";"FINISHED";"NONE";"success";"0";"1";"2014-10-07 10:02:47.999";"3";;;;;;;;;;;;;;;;;;;;;;;;;;;;;;;;;;;;;;;;;;;;;;;;;;;;;;;;;
"abi10";"1994";;"Windows 7";"Rachel's Experiment (D.T.)";"1.0";"2";"1";"1";"2";"1";"1";"2014-10-07 10:00:11.188";"2014-10-07 10:13:06.446";"1";"0";"1";"31";"30";"module.training_block1.exec-1005.GoNoGo1";;;;;;;;;;;;;;;;;;;;;;;"1261";"2014-10-07 10:02:51.805";"NST_correctLoc";"18";"0";"FINISHED";"LEFT";"success";"695";"0";"2014-10-07 10:02:50.542";"3";;;;;;;;;;;;;;;;;;;;;;;;;;;;;;;;;;;;;;;;;;;;;;;;;;;;;;;;;
"abi10";"1994";;"Windows 7";"Rachel's Experiment (D.T.)";"1.0";"2";"1";"1";"2";"1";"1";"2014-10-07 10:00:11.188";"2014-10-07 10:13:06.446";"1";"0";"1";"32";"31";"module.training_block1.exec-1005.GoNoGo1";;;;;;;;;;;;;;;;;;;;;;;"1257";"2014-10-07 10:02:54.348";"NST_correctLoc";"12";"0";"FINISHED";"LEFT";"success";"605";"0";"2014-10-07 10:02:53.085";"2";;;;;;;;;;;;;;;;;;;;;;;;;;;;;;;;;;;;;;;;;;;;;;;;;;;;;;;;;
"abi10";"1994";;"Windows 7";"Rachel's Experiment (D.T.)";"1.0";"2";"1";"1";"2";"1";"1";"2014-10-07 10:00:11.188";"2014-10-07 10:13:06.446";"1";"0";"1";"33";"32";"module.training_block1.exec-1005.GoNoGo1";;;;;;;;;;;;;;;;;;;;;;;"1258";"2014-10-07 10:02:56.891";"NST_correctLoc";"25";"0";"FINISHED";"LEFT";"success";"518";"0";"2014-10-07 10:02:55.627";"3";;;;;;;;;;;;;;;;;;;;;;;;;;;;;;;;;;;;;;;;;;;;;;;;;;;;;;;;;
"abi10";"1994";;"Windows 7";"Rachel's Experiment (D.T.)";"1.0";"2";"1";"1";"2";"1";"1";"2014-10-07 10:00:11.188";"2014-10-07 10:13:06.446";"1";"0";"1";"34";"33";"module.training_block1.exec-1005.GoNoGo1";;;;;;;;;;;;;;;;;;;;;;;"1258";"2014-10-07 10:02:59.434";"ST_correctStop";"22";"1";"FINISHED";"NONE";"success";"0";"1";"2014-10-07 10:02:58.170";"3";;;;;;;;;;;;;;;;;;;;;;;;;;;;;;;;;;;;;;;;;;;;;;;;;;;;;;;;;
"abi10";"1994";;"Windows 7";"Rachel's Experiment (D.T.)";"1.0";"2";"1";"1";"2";"1";"1";"2014-10-07 10:00:11.188";"2014-10-07 10:13:06.446";"1";"0";"1";"35";"34";"module.training_block1.exec-1005.GoNoGo1";;;;;;;;;;;;;;;;;;;;;;;"1258";"2014-10-07 10:03:01.977";"NST_correctLoc";"20";"0";"FINISHED";"LEFT";"success";"529";"0";"2014-10-07 10:03:00.713";"3";;;;;;;;;;;;;;;;;;;;;;;;;;;;;;;;;;;;;;;;;;;;;;;;;;;;;;;;;
"abi10";"1994";;"Windows 7";"Rachel's Experiment (D.T.)";"1.0";"2";"1";"1";"2";"1";"1";"2014-10-07 10:00:11.188";"2014-10-07 10:13:06.446";"1";"0";"1";"36";"35";"module.training_block1.exec-1005.GoNoGo1";;;;;;;;;;;;;;;;;;;;;;;"1261";"2014-10-07 10:03:04.519";"ST_correctStop";"30";"1";"FINISHED";"NONE";"success";"0";"1";"2014-10-07 10:03:03.256";"3";;;;;;;;;;;;;;;;;;;;;;;;;;;;;;;;;;;;;;;;;;;;;;;;;;;;;;;;;
"abi10";"1994";;"Windows 7";"Rachel's Experiment (D.T.)";"1.0";"2";"1";"1";"2";"1";"1";"2014-10-07 10:00:11.188";"2014-10-07 10:13:06.446";"1";"0";"1";"37";"36";"module.training_block1.exec-1005.GoNoGo1";;;;;;;;;;;;;;;;;;;;;;;"1257";"2014-10-07 10:03:07.062";"NST_correctLoc";"17";"1";"FINISHED";"RIGHT";"success";"506";"0";"2014-10-07 10:03:05.799";"2";;;;;;;;;;;;;;;;;;;;;;;;;;;;;;;;;;;;;;;;;;;;;;;;;;;;;;;;;
"abi10";"1994";;"Windows 7";"Rachel's Experiment (D.T.)";"1.0";"2";"1";"1";"2";"1";"1";"2014-10-07 10:00:11.188";"2014-10-07 10:13:06.446";"1";"0";"1";"38";"37";"module.training_block1.exec-1005.GoNoGo1";;;;;;;;;;;;;;;;;;;;;;;"1258";"2014-10-07 10:03:09.605";"ST_correctStop";"1";"1";"FINISHED";"NONE";"success";"0";"1";"2014-10-07 10:03:08.341";"1";;;;;;;;;;;;;;;;;;;;;;;;;;;;;;;;;;;;;;;;;;;;;;;;;;;;;;;;;
"abi10";"1994";;"Windows 7";"Rachel's Experiment (D.T.)";"1.0";"2";"1";"1";"2";"1";"1";"2014-10-07 10:00:11.188";"2014-10-07 10:13:06.446";"1";"0";"1";"39";"38";"module.training_block1.exec-1005.GoNoGo1";;;;;;;;;;;;;;;;;;;;;;;"1257";"2014-10-07 10:03:12.148";"NST_correctLoc";"32";"1";"FINISHED";"RIGHT";"success";"476";"0";"2014-10-07 10:03:10.884";"3";;;;;;;;;;;;;;;;;;;;;;;;;;;;;;;;;;;;;;;;;;;;;;;;;;;;;;;;;
"abi10";"1994";;"Windows 7";"Rachel's Experiment (D.T.)";"1.0";"2";"1";"1";"2";"1";"1";"2014-10-07 10:00:11.188";"2014-10-07 10:13:06.446";"1";"0";"1";"40";"39";"module.training_block1.exec-1005.GoNoGo1";;;;;;;;;;;;;;;;;;;;;;;"1258";"2014-10-07 10:03:14.691";"NST_correctLoc";"10";"1";"FINISHED";"RIGHT";"success";"502";"0";"2014-10-07 10:03:13.427";"2";;;;;;;;;;;;;;;;;;;;;;;;;;;;;;;;;;;;;;;;;;;;;;;;;;;;;;;;;
"abi10";"1994";;"Windows 7";"Rachel's Experiment (D.T.)";"1.0";"2";"1";"1";"2";"1";"1";"2014-10-07 10:00:11.188";"2014-10-07 10:13:06.446";"1";"0";"1";"41";"40";"module.training_block1.exec-1005.GoNoGo1";;;;;;;;;;;;;;;;;;;;;;;"1258";"2014-10-07 10:03:17.233";"NST_correctLoc";"9";"0";"FINISHED";"LEFT";"success";"631";"0";"2014-10-07 10:03:15.970";"2";;;;;;;;;;;;;;;;;;;;;;;;;;;;;;;;;;;;;;;;;;;;;;;;;;;;;;;;;
"abi10";"1994";;"Windows 7";"Rachel's Experiment (D.T.)";"1.0";"2";"1";"1";"2";"1";"1";"2014-10-07 10:00:11.188";"2014-10-07 10:13:06.446";"1";"0";"1";"42";"41";"module.training_block1.exec-1005.GoNoGo1";;;;;;;;;;;;;;;;;;;;;;;"1258";"2014-10-07 10:03:19.776";"NST_correctLoc";"11";"1";"FINISHED";"RIGHT";"success";"553";"0";"2014-10-07 10:03:18.513";"2";;;;;;;;;;;;;;;;;;;;;;;;;;;;;;;;;;;;;;;;;;;;;;;;;;;;;;;;;
"abi10";"1994";;"Windows 7";"Rachel's Experiment (D.T.)";"1.0";"2";"1";"1";"2";"1";"1";"2014-10-07 10:00:11.188";"2014-10-07 10:13:06.446";"1";"0";"1";"43";"42";"module.training_block1.exec-1005.GoNoGo1";;;;;;;;;;;;;;;;;;;;;;;"1261";"2014-10-07 10:03:22.319";"ST_correctStop";"6";"1";"FINISHED";"NONE";"success";"0";"1";"2014-10-07 10:03:21.055";"1";;;;;;;;;;;;;;;;;;;;;;;;;;;;;;;;;;;;;;;;;;;;;;;;;;;;;;;;;
"abi10";"1994";;"Windows 7";"Rachel's Experiment (D.T.)";"1.0";"2";"1";"1";"2";"1";"1";"2014-10-07 10:00:11.188";"2014-10-07 10:13:06.446";"1";"0";"1";"44";"43";"module.training_block1.exec-1005.GoNoGo1";;;;;;;;;;;;;;;;;;;;;;;"1258";"2014-10-07 10:03:24.862";"ST_correctStop";"35";"1";"FINISHED";"NONE";"success";"0";"1";"2014-10-07 10:03:23.598";"3";;;;;;;;;;;;;;;;;;;;;;;;;;;;;;;;;;;;;;;;;;;;;;;;;;;;;;;;;
"abi10";"1994";;"Windows 7";"Rachel's Experiment (D.T.)";"1.0";"2";"1";"1";"2";"1";"1";"2014-10-07 10:00:11.188";"2014-10-07 10:13:06.446";"1";"0";"1";"45";"44";"module.training_block1.exec-1005.GoNoGo1";;;;;;;;;;;;;;;;;;;;;;;"1261";"2014-10-07 10:03:27.405";"NST_correctLoc";"13";"1";"FINISHED";"RIGHT";"success";"496";"0";"2014-10-07 10:03:26.141";"2";;;;;;;;;;;;;;;;;;;;;;;;;;;;;;;;;;;;;;;;;;;;;;;;;;;;;;;;;
"abi10";"1994";;"Windows 7";"Rachel's Experiment (D.T.)";"1.0";"2";"1";"1";"2";"1";"1";"2014-10-07 10:00:11.188";"2014-10-07 10:13:06.446";"1";"0";"1";"46";"45";"module.training_block1.exec-1005.GoNoGo1";;;;;;;;;;;;;;;;;;;;;;;"1257";"2014-10-07 10:03:29.947";"NST_correctLoc";"19";"1";"FINISHED";"RIGHT";"success";"621";"0";"2014-10-07 10:03:28.684";"3";;;;;;;;;;;;;;;;;;;;;;;;;;;;;;;;;;;;;;;;;;;;;;;;;;;;;;;;;
"abi10";"1994";;"Windows 7";"Rachel's Experiment (D.T.)";"1.0";"2";"1";"1";"2";"1";"1";"2014-10-07 10:00:11.188";"2014-10-07 10:13:06.446";"1";"0";"1";"47";"46";"module.training_block1.exec-1005.GoNoGo1";;;;;;;;;;;;;;;;;;;;;;;"1257";"2014-10-07 10:03:32.490";"ST_correctStop";"8";"0";"FINISHED";"NONE";"success";"0";"1";"2014-10-07 10:03:31.227";"1";;;;;;;;;;;;;;;;;;;;;;;;;;;;;;;;;;;;;;;;;;;;;;;;;;;;;;;;;
"abi10";"1994";;"Windows 7";"Rachel's Experiment (D.T.)";"1.0";"2";"1";"1";"2";"1";"1";"2014-10-07 10:00:11.188";"2014-10-07 10:13:06.446";"1";"0";"1";"48";"47";"module.training_block1.exec-1005.GoNoGo1";;;;;;;;;;;;;;;;;;;;;;;"1257";"2014-10-07 10:03:35.033";"NST_correctLoc";"15";"0";"FINISHED";"LEFT";"success";"543";"0";"2014-10-07 10:03:33.769";"2";;;;;;;;;;;;;;;;;;;;;;;;;;;;;;;;;;;;;;;;;;;;;;;;;;;;;;;;;
"abi10";"1994";;"Windows 7";"Rachel's Experiment (D.T.)";"1.0";"2";"1";"1";"2";"1";"1";"2014-10-07 10:00:11.188";"2014-10-07 10:13:06.446";"1";"0";"1";"49";"48";"module.training_block1.exec-1005.GoNoGo1";;;;;;;;;;;;;;;;;;;;;;;"1258";"2014-10-07 10:03:37.576";"ST_correctStop";"31";"0";"FINISHED";"NONE";"success";"0";"1";"2014-10-07 10:03:36.312";"3";;;;;;;;;;;;;;;;;;;;;;;;;;;;;;;;;;;;;;;;;;;;;;;;;;;;;;;;;
"abi10";"1994";;"Windows 7";"Rachel's Experiment (D.T.)";"1.0";"2";"1";"1";"2";"1";"1";"2014-10-07 10:00:11.188";"2014-10-07 10:13:06.446";"1";"0";"1";"50";"49";"module.training_block1.exec-1005.GoNoGo1";;;;;;;;;;;;;;;;;;;;;;;"1258";"2014-10-07 10:03:40.119";"NST_correctLoc";"29";"0";"FINISHED";"LEFT";"success";"586";"0";"2014-10-07 10:03:38.855";"3";;;;;;;;;;;;;;;;;;;;;;;;;;;;;;;;;;;;;;;;;;;;;;;;;;;;;;;;;
"abi10";"1994";;"Windows 7";"Rachel's Experiment (D.T.)";"1.0";"2";"1";"1";"2";"1";"1";"2014-10-07 10:00:11.188";"2014-10-07 10:13:06.446";"1";"0";"1";"51";"50";"module.training_block1.exec-1005.GoNoGo1";;;;;;;;;;;;;;;;;;;;;;;"1257";"2014-10-07 10:03:42.662";"NST_correctLoc";"16";"0";"FINISHED";"LEFT";"success";"539";"0";"2014-10-07 10:03:41.398";"2";;;;;;;;;;;;;;;;;;;;;;;;;;;;;;;;;;;;;;;;;;;;;;;;;;;;;;;;;
"abi10";"1994";;"Windows 7";"Rachel's Experiment (D.T.)";"1.0";"2";"1";"1";"2";"1";"1";"2014-10-07 10:00:11.188";"2014-10-07 10:13:06.446";"1";"0";"1";"52";"51";"module.training_block2.exec-5780.GoNoGo2";;;;;;;;;;;;;;;;;;;;;;;;;;;;;;;;;;;"1261";"2014-10-07 10:03:54.050";"NST_correctLoc";"17";"0";"FINISHED";"LEFT";"success";"531";"0";"2014-10-07 10:03:52.786";"2";;;;;;;;;;;;;;;;;;;;;;;;;;;;;;;;;;;;;;;;;;;;;
"abi10";"1994";;"Windows 7";"Rachel's Experiment (D.T.)";"1.0";"2";"1";"1";"2";"1";"1";"2014-10-07 10:00:11.188";"2014-10-07 10:13:06.446";"1";"0";"1";"53";"52";"module.training_block2.exec-5780.GoNoGo2";;;;;;;;;;;;;;;;;;;;;;;;;;;;;;;;;;;"1261";"2014-10-07 10:03:56.592";"NST_correctLoc";"12";"0";"FINISHED";"LEFT";"success";"524";"0";"2014-10-07 10:03:55.329";"2";;;;;;;;;;;;;;;;;;;;;;;;;;;;;;;;;;;;;;;;;;;;;
"abi10";"1994";;"Windows 7";"Rachel's Experiment (D.T.)";"1.0";"2";"1";"1";"2";"1";"1";"2014-10-07 10:00:11.188";"2014-10-07 10:13:06.446";"1";"0";"1";"54";"53";"module.training_block2.exec-5780.GoNoGo2";;;;;;;;;;;;;;;;;;;;;;;;;;;;;;;;;;;"1261";"2014-10-07 10:03:59.135";"NST_correctLoc";"16";"0";"FINISHED";"LEFT";"success";"549";"0";"2014-10-07 10:03:57.872";"2";;;;;;;;;;;;;;;;;;;;;;;;;;;;;;;;;;;;;;;;;;;;;
"abi10";"1994";;"Windows 7";"Rachel's Experiment (D.T.)";"1.0";"2";"1";"1";"2";"1";"1";"2014-10-07 10:00:11.188";"2014-10-07 10:13:06.446";"1";"0";"1";"55";"54";"module.training_block2.exec-5780.GoNoGo2";;;;;;;;;;;;;;;;;;;;;;;;;;;;;;;;;;;"1261";"2014-10-07 10:04:01.678";"NST_correctLoc";"10";"0";"FINISHED";"LEFT";"success";"654";"0";"2014-10-07 10:04:00.414";"2";;;;;;;;;;;;;;;;;;;;;;;;;;;;;;;;;;;;;;;;;;;;;
"abi10";"1994";;"Windows 7";"Rachel's Experiment (D.T.)";"1.0";"2";"1";"1";"2";"1";"1";"2014-10-07 10:00:11.188";"2014-10-07 10:13:06.446";"1";"0";"1";"56";"55";"module.training_block2.exec-5780.GoNoGo2";;;;;;;;;;;;;;;;;;;;;;;;;;;;;;;;;;;"1261";"2014-10-07 10:04:04.221";"NST_correctLoc";"15";"0";"FINISHED";"LEFT";"success";"752";"0";"2014-10-07 10:04:02.957";"2";;;;;;;;;;;;;;;;;;;;;;;;;;;;;;;;;;;;;;;;;;;;;
"abi10";"1994";;"Windows 7";"Rachel's Experiment (D.T.)";"1.0";"2";"1";"1";"2";"1";"1";"2014-10-07 10:00:11.188";"2014-10-07 10:13:06.446";"1";"0";"1";"57";"56";"module.training_block2.exec-5780.GoNoGo2";;;;;;;;;;;;;;;;;;;;;;;;;;;;;;;;;;;"1261";"2014-10-07 10:04:06.764";"ST_correctStop";"3";"1";"FINISHED";"NONE";"success";"0";"1";"2014-10-07 10:04:05.500";"1";;;;;;;;;;;;;;;;;;;;;;;;;;;;;;;;;;;;;;;;;;;;;
"abi10";"1994";;"Windows 7";"Rachel's Experiment (D.T.)";"1.0";"2";"1";"1";"2";"1";"1";"2014-10-07 10:00:11.188";"2014-10-07 10:13:06.446";"1";"0";"1";"58";"57";"module.training_block2.exec-5780.GoNoGo2";;;;;;;;;;;;;;;;;;;;;;;;;;;;;;;;;;;"1261";"2014-10-07 10:04:09.306";"NST_correctLoc";"33";"0";"FINISHED";"LEFT";"success";"410";"0";"2014-10-07 10:04:08.043";"3";;;;;;;;;;;;;;;;;;;;;;;;;;;;;;;;;;;;;;;;;;;;;
"abi10";"1994";;"Windows 7";"Rachel's Experiment (D.T.)";"1.0";"2";"1";"1";"2";"1";"1";"2014-10-07 10:00:11.188";"2014-10-07 10:13:06.446";"1";"0";"1";"59";"58";"module.training_block2.exec-5780.GoNoGo2";;;;;;;;;;;;;;;;;;;;;;;;;;;;;;;;;;;"1261";"2014-10-07 10:04:11.896";"NST_correctLoc";"9";"1";"FINISHED";"RIGHT";"success";"548";"0";"2014-10-07 10:04:10.632";"2";;;;;;;;;;;;;;;;;;;;;;;;;;;;;;;;;;;;;;;;;;;;;
"abi10";"1994";;"Windows 7";"Rachel's Experiment (D.T.)";"1.0";"2";"1";"1";"2";"1";"1";"2014-10-07 10:00:11.188";"2014-10-07 10:13:06.446";"1";"0";"1";"60";"59";"module.training_block2.exec-5780.GoNoGo2";;;;;;;;;;;;;;;;;;;;;;;;;;;;;;;;;;;"1261";"2014-10-07 10:04:14.439";"ST_correctStop";"6";"1";"FINISHED";"NONE";"success";"0";"1";"2014-10-07 10:04:13.175";"1";;;;;;;;;;;;;;;;;;;;;;;;;;;;;;;;;;;;;;;;;;;;;
"abi10";"1994";;"Windows 7";"Rachel's Experiment (D.T.)";"1.0";"2";"1";"1";"2";"1";"1";"2014-10-07 10:00:11.188";"2014-10-07 10:13:06.446";"1";"0";"1";"61";"60";"module.training_block2.exec-5780.GoNoGo2";;;;;;;;;;;;;;;;;;;;;;;;;;;;;;;;;;;"1261";"2014-10-07 10:04:16.982";"ST_correctStop";"34";"1";"FINISHED";"NONE";"success";"0";"1";"2014-10-07 10:04:15.718";"3";;;;;;;;;;;;;;;;;;;;;;;;;;;;;;;;;;;;;;;;;;;;;
"abi10";"1994";;"Windows 7";"Rachel's Experiment (D.T.)";"1.0";"2";"1";"1";"2";"1";"1";"2014-10-07 10:00:11.188";"2014-10-07 10:13:06.446";"1";"0";"1";"62";"61";"module.training_block2.exec-5780.GoNoGo2";;;;;;;;;;;;;;;;;;;;;;;;;;;;;;;;;;;"1261";"2014-10-07 10:04:19.524";"ST_correctStop";"19";"1";"FINISHED";"NONE";"success";"0";"1";"2014-10-07 10:04:18.261";"3";;;;;;;;;;;;;;;;;;;;;;;;;;;;;;;;;;;;;;;;;;;;;
"abi10";"1994";;"Windows 7";"Rachel's Experiment (D.T.)";"1.0";"2";"1";"1";"2";"1";"1";"2014-10-07 10:00:11.188";"2014-10-07 10:13:06.446";"1";"0";"1";"63";"62";"module.training_block2.exec-5780.GoNoGo2";;;;;;;;;;;;;;;;;;;;;;;;;;;;;;;;;;;"1261";"2014-10-07 10:04:22.067";"ST_correctStop";"21";"0";"FINISHED";"NONE";"success";"0";"1";"2014-10-07 10:04:20.804";"3";;;;;;;;;;;;;;;;;;;;;;;;;;;;;;;;;;;;;;;;;;;;;
"abi10";"1994";;"Windows 7";"Rachel's Experiment (D.T.)";"1.0";"2";"1";"1";"2";"1";"1";"2014-10-07 10:00:11.188";"2014-10-07 10:13:06.446";"1";"0";"1";"64";"63";"module.training_block2.exec-5780.GoNoGo2";;;;;;;;;;;;;;;;;;;;;;;;;;;;;;;;;;;"1261";"2014-10-07 10:04:24.610";"NST_correctLoc";"26";"0";"FINISHED";"LEFT";"success";"586";"0";"2014-10-07 10:04:23.346";"3";;;;;;;;;;;;;;;;;;;;;;;;;;;;;;;;;;;;;;;;;;;;;
"abi10";"1994";;"Windows 7";"Rachel's Experiment (D.T.)";"1.0";"2";"1";"1";"2";"1";"1";"2014-10-07 10:00:11.188";"2014-10-07 10:13:06.446";"1";"0";"1";"65";"64";"module.training_block2.exec-5780.GoNoGo2";;;;;;;;;;;;;;;;;;;;;;;;;;;;;;;;;;;"1261";"2014-10-07 10:04:27.153";"ST_correctStop";"1";"1";"FINISHED";"NONE";"success";"0";"1";"2014-10-07 10:04:25.889";"1";;;;;;;;;;;;;;;;;;;;;;;;;;;;;;;;;;;;;;;;;;;;;
"abi10";"1994";;"Windows 7";"Rachel's Experiment (D.T.)";"1.0";"2";"1";"1";"2";"1";"1";"2014-10-07 10:00:11.188";"2014-10-07 10:13:06.446";"1";"0";"1";"66";"65";"module.training_block2.exec-5780.GoNoGo2";;;;;;;;;;;;;;;;;;;;;;;;;;;;;;;;;;;"1261";"2014-10-07 10:04:29.696";"ST_correctStop";"32";"1";"FINISHED";"NONE";"success";"0";"1";"2014-10-07 10:04:28.432";"3";;;;;;;;;;;;;;;;;;;;;;;;;;;;;;;;;;;;;;;;;;;;;
"abi10";"1994";;"Windows 7";"Rachel's Experiment (D.T.)";"1.0";"2";"1";"1";"2";"1";"1";"2014-10-07 10:00:11.188";"2014-10-07 10:13:06.446";"1";"0";"1";"67";"66";"module.training_block2.exec-5780.GoNoGo2";;;;;;;;;;;;;;;;;;;;;;;;;;;;;;;;;;;"1261";"2014-10-07 10:04:32.238";"ST_correctStop";"4";"1";"FINISHED";"NONE";"success";"0";"1";"2014-10-07 10:04:30.975";"1";;;;;;;;;;;;;;;;;;;;;;;;;;;;;;;;;;;;;;;;;;;;;
"abi10";"1994";;"Windows 7";"Rachel's Experiment (D.T.)";"1.0";"2";"1";"1";"2";"1";"1";"2014-10-07 10:00:11.188";"2014-10-07 10:13:06.446";"1";"0";"1";"68";"67";"module.training_block2.exec-5780.GoNoGo2";;;;;;;;;;;;;;;;;;;;;;;;;;;;;;;;;;;"1261";"2014-10-07 10:04:34.781";"NST_correctLoc";"11";"1";"FINISHED";"RIGHT";"success";"455";"0";"2014-10-07 10:04:33.518";"2";;;;;;;;;;;;;;;;;;;;;;;;;;;;;;;;;;;;;;;;;;;;;
"abi10";"1994";;"Windows 7";"Rachel's Experiment (D.T.)";"1.0";"2";"1";"1";"2";"1";"1";"2014-10-07 10:00:11.188";"2014-10-07 10:13:06.446";"1";"0";"1";"69";"68";"module.training_block2.exec-5780.GoNoGo2";;;;;;;;;;;;;;;;;;;;;;;;;;;;;;;;;;;"1261";"2014-10-07 10:04:37.324";"ST_correctStop";"23";"1";"FINISHED";"NONE";"success";"0";"1";"2014-10-07 10:04:36.060";"3";;;;;;;;;;;;;;;;;;;;;;;;;;;;;;;;;;;;;;;;;;;;;
"abi10";"1994";;"Windows 7";"Rachel's Experiment (D.T.)";"1.0";"2";"1";"1";"2";"1";"1";"2014-10-07 10:00:11.188";"2014-10-07 10:13:06.446";"1";"0";"1";"70";"69";"module.training_block2.exec-5780.GoNoGo2";;;;;;;;;;;;;;;;;;;;;;;;;;;;;;;;;;;"1261";"2014-10-07 10:04:39.867";"NST_correctLoc";"13";"1";"FINISHED";"RIGHT";"success";"673";"0";"2014-10-07 10:04:38.603";"2";;;;;;;;;;;;;;;;;;;;;;;;;;;;;;;;;;;;;;;;;;;;;
"abi10";"1994";;"Windows 7";"Rachel's Experiment (D.T.)";"1.0";"2";"1";"1";"2";"1";"1";"2014-10-07 10:00:11.188";"2014-10-07 10:13:06.446";"1";"0";"1";"71";"70";"module.training_block2.exec-5780.GoNoGo2";;;;;;;;;;;;;;;;;;;;;;;;;;;;;;;;;;;"1261";"2014-10-07 10:04:42.410";"ST_correctStop";"20";"0";"FINISHED";"NONE";"success";"0";"1";"2014-10-07 10:04:41.146";"3";;;;;;;;;;;;;;;;;;;;;;;;;;;;;;;;;;;;;;;;;;;;;
"abi10";"1994";;"Windows 7";"Rachel's Experiment (D.T.)";"1.0";"2";"1";"1";"2";"1";"1";"2014-10-07 10:00:11.188";"2014-10-07 10:13:06.446";"1";"0";"1";"72";"71";"module.training_block2.exec-5780.GoNoGo2";;;;;;;;;;;;;;;;;;;;;;;;;;;;;;;;;;;"1261";"2014-10-07 10:04:44.952";"ST_correctStop";"24";"1";"FINISHED";"NONE";"success";"0";"1";"2014-10-07 10:04:43.689";"3";;;;;;;;;;;;;;;;;;;;;;;;;;;;;;;;;;;;;;;;;;;;;
"abi10";"1994";;"Windows 7";"Rachel's Experiment (D.T.)";"1.0";"2";"1";"1";"2";"1";"1";"2014-10-07 10:00:11.188";"2014-10-07 10:13:06.446";"1";"0";"1";"73";"72";"module.training_block2.exec-5780.GoNoGo2";;;;;;;;;;;;;;;;;;;;;;;;;;;;;;;;;;;"1261";"2014-10-07 10:04:47.495";"ST_correctStop";"0";"1";"FINISHED";"NONE";"success";"0";"1";"2014-10-07 10:04:46.232";"1";;;;;;;;;;;;;;;;;;;;;;;;;;;;;;;;;;;;;;;;;;;;;
"abi10";"1994";;"Windows 7";"Rachel's Experiment (D.T.)";"1.0";"2";"1";"1";"2";"1";"1";"2014-10-07 10:00:11.188";"2014-10-07 10:13:06.446";"1";"0";"1";"74";"73";"module.training_block2.exec-5780.GoNoGo2";;;;;;;;;;;;;;;;;;;;;;;;;;;;;;;;;;;"1261";"2014-10-07 10:04:50.038";"NST_correctLoc";"25";"1";"FINISHED";"RIGHT";"success";"454";"0";"2014-10-07 10:04:48.774";"3";;;;;;;;;;;;;;;;;;;;;;;;;;;;;;;;;;;;;;;;;;;;;
"abi10";"1994";;"Windows 7";"Rachel's Experiment (D.T.)";"1.0";"2";"1";"1";"2";"1";"1";"2014-10-07 10:00:11.188";"2014-10-07 10:13:06.446";"1";"0";"1";"75";"74";"module.training_block2.exec-5780.GoNoGo2";;;;;;;;;;;;;;;;;;;;;;;;;;;;;;;;;;;"1261";"2014-10-07 10:04:52.581";"NST_correctLoc";"29";"1";"FINISHED";"RIGHT";"success";"655";"0";"2014-10-07 10:04:51.317";"3";;;;;;;;;;;;;;;;;;;;;;;;;;;;;;;;;;;;;;;;;;;;;
"abi10";"1994";;"Windows 7";"Rachel's Experiment (D.T.)";"1.0";"2";"1";"1";"2";"1";"1";"2014-10-07 10:00:11.188";"2014-10-07 10:13:06.446";"1";"0";"1";"76";"75";"module.training_block2.exec-5780.GoNoGo2";;;;;;;;;;;;;;;;;;;;;;;;;;;;;;;;;;;"1261";"2014-10-07 10:04:55.124";"NST_correctLoc";"18";"1";"FINISHED";"RIGHT";"success";"824";"0";"2014-10-07 10:04:53.860";"3";;;;;;;;;;;;;;;;;;;;;;;;;;;;;;;;;;;;;;;;;;;;;
"abi10";"1994";;"Windows 7";"Rachel's Experiment (D.T.)";"1.0";"2";"1";"1";"2";"1";"1";"2014-10-07 10:00:11.188";"2014-10-07 10:13:06.446";"1";"0";"1";"77";"76";"module.training_block2.exec-5780.GoNoGo2";;;;;;;;;;;;;;;;;;;;;;;;;;;;;;;;;;;"1261";"2014-10-07 10:04:57.666";"ST_correctStop";"22";"0";"FINISHED";"NONE";"success";"0";"1";"2014-10-07 10:04:56.403";"3";;;;;;;;;;;;;;;;;;;;;;;;;;;;;;;;;;;;;;;;;;;;;
"abi10";"1994";;"Windows 7";"Rachel's Experiment (D.T.)";"1.0";"2";"1";"1";"2";"1";"1";"2014-10-07 10:00:11.188";"2014-10-07 10:13:06.446";"1";"0";"1";"78";"77";"module.training_block2.exec-5780.GoNoGo2";;;;;;;;;;;;;;;;;;;;;;;;;;;;;;;;;;;"1262";"2014-10-07 10:05:00.225";"NST_correctLoc";"35";"1";"FINISHED";"RIGHT";"success";"483";"0";"2014-10-07 10:04:58.961";"3";;;;;;;;;;;;;;;;;;;;;;;;;;;;;;;;;;;;;;;;;;;;;
"abi10";"1994";;"Windows 7";"Rachel's Experiment (D.T.)";"1.0";"2";"1";"1";"2";"1";"1";"2014-10-07 10:00:11.188";"2014-10-07 10:13:06.446";"1";"0";"1";"79";"78";"module.training_block2.exec-5780.GoNoGo2";;;;;;;;;;;;;;;;;;;;;;;;;;;;;;;;;;;"1261";"2014-10-07 10:05:02.768";"ST_correctStop";"2";"1";"FINISHED";"NONE";"success";"0";"1";"2014-10-07 10:05:01.504";"1";;;;;;;;;;;;;;;;;;;;;;;;;;;;;;;;;;;;;;;;;;;;;
"abi10";"1994";;"Windows 7";"Rachel's Experiment (D.T.)";"1.0";"2";"1";"1";"2";"1";"1";"2014-10-07 10:00:11.188";"2014-10-07 10:13:06.446";"1";"0";"1";"80";"79";"module.training_block2.exec-5780.GoNoGo2";;;;;;;;;;;;;;;;;;;;;;;;;;;;;;;;;;;"1261";"2014-10-07 10:05:05.310";"NST_correctLoc";"31";"1";"FINISHED";"RIGHT";"success";"613";"0";"2014-10-07 10:05:04.047";"3";;;;;;;;;;;;;;;;;;;;;;;;;;;;;;;;;;;;;;;;;;;;;
"abi10";"1994";;"Windows 7";"Rachel's Experiment (D.T.)";"1.0";"2";"1";"1";"2";"1";"1";"2014-10-07 10:00:11.188";"2014-10-07 10:13:06.446";"1";"0";"1";"81";"80";"module.training_block2.exec-5780.GoNoGo2";;;;;;;;;;;;;;;;;;;;;;;;;;;;;;;;;;;"1261";"2014-10-07 10:05:07.853";"NST_correctLoc";"27";"1";"FINISHED";"RIGHT";"success";"551";"0";"2014-10-07 10:05:06.590";"3";;;;;;;;;;;;;;;;;;;;;;;;;;;;;;;;;;;;;;;;;;;;;
"abi10";"1994";;"Windows 7";"Rachel's Experiment (D.T.)";"1.0";"2";"1";"1";"2";"1";"1";"2014-10-07 10:00:11.188";"2014-10-07 10:13:06.446";"1";"0";"1";"82";"81";"module.training_block2.exec-5780.GoNoGo2";;;;;;;;;;;;;;;;;;;;;;;;;;;;;;;;;;;"1261";"2014-10-07 10:05:10.396";"ST_correctStop";"7";"0";"FINISHED";"NONE";"success";"0";"1";"2014-10-07 10:05:09.132";"1";;;;;;;;;;;;;;;;;;;;;;;;;;;;;;;;;;;;;;;;;;;;;
"abi10";"1994";;"Windows 7";"Rachel's Experiment (D.T.)";"1.0";"2";"1";"1";"2";"1";"1";"2014-10-07 10:00:11.188";"2014-10-07 10:13:06.446";"1";"0";"1";"83";"82";"module.training_block2.exec-5780.GoNoGo2";;;;;;;;;;;;;;;;;;;;;;;;;;;;;;;;;;;"1261";"2014-10-07 10:05:12.939";"ST_correctStop";"5";"1";"FINISHED";"NONE";"success";"0";"1";"2014-10-07 10:05:11.675";"1";;;;;;;;;;;;;;;;;;;;;;;;;;;;;;;;;;;;;;;;;;;;;
"abi10";"1994";;"Windows 7";"Rachel's Experiment (D.T.)";"1.0";"2";"1";"1";"2";"1";"1";"2014-10-07 10:00:11.188";"2014-10-07 10:13:06.446";"1";"0";"1";"84";"83";"module.training_block2.exec-5780.GoNoGo2";;;;;;;;;;;;;;;;;;;;;;;;;;;;;;;;;;;"1261";"2014-10-07 10:05:15.482";"ST_correctStop";"28";"1";"FINISHED";"NONE";"success";"0";"1";"2014-10-07 10:05:14.218";"3";;;;;;;;;;;;;;;;;;;;;;;;;;;;;;;;;;;;;;;;;;;;;
"abi10";"1994";;"Windows 7";"Rachel's Experiment (D.T.)";"1.0";"2";"1";"1";"2";"1";"1";"2014-10-07 10:00:11.188";"2014-10-07 10:13:06.446";"1";"0";"1";"85";"84";"module.training_block2.exec-5780.GoNoGo2";;;;;;;;;;;;;;;;;;;;;;;;;;;;;;;;;;;"1261";"2014-10-07 10:05:18.024";"ST_correctStop";"8";"0";"FINISHED";"NONE";"success";"0";"1";"2014-10-07 10:05:16.761";"1";;;;;;;;;;;;;;;;;;;;;;;;;;;;;;;;;;;;;;;;;;;;;
"abi10";"1994";;"Windows 7";"Rachel's Experiment (D.T.)";"1.0";"2";"1";"1";"2";"1";"1";"2014-10-07 10:00:11.188";"2014-10-07 10:13:06.446";"1";"0";"1";"86";"85";"module.training_block2.exec-5780.GoNoGo2";;;;;;;;;;;;;;;;;;;;;;;;;;;;;;;;;;;"1261";"2014-10-07 10:05:20.567";"NST_correctLoc";"14";"1";"FINISHED";"RIGHT";"success";"645";"0";"2014-10-07 10:05:19.304";"2";;;;;;;;;;;;;;;;;;;;;;;;;;;;;;;;;;;;;;;;;;;;;
"abi10";"1994";;"Windows 7";"Rachel's Experiment (D.T.)";"1.0";"2";"1";"1";"2";"1";"1";"2014-10-07 10:00:11.188";"2014-10-07 10:13:06.446";"1";"0";"1";"87";"86";"module.training_block2.exec-5780.GoNoGo2";;;;;;;;;;;;;;;;;;;;;;;;;;;;;;;;;;;"1261";"2014-10-07 10:05:23.110";"NST_correctLoc";"30";"1";"FINISHED";"RIGHT";"success";"590";"0";"2014-10-07 10:05:21.846";"3";;;;;;;;;;;;;;;;;;;;;;;;;;;;;;;;;;;;;;;;;;;;;
"abi10";"1994";;"Windows 7";"Rachel's Experiment (D.T.)";"1.0";"2";"1";"1";"2";"1";"1";"2014-10-07 10:00:11.188";"2014-10-07 10:13:06.446";"1";"0";"1";"88";"87";"module.training_block3.exec-4515.GoNoGo3";;;;;;;;;;;;;;;;;;;;;;;;;;;;;;;;;;;;;;;;;;;;;;;"1261";"2014-10-07 10:05:33.359";"NST_correctLoc";"9";"1";"FINISHED";"RIGHT";"success";"652";"0";"2014-10-07 10:05:32.096";"2";;;;;;;;;;;;;;;;;;;;;;;;;;;;;;;;;
"abi10";"1994";;"Windows 7";"Rachel's Experiment (D.T.)";"1.0";"2";"1";"1";"2";"1";"1";"2014-10-07 10:00:11.188";"2014-10-07 10:13:06.446";"1";"0";"1";"89";"88";"module.training_block3.exec-4515.GoNoGo3";;;;;;;;;;;;;;;;;;;;;;;;;;;;;;;;;;;;;;;;;;;;;;;"1261";"2014-10-07 10:05:35.902";"ST_correctStop";"2";"1";"FINISHED";"NONE";"success";"0";"1";"2014-10-07 10:05:34.638";"1";;;;;;;;;;;;;;;;;;;;;;;;;;;;;;;;;
"abi10";"1994";;"Windows 7";"Rachel's Experiment (D.T.)";"1.0";"2";"1";"1";"2";"1";"1";"2014-10-07 10:00:11.188";"2014-10-07 10:13:06.446";"1";"0";"1";"90";"89";"module.training_block3.exec-4515.GoNoGo3";;;;;;;;;;;;;;;;;;;;;;;;;;;;;;;;;;;;;;;;;;;;;;;"1261";"2014-10-07 10:05:38.445";"NST_correctLoc";"15";"0";"FINISHED";"LEFT";"success";"607";"0";"2014-10-07 10:05:37.181";"2";;;;;;;;;;;;;;;;;;;;;;;;;;;;;;;;;
"abi10";"1994";;"Windows 7";"Rachel's Experiment (D.T.)";"1.0";"2";"1";"1";"2";"1";"1";"2014-10-07 10:00:11.188";"2014-10-07 10:13:06.446";"1";"0";"1";"91";"90";"module.training_block3.exec-4515.GoNoGo3";;;;;;;;;;;;;;;;;;;;;;;;;;;;;;;;;;;;;;;;;;;;;;;"1261";"2014-10-07 10:05:40.988";"ST_failedStop";"35";"0";"FINISHED";"LEFT";"failure";"520";"1";"2014-10-07 10:05:39.724";"3";;;;;;;;;;;;;;;;;;;;;;;;;;;;;;;;;
"abi10";"1994";;"Windows 7";"Rachel's Experiment (D.T.)";"1.0";"2";"1";"1";"2";"1";"1";"2014-10-07 10:00:11.188";"2014-10-07 10:13:06.446";"1";"0";"1";"92";"91";"module.training_block3.exec-4515.GoNoGo3";;;;;;;;;;;;;;;;;;;;;;;;;;;;;;;;;;;;;;;;;;;;;;;"1261";"2014-10-07 10:05:43.531";"ST_correctStop";"29";"0";"FINISHED";"NONE";"success";"0";"1";"2014-10-07 10:05:42.267";"3";;;;;;;;;;;;;;;;;;;;;;;;;;;;;;;;;
"abi10";"1994";;"Windows 7";"Rachel's Experiment (D.T.)";"1.0";"2";"1";"1";"2";"1";"1";"2014-10-07 10:00:11.188";"2014-10-07 10:13:06.446";"1";"0";"1";"93";"92";"module.training_block3.exec-4515.GoNoGo3";;;;;;;;;;;;;;;;;;;;;;;;;;;;;;;;;;;;;;;;;;;;;;;"1261";"2014-10-07 10:05:46.073";"NST_correctLoc";"17";"1";"FINISHED";"RIGHT";"success";"562";"0";"2014-10-07 10:05:44.810";"2";;;;;;;;;;;;;;;;;;;;;;;;;;;;;;;;;
"abi10";"1994";;"Windows 7";"Rachel's Experiment (D.T.)";"1.0";"2";"1";"1";"2";"1";"1";"2014-10-07 10:00:11.188";"2014-10-07 10:13:06.446";"1";"0";"1";"94";"93";"module.training_block3.exec-4515.GoNoGo3";;;;;;;;;;;;;;;;;;;;;;;;;;;;;;;;;;;;;;;;;;;;;;;"1261";"2014-10-07 10:05:48.616";"NST_correctLoc";"33";"1";"FINISHED";"RIGHT";"success";"564";"0";"2014-10-07 10:05:47.353";"3";;;;;;;;;;;;;;;;;;;;;;;;;;;;;;;;;
"abi10";"1994";;"Windows 7";"Rachel's Experiment (D.T.)";"1.0";"2";"1";"1";"2";"1";"1";"2014-10-07 10:00:11.188";"2014-10-07 10:13:06.446";"1";"0";"1";"95";"94";"module.training_block3.exec-4515.GoNoGo3";;;;;;;;;;;;;;;;;;;;;;;;;;;;;;;;;;;;;;;;;;;;;;;"1261";"2014-10-07 10:05:51.175";"ST_correctStop";"20";"1";"FINISHED";"NONE";"success";"0";"1";"2014-10-07 10:05:49.911";"3";;;;;;;;;;;;;;;;;;;;;;;;;;;;;;;;;
"abi10";"1994";;"Windows 7";"Rachel's Experiment (D.T.)";"1.0";"2";"1";"1";"2";"1";"1";"2014-10-07 10:00:11.188";"2014-10-07 10:13:06.446";"1";"0";"1";"96";"95";"module.training_block3.exec-4515.GoNoGo3";;;;;;;;;;;;;;;;;;;;;;;;;;;;;;;;;;;;;;;;;;;;;;;"1261";"2014-10-07 10:05:53.717";"ST_correctStop";"5";"0";"FINISHED";"NONE";"success";"0";"1";"2014-10-07 10:05:52.454";"1";;;;;;;;;;;;;;;;;;;;;;;;;;;;;;;;;
"abi10";"1994";;"Windows 7";"Rachel's Experiment (D.T.)";"1.0";"2";"1";"1";"2";"1";"1";"2014-10-07 10:00:11.188";"2014-10-07 10:13:06.446";"1";"0";"1";"97";"96";"module.training_block3.exec-4515.GoNoGo3";;;;;;;;;;;;;;;;;;;;;;;;;;;;;;;;;;;;;;;;;;;;;;;"1262";"2014-10-07 10:05:56.260";"NST_correctLoc";"10";"0";"FINISHED";"LEFT";"success";"568";"0";"2014-10-07 10:05:54.997";"2";;;;;;;;;;;;;;;;;;;;;;;;;;;;;;;;;
"abi10";"1994";;"Windows 7";"Rachel's Experiment (D.T.)";"1.0";"2";"1";"1";"2";"1";"1";"2014-10-07 10:00:11.188";"2014-10-07 10:13:06.446";"1";"0";"1";"98";"97";"module.training_block3.exec-4515.GoNoGo3";;;;;;;;;;;;;;;;;;;;;;;;;;;;;;;;;;;;;;;;;;;;;;;"1261";"2014-10-07 10:05:58.803";"ST_correctStop";"1";"1";"FINISHED";"NONE";"success";"0";"1";"2014-10-07 10:05:57.539";"1";;;;;;;;;;;;;;;;;;;;;;;;;;;;;;;;;
"abi10";"1994";;"Windows 7";"Rachel's Experiment (D.T.)";"1.0";"2";"1";"1";"2";"1";"1";"2014-10-07 10:00:11.188";"2014-10-07 10:13:06.446";"1";"0";"1";"99";"98";"module.training_block3.exec-4515.GoNoGo3";;;;;;;;;;;;;;;;;;;;;;;;;;;;;;;;;;;;;;;;;;;;;;;"1261";"2014-10-07 10:06:01.346";"NST_correctLoc";"11";"1";"FINISHED";"RIGHT";"success";"690";"0";"2014-10-07 10:06:00.082";"2";;;;;;;;;;;;;;;;;;;;;;;;;;;;;;;;;
"abi10";"1994";;"Windows 7";"Rachel's Experiment (D.T.)";"1.0";"2";"1";"1";"2";"1";"1";"2014-10-07 10:00:11.188";"2014-10-07 10:13:06.446";"1";"0";"1";"100";"99";"module.training_block3.exec-4515.GoNoGo3";;;;;;;;;;;;;;;;;;;;;;;;;;;;;;;;;;;;;;;;;;;;;;;"1262";"2014-10-07 10:06:03.889";"ST_correctStop";"3";"1";"FINISHED";"NONE";"success";"0";"1";"2014-10-07 10:06:02.625";"1";;;;;;;;;;;;;;;;;;;;;;;;;;;;;;;;;
"abi10";"1994";;"Windows 7";"Rachel's Experiment (D.T.)";"1.0";"2";"1";"1";"2";"1";"1";"2014-10-07 10:00:11.188";"2014-10-07 10:13:06.446";"1";"0";"1";"101";"100";"module.training_block3.exec-4515.GoNoGo3";;;;;;;;;;;;;;;;;;;;;;;;;;;;;;;;;;;;;;;;;;;;;;;"1261";"2014-10-07 10:06:06.431";"NST_correctLoc";"34";"1";"FINISHED";"RIGHT";"success";"484";"0";"2014-10-07 10:06:05.168";"3";;;;;;;;;;;;;;;;;;;;;;;;;;;;;;;;;
"abi10";"1994";;"Windows 7";"Rachel's Experiment (D.T.)";"1.0";"2";"1";"1";"2";"1";"1";"2014-10-07 10:00:11.188";"2014-10-07 10:13:06.446";"1";"0";"1";"102";"101";"module.training_block3.exec-4515.GoNoGo3";;;;;;;;;;;;;;;;;;;;;;;;;;;;;;;;;;;;;;;;;;;;;;;"1261";"2014-10-07 10:06:08.974";"NST_correctLoc";"23";"0";"FINISHED";"LEFT";"success";"517";"0";"2014-10-07 10:06:07.711";"3";;;;;;;;;;;;;;;;;;;;;;;;;;;;;;;;;
"abi10";"1994";;"Windows 7";"Rachel's Experiment (D.T.)";"1.0";"2";"1";"1";"2";"1";"1";"2014-10-07 10:00:11.188";"2014-10-07 10:13:06.446";"1";"0";"1";"103";"102";"module.training_block3.exec-4515.GoNoGo3";;;;;;;;;;;;;;;;;;;;;;;;;;;;;;;;;;;;;;;;;;;;;;;"1262";"2014-10-07 10:06:11.517";"NST_correctLoc";"16";"1";"FINISHED";"RIGHT";"success";"519";"0";"2014-10-07 10:06:10.253";"2";;;;;;;;;;;;;;;;;;;;;;;;;;;;;;;;;
"abi10";"1994";;"Windows 7";"Rachel's Experiment (D.T.)";"1.0";"2";"1";"1";"2";"1";"1";"2014-10-07 10:00:11.188";"2014-10-07 10:13:06.446";"1";"0";"1";"104";"103";"module.training_block3.exec-4515.GoNoGo3";;;;;;;;;;;;;;;;;;;;;;;;;;;;;;;;;;;;;;;;;;;;;;;"1261";"2014-10-07 10:06:14.060";"NST_correctLoc";"19";"0";"FINISHED";"LEFT";"success";"504";"0";"2014-10-07 10:06:12.796";"3";;;;;;;;;;;;;;;;;;;;;;;;;;;;;;;;;
"abi10";"1994";;"Windows 7";"Rachel's Experiment (D.T.)";"1.0";"2";"1";"1";"2";"1";"1";"2014-10-07 10:00:11.188";"2014-10-07 10:13:06.446";"1";"0";"1";"105";"104";"module.training_block3.exec-4515.GoNoGo3";;;;;;;;;;;;;;;;;;;;;;;;;;;;;;;;;;;;;;;;;;;;;;;"1261";"2014-10-07 10:06:16.603";"ST_correctStop";"22";"1";"FINISHED";"NONE";"success";"0";"1";"2014-10-07 10:06:15.339";"3";;;;;;;;;;;;;;;;;;;;;;;;;;;;;;;;;
"abi10";"1994";;"Windows 7";"Rachel's Experiment (D.T.)";"1.0";"2";"1";"1";"2";"1";"1";"2014-10-07 10:00:11.188";"2014-10-07 10:13:06.446";"1";"0";"1";"106";"105";"module.training_block3.exec-4515.GoNoGo3";;;;;;;;;;;;;;;;;;;;;;;;;;;;;;;;;;;;;;;;;;;;;;;"1261";"2014-10-07 10:06:19.145";"ST_correctStop";"27";"1";"FINISHED";"NONE";"success";"0";"1";"2014-10-07 10:06:17.882";"3";;;;;;;;;;;;;;;;;;;;;;;;;;;;;;;;;
"abi10";"1994";;"Windows 7";"Rachel's Experiment (D.T.)";"1.0";"2";"1";"1";"2";"1";"1";"2014-10-07 10:00:11.188";"2014-10-07 10:13:06.446";"1";"0";"1";"107";"106";"module.training_block3.exec-4515.GoNoGo3";;;;;;;;;;;;;;;;;;;;;;;;;;;;;;;;;;;;;;;;;;;;;;;"1262";"2014-10-07 10:06:21.688";"NST_correctLoc";"26";"1";"FINISHED";"RIGHT";"success";"459";"0";"2014-10-07 10:06:20.425";"3";;;;;;;;;;;;;;;;;;;;;;;;;;;;;;;;;
"abi10";"1994";;"Windows 7";"Rachel's Experiment (D.T.)";"1.0";"2";"1";"1";"2";"1";"1";"2014-10-07 10:00:11.188";"2014-10-07 10:13:06.446";"1";"0";"1";"108";"107";"module.training_block3.exec-4515.GoNoGo3";;;;;;;;;;;;;;;;;;;;;;;;;;;;;;;;;;;;;;;;;;;;;;;"1261";"2014-10-07 10:06:24.231";"ST_correctStop";"4";"1";"FINISHED";"NONE";"success";"0";"1";"2014-10-07 10:06:22.967";"1";;;;;;;;;;;;;;;;;;;;;;;;;;;;;;;;;
"abi10";"1994";;"Windows 7";"Rachel's Experiment (D.T.)";"1.0";"2";"1";"1";"2";"1";"1";"2014-10-07 10:00:11.188";"2014-10-07 10:13:06.446";"1";"0";"1";"109";"108";"module.training_block3.exec-4515.GoNoGo3";;;;;;;;;;;;;;;;;;;;;;;;;;;;;;;;;;;;;;;;;;;;;;;"1262";"2014-10-07 10:06:26.758";"ST_correctStop";"0";"1";"FINISHED";"NONE";"success";"0";"1";"2014-10-07 10:06:25.495";"1";;;;;;;;;;;;;;;;;;;;;;;;;;;;;;;;;
"abi10";"1994";;"Windows 7";"Rachel's Experiment (D.T.)";"1.0";"2";"1";"1";"2";"1";"1";"2014-10-07 10:00:11.188";"2014-10-07 10:13:06.446";"1";"0";"1";"110";"109";"module.training_block3.exec-4515.GoNoGo3";;;;;;;;;;;;;;;;;;;;;;;;;;;;;;;;;;;;;;;;;;;;;;;"1262";"2014-10-07 10:06:29.301";"NST_correctLoc";"12";"1";"FINISHED";"RIGHT";"success";"526";"0";"2014-10-07 10:06:28.037";"2";;;;;;;;;;;;;;;;;;;;;;;;;;;;;;;;;
"abi10";"1994";;"Windows 7";"Rachel's Experiment (D.T.)";"1.0";"2";"1";"1";"2";"1";"1";"2014-10-07 10:00:11.188";"2014-10-07 10:13:06.446";"1";"0";"1";"111";"110";"module.training_block3.exec-4515.GoNoGo3";;;;;;;;;;;;;;;;;;;;;;;;;;;;;;;;;;;;;;;;;;;;;;;"1261";"2014-10-07 10:06:31.844";"NST_correctLoc";"21";"1";"FINISHED";"RIGHT";"success";"504";"0";"2014-10-07 10:06:30.580";"3";;;;;;;;;;;;;;;;;;;;;;;;;;;;;;;;;
"abi10";"1994";;"Windows 7";"Rachel's Experiment (D.T.)";"1.0";"2";"1";"1";"2";"1";"1";"2014-10-07 10:00:11.188";"2014-10-07 10:13:06.446";"1";"0";"1";"112";"111";"module.training_block3.exec-4515.GoNoGo3";;;;;;;;;;;;;;;;;;;;;;;;;;;;;;;;;;;;;;;;;;;;;;;"1262";"2014-10-07 10:06:34.371";"NST_correctLoc";"13";"1";"FINISHED";"RIGHT";"success";"480";"0";"2014-10-07 10:06:33.107";"2";;;;;;;;;;;;;;;;;;;;;;;;;;;;;;;;;
"abi10";"1994";;"Windows 7";"Rachel's Experiment (D.T.)";"1.0";"2";"1";"1";"2";"1";"1";"2014-10-07 10:00:11.188";"2014-10-07 10:13:06.446";"1";"0";"1";"113";"112";"module.training_block3.exec-4515.GoNoGo3";;;;;;;;;;;;;;;;;;;;;;;;;;;;;;;;;;;;;;;;;;;;;;;"1261";"2014-10-07 10:06:36.914";"ST_correctStop";"7";"1";"FINISHED";"NONE";"success";"0";"1";"2014-10-07 10:06:35.650";"1";;;;;;;;;;;;;;;;;;;;;;;;;;;;;;;;;
"abi10";"1994";;"Windows 7";"Rachel's Experiment (D.T.)";"1.0";"2";"1";"1";"2";"1";"1";"2014-10-07 10:00:11.188";"2014-10-07 10:13:06.446";"1";"0";"1";"114";"113";"module.training_block3.exec-4515.GoNoGo3";;;;;;;;;;;;;;;;;;;;;;;;;;;;;;;;;;;;;;;;;;;;;;;"1261";"2014-10-07 10:06:39.457";"ST_correctStop";"6";"0";"FINISHED";"NONE";"success";"0";"1";"2014-10-07 10:06:38.193";"1";;;;;;;;;;;;;;;;;;;;;;;;;;;;;;;;;
"abi10";"1994";;"Windows 7";"Rachel's Experiment (D.T.)";"1.0";"2";"1";"1";"2";"1";"1";"2014-10-07 10:00:11.188";"2014-10-07 10:13:06.446";"1";"0";"1";"115";"114";"module.training_block3.exec-4515.GoNoGo3";;;;;;;;;;;;;;;;;;;;;;;;;;;;;;;;;;;;;;;;;;;;;;;"1261";"2014-10-07 10:06:41.984";"NST_correctLoc";"32";"1";"FINISHED";"RIGHT";"success";"451";"0";"2014-10-07 10:06:40.720";"3";;;;;;;;;;;;;;;;;;;;;;;;;;;;;;;;;
"abi10";"1994";;"Windows 7";"Rachel's Experiment (D.T.)";"1.0";"2";"1";"1";"2";"1";"1";"2014-10-07 10:00:11.188";"2014-10-07 10:13:06.446";"1";"0";"1";"116";"115";"module.training_block3.exec-4515.GoNoGo3";;;;;;;;;;;;;;;;;;;;;;;;;;;;;;;;;;;;;;;;;;;;;;;"1261";"2014-10-07 10:06:44.527";"ST_failedStop";"30";"1";"FINISHED";"RIGHT";"failure";"517";"1";"2014-10-07 10:06:43.263";"3";;;;;;;;;;;;;;;;;;;;;;;;;;;;;;;;;
"abi10";"1994";;"Windows 7";"Rachel's Experiment (D.T.)";"1.0";"2";"1";"1";"2";"1";"1";"2014-10-07 10:00:11.188";"2014-10-07 10:13:06.446";"1";"0";"1";"117";"116";"module.training_block3.exec-4515.GoNoGo3";;;;;;;;;;;;;;;;;;;;;;;;;;;;;;;;;;;;;;;;;;;;;;;"1261";"2014-10-07 10:06:47.054";"NST_correctLoc";"18";"1";"FINISHED";"RIGHT";"success";"685";"0";"2014-10-07 10:06:45.790";"3";;;;;;;;;;;;;;;;;;;;;;;;;;;;;;;;;
"abi10";"1994";;"Windows 7";"Rachel's Experiment (D.T.)";"1.0";"2";"1";"1";"2";"1";"1";"2014-10-07 10:00:11.188";"2014-10-07 10:13:06.446";"1";"0";"1";"118";"117";"module.training_block3.exec-4515.GoNoGo3";;;;;;;;;;;;;;;;;;;;;;;;;;;;;;;;;;;;;;;;;;;;;;;"1261";"2014-10-07 10:06:49.581";"ST_correctStop";"24";"1";"FINISHED";"NONE";"success";"0";"1";"2014-10-07 10:06:48.317";"3";;;;;;;;;;;;;;;;;;;;;;;;;;;;;;;;;
"abi10";"1994";;"Windows 7";"Rachel's Experiment (D.T.)";"1.0";"2";"1";"1";"2";"1";"1";"2014-10-07 10:00:11.188";"2014-10-07 10:13:06.446";"1";"0";"1";"119";"118";"module.training_block3.exec-4515.GoNoGo3";;;;;;;;;;;;;;;;;;;;;;;;;;;;;;;;;;;;;;;;;;;;;;;"1261";"2014-10-07 10:06:52.108";"ST_correctStop";"8";"0";"FINISHED";"NONE";"success";"0";"1";"2014-10-07 10:06:50.845";"1";;;;;;;;;;;;;;;;;;;;;;;;;;;;;;;;;
"abi10";"1994";;"Windows 7";"Rachel's Experiment (D.T.)";"1.0";"2";"1";"1";"2";"1";"1";"2014-10-07 10:00:11.188";"2014-10-07 10:13:06.446";"1";"0";"1";"120";"119";"module.training_block3.exec-4515.GoNoGo3";;;;;;;;;;;;;;;;;;;;;;;;;;;;;;;;;;;;;;;;;;;;;;;"1262";"2014-10-07 10:06:54.651";"ST_correctStop";"31";"0";"FINISHED";"NONE";"success";"0";"1";"2014-10-07 10:06:53.387";"3";;;;;;;;;;;;;;;;;;;;;;;;;;;;;;;;;
"abi10";"1994";;"Windows 7";"Rachel's Experiment (D.T.)";"1.0";"2";"1";"1";"2";"1";"1";"2014-10-07 10:00:11.188";"2014-10-07 10:13:06.446";"1";"0";"1";"121";"120";"module.training_block3.exec-4515.GoNoGo3";;;;;;;;;;;;;;;;;;;;;;;;;;;;;;;;;;;;;;;;;;;;;;;"1261";"2014-10-07 10:06:57.194";"NST_correctLoc";"28";"0";"FINISHED";"LEFT";"success";"633";"0";"2014-10-07 10:06:55.930";"3";;;;;;;;;;;;;;;;;;;;;;;;;;;;;;;;;
"abi10";"1994";;"Windows 7";"Rachel's Experiment (D.T.)";"1.0";"2";"1";"1";"2";"1";"1";"2014-10-07 10:00:11.188";"2014-10-07 10:13:06.446";"1";"0";"1";"122";"121";"module.training_block3.exec-4515.GoNoGo3";;;;;;;;;;;;;;;;;;;;;;;;;;;;;;;;;;;;;;;;;;;;;;;"1262";"2014-10-07 10:06:59.721";"NST_correctLoc";"14";"1";"FINISHED";"RIGHT";"success";"554";"0";"2014-10-07 10:06:58.457";"2";;;;;;;;;;;;;;;;;;;;;;;;;;;;;;;;;
"abi10";"1994";;"Windows 7";"Rachel's Experiment (D.T.)";"1.0";"2";"1";"1";"2";"1";"1";"2014-10-07 10:00:11.188";"2014-10-07 10:13:06.446";"1";"0";"1";"123";"122";"module.training_block3.exec-4515.GoNoGo3";;;;;;;;;;;;;;;;;;;;;;;;;;;;;;;;;;;;;;;;;;;;;;;"1261";"2014-10-07 10:07:02.248";"ST_correctStop";"25";"1";"FINISHED";"NONE";"success";"0";"1";"2014-10-07 10:07:00.985";"3";;;;;;;;;;;;;;;;;;;;;;;;;;;;;;;;;
"abi10";"1994";;"Windows 7";"Rachel's Experiment (D.T.)";"1.0";"2";"1";"1";"2";"1";"1";"2014-10-07 10:00:11.188";"2014-10-07 10:13:06.446";"1";"0";"1";"124";"123";"module.training_block4.exec-9232.GoNoGo4";;;;;;;;;;;;;;;;;;;;;;;;;;;;;;;;;;;;;;;;;;;;;;;;;;;;;;;;;;;"1261";"2014-10-07 10:07:12.279";"ST_correctStop";"31";"1";"FINISHED";"NONE";"success";"0";"1";"2014-10-07 10:07:11.015";"3";;;;;;;;;;;;;;;;;;;;;
"abi10";"1994";;"Windows 7";"Rachel's Experiment (D.T.)";"1.0";"2";"1";"1";"2";"1";"1";"2014-10-07 10:00:11.188";"2014-10-07 10:13:06.446";"1";"0";"1";"125";"124";"module.training_block4.exec-9232.GoNoGo4";;;;;;;;;;;;;;;;;;;;;;;;;;;;;;;;;;;;;;;;;;;;;;;;;;;;;;;;;;;"1261";"2014-10-07 10:07:14.806";"ST_correctStop";"24";"1";"FINISHED";"NONE";"success";"0";"1";"2014-10-07 10:07:13.543";"3";;;;;;;;;;;;;;;;;;;;;
"abi10";"1994";;"Windows 7";"Rachel's Experiment (D.T.)";"1.0";"2";"1";"1";"2";"1";"1";"2014-10-07 10:00:11.188";"2014-10-07 10:13:06.446";"1";"0";"1";"126";"125";"module.training_block4.exec-9232.GoNoGo4";;;;;;;;;;;;;;;;;;;;;;;;;;;;;;;;;;;;;;;;;;;;;;;;;;;;;;;;;;;"1261";"2014-10-07 10:07:17.333";"NST_correctLoc";"11";"0";"FINISHED";"LEFT";"success";"470";"0";"2014-10-07 10:07:16.070";"2";;;;;;;;;;;;;;;;;;;;;
"abi10";"1994";;"Windows 7";"Rachel's Experiment (D.T.)";"1.0";"2";"1";"1";"2";"1";"1";"2014-10-07 10:00:11.188";"2014-10-07 10:13:06.446";"1";"0";"1";"127";"126";"module.training_block4.exec-9232.GoNoGo4";;;;;;;;;;;;;;;;;;;;;;;;;;;;;;;;;;;;;;;;;;;;;;;;;;;;;;;;;;;"1261";"2014-10-07 10:07:19.876";"ST_correctStop";"7";"1";"FINISHED";"NONE";"success";"0";"1";"2014-10-07 10:07:18.613";"1";;;;;;;;;;;;;;;;;;;;;
"abi10";"1994";;"Windows 7";"Rachel's Experiment (D.T.)";"1.0";"2";"1";"1";"2";"1";"1";"2014-10-07 10:00:11.188";"2014-10-07 10:13:06.446";"1";"0";"1";"128";"127";"module.training_block4.exec-9232.GoNoGo4";;;;;;;;;;;;;;;;;;;;;;;;;;;;;;;;;;;;;;;;;;;;;;;;;;;;;;;;;;;"1261";"2014-10-07 10:07:22.403";"NST_correctLoc";"34";"0";"FINISHED";"LEFT";"success";"656";"0";"2014-10-07 10:07:21.140";"3";;;;;;;;;;;;;;;;;;;;;
"abi10";"1994";;"Windows 7";"Rachel's Experiment (D.T.)";"1.0";"2";"1";"1";"2";"1";"1";"2014-10-07 10:00:11.188";"2014-10-07 10:13:06.446";"1";"0";"1";"129";"128";"module.training_block4.exec-9232.GoNoGo4";;;;;;;;;;;;;;;;;;;;;;;;;;;;;;;;;;;;;;;;;;;;;;;;;;;;;;;;;;;"1262";"2014-10-07 10:07:24.931";"ST_correctStop";"22";"0";"FINISHED";"NONE";"success";"0";"1";"2014-10-07 10:07:23.667";"3";;;;;;;;;;;;;;;;;;;;;
"abi10";"1994";;"Windows 7";"Rachel's Experiment (D.T.)";"1.0";"2";"1";"1";"2";"1";"1";"2014-10-07 10:00:11.188";"2014-10-07 10:13:06.446";"1";"0";"1";"130";"129";"module.training_block4.exec-9232.GoNoGo4";;;;;;;;;;;;;;;;;;;;;;;;;;;;;;;;;;;;;;;;;;;;;;;;;;;;;;;;;;;"1262";"2014-10-07 10:07:27.458";"NST_correctLoc";"9";"1";"FINISHED";"RIGHT";"success";"529";"0";"2014-10-07 10:07:26.194";"2";;;;;;;;;;;;;;;;;;;;;
"abi10";"1994";;"Windows 7";"Rachel's Experiment (D.T.)";"1.0";"2";"1";"1";"2";"1";"1";"2014-10-07 10:00:11.188";"2014-10-07 10:13:06.446";"1";"0";"1";"131";"130";"module.training_block4.exec-9232.GoNoGo4";;;;;;;;;;;;;;;;;;;;;;;;;;;;;;;;;;;;;;;;;;;;;;;;;;;;;;;;;;;"1261";"2014-10-07 10:07:30.001";"ST_correctStop";"6";"1";"FINISHED";"NONE";"success";"0";"1";"2014-10-07 10:07:28.737";"1";;;;;;;;;;;;;;;;;;;;;
"abi10";"1994";;"Windows 7";"Rachel's Experiment (D.T.)";"1.0";"2";"1";"1";"2";"1";"1";"2014-10-07 10:00:11.188";"2014-10-07 10:13:06.446";"1";"0";"1";"132";"131";"module.training_block4.exec-9232.GoNoGo4";;;;;;;;;;;;;;;;;;;;;;;;;;;;;;;;;;;;;;;;;;;;;;;;;;;;;;;;;;;"1262";"2014-10-07 10:07:32.544";"NST_correctLoc";"17";"0";"FINISHED";"LEFT";"success";"636";"0";"2014-10-07 10:07:31.280";"2";;;;;;;;;;;;;;;;;;;;;
"abi10";"1994";;"Windows 7";"Rachel's Experiment (D.T.)";"1.0";"2";"1";"1";"2";"1";"1";"2014-10-07 10:00:11.188";"2014-10-07 10:13:06.446";"1";"0";"1";"133";"132";"module.training_block4.exec-9232.GoNoGo4";;;;;;;;;;;;;;;;;;;;;;;;;;;;;;;;;;;;;;;;;;;;;;;;;;;;;;;;;;;"1262";"2014-10-07 10:07:35.071";"ST_failedStop";"0";"0";"FINISHED";"LEFT";"failure";"924";"1";"2014-10-07 10:07:33.807";"1";;;;;;;;;;;;;;;;;;;;;
"abi10";"1994";;"Windows 7";"Rachel's Experiment (D.T.)";"1.0";"2";"1";"1";"2";"1";"1";"2014-10-07 10:00:11.188";"2014-10-07 10:13:06.446";"1";"0";"1";"134";"133";"module.training_block4.exec-9232.GoNoGo4";;;;;;;;;;;;;;;;;;;;;;;;;;;;;;;;;;;;;;;;;;;;;;;;;;;;;;;;;;;"1261";"2014-10-07 10:07:37.598";"NST_correctLoc";"10";"1";"FINISHED";"RIGHT";"success";"621";"0";"2014-10-07 10:07:36.334";"2";;;;;;;;;;;;;;;;;;;;;
"abi10";"1994";;"Windows 7";"Rachel's Experiment (D.T.)";"1.0";"2";"1";"1";"2";"1";"1";"2014-10-07 10:00:11.188";"2014-10-07 10:13:06.446";"1";"0";"1";"135";"134";"module.training_block4.exec-9232.GoNoGo4";;;;;;;;;;;;;;;;;;;;;;;;;;;;;;;;;;;;;;;;;;;;;;;;;;;;;;;;;;;"1261";"2014-10-07 10:07:40.125";"ST_correctStop";"33";"0";"FINISHED";"NONE";"success";"0";"1";"2014-10-07 10:07:38.862";"3";;;;;;;;;;;;;;;;;;;;;
"abi10";"1994";;"Windows 7";"Rachel's Experiment (D.T.)";"1.0";"2";"1";"1";"2";"1";"1";"2014-10-07 10:00:11.188";"2014-10-07 10:13:06.446";"1";"0";"1";"136";"135";"module.training_block4.exec-9232.GoNoGo4";;;;;;;;;;;;;;;;;;;;;;;;;;;;;;;;;;;;;;;;;;;;;;;;;;;;;;;;;;;"1262";"2014-10-07 10:07:42.652";"NST_correctLoc";"16";"1";"FINISHED";"RIGHT";"success";"671";"0";"2014-10-07 10:07:41.389";"2";;;;;;;;;;;;;;;;;;;;;
"abi10";"1994";;"Windows 7";"Rachel's Experiment (D.T.)";"1.0";"2";"1";"1";"2";"1";"1";"2014-10-07 10:00:11.188";"2014-10-07 10:13:06.446";"1";"0";"1";"137";"136";"module.training_block4.exec-9232.GoNoGo4";;;;;;;;;;;;;;;;;;;;;;;;;;;;;;;;;;;;;;;;;;;;;;;;;;;;;;;;;;;"1261";"2014-10-07 10:07:45.180";"NST_correctLoc";"14";"0";"FINISHED";"LEFT";"success";"815";"0";"2014-10-07 10:07:43.916";"2";;;;;;;;;;;;;;;;;;;;;
"abi10";"1994";;"Windows 7";"Rachel's Experiment (D.T.)";"1.0";"2";"1";"1";"2";"1";"1";"2014-10-07 10:00:11.188";"2014-10-07 10:13:06.446";"1";"0";"1";"138";"137";"module.training_block4.exec-9232.GoNoGo4";;;;;;;;;;;;;;;;;;;;;;;;;;;;;;;;;;;;;;;;;;;;;;;;;;;;;;;;;;;"1257";"2014-10-07 10:07:47.707";"ST_correctStop";"29";"0";"FINISHED";"NONE";"success";"0";"1";"2014-10-07 10:07:46.443";"3";;;;;;;;;;;;;;;;;;;;;
"abi10";"1994";;"Windows 7";"Rachel's Experiment (D.T.)";"1.0";"2";"1";"1";"2";"1";"1";"2014-10-07 10:00:11.188";"2014-10-07 10:13:06.446";"1";"0";"1";"139";"138";"module.training_block4.exec-9232.GoNoGo4";;;;;;;;;;;;;;;;;;;;;;;;;;;;;;;;;;;;;;;;;;;;;;;;;;;;;;;;;;;"1261";"2014-10-07 10:07:50.234";"ST_correctStop";"20";"0";"FINISHED";"NONE";"success";"0";"1";"2014-10-07 10:07:48.970";"3";;;;;;;;;;;;;;;;;;;;;
"abi10";"1994";;"Windows 7";"Rachel's Experiment (D.T.)";"1.0";"2";"1";"1";"2";"1";"1";"2014-10-07 10:00:11.188";"2014-10-07 10:13:06.446";"1";"0";"1";"140";"139";"module.training_block4.exec-9232.GoNoGo4";;;;;;;;;;;;;;;;;;;;;;;;;;;;;;;;;;;;;;;;;;;;;;;;;;;;;;;;;;;"1262";"2014-10-07 10:07:52.777";"ST_correctStop";"4";"0";"FINISHED";"NONE";"success";"0";"1";"2014-10-07 10:07:51.513";"1";;;;;;;;;;;;;;;;;;;;;
"abi10";"1994";;"Windows 7";"Rachel's Experiment (D.T.)";"1.0";"2";"1";"1";"2";"1";"1";"2014-10-07 10:00:11.188";"2014-10-07 10:13:06.446";"1";"0";"1";"141";"140";"module.training_block4.exec-9232.GoNoGo4";;;;;;;;;;;;;;;;;;;;;;;;;;;;;;;;;;;;;;;;;;;;;;;;;;;;;;;;;;;"1261";"2014-10-07 10:07:55.304";"NST_correctLoc";"23";"1";"FINISHED";"RIGHT";"success";"451";"0";"2014-10-07 10:07:54.040";"3";;;;;;;;;;;;;;;;;;;;;
"abi10";"1994";;"Windows 7";"Rachel's Experiment (D.T.)";"1.0";"2";"1";"1";"2";"1";"1";"2014-10-07 10:00:11.188";"2014-10-07 10:13:06.446";"1";"0";"1";"142";"141";"module.training_block4.exec-9232.GoNoGo4";;;;;;;;;;;;;;;;;;;;;;;;;;;;;;;;;;;;;;;;;;;;;;;;;;;;;;;;;;;"1262";"2014-10-07 10:07:57.831";"ST_correctStop";"18";"1";"FINISHED";"NONE";"success";"0";"1";"2014-10-07 10:07:56.568";"3";;;;;;;;;;;;;;;;;;;;;
"abi10";"1994";;"Windows 7";"Rachel's Experiment (D.T.)";"1.0";"2";"1";"1";"2";"1";"1";"2014-10-07 10:00:11.188";"2014-10-07 10:13:06.446";"1";"0";"1";"143";"142";"module.training_block4.exec-9232.GoNoGo4";;;;;;;;;;;;;;;;;;;;;;;;;;;;;;;;;;;;;;;;;;;;;;;;;;;;;;;;;;;"1262";"2014-10-07 10:08:00.358";"ST_correctStop";"27";"0";"FINISHED";"NONE";"success";"0";"1";"2014-10-07 10:07:59.095";"3";;;;;;;;;;;;;;;;;;;;;
"abi10";"1994";;"Windows 7";"Rachel's Experiment (D.T.)";"1.0";"2";"1";"1";"2";"1";"1";"2014-10-07 10:00:11.188";"2014-10-07 10:13:06.446";"1";"0";"1";"144";"143";"module.training_block4.exec-9232.GoNoGo4";;;;;;;;;;;;;;;;;;;;;;;;;;;;;;;;;;;;;;;;;;;;;;;;;;;;;;;;;;;"1262";"2014-10-07 10:08:02.886";"ST_correctStop";"3";"0";"FINISHED";"NONE";"success";"0";"1";"2014-10-07 10:08:01.622";"1";;;;;;;;;;;;;;;;;;;;;
"abi10";"1994";;"Windows 7";"Rachel's Experiment (D.T.)";"1.0";"2";"1";"1";"2";"1";"1";"2014-10-07 10:00:11.188";"2014-10-07 10:13:06.446";"1";"0";"1";"145";"144";"module.training_block4.exec-9232.GoNoGo4";;;;;;;;;;;;;;;;;;;;;;;;;;;;;;;;;;;;;;;;;;;;;;;;;;;;;;;;;;;"1262";"2014-10-07 10:08:05.413";"ST_correctStop";"2";"0";"FINISHED";"NONE";"success";"0";"1";"2014-10-07 10:08:04.149";"1";;;;;;;;;;;;;;;;;;;;;
"abi10";"1994";;"Windows 7";"Rachel's Experiment (D.T.)";"1.0";"2";"1";"1";"2";"1";"1";"2014-10-07 10:00:11.188";"2014-10-07 10:13:06.446";"1";"0";"1";"146";"145";"module.training_block4.exec-9232.GoNoGo4";;;;;;;;;;;;;;;;;;;;;;;;;;;;;;;;;;;;;;;;;;;;;;;;;;;;;;;;;;;"1262";"2014-10-07 10:08:07.940";"NST_correctLoc";"13";"1";"FINISHED";"RIGHT";"success";"615";"0";"2014-10-07 10:08:06.676";"2";;;;;;;;;;;;;;;;;;;;;
"abi10";"1994";;"Windows 7";"Rachel's Experiment (D.T.)";"1.0";"2";"1";"1";"2";"1";"1";"2014-10-07 10:00:11.188";"2014-10-07 10:13:06.446";"1";"0";"1";"147";"146";"module.training_block4.exec-9232.GoNoGo4";;;;;;;;;;;;;;;;;;;;;;;;;;;;;;;;;;;;;;;;;;;;;;;;;;;;;;;;;;;"1262";"2014-10-07 10:08:10.467";"NST_correctLoc";"35";"1";"FINISHED";"RIGHT";"success";"1152";"0";"2014-10-07 10:08:09.204";"3";;;;;;;;;;;;;;;;;;;;;
"abi10";"1994";;"Windows 7";"Rachel's Experiment (D.T.)";"1.0";"2";"1";"1";"2";"1";"1";"2014-10-07 10:00:11.188";"2014-10-07 10:13:06.446";"1";"0";"1";"148";"147";"module.training_block4.exec-9232.GoNoGo4";;;;;;;;;;;;;;;;;;;;;;;;;;;;;;;;;;;;;;;;;;;;;;;;;;;;;;;;;;;"1261";"2014-10-07 10:08:13.010";"NST_correctLoc";"28";"1";"FINISHED";"RIGHT";"success";"905";"0";"2014-10-07 10:08:11.746";"3";;;;;;;;;;;;;;;;;;;;;
"abi10";"1994";;"Windows 7";"Rachel's Experiment (D.T.)";"1.0";"2";"1";"1";"2";"1";"1";"2014-10-07 10:00:11.188";"2014-10-07 10:13:06.446";"1";"0";"1";"149";"148";"module.training_block4.exec-9232.GoNoGo4";;;;;;;;;;;;;;;;;;;;;;;;;;;;;;;;;;;;;;;;;;;;;;;;;;;;;;;;;;;"1262";"2014-10-07 10:08:15.537";"ST_correctStop";"5";"0";"FINISHED";"NONE";"success";"0";"1";"2014-10-07 10:08:14.274";"1";;;;;;;;;;;;;;;;;;;;;
"abi10";"1994";;"Windows 7";"Rachel's Experiment (D.T.)";"1.0";"2";"1";"1";"2";"1";"1";"2014-10-07 10:00:11.188";"2014-10-07 10:13:06.446";"1";"0";"1";"150";"149";"module.training_block4.exec-9232.GoNoGo4";;;;;;;;;;;;;;;;;;;;;;;;;;;;;;;;;;;;;;;;;;;;;;;;;;;;;;;;;;;"1261";"2014-10-07 10:08:18.064";"NST_correctLoc";"26";"1";"FINISHED";"RIGHT";"success";"626";"0";"2014-10-07 10:08:16.801";"3";;;;;;;;;;;;;;;;;;;;;
"abi10";"1994";;"Windows 7";"Rachel's Experiment (D.T.)";"1.0";"2";"1";"1";"2";"1";"1";"2014-10-07 10:00:11.188";"2014-10-07 10:13:06.446";"1";"0";"1";"151";"150";"module.training_block4.exec-9232.GoNoGo4";;;;;;;;;;;;;;;;;;;;;;;;;;;;;;;;;;;;;;;;;;;;;;;;;;;;;;;;;;;"1262";"2014-10-07 10:08:20.592";"ST_correctStop";"1";"0";"FINISHED";"NONE";"success";"0";"1";"2014-10-07 10:08:19.328";"1";;;;;;;;;;;;;;;;;;;;;
"abi10";"1994";;"Windows 7";"Rachel's Experiment (D.T.)";"1.0";"2";"1";"1";"2";"1";"1";"2014-10-07 10:00:11.188";"2014-10-07 10:13:06.446";"1";"0";"1";"152";"151";"module.training_block4.exec-9232.GoNoGo4";;;;;;;;;;;;;;;;;;;;;;;;;;;;;;;;;;;;;;;;;;;;;;;;;;;;;;;;;;;"1261";"2014-10-07 10:08:23.119";"NST_correctLoc";"12";"1";"FINISHED";"RIGHT";"success";"644";"0";"2014-10-07 10:08:21.855";"2";;;;;;;;;;;;;;;;;;;;;
"abi10";"1994";;"Windows 7";"Rachel's Experiment (D.T.)";"1.0";"2";"1";"1";"2";"1";"1";"2014-10-07 10:00:11.188";"2014-10-07 10:13:06.446";"1";"0";"1";"153";"152";"module.training_block4.exec-9232.GoNoGo4";;;;;;;;;;;;;;;;;;;;;;;;;;;;;;;;;;;;;;;;;;;;;;;;;;;;;;;;;;;"1262";"2014-10-07 10:08:25.646";"NST_correctLoc";"21";"1";"FINISHED";"RIGHT";"success";"813";"0";"2014-10-07 10:08:24.382";"3";;;;;;;;;;;;;;;;;;;;;
"abi10";"1994";;"Windows 7";"Rachel's Experiment (D.T.)";"1.0";"2";"1";"1";"2";"1";"1";"2014-10-07 10:00:11.188";"2014-10-07 10:13:06.446";"1";"0";"1";"154";"153";"module.training_block4.exec-9232.GoNoGo4";;;;;;;;;;;;;;;;;;;;;;;;;;;;;;;;;;;;;;;;;;;;;;;;;;;;;;;;;;;"1262";"2014-10-07 10:08:28.173";"NST_correctLoc";"19";"1";"FINISHED";"RIGHT";"success";"533";"0";"2014-10-07 10:08:26.910";"3";;;;;;;;;;;;;;;;;;;;;
"abi10";"1994";;"Windows 7";"Rachel's Experiment (D.T.)";"1.0";"2";"1";"1";"2";"1";"1";"2014-10-07 10:00:11.188";"2014-10-07 10:13:06.446";"1";"0";"1";"155";"154";"module.training_block4.exec-9232.GoNoGo4";;;;;;;;;;;;;;;;;;;;;;;;;;;;;;;;;;;;;;;;;;;;;;;;;;;;;;;;;;;"1262";"2014-10-07 10:08:30.700";"NST_correctLoc";"25";"0";"FINISHED";"LEFT";"success";"590";"0";"2014-10-07 10:08:29.437";"3";;;;;;;;;;;;;;;;;;;;;
"abi10";"1994";;"Windows 7";"Rachel's Experiment (D.T.)";"1.0";"2";"1";"1";"2";"1";"1";"2014-10-07 10:00:11.188";"2014-10-07 10:13:06.446";"1";"0";"1";"156";"155";"module.training_block4.exec-9232.GoNoGo4";;;;;;;;;;;;;;;;;;;;;;;;;;;;;;;;;;;;;;;;;;;;;;;;;;;;;;;;;;;"1262";"2014-10-07 10:08:33.243";"NST_correctLoc";"32";"0";"FINISHED";"LEFT";"success";"623";"0";"2014-10-07 10:08:31.980";"3";;;;;;;;;;;;;;;;;;;;;
"abi10";"1994";;"Windows 7";"Rachel's Experiment (D.T.)";"1.0";"2";"1";"1";"2";"1";"1";"2014-10-07 10:00:11.188";"2014-10-07 10:13:06.446";"1";"0";"1";"157";"156";"module.training_block4.exec-9232.GoNoGo4";;;;;;;;;;;;;;;;;;;;;;;;;;;;;;;;;;;;;;;;;;;;;;;;;;;;;;;;;;;"1262";"2014-10-07 10:08:35.770";"ST_correctStop";"8";"0";"FINISHED";"NONE";"success";"0";"1";"2014-10-07 10:08:34.507";"1";;;;;;;;;;;;;;;;;;;;;
"abi10";"1994";;"Windows 7";"Rachel's Experiment (D.T.)";"1.0";"2";"1";"1";"2";"1";"1";"2014-10-07 10:00:11.188";"2014-10-07 10:13:06.446";"1";"0";"1";"158";"157";"module.training_block4.exec-9232.GoNoGo4";;;;;;;;;;;;;;;;;;;;;;;;;;;;;;;;;;;;;;;;;;;;;;;;;;;;;;;;;;;"1261";"2014-10-07 10:08:38.298";"NST_correctLoc";"15";"1";"FINISHED";"RIGHT";"success";"745";"0";"2014-10-07 10:08:37.034";"2";;;;;;;;;;;;;;;;;;;;;
"abi10";"1994";;"Windows 7";"Rachel's Experiment (D.T.)";"1.0";"2";"1";"1";"2";"1";"1";"2014-10-07 10:00:11.188";"2014-10-07 10:13:06.446";"1";"0";"1";"159";"158";"module.training_block4.exec-9232.GoNoGo4";;;;;;;;;;;;;;;;;;;;;;;;;;;;;;;;;;;;;;;;;;;;;;;;;;;;;;;;;;;"1262";"2014-10-07 10:08:40.825";"ST_correctStop";"30";"0";"FINISHED";"NONE";"success";"0";"1";"2014-10-07 10:08:39.561";"3";;;;;;;;;;;;;;;;;;;;;
"abi10";"1994";;"Windows 7";"Rachel's Experiment (D.T.)";"1.0";"2";"1";"1";"2";"1";"1";"2014-10-07 10:00:11.188";"2014-10-07 10:13:06.446";"1";"0";"1";"160";"159";"module.devaluation_practice.exec-6512.devalPractice";;;;;;;;;;;;"21577";"2014-10-07 10:09:32.040";"0";"7";"8";"7";"6705";"3232";"8600";"2014-10-07 10:09:10.465";;;;;;;;;;;;;;;;;;;;;;;;;;;;;;;;;;;;;;;;;;;;;;;;;;;;;;;;;;;;;;;;;;;;;;
"abi10";"1994";;"Windows 7";"Rachel's Experiment (D.T.)";"1.0";"2";"1";"1";"2";"1";"1";"2014-10-07 10:00:11.188";"2014-10-07 10:13:06.446";"1";"0";"1";"161";"160";"module.devaluation_practice.exec-6512.devalPractice";;;;;;;;;;;;"8876";"2014-10-07 10:09:40.947";"1";"3";"4";"5";"3382";"1152";"1300";"2014-10-07 10:09:32.071";;;;;;;;;;;;;;;;;;;;;;;;;;;;;;;;;;;;;;;;;;;;;;;;;;;;;;;;;;;;;;;;;;;;;;
"abi10";"1994";;"Windows 7";"Rachel's Experiment (D.T.)";"1.0";"2";"1";"1";"2";"1";"1";"2014-10-07 10:00:11.188";"2014-10-07 10:13:06.446";"1";"0";"1";"162";"161";"module.devaluation_practice.exec-6512.devalPractice";;;;;;;;;;;;"8123";"2014-10-07 10:09:49.106";"2";"6";"6";"6";"2010";"1045";"2029";"2014-10-07 10:09:40.979";;;;;;;;;;;;;;;;;;;;;;;;;;;;;;;;;;;;;;;;;;;;;;;;;;;;;;;;;;;;;;;;;;;;;;
"abi10";"1994";;"Windows 7";"Rachel's Experiment (D.T.)";"1.0";"2";"1";"1";"2";"1";"1";"2014-10-07 10:00:11.188";"2014-10-07 10:13:06.446";"1";"0";"1";"163";"162";"module.devaluation_practice.exec-6512.devalPractice";;;;;;;;;;;;"7492";"2014-10-07 10:09:56.610";"3";"5";"2";"5";"1483";"1427";"1552";"2014-10-07 10:09:49.122";;;;;;;;;;;;;;;;;;;;;;;;;;;;;;;;;;;;;;;;;;;;;;;;;;;;;;;;;;;;;;;;;;;;;;
"abi10";"1994";;"Windows 7";"Rachel's Experiment (D.T.)";"1.0";"2";"1";"1";"2";"1";"1";"2014-10-07 10:00:11.188";"2014-10-07 10:13:06.446";"1";"0";"1";"164";"163";"module.devaluation_block1.exec-3948.deval1";"9668";"2014-10-07 10:10:20.025";"19";"8";"4";"7";"2514";"2412";"1600";"2014-10-07 10:10:10.353";"3";;;;;;;;;;;;;;;;;;;;;;;;;;;;;;;;;;;;;;;;;;;;;;;;;;;;;;;;;;;;;;;;;;;;;;;;;;;;;;;;
"abi10";"1994";;"Windows 7";"Rachel's Experiment (D.T.)";"1.0";"2";"1";"1";"2";"1";"1";"2014-10-07 10:00:11.188";"2014-10-07 10:13:06.446";"1";"0";"1";"165";"164";"module.devaluation_block1.exec-3948.deval1";"7002";"2014-10-07 10:10:27.045";"11";"5";"6";"6";"1006";"1689";"1261";"2014-10-07 10:10:20.041";"2";;;;;;;;;;;;;;;;;;;;;;;;;;;;;;;;;;;;;;;;;;;;;;;;;;;;;;;;;;;;;;;;;;;;;;;;;;;;;;;;
"abi10";"1994";;"Windows 7";"Rachel's Experiment (D.T.)";"1.0";"2";"1";"1";"2";"1";"1";"2014-10-07 10:00:11.188";"2014-10-07 10:13:06.446";"1";"0";"1";"166";"165";"module.devaluation_block1.exec-3948.deval1";"5988";"2014-10-07 10:10:33.051";"6";"5";"4";"6";"568";"630";"1763";"2014-10-07 10:10:27.061";"1";;;;;;;;;;;;;;;;;;;;;;;;;;;;;;;;;;;;;;;;;;;;;;;;;;;;;;;;;;;;;;;;;;;;;;;;;;;;;;;;
"abi10";"1994";;"Windows 7";"Rachel's Experiment (D.T.)";"1.0";"2";"1";"1";"2";"1";"1";"2014-10-07 10:00:11.188";"2014-10-07 10:13:06.446";"1";"0";"1";"167";"166";"module.devaluation_block1.exec-3948.deval1";"5990";"2014-10-07 10:10:39.057";"2";"7";"7";"7";"1233";"912";"822";"2014-10-07 10:10:33.067";"1";;;;;;;;;;;;;;;;;;;;;;;;;;;;;;;;;;;;;;;;;;;;;;;;;;;;;;;;;;;;;;;;;;;;;;;;;;;;;;;;
"abi10";"1994";;"Windows 7";"Rachel's Experiment (D.T.)";"1.0";"2";"1";"1";"2";"1";"1";"2014-10-07 10:00:11.188";"2014-10-07 10:13:06.446";"1";"0";"1";"168";"167";"module.devaluation_block1.exec-3948.deval1";"5957";"2014-10-07 10:10:45.032";"23";"8";"8";"8";"1004";"711";"1226";"2014-10-07 10:10:39.073";"3";;;;;;;;;;;;;;;;;;;;;;;;;;;;;;;;;;;;;;;;;;;;;;;;;;;;;;;;;;;;;;;;;;;;;;;;;;;;;;;;
"abi10";"1994";;"Windows 7";"Rachel's Experiment (D.T.)";"1.0";"2";"1";"1";"2";"1";"1";"2014-10-07 10:00:11.188";"2014-10-07 10:13:06.446";"1";"0";"1";"169";"168";"module.devaluation_block1.exec-3948.deval1";"6733";"2014-10-07 10:10:51.787";"18";"3";"3";"3";"2173";"583";"954";"2014-10-07 10:10:45.048";"3";;;;;;;;;;;;;;;;;;;;;;;;;;;;;;;;;;;;;;;;;;;;;;;;;;;;;;;;;;;;;;;;;;;;;;;;;;;;;;;;
"abi10";"1994";;"Windows 7";"Rachel's Experiment (D.T.)";"1.0";"2";"1";"1";"2";"1";"1";"2014-10-07 10:00:11.188";"2014-10-07 10:13:06.446";"1";"0";"1";"170";"169";"module.devaluation_block1.exec-3948.deval1";"6486";"2014-10-07 10:10:58.292";"5";"9";"8";"9";"1842";"769";"854";"2014-10-07 10:10:51.803";"1";;;;;;;;;;;;;;;;;;;;;;;;;;;;;;;;;;;;;;;;;;;;;;;;;;;;;;;;;;;;;;;;;;;;;;;;;;;;;;;;
"abi10";"1994";;"Windows 7";"Rachel's Experiment (D.T.)";"1.0";"2";"1";"1";"2";"1";"1";"2014-10-07 10:00:11.188";"2014-10-07 10:13:06.446";"1";"0";"1";"171";"170";"module.devaluation_block1.exec-3948.deval1";"6003";"2014-10-07 10:11:04.329";"17";"6";"4";"5";"713";"717";"1552";"2014-10-07 10:10:58.323";"2";;;;;;;;;;;;;;;;;;;;;;;;;;;;;;;;;;;;;;;;;;;;;;;;;;;;;;;;;;;;;;;;;;;;;;;;;;;;;;;;
"abi10";"1994";;"Windows 7";"Rachel's Experiment (D.T.)";"1.0";"2";"1";"1";"2";"1";"1";"2014-10-07 10:00:11.188";"2014-10-07 10:13:06.446";"1";"0";"1";"172";"171";"module.devaluation_block1.exec-3948.deval1";"3750";"2014-10-07 10:11:08.105";"1";"5";"5";"5";"348";"227";"146";"2014-10-07 10:11:04.361";"1";;;;;;;;;;;;;;;;;;;;;;;;;;;;;;;;;;;;;;;;;;;;;;;;;;;;;;;;;;;;;;;;;;;;;;;;;;;;;;;;
"abi10";"1994";;"Windows 7";"Rachel's Experiment (D.T.)";"1.0";"2";"1";"1";"2";"1";"1";"2014-10-07 10:00:11.188";"2014-10-07 10:13:06.446";"1";"0";"1";"173";"172";"module.devaluation_block1.exec-3948.deval1";"8207";"2014-10-07 10:11:16.341";"3";"8";"8";"8";"1925";"1064";"2195";"2014-10-07 10:11:08.136";"1";;;;;;;;;;;;;;;;;;;;;;;;;;;;;;;;;;;;;;;;;;;;;;;;;;;;;;;;;;;;;;;;;;;;;;;;;;;;;;;;
"abi10";"1994";;"Windows 7";"Rachel's Experiment (D.T.)";"1.0";"2";"1";"1";"2";"1";"1";"2014-10-07 10:00:11.188";"2014-10-07 10:13:06.446";"1";"0";"1";"174";"173";"module.devaluation_block1.exec-3948.deval1";"6129";"2014-10-07 10:11:22.504";"16";"5";"1";"3";"440";"1358";"1304";"2014-10-07 10:11:16.373";"2";;;;;;;;;;;;;;;;;;;;;;;;;;;;;;;;;;;;;;;;;;;;;;;;;;;;;;;;;;;;;;;;;;;;;;;;;;;;;;;;
"abi10";"1994";;"Windows 7";"Rachel's Experiment (D.T.)";"1.0";"2";"1";"1";"2";"1";"1";"2014-10-07 10:00:11.188";"2014-10-07 10:13:06.446";"1";"0";"1";"175";"174";"module.devaluation_block1.exec-3948.deval1";"7109";"2014-10-07 10:11:29.633";"22";"6";"3";"6";"2013";"967";"1102";"2014-10-07 10:11:22.519";"3";;;;;;;;;;;;;;;;;;;;;;;;;;;;;;;;;;;;;;;;;;;;;;;;;;;;;;;;;;;;;;;;;;;;;;;;;;;;;;;;
"abi10";"1994";;"Windows 7";"Rachel's Experiment (D.T.)";"1.0";"2";"1";"1";"2";"1";"1";"2014-10-07 10:00:11.188";"2014-10-07 10:13:06.446";"1";"0";"1";"176";"175";"module.devaluation_block1.exec-3948.deval1";"6997";"2014-10-07 10:11:36.637";"21";"5";"2";"5";"1220";"1478";"1265";"2014-10-07 10:11:29.648";"3";;;;;;;;;;;;;;;;;;;;;;;;;;;;;;;;;;;;;;;;;;;;;;;;;;;;;;;;;;;;;;;;;;;;;;;;;;;;;;;;
"abi10";"1994";;"Windows 7";"Rachel's Experiment (D.T.)";"1.0";"2";"1";"1";"2";"1";"1";"2014-10-07 10:00:11.188";"2014-10-07 10:13:06.446";"1";"0";"1";"177";"176";"module.devaluation_block1.exec-3948.deval1";"7060";"2014-10-07 10:11:43.720";"26";"8";"1";"8";"1400";"1258";"1377";"2014-10-07 10:11:36.668";"3";;;;;;;;;;;;;;;;;;;;;;;;;;;;;;;;;;;;;;;;;;;;;;;;;;;;;;;;;;;;;;;;;;;;;;;;;;;;;;;;
"abi10";"1994";;"Windows 7";"Rachel's Experiment (D.T.)";"1.0";"2";"1";"1";"2";"1";"1";"2014-10-07 10:00:11.188";"2014-10-07 10:13:06.446";"1";"0";"1";"178";"177";"module.devaluation_block1.exec-3948.deval1";"5183";"2014-10-07 10:11:48.930";"8";"6";"2";"6";"694";"881";"581";"2014-10-07 10:11:43.751";"1";;;;;;;;;;;;;;;;;;;;;;;;;;;;;;;;;;;;;;;;;;;;;;;;;;;;;;;;;;;;;;;;;;;;;;;;;;;;;;;;
"abi10";"1994";;"Windows 7";"Rachel's Experiment (D.T.)";"1.0";"2";"1";"1";"2";"1";"1";"2014-10-07 10:00:11.188";"2014-10-07 10:13:06.446";"1";"0";"1";"179";"178";"module.devaluation_block1.exec-3948.deval1";"6421";"2014-10-07 10:11:55.373";"0";"5";"1";"6";"1331";"1190";"874";"2014-10-07 10:11:48.946";"1";;;;;;;;;;;;;;;;;;;;;;;;;;;;;;;;;;;;;;;;;;;;;;;;;;;;;;;;;;;;;;;;;;;;;;;;;;;;;;;;
"abi10";"1994";;"Windows 7";"Rachel's Experiment (D.T.)";"1.0";"2";"1";"1";"2";"1";"1";"2014-10-07 10:00:11.188";"2014-10-07 10:13:06.446";"1";"0";"1";"180";"179";"module.devaluation_block1.exec-3948.deval1";"7180";"2014-10-07 10:12:02.564";"13";"7";"9";"8";"1952";"1245";"959";"2014-10-07 10:11:55.388";"2";;;;;;;;;;;;;;;;;;;;;;;;;;;;;;;;;;;;;;;;;;;;;;;;;;;;;;;;;;;;;;;;;;;;;;;;;;;;;;;;
"abi10";"1994";;"Windows 7";"Rachel's Experiment (D.T.)";"1.0";"2";"1";"1";"2";"1";"1";"2014-10-07 10:00:11.188";"2014-10-07 10:13:06.446";"1";"0";"1";"181";"180";"module.devaluation_block1.exec-3948.deval1";"5454";"2014-10-07 10:12:08.040";"14";"6";"8";"7";"553";"1085";"780";"2014-10-07 10:12:02.596";"2";;;;;;;;;;;;;;;;;;;;;;;;;;;;;;;;;;;;;;;;;;;;;;;;;;;;;;;;;;;;;;;;;;;;;;;;;;;;;;;;
"abi10";"1994";;"Windows 7";"Rachel's Experiment (D.T.)";"1.0";"2";"1";"1";"2";"1";"1";"2014-10-07 10:00:11.188";"2014-10-07 10:13:06.446";"1";"0";"1";"182";"181";"module.devaluation_block1.exec-3948.deval1";"6309";"2014-10-07 10:12:14.374";"24";"8";"8";"9";"1181";"892";"1216";"2014-10-07 10:12:08.056";"3";;;;;;;;;;;;;;;;;;;;;;;;;;;;;;;;;;;;;;;;;;;;;;;;;;;;;;;;;;;;;;;;;;;;;;;;;;;;;;;;
"abi10";"1994";;"Windows 7";"Rachel's Experiment (D.T.)";"1.0";"2";"1";"1";"2";"1";"1";"2014-10-07 10:00:11.188";"2014-10-07 10:13:06.446";"1";"0";"1";"183";"182";"module.devaluation_block1.exec-3948.deval1";"6317";"2014-10-07 10:12:20.707";"25";"5";"2";"7";"391";"988";"1910";"2014-10-07 10:12:14.389";"3";;;;;;;;;;;;;;;;;;;;;;;;;;;;;;;;;;;;;;;;;;;;;;;;;;;;;;;;;;;;;;;;;;;;;;;;;;;;;;;;
"abi10";"1994";;"Windows 7";"Rachel's Experiment (D.T.)";"1.0";"2";"1";"1";"2";"1";"1";"2014-10-07 10:00:11.188";"2014-10-07 10:13:06.446";"1";"0";"1";"184";"183";"module.devaluation_block1.exec-3948.deval1";"6003";"2014-10-07 10:12:26.744";"10";"7";"3";"7";"810";"1311";"852";"2014-10-07 10:12:20.738";"2";;;;;;;;;;;;;;;;;;;;;;;;;;;;;;;;;;;;;;;;;;;;;;;;;;;;;;;;;;;;;;;;;;;;;;;;;;;;;;;;
"abi10";"1994";;"Windows 7";"Rachel's Experiment (D.T.)";"1.0";"2";"1";"1";"2";"1";"1";"2014-10-07 10:00:11.188";"2014-10-07 10:13:06.446";"1";"0";"1";"185";"184";"module.devaluation_block1.exec-3948.deval1";"5976";"2014-10-07 10:12:32.750";"4";"7";"3";"7";"908";"1383";"665";"2014-10-07 10:12:26.776";"1";;;;;;;;;;;;;;;;;;;;;;;;;;;;;;;;;;;;;;;;;;;;;;;;;;;;;;;;;;;;;;;;;;;;;;;;;;;;;;;;
"abi10";"1994";;"Windows 7";"Rachel's Experiment (D.T.)";"1.0";"2";"1";"1";"2";"1";"1";"2014-10-07 10:00:11.188";"2014-10-07 10:13:06.446";"1";"0";"1";"186";"185";"module.devaluation_block1.exec-3948.deval1";"5703";"2014-10-07 10:12:38.491";"7";"5";"1";"5";"399";"1604";"670";"2014-10-07 10:12:32.782";"1";;;;;;;;;;;;;;;;;;;;;;;;;;;;;;;;;;;;;;;;;;;;;;;;;;;;;;;;;;;;;;;;;;;;;;;;;;;;;;;;
"abi10";"1994";;"Windows 7";"Rachel's Experiment (D.T.)";"1.0";"2";"1";"1";"2";"1";"1";"2014-10-07 10:00:11.188";"2014-10-07 10:13:06.446";"1";"0";"1";"187";"186";"module.devaluation_block1.exec-3948.deval1";"6853";"2014-10-07 10:12:45.355";"12";"8";"9";"9";"1713";"1004";"1091";"2014-10-07 10:12:38.507";"2";;;;;;;;;;;;;;;;;;;;;;;;;;;;;;;;;;;;;;;;;;;;;;;;;;;;;;;;;;;;;;;;;;;;;;;;;;;;;;;;
"abi10";"1994";;"Windows 7";"Rachel's Experiment (D.T.)";"1.0";"2";"1";"1";"2";"1";"1";"2014-10-07 10:00:11.188";"2014-10-07 10:13:06.446";"1";"0";"1";"188";"187";"module.devaluation_block1.exec-3948.deval1";"5354";"2014-10-07 10:12:50.737";"20";"7";"7";"7";"722";"756";"849";"2014-10-07 10:12:45.386";"3";;;;;;;;;;;;;;;;;;;;;;;;;;;;;;;;;;;;;;;;;;;;;;;;;;;;;;;;;;;;;;;;;;;;;;;;;;;;;;;;
"abi10";"1994";;"Windows 7";"Rachel's Experiment (D.T.)";"1.0";"2";"1";"1";"2";"1";"1";"2014-10-07 10:00:11.188";"2014-10-07 10:13:06.446";"1";"0";"1";"189";"188";"module.devaluation_block1.exec-3948.deval1";"7325";"2014-10-07 10:12:58.085";"15";"4";"2";"3";"1196";"932";"2167";"2014-10-07 10:12:50.768";"2";;;;;;;;;;;;;;;;;;;;;;;;;;;;;;;;;;;;;;;;;;;;;;;;;;;;;;;;;;;;;;;;;;;;;;;;;;;;;;;;
"abi10";"1994";;"Windows 7";"Rachel's Experiment (D.T.)";"1.0";"2";"1";"1";"2";"1";"1";"2014-10-07 10:00:11.188";"2014-10-07 10:13:06.446";"1";"0";"1";"190";"189";"module.devaluation_block1.exec-3948.deval1";"5568";"2014-10-07 10:13:03.685";"9";"7";"8";"8";"824";"705";"1010";"2014-10-07 10:12:58.116";"2";;;;;;;;;;;;;;;;;;;;;;;;;;;;;;;;;;;;;;;;;;;;;;;;;;;;;;;;;;;;;;;;;;;;;;;;;;;;;;;;
