"user.name";"user.yearOfBirth";"user.sex";"user.osName";"module.name";"module.version";"module.online.subject.code";"module.online.study.id";"module.online.module.nr";"module.online.group.nr";"session.id";"session.index";"session.startTime";"session.endTime";"session.completed";"session.node-4005.conditionType";"session.node-6985.DevalQorder";"trial.id";"trial.index";"trial.name";"trial.deval1.durationTime";"trial.deval1.endTime";"trial.deval1.icon";"trial.deval1.Resp_Attractive";"trial.deval1.Resp_Eat";"trial.deval1.Resp_Taste";"trial.deval1.RT_Attractive";"trial.deval1.RT_Eat";"trial.deval1.RT_Taste";"trial.deval1.startTime";"trial.deval1.stimulus type";"trial.devalPractice.durationTime";"trial.devalPractice.endTime";"trial.devalPractice.icon";"trial.devalPractice.Resp_Attractive";"trial.devalPractice.Resp_Eat";"trial.devalPractice.Resp_Taste";"trial.devalPractice.RT_Attractive";"trial.devalPractice.RT_Eat";"trial.devalPractice.RT_Taste";"trial.devalPractice.startTime";"trial.devalPractice.stimulus type";"trial.GoNoGo1.durationTime";"trial.GoNoGo1.endTime";"trial.GoNoGo1.Error Type";"trial.GoNoGo1.icon";"trial.GoNoGo1.location";"trial.GoNoGo1.outcome";"trial.GoNoGo1.response";"trial.GoNoGo1.result";"trial.GoNoGo1.RT";"trial.GoNoGo1.signal";"trial.GoNoGo1.startTime";"trial.GoNoGo1.stimulus type";"trial.GoNoGo2.durationTime";"trial.GoNoGo2.endTime";"trial.GoNoGo2.Error Type";"trial.GoNoGo2.icon";"trial.GoNoGo2.location";"trial.GoNoGo2.outcome";"trial.GoNoGo2.response";"trial.GoNoGo2.result";"trial.GoNoGo2.RT";"trial.GoNoGo2.signal";"trial.GoNoGo2.startTime";"trial.GoNoGo2.stimulus type";"trial.GoNoGo3.durationTime";"trial.GoNoGo3.endTime";"trial.GoNoGo3.Error Type";"trial.GoNoGo3.icon";"trial.GoNoGo3.location";"trial.GoNoGo3.outcome";"trial.GoNoGo3.response";"trial.GoNoGo3.result";"trial.GoNoGo3.RT";"trial.GoNoGo3.signal";"trial.GoNoGo3.startTime";"trial.GoNoGo3.stimulus type";"trial.GoNoGo4.durationTime";"trial.GoNoGo4.endTime";"trial.GoNoGo4.Error Type";"trial.GoNoGo4.icon";"trial.GoNoGo4.location";"trial.GoNoGo4.outcome";"trial.GoNoGo4.response";"trial.GoNoGo4.result";"trial.GoNoGo4.RT";"trial.GoNoGo4.signal";"trial.GoNoGo4.startTime";"trial.GoNoGo4.stimulus type";"trial.GoNoGo_Practice.durationTime";"trial.GoNoGo_Practice.endTime";"trial.GoNoGo_Practice.icon";"trial.GoNoGo_Practice.location";"trial.GoNoGo_Practice.outcome";"trial.GoNoGo_Practice.response";"trial.GoNoGo_Practice.result";"trial.GoNoGo_Practice.RT";"trial.GoNoGo_Practice.signal";"trial.GoNoGo_Practice.startTime";"trial.GoNoGo_Practice.stimulus type";"trial.GoNoGo_Tutorial.durationTime";"trial.GoNoGo_Tutorial.endTime";"trial.GoNoGo_Tutorial.icon";"trial.GoNoGo_Tutorial.location";"trial.GoNoGo_Tutorial.outcome";"trial.GoNoGo_Tutorial.response";"trial.GoNoGo_Tutorial.result";"trial.GoNoGo_Tutorial.RT";"trial.GoNoGo_Tutorial.signal";"trial.GoNoGo_Tutorial.startTime"
"smitha59";;;"Windows 7";"Rachel's Experiment (D.T.)";"1.0";"2";"1";"1";"2";"1";"1";"2014-10-16 12:57:03.256";"2014-10-16 13:13:55.277";"1";"1";"0";"1";"0";"module.GoNoGotutorial.exec-3210.GoNoGo_Tutorial";;;;;;;;;;;;;;;;;;;;;;;;;;;;;;;;;;;;;;;;;;;;;;;;;;;;;;;;;;;;;;;;;;;;;;;;;;;;;;;;;;"3998";"2014-10-16 12:58:26.717";"leftResponse";"0";"FINISHED";"LEFT";"success";"2761";"0";"2014-10-16 12:58:22.707"
"smitha59";;;"Windows 7";"Rachel's Experiment (D.T.)";"1.0";"2";"1";"1";"2";"1";"1";"2014-10-16 12:57:03.256";"2014-10-16 13:13:55.277";"1";"1";"0";"2";"1";"module.GoNoGotutorial.exec-3210.GoNoGo_Tutorial";;;;;;;;;;;;;;;;;;;;;;;;;;;;;;;;;;;;;;;;;;;;;;;;;;;;;;;;;;;;;;;;;;;;;;;;;;;;;;;;;;"4003";"2014-10-16 12:58:32.021";"rightResponse";"1";"FINISHED";"RIGHT";"success";"1350";"0";"2014-10-16 12:58:28.011"
"smitha59";;;"Windows 7";"Rachel's Experiment (D.T.)";"1.0";"2";"1";"1";"2";"1";"1";"2014-10-16 12:57:03.256";"2014-10-16 13:13:55.277";"1";"1";"0";"3";"2";"module.GoNoGotutorial.exec-3210.GoNoGo_Tutorial";;;;;;;;;;;;;;;;;;;;;;;;;;;;;;;;;;;;;;;;;;;;;;;;;;;;;;;;;;;;;;;;;;;;;;;;;;;;;;;;;;"4003";"2014-10-16 12:58:37.325";"signalResponse";"0";"FINISHED";"NONE";"success";"0";"1";"2014-10-16 12:58:33.315"
"smitha59";;;"Windows 7";"Rachel's Experiment (D.T.)";"1.0";"2";"1";"1";"2";"1";"1";"2014-10-16 12:57:03.256";"2014-10-16 13:13:55.277";"1";"1";"0";"4";"3";"module.GoNoGopractice.exec-3945.GoNoGo_Practice";;;;;;;;;;;;;;;;;;;;;;;;;;;;;;;;;;;;;;;;;;;;;;;;;;;;;;;;;;;;;;;;;;;;;;;"1959";"2014-10-16 12:58:45.047";"18";"0";"FINISHED";"LEFT";"success";"680";"0";"2014-10-16 12:58:43.081";"3";;;;;;;;;;
"smitha59";;;"Windows 7";"Rachel's Experiment (D.T.)";"1.0";"2";"1";"1";"2";"1";"1";"2014-10-16 12:57:03.256";"2014-10-16 13:13:55.277";"1";"1";"0";"5";"4";"module.GoNoGopractice.exec-3945.GoNoGo_Practice";;;;;;;;;;;;;;;;;;;;;;;;;;;;;;;;;;;;;;;;;;;;;;;;;;;;;;;;;;;;;;;;;;;;;;;"1959";"2014-10-16 12:58:48.307";"21";"1";"FINISHED";"RIGHT";"success";"332";"0";"2014-10-16 12:58:46.341";"3";;;;;;;;;;
"smitha59";;;"Windows 7";"Rachel's Experiment (D.T.)";"1.0";"2";"1";"1";"2";"1";"1";"2014-10-16 12:57:03.256";"2014-10-16 13:13:55.277";"1";"1";"0";"6";"5";"module.GoNoGopractice.exec-3945.GoNoGo_Practice";;;;;;;;;;;;;;;;;;;;;;;;;;;;;;;;;;;;;;;;;;;;;;;;;;;;;;;;;;;;;;;;;;;;;;;"1959";"2014-10-16 12:58:51.552";"14";"1";"FINISHED";"RIGHT";"failure";"463";"1";"2014-10-16 12:58:49.586";"2";;;;;;;;;;
"smitha59";;;"Windows 7";"Rachel's Experiment (D.T.)";"1.0";"2";"1";"1";"2";"1";"1";"2014-10-16 12:57:03.256";"2014-10-16 13:13:55.277";"1";"1";"0";"7";"6";"module.GoNoGopractice.exec-3945.GoNoGo_Practice";;;;;;;;;;;;;;;;;;;;;;;;;;;;;;;;;;;;;;;;;;;;;;;;;;;;;;;;;;;;;;;;;;;;;;;"1959";"2014-10-16 12:58:54.797";"26";"0";"FINISHED";"LEFT";"success";"523";"0";"2014-10-16 12:58:52.831";"3";;;;;;;;;;
"smitha59";;;"Windows 7";"Rachel's Experiment (D.T.)";"1.0";"2";"1";"1";"2";"1";"1";"2014-10-16 12:57:03.256";"2014-10-16 13:13:55.277";"1";"1";"0";"8";"7";"module.GoNoGopractice.exec-3945.GoNoGo_Practice";;;;;;;;;;;;;;;;;;;;;;;;;;;;;;;;;;;;;;;;;;;;;;;;;;;;;;;;;;;;;;;;;;;;;;;"1962";"2014-10-16 12:58:58.041";"2";"0";"FINISHED";"LEFT";"success";"528";"0";"2014-10-16 12:58:56.076";"1";;;;;;;;;;
"smitha59";;;"Windows 7";"Rachel's Experiment (D.T.)";"1.0";"2";"1";"1";"2";"1";"1";"2014-10-16 12:57:03.256";"2014-10-16 13:13:55.277";"1";"1";"0";"9";"8";"module.GoNoGopractice.exec-3945.GoNoGo_Practice";;;;;;;;;;;;;;;;;;;;;;;;;;;;;;;;;;;;;;;;;;;;;;;;;;;;;;;;;;;;;;;;;;;;;;;"1960";"2014-10-16 12:59:01.286";"30";"0";"FINISHED";"NONE";"success";"0";"1";"2014-10-16 12:58:59.321";"3";;;;;;;;;;
"smitha59";;;"Windows 7";"Rachel's Experiment (D.T.)";"1.0";"2";"1";"1";"2";"1";"1";"2014-10-16 12:57:03.256";"2014-10-16 13:13:55.277";"1";"1";"0";"10";"9";"module.GoNoGopractice.exec-3945.GoNoGo_Practice";;;;;;;;;;;;;;;;;;;;;;;;;;;;;;;;;;;;;;;;;;;;;;;;;;;;;;;;;;;;;;;;;;;;;;;"1959";"2014-10-16 12:59:04.531";"6";"1";"FINISHED";"RIGHT";"failure";"428";"1";"2014-10-16 12:59:02.565";"1";;;;;;;;;;
"smitha59";;;"Windows 7";"Rachel's Experiment (D.T.)";"1.0";"2";"1";"1";"2";"1";"1";"2014-10-16 12:57:03.256";"2014-10-16 13:13:55.277";"1";"1";"0";"11";"10";"module.GoNoGopractice.exec-3945.GoNoGo_Practice";;;;;;;;;;;;;;;;;;;;;;;;;;;;;;;;;;;;;;;;;;;;;;;;;;;;;;;;;;;;;;;;;;;;;;;"1960";"2014-10-16 12:59:07.776";"34";"0";"FINISHED";"LEFT";"success";"584";"0";"2014-10-16 12:59:05.810";"3";;;;;;;;;;
"smitha59";;;"Windows 7";"Rachel's Experiment (D.T.)";"1.0";"2";"1";"1";"2";"1";"1";"2014-10-16 12:57:03.256";"2014-10-16 13:13:55.277";"1";"1";"0";"12";"11";"module.GoNoGopractice.exec-3945.GoNoGo_Practice";;;;;;;;;;;;;;;;;;;;;;;;;;;;;;;;;;;;;;;;;;;;;;;;;;;;;;;;;;;;;;;;;;;;;;;"1959";"2014-10-16 12:59:11.021";"23";"1";"FINISHED";"RIGHT";"success";"554";"0";"2014-10-16 12:59:09.055";"3";;;;;;;;;;
"smitha59";;;"Windows 7";"Rachel's Experiment (D.T.)";"1.0";"2";"1";"1";"2";"1";"1";"2014-10-16 12:57:03.256";"2014-10-16 13:13:55.277";"1";"1";"0";"13";"12";"module.GoNoGopractice.exec-3945.GoNoGo_Practice";;;;;;;;;;;;;;;;;;;;;;;;;;;;;;;;;;;;;;;;;;;;;;;;;;;;;;;;;;;;;;;;;;;;;;;"1959";"2014-10-16 12:59:14.265";"13";"0";"FINISHED";"NONE";"success";"0";"1";"2014-10-16 12:59:12.300";"2";;;;;;;;;;
"smitha59";;;"Windows 7";"Rachel's Experiment (D.T.)";"1.0";"2";"1";"1";"2";"1";"1";"2014-10-16 12:57:03.256";"2014-10-16 13:13:55.277";"1";"1";"0";"14";"13";"module.GoNoGopractice.exec-3945.GoNoGo_Practice";;;;;;;;;;;;;;;;;;;;;;;;;;;;;;;;;;;;;;;;;;;;;;;;;;;;;;;;;;;;;;;;;;;;;;;"1958";"2014-10-16 12:59:17.604";"3";"1";"FINISHED";"RIGHT";"success";"346";"0";"2014-10-16 12:59:15.638";"1";;;;;;;;;;
"smitha59";;;"Windows 7";"Rachel's Experiment (D.T.)";"1.0";"2";"1";"1";"2";"1";"1";"2014-10-16 12:57:03.256";"2014-10-16 13:13:55.277";"1";"1";"0";"15";"14";"module.GoNoGopractice.exec-3945.GoNoGo_Practice";;;;;;;;;;;;;;;;;;;;;;;;;;;;;;;;;;;;;;;;;;;;;;;;;;;;;;;;;;;;;;;;;;;;;;;"1959";"2014-10-16 12:59:20.849";"27";"1";"FINISHED";"RIGHT";"failure";"606";"1";"2014-10-16 12:59:18.883";"3";;;;;;;;;;
"smitha59";;;"Windows 7";"Rachel's Experiment (D.T.)";"1.0";"2";"1";"1";"2";"1";"1";"2014-10-16 12:57:03.256";"2014-10-16 13:13:55.277";"1";"1";"0";"16";"15";"module.training_block1.exec-2885.GoNoGo1";;;;;;;;;;;;;;;;;;;;;;;"1257";"2014-10-16 12:59:37.229";"ST_correctStop";"5";"1";"FINISHED";"NONE";"success";"0";"1";"2014-10-16 12:59:35.965";"1";;;;;;;;;;;;;;;;;;;;;;;;;;;;;;;;;;;;;;;;;;;;;;;;;;;;;;;;;
"smitha59";;;"Windows 7";"Rachel's Experiment (D.T.)";"1.0";"2";"1";"1";"2";"1";"1";"2014-10-16 12:57:03.256";"2014-10-16 13:13:55.277";"1";"1";"0";"17";"16";"module.training_block1.exec-2885.GoNoGo1";;;;;;;;;;;;;;;;;;;;;;;"1258";"2014-10-16 12:59:39.771";"ST_correctStop";"0";"0";"FINISHED";"NONE";"success";"0";"1";"2014-10-16 12:59:38.508";"1";;;;;;;;;;;;;;;;;;;;;;;;;;;;;;;;;;;;;;;;;;;;;;;;;;;;;;;;;
"smitha59";;;"Windows 7";"Rachel's Experiment (D.T.)";"1.0";"2";"1";"1";"2";"1";"1";"2014-10-16 12:57:03.256";"2014-10-16 13:13:55.277";"1";"1";"0";"18";"17";"module.training_block1.exec-2885.GoNoGo1";;;;;;;;;;;;;;;;;;;;;;;"1258";"2014-10-16 12:59:42.314";"ST_correctStop";"30";"0";"FINISHED";"NONE";"success";"0";"1";"2014-10-16 12:59:41.051";"3";;;;;;;;;;;;;;;;;;;;;;;;;;;;;;;;;;;;;;;;;;;;;;;;;;;;;;;;;
"smitha59";;;"Windows 7";"Rachel's Experiment (D.T.)";"1.0";"2";"1";"1";"2";"1";"1";"2014-10-16 12:57:03.256";"2014-10-16 13:13:55.277";"1";"1";"0";"19";"18";"module.training_block1.exec-2885.GoNoGo1";;;;;;;;;;;;;;;;;;;;;;;"1258";"2014-10-16 12:59:44.857";"NST_correctLoc";"28";"1";"FINISHED";"RIGHT";"success";"504";"0";"2014-10-16 12:59:43.593";"3";;;;;;;;;;;;;;;;;;;;;;;;;;;;;;;;;;;;;;;;;;;;;;;;;;;;;;;;;
"smitha59";;;"Windows 7";"Rachel's Experiment (D.T.)";"1.0";"2";"1";"1";"2";"1";"1";"2014-10-16 12:57:03.256";"2014-10-16 13:13:55.277";"1";"1";"0";"20";"19";"module.training_block1.exec-2885.GoNoGo1";;;;;;;;;;;;;;;;;;;;;;;"1258";"2014-10-16 12:59:47.400";"NST_correctLoc";"19";"1";"FINISHED";"RIGHT";"success";"697";"0";"2014-10-16 12:59:46.136";"3";;;;;;;;;;;;;;;;;;;;;;;;;;;;;;;;;;;;;;;;;;;;;;;;;;;;;;;;;
"smitha59";;;"Windows 7";"Rachel's Experiment (D.T.)";"1.0";"2";"1";"1";"2";"1";"1";"2014-10-16 12:57:03.256";"2014-10-16 13:13:55.277";"1";"1";"0";"21";"20";"module.training_block1.exec-2885.GoNoGo1";;;;;;;;;;;;;;;;;;;;;;;"1257";"2014-10-16 12:59:49.943";"ST_correctStop";"8";"0";"FINISHED";"NONE";"success";"0";"1";"2014-10-16 12:59:48.679";"1";;;;;;;;;;;;;;;;;;;;;;;;;;;;;;;;;;;;;;;;;;;;;;;;;;;;;;;;;
"smitha59";;;"Windows 7";"Rachel's Experiment (D.T.)";"1.0";"2";"1";"1";"2";"1";"1";"2014-10-16 12:57:03.256";"2014-10-16 13:13:55.277";"1";"1";"0";"22";"21";"module.training_block1.exec-2885.GoNoGo1";;;;;;;;;;;;;;;;;;;;;;;"1257";"2014-10-16 12:59:52.486";"ST_correctStop";"23";"0";"FINISHED";"NONE";"success";"0";"1";"2014-10-16 12:59:51.222";"3";;;;;;;;;;;;;;;;;;;;;;;;;;;;;;;;;;;;;;;;;;;;;;;;;;;;;;;;;
"smitha59";;;"Windows 7";"Rachel's Experiment (D.T.)";"1.0";"2";"1";"1";"2";"1";"1";"2014-10-16 12:57:03.256";"2014-10-16 13:13:55.277";"1";"1";"0";"23";"22";"module.training_block1.exec-2885.GoNoGo1";;;;;;;;;;;;;;;;;;;;;;;"1258";"2014-10-16 12:59:55.028";"ST_correctStop";"1";"0";"FINISHED";"NONE";"success";"0";"1";"2014-10-16 12:59:53.765";"1";;;;;;;;;;;;;;;;;;;;;;;;;;;;;;;;;;;;;;;;;;;;;;;;;;;;;;;;;
"smitha59";;;"Windows 7";"Rachel's Experiment (D.T.)";"1.0";"2";"1";"1";"2";"1";"1";"2014-10-16 12:57:03.256";"2014-10-16 13:13:55.277";"1";"1";"0";"24";"23";"module.training_block1.exec-2885.GoNoGo1";;;;;;;;;;;;;;;;;;;;;;;"1258";"2014-10-16 12:59:57.571";"NST_correctLoc";"10";"1";"FINISHED";"RIGHT";"success";"494";"0";"2014-10-16 12:59:56.308";"2";;;;;;;;;;;;;;;;;;;;;;;;;;;;;;;;;;;;;;;;;;;;;;;;;;;;;;;;;
"smitha59";;;"Windows 7";"Rachel's Experiment (D.T.)";"1.0";"2";"1";"1";"2";"1";"1";"2014-10-16 12:57:03.256";"2014-10-16 13:13:55.277";"1";"1";"0";"25";"24";"module.training_block1.exec-2885.GoNoGo1";;;;;;;;;;;;;;;;;;;;;;;"1258";"2014-10-16 13:00:00.114";"NST_correctLoc";"29";"1";"FINISHED";"RIGHT";"success";"535";"0";"2014-10-16 12:59:58.850";"3";;;;;;;;;;;;;;;;;;;;;;;;;;;;;;;;;;;;;;;;;;;;;;;;;;;;;;;;;
"smitha59";;;"Windows 7";"Rachel's Experiment (D.T.)";"1.0";"2";"1";"1";"2";"1";"1";"2014-10-16 12:57:03.256";"2014-10-16 13:13:55.277";"1";"1";"0";"26";"25";"module.training_block1.exec-2885.GoNoGo1";;;;;;;;;;;;;;;;;;;;;;;"1257";"2014-10-16 13:00:02.657";"NST_correctLoc";"32";"0";"FINISHED";"LEFT";"success";"712";"0";"2014-10-16 13:00:01.393";"3";;;;;;;;;;;;;;;;;;;;;;;;;;;;;;;;;;;;;;;;;;;;;;;;;;;;;;;;;
"smitha59";;;"Windows 7";"Rachel's Experiment (D.T.)";"1.0";"2";"1";"1";"2";"1";"1";"2014-10-16 12:57:03.256";"2014-10-16 13:13:55.277";"1";"1";"0";"27";"26";"module.training_block1.exec-2885.GoNoGo1";;;;;;;;;;;;;;;;;;;;;;;"1253";"2014-10-16 13:00:05.200";"ST_correctStop";"7";"1";"FINISHED";"NONE";"success";"0";"1";"2014-10-16 13:00:03.936";"1";;;;;;;;;;;;;;;;;;;;;;;;;;;;;;;;;;;;;;;;;;;;;;;;;;;;;;;;;
"smitha59";;;"Windows 7";"Rachel's Experiment (D.T.)";"1.0";"2";"1";"1";"2";"1";"1";"2014-10-16 12:57:03.256";"2014-10-16 13:13:55.277";"1";"1";"0";"28";"27";"module.training_block1.exec-2885.GoNoGo1";;;;;;;;;;;;;;;;;;;;;;;"1257";"2014-10-16 13:00:07.742";"NST_correctLoc";"17";"1";"FINISHED";"RIGHT";"success";"578";"0";"2014-10-16 13:00:06.479";"2";;;;;;;;;;;;;;;;;;;;;;;;;;;;;;;;;;;;;;;;;;;;;;;;;;;;;;;;;
"smitha59";;;"Windows 7";"Rachel's Experiment (D.T.)";"1.0";"2";"1";"1";"2";"1";"1";"2014-10-16 12:57:03.256";"2014-10-16 13:13:55.277";"1";"1";"0";"29";"28";"module.training_block1.exec-2885.GoNoGo1";;;;;;;;;;;;;;;;;;;;;;;"1258";"2014-10-16 13:00:10.285";"ST_correctStop";"25";"0";"FINISHED";"NONE";"success";"0";"1";"2014-10-16 13:00:09.022";"3";;;;;;;;;;;;;;;;;;;;;;;;;;;;;;;;;;;;;;;;;;;;;;;;;;;;;;;;;
"smitha59";;;"Windows 7";"Rachel's Experiment (D.T.)";"1.0";"2";"1";"1";"2";"1";"1";"2014-10-16 12:57:03.256";"2014-10-16 13:13:55.277";"1";"1";"0";"30";"29";"module.training_block1.exec-2885.GoNoGo1";;;;;;;;;;;;;;;;;;;;;;;"1258";"2014-10-16 13:00:12.828";"ST_correctStop";"33";"1";"FINISHED";"NONE";"success";"0";"1";"2014-10-16 13:00:11.564";"3";;;;;;;;;;;;;;;;;;;;;;;;;;;;;;;;;;;;;;;;;;;;;;;;;;;;;;;;;
"smitha59";;;"Windows 7";"Rachel's Experiment (D.T.)";"1.0";"2";"1";"1";"2";"1";"1";"2014-10-16 12:57:03.256";"2014-10-16 13:13:55.277";"1";"1";"0";"31";"30";"module.training_block1.exec-2885.GoNoGo1";;;;;;;;;;;;;;;;;;;;;;;"1257";"2014-10-16 13:00:15.371";"NST_correctLoc";"31";"1";"FINISHED";"RIGHT";"success";"526";"0";"2014-10-16 13:00:14.107";"3";;;;;;;;;;;;;;;;;;;;;;;;;;;;;;;;;;;;;;;;;;;;;;;;;;;;;;;;;
"smitha59";;;"Windows 7";"Rachel's Experiment (D.T.)";"1.0";"2";"1";"1";"2";"1";"1";"2014-10-16 12:57:03.256";"2014-10-16 13:13:55.277";"1";"1";"0";"32";"31";"module.training_block1.exec-2885.GoNoGo1";;;;;;;;;;;;;;;;;;;;;;;"1258";"2014-10-16 13:00:17.914";"ST_correctStop";"34";"1";"FINISHED";"NONE";"success";"0";"1";"2014-10-16 13:00:16.650";"3";;;;;;;;;;;;;;;;;;;;;;;;;;;;;;;;;;;;;;;;;;;;;;;;;;;;;;;;;
"smitha59";;;"Windows 7";"Rachel's Experiment (D.T.)";"1.0";"2";"1";"1";"2";"1";"1";"2014-10-16 12:57:03.256";"2014-10-16 13:13:55.277";"1";"1";"0";"33";"32";"module.training_block1.exec-2885.GoNoGo1";;;;;;;;;;;;;;;;;;;;;;;"1258";"2014-10-16 13:00:20.456";"ST_correctStop";"24";"1";"FINISHED";"NONE";"success";"0";"1";"2014-10-16 13:00:19.193";"3";;;;;;;;;;;;;;;;;;;;;;;;;;;;;;;;;;;;;;;;;;;;;;;;;;;;;;;;;
"smitha59";;;"Windows 7";"Rachel's Experiment (D.T.)";"1.0";"2";"1";"1";"2";"1";"1";"2014-10-16 12:57:03.256";"2014-10-16 13:13:55.277";"1";"1";"0";"34";"33";"module.training_block1.exec-2885.GoNoGo1";;;;;;;;;;;;;;;;;;;;;;;"1257";"2014-10-16 13:00:22.999";"ST_correctStop";"26";"0";"FINISHED";"NONE";"success";"0";"1";"2014-10-16 13:00:21.736";"3";;;;;;;;;;;;;;;;;;;;;;;;;;;;;;;;;;;;;;;;;;;;;;;;;;;;;;;;;
"smitha59";;;"Windows 7";"Rachel's Experiment (D.T.)";"1.0";"2";"1";"1";"2";"1";"1";"2014-10-16 12:57:03.256";"2014-10-16 13:13:55.277";"1";"1";"0";"35";"34";"module.training_block1.exec-2885.GoNoGo1";;;;;;;;;;;;;;;;;;;;;;;"1257";"2014-10-16 13:00:25.542";"NST_correctLoc";"12";"1";"FINISHED";"RIGHT";"success";"562";"0";"2014-10-16 13:00:24.278";"2";;;;;;;;;;;;;;;;;;;;;;;;;;;;;;;;;;;;;;;;;;;;;;;;;;;;;;;;;
"smitha59";;;"Windows 7";"Rachel's Experiment (D.T.)";"1.0";"2";"1";"1";"2";"1";"1";"2014-10-16 12:57:03.256";"2014-10-16 13:13:55.277";"1";"1";"0";"36";"35";"module.training_block1.exec-2885.GoNoGo1";;;;;;;;;;;;;;;;;;;;;;;"1258";"2014-10-16 13:00:28.085";"ST_correctStop";"18";"0";"FINISHED";"NONE";"success";"0";"1";"2014-10-16 13:00:26.821";"3";;;;;;;;;;;;;;;;;;;;;;;;;;;;;;;;;;;;;;;;;;;;;;;;;;;;;;;;;
"smitha59";;;"Windows 7";"Rachel's Experiment (D.T.)";"1.0";"2";"1";"1";"2";"1";"1";"2014-10-16 12:57:03.256";"2014-10-16 13:13:55.277";"1";"1";"0";"37";"36";"module.training_block1.exec-2885.GoNoGo1";;;;;;;;;;;;;;;;;;;;;;;"1257";"2014-10-16 13:00:30.628";"NST_correctLoc";"21";"0";"FINISHED";"LEFT";"success";"677";"0";"2014-10-16 13:00:29.364";"3";;;;;;;;;;;;;;;;;;;;;;;;;;;;;;;;;;;;;;;;;;;;;;;;;;;;;;;;;
"smitha59";;;"Windows 7";"Rachel's Experiment (D.T.)";"1.0";"2";"1";"1";"2";"1";"1";"2014-10-16 12:57:03.256";"2014-10-16 13:13:55.277";"1";"1";"0";"38";"37";"module.training_block1.exec-2885.GoNoGo1";;;;;;;;;;;;;;;;;;;;;;;"1261";"2014-10-16 13:00:33.170";"NST_correctLoc";"27";"0";"FINISHED";"LEFT";"success";"546";"0";"2014-10-16 13:00:31.907";"3";;;;;;;;;;;;;;;;;;;;;;;;;;;;;;;;;;;;;;;;;;;;;;;;;;;;;;;;;
"smitha59";;;"Windows 7";"Rachel's Experiment (D.T.)";"1.0";"2";"1";"1";"2";"1";"1";"2014-10-16 12:57:03.256";"2014-10-16 13:13:55.277";"1";"1";"0";"39";"38";"module.training_block1.exec-2885.GoNoGo1";;;;;;;;;;;;;;;;;;;;;;;"1258";"2014-10-16 13:00:35.713";"NST_correctLoc";"20";"0";"FINISHED";"LEFT";"success";"575";"0";"2014-10-16 13:00:34.450";"3";;;;;;;;;;;;;;;;;;;;;;;;;;;;;;;;;;;;;;;;;;;;;;;;;;;;;;;;;
"smitha59";;;"Windows 7";"Rachel's Experiment (D.T.)";"1.0";"2";"1";"1";"2";"1";"1";"2014-10-16 12:57:03.256";"2014-10-16 13:13:55.277";"1";"1";"0";"40";"39";"module.training_block1.exec-2885.GoNoGo1";;;;;;;;;;;;;;;;;;;;;;;"1258";"2014-10-16 13:00:38.256";"NST_correctLoc";"9";"0";"FINISHED";"LEFT";"success";"577";"0";"2014-10-16 13:00:36.992";"2";;;;;;;;;;;;;;;;;;;;;;;;;;;;;;;;;;;;;;;;;;;;;;;;;;;;;;;;;
"smitha59";;;"Windows 7";"Rachel's Experiment (D.T.)";"1.0";"2";"1";"1";"2";"1";"1";"2014-10-16 12:57:03.256";"2014-10-16 13:13:55.277";"1";"1";"0";"41";"40";"module.training_block1.exec-2885.GoNoGo1";;;;;;;;;;;;;;;;;;;;;;;"1257";"2014-10-16 13:00:40.799";"ST_correctStop";"4";"0";"FINISHED";"NONE";"success";"0";"1";"2014-10-16 13:00:39.535";"1";;;;;;;;;;;;;;;;;;;;;;;;;;;;;;;;;;;;;;;;;;;;;;;;;;;;;;;;;
"smitha59";;;"Windows 7";"Rachel's Experiment (D.T.)";"1.0";"2";"1";"1";"2";"1";"1";"2014-10-16 12:57:03.256";"2014-10-16 13:13:55.277";"1";"1";"0";"42";"41";"module.training_block1.exec-2885.GoNoGo1";;;;;;;;;;;;;;;;;;;;;;;"1252";"2014-10-16 13:00:43.342";"ST_correctStop";"6";"0";"FINISHED";"NONE";"success";"0";"1";"2014-10-16 13:00:42.078";"1";;;;;;;;;;;;;;;;;;;;;;;;;;;;;;;;;;;;;;;;;;;;;;;;;;;;;;;;;
"smitha59";;;"Windows 7";"Rachel's Experiment (D.T.)";"1.0";"2";"1";"1";"2";"1";"1";"2014-10-16 12:57:03.256";"2014-10-16 13:13:55.277";"1";"1";"0";"43";"42";"module.training_block1.exec-2885.GoNoGo1";;;;;;;;;;;;;;;;;;;;;;;"1257";"2014-10-16 13:00:45.884";"NST_correctLoc";"15";"0";"FINISHED";"LEFT";"success";"596";"0";"2014-10-16 13:00:44.621";"2";;;;;;;;;;;;;;;;;;;;;;;;;;;;;;;;;;;;;;;;;;;;;;;;;;;;;;;;;
"smitha59";;;"Windows 7";"Rachel's Experiment (D.T.)";"1.0";"2";"1";"1";"2";"1";"1";"2014-10-16 12:57:03.256";"2014-10-16 13:13:55.277";"1";"1";"0";"44";"43";"module.training_block1.exec-2885.GoNoGo1";;;;;;;;;;;;;;;;;;;;;;;"1258";"2014-10-16 13:00:48.427";"ST_correctStop";"22";"0";"FINISHED";"NONE";"success";"0";"1";"2014-10-16 13:00:47.164";"3";;;;;;;;;;;;;;;;;;;;;;;;;;;;;;;;;;;;;;;;;;;;;;;;;;;;;;;;;
"smitha59";;;"Windows 7";"Rachel's Experiment (D.T.)";"1.0";"2";"1";"1";"2";"1";"1";"2014-10-16 12:57:03.256";"2014-10-16 13:13:55.277";"1";"1";"0";"45";"44";"module.training_block1.exec-2885.GoNoGo1";;;;;;;;;;;;;;;;;;;;;;;"1257";"2014-10-16 13:00:50.970";"NST_correctLoc";"13";"0";"FINISHED";"LEFT";"success";"630";"0";"2014-10-16 13:00:49.706";"2";;;;;;;;;;;;;;;;;;;;;;;;;;;;;;;;;;;;;;;;;;;;;;;;;;;;;;;;;
"smitha59";;;"Windows 7";"Rachel's Experiment (D.T.)";"1.0";"2";"1";"1";"2";"1";"1";"2014-10-16 12:57:03.256";"2014-10-16 13:13:55.277";"1";"1";"0";"46";"45";"module.training_block1.exec-2885.GoNoGo1";;;;;;;;;;;;;;;;;;;;;;;"1257";"2014-10-16 13:00:53.513";"NST_correctLoc";"14";"1";"FINISHED";"RIGHT";"success";"511";"0";"2014-10-16 13:00:52.249";"2";;;;;;;;;;;;;;;;;;;;;;;;;;;;;;;;;;;;;;;;;;;;;;;;;;;;;;;;;
"smitha59";;;"Windows 7";"Rachel's Experiment (D.T.)";"1.0";"2";"1";"1";"2";"1";"1";"2014-10-16 12:57:03.256";"2014-10-16 13:13:55.277";"1";"1";"0";"47";"46";"module.training_block1.exec-2885.GoNoGo1";;;;;;;;;;;;;;;;;;;;;;;"1258";"2014-10-16 13:00:56.056";"NST_correctLoc";"11";"1";"FINISHED";"RIGHT";"success";"585";"0";"2014-10-16 13:00:54.792";"2";;;;;;;;;;;;;;;;;;;;;;;;;;;;;;;;;;;;;;;;;;;;;;;;;;;;;;;;;
"smitha59";;;"Windows 7";"Rachel's Experiment (D.T.)";"1.0";"2";"1";"1";"2";"1";"1";"2014-10-16 12:57:03.256";"2014-10-16 13:13:55.277";"1";"1";"0";"48";"47";"module.training_block1.exec-2885.GoNoGo1";;;;;;;;;;;;;;;;;;;;;;;"1258";"2014-10-16 13:00:58.598";"NST_correctLoc";"35";"0";"FINISHED";"LEFT";"success";"626";"0";"2014-10-16 13:00:57.335";"3";;;;;;;;;;;;;;;;;;;;;;;;;;;;;;;;;;;;;;;;;;;;;;;;;;;;;;;;;
"smitha59";;;"Windows 7";"Rachel's Experiment (D.T.)";"1.0";"2";"1";"1";"2";"1";"1";"2014-10-16 12:57:03.256";"2014-10-16 13:13:55.277";"1";"1";"0";"49";"48";"module.training_block1.exec-2885.GoNoGo1";;;;;;;;;;;;;;;;;;;;;;;"1258";"2014-10-16 13:01:01.141";"NST_correctLoc";"16";"1";"FINISHED";"RIGHT";"success";"507";"0";"2014-10-16 13:00:59.878";"2";;;;;;;;;;;;;;;;;;;;;;;;;;;;;;;;;;;;;;;;;;;;;;;;;;;;;;;;;
"smitha59";;;"Windows 7";"Rachel's Experiment (D.T.)";"1.0";"2";"1";"1";"2";"1";"1";"2014-10-16 12:57:03.256";"2014-10-16 13:13:55.277";"1";"1";"0";"50";"49";"module.training_block1.exec-2885.GoNoGo1";;;;;;;;;;;;;;;;;;;;;;;"1261";"2014-10-16 13:01:03.684";"ST_correctStop";"3";"0";"FINISHED";"NONE";"success";"0";"1";"2014-10-16 13:01:02.420";"1";;;;;;;;;;;;;;;;;;;;;;;;;;;;;;;;;;;;;;;;;;;;;;;;;;;;;;;;;
"smitha59";;;"Windows 7";"Rachel's Experiment (D.T.)";"1.0";"2";"1";"1";"2";"1";"1";"2014-10-16 12:57:03.256";"2014-10-16 13:13:55.277";"1";"1";"0";"51";"50";"module.training_block1.exec-2885.GoNoGo1";;;;;;;;;;;;;;;;;;;;;;;"1257";"2014-10-16 13:01:06.227";"ST_correctStop";"2";"1";"FINISHED";"NONE";"success";"0";"1";"2014-10-16 13:01:04.963";"1";;;;;;;;;;;;;;;;;;;;;;;;;;;;;;;;;;;;;;;;;;;;;;;;;;;;;;;;;
"smitha59";;;"Windows 7";"Rachel's Experiment (D.T.)";"1.0";"2";"1";"1";"2";"1";"1";"2014-10-16 12:57:03.256";"2014-10-16 13:13:55.277";"1";"1";"0";"52";"51";"module.training_block2.exec-3383.GoNoGo2";;;;;;;;;;;;;;;;;;;;;;;;;;;;;;;;;;;"1261";"2014-10-16 13:01:18.847";"NST_correctLoc";"19";"0";"FINISHED";"LEFT";"success";"509";"0";"2014-10-16 13:01:17.584";"3";;;;;;;;;;;;;;;;;;;;;;;;;;;;;;;;;;;;;;;;;;;;;
"smitha59";;;"Windows 7";"Rachel's Experiment (D.T.)";"1.0";"2";"1";"1";"2";"1";"1";"2014-10-16 12:57:03.256";"2014-10-16 13:13:55.277";"1";"1";"0";"53";"52";"module.training_block2.exec-3383.GoNoGo2";;;;;;;;;;;;;;;;;;;;;;;;;;;;;;;;;;;"1261";"2014-10-16 13:01:21.390";"NST_correctLoc";"20";"1";"FINISHED";"RIGHT";"success";"638";"0";"2014-10-16 13:01:20.126";"3";;;;;;;;;;;;;;;;;;;;;;;;;;;;;;;;;;;;;;;;;;;;;
"smitha59";;;"Windows 7";"Rachel's Experiment (D.T.)";"1.0";"2";"1";"1";"2";"1";"1";"2014-10-16 12:57:03.256";"2014-10-16 13:13:55.277";"1";"1";"0";"54";"53";"module.training_block2.exec-3383.GoNoGo2";;;;;;;;;;;;;;;;;;;;;;;;;;;;;;;;;;;"1261";"2014-10-16 13:01:23.933";"NST_correctLoc";"21";"1";"FINISHED";"RIGHT";"success";"487";"0";"2014-10-16 13:01:22.669";"3";;;;;;;;;;;;;;;;;;;;;;;;;;;;;;;;;;;;;;;;;;;;;
"smitha59";;;"Windows 7";"Rachel's Experiment (D.T.)";"1.0";"2";"1";"1";"2";"1";"1";"2014-10-16 12:57:03.256";"2014-10-16 13:13:55.277";"1";"1";"0";"55";"54";"module.training_block2.exec-3383.GoNoGo2";;;;;;;;;;;;;;;;;;;;;;;;;;;;;;;;;;;"1261";"2014-10-16 13:01:26.476";"NST_correctLoc";"9";"1";"FINISHED";"RIGHT";"success";"496";"0";"2014-10-16 13:01:25.212";"2";;;;;;;;;;;;;;;;;;;;;;;;;;;;;;;;;;;;;;;;;;;;;
"smitha59";;;"Windows 7";"Rachel's Experiment (D.T.)";"1.0";"2";"1";"1";"2";"1";"1";"2014-10-16 12:57:03.256";"2014-10-16 13:13:55.277";"1";"1";"0";"56";"55";"module.training_block2.exec-3383.GoNoGo2";;;;;;;;;;;;;;;;;;;;;;;;;;;;;;;;;;;"1261";"2014-10-16 13:01:29.018";"ST_correctStop";"2";"0";"FINISHED";"NONE";"success";"0";"1";"2014-10-16 13:01:27.755";"1";;;;;;;;;;;;;;;;;;;;;;;;;;;;;;;;;;;;;;;;;;;;;
"smitha59";;;"Windows 7";"Rachel's Experiment (D.T.)";"1.0";"2";"1";"1";"2";"1";"1";"2014-10-16 12:57:03.256";"2014-10-16 13:13:55.277";"1";"1";"0";"57";"56";"module.training_block2.exec-3383.GoNoGo2";;;;;;;;;;;;;;;;;;;;;;;;;;;;;;;;;;;"1261";"2014-10-16 13:01:31.561";"NST_correctLoc";"13";"1";"FINISHED";"RIGHT";"success";"483";"0";"2014-10-16 13:01:30.298";"2";;;;;;;;;;;;;;;;;;;;;;;;;;;;;;;;;;;;;;;;;;;;;
"smitha59";;;"Windows 7";"Rachel's Experiment (D.T.)";"1.0";"2";"1";"1";"2";"1";"1";"2014-10-16 12:57:03.256";"2014-10-16 13:13:55.277";"1";"1";"0";"58";"57";"module.training_block2.exec-3383.GoNoGo2";;;;;;;;;;;;;;;;;;;;;;;;;;;;;;;;;;;"1261";"2014-10-16 13:01:34.104";"ST_correctStop";"25";"1";"FINISHED";"NONE";"success";"0";"1";"2014-10-16 13:01:32.840";"3";;;;;;;;;;;;;;;;;;;;;;;;;;;;;;;;;;;;;;;;;;;;;
"smitha59";;;"Windows 7";"Rachel's Experiment (D.T.)";"1.0";"2";"1";"1";"2";"1";"1";"2014-10-16 12:57:03.256";"2014-10-16 13:13:55.277";"1";"1";"0";"59";"58";"module.training_block2.exec-3383.GoNoGo2";;;;;;;;;;;;;;;;;;;;;;;;;;;;;;;;;;;"1261";"2014-10-16 13:01:36.647";"NST_correctLoc";"15";"0";"FINISHED";"LEFT";"success";"445";"0";"2014-10-16 13:01:35.383";"2";;;;;;;;;;;;;;;;;;;;;;;;;;;;;;;;;;;;;;;;;;;;;
"smitha59";;;"Windows 7";"Rachel's Experiment (D.T.)";"1.0";"2";"1";"1";"2";"1";"1";"2014-10-16 12:57:03.256";"2014-10-16 13:13:55.277";"1";"1";"0";"60";"59";"module.training_block2.exec-3383.GoNoGo2";;;;;;;;;;;;;;;;;;;;;;;;;;;;;;;;;;;"1261";"2014-10-16 13:01:39.190";"NST_correctLoc";"10";"1";"FINISHED";"RIGHT";"success";"614";"0";"2014-10-16 13:01:37.926";"2";;;;;;;;;;;;;;;;;;;;;;;;;;;;;;;;;;;;;;;;;;;;;
"smitha59";;;"Windows 7";"Rachel's Experiment (D.T.)";"1.0";"2";"1";"1";"2";"1";"1";"2014-10-16 12:57:03.256";"2014-10-16 13:13:55.277";"1";"1";"0";"61";"60";"module.training_block2.exec-3383.GoNoGo2";;;;;;;;;;;;;;;;;;;;;;;;;;;;;;;;;;;"1261";"2014-10-16 13:01:41.733";"ST_correctStop";"24";"0";"FINISHED";"NONE";"success";"0";"1";"2014-10-16 13:01:40.469";"3";;;;;;;;;;;;;;;;;;;;;;;;;;;;;;;;;;;;;;;;;;;;;
"smitha59";;;"Windows 7";"Rachel's Experiment (D.T.)";"1.0";"2";"1";"1";"2";"1";"1";"2014-10-16 12:57:03.256";"2014-10-16 13:13:55.277";"1";"1";"0";"62";"61";"module.training_block2.exec-3383.GoNoGo2";;;;;;;;;;;;;;;;;;;;;;;;;;;;;;;;;;;"1261";"2014-10-16 13:01:44.275";"ST_correctStop";"8";"0";"FINISHED";"NONE";"success";"0";"1";"2014-10-16 13:01:43.012";"1";;;;;;;;;;;;;;;;;;;;;;;;;;;;;;;;;;;;;;;;;;;;;
"smitha59";;;"Windows 7";"Rachel's Experiment (D.T.)";"1.0";"2";"1";"1";"2";"1";"1";"2014-10-16 12:57:03.256";"2014-10-16 13:13:55.277";"1";"1";"0";"63";"62";"module.training_block2.exec-3383.GoNoGo2";;;;;;;;;;;;;;;;;;;;;;;;;;;;;;;;;;;"1261";"2014-10-16 13:01:46.818";"ST_correctStop";"29";"0";"FINISHED";"NONE";"success";"0";"1";"2014-10-16 13:01:45.555";"3";;;;;;;;;;;;;;;;;;;;;;;;;;;;;;;;;;;;;;;;;;;;;
"smitha59";;;"Windows 7";"Rachel's Experiment (D.T.)";"1.0";"2";"1";"1";"2";"1";"1";"2014-10-16 12:57:03.256";"2014-10-16 13:13:55.277";"1";"1";"0";"64";"63";"module.training_block2.exec-3383.GoNoGo2";;;;;;;;;;;;;;;;;;;;;;;;;;;;;;;;;;;"1261";"2014-10-16 13:01:49.361";"ST_correctStop";"3";"1";"FINISHED";"NONE";"success";"0";"1";"2014-10-16 13:01:48.097";"1";;;;;;;;;;;;;;;;;;;;;;;;;;;;;;;;;;;;;;;;;;;;;
"smitha59";;;"Windows 7";"Rachel's Experiment (D.T.)";"1.0";"2";"1";"1";"2";"1";"1";"2014-10-16 12:57:03.256";"2014-10-16 13:13:55.277";"1";"1";"0";"65";"64";"module.training_block2.exec-3383.GoNoGo2";;;;;;;;;;;;;;;;;;;;;;;;;;;;;;;;;;;"1261";"2014-10-16 13:01:51.904";"ST_correctStop";"0";"0";"FINISHED";"NONE";"success";"0";"1";"2014-10-16 13:01:50.640";"1";;;;;;;;;;;;;;;;;;;;;;;;;;;;;;;;;;;;;;;;;;;;;
"smitha59";;;"Windows 7";"Rachel's Experiment (D.T.)";"1.0";"2";"1";"1";"2";"1";"1";"2014-10-16 12:57:03.256";"2014-10-16 13:13:55.277";"1";"1";"0";"66";"65";"module.training_block2.exec-3383.GoNoGo2";;;;;;;;;;;;;;;;;;;;;;;;;;;;;;;;;;;"1261";"2014-10-16 13:01:54.447";"NST_correctLoc";"35";"1";"FINISHED";"RIGHT";"success";"533";"0";"2014-10-16 13:01:53.183";"3";;;;;;;;;;;;;;;;;;;;;;;;;;;;;;;;;;;;;;;;;;;;;
"smitha59";;;"Windows 7";"Rachel's Experiment (D.T.)";"1.0";"2";"1";"1";"2";"1";"1";"2014-10-16 12:57:03.256";"2014-10-16 13:13:55.277";"1";"1";"0";"67";"66";"module.training_block2.exec-3383.GoNoGo2";;;;;;;;;;;;;;;;;;;;;;;;;;;;;;;;;;;"1261";"2014-10-16 13:01:56.989";"NST_correctLoc";"14";"1";"FINISHED";"RIGHT";"success";"526";"0";"2014-10-16 13:01:55.726";"2";;;;;;;;;;;;;;;;;;;;;;;;;;;;;;;;;;;;;;;;;;;;;
"smitha59";;;"Windows 7";"Rachel's Experiment (D.T.)";"1.0";"2";"1";"1";"2";"1";"1";"2014-10-16 12:57:03.256";"2014-10-16 13:13:55.277";"1";"1";"0";"68";"67";"module.training_block2.exec-3383.GoNoGo2";;;;;;;;;;;;;;;;;;;;;;;;;;;;;;;;;;;"1261";"2014-10-16 13:01:59.532";"NST_correctLoc";"32";"1";"FINISHED";"RIGHT";"success";"448";"0";"2014-10-16 13:01:58.269";"3";;;;;;;;;;;;;;;;;;;;;;;;;;;;;;;;;;;;;;;;;;;;;
"smitha59";;;"Windows 7";"Rachel's Experiment (D.T.)";"1.0";"2";"1";"1";"2";"1";"1";"2014-10-16 12:57:03.256";"2014-10-16 13:13:55.277";"1";"1";"0";"69";"68";"module.training_block2.exec-3383.GoNoGo2";;;;;;;;;;;;;;;;;;;;;;;;;;;;;;;;;;;"1261";"2014-10-16 13:02:02.075";"NST_correctLoc";"28";"0";"FINISHED";"LEFT";"success";"513";"0";"2014-10-16 13:02:00.811";"3";;;;;;;;;;;;;;;;;;;;;;;;;;;;;;;;;;;;;;;;;;;;;
"smitha59";;;"Windows 7";"Rachel's Experiment (D.T.)";"1.0";"2";"1";"1";"2";"1";"1";"2014-10-16 12:57:03.256";"2014-10-16 13:13:55.277";"1";"1";"0";"70";"69";"module.training_block2.exec-3383.GoNoGo2";;;;;;;;;;;;;;;;;;;;;;;;;;;;;;;;;;;"1261";"2014-10-16 13:02:04.618";"NST_correctLoc";"16";"0";"FINISHED";"LEFT";"success";"530";"0";"2014-10-16 13:02:03.354";"2";;;;;;;;;;;;;;;;;;;;;;;;;;;;;;;;;;;;;;;;;;;;;
"smitha59";;;"Windows 7";"Rachel's Experiment (D.T.)";"1.0";"2";"1";"1";"2";"1";"1";"2014-10-16 12:57:03.256";"2014-10-16 13:13:55.277";"1";"1";"0";"71";"70";"module.training_block2.exec-3383.GoNoGo2";;;;;;;;;;;;;;;;;;;;;;;;;;;;;;;;;;;"1261";"2014-10-16 13:02:07.161";"ST_correctStop";"34";"0";"FINISHED";"NONE";"success";"0";"1";"2014-10-16 13:02:05.897";"3";;;;;;;;;;;;;;;;;;;;;;;;;;;;;;;;;;;;;;;;;;;;;
"smitha59";;;"Windows 7";"Rachel's Experiment (D.T.)";"1.0";"2";"1";"1";"2";"1";"1";"2014-10-16 12:57:03.256";"2014-10-16 13:13:55.277";"1";"1";"0";"72";"71";"module.training_block2.exec-3383.GoNoGo2";;;;;;;;;;;;;;;;;;;;;;;;;;;;;;;;;;;"1261";"2014-10-16 13:02:09.703";"ST_correctStop";"6";"1";"FINISHED";"NONE";"success";"0";"1";"2014-10-16 13:02:08.440";"1";;;;;;;;;;;;;;;;;;;;;;;;;;;;;;;;;;;;;;;;;;;;;
"smitha59";;;"Windows 7";"Rachel's Experiment (D.T.)";"1.0";"2";"1";"1";"2";"1";"1";"2014-10-16 12:57:03.256";"2014-10-16 13:13:55.277";"1";"1";"0";"73";"72";"module.training_block2.exec-3383.GoNoGo2";;;;;;;;;;;;;;;;;;;;;;;;;;;;;;;;;;;"1261";"2014-10-16 13:02:12.246";"ST_correctStop";"33";"0";"FINISHED";"NONE";"success";"0";"1";"2014-10-16 13:02:10.983";"3";;;;;;;;;;;;;;;;;;;;;;;;;;;;;;;;;;;;;;;;;;;;;
"smitha59";;;"Windows 7";"Rachel's Experiment (D.T.)";"1.0";"2";"1";"1";"2";"1";"1";"2014-10-16 12:57:03.256";"2014-10-16 13:13:55.277";"1";"1";"0";"74";"73";"module.training_block2.exec-3383.GoNoGo2";;;;;;;;;;;;;;;;;;;;;;;;;;;;;;;;;;;"1261";"2014-10-16 13:02:14.789";"ST_correctStop";"4";"0";"FINISHED";"NONE";"success";"0";"1";"2014-10-16 13:02:13.525";"1";;;;;;;;;;;;;;;;;;;;;;;;;;;;;;;;;;;;;;;;;;;;;
"smitha59";;;"Windows 7";"Rachel's Experiment (D.T.)";"1.0";"2";"1";"1";"2";"1";"1";"2014-10-16 12:57:03.256";"2014-10-16 13:13:55.277";"1";"1";"0";"75";"74";"module.training_block2.exec-3383.GoNoGo2";;;;;;;;;;;;;;;;;;;;;;;;;;;;;;;;;;;"1261";"2014-10-16 13:02:17.332";"ST_correctStop";"31";"0";"FINISHED";"NONE";"success";"0";"1";"2014-10-16 13:02:16.068";"3";;;;;;;;;;;;;;;;;;;;;;;;;;;;;;;;;;;;;;;;;;;;;
"smitha59";;;"Windows 7";"Rachel's Experiment (D.T.)";"1.0";"2";"1";"1";"2";"1";"1";"2014-10-16 12:57:03.256";"2014-10-16 13:13:55.277";"1";"1";"0";"76";"75";"module.training_block2.exec-3383.GoNoGo2";;;;;;;;;;;;;;;;;;;;;;;;;;;;;;;;;;;"1261";"2014-10-16 13:02:19.875";"NST_correctLoc";"17";"1";"FINISHED";"RIGHT";"success";"465";"0";"2014-10-16 13:02:18.611";"2";;;;;;;;;;;;;;;;;;;;;;;;;;;;;;;;;;;;;;;;;;;;;
"smitha59";;;"Windows 7";"Rachel's Experiment (D.T.)";"1.0";"2";"1";"1";"2";"1";"1";"2014-10-16 12:57:03.256";"2014-10-16 13:13:55.277";"1";"1";"0";"77";"76";"module.training_block2.exec-3383.GoNoGo2";;;;;;;;;;;;;;;;;;;;;;;;;;;;;;;;;;;"1261";"2014-10-16 13:02:22.417";"NST_correctLoc";"27";"0";"FINISHED";"LEFT";"success";"538";"0";"2014-10-16 13:02:21.154";"3";;;;;;;;;;;;;;;;;;;;;;;;;;;;;;;;;;;;;;;;;;;;;
"smitha59";;;"Windows 7";"Rachel's Experiment (D.T.)";"1.0";"2";"1";"1";"2";"1";"1";"2014-10-16 12:57:03.256";"2014-10-16 13:13:55.277";"1";"1";"0";"78";"77";"module.training_block2.exec-3383.GoNoGo2";;;;;;;;;;;;;;;;;;;;;;;;;;;;;;;;;;;"1261";"2014-10-16 13:02:24.960";"ST_correctStop";"5";"0";"FINISHED";"NONE";"success";"0";"1";"2014-10-16 13:02:23.697";"1";;;;;;;;;;;;;;;;;;;;;;;;;;;;;;;;;;;;;;;;;;;;;
"smitha59";;;"Windows 7";"Rachel's Experiment (D.T.)";"1.0";"2";"1";"1";"2";"1";"1";"2014-10-16 12:57:03.256";"2014-10-16 13:13:55.277";"1";"1";"0";"79";"78";"module.training_block2.exec-3383.GoNoGo2";;;;;;;;;;;;;;;;;;;;;;;;;;;;;;;;;;;"1261";"2014-10-16 13:02:27.503";"NST_correctLoc";"30";"0";"FINISHED";"LEFT";"success";"517";"0";"2014-10-16 13:02:26.239";"3";;;;;;;;;;;;;;;;;;;;;;;;;;;;;;;;;;;;;;;;;;;;;
"smitha59";;;"Windows 7";"Rachel's Experiment (D.T.)";"1.0";"2";"1";"1";"2";"1";"1";"2014-10-16 12:57:03.256";"2014-10-16 13:13:55.277";"1";"1";"0";"80";"79";"module.training_block2.exec-3383.GoNoGo2";;;;;;;;;;;;;;;;;;;;;;;;;;;;;;;;;;;"1261";"2014-10-16 13:02:30.046";"NST_correctLoc";"12";"0";"FINISHED";"LEFT";"success";"438";"0";"2014-10-16 13:02:28.782";"2";;;;;;;;;;;;;;;;;;;;;;;;;;;;;;;;;;;;;;;;;;;;;
"smitha59";;;"Windows 7";"Rachel's Experiment (D.T.)";"1.0";"2";"1";"1";"2";"1";"1";"2014-10-16 12:57:03.256";"2014-10-16 13:13:55.277";"1";"1";"0";"81";"80";"module.training_block2.exec-3383.GoNoGo2";;;;;;;;;;;;;;;;;;;;;;;;;;;;;;;;;;;"1261";"2014-10-16 13:02:32.589";"NST_correctLoc";"22";"1";"FINISHED";"RIGHT";"success";"471";"0";"2014-10-16 13:02:31.325";"3";;;;;;;;;;;;;;;;;;;;;;;;;;;;;;;;;;;;;;;;;;;;;
"smitha59";;;"Windows 7";"Rachel's Experiment (D.T.)";"1.0";"2";"1";"1";"2";"1";"1";"2014-10-16 12:57:03.256";"2014-10-16 13:13:55.277";"1";"1";"0";"82";"81";"module.training_block2.exec-3383.GoNoGo2";;;;;;;;;;;;;;;;;;;;;;;;;;;;;;;;;;;"1261";"2014-10-16 13:02:35.131";"ST_correctStop";"23";"1";"FINISHED";"NONE";"success";"0";"1";"2014-10-16 13:02:33.868";"3";;;;;;;;;;;;;;;;;;;;;;;;;;;;;;;;;;;;;;;;;;;;;
"smitha59";;;"Windows 7";"Rachel's Experiment (D.T.)";"1.0";"2";"1";"1";"2";"1";"1";"2014-10-16 12:57:03.256";"2014-10-16 13:13:55.277";"1";"1";"0";"83";"82";"module.training_block2.exec-3383.GoNoGo2";;;;;;;;;;;;;;;;;;;;;;;;;;;;;;;;;;;"1261";"2014-10-16 13:02:37.674";"ST_correctStop";"7";"0";"FINISHED";"NONE";"success";"0";"1";"2014-10-16 13:02:36.411";"1";;;;;;;;;;;;;;;;;;;;;;;;;;;;;;;;;;;;;;;;;;;;;
"smitha59";;;"Windows 7";"Rachel's Experiment (D.T.)";"1.0";"2";"1";"1";"2";"1";"1";"2014-10-16 12:57:03.256";"2014-10-16 13:13:55.277";"1";"1";"0";"84";"83";"module.training_block2.exec-3383.GoNoGo2";;;;;;;;;;;;;;;;;;;;;;;;;;;;;;;;;;;"1261";"2014-10-16 13:02:40.217";"ST_correctStop";"26";"0";"FINISHED";"NONE";"success";"0";"1";"2014-10-16 13:02:38.953";"3";;;;;;;;;;;;;;;;;;;;;;;;;;;;;;;;;;;;;;;;;;;;;
"smitha59";;;"Windows 7";"Rachel's Experiment (D.T.)";"1.0";"2";"1";"1";"2";"1";"1";"2014-10-16 12:57:03.256";"2014-10-16 13:13:55.277";"1";"1";"0";"85";"84";"module.training_block2.exec-3383.GoNoGo2";;;;;;;;;;;;;;;;;;;;;;;;;;;;;;;;;;;"1261";"2014-10-16 13:02:42.760";"ST_correctStop";"1";"0";"FINISHED";"NONE";"success";"0";"1";"2014-10-16 13:02:41.496";"1";;;;;;;;;;;;;;;;;;;;;;;;;;;;;;;;;;;;;;;;;;;;;
"smitha59";;;"Windows 7";"Rachel's Experiment (D.T.)";"1.0";"2";"1";"1";"2";"1";"1";"2014-10-16 12:57:03.256";"2014-10-16 13:13:55.277";"1";"1";"0";"86";"85";"module.training_block2.exec-3383.GoNoGo2";;;;;;;;;;;;;;;;;;;;;;;;;;;;;;;;;;;"1261";"2014-10-16 13:02:45.303";"ST_correctStop";"18";"1";"FINISHED";"NONE";"success";"0";"1";"2014-10-16 13:02:44.039";"3";;;;;;;;;;;;;;;;;;;;;;;;;;;;;;;;;;;;;;;;;;;;;
"smitha59";;;"Windows 7";"Rachel's Experiment (D.T.)";"1.0";"2";"1";"1";"2";"1";"1";"2014-10-16 12:57:03.256";"2014-10-16 13:13:55.277";"1";"1";"0";"87";"86";"module.training_block2.exec-3383.GoNoGo2";;;;;;;;;;;;;;;;;;;;;;;;;;;;;;;;;;;"1261";"2014-10-16 13:02:47.845";"NST_correctLoc";"11";"1";"FINISHED";"RIGHT";"success";"542";"0";"2014-10-16 13:02:46.582";"2";;;;;;;;;;;;;;;;;;;;;;;;;;;;;;;;;;;;;;;;;;;;;
"smitha59";;;"Windows 7";"Rachel's Experiment (D.T.)";"1.0";"2";"1";"1";"2";"1";"1";"2014-10-16 12:57:03.256";"2014-10-16 13:13:55.277";"1";"1";"0";"88";"87";"module.training_block3.exec-8069.GoNoGo3";;;;;;;;;;;;;;;;;;;;;;;;;;;;;;;;;;;;;;;;;;;;;;;"1261";"2014-10-16 13:02:59.686";"ST_correctStop";"8";"1";"FINISHED";"NONE";"success";"0";"1";"2014-10-16 13:02:58.422";"1";;;;;;;;;;;;;;;;;;;;;;;;;;;;;;;;;
"smitha59";;;"Windows 7";"Rachel's Experiment (D.T.)";"1.0";"2";"1";"1";"2";"1";"1";"2014-10-16 12:57:03.256";"2014-10-16 13:13:55.277";"1";"1";"0";"89";"88";"module.training_block3.exec-8069.GoNoGo3";;;;;;;;;;;;;;;;;;;;;;;;;;;;;;;;;;;;;;;;;;;;;;;"1261";"2014-10-16 13:03:02.229";"ST_correctStop";"7";"0";"FINISHED";"NONE";"success";"0";"1";"2014-10-16 13:03:00.965";"1";;;;;;;;;;;;;;;;;;;;;;;;;;;;;;;;;
"smitha59";;;"Windows 7";"Rachel's Experiment (D.T.)";"1.0";"2";"1";"1";"2";"1";"1";"2014-10-16 12:57:03.256";"2014-10-16 13:13:55.277";"1";"1";"0";"90";"89";"module.training_block3.exec-8069.GoNoGo3";;;;;;;;;;;;;;;;;;;;;;;;;;;;;;;;;;;;;;;;;;;;;;;"1261";"2014-10-16 13:03:04.771";"NST_correctLoc";"31";"0";"FINISHED";"LEFT";"success";"416";"0";"2014-10-16 13:03:03.508";"3";;;;;;;;;;;;;;;;;;;;;;;;;;;;;;;;;
"smitha59";;;"Windows 7";"Rachel's Experiment (D.T.)";"1.0";"2";"1";"1";"2";"1";"1";"2014-10-16 12:57:03.256";"2014-10-16 13:13:55.277";"1";"1";"0";"91";"90";"module.training_block3.exec-8069.GoNoGo3";;;;;;;;;;;;;;;;;;;;;;;;;;;;;;;;;;;;;;;;;;;;;;;"1261";"2014-10-16 13:03:07.314";"NST_correctLoc";"27";"0";"FINISHED";"LEFT";"success";"441";"0";"2014-10-16 13:03:06.051";"3";;;;;;;;;;;;;;;;;;;;;;;;;;;;;;;;;
"smitha59";;;"Windows 7";"Rachel's Experiment (D.T.)";"1.0";"2";"1";"1";"2";"1";"1";"2014-10-16 12:57:03.256";"2014-10-16 13:13:55.277";"1";"1";"0";"92";"91";"module.training_block3.exec-8069.GoNoGo3";;;;;;;;;;;;;;;;;;;;;;;;;;;;;;;;;;;;;;;;;;;;;;;"1261";"2014-10-16 13:03:09.857";"ST_correctStop";"3";"0";"FINISHED";"NONE";"success";"0";"1";"2014-10-16 13:03:08.593";"1";;;;;;;;;;;;;;;;;;;;;;;;;;;;;;;;;
"smitha59";;;"Windows 7";"Rachel's Experiment (D.T.)";"1.0";"2";"1";"1";"2";"1";"1";"2014-10-16 12:57:03.256";"2014-10-16 13:13:55.277";"1";"1";"0";"93";"92";"module.training_block3.exec-8069.GoNoGo3";;;;;;;;;;;;;;;;;;;;;;;;;;;;;;;;;;;;;;;;;;;;;;;"1261";"2014-10-16 13:03:12.400";"NST_correctLoc";"14";"1";"FINISHED";"RIGHT";"success";"476";"0";"2014-10-16 13:03:11.136";"2";;;;;;;;;;;;;;;;;;;;;;;;;;;;;;;;;
"smitha59";;;"Windows 7";"Rachel's Experiment (D.T.)";"1.0";"2";"1";"1";"2";"1";"1";"2014-10-16 12:57:03.256";"2014-10-16 13:13:55.277";"1";"1";"0";"94";"93";"module.training_block3.exec-8069.GoNoGo3";;;;;;;;;;;;;;;;;;;;;;;;;;;;;;;;;;;;;;;;;;;;;;;"1261";"2014-10-16 13:03:14.943";"NST_correctLoc";"19";"1";"FINISHED";"RIGHT";"success";"477";"0";"2014-10-16 13:03:13.679";"3";;;;;;;;;;;;;;;;;;;;;;;;;;;;;;;;;
"smitha59";;;"Windows 7";"Rachel's Experiment (D.T.)";"1.0";"2";"1";"1";"2";"1";"1";"2014-10-16 12:57:03.256";"2014-10-16 13:13:55.277";"1";"1";"0";"95";"94";"module.training_block3.exec-8069.GoNoGo3";;;;;;;;;;;;;;;;;;;;;;;;;;;;;;;;;;;;;;;;;;;;;;;"1261";"2014-10-16 13:03:17.501";"ST_correctStop";"1";"0";"FINISHED";"NONE";"success";"0";"1";"2014-10-16 13:03:16.237";"1";;;;;;;;;;;;;;;;;;;;;;;;;;;;;;;;;
"smitha59";;;"Windows 7";"Rachel's Experiment (D.T.)";"1.0";"2";"1";"1";"2";"1";"1";"2014-10-16 12:57:03.256";"2014-10-16 13:13:55.277";"1";"1";"0";"96";"95";"module.training_block3.exec-8069.GoNoGo3";;;;;;;;;;;;;;;;;;;;;;;;;;;;;;;;;;;;;;;;;;;;;;;"1261";"2014-10-16 13:03:20.044";"NST_correctLoc";"16";"1";"FINISHED";"RIGHT";"success";"440";"0";"2014-10-16 13:03:18.780";"2";;;;;;;;;;;;;;;;;;;;;;;;;;;;;;;;;
"smitha59";;;"Windows 7";"Rachel's Experiment (D.T.)";"1.0";"2";"1";"1";"2";"1";"1";"2014-10-16 12:57:03.256";"2014-10-16 13:13:55.277";"1";"1";"0";"97";"96";"module.training_block3.exec-8069.GoNoGo3";;;;;;;;;;;;;;;;;;;;;;;;;;;;;;;;;;;;;;;;;;;;;;;"1261";"2014-10-16 13:03:22.587";"NST_correctLoc";"15";"0";"FINISHED";"LEFT";"success";"449";"0";"2014-10-16 13:03:21.323";"2";;;;;;;;;;;;;;;;;;;;;;;;;;;;;;;;;
"smitha59";;;"Windows 7";"Rachel's Experiment (D.T.)";"1.0";"2";"1";"1";"2";"1";"1";"2014-10-16 12:57:03.256";"2014-10-16 13:13:55.277";"1";"1";"0";"98";"97";"module.training_block3.exec-8069.GoNoGo3";;;;;;;;;;;;;;;;;;;;;;;;;;;;;;;;;;;;;;;;;;;;;;;"1261";"2014-10-16 13:03:25.129";"ST_correctStop";"30";"0";"FINISHED";"NONE";"success";"0";"1";"2014-10-16 13:03:23.866";"3";;;;;;;;;;;;;;;;;;;;;;;;;;;;;;;;;
"smitha59";;;"Windows 7";"Rachel's Experiment (D.T.)";"1.0";"2";"1";"1";"2";"1";"1";"2014-10-16 12:57:03.256";"2014-10-16 13:13:55.277";"1";"1";"0";"99";"98";"module.training_block3.exec-8069.GoNoGo3";;;;;;;;;;;;;;;;;;;;;;;;;;;;;;;;;;;;;;;;;;;;;;;"1261";"2014-10-16 13:03:27.672";"ST_correctStop";"22";"0";"FINISHED";"NONE";"success";"0";"1";"2014-10-16 13:03:26.409";"3";;;;;;;;;;;;;;;;;;;;;;;;;;;;;;;;;
"smitha59";;;"Windows 7";"Rachel's Experiment (D.T.)";"1.0";"2";"1";"1";"2";"1";"1";"2014-10-16 12:57:03.256";"2014-10-16 13:13:55.277";"1";"1";"0";"100";"99";"module.training_block3.exec-8069.GoNoGo3";;;;;;;;;;;;;;;;;;;;;;;;;;;;;;;;;;;;;;;;;;;;;;;"1261";"2014-10-16 13:03:30.215";"NST_correctLoc";"34";"0";"FINISHED";"LEFT";"success";"516";"0";"2014-10-16 13:03:28.951";"3";;;;;;;;;;;;;;;;;;;;;;;;;;;;;;;;;
"smitha59";;;"Windows 7";"Rachel's Experiment (D.T.)";"1.0";"2";"1";"1";"2";"1";"1";"2014-10-16 12:57:03.256";"2014-10-16 13:13:55.277";"1";"1";"0";"101";"100";"module.training_block3.exec-8069.GoNoGo3";;;;;;;;;;;;;;;;;;;;;;;;;;;;;;;;;;;;;;;;;;;;;;;"1261";"2014-10-16 13:03:32.758";"ST_correctStop";"28";"1";"FINISHED";"NONE";"success";"0";"1";"2014-10-16 13:03:31.494";"3";;;;;;;;;;;;;;;;;;;;;;;;;;;;;;;;;
"smitha59";;;"Windows 7";"Rachel's Experiment (D.T.)";"1.0";"2";"1";"1";"2";"1";"1";"2014-10-16 12:57:03.256";"2014-10-16 13:13:55.277";"1";"1";"0";"102";"101";"module.training_block3.exec-8069.GoNoGo3";;;;;;;;;;;;;;;;;;;;;;;;;;;;;;;;;;;;;;;;;;;;;;;"1261";"2014-10-16 13:03:35.301";"NST_correctLoc";"11";"1";"FINISHED";"RIGHT";"success";"503";"0";"2014-10-16 13:03:34.037";"2";;;;;;;;;;;;;;;;;;;;;;;;;;;;;;;;;
"smitha59";;;"Windows 7";"Rachel's Experiment (D.T.)";"1.0";"2";"1";"1";"2";"1";"1";"2014-10-16 12:57:03.256";"2014-10-16 13:13:55.277";"1";"1";"0";"103";"102";"module.training_block3.exec-8069.GoNoGo3";;;;;;;;;;;;;;;;;;;;;;;;;;;;;;;;;;;;;;;;;;;;;;;"1261";"2014-10-16 13:03:37.844";"NST_correctLoc";"32";"1";"FINISHED";"RIGHT";"success";"512";"0";"2014-10-16 13:03:36.580";"3";;;;;;;;;;;;;;;;;;;;;;;;;;;;;;;;;
"smitha59";;;"Windows 7";"Rachel's Experiment (D.T.)";"1.0";"2";"1";"1";"2";"1";"1";"2014-10-16 12:57:03.256";"2014-10-16 13:13:55.277";"1";"1";"0";"104";"103";"module.training_block3.exec-8069.GoNoGo3";;;;;;;;;;;;;;;;;;;;;;;;;;;;;;;;;;;;;;;;;;;;;;;"1261";"2014-10-16 13:03:40.386";"ST_correctStop";"5";"0";"FINISHED";"NONE";"success";"0";"1";"2014-10-16 13:03:39.123";"1";;;;;;;;;;;;;;;;;;;;;;;;;;;;;;;;;
"smitha59";;;"Windows 7";"Rachel's Experiment (D.T.)";"1.0";"2";"1";"1";"2";"1";"1";"2014-10-16 12:57:03.256";"2014-10-16 13:13:55.277";"1";"1";"0";"105";"104";"module.training_block3.exec-8069.GoNoGo3";;;;;;;;;;;;;;;;;;;;;;;;;;;;;;;;;;;;;;;;;;;;;;;"1261";"2014-10-16 13:03:42.929";"ST_correctStop";"2";"1";"FINISHED";"NONE";"success";"0";"1";"2014-10-16 13:03:41.666";"1";;;;;;;;;;;;;;;;;;;;;;;;;;;;;;;;;
"smitha59";;;"Windows 7";"Rachel's Experiment (D.T.)";"1.0";"2";"1";"1";"2";"1";"1";"2014-10-16 12:57:03.256";"2014-10-16 13:13:55.277";"1";"1";"0";"106";"105";"module.training_block3.exec-8069.GoNoGo3";;;;;;;;;;;;;;;;;;;;;;;;;;;;;;;;;;;;;;;;;;;;;;;"1261";"2014-10-16 13:03:45.472";"NST_correctLoc";"26";"1";"FINISHED";"RIGHT";"success";"475";"0";"2014-10-16 13:03:44.208";"3";;;;;;;;;;;;;;;;;;;;;;;;;;;;;;;;;
"smitha59";;;"Windows 7";"Rachel's Experiment (D.T.)";"1.0";"2";"1";"1";"2";"1";"1";"2014-10-16 12:57:03.256";"2014-10-16 13:13:55.277";"1";"1";"0";"107";"106";"module.training_block3.exec-8069.GoNoGo3";;;;;;;;;;;;;;;;;;;;;;;;;;;;;;;;;;;;;;;;;;;;;;;"1261";"2014-10-16 13:03:48.015";"ST_correctStop";"29";"1";"FINISHED";"NONE";"success";"0";"1";"2014-10-16 13:03:46.751";"3";;;;;;;;;;;;;;;;;;;;;;;;;;;;;;;;;
"smitha59";;;"Windows 7";"Rachel's Experiment (D.T.)";"1.0";"2";"1";"1";"2";"1";"1";"2014-10-16 12:57:03.256";"2014-10-16 13:13:55.277";"1";"1";"0";"108";"107";"module.training_block3.exec-8069.GoNoGo3";;;;;;;;;;;;;;;;;;;;;;;;;;;;;;;;;;;;;;;;;;;;;;;"1261";"2014-10-16 13:03:50.558";"ST_correctStop";"18";"0";"FINISHED";"NONE";"success";"0";"1";"2014-10-16 13:03:49.294";"3";;;;;;;;;;;;;;;;;;;;;;;;;;;;;;;;;
"smitha59";;;"Windows 7";"Rachel's Experiment (D.T.)";"1.0";"2";"1";"1";"2";"1";"1";"2014-10-16 12:57:03.256";"2014-10-16 13:13:55.277";"1";"1";"0";"109";"108";"module.training_block3.exec-8069.GoNoGo3";;;;;;;;;;;;;;;;;;;;;;;;;;;;;;;;;;;;;;;;;;;;;;;"1261";"2014-10-16 13:03:53.100";"NST_correctLoc";"17";"0";"FINISHED";"LEFT";"success";"447";"0";"2014-10-16 13:03:51.837";"2";;;;;;;;;;;;;;;;;;;;;;;;;;;;;;;;;
"smitha59";;;"Windows 7";"Rachel's Experiment (D.T.)";"1.0";"2";"1";"1";"2";"1";"1";"2014-10-16 12:57:03.256";"2014-10-16 13:13:55.277";"1";"1";"0";"110";"109";"module.training_block3.exec-8069.GoNoGo3";;;;;;;;;;;;;;;;;;;;;;;;;;;;;;;;;;;;;;;;;;;;;;;"1261";"2014-10-16 13:03:55.643";"NST_correctLoc";"10";"1";"FINISHED";"RIGHT";"success";"512";"0";"2014-10-16 13:03:54.380";"2";;;;;;;;;;;;;;;;;;;;;;;;;;;;;;;;;
"smitha59";;;"Windows 7";"Rachel's Experiment (D.T.)";"1.0";"2";"1";"1";"2";"1";"1";"2014-10-16 12:57:03.256";"2014-10-16 13:13:55.277";"1";"1";"0";"111";"110";"module.training_block3.exec-8069.GoNoGo3";;;;;;;;;;;;;;;;;;;;;;;;;;;;;;;;;;;;;;;;;;;;;;;"1261";"2014-10-16 13:03:58.186";"NST_correctLoc";"23";"0";"FINISHED";"LEFT";"success";"561";"0";"2014-10-16 13:03:56.922";"3";;;;;;;;;;;;;;;;;;;;;;;;;;;;;;;;;
"smitha59";;;"Windows 7";"Rachel's Experiment (D.T.)";"1.0";"2";"1";"1";"2";"1";"1";"2014-10-16 12:57:03.256";"2014-10-16 13:13:55.277";"1";"1";"0";"112";"111";"module.training_block3.exec-8069.GoNoGo3";;;;;;;;;;;;;;;;;;;;;;;;;;;;;;;;;;;;;;;;;;;;;;;"1261";"2014-10-16 13:04:00.729";"NST_correctLoc";"12";"0";"FINISHED";"LEFT";"success";"434";"0";"2014-10-16 13:03:59.465";"2";;;;;;;;;;;;;;;;;;;;;;;;;;;;;;;;;
"smitha59";;;"Windows 7";"Rachel's Experiment (D.T.)";"1.0";"2";"1";"1";"2";"1";"1";"2014-10-16 12:57:03.256";"2014-10-16 13:13:55.277";"1";"1";"0";"113";"112";"module.training_block3.exec-8069.GoNoGo3";;;;;;;;;;;;;;;;;;;;;;;;;;;;;;;;;;;;;;;;;;;;;;;"1262";"2014-10-16 13:04:03.272";"NST_correctLoc";"21";"1";"FINISHED";"RIGHT";"success";"436";"0";"2014-10-16 13:04:02.008";"3";;;;;;;;;;;;;;;;;;;;;;;;;;;;;;;;;
"smitha59";;;"Windows 7";"Rachel's Experiment (D.T.)";"1.0";"2";"1";"1";"2";"1";"1";"2014-10-16 12:57:03.256";"2014-10-16 13:13:55.277";"1";"1";"0";"114";"113";"module.training_block3.exec-8069.GoNoGo3";;;;;;;;;;;;;;;;;;;;;;;;;;;;;;;;;;;;;;;;;;;;;;;"1261";"2014-10-16 13:04:05.799";"ST_correctStop";"4";"0";"FINISHED";"NONE";"success";"0";"1";"2014-10-16 13:04:04.535";"1";;;;;;;;;;;;;;;;;;;;;;;;;;;;;;;;;
"smitha59";;;"Windows 7";"Rachel's Experiment (D.T.)";"1.0";"2";"1";"1";"2";"1";"1";"2014-10-16 12:57:03.256";"2014-10-16 13:13:55.277";"1";"1";"0";"115";"114";"module.training_block3.exec-8069.GoNoGo3";;;;;;;;;;;;;;;;;;;;;;;;;;;;;;;;;;;;;;;;;;;;;;;"1261";"2014-10-16 13:04:08.342";"ST_correctStop";"33";"1";"FINISHED";"NONE";"success";"0";"1";"2014-10-16 13:04:07.078";"3";;;;;;;;;;;;;;;;;;;;;;;;;;;;;;;;;
"smitha59";;;"Windows 7";"Rachel's Experiment (D.T.)";"1.0";"2";"1";"1";"2";"1";"1";"2014-10-16 12:57:03.256";"2014-10-16 13:13:55.277";"1";"1";"0";"116";"115";"module.training_block3.exec-8069.GoNoGo3";;;;;;;;;;;;;;;;;;;;;;;;;;;;;;;;;;;;;;;;;;;;;;;"1261";"2014-10-16 13:04:10.900";"ST_correctStop";"6";"1";"FINISHED";"NONE";"success";"0";"1";"2014-10-16 13:04:09.636";"1";;;;;;;;;;;;;;;;;;;;;;;;;;;;;;;;;
"smitha59";;;"Windows 7";"Rachel's Experiment (D.T.)";"1.0";"2";"1";"1";"2";"1";"1";"2014-10-16 12:57:03.256";"2014-10-16 13:13:55.277";"1";"1";"0";"117";"116";"module.training_block3.exec-8069.GoNoGo3";;;;;;;;;;;;;;;;;;;;;;;;;;;;;;;;;;;;;;;;;;;;;;;"1261";"2014-10-16 13:04:13.443";"ST_correctStop";"20";"1";"FINISHED";"NONE";"success";"0";"1";"2014-10-16 13:04:12.179";"3";;;;;;;;;;;;;;;;;;;;;;;;;;;;;;;;;
"smitha59";;;"Windows 7";"Rachel's Experiment (D.T.)";"1.0";"2";"1";"1";"2";"1";"1";"2014-10-16 12:57:03.256";"2014-10-16 13:13:55.277";"1";"1";"0";"118";"117";"module.training_block3.exec-8069.GoNoGo3";;;;;;;;;;;;;;;;;;;;;;;;;;;;;;;;;;;;;;;;;;;;;;;"1261";"2014-10-16 13:04:16.001";"NST_correctLoc";"24";"0";"FINISHED";"LEFT";"success";"482";"0";"2014-10-16 13:04:14.738";"3";;;;;;;;;;;;;;;;;;;;;;;;;;;;;;;;;
"smitha59";;;"Windows 7";"Rachel's Experiment (D.T.)";"1.0";"2";"1";"1";"2";"1";"1";"2014-10-16 12:57:03.256";"2014-10-16 13:13:55.277";"1";"1";"0";"119";"118";"module.training_block3.exec-8069.GoNoGo3";;;;;;;;;;;;;;;;;;;;;;;;;;;;;;;;;;;;;;;;;;;;;;;"1261";"2014-10-16 13:04:18.544";"ST_correctStop";"35";"1";"FINISHED";"NONE";"success";"0";"1";"2014-10-16 13:04:17.280";"3";;;;;;;;;;;;;;;;;;;;;;;;;;;;;;;;;
"smitha59";;;"Windows 7";"Rachel's Experiment (D.T.)";"1.0";"2";"1";"1";"2";"1";"1";"2014-10-16 12:57:03.256";"2014-10-16 13:13:55.277";"1";"1";"0";"120";"119";"module.training_block3.exec-8069.GoNoGo3";;;;;;;;;;;;;;;;;;;;;;;;;;;;;;;;;;;;;;;;;;;;;;;"1261";"2014-10-16 13:04:21.071";"ST_correctStop";"25";"1";"FINISHED";"NONE";"success";"0";"1";"2014-10-16 13:04:19.808";"3";;;;;;;;;;;;;;;;;;;;;;;;;;;;;;;;;
"smitha59";;;"Windows 7";"Rachel's Experiment (D.T.)";"1.0";"2";"1";"1";"2";"1";"1";"2014-10-16 12:57:03.256";"2014-10-16 13:13:55.277";"1";"1";"0";"121";"120";"module.training_block3.exec-8069.GoNoGo3";;;;;;;;;;;;;;;;;;;;;;;;;;;;;;;;;;;;;;;;;;;;;;;"1262";"2014-10-16 13:04:23.598";"ST_correctStop";"0";"0";"FINISHED";"NONE";"success";"0";"1";"2014-10-16 13:04:22.335";"1";;;;;;;;;;;;;;;;;;;;;;;;;;;;;;;;;
"smitha59";;;"Windows 7";"Rachel's Experiment (D.T.)";"1.0";"2";"1";"1";"2";"1";"1";"2014-10-16 12:57:03.256";"2014-10-16 13:13:55.277";"1";"1";"0";"122";"121";"module.training_block3.exec-8069.GoNoGo3";;;;;;;;;;;;;;;;;;;;;;;;;;;;;;;;;;;;;;;;;;;;;;;"1261";"2014-10-16 13:04:26.141";"NST_correctLoc";"9";"1";"FINISHED";"RIGHT";"success";"462";"0";"2014-10-16 13:04:24.878";"2";;;;;;;;;;;;;;;;;;;;;;;;;;;;;;;;;
"smitha59";;;"Windows 7";"Rachel's Experiment (D.T.)";"1.0";"2";"1";"1";"2";"1";"1";"2014-10-16 12:57:03.256";"2014-10-16 13:13:55.277";"1";"1";"0";"123";"122";"module.training_block3.exec-8069.GoNoGo3";;;;;;;;;;;;;;;;;;;;;;;;;;;;;;;;;;;;;;;;;;;;;;;"1262";"2014-10-16 13:04:28.668";"NST_correctLoc";"13";"0";"FINISHED";"LEFT";"success";"447";"0";"2014-10-16 13:04:27.405";"2";;;;;;;;;;;;;;;;;;;;;;;;;;;;;;;;;
"smitha59";;;"Windows 7";"Rachel's Experiment (D.T.)";"1.0";"2";"1";"1";"2";"1";"1";"2014-10-16 12:57:03.256";"2014-10-16 13:13:55.277";"1";"1";"0";"124";"123";"module.training_block4.exec-3142.GoNoGo4";;;;;;;;;;;;;;;;;;;;;;;;;;;;;;;;;;;;;;;;;;;;;;;;;;;;;;;;;;;"1261";"2014-10-16 13:04:39.869";"ST_correctStop";"25";"1";"FINISHED";"NONE";"success";"0";"1";"2014-10-16 13:04:38.606";"3";;;;;;;;;;;;;;;;;;;;;
"smitha59";;;"Windows 7";"Rachel's Experiment (D.T.)";"1.0";"2";"1";"1";"2";"1";"1";"2014-10-16 12:57:03.256";"2014-10-16 13:13:55.277";"1";"1";"0";"125";"124";"module.training_block4.exec-3142.GoNoGo4";;;;;;;;;;;;;;;;;;;;;;;;;;;;;;;;;;;;;;;;;;;;;;;;;;;;;;;;;;;"1261";"2014-10-16 13:04:42.396";"NST_correctLoc";"14";"1";"FINISHED";"RIGHT";"success";"558";"0";"2014-10-16 13:04:41.133";"2";;;;;;;;;;;;;;;;;;;;;
"smitha59";;;"Windows 7";"Rachel's Experiment (D.T.)";"1.0";"2";"1";"1";"2";"1";"1";"2014-10-16 12:57:03.256";"2014-10-16 13:13:55.277";"1";"1";"0";"126";"125";"module.training_block4.exec-3142.GoNoGo4";;;;;;;;;;;;;;;;;;;;;;;;;;;;;;;;;;;;;;;;;;;;;;;;;;;;;;;;;;;"1262";"2014-10-16 13:04:44.939";"NST_correctLoc";"16";"1";"FINISHED";"RIGHT";"success";"448";"0";"2014-10-16 13:04:43.676";"2";;;;;;;;;;;;;;;;;;;;;
"smitha59";;;"Windows 7";"Rachel's Experiment (D.T.)";"1.0";"2";"1";"1";"2";"1";"1";"2014-10-16 12:57:03.256";"2014-10-16 13:13:55.277";"1";"1";"0";"127";"126";"module.training_block4.exec-3142.GoNoGo4";;;;;;;;;;;;;;;;;;;;;;;;;;;;;;;;;;;;;;;;;;;;;;;;;;;;;;;;;;;"1261";"2014-10-16 13:04:47.466";"NST_correctLoc";"10";"0";"FINISHED";"LEFT";"success";"456";"0";"2014-10-16 13:04:46.203";"2";;;;;;;;;;;;;;;;;;;;;
"smitha59";;;"Windows 7";"Rachel's Experiment (D.T.)";"1.0";"2";"1";"1";"2";"1";"1";"2014-10-16 12:57:03.256";"2014-10-16 13:13:55.277";"1";"1";"0";"128";"127";"module.training_block4.exec-3142.GoNoGo4";;;;;;;;;;;;;;;;;;;;;;;;;;;;;;;;;;;;;;;;;;;;;;;;;;;;;;;;;;;"1261";"2014-10-16 13:04:49.994";"ST_correctStop";"31";"1";"FINISHED";"NONE";"success";"0";"1";"2014-10-16 13:04:48.730";"3";;;;;;;;;;;;;;;;;;;;;
"smitha59";;;"Windows 7";"Rachel's Experiment (D.T.)";"1.0";"2";"1";"1";"2";"1";"1";"2014-10-16 12:57:03.256";"2014-10-16 13:13:55.277";"1";"1";"0";"129";"128";"module.training_block4.exec-3142.GoNoGo4";;;;;;;;;;;;;;;;;;;;;;;;;;;;;;;;;;;;;;;;;;;;;;;;;;;;;;;;;;;"1261";"2014-10-16 13:04:52.536";"NST_correctLoc";"13";"0";"FINISHED";"LEFT";"success";"458";"0";"2014-10-16 13:04:51.273";"2";;;;;;;;;;;;;;;;;;;;;
"smitha59";;;"Windows 7";"Rachel's Experiment (D.T.)";"1.0";"2";"1";"1";"2";"1";"1";"2014-10-16 12:57:03.256";"2014-10-16 13:13:55.277";"1";"1";"0";"130";"129";"module.training_block4.exec-3142.GoNoGo4";;;;;;;;;;;;;;;;;;;;;;;;;;;;;;;;;;;;;;;;;;;;;;;;;;;;;;;;;;;"1262";"2014-10-16 13:04:55.064";"NST_correctLoc";"35";"0";"FINISHED";"LEFT";"success";"451";"0";"2014-10-16 13:04:53.800";"3";;;;;;;;;;;;;;;;;;;;;
"smitha59";;;"Windows 7";"Rachel's Experiment (D.T.)";"1.0";"2";"1";"1";"2";"1";"1";"2014-10-16 12:57:03.256";"2014-10-16 13:13:55.277";"1";"1";"0";"131";"130";"module.training_block4.exec-3142.GoNoGo4";;;;;;;;;;;;;;;;;;;;;;;;;;;;;;;;;;;;;;;;;;;;;;;;;;;;;;;;;;;"1261";"2014-10-16 13:04:57.591";"ST_correctStop";"24";"0";"FINISHED";"NONE";"success";"0";"1";"2014-10-16 13:04:56.327";"3";;;;;;;;;;;;;;;;;;;;;
"smitha59";;;"Windows 7";"Rachel's Experiment (D.T.)";"1.0";"2";"1";"1";"2";"1";"1";"2014-10-16 12:57:03.256";"2014-10-16 13:13:55.277";"1";"1";"0";"132";"131";"module.training_block4.exec-3142.GoNoGo4";;;;;;;;;;;;;;;;;;;;;;;;;;;;;;;;;;;;;;;;;;;;;;;;;;;;;;;;;;;"1261";"2014-10-16 13:05:00.118";"NST_correctLoc";"27";"1";"FINISHED";"RIGHT";"success";"421";"0";"2014-10-16 13:04:58.854";"3";;;;;;;;;;;;;;;;;;;;;
"smitha59";;;"Windows 7";"Rachel's Experiment (D.T.)";"1.0";"2";"1";"1";"2";"1";"1";"2014-10-16 12:57:03.256";"2014-10-16 13:13:55.277";"1";"1";"0";"133";"132";"module.training_block4.exec-3142.GoNoGo4";;;;;;;;;;;;;;;;;;;;;;;;;;;;;;;;;;;;;;;;;;;;;;;;;;;;;;;;;;;"1261";"2014-10-16 13:05:02.645";"NST_correctLoc";"9";"1";"FINISHED";"RIGHT";"success";"413";"0";"2014-10-16 13:05:01.382";"2";;;;;;;;;;;;;;;;;;;;;
"smitha59";;;"Windows 7";"Rachel's Experiment (D.T.)";"1.0";"2";"1";"1";"2";"1";"1";"2014-10-16 12:57:03.256";"2014-10-16 13:13:55.277";"1";"1";"0";"134";"133";"module.training_block4.exec-3142.GoNoGo4";;;;;;;;;;;;;;;;;;;;;;;;;;;;;;;;;;;;;;;;;;;;;;;;;;;;;;;;;;;"1261";"2014-10-16 13:05:05.188";"ST_correctStop";"4";"0";"FINISHED";"NONE";"success";"0";"1";"2014-10-16 13:05:03.924";"1";;;;;;;;;;;;;;;;;;;;;
"smitha59";;;"Windows 7";"Rachel's Experiment (D.T.)";"1.0";"2";"1";"1";"2";"1";"1";"2014-10-16 12:57:03.256";"2014-10-16 13:13:55.277";"1";"1";"0";"135";"134";"module.training_block4.exec-3142.GoNoGo4";;;;;;;;;;;;;;;;;;;;;;;;;;;;;;;;;;;;;;;;;;;;;;;;;;;;;;;;;;;"1261";"2014-10-16 13:05:07.715";"ST_correctStop";"18";"0";"FINISHED";"NONE";"success";"0";"1";"2014-10-16 13:05:06.452";"3";;;;;;;;;;;;;;;;;;;;;
"smitha59";;;"Windows 7";"Rachel's Experiment (D.T.)";"1.0";"2";"1";"1";"2";"1";"1";"2014-10-16 12:57:03.256";"2014-10-16 13:13:55.277";"1";"1";"0";"136";"135";"module.training_block4.exec-3142.GoNoGo4";;;;;;;;;;;;;;;;;;;;;;;;;;;;;;;;;;;;;;;;;;;;;;;;;;;;;;;;;;;"1261";"2014-10-16 13:05:10.242";"ST_correctStop";"28";"1";"FINISHED";"NONE";"success";"0";"1";"2014-10-16 13:05:08.979";"3";;;;;;;;;;;;;;;;;;;;;
"smitha59";;;"Windows 7";"Rachel's Experiment (D.T.)";"1.0";"2";"1";"1";"2";"1";"1";"2014-10-16 12:57:03.256";"2014-10-16 13:13:55.277";"1";"1";"0";"137";"136";"module.training_block4.exec-3142.GoNoGo4";;;;;;;;;;;;;;;;;;;;;;;;;;;;;;;;;;;;;;;;;;;;;;;;;;;;;;;;;;;"1262";"2014-10-16 13:05:12.801";"NST_correctLoc";"12";"1";"FINISHED";"RIGHT";"success";"490";"0";"2014-10-16 13:05:11.537";"2";;;;;;;;;;;;;;;;;;;;;
"smitha59";;;"Windows 7";"Rachel's Experiment (D.T.)";"1.0";"2";"1";"1";"2";"1";"1";"2014-10-16 12:57:03.256";"2014-10-16 13:13:55.277";"1";"1";"0";"138";"137";"module.training_block4.exec-3142.GoNoGo4";;;;;;;;;;;;;;;;;;;;;;;;;;;;;;;;;;;;;;;;;;;;;;;;;;;;;;;;;;;"1262";"2014-10-16 13:05:15.328";"NST_correctLoc";"19";"1";"FINISHED";"RIGHT";"success";"427";"0";"2014-10-16 13:05:14.064";"3";;;;;;;;;;;;;;;;;;;;;
"smitha59";;;"Windows 7";"Rachel's Experiment (D.T.)";"1.0";"2";"1";"1";"2";"1";"1";"2014-10-16 12:57:03.256";"2014-10-16 13:13:55.277";"1";"1";"0";"139";"138";"module.training_block4.exec-3142.GoNoGo4";;;;;;;;;;;;;;;;;;;;;;;;;;;;;;;;;;;;;;;;;;;;;;;;;;;;;;;;;;;"1261";"2014-10-16 13:05:17.855";"ST_correctStop";"29";"1";"FINISHED";"NONE";"success";"0";"1";"2014-10-16 13:05:16.592";"3";;;;;;;;;;;;;;;;;;;;;
"smitha59";;;"Windows 7";"Rachel's Experiment (D.T.)";"1.0";"2";"1";"1";"2";"1";"1";"2014-10-16 12:57:03.256";"2014-10-16 13:13:55.277";"1";"1";"0";"140";"139";"module.training_block4.exec-3142.GoNoGo4";;;;;;;;;;;;;;;;;;;;;;;;;;;;;;;;;;;;;;;;;;;;;;;;;;;;;;;;;;;"1262";"2014-10-16 13:05:20.382";"NST_correctLoc";"17";"1";"FINISHED";"RIGHT";"success";"492";"0";"2014-10-16 13:05:19.119";"2";;;;;;;;;;;;;;;;;;;;;
"smitha59";;;"Windows 7";"Rachel's Experiment (D.T.)";"1.0";"2";"1";"1";"2";"1";"1";"2014-10-16 12:57:03.256";"2014-10-16 13:13:55.277";"1";"1";"0";"141";"140";"module.training_block4.exec-3142.GoNoGo4";;;;;;;;;;;;;;;;;;;;;;;;;;;;;;;;;;;;;;;;;;;;;;;;;;;;;;;;;;;"1261";"2014-10-16 13:05:22.910";"ST_correctStop";"6";"1";"FINISHED";"NONE";"success";"0";"1";"2014-10-16 13:05:21.646";"1";;;;;;;;;;;;;;;;;;;;;
"smitha59";;;"Windows 7";"Rachel's Experiment (D.T.)";"1.0";"2";"1";"1";"2";"1";"1";"2014-10-16 12:57:03.256";"2014-10-16 13:13:55.277";"1";"1";"0";"142";"141";"module.training_block4.exec-3142.GoNoGo4";;;;;;;;;;;;;;;;;;;;;;;;;;;;;;;;;;;;;;;;;;;;;;;;;;;;;;;;;;;"1262";"2014-10-16 13:05:25.453";"ST_correctStop";"8";"1";"FINISHED";"NONE";"success";"0";"1";"2014-10-16 13:05:24.189";"1";;;;;;;;;;;;;;;;;;;;;
"smitha59";;;"Windows 7";"Rachel's Experiment (D.T.)";"1.0";"2";"1";"1";"2";"1";"1";"2014-10-16 12:57:03.256";"2014-10-16 13:13:55.277";"1";"1";"0";"143";"142";"module.training_block4.exec-3142.GoNoGo4";;;;;;;;;;;;;;;;;;;;;;;;;;;;;;;;;;;;;;;;;;;;;;;;;;;;;;;;;;;"1261";"2014-10-16 13:05:27.980";"ST_correctStop";"5";"1";"FINISHED";"NONE";"success";"0";"1";"2014-10-16 13:05:26.716";"1";;;;;;;;;;;;;;;;;;;;;
"smitha59";;;"Windows 7";"Rachel's Experiment (D.T.)";"1.0";"2";"1";"1";"2";"1";"1";"2014-10-16 12:57:03.256";"2014-10-16 13:13:55.277";"1";"1";"0";"144";"143";"module.training_block4.exec-3142.GoNoGo4";;;;;;;;;;;;;;;;;;;;;;;;;;;;;;;;;;;;;;;;;;;;;;;;;;;;;;;;;;;"1261";"2014-10-16 13:05:30.507";"NST_correctLoc";"22";"0";"FINISHED";"LEFT";"success";"440";"0";"2014-10-16 13:05:29.243";"3";;;;;;;;;;;;;;;;;;;;;
"smitha59";;;"Windows 7";"Rachel's Experiment (D.T.)";"1.0";"2";"1";"1";"2";"1";"1";"2014-10-16 12:57:03.256";"2014-10-16 13:13:55.277";"1";"1";"0";"145";"144";"module.training_block4.exec-3142.GoNoGo4";;;;;;;;;;;;;;;;;;;;;;;;;;;;;;;;;;;;;;;;;;;;;;;;;;;;;;;;;;;"1261";"2014-10-16 13:05:33.034";"ST_correctStop";"34";"1";"FINISHED";"NONE";"success";"0";"1";"2014-10-16 13:05:31.771";"3";;;;;;;;;;;;;;;;;;;;;
"smitha59";;;"Windows 7";"Rachel's Experiment (D.T.)";"1.0";"2";"1";"1";"2";"1";"1";"2014-10-16 12:57:03.256";"2014-10-16 13:13:55.277";"1";"1";"0";"146";"145";"module.training_block4.exec-3142.GoNoGo4";;;;;;;;;;;;;;;;;;;;;;;;;;;;;;;;;;;;;;;;;;;;;;;;;;;;;;;;;;;"1262";"2014-10-16 13:05:35.561";"NST_correctLoc";"30";"1";"FINISHED";"RIGHT";"success";"529";"0";"2014-10-16 13:05:34.298";"3";;;;;;;;;;;;;;;;;;;;;
"smitha59";;;"Windows 7";"Rachel's Experiment (D.T.)";"1.0";"2";"1";"1";"2";"1";"1";"2014-10-16 12:57:03.256";"2014-10-16 13:13:55.277";"1";"1";"0";"147";"146";"module.training_block4.exec-3142.GoNoGo4";;;;;;;;;;;;;;;;;;;;;;;;;;;;;;;;;;;;;;;;;;;;;;;;;;;;;;;;;;;"1261";"2014-10-16 13:05:38.104";"ST_correctStop";"7";"1";"FINISHED";"NONE";"success";"0";"1";"2014-10-16 13:05:36.841";"1";;;;;;;;;;;;;;;;;;;;;
"smitha59";;;"Windows 7";"Rachel's Experiment (D.T.)";"1.0";"2";"1";"1";"2";"1";"1";"2014-10-16 12:57:03.256";"2014-10-16 13:13:55.277";"1";"1";"0";"148";"147";"module.training_block4.exec-3142.GoNoGo4";;;;;;;;;;;;;;;;;;;;;;;;;;;;;;;;;;;;;;;;;;;;;;;;;;;;;;;;;;;"1261";"2014-10-16 13:05:40.631";"ST_correctStop";"32";"1";"FINISHED";"NONE";"success";"0";"1";"2014-10-16 13:05:39.368";"3";;;;;;;;;;;;;;;;;;;;;
"smitha59";;;"Windows 7";"Rachel's Experiment (D.T.)";"1.0";"2";"1";"1";"2";"1";"1";"2014-10-16 12:57:03.256";"2014-10-16 13:13:55.277";"1";"1";"0";"149";"148";"module.training_block4.exec-3142.GoNoGo4";;;;;;;;;;;;;;;;;;;;;;;;;;;;;;;;;;;;;;;;;;;;;;;;;;;;;;;;;;;"1261";"2014-10-16 13:05:43.159";"ST_correctStop";"3";"0";"FINISHED";"NONE";"success";"0";"1";"2014-10-16 13:05:41.895";"1";;;;;;;;;;;;;;;;;;;;;
"smitha59";;;"Windows 7";"Rachel's Experiment (D.T.)";"1.0";"2";"1";"1";"2";"1";"1";"2014-10-16 12:57:03.256";"2014-10-16 13:13:55.277";"1";"1";"0";"150";"149";"module.training_block4.exec-3142.GoNoGo4";;;;;;;;;;;;;;;;;;;;;;;;;;;;;;;;;;;;;;;;;;;;;;;;;;;;;;;;;;;"1261";"2014-10-16 13:05:45.717";"ST_correctStop";"21";"0";"FINISHED";"NONE";"success";"0";"1";"2014-10-16 13:05:44.453";"3";;;;;;;;;;;;;;;;;;;;;
"smitha59";;;"Windows 7";"Rachel's Experiment (D.T.)";"1.0";"2";"1";"1";"2";"1";"1";"2014-10-16 12:57:03.256";"2014-10-16 13:13:55.277";"1";"1";"0";"151";"150";"module.training_block4.exec-3142.GoNoGo4";;;;;;;;;;;;;;;;;;;;;;;;;;;;;;;;;;;;;;;;;;;;;;;;;;;;;;;;;;;"1262";"2014-10-16 13:05:48.244";"NST_correctLoc";"33";"0";"FINISHED";"LEFT";"success";"446";"0";"2014-10-16 13:05:46.981";"3";;;;;;;;;;;;;;;;;;;;;
"smitha59";;;"Windows 7";"Rachel's Experiment (D.T.)";"1.0";"2";"1";"1";"2";"1";"1";"2014-10-16 12:57:03.256";"2014-10-16 13:13:55.277";"1";"1";"0";"152";"151";"module.training_block4.exec-3142.GoNoGo4";;;;;;;;;;;;;;;;;;;;;;;;;;;;;;;;;;;;;;;;;;;;;;;;;;;;;;;;;;;"1261";"2014-10-16 13:05:50.787";"ST_correctStop";"2";"1";"FINISHED";"NONE";"success";"0";"1";"2014-10-16 13:05:49.523";"1";;;;;;;;;;;;;;;;;;;;;
"smitha59";;;"Windows 7";"Rachel's Experiment (D.T.)";"1.0";"2";"1";"1";"2";"1";"1";"2014-10-16 12:57:03.256";"2014-10-16 13:13:55.277";"1";"1";"0";"153";"152";"module.training_block4.exec-3142.GoNoGo4";;;;;;;;;;;;;;;;;;;;;;;;;;;;;;;;;;;;;;;;;;;;;;;;;;;;;;;;;;;"1261";"2014-10-16 13:05:53.314";"NST_correctLoc";"15";"0";"FINISHED";"LEFT";"success";"432";"0";"2014-10-16 13:05:52.051";"2";;;;;;;;;;;;;;;;;;;;;
"smitha59";;;"Windows 7";"Rachel's Experiment (D.T.)";"1.0";"2";"1";"1";"2";"1";"1";"2014-10-16 12:57:03.256";"2014-10-16 13:13:55.277";"1";"1";"0";"154";"153";"module.training_block4.exec-3142.GoNoGo4";;;;;;;;;;;;;;;;;;;;;;;;;;;;;;;;;;;;;;;;;;;;;;;;;;;;;;;;;;;"1261";"2014-10-16 13:05:55.841";"ST_correctStop";"0";"1";"FINISHED";"NONE";"success";"0";"1";"2014-10-16 13:05:54.578";"1";;;;;;;;;;;;;;;;;;;;;
"smitha59";;;"Windows 7";"Rachel's Experiment (D.T.)";"1.0";"2";"1";"1";"2";"1";"1";"2014-10-16 12:57:03.256";"2014-10-16 13:13:55.277";"1";"1";"0";"155";"154";"module.training_block4.exec-3142.GoNoGo4";;;;;;;;;;;;;;;;;;;;;;;;;;;;;;;;;;;;;;;;;;;;;;;;;;;;;;;;;;;"1261";"2014-10-16 13:05:58.400";"NST_correctLoc";"20";"0";"FINISHED";"LEFT";"success";"491";"0";"2014-10-16 13:05:57.136";"3";;;;;;;;;;;;;;;;;;;;;
"smitha59";;;"Windows 7";"Rachel's Experiment (D.T.)";"1.0";"2";"1";"1";"2";"1";"1";"2014-10-16 12:57:03.256";"2014-10-16 13:13:55.277";"1";"1";"0";"156";"155";"module.training_block4.exec-3142.GoNoGo4";;;;;;;;;;;;;;;;;;;;;;;;;;;;;;;;;;;;;;;;;;;;;;;;;;;;;;;;;;;"1261";"2014-10-16 13:06:00.927";"NST_correctLoc";"23";"0";"FINISHED";"LEFT";"success";"507";"0";"2014-10-16 13:05:59.663";"3";;;;;;;;;;;;;;;;;;;;;
"smitha59";;;"Windows 7";"Rachel's Experiment (D.T.)";"1.0";"2";"1";"1";"2";"1";"1";"2014-10-16 12:57:03.256";"2014-10-16 13:13:55.277";"1";"1";"0";"157";"156";"module.training_block4.exec-3142.GoNoGo4";;;;;;;;;;;;;;;;;;;;;;;;;;;;;;;;;;;;;;;;;;;;;;;;;;;;;;;;;;;"1262";"2014-10-16 13:06:03.470";"NST_correctLoc";"26";"1";"FINISHED";"RIGHT";"success";"477";"0";"2014-10-16 13:06:02.206";"3";;;;;;;;;;;;;;;;;;;;;
"smitha59";;;"Windows 7";"Rachel's Experiment (D.T.)";"1.0";"2";"1";"1";"2";"1";"1";"2014-10-16 12:57:03.256";"2014-10-16 13:13:55.277";"1";"1";"0";"158";"157";"module.training_block4.exec-3142.GoNoGo4";;;;;;;;;;;;;;;;;;;;;;;;;;;;;;;;;;;;;;;;;;;;;;;;;;;;;;;;;;;"1261";"2014-10-16 13:06:05.997";"ST_correctStop";"1";"0";"FINISHED";"NONE";"success";"0";"1";"2014-10-16 13:06:04.733";"1";;;;;;;;;;;;;;;;;;;;;
"smitha59";;;"Windows 7";"Rachel's Experiment (D.T.)";"1.0";"2";"1";"1";"2";"1";"1";"2014-10-16 12:57:03.256";"2014-10-16 13:13:55.277";"1";"1";"0";"159";"158";"module.training_block4.exec-3142.GoNoGo4";;;;;;;;;;;;;;;;;;;;;;;;;;;;;;;;;;;;;;;;;;;;;;;;;;;;;;;;;;;"1262";"2014-10-16 13:06:08.540";"NST_correctLoc";"11";"0";"FINISHED";"LEFT";"success";"479";"0";"2014-10-16 13:06:07.276";"2";;;;;;;;;;;;;;;;;;;;;
"smitha59";;;"Windows 7";"Rachel's Experiment (D.T.)";"1.0";"2";"1";"1";"2";"1";"1";"2014-10-16 12:57:03.256";"2014-10-16 13:13:55.277";"1";"1";"0";"160";"159";"module.devaluation_practice.exec-4869.devalPractice";;;;;;;;;;;;"90859";"2014-10-16 13:08:09.112";"0";"4";"2";"4";"15142";"13049";"59612";"2014-10-16 13:06:38.242";;;;;;;;;;;;;;;;;;;;;;;;;;;;;;;;;;;;;;;;;;;;;;;;;;;;;;;;;;;;;;;;;;;;;;
"smitha59";;;"Windows 7";"Rachel's Experiment (D.T.)";"1.0";"2";"1";"1";"2";"1";"1";"2014-10-16 12:57:03.256";"2014-10-16 13:13:55.277";"1";"1";"0";"161";"160";"module.devaluation_practice.exec-4869.devalPractice";;;;;;;;;;;;"18931";"2014-10-16 13:08:28.066";"1";"6";"4";"6";"3724";"4616";"7578";"2014-10-16 13:08:09.128";;;;;;;;;;;;;;;;;;;;;;;;;;;;;;;;;;;;;;;;;;;;;;;;;;;;;;;;;;;;;;;;;;;;;;
"smitha59";;;"Windows 7";"Rachel's Experiment (D.T.)";"1.0";"2";"1";"1";"2";"1";"1";"2014-10-16 12:57:03.256";"2014-10-16 13:13:55.277";"1";"1";"0";"162";"161";"module.devaluation_practice.exec-4869.devalPractice";;;;;;;;;;;;"18019";"2014-10-16 13:08:46.100";"2";"4";"5";"6";"5394";"4575";"5020";"2014-10-16 13:08:28.082";;;;;;;;;;;;;;;;;;;;;;;;;;;;;;;;;;;;;;;;;;;;;;;;;;;;;;;;;;;;;;;;;;;;;;
"smitha59";;;"Windows 7";"Rachel's Experiment (D.T.)";"1.0";"2";"1";"1";"2";"1";"1";"2014-10-16 12:57:03.256";"2014-10-16 13:13:55.277";"1";"1";"0";"163";"162";"module.devaluation_practice.exec-4869.devalPractice";;;;;;;;;;;;"16490";"2014-10-16 13:09:02.620";"3";"3";"2";"4";"3505";"4138";"5817";"2014-10-16 13:08:46.131";;;;;;;;;;;;;;;;;;;;;;;;;;;;;;;;;;;;;;;;;;;;;;;;;;;;;;;;;;;;;;;;;;;;;;
"smitha59";;;"Windows 7";"Rachel's Experiment (D.T.)";"1.0";"2";"1";"1";"2";"1";"1";"2014-10-16 12:57:03.256";"2014-10-16 13:13:55.277";"1";"1";"0";"164";"163";"module.devaluation_block1.exec-3428.deval1";"18479";"2014-10-16 13:09:33.259";"18";"6";"4";"6";"5206";"5863";"4369";"2014-10-16 13:09:14.773";"3";;;;;;;;;;;;;;;;;;;;;;;;;;;;;;;;;;;;;;;;;;;;;;;;;;;;;;;;;;;;;;;;;;;;;;;;;;;;;;;;
"smitha59";;;"Windows 7";"Rachel's Experiment (D.T.)";"1.0";"2";"1";"1";"2";"1";"1";"2014-10-16 12:57:03.256";"2014-10-16 13:13:55.277";"1";"1";"0";"165";"164";"module.devaluation_block1.exec-3428.deval1";"13425";"2014-10-16 13:09:46.706";"2";"5";"3";"4";"3417";"2728";"4246";"2014-10-16 13:09:33.275";"1";;;;;;;;;;;;;;;;;;;;;;;;;;;;;;;;;;;;;;;;;;;;;;;;;;;;;;;;;;;;;;;;;;;;;;;;;;;;;;;;
"smitha59";;;"Windows 7";"Rachel's Experiment (D.T.)";"1.0";"2";"1";"1";"2";"1";"1";"2014-10-16 12:57:03.256";"2014-10-16 13:13:55.277";"1";"1";"0";"166";"165";"module.devaluation_block1.exec-3428.deval1";"15163";"2014-10-16 13:10:01.901";"21";"4";"3";"6";"4842";"2499";"4795";"2014-10-16 13:09:46.737";"3";;;;;;;;;;;;;;;;;;;;;;;;;;;;;;;;;;;;;;;;;;;;;;;;;;;;;;;;;;;;;;;;;;;;;;;;;;;;;;;;
"smitha59";;;"Windows 7";"Rachel's Experiment (D.T.)";"1.0";"2";"1";"1";"2";"1";"1";"2014-10-16 12:57:03.256";"2014-10-16 13:13:55.277";"1";"1";"0";"167";"166";"module.devaluation_block1.exec-3428.deval1";"11761";"2014-10-16 13:10:13.694";"1";"3";"2";"4";"2816";"3106";"2805";"2014-10-16 13:10:01.932";"1";;;;;;;;;;;;;;;;;;;;;;;;;;;;;;;;;;;;;;;;;;;;;;;;;;;;;;;;;;;;;;;;;;;;;;;;;;;;;;;;
"smitha59";;;"Windows 7";"Rachel's Experiment (D.T.)";"1.0";"2";"1";"1";"2";"1";"1";"2014-10-16 12:57:03.256";"2014-10-16 13:13:55.277";"1";"1";"0";"168";"167";"module.devaluation_block1.exec-3428.deval1";"11443";"2014-10-16 13:10:25.160";"15";"2";"1";"1";"2038";"3041";"3343";"2014-10-16 13:10:13.710";"2";;;;;;;;;;;;;;;;;;;;;;;;;;;;;;;;;;;;;;;;;;;;;;;;;;;;;;;;;;;;;;;;;;;;;;;;;;;;;;;;
"smitha59";;;"Windows 7";"Rachel's Experiment (D.T.)";"1.0";"2";"1";"1";"2";"1";"1";"2014-10-16 12:57:03.256";"2014-10-16 13:13:55.277";"1";"1";"0";"169";"168";"module.devaluation_block1.exec-3428.deval1";"14080";"2014-10-16 13:10:39.263";"8";"5";"4";"6";"2541";"3832";"4660";"2014-10-16 13:10:25.176";"1";;;;;;;;;;;;;;;;;;;;;;;;;;;;;;;;;;;;;;;;;;;;;;;;;;;;;;;;;;;;;;;;;;;;;;;;;;;;;;;;
"smitha59";;;"Windows 7";"Rachel's Experiment (D.T.)";"1.0";"2";"1";"1";"2";"1";"1";"2014-10-16 12:57:03.256";"2014-10-16 13:13:55.277";"1";"1";"0";"170";"169";"module.devaluation_block1.exec-3428.deval1";"11824";"2014-10-16 13:10:51.103";"13";"7";"6";"7";"2485";"3109";"3210";"2014-10-16 13:10:39.278";"2";;;;;;;;;;;;;;;;;;;;;;;;;;;;;;;;;;;;;;;;;;;;;;;;;;;;;;;;;;;;;;;;;;;;;;;;;;;;;;;;
"smitha59";;;"Windows 7";"Rachel's Experiment (D.T.)";"1.0";"2";"1";"1";"2";"1";"1";"2014-10-16 12:57:03.256";"2014-10-16 13:13:55.277";"1";"1";"0";"171";"170";"module.devaluation_block1.exec-3428.deval1";"9528";"2014-10-16 13:11:00.650";"26";"7";"7";"8";"1933";"2049";"2515";"2014-10-16 13:10:51.119";"3";;;;;;;;;;;;;;;;;;;;;;;;;;;;;;;;;;;;;;;;;;;;;;;;;;;;;;;;;;;;;;;;;;;;;;;;;;;;;;;;
"smitha59";;;"Windows 7";"Rachel's Experiment (D.T.)";"1.0";"2";"1";"1";"2";"1";"1";"2014-10-16 12:57:03.256";"2014-10-16 13:13:55.277";"1";"1";"0";"172";"171";"module.devaluation_block1.exec-3428.deval1";"7651";"2014-10-16 13:11:08.326";"6";"4";"3";"4";"1226";"1476";"1918";"2014-10-16 13:11:00.681";"1";;;;;;;;;;;;;;;;;;;;;;;;;;;;;;;;;;;;;;;;;;;;;;;;;;;;;;;;;;;;;;;;;;;;;;;;;;;;;;;;
"smitha59";;;"Windows 7";"Rachel's Experiment (D.T.)";"1.0";"2";"1";"1";"2";"1";"1";"2014-10-16 12:57:03.256";"2014-10-16 13:13:55.277";"1";"1";"0";"173";"172";"module.devaluation_block1.exec-3428.deval1";"8816";"2014-10-16 13:11:17.171";"25";"6";"5";"6";"1582";"2345";"1868";"2014-10-16 13:11:08.357";"3";;;;;;;;;;;;;;;;;;;;;;;;;;;;;;;;;;;;;;;;;;;;;;;;;;;;;;;;;;;;;;;;;;;;;;;;;;;;;;;;
"smitha59";;;"Windows 7";"Rachel's Experiment (D.T.)";"1.0";"2";"1";"1";"2";"1";"1";"2014-10-16 12:57:03.256";"2014-10-16 13:13:55.277";"1";"1";"0";"174";"173";"module.devaluation_block1.exec-3428.deval1";"9132";"2014-10-16 13:11:26.328";"9";"6";"4";"5";"1849";"1528";"2741";"2014-10-16 13:11:17.186";"2";;;;;;;;;;;;;;;;;;;;;;;;;;;;;;;;;;;;;;;;;;;;;;;;;;;;;;;;;;;;;;;;;;;;;;;;;;;;;;;;
"smitha59";;;"Windows 7";"Rachel's Experiment (D.T.)";"1.0";"2";"1";"1";"2";"1";"1";"2014-10-16 12:57:03.256";"2014-10-16 13:13:55.277";"1";"1";"0";"175";"174";"module.devaluation_block1.exec-3428.deval1";"11500";"2014-10-16 13:11:37.841";"17";"3";"1";"3";"2107";"4000";"2359";"2014-10-16 13:11:26.344";"2";;;;;;;;;;;;;;;;;;;;;;;;;;;;;;;;;;;;;;;;;;;;;;;;;;;;;;;;;;;;;;;;;;;;;;;;;;;;;;;;
"smitha59";;;"Windows 7";"Rachel's Experiment (D.T.)";"1.0";"2";"1";"1";"2";"1";"1";"2014-10-16 12:57:03.256";"2014-10-16 13:13:55.277";"1";"1";"0";"176";"175";"module.devaluation_block1.exec-3428.deval1";"9933";"2014-10-16 13:11:47.794";"16";"2";"1";"1";"2258";"1956";"2682";"2014-10-16 13:11:37.856";"2";;;;;;;;;;;;;;;;;;;;;;;;;;;;;;;;;;;;;;;;;;;;;;;;;;;;;;;;;;;;;;;;;;;;;;;;;;;;;;;;
"smitha59";;;"Windows 7";"Rachel's Experiment (D.T.)";"1.0";"2";"1";"1";"2";"1";"1";"2014-10-16 12:57:03.256";"2014-10-16 13:13:55.277";"1";"1";"0";"177";"176";"module.devaluation_block1.exec-3428.deval1";"11316";"2014-10-16 13:11:59.135";"12";"8";"7";"8";"2786";"2575";"2934";"2014-10-16 13:11:47.809";"2";;;;;;;;;;;;;;;;;;;;;;;;;;;;;;;;;;;;;;;;;;;;;;;;;;;;;;;;;;;;;;;;;;;;;;;;;;;;;;;;
"smitha59";;;"Windows 7";"Rachel's Experiment (D.T.)";"1.0";"2";"1";"1";"2";"1";"1";"2014-10-16 12:57:03.256";"2014-10-16 13:13:55.277";"1";"1";"0";"178";"177";"module.devaluation_block1.exec-3428.deval1";"9638";"2014-10-16 13:12:08.807";"5";"7";"7";"7";"2261";"1935";"2412";"2014-10-16 13:11:59.166";"1";;;;;;;;;;;;;;;;;;;;;;;;;;;;;;;;;;;;;;;;;;;;;;;;;;;;;;;;;;;;;;;;;;;;;;;;;;;;;;;;
"smitha59";;;"Windows 7";"Rachel's Experiment (D.T.)";"1.0";"2";"1";"1";"2";"1";"1";"2014-10-16 12:57:03.256";"2014-10-16 13:13:55.277";"1";"1";"0";"179";"178";"module.devaluation_block1.exec-3428.deval1";"9621";"2014-10-16 13:12:18.448";"10";"7";"5";"6";"3055";"1856";"1672";"2014-10-16 13:12:08.822";"2";;;;;;;;;;;;;;;;;;;;;;;;;;;;;;;;;;;;;;;;;;;;;;;;;;;;;;;;;;;;;;;;;;;;;;;;;;;;;;;;
"smitha59";;;"Windows 7";"Rachel's Experiment (D.T.)";"1.0";"2";"1";"1";"2";"1";"1";"2014-10-16 12:57:03.256";"2014-10-16 13:13:55.277";"1";"1";"0";"180";"179";"module.devaluation_block1.exec-3428.deval1";"7436";"2014-10-16 13:12:25.904";"7";"4";"3";"4";"996";"1372";"2034";"2014-10-16 13:12:18.463";"1";;;;;;;;;;;;;;;;;;;;;;;;;;;;;;;;;;;;;;;;;;;;;;;;;;;;;;;;;;;;;;;;;;;;;;;;;;;;;;;;
"smitha59";;;"Windows 7";"Rachel's Experiment (D.T.)";"1.0";"2";"1";"1";"2";"1";"1";"2014-10-16 12:57:03.256";"2014-10-16 13:13:55.277";"1";"1";"0";"181";"180";"module.devaluation_block1.exec-3428.deval1";"7284";"2014-10-16 13:12:33.221";"4";"7";"5";"6";"1675";"1110";"1475";"2014-10-16 13:12:25.936";"1";;;;;;;;;;;;;;;;;;;;;;;;;;;;;;;;;;;;;;;;;;;;;;;;;;;;;;;;;;;;;;;;;;;;;;;;;;;;;;;;
"smitha59";;;"Windows 7";"Rachel's Experiment (D.T.)";"1.0";"2";"1";"1";"2";"1";"1";"2014-10-16 12:57:03.256";"2014-10-16 13:13:55.277";"1";"1";"0";"182";"181";"module.devaluation_block1.exec-3428.deval1";"8908";"2014-10-16 13:12:42.144";"24";"5";"3";"4";"894";"1817";"3170";"2014-10-16 13:12:33.236";"3";;;;;;;;;;;;;;;;;;;;;;;;;;;;;;;;;;;;;;;;;;;;;;;;;;;;;;;;;;;;;;;;;;;;;;;;;;;;;;;;
"smitha59";;;"Windows 7";"Rachel's Experiment (D.T.)";"1.0";"2";"1";"1";"2";"1";"1";"2014-10-16 12:57:03.256";"2014-10-16 13:13:55.277";"1";"1";"0";"183";"182";"module.devaluation_block1.exec-3428.deval1";"8908";"2014-10-16 13:12:51.067";"19";"7";"6";"7";"1843";"1619";"2415";"2014-10-16 13:12:42.160";"3";;;;;;;;;;;;;;;;;;;;;;;;;;;;;;;;;;;;;;;;;;;;;;;;;;;;;;;;;;;;;;;;;;;;;;;;;;;;;;;;
"smitha59";;;"Windows 7";"Rachel's Experiment (D.T.)";"1.0";"2";"1";"1";"2";"1";"1";"2014-10-16 12:57:03.256";"2014-10-16 13:13:55.277";"1";"1";"0";"184";"183";"module.devaluation_block1.exec-3428.deval1";"8003";"2014-10-16 13:12:59.101";"23";"5";"3";"5";"512";"1468";"2979";"2014-10-16 13:12:51.098";"3";;;;;;;;;;;;;;;;;;;;;;;;;;;;;;;;;;;;;;;;;;;;;;;;;;;;;;;;;;;;;;;;;;;;;;;;;;;;;;;;
"smitha59";;;"Windows 7";"Rachel's Experiment (D.T.)";"1.0";"2";"1";"1";"2";"1";"1";"2014-10-16 12:57:03.256";"2014-10-16 13:13:55.277";"1";"1";"0";"185";"184";"module.devaluation_block1.exec-3428.deval1";"10472";"2014-10-16 13:13:09.600";"3";"6";"5";"7";"4142";"1801";"1501";"2014-10-16 13:12:59.132";"1";;;;;;;;;;;;;;;;;;;;;;;;;;;;;;;;;;;;;;;;;;;;;;;;;;;;;;;;;;;;;;;;;;;;;;;;;;;;;;;;
"smitha59";;;"Windows 7";"Rachel's Experiment (D.T.)";"1.0";"2";"1";"1";"2";"1";"1";"2014-10-16 12:57:03.256";"2014-10-16 13:13:55.277";"1";"1";"0";"186";"185";"module.devaluation_block1.exec-3428.deval1";"10988";"2014-10-16 13:13:20.614";"20";"4";"4";"6";"3555";"2887";"1515";"2014-10-16 13:13:09.616";"3";;;;;;;;;;;;;;;;;;;;;;;;;;;;;;;;;;;;;;;;;;;;;;;;;;;;;;;;;;;;;;;;;;;;;;;;;;;;;;;;
"smitha59";;;"Windows 7";"Rachel's Experiment (D.T.)";"1.0";"2";"1";"1";"2";"1";"1";"2014-10-16 12:57:03.256";"2014-10-16 13:13:55.277";"1";"1";"0";"187";"186";"module.devaluation_block1.exec-3428.deval1";"8557";"2014-10-16 13:13:29.194";"11";"5";"4";"4";"2061";"2290";"1175";"2014-10-16 13:13:20.629";"2";;;;;;;;;;;;;;;;;;;;;;;;;;;;;;;;;;;;;;;;;;;;;;;;;;;;;;;;;;;;;;;;;;;;;;;;;;;;;;;;
"smitha59";;;"Windows 7";"Rachel's Experiment (D.T.)";"1.0";"2";"1";"1";"2";"1";"1";"2014-10-16 12:57:03.256";"2014-10-16 13:13:55.277";"1";"1";"0";"188";"187";"module.devaluation_block1.exec-3428.deval1";"7844";"2014-10-16 13:13:37.056";"14";"7";"6";"6";"1265";"1418";"2127";"2014-10-16 13:13:29.209";"2";;;;;;;;;;;;;;;;;;;;;;;;;;;;;;;;;;;;;;;;;;;;;;;;;;;;;;;;;;;;;;;;;;;;;;;;;;;;;;;;
"smitha59";;;"Windows 7";"Rachel's Experiment (D.T.)";"1.0";"2";"1";"1";"2";"1";"1";"2014-10-16 12:57:03.256";"2014-10-16 13:13:55.277";"1";"1";"0";"189";"188";"module.devaluation_block1.exec-3428.deval1";"8004";"2014-10-16 13:13:45.075";"0";"4";"3";"5";"1683";"1174";"2115";"2014-10-16 13:13:37.072";"1";;;;;;;;;;;;;;;;;;;;;;;;;;;;;;;;;;;;;;;;;;;;;;;;;;;;;;;;;;;;;;;;;;;;;;;;;;;;;;;;
"smitha59";;;"Windows 7";"Rachel's Experiment (D.T.)";"1.0";"2";"1";"1";"2";"1";"1";"2014-10-16 12:57:03.256";"2014-10-16 13:13:55.277";"1";"1";"0";"190";"189";"module.devaluation_block1.exec-3428.deval1";"7876";"2014-10-16 13:13:52.968";"22";"5";"4";"6";"2248";"1473";"1135";"2014-10-16 13:13:45.090";"3";;;;;;;;;;;;;;;;;;;;;;;;;;;;;;;;;;;;;;;;;;;;;;;;;;;;;;;;;;;;;;;;;;;;;;;;;;;;;;;;
