"user.name";"user.yearOfBirth";"user.sex";"user.osName";"module.name";"module.version";"module.online.subject.code";"module.online.study.id";"module.online.module.nr";"module.online.group.nr";"session.id";"session.index";"session.startTime";"session.endTime";"session.completed";"session.node-8887.conditionType";"session.node-9034.DevalQorder";"trial.id";"trial.index";"trial.name";"trial.deval1.durationTime";"trial.deval1.endTime";"trial.deval1.icon";"trial.deval1.Resp_Attractive";"trial.deval1.Resp_Eat";"trial.deval1.Resp_Taste";"trial.deval1.RT_Attractive";"trial.deval1.RT_Eat";"trial.deval1.RT_Taste";"trial.deval1.startTime";"trial.deval1.stimulus type";"trial.devalPractice.durationTime";"trial.devalPractice.endTime";"trial.devalPractice.icon";"trial.devalPractice.Resp_Attractive";"trial.devalPractice.Resp_Eat";"trial.devalPractice.Resp_Taste";"trial.devalPractice.RT_Attractive";"trial.devalPractice.RT_Eat";"trial.devalPractice.RT_Taste";"trial.devalPractice.startTime";"trial.devalPractice.stimulus type";"trial.GoNoGo1.durationTime";"trial.GoNoGo1.endTime";"trial.GoNoGo1.Error Type";"trial.GoNoGo1.icon";"trial.GoNoGo1.location";"trial.GoNoGo1.outcome";"trial.GoNoGo1.response";"trial.GoNoGo1.result";"trial.GoNoGo1.RT";"trial.GoNoGo1.signal";"trial.GoNoGo1.startTime";"trial.GoNoGo1.stimulus type";"trial.GoNoGo2.durationTime";"trial.GoNoGo2.endTime";"trial.GoNoGo2.Error Type";"trial.GoNoGo2.icon";"trial.GoNoGo2.location";"trial.GoNoGo2.outcome";"trial.GoNoGo2.response";"trial.GoNoGo2.result";"trial.GoNoGo2.RT";"trial.GoNoGo2.signal";"trial.GoNoGo2.startTime";"trial.GoNoGo2.stimulus type";"trial.GoNoGo3.durationTime";"trial.GoNoGo3.endTime";"trial.GoNoGo3.Error Type";"trial.GoNoGo3.icon";"trial.GoNoGo3.location";"trial.GoNoGo3.outcome";"trial.GoNoGo3.response";"trial.GoNoGo3.result";"trial.GoNoGo3.RT";"trial.GoNoGo3.signal";"trial.GoNoGo3.startTime";"trial.GoNoGo3.stimulus type";"trial.GoNoGo4.durationTime";"trial.GoNoGo4.endTime";"trial.GoNoGo4.Error Type";"trial.GoNoGo4.icon";"trial.GoNoGo4.location";"trial.GoNoGo4.outcome";"trial.GoNoGo4.response";"trial.GoNoGo4.result";"trial.GoNoGo4.RT";"trial.GoNoGo4.signal";"trial.GoNoGo4.startTime";"trial.GoNoGo4.stimulus type";"trial.GoNoGo_Practice.durationTime";"trial.GoNoGo_Practice.endTime";"trial.GoNoGo_Practice.icon";"trial.GoNoGo_Practice.location";"trial.GoNoGo_Practice.outcome";"trial.GoNoGo_Practice.response";"trial.GoNoGo_Practice.result";"trial.GoNoGo_Practice.RT";"trial.GoNoGo_Practice.signal";"trial.GoNoGo_Practice.startTime";"trial.GoNoGo_Practice.stimulus type";"trial.GoNoGo_Tutorial.durationTime";"trial.GoNoGo_Tutorial.endTime";"trial.GoNoGo_Tutorial.icon";"trial.GoNoGo_Tutorial.location";"trial.GoNoGo_Tutorial.outcome";"trial.GoNoGo_Tutorial.response";"trial.GoNoGo_Tutorial.result";"trial.GoNoGo_Tutorial.RT";"trial.GoNoGo_Tutorial.signal";"trial.GoNoGo_Tutorial.startTime"
"becca95";;;"Windows 7";"Rachel's Experiment (D.T.)";"1.0";"2";"1";"1";"2";"1";"1";"2014-10-07 09:26:43.532";"2014-10-07 09:42:41.077";"1";"1";"0";"1";"0";"module.GoNoGotutorial.exec-8783.GoNoGo_Tutorial";;;;;;;;;;;;;;;;;;;;;;;;;;;;;;;;;;;;;;;;;;;;;;;;;;;;;;;;;;;;;;;;;;;;;;;;;;;;;;;;;;"3996";"2014-10-07 09:27:54.824";"leftResponse";"0";"FINISHED";"LEFT";"success";"3719";"0";"2014-10-07 09:27:50.815"
"becca95";;;"Windows 7";"Rachel's Experiment (D.T.)";"1.0";"2";"1";"1";"2";"1";"1";"2014-10-07 09:26:43.532";"2014-10-07 09:42:41.077";"1";"1";"0";"2";"1";"module.GoNoGotutorial.exec-8783.GoNoGo_Tutorial";;;;;;;;;;;;;;;;;;;;;;;;;;;;;;;;;;;;;;;;;;;;;;;;;;;;;;;;;;;;;;;;;;;;;;;;;;;;;;;;;;"4007";"2014-10-07 09:28:00.144";"rightResponse";"1";"FINISHED";"RIGHT";"success";"1051";"0";"2014-10-07 09:27:56.135"
"becca95";;;"Windows 7";"Rachel's Experiment (D.T.)";"1.0";"2";"1";"1";"2";"1";"1";"2014-10-07 09:26:43.532";"2014-10-07 09:42:41.077";"1";"1";"0";"3";"2";"module.GoNoGotutorial.exec-8783.GoNoGo_Tutorial";;;;;;;;;;;;;;;;;;;;;;;;;;;;;;;;;;;;;;;;;;;;;;;;;;;;;;;;;;;;;;;;;;;;;;;;;;;;;;;;;;"4003";"2014-10-07 09:28:05.432";"signalResponse";"0";"FINISHED";"NONE";"success";"0";"1";"2014-10-07 09:28:01.423"
"becca95";;;"Windows 7";"Rachel's Experiment (D.T.)";"1.0";"2";"1";"1";"2";"1";"1";"2014-10-07 09:26:43.532";"2014-10-07 09:42:41.077";"1";"1";"0";"4";"3";"module.GoNoGopractice.exec-3023.GoNoGo_Practice";;;;;;;;;;;;;;;;;;;;;;;;;;;;;;;;;;;;;;;;;;;;;;;;;;;;;;;;;;;;;;;;;;;;;;;"1959";"2014-10-07 09:28:14.277";"18";"0";"FINISHED";"LEFT";"success";"437";"0";"2014-10-07 09:28:12.312";"3";;;;;;;;;;
"becca95";;;"Windows 7";"Rachel's Experiment (D.T.)";"1.0";"2";"1";"1";"2";"1";"1";"2014-10-07 09:26:43.532";"2014-10-07 09:42:41.077";"1";"1";"0";"5";"4";"module.GoNoGopractice.exec-3023.GoNoGo_Practice";;;;;;;;;;;;;;;;;;;;;;;;;;;;;;;;;;;;;;;;;;;;;;;;;;;;;;;;;;;;;;;;;;;;;;;"1959";"2014-10-07 09:28:17.522";"21";"1";"FINISHED";"RIGHT";"success";"424";"0";"2014-10-07 09:28:15.557";"3";;;;;;;;;;
"becca95";;;"Windows 7";"Rachel's Experiment (D.T.)";"1.0";"2";"1";"1";"2";"1";"1";"2014-10-07 09:26:43.532";"2014-10-07 09:42:41.077";"1";"1";"0";"6";"5";"module.GoNoGopractice.exec-3023.GoNoGo_Practice";;;;;;;;;;;;;;;;;;;;;;;;;;;;;;;;;;;;;;;;;;;;;;;;;;;;;;;;;;;;;;;;;;;;;;;"1959";"2014-10-07 09:28:20.767";"14";"1";"FINISHED";"RIGHT";"failure";"500";"1";"2014-10-07 09:28:18.801";"2";;;;;;;;;;
"becca95";;;"Windows 7";"Rachel's Experiment (D.T.)";"1.0";"2";"1";"1";"2";"1";"1";"2014-10-07 09:26:43.532";"2014-10-07 09:42:41.077";"1";"1";"0";"7";"6";"module.GoNoGopractice.exec-3023.GoNoGo_Practice";;;;;;;;;;;;;;;;;;;;;;;;;;;;;;;;;;;;;;;;;;;;;;;;;;;;;;;;;;;;;;;;;;;;;;;"1959";"2014-10-07 09:28:24.012";"26";"0";"FINISHED";"LEFT";"success";"607";"0";"2014-10-07 09:28:22.046";"3";;;;;;;;;;
"becca95";;;"Windows 7";"Rachel's Experiment (D.T.)";"1.0";"2";"1";"1";"2";"1";"1";"2014-10-07 09:26:43.532";"2014-10-07 09:42:41.077";"1";"1";"0";"8";"7";"module.GoNoGopractice.exec-3023.GoNoGo_Practice";;;;;;;;;;;;;;;;;;;;;;;;;;;;;;;;;;;;;;;;;;;;;;;;;;;;;;;;;;;;;;;;;;;;;;;"1959";"2014-10-07 09:28:27.257";"2";"0";"FINISHED";"LEFT";"success";"658";"0";"2014-10-07 09:28:25.291";"1";;;;;;;;;;
"becca95";;;"Windows 7";"Rachel's Experiment (D.T.)";"1.0";"2";"1";"1";"2";"1";"1";"2014-10-07 09:26:43.532";"2014-10-07 09:42:41.077";"1";"1";"0";"9";"8";"module.GoNoGopractice.exec-3023.GoNoGo_Practice";;;;;;;;;;;;;;;;;;;;;;;;;;;;;;;;;;;;;;;;;;;;;;;;;;;;;;;;;;;;;;;;;;;;;;;"1960";"2014-10-07 09:28:30.501";"30";"0";"FINISHED";"NONE";"success";"0";"1";"2014-10-07 09:28:28.536";"3";;;;;;;;;;
"becca95";;;"Windows 7";"Rachel's Experiment (D.T.)";"1.0";"2";"1";"1";"2";"1";"1";"2014-10-07 09:26:43.532";"2014-10-07 09:42:41.077";"1";"1";"0";"10";"9";"module.GoNoGopractice.exec-3023.GoNoGo_Practice";;;;;;;;;;;;;;;;;;;;;;;;;;;;;;;;;;;;;;;;;;;;;;;;;;;;;;;;;;;;;;;;;;;;;;;"1953";"2014-10-07 09:28:33.746";"6";"1";"FINISHED";"NONE";"success";"0";"1";"2014-10-07 09:28:31.781";"1";;;;;;;;;;
"becca95";;;"Windows 7";"Rachel's Experiment (D.T.)";"1.0";"2";"1";"1";"2";"1";"1";"2014-10-07 09:26:43.532";"2014-10-07 09:42:41.077";"1";"1";"0";"11";"10";"module.GoNoGopractice.exec-3023.GoNoGo_Practice";;;;;;;;;;;;;;;;;;;;;;;;;;;;;;;;;;;;;;;;;;;;;;;;;;;;;;;;;;;;;;;;;;;;;;;"1960";"2014-10-07 09:28:36.991";"34";"0";"FINISHED";"LEFT";"success";"580";"0";"2014-10-07 09:28:35.025";"3";;;;;;;;;;
"becca95";;;"Windows 7";"Rachel's Experiment (D.T.)";"1.0";"2";"1";"1";"2";"1";"1";"2014-10-07 09:26:43.532";"2014-10-07 09:42:41.077";"1";"1";"0";"12";"11";"module.GoNoGopractice.exec-3023.GoNoGo_Practice";;;;;;;;;;;;;;;;;;;;;;;;;;;;;;;;;;;;;;;;;;;;;;;;;;;;;;;;;;;;;;;;;;;;;;;"1959";"2014-10-07 09:28:40.236";"23";"1";"FINISHED";"RIGHT";"success";"687";"0";"2014-10-07 09:28:38.270";"3";;;;;;;;;;
"becca95";;;"Windows 7";"Rachel's Experiment (D.T.)";"1.0";"2";"1";"1";"2";"1";"1";"2014-10-07 09:26:43.532";"2014-10-07 09:42:41.077";"1";"1";"0";"13";"12";"module.GoNoGopractice.exec-3023.GoNoGo_Practice";;;;;;;;;;;;;;;;;;;;;;;;;;;;;;;;;;;;;;;;;;;;;;;;;;;;;;;;;;;;;;;;;;;;;;;"1959";"2014-10-07 09:28:43.481";"13";"0";"FINISHED";"NONE";"success";"0";"1";"2014-10-07 09:28:41.515";"2";;;;;;;;;;
"becca95";;;"Windows 7";"Rachel's Experiment (D.T.)";"1.0";"2";"1";"1";"2";"1";"1";"2014-10-07 09:26:43.532";"2014-10-07 09:42:41.077";"1";"1";"0";"14";"13";"module.GoNoGopractice.exec-3023.GoNoGo_Practice";;;;;;;;;;;;;;;;;;;;;;;;;;;;;;;;;;;;;;;;;;;;;;;;;;;;;;;;;;;;;;;;;;;;;;;"1959";"2014-10-07 09:28:46.725";"3";"1";"FINISHED";"RIGHT";"success";"757";"0";"2014-10-07 09:28:44.760";"1";;;;;;;;;;
"becca95";;;"Windows 7";"Rachel's Experiment (D.T.)";"1.0";"2";"1";"1";"2";"1";"1";"2014-10-07 09:26:43.532";"2014-10-07 09:42:41.077";"1";"1";"0";"15";"14";"module.GoNoGopractice.exec-3023.GoNoGo_Practice";;;;;;;;;;;;;;;;;;;;;;;;;;;;;;;;;;;;;;;;;;;;;;;;;;;;;;;;;;;;;;;;;;;;;;;"1959";"2014-10-07 09:28:49.970";"27";"1";"FINISHED";"NONE";"success";"0";"1";"2014-10-07 09:28:48.005";"3";;;;;;;;;;
"becca95";;;"Windows 7";"Rachel's Experiment (D.T.)";"1.0";"2";"1";"1";"2";"1";"1";"2014-10-07 09:26:43.532";"2014-10-07 09:42:41.077";"1";"1";"0";"16";"15";"module.training_block1.exec-1347.GoNoGo1";;;;;;;;;;;;;;;;;;;;;;;"1261";"2014-10-07 09:29:03.168";"ST_correctStop";"30";"1";"FINISHED";"NONE";"success";"0";"1";"2014-10-07 09:29:01.904";"3";;;;;;;;;;;;;;;;;;;;;;;;;;;;;;;;;;;;;;;;;;;;;;;;;;;;;;;;;
"becca95";;;"Windows 7";"Rachel's Experiment (D.T.)";"1.0";"2";"1";"1";"2";"1";"1";"2014-10-07 09:26:43.532";"2014-10-07 09:42:41.077";"1";"1";"0";"17";"16";"module.training_block1.exec-1347.GoNoGo1";;;;;;;;;;;;;;;;;;;;;;;"1257";"2014-10-07 09:29:05.711";"NST_correctLoc";"24";"1";"FINISHED";"RIGHT";"success";"622";"0";"2014-10-07 09:29:04.447";"3";;;;;;;;;;;;;;;;;;;;;;;;;;;;;;;;;;;;;;;;;;;;;;;;;;;;;;;;;
"becca95";;;"Windows 7";"Rachel's Experiment (D.T.)";"1.0";"2";"1";"1";"2";"1";"1";"2014-10-07 09:26:43.532";"2014-10-07 09:42:41.077";"1";"1";"0";"18";"17";"module.training_block1.exec-1347.GoNoGo1";;;;;;;;;;;;;;;;;;;;;;;"1261";"2014-10-07 09:29:08.253";"NST_correctLoc";"34";"0";"FINISHED";"LEFT";"success";"555";"0";"2014-10-07 09:29:06.990";"3";;;;;;;;;;;;;;;;;;;;;;;;;;;;;;;;;;;;;;;;;;;;;;;;;;;;;;;;;
"becca95";;;"Windows 7";"Rachel's Experiment (D.T.)";"1.0";"2";"1";"1";"2";"1";"1";"2014-10-07 09:26:43.532";"2014-10-07 09:42:41.077";"1";"1";"0";"19";"18";"module.training_block1.exec-1347.GoNoGo1";;;;;;;;;;;;;;;;;;;;;;;"1258";"2014-10-07 09:29:10.796";"ST_correctStop";"19";"0";"FINISHED";"NONE";"success";"0";"1";"2014-10-07 09:29:09.533";"3";;;;;;;;;;;;;;;;;;;;;;;;;;;;;;;;;;;;;;;;;;;;;;;;;;;;;;;;;
"becca95";;;"Windows 7";"Rachel's Experiment (D.T.)";"1.0";"2";"1";"1";"2";"1";"1";"2014-10-07 09:26:43.532";"2014-10-07 09:42:41.077";"1";"1";"0";"20";"19";"module.training_block1.exec-1347.GoNoGo1";;;;;;;;;;;;;;;;;;;;;;;"1257";"2014-10-07 09:29:13.339";"NST_correctLoc";"32";"1";"FINISHED";"RIGHT";"success";"537";"0";"2014-10-07 09:29:12.075";"3";;;;;;;;;;;;;;;;;;;;;;;;;;;;;;;;;;;;;;;;;;;;;;;;;;;;;;;;;
"becca95";;;"Windows 7";"Rachel's Experiment (D.T.)";"1.0";"2";"1";"1";"2";"1";"1";"2014-10-07 09:26:43.532";"2014-10-07 09:42:41.077";"1";"1";"0";"21";"20";"module.training_block1.exec-1347.GoNoGo1";;;;;;;;;;;;;;;;;;;;;;;"1258";"2014-10-07 09:29:15.882";"NST_correctLoc";"9";"1";"FINISHED";"RIGHT";"success";"603";"0";"2014-10-07 09:29:14.618";"2";;;;;;;;;;;;;;;;;;;;;;;;;;;;;;;;;;;;;;;;;;;;;;;;;;;;;;;;;
"becca95";;;"Windows 7";"Rachel's Experiment (D.T.)";"1.0";"2";"1";"1";"2";"1";"1";"2014-10-07 09:26:43.532";"2014-10-07 09:42:41.077";"1";"1";"0";"22";"21";"module.training_block1.exec-1347.GoNoGo1";;;;;;;;;;;;;;;;;;;;;;;"1257";"2014-10-07 09:29:18.425";"NST_correctLoc";"31";"1";"FINISHED";"RIGHT";"success";"523";"0";"2014-10-07 09:29:17.161";"3";;;;;;;;;;;;;;;;;;;;;;;;;;;;;;;;;;;;;;;;;;;;;;;;;;;;;;;;;
"becca95";;;"Windows 7";"Rachel's Experiment (D.T.)";"1.0";"2";"1";"1";"2";"1";"1";"2014-10-07 09:26:43.532";"2014-10-07 09:42:41.077";"1";"1";"0";"23";"22";"module.training_block1.exec-1347.GoNoGo1";;;;;;;;;;;;;;;;;;;;;;;"1258";"2014-10-07 09:29:20.968";"NST_correctLoc";"29";"0";"FINISHED";"LEFT";"success";"741";"0";"2014-10-07 09:29:19.704";"3";;;;;;;;;;;;;;;;;;;;;;;;;;;;;;;;;;;;;;;;;;;;;;;;;;;;;;;;;
"becca95";;;"Windows 7";"Rachel's Experiment (D.T.)";"1.0";"2";"1";"1";"2";"1";"1";"2014-10-07 09:26:43.532";"2014-10-07 09:42:41.077";"1";"1";"0";"24";"23";"module.training_block1.exec-1347.GoNoGo1";;;;;;;;;;;;;;;;;;;;;;;"1257";"2014-10-07 09:29:23.510";"ST_correctStop";"4";"1";"FINISHED";"NONE";"success";"0";"1";"2014-10-07 09:29:22.247";"1";;;;;;;;;;;;;;;;;;;;;;;;;;;;;;;;;;;;;;;;;;;;;;;;;;;;;;;;;
"becca95";;;"Windows 7";"Rachel's Experiment (D.T.)";"1.0";"2";"1";"1";"2";"1";"1";"2014-10-07 09:26:43.532";"2014-10-07 09:42:41.077";"1";"1";"0";"25";"24";"module.training_block1.exec-1347.GoNoGo1";;;;;;;;;;;;;;;;;;;;;;;"1257";"2014-10-07 09:29:26.053";"ST_correctStop";"8";"0";"FINISHED";"NONE";"success";"0";"1";"2014-10-07 09:29:24.790";"1";;;;;;;;;;;;;;;;;;;;;;;;;;;;;;;;;;;;;;;;;;;;;;;;;;;;;;;;;
"becca95";;;"Windows 7";"Rachel's Experiment (D.T.)";"1.0";"2";"1";"1";"2";"1";"1";"2014-10-07 09:26:43.532";"2014-10-07 09:42:41.077";"1";"1";"0";"26";"25";"module.training_block1.exec-1347.GoNoGo1";;;;;;;;;;;;;;;;;;;;;;;"1258";"2014-10-07 09:29:28.596";"NST_correctLoc";"10";"0";"FINISHED";"LEFT";"success";"625";"0";"2014-10-07 09:29:27.332";"2";;;;;;;;;;;;;;;;;;;;;;;;;;;;;;;;;;;;;;;;;;;;;;;;;;;;;;;;;
"becca95";;;"Windows 7";"Rachel's Experiment (D.T.)";"1.0";"2";"1";"1";"2";"1";"1";"2014-10-07 09:26:43.532";"2014-10-07 09:42:41.077";"1";"1";"0";"27";"26";"module.training_block1.exec-1347.GoNoGo1";;;;;;;;;;;;;;;;;;;;;;;"1258";"2014-10-07 09:29:31.139";"NST_correctLoc";"11";"1";"FINISHED";"RIGHT";"success";"546";"0";"2014-10-07 09:29:29.875";"2";;;;;;;;;;;;;;;;;;;;;;;;;;;;;;;;;;;;;;;;;;;;;;;;;;;;;;;;;
"becca95";;;"Windows 7";"Rachel's Experiment (D.T.)";"1.0";"2";"1";"1";"2";"1";"1";"2014-10-07 09:26:43.532";"2014-10-07 09:42:41.077";"1";"1";"0";"28";"27";"module.training_block1.exec-1347.GoNoGo1";;;;;;;;;;;;;;;;;;;;;;;"1261";"2014-10-07 09:29:33.682";"NST_correctLoc";"14";"0";"FINISHED";"LEFT";"success";"911";"0";"2014-10-07 09:29:32.418";"2";;;;;;;;;;;;;;;;;;;;;;;;;;;;;;;;;;;;;;;;;;;;;;;;;;;;;;;;;
"becca95";;;"Windows 7";"Rachel's Experiment (D.T.)";"1.0";"2";"1";"1";"2";"1";"1";"2014-10-07 09:26:43.532";"2014-10-07 09:42:41.077";"1";"1";"0";"29";"28";"module.training_block1.exec-1347.GoNoGo1";;;;;;;;;;;;;;;;;;;;;;;"1261";"2014-10-07 09:29:36.224";"NST_correctLoc";"13";"1";"FINISHED";"RIGHT";"success";"752";"0";"2014-10-07 09:29:34.961";"2";;;;;;;;;;;;;;;;;;;;;;;;;;;;;;;;;;;;;;;;;;;;;;;;;;;;;;;;;
"becca95";;;"Windows 7";"Rachel's Experiment (D.T.)";"1.0";"2";"1";"1";"2";"1";"1";"2014-10-07 09:26:43.532";"2014-10-07 09:42:41.077";"1";"1";"0";"30";"29";"module.training_block1.exec-1347.GoNoGo1";;;;;;;;;;;;;;;;;;;;;;;"1258";"2014-10-07 09:29:38.767";"ST_correctStop";"1";"1";"FINISHED";"NONE";"success";"0";"1";"2014-10-07 09:29:37.504";"1";;;;;;;;;;;;;;;;;;;;;;;;;;;;;;;;;;;;;;;;;;;;;;;;;;;;;;;;;
"becca95";;;"Windows 7";"Rachel's Experiment (D.T.)";"1.0";"2";"1";"1";"2";"1";"1";"2014-10-07 09:26:43.532";"2014-10-07 09:42:41.077";"1";"1";"0";"31";"30";"module.training_block1.exec-1347.GoNoGo1";;;;;;;;;;;;;;;;;;;;;;;"1258";"2014-10-07 09:29:41.310";"ST_correctStop";"28";"1";"FINISHED";"NONE";"success";"0";"1";"2014-10-07 09:29:40.046";"3";;;;;;;;;;;;;;;;;;;;;;;;;;;;;;;;;;;;;;;;;;;;;;;;;;;;;;;;;
"becca95";;;"Windows 7";"Rachel's Experiment (D.T.)";"1.0";"2";"1";"1";"2";"1";"1";"2014-10-07 09:26:43.532";"2014-10-07 09:42:41.077";"1";"1";"0";"32";"31";"module.training_block1.exec-1347.GoNoGo1";;;;;;;;;;;;;;;;;;;;;;;"1258";"2014-10-07 09:29:43.853";"NST_correctLoc";"12";"1";"FINISHED";"RIGHT";"success";"728";"0";"2014-10-07 09:29:42.589";"2";;;;;;;;;;;;;;;;;;;;;;;;;;;;;;;;;;;;;;;;;;;;;;;;;;;;;;;;;
"becca95";;;"Windows 7";"Rachel's Experiment (D.T.)";"1.0";"2";"1";"1";"2";"1";"1";"2014-10-07 09:26:43.532";"2014-10-07 09:42:41.077";"1";"1";"0";"33";"32";"module.training_block1.exec-1347.GoNoGo1";;;;;;;;;;;;;;;;;;;;;;;"1258";"2014-10-07 09:29:46.396";"ST_correctStop";"0";"1";"FINISHED";"NONE";"success";"0";"1";"2014-10-07 09:29:45.132";"1";;;;;;;;;;;;;;;;;;;;;;;;;;;;;;;;;;;;;;;;;;;;;;;;;;;;;;;;;
"becca95";;;"Windows 7";"Rachel's Experiment (D.T.)";"1.0";"2";"1";"1";"2";"1";"1";"2014-10-07 09:26:43.532";"2014-10-07 09:42:41.077";"1";"1";"0";"34";"33";"module.training_block1.exec-1347.GoNoGo1";;;;;;;;;;;;;;;;;;;;;;;"1257";"2014-10-07 09:29:48.938";"NST_correctLoc";"22";"0";"FINISHED";"LEFT";"success";"593";"0";"2014-10-07 09:29:47.675";"3";;;;;;;;;;;;;;;;;;;;;;;;;;;;;;;;;;;;;;;;;;;;;;;;;;;;;;;;;
"becca95";;;"Windows 7";"Rachel's Experiment (D.T.)";"1.0";"2";"1";"1";"2";"1";"1";"2014-10-07 09:26:43.532";"2014-10-07 09:42:41.077";"1";"1";"0";"35";"34";"module.training_block1.exec-1347.GoNoGo1";;;;;;;;;;;;;;;;;;;;;;;"1261";"2014-10-07 09:29:51.481";"NST_correctLoc";"26";"1";"FINISHED";"RIGHT";"success";"951";"0";"2014-10-07 09:29:50.218";"3";;;;;;;;;;;;;;;;;;;;;;;;;;;;;;;;;;;;;;;;;;;;;;;;;;;;;;;;;
"becca95";;;"Windows 7";"Rachel's Experiment (D.T.)";"1.0";"2";"1";"1";"2";"1";"1";"2014-10-07 09:26:43.532";"2014-10-07 09:42:41.077";"1";"1";"0";"36";"35";"module.training_block1.exec-1347.GoNoGo1";;;;;;;;;;;;;;;;;;;;;;;"1257";"2014-10-07 09:29:54.024";"NST_correctLoc";"17";"0";"FINISHED";"LEFT";"success";"932";"0";"2014-10-07 09:29:52.760";"2";;;;;;;;;;;;;;;;;;;;;;;;;;;;;;;;;;;;;;;;;;;;;;;;;;;;;;;;;
"becca95";;;"Windows 7";"Rachel's Experiment (D.T.)";"1.0";"2";"1";"1";"2";"1";"1";"2014-10-07 09:26:43.532";"2014-10-07 09:42:41.077";"1";"1";"0";"37";"36";"module.training_block1.exec-1347.GoNoGo1";;;;;;;;;;;;;;;;;;;;;;;"1258";"2014-10-07 09:29:56.567";"NST_correctLoc";"20";"1";"FINISHED";"RIGHT";"success";"893";"0";"2014-10-07 09:29:55.303";"3";;;;;;;;;;;;;;;;;;;;;;;;;;;;;;;;;;;;;;;;;;;;;;;;;;;;;;;;;
"becca95";;;"Windows 7";"Rachel's Experiment (D.T.)";"1.0";"2";"1";"1";"2";"1";"1";"2014-10-07 09:26:43.532";"2014-10-07 09:42:41.077";"1";"1";"0";"38";"37";"module.training_block1.exec-1347.GoNoGo1";;;;;;;;;;;;;;;;;;;;;;;"1260";"2014-10-07 09:29:59.219";"ST_correctStop";"35";"1";"FINISHED";"NONE";"success";"0";"1";"2014-10-07 09:29:57.955";"3";;;;;;;;;;;;;;;;;;;;;;;;;;;;;;;;;;;;;;;;;;;;;;;;;;;;;;;;;
"becca95";;;"Windows 7";"Rachel's Experiment (D.T.)";"1.0";"2";"1";"1";"2";"1";"1";"2014-10-07 09:26:43.532";"2014-10-07 09:42:41.077";"1";"1";"0";"39";"38";"module.training_block1.exec-1347.GoNoGo1";;;;;;;;;;;;;;;;;;;;;;;"1257";"2014-10-07 09:30:01.762";"ST_correctStop";"2";"1";"FINISHED";"NONE";"success";"0";"1";"2014-10-07 09:30:00.498";"1";;;;;;;;;;;;;;;;;;;;;;;;;;;;;;;;;;;;;;;;;;;;;;;;;;;;;;;;;
"becca95";;;"Windows 7";"Rachel's Experiment (D.T.)";"1.0";"2";"1";"1";"2";"1";"1";"2014-10-07 09:26:43.532";"2014-10-07 09:42:41.077";"1";"1";"0";"40";"39";"module.training_block1.exec-1347.GoNoGo1";;;;;;;;;;;;;;;;;;;;;;;"1258";"2014-10-07 09:30:04.304";"ST_correctStop";"25";"1";"FINISHED";"NONE";"success";"0";"1";"2014-10-07 09:30:03.041";"3";;;;;;;;;;;;;;;;;;;;;;;;;;;;;;;;;;;;;;;;;;;;;;;;;;;;;;;;;
"becca95";;;"Windows 7";"Rachel's Experiment (D.T.)";"1.0";"2";"1";"1";"2";"1";"1";"2014-10-07 09:26:43.532";"2014-10-07 09:42:41.077";"1";"1";"0";"41";"40";"module.training_block1.exec-1347.GoNoGo1";;;;;;;;;;;;;;;;;;;;;;;"1257";"2014-10-07 09:30:06.847";"ST_correctStop";"7";"1";"FINISHED";"NONE";"success";"0";"1";"2014-10-07 09:30:05.584";"1";;;;;;;;;;;;;;;;;;;;;;;;;;;;;;;;;;;;;;;;;;;;;;;;;;;;;;;;;
"becca95";;;"Windows 7";"Rachel's Experiment (D.T.)";"1.0";"2";"1";"1";"2";"1";"1";"2014-10-07 09:26:43.532";"2014-10-07 09:42:41.077";"1";"1";"0";"42";"41";"module.training_block1.exec-1347.GoNoGo1";;;;;;;;;;;;;;;;;;;;;;;"1257";"2014-10-07 09:30:09.390";"ST_correctStop";"6";"0";"FINISHED";"NONE";"success";"0";"1";"2014-10-07 09:30:08.126";"1";;;;;;;;;;;;;;;;;;;;;;;;;;;;;;;;;;;;;;;;;;;;;;;;;;;;;;;;;
"becca95";;;"Windows 7";"Rachel's Experiment (D.T.)";"1.0";"2";"1";"1";"2";"1";"1";"2014-10-07 09:26:43.532";"2014-10-07 09:42:41.077";"1";"1";"0";"43";"42";"module.training_block1.exec-1347.GoNoGo1";;;;;;;;;;;;;;;;;;;;;;;"1257";"2014-10-07 09:30:11.933";"ST_correctStop";"27";"1";"FINISHED";"NONE";"success";"0";"1";"2014-10-07 09:30:10.669";"3";;;;;;;;;;;;;;;;;;;;;;;;;;;;;;;;;;;;;;;;;;;;;;;;;;;;;;;;;
"becca95";;;"Windows 7";"Rachel's Experiment (D.T.)";"1.0";"2";"1";"1";"2";"1";"1";"2014-10-07 09:26:43.532";"2014-10-07 09:42:41.077";"1";"1";"0";"44";"43";"module.training_block1.exec-1347.GoNoGo1";;;;;;;;;;;;;;;;;;;;;;;"1258";"2014-10-07 09:30:14.476";"NST_correctLoc";"16";"1";"FINISHED";"RIGHT";"success";"769";"0";"2014-10-07 09:30:13.212";"2";;;;;;;;;;;;;;;;;;;;;;;;;;;;;;;;;;;;;;;;;;;;;;;;;;;;;;;;;
"becca95";;;"Windows 7";"Rachel's Experiment (D.T.)";"1.0";"2";"1";"1";"2";"1";"1";"2014-10-07 09:26:43.532";"2014-10-07 09:42:41.077";"1";"1";"0";"45";"44";"module.training_block1.exec-1347.GoNoGo1";;;;;;;;;;;;;;;;;;;;;;;"1257";"2014-10-07 09:30:17.018";"NST_correctLoc";"15";"0";"FINISHED";"LEFT";"success";"697";"0";"2014-10-07 09:30:15.755";"2";;;;;;;;;;;;;;;;;;;;;;;;;;;;;;;;;;;;;;;;;;;;;;;;;;;;;;;;;
"becca95";;;"Windows 7";"Rachel's Experiment (D.T.)";"1.0";"2";"1";"1";"2";"1";"1";"2014-10-07 09:26:43.532";"2014-10-07 09:42:41.077";"1";"1";"0";"46";"45";"module.training_block1.exec-1347.GoNoGo1";;;;;;;;;;;;;;;;;;;;;;;"1257";"2014-10-07 09:30:19.561";"ST_correctStop";"3";"0";"FINISHED";"NONE";"success";"0";"1";"2014-10-07 09:30:18.298";"1";;;;;;;;;;;;;;;;;;;;;;;;;;;;;;;;;;;;;;;;;;;;;;;;;;;;;;;;;
"becca95";;;"Windows 7";"Rachel's Experiment (D.T.)";"1.0";"2";"1";"1";"2";"1";"1";"2014-10-07 09:26:43.532";"2014-10-07 09:42:41.077";"1";"1";"0";"47";"46";"module.training_block1.exec-1347.GoNoGo1";;;;;;;;;;;;;;;;;;;;;;;"1258";"2014-10-07 09:30:22.104";"ST_correctStop";"33";"1";"FINISHED";"NONE";"success";"0";"1";"2014-10-07 09:30:20.840";"3";;;;;;;;;;;;;;;;;;;;;;;;;;;;;;;;;;;;;;;;;;;;;;;;;;;;;;;;;
"becca95";;;"Windows 7";"Rachel's Experiment (D.T.)";"1.0";"2";"1";"1";"2";"1";"1";"2014-10-07 09:26:43.532";"2014-10-07 09:42:41.077";"1";"1";"0";"48";"47";"module.training_block1.exec-1347.GoNoGo1";;;;;;;;;;;;;;;;;;;;;;;"1258";"2014-10-07 09:30:24.647";"ST_correctStop";"18";"0";"FINISHED";"NONE";"success";"0";"1";"2014-10-07 09:30:23.383";"3";;;;;;;;;;;;;;;;;;;;;;;;;;;;;;;;;;;;;;;;;;;;;;;;;;;;;;;;;
"becca95";;;"Windows 7";"Rachel's Experiment (D.T.)";"1.0";"2";"1";"1";"2";"1";"1";"2014-10-07 09:26:43.532";"2014-10-07 09:42:41.077";"1";"1";"0";"49";"48";"module.training_block1.exec-1347.GoNoGo1";;;;;;;;;;;;;;;;;;;;;;;"1258";"2014-10-07 09:30:27.190";"ST_correctStop";"5";"0";"FINISHED";"NONE";"success";"0";"1";"2014-10-07 09:30:25.926";"1";;;;;;;;;;;;;;;;;;;;;;;;;;;;;;;;;;;;;;;;;;;;;;;;;;;;;;;;;
"becca95";;;"Windows 7";"Rachel's Experiment (D.T.)";"1.0";"2";"1";"1";"2";"1";"1";"2014-10-07 09:26:43.532";"2014-10-07 09:42:41.077";"1";"1";"0";"50";"49";"module.training_block1.exec-1347.GoNoGo1";;;;;;;;;;;;;;;;;;;;;;;"1257";"2014-10-07 09:30:29.732";"NST_correctLoc";"21";"1";"FINISHED";"RIGHT";"success";"711";"0";"2014-10-07 09:30:28.469";"3";;;;;;;;;;;;;;;;;;;;;;;;;;;;;;;;;;;;;;;;;;;;;;;;;;;;;;;;;
"becca95";;;"Windows 7";"Rachel's Experiment (D.T.)";"1.0";"2";"1";"1";"2";"1";"1";"2014-10-07 09:26:43.532";"2014-10-07 09:42:41.077";"1";"1";"0";"51";"50";"module.training_block1.exec-1347.GoNoGo1";;;;;;;;;;;;;;;;;;;;;;;"1257";"2014-10-07 09:30:32.275";"ST_correctStop";"23";"0";"FINISHED";"NONE";"success";"0";"1";"2014-10-07 09:30:31.012";"3";;;;;;;;;;;;;;;;;;;;;;;;;;;;;;;;;;;;;;;;;;;;;;;;;;;;;;;;;
"becca95";;;"Windows 7";"Rachel's Experiment (D.T.)";"1.0";"2";"1";"1";"2";"1";"1";"2014-10-07 09:26:43.532";"2014-10-07 09:42:41.077";"1";"1";"0";"52";"51";"module.training_block2.exec-9888.GoNoGo2";;;;;;;;;;;;;;;;;;;;;;;;;;;;;;;;;;;"1257";"2014-10-07 09:30:44.880";"NST_correctLoc";"17";"1";"FINISHED";"RIGHT";"success";"651";"0";"2014-10-07 09:30:43.616";"2";;;;;;;;;;;;;;;;;;;;;;;;;;;;;;;;;;;;;;;;;;;;;
"becca95";;;"Windows 7";"Rachel's Experiment (D.T.)";"1.0";"2";"1";"1";"2";"1";"1";"2014-10-07 09:26:43.532";"2014-10-07 09:42:41.077";"1";"1";"0";"53";"52";"module.training_block2.exec-9888.GoNoGo2";;;;;;;;;;;;;;;;;;;;;;;;;;;;;;;;;;;"1261";"2014-10-07 09:30:47.423";"ST_correctStop";"7";"0";"FINISHED";"NONE";"success";"0";"1";"2014-10-07 09:30:46.159";"1";;;;;;;;;;;;;;;;;;;;;;;;;;;;;;;;;;;;;;;;;;;;;
"becca95";;;"Windows 7";"Rachel's Experiment (D.T.)";"1.0";"2";"1";"1";"2";"1";"1";"2014-10-07 09:26:43.532";"2014-10-07 09:42:41.077";"1";"1";"0";"54";"53";"module.training_block2.exec-9888.GoNoGo2";;;;;;;;;;;;;;;;;;;;;;;;;;;;;;;;;;;"1256";"2014-10-07 09:30:49.966";"ST_correctStop";"0";"0";"FINISHED";"NONE";"success";"0";"1";"2014-10-07 09:30:48.702";"1";;;;;;;;;;;;;;;;;;;;;;;;;;;;;;;;;;;;;;;;;;;;;
"becca95";;;"Windows 7";"Rachel's Experiment (D.T.)";"1.0";"2";"1";"1";"2";"1";"1";"2014-10-07 09:26:43.532";"2014-10-07 09:42:41.077";"1";"1";"0";"55";"54";"module.training_block2.exec-9888.GoNoGo2";;;;;;;;;;;;;;;;;;;;;;;;;;;;;;;;;;;"1261";"2014-10-07 09:30:52.508";"ST_correctStop";"33";"0";"FINISHED";"NONE";"success";"0";"1";"2014-10-07 09:30:51.245";"3";;;;;;;;;;;;;;;;;;;;;;;;;;;;;;;;;;;;;;;;;;;;;
"becca95";;;"Windows 7";"Rachel's Experiment (D.T.)";"1.0";"2";"1";"1";"2";"1";"1";"2014-10-07 09:26:43.532";"2014-10-07 09:42:41.077";"1";"1";"0";"56";"55";"module.training_block2.exec-9888.GoNoGo2";;;;;;;;;;;;;;;;;;;;;;;;;;;;;;;;;;;"1258";"2014-10-07 09:30:55.051";"NST_correctLoc";"24";"1";"FINISHED";"RIGHT";"success";"689";"0";"2014-10-07 09:30:53.788";"3";;;;;;;;;;;;;;;;;;;;;;;;;;;;;;;;;;;;;;;;;;;;;
"becca95";;;"Windows 7";"Rachel's Experiment (D.T.)";"1.0";"2";"1";"1";"2";"1";"1";"2014-10-07 09:26:43.532";"2014-10-07 09:42:41.077";"1";"1";"0";"57";"56";"module.training_block2.exec-9888.GoNoGo2";;;;;;;;;;;;;;;;;;;;;;;;;;;;;;;;;;;"1261";"2014-10-07 09:30:57.594";"ST_correctStop";"6";"0";"FINISHED";"NONE";"success";"0";"1";"2014-10-07 09:30:56.330";"1";;;;;;;;;;;;;;;;;;;;;;;;;;;;;;;;;;;;;;;;;;;;;
"becca95";;;"Windows 7";"Rachel's Experiment (D.T.)";"1.0";"2";"1";"1";"2";"1";"1";"2014-10-07 09:26:43.532";"2014-10-07 09:42:41.077";"1";"1";"0";"58";"57";"module.training_block2.exec-9888.GoNoGo2";;;;;;;;;;;;;;;;;;;;;;;;;;;;;;;;;;;"1261";"2014-10-07 09:31:00.137";"ST_correctStop";"21";"0";"FINISHED";"NONE";"success";"0";"1";"2014-10-07 09:30:58.873";"3";;;;;;;;;;;;;;;;;;;;;;;;;;;;;;;;;;;;;;;;;;;;;
"becca95";;;"Windows 7";"Rachel's Experiment (D.T.)";"1.0";"2";"1";"1";"2";"1";"1";"2014-10-07 09:26:43.532";"2014-10-07 09:42:41.077";"1";"1";"0";"59";"58";"module.training_block2.exec-9888.GoNoGo2";;;;;;;;;;;;;;;;;;;;;;;;;;;;;;;;;;;"1257";"2014-10-07 09:31:02.680";"NST_correctLoc";"19";"1";"FINISHED";"RIGHT";"success";"676";"0";"2014-10-07 09:31:01.416";"3";;;;;;;;;;;;;;;;;;;;;;;;;;;;;;;;;;;;;;;;;;;;;
"becca95";;;"Windows 7";"Rachel's Experiment (D.T.)";"1.0";"2";"1";"1";"2";"1";"1";"2014-10-07 09:26:43.532";"2014-10-07 09:42:41.077";"1";"1";"0";"60";"59";"module.training_block2.exec-9888.GoNoGo2";;;;;;;;;;;;;;;;;;;;;;;;;;;;;;;;;;;"1261";"2014-10-07 09:31:05.222";"ST_correctStop";"2";"1";"FINISHED";"NONE";"success";"0";"1";"2014-10-07 09:31:03.959";"1";;;;;;;;;;;;;;;;;;;;;;;;;;;;;;;;;;;;;;;;;;;;;
"becca95";;;"Windows 7";"Rachel's Experiment (D.T.)";"1.0";"2";"1";"1";"2";"1";"1";"2014-10-07 09:26:43.532";"2014-10-07 09:42:41.077";"1";"1";"0";"61";"60";"module.training_block2.exec-9888.GoNoGo2";;;;;;;;;;;;;;;;;;;;;;;;;;;;;;;;;;;"1257";"2014-10-07 09:31:07.765";"NST_correctLoc";"22";"0";"FINISHED";"LEFT";"success";"654";"0";"2014-10-07 09:31:06.502";"3";;;;;;;;;;;;;;;;;;;;;;;;;;;;;;;;;;;;;;;;;;;;;
"becca95";;;"Windows 7";"Rachel's Experiment (D.T.)";"1.0";"2";"1";"1";"2";"1";"1";"2014-10-07 09:26:43.532";"2014-10-07 09:42:41.077";"1";"1";"0";"62";"61";"module.training_block2.exec-9888.GoNoGo2";;;;;;;;;;;;;;;;;;;;;;;;;;;;;;;;;;;"1261";"2014-10-07 09:31:10.308";"ST_correctStop";"5";"1";"FINISHED";"NONE";"success";"0";"1";"2014-10-07 09:31:09.044";"1";;;;;;;;;;;;;;;;;;;;;;;;;;;;;;;;;;;;;;;;;;;;;
"becca95";;;"Windows 7";"Rachel's Experiment (D.T.)";"1.0";"2";"1";"1";"2";"1";"1";"2014-10-07 09:26:43.532";"2014-10-07 09:42:41.077";"1";"1";"0";"63";"62";"module.training_block2.exec-9888.GoNoGo2";;;;;;;;;;;;;;;;;;;;;;;;;;;;;;;;;;;"1257";"2014-10-07 09:31:12.851";"ST_correctStop";"20";"0";"FINISHED";"NONE";"success";"0";"1";"2014-10-07 09:31:11.587";"3";;;;;;;;;;;;;;;;;;;;;;;;;;;;;;;;;;;;;;;;;;;;;
"becca95";;;"Windows 7";"Rachel's Experiment (D.T.)";"1.0";"2";"1";"1";"2";"1";"1";"2014-10-07 09:26:43.532";"2014-10-07 09:42:41.077";"1";"1";"0";"64";"63";"module.training_block2.exec-9888.GoNoGo2";;;;;;;;;;;;;;;;;;;;;;;;;;;;;;;;;;;"1258";"2014-10-07 09:31:15.394";"ST_correctStop";"34";"1";"FINISHED";"NONE";"success";"0";"1";"2014-10-07 09:31:14.130";"3";;;;;;;;;;;;;;;;;;;;;;;;;;;;;;;;;;;;;;;;;;;;;
"becca95";;;"Windows 7";"Rachel's Experiment (D.T.)";"1.0";"2";"1";"1";"2";"1";"1";"2014-10-07 09:26:43.532";"2014-10-07 09:42:41.077";"1";"1";"0";"65";"64";"module.training_block2.exec-9888.GoNoGo2";;;;;;;;;;;;;;;;;;;;;;;;;;;;;;;;;;;"1257";"2014-10-07 09:31:17.937";"ST_correctStop";"8";"0";"FINISHED";"NONE";"success";"0";"1";"2014-10-07 09:31:16.673";"1";;;;;;;;;;;;;;;;;;;;;;;;;;;;;;;;;;;;;;;;;;;;;
"becca95";;;"Windows 7";"Rachel's Experiment (D.T.)";"1.0";"2";"1";"1";"2";"1";"1";"2014-10-07 09:26:43.532";"2014-10-07 09:42:41.077";"1";"1";"0";"66";"65";"module.training_block2.exec-9888.GoNoGo2";;;;;;;;;;;;;;;;;;;;;;;;;;;;;;;;;;;"1261";"2014-10-07 09:31:20.479";"NST_correctLoc";"16";"0";"FINISHED";"LEFT";"success";"832";"0";"2014-10-07 09:31:19.216";"2";;;;;;;;;;;;;;;;;;;;;;;;;;;;;;;;;;;;;;;;;;;;;
"becca95";;;"Windows 7";"Rachel's Experiment (D.T.)";"1.0";"2";"1";"1";"2";"1";"1";"2014-10-07 09:26:43.532";"2014-10-07 09:42:41.077";"1";"1";"0";"67";"66";"module.training_block2.exec-9888.GoNoGo2";;;;;;;;;;;;;;;;;;;;;;;;;;;;;;;;;;;"1261";"2014-10-07 09:31:23.022";"ST_correctStop";"23";"1";"FINISHED";"NONE";"success";"0";"1";"2014-10-07 09:31:21.759";"3";;;;;;;;;;;;;;;;;;;;;;;;;;;;;;;;;;;;;;;;;;;;;
"becca95";;;"Windows 7";"Rachel's Experiment (D.T.)";"1.0";"2";"1";"1";"2";"1";"1";"2014-10-07 09:26:43.532";"2014-10-07 09:42:41.077";"1";"1";"0";"68";"67";"module.training_block2.exec-9888.GoNoGo2";;;;;;;;;;;;;;;;;;;;;;;;;;;;;;;;;;;"1257";"2014-10-07 09:31:25.565";"NST_correctLoc";"12";"0";"FINISHED";"LEFT";"success";"726";"0";"2014-10-07 09:31:24.301";"2";;;;;;;;;;;;;;;;;;;;;;;;;;;;;;;;;;;;;;;;;;;;;
"becca95";;;"Windows 7";"Rachel's Experiment (D.T.)";"1.0";"2";"1";"1";"2";"1";"1";"2014-10-07 09:26:43.532";"2014-10-07 09:42:41.077";"1";"1";"0";"69";"68";"module.training_block2.exec-9888.GoNoGo2";;;;;;;;;;;;;;;;;;;;;;;;;;;;;;;;;;;"1257";"2014-10-07 09:31:28.108";"NST_correctLoc";"32";"1";"FINISHED";"RIGHT";"success";"944";"0";"2014-10-07 09:31:26.844";"3";;;;;;;;;;;;;;;;;;;;;;;;;;;;;;;;;;;;;;;;;;;;;
"becca95";;;"Windows 7";"Rachel's Experiment (D.T.)";"1.0";"2";"1";"1";"2";"1";"1";"2014-10-07 09:26:43.532";"2014-10-07 09:42:41.077";"1";"1";"0";"70";"69";"module.training_block2.exec-9888.GoNoGo2";;;;;;;;;;;;;;;;;;;;;;;;;;;;;;;;;;;"1257";"2014-10-07 09:31:30.651";"NST_correctLoc";"14";"0";"FINISHED";"LEFT";"success";"817";"0";"2014-10-07 09:31:29.387";"2";;;;;;;;;;;;;;;;;;;;;;;;;;;;;;;;;;;;;;;;;;;;;
"becca95";;;"Windows 7";"Rachel's Experiment (D.T.)";"1.0";"2";"1";"1";"2";"1";"1";"2014-10-07 09:26:43.532";"2014-10-07 09:42:41.077";"1";"1";"0";"71";"70";"module.training_block2.exec-9888.GoNoGo2";;;;;;;;;;;;;;;;;;;;;;;;;;;;;;;;;;;"1258";"2014-10-07 09:31:33.193";"NST_correctLoc";"9";"1";"FINISHED";"RIGHT";"success";"626";"0";"2014-10-07 09:31:31.930";"2";;;;;;;;;;;;;;;;;;;;;;;;;;;;;;;;;;;;;;;;;;;;;
"becca95";;;"Windows 7";"Rachel's Experiment (D.T.)";"1.0";"2";"1";"1";"2";"1";"1";"2014-10-07 09:26:43.532";"2014-10-07 09:42:41.077";"1";"1";"0";"72";"71";"module.training_block2.exec-9888.GoNoGo2";;;;;;;;;;;;;;;;;;;;;;;;;;;;;;;;;;;"1258";"2014-10-07 09:31:35.736";"ST_correctStop";"30";"1";"FINISHED";"NONE";"success";"0";"1";"2014-10-07 09:31:34.473";"3";;;;;;;;;;;;;;;;;;;;;;;;;;;;;;;;;;;;;;;;;;;;;
"becca95";;;"Windows 7";"Rachel's Experiment (D.T.)";"1.0";"2";"1";"1";"2";"1";"1";"2014-10-07 09:26:43.532";"2014-10-07 09:42:41.077";"1";"1";"0";"73";"72";"module.training_block2.exec-9888.GoNoGo2";;;;;;;;;;;;;;;;;;;;;;;;;;;;;;;;;;;"1257";"2014-10-07 09:31:38.341";"NST_correctLoc";"31";"0";"FINISHED";"LEFT";"success";"894";"0";"2014-10-07 09:31:37.078";"3";;;;;;;;;;;;;;;;;;;;;;;;;;;;;;;;;;;;;;;;;;;;;
"becca95";;;"Windows 7";"Rachel's Experiment (D.T.)";"1.0";"2";"1";"1";"2";"1";"1";"2014-10-07 09:26:43.532";"2014-10-07 09:42:41.077";"1";"1";"0";"74";"73";"module.training_block2.exec-9888.GoNoGo2";;;;;;;;;;;;;;;;;;;;;;;;;;;;;;;;;;;"1257";"2014-10-07 09:31:40.884";"ST_correctStop";"4";"1";"FINISHED";"NONE";"success";"0";"1";"2014-10-07 09:31:39.621";"1";;;;;;;;;;;;;;;;;;;;;;;;;;;;;;;;;;;;;;;;;;;;;
"becca95";;;"Windows 7";"Rachel's Experiment (D.T.)";"1.0";"2";"1";"1";"2";"1";"1";"2014-10-07 09:26:43.532";"2014-10-07 09:42:41.077";"1";"1";"0";"75";"74";"module.training_block2.exec-9888.GoNoGo2";;;;;;;;;;;;;;;;;;;;;;;;;;;;;;;;;;;"1253";"2014-10-07 09:31:43.443";"NST_correctLoc";"11";"0";"FINISHED";"LEFT";"success";"692";"0";"2014-10-07 09:31:42.179";"2";;;;;;;;;;;;;;;;;;;;;;;;;;;;;;;;;;;;;;;;;;;;;
"becca95";;;"Windows 7";"Rachel's Experiment (D.T.)";"1.0";"2";"1";"1";"2";"1";"1";"2014-10-07 09:26:43.532";"2014-10-07 09:42:41.077";"1";"1";"0";"76";"75";"module.training_block2.exec-9888.GoNoGo2";;;;;;;;;;;;;;;;;;;;;;;;;;;;;;;;;;;"1257";"2014-10-07 09:31:45.985";"NST_correctLoc";"10";"0";"FINISHED";"LEFT";"success";"817";"0";"2014-10-07 09:31:44.722";"2";;;;;;;;;;;;;;;;;;;;;;;;;;;;;;;;;;;;;;;;;;;;;
"becca95";;;"Windows 7";"Rachel's Experiment (D.T.)";"1.0";"2";"1";"1";"2";"1";"1";"2014-10-07 09:26:43.532";"2014-10-07 09:42:41.077";"1";"1";"0";"77";"76";"module.training_block2.exec-9888.GoNoGo2";;;;;;;;;;;;;;;;;;;;;;;;;;;;;;;;;;;"1258";"2014-10-07 09:31:48.528";"NST_correctLoc";"29";"1";"FINISHED";"RIGHT";"success";"899";"0";"2014-10-07 09:31:47.265";"3";;;;;;;;;;;;;;;;;;;;;;;;;;;;;;;;;;;;;;;;;;;;;
"becca95";;;"Windows 7";"Rachel's Experiment (D.T.)";"1.0";"2";"1";"1";"2";"1";"1";"2014-10-07 09:26:43.532";"2014-10-07 09:42:41.077";"1";"1";"0";"78";"77";"module.training_block2.exec-9888.GoNoGo2";;;;;;;;;;;;;;;;;;;;;;;;;;;;;;;;;;;"1261";"2014-10-07 09:31:51.071";"NST_correctLoc";"25";"1";"FINISHED";"RIGHT";"success";"1040";"0";"2014-10-07 09:31:49.807";"3";;;;;;;;;;;;;;;;;;;;;;;;;;;;;;;;;;;;;;;;;;;;;
"becca95";;;"Windows 7";"Rachel's Experiment (D.T.)";"1.0";"2";"1";"1";"2";"1";"1";"2014-10-07 09:26:43.532";"2014-10-07 09:42:41.077";"1";"1";"0";"79";"78";"module.training_block2.exec-9888.GoNoGo2";;;;;;;;;;;;;;;;;;;;;;;;;;;;;;;;;;;"1261";"2014-10-07 09:31:53.614";"ST_correctStop";"27";"1";"FINISHED";"NONE";"success";"0";"1";"2014-10-07 09:31:52.350";"3";;;;;;;;;;;;;;;;;;;;;;;;;;;;;;;;;;;;;;;;;;;;;
"becca95";;;"Windows 7";"Rachel's Experiment (D.T.)";"1.0";"2";"1";"1";"2";"1";"1";"2014-10-07 09:26:43.532";"2014-10-07 09:42:41.077";"1";"1";"0";"80";"79";"module.training_block2.exec-9888.GoNoGo2";;;;;;;;;;;;;;;;;;;;;;;;;;;;;;;;;;;"1261";"2014-10-07 09:31:56.157";"NST_correctLoc";"18";"0";"FINISHED";"LEFT";"success";"979";"0";"2014-10-07 09:31:54.893";"3";;;;;;;;;;;;;;;;;;;;;;;;;;;;;;;;;;;;;;;;;;;;;
"becca95";;;"Windows 7";"Rachel's Experiment (D.T.)";"1.0";"2";"1";"1";"2";"1";"1";"2014-10-07 09:26:43.532";"2014-10-07 09:42:41.077";"1";"1";"0";"81";"80";"module.training_block2.exec-9888.GoNoGo2";;;;;;;;;;;;;;;;;;;;;;;;;;;;;;;;;;;"1257";"2014-10-07 09:31:58.699";"ST_correctStop";"1";"0";"FINISHED";"NONE";"success";"0";"1";"2014-10-07 09:31:57.436";"1";;;;;;;;;;;;;;;;;;;;;;;;;;;;;;;;;;;;;;;;;;;;;
"becca95";;;"Windows 7";"Rachel's Experiment (D.T.)";"1.0";"2";"1";"1";"2";"1";"1";"2014-10-07 09:26:43.532";"2014-10-07 09:42:41.077";"1";"1";"0";"82";"81";"module.training_block2.exec-9888.GoNoGo2";;;;;;;;;;;;;;;;;;;;;;;;;;;;;;;;;;;"1261";"2014-10-07 09:32:01.242";"ST_correctStop";"35";"1";"FINISHED";"NONE";"success";"0";"1";"2014-10-07 09:31:59.979";"3";;;;;;;;;;;;;;;;;;;;;;;;;;;;;;;;;;;;;;;;;;;;;
"becca95";;;"Windows 7";"Rachel's Experiment (D.T.)";"1.0";"2";"1";"1";"2";"1";"1";"2014-10-07 09:26:43.532";"2014-10-07 09:42:41.077";"1";"1";"0";"83";"82";"module.training_block2.exec-9888.GoNoGo2";;;;;;;;;;;;;;;;;;;;;;;;;;;;;;;;;;;"1257";"2014-10-07 09:32:03.785";"NST_correctLoc";"26";"1";"FINISHED";"RIGHT";"success";"794";"0";"2014-10-07 09:32:02.521";"3";;;;;;;;;;;;;;;;;;;;;;;;;;;;;;;;;;;;;;;;;;;;;
"becca95";;;"Windows 7";"Rachel's Experiment (D.T.)";"1.0";"2";"1";"1";"2";"1";"1";"2014-10-07 09:26:43.532";"2014-10-07 09:42:41.077";"1";"1";"0";"84";"83";"module.training_block2.exec-9888.GoNoGo2";;;;;;;;;;;;;;;;;;;;;;;;;;;;;;;;;;;"1257";"2014-10-07 09:32:06.343";"NST_correctLoc";"13";"0";"FINISHED";"LEFT";"success";"828";"0";"2014-10-07 09:32:05.080";"2";;;;;;;;;;;;;;;;;;;;;;;;;;;;;;;;;;;;;;;;;;;;;
"becca95";;;"Windows 7";"Rachel's Experiment (D.T.)";"1.0";"2";"1";"1";"2";"1";"1";"2014-10-07 09:26:43.532";"2014-10-07 09:42:41.077";"1";"1";"0";"85";"84";"module.training_block2.exec-9888.GoNoGo2";;;;;;;;;;;;;;;;;;;;;;;;;;;;;;;;;;;"1261";"2014-10-07 09:32:08.886";"ST_correctStop";"3";"0";"FINISHED";"NONE";"success";"0";"1";"2014-10-07 09:32:07.623";"1";;;;;;;;;;;;;;;;;;;;;;;;;;;;;;;;;;;;;;;;;;;;;
"becca95";;;"Windows 7";"Rachel's Experiment (D.T.)";"1.0";"2";"1";"1";"2";"1";"1";"2014-10-07 09:26:43.532";"2014-10-07 09:42:41.077";"1";"1";"0";"86";"85";"module.training_block2.exec-9888.GoNoGo2";;;;;;;;;;;;;;;;;;;;;;;;;;;;;;;;;;;"1261";"2014-10-07 09:32:11.429";"NST_correctLoc";"15";"1";"FINISHED";"RIGHT";"success";"1010";"0";"2014-10-07 09:32:10.165";"2";;;;;;;;;;;;;;;;;;;;;;;;;;;;;;;;;;;;;;;;;;;;;
"becca95";;;"Windows 7";"Rachel's Experiment (D.T.)";"1.0";"2";"1";"1";"2";"1";"1";"2014-10-07 09:26:43.532";"2014-10-07 09:42:41.077";"1";"1";"0";"87";"86";"module.training_block2.exec-9888.GoNoGo2";;;;;;;;;;;;;;;;;;;;;;;;;;;;;;;;;;;"1258";"2014-10-07 09:32:13.972";"ST_correctStop";"28";"0";"FINISHED";"NONE";"success";"0";"1";"2014-10-07 09:32:12.708";"3";;;;;;;;;;;;;;;;;;;;;;;;;;;;;;;;;;;;;;;;;;;;;
"becca95";;;"Windows 7";"Rachel's Experiment (D.T.)";"1.0";"2";"1";"1";"2";"1";"1";"2014-10-07 09:26:43.532";"2014-10-07 09:42:41.077";"1";"1";"0";"88";"87";"module.training_block3.exec-7318.GoNoGo3";;;;;;;;;;;;;;;;;;;;;;;;;;;;;;;;;;;;;;;;;;;;;;;"1261";"2014-10-07 09:32:25.672";"ST_correctStop";"30";"1";"FINISHED";"NONE";"success";"0";"1";"2014-10-07 09:32:24.408";"3";;;;;;;;;;;;;;;;;;;;;;;;;;;;;;;;;
"becca95";;;"Windows 7";"Rachel's Experiment (D.T.)";"1.0";"2";"1";"1";"2";"1";"1";"2014-10-07 09:26:43.532";"2014-10-07 09:42:41.077";"1";"1";"0";"89";"88";"module.training_block3.exec-7318.GoNoGo3";;;;;;;;;;;;;;;;;;;;;;;;;;;;;;;;;;;;;;;;;;;;;;;"1261";"2014-10-07 09:32:28.215";"ST_correctStop";"8";"1";"FINISHED";"NONE";"success";"0";"1";"2014-10-07 09:32:26.951";"1";;;;;;;;;;;;;;;;;;;;;;;;;;;;;;;;;
"becca95";;;"Windows 7";"Rachel's Experiment (D.T.)";"1.0";"2";"1";"1";"2";"1";"1";"2014-10-07 09:26:43.532";"2014-10-07 09:42:41.077";"1";"1";"0";"90";"89";"module.training_block3.exec-7318.GoNoGo3";;;;;;;;;;;;;;;;;;;;;;;;;;;;;;;;;;;;;;;;;;;;;;;"1261";"2014-10-07 09:32:30.757";"ST_correctStop";"3";"1";"FINISHED";"NONE";"success";"0";"1";"2014-10-07 09:32:29.494";"1";;;;;;;;;;;;;;;;;;;;;;;;;;;;;;;;;
"becca95";;;"Windows 7";"Rachel's Experiment (D.T.)";"1.0";"2";"1";"1";"2";"1";"1";"2014-10-07 09:26:43.532";"2014-10-07 09:42:41.077";"1";"1";"0";"91";"90";"module.training_block3.exec-7318.GoNoGo3";;;;;;;;;;;;;;;;;;;;;;;;;;;;;;;;;;;;;;;;;;;;;;;"1261";"2014-10-07 09:32:33.300";"ST_correctStop";"20";"1";"FINISHED";"NONE";"success";"0";"1";"2014-10-07 09:32:32.037";"3";;;;;;;;;;;;;;;;;;;;;;;;;;;;;;;;;
"becca95";;;"Windows 7";"Rachel's Experiment (D.T.)";"1.0";"2";"1";"1";"2";"1";"1";"2014-10-07 09:26:43.532";"2014-10-07 09:42:41.077";"1";"1";"0";"92";"91";"module.training_block3.exec-7318.GoNoGo3";;;;;;;;;;;;;;;;;;;;;;;;;;;;;;;;;;;;;;;;;;;;;;;"1261";"2014-10-07 09:32:35.843";"NST_correctLoc";"19";"0";"FINISHED";"LEFT";"success";"740";"0";"2014-10-07 09:32:34.579";"3";;;;;;;;;;;;;;;;;;;;;;;;;;;;;;;;;
"becca95";;;"Windows 7";"Rachel's Experiment (D.T.)";"1.0";"2";"1";"1";"2";"1";"1";"2014-10-07 09:26:43.532";"2014-10-07 09:42:41.077";"1";"1";"0";"93";"92";"module.training_block3.exec-7318.GoNoGo3";;;;;;;;;;;;;;;;;;;;;;;;;;;;;;;;;;;;;;;;;;;;;;;"1261";"2014-10-07 09:32:38.386";"NST_correctLoc";"27";"1";"FINISHED";"RIGHT";"success";"925";"0";"2014-10-07 09:32:37.122";"3";;;;;;;;;;;;;;;;;;;;;;;;;;;;;;;;;
"becca95";;;"Windows 7";"Rachel's Experiment (D.T.)";"1.0";"2";"1";"1";"2";"1";"1";"2014-10-07 09:26:43.532";"2014-10-07 09:42:41.077";"1";"1";"0";"94";"93";"module.training_block3.exec-7318.GoNoGo3";;;;;;;;;;;;;;;;;;;;;;;;;;;;;;;;;;;;;;;;;;;;;;;"1261";"2014-10-07 09:32:40.929";"NST_correctLoc";"32";"0";"FINISHED";"LEFT";"success";"806";"0";"2014-10-07 09:32:39.665";"3";;;;;;;;;;;;;;;;;;;;;;;;;;;;;;;;;
"becca95";;;"Windows 7";"Rachel's Experiment (D.T.)";"1.0";"2";"1";"1";"2";"1";"1";"2014-10-07 09:26:43.532";"2014-10-07 09:42:41.077";"1";"1";"0";"95";"94";"module.training_block3.exec-7318.GoNoGo3";;;;;;;;;;;;;;;;;;;;;;;;;;;;;;;;;;;;;;;;;;;;;;;"1261";"2014-10-07 09:32:43.471";"ST_correctStop";"4";"1";"FINISHED";"NONE";"success";"0";"1";"2014-10-07 09:32:42.208";"1";;;;;;;;;;;;;;;;;;;;;;;;;;;;;;;;;
"becca95";;;"Windows 7";"Rachel's Experiment (D.T.)";"1.0";"2";"1";"1";"2";"1";"1";"2014-10-07 09:26:43.532";"2014-10-07 09:42:41.077";"1";"1";"0";"96";"95";"module.training_block3.exec-7318.GoNoGo3";;;;;;;;;;;;;;;;;;;;;;;;;;;;;;;;;;;;;;;;;;;;;;;"1261";"2014-10-07 09:32:46.014";"NST_correctLoc";"25";"0";"FINISHED";"LEFT";"success";"913";"0";"2014-10-07 09:32:44.751";"3";;;;;;;;;;;;;;;;;;;;;;;;;;;;;;;;;
"becca95";;;"Windows 7";"Rachel's Experiment (D.T.)";"1.0";"2";"1";"1";"2";"1";"1";"2014-10-07 09:26:43.532";"2014-10-07 09:42:41.077";"1";"1";"0";"97";"96";"module.training_block3.exec-7318.GoNoGo3";;;;;;;;;;;;;;;;;;;;;;;;;;;;;;;;;;;;;;;;;;;;;;;"1261";"2014-10-07 09:32:48.557";"ST_correctStop";"29";"0";"FINISHED";"NONE";"success";"0";"1";"2014-10-07 09:32:47.293";"3";;;;;;;;;;;;;;;;;;;;;;;;;;;;;;;;;
"becca95";;;"Windows 7";"Rachel's Experiment (D.T.)";"1.0";"2";"1";"1";"2";"1";"1";"2014-10-07 09:26:43.532";"2014-10-07 09:42:41.077";"1";"1";"0";"98";"97";"module.training_block3.exec-7318.GoNoGo3";;;;;;;;;;;;;;;;;;;;;;;;;;;;;;;;;;;;;;;;;;;;;;;"1261";"2014-10-07 09:32:51.100";"ST_correctStop";"5";"1";"FINISHED";"NONE";"success";"0";"1";"2014-10-07 09:32:49.836";"1";;;;;;;;;;;;;;;;;;;;;;;;;;;;;;;;;
"becca95";;;"Windows 7";"Rachel's Experiment (D.T.)";"1.0";"2";"1";"1";"2";"1";"1";"2014-10-07 09:26:43.532";"2014-10-07 09:42:41.077";"1";"1";"0";"99";"98";"module.training_block3.exec-7318.GoNoGo3";;;;;;;;;;;;;;;;;;;;;;;;;;;;;;;;;;;;;;;;;;;;;;;"1261";"2014-10-07 09:32:53.643";"ST_correctStop";"35";"0";"FINISHED";"NONE";"success";"0";"1";"2014-10-07 09:32:52.379";"3";;;;;;;;;;;;;;;;;;;;;;;;;;;;;;;;;
"becca95";;;"Windows 7";"Rachel's Experiment (D.T.)";"1.0";"2";"1";"1";"2";"1";"1";"2014-10-07 09:26:43.532";"2014-10-07 09:42:41.077";"1";"1";"0";"100";"99";"module.training_block3.exec-7318.GoNoGo3";;;;;;;;;;;;;;;;;;;;;;;;;;;;;;;;;;;;;;;;;;;;;;;"1262";"2014-10-07 09:32:56.185";"ST_correctStop";"2";"1";"FINISHED";"NONE";"success";"0";"1";"2014-10-07 09:32:54.922";"1";;;;;;;;;;;;;;;;;;;;;;;;;;;;;;;;;
"becca95";;;"Windows 7";"Rachel's Experiment (D.T.)";"1.0";"2";"1";"1";"2";"1";"1";"2014-10-07 09:26:43.532";"2014-10-07 09:42:41.077";"1";"1";"0";"101";"100";"module.training_block3.exec-7318.GoNoGo3";;;;;;;;;;;;;;;;;;;;;;;;;;;;;;;;;;;;;;;;;;;;;;;"1261";"2014-10-07 09:32:58.728";"ST_correctStop";"23";"1";"FINISHED";"NONE";"success";"0";"1";"2014-10-07 09:32:57.465";"3";;;;;;;;;;;;;;;;;;;;;;;;;;;;;;;;;
"becca95";;;"Windows 7";"Rachel's Experiment (D.T.)";"1.0";"2";"1";"1";"2";"1";"1";"2014-10-07 09:26:43.532";"2014-10-07 09:42:41.077";"1";"1";"0";"102";"101";"module.training_block3.exec-7318.GoNoGo3";;;;;;;;;;;;;;;;;;;;;;;;;;;;;;;;;;;;;;;;;;;;;;;"1261";"2014-10-07 09:33:01.271";"NST_correctLoc";"14";"0";"FINISHED";"LEFT";"success";"744";"0";"2014-10-07 09:33:00.007";"2";;;;;;;;;;;;;;;;;;;;;;;;;;;;;;;;;
"becca95";;;"Windows 7";"Rachel's Experiment (D.T.)";"1.0";"2";"1";"1";"2";"1";"1";"2014-10-07 09:26:43.532";"2014-10-07 09:42:41.077";"1";"1";"0";"103";"102";"module.training_block3.exec-7318.GoNoGo3";;;;;;;;;;;;;;;;;;;;;;;;;;;;;;;;;;;;;;;;;;;;;;;"1261";"2014-10-07 09:33:03.814";"NST_correctLoc";"10";"0";"FINISHED";"LEFT";"success";"721";"0";"2014-10-07 09:33:02.550";"2";;;;;;;;;;;;;;;;;;;;;;;;;;;;;;;;;
"becca95";;;"Windows 7";"Rachel's Experiment (D.T.)";"1.0";"2";"1";"1";"2";"1";"1";"2014-10-07 09:26:43.532";"2014-10-07 09:42:41.077";"1";"1";"0";"104";"103";"module.training_block3.exec-7318.GoNoGo3";;;;;;;;;;;;;;;;;;;;;;;;;;;;;;;;;;;;;;;;;;;;;;;"1261";"2014-10-07 09:33:06.357";"ST_correctStop";"18";"0";"FINISHED";"NONE";"success";"0";"1";"2014-10-07 09:33:05.093";"3";;;;;;;;;;;;;;;;;;;;;;;;;;;;;;;;;
"becca95";;;"Windows 7";"Rachel's Experiment (D.T.)";"1.0";"2";"1";"1";"2";"1";"1";"2014-10-07 09:26:43.532";"2014-10-07 09:42:41.077";"1";"1";"0";"105";"104";"module.training_block3.exec-7318.GoNoGo3";;;;;;;;;;;;;;;;;;;;;;;;;;;;;;;;;;;;;;;;;;;;;;;"1261";"2014-10-07 09:33:08.900";"ST_correctStop";"28";"0";"FINISHED";"NONE";"success";"0";"1";"2014-10-07 09:33:07.636";"3";;;;;;;;;;;;;;;;;;;;;;;;;;;;;;;;;
"becca95";;;"Windows 7";"Rachel's Experiment (D.T.)";"1.0";"2";"1";"1";"2";"1";"1";"2014-10-07 09:26:43.532";"2014-10-07 09:42:41.077";"1";"1";"0";"106";"105";"module.training_block3.exec-7318.GoNoGo3";;;;;;;;;;;;;;;;;;;;;;;;;;;;;;;;;;;;;;;;;;;;;;;"1261";"2014-10-07 09:33:11.442";"NST_correctLoc";"9";"1";"FINISHED";"RIGHT";"success";"740";"0";"2014-10-07 09:33:10.179";"2";;;;;;;;;;;;;;;;;;;;;;;;;;;;;;;;;
"becca95";;;"Windows 7";"Rachel's Experiment (D.T.)";"1.0";"2";"1";"1";"2";"1";"1";"2014-10-07 09:26:43.532";"2014-10-07 09:42:41.077";"1";"1";"0";"107";"106";"module.training_block3.exec-7318.GoNoGo3";;;;;;;;;;;;;;;;;;;;;;;;;;;;;;;;;;;;;;;;;;;;;;;"1261";"2014-10-07 09:33:13.985";"NST_correctLoc";"17";"0";"FINISHED";"LEFT";"success";"806";"0";"2014-10-07 09:33:12.722";"2";;;;;;;;;;;;;;;;;;;;;;;;;;;;;;;;;
"becca95";;;"Windows 7";"Rachel's Experiment (D.T.)";"1.0";"2";"1";"1";"2";"1";"1";"2014-10-07 09:26:43.532";"2014-10-07 09:42:41.077";"1";"1";"0";"108";"107";"module.training_block3.exec-7318.GoNoGo3";;;;;;;;;;;;;;;;;;;;;;;;;;;;;;;;;;;;;;;;;;;;;;;"1261";"2014-10-07 09:33:16.528";"NST_correctLoc";"15";"0";"FINISHED";"LEFT";"success";"567";"0";"2014-10-07 09:33:15.264";"2";;;;;;;;;;;;;;;;;;;;;;;;;;;;;;;;;
"becca95";;;"Windows 7";"Rachel's Experiment (D.T.)";"1.0";"2";"1";"1";"2";"1";"1";"2014-10-07 09:26:43.532";"2014-10-07 09:42:41.077";"1";"1";"0";"109";"108";"module.training_block3.exec-7318.GoNoGo3";;;;;;;;;;;;;;;;;;;;;;;;;;;;;;;;;;;;;;;;;;;;;;;"1261";"2014-10-07 09:33:19.071";"NST_correctLoc";"13";"1";"FINISHED";"RIGHT";"success";"584";"0";"2014-10-07 09:33:17.807";"2";;;;;;;;;;;;;;;;;;;;;;;;;;;;;;;;;
"becca95";;;"Windows 7";"Rachel's Experiment (D.T.)";"1.0";"2";"1";"1";"2";"1";"1";"2014-10-07 09:26:43.532";"2014-10-07 09:42:41.077";"1";"1";"0";"110";"109";"module.training_block3.exec-7318.GoNoGo3";;;;;;;;;;;;;;;;;;;;;;;;;;;;;;;;;;;;;;;;;;;;;;;"1261";"2014-10-07 09:33:21.614";"ST_correctStop";"7";"0";"FINISHED";"NONE";"success";"0";"1";"2014-10-07 09:33:20.350";"1";;;;;;;;;;;;;;;;;;;;;;;;;;;;;;;;;
"becca95";;;"Windows 7";"Rachel's Experiment (D.T.)";"1.0";"2";"1";"1";"2";"1";"1";"2014-10-07 09:26:43.532";"2014-10-07 09:42:41.077";"1";"1";"0";"111";"110";"module.training_block3.exec-7318.GoNoGo3";;;;;;;;;;;;;;;;;;;;;;;;;;;;;;;;;;;;;;;;;;;;;;;"1261";"2014-10-07 09:33:24.156";"NST_correctLoc";"16";"1";"FINISHED";"RIGHT";"success";"658";"0";"2014-10-07 09:33:22.893";"2";;;;;;;;;;;;;;;;;;;;;;;;;;;;;;;;;
"becca95";;;"Windows 7";"Rachel's Experiment (D.T.)";"1.0";"2";"1";"1";"2";"1";"1";"2014-10-07 09:26:43.532";"2014-10-07 09:42:41.077";"1";"1";"0";"112";"111";"module.training_block3.exec-7318.GoNoGo3";;;;;;;;;;;;;;;;;;;;;;;;;;;;;;;;;;;;;;;;;;;;;;;"1261";"2014-10-07 09:33:26.699";"NST_correctLoc";"11";"0";"FINISHED";"LEFT";"success";"659";"0";"2014-10-07 09:33:25.436";"2";;;;;;;;;;;;;;;;;;;;;;;;;;;;;;;;;
"becca95";;;"Windows 7";"Rachel's Experiment (D.T.)";"1.0";"2";"1";"1";"2";"1";"1";"2014-10-07 09:26:43.532";"2014-10-07 09:42:41.077";"1";"1";"0";"113";"112";"module.training_block3.exec-7318.GoNoGo3";;;;;;;;;;;;;;;;;;;;;;;;;;;;;;;;;;;;;;;;;;;;;;;"1261";"2014-10-07 09:33:29.242";"NST_correctLoc";"31";"0";"FINISHED";"LEFT";"success";"653";"0";"2014-10-07 09:33:27.978";"3";;;;;;;;;;;;;;;;;;;;;;;;;;;;;;;;;
"becca95";;;"Windows 7";"Rachel's Experiment (D.T.)";"1.0";"2";"1";"1";"2";"1";"1";"2014-10-07 09:26:43.532";"2014-10-07 09:42:41.077";"1";"1";"0";"114";"113";"module.training_block3.exec-7318.GoNoGo3";;;;;;;;;;;;;;;;;;;;;;;;;;;;;;;;;;;;;;;;;;;;;;;"1261";"2014-10-07 09:33:31.785";"NST_correctLoc";"12";"1";"FINISHED";"RIGHT";"success";"678";"0";"2014-10-07 09:33:30.521";"2";;;;;;;;;;;;;;;;;;;;;;;;;;;;;;;;;
"becca95";;;"Windows 7";"Rachel's Experiment (D.T.)";"1.0";"2";"1";"1";"2";"1";"1";"2014-10-07 09:26:43.532";"2014-10-07 09:42:41.077";"1";"1";"0";"115";"114";"module.training_block3.exec-7318.GoNoGo3";;;;;;;;;;;;;;;;;;;;;;;;;;;;;;;;;;;;;;;;;;;;;;;"1261";"2014-10-07 09:33:34.328";"ST_correctStop";"1";"0";"FINISHED";"NONE";"success";"0";"1";"2014-10-07 09:33:33.064";"1";;;;;;;;;;;;;;;;;;;;;;;;;;;;;;;;;
"becca95";;;"Windows 7";"Rachel's Experiment (D.T.)";"1.0";"2";"1";"1";"2";"1";"1";"2014-10-07 09:26:43.532";"2014-10-07 09:42:41.077";"1";"1";"0";"116";"115";"module.training_block3.exec-7318.GoNoGo3";;;;;;;;;;;;;;;;;;;;;;;;;;;;;;;;;;;;;;;;;;;;;;;"1261";"2014-10-07 09:33:36.870";"ST_correctStop";"24";"0";"FINISHED";"NONE";"success";"0";"1";"2014-10-07 09:33:35.607";"3";;;;;;;;;;;;;;;;;;;;;;;;;;;;;;;;;
"becca95";;;"Windows 7";"Rachel's Experiment (D.T.)";"1.0";"2";"1";"1";"2";"1";"1";"2014-10-07 09:26:43.532";"2014-10-07 09:42:41.077";"1";"1";"0";"117";"116";"module.training_block3.exec-7318.GoNoGo3";;;;;;;;;;;;;;;;;;;;;;;;;;;;;;;;;;;;;;;;;;;;;;;"1261";"2014-10-07 09:33:39.413";"ST_correctStop";"6";"1";"FINISHED";"NONE";"success";"0";"1";"2014-10-07 09:33:38.150";"1";;;;;;;;;;;;;;;;;;;;;;;;;;;;;;;;;
"becca95";;;"Windows 7";"Rachel's Experiment (D.T.)";"1.0";"2";"1";"1";"2";"1";"1";"2014-10-07 09:26:43.532";"2014-10-07 09:42:41.077";"1";"1";"0";"118";"117";"module.training_block3.exec-7318.GoNoGo3";;;;;;;;;;;;;;;;;;;;;;;;;;;;;;;;;;;;;;;;;;;;;;;"1261";"2014-10-07 09:33:41.956";"NST_correctLoc";"26";"1";"FINISHED";"RIGHT";"success";"643";"0";"2014-10-07 09:33:40.692";"3";;;;;;;;;;;;;;;;;;;;;;;;;;;;;;;;;
"becca95";;;"Windows 7";"Rachel's Experiment (D.T.)";"1.0";"2";"1";"1";"2";"1";"1";"2014-10-07 09:26:43.532";"2014-10-07 09:42:41.077";"1";"1";"0";"119";"118";"module.training_block3.exec-7318.GoNoGo3";;;;;;;;;;;;;;;;;;;;;;;;;;;;;;;;;;;;;;;;;;;;;;;"1261";"2014-10-07 09:33:44.499";"NST_correctLoc";"33";"0";"FINISHED";"LEFT";"success";"724";"0";"2014-10-07 09:33:43.235";"3";;;;;;;;;;;;;;;;;;;;;;;;;;;;;;;;;
"becca95";;;"Windows 7";"Rachel's Experiment (D.T.)";"1.0";"2";"1";"1";"2";"1";"1";"2014-10-07 09:26:43.532";"2014-10-07 09:42:41.077";"1";"1";"0";"120";"119";"module.training_block3.exec-7318.GoNoGo3";;;;;;;;;;;;;;;;;;;;;;;;;;;;;;;;;;;;;;;;;;;;;;;"1261";"2014-10-07 09:33:47.042";"NST_correctLoc";"34";"1";"FINISHED";"RIGHT";"success";"885";"0";"2014-10-07 09:33:45.778";"3";;;;;;;;;;;;;;;;;;;;;;;;;;;;;;;;;
"becca95";;;"Windows 7";"Rachel's Experiment (D.T.)";"1.0";"2";"1";"1";"2";"1";"1";"2014-10-07 09:26:43.532";"2014-10-07 09:42:41.077";"1";"1";"0";"121";"120";"module.training_block3.exec-7318.GoNoGo3";;;;;;;;;;;;;;;;;;;;;;;;;;;;;;;;;;;;;;;;;;;;;;;"1261";"2014-10-07 09:33:49.569";"ST_correctStop";"0";"1";"FINISHED";"NONE";"success";"0";"1";"2014-10-07 09:33:48.305";"1";;;;;;;;;;;;;;;;;;;;;;;;;;;;;;;;;
"becca95";;;"Windows 7";"Rachel's Experiment (D.T.)";"1.0";"2";"1";"1";"2";"1";"1";"2014-10-07 09:26:43.532";"2014-10-07 09:42:41.077";"1";"1";"0";"122";"121";"module.training_block3.exec-7318.GoNoGo3";;;;;;;;;;;;;;;;;;;;;;;;;;;;;;;;;;;;;;;;;;;;;;;"1261";"2014-10-07 09:33:52.112";"ST_correctStop";"22";"0";"FINISHED";"NONE";"success";"0";"1";"2014-10-07 09:33:50.848";"3";;;;;;;;;;;;;;;;;;;;;;;;;;;;;;;;;
"becca95";;;"Windows 7";"Rachel's Experiment (D.T.)";"1.0";"2";"1";"1";"2";"1";"1";"2014-10-07 09:26:43.532";"2014-10-07 09:42:41.077";"1";"1";"0";"123";"122";"module.training_block3.exec-7318.GoNoGo3";;;;;;;;;;;;;;;;;;;;;;;;;;;;;;;;;;;;;;;;;;;;;;;"1261";"2014-10-07 09:33:54.639";"NST_correctLoc";"21";"1";"FINISHED";"RIGHT";"success";"736";"0";"2014-10-07 09:33:53.375";"3";;;;;;;;;;;;;;;;;;;;;;;;;;;;;;;;;
"becca95";;;"Windows 7";"Rachel's Experiment (D.T.)";"1.0";"2";"1";"1";"2";"1";"1";"2014-10-07 09:26:43.532";"2014-10-07 09:42:41.077";"1";"1";"0";"124";"123";"module.training_block4.exec-1078.GoNoGo4";;;;;;;;;;;;;;;;;;;;;;;;;;;;;;;;;;;;;;;;;;;;;;;;;;;;;;;;;;;"1261";"2014-10-07 09:34:08.835";"NST_correctLoc";"17";"1";"FINISHED";"RIGHT";"success";"627";"0";"2014-10-07 09:34:07.571";"2";;;;;;;;;;;;;;;;;;;;;
"becca95";;;"Windows 7";"Rachel's Experiment (D.T.)";"1.0";"2";"1";"1";"2";"1";"1";"2014-10-07 09:26:43.532";"2014-10-07 09:42:41.077";"1";"1";"0";"125";"124";"module.training_block4.exec-1078.GoNoGo4";;;;;;;;;;;;;;;;;;;;;;;;;;;;;;;;;;;;;;;;;;;;;;;;;;;;;;;;;;;"1261";"2014-10-07 09:34:11.378";"ST_correctStop";"32";"0";"FINISHED";"NONE";"success";"0";"1";"2014-10-07 09:34:10.114";"3";;;;;;;;;;;;;;;;;;;;;
"becca95";;;"Windows 7";"Rachel's Experiment (D.T.)";"1.0";"2";"1";"1";"2";"1";"1";"2014-10-07 09:26:43.532";"2014-10-07 09:42:41.077";"1";"1";"0";"126";"125";"module.training_block4.exec-1078.GoNoGo4";;;;;;;;;;;;;;;;;;;;;;;;;;;;;;;;;;;;;;;;;;;;;;;;;;;;;;;;;;;"1265";"2014-10-07 09:34:13.905";"NST_correctLoc";"13";"1";"FINISHED";"RIGHT";"success";"581";"0";"2014-10-07 09:34:12.641";"2";;;;;;;;;;;;;;;;;;;;;
"becca95";;;"Windows 7";"Rachel's Experiment (D.T.)";"1.0";"2";"1";"1";"2";"1";"1";"2014-10-07 09:26:43.532";"2014-10-07 09:42:41.077";"1";"1";"0";"127";"126";"module.training_block4.exec-1078.GoNoGo4";;;;;;;;;;;;;;;;;;;;;;;;;;;;;;;;;;;;;;;;;;;;;;;;;;;;;;;;;;;"1261";"2014-10-07 09:34:16.448";"NST_correctLoc";"16";"0";"FINISHED";"LEFT";"success";"791";"0";"2014-10-07 09:34:15.184";"2";;;;;;;;;;;;;;;;;;;;;
"becca95";;;"Windows 7";"Rachel's Experiment (D.T.)";"1.0";"2";"1";"1";"2";"1";"1";"2014-10-07 09:26:43.532";"2014-10-07 09:42:41.077";"1";"1";"0";"128";"127";"module.training_block4.exec-1078.GoNoGo4";;;;;;;;;;;;;;;;;;;;;;;;;;;;;;;;;;;;;;;;;;;;;;;;;;;;;;;;;;;"1261";"2014-10-07 09:34:18.975";"ST_correctStop";"7";"1";"FINISHED";"NONE";"success";"0";"1";"2014-10-07 09:34:17.711";"1";;;;;;;;;;;;;;;;;;;;;
"becca95";;;"Windows 7";"Rachel's Experiment (D.T.)";"1.0";"2";"1";"1";"2";"1";"1";"2014-10-07 09:26:43.532";"2014-10-07 09:42:41.077";"1";"1";"0";"129";"128";"module.training_block4.exec-1078.GoNoGo4";;;;;;;;;;;;;;;;;;;;;;;;;;;;;;;;;;;;;;;;;;;;;;;;;;;;;;;;;;;"1261";"2014-10-07 09:34:21.502";"ST_correctStop";"8";"1";"FINISHED";"NONE";"success";"0";"1";"2014-10-07 09:34:20.238";"1";;;;;;;;;;;;;;;;;;;;;
"becca95";;;"Windows 7";"Rachel's Experiment (D.T.)";"1.0";"2";"1";"1";"2";"1";"1";"2014-10-07 09:26:43.532";"2014-10-07 09:42:41.077";"1";"1";"0";"130";"129";"module.training_block4.exec-1078.GoNoGo4";;;;;;;;;;;;;;;;;;;;;;;;;;;;;;;;;;;;;;;;;;;;;;;;;;;;;;;;;;;"1261";"2014-10-07 09:34:24.045";"ST_correctStop";"34";"1";"FINISHED";"NONE";"success";"0";"1";"2014-10-07 09:34:22.781";"3";;;;;;;;;;;;;;;;;;;;;
"becca95";;;"Windows 7";"Rachel's Experiment (D.T.)";"1.0";"2";"1";"1";"2";"1";"1";"2014-10-07 09:26:43.532";"2014-10-07 09:42:41.077";"1";"1";"0";"131";"130";"module.training_block4.exec-1078.GoNoGo4";;;;;;;;;;;;;;;;;;;;;;;;;;;;;;;;;;;;;;;;;;;;;;;;;;;;;;;;;;;"1261";"2014-10-07 09:34:26.572";"ST_correctStop";"2";"0";"FINISHED";"NONE";"success";"0";"1";"2014-10-07 09:34:25.308";"1";;;;;;;;;;;;;;;;;;;;;
"becca95";;;"Windows 7";"Rachel's Experiment (D.T.)";"1.0";"2";"1";"1";"2";"1";"1";"2014-10-07 09:26:43.532";"2014-10-07 09:42:41.077";"1";"1";"0";"132";"131";"module.training_block4.exec-1078.GoNoGo4";;;;;;;;;;;;;;;;;;;;;;;;;;;;;;;;;;;;;;;;;;;;;;;;;;;;;;;;;;;"1261";"2014-10-07 09:34:29.099";"ST_correctStop";"19";"0";"FINISHED";"NONE";"success";"0";"1";"2014-10-07 09:34:27.836";"3";;;;;;;;;;;;;;;;;;;;;
"becca95";;;"Windows 7";"Rachel's Experiment (D.T.)";"1.0";"2";"1";"1";"2";"1";"1";"2014-10-07 09:26:43.532";"2014-10-07 09:42:41.077";"1";"1";"0";"133";"132";"module.training_block4.exec-1078.GoNoGo4";;;;;;;;;;;;;;;;;;;;;;;;;;;;;;;;;;;;;;;;;;;;;;;;;;;;;;;;;;;"1261";"2014-10-07 09:34:31.626";"NST_correctLoc";"20";"1";"FINISHED";"RIGHT";"success";"724";"0";"2014-10-07 09:34:30.363";"3";;;;;;;;;;;;;;;;;;;;;
"becca95";;;"Windows 7";"Rachel's Experiment (D.T.)";"1.0";"2";"1";"1";"2";"1";"1";"2014-10-07 09:26:43.532";"2014-10-07 09:42:41.077";"1";"1";"0";"134";"133";"module.training_block4.exec-1078.GoNoGo4";;;;;;;;;;;;;;;;;;;;;;;;;;;;;;;;;;;;;;;;;;;;;;;;;;;;;;;;;;;"1261";"2014-10-07 09:34:34.154";"NST_correctLoc";"12";"1";"FINISHED";"RIGHT";"success";"772";"0";"2014-10-07 09:34:32.890";"2";;;;;;;;;;;;;;;;;;;;;
"becca95";;;"Windows 7";"Rachel's Experiment (D.T.)";"1.0";"2";"1";"1";"2";"1";"1";"2014-10-07 09:26:43.532";"2014-10-07 09:42:41.077";"1";"1";"0";"135";"134";"module.training_block4.exec-1078.GoNoGo4";;;;;;;;;;;;;;;;;;;;;;;;;;;;;;;;;;;;;;;;;;;;;;;;;;;;;;;;;;;"1261";"2014-10-07 09:34:36.696";"ST_correctStop";"31";"0";"FINISHED";"NONE";"success";"0";"1";"2014-10-07 09:34:35.433";"3";;;;;;;;;;;;;;;;;;;;;
"becca95";;;"Windows 7";"Rachel's Experiment (D.T.)";"1.0";"2";"1";"1";"2";"1";"1";"2014-10-07 09:26:43.532";"2014-10-07 09:42:41.077";"1";"1";"0";"136";"135";"module.training_block4.exec-1078.GoNoGo4";;;;;;;;;;;;;;;;;;;;;;;;;;;;;;;;;;;;;;;;;;;;;;;;;;;;;;;;;;;"1261";"2014-10-07 09:34:39.224";"NST_correctLoc";"30";"1";"FINISHED";"RIGHT";"success";"702";"0";"2014-10-07 09:34:37.960";"3";;;;;;;;;;;;;;;;;;;;;
"becca95";;;"Windows 7";"Rachel's Experiment (D.T.)";"1.0";"2";"1";"1";"2";"1";"1";"2014-10-07 09:26:43.532";"2014-10-07 09:42:41.077";"1";"1";"0";"137";"136";"module.training_block4.exec-1078.GoNoGo4";;;;;;;;;;;;;;;;;;;;;;;;;;;;;;;;;;;;;;;;;;;;;;;;;;;;;;;;;;;"1261";"2014-10-07 09:34:41.751";"ST_correctStop";"22";"1";"FINISHED";"NONE";"success";"0";"1";"2014-10-07 09:34:40.487";"3";;;;;;;;;;;;;;;;;;;;;
"becca95";;;"Windows 7";"Rachel's Experiment (D.T.)";"1.0";"2";"1";"1";"2";"1";"1";"2014-10-07 09:26:43.532";"2014-10-07 09:42:41.077";"1";"1";"0";"138";"137";"module.training_block4.exec-1078.GoNoGo4";;;;;;;;;;;;;;;;;;;;;;;;;;;;;;;;;;;;;;;;;;;;;;;;;;;;;;;;;;;"1261";"2014-10-07 09:34:44.294";"ST_correctStop";"27";"0";"FINISHED";"NONE";"success";"0";"1";"2014-10-07 09:34:43.030";"3";;;;;;;;;;;;;;;;;;;;;
"becca95";;;"Windows 7";"Rachel's Experiment (D.T.)";"1.0";"2";"1";"1";"2";"1";"1";"2014-10-07 09:26:43.532";"2014-10-07 09:42:41.077";"1";"1";"0";"139";"138";"module.training_block4.exec-1078.GoNoGo4";;;;;;;;;;;;;;;;;;;;;;;;;;;;;;;;;;;;;;;;;;;;;;;;;;;;;;;;;;;"1261";"2014-10-07 09:34:46.821";"ST_correctStop";"23";"1";"FINISHED";"NONE";"success";"0";"1";"2014-10-07 09:34:45.557";"3";;;;;;;;;;;;;;;;;;;;;
"becca95";;;"Windows 7";"Rachel's Experiment (D.T.)";"1.0";"2";"1";"1";"2";"1";"1";"2014-10-07 09:26:43.532";"2014-10-07 09:42:41.077";"1";"1";"0";"140";"139";"module.training_block4.exec-1078.GoNoGo4";;;;;;;;;;;;;;;;;;;;;;;;;;;;;;;;;;;;;;;;;;;;;;;;;;;;;;;;;;;"1261";"2014-10-07 09:34:49.348";"ST_correctStop";"6";"1";"FINISHED";"NONE";"success";"0";"1";"2014-10-07 09:34:48.084";"1";;;;;;;;;;;;;;;;;;;;;
"becca95";;;"Windows 7";"Rachel's Experiment (D.T.)";"1.0";"2";"1";"1";"2";"1";"1";"2014-10-07 09:26:43.532";"2014-10-07 09:42:41.077";"1";"1";"0";"141";"140";"module.training_block4.exec-1078.GoNoGo4";;;;;;;;;;;;;;;;;;;;;;;;;;;;;;;;;;;;;;;;;;;;;;;;;;;;;;;;;;;"1261";"2014-10-07 09:34:51.875";"ST_correctStop";"29";"0";"FINISHED";"NONE";"success";"0";"1";"2014-10-07 09:34:50.612";"3";;;;;;;;;;;;;;;;;;;;;
"becca95";;;"Windows 7";"Rachel's Experiment (D.T.)";"1.0";"2";"1";"1";"2";"1";"1";"2014-10-07 09:26:43.532";"2014-10-07 09:42:41.077";"1";"1";"0";"142";"141";"module.training_block4.exec-1078.GoNoGo4";;;;;;;;;;;;;;;;;;;;;;;;;;;;;;;;;;;;;;;;;;;;;;;;;;;;;;;;;;;"1261";"2014-10-07 09:34:54.402";"ST_correctStop";"0";"1";"FINISHED";"NONE";"success";"0";"1";"2014-10-07 09:34:53.139";"1";;;;;;;;;;;;;;;;;;;;;
"becca95";;;"Windows 7";"Rachel's Experiment (D.T.)";"1.0";"2";"1";"1";"2";"1";"1";"2014-10-07 09:26:43.532";"2014-10-07 09:42:41.077";"1";"1";"0";"143";"142";"module.training_block4.exec-1078.GoNoGo4";;;;;;;;;;;;;;;;;;;;;;;;;;;;;;;;;;;;;;;;;;;;;;;;;;;;;;;;;;;"1261";"2014-10-07 09:34:56.945";"NST_correctLoc";"21";"1";"FINISHED";"RIGHT";"success";"621";"0";"2014-10-07 09:34:55.682";"3";;;;;;;;;;;;;;;;;;;;;
"becca95";;;"Windows 7";"Rachel's Experiment (D.T.)";"1.0";"2";"1";"1";"2";"1";"1";"2014-10-07 09:26:43.532";"2014-10-07 09:42:41.077";"1";"1";"0";"144";"143";"module.training_block4.exec-1078.GoNoGo4";;;;;;;;;;;;;;;;;;;;;;;;;;;;;;;;;;;;;;;;;;;;;;;;;;;;;;;;;;;"1261";"2014-10-07 09:34:59.472";"NST_correctLoc";"18";"1";"FINISHED";"RIGHT";"success";"685";"0";"2014-10-07 09:34:58.209";"3";;;;;;;;;;;;;;;;;;;;;
"becca95";;;"Windows 7";"Rachel's Experiment (D.T.)";"1.0";"2";"1";"1";"2";"1";"1";"2014-10-07 09:26:43.532";"2014-10-07 09:42:41.077";"1";"1";"0";"145";"144";"module.training_block4.exec-1078.GoNoGo4";;;;;;;;;;;;;;;;;;;;;;;;;;;;;;;;;;;;;;;;;;;;;;;;;;;;;;;;;;;"1261";"2014-10-07 09:35:02.000";"NST_correctLoc";"35";"0";"FINISHED";"LEFT";"success";"718";"0";"2014-10-07 09:35:00.736";"3";;;;;;;;;;;;;;;;;;;;;
"becca95";;;"Windows 7";"Rachel's Experiment (D.T.)";"1.0";"2";"1";"1";"2";"1";"1";"2014-10-07 09:26:43.532";"2014-10-07 09:42:41.077";"1";"1";"0";"146";"145";"module.training_block4.exec-1078.GoNoGo4";;;;;;;;;;;;;;;;;;;;;;;;;;;;;;;;;;;;;;;;;;;;;;;;;;;;;;;;;;;"1261";"2014-10-07 09:35:04.558";"ST_correctStop";"5";"0";"FINISHED";"NONE";"success";"0";"1";"2014-10-07 09:35:03.295";"1";;;;;;;;;;;;;;;;;;;;;
"becca95";;;"Windows 7";"Rachel's Experiment (D.T.)";"1.0";"2";"1";"1";"2";"1";"1";"2014-10-07 09:26:43.532";"2014-10-07 09:42:41.077";"1";"1";"0";"147";"146";"module.training_block4.exec-1078.GoNoGo4";;;;;;;;;;;;;;;;;;;;;;;;;;;;;;;;;;;;;;;;;;;;;;;;;;;;;;;;;;;"1261";"2014-10-07 09:35:07.085";"NST_correctLoc";"10";"1";"FINISHED";"RIGHT";"success";"689";"0";"2014-10-07 09:35:05.822";"2";;;;;;;;;;;;;;;;;;;;;
"becca95";;;"Windows 7";"Rachel's Experiment (D.T.)";"1.0";"2";"1";"1";"2";"1";"1";"2014-10-07 09:26:43.532";"2014-10-07 09:42:41.077";"1";"1";"0";"148";"147";"module.training_block4.exec-1078.GoNoGo4";;;;;;;;;;;;;;;;;;;;;;;;;;;;;;;;;;;;;;;;;;;;;;;;;;;;;;;;;;;"1261";"2014-10-07 09:35:09.628";"ST_correctStop";"3";"1";"FINISHED";"NONE";"success";"0";"1";"2014-10-07 09:35:08.365";"1";;;;;;;;;;;;;;;;;;;;;
"becca95";;;"Windows 7";"Rachel's Experiment (D.T.)";"1.0";"2";"1";"1";"2";"1";"1";"2014-10-07 09:26:43.532";"2014-10-07 09:42:41.077";"1";"1";"0";"149";"148";"module.training_block4.exec-1078.GoNoGo4";;;;;;;;;;;;;;;;;;;;;;;;;;;;;;;;;;;;;;;;;;;;;;;;;;;;;;;;;;;"1261";"2014-10-07 09:35:12.155";"NST_correctLoc";"24";"1";"FINISHED";"RIGHT";"success";"691";"0";"2014-10-07 09:35:10.892";"3";;;;;;;;;;;;;;;;;;;;;
"becca95";;;"Windows 7";"Rachel's Experiment (D.T.)";"1.0";"2";"1";"1";"2";"1";"1";"2014-10-07 09:26:43.532";"2014-10-07 09:42:41.077";"1";"1";"0";"150";"149";"module.training_block4.exec-1078.GoNoGo4";;;;;;;;;;;;;;;;;;;;;;;;;;;;;;;;;;;;;;;;;;;;;;;;;;;;;;;;;;;"1261";"2014-10-07 09:35:14.683";"NST_correctLoc";"11";"1";"FINISHED";"RIGHT";"success";"747";"0";"2014-10-07 09:35:13.419";"2";;;;;;;;;;;;;;;;;;;;;
"becca95";;;"Windows 7";"Rachel's Experiment (D.T.)";"1.0";"2";"1";"1";"2";"1";"1";"2014-10-07 09:26:43.532";"2014-10-07 09:42:41.077";"1";"1";"0";"151";"150";"module.training_block4.exec-1078.GoNoGo4";;;;;;;;;;;;;;;;;;;;;;;;;;;;;;;;;;;;;;;;;;;;;;;;;;;;;;;;;;;"1261";"2014-10-07 09:35:17.241";"NST_correctLoc";"25";"0";"FINISHED";"LEFT";"success";"653";"0";"2014-10-07 09:35:15.977";"3";;;;;;;;;;;;;;;;;;;;;
"becca95";;;"Windows 7";"Rachel's Experiment (D.T.)";"1.0";"2";"1";"1";"2";"1";"1";"2014-10-07 09:26:43.532";"2014-10-07 09:42:41.077";"1";"1";"0";"152";"151";"module.training_block4.exec-1078.GoNoGo4";;;;;;;;;;;;;;;;;;;;;;;;;;;;;;;;;;;;;;;;;;;;;;;;;;;;;;;;;;;"1261";"2014-10-07 09:35:19.768";"NST_correctLoc";"14";"0";"FINISHED";"LEFT";"success";"654";"0";"2014-10-07 09:35:18.505";"2";;;;;;;;;;;;;;;;;;;;;
"becca95";;;"Windows 7";"Rachel's Experiment (D.T.)";"1.0";"2";"1";"1";"2";"1";"1";"2014-10-07 09:26:43.532";"2014-10-07 09:42:41.077";"1";"1";"0";"153";"152";"module.training_block4.exec-1078.GoNoGo4";;;;;;;;;;;;;;;;;;;;;;;;;;;;;;;;;;;;;;;;;;;;;;;;;;;;;;;;;;;"1261";"2014-10-07 09:35:22.311";"ST_correctStop";"33";"1";"FINISHED";"NONE";"success";"0";"1";"2014-10-07 09:35:21.047";"3";;;;;;;;;;;;;;;;;;;;;
"becca95";;;"Windows 7";"Rachel's Experiment (D.T.)";"1.0";"2";"1";"1";"2";"1";"1";"2014-10-07 09:26:43.532";"2014-10-07 09:42:41.077";"1";"1";"0";"154";"153";"module.training_block4.exec-1078.GoNoGo4";;;;;;;;;;;;;;;;;;;;;;;;;;;;;;;;;;;;;;;;;;;;;;;;;;;;;;;;;;;"1261";"2014-10-07 09:35:24.838";"NST_correctLoc";"26";"0";"FINISHED";"LEFT";"success";"664";"0";"2014-10-07 09:35:23.575";"3";;;;;;;;;;;;;;;;;;;;;
"becca95";;;"Windows 7";"Rachel's Experiment (D.T.)";"1.0";"2";"1";"1";"2";"1";"1";"2014-10-07 09:26:43.532";"2014-10-07 09:42:41.077";"1";"1";"0";"155";"154";"module.training_block4.exec-1078.GoNoGo4";;;;;;;;;;;;;;;;;;;;;;;;;;;;;;;;;;;;;;;;;;;;;;;;;;;;;;;;;;;"1258";"2014-10-07 09:35:27.365";"ST_correctStop";"1";"0";"FINISHED";"NONE";"success";"0";"1";"2014-10-07 09:35:26.102";"1";;;;;;;;;;;;;;;;;;;;;
"becca95";;;"Windows 7";"Rachel's Experiment (D.T.)";"1.0";"2";"1";"1";"2";"1";"1";"2014-10-07 09:26:43.532";"2014-10-07 09:42:41.077";"1";"1";"0";"156";"155";"module.training_block4.exec-1078.GoNoGo4";;;;;;;;;;;;;;;;;;;;;;;;;;;;;;;;;;;;;;;;;;;;;;;;;;;;;;;;;;;"1261";"2014-10-07 09:35:29.893";"NST_correctLoc";"9";"1";"FINISHED";"RIGHT";"success";"689";"0";"2014-10-07 09:35:28.629";"2";;;;;;;;;;;;;;;;;;;;;
"becca95";;;"Windows 7";"Rachel's Experiment (D.T.)";"1.0";"2";"1";"1";"2";"1";"1";"2014-10-07 09:26:43.532";"2014-10-07 09:42:41.077";"1";"1";"0";"157";"156";"module.training_block4.exec-1078.GoNoGo4";;;;;;;;;;;;;;;;;;;;;;;;;;;;;;;;;;;;;;;;;;;;;;;;;;;;;;;;;;;"1261";"2014-10-07 09:35:32.420";"NST_correctLoc";"28";"1";"FINISHED";"RIGHT";"success";"1162";"0";"2014-10-07 09:35:31.156";"3";;;;;;;;;;;;;;;;;;;;;
"becca95";;;"Windows 7";"Rachel's Experiment (D.T.)";"1.0";"2";"1";"1";"2";"1";"1";"2014-10-07 09:26:43.532";"2014-10-07 09:42:41.077";"1";"1";"0";"158";"157";"module.training_block4.exec-1078.GoNoGo4";;;;;;;;;;;;;;;;;;;;;;;;;;;;;;;;;;;;;;;;;;;;;;;;;;;;;;;;;;;"1261";"2014-10-07 09:35:34.947";"ST_correctStop";"4";"0";"FINISHED";"NONE";"success";"0";"1";"2014-10-07 09:35:33.683";"1";;;;;;;;;;;;;;;;;;;;;
"becca95";;;"Windows 7";"Rachel's Experiment (D.T.)";"1.0";"2";"1";"1";"2";"1";"1";"2014-10-07 09:26:43.532";"2014-10-07 09:42:41.077";"1";"1";"0";"159";"158";"module.training_block4.exec-1078.GoNoGo4";;;;;;;;;;;;;;;;;;;;;;;;;;;;;;;;;;;;;;;;;;;;;;;;;;;;;;;;;;;"1261";"2014-10-07 09:35:37.474";"NST_correctLoc";"15";"0";"FINISHED";"LEFT";"success";"556";"0";"2014-10-07 09:35:36.211";"2";;;;;;;;;;;;;;;;;;;;;
"becca95";;;"Windows 7";"Rachel's Experiment (D.T.)";"1.0";"2";"1";"1";"2";"1";"1";"2014-10-07 09:26:43.532";"2014-10-07 09:42:41.077";"1";"1";"0";"160";"159";"module.devaluation_practice.exec-6743.devalPractice";;;;;;;;;;;;"20359";"2014-10-07 09:36:35.444";"0";"6";"5";"4";"5864";"2249";"9209";"2014-10-07 09:36:15.086";;;;;;;;;;;;;;;;;;;;;;;;;;;;;;;;;;;;;;;;;;;;;;;;;;;;;;;;;;;;;;;;;;;;;;
"becca95";;;"Windows 7";"Rachel's Experiment (D.T.)";"1.0";"2";"1";"1";"2";"1";"1";"2014-10-07 09:26:43.532";"2014-10-07 09:42:41.077";"1";"1";"0";"161";"160";"module.devaluation_practice.exec-6743.devalPractice";;;;;;;;;;;;"19803";"2014-10-07 09:36:55.272";"1";"5";"3";"3";"6916";"5886";"3981";"2014-10-07 09:36:35.459";;;;;;;;;;;;;;;;;;;;;;;;;;;;;;;;;;;;;;;;;;;;;;;;;;;;;;;;;;;;;;;;;;;;;;
"becca95";;;"Windows 7";"Rachel's Experiment (D.T.)";"1.0";"2";"1";"1";"2";"1";"1";"2014-10-07 09:26:43.532";"2014-10-07 09:42:41.077";"1";"1";"0";"162";"161";"module.devaluation_practice.exec-6743.devalPractice";;;;;;;;;;;;"11997";"2014-10-07 09:37:07.284";"2";"3";"5";"7";"3601";"1631";"3740";"2014-10-07 09:36:55.287";;;;;;;;;;;;;;;;;;;;;;;;;;;;;;;;;;;;;;;;;;;;;;;;;;;;;;;;;;;;;;;;;;;;;;
"becca95";;;"Windows 7";"Rachel's Experiment (D.T.)";"1.0";"2";"1";"1";"2";"1";"1";"2014-10-07 09:26:43.532";"2014-10-07 09:42:41.077";"1";"1";"0";"163";"162";"module.devaluation_practice.exec-6743.devalPractice";;;;;;;;;;;;"11220";"2014-10-07 09:37:18.531";"3";"6";"3";"5";"2645";"1920";"3648";"2014-10-07 09:37:07.299";;;;;;;;;;;;;;;;;;;;;;;;;;;;;;;;;;;;;;;;;;;;;;;;;;;;;;;;;;;;;;;;;;;;;;
"becca95";;;"Windows 7";"Rachel's Experiment (D.T.)";"1.0";"2";"1";"1";"2";"1";"1";"2014-10-07 09:26:43.532";"2014-10-07 09:42:41.077";"1";"1";"0";"164";"163";"module.devaluation_block1.exec-1152.deval1";"14021";"2014-10-07 09:37:47.859";"6";"7";"5";"7";"6076";"1202";"3717";"2014-10-07 09:37:33.835";"1";;;;;;;;;;;;;;;;;;;;;;;;;;;;;;;;;;;;;;;;;;;;;;;;;;;;;;;;;;;;;;;;;;;;;;;;;;;;;;;;
"becca95";;;"Windows 7";"Rachel's Experiment (D.T.)";"1.0";"2";"1";"1";"2";"1";"1";"2014-10-07 09:26:43.532";"2014-10-07 09:42:41.077";"1";"1";"0";"165";"164";"module.devaluation_block1.exec-1152.deval1";"11324";"2014-10-07 09:37:59.200";"9";"3";"3";"3";"2965";"2585";"2742";"2014-10-07 09:37:47.875";"2";;;;;;;;;;;;;;;;;;;;;;;;;;;;;;;;;;;;;;;;;;;;;;;;;;;;;;;;;;;;;;;;;;;;;;;;;;;;;;;;
"becca95";;;"Windows 7";"Rachel's Experiment (D.T.)";"1.0";"2";"1";"1";"2";"1";"1";"2014-10-07 09:26:43.532";"2014-10-07 09:42:41.077";"1";"1";"0";"166";"165";"module.devaluation_block1.exec-1152.deval1";"13768";"2014-10-07 09:38:13.022";"8";"8";"6";"7";"6672";"981";"3088";"2014-10-07 09:37:59.247";"1";;;;;;;;;;;;;;;;;;;;;;;;;;;;;;;;;;;;;;;;;;;;;;;;;;;;;;;;;;;;;;;;;;;;;;;;;;;;;;;;
"becca95";;;"Windows 7";"Rachel's Experiment (D.T.)";"1.0";"2";"1";"1";"2";"1";"1";"2014-10-07 09:26:43.532";"2014-10-07 09:42:41.077";"1";"1";"0";"167";"166";"module.devaluation_block1.exec-1152.deval1";"10013";"2014-10-07 09:38:23.053";"24";"6";"4";"6";"3586";"1419";"1963";"2014-10-07 09:38:13.038";"3";;;;;;;;;;;;;;;;;;;;;;;;;;;;;;;;;;;;;;;;;;;;;;;;;;;;;;;;;;;;;;;;;;;;;;;;;;;;;;;;
"becca95";;;"Windows 7";"Rachel's Experiment (D.T.)";"1.0";"2";"1";"1";"2";"1";"1";"2014-10-07 09:26:43.532";"2014-10-07 09:42:41.077";"1";"1";"0";"168";"167";"module.devaluation_block1.exec-1152.deval1";"9068";"2014-10-07 09:38:32.132";"7";"7";"5";"6";"2251";"1349";"2442";"2014-10-07 09:38:23.068";"1";;;;;;;;;;;;;;;;;;;;;;;;;;;;;;;;;;;;;;;;;;;;;;;;;;;;;;;;;;;;;;;;;;;;;;;;;;;;;;;;
"becca95";;;"Windows 7";"Rachel's Experiment (D.T.)";"1.0";"2";"1";"1";"2";"1";"1";"2014-10-07 09:26:43.532";"2014-10-07 09:42:41.077";"1";"1";"0";"169";"168";"module.devaluation_block1.exec-1152.deval1";"12971";"2014-10-07 09:38:45.127";"14";"6";"6";"7";"2084";"1362";"6510";"2014-10-07 09:38:32.148";"2";;;;;;;;;;;;;;;;;;;;;;;;;;;;;;;;;;;;;;;;;;;;;;;;;;;;;;;;;;;;;;;;;;;;;;;;;;;;;;;;
"becca95";;;"Windows 7";"Rachel's Experiment (D.T.)";"1.0";"2";"1";"1";"2";"1";"1";"2014-10-07 09:26:43.532";"2014-10-07 09:42:41.077";"1";"1";"0";"170";"169";"module.devaluation_block1.exec-1152.deval1";"13099";"2014-10-07 09:38:58.262";"12";"5";"4";"5";"2385";"3039";"4635";"2014-10-07 09:38:45.158";"2";;;;;;;;;;;;;;;;;;;;;;;;;;;;;;;;;;;;;;;;;;;;;;;;;;;;;;;;;;;;;;;;;;;;;;;;;;;;;;;;
"becca95";;;"Windows 7";"Rachel's Experiment (D.T.)";"1.0";"2";"1";"1";"2";"1";"1";"2014-10-07 09:26:43.532";"2014-10-07 09:42:41.077";"1";"1";"0";"171";"170";"module.devaluation_block1.exec-1152.deval1";"9790";"2014-10-07 09:39:08.059";"23";"6";"3";"4";"2257";"1070";"3440";"2014-10-07 09:38:58.278";"3";;;;;;;;;;;;;;;;;;;;;;;;;;;;;;;;;;;;;;;;;;;;;;;;;;;;;;;;;;;;;;;;;;;;;;;;;;;;;;;;
"becca95";;;"Windows 7";"Rachel's Experiment (D.T.)";"1.0";"2";"1";"1";"2";"1";"1";"2014-10-07 09:26:43.532";"2014-10-07 09:42:41.077";"1";"1";"0";"172";"171";"module.devaluation_block1.exec-1152.deval1";"8532";"2014-10-07 09:39:16.608";"4";"5";"5";"7";"1405";"1385";"2710";"2014-10-07 09:39:08.090";"1";;;;;;;;;;;;;;;;;;;;;;;;;;;;;;;;;;;;;;;;;;;;;;;;;;;;;;;;;;;;;;;;;;;;;;;;;;;;;;;;
"becca95";;;"Windows 7";"Rachel's Experiment (D.T.)";"1.0";"2";"1";"1";"2";"1";"1";"2014-10-07 09:26:43.532";"2014-10-07 09:42:41.077";"1";"1";"0";"173";"172";"module.devaluation_block1.exec-1152.deval1";"15164";"2014-10-07 09:39:31.802";"26";"7";"3";"6";"4856";"3886";"3386";"2014-10-07 09:39:16.639";"3";;;;;;;;;;;;;;;;;;;;;;;;;;;;;;;;;;;;;;;;;;;;;;;;;;;;;;;;;;;;;;;;;;;;;;;;;;;;;;;;
"becca95";;;"Windows 7";"Rachel's Experiment (D.T.)";"1.0";"2";"1";"1";"2";"1";"1";"2014-10-07 09:26:43.532";"2014-10-07 09:42:41.077";"1";"1";"0";"174";"173";"module.devaluation_block1.exec-1152.deval1";"8268";"2014-10-07 09:39:40.086";"22";"5";"5";"6";"1925";"1503";"1812";"2014-10-07 09:39:31.818";"3";;;;;;;;;;;;;;;;;;;;;;;;;;;;;;;;;;;;;;;;;;;;;;;;;;;;;;;;;;;;;;;;;;;;;;;;;;;;;;;;
"becca95";;;"Windows 7";"Rachel's Experiment (D.T.)";"1.0";"2";"1";"1";"2";"1";"1";"2014-10-07 09:26:43.532";"2014-10-07 09:42:41.077";"1";"1";"0";"175";"174";"module.devaluation_block1.exec-1152.deval1";"9524";"2014-10-07 09:39:49.633";"1";"4";"2";"3";"2282";"1235";"2985";"2014-10-07 09:39:40.101";"1";;;;;;;;;;;;;;;;;;;;;;;;;;;;;;;;;;;;;;;;;;;;;;;;;;;;;;;;;;;;;;;;;;;;;;;;;;;;;;;;
"becca95";;;"Windows 7";"Rachel's Experiment (D.T.)";"1.0";"2";"1";"1";"2";"1";"1";"2014-10-07 09:26:43.532";"2014-10-07 09:42:41.077";"1";"1";"0";"176";"175";"module.devaluation_block1.exec-1152.deval1";"11916";"2014-10-07 09:40:01.567";"25";"6";"4";"5";"2294";"2095";"4494";"2014-10-07 09:39:49.649";"3";;;;;;;;;;;;;;;;;;;;;;;;;;;;;;;;;;;;;;;;;;;;;;;;;;;;;;;;;;;;;;;;;;;;;;;;;;;;;;;;
"becca95";;;"Windows 7";"Rachel's Experiment (D.T.)";"1.0";"2";"1";"1";"2";"1";"1";"2014-10-07 09:26:43.532";"2014-10-07 09:42:41.077";"1";"1";"0";"177";"176";"module.devaluation_block1.exec-1152.deval1";"7821";"2014-10-07 09:40:09.414";"5";"6";"4";"6";"1080";"1448";"2265";"2014-10-07 09:40:01.583";"1";;;;;;;;;;;;;;;;;;;;;;;;;;;;;;;;;;;;;;;;;;;;;;;;;;;;;;;;;;;;;;;;;;;;;;;;;;;;;;;;
"becca95";;;"Windows 7";"Rachel's Experiment (D.T.)";"1.0";"2";"1";"1";"2";"1";"1";"2014-10-07 09:26:43.532";"2014-10-07 09:42:41.077";"1";"1";"0";"178";"177";"module.devaluation_block1.exec-1152.deval1";"14698";"2014-10-07 09:40:24.140";"18";"5";"3";"6";"1666";"7994";"2002";"2014-10-07 09:40:09.445";"3";;;;;;;;;;;;;;;;;;;;;;;;;;;;;;;;;;;;;;;;;;;;;;;;;;;;;;;;;;;;;;;;;;;;;;;;;;;;;;;;
"becca95";;;"Windows 7";"Rachel's Experiment (D.T.)";"1.0";"2";"1";"1";"2";"1";"1";"2014-10-07 09:26:43.532";"2014-10-07 09:42:41.077";"1";"1";"0";"179";"178";"module.devaluation_block1.exec-1152.deval1";"11947";"2014-10-07 09:40:36.121";"20";"5";"3";"6";"3931";"3100";"1760";"2014-10-07 09:40:24.171";"3";;;;;;;;;;;;;;;;;;;;;;;;;;;;;;;;;;;;;;;;;;;;;;;;;;;;;;;;;;;;;;;;;;;;;;;;;;;;;;;;
"becca95";;;"Windows 7";"Rachel's Experiment (D.T.)";"1.0";"2";"1";"1";"2";"1";"1";"2014-10-07 09:26:43.532";"2014-10-07 09:42:41.077";"1";"1";"0";"180";"179";"module.devaluation_block1.exec-1152.deval1";"8781";"2014-10-07 09:40:44.920";"21";"5";"3";"7";"1766";"1797";"2185";"2014-10-07 09:40:36.137";"3";;;;;;;;;;;;;;;;;;;;;;;;;;;;;;;;;;;;;;;;;;;;;;;;;;;;;;;;;;;;;;;;;;;;;;;;;;;;;;;;
"becca95";;;"Windows 7";"Rachel's Experiment (D.T.)";"1.0";"2";"1";"1";"2";"1";"1";"2014-10-07 09:26:43.532";"2014-10-07 09:42:41.077";"1";"1";"0";"181";"180";"module.devaluation_block1.exec-1152.deval1";"12069";"2014-10-07 09:40:57.010";"19";"4";"4";"7";"4527";"2108";"2401";"2014-10-07 09:40:44.935";"3";;;;;;;;;;;;;;;;;;;;;;;;;;;;;;;;;;;;;;;;;;;;;;;;;;;;;;;;;;;;;;;;;;;;;;;;;;;;;;;;
"becca95";;;"Windows 7";"Rachel's Experiment (D.T.)";"1.0";"2";"1";"1";"2";"1";"1";"2014-10-07 09:26:43.532";"2014-10-07 09:42:41.077";"1";"1";"0";"182";"181";"module.devaluation_block1.exec-1152.deval1";"8478";"2014-10-07 09:41:05.512";"11";"5";"2";"3";"1094";"1525";"2831";"2014-10-07 09:40:57.041";"2";;;;;;;;;;;;;;;;;;;;;;;;;;;;;;;;;;;;;;;;;;;;;;;;;;;;;;;;;;;;;;;;;;;;;;;;;;;;;;;;
"becca95";;;"Windows 7";"Rachel's Experiment (D.T.)";"1.0";"2";"1";"1";"2";"1";"1";"2014-10-07 09:26:43.532";"2014-10-07 09:42:41.077";"1";"1";"0";"183";"182";"module.devaluation_block1.exec-1152.deval1";"9845";"2014-10-07 09:41:15.386";"15";"5";"5";"6";"2096";"2590";"2123";"2014-10-07 09:41:05.543";"2";;;;;;;;;;;;;;;;;;;;;;;;;;;;;;;;;;;;;;;;;;;;;;;;;;;;;;;;;;;;;;;;;;;;;;;;;;;;;;;;
"becca95";;;"Windows 7";"Rachel's Experiment (D.T.)";"1.0";"2";"1";"1";"2";"1";"1";"2014-10-07 09:26:43.532";"2014-10-07 09:42:41.077";"1";"1";"0";"184";"183";"module.devaluation_block1.exec-1152.deval1";"12588";"2014-10-07 09:41:27.991";"10";"6";"2";"2";"1997";"2827";"4733";"2014-10-07 09:41:15.402";"2";;;;;;;;;;;;;;;;;;;;;;;;;;;;;;;;;;;;;;;;;;;;;;;;;;;;;;;;;;;;;;;;;;;;;;;;;;;;;;;;
"becca95";;;"Windows 7";"Rachel's Experiment (D.T.)";"1.0";"2";"1";"1";"2";"1";"1";"2014-10-07 09:26:43.532";"2014-10-07 09:42:41.077";"1";"1";"0";"185";"184";"module.devaluation_block1.exec-1152.deval1";"13760";"2014-10-07 09:41:41.782";"2";"5";"2";"3";"4192";"3811";"2728";"2014-10-07 09:41:28.022";"1";;;;;;;;;;;;;;;;;;;;;;;;;;;;;;;;;;;;;;;;;;;;;;;;;;;;;;;;;;;;;;;;;;;;;;;;;;;;;;;;
"becca95";;;"Windows 7";"Rachel's Experiment (D.T.)";"1.0";"2";"1";"1";"2";"1";"1";"2014-10-07 09:26:43.532";"2014-10-07 09:42:41.077";"1";"1";"0";"186";"185";"module.devaluation_block1.exec-1152.deval1";"9828";"2014-10-07 09:41:51.625";"13";"4";"6";"8";"2489";"1960";"2358";"2014-10-07 09:41:41.797";"2";;;;;;;;;;;;;;;;;;;;;;;;;;;;;;;;;;;;;;;;;;;;;;;;;;;;;;;;;;;;;;;;;;;;;;;;;;;;;;;;
"becca95";;;"Windows 7";"Rachel's Experiment (D.T.)";"1.0";"2";"1";"1";"2";"1";"1";"2014-10-07 09:26:43.532";"2014-10-07 09:42:41.077";"1";"1";"0";"187";"186";"module.devaluation_block1.exec-1152.deval1";"8869";"2014-10-07 09:42:00.517";"17";"3";"3";"3";"2125";"2782";"945";"2014-10-07 09:41:51.641";"2";;;;;;;;;;;;;;;;;;;;;;;;;;;;;;;;;;;;;;;;;;;;;;;;;;;;;;;;;;;;;;;;;;;;;;;;;;;;;;;;
"becca95";;;"Windows 7";"Rachel's Experiment (D.T.)";"1.0";"2";"1";"1";"2";"1";"1";"2014-10-07 09:26:43.532";"2014-10-07 09:42:41.077";"1";"1";"0";"188";"187";"module.devaluation_block1.exec-1152.deval1";"11916";"2014-10-07 09:42:12.451";"0";"5";"3";"6";"4929";"2675";"1277";"2014-10-07 09:42:00.533";"1";;;;;;;;;;;;;;;;;;;;;;;;;;;;;;;;;;;;;;;;;;;;;;;;;;;;;;;;;;;;;;;;;;;;;;;;;;;;;;;;
"becca95";;;"Windows 7";"Rachel's Experiment (D.T.)";"1.0";"2";"1";"1";"2";"1";"1";"2014-10-07 09:26:43.532";"2014-10-07 09:42:41.077";"1";"1";"0";"189";"188";"module.devaluation_block1.exec-1152.deval1";"9077";"2014-10-07 09:42:21.546";"16";"5";"4";"4";"1355";"1880";"2811";"2014-10-07 09:42:12.467";"2";;;;;;;;;;;;;;;;;;;;;;;;;;;;;;;;;;;;;;;;;;;;;;;;;;;;;;;;;;;;;;;;;;;;;;;;;;;;;;;;
"becca95";;;"Windows 7";"Rachel's Experiment (D.T.)";"1.0";"2";"1";"1";"2";"1";"1";"2014-10-07 09:26:43.532";"2014-10-07 09:42:41.077";"1";"1";"0";"190";"189";"module.devaluation_block1.exec-1152.deval1";"16845";"2014-10-07 09:42:38.410";"3";"6";"4";"7";"5924";"6015";"1897";"2014-10-07 09:42:21.562";"1";;;;;;;;;;;;;;;;;;;;;;;;;;;;;;;;;;;;;;;;;;;;;;;;;;;;;;;;;;;;;;;;;;;;;;;;;;;;;;;;
