"user.name";"user.yearOfBirth";"user.sex";"user.osName";"module.name";"module.version";"module.online.subject.code";"module.online.study.id";"module.online.module.nr";"module.online.group.nr";"session.id";"session.index";"session.startTime";"session.endTime";"session.completed";"session.node-5008.DevalQorder";"session.node-5256.conditionType";"trial.id";"trial.index";"trial.name";"trial.deval1.durationTime";"trial.deval1.endTime";"trial.deval1.icon";"trial.deval1.Resp_Attractive";"trial.deval1.Resp_Eat";"trial.deval1.Resp_Taste";"trial.deval1.RT_Attractive";"trial.deval1.RT_Eat";"trial.deval1.RT_Taste";"trial.deval1.startTime";"trial.deval1.stimulus type";"trial.devalPractice.durationTime";"trial.devalPractice.endTime";"trial.devalPractice.icon";"trial.devalPractice.Resp_Attractive";"trial.devalPractice.Resp_Eat";"trial.devalPractice.Resp_Taste";"trial.devalPractice.RT_Attractive";"trial.devalPractice.RT_Eat";"trial.devalPractice.RT_Taste";"trial.devalPractice.startTime";"trial.devalPractice.stimulus type";"trial.GoNoGo1.durationTime";"trial.GoNoGo1.endTime";"trial.GoNoGo1.Error Type";"trial.GoNoGo1.icon";"trial.GoNoGo1.location";"trial.GoNoGo1.outcome";"trial.GoNoGo1.response";"trial.GoNoGo1.result";"trial.GoNoGo1.RT";"trial.GoNoGo1.signal";"trial.GoNoGo1.startTime";"trial.GoNoGo1.stimulus type";"trial.GoNoGo2.durationTime";"trial.GoNoGo2.endTime";"trial.GoNoGo2.Error Type";"trial.GoNoGo2.icon";"trial.GoNoGo2.location";"trial.GoNoGo2.outcome";"trial.GoNoGo2.response";"trial.GoNoGo2.result";"trial.GoNoGo2.RT";"trial.GoNoGo2.signal";"trial.GoNoGo2.startTime";"trial.GoNoGo2.stimulus type";"trial.GoNoGo3.durationTime";"trial.GoNoGo3.endTime";"trial.GoNoGo3.Error Type";"trial.GoNoGo3.icon";"trial.GoNoGo3.location";"trial.GoNoGo3.outcome";"trial.GoNoGo3.response";"trial.GoNoGo3.result";"trial.GoNoGo3.RT";"trial.GoNoGo3.signal";"trial.GoNoGo3.startTime";"trial.GoNoGo3.stimulus type";"trial.GoNoGo4.durationTime";"trial.GoNoGo4.endTime";"trial.GoNoGo4.Error Type";"trial.GoNoGo4.icon";"trial.GoNoGo4.location";"trial.GoNoGo4.outcome";"trial.GoNoGo4.response";"trial.GoNoGo4.result";"trial.GoNoGo4.RT";"trial.GoNoGo4.signal";"trial.GoNoGo4.startTime";"trial.GoNoGo4.stimulus type";"trial.GoNoGo_Practice.durationTime";"trial.GoNoGo_Practice.endTime";"trial.GoNoGo_Practice.icon";"trial.GoNoGo_Practice.location";"trial.GoNoGo_Practice.outcome";"trial.GoNoGo_Practice.response";"trial.GoNoGo_Practice.result";"trial.GoNoGo_Practice.RT";"trial.GoNoGo_Practice.signal";"trial.GoNoGo_Practice.startTime";"trial.GoNoGo_Practice.stimulus type";"trial.GoNoGo_Tutorial.durationTime";"trial.GoNoGo_Tutorial.endTime";"trial.GoNoGo_Tutorial.icon";"trial.GoNoGo_Tutorial.location";"trial.GoNoGo_Tutorial.outcome";"trial.GoNoGo_Tutorial.response";"trial.GoNoGo_Tutorial.result";"trial.GoNoGo_Tutorial.RT";"trial.GoNoGo_Tutorial.signal";"trial.GoNoGo_Tutorial.startTime"
"949764MB";;;"Windows 7";"Rachel's Experiment (D.T.)";"1.0";"2";"1";"1";"2";"1";"1";"2014-10-04 16:18:57.003";"2014-10-04 16:32:22.493";"1";"0";"0";"1";"0";"module.GoNoGotutorial.exec-8431.GoNoGo_Tutorial";;;;;;;;;;;;;;;;;;;;;;;;;;;;;;;;;;;;;;;;;;;;;;;;;;;;;;;;;;;;;;;;;;;;;;;;;;;;;;;;;;"3995";"2014-10-04 16:19:37.547";"leftResponse";"0";"FINISHED";"NONE";"failure";"0";"0";"2014-10-04 16:19:33.538"
"949764MB";;;"Windows 7";"Rachel's Experiment (D.T.)";"1.0";"2";"1";"1";"2";"1";"1";"2014-10-04 16:18:57.003";"2014-10-04 16:32:22.493";"1";"0";"0";"2";"1";"module.GoNoGotutorial.exec-8431.GoNoGo_Tutorial";;;;;;;;;;;;;;;;;;;;;;;;;;;;;;;;;;;;;;;;;;;;;;;;;;;;;;;;;;;;;;;;;;;;;;;;;;;;;;;;;;"4002";"2014-10-04 16:19:42.851";"rightResponse";"1";"FINISHED";"NONE";"failure";"0";"0";"2014-10-04 16:19:38.842"
"949764MB";;;"Windows 7";"Rachel's Experiment (D.T.)";"1.0";"2";"1";"1";"2";"1";"1";"2014-10-04 16:18:57.003";"2014-10-04 16:32:22.493";"1";"0";"0";"3";"2";"module.GoNoGotutorial.exec-8431.GoNoGo_Tutorial";;;;;;;;;;;;;;;;;;;;;;;;;;;;;;;;;;;;;;;;;;;;;;;;;;;;;;;;;;;;;;;;;;;;;;;;;;;;;;;;;;"4003";"2014-10-04 16:19:48.155";"quickResponse";"0";"FINISHED";"NONE";"failure";"0";"0";"2014-10-04 16:19:44.146"
"949764MB";;;"Windows 7";"Rachel's Experiment (D.T.)";"1.0";"2";"1";"1";"2";"1";"1";"2014-10-04 16:18:57.003";"2014-10-04 16:32:22.493";"1";"0";"0";"4";"3";"module.GoNoGopractice.exec-3616.GoNoGo_Practice";;;;;;;;;;;;;;;;;;;;;;;;;;;;;;;;;;;;;;;;;;;;;;;;;;;;;;;;;;;;;;;;;;;;;;;"1959";"2014-10-04 16:19:56.423";"18";"0";"FINISHED";"LEFT";"success";"840";"0";"2014-10-04 16:19:54.457";"3";;;;;;;;;;
"949764MB";;;"Windows 7";"Rachel's Experiment (D.T.)";"1.0";"2";"1";"1";"2";"1";"1";"2014-10-04 16:18:57.003";"2014-10-04 16:32:22.493";"1";"0";"0";"5";"4";"module.GoNoGopractice.exec-3616.GoNoGo_Practice";;;;;;;;;;;;;;;;;;;;;;;;;;;;;;;;;;;;;;;;;;;;;;;;;;;;;;;;;;;;;;;;;;;;;;;"1959";"2014-10-04 16:19:59.683";"21";"1";"FINISHED";"RIGHT";"success";"348";"0";"2014-10-04 16:19:57.718";"3";;;;;;;;;;
"949764MB";;;"Windows 7";"Rachel's Experiment (D.T.)";"1.0";"2";"1";"1";"2";"1";"1";"2014-10-04 16:18:57.003";"2014-10-04 16:32:22.493";"1";"0";"0";"6";"5";"module.GoNoGopractice.exec-3616.GoNoGo_Practice";;;;;;;;;;;;;;;;;;;;;;;;;;;;;;;;;;;;;;;;;;;;;;;;;;;;;;;;;;;;;;;;;;;;;;;"1953";"2014-10-04 16:20:02.928";"14";"1";"FINISHED";"RIGHT";"success";"362";"0";"2014-10-04 16:20:00.963";"2";;;;;;;;;;
"949764MB";;;"Windows 7";"Rachel's Experiment (D.T.)";"1.0";"2";"1";"1";"2";"1";"1";"2014-10-04 16:18:57.003";"2014-10-04 16:32:22.493";"1";"0";"0";"7";"6";"module.GoNoGopractice.exec-3616.GoNoGo_Practice";;;;;;;;;;;;;;;;;;;;;;;;;;;;;;;;;;;;;;;;;;;;;;;;;;;;;;;;;;;;;;;;;;;;;;;"1959";"2014-10-04 16:20:06.173";"26";"0";"FINISHED";"LEFT";"success";"386";"0";"2014-10-04 16:20:04.207";"3";;;;;;;;;;
"949764MB";;;"Windows 7";"Rachel's Experiment (D.T.)";"1.0";"2";"1";"1";"2";"1";"1";"2014-10-04 16:18:57.003";"2014-10-04 16:32:22.493";"1";"0";"0";"8";"7";"module.GoNoGopractice.exec-3616.GoNoGo_Practice";;;;;;;;;;;;;;;;;;;;;;;;;;;;;;;;;;;;;;;;;;;;;;;;;;;;;;;;;;;;;;;;;;;;;;;"1959";"2014-10-04 16:20:09.418";"2";"0";"FINISHED";"LEFT";"success";"462";"0";"2014-10-04 16:20:07.452";"1";;;;;;;;;;
"949764MB";;;"Windows 7";"Rachel's Experiment (D.T.)";"1.0";"2";"1";"1";"2";"1";"1";"2014-10-04 16:18:57.003";"2014-10-04 16:32:22.493";"1";"0";"0";"9";"8";"module.GoNoGopractice.exec-3616.GoNoGo_Practice";;;;;;;;;;;;;;;;;;;;;;;;;;;;;;;;;;;;;;;;;;;;;;;;;;;;;;;;;;;;;;;;;;;;;;;"1959";"2014-10-04 16:20:12.663";"30";"0";"FINISHED";"LEFT";"success";"433";"0";"2014-10-04 16:20:10.697";"3";;;;;;;;;;
"949764MB";;;"Windows 7";"Rachel's Experiment (D.T.)";"1.0";"2";"1";"1";"2";"1";"1";"2014-10-04 16:18:57.003";"2014-10-04 16:32:22.493";"1";"0";"0";"10";"9";"module.GoNoGopractice.exec-3616.GoNoGo_Practice";;;;;;;;;;;;;;;;;;;;;;;;;;;;;;;;;;;;;;;;;;;;;;;;;;;;;;;;;;;;;;;;;;;;;;;"1959";"2014-10-04 16:20:15.907";"6";"1";"FINISHED";"RIGHT";"success";"364";"0";"2014-10-04 16:20:13.942";"1";;;;;;;;;;
"949764MB";;;"Windows 7";"Rachel's Experiment (D.T.)";"1.0";"2";"1";"1";"2";"1";"1";"2014-10-04 16:18:57.003";"2014-10-04 16:32:22.493";"1";"0";"0";"11";"10";"module.GoNoGopractice.exec-3616.GoNoGo_Practice";;;;;;;;;;;;;;;;;;;;;;;;;;;;;;;;;;;;;;;;;;;;;;;;;;;;;;;;;;;;;;;;;;;;;;;"1959";"2014-10-04 16:20:19.152";"34";"0";"FINISHED";"LEFT";"success";"392";"0";"2014-10-04 16:20:17.187";"3";;;;;;;;;;
"949764MB";;;"Windows 7";"Rachel's Experiment (D.T.)";"1.0";"2";"1";"1";"2";"1";"1";"2014-10-04 16:18:57.003";"2014-10-04 16:32:22.493";"1";"0";"0";"12";"11";"module.GoNoGopractice.exec-3616.GoNoGo_Practice";;;;;;;;;;;;;;;;;;;;;;;;;;;;;;;;;;;;;;;;;;;;;;;;;;;;;;;;;;;;;;;;;;;;;;;"1959";"2014-10-04 16:20:22.397";"23";"1";"FINISHED";"RIGHT";"success";"394";"0";"2014-10-04 16:20:20.431";"3";;;;;;;;;;
"949764MB";;;"Windows 7";"Rachel's Experiment (D.T.)";"1.0";"2";"1";"1";"2";"1";"1";"2014-10-04 16:18:57.003";"2014-10-04 16:32:22.493";"1";"0";"0";"13";"12";"module.GoNoGopractice.exec-3616.GoNoGo_Practice";;;;;;;;;;;;;;;;;;;;;;;;;;;;;;;;;;;;;;;;;;;;;;;;;;;;;;;;;;;;;;;;;;;;;;;"1959";"2014-10-04 16:20:25.642";"13";"0";"FINISHED";"LEFT";"success";"389";"0";"2014-10-04 16:20:23.676";"2";;;;;;;;;;
"949764MB";;;"Windows 7";"Rachel's Experiment (D.T.)";"1.0";"2";"1";"1";"2";"1";"1";"2014-10-04 16:18:57.003";"2014-10-04 16:32:22.493";"1";"0";"0";"14";"13";"module.GoNoGopractice.exec-3616.GoNoGo_Practice";;;;;;;;;;;;;;;;;;;;;;;;;;;;;;;;;;;;;;;;;;;;;;;;;;;;;;;;;;;;;;;;;;;;;;;"1960";"2014-10-04 16:20:28.887";"3";"1";"FINISHED";"RIGHT";"success";"393";"0";"2014-10-04 16:20:26.921";"1";;;;;;;;;;
"949764MB";;;"Windows 7";"Rachel's Experiment (D.T.)";"1.0";"2";"1";"1";"2";"1";"1";"2014-10-04 16:18:57.003";"2014-10-04 16:32:22.493";"1";"0";"0";"15";"14";"module.GoNoGopractice.exec-3616.GoNoGo_Practice";;;;;;;;;;;;;;;;;;;;;;;;;;;;;;;;;;;;;;;;;;;;;;;;;;;;;;;;;;;;;;;;;;;;;;;"1959";"2014-10-04 16:20:32.131";"27";"1";"FINISHED";"RIGHT";"success";"404";"0";"2014-10-04 16:20:30.166";"3";;;;;;;;;;
"949764MB";;;"Windows 7";"Rachel's Experiment (D.T.)";"1.0";"2";"1";"1";"2";"1";"1";"2014-10-04 16:18:57.003";"2014-10-04 16:32:22.493";"1";"0";"0";"16";"15";"module.training_block1.exec-6133.GoNoGo1";;;;;;;;;;;;;;;;;;;;;;;"1257";"2014-10-04 16:20:39.775";"NST_correctLoc";"33";"0";"FINISHED";"LEFT";"success";"409";"0";"2014-10-04 16:20:38.512";"3";;;;;;;;;;;;;;;;;;;;;;;;;;;;;;;;;;;;;;;;;;;;;;;;;;;;;;;;;
"949764MB";;;"Windows 7";"Rachel's Experiment (D.T.)";"1.0";"2";"1";"1";"2";"1";"1";"2014-10-04 16:18:57.003";"2014-10-04 16:32:22.493";"1";"0";"0";"17";"16";"module.training_block1.exec-6133.GoNoGo1";;;;;;;;;;;;;;;;;;;;;;;"1257";"2014-10-04 16:20:42.318";"NST_correctLoc";"19";"1";"FINISHED";"RIGHT";"success";"515";"0";"2014-10-04 16:20:41.055";"3";;;;;;;;;;;;;;;;;;;;;;;;;;;;;;;;;;;;;;;;;;;;;;;;;;;;;;;;;
"949764MB";;;"Windows 7";"Rachel's Experiment (D.T.)";"1.0";"2";"1";"1";"2";"1";"1";"2014-10-04 16:18:57.003";"2014-10-04 16:32:22.493";"1";"0";"0";"18";"17";"module.training_block1.exec-6133.GoNoGo1";;;;;;;;;;;;;;;;;;;;;;;"1257";"2014-10-04 16:20:44.861";"NST_correctLoc";"4";"0";"FINISHED";"LEFT";"success";"356";"0";"2014-10-04 16:20:43.597";"1";;;;;;;;;;;;;;;;;;;;;;;;;;;;;;;;;;;;;;;;;;;;;;;;;;;;;;;;;
"949764MB";;;"Windows 7";"Rachel's Experiment (D.T.)";"1.0";"2";"1";"1";"2";"1";"1";"2014-10-04 16:18:57.003";"2014-10-04 16:32:22.493";"1";"0";"0";"19";"18";"module.training_block1.exec-6133.GoNoGo1";;;;;;;;;;;;;;;;;;;;;;;"1257";"2014-10-04 16:20:47.404";"NST_correctLoc";"20";"0";"FINISHED";"LEFT";"success";"414";"0";"2014-10-04 16:20:46.140";"3";;;;;;;;;;;;;;;;;;;;;;;;;;;;;;;;;;;;;;;;;;;;;;;;;;;;;;;;;
"949764MB";;;"Windows 7";"Rachel's Experiment (D.T.)";"1.0";"2";"1";"1";"2";"1";"1";"2014-10-04 16:18:57.003";"2014-10-04 16:32:22.493";"1";"0";"0";"20";"19";"module.training_block1.exec-6133.GoNoGo1";;;;;;;;;;;;;;;;;;;;;;;"1257";"2014-10-04 16:20:49.947";"NST_correctLoc";"24";"0";"FINISHED";"LEFT";"success";"399";"0";"2014-10-04 16:20:48.683";"3";;;;;;;;;;;;;;;;;;;;;;;;;;;;;;;;;;;;;;;;;;;;;;;;;;;;;;;;;
"949764MB";;;"Windows 7";"Rachel's Experiment (D.T.)";"1.0";"2";"1";"1";"2";"1";"1";"2014-10-04 16:18:57.003";"2014-10-04 16:32:22.493";"1";"0";"0";"21";"20";"module.training_block1.exec-6133.GoNoGo1";;;;;;;;;;;;;;;;;;;;;;;"1258";"2014-10-04 16:20:52.489";"NST_correctLoc";"3";"1";"FINISHED";"RIGHT";"success";"425";"0";"2014-10-04 16:20:51.226";"1";;;;;;;;;;;;;;;;;;;;;;;;;;;;;;;;;;;;;;;;;;;;;;;;;;;;;;;;;
"949764MB";;;"Windows 7";"Rachel's Experiment (D.T.)";"1.0";"2";"1";"1";"2";"1";"1";"2014-10-04 16:18:57.003";"2014-10-04 16:32:22.493";"1";"0";"0";"22";"21";"module.training_block1.exec-6133.GoNoGo1";;;;;;;;;;;;;;;;;;;;;;;"1257";"2014-10-04 16:20:55.032";"NST_correctLoc";"2";"1";"FINISHED";"RIGHT";"success";"409";"0";"2014-10-04 16:20:53.769";"1";;;;;;;;;;;;;;;;;;;;;;;;;;;;;;;;;;;;;;;;;;;;;;;;;;;;;;;;;
"949764MB";;;"Windows 7";"Rachel's Experiment (D.T.)";"1.0";"2";"1";"1";"2";"1";"1";"2014-10-04 16:18:57.003";"2014-10-04 16:32:22.493";"1";"0";"0";"23";"22";"module.training_block1.exec-6133.GoNoGo1";;;;;;;;;;;;;;;;;;;;;;;"1257";"2014-10-04 16:20:57.575";"NST_correctLoc";"29";"0";"FINISHED";"LEFT";"success";"395";"0";"2014-10-04 16:20:56.311";"3";;;;;;;;;;;;;;;;;;;;;;;;;;;;;;;;;;;;;;;;;;;;;;;;;;;;;;;;;
"949764MB";;;"Windows 7";"Rachel's Experiment (D.T.)";"1.0";"2";"1";"1";"2";"1";"1";"2014-10-04 16:18:57.003";"2014-10-04 16:32:22.493";"1";"0";"0";"24";"23";"module.training_block1.exec-6133.GoNoGo1";;;;;;;;;;;;;;;;;;;;;;;"1257";"2014-10-04 16:21:00.118";"NST_correctLoc";"30";"1";"FINISHED";"RIGHT";"success";"396";"0";"2014-10-04 16:20:58.854";"3";;;;;;;;;;;;;;;;;;;;;;;;;;;;;;;;;;;;;;;;;;;;;;;;;;;;;;;;;
"949764MB";;;"Windows 7";"Rachel's Experiment (D.T.)";"1.0";"2";"1";"1";"2";"1";"1";"2014-10-04 16:18:57.003";"2014-10-04 16:32:22.493";"1";"0";"0";"25";"24";"module.training_block1.exec-6133.GoNoGo1";;;;;;;;;;;;;;;;;;;;;;;"1257";"2014-10-04 16:21:02.661";"NST_correctLoc";"15";"1";"FINISHED";"RIGHT";"success";"404";"0";"2014-10-04 16:21:01.397";"2";;;;;;;;;;;;;;;;;;;;;;;;;;;;;;;;;;;;;;;;;;;;;;;;;;;;;;;;;
"949764MB";;;"Windows 7";"Rachel's Experiment (D.T.)";"1.0";"2";"1";"1";"2";"1";"1";"2014-10-04 16:18:57.003";"2014-10-04 16:32:22.493";"1";"0";"0";"26";"25";"module.training_block1.exec-6133.GoNoGo1";;;;;;;;;;;;;;;;;;;;;;;"1256";"2014-10-04 16:21:05.203";"NST_correctLoc";"23";"0";"FINISHED";"LEFT";"success";"381";"0";"2014-10-04 16:21:03.940";"3";;;;;;;;;;;;;;;;;;;;;;;;;;;;;;;;;;;;;;;;;;;;;;;;;;;;;;;;;
"949764MB";;;"Windows 7";"Rachel's Experiment (D.T.)";"1.0";"2";"1";"1";"2";"1";"1";"2014-10-04 16:18:57.003";"2014-10-04 16:32:22.493";"1";"0";"0";"27";"26";"module.training_block1.exec-6133.GoNoGo1";;;;;;;;;;;;;;;;;;;;;;;"1257";"2014-10-04 16:21:07.746";"NST_correctLoc";"26";"1";"FINISHED";"RIGHT";"success";"335";"0";"2014-10-04 16:21:06.483";"3";;;;;;;;;;;;;;;;;;;;;;;;;;;;;;;;;;;;;;;;;;;;;;;;;;;;;;;;;
"949764MB";;;"Windows 7";"Rachel's Experiment (D.T.)";"1.0";"2";"1";"1";"2";"1";"1";"2014-10-04 16:18:57.003";"2014-10-04 16:32:22.493";"1";"0";"0";"28";"27";"module.training_block1.exec-6133.GoNoGo1";;;;;;;;;;;;;;;;;;;;;;;"1256";"2014-10-04 16:21:10.289";"NST_correctLoc";"22";"0";"FINISHED";"LEFT";"success";"383";"0";"2014-10-04 16:21:09.025";"3";;;;;;;;;;;;;;;;;;;;;;;;;;;;;;;;;;;;;;;;;;;;;;;;;;;;;;;;;
"949764MB";;;"Windows 7";"Rachel's Experiment (D.T.)";"1.0";"2";"1";"1";"2";"1";"1";"2014-10-04 16:18:57.003";"2014-10-04 16:32:22.493";"1";"0";"0";"29";"28";"module.training_block1.exec-6133.GoNoGo1";;;;;;;;;;;;;;;;;;;;;;;"1256";"2014-10-04 16:21:12.832";"NST_correctLoc";"32";"1";"FINISHED";"RIGHT";"success";"366";"0";"2014-10-04 16:21:11.568";"3";;;;;;;;;;;;;;;;;;;;;;;;;;;;;;;;;;;;;;;;;;;;;;;;;;;;;;;;;
"949764MB";;;"Windows 7";"Rachel's Experiment (D.T.)";"1.0";"2";"1";"1";"2";"1";"1";"2014-10-04 16:18:57.003";"2014-10-04 16:32:22.493";"1";"0";"0";"30";"29";"module.training_block1.exec-6133.GoNoGo1";;;;;;;;;;;;;;;;;;;;;;;"1257";"2014-10-04 16:21:15.375";"NST_correctLoc";"28";"1";"FINISHED";"RIGHT";"success";"395";"0";"2014-10-04 16:21:14.111";"3";;;;;;;;;;;;;;;;;;;;;;;;;;;;;;;;;;;;;;;;;;;;;;;;;;;;;;;;;
"949764MB";;;"Windows 7";"Rachel's Experiment (D.T.)";"1.0";"2";"1";"1";"2";"1";"1";"2014-10-04 16:18:57.003";"2014-10-04 16:32:22.493";"1";"0";"0";"31";"30";"module.training_block1.exec-6133.GoNoGo1";;;;;;;;;;;;;;;;;;;;;;;"1257";"2014-10-04 16:21:17.917";"NST_correctLoc";"16";"0";"FINISHED";"LEFT";"success";"404";"0";"2014-10-04 16:21:16.654";"2";;;;;;;;;;;;;;;;;;;;;;;;;;;;;;;;;;;;;;;;;;;;;;;;;;;;;;;;;
"949764MB";;;"Windows 7";"Rachel's Experiment (D.T.)";"1.0";"2";"1";"1";"2";"1";"1";"2014-10-04 16:18:57.003";"2014-10-04 16:32:22.493";"1";"0";"0";"32";"31";"module.training_block1.exec-6133.GoNoGo1";;;;;;;;;;;;;;;;;;;;;;;"1258";"2014-10-04 16:21:20.460";"NST_correctLoc";"18";"1";"FINISHED";"RIGHT";"success";"317";"0";"2014-10-04 16:21:19.197";"3";;;;;;;;;;;;;;;;;;;;;;;;;;;;;;;;;;;;;;;;;;;;;;;;;;;;;;;;;
"949764MB";;;"Windows 7";"Rachel's Experiment (D.T.)";"1.0";"2";"1";"1";"2";"1";"1";"2014-10-04 16:18:57.003";"2014-10-04 16:32:22.493";"1";"0";"0";"33";"32";"module.training_block1.exec-6133.GoNoGo1";;;;;;;;;;;;;;;;;;;;;;;"1257";"2014-10-04 16:21:23.003";"NST_correctLoc";"6";"1";"FINISHED";"RIGHT";"success";"462";"0";"2014-10-04 16:21:21.739";"1";;;;;;;;;;;;;;;;;;;;;;;;;;;;;;;;;;;;;;;;;;;;;;;;;;;;;;;;;
"949764MB";;;"Windows 7";"Rachel's Experiment (D.T.)";"1.0";"2";"1";"1";"2";"1";"1";"2014-10-04 16:18:57.003";"2014-10-04 16:32:22.493";"1";"0";"0";"34";"33";"module.training_block1.exec-6133.GoNoGo1";;;;;;;;;;;;;;;;;;;;;;;"1258";"2014-10-04 16:21:25.546";"NST_correctLoc";"35";"0";"FINISHED";"LEFT";"success";"424";"0";"2014-10-04 16:21:24.282";"3";;;;;;;;;;;;;;;;;;;;;;;;;;;;;;;;;;;;;;;;;;;;;;;;;;;;;;;;;
"949764MB";;;"Windows 7";"Rachel's Experiment (D.T.)";"1.0";"2";"1";"1";"2";"1";"1";"2014-10-04 16:18:57.003";"2014-10-04 16:32:22.493";"1";"0";"0";"35";"34";"module.training_block1.exec-6133.GoNoGo1";;;;;;;;;;;;;;;;;;;;;;;"1257";"2014-10-04 16:21:28.089";"NST_correctLoc";"13";"1";"FINISHED";"RIGHT";"success";"568";"0";"2014-10-04 16:21:26.825";"2";;;;;;;;;;;;;;;;;;;;;;;;;;;;;;;;;;;;;;;;;;;;;;;;;;;;;;;;;
"949764MB";;;"Windows 7";"Rachel's Experiment (D.T.)";"1.0";"2";"1";"1";"2";"1";"1";"2014-10-04 16:18:57.003";"2014-10-04 16:32:22.493";"1";"0";"0";"36";"35";"module.training_block1.exec-6133.GoNoGo1";;;;;;;;;;;;;;;;;;;;;;;"1257";"2014-10-04 16:21:30.631";"NST_correctLoc";"31";"0";"FINISHED";"LEFT";"success";"377";"0";"2014-10-04 16:21:29.368";"3";;;;;;;;;;;;;;;;;;;;;;;;;;;;;;;;;;;;;;;;;;;;;;;;;;;;;;;;;
"949764MB";;;"Windows 7";"Rachel's Experiment (D.T.)";"1.0";"2";"1";"1";"2";"1";"1";"2014-10-04 16:18:57.003";"2014-10-04 16:32:22.493";"1";"0";"0";"37";"36";"module.training_block1.exec-6133.GoNoGo1";;;;;;;;;;;;;;;;;;;;;;;"1257";"2014-10-04 16:21:33.174";"NST_correctLoc";"1";"1";"FINISHED";"RIGHT";"success";"387";"0";"2014-10-04 16:21:31.911";"1";;;;;;;;;;;;;;;;;;;;;;;;;;;;;;;;;;;;;;;;;;;;;;;;;;;;;;;;;
"949764MB";;;"Windows 7";"Rachel's Experiment (D.T.)";"1.0";"2";"1";"1";"2";"1";"1";"2014-10-04 16:18:57.003";"2014-10-04 16:32:22.493";"1";"0";"0";"38";"37";"module.training_block1.exec-6133.GoNoGo1";;;;;;;;;;;;;;;;;;;;;;;"1256";"2014-10-04 16:21:35.717";"NST_correctLoc";"7";"1";"FINISHED";"RIGHT";"success";"371";"0";"2014-10-04 16:21:34.453";"1";;;;;;;;;;;;;;;;;;;;;;;;;;;;;;;;;;;;;;;;;;;;;;;;;;;;;;;;;
"949764MB";;;"Windows 7";"Rachel's Experiment (D.T.)";"1.0";"2";"1";"1";"2";"1";"1";"2014-10-04 16:18:57.003";"2014-10-04 16:32:22.493";"1";"0";"0";"39";"38";"module.training_block1.exec-6133.GoNoGo1";;;;;;;;;;;;;;;;;;;;;;;"1258";"2014-10-04 16:21:38.260";"NST_correctLoc";"25";"0";"FINISHED";"LEFT";"success";"349";"0";"2014-10-04 16:21:36.996";"3";;;;;;;;;;;;;;;;;;;;;;;;;;;;;;;;;;;;;;;;;;;;;;;;;;;;;;;;;
"949764MB";;;"Windows 7";"Rachel's Experiment (D.T.)";"1.0";"2";"1";"1";"2";"1";"1";"2014-10-04 16:18:57.003";"2014-10-04 16:32:22.493";"1";"0";"0";"40";"39";"module.training_block1.exec-6133.GoNoGo1";;;;;;;;;;;;;;;;;;;;;;;"1257";"2014-10-04 16:21:40.803";"NST_correctLoc";"11";"1";"FINISHED";"RIGHT";"success";"278";"0";"2014-10-04 16:21:39.539";"2";;;;;;;;;;;;;;;;;;;;;;;;;;;;;;;;;;;;;;;;;;;;;;;;;;;;;;;;;
"949764MB";;;"Windows 7";"Rachel's Experiment (D.T.)";"1.0";"2";"1";"1";"2";"1";"1";"2014-10-04 16:18:57.003";"2014-10-04 16:32:22.493";"1";"0";"0";"41";"40";"module.training_block1.exec-6133.GoNoGo1";;;;;;;;;;;;;;;;;;;;;;;"1257";"2014-10-04 16:21:43.345";"NST_correctLoc";"14";"0";"FINISHED";"LEFT";"success";"415";"0";"2014-10-04 16:21:42.082";"2";;;;;;;;;;;;;;;;;;;;;;;;;;;;;;;;;;;;;;;;;;;;;;;;;;;;;;;;;
"949764MB";;;"Windows 7";"Rachel's Experiment (D.T.)";"1.0";"2";"1";"1";"2";"1";"1";"2014-10-04 16:18:57.003";"2014-10-04 16:32:22.493";"1";"0";"0";"42";"41";"module.training_block1.exec-6133.GoNoGo1";;;;;;;;;;;;;;;;;;;;;;;"1256";"2014-10-04 16:21:45.888";"NST_correctLoc";"21";"1";"FINISHED";"RIGHT";"success";"368";"0";"2014-10-04 16:21:44.625";"3";;;;;;;;;;;;;;;;;;;;;;;;;;;;;;;;;;;;;;;;;;;;;;;;;;;;;;;;;
"949764MB";;;"Windows 7";"Rachel's Experiment (D.T.)";"1.0";"2";"1";"1";"2";"1";"1";"2014-10-04 16:18:57.003";"2014-10-04 16:32:22.493";"1";"0";"0";"43";"42";"module.training_block1.exec-6133.GoNoGo1";;;;;;;;;;;;;;;;;;;;;;;"1257";"2014-10-04 16:21:48.431";"NST_correctLoc";"17";"1";"FINISHED";"RIGHT";"success";"506";"0";"2014-10-04 16:21:47.167";"2";;;;;;;;;;;;;;;;;;;;;;;;;;;;;;;;;;;;;;;;;;;;;;;;;;;;;;;;;
"949764MB";;;"Windows 7";"Rachel's Experiment (D.T.)";"1.0";"2";"1";"1";"2";"1";"1";"2014-10-04 16:18:57.003";"2014-10-04 16:32:22.493";"1";"0";"0";"44";"43";"module.training_block1.exec-6133.GoNoGo1";;;;;;;;;;;;;;;;;;;;;;;"1252";"2014-10-04 16:21:50.974";"NST_correctLoc";"5";"0";"FINISHED";"LEFT";"success";"358";"0";"2014-10-04 16:21:49.710";"1";;;;;;;;;;;;;;;;;;;;;;;;;;;;;;;;;;;;;;;;;;;;;;;;;;;;;;;;;
"949764MB";;;"Windows 7";"Rachel's Experiment (D.T.)";"1.0";"2";"1";"1";"2";"1";"1";"2014-10-04 16:18:57.003";"2014-10-04 16:32:22.493";"1";"0";"0";"45";"44";"module.training_block1.exec-6133.GoNoGo1";;;;;;;;;;;;;;;;;;;;;;;"1257";"2014-10-04 16:21:53.532";"NST_correctLoc";"0";"0";"FINISHED";"LEFT";"success";"461";"0";"2014-10-04 16:21:52.269";"1";;;;;;;;;;;;;;;;;;;;;;;;;;;;;;;;;;;;;;;;;;;;;;;;;;;;;;;;;
"949764MB";;;"Windows 7";"Rachel's Experiment (D.T.)";"1.0";"2";"1";"1";"2";"1";"1";"2014-10-04 16:18:57.003";"2014-10-04 16:32:22.493";"1";"0";"0";"46";"45";"module.training_block1.exec-6133.GoNoGo1";;;;;;;;;;;;;;;;;;;;;;;"1258";"2014-10-04 16:21:56.075";"NST_correctLoc";"34";"0";"FINISHED";"LEFT";"success";"430";"0";"2014-10-04 16:21:54.811";"3";;;;;;;;;;;;;;;;;;;;;;;;;;;;;;;;;;;;;;;;;;;;;;;;;;;;;;;;;
"949764MB";;;"Windows 7";"Rachel's Experiment (D.T.)";"1.0";"2";"1";"1";"2";"1";"1";"2014-10-04 16:18:57.003";"2014-10-04 16:32:22.493";"1";"0";"0";"47";"46";"module.training_block1.exec-6133.GoNoGo1";;;;;;;;;;;;;;;;;;;;;;;"1258";"2014-10-04 16:21:58.618";"NST_correctLoc";"12";"0";"FINISHED";"LEFT";"success";"479";"0";"2014-10-04 16:21:57.354";"2";;;;;;;;;;;;;;;;;;;;;;;;;;;;;;;;;;;;;;;;;;;;;;;;;;;;;;;;;
"949764MB";;;"Windows 7";"Rachel's Experiment (D.T.)";"1.0";"2";"1";"1";"2";"1";"1";"2014-10-04 16:18:57.003";"2014-10-04 16:32:22.493";"1";"0";"0";"48";"47";"module.training_block1.exec-6133.GoNoGo1";;;;;;;;;;;;;;;;;;;;;;;"1257";"2014-10-04 16:22:01.161";"NST_correctLoc";"9";"0";"FINISHED";"LEFT";"success";"408";"0";"2014-10-04 16:21:59.897";"2";;;;;;;;;;;;;;;;;;;;;;;;;;;;;;;;;;;;;;;;;;;;;;;;;;;;;;;;;
"949764MB";;;"Windows 7";"Rachel's Experiment (D.T.)";"1.0";"2";"1";"1";"2";"1";"1";"2014-10-04 16:18:57.003";"2014-10-04 16:32:22.493";"1";"0";"0";"49";"48";"module.training_block1.exec-6133.GoNoGo1";;;;;;;;;;;;;;;;;;;;;;;"1257";"2014-10-04 16:22:03.703";"NST_correctLoc";"27";"0";"FINISHED";"LEFT";"success";"353";"0";"2014-10-04 16:22:02.440";"3";;;;;;;;;;;;;;;;;;;;;;;;;;;;;;;;;;;;;;;;;;;;;;;;;;;;;;;;;
"949764MB";;;"Windows 7";"Rachel's Experiment (D.T.)";"1.0";"2";"1";"1";"2";"1";"1";"2014-10-04 16:18:57.003";"2014-10-04 16:32:22.493";"1";"0";"0";"50";"49";"module.training_block1.exec-6133.GoNoGo1";;;;;;;;;;;;;;;;;;;;;;;"1256";"2014-10-04 16:22:06.246";"NST_correctLoc";"8";"1";"FINISHED";"RIGHT";"success";"506";"0";"2014-10-04 16:22:04.983";"1";;;;;;;;;;;;;;;;;;;;;;;;;;;;;;;;;;;;;;;;;;;;;;;;;;;;;;;;;
"949764MB";;;"Windows 7";"Rachel's Experiment (D.T.)";"1.0";"2";"1";"1";"2";"1";"1";"2014-10-04 16:18:57.003";"2014-10-04 16:32:22.493";"1";"0";"0";"51";"50";"module.training_block1.exec-6133.GoNoGo1";;;;;;;;;;;;;;;;;;;;;;;"1257";"2014-10-04 16:22:08.789";"NST_correctLoc";"10";"0";"FINISHED";"LEFT";"success";"428";"0";"2014-10-04 16:22:07.525";"2";;;;;;;;;;;;;;;;;;;;;;;;;;;;;;;;;;;;;;;;;;;;;;;;;;;;;;;;;
"949764MB";;;"Windows 7";"Rachel's Experiment (D.T.)";"1.0";"2";"1";"1";"2";"1";"1";"2014-10-04 16:18:57.003";"2014-10-04 16:32:22.493";"1";"0";"0";"52";"51";"module.training_block2.exec-3385.GoNoGo2";;;;;;;;;;;;;;;;;;;;;;;;;;;;;;;;;;;"1261";"2014-10-04 16:22:24.015";"NST_correctLoc";"21";"1";"FINISHED";"RIGHT";"success";"454";"0";"2014-10-04 16:22:22.751";"3";;;;;;;;;;;;;;;;;;;;;;;;;;;;;;;;;;;;;;;;;;;;;
"949764MB";;;"Windows 7";"Rachel's Experiment (D.T.)";"1.0";"2";"1";"1";"2";"1";"1";"2014-10-04 16:18:57.003";"2014-10-04 16:32:22.493";"1";"0";"0";"53";"52";"module.training_block2.exec-3385.GoNoGo2";;;;;;;;;;;;;;;;;;;;;;;;;;;;;;;;;;;"1261";"2014-10-04 16:22:26.557";"NST_correctLoc";"31";"1";"FINISHED";"RIGHT";"success";"455";"0";"2014-10-04 16:22:25.294";"3";;;;;;;;;;;;;;;;;;;;;;;;;;;;;;;;;;;;;;;;;;;;;
"949764MB";;;"Windows 7";"Rachel's Experiment (D.T.)";"1.0";"2";"1";"1";"2";"1";"1";"2014-10-04 16:18:57.003";"2014-10-04 16:32:22.493";"1";"0";"0";"54";"53";"module.training_block2.exec-3385.GoNoGo2";;;;;;;;;;;;;;;;;;;;;;;;;;;;;;;;;;;"1261";"2014-10-04 16:22:29.100";"NST_correctLoc";"23";"1";"FINISHED";"RIGHT";"success";"400";"0";"2014-10-04 16:22:27.837";"3";;;;;;;;;;;;;;;;;;;;;;;;;;;;;;;;;;;;;;;;;;;;;
"949764MB";;;"Windows 7";"Rachel's Experiment (D.T.)";"1.0";"2";"1";"1";"2";"1";"1";"2014-10-04 16:18:57.003";"2014-10-04 16:32:22.493";"1";"0";"0";"55";"54";"module.training_block2.exec-3385.GoNoGo2";;;;;;;;;;;;;;;;;;;;;;;;;;;;;;;;;;;"1261";"2014-10-04 16:22:31.643";"NST_correctLoc";"16";"1";"FINISHED";"RIGHT";"success";"378";"0";"2014-10-04 16:22:30.379";"2";;;;;;;;;;;;;;;;;;;;;;;;;;;;;;;;;;;;;;;;;;;;;
"949764MB";;;"Windows 7";"Rachel's Experiment (D.T.)";"1.0";"2";"1";"1";"2";"1";"1";"2014-10-04 16:18:57.003";"2014-10-04 16:32:22.493";"1";"0";"0";"56";"55";"module.training_block2.exec-3385.GoNoGo2";;;;;;;;;;;;;;;;;;;;;;;;;;;;;;;;;;;"1261";"2014-10-04 16:22:34.186";"NST_correctLoc";"19";"1";"FINISHED";"RIGHT";"success";"371";"0";"2014-10-04 16:22:32.922";"3";;;;;;;;;;;;;;;;;;;;;;;;;;;;;;;;;;;;;;;;;;;;;
"949764MB";;;"Windows 7";"Rachel's Experiment (D.T.)";"1.0";"2";"1";"1";"2";"1";"1";"2014-10-04 16:18:57.003";"2014-10-04 16:32:22.493";"1";"0";"0";"57";"56";"module.training_block2.exec-3385.GoNoGo2";;;;;;;;;;;;;;;;;;;;;;;;;;;;;;;;;;;"1261";"2014-10-04 16:22:36.729";"NST_correctLoc";"12";"0";"FINISHED";"LEFT";"success";"428";"0";"2014-10-04 16:22:35.465";"2";;;;;;;;;;;;;;;;;;;;;;;;;;;;;;;;;;;;;;;;;;;;;
"949764MB";;;"Windows 7";"Rachel's Experiment (D.T.)";"1.0";"2";"1";"1";"2";"1";"1";"2014-10-04 16:18:57.003";"2014-10-04 16:32:22.493";"1";"0";"0";"58";"57";"module.training_block2.exec-3385.GoNoGo2";;;;;;;;;;;;;;;;;;;;;;;;;;;;;;;;;;;"1261";"2014-10-04 16:22:39.271";"NST_wrongLoc";"20";"0";"FINISHED";"RIGHT";"failure";"293";"0";"2014-10-04 16:22:38.008";"3";;;;;;;;;;;;;;;;;;;;;;;;;;;;;;;;;;;;;;;;;;;;;
"949764MB";;;"Windows 7";"Rachel's Experiment (D.T.)";"1.0";"2";"1";"1";"2";"1";"1";"2014-10-04 16:18:57.003";"2014-10-04 16:32:22.493";"1";"0";"0";"59";"58";"module.training_block2.exec-3385.GoNoGo2";;;;;;;;;;;;;;;;;;;;;;;;;;;;;;;;;;;"1261";"2014-10-04 16:22:41.814";"NST_correctLoc";"35";"0";"FINISHED";"LEFT";"success";"494";"0";"2014-10-04 16:22:40.551";"3";;;;;;;;;;;;;;;;;;;;;;;;;;;;;;;;;;;;;;;;;;;;;
"949764MB";;;"Windows 7";"Rachel's Experiment (D.T.)";"1.0";"2";"1";"1";"2";"1";"1";"2014-10-04 16:18:57.003";"2014-10-04 16:32:22.493";"1";"0";"0";"60";"59";"module.training_block2.exec-3385.GoNoGo2";;;;;;;;;;;;;;;;;;;;;;;;;;;;;;;;;;;"1261";"2014-10-04 16:22:44.357";"NST_correctLoc";"4";"0";"FINISHED";"LEFT";"success";"407";"0";"2014-10-04 16:22:43.093";"1";;;;;;;;;;;;;;;;;;;;;;;;;;;;;;;;;;;;;;;;;;;;;
"949764MB";;;"Windows 7";"Rachel's Experiment (D.T.)";"1.0";"2";"1";"1";"2";"1";"1";"2014-10-04 16:18:57.003";"2014-10-04 16:32:22.493";"1";"0";"0";"61";"60";"module.training_block2.exec-3385.GoNoGo2";;;;;;;;;;;;;;;;;;;;;;;;;;;;;;;;;;;"1261";"2014-10-04 16:22:46.900";"NST_correctLoc";"15";"0";"FINISHED";"LEFT";"success";"465";"0";"2014-10-04 16:22:45.636";"2";;;;;;;;;;;;;;;;;;;;;;;;;;;;;;;;;;;;;;;;;;;;;
"949764MB";;;"Windows 7";"Rachel's Experiment (D.T.)";"1.0";"2";"1";"1";"2";"1";"1";"2014-10-04 16:18:57.003";"2014-10-04 16:32:22.493";"1";"0";"0";"62";"61";"module.training_block2.exec-3385.GoNoGo2";;;;;;;;;;;;;;;;;;;;;;;;;;;;;;;;;;;"1261";"2014-10-04 16:22:49.443";"NST_correctLoc";"13";"1";"FINISHED";"RIGHT";"success";"402";"0";"2014-10-04 16:22:48.179";"2";;;;;;;;;;;;;;;;;;;;;;;;;;;;;;;;;;;;;;;;;;;;;
"949764MB";;;"Windows 7";"Rachel's Experiment (D.T.)";"1.0";"2";"1";"1";"2";"1";"1";"2014-10-04 16:18:57.003";"2014-10-04 16:32:22.493";"1";"0";"0";"63";"62";"module.training_block2.exec-3385.GoNoGo2";;;;;;;;;;;;;;;;;;;;;;;;;;;;;;;;;;;"1261";"2014-10-04 16:22:51.985";"NST_correctLoc";"7";"1";"FINISHED";"RIGHT";"success";"355";"0";"2014-10-04 16:22:50.722";"1";;;;;;;;;;;;;;;;;;;;;;;;;;;;;;;;;;;;;;;;;;;;;
"949764MB";;;"Windows 7";"Rachel's Experiment (D.T.)";"1.0";"2";"1";"1";"2";"1";"1";"2014-10-04 16:18:57.003";"2014-10-04 16:32:22.493";"1";"0";"0";"64";"63";"module.training_block2.exec-3385.GoNoGo2";;;;;;;;;;;;;;;;;;;;;;;;;;;;;;;;;;;"1261";"2014-10-04 16:22:54.528";"NST_correctLoc";"27";"1";"FINISHED";"RIGHT";"success";"388";"0";"2014-10-04 16:22:53.265";"3";;;;;;;;;;;;;;;;;;;;;;;;;;;;;;;;;;;;;;;;;;;;;
"949764MB";;;"Windows 7";"Rachel's Experiment (D.T.)";"1.0";"2";"1";"1";"2";"1";"1";"2014-10-04 16:18:57.003";"2014-10-04 16:32:22.493";"1";"0";"0";"65";"64";"module.training_block2.exec-3385.GoNoGo2";;;;;;;;;;;;;;;;;;;;;;;;;;;;;;;;;;;"1261";"2014-10-04 16:22:57.071";"NST_correctLoc";"33";"0";"FINISHED";"LEFT";"success";"357";"0";"2014-10-04 16:22:55.807";"3";;;;;;;;;;;;;;;;;;;;;;;;;;;;;;;;;;;;;;;;;;;;;
"949764MB";;;"Windows 7";"Rachel's Experiment (D.T.)";"1.0";"2";"1";"1";"2";"1";"1";"2014-10-04 16:18:57.003";"2014-10-04 16:32:22.493";"1";"0";"0";"66";"65";"module.training_block2.exec-3385.GoNoGo2";;;;;;;;;;;;;;;;;;;;;;;;;;;;;;;;;;;"1261";"2014-10-04 16:22:59.614";"NST_correctLoc";"9";"1";"FINISHED";"RIGHT";"success";"447";"0";"2014-10-04 16:22:58.350";"2";;;;;;;;;;;;;;;;;;;;;;;;;;;;;;;;;;;;;;;;;;;;;
"949764MB";;;"Windows 7";"Rachel's Experiment (D.T.)";"1.0";"2";"1";"1";"2";"1";"1";"2014-10-04 16:18:57.003";"2014-10-04 16:32:22.493";"1";"0";"0";"67";"66";"module.training_block2.exec-3385.GoNoGo2";;;;;;;;;;;;;;;;;;;;;;;;;;;;;;;;;;;"1261";"2014-10-04 16:23:02.157";"NST_correctLoc";"17";"1";"FINISHED";"RIGHT";"success";"584";"0";"2014-10-04 16:23:00.893";"2";;;;;;;;;;;;;;;;;;;;;;;;;;;;;;;;;;;;;;;;;;;;;
"949764MB";;;"Windows 7";"Rachel's Experiment (D.T.)";"1.0";"2";"1";"1";"2";"1";"1";"2014-10-04 16:18:57.003";"2014-10-04 16:32:22.493";"1";"0";"0";"68";"67";"module.training_block2.exec-3385.GoNoGo2";;;;;;;;;;;;;;;;;;;;;;;;;;;;;;;;;;;"1261";"2014-10-04 16:23:04.699";"NST_correctLoc";"24";"1";"FINISHED";"RIGHT";"success";"505";"0";"2014-10-04 16:23:03.436";"3";;;;;;;;;;;;;;;;;;;;;;;;;;;;;;;;;;;;;;;;;;;;;
"949764MB";;;"Windows 7";"Rachel's Experiment (D.T.)";"1.0";"2";"1";"1";"2";"1";"1";"2014-10-04 16:18:57.003";"2014-10-04 16:32:22.493";"1";"0";"0";"69";"68";"module.training_block2.exec-3385.GoNoGo2";;;;;;;;;;;;;;;;;;;;;;;;;;;;;;;;;;;"1261";"2014-10-04 16:23:07.242";"NST_correctLoc";"3";"0";"FINISHED";"LEFT";"success";"570";"0";"2014-10-04 16:23:05.979";"1";;;;;;;;;;;;;;;;;;;;;;;;;;;;;;;;;;;;;;;;;;;;;
"949764MB";;;"Windows 7";"Rachel's Experiment (D.T.)";"1.0";"2";"1";"1";"2";"1";"1";"2014-10-04 16:18:57.003";"2014-10-04 16:32:22.493";"1";"0";"0";"70";"69";"module.training_block2.exec-3385.GoNoGo2";;;;;;;;;;;;;;;;;;;;;;;;;;;;;;;;;;;"1261";"2014-10-04 16:23:09.785";"NST_correctLoc";"11";"1";"FINISHED";"RIGHT";"success";"427";"0";"2014-10-04 16:23:08.521";"2";;;;;;;;;;;;;;;;;;;;;;;;;;;;;;;;;;;;;;;;;;;;;
"949764MB";;;"Windows 7";"Rachel's Experiment (D.T.)";"1.0";"2";"1";"1";"2";"1";"1";"2014-10-04 16:18:57.003";"2014-10-04 16:32:22.493";"1";"0";"0";"71";"70";"module.training_block2.exec-3385.GoNoGo2";;;;;;;;;;;;;;;;;;;;;;;;;;;;;;;;;;;"1261";"2014-10-04 16:23:12.328";"NST_correctLoc";"34";"1";"FINISHED";"RIGHT";"success";"364";"0";"2014-10-04 16:23:11.064";"3";;;;;;;;;;;;;;;;;;;;;;;;;;;;;;;;;;;;;;;;;;;;;
"949764MB";;;"Windows 7";"Rachel's Experiment (D.T.)";"1.0";"2";"1";"1";"2";"1";"1";"2014-10-04 16:18:57.003";"2014-10-04 16:32:22.493";"1";"0";"0";"72";"71";"module.training_block2.exec-3385.GoNoGo2";;;;;;;;;;;;;;;;;;;;;;;;;;;;;;;;;;;"1261";"2014-10-04 16:23:14.871";"NST_correctLoc";"1";"1";"FINISHED";"RIGHT";"success";"414";"0";"2014-10-04 16:23:13.607";"1";;;;;;;;;;;;;;;;;;;;;;;;;;;;;;;;;;;;;;;;;;;;;
"949764MB";;;"Windows 7";"Rachel's Experiment (D.T.)";"1.0";"2";"1";"1";"2";"1";"1";"2014-10-04 16:18:57.003";"2014-10-04 16:32:22.493";"1";"0";"0";"73";"72";"module.training_block2.exec-3385.GoNoGo2";;;;;;;;;;;;;;;;;;;;;;;;;;;;;;;;;;;"1261";"2014-10-04 16:23:17.413";"NST_correctLoc";"32";"0";"FINISHED";"LEFT";"success";"487";"0";"2014-10-04 16:23:16.150";"3";;;;;;;;;;;;;;;;;;;;;;;;;;;;;;;;;;;;;;;;;;;;;
"949764MB";;;"Windows 7";"Rachel's Experiment (D.T.)";"1.0";"2";"1";"1";"2";"1";"1";"2014-10-04 16:18:57.003";"2014-10-04 16:32:22.493";"1";"0";"0";"74";"73";"module.training_block2.exec-3385.GoNoGo2";;;;;;;;;;;;;;;;;;;;;;;;;;;;;;;;;;;"1261";"2014-10-04 16:23:19.956";"NST_correctLoc";"18";"1";"FINISHED";"RIGHT";"success";"464";"0";"2014-10-04 16:23:18.693";"3";;;;;;;;;;;;;;;;;;;;;;;;;;;;;;;;;;;;;;;;;;;;;
"949764MB";;;"Windows 7";"Rachel's Experiment (D.T.)";"1.0";"2";"1";"1";"2";"1";"1";"2014-10-04 16:18:57.003";"2014-10-04 16:32:22.493";"1";"0";"0";"75";"74";"module.training_block2.exec-3385.GoNoGo2";;;;;;;;;;;;;;;;;;;;;;;;;;;;;;;;;;;"1261";"2014-10-04 16:23:22.499";"NST_correctLoc";"25";"0";"FINISHED";"LEFT";"success";"457";"0";"2014-10-04 16:23:21.235";"3";;;;;;;;;;;;;;;;;;;;;;;;;;;;;;;;;;;;;;;;;;;;;
"949764MB";;;"Windows 7";"Rachel's Experiment (D.T.)";"1.0";"2";"1";"1";"2";"1";"1";"2014-10-04 16:18:57.003";"2014-10-04 16:32:22.493";"1";"0";"0";"76";"75";"module.training_block2.exec-3385.GoNoGo2";;;;;;;;;;;;;;;;;;;;;;;;;;;;;;;;;;;"1261";"2014-10-04 16:23:25.042";"NST_correctLoc";"8";"0";"FINISHED";"LEFT";"success";"434";"0";"2014-10-04 16:23:23.778";"1";;;;;;;;;;;;;;;;;;;;;;;;;;;;;;;;;;;;;;;;;;;;;
"949764MB";;;"Windows 7";"Rachel's Experiment (D.T.)";"1.0";"2";"1";"1";"2";"1";"1";"2014-10-04 16:18:57.003";"2014-10-04 16:32:22.493";"1";"0";"0";"77";"76";"module.training_block2.exec-3385.GoNoGo2";;;;;;;;;;;;;;;;;;;;;;;;;;;;;;;;;;;"1261";"2014-10-04 16:23:27.585";"NST_correctLoc";"5";"0";"FINISHED";"LEFT";"success";"371";"0";"2014-10-04 16:23:26.321";"1";;;;;;;;;;;;;;;;;;;;;;;;;;;;;;;;;;;;;;;;;;;;;
"949764MB";;;"Windows 7";"Rachel's Experiment (D.T.)";"1.0";"2";"1";"1";"2";"1";"1";"2014-10-04 16:18:57.003";"2014-10-04 16:32:22.493";"1";"0";"0";"78";"77";"module.training_block2.exec-3385.GoNoGo2";;;;;;;;;;;;;;;;;;;;;;;;;;;;;;;;;;;"1261";"2014-10-04 16:23:30.127";"NST_correctLoc";"29";"1";"FINISHED";"RIGHT";"success";"429";"0";"2014-10-04 16:23:28.864";"3";;;;;;;;;;;;;;;;;;;;;;;;;;;;;;;;;;;;;;;;;;;;;
"949764MB";;;"Windows 7";"Rachel's Experiment (D.T.)";"1.0";"2";"1";"1";"2";"1";"1";"2014-10-04 16:18:57.003";"2014-10-04 16:32:22.493";"1";"0";"0";"79";"78";"module.training_block2.exec-3385.GoNoGo2";;;;;;;;;;;;;;;;;;;;;;;;;;;;;;;;;;;"1261";"2014-10-04 16:23:32.670";"NST_correctLoc";"0";"1";"FINISHED";"RIGHT";"success";"518";"0";"2014-10-04 16:23:31.407";"1";;;;;;;;;;;;;;;;;;;;;;;;;;;;;;;;;;;;;;;;;;;;;
"949764MB";;;"Windows 7";"Rachel's Experiment (D.T.)";"1.0";"2";"1";"1";"2";"1";"1";"2014-10-04 16:18:57.003";"2014-10-04 16:32:22.493";"1";"0";"0";"80";"79";"module.training_block2.exec-3385.GoNoGo2";;;;;;;;;;;;;;;;;;;;;;;;;;;;;;;;;;;"1261";"2014-10-04 16:23:35.213";"NST_correctLoc";"28";"0";"FINISHED";"LEFT";"success";"471";"0";"2014-10-04 16:23:33.949";"3";;;;;;;;;;;;;;;;;;;;;;;;;;;;;;;;;;;;;;;;;;;;;
"949764MB";;;"Windows 7";"Rachel's Experiment (D.T.)";"1.0";"2";"1";"1";"2";"1";"1";"2014-10-04 16:18:57.003";"2014-10-04 16:32:22.493";"1";"0";"0";"81";"80";"module.training_block2.exec-3385.GoNoGo2";;;;;;;;;;;;;;;;;;;;;;;;;;;;;;;;;;;"1261";"2014-10-04 16:23:37.756";"NST_correctLoc";"14";"1";"FINISHED";"RIGHT";"success";"528";"0";"2014-10-04 16:23:36.492";"2";;;;;;;;;;;;;;;;;;;;;;;;;;;;;;;;;;;;;;;;;;;;;
"949764MB";;;"Windows 7";"Rachel's Experiment (D.T.)";"1.0";"2";"1";"1";"2";"1";"1";"2014-10-04 16:18:57.003";"2014-10-04 16:32:22.493";"1";"0";"0";"82";"81";"module.training_block2.exec-3385.GoNoGo2";;;;;;;;;;;;;;;;;;;;;;;;;;;;;;;;;;;"1261";"2014-10-04 16:23:40.299";"NST_correctLoc";"6";"0";"FINISHED";"LEFT";"success";"569";"0";"2014-10-04 16:23:39.035";"1";;;;;;;;;;;;;;;;;;;;;;;;;;;;;;;;;;;;;;;;;;;;;
"949764MB";;;"Windows 7";"Rachel's Experiment (D.T.)";"1.0";"2";"1";"1";"2";"1";"1";"2014-10-04 16:18:57.003";"2014-10-04 16:32:22.493";"1";"0";"0";"83";"82";"module.training_block2.exec-3385.GoNoGo2";;;;;;;;;;;;;;;;;;;;;;;;;;;;;;;;;;;"1261";"2014-10-04 16:23:42.841";"NST_correctLoc";"10";"0";"FINISHED";"LEFT";"success";"594";"0";"2014-10-04 16:23:41.578";"2";;;;;;;;;;;;;;;;;;;;;;;;;;;;;;;;;;;;;;;;;;;;;
"949764MB";;;"Windows 7";"Rachel's Experiment (D.T.)";"1.0";"2";"1";"1";"2";"1";"1";"2014-10-04 16:18:57.003";"2014-10-04 16:32:22.493";"1";"0";"0";"84";"83";"module.training_block2.exec-3385.GoNoGo2";;;;;;;;;;;;;;;;;;;;;;;;;;;;;;;;;;;"1261";"2014-10-04 16:23:45.384";"NST_correctLoc";"30";"1";"FINISHED";"RIGHT";"success";"492";"0";"2014-10-04 16:23:44.121";"3";;;;;;;;;;;;;;;;;;;;;;;;;;;;;;;;;;;;;;;;;;;;;
"949764MB";;;"Windows 7";"Rachel's Experiment (D.T.)";"1.0";"2";"1";"1";"2";"1";"1";"2014-10-04 16:18:57.003";"2014-10-04 16:32:22.493";"1";"0";"0";"85";"84";"module.training_block2.exec-3385.GoNoGo2";;;;;;;;;;;;;;;;;;;;;;;;;;;;;;;;;;;"1261";"2014-10-04 16:23:47.927";"NST_correctLoc";"2";"1";"FINISHED";"RIGHT";"success";"381";"0";"2014-10-04 16:23:46.663";"1";;;;;;;;;;;;;;;;;;;;;;;;;;;;;;;;;;;;;;;;;;;;;
"949764MB";;;"Windows 7";"Rachel's Experiment (D.T.)";"1.0";"2";"1";"1";"2";"1";"1";"2014-10-04 16:18:57.003";"2014-10-04 16:32:22.493";"1";"0";"0";"86";"85";"module.training_block2.exec-3385.GoNoGo2";;;;;;;;;;;;;;;;;;;;;;;;;;;;;;;;;;;"1257";"2014-10-04 16:23:50.470";"NST_correctLoc";"22";"0";"FINISHED";"LEFT";"success";"362";"0";"2014-10-04 16:23:49.206";"3";;;;;;;;;;;;;;;;;;;;;;;;;;;;;;;;;;;;;;;;;;;;;
"949764MB";;;"Windows 7";"Rachel's Experiment (D.T.)";"1.0";"2";"1";"1";"2";"1";"1";"2014-10-04 16:18:57.003";"2014-10-04 16:32:22.493";"1";"0";"0";"87";"86";"module.training_block2.exec-3385.GoNoGo2";;;;;;;;;;;;;;;;;;;;;;;;;;;;;;;;;;;"1261";"2014-10-04 16:23:53.013";"NST_correctLoc";"26";"1";"FINISHED";"RIGHT";"success";"407";"0";"2014-10-04 16:23:51.749";"3";;;;;;;;;;;;;;;;;;;;;;;;;;;;;;;;;;;;;;;;;;;;;
"949764MB";;;"Windows 7";"Rachel's Experiment (D.T.)";"1.0";"2";"1";"1";"2";"1";"1";"2014-10-04 16:18:57.003";"2014-10-04 16:32:22.493";"1";"0";"0";"88";"87";"module.training_block3.exec-6409.GoNoGo3";;;;;;;;;;;;;;;;;;;;;;;;;;;;;;;;;;;;;;;;;;;;;;;"1261";"2014-10-04 16:24:08.831";"NST_correctLoc";"6";"1";"FINISHED";"RIGHT";"success";"605";"0";"2014-10-04 16:24:07.567";"1";;;;;;;;;;;;;;;;;;;;;;;;;;;;;;;;;
"949764MB";;;"Windows 7";"Rachel's Experiment (D.T.)";"1.0";"2";"1";"1";"2";"1";"1";"2014-10-04 16:18:57.003";"2014-10-04 16:32:22.493";"1";"0";"0";"89";"88";"module.training_block3.exec-6409.GoNoGo3";;;;;;;;;;;;;;;;;;;;;;;;;;;;;;;;;;;;;;;;;;;;;;;"1261";"2014-10-04 16:24:11.374";"NST_correctLoc";"8";"1";"FINISHED";"RIGHT";"success";"382";"0";"2014-10-04 16:24:10.110";"1";;;;;;;;;;;;;;;;;;;;;;;;;;;;;;;;;
"949764MB";;;"Windows 7";"Rachel's Experiment (D.T.)";"1.0";"2";"1";"1";"2";"1";"1";"2014-10-04 16:18:57.003";"2014-10-04 16:32:22.493";"1";"0";"0";"90";"89";"module.training_block3.exec-6409.GoNoGo3";;;;;;;;;;;;;;;;;;;;;;;;;;;;;;;;;;;;;;;;;;;;;;;"1261";"2014-10-04 16:24:13.917";"NST_correctLoc";"34";"0";"FINISHED";"LEFT";"success";"415";"0";"2014-10-04 16:24:12.653";"3";;;;;;;;;;;;;;;;;;;;;;;;;;;;;;;;;
"949764MB";;;"Windows 7";"Rachel's Experiment (D.T.)";"1.0";"2";"1";"1";"2";"1";"1";"2014-10-04 16:18:57.003";"2014-10-04 16:32:22.493";"1";"0";"0";"91";"90";"module.training_block3.exec-6409.GoNoGo3";;;;;;;;;;;;;;;;;;;;;;;;;;;;;;;;;;;;;;;;;;;;;;;"1261";"2014-10-04 16:24:16.459";"NST_correctLoc";"14";"1";"FINISHED";"RIGHT";"success";"480";"0";"2014-10-04 16:24:15.196";"2";;;;;;;;;;;;;;;;;;;;;;;;;;;;;;;;;
"949764MB";;;"Windows 7";"Rachel's Experiment (D.T.)";"1.0";"2";"1";"1";"2";"1";"1";"2014-10-04 16:18:57.003";"2014-10-04 16:32:22.493";"1";"0";"0";"92";"91";"module.training_block3.exec-6409.GoNoGo3";;;;;;;;;;;;;;;;;;;;;;;;;;;;;;;;;;;;;;;;;;;;;;;"1261";"2014-10-04 16:24:19.002";"NST_correctLoc";"26";"0";"FINISHED";"LEFT";"success";"313";"0";"2014-10-04 16:24:17.739";"3";;;;;;;;;;;;;;;;;;;;;;;;;;;;;;;;;
"949764MB";;;"Windows 7";"Rachel's Experiment (D.T.)";"1.0";"2";"1";"1";"2";"1";"1";"2014-10-04 16:18:57.003";"2014-10-04 16:32:22.493";"1";"0";"0";"93";"92";"module.training_block3.exec-6409.GoNoGo3";;;;;;;;;;;;;;;;;;;;;;;;;;;;;;;;;;;;;;;;;;;;;;;"1261";"2014-10-04 16:24:21.545";"NST_correctLoc";"20";"0";"FINISHED";"LEFT";"success";"379";"0";"2014-10-04 16:24:20.281";"3";;;;;;;;;;;;;;;;;;;;;;;;;;;;;;;;;
"949764MB";;;"Windows 7";"Rachel's Experiment (D.T.)";"1.0";"2";"1";"1";"2";"1";"1";"2014-10-04 16:18:57.003";"2014-10-04 16:32:22.493";"1";"0";"0";"94";"93";"module.training_block3.exec-6409.GoNoGo3";;;;;;;;;;;;;;;;;;;;;;;;;;;;;;;;;;;;;;;;;;;;;;;"1261";"2014-10-04 16:24:24.088";"NST_correctLoc";"5";"0";"FINISHED";"LEFT";"success";"364";"0";"2014-10-04 16:24:22.824";"1";;;;;;;;;;;;;;;;;;;;;;;;;;;;;;;;;
"949764MB";;;"Windows 7";"Rachel's Experiment (D.T.)";"1.0";"2";"1";"1";"2";"1";"1";"2014-10-04 16:18:57.003";"2014-10-04 16:32:22.493";"1";"0";"0";"95";"94";"module.training_block3.exec-6409.GoNoGo3";;;;;;;;;;;;;;;;;;;;;;;;;;;;;;;;;;;;;;;;;;;;;;;"1262";"2014-10-04 16:24:26.631";"NST_correctLoc";"23";"1";"FINISHED";"RIGHT";"success";"285";"0";"2014-10-04 16:24:25.367";"3";;;;;;;;;;;;;;;;;;;;;;;;;;;;;;;;;
"949764MB";;;"Windows 7";"Rachel's Experiment (D.T.)";"1.0";"2";"1";"1";"2";"1";"1";"2014-10-04 16:18:57.003";"2014-10-04 16:32:22.493";"1";"0";"0";"96";"95";"module.training_block3.exec-6409.GoNoGo3";;;;;;;;;;;;;;;;;;;;;;;;;;;;;;;;;;;;;;;;;;;;;;;"1261";"2014-10-04 16:24:29.173";"NST_correctLoc";"31";"0";"FINISHED";"LEFT";"success";"310";"0";"2014-10-04 16:24:27.910";"3";;;;;;;;;;;;;;;;;;;;;;;;;;;;;;;;;
"949764MB";;;"Windows 7";"Rachel's Experiment (D.T.)";"1.0";"2";"1";"1";"2";"1";"1";"2014-10-04 16:18:57.003";"2014-10-04 16:32:22.493";"1";"0";"0";"97";"96";"module.training_block3.exec-6409.GoNoGo3";;;;;;;;;;;;;;;;;;;;;;;;;;;;;;;;;;;;;;;;;;;;;;;"1261";"2014-10-04 16:24:31.716";"NST_correctLoc";"21";"1";"FINISHED";"RIGHT";"success";"311";"0";"2014-10-04 16:24:30.453";"3";;;;;;;;;;;;;;;;;;;;;;;;;;;;;;;;;
"949764MB";;;"Windows 7";"Rachel's Experiment (D.T.)";"1.0";"2";"1";"1";"2";"1";"1";"2014-10-04 16:18:57.003";"2014-10-04 16:32:22.493";"1";"0";"0";"98";"97";"module.training_block3.exec-6409.GoNoGo3";;;;;;;;;;;;;;;;;;;;;;;;;;;;;;;;;;;;;;;;;;;;;;;"1261";"2014-10-04 16:24:34.259";"NST_correctLoc";"27";"0";"FINISHED";"LEFT";"success";"456";"0";"2014-10-04 16:24:32.995";"3";;;;;;;;;;;;;;;;;;;;;;;;;;;;;;;;;
"949764MB";;;"Windows 7";"Rachel's Experiment (D.T.)";"1.0";"2";"1";"1";"2";"1";"1";"2014-10-04 16:18:57.003";"2014-10-04 16:32:22.493";"1";"0";"0";"99";"98";"module.training_block3.exec-6409.GoNoGo3";;;;;;;;;;;;;;;;;;;;;;;;;;;;;;;;;;;;;;;;;;;;;;;"1261";"2014-10-04 16:24:36.802";"NST_correctLoc";"1";"1";"FINISHED";"RIGHT";"success";"330";"0";"2014-10-04 16:24:35.538";"1";;;;;;;;;;;;;;;;;;;;;;;;;;;;;;;;;
"949764MB";;;"Windows 7";"Rachel's Experiment (D.T.)";"1.0";"2";"1";"1";"2";"1";"1";"2014-10-04 16:18:57.003";"2014-10-04 16:32:22.493";"1";"0";"0";"100";"99";"module.training_block3.exec-6409.GoNoGo3";;;;;;;;;;;;;;;;;;;;;;;;;;;;;;;;;;;;;;;;;;;;;;;"1261";"2014-10-04 16:24:39.345";"NST_correctLoc";"0";"0";"FINISHED";"LEFT";"success";"371";"0";"2014-10-04 16:24:38.081";"1";;;;;;;;;;;;;;;;;;;;;;;;;;;;;;;;;
"949764MB";;;"Windows 7";"Rachel's Experiment (D.T.)";"1.0";"2";"1";"1";"2";"1";"1";"2014-10-04 16:18:57.003";"2014-10-04 16:32:22.493";"1";"0";"0";"101";"100";"module.training_block3.exec-6409.GoNoGo3";;;;;;;;;;;;;;;;;;;;;;;;;;;;;;;;;;;;;;;;;;;;;;;"1261";"2014-10-04 16:24:41.887";"NST_correctLoc";"9";"0";"FINISHED";"LEFT";"success";"347";"0";"2014-10-04 16:24:40.624";"2";;;;;;;;;;;;;;;;;;;;;;;;;;;;;;;;;
"949764MB";;;"Windows 7";"Rachel's Experiment (D.T.)";"1.0";"2";"1";"1";"2";"1";"1";"2014-10-04 16:18:57.003";"2014-10-04 16:32:22.493";"1";"0";"0";"102";"101";"module.training_block3.exec-6409.GoNoGo3";;;;;;;;;;;;;;;;;;;;;;;;;;;;;;;;;;;;;;;;;;;;;;;"1261";"2014-10-04 16:24:44.430";"NST_correctLoc";"4";"1";"FINISHED";"RIGHT";"success";"493";"0";"2014-10-04 16:24:43.167";"1";;;;;;;;;;;;;;;;;;;;;;;;;;;;;;;;;
"949764MB";;;"Windows 7";"Rachel's Experiment (D.T.)";"1.0";"2";"1";"1";"2";"1";"1";"2014-10-04 16:18:57.003";"2014-10-04 16:32:22.493";"1";"0";"0";"103";"102";"module.training_block3.exec-6409.GoNoGo3";;;;;;;;;;;;;;;;;;;;;;;;;;;;;;;;;;;;;;;;;;;;;;;"1261";"2014-10-04 16:24:46.973";"NST_correctLoc";"28";"1";"FINISHED";"RIGHT";"success";"478";"0";"2014-10-04 16:24:45.709";"3";;;;;;;;;;;;;;;;;;;;;;;;;;;;;;;;;
"949764MB";;;"Windows 7";"Rachel's Experiment (D.T.)";"1.0";"2";"1";"1";"2";"1";"1";"2014-10-04 16:18:57.003";"2014-10-04 16:32:22.493";"1";"0";"0";"104";"103";"module.training_block3.exec-6409.GoNoGo3";;;;;;;;;;;;;;;;;;;;;;;;;;;;;;;;;;;;;;;;;;;;;;;"1261";"2014-10-04 16:24:49.516";"NST_correctLoc";"30";"0";"FINISHED";"LEFT";"success";"448";"0";"2014-10-04 16:24:48.252";"3";;;;;;;;;;;;;;;;;;;;;;;;;;;;;;;;;
"949764MB";;;"Windows 7";"Rachel's Experiment (D.T.)";"1.0";"2";"1";"1";"2";"1";"1";"2014-10-04 16:18:57.003";"2014-10-04 16:32:22.493";"1";"0";"0";"105";"104";"module.training_block3.exec-6409.GoNoGo3";;;;;;;;;;;;;;;;;;;;;;;;;;;;;;;;;;;;;;;;;;;;;;;"1261";"2014-10-04 16:24:52.059";"NST_correctLoc";"35";"1";"FINISHED";"RIGHT";"success";"473";"0";"2014-10-04 16:24:50.795";"3";;;;;;;;;;;;;;;;;;;;;;;;;;;;;;;;;
"949764MB";;;"Windows 7";"Rachel's Experiment (D.T.)";"1.0";"2";"1";"1";"2";"1";"1";"2014-10-04 16:18:57.003";"2014-10-04 16:32:22.493";"1";"0";"0";"106";"105";"module.training_block3.exec-6409.GoNoGo3";;;;;;;;;;;;;;;;;;;;;;;;;;;;;;;;;;;;;;;;;;;;;;;"1261";"2014-10-04 16:24:54.601";"NST_correctLoc";"2";"0";"FINISHED";"LEFT";"success";"298";"0";"2014-10-04 16:24:53.338";"1";;;;;;;;;;;;;;;;;;;;;;;;;;;;;;;;;
"949764MB";;;"Windows 7";"Rachel's Experiment (D.T.)";"1.0";"2";"1";"1";"2";"1";"1";"2014-10-04 16:18:57.003";"2014-10-04 16:32:22.493";"1";"0";"0";"107";"106";"module.training_block3.exec-6409.GoNoGo3";;;;;;;;;;;;;;;;;;;;;;;;;;;;;;;;;;;;;;;;;;;;;;;"1261";"2014-10-04 16:24:57.144";"NST_correctLoc";"17";"1";"FINISHED";"RIGHT";"success";"339";"0";"2014-10-04 16:24:55.881";"2";;;;;;;;;;;;;;;;;;;;;;;;;;;;;;;;;
"949764MB";;;"Windows 7";"Rachel's Experiment (D.T.)";"1.0";"2";"1";"1";"2";"1";"1";"2014-10-04 16:18:57.003";"2014-10-04 16:32:22.493";"1";"0";"0";"108";"107";"module.training_block3.exec-6409.GoNoGo3";;;;;;;;;;;;;;;;;;;;;;;;;;;;;;;;;;;;;;;;;;;;;;;"1261";"2014-10-04 16:24:59.687";"NST_correctLoc";"12";"1";"FINISHED";"RIGHT";"success";"380";"0";"2014-10-04 16:24:58.423";"2";;;;;;;;;;;;;;;;;;;;;;;;;;;;;;;;;
"949764MB";;;"Windows 7";"Rachel's Experiment (D.T.)";"1.0";"2";"1";"1";"2";"1";"1";"2014-10-04 16:18:57.003";"2014-10-04 16:32:22.493";"1";"0";"0";"109";"108";"module.training_block3.exec-6409.GoNoGo3";;;;;;;;;;;;;;;;;;;;;;;;;;;;;;;;;;;;;;;;;;;;;;;"1258";"2014-10-04 16:25:02.230";"NST_correctLoc";"10";"0";"FINISHED";"LEFT";"success";"274";"0";"2014-10-04 16:25:00.966";"2";;;;;;;;;;;;;;;;;;;;;;;;;;;;;;;;;
"949764MB";;;"Windows 7";"Rachel's Experiment (D.T.)";"1.0";"2";"1";"1";"2";"1";"1";"2014-10-04 16:18:57.003";"2014-10-04 16:32:22.493";"1";"0";"0";"110";"109";"module.training_block3.exec-6409.GoNoGo3";;;;;;;;;;;;;;;;;;;;;;;;;;;;;;;;;;;;;;;;;;;;;;;"1261";"2014-10-04 16:25:04.773";"NST_correctLoc";"11";"0";"FINISHED";"LEFT";"success";"415";"0";"2014-10-04 16:25:03.509";"2";;;;;;;;;;;;;;;;;;;;;;;;;;;;;;;;;
"949764MB";;;"Windows 7";"Rachel's Experiment (D.T.)";"1.0";"2";"1";"1";"2";"1";"1";"2014-10-04 16:18:57.003";"2014-10-04 16:32:22.493";"1";"0";"0";"111";"110";"module.training_block3.exec-6409.GoNoGo3";;;;;;;;;;;;;;;;;;;;;;;;;;;;;;;;;;;;;;;;;;;;;;;"1261";"2014-10-04 16:25:07.315";"NST_correctLoc";"18";"1";"FINISHED";"RIGHT";"success";"376";"0";"2014-10-04 16:25:06.052";"3";;;;;;;;;;;;;;;;;;;;;;;;;;;;;;;;;
"949764MB";;;"Windows 7";"Rachel's Experiment (D.T.)";"1.0";"2";"1";"1";"2";"1";"1";"2014-10-04 16:18:57.003";"2014-10-04 16:32:22.493";"1";"0";"0";"112";"111";"module.training_block3.exec-6409.GoNoGo3";;;;;;;;;;;;;;;;;;;;;;;;;;;;;;;;;;;;;;;;;;;;;;;"1261";"2014-10-04 16:25:09.858";"NST_correctLoc";"22";"0";"FINISHED";"LEFT";"success";"377";"0";"2014-10-04 16:25:08.595";"3";;;;;;;;;;;;;;;;;;;;;;;;;;;;;;;;;
"949764MB";;;"Windows 7";"Rachel's Experiment (D.T.)";"1.0";"2";"1";"1";"2";"1";"1";"2014-10-04 16:18:57.003";"2014-10-04 16:32:22.493";"1";"0";"0";"113";"112";"module.training_block3.exec-6409.GoNoGo3";;;;;;;;;;;;;;;;;;;;;;;;;;;;;;;;;;;;;;;;;;;;;;;"1261";"2014-10-04 16:25:12.401";"NST_correctLoc";"15";"0";"FINISHED";"LEFT";"success";"442";"0";"2014-10-04 16:25:11.137";"2";;;;;;;;;;;;;;;;;;;;;;;;;;;;;;;;;
"949764MB";;;"Windows 7";"Rachel's Experiment (D.T.)";"1.0";"2";"1";"1";"2";"1";"1";"2014-10-04 16:18:57.003";"2014-10-04 16:32:22.493";"1";"0";"0";"114";"113";"module.training_block3.exec-6409.GoNoGo3";;;;;;;;;;;;;;;;;;;;;;;;;;;;;;;;;;;;;;;;;;;;;;;"1261";"2014-10-04 16:25:14.944";"NST_correctLoc";"19";"0";"FINISHED";"LEFT";"success";"379";"0";"2014-10-04 16:25:13.680";"3";;;;;;;;;;;;;;;;;;;;;;;;;;;;;;;;;
"949764MB";;;"Windows 7";"Rachel's Experiment (D.T.)";"1.0";"2";"1";"1";"2";"1";"1";"2014-10-04 16:18:57.003";"2014-10-04 16:32:22.493";"1";"0";"0";"115";"114";"module.training_block3.exec-6409.GoNoGo3";;;;;;;;;;;;;;;;;;;;;;;;;;;;;;;;;;;;;;;;;;;;;;;"1261";"2014-10-04 16:25:17.487";"NST_correctLoc";"33";"0";"FINISHED";"LEFT";"success";"357";"0";"2014-10-04 16:25:16.223";"3";;;;;;;;;;;;;;;;;;;;;;;;;;;;;;;;;
"949764MB";;;"Windows 7";"Rachel's Experiment (D.T.)";"1.0";"2";"1";"1";"2";"1";"1";"2014-10-04 16:18:57.003";"2014-10-04 16:32:22.493";"1";"0";"0";"116";"115";"module.training_block3.exec-6409.GoNoGo3";;;;;;;;;;;;;;;;;;;;;;;;;;;;;;;;;;;;;;;;;;;;;;;"1261";"2014-10-04 16:25:20.029";"NST_correctLoc";"25";"0";"FINISHED";"LEFT";"success";"350";"0";"2014-10-04 16:25:18.766";"3";;;;;;;;;;;;;;;;;;;;;;;;;;;;;;;;;
"949764MB";;;"Windows 7";"Rachel's Experiment (D.T.)";"1.0";"2";"1";"1";"2";"1";"1";"2014-10-04 16:18:57.003";"2014-10-04 16:32:22.493";"1";"0";"0";"117";"116";"module.training_block3.exec-6409.GoNoGo3";;;;;;;;;;;;;;;;;;;;;;;;;;;;;;;;;;;;;;;;;;;;;;;"1261";"2014-10-04 16:25:22.572";"NST_correctLoc";"32";"0";"FINISHED";"LEFT";"success";"359";"0";"2014-10-04 16:25:21.309";"3";;;;;;;;;;;;;;;;;;;;;;;;;;;;;;;;;
"949764MB";;;"Windows 7";"Rachel's Experiment (D.T.)";"1.0";"2";"1";"1";"2";"1";"1";"2014-10-04 16:18:57.003";"2014-10-04 16:32:22.493";"1";"0";"0";"118";"117";"module.training_block3.exec-6409.GoNoGo3";;;;;;;;;;;;;;;;;;;;;;;;;;;;;;;;;;;;;;;;;;;;;;;"1261";"2014-10-04 16:25:25.115";"NST_correctLoc";"7";"0";"FINISHED";"LEFT";"success";"344";"0";"2014-10-04 16:25:23.851";"1";;;;;;;;;;;;;;;;;;;;;;;;;;;;;;;;;
"949764MB";;;"Windows 7";"Rachel's Experiment (D.T.)";"1.0";"2";"1";"1";"2";"1";"1";"2014-10-04 16:18:57.003";"2014-10-04 16:32:22.493";"1";"0";"0";"119";"118";"module.training_block3.exec-6409.GoNoGo3";;;;;;;;;;;;;;;;;;;;;;;;;;;;;;;;;;;;;;;;;;;;;;;"1261";"2014-10-04 16:25:27.658";"NST_correctLoc";"29";"0";"FINISHED";"LEFT";"success";"377";"0";"2014-10-04 16:25:26.394";"3";;;;;;;;;;;;;;;;;;;;;;;;;;;;;;;;;
"949764MB";;;"Windows 7";"Rachel's Experiment (D.T.)";"1.0";"2";"1";"1";"2";"1";"1";"2014-10-04 16:18:57.003";"2014-10-04 16:32:22.493";"1";"0";"0";"120";"119";"module.training_block3.exec-6409.GoNoGo3";;;;;;;;;;;;;;;;;;;;;;;;;;;;;;;;;;;;;;;;;;;;;;;"1261";"2014-10-04 16:25:30.201";"NST_correctLoc";"3";"1";"FINISHED";"RIGHT";"success";"354";"0";"2014-10-04 16:25:28.937";"1";;;;;;;;;;;;;;;;;;;;;;;;;;;;;;;;;
"949764MB";;;"Windows 7";"Rachel's Experiment (D.T.)";"1.0";"2";"1";"1";"2";"1";"1";"2014-10-04 16:18:57.003";"2014-10-04 16:32:22.493";"1";"0";"0";"121";"120";"module.training_block3.exec-6409.GoNoGo3";;;;;;;;;;;;;;;;;;;;;;;;;;;;;;;;;;;;;;;;;;;;;;;"1261";"2014-10-04 16:25:32.743";"NST_correctLoc";"24";"0";"FINISHED";"LEFT";"success";"332";"0";"2014-10-04 16:25:31.480";"3";;;;;;;;;;;;;;;;;;;;;;;;;;;;;;;;;
"949764MB";;;"Windows 7";"Rachel's Experiment (D.T.)";"1.0";"2";"1";"1";"2";"1";"1";"2014-10-04 16:18:57.003";"2014-10-04 16:32:22.493";"1";"0";"0";"122";"121";"module.training_block3.exec-6409.GoNoGo3";;;;;;;;;;;;;;;;;;;;;;;;;;;;;;;;;;;;;;;;;;;;;;;"1261";"2014-10-04 16:25:35.286";"NST_correctLoc";"16";"0";"FINISHED";"LEFT";"success";"341";"0";"2014-10-04 16:25:34.023";"2";;;;;;;;;;;;;;;;;;;;;;;;;;;;;;;;;
"949764MB";;;"Windows 7";"Rachel's Experiment (D.T.)";"1.0";"2";"1";"1";"2";"1";"1";"2014-10-04 16:18:57.003";"2014-10-04 16:32:22.493";"1";"0";"0";"123";"122";"module.training_block3.exec-6409.GoNoGo3";;;;;;;;;;;;;;;;;;;;;;;;;;;;;;;;;;;;;;;;;;;;;;;"1261";"2014-10-04 16:25:37.829";"NST_correctLoc";"13";"1";"FINISHED";"RIGHT";"success";"390";"0";"2014-10-04 16:25:36.565";"2";;;;;;;;;;;;;;;;;;;;;;;;;;;;;;;;;
"949764MB";;;"Windows 7";"Rachel's Experiment (D.T.)";"1.0";"2";"1";"1";"2";"1";"1";"2014-10-04 16:18:57.003";"2014-10-04 16:32:22.493";"1";"0";"0";"124";"123";"module.training_block4.exec-5214.GoNoGo4";;;;;;;;;;;;;;;;;;;;;;;;;;;;;;;;;;;;;;;;;;;;;;;;;;;;;;;;;;;"1261";"2014-10-04 16:25:52.618";"NST_correctLoc";"16";"0";"FINISHED";"LEFT";"success";"721";"0";"2014-10-04 16:25:51.354";"2";;;;;;;;;;;;;;;;;;;;;
"949764MB";;;"Windows 7";"Rachel's Experiment (D.T.)";"1.0";"2";"1";"1";"2";"1";"1";"2014-10-04 16:18:57.003";"2014-10-04 16:32:22.493";"1";"0";"0";"125";"124";"module.training_block4.exec-5214.GoNoGo4";;;;;;;;;;;;;;;;;;;;;;;;;;;;;;;;;;;;;;;;;;;;;;;;;;;;;;;;;;;"1261";"2014-10-04 16:25:55.161";"NST_correctLoc";"19";"0";"FINISHED";"LEFT";"success";"378";"0";"2014-10-04 16:25:53.897";"3";;;;;;;;;;;;;;;;;;;;;
"949764MB";;;"Windows 7";"Rachel's Experiment (D.T.)";"1.0";"2";"1";"1";"2";"1";"1";"2014-10-04 16:18:57.003";"2014-10-04 16:32:22.493";"1";"0";"0";"126";"125";"module.training_block4.exec-5214.GoNoGo4";;;;;;;;;;;;;;;;;;;;;;;;;;;;;;;;;;;;;;;;;;;;;;;;;;;;;;;;;;;"1261";"2014-10-04 16:25:57.703";"NST_correctLoc";"22";"0";"FINISHED";"LEFT";"success";"323";"0";"2014-10-04 16:25:56.440";"3";;;;;;;;;;;;;;;;;;;;;
"949764MB";;;"Windows 7";"Rachel's Experiment (D.T.)";"1.0";"2";"1";"1";"2";"1";"1";"2014-10-04 16:18:57.003";"2014-10-04 16:32:22.493";"1";"0";"0";"127";"126";"module.training_block4.exec-5214.GoNoGo4";;;;;;;;;;;;;;;;;;;;;;;;;;;;;;;;;;;;;;;;;;;;;;;;;;;;;;;;;;;"1261";"2014-10-04 16:26:00.246";"NST_correctLoc";"20";"1";"FINISHED";"RIGHT";"success";"357";"0";"2014-10-04 16:25:58.983";"3";;;;;;;;;;;;;;;;;;;;;
"949764MB";;;"Windows 7";"Rachel's Experiment (D.T.)";"1.0";"2";"1";"1";"2";"1";"1";"2014-10-04 16:18:57.003";"2014-10-04 16:32:22.493";"1";"0";"0";"128";"127";"module.training_block4.exec-5214.GoNoGo4";;;;;;;;;;;;;;;;;;;;;;;;;;;;;;;;;;;;;;;;;;;;;;;;;;;;;;;;;;;"1261";"2014-10-04 16:26:02.789";"NST_correctLoc";"13";"1";"FINISHED";"RIGHT";"success";"374";"0";"2014-10-04 16:26:01.525";"2";;;;;;;;;;;;;;;;;;;;;
"949764MB";;;"Windows 7";"Rachel's Experiment (D.T.)";"1.0";"2";"1";"1";"2";"1";"1";"2014-10-04 16:18:57.003";"2014-10-04 16:32:22.493";"1";"0";"0";"129";"128";"module.training_block4.exec-5214.GoNoGo4";;;;;;;;;;;;;;;;;;;;;;;;;;;;;;;;;;;;;;;;;;;;;;;;;;;;;;;;;;;"1261";"2014-10-04 16:26:05.332";"NST_correctLoc";"33";"0";"FINISHED";"LEFT";"success";"327";"0";"2014-10-04 16:26:04.068";"3";;;;;;;;;;;;;;;;;;;;;
"949764MB";;;"Windows 7";"Rachel's Experiment (D.T.)";"1.0";"2";"1";"1";"2";"1";"1";"2014-10-04 16:18:57.003";"2014-10-04 16:32:22.493";"1";"0";"0";"130";"129";"module.training_block4.exec-5214.GoNoGo4";;;;;;;;;;;;;;;;;;;;;;;;;;;;;;;;;;;;;;;;;;;;;;;;;;;;;;;;;;;"1261";"2014-10-04 16:26:07.875";"NST_correctLoc";"23";"0";"FINISHED";"LEFT";"success";"360";"0";"2014-10-04 16:26:06.611";"3";;;;;;;;;;;;;;;;;;;;;
"949764MB";;;"Windows 7";"Rachel's Experiment (D.T.)";"1.0";"2";"1";"1";"2";"1";"1";"2014-10-04 16:18:57.003";"2014-10-04 16:32:22.493";"1";"0";"0";"131";"130";"module.training_block4.exec-5214.GoNoGo4";;;;;;;;;;;;;;;;;;;;;;;;;;;;;;;;;;;;;;;;;;;;;;;;;;;;;;;;;;;"1261";"2014-10-04 16:26:10.417";"NST_correctLoc";"17";"1";"FINISHED";"RIGHT";"success";"465";"0";"2014-10-04 16:26:09.154";"2";;;;;;;;;;;;;;;;;;;;;
"949764MB";;;"Windows 7";"Rachel's Experiment (D.T.)";"1.0";"2";"1";"1";"2";"1";"1";"2014-10-04 16:18:57.003";"2014-10-04 16:32:22.493";"1";"0";"0";"132";"131";"module.training_block4.exec-5214.GoNoGo4";;;;;;;;;;;;;;;;;;;;;;;;;;;;;;;;;;;;;;;;;;;;;;;;;;;;;;;;;;;"1257";"2014-10-04 16:26:12.960";"NST_correctLoc";"26";"1";"FINISHED";"RIGHT";"success";"415";"0";"2014-10-04 16:26:11.697";"3";;;;;;;;;;;;;;;;;;;;;
"949764MB";;;"Windows 7";"Rachel's Experiment (D.T.)";"1.0";"2";"1";"1";"2";"1";"1";"2014-10-04 16:18:57.003";"2014-10-04 16:32:22.493";"1";"0";"0";"133";"132";"module.training_block4.exec-5214.GoNoGo4";;;;;;;;;;;;;;;;;;;;;;;;;;;;;;;;;;;;;;;;;;;;;;;;;;;;;;;;;;;"1261";"2014-10-04 16:26:15.503";"NST_correctLoc";"3";"1";"FINISHED";"RIGHT";"success";"380";"0";"2014-10-04 16:26:14.239";"1";;;;;;;;;;;;;;;;;;;;;
"949764MB";;;"Windows 7";"Rachel's Experiment (D.T.)";"1.0";"2";"1";"1";"2";"1";"1";"2014-10-04 16:18:57.003";"2014-10-04 16:32:22.493";"1";"0";"0";"134";"133";"module.training_block4.exec-5214.GoNoGo4";;;;;;;;;;;;;;;;;;;;;;;;;;;;;;;;;;;;;;;;;;;;;;;;;;;;;;;;;;;"1261";"2014-10-04 16:26:18.046";"NST_correctLoc";"35";"1";"FINISHED";"RIGHT";"success";"509";"0";"2014-10-04 16:26:16.782";"3";;;;;;;;;;;;;;;;;;;;;
"949764MB";;;"Windows 7";"Rachel's Experiment (D.T.)";"1.0";"2";"1";"1";"2";"1";"1";"2014-10-04 16:18:57.003";"2014-10-04 16:32:22.493";"1";"0";"0";"135";"134";"module.training_block4.exec-5214.GoNoGo4";;;;;;;;;;;;;;;;;;;;;;;;;;;;;;;;;;;;;;;;;;;;;;;;;;;;;;;;;;;"1261";"2014-10-04 16:26:20.589";"NST_correctLoc";"25";"0";"FINISHED";"LEFT";"success";"462";"0";"2014-10-04 16:26:19.325";"3";;;;;;;;;;;;;;;;;;;;;
"949764MB";;;"Windows 7";"Rachel's Experiment (D.T.)";"1.0";"2";"1";"1";"2";"1";"1";"2014-10-04 16:18:57.003";"2014-10-04 16:32:22.493";"1";"0";"0";"136";"135";"module.training_block4.exec-5214.GoNoGo4";;;;;;;;;;;;;;;;;;;;;;;;;;;;;;;;;;;;;;;;;;;;;;;;;;;;;;;;;;;"1261";"2014-10-04 16:26:23.131";"NST_correctLoc";"10";"1";"FINISHED";"RIGHT";"success";"455";"0";"2014-10-04 16:26:21.868";"2";;;;;;;;;;;;;;;;;;;;;
"949764MB";;;"Windows 7";"Rachel's Experiment (D.T.)";"1.0";"2";"1";"1";"2";"1";"1";"2014-10-04 16:18:57.003";"2014-10-04 16:32:22.493";"1";"0";"0";"137";"136";"module.training_block4.exec-5214.GoNoGo4";;;;;;;;;;;;;;;;;;;;;;;;;;;;;;;;;;;;;;;;;;;;;;;;;;;;;;;;;;;"1261";"2014-10-04 16:26:25.674";"NST_correctLoc";"29";"1";"FINISHED";"RIGHT";"success";"456";"0";"2014-10-04 16:26:24.411";"3";;;;;;;;;;;;;;;;;;;;;
"949764MB";;;"Windows 7";"Rachel's Experiment (D.T.)";"1.0";"2";"1";"1";"2";"1";"1";"2014-10-04 16:18:57.003";"2014-10-04 16:32:22.493";"1";"0";"0";"138";"137";"module.training_block4.exec-5214.GoNoGo4";;;;;;;;;;;;;;;;;;;;;;;;;;;;;;;;;;;;;;;;;;;;;;;;;;;;;;;;;;;"1261";"2014-10-04 16:26:28.217";"NST_correctLoc";"21";"0";"FINISHED";"LEFT";"success";"473";"0";"2014-10-04 16:26:26.953";"3";;;;;;;;;;;;;;;;;;;;;
"949764MB";;;"Windows 7";"Rachel's Experiment (D.T.)";"1.0";"2";"1";"1";"2";"1";"1";"2014-10-04 16:18:57.003";"2014-10-04 16:32:22.493";"1";"0";"0";"139";"138";"module.training_block4.exec-5214.GoNoGo4";;;;;;;;;;;;;;;;;;;;;;;;;;;;;;;;;;;;;;;;;;;;;;;;;;;;;;;;;;;"1261";"2014-10-04 16:26:30.760";"NST_correctLoc";"14";"0";"FINISHED";"LEFT";"success";"347";"0";"2014-10-04 16:26:29.496";"2";;;;;;;;;;;;;;;;;;;;;
"949764MB";;;"Windows 7";"Rachel's Experiment (D.T.)";"1.0";"2";"1";"1";"2";"1";"1";"2014-10-04 16:18:57.003";"2014-10-04 16:32:22.493";"1";"0";"0";"140";"139";"module.training_block4.exec-5214.GoNoGo4";;;;;;;;;;;;;;;;;;;;;;;;;;;;;;;;;;;;;;;;;;;;;;;;;;;;;;;;;;;"1261";"2014-10-04 16:26:33.287";"NST_correctLoc";"28";"0";"FINISHED";"LEFT";"success";"475";"0";"2014-10-04 16:26:32.023";"3";;;;;;;;;;;;;;;;;;;;;
"949764MB";;;"Windows 7";"Rachel's Experiment (D.T.)";"1.0";"2";"1";"1";"2";"1";"1";"2014-10-04 16:18:57.003";"2014-10-04 16:32:22.493";"1";"0";"0";"141";"140";"module.training_block4.exec-5214.GoNoGo4";;;;;;;;;;;;;;;;;;;;;;;;;;;;;;;;;;;;;;;;;;;;;;;;;;;;;;;;;;;"1261";"2014-10-04 16:26:35.830";"NST_correctLoc";"18";"0";"FINISHED";"LEFT";"success";"485";"0";"2014-10-04 16:26:34.566";"3";;;;;;;;;;;;;;;;;;;;;
"949764MB";;;"Windows 7";"Rachel's Experiment (D.T.)";"1.0";"2";"1";"1";"2";"1";"1";"2014-10-04 16:18:57.003";"2014-10-04 16:32:22.493";"1";"0";"0";"142";"141";"module.training_block4.exec-5214.GoNoGo4";;;;;;;;;;;;;;;;;;;;;;;;;;;;;;;;;;;;;;;;;;;;;;;;;;;;;;;;;;;"1261";"2014-10-04 16:26:38.373";"NST_correctLoc";"2";"1";"FINISHED";"RIGHT";"success";"654";"0";"2014-10-04 16:26:37.109";"1";;;;;;;;;;;;;;;;;;;;;
"949764MB";;;"Windows 7";"Rachel's Experiment (D.T.)";"1.0";"2";"1";"1";"2";"1";"1";"2014-10-04 16:18:57.003";"2014-10-04 16:32:22.493";"1";"0";"0";"143";"142";"module.training_block4.exec-5214.GoNoGo4";;;;;;;;;;;;;;;;;;;;;;;;;;;;;;;;;;;;;;;;;;;;;;;;;;;;;;;;;;;"1261";"2014-10-04 16:26:40.915";"NST_correctLoc";"7";"1";"FINISHED";"RIGHT";"success";"431";"0";"2014-10-04 16:26:39.652";"1";;;;;;;;;;;;;;;;;;;;;
"949764MB";;;"Windows 7";"Rachel's Experiment (D.T.)";"1.0";"2";"1";"1";"2";"1";"1";"2014-10-04 16:18:57.003";"2014-10-04 16:32:22.493";"1";"0";"0";"144";"143";"module.training_block4.exec-5214.GoNoGo4";;;;;;;;;;;;;;;;;;;;;;;;;;;;;;;;;;;;;;;;;;;;;;;;;;;;;;;;;;;"1261";"2014-10-04 16:26:43.458";"NST_correctLoc";"6";"0";"FINISHED";"LEFT";"success";"360";"0";"2014-10-04 16:26:42.195";"1";;;;;;;;;;;;;;;;;;;;;
"949764MB";;;"Windows 7";"Rachel's Experiment (D.T.)";"1.0";"2";"1";"1";"2";"1";"1";"2014-10-04 16:18:57.003";"2014-10-04 16:32:22.493";"1";"0";"0";"145";"144";"module.training_block4.exec-5214.GoNoGo4";;;;;;;;;;;;;;;;;;;;;;;;;;;;;;;;;;;;;;;;;;;;;;;;;;;;;;;;;;;"1261";"2014-10-04 16:26:46.001";"NST_correctLoc";"11";"1";"FINISHED";"RIGHT";"success";"353";"0";"2014-10-04 16:26:44.737";"2";;;;;;;;;;;;;;;;;;;;;
"949764MB";;;"Windows 7";"Rachel's Experiment (D.T.)";"1.0";"2";"1";"1";"2";"1";"1";"2014-10-04 16:18:57.003";"2014-10-04 16:32:22.493";"1";"0";"0";"146";"145";"module.training_block4.exec-5214.GoNoGo4";;;;;;;;;;;;;;;;;;;;;;;;;;;;;;;;;;;;;;;;;;;;;;;;;;;;;;;;;;;"1261";"2014-10-04 16:26:48.544";"NST_correctLoc";"4";"0";"FINISHED";"LEFT";"success";"426";"0";"2014-10-04 16:26:47.280";"1";;;;;;;;;;;;;;;;;;;;;
"949764MB";;;"Windows 7";"Rachel's Experiment (D.T.)";"1.0";"2";"1";"1";"2";"1";"1";"2014-10-04 16:18:57.003";"2014-10-04 16:32:22.493";"1";"0";"0";"147";"146";"module.training_block4.exec-5214.GoNoGo4";;;;;;;;;;;;;;;;;;;;;;;;;;;;;;;;;;;;;;;;;;;;;;;;;;;;;;;;;;;"1261";"2014-10-04 16:26:51.087";"NST_correctLoc";"31";"0";"FINISHED";"LEFT";"success";"372";"0";"2014-10-04 16:26:49.823";"3";;;;;;;;;;;;;;;;;;;;;
"949764MB";;;"Windows 7";"Rachel's Experiment (D.T.)";"1.0";"2";"1";"1";"2";"1";"1";"2014-10-04 16:18:57.003";"2014-10-04 16:32:22.493";"1";"0";"0";"148";"147";"module.training_block4.exec-5214.GoNoGo4";;;;;;;;;;;;;;;;;;;;;;;;;;;;;;;;;;;;;;;;;;;;;;;;;;;;;;;;;;;"1261";"2014-10-04 16:26:53.629";"NST_correctLoc";"32";"1";"FINISHED";"RIGHT";"success";"469";"0";"2014-10-04 16:26:52.366";"3";;;;;;;;;;;;;;;;;;;;;
"949764MB";;;"Windows 7";"Rachel's Experiment (D.T.)";"1.0";"2";"1";"1";"2";"1";"1";"2014-10-04 16:18:57.003";"2014-10-04 16:32:22.493";"1";"0";"0";"149";"148";"module.training_block4.exec-5214.GoNoGo4";;;;;;;;;;;;;;;;;;;;;;;;;;;;;;;;;;;;;;;;;;;;;;;;;;;;;;;;;;;"1261";"2014-10-04 16:26:56.172";"NST_correctLoc";"8";"0";"FINISHED";"LEFT";"success";"326";"0";"2014-10-04 16:26:54.909";"1";;;;;;;;;;;;;;;;;;;;;
"949764MB";;;"Windows 7";"Rachel's Experiment (D.T.)";"1.0";"2";"1";"1";"2";"1";"1";"2014-10-04 16:18:57.003";"2014-10-04 16:32:22.493";"1";"0";"0";"150";"149";"module.training_block4.exec-5214.GoNoGo4";;;;;;;;;;;;;;;;;;;;;;;;;;;;;;;;;;;;;;;;;;;;;;;;;;;;;;;;;;;"1261";"2014-10-04 16:26:58.715";"NST_correctLoc";"12";"0";"FINISHED";"LEFT";"success";"359";"0";"2014-10-04 16:26:57.451";"2";;;;;;;;;;;;;;;;;;;;;
"949764MB";;;"Windows 7";"Rachel's Experiment (D.T.)";"1.0";"2";"1";"1";"2";"1";"1";"2014-10-04 16:18:57.003";"2014-10-04 16:32:22.493";"1";"0";"0";"151";"150";"module.training_block4.exec-5214.GoNoGo4";;;;;;;;;;;;;;;;;;;;;;;;;;;;;;;;;;;;;;;;;;;;;;;;;;;;;;;;;;;"1261";"2014-10-04 16:27:01.258";"NST_correctLoc";"24";"1";"FINISHED";"RIGHT";"success";"384";"0";"2014-10-04 16:26:59.994";"3";;;;;;;;;;;;;;;;;;;;;
"949764MB";;;"Windows 7";"Rachel's Experiment (D.T.)";"1.0";"2";"1";"1";"2";"1";"1";"2014-10-04 16:18:57.003";"2014-10-04 16:32:22.493";"1";"0";"0";"152";"151";"module.training_block4.exec-5214.GoNoGo4";;;;;;;;;;;;;;;;;;;;;;;;;;;;;;;;;;;;;;;;;;;;;;;;;;;;;;;;;;;"1261";"2014-10-04 16:27:03.801";"NST_correctLoc";"30";"1";"FINISHED";"RIGHT";"success";"338";"0";"2014-10-04 16:27:02.537";"3";;;;;;;;;;;;;;;;;;;;;
"949764MB";;;"Windows 7";"Rachel's Experiment (D.T.)";"1.0";"2";"1";"1";"2";"1";"1";"2014-10-04 16:18:57.003";"2014-10-04 16:32:22.493";"1";"0";"0";"153";"152";"module.training_block4.exec-5214.GoNoGo4";;;;;;;;;;;;;;;;;;;;;;;;;;;;;;;;;;;;;;;;;;;;;;;;;;;;;;;;;;;"1261";"2014-10-04 16:27:06.343";"NST_correctLoc";"0";"1";"FINISHED";"RIGHT";"success";"299";"0";"2014-10-04 16:27:05.080";"1";;;;;;;;;;;;;;;;;;;;;
"949764MB";;;"Windows 7";"Rachel's Experiment (D.T.)";"1.0";"2";"1";"1";"2";"1";"1";"2014-10-04 16:18:57.003";"2014-10-04 16:32:22.493";"1";"0";"0";"154";"153";"module.training_block4.exec-5214.GoNoGo4";;;;;;;;;;;;;;;;;;;;;;;;;;;;;;;;;;;;;;;;;;;;;;;;;;;;;;;;;;;"1261";"2014-10-04 16:27:08.886";"NST_correctLoc";"9";"1";"FINISHED";"RIGHT";"success";"412";"0";"2014-10-04 16:27:07.623";"2";;;;;;;;;;;;;;;;;;;;;
"949764MB";;;"Windows 7";"Rachel's Experiment (D.T.)";"1.0";"2";"1";"1";"2";"1";"1";"2014-10-04 16:18:57.003";"2014-10-04 16:32:22.493";"1";"0";"0";"155";"154";"module.training_block4.exec-5214.GoNoGo4";;;;;;;;;;;;;;;;;;;;;;;;;;;;;;;;;;;;;;;;;;;;;;;;;;;;;;;;;;;"1261";"2014-10-04 16:27:11.429";"NST_correctLoc";"1";"0";"FINISHED";"LEFT";"success";"629";"0";"2014-10-04 16:27:10.165";"1";;;;;;;;;;;;;;;;;;;;;
"949764MB";;;"Windows 7";"Rachel's Experiment (D.T.)";"1.0";"2";"1";"1";"2";"1";"1";"2014-10-04 16:18:57.003";"2014-10-04 16:32:22.493";"1";"0";"0";"156";"155";"module.training_block4.exec-5214.GoNoGo4";;;;;;;;;;;;;;;;;;;;;;;;;;;;;;;;;;;;;;;;;;;;;;;;;;;;;;;;;;;"1261";"2014-10-04 16:27:13.972";"NST_correctLoc";"15";"1";"FINISHED";"RIGHT";"success";"510";"0";"2014-10-04 16:27:12.708";"2";;;;;;;;;;;;;;;;;;;;;
"949764MB";;;"Windows 7";"Rachel's Experiment (D.T.)";"1.0";"2";"1";"1";"2";"1";"1";"2014-10-04 16:18:57.003";"2014-10-04 16:32:22.493";"1";"0";"0";"157";"156";"module.training_block4.exec-5214.GoNoGo4";;;;;;;;;;;;;;;;;;;;;;;;;;;;;;;;;;;;;;;;;;;;;;;;;;;;;;;;;;;"1261";"2014-10-04 16:27:16.515";"NST_correctLoc";"27";"1";"FINISHED";"RIGHT";"success";"543";"0";"2014-10-04 16:27:15.251";"3";;;;;;;;;;;;;;;;;;;;;
"949764MB";;;"Windows 7";"Rachel's Experiment (D.T.)";"1.0";"2";"1";"1";"2";"1";"1";"2014-10-04 16:18:57.003";"2014-10-04 16:32:22.493";"1";"0";"0";"158";"157";"module.training_block4.exec-5214.GoNoGo4";;;;;;;;;;;;;;;;;;;;;;;;;;;;;;;;;;;;;;;;;;;;;;;;;;;;;;;;;;;"1261";"2014-10-04 16:27:19.057";"NST_correctLoc";"34";"0";"FINISHED";"LEFT";"success";"553";"0";"2014-10-04 16:27:17.794";"3";;;;;;;;;;;;;;;;;;;;;
"949764MB";;;"Windows 7";"Rachel's Experiment (D.T.)";"1.0";"2";"1";"1";"2";"1";"1";"2014-10-04 16:18:57.003";"2014-10-04 16:32:22.493";"1";"0";"0";"159";"158";"module.training_block4.exec-5214.GoNoGo4";;;;;;;;;;;;;;;;;;;;;;;;;;;;;;;;;;;;;;;;;;;;;;;;;;;;;;;;;;;"1261";"2014-10-04 16:27:21.600";"NST_correctLoc";"5";"0";"FINISHED";"LEFT";"success";"362";"0";"2014-10-04 16:27:20.337";"1";;;;;;;;;;;;;;;;;;;;;
"949764MB";;;"Windows 7";"Rachel's Experiment (D.T.)";"1.0";"2";"1";"1";"2";"1";"1";"2014-10-04 16:18:57.003";"2014-10-04 16:32:22.493";"1";"0";"0";"160";"159";"module.devaluation_practice.exec-3644.devalPractice";;;;;;;;;;;;"23583";"2014-10-04 16:28:10.413";"0";"5";"1";"4";"5128";"3382";"12021";"2014-10-04 16:27:46.825";;;;;;;;;;;;;;;;;;;;;;;;;;;;;;;;;;;;;;;;;;;;;;;;;;;;;;;;;;;;;;;;;;;;;;
"949764MB";;;"Windows 7";"Rachel's Experiment (D.T.)";"1.0";"2";"1";"1";"2";"1";"1";"2014-10-04 16:18:57.003";"2014-10-04 16:32:22.493";"1";"0";"0";"161";"160";"module.devaluation_practice.exec-3644.devalPractice";;;;;;;;;;;;"8906";"2014-10-04 16:28:19.336";"1";"6";"3";"5";"3640";"1335";"909";"2014-10-04 16:28:10.428";;;;;;;;;;;;;;;;;;;;;;;;;;;;;;;;;;;;;;;;;;;;;;;;;;;;;;;;;;;;;;;;;;;;;;
"949764MB";;;"Windows 7";"Rachel's Experiment (D.T.)";"1.0";"2";"1";"1";"2";"1";"1";"2014-10-04 16:18:57.003";"2014-10-04 16:32:22.493";"1";"0";"0";"162";"161";"module.devaluation_practice.exec-3644.devalPractice";;;;;;;;;;;;"11546";"2014-10-04 16:28:30.911";"2";"5";"5";"9";"4701";"2311";"1501";"2014-10-04 16:28:19.367";;;;;;;;;;;;;;;;;;;;;;;;;;;;;;;;;;;;;;;;;;;;;;;;;;;;;;;;;;;;;;;;;;;;;;
"949764MB";;;"Windows 7";"Rachel's Experiment (D.T.)";"1.0";"2";"1";"1";"2";"1";"1";"2014-10-04 16:18:57.003";"2014-10-04 16:32:22.493";"1";"0";"0";"163";"162";"module.devaluation_practice.exec-3644.devalPractice";;;;;;;;;;;;"8872";"2014-10-04 16:28:39.803";"3";"7";"9";"9";"2702";"1441";"1706";"2014-10-04 16:28:30.927";;;;;;;;;;;;;;;;;;;;;;;;;;;;;;;;;;;;;;;;;;;;;;;;;;;;;;;;;;;;;;;;;;;;;;
"949764MB";;;"Windows 7";"Rachel's Experiment (D.T.)";"1.0";"2";"1";"1";"2";"1";"1";"2014-10-04 16:18:57.003";"2014-10-04 16:32:22.493";"1";"0";"0";"164";"163";"module.devaluation_block1.exec-3459.deval1";"6820";"2014-10-04 16:28:51.643";"5";"9";"9";"9";"1353";"1309";"1114";"2014-10-04 16:28:44.826";"1";;;;;;;;;;;;;;;;;;;;;;;;;;;;;;;;;;;;;;;;;;;;;;;;;;;;;;;;;;;;;;;;;;;;;;;;;;;;;;;;
"949764MB";;;"Windows 7";"Rachel's Experiment (D.T.)";"1.0";"2";"1";"1";"2";"1";"1";"2014-10-04 16:18:57.003";"2014-10-04 16:32:22.493";"1";"0";"0";"165";"164";"module.devaluation_block1.exec-3459.deval1";"6402";"2014-10-04 16:28:58.071";"22";"9";"8";"9";"1378";"860";"1123";"2014-10-04 16:28:51.659";"3";;;;;;;;;;;;;;;;;;;;;;;;;;;;;;;;;;;;;;;;;;;;;;;;;;;;;;;;;;;;;;;;;;;;;;;;;;;;;;;;
"949764MB";;;"Windows 7";"Rachel's Experiment (D.T.)";"1.0";"2";"1";"1";"2";"1";"1";"2014-10-04 16:18:57.003";"2014-10-04 16:32:22.493";"1";"0";"0";"166";"165";"module.devaluation_block1.exec-3459.deval1";"7171";"2014-10-04 16:29:05.262";"1";"6";"5";"7";"1606";"1516";"1020";"2014-10-04 16:28:58.086";"1";;;;;;;;;;;;;;;;;;;;;;;;;;;;;;;;;;;;;;;;;;;;;;;;;;;;;;;;;;;;;;;;;;;;;;;;;;;;;;;;
"949764MB";;;"Windows 7";"Rachel's Experiment (D.T.)";"1.0";"2";"1";"1";"2";"1";"1";"2014-10-04 16:18:57.003";"2014-10-04 16:32:22.493";"1";"0";"0";"167";"166";"module.devaluation_block1.exec-3459.deval1";"7239";"2014-10-04 16:29:12.516";"19";"8";"8";"9";"1863";"1174";"1179";"2014-10-04 16:29:05.278";"3";;;;;;;;;;;;;;;;;;;;;;;;;;;;;;;;;;;;;;;;;;;;;;;;;;;;;;;;;;;;;;;;;;;;;;;;;;;;;;;;
"949764MB";;;"Windows 7";"Rachel's Experiment (D.T.)";"1.0";"2";"1";"1";"2";"1";"1";"2014-10-04 16:18:57.003";"2014-10-04 16:32:22.493";"1";"0";"0";"168";"167";"module.devaluation_block1.exec-3459.deval1";"10951";"2014-10-04 16:29:23.499";"11";"3";"1";"2";"2873";"1776";"3264";"2014-10-04 16:29:12.547";"2";;;;;;;;;;;;;;;;;;;;;;;;;;;;;;;;;;;;;;;;;;;;;;;;;;;;;;;;;;;;;;;;;;;;;;;;;;;;;;;;
"949764MB";;;"Windows 7";"Rachel's Experiment (D.T.)";"1.0";"2";"1";"1";"2";"1";"1";"2014-10-04 16:18:57.003";"2014-10-04 16:32:22.493";"1";"0";"0";"169";"168";"module.devaluation_block1.exec-3459.deval1";"6352";"2014-10-04 16:29:29.863";"4";"9";"9";"9";"1378";"852";"1098";"2014-10-04 16:29:23.514";"1";;;;;;;;;;;;;;;;;;;;;;;;;;;;;;;;;;;;;;;;;;;;;;;;;;;;;;;;;;;;;;;;;;;;;;;;;;;;;;;;
"949764MB";;;"Windows 7";"Rachel's Experiment (D.T.)";"1.0";"2";"1";"1";"2";"1";"1";"2014-10-04 16:18:57.003";"2014-10-04 16:32:22.493";"1";"0";"0";"170";"169";"module.devaluation_block1.exec-3459.deval1";"8050";"2014-10-04 16:29:37.944";"12";"7";"8";"9";"2501";"1077";"1443";"2014-10-04 16:29:29.895";"2";;;;;;;;;;;;;;;;;;;;;;;;;;;;;;;;;;;;;;;;;;;;;;;;;;;;;;;;;;;;;;;;;;;;;;;;;;;;;;;;
"949764MB";;;"Windows 7";"Rachel's Experiment (D.T.)";"1.0";"2";"1";"1";"2";"1";"1";"2014-10-04 16:18:57.003";"2014-10-04 16:32:22.493";"1";"0";"0";"171";"170";"module.devaluation_block1.exec-3459.deval1";"13954";"2014-10-04 16:29:51.922";"9";"5";"7";"9";"1852";"4288";"4792";"2014-10-04 16:29:37.960";"2";;;;;;;;;;;;;;;;;;;;;;;;;;;;;;;;;;;;;;;;;;;;;;;;;;;;;;;;;;;;;;;;;;;;;;;;;;;;;;;;
"949764MB";;;"Windows 7";"Rachel's Experiment (D.T.)";"1.0";"2";"1";"1";"2";"1";"1";"2014-10-04 16:18:57.003";"2014-10-04 16:32:22.493";"1";"0";"0";"172";"171";"module.devaluation_block1.exec-3459.deval1";"6450";"2014-10-04 16:29:58.380";"6";"8";"9";"9";"1203";"1073";"1145";"2014-10-04 16:29:51.937";"1";;;;;;;;;;;;;;;;;;;;;;;;;;;;;;;;;;;;;;;;;;;;;;;;;;;;;;;;;;;;;;;;;;;;;;;;;;;;;;;;
"949764MB";;;"Windows 7";"Rachel's Experiment (D.T.)";"1.0";"2";"1";"1";"2";"1";"1";"2014-10-04 16:18:57.003";"2014-10-04 16:32:22.493";"1";"0";"0";"173";"172";"module.devaluation_block1.exec-3459.deval1";"6171";"2014-10-04 16:30:04.573";"3";"9";"9";"9";"1152";"978";"1003";"2014-10-04 16:29:58.411";"1";;;;;;;;;;;;;;;;;;;;;;;;;;;;;;;;;;;;;;;;;;;;;;;;;;;;;;;;;;;;;;;;;;;;;;;;;;;;;;;;
"949764MB";;;"Windows 7";"Rachel's Experiment (D.T.)";"1.0";"2";"1";"1";"2";"1";"1";"2014-10-04 16:18:57.003";"2014-10-04 16:32:22.493";"1";"0";"0";"174";"173";"module.devaluation_block1.exec-3459.deval1";"6409";"2014-10-04 16:30:11.016";"26";"9";"9";"9";"1119";"1201";"1065";"2014-10-04 16:30:04.605";"3";;;;;;;;;;;;;;;;;;;;;;;;;;;;;;;;;;;;;;;;;;;;;;;;;;;;;;;;;;;;;;;;;;;;;;;;;;;;;;;;
"949764MB";;;"Windows 7";"Rachel's Experiment (D.T.)";"1.0";"2";"1";"1";"2";"1";"1";"2014-10-04 16:18:57.003";"2014-10-04 16:32:22.493";"1";"0";"0";"175";"174";"module.devaluation_block1.exec-3459.deval1";"8098";"2014-10-04 16:30:19.128";"15";"7";"7";"8";"1764";"882";"2422";"2014-10-04 16:30:11.032";"2";;;;;;;;;;;;;;;;;;;;;;;;;;;;;;;;;;;;;;;;;;;;;;;;;;;;;;;;;;;;;;;;;;;;;;;;;;;;;;;;
"949764MB";;;"Windows 7";"Rachel's Experiment (D.T.)";"1.0";"2";"1";"1";"2";"1";"1";"2014-10-04 16:18:57.003";"2014-10-04 16:32:22.493";"1";"0";"0";"176";"175";"module.devaluation_block1.exec-3459.deval1";"7427";"2014-10-04 16:30:26.585";"2";"6";"6";"7";"1044";"1435";"1908";"2014-10-04 16:30:19.159";"1";;;;;;;;;;;;;;;;;;;;;;;;;;;;;;;;;;;;;;;;;;;;;;;;;;;;;;;;;;;;;;;;;;;;;;;;;;;;;;;;
"949764MB";;;"Windows 7";"Rachel's Experiment (D.T.)";"1.0";"2";"1";"1";"2";"1";"1";"2014-10-04 16:18:57.003";"2014-10-04 16:32:22.493";"1";"0";"0";"177";"176";"module.devaluation_block1.exec-3459.deval1";"6002";"2014-10-04 16:30:32.607";"8";"9";"9";"9";"1227";"828";"920";"2014-10-04 16:30:26.601";"1";;;;;;;;;;;;;;;;;;;;;;;;;;;;;;;;;;;;;;;;;;;;;;;;;;;;;;;;;;;;;;;;;;;;;;;;;;;;;;;;
"949764MB";;;"Windows 7";"Rachel's Experiment (D.T.)";"1.0";"2";"1";"1";"2";"1";"1";"2014-10-04 16:18:57.003";"2014-10-04 16:32:22.493";"1";"0";"0";"178";"177";"module.devaluation_block1.exec-3459.deval1";"8626";"2014-10-04 16:30:41.249";"21";"8";"9";"9";"3358";"1193";"1049";"2014-10-04 16:30:32.622";"3";;;;;;;;;;;;;;;;;;;;;;;;;;;;;;;;;;;;;;;;;;;;;;;;;;;;;;;;;;;;;;;;;;;;;;;;;;;;;;;;
"949764MB";;;"Windows 7";"Rachel's Experiment (D.T.)";"1.0";"2";"1";"1";"2";"1";"1";"2014-10-04 16:18:57.003";"2014-10-04 16:32:22.493";"1";"0";"0";"179";"178";"module.devaluation_block1.exec-3459.deval1";"5970";"2014-10-04 16:30:47.239";"7";"7";"8";"9";"1011";"867";"1043";"2014-10-04 16:30:41.280";"1";;;;;;;;;;;;;;;;;;;;;;;;;;;;;;;;;;;;;;;;;;;;;;;;;;;;;;;;;;;;;;;;;;;;;;;;;;;;;;;;
"949764MB";;;"Windows 7";"Rachel's Experiment (D.T.)";"1.0";"2";"1";"1";"2";"1";"1";"2014-10-04 16:18:57.003";"2014-10-04 16:32:22.493";"1";"0";"0";"180";"179";"module.devaluation_block1.exec-3459.deval1";"6770";"2014-10-04 16:30:54.041";"20";"5";"7";"7";"1429";"1262";"1055";"2014-10-04 16:30:47.271";"3";;;;;;;;;;;;;;;;;;;;;;;;;;;;;;;;;;;;;;;;;;;;;;;;;;;;;;;;;;;;;;;;;;;;;;;;;;;;;;;;
"949764MB";;;"Windows 7";"Rachel's Experiment (D.T.)";"1.0";"2";"1";"1";"2";"1";"1";"2014-10-04 16:18:57.003";"2014-10-04 16:32:22.493";"1";"0";"0";"181";"180";"module.devaluation_block1.exec-3459.deval1";"9410";"2014-10-04 16:31:03.463";"10";"8";"7";"7";"1755";"1896";"2741";"2014-10-04 16:30:54.057";"2";;;;;;;;;;;;;;;;;;;;;;;;;;;;;;;;;;;;;;;;;;;;;;;;;;;;;;;;;;;;;;;;;;;;;;;;;;;;;;;;
"949764MB";;;"Windows 7";"Rachel's Experiment (D.T.)";"1.0";"2";"1";"1";"2";"1";"1";"2014-10-04 16:18:57.003";"2014-10-04 16:32:22.493";"1";"0";"0";"182";"181";"module.devaluation_block1.exec-3459.deval1";"10907";"2014-10-04 16:31:14.399";"0";"6";"8";"9";"4397";"1467";"2003";"2014-10-04 16:31:03.495";"1";;;;;;;;;;;;;;;;;;;;;;;;;;;;;;;;;;;;;;;;;;;;;;;;;;;;;;;;;;;;;;;;;;;;;;;;;;;;;;;;
"949764MB";;;"Windows 7";"Rachel's Experiment (D.T.)";"1.0";"2";"1";"1";"2";"1";"1";"2014-10-04 16:18:57.003";"2014-10-04 16:32:22.493";"1";"0";"0";"183";"182";"module.devaluation_block1.exec-3459.deval1";"12193";"2014-10-04 16:31:26.614";"17";"4";"6";"7";"5501";"1936";"1743";"2014-10-04 16:31:14.415";"2";;;;;;;;;;;;;;;;;;;;;;;;;;;;;;;;;;;;;;;;;;;;;;;;;;;;;;;;;;;;;;;;;;;;;;;;;;;;;;;;
"949764MB";;;"Windows 7";"Rachel's Experiment (D.T.)";"1.0";"2";"1";"1";"2";"1";"1";"2014-10-04 16:18:57.003";"2014-10-04 16:32:22.493";"1";"0";"0";"184";"183";"module.devaluation_block1.exec-3459.deval1";"6145";"2014-10-04 16:31:32.776";"23";"9";"9";"9";"1094";"928";"1103";"2014-10-04 16:31:26.629";"3";;;;;;;;;;;;;;;;;;;;;;;;;;;;;;;;;;;;;;;;;;;;;;;;;;;;;;;;;;;;;;;;;;;;;;;;;;;;;;;;
"949764MB";;;"Windows 7";"Rachel's Experiment (D.T.)";"1.0";"2";"1";"1";"2";"1";"1";"2014-10-04 16:18:57.003";"2014-10-04 16:32:22.493";"1";"0";"0";"185";"184";"module.devaluation_block1.exec-3459.deval1";"9170";"2014-10-04 16:31:41.964";"16";"7";"8";"8";"1532";"1025";"3577";"2014-10-04 16:31:32.807";"2";;;;;;;;;;;;;;;;;;;;;;;;;;;;;;;;;;;;;;;;;;;;;;;;;;;;;;;;;;;;;;;;;;;;;;;;;;;;;;;;
"949764MB";;;"Windows 7";"Rachel's Experiment (D.T.)";"1.0";"2";"1";"1";"2";"1";"1";"2014-10-04 16:18:57.003";"2014-10-04 16:32:22.493";"1";"0";"0";"186";"185";"module.devaluation_block1.exec-3459.deval1";"8087";"2014-10-04 16:31:50.076";"13";"7";"7";"9";"1384";"2273";"1416";"2014-10-04 16:31:41.995";"2";;;;;;;;;;;;;;;;;;;;;;;;;;;;;;;;;;;;;;;;;;;;;;;;;;;;;;;;;;;;;;;;;;;;;;;;;;;;;;;;
"949764MB";;;"Windows 7";"Rachel's Experiment (D.T.)";"1.0";"2";"1";"1";"2";"1";"1";"2014-10-04 16:18:57.003";"2014-10-04 16:32:22.493";"1";"0";"0";"187";"186";"module.devaluation_block1.exec-3459.deval1";"11409";"2014-10-04 16:32:01.511";"18";"6";"5";"6";"2960";"2224";"3209";"2014-10-04 16:31:50.107";"3";;;;;;;;;;;;;;;;;;;;;;;;;;;;;;;;;;;;;;;;;;;;;;;;;;;;;;;;;;;;;;;;;;;;;;;;;;;;;;;;
"949764MB";;;"Windows 7";"Rachel's Experiment (D.T.)";"1.0";"2";"1";"1";"2";"1";"1";"2014-10-04 16:18:57.003";"2014-10-04 16:32:22.493";"1";"0";"0";"188";"187";"module.devaluation_block1.exec-3459.deval1";"6602";"2014-10-04 16:32:08.141";"14";"9";"8";"9";"1317";"1266";"988";"2014-10-04 16:32:01.542";"2";;;;;;;;;;;;;;;;;;;;;;;;;;;;;;;;;;;;;;;;;;;;;;;;;;;;;;;;;;;;;;;;;;;;;;;;;;;;;;;;
"949764MB";;;"Windows 7";"Rachel's Experiment (D.T.)";"1.0";"2";"1";"1";"2";"1";"1";"2014-10-04 16:18:57.003";"2014-10-04 16:32:22.493";"1";"0";"0";"189";"188";"module.devaluation_block1.exec-3459.deval1";"5762";"2014-10-04 16:32:13.929";"24";"9";"9";"9";"1046";"763";"926";"2014-10-04 16:32:08.157";"3";;;;;;;;;;;;;;;;;;;;;;;;;;;;;;;;;;;;;;;;;;;;;;;;;;;;;;;;;;;;;;;;;;;;;;;;;;;;;;;;
"949764MB";;;"Windows 7";"Rachel's Experiment (D.T.)";"1.0";"2";"1";"1";"2";"1";"1";"2014-10-04 16:18:57.003";"2014-10-04 16:32:22.493";"1";"0";"0";"190";"189";"module.devaluation_block1.exec-3459.deval1";"5802";"2014-10-04 16:32:19.747";"25";"9";"9";"9";"1083";"831";"868";"2014-10-04 16:32:13.944";"3";;;;;;;;;;;;;;;;;;;;;;;;;;;;;;;;;;;;;;;;;;;;;;;;;;;;;;;;;;;;;;;;;;;;;;;;;;;;;;;;
