"user.name";"user.yearOfBirth";"user.sex";"user.osName";"module.name";"module.version";"module.online.subject.code";"module.online.study.id";"module.online.module.nr";"module.online.group.nr";"session.id";"session.index";"session.startTime";"session.endTime";"session.completed";"session.node-2043.DevalQorder";"session.node-6993.conditionType";"trial.id";"trial.index";"trial.name";"trial.deval1.durationTime";"trial.deval1.endTime";"trial.deval1.icon";"trial.deval1.Resp_Attractive";"trial.deval1.Resp_Eat";"trial.deval1.Resp_Taste";"trial.deval1.RT_Attractive";"trial.deval1.RT_Eat";"trial.deval1.RT_Taste";"trial.deval1.startTime";"trial.deval1.stimulus type";"trial.devalPractice.durationTime";"trial.devalPractice.endTime";"trial.devalPractice.icon";"trial.devalPractice.Resp_Attractive";"trial.devalPractice.Resp_Eat";"trial.devalPractice.Resp_Taste";"trial.devalPractice.RT_Attractive";"trial.devalPractice.RT_Eat";"trial.devalPractice.RT_Taste";"trial.devalPractice.startTime";"trial.devalPractice.stimulus type";"trial.GoNoGo1.durationTime";"trial.GoNoGo1.endTime";"trial.GoNoGo1.Error Type";"trial.GoNoGo1.icon";"trial.GoNoGo1.location";"trial.GoNoGo1.outcome";"trial.GoNoGo1.response";"trial.GoNoGo1.result";"trial.GoNoGo1.RT";"trial.GoNoGo1.signal";"trial.GoNoGo1.startTime";"trial.GoNoGo1.stimulus type";"trial.GoNoGo2.durationTime";"trial.GoNoGo2.endTime";"trial.GoNoGo2.Error Type";"trial.GoNoGo2.icon";"trial.GoNoGo2.location";"trial.GoNoGo2.outcome";"trial.GoNoGo2.response";"trial.GoNoGo2.result";"trial.GoNoGo2.RT";"trial.GoNoGo2.signal";"trial.GoNoGo2.startTime";"trial.GoNoGo2.stimulus type";"trial.GoNoGo3.durationTime";"trial.GoNoGo3.endTime";"trial.GoNoGo3.Error Type";"trial.GoNoGo3.icon";"trial.GoNoGo3.location";"trial.GoNoGo3.outcome";"trial.GoNoGo3.response";"trial.GoNoGo3.result";"trial.GoNoGo3.RT";"trial.GoNoGo3.signal";"trial.GoNoGo3.startTime";"trial.GoNoGo3.stimulus type";"trial.GoNoGo4.durationTime";"trial.GoNoGo4.endTime";"trial.GoNoGo4.Error Type";"trial.GoNoGo4.icon";"trial.GoNoGo4.location";"trial.GoNoGo4.outcome";"trial.GoNoGo4.response";"trial.GoNoGo4.result";"trial.GoNoGo4.RT";"trial.GoNoGo4.signal";"trial.GoNoGo4.startTime";"trial.GoNoGo4.stimulus type";"trial.GoNoGo_Practice.durationTime";"trial.GoNoGo_Practice.endTime";"trial.GoNoGo_Practice.icon";"trial.GoNoGo_Practice.location";"trial.GoNoGo_Practice.outcome";"trial.GoNoGo_Practice.response";"trial.GoNoGo_Practice.result";"trial.GoNoGo_Practice.RT";"trial.GoNoGo_Practice.signal";"trial.GoNoGo_Practice.startTime";"trial.GoNoGo_Practice.stimulus type";"trial.GoNoGo_Tutorial.durationTime";"trial.GoNoGo_Tutorial.endTime";"trial.GoNoGo_Tutorial.icon";"trial.GoNoGo_Tutorial.location";"trial.GoNoGo_Tutorial.outcome";"trial.GoNoGo_Tutorial.response";"trial.GoNoGo_Tutorial.result";"trial.GoNoGo_Tutorial.RT";"trial.GoNoGo_Tutorial.signal";"trial.GoNoGo_Tutorial.startTime"
"psychtester11";"1985";;"Windows 7";"Rachel's Experiment (D.T.)";"1.0";"2";"1";"1";"2";"1";"1";"2014-07-17 13:38:20.187";"2014-07-17 13:51:20.171";"1";"1";"1";"1";"0";"module.GoNoGotutorial.exec-2991.GoNoGo_Tutorial";;;;;;;;;;;;;;;;;;;;;;;;;;;;;;;;;;;;;;;;;;;;;;;;;;;;;;;;;;;;;;;;;;;;;;;;;;;;;;;;;;"3998";"2014-07-17 13:39:23.875";"leftResponse";"0";"FINISHED";"LEFT";"success";"3714";"0";"2014-07-17 13:39:19.875"
"psychtester11";"1985";;"Windows 7";"Rachel's Experiment (D.T.)";"1.0";"2";"1";"1";"2";"1";"1";"2014-07-17 13:38:20.187";"2014-07-17 13:51:20.171";"1";"1";"1";"2";"1";"module.GoNoGotutorial.exec-2991.GoNoGo_Tutorial";;;;;;;;;;;;;;;;;;;;;;;;;;;;;;;;;;;;;;;;;;;;;;;;;;;;;;;;;;;;;;;;;;;;;;;;;;;;;;;;;;"3994";"2014-07-17 13:39:29.171";"rightResponse";"1";"FINISHED";"RIGHT";"success";"1062";"0";"2014-07-17 13:39:25.171"
"psychtester11";"1985";;"Windows 7";"Rachel's Experiment (D.T.)";"1.0";"2";"1";"1";"2";"1";"1";"2014-07-17 13:38:20.187";"2014-07-17 13:51:20.171";"1";"1";"1";"3";"2";"module.GoNoGotutorial.exec-2991.GoNoGo_Tutorial";;;;;;;;;;;;;;;;;;;;;;;;;;;;;;;;;;;;;;;;;;;;;;;;;;;;;;;;;;;;;;;;;;;;;;;;;;;;;;;;;;"3994";"2014-07-17 13:39:34.453";"signalResponse";"0";"FINISHED";"NONE";"success";"0";"1";"2014-07-17 13:39:30.453"
"psychtester11";"1985";;"Windows 7";"Rachel's Experiment (D.T.)";"1.0";"2";"1";"1";"2";"1";"1";"2014-07-17 13:38:20.187";"2014-07-17 13:51:20.171";"1";"1";"1";"4";"3";"module.GoNoGopractice.exec-2495.GoNoGo_Practice";;;;;;;;;;;;;;;;;;;;;;;;;;;;;;;;;;;;;;;;;;;;;;;;;;;;;;;;;;;;;;;;;;;;;;;"1947";"2014-07-17 13:39:41.921";"18";"0";"FINISHED";"LEFT";"success";"456";"0";"2014-07-17 13:39:39.968";"3";;;;;;;;;;
"psychtester11";"1985";;"Windows 7";"Rachel's Experiment (D.T.)";"1.0";"2";"1";"1";"2";"1";"1";"2014-07-17 13:38:20.187";"2014-07-17 13:51:20.171";"1";"1";"1";"5";"4";"module.GoNoGopractice.exec-2495.GoNoGo_Practice";;;;;;;;;;;;;;;;;;;;;;;;;;;;;;;;;;;;;;;;;;;;;;;;;;;;;;;;;;;;;;;;;;;;;;;"1946";"2014-07-17 13:39:45.156";"21";"1";"FINISHED";"RIGHT";"success";"349";"0";"2014-07-17 13:39:43.203";"3";;;;;;;;;;
"psychtester11";"1985";;"Windows 7";"Rachel's Experiment (D.T.)";"1.0";"2";"1";"1";"2";"1";"1";"2014-07-17 13:38:20.187";"2014-07-17 13:51:20.171";"1";"1";"1";"6";"5";"module.GoNoGopractice.exec-2495.GoNoGo_Practice";;;;;;;;;;;;;;;;;;;;;;;;;;;;;;;;;;;;;;;;;;;;;;;;;;;;;;;;;;;;;;;;;;;;;;;"1946";"2014-07-17 13:39:48.390";"14";"1";"FINISHED";"NONE";"success";"0";"1";"2014-07-17 13:39:46.437";"2";;;;;;;;;;
"psychtester11";"1985";;"Windows 7";"Rachel's Experiment (D.T.)";"1.0";"2";"1";"1";"2";"1";"1";"2014-07-17 13:38:20.187";"2014-07-17 13:51:20.171";"1";"1";"1";"7";"6";"module.GoNoGopractice.exec-2495.GoNoGo_Practice";;;;;;;;;;;;;;;;;;;;;;;;;;;;;;;;;;;;;;;;;;;;;;;;;;;;;;;;;;;;;;;;;;;;;;;"1947";"2014-07-17 13:39:51.625";"26";"0";"FINISHED";"LEFT";"success";"322";"0";"2014-07-17 13:39:49.671";"3";;;;;;;;;;
"psychtester11";"1985";;"Windows 7";"Rachel's Experiment (D.T.)";"1.0";"2";"1";"1";"2";"1";"1";"2014-07-17 13:38:20.187";"2014-07-17 13:51:20.171";"1";"1";"1";"8";"7";"module.GoNoGopractice.exec-2495.GoNoGo_Practice";;;;;;;;;;;;;;;;;;;;;;;;;;;;;;;;;;;;;;;;;;;;;;;;;;;;;;;;;;;;;;;;;;;;;;;"1947";"2014-07-17 13:39:54.859";"2";"0";"FINISHED";"LEFT";"success";"368";"0";"2014-07-17 13:39:52.906";"1";;;;;;;;;;
"psychtester11";"1985";;"Windows 7";"Rachel's Experiment (D.T.)";"1.0";"2";"1";"1";"2";"1";"1";"2014-07-17 13:38:20.187";"2014-07-17 13:51:20.171";"1";"1";"1";"9";"8";"module.GoNoGopractice.exec-2495.GoNoGo_Practice";;;;;;;;;;;;;;;;;;;;;;;;;;;;;;;;;;;;;;;;;;;;;;;;;;;;;;;;;;;;;;;;;;;;;;;"1948";"2014-07-17 13:39:58.093";"30";"0";"FINISHED";"LEFT";"failure";"422";"1";"2014-07-17 13:39:56.140";"3";;;;;;;;;;
"psychtester11";"1985";;"Windows 7";"Rachel's Experiment (D.T.)";"1.0";"2";"1";"1";"2";"1";"1";"2014-07-17 13:38:20.187";"2014-07-17 13:51:20.171";"1";"1";"1";"10";"9";"module.GoNoGopractice.exec-2495.GoNoGo_Practice";;;;;;;;;;;;;;;;;;;;;;;;;;;;;;;;;;;;;;;;;;;;;;;;;;;;;;;;;;;;;;;;;;;;;;;"1941";"2014-07-17 13:40:01.312";"6";"1";"FINISHED";"RIGHT";"failure";"516";"1";"2014-07-17 13:39:59.359";"1";;;;;;;;;;
"psychtester11";"1985";;"Windows 7";"Rachel's Experiment (D.T.)";"1.0";"2";"1";"1";"2";"1";"1";"2014-07-17 13:38:20.187";"2014-07-17 13:51:20.171";"1";"1";"1";"11";"10";"module.GoNoGopractice.exec-2495.GoNoGo_Practice";;;;;;;;;;;;;;;;;;;;;;;;;;;;;;;;;;;;;;;;;;;;;;;;;;;;;;;;;;;;;;;;;;;;;;;"1948";"2014-07-17 13:40:04.546";"34";"0";"FINISHED";"LEFT";"success";"497";"0";"2014-07-17 13:40:02.593";"3";;;;;;;;;;
"psychtester11";"1985";;"Windows 7";"Rachel's Experiment (D.T.)";"1.0";"2";"1";"1";"2";"1";"1";"2014-07-17 13:38:20.187";"2014-07-17 13:51:20.171";"1";"1";"1";"12";"11";"module.GoNoGopractice.exec-2495.GoNoGo_Practice";;;;;;;;;;;;;;;;;;;;;;;;;;;;;;;;;;;;;;;;;;;;;;;;;;;;;;;;;;;;;;;;;;;;;;;"1947";"2014-07-17 13:40:07.765";"23";"1";"FINISHED";"RIGHT";"success";"422";"0";"2014-07-17 13:40:05.812";"3";;;;;;;;;;
"psychtester11";"1985";;"Windows 7";"Rachel's Experiment (D.T.)";"1.0";"2";"1";"1";"2";"1";"1";"2014-07-17 13:38:20.187";"2014-07-17 13:51:20.171";"1";"1";"1";"13";"12";"module.GoNoGopractice.exec-2495.GoNoGo_Practice";;;;;;;;;;;;;;;;;;;;;;;;;;;;;;;;;;;;;;;;;;;;;;;;;;;;;;;;;;;;;;;;;;;;;;;"1947";"2014-07-17 13:40:10.984";"13";"0";"FINISHED";"LEFT";"failure";"371";"1";"2014-07-17 13:40:09.031";"2";;;;;;;;;;
"psychtester11";"1985";;"Windows 7";"Rachel's Experiment (D.T.)";"1.0";"2";"1";"1";"2";"1";"1";"2014-07-17 13:38:20.187";"2014-07-17 13:51:20.171";"1";"1";"1";"14";"13";"module.GoNoGopractice.exec-2495.GoNoGo_Practice";;;;;;;;;;;;;;;;;;;;;;;;;;;;;;;;;;;;;;;;;;;;;;;;;;;;;;;;;;;;;;;;;;;;;;;"1948";"2014-07-17 13:40:14.203";"3";"1";"FINISHED";"RIGHT";"success";"601";"0";"2014-07-17 13:40:12.250";"1";;;;;;;;;;
"psychtester11";"1985";;"Windows 7";"Rachel's Experiment (D.T.)";"1.0";"2";"1";"1";"2";"1";"1";"2014-07-17 13:38:20.187";"2014-07-17 13:51:20.171";"1";"1";"1";"15";"14";"module.GoNoGopractice.exec-2495.GoNoGo_Practice";;;;;;;;;;;;;;;;;;;;;;;;;;;;;;;;;;;;;;;;;;;;;;;;;;;;;;;;;;;;;;;;;;;;;;;"1947";"2014-07-17 13:40:17.421";"27";"1";"FINISHED";"NONE";"success";"0";"1";"2014-07-17 13:40:15.468";"3";;;;;;;;;;
"psychtester11";"1985";;"Windows 7";"Rachel's Experiment (D.T.)";"1.0";"2";"1";"1";"2";"1";"1";"2014-07-17 13:38:20.187";"2014-07-17 13:51:20.171";"1";"1";"1";"16";"15";"module.training_block1.exec-1260.GoNoGo1";;;;;;;;;;;;;;;;;;;;;;;"1244";"2014-07-17 13:40:26.984";"NST_correctLoc";"16";"0";"FINISHED";"LEFT";"success";"523";"0";"2014-07-17 13:40:25.734";"2";;;;;;;;;;;;;;;;;;;;;;;;;;;;;;;;;;;;;;;;;;;;;;;;;;;;;;;;;
"psychtester11";"1985";;"Windows 7";"Rachel's Experiment (D.T.)";"1.0";"2";"1";"1";"2";"1";"1";"2014-07-17 13:38:20.187";"2014-07-17 13:51:20.171";"1";"1";"1";"17";"16";"module.training_block1.exec-1260.GoNoGo1";;;;;;;;;;;;;;;;;;;;;;;"1244";"2014-07-17 13:40:29.515";"NST_correctLoc";"17";"0";"FINISHED";"LEFT";"success";"433";"0";"2014-07-17 13:40:28.265";"2";;;;;;;;;;;;;;;;;;;;;;;;;;;;;;;;;;;;;;;;;;;;;;;;;;;;;;;;;
"psychtester11";"1985";;"Windows 7";"Rachel's Experiment (D.T.)";"1.0";"2";"1";"1";"2";"1";"1";"2014-07-17 13:38:20.187";"2014-07-17 13:51:20.171";"1";"1";"1";"18";"17";"module.training_block1.exec-1260.GoNoGo1";;;;;;;;;;;;;;;;;;;;;;;"1248";"2014-07-17 13:40:32.031";"NST_correctLoc";"26";"1";"FINISHED";"RIGHT";"success";"433";"0";"2014-07-17 13:40:30.781";"3";;;;;;;;;;;;;;;;;;;;;;;;;;;;;;;;;;;;;;;;;;;;;;;;;;;;;;;;;
"psychtester11";"1985";;"Windows 7";"Rachel's Experiment (D.T.)";"1.0";"2";"1";"1";"2";"1";"1";"2014-07-17 13:38:20.187";"2014-07-17 13:51:20.171";"1";"1";"1";"19";"18";"module.training_block1.exec-1260.GoNoGo1";;;;;;;;;;;;;;;;;;;;;;;"1244";"2014-07-17 13:40:34.546";"NST_correctLoc";"9";"1";"FINISHED";"RIGHT";"success";"474";"0";"2014-07-17 13:40:33.296";"2";;;;;;;;;;;;;;;;;;;;;;;;;;;;;;;;;;;;;;;;;;;;;;;;;;;;;;;;;
"psychtester11";"1985";;"Windows 7";"Rachel's Experiment (D.T.)";"1.0";"2";"1";"1";"2";"1";"1";"2014-07-17 13:38:20.187";"2014-07-17 13:51:20.171";"1";"1";"1";"20";"19";"module.training_block1.exec-1260.GoNoGo1";;;;;;;;;;;;;;;;;;;;;;;"1244";"2014-07-17 13:40:37.062";"NST_correctLoc";"31";"1";"FINISHED";"RIGHT";"success";"454";"0";"2014-07-17 13:40:35.812";"3";;;;;;;;;;;;;;;;;;;;;;;;;;;;;;;;;;;;;;;;;;;;;;;;;;;;;;;;;
"psychtester11";"1985";;"Windows 7";"Rachel's Experiment (D.T.)";"1.0";"2";"1";"1";"2";"1";"1";"2014-07-17 13:38:20.187";"2014-07-17 13:51:20.171";"1";"1";"1";"21";"20";"module.training_block1.exec-1260.GoNoGo1";;;;;;;;;;;;;;;;;;;;;;;"1244";"2014-07-17 13:40:39.578";"ST_correctStop";"24";"0";"FINISHED";"NONE";"success";"0";"1";"2014-07-17 13:40:38.328";"3";;;;;;;;;;;;;;;;;;;;;;;;;;;;;;;;;;;;;;;;;;;;;;;;;;;;;;;;;
"psychtester11";"1985";;"Windows 7";"Rachel's Experiment (D.T.)";"1.0";"2";"1";"1";"2";"1";"1";"2014-07-17 13:38:20.187";"2014-07-17 13:51:20.171";"1";"1";"1";"22";"21";"module.training_block1.exec-1260.GoNoGo1";;;;;;;;;;;;;;;;;;;;;;;"1248";"2014-07-17 13:40:42.093";"NST_correctLoc";"21";"0";"FINISHED";"LEFT";"success";"314";"0";"2014-07-17 13:40:40.843";"3";;;;;;;;;;;;;;;;;;;;;;;;;;;;;;;;;;;;;;;;;;;;;;;;;;;;;;;;;
"psychtester11";"1985";;"Windows 7";"Rachel's Experiment (D.T.)";"1.0";"2";"1";"1";"2";"1";"1";"2014-07-17 13:38:20.187";"2014-07-17 13:51:20.171";"1";"1";"1";"23";"22";"module.training_block1.exec-1260.GoNoGo1";;;;;;;;;;;;;;;;;;;;;;;"1247";"2014-07-17 13:40:44.609";"NST_correctLoc";"14";"0";"FINISHED";"LEFT";"success";"351";"0";"2014-07-17 13:40:43.359";"2";;;;;;;;;;;;;;;;;;;;;;;;;;;;;;;;;;;;;;;;;;;;;;;;;;;;;;;;;
"psychtester11";"1985";;"Windows 7";"Rachel's Experiment (D.T.)";"1.0";"2";"1";"1";"2";"1";"1";"2014-07-17 13:38:20.187";"2014-07-17 13:51:20.171";"1";"1";"1";"24";"23";"module.training_block1.exec-1260.GoNoGo1";;;;;;;;;;;;;;;;;;;;;;;"1248";"2014-07-17 13:40:47.125";"NST_correctLoc";"18";"1";"FINISHED";"RIGHT";"success";"499";"0";"2014-07-17 13:40:45.875";"3";;;;;;;;;;;;;;;;;;;;;;;;;;;;;;;;;;;;;;;;;;;;;;;;;;;;;;;;;
"psychtester11";"1985";;"Windows 7";"Rachel's Experiment (D.T.)";"1.0";"2";"1";"1";"2";"1";"1";"2014-07-17 13:38:20.187";"2014-07-17 13:51:20.171";"1";"1";"1";"25";"24";"module.training_block1.exec-1260.GoNoGo1";;;;;;;;;;;;;;;;;;;;;;;"1241";"2014-07-17 13:40:49.812";"NST_correctLoc";"32";"0";"FINISHED";"LEFT";"success";"445";"0";"2014-07-17 13:40:48.562";"3";;;;;;;;;;;;;;;;;;;;;;;;;;;;;;;;;;;;;;;;;;;;;;;;;;;;;;;;;
"psychtester11";"1985";;"Windows 7";"Rachel's Experiment (D.T.)";"1.0";"2";"1";"1";"2";"1";"1";"2014-07-17 13:38:20.187";"2014-07-17 13:51:20.171";"1";"1";"1";"26";"25";"module.training_block1.exec-1260.GoNoGo1";;;;;;;;;;;;;;;;;;;;;;;"1244";"2014-07-17 13:40:52.328";"ST_correctStop";"0";"0";"FINISHED";"NONE";"success";"0";"1";"2014-07-17 13:40:51.078";"1";;;;;;;;;;;;;;;;;;;;;;;;;;;;;;;;;;;;;;;;;;;;;;;;;;;;;;;;;
"psychtester11";"1985";;"Windows 7";"Rachel's Experiment (D.T.)";"1.0";"2";"1";"1";"2";"1";"1";"2014-07-17 13:38:20.187";"2014-07-17 13:51:20.171";"1";"1";"1";"27";"26";"module.training_block1.exec-1260.GoNoGo1";;;;;;;;;;;;;;;;;;;;;;;"1244";"2014-07-17 13:40:54.843";"NST_correctLoc";"13";"1";"FINISHED";"RIGHT";"success";"353";"0";"2014-07-17 13:40:53.593";"2";;;;;;;;;;;;;;;;;;;;;;;;;;;;;;;;;;;;;;;;;;;;;;;;;;;;;;;;;
"psychtester11";"1985";;"Windows 7";"Rachel's Experiment (D.T.)";"1.0";"2";"1";"1";"2";"1";"1";"2014-07-17 13:38:20.187";"2014-07-17 13:51:20.171";"1";"1";"1";"28";"27";"module.training_block1.exec-1260.GoNoGo1";;;;;;;;;;;;;;;;;;;;;;;"1244";"2014-07-17 13:40:57.359";"NST_correctLoc";"10";"0";"FINISHED";"LEFT";"success";"510";"0";"2014-07-17 13:40:56.109";"2";;;;;;;;;;;;;;;;;;;;;;;;;;;;;;;;;;;;;;;;;;;;;;;;;;;;;;;;;
"psychtester11";"1985";;"Windows 7";"Rachel's Experiment (D.T.)";"1.0";"2";"1";"1";"2";"1";"1";"2014-07-17 13:38:20.187";"2014-07-17 13:51:20.171";"1";"1";"1";"29";"28";"module.training_block1.exec-1260.GoNoGo1";;;;;;;;;;;;;;;;;;;;;;;"1244";"2014-07-17 13:40:59.890";"NST_correctLoc";"23";"1";"FINISHED";"RIGHT";"success";"354";"0";"2014-07-17 13:40:58.640";"3";;;;;;;;;;;;;;;;;;;;;;;;;;;;;;;;;;;;;;;;;;;;;;;;;;;;;;;;;
"psychtester11";"1985";;"Windows 7";"Rachel's Experiment (D.T.)";"1.0";"2";"1";"1";"2";"1";"1";"2014-07-17 13:38:20.187";"2014-07-17 13:51:20.171";"1";"1";"1";"30";"29";"module.training_block1.exec-1260.GoNoGo1";;;;;;;;;;;;;;;;;;;;;;;"1245";"2014-07-17 13:41:02.406";"ST_correctStop";"1";"1";"FINISHED";"NONE";"success";"0";"1";"2014-07-17 13:41:01.156";"1";;;;;;;;;;;;;;;;;;;;;;;;;;;;;;;;;;;;;;;;;;;;;;;;;;;;;;;;;
"psychtester11";"1985";;"Windows 7";"Rachel's Experiment (D.T.)";"1.0";"2";"1";"1";"2";"1";"1";"2014-07-17 13:38:20.187";"2014-07-17 13:51:20.171";"1";"1";"1";"31";"30";"module.training_block1.exec-1260.GoNoGo1";;;;;;;;;;;;;;;;;;;;;;;"1244";"2014-07-17 13:41:04.921";"ST_correctStop";"8";"1";"FINISHED";"NONE";"success";"0";"1";"2014-07-17 13:41:03.671";"1";;;;;;;;;;;;;;;;;;;;;;;;;;;;;;;;;;;;;;;;;;;;;;;;;;;;;;;;;
"psychtester11";"1985";;"Windows 7";"Rachel's Experiment (D.T.)";"1.0";"2";"1";"1";"2";"1";"1";"2014-07-17 13:38:20.187";"2014-07-17 13:51:20.171";"1";"1";"1";"32";"31";"module.training_block1.exec-1260.GoNoGo1";;;;;;;;;;;;;;;;;;;;;;;"1245";"2014-07-17 13:41:07.437";"ST_correctStop";"3";"0";"FINISHED";"NONE";"success";"0";"1";"2014-07-17 13:41:06.187";"1";;;;;;;;;;;;;;;;;;;;;;;;;;;;;;;;;;;;;;;;;;;;;;;;;;;;;;;;;
"psychtester11";"1985";;"Windows 7";"Rachel's Experiment (D.T.)";"1.0";"2";"1";"1";"2";"1";"1";"2014-07-17 13:38:20.187";"2014-07-17 13:51:20.171";"1";"1";"1";"33";"32";"module.training_block1.exec-1260.GoNoGo1";;;;;;;;;;;;;;;;;;;;;;;"1245";"2014-07-17 13:41:09.953";"ST_correctStop";"19";"0";"FINISHED";"NONE";"success";"0";"1";"2014-07-17 13:41:08.703";"3";;;;;;;;;;;;;;;;;;;;;;;;;;;;;;;;;;;;;;;;;;;;;;;;;;;;;;;;;
"psychtester11";"1985";;"Windows 7";"Rachel's Experiment (D.T.)";"1.0";"2";"1";"1";"2";"1";"1";"2014-07-17 13:38:20.187";"2014-07-17 13:51:20.171";"1";"1";"1";"34";"33";"module.training_block1.exec-1260.GoNoGo1";;;;;;;;;;;;;;;;;;;;;;;"1244";"2014-07-17 13:41:12.468";"ST_correctStop";"6";"0";"FINISHED";"NONE";"success";"0";"1";"2014-07-17 13:41:11.218";"1";;;;;;;;;;;;;;;;;;;;;;;;;;;;;;;;;;;;;;;;;;;;;;;;;;;;;;;;;
"psychtester11";"1985";;"Windows 7";"Rachel's Experiment (D.T.)";"1.0";"2";"1";"1";"2";"1";"1";"2014-07-17 13:38:20.187";"2014-07-17 13:51:20.171";"1";"1";"1";"35";"34";"module.training_block1.exec-1260.GoNoGo1";;;;;;;;;;;;;;;;;;;;;;;"1244";"2014-07-17 13:41:14.984";"NST_correctLoc";"11";"0";"FINISHED";"LEFT";"success";"373";"0";"2014-07-17 13:41:13.734";"2";;;;;;;;;;;;;;;;;;;;;;;;;;;;;;;;;;;;;;;;;;;;;;;;;;;;;;;;;
"psychtester11";"1985";;"Windows 7";"Rachel's Experiment (D.T.)";"1.0";"2";"1";"1";"2";"1";"1";"2014-07-17 13:38:20.187";"2014-07-17 13:51:20.171";"1";"1";"1";"36";"35";"module.training_block1.exec-1260.GoNoGo1";;;;;;;;;;;;;;;;;;;;;;;"1244";"2014-07-17 13:41:17.500";"ST_correctStop";"5";"1";"FINISHED";"NONE";"success";"0";"1";"2014-07-17 13:41:16.250";"1";;;;;;;;;;;;;;;;;;;;;;;;;;;;;;;;;;;;;;;;;;;;;;;;;;;;;;;;;
"psychtester11";"1985";;"Windows 7";"Rachel's Experiment (D.T.)";"1.0";"2";"1";"1";"2";"1";"1";"2014-07-17 13:38:20.187";"2014-07-17 13:51:20.171";"1";"1";"1";"37";"36";"module.training_block1.exec-1260.GoNoGo1";;;;;;;;;;;;;;;;;;;;;;;"1244";"2014-07-17 13:41:20.015";"ST_correctStop";"20";"0";"FINISHED";"NONE";"success";"0";"1";"2014-07-17 13:41:18.765";"3";;;;;;;;;;;;;;;;;;;;;;;;;;;;;;;;;;;;;;;;;;;;;;;;;;;;;;;;;
"psychtester11";"1985";;"Windows 7";"Rachel's Experiment (D.T.)";"1.0";"2";"1";"1";"2";"1";"1";"2014-07-17 13:38:20.187";"2014-07-17 13:51:20.171";"1";"1";"1";"38";"37";"module.training_block1.exec-1260.GoNoGo1";;;;;;;;;;;;;;;;;;;;;;;"1244";"2014-07-17 13:41:22.531";"ST_correctStop";"22";"1";"FINISHED";"NONE";"success";"0";"1";"2014-07-17 13:41:21.281";"3";;;;;;;;;;;;;;;;;;;;;;;;;;;;;;;;;;;;;;;;;;;;;;;;;;;;;;;;;
"psychtester11";"1985";;"Windows 7";"Rachel's Experiment (D.T.)";"1.0";"2";"1";"1";"2";"1";"1";"2014-07-17 13:38:20.187";"2014-07-17 13:51:20.171";"1";"1";"1";"39";"38";"module.training_block1.exec-1260.GoNoGo1";;;;;;;;;;;;;;;;;;;;;;;"1245";"2014-07-17 13:41:25.046";"ST_correctStop";"35";"0";"FINISHED";"NONE";"success";"0";"1";"2014-07-17 13:41:23.796";"3";;;;;;;;;;;;;;;;;;;;;;;;;;;;;;;;;;;;;;;;;;;;;;;;;;;;;;;;;
"psychtester11";"1985";;"Windows 7";"Rachel's Experiment (D.T.)";"1.0";"2";"1";"1";"2";"1";"1";"2014-07-17 13:38:20.187";"2014-07-17 13:51:20.171";"1";"1";"1";"40";"39";"module.training_block1.exec-1260.GoNoGo1";;;;;;;;;;;;;;;;;;;;;;;"1244";"2014-07-17 13:41:27.562";"NST_correctLoc";"15";"1";"FINISHED";"RIGHT";"success";"419";"0";"2014-07-17 13:41:26.312";"2";;;;;;;;;;;;;;;;;;;;;;;;;;;;;;;;;;;;;;;;;;;;;;;;;;;;;;;;;
"psychtester11";"1985";;"Windows 7";"Rachel's Experiment (D.T.)";"1.0";"2";"1";"1";"2";"1";"1";"2014-07-17 13:38:20.187";"2014-07-17 13:51:20.171";"1";"1";"1";"41";"40";"module.training_block1.exec-1260.GoNoGo1";;;;;;;;;;;;;;;;;;;;;;;"1244";"2014-07-17 13:41:30.078";"NST_correctLoc";"29";"0";"FINISHED";"LEFT";"success";"351";"0";"2014-07-17 13:41:28.828";"3";;;;;;;;;;;;;;;;;;;;;;;;;;;;;;;;;;;;;;;;;;;;;;;;;;;;;;;;;
"psychtester11";"1985";;"Windows 7";"Rachel's Experiment (D.T.)";"1.0";"2";"1";"1";"2";"1";"1";"2014-07-17 13:38:20.187";"2014-07-17 13:51:20.171";"1";"1";"1";"42";"41";"module.training_block1.exec-1260.GoNoGo1";;;;;;;;;;;;;;;;;;;;;;;"1244";"2014-07-17 13:41:32.593";"ST_correctStop";"7";"1";"FINISHED";"NONE";"success";"0";"1";"2014-07-17 13:41:31.343";"1";;;;;;;;;;;;;;;;;;;;;;;;;;;;;;;;;;;;;;;;;;;;;;;;;;;;;;;;;
"psychtester11";"1985";;"Windows 7";"Rachel's Experiment (D.T.)";"1.0";"2";"1";"1";"2";"1";"1";"2014-07-17 13:38:20.187";"2014-07-17 13:51:20.171";"1";"1";"1";"43";"42";"module.training_block1.exec-1260.GoNoGo1";;;;;;;;;;;;;;;;;;;;;;;"1245";"2014-07-17 13:41:35.125";"ST_correctStop";"34";"1";"FINISHED";"NONE";"success";"0";"1";"2014-07-17 13:41:33.875";"3";;;;;;;;;;;;;;;;;;;;;;;;;;;;;;;;;;;;;;;;;;;;;;;;;;;;;;;;;
"psychtester11";"1985";;"Windows 7";"Rachel's Experiment (D.T.)";"1.0";"2";"1";"1";"2";"1";"1";"2014-07-17 13:38:20.187";"2014-07-17 13:51:20.171";"1";"1";"1";"44";"43";"module.training_block1.exec-1260.GoNoGo1";;;;;;;;;;;;;;;;;;;;;;;"1245";"2014-07-17 13:41:37.640";"ST_failedStop";"25";"0";"FINISHED";"LEFT";"failure";"349";"1";"2014-07-17 13:41:36.390";"3";;;;;;;;;;;;;;;;;;;;;;;;;;;;;;;;;;;;;;;;;;;;;;;;;;;;;;;;;
"psychtester11";"1985";;"Windows 7";"Rachel's Experiment (D.T.)";"1.0";"2";"1";"1";"2";"1";"1";"2014-07-17 13:38:20.187";"2014-07-17 13:51:20.171";"1";"1";"1";"45";"44";"module.training_block1.exec-1260.GoNoGo1";;;;;;;;;;;;;;;;;;;;;;;"1245";"2014-07-17 13:41:40.156";"NST_correctLoc";"28";"0";"FINISHED";"LEFT";"success";"522";"0";"2014-07-17 13:41:38.906";"3";;;;;;;;;;;;;;;;;;;;;;;;;;;;;;;;;;;;;;;;;;;;;;;;;;;;;;;;;
"psychtester11";"1985";;"Windows 7";"Rachel's Experiment (D.T.)";"1.0";"2";"1";"1";"2";"1";"1";"2014-07-17 13:38:20.187";"2014-07-17 13:51:20.171";"1";"1";"1";"46";"45";"module.training_block1.exec-1260.GoNoGo1";;;;;;;;;;;;;;;;;;;;;;;"1245";"2014-07-17 13:41:42.671";"ST_correctStop";"33";"1";"FINISHED";"NONE";"success";"0";"1";"2014-07-17 13:41:41.421";"3";;;;;;;;;;;;;;;;;;;;;;;;;;;;;;;;;;;;;;;;;;;;;;;;;;;;;;;;;
"psychtester11";"1985";;"Windows 7";"Rachel's Experiment (D.T.)";"1.0";"2";"1";"1";"2";"1";"1";"2014-07-17 13:38:20.187";"2014-07-17 13:51:20.171";"1";"1";"1";"47";"46";"module.training_block1.exec-1260.GoNoGo1";;;;;;;;;;;;;;;;;;;;;;;"1245";"2014-07-17 13:41:45.187";"NST_correctLoc";"30";"1";"FINISHED";"RIGHT";"success";"474";"0";"2014-07-17 13:41:43.937";"3";;;;;;;;;;;;;;;;;;;;;;;;;;;;;;;;;;;;;;;;;;;;;;;;;;;;;;;;;
"psychtester11";"1985";;"Windows 7";"Rachel's Experiment (D.T.)";"1.0";"2";"1";"1";"2";"1";"1";"2014-07-17 13:38:20.187";"2014-07-17 13:51:20.171";"1";"1";"1";"48";"47";"module.training_block1.exec-1260.GoNoGo1";;;;;;;;;;;;;;;;;;;;;;;"1245";"2014-07-17 13:41:47.703";"NST_correctLoc";"12";"1";"FINISHED";"RIGHT";"success";"463";"0";"2014-07-17 13:41:46.453";"2";;;;;;;;;;;;;;;;;;;;;;;;;;;;;;;;;;;;;;;;;;;;;;;;;;;;;;;;;
"psychtester11";"1985";;"Windows 7";"Rachel's Experiment (D.T.)";"1.0";"2";"1";"1";"2";"1";"1";"2014-07-17 13:38:20.187";"2014-07-17 13:51:20.171";"1";"1";"1";"49";"48";"module.training_block1.exec-1260.GoNoGo1";;;;;;;;;;;;;;;;;;;;;;;"1244";"2014-07-17 13:41:50.218";"ST_correctStop";"27";"1";"FINISHED";"NONE";"success";"0";"1";"2014-07-17 13:41:48.968";"3";;;;;;;;;;;;;;;;;;;;;;;;;;;;;;;;;;;;;;;;;;;;;;;;;;;;;;;;;
"psychtester11";"1985";;"Windows 7";"Rachel's Experiment (D.T.)";"1.0";"2";"1";"1";"2";"1";"1";"2014-07-17 13:38:20.187";"2014-07-17 13:51:20.171";"1";"1";"1";"50";"49";"module.training_block1.exec-1260.GoNoGo1";;;;;;;;;;;;;;;;;;;;;;;"1244";"2014-07-17 13:41:52.734";"ST_failedStop";"4";"1";"FINISHED";"RIGHT";"failure";"287";"1";"2014-07-17 13:41:51.484";"1";;;;;;;;;;;;;;;;;;;;;;;;;;;;;;;;;;;;;;;;;;;;;;;;;;;;;;;;;
"psychtester11";"1985";;"Windows 7";"Rachel's Experiment (D.T.)";"1.0";"2";"1";"1";"2";"1";"1";"2014-07-17 13:38:20.187";"2014-07-17 13:51:20.171";"1";"1";"1";"51";"50";"module.training_block1.exec-1260.GoNoGo1";;;;;;;;;;;;;;;;;;;;;;;"1244";"2014-07-17 13:41:55.250";"ST_correctStop";"2";"0";"FINISHED";"NONE";"success";"0";"1";"2014-07-17 13:41:54.000";"1";;;;;;;;;;;;;;;;;;;;;;;;;;;;;;;;;;;;;;;;;;;;;;;;;;;;;;;;;
"psychtester11";"1985";;"Windows 7";"Rachel's Experiment (D.T.)";"1.0";"2";"1";"1";"2";"1";"1";"2014-07-17 13:38:20.187";"2014-07-17 13:51:20.171";"1";"1";"1";"52";"51";"module.training_block2.exec-9335.GoNoGo2";;;;;;;;;;;;;;;;;;;;;;;;;;;;;;;;;;;"1248";"2014-07-17 13:42:06.703";"NST_correctLoc";"35";"0";"FINISHED";"LEFT";"success";"554";"0";"2014-07-17 13:42:05.453";"3";;;;;;;;;;;;;;;;;;;;;;;;;;;;;;;;;;;;;;;;;;;;;
"psychtester11";"1985";;"Windows 7";"Rachel's Experiment (D.T.)";"1.0";"2";"1";"1";"2";"1";"1";"2014-07-17 13:38:20.187";"2014-07-17 13:51:20.171";"1";"1";"1";"53";"52";"module.training_block2.exec-9335.GoNoGo2";;;;;;;;;;;;;;;;;;;;;;;;;;;;;;;;;;;"1244";"2014-07-17 13:42:09.218";"ST_correctStop";"24";"1";"FINISHED";"NONE";"success";"0";"1";"2014-07-17 13:42:07.968";"3";;;;;;;;;;;;;;;;;;;;;;;;;;;;;;;;;;;;;;;;;;;;;
"psychtester11";"1985";;"Windows 7";"Rachel's Experiment (D.T.)";"1.0";"2";"1";"1";"2";"1";"1";"2014-07-17 13:38:20.187";"2014-07-17 13:51:20.171";"1";"1";"1";"54";"53";"module.training_block2.exec-9335.GoNoGo2";;;;;;;;;;;;;;;;;;;;;;;;;;;;;;;;;;;"1248";"2014-07-17 13:42:11.734";"ST_correctStop";"6";"1";"FINISHED";"NONE";"success";"0";"1";"2014-07-17 13:42:10.484";"1";;;;;;;;;;;;;;;;;;;;;;;;;;;;;;;;;;;;;;;;;;;;;
"psychtester11";"1985";;"Windows 7";"Rachel's Experiment (D.T.)";"1.0";"2";"1";"1";"2";"1";"1";"2014-07-17 13:38:20.187";"2014-07-17 13:51:20.171";"1";"1";"1";"55";"54";"module.training_block2.exec-9335.GoNoGo2";;;;;;;;;;;;;;;;;;;;;;;;;;;;;;;;;;;"1248";"2014-07-17 13:42:14.250";"NST_correctLoc";"18";"1";"FINISHED";"RIGHT";"success";"439";"0";"2014-07-17 13:42:13.000";"3";;;;;;;;;;;;;;;;;;;;;;;;;;;;;;;;;;;;;;;;;;;;;
"psychtester11";"1985";;"Windows 7";"Rachel's Experiment (D.T.)";"1.0";"2";"1";"1";"2";"1";"1";"2014-07-17 13:38:20.187";"2014-07-17 13:51:20.171";"1";"1";"1";"56";"55";"module.training_block2.exec-9335.GoNoGo2";;;;;;;;;;;;;;;;;;;;;;;;;;;;;;;;;;;"1248";"2014-07-17 13:42:16.765";"ST_correctStop";"33";"1";"FINISHED";"NONE";"success";"0";"1";"2014-07-17 13:42:15.515";"3";;;;;;;;;;;;;;;;;;;;;;;;;;;;;;;;;;;;;;;;;;;;;
"psychtester11";"1985";;"Windows 7";"Rachel's Experiment (D.T.)";"1.0";"2";"1";"1";"2";"1";"1";"2014-07-17 13:38:20.187";"2014-07-17 13:51:20.171";"1";"1";"1";"57";"56";"module.training_block2.exec-9335.GoNoGo2";;;;;;;;;;;;;;;;;;;;;;;;;;;;;;;;;;;"1248";"2014-07-17 13:42:19.281";"NST_correctLoc";"30";"0";"FINISHED";"LEFT";"success";"408";"0";"2014-07-17 13:42:18.031";"3";;;;;;;;;;;;;;;;;;;;;;;;;;;;;;;;;;;;;;;;;;;;;
"psychtester11";"1985";;"Windows 7";"Rachel's Experiment (D.T.)";"1.0";"2";"1";"1";"2";"1";"1";"2014-07-17 13:38:20.187";"2014-07-17 13:51:20.171";"1";"1";"1";"58";"57";"module.training_block2.exec-9335.GoNoGo2";;;;;;;;;;;;;;;;;;;;;;;;;;;;;;;;;;;"1248";"2014-07-17 13:42:21.796";"ST_correctStop";"19";"1";"FINISHED";"NONE";"success";"0";"1";"2014-07-17 13:42:20.546";"3";;;;;;;;;;;;;;;;;;;;;;;;;;;;;;;;;;;;;;;;;;;;;
"psychtester11";"1985";;"Windows 7";"Rachel's Experiment (D.T.)";"1.0";"2";"1";"1";"2";"1";"1";"2014-07-17 13:38:20.187";"2014-07-17 13:51:20.171";"1";"1";"1";"59";"58";"module.training_block2.exec-9335.GoNoGo2";;;;;;;;;;;;;;;;;;;;;;;;;;;;;;;;;;;"1248";"2014-07-17 13:42:24.312";"NST_correctLoc";"15";"1";"FINISHED";"RIGHT";"success";"713";"0";"2014-07-17 13:42:23.062";"2";;;;;;;;;;;;;;;;;;;;;;;;;;;;;;;;;;;;;;;;;;;;;
"psychtester11";"1985";;"Windows 7";"Rachel's Experiment (D.T.)";"1.0";"2";"1";"1";"2";"1";"1";"2014-07-17 13:38:20.187";"2014-07-17 13:51:20.171";"1";"1";"1";"60";"59";"module.training_block2.exec-9335.GoNoGo2";;;;;;;;;;;;;;;;;;;;;;;;;;;;;;;;;;;"1248";"2014-07-17 13:42:26.828";"ST_correctStop";"5";"1";"FINISHED";"NONE";"success";"0";"1";"2014-07-17 13:42:25.578";"1";;;;;;;;;;;;;;;;;;;;;;;;;;;;;;;;;;;;;;;;;;;;;
"psychtester11";"1985";;"Windows 7";"Rachel's Experiment (D.T.)";"1.0";"2";"1";"1";"2";"1";"1";"2014-07-17 13:38:20.187";"2014-07-17 13:51:20.171";"1";"1";"1";"61";"60";"module.training_block2.exec-9335.GoNoGo2";;;;;;;;;;;;;;;;;;;;;;;;;;;;;;;;;;;"1248";"2014-07-17 13:42:29.343";"ST_correctStop";"32";"0";"FINISHED";"NONE";"success";"0";"1";"2014-07-17 13:42:28.093";"3";;;;;;;;;;;;;;;;;;;;;;;;;;;;;;;;;;;;;;;;;;;;;
"psychtester11";"1985";;"Windows 7";"Rachel's Experiment (D.T.)";"1.0";"2";"1";"1";"2";"1";"1";"2014-07-17 13:38:20.187";"2014-07-17 13:51:20.171";"1";"1";"1";"62";"61";"module.training_block2.exec-9335.GoNoGo2";;;;;;;;;;;;;;;;;;;;;;;;;;;;;;;;;;;"1248";"2014-07-17 13:42:31.859";"ST_correctStop";"0";"1";"FINISHED";"NONE";"success";"0";"1";"2014-07-17 13:42:30.609";"1";;;;;;;;;;;;;;;;;;;;;;;;;;;;;;;;;;;;;;;;;;;;;
"psychtester11";"1985";;"Windows 7";"Rachel's Experiment (D.T.)";"1.0";"2";"1";"1";"2";"1";"1";"2014-07-17 13:38:20.187";"2014-07-17 13:51:20.171";"1";"1";"1";"63";"62";"module.training_block2.exec-9335.GoNoGo2";;;;;;;;;;;;;;;;;;;;;;;;;;;;;;;;;;;"1248";"2014-07-17 13:42:34.375";"ST_correctStop";"7";"1";"FINISHED";"NONE";"success";"0";"1";"2014-07-17 13:42:33.125";"1";;;;;;;;;;;;;;;;;;;;;;;;;;;;;;;;;;;;;;;;;;;;;
"psychtester11";"1985";;"Windows 7";"Rachel's Experiment (D.T.)";"1.0";"2";"1";"1";"2";"1";"1";"2014-07-17 13:38:20.187";"2014-07-17 13:51:20.171";"1";"1";"1";"64";"63";"module.training_block2.exec-9335.GoNoGo2";;;;;;;;;;;;;;;;;;;;;;;;;;;;;;;;;;;"1248";"2014-07-17 13:42:36.890";"NST_correctLoc";"34";"1";"FINISHED";"RIGHT";"success";"519";"0";"2014-07-17 13:42:35.640";"3";;;;;;;;;;;;;;;;;;;;;;;;;;;;;;;;;;;;;;;;;;;;;
"psychtester11";"1985";;"Windows 7";"Rachel's Experiment (D.T.)";"1.0";"2";"1";"1";"2";"1";"1";"2014-07-17 13:38:20.187";"2014-07-17 13:51:20.171";"1";"1";"1";"65";"64";"module.training_block2.exec-9335.GoNoGo2";;;;;;;;;;;;;;;;;;;;;;;;;;;;;;;;;;;"1248";"2014-07-17 13:42:39.406";"NST_correctLoc";"12";"1";"FINISHED";"RIGHT";"success";"467";"0";"2014-07-17 13:42:38.156";"2";;;;;;;;;;;;;;;;;;;;;;;;;;;;;;;;;;;;;;;;;;;;;
"psychtester11";"1985";;"Windows 7";"Rachel's Experiment (D.T.)";"1.0";"2";"1";"1";"2";"1";"1";"2014-07-17 13:38:20.187";"2014-07-17 13:51:20.171";"1";"1";"1";"66";"65";"module.training_block2.exec-9335.GoNoGo2";;;;;;;;;;;;;;;;;;;;;;;;;;;;;;;;;;;"1248";"2014-07-17 13:42:41.937";"ST_correctStop";"2";"0";"FINISHED";"NONE";"success";"0";"1";"2014-07-17 13:42:40.687";"1";;;;;;;;;;;;;;;;;;;;;;;;;;;;;;;;;;;;;;;;;;;;;
"psychtester11";"1985";;"Windows 7";"Rachel's Experiment (D.T.)";"1.0";"2";"1";"1";"2";"1";"1";"2014-07-17 13:38:20.187";"2014-07-17 13:51:20.171";"1";"1";"1";"67";"66";"module.training_block2.exec-9335.GoNoGo2";;;;;;;;;;;;;;;;;;;;;;;;;;;;;;;;;;;"1247";"2014-07-17 13:42:44.453";"ST_correctStop";"27";"1";"FINISHED";"NONE";"success";"0";"1";"2014-07-17 13:42:43.203";"3";;;;;;;;;;;;;;;;;;;;;;;;;;;;;;;;;;;;;;;;;;;;;
"psychtester11";"1985";;"Windows 7";"Rachel's Experiment (D.T.)";"1.0";"2";"1";"1";"2";"1";"1";"2014-07-17 13:38:20.187";"2014-07-17 13:51:20.171";"1";"1";"1";"68";"67";"module.training_block2.exec-9335.GoNoGo2";;;;;;;;;;;;;;;;;;;;;;;;;;;;;;;;;;;"1243";"2014-07-17 13:42:46.968";"NST_correctLoc";"16";"0";"FINISHED";"LEFT";"success";"341";"0";"2014-07-17 13:42:45.718";"2";;;;;;;;;;;;;;;;;;;;;;;;;;;;;;;;;;;;;;;;;;;;;
"psychtester11";"1985";;"Windows 7";"Rachel's Experiment (D.T.)";"1.0";"2";"1";"1";"2";"1";"1";"2014-07-17 13:38:20.187";"2014-07-17 13:51:20.171";"1";"1";"1";"69";"68";"module.training_block2.exec-9335.GoNoGo2";;;;;;;;;;;;;;;;;;;;;;;;;;;;;;;;;;;"1244";"2014-07-17 13:42:49.484";"NST_correctLoc";"9";"0";"FINISHED";"LEFT";"success";"402";"0";"2014-07-17 13:42:48.234";"2";;;;;;;;;;;;;;;;;;;;;;;;;;;;;;;;;;;;;;;;;;;;;
"psychtester11";"1985";;"Windows 7";"Rachel's Experiment (D.T.)";"1.0";"2";"1";"1";"2";"1";"1";"2014-07-17 13:38:20.187";"2014-07-17 13:51:20.171";"1";"1";"1";"70";"69";"module.training_block2.exec-9335.GoNoGo2";;;;;;;;;;;;;;;;;;;;;;;;;;;;;;;;;;;"1248";"2014-07-17 13:42:52.000";"NST_correctLoc";"25";"0";"FINISHED";"LEFT";"success";"362";"0";"2014-07-17 13:42:50.750";"3";;;;;;;;;;;;;;;;;;;;;;;;;;;;;;;;;;;;;;;;;;;;;
"psychtester11";"1985";;"Windows 7";"Rachel's Experiment (D.T.)";"1.0";"2";"1";"1";"2";"1";"1";"2014-07-17 13:38:20.187";"2014-07-17 13:51:20.171";"1";"1";"1";"71";"70";"module.training_block2.exec-9335.GoNoGo2";;;;;;;;;;;;;;;;;;;;;;;;;;;;;;;;;;;"1248";"2014-07-17 13:42:54.515";"ST_correctStop";"29";"0";"FINISHED";"NONE";"success";"0";"1";"2014-07-17 13:42:53.265";"3";;;;;;;;;;;;;;;;;;;;;;;;;;;;;;;;;;;;;;;;;;;;;
"psychtester11";"1985";;"Windows 7";"Rachel's Experiment (D.T.)";"1.0";"2";"1";"1";"2";"1";"1";"2014-07-17 13:38:20.187";"2014-07-17 13:51:20.171";"1";"1";"1";"72";"71";"module.training_block2.exec-9335.GoNoGo2";;;;;;;;;;;;;;;;;;;;;;;;;;;;;;;;;;;"1244";"2014-07-17 13:42:57.031";"NST_correctLoc";"14";"1";"FINISHED";"RIGHT";"success";"343";"0";"2014-07-17 13:42:55.781";"2";;;;;;;;;;;;;;;;;;;;;;;;;;;;;;;;;;;;;;;;;;;;;
"psychtester11";"1985";;"Windows 7";"Rachel's Experiment (D.T.)";"1.0";"2";"1";"1";"2";"1";"1";"2014-07-17 13:38:20.187";"2014-07-17 13:51:20.171";"1";"1";"1";"73";"72";"module.training_block2.exec-9335.GoNoGo2";;;;;;;;;;;;;;;;;;;;;;;;;;;;;;;;;;;"1248";"2014-07-17 13:42:59.546";"ST_correctStop";"4";"0";"FINISHED";"NONE";"success";"0";"1";"2014-07-17 13:42:58.296";"1";;;;;;;;;;;;;;;;;;;;;;;;;;;;;;;;;;;;;;;;;;;;;
"psychtester11";"1985";;"Windows 7";"Rachel's Experiment (D.T.)";"1.0";"2";"1";"1";"2";"1";"1";"2014-07-17 13:38:20.187";"2014-07-17 13:51:20.171";"1";"1";"1";"74";"73";"module.training_block2.exec-9335.GoNoGo2";;;;;;;;;;;;;;;;;;;;;;;;;;;;;;;;;;;"1248";"2014-07-17 13:43:02.062";"ST_correctStop";"1";"0";"FINISHED";"NONE";"success";"0";"1";"2014-07-17 13:43:00.812";"1";;;;;;;;;;;;;;;;;;;;;;;;;;;;;;;;;;;;;;;;;;;;;
"psychtester11";"1985";;"Windows 7";"Rachel's Experiment (D.T.)";"1.0";"2";"1";"1";"2";"1";"1";"2014-07-17 13:38:20.187";"2014-07-17 13:51:20.171";"1";"1";"1";"75";"74";"module.training_block2.exec-9335.GoNoGo2";;;;;;;;;;;;;;;;;;;;;;;;;;;;;;;;;;;"1248";"2014-07-17 13:43:04.578";"NST_correctLoc";"13";"0";"FINISHED";"LEFT";"success";"432";"0";"2014-07-17 13:43:03.328";"2";;;;;;;;;;;;;;;;;;;;;;;;;;;;;;;;;;;;;;;;;;;;;
"psychtester11";"1985";;"Windows 7";"Rachel's Experiment (D.T.)";"1.0";"2";"1";"1";"2";"1";"1";"2014-07-17 13:38:20.187";"2014-07-17 13:51:20.171";"1";"1";"1";"76";"75";"module.training_block2.exec-9335.GoNoGo2";;;;;;;;;;;;;;;;;;;;;;;;;;;;;;;;;;;"1248";"2014-07-17 13:43:07.093";"ST_correctStop";"8";"0";"FINISHED";"NONE";"success";"0";"1";"2014-07-17 13:43:05.843";"1";;;;;;;;;;;;;;;;;;;;;;;;;;;;;;;;;;;;;;;;;;;;;
"psychtester11";"1985";;"Windows 7";"Rachel's Experiment (D.T.)";"1.0";"2";"1";"1";"2";"1";"1";"2014-07-17 13:38:20.187";"2014-07-17 13:51:20.171";"1";"1";"1";"77";"76";"module.training_block2.exec-9335.GoNoGo2";;;;;;;;;;;;;;;;;;;;;;;;;;;;;;;;;;;"1248";"2014-07-17 13:43:09.609";"NST_correctLoc";"22";"1";"FINISHED";"RIGHT";"success";"337";"0";"2014-07-17 13:43:08.359";"3";;;;;;;;;;;;;;;;;;;;;;;;;;;;;;;;;;;;;;;;;;;;;
"psychtester11";"1985";;"Windows 7";"Rachel's Experiment (D.T.)";"1.0";"2";"1";"1";"2";"1";"1";"2014-07-17 13:38:20.187";"2014-07-17 13:51:20.171";"1";"1";"1";"78";"77";"module.training_block2.exec-9335.GoNoGo2";;;;;;;;;;;;;;;;;;;;;;;;;;;;;;;;;;;"1248";"2014-07-17 13:43:12.125";"NST_correctLoc";"10";"0";"FINISHED";"LEFT";"success";"509";"0";"2014-07-17 13:43:10.875";"2";;;;;;;;;;;;;;;;;;;;;;;;;;;;;;;;;;;;;;;;;;;;;
"psychtester11";"1985";;"Windows 7";"Rachel's Experiment (D.T.)";"1.0";"2";"1";"1";"2";"1";"1";"2014-07-17 13:38:20.187";"2014-07-17 13:51:20.171";"1";"1";"1";"79";"78";"module.training_block2.exec-9335.GoNoGo2";;;;;;;;;;;;;;;;;;;;;;;;;;;;;;;;;;;"1244";"2014-07-17 13:43:14.640";"ST_correctStop";"26";"0";"FINISHED";"NONE";"success";"0";"1";"2014-07-17 13:43:13.390";"3";;;;;;;;;;;;;;;;;;;;;;;;;;;;;;;;;;;;;;;;;;;;;
"psychtester11";"1985";;"Windows 7";"Rachel's Experiment (D.T.)";"1.0";"2";"1";"1";"2";"1";"1";"2014-07-17 13:38:20.187";"2014-07-17 13:51:20.171";"1";"1";"1";"80";"79";"module.training_block2.exec-9335.GoNoGo2";;;;;;;;;;;;;;;;;;;;;;;;;;;;;;;;;;;"1243";"2014-07-17 13:43:17.156";"NST_correctLoc";"21";"1";"FINISHED";"RIGHT";"success";"305";"0";"2014-07-17 13:43:15.906";"3";;;;;;;;;;;;;;;;;;;;;;;;;;;;;;;;;;;;;;;;;;;;;
"psychtester11";"1985";;"Windows 7";"Rachel's Experiment (D.T.)";"1.0";"2";"1";"1";"2";"1";"1";"2014-07-17 13:38:20.187";"2014-07-17 13:51:20.171";"1";"1";"1";"81";"80";"module.training_block2.exec-9335.GoNoGo2";;;;;;;;;;;;;;;;;;;;;;;;;;;;;;;;;;;"1248";"2014-07-17 13:43:19.671";"NST_correctLoc";"23";"1";"FINISHED";"RIGHT";"success";"426";"0";"2014-07-17 13:43:18.421";"3";;;;;;;;;;;;;;;;;;;;;;;;;;;;;;;;;;;;;;;;;;;;;
"psychtester11";"1985";;"Windows 7";"Rachel's Experiment (D.T.)";"1.0";"2";"1";"1";"2";"1";"1";"2014-07-17 13:38:20.187";"2014-07-17 13:51:20.171";"1";"1";"1";"82";"81";"module.training_block2.exec-9335.GoNoGo2";;;;;;;;;;;;;;;;;;;;;;;;;;;;;;;;;;;"1248";"2014-07-17 13:43:22.187";"NST_correctLoc";"11";"1";"FINISHED";"RIGHT";"success";"303";"0";"2014-07-17 13:43:20.937";"2";;;;;;;;;;;;;;;;;;;;;;;;;;;;;;;;;;;;;;;;;;;;;
"psychtester11";"1985";;"Windows 7";"Rachel's Experiment (D.T.)";"1.0";"2";"1";"1";"2";"1";"1";"2014-07-17 13:38:20.187";"2014-07-17 13:51:20.171";"1";"1";"1";"83";"82";"module.training_block2.exec-9335.GoNoGo2";;;;;;;;;;;;;;;;;;;;;;;;;;;;;;;;;;;"1248";"2014-07-17 13:43:24.703";"ST_correctStop";"28";"0";"FINISHED";"NONE";"success";"0";"1";"2014-07-17 13:43:23.453";"3";;;;;;;;;;;;;;;;;;;;;;;;;;;;;;;;;;;;;;;;;;;;;
"psychtester11";"1985";;"Windows 7";"Rachel's Experiment (D.T.)";"1.0";"2";"1";"1";"2";"1";"1";"2014-07-17 13:38:20.187";"2014-07-17 13:51:20.171";"1";"1";"1";"84";"83";"module.training_block2.exec-9335.GoNoGo2";;;;;;;;;;;;;;;;;;;;;;;;;;;;;;;;;;;"1248";"2014-07-17 13:43:27.218";"ST_correctStop";"3";"1";"FINISHED";"NONE";"success";"0";"1";"2014-07-17 13:43:25.968";"1";;;;;;;;;;;;;;;;;;;;;;;;;;;;;;;;;;;;;;;;;;;;;
"psychtester11";"1985";;"Windows 7";"Rachel's Experiment (D.T.)";"1.0";"2";"1";"1";"2";"1";"1";"2014-07-17 13:38:20.187";"2014-07-17 13:51:20.171";"1";"1";"1";"85";"84";"module.training_block2.exec-9335.GoNoGo2";;;;;;;;;;;;;;;;;;;;;;;;;;;;;;;;;;;"1244";"2014-07-17 13:43:29.734";"ST_correctStop";"31";"1";"FINISHED";"NONE";"success";"0";"1";"2014-07-17 13:43:28.484";"3";;;;;;;;;;;;;;;;;;;;;;;;;;;;;;;;;;;;;;;;;;;;;
"psychtester11";"1985";;"Windows 7";"Rachel's Experiment (D.T.)";"1.0";"2";"1";"1";"2";"1";"1";"2014-07-17 13:38:20.187";"2014-07-17 13:51:20.171";"1";"1";"1";"86";"85";"module.training_block2.exec-9335.GoNoGo2";;;;;;;;;;;;;;;;;;;;;;;;;;;;;;;;;;;"1248";"2014-07-17 13:43:32.250";"NST_correctLoc";"20";"0";"FINISHED";"LEFT";"success";"344";"0";"2014-07-17 13:43:31.000";"3";;;;;;;;;;;;;;;;;;;;;;;;;;;;;;;;;;;;;;;;;;;;;
"psychtester11";"1985";;"Windows 7";"Rachel's Experiment (D.T.)";"1.0";"2";"1";"1";"2";"1";"1";"2014-07-17 13:38:20.187";"2014-07-17 13:51:20.171";"1";"1";"1";"87";"86";"module.training_block2.exec-9335.GoNoGo2";;;;;;;;;;;;;;;;;;;;;;;;;;;;;;;;;;;"1244";"2014-07-17 13:43:34.765";"NST_correctLoc";"17";"0";"FINISHED";"LEFT";"success";"361";"0";"2014-07-17 13:43:33.515";"2";;;;;;;;;;;;;;;;;;;;;;;;;;;;;;;;;;;;;;;;;;;;;
"psychtester11";"1985";;"Windows 7";"Rachel's Experiment (D.T.)";"1.0";"2";"1";"1";"2";"1";"1";"2014-07-17 13:38:20.187";"2014-07-17 13:51:20.171";"1";"1";"1";"88";"87";"module.training_block3.exec-1536.GoNoGo3";;;;;;;;;;;;;;;;;;;;;;;;;;;;;;;;;;;;;;;;;;;;;;;"1248";"2014-07-17 13:43:45.859";"NST_correctLoc";"30";"0";"FINISHED";"LEFT";"success";"407";"0";"2014-07-17 13:43:44.609";"3";;;;;;;;;;;;;;;;;;;;;;;;;;;;;;;;;
"psychtester11";"1985";;"Windows 7";"Rachel's Experiment (D.T.)";"1.0";"2";"1";"1";"2";"1";"1";"2014-07-17 13:38:20.187";"2014-07-17 13:51:20.171";"1";"1";"1";"89";"88";"module.training_block3.exec-1536.GoNoGo3";;;;;;;;;;;;;;;;;;;;;;;;;;;;;;;;;;;;;;;;;;;;;;;"1248";"2014-07-17 13:43:48.375";"ST_failedStop";"35";"0";"FINISHED";"LEFT";"failure";"324";"1";"2014-07-17 13:43:47.125";"3";;;;;;;;;;;;;;;;;;;;;;;;;;;;;;;;;
"psychtester11";"1985";;"Windows 7";"Rachel's Experiment (D.T.)";"1.0";"2";"1";"1";"2";"1";"1";"2014-07-17 13:38:20.187";"2014-07-17 13:51:20.171";"1";"1";"1";"90";"89";"module.training_block3.exec-1536.GoNoGo3";;;;;;;;;;;;;;;;;;;;;;;;;;;;;;;;;;;;;;;;;;;;;;;"1242";"2014-07-17 13:43:50.890";"ST_correctStop";"32";"0";"FINISHED";"NONE";"success";"0";"1";"2014-07-17 13:43:49.640";"3";;;;;;;;;;;;;;;;;;;;;;;;;;;;;;;;;
"psychtester11";"1985";;"Windows 7";"Rachel's Experiment (D.T.)";"1.0";"2";"1";"1";"2";"1";"1";"2014-07-17 13:38:20.187";"2014-07-17 13:51:20.171";"1";"1";"1";"91";"90";"module.training_block3.exec-1536.GoNoGo3";;;;;;;;;;;;;;;;;;;;;;;;;;;;;;;;;;;;;;;;;;;;;;;"1248";"2014-07-17 13:43:53.406";"NST_correctLoc";"21";"0";"FINISHED";"LEFT";"success";"340";"0";"2014-07-17 13:43:52.156";"3";;;;;;;;;;;;;;;;;;;;;;;;;;;;;;;;;
"psychtester11";"1985";;"Windows 7";"Rachel's Experiment (D.T.)";"1.0";"2";"1";"1";"2";"1";"1";"2014-07-17 13:38:20.187";"2014-07-17 13:51:20.171";"1";"1";"1";"92";"91";"module.training_block3.exec-1536.GoNoGo3";;;;;;;;;;;;;;;;;;;;;;;;;;;;;;;;;;;;;;;;;;;;;;;"1248";"2014-07-17 13:43:55.921";"NST_correctLoc";"19";"1";"FINISHED";"RIGHT";"success";"401";"0";"2014-07-17 13:43:54.671";"3";;;;;;;;;;;;;;;;;;;;;;;;;;;;;;;;;
"psychtester11";"1985";;"Windows 7";"Rachel's Experiment (D.T.)";"1.0";"2";"1";"1";"2";"1";"1";"2014-07-17 13:38:20.187";"2014-07-17 13:51:20.171";"1";"1";"1";"93";"92";"module.training_block3.exec-1536.GoNoGo3";;;;;;;;;;;;;;;;;;;;;;;;;;;;;;;;;;;;;;;;;;;;;;;"1248";"2014-07-17 13:43:58.437";"NST_correctLoc";"15";"1";"FINISHED";"RIGHT";"success";"333";"0";"2014-07-17 13:43:57.187";"2";;;;;;;;;;;;;;;;;;;;;;;;;;;;;;;;;
"psychtester11";"1985";;"Windows 7";"Rachel's Experiment (D.T.)";"1.0";"2";"1";"1";"2";"1";"1";"2014-07-17 13:38:20.187";"2014-07-17 13:51:20.171";"1";"1";"1";"94";"93";"module.training_block3.exec-1536.GoNoGo3";;;;;;;;;;;;;;;;;;;;;;;;;;;;;;;;;;;;;;;;;;;;;;;"1248";"2014-07-17 13:44:00.953";"NST_correctLoc";"11";"1";"FINISHED";"RIGHT";"success";"330";"0";"2014-07-17 13:43:59.703";"2";;;;;;;;;;;;;;;;;;;;;;;;;;;;;;;;;
"psychtester11";"1985";;"Windows 7";"Rachel's Experiment (D.T.)";"1.0";"2";"1";"1";"2";"1";"1";"2014-07-17 13:38:20.187";"2014-07-17 13:51:20.171";"1";"1";"1";"95";"94";"module.training_block3.exec-1536.GoNoGo3";;;;;;;;;;;;;;;;;;;;;;;;;;;;;;;;;;;;;;;;;;;;;;;"1248";"2014-07-17 13:44:03.468";"ST_correctStop";"7";"0";"FINISHED";"NONE";"success";"0";"1";"2014-07-17 13:44:02.218";"1";;;;;;;;;;;;;;;;;;;;;;;;;;;;;;;;;
"psychtester11";"1985";;"Windows 7";"Rachel's Experiment (D.T.)";"1.0";"2";"1";"1";"2";"1";"1";"2014-07-17 13:38:20.187";"2014-07-17 13:51:20.171";"1";"1";"1";"96";"95";"module.training_block3.exec-1536.GoNoGo3";;;;;;;;;;;;;;;;;;;;;;;;;;;;;;;;;;;;;;;;;;;;;;;"1248";"2014-07-17 13:44:05.984";"NST_correctLoc";"14";"0";"FINISHED";"LEFT";"success";"347";"0";"2014-07-17 13:44:04.734";"2";;;;;;;;;;;;;;;;;;;;;;;;;;;;;;;;;
"psychtester11";"1985";;"Windows 7";"Rachel's Experiment (D.T.)";"1.0";"2";"1";"1";"2";"1";"1";"2014-07-17 13:38:20.187";"2014-07-17 13:51:20.171";"1";"1";"1";"97";"96";"module.training_block3.exec-1536.GoNoGo3";;;;;;;;;;;;;;;;;;;;;;;;;;;;;;;;;;;;;;;;;;;;;;;"1248";"2014-07-17 13:44:08.500";"ST_correctStop";"29";"0";"FINISHED";"NONE";"success";"0";"1";"2014-07-17 13:44:07.250";"3";;;;;;;;;;;;;;;;;;;;;;;;;;;;;;;;;
"psychtester11";"1985";;"Windows 7";"Rachel's Experiment (D.T.)";"1.0";"2";"1";"1";"2";"1";"1";"2014-07-17 13:38:20.187";"2014-07-17 13:51:20.171";"1";"1";"1";"98";"97";"module.training_block3.exec-1536.GoNoGo3";;;;;;;;;;;;;;;;;;;;;;;;;;;;;;;;;;;;;;;;;;;;;;;"1248";"2014-07-17 13:44:11.015";"NST_correctLoc";"24";"1";"FINISHED";"RIGHT";"success";"339";"0";"2014-07-17 13:44:09.765";"3";;;;;;;;;;;;;;;;;;;;;;;;;;;;;;;;;
"psychtester11";"1985";;"Windows 7";"Rachel's Experiment (D.T.)";"1.0";"2";"1";"1";"2";"1";"1";"2014-07-17 13:38:20.187";"2014-07-17 13:51:20.171";"1";"1";"1";"99";"98";"module.training_block3.exec-1536.GoNoGo3";;;;;;;;;;;;;;;;;;;;;;;;;;;;;;;;;;;;;;;;;;;;;;;"1248";"2014-07-17 13:44:13.531";"NST_correctLoc";"23";"1";"FINISHED";"RIGHT";"success";"440";"0";"2014-07-17 13:44:12.281";"3";;;;;;;;;;;;;;;;;;;;;;;;;;;;;;;;;
"psychtester11";"1985";;"Windows 7";"Rachel's Experiment (D.T.)";"1.0";"2";"1";"1";"2";"1";"1";"2014-07-17 13:38:20.187";"2014-07-17 13:51:20.171";"1";"1";"1";"100";"99";"module.training_block3.exec-1536.GoNoGo3";;;;;;;;;;;;;;;;;;;;;;;;;;;;;;;;;;;;;;;;;;;;;;;"1248";"2014-07-17 13:44:16.046";"NST_correctLoc";"10";"1";"FINISHED";"RIGHT";"success";"316";"0";"2014-07-17 13:44:14.796";"2";;;;;;;;;;;;;;;;;;;;;;;;;;;;;;;;;
"psychtester11";"1985";;"Windows 7";"Rachel's Experiment (D.T.)";"1.0";"2";"1";"1";"2";"1";"1";"2014-07-17 13:38:20.187";"2014-07-17 13:51:20.171";"1";"1";"1";"101";"100";"module.training_block3.exec-1536.GoNoGo3";;;;;;;;;;;;;;;;;;;;;;;;;;;;;;;;;;;;;;;;;;;;;;;"1248";"2014-07-17 13:44:18.562";"ST_correctStop";"33";"1";"FINISHED";"NONE";"success";"0";"1";"2014-07-17 13:44:17.312";"3";;;;;;;;;;;;;;;;;;;;;;;;;;;;;;;;;
"psychtester11";"1985";;"Windows 7";"Rachel's Experiment (D.T.)";"1.0";"2";"1";"1";"2";"1";"1";"2014-07-17 13:38:20.187";"2014-07-17 13:51:20.171";"1";"1";"1";"102";"101";"module.training_block3.exec-1536.GoNoGo3";;;;;;;;;;;;;;;;;;;;;;;;;;;;;;;;;;;;;;;;;;;;;;;"1248";"2014-07-17 13:44:21.078";"NST_correctLoc";"18";"1";"FINISHED";"RIGHT";"success";"333";"0";"2014-07-17 13:44:19.828";"3";;;;;;;;;;;;;;;;;;;;;;;;;;;;;;;;;
"psychtester11";"1985";;"Windows 7";"Rachel's Experiment (D.T.)";"1.0";"2";"1";"1";"2";"1";"1";"2014-07-17 13:38:20.187";"2014-07-17 13:51:20.171";"1";"1";"1";"103";"102";"module.training_block3.exec-1536.GoNoGo3";;;;;;;;;;;;;;;;;;;;;;;;;;;;;;;;;;;;;;;;;;;;;;;"1248";"2014-07-17 13:44:23.593";"ST_correctStop";"2";"0";"FINISHED";"NONE";"success";"0";"1";"2014-07-17 13:44:22.343";"1";;;;;;;;;;;;;;;;;;;;;;;;;;;;;;;;;
"psychtester11";"1985";;"Windows 7";"Rachel's Experiment (D.T.)";"1.0";"2";"1";"1";"2";"1";"1";"2014-07-17 13:38:20.187";"2014-07-17 13:51:20.171";"1";"1";"1";"104";"103";"module.training_block3.exec-1536.GoNoGo3";;;;;;;;;;;;;;;;;;;;;;;;;;;;;;;;;;;;;;;;;;;;;;;"1248";"2014-07-17 13:44:26.109";"ST_failedStop";"26";"1";"FINISHED";"RIGHT";"failure";"286";"1";"2014-07-17 13:44:24.859";"3";;;;;;;;;;;;;;;;;;;;;;;;;;;;;;;;;
"psychtester11";"1985";;"Windows 7";"Rachel's Experiment (D.T.)";"1.0";"2";"1";"1";"2";"1";"1";"2014-07-17 13:38:20.187";"2014-07-17 13:51:20.171";"1";"1";"1";"105";"104";"module.training_block3.exec-1536.GoNoGo3";;;;;;;;;;;;;;;;;;;;;;;;;;;;;;;;;;;;;;;;;;;;;;;"1248";"2014-07-17 13:44:28.625";"NST_correctLoc";"13";"1";"FINISHED";"RIGHT";"success";"378";"0";"2014-07-17 13:44:27.375";"2";;;;;;;;;;;;;;;;;;;;;;;;;;;;;;;;;
"psychtester11";"1985";;"Windows 7";"Rachel's Experiment (D.T.)";"1.0";"2";"1";"1";"2";"1";"1";"2014-07-17 13:38:20.187";"2014-07-17 13:51:20.171";"1";"1";"1";"106";"105";"module.training_block3.exec-1536.GoNoGo3";;;;;;;;;;;;;;;;;;;;;;;;;;;;;;;;;;;;;;;;;;;;;;;"1248";"2014-07-17 13:44:31.140";"ST_correctStop";"6";"1";"FINISHED";"NONE";"success";"0";"1";"2014-07-17 13:44:29.890";"1";;;;;;;;;;;;;;;;;;;;;;;;;;;;;;;;;
"psychtester11";"1985";;"Windows 7";"Rachel's Experiment (D.T.)";"1.0";"2";"1";"1";"2";"1";"1";"2014-07-17 13:38:20.187";"2014-07-17 13:51:20.171";"1";"1";"1";"107";"106";"module.training_block3.exec-1536.GoNoGo3";;;;;;;;;;;;;;;;;;;;;;;;;;;;;;;;;;;;;;;;;;;;;;;"1248";"2014-07-17 13:44:33.656";"ST_correctStop";"4";"1";"FINISHED";"NONE";"success";"0";"1";"2014-07-17 13:44:32.406";"1";;;;;;;;;;;;;;;;;;;;;;;;;;;;;;;;;
"psychtester11";"1985";;"Windows 7";"Rachel's Experiment (D.T.)";"1.0";"2";"1";"1";"2";"1";"1";"2014-07-17 13:38:20.187";"2014-07-17 13:51:20.171";"1";"1";"1";"108";"107";"module.training_block3.exec-1536.GoNoGo3";;;;;;;;;;;;;;;;;;;;;;;;;;;;;;;;;;;;;;;;;;;;;;;"1248";"2014-07-17 13:44:36.171";"NST_correctLoc";"16";"1";"FINISHED";"RIGHT";"success";"367";"0";"2014-07-17 13:44:34.921";"2";;;;;;;;;;;;;;;;;;;;;;;;;;;;;;;;;
"psychtester11";"1985";;"Windows 7";"Rachel's Experiment (D.T.)";"1.0";"2";"1";"1";"2";"1";"1";"2014-07-17 13:38:20.187";"2014-07-17 13:51:20.171";"1";"1";"1";"109";"108";"module.training_block3.exec-1536.GoNoGo3";;;;;;;;;;;;;;;;;;;;;;;;;;;;;;;;;;;;;;;;;;;;;;;"1248";"2014-07-17 13:44:38.687";"ST_failedStop";"1";"0";"FINISHED";"LEFT";"failure";"436";"1";"2014-07-17 13:44:37.437";"1";;;;;;;;;;;;;;;;;;;;;;;;;;;;;;;;;
"psychtester11";"1985";;"Windows 7";"Rachel's Experiment (D.T.)";"1.0";"2";"1";"1";"2";"1";"1";"2014-07-17 13:38:20.187";"2014-07-17 13:51:20.171";"1";"1";"1";"110";"109";"module.training_block3.exec-1536.GoNoGo3";;;;;;;;;;;;;;;;;;;;;;;;;;;;;;;;;;;;;;;;;;;;;;;"1249";"2014-07-17 13:44:41.203";"ST_correctStop";"8";"0";"FINISHED";"NONE";"success";"0";"1";"2014-07-17 13:44:39.953";"1";;;;;;;;;;;;;;;;;;;;;;;;;;;;;;;;;
"psychtester11";"1985";;"Windows 7";"Rachel's Experiment (D.T.)";"1.0";"2";"1";"1";"2";"1";"1";"2014-07-17 13:38:20.187";"2014-07-17 13:51:20.171";"1";"1";"1";"111";"110";"module.training_block3.exec-1536.GoNoGo3";;;;;;;;;;;;;;;;;;;;;;;;;;;;;;;;;;;;;;;;;;;;;;;"1248";"2014-07-17 13:44:43.718";"NST_correctLoc";"27";"1";"FINISHED";"RIGHT";"success";"349";"0";"2014-07-17 13:44:42.468";"3";;;;;;;;;;;;;;;;;;;;;;;;;;;;;;;;;
"psychtester11";"1985";;"Windows 7";"Rachel's Experiment (D.T.)";"1.0";"2";"1";"1";"2";"1";"1";"2014-07-17 13:38:20.187";"2014-07-17 13:51:20.171";"1";"1";"1";"112";"111";"module.training_block3.exec-1536.GoNoGo3";;;;;;;;;;;;;;;;;;;;;;;;;;;;;;;;;;;;;;;;;;;;;;;"1248";"2014-07-17 13:44:46.234";"ST_correctStop";"0";"1";"FINISHED";"NONE";"success";"0";"1";"2014-07-17 13:44:44.984";"1";;;;;;;;;;;;;;;;;;;;;;;;;;;;;;;;;
"psychtester11";"1985";;"Windows 7";"Rachel's Experiment (D.T.)";"1.0";"2";"1";"1";"2";"1";"1";"2014-07-17 13:38:20.187";"2014-07-17 13:51:20.171";"1";"1";"1";"113";"112";"module.training_block3.exec-1536.GoNoGo3";;;;;;;;;;;;;;;;;;;;;;;;;;;;;;;;;;;;;;;;;;;;;;;"1248";"2014-07-17 13:44:48.750";"NST_correctLoc";"9";"0";"FINISHED";"LEFT";"success";"797";"0";"2014-07-17 13:44:47.500";"2";;;;;;;;;;;;;;;;;;;;;;;;;;;;;;;;;
"psychtester11";"1985";;"Windows 7";"Rachel's Experiment (D.T.)";"1.0";"2";"1";"1";"2";"1";"1";"2014-07-17 13:38:20.187";"2014-07-17 13:51:20.171";"1";"1";"1";"114";"113";"module.training_block3.exec-1536.GoNoGo3";;;;;;;;;;;;;;;;;;;;;;;;;;;;;;;;;;;;;;;;;;;;;;;"1248";"2014-07-17 13:44:51.265";"NST_correctLoc";"12";"1";"FINISHED";"RIGHT";"success";"354";"0";"2014-07-17 13:44:50.015";"2";;;;;;;;;;;;;;;;;;;;;;;;;;;;;;;;;
"psychtester11";"1985";;"Windows 7";"Rachel's Experiment (D.T.)";"1.0";"2";"1";"1";"2";"1";"1";"2014-07-17 13:38:20.187";"2014-07-17 13:51:20.171";"1";"1";"1";"115";"114";"module.training_block3.exec-1536.GoNoGo3";;;;;;;;;;;;;;;;;;;;;;;;;;;;;;;;;;;;;;;;;;;;;;;"1248";"2014-07-17 13:44:53.781";"NST_correctLoc";"28";"1";"FINISHED";"RIGHT";"success";"350";"0";"2014-07-17 13:44:52.531";"3";;;;;;;;;;;;;;;;;;;;;;;;;;;;;;;;;
"psychtester11";"1985";;"Windows 7";"Rachel's Experiment (D.T.)";"1.0";"2";"1";"1";"2";"1";"1";"2014-07-17 13:38:20.187";"2014-07-17 13:51:20.171";"1";"1";"1";"116";"115";"module.training_block3.exec-1536.GoNoGo3";;;;;;;;;;;;;;;;;;;;;;;;;;;;;;;;;;;;;;;;;;;;;;;"1248";"2014-07-17 13:44:56.296";"ST_correctStop";"22";"0";"FINISHED";"NONE";"success";"0";"1";"2014-07-17 13:44:55.046";"3";;;;;;;;;;;;;;;;;;;;;;;;;;;;;;;;;
"psychtester11";"1985";;"Windows 7";"Rachel's Experiment (D.T.)";"1.0";"2";"1";"1";"2";"1";"1";"2014-07-17 13:38:20.187";"2014-07-17 13:51:20.171";"1";"1";"1";"117";"116";"module.training_block3.exec-1536.GoNoGo3";;;;;;;;;;;;;;;;;;;;;;;;;;;;;;;;;;;;;;;;;;;;;;;"1248";"2014-07-17 13:44:58.812";"NST_correctLoc";"17";"1";"FINISHED";"RIGHT";"success";"351";"0";"2014-07-17 13:44:57.562";"2";;;;;;;;;;;;;;;;;;;;;;;;;;;;;;;;;
"psychtester11";"1985";;"Windows 7";"Rachel's Experiment (D.T.)";"1.0";"2";"1";"1";"2";"1";"1";"2014-07-17 13:38:20.187";"2014-07-17 13:51:20.171";"1";"1";"1";"118";"117";"module.training_block3.exec-1536.GoNoGo3";;;;;;;;;;;;;;;;;;;;;;;;;;;;;;;;;;;;;;;;;;;;;;;"1248";"2014-07-17 13:45:01.328";"NST_correctLoc";"25";"0";"FINISHED";"LEFT";"success";"363";"0";"2014-07-17 13:45:00.078";"3";;;;;;;;;;;;;;;;;;;;;;;;;;;;;;;;;
"psychtester11";"1985";;"Windows 7";"Rachel's Experiment (D.T.)";"1.0";"2";"1";"1";"2";"1";"1";"2014-07-17 13:38:20.187";"2014-07-17 13:51:20.171";"1";"1";"1";"119";"118";"module.training_block3.exec-1536.GoNoGo3";;;;;;;;;;;;;;;;;;;;;;;;;;;;;;;;;;;;;;;;;;;;;;;"1248";"2014-07-17 13:45:03.843";"ST_failedStop";"31";"1";"FINISHED";"RIGHT";"failure";"312";"1";"2014-07-17 13:45:02.593";"3";;;;;;;;;;;;;;;;;;;;;;;;;;;;;;;;;
"psychtester11";"1985";;"Windows 7";"Rachel's Experiment (D.T.)";"1.0";"2";"1";"1";"2";"1";"1";"2014-07-17 13:38:20.187";"2014-07-17 13:51:20.171";"1";"1";"1";"120";"119";"module.training_block3.exec-1536.GoNoGo3";;;;;;;;;;;;;;;;;;;;;;;;;;;;;;;;;;;;;;;;;;;;;;;"1248";"2014-07-17 13:45:06.359";"ST_correctStop";"34";"1";"FINISHED";"NONE";"success";"0";"1";"2014-07-17 13:45:05.109";"3";;;;;;;;;;;;;;;;;;;;;;;;;;;;;;;;;
"psychtester11";"1985";;"Windows 7";"Rachel's Experiment (D.T.)";"1.0";"2";"1";"1";"2";"1";"1";"2014-07-17 13:38:20.187";"2014-07-17 13:51:20.171";"1";"1";"1";"121";"120";"module.training_block3.exec-1536.GoNoGo3";;;;;;;;;;;;;;;;;;;;;;;;;;;;;;;;;;;;;;;;;;;;;;;"1248";"2014-07-17 13:45:08.875";"ST_correctStop";"3";"1";"FINISHED";"NONE";"success";"0";"1";"2014-07-17 13:45:07.625";"1";;;;;;;;;;;;;;;;;;;;;;;;;;;;;;;;;
"psychtester11";"1985";;"Windows 7";"Rachel's Experiment (D.T.)";"1.0";"2";"1";"1";"2";"1";"1";"2014-07-17 13:38:20.187";"2014-07-17 13:51:20.171";"1";"1";"1";"122";"121";"module.training_block3.exec-1536.GoNoGo3";;;;;;;;;;;;;;;;;;;;;;;;;;;;;;;;;;;;;;;;;;;;;;;"1248";"2014-07-17 13:45:11.390";"ST_correctStop";"20";"1";"FINISHED";"NONE";"success";"0";"1";"2014-07-17 13:45:10.140";"3";;;;;;;;;;;;;;;;;;;;;;;;;;;;;;;;;
"psychtester11";"1985";;"Windows 7";"Rachel's Experiment (D.T.)";"1.0";"2";"1";"1";"2";"1";"1";"2014-07-17 13:38:20.187";"2014-07-17 13:51:20.171";"1";"1";"1";"123";"122";"module.training_block3.exec-1536.GoNoGo3";;;;;;;;;;;;;;;;;;;;;;;;;;;;;;;;;;;;;;;;;;;;;;;"1248";"2014-07-17 13:45:13.906";"ST_correctStop";"5";"0";"FINISHED";"NONE";"success";"0";"1";"2014-07-17 13:45:12.656";"1";;;;;;;;;;;;;;;;;;;;;;;;;;;;;;;;;
"psychtester11";"1985";;"Windows 7";"Rachel's Experiment (D.T.)";"1.0";"2";"1";"1";"2";"1";"1";"2014-07-17 13:38:20.187";"2014-07-17 13:51:20.171";"1";"1";"1";"124";"123";"module.training_block4.exec-1669.GoNoGo4";;;;;;;;;;;;;;;;;;;;;;;;;;;;;;;;;;;;;;;;;;;;;;;;;;;;;;;;;;;"1248";"2014-07-17 13:45:27.796";"ST_correctStop";"34";"1";"FINISHED";"NONE";"success";"0";"1";"2014-07-17 13:45:26.546";"3";;;;;;;;;;;;;;;;;;;;;
"psychtester11";"1985";;"Windows 7";"Rachel's Experiment (D.T.)";"1.0";"2";"1";"1";"2";"1";"1";"2014-07-17 13:38:20.187";"2014-07-17 13:51:20.171";"1";"1";"1";"125";"124";"module.training_block4.exec-1669.GoNoGo4";;;;;;;;;;;;;;;;;;;;;;;;;;;;;;;;;;;;;;;;;;;;;;;;;;;;;;;;;;;"1248";"2014-07-17 13:45:30.312";"ST_correctStop";"4";"0";"FINISHED";"NONE";"success";"0";"1";"2014-07-17 13:45:29.062";"1";;;;;;;;;;;;;;;;;;;;;
"psychtester11";"1985";;"Windows 7";"Rachel's Experiment (D.T.)";"1.0";"2";"1";"1";"2";"1";"1";"2014-07-17 13:38:20.187";"2014-07-17 13:51:20.171";"1";"1";"1";"126";"125";"module.training_block4.exec-1669.GoNoGo4";;;;;;;;;;;;;;;;;;;;;;;;;;;;;;;;;;;;;;;;;;;;;;;;;;;;;;;;;;;"1248";"2014-07-17 13:45:32.828";"NST_correctLoc";"12";"0";"FINISHED";"LEFT";"success";"376";"0";"2014-07-17 13:45:31.578";"2";;;;;;;;;;;;;;;;;;;;;
"psychtester11";"1985";;"Windows 7";"Rachel's Experiment (D.T.)";"1.0";"2";"1";"1";"2";"1";"1";"2014-07-17 13:38:20.187";"2014-07-17 13:51:20.171";"1";"1";"1";"127";"126";"module.training_block4.exec-1669.GoNoGo4";;;;;;;;;;;;;;;;;;;;;;;;;;;;;;;;;;;;;;;;;;;;;;;;;;;;;;;;;;;"1248";"2014-07-17 13:45:35.343";"NST_correctLoc";"29";"0";"FINISHED";"LEFT";"success";"356";"0";"2014-07-17 13:45:34.093";"3";;;;;;;;;;;;;;;;;;;;;
"psychtester11";"1985";;"Windows 7";"Rachel's Experiment (D.T.)";"1.0";"2";"1";"1";"2";"1";"1";"2014-07-17 13:38:20.187";"2014-07-17 13:51:20.171";"1";"1";"1";"128";"127";"module.training_block4.exec-1669.GoNoGo4";;;;;;;;;;;;;;;;;;;;;;;;;;;;;;;;;;;;;;;;;;;;;;;;;;;;;;;;;;;"1248";"2014-07-17 13:45:37.859";"ST_correctStop";"8";"1";"FINISHED";"NONE";"success";"0";"1";"2014-07-17 13:45:36.609";"1";;;;;;;;;;;;;;;;;;;;;
"psychtester11";"1985";;"Windows 7";"Rachel's Experiment (D.T.)";"1.0";"2";"1";"1";"2";"1";"1";"2014-07-17 13:38:20.187";"2014-07-17 13:51:20.171";"1";"1";"1";"129";"128";"module.training_block4.exec-1669.GoNoGo4";;;;;;;;;;;;;;;;;;;;;;;;;;;;;;;;;;;;;;;;;;;;;;;;;;;;;;;;;;;"1248";"2014-07-17 13:45:40.375";"ST_failedStop";"6";"0";"FINISHED";"LEFT";"failure";"269";"1";"2014-07-17 13:45:39.125";"1";;;;;;;;;;;;;;;;;;;;;
"psychtester11";"1985";;"Windows 7";"Rachel's Experiment (D.T.)";"1.0";"2";"1";"1";"2";"1";"1";"2014-07-17 13:38:20.187";"2014-07-17 13:51:20.171";"1";"1";"1";"130";"129";"module.training_block4.exec-1669.GoNoGo4";;;;;;;;;;;;;;;;;;;;;;;;;;;;;;;;;;;;;;;;;;;;;;;;;;;;;;;;;;;"1248";"2014-07-17 13:45:42.890";"ST_correctStop";"30";"0";"FINISHED";"NONE";"success";"0";"1";"2014-07-17 13:45:41.640";"3";;;;;;;;;;;;;;;;;;;;;
"psychtester11";"1985";;"Windows 7";"Rachel's Experiment (D.T.)";"1.0";"2";"1";"1";"2";"1";"1";"2014-07-17 13:38:20.187";"2014-07-17 13:51:20.171";"1";"1";"1";"131";"130";"module.training_block4.exec-1669.GoNoGo4";;;;;;;;;;;;;;;;;;;;;;;;;;;;;;;;;;;;;;;;;;;;;;;;;;;;;;;;;;;"1248";"2014-07-17 13:45:45.406";"NST_correctLoc";"15";"1";"FINISHED";"RIGHT";"success";"422";"0";"2014-07-17 13:45:44.156";"2";;;;;;;;;;;;;;;;;;;;;
"psychtester11";"1985";;"Windows 7";"Rachel's Experiment (D.T.)";"1.0";"2";"1";"1";"2";"1";"1";"2014-07-17 13:38:20.187";"2014-07-17 13:51:20.171";"1";"1";"1";"132";"131";"module.training_block4.exec-1669.GoNoGo4";;;;;;;;;;;;;;;;;;;;;;;;;;;;;;;;;;;;;;;;;;;;;;;;;;;;;;;;;;;"1248";"2014-07-17 13:45:47.921";"ST_correctStop";"24";"0";"FINISHED";"NONE";"success";"0";"1";"2014-07-17 13:45:46.671";"3";;;;;;;;;;;;;;;;;;;;;
"psychtester11";"1985";;"Windows 7";"Rachel's Experiment (D.T.)";"1.0";"2";"1";"1";"2";"1";"1";"2014-07-17 13:38:20.187";"2014-07-17 13:51:20.171";"1";"1";"1";"133";"132";"module.training_block4.exec-1669.GoNoGo4";;;;;;;;;;;;;;;;;;;;;;;;;;;;;;;;;;;;;;;;;;;;;;;;;;;;;;;;;;;"1248";"2014-07-17 13:45:50.437";"NST_correctLoc";"20";"0";"FINISHED";"LEFT";"success";"359";"0";"2014-07-17 13:45:49.187";"3";;;;;;;;;;;;;;;;;;;;;
"psychtester11";"1985";;"Windows 7";"Rachel's Experiment (D.T.)";"1.0";"2";"1";"1";"2";"1";"1";"2014-07-17 13:38:20.187";"2014-07-17 13:51:20.171";"1";"1";"1";"134";"133";"module.training_block4.exec-1669.GoNoGo4";;;;;;;;;;;;;;;;;;;;;;;;;;;;;;;;;;;;;;;;;;;;;;;;;;;;;;;;;;;"1248";"2014-07-17 13:45:52.953";"ST_correctStop";"25";"1";"FINISHED";"NONE";"success";"0";"1";"2014-07-17 13:45:51.703";"3";;;;;;;;;;;;;;;;;;;;;
"psychtester11";"1985";;"Windows 7";"Rachel's Experiment (D.T.)";"1.0";"2";"1";"1";"2";"1";"1";"2014-07-17 13:38:20.187";"2014-07-17 13:51:20.171";"1";"1";"1";"135";"134";"module.training_block4.exec-1669.GoNoGo4";;;;;;;;;;;;;;;;;;;;;;;;;;;;;;;;;;;;;;;;;;;;;;;;;;;;;;;;;;;"1248";"2014-07-17 13:45:55.468";"ST_correctStop";"1";"0";"FINISHED";"NONE";"success";"0";"1";"2014-07-17 13:45:54.218";"1";;;;;;;;;;;;;;;;;;;;;
"psychtester11";"1985";;"Windows 7";"Rachel's Experiment (D.T.)";"1.0";"2";"1";"1";"2";"1";"1";"2014-07-17 13:38:20.187";"2014-07-17 13:51:20.171";"1";"1";"1";"136";"135";"module.training_block4.exec-1669.GoNoGo4";;;;;;;;;;;;;;;;;;;;;;;;;;;;;;;;;;;;;;;;;;;;;;;;;;;;;;;;;;;"1248";"2014-07-17 13:45:57.984";"ST_correctStop";"0";"0";"FINISHED";"NONE";"success";"0";"1";"2014-07-17 13:45:56.734";"1";;;;;;;;;;;;;;;;;;;;;
"psychtester11";"1985";;"Windows 7";"Rachel's Experiment (D.T.)";"1.0";"2";"1";"1";"2";"1";"1";"2014-07-17 13:38:20.187";"2014-07-17 13:51:20.171";"1";"1";"1";"137";"136";"module.training_block4.exec-1669.GoNoGo4";;;;;;;;;;;;;;;;;;;;;;;;;;;;;;;;;;;;;;;;;;;;;;;;;;;;;;;;;;;"1248";"2014-07-17 13:46:00.500";"ST_correctStop";"2";"1";"FINISHED";"NONE";"success";"0";"1";"2014-07-17 13:45:59.250";"1";;;;;;;;;;;;;;;;;;;;;
"psychtester11";"1985";;"Windows 7";"Rachel's Experiment (D.T.)";"1.0";"2";"1";"1";"2";"1";"1";"2014-07-17 13:38:20.187";"2014-07-17 13:51:20.171";"1";"1";"1";"138";"137";"module.training_block4.exec-1669.GoNoGo4";;;;;;;;;;;;;;;;;;;;;;;;;;;;;;;;;;;;;;;;;;;;;;;;;;;;;;;;;;;"1248";"2014-07-17 13:46:03.015";"NST_correctLoc";"14";"1";"FINISHED";"RIGHT";"success";"365";"0";"2014-07-17 13:46:01.765";"2";;;;;;;;;;;;;;;;;;;;;
"psychtester11";"1985";;"Windows 7";"Rachel's Experiment (D.T.)";"1.0";"2";"1";"1";"2";"1";"1";"2014-07-17 13:38:20.187";"2014-07-17 13:51:20.171";"1";"1";"1";"139";"138";"module.training_block4.exec-1669.GoNoGo4";;;;;;;;;;;;;;;;;;;;;;;;;;;;;;;;;;;;;;;;;;;;;;;;;;;;;;;;;;;"1248";"2014-07-17 13:46:05.531";"NST_correctLoc";"23";"0";"FINISHED";"LEFT";"success";"377";"0";"2014-07-17 13:46:04.281";"3";;;;;;;;;;;;;;;;;;;;;
"psychtester11";"1985";;"Windows 7";"Rachel's Experiment (D.T.)";"1.0";"2";"1";"1";"2";"1";"1";"2014-07-17 13:38:20.187";"2014-07-17 13:51:20.171";"1";"1";"1";"140";"139";"module.training_block4.exec-1669.GoNoGo4";;;;;;;;;;;;;;;;;;;;;;;;;;;;;;;;;;;;;;;;;;;;;;;;;;;;;;;;;;;"1248";"2014-07-17 13:46:08.046";"NST_correctLoc";"11";"0";"FINISHED";"LEFT";"success";"373";"0";"2014-07-17 13:46:06.796";"2";;;;;;;;;;;;;;;;;;;;;
"psychtester11";"1985";;"Windows 7";"Rachel's Experiment (D.T.)";"1.0";"2";"1";"1";"2";"1";"1";"2014-07-17 13:38:20.187";"2014-07-17 13:51:20.171";"1";"1";"1";"141";"140";"module.training_block4.exec-1669.GoNoGo4";;;;;;;;;;;;;;;;;;;;;;;;;;;;;;;;;;;;;;;;;;;;;;;;;;;;;;;;;;;"1248";"2014-07-17 13:46:10.562";"NST_correctLoc";"19";"1";"FINISHED";"RIGHT";"success";"346";"0";"2014-07-17 13:46:09.312";"3";;;;;;;;;;;;;;;;;;;;;
"psychtester11";"1985";;"Windows 7";"Rachel's Experiment (D.T.)";"1.0";"2";"1";"1";"2";"1";"1";"2014-07-17 13:38:20.187";"2014-07-17 13:51:20.171";"1";"1";"1";"142";"141";"module.training_block4.exec-1669.GoNoGo4";;;;;;;;;;;;;;;;;;;;;;;;;;;;;;;;;;;;;;;;;;;;;;;;;;;;;;;;;;;"1248";"2014-07-17 13:46:13.078";"NST_correctLoc";"16";"1";"FINISHED";"RIGHT";"success";"758";"0";"2014-07-17 13:46:11.828";"2";;;;;;;;;;;;;;;;;;;;;
"psychtester11";"1985";;"Windows 7";"Rachel's Experiment (D.T.)";"1.0";"2";"1";"1";"2";"1";"1";"2014-07-17 13:38:20.187";"2014-07-17 13:51:20.171";"1";"1";"1";"143";"142";"module.training_block4.exec-1669.GoNoGo4";;;;;;;;;;;;;;;;;;;;;;;;;;;;;;;;;;;;;;;;;;;;;;;;;;;;;;;;;;;"1248";"2014-07-17 13:46:15.593";"ST_correctStop";"26";"1";"FINISHED";"NONE";"success";"0";"1";"2014-07-17 13:46:14.343";"3";;;;;;;;;;;;;;;;;;;;;
"psychtester11";"1985";;"Windows 7";"Rachel's Experiment (D.T.)";"1.0";"2";"1";"1";"2";"1";"1";"2014-07-17 13:38:20.187";"2014-07-17 13:51:20.171";"1";"1";"1";"144";"143";"module.training_block4.exec-1669.GoNoGo4";;;;;;;;;;;;;;;;;;;;;;;;;;;;;;;;;;;;;;;;;;;;;;;;;;;;;;;;;;;"1248";"2014-07-17 13:46:18.109";"ST_correctStop";"5";"0";"FINISHED";"NONE";"success";"0";"1";"2014-07-17 13:46:16.859";"1";;;;;;;;;;;;;;;;;;;;;
"psychtester11";"1985";;"Windows 7";"Rachel's Experiment (D.T.)";"1.0";"2";"1";"1";"2";"1";"1";"2014-07-17 13:38:20.187";"2014-07-17 13:51:20.171";"1";"1";"1";"145";"144";"module.training_block4.exec-1669.GoNoGo4";;;;;;;;;;;;;;;;;;;;;;;;;;;;;;;;;;;;;;;;;;;;;;;;;;;;;;;;;;;"1248";"2014-07-17 13:46:20.625";"ST_correctStop";"31";"1";"FINISHED";"NONE";"success";"0";"1";"2014-07-17 13:46:19.375";"3";;;;;;;;;;;;;;;;;;;;;
"psychtester11";"1985";;"Windows 7";"Rachel's Experiment (D.T.)";"1.0";"2";"1";"1";"2";"1";"1";"2014-07-17 13:38:20.187";"2014-07-17 13:51:20.171";"1";"1";"1";"146";"145";"module.training_block4.exec-1669.GoNoGo4";;;;;;;;;;;;;;;;;;;;;;;;;;;;;;;;;;;;;;;;;;;;;;;;;;;;;;;;;;;"1248";"2014-07-17 13:46:23.140";"NST_correctLoc";"9";"1";"FINISHED";"RIGHT";"success";"392";"0";"2014-07-17 13:46:21.890";"2";;;;;;;;;;;;;;;;;;;;;
"psychtester11";"1985";;"Windows 7";"Rachel's Experiment (D.T.)";"1.0";"2";"1";"1";"2";"1";"1";"2014-07-17 13:38:20.187";"2014-07-17 13:51:20.171";"1";"1";"1";"147";"146";"module.training_block4.exec-1669.GoNoGo4";;;;;;;;;;;;;;;;;;;;;;;;;;;;;;;;;;;;;;;;;;;;;;;;;;;;;;;;;;;"1248";"2014-07-17 13:46:25.656";"NST_correctLoc";"17";"1";"FINISHED";"RIGHT";"success";"332";"0";"2014-07-17 13:46:24.406";"2";;;;;;;;;;;;;;;;;;;;;
"psychtester11";"1985";;"Windows 7";"Rachel's Experiment (D.T.)";"1.0";"2";"1";"1";"2";"1";"1";"2014-07-17 13:38:20.187";"2014-07-17 13:51:20.171";"1";"1";"1";"148";"147";"module.training_block4.exec-1669.GoNoGo4";;;;;;;;;;;;;;;;;;;;;;;;;;;;;;;;;;;;;;;;;;;;;;;;;;;;;;;;;;;"1248";"2014-07-17 13:46:28.171";"NST_correctLoc";"13";"0";"FINISHED";"LEFT";"success";"425";"0";"2014-07-17 13:46:26.921";"2";;;;;;;;;;;;;;;;;;;;;
"psychtester11";"1985";;"Windows 7";"Rachel's Experiment (D.T.)";"1.0";"2";"1";"1";"2";"1";"1";"2014-07-17 13:38:20.187";"2014-07-17 13:51:20.171";"1";"1";"1";"149";"148";"module.training_block4.exec-1669.GoNoGo4";;;;;;;;;;;;;;;;;;;;;;;;;;;;;;;;;;;;;;;;;;;;;;;;;;;;;;;;;;;"1248";"2014-07-17 13:46:30.687";"NST_correctLoc";"32";"1";"FINISHED";"RIGHT";"success";"365";"0";"2014-07-17 13:46:29.437";"3";;;;;;;;;;;;;;;;;;;;;
"psychtester11";"1985";;"Windows 7";"Rachel's Experiment (D.T.)";"1.0";"2";"1";"1";"2";"1";"1";"2014-07-17 13:38:20.187";"2014-07-17 13:51:20.171";"1";"1";"1";"150";"149";"module.training_block4.exec-1669.GoNoGo4";;;;;;;;;;;;;;;;;;;;;;;;;;;;;;;;;;;;;;;;;;;;;;;;;;;;;;;;;;;"1248";"2014-07-17 13:46:33.203";"ST_correctStop";"21";"1";"FINISHED";"NONE";"success";"0";"1";"2014-07-17 13:46:31.953";"3";;;;;;;;;;;;;;;;;;;;;
"psychtester11";"1985";;"Windows 7";"Rachel's Experiment (D.T.)";"1.0";"2";"1";"1";"2";"1";"1";"2014-07-17 13:38:20.187";"2014-07-17 13:51:20.171";"1";"1";"1";"151";"150";"module.training_block4.exec-1669.GoNoGo4";;;;;;;;;;;;;;;;;;;;;;;;;;;;;;;;;;;;;;;;;;;;;;;;;;;;;;;;;;;"1248";"2014-07-17 13:46:35.718";"NST_correctLoc";"22";"0";"FINISHED";"LEFT";"success";"350";"0";"2014-07-17 13:46:34.468";"3";;;;;;;;;;;;;;;;;;;;;
"psychtester11";"1985";;"Windows 7";"Rachel's Experiment (D.T.)";"1.0";"2";"1";"1";"2";"1";"1";"2014-07-17 13:38:20.187";"2014-07-17 13:51:20.171";"1";"1";"1";"152";"151";"module.training_block4.exec-1669.GoNoGo4";;;;;;;;;;;;;;;;;;;;;;;;;;;;;;;;;;;;;;;;;;;;;;;;;;;;;;;;;;;"1248";"2014-07-17 13:46:38.234";"ST_correctStop";"7";"0";"FINISHED";"NONE";"success";"0";"1";"2014-07-17 13:46:36.984";"1";;;;;;;;;;;;;;;;;;;;;
"psychtester11";"1985";;"Windows 7";"Rachel's Experiment (D.T.)";"1.0";"2";"1";"1";"2";"1";"1";"2014-07-17 13:38:20.187";"2014-07-17 13:51:20.171";"1";"1";"1";"153";"152";"module.training_block4.exec-1669.GoNoGo4";;;;;;;;;;;;;;;;;;;;;;;;;;;;;;;;;;;;;;;;;;;;;;;;;;;;;;;;;;;"1248";"2014-07-17 13:46:40.750";"ST_correctStop";"33";"0";"FINISHED";"NONE";"success";"0";"1";"2014-07-17 13:46:39.500";"3";;;;;;;;;;;;;;;;;;;;;
"psychtester11";"1985";;"Windows 7";"Rachel's Experiment (D.T.)";"1.0";"2";"1";"1";"2";"1";"1";"2014-07-17 13:38:20.187";"2014-07-17 13:51:20.171";"1";"1";"1";"154";"153";"module.training_block4.exec-1669.GoNoGo4";;;;;;;;;;;;;;;;;;;;;;;;;;;;;;;;;;;;;;;;;;;;;;;;;;;;;;;;;;;"1248";"2014-07-17 13:46:43.265";"ST_correctStop";"3";"0";"FINISHED";"NONE";"success";"0";"1";"2014-07-17 13:46:42.015";"1";;;;;;;;;;;;;;;;;;;;;
"psychtester11";"1985";;"Windows 7";"Rachel's Experiment (D.T.)";"1.0";"2";"1";"1";"2";"1";"1";"2014-07-17 13:38:20.187";"2014-07-17 13:51:20.171";"1";"1";"1";"155";"154";"module.training_block4.exec-1669.GoNoGo4";;;;;;;;;;;;;;;;;;;;;;;;;;;;;;;;;;;;;;;;;;;;;;;;;;;;;;;;;;;"1248";"2014-07-17 13:46:45.781";"NST_correctLoc";"28";"1";"FINISHED";"RIGHT";"success";"472";"0";"2014-07-17 13:46:44.531";"3";;;;;;;;;;;;;;;;;;;;;
"psychtester11";"1985";;"Windows 7";"Rachel's Experiment (D.T.)";"1.0";"2";"1";"1";"2";"1";"1";"2014-07-17 13:38:20.187";"2014-07-17 13:51:20.171";"1";"1";"1";"156";"155";"module.training_block4.exec-1669.GoNoGo4";;;;;;;;;;;;;;;;;;;;;;;;;;;;;;;;;;;;;;;;;;;;;;;;;;;;;;;;;;;"1248";"2014-07-17 13:46:48.296";"NST_correctLoc";"18";"0";"FINISHED";"LEFT";"success";"404";"0";"2014-07-17 13:46:47.046";"3";;;;;;;;;;;;;;;;;;;;;
"psychtester11";"1985";;"Windows 7";"Rachel's Experiment (D.T.)";"1.0";"2";"1";"1";"2";"1";"1";"2014-07-17 13:38:20.187";"2014-07-17 13:51:20.171";"1";"1";"1";"157";"156";"module.training_block4.exec-1669.GoNoGo4";;;;;;;;;;;;;;;;;;;;;;;;;;;;;;;;;;;;;;;;;;;;;;;;;;;;;;;;;;;"1248";"2014-07-17 13:46:50.812";"NST_correctLoc";"35";"0";"FINISHED";"LEFT";"success";"336";"0";"2014-07-17 13:46:49.562";"3";;;;;;;;;;;;;;;;;;;;;
"psychtester11";"1985";;"Windows 7";"Rachel's Experiment (D.T.)";"1.0";"2";"1";"1";"2";"1";"1";"2014-07-17 13:38:20.187";"2014-07-17 13:51:20.171";"1";"1";"1";"158";"157";"module.training_block4.exec-1669.GoNoGo4";;;;;;;;;;;;;;;;;;;;;;;;;;;;;;;;;;;;;;;;;;;;;;;;;;;;;;;;;;;"1248";"2014-07-17 13:46:53.328";"ST_correctStop";"27";"1";"FINISHED";"NONE";"success";"0";"1";"2014-07-17 13:46:52.078";"3";;;;;;;;;;;;;;;;;;;;;
"psychtester11";"1985";;"Windows 7";"Rachel's Experiment (D.T.)";"1.0";"2";"1";"1";"2";"1";"1";"2014-07-17 13:38:20.187";"2014-07-17 13:51:20.171";"1";"1";"1";"159";"158";"module.training_block4.exec-1669.GoNoGo4";;;;;;;;;;;;;;;;;;;;;;;;;;;;;;;;;;;;;;;;;;;;;;;;;;;;;;;;;;;"1248";"2014-07-17 13:46:55.843";"NST_correctLoc";"10";"0";"FINISHED";"LEFT";"success";"401";"0";"2014-07-17 13:46:54.593";"2";;;;;;;;;;;;;;;;;;;;;
"psychtester11";"1985";;"Windows 7";"Rachel's Experiment (D.T.)";"1.0";"2";"1";"1";"2";"1";"1";"2014-07-17 13:38:20.187";"2014-07-17 13:51:20.171";"1";"1";"1";"160";"159";"module.devaluation_practice.exec-4852.devalPractice";;;;;;;;;;;;"13971";"2014-07-17 13:47:28.250";"0";"4";"4";"4";"3378";"2830";"4767";"2014-07-17 13:47:14.281";;;;;;;;;;;;;;;;;;;;;;;;;;;;;;;;;;;;;;;;;;;;;;;;;;;;;;;;;;;;;;;;;;;;;;
"psychtester11";"1985";;"Windows 7";"Rachel's Experiment (D.T.)";"1.0";"2";"1";"1";"2";"1";"1";"2014-07-17 13:38:20.187";"2014-07-17 13:51:20.171";"1";"1";"1";"161";"160";"module.devaluation_practice.exec-4852.devalPractice";;;;;;;;;;;;"9327";"2014-07-17 13:47:37.609";"1";"4";"4";"6";"1640";"2642";"2057";"2014-07-17 13:47:28.281";;;;;;;;;;;;;;;;;;;;;;;;;;;;;;;;;;;;;;;;;;;;;;;;;;;;;;;;;;;;;;;;;;;;;;
"psychtester11";"1985";;"Windows 7";"Rachel's Experiment (D.T.)";"1.0";"2";"1";"1";"2";"1";"1";"2014-07-17 13:38:20.187";"2014-07-17 13:51:20.171";"1";"1";"1";"162";"161";"module.devaluation_practice.exec-4852.devalPractice";;;;;;;;;;;;"6975";"2014-07-17 13:47:44.609";"2";"4";"4";"6";"1435";"1392";"1177";"2014-07-17 13:47:37.625";;;;;;;;;;;;;;;;;;;;;;;;;;;;;;;;;;;;;;;;;;;;;;;;;;;;;;;;;;;;;;;;;;;;;;
"psychtester11";"1985";;"Windows 7";"Rachel's Experiment (D.T.)";"1.0";"2";"1";"1";"2";"1";"1";"2014-07-17 13:38:20.187";"2014-07-17 13:51:20.171";"1";"1";"1";"163";"162";"module.devaluation_practice.exec-4852.devalPractice";;;;;;;;;;;;"6495";"2014-07-17 13:47:51.125";"3";"4";"3";"4";"1049";"1052";"1417";"2014-07-17 13:47:44.625";;;;;;;;;;;;;;;;;;;;;;;;;;;;;;;;;;;;;;;;;;;;;;;;;;;;;;;;;;;;;;;;;;;;;;
"psychtester11";"1985";;"Windows 7";"Rachel's Experiment (D.T.)";"1.0";"2";"1";"1";"2";"1";"1";"2014-07-17 13:38:20.187";"2014-07-17 13:51:20.171";"1";"1";"1";"164";"163";"module.devaluation_block1.exec-6280.deval1";"7135";"2014-07-17 13:48:02.093";"5";"7";"7";"7";"1585";"1372";"1187";"2014-07-17 13:47:54.953";"1";;;;;;;;;;;;;;;;;;;;;;;;;;;;;;;;;;;;;;;;;;;;;;;;;;;;;;;;;;;;;;;;;;;;;;;;;;;;;;;;
"psychtester11";"1985";;"Windows 7";"Rachel's Experiment (D.T.)";"1.0";"2";"1";"1";"2";"1";"1";"2014-07-17 13:38:20.187";"2014-07-17 13:51:20.171";"1";"1";"1";"165";"164";"module.devaluation_block1.exec-6280.deval1";"9687";"2014-07-17 13:48:11.796";"22";"6";"3";"7";"3349";"1865";"1482";"2014-07-17 13:48:02.109";"3";;;;;;;;;;;;;;;;;;;;;;;;;;;;;;;;;;;;;;;;;;;;;;;;;;;;;;;;;;;;;;;;;;;;;;;;;;;;;;;;
"psychtester11";"1985";;"Windows 7";"Rachel's Experiment (D.T.)";"1.0";"2";"1";"1";"2";"1";"1";"2014-07-17 13:38:20.187";"2014-07-17 13:51:20.171";"1";"1";"1";"166";"165";"module.devaluation_block1.exec-6280.deval1";"8671";"2014-07-17 13:48:20.500";"19";"6";"2";"8";"1575";"2686";"1417";"2014-07-17 13:48:11.828";"3";;;;;;;;;;;;;;;;;;;;;;;;;;;;;;;;;;;;;;;;;;;;;;;;;;;;;;;;;;;;;;;;;;;;;;;;;;;;;;;;
"psychtester11";"1985";;"Windows 7";"Rachel's Experiment (D.T.)";"1.0";"2";"1";"1";"2";"1";"1";"2014-07-17 13:38:20.187";"2014-07-17 13:51:20.171";"1";"1";"1";"167";"166";"module.devaluation_block1.exec-6280.deval1";"7175";"2014-07-17 13:48:27.687";"13";"6";"3";"6";"1239";"1871";"1089";"2014-07-17 13:48:20.515";"2";;;;;;;;;;;;;;;;;;;;;;;;;;;;;;;;;;;;;;;;;;;;;;;;;;;;;;;;;;;;;;;;;;;;;;;;;;;;;;;;
"psychtester11";"1985";;"Windows 7";"Rachel's Experiment (D.T.)";"1.0";"2";"1";"1";"2";"1";"1";"2014-07-17 13:38:20.187";"2014-07-17 13:51:20.171";"1";"1";"1";"168";"167";"module.devaluation_block1.exec-6280.deval1";"7025";"2014-07-17 13:48:34.750";"0";"5";"3";"5";"1724";"1388";"930";"2014-07-17 13:48:27.718";"1";;;;;;;;;;;;;;;;;;;;;;;;;;;;;;;;;;;;;;;;;;;;;;;;;;;;;;;;;;;;;;;;;;;;;;;;;;;;;;;;
"psychtester11";"1985";;"Windows 7";"Rachel's Experiment (D.T.)";"1.0";"2";"1";"1";"2";"1";"1";"2014-07-17 13:38:20.187";"2014-07-17 13:51:20.171";"1";"1";"1";"169";"168";"module.devaluation_block1.exec-6280.deval1";"6399";"2014-07-17 13:48:41.171";"7";"5";"4";"5";"1278";"1109";"1016";"2014-07-17 13:48:34.765";"1";;;;;;;;;;;;;;;;;;;;;;;;;;;;;;;;;;;;;;;;;;;;;;;;;;;;;;;;;;;;;;;;;;;;;;;;;;;;;;;;
"psychtester11";"1985";;"Windows 7";"Rachel's Experiment (D.T.)";"1.0";"2";"1";"1";"2";"1";"1";"2014-07-17 13:38:20.187";"2014-07-17 13:51:20.171";"1";"1";"1";"170";"169";"module.devaluation_block1.exec-6280.deval1";"6936";"2014-07-17 13:48:48.125";"6";"5";"4";"6";"1360";"897";"1685";"2014-07-17 13:48:41.187";"1";;;;;;;;;;;;;;;;;;;;;;;;;;;;;;;;;;;;;;;;;;;;;;;;;;;;;;;;;;;;;;;;;;;;;;;;;;;;;;;;
"psychtester11";"1985";;"Windows 7";"Rachel's Experiment (D.T.)";"1.0";"2";"1";"1";"2";"1";"1";"2014-07-17 13:38:20.187";"2014-07-17 13:51:20.171";"1";"1";"1";"171";"170";"module.devaluation_block1.exec-6280.deval1";"6623";"2014-07-17 13:48:54.781";"26";"7";"4";"7";"1599";"826";"1201";"2014-07-17 13:48:48.156";"3";;;;;;;;;;;;;;;;;;;;;;;;;;;;;;;;;;;;;;;;;;;;;;;;;;;;;;;;;;;;;;;;;;;;;;;;;;;;;;;;
"psychtester11";"1985";;"Windows 7";"Rachel's Experiment (D.T.)";"1.0";"2";"1";"1";"2";"1";"1";"2014-07-17 13:38:20.187";"2014-07-17 13:51:20.171";"1";"1";"1";"172";"171";"module.devaluation_block1.exec-6280.deval1";"6914";"2014-07-17 13:49:01.718";"21";"6";"2";"7";"1190";"1567";"1183";"2014-07-17 13:48:54.796";"3";;;;;;;;;;;;;;;;;;;;;;;;;;;;;;;;;;;;;;;;;;;;;;;;;;;;;;;;;;;;;;;;;;;;;;;;;;;;;;;;
"psychtester11";"1985";;"Windows 7";"Rachel's Experiment (D.T.)";"1.0";"2";"1";"1";"2";"1";"1";"2014-07-17 13:38:20.187";"2014-07-17 13:51:20.171";"1";"1";"1";"173";"172";"module.devaluation_block1.exec-6280.deval1";"6015";"2014-07-17 13:49:07.765";"24";"6";"3";"6";"1149";"935";"941";"2014-07-17 13:49:01.750";"3";;;;;;;;;;;;;;;;;;;;;;;;;;;;;;;;;;;;;;;;;;;;;;;;;;;;;;;;;;;;;;;;;;;;;;;;;;;;;;;;
"psychtester11";"1985";;"Windows 7";"Rachel's Experiment (D.T.)";"1.0";"2";"1";"1";"2";"1";"1";"2014-07-17 13:38:20.187";"2014-07-17 13:51:20.171";"1";"1";"1";"174";"173";"module.devaluation_block1.exec-6280.deval1";"6375";"2014-07-17 13:49:14.156";"15";"3";"3";"3";"1670";"929";"779";"2014-07-17 13:49:07.781";"2";;;;;;;;;;;;;;;;;;;;;;;;;;;;;;;;;;;;;;;;;;;;;;;;;;;;;;;;;;;;;;;;;;;;;;;;;;;;;;;;
"psychtester11";"1985";;"Windows 7";"Rachel's Experiment (D.T.)";"1.0";"2";"1";"1";"2";"1";"1";"2014-07-17 13:38:20.187";"2014-07-17 13:51:20.171";"1";"1";"1";"175";"174";"module.devaluation_block1.exec-6280.deval1";"8248";"2014-07-17 13:49:22.437";"3";"6";"4";"6";"2904";"1311";"1042";"2014-07-17 13:49:14.187";"1";;;;;;;;;;;;;;;;;;;;;;;;;;;;;;;;;;;;;;;;;;;;;;;;;;;;;;;;;;;;;;;;;;;;;;;;;;;;;;;;
"psychtester11";"1985";;"Windows 7";"Rachel's Experiment (D.T.)";"1.0";"2";"1";"1";"2";"1";"1";"2014-07-17 13:38:20.187";"2014-07-17 13:51:20.171";"1";"1";"1";"176";"175";"module.devaluation_block1.exec-6280.deval1";"8423";"2014-07-17 13:49:30.875";"20";"5";"2";"6";"2023";"1571";"1843";"2014-07-17 13:49:22.453";"3";;;;;;;;;;;;;;;;;;;;;;;;;;;;;;;;;;;;;;;;;;;;;;;;;;;;;;;;;;;;;;;;;;;;;;;;;;;;;;;;
"psychtester11";"1985";;"Windows 7";"Rachel's Experiment (D.T.)";"1.0";"2";"1";"1";"2";"1";"1";"2014-07-17 13:38:20.187";"2014-07-17 13:51:20.171";"1";"1";"1";"177";"176";"module.devaluation_block1.exec-6280.deval1";"6255";"2014-07-17 13:49:37.156";"25";"5";"4";"5";"1034";"570";"1655";"2014-07-17 13:49:30.906";"3";;;;;;;;;;;;;;;;;;;;;;;;;;;;;;;;;;;;;;;;;;;;;;;;;;;;;;;;;;;;;;;;;;;;;;;;;;;;;;;;
"psychtester11";"1985";;"Windows 7";"Rachel's Experiment (D.T.)";"1.0";"2";"1";"1";"2";"1";"1";"2014-07-17 13:38:20.187";"2014-07-17 13:51:20.171";"1";"1";"1";"178";"177";"module.devaluation_block1.exec-6280.deval1";"7928";"2014-07-17 13:49:45.109";"23";"7";"3";"6";"1113";"2304";"1527";"2014-07-17 13:49:37.187";"3";;;;;;;;;;;;;;;;;;;;;;;;;;;;;;;;;;;;;;;;;;;;;;;;;;;;;;;;;;;;;;;;;;;;;;;;;;;;;;;;
"psychtester11";"1985";;"Windows 7";"Rachel's Experiment (D.T.)";"1.0";"2";"1";"1";"2";"1";"1";"2014-07-17 13:38:20.187";"2014-07-17 13:51:20.171";"1";"1";"1";"179";"178";"module.devaluation_block1.exec-6280.deval1";"5729";"2014-07-17 13:49:51.062";"8";"5";"4";"5";"1252";"538";"936";"2014-07-17 13:49:45.328";"1";;;;;;;;;;;;;;;;;;;;;;;;;;;;;;;;;;;;;;;;;;;;;;;;;;;;;;;;;;;;;;;;;;;;;;;;;;;;;;;;
"psychtester11";"1985";;"Windows 7";"Rachel's Experiment (D.T.)";"1.0";"2";"1";"1";"2";"1";"1";"2014-07-17 13:38:20.187";"2014-07-17 13:51:20.171";"1";"1";"1";"180";"179";"module.devaluation_block1.exec-6280.deval1";"10840";"2014-07-17 13:50:01.921";"1";"3";"3";"7";"4934";"1846";"1073";"2014-07-17 13:49:51.078";"1";;;;;;;;;;;;;;;;;;;;;;;;;;;;;;;;;;;;;;;;;;;;;;;;;;;;;;;;;;;;;;;;;;;;;;;;;;;;;;;;
"psychtester11";"1985";;"Windows 7";"Rachel's Experiment (D.T.)";"1.0";"2";"1";"1";"2";"1";"1";"2014-07-17 13:38:20.187";"2014-07-17 13:51:20.171";"1";"1";"1";"181";"180";"module.devaluation_block1.exec-6280.deval1";"6584";"2014-07-17 13:50:08.531";"16";"4";"2";"3";"1155";"1235";"1203";"2014-07-17 13:50:01.937";"2";;;;;;;;;;;;;;;;;;;;;;;;;;;;;;;;;;;;;;;;;;;;;;;;;;;;;;;;;;;;;;;;;;;;;;;;;;;;;;;;
"psychtester11";"1985";;"Windows 7";"Rachel's Experiment (D.T.)";"1.0";"2";"1";"1";"2";"1";"1";"2014-07-17 13:38:20.187";"2014-07-17 13:51:20.171";"1";"1";"1";"182";"181";"module.devaluation_block1.exec-6280.deval1";"8640";"2014-07-17 13:50:17.203";"10";"7";"2";"6";"2874";"1298";"1467";"2014-07-17 13:50:08.562";"2";;;;;;;;;;;;;;;;;;;;;;;;;;;;;;;;;;;;;;;;;;;;;;;;;;;;;;;;;;;;;;;;;;;;;;;;;;;;;;;;
"psychtester11";"1985";;"Windows 7";"Rachel's Experiment (D.T.)";"1.0";"2";"1";"1";"2";"1";"1";"2014-07-17 13:38:20.187";"2014-07-17 13:51:20.171";"1";"1";"1";"183";"182";"module.devaluation_block1.exec-6280.deval1";"7126";"2014-07-17 13:50:24.359";"18";"4";"2";"7";"1578";"1138";"1428";"2014-07-17 13:50:17.218";"3";;;;;;;;;;;;;;;;;;;;;;;;;;;;;;;;;;;;;;;;;;;;;;;;;;;;;;;;;;;;;;;;;;;;;;;;;;;;;;;;
"psychtester11";"1985";;"Windows 7";"Rachel's Experiment (D.T.)";"1.0";"2";"1";"1";"2";"1";"1";"2014-07-17 13:38:20.187";"2014-07-17 13:51:20.171";"1";"1";"1";"184";"183";"module.devaluation_block1.exec-6280.deval1";"7302";"2014-07-17 13:50:31.687";"9";"5";"2";"4";"950";"1576";"1769";"2014-07-17 13:50:24.375";"2";;;;;;;;;;;;;;;;;;;;;;;;;;;;;;;;;;;;;;;;;;;;;;;;;;;;;;;;;;;;;;;;;;;;;;;;;;;;;;;;
"psychtester11";"1985";;"Windows 7";"Rachel's Experiment (D.T.)";"1.0";"2";"1";"1";"2";"1";"1";"2014-07-17 13:38:20.187";"2014-07-17 13:51:20.171";"1";"1";"1";"185";"184";"module.devaluation_block1.exec-6280.deval1";"10511";"2014-07-17 13:50:42.218";"17";"4";"2";"3";"3077";"2705";"1731";"2014-07-17 13:50:31.703";"2";;;;;;;;;;;;;;;;;;;;;;;;;;;;;;;;;;;;;;;;;;;;;;;;;;;;;;;;;;;;;;;;;;;;;;;;;;;;;;;;
"psychtester11";"1985";;"Windows 7";"Rachel's Experiment (D.T.)";"1.0";"2";"1";"1";"2";"1";"1";"2014-07-17 13:38:20.187";"2014-07-17 13:51:20.171";"1";"1";"1";"186";"185";"module.devaluation_block1.exec-6280.deval1";"7039";"2014-07-17 13:50:49.281";"2";"4";"3";"4";"1946";"832";"1285";"2014-07-17 13:50:42.234";"1";;;;;;;;;;;;;;;;;;;;;;;;;;;;;;;;;;;;;;;;;;;;;;;;;;;;;;;;;;;;;;;;;;;;;;;;;;;;;;;;
"psychtester11";"1985";;"Windows 7";"Rachel's Experiment (D.T.)";"1.0";"2";"1";"1";"2";"1";"1";"2014-07-17 13:38:20.187";"2014-07-17 13:51:20.171";"1";"1";"1";"187";"186";"module.devaluation_block1.exec-6280.deval1";"6510";"2014-07-17 13:50:55.812";"14";"6";"3";"5";"916";"1071";"1534";"2014-07-17 13:50:49.312";"2";;;;;;;;;;;;;;;;;;;;;;;;;;;;;;;;;;;;;;;;;;;;;;;;;;;;;;;;;;;;;;;;;;;;;;;;;;;;;;;;
"psychtester11";"1985";;"Windows 7";"Rachel's Experiment (D.T.)";"1.0";"2";"1";"1";"2";"1";"1";"2014-07-17 13:38:20.187";"2014-07-17 13:51:20.171";"1";"1";"1";"188";"187";"module.devaluation_block1.exec-6280.deval1";"8863";"2014-07-17 13:51:04.703";"11";"5";"1";"3";"1857";"1647";"2361";"2014-07-17 13:50:55.843";"2";;;;;;;;;;;;;;;;;;;;;;;;;;;;;;;;;;;;;;;;;;;;;;;;;;;;;;;;;;;;;;;;;;;;;;;;;;;;;;;;
"psychtester11";"1985";;"Windows 7";"Rachel's Experiment (D.T.)";"1.0";"2";"1";"1";"2";"1";"1";"2014-07-17 13:38:20.187";"2014-07-17 13:51:20.171";"1";"1";"1";"189";"188";"module.devaluation_block1.exec-6280.deval1";"7184";"2014-07-17 13:51:11.921";"4";"6";"3";"7";"1311";"1550";"1330";"2014-07-17 13:51:04.734";"1";;;;;;;;;;;;;;;;;;;;;;;;;;;;;;;;;;;;;;;;;;;;;;;;;;;;;;;;;;;;;;;;;;;;;;;;;;;;;;;;
"psychtester11";"1985";;"Windows 7";"Rachel's Experiment (D.T.)";"1.0";"2";"1";"1";"2";"1";"1";"2014-07-17 13:38:20.187";"2014-07-17 13:51:20.171";"1";"1";"1";"190";"189";"module.devaluation_block1.exec-6280.deval1";"6264";"2014-07-17 13:51:18.203";"12";"6";"3";"6";"1212";"1182";"893";"2014-07-17 13:51:11.937";"2";;;;;;;;;;;;;;;;;;;;;;;;;;;;;;;;;;;;;;;;;;;;;;;;;;;;;;;;;;;;;;;;;;;;;;;;;;;;;;;;
