"user.name";"user.yearOfBirth";"user.sex";"user.osName";"module.name";"module.version";"module.online.subject.code";"module.online.study.id";"module.online.module.nr";"module.online.group.nr";"session.id";"session.index";"session.startTime";"session.endTime";"session.completed";"session.node-9395.DevalQorder";"session.node-9774.conditionType";"trial.id";"trial.index";"trial.name";"trial.GoNoGo1.durationTime";"trial.GoNoGo1.endTime";"trial.GoNoGo1.Error Type";"trial.GoNoGo1.icon";"trial.GoNoGo1.location";"trial.GoNoGo1.outcome";"trial.GoNoGo1.response";"trial.GoNoGo1.result";"trial.GoNoGo1.RT";"trial.GoNoGo1.signal";"trial.GoNoGo1.startTime";"trial.GoNoGo1.stimulus type";"trial.GoNoGo2.durationTime";"trial.GoNoGo2.endTime";"trial.GoNoGo2.Error Type";"trial.GoNoGo2.icon";"trial.GoNoGo2.location";"trial.GoNoGo2.outcome";"trial.GoNoGo2.response";"trial.GoNoGo2.result";"trial.GoNoGo2.RT";"trial.GoNoGo2.signal";"trial.GoNoGo2.startTime";"trial.GoNoGo2.stimulus type";"trial.GoNoGo3.durationTime";"trial.GoNoGo3.endTime";"trial.GoNoGo3.Error Type";"trial.GoNoGo3.icon";"trial.GoNoGo3.location";"trial.GoNoGo3.outcome";"trial.GoNoGo3.response";"trial.GoNoGo3.result";"trial.GoNoGo3.RT";"trial.GoNoGo3.signal";"trial.GoNoGo3.startTime";"trial.GoNoGo3.stimulus type";"trial.GoNoGo4.durationTime";"trial.GoNoGo4.endTime";"trial.GoNoGo4.Error Type";"trial.GoNoGo4.icon";"trial.GoNoGo4.location";"trial.GoNoGo4.outcome";"trial.GoNoGo4.response";"trial.GoNoGo4.result";"trial.GoNoGo4.RT";"trial.GoNoGo4.signal";"trial.GoNoGo4.startTime";"trial.GoNoGo4.stimulus type";"trial.GoNoGo_Practice.durationTime";"trial.GoNoGo_Practice.endTime";"trial.GoNoGo_Practice.icon";"trial.GoNoGo_Practice.location";"trial.GoNoGo_Practice.outcome";"trial.GoNoGo_Practice.response";"trial.GoNoGo_Practice.result";"trial.GoNoGo_Practice.RT";"trial.GoNoGo_Practice.signal";"trial.GoNoGo_Practice.startTime";"trial.GoNoGo_Practice.stimulus type";"trial.GoNoGo_Tutorial.durationTime";"trial.GoNoGo_Tutorial.endTime";"trial.GoNoGo_Tutorial.icon";"trial.GoNoGo_Tutorial.location";"trial.GoNoGo_Tutorial.outcome";"trial.GoNoGo_Tutorial.response";"trial.GoNoGo_Tutorial.result";"trial.GoNoGo_Tutorial.RT";"trial.GoNoGo_Tutorial.signal";"trial.GoNoGo_Tutorial.startTime"
"1308711";"1994";;"Windows 7";"Rachel's Experiment (D.T.)";"1.0";"2";"1";"1";"2";"1";"1";"2014-10-01 12:07:21.488";"2014-10-01 12:16:09.237";"1";"0";"1";"1";"0";"module.GoNoGotutorial.exec-6085.GoNoGo_Tutorial";;;;;;;;;;;;;;;;;;;;;;;;;;;;;;;;;;;;;;;;;;;;;;;;;;;;;;;;;;;;"3996";"2014-10-01 12:08:16.073";"leftResponse";"0";"FINISHED";"LEFT";"success";"1021";"0";"2014-10-01 12:08:12.063"
"1308711";"1994";;"Windows 7";"Rachel's Experiment (D.T.)";"1.0";"2";"1";"1";"2";"1";"1";"2014-10-01 12:07:21.488";"2014-10-01 12:16:09.237";"1";"0";"1";"2";"1";"module.GoNoGotutorial.exec-6085.GoNoGo_Tutorial";;;;;;;;;;;;;;;;;;;;;;;;;;;;;;;;;;;;;;;;;;;;;;;;;;;;;;;;;;;;"4003";"2014-10-01 12:08:21.377";"rightResponse";"1";"FINISHED";"RIGHT";"success";"500";"0";"2014-10-01 12:08:17.367"
"1308711";"1994";;"Windows 7";"Rachel's Experiment (D.T.)";"1.0";"2";"1";"1";"2";"1";"1";"2014-10-01 12:07:21.488";"2014-10-01 12:16:09.237";"1";"0";"1";"3";"2";"module.GoNoGotutorial.exec-6085.GoNoGo_Tutorial";;;;;;;;;;;;;;;;;;;;;;;;;;;;;;;;;;;;;;;;;;;;;;;;;;;;;;;;;;;;"4003";"2014-10-01 12:08:26.681";"signalResponse";"0";"FINISHED";"NONE";"success";"0";"1";"2014-10-01 12:08:22.671"
"1308711";"1994";;"Windows 7";"Rachel's Experiment (D.T.)";"1.0";"2";"1";"1";"2";"1";"1";"2014-10-01 12:07:21.488";"2014-10-01 12:16:09.237";"1";"0";"1";"4";"3";"module.GoNoGopractice.exec-1265.GoNoGo_Practice";;;;;;;;;;;;;;;;;;;;;;;;;;;;;;;;;;;;;;;;;;;;;;;;;"1959";"2014-10-01 12:08:36.212";"18";"0";"FINISHED";"LEFT";"success";"411";"0";"2014-10-01 12:08:34.247";"3";;;;;;;;;;
"1308711";"1994";;"Windows 7";"Rachel's Experiment (D.T.)";"1.0";"2";"1";"1";"2";"1";"1";"2014-10-01 12:07:21.488";"2014-10-01 12:16:09.237";"1";"0";"1";"5";"4";"module.GoNoGopractice.exec-1265.GoNoGo_Practice";;;;;;;;;;;;;;;;;;;;;;;;;;;;;;;;;;;;;;;;;;;;;;;;;"1959";"2014-10-01 12:08:39.473";"21";"1";"FINISHED";"RIGHT";"success";"336";"0";"2014-10-01 12:08:37.507";"3";;;;;;;;;;
"1308711";"1994";;"Windows 7";"Rachel's Experiment (D.T.)";"1.0";"2";"1";"1";"2";"1";"1";"2014-10-01 12:07:21.488";"2014-10-01 12:16:09.237";"1";"0";"1";"6";"5";"module.GoNoGopractice.exec-1265.GoNoGo_Practice";;;;;;;;;;;;;;;;;;;;;;;;;;;;;;;;;;;;;;;;;;;;;;;;;"1958";"2014-10-01 12:08:42.718";"14";"1";"FINISHED";"NONE";"success";"0";"1";"2014-10-01 12:08:40.752";"2";;;;;;;;;;
"1308711";"1994";;"Windows 7";"Rachel's Experiment (D.T.)";"1.0";"2";"1";"1";"2";"1";"1";"2014-10-01 12:07:21.488";"2014-10-01 12:16:09.237";"1";"0";"1";"7";"6";"module.GoNoGopractice.exec-1265.GoNoGo_Practice";;;;;;;;;;;;;;;;;;;;;;;;;;;;;;;;;;;;;;;;;;;;;;;;;"1959";"2014-10-01 12:08:45.978";"26";"0";"FINISHED";"LEFT";"success";"511";"0";"2014-10-01 12:08:44.012";"3";;;;;;;;;;
"1308711";"1994";;"Windows 7";"Rachel's Experiment (D.T.)";"1.0";"2";"1";"1";"2";"1";"1";"2014-10-01 12:07:21.488";"2014-10-01 12:16:09.237";"1";"0";"1";"8";"7";"module.GoNoGopractice.exec-1265.GoNoGo_Practice";;;;;;;;;;;;;;;;;;;;;;;;;;;;;;;;;;;;;;;;;;;;;;;;;"2068";"2014-10-01 12:08:49.332";"2";"0";"FINISHED";"LEFT";"success";"434";"0";"2014-10-01 12:08:47.257";"1";;;;;;;;;;
"1308711";"1994";;"Windows 7";"Rachel's Experiment (D.T.)";"1.0";"2";"1";"1";"2";"1";"1";"2014-10-01 12:07:21.488";"2014-10-01 12:16:09.237";"1";"0";"1";"9";"8";"module.GoNoGopractice.exec-1265.GoNoGo_Practice";;;;;;;;;;;;;;;;;;;;;;;;;;;;;;;;;;;;;;;;;;;;;;;;;"1958";"2014-10-01 12:08:52.577";"30";"0";"FINISHED";"LEFT";"failure";"495";"1";"2014-10-01 12:08:50.611";"3";;;;;;;;;;
"1308711";"1994";;"Windows 7";"Rachel's Experiment (D.T.)";"1.0";"2";"1";"1";"2";"1";"1";"2014-10-01 12:07:21.488";"2014-10-01 12:16:09.237";"1";"0";"1";"10";"9";"module.GoNoGopractice.exec-1265.GoNoGo_Practice";;;;;;;;;;;;;;;;;;;;;;;;;;;;;;;;;;;;;;;;;;;;;;;;;"1959";"2014-10-01 12:08:55.822";"6";"1";"FINISHED";"NONE";"success";"0";"1";"2014-10-01 12:08:53.856";"1";;;;;;;;;;
"1308711";"1994";;"Windows 7";"Rachel's Experiment (D.T.)";"1.0";"2";"1";"1";"2";"1";"1";"2014-10-01 12:07:21.488";"2014-10-01 12:16:09.237";"1";"0";"1";"11";"10";"module.GoNoGopractice.exec-1265.GoNoGo_Practice";;;;;;;;;;;;;;;;;;;;;;;;;;;;;;;;;;;;;;;;;;;;;;;;;"1960";"2014-10-01 12:08:59.066";"34";"0";"FINISHED";"LEFT";"success";"599";"0";"2014-10-01 12:08:57.101";"3";;;;;;;;;;
"1308711";"1994";;"Windows 7";"Rachel's Experiment (D.T.)";"1.0";"2";"1";"1";"2";"1";"1";"2014-10-01 12:07:21.488";"2014-10-01 12:16:09.237";"1";"0";"1";"12";"11";"module.GoNoGopractice.exec-1265.GoNoGo_Practice";;;;;;;;;;;;;;;;;;;;;;;;;;;;;;;;;;;;;;;;;;;;;;;;;"1959";"2014-10-01 12:09:02.311";"23";"1";"FINISHED";"RIGHT";"success";"529";"0";"2014-10-01 12:09:00.346";"3";;;;;;;;;;
"1308711";"1994";;"Windows 7";"Rachel's Experiment (D.T.)";"1.0";"2";"1";"1";"2";"1";"1";"2014-10-01 12:07:21.488";"2014-10-01 12:16:09.237";"1";"0";"1";"13";"12";"module.GoNoGopractice.exec-1265.GoNoGo_Practice";;;;;;;;;;;;;;;;;;;;;;;;;;;;;;;;;;;;;;;;;;;;;;;;;"1959";"2014-10-01 12:09:05.556";"13";"0";"FINISHED";"NONE";"success";"0";"1";"2014-10-01 12:09:03.590";"2";;;;;;;;;;
"1308711";"1994";;"Windows 7";"Rachel's Experiment (D.T.)";"1.0";"2";"1";"1";"2";"1";"1";"2014-10-01 12:07:21.488";"2014-10-01 12:16:09.237";"1";"0";"1";"14";"13";"module.GoNoGopractice.exec-1265.GoNoGo_Practice";;;;;;;;;;;;;;;;;;;;;;;;;;;;;;;;;;;;;;;;;;;;;;;;;"1960";"2014-10-01 12:09:08.801";"3";"1";"FINISHED";"RIGHT";"success";"489";"0";"2014-10-01 12:09:06.835";"1";;;;;;;;;;
"1308711";"1994";;"Windows 7";"Rachel's Experiment (D.T.)";"1.0";"2";"1";"1";"2";"1";"1";"2014-10-01 12:07:21.488";"2014-10-01 12:16:09.237";"1";"0";"1";"15";"14";"module.GoNoGopractice.exec-1265.GoNoGo_Practice";;;;;;;;;;;;;;;;;;;;;;;;;;;;;;;;;;;;;;;;;;;;;;;;;"1959";"2014-10-01 12:09:12.046";"27";"1";"FINISHED";"NONE";"success";"0";"1";"2014-10-01 12:09:10.080";"3";;;;;;;;;;
"1308711";"1994";;"Windows 7";"Rachel's Experiment (D.T.)";"1.0";"2";"1";"1";"2";"1";"1";"2014-10-01 12:07:21.488";"2014-10-01 12:16:09.237";"1";"0";"1";"16";"15";"module.training_block1.exec-5255.GoNoGo1";"1261";"2014-10-01 12:09:22.638";"NST_correctLoc";"27";"1";"FINISHED";"RIGHT";"success";"431";"0";"2014-10-01 12:09:21.374";"3";;;;;;;;;;;;;;;;;;;;;;;;;;;;;;;;;;;;;;;;;;;;;;;;;;;;;;;;;
"1308711";"1994";;"Windows 7";"Rachel's Experiment (D.T.)";"1.0";"2";"1";"1";"2";"1";"1";"2014-10-01 12:07:21.488";"2014-10-01 12:16:09.237";"1";"0";"1";"17";"16";"module.training_block1.exec-5255.GoNoGo1";"1257";"2014-10-01 12:09:25.181";"NST_correctLoc";"20";"1";"FINISHED";"RIGHT";"success";"486";"0";"2014-10-01 12:09:23.917";"3";;;;;;;;;;;;;;;;;;;;;;;;;;;;;;;;;;;;;;;;;;;;;;;;;;;;;;;;;
"1308711";"1994";;"Windows 7";"Rachel's Experiment (D.T.)";"1.0";"2";"1";"1";"2";"1";"1";"2014-10-01 12:07:21.488";"2014-10-01 12:16:09.237";"1";"0";"1";"18";"17";"module.training_block1.exec-5255.GoNoGo1";"1257";"2014-10-01 12:09:27.724";"ST_correctStop";"8";"0";"FINISHED";"NONE";"success";"0";"1";"2014-10-01 12:09:26.460";"1";;;;;;;;;;;;;;;;;;;;;;;;;;;;;;;;;;;;;;;;;;;;;;;;;;;;;;;;;
"1308711";"1994";;"Windows 7";"Rachel's Experiment (D.T.)";"1.0";"2";"1";"1";"2";"1";"1";"2014-10-01 12:07:21.488";"2014-10-01 12:16:09.237";"1";"0";"1";"19";"18";"module.training_block1.exec-5255.GoNoGo1";"1258";"2014-10-01 12:09:30.266";"ST_correctStop";"19";"1";"FINISHED";"NONE";"success";"0";"1";"2014-10-01 12:09:29.003";"3";;;;;;;;;;;;;;;;;;;;;;;;;;;;;;;;;;;;;;;;;;;;;;;;;;;;;;;;;
"1308711";"1994";;"Windows 7";"Rachel's Experiment (D.T.)";"1.0";"2";"1";"1";"2";"1";"1";"2014-10-01 12:07:21.488";"2014-10-01 12:16:09.237";"1";"0";"1";"20";"19";"module.training_block1.exec-5255.GoNoGo1";"1257";"2014-10-01 12:09:32.809";"NST_correctLoc";"17";"1";"FINISHED";"RIGHT";"success";"545";"0";"2014-10-01 12:09:31.546";"2";;;;;;;;;;;;;;;;;;;;;;;;;;;;;;;;;;;;;;;;;;;;;;;;;;;;;;;;;
"1308711";"1994";;"Windows 7";"Rachel's Experiment (D.T.)";"1.0";"2";"1";"1";"2";"1";"1";"2014-10-01 12:07:21.488";"2014-10-01 12:16:09.237";"1";"0";"1";"21";"20";"module.training_block1.exec-5255.GoNoGo1";"1258";"2014-10-01 12:09:35.352";"ST_correctStop";"1";"1";"FINISHED";"NONE";"success";"0";"1";"2014-10-01 12:09:34.088";"1";;;;;;;;;;;;;;;;;;;;;;;;;;;;;;;;;;;;;;;;;;;;;;;;;;;;;;;;;
"1308711";"1994";;"Windows 7";"Rachel's Experiment (D.T.)";"1.0";"2";"1";"1";"2";"1";"1";"2014-10-01 12:07:21.488";"2014-10-01 12:16:09.237";"1";"0";"1";"22";"21";"module.training_block1.exec-5255.GoNoGo1";"1257";"2014-10-01 12:09:37.895";"NST_correctLoc";"9";"1";"FINISHED";"RIGHT";"success";"1052";"0";"2014-10-01 12:09:36.631";"2";;;;;;;;;;;;;;;;;;;;;;;;;;;;;;;;;;;;;;;;;;;;;;;;;;;;;;;;;
"1308711";"1994";;"Windows 7";"Rachel's Experiment (D.T.)";"1.0";"2";"1";"1";"2";"1";"1";"2014-10-01 12:07:21.488";"2014-10-01 12:16:09.237";"1";"0";"1";"23";"22";"module.training_block1.exec-5255.GoNoGo1";"1258";"2014-10-01 12:09:40.438";"ST_correctStop";"28";"1";"FINISHED";"NONE";"success";"0";"1";"2014-10-01 12:09:39.174";"3";;;;;;;;;;;;;;;;;;;;;;;;;;;;;;;;;;;;;;;;;;;;;;;;;;;;;;;;;
"1308711";"1994";;"Windows 7";"Rachel's Experiment (D.T.)";"1.0";"2";"1";"1";"2";"1";"1";"2014-10-01 12:07:21.488";"2014-10-01 12:16:09.237";"1";"0";"1";"24";"23";"module.training_block1.exec-5255.GoNoGo1";"1257";"2014-10-01 12:09:42.980";"NST_correctLoc";"14";"0";"FINISHED";"LEFT";"success";"502";"0";"2014-10-01 12:09:41.717";"2";;;;;;;;;;;;;;;;;;;;;;;;;;;;;;;;;;;;;;;;;;;;;;;;;;;;;;;;;
"1308711";"1994";;"Windows 7";"Rachel's Experiment (D.T.)";"1.0";"2";"1";"1";"2";"1";"1";"2014-10-01 12:07:21.488";"2014-10-01 12:16:09.237";"1";"0";"1";"25";"24";"module.training_block1.exec-5255.GoNoGo1";"1261";"2014-10-01 12:09:45.523";"ST_correctStop";"6";"1";"FINISHED";"NONE";"success";"0";"1";"2014-10-01 12:09:44.260";"1";;;;;;;;;;;;;;;;;;;;;;;;;;;;;;;;;;;;;;;;;;;;;;;;;;;;;;;;;
"1308711";"1994";;"Windows 7";"Rachel's Experiment (D.T.)";"1.0";"2";"1";"1";"2";"1";"1";"2014-10-01 12:07:21.488";"2014-10-01 12:16:09.237";"1";"0";"1";"26";"25";"module.training_block1.exec-5255.GoNoGo1";"1256";"2014-10-01 12:09:48.066";"NST_correctLoc";"24";"0";"FINISHED";"LEFT";"success";"576";"0";"2014-10-01 12:09:46.802";"3";;;;;;;;;;;;;;;;;;;;;;;;;;;;;;;;;;;;;;;;;;;;;;;;;;;;;;;;;
"1308711";"1994";;"Windows 7";"Rachel's Experiment (D.T.)";"1.0";"2";"1";"1";"2";"1";"1";"2014-10-01 12:07:21.488";"2014-10-01 12:16:09.237";"1";"0";"1";"27";"26";"module.training_block1.exec-5255.GoNoGo1";"1261";"2014-10-01 12:09:50.609";"ST_correctStop";"34";"0";"FINISHED";"NONE";"success";"0";"1";"2014-10-01 12:09:49.345";"3";;;;;;;;;;;;;;;;;;;;;;;;;;;;;;;;;;;;;;;;;;;;;;;;;;;;;;;;;
"1308711";"1994";;"Windows 7";"Rachel's Experiment (D.T.)";"1.0";"2";"1";"1";"2";"1";"1";"2014-10-01 12:07:21.488";"2014-10-01 12:16:09.237";"1";"0";"1";"28";"27";"module.training_block1.exec-5255.GoNoGo1";"1257";"2014-10-01 12:09:53.152";"NST_correctLoc";"12";"1";"FINISHED";"RIGHT";"success";"443";"0";"2014-10-01 12:09:51.888";"2";;;;;;;;;;;;;;;;;;;;;;;;;;;;;;;;;;;;;;;;;;;;;;;;;;;;;;;;;
"1308711";"1994";;"Windows 7";"Rachel's Experiment (D.T.)";"1.0";"2";"1";"1";"2";"1";"1";"2014-10-01 12:07:21.488";"2014-10-01 12:16:09.237";"1";"0";"1";"29";"28";"module.training_block1.exec-5255.GoNoGo1";"1257";"2014-10-01 12:09:55.694";"NST_correctLoc";"16";"0";"FINISHED";"LEFT";"success";"676";"0";"2014-10-01 12:09:54.431";"2";;;;;;;;;;;;;;;;;;;;;;;;;;;;;;;;;;;;;;;;;;;;;;;;;;;;;;;;;
"1308711";"1994";;"Windows 7";"Rachel's Experiment (D.T.)";"1.0";"2";"1";"1";"2";"1";"1";"2014-10-01 12:07:21.488";"2014-10-01 12:16:09.237";"1";"0";"1";"30";"29";"module.training_block1.exec-5255.GoNoGo1";"1257";"2014-10-01 12:09:58.222";"ST_correctStop";"4";"0";"FINISHED";"NONE";"success";"0";"1";"2014-10-01 12:09:56.958";"1";;;;;;;;;;;;;;;;;;;;;;;;;;;;;;;;;;;;;;;;;;;;;;;;;;;;;;;;;
"1308711";"1994";;"Windows 7";"Rachel's Experiment (D.T.)";"1.0";"2";"1";"1";"2";"1";"1";"2014-10-01 12:07:21.488";"2014-10-01 12:16:09.237";"1";"0";"1";"31";"30";"module.training_block1.exec-5255.GoNoGo1";"1257";"2014-10-01 12:10:00.764";"NST_correctLoc";"10";"1";"FINISHED";"RIGHT";"success";"870";"0";"2014-10-01 12:09:59.501";"2";;;;;;;;;;;;;;;;;;;;;;;;;;;;;;;;;;;;;;;;;;;;;;;;;;;;;;;;;
"1308711";"1994";;"Windows 7";"Rachel's Experiment (D.T.)";"1.0";"2";"1";"1";"2";"1";"1";"2014-10-01 12:07:21.488";"2014-10-01 12:16:09.237";"1";"0";"1";"32";"31";"module.training_block1.exec-5255.GoNoGo1";"1257";"2014-10-01 12:10:03.307";"NST_correctLoc";"22";"1";"FINISHED";"RIGHT";"success";"479";"0";"2014-10-01 12:10:02.044";"3";;;;;;;;;;;;;;;;;;;;;;;;;;;;;;;;;;;;;;;;;;;;;;;;;;;;;;;;;
"1308711";"1994";;"Windows 7";"Rachel's Experiment (D.T.)";"1.0";"2";"1";"1";"2";"1";"1";"2014-10-01 12:07:21.488";"2014-10-01 12:16:09.237";"1";"0";"1";"33";"32";"module.training_block1.exec-5255.GoNoGo1";"1257";"2014-10-01 12:10:05.850";"NST_correctLoc";"15";"1";"FINISHED";"RIGHT";"success";"440";"0";"2014-10-01 12:10:04.586";"2";;;;;;;;;;;;;;;;;;;;;;;;;;;;;;;;;;;;;;;;;;;;;;;;;;;;;;;;;
"1308711";"1994";;"Windows 7";"Rachel's Experiment (D.T.)";"1.0";"2";"1";"1";"2";"1";"1";"2014-10-01 12:07:21.488";"2014-10-01 12:16:09.237";"1";"0";"1";"34";"33";"module.training_block1.exec-5255.GoNoGo1";"1257";"2014-10-01 12:10:08.393";"ST_correctStop";"29";"1";"FINISHED";"NONE";"success";"0";"1";"2014-10-01 12:10:07.129";"3";;;;;;;;;;;;;;;;;;;;;;;;;;;;;;;;;;;;;;;;;;;;;;;;;;;;;;;;;
"1308711";"1994";;"Windows 7";"Rachel's Experiment (D.T.)";"1.0";"2";"1";"1";"2";"1";"1";"2014-10-01 12:07:21.488";"2014-10-01 12:16:09.237";"1";"0";"1";"35";"34";"module.training_block1.exec-5255.GoNoGo1";"1257";"2014-10-01 12:10:10.936";"NST_correctLoc";"26";"0";"FINISHED";"LEFT";"success";"571";"0";"2014-10-01 12:10:09.672";"3";;;;;;;;;;;;;;;;;;;;;;;;;;;;;;;;;;;;;;;;;;;;;;;;;;;;;;;;;
"1308711";"1994";;"Windows 7";"Rachel's Experiment (D.T.)";"1.0";"2";"1";"1";"2";"1";"1";"2014-10-01 12:07:21.488";"2014-10-01 12:16:09.237";"1";"0";"1";"36";"35";"module.training_block1.exec-5255.GoNoGo1";"1261";"2014-10-01 12:10:13.478";"ST_correctStop";"3";"1";"FINISHED";"NONE";"success";"0";"1";"2014-10-01 12:10:12.215";"1";;;;;;;;;;;;;;;;;;;;;;;;;;;;;;;;;;;;;;;;;;;;;;;;;;;;;;;;;
"1308711";"1994";;"Windows 7";"Rachel's Experiment (D.T.)";"1.0";"2";"1";"1";"2";"1";"1";"2014-10-01 12:07:21.488";"2014-10-01 12:16:09.237";"1";"0";"1";"37";"36";"module.training_block1.exec-5255.GoNoGo1";"1261";"2014-10-01 12:10:16.021";"NST_correctLoc";"23";"0";"FINISHED";"LEFT";"success";"497";"0";"2014-10-01 12:10:14.758";"3";;;;;;;;;;;;;;;;;;;;;;;;;;;;;;;;;;;;;;;;;;;;;;;;;;;;;;;;;
"1308711";"1994";;"Windows 7";"Rachel's Experiment (D.T.)";"1.0";"2";"1";"1";"2";"1";"1";"2014-10-01 12:07:21.488";"2014-10-01 12:16:09.237";"1";"0";"1";"38";"37";"module.training_block1.exec-5255.GoNoGo1";"1256";"2014-10-01 12:10:18.564";"ST_correctStop";"7";"0";"FINISHED";"NONE";"success";"0";"1";"2014-10-01 12:10:17.300";"1";;;;;;;;;;;;;;;;;;;;;;;;;;;;;;;;;;;;;;;;;;;;;;;;;;;;;;;;;
"1308711";"1994";;"Windows 7";"Rachel's Experiment (D.T.)";"1.0";"2";"1";"1";"2";"1";"1";"2014-10-01 12:07:21.488";"2014-10-01 12:16:09.237";"1";"0";"1";"39";"38";"module.training_block1.exec-5255.GoNoGo1";"1261";"2014-10-01 12:10:21.107";"ST_correctStop";"2";"0";"FINISHED";"NONE";"success";"0";"1";"2014-10-01 12:10:19.843";"1";;;;;;;;;;;;;;;;;;;;;;;;;;;;;;;;;;;;;;;;;;;;;;;;;;;;;;;;;
"1308711";"1994";;"Windows 7";"Rachel's Experiment (D.T.)";"1.0";"2";"1";"1";"2";"1";"1";"2014-10-01 12:07:21.488";"2014-10-01 12:16:09.237";"1";"0";"1";"40";"39";"module.training_block1.exec-5255.GoNoGo1";"1261";"2014-10-01 12:10:23.650";"NST_correctLoc";"13";"0";"FINISHED";"LEFT";"success";"517";"0";"2014-10-01 12:10:22.386";"2";;;;;;;;;;;;;;;;;;;;;;;;;;;;;;;;;;;;;;;;;;;;;;;;;;;;;;;;;
"1308711";"1994";;"Windows 7";"Rachel's Experiment (D.T.)";"1.0";"2";"1";"1";"2";"1";"1";"2014-10-01 12:07:21.488";"2014-10-01 12:16:09.237";"1";"0";"1";"41";"40";"module.training_block1.exec-5255.GoNoGo1";"1257";"2014-10-01 12:10:26.192";"ST_correctStop";"25";"0";"FINISHED";"NONE";"success";"0";"1";"2014-10-01 12:10:24.929";"3";;;;;;;;;;;;;;;;;;;;;;;;;;;;;;;;;;;;;;;;;;;;;;;;;;;;;;;;;
"1308711";"1994";;"Windows 7";"Rachel's Experiment (D.T.)";"1.0";"2";"1";"1";"2";"1";"1";"2014-10-01 12:07:21.488";"2014-10-01 12:16:09.237";"1";"0";"1";"42";"41";"module.training_block1.exec-5255.GoNoGo1";"1258";"2014-10-01 12:10:28.735";"NST_correctLoc";"35";"0";"FINISHED";"LEFT";"success";"603";"0";"2014-10-01 12:10:27.472";"3";;;;;;;;;;;;;;;;;;;;;;;;;;;;;;;;;;;;;;;;;;;;;;;;;;;;;;;;;
"1308711";"1994";;"Windows 7";"Rachel's Experiment (D.T.)";"1.0";"2";"1";"1";"2";"1";"1";"2014-10-01 12:07:21.488";"2014-10-01 12:16:09.237";"1";"0";"1";"43";"42";"module.training_block1.exec-5255.GoNoGo1";"1253";"2014-10-01 12:10:31.278";"ST_correctStop";"33";"0";"FINISHED";"NONE";"success";"0";"1";"2014-10-01 12:10:30.014";"3";;;;;;;;;;;;;;;;;;;;;;;;;;;;;;;;;;;;;;;;;;;;;;;;;;;;;;;;;
"1308711";"1994";;"Windows 7";"Rachel's Experiment (D.T.)";"1.0";"2";"1";"1";"2";"1";"1";"2014-10-01 12:07:21.488";"2014-10-01 12:16:09.237";"1";"0";"1";"44";"43";"module.training_block1.exec-5255.GoNoGo1";"1257";"2014-10-01 12:10:33.821";"ST_correctStop";"0";"0";"FINISHED";"NONE";"success";"0";"1";"2014-10-01 12:10:32.557";"1";;;;;;;;;;;;;;;;;;;;;;;;;;;;;;;;;;;;;;;;;;;;;;;;;;;;;;;;;
"1308711";"1994";;"Windows 7";"Rachel's Experiment (D.T.)";"1.0";"2";"1";"1";"2";"1";"1";"2014-10-01 12:07:21.488";"2014-10-01 12:16:09.237";"1";"0";"1";"45";"44";"module.training_block1.exec-5255.GoNoGo1";"1258";"2014-10-01 12:10:36.364";"NST_correctLoc";"18";"0";"FINISHED";"LEFT";"success";"495";"0";"2014-10-01 12:10:35.100";"3";;;;;;;;;;;;;;;;;;;;;;;;;;;;;;;;;;;;;;;;;;;;;;;;;;;;;;;;;
"1308711";"1994";;"Windows 7";"Rachel's Experiment (D.T.)";"1.0";"2";"1";"1";"2";"1";"1";"2014-10-01 12:07:21.488";"2014-10-01 12:16:09.237";"1";"0";"1";"46";"45";"module.training_block1.exec-5255.GoNoGo1";"1258";"2014-10-01 12:10:38.907";"ST_correctStop";"5";"0";"FINISHED";"NONE";"success";"0";"1";"2014-10-01 12:10:37.643";"1";;;;;;;;;;;;;;;;;;;;;;;;;;;;;;;;;;;;;;;;;;;;;;;;;;;;;;;;;
"1308711";"1994";;"Windows 7";"Rachel's Experiment (D.T.)";"1.0";"2";"1";"1";"2";"1";"1";"2014-10-01 12:07:21.488";"2014-10-01 12:16:09.237";"1";"0";"1";"47";"46";"module.training_block1.exec-5255.GoNoGo1";"1257";"2014-10-01 12:10:41.449";"NST_correctLoc";"11";"0";"FINISHED";"LEFT";"success";"561";"0";"2014-10-01 12:10:40.186";"2";;;;;;;;;;;;;;;;;;;;;;;;;;;;;;;;;;;;;;;;;;;;;;;;;;;;;;;;;
"1308711";"1994";;"Windows 7";"Rachel's Experiment (D.T.)";"1.0";"2";"1";"1";"2";"1";"1";"2014-10-01 12:07:21.488";"2014-10-01 12:16:09.237";"1";"0";"1";"48";"47";"module.training_block1.exec-5255.GoNoGo1";"1261";"2014-10-01 12:10:43.992";"ST_correctStop";"30";"0";"FINISHED";"NONE";"success";"0";"1";"2014-10-01 12:10:42.729";"3";;;;;;;;;;;;;;;;;;;;;;;;;;;;;;;;;;;;;;;;;;;;;;;;;;;;;;;;;
"1308711";"1994";;"Windows 7";"Rachel's Experiment (D.T.)";"1.0";"2";"1";"1";"2";"1";"1";"2014-10-01 12:07:21.488";"2014-10-01 12:16:09.237";"1";"0";"1";"49";"48";"module.training_block1.exec-5255.GoNoGo1";"1257";"2014-10-01 12:10:46.535";"NST_correctLoc";"31";"1";"FINISHED";"RIGHT";"success";"699";"0";"2014-10-01 12:10:45.271";"3";;;;;;;;;;;;;;;;;;;;;;;;;;;;;;;;;;;;;;;;;;;;;;;;;;;;;;;;;
"1308711";"1994";;"Windows 7";"Rachel's Experiment (D.T.)";"1.0";"2";"1";"1";"2";"1";"1";"2014-10-01 12:07:21.488";"2014-10-01 12:16:09.237";"1";"0";"1";"50";"49";"module.training_block1.exec-5255.GoNoGo1";"1256";"2014-10-01 12:10:49.078";"ST_correctStop";"32";"0";"FINISHED";"NONE";"success";"0";"1";"2014-10-01 12:10:47.814";"3";;;;;;;;;;;;;;;;;;;;;;;;;;;;;;;;;;;;;;;;;;;;;;;;;;;;;;;;;
"1308711";"1994";;"Windows 7";"Rachel's Experiment (D.T.)";"1.0";"2";"1";"1";"2";"1";"1";"2014-10-01 12:07:21.488";"2014-10-01 12:16:09.237";"1";"0";"1";"51";"50";"module.training_block1.exec-5255.GoNoGo1";"1257";"2014-10-01 12:10:51.621";"ST_correctStop";"21";"0";"FINISHED";"NONE";"success";"0";"1";"2014-10-01 12:10:50.357";"3";;;;;;;;;;;;;;;;;;;;;;;;;;;;;;;;;;;;;;;;;;;;;;;;;;;;;;;;;
"1308711";"1994";;"Windows 7";"Rachel's Experiment (D.T.)";"1.0";"2";"1";"1";"2";"1";"1";"2014-10-01 12:07:21.488";"2014-10-01 12:16:09.237";"1";"0";"1";"52";"51";"module.training_block2.exec-8129.GoNoGo2";;;;;;;;;;;;;"1261";"2014-10-01 12:11:02.634";"NST_correctLoc";"22";"0";"FINISHED";"LEFT";"success";"476";"0";"2014-10-01 12:11:01.371";"3";;;;;;;;;;;;;;;;;;;;;;;;;;;;;;;;;;;;;;;;;;;;;
"1308711";"1994";;"Windows 7";"Rachel's Experiment (D.T.)";"1.0";"2";"1";"1";"2";"1";"1";"2014-10-01 12:07:21.488";"2014-10-01 12:16:09.237";"1";"0";"1";"53";"52";"module.training_block2.exec-8129.GoNoGo2";;;;;;;;;;;;;"1261";"2014-10-01 12:11:05.177";"NST_correctLoc";"23";"0";"FINISHED";"LEFT";"success";"485";"0";"2014-10-01 12:11:03.913";"3";;;;;;;;;;;;;;;;;;;;;;;;;;;;;;;;;;;;;;;;;;;;;
"1308711";"1994";;"Windows 7";"Rachel's Experiment (D.T.)";"1.0";"2";"1";"1";"2";"1";"1";"2014-10-01 12:07:21.488";"2014-10-01 12:16:09.237";"1";"0";"1";"54";"53";"module.training_block2.exec-8129.GoNoGo2";;;;;;;;;;;;;"1261";"2014-10-01 12:11:07.720";"ST_correctStop";"27";"1";"FINISHED";"NONE";"success";"0";"1";"2014-10-01 12:11:06.456";"3";;;;;;;;;;;;;;;;;;;;;;;;;;;;;;;;;;;;;;;;;;;;;
"1308711";"1994";;"Windows 7";"Rachel's Experiment (D.T.)";"1.0";"2";"1";"1";"2";"1";"1";"2014-10-01 12:07:21.488";"2014-10-01 12:16:09.237";"1";"0";"1";"55";"54";"module.training_block2.exec-8129.GoNoGo2";;;;;;;;;;;;;"1261";"2014-10-01 12:11:10.263";"ST_correctStop";"2";"0";"FINISHED";"NONE";"success";"0";"1";"2014-10-01 12:11:08.999";"1";;;;;;;;;;;;;;;;;;;;;;;;;;;;;;;;;;;;;;;;;;;;;
"1308711";"1994";;"Windows 7";"Rachel's Experiment (D.T.)";"1.0";"2";"1";"1";"2";"1";"1";"2014-10-01 12:07:21.488";"2014-10-01 12:16:09.237";"1";"0";"1";"56";"55";"module.training_block2.exec-8129.GoNoGo2";;;;;;;;;;;;;"1261";"2014-10-01 12:11:12.805";"ST_failedStop";"21";"0";"FINISHED";"LEFT";"failure";"545";"1";"2014-10-01 12:11:11.542";"3";;;;;;;;;;;;;;;;;;;;;;;;;;;;;;;;;;;;;;;;;;;;;
"1308711";"1994";;"Windows 7";"Rachel's Experiment (D.T.)";"1.0";"2";"1";"1";"2";"1";"1";"2014-10-01 12:07:21.488";"2014-10-01 12:16:09.237";"1";"0";"1";"57";"56";"module.training_block2.exec-8129.GoNoGo2";;;;;;;;;;;;;"1261";"2014-10-01 12:11:15.348";"NST_correctLoc";"20";"0";"FINISHED";"LEFT";"success";"522";"0";"2014-10-01 12:11:14.085";"3";;;;;;;;;;;;;;;;;;;;;;;;;;;;;;;;;;;;;;;;;;;;;
"1308711";"1994";;"Windows 7";"Rachel's Experiment (D.T.)";"1.0";"2";"1";"1";"2";"1";"1";"2014-10-01 12:07:21.488";"2014-10-01 12:16:09.237";"1";"0";"1";"58";"57";"module.training_block2.exec-8129.GoNoGo2";;;;;;;;;;;;;"1261";"2014-10-01 12:11:17.891";"NST_correctLoc";"34";"1";"FINISHED";"RIGHT";"success";"483";"0";"2014-10-01 12:11:16.627";"3";;;;;;;;;;;;;;;;;;;;;;;;;;;;;;;;;;;;;;;;;;;;;
"1308711";"1994";;"Windows 7";"Rachel's Experiment (D.T.)";"1.0";"2";"1";"1";"2";"1";"1";"2014-10-01 12:07:21.488";"2014-10-01 12:16:09.237";"1";"0";"1";"59";"58";"module.training_block2.exec-8129.GoNoGo2";;;;;;;;;;;;;"1261";"2014-10-01 12:11:20.434";"ST_correctStop";"0";"0";"FINISHED";"NONE";"success";"0";"1";"2014-10-01 12:11:19.170";"1";;;;;;;;;;;;;;;;;;;;;;;;;;;;;;;;;;;;;;;;;;;;;
"1308711";"1994";;"Windows 7";"Rachel's Experiment (D.T.)";"1.0";"2";"1";"1";"2";"1";"1";"2014-10-01 12:07:21.488";"2014-10-01 12:16:09.237";"1";"0";"1";"60";"59";"module.training_block2.exec-8129.GoNoGo2";;;;;;;;;;;;;"1261";"2014-10-01 12:11:22.977";"ST_correctStop";"31";"1";"FINISHED";"NONE";"success";"0";"1";"2014-10-01 12:11:21.713";"3";;;;;;;;;;;;;;;;;;;;;;;;;;;;;;;;;;;;;;;;;;;;;
"1308711";"1994";;"Windows 7";"Rachel's Experiment (D.T.)";"1.0";"2";"1";"1";"2";"1";"1";"2014-10-01 12:07:21.488";"2014-10-01 12:16:09.237";"1";"0";"1";"61";"60";"module.training_block2.exec-8129.GoNoGo2";;;;;;;;;;;;;"1261";"2014-10-01 12:11:25.519";"ST_correctStop";"4";"0";"FINISHED";"NONE";"success";"0";"1";"2014-10-01 12:11:24.256";"1";;;;;;;;;;;;;;;;;;;;;;;;;;;;;;;;;;;;;;;;;;;;;
"1308711";"1994";;"Windows 7";"Rachel's Experiment (D.T.)";"1.0";"2";"1";"1";"2";"1";"1";"2014-10-01 12:07:21.488";"2014-10-01 12:16:09.237";"1";"0";"1";"62";"61";"module.training_block2.exec-8129.GoNoGo2";;;;;;;;;;;;;"1261";"2014-10-01 12:11:28.062";"NST_correctLoc";"10";"1";"FINISHED";"RIGHT";"success";"504";"0";"2014-10-01 12:11:26.799";"2";;;;;;;;;;;;;;;;;;;;;;;;;;;;;;;;;;;;;;;;;;;;;
"1308711";"1994";;"Windows 7";"Rachel's Experiment (D.T.)";"1.0";"2";"1";"1";"2";"1";"1";"2014-10-01 12:07:21.488";"2014-10-01 12:16:09.237";"1";"0";"1";"63";"62";"module.training_block2.exec-8129.GoNoGo2";;;;;;;;;;;;;"1261";"2014-10-01 12:11:30.605";"ST_correctStop";"6";"0";"FINISHED";"NONE";"success";"0";"1";"2014-10-01 12:11:29.341";"1";;;;;;;;;;;;;;;;;;;;;;;;;;;;;;;;;;;;;;;;;;;;;
"1308711";"1994";;"Windows 7";"Rachel's Experiment (D.T.)";"1.0";"2";"1";"1";"2";"1";"1";"2014-10-01 12:07:21.488";"2014-10-01 12:16:09.237";"1";"0";"1";"64";"63";"module.training_block2.exec-8129.GoNoGo2";;;;;;;;;;;;;"1261";"2014-10-01 12:11:33.148";"NST_correctLoc";"26";"0";"FINISHED";"LEFT";"success";"610";"0";"2014-10-01 12:11:31.884";"3";;;;;;;;;;;;;;;;;;;;;;;;;;;;;;;;;;;;;;;;;;;;;
"1308711";"1994";;"Windows 7";"Rachel's Experiment (D.T.)";"1.0";"2";"1";"1";"2";"1";"1";"2014-10-01 12:07:21.488";"2014-10-01 12:16:09.237";"1";"0";"1";"65";"64";"module.training_block2.exec-8129.GoNoGo2";;;;;;;;;;;;;"1261";"2014-10-01 12:11:35.691";"ST_correctStop";"24";"0";"FINISHED";"NONE";"success";"0";"1";"2014-10-01 12:11:34.427";"3";;;;;;;;;;;;;;;;;;;;;;;;;;;;;;;;;;;;;;;;;;;;;
"1308711";"1994";;"Windows 7";"Rachel's Experiment (D.T.)";"1.0";"2";"1";"1";"2";"1";"1";"2014-10-01 12:07:21.488";"2014-10-01 12:16:09.237";"1";"0";"1";"66";"65";"module.training_block2.exec-8129.GoNoGo2";;;;;;;;;;;;;"1261";"2014-10-01 12:11:38.233";"ST_correctStop";"7";"0";"FINISHED";"NONE";"success";"0";"1";"2014-10-01 12:11:36.970";"1";;;;;;;;;;;;;;;;;;;;;;;;;;;;;;;;;;;;;;;;;;;;;
"1308711";"1994";;"Windows 7";"Rachel's Experiment (D.T.)";"1.0";"2";"1";"1";"2";"1";"1";"2014-10-01 12:07:21.488";"2014-10-01 12:16:09.237";"1";"0";"1";"67";"66";"module.training_block2.exec-8129.GoNoGo2";;;;;;;;;;;;;"1261";"2014-10-01 12:11:40.776";"NST_correctLoc";"11";"0";"FINISHED";"LEFT";"success";"614";"0";"2014-10-01 12:11:39.513";"2";;;;;;;;;;;;;;;;;;;;;;;;;;;;;;;;;;;;;;;;;;;;;
"1308711";"1994";;"Windows 7";"Rachel's Experiment (D.T.)";"1.0";"2";"1";"1";"2";"1";"1";"2014-10-01 12:07:21.488";"2014-10-01 12:16:09.237";"1";"0";"1";"68";"67";"module.training_block2.exec-8129.GoNoGo2";;;;;;;;;;;;;"1261";"2014-10-01 12:11:43.319";"ST_correctStop";"33";"0";"FINISHED";"NONE";"success";"0";"1";"2014-10-01 12:11:42.055";"3";;;;;;;;;;;;;;;;;;;;;;;;;;;;;;;;;;;;;;;;;;;;;
"1308711";"1994";;"Windows 7";"Rachel's Experiment (D.T.)";"1.0";"2";"1";"1";"2";"1";"1";"2014-10-01 12:07:21.488";"2014-10-01 12:16:09.237";"1";"0";"1";"69";"68";"module.training_block2.exec-8129.GoNoGo2";;;;;;;;;;;;;"1261";"2014-10-01 12:11:45.862";"ST_correctStop";"8";"1";"FINISHED";"NONE";"success";"0";"1";"2014-10-01 12:11:44.598";"1";;;;;;;;;;;;;;;;;;;;;;;;;;;;;;;;;;;;;;;;;;;;;
"1308711";"1994";;"Windows 7";"Rachel's Experiment (D.T.)";"1.0";"2";"1";"1";"2";"1";"1";"2014-10-01 12:07:21.488";"2014-10-01 12:16:09.237";"1";"0";"1";"70";"69";"module.training_block2.exec-8129.GoNoGo2";;;;;;;;;;;;;"1261";"2014-10-01 12:11:48.405";"NST_correctLoc";"18";"1";"FINISHED";"RIGHT";"success";"561";"0";"2014-10-01 12:11:47.141";"3";;;;;;;;;;;;;;;;;;;;;;;;;;;;;;;;;;;;;;;;;;;;;
"1308711";"1994";;"Windows 7";"Rachel's Experiment (D.T.)";"1.0";"2";"1";"1";"2";"1";"1";"2014-10-01 12:07:21.488";"2014-10-01 12:16:09.237";"1";"0";"1";"71";"70";"module.training_block2.exec-8129.GoNoGo2";;;;;;;;;;;;;"1261";"2014-10-01 12:11:50.947";"NST_correctLoc";"35";"0";"FINISHED";"LEFT";"success";"642";"0";"2014-10-01 12:11:49.684";"3";;;;;;;;;;;;;;;;;;;;;;;;;;;;;;;;;;;;;;;;;;;;;
"1308711";"1994";;"Windows 7";"Rachel's Experiment (D.T.)";"1.0";"2";"1";"1";"2";"1";"1";"2014-10-01 12:07:21.488";"2014-10-01 12:16:09.237";"1";"0";"1";"72";"71";"module.training_block2.exec-8129.GoNoGo2";;;;;;;;;;;;;"1261";"2014-10-01 12:11:53.490";"NST_correctLoc";"17";"0";"FINISHED";"LEFT";"success";"644";"0";"2014-10-01 12:11:52.227";"2";;;;;;;;;;;;;;;;;;;;;;;;;;;;;;;;;;;;;;;;;;;;;
"1308711";"1994";;"Windows 7";"Rachel's Experiment (D.T.)";"1.0";"2";"1";"1";"2";"1";"1";"2014-10-01 12:07:21.488";"2014-10-01 12:16:09.237";"1";"0";"1";"73";"72";"module.training_block2.exec-8129.GoNoGo2";;;;;;;;;;;;;"1261";"2014-10-01 12:11:56.033";"NST_correctLoc";"13";"0";"FINISHED";"LEFT";"success";"621";"0";"2014-10-01 12:11:54.769";"2";;;;;;;;;;;;;;;;;;;;;;;;;;;;;;;;;;;;;;;;;;;;;
"1308711";"1994";;"Windows 7";"Rachel's Experiment (D.T.)";"1.0";"2";"1";"1";"2";"1";"1";"2014-10-01 12:07:21.488";"2014-10-01 12:16:09.237";"1";"0";"1";"74";"73";"module.training_block2.exec-8129.GoNoGo2";;;;;;;;;;;;;"1261";"2014-10-01 12:11:58.576";"ST_correctStop";"25";"1";"FINISHED";"NONE";"success";"0";"1";"2014-10-01 12:11:57.312";"3";;;;;;;;;;;;;;;;;;;;;;;;;;;;;;;;;;;;;;;;;;;;;
"1308711";"1994";;"Windows 7";"Rachel's Experiment (D.T.)";"1.0";"2";"1";"1";"2";"1";"1";"2014-10-01 12:07:21.488";"2014-10-01 12:16:09.237";"1";"0";"1";"75";"74";"module.training_block2.exec-8129.GoNoGo2";;;;;;;;;;;;;"1262";"2014-10-01 12:12:01.243";"ST_correctStop";"29";"1";"FINISHED";"NONE";"success";"0";"1";"2014-10-01 12:11:59.980";"3";;;;;;;;;;;;;;;;;;;;;;;;;;;;;;;;;;;;;;;;;;;;;
"1308711";"1994";;"Windows 7";"Rachel's Experiment (D.T.)";"1.0";"2";"1";"1";"2";"1";"1";"2014-10-01 12:07:21.488";"2014-10-01 12:16:09.237";"1";"0";"1";"76";"75";"module.training_block2.exec-8129.GoNoGo2";;;;;;;;;;;;;"1261";"2014-10-01 12:12:03.786";"ST_correctStop";"5";"0";"FINISHED";"NONE";"success";"0";"1";"2014-10-01 12:12:02.523";"1";;;;;;;;;;;;;;;;;;;;;;;;;;;;;;;;;;;;;;;;;;;;;
"1308711";"1994";;"Windows 7";"Rachel's Experiment (D.T.)";"1.0";"2";"1";"1";"2";"1";"1";"2014-10-01 12:07:21.488";"2014-10-01 12:16:09.237";"1";"0";"1";"77";"76";"module.training_block2.exec-8129.GoNoGo2";;;;;;;;;;;;;"1261";"2014-10-01 12:12:06.329";"ST_correctStop";"32";"0";"FINISHED";"NONE";"success";"0";"1";"2014-10-01 12:12:05.065";"3";;;;;;;;;;;;;;;;;;;;;;;;;;;;;;;;;;;;;;;;;;;;;
"1308711";"1994";;"Windows 7";"Rachel's Experiment (D.T.)";"1.0";"2";"1";"1";"2";"1";"1";"2014-10-01 12:07:21.488";"2014-10-01 12:16:09.237";"1";"0";"1";"78";"77";"module.training_block2.exec-8129.GoNoGo2";;;;;;;;;;;;;"1261";"2014-10-01 12:12:08.872";"NST_correctLoc";"28";"1";"FINISHED";"RIGHT";"success";"638";"0";"2014-10-01 12:12:07.608";"3";;;;;;;;;;;;;;;;;;;;;;;;;;;;;;;;;;;;;;;;;;;;;
"1308711";"1994";;"Windows 7";"Rachel's Experiment (D.T.)";"1.0";"2";"1";"1";"2";"1";"1";"2014-10-01 12:07:21.488";"2014-10-01 12:16:09.237";"1";"0";"1";"79";"78";"module.training_block2.exec-8129.GoNoGo2";;;;;;;;;;;;;"1261";"2014-10-01 12:12:11.524";"ST_correctStop";"1";"1";"FINISHED";"NONE";"success";"0";"1";"2014-10-01 12:12:10.260";"1";;;;;;;;;;;;;;;;;;;;;;;;;;;;;;;;;;;;;;;;;;;;;
"1308711";"1994";;"Windows 7";"Rachel's Experiment (D.T.)";"1.0";"2";"1";"1";"2";"1";"1";"2014-10-01 12:07:21.488";"2014-10-01 12:16:09.237";"1";"0";"1";"80";"79";"module.training_block2.exec-8129.GoNoGo2";;;;;;;;;;;;;"1261";"2014-10-01 12:12:14.067";"ST_correctStop";"3";"1";"FINISHED";"NONE";"success";"0";"1";"2014-10-01 12:12:12.803";"1";;;;;;;;;;;;;;;;;;;;;;;;;;;;;;;;;;;;;;;;;;;;;
"1308711";"1994";;"Windows 7";"Rachel's Experiment (D.T.)";"1.0";"2";"1";"1";"2";"1";"1";"2014-10-01 12:07:21.488";"2014-10-01 12:16:09.237";"1";"0";"1";"81";"80";"module.training_block2.exec-8129.GoNoGo2";;;;;;;;;;;;;"1261";"2014-10-01 12:12:16.609";"NST_correctLoc";"9";"0";"FINISHED";"LEFT";"success";"548";"0";"2014-10-01 12:12:15.346";"2";;;;;;;;;;;;;;;;;;;;;;;;;;;;;;;;;;;;;;;;;;;;;
"1308711";"1994";;"Windows 7";"Rachel's Experiment (D.T.)";"1.0";"2";"1";"1";"2";"1";"1";"2014-10-01 12:07:21.488";"2014-10-01 12:16:09.237";"1";"0";"1";"82";"81";"module.training_block2.exec-8129.GoNoGo2";;;;;;;;;;;;;"1261";"2014-10-01 12:12:19.152";"NST_correctLoc";"15";"1";"FINISHED";"RIGHT";"success";"717";"0";"2014-10-01 12:12:17.889";"2";;;;;;;;;;;;;;;;;;;;;;;;;;;;;;;;;;;;;;;;;;;;;
"1308711";"1994";;"Windows 7";"Rachel's Experiment (D.T.)";"1.0";"2";"1";"1";"2";"1";"1";"2014-10-01 12:07:21.488";"2014-10-01 12:16:09.237";"1";"0";"1";"83";"82";"module.training_block2.exec-8129.GoNoGo2";;;;;;;;;;;;;"1261";"2014-10-01 12:12:21.695";"NST_correctLoc";"16";"0";"FINISHED";"LEFT";"success";"639";"0";"2014-10-01 12:12:20.431";"2";;;;;;;;;;;;;;;;;;;;;;;;;;;;;;;;;;;;;;;;;;;;;
"1308711";"1994";;"Windows 7";"Rachel's Experiment (D.T.)";"1.0";"2";"1";"1";"2";"1";"1";"2014-10-01 12:07:21.488";"2014-10-01 12:16:09.237";"1";"0";"1";"84";"83";"module.training_block2.exec-8129.GoNoGo2";;;;;;;;;;;;;"1261";"2014-10-01 12:12:24.238";"NST_correctLoc";"19";"0";"FINISHED";"LEFT";"success";"512";"0";"2014-10-01 12:12:22.974";"3";;;;;;;;;;;;;;;;;;;;;;;;;;;;;;;;;;;;;;;;;;;;;
"1308711";"1994";;"Windows 7";"Rachel's Experiment (D.T.)";"1.0";"2";"1";"1";"2";"1";"1";"2014-10-01 12:07:21.488";"2014-10-01 12:16:09.237";"1";"0";"1";"85";"84";"module.training_block2.exec-8129.GoNoGo2";;;;;;;;;;;;;"1261";"2014-10-01 12:12:26.781";"ST_correctStop";"30";"0";"FINISHED";"NONE";"success";"0";"1";"2014-10-01 12:12:25.517";"3";;;;;;;;;;;;;;;;;;;;;;;;;;;;;;;;;;;;;;;;;;;;;
"1308711";"1994";;"Windows 7";"Rachel's Experiment (D.T.)";"1.0";"2";"1";"1";"2";"1";"1";"2014-10-01 12:07:21.488";"2014-10-01 12:16:09.237";"1";"0";"1";"86";"85";"module.training_block2.exec-8129.GoNoGo2";;;;;;;;;;;;;"1261";"2014-10-01 12:12:29.324";"NST_correctLoc";"14";"1";"FINISHED";"RIGHT";"success";"450";"0";"2014-10-01 12:12:28.060";"2";;;;;;;;;;;;;;;;;;;;;;;;;;;;;;;;;;;;;;;;;;;;;
"1308711";"1994";;"Windows 7";"Rachel's Experiment (D.T.)";"1.0";"2";"1";"1";"2";"1";"1";"2014-10-01 12:07:21.488";"2014-10-01 12:16:09.237";"1";"0";"1";"87";"86";"module.training_block2.exec-8129.GoNoGo2";;;;;;;;;;;;;"1261";"2014-10-01 12:12:31.866";"NST_correctLoc";"12";"0";"FINISHED";"LEFT";"success";"563";"0";"2014-10-01 12:12:30.603";"2";;;;;;;;;;;;;;;;;;;;;;;;;;;;;;;;;;;;;;;;;;;;;
"1308711";"1994";;"Windows 7";"Rachel's Experiment (D.T.)";"1.0";"2";"1";"1";"2";"1";"1";"2014-10-01 12:07:21.488";"2014-10-01 12:16:09.237";"1";"0";"1";"88";"87";"module.training_block3.exec-1477.GoNoGo3";;;;;;;;;;;;;;;;;;;;;;;;;"1261";"2014-10-01 12:12:42.428";"NST_correctLoc";"18";"0";"FINISHED";"LEFT";"success";"554";"0";"2014-10-01 12:12:41.164";"3";;;;;;;;;;;;;;;;;;;;;;;;;;;;;;;;;
"1308711";"1994";;"Windows 7";"Rachel's Experiment (D.T.)";"1.0";"2";"1";"1";"2";"1";"1";"2014-10-01 12:07:21.488";"2014-10-01 12:16:09.237";"1";"0";"1";"89";"88";"module.training_block3.exec-1477.GoNoGo3";;;;;;;;;;;;;;;;;;;;;;;;;"1261";"2014-10-01 12:12:44.970";"ST_correctStop";"19";"1";"FINISHED";"NONE";"success";"0";"1";"2014-10-01 12:12:43.707";"3";;;;;;;;;;;;;;;;;;;;;;;;;;;;;;;;;
"1308711";"1994";;"Windows 7";"Rachel's Experiment (D.T.)";"1.0";"2";"1";"1";"2";"1";"1";"2014-10-01 12:07:21.488";"2014-10-01 12:16:09.237";"1";"0";"1";"90";"89";"module.training_block3.exec-1477.GoNoGo3";;;;;;;;;;;;;;;;;;;;;;;;;"1261";"2014-10-01 12:12:47.513";"NST_correctLoc";"11";"0";"FINISHED";"LEFT";"success";"460";"0";"2014-10-01 12:12:46.250";"2";;;;;;;;;;;;;;;;;;;;;;;;;;;;;;;;;
"1308711";"1994";;"Windows 7";"Rachel's Experiment (D.T.)";"1.0";"2";"1";"1";"2";"1";"1";"2014-10-01 12:07:21.488";"2014-10-01 12:16:09.237";"1";"0";"1";"91";"90";"module.training_block3.exec-1477.GoNoGo3";;;;;;;;;;;;;;;;;;;;;;;;;"1261";"2014-10-01 12:12:50.056";"ST_correctStop";"30";"1";"FINISHED";"NONE";"success";"0";"1";"2014-10-01 12:12:48.792";"3";;;;;;;;;;;;;;;;;;;;;;;;;;;;;;;;;
"1308711";"1994";;"Windows 7";"Rachel's Experiment (D.T.)";"1.0";"2";"1";"1";"2";"1";"1";"2014-10-01 12:07:21.488";"2014-10-01 12:16:09.237";"1";"0";"1";"92";"91";"module.training_block3.exec-1477.GoNoGo3";;;;;;;;;;;;;;;;;;;;;;;;;"1262";"2014-10-01 12:12:52.599";"NST_correctLoc";"28";"1";"FINISHED";"RIGHT";"success";"959";"0";"2014-10-01 12:12:51.335";"3";;;;;;;;;;;;;;;;;;;;;;;;;;;;;;;;;
"1308711";"1994";;"Windows 7";"Rachel's Experiment (D.T.)";"1.0";"2";"1";"1";"2";"1";"1";"2014-10-01 12:07:21.488";"2014-10-01 12:16:09.237";"1";"0";"1";"93";"92";"module.training_block3.exec-1477.GoNoGo3";;;;;;;;;;;;;;;;;;;;;;;;;"1261";"2014-10-01 12:12:55.142";"ST_correctStop";"0";"1";"FINISHED";"NONE";"success";"0";"1";"2014-10-01 12:12:53.878";"1";;;;;;;;;;;;;;;;;;;;;;;;;;;;;;;;;
"1308711";"1994";;"Windows 7";"Rachel's Experiment (D.T.)";"1.0";"2";"1";"1";"2";"1";"1";"2014-10-01 12:07:21.488";"2014-10-01 12:16:09.237";"1";"0";"1";"94";"93";"module.training_block3.exec-1477.GoNoGo3";;;;;;;;;;;;;;;;;;;;;;;;;"1262";"2014-10-01 12:12:57.684";"NST_correctLoc";"16";"1";"FINISHED";"RIGHT";"success";"465";"0";"2014-10-01 12:12:56.421";"2";;;;;;;;;;;;;;;;;;;;;;;;;;;;;;;;;
"1308711";"1994";;"Windows 7";"Rachel's Experiment (D.T.)";"1.0";"2";"1";"1";"2";"1";"1";"2014-10-01 12:07:21.488";"2014-10-01 12:16:09.237";"1";"0";"1";"95";"94";"module.training_block3.exec-1477.GoNoGo3";;;;;;;;;;;;;;;;;;;;;;;;;"1262";"2014-10-01 12:13:00.227";"ST_correctStop";"33";"0";"FINISHED";"NONE";"success";"0";"1";"2014-10-01 12:12:58.964";"3";;;;;;;;;;;;;;;;;;;;;;;;;;;;;;;;;
"1308711";"1994";;"Windows 7";"Rachel's Experiment (D.T.)";"1.0";"2";"1";"1";"2";"1";"1";"2014-10-01 12:07:21.488";"2014-10-01 12:16:09.237";"1";"0";"1";"96";"95";"module.training_block3.exec-1477.GoNoGo3";;;;;;;;;;;;;;;;;;;;;;;;;"1262";"2014-10-01 12:13:02.770";"NST_correctLoc";"12";"1";"FINISHED";"RIGHT";"success";"491";"0";"2014-10-01 12:13:01.506";"2";;;;;;;;;;;;;;;;;;;;;;;;;;;;;;;;;
"1308711";"1994";;"Windows 7";"Rachel's Experiment (D.T.)";"1.0";"2";"1";"1";"2";"1";"1";"2014-10-01 12:07:21.488";"2014-10-01 12:16:09.237";"1";"0";"1";"97";"96";"module.training_block3.exec-1477.GoNoGo3";;;;;;;;;;;;;;;;;;;;;;;;;"1262";"2014-10-01 12:13:05.313";"ST_correctStop";"35";"1";"FINISHED";"NONE";"success";"0";"1";"2014-10-01 12:13:04.049";"3";;;;;;;;;;;;;;;;;;;;;;;;;;;;;;;;;
"1308711";"1994";;"Windows 7";"Rachel's Experiment (D.T.)";"1.0";"2";"1";"1";"2";"1";"1";"2014-10-01 12:07:21.488";"2014-10-01 12:16:09.237";"1";"0";"1";"98";"97";"module.training_block3.exec-1477.GoNoGo3";;;;;;;;;;;;;;;;;;;;;;;;;"1262";"2014-10-01 12:13:07.856";"ST_correctStop";"22";"0";"FINISHED";"NONE";"success";"0";"1";"2014-10-01 12:13:06.592";"3";;;;;;;;;;;;;;;;;;;;;;;;;;;;;;;;;
"1308711";"1994";;"Windows 7";"Rachel's Experiment (D.T.)";"1.0";"2";"1";"1";"2";"1";"1";"2014-10-01 12:07:21.488";"2014-10-01 12:16:09.237";"1";"0";"1";"99";"98";"module.training_block3.exec-1477.GoNoGo3";;;;;;;;;;;;;;;;;;;;;;;;;"1262";"2014-10-01 12:13:10.414";"ST_correctStop";"4";"1";"FINISHED";"NONE";"success";"0";"1";"2014-10-01 12:13:09.150";"1";;;;;;;;;;;;;;;;;;;;;;;;;;;;;;;;;
"1308711";"1994";;"Windows 7";"Rachel's Experiment (D.T.)";"1.0";"2";"1";"1";"2";"1";"1";"2014-10-01 12:07:21.488";"2014-10-01 12:16:09.237";"1";"0";"1";"100";"99";"module.training_block3.exec-1477.GoNoGo3";;;;;;;;;;;;;;;;;;;;;;;;;"1262";"2014-10-01 12:13:12.957";"NST_correctLoc";"26";"0";"FINISHED";"LEFT";"success";"1081";"0";"2014-10-01 12:13:11.693";"3";;;;;;;;;;;;;;;;;;;;;;;;;;;;;;;;;
"1308711";"1994";;"Windows 7";"Rachel's Experiment (D.T.)";"1.0";"2";"1";"1";"2";"1";"1";"2014-10-01 12:07:21.488";"2014-10-01 12:16:09.237";"1";"0";"1";"101";"100";"module.training_block3.exec-1477.GoNoGo3";;;;;;;;;;;;;;;;;;;;;;;;;"1261";"2014-10-01 12:13:15.500";"NST_correctLoc";"21";"1";"FINISHED";"RIGHT";"success";"402";"0";"2014-10-01 12:13:14.236";"3";;;;;;;;;;;;;;;;;;;;;;;;;;;;;;;;;
"1308711";"1994";;"Windows 7";"Rachel's Experiment (D.T.)";"1.0";"2";"1";"1";"2";"1";"1";"2014-10-01 12:07:21.488";"2014-10-01 12:16:09.237";"1";"0";"1";"102";"101";"module.training_block3.exec-1477.GoNoGo3";;;;;;;;;;;;;;;;;;;;;;;;;"1261";"2014-10-01 12:13:18.042";"ST_correctStop";"2";"1";"FINISHED";"NONE";"success";"0";"1";"2014-10-01 12:13:16.779";"1";;;;;;;;;;;;;;;;;;;;;;;;;;;;;;;;;
"1308711";"1994";;"Windows 7";"Rachel's Experiment (D.T.)";"1.0";"2";"1";"1";"2";"1";"1";"2014-10-01 12:07:21.488";"2014-10-01 12:16:09.237";"1";"0";"1";"103";"102";"module.training_block3.exec-1477.GoNoGo3";;;;;;;;;;;;;;;;;;;;;;;;;"1262";"2014-10-01 12:13:20.585";"ST_correctStop";"1";"1";"FINISHED";"NONE";"success";"0";"1";"2014-10-01 12:13:19.322";"1";;;;;;;;;;;;;;;;;;;;;;;;;;;;;;;;;
"1308711";"1994";;"Windows 7";"Rachel's Experiment (D.T.)";"1.0";"2";"1";"1";"2";"1";"1";"2014-10-01 12:07:21.488";"2014-10-01 12:16:09.237";"1";"0";"1";"104";"103";"module.training_block3.exec-1477.GoNoGo3";;;;;;;;;;;;;;;;;;;;;;;;;"1262";"2014-10-01 12:13:23.128";"NST_correctLoc";"32";"1";"FINISHED";"RIGHT";"success";"485";"0";"2014-10-01 12:13:21.864";"3";;;;;;;;;;;;;;;;;;;;;;;;;;;;;;;;;
"1308711";"1994";;"Windows 7";"Rachel's Experiment (D.T.)";"1.0";"2";"1";"1";"2";"1";"1";"2014-10-01 12:07:21.488";"2014-10-01 12:16:09.237";"1";"0";"1";"105";"104";"module.training_block3.exec-1477.GoNoGo3";;;;;;;;;;;;;;;;;;;;;;;;;"1262";"2014-10-01 12:13:25.671";"NST_correctLoc";"13";"1";"FINISHED";"RIGHT";"success";"591";"0";"2014-10-01 12:13:24.407";"2";;;;;;;;;;;;;;;;;;;;;;;;;;;;;;;;;
"1308711";"1994";;"Windows 7";"Rachel's Experiment (D.T.)";"1.0";"2";"1";"1";"2";"1";"1";"2014-10-01 12:07:21.488";"2014-10-01 12:16:09.237";"1";"0";"1";"106";"105";"module.training_block3.exec-1477.GoNoGo3";;;;;;;;;;;;;;;;;;;;;;;;;"1261";"2014-10-01 12:13:28.214";"ST_correctStop";"23";"1";"FINISHED";"NONE";"success";"0";"1";"2014-10-01 12:13:26.950";"3";;;;;;;;;;;;;;;;;;;;;;;;;;;;;;;;;
"1308711";"1994";;"Windows 7";"Rachel's Experiment (D.T.)";"1.0";"2";"1";"1";"2";"1";"1";"2014-10-01 12:07:21.488";"2014-10-01 12:16:09.237";"1";"0";"1";"107";"106";"module.training_block3.exec-1477.GoNoGo3";;;;;;;;;;;;;;;;;;;;;;;;;"1262";"2014-10-01 12:13:30.756";"NST_correctLoc";"15";"1";"FINISHED";"RIGHT";"success";"465";"0";"2014-10-01 12:13:29.493";"2";;;;;;;;;;;;;;;;;;;;;;;;;;;;;;;;;
"1308711";"1994";;"Windows 7";"Rachel's Experiment (D.T.)";"1.0";"2";"1";"1";"2";"1";"1";"2014-10-01 12:07:21.488";"2014-10-01 12:16:09.237";"1";"0";"1";"108";"107";"module.training_block3.exec-1477.GoNoGo3";;;;;;;;;;;;;;;;;;;;;;;;;"1262";"2014-10-01 12:13:33.299";"ST_correctStop";"5";"0";"FINISHED";"NONE";"success";"0";"1";"2014-10-01 12:13:32.036";"1";;;;;;;;;;;;;;;;;;;;;;;;;;;;;;;;;
"1308711";"1994";;"Windows 7";"Rachel's Experiment (D.T.)";"1.0";"2";"1";"1";"2";"1";"1";"2014-10-01 12:07:21.488";"2014-10-01 12:16:09.237";"1";"0";"1";"109";"108";"module.training_block3.exec-1477.GoNoGo3";;;;;;;;;;;;;;;;;;;;;;;;;"1262";"2014-10-01 12:13:35.842";"NST_correctLoc";"27";"0";"FINISHED";"LEFT";"success";"531";"0";"2014-10-01 12:13:34.578";"3";;;;;;;;;;;;;;;;;;;;;;;;;;;;;;;;;
"1308711";"1994";;"Windows 7";"Rachel's Experiment (D.T.)";"1.0";"2";"1";"1";"2";"1";"1";"2014-10-01 12:07:21.488";"2014-10-01 12:16:09.237";"1";"0";"1";"110";"109";"module.training_block3.exec-1477.GoNoGo3";;;;;;;;;;;;;;;;;;;;;;;;;"1261";"2014-10-01 12:13:38.385";"ST_correctStop";"8";"1";"FINISHED";"NONE";"success";"0";"1";"2014-10-01 12:13:37.121";"1";;;;;;;;;;;;;;;;;;;;;;;;;;;;;;;;;
"1308711";"1994";;"Windows 7";"Rachel's Experiment (D.T.)";"1.0";"2";"1";"1";"2";"1";"1";"2014-10-01 12:07:21.488";"2014-10-01 12:16:09.237";"1";"0";"1";"111";"110";"module.training_block3.exec-1477.GoNoGo3";;;;;;;;;;;;;;;;;;;;;;;;;"1262";"2014-10-01 12:13:40.928";"ST_correctStop";"6";"1";"FINISHED";"NONE";"success";"0";"1";"2014-10-01 12:13:39.664";"1";;;;;;;;;;;;;;;;;;;;;;;;;;;;;;;;;
"1308711";"1994";;"Windows 7";"Rachel's Experiment (D.T.)";"1.0";"2";"1";"1";"2";"1";"1";"2014-10-01 12:07:21.488";"2014-10-01 12:16:09.237";"1";"0";"1";"112";"111";"module.training_block3.exec-1477.GoNoGo3";;;;;;;;;;;;;;;;;;;;;;;;;"1262";"2014-10-01 12:13:43.470";"NST_correctLoc";"10";"0";"FINISHED";"LEFT";"success";"471";"0";"2014-10-01 12:13:42.207";"2";;;;;;;;;;;;;;;;;;;;;;;;;;;;;;;;;
"1308711";"1994";;"Windows 7";"Rachel's Experiment (D.T.)";"1.0";"2";"1";"1";"2";"1";"1";"2014-10-01 12:07:21.488";"2014-10-01 12:16:09.237";"1";"0";"1";"113";"112";"module.training_block3.exec-1477.GoNoGo3";;;;;;;;;;;;;;;;;;;;;;;;;"1262";"2014-10-01 12:13:46.013";"NST_correctLoc";"17";"0";"FINISHED";"LEFT";"success";"480";"0";"2014-10-01 12:13:44.750";"2";;;;;;;;;;;;;;;;;;;;;;;;;;;;;;;;;
"1308711";"1994";;"Windows 7";"Rachel's Experiment (D.T.)";"1.0";"2";"1";"1";"2";"1";"1";"2014-10-01 12:07:21.488";"2014-10-01 12:16:09.237";"1";"0";"1";"114";"113";"module.training_block3.exec-1477.GoNoGo3";;;;;;;;;;;;;;;;;;;;;;;;;"1262";"2014-10-01 12:13:48.556";"ST_correctStop";"7";"1";"FINISHED";"NONE";"success";"0";"1";"2014-10-01 12:13:47.292";"1";;;;;;;;;;;;;;;;;;;;;;;;;;;;;;;;;
"1308711";"1994";;"Windows 7";"Rachel's Experiment (D.T.)";"1.0";"2";"1";"1";"2";"1";"1";"2014-10-01 12:07:21.488";"2014-10-01 12:16:09.237";"1";"0";"1";"115";"114";"module.training_block3.exec-1477.GoNoGo3";;;;;;;;;;;;;;;;;;;;;;;;;"1262";"2014-10-01 12:13:51.099";"ST_correctStop";"31";"0";"FINISHED";"NONE";"success";"0";"1";"2014-10-01 12:13:49.835";"3";;;;;;;;;;;;;;;;;;;;;;;;;;;;;;;;;
"1308711";"1994";;"Windows 7";"Rachel's Experiment (D.T.)";"1.0";"2";"1";"1";"2";"1";"1";"2014-10-01 12:07:21.488";"2014-10-01 12:16:09.237";"1";"0";"1";"116";"115";"module.training_block3.exec-1477.GoNoGo3";;;;;;;;;;;;;;;;;;;;;;;;;"1262";"2014-10-01 12:13:53.642";"NST_correctLoc";"9";"0";"FINISHED";"LEFT";"success";"611";"0";"2014-10-01 12:13:52.378";"2";;;;;;;;;;;;;;;;;;;;;;;;;;;;;;;;;
"1308711";"1994";;"Windows 7";"Rachel's Experiment (D.T.)";"1.0";"2";"1";"1";"2";"1";"1";"2014-10-01 12:07:21.488";"2014-10-01 12:16:09.237";"1";"0";"1";"117";"116";"module.training_block3.exec-1477.GoNoGo3";;;;;;;;;;;;;;;;;;;;;;;;;"1262";"2014-10-01 12:13:56.184";"NST_correctLoc";"25";"0";"FINISHED";"LEFT";"success";"605";"0";"2014-10-01 12:13:54.921";"3";;;;;;;;;;;;;;;;;;;;;;;;;;;;;;;;;
"1308711";"1994";;"Windows 7";"Rachel's Experiment (D.T.)";"1.0";"2";"1";"1";"2";"1";"1";"2014-10-01 12:07:21.488";"2014-10-01 12:16:09.237";"1";"0";"1";"118";"117";"module.training_block3.exec-1477.GoNoGo3";;;;;;;;;;;;;;;;;;;;;;;;;"1261";"2014-10-01 12:13:58.727";"NST_correctLoc";"29";"1";"FINISHED";"RIGHT";"success";"678";"0";"2014-10-01 12:13:57.464";"3";;;;;;;;;;;;;;;;;;;;;;;;;;;;;;;;;
"1308711";"1994";;"Windows 7";"Rachel's Experiment (D.T.)";"1.0";"2";"1";"1";"2";"1";"1";"2014-10-01 12:07:21.488";"2014-10-01 12:16:09.237";"1";"0";"1";"119";"118";"module.training_block3.exec-1477.GoNoGo3";;;;;;;;;;;;;;;;;;;;;;;;;"1262";"2014-10-01 12:14:01.270";"NST_correctLoc";"34";"1";"FINISHED";"RIGHT";"success";"679";"0";"2014-10-01 12:14:00.006";"3";;;;;;;;;;;;;;;;;;;;;;;;;;;;;;;;;
"1308711";"1994";;"Windows 7";"Rachel's Experiment (D.T.)";"1.0";"2";"1";"1";"2";"1";"1";"2014-10-01 12:07:21.488";"2014-10-01 12:16:09.237";"1";"0";"1";"120";"119";"module.training_block3.exec-1477.GoNoGo3";;;;;;;;;;;;;;;;;;;;;;;;;"1262";"2014-10-01 12:14:03.813";"NST_correctLoc";"14";"1";"FINISHED";"RIGHT";"success";"720";"0";"2014-10-01 12:14:02.549";"2";;;;;;;;;;;;;;;;;;;;;;;;;;;;;;;;;
"1308711";"1994";;"Windows 7";"Rachel's Experiment (D.T.)";"1.0";"2";"1";"1";"2";"1";"1";"2014-10-01 12:07:21.488";"2014-10-01 12:16:09.237";"1";"0";"1";"121";"120";"module.training_block3.exec-1477.GoNoGo3";;;;;;;;;;;;;;;;;;;;;;;;;"1261";"2014-10-01 12:14:06.356";"ST_correctStop";"24";"1";"FINISHED";"NONE";"success";"0";"1";"2014-10-01 12:14:05.092";"3";;;;;;;;;;;;;;;;;;;;;;;;;;;;;;;;;
"1308711";"1994";;"Windows 7";"Rachel's Experiment (D.T.)";"1.0";"2";"1";"1";"2";"1";"1";"2014-10-01 12:07:21.488";"2014-10-01 12:16:09.237";"1";"0";"1";"122";"121";"module.training_block3.exec-1477.GoNoGo3";;;;;;;;;;;;;;;;;;;;;;;;;"1262";"2014-10-01 12:14:08.898";"ST_correctStop";"20";"0";"FINISHED";"NONE";"success";"0";"1";"2014-10-01 12:14:07.635";"3";;;;;;;;;;;;;;;;;;;;;;;;;;;;;;;;;
"1308711";"1994";;"Windows 7";"Rachel's Experiment (D.T.)";"1.0";"2";"1";"1";"2";"1";"1";"2014-10-01 12:07:21.488";"2014-10-01 12:16:09.237";"1";"0";"1";"123";"122";"module.training_block3.exec-1477.GoNoGo3";;;;;;;;;;;;;;;;;;;;;;;;;"1262";"2014-10-01 12:14:11.441";"ST_correctStop";"3";"0";"FINISHED";"NONE";"success";"0";"1";"2014-10-01 12:14:10.178";"1";;;;;;;;;;;;;;;;;;;;;;;;;;;;;;;;;
"1308711";"1994";;"Windows 7";"Rachel's Experiment (D.T.)";"1.0";"2";"1";"1";"2";"1";"1";"2014-10-01 12:07:21.488";"2014-10-01 12:16:09.237";"1";"0";"1";"124";"123";"module.training_block4.exec-8161.GoNoGo4";;;;;;;;;;;;;;;;;;;;;;;;;;;;;;;;;;;;;"1261";"2014-10-01 12:14:22.361";"NST_correctLoc";"28";"0";"FINISHED";"LEFT";"success";"627";"0";"2014-10-01 12:14:21.098";"3";;;;;;;;;;;;;;;;;;;;;
"1308711";"1994";;"Windows 7";"Rachel's Experiment (D.T.)";"1.0";"2";"1";"1";"2";"1";"1";"2014-10-01 12:07:21.488";"2014-10-01 12:16:09.237";"1";"0";"1";"125";"124";"module.training_block4.exec-8161.GoNoGo4";;;;;;;;;;;;;;;;;;;;;;;;;;;;;;;;;;;;;"1262";"2014-10-01 12:14:24.904";"NST_correctLoc";"33";"1";"FINISHED";"RIGHT";"success";"525";"0";"2014-10-01 12:14:23.641";"3";;;;;;;;;;;;;;;;;;;;;
"1308711";"1994";;"Windows 7";"Rachel's Experiment (D.T.)";"1.0";"2";"1";"1";"2";"1";"1";"2014-10-01 12:07:21.488";"2014-10-01 12:16:09.237";"1";"0";"1";"126";"125";"module.training_block4.exec-8161.GoNoGo4";;;;;;;;;;;;;;;;;;;;;;;;;;;;;;;;;;;;;"1261";"2014-10-01 12:14:27.463";"ST_correctStop";"1";"1";"FINISHED";"NONE";"success";"0";"1";"2014-10-01 12:14:26.199";"1";;;;;;;;;;;;;;;;;;;;;
"1308711";"1994";;"Windows 7";"Rachel's Experiment (D.T.)";"1.0";"2";"1";"1";"2";"1";"1";"2014-10-01 12:07:21.488";"2014-10-01 12:16:09.237";"1";"0";"1";"127";"126";"module.training_block4.exec-8161.GoNoGo4";;;;;;;;;;;;;;;;;;;;;;;;;;;;;;;;;;;;;"1262";"2014-10-01 12:14:30.005";"NST_correctLoc";"13";"0";"FINISHED";"LEFT";"success";"591";"0";"2014-10-01 12:14:28.742";"2";;;;;;;;;;;;;;;;;;;;;
"1308711";"1994";;"Windows 7";"Rachel's Experiment (D.T.)";"1.0";"2";"1";"1";"2";"1";"1";"2014-10-01 12:07:21.488";"2014-10-01 12:16:09.237";"1";"0";"1";"128";"127";"module.training_block4.exec-8161.GoNoGo4";;;;;;;;;;;;;;;;;;;;;;;;;;;;;;;;;;;;;"1261";"2014-10-01 12:14:32.564";"ST_correctStop";"6";"1";"FINISHED";"NONE";"success";"0";"1";"2014-10-01 12:14:31.300";"1";;;;;;;;;;;;;;;;;;;;;
"1308711";"1994";;"Windows 7";"Rachel's Experiment (D.T.)";"1.0";"2";"1";"1";"2";"1";"1";"2014-10-01 12:07:21.488";"2014-10-01 12:16:09.237";"1";"0";"1";"129";"128";"module.training_block4.exec-8161.GoNoGo4";;;;;;;;;;;;;;;;;;;;;;;;;;;;;;;;;;;;;"1262";"2014-10-01 12:14:35.107";"NST_correctLoc";"22";"0";"FINISHED";"LEFT";"success";"530";"0";"2014-10-01 12:14:33.843";"3";;;;;;;;;;;;;;;;;;;;;
"1308711";"1994";;"Windows 7";"Rachel's Experiment (D.T.)";"1.0";"2";"1";"1";"2";"1";"1";"2014-10-01 12:07:21.488";"2014-10-01 12:16:09.237";"1";"0";"1";"130";"129";"module.training_block4.exec-8161.GoNoGo4";;;;;;;;;;;;;;;;;;;;;;;;;;;;;;;;;;;;;"1262";"2014-10-01 12:14:37.649";"ST_correctStop";"18";"1";"FINISHED";"NONE";"success";"0";"1";"2014-10-01 12:14:36.386";"3";;;;;;;;;;;;;;;;;;;;;
"1308711";"1994";;"Windows 7";"Rachel's Experiment (D.T.)";"1.0";"2";"1";"1";"2";"1";"1";"2014-10-01 12:07:21.488";"2014-10-01 12:16:09.237";"1";"0";"1";"131";"130";"module.training_block4.exec-8161.GoNoGo4";;;;;;;;;;;;;;;;;;;;;;;;;;;;;;;;;;;;;"1262";"2014-10-01 12:14:40.192";"NST_correctLoc";"12";"0";"FINISHED";"LEFT";"success";"541";"0";"2014-10-01 12:14:38.929";"2";;;;;;;;;;;;;;;;;;;;;
"1308711";"1994";;"Windows 7";"Rachel's Experiment (D.T.)";"1.0";"2";"1";"1";"2";"1";"1";"2014-10-01 12:07:21.488";"2014-10-01 12:16:09.237";"1";"0";"1";"132";"131";"module.training_block4.exec-8161.GoNoGo4";;;;;;;;;;;;;;;;;;;;;;;;;;;;;;;;;;;;;"1262";"2014-10-01 12:14:42.735";"NST_correctLoc";"9";"0";"FINISHED";"LEFT";"success";"606";"0";"2014-10-01 12:14:41.471";"2";;;;;;;;;;;;;;;;;;;;;
"1308711";"1994";;"Windows 7";"Rachel's Experiment (D.T.)";"1.0";"2";"1";"1";"2";"1";"1";"2014-10-01 12:07:21.488";"2014-10-01 12:16:09.237";"1";"0";"1";"133";"132";"module.training_block4.exec-8161.GoNoGo4";;;;;;;;;;;;;;;;;;;;;;;;;;;;;;;;;;;;;"1262";"2014-10-01 12:14:45.278";"ST_correctStop";"32";"1";"FINISHED";"NONE";"success";"0";"1";"2014-10-01 12:14:44.014";"3";;;;;;;;;;;;;;;;;;;;;
"1308711";"1994";;"Windows 7";"Rachel's Experiment (D.T.)";"1.0";"2";"1";"1";"2";"1";"1";"2014-10-01 12:07:21.488";"2014-10-01 12:16:09.237";"1";"0";"1";"134";"133";"module.training_block4.exec-8161.GoNoGo4";;;;;;;;;;;;;;;;;;;;;;;;;;;;;;;;;;;;;"1262";"2014-10-01 12:14:47.821";"NST_correctLoc";"34";"1";"FINISHED";"RIGHT";"success";"720";"0";"2014-10-01 12:14:46.557";"3";;;;;;;;;;;;;;;;;;;;;
"1308711";"1994";;"Windows 7";"Rachel's Experiment (D.T.)";"1.0";"2";"1";"1";"2";"1";"1";"2014-10-01 12:07:21.488";"2014-10-01 12:16:09.237";"1";"0";"1";"135";"134";"module.training_block4.exec-8161.GoNoGo4";;;;;;;;;;;;;;;;;;;;;;;;;;;;;;;;;;;;;"1262";"2014-10-01 12:14:50.379";"ST_correctStop";"3";"1";"FINISHED";"NONE";"success";"0";"1";"2014-10-01 12:14:49.115";"1";;;;;;;;;;;;;;;;;;;;;
"1308711";"1994";;"Windows 7";"Rachel's Experiment (D.T.)";"1.0";"2";"1";"1";"2";"1";"1";"2014-10-01 12:07:21.488";"2014-10-01 12:16:09.237";"1";"0";"1";"136";"135";"module.training_block4.exec-8161.GoNoGo4";;;;;;;;;;;;;;;;;;;;;;;;;;;;;;;;;;;;;"1261";"2014-10-01 12:14:52.922";"NST_correctLoc";"26";"1";"FINISHED";"RIGHT";"success";"787";"0";"2014-10-01 12:14:51.658";"3";;;;;;;;;;;;;;;;;;;;;
"1308711";"1994";;"Windows 7";"Rachel's Experiment (D.T.)";"1.0";"2";"1";"1";"2";"1";"1";"2014-10-01 12:07:21.488";"2014-10-01 12:16:09.237";"1";"0";"1";"137";"136";"module.training_block4.exec-8161.GoNoGo4";;;;;;;;;;;;;;;;;;;;;;;;;;;;;;;;;;;;;"1262";"2014-10-01 12:14:55.480";"NST_correctLoc";"11";"0";"FINISHED";"LEFT";"success";"636";"0";"2014-10-01 12:14:54.217";"2";;;;;;;;;;;;;;;;;;;;;
"1308711";"1994";;"Windows 7";"Rachel's Experiment (D.T.)";"1.0";"2";"1";"1";"2";"1";"1";"2014-10-01 12:07:21.488";"2014-10-01 12:16:09.237";"1";"0";"1";"138";"137";"module.training_block4.exec-8161.GoNoGo4";;;;;;;;;;;;;;;;;;;;;;;;;;;;;;;;;;;;;"1261";"2014-10-01 12:14:58.023";"ST_correctStop";"8";"1";"FINISHED";"NONE";"success";"0";"1";"2014-10-01 12:14:56.759";"1";;;;;;;;;;;;;;;;;;;;;
"1308711";"1994";;"Windows 7";"Rachel's Experiment (D.T.)";"1.0";"2";"1";"1";"2";"1";"1";"2014-10-01 12:07:21.488";"2014-10-01 12:16:09.237";"1";"0";"1";"139";"138";"module.training_block4.exec-8161.GoNoGo4";;;;;;;;;;;;;;;;;;;;;;;;;;;;;;;;;;;;;"1262";"2014-10-01 12:15:00.566";"ST_correctStop";"27";"0";"FINISHED";"NONE";"success";"0";"1";"2014-10-01 12:14:59.302";"3";;;;;;;;;;;;;;;;;;;;;
"1308711";"1994";;"Windows 7";"Rachel's Experiment (D.T.)";"1.0";"2";"1";"1";"2";"1";"1";"2014-10-01 12:07:21.488";"2014-10-01 12:16:09.237";"1";"0";"1";"140";"139";"module.training_block4.exec-8161.GoNoGo4";;;;;;;;;;;;;;;;;;;;;;;;;;;;;;;;;;;;;"1262";"2014-10-01 12:15:03.093";"ST_correctStop";"29";"0";"FINISHED";"NONE";"success";"0";"1";"2014-10-01 12:15:01.829";"3";;;;;;;;;;;;;;;;;;;;;
"1308711";"1994";;"Windows 7";"Rachel's Experiment (D.T.)";"1.0";"2";"1";"1";"2";"1";"1";"2014-10-01 12:07:21.488";"2014-10-01 12:16:09.237";"1";"0";"1";"141";"140";"module.training_block4.exec-8161.GoNoGo4";;;;;;;;;;;;;;;;;;;;;;;;;;;;;;;;;;;;;"1261";"2014-10-01 12:15:05.636";"ST_correctStop";"0";"0";"FINISHED";"NONE";"success";"0";"1";"2014-10-01 12:15:04.372";"1";;;;;;;;;;;;;;;;;;;;;
"1308711";"1994";;"Windows 7";"Rachel's Experiment (D.T.)";"1.0";"2";"1";"1";"2";"1";"1";"2014-10-01 12:07:21.488";"2014-10-01 12:16:09.237";"1";"0";"1";"142";"141";"module.training_block4.exec-8161.GoNoGo4";;;;;;;;;;;;;;;;;;;;;;;;;;;;;;;;;;;;;"1262";"2014-10-01 12:15:08.179";"NST_correctLoc";"14";"1";"FINISHED";"RIGHT";"success";"474";"0";"2014-10-01 12:15:06.915";"2";;;;;;;;;;;;;;;;;;;;;
"1308711";"1994";;"Windows 7";"Rachel's Experiment (D.T.)";"1.0";"2";"1";"1";"2";"1";"1";"2014-10-01 12:07:21.488";"2014-10-01 12:16:09.237";"1";"0";"1";"143";"142";"module.training_block4.exec-8161.GoNoGo4";;;;;;;;;;;;;;;;;;;;;;;;;;;;;;;;;;;;;"1261";"2014-10-01 12:15:10.721";"ST_correctStop";"19";"0";"FINISHED";"NONE";"success";"0";"1";"2014-10-01 12:15:09.458";"3";;;;;;;;;;;;;;;;;;;;;
"1308711";"1994";;"Windows 7";"Rachel's Experiment (D.T.)";"1.0";"2";"1";"1";"2";"1";"1";"2014-10-01 12:07:21.488";"2014-10-01 12:16:09.237";"1";"0";"1";"144";"143";"module.training_block4.exec-8161.GoNoGo4";;;;;;;;;;;;;;;;;;;;;;;;;;;;;;;;;;;;;"1262";"2014-10-01 12:15:13.280";"NST_correctLoc";"20";"1";"FINISHED";"RIGHT";"success";"757";"0";"2014-10-01 12:15:12.016";"3";;;;;;;;;;;;;;;;;;;;;
"1308711";"1994";;"Windows 7";"Rachel's Experiment (D.T.)";"1.0";"2";"1";"1";"2";"1";"1";"2014-10-01 12:07:21.488";"2014-10-01 12:16:09.237";"1";"0";"1";"145";"144";"module.training_block4.exec-8161.GoNoGo4";;;;;;;;;;;;;;;;;;;;;;;;;;;;;;;;;;;;;"1262";"2014-10-01 12:15:15.823";"NST_correctLoc";"16";"0";"FINISHED";"LEFT";"success";"694";"0";"2014-10-01 12:15:14.559";"2";;;;;;;;;;;;;;;;;;;;;
"1308711";"1994";;"Windows 7";"Rachel's Experiment (D.T.)";"1.0";"2";"1";"1";"2";"1";"1";"2014-10-01 12:07:21.488";"2014-10-01 12:16:09.237";"1";"0";"1";"146";"145";"module.training_block4.exec-8161.GoNoGo4";;;;;;;;;;;;;;;;;;;;;;;;;;;;;;;;;;;;;"1262";"2014-10-01 12:15:18.365";"NST_correctLoc";"10";"1";"FINISHED";"RIGHT";"success";"599";"0";"2014-10-01 12:15:17.102";"2";;;;;;;;;;;;;;;;;;;;;
"1308711";"1994";;"Windows 7";"Rachel's Experiment (D.T.)";"1.0";"2";"1";"1";"2";"1";"1";"2014-10-01 12:07:21.488";"2014-10-01 12:16:09.237";"1";"0";"1";"147";"146";"module.training_block4.exec-8161.GoNoGo4";;;;;;;;;;;;;;;;;;;;;;;;;;;;;;;;;;;;;"1261";"2014-10-01 12:15:20.908";"ST_correctStop";"2";"0";"FINISHED";"NONE";"success";"0";"1";"2014-10-01 12:15:19.645";"1";;;;;;;;;;;;;;;;;;;;;
"1308711";"1994";;"Windows 7";"Rachel's Experiment (D.T.)";"1.0";"2";"1";"1";"2";"1";"1";"2014-10-01 12:07:21.488";"2014-10-01 12:16:09.237";"1";"0";"1";"148";"147";"module.training_block4.exec-8161.GoNoGo4";;;;;;;;;;;;;;;;;;;;;;;;;;;;;;;;;;;;;"1261";"2014-10-01 12:15:23.451";"ST_correctStop";"35";"1";"FINISHED";"NONE";"success";"0";"1";"2014-10-01 12:15:22.187";"3";;;;;;;;;;;;;;;;;;;;;
"1308711";"1994";;"Windows 7";"Rachel's Experiment (D.T.)";"1.0";"2";"1";"1";"2";"1";"1";"2014-10-01 12:07:21.488";"2014-10-01 12:16:09.237";"1";"0";"1";"149";"148";"module.training_block4.exec-8161.GoNoGo4";;;;;;;;;;;;;;;;;;;;;;;;;;;;;;;;;;;;;"1262";"2014-10-01 12:15:25.994";"NST_correctLoc";"31";"0";"FINISHED";"LEFT";"success";"659";"0";"2014-10-01 12:15:24.730";"3";;;;;;;;;;;;;;;;;;;;;
"1308711";"1994";;"Windows 7";"Rachel's Experiment (D.T.)";"1.0";"2";"1";"1";"2";"1";"1";"2014-10-01 12:07:21.488";"2014-10-01 12:16:09.237";"1";"0";"1";"150";"149";"module.training_block4.exec-8161.GoNoGo4";;;;;;;;;;;;;;;;;;;;;;;;;;;;;;;;;;;;;"1262";"2014-10-01 12:15:28.537";"NST_correctLoc";"24";"0";"FINISHED";"LEFT";"success";"748";"0";"2014-10-01 12:15:27.273";"3";;;;;;;;;;;;;;;;;;;;;
"1308711";"1994";;"Windows 7";"Rachel's Experiment (D.T.)";"1.0";"2";"1";"1";"2";"1";"1";"2014-10-01 12:07:21.488";"2014-10-01 12:16:09.237";"1";"0";"1";"151";"150";"module.training_block4.exec-8161.GoNoGo4";;;;;;;;;;;;;;;;;;;;;;;;;;;;;;;;;;;;;"1262";"2014-10-01 12:15:31.064";"NST_correctLoc";"15";"1";"FINISHED";"RIGHT";"success";"1261";"0";"2014-10-01 12:15:29.800";"2";;;;;;;;;;;;;;;;;;;;;
"1308711";"1994";;"Windows 7";"Rachel's Experiment (D.T.)";"1.0";"2";"1";"1";"2";"1";"1";"2014-10-01 12:07:21.488";"2014-10-01 12:16:09.237";"1";"0";"1";"152";"151";"module.training_block4.exec-8161.GoNoGo4";;;;;;;;;;;;;;;;;;;;;;;;;;;;;;;;;;;;;"1262";"2014-10-01 12:15:33.607";"ST_correctStop";"21";"0";"FINISHED";"NONE";"success";"0";"1";"2014-10-01 12:15:32.343";"3";;;;;;;;;;;;;;;;;;;;;
"1308711";"1994";;"Windows 7";"Rachel's Experiment (D.T.)";"1.0";"2";"1";"1";"2";"1";"1";"2014-10-01 12:07:21.488";"2014-10-01 12:16:09.237";"1";"0";"1";"153";"152";"module.training_block4.exec-8161.GoNoGo4";;;;;;;;;;;;;;;;;;;;;;;;;;;;;;;;;;;;;"1262";"2014-10-01 12:15:36.149";"NST_correctLoc";"17";"1";"FINISHED";"RIGHT";"success";"431";"0";"2014-10-01 12:15:34.886";"2";;;;;;;;;;;;;;;;;;;;;
"1308711";"1994";;"Windows 7";"Rachel's Experiment (D.T.)";"1.0";"2";"1";"1";"2";"1";"1";"2014-10-01 12:07:21.488";"2014-10-01 12:16:09.237";"1";"0";"1";"154";"153";"module.training_block4.exec-8161.GoNoGo4";;;;;;;;;;;;;;;;;;;;;;;;;;;;;;;;;;;;;"1262";"2014-10-01 12:15:38.677";"ST_correctStop";"5";"1";"FINISHED";"NONE";"success";"0";"1";"2014-10-01 12:15:37.413";"1";;;;;;;;;;;;;;;;;;;;;
"1308711";"1994";;"Windows 7";"Rachel's Experiment (D.T.)";"1.0";"2";"1";"1";"2";"1";"1";"2014-10-01 12:07:21.488";"2014-10-01 12:16:09.237";"1";"0";"1";"155";"154";"module.training_block4.exec-8161.GoNoGo4";;;;;;;;;;;;;;;;;;;;;;;;;;;;;;;;;;;;;"1261";"2014-10-01 12:15:41.219";"ST_correctStop";"25";"1";"FINISHED";"NONE";"success";"0";"1";"2014-10-01 12:15:39.956";"3";;;;;;;;;;;;;;;;;;;;;
"1308711";"1994";;"Windows 7";"Rachel's Experiment (D.T.)";"1.0";"2";"1";"1";"2";"1";"1";"2014-10-01 12:07:21.488";"2014-10-01 12:16:09.237";"1";"0";"1";"156";"155";"module.training_block4.exec-8161.GoNoGo4";;;;;;;;;;;;;;;;;;;;;;;;;;;;;;;;;;;;;"1262";"2014-10-01 12:15:43.747";"ST_correctStop";"23";"0";"FINISHED";"NONE";"success";"0";"1";"2014-10-01 12:15:42.483";"3";;;;;;;;;;;;;;;;;;;;;
"1308711";"1994";;"Windows 7";"Rachel's Experiment (D.T.)";"1.0";"2";"1";"1";"2";"1";"1";"2014-10-01 12:07:21.488";"2014-10-01 12:16:09.237";"1";"0";"1";"157";"156";"module.training_block4.exec-8161.GoNoGo4";;;;;;;;;;;;;;;;;;;;;;;;;;;;;;;;;;;;;"1261";"2014-10-01 12:15:46.289";"ST_correctStop";"7";"1";"FINISHED";"NONE";"success";"0";"1";"2014-10-01 12:15:45.026";"1";;;;;;;;;;;;;;;;;;;;;
"1308711";"1994";;"Windows 7";"Rachel's Experiment (D.T.)";"1.0";"2";"1";"1";"2";"1";"1";"2014-10-01 12:07:21.488";"2014-10-01 12:16:09.237";"1";"0";"1";"158";"157";"module.training_block4.exec-8161.GoNoGo4";;;;;;;;;;;;;;;;;;;;;;;;;;;;;;;;;;;;;"1262";"2014-10-01 12:15:48.832";"ST_correctStop";"4";"1";"FINISHED";"NONE";"success";"0";"1";"2014-10-01 12:15:47.569";"1";;;;;;;;;;;;;;;;;;;;;
"1308711";"1994";;"Windows 7";"Rachel's Experiment (D.T.)";"1.0";"2";"1";"1";"2";"1";"1";"2014-10-01 12:07:21.488";"2014-10-01 12:16:09.237";"1";"0";"1";"159";"158";"module.training_block4.exec-8161.GoNoGo4";;;;;;;;;;;;;;;;;;;;;;;;;;;;;;;;;;;;;"1262";"2014-10-01 12:15:51.359";"NST_correctLoc";"30";"1";"FINISHED";"RIGHT";"success";"629";"0";"2014-10-01 12:15:50.096";"3";;;;;;;;;;;;;;;;;;;;;
