"user.name";"user.yearOfBirth";"user.sex";"user.osName";"module.name";"module.version";"module.online.subject.code";"module.online.study.id";"module.online.module.nr";"module.online.group.nr";"session.id";"session.index";"session.startTime";"session.endTime";"session.completed";"session.node-3391.conditionType";"session.node-6772.DevalQorder";"trial.id";"trial.index";"trial.name";"trial.deval1.durationTime";"trial.deval1.endTime";"trial.deval1.icon";"trial.deval1.Resp_Attractive";"trial.deval1.Resp_Eat";"trial.deval1.Resp_Taste";"trial.deval1.RT_Attractive";"trial.deval1.RT_Eat";"trial.deval1.RT_Taste";"trial.deval1.startTime";"trial.deval1.stimulus type";"trial.devalPractice.durationTime";"trial.devalPractice.endTime";"trial.devalPractice.icon";"trial.devalPractice.Resp_Attractive";"trial.devalPractice.Resp_Eat";"trial.devalPractice.Resp_Taste";"trial.devalPractice.RT_Attractive";"trial.devalPractice.RT_Eat";"trial.devalPractice.RT_Taste";"trial.devalPractice.startTime";"trial.devalPractice.stimulus type";"trial.GoNoGo1.durationTime";"trial.GoNoGo1.endTime";"trial.GoNoGo1.Error Type";"trial.GoNoGo1.icon";"trial.GoNoGo1.location";"trial.GoNoGo1.outcome";"trial.GoNoGo1.response";"trial.GoNoGo1.result";"trial.GoNoGo1.RT";"trial.GoNoGo1.signal";"trial.GoNoGo1.startTime";"trial.GoNoGo1.stimulus type";"trial.GoNoGo2.durationTime";"trial.GoNoGo2.endTime";"trial.GoNoGo2.Error Type";"trial.GoNoGo2.icon";"trial.GoNoGo2.location";"trial.GoNoGo2.outcome";"trial.GoNoGo2.response";"trial.GoNoGo2.result";"trial.GoNoGo2.RT";"trial.GoNoGo2.signal";"trial.GoNoGo2.startTime";"trial.GoNoGo2.stimulus type";"trial.GoNoGo3.durationTime";"trial.GoNoGo3.endTime";"trial.GoNoGo3.Error Type";"trial.GoNoGo3.icon";"trial.GoNoGo3.location";"trial.GoNoGo3.outcome";"trial.GoNoGo3.response";"trial.GoNoGo3.result";"trial.GoNoGo3.RT";"trial.GoNoGo3.signal";"trial.GoNoGo3.startTime";"trial.GoNoGo3.stimulus type";"trial.GoNoGo4.durationTime";"trial.GoNoGo4.endTime";"trial.GoNoGo4.Error Type";"trial.GoNoGo4.icon";"trial.GoNoGo4.location";"trial.GoNoGo4.outcome";"trial.GoNoGo4.response";"trial.GoNoGo4.result";"trial.GoNoGo4.RT";"trial.GoNoGo4.signal";"trial.GoNoGo4.startTime";"trial.GoNoGo4.stimulus type";"trial.GoNoGo_Practice.durationTime";"trial.GoNoGo_Practice.endTime";"trial.GoNoGo_Practice.icon";"trial.GoNoGo_Practice.location";"trial.GoNoGo_Practice.outcome";"trial.GoNoGo_Practice.response";"trial.GoNoGo_Practice.result";"trial.GoNoGo_Practice.RT";"trial.GoNoGo_Practice.signal";"trial.GoNoGo_Practice.startTime";"trial.GoNoGo_Practice.stimulus type";"trial.GoNoGo_Tutorial.durationTime";"trial.GoNoGo_Tutorial.endTime";"trial.GoNoGo_Tutorial.icon";"trial.GoNoGo_Tutorial.location";"trial.GoNoGo_Tutorial.outcome";"trial.GoNoGo_Tutorial.response";"trial.GoNoGo_Tutorial.result";"trial.GoNoGo_Tutorial.RT";"trial.GoNoGo_Tutorial.signal";"trial.GoNoGo_Tutorial.startTime"
"gmw";;;"Windows 7";"Rachel's Experiment (D.T.)";"1.0";"2";"1";"1";"2";"1";"1";"2014-10-16 12:58:51.040";"2014-10-16 13:11:41.682";"1";"1";"1";"1";"0";"module.GoNoGotutorial.exec-3451.GoNoGo_Tutorial";;;;;;;;;;;;;;;;;;;;;;;;;;;;;;;;;;;;;;;;;;;;;;;;;;;;;;;;;;;;;;;;;;;;;;;;;;;;;;;;;;"3998";"2014-10-16 12:59:44.658";"leftResponse";"0";"FINISHED";"LEFT";"success";"577";"0";"2014-10-16 12:59:40.648"
"gmw";;;"Windows 7";"Rachel's Experiment (D.T.)";"1.0";"2";"1";"1";"2";"1";"1";"2014-10-16 12:58:51.040";"2014-10-16 13:11:41.682";"1";"1";"1";"2";"1";"module.GoNoGotutorial.exec-3451.GoNoGo_Tutorial";;;;;;;;;;;;;;;;;;;;;;;;;;;;;;;;;;;;;;;;;;;;;;;;;;;;;;;;;;;;;;;;;;;;;;;;;;;;;;;;;;"4003";"2014-10-16 12:59:49.962";"rightResponse";"1";"FINISHED";"RIGHT";"success";"2486";"0";"2014-10-16 12:59:45.952"
"gmw";;;"Windows 7";"Rachel's Experiment (D.T.)";"1.0";"2";"1";"1";"2";"1";"1";"2014-10-16 12:58:51.040";"2014-10-16 13:11:41.682";"1";"1";"1";"3";"2";"module.GoNoGotutorial.exec-3451.GoNoGo_Tutorial";;;;;;;;;;;;;;;;;;;;;;;;;;;;;;;;;;;;;;;;;;;;;;;;;;;;;;;;;;;;;;;;;;;;;;;;;;;;;;;;;;"4003";"2014-10-16 12:59:55.266";"signalResponse";"0";"FINISHED";"NONE";"success";"0";"1";"2014-10-16 12:59:51.256"
"gmw";;;"Windows 7";"Rachel's Experiment (D.T.)";"1.0";"2";"1";"1";"2";"1";"1";"2014-10-16 12:58:51.040";"2014-10-16 13:11:41.682";"1";"1";"1";"4";"3";"module.GoNoGopractice.exec-1896.GoNoGo_Practice";;;;;;;;;;;;;;;;;;;;;;;;;;;;;;;;;;;;;;;;;;;;;;;;;;;;;;;;;;;;;;;;;;;;;;;"1959";"2014-10-16 13:00:01.927";"18";"0";"FINISHED";"LEFT";"success";"412";"0";"2014-10-16 12:59:59.961";"3";;;;;;;;;;
"gmw";;;"Windows 7";"Rachel's Experiment (D.T.)";"1.0";"2";"1";"1";"2";"1";"1";"2014-10-16 12:58:51.040";"2014-10-16 13:11:41.682";"1";"1";"1";"5";"4";"module.GoNoGopractice.exec-1896.GoNoGo_Practice";;;;;;;;;;;;;;;;;;;;;;;;;;;;;;;;;;;;;;;;;;;;;;;;;;;;;;;;;;;;;;;;;;;;;;;"1959";"2014-10-16 13:00:05.187";"21";"1";"FINISHED";"RIGHT";"success";"432";"0";"2014-10-16 13:00:03.222";"3";;;;;;;;;;
"gmw";;;"Windows 7";"Rachel's Experiment (D.T.)";"1.0";"2";"1";"1";"2";"1";"1";"2014-10-16 12:58:51.040";"2014-10-16 13:11:41.682";"1";"1";"1";"6";"5";"module.GoNoGopractice.exec-1896.GoNoGo_Practice";;;;;;;;;;;;;;;;;;;;;;;;;;;;;;;;;;;;;;;;;;;;;;;;;;;;;;;;;;;;;;;;;;;;;;;"1959";"2014-10-16 13:00:08.432";"14";"1";"FINISHED";"NONE";"success";"0";"1";"2014-10-16 13:00:06.466";"2";;;;;;;;;;
"gmw";;;"Windows 7";"Rachel's Experiment (D.T.)";"1.0";"2";"1";"1";"2";"1";"1";"2014-10-16 12:58:51.040";"2014-10-16 13:11:41.682";"1";"1";"1";"7";"6";"module.GoNoGopractice.exec-1896.GoNoGo_Practice";;;;;;;;;;;;;;;;;;;;;;;;;;;;;;;;;;;;;;;;;;;;;;;;;;;;;;;;;;;;;;;;;;;;;;;"1959";"2014-10-16 13:00:11.677";"26";"0";"FINISHED";"LEFT";"success";"455";"0";"2014-10-16 13:00:09.711";"3";;;;;;;;;;
"gmw";;;"Windows 7";"Rachel's Experiment (D.T.)";"1.0";"2";"1";"1";"2";"1";"1";"2014-10-16 12:58:51.040";"2014-10-16 13:11:41.682";"1";"1";"1";"8";"7";"module.GoNoGopractice.exec-1896.GoNoGo_Practice";;;;;;;;;;;;;;;;;;;;;;;;;;;;;;;;;;;;;;;;;;;;;;;;;;;;;;;;;;;;;;;;;;;;;;;"1959";"2014-10-16 13:00:14.922";"2";"0";"FINISHED";"LEFT";"success";"426";"0";"2014-10-16 13:00:12.956";"1";;;;;;;;;;
"gmw";;;"Windows 7";"Rachel's Experiment (D.T.)";"1.0";"2";"1";"1";"2";"1";"1";"2014-10-16 12:58:51.040";"2014-10-16 13:11:41.682";"1";"1";"1";"9";"8";"module.GoNoGopractice.exec-1896.GoNoGo_Practice";;;;;;;;;;;;;;;;;;;;;;;;;;;;;;;;;;;;;;;;;;;;;;;;;;;;;;;;;;;;;;;;;;;;;;;"1960";"2014-10-16 13:00:18.166";"30";"0";"FINISHED";"NONE";"success";"0";"1";"2014-10-16 13:00:16.201";"3";;;;;;;;;;
"gmw";;;"Windows 7";"Rachel's Experiment (D.T.)";"1.0";"2";"1";"1";"2";"1";"1";"2014-10-16 12:58:51.040";"2014-10-16 13:11:41.682";"1";"1";"1";"10";"9";"module.GoNoGopractice.exec-1896.GoNoGo_Practice";;;;;;;;;;;;;;;;;;;;;;;;;;;;;;;;;;;;;;;;;;;;;;;;;;;;;;;;;;;;;;;;;;;;;;;"1959";"2014-10-16 13:00:21.411";"6";"1";"FINISHED";"RIGHT";"failure";"376";"1";"2014-10-16 13:00:19.446";"1";;;;;;;;;;
"gmw";;;"Windows 7";"Rachel's Experiment (D.T.)";"1.0";"2";"1";"1";"2";"1";"1";"2014-10-16 12:58:51.040";"2014-10-16 13:11:41.682";"1";"1";"1";"11";"10";"module.GoNoGopractice.exec-1896.GoNoGo_Practice";;;;;;;;;;;;;;;;;;;;;;;;;;;;;;;;;;;;;;;;;;;;;;;;;;;;;;;;;;;;;;;;;;;;;;;"1960";"2014-10-16 13:00:24.656";"34";"0";"FINISHED";"LEFT";"success";"532";"0";"2014-10-16 13:00:22.690";"3";;;;;;;;;;
"gmw";;;"Windows 7";"Rachel's Experiment (D.T.)";"1.0";"2";"1";"1";"2";"1";"1";"2014-10-16 12:58:51.040";"2014-10-16 13:11:41.682";"1";"1";"1";"12";"11";"module.GoNoGopractice.exec-1896.GoNoGo_Practice";;;;;;;;;;;;;;;;;;;;;;;;;;;;;;;;;;;;;;;;;;;;;;;;;;;;;;;;;;;;;;;;;;;;;;;"1959";"2014-10-16 13:00:27.901";"23";"1";"FINISHED";"RIGHT";"success";"511";"0";"2014-10-16 13:00:25.935";"3";;;;;;;;;;
"gmw";;;"Windows 7";"Rachel's Experiment (D.T.)";"1.0";"2";"1";"1";"2";"1";"1";"2014-10-16 12:58:51.040";"2014-10-16 13:11:41.682";"1";"1";"1";"13";"12";"module.GoNoGopractice.exec-1896.GoNoGo_Practice";;;;;;;;;;;;;;;;;;;;;;;;;;;;;;;;;;;;;;;;;;;;;;;;;;;;;;;;;;;;;;;;;;;;;;;"1959";"2014-10-16 13:00:31.146";"13";"0";"FINISHED";"NONE";"success";"0";"1";"2014-10-16 13:00:29.180";"2";;;;;;;;;;
"gmw";;;"Windows 7";"Rachel's Experiment (D.T.)";"1.0";"2";"1";"1";"2";"1";"1";"2014-10-16 12:58:51.040";"2014-10-16 13:11:41.682";"1";"1";"1";"14";"13";"module.GoNoGopractice.exec-1896.GoNoGo_Practice";;;;;;;;;;;;;;;;;;;;;;;;;;;;;;;;;;;;;;;;;;;;;;;;;;;;;;;;;;;;;;;;;;;;;;;"1959";"2014-10-16 13:00:34.484";"3";"1";"FINISHED";"RIGHT";"success";"535";"0";"2014-10-16 13:00:32.518";"1";;;;;;;;;;
"gmw";;;"Windows 7";"Rachel's Experiment (D.T.)";"1.0";"2";"1";"1";"2";"1";"1";"2014-10-16 12:58:51.040";"2014-10-16 13:11:41.682";"1";"1";"1";"15";"14";"module.GoNoGopractice.exec-1896.GoNoGo_Practice";;;;;;;;;;;;;;;;;;;;;;;;;;;;;;;;;;;;;;;;;;;;;;;;;;;;;;;;;;;;;;;;;;;;;;;"1959";"2014-10-16 13:00:37.729";"27";"1";"FINISHED";"NONE";"success";"0";"1";"2014-10-16 13:00:35.763";"3";;;;;;;;;;
"gmw";;;"Windows 7";"Rachel's Experiment (D.T.)";"1.0";"2";"1";"1";"2";"1";"1";"2014-10-16 12:58:51.040";"2014-10-16 13:11:41.682";"1";"1";"1";"16";"15";"module.training_block1.exec-2561.GoNoGo1";;;;;;;;;;;;;;;;;;;;;;;"1257";"2014-10-16 13:00:45.638";"NST_correctLoc";"20";"1";"FINISHED";"RIGHT";"success";"438";"0";"2014-10-16 13:00:44.374";"3";;;;;;;;;;;;;;;;;;;;;;;;;;;;;;;;;;;;;;;;;;;;;;;;;;;;;;;;;
"gmw";;;"Windows 7";"Rachel's Experiment (D.T.)";"1.0";"2";"1";"1";"2";"1";"1";"2014-10-16 12:58:51.040";"2014-10-16 13:11:41.682";"1";"1";"1";"17";"16";"module.training_block1.exec-2561.GoNoGo1";;;;;;;;;;;;;;;;;;;;;;;"1258";"2014-10-16 13:00:48.181";"ST_correctStop";"33";"0";"FINISHED";"NONE";"success";"0";"1";"2014-10-16 13:00:46.917";"3";;;;;;;;;;;;;;;;;;;;;;;;;;;;;;;;;;;;;;;;;;;;;;;;;;;;;;;;;
"gmw";;;"Windows 7";"Rachel's Experiment (D.T.)";"1.0";"2";"1";"1";"2";"1";"1";"2014-10-16 12:58:51.040";"2014-10-16 13:11:41.682";"1";"1";"1";"18";"17";"module.training_block1.exec-2561.GoNoGo1";;;;;;;;;;;;;;;;;;;;;;;"1258";"2014-10-16 13:00:50.724";"ST_correctStop";"35";"0";"FINISHED";"NONE";"success";"0";"1";"2014-10-16 13:00:49.460";"3";;;;;;;;;;;;;;;;;;;;;;;;;;;;;;;;;;;;;;;;;;;;;;;;;;;;;;;;;
"gmw";;;"Windows 7";"Rachel's Experiment (D.T.)";"1.0";"2";"1";"1";"2";"1";"1";"2014-10-16 12:58:51.040";"2014-10-16 13:11:41.682";"1";"1";"1";"19";"18";"module.training_block1.exec-2561.GoNoGo1";;;;;;;;;;;;;;;;;;;;;;;"1257";"2014-10-16 13:00:53.266";"ST_correctStop";"6";"1";"FINISHED";"NONE";"success";"0";"1";"2014-10-16 13:00:52.003";"1";;;;;;;;;;;;;;;;;;;;;;;;;;;;;;;;;;;;;;;;;;;;;;;;;;;;;;;;;
"gmw";;;"Windows 7";"Rachel's Experiment (D.T.)";"1.0";"2";"1";"1";"2";"1";"1";"2014-10-16 12:58:51.040";"2014-10-16 13:11:41.682";"1";"1";"1";"20";"19";"module.training_block1.exec-2561.GoNoGo1";;;;;;;;;;;;;;;;;;;;;;;"1257";"2014-10-16 13:00:55.809";"ST_correctStop";"8";"1";"FINISHED";"NONE";"success";"0";"1";"2014-10-16 13:00:54.546";"1";;;;;;;;;;;;;;;;;;;;;;;;;;;;;;;;;;;;;;;;;;;;;;;;;;;;;;;;;
"gmw";;;"Windows 7";"Rachel's Experiment (D.T.)";"1.0";"2";"1";"1";"2";"1";"1";"2014-10-16 12:58:51.040";"2014-10-16 13:11:41.682";"1";"1";"1";"21";"20";"module.training_block1.exec-2561.GoNoGo1";;;;;;;;;;;;;;;;;;;;;;;"1258";"2014-10-16 13:00:58.352";"ST_correctStop";"5";"1";"FINISHED";"NONE";"success";"0";"1";"2014-10-16 13:00:57.088";"1";;;;;;;;;;;;;;;;;;;;;;;;;;;;;;;;;;;;;;;;;;;;;;;;;;;;;;;;;
"gmw";;;"Windows 7";"Rachel's Experiment (D.T.)";"1.0";"2";"1";"1";"2";"1";"1";"2014-10-16 12:58:51.040";"2014-10-16 13:11:41.682";"1";"1";"1";"22";"21";"module.training_block1.exec-2561.GoNoGo1";;;;;;;;;;;;;;;;;;;;;;;"1261";"2014-10-16 13:01:00.895";"ST_correctStop";"3";"1";"FINISHED";"NONE";"success";"0";"1";"2014-10-16 13:00:59.631";"1";;;;;;;;;;;;;;;;;;;;;;;;;;;;;;;;;;;;;;;;;;;;;;;;;;;;;;;;;
"gmw";;;"Windows 7";"Rachel's Experiment (D.T.)";"1.0";"2";"1";"1";"2";"1";"1";"2014-10-16 12:58:51.040";"2014-10-16 13:11:41.682";"1";"1";"1";"23";"22";"module.training_block1.exec-2561.GoNoGo1";;;;;;;;;;;;;;;;;;;;;;;"1257";"2014-10-16 13:01:03.438";"NST_correctLoc";"22";"0";"FINISHED";"LEFT";"success";"560";"0";"2014-10-16 13:01:02.174";"3";;;;;;;;;;;;;;;;;;;;;;;;;;;;;;;;;;;;;;;;;;;;;;;;;;;;;;;;;
"gmw";;;"Windows 7";"Rachel's Experiment (D.T.)";"1.0";"2";"1";"1";"2";"1";"1";"2014-10-16 12:58:51.040";"2014-10-16 13:11:41.682";"1";"1";"1";"24";"23";"module.training_block1.exec-2561.GoNoGo1";;;;;;;;;;;;;;;;;;;;;;;"1258";"2014-10-16 13:01:05.980";"NST_correctLoc";"30";"1";"FINISHED";"RIGHT";"success";"497";"0";"2014-10-16 13:01:04.717";"3";;;;;;;;;;;;;;;;;;;;;;;;;;;;;;;;;;;;;;;;;;;;;;;;;;;;;;;;;
"gmw";;;"Windows 7";"Rachel's Experiment (D.T.)";"1.0";"2";"1";"1";"2";"1";"1";"2014-10-16 12:58:51.040";"2014-10-16 13:11:41.682";"1";"1";"1";"25";"24";"module.training_block1.exec-2561.GoNoGo1";;;;;;;;;;;;;;;;;;;;;;;"1257";"2014-10-16 13:01:08.523";"NST_correctLoc";"21";"0";"FINISHED";"LEFT";"success";"322";"0";"2014-10-16 13:01:07.260";"3";;;;;;;;;;;;;;;;;;;;;;;;;;;;;;;;;;;;;;;;;;;;;;;;;;;;;;;;;
"gmw";;;"Windows 7";"Rachel's Experiment (D.T.)";"1.0";"2";"1";"1";"2";"1";"1";"2014-10-16 12:58:51.040";"2014-10-16 13:11:41.682";"1";"1";"1";"26";"25";"module.training_block1.exec-2561.GoNoGo1";;;;;;;;;;;;;;;;;;;;;;;"1257";"2014-10-16 13:01:11.066";"NST_correctLoc";"9";"0";"FINISHED";"LEFT";"success";"450";"0";"2014-10-16 13:01:09.802";"2";;;;;;;;;;;;;;;;;;;;;;;;;;;;;;;;;;;;;;;;;;;;;;;;;;;;;;;;;
"gmw";;;"Windows 7";"Rachel's Experiment (D.T.)";"1.0";"2";"1";"1";"2";"1";"1";"2014-10-16 12:58:51.040";"2014-10-16 13:11:41.682";"1";"1";"1";"27";"26";"module.training_block1.exec-2561.GoNoGo1";;;;;;;;;;;;;;;;;;;;;;;"1258";"2014-10-16 13:01:13.609";"NST_correctLoc";"12";"1";"FINISHED";"RIGHT";"success";"413";"0";"2014-10-16 13:01:12.345";"2";;;;;;;;;;;;;;;;;;;;;;;;;;;;;;;;;;;;;;;;;;;;;;;;;;;;;;;;;
"gmw";;;"Windows 7";"Rachel's Experiment (D.T.)";"1.0";"2";"1";"1";"2";"1";"1";"2014-10-16 12:58:51.040";"2014-10-16 13:11:41.682";"1";"1";"1";"28";"27";"module.training_block1.exec-2561.GoNoGo1";;;;;;;;;;;;;;;;;;;;;;;"1261";"2014-10-16 13:01:16.152";"ST_correctStop";"27";"1";"FINISHED";"NONE";"success";"0";"1";"2014-10-16 13:01:14.888";"3";;;;;;;;;;;;;;;;;;;;;;;;;;;;;;;;;;;;;;;;;;;;;;;;;;;;;;;;;
"gmw";;;"Windows 7";"Rachel's Experiment (D.T.)";"1.0";"2";"1";"1";"2";"1";"1";"2014-10-16 12:58:51.040";"2014-10-16 13:11:41.682";"1";"1";"1";"29";"28";"module.training_block1.exec-2561.GoNoGo1";;;;;;;;;;;;;;;;;;;;;;;"1257";"2014-10-16 13:01:18.694";"ST_correctStop";"32";"0";"FINISHED";"NONE";"success";"0";"1";"2014-10-16 13:01:17.431";"3";;;;;;;;;;;;;;;;;;;;;;;;;;;;;;;;;;;;;;;;;;;;;;;;;;;;;;;;;
"gmw";;;"Windows 7";"Rachel's Experiment (D.T.)";"1.0";"2";"1";"1";"2";"1";"1";"2014-10-16 12:58:51.040";"2014-10-16 13:11:41.682";"1";"1";"1";"30";"29";"module.training_block1.exec-2561.GoNoGo1";;;;;;;;;;;;;;;;;;;;;;;"1258";"2014-10-16 13:01:21.237";"NST_correctLoc";"34";"0";"FINISHED";"LEFT";"success";"449";"0";"2014-10-16 13:01:19.974";"3";;;;;;;;;;;;;;;;;;;;;;;;;;;;;;;;;;;;;;;;;;;;;;;;;;;;;;;;;
"gmw";;;"Windows 7";"Rachel's Experiment (D.T.)";"1.0";"2";"1";"1";"2";"1";"1";"2014-10-16 12:58:51.040";"2014-10-16 13:11:41.682";"1";"1";"1";"31";"30";"module.training_block1.exec-2561.GoNoGo1";;;;;;;;;;;;;;;;;;;;;;;"1258";"2014-10-16 13:01:23.780";"ST_correctStop";"24";"0";"FINISHED";"NONE";"success";"0";"1";"2014-10-16 13:01:22.516";"3";;;;;;;;;;;;;;;;;;;;;;;;;;;;;;;;;;;;;;;;;;;;;;;;;;;;;;;;;
"gmw";;;"Windows 7";"Rachel's Experiment (D.T.)";"1.0";"2";"1";"1";"2";"1";"1";"2014-10-16 12:58:51.040";"2014-10-16 13:11:41.682";"1";"1";"1";"32";"31";"module.training_block1.exec-2561.GoNoGo1";;;;;;;;;;;;;;;;;;;;;;;"1258";"2014-10-16 13:01:26.323";"NST_correctLoc";"31";"0";"FINISHED";"LEFT";"success";"522";"0";"2014-10-16 13:01:25.059";"3";;;;;;;;;;;;;;;;;;;;;;;;;;;;;;;;;;;;;;;;;;;;;;;;;;;;;;;;;
"gmw";;;"Windows 7";"Rachel's Experiment (D.T.)";"1.0";"2";"1";"1";"2";"1";"1";"2014-10-16 12:58:51.040";"2014-10-16 13:11:41.682";"1";"1";"1";"33";"32";"module.training_block1.exec-2561.GoNoGo1";;;;;;;;;;;;;;;;;;;;;;;"1257";"2014-10-16 13:01:28.866";"NST_correctLoc";"15";"0";"FINISHED";"LEFT";"success";"443";"0";"2014-10-16 13:01:27.602";"2";;;;;;;;;;;;;;;;;;;;;;;;;;;;;;;;;;;;;;;;;;;;;;;;;;;;;;;;;
"gmw";;;"Windows 7";"Rachel's Experiment (D.T.)";"1.0";"2";"1";"1";"2";"1";"1";"2014-10-16 12:58:51.040";"2014-10-16 13:11:41.682";"1";"1";"1";"34";"33";"module.training_block1.exec-2561.GoNoGo1";;;;;;;;;;;;;;;;;;;;;;;"1257";"2014-10-16 13:01:31.409";"ST_correctStop";"0";"1";"FINISHED";"NONE";"success";"0";"1";"2014-10-16 13:01:30.145";"1";;;;;;;;;;;;;;;;;;;;;;;;;;;;;;;;;;;;;;;;;;;;;;;;;;;;;;;;;
"gmw";;;"Windows 7";"Rachel's Experiment (D.T.)";"1.0";"2";"1";"1";"2";"1";"1";"2014-10-16 12:58:51.040";"2014-10-16 13:11:41.682";"1";"1";"1";"35";"34";"module.training_block1.exec-2561.GoNoGo1";;;;;;;;;;;;;;;;;;;;;;;"1257";"2014-10-16 13:01:33.951";"ST_correctStop";"2";"1";"FINISHED";"NONE";"success";"0";"1";"2014-10-16 13:01:32.688";"1";;;;;;;;;;;;;;;;;;;;;;;;;;;;;;;;;;;;;;;;;;;;;;;;;;;;;;;;;
"gmw";;;"Windows 7";"Rachel's Experiment (D.T.)";"1.0";"2";"1";"1";"2";"1";"1";"2014-10-16 12:58:51.040";"2014-10-16 13:11:41.682";"1";"1";"1";"36";"35";"module.training_block1.exec-2561.GoNoGo1";;;;;;;;;;;;;;;;;;;;;;;"1258";"2014-10-16 13:01:36.494";"NST_correctLoc";"10";"0";"FINISHED";"LEFT";"success";"439";"0";"2014-10-16 13:01:35.231";"2";;;;;;;;;;;;;;;;;;;;;;;;;;;;;;;;;;;;;;;;;;;;;;;;;;;;;;;;;
"gmw";;;"Windows 7";"Rachel's Experiment (D.T.)";"1.0";"2";"1";"1";"2";"1";"1";"2014-10-16 12:58:51.040";"2014-10-16 13:11:41.682";"1";"1";"1";"37";"36";"module.training_block1.exec-2561.GoNoGo1";;;;;;;;;;;;;;;;;;;;;;;"1258";"2014-10-16 13:01:39.037";"ST_correctStop";"25";"1";"FINISHED";"NONE";"success";"0";"1";"2014-10-16 13:01:37.773";"3";;;;;;;;;;;;;;;;;;;;;;;;;;;;;;;;;;;;;;;;;;;;;;;;;;;;;;;;;
"gmw";;;"Windows 7";"Rachel's Experiment (D.T.)";"1.0";"2";"1";"1";"2";"1";"1";"2014-10-16 12:58:51.040";"2014-10-16 13:11:41.682";"1";"1";"1";"38";"37";"module.training_block1.exec-2561.GoNoGo1";;;;;;;;;;;;;;;;;;;;;;;"1257";"2014-10-16 13:01:41.580";"NST_correctLoc";"29";"1";"FINISHED";"RIGHT";"success";"497";"0";"2014-10-16 13:01:40.316";"3";;;;;;;;;;;;;;;;;;;;;;;;;;;;;;;;;;;;;;;;;;;;;;;;;;;;;;;;;
"gmw";;;"Windows 7";"Rachel's Experiment (D.T.)";"1.0";"2";"1";"1";"2";"1";"1";"2014-10-16 12:58:51.040";"2014-10-16 13:11:41.682";"1";"1";"1";"39";"38";"module.training_block1.exec-2561.GoNoGo1";;;;;;;;;;;;;;;;;;;;;;;"1257";"2014-10-16 13:01:44.123";"ST_correctStop";"7";"0";"FINISHED";"NONE";"success";"0";"1";"2014-10-16 13:01:42.859";"1";;;;;;;;;;;;;;;;;;;;;;;;;;;;;;;;;;;;;;;;;;;;;;;;;;;;;;;;;
"gmw";;;"Windows 7";"Rachel's Experiment (D.T.)";"1.0";"2";"1";"1";"2";"1";"1";"2014-10-16 12:58:51.040";"2014-10-16 13:11:41.682";"1";"1";"1";"40";"39";"module.training_block1.exec-2561.GoNoGo1";;;;;;;;;;;;;;;;;;;;;;;"1258";"2014-10-16 13:01:46.665";"ST_correctStop";"1";"1";"FINISHED";"NONE";"success";"0";"1";"2014-10-16 13:01:45.402";"1";;;;;;;;;;;;;;;;;;;;;;;;;;;;;;;;;;;;;;;;;;;;;;;;;;;;;;;;;
"gmw";;;"Windows 7";"Rachel's Experiment (D.T.)";"1.0";"2";"1";"1";"2";"1";"1";"2014-10-16 12:58:51.040";"2014-10-16 13:11:41.682";"1";"1";"1";"41";"40";"module.training_block1.exec-2561.GoNoGo1";;;;;;;;;;;;;;;;;;;;;;;"1257";"2014-10-16 13:01:49.208";"ST_correctStop";"4";"1";"FINISHED";"NONE";"success";"0";"1";"2014-10-16 13:01:47.945";"1";;;;;;;;;;;;;;;;;;;;;;;;;;;;;;;;;;;;;;;;;;;;;;;;;;;;;;;;;
"gmw";;;"Windows 7";"Rachel's Experiment (D.T.)";"1.0";"2";"1";"1";"2";"1";"1";"2014-10-16 12:58:51.040";"2014-10-16 13:11:41.682";"1";"1";"1";"42";"41";"module.training_block1.exec-2561.GoNoGo1";;;;;;;;;;;;;;;;;;;;;;;"1258";"2014-10-16 13:01:51.751";"ST_correctStop";"18";"1";"FINISHED";"NONE";"success";"0";"1";"2014-10-16 13:01:50.487";"3";;;;;;;;;;;;;;;;;;;;;;;;;;;;;;;;;;;;;;;;;;;;;;;;;;;;;;;;;
"gmw";;;"Windows 7";"Rachel's Experiment (D.T.)";"1.0";"2";"1";"1";"2";"1";"1";"2014-10-16 12:58:51.040";"2014-10-16 13:11:41.682";"1";"1";"1";"43";"42";"module.training_block1.exec-2561.GoNoGo1";;;;;;;;;;;;;;;;;;;;;;;"1253";"2014-10-16 13:01:54.294";"NST_correctLoc";"16";"0";"FINISHED";"LEFT";"success";"507";"0";"2014-10-16 13:01:53.030";"2";;;;;;;;;;;;;;;;;;;;;;;;;;;;;;;;;;;;;;;;;;;;;;;;;;;;;;;;;
"gmw";;;"Windows 7";"Rachel's Experiment (D.T.)";"1.0";"2";"1";"1";"2";"1";"1";"2014-10-16 12:58:51.040";"2014-10-16 13:11:41.682";"1";"1";"1";"44";"43";"module.training_block1.exec-2561.GoNoGo1";;;;;;;;;;;;;;;;;;;;;;;"1257";"2014-10-16 13:01:56.837";"NST_correctLoc";"14";"1";"FINISHED";"RIGHT";"success";"456";"0";"2014-10-16 13:01:55.573";"2";;;;;;;;;;;;;;;;;;;;;;;;;;;;;;;;;;;;;;;;;;;;;;;;;;;;;;;;;
"gmw";;;"Windows 7";"Rachel's Experiment (D.T.)";"1.0";"2";"1";"1";"2";"1";"1";"2014-10-16 12:58:51.040";"2014-10-16 13:11:41.682";"1";"1";"1";"45";"44";"module.training_block1.exec-2561.GoNoGo1";;;;;;;;;;;;;;;;;;;;;;;"1258";"2014-10-16 13:01:59.411";"NST_correctLoc";"28";"0";"FINISHED";"LEFT";"success";"395";"0";"2014-10-16 13:01:58.147";"3";;;;;;;;;;;;;;;;;;;;;;;;;;;;;;;;;;;;;;;;;;;;;;;;;;;;;;;;;
"gmw";;;"Windows 7";"Rachel's Experiment (D.T.)";"1.0";"2";"1";"1";"2";"1";"1";"2014-10-16 12:58:51.040";"2014-10-16 13:11:41.682";"1";"1";"1";"46";"45";"module.training_block1.exec-2561.GoNoGo1";;;;;;;;;;;;;;;;;;;;;;;"1258";"2014-10-16 13:02:01.969";"NST_correctLoc";"11";"1";"FINISHED";"RIGHT";"success";"364";"0";"2014-10-16 13:02:00.705";"2";;;;;;;;;;;;;;;;;;;;;;;;;;;;;;;;;;;;;;;;;;;;;;;;;;;;;;;;;
"gmw";;;"Windows 7";"Rachel's Experiment (D.T.)";"1.0";"2";"1";"1";"2";"1";"1";"2014-10-16 12:58:51.040";"2014-10-16 13:11:41.682";"1";"1";"1";"47";"46";"module.training_block1.exec-2561.GoNoGo1";;;;;;;;;;;;;;;;;;;;;;;"1257";"2014-10-16 13:02:04.512";"ST_correctStop";"26";"0";"FINISHED";"NONE";"success";"0";"1";"2014-10-16 13:02:03.248";"3";;;;;;;;;;;;;;;;;;;;;;;;;;;;;;;;;;;;;;;;;;;;;;;;;;;;;;;;;
"gmw";;;"Windows 7";"Rachel's Experiment (D.T.)";"1.0";"2";"1";"1";"2";"1";"1";"2014-10-16 12:58:51.040";"2014-10-16 13:11:41.682";"1";"1";"1";"48";"47";"module.training_block1.exec-2561.GoNoGo1";;;;;;;;;;;;;;;;;;;;;;;"1257";"2014-10-16 13:02:07.055";"NST_correctLoc";"23";"1";"FINISHED";"RIGHT";"success";"438";"0";"2014-10-16 13:02:05.791";"3";;;;;;;;;;;;;;;;;;;;;;;;;;;;;;;;;;;;;;;;;;;;;;;;;;;;;;;;;
"gmw";;;"Windows 7";"Rachel's Experiment (D.T.)";"1.0";"2";"1";"1";"2";"1";"1";"2014-10-16 12:58:51.040";"2014-10-16 13:11:41.682";"1";"1";"1";"49";"48";"module.training_block1.exec-2561.GoNoGo1";;;;;;;;;;;;;;;;;;;;;;;"1257";"2014-10-16 13:02:09.597";"NST_correctLoc";"17";"0";"FINISHED";"LEFT";"success";"319";"0";"2014-10-16 13:02:08.334";"2";;;;;;;;;;;;;;;;;;;;;;;;;;;;;;;;;;;;;;;;;;;;;;;;;;;;;;;;;
"gmw";;;"Windows 7";"Rachel's Experiment (D.T.)";"1.0";"2";"1";"1";"2";"1";"1";"2014-10-16 12:58:51.040";"2014-10-16 13:11:41.682";"1";"1";"1";"50";"49";"module.training_block1.exec-2561.GoNoGo1";;;;;;;;;;;;;;;;;;;;;;;"1256";"2014-10-16 13:02:12.140";"NST_correctLoc";"13";"1";"FINISHED";"RIGHT";"success";"359";"0";"2014-10-16 13:02:10.877";"2";;;;;;;;;;;;;;;;;;;;;;;;;;;;;;;;;;;;;;;;;;;;;;;;;;;;;;;;;
"gmw";;;"Windows 7";"Rachel's Experiment (D.T.)";"1.0";"2";"1";"1";"2";"1";"1";"2014-10-16 12:58:51.040";"2014-10-16 13:11:41.682";"1";"1";"1";"51";"50";"module.training_block1.exec-2561.GoNoGo1";;;;;;;;;;;;;;;;;;;;;;;"1258";"2014-10-16 13:02:14.683";"ST_correctStop";"19";"1";"FINISHED";"NONE";"success";"0";"1";"2014-10-16 13:02:13.419";"3";;;;;;;;;;;;;;;;;;;;;;;;;;;;;;;;;;;;;;;;;;;;;;;;;;;;;;;;;
"gmw";;;"Windows 7";"Rachel's Experiment (D.T.)";"1.0";"2";"1";"1";"2";"1";"1";"2014-10-16 12:58:51.040";"2014-10-16 13:11:41.682";"1";"1";"1";"52";"51";"module.training_block2.exec-8639.GoNoGo2";;;;;;;;;;;;;;;;;;;;;;;;;;;;;;;;;;;"1261";"2014-10-16 13:02:25.681";"NST_correctLoc";"10";"1";"FINISHED";"RIGHT";"success";"487";"0";"2014-10-16 13:02:24.417";"2";;;;;;;;;;;;;;;;;;;;;;;;;;;;;;;;;;;;;;;;;;;;;
"gmw";;;"Windows 7";"Rachel's Experiment (D.T.)";"1.0";"2";"1";"1";"2";"1";"1";"2014-10-16 12:58:51.040";"2014-10-16 13:11:41.682";"1";"1";"1";"53";"52";"module.training_block2.exec-8639.GoNoGo2";;;;;;;;;;;;;;;;;;;;;;;;;;;;;;;;;;;"1261";"2014-10-16 13:02:28.224";"NST_correctLoc";"18";"1";"FINISHED";"RIGHT";"success";"377";"0";"2014-10-16 13:02:26.960";"3";;;;;;;;;;;;;;;;;;;;;;;;;;;;;;;;;;;;;;;;;;;;;
"gmw";;;"Windows 7";"Rachel's Experiment (D.T.)";"1.0";"2";"1";"1";"2";"1";"1";"2014-10-16 12:58:51.040";"2014-10-16 13:11:41.682";"1";"1";"1";"54";"53";"module.training_block2.exec-8639.GoNoGo2";;;;;;;;;;;;;;;;;;;;;;;;;;;;;;;;;;;"1261";"2014-10-16 13:02:30.767";"ST_correctStop";"28";"0";"FINISHED";"NONE";"success";"0";"1";"2014-10-16 13:02:29.503";"3";;;;;;;;;;;;;;;;;;;;;;;;;;;;;;;;;;;;;;;;;;;;;
"gmw";;;"Windows 7";"Rachel's Experiment (D.T.)";"1.0";"2";"1";"1";"2";"1";"1";"2014-10-16 12:58:51.040";"2014-10-16 13:11:41.682";"1";"1";"1";"55";"54";"module.training_block2.exec-8639.GoNoGo2";;;;;;;;;;;;;;;;;;;;;;;;;;;;;;;;;;;"1261";"2014-10-16 13:02:33.309";"NST_correctLoc";"12";"1";"FINISHED";"RIGHT";"success";"411";"0";"2014-10-16 13:02:32.046";"2";;;;;;;;;;;;;;;;;;;;;;;;;;;;;;;;;;;;;;;;;;;;;
"gmw";;;"Windows 7";"Rachel's Experiment (D.T.)";"1.0";"2";"1";"1";"2";"1";"1";"2014-10-16 12:58:51.040";"2014-10-16 13:11:41.682";"1";"1";"1";"56";"55";"module.training_block2.exec-8639.GoNoGo2";;;;;;;;;;;;;;;;;;;;;;;;;;;;;;;;;;;"1261";"2014-10-16 13:02:35.852";"NST_correctLoc";"16";"1";"FINISHED";"RIGHT";"success";"476";"0";"2014-10-16 13:02:34.589";"2";;;;;;;;;;;;;;;;;;;;;;;;;;;;;;;;;;;;;;;;;;;;;
"gmw";;;"Windows 7";"Rachel's Experiment (D.T.)";"1.0";"2";"1";"1";"2";"1";"1";"2014-10-16 12:58:51.040";"2014-10-16 13:11:41.682";"1";"1";"1";"57";"56";"module.training_block2.exec-8639.GoNoGo2";;;;;;;;;;;;;;;;;;;;;;;;;;;;;;;;;;;"1261";"2014-10-16 13:02:38.395";"NST_correctLoc";"33";"1";"FINISHED";"RIGHT";"success";"493";"0";"2014-10-16 13:02:37.131";"3";;;;;;;;;;;;;;;;;;;;;;;;;;;;;;;;;;;;;;;;;;;;;
"gmw";;;"Windows 7";"Rachel's Experiment (D.T.)";"1.0";"2";"1";"1";"2";"1";"1";"2014-10-16 12:58:51.040";"2014-10-16 13:11:41.682";"1";"1";"1";"58";"57";"module.training_block2.exec-8639.GoNoGo2";;;;;;;;;;;;;;;;;;;;;;;;;;;;;;;;;;;"1261";"2014-10-16 13:02:40.938";"ST_correctStop";"4";"0";"FINISHED";"NONE";"success";"0";"1";"2014-10-16 13:02:39.674";"1";;;;;;;;;;;;;;;;;;;;;;;;;;;;;;;;;;;;;;;;;;;;;
"gmw";;;"Windows 7";"Rachel's Experiment (D.T.)";"1.0";"2";"1";"1";"2";"1";"1";"2014-10-16 12:58:51.040";"2014-10-16 13:11:41.682";"1";"1";"1";"59";"58";"module.training_block2.exec-8639.GoNoGo2";;;;;;;;;;;;;;;;;;;;;;;;;;;;;;;;;;;"1261";"2014-10-16 13:02:43.481";"ST_correctStop";"24";"1";"FINISHED";"NONE";"success";"0";"1";"2014-10-16 13:02:42.217";"3";;;;;;;;;;;;;;;;;;;;;;;;;;;;;;;;;;;;;;;;;;;;;
"gmw";;;"Windows 7";"Rachel's Experiment (D.T.)";"1.0";"2";"1";"1";"2";"1";"1";"2014-10-16 12:58:51.040";"2014-10-16 13:11:41.682";"1";"1";"1";"60";"59";"module.training_block2.exec-8639.GoNoGo2";;;;;;;;;;;;;;;;;;;;;;;;;;;;;;;;;;;"1261";"2014-10-16 13:02:46.023";"NST_correctLoc";"17";"1";"FINISHED";"RIGHT";"success";"449";"0";"2014-10-16 13:02:44.760";"2";;;;;;;;;;;;;;;;;;;;;;;;;;;;;;;;;;;;;;;;;;;;;
"gmw";;;"Windows 7";"Rachel's Experiment (D.T.)";"1.0";"2";"1";"1";"2";"1";"1";"2014-10-16 12:58:51.040";"2014-10-16 13:11:41.682";"1";"1";"1";"61";"60";"module.training_block2.exec-8639.GoNoGo2";;;;;;;;;;;;;;;;;;;;;;;;;;;;;;;;;;;"1261";"2014-10-16 13:02:48.566";"NST_correctLoc";"9";"0";"FINISHED";"LEFT";"success";"330";"0";"2014-10-16 13:02:47.303";"2";;;;;;;;;;;;;;;;;;;;;;;;;;;;;;;;;;;;;;;;;;;;;
"gmw";;;"Windows 7";"Rachel's Experiment (D.T.)";"1.0";"2";"1";"1";"2";"1";"1";"2014-10-16 12:58:51.040";"2014-10-16 13:11:41.682";"1";"1";"1";"62";"61";"module.training_block2.exec-8639.GoNoGo2";;;;;;;;;;;;;;;;;;;;;;;;;;;;;;;;;;;"1261";"2014-10-16 13:02:51.109";"NST_correctLoc";"34";"1";"FINISHED";"RIGHT";"success";"379";"0";"2014-10-16 13:02:49.845";"3";;;;;;;;;;;;;;;;;;;;;;;;;;;;;;;;;;;;;;;;;;;;;
"gmw";;;"Windows 7";"Rachel's Experiment (D.T.)";"1.0";"2";"1";"1";"2";"1";"1";"2014-10-16 12:58:51.040";"2014-10-16 13:11:41.682";"1";"1";"1";"63";"62";"module.training_block2.exec-8639.GoNoGo2";;;;;;;;;;;;;;;;;;;;;;;;;;;;;;;;;;;"1261";"2014-10-16 13:02:53.652";"NST_correctLoc";"27";"0";"FINISHED";"LEFT";"success";"468";"0";"2014-10-16 13:02:52.388";"3";;;;;;;;;;;;;;;;;;;;;;;;;;;;;;;;;;;;;;;;;;;;;
"gmw";;;"Windows 7";"Rachel's Experiment (D.T.)";"1.0";"2";"1";"1";"2";"1";"1";"2014-10-16 12:58:51.040";"2014-10-16 13:11:41.682";"1";"1";"1";"64";"63";"module.training_block2.exec-8639.GoNoGo2";;;;;;;;;;;;;;;;;;;;;;;;;;;;;;;;;;;"1261";"2014-10-16 13:02:56.195";"ST_correctStop";"8";"0";"FINISHED";"NONE";"success";"0";"1";"2014-10-16 13:02:54.931";"1";;;;;;;;;;;;;;;;;;;;;;;;;;;;;;;;;;;;;;;;;;;;;
"gmw";;;"Windows 7";"Rachel's Experiment (D.T.)";"1.0";"2";"1";"1";"2";"1";"1";"2014-10-16 12:58:51.040";"2014-10-16 13:11:41.682";"1";"1";"1";"65";"64";"module.training_block2.exec-8639.GoNoGo2";;;;;;;;;;;;;;;;;;;;;;;;;;;;;;;;;;;"1261";"2014-10-16 13:02:58.737";"NST_correctLoc";"13";"1";"FINISHED";"RIGHT";"success";"447";"0";"2014-10-16 13:02:57.474";"2";;;;;;;;;;;;;;;;;;;;;;;;;;;;;;;;;;;;;;;;;;;;;
"gmw";;;"Windows 7";"Rachel's Experiment (D.T.)";"1.0";"2";"1";"1";"2";"1";"1";"2014-10-16 12:58:51.040";"2014-10-16 13:11:41.682";"1";"1";"1";"66";"65";"module.training_block2.exec-8639.GoNoGo2";;;;;;;;;;;;;;;;;;;;;;;;;;;;;;;;;;;"1261";"2014-10-16 13:03:01.280";"NST_correctLoc";"15";"1";"FINISHED";"RIGHT";"success";"384";"0";"2014-10-16 13:03:00.017";"2";;;;;;;;;;;;;;;;;;;;;;;;;;;;;;;;;;;;;;;;;;;;;
"gmw";;;"Windows 7";"Rachel's Experiment (D.T.)";"1.0";"2";"1";"1";"2";"1";"1";"2014-10-16 12:58:51.040";"2014-10-16 13:11:41.682";"1";"1";"1";"67";"66";"module.training_block2.exec-8639.GoNoGo2";;;;;;;;;;;;;;;;;;;;;;;;;;;;;;;;;;;"1261";"2014-10-16 13:03:03.823";"ST_correctStop";"21";"1";"FINISHED";"NONE";"success";"0";"1";"2014-10-16 13:03:02.559";"3";;;;;;;;;;;;;;;;;;;;;;;;;;;;;;;;;;;;;;;;;;;;;
"gmw";;;"Windows 7";"Rachel's Experiment (D.T.)";"1.0";"2";"1";"1";"2";"1";"1";"2014-10-16 12:58:51.040";"2014-10-16 13:11:41.682";"1";"1";"1";"68";"67";"module.training_block2.exec-8639.GoNoGo2";;;;;;;;;;;;;;;;;;;;;;;;;;;;;;;;;;;"1261";"2014-10-16 13:03:06.366";"NST_correctLoc";"20";"1";"FINISHED";"RIGHT";"success";"450";"0";"2014-10-16 13:03:05.102";"3";;;;;;;;;;;;;;;;;;;;;;;;;;;;;;;;;;;;;;;;;;;;;
"gmw";;;"Windows 7";"Rachel's Experiment (D.T.)";"1.0";"2";"1";"1";"2";"1";"1";"2014-10-16 12:58:51.040";"2014-10-16 13:11:41.682";"1";"1";"1";"69";"68";"module.training_block2.exec-8639.GoNoGo2";;;;;;;;;;;;;;;;;;;;;;;;;;;;;;;;;;;"1261";"2014-10-16 13:03:08.909";"NST_correctLoc";"32";"0";"FINISHED";"LEFT";"success";"395";"0";"2014-10-16 13:03:07.645";"3";;;;;;;;;;;;;;;;;;;;;;;;;;;;;;;;;;;;;;;;;;;;;
"gmw";;;"Windows 7";"Rachel's Experiment (D.T.)";"1.0";"2";"1";"1";"2";"1";"1";"2014-10-16 12:58:51.040";"2014-10-16 13:11:41.682";"1";"1";"1";"70";"69";"module.training_block2.exec-8639.GoNoGo2";;;;;;;;;;;;;;;;;;;;;;;;;;;;;;;;;;;"1261";"2014-10-16 13:03:11.467";"ST_correctStop";"0";"1";"FINISHED";"NONE";"success";"0";"1";"2014-10-16 13:03:10.203";"1";;;;;;;;;;;;;;;;;;;;;;;;;;;;;;;;;;;;;;;;;;;;;
"gmw";;;"Windows 7";"Rachel's Experiment (D.T.)";"1.0";"2";"1";"1";"2";"1";"1";"2014-10-16 12:58:51.040";"2014-10-16 13:11:41.682";"1";"1";"1";"71";"70";"module.training_block2.exec-8639.GoNoGo2";;;;;;;;;;;;;;;;;;;;;;;;;;;;;;;;;;;"1261";"2014-10-16 13:03:14.010";"ST_correctStop";"3";"1";"FINISHED";"NONE";"success";"0";"1";"2014-10-16 13:03:12.746";"1";;;;;;;;;;;;;;;;;;;;;;;;;;;;;;;;;;;;;;;;;;;;;
"gmw";;;"Windows 7";"Rachel's Experiment (D.T.)";"1.0";"2";"1";"1";"2";"1";"1";"2014-10-16 12:58:51.040";"2014-10-16 13:11:41.682";"1";"1";"1";"72";"71";"module.training_block2.exec-8639.GoNoGo2";;;;;;;;;;;;;;;;;;;;;;;;;;;;;;;;;;;"1261";"2014-10-16 13:03:16.553";"NST_correctLoc";"14";"1";"FINISHED";"RIGHT";"success";"439";"0";"2014-10-16 13:03:15.289";"2";;;;;;;;;;;;;;;;;;;;;;;;;;;;;;;;;;;;;;;;;;;;;
"gmw";;;"Windows 7";"Rachel's Experiment (D.T.)";"1.0";"2";"1";"1";"2";"1";"1";"2014-10-16 12:58:51.040";"2014-10-16 13:11:41.682";"1";"1";"1";"73";"72";"module.training_block2.exec-8639.GoNoGo2";;;;;;;;;;;;;;;;;;;;;;;;;;;;;;;;;;;"1261";"2014-10-16 13:03:19.096";"ST_correctStop";"23";"1";"FINISHED";"NONE";"success";"0";"1";"2014-10-16 13:03:17.832";"3";;;;;;;;;;;;;;;;;;;;;;;;;;;;;;;;;;;;;;;;;;;;;
"gmw";;;"Windows 7";"Rachel's Experiment (D.T.)";"1.0";"2";"1";"1";"2";"1";"1";"2014-10-16 12:58:51.040";"2014-10-16 13:11:41.682";"1";"1";"1";"74";"73";"module.training_block2.exec-8639.GoNoGo2";;;;;;;;;;;;;;;;;;;;;;;;;;;;;;;;;;;"1261";"2014-10-16 13:03:21.638";"ST_correctStop";"30";"0";"FINISHED";"NONE";"success";"0";"1";"2014-10-16 13:03:20.375";"3";;;;;;;;;;;;;;;;;;;;;;;;;;;;;;;;;;;;;;;;;;;;;
"gmw";;;"Windows 7";"Rachel's Experiment (D.T.)";"1.0";"2";"1";"1";"2";"1";"1";"2014-10-16 12:58:51.040";"2014-10-16 13:11:41.682";"1";"1";"1";"75";"74";"module.training_block2.exec-8639.GoNoGo2";;;;;;;;;;;;;;;;;;;;;;;;;;;;;;;;;;;"1261";"2014-10-16 13:03:24.181";"ST_correctStop";"29";"0";"FINISHED";"NONE";"success";"0";"1";"2014-10-16 13:03:22.918";"3";;;;;;;;;;;;;;;;;;;;;;;;;;;;;;;;;;;;;;;;;;;;;
"gmw";;;"Windows 7";"Rachel's Experiment (D.T.)";"1.0";"2";"1";"1";"2";"1";"1";"2014-10-16 12:58:51.040";"2014-10-16 13:11:41.682";"1";"1";"1";"76";"75";"module.training_block2.exec-8639.GoNoGo2";;;;;;;;;;;;;;;;;;;;;;;;;;;;;;;;;;;"1261";"2014-10-16 13:03:26.724";"ST_correctStop";"1";"0";"FINISHED";"NONE";"success";"0";"1";"2014-10-16 13:03:25.460";"1";;;;;;;;;;;;;;;;;;;;;;;;;;;;;;;;;;;;;;;;;;;;;
"gmw";;;"Windows 7";"Rachel's Experiment (D.T.)";"1.0";"2";"1";"1";"2";"1";"1";"2014-10-16 12:58:51.040";"2014-10-16 13:11:41.682";"1";"1";"1";"77";"76";"module.training_block2.exec-8639.GoNoGo2";;;;;;;;;;;;;;;;;;;;;;;;;;;;;;;;;;;"1262";"2014-10-16 13:03:29.267";"ST_correctStop";"25";"1";"FINISHED";"NONE";"success";"0";"1";"2014-10-16 13:03:28.003";"3";;;;;;;;;;;;;;;;;;;;;;;;;;;;;;;;;;;;;;;;;;;;;
"gmw";;;"Windows 7";"Rachel's Experiment (D.T.)";"1.0";"2";"1";"1";"2";"1";"1";"2014-10-16 12:58:51.040";"2014-10-16 13:11:41.682";"1";"1";"1";"78";"77";"module.training_block2.exec-8639.GoNoGo2";;;;;;;;;;;;;;;;;;;;;;;;;;;;;;;;;;;"1261";"2014-10-16 13:03:31.810";"NST_correctLoc";"11";"0";"FINISHED";"LEFT";"success";"430";"0";"2014-10-16 13:03:30.546";"2";;;;;;;;;;;;;;;;;;;;;;;;;;;;;;;;;;;;;;;;;;;;;
"gmw";;;"Windows 7";"Rachel's Experiment (D.T.)";"1.0";"2";"1";"1";"2";"1";"1";"2014-10-16 12:58:51.040";"2014-10-16 13:11:41.682";"1";"1";"1";"79";"78";"module.training_block2.exec-8639.GoNoGo2";;;;;;;;;;;;;;;;;;;;;;;;;;;;;;;;;;;"1261";"2014-10-16 13:03:34.352";"NST_correctLoc";"31";"0";"FINISHED";"LEFT";"success";"496";"0";"2014-10-16 13:03:33.089";"3";;;;;;;;;;;;;;;;;;;;;;;;;;;;;;;;;;;;;;;;;;;;;
"gmw";;;"Windows 7";"Rachel's Experiment (D.T.)";"1.0";"2";"1";"1";"2";"1";"1";"2014-10-16 12:58:51.040";"2014-10-16 13:11:41.682";"1";"1";"1";"80";"79";"module.training_block2.exec-8639.GoNoGo2";;;;;;;;;;;;;;;;;;;;;;;;;;;;;;;;;;;"1261";"2014-10-16 13:03:36.895";"NST_correctLoc";"26";"0";"FINISHED";"LEFT";"success";"433";"0";"2014-10-16 13:03:35.632";"3";;;;;;;;;;;;;;;;;;;;;;;;;;;;;;;;;;;;;;;;;;;;;
"gmw";;;"Windows 7";"Rachel's Experiment (D.T.)";"1.0";"2";"1";"1";"2";"1";"1";"2014-10-16 12:58:51.040";"2014-10-16 13:11:41.682";"1";"1";"1";"81";"80";"module.training_block2.exec-8639.GoNoGo2";;;;;;;;;;;;;;;;;;;;;;;;;;;;;;;;;;;"1261";"2014-10-16 13:03:39.438";"ST_correctStop";"5";"0";"FINISHED";"NONE";"success";"0";"1";"2014-10-16 13:03:38.174";"1";;;;;;;;;;;;;;;;;;;;;;;;;;;;;;;;;;;;;;;;;;;;;
"gmw";;;"Windows 7";"Rachel's Experiment (D.T.)";"1.0";"2";"1";"1";"2";"1";"1";"2014-10-16 12:58:51.040";"2014-10-16 13:11:41.682";"1";"1";"1";"82";"81";"module.training_block2.exec-8639.GoNoGo2";;;;;;;;;;;;;;;;;;;;;;;;;;;;;;;;;;;"1261";"2014-10-16 13:03:41.981";"ST_correctStop";"6";"0";"FINISHED";"NONE";"success";"0";"1";"2014-10-16 13:03:40.717";"1";;;;;;;;;;;;;;;;;;;;;;;;;;;;;;;;;;;;;;;;;;;;;
"gmw";;;"Windows 7";"Rachel's Experiment (D.T.)";"1.0";"2";"1";"1";"2";"1";"1";"2014-10-16 12:58:51.040";"2014-10-16 13:11:41.682";"1";"1";"1";"83";"82";"module.training_block2.exec-8639.GoNoGo2";;;;;;;;;;;;;;;;;;;;;;;;;;;;;;;;;;;"1261";"2014-10-16 13:03:44.539";"ST_correctStop";"2";"0";"FINISHED";"NONE";"success";"0";"1";"2014-10-16 13:03:43.276";"1";;;;;;;;;;;;;;;;;;;;;;;;;;;;;;;;;;;;;;;;;;;;;
"gmw";;;"Windows 7";"Rachel's Experiment (D.T.)";"1.0";"2";"1";"1";"2";"1";"1";"2014-10-16 12:58:51.040";"2014-10-16 13:11:41.682";"1";"1";"1";"84";"83";"module.training_block2.exec-8639.GoNoGo2";;;;;;;;;;;;;;;;;;;;;;;;;;;;;;;;;;;"1261";"2014-10-16 13:03:47.082";"ST_correctStop";"7";"1";"FINISHED";"NONE";"success";"0";"1";"2014-10-16 13:03:45.818";"1";;;;;;;;;;;;;;;;;;;;;;;;;;;;;;;;;;;;;;;;;;;;;
"gmw";;;"Windows 7";"Rachel's Experiment (D.T.)";"1.0";"2";"1";"1";"2";"1";"1";"2014-10-16 12:58:51.040";"2014-10-16 13:11:41.682";"1";"1";"1";"85";"84";"module.training_block2.exec-8639.GoNoGo2";;;;;;;;;;;;;;;;;;;;;;;;;;;;;;;;;;;"1261";"2014-10-16 13:03:49.625";"ST_correctStop";"19";"1";"FINISHED";"NONE";"success";"0";"1";"2014-10-16 13:03:48.361";"3";;;;;;;;;;;;;;;;;;;;;;;;;;;;;;;;;;;;;;;;;;;;;
"gmw";;;"Windows 7";"Rachel's Experiment (D.T.)";"1.0";"2";"1";"1";"2";"1";"1";"2014-10-16 12:58:51.040";"2014-10-16 13:11:41.682";"1";"1";"1";"86";"85";"module.training_block2.exec-8639.GoNoGo2";;;;;;;;;;;;;;;;;;;;;;;;;;;;;;;;;;;"1261";"2014-10-16 13:03:52.168";"NST_correctLoc";"35";"0";"FINISHED";"LEFT";"success";"456";"0";"2014-10-16 13:03:50.904";"3";;;;;;;;;;;;;;;;;;;;;;;;;;;;;;;;;;;;;;;;;;;;;
"gmw";;;"Windows 7";"Rachel's Experiment (D.T.)";"1.0";"2";"1";"1";"2";"1";"1";"2014-10-16 12:58:51.040";"2014-10-16 13:11:41.682";"1";"1";"1";"87";"86";"module.training_block2.exec-8639.GoNoGo2";;;;;;;;;;;;;;;;;;;;;;;;;;;;;;;;;;;"1261";"2014-10-16 13:03:54.710";"ST_correctStop";"22";"1";"FINISHED";"NONE";"success";"0";"1";"2014-10-16 13:03:53.447";"3";;;;;;;;;;;;;;;;;;;;;;;;;;;;;;;;;;;;;;;;;;;;;
"gmw";;;"Windows 7";"Rachel's Experiment (D.T.)";"1.0";"2";"1";"1";"2";"1";"1";"2014-10-16 12:58:51.040";"2014-10-16 13:11:41.682";"1";"1";"1";"88";"87";"module.training_block3.exec-9387.GoNoGo3";;;;;;;;;;;;;;;;;;;;;;;;;;;;;;;;;;;;;;;;;;;;;;;"1261";"2014-10-16 13:04:05.428";"ST_correctStop";"32";"0";"FINISHED";"NONE";"success";"0";"1";"2014-10-16 13:04:04.164";"3";;;;;;;;;;;;;;;;;;;;;;;;;;;;;;;;;
"gmw";;;"Windows 7";"Rachel's Experiment (D.T.)";"1.0";"2";"1";"1";"2";"1";"1";"2014-10-16 12:58:51.040";"2014-10-16 13:11:41.682";"1";"1";"1";"89";"88";"module.training_block3.exec-9387.GoNoGo3";;;;;;;;;;;;;;;;;;;;;;;;;;;;;;;;;;;;;;;;;;;;;;;"1261";"2014-10-16 13:04:07.970";"NST_correctLoc";"10";"1";"FINISHED";"RIGHT";"success";"477";"0";"2014-10-16 13:04:06.707";"2";;;;;;;;;;;;;;;;;;;;;;;;;;;;;;;;;
"gmw";;;"Windows 7";"Rachel's Experiment (D.T.)";"1.0";"2";"1";"1";"2";"1";"1";"2014-10-16 12:58:51.040";"2014-10-16 13:11:41.682";"1";"1";"1";"90";"89";"module.training_block3.exec-9387.GoNoGo3";;;;;;;;;;;;;;;;;;;;;;;;;;;;;;;;;;;;;;;;;;;;;;;"1261";"2014-10-16 13:04:10.513";"NST_correctLoc";"12";"1";"FINISHED";"RIGHT";"success";"415";"0";"2014-10-16 13:04:09.250";"2";;;;;;;;;;;;;;;;;;;;;;;;;;;;;;;;;
"gmw";;;"Windows 7";"Rachel's Experiment (D.T.)";"1.0";"2";"1";"1";"2";"1";"1";"2014-10-16 12:58:51.040";"2014-10-16 13:11:41.682";"1";"1";"1";"91";"90";"module.training_block3.exec-9387.GoNoGo3";;;;;;;;;;;;;;;;;;;;;;;;;;;;;;;;;;;;;;;;;;;;;;;"1261";"2014-10-16 13:04:13.072";"NST_correctLoc";"20";"1";"FINISHED";"RIGHT";"success";"456";"0";"2014-10-16 13:04:11.808";"3";;;;;;;;;;;;;;;;;;;;;;;;;;;;;;;;;
"gmw";;;"Windows 7";"Rachel's Experiment (D.T.)";"1.0";"2";"1";"1";"2";"1";"1";"2014-10-16 12:58:51.040";"2014-10-16 13:11:41.682";"1";"1";"1";"92";"91";"module.training_block3.exec-9387.GoNoGo3";;;;;;;;;;;;;;;;;;;;;;;;;;;;;;;;;;;;;;;;;;;;;;;"1261";"2014-10-16 13:04:15.614";"ST_correctStop";"18";"0";"FINISHED";"NONE";"success";"0";"1";"2014-10-16 13:04:14.351";"3";;;;;;;;;;;;;;;;;;;;;;;;;;;;;;;;;
"gmw";;;"Windows 7";"Rachel's Experiment (D.T.)";"1.0";"2";"1";"1";"2";"1";"1";"2014-10-16 12:58:51.040";"2014-10-16 13:11:41.682";"1";"1";"1";"93";"92";"module.training_block3.exec-9387.GoNoGo3";;;;;;;;;;;;;;;;;;;;;;;;;;;;;;;;;;;;;;;;;;;;;;;"1261";"2014-10-16 13:04:18.173";"ST_correctStop";"1";"0";"FINISHED";"NONE";"success";"0";"1";"2014-10-16 13:04:16.909";"1";;;;;;;;;;;;;;;;;;;;;;;;;;;;;;;;;
"gmw";;;"Windows 7";"Rachel's Experiment (D.T.)";"1.0";"2";"1";"1";"2";"1";"1";"2014-10-16 12:58:51.040";"2014-10-16 13:11:41.682";"1";"1";"1";"94";"93";"module.training_block3.exec-9387.GoNoGo3";;;;;;;;;;;;;;;;;;;;;;;;;;;;;;;;;;;;;;;;;;;;;;;"1261";"2014-10-16 13:04:20.716";"NST_correctLoc";"28";"1";"FINISHED";"RIGHT";"success";"412";"0";"2014-10-16 13:04:19.452";"3";;;;;;;;;;;;;;;;;;;;;;;;;;;;;;;;;
"gmw";;;"Windows 7";"Rachel's Experiment (D.T.)";"1.0";"2";"1";"1";"2";"1";"1";"2014-10-16 12:58:51.040";"2014-10-16 13:11:41.682";"1";"1";"1";"95";"94";"module.training_block3.exec-9387.GoNoGo3";;;;;;;;;;;;;;;;;;;;;;;;;;;;;;;;;;;;;;;;;;;;;;;"1261";"2014-10-16 13:04:23.258";"ST_correctStop";"35";"1";"FINISHED";"NONE";"success";"0";"1";"2014-10-16 13:04:21.995";"3";;;;;;;;;;;;;;;;;;;;;;;;;;;;;;;;;
"gmw";;;"Windows 7";"Rachel's Experiment (D.T.)";"1.0";"2";"1";"1";"2";"1";"1";"2014-10-16 12:58:51.040";"2014-10-16 13:11:41.682";"1";"1";"1";"96";"95";"module.training_block3.exec-9387.GoNoGo3";;;;;;;;;;;;;;;;;;;;;;;;;;;;;;;;;;;;;;;;;;;;;;;"1262";"2014-10-16 13:04:25.801";"ST_correctStop";"3";"1";"FINISHED";"NONE";"success";"0";"1";"2014-10-16 13:04:24.538";"1";;;;;;;;;;;;;;;;;;;;;;;;;;;;;;;;;
"gmw";;;"Windows 7";"Rachel's Experiment (D.T.)";"1.0";"2";"1";"1";"2";"1";"1";"2014-10-16 12:58:51.040";"2014-10-16 13:11:41.682";"1";"1";"1";"97";"96";"module.training_block3.exec-9387.GoNoGo3";;;;;;;;;;;;;;;;;;;;;;;;;;;;;;;;;;;;;;;;;;;;;;;"1261";"2014-10-16 13:04:28.344";"ST_correctStop";"7";"1";"FINISHED";"NONE";"success";"0";"1";"2014-10-16 13:04:27.080";"1";;;;;;;;;;;;;;;;;;;;;;;;;;;;;;;;;
"gmw";;;"Windows 7";"Rachel's Experiment (D.T.)";"1.0";"2";"1";"1";"2";"1";"1";"2014-10-16 12:58:51.040";"2014-10-16 13:11:41.682";"1";"1";"1";"98";"97";"module.training_block3.exec-9387.GoNoGo3";;;;;;;;;;;;;;;;;;;;;;;;;;;;;;;;;;;;;;;;;;;;;;;"1262";"2014-10-16 13:04:30.871";"NST_correctLoc";"14";"1";"FINISHED";"RIGHT";"success";"433";"0";"2014-10-16 13:04:29.608";"2";;;;;;;;;;;;;;;;;;;;;;;;;;;;;;;;;
"gmw";;;"Windows 7";"Rachel's Experiment (D.T.)";"1.0";"2";"1";"1";"2";"1";"1";"2014-10-16 12:58:51.040";"2014-10-16 13:11:41.682";"1";"1";"1";"99";"98";"module.training_block3.exec-9387.GoNoGo3";;;;;;;;;;;;;;;;;;;;;;;;;;;;;;;;;;;;;;;;;;;;;;;"1261";"2014-10-16 13:04:33.414";"NST_correctLoc";"26";"0";"FINISHED";"LEFT";"success";"442";"0";"2014-10-16 13:04:32.150";"3";;;;;;;;;;;;;;;;;;;;;;;;;;;;;;;;;
"gmw";;;"Windows 7";"Rachel's Experiment (D.T.)";"1.0";"2";"1";"1";"2";"1";"1";"2014-10-16 12:58:51.040";"2014-10-16 13:11:41.682";"1";"1";"1";"100";"99";"module.training_block3.exec-9387.GoNoGo3";;;;;;;;;;;;;;;;;;;;;;;;;;;;;;;;;;;;;;;;;;;;;;;"1261";"2014-10-16 13:04:35.972";"ST_correctStop";"30";"0";"FINISHED";"NONE";"success";"0";"1";"2014-10-16 13:04:34.709";"3";;;;;;;;;;;;;;;;;;;;;;;;;;;;;;;;;
"gmw";;;"Windows 7";"Rachel's Experiment (D.T.)";"1.0";"2";"1";"1";"2";"1";"1";"2014-10-16 12:58:51.040";"2014-10-16 13:11:41.682";"1";"1";"1";"101";"100";"module.training_block3.exec-9387.GoNoGo3";;;;;;;;;;;;;;;;;;;;;;;;;;;;;;;;;;;;;;;;;;;;;;;"1261";"2014-10-16 13:04:38.515";"ST_correctStop";"27";"0";"FINISHED";"NONE";"success";"0";"1";"2014-10-16 13:04:37.252";"3";;;;;;;;;;;;;;;;;;;;;;;;;;;;;;;;;
"gmw";;;"Windows 7";"Rachel's Experiment (D.T.)";"1.0";"2";"1";"1";"2";"1";"1";"2014-10-16 12:58:51.040";"2014-10-16 13:11:41.682";"1";"1";"1";"102";"101";"module.training_block3.exec-9387.GoNoGo3";;;;;;;;;;;;;;;;;;;;;;;;;;;;;;;;;;;;;;;;;;;;;;;"1261";"2014-10-16 13:04:41.058";"ST_correctStop";"5";"0";"FINISHED";"NONE";"success";"0";"1";"2014-10-16 13:04:39.794";"1";;;;;;;;;;;;;;;;;;;;;;;;;;;;;;;;;
"gmw";;;"Windows 7";"Rachel's Experiment (D.T.)";"1.0";"2";"1";"1";"2";"1";"1";"2014-10-16 12:58:51.040";"2014-10-16 13:11:41.682";"1";"1";"1";"103";"102";"module.training_block3.exec-9387.GoNoGo3";;;;;;;;;;;;;;;;;;;;;;;;;;;;;;;;;;;;;;;;;;;;;;;"1262";"2014-10-16 13:04:43.601";"ST_correctStop";"6";"0";"FINISHED";"NONE";"success";"0";"1";"2014-10-16 13:04:42.337";"1";;;;;;;;;;;;;;;;;;;;;;;;;;;;;;;;;
"gmw";;;"Windows 7";"Rachel's Experiment (D.T.)";"1.0";"2";"1";"1";"2";"1";"1";"2014-10-16 12:58:51.040";"2014-10-16 13:11:41.682";"1";"1";"1";"104";"103";"module.training_block3.exec-9387.GoNoGo3";;;;;;;;;;;;;;;;;;;;;;;;;;;;;;;;;;;;;;;;;;;;;;;"1261";"2014-10-16 13:04:46.144";"ST_correctStop";"4";"1";"FINISHED";"NONE";"success";"0";"1";"2014-10-16 13:04:44.880";"1";;;;;;;;;;;;;;;;;;;;;;;;;;;;;;;;;
"gmw";;;"Windows 7";"Rachel's Experiment (D.T.)";"1.0";"2";"1";"1";"2";"1";"1";"2014-10-16 12:58:51.040";"2014-10-16 13:11:41.682";"1";"1";"1";"105";"104";"module.training_block3.exec-9387.GoNoGo3";;;;;;;;;;;;;;;;;;;;;;;;;;;;;;;;;;;;;;;;;;;;;;;"1261";"2014-10-16 13:04:48.686";"NST_correctLoc";"25";"0";"FINISHED";"LEFT";"success";"441";"0";"2014-10-16 13:04:47.423";"3";;;;;;;;;;;;;;;;;;;;;;;;;;;;;;;;;
"gmw";;;"Windows 7";"Rachel's Experiment (D.T.)";"1.0";"2";"1";"1";"2";"1";"1";"2014-10-16 12:58:51.040";"2014-10-16 13:11:41.682";"1";"1";"1";"106";"105";"module.training_block3.exec-9387.GoNoGo3";;;;;;;;;;;;;;;;;;;;;;;;;;;;;;;;;;;;;;;;;;;;;;;"1261";"2014-10-16 13:04:51.229";"ST_correctStop";"23";"0";"FINISHED";"NONE";"success";"0";"1";"2014-10-16 13:04:49.966";"3";;;;;;;;;;;;;;;;;;;;;;;;;;;;;;;;;
"gmw";;;"Windows 7";"Rachel's Experiment (D.T.)";"1.0";"2";"1";"1";"2";"1";"1";"2014-10-16 12:58:51.040";"2014-10-16 13:11:41.682";"1";"1";"1";"107";"106";"module.training_block3.exec-9387.GoNoGo3";;;;;;;;;;;;;;;;;;;;;;;;;;;;;;;;;;;;;;;;;;;;;;;"1261";"2014-10-16 13:04:53.788";"NST_correctLoc";"22";"0";"FINISHED";"LEFT";"success";"628";"0";"2014-10-16 13:04:52.524";"3";;;;;;;;;;;;;;;;;;;;;;;;;;;;;;;;;
"gmw";;;"Windows 7";"Rachel's Experiment (D.T.)";"1.0";"2";"1";"1";"2";"1";"1";"2014-10-16 12:58:51.040";"2014-10-16 13:11:41.682";"1";"1";"1";"108";"107";"module.training_block3.exec-9387.GoNoGo3";;;;;;;;;;;;;;;;;;;;;;;;;;;;;;;;;;;;;;;;;;;;;;;"1261";"2014-10-16 13:04:56.330";"ST_correctStop";"33";"0";"FINISHED";"NONE";"success";"0";"1";"2014-10-16 13:04:55.067";"3";;;;;;;;;;;;;;;;;;;;;;;;;;;;;;;;;
"gmw";;;"Windows 7";"Rachel's Experiment (D.T.)";"1.0";"2";"1";"1";"2";"1";"1";"2014-10-16 12:58:51.040";"2014-10-16 13:11:41.682";"1";"1";"1";"109";"108";"module.training_block3.exec-9387.GoNoGo3";;;;;;;;;;;;;;;;;;;;;;;;;;;;;;;;;;;;;;;;;;;;;;;"1262";"2014-10-16 13:04:58.889";"NST_correctLoc";"16";"1";"FINISHED";"RIGHT";"success";"423";"0";"2014-10-16 13:04:57.625";"2";;;;;;;;;;;;;;;;;;;;;;;;;;;;;;;;;
"gmw";;;"Windows 7";"Rachel's Experiment (D.T.)";"1.0";"2";"1";"1";"2";"1";"1";"2014-10-16 12:58:51.040";"2014-10-16 13:11:41.682";"1";"1";"1";"110";"109";"module.training_block3.exec-9387.GoNoGo3";;;;;;;;;;;;;;;;;;;;;;;;;;;;;;;;;;;;;;;;;;;;;;;"1261";"2014-10-16 13:05:01.432";"NST_correctLoc";"9";"1";"FINISHED";"RIGHT";"success";"472";"0";"2014-10-16 13:05:00.168";"2";;;;;;;;;;;;;;;;;;;;;;;;;;;;;;;;;
"gmw";;;"Windows 7";"Rachel's Experiment (D.T.)";"1.0";"2";"1";"1";"2";"1";"1";"2014-10-16 12:58:51.040";"2014-10-16 13:11:41.682";"1";"1";"1";"111";"110";"module.training_block3.exec-9387.GoNoGo3";;;;;;;;;;;;;;;;;;;;;;;;;;;;;;;;;;;;;;;;;;;;;;;"1261";"2014-10-16 13:05:03.974";"NST_correctLoc";"15";"1";"FINISHED";"RIGHT";"success";"393";"0";"2014-10-16 13:05:02.711";"2";;;;;;;;;;;;;;;;;;;;;;;;;;;;;;;;;
"gmw";;;"Windows 7";"Rachel's Experiment (D.T.)";"1.0";"2";"1";"1";"2";"1";"1";"2014-10-16 12:58:51.040";"2014-10-16 13:11:41.682";"1";"1";"1";"112";"111";"module.training_block3.exec-9387.GoNoGo3";;;;;;;;;;;;;;;;;;;;;;;;;;;;;;;;;;;;;;;;;;;;;;;"1261";"2014-10-16 13:05:06.502";"ST_correctStop";"0";"1";"FINISHED";"NONE";"success";"0";"1";"2014-10-16 13:05:05.238";"1";;;;;;;;;;;;;;;;;;;;;;;;;;;;;;;;;
"gmw";;;"Windows 7";"Rachel's Experiment (D.T.)";"1.0";"2";"1";"1";"2";"1";"1";"2014-10-16 12:58:51.040";"2014-10-16 13:11:41.682";"1";"1";"1";"113";"112";"module.training_block3.exec-9387.GoNoGo3";;;;;;;;;;;;;;;;;;;;;;;;;;;;;;;;;;;;;;;;;;;;;;;"1261";"2014-10-16 13:05:09.044";"NST_correctLoc";"21";"1";"FINISHED";"RIGHT";"success";"443";"0";"2014-10-16 13:05:07.781";"3";;;;;;;;;;;;;;;;;;;;;;;;;;;;;;;;;
"gmw";;;"Windows 7";"Rachel's Experiment (D.T.)";"1.0";"2";"1";"1";"2";"1";"1";"2014-10-16 12:58:51.040";"2014-10-16 13:11:41.682";"1";"1";"1";"114";"113";"module.training_block3.exec-9387.GoNoGo3";;;;;;;;;;;;;;;;;;;;;;;;;;;;;;;;;;;;;;;;;;;;;;;"1262";"2014-10-16 13:05:11.572";"NST_correctLoc";"34";"0";"FINISHED";"LEFT";"success";"508";"0";"2014-10-16 13:05:10.308";"3";;;;;;;;;;;;;;;;;;;;;;;;;;;;;;;;;
"gmw";;;"Windows 7";"Rachel's Experiment (D.T.)";"1.0";"2";"1";"1";"2";"1";"1";"2014-10-16 12:58:51.040";"2014-10-16 13:11:41.682";"1";"1";"1";"115";"114";"module.training_block3.exec-9387.GoNoGo3";;;;;;;;;;;;;;;;;;;;;;;;;;;;;;;;;;;;;;;;;;;;;;;"1261";"2014-10-16 13:05:14.115";"ST_correctStop";"24";"0";"FINISHED";"NONE";"success";"0";"1";"2014-10-16 13:05:12.851";"3";;;;;;;;;;;;;;;;;;;;;;;;;;;;;;;;;
"gmw";;;"Windows 7";"Rachel's Experiment (D.T.)";"1.0";"2";"1";"1";"2";"1";"1";"2014-10-16 12:58:51.040";"2014-10-16 13:11:41.682";"1";"1";"1";"116";"115";"module.training_block3.exec-9387.GoNoGo3";;;;;;;;;;;;;;;;;;;;;;;;;;;;;;;;;;;;;;;;;;;;;;;"1262";"2014-10-16 13:05:16.657";"NST_correctLoc";"13";"0";"FINISHED";"LEFT";"success";"350";"0";"2014-10-16 13:05:15.394";"2";;;;;;;;;;;;;;;;;;;;;;;;;;;;;;;;;
"gmw";;;"Windows 7";"Rachel's Experiment (D.T.)";"1.0";"2";"1";"1";"2";"1";"1";"2014-10-16 12:58:51.040";"2014-10-16 13:11:41.682";"1";"1";"1";"117";"116";"module.training_block3.exec-9387.GoNoGo3";;;;;;;;;;;;;;;;;;;;;;;;;;;;;;;;;;;;;;;;;;;;;;;"1261";"2014-10-16 13:05:19.185";"ST_failedStop";"8";"1";"FINISHED";"RIGHT";"failure";"335";"1";"2014-10-16 13:05:17.921";"1";;;;;;;;;;;;;;;;;;;;;;;;;;;;;;;;;
"gmw";;;"Windows 7";"Rachel's Experiment (D.T.)";"1.0";"2";"1";"1";"2";"1";"1";"2014-10-16 12:58:51.040";"2014-10-16 13:11:41.682";"1";"1";"1";"118";"117";"module.training_block3.exec-9387.GoNoGo3";;;;;;;;;;;;;;;;;;;;;;;;;;;;;;;;;;;;;;;;;;;;;;;"1261";"2014-10-16 13:05:21.712";"NST_correctLoc";"17";"1";"FINISHED";"RIGHT";"success";"432";"0";"2014-10-16 13:05:20.448";"2";;;;;;;;;;;;;;;;;;;;;;;;;;;;;;;;;
"gmw";;;"Windows 7";"Rachel's Experiment (D.T.)";"1.0";"2";"1";"1";"2";"1";"1";"2014-10-16 12:58:51.040";"2014-10-16 13:11:41.682";"1";"1";"1";"119";"118";"module.training_block3.exec-9387.GoNoGo3";;;;;;;;;;;;;;;;;;;;;;;;;;;;;;;;;;;;;;;;;;;;;;;"1262";"2014-10-16 13:05:24.239";"NST_correctLoc";"31";"1";"FINISHED";"RIGHT";"success";"401";"0";"2014-10-16 13:05:22.975";"3";;;;;;;;;;;;;;;;;;;;;;;;;;;;;;;;;
"gmw";;;"Windows 7";"Rachel's Experiment (D.T.)";"1.0";"2";"1";"1";"2";"1";"1";"2014-10-16 12:58:51.040";"2014-10-16 13:11:41.682";"1";"1";"1";"120";"119";"module.training_block3.exec-9387.GoNoGo3";;;;;;;;;;;;;;;;;;;;;;;;;;;;;;;;;;;;;;;;;;;;;;;"1261";"2014-10-16 13:05:26.782";"NST_correctLoc";"19";"1";"FINISHED";"RIGHT";"success";"410";"0";"2014-10-16 13:05:25.518";"3";;;;;;;;;;;;;;;;;;;;;;;;;;;;;;;;;
"gmw";;;"Windows 7";"Rachel's Experiment (D.T.)";"1.0";"2";"1";"1";"2";"1";"1";"2014-10-16 12:58:51.040";"2014-10-16 13:11:41.682";"1";"1";"1";"121";"120";"module.training_block3.exec-9387.GoNoGo3";;;;;;;;;;;;;;;;;;;;;;;;;;;;;;;;;;;;;;;;;;;;;;;"1261";"2014-10-16 13:05:29.325";"NST_correctLoc";"11";"1";"FINISHED";"RIGHT";"success";"451";"0";"2014-10-16 13:05:28.061";"2";;;;;;;;;;;;;;;;;;;;;;;;;;;;;;;;;
"gmw";;;"Windows 7";"Rachel's Experiment (D.T.)";"1.0";"2";"1";"1";"2";"1";"1";"2014-10-16 12:58:51.040";"2014-10-16 13:11:41.682";"1";"1";"1";"122";"121";"module.training_block3.exec-9387.GoNoGo3";;;;;;;;;;;;;;;;;;;;;;;;;;;;;;;;;;;;;;;;;;;;;;;"1261";"2014-10-16 13:05:31.852";"ST_correctStop";"2";"0";"FINISHED";"NONE";"success";"0";"1";"2014-10-16 13:05:30.588";"1";;;;;;;;;;;;;;;;;;;;;;;;;;;;;;;;;
"gmw";;;"Windows 7";"Rachel's Experiment (D.T.)";"1.0";"2";"1";"1";"2";"1";"1";"2014-10-16 12:58:51.040";"2014-10-16 13:11:41.682";"1";"1";"1";"123";"122";"module.training_block3.exec-9387.GoNoGo3";;;;;;;;;;;;;;;;;;;;;;;;;;;;;;;;;;;;;;;;;;;;;;;"1261";"2014-10-16 13:05:34.379";"ST_correctStop";"29";"1";"FINISHED";"NONE";"success";"0";"1";"2014-10-16 13:05:33.115";"3";;;;;;;;;;;;;;;;;;;;;;;;;;;;;;;;;
"gmw";;;"Windows 7";"Rachel's Experiment (D.T.)";"1.0";"2";"1";"1";"2";"1";"1";"2014-10-16 12:58:51.040";"2014-10-16 13:11:41.682";"1";"1";"1";"124";"123";"module.training_block4.exec-4848.GoNoGo4";;;;;;;;;;;;;;;;;;;;;;;;;;;;;;;;;;;;;;;;;;;;;;;;;;;;;;;;;;;"1261";"2014-10-16 13:05:44.613";"ST_correctStop";"21";"1";"FINISHED";"NONE";"success";"0";"1";"2014-10-16 13:05:43.349";"3";;;;;;;;;;;;;;;;;;;;;
"gmw";;;"Windows 7";"Rachel's Experiment (D.T.)";"1.0";"2";"1";"1";"2";"1";"1";"2014-10-16 12:58:51.040";"2014-10-16 13:11:41.682";"1";"1";"1";"125";"124";"module.training_block4.exec-4848.GoNoGo4";;;;;;;;;;;;;;;;;;;;;;;;;;;;;;;;;;;;;;;;;;;;;;;;;;;;;;;;;;;"1261";"2014-10-16 13:05:47.171";"NST_correctLoc";"16";"1";"FINISHED";"RIGHT";"success";"492";"0";"2014-10-16 13:05:45.907";"2";;;;;;;;;;;;;;;;;;;;;
"gmw";;;"Windows 7";"Rachel's Experiment (D.T.)";"1.0";"2";"1";"1";"2";"1";"1";"2014-10-16 12:58:51.040";"2014-10-16 13:11:41.682";"1";"1";"1";"126";"125";"module.training_block4.exec-4848.GoNoGo4";;;;;;;;;;;;;;;;;;;;;;;;;;;;;;;;;;;;;;;;;;;;;;;;;;;;;;;;;;;"1262";"2014-10-16 13:05:49.698";"NST_correctLoc";"9";"0";"FINISHED";"LEFT";"success";"381";"0";"2014-10-16 13:05:48.435";"2";;;;;;;;;;;;;;;;;;;;;
"gmw";;;"Windows 7";"Rachel's Experiment (D.T.)";"1.0";"2";"1";"1";"2";"1";"1";"2014-10-16 12:58:51.040";"2014-10-16 13:11:41.682";"1";"1";"1";"127";"126";"module.training_block4.exec-4848.GoNoGo4";;;;;;;;;;;;;;;;;;;;;;;;;;;;;;;;;;;;;;;;;;;;;;;;;;;;;;;;;;;"1261";"2014-10-16 13:05:52.241";"ST_correctStop";"18";"1";"FINISHED";"NONE";"success";"0";"1";"2014-10-16 13:05:50.977";"3";;;;;;;;;;;;;;;;;;;;;
"gmw";;;"Windows 7";"Rachel's Experiment (D.T.)";"1.0";"2";"1";"1";"2";"1";"1";"2014-10-16 12:58:51.040";"2014-10-16 13:11:41.682";"1";"1";"1";"128";"127";"module.training_block4.exec-4848.GoNoGo4";;;;;;;;;;;;;;;;;;;;;;;;;;;;;;;;;;;;;;;;;;;;;;;;;;;;;;;;;;;"1262";"2014-10-16 13:05:54.768";"ST_correctStop";"32";"1";"FINISHED";"NONE";"success";"0";"1";"2014-10-16 13:05:53.505";"3";;;;;;;;;;;;;;;;;;;;;
"gmw";;;"Windows 7";"Rachel's Experiment (D.T.)";"1.0";"2";"1";"1";"2";"1";"1";"2014-10-16 12:58:51.040";"2014-10-16 13:11:41.682";"1";"1";"1";"129";"128";"module.training_block4.exec-4848.GoNoGo4";;;;;;;;;;;;;;;;;;;;;;;;;;;;;;;;;;;;;;;;;;;;;;;;;;;;;;;;;;;"1261";"2014-10-16 13:05:57.295";"ST_correctStop";"5";"1";"FINISHED";"NONE";"success";"0";"1";"2014-10-16 13:05:56.032";"1";;;;;;;;;;;;;;;;;;;;;
"gmw";;;"Windows 7";"Rachel's Experiment (D.T.)";"1.0";"2";"1";"1";"2";"1";"1";"2014-10-16 12:58:51.040";"2014-10-16 13:11:41.682";"1";"1";"1";"130";"129";"module.training_block4.exec-4848.GoNoGo4";;;;;;;;;;;;;;;;;;;;;;;;;;;;;;;;;;;;;;;;;;;;;;;;;;;;;;;;;;;"1261";"2014-10-16 13:05:59.823";"ST_correctStop";"3";"1";"FINISHED";"NONE";"success";"0";"1";"2014-10-16 13:05:58.559";"1";;;;;;;;;;;;;;;;;;;;;
"gmw";;;"Windows 7";"Rachel's Experiment (D.T.)";"1.0";"2";"1";"1";"2";"1";"1";"2014-10-16 12:58:51.040";"2014-10-16 13:11:41.682";"1";"1";"1";"131";"130";"module.training_block4.exec-4848.GoNoGo4";;;;;;;;;;;;;;;;;;;;;;;;;;;;;;;;;;;;;;;;;;;;;;;;;;;;;;;;;;;"1261";"2014-10-16 13:06:02.350";"NST_correctLoc";"22";"0";"FINISHED";"LEFT";"success";"361";"0";"2014-10-16 13:06:01.086";"3";;;;;;;;;;;;;;;;;;;;;
"gmw";;;"Windows 7";"Rachel's Experiment (D.T.)";"1.0";"2";"1";"1";"2";"1";"1";"2014-10-16 12:58:51.040";"2014-10-16 13:11:41.682";"1";"1";"1";"132";"131";"module.training_block4.exec-4848.GoNoGo4";;;;;;;;;;;;;;;;;;;;;;;;;;;;;;;;;;;;;;;;;;;;;;;;;;;;;;;;;;;"1262";"2014-10-16 13:06:04.877";"NST_correctLoc";"27";"0";"FINISHED";"LEFT";"success";"458";"0";"2014-10-16 13:06:03.613";"3";;;;;;;;;;;;;;;;;;;;;
"gmw";;;"Windows 7";"Rachel's Experiment (D.T.)";"1.0";"2";"1";"1";"2";"1";"1";"2014-10-16 12:58:51.040";"2014-10-16 13:11:41.682";"1";"1";"1";"133";"132";"module.training_block4.exec-4848.GoNoGo4";;;;;;;;;;;;;;;;;;;;;;;;;;;;;;;;;;;;;;;;;;;;;;;;;;;;;;;;;;;"1261";"2014-10-16 13:06:07.404";"NST_correctLoc";"31";"0";"FINISHED";"LEFT";"success";"347";"0";"2014-10-16 13:06:06.141";"3";;;;;;;;;;;;;;;;;;;;;
"gmw";;;"Windows 7";"Rachel's Experiment (D.T.)";"1.0";"2";"1";"1";"2";"1";"1";"2014-10-16 12:58:51.040";"2014-10-16 13:11:41.682";"1";"1";"1";"134";"133";"module.training_block4.exec-4848.GoNoGo4";;;;;;;;;;;;;;;;;;;;;;;;;;;;;;;;;;;;;;;;;;;;;;;;;;;;;;;;;;;"1257";"2014-10-16 13:06:09.931";"ST_correctStop";"19";"0";"FINISHED";"NONE";"success";"0";"1";"2014-10-16 13:06:08.668";"3";;;;;;;;;;;;;;;;;;;;;
"gmw";;;"Windows 7";"Rachel's Experiment (D.T.)";"1.0";"2";"1";"1";"2";"1";"1";"2014-10-16 12:58:51.040";"2014-10-16 13:11:41.682";"1";"1";"1";"135";"134";"module.training_block4.exec-4848.GoNoGo4";;;;;;;;;;;;;;;;;;;;;;;;;;;;;;;;;;;;;;;;;;;;;;;;;;;;;;;;;;;"1261";"2014-10-16 13:06:12.474";"ST_failedStop";"7";"1";"FINISHED";"RIGHT";"failure";"397";"1";"2014-10-16 13:06:11.211";"1";;;;;;;;;;;;;;;;;;;;;
"gmw";;;"Windows 7";"Rachel's Experiment (D.T.)";"1.0";"2";"1";"1";"2";"1";"1";"2014-10-16 12:58:51.040";"2014-10-16 13:11:41.682";"1";"1";"1";"136";"135";"module.training_block4.exec-4848.GoNoGo4";;;;;;;;;;;;;;;;;;;;;;;;;;;;;;;;;;;;;;;;;;;;;;;;;;;;;;;;;;;"1262";"2014-10-16 13:06:15.001";"ST_correctStop";"24";"1";"FINISHED";"NONE";"success";"0";"1";"2014-10-16 13:06:13.738";"3";;;;;;;;;;;;;;;;;;;;;
"gmw";;;"Windows 7";"Rachel's Experiment (D.T.)";"1.0";"2";"1";"1";"2";"1";"1";"2014-10-16 12:58:51.040";"2014-10-16 13:11:41.682";"1";"1";"1";"137";"136";"module.training_block4.exec-4848.GoNoGo4";;;;;;;;;;;;;;;;;;;;;;;;;;;;;;;;;;;;;;;;;;;;;;;;;;;;;;;;;;;"1262";"2014-10-16 13:06:17.529";"ST_correctStop";"35";"0";"FINISHED";"NONE";"success";"0";"1";"2014-10-16 13:06:16.265";"3";;;;;;;;;;;;;;;;;;;;;
"gmw";;;"Windows 7";"Rachel's Experiment (D.T.)";"1.0";"2";"1";"1";"2";"1";"1";"2014-10-16 12:58:51.040";"2014-10-16 13:11:41.682";"1";"1";"1";"138";"137";"module.training_block4.exec-4848.GoNoGo4";;;;;;;;;;;;;;;;;;;;;;;;;;;;;;;;;;;;;;;;;;;;;;;;;;;;;;;;;;;"1261";"2014-10-16 13:06:20.056";"NST_correctLoc";"15";"0";"FINISHED";"LEFT";"success";"423";"0";"2014-10-16 13:06:18.792";"2";;;;;;;;;;;;;;;;;;;;;
"gmw";;;"Windows 7";"Rachel's Experiment (D.T.)";"1.0";"2";"1";"1";"2";"1";"1";"2014-10-16 12:58:51.040";"2014-10-16 13:11:41.682";"1";"1";"1";"139";"138";"module.training_block4.exec-4848.GoNoGo4";;;;;;;;;;;;;;;;;;;;;;;;;;;;;;;;;;;;;;;;;;;;;;;;;;;;;;;;;;;"1262";"2014-10-16 13:06:22.583";"NST_correctLoc";"10";"1";"FINISHED";"RIGHT";"success";"432";"0";"2014-10-16 13:06:21.319";"2";;;;;;;;;;;;;;;;;;;;;
"gmw";;;"Windows 7";"Rachel's Experiment (D.T.)";"1.0";"2";"1";"1";"2";"1";"1";"2014-10-16 12:58:51.040";"2014-10-16 13:11:41.682";"1";"1";"1";"140";"139";"module.training_block4.exec-4848.GoNoGo4";;;;;;;;;;;;;;;;;;;;;;;;;;;;;;;;;;;;;;;;;;;;;;;;;;;;;;;;;;;"1261";"2014-10-16 13:06:25.110";"NST_correctLoc";"12";"0";"FINISHED";"LEFT";"success";"449";"0";"2014-10-16 13:06:23.847";"2";;;;;;;;;;;;;;;;;;;;;
"gmw";;;"Windows 7";"Rachel's Experiment (D.T.)";"1.0";"2";"1";"1";"2";"1";"1";"2014-10-16 12:58:51.040";"2014-10-16 13:11:41.682";"1";"1";"1";"141";"140";"module.training_block4.exec-4848.GoNoGo4";;;;;;;;;;;;;;;;;;;;;;;;;;;;;;;;;;;;;;;;;;;;;;;;;;;;;;;;;;;"1262";"2014-10-16 13:06:27.637";"ST_correctStop";"1";"0";"FINISHED";"NONE";"success";"0";"1";"2014-10-16 13:06:26.374";"1";;;;;;;;;;;;;;;;;;;;;
"gmw";;;"Windows 7";"Rachel's Experiment (D.T.)";"1.0";"2";"1";"1";"2";"1";"1";"2014-10-16 12:58:51.040";"2014-10-16 13:11:41.682";"1";"1";"1";"142";"141";"module.training_block4.exec-4848.GoNoGo4";;;;;;;;;;;;;;;;;;;;;;;;;;;;;;;;;;;;;;;;;;;;;;;;;;;;;;;;;;;"1261";"2014-10-16 13:06:30.165";"ST_correctStop";"8";"1";"FINISHED";"NONE";"success";"0";"1";"2014-10-16 13:06:28.901";"1";;;;;;;;;;;;;;;;;;;;;
"gmw";;;"Windows 7";"Rachel's Experiment (D.T.)";"1.0";"2";"1";"1";"2";"1";"1";"2014-10-16 12:58:51.040";"2014-10-16 13:11:41.682";"1";"1";"1";"143";"142";"module.training_block4.exec-4848.GoNoGo4";;;;;;;;;;;;;;;;;;;;;;;;;;;;;;;;;;;;;;;;;;;;;;;;;;;;;;;;;;;"1262";"2014-10-16 13:06:32.707";"ST_correctStop";"0";"0";"FINISHED";"NONE";"success";"0";"1";"2014-10-16 13:06:31.444";"1";;;;;;;;;;;;;;;;;;;;;
"gmw";;;"Windows 7";"Rachel's Experiment (D.T.)";"1.0";"2";"1";"1";"2";"1";"1";"2014-10-16 12:58:51.040";"2014-10-16 13:11:41.682";"1";"1";"1";"144";"143";"module.training_block4.exec-4848.GoNoGo4";;;;;;;;;;;;;;;;;;;;;;;;;;;;;;;;;;;;;;;;;;;;;;;;;;;;;;;;;;;"1261";"2014-10-16 13:06:35.235";"NST_correctLoc";"17";"1";"FINISHED";"RIGHT";"success";"460";"0";"2014-10-16 13:06:33.971";"2";;;;;;;;;;;;;;;;;;;;;
"gmw";;;"Windows 7";"Rachel's Experiment (D.T.)";"1.0";"2";"1";"1";"2";"1";"1";"2014-10-16 12:58:51.040";"2014-10-16 13:11:41.682";"1";"1";"1";"145";"144";"module.training_block4.exec-4848.GoNoGo4";;;;;;;;;;;;;;;;;;;;;;;;;;;;;;;;;;;;;;;;;;;;;;;;;;;;;;;;;;;"1261";"2014-10-16 13:06:37.762";"ST_correctStop";"4";"0";"FINISHED";"NONE";"success";"0";"1";"2014-10-16 13:06:36.498";"1";;;;;;;;;;;;;;;;;;;;;
"gmw";;;"Windows 7";"Rachel's Experiment (D.T.)";"1.0";"2";"1";"1";"2";"1";"1";"2014-10-16 12:58:51.040";"2014-10-16 13:11:41.682";"1";"1";"1";"146";"145";"module.training_block4.exec-4848.GoNoGo4";;;;;;;;;;;;;;;;;;;;;;;;;;;;;;;;;;;;;;;;;;;;;;;;;;;;;;;;;;;"1261";"2014-10-16 13:06:40.289";"NST_correctLoc";"33";"0";"FINISHED";"LEFT";"success";"630";"0";"2014-10-16 13:06:39.025";"3";;;;;;;;;;;;;;;;;;;;;
"gmw";;;"Windows 7";"Rachel's Experiment (D.T.)";"1.0";"2";"1";"1";"2";"1";"1";"2014-10-16 12:58:51.040";"2014-10-16 13:11:41.682";"1";"1";"1";"147";"146";"module.training_block4.exec-4848.GoNoGo4";;;;;;;;;;;;;;;;;;;;;;;;;;;;;;;;;;;;;;;;;;;;;;;;;;;;;;;;;;;"1262";"2014-10-16 13:06:42.816";"NST_correctLoc";"13";"0";"FINISHED";"LEFT";"success";"431";"0";"2014-10-16 13:06:41.553";"2";;;;;;;;;;;;;;;;;;;;;
"gmw";;;"Windows 7";"Rachel's Experiment (D.T.)";"1.0";"2";"1";"1";"2";"1";"1";"2014-10-16 12:58:51.040";"2014-10-16 13:11:41.682";"1";"1";"1";"148";"147";"module.training_block4.exec-4848.GoNoGo4";;;;;;;;;;;;;;;;;;;;;;;;;;;;;;;;;;;;;;;;;;;;;;;;;;;;;;;;;;;"1261";"2014-10-16 13:06:45.343";"NST_correctLoc";"29";"0";"FINISHED";"LEFT";"success";"415";"0";"2014-10-16 13:06:44.080";"3";;;;;;;;;;;;;;;;;;;;;
"gmw";;;"Windows 7";"Rachel's Experiment (D.T.)";"1.0";"2";"1";"1";"2";"1";"1";"2014-10-16 12:58:51.040";"2014-10-16 13:11:41.682";"1";"1";"1";"149";"148";"module.training_block4.exec-4848.GoNoGo4";;;;;;;;;;;;;;;;;;;;;;;;;;;;;;;;;;;;;;;;;;;;;;;;;;;;;;;;;;;"1262";"2014-10-16 13:06:47.871";"NST_correctLoc";"14";"1";"FINISHED";"RIGHT";"success";"336";"0";"2014-10-16 13:06:46.607";"2";;;;;;;;;;;;;;;;;;;;;
"gmw";;;"Windows 7";"Rachel's Experiment (D.T.)";"1.0";"2";"1";"1";"2";"1";"1";"2014-10-16 12:58:51.040";"2014-10-16 13:11:41.682";"1";"1";"1";"150";"149";"module.training_block4.exec-4848.GoNoGo4";;;;;;;;;;;;;;;;;;;;;;;;;;;;;;;;;;;;;;;;;;;;;;;;;;;;;;;;;;;"1262";"2014-10-16 13:06:50.398";"ST_correctStop";"23";"0";"FINISHED";"NONE";"success";"0";"1";"2014-10-16 13:06:49.134";"3";;;;;;;;;;;;;;;;;;;;;
"gmw";;;"Windows 7";"Rachel's Experiment (D.T.)";"1.0";"2";"1";"1";"2";"1";"1";"2014-10-16 12:58:51.040";"2014-10-16 13:11:41.682";"1";"1";"1";"151";"150";"module.training_block4.exec-4848.GoNoGo4";;;;;;;;;;;;;;;;;;;;;;;;;;;;;;;;;;;;;;;;;;;;;;;;;;;;;;;;;;;"1261";"2014-10-16 13:06:52.941";"NST_correctLoc";"11";"1";"FINISHED";"RIGHT";"success";"402";"0";"2014-10-16 13:06:51.677";"2";;;;;;;;;;;;;;;;;;;;;
"gmw";;;"Windows 7";"Rachel's Experiment (D.T.)";"1.0";"2";"1";"1";"2";"1";"1";"2014-10-16 12:58:51.040";"2014-10-16 13:11:41.682";"1";"1";"1";"152";"151";"module.training_block4.exec-4848.GoNoGo4";;;;;;;;;;;;;;;;;;;;;;;;;;;;;;;;;;;;;;;;;;;;;;;;;;;;;;;;;;;"1262";"2014-10-16 13:06:55.468";"ST_correctStop";"2";"0";"FINISHED";"NONE";"success";"0";"1";"2014-10-16 13:06:54.204";"1";;;;;;;;;;;;;;;;;;;;;
"gmw";;;"Windows 7";"Rachel's Experiment (D.T.)";"1.0";"2";"1";"1";"2";"1";"1";"2014-10-16 12:58:51.040";"2014-10-16 13:11:41.682";"1";"1";"1";"153";"152";"module.training_block4.exec-4848.GoNoGo4";;;;;;;;;;;;;;;;;;;;;;;;;;;;;;;;;;;;;;;;;;;;;;;;;;;;;;;;;;;"1261";"2014-10-16 13:06:57.995";"ST_correctStop";"6";"0";"FINISHED";"NONE";"success";"0";"1";"2014-10-16 13:06:56.731";"1";;;;;;;;;;;;;;;;;;;;;
"gmw";;;"Windows 7";"Rachel's Experiment (D.T.)";"1.0";"2";"1";"1";"2";"1";"1";"2014-10-16 12:58:51.040";"2014-10-16 13:11:41.682";"1";"1";"1";"154";"153";"module.training_block4.exec-4848.GoNoGo4";;;;;;;;;;;;;;;;;;;;;;;;;;;;;;;;;;;;;;;;;;;;;;;;;;;;;;;;;;;"1261";"2014-10-16 13:07:00.522";"ST_correctStop";"28";"0";"FINISHED";"NONE";"success";"0";"1";"2014-10-16 13:06:59.259";"3";;;;;;;;;;;;;;;;;;;;;
"gmw";;;"Windows 7";"Rachel's Experiment (D.T.)";"1.0";"2";"1";"1";"2";"1";"1";"2014-10-16 12:58:51.040";"2014-10-16 13:11:41.682";"1";"1";"1";"155";"154";"module.training_block4.exec-4848.GoNoGo4";;;;;;;;;;;;;;;;;;;;;;;;;;;;;;;;;;;;;;;;;;;;;;;;;;;;;;;;;;;"1262";"2014-10-16 13:07:03.049";"NST_correctLoc";"30";"0";"FINISHED";"LEFT";"success";"429";"0";"2014-10-16 13:07:01.786";"3";;;;;;;;;;;;;;;;;;;;;
"gmw";;;"Windows 7";"Rachel's Experiment (D.T.)";"1.0";"2";"1";"1";"2";"1";"1";"2014-10-16 12:58:51.040";"2014-10-16 13:11:41.682";"1";"1";"1";"156";"155";"module.training_block4.exec-4848.GoNoGo4";;;;;;;;;;;;;;;;;;;;;;;;;;;;;;;;;;;;;;;;;;;;;;;;;;;;;;;;;;;"1262";"2014-10-16 13:07:05.577";"NST_correctLoc";"34";"1";"FINISHED";"RIGHT";"success";"462";"0";"2014-10-16 13:07:04.313";"3";;;;;;;;;;;;;;;;;;;;;
"gmw";;;"Windows 7";"Rachel's Experiment (D.T.)";"1.0";"2";"1";"1";"2";"1";"1";"2014-10-16 12:58:51.040";"2014-10-16 13:11:41.682";"1";"1";"1";"157";"156";"module.training_block4.exec-4848.GoNoGo4";;;;;;;;;;;;;;;;;;;;;;;;;;;;;;;;;;;;;;;;;;;;;;;;;;;;;;;;;;;"1262";"2014-10-16 13:07:08.104";"ST_correctStop";"20";"0";"FINISHED";"NONE";"success";"0";"1";"2014-10-16 13:07:06.840";"3";;;;;;;;;;;;;;;;;;;;;
"gmw";;;"Windows 7";"Rachel's Experiment (D.T.)";"1.0";"2";"1";"1";"2";"1";"1";"2014-10-16 12:58:51.040";"2014-10-16 13:11:41.682";"1";"1";"1";"158";"157";"module.training_block4.exec-4848.GoNoGo4";;;;;;;;;;;;;;;;;;;;;;;;;;;;;;;;;;;;;;;;;;;;;;;;;;;;;;;;;;;"1262";"2014-10-16 13:07:10.631";"NST_correctLoc";"26";"1";"FINISHED";"RIGHT";"success";"432";"0";"2014-10-16 13:07:09.368";"3";;;;;;;;;;;;;;;;;;;;;
"gmw";;;"Windows 7";"Rachel's Experiment (D.T.)";"1.0";"2";"1";"1";"2";"1";"1";"2014-10-16 12:58:51.040";"2014-10-16 13:11:41.682";"1";"1";"1";"159";"158";"module.training_block4.exec-4848.GoNoGo4";;;;;;;;;;;;;;;;;;;;;;;;;;;;;;;;;;;;;;;;;;;;;;;;;;;;;;;;;;;"1257";"2014-10-16 13:07:13.174";"NST_correctLoc";"25";"0";"FINISHED";"LEFT";"success";"389";"0";"2014-10-16 13:07:11.910";"3";;;;;;;;;;;;;;;;;;;;;
"gmw";;;"Windows 7";"Rachel's Experiment (D.T.)";"1.0";"2";"1";"1";"2";"1";"1";"2014-10-16 12:58:51.040";"2014-10-16 13:11:41.682";"1";"1";"1";"160";"159";"module.devaluation_practice.exec-1670.devalPractice";;;;;;;;;;;;"12142";"2014-10-16 13:07:50.770";"0";"7";"5";"8";"2266";"2080";"4749";"2014-10-16 13:07:38.633";;;;;;;;;;;;;;;;;;;;;;;;;;;;;;;;;;;;;;;;;;;;;;;;;;;;;;;;;;;;;;;;;;;;;;
"gmw";;;"Windows 7";"Rachel's Experiment (D.T.)";"1.0";"2";"1";"1";"2";"1";"1";"2014-10-16 12:58:51.040";"2014-10-16 13:11:41.682";"1";"1";"1";"161";"160";"module.devaluation_practice.exec-1670.devalPractice";;;;;;;;;;;;"6452";"2014-10-16 13:07:57.244";"1";"7";"5";"7";"1369";"415";"1648";"2014-10-16 13:07:50.801";;;;;;;;;;;;;;;;;;;;;;;;;;;;;;;;;;;;;;;;;;;;;;;;;;;;;;;;;;;;;;;;;;;;;;
"gmw";;;"Windows 7";"Rachel's Experiment (D.T.)";"1.0";"2";"1";"1";"2";"1";"1";"2014-10-16 12:58:51.040";"2014-10-16 13:11:41.682";"1";"1";"1";"162";"161";"module.devaluation_practice.exec-1670.devalPractice";;;;;;;;;;;;"7829";"2014-10-16 13:08:05.091";"2";"9";"7";"9";"1410";"2585";"798";"2014-10-16 13:07:57.275";;;;;;;;;;;;;;;;;;;;;;;;;;;;;;;;;;;;;;;;;;;;;;;;;;;;;;;;;;;;;;;;;;;;;;
"gmw";;;"Windows 7";"Rachel's Experiment (D.T.)";"1.0";"2";"1";"1";"2";"1";"1";"2014-10-16 12:58:51.040";"2014-10-16 13:11:41.682";"1";"1";"1";"163";"162";"module.devaluation_practice.exec-1670.devalPractice";;;;;;;;;;;;"4941";"2014-10-16 13:08:10.052";"3";"7";"5";"7";"616";"307";"983";"2014-10-16 13:08:05.122";;;;;;;;;;;;;;;;;;;;;;;;;;;;;;;;;;;;;;;;;;;;;;;;;;;;;;;;;;;;;;;;;;;;;;
"gmw";;;"Windows 7";"Rachel's Experiment (D.T.)";"1.0";"2";"1";"1";"2";"1";"1";"2014-10-16 12:58:51.040";"2014-10-16 13:11:41.682";"1";"1";"1";"164";"163";"module.devaluation_block1.exec-9745.deval1";"8678";"2014-10-16 13:08:22.454";"23";"7";"5";"8";"2684";"726";"2239";"2014-10-16 13:08:13.780";"3";;;;;;;;;;;;;;;;;;;;;;;;;;;;;;;;;;;;;;;;;;;;;;;;;;;;;;;;;;;;;;;;;;;;;;;;;;;;;;;;
"gmw";;;"Windows 7";"Rachel's Experiment (D.T.)";"1.0";"2";"1";"1";"2";"1";"1";"2014-10-16 12:58:51.040";"2014-10-16 13:11:41.682";"1";"1";"1";"165";"164";"module.devaluation_block1.exec-9745.deval1";"13213";"2014-10-16 13:08:35.698";"9";"6";"1";"6";"1132";"7304";"1758";"2014-10-16 13:08:22.485";"2";;;;;;;;;;;;;;;;;;;;;;;;;;;;;;;;;;;;;;;;;;;;;;;;;;;;;;;;;;;;;;;;;;;;;;;;;;;;;;;;
"gmw";;;"Windows 7";"Rachel's Experiment (D.T.)";"1.0";"2";"1";"1";"2";"1";"1";"2014-10-16 12:58:51.040";"2014-10-16 13:11:41.682";"1";"1";"1";"166";"165";"module.devaluation_block1.exec-9745.deval1";"6910";"2014-10-16 13:08:42.624";"3";"7";"7";"5";"1047";"2407";"423";"2014-10-16 13:08:35.714";"1";;;;;;;;;;;;;;;;;;;;;;;;;;;;;;;;;;;;;;;;;;;;;;;;;;;;;;;;;;;;;;;;;;;;;;;;;;;;;;;;
"gmw";;;"Windows 7";"Rachel's Experiment (D.T.)";"1.0";"2";"1";"1";"2";"1";"1";"2014-10-16 12:58:51.040";"2014-10-16 13:11:41.682";"1";"1";"1";"167";"166";"module.devaluation_block1.exec-9745.deval1";"10193";"2014-10-16 13:08:52.842";"4";"9";"4";"9";"851";"2920";"3390";"2014-10-16 13:08:42.640";"1";;;;;;;;;;;;;;;;;;;;;;;;;;;;;;;;;;;;;;;;;;;;;;;;;;;;;;;;;;;;;;;;;;;;;;;;;;;;;;;;
"gmw";;;"Windows 7";"Rachel's Experiment (D.T.)";"1.0";"2";"1";"1";"2";"1";"1";"2014-10-16 12:58:51.040";"2014-10-16 13:11:41.682";"1";"1";"1";"168";"167";"module.devaluation_block1.exec-9745.deval1";"6784";"2014-10-16 13:08:59.660";"10";"9";"6";"9";"935";"2046";"773";"2014-10-16 13:08:52.874";"2";;;;;;;;;;;;;;;;;;;;;;;;;;;;;;;;;;;;;;;;;;;;;;;;;;;;;;;;;;;;;;;;;;;;;;;;;;;;;;;;
"gmw";;;"Windows 7";"Rachel's Experiment (D.T.)";"1.0";"2";"1";"1";"2";"1";"1";"2014-10-16 12:58:51.040";"2014-10-16 13:11:41.682";"1";"1";"1";"169";"168";"module.devaluation_block1.exec-9745.deval1";"6024";"2014-10-16 13:09:05.713";"5";"7";"4";"7";"1166";"1409";"433";"2014-10-16 13:08:59.691";"1";;;;;;;;;;;;;;;;;;;;;;;;;;;;;;;;;;;;;;;;;;;;;;;;;;;;;;;;;;;;;;;;;;;;;;;;;;;;;;;;
"gmw";;;"Windows 7";"Rachel's Experiment (D.T.)";"1.0";"2";"1";"1";"2";"1";"1";"2014-10-16 12:58:51.040";"2014-10-16 13:11:41.682";"1";"1";"1";"170";"169";"module.devaluation_block1.exec-9745.deval1";"4581";"2014-10-16 13:09:10.315";"24";"8";"4";"7";"641";"502";"407";"2014-10-16 13:09:05.728";"3";;;;;;;;;;;;;;;;;;;;;;;;;;;;;;;;;;;;;;;;;;;;;;;;;;;;;;;;;;;;;;;;;;;;;;;;;;;;;;;;
"gmw";;;"Windows 7";"Rachel's Experiment (D.T.)";"1.0";"2";"1";"1";"2";"1";"1";"2014-10-16 12:58:51.040";"2014-10-16 13:11:41.682";"1";"1";"1";"171";"170";"module.devaluation_block1.exec-9745.deval1";"8861";"2014-10-16 13:09:19.191";"6";"4";"1";"7";"1663";"2034";"2142";"2014-10-16 13:09:10.330";"1";;;;;;;;;;;;;;;;;;;;;;;;;;;;;;;;;;;;;;;;;;;;;;;;;;;;;;;;;;;;;;;;;;;;;;;;;;;;;;;;
"gmw";;;"Windows 7";"Rachel's Experiment (D.T.)";"1.0";"2";"1";"1";"2";"1";"1";"2014-10-16 12:58:51.040";"2014-10-16 13:11:41.682";"1";"1";"1";"172";"171";"module.devaluation_block1.exec-9745.deval1";"6085";"2014-10-16 13:09:25.291";"21";"8";"5";"8";"1011";"1524";"529";"2014-10-16 13:09:19.207";"3";;;;;;;;;;;;;;;;;;;;;;;;;;;;;;;;;;;;;;;;;;;;;;;;;;;;;;;;;;;;;;;;;;;;;;;;;;;;;;;;
"gmw";;;"Windows 7";"Rachel's Experiment (D.T.)";"1.0";"2";"1";"1";"2";"1";"1";"2014-10-16 12:58:51.040";"2014-10-16 13:11:41.682";"1";"1";"1";"173";"172";"module.devaluation_block1.exec-9745.deval1";"9380";"2014-10-16 13:09:34.697";"0";"6";"1";"5";"1423";"3030";"1897";"2014-10-16 13:09:25.322";"1";;;;;;;;;;;;;;;;;;;;;;;;;;;;;;;;;;;;;;;;;;;;;;;;;;;;;;;;;;;;;;;;;;;;;;;;;;;;;;;;
"gmw";;;"Windows 7";"Rachel's Experiment (D.T.)";"1.0";"2";"1";"1";"2";"1";"1";"2014-10-16 12:58:51.040";"2014-10-16 13:11:41.682";"1";"1";"1";"174";"173";"module.devaluation_block1.exec-9745.deval1";"6093";"2014-10-16 13:09:40.813";"17";"1";"1";"2";"768";"703";"1593";"2014-10-16 13:09:34.713";"2";;;;;;;;;;;;;;;;;;;;;;;;;;;;;;;;;;;;;;;;;;;;;;;;;;;;;;;;;;;;;;;;;;;;;;;;;;;;;;;;
"gmw";;;"Windows 7";"Rachel's Experiment (D.T.)";"1.0";"2";"1";"1";"2";"1";"1";"2014-10-16 12:58:51.040";"2014-10-16 13:11:41.682";"1";"1";"1";"175";"174";"module.devaluation_block1.exec-9745.deval1";"6917";"2014-10-16 13:09:47.739";"13";"6";"3";"7";"1037";"1945";"908";"2014-10-16 13:09:40.828";"2";;;;;;;;;;;;;;;;;;;;;;;;;;;;;;;;;;;;;;;;;;;;;;;;;;;;;;;;;;;;;;;;;;;;;;;;;;;;;;;;
"gmw";;;"Windows 7";"Rachel's Experiment (D.T.)";"1.0";"2";"1";"1";"2";"1";"1";"2014-10-16 12:58:51.040";"2014-10-16 13:11:41.682";"1";"1";"1";"176";"175";"module.devaluation_block1.exec-9745.deval1";"7013";"2014-10-16 13:09:54.775";"8";"6";"1";"5";"1487";"1411";"1074";"2014-10-16 13:09:47.770";"1";;;;;;;;;;;;;;;;;;;;;;;;;;;;;;;;;;;;;;;;;;;;;;;;;;;;;;;;;;;;;;;;;;;;;;;;;;;;;;;;
"gmw";;;"Windows 7";"Rachel's Experiment (D.T.)";"1.0";"2";"1";"1";"2";"1";"1";"2014-10-16 12:58:51.040";"2014-10-16 13:11:41.682";"1";"1";"1";"177";"176";"module.devaluation_block1.exec-9745.deval1";"6892";"2014-10-16 13:10:01.685";"19";"9";"4";"9";"827";"2395";"637";"2014-10-16 13:09:54.790";"3";;;;;;;;;;;;;;;;;;;;;;;;;;;;;;;;;;;;;;;;;;;;;;;;;;;;;;;;;;;;;;;;;;;;;;;;;;;;;;;;
"gmw";;;"Windows 7";"Rachel's Experiment (D.T.)";"1.0";"2";"1";"1";"2";"1";"1";"2014-10-16 12:58:51.040";"2014-10-16 13:11:41.682";"1";"1";"1";"178";"177";"module.devaluation_block1.exec-9745.deval1";"7613";"2014-10-16 13:10:09.329";"2";"6";"5";"7";"2492";"1533";"569";"2014-10-16 13:10:01.717";"1";;;;;;;;;;;;;;;;;;;;;;;;;;;;;;;;;;;;;;;;;;;;;;;;;;;;;;;;;;;;;;;;;;;;;;;;;;;;;;;;
"gmw";;;"Windows 7";"Rachel's Experiment (D.T.)";"1.0";"2";"1";"1";"2";"1";"1";"2014-10-16 12:58:51.040";"2014-10-16 13:11:41.682";"1";"1";"1";"179";"178";"module.devaluation_block1.exec-9745.deval1";"5525";"2014-10-16 13:10:14.867";"22";"8";"5";"8";"1160";"790";"555";"2014-10-16 13:10:09.345";"3";;;;;;;;;;;;;;;;;;;;;;;;;;;;;;;;;;;;;;;;;;;;;;;;;;;;;;;;;;;;;;;;;;;;;;;;;;;;;;;;
"gmw";;;"Windows 7";"Rachel's Experiment (D.T.)";"1.0";"2";"1";"1";"2";"1";"1";"2014-10-16 12:58:51.040";"2014-10-16 13:11:41.682";"1";"1";"1";"180";"179";"module.devaluation_block1.exec-9745.deval1";"6487";"2014-10-16 13:10:21.388";"11";"6";"7";"7";"2430";"469";"569";"2014-10-16 13:10:14.899";"2";;;;;;;;;;;;;;;;;;;;;;;;;;;;;;;;;;;;;;;;;;;;;;;;;;;;;;;;;;;;;;;;;;;;;;;;;;;;;;;;
"gmw";;;"Windows 7";"Rachel's Experiment (D.T.)";"1.0";"2";"1";"1";"2";"1";"1";"2014-10-16 12:58:51.040";"2014-10-16 13:11:41.682";"1";"1";"1";"181";"180";"module.devaluation_block1.exec-9745.deval1";"13509";"2014-10-16 13:10:34.913";"25";"6";"2";"7";"2309";"1236";"6933";"2014-10-16 13:10:21.404";"3";;;;;;;;;;;;;;;;;;;;;;;;;;;;;;;;;;;;;;;;;;;;;;;;;;;;;;;;;;;;;;;;;;;;;;;;;;;;;;;;
"gmw";;;"Windows 7";"Rachel's Experiment (D.T.)";"1.0";"2";"1";"1";"2";"1";"1";"2014-10-16 12:58:51.040";"2014-10-16 13:11:41.682";"1";"1";"1";"182";"181";"module.devaluation_block1.exec-9745.deval1";"10532";"2014-10-16 13:10:45.459";"14";"7";"7";"7";"2311";"4487";"712";"2014-10-16 13:10:34.929";"2";;;;;;;;;;;;;;;;;;;;;;;;;;;;;;;;;;;;;;;;;;;;;;;;;;;;;;;;;;;;;;;;;;;;;;;;;;;;;;;;
"gmw";;;"Windows 7";"Rachel's Experiment (D.T.)";"1.0";"2";"1";"1";"2";"1";"1";"2014-10-16 12:58:51.040";"2014-10-16 13:11:41.682";"1";"1";"1";"183";"182";"module.devaluation_block1.exec-9745.deval1";"6829";"2014-10-16 13:10:52.307";"18";"5";"1";"7";"1054";"1023";"1718";"2014-10-16 13:10:45.475";"3";;;;;;;;;;;;;;;;;;;;;;;;;;;;;;;;;;;;;;;;;;;;;;;;;;;;;;;;;;;;;;;;;;;;;;;;;;;;;;;;
"gmw";;;"Windows 7";"Rachel's Experiment (D.T.)";"1.0";"2";"1";"1";"2";"1";"1";"2014-10-16 12:58:51.040";"2014-10-16 13:11:41.682";"1";"1";"1";"184";"183";"module.devaluation_block1.exec-9745.deval1";"4748";"2014-10-16 13:10:57.081";"26";"6";"1";"7";"429";"597";"709";"2014-10-16 13:10:52.323";"3";;;;;;;;;;;;;;;;;;;;;;;;;;;;;;;;;;;;;;;;;;;;;;;;;;;;;;;;;;;;;;;;;;;;;;;;;;;;;;;;
"gmw";;;"Windows 7";"Rachel's Experiment (D.T.)";"1.0";"2";"1";"1";"2";"1";"1";"2014-10-16 12:58:51.040";"2014-10-16 13:11:41.682";"1";"1";"1";"185";"184";"module.devaluation_block1.exec-9745.deval1";"7125";"2014-10-16 13:11:04.226";"15";"1";"1";"1";"2464";"877";"748";"2014-10-16 13:10:57.097";"2";;;;;;;;;;;;;;;;;;;;;;;;;;;;;;;;;;;;;;;;;;;;;;;;;;;;;;;;;;;;;;;;;;;;;;;;;;;;;;;;
"gmw";;;"Windows 7";"Rachel's Experiment (D.T.)";"1.0";"2";"1";"1";"2";"1";"1";"2014-10-16 12:58:51.040";"2014-10-16 13:11:41.682";"1";"1";"1";"186";"185";"module.devaluation_block1.exec-9745.deval1";"11309";"2014-10-16 13:11:15.552";"12";"9";"7";"9";"1967";"5356";"951";"2014-10-16 13:11:04.242";"2";;;;;;;;;;;;;;;;;;;;;;;;;;;;;;;;;;;;;;;;;;;;;;;;;;;;;;;;;;;;;;;;;;;;;;;;;;;;;;;;
"gmw";;;"Windows 7";"Rachel's Experiment (D.T.)";"1.0";"2";"1";"1";"2";"1";"1";"2014-10-16 12:58:51.040";"2014-10-16 13:11:41.682";"1";"1";"1";"187";"186";"module.devaluation_block1.exec-9745.deval1";"6676";"2014-10-16 13:11:22.244";"7";"5";"2";"7";"273";"1366";"2021";"2014-10-16 13:11:15.567";"1";;;;;;;;;;;;;;;;;;;;;;;;;;;;;;;;;;;;;;;;;;;;;;;;;;;;;;;;;;;;;;;;;;;;;;;;;;;;;;;;
"gmw";;;"Windows 7";"Rachel's Experiment (D.T.)";"1.0";"2";"1";"1";"2";"1";"1";"2014-10-16 12:58:51.040";"2014-10-16 13:11:41.682";"1";"1";"1";"188";"187";"module.devaluation_block1.exec-9745.deval1";"5150";"2014-10-16 13:11:27.423";"1";"5";"2";"7";"197";"887";"1055";"2014-10-16 13:11:22.260";"1";;;;;;;;;;;;;;;;;;;;;;;;;;;;;;;;;;;;;;;;;;;;;;;;;;;;;;;;;;;;;;;;;;;;;;;;;;;;;;;;
"gmw";;;"Windows 7";"Rachel's Experiment (D.T.)";"1.0";"2";"1";"1";"2";"1";"1";"2014-10-16 12:58:51.040";"2014-10-16 13:11:41.682";"1";"1";"1";"189";"188";"module.devaluation_block1.exec-9745.deval1";"7109";"2014-10-16 13:11:34.537";"20";"7";"6";"9";"522";"2523";"1028";"2014-10-16 13:11:27.439";"3";;;;;;;;;;;;;;;;;;;;;;;;;;;;;;;;;;;;;;;;;;;;;;;;;;;;;;;;;;;;;;;;;;;;;;;;;;;;;;;;
"gmw";;;"Windows 7";"Rachel's Experiment (D.T.)";"1.0";"2";"1";"1";"2";"1";"1";"2014-10-16 12:58:51.040";"2014-10-16 13:11:41.682";"1";"1";"1";"190";"189";"module.devaluation_block1.exec-9745.deval1";"5677";"2014-10-16 13:11:40.246";"16";"1";"1";"1";"936";"1012";"694";"2014-10-16 13:11:34.568";"2";;;;;;;;;;;;;;;;;;;;;;;;;;;;;;;;;;;;;;;;;;;;;;;;;;;;;;;;;;;;;;;;;;;;;;;;;;;;;;;;
