"user.name";"user.yearOfBirth";"user.sex";"user.osName";"module.name";"module.version";"module.online.subject.code";"module.online.study.id";"module.online.module.nr";"module.online.group.nr";"session.id";"session.index";"session.startTime";"session.endTime";"session.completed";"session.node-2708.conditionType";"session.node-4062.DevalQorder";"trial.id";"trial.index";"trial.name";"trial.deval1.durationTime";"trial.deval1.endTime";"trial.deval1.icon";"trial.deval1.Resp_Attractive";"trial.deval1.Resp_Eat";"trial.deval1.Resp_Taste";"trial.deval1.RT_Attractive";"trial.deval1.RT_Eat";"trial.deval1.RT_Taste";"trial.deval1.startTime";"trial.deval1.stimulus type";"trial.devalPractice.durationTime";"trial.devalPractice.endTime";"trial.devalPractice.icon";"trial.devalPractice.Resp_Attractive";"trial.devalPractice.Resp_Eat";"trial.devalPractice.Resp_Taste";"trial.devalPractice.RT_Attractive";"trial.devalPractice.RT_Eat";"trial.devalPractice.RT_Taste";"trial.devalPractice.startTime";"trial.devalPractice.stimulus type";"trial.GoNoGo1.durationTime";"trial.GoNoGo1.endTime";"trial.GoNoGo1.Error Type";"trial.GoNoGo1.icon";"trial.GoNoGo1.location";"trial.GoNoGo1.outcome";"trial.GoNoGo1.response";"trial.GoNoGo1.result";"trial.GoNoGo1.RT";"trial.GoNoGo1.signal";"trial.GoNoGo1.startTime";"trial.GoNoGo1.stimulus type";"trial.GoNoGo2.durationTime";"trial.GoNoGo2.endTime";"trial.GoNoGo2.Error Type";"trial.GoNoGo2.icon";"trial.GoNoGo2.location";"trial.GoNoGo2.outcome";"trial.GoNoGo2.response";"trial.GoNoGo2.result";"trial.GoNoGo2.RT";"trial.GoNoGo2.signal";"trial.GoNoGo2.startTime";"trial.GoNoGo2.stimulus type";"trial.GoNoGo3.durationTime";"trial.GoNoGo3.endTime";"trial.GoNoGo3.Error Type";"trial.GoNoGo3.icon";"trial.GoNoGo3.location";"trial.GoNoGo3.outcome";"trial.GoNoGo3.response";"trial.GoNoGo3.result";"trial.GoNoGo3.RT";"trial.GoNoGo3.signal";"trial.GoNoGo3.startTime";"trial.GoNoGo3.stimulus type";"trial.GoNoGo4.durationTime";"trial.GoNoGo4.endTime";"trial.GoNoGo4.Error Type";"trial.GoNoGo4.icon";"trial.GoNoGo4.location";"trial.GoNoGo4.outcome";"trial.GoNoGo4.response";"trial.GoNoGo4.result";"trial.GoNoGo4.RT";"trial.GoNoGo4.signal";"trial.GoNoGo4.startTime";"trial.GoNoGo4.stimulus type";"trial.GoNoGo_Practice.durationTime";"trial.GoNoGo_Practice.endTime";"trial.GoNoGo_Practice.icon";"trial.GoNoGo_Practice.location";"trial.GoNoGo_Practice.outcome";"trial.GoNoGo_Practice.response";"trial.GoNoGo_Practice.result";"trial.GoNoGo_Practice.RT";"trial.GoNoGo_Practice.signal";"trial.GoNoGo_Practice.startTime";"trial.GoNoGo_Practice.stimulus type";"trial.GoNoGo_Tutorial.durationTime";"trial.GoNoGo_Tutorial.endTime";"trial.GoNoGo_Tutorial.icon";"trial.GoNoGo_Tutorial.location";"trial.GoNoGo_Tutorial.outcome";"trial.GoNoGo_Tutorial.response";"trial.GoNoGo_Tutorial.result";"trial.GoNoGo_Tutorial.RT";"trial.GoNoGo_Tutorial.signal";"trial.GoNoGo_Tutorial.startTime"
"1322007";;;"Windows 7";"Rachel's Experiment (D.T.)";"1.0";"2";"1";"1";"2";"1";"1";"2014-10-16 13:32:46.179";"2014-10-16 13:46:54.555";"1";"1";"1";"1";"0";"module.GoNoGotutorial.exec-7484.GoNoGo_Tutorial";;;;;;;;;;;;;;;;;;;;;;;;;;;;;;;;;;;;;;;;;;;;;;;;;;;;;;;;;;;;;;;;;;;;;;;;;;;;;;;;;;"3998";"2014-10-16 13:34:37.126";"leftResponse";"0";"FINISHED";"LEFT";"success";"3337";"0";"2014-10-16 13:34:33.117"
"1322007";;;"Windows 7";"Rachel's Experiment (D.T.)";"1.0";"2";"1";"1";"2";"1";"1";"2014-10-16 13:32:46.179";"2014-10-16 13:46:54.555";"1";"1";"1";"2";"1";"module.GoNoGotutorial.exec-7484.GoNoGo_Tutorial";;;;;;;;;;;;;;;;;;;;;;;;;;;;;;;;;;;;;;;;;;;;;;;;;;;;;;;;;;;;;;;;;;;;;;;;;;;;;;;;;;"4003";"2014-10-16 13:34:42.430";"rightResponse";"1";"FINISHED";"RIGHT";"success";"422";"0";"2014-10-16 13:34:38.421"
"1322007";;;"Windows 7";"Rachel's Experiment (D.T.)";"1.0";"2";"1";"1";"2";"1";"1";"2014-10-16 13:32:46.179";"2014-10-16 13:46:54.555";"1";"1";"1";"3";"2";"module.GoNoGotutorial.exec-7484.GoNoGo_Tutorial";;;;;;;;;;;;;;;;;;;;;;;;;;;;;;;;;;;;;;;;;;;;;;;;;;;;;;;;;;;;;;;;;;;;;;;;;;;;;;;;;;"4003";"2014-10-16 13:34:47.734";"signalResponse";"0";"FINISHED";"NONE";"success";"0";"1";"2014-10-16 13:34:43.725"
"1322007";;;"Windows 7";"Rachel's Experiment (D.T.)";"1.0";"2";"1";"1";"2";"1";"1";"2014-10-16 13:32:46.179";"2014-10-16 13:46:54.555";"1";"1";"1";"4";"3";"module.GoNoGopractice.exec-2405.GoNoGo_Practice";;;;;;;;;;;;;;;;;;;;;;;;;;;;;;;;;;;;;;;;;;;;;;;;;;;;;;;;;;;;;;;;;;;;;;;"1959";"2014-10-16 13:34:55.019";"18";"0";"FINISHED";"LEFT";"success";"380";"0";"2014-10-16 13:34:53.054";"3";;;;;;;;;;
"1322007";;;"Windows 7";"Rachel's Experiment (D.T.)";"1.0";"2";"1";"1";"2";"1";"1";"2014-10-16 13:32:46.179";"2014-10-16 13:46:54.555";"1";"1";"1";"5";"4";"module.GoNoGopractice.exec-2405.GoNoGo_Practice";;;;;;;;;;;;;;;;;;;;;;;;;;;;;;;;;;;;;;;;;;;;;;;;;;;;;;;;;;;;;;;;;;;;;;;"1958";"2014-10-16 13:34:58.280";"21";"1";"FINISHED";"RIGHT";"success";"320";"0";"2014-10-16 13:34:56.314";"3";;;;;;;;;;
"1322007";;;"Windows 7";"Rachel's Experiment (D.T.)";"1.0";"2";"1";"1";"2";"1";"1";"2014-10-16 13:32:46.179";"2014-10-16 13:46:54.555";"1";"1";"1";"6";"5";"module.GoNoGopractice.exec-2405.GoNoGo_Practice";;;;;;;;;;;;;;;;;;;;;;;;;;;;;;;;;;;;;;;;;;;;;;;;;;;;;;;;;;;;;;;;;;;;;;;"1959";"2014-10-16 13:35:01.524";"14";"1";"FINISHED";"RIGHT";"failure";"356";"1";"2014-10-16 13:34:59.559";"2";;;;;;;;;;
"1322007";;;"Windows 7";"Rachel's Experiment (D.T.)";"1.0";"2";"1";"1";"2";"1";"1";"2014-10-16 13:32:46.179";"2014-10-16 13:46:54.555";"1";"1";"1";"7";"6";"module.GoNoGopractice.exec-2405.GoNoGo_Practice";;;;;;;;;;;;;;;;;;;;;;;;;;;;;;;;;;;;;;;;;;;;;;;;;;;;;;;;;;;;;;;;;;;;;;;"1959";"2014-10-16 13:35:04.769";"26";"0";"FINISHED";"LEFT";"success";"487";"0";"2014-10-16 13:35:02.804";"3";;;;;;;;;;
"1322007";;;"Windows 7";"Rachel's Experiment (D.T.)";"1.0";"2";"1";"1";"2";"1";"1";"2014-10-16 13:32:46.179";"2014-10-16 13:46:54.555";"1";"1";"1";"8";"7";"module.GoNoGopractice.exec-2405.GoNoGo_Practice";;;;;;;;;;;;;;;;;;;;;;;;;;;;;;;;;;;;;;;;;;;;;;;;;;;;;;;;;;;;;;;;;;;;;;;"1959";"2014-10-16 13:35:08.014";"2";"0";"FINISHED";"LEFT";"success";"442";"0";"2014-10-16 13:35:06.048";"1";;;;;;;;;;
"1322007";;;"Windows 7";"Rachel's Experiment (D.T.)";"1.0";"2";"1";"1";"2";"1";"1";"2014-10-16 13:32:46.179";"2014-10-16 13:46:54.555";"1";"1";"1";"9";"8";"module.GoNoGopractice.exec-2405.GoNoGo_Practice";;;;;;;;;;;;;;;;;;;;;;;;;;;;;;;;;;;;;;;;;;;;;;;;;;;;;;;;;;;;;;;;;;;;;;;"1960";"2014-10-16 13:35:11.259";"30";"0";"FINISHED";"NONE";"success";"0";"1";"2014-10-16 13:35:09.293";"3";;;;;;;;;;
"1322007";;;"Windows 7";"Rachel's Experiment (D.T.)";"1.0";"2";"1";"1";"2";"1";"1";"2014-10-16 13:32:46.179";"2014-10-16 13:46:54.555";"1";"1";"1";"10";"9";"module.GoNoGopractice.exec-2405.GoNoGo_Practice";;;;;;;;;;;;;;;;;;;;;;;;;;;;;;;;;;;;;;;;;;;;;;;;;;;;;;;;;;;;;;;;;;;;;;;"1959";"2014-10-16 13:35:14.504";"6";"1";"FINISHED";"NONE";"success";"0";"1";"2014-10-16 13:35:12.538";"1";;;;;;;;;;
"1322007";;;"Windows 7";"Rachel's Experiment (D.T.)";"1.0";"2";"1";"1";"2";"1";"1";"2014-10-16 13:32:46.179";"2014-10-16 13:46:54.555";"1";"1";"1";"11";"10";"module.GoNoGopractice.exec-2405.GoNoGo_Practice";;;;;;;;;;;;;;;;;;;;;;;;;;;;;;;;;;;;;;;;;;;;;;;;;;;;;;;;;;;;;;;;;;;;;;;"1960";"2014-10-16 13:35:17.748";"34";"0";"FINISHED";"LEFT";"success";"492";"0";"2014-10-16 13:35:15.783";"3";;;;;;;;;;
"1322007";;;"Windows 7";"Rachel's Experiment (D.T.)";"1.0";"2";"1";"1";"2";"1";"1";"2014-10-16 13:32:46.179";"2014-10-16 13:46:54.555";"1";"1";"1";"12";"11";"module.GoNoGopractice.exec-2405.GoNoGo_Practice";;;;;;;;;;;;;;;;;;;;;;;;;;;;;;;;;;;;;;;;;;;;;;;;;;;;;;;;;;;;;;;;;;;;;;;"1959";"2014-10-16 13:35:20.993";"23";"1";"FINISHED";"RIGHT";"success";"367";"0";"2014-10-16 13:35:19.028";"3";;;;;;;;;;
"1322007";;;"Windows 7";"Rachel's Experiment (D.T.)";"1.0";"2";"1";"1";"2";"1";"1";"2014-10-16 13:32:46.179";"2014-10-16 13:46:54.555";"1";"1";"1";"13";"12";"module.GoNoGopractice.exec-2405.GoNoGo_Practice";;;;;;;;;;;;;;;;;;;;;;;;;;;;;;;;;;;;;;;;;;;;;;;;;;;;;;;;;;;;;;;;;;;;;;;"1959";"2014-10-16 13:35:24.238";"13";"0";"FINISHED";"NONE";"success";"0";"1";"2014-10-16 13:35:22.272";"2";;;;;;;;;;
"1322007";;;"Windows 7";"Rachel's Experiment (D.T.)";"1.0";"2";"1";"1";"2";"1";"1";"2014-10-16 13:32:46.179";"2014-10-16 13:46:54.555";"1";"1";"1";"14";"13";"module.GoNoGopractice.exec-2405.GoNoGo_Practice";;;;;;;;;;;;;;;;;;;;;;;;;;;;;;;;;;;;;;;;;;;;;;;;;;;;;;;;;;;;;;;;;;;;;;;"1959";"2014-10-16 13:35:27.576";"3";"1";"FINISHED";"RIGHT";"success";"391";"0";"2014-10-16 13:35:25.611";"1";;;;;;;;;;
"1322007";;;"Windows 7";"Rachel's Experiment (D.T.)";"1.0";"2";"1";"1";"2";"1";"1";"2014-10-16 13:32:46.179";"2014-10-16 13:46:54.555";"1";"1";"1";"15";"14";"module.GoNoGopractice.exec-2405.GoNoGo_Practice";;;;;;;;;;;;;;;;;;;;;;;;;;;;;;;;;;;;;;;;;;;;;;;;;;;;;;;;;;;;;;;;;;;;;;;"1959";"2014-10-16 13:35:30.821";"27";"1";"FINISHED";"NONE";"success";"0";"1";"2014-10-16 13:35:28.856";"3";;;;;;;;;;
"1322007";;;"Windows 7";"Rachel's Experiment (D.T.)";"1.0";"2";"1";"1";"2";"1";"1";"2014-10-16 13:32:46.179";"2014-10-16 13:46:54.555";"1";"1";"1";"16";"15";"module.training_block1.exec-1056.GoNoGo1";;;;;;;;;;;;;;;;;;;;;;;"1256";"2014-10-16 13:35:36.968";"ST_failedStop";"23";"0";"FINISHED";"LEFT";"failure";"400";"1";"2014-10-16 13:35:35.704";"3";;;;;;;;;;;;;;;;;;;;;;;;;;;;;;;;;;;;;;;;;;;;;;;;;;;;;;;;;
"1322007";;;"Windows 7";"Rachel's Experiment (D.T.)";"1.0";"2";"1";"1";"2";"1";"1";"2014-10-16 13:32:46.179";"2014-10-16 13:46:54.555";"1";"1";"1";"17";"16";"module.training_block1.exec-1056.GoNoGo1";;;;;;;;;;;;;;;;;;;;;;;"1258";"2014-10-16 13:35:39.510";"ST_correctStop";"2";"1";"FINISHED";"NONE";"success";"0";"1";"2014-10-16 13:35:38.247";"1";;;;;;;;;;;;;;;;;;;;;;;;;;;;;;;;;;;;;;;;;;;;;;;;;;;;;;;;;
"1322007";;;"Windows 7";"Rachel's Experiment (D.T.)";"1.0";"2";"1";"1";"2";"1";"1";"2014-10-16 13:32:46.179";"2014-10-16 13:46:54.555";"1";"1";"1";"18";"17";"module.training_block1.exec-1056.GoNoGo1";;;;;;;;;;;;;;;;;;;;;;;"1258";"2014-10-16 13:35:42.084";"ST_correctStop";"5";"1";"FINISHED";"NONE";"success";"0";"1";"2014-10-16 13:35:40.821";"1";;;;;;;;;;;;;;;;;;;;;;;;;;;;;;;;;;;;;;;;;;;;;;;;;;;;;;;;;
"1322007";;;"Windows 7";"Rachel's Experiment (D.T.)";"1.0";"2";"1";"1";"2";"1";"1";"2014-10-16 13:32:46.179";"2014-10-16 13:46:54.555";"1";"1";"1";"19";"18";"module.training_block1.exec-1056.GoNoGo1";;;;;;;;;;;;;;;;;;;;;;;"1257";"2014-10-16 13:35:44.627";"ST_correctStop";"32";"0";"FINISHED";"NONE";"success";"0";"1";"2014-10-16 13:35:43.364";"3";;;;;;;;;;;;;;;;;;;;;;;;;;;;;;;;;;;;;;;;;;;;;;;;;;;;;;;;;
"1322007";;;"Windows 7";"Rachel's Experiment (D.T.)";"1.0";"2";"1";"1";"2";"1";"1";"2014-10-16 13:32:46.179";"2014-10-16 13:46:54.555";"1";"1";"1";"20";"19";"module.training_block1.exec-1056.GoNoGo1";;;;;;;;;;;;;;;;;;;;;;;"1258";"2014-10-16 13:35:47.170";"ST_correctStop";"28";"0";"FINISHED";"NONE";"success";"0";"1";"2014-10-16 13:35:45.906";"3";;;;;;;;;;;;;;;;;;;;;;;;;;;;;;;;;;;;;;;;;;;;;;;;;;;;;;;;;
"1322007";;;"Windows 7";"Rachel's Experiment (D.T.)";"1.0";"2";"1";"1";"2";"1";"1";"2014-10-16 13:32:46.179";"2014-10-16 13:46:54.555";"1";"1";"1";"21";"20";"module.training_block1.exec-1056.GoNoGo1";;;;;;;;;;;;;;;;;;;;;;;"1261";"2014-10-16 13:35:49.713";"ST_correctStop";"3";"0";"FINISHED";"NONE";"success";"0";"1";"2014-10-16 13:35:48.449";"1";;;;;;;;;;;;;;;;;;;;;;;;;;;;;;;;;;;;;;;;;;;;;;;;;;;;;;;;;
"1322007";;;"Windows 7";"Rachel's Experiment (D.T.)";"1.0";"2";"1";"1";"2";"1";"1";"2014-10-16 13:32:46.179";"2014-10-16 13:46:54.555";"1";"1";"1";"22";"21";"module.training_block1.exec-1056.GoNoGo1";;;;;;;;;;;;;;;;;;;;;;;"1257";"2014-10-16 13:35:52.256";"ST_correctStop";"6";"1";"FINISHED";"NONE";"success";"0";"1";"2014-10-16 13:35:50.992";"1";;;;;;;;;;;;;;;;;;;;;;;;;;;;;;;;;;;;;;;;;;;;;;;;;;;;;;;;;
"1322007";;;"Windows 7";"Rachel's Experiment (D.T.)";"1.0";"2";"1";"1";"2";"1";"1";"2014-10-16 13:32:46.179";"2014-10-16 13:46:54.555";"1";"1";"1";"23";"22";"module.training_block1.exec-1056.GoNoGo1";;;;;;;;;;;;;;;;;;;;;;;"1258";"2014-10-16 13:35:54.798";"ST_correctStop";"29";"1";"FINISHED";"NONE";"success";"0";"1";"2014-10-16 13:35:53.535";"3";;;;;;;;;;;;;;;;;;;;;;;;;;;;;;;;;;;;;;;;;;;;;;;;;;;;;;;;;
"1322007";;;"Windows 7";"Rachel's Experiment (D.T.)";"1.0";"2";"1";"1";"2";"1";"1";"2014-10-16 13:32:46.179";"2014-10-16 13:46:54.555";"1";"1";"1";"24";"23";"module.training_block1.exec-1056.GoNoGo1";;;;;;;;;;;;;;;;;;;;;;;"1258";"2014-10-16 13:35:57.341";"NST_correctLoc";"22";"1";"FINISHED";"RIGHT";"success";"573";"0";"2014-10-16 13:35:56.078";"3";;;;;;;;;;;;;;;;;;;;;;;;;;;;;;;;;;;;;;;;;;;;;;;;;;;;;;;;;
"1322007";;;"Windows 7";"Rachel's Experiment (D.T.)";"1.0";"2";"1";"1";"2";"1";"1";"2014-10-16 13:32:46.179";"2014-10-16 13:46:54.555";"1";"1";"1";"25";"24";"module.training_block1.exec-1056.GoNoGo1";;;;;;;;;;;;;;;;;;;;;;;"1257";"2014-10-16 13:35:59.884";"NST_correctLoc";"9";"1";"FINISHED";"RIGHT";"success";"445";"0";"2014-10-16 13:35:58.621";"2";;;;;;;;;;;;;;;;;;;;;;;;;;;;;;;;;;;;;;;;;;;;;;;;;;;;;;;;;
"1322007";;;"Windows 7";"Rachel's Experiment (D.T.)";"1.0";"2";"1";"1";"2";"1";"1";"2014-10-16 13:32:46.179";"2014-10-16 13:46:54.555";"1";"1";"1";"26";"25";"module.training_block1.exec-1056.GoNoGo1";;;;;;;;;;;;;;;;;;;;;;;"1257";"2014-10-16 13:36:02.427";"NST_correctLoc";"15";"1";"FINISHED";"RIGHT";"success";"382";"0";"2014-10-16 13:36:01.163";"2";;;;;;;;;;;;;;;;;;;;;;;;;;;;;;;;;;;;;;;;;;;;;;;;;;;;;;;;;
"1322007";;;"Windows 7";"Rachel's Experiment (D.T.)";"1.0";"2";"1";"1";"2";"1";"1";"2014-10-16 13:32:46.179";"2014-10-16 13:46:54.555";"1";"1";"1";"27";"26";"module.training_block1.exec-1056.GoNoGo1";;;;;;;;;;;;;;;;;;;;;;;"1258";"2014-10-16 13:36:04.970";"NST_correctLoc";"18";"0";"FINISHED";"LEFT";"success";"368";"0";"2014-10-16 13:36:03.706";"3";;;;;;;;;;;;;;;;;;;;;;;;;;;;;;;;;;;;;;;;;;;;;;;;;;;;;;;;;
"1322007";;;"Windows 7";"Rachel's Experiment (D.T.)";"1.0";"2";"1";"1";"2";"1";"1";"2014-10-16 13:32:46.179";"2014-10-16 13:46:54.555";"1";"1";"1";"28";"27";"module.training_block1.exec-1056.GoNoGo1";;;;;;;;;;;;;;;;;;;;;;;"1253";"2014-10-16 13:36:07.513";"ST_correctStop";"8";"1";"FINISHED";"NONE";"success";"0";"1";"2014-10-16 13:36:06.249";"1";;;;;;;;;;;;;;;;;;;;;;;;;;;;;;;;;;;;;;;;;;;;;;;;;;;;;;;;;
"1322007";;;"Windows 7";"Rachel's Experiment (D.T.)";"1.0";"2";"1";"1";"2";"1";"1";"2014-10-16 13:32:46.179";"2014-10-16 13:46:54.555";"1";"1";"1";"29";"28";"module.training_block1.exec-1056.GoNoGo1";;;;;;;;;;;;;;;;;;;;;;;"1258";"2014-10-16 13:36:10.055";"NST_correctLoc";"14";"0";"FINISHED";"LEFT";"success";"410";"0";"2014-10-16 13:36:08.792";"2";;;;;;;;;;;;;;;;;;;;;;;;;;;;;;;;;;;;;;;;;;;;;;;;;;;;;;;;;
"1322007";;;"Windows 7";"Rachel's Experiment (D.T.)";"1.0";"2";"1";"1";"2";"1";"1";"2014-10-16 13:32:46.179";"2014-10-16 13:46:54.555";"1";"1";"1";"30";"29";"module.training_block1.exec-1056.GoNoGo1";;;;;;;;;;;;;;;;;;;;;;;"1257";"2014-10-16 13:36:12.598";"NST_correctLoc";"13";"1";"FINISHED";"RIGHT";"success";"379";"0";"2014-10-16 13:36:11.335";"2";;;;;;;;;;;;;;;;;;;;;;;;;;;;;;;;;;;;;;;;;;;;;;;;;;;;;;;;;
"1322007";;;"Windows 7";"Rachel's Experiment (D.T.)";"1.0";"2";"1";"1";"2";"1";"1";"2014-10-16 13:32:46.179";"2014-10-16 13:46:54.555";"1";"1";"1";"31";"30";"module.training_block1.exec-1056.GoNoGo1";;;;;;;;;;;;;;;;;;;;;;;"1258";"2014-10-16 13:36:15.141";"ST_correctStop";"0";"1";"FINISHED";"NONE";"success";"0";"1";"2014-10-16 13:36:13.877";"1";;;;;;;;;;;;;;;;;;;;;;;;;;;;;;;;;;;;;;;;;;;;;;;;;;;;;;;;;
"1322007";;;"Windows 7";"Rachel's Experiment (D.T.)";"1.0";"2";"1";"1";"2";"1";"1";"2014-10-16 13:32:46.179";"2014-10-16 13:46:54.555";"1";"1";"1";"32";"31";"module.training_block1.exec-1056.GoNoGo1";;;;;;;;;;;;;;;;;;;;;;;"1258";"2014-10-16 13:36:17.684";"NST_correctLoc";"11";"1";"FINISHED";"RIGHT";"success";"558";"0";"2014-10-16 13:36:16.420";"2";;;;;;;;;;;;;;;;;;;;;;;;;;;;;;;;;;;;;;;;;;;;;;;;;;;;;;;;;
"1322007";;;"Windows 7";"Rachel's Experiment (D.T.)";"1.0";"2";"1";"1";"2";"1";"1";"2014-10-16 13:32:46.179";"2014-10-16 13:46:54.555";"1";"1";"1";"33";"32";"module.training_block1.exec-1056.GoNoGo1";;;;;;;;;;;;;;;;;;;;;;;"1258";"2014-10-16 13:36:20.227";"NST_correctLoc";"25";"0";"FINISHED";"LEFT";"success";"384";"0";"2014-10-16 13:36:18.963";"3";;;;;;;;;;;;;;;;;;;;;;;;;;;;;;;;;;;;;;;;;;;;;;;;;;;;;;;;;
"1322007";;;"Windows 7";"Rachel's Experiment (D.T.)";"1.0";"2";"1";"1";"2";"1";"1";"2014-10-16 13:32:46.179";"2014-10-16 13:46:54.555";"1";"1";"1";"34";"33";"module.training_block1.exec-1056.GoNoGo1";;;;;;;;;;;;;;;;;;;;;;;"1258";"2014-10-16 13:36:22.769";"NST_correctLoc";"30";"0";"FINISHED";"LEFT";"success";"609";"0";"2014-10-16 13:36:21.506";"3";;;;;;;;;;;;;;;;;;;;;;;;;;;;;;;;;;;;;;;;;;;;;;;;;;;;;;;;;
"1322007";;;"Windows 7";"Rachel's Experiment (D.T.)";"1.0";"2";"1";"1";"2";"1";"1";"2014-10-16 13:32:46.179";"2014-10-16 13:46:54.555";"1";"1";"1";"35";"34";"module.training_block1.exec-1056.GoNoGo1";;;;;;;;;;;;;;;;;;;;;;;"1258";"2014-10-16 13:36:25.312";"NST_correctLoc";"12";"1";"FINISHED";"RIGHT";"success";"386";"0";"2014-10-16 13:36:24.049";"2";;;;;;;;;;;;;;;;;;;;;;;;;;;;;;;;;;;;;;;;;;;;;;;;;;;;;;;;;
"1322007";;;"Windows 7";"Rachel's Experiment (D.T.)";"1.0";"2";"1";"1";"2";"1";"1";"2014-10-16 13:32:46.179";"2014-10-16 13:46:54.555";"1";"1";"1";"36";"35";"module.training_block1.exec-1056.GoNoGo1";;;;;;;;;;;;;;;;;;;;;;;"1257";"2014-10-16 13:36:27.855";"ST_correctStop";"26";"0";"FINISHED";"NONE";"success";"0";"1";"2014-10-16 13:36:26.591";"3";;;;;;;;;;;;;;;;;;;;;;;;;;;;;;;;;;;;;;;;;;;;;;;;;;;;;;;;;
"1322007";;;"Windows 7";"Rachel's Experiment (D.T.)";"1.0";"2";"1";"1";"2";"1";"1";"2014-10-16 13:32:46.179";"2014-10-16 13:46:54.555";"1";"1";"1";"37";"36";"module.training_block1.exec-1056.GoNoGo1";;;;;;;;;;;;;;;;;;;;;;;"1257";"2014-10-16 13:36:30.398";"NST_correctLoc";"19";"1";"FINISHED";"RIGHT";"success";"347";"0";"2014-10-16 13:36:29.134";"3";;;;;;;;;;;;;;;;;;;;;;;;;;;;;;;;;;;;;;;;;;;;;;;;;;;;;;;;;
"1322007";;;"Windows 7";"Rachel's Experiment (D.T.)";"1.0";"2";"1";"1";"2";"1";"1";"2014-10-16 13:32:46.179";"2014-10-16 13:46:54.555";"1";"1";"1";"38";"37";"module.training_block1.exec-1056.GoNoGo1";;;;;;;;;;;;;;;;;;;;;;;"1257";"2014-10-16 13:36:32.941";"ST_correctStop";"4";"1";"FINISHED";"NONE";"success";"0";"1";"2014-10-16 13:36:31.677";"1";;;;;;;;;;;;;;;;;;;;;;;;;;;;;;;;;;;;;;;;;;;;;;;;;;;;;;;;;
"1322007";;;"Windows 7";"Rachel's Experiment (D.T.)";"1.0";"2";"1";"1";"2";"1";"1";"2014-10-16 13:32:46.179";"2014-10-16 13:46:54.555";"1";"1";"1";"39";"38";"module.training_block1.exec-1056.GoNoGo1";;;;;;;;;;;;;;;;;;;;;;;"1258";"2014-10-16 13:36:35.483";"NST_correctLoc";"10";"1";"FINISHED";"RIGHT";"success";"358";"0";"2014-10-16 13:36:34.220";"2";;;;;;;;;;;;;;;;;;;;;;;;;;;;;;;;;;;;;;;;;;;;;;;;;;;;;;;;;
"1322007";;;"Windows 7";"Rachel's Experiment (D.T.)";"1.0";"2";"1";"1";"2";"1";"1";"2014-10-16 13:32:46.179";"2014-10-16 13:46:54.555";"1";"1";"1";"40";"39";"module.training_block1.exec-1056.GoNoGo1";;;;;;;;;;;;;;;;;;;;;;;"1257";"2014-10-16 13:36:38.026";"NST_correctLoc";"17";"0";"FINISHED";"LEFT";"success";"455";"0";"2014-10-16 13:36:36.763";"2";;;;;;;;;;;;;;;;;;;;;;;;;;;;;;;;;;;;;;;;;;;;;;;;;;;;;;;;;
"1322007";;;"Windows 7";"Rachel's Experiment (D.T.)";"1.0";"2";"1";"1";"2";"1";"1";"2014-10-16 13:32:46.179";"2014-10-16 13:46:54.555";"1";"1";"1";"41";"40";"module.training_block1.exec-1056.GoNoGo1";;;;;;;;;;;;;;;;;;;;;;;"1258";"2014-10-16 13:36:40.569";"NST_correctLoc";"35";"0";"FINISHED";"LEFT";"success";"393";"0";"2014-10-16 13:36:39.305";"3";;;;;;;;;;;;;;;;;;;;;;;;;;;;;;;;;;;;;;;;;;;;;;;;;;;;;;;;;
"1322007";;;"Windows 7";"Rachel's Experiment (D.T.)";"1.0";"2";"1";"1";"2";"1";"1";"2014-10-16 13:32:46.179";"2014-10-16 13:46:54.555";"1";"1";"1";"42";"41";"module.training_block1.exec-1056.GoNoGo1";;;;;;;;;;;;;;;;;;;;;;;"1261";"2014-10-16 13:36:43.112";"ST_correctStop";"27";"0";"FINISHED";"NONE";"success";"0";"1";"2014-10-16 13:36:41.848";"3";;;;;;;;;;;;;;;;;;;;;;;;;;;;;;;;;;;;;;;;;;;;;;;;;;;;;;;;;
"1322007";;;"Windows 7";"Rachel's Experiment (D.T.)";"1.0";"2";"1";"1";"2";"1";"1";"2014-10-16 13:32:46.179";"2014-10-16 13:46:54.555";"1";"1";"1";"43";"42";"module.training_block1.exec-1056.GoNoGo1";;;;;;;;;;;;;;;;;;;;;;;"1253";"2014-10-16 13:36:45.655";"ST_correctStop";"21";"0";"FINISHED";"NONE";"success";"0";"1";"2014-10-16 13:36:44.391";"3";;;;;;;;;;;;;;;;;;;;;;;;;;;;;;;;;;;;;;;;;;;;;;;;;;;;;;;;;
"1322007";;;"Windows 7";"Rachel's Experiment (D.T.)";"1.0";"2";"1";"1";"2";"1";"1";"2014-10-16 13:32:46.179";"2014-10-16 13:46:54.555";"1";"1";"1";"44";"43";"module.training_block1.exec-1056.GoNoGo1";;;;;;;;;;;;;;;;;;;;;;;"1258";"2014-10-16 13:36:48.197";"ST_correctStop";"33";"0";"FINISHED";"NONE";"success";"0";"1";"2014-10-16 13:36:46.934";"3";;;;;;;;;;;;;;;;;;;;;;;;;;;;;;;;;;;;;;;;;;;;;;;;;;;;;;;;;
"1322007";;;"Windows 7";"Rachel's Experiment (D.T.)";"1.0";"2";"1";"1";"2";"1";"1";"2014-10-16 13:32:46.179";"2014-10-16 13:46:54.555";"1";"1";"1";"45";"44";"module.training_block1.exec-1056.GoNoGo1";;;;;;;;;;;;;;;;;;;;;;;"1258";"2014-10-16 13:36:50.740";"NST_correctLoc";"34";"1";"FINISHED";"RIGHT";"success";"414";"0";"2014-10-16 13:36:49.477";"3";;;;;;;;;;;;;;;;;;;;;;;;;;;;;;;;;;;;;;;;;;;;;;;;;;;;;;;;;
"1322007";;;"Windows 7";"Rachel's Experiment (D.T.)";"1.0";"2";"1";"1";"2";"1";"1";"2014-10-16 13:32:46.179";"2014-10-16 13:46:54.555";"1";"1";"1";"46";"45";"module.training_block1.exec-1056.GoNoGo1";;;;;;;;;;;;;;;;;;;;;;;"1258";"2014-10-16 13:36:53.283";"NST_correctLoc";"24";"0";"FINISHED";"LEFT";"success";"503";"0";"2014-10-16 13:36:52.019";"3";;;;;;;;;;;;;;;;;;;;;;;;;;;;;;;;;;;;;;;;;;;;;;;;;;;;;;;;;
"1322007";;;"Windows 7";"Rachel's Experiment (D.T.)";"1.0";"2";"1";"1";"2";"1";"1";"2014-10-16 13:32:46.179";"2014-10-16 13:46:54.555";"1";"1";"1";"47";"46";"module.training_block1.exec-1056.GoNoGo1";;;;;;;;;;;;;;;;;;;;;;;"1257";"2014-10-16 13:36:55.826";"ST_correctStop";"7";"1";"FINISHED";"NONE";"success";"0";"1";"2014-10-16 13:36:54.562";"1";;;;;;;;;;;;;;;;;;;;;;;;;;;;;;;;;;;;;;;;;;;;;;;;;;;;;;;;;
"1322007";;;"Windows 7";"Rachel's Experiment (D.T.)";"1.0";"2";"1";"1";"2";"1";"1";"2014-10-16 13:32:46.179";"2014-10-16 13:46:54.555";"1";"1";"1";"48";"47";"module.training_block1.exec-1056.GoNoGo1";;;;;;;;;;;;;;;;;;;;;;;"1258";"2014-10-16 13:36:58.369";"NST_correctLoc";"16";"0";"FINISHED";"LEFT";"success";"417";"0";"2014-10-16 13:36:57.105";"2";;;;;;;;;;;;;;;;;;;;;;;;;;;;;;;;;;;;;;;;;;;;;;;;;;;;;;;;;
"1322007";;;"Windows 7";"Rachel's Experiment (D.T.)";"1.0";"2";"1";"1";"2";"1";"1";"2014-10-16 13:32:46.179";"2014-10-16 13:46:54.555";"1";"1";"1";"49";"48";"module.training_block1.exec-1056.GoNoGo1";;;;;;;;;;;;;;;;;;;;;;;"1257";"2014-10-16 13:37:00.911";"ST_correctStop";"1";"0";"FINISHED";"NONE";"success";"0";"1";"2014-10-16 13:36:59.648";"1";;;;;;;;;;;;;;;;;;;;;;;;;;;;;;;;;;;;;;;;;;;;;;;;;;;;;;;;;
"1322007";;;"Windows 7";"Rachel's Experiment (D.T.)";"1.0";"2";"1";"1";"2";"1";"1";"2014-10-16 13:32:46.179";"2014-10-16 13:46:54.555";"1";"1";"1";"50";"49";"module.training_block1.exec-1056.GoNoGo1";;;;;;;;;;;;;;;;;;;;;;;"1258";"2014-10-16 13:37:03.454";"NST_correctLoc";"20";"1";"FINISHED";"RIGHT";"success";"419";"0";"2014-10-16 13:37:02.191";"3";;;;;;;;;;;;;;;;;;;;;;;;;;;;;;;;;;;;;;;;;;;;;;;;;;;;;;;;;
"1322007";;;"Windows 7";"Rachel's Experiment (D.T.)";"1.0";"2";"1";"1";"2";"1";"1";"2014-10-16 13:32:46.179";"2014-10-16 13:46:54.555";"1";"1";"1";"51";"50";"module.training_block1.exec-1056.GoNoGo1";;;;;;;;;;;;;;;;;;;;;;;"1257";"2014-10-16 13:37:05.997";"ST_correctStop";"31";"0";"FINISHED";"NONE";"success";"0";"1";"2014-10-16 13:37:04.733";"3";;;;;;;;;;;;;;;;;;;;;;;;;;;;;;;;;;;;;;;;;;;;;;;;;;;;;;;;;
"1322007";;;"Windows 7";"Rachel's Experiment (D.T.)";"1.0";"2";"1";"1";"2";"1";"1";"2014-10-16 13:32:46.179";"2014-10-16 13:46:54.555";"1";"1";"1";"52";"51";"module.training_block2.exec-1584.GoNoGo2";;;;;;;;;;;;;;;;;;;;;;;;;;;;;;;;;;;"1261";"2014-10-16 13:37:17.276";"ST_correctStop";"32";"1";"FINISHED";"NONE";"success";"0";"1";"2014-10-16 13:37:16.012";"3";;;;;;;;;;;;;;;;;;;;;;;;;;;;;;;;;;;;;;;;;;;;;
"1322007";;;"Windows 7";"Rachel's Experiment (D.T.)";"1.0";"2";"1";"1";"2";"1";"1";"2014-10-16 13:32:46.179";"2014-10-16 13:46:54.555";"1";"1";"1";"53";"52";"module.training_block2.exec-1584.GoNoGo2";;;;;;;;;;;;;;;;;;;;;;;;;;;;;;;;;;;"1261";"2014-10-16 13:37:19.819";"ST_correctStop";"0";"0";"FINISHED";"NONE";"success";"0";"1";"2014-10-16 13:37:18.555";"1";;;;;;;;;;;;;;;;;;;;;;;;;;;;;;;;;;;;;;;;;;;;;
"1322007";;;"Windows 7";"Rachel's Experiment (D.T.)";"1.0";"2";"1";"1";"2";"1";"1";"2014-10-16 13:32:46.179";"2014-10-16 13:46:54.555";"1";"1";"1";"54";"53";"module.training_block2.exec-1584.GoNoGo2";;;;;;;;;;;;;;;;;;;;;;;;;;;;;;;;;;;"1261";"2014-10-16 13:37:22.361";"ST_correctStop";"1";"0";"FINISHED";"NONE";"success";"0";"1";"2014-10-16 13:37:21.098";"1";;;;;;;;;;;;;;;;;;;;;;;;;;;;;;;;;;;;;;;;;;;;;
"1322007";;;"Windows 7";"Rachel's Experiment (D.T.)";"1.0";"2";"1";"1";"2";"1";"1";"2014-10-16 13:32:46.179";"2014-10-16 13:46:54.555";"1";"1";"1";"55";"54";"module.training_block2.exec-1584.GoNoGo2";;;;;;;;;;;;;;;;;;;;;;;;;;;;;;;;;;;"1261";"2014-10-16 13:37:24.904";"NST_correctLoc";"34";"0";"FINISHED";"LEFT";"success";"461";"0";"2014-10-16 13:37:23.641";"3";;;;;;;;;;;;;;;;;;;;;;;;;;;;;;;;;;;;;;;;;;;;;
"1322007";;;"Windows 7";"Rachel's Experiment (D.T.)";"1.0";"2";"1";"1";"2";"1";"1";"2014-10-16 13:32:46.179";"2014-10-16 13:46:54.555";"1";"1";"1";"56";"55";"module.training_block2.exec-1584.GoNoGo2";;;;;;;;;;;;;;;;;;;;;;;;;;;;;;;;;;;"1261";"2014-10-16 13:37:27.447";"ST_failedStop";"8";"1";"FINISHED";"RIGHT";"failure";"398";"1";"2014-10-16 13:37:26.183";"1";;;;;;;;;;;;;;;;;;;;;;;;;;;;;;;;;;;;;;;;;;;;;
"1322007";;;"Windows 7";"Rachel's Experiment (D.T.)";"1.0";"2";"1";"1";"2";"1";"1";"2014-10-16 13:32:46.179";"2014-10-16 13:46:54.555";"1";"1";"1";"57";"56";"module.training_block2.exec-1584.GoNoGo2";;;;;;;;;;;;;;;;;;;;;;;;;;;;;;;;;;;"1261";"2014-10-16 13:37:29.990";"ST_correctStop";"18";"0";"FINISHED";"NONE";"success";"0";"1";"2014-10-16 13:37:28.726";"3";;;;;;;;;;;;;;;;;;;;;;;;;;;;;;;;;;;;;;;;;;;;;
"1322007";;;"Windows 7";"Rachel's Experiment (D.T.)";"1.0";"2";"1";"1";"2";"1";"1";"2014-10-16 13:32:46.179";"2014-10-16 13:46:54.555";"1";"1";"1";"58";"57";"module.training_block2.exec-1584.GoNoGo2";;;;;;;;;;;;;;;;;;;;;;;;;;;;;;;;;;;"1261";"2014-10-16 13:37:32.533";"ST_correctStop";"31";"0";"FINISHED";"NONE";"success";"0";"1";"2014-10-16 13:37:31.269";"3";;;;;;;;;;;;;;;;;;;;;;;;;;;;;;;;;;;;;;;;;;;;;
"1322007";;;"Windows 7";"Rachel's Experiment (D.T.)";"1.0";"2";"1";"1";"2";"1";"1";"2014-10-16 13:32:46.179";"2014-10-16 13:46:54.555";"1";"1";"1";"59";"58";"module.training_block2.exec-1584.GoNoGo2";;;;;;;;;;;;;;;;;;;;;;;;;;;;;;;;;;;"1261";"2014-10-16 13:37:35.075";"ST_correctStop";"21";"1";"FINISHED";"NONE";"success";"0";"1";"2014-10-16 13:37:33.812";"3";;;;;;;;;;;;;;;;;;;;;;;;;;;;;;;;;;;;;;;;;;;;;
"1322007";;;"Windows 7";"Rachel's Experiment (D.T.)";"1.0";"2";"1";"1";"2";"1";"1";"2014-10-16 13:32:46.179";"2014-10-16 13:46:54.555";"1";"1";"1";"60";"59";"module.training_block2.exec-1584.GoNoGo2";;;;;;;;;;;;;;;;;;;;;;;;;;;;;;;;;;;"1261";"2014-10-16 13:37:37.618";"ST_correctStop";"30";"0";"FINISHED";"NONE";"success";"0";"1";"2014-10-16 13:37:36.355";"3";;;;;;;;;;;;;;;;;;;;;;;;;;;;;;;;;;;;;;;;;;;;;
"1322007";;;"Windows 7";"Rachel's Experiment (D.T.)";"1.0";"2";"1";"1";"2";"1";"1";"2014-10-16 13:32:46.179";"2014-10-16 13:46:54.555";"1";"1";"1";"61";"60";"module.training_block2.exec-1584.GoNoGo2";;;;;;;;;;;;;;;;;;;;;;;;;;;;;;;;;;;"1261";"2014-10-16 13:37:40.161";"NST_correctLoc";"14";"1";"FINISHED";"RIGHT";"success";"404";"0";"2014-10-16 13:37:38.897";"2";;;;;;;;;;;;;;;;;;;;;;;;;;;;;;;;;;;;;;;;;;;;;
"1322007";;;"Windows 7";"Rachel's Experiment (D.T.)";"1.0";"2";"1";"1";"2";"1";"1";"2014-10-16 13:32:46.179";"2014-10-16 13:46:54.555";"1";"1";"1";"62";"61";"module.training_block2.exec-1584.GoNoGo2";;;;;;;;;;;;;;;;;;;;;;;;;;;;;;;;;;;"1261";"2014-10-16 13:37:42.704";"NST_correctLoc";"16";"1";"FINISHED";"RIGHT";"success";"501";"0";"2014-10-16 13:37:41.440";"2";;;;;;;;;;;;;;;;;;;;;;;;;;;;;;;;;;;;;;;;;;;;;
"1322007";;;"Windows 7";"Rachel's Experiment (D.T.)";"1.0";"2";"1";"1";"2";"1";"1";"2014-10-16 13:32:46.179";"2014-10-16 13:46:54.555";"1";"1";"1";"63";"62";"module.training_block2.exec-1584.GoNoGo2";;;;;;;;;;;;;;;;;;;;;;;;;;;;;;;;;;;"1261";"2014-10-16 13:37:45.247";"ST_correctStop";"3";"1";"FINISHED";"NONE";"success";"0";"1";"2014-10-16 13:37:43.983";"1";;;;;;;;;;;;;;;;;;;;;;;;;;;;;;;;;;;;;;;;;;;;;
"1322007";;;"Windows 7";"Rachel's Experiment (D.T.)";"1.0";"2";"1";"1";"2";"1";"1";"2014-10-16 13:32:46.179";"2014-10-16 13:46:54.555";"1";"1";"1";"64";"63";"module.training_block2.exec-1584.GoNoGo2";;;;;;;;;;;;;;;;;;;;;;;;;;;;;;;;;;;"1261";"2014-10-16 13:37:47.789";"ST_correctStop";"20";"1";"FINISHED";"NONE";"success";"0";"1";"2014-10-16 13:37:46.526";"3";;;;;;;;;;;;;;;;;;;;;;;;;;;;;;;;;;;;;;;;;;;;;
"1322007";;;"Windows 7";"Rachel's Experiment (D.T.)";"1.0";"2";"1";"1";"2";"1";"1";"2014-10-16 13:32:46.179";"2014-10-16 13:46:54.555";"1";"1";"1";"65";"64";"module.training_block2.exec-1584.GoNoGo2";;;;;;;;;;;;;;;;;;;;;;;;;;;;;;;;;;;"1261";"2014-10-16 13:37:50.332";"NST_correctLoc";"9";"1";"FINISHED";"RIGHT";"success";"344";"0";"2014-10-16 13:37:49.069";"2";;;;;;;;;;;;;;;;;;;;;;;;;;;;;;;;;;;;;;;;;;;;;
"1322007";;;"Windows 7";"Rachel's Experiment (D.T.)";"1.0";"2";"1";"1";"2";"1";"1";"2014-10-16 13:32:46.179";"2014-10-16 13:46:54.555";"1";"1";"1";"66";"65";"module.training_block2.exec-1584.GoNoGo2";;;;;;;;;;;;;;;;;;;;;;;;;;;;;;;;;;;"1261";"2014-10-16 13:37:52.875";"ST_correctStop";"2";"1";"FINISHED";"NONE";"success";"0";"1";"2014-10-16 13:37:51.612";"1";;;;;;;;;;;;;;;;;;;;;;;;;;;;;;;;;;;;;;;;;;;;;
"1322007";;;"Windows 7";"Rachel's Experiment (D.T.)";"1.0";"2";"1";"1";"2";"1";"1";"2014-10-16 13:32:46.179";"2014-10-16 13:46:54.555";"1";"1";"1";"67";"66";"module.training_block2.exec-1584.GoNoGo2";;;;;;;;;;;;;;;;;;;;;;;;;;;;;;;;;;;"1261";"2014-10-16 13:37:55.418";"NST_correctLoc";"13";"0";"FINISHED";"LEFT";"success";"435";"0";"2014-10-16 13:37:54.154";"2";;;;;;;;;;;;;;;;;;;;;;;;;;;;;;;;;;;;;;;;;;;;;
"1322007";;;"Windows 7";"Rachel's Experiment (D.T.)";"1.0";"2";"1";"1";"2";"1";"1";"2014-10-16 13:32:46.179";"2014-10-16 13:46:54.555";"1";"1";"1";"68";"67";"module.training_block2.exec-1584.GoNoGo2";;;;;;;;;;;;;;;;;;;;;;;;;;;;;;;;;;;"1261";"2014-10-16 13:37:57.961";"ST_correctStop";"26";"1";"FINISHED";"NONE";"success";"0";"1";"2014-10-16 13:37:56.697";"3";;;;;;;;;;;;;;;;;;;;;;;;;;;;;;;;;;;;;;;;;;;;;
"1322007";;;"Windows 7";"Rachel's Experiment (D.T.)";"1.0";"2";"1";"1";"2";"1";"1";"2014-10-16 13:32:46.179";"2014-10-16 13:46:54.555";"1";"1";"1";"69";"68";"module.training_block2.exec-1584.GoNoGo2";;;;;;;;;;;;;;;;;;;;;;;;;;;;;;;;;;;"1261";"2014-10-16 13:38:00.504";"NST_correctLoc";"29";"0";"FINISHED";"LEFT";"success";"677";"0";"2014-10-16 13:37:59.240";"3";;;;;;;;;;;;;;;;;;;;;;;;;;;;;;;;;;;;;;;;;;;;;
"1322007";;;"Windows 7";"Rachel's Experiment (D.T.)";"1.0";"2";"1";"1";"2";"1";"1";"2014-10-16 13:32:46.179";"2014-10-16 13:46:54.555";"1";"1";"1";"70";"69";"module.training_block2.exec-1584.GoNoGo2";;;;;;;;;;;;;;;;;;;;;;;;;;;;;;;;;;;"1261";"2014-10-16 13:38:03.046";"NST_correctLoc";"15";"1";"FINISHED";"RIGHT";"success";"414";"0";"2014-10-16 13:38:01.783";"2";;;;;;;;;;;;;;;;;;;;;;;;;;;;;;;;;;;;;;;;;;;;;
"1322007";;;"Windows 7";"Rachel's Experiment (D.T.)";"1.0";"2";"1";"1";"2";"1";"1";"2014-10-16 13:32:46.179";"2014-10-16 13:46:54.555";"1";"1";"1";"71";"70";"module.training_block2.exec-1584.GoNoGo2";;;;;;;;;;;;;;;;;;;;;;;;;;;;;;;;;;;"1261";"2014-10-16 13:38:05.589";"ST_failedStop";"7";"0";"FINISHED";"LEFT";"failure";"376";"1";"2014-10-16 13:38:04.326";"1";;;;;;;;;;;;;;;;;;;;;;;;;;;;;;;;;;;;;;;;;;;;;
"1322007";;;"Windows 7";"Rachel's Experiment (D.T.)";"1.0";"2";"1";"1";"2";"1";"1";"2014-10-16 13:32:46.179";"2014-10-16 13:46:54.555";"1";"1";"1";"72";"71";"module.training_block2.exec-1584.GoNoGo2";;;;;;;;;;;;;;;;;;;;;;;;;;;;;;;;;;;"1261";"2014-10-16 13:38:08.132";"NST_correctLoc";"17";"1";"FINISHED";"RIGHT";"success";"561";"0";"2014-10-16 13:38:06.868";"2";;;;;;;;;;;;;;;;;;;;;;;;;;;;;;;;;;;;;;;;;;;;;
"1322007";;;"Windows 7";"Rachel's Experiment (D.T.)";"1.0";"2";"1";"1";"2";"1";"1";"2014-10-16 13:32:46.179";"2014-10-16 13:46:54.555";"1";"1";"1";"73";"72";"module.training_block2.exec-1584.GoNoGo2";;;;;;;;;;;;;;;;;;;;;;;;;;;;;;;;;;;"1261";"2014-10-16 13:38:10.675";"ST_failedStop";"25";"0";"FINISHED";"LEFT";"failure";"418";"1";"2014-10-16 13:38:09.411";"3";;;;;;;;;;;;;;;;;;;;;;;;;;;;;;;;;;;;;;;;;;;;;
"1322007";;;"Windows 7";"Rachel's Experiment (D.T.)";"1.0";"2";"1";"1";"2";"1";"1";"2014-10-16 13:32:46.179";"2014-10-16 13:46:54.555";"1";"1";"1";"74";"73";"module.training_block2.exec-1584.GoNoGo2";;;;;;;;;;;;;;;;;;;;;;;;;;;;;;;;;;;"1261";"2014-10-16 13:38:13.233";"NST_correctLoc";"19";"1";"FINISHED";"RIGHT";"success";"580";"0";"2014-10-16 13:38:11.970";"3";;;;;;;;;;;;;;;;;;;;;;;;;;;;;;;;;;;;;;;;;;;;;
"1322007";;;"Windows 7";"Rachel's Experiment (D.T.)";"1.0";"2";"1";"1";"2";"1";"1";"2014-10-16 13:32:46.179";"2014-10-16 13:46:54.555";"1";"1";"1";"75";"74";"module.training_block2.exec-1584.GoNoGo2";;;;;;;;;;;;;;;;;;;;;;;;;;;;;;;;;;;"1261";"2014-10-16 13:38:15.776";"ST_correctStop";"6";"1";"FINISHED";"NONE";"success";"0";"1";"2014-10-16 13:38:14.512";"1";;;;;;;;;;;;;;;;;;;;;;;;;;;;;;;;;;;;;;;;;;;;;
"1322007";;;"Windows 7";"Rachel's Experiment (D.T.)";"1.0";"2";"1";"1";"2";"1";"1";"2014-10-16 13:32:46.179";"2014-10-16 13:46:54.555";"1";"1";"1";"76";"75";"module.training_block2.exec-1584.GoNoGo2";;;;;;;;;;;;;;;;;;;;;;;;;;;;;;;;;;;"1261";"2014-10-16 13:38:18.319";"NST_correctLoc";"24";"0";"FINISHED";"LEFT";"success";"422";"0";"2014-10-16 13:38:17.055";"3";;;;;;;;;;;;;;;;;;;;;;;;;;;;;;;;;;;;;;;;;;;;;
"1322007";;;"Windows 7";"Rachel's Experiment (D.T.)";"1.0";"2";"1";"1";"2";"1";"1";"2014-10-16 13:32:46.179";"2014-10-16 13:46:54.555";"1";"1";"1";"77";"76";"module.training_block2.exec-1584.GoNoGo2";;;;;;;;;;;;;;;;;;;;;;;;;;;;;;;;;;;"1261";"2014-10-16 13:38:20.862";"NST_correctLoc";"33";"0";"FINISHED";"LEFT";"success";"447";"0";"2014-10-16 13:38:19.598";"3";;;;;;;;;;;;;;;;;;;;;;;;;;;;;;;;;;;;;;;;;;;;;
"1322007";;;"Windows 7";"Rachel's Experiment (D.T.)";"1.0";"2";"1";"1";"2";"1";"1";"2014-10-16 13:32:46.179";"2014-10-16 13:46:54.555";"1";"1";"1";"78";"77";"module.training_block2.exec-1584.GoNoGo2";;;;;;;;;;;;;;;;;;;;;;;;;;;;;;;;;;;"1261";"2014-10-16 13:38:23.404";"ST_correctStop";"5";"0";"FINISHED";"NONE";"success";"0";"1";"2014-10-16 13:38:22.141";"1";;;;;;;;;;;;;;;;;;;;;;;;;;;;;;;;;;;;;;;;;;;;;
"1322007";;;"Windows 7";"Rachel's Experiment (D.T.)";"1.0";"2";"1";"1";"2";"1";"1";"2014-10-16 13:32:46.179";"2014-10-16 13:46:54.555";"1";"1";"1";"79";"78";"module.training_block2.exec-1584.GoNoGo2";;;;;;;;;;;;;;;;;;;;;;;;;;;;;;;;;;;"1262";"2014-10-16 13:38:25.947";"NST_correctLoc";"12";"1";"FINISHED";"RIGHT";"success";"370";"0";"2014-10-16 13:38:24.684";"2";;;;;;;;;;;;;;;;;;;;;;;;;;;;;;;;;;;;;;;;;;;;;
"1322007";;;"Windows 7";"Rachel's Experiment (D.T.)";"1.0";"2";"1";"1";"2";"1";"1";"2014-10-16 13:32:46.179";"2014-10-16 13:46:54.555";"1";"1";"1";"80";"79";"module.training_block2.exec-1584.GoNoGo2";;;;;;;;;;;;;;;;;;;;;;;;;;;;;;;;;;;"1261";"2014-10-16 13:38:28.490";"NST_correctLoc";"10";"0";"FINISHED";"LEFT";"success";"451";"0";"2014-10-16 13:38:27.226";"2";;;;;;;;;;;;;;;;;;;;;;;;;;;;;;;;;;;;;;;;;;;;;
"1322007";;;"Windows 7";"Rachel's Experiment (D.T.)";"1.0";"2";"1";"1";"2";"1";"1";"2014-10-16 13:32:46.179";"2014-10-16 13:46:54.555";"1";"1";"1";"81";"80";"module.training_block2.exec-1584.GoNoGo2";;;;;;;;;;;;;;;;;;;;;;;;;;;;;;;;;;;"1261";"2014-10-16 13:38:31.033";"ST_correctStop";"22";"0";"FINISHED";"NONE";"success";"0";"1";"2014-10-16 13:38:29.769";"3";;;;;;;;;;;;;;;;;;;;;;;;;;;;;;;;;;;;;;;;;;;;;
"1322007";;;"Windows 7";"Rachel's Experiment (D.T.)";"1.0";"2";"1";"1";"2";"1";"1";"2014-10-16 13:32:46.179";"2014-10-16 13:46:54.555";"1";"1";"1";"82";"81";"module.training_block2.exec-1584.GoNoGo2";;;;;;;;;;;;;;;;;;;;;;;;;;;;;;;;;;;"1261";"2014-10-16 13:38:33.576";"NST_correctLoc";"11";"0";"FINISHED";"LEFT";"success";"469";"0";"2014-10-16 13:38:32.312";"2";;;;;;;;;;;;;;;;;;;;;;;;;;;;;;;;;;;;;;;;;;;;;
"1322007";;;"Windows 7";"Rachel's Experiment (D.T.)";"1.0";"2";"1";"1";"2";"1";"1";"2014-10-16 13:32:46.179";"2014-10-16 13:46:54.555";"1";"1";"1";"83";"82";"module.training_block2.exec-1584.GoNoGo2";;;;;;;;;;;;;;;;;;;;;;;;;;;;;;;;;;;"1261";"2014-10-16 13:38:36.134";"NST_correctLoc";"35";"0";"FINISHED";"LEFT";"success";"447";"0";"2014-10-16 13:38:34.870";"3";;;;;;;;;;;;;;;;;;;;;;;;;;;;;;;;;;;;;;;;;;;;;
"1322007";;;"Windows 7";"Rachel's Experiment (D.T.)";"1.0";"2";"1";"1";"2";"1";"1";"2014-10-16 13:32:46.179";"2014-10-16 13:46:54.555";"1";"1";"1";"84";"83";"module.training_block2.exec-1584.GoNoGo2";;;;;;;;;;;;;;;;;;;;;;;;;;;;;;;;;;;"1261";"2014-10-16 13:38:38.677";"NST_correctLoc";"27";"1";"FINISHED";"RIGHT";"success";"376";"0";"2014-10-16 13:38:37.413";"3";;;;;;;;;;;;;;;;;;;;;;;;;;;;;;;;;;;;;;;;;;;;;
"1322007";;;"Windows 7";"Rachel's Experiment (D.T.)";"1.0";"2";"1";"1";"2";"1";"1";"2014-10-16 13:32:46.179";"2014-10-16 13:46:54.555";"1";"1";"1";"85";"84";"module.training_block2.exec-1584.GoNoGo2";;;;;;;;;;;;;;;;;;;;;;;;;;;;;;;;;;;"1261";"2014-10-16 13:38:41.220";"ST_correctStop";"4";"0";"FINISHED";"NONE";"success";"0";"1";"2014-10-16 13:38:39.956";"1";;;;;;;;;;;;;;;;;;;;;;;;;;;;;;;;;;;;;;;;;;;;;
"1322007";;;"Windows 7";"Rachel's Experiment (D.T.)";"1.0";"2";"1";"1";"2";"1";"1";"2014-10-16 13:32:46.179";"2014-10-16 13:46:54.555";"1";"1";"1";"86";"85";"module.training_block2.exec-1584.GoNoGo2";;;;;;;;;;;;;;;;;;;;;;;;;;;;;;;;;;;"1261";"2014-10-16 13:38:43.762";"NST_correctLoc";"23";"0";"FINISHED";"LEFT";"success";"442";"0";"2014-10-16 13:38:42.499";"3";;;;;;;;;;;;;;;;;;;;;;;;;;;;;;;;;;;;;;;;;;;;;
"1322007";;;"Windows 7";"Rachel's Experiment (D.T.)";"1.0";"2";"1";"1";"2";"1";"1";"2014-10-16 13:32:46.179";"2014-10-16 13:46:54.555";"1";"1";"1";"87";"86";"module.training_block2.exec-1584.GoNoGo2";;;;;;;;;;;;;;;;;;;;;;;;;;;;;;;;;;;"1261";"2014-10-16 13:38:46.321";"NST_correctLoc";"28";"0";"FINISHED";"LEFT";"success";"436";"0";"2014-10-16 13:38:45.057";"3";;;;;;;;;;;;;;;;;;;;;;;;;;;;;;;;;;;;;;;;;;;;;
"1322007";;;"Windows 7";"Rachel's Experiment (D.T.)";"1.0";"2";"1";"1";"2";"1";"1";"2014-10-16 13:32:46.179";"2014-10-16 13:46:54.555";"1";"1";"1";"88";"87";"module.training_block3.exec-4982.GoNoGo3";;;;;;;;;;;;;;;;;;;;;;;;;;;;;;;;;;;;;;;;;;;;;;;"1261";"2014-10-16 13:38:57.241";"NST_correctLoc";"21";"0";"FINISHED";"LEFT";"success";"404";"0";"2014-10-16 13:38:55.977";"3";;;;;;;;;;;;;;;;;;;;;;;;;;;;;;;;;
"1322007";;;"Windows 7";"Rachel's Experiment (D.T.)";"1.0";"2";"1";"1";"2";"1";"1";"2014-10-16 13:32:46.179";"2014-10-16 13:46:54.555";"1";"1";"1";"89";"88";"module.training_block3.exec-4982.GoNoGo3";;;;;;;;;;;;;;;;;;;;;;;;;;;;;;;;;;;;;;;;;;;;;;;"1261";"2014-10-16 13:38:59.784";"NST_correctLoc";"19";"1";"FINISHED";"RIGHT";"success";"389";"0";"2014-10-16 13:38:58.520";"3";;;;;;;;;;;;;;;;;;;;;;;;;;;;;;;;;
"1322007";;;"Windows 7";"Rachel's Experiment (D.T.)";"1.0";"2";"1";"1";"2";"1";"1";"2014-10-16 13:32:46.179";"2014-10-16 13:46:54.555";"1";"1";"1";"90";"89";"module.training_block3.exec-4982.GoNoGo3";;;;;;;;;;;;;;;;;;;;;;;;;;;;;;;;;;;;;;;;;;;;;;;"1261";"2014-10-16 13:39:02.326";"ST_correctStop";"7";"0";"FINISHED";"NONE";"success";"0";"1";"2014-10-16 13:39:01.063";"1";;;;;;;;;;;;;;;;;;;;;;;;;;;;;;;;;
"1322007";;;"Windows 7";"Rachel's Experiment (D.T.)";"1.0";"2";"1";"1";"2";"1";"1";"2014-10-16 13:32:46.179";"2014-10-16 13:46:54.555";"1";"1";"1";"91";"90";"module.training_block3.exec-4982.GoNoGo3";;;;;;;;;;;;;;;;;;;;;;;;;;;;;;;;;;;;;;;;;;;;;;;"1262";"2014-10-16 13:39:04.869";"ST_correctStop";"2";"0";"FINISHED";"NONE";"success";"0";"1";"2014-10-16 13:39:03.606";"1";;;;;;;;;;;;;;;;;;;;;;;;;;;;;;;;;
"1322007";;;"Windows 7";"Rachel's Experiment (D.T.)";"1.0";"2";"1";"1";"2";"1";"1";"2014-10-16 13:32:46.179";"2014-10-16 13:46:54.555";"1";"1";"1";"92";"91";"module.training_block3.exec-4982.GoNoGo3";;;;;;;;;;;;;;;;;;;;;;;;;;;;;;;;;;;;;;;;;;;;;;;"1261";"2014-10-16 13:39:07.412";"ST_correctStop";"25";"1";"FINISHED";"NONE";"success";"0";"1";"2014-10-16 13:39:06.148";"3";;;;;;;;;;;;;;;;;;;;;;;;;;;;;;;;;
"1322007";;;"Windows 7";"Rachel's Experiment (D.T.)";"1.0";"2";"1";"1";"2";"1";"1";"2014-10-16 13:32:46.179";"2014-10-16 13:46:54.555";"1";"1";"1";"93";"92";"module.training_block3.exec-4982.GoNoGo3";;;;;;;;;;;;;;;;;;;;;;;;;;;;;;;;;;;;;;;;;;;;;;;"1261";"2014-10-16 13:39:09.955";"NST_correctLoc";"24";"1";"FINISHED";"RIGHT";"success";"410";"0";"2014-10-16 13:39:08.691";"3";;;;;;;;;;;;;;;;;;;;;;;;;;;;;;;;;
"1322007";;;"Windows 7";"Rachel's Experiment (D.T.)";"1.0";"2";"1";"1";"2";"1";"1";"2014-10-16 13:32:46.179";"2014-10-16 13:46:54.555";"1";"1";"1";"94";"93";"module.training_block3.exec-4982.GoNoGo3";;;;;;;;;;;;;;;;;;;;;;;;;;;;;;;;;;;;;;;;;;;;;;;"1261";"2014-10-16 13:39:12.498";"NST_correctLoc";"35";"1";"FINISHED";"RIGHT";"success";"419";"0";"2014-10-16 13:39:11.234";"3";;;;;;;;;;;;;;;;;;;;;;;;;;;;;;;;;
"1322007";;;"Windows 7";"Rachel's Experiment (D.T.)";"1.0";"2";"1";"1";"2";"1";"1";"2014-10-16 13:32:46.179";"2014-10-16 13:46:54.555";"1";"1";"1";"95";"94";"module.training_block3.exec-4982.GoNoGo3";;;;;;;;;;;;;;;;;;;;;;;;;;;;;;;;;;;;;;;;;;;;;;;"1261";"2014-10-16 13:39:15.040";"ST_correctStop";"32";"0";"FINISHED";"NONE";"success";"0";"1";"2014-10-16 13:39:13.777";"3";;;;;;;;;;;;;;;;;;;;;;;;;;;;;;;;;
"1322007";;;"Windows 7";"Rachel's Experiment (D.T.)";"1.0";"2";"1";"1";"2";"1";"1";"2014-10-16 13:32:46.179";"2014-10-16 13:46:54.555";"1";"1";"1";"96";"95";"module.training_block3.exec-4982.GoNoGo3";;;;;;;;;;;;;;;;;;;;;;;;;;;;;;;;;;;;;;;;;;;;;;;"1261";"2014-10-16 13:39:17.583";"ST_correctStop";"34";"0";"FINISHED";"NONE";"success";"0";"1";"2014-10-16 13:39:16.320";"3";;;;;;;;;;;;;;;;;;;;;;;;;;;;;;;;;
"1322007";;;"Windows 7";"Rachel's Experiment (D.T.)";"1.0";"2";"1";"1";"2";"1";"1";"2014-10-16 13:32:46.179";"2014-10-16 13:46:54.555";"1";"1";"1";"97";"96";"module.training_block3.exec-4982.GoNoGo3";;;;;;;;;;;;;;;;;;;;;;;;;;;;;;;;;;;;;;;;;;;;;;;"1261";"2014-10-16 13:39:20.126";"NST_correctLoc";"14";"1";"FINISHED";"RIGHT";"success";"374";"0";"2014-10-16 13:39:18.862";"2";;;;;;;;;;;;;;;;;;;;;;;;;;;;;;;;;
"1322007";;;"Windows 7";"Rachel's Experiment (D.T.)";"1.0";"2";"1";"1";"2";"1";"1";"2014-10-16 13:32:46.179";"2014-10-16 13:46:54.555";"1";"1";"1";"98";"97";"module.training_block3.exec-4982.GoNoGo3";;;;;;;;;;;;;;;;;;;;;;;;;;;;;;;;;;;;;;;;;;;;;;;"1262";"2014-10-16 13:39:22.669";"ST_correctStop";"30";"1";"FINISHED";"NONE";"success";"0";"1";"2014-10-16 13:39:21.405";"3";;;;;;;;;;;;;;;;;;;;;;;;;;;;;;;;;
"1322007";;;"Windows 7";"Rachel's Experiment (D.T.)";"1.0";"2";"1";"1";"2";"1";"1";"2014-10-16 13:32:46.179";"2014-10-16 13:46:54.555";"1";"1";"1";"99";"98";"module.training_block3.exec-4982.GoNoGo3";;;;;;;;;;;;;;;;;;;;;;;;;;;;;;;;;;;;;;;;;;;;;;;"1262";"2014-10-16 13:39:25.212";"NST_correctLoc";"10";"0";"FINISHED";"LEFT";"success";"337";"0";"2014-10-16 13:39:23.948";"2";;;;;;;;;;;;;;;;;;;;;;;;;;;;;;;;;
"1322007";;;"Windows 7";"Rachel's Experiment (D.T.)";"1.0";"2";"1";"1";"2";"1";"1";"2014-10-16 13:32:46.179";"2014-10-16 13:46:54.555";"1";"1";"1";"100";"99";"module.training_block3.exec-4982.GoNoGo3";;;;;;;;;;;;;;;;;;;;;;;;;;;;;;;;;;;;;;;;;;;;;;;"1261";"2014-10-16 13:39:27.754";"ST_correctStop";"18";"0";"FINISHED";"NONE";"success";"0";"1";"2014-10-16 13:39:26.491";"3";;;;;;;;;;;;;;;;;;;;;;;;;;;;;;;;;
"1322007";;;"Windows 7";"Rachel's Experiment (D.T.)";"1.0";"2";"1";"1";"2";"1";"1";"2014-10-16 13:32:46.179";"2014-10-16 13:46:54.555";"1";"1";"1";"101";"100";"module.training_block3.exec-4982.GoNoGo3";;;;;;;;;;;;;;;;;;;;;;;;;;;;;;;;;;;;;;;;;;;;;;;"1262";"2014-10-16 13:39:30.297";"NST_correctLoc";"11";"0";"FINISHED";"LEFT";"success";"507";"0";"2014-10-16 13:39:29.034";"2";;;;;;;;;;;;;;;;;;;;;;;;;;;;;;;;;
"1322007";;;"Windows 7";"Rachel's Experiment (D.T.)";"1.0";"2";"1";"1";"2";"1";"1";"2014-10-16 13:32:46.179";"2014-10-16 13:46:54.555";"1";"1";"1";"102";"101";"module.training_block3.exec-4982.GoNoGo3";;;;;;;;;;;;;;;;;;;;;;;;;;;;;;;;;;;;;;;;;;;;;;;"1261";"2014-10-16 13:39:32.840";"ST_correctStop";"3";"1";"FINISHED";"NONE";"success";"0";"1";"2014-10-16 13:39:31.576";"1";;;;;;;;;;;;;;;;;;;;;;;;;;;;;;;;;
"1322007";;;"Windows 7";"Rachel's Experiment (D.T.)";"1.0";"2";"1";"1";"2";"1";"1";"2014-10-16 13:32:46.179";"2014-10-16 13:46:54.555";"1";"1";"1";"103";"102";"module.training_block3.exec-4982.GoNoGo3";;;;;;;;;;;;;;;;;;;;;;;;;;;;;;;;;;;;;;;;;;;;;;;"1262";"2014-10-16 13:39:35.383";"NST_correctLoc";"22";"1";"FINISHED";"RIGHT";"success";"405";"0";"2014-10-16 13:39:34.119";"3";;;;;;;;;;;;;;;;;;;;;;;;;;;;;;;;;
"1322007";;;"Windows 7";"Rachel's Experiment (D.T.)";"1.0";"2";"1";"1";"2";"1";"1";"2014-10-16 13:32:46.179";"2014-10-16 13:46:54.555";"1";"1";"1";"104";"103";"module.training_block3.exec-4982.GoNoGo3";;;;;;;;;;;;;;;;;;;;;;;;;;;;;;;;;;;;;;;;;;;;;;;"1261";"2014-10-16 13:39:37.926";"NST_correctLoc";"9";"0";"FINISHED";"LEFT";"success";"543";"0";"2014-10-16 13:39:36.662";"2";;;;;;;;;;;;;;;;;;;;;;;;;;;;;;;;;
"1322007";;;"Windows 7";"Rachel's Experiment (D.T.)";"1.0";"2";"1";"1";"2";"1";"1";"2014-10-16 13:32:46.179";"2014-10-16 13:46:54.555";"1";"1";"1";"105";"104";"module.training_block3.exec-4982.GoNoGo3";;;;;;;;;;;;;;;;;;;;;;;;;;;;;;;;;;;;;;;;;;;;;;;"1262";"2014-10-16 13:39:40.468";"NST_correctLoc";"15";"0";"FINISHED";"LEFT";"success";"424";"0";"2014-10-16 13:39:39.205";"2";;;;;;;;;;;;;;;;;;;;;;;;;;;;;;;;;
"1322007";;;"Windows 7";"Rachel's Experiment (D.T.)";"1.0";"2";"1";"1";"2";"1";"1";"2014-10-16 13:32:46.179";"2014-10-16 13:46:54.555";"1";"1";"1";"106";"105";"module.training_block3.exec-4982.GoNoGo3";;;;;;;;;;;;;;;;;;;;;;;;;;;;;;;;;;;;;;;;;;;;;;;"1262";"2014-10-16 13:39:43.011";"ST_correctStop";"0";"1";"FINISHED";"NONE";"success";"0";"1";"2014-10-16 13:39:41.748";"1";;;;;;;;;;;;;;;;;;;;;;;;;;;;;;;;;
"1322007";;;"Windows 7";"Rachel's Experiment (D.T.)";"1.0";"2";"1";"1";"2";"1";"1";"2014-10-16 13:32:46.179";"2014-10-16 13:46:54.555";"1";"1";"1";"107";"106";"module.training_block3.exec-4982.GoNoGo3";;;;;;;;;;;;;;;;;;;;;;;;;;;;;;;;;;;;;;;;;;;;;;;"1261";"2014-10-16 13:39:45.554";"NST_correctLoc";"12";"0";"FINISHED";"LEFT";"success";"378";"0";"2014-10-16 13:39:44.291";"2";;;;;;;;;;;;;;;;;;;;;;;;;;;;;;;;;
"1322007";;;"Windows 7";"Rachel's Experiment (D.T.)";"1.0";"2";"1";"1";"2";"1";"1";"2014-10-16 13:32:46.179";"2014-10-16 13:46:54.555";"1";"1";"1";"108";"107";"module.training_block3.exec-4982.GoNoGo3";;;;;;;;;;;;;;;;;;;;;;;;;;;;;;;;;;;;;;;;;;;;;;;"1261";"2014-10-16 13:39:48.081";"ST_correctStop";"8";"1";"FINISHED";"NONE";"success";"0";"1";"2014-10-16 13:39:46.818";"1";;;;;;;;;;;;;;;;;;;;;;;;;;;;;;;;;
"1322007";;;"Windows 7";"Rachel's Experiment (D.T.)";"1.0";"2";"1";"1";"2";"1";"1";"2014-10-16 13:32:46.179";"2014-10-16 13:46:54.555";"1";"1";"1";"109";"108";"module.training_block3.exec-4982.GoNoGo3";;;;;;;;;;;;;;;;;;;;;;;;;;;;;;;;;;;;;;;;;;;;;;;"1261";"2014-10-16 13:39:50.624";"NST_correctLoc";"16";"0";"FINISHED";"LEFT";"success";"388";"0";"2014-10-16 13:39:49.361";"2";;;;;;;;;;;;;;;;;;;;;;;;;;;;;;;;;
"1322007";;;"Windows 7";"Rachel's Experiment (D.T.)";"1.0";"2";"1";"1";"2";"1";"1";"2014-10-16 13:32:46.179";"2014-10-16 13:46:54.555";"1";"1";"1";"110";"109";"module.training_block3.exec-4982.GoNoGo3";;;;;;;;;;;;;;;;;;;;;;;;;;;;;;;;;;;;;;;;;;;;;;;"1261";"2014-10-16 13:39:53.183";"ST_correctStop";"4";"1";"FINISHED";"NONE";"success";"0";"1";"2014-10-16 13:39:51.919";"1";;;;;;;;;;;;;;;;;;;;;;;;;;;;;;;;;
"1322007";;;"Windows 7";"Rachel's Experiment (D.T.)";"1.0";"2";"1";"1";"2";"1";"1";"2014-10-16 13:32:46.179";"2014-10-16 13:46:54.555";"1";"1";"1";"111";"110";"module.training_block3.exec-4982.GoNoGo3";;;;;;;;;;;;;;;;;;;;;;;;;;;;;;;;;;;;;;;;;;;;;;;"1262";"2014-10-16 13:39:55.725";"NST_correctLoc";"13";"1";"FINISHED";"RIGHT";"success";"463";"0";"2014-10-16 13:39:54.462";"2";;;;;;;;;;;;;;;;;;;;;;;;;;;;;;;;;
"1322007";;;"Windows 7";"Rachel's Experiment (D.T.)";"1.0";"2";"1";"1";"2";"1";"1";"2014-10-16 13:32:46.179";"2014-10-16 13:46:54.555";"1";"1";"1";"112";"111";"module.training_block3.exec-4982.GoNoGo3";;;;;;;;;;;;;;;;;;;;;;;;;;;;;;;;;;;;;;;;;;;;;;;"1261";"2014-10-16 13:39:58.268";"ST_correctStop";"26";"0";"FINISHED";"NONE";"success";"0";"1";"2014-10-16 13:39:57.005";"3";;;;;;;;;;;;;;;;;;;;;;;;;;;;;;;;;
"1322007";;;"Windows 7";"Rachel's Experiment (D.T.)";"1.0";"2";"1";"1";"2";"1";"1";"2014-10-16 13:32:46.179";"2014-10-16 13:46:54.555";"1";"1";"1";"113";"112";"module.training_block3.exec-4982.GoNoGo3";;;;;;;;;;;;;;;;;;;;;;;;;;;;;;;;;;;;;;;;;;;;;;;"1262";"2014-10-16 13:40:00.795";"ST_correctStop";"33";"1";"FINISHED";"NONE";"success";"0";"1";"2014-10-16 13:39:59.532";"3";;;;;;;;;;;;;;;;;;;;;;;;;;;;;;;;;
"1322007";;;"Windows 7";"Rachel's Experiment (D.T.)";"1.0";"2";"1";"1";"2";"1";"1";"2014-10-16 13:32:46.179";"2014-10-16 13:46:54.555";"1";"1";"1";"114";"113";"module.training_block3.exec-4982.GoNoGo3";;;;;;;;;;;;;;;;;;;;;;;;;;;;;;;;;;;;;;;;;;;;;;;"1261";"2014-10-16 13:40:03.323";"ST_correctStop";"27";"1";"FINISHED";"NONE";"success";"0";"1";"2014-10-16 13:40:02.059";"3";;;;;;;;;;;;;;;;;;;;;;;;;;;;;;;;;
"1322007";;;"Windows 7";"Rachel's Experiment (D.T.)";"1.0";"2";"1";"1";"2";"1";"1";"2014-10-16 13:32:46.179";"2014-10-16 13:46:54.555";"1";"1";"1";"115";"114";"module.training_block3.exec-4982.GoNoGo3";;;;;;;;;;;;;;;;;;;;;;;;;;;;;;;;;;;;;;;;;;;;;;;"1262";"2014-10-16 13:40:05.850";"NST_correctLoc";"28";"0";"FINISHED";"LEFT";"success";"386";"0";"2014-10-16 13:40:04.586";"3";;;;;;;;;;;;;;;;;;;;;;;;;;;;;;;;;
"1322007";;;"Windows 7";"Rachel's Experiment (D.T.)";"1.0";"2";"1";"1";"2";"1";"1";"2014-10-16 13:32:46.179";"2014-10-16 13:46:54.555";"1";"1";"1";"116";"115";"module.training_block3.exec-4982.GoNoGo3";;;;;;;;;;;;;;;;;;;;;;;;;;;;;;;;;;;;;;;;;;;;;;;"1261";"2014-10-16 13:40:08.377";"ST_correctStop";"20";"0";"FINISHED";"NONE";"success";"0";"1";"2014-10-16 13:40:07.113";"3";;;;;;;;;;;;;;;;;;;;;;;;;;;;;;;;;
"1322007";;;"Windows 7";"Rachel's Experiment (D.T.)";"1.0";"2";"1";"1";"2";"1";"1";"2014-10-16 13:32:46.179";"2014-10-16 13:46:54.555";"1";"1";"1";"117";"116";"module.training_block3.exec-4982.GoNoGo3";;;;;;;;;;;;;;;;;;;;;;;;;;;;;;;;;;;;;;;;;;;;;;;"1262";"2014-10-16 13:40:10.904";"ST_correctStop";"1";"1";"FINISHED";"NONE";"success";"0";"1";"2014-10-16 13:40:09.641";"1";;;;;;;;;;;;;;;;;;;;;;;;;;;;;;;;;
"1322007";;;"Windows 7";"Rachel's Experiment (D.T.)";"1.0";"2";"1";"1";"2";"1";"1";"2014-10-16 13:32:46.179";"2014-10-16 13:46:54.555";"1";"1";"1";"118";"117";"module.training_block3.exec-4982.GoNoGo3";;;;;;;;;;;;;;;;;;;;;;;;;;;;;;;;;;;;;;;;;;;;;;;"1261";"2014-10-16 13:40:13.431";"ST_correctStop";"5";"0";"FINISHED";"NONE";"success";"0";"1";"2014-10-16 13:40:12.168";"1";;;;;;;;;;;;;;;;;;;;;;;;;;;;;;;;;
"1322007";;;"Windows 7";"Rachel's Experiment (D.T.)";"1.0";"2";"1";"1";"2";"1";"1";"2014-10-16 13:32:46.179";"2014-10-16 13:46:54.555";"1";"1";"1";"119";"118";"module.training_block3.exec-4982.GoNoGo3";;;;;;;;;;;;;;;;;;;;;;;;;;;;;;;;;;;;;;;;;;;;;;;"1261";"2014-10-16 13:40:15.959";"NST_correctLoc";"29";"0";"FINISHED";"LEFT";"success";"597";"0";"2014-10-16 13:40:14.695";"3";;;;;;;;;;;;;;;;;;;;;;;;;;;;;;;;;
"1322007";;;"Windows 7";"Rachel's Experiment (D.T.)";"1.0";"2";"1";"1";"2";"1";"1";"2014-10-16 13:32:46.179";"2014-10-16 13:46:54.555";"1";"1";"1";"120";"119";"module.training_block3.exec-4982.GoNoGo3";;;;;;;;;;;;;;;;;;;;;;;;;;;;;;;;;;;;;;;;;;;;;;;"1262";"2014-10-16 13:40:18.501";"NST_correctLoc";"31";"1";"FINISHED";"RIGHT";"success";"535";"0";"2014-10-16 13:40:17.238";"3";;;;;;;;;;;;;;;;;;;;;;;;;;;;;;;;;
"1322007";;;"Windows 7";"Rachel's Experiment (D.T.)";"1.0";"2";"1";"1";"2";"1";"1";"2014-10-16 13:32:46.179";"2014-10-16 13:46:54.555";"1";"1";"1";"121";"120";"module.training_block3.exec-4982.GoNoGo3";;;;;;;;;;;;;;;;;;;;;;;;;;;;;;;;;;;;;;;;;;;;;;;"1262";"2014-10-16 13:40:21.029";"ST_correctStop";"6";"1";"FINISHED";"NONE";"success";"0";"1";"2014-10-16 13:40:19.765";"1";;;;;;;;;;;;;;;;;;;;;;;;;;;;;;;;;
"1322007";;;"Windows 7";"Rachel's Experiment (D.T.)";"1.0";"2";"1";"1";"2";"1";"1";"2014-10-16 13:32:46.179";"2014-10-16 13:46:54.555";"1";"1";"1";"122";"121";"module.training_block3.exec-4982.GoNoGo3";;;;;;;;;;;;;;;;;;;;;;;;;;;;;;;;;;;;;;;;;;;;;;;"1262";"2014-10-16 13:40:23.556";"NST_correctLoc";"23";"1";"FINISHED";"RIGHT";"success";"561";"0";"2014-10-16 13:40:22.292";"3";;;;;;;;;;;;;;;;;;;;;;;;;;;;;;;;;
"1322007";;;"Windows 7";"Rachel's Experiment (D.T.)";"1.0";"2";"1";"1";"2";"1";"1";"2014-10-16 13:32:46.179";"2014-10-16 13:46:54.555";"1";"1";"1";"123";"122";"module.training_block3.exec-4982.GoNoGo3";;;;;;;;;;;;;;;;;;;;;;;;;;;;;;;;;;;;;;;;;;;;;;;"1261";"2014-10-16 13:40:26.083";"NST_correctLoc";"17";"1";"FINISHED";"RIGHT";"success";"401";"0";"2014-10-16 13:40:24.819";"2";;;;;;;;;;;;;;;;;;;;;;;;;;;;;;;;;
"1322007";;;"Windows 7";"Rachel's Experiment (D.T.)";"1.0";"2";"1";"1";"2";"1";"1";"2014-10-16 13:32:46.179";"2014-10-16 13:46:54.555";"1";"1";"1";"124";"123";"module.training_block4.exec-1525.GoNoGo4";;;;;;;;;;;;;;;;;;;;;;;;;;;;;;;;;;;;;;;;;;;;;;;;;;;;;;;;;;;"1261";"2014-10-16 13:40:36.878";"NST_correctLoc";"11";"1";"FINISHED";"RIGHT";"success";"398";"0";"2014-10-16 13:40:35.615";"2";;;;;;;;;;;;;;;;;;;;;
"1322007";;;"Windows 7";"Rachel's Experiment (D.T.)";"1.0";"2";"1";"1";"2";"1";"1";"2014-10-16 13:32:46.179";"2014-10-16 13:46:54.555";"1";"1";"1";"125";"124";"module.training_block4.exec-1525.GoNoGo4";;;;;;;;;;;;;;;;;;;;;;;;;;;;;;;;;;;;;;;;;;;;;;;;;;;;;;;;;;;"1262";"2014-10-16 13:40:39.405";"NST_correctLoc";"33";"1";"FINISHED";"RIGHT";"success";"422";"0";"2014-10-16 13:40:38.142";"3";;;;;;;;;;;;;;;;;;;;;
"1322007";;;"Windows 7";"Rachel's Experiment (D.T.)";"1.0";"2";"1";"1";"2";"1";"1";"2014-10-16 13:32:46.179";"2014-10-16 13:46:54.555";"1";"1";"1";"126";"125";"module.training_block4.exec-1525.GoNoGo4";;;;;;;;;;;;;;;;;;;;;;;;;;;;;;;;;;;;;;;;;;;;;;;;;;;;;;;;;;;"1262";"2014-10-16 13:40:41.933";"ST_correctStop";"30";"0";"FINISHED";"NONE";"success";"0";"1";"2014-10-16 13:40:40.669";"3";;;;;;;;;;;;;;;;;;;;;
"1322007";;;"Windows 7";"Rachel's Experiment (D.T.)";"1.0";"2";"1";"1";"2";"1";"1";"2014-10-16 13:32:46.179";"2014-10-16 13:46:54.555";"1";"1";"1";"127";"126";"module.training_block4.exec-1525.GoNoGo4";;;;;;;;;;;;;;;;;;;;;;;;;;;;;;;;;;;;;;;;;;;;;;;;;;;;;;;;;;;"1262";"2014-10-16 13:40:44.460";"NST_correctLoc";"14";"0";"FINISHED";"LEFT";"success";"416";"0";"2014-10-16 13:40:43.196";"2";;;;;;;;;;;;;;;;;;;;;
"1322007";;;"Windows 7";"Rachel's Experiment (D.T.)";"1.0";"2";"1";"1";"2";"1";"1";"2014-10-16 13:32:46.179";"2014-10-16 13:46:54.555";"1";"1";"1";"128";"127";"module.training_block4.exec-1525.GoNoGo4";;;;;;;;;;;;;;;;;;;;;;;;;;;;;;;;;;;;;;;;;;;;;;;;;;;;;;;;;;;"1262";"2014-10-16 13:40:47.003";"ST_failedStop";"0";"0";"FINISHED";"LEFT";"failure";"377";"1";"2014-10-16 13:40:45.739";"1";;;;;;;;;;;;;;;;;;;;;
"1322007";;;"Windows 7";"Rachel's Experiment (D.T.)";"1.0";"2";"1";"1";"2";"1";"1";"2014-10-16 13:32:46.179";"2014-10-16 13:46:54.555";"1";"1";"1";"129";"128";"module.training_block4.exec-1525.GoNoGo4";;;;;;;;;;;;;;;;;;;;;;;;;;;;;;;;;;;;;;;;;;;;;;;;;;;;;;;;;;;"1261";"2014-10-16 13:40:49.530";"NST_correctLoc";"34";"0";"FINISHED";"LEFT";"success";"394";"0";"2014-10-16 13:40:48.266";"3";;;;;;;;;;;;;;;;;;;;;
"1322007";;;"Windows 7";"Rachel's Experiment (D.T.)";"1.0";"2";"1";"1";"2";"1";"1";"2014-10-16 13:32:46.179";"2014-10-16 13:46:54.555";"1";"1";"1";"130";"129";"module.training_block4.exec-1525.GoNoGo4";;;;;;;;;;;;;;;;;;;;;;;;;;;;;;;;;;;;;;;;;;;;;;;;;;;;;;;;;;;"1262";"2014-10-16 13:40:52.057";"NST_correctLoc";"13";"0";"FINISHED";"LEFT";"success";"379";"0";"2014-10-16 13:40:50.793";"2";;;;;;;;;;;;;;;;;;;;;
"1322007";;;"Windows 7";"Rachel's Experiment (D.T.)";"1.0";"2";"1";"1";"2";"1";"1";"2014-10-16 13:32:46.179";"2014-10-16 13:46:54.555";"1";"1";"1";"131";"130";"module.training_block4.exec-1525.GoNoGo4";;;;;;;;;;;;;;;;;;;;;;;;;;;;;;;;;;;;;;;;;;;;;;;;;;;;;;;;;;;"1262";"2014-10-16 13:40:54.615";"ST_correctStop";"8";"0";"FINISHED";"NONE";"success";"0";"1";"2014-10-16 13:40:53.352";"1";;;;;;;;;;;;;;;;;;;;;
"1322007";;;"Windows 7";"Rachel's Experiment (D.T.)";"1.0";"2";"1";"1";"2";"1";"1";"2014-10-16 13:32:46.179";"2014-10-16 13:46:54.555";"1";"1";"1";"132";"131";"module.training_block4.exec-1525.GoNoGo4";;;;;;;;;;;;;;;;;;;;;;;;;;;;;;;;;;;;;;;;;;;;;;;;;;;;;;;;;;;"1262";"2014-10-16 13:40:57.143";"ST_correctStop";"1";"0";"FINISHED";"NONE";"success";"0";"1";"2014-10-16 13:40:55.879";"1";;;;;;;;;;;;;;;;;;;;;
"1322007";;;"Windows 7";"Rachel's Experiment (D.T.)";"1.0";"2";"1";"1";"2";"1";"1";"2014-10-16 13:32:46.179";"2014-10-16 13:46:54.555";"1";"1";"1";"133";"132";"module.training_block4.exec-1525.GoNoGo4";;;;;;;;;;;;;;;;;;;;;;;;;;;;;;;;;;;;;;;;;;;;;;;;;;;;;;;;;;;"1262";"2014-10-16 13:40:59.685";"ST_correctStop";"35";"0";"FINISHED";"NONE";"success";"0";"1";"2014-10-16 13:40:58.422";"3";;;;;;;;;;;;;;;;;;;;;
"1322007";;;"Windows 7";"Rachel's Experiment (D.T.)";"1.0";"2";"1";"1";"2";"1";"1";"2014-10-16 13:32:46.179";"2014-10-16 13:46:54.555";"1";"1";"1";"134";"133";"module.training_block4.exec-1525.GoNoGo4";;;;;;;;;;;;;;;;;;;;;;;;;;;;;;;;;;;;;;;;;;;;;;;;;;;;;;;;;;;"1262";"2014-10-16 13:41:02.213";"ST_correctStop";"25";"1";"FINISHED";"NONE";"success";"0";"1";"2014-10-16 13:41:00.949";"3";;;;;;;;;;;;;;;;;;;;;
"1322007";;;"Windows 7";"Rachel's Experiment (D.T.)";"1.0";"2";"1";"1";"2";"1";"1";"2014-10-16 13:32:46.179";"2014-10-16 13:46:54.555";"1";"1";"1";"135";"134";"module.training_block4.exec-1525.GoNoGo4";;;;;;;;;;;;;;;;;;;;;;;;;;;;;;;;;;;;;;;;;;;;;;;;;;;;;;;;;;;"1262";"2014-10-16 13:41:04.755";"NST_correctLoc";"28";"1";"FINISHED";"RIGHT";"success";"384";"0";"2014-10-16 13:41:03.492";"3";;;;;;;;;;;;;;;;;;;;;
"1322007";;;"Windows 7";"Rachel's Experiment (D.T.)";"1.0";"2";"1";"1";"2";"1";"1";"2014-10-16 13:32:46.179";"2014-10-16 13:46:54.555";"1";"1";"1";"136";"135";"module.training_block4.exec-1525.GoNoGo4";;;;;;;;;;;;;;;;;;;;;;;;;;;;;;;;;;;;;;;;;;;;;;;;;;;;;;;;;;;"1262";"2014-10-16 13:41:07.283";"ST_correctStop";"32";"0";"FINISHED";"NONE";"success";"0";"1";"2014-10-16 13:41:06.019";"3";;;;;;;;;;;;;;;;;;;;;
"1322007";;;"Windows 7";"Rachel's Experiment (D.T.)";"1.0";"2";"1";"1";"2";"1";"1";"2014-10-16 13:32:46.179";"2014-10-16 13:46:54.555";"1";"1";"1";"137";"136";"module.training_block4.exec-1525.GoNoGo4";;;;;;;;;;;;;;;;;;;;;;;;;;;;;;;;;;;;;;;;;;;;;;;;;;;;;;;;;;;"1262";"2014-10-16 13:41:09.810";"NST_correctLoc";"20";"0";"FINISHED";"LEFT";"success";"442";"0";"2014-10-16 13:41:08.546";"3";;;;;;;;;;;;;;;;;;;;;
"1322007";;;"Windows 7";"Rachel's Experiment (D.T.)";"1.0";"2";"1";"1";"2";"1";"1";"2014-10-16 13:32:46.179";"2014-10-16 13:46:54.555";"1";"1";"1";"138";"137";"module.training_block4.exec-1525.GoNoGo4";;;;;;;;;;;;;;;;;;;;;;;;;;;;;;;;;;;;;;;;;;;;;;;;;;;;;;;;;;;"1262";"2014-10-16 13:41:12.353";"ST_correctStop";"6";"1";"FINISHED";"NONE";"success";"0";"1";"2014-10-16 13:41:11.089";"1";;;;;;;;;;;;;;;;;;;;;
"1322007";;;"Windows 7";"Rachel's Experiment (D.T.)";"1.0";"2";"1";"1";"2";"1";"1";"2014-10-16 13:32:46.179";"2014-10-16 13:46:54.555";"1";"1";"1";"139";"138";"module.training_block4.exec-1525.GoNoGo4";;;;;;;;;;;;;;;;;;;;;;;;;;;;;;;;;;;;;;;;;;;;;;;;;;;;;;;;;;;"1262";"2014-10-16 13:41:14.880";"NST_correctLoc";"27";"1";"FINISHED";"RIGHT";"success";"404";"0";"2014-10-16 13:41:13.616";"3";;;;;;;;;;;;;;;;;;;;;
"1322007";;;"Windows 7";"Rachel's Experiment (D.T.)";"1.0";"2";"1";"1";"2";"1";"1";"2014-10-16 13:32:46.179";"2014-10-16 13:46:54.555";"1";"1";"1";"140";"139";"module.training_block4.exec-1525.GoNoGo4";;;;;;;;;;;;;;;;;;;;;;;;;;;;;;;;;;;;;;;;;;;;;;;;;;;;;;;;;;;"1262";"2014-10-16 13:41:17.407";"NST_correctLoc";"26";"0";"FINISHED";"LEFT";"success";"413";"0";"2014-10-16 13:41:16.143";"3";;;;;;;;;;;;;;;;;;;;;
"1322007";;;"Windows 7";"Rachel's Experiment (D.T.)";"1.0";"2";"1";"1";"2";"1";"1";"2014-10-16 13:32:46.179";"2014-10-16 13:46:54.555";"1";"1";"1";"141";"140";"module.training_block4.exec-1525.GoNoGo4";;;;;;;;;;;;;;;;;;;;;;;;;;;;;;;;;;;;;;;;;;;;;;;;;;;;;;;;;;;"1261";"2014-10-16 13:41:19.965";"NST_correctLoc";"24";"1";"FINISHED";"RIGHT";"success";"398";"0";"2014-10-16 13:41:18.702";"3";;;;;;;;;;;;;;;;;;;;;
"1322007";;;"Windows 7";"Rachel's Experiment (D.T.)";"1.0";"2";"1";"1";"2";"1";"1";"2014-10-16 13:32:46.179";"2014-10-16 13:46:54.555";"1";"1";"1";"142";"141";"module.training_block4.exec-1525.GoNoGo4";;;;;;;;;;;;;;;;;;;;;;;;;;;;;;;;;;;;;;;;;;;;;;;;;;;;;;;;;;;"1262";"2014-10-16 13:41:22.493";"NST_correctLoc";"10";"0";"FINISHED";"LEFT";"success";"399";"0";"2014-10-16 13:41:21.229";"2";;;;;;;;;;;;;;;;;;;;;
"1322007";;;"Windows 7";"Rachel's Experiment (D.T.)";"1.0";"2";"1";"1";"2";"1";"1";"2014-10-16 13:32:46.179";"2014-10-16 13:46:54.555";"1";"1";"1";"143";"142";"module.training_block4.exec-1525.GoNoGo4";;;;;;;;;;;;;;;;;;;;;;;;;;;;;;;;;;;;;;;;;;;;;;;;;;;;;;;;;;;"1262";"2014-10-16 13:41:25.035";"NST_correctLoc";"22";"0";"FINISHED";"LEFT";"success";"440";"0";"2014-10-16 13:41:23.772";"3";;;;;;;;;;;;;;;;;;;;;
"1322007";;;"Windows 7";"Rachel's Experiment (D.T.)";"1.0";"2";"1";"1";"2";"1";"1";"2014-10-16 13:32:46.179";"2014-10-16 13:46:54.555";"1";"1";"1";"144";"143";"module.training_block4.exec-1525.GoNoGo4";;;;;;;;;;;;;;;;;;;;;;;;;;;;;;;;;;;;;;;;;;;;;;;;;;;;;;;;;;;"1262";"2014-10-16 13:41:27.563";"NST_correctLoc";"15";"0";"FINISHED";"LEFT";"success";"481";"0";"2014-10-16 13:41:26.299";"2";;;;;;;;;;;;;;;;;;;;;
"1322007";;;"Windows 7";"Rachel's Experiment (D.T.)";"1.0";"2";"1";"1";"2";"1";"1";"2014-10-16 13:32:46.179";"2014-10-16 13:46:54.555";"1";"1";"1";"145";"144";"module.training_block4.exec-1525.GoNoGo4";;;;;;;;;;;;;;;;;;;;;;;;;;;;;;;;;;;;;;;;;;;;;;;;;;;;;;;;;;;"1262";"2014-10-16 13:41:30.090";"ST_correctStop";"31";"1";"FINISHED";"NONE";"success";"0";"1";"2014-10-16 13:41:28.826";"3";;;;;;;;;;;;;;;;;;;;;
"1322007";;;"Windows 7";"Rachel's Experiment (D.T.)";"1.0";"2";"1";"1";"2";"1";"1";"2014-10-16 13:32:46.179";"2014-10-16 13:46:54.555";"1";"1";"1";"146";"145";"module.training_block4.exec-1525.GoNoGo4";;;;;;;;;;;;;;;;;;;;;;;;;;;;;;;;;;;;;;;;;;;;;;;;;;;;;;;;;;;"1261";"2014-10-16 13:41:32.648";"NST_correctLoc";"12";"1";"FINISHED";"RIGHT";"success";"715";"0";"2014-10-16 13:41:31.385";"2";;;;;;;;;;;;;;;;;;;;;
"1322007";;;"Windows 7";"Rachel's Experiment (D.T.)";"1.0";"2";"1";"1";"2";"1";"1";"2014-10-16 13:32:46.179";"2014-10-16 13:46:54.555";"1";"1";"1";"147";"146";"module.training_block4.exec-1525.GoNoGo4";;;;;;;;;;;;;;;;;;;;;;;;;;;;;;;;;;;;;;;;;;;;;;;;;;;;;;;;;;;"1262";"2014-10-16 13:41:35.175";"NST_correctLoc";"17";"1";"FINISHED";"RIGHT";"success";"404";"0";"2014-10-16 13:41:33.912";"2";;;;;;;;;;;;;;;;;;;;;
"1322007";;;"Windows 7";"Rachel's Experiment (D.T.)";"1.0";"2";"1";"1";"2";"1";"1";"2014-10-16 13:32:46.179";"2014-10-16 13:46:54.555";"1";"1";"1";"148";"147";"module.training_block4.exec-1525.GoNoGo4";;;;;;;;;;;;;;;;;;;;;;;;;;;;;;;;;;;;;;;;;;;;;;;;;;;;;;;;;;;"1261";"2014-10-16 13:41:37.718";"ST_correctStop";"23";"1";"FINISHED";"NONE";"success";"0";"1";"2014-10-16 13:41:36.455";"3";;;;;;;;;;;;;;;;;;;;;
"1322007";;;"Windows 7";"Rachel's Experiment (D.T.)";"1.0";"2";"1";"1";"2";"1";"1";"2014-10-16 13:32:46.179";"2014-10-16 13:46:54.555";"1";"1";"1";"149";"148";"module.training_block4.exec-1525.GoNoGo4";;;;;;;;;;;;;;;;;;;;;;;;;;;;;;;;;;;;;;;;;;;;;;;;;;;;;;;;;;;"1262";"2014-10-16 13:41:40.246";"ST_failedStop";"19";"0";"FINISHED";"LEFT";"failure";"414";"1";"2014-10-16 13:41:38.982";"3";;;;;;;;;;;;;;;;;;;;;
"1322007";;;"Windows 7";"Rachel's Experiment (D.T.)";"1.0";"2";"1";"1";"2";"1";"1";"2014-10-16 13:32:46.179";"2014-10-16 13:46:54.555";"1";"1";"1";"150";"149";"module.training_block4.exec-1525.GoNoGo4";;;;;;;;;;;;;;;;;;;;;;;;;;;;;;;;;;;;;;;;;;;;;;;;;;;;;;;;;;;"1262";"2014-10-16 13:41:42.773";"NST_correctLoc";"16";"1";"FINISHED";"RIGHT";"success";"455";"0";"2014-10-16 13:41:41.509";"2";;;;;;;;;;;;;;;;;;;;;
"1322007";;;"Windows 7";"Rachel's Experiment (D.T.)";"1.0";"2";"1";"1";"2";"1";"1";"2014-10-16 13:32:46.179";"2014-10-16 13:46:54.555";"1";"1";"1";"151";"150";"module.training_block4.exec-1525.GoNoGo4";;;;;;;;;;;;;;;;;;;;;;;;;;;;;;;;;;;;;;;;;;;;;;;;;;;;;;;;;;;"1262";"2014-10-16 13:41:45.300";"ST_correctStop";"2";"1";"FINISHED";"NONE";"success";"0";"1";"2014-10-16 13:41:44.036";"1";;;;;;;;;;;;;;;;;;;;;
"1322007";;;"Windows 7";"Rachel's Experiment (D.T.)";"1.0";"2";"1";"1";"2";"1";"1";"2014-10-16 13:32:46.179";"2014-10-16 13:46:54.555";"1";"1";"1";"152";"151";"module.training_block4.exec-1525.GoNoGo4";;;;;;;;;;;;;;;;;;;;;;;;;;;;;;;;;;;;;;;;;;;;;;;;;;;;;;;;;;;"1262";"2014-10-16 13:41:47.827";"ST_correctStop";"3";"1";"FINISHED";"NONE";"success";"0";"1";"2014-10-16 13:41:46.564";"1";;;;;;;;;;;;;;;;;;;;;
"1322007";;;"Windows 7";"Rachel's Experiment (D.T.)";"1.0";"2";"1";"1";"2";"1";"1";"2014-10-16 13:32:46.179";"2014-10-16 13:46:54.555";"1";"1";"1";"153";"152";"module.training_block4.exec-1525.GoNoGo4";;;;;;;;;;;;;;;;;;;;;;;;;;;;;;;;;;;;;;;;;;;;;;;;;;;;;;;;;;;"1262";"2014-10-16 13:41:50.354";"ST_correctStop";"5";"0";"FINISHED";"NONE";"success";"0";"1";"2014-10-16 13:41:49.091";"1";;;;;;;;;;;;;;;;;;;;;
"1322007";;;"Windows 7";"Rachel's Experiment (D.T.)";"1.0";"2";"1";"1";"2";"1";"1";"2014-10-16 13:32:46.179";"2014-10-16 13:46:54.555";"1";"1";"1";"154";"153";"module.training_block4.exec-1525.GoNoGo4";;;;;;;;;;;;;;;;;;;;;;;;;;;;;;;;;;;;;;;;;;;;;;;;;;;;;;;;;;;"1262";"2014-10-16 13:41:52.882";"ST_correctStop";"4";"1";"FINISHED";"NONE";"success";"0";"1";"2014-10-16 13:41:51.618";"1";;;;;;;;;;;;;;;;;;;;;
"1322007";;;"Windows 7";"Rachel's Experiment (D.T.)";"1.0";"2";"1";"1";"2";"1";"1";"2014-10-16 13:32:46.179";"2014-10-16 13:46:54.555";"1";"1";"1";"155";"154";"module.training_block4.exec-1525.GoNoGo4";;;;;;;;;;;;;;;;;;;;;;;;;;;;;;;;;;;;;;;;;;;;;;;;;;;;;;;;;;;"1262";"2014-10-16 13:41:55.409";"NST_correctLoc";"9";"0";"FINISHED";"LEFT";"success";"443";"0";"2014-10-16 13:41:54.145";"2";;;;;;;;;;;;;;;;;;;;;
"1322007";;;"Windows 7";"Rachel's Experiment (D.T.)";"1.0";"2";"1";"1";"2";"1";"1";"2014-10-16 13:32:46.179";"2014-10-16 13:46:54.555";"1";"1";"1";"156";"155";"module.training_block4.exec-1525.GoNoGo4";;;;;;;;;;;;;;;;;;;;;;;;;;;;;;;;;;;;;;;;;;;;;;;;;;;;;;;;;;;"1262";"2014-10-16 13:41:57.952";"ST_correctStop";"7";"1";"FINISHED";"NONE";"success";"0";"1";"2014-10-16 13:41:56.688";"1";;;;;;;;;;;;;;;;;;;;;
"1322007";;;"Windows 7";"Rachel's Experiment (D.T.)";"1.0";"2";"1";"1";"2";"1";"1";"2014-10-16 13:32:46.179";"2014-10-16 13:46:54.555";"1";"1";"1";"157";"156";"module.training_block4.exec-1525.GoNoGo4";;;;;;;;;;;;;;;;;;;;;;;;;;;;;;;;;;;;;;;;;;;;;;;;;;;;;;;;;;;"1262";"2014-10-16 13:42:00.479";"ST_correctStop";"21";"0";"FINISHED";"NONE";"success";"0";"1";"2014-10-16 13:41:59.215";"3";;;;;;;;;;;;;;;;;;;;;
"1322007";;;"Windows 7";"Rachel's Experiment (D.T.)";"1.0";"2";"1";"1";"2";"1";"1";"2014-10-16 13:32:46.179";"2014-10-16 13:46:54.555";"1";"1";"1";"158";"157";"module.training_block4.exec-1525.GoNoGo4";;;;;;;;;;;;;;;;;;;;;;;;;;;;;;;;;;;;;;;;;;;;;;;;;;;;;;;;;;;"1262";"2014-10-16 13:42:03.006";"NST_correctLoc";"18";"0";"FINISHED";"LEFT";"success";"461";"0";"2014-10-16 13:42:01.742";"3";;;;;;;;;;;;;;;;;;;;;
"1322007";;;"Windows 7";"Rachel's Experiment (D.T.)";"1.0";"2";"1";"1";"2";"1";"1";"2014-10-16 13:32:46.179";"2014-10-16 13:46:54.555";"1";"1";"1";"159";"158";"module.training_block4.exec-1525.GoNoGo4";;;;;;;;;;;;;;;;;;;;;;;;;;;;;;;;;;;;;;;;;;;;;;;;;;;;;;;;;;;"1261";"2014-10-16 13:42:05.533";"ST_correctStop";"29";"1";"FINISHED";"NONE";"success";"0";"1";"2014-10-16 13:42:04.270";"3";;;;;;;;;;;;;;;;;;;;;
"1322007";;;"Windows 7";"Rachel's Experiment (D.T.)";"1.0";"2";"1";"1";"2";"1";"1";"2014-10-16 13:32:46.179";"2014-10-16 13:46:54.555";"1";"1";"1";"160";"159";"module.devaluation_practice.exec-5687.devalPractice";;;;;;;;;;;;"9177";"2014-10-16 13:42:49.775";"0";"5";"2";"5";"1849";"2516";"1761";"2014-10-16 13:42:40.602";;;;;;;;;;;;;;;;;;;;;;;;;;;;;;;;;;;;;;;;;;;;;;;;;;;;;;;;;;;;;;;;;;;;;;
"1322007";;;"Windows 7";"Rachel's Experiment (D.T.)";"1.0";"2";"1";"1";"2";"1";"1";"2014-10-16 13:32:46.179";"2014-10-16 13:46:54.555";"1";"1";"1";"161";"160";"module.devaluation_practice.exec-5687.devalPractice";;;;;;;;;;;;"11817";"2014-10-16 13:43:01.631";"1";"5";"4";"6";"2933";"2492";"3360";"2014-10-16 13:42:49.822";;;;;;;;;;;;;;;;;;;;;;;;;;;;;;;;;;;;;;;;;;;;;;;;;;;;;;;;;;;;;;;;;;;;;;
"1322007";;;"Windows 7";"Rachel's Experiment (D.T.)";"1.0";"2";"1";"1";"2";"1";"1";"2014-10-16 13:32:46.179";"2014-10-16 13:46:54.555";"1";"1";"1";"162";"161";"module.devaluation_practice.exec-5687.devalPractice";;;;;;;;;;;;"9356";"2014-10-16 13:43:11.006";"2";"5";"3";"8";"2670";"1821";"1824";"2014-10-16 13:43:01.662";;;;;;;;;;;;;;;;;;;;;;;;;;;;;;;;;;;;;;;;;;;;;;;;;;;;;;;;;;;;;;;;;;;;;;
"1322007";;;"Windows 7";"Rachel's Experiment (D.T.)";"1.0";"2";"1";"1";"2";"1";"1";"2014-10-16 13:32:46.179";"2014-10-16 13:46:54.555";"1";"1";"1";"163";"162";"module.devaluation_practice.exec-5687.devalPractice";;;;;;;;;;;;"9035";"2014-10-16 13:43:20.070";"3";"4";"1";"5";"1909";"2625";"1472";"2014-10-16 13:43:11.038";;;;;;;;;;;;;;;;;;;;;;;;;;;;;;;;;;;;;;;;;;;;;;;;;;;;;;;;;;;;;;;;;;;;;;
"1322007";;;"Windows 7";"Rachel's Experiment (D.T.)";"1.0";"2";"1";"1";"2";"1";"1";"2014-10-16 13:32:46.179";"2014-10-16 13:46:54.555";"1";"1";"1";"164";"163";"module.devaluation_block1.exec-4881.deval1";"7134";"2014-10-16 13:43:31.146";"0";"5";"5";"5";"2132";"835";"1144";"2014-10-16 13:43:24.017";"1";;;;;;;;;;;;;;;;;;;;;;;;;;;;;;;;;;;;;;;;;;;;;;;;;;;;;;;;;;;;;;;;;;;;;;;;;;;;;;;;
"1322007";;;"Windows 7";"Rachel's Experiment (D.T.)";"1.0";"2";"1";"1";"2";"1";"1";"2014-10-16 13:32:46.179";"2014-10-16 13:46:54.555";"1";"1";"1";"165";"164";"module.devaluation_block1.exec-4881.deval1";"6605";"2014-10-16 13:43:37.776";"26";"7";"2";"6";"1036";"1117";"1420";"2014-10-16 13:43:31.177";"3";;;;;;;;;;;;;;;;;;;;;;;;;;;;;;;;;;;;;;;;;;;;;;;;;;;;;;;;;;;;;;;;;;;;;;;;;;;;;;;;
"1322007";;;"Windows 7";"Rachel's Experiment (D.T.)";"1.0";"2";"1";"1";"2";"1";"1";"2014-10-16 13:32:46.179";"2014-10-16 13:46:54.555";"1";"1";"1";"166";"165";"module.devaluation_block1.exec-4881.deval1";"10304";"2014-10-16 13:43:48.103";"6";"3";"5";"7";"1406";"3895";"1975";"2014-10-16 13:43:37.807";"1";;;;;;;;;;;;;;;;;;;;;;;;;;;;;;;;;;;;;;;;;;;;;;;;;;;;;;;;;;;;;;;;;;;;;;;;;;;;;;;;
"1322007";;;"Windows 7";"Rachel's Experiment (D.T.)";"1.0";"2";"1";"1";"2";"1";"1";"2014-10-16 13:32:46.179";"2014-10-16 13:46:54.555";"1";"1";"1";"167";"166";"module.devaluation_block1.exec-4881.deval1";"8628";"2014-10-16 13:43:56.761";"15";"3";"1";"3";"1767";"1794";"2033";"2014-10-16 13:43:48.135";"2";;;;;;;;;;;;;;;;;;;;;;;;;;;;;;;;;;;;;;;;;;;;;;;;;;;;;;;;;;;;;;;;;;;;;;;;;;;;;;;;
"1322007";;;"Windows 7";"Rachel's Experiment (D.T.)";"1.0";"2";"1";"1";"2";"1";"1";"2014-10-16 13:32:46.179";"2014-10-16 13:46:54.555";"1";"1";"1";"168";"167";"module.devaluation_block1.exec-4881.deval1";"7917";"2014-10-16 13:44:04.686";"21";"5";"1";"5";"1812";"1930";"1136";"2014-10-16 13:43:56.777";"3";;;;;;;;;;;;;;;;;;;;;;;;;;;;;;;;;;;;;;;;;;;;;;;;;;;;;;;;;;;;;;;;;;;;;;;;;;;;;;;;
"1322007";;;"Windows 7";"Rachel's Experiment (D.T.)";"1.0";"2";"1";"1";"2";"1";"1";"2014-10-16 13:32:46.179";"2014-10-16 13:46:54.555";"1";"1";"1";"169";"168";"module.devaluation_block1.exec-4881.deval1";"9917";"2014-10-16 13:44:14.733";"5";"4";"7";"8";"3658";"2058";"1151";"2014-10-16 13:44:04.811";"1";;;;;;;;;;;;;;;;;;;;;;;;;;;;;;;;;;;;;;;;;;;;;;;;;;;;;;;;;;;;;;;;;;;;;;;;;;;;;;;;
"1322007";;;"Windows 7";"Rachel's Experiment (D.T.)";"1.0";"2";"1";"1";"2";"1";"1";"2014-10-16 13:32:46.179";"2014-10-16 13:46:54.555";"1";"1";"1";"170";"169";"module.devaluation_block1.exec-4881.deval1";"6307";"2014-10-16 13:44:21.066";"11";"5";"7";"5";"49";"1193";"2032";"2014-10-16 13:44:14.764";"2";;;;;;;;;;;;;;;;;;;;;;;;;;;;;;;;;;;;;;;;;;;;;;;;;;;;;;;;;;;;;;;;;;;;;;;;;;;;;;;;
"1322007";;;"Windows 7";"Rachel's Experiment (D.T.)";"1.0";"2";"1";"1";"2";"1";"1";"2014-10-16 13:32:46.179";"2014-10-16 13:46:54.555";"1";"1";"1";"171";"170";"module.devaluation_block1.exec-4881.deval1";"6900";"2014-10-16 13:44:27.993";"25";"2";"5";"7";"1635";"485";"1747";"2014-10-16 13:44:21.082";"3";;;;;;;;;;;;;;;;;;;;;;;;;;;;;;;;;;;;;;;;;;;;;;;;;;;;;;;;;;;;;;;;;;;;;;;;;;;;;;;;
"1322007";;;"Windows 7";"Rachel's Experiment (D.T.)";"1.0";"2";"1";"1";"2";"1";"1";"2014-10-16 13:32:46.179";"2014-10-16 13:46:54.555";"1";"1";"1";"172";"171";"module.devaluation_block1.exec-4881.deval1";"9461";"2014-10-16 13:44:37.462";"19";"7";"6";"9";"3541";"1494";"1397";"2014-10-16 13:44:28.008";"3";;;;;;;;;;;;;;;;;;;;;;;;;;;;;;;;;;;;;;;;;;;;;;;;;;;;;;;;;;;;;;;;;;;;;;;;;;;;;;;;
"1322007";;;"Windows 7";"Rachel's Experiment (D.T.)";"1.0";"2";"1";"1";"2";"1";"1";"2014-10-16 13:32:46.179";"2014-10-16 13:46:54.555";"1";"1";"1";"173";"172";"module.devaluation_block1.exec-4881.deval1";"7605";"2014-10-16 13:44:45.090";"20";"5";"1";"4";"1560";"1489";"1517";"2014-10-16 13:44:37.493";"3";;;;;;;;;;;;;;;;;;;;;;;;;;;;;;;;;;;;;;;;;;;;;;;;;;;;;;;;;;;;;;;;;;;;;;;;;;;;;;;;
"1322007";;;"Windows 7";"Rachel's Experiment (D.T.)";"1.0";"2";"1";"1";"2";"1";"1";"2014-10-16 13:32:46.179";"2014-10-16 13:46:54.555";"1";"1";"1";"174";"173";"module.devaluation_block1.exec-4881.deval1";"8474";"2014-10-16 13:44:53.592";"14";"7";"1";"5";"2404";"1452";"1583";"2014-10-16 13:44:45.121";"2";;;;;;;;;;;;;;;;;;;;;;;;;;;;;;;;;;;;;;;;;;;;;;;;;;;;;;;;;;;;;;;;;;;;;;;;;;;;;;;;
"1322007";;;"Windows 7";"Rachel's Experiment (D.T.)";"1.0";"2";"1";"1";"2";"1";"1";"2014-10-16 13:32:46.179";"2014-10-16 13:46:54.555";"1";"1";"1";"175";"174";"module.devaluation_block1.exec-4881.deval1";"7620";"2014-10-16 13:45:01.236";"16";"3";"1";"3";"1693";"1214";"1694";"2014-10-16 13:44:53.608";"2";;;;;;;;;;;;;;;;;;;;;;;;;;;;;;;;;;;;;;;;;;;;;;;;;;;;;;;;;;;;;;;;;;;;;;;;;;;;;;;;
"1322007";;;"Windows 7";"Rachel's Experiment (D.T.)";"1.0";"2";"1";"1";"2";"1";"1";"2014-10-16 13:32:46.179";"2014-10-16 13:46:54.555";"1";"1";"1";"176";"175";"module.devaluation_block1.exec-4881.deval1";"7597";"2014-10-16 13:45:08.849";"23";"7";"1";"5";"1977";"1638";"961";"2014-10-16 13:45:01.252";"3";;;;;;;;;;;;;;;;;;;;;;;;;;;;;;;;;;;;;;;;;;;;;;;;;;;;;;;;;;;;;;;;;;;;;;;;;;;;;;;;
"1322007";;;"Windows 7";"Rachel's Experiment (D.T.)";"1.0";"2";"1";"1";"2";"1";"1";"2014-10-16 13:32:46.179";"2014-10-16 13:46:54.555";"1";"1";"1";"177";"176";"module.devaluation_block1.exec-4881.deval1";"7741";"2014-10-16 13:45:16.602";"13";"2";"5";"7";"2084";"1006";"1623";"2014-10-16 13:45:08.865";"2";;;;;;;;;;;;;;;;;;;;;;;;;;;;;;;;;;;;;;;;;;;;;;;;;;;;;;;;;;;;;;;;;;;;;;;;;;;;;;;;
"1322007";;;"Windows 7";"Rachel's Experiment (D.T.)";"1.0";"2";"1";"1";"2";"1";"1";"2014-10-16 13:32:46.179";"2014-10-16 13:46:54.555";"1";"1";"1";"178";"177";"module.devaluation_block1.exec-4881.deval1";"8013";"2014-10-16 13:45:24.636";"12";"7";"8";"8";"795";"2626";"1557";"2014-10-16 13:45:16.618";"2";;;;;;;;;;;;;;;;;;;;;;;;;;;;;;;;;;;;;;;;;;;;;;;;;;;;;;;;;;;;;;;;;;;;;;;;;;;;;;;;
"1322007";;;"Windows 7";"Rachel's Experiment (D.T.)";"1.0";"2";"1";"1";"2";"1";"1";"2014-10-16 13:32:46.179";"2014-10-16 13:46:54.555";"1";"1";"1";"179";"178";"module.devaluation_block1.exec-4881.deval1";"9402";"2014-10-16 13:45:34.059";"22";"7";"6";"7";"1217";"3875";"1278";"2014-10-16 13:45:24.652";"3";;;;;;;;;;;;;;;;;;;;;;;;;;;;;;;;;;;;;;;;;;;;;;;;;;;;;;;;;;;;;;;;;;;;;;;;;;;;;;;;
"1322007";;;"Windows 7";"Rachel's Experiment (D.T.)";"1.0";"2";"1";"1";"2";"1";"1";"2014-10-16 13:32:46.179";"2014-10-16 13:46:54.555";"1";"1";"1";"180";"179";"module.devaluation_block1.exec-4881.deval1";"8181";"2014-10-16 13:45:42.264";"4";"8";"8";"9";"2459";"1046";"1663";"2014-10-16 13:45:34.074";"1";;;;;;;;;;;;;;;;;;;;;;;;;;;;;;;;;;;;;;;;;;;;;;;;;;;;;;;;;;;;;;;;;;;;;;;;;;;;;;;;
"1322007";;;"Windows 7";"Rachel's Experiment (D.T.)";"1.0";"2";"1";"1";"2";"1";"1";"2014-10-16 13:32:46.179";"2014-10-16 13:46:54.555";"1";"1";"1";"181";"180";"module.devaluation_block1.exec-4881.deval1";"6440";"2014-10-16 13:45:48.723";"2";"3";"2";"5";"1373";"1106";"917";"2014-10-16 13:45:42.280";"1";;;;;;;;;;;;;;;;;;;;;;;;;;;;;;;;;;;;;;;;;;;;;;;;;;;;;;;;;;;;;;;;;;;;;;;;;;;;;;;;
"1322007";;;"Windows 7";"Rachel's Experiment (D.T.)";"1.0";"2";"1";"1";"2";"1";"1";"2014-10-16 13:32:46.179";"2014-10-16 13:46:54.555";"1";"1";"1";"182";"181";"module.devaluation_block1.exec-4881.deval1";"7773";"2014-10-16 13:45:56.523";"3";"4";"5";"8";"1443";"1520";"1781";"2014-10-16 13:45:48.754";"1";;;;;;;;;;;;;;;;;;;;;;;;;;;;;;;;;;;;;;;;;;;;;;;;;;;;;;;;;;;;;;;;;;;;;;;;;;;;;;;;
"1322007";;;"Windows 7";"Rachel's Experiment (D.T.)";"1.0";"2";"1";"1";"2";"1";"1";"2014-10-16 13:32:46.179";"2014-10-16 13:46:54.555";"1";"1";"1";"183";"182";"module.devaluation_block1.exec-4881.deval1";"8268";"2014-10-16 13:46:04.806";"17";"3";"1";"2";"2954";"1119";"1171";"2014-10-16 13:45:56.538";"2";;;;;;;;;;;;;;;;;;;;;;;;;;;;;;;;;;;;;;;;;;;;;;;;;;;;;;;;;;;;;;;;;;;;;;;;;;;;;;;;
"1322007";;;"Windows 7";"Rachel's Experiment (D.T.)";"1.0";"2";"1";"1";"2";"1";"1";"2014-10-16 13:32:46.179";"2014-10-16 13:46:54.555";"1";"1";"1";"184";"183";"module.devaluation_block1.exec-4881.deval1";"6054";"2014-10-16 13:46:10.890";"9";"3";"2";"5";"1127";"950";"937";"2014-10-16 13:46:04.838";"2";;;;;;;;;;;;;;;;;;;;;;;;;;;;;;;;;;;;;;;;;;;;;;;;;;;;;;;;;;;;;;;;;;;;;;;;;;;;;;;;
"1322007";;;"Windows 7";"Rachel's Experiment (D.T.)";"1.0";"2";"1";"1";"2";"1";"1";"2014-10-16 13:32:46.179";"2014-10-16 13:46:54.555";"1";"1";"1";"185";"184";"module.devaluation_block1.exec-4881.deval1";"5644";"2014-10-16 13:46:16.553";"1";"5";"2";"7";"475";"780";"1356";"2014-10-16 13:46:10.906";"1";;;;;;;;;;;;;;;;;;;;;;;;;;;;;;;;;;;;;;;;;;;;;;;;;;;;;;;;;;;;;;;;;;;;;;;;;;;;;;;;
"1322007";;;"Windows 7";"Rachel's Experiment (D.T.)";"1.0";"2";"1";"1";"2";"1";"1";"2014-10-16 13:32:46.179";"2014-10-16 13:46:54.555";"1";"1";"1";"186";"185";"module.devaluation_block1.exec-4881.deval1";"7645";"2014-10-16 13:46:24.228";"10";"6";"3";"7";"2340";"1081";"1189";"2014-10-16 13:46:16.584";"2";;;;;;;;;;;;;;;;;;;;;;;;;;;;;;;;;;;;;;;;;;;;;;;;;;;;;;;;;;;;;;;;;;;;;;;;;;;;;;;;
"1322007";;;"Windows 7";"Rachel's Experiment (D.T.)";"1.0";"2";"1";"1";"2";"1";"1";"2014-10-16 13:32:46.179";"2014-10-16 13:46:54.555";"1";"1";"1";"187";"186";"module.devaluation_block1.exec-4881.deval1";"6853";"2014-10-16 13:46:31.092";"18";"3";"1";"5";"1865";"949";"1022";"2014-10-16 13:46:24.244";"3";;;;;;;;;;;;;;;;;;;;;;;;;;;;;;;;;;;;;;;;;;;;;;;;;;;;;;;;;;;;;;;;;;;;;;;;;;;;;;;;
"1322007";;;"Windows 7";"Rachel's Experiment (D.T.)";"1.0";"2";"1";"1";"2";"1";"1";"2014-10-16 13:32:46.179";"2014-10-16 13:46:54.555";"1";"1";"1";"188";"187";"module.devaluation_block1.exec-4881.deval1";"8905";"2014-10-16 13:46:40.031";"7";"4";"1";"5";"4193";"1016";"681";"2014-10-16 13:46:31.124";"1";;;;;;;;;;;;;;;;;;;;;;;;;;;;;;;;;;;;;;;;;;;;;;;;;;;;;;;;;;;;;;;;;;;;;;;;;;;;;;;;
"1322007";;;"Windows 7";"Rachel's Experiment (D.T.)";"1.0";"2";"1";"1";"2";"1";"1";"2014-10-16 13:32:46.179";"2014-10-16 13:46:54.555";"1";"1";"1";"189";"188";"module.devaluation_block1.exec-4881.deval1";"6389";"2014-10-16 13:46:46.443";"8";"4";"1";"5";"1414";"981";"975";"2014-10-16 13:46:40.047";"1";;;;;;;;;;;;;;;;;;;;;;;;;;;;;;;;;;;;;;;;;;;;;;;;;;;;;;;;;;;;;;;;;;;;;;;;;;;;;;;;
"1322007";;;"Windows 7";"Rachel's Experiment (D.T.)";"1.0";"2";"1";"1";"2";"1";"1";"2014-10-16 13:32:46.179";"2014-10-16 13:46:54.555";"1";"1";"1";"190";"189";"module.devaluation_block1.exec-4881.deval1";"5749";"2014-10-16 13:46:52.199";"24";"3";"3";"7";"722";"915";"1074";"2014-10-16 13:46:46.458";"3";;;;;;;;;;;;;;;;;;;;;;;;;;;;;;;;;;;;;;;;;;;;;;;;;;;;;;;;;;;;;;;;;;;;;;;;;;;;;;;;
