"user.name";"user.yearOfBirth";"user.sex";"user.osName";"module.name";"module.version";"module.online.subject.code";"module.online.study.id";"module.online.module.nr";"module.online.group.nr";"session.id";"session.index";"session.startTime";"session.endTime";"session.completed";"session.node-2039.conditionType";"session.node-5506.DevalQorder";"trial.id";"trial.index";"trial.name";"trial.deval1.durationTime";"trial.deval1.endTime";"trial.deval1.icon";"trial.deval1.Resp_Attractive";"trial.deval1.Resp_Eat";"trial.deval1.Resp_Taste";"trial.deval1.RT_Attractive";"trial.deval1.RT_Eat";"trial.deval1.RT_Taste";"trial.deval1.startTime";"trial.deval1.stimulus type";"trial.devalPractice.durationTime";"trial.devalPractice.endTime";"trial.devalPractice.icon";"trial.devalPractice.Resp_Attractive";"trial.devalPractice.Resp_Eat";"trial.devalPractice.Resp_Taste";"trial.devalPractice.RT_Attractive";"trial.devalPractice.RT_Eat";"trial.devalPractice.RT_Taste";"trial.devalPractice.startTime";"trial.devalPractice.stimulus type";"trial.GoNoGo1.durationTime";"trial.GoNoGo1.endTime";"trial.GoNoGo1.Error Type";"trial.GoNoGo1.icon";"trial.GoNoGo1.location";"trial.GoNoGo1.outcome";"trial.GoNoGo1.response";"trial.GoNoGo1.result";"trial.GoNoGo1.RT";"trial.GoNoGo1.signal";"trial.GoNoGo1.startTime";"trial.GoNoGo1.stimulus type";"trial.GoNoGo2.durationTime";"trial.GoNoGo2.endTime";"trial.GoNoGo2.Error Type";"trial.GoNoGo2.icon";"trial.GoNoGo2.location";"trial.GoNoGo2.outcome";"trial.GoNoGo2.response";"trial.GoNoGo2.result";"trial.GoNoGo2.RT";"trial.GoNoGo2.signal";"trial.GoNoGo2.startTime";"trial.GoNoGo2.stimulus type";"trial.GoNoGo3.durationTime";"trial.GoNoGo3.endTime";"trial.GoNoGo3.Error Type";"trial.GoNoGo3.icon";"trial.GoNoGo3.location";"trial.GoNoGo3.outcome";"trial.GoNoGo3.response";"trial.GoNoGo3.result";"trial.GoNoGo3.RT";"trial.GoNoGo3.signal";"trial.GoNoGo3.startTime";"trial.GoNoGo3.stimulus type";"trial.GoNoGo4.durationTime";"trial.GoNoGo4.endTime";"trial.GoNoGo4.Error Type";"trial.GoNoGo4.icon";"trial.GoNoGo4.location";"trial.GoNoGo4.outcome";"trial.GoNoGo4.response";"trial.GoNoGo4.result";"trial.GoNoGo4.RT";"trial.GoNoGo4.signal";"trial.GoNoGo4.startTime";"trial.GoNoGo4.stimulus type";"trial.GoNoGo_Practice.durationTime";"trial.GoNoGo_Practice.endTime";"trial.GoNoGo_Practice.icon";"trial.GoNoGo_Practice.location";"trial.GoNoGo_Practice.outcome";"trial.GoNoGo_Practice.response";"trial.GoNoGo_Practice.result";"trial.GoNoGo_Practice.RT";"trial.GoNoGo_Practice.signal";"trial.GoNoGo_Practice.startTime";"trial.GoNoGo_Practice.stimulus type";"trial.GoNoGo_Tutorial.durationTime";"trial.GoNoGo_Tutorial.endTime";"trial.GoNoGo_Tutorial.icon";"trial.GoNoGo_Tutorial.location";"trial.GoNoGo_Tutorial.outcome";"trial.GoNoGo_Tutorial.response";"trial.GoNoGo_Tutorial.result";"trial.GoNoGo_Tutorial.RT";"trial.GoNoGo_Tutorial.signal";"trial.GoNoGo_Tutorial.startTime"
"n12345";;;"Windows 7";"Rachel's Experiment (D.T.)";"1.0";"2";"1";"1";"2";"1";"1";"2014-10-03 10:41:57.923";"2014-10-03 10:56:29.572";"1";"1";"0";"1";"0";"module.GoNoGotutorial.exec-8771.GoNoGo_Tutorial";;;;;;;;;;;;;;;;;;;;;;;;;;;;;;;;;;;;;;;;;;;;;;;;;;;;;;;;;;;;;;;;;;;;;;;;;;;;;;;;;;"4001";"2014-10-03 10:43:05.127";"leftResponse";"0";"FINISHED";"LEFT";"success";"1175";"0";"2014-10-03 10:43:01.118"
"n12345";;;"Windows 7";"Rachel's Experiment (D.T.)";"1.0";"2";"1";"1";"2";"1";"1";"2014-10-03 10:41:57.923";"2014-10-03 10:56:29.572";"1";"1";"0";"2";"1";"module.GoNoGotutorial.exec-8771.GoNoGo_Tutorial";;;;;;;;;;;;;;;;;;;;;;;;;;;;;;;;;;;;;;;;;;;;;;;;;;;;;;;;;;;;;;;;;;;;;;;;;;;;;;;;;;"4003";"2014-10-03 10:43:10.431";"rightResponse";"1";"FINISHED";"RIGHT";"success";"882";"0";"2014-10-03 10:43:06.422"
"n12345";;;"Windows 7";"Rachel's Experiment (D.T.)";"1.0";"2";"1";"1";"2";"1";"1";"2014-10-03 10:41:57.923";"2014-10-03 10:56:29.572";"1";"1";"0";"3";"2";"module.GoNoGotutorial.exec-8771.GoNoGo_Tutorial";;;;;;;;;;;;;;;;;;;;;;;;;;;;;;;;;;;;;;;;;;;;;;;;;;;;;;;;;;;;;;;;;;;;;;;;;;;;;;;;;;"4003";"2014-10-03 10:43:15.735";"signalResponse";"0";"FINISHED";"NONE";"success";"0";"1";"2014-10-03 10:43:11.726"
"n12345";;;"Windows 7";"Rachel's Experiment (D.T.)";"1.0";"2";"1";"1";"2";"1";"1";"2014-10-03 10:41:57.923";"2014-10-03 10:56:29.572";"1";"1";"0";"4";"3";"module.GoNoGopractice.exec-8760.GoNoGo_Practice";;;;;;;;;;;;;;;;;;;;;;;;;;;;;;;;;;;;;;;;;;;;;;;;;;;;;;;;;;;;;;;;;;;;;;;"1958";"2014-10-03 10:43:28.105";"18";"0";"FINISHED";"LEFT";"success";"577";"0";"2014-10-03 10:43:26.140";"3";;;;;;;;;;
"n12345";;;"Windows 7";"Rachel's Experiment (D.T.)";"1.0";"2";"1";"1";"2";"1";"1";"2014-10-03 10:41:57.923";"2014-10-03 10:56:29.572";"1";"1";"0";"5";"4";"module.GoNoGopractice.exec-8760.GoNoGo_Practice";;;;;;;;;;;;;;;;;;;;;;;;;;;;;;;;;;;;;;;;;;;;;;;;;;;;;;;;;;;;;;;;;;;;;;;"1959";"2014-10-03 10:43:31.350";"21";"1";"FINISHED";"RIGHT";"success";"486";"0";"2014-10-03 10:43:29.384";"3";;;;;;;;;;
"n12345";;;"Windows 7";"Rachel's Experiment (D.T.)";"1.0";"2";"1";"1";"2";"1";"1";"2014-10-03 10:41:57.923";"2014-10-03 10:56:29.572";"1";"1";"0";"6";"5";"module.GoNoGopractice.exec-8760.GoNoGo_Practice";;;;;;;;;;;;;;;;;;;;;;;;;;;;;;;;;;;;;;;;;;;;;;;;;;;;;;;;;;;;;;;;;;;;;;;"1959";"2014-10-03 10:43:34.595";"14";"1";"FINISHED";"NONE";"success";"0";"1";"2014-10-03 10:43:32.629";"2";;;;;;;;;;
"n12345";;;"Windows 7";"Rachel's Experiment (D.T.)";"1.0";"2";"1";"1";"2";"1";"1";"2014-10-03 10:41:57.923";"2014-10-03 10:56:29.572";"1";"1";"0";"7";"6";"module.GoNoGopractice.exec-8760.GoNoGo_Practice";;;;;;;;;;;;;;;;;;;;;;;;;;;;;;;;;;;;;;;;;;;;;;;;;;;;;;;;;;;;;;;;;;;;;;;"1959";"2014-10-03 10:43:37.839";"26";"0";"FINISHED";"LEFT";"success";"508";"0";"2014-10-03 10:43:35.874";"3";;;;;;;;;;
"n12345";;;"Windows 7";"Rachel's Experiment (D.T.)";"1.0";"2";"1";"1";"2";"1";"1";"2014-10-03 10:41:57.923";"2014-10-03 10:56:29.572";"1";"1";"0";"8";"7";"module.GoNoGopractice.exec-8760.GoNoGo_Practice";;;;;;;;;;;;;;;;;;;;;;;;;;;;;;;;;;;;;;;;;;;;;;;;;;;;;;;;;;;;;;;;;;;;;;;"1959";"2014-10-03 10:43:41.084";"2";"0";"FINISHED";"LEFT";"success";"503";"0";"2014-10-03 10:43:39.119";"1";;;;;;;;;;
"n12345";;;"Windows 7";"Rachel's Experiment (D.T.)";"1.0";"2";"1";"1";"2";"1";"1";"2014-10-03 10:41:57.923";"2014-10-03 10:56:29.572";"1";"1";"0";"9";"8";"module.GoNoGopractice.exec-8760.GoNoGo_Practice";;;;;;;;;;;;;;;;;;;;;;;;;;;;;;;;;;;;;;;;;;;;;;;;;;;;;;;;;;;;;;;;;;;;;;;"1959";"2014-10-03 10:43:44.329";"30";"0";"FINISHED";"NONE";"success";"0";"1";"2014-10-03 10:43:42.363";"3";;;;;;;;;;
"n12345";;;"Windows 7";"Rachel's Experiment (D.T.)";"1.0";"2";"1";"1";"2";"1";"1";"2014-10-03 10:41:57.923";"2014-10-03 10:56:29.572";"1";"1";"0";"10";"9";"module.GoNoGopractice.exec-8760.GoNoGo_Practice";;;;;;;;;;;;;;;;;;;;;;;;;;;;;;;;;;;;;;;;;;;;;;;;;;;;;;;;;;;;;;;;;;;;;;;"1953";"2014-10-03 10:43:47.574";"6";"1";"FINISHED";"RIGHT";"failure";"432";"1";"2014-10-03 10:43:45.608";"1";;;;;;;;;;
"n12345";;;"Windows 7";"Rachel's Experiment (D.T.)";"1.0";"2";"1";"1";"2";"1";"1";"2014-10-03 10:41:57.923";"2014-10-03 10:56:29.572";"1";"1";"0";"11";"10";"module.GoNoGopractice.exec-8760.GoNoGo_Practice";;;;;;;;;;;;;;;;;;;;;;;;;;;;;;;;;;;;;;;;;;;;;;;;;;;;;;;;;;;;;;;;;;;;;;;"1960";"2014-10-03 10:43:50.818";"34";"0";"FINISHED";"LEFT";"success";"474";"0";"2014-10-03 10:43:48.853";"3";;;;;;;;;;
"n12345";;;"Windows 7";"Rachel's Experiment (D.T.)";"1.0";"2";"1";"1";"2";"1";"1";"2014-10-03 10:41:57.923";"2014-10-03 10:56:29.572";"1";"1";"0";"12";"11";"module.GoNoGopractice.exec-8760.GoNoGo_Practice";;;;;;;;;;;;;;;;;;;;;;;;;;;;;;;;;;;;;;;;;;;;;;;;;;;;;;;;;;;;;;;;;;;;;;;"1959";"2014-10-03 10:43:54.063";"23";"1";"FINISHED";"RIGHT";"success";"860";"0";"2014-10-03 10:43:52.098";"3";;;;;;;;;;
"n12345";;;"Windows 7";"Rachel's Experiment (D.T.)";"1.0";"2";"1";"1";"2";"1";"1";"2014-10-03 10:41:57.923";"2014-10-03 10:56:29.572";"1";"1";"0";"13";"12";"module.GoNoGopractice.exec-8760.GoNoGo_Practice";;;;;;;;;;;;;;;;;;;;;;;;;;;;;;;;;;;;;;;;;;;;;;;;;;;;;;;;;;;;;;;;;;;;;;;"1959";"2014-10-03 10:43:57.308";"13";"0";"FINISHED";"NONE";"success";"0";"1";"2014-10-03 10:43:55.342";"2";;;;;;;;;;
"n12345";;;"Windows 7";"Rachel's Experiment (D.T.)";"1.0";"2";"1";"1";"2";"1";"1";"2014-10-03 10:41:57.923";"2014-10-03 10:56:29.572";"1";"1";"0";"14";"13";"module.GoNoGopractice.exec-8760.GoNoGo_Practice";;;;;;;;;;;;;;;;;;;;;;;;;;;;;;;;;;;;;;;;;;;;;;;;;;;;;;;;;;;;;;;;;;;;;;;"1959";"2014-10-03 10:44:00.553";"3";"1";"FINISHED";"RIGHT";"success";"1186";"0";"2014-10-03 10:43:58.587";"1";;;;;;;;;;
"n12345";;;"Windows 7";"Rachel's Experiment (D.T.)";"1.0";"2";"1";"1";"2";"1";"1";"2014-10-03 10:41:57.923";"2014-10-03 10:56:29.572";"1";"1";"0";"15";"14";"module.GoNoGopractice.exec-8760.GoNoGo_Practice";;;;;;;;;;;;;;;;;;;;;;;;;;;;;;;;;;;;;;;;;;;;;;;;;;;;;;;;;;;;;;;;;;;;;;;"1959";"2014-10-03 10:44:03.797";"27";"1";"FINISHED";"NONE";"success";"0";"1";"2014-10-03 10:44:01.832";"3";;;;;;;;;;
"n12345";;;"Windows 7";"Rachel's Experiment (D.T.)";"1.0";"2";"1";"1";"2";"1";"1";"2014-10-03 10:41:57.923";"2014-10-03 10:56:29.572";"1";"1";"0";"16";"15";"module.training_block1.exec-9916.GoNoGo1";;;;;;;;;;;;;;;;;;;;;;;"1256";"2014-10-03 10:44:16.277";"ST_correctStop";"0";"1";"FINISHED";"NONE";"success";"0";"1";"2014-10-03 10:44:15.014";"1";;;;;;;;;;;;;;;;;;;;;;;;;;;;;;;;;;;;;;;;;;;;;;;;;;;;;;;;;
"n12345";;;"Windows 7";"Rachel's Experiment (D.T.)";"1.0";"2";"1";"1";"2";"1";"1";"2014-10-03 10:41:57.923";"2014-10-03 10:56:29.572";"1";"1";"0";"17";"16";"module.training_block1.exec-9916.GoNoGo1";;;;;;;;;;;;;;;;;;;;;;;"1261";"2014-10-03 10:44:18.820";"ST_correctStop";"2";"1";"FINISHED";"NONE";"success";"0";"1";"2014-10-03 10:44:17.556";"1";;;;;;;;;;;;;;;;;;;;;;;;;;;;;;;;;;;;;;;;;;;;;;;;;;;;;;;;;
"n12345";;;"Windows 7";"Rachel's Experiment (D.T.)";"1.0";"2";"1";"1";"2";"1";"1";"2014-10-03 10:41:57.923";"2014-10-03 10:56:29.572";"1";"1";"0";"18";"17";"module.training_block1.exec-9916.GoNoGo1";;;;;;;;;;;;;;;;;;;;;;;"1257";"2014-10-03 10:44:21.363";"ST_correctStop";"1";"0";"FINISHED";"NONE";"success";"0";"1";"2014-10-03 10:44:20.099";"1";;;;;;;;;;;;;;;;;;;;;;;;;;;;;;;;;;;;;;;;;;;;;;;;;;;;;;;;;
"n12345";;;"Windows 7";"Rachel's Experiment (D.T.)";"1.0";"2";"1";"1";"2";"1";"1";"2014-10-03 10:41:57.923";"2014-10-03 10:56:29.572";"1";"1";"0";"19";"18";"module.training_block1.exec-9916.GoNoGo1";;;;;;;;;;;;;;;;;;;;;;;"1261";"2014-10-03 10:44:23.905";"ST_correctStop";"30";"1";"FINISHED";"NONE";"success";"0";"1";"2014-10-03 10:44:22.642";"3";;;;;;;;;;;;;;;;;;;;;;;;;;;;;;;;;;;;;;;;;;;;;;;;;;;;;;;;;
"n12345";;;"Windows 7";"Rachel's Experiment (D.T.)";"1.0";"2";"1";"1";"2";"1";"1";"2014-10-03 10:41:57.923";"2014-10-03 10:56:29.572";"1";"1";"0";"20";"19";"module.training_block1.exec-9916.GoNoGo1";;;;;;;;;;;;;;;;;;;;;;;"1261";"2014-10-03 10:44:26.448";"ST_correctStop";"3";"0";"FINISHED";"NONE";"success";"0";"1";"2014-10-03 10:44:25.185";"1";;;;;;;;;;;;;;;;;;;;;;;;;;;;;;;;;;;;;;;;;;;;;;;;;;;;;;;;;
"n12345";;;"Windows 7";"Rachel's Experiment (D.T.)";"1.0";"2";"1";"1";"2";"1";"1";"2014-10-03 10:41:57.923";"2014-10-03 10:56:29.572";"1";"1";"0";"21";"20";"module.training_block1.exec-9916.GoNoGo1";;;;;;;;;;;;;;;;;;;;;;;"1257";"2014-10-03 10:44:28.991";"ST_correctStop";"31";"1";"FINISHED";"NONE";"success";"0";"1";"2014-10-03 10:44:27.727";"3";;;;;;;;;;;;;;;;;;;;;;;;;;;;;;;;;;;;;;;;;;;;;;;;;;;;;;;;;
"n12345";;;"Windows 7";"Rachel's Experiment (D.T.)";"1.0";"2";"1";"1";"2";"1";"1";"2014-10-03 10:41:57.923";"2014-10-03 10:56:29.572";"1";"1";"0";"22";"21";"module.training_block1.exec-9916.GoNoGo1";;;;;;;;;;;;;;;;;;;;;;;"1256";"2014-10-03 10:44:31.534";"ST_correctStop";"4";"1";"FINISHED";"NONE";"success";"0";"1";"2014-10-03 10:44:30.270";"1";;;;;;;;;;;;;;;;;;;;;;;;;;;;;;;;;;;;;;;;;;;;;;;;;;;;;;;;;
"n12345";;;"Windows 7";"Rachel's Experiment (D.T.)";"1.0";"2";"1";"1";"2";"1";"1";"2014-10-03 10:41:57.923";"2014-10-03 10:56:29.572";"1";"1";"0";"23";"22";"module.training_block1.exec-9916.GoNoGo1";;;;;;;;;;;;;;;;;;;;;;;"1261";"2014-10-03 10:44:34.076";"ST_correctStop";"26";"1";"FINISHED";"NONE";"success";"0";"1";"2014-10-03 10:44:32.813";"3";;;;;;;;;;;;;;;;;;;;;;;;;;;;;;;;;;;;;;;;;;;;;;;;;;;;;;;;;
"n12345";;;"Windows 7";"Rachel's Experiment (D.T.)";"1.0";"2";"1";"1";"2";"1";"1";"2014-10-03 10:41:57.923";"2014-10-03 10:56:29.572";"1";"1";"0";"24";"23";"module.training_block1.exec-9916.GoNoGo1";;;;;;;;;;;;;;;;;;;;;;;"1253";"2014-10-03 10:44:36.713";"NST_correctLoc";"35";"1";"FINISHED";"RIGHT";"success";"735";"0";"2014-10-03 10:44:35.449";"3";;;;;;;;;;;;;;;;;;;;;;;;;;;;;;;;;;;;;;;;;;;;;;;;;;;;;;;;;
"n12345";;;"Windows 7";"Rachel's Experiment (D.T.)";"1.0";"2";"1";"1";"2";"1";"1";"2014-10-03 10:41:57.923";"2014-10-03 10:56:29.572";"1";"1";"0";"25";"24";"module.training_block1.exec-9916.GoNoGo1";;;;;;;;;;;;;;;;;;;;;;;"1255";"2014-10-03 10:44:39.255";"NST_correctLoc";"14";"1";"FINISHED";"RIGHT";"success";"571";"0";"2014-10-03 10:44:37.992";"2";;;;;;;;;;;;;;;;;;;;;;;;;;;;;;;;;;;;;;;;;;;;;;;;;;;;;;;;;
"n12345";;;"Windows 7";"Rachel's Experiment (D.T.)";"1.0";"2";"1";"1";"2";"1";"1";"2014-10-03 10:41:57.923";"2014-10-03 10:56:29.572";"1";"1";"0";"26";"25";"module.training_block1.exec-9916.GoNoGo1";;;;;;;;;;;;;;;;;;;;;;;"1257";"2014-10-03 10:44:41.798";"NST_correctLoc";"20";"1";"FINISHED";"RIGHT";"success";"766";"0";"2014-10-03 10:44:40.535";"3";;;;;;;;;;;;;;;;;;;;;;;;;;;;;;;;;;;;;;;;;;;;;;;;;;;;;;;;;
"n12345";;;"Windows 7";"Rachel's Experiment (D.T.)";"1.0";"2";"1";"1";"2";"1";"1";"2014-10-03 10:41:57.923";"2014-10-03 10:56:29.572";"1";"1";"0";"27";"26";"module.training_block1.exec-9916.GoNoGo1";;;;;;;;;;;;;;;;;;;;;;;"1258";"2014-10-03 10:44:44.341";"NST_correctLoc";"12";"0";"FINISHED";"LEFT";"success";"775";"0";"2014-10-03 10:44:43.077";"2";;;;;;;;;;;;;;;;;;;;;;;;;;;;;;;;;;;;;;;;;;;;;;;;;;;;;;;;;
"n12345";;;"Windows 7";"Rachel's Experiment (D.T.)";"1.0";"2";"1";"1";"2";"1";"1";"2014-10-03 10:41:57.923";"2014-10-03 10:56:29.572";"1";"1";"0";"28";"27";"module.training_block1.exec-9916.GoNoGo1";;;;;;;;;;;;;;;;;;;;;;;"1257";"2014-10-03 10:44:46.884";"ST_correctStop";"6";"0";"FINISHED";"NONE";"success";"0";"1";"2014-10-03 10:44:45.620";"1";;;;;;;;;;;;;;;;;;;;;;;;;;;;;;;;;;;;;;;;;;;;;;;;;;;;;;;;;
"n12345";;;"Windows 7";"Rachel's Experiment (D.T.)";"1.0";"2";"1";"1";"2";"1";"1";"2014-10-03 10:41:57.923";"2014-10-03 10:56:29.572";"1";"1";"0";"29";"28";"module.training_block1.exec-9916.GoNoGo1";;;;;;;;;;;;;;;;;;;;;;;"1257";"2014-10-03 10:44:49.426";"NST_correctLoc";"23";"0";"FINISHED";"LEFT";"success";"617";"0";"2014-10-03 10:44:48.163";"3";;;;;;;;;;;;;;;;;;;;;;;;;;;;;;;;;;;;;;;;;;;;;;;;;;;;;;;;;
"n12345";;;"Windows 7";"Rachel's Experiment (D.T.)";"1.0";"2";"1";"1";"2";"1";"1";"2014-10-03 10:41:57.923";"2014-10-03 10:56:29.572";"1";"1";"0";"30";"29";"module.training_block1.exec-9916.GoNoGo1";;;;;;;;;;;;;;;;;;;;;;;"1257";"2014-10-03 10:44:51.969";"ST_correctStop";"7";"0";"FINISHED";"NONE";"success";"0";"1";"2014-10-03 10:44:50.706";"1";;;;;;;;;;;;;;;;;;;;;;;;;;;;;;;;;;;;;;;;;;;;;;;;;;;;;;;;;
"n12345";;;"Windows 7";"Rachel's Experiment (D.T.)";"1.0";"2";"1";"1";"2";"1";"1";"2014-10-03 10:41:57.923";"2014-10-03 10:56:29.572";"1";"1";"0";"31";"30";"module.training_block1.exec-9916.GoNoGo1";;;;;;;;;;;;;;;;;;;;;;;"1257";"2014-10-03 10:44:54.512";"NST_correctLoc";"21";"0";"FINISHED";"LEFT";"success";"675";"0";"2014-10-03 10:44:53.248";"3";;;;;;;;;;;;;;;;;;;;;;;;;;;;;;;;;;;;;;;;;;;;;;;;;;;;;;;;;
"n12345";;;"Windows 7";"Rachel's Experiment (D.T.)";"1.0";"2";"1";"1";"2";"1";"1";"2014-10-03 10:41:57.923";"2014-10-03 10:56:29.572";"1";"1";"0";"32";"31";"module.training_block1.exec-9916.GoNoGo1";;;;;;;;;;;;;;;;;;;;;;;"1257";"2014-10-03 10:44:57.055";"NST_correctLoc";"9";"1";"FINISHED";"RIGHT";"success";"605";"0";"2014-10-03 10:44:55.791";"2";;;;;;;;;;;;;;;;;;;;;;;;;;;;;;;;;;;;;;;;;;;;;;;;;;;;;;;;;
"n12345";;;"Windows 7";"Rachel's Experiment (D.T.)";"1.0";"2";"1";"1";"2";"1";"1";"2014-10-03 10:41:57.923";"2014-10-03 10:56:29.572";"1";"1";"0";"33";"32";"module.training_block1.exec-9916.GoNoGo1";;;;;;;;;;;;;;;;;;;;;;;"1257";"2014-10-03 10:44:59.597";"ST_correctStop";"22";"1";"FINISHED";"NONE";"success";"0";"1";"2014-10-03 10:44:58.334";"3";;;;;;;;;;;;;;;;;;;;;;;;;;;;;;;;;;;;;;;;;;;;;;;;;;;;;;;;;
"n12345";;;"Windows 7";"Rachel's Experiment (D.T.)";"1.0";"2";"1";"1";"2";"1";"1";"2014-10-03 10:41:57.923";"2014-10-03 10:56:29.572";"1";"1";"0";"34";"33";"module.training_block1.exec-9916.GoNoGo1";;;;;;;;;;;;;;;;;;;;;;;"1256";"2014-10-03 10:45:02.140";"NST_correctLoc";"17";"1";"FINISHED";"RIGHT";"success";"622";"0";"2014-10-03 10:45:00.877";"2";;;;;;;;;;;;;;;;;;;;;;;;;;;;;;;;;;;;;;;;;;;;;;;;;;;;;;;;;
"n12345";;;"Windows 7";"Rachel's Experiment (D.T.)";"1.0";"2";"1";"1";"2";"1";"1";"2014-10-03 10:41:57.923";"2014-10-03 10:56:29.572";"1";"1";"0";"35";"34";"module.training_block1.exec-9916.GoNoGo1";;;;;;;;;;;;;;;;;;;;;;;"1257";"2014-10-03 10:45:04.683";"NST_correctLoc";"13";"0";"FINISHED";"LEFT";"success";"712";"0";"2014-10-03 10:45:03.419";"2";;;;;;;;;;;;;;;;;;;;;;;;;;;;;;;;;;;;;;;;;;;;;;;;;;;;;;;;;
"n12345";;;"Windows 7";"Rachel's Experiment (D.T.)";"1.0";"2";"1";"1";"2";"1";"1";"2014-10-03 10:41:57.923";"2014-10-03 10:56:29.572";"1";"1";"0";"36";"35";"module.training_block1.exec-9916.GoNoGo1";;;;;;;;;;;;;;;;;;;;;;;"1258";"2014-10-03 10:45:07.226";"NST_correctLoc";"33";"0";"FINISHED";"LEFT";"success";"642";"0";"2014-10-03 10:45:05.962";"3";;;;;;;;;;;;;;;;;;;;;;;;;;;;;;;;;;;;;;;;;;;;;;;;;;;;;;;;;
"n12345";;;"Windows 7";"Rachel's Experiment (D.T.)";"1.0";"2";"1";"1";"2";"1";"1";"2014-10-03 10:41:57.923";"2014-10-03 10:56:29.572";"1";"1";"0";"37";"36";"module.training_block1.exec-9916.GoNoGo1";;;;;;;;;;;;;;;;;;;;;;;"1258";"2014-10-03 10:45:09.768";"ST_correctStop";"5";"0";"FINISHED";"NONE";"success";"0";"1";"2014-10-03 10:45:08.505";"1";;;;;;;;;;;;;;;;;;;;;;;;;;;;;;;;;;;;;;;;;;;;;;;;;;;;;;;;;
"n12345";;;"Windows 7";"Rachel's Experiment (D.T.)";"1.0";"2";"1";"1";"2";"1";"1";"2014-10-03 10:41:57.923";"2014-10-03 10:56:29.572";"1";"1";"0";"38";"37";"module.training_block1.exec-9916.GoNoGo1";;;;;;;;;;;;;;;;;;;;;;;"1257";"2014-10-03 10:45:12.311";"NST_correctLoc";"24";"0";"FINISHED";"LEFT";"success";"524";"0";"2014-10-03 10:45:11.048";"3";;;;;;;;;;;;;;;;;;;;;;;;;;;;;;;;;;;;;;;;;;;;;;;;;;;;;;;;;
"n12345";;;"Windows 7";"Rachel's Experiment (D.T.)";"1.0";"2";"1";"1";"2";"1";"1";"2014-10-03 10:41:57.923";"2014-10-03 10:56:29.572";"1";"1";"0";"39";"38";"module.training_block1.exec-9916.GoNoGo1";;;;;;;;;;;;;;;;;;;;;;;"1257";"2014-10-03 10:45:14.854";"NST_correctLoc";"27";"1";"FINISHED";"RIGHT";"success";"693";"0";"2014-10-03 10:45:13.590";"3";;;;;;;;;;;;;;;;;;;;;;;;;;;;;;;;;;;;;;;;;;;;;;;;;;;;;;;;;
"n12345";;;"Windows 7";"Rachel's Experiment (D.T.)";"1.0";"2";"1";"1";"2";"1";"1";"2014-10-03 10:41:57.923";"2014-10-03 10:56:29.572";"1";"1";"0";"40";"39";"module.training_block1.exec-9916.GoNoGo1";;;;;;;;;;;;;;;;;;;;;;;"1258";"2014-10-03 10:45:17.397";"NST_correctLoc";"34";"0";"FINISHED";"LEFT";"success";"775";"0";"2014-10-03 10:45:16.133";"3";;;;;;;;;;;;;;;;;;;;;;;;;;;;;;;;;;;;;;;;;;;;;;;;;;;;;;;;;
"n12345";;;"Windows 7";"Rachel's Experiment (D.T.)";"1.0";"2";"1";"1";"2";"1";"1";"2014-10-03 10:41:57.923";"2014-10-03 10:56:29.572";"1";"1";"0";"41";"40";"module.training_block1.exec-9916.GoNoGo1";;;;;;;;;;;;;;;;;;;;;;;"1258";"2014-10-03 10:45:19.939";"ST_correctStop";"18";"0";"FINISHED";"NONE";"success";"0";"1";"2014-10-03 10:45:18.676";"3";;;;;;;;;;;;;;;;;;;;;;;;;;;;;;;;;;;;;;;;;;;;;;;;;;;;;;;;;
"n12345";;;"Windows 7";"Rachel's Experiment (D.T.)";"1.0";"2";"1";"1";"2";"1";"1";"2014-10-03 10:41:57.923";"2014-10-03 10:56:29.572";"1";"1";"0";"42";"41";"module.training_block1.exec-9916.GoNoGo1";;;;;;;;;;;;;;;;;;;;;;;"1257";"2014-10-03 10:45:22.482";"ST_correctStop";"8";"1";"FINISHED";"NONE";"success";"0";"1";"2014-10-03 10:45:21.219";"1";;;;;;;;;;;;;;;;;;;;;;;;;;;;;;;;;;;;;;;;;;;;;;;;;;;;;;;;;
"n12345";;;"Windows 7";"Rachel's Experiment (D.T.)";"1.0";"2";"1";"1";"2";"1";"1";"2014-10-03 10:41:57.923";"2014-10-03 10:56:29.572";"1";"1";"0";"43";"42";"module.training_block1.exec-9916.GoNoGo1";;;;;;;;;;;;;;;;;;;;;;;"1257";"2014-10-03 10:45:25.025";"ST_correctStop";"32";"0";"FINISHED";"NONE";"success";"0";"1";"2014-10-03 10:45:23.761";"3";;;;;;;;;;;;;;;;;;;;;;;;;;;;;;;;;;;;;;;;;;;;;;;;;;;;;;;;;
"n12345";;;"Windows 7";"Rachel's Experiment (D.T.)";"1.0";"2";"1";"1";"2";"1";"1";"2014-10-03 10:41:57.923";"2014-10-03 10:56:29.572";"1";"1";"0";"44";"43";"module.training_block1.exec-9916.GoNoGo1";;;;;;;;;;;;;;;;;;;;;;;"1258";"2014-10-03 10:45:27.568";"ST_correctStop";"19";"1";"FINISHED";"NONE";"success";"0";"1";"2014-10-03 10:45:26.304";"3";;;;;;;;;;;;;;;;;;;;;;;;;;;;;;;;;;;;;;;;;;;;;;;;;;;;;;;;;
"n12345";;;"Windows 7";"Rachel's Experiment (D.T.)";"1.0";"2";"1";"1";"2";"1";"1";"2014-10-03 10:41:57.923";"2014-10-03 10:56:29.572";"1";"1";"0";"45";"44";"module.training_block1.exec-9916.GoNoGo1";;;;;;;;;;;;;;;;;;;;;;;"1257";"2014-10-03 10:45:30.110";"NST_correctLoc";"16";"0";"FINISHED";"LEFT";"success";"660";"0";"2014-10-03 10:45:28.847";"2";;;;;;;;;;;;;;;;;;;;;;;;;;;;;;;;;;;;;;;;;;;;;;;;;;;;;;;;;
"n12345";;;"Windows 7";"Rachel's Experiment (D.T.)";"1.0";"2";"1";"1";"2";"1";"1";"2014-10-03 10:41:57.923";"2014-10-03 10:56:29.572";"1";"1";"0";"46";"45";"module.training_block1.exec-9916.GoNoGo1";;;;;;;;;;;;;;;;;;;;;;;"1257";"2014-10-03 10:45:32.653";"ST_correctStop";"28";"1";"FINISHED";"NONE";"success";"0";"1";"2014-10-03 10:45:31.390";"3";;;;;;;;;;;;;;;;;;;;;;;;;;;;;;;;;;;;;;;;;;;;;;;;;;;;;;;;;
"n12345";;;"Windows 7";"Rachel's Experiment (D.T.)";"1.0";"2";"1";"1";"2";"1";"1";"2014-10-03 10:41:57.923";"2014-10-03 10:56:29.572";"1";"1";"0";"47";"46";"module.training_block1.exec-9916.GoNoGo1";;;;;;;;;;;;;;;;;;;;;;;"1257";"2014-10-03 10:45:35.196";"NST_correctLoc";"15";"0";"FINISHED";"LEFT";"success";"622";"0";"2014-10-03 10:45:33.932";"2";;;;;;;;;;;;;;;;;;;;;;;;;;;;;;;;;;;;;;;;;;;;;;;;;;;;;;;;;
"n12345";;;"Windows 7";"Rachel's Experiment (D.T.)";"1.0";"2";"1";"1";"2";"1";"1";"2014-10-03 10:41:57.923";"2014-10-03 10:56:29.572";"1";"1";"0";"48";"47";"module.training_block1.exec-9916.GoNoGo1";;;;;;;;;;;;;;;;;;;;;;;"1257";"2014-10-03 10:45:37.739";"NST_correctLoc";"10";"0";"FINISHED";"LEFT";"success";"728";"0";"2014-10-03 10:45:36.475";"2";;;;;;;;;;;;;;;;;;;;;;;;;;;;;;;;;;;;;;;;;;;;;;;;;;;;;;;;;
"n12345";;;"Windows 7";"Rachel's Experiment (D.T.)";"1.0";"2";"1";"1";"2";"1";"1";"2014-10-03 10:41:57.923";"2014-10-03 10:56:29.572";"1";"1";"0";"49";"48";"module.training_block1.exec-9916.GoNoGo1";;;;;;;;;;;;;;;;;;;;;;;"1257";"2014-10-03 10:45:40.281";"NST_correctLoc";"11";"0";"FINISHED";"LEFT";"success";"617";"0";"2014-10-03 10:45:39.018";"2";;;;;;;;;;;;;;;;;;;;;;;;;;;;;;;;;;;;;;;;;;;;;;;;;;;;;;;;;
"n12345";;;"Windows 7";"Rachel's Experiment (D.T.)";"1.0";"2";"1";"1";"2";"1";"1";"2014-10-03 10:41:57.923";"2014-10-03 10:56:29.572";"1";"1";"0";"50";"49";"module.training_block1.exec-9916.GoNoGo1";;;;;;;;;;;;;;;;;;;;;;;"1257";"2014-10-03 10:45:42.824";"ST_correctStop";"29";"1";"FINISHED";"NONE";"success";"0";"1";"2014-10-03 10:45:41.561";"3";;;;;;;;;;;;;;;;;;;;;;;;;;;;;;;;;;;;;;;;;;;;;;;;;;;;;;;;;
"n12345";;;"Windows 7";"Rachel's Experiment (D.T.)";"1.0";"2";"1";"1";"2";"1";"1";"2014-10-03 10:41:57.923";"2014-10-03 10:56:29.572";"1";"1";"0";"51";"50";"module.training_block1.exec-9916.GoNoGo1";;;;;;;;;;;;;;;;;;;;;;;"1258";"2014-10-03 10:45:45.367";"NST_correctLoc";"25";"1";"FINISHED";"RIGHT";"success";"796";"0";"2014-10-03 10:45:44.103";"3";;;;;;;;;;;;;;;;;;;;;;;;;;;;;;;;;;;;;;;;;;;;;;;;;;;;;;;;;
"n12345";;;"Windows 7";"Rachel's Experiment (D.T.)";"1.0";"2";"1";"1";"2";"1";"1";"2014-10-03 10:41:57.923";"2014-10-03 10:56:29.572";"1";"1";"0";"52";"51";"module.training_block2.exec-3817.GoNoGo2";;;;;;;;;;;;;;;;;;;;;;;;;;;;;;;;;;;"1261";"2014-10-03 10:45:59.422";"ST_correctStop";"27";"1";"FINISHED";"NONE";"success";"0";"1";"2014-10-03 10:45:58.159";"3";;;;;;;;;;;;;;;;;;;;;;;;;;;;;;;;;;;;;;;;;;;;;
"n12345";;;"Windows 7";"Rachel's Experiment (D.T.)";"1.0";"2";"1";"1";"2";"1";"1";"2014-10-03 10:41:57.923";"2014-10-03 10:56:29.572";"1";"1";"0";"53";"52";"module.training_block2.exec-3817.GoNoGo2";;;;;;;;;;;;;;;;;;;;;;;;;;;;;;;;;;;"1257";"2014-10-03 10:46:01.965";"NST_correctLoc";"31";"0";"FINISHED";"LEFT";"success";"468";"0";"2014-10-03 10:46:00.701";"3";;;;;;;;;;;;;;;;;;;;;;;;;;;;;;;;;;;;;;;;;;;;;
"n12345";;;"Windows 7";"Rachel's Experiment (D.T.)";"1.0";"2";"1";"1";"2";"1";"1";"2014-10-03 10:41:57.923";"2014-10-03 10:56:29.572";"1";"1";"0";"54";"53";"module.training_block2.exec-3817.GoNoGo2";;;;;;;;;;;;;;;;;;;;;;;;;;;;;;;;;;;"1261";"2014-10-03 10:46:04.508";"ST_correctStop";"28";"0";"FINISHED";"NONE";"success";"0";"1";"2014-10-03 10:46:03.244";"3";;;;;;;;;;;;;;;;;;;;;;;;;;;;;;;;;;;;;;;;;;;;;
"n12345";;;"Windows 7";"Rachel's Experiment (D.T.)";"1.0";"2";"1";"1";"2";"1";"1";"2014-10-03 10:41:57.923";"2014-10-03 10:56:29.572";"1";"1";"0";"55";"54";"module.training_block2.exec-3817.GoNoGo2";;;;;;;;;;;;;;;;;;;;;;;;;;;;;;;;;;;"1261";"2014-10-03 10:46:07.051";"NST_correctLoc";"11";"0";"FINISHED";"LEFT";"success";"563";"0";"2014-10-03 10:46:05.787";"2";;;;;;;;;;;;;;;;;;;;;;;;;;;;;;;;;;;;;;;;;;;;;
"n12345";;;"Windows 7";"Rachel's Experiment (D.T.)";"1.0";"2";"1";"1";"2";"1";"1";"2014-10-03 10:41:57.923";"2014-10-03 10:56:29.572";"1";"1";"0";"56";"55";"module.training_block2.exec-3817.GoNoGo2";;;;;;;;;;;;;;;;;;;;;;;;;;;;;;;;;;;"1261";"2014-10-03 10:46:09.593";"NST_correctLoc";"22";"0";"FINISHED";"LEFT";"success";"500";"0";"2014-10-03 10:46:08.330";"3";;;;;;;;;;;;;;;;;;;;;;;;;;;;;;;;;;;;;;;;;;;;;
"n12345";;;"Windows 7";"Rachel's Experiment (D.T.)";"1.0";"2";"1";"1";"2";"1";"1";"2014-10-03 10:41:57.923";"2014-10-03 10:56:29.572";"1";"1";"0";"57";"56";"module.training_block2.exec-3817.GoNoGo2";;;;;;;;;;;;;;;;;;;;;;;;;;;;;;;;;;;"1256";"2014-10-03 10:46:12.136";"NST_correctLoc";"26";"1";"FINISHED";"RIGHT";"success";"496";"0";"2014-10-03 10:46:10.872";"3";;;;;;;;;;;;;;;;;;;;;;;;;;;;;;;;;;;;;;;;;;;;;
"n12345";;;"Windows 7";"Rachel's Experiment (D.T.)";"1.0";"2";"1";"1";"2";"1";"1";"2014-10-03 10:41:57.923";"2014-10-03 10:56:29.572";"1";"1";"0";"58";"57";"module.training_block2.exec-3817.GoNoGo2";;;;;;;;;;;;;;;;;;;;;;;;;;;;;;;;;;;"1261";"2014-10-03 10:46:14.679";"NST_correctLoc";"16";"0";"FINISHED";"LEFT";"success";"407";"0";"2014-10-03 10:46:13.415";"2";;;;;;;;;;;;;;;;;;;;;;;;;;;;;;;;;;;;;;;;;;;;;
"n12345";;;"Windows 7";"Rachel's Experiment (D.T.)";"1.0";"2";"1";"1";"2";"1";"1";"2014-10-03 10:41:57.923";"2014-10-03 10:56:29.572";"1";"1";"0";"59";"58";"module.training_block2.exec-3817.GoNoGo2";;;;;;;;;;;;;;;;;;;;;;;;;;;;;;;;;;;"1261";"2014-10-03 10:46:17.222";"ST_correctStop";"24";"1";"FINISHED";"NONE";"success";"0";"1";"2014-10-03 10:46:15.958";"3";;;;;;;;;;;;;;;;;;;;;;;;;;;;;;;;;;;;;;;;;;;;;
"n12345";;;"Windows 7";"Rachel's Experiment (D.T.)";"1.0";"2";"1";"1";"2";"1";"1";"2014-10-03 10:41:57.923";"2014-10-03 10:56:29.572";"1";"1";"0";"60";"59";"module.training_block2.exec-3817.GoNoGo2";;;;;;;;;;;;;;;;;;;;;;;;;;;;;;;;;;;"1258";"2014-10-03 10:46:19.764";"ST_correctStop";"3";"0";"FINISHED";"NONE";"success";"0";"1";"2014-10-03 10:46:18.501";"1";;;;;;;;;;;;;;;;;;;;;;;;;;;;;;;;;;;;;;;;;;;;;
"n12345";;;"Windows 7";"Rachel's Experiment (D.T.)";"1.0";"2";"1";"1";"2";"1";"1";"2014-10-03 10:41:57.923";"2014-10-03 10:56:29.572";"1";"1";"0";"61";"60";"module.training_block2.exec-3817.GoNoGo2";;;;;;;;;;;;;;;;;;;;;;;;;;;;;;;;;;;"1261";"2014-10-03 10:46:22.307";"NST_correctLoc";"14";"0";"FINISHED";"LEFT";"success";"698";"0";"2014-10-03 10:46:21.043";"2";;;;;;;;;;;;;;;;;;;;;;;;;;;;;;;;;;;;;;;;;;;;;
"n12345";;;"Windows 7";"Rachel's Experiment (D.T.)";"1.0";"2";"1";"1";"2";"1";"1";"2014-10-03 10:41:57.923";"2014-10-03 10:56:29.572";"1";"1";"0";"62";"61";"module.training_block2.exec-3817.GoNoGo2";;;;;;;;;;;;;;;;;;;;;;;;;;;;;;;;;;;"1257";"2014-10-03 10:46:24.850";"ST_correctStop";"4";"1";"FINISHED";"NONE";"success";"0";"1";"2014-10-03 10:46:23.586";"1";;;;;;;;;;;;;;;;;;;;;;;;;;;;;;;;;;;;;;;;;;;;;
"n12345";;;"Windows 7";"Rachel's Experiment (D.T.)";"1.0";"2";"1";"1";"2";"1";"1";"2014-10-03 10:41:57.923";"2014-10-03 10:56:29.572";"1";"1";"0";"63";"62";"module.training_block2.exec-3817.GoNoGo2";;;;;;;;;;;;;;;;;;;;;;;;;;;;;;;;;;;"1261";"2014-10-03 10:46:27.393";"NST_correctLoc";"10";"0";"FINISHED";"LEFT";"success";"477";"0";"2014-10-03 10:46:26.129";"2";;;;;;;;;;;;;;;;;;;;;;;;;;;;;;;;;;;;;;;;;;;;;
"n12345";;;"Windows 7";"Rachel's Experiment (D.T.)";"1.0";"2";"1";"1";"2";"1";"1";"2014-10-03 10:41:57.923";"2014-10-03 10:56:29.572";"1";"1";"0";"64";"63";"module.training_block2.exec-3817.GoNoGo2";;;;;;;;;;;;;;;;;;;;;;;;;;;;;;;;;;;"1261";"2014-10-03 10:46:29.935";"NST_correctLoc";"13";"0";"FINISHED";"LEFT";"success";"590";"0";"2014-10-03 10:46:28.672";"2";;;;;;;;;;;;;;;;;;;;;;;;;;;;;;;;;;;;;;;;;;;;;
"n12345";;;"Windows 7";"Rachel's Experiment (D.T.)";"1.0";"2";"1";"1";"2";"1";"1";"2014-10-03 10:41:57.923";"2014-10-03 10:56:29.572";"1";"1";"0";"65";"64";"module.training_block2.exec-3817.GoNoGo2";;;;;;;;;;;;;;;;;;;;;;;;;;;;;;;;;;;"1261";"2014-10-03 10:46:32.478";"NST_correctLoc";"21";"0";"FINISHED";"LEFT";"success";"687";"0";"2014-10-03 10:46:31.215";"3";;;;;;;;;;;;;;;;;;;;;;;;;;;;;;;;;;;;;;;;;;;;;
"n12345";;;"Windows 7";"Rachel's Experiment (D.T.)";"1.0";"2";"1";"1";"2";"1";"1";"2014-10-03 10:41:57.923";"2014-10-03 10:56:29.572";"1";"1";"0";"66";"65";"module.training_block2.exec-3817.GoNoGo2";;;;;;;;;;;;;;;;;;;;;;;;;;;;;;;;;;;"1261";"2014-10-03 10:46:35.021";"ST_correctStop";"7";"1";"FINISHED";"NONE";"success";"0";"1";"2014-10-03 10:46:33.757";"1";;;;;;;;;;;;;;;;;;;;;;;;;;;;;;;;;;;;;;;;;;;;;
"n12345";;;"Windows 7";"Rachel's Experiment (D.T.)";"1.0";"2";"1";"1";"2";"1";"1";"2014-10-03 10:41:57.923";"2014-10-03 10:56:29.572";"1";"1";"0";"67";"66";"module.training_block2.exec-3817.GoNoGo2";;;;;;;;;;;;;;;;;;;;;;;;;;;;;;;;;;;"1257";"2014-10-03 10:46:37.564";"ST_correctStop";"2";"1";"FINISHED";"NONE";"success";"0";"1";"2014-10-03 10:46:36.300";"1";;;;;;;;;;;;;;;;;;;;;;;;;;;;;;;;;;;;;;;;;;;;;
"n12345";;;"Windows 7";"Rachel's Experiment (D.T.)";"1.0";"2";"1";"1";"2";"1";"1";"2014-10-03 10:41:57.923";"2014-10-03 10:56:29.572";"1";"1";"0";"68";"67";"module.training_block2.exec-3817.GoNoGo2";;;;;;;;;;;;;;;;;;;;;;;;;;;;;;;;;;;"1258";"2014-10-03 10:46:40.106";"ST_correctStop";"30";"0";"FINISHED";"NONE";"success";"0";"1";"2014-10-03 10:46:38.843";"3";;;;;;;;;;;;;;;;;;;;;;;;;;;;;;;;;;;;;;;;;;;;;
"n12345";;;"Windows 7";"Rachel's Experiment (D.T.)";"1.0";"2";"1";"1";"2";"1";"1";"2014-10-03 10:41:57.923";"2014-10-03 10:56:29.572";"1";"1";"0";"69";"68";"module.training_block2.exec-3817.GoNoGo2";;;;;;;;;;;;;;;;;;;;;;;;;;;;;;;;;;;"1261";"2014-10-03 10:46:42.649";"ST_correctStop";"34";"0";"FINISHED";"NONE";"success";"0";"1";"2014-10-03 10:46:41.386";"3";;;;;;;;;;;;;;;;;;;;;;;;;;;;;;;;;;;;;;;;;;;;;
"n12345";;;"Windows 7";"Rachel's Experiment (D.T.)";"1.0";"2";"1";"1";"2";"1";"1";"2014-10-03 10:41:57.923";"2014-10-03 10:56:29.572";"1";"1";"0";"70";"69";"module.training_block2.exec-3817.GoNoGo2";;;;;;;;;;;;;;;;;;;;;;;;;;;;;;;;;;;"1261";"2014-10-03 10:46:45.192";"NST_correctLoc";"20";"0";"FINISHED";"LEFT";"success";"509";"0";"2014-10-03 10:46:43.928";"3";;;;;;;;;;;;;;;;;;;;;;;;;;;;;;;;;;;;;;;;;;;;;
"n12345";;;"Windows 7";"Rachel's Experiment (D.T.)";"1.0";"2";"1";"1";"2";"1";"1";"2014-10-03 10:41:57.923";"2014-10-03 10:56:29.572";"1";"1";"0";"71";"70";"module.training_block2.exec-3817.GoNoGo2";;;;;;;;;;;;;;;;;;;;;;;;;;;;;;;;;;;"1261";"2014-10-03 10:46:47.735";"ST_correctStop";"5";"1";"FINISHED";"NONE";"success";"0";"1";"2014-10-03 10:46:46.471";"1";;;;;;;;;;;;;;;;;;;;;;;;;;;;;;;;;;;;;;;;;;;;;
"n12345";;;"Windows 7";"Rachel's Experiment (D.T.)";"1.0";"2";"1";"1";"2";"1";"1";"2014-10-03 10:41:57.923";"2014-10-03 10:56:29.572";"1";"1";"0";"72";"71";"module.training_block2.exec-3817.GoNoGo2";;;;;;;;;;;;;;;;;;;;;;;;;;;;;;;;;;;"1261";"2014-10-03 10:46:50.277";"NST_correctLoc";"12";"1";"FINISHED";"RIGHT";"success";"599";"0";"2014-10-03 10:46:49.014";"2";;;;;;;;;;;;;;;;;;;;;;;;;;;;;;;;;;;;;;;;;;;;;
"n12345";;;"Windows 7";"Rachel's Experiment (D.T.)";"1.0";"2";"1";"1";"2";"1";"1";"2014-10-03 10:41:57.923";"2014-10-03 10:56:29.572";"1";"1";"0";"73";"72";"module.training_block2.exec-3817.GoNoGo2";;;;;;;;;;;;;;;;;;;;;;;;;;;;;;;;;;;"1261";"2014-10-03 10:46:52.820";"ST_correctStop";"6";"1";"FINISHED";"NONE";"success";"0";"1";"2014-10-03 10:46:51.557";"1";;;;;;;;;;;;;;;;;;;;;;;;;;;;;;;;;;;;;;;;;;;;;
"n12345";;;"Windows 7";"Rachel's Experiment (D.T.)";"1.0";"2";"1";"1";"2";"1";"1";"2014-10-03 10:41:57.923";"2014-10-03 10:56:29.572";"1";"1";"0";"74";"73";"module.training_block2.exec-3817.GoNoGo2";;;;;;;;;;;;;;;;;;;;;;;;;;;;;;;;;;;"1261";"2014-10-03 10:46:55.363";"NST_correctLoc";"33";"1";"FINISHED";"RIGHT";"success";"466";"0";"2014-10-03 10:46:54.099";"3";;;;;;;;;;;;;;;;;;;;;;;;;;;;;;;;;;;;;;;;;;;;;
"n12345";;;"Windows 7";"Rachel's Experiment (D.T.)";"1.0";"2";"1";"1";"2";"1";"1";"2014-10-03 10:41:57.923";"2014-10-03 10:56:29.572";"1";"1";"0";"75";"74";"module.training_block2.exec-3817.GoNoGo2";;;;;;;;;;;;;;;;;;;;;;;;;;;;;;;;;;;"1261";"2014-10-03 10:46:57.906";"ST_correctStop";"35";"0";"FINISHED";"NONE";"success";"0";"1";"2014-10-03 10:46:56.642";"3";;;;;;;;;;;;;;;;;;;;;;;;;;;;;;;;;;;;;;;;;;;;;
"n12345";;;"Windows 7";"Rachel's Experiment (D.T.)";"1.0";"2";"1";"1";"2";"1";"1";"2014-10-03 10:41:57.923";"2014-10-03 10:56:29.572";"1";"1";"0";"76";"75";"module.training_block2.exec-3817.GoNoGo2";;;;;;;;;;;;;;;;;;;;;;;;;;;;;;;;;;;"1261";"2014-10-03 10:47:00.448";"ST_correctStop";"23";"1";"FINISHED";"NONE";"success";"0";"1";"2014-10-03 10:46:59.185";"3";;;;;;;;;;;;;;;;;;;;;;;;;;;;;;;;;;;;;;;;;;;;;
"n12345";;;"Windows 7";"Rachel's Experiment (D.T.)";"1.0";"2";"1";"1";"2";"1";"1";"2014-10-03 10:41:57.923";"2014-10-03 10:56:29.572";"1";"1";"0";"77";"76";"module.training_block2.exec-3817.GoNoGo2";;;;;;;;;;;;;;;;;;;;;;;;;;;;;;;;;;;"1261";"2014-10-03 10:47:02.991";"ST_correctStop";"8";"0";"FINISHED";"NONE";"success";"0";"1";"2014-10-03 10:47:01.728";"1";;;;;;;;;;;;;;;;;;;;;;;;;;;;;;;;;;;;;;;;;;;;;
"n12345";;;"Windows 7";"Rachel's Experiment (D.T.)";"1.0";"2";"1";"1";"2";"1";"1";"2014-10-03 10:41:57.923";"2014-10-03 10:56:29.572";"1";"1";"0";"78";"77";"module.training_block2.exec-3817.GoNoGo2";;;;;;;;;;;;;;;;;;;;;;;;;;;;;;;;;;;"1256";"2014-10-03 10:47:05.534";"ST_correctStop";"0";"1";"FINISHED";"NONE";"success";"0";"1";"2014-10-03 10:47:04.270";"1";;;;;;;;;;;;;;;;;;;;;;;;;;;;;;;;;;;;;;;;;;;;;
"n12345";;;"Windows 7";"Rachel's Experiment (D.T.)";"1.0";"2";"1";"1";"2";"1";"1";"2014-10-03 10:41:57.923";"2014-10-03 10:56:29.572";"1";"1";"0";"79";"78";"module.training_block2.exec-3817.GoNoGo2";;;;;;;;;;;;;;;;;;;;;;;;;;;;;;;;;;;"1261";"2014-10-03 10:47:08.077";"ST_correctStop";"18";"1";"FINISHED";"NONE";"success";"0";"1";"2014-10-03 10:47:06.813";"3";;;;;;;;;;;;;;;;;;;;;;;;;;;;;;;;;;;;;;;;;;;;;
"n12345";;;"Windows 7";"Rachel's Experiment (D.T.)";"1.0";"2";"1";"1";"2";"1";"1";"2014-10-03 10:41:57.923";"2014-10-03 10:56:29.572";"1";"1";"0";"80";"79";"module.training_block2.exec-3817.GoNoGo2";;;;;;;;;;;;;;;;;;;;;;;;;;;;;;;;;;;"1261";"2014-10-03 10:47:10.619";"ST_correctStop";"19";"0";"FINISHED";"NONE";"success";"0";"1";"2014-10-03 10:47:09.356";"3";;;;;;;;;;;;;;;;;;;;;;;;;;;;;;;;;;;;;;;;;;;;;
"n12345";;;"Windows 7";"Rachel's Experiment (D.T.)";"1.0";"2";"1";"1";"2";"1";"1";"2014-10-03 10:41:57.923";"2014-10-03 10:56:29.572";"1";"1";"0";"81";"80";"module.training_block2.exec-3817.GoNoGo2";;;;;;;;;;;;;;;;;;;;;;;;;;;;;;;;;;;"1261";"2014-10-03 10:47:13.162";"NST_correctLoc";"32";"1";"FINISHED";"RIGHT";"success";"610";"0";"2014-10-03 10:47:11.899";"3";;;;;;;;;;;;;;;;;;;;;;;;;;;;;;;;;;;;;;;;;;;;;
"n12345";;;"Windows 7";"Rachel's Experiment (D.T.)";"1.0";"2";"1";"1";"2";"1";"1";"2014-10-03 10:41:57.923";"2014-10-03 10:56:29.572";"1";"1";"0";"82";"81";"module.training_block2.exec-3817.GoNoGo2";;;;;;;;;;;;;;;;;;;;;;;;;;;;;;;;;;;"1261";"2014-10-03 10:47:15.705";"NST_correctLoc";"9";"1";"FINISHED";"RIGHT";"success";"739";"0";"2014-10-03 10:47:14.441";"2";;;;;;;;;;;;;;;;;;;;;;;;;;;;;;;;;;;;;;;;;;;;;
"n12345";;;"Windows 7";"Rachel's Experiment (D.T.)";"1.0";"2";"1";"1";"2";"1";"1";"2014-10-03 10:41:57.923";"2014-10-03 10:56:29.572";"1";"1";"0";"83";"82";"module.training_block2.exec-3817.GoNoGo2";;;;;;;;;;;;;;;;;;;;;;;;;;;;;;;;;;;"1258";"2014-10-03 10:47:18.248";"ST_correctStop";"1";"0";"FINISHED";"NONE";"success";"0";"1";"2014-10-03 10:47:16.984";"1";;;;;;;;;;;;;;;;;;;;;;;;;;;;;;;;;;;;;;;;;;;;;
"n12345";;;"Windows 7";"Rachel's Experiment (D.T.)";"1.0";"2";"1";"1";"2";"1";"1";"2014-10-03 10:41:57.923";"2014-10-03 10:56:29.572";"1";"1";"0";"84";"83";"module.training_block2.exec-3817.GoNoGo2";;;;;;;;;;;;;;;;;;;;;;;;;;;;;;;;;;;"1261";"2014-10-03 10:47:20.790";"NST_correctLoc";"25";"1";"FINISHED";"RIGHT";"success";"605";"0";"2014-10-03 10:47:19.527";"3";;;;;;;;;;;;;;;;;;;;;;;;;;;;;;;;;;;;;;;;;;;;;
"n12345";;;"Windows 7";"Rachel's Experiment (D.T.)";"1.0";"2";"1";"1";"2";"1";"1";"2014-10-03 10:41:57.923";"2014-10-03 10:56:29.572";"1";"1";"0";"85";"84";"module.training_block2.exec-3817.GoNoGo2";;;;;;;;;;;;;;;;;;;;;;;;;;;;;;;;;;;"1261";"2014-10-03 10:47:23.333";"NST_correctLoc";"17";"0";"FINISHED";"LEFT";"success";"446";"0";"2014-10-03 10:47:22.070";"2";;;;;;;;;;;;;;;;;;;;;;;;;;;;;;;;;;;;;;;;;;;;;
"n12345";;;"Windows 7";"Rachel's Experiment (D.T.)";"1.0";"2";"1";"1";"2";"1";"1";"2014-10-03 10:41:57.923";"2014-10-03 10:56:29.572";"1";"1";"0";"86";"85";"module.training_block2.exec-3817.GoNoGo2";;;;;;;;;;;;;;;;;;;;;;;;;;;;;;;;;;;"1261";"2014-10-03 10:47:25.876";"NST_correctLoc";"29";"0";"FINISHED";"LEFT";"success";"776";"0";"2014-10-03 10:47:24.612";"3";;;;;;;;;;;;;;;;;;;;;;;;;;;;;;;;;;;;;;;;;;;;;
"n12345";;;"Windows 7";"Rachel's Experiment (D.T.)";"1.0";"2";"1";"1";"2";"1";"1";"2014-10-03 10:41:57.923";"2014-10-03 10:56:29.572";"1";"1";"0";"87";"86";"module.training_block2.exec-3817.GoNoGo2";;;;;;;;;;;;;;;;;;;;;;;;;;;;;;;;;;;"1261";"2014-10-03 10:47:28.419";"NST_correctLoc";"15";"0";"FINISHED";"LEFT";"success";"569";"0";"2014-10-03 10:47:27.155";"2";;;;;;;;;;;;;;;;;;;;;;;;;;;;;;;;;;;;;;;;;;;;;
"n12345";;;"Windows 7";"Rachel's Experiment (D.T.)";"1.0";"2";"1";"1";"2";"1";"1";"2014-10-03 10:41:57.923";"2014-10-03 10:56:29.572";"1";"1";"0";"88";"87";"module.training_block3.exec-3546.GoNoGo3";;;;;;;;;;;;;;;;;;;;;;;;;;;;;;;;;;;;;;;;;;;;;;;"1261";"2014-10-03 10:47:44.018";"ST_correctStop";"25";"0";"FINISHED";"NONE";"success";"0";"1";"2014-10-03 10:47:42.755";"3";;;;;;;;;;;;;;;;;;;;;;;;;;;;;;;;;
"n12345";;;"Windows 7";"Rachel's Experiment (D.T.)";"1.0";"2";"1";"1";"2";"1";"1";"2014-10-03 10:41:57.923";"2014-10-03 10:56:29.572";"1";"1";"0";"89";"88";"module.training_block3.exec-3546.GoNoGo3";;;;;;;;;;;;;;;;;;;;;;;;;;;;;;;;;;;;;;;;;;;;;;;"1261";"2014-10-03 10:47:46.561";"NST_correctLoc";"10";"1";"FINISHED";"RIGHT";"success";"778";"0";"2014-10-03 10:47:45.297";"2";;;;;;;;;;;;;;;;;;;;;;;;;;;;;;;;;
"n12345";;;"Windows 7";"Rachel's Experiment (D.T.)";"1.0";"2";"1";"1";"2";"1";"1";"2014-10-03 10:41:57.923";"2014-10-03 10:56:29.572";"1";"1";"0";"90";"89";"module.training_block3.exec-3546.GoNoGo3";;;;;;;;;;;;;;;;;;;;;;;;;;;;;;;;;;;;;;;;;;;;;;;"1261";"2014-10-03 10:47:49.104";"NST_correctLoc";"11";"1";"FINISHED";"RIGHT";"success";"643";"0";"2014-10-03 10:47:47.840";"2";;;;;;;;;;;;;;;;;;;;;;;;;;;;;;;;;
"n12345";;;"Windows 7";"Rachel's Experiment (D.T.)";"1.0";"2";"1";"1";"2";"1";"1";"2014-10-03 10:41:57.923";"2014-10-03 10:56:29.572";"1";"1";"0";"91";"90";"module.training_block3.exec-3546.GoNoGo3";;;;;;;;;;;;;;;;;;;;;;;;;;;;;;;;;;;;;;;;;;;;;;;"1261";"2014-10-03 10:47:51.647";"NST_correctLoc";"15";"1";"FINISHED";"RIGHT";"success";"580";"0";"2014-10-03 10:47:50.383";"2";;;;;;;;;;;;;;;;;;;;;;;;;;;;;;;;;
"n12345";;;"Windows 7";"Rachel's Experiment (D.T.)";"1.0";"2";"1";"1";"2";"1";"1";"2014-10-03 10:41:57.923";"2014-10-03 10:56:29.572";"1";"1";"0";"92";"91";"module.training_block3.exec-3546.GoNoGo3";;;;;;;;;;;;;;;;;;;;;;;;;;;;;;;;;;;;;;;;;;;;;;;"1261";"2014-10-03 10:47:54.189";"ST_correctStop";"23";"0";"FINISHED";"NONE";"success";"0";"1";"2014-10-03 10:47:52.926";"3";;;;;;;;;;;;;;;;;;;;;;;;;;;;;;;;;
"n12345";;;"Windows 7";"Rachel's Experiment (D.T.)";"1.0";"2";"1";"1";"2";"1";"1";"2014-10-03 10:41:57.923";"2014-10-03 10:56:29.572";"1";"1";"0";"93";"92";"module.training_block3.exec-3546.GoNoGo3";;;;;;;;;;;;;;;;;;;;;;;;;;;;;;;;;;;;;;;;;;;;;;;"1261";"2014-10-03 10:47:56.732";"NST_correctLoc";"28";"1";"FINISHED";"RIGHT";"success";"583";"0";"2014-10-03 10:47:55.468";"3";;;;;;;;;;;;;;;;;;;;;;;;;;;;;;;;;
"n12345";;;"Windows 7";"Rachel's Experiment (D.T.)";"1.0";"2";"1";"1";"2";"1";"1";"2014-10-03 10:41:57.923";"2014-10-03 10:56:29.572";"1";"1";"0";"94";"93";"module.training_block3.exec-3546.GoNoGo3";;;;;;;;;;;;;;;;;;;;;;;;;;;;;;;;;;;;;;;;;;;;;;;"1261";"2014-10-03 10:47:59.275";"ST_correctStop";"18";"0";"FINISHED";"NONE";"success";"0";"1";"2014-10-03 10:47:58.011";"3";;;;;;;;;;;;;;;;;;;;;;;;;;;;;;;;;
"n12345";;;"Windows 7";"Rachel's Experiment (D.T.)";"1.0";"2";"1";"1";"2";"1";"1";"2014-10-03 10:41:57.923";"2014-10-03 10:56:29.572";"1";"1";"0";"95";"94";"module.training_block3.exec-3546.GoNoGo3";;;;;;;;;;;;;;;;;;;;;;;;;;;;;;;;;;;;;;;;;;;;;;;"1261";"2014-10-03 10:48:01.818";"ST_correctStop";"7";"1";"FINISHED";"NONE";"success";"0";"1";"2014-10-03 10:48:00.554";"1";;;;;;;;;;;;;;;;;;;;;;;;;;;;;;;;;
"n12345";;;"Windows 7";"Rachel's Experiment (D.T.)";"1.0";"2";"1";"1";"2";"1";"1";"2014-10-03 10:41:57.923";"2014-10-03 10:56:29.572";"1";"1";"0";"96";"95";"module.training_block3.exec-3546.GoNoGo3";;;;;;;;;;;;;;;;;;;;;;;;;;;;;;;;;;;;;;;;;;;;;;;"1261";"2014-10-03 10:48:04.360";"ST_correctStop";"29";"1";"FINISHED";"NONE";"success";"0";"1";"2014-10-03 10:48:03.097";"3";;;;;;;;;;;;;;;;;;;;;;;;;;;;;;;;;
"n12345";;;"Windows 7";"Rachel's Experiment (D.T.)";"1.0";"2";"1";"1";"2";"1";"1";"2014-10-03 10:41:57.923";"2014-10-03 10:56:29.572";"1";"1";"0";"97";"96";"module.training_block3.exec-3546.GoNoGo3";;;;;;;;;;;;;;;;;;;;;;;;;;;;;;;;;;;;;;;;;;;;;;;"1262";"2014-10-03 10:48:06.903";"NST_correctLoc";"14";"0";"FINISHED";"LEFT";"success";"619";"0";"2014-10-03 10:48:05.639";"2";;;;;;;;;;;;;;;;;;;;;;;;;;;;;;;;;
"n12345";;;"Windows 7";"Rachel's Experiment (D.T.)";"1.0";"2";"1";"1";"2";"1";"1";"2014-10-03 10:41:57.923";"2014-10-03 10:56:29.572";"1";"1";"0";"98";"97";"module.training_block3.exec-3546.GoNoGo3";;;;;;;;;;;;;;;;;;;;;;;;;;;;;;;;;;;;;;;;;;;;;;;"1261";"2014-10-03 10:48:09.446";"ST_correctStop";"1";"0";"FINISHED";"NONE";"success";"0";"1";"2014-10-03 10:48:08.182";"1";;;;;;;;;;;;;;;;;;;;;;;;;;;;;;;;;
"n12345";;;"Windows 7";"Rachel's Experiment (D.T.)";"1.0";"2";"1";"1";"2";"1";"1";"2014-10-03 10:41:57.923";"2014-10-03 10:56:29.572";"1";"1";"0";"99";"98";"module.training_block3.exec-3546.GoNoGo3";;;;;;;;;;;;;;;;;;;;;;;;;;;;;;;;;;;;;;;;;;;;;;;"1261";"2014-10-03 10:48:11.989";"ST_correctStop";"6";"0";"FINISHED";"NONE";"success";"0";"1";"2014-10-03 10:48:10.725";"1";;;;;;;;;;;;;;;;;;;;;;;;;;;;;;;;;
"n12345";;;"Windows 7";"Rachel's Experiment (D.T.)";"1.0";"2";"1";"1";"2";"1";"1";"2014-10-03 10:41:57.923";"2014-10-03 10:56:29.572";"1";"1";"0";"100";"99";"module.training_block3.exec-3546.GoNoGo3";;;;;;;;;;;;;;;;;;;;;;;;;;;;;;;;;;;;;;;;;;;;;;;"1261";"2014-10-03 10:48:14.531";"NST_correctLoc";"17";"0";"FINISHED";"LEFT";"success";"783";"0";"2014-10-03 10:48:13.268";"2";;;;;;;;;;;;;;;;;;;;;;;;;;;;;;;;;
"n12345";;;"Windows 7";"Rachel's Experiment (D.T.)";"1.0";"2";"1";"1";"2";"1";"1";"2014-10-03 10:41:57.923";"2014-10-03 10:56:29.572";"1";"1";"0";"101";"100";"module.training_block3.exec-3546.GoNoGo3";;;;;;;;;;;;;;;;;;;;;;;;;;;;;;;;;;;;;;;;;;;;;;;"1261";"2014-10-03 10:48:17.074";"NST_correctLoc";"33";"0";"FINISHED";"LEFT";"success";"648";"0";"2014-10-03 10:48:15.810";"3";;;;;;;;;;;;;;;;;;;;;;;;;;;;;;;;;
"n12345";;;"Windows 7";"Rachel's Experiment (D.T.)";"1.0";"2";"1";"1";"2";"1";"1";"2014-10-03 10:41:57.923";"2014-10-03 10:56:29.572";"1";"1";"0";"102";"101";"module.training_block3.exec-3546.GoNoGo3";;;;;;;;;;;;;;;;;;;;;;;;;;;;;;;;;;;;;;;;;;;;;;;"1262";"2014-10-03 10:48:19.617";"NST_correctLoc";"24";"0";"FINISHED";"LEFT";"success";"545";"0";"2014-10-03 10:48:18.353";"3";;;;;;;;;;;;;;;;;;;;;;;;;;;;;;;;;
"n12345";;;"Windows 7";"Rachel's Experiment (D.T.)";"1.0";"2";"1";"1";"2";"1";"1";"2014-10-03 10:41:57.923";"2014-10-03 10:56:29.572";"1";"1";"0";"103";"102";"module.training_block3.exec-3546.GoNoGo3";;;;;;;;;;;;;;;;;;;;;;;;;;;;;;;;;;;;;;;;;;;;;;;"1261";"2014-10-03 10:48:22.160";"ST_correctStop";"21";"1";"FINISHED";"NONE";"success";"0";"1";"2014-10-03 10:48:20.896";"3";;;;;;;;;;;;;;;;;;;;;;;;;;;;;;;;;
"n12345";;;"Windows 7";"Rachel's Experiment (D.T.)";"1.0";"2";"1";"1";"2";"1";"1";"2014-10-03 10:41:57.923";"2014-10-03 10:56:29.572";"1";"1";"0";"104";"103";"module.training_block3.exec-3546.GoNoGo3";;;;;;;;;;;;;;;;;;;;;;;;;;;;;;;;;;;;;;;;;;;;;;;"1261";"2014-10-03 10:48:24.702";"ST_correctStop";"4";"0";"FINISHED";"NONE";"success";"0";"1";"2014-10-03 10:48:23.439";"1";;;;;;;;;;;;;;;;;;;;;;;;;;;;;;;;;
"n12345";;;"Windows 7";"Rachel's Experiment (D.T.)";"1.0";"2";"1";"1";"2";"1";"1";"2014-10-03 10:41:57.923";"2014-10-03 10:56:29.572";"1";"1";"0";"105";"104";"module.training_block3.exec-3546.GoNoGo3";;;;;;;;;;;;;;;;;;;;;;;;;;;;;;;;;;;;;;;;;;;;;;;"1261";"2014-10-03 10:48:27.245";"NST_correctLoc";"32";"0";"FINISHED";"LEFT";"success";"565";"0";"2014-10-03 10:48:25.981";"3";;;;;;;;;;;;;;;;;;;;;;;;;;;;;;;;;
"n12345";;;"Windows 7";"Rachel's Experiment (D.T.)";"1.0";"2";"1";"1";"2";"1";"1";"2014-10-03 10:41:57.923";"2014-10-03 10:56:29.572";"1";"1";"0";"106";"105";"module.training_block3.exec-3546.GoNoGo3";;;;;;;;;;;;;;;;;;;;;;;;;;;;;;;;;;;;;;;;;;;;;;;"1261";"2014-10-03 10:48:29.788";"ST_correctStop";"27";"1";"FINISHED";"NONE";"success";"0";"1";"2014-10-03 10:48:28.524";"3";;;;;;;;;;;;;;;;;;;;;;;;;;;;;;;;;
"n12345";;;"Windows 7";"Rachel's Experiment (D.T.)";"1.0";"2";"1";"1";"2";"1";"1";"2014-10-03 10:41:57.923";"2014-10-03 10:56:29.572";"1";"1";"0";"107";"106";"module.training_block3.exec-3546.GoNoGo3";;;;;;;;;;;;;;;;;;;;;;;;;;;;;;;;;;;;;;;;;;;;;;;"1261";"2014-10-03 10:48:32.331";"ST_correctStop";"5";"0";"FINISHED";"NONE";"success";"0";"1";"2014-10-03 10:48:31.067";"1";;;;;;;;;;;;;;;;;;;;;;;;;;;;;;;;;
"n12345";;;"Windows 7";"Rachel's Experiment (D.T.)";"1.0";"2";"1";"1";"2";"1";"1";"2014-10-03 10:41:57.923";"2014-10-03 10:56:29.572";"1";"1";"0";"108";"107";"module.training_block3.exec-3546.GoNoGo3";;;;;;;;;;;;;;;;;;;;;;;;;;;;;;;;;;;;;;;;;;;;;;;"1261";"2014-10-03 10:48:34.889";"NST_correctLoc";"35";"0";"FINISHED";"LEFT";"success";"569";"0";"2014-10-03 10:48:33.625";"3";;;;;;;;;;;;;;;;;;;;;;;;;;;;;;;;;
"n12345";;;"Windows 7";"Rachel's Experiment (D.T.)";"1.0";"2";"1";"1";"2";"1";"1";"2014-10-03 10:41:57.923";"2014-10-03 10:56:29.572";"1";"1";"0";"109";"108";"module.training_block3.exec-3546.GoNoGo3";;;;;;;;;;;;;;;;;;;;;;;;;;;;;;;;;;;;;;;;;;;;;;;"1261";"2014-10-03 10:48:37.432";"ST_correctStop";"3";"1";"FINISHED";"NONE";"success";"0";"1";"2014-10-03 10:48:36.168";"1";;;;;;;;;;;;;;;;;;;;;;;;;;;;;;;;;
"n12345";;;"Windows 7";"Rachel's Experiment (D.T.)";"1.0";"2";"1";"1";"2";"1";"1";"2014-10-03 10:41:57.923";"2014-10-03 10:56:29.572";"1";"1";"0";"110";"109";"module.training_block3.exec-3546.GoNoGo3";;;;;;;;;;;;;;;;;;;;;;;;;;;;;;;;;;;;;;;;;;;;;;;"1261";"2014-10-03 10:48:39.974";"NST_correctLoc";"16";"0";"FINISHED";"LEFT";"success";"531";"0";"2014-10-03 10:48:38.711";"2";;;;;;;;;;;;;;;;;;;;;;;;;;;;;;;;;
"n12345";;;"Windows 7";"Rachel's Experiment (D.T.)";"1.0";"2";"1";"1";"2";"1";"1";"2014-10-03 10:41:57.923";"2014-10-03 10:56:29.572";"1";"1";"0";"111";"110";"module.training_block3.exec-3546.GoNoGo3";;;;;;;;;;;;;;;;;;;;;;;;;;;;;;;;;;;;;;;;;;;;;;;"1261";"2014-10-03 10:48:42.517";"NST_correctLoc";"26";"1";"FINISHED";"RIGHT";"success";"580";"0";"2014-10-03 10:48:41.254";"3";;;;;;;;;;;;;;;;;;;;;;;;;;;;;;;;;
"n12345";;;"Windows 7";"Rachel's Experiment (D.T.)";"1.0";"2";"1";"1";"2";"1";"1";"2014-10-03 10:41:57.923";"2014-10-03 10:56:29.572";"1";"1";"0";"112";"111";"module.training_block3.exec-3546.GoNoGo3";;;;;;;;;;;;;;;;;;;;;;;;;;;;;;;;;;;;;;;;;;;;;;;"1261";"2014-10-03 10:48:45.060";"ST_correctStop";"8";"1";"FINISHED";"NONE";"success";"0";"1";"2014-10-03 10:48:43.796";"1";;;;;;;;;;;;;;;;;;;;;;;;;;;;;;;;;
"n12345";;;"Windows 7";"Rachel's Experiment (D.T.)";"1.0";"2";"1";"1";"2";"1";"1";"2014-10-03 10:41:57.923";"2014-10-03 10:56:29.572";"1";"1";"0";"113";"112";"module.training_block3.exec-3546.GoNoGo3";;;;;;;;;;;;;;;;;;;;;;;;;;;;;;;;;;;;;;;;;;;;;;;"1261";"2014-10-03 10:48:47.603";"ST_correctStop";"0";"0";"FINISHED";"NONE";"success";"0";"1";"2014-10-03 10:48:46.339";"1";;;;;;;;;;;;;;;;;;;;;;;;;;;;;;;;;
"n12345";;;"Windows 7";"Rachel's Experiment (D.T.)";"1.0";"2";"1";"1";"2";"1";"1";"2014-10-03 10:41:57.923";"2014-10-03 10:56:29.572";"1";"1";"0";"114";"113";"module.training_block3.exec-3546.GoNoGo3";;;;;;;;;;;;;;;;;;;;;;;;;;;;;;;;;;;;;;;;;;;;;;;"1261";"2014-10-03 10:48:50.145";"NST_correctLoc";"12";"0";"FINISHED";"LEFT";"success";"512";"0";"2014-10-03 10:48:48.882";"2";;;;;;;;;;;;;;;;;;;;;;;;;;;;;;;;;
"n12345";;;"Windows 7";"Rachel's Experiment (D.T.)";"1.0";"2";"1";"1";"2";"1";"1";"2014-10-03 10:41:57.923";"2014-10-03 10:56:29.572";"1";"1";"0";"115";"114";"module.training_block3.exec-3546.GoNoGo3";;;;;;;;;;;;;;;;;;;;;;;;;;;;;;;;;;;;;;;;;;;;;;;"1261";"2014-10-03 10:48:52.688";"NST_correctLoc";"20";"0";"FINISHED";"LEFT";"success";"657";"0";"2014-10-03 10:48:51.425";"3";;;;;;;;;;;;;;;;;;;;;;;;;;;;;;;;;
"n12345";;;"Windows 7";"Rachel's Experiment (D.T.)";"1.0";"2";"1";"1";"2";"1";"1";"2014-10-03 10:41:57.923";"2014-10-03 10:56:29.572";"1";"1";"0";"116";"115";"module.training_block3.exec-3546.GoNoGo3";;;;;;;;;;;;;;;;;;;;;;;;;;;;;;;;;;;;;;;;;;;;;;;"1261";"2014-10-03 10:48:55.231";"ST_correctStop";"31";"1";"FINISHED";"NONE";"success";"0";"1";"2014-10-03 10:48:53.967";"3";;;;;;;;;;;;;;;;;;;;;;;;;;;;;;;;;
"n12345";;;"Windows 7";"Rachel's Experiment (D.T.)";"1.0";"2";"1";"1";"2";"1";"1";"2014-10-03 10:41:57.923";"2014-10-03 10:56:29.572";"1";"1";"0";"117";"116";"module.training_block3.exec-3546.GoNoGo3";;;;;;;;;;;;;;;;;;;;;;;;;;;;;;;;;;;;;;;;;;;;;;;"1261";"2014-10-03 10:48:57.774";"ST_correctStop";"2";"1";"FINISHED";"NONE";"success";"0";"1";"2014-10-03 10:48:56.510";"1";;;;;;;;;;;;;;;;;;;;;;;;;;;;;;;;;
"n12345";;;"Windows 7";"Rachel's Experiment (D.T.)";"1.0";"2";"1";"1";"2";"1";"1";"2014-10-03 10:41:57.923";"2014-10-03 10:56:29.572";"1";"1";"0";"118";"117";"module.training_block3.exec-3546.GoNoGo3";;;;;;;;;;;;;;;;;;;;;;;;;;;;;;;;;;;;;;;;;;;;;;;"1261";"2014-10-03 10:49:00.316";"ST_correctStop";"19";"0";"FINISHED";"NONE";"success";"0";"1";"2014-10-03 10:48:59.053";"3";;;;;;;;;;;;;;;;;;;;;;;;;;;;;;;;;
"n12345";;;"Windows 7";"Rachel's Experiment (D.T.)";"1.0";"2";"1";"1";"2";"1";"1";"2014-10-03 10:41:57.923";"2014-10-03 10:56:29.572";"1";"1";"0";"119";"118";"module.training_block3.exec-3546.GoNoGo3";;;;;;;;;;;;;;;;;;;;;;;;;;;;;;;;;;;;;;;;;;;;;;;"1261";"2014-10-03 10:49:02.859";"ST_correctStop";"34";"0";"FINISHED";"NONE";"success";"0";"1";"2014-10-03 10:49:01.596";"3";;;;;;;;;;;;;;;;;;;;;;;;;;;;;;;;;
"n12345";;;"Windows 7";"Rachel's Experiment (D.T.)";"1.0";"2";"1";"1";"2";"1";"1";"2014-10-03 10:41:57.923";"2014-10-03 10:56:29.572";"1";"1";"0";"120";"119";"module.training_block3.exec-3546.GoNoGo3";;;;;;;;;;;;;;;;;;;;;;;;;;;;;;;;;;;;;;;;;;;;;;;"1261";"2014-10-03 10:49:05.402";"NST_correctLoc";"13";"0";"FINISHED";"LEFT";"success";"567";"0";"2014-10-03 10:49:04.138";"2";;;;;;;;;;;;;;;;;;;;;;;;;;;;;;;;;
"n12345";;;"Windows 7";"Rachel's Experiment (D.T.)";"1.0";"2";"1";"1";"2";"1";"1";"2014-10-03 10:41:57.923";"2014-10-03 10:56:29.572";"1";"1";"0";"121";"120";"module.training_block3.exec-3546.GoNoGo3";;;;;;;;;;;;;;;;;;;;;;;;;;;;;;;;;;;;;;;;;;;;;;;"1261";"2014-10-03 10:49:07.945";"NST_correctLoc";"9";"0";"FINISHED";"LEFT";"success";"624";"0";"2014-10-03 10:49:06.681";"2";;;;;;;;;;;;;;;;;;;;;;;;;;;;;;;;;
"n12345";;;"Windows 7";"Rachel's Experiment (D.T.)";"1.0";"2";"1";"1";"2";"1";"1";"2014-10-03 10:41:57.923";"2014-10-03 10:56:29.572";"1";"1";"0";"122";"121";"module.training_block3.exec-3546.GoNoGo3";;;;;;;;;;;;;;;;;;;;;;;;;;;;;;;;;;;;;;;;;;;;;;;"1261";"2014-10-03 10:49:10.487";"NST_correctLoc";"22";"1";"FINISHED";"RIGHT";"success";"777";"0";"2014-10-03 10:49:09.224";"3";;;;;;;;;;;;;;;;;;;;;;;;;;;;;;;;;
"n12345";;;"Windows 7";"Rachel's Experiment (D.T.)";"1.0";"2";"1";"1";"2";"1";"1";"2014-10-03 10:41:57.923";"2014-10-03 10:56:29.572";"1";"1";"0";"123";"122";"module.training_block3.exec-3546.GoNoGo3";;;;;;;;;;;;;;;;;;;;;;;;;;;;;;;;;;;;;;;;;;;;;;;"1257";"2014-10-03 10:49:13.030";"NST_correctLoc";"30";"1";"FINISHED";"RIGHT";"success";"654";"0";"2014-10-03 10:49:11.767";"3";;;;;;;;;;;;;;;;;;;;;;;;;;;;;;;;;
"n12345";;;"Windows 7";"Rachel's Experiment (D.T.)";"1.0";"2";"1";"1";"2";"1";"1";"2014-10-03 10:41:57.923";"2014-10-03 10:56:29.572";"1";"1";"0";"124";"123";"module.training_block4.exec-1381.GoNoGo4";;;;;;;;;;;;;;;;;;;;;;;;;;;;;;;;;;;;;;;;;;;;;;;;;;;;;;;;;;;"1261";"2014-10-03 10:49:31.687";"ST_correctStop";"8";"0";"FINISHED";"NONE";"success";"0";"1";"2014-10-03 10:49:30.424";"1";;;;;;;;;;;;;;;;;;;;;
"n12345";;;"Windows 7";"Rachel's Experiment (D.T.)";"1.0";"2";"1";"1";"2";"1";"1";"2014-10-03 10:41:57.923";"2014-10-03 10:56:29.572";"1";"1";"0";"125";"124";"module.training_block4.exec-1381.GoNoGo4";;;;;;;;;;;;;;;;;;;;;;;;;;;;;;;;;;;;;;;;;;;;;;;;;;;;;;;;;;;"1261";"2014-10-03 10:49:34.230";"NST_correctLoc";"32";"1";"FINISHED";"RIGHT";"success";"530";"0";"2014-10-03 10:49:32.967";"3";;;;;;;;;;;;;;;;;;;;;
"n12345";;;"Windows 7";"Rachel's Experiment (D.T.)";"1.0";"2";"1";"1";"2";"1";"1";"2014-10-03 10:41:57.923";"2014-10-03 10:56:29.572";"1";"1";"0";"126";"125";"module.training_block4.exec-1381.GoNoGo4";;;;;;;;;;;;;;;;;;;;;;;;;;;;;;;;;;;;;;;;;;;;;;;;;;;;;;;;;;;"1261";"2014-10-03 10:49:36.773";"ST_correctStop";"5";"1";"FINISHED";"NONE";"success";"0";"1";"2014-10-03 10:49:35.509";"1";;;;;;;;;;;;;;;;;;;;;
"n12345";;;"Windows 7";"Rachel's Experiment (D.T.)";"1.0";"2";"1";"1";"2";"1";"1";"2014-10-03 10:41:57.923";"2014-10-03 10:56:29.572";"1";"1";"0";"127";"126";"module.training_block4.exec-1381.GoNoGo4";;;;;;;;;;;;;;;;;;;;;;;;;;;;;;;;;;;;;;;;;;;;;;;;;;;;;;;;;;;"1261";"2014-10-03 10:49:39.316";"ST_correctStop";"6";"1";"FINISHED";"NONE";"success";"0";"1";"2014-10-03 10:49:38.052";"1";;;;;;;;;;;;;;;;;;;;;
"n12345";;;"Windows 7";"Rachel's Experiment (D.T.)";"1.0";"2";"1";"1";"2";"1";"1";"2014-10-03 10:41:57.923";"2014-10-03 10:56:29.572";"1";"1";"0";"128";"127";"module.training_block4.exec-1381.GoNoGo4";;;;;;;;;;;;;;;;;;;;;;;;;;;;;;;;;;;;;;;;;;;;;;;;;;;;;;;;;;;"1261";"2014-10-03 10:49:41.858";"ST_correctStop";"31";"0";"FINISHED";"NONE";"success";"0";"1";"2014-10-03 10:49:40.595";"3";;;;;;;;;;;;;;;;;;;;;
"n12345";;;"Windows 7";"Rachel's Experiment (D.T.)";"1.0";"2";"1";"1";"2";"1";"1";"2014-10-03 10:41:57.923";"2014-10-03 10:56:29.572";"1";"1";"0";"129";"128";"module.training_block4.exec-1381.GoNoGo4";;;;;;;;;;;;;;;;;;;;;;;;;;;;;;;;;;;;;;;;;;;;;;;;;;;;;;;;;;;"1262";"2014-10-03 10:49:44.401";"NST_correctLoc";"10";"1";"FINISHED";"RIGHT";"success";"575";"0";"2014-10-03 10:49:43.138";"2";;;;;;;;;;;;;;;;;;;;;
"n12345";;;"Windows 7";"Rachel's Experiment (D.T.)";"1.0";"2";"1";"1";"2";"1";"1";"2014-10-03 10:41:57.923";"2014-10-03 10:56:29.572";"1";"1";"0";"130";"129";"module.training_block4.exec-1381.GoNoGo4";;;;;;;;;;;;;;;;;;;;;;;;;;;;;;;;;;;;;;;;;;;;;;;;;;;;;;;;;;;"1262";"2014-10-03 10:49:46.944";"ST_correctStop";"35";"0";"FINISHED";"NONE";"success";"0";"1";"2014-10-03 10:49:45.680";"3";;;;;;;;;;;;;;;;;;;;;
"n12345";;;"Windows 7";"Rachel's Experiment (D.T.)";"1.0";"2";"1";"1";"2";"1";"1";"2014-10-03 10:41:57.923";"2014-10-03 10:56:29.572";"1";"1";"0";"131";"130";"module.training_block4.exec-1381.GoNoGo4";;;;;;;;;;;;;;;;;;;;;;;;;;;;;;;;;;;;;;;;;;;;;;;;;;;;;;;;;;;"1261";"2014-10-03 10:49:49.502";"ST_correctStop";"4";"1";"FINISHED";"NONE";"success";"0";"1";"2014-10-03 10:49:48.239";"1";;;;;;;;;;;;;;;;;;;;;
"n12345";;;"Windows 7";"Rachel's Experiment (D.T.)";"1.0";"2";"1";"1";"2";"1";"1";"2014-10-03 10:41:57.923";"2014-10-03 10:56:29.572";"1";"1";"0";"132";"131";"module.training_block4.exec-1381.GoNoGo4";;;;;;;;;;;;;;;;;;;;;;;;;;;;;;;;;;;;;;;;;;;;;;;;;;;;;;;;;;;"1261";"2014-10-03 10:49:52.045";"NST_correctLoc";"14";"1";"FINISHED";"RIGHT";"success";"483";"0";"2014-10-03 10:49:50.781";"2";;;;;;;;;;;;;;;;;;;;;
"n12345";;;"Windows 7";"Rachel's Experiment (D.T.)";"1.0";"2";"1";"1";"2";"1";"1";"2014-10-03 10:41:57.923";"2014-10-03 10:56:29.572";"1";"1";"0";"133";"132";"module.training_block4.exec-1381.GoNoGo4";;;;;;;;;;;;;;;;;;;;;;;;;;;;;;;;;;;;;;;;;;;;;;;;;;;;;;;;;;;"1261";"2014-10-03 10:49:54.603";"NST_correctLoc";"16";"0";"FINISHED";"LEFT";"success";"764";"0";"2014-10-03 10:49:53.340";"2";;;;;;;;;;;;;;;;;;;;;
"n12345";;;"Windows 7";"Rachel's Experiment (D.T.)";"1.0";"2";"1";"1";"2";"1";"1";"2014-10-03 10:41:57.923";"2014-10-03 10:56:29.572";"1";"1";"0";"134";"133";"module.training_block4.exec-1381.GoNoGo4";;;;;;;;;;;;;;;;;;;;;;;;;;;;;;;;;;;;;;;;;;;;;;;;;;;;;;;;;;;"1261";"2014-10-03 10:49:57.146";"ST_correctStop";"29";"0";"FINISHED";"NONE";"success";"0";"1";"2014-10-03 10:49:55.883";"3";;;;;;;;;;;;;;;;;;;;;
"n12345";;;"Windows 7";"Rachel's Experiment (D.T.)";"1.0";"2";"1";"1";"2";"1";"1";"2014-10-03 10:41:57.923";"2014-10-03 10:56:29.572";"1";"1";"0";"135";"134";"module.training_block4.exec-1381.GoNoGo4";;;;;;;;;;;;;;;;;;;;;;;;;;;;;;;;;;;;;;;;;;;;;;;;;;;;;;;;;;;"1261";"2014-10-03 10:49:59.689";"ST_correctStop";"2";"1";"FINISHED";"NONE";"success";"0";"1";"2014-10-03 10:49:58.425";"1";;;;;;;;;;;;;;;;;;;;;
"n12345";;;"Windows 7";"Rachel's Experiment (D.T.)";"1.0";"2";"1";"1";"2";"1";"1";"2014-10-03 10:41:57.923";"2014-10-03 10:56:29.572";"1";"1";"0";"136";"135";"module.training_block4.exec-1381.GoNoGo4";;;;;;;;;;;;;;;;;;;;;;;;;;;;;;;;;;;;;;;;;;;;;;;;;;;;;;;;;;;"1261";"2014-10-03 10:50:02.232";"NST_correctLoc";"13";"0";"FINISHED";"LEFT";"success";"536";"0";"2014-10-03 10:50:00.968";"2";;;;;;;;;;;;;;;;;;;;;
"n12345";;;"Windows 7";"Rachel's Experiment (D.T.)";"1.0";"2";"1";"1";"2";"1";"1";"2014-10-03 10:41:57.923";"2014-10-03 10:56:29.572";"1";"1";"0";"137";"136";"module.training_block4.exec-1381.GoNoGo4";;;;;;;;;;;;;;;;;;;;;;;;;;;;;;;;;;;;;;;;;;;;;;;;;;;;;;;;;;;"1261";"2014-10-03 10:50:04.759";"ST_correctStop";"20";"0";"FINISHED";"NONE";"success";"0";"1";"2014-10-03 10:50:03.495";"3";;;;;;;;;;;;;;;;;;;;;
"n12345";;;"Windows 7";"Rachel's Experiment (D.T.)";"1.0";"2";"1";"1";"2";"1";"1";"2014-10-03 10:41:57.923";"2014-10-03 10:56:29.572";"1";"1";"0";"138";"137";"module.training_block4.exec-1381.GoNoGo4";;;;;;;;;;;;;;;;;;;;;;;;;;;;;;;;;;;;;;;;;;;;;;;;;;;;;;;;;;;"1261";"2014-10-03 10:50:07.302";"NST_correctLoc";"19";"0";"FINISHED";"LEFT";"success";"450";"0";"2014-10-03 10:50:06.038";"3";;;;;;;;;;;;;;;;;;;;;
"n12345";;;"Windows 7";"Rachel's Experiment (D.T.)";"1.0";"2";"1";"1";"2";"1";"1";"2014-10-03 10:41:57.923";"2014-10-03 10:56:29.572";"1";"1";"0";"139";"138";"module.training_block4.exec-1381.GoNoGo4";;;;;;;;;;;;;;;;;;;;;;;;;;;;;;;;;;;;;;;;;;;;;;;;;;;;;;;;;;;"1261";"2014-10-03 10:50:09.844";"ST_correctStop";"21";"1";"FINISHED";"NONE";"success";"0";"1";"2014-10-03 10:50:08.581";"3";;;;;;;;;;;;;;;;;;;;;
"n12345";;;"Windows 7";"Rachel's Experiment (D.T.)";"1.0";"2";"1";"1";"2";"1";"1";"2014-10-03 10:41:57.923";"2014-10-03 10:56:29.572";"1";"1";"0";"140";"139";"module.training_block4.exec-1381.GoNoGo4";;;;;;;;;;;;;;;;;;;;;;;;;;;;;;;;;;;;;;;;;;;;;;;;;;;;;;;;;;;"1261";"2014-10-03 10:50:12.403";"ST_correctStop";"7";"0";"FINISHED";"NONE";"success";"0";"1";"2014-10-03 10:50:11.139";"1";;;;;;;;;;;;;;;;;;;;;
"n12345";;;"Windows 7";"Rachel's Experiment (D.T.)";"1.0";"2";"1";"1";"2";"1";"1";"2014-10-03 10:41:57.923";"2014-10-03 10:56:29.572";"1";"1";"0";"141";"140";"module.training_block4.exec-1381.GoNoGo4";;;;;;;;;;;;;;;;;;;;;;;;;;;;;;;;;;;;;;;;;;;;;;;;;;;;;;;;;;;"1261";"2014-10-03 10:50:14.945";"NST_correctLoc";"25";"0";"FINISHED";"LEFT";"success";"550";"0";"2014-10-03 10:50:13.682";"3";;;;;;;;;;;;;;;;;;;;;
"n12345";;;"Windows 7";"Rachel's Experiment (D.T.)";"1.0";"2";"1";"1";"2";"1";"1";"2014-10-03 10:41:57.923";"2014-10-03 10:56:29.572";"1";"1";"0";"142";"141";"module.training_block4.exec-1381.GoNoGo4";;;;;;;;;;;;;;;;;;;;;;;;;;;;;;;;;;;;;;;;;;;;;;;;;;;;;;;;;;;"1261";"2014-10-03 10:50:17.488";"ST_correctStop";"3";"1";"FINISHED";"NONE";"success";"0";"1";"2014-10-03 10:50:16.225";"1";;;;;;;;;;;;;;;;;;;;;
"n12345";;;"Windows 7";"Rachel's Experiment (D.T.)";"1.0";"2";"1";"1";"2";"1";"1";"2014-10-03 10:41:57.923";"2014-10-03 10:56:29.572";"1";"1";"0";"143";"142";"module.training_block4.exec-1381.GoNoGo4";;;;;;;;;;;;;;;;;;;;;;;;;;;;;;;;;;;;;;;;;;;;;;;;;;;;;;;;;;;"1261";"2014-10-03 10:50:20.015";"NST_correctLoc";"15";"1";"FINISHED";"RIGHT";"success";"439";"0";"2014-10-03 10:50:18.752";"2";;;;;;;;;;;;;;;;;;;;;
"n12345";;;"Windows 7";"Rachel's Experiment (D.T.)";"1.0";"2";"1";"1";"2";"1";"1";"2014-10-03 10:41:57.923";"2014-10-03 10:56:29.572";"1";"1";"0";"144";"143";"module.training_block4.exec-1381.GoNoGo4";;;;;;;;;;;;;;;;;;;;;;;;;;;;;;;;;;;;;;;;;;;;;;;;;;;;;;;;;;;"1261";"2014-10-03 10:50:22.558";"ST_correctStop";"23";"1";"FINISHED";"NONE";"success";"0";"1";"2014-10-03 10:50:21.294";"3";;;;;;;;;;;;;;;;;;;;;
"n12345";;;"Windows 7";"Rachel's Experiment (D.T.)";"1.0";"2";"1";"1";"2";"1";"1";"2014-10-03 10:41:57.923";"2014-10-03 10:56:29.572";"1";"1";"0";"145";"144";"module.training_block4.exec-1381.GoNoGo4";;;;;;;;;;;;;;;;;;;;;;;;;;;;;;;;;;;;;;;;;;;;;;;;;;;;;;;;;;;"1261";"2014-10-03 10:50:25.085";"ST_correctStop";"1";"0";"FINISHED";"NONE";"success";"0";"1";"2014-10-03 10:50:23.822";"1";;;;;;;;;;;;;;;;;;;;;
"n12345";;;"Windows 7";"Rachel's Experiment (D.T.)";"1.0";"2";"1";"1";"2";"1";"1";"2014-10-03 10:41:57.923";"2014-10-03 10:56:29.572";"1";"1";"0";"146";"145";"module.training_block4.exec-1381.GoNoGo4";;;;;;;;;;;;;;;;;;;;;;;;;;;;;;;;;;;;;;;;;;;;;;;;;;;;;;;;;;;"1261";"2014-10-03 10:50:27.628";"NST_correctLoc";"12";"1";"FINISHED";"RIGHT";"success";"555";"0";"2014-10-03 10:50:26.364";"2";;;;;;;;;;;;;;;;;;;;;
"n12345";;;"Windows 7";"Rachel's Experiment (D.T.)";"1.0";"2";"1";"1";"2";"1";"1";"2014-10-03 10:41:57.923";"2014-10-03 10:56:29.572";"1";"1";"0";"147";"146";"module.training_block4.exec-1381.GoNoGo4";;;;;;;;;;;;;;;;;;;;;;;;;;;;;;;;;;;;;;;;;;;;;;;;;;;;;;;;;;;"1261";"2014-10-03 10:50:30.171";"NST_correctLoc";"11";"0";"FINISHED";"LEFT";"success";"476";"0";"2014-10-03 10:50:28.907";"2";;;;;;;;;;;;;;;;;;;;;
"n12345";;;"Windows 7";"Rachel's Experiment (D.T.)";"1.0";"2";"1";"1";"2";"1";"1";"2014-10-03 10:41:57.923";"2014-10-03 10:56:29.572";"1";"1";"0";"148";"147";"module.training_block4.exec-1381.GoNoGo4";;;;;;;;;;;;;;;;;;;;;;;;;;;;;;;;;;;;;;;;;;;;;;;;;;;;;;;;;;;"1261";"2014-10-03 10:50:32.713";"NST_correctLoc";"22";"1";"FINISHED";"RIGHT";"success";"429";"0";"2014-10-03 10:50:31.450";"3";;;;;;;;;;;;;;;;;;;;;
"n12345";;;"Windows 7";"Rachel's Experiment (D.T.)";"1.0";"2";"1";"1";"2";"1";"1";"2014-10-03 10:41:57.923";"2014-10-03 10:56:29.572";"1";"1";"0";"149";"148";"module.training_block4.exec-1381.GoNoGo4";;;;;;;;;;;;;;;;;;;;;;;;;;;;;;;;;;;;;;;;;;;;;;;;;;;;;;;;;;;"1261";"2014-10-03 10:50:35.256";"NST_correctLoc";"27";"0";"FINISHED";"LEFT";"success";"470";"0";"2014-10-03 10:50:33.993";"3";;;;;;;;;;;;;;;;;;;;;
"n12345";;;"Windows 7";"Rachel's Experiment (D.T.)";"1.0";"2";"1";"1";"2";"1";"1";"2014-10-03 10:41:57.923";"2014-10-03 10:56:29.572";"1";"1";"0";"150";"149";"module.training_block4.exec-1381.GoNoGo4";;;;;;;;;;;;;;;;;;;;;;;;;;;;;;;;;;;;;;;;;;;;;;;;;;;;;;;;;;;"1261";"2014-10-03 10:50:37.783";"ST_correctStop";"18";"0";"FINISHED";"NONE";"success";"0";"1";"2014-10-03 10:50:36.520";"3";;;;;;;;;;;;;;;;;;;;;
"n12345";;;"Windows 7";"Rachel's Experiment (D.T.)";"1.0";"2";"1";"1";"2";"1";"1";"2014-10-03 10:41:57.923";"2014-10-03 10:56:29.572";"1";"1";"0";"151";"150";"module.training_block4.exec-1381.GoNoGo4";;;;;;;;;;;;;;;;;;;;;;;;;;;;;;;;;;;;;;;;;;;;;;;;;;;;;;;;;;;"1261";"2014-10-03 10:50:40.326";"ST_correctStop";"34";"1";"FINISHED";"NONE";"success";"0";"1";"2014-10-03 10:50:39.063";"3";;;;;;;;;;;;;;;;;;;;;
"n12345";;;"Windows 7";"Rachel's Experiment (D.T.)";"1.0";"2";"1";"1";"2";"1";"1";"2014-10-03 10:41:57.923";"2014-10-03 10:56:29.572";"1";"1";"0";"152";"151";"module.training_block4.exec-1381.GoNoGo4";;;;;;;;;;;;;;;;;;;;;;;;;;;;;;;;;;;;;;;;;;;;;;;;;;;;;;;;;;;"1261";"2014-10-03 10:50:42.884";"ST_correctStop";"24";"0";"FINISHED";"NONE";"success";"0";"1";"2014-10-03 10:50:41.621";"3";;;;;;;;;;;;;;;;;;;;;
"n12345";;;"Windows 7";"Rachel's Experiment (D.T.)";"1.0";"2";"1";"1";"2";"1";"1";"2014-10-03 10:41:57.923";"2014-10-03 10:56:29.572";"1";"1";"0";"153";"152";"module.training_block4.exec-1381.GoNoGo4";;;;;;;;;;;;;;;;;;;;;;;;;;;;;;;;;;;;;;;;;;;;;;;;;;;;;;;;;;;"1256";"2014-10-03 10:50:45.427";"ST_correctStop";"0";"0";"FINISHED";"NONE";"success";"0";"1";"2014-10-03 10:50:44.164";"1";;;;;;;;;;;;;;;;;;;;;
"n12345";;;"Windows 7";"Rachel's Experiment (D.T.)";"1.0";"2";"1";"1";"2";"1";"1";"2014-10-03 10:41:57.923";"2014-10-03 10:56:29.572";"1";"1";"0";"154";"153";"module.training_block4.exec-1381.GoNoGo4";;;;;;;;;;;;;;;;;;;;;;;;;;;;;;;;;;;;;;;;;;;;;;;;;;;;;;;;;;;"1261";"2014-10-03 10:50:47.970";"NST_correctLoc";"9";"1";"FINISHED";"RIGHT";"success";"420";"0";"2014-10-03 10:50:46.706";"2";;;;;;;;;;;;;;;;;;;;;
"n12345";;;"Windows 7";"Rachel's Experiment (D.T.)";"1.0";"2";"1";"1";"2";"1";"1";"2014-10-03 10:41:57.923";"2014-10-03 10:56:29.572";"1";"1";"0";"155";"154";"module.training_block4.exec-1381.GoNoGo4";;;;;;;;;;;;;;;;;;;;;;;;;;;;;;;;;;;;;;;;;;;;;;;;;;;;;;;;;;;"1261";"2014-10-03 10:50:50.497";"NST_correctLoc";"17";"0";"FINISHED";"LEFT";"success";"421";"0";"2014-10-03 10:50:49.234";"2";;;;;;;;;;;;;;;;;;;;;
"n12345";;;"Windows 7";"Rachel's Experiment (D.T.)";"1.0";"2";"1";"1";"2";"1";"1";"2014-10-03 10:41:57.923";"2014-10-03 10:56:29.572";"1";"1";"0";"156";"155";"module.training_block4.exec-1381.GoNoGo4";;;;;;;;;;;;;;;;;;;;;;;;;;;;;;;;;;;;;;;;;;;;;;;;;;;;;;;;;;;"1261";"2014-10-03 10:50:53.040";"NST_correctLoc";"26";"0";"FINISHED";"LEFT";"success";"598";"0";"2014-10-03 10:50:51.776";"3";;;;;;;;;;;;;;;;;;;;;
"n12345";;;"Windows 7";"Rachel's Experiment (D.T.)";"1.0";"2";"1";"1";"2";"1";"1";"2014-10-03 10:41:57.923";"2014-10-03 10:56:29.572";"1";"1";"0";"157";"156";"module.training_block4.exec-1381.GoNoGo4";;;;;;;;;;;;;;;;;;;;;;;;;;;;;;;;;;;;;;;;;;;;;;;;;;;;;;;;;;;"1262";"2014-10-03 10:50:55.567";"NST_correctLoc";"28";"1";"FINISHED";"RIGHT";"success";"631";"0";"2014-10-03 10:50:54.303";"3";;;;;;;;;;;;;;;;;;;;;
"n12345";;;"Windows 7";"Rachel's Experiment (D.T.)";"1.0";"2";"1";"1";"2";"1";"1";"2014-10-03 10:41:57.923";"2014-10-03 10:56:29.572";"1";"1";"0";"158";"157";"module.training_block4.exec-1381.GoNoGo4";;;;;;;;;;;;;;;;;;;;;;;;;;;;;;;;;;;;;;;;;;;;;;;;;;;;;;;;;;;"1262";"2014-10-03 10:50:58.110";"NST_correctLoc";"33";"0";"FINISHED";"LEFT";"success";"808";"0";"2014-10-03 10:50:56.846";"3";;;;;;;;;;;;;;;;;;;;;
"n12345";;;"Windows 7";"Rachel's Experiment (D.T.)";"1.0";"2";"1";"1";"2";"1";"1";"2014-10-03 10:41:57.923";"2014-10-03 10:56:29.572";"1";"1";"0";"159";"158";"module.training_block4.exec-1381.GoNoGo4";;;;;;;;;;;;;;;;;;;;;;;;;;;;;;;;;;;;;;;;;;;;;;;;;;;;;;;;;;;"1261";"2014-10-03 10:51:00.668";"NST_correctLoc";"30";"0";"FINISHED";"LEFT";"success";"578";"0";"2014-10-03 10:50:59.405";"3";;;;;;;;;;;;;;;;;;;;;
"n12345";;;"Windows 7";"Rachel's Experiment (D.T.)";"1.0";"2";"1";"1";"2";"1";"1";"2014-10-03 10:41:57.923";"2014-10-03 10:56:29.572";"1";"1";"0";"160";"159";"module.devaluation_practice.exec-6536.devalPractice";;;;;;;;;;;;"23520";"2014-10-03 10:51:57.529";"0";"3";"1";"2";"7664";"4941";"7864";"2014-10-03 10:51:34.005";;;;;;;;;;;;;;;;;;;;;;;;;;;;;;;;;;;;;;;;;;;;;;;;;;;;;;;;;;;;;;;;;;;;;;
"n12345";;;"Windows 7";"Rachel's Experiment (D.T.)";"1.0";"2";"1";"1";"2";"1";"1";"2014-10-03 10:41:57.923";"2014-10-03 10:56:29.572";"1";"1";"0";"161";"160";"module.devaluation_practice.exec-6536.devalPractice";;;;;;;;;;;;"11755";"2014-10-03 10:52:09.307";"1";"1";"1";"1";"3910";"2137";"2690";"2014-10-03 10:51:57.545";;;;;;;;;;;;;;;;;;;;;;;;;;;;;;;;;;;;;;;;;;;;;;;;;;;;;;;;;;;;;;;;;;;;;;
"n12345";;;"Windows 7";"Rachel's Experiment (D.T.)";"1.0";"2";"1";"1";"2";"1";"1";"2014-10-03 10:41:57.923";"2014-10-03 10:56:29.572";"1";"1";"0";"162";"161";"module.devaluation_practice.exec-6536.devalPractice";;;;;;;;;;;;"12883";"2014-10-03 10:52:22.208";"2";"2";"1";"2";"5532";"1469";"2865";"2014-10-03 10:52:09.322";;;;;;;;;;;;;;;;;;;;;;;;;;;;;;;;;;;;;;;;;;;;;;;;;;;;;;;;;;;;;;;;;;;;;;
"n12345";;;"Windows 7";"Rachel's Experiment (D.T.)";"1.0";"2";"1";"1";"2";"1";"1";"2014-10-03 10:41:57.923";"2014-10-03 10:56:29.572";"1";"1";"0";"163";"162";"module.devaluation_practice.exec-6536.devalPractice";;;;;;;;;;;;"11163";"2014-10-03 10:52:33.393";"3";"6";"2";"6";"4959";"1546";"1629";"2014-10-03 10:52:22.223";;;;;;;;;;;;;;;;;;;;;;;;;;;;;;;;;;;;;;;;;;;;;;;;;;;;;;;;;;;;;;;;;;;;;;
"n12345";;;"Windows 7";"Rachel's Experiment (D.T.)";"1.0";"2";"1";"1";"2";"1";"1";"2014-10-03 10:41:57.923";"2014-10-03 10:56:29.572";"1";"1";"0";"164";"163";"module.devaluation_block1.exec-2126.deval1";"7731";"2014-10-03 10:52:55.950";"1";"6";"2";"6";"2032";"1166";"1498";"2014-10-03 10:52:48.228";"1";;;;;;;;;;;;;;;;;;;;;;;;;;;;;;;;;;;;;;;;;;;;;;;;;;;;;;;;;;;;;;;;;;;;;;;;;;;;;;;;
"n12345";;;"Windows 7";"Rachel's Experiment (D.T.)";"1.0";"2";"1";"1";"2";"1";"1";"2014-10-03 10:41:57.923";"2014-10-03 10:56:29.572";"1";"1";"0";"165";"164";"module.devaluation_block1.exec-2126.deval1";"9307";"2014-10-03 10:53:05.279";"11";"3";"2";"3";"2040";"2055";"2170";"2014-10-03 10:52:55.981";"2";;;;;;;;;;;;;;;;;;;;;;;;;;;;;;;;;;;;;;;;;;;;;;;;;;;;;;;;;;;;;;;;;;;;;;;;;;;;;;;;
"n12345";;;"Windows 7";"Rachel's Experiment (D.T.)";"1.0";"2";"1";"1";"2";"1";"1";"2014-10-03 10:41:57.923";"2014-10-03 10:56:29.572";"1";"1";"0";"166";"165";"module.devaluation_block1.exec-2126.deval1";"9674";"2014-10-03 10:53:14.982";"22";"6";"2";"5";"3727";"1408";"1500";"2014-10-03 10:53:05.310";"3";;;;;;;;;;;;;;;;;;;;;;;;;;;;;;;;;;;;;;;;;;;;;;;;;;;;;;;;;;;;;;;;;;;;;;;;;;;;;;;;
"n12345";;;"Windows 7";"Rachel's Experiment (D.T.)";"1.0";"2";"1";"1";"2";"1";"1";"2014-10-03 10:41:57.923";"2014-10-03 10:56:29.572";"1";"1";"0";"167";"166";"module.devaluation_block1.exec-2126.deval1";"7937";"2014-10-03 10:53:22.953";"10";"3";"1";"1";"2168";"1295";"1437";"2014-10-03 10:53:15.013";"2";;;;;;;;;;;;;;;;;;;;;;;;;;;;;;;;;;;;;;;;;;;;;;;;;;;;;;;;;;;;;;;;;;;;;;;;;;;;;;;;
"n12345";;;"Windows 7";"Rachel's Experiment (D.T.)";"1.0";"2";"1";"1";"2";"1";"1";"2014-10-03 10:41:57.923";"2014-10-03 10:56:29.572";"1";"1";"0";"168";"167";"module.devaluation_block1.exec-2126.deval1";"6894";"2014-10-03 10:53:29.879";"9";"4";"2";"3";"829";"1156";"1879";"2014-10-03 10:53:22.984";"2";;;;;;;;;;;;;;;;;;;;;;;;;;;;;;;;;;;;;;;;;;;;;;;;;;;;;;;;;;;;;;;;;;;;;;;;;;;;;;;;
"n12345";;;"Windows 7";"Rachel's Experiment (D.T.)";"1.0";"2";"1";"1";"2";"1";"1";"2014-10-03 10:41:57.923";"2014-10-03 10:56:29.572";"1";"1";"0";"169";"168";"module.devaluation_block1.exec-2126.deval1";"8180";"2014-10-03 10:53:38.069";"0";"4";"2";"5";"2246";"1681";"1220";"2014-10-03 10:53:29.895";"1";;;;;;;;;;;;;;;;;;;;;;;;;;;;;;;;;;;;;;;;;;;;;;;;;;;;;;;;;;;;;;;;;;;;;;;;;;;;;;;;
"n12345";;;"Windows 7";"Rachel's Experiment (D.T.)";"1.0";"2";"1";"1";"2";"1";"1";"2014-10-03 10:41:57.923";"2014-10-03 10:56:29.572";"1";"1";"0";"170";"169";"module.devaluation_block1.exec-2126.deval1";"9050";"2014-10-03 10:53:47.148";"23";"6";"2";"5";"2640";"1299";"2081";"2014-10-03 10:53:38.100";"3";;;;;;;;;;;;;;;;;;;;;;;;;;;;;;;;;;;;;;;;;;;;;;;;;;;;;;;;;;;;;;;;;;;;;;;;;;;;;;;;
"n12345";;;"Windows 7";"Rachel's Experiment (D.T.)";"1.0";"2";"1";"1";"2";"1";"1";"2014-10-03 10:41:57.923";"2014-10-03 10:56:29.572";"1";"1";"0";"171";"170";"module.devaluation_block1.exec-2126.deval1";"8338";"2014-10-03 10:53:55.510";"6";"6";"2";"4";"2017";"1774";"1514";"2014-10-03 10:53:47.179";"1";;;;;;;;;;;;;;;;;;;;;;;;;;;;;;;;;;;;;;;;;;;;;;;;;;;;;;;;;;;;;;;;;;;;;;;;;;;;;;;;
"n12345";;;"Windows 7";"Rachel's Experiment (D.T.)";"1.0";"2";"1";"1";"2";"1";"1";"2014-10-03 10:41:57.923";"2014-10-03 10:56:29.572";"1";"1";"0";"172";"171";"module.devaluation_block1.exec-2126.deval1";"8296";"2014-10-03 10:54:03.840";"8";"7";"2";"6";"2095";"1716";"1450";"2014-10-03 10:53:55.541";"1";;;;;;;;;;;;;;;;;;;;;;;;;;;;;;;;;;;;;;;;;;;;;;;;;;;;;;;;;;;;;;;;;;;;;;;;;;;;;;;;
"n12345";;;"Windows 7";"Rachel's Experiment (D.T.)";"1.0";"2";"1";"1";"2";"1";"1";"2014-10-03 10:41:57.923";"2014-10-03 10:56:29.572";"1";"1";"0";"173";"172";"module.devaluation_block1.exec-2126.deval1";"6043";"2014-10-03 10:54:09.892";"24";"6";"2";"6";"1236";"1041";"737";"2014-10-03 10:54:03.855";"3";;;;;;;;;;;;;;;;;;;;;;;;;;;;;;;;;;;;;;;;;;;;;;;;;;;;;;;;;;;;;;;;;;;;;;;;;;;;;;;;
"n12345";;;"Windows 7";"Rachel's Experiment (D.T.)";"1.0";"2";"1";"1";"2";"1";"1";"2014-10-03 10:41:57.923";"2014-10-03 10:56:29.572";"1";"1";"0";"174";"173";"module.devaluation_block1.exec-2126.deval1";"8114";"2014-10-03 10:54:18.036";"21";"7";"2";"6";"1496";"1012";"2555";"2014-10-03 10:54:09.924";"3";;;;;;;;;;;;;;;;;;;;;;;;;;;;;;;;;;;;;;;;;;;;;;;;;;;;;;;;;;;;;;;;;;;;;;;;;;;;;;;;
"n12345";;;"Windows 7";"Rachel's Experiment (D.T.)";"1.0";"2";"1";"1";"2";"1";"1";"2014-10-03 10:41:57.923";"2014-10-03 10:56:29.572";"1";"1";"0";"175";"174";"module.devaluation_block1.exec-2126.deval1";"8037";"2014-10-03 10:54:26.085";"5";"7";"3";"8";"2098";"1446";"1445";"2014-10-03 10:54:18.051";"1";;;;;;;;;;;;;;;;;;;;;;;;;;;;;;;;;;;;;;;;;;;;;;;;;;;;;;;;;;;;;;;;;;;;;;;;;;;;;;;;
"n12345";;;"Windows 7";"Rachel's Experiment (D.T.)";"1.0";"2";"1";"1";"2";"1";"1";"2014-10-03 10:41:57.923";"2014-10-03 10:56:29.572";"1";"1";"0";"176";"175";"module.devaluation_block1.exec-2126.deval1";"8852";"2014-10-03 10:54:34.961";"19";"7";"2";"7";"2879";"1036";"1910";"2014-10-03 10:54:26.116";"3";;;;;;;;;;;;;;;;;;;;;;;;;;;;;;;;;;;;;;;;;;;;;;;;;;;;;;;;;;;;;;;;;;;;;;;;;;;;;;;;
"n12345";;;"Windows 7";"Rachel's Experiment (D.T.)";"1.0";"2";"1";"1";"2";"1";"1";"2014-10-03 10:41:57.923";"2014-10-03 10:56:29.572";"1";"1";"0";"177";"176";"module.devaluation_block1.exec-2126.deval1";"8275";"2014-10-03 10:54:43.260";"4";"7";"2";"7";"1834";"1524";"1894";"2014-10-03 10:54:34.992";"1";;;;;;;;;;;;;;;;;;;;;;;;;;;;;;;;;;;;;;;;;;;;;;;;;;;;;;;;;;;;;;;;;;;;;;;;;;;;;;;;
"n12345";;;"Windows 7";"Rachel's Experiment (D.T.)";"1.0";"2";"1";"1";"2";"1";"1";"2014-10-03 10:41:57.923";"2014-10-03 10:56:29.572";"1";"1";"0";"178";"177";"module.devaluation_block1.exec-2126.deval1";"8836";"2014-10-03 10:54:52.121";"13";"5";"2";"5";"1303";"1441";"3070";"2014-10-03 10:54:43.291";"2";;;;;;;;;;;;;;;;;;;;;;;;;;;;;;;;;;;;;;;;;;;;;;;;;;;;;;;;;;;;;;;;;;;;;;;;;;;;;;;;
"n12345";;;"Windows 7";"Rachel's Experiment (D.T.)";"1.0";"2";"1";"1";"2";"1";"1";"2014-10-03 10:41:57.923";"2014-10-03 10:56:29.572";"1";"1";"0";"179";"178";"module.devaluation_block1.exec-2126.deval1";"6517";"2014-10-03 10:54:58.657";"3";"7";"2";"8";"994";"1456";"1048";"2014-10-03 10:54:52.136";"1";;;;;;;;;;;;;;;;;;;;;;;;;;;;;;;;;;;;;;;;;;;;;;;;;;;;;;;;;;;;;;;;;;;;;;;;;;;;;;;;
"n12345";;;"Windows 7";"Rachel's Experiment (D.T.)";"1.0";"2";"1";"1";"2";"1";"1";"2014-10-03 10:41:57.923";"2014-10-03 10:56:29.572";"1";"1";"0";"180";"179";"module.devaluation_block1.exec-2126.deval1";"8348";"2014-10-03 10:55:07.019";"25";"7";"2";"6";"2489";"1962";"870";"2014-10-03 10:54:58.673";"3";;;;;;;;;;;;;;;;;;;;;;;;;;;;;;;;;;;;;;;;;;;;;;;;;;;;;;;;;;;;;;;;;;;;;;;;;;;;;;;;
"n12345";;;"Windows 7";"Rachel's Experiment (D.T.)";"1.0";"2";"1";"1";"2";"1";"1";"2014-10-03 10:41:57.923";"2014-10-03 10:56:29.572";"1";"1";"0";"181";"180";"module.devaluation_block1.exec-2126.deval1";"11716";"2014-10-03 10:55:18.765";"17";"4";"1";"4";"6616";"1280";"783";"2014-10-03 10:55:07.050";"2";;;;;;;;;;;;;;;;;;;;;;;;;;;;;;;;;;;;;;;;;;;;;;;;;;;;;;;;;;;;;;;;;;;;;;;;;;;;;;;;
"n12345";;;"Windows 7";"Rachel's Experiment (D.T.)";"1.0";"2";"1";"1";"2";"1";"1";"2014-10-03 10:41:57.923";"2014-10-03 10:56:29.572";"1";"1";"0";"182";"181";"module.devaluation_block1.exec-2126.deval1";"6318";"2014-10-03 10:55:25.114";"18";"7";"2";"7";"1645";"893";"749";"2014-10-03 10:55:18.796";"3";;;;;;;;;;;;;;;;;;;;;;;;;;;;;;;;;;;;;;;;;;;;;;;;;;;;;;;;;;;;;;;;;;;;;;;;;;;;;;;;
"n12345";;;"Windows 7";"Rachel's Experiment (D.T.)";"1.0";"2";"1";"1";"2";"1";"1";"2014-10-03 10:41:57.923";"2014-10-03 10:56:29.572";"1";"1";"0";"183";"182";"module.devaluation_block1.exec-2126.deval1";"6793";"2014-10-03 10:55:31.931";"26";"8";"2";"8";"1337";"1477";"951";"2014-10-03 10:55:25.145";"3";;;;;;;;;;;;;;;;;;;;;;;;;;;;;;;;;;;;;;;;;;;;;;;;;;;;;;;;;;;;;;;;;;;;;;;;;;;;;;;;
"n12345";;;"Windows 7";"Rachel's Experiment (D.T.)";"1.0";"2";"1";"1";"2";"1";"1";"2014-10-03 10:41:57.923";"2014-10-03 10:56:29.572";"1";"1";"0";"184";"183";"module.devaluation_block1.exec-2126.deval1";"7748";"2014-10-03 10:55:39.700";"14";"5";"5";"5";"2959";"1086";"672";"2014-10-03 10:55:31.963";"2";;;;;;;;;;;;;;;;;;;;;;;;;;;;;;;;;;;;;;;;;;;;;;;;;;;;;;;;;;;;;;;;;;;;;;;;;;;;;;;;
"n12345";;;"Windows 7";"Rachel's Experiment (D.T.)";"1.0";"2";"1";"1";"2";"1";"1";"2014-10-03 10:41:57.923";"2014-10-03 10:56:29.572";"1";"1";"0";"185";"184";"module.devaluation_block1.exec-2126.deval1";"7772";"2014-10-03 10:55:47.500";"2";"6";"2";"6";"1910";"2154";"668";"2014-10-03 10:55:39.731";"1";;;;;;;;;;;;;;;;;;;;;;;;;;;;;;;;;;;;;;;;;;;;;;;;;;;;;;;;;;;;;;;;;;;;;;;;;;;;;;;;
"n12345";;;"Windows 7";"Rachel's Experiment (D.T.)";"1.0";"2";"1";"1";"2";"1";"1";"2014-10-03 10:41:57.923";"2014-10-03 10:56:29.572";"1";"1";"0";"186";"185";"module.devaluation_block1.exec-2126.deval1";"7059";"2014-10-03 10:55:54.582";"16";"3";"1";"2";"1438";"1169";"1432";"2014-10-03 10:55:47.515";"2";;;;;;;;;;;;;;;;;;;;;;;;;;;;;;;;;;;;;;;;;;;;;;;;;;;;;;;;;;;;;;;;;;;;;;;;;;;;;;;;
"n12345";;;"Windows 7";"Rachel's Experiment (D.T.)";"1.0";"2";"1";"1";"2";"1";"1";"2014-10-03 10:41:57.923";"2014-10-03 10:56:29.572";"1";"1";"0";"187";"186";"module.devaluation_block1.exec-2126.deval1";"8956";"2014-10-03 10:56:03.567";"7";"5";"2";"4";"1659";"1004";"3267";"2014-10-03 10:55:54.613";"1";;;;;;;;;;;;;;;;;;;;;;;;;;;;;;;;;;;;;;;;;;;;;;;;;;;;;;;;;;;;;;;;;;;;;;;;;;;;;;;;
"n12345";;;"Windows 7";"Rachel's Experiment (D.T.)";"1.0";"2";"1";"1";"2";"1";"1";"2014-10-03 10:41:57.923";"2014-10-03 10:56:29.572";"1";"1";"0";"188";"187";"module.devaluation_block1.exec-2126.deval1";"6052";"2014-10-03 10:56:09.636";"12";"5";"5";"5";"449";"1756";"810";"2014-10-03 10:56:03.583";"2";;;;;;;;;;;;;;;;;;;;;;;;;;;;;;;;;;;;;;;;;;;;;;;;;;;;;;;;;;;;;;;;;;;;;;;;;;;;;;;;
"n12345";;;"Windows 7";"Rachel's Experiment (D.T.)";"1.0";"2";"1";"1";"2";"1";"1";"2014-10-03 10:41:57.923";"2014-10-03 10:56:29.572";"1";"1";"0";"189";"188";"module.devaluation_block1.exec-2126.deval1";"9308";"2014-10-03 10:56:18.964";"20";"6";"2";"5";"3189";"1958";"1132";"2014-10-03 10:56:09.667";"3";;;;;;;;;;;;;;;;;;;;;;;;;;;;;;;;;;;;;;;;;;;;;;;;;;;;;;;;;;;;;;;;;;;;;;;;;;;;;;;;
"n12345";;;"Windows 7";"Rachel's Experiment (D.T.)";"1.0";"2";"1";"1";"2";"1";"1";"2014-10-03 10:41:57.923";"2014-10-03 10:56:29.572";"1";"1";"0";"190";"189";"module.devaluation_block1.exec-2126.deval1";"7818";"2014-10-03 10:56:26.811";"15";"3";"1";"2";"2556";"984";"1239";"2014-10-03 10:56:18.996";"2";;;;;;;;;;;;;;;;;;;;;;;;;;;;;;;;;;;;;;;;;;;;;;;;;;;;;;;;;;;;;;;;;;;;;;;;;;;;;;;;
