"user.name";"user.yearOfBirth";"user.sex";"user.osName";"module.name";"module.version";"module.online.subject.code";"module.online.study.id";"module.online.module.nr";"module.online.group.nr";"session.id";"session.index";"session.startTime";"session.endTime";"session.completed";"session.node-9051.DevalQorder";"session.node-9258.conditionType";"trial.id";"trial.index";"trial.name";"trial.deval1.durationTime";"trial.deval1.endTime";"trial.deval1.icon";"trial.deval1.Resp_Attractive";"trial.deval1.Resp_Eat";"trial.deval1.Resp_Taste";"trial.deval1.RT_Attractive";"trial.deval1.RT_Eat";"trial.deval1.RT_Taste";"trial.deval1.startTime";"trial.deval1.stimulus type";"trial.devalPractice.durationTime";"trial.devalPractice.endTime";"trial.devalPractice.icon";"trial.devalPractice.Resp_Attractive";"trial.devalPractice.Resp_Eat";"trial.devalPractice.Resp_Taste";"trial.devalPractice.RT_Attractive";"trial.devalPractice.RT_Eat";"trial.devalPractice.RT_Taste";"trial.devalPractice.startTime";"trial.devalPractice.stimulus type";"trial.GoNoGo1.durationTime";"trial.GoNoGo1.endTime";"trial.GoNoGo1.Error Type";"trial.GoNoGo1.icon";"trial.GoNoGo1.location";"trial.GoNoGo1.outcome";"trial.GoNoGo1.response";"trial.GoNoGo1.result";"trial.GoNoGo1.RT";"trial.GoNoGo1.signal";"trial.GoNoGo1.startTime";"trial.GoNoGo1.stimulus type";"trial.GoNoGo2.durationTime";"trial.GoNoGo2.endTime";"trial.GoNoGo2.Error Type";"trial.GoNoGo2.icon";"trial.GoNoGo2.location";"trial.GoNoGo2.outcome";"trial.GoNoGo2.response";"trial.GoNoGo2.result";"trial.GoNoGo2.RT";"trial.GoNoGo2.signal";"trial.GoNoGo2.startTime";"trial.GoNoGo2.stimulus type";"trial.GoNoGo3.durationTime";"trial.GoNoGo3.endTime";"trial.GoNoGo3.Error Type";"trial.GoNoGo3.icon";"trial.GoNoGo3.location";"trial.GoNoGo3.outcome";"trial.GoNoGo3.response";"trial.GoNoGo3.result";"trial.GoNoGo3.RT";"trial.GoNoGo3.signal";"trial.GoNoGo3.startTime";"trial.GoNoGo3.stimulus type";"trial.GoNoGo4.durationTime";"trial.GoNoGo4.endTime";"trial.GoNoGo4.Error Type";"trial.GoNoGo4.icon";"trial.GoNoGo4.location";"trial.GoNoGo4.outcome";"trial.GoNoGo4.response";"trial.GoNoGo4.result";"trial.GoNoGo4.RT";"trial.GoNoGo4.signal";"trial.GoNoGo4.startTime";"trial.GoNoGo4.stimulus type";"trial.GoNoGo_Practice.durationTime";"trial.GoNoGo_Practice.endTime";"trial.GoNoGo_Practice.icon";"trial.GoNoGo_Practice.location";"trial.GoNoGo_Practice.outcome";"trial.GoNoGo_Practice.response";"trial.GoNoGo_Practice.result";"trial.GoNoGo_Practice.RT";"trial.GoNoGo_Practice.signal";"trial.GoNoGo_Practice.startTime";"trial.GoNoGo_Practice.stimulus type";"trial.GoNoGo_Tutorial.durationTime";"trial.GoNoGo_Tutorial.endTime";"trial.GoNoGo_Tutorial.icon";"trial.GoNoGo_Tutorial.location";"trial.GoNoGo_Tutorial.outcome";"trial.GoNoGo_Tutorial.response";"trial.GoNoGo_Tutorial.result";"trial.GoNoGo_Tutorial.RT";"trial.GoNoGo_Tutorial.signal";"trial.GoNoGo_Tutorial.startTime"
"Cardiff1703";"1968";;"Windows 7";"Rachel's Experiment (D.T.)";"1.0";"2";"1";"1";"2";"1";"1";"2014-07-21 11:22:57.801";"2014-07-21 11:40:08.663";"1";"1";"1";"1";"0";"module.GoNoGotutorial.exec-4492.GoNoGo_Tutorial";;;;;;;;;;;;;;;;;;;;;;;;;;;;;;;;;;;;;;;;;;;;;;;;;;;;;;;;;;;;;;;;;;;;;;;;;;;;;;;;;;"4000";"2014-07-21 11:24:33.415";"leftResponse";"0";"FINISHED";"LEFT";"success";"558";"0";"2014-07-21 11:24:29.414"
"Cardiff1703";"1968";;"Windows 7";"Rachel's Experiment (D.T.)";"1.0";"2";"1";"1";"2";"1";"1";"2014-07-21 11:22:57.801";"2014-07-21 11:40:08.663";"1";"1";"1";"2";"1";"module.GoNoGotutorial.exec-4492.GoNoGo_Tutorial";;;;;;;;;;;;;;;;;;;;;;;;;;;;;;;;;;;;;;;;;;;;;;;;;;;;;;;;;;;;;;;;;;;;;;;;;;;;;;;;;;"3999";"2014-07-21 11:24:38.707";"rightResponse";"1";"FINISHED";"RIGHT";"success";"546";"0";"2014-07-21 11:24:34.707"
"Cardiff1703";"1968";;"Windows 7";"Rachel's Experiment (D.T.)";"1.0";"2";"1";"1";"2";"1";"1";"2014-07-21 11:22:57.801";"2014-07-21 11:40:08.663";"1";"1";"1";"3";"2";"module.GoNoGotutorial.exec-4492.GoNoGo_Tutorial";;;;;;;;;;;;;;;;;;;;;;;;;;;;;;;;;;;;;;;;;;;;;;;;;;;;;;;;;;;;;;;;;;;;;;;;;;;;;;;;;;"3999";"2014-07-21 11:24:43.995";"signalResponse";"0";"FINISHED";"NONE";"success";"0";"1";"2014-07-21 11:24:39.995"
"Cardiff1703";"1968";;"Windows 7";"Rachel's Experiment (D.T.)";"1.0";"2";"1";"1";"2";"1";"1";"2014-07-21 11:22:57.801";"2014-07-21 11:40:08.663";"1";"1";"1";"4";"3";"module.GoNoGopractice.exec-2369.GoNoGo_Practice";;;;;;;;;;;;;;;;;;;;;;;;;;;;;;;;;;;;;;;;;;;;;;;;;;;;;;;;;;;;;;;;;;;;;;;"1955";"2014-07-21 11:24:52.937";"18";"0";"FINISHED";"LEFT";"success";"520";"0";"2014-07-21 11:24:50.981";"3";;;;;;;;;;
"Cardiff1703";"1968";;"Windows 7";"Rachel's Experiment (D.T.)";"1.0";"2";"1";"1";"2";"1";"1";"2014-07-21 11:22:57.801";"2014-07-21 11:40:08.663";"1";"1";"1";"5";"4";"module.GoNoGopractice.exec-2369.GoNoGo_Practice";;;;;;;;;;;;;;;;;;;;;;;;;;;;;;;;;;;;;;;;;;;;;;;;;;;;;;;;;;;;;;;;;;;;;;;"1950";"2014-07-21 11:24:56.173";"21";"1";"FINISHED";"RIGHT";"success";"399";"0";"2014-07-21 11:24:54.222";"3";;;;;;;;;;
"Cardiff1703";"1968";;"Windows 7";"Rachel's Experiment (D.T.)";"1.0";"2";"1";"1";"2";"1";"1";"2014-07-21 11:22:57.801";"2014-07-21 11:40:08.663";"1";"1";"1";"6";"5";"module.GoNoGopractice.exec-2369.GoNoGo_Practice";;;;;;;;;;;;;;;;;;;;;;;;;;;;;;;;;;;;;;;;;;;;;;;;;;;;;;;;;;;;;;;;;;;;;;;"1954";"2014-07-21 11:24:59.410";"14";"1";"FINISHED";"RIGHT";"failure";"534";"1";"2014-07-21 11:24:57.455";"2";;;;;;;;;;
"Cardiff1703";"1968";;"Windows 7";"Rachel's Experiment (D.T.)";"1.0";"2";"1";"1";"2";"1";"1";"2014-07-21 11:22:57.801";"2014-07-21 11:40:08.663";"1";"1";"1";"7";"6";"module.GoNoGopractice.exec-2369.GoNoGo_Practice";;;;;;;;;;;;;;;;;;;;;;;;;;;;;;;;;;;;;;;;;;;;;;;;;;;;;;;;;;;;;;;;;;;;;;;"1950";"2014-07-21 11:25:02.644";"26";"0";"FINISHED";"LEFT";"success";"616";"0";"2014-07-21 11:25:00.693";"3";;;;;;;;;;
"Cardiff1703";"1968";;"Windows 7";"Rachel's Experiment (D.T.)";"1.0";"2";"1";"1";"2";"1";"1";"2014-07-21 11:22:57.801";"2014-07-21 11:40:08.663";"1";"1";"1";"8";"7";"module.GoNoGopractice.exec-2369.GoNoGo_Practice";;;;;;;;;;;;;;;;;;;;;;;;;;;;;;;;;;;;;;;;;;;;;;;;;;;;;;;;;;;;;;;;;;;;;;;"1950";"2014-07-21 11:25:05.878";"2";"0";"FINISHED";"LEFT";"success";"871";"0";"2014-07-21 11:25:03.926";"1";;;;;;;;;;
"Cardiff1703";"1968";;"Windows 7";"Rachel's Experiment (D.T.)";"1.0";"2";"1";"1";"2";"1";"1";"2014-07-21 11:22:57.801";"2014-07-21 11:40:08.663";"1";"1";"1";"9";"8";"module.GoNoGopractice.exec-2369.GoNoGo_Practice";;;;;;;;;;;;;;;;;;;;;;;;;;;;;;;;;;;;;;;;;;;;;;;;;;;;;;;;;;;;;;;;;;;;;;;"1953";"2014-07-21 11:25:09.114";"30";"0";"FINISHED";"NONE";"success";"0";"1";"2014-07-21 11:25:07.160";"3";;;;;;;;;;
"Cardiff1703";"1968";;"Windows 7";"Rachel's Experiment (D.T.)";"1.0";"2";"1";"1";"2";"1";"1";"2014-07-21 11:22:57.801";"2014-07-21 11:40:08.663";"1";"1";"1";"10";"9";"module.GoNoGopractice.exec-2369.GoNoGo_Practice";;;;;;;;;;;;;;;;;;;;;;;;;;;;;;;;;;;;;;;;;;;;;;;;;;;;;;;;;;;;;;;;;;;;;;;"1950";"2014-07-21 11:25:12.347";"6";"1";"FINISHED";"NONE";"success";"0";"1";"2014-07-21 11:25:10.396";"1";;;;;;;;;;
"Cardiff1703";"1968";;"Windows 7";"Rachel's Experiment (D.T.)";"1.0";"2";"1";"1";"2";"1";"1";"2014-07-21 11:22:57.801";"2014-07-21 11:40:08.663";"1";"1";"1";"11";"10";"module.GoNoGopractice.exec-2369.GoNoGo_Practice";;;;;;;;;;;;;;;;;;;;;;;;;;;;;;;;;;;;;;;;;;;;;;;;;;;;;;;;;;;;;;;;;;;;;;;"1950";"2014-07-21 11:25:15.578";"34";"0";"FINISHED";"LEFT";"success";"569";"0";"2014-07-21 11:25:13.627";"3";;;;;;;;;;
"Cardiff1703";"1968";;"Windows 7";"Rachel's Experiment (D.T.)";"1.0";"2";"1";"1";"2";"1";"1";"2014-07-21 11:22:57.801";"2014-07-21 11:40:08.663";"1";"1";"1";"12";"11";"module.GoNoGopractice.exec-2369.GoNoGo_Practice";;;;;;;;;;;;;;;;;;;;;;;;;;;;;;;;;;;;;;;;;;;;;;;;;;;;;;;;;;;;;;;;;;;;;;;"1950";"2014-07-21 11:25:18.810";"23";"1";"FINISHED";"RIGHT";"success";"586";"0";"2014-07-21 11:25:16.859";"3";;;;;;;;;;
"Cardiff1703";"1968";;"Windows 7";"Rachel's Experiment (D.T.)";"1.0";"2";"1";"1";"2";"1";"1";"2014-07-21 11:22:57.801";"2014-07-21 11:40:08.663";"1";"1";"1";"13";"12";"module.GoNoGopractice.exec-2369.GoNoGo_Practice";;;;;;;;;;;;;;;;;;;;;;;;;;;;;;;;;;;;;;;;;;;;;;;;;;;;;;;;;;;;;;;;;;;;;;;"1950";"2014-07-21 11:25:22.052";"13";"0";"FINISHED";"NONE";"success";"0";"1";"2014-07-21 11:25:20.101";"2";;;;;;;;;;
"Cardiff1703";"1968";;"Windows 7";"Rachel's Experiment (D.T.)";"1.0";"2";"1";"1";"2";"1";"1";"2014-07-21 11:22:57.801";"2014-07-21 11:40:08.663";"1";"1";"1";"14";"13";"module.GoNoGopractice.exec-2369.GoNoGo_Practice";;;;;;;;;;;;;;;;;;;;;;;;;;;;;;;;;;;;;;;;;;;;;;;;;;;;;;;;;;;;;;;;;;;;;;;"1950";"2014-07-21 11:25:25.284";"3";"1";"FINISHED";"RIGHT";"success";"616";"0";"2014-07-21 11:25:23.333";"1";;;;;;;;;;
"Cardiff1703";"1968";;"Windows 7";"Rachel's Experiment (D.T.)";"1.0";"2";"1";"1";"2";"1";"1";"2014-07-21 11:22:57.801";"2014-07-21 11:40:08.663";"1";"1";"1";"15";"14";"module.GoNoGopractice.exec-2369.GoNoGo_Practice";;;;;;;;;;;;;;;;;;;;;;;;;;;;;;;;;;;;;;;;;;;;;;;;;;;;;;;;;;;;;;;;;;;;;;;"1950";"2014-07-21 11:25:28.514";"27";"1";"FINISHED";"NONE";"success";"0";"1";"2014-07-21 11:25:26.563";"3";;;;;;;;;;
"Cardiff1703";"1968";;"Windows 7";"Rachel's Experiment (D.T.)";"1.0";"2";"1";"1";"2";"1";"1";"2014-07-21 11:22:57.801";"2014-07-21 11:40:08.663";"1";"1";"1";"16";"15";"module.training_block1.exec-4866.GoNoGo1";;;;;;;;;;;;;;;;;;;;;;;"1250";"2014-07-21 11:25:42.393";"NST_correctLoc";"18";"1";"FINISHED";"RIGHT";"success";"550";"0";"2014-07-21 11:25:41.143";"3";;;;;;;;;;;;;;;;;;;;;;;;;;;;;;;;;;;;;;;;;;;;;;;;;;;;;;;;;
"Cardiff1703";"1968";;"Windows 7";"Rachel's Experiment (D.T.)";"1.0";"2";"1";"1";"2";"1";"1";"2014-07-21 11:22:57.801";"2014-07-21 11:40:08.663";"1";"1";"1";"17";"16";"module.training_block1.exec-4866.GoNoGo1";;;;;;;;;;;;;;;;;;;;;;;"1249";"2014-07-21 11:25:44.925";"NST_correctLoc";"24";"0";"FINISHED";"LEFT";"success";"482";"0";"2014-07-21 11:25:43.675";"3";;;;;;;;;;;;;;;;;;;;;;;;;;;;;;;;;;;;;;;;;;;;;;;;;;;;;;;;;
"Cardiff1703";"1968";;"Windows 7";"Rachel's Experiment (D.T.)";"1.0";"2";"1";"1";"2";"1";"1";"2014-07-21 11:22:57.801";"2014-07-21 11:40:08.663";"1";"1";"1";"18";"17";"module.training_block1.exec-4866.GoNoGo1";;;;;;;;;;;;;;;;;;;;;;;"1250";"2014-07-21 11:25:47.442";"ST_correctStop";"27";"0";"FINISHED";"NONE";"success";"0";"1";"2014-07-21 11:25:46.192";"3";;;;;;;;;;;;;;;;;;;;;;;;;;;;;;;;;;;;;;;;;;;;;;;;;;;;;;;;;
"Cardiff1703";"1968";;"Windows 7";"Rachel's Experiment (D.T.)";"1.0";"2";"1";"1";"2";"1";"1";"2014-07-21 11:22:57.801";"2014-07-21 11:40:08.663";"1";"1";"1";"19";"18";"module.training_block1.exec-4866.GoNoGo1";;;;;;;;;;;;;;;;;;;;;;;"1249";"2014-07-21 11:25:49.971";"NST_correctLoc";"9";"0";"FINISHED";"LEFT";"success";"532";"0";"2014-07-21 11:25:48.721";"2";;;;;;;;;;;;;;;;;;;;;;;;;;;;;;;;;;;;;;;;;;;;;;;;;;;;;;;;;
"Cardiff1703";"1968";;"Windows 7";"Rachel's Experiment (D.T.)";"1.0";"2";"1";"1";"2";"1";"1";"2014-07-21 11:22:57.801";"2014-07-21 11:40:08.663";"1";"1";"1";"20";"19";"module.training_block1.exec-4866.GoNoGo1";;;;;;;;;;;;;;;;;;;;;;;"1249";"2014-07-21 11:25:52.499";"NST_correctLoc";"25";"1";"FINISHED";"RIGHT";"success";"515";"0";"2014-07-21 11:25:51.249";"3";;;;;;;;;;;;;;;;;;;;;;;;;;;;;;;;;;;;;;;;;;;;;;;;;;;;;;;;;
"Cardiff1703";"1968";;"Windows 7";"Rachel's Experiment (D.T.)";"1.0";"2";"1";"1";"2";"1";"1";"2014-07-21 11:22:57.801";"2014-07-21 11:40:08.663";"1";"1";"1";"21";"20";"module.training_block1.exec-4866.GoNoGo1";;;;;;;;;;;;;;;;;;;;;;;"1250";"2014-07-21 11:25:55.024";"ST_correctStop";"2";"0";"FINISHED";"NONE";"success";"0";"1";"2014-07-21 11:25:53.774";"1";;;;;;;;;;;;;;;;;;;;;;;;;;;;;;;;;;;;;;;;;;;;;;;;;;;;;;;;;
"Cardiff1703";"1968";;"Windows 7";"Rachel's Experiment (D.T.)";"1.0";"2";"1";"1";"2";"1";"1";"2014-07-21 11:22:57.801";"2014-07-21 11:40:08.663";"1";"1";"1";"22";"21";"module.training_block1.exec-4866.GoNoGo1";;;;;;;;;;;;;;;;;;;;;;;"1250";"2014-07-21 11:25:57.553";"ST_correctStop";"5";"1";"FINISHED";"NONE";"success";"0";"1";"2014-07-21 11:25:56.303";"1";;;;;;;;;;;;;;;;;;;;;;;;;;;;;;;;;;;;;;;;;;;;;;;;;;;;;;;;;
"Cardiff1703";"1968";;"Windows 7";"Rachel's Experiment (D.T.)";"1.0";"2";"1";"1";"2";"1";"1";"2014-07-21 11:22:57.801";"2014-07-21 11:40:08.663";"1";"1";"1";"23";"22";"module.training_block1.exec-4866.GoNoGo1";;;;;;;;;;;;;;;;;;;;;;;"1249";"2014-07-21 11:26:00.082";"ST_correctStop";"33";"1";"FINISHED";"NONE";"success";"0";"1";"2014-07-21 11:25:58.832";"3";;;;;;;;;;;;;;;;;;;;;;;;;;;;;;;;;;;;;;;;;;;;;;;;;;;;;;;;;
"Cardiff1703";"1968";;"Windows 7";"Rachel's Experiment (D.T.)";"1.0";"2";"1";"1";"2";"1";"1";"2014-07-21 11:22:57.801";"2014-07-21 11:40:08.663";"1";"1";"1";"24";"23";"module.training_block1.exec-4866.GoNoGo1";;;;;;;;;;;;;;;;;;;;;;;"1250";"2014-07-21 11:26:02.605";"ST_correctStop";"6";"0";"FINISHED";"NONE";"success";"0";"1";"2014-07-21 11:26:01.355";"1";;;;;;;;;;;;;;;;;;;;;;;;;;;;;;;;;;;;;;;;;;;;;;;;;;;;;;;;;
"Cardiff1703";"1968";;"Windows 7";"Rachel's Experiment (D.T.)";"1.0";"2";"1";"1";"2";"1";"1";"2014-07-21 11:22:57.801";"2014-07-21 11:40:08.663";"1";"1";"1";"25";"24";"module.training_block1.exec-4866.GoNoGo1";;;;;;;;;;;;;;;;;;;;;;;"1249";"2014-07-21 11:26:05.133";"NST_correctLoc";"32";"1";"FINISHED";"RIGHT";"success";"626";"0";"2014-07-21 11:26:03.883";"3";;;;;;;;;;;;;;;;;;;;;;;;;;;;;;;;;;;;;;;;;;;;;;;;;;;;;;;;;
"Cardiff1703";"1968";;"Windows 7";"Rachel's Experiment (D.T.)";"1.0";"2";"1";"1";"2";"1";"1";"2014-07-21 11:22:57.801";"2014-07-21 11:40:08.663";"1";"1";"1";"26";"25";"module.training_block1.exec-4866.GoNoGo1";;;;;;;;;;;;;;;;;;;;;;;"1250";"2014-07-21 11:26:07.660";"NST_correctLoc";"12";"1";"FINISHED";"RIGHT";"success";"603";"0";"2014-07-21 11:26:06.410";"2";;;;;;;;;;;;;;;;;;;;;;;;;;;;;;;;;;;;;;;;;;;;;;;;;;;;;;;;;
"Cardiff1703";"1968";;"Windows 7";"Rachel's Experiment (D.T.)";"1.0";"2";"1";"1";"2";"1";"1";"2014-07-21 11:22:57.801";"2014-07-21 11:40:08.663";"1";"1";"1";"27";"26";"module.training_block1.exec-4866.GoNoGo1";;;;;;;;;;;;;;;;;;;;;;;"1249";"2014-07-21 11:26:10.192";"ST_correctStop";"26";"1";"FINISHED";"NONE";"success";"0";"1";"2014-07-21 11:26:08.942";"3";;;;;;;;;;;;;;;;;;;;;;;;;;;;;;;;;;;;;;;;;;;;;;;;;;;;;;;;;
"Cardiff1703";"1968";;"Windows 7";"Rachel's Experiment (D.T.)";"1.0";"2";"1";"1";"2";"1";"1";"2014-07-21 11:22:57.801";"2014-07-21 11:40:08.663";"1";"1";"1";"28";"27";"module.training_block1.exec-4866.GoNoGo1";;;;;;;;;;;;;;;;;;;;;;;"1250";"2014-07-21 11:26:12.716";"ST_correctStop";"3";"0";"FINISHED";"NONE";"success";"0";"1";"2014-07-21 11:26:11.466";"1";;;;;;;;;;;;;;;;;;;;;;;;;;;;;;;;;;;;;;;;;;;;;;;;;;;;;;;;;
"Cardiff1703";"1968";;"Windows 7";"Rachel's Experiment (D.T.)";"1.0";"2";"1";"1";"2";"1";"1";"2014-07-21 11:22:57.801";"2014-07-21 11:40:08.663";"1";"1";"1";"29";"28";"module.training_block1.exec-4866.GoNoGo1";;;;;;;;;;;;;;;;;;;;;;;"1250";"2014-07-21 11:26:15.239";"ST_correctStop";"23";"1";"FINISHED";"NONE";"success";"0";"1";"2014-07-21 11:26:13.989";"3";;;;;;;;;;;;;;;;;;;;;;;;;;;;;;;;;;;;;;;;;;;;;;;;;;;;;;;;;
"Cardiff1703";"1968";;"Windows 7";"Rachel's Experiment (D.T.)";"1.0";"2";"1";"1";"2";"1";"1";"2014-07-21 11:22:57.801";"2014-07-21 11:40:08.663";"1";"1";"1";"30";"29";"module.training_block1.exec-4866.GoNoGo1";;;;;;;;;;;;;;;;;;;;;;;"1249";"2014-07-21 11:26:17.768";"ST_correctStop";"28";"0";"FINISHED";"NONE";"success";"0";"1";"2014-07-21 11:26:16.518";"3";;;;;;;;;;;;;;;;;;;;;;;;;;;;;;;;;;;;;;;;;;;;;;;;;;;;;;;;;
"Cardiff1703";"1968";;"Windows 7";"Rachel's Experiment (D.T.)";"1.0";"2";"1";"1";"2";"1";"1";"2014-07-21 11:22:57.801";"2014-07-21 11:40:08.663";"1";"1";"1";"31";"30";"module.training_block1.exec-4866.GoNoGo1";;;;;;;;;;;;;;;;;;;;;;;"1250";"2014-07-21 11:26:20.295";"ST_correctStop";"0";"0";"FINISHED";"NONE";"success";"0";"1";"2014-07-21 11:26:19.045";"1";;;;;;;;;;;;;;;;;;;;;;;;;;;;;;;;;;;;;;;;;;;;;;;;;;;;;;;;;
"Cardiff1703";"1968";;"Windows 7";"Rachel's Experiment (D.T.)";"1.0";"2";"1";"1";"2";"1";"1";"2014-07-21 11:22:57.801";"2014-07-21 11:40:08.663";"1";"1";"1";"32";"31";"module.training_block1.exec-4866.GoNoGo1";;;;;;;;;;;;;;;;;;;;;;;"1249";"2014-07-21 11:26:22.820";"NST_correctLoc";"19";"1";"FINISHED";"RIGHT";"success";"554";"0";"2014-07-21 11:26:21.570";"3";;;;;;;;;;;;;;;;;;;;;;;;;;;;;;;;;;;;;;;;;;;;;;;;;;;;;;;;;
"Cardiff1703";"1968";;"Windows 7";"Rachel's Experiment (D.T.)";"1.0";"2";"1";"1";"2";"1";"1";"2014-07-21 11:22:57.801";"2014-07-21 11:40:08.663";"1";"1";"1";"33";"32";"module.training_block1.exec-4866.GoNoGo1";;;;;;;;;;;;;;;;;;;;;;;"1249";"2014-07-21 11:26:25.346";"ST_correctStop";"7";"0";"FINISHED";"NONE";"success";"0";"1";"2014-07-21 11:26:24.096";"1";;;;;;;;;;;;;;;;;;;;;;;;;;;;;;;;;;;;;;;;;;;;;;;;;;;;;;;;;
"Cardiff1703";"1968";;"Windows 7";"Rachel's Experiment (D.T.)";"1.0";"2";"1";"1";"2";"1";"1";"2014-07-21 11:22:57.801";"2014-07-21 11:40:08.663";"1";"1";"1";"34";"33";"module.training_block1.exec-4866.GoNoGo1";;;;;;;;;;;;;;;;;;;;;;;"1249";"2014-07-21 11:26:27.872";"NST_correctLoc";"16";"1";"FINISHED";"RIGHT";"success";"630";"0";"2014-07-21 11:26:26.622";"2";;;;;;;;;;;;;;;;;;;;;;;;;;;;;;;;;;;;;;;;;;;;;;;;;;;;;;;;;
"Cardiff1703";"1968";;"Windows 7";"Rachel's Experiment (D.T.)";"1.0";"2";"1";"1";"2";"1";"1";"2014-07-21 11:22:57.801";"2014-07-21 11:40:08.663";"1";"1";"1";"35";"34";"module.training_block1.exec-4866.GoNoGo1";;;;;;;;;;;;;;;;;;;;;;;"1250";"2014-07-21 11:26:30.394";"NST_correctLoc";"30";"0";"FINISHED";"LEFT";"success";"508";"0";"2014-07-21 11:26:29.144";"3";;;;;;;;;;;;;;;;;;;;;;;;;;;;;;;;;;;;;;;;;;;;;;;;;;;;;;;;;
"Cardiff1703";"1968";;"Windows 7";"Rachel's Experiment (D.T.)";"1.0";"2";"1";"1";"2";"1";"1";"2014-07-21 11:22:57.801";"2014-07-21 11:40:08.663";"1";"1";"1";"36";"35";"module.training_block1.exec-4866.GoNoGo1";;;;;;;;;;;;;;;;;;;;;;;"1250";"2014-07-21 11:26:32.920";"NST_correctLoc";"22";"0";"FINISHED";"LEFT";"success";"534";"0";"2014-07-21 11:26:31.670";"3";;;;;;;;;;;;;;;;;;;;;;;;;;;;;;;;;;;;;;;;;;;;;;;;;;;;;;;;;
"Cardiff1703";"1968";;"Windows 7";"Rachel's Experiment (D.T.)";"1.0";"2";"1";"1";"2";"1";"1";"2014-07-21 11:22:57.801";"2014-07-21 11:40:08.663";"1";"1";"1";"37";"36";"module.training_block1.exec-4866.GoNoGo1";;;;;;;;;;;;;;;;;;;;;;;"1249";"2014-07-21 11:26:35.442";"NST_correctLoc";"13";"0";"FINISHED";"LEFT";"success";"532";"0";"2014-07-21 11:26:34.192";"2";;;;;;;;;;;;;;;;;;;;;;;;;;;;;;;;;;;;;;;;;;;;;;;;;;;;;;;;;
"Cardiff1703";"1968";;"Windows 7";"Rachel's Experiment (D.T.)";"1.0";"2";"1";"1";"2";"1";"1";"2014-07-21 11:22:57.801";"2014-07-21 11:40:08.663";"1";"1";"1";"38";"37";"module.training_block1.exec-4866.GoNoGo1";;;;;;;;;;;;;;;;;;;;;;;"1249";"2014-07-21 11:26:37.968";"ST_correctStop";"4";"1";"FINISHED";"NONE";"success";"0";"1";"2014-07-21 11:26:36.718";"1";;;;;;;;;;;;;;;;;;;;;;;;;;;;;;;;;;;;;;;;;;;;;;;;;;;;;;;;;
"Cardiff1703";"1968";;"Windows 7";"Rachel's Experiment (D.T.)";"1.0";"2";"1";"1";"2";"1";"1";"2014-07-21 11:22:57.801";"2014-07-21 11:40:08.663";"1";"1";"1";"39";"38";"module.training_block1.exec-4866.GoNoGo1";;;;;;;;;;;;;;;;;;;;;;;"1250";"2014-07-21 11:26:40.494";"NST_correctLoc";"11";"1";"FINISHED";"RIGHT";"success";"745";"0";"2014-07-21 11:26:39.244";"2";;;;;;;;;;;;;;;;;;;;;;;;;;;;;;;;;;;;;;;;;;;;;;;;;;;;;;;;;
"Cardiff1703";"1968";;"Windows 7";"Rachel's Experiment (D.T.)";"1.0";"2";"1";"1";"2";"1";"1";"2014-07-21 11:22:57.801";"2014-07-21 11:40:08.663";"1";"1";"1";"40";"39";"module.training_block1.exec-4866.GoNoGo1";;;;;;;;;;;;;;;;;;;;;;;"1249";"2014-07-21 11:26:43.019";"NST_correctLoc";"17";"1";"FINISHED";"RIGHT";"success";"603";"0";"2014-07-21 11:26:41.769";"2";;;;;;;;;;;;;;;;;;;;;;;;;;;;;;;;;;;;;;;;;;;;;;;;;;;;;;;;;
"Cardiff1703";"1968";;"Windows 7";"Rachel's Experiment (D.T.)";"1.0";"2";"1";"1";"2";"1";"1";"2014-07-21 11:22:57.801";"2014-07-21 11:40:08.663";"1";"1";"1";"41";"40";"module.training_block1.exec-4866.GoNoGo1";;;;;;;;;;;;;;;;;;;;;;;"1249";"2014-07-21 11:26:45.544";"ST_correctStop";"31";"0";"FINISHED";"NONE";"success";"0";"1";"2014-07-21 11:26:44.294";"3";;;;;;;;;;;;;;;;;;;;;;;;;;;;;;;;;;;;;;;;;;;;;;;;;;;;;;;;;
"Cardiff1703";"1968";;"Windows 7";"Rachel's Experiment (D.T.)";"1.0";"2";"1";"1";"2";"1";"1";"2014-07-21 11:22:57.801";"2014-07-21 11:40:08.663";"1";"1";"1";"42";"41";"module.training_block1.exec-4866.GoNoGo1";;;;;;;;;;;;;;;;;;;;;;;"1250";"2014-07-21 11:26:48.066";"ST_correctStop";"34";"1";"FINISHED";"NONE";"success";"0";"1";"2014-07-21 11:26:46.816";"3";;;;;;;;;;;;;;;;;;;;;;;;;;;;;;;;;;;;;;;;;;;;;;;;;;;;;;;;;
"Cardiff1703";"1968";;"Windows 7";"Rachel's Experiment (D.T.)";"1.0";"2";"1";"1";"2";"1";"1";"2014-07-21 11:22:57.801";"2014-07-21 11:40:08.663";"1";"1";"1";"43";"42";"module.training_block1.exec-4866.GoNoGo1";;;;;;;;;;;;;;;;;;;;;;;"1250";"2014-07-21 11:26:50.599";"NST_correctLoc";"35";"0";"FINISHED";"LEFT";"success";"559";"0";"2014-07-21 11:26:49.349";"3";;;;;;;;;;;;;;;;;;;;;;;;;;;;;;;;;;;;;;;;;;;;;;;;;;;;;;;;;
"Cardiff1703";"1968";;"Windows 7";"Rachel's Experiment (D.T.)";"1.0";"2";"1";"1";"2";"1";"1";"2014-07-21 11:22:57.801";"2014-07-21 11:40:08.663";"1";"1";"1";"44";"43";"module.training_block1.exec-4866.GoNoGo1";;;;;;;;;;;;;;;;;;;;;;;"1249";"2014-07-21 11:26:53.124";"ST_correctStop";"20";"0";"FINISHED";"NONE";"success";"0";"1";"2014-07-21 11:26:51.874";"3";;;;;;;;;;;;;;;;;;;;;;;;;;;;;;;;;;;;;;;;;;;;;;;;;;;;;;;;;
"Cardiff1703";"1968";;"Windows 7";"Rachel's Experiment (D.T.)";"1.0";"2";"1";"1";"2";"1";"1";"2014-07-21 11:22:57.801";"2014-07-21 11:40:08.663";"1";"1";"1";"45";"44";"module.training_block1.exec-4866.GoNoGo1";;;;;;;;;;;;;;;;;;;;;;;"1249";"2014-07-21 11:26:55.648";"ST_correctStop";"29";"1";"FINISHED";"NONE";"success";"0";"1";"2014-07-21 11:26:54.398";"3";;;;;;;;;;;;;;;;;;;;;;;;;;;;;;;;;;;;;;;;;;;;;;;;;;;;;;;;;
"Cardiff1703";"1968";;"Windows 7";"Rachel's Experiment (D.T.)";"1.0";"2";"1";"1";"2";"1";"1";"2014-07-21 11:22:57.801";"2014-07-21 11:40:08.663";"1";"1";"1";"46";"45";"module.training_block1.exec-4866.GoNoGo1";;;;;;;;;;;;;;;;;;;;;;;"1250";"2014-07-21 11:26:58.169";"NST_correctLoc";"14";"1";"FINISHED";"RIGHT";"success";"454";"0";"2014-07-21 11:26:56.919";"2";;;;;;;;;;;;;;;;;;;;;;;;;;;;;;;;;;;;;;;;;;;;;;;;;;;;;;;;;
"Cardiff1703";"1968";;"Windows 7";"Rachel's Experiment (D.T.)";"1.0";"2";"1";"1";"2";"1";"1";"2014-07-21 11:22:57.801";"2014-07-21 11:40:08.663";"1";"1";"1";"47";"46";"module.training_block1.exec-4866.GoNoGo1";;;;;;;;;;;;;;;;;;;;;;;"1250";"2014-07-21 11:27:00.690";"NST_correctLoc";"21";"0";"FINISHED";"LEFT";"success";"469";"0";"2014-07-21 11:26:59.440";"3";;;;;;;;;;;;;;;;;;;;;;;;;;;;;;;;;;;;;;;;;;;;;;;;;;;;;;;;;
"Cardiff1703";"1968";;"Windows 7";"Rachel's Experiment (D.T.)";"1.0";"2";"1";"1";"2";"1";"1";"2014-07-21 11:22:57.801";"2014-07-21 11:40:08.663";"1";"1";"1";"48";"47";"module.training_block1.exec-4866.GoNoGo1";;;;;;;;;;;;;;;;;;;;;;;"1249";"2014-07-21 11:27:03.213";"NST_correctLoc";"10";"0";"FINISHED";"LEFT";"success";"497";"0";"2014-07-21 11:27:01.963";"2";;;;;;;;;;;;;;;;;;;;;;;;;;;;;;;;;;;;;;;;;;;;;;;;;;;;;;;;;
"Cardiff1703";"1968";;"Windows 7";"Rachel's Experiment (D.T.)";"1.0";"2";"1";"1";"2";"1";"1";"2014-07-21 11:22:57.801";"2014-07-21 11:40:08.663";"1";"1";"1";"49";"48";"module.training_block1.exec-4866.GoNoGo1";;;;;;;;;;;;;;;;;;;;;;;"1249";"2014-07-21 11:27:05.737";"ST_correctStop";"1";"1";"FINISHED";"NONE";"success";"0";"1";"2014-07-21 11:27:04.487";"1";;;;;;;;;;;;;;;;;;;;;;;;;;;;;;;;;;;;;;;;;;;;;;;;;;;;;;;;;
"Cardiff1703";"1968";;"Windows 7";"Rachel's Experiment (D.T.)";"1.0";"2";"1";"1";"2";"1";"1";"2014-07-21 11:22:57.801";"2014-07-21 11:40:08.663";"1";"1";"1";"50";"49";"module.training_block1.exec-4866.GoNoGo1";;;;;;;;;;;;;;;;;;;;;;;"1250";"2014-07-21 11:27:08.263";"ST_correctStop";"8";"0";"FINISHED";"NONE";"success";"0";"1";"2014-07-21 11:27:07.012";"1";;;;;;;;;;;;;;;;;;;;;;;;;;;;;;;;;;;;;;;;;;;;;;;;;;;;;;;;;
"Cardiff1703";"1968";;"Windows 7";"Rachel's Experiment (D.T.)";"1.0";"2";"1";"1";"2";"1";"1";"2014-07-21 11:22:57.801";"2014-07-21 11:40:08.663";"1";"1";"1";"51";"50";"module.training_block1.exec-4866.GoNoGo1";;;;;;;;;;;;;;;;;;;;;;;"1250";"2014-07-21 11:27:10.787";"NST_correctLoc";"15";"1";"FINISHED";"RIGHT";"success";"428";"0";"2014-07-21 11:27:09.537";"2";;;;;;;;;;;;;;;;;;;;;;;;;;;;;;;;;;;;;;;;;;;;;;;;;;;;;;;;;
"Cardiff1703";"1968";;"Windows 7";"Rachel's Experiment (D.T.)";"1.0";"2";"1";"1";"2";"1";"1";"2014-07-21 11:22:57.801";"2014-07-21 11:40:08.663";"1";"1";"1";"52";"51";"module.training_block2.exec-6010.GoNoGo2";;;;;;;;;;;;;;;;;;;;;;;;;;;;;;;;;;;"1250";"2014-07-21 11:27:22.514";"NST_correctLoc";"24";"0";"FINISHED";"LEFT";"success";"508";"0";"2014-07-21 11:27:21.264";"3";;;;;;;;;;;;;;;;;;;;;;;;;;;;;;;;;;;;;;;;;;;;;
"Cardiff1703";"1968";;"Windows 7";"Rachel's Experiment (D.T.)";"1.0";"2";"1";"1";"2";"1";"1";"2014-07-21 11:22:57.801";"2014-07-21 11:40:08.663";"1";"1";"1";"53";"52";"module.training_block2.exec-6010.GoNoGo2";;;;;;;;;;;;;;;;;;;;;;;;;;;;;;;;;;;"1250";"2014-07-21 11:27:25.035";"NST_correctLoc";"19";"1";"FINISHED";"RIGHT";"success";"459";"0";"2014-07-21 11:27:23.785";"3";;;;;;;;;;;;;;;;;;;;;;;;;;;;;;;;;;;;;;;;;;;;;
"Cardiff1703";"1968";;"Windows 7";"Rachel's Experiment (D.T.)";"1.0";"2";"1";"1";"2";"1";"1";"2014-07-21 11:22:57.801";"2014-07-21 11:40:08.663";"1";"1";"1";"54";"53";"module.training_block2.exec-6010.GoNoGo2";;;;;;;;;;;;;;;;;;;;;;;;;;;;;;;;;;;"1250";"2014-07-21 11:27:27.556";"NST_correctLoc";"23";"0";"FINISHED";"LEFT";"success";"419";"0";"2014-07-21 11:27:26.305";"3";;;;;;;;;;;;;;;;;;;;;;;;;;;;;;;;;;;;;;;;;;;;;
"Cardiff1703";"1968";;"Windows 7";"Rachel's Experiment (D.T.)";"1.0";"2";"1";"1";"2";"1";"1";"2014-07-21 11:22:57.801";"2014-07-21 11:40:08.663";"1";"1";"1";"55";"54";"module.training_block2.exec-6010.GoNoGo2";;;;;;;;;;;;;;;;;;;;;;;;;;;;;;;;;;;"1250";"2014-07-21 11:27:30.076";"ST_correctStop";"3";"0";"FINISHED";"NONE";"success";"0";"1";"2014-07-21 11:27:28.826";"1";;;;;;;;;;;;;;;;;;;;;;;;;;;;;;;;;;;;;;;;;;;;;
"Cardiff1703";"1968";;"Windows 7";"Rachel's Experiment (D.T.)";"1.0";"2";"1";"1";"2";"1";"1";"2014-07-21 11:22:57.801";"2014-07-21 11:40:08.663";"1";"1";"1";"56";"55";"module.training_block2.exec-6010.GoNoGo2";;;;;;;;;;;;;;;;;;;;;;;;;;;;;;;;;;;"1250";"2014-07-21 11:27:32.593";"NST_correctLoc";"30";"1";"FINISHED";"RIGHT";"success";"541";"0";"2014-07-21 11:27:31.343";"3";;;;;;;;;;;;;;;;;;;;;;;;;;;;;;;;;;;;;;;;;;;;;
"Cardiff1703";"1968";;"Windows 7";"Rachel's Experiment (D.T.)";"1.0";"2";"1";"1";"2";"1";"1";"2014-07-21 11:22:57.801";"2014-07-21 11:40:08.663";"1";"1";"1";"57";"56";"module.training_block2.exec-6010.GoNoGo2";;;;;;;;;;;;;;;;;;;;;;;;;;;;;;;;;;;"1250";"2014-07-21 11:27:35.113";"NST_correctLoc";"11";"0";"FINISHED";"LEFT";"success";"421";"0";"2014-07-21 11:27:33.863";"2";;;;;;;;;;;;;;;;;;;;;;;;;;;;;;;;;;;;;;;;;;;;;
"Cardiff1703";"1968";;"Windows 7";"Rachel's Experiment (D.T.)";"1.0";"2";"1";"1";"2";"1";"1";"2014-07-21 11:22:57.801";"2014-07-21 11:40:08.663";"1";"1";"1";"58";"57";"module.training_block2.exec-6010.GoNoGo2";;;;;;;;;;;;;;;;;;;;;;;;;;;;;;;;;;;"1250";"2014-07-21 11:27:37.633";"NST_correctLoc";"15";"0";"FINISHED";"LEFT";"success";"701";"0";"2014-07-21 11:27:36.383";"2";;;;;;;;;;;;;;;;;;;;;;;;;;;;;;;;;;;;;;;;;;;;;
"Cardiff1703";"1968";;"Windows 7";"Rachel's Experiment (D.T.)";"1.0";"2";"1";"1";"2";"1";"1";"2014-07-21 11:22:57.801";"2014-07-21 11:40:08.663";"1";"1";"1";"59";"58";"module.training_block2.exec-6010.GoNoGo2";;;;;;;;;;;;;;;;;;;;;;;;;;;;;;;;;;;"1250";"2014-07-21 11:27:40.153";"ST_correctStop";"7";"0";"FINISHED";"NONE";"success";"0";"1";"2014-07-21 11:27:38.903";"1";;;;;;;;;;;;;;;;;;;;;;;;;;;;;;;;;;;;;;;;;;;;;
"Cardiff1703";"1968";;"Windows 7";"Rachel's Experiment (D.T.)";"1.0";"2";"1";"1";"2";"1";"1";"2014-07-21 11:22:57.801";"2014-07-21 11:40:08.663";"1";"1";"1";"60";"59";"module.training_block2.exec-6010.GoNoGo2";;;;;;;;;;;;;;;;;;;;;;;;;;;;;;;;;;;"1250";"2014-07-21 11:27:42.789";"NST_correctLoc";"34";"0";"FINISHED";"LEFT";"success";"513";"0";"2014-07-21 11:27:41.539";"3";;;;;;;;;;;;;;;;;;;;;;;;;;;;;;;;;;;;;;;;;;;;;
"Cardiff1703";"1968";;"Windows 7";"Rachel's Experiment (D.T.)";"1.0";"2";"1";"1";"2";"1";"1";"2014-07-21 11:22:57.801";"2014-07-21 11:40:08.663";"1";"1";"1";"61";"60";"module.training_block2.exec-6010.GoNoGo2";;;;;;;;;;;;;;;;;;;;;;;;;;;;;;;;;;;"1249";"2014-07-21 11:27:45.313";"ST_correctStop";"5";"0";"FINISHED";"NONE";"success";"0";"1";"2014-07-21 11:27:44.063";"1";;;;;;;;;;;;;;;;;;;;;;;;;;;;;;;;;;;;;;;;;;;;;
"Cardiff1703";"1968";;"Windows 7";"Rachel's Experiment (D.T.)";"1.0";"2";"1";"1";"2";"1";"1";"2014-07-21 11:22:57.801";"2014-07-21 11:40:08.663";"1";"1";"1";"62";"61";"module.training_block2.exec-6010.GoNoGo2";;;;;;;;;;;;;;;;;;;;;;;;;;;;;;;;;;;"1250";"2014-07-21 11:27:47.837";"ST_correctStop";"27";"0";"FINISHED";"NONE";"success";"0";"1";"2014-07-21 11:27:46.587";"3";;;;;;;;;;;;;;;;;;;;;;;;;;;;;;;;;;;;;;;;;;;;;
"Cardiff1703";"1968";;"Windows 7";"Rachel's Experiment (D.T.)";"1.0";"2";"1";"1";"2";"1";"1";"2014-07-21 11:22:57.801";"2014-07-21 11:40:08.663";"1";"1";"1";"63";"62";"module.training_block2.exec-6010.GoNoGo2";;;;;;;;;;;;;;;;;;;;;;;;;;;;;;;;;;;"1249";"2014-07-21 11:27:50.360";"ST_correctStop";"20";"0";"FINISHED";"NONE";"success";"0";"1";"2014-07-21 11:27:49.110";"3";;;;;;;;;;;;;;;;;;;;;;;;;;;;;;;;;;;;;;;;;;;;;
"Cardiff1703";"1968";;"Windows 7";"Rachel's Experiment (D.T.)";"1.0";"2";"1";"1";"2";"1";"1";"2014-07-21 11:22:57.801";"2014-07-21 11:40:08.663";"1";"1";"1";"64";"63";"module.training_block2.exec-6010.GoNoGo2";;;;;;;;;;;;;;;;;;;;;;;;;;;;;;;;;;;"1250";"2014-07-21 11:27:52.882";"ST_correctStop";"35";"0";"FINISHED";"NONE";"success";"0";"1";"2014-07-21 11:27:51.632";"3";;;;;;;;;;;;;;;;;;;;;;;;;;;;;;;;;;;;;;;;;;;;;
"Cardiff1703";"1968";;"Windows 7";"Rachel's Experiment (D.T.)";"1.0";"2";"1";"1";"2";"1";"1";"2014-07-21 11:22:57.801";"2014-07-21 11:40:08.663";"1";"1";"1";"65";"64";"module.training_block2.exec-6010.GoNoGo2";;;;;;;;;;;;;;;;;;;;;;;;;;;;;;;;;;;"1249";"2014-07-21 11:27:55.406";"NST_correctLoc";"32";"0";"FINISHED";"LEFT";"success";"544";"0";"2014-07-21 11:27:54.156";"3";;;;;;;;;;;;;;;;;;;;;;;;;;;;;;;;;;;;;;;;;;;;;
"Cardiff1703";"1968";;"Windows 7";"Rachel's Experiment (D.T.)";"1.0";"2";"1";"1";"2";"1";"1";"2014-07-21 11:22:57.801";"2014-07-21 11:40:08.663";"1";"1";"1";"66";"65";"module.training_block2.exec-6010.GoNoGo2";;;;;;;;;;;;;;;;;;;;;;;;;;;;;;;;;;;"1249";"2014-07-21 11:27:57.929";"NST_correctLoc";"13";"1";"FINISHED";"RIGHT";"success";"532";"0";"2014-07-21 11:27:56.679";"2";;;;;;;;;;;;;;;;;;;;;;;;;;;;;;;;;;;;;;;;;;;;;
"Cardiff1703";"1968";;"Windows 7";"Rachel's Experiment (D.T.)";"1.0";"2";"1";"1";"2";"1";"1";"2014-07-21 11:22:57.801";"2014-07-21 11:40:08.663";"1";"1";"1";"67";"66";"module.training_block2.exec-6010.GoNoGo2";;;;;;;;;;;;;;;;;;;;;;;;;;;;;;;;;;;"1249";"2014-07-21 11:28:00.447";"NST_correctLoc";"17";"1";"FINISHED";"RIGHT";"success";"510";"0";"2014-07-21 11:27:59.197";"2";;;;;;;;;;;;;;;;;;;;;;;;;;;;;;;;;;;;;;;;;;;;;
"Cardiff1703";"1968";;"Windows 7";"Rachel's Experiment (D.T.)";"1.0";"2";"1";"1";"2";"1";"1";"2014-07-21 11:22:57.801";"2014-07-21 11:40:08.663";"1";"1";"1";"68";"67";"module.training_block2.exec-6010.GoNoGo2";;;;;;;;;;;;;;;;;;;;;;;;;;;;;;;;;;;"1250";"2014-07-21 11:28:02.968";"NST_correctLoc";"12";"1";"FINISHED";"RIGHT";"success";"454";"0";"2014-07-21 11:28:01.718";"2";;;;;;;;;;;;;;;;;;;;;;;;;;;;;;;;;;;;;;;;;;;;;
"Cardiff1703";"1968";;"Windows 7";"Rachel's Experiment (D.T.)";"1.0";"2";"1";"1";"2";"1";"1";"2014-07-21 11:22:57.801";"2014-07-21 11:40:08.663";"1";"1";"1";"69";"68";"module.training_block2.exec-6010.GoNoGo2";;;;;;;;;;;;;;;;;;;;;;;;;;;;;;;;;;;"1249";"2014-07-21 11:28:05.488";"NST_correctLoc";"29";"1";"FINISHED";"RIGHT";"success";"637";"0";"2014-07-21 11:28:04.238";"3";;;;;;;;;;;;;;;;;;;;;;;;;;;;;;;;;;;;;;;;;;;;;
"Cardiff1703";"1968";;"Windows 7";"Rachel's Experiment (D.T.)";"1.0";"2";"1";"1";"2";"1";"1";"2014-07-21 11:22:57.801";"2014-07-21 11:40:08.663";"1";"1";"1";"70";"69";"module.training_block2.exec-6010.GoNoGo2";;;;;;;;;;;;;;;;;;;;;;;;;;;;;;;;;;;"1249";"2014-07-21 11:28:08.012";"NST_correctLoc";"14";"1";"FINISHED";"RIGHT";"success";"514";"0";"2014-07-21 11:28:06.762";"2";;;;;;;;;;;;;;;;;;;;;;;;;;;;;;;;;;;;;;;;;;;;;
"Cardiff1703";"1968";;"Windows 7";"Rachel's Experiment (D.T.)";"1.0";"2";"1";"1";"2";"1";"1";"2014-07-21 11:22:57.801";"2014-07-21 11:40:08.663";"1";"1";"1";"71";"70";"module.training_block2.exec-6010.GoNoGo2";;;;;;;;;;;;;;;;;;;;;;;;;;;;;;;;;;;"1249";"2014-07-21 11:28:10.535";"ST_correctStop";"8";"0";"FINISHED";"NONE";"success";"0";"1";"2014-07-21 11:28:09.285";"1";;;;;;;;;;;;;;;;;;;;;;;;;;;;;;;;;;;;;;;;;;;;;
"Cardiff1703";"1968";;"Windows 7";"Rachel's Experiment (D.T.)";"1.0";"2";"1";"1";"2";"1";"1";"2014-07-21 11:22:57.801";"2014-07-21 11:40:08.663";"1";"1";"1";"72";"71";"module.training_block2.exec-6010.GoNoGo2";;;;;;;;;;;;;;;;;;;;;;;;;;;;;;;;;;;"1249";"2014-07-21 11:28:13.058";"NST_correctLoc";"25";"1";"FINISHED";"RIGHT";"success";"459";"0";"2014-07-21 11:28:11.808";"3";;;;;;;;;;;;;;;;;;;;;;;;;;;;;;;;;;;;;;;;;;;;;
"Cardiff1703";"1968";;"Windows 7";"Rachel's Experiment (D.T.)";"1.0";"2";"1";"1";"2";"1";"1";"2014-07-21 11:22:57.801";"2014-07-21 11:40:08.663";"1";"1";"1";"73";"72";"module.training_block2.exec-6010.GoNoGo2";;;;;;;;;;;;;;;;;;;;;;;;;;;;;;;;;;;"1249";"2014-07-21 11:28:15.580";"ST_correctStop";"1";"0";"FINISHED";"NONE";"success";"0";"1";"2014-07-21 11:28:14.330";"1";;;;;;;;;;;;;;;;;;;;;;;;;;;;;;;;;;;;;;;;;;;;;
"Cardiff1703";"1968";;"Windows 7";"Rachel's Experiment (D.T.)";"1.0";"2";"1";"1";"2";"1";"1";"2014-07-21 11:22:57.801";"2014-07-21 11:40:08.663";"1";"1";"1";"74";"73";"module.training_block2.exec-6010.GoNoGo2";;;;;;;;;;;;;;;;;;;;;;;;;;;;;;;;;;;"1249";"2014-07-21 11:28:18.104";"ST_correctStop";"31";"0";"FINISHED";"NONE";"success";"0";"1";"2014-07-21 11:28:16.853";"3";;;;;;;;;;;;;;;;;;;;;;;;;;;;;;;;;;;;;;;;;;;;;
"Cardiff1703";"1968";;"Windows 7";"Rachel's Experiment (D.T.)";"1.0";"2";"1";"1";"2";"1";"1";"2014-07-21 11:22:57.801";"2014-07-21 11:40:08.663";"1";"1";"1";"75";"74";"module.training_block2.exec-6010.GoNoGo2";;;;;;;;;;;;;;;;;;;;;;;;;;;;;;;;;;;"1249";"2014-07-21 11:28:20.626";"NST_correctLoc";"16";"1";"FINISHED";"RIGHT";"success";"596";"0";"2014-07-21 11:28:19.376";"2";;;;;;;;;;;;;;;;;;;;;;;;;;;;;;;;;;;;;;;;;;;;;
"Cardiff1703";"1968";;"Windows 7";"Rachel's Experiment (D.T.)";"1.0";"2";"1";"1";"2";"1";"1";"2014-07-21 11:22:57.801";"2014-07-21 11:40:08.663";"1";"1";"1";"76";"75";"module.training_block2.exec-6010.GoNoGo2";;;;;;;;;;;;;;;;;;;;;;;;;;;;;;;;;;;"1249";"2014-07-21 11:28:23.154";"ST_correctStop";"4";"0";"FINISHED";"NONE";"success";"0";"1";"2014-07-21 11:28:21.904";"1";;;;;;;;;;;;;;;;;;;;;;;;;;;;;;;;;;;;;;;;;;;;;
"Cardiff1703";"1968";;"Windows 7";"Rachel's Experiment (D.T.)";"1.0";"2";"1";"1";"2";"1";"1";"2014-07-21 11:22:57.801";"2014-07-21 11:40:08.663";"1";"1";"1";"77";"76";"module.training_block2.exec-6010.GoNoGo2";;;;;;;;;;;;;;;;;;;;;;;;;;;;;;;;;;;"1249";"2014-07-21 11:28:25.676";"ST_correctStop";"6";"1";"FINISHED";"NONE";"success";"0";"1";"2014-07-21 11:28:24.426";"1";;;;;;;;;;;;;;;;;;;;;;;;;;;;;;;;;;;;;;;;;;;;;
"Cardiff1703";"1968";;"Windows 7";"Rachel's Experiment (D.T.)";"1.0";"2";"1";"1";"2";"1";"1";"2014-07-21 11:22:57.801";"2014-07-21 11:40:08.663";"1";"1";"1";"78";"77";"module.training_block2.exec-6010.GoNoGo2";;;;;;;;;;;;;;;;;;;;;;;;;;;;;;;;;;;"1249";"2014-07-21 11:28:28.198";"ST_failedStop";"26";"1";"FINISHED";"RIGHT";"failure";"528";"1";"2014-07-21 11:28:26.948";"3";;;;;;;;;;;;;;;;;;;;;;;;;;;;;;;;;;;;;;;;;;;;;
"Cardiff1703";"1968";;"Windows 7";"Rachel's Experiment (D.T.)";"1.0";"2";"1";"1";"2";"1";"1";"2014-07-21 11:22:57.801";"2014-07-21 11:40:08.663";"1";"1";"1";"79";"78";"module.training_block2.exec-6010.GoNoGo2";;;;;;;;;;;;;;;;;;;;;;;;;;;;;;;;;;;"1249";"2014-07-21 11:28:30.719";"ST_correctStop";"2";"0";"FINISHED";"NONE";"success";"0";"1";"2014-07-21 11:28:29.469";"1";;;;;;;;;;;;;;;;;;;;;;;;;;;;;;;;;;;;;;;;;;;;;
"Cardiff1703";"1968";;"Windows 7";"Rachel's Experiment (D.T.)";"1.0";"2";"1";"1";"2";"1";"1";"2014-07-21 11:22:57.801";"2014-07-21 11:40:08.663";"1";"1";"1";"80";"79";"module.training_block2.exec-6010.GoNoGo2";;;;;;;;;;;;;;;;;;;;;;;;;;;;;;;;;;;"1249";"2014-07-21 11:28:33.240";"ST_correctStop";"22";"0";"FINISHED";"NONE";"success";"0";"1";"2014-07-21 11:28:31.990";"3";;;;;;;;;;;;;;;;;;;;;;;;;;;;;;;;;;;;;;;;;;;;;
"Cardiff1703";"1968";;"Windows 7";"Rachel's Experiment (D.T.)";"1.0";"2";"1";"1";"2";"1";"1";"2014-07-21 11:22:57.801";"2014-07-21 11:40:08.663";"1";"1";"1";"81";"80";"module.training_block2.exec-6010.GoNoGo2";;;;;;;;;;;;;;;;;;;;;;;;;;;;;;;;;;;"1249";"2014-07-21 11:28:35.762";"ST_correctStop";"18";"1";"FINISHED";"NONE";"success";"0";"1";"2014-07-21 11:28:34.511";"3";;;;;;;;;;;;;;;;;;;;;;;;;;;;;;;;;;;;;;;;;;;;;
"Cardiff1703";"1968";;"Windows 7";"Rachel's Experiment (D.T.)";"1.0";"2";"1";"1";"2";"1";"1";"2014-07-21 11:22:57.801";"2014-07-21 11:40:08.663";"1";"1";"1";"82";"81";"module.training_block2.exec-6010.GoNoGo2";;;;;;;;;;;;;;;;;;;;;;;;;;;;;;;;;;;"1249";"2014-07-21 11:28:38.283";"NST_correctLoc";"21";"1";"FINISHED";"RIGHT";"success";"659";"0";"2014-07-21 11:28:37.033";"3";;;;;;;;;;;;;;;;;;;;;;;;;;;;;;;;;;;;;;;;;;;;;
"Cardiff1703";"1968";;"Windows 7";"Rachel's Experiment (D.T.)";"1.0";"2";"1";"1";"2";"1";"1";"2014-07-21 11:22:57.801";"2014-07-21 11:40:08.663";"1";"1";"1";"83";"82";"module.training_block2.exec-6010.GoNoGo2";;;;;;;;;;;;;;;;;;;;;;;;;;;;;;;;;;;"1250";"2014-07-21 11:28:40.804";"NST_correctLoc";"10";"1";"FINISHED";"RIGHT";"success";"482";"0";"2014-07-21 11:28:39.554";"2";;;;;;;;;;;;;;;;;;;;;;;;;;;;;;;;;;;;;;;;;;;;;
"Cardiff1703";"1968";;"Windows 7";"Rachel's Experiment (D.T.)";"1.0";"2";"1";"1";"2";"1";"1";"2014-07-21 11:22:57.801";"2014-07-21 11:40:08.663";"1";"1";"1";"84";"83";"module.training_block2.exec-6010.GoNoGo2";;;;;;;;;;;;;;;;;;;;;;;;;;;;;;;;;;;"1249";"2014-07-21 11:28:43.327";"ST_correctStop";"33";"0";"FINISHED";"NONE";"success";"0";"1";"2014-07-21 11:28:42.077";"3";;;;;;;;;;;;;;;;;;;;;;;;;;;;;;;;;;;;;;;;;;;;;
"Cardiff1703";"1968";;"Windows 7";"Rachel's Experiment (D.T.)";"1.0";"2";"1";"1";"2";"1";"1";"2014-07-21 11:22:57.801";"2014-07-21 11:40:08.663";"1";"1";"1";"85";"84";"module.training_block2.exec-6010.GoNoGo2";;;;;;;;;;;;;;;;;;;;;;;;;;;;;;;;;;;"1250";"2014-07-21 11:28:45.848";"ST_correctStop";"0";"1";"FINISHED";"NONE";"success";"0";"1";"2014-07-21 11:28:44.598";"1";;;;;;;;;;;;;;;;;;;;;;;;;;;;;;;;;;;;;;;;;;;;;
"Cardiff1703";"1968";;"Windows 7";"Rachel's Experiment (D.T.)";"1.0";"2";"1";"1";"2";"1";"1";"2014-07-21 11:22:57.801";"2014-07-21 11:40:08.663";"1";"1";"1";"86";"85";"module.training_block2.exec-6010.GoNoGo2";;;;;;;;;;;;;;;;;;;;;;;;;;;;;;;;;;;"1249";"2014-07-21 11:28:48.368";"ST_correctStop";"28";"1";"FINISHED";"NONE";"success";"0";"1";"2014-07-21 11:28:47.118";"3";;;;;;;;;;;;;;;;;;;;;;;;;;;;;;;;;;;;;;;;;;;;;
"Cardiff1703";"1968";;"Windows 7";"Rachel's Experiment (D.T.)";"1.0";"2";"1";"1";"2";"1";"1";"2014-07-21 11:22:57.801";"2014-07-21 11:40:08.663";"1";"1";"1";"87";"86";"module.training_block2.exec-6010.GoNoGo2";;;;;;;;;;;;;;;;;;;;;;;;;;;;;;;;;;;"1250";"2014-07-21 11:28:50.890";"NST_correctLoc";"9";"1";"FINISHED";"RIGHT";"success";"604";"0";"2014-07-21 11:28:49.639";"2";;;;;;;;;;;;;;;;;;;;;;;;;;;;;;;;;;;;;;;;;;;;;
"Cardiff1703";"1968";;"Windows 7";"Rachel's Experiment (D.T.)";"1.0";"2";"1";"1";"2";"1";"1";"2014-07-21 11:22:57.801";"2014-07-21 11:40:08.663";"1";"1";"1";"88";"87";"module.training_block3.exec-6675.GoNoGo3";;;;;;;;;;;;;;;;;;;;;;;;;;;;;;;;;;;;;;;;;;;;;;;"1250";"2014-07-21 11:29:03.498";"ST_correctStop";"28";"1";"FINISHED";"NONE";"success";"0";"1";"2014-07-21 11:29:02.248";"3";;;;;;;;;;;;;;;;;;;;;;;;;;;;;;;;;
"Cardiff1703";"1968";;"Windows 7";"Rachel's Experiment (D.T.)";"1.0";"2";"1";"1";"2";"1";"1";"2014-07-21 11:22:57.801";"2014-07-21 11:40:08.663";"1";"1";"1";"89";"88";"module.training_block3.exec-6675.GoNoGo3";;;;;;;;;;;;;;;;;;;;;;;;;;;;;;;;;;;;;;;;;;;;;;;"1249";"2014-07-21 11:29:06.020";"ST_correctStop";"30";"0";"FINISHED";"NONE";"success";"0";"1";"2014-07-21 11:29:04.770";"3";;;;;;;;;;;;;;;;;;;;;;;;;;;;;;;;;
"Cardiff1703";"1968";;"Windows 7";"Rachel's Experiment (D.T.)";"1.0";"2";"1";"1";"2";"1";"1";"2014-07-21 11:22:57.801";"2014-07-21 11:40:08.663";"1";"1";"1";"90";"89";"module.training_block3.exec-6675.GoNoGo3";;;;;;;;;;;;;;;;;;;;;;;;;;;;;;;;;;;;;;;;;;;;;;;"1249";"2014-07-21 11:29:08.536";"ST_correctStop";"33";"0";"FINISHED";"NONE";"success";"0";"1";"2014-07-21 11:29:07.286";"3";;;;;;;;;;;;;;;;;;;;;;;;;;;;;;;;;
"Cardiff1703";"1968";;"Windows 7";"Rachel's Experiment (D.T.)";"1.0";"2";"1";"1";"2";"1";"1";"2014-07-21 11:22:57.801";"2014-07-21 11:40:08.663";"1";"1";"1";"91";"90";"module.training_block3.exec-6675.GoNoGo3";;;;;;;;;;;;;;;;;;;;;;;;;;;;;;;;;;;;;;;;;;;;;;;"1249";"2014-07-21 11:29:11.053";"NST_wrongLoc";"12";"0";"FINISHED";"RIGHT";"failure";"552";"0";"2014-07-21 11:29:09.802";"2";;;;;;;;;;;;;;;;;;;;;;;;;;;;;;;;;
"Cardiff1703";"1968";;"Windows 7";"Rachel's Experiment (D.T.)";"1.0";"2";"1";"1";"2";"1";"1";"2014-07-21 11:22:57.801";"2014-07-21 11:40:08.663";"1";"1";"1";"92";"91";"module.training_block3.exec-6675.GoNoGo3";;;;;;;;;;;;;;;;;;;;;;;;;;;;;;;;;;;;;;;;;;;;;;;"1249";"2014-07-21 11:29:13.569";"NST_correctLoc";"17";"1";"FINISHED";"RIGHT";"success";"596";"0";"2014-07-21 11:29:12.319";"2";;;;;;;;;;;;;;;;;;;;;;;;;;;;;;;;;
"Cardiff1703";"1968";;"Windows 7";"Rachel's Experiment (D.T.)";"1.0";"2";"1";"1";"2";"1";"1";"2014-07-21 11:22:57.801";"2014-07-21 11:40:08.663";"1";"1";"1";"93";"92";"module.training_block3.exec-6675.GoNoGo3";;;;;;;;;;;;;;;;;;;;;;;;;;;;;;;;;;;;;;;;;;;;;;;"1249";"2014-07-21 11:29:16.085";"NST_correctLoc";"32";"1";"FINISHED";"RIGHT";"success";"624";"0";"2014-07-21 11:29:14.835";"3";;;;;;;;;;;;;;;;;;;;;;;;;;;;;;;;;
"Cardiff1703";"1968";;"Windows 7";"Rachel's Experiment (D.T.)";"1.0";"2";"1";"1";"2";"1";"1";"2014-07-21 11:22:57.801";"2014-07-21 11:40:08.663";"1";"1";"1";"94";"93";"module.training_block3.exec-6675.GoNoGo3";;;;;;;;;;;;;;;;;;;;;;;;;;;;;;;;;;;;;;;;;;;;;;;"1249";"2014-07-21 11:29:18.601";"ST_correctStop";"0";"0";"FINISHED";"NONE";"success";"0";"1";"2014-07-21 11:29:17.351";"1";;;;;;;;;;;;;;;;;;;;;;;;;;;;;;;;;
"Cardiff1703";"1968";;"Windows 7";"Rachel's Experiment (D.T.)";"1.0";"2";"1";"1";"2";"1";"1";"2014-07-21 11:22:57.801";"2014-07-21 11:40:08.663";"1";"1";"1";"95";"94";"module.training_block3.exec-6675.GoNoGo3";;;;;;;;;;;;;;;;;;;;;;;;;;;;;;;;;;;;;;;;;;;;;;;"1249";"2014-07-21 11:29:21.117";"NST_correctLoc";"10";"0";"FINISHED";"LEFT";"success";"520";"0";"2014-07-21 11:29:19.867";"2";;;;;;;;;;;;;;;;;;;;;;;;;;;;;;;;;
"Cardiff1703";"1968";;"Windows 7";"Rachel's Experiment (D.T.)";"1.0";"2";"1";"1";"2";"1";"1";"2014-07-21 11:22:57.801";"2014-07-21 11:40:08.663";"1";"1";"1";"96";"95";"module.training_block3.exec-6675.GoNoGo3";;;;;;;;;;;;;;;;;;;;;;;;;;;;;;;;;;;;;;;;;;;;;;;"1250";"2014-07-21 11:29:23.634";"ST_correctStop";"22";"1";"FINISHED";"NONE";"success";"0";"1";"2014-07-21 11:29:22.384";"3";;;;;;;;;;;;;;;;;;;;;;;;;;;;;;;;;
"Cardiff1703";"1968";;"Windows 7";"Rachel's Experiment (D.T.)";"1.0";"2";"1";"1";"2";"1";"1";"2014-07-21 11:22:57.801";"2014-07-21 11:40:08.663";"1";"1";"1";"97";"96";"module.training_block3.exec-6675.GoNoGo3";;;;;;;;;;;;;;;;;;;;;;;;;;;;;;;;;;;;;;;;;;;;;;;"1249";"2014-07-21 11:29:26.150";"ST_correctStop";"6";"0";"FINISHED";"NONE";"success";"0";"1";"2014-07-21 11:29:24.900";"1";;;;;;;;;;;;;;;;;;;;;;;;;;;;;;;;;
"Cardiff1703";"1968";;"Windows 7";"Rachel's Experiment (D.T.)";"1.0";"2";"1";"1";"2";"1";"1";"2014-07-21 11:22:57.801";"2014-07-21 11:40:08.663";"1";"1";"1";"98";"97";"module.training_block3.exec-6675.GoNoGo3";;;;;;;;;;;;;;;;;;;;;;;;;;;;;;;;;;;;;;;;;;;;;;;"1249";"2014-07-21 11:29:28.667";"ST_correctStop";"8";"1";"FINISHED";"NONE";"success";"0";"1";"2014-07-21 11:29:27.416";"1";;;;;;;;;;;;;;;;;;;;;;;;;;;;;;;;;
"Cardiff1703";"1968";;"Windows 7";"Rachel's Experiment (D.T.)";"1.0";"2";"1";"1";"2";"1";"1";"2014-07-21 11:22:57.801";"2014-07-21 11:40:08.663";"1";"1";"1";"99";"98";"module.training_block3.exec-6675.GoNoGo3";;;;;;;;;;;;;;;;;;;;;;;;;;;;;;;;;;;;;;;;;;;;;;;"1249";"2014-07-21 11:29:31.189";"NST_correctLoc";"23";"0";"FINISHED";"LEFT";"success";"824";"0";"2014-07-21 11:29:29.939";"3";;;;;;;;;;;;;;;;;;;;;;;;;;;;;;;;;
"Cardiff1703";"1968";;"Windows 7";"Rachel's Experiment (D.T.)";"1.0";"2";"1";"1";"2";"1";"1";"2014-07-21 11:22:57.801";"2014-07-21 11:40:08.663";"1";"1";"1";"100";"99";"module.training_block3.exec-6675.GoNoGo3";;;;;;;;;;;;;;;;;;;;;;;;;;;;;;;;;;;;;;;;;;;;;;;"1249";"2014-07-21 11:29:33.705";"ST_correctStop";"29";"0";"FINISHED";"NONE";"success";"0";"1";"2014-07-21 11:29:32.455";"3";;;;;;;;;;;;;;;;;;;;;;;;;;;;;;;;;
"Cardiff1703";"1968";;"Windows 7";"Rachel's Experiment (D.T.)";"1.0";"2";"1";"1";"2";"1";"1";"2014-07-21 11:22:57.801";"2014-07-21 11:40:08.663";"1";"1";"1";"101";"100";"module.training_block3.exec-6675.GoNoGo3";;;;;;;;;;;;;;;;;;;;;;;;;;;;;;;;;;;;;;;;;;;;;;;"1249";"2014-07-21 11:29:36.222";"NST_correctLoc";"16";"1";"FINISHED";"RIGHT";"success";"519";"0";"2014-07-21 11:29:34.972";"2";;;;;;;;;;;;;;;;;;;;;;;;;;;;;;;;;
"Cardiff1703";"1968";;"Windows 7";"Rachel's Experiment (D.T.)";"1.0";"2";"1";"1";"2";"1";"1";"2014-07-21 11:22:57.801";"2014-07-21 11:40:08.663";"1";"1";"1";"102";"101";"module.training_block3.exec-6675.GoNoGo3";;;;;;;;;;;;;;;;;;;;;;;;;;;;;;;;;;;;;;;;;;;;;;;"1249";"2014-07-21 11:29:38.743";"NST_correctLoc";"11";"1";"FINISHED";"RIGHT";"success";"534";"0";"2014-07-21 11:29:37.493";"2";;;;;;;;;;;;;;;;;;;;;;;;;;;;;;;;;
"Cardiff1703";"1968";;"Windows 7";"Rachel's Experiment (D.T.)";"1.0";"2";"1";"1";"2";"1";"1";"2014-07-21 11:22:57.801";"2014-07-21 11:40:08.663";"1";"1";"1";"103";"102";"module.training_block3.exec-6675.GoNoGo3";;;;;;;;;;;;;;;;;;;;;;;;;;;;;;;;;;;;;;;;;;;;;;;"1249";"2014-07-21 11:29:41.259";"ST_correctStop";"18";"1";"FINISHED";"NONE";"success";"0";"1";"2014-07-21 11:29:40.009";"3";;;;;;;;;;;;;;;;;;;;;;;;;;;;;;;;;
"Cardiff1703";"1968";;"Windows 7";"Rachel's Experiment (D.T.)";"1.0";"2";"1";"1";"2";"1";"1";"2014-07-21 11:22:57.801";"2014-07-21 11:40:08.663";"1";"1";"1";"104";"103";"module.training_block3.exec-6675.GoNoGo3";;;;;;;;;;;;;;;;;;;;;;;;;;;;;;;;;;;;;;;;;;;;;;;"1249";"2014-07-21 11:29:43.775";"NST_correctLoc";"13";"1";"FINISHED";"RIGHT";"success";"477";"0";"2014-07-21 11:29:42.525";"2";;;;;;;;;;;;;;;;;;;;;;;;;;;;;;;;;
"Cardiff1703";"1968";;"Windows 7";"Rachel's Experiment (D.T.)";"1.0";"2";"1";"1";"2";"1";"1";"2014-07-21 11:22:57.801";"2014-07-21 11:40:08.663";"1";"1";"1";"105";"104";"module.training_block3.exec-6675.GoNoGo3";;;;;;;;;;;;;;;;;;;;;;;;;;;;;;;;;;;;;;;;;;;;;;;"1249";"2014-07-21 11:29:46.292";"NST_correctLoc";"15";"0";"FINISHED";"LEFT";"success";"537";"0";"2014-07-21 11:29:45.041";"2";;;;;;;;;;;;;;;;;;;;;;;;;;;;;;;;;
"Cardiff1703";"1968";;"Windows 7";"Rachel's Experiment (D.T.)";"1.0";"2";"1";"1";"2";"1";"1";"2014-07-21 11:22:57.801";"2014-07-21 11:40:08.663";"1";"1";"1";"106";"105";"module.training_block3.exec-6675.GoNoGo3";;;;;;;;;;;;;;;;;;;;;;;;;;;;;;;;;;;;;;;;;;;;;;;"1249";"2014-07-21 11:29:48.808";"ST_correctStop";"2";"1";"FINISHED";"NONE";"success";"0";"1";"2014-07-21 11:29:47.558";"1";;;;;;;;;;;;;;;;;;;;;;;;;;;;;;;;;
"Cardiff1703";"1968";;"Windows 7";"Rachel's Experiment (D.T.)";"1.0";"2";"1";"1";"2";"1";"1";"2014-07-21 11:22:57.801";"2014-07-21 11:40:08.663";"1";"1";"1";"107";"106";"module.training_block3.exec-6675.GoNoGo3";;;;;;;;;;;;;;;;;;;;;;;;;;;;;;;;;;;;;;;;;;;;;;;"1249";"2014-07-21 11:29:51.324";"NST_correctLoc";"14";"0";"FINISHED";"LEFT";"success";"449";"0";"2014-07-21 11:29:50.074";"2";;;;;;;;;;;;;;;;;;;;;;;;;;;;;;;;;
"Cardiff1703";"1968";;"Windows 7";"Rachel's Experiment (D.T.)";"1.0";"2";"1";"1";"2";"1";"1";"2014-07-21 11:22:57.801";"2014-07-21 11:40:08.663";"1";"1";"1";"108";"107";"module.training_block3.exec-6675.GoNoGo3";;;;;;;;;;;;;;;;;;;;;;;;;;;;;;;;;;;;;;;;;;;;;;;"1249";"2014-07-21 11:29:53.840";"NST_correctLoc";"27";"1";"FINISHED";"RIGHT";"success";"469";"0";"2014-07-21 11:29:52.590";"3";;;;;;;;;;;;;;;;;;;;;;;;;;;;;;;;;
"Cardiff1703";"1968";;"Windows 7";"Rachel's Experiment (D.T.)";"1.0";"2";"1";"1";"2";"1";"1";"2014-07-21 11:22:57.801";"2014-07-21 11:40:08.663";"1";"1";"1";"109";"108";"module.training_block3.exec-6675.GoNoGo3";;;;;;;;;;;;;;;;;;;;;;;;;;;;;;;;;;;;;;;;;;;;;;;"1249";"2014-07-21 11:29:56.356";"ST_correctStop";"1";"0";"FINISHED";"NONE";"success";"0";"1";"2014-07-21 11:29:55.106";"1";;;;;;;;;;;;;;;;;;;;;;;;;;;;;;;;;
"Cardiff1703";"1968";;"Windows 7";"Rachel's Experiment (D.T.)";"1.0";"2";"1";"1";"2";"1";"1";"2014-07-21 11:22:57.801";"2014-07-21 11:40:08.663";"1";"1";"1";"110";"109";"module.training_block3.exec-6675.GoNoGo3";;;;;;;;;;;;;;;;;;;;;;;;;;;;;;;;;;;;;;;;;;;;;;;"1249";"2014-07-21 11:29:58.872";"NST_correctLoc";"26";"1";"FINISHED";"RIGHT";"success";"404";"0";"2014-07-21 11:29:57.622";"3";;;;;;;;;;;;;;;;;;;;;;;;;;;;;;;;;
"Cardiff1703";"1968";;"Windows 7";"Rachel's Experiment (D.T.)";"1.0";"2";"1";"1";"2";"1";"1";"2014-07-21 11:22:57.801";"2014-07-21 11:40:08.663";"1";"1";"1";"111";"110";"module.training_block3.exec-6675.GoNoGo3";;;;;;;;;;;;;;;;;;;;;;;;;;;;;;;;;;;;;;;;;;;;;;;"1249";"2014-07-21 11:30:01.388";"ST_correctStop";"20";"0";"FINISHED";"NONE";"success";"0";"1";"2014-07-21 11:30:00.138";"3";;;;;;;;;;;;;;;;;;;;;;;;;;;;;;;;;
"Cardiff1703";"1968";;"Windows 7";"Rachel's Experiment (D.T.)";"1.0";"2";"1";"1";"2";"1";"1";"2014-07-21 11:22:57.801";"2014-07-21 11:40:08.663";"1";"1";"1";"112";"111";"module.training_block3.exec-6675.GoNoGo3";;;;;;;;;;;;;;;;;;;;;;;;;;;;;;;;;;;;;;;;;;;;;;;"1249";"2014-07-21 11:30:03.905";"NST_correctLoc";"31";"1";"FINISHED";"RIGHT";"success";"436";"0";"2014-07-21 11:30:02.654";"3";;;;;;;;;;;;;;;;;;;;;;;;;;;;;;;;;
"Cardiff1703";"1968";;"Windows 7";"Rachel's Experiment (D.T.)";"1.0";"2";"1";"1";"2";"1";"1";"2014-07-21 11:22:57.801";"2014-07-21 11:40:08.663";"1";"1";"1";"113";"112";"module.training_block3.exec-6675.GoNoGo3";;;;;;;;;;;;;;;;;;;;;;;;;;;;;;;;;;;;;;;;;;;;;;;"1249";"2014-07-21 11:30:06.423";"NST_correctLoc";"9";"1";"FINISHED";"RIGHT";"success";"462";"0";"2014-07-21 11:30:05.173";"2";;;;;;;;;;;;;;;;;;;;;;;;;;;;;;;;;
"Cardiff1703";"1968";;"Windows 7";"Rachel's Experiment (D.T.)";"1.0";"2";"1";"1";"2";"1";"1";"2014-07-21 11:22:57.801";"2014-07-21 11:40:08.663";"1";"1";"1";"114";"113";"module.training_block3.exec-6675.GoNoGo3";;;;;;;;;;;;;;;;;;;;;;;;;;;;;;;;;;;;;;;;;;;;;;;"1250";"2014-07-21 11:30:08.945";"ST_correctStop";"24";"1";"FINISHED";"NONE";"success";"0";"1";"2014-07-21 11:30:07.695";"3";;;;;;;;;;;;;;;;;;;;;;;;;;;;;;;;;
"Cardiff1703";"1968";;"Windows 7";"Rachel's Experiment (D.T.)";"1.0";"2";"1";"1";"2";"1";"1";"2014-07-21 11:22:57.801";"2014-07-21 11:40:08.663";"1";"1";"1";"115";"114";"module.training_block3.exec-6675.GoNoGo3";;;;;;;;;;;;;;;;;;;;;;;;;;;;;;;;;;;;;;;;;;;;;;;"1249";"2014-07-21 11:30:11.461";"ST_correctStop";"4";"1";"FINISHED";"NONE";"success";"0";"1";"2014-07-21 11:30:10.211";"1";;;;;;;;;;;;;;;;;;;;;;;;;;;;;;;;;
"Cardiff1703";"1968";;"Windows 7";"Rachel's Experiment (D.T.)";"1.0";"2";"1";"1";"2";"1";"1";"2014-07-21 11:22:57.801";"2014-07-21 11:40:08.663";"1";"1";"1";"116";"115";"module.training_block3.exec-6675.GoNoGo3";;;;;;;;;;;;;;;;;;;;;;;;;;;;;;;;;;;;;;;;;;;;;;;"1249";"2014-07-21 11:30:13.980";"ST_correctStop";"3";"0";"FINISHED";"NONE";"success";"0";"1";"2014-07-21 11:30:12.730";"1";;;;;;;;;;;;;;;;;;;;;;;;;;;;;;;;;
"Cardiff1703";"1968";;"Windows 7";"Rachel's Experiment (D.T.)";"1.0";"2";"1";"1";"2";"1";"1";"2014-07-21 11:22:57.801";"2014-07-21 11:40:08.663";"1";"1";"1";"117";"116";"module.training_block3.exec-6675.GoNoGo3";;;;;;;;;;;;;;;;;;;;;;;;;;;;;;;;;;;;;;;;;;;;;;;"1249";"2014-07-21 11:30:16.496";"NST_correctLoc";"35";"0";"FINISHED";"LEFT";"success";"476";"0";"2014-07-21 11:30:15.246";"3";;;;;;;;;;;;;;;;;;;;;;;;;;;;;;;;;
"Cardiff1703";"1968";;"Windows 7";"Rachel's Experiment (D.T.)";"1.0";"2";"1";"1";"2";"1";"1";"2014-07-21 11:22:57.801";"2014-07-21 11:40:08.663";"1";"1";"1";"118";"117";"module.training_block3.exec-6675.GoNoGo3";;;;;;;;;;;;;;;;;;;;;;;;;;;;;;;;;;;;;;;;;;;;;;;"1249";"2014-07-21 11:30:19.012";"ST_correctStop";"7";"0";"FINISHED";"NONE";"success";"0";"1";"2014-07-21 11:30:17.762";"1";;;;;;;;;;;;;;;;;;;;;;;;;;;;;;;;;
"Cardiff1703";"1968";;"Windows 7";"Rachel's Experiment (D.T.)";"1.0";"2";"1";"1";"2";"1";"1";"2014-07-21 11:22:57.801";"2014-07-21 11:40:08.663";"1";"1";"1";"119";"118";"module.training_block3.exec-6675.GoNoGo3";;;;;;;;;;;;;;;;;;;;;;;;;;;;;;;;;;;;;;;;;;;;;;;"1249";"2014-07-21 11:30:21.534";"NST_correctLoc";"25";"0";"FINISHED";"LEFT";"success";"551";"0";"2014-07-21 11:30:20.283";"3";;;;;;;;;;;;;;;;;;;;;;;;;;;;;;;;;
"Cardiff1703";"1968";;"Windows 7";"Rachel's Experiment (D.T.)";"1.0";"2";"1";"1";"2";"1";"1";"2014-07-21 11:22:57.801";"2014-07-21 11:40:08.663";"1";"1";"1";"120";"119";"module.training_block3.exec-6675.GoNoGo3";;;;;;;;;;;;;;;;;;;;;;;;;;;;;;;;;;;;;;;;;;;;;;;"1249";"2014-07-21 11:30:24.050";"NST_correctLoc";"34";"1";"FINISHED";"RIGHT";"success";"563";"0";"2014-07-21 11:30:22.800";"3";;;;;;;;;;;;;;;;;;;;;;;;;;;;;;;;;
"Cardiff1703";"1968";;"Windows 7";"Rachel's Experiment (D.T.)";"1.0";"2";"1";"1";"2";"1";"1";"2014-07-21 11:22:57.801";"2014-07-21 11:40:08.663";"1";"1";"1";"121";"120";"module.training_block3.exec-6675.GoNoGo3";;;;;;;;;;;;;;;;;;;;;;;;;;;;;;;;;;;;;;;;;;;;;;;"1249";"2014-07-21 11:30:26.566";"ST_correctStop";"5";"1";"FINISHED";"NONE";"success";"0";"1";"2014-07-21 11:30:25.316";"1";;;;;;;;;;;;;;;;;;;;;;;;;;;;;;;;;
"Cardiff1703";"1968";;"Windows 7";"Rachel's Experiment (D.T.)";"1.0";"2";"1";"1";"2";"1";"1";"2014-07-21 11:22:57.801";"2014-07-21 11:40:08.663";"1";"1";"1";"122";"121";"module.training_block3.exec-6675.GoNoGo3";;;;;;;;;;;;;;;;;;;;;;;;;;;;;;;;;;;;;;;;;;;;;;;"1250";"2014-07-21 11:30:29.087";"NST_correctLoc";"19";"1";"FINISHED";"RIGHT";"success";"526";"0";"2014-07-21 11:30:27.837";"3";;;;;;;;;;;;;;;;;;;;;;;;;;;;;;;;;
"Cardiff1703";"1968";;"Windows 7";"Rachel's Experiment (D.T.)";"1.0";"2";"1";"1";"2";"1";"1";"2014-07-21 11:22:57.801";"2014-07-21 11:40:08.663";"1";"1";"1";"123";"122";"module.training_block3.exec-6675.GoNoGo3";;;;;;;;;;;;;;;;;;;;;;;;;;;;;;;;;;;;;;;;;;;;;;;"1249";"2014-07-21 11:30:31.603";"ST_correctStop";"21";"0";"FINISHED";"NONE";"success";"0";"1";"2014-07-21 11:30:30.353";"3";;;;;;;;;;;;;;;;;;;;;;;;;;;;;;;;;
"Cardiff1703";"1968";;"Windows 7";"Rachel's Experiment (D.T.)";"1.0";"2";"1";"1";"2";"1";"1";"2014-07-21 11:22:57.801";"2014-07-21 11:40:08.663";"1";"1";"1";"124";"123";"module.training_block4.exec-9922.GoNoGo4";;;;;;;;;;;;;;;;;;;;;;;;;;;;;;;;;;;;;;;;;;;;;;;;;;;;;;;;;;;"1249";"2014-07-21 11:30:43.903";"NST_correctLoc";"13";"1";"FINISHED";"RIGHT";"success";"645";"0";"2014-07-21 11:30:42.653";"2";;;;;;;;;;;;;;;;;;;;;
"Cardiff1703";"1968";;"Windows 7";"Rachel's Experiment (D.T.)";"1.0";"2";"1";"1";"2";"1";"1";"2014-07-21 11:22:57.801";"2014-07-21 11:40:08.663";"1";"1";"1";"125";"124";"module.training_block4.exec-9922.GoNoGo4";;;;;;;;;;;;;;;;;;;;;;;;;;;;;;;;;;;;;;;;;;;;;;;;;;;;;;;;;;;"1249";"2014-07-21 11:30:46.419";"ST_correctStop";"5";"0";"FINISHED";"NONE";"success";"0";"1";"2014-07-21 11:30:45.169";"1";;;;;;;;;;;;;;;;;;;;;
"Cardiff1703";"1968";;"Windows 7";"Rachel's Experiment (D.T.)";"1.0";"2";"1";"1";"2";"1";"1";"2014-07-21 11:22:57.801";"2014-07-21 11:40:08.663";"1";"1";"1";"126";"125";"module.training_block4.exec-9922.GoNoGo4";;;;;;;;;;;;;;;;;;;;;;;;;;;;;;;;;;;;;;;;;;;;;;;;;;;;;;;;;;;"1249";"2014-07-21 11:30:48.935";"NST_correctLoc";"29";"0";"FINISHED";"LEFT";"success";"549";"0";"2014-07-21 11:30:47.685";"3";;;;;;;;;;;;;;;;;;;;;
"Cardiff1703";"1968";;"Windows 7";"Rachel's Experiment (D.T.)";"1.0";"2";"1";"1";"2";"1";"1";"2014-07-21 11:22:57.801";"2014-07-21 11:40:08.663";"1";"1";"1";"127";"126";"module.training_block4.exec-9922.GoNoGo4";;;;;;;;;;;;;;;;;;;;;;;;;;;;;;;;;;;;;;;;;;;;;;;;;;;;;;;;;;;"1249";"2014-07-21 11:30:51.451";"NST_correctLoc";"11";"1";"FINISHED";"RIGHT";"success";"457";"0";"2014-07-21 11:30:50.201";"2";;;;;;;;;;;;;;;;;;;;;
"Cardiff1703";"1968";;"Windows 7";"Rachel's Experiment (D.T.)";"1.0";"2";"1";"1";"2";"1";"1";"2014-07-21 11:22:57.801";"2014-07-21 11:40:08.663";"1";"1";"1";"128";"127";"module.training_block4.exec-9922.GoNoGo4";;;;;;;;;;;;;;;;;;;;;;;;;;;;;;;;;;;;;;;;;;;;;;;;;;;;;;;;;;;"1249";"2014-07-21 11:30:53.967";"ST_correctStop";"26";"1";"FINISHED";"NONE";"success";"0";"1";"2014-07-21 11:30:52.717";"3";;;;;;;;;;;;;;;;;;;;;
"Cardiff1703";"1968";;"Windows 7";"Rachel's Experiment (D.T.)";"1.0";"2";"1";"1";"2";"1";"1";"2014-07-21 11:22:57.801";"2014-07-21 11:40:08.663";"1";"1";"1";"129";"128";"module.training_block4.exec-9922.GoNoGo4";;;;;;;;;;;;;;;;;;;;;;;;;;;;;;;;;;;;;;;;;;;;;;;;;;;;;;;;;;;"1249";"2014-07-21 11:30:56.484";"NST_correctLoc";"23";"0";"FINISHED";"LEFT";"success";"472";"0";"2014-07-21 11:30:55.233";"3";;;;;;;;;;;;;;;;;;;;;
"Cardiff1703";"1968";;"Windows 7";"Rachel's Experiment (D.T.)";"1.0";"2";"1";"1";"2";"1";"1";"2014-07-21 11:22:57.801";"2014-07-21 11:40:08.663";"1";"1";"1";"130";"129";"module.training_block4.exec-9922.GoNoGo4";;;;;;;;;;;;;;;;;;;;;;;;;;;;;;;;;;;;;;;;;;;;;;;;;;;;;;;;;;;"1249";"2014-07-21 11:30:59.000";"NST_correctLoc";"17";"1";"FINISHED";"RIGHT";"success";"588";"0";"2014-07-21 11:30:57.750";"2";;;;;;;;;;;;;;;;;;;;;
"Cardiff1703";"1968";;"Windows 7";"Rachel's Experiment (D.T.)";"1.0";"2";"1";"1";"2";"1";"1";"2014-07-21 11:22:57.801";"2014-07-21 11:40:08.663";"1";"1";"1";"131";"130";"module.training_block4.exec-9922.GoNoGo4";;;;;;;;;;;;;;;;;;;;;;;;;;;;;;;;;;;;;;;;;;;;;;;;;;;;;;;;;;;"1249";"2014-07-21 11:31:01.516";"NST_correctLoc";"10";"1";"FINISHED";"RIGHT";"success";"512";"0";"2014-07-21 11:31:00.266";"2";;;;;;;;;;;;;;;;;;;;;
"Cardiff1703";"1968";;"Windows 7";"Rachel's Experiment (D.T.)";"1.0";"2";"1";"1";"2";"1";"1";"2014-07-21 11:22:57.801";"2014-07-21 11:40:08.663";"1";"1";"1";"132";"131";"module.training_block4.exec-9922.GoNoGo4";;;;;;;;;;;;;;;;;;;;;;;;;;;;;;;;;;;;;;;;;;;;;;;;;;;;;;;;;;;"1249";"2014-07-21 11:31:04.032";"NST_correctLoc";"16";"1";"FINISHED";"RIGHT";"success";"420";"0";"2014-07-21 11:31:02.782";"2";;;;;;;;;;;;;;;;;;;;;
"Cardiff1703";"1968";;"Windows 7";"Rachel's Experiment (D.T.)";"1.0";"2";"1";"1";"2";"1";"1";"2014-07-21 11:22:57.801";"2014-07-21 11:40:08.663";"1";"1";"1";"133";"132";"module.training_block4.exec-9922.GoNoGo4";;;;;;;;;;;;;;;;;;;;;;;;;;;;;;;;;;;;;;;;;;;;;;;;;;;;;;;;;;;"1249";"2014-07-21 11:31:06.548";"NST_correctLoc";"34";"0";"FINISHED";"LEFT";"success";"440";"0";"2014-07-21 11:31:05.298";"3";;;;;;;;;;;;;;;;;;;;;
"Cardiff1703";"1968";;"Windows 7";"Rachel's Experiment (D.T.)";"1.0";"2";"1";"1";"2";"1";"1";"2014-07-21 11:22:57.801";"2014-07-21 11:40:08.663";"1";"1";"1";"134";"133";"module.training_block4.exec-9922.GoNoGo4";;;;;;;;;;;;;;;;;;;;;;;;;;;;;;;;;;;;;;;;;;;;;;;;;;;;;;;;;;;"1249";"2014-07-21 11:31:09.064";"ST_correctStop";"25";"1";"FINISHED";"NONE";"success";"0";"1";"2014-07-21 11:31:07.814";"3";;;;;;;;;;;;;;;;;;;;;
"Cardiff1703";"1968";;"Windows 7";"Rachel's Experiment (D.T.)";"1.0";"2";"1";"1";"2";"1";"1";"2014-07-21 11:22:57.801";"2014-07-21 11:40:08.663";"1";"1";"1";"135";"134";"module.training_block4.exec-9922.GoNoGo4";;;;;;;;;;;;;;;;;;;;;;;;;;;;;;;;;;;;;;;;;;;;;;;;;;;;;;;;;;;"1249";"2014-07-21 11:31:11.580";"NST_correctLoc";"15";"1";"FINISHED";"RIGHT";"success";"432";"0";"2014-07-21 11:31:10.330";"2";;;;;;;;;;;;;;;;;;;;;
"Cardiff1703";"1968";;"Windows 7";"Rachel's Experiment (D.T.)";"1.0";"2";"1";"1";"2";"1";"1";"2014-07-21 11:22:57.801";"2014-07-21 11:40:08.663";"1";"1";"1";"136";"135";"module.training_block4.exec-9922.GoNoGo4";;;;;;;;;;;;;;;;;;;;;;;;;;;;;;;;;;;;;;;;;;;;;;;;;;;;;;;;;;;"1249";"2014-07-21 11:31:14.097";"NST_correctLoc";"28";"0";"FINISHED";"LEFT";"success";"395";"0";"2014-07-21 11:31:12.846";"3";;;;;;;;;;;;;;;;;;;;;
"Cardiff1703";"1968";;"Windows 7";"Rachel's Experiment (D.T.)";"1.0";"2";"1";"1";"2";"1";"1";"2014-07-21 11:22:57.801";"2014-07-21 11:40:08.663";"1";"1";"1";"137";"136";"module.training_block4.exec-9922.GoNoGo4";;;;;;;;;;;;;;;;;;;;;;;;;;;;;;;;;;;;;;;;;;;;;;;;;;;;;;;;;;;"1249";"2014-07-21 11:31:16.611";"NST_correctLoc";"12";"0";"FINISHED";"LEFT";"success";"465";"0";"2014-07-21 11:31:15.361";"2";;;;;;;;;;;;;;;;;;;;;
"Cardiff1703";"1968";;"Windows 7";"Rachel's Experiment (D.T.)";"1.0";"2";"1";"1";"2";"1";"1";"2014-07-21 11:22:57.801";"2014-07-21 11:40:08.663";"1";"1";"1";"138";"137";"module.training_block4.exec-9922.GoNoGo4";;;;;;;;;;;;;;;;;;;;;;;;;;;;;;;;;;;;;;;;;;;;;;;;;;;;;;;;;;;"1249";"2014-07-21 11:31:19.126";"ST_correctStop";"2";"0";"FINISHED";"NONE";"success";"0";"1";"2014-07-21 11:31:17.876";"1";;;;;;;;;;;;;;;;;;;;;
"Cardiff1703";"1968";;"Windows 7";"Rachel's Experiment (D.T.)";"1.0";"2";"1";"1";"2";"1";"1";"2014-07-21 11:22:57.801";"2014-07-21 11:40:08.663";"1";"1";"1";"139";"138";"module.training_block4.exec-9922.GoNoGo4";;;;;;;;;;;;;;;;;;;;;;;;;;;;;;;;;;;;;;;;;;;;;;;;;;;;;;;;;;;"1249";"2014-07-21 11:31:21.641";"ST_correctStop";"8";"0";"FINISHED";"NONE";"success";"0";"1";"2014-07-21 11:31:20.391";"1";;;;;;;;;;;;;;;;;;;;;
"Cardiff1703";"1968";;"Windows 7";"Rachel's Experiment (D.T.)";"1.0";"2";"1";"1";"2";"1";"1";"2014-07-21 11:22:57.801";"2014-07-21 11:40:08.663";"1";"1";"1";"140";"139";"module.training_block4.exec-9922.GoNoGo4";;;;;;;;;;;;;;;;;;;;;;;;;;;;;;;;;;;;;;;;;;;;;;;;;;;;;;;;;;;"1249";"2014-07-21 11:31:24.155";"NST_correctLoc";"21";"0";"FINISHED";"LEFT";"success";"441";"0";"2014-07-21 11:31:22.905";"3";;;;;;;;;;;;;;;;;;;;;
"Cardiff1703";"1968";;"Windows 7";"Rachel's Experiment (D.T.)";"1.0";"2";"1";"1";"2";"1";"1";"2014-07-21 11:22:57.801";"2014-07-21 11:40:08.663";"1";"1";"1";"141";"140";"module.training_block4.exec-9922.GoNoGo4";;;;;;;;;;;;;;;;;;;;;;;;;;;;;;;;;;;;;;;;;;;;;;;;;;;;;;;;;;;"1249";"2014-07-21 11:31:26.670";"ST_correctStop";"22";"0";"FINISHED";"NONE";"success";"0";"1";"2014-07-21 11:31:25.420";"3";;;;;;;;;;;;;;;;;;;;;
"Cardiff1703";"1968";;"Windows 7";"Rachel's Experiment (D.T.)";"1.0";"2";"1";"1";"2";"1";"1";"2014-07-21 11:22:57.801";"2014-07-21 11:40:08.663";"1";"1";"1";"142";"141";"module.training_block4.exec-9922.GoNoGo4";;;;;;;;;;;;;;;;;;;;;;;;;;;;;;;;;;;;;;;;;;;;;;;;;;;;;;;;;;;"1249";"2014-07-21 11:31:29.186";"ST_correctStop";"3";"1";"FINISHED";"NONE";"success";"0";"1";"2014-07-21 11:31:27.936";"1";;;;;;;;;;;;;;;;;;;;;
"Cardiff1703";"1968";;"Windows 7";"Rachel's Experiment (D.T.)";"1.0";"2";"1";"1";"2";"1";"1";"2014-07-21 11:22:57.801";"2014-07-21 11:40:08.663";"1";"1";"1";"143";"142";"module.training_block4.exec-9922.GoNoGo4";;;;;;;;;;;;;;;;;;;;;;;;;;;;;;;;;;;;;;;;;;;;;;;;;;;;;;;;;;;"1249";"2014-07-21 11:31:31.703";"ST_correctStop";"30";"0";"FINISHED";"NONE";"success";"0";"1";"2014-07-21 11:31:30.453";"3";;;;;;;;;;;;;;;;;;;;;
"Cardiff1703";"1968";;"Windows 7";"Rachel's Experiment (D.T.)";"1.0";"2";"1";"1";"2";"1";"1";"2014-07-21 11:22:57.801";"2014-07-21 11:40:08.663";"1";"1";"1";"144";"143";"module.training_block4.exec-9922.GoNoGo4";;;;;;;;;;;;;;;;;;;;;;;;;;;;;;;;;;;;;;;;;;;;;;;;;;;;;;;;;;;"1249";"2014-07-21 11:31:34.214";"NST_correctLoc";"33";"1";"FINISHED";"RIGHT";"success";"478";"0";"2014-07-21 11:31:32.964";"3";;;;;;;;;;;;;;;;;;;;;
"Cardiff1703";"1968";;"Windows 7";"Rachel's Experiment (D.T.)";"1.0";"2";"1";"1";"2";"1";"1";"2014-07-21 11:22:57.801";"2014-07-21 11:40:08.663";"1";"1";"1";"145";"144";"module.training_block4.exec-9922.GoNoGo4";;;;;;;;;;;;;;;;;;;;;;;;;;;;;;;;;;;;;;;;;;;;;;;;;;;;;;;;;;;"1249";"2014-07-21 11:31:36.734";"NST_correctLoc";"9";"1";"FINISHED";"RIGHT";"success";"574";"0";"2014-07-21 11:31:35.484";"2";;;;;;;;;;;;;;;;;;;;;
"Cardiff1703";"1968";;"Windows 7";"Rachel's Experiment (D.T.)";"1.0";"2";"1";"1";"2";"1";"1";"2014-07-21 11:22:57.801";"2014-07-21 11:40:08.663";"1";"1";"1";"146";"145";"module.training_block4.exec-9922.GoNoGo4";;;;;;;;;;;;;;;;;;;;;;;;;;;;;;;;;;;;;;;;;;;;;;;;;;;;;;;;;;;"1249";"2014-07-21 11:31:39.250";"ST_correctStop";"27";"1";"FINISHED";"NONE";"success";"0";"1";"2014-07-21 11:31:38.000";"3";;;;;;;;;;;;;;;;;;;;;
"Cardiff1703";"1968";;"Windows 7";"Rachel's Experiment (D.T.)";"1.0";"2";"1";"1";"2";"1";"1";"2014-07-21 11:22:57.801";"2014-07-21 11:40:08.663";"1";"1";"1";"147";"146";"module.training_block4.exec-9922.GoNoGo4";;;;;;;;;;;;;;;;;;;;;;;;;;;;;;;;;;;;;;;;;;;;;;;;;;;;;;;;;;;"1249";"2014-07-21 11:31:41.766";"ST_correctStop";"35";"0";"FINISHED";"NONE";"success";"0";"1";"2014-07-21 11:31:40.516";"3";;;;;;;;;;;;;;;;;;;;;
"Cardiff1703";"1968";;"Windows 7";"Rachel's Experiment (D.T.)";"1.0";"2";"1";"1";"2";"1";"1";"2014-07-21 11:22:57.801";"2014-07-21 11:40:08.663";"1";"1";"1";"148";"147";"module.training_block4.exec-9922.GoNoGo4";;;;;;;;;;;;;;;;;;;;;;;;;;;;;;;;;;;;;;;;;;;;;;;;;;;;;;;;;;;"1249";"2014-07-21 11:31:44.282";"ST_correctStop";"4";"1";"FINISHED";"NONE";"success";"0";"1";"2014-07-21 11:31:43.032";"1";;;;;;;;;;;;;;;;;;;;;
"Cardiff1703";"1968";;"Windows 7";"Rachel's Experiment (D.T.)";"1.0";"2";"1";"1";"2";"1";"1";"2014-07-21 11:22:57.801";"2014-07-21 11:40:08.663";"1";"1";"1";"149";"148";"module.training_block4.exec-9922.GoNoGo4";;;;;;;;;;;;;;;;;;;;;;;;;;;;;;;;;;;;;;;;;;;;;;;;;;;;;;;;;;;"1250";"2014-07-21 11:31:46.803";"NST_correctLoc";"24";"0";"FINISHED";"LEFT";"success";"433";"0";"2014-07-21 11:31:45.553";"3";;;;;;;;;;;;;;;;;;;;;
"Cardiff1703";"1968";;"Windows 7";"Rachel's Experiment (D.T.)";"1.0";"2";"1";"1";"2";"1";"1";"2014-07-21 11:22:57.801";"2014-07-21 11:40:08.663";"1";"1";"1";"150";"149";"module.training_block4.exec-9922.GoNoGo4";;;;;;;;;;;;;;;;;;;;;;;;;;;;;;;;;;;;;;;;;;;;;;;;;;;;;;;;;;;"1249";"2014-07-21 11:31:49.319";"NST_correctLoc";"19";"0";"FINISHED";"LEFT";"success";"581";"0";"2014-07-21 11:31:48.069";"3";;;;;;;;;;;;;;;;;;;;;
"Cardiff1703";"1968";;"Windows 7";"Rachel's Experiment (D.T.)";"1.0";"2";"1";"1";"2";"1";"1";"2014-07-21 11:22:57.801";"2014-07-21 11:40:08.663";"1";"1";"1";"151";"150";"module.training_block4.exec-9922.GoNoGo4";;;;;;;;;;;;;;;;;;;;;;;;;;;;;;;;;;;;;;;;;;;;;;;;;;;;;;;;;;;"1249";"2014-07-21 11:31:51.833";"ST_correctStop";"1";"1";"FINISHED";"NONE";"success";"0";"1";"2014-07-21 11:31:50.583";"1";;;;;;;;;;;;;;;;;;;;;
"Cardiff1703";"1968";;"Windows 7";"Rachel's Experiment (D.T.)";"1.0";"2";"1";"1";"2";"1";"1";"2014-07-21 11:22:57.801";"2014-07-21 11:40:08.663";"1";"1";"1";"152";"151";"module.training_block4.exec-9922.GoNoGo4";;;;;;;;;;;;;;;;;;;;;;;;;;;;;;;;;;;;;;;;;;;;;;;;;;;;;;;;;;;"1249";"2014-07-21 11:31:54.348";"ST_correctStop";"31";"1";"FINISHED";"NONE";"success";"0";"1";"2014-07-21 11:31:53.098";"3";;;;;;;;;;;;;;;;;;;;;
"Cardiff1703";"1968";;"Windows 7";"Rachel's Experiment (D.T.)";"1.0";"2";"1";"1";"2";"1";"1";"2014-07-21 11:22:57.801";"2014-07-21 11:40:08.663";"1";"1";"1";"153";"152";"module.training_block4.exec-9922.GoNoGo4";;;;;;;;;;;;;;;;;;;;;;;;;;;;;;;;;;;;;;;;;;;;;;;;;;;;;;;;;;;"1249";"2014-07-21 11:31:56.863";"ST_correctStop";"0";"1";"FINISHED";"NONE";"success";"0";"1";"2014-07-21 11:31:55.613";"1";;;;;;;;;;;;;;;;;;;;;
"Cardiff1703";"1968";;"Windows 7";"Rachel's Experiment (D.T.)";"1.0";"2";"1";"1";"2";"1";"1";"2014-07-21 11:22:57.801";"2014-07-21 11:40:08.663";"1";"1";"1";"154";"153";"module.training_block4.exec-9922.GoNoGo4";;;;;;;;;;;;;;;;;;;;;;;;;;;;;;;;;;;;;;;;;;;;;;;;;;;;;;;;;;;"1249";"2014-07-21 11:31:59.378";"ST_correctStop";"7";"0";"FINISHED";"NONE";"success";"0";"1";"2014-07-21 11:31:58.128";"1";;;;;;;;;;;;;;;;;;;;;
"Cardiff1703";"1968";;"Windows 7";"Rachel's Experiment (D.T.)";"1.0";"2";"1";"1";"2";"1";"1";"2014-07-21 11:22:57.801";"2014-07-21 11:40:08.663";"1";"1";"1";"155";"154";"module.training_block4.exec-9922.GoNoGo4";;;;;;;;;;;;;;;;;;;;;;;;;;;;;;;;;;;;;;;;;;;;;;;;;;;;;;;;;;;"1249";"2014-07-21 11:32:01.893";"ST_correctStop";"32";"1";"FINISHED";"NONE";"success";"0";"1";"2014-07-21 11:32:00.643";"3";;;;;;;;;;;;;;;;;;;;;
"Cardiff1703";"1968";;"Windows 7";"Rachel's Experiment (D.T.)";"1.0";"2";"1";"1";"2";"1";"1";"2014-07-21 11:22:57.801";"2014-07-21 11:40:08.663";"1";"1";"1";"156";"155";"module.training_block4.exec-9922.GoNoGo4";;;;;;;;;;;;;;;;;;;;;;;;;;;;;;;;;;;;;;;;;;;;;;;;;;;;;;;;;;;"1249";"2014-07-21 11:32:04.408";"ST_correctStop";"6";"1";"FINISHED";"NONE";"success";"0";"1";"2014-07-21 11:32:03.158";"1";;;;;;;;;;;;;;;;;;;;;
"Cardiff1703";"1968";;"Windows 7";"Rachel's Experiment (D.T.)";"1.0";"2";"1";"1";"2";"1";"1";"2014-07-21 11:22:57.801";"2014-07-21 11:40:08.663";"1";"1";"1";"157";"156";"module.training_block4.exec-9922.GoNoGo4";;;;;;;;;;;;;;;;;;;;;;;;;;;;;;;;;;;;;;;;;;;;;;;;;;;;;;;;;;;"1249";"2014-07-21 11:32:06.924";"NST_correctLoc";"14";"1";"FINISHED";"RIGHT";"success";"440";"0";"2014-07-21 11:32:05.674";"2";;;;;;;;;;;;;;;;;;;;;
"Cardiff1703";"1968";;"Windows 7";"Rachel's Experiment (D.T.)";"1.0";"2";"1";"1";"2";"1";"1";"2014-07-21 11:22:57.801";"2014-07-21 11:40:08.663";"1";"1";"1";"158";"157";"module.training_block4.exec-9922.GoNoGo4";;;;;;;;;;;;;;;;;;;;;;;;;;;;;;;;;;;;;;;;;;;;;;;;;;;;;;;;;;;"1249";"2014-07-21 11:32:09.439";"ST_correctStop";"18";"1";"FINISHED";"NONE";"success";"0";"1";"2014-07-21 11:32:08.189";"3";;;;;;;;;;;;;;;;;;;;;
"Cardiff1703";"1968";;"Windows 7";"Rachel's Experiment (D.T.)";"1.0";"2";"1";"1";"2";"1";"1";"2014-07-21 11:22:57.801";"2014-07-21 11:40:08.663";"1";"1";"1";"159";"158";"module.training_block4.exec-9922.GoNoGo4";;;;;;;;;;;;;;;;;;;;;;;;;;;;;;;;;;;;;;;;;;;;;;;;;;;;;;;;;;;"1249";"2014-07-21 11:32:11.954";"NST_correctLoc";"20";"1";"FINISHED";"RIGHT";"success";"642";"0";"2014-07-21 11:32:10.704";"3";;;;;;;;;;;;;;;;;;;;;
"Cardiff1703";"1968";;"Windows 7";"Rachel's Experiment (D.T.)";"1.0";"2";"1";"1";"2";"1";"1";"2014-07-21 11:22:57.801";"2014-07-21 11:40:08.663";"1";"1";"1";"160";"159";"module.devaluation_practice.exec-9559.devalPractice";;;;;;;;;;;;"19500";"2014-07-21 11:33:10.898";"0";"7";"6";"7";"5747";"4379";"6343";"2014-07-21 11:32:51.396";;;;;;;;;;;;;;;;;;;;;;;;;;;;;;;;;;;;;;;;;;;;;;;;;;;;;;;;;;;;;;;;;;;;;;
"Cardiff1703";"1968";;"Windows 7";"Rachel's Experiment (D.T.)";"1.0";"2";"1";"1";"2";"1";"1";"2014-07-21 11:22:57.801";"2014-07-21 11:40:08.663";"1";"1";"1";"161";"160";"module.devaluation_practice.exec-9559.devalPractice";;;;;;;;;;;;"21250";"2014-07-21 11:33:32.169";"1";"6";"3";"7";"3626";"8712";"5904";"2014-07-21 11:33:10.918";;;;;;;;;;;;;;;;;;;;;;;;;;;;;;;;;;;;;;;;;;;;;;;;;;;;;;;;;;;;;;;;;;;;;;
"Cardiff1703";"1968";;"Windows 7";"Rachel's Experiment (D.T.)";"1.0";"2";"1";"1";"2";"1";"1";"2014-07-21 11:22:57.801";"2014-07-21 11:40:08.663";"1";"1";"1";"162";"161";"module.devaluation_practice.exec-9559.devalPractice";;;;;;;;;;;;"17300";"2014-07-21 11:33:49.489";"2";"4";"1";"3";"4899";"3320";"6074";"2014-07-21 11:33:32.188";;;;;;;;;;;;;;;;;;;;;;;;;;;;;;;;;;;;;;;;;;;;;;;;;;;;;;;;;;;;;;;;;;;;;;
"Cardiff1703";"1968";;"Windows 7";"Rachel's Experiment (D.T.)";"1.0";"2";"1";"1";"2";"1";"1";"2014-07-21 11:22:57.801";"2014-07-21 11:40:08.663";"1";"1";"1";"163";"162";"module.devaluation_practice.exec-9559.devalPractice";;;;;;;;;;;;"16964";"2014-07-21 11:34:06.473";"3";"3";"2";"5";"3923";"5624";"4410";"2014-07-21 11:33:49.508";;;;;;;;;;;;;;;;;;;;;;;;;;;;;;;;;;;;;;;;;;;;;;;;;;;;;;;;;;;;;;;;;;;;;;
"Cardiff1703";"1968";;"Windows 7";"Rachel's Experiment (D.T.)";"1.0";"2";"1";"1";"2";"1";"1";"2014-07-21 11:22:57.801";"2014-07-21 11:40:08.663";"1";"1";"1";"164";"163";"module.devaluation_block1.exec-5475.deval1";"19584";"2014-07-21 11:34:32.361";"13";"8";"3";"6";"8197";"4777";"3599";"2014-07-21 11:34:12.775";"2";;;;;;;;;;;;;;;;;;;;;;;;;;;;;;;;;;;;;;;;;;;;;;;;;;;;;;;;;;;;;;;;;;;;;;;;;;;;;;;;
"Cardiff1703";"1968";;"Windows 7";"Rachel's Experiment (D.T.)";"1.0";"2";"1";"1";"2";"1";"1";"2014-07-21 11:22:57.801";"2014-07-21 11:40:08.663";"1";"1";"1";"165";"164";"module.devaluation_block1.exec-5475.deval1";"16762";"2014-07-21 11:34:49.145";"26";"8";"5";"8";"4656";"3745";"5353";"2014-07-21 11:34:32.382";"3";;;;;;;;;;;;;;;;;;;;;;;;;;;;;;;;;;;;;;;;;;;;;;;;;;;;;;;;;;;;;;;;;;;;;;;;;;;;;;;;
"Cardiff1703";"1968";;"Windows 7";"Rachel's Experiment (D.T.)";"1.0";"2";"1";"1";"2";"1";"1";"2014-07-21 11:22:57.801";"2014-07-21 11:40:08.663";"1";"1";"1";"166";"165";"module.devaluation_block1.exec-5475.deval1";"15560";"2014-07-21 11:35:04.729";"14";"6";"5";"6";"5702";"4961";"1889";"2014-07-21 11:34:49.168";"2";;;;;;;;;;;;;;;;;;;;;;;;;;;;;;;;;;;;;;;;;;;;;;;;;;;;;;;;;;;;;;;;;;;;;;;;;;;;;;;;
"Cardiff1703";"1968";;"Windows 7";"Rachel's Experiment (D.T.)";"1.0";"2";"1";"1";"2";"1";"1";"2014-07-21 11:22:57.801";"2014-07-21 11:40:08.663";"1";"1";"1";"167";"166";"module.devaluation_block1.exec-5475.deval1";"15779";"2014-07-21 11:35:20.529";"6";"6";"5";"8";"4161";"4089";"4521";"2014-07-21 11:35:04.749";"1";;;;;;;;;;;;;;;;;;;;;;;;;;;;;;;;;;;;;;;;;;;;;;;;;;;;;;;;;;;;;;;;;;;;;;;;;;;;;;;;
"Cardiff1703";"1968";;"Windows 7";"Rachel's Experiment (D.T.)";"1.0";"2";"1";"1";"2";"1";"1";"2014-07-21 11:22:57.801";"2014-07-21 11:40:08.663";"1";"1";"1";"168";"167";"module.devaluation_block1.exec-5475.deval1";"9085";"2014-07-21 11:35:29.633";"0";"6";"5";"8";"2466";"1297";"2312";"2014-07-21 11:35:20.548";"1";;;;;;;;;;;;;;;;;;;;;;;;;;;;;;;;;;;;;;;;;;;;;;;;;;;;;;;;;;;;;;;;;;;;;;;;;;;;;;;;
"Cardiff1703";"1968";;"Windows 7";"Rachel's Experiment (D.T.)";"1.0";"2";"1";"1";"2";"1";"1";"2014-07-21 11:22:57.801";"2014-07-21 11:40:08.663";"1";"1";"1";"169";"168";"module.devaluation_block1.exec-5475.deval1";"11177";"2014-07-21 11:35:40.833";"11";"7";"2";"3";"3280";"2448";"2440";"2014-07-21 11:35:29.654";"2";;;;;;;;;;;;;;;;;;;;;;;;;;;;;;;;;;;;;;;;;;;;;;;;;;;;;;;;;;;;;;;;;;;;;;;;;;;;;;;;
"Cardiff1703";"1968";;"Windows 7";"Rachel's Experiment (D.T.)";"1.0";"2";"1";"1";"2";"1";"1";"2014-07-21 11:22:57.801";"2014-07-21 11:40:08.663";"1";"1";"1";"170";"169";"module.devaluation_block1.exec-5475.deval1";"14594";"2014-07-21 11:35:55.449";"25";"8";"6";"8";"2345";"6288";"2953";"2014-07-21 11:35:40.853";"3";;;;;;;;;;;;;;;;;;;;;;;;;;;;;;;;;;;;;;;;;;;;;;;;;;;;;;;;;;;;;;;;;;;;;;;;;;;;;;;;
"Cardiff1703";"1968";;"Windows 7";"Rachel's Experiment (D.T.)";"1.0";"2";"1";"1";"2";"1";"1";"2014-07-21 11:22:57.801";"2014-07-21 11:40:08.663";"1";"1";"1";"171";"170";"module.devaluation_block1.exec-5475.deval1";"13692";"2014-07-21 11:36:09.160";"10";"5";"5";"7";"2370";"2449";"5865";"2014-07-21 11:35:55.468";"2";;;;;;;;;;;;;;;;;;;;;;;;;;;;;;;;;;;;;;;;;;;;;;;;;;;;;;;;;;;;;;;;;;;;;;;;;;;;;;;;
"Cardiff1703";"1968";;"Windows 7";"Rachel's Experiment (D.T.)";"1.0";"2";"1";"1";"2";"1";"1";"2014-07-21 11:22:57.801";"2014-07-21 11:40:08.663";"1";"1";"1";"172";"171";"module.devaluation_block1.exec-5475.deval1";"11532";"2014-07-21 11:36:20.712";"24";"8";"6";"8";"4450";"2457";"1497";"2014-07-21 11:36:09.179";"3";;;;;;;;;;;;;;;;;;;;;;;;;;;;;;;;;;;;;;;;;;;;;;;;;;;;;;;;;;;;;;;;;;;;;;;;;;;;;;;;
"Cardiff1703";"1968";;"Windows 7";"Rachel's Experiment (D.T.)";"1.0";"2";"1";"1";"2";"1";"1";"2014-07-21 11:22:57.801";"2014-07-21 11:40:08.663";"1";"1";"1";"173";"172";"module.devaluation_block1.exec-5475.deval1";"16932";"2014-07-21 11:36:37.664";"22";"7";"4";"7";"7899";"3209";"2802";"2014-07-21 11:36:20.731";"3";;;;;;;;;;;;;;;;;;;;;;;;;;;;;;;;;;;;;;;;;;;;;;;;;;;;;;;;;;;;;;;;;;;;;;;;;;;;;;;;
"Cardiff1703";"1968";;"Windows 7";"Rachel's Experiment (D.T.)";"1.0";"2";"1";"1";"2";"1";"1";"2014-07-21 11:22:57.801";"2014-07-21 11:40:08.663";"1";"1";"1";"174";"173";"module.devaluation_block1.exec-5475.deval1";"11284";"2014-07-21 11:36:48.969";"20";"8";"7";"8";"3634";"1585";"3056";"2014-07-21 11:36:37.683";"3";;;;;;;;;;;;;;;;;;;;;;;;;;;;;;;;;;;;;;;;;;;;;;;;;;;;;;;;;;;;;;;;;;;;;;;;;;;;;;;;
"Cardiff1703";"1968";;"Windows 7";"Rachel's Experiment (D.T.)";"1.0";"2";"1";"1";"2";"1";"1";"2014-07-21 11:22:57.801";"2014-07-21 11:40:08.663";"1";"1";"1";"175";"174";"module.devaluation_block1.exec-5475.deval1";"16301";"2014-07-21 11:37:05.289";"3";"6";"7";"9";"4571";"5992";"2728";"2014-07-21 11:36:48.986";"1";;;;;;;;;;;;;;;;;;;;;;;;;;;;;;;;;;;;;;;;;;;;;;;;;;;;;;;;;;;;;;;;;;;;;;;;;;;;;;;;
"Cardiff1703";"1968";;"Windows 7";"Rachel's Experiment (D.T.)";"1.0";"2";"1";"1";"2";"1";"1";"2014-07-21 11:22:57.801";"2014-07-21 11:40:08.663";"1";"1";"1";"176";"175";"module.devaluation_block1.exec-5475.deval1";"16291";"2014-07-21 11:37:21.601";"17";"8";"5";"4";"5241";"5913";"2128";"2014-07-21 11:37:05.308";"2";;;;;;;;;;;;;;;;;;;;;;;;;;;;;;;;;;;;;;;;;;;;;;;;;;;;;;;;;;;;;;;;;;;;;;;;;;;;;;;;
"Cardiff1703";"1968";;"Windows 7";"Rachel's Experiment (D.T.)";"1.0";"2";"1";"1";"2";"1";"1";"2014-07-21 11:22:57.801";"2014-07-21 11:40:08.663";"1";"1";"1";"177";"176";"module.devaluation_block1.exec-5475.deval1";"12420";"2014-07-21 11:37:34.040";"12";"5";"2";"7";"2355";"3233";"3824";"2014-07-21 11:37:21.619";"2";;;;;;;;;;;;;;;;;;;;;;;;;;;;;;;;;;;;;;;;;;;;;;;;;;;;;;;;;;;;;;;;;;;;;;;;;;;;;;;;
"Cardiff1703";"1968";;"Windows 7";"Rachel's Experiment (D.T.)";"1.0";"2";"1";"1";"2";"1";"1";"2014-07-21 11:22:57.801";"2014-07-21 11:40:08.663";"1";"1";"1";"178";"177";"module.devaluation_block1.exec-5475.deval1";"18416";"2014-07-21 11:37:52.480";"5";"8";"7";"9";"5215";"7592";"2600";"2014-07-21 11:37:34.062";"1";;;;;;;;;;;;;;;;;;;;;;;;;;;;;;;;;;;;;;;;;;;;;;;;;;;;;;;;;;;;;;;;;;;;;;;;;;;;;;;;
"Cardiff1703";"1968";;"Windows 7";"Rachel's Experiment (D.T.)";"1.0";"2";"1";"1";"2";"1";"1";"2014-07-21 11:22:57.801";"2014-07-21 11:40:08.663";"1";"1";"1";"179";"178";"module.devaluation_block1.exec-5475.deval1";"17699";"2014-07-21 11:38:10.199";"21";"7";"5";"7";"11705";"1753";"1233";"2014-07-21 11:37:52.499";"3";;;;;;;;;;;;;;;;;;;;;;;;;;;;;;;;;;;;;;;;;;;;;;;;;;;;;;;;;;;;;;;;;;;;;;;;;;;;;;;;
"Cardiff1703";"1968";;"Windows 7";"Rachel's Experiment (D.T.)";"1.0";"2";"1";"1";"2";"1";"1";"2014-07-21 11:22:57.801";"2014-07-21 11:40:08.663";"1";"1";"1";"180";"179";"module.devaluation_block1.exec-5475.deval1";"13726";"2014-07-21 11:38:23.952";"23";"8";"3";"7";"1949";"5849";"2921";"2014-07-21 11:38:10.224";"3";;;;;;;;;;;;;;;;;;;;;;;;;;;;;;;;;;;;;;;;;;;;;;;;;;;;;;;;;;;;;;;;;;;;;;;;;;;;;;;;
"Cardiff1703";"1968";;"Windows 7";"Rachel's Experiment (D.T.)";"1.0";"2";"1";"1";"2";"1";"1";"2014-07-21 11:22:57.801";"2014-07-21 11:40:08.663";"1";"1";"1";"181";"180";"module.devaluation_block1.exec-5475.deval1";"8940";"2014-07-21 11:38:32.912";"9";"5";"3";"5";"3058";"1744";"1129";"2014-07-21 11:38:23.971";"2";;;;;;;;;;;;;;;;;;;;;;;;;;;;;;;;;;;;;;;;;;;;;;;;;;;;;;;;;;;;;;;;;;;;;;;;;;;;;;;;
"Cardiff1703";"1968";;"Windows 7";"Rachel's Experiment (D.T.)";"1.0";"2";"1";"1";"2";"1";"1";"2014-07-21 11:22:57.801";"2014-07-21 11:40:08.663";"1";"1";"1";"182";"181";"module.devaluation_block1.exec-5475.deval1";"14212";"2014-07-21 11:38:47.143";"7";"7";"6";"7";"6155";"2424";"2625";"2014-07-21 11:38:32.930";"1";;;;;;;;;;;;;;;;;;;;;;;;;;;;;;;;;;;;;;;;;;;;;;;;;;;;;;;;;;;;;;;;;;;;;;;;;;;;;;;;
"Cardiff1703";"1968";;"Windows 7";"Rachel's Experiment (D.T.)";"1.0";"2";"1";"1";"2";"1";"1";"2014-07-21 11:22:57.801";"2014-07-21 11:40:08.663";"1";"1";"1";"183";"182";"module.devaluation_block1.exec-5475.deval1";"7853";"2014-07-21 11:38:55.016";"8";"7";"7";"8";"1595";"1985";"1265";"2014-07-21 11:38:47.161";"1";;;;;;;;;;;;;;;;;;;;;;;;;;;;;;;;;;;;;;;;;;;;;;;;;;;;;;;;;;;;;;;;;;;;;;;;;;;;;;;;
"Cardiff1703";"1968";;"Windows 7";"Rachel's Experiment (D.T.)";"1.0";"2";"1";"1";"2";"1";"1";"2014-07-21 11:22:57.801";"2014-07-21 11:40:08.663";"1";"1";"1";"184";"183";"module.devaluation_block1.exec-5475.deval1";"9546";"2014-07-21 11:39:04.583";"16";"5";"5";"6";"1873";"1337";"3328";"2014-07-21 11:38:55.036";"2";;;;;;;;;;;;;;;;;;;;;;;;;;;;;;;;;;;;;;;;;;;;;;;;;;;;;;;;;;;;;;;;;;;;;;;;;;;;;;;;
"Cardiff1703";"1968";;"Windows 7";"Rachel's Experiment (D.T.)";"1.0";"2";"1";"1";"2";"1";"1";"2014-07-21 11:22:57.801";"2014-07-21 11:40:08.663";"1";"1";"1";"185";"184";"module.devaluation_block1.exec-5475.deval1";"9141";"2014-07-21 11:39:13.743";"2";"8";"8";"8";"2228";"2033";"1873";"2014-07-21 11:39:04.600";"1";;;;;;;;;;;;;;;;;;;;;;;;;;;;;;;;;;;;;;;;;;;;;;;;;;;;;;;;;;;;;;;;;;;;;;;;;;;;;;;;
"Cardiff1703";"1968";;"Windows 7";"Rachel's Experiment (D.T.)";"1.0";"2";"1";"1";"2";"1";"1";"2014-07-21 11:22:57.801";"2014-07-21 11:40:08.663";"1";"1";"1";"186";"185";"module.devaluation_block1.exec-5475.deval1";"12004";"2014-07-21 11:39:25.768";"19";"9";"8";"8";"3482";"1738";"3777";"2014-07-21 11:39:13.762";"3";;;;;;;;;;;;;;;;;;;;;;;;;;;;;;;;;;;;;;;;;;;;;;;;;;;;;;;;;;;;;;;;;;;;;;;;;;;;;;;;
"Cardiff1703";"1968";;"Windows 7";"Rachel's Experiment (D.T.)";"1.0";"2";"1";"1";"2";"1";"1";"2014-07-21 11:22:57.801";"2014-07-21 11:40:08.663";"1";"1";"1";"187";"186";"module.devaluation_block1.exec-5475.deval1";"9299";"2014-07-21 11:39:35.087";"4";"8";"7";"8";"2433";"2272";"1585";"2014-07-21 11:39:25.788";"1";;;;;;;;;;;;;;;;;;;;;;;;;;;;;;;;;;;;;;;;;;;;;;;;;;;;;;;;;;;;;;;;;;;;;;;;;;;;;;;;
"Cardiff1703";"1968";;"Windows 7";"Rachel's Experiment (D.T.)";"1.0";"2";"1";"1";"2";"1";"1";"2014-07-21 11:22:57.801";"2014-07-21 11:40:08.663";"1";"1";"1";"188";"187";"module.devaluation_block1.exec-5475.deval1";"10868";"2014-07-21 11:39:45.975";"15";"5";"4";"5";"2170";"2521";"3169";"2014-07-21 11:39:35.106";"2";;;;;;;;;;;;;;;;;;;;;;;;;;;;;;;;;;;;;;;;;;;;;;;;;;;;;;;;;;;;;;;;;;;;;;;;;;;;;;;;
"Cardiff1703";"1968";;"Windows 7";"Rachel's Experiment (D.T.)";"1.0";"2";"1";"1";"2";"1";"1";"2014-07-21 11:22:57.801";"2014-07-21 11:40:08.663";"1";"1";"1";"189";"188";"module.devaluation_block1.exec-5475.deval1";"11933";"2014-07-21 11:39:57.928";"1";"7";"7";"8";"4556";"1993";"2376";"2014-07-21 11:39:45.993";"1";;;;;;;;;;;;;;;;;;;;;;;;;;;;;;;;;;;;;;;;;;;;;;;;;;;;;;;;;;;;;;;;;;;;;;;;;;;;;;;;
"Cardiff1703";"1968";;"Windows 7";"Rachel's Experiment (D.T.)";"1.0";"2";"1";"1";"2";"1";"1";"2014-07-21 11:22:57.801";"2014-07-21 11:40:08.663";"1";"1";"1";"190";"189";"module.devaluation_block1.exec-5475.deval1";"8057";"2014-07-21 11:40:06.007";"18";"9";"9";"9";"1831";"1721";"1497";"2014-07-21 11:39:57.950";"3";;;;;;;;;;;;;;;;;;;;;;;;;;;;;;;;;;;;;;;;;;;;;;;;;;;;;;;;;;;;;;;;;;;;;;;;;;;;;;;;
