"user.name";"user.yearOfBirth";"user.sex";"user.osName";"module.name";"module.version";"module.online.subject.code";"module.online.study.id";"module.online.module.nr";"module.online.group.nr";"session.id";"session.index";"session.startTime";"session.endTime";"session.completed";"session.node-1302.DevalQorder";"session.node-4839.conditionType";"trial.id";"trial.index";"trial.name";"trial.deval1.durationTime";"trial.deval1.endTime";"trial.deval1.icon";"trial.deval1.Resp_Attractive";"trial.deval1.Resp_Eat";"trial.deval1.Resp_Taste";"trial.deval1.RT_Attractive";"trial.deval1.RT_Eat";"trial.deval1.RT_Taste";"trial.deval1.startTime";"trial.deval1.stimulus type";"trial.devalPractice.durationTime";"trial.devalPractice.endTime";"trial.devalPractice.icon";"trial.devalPractice.Resp_Attractive";"trial.devalPractice.Resp_Eat";"trial.devalPractice.Resp_Taste";"trial.devalPractice.RT_Attractive";"trial.devalPractice.RT_Eat";"trial.devalPractice.RT_Taste";"trial.devalPractice.startTime";"trial.devalPractice.stimulus type";"trial.GoNoGo1.durationTime";"trial.GoNoGo1.endTime";"trial.GoNoGo1.Error Type";"trial.GoNoGo1.icon";"trial.GoNoGo1.location";"trial.GoNoGo1.outcome";"trial.GoNoGo1.response";"trial.GoNoGo1.result";"trial.GoNoGo1.RT";"trial.GoNoGo1.signal";"trial.GoNoGo1.startTime";"trial.GoNoGo1.stimulus type";"trial.GoNoGo2.durationTime";"trial.GoNoGo2.endTime";"trial.GoNoGo2.Error Type";"trial.GoNoGo2.icon";"trial.GoNoGo2.location";"trial.GoNoGo2.outcome";"trial.GoNoGo2.response";"trial.GoNoGo2.result";"trial.GoNoGo2.RT";"trial.GoNoGo2.signal";"trial.GoNoGo2.startTime";"trial.GoNoGo2.stimulus type";"trial.GoNoGo3.durationTime";"trial.GoNoGo3.endTime";"trial.GoNoGo3.Error Type";"trial.GoNoGo3.icon";"trial.GoNoGo3.location";"trial.GoNoGo3.outcome";"trial.GoNoGo3.response";"trial.GoNoGo3.result";"trial.GoNoGo3.RT";"trial.GoNoGo3.signal";"trial.GoNoGo3.startTime";"trial.GoNoGo3.stimulus type";"trial.GoNoGo4.durationTime";"trial.GoNoGo4.endTime";"trial.GoNoGo4.Error Type";"trial.GoNoGo4.icon";"trial.GoNoGo4.location";"trial.GoNoGo4.outcome";"trial.GoNoGo4.response";"trial.GoNoGo4.result";"trial.GoNoGo4.RT";"trial.GoNoGo4.signal";"trial.GoNoGo4.startTime";"trial.GoNoGo4.stimulus type";"trial.GoNoGo_Practice.durationTime";"trial.GoNoGo_Practice.endTime";"trial.GoNoGo_Practice.icon";"trial.GoNoGo_Practice.location";"trial.GoNoGo_Practice.outcome";"trial.GoNoGo_Practice.response";"trial.GoNoGo_Practice.result";"trial.GoNoGo_Practice.RT";"trial.GoNoGo_Practice.signal";"trial.GoNoGo_Practice.startTime";"trial.GoNoGo_Practice.stimulus type";"trial.GoNoGo_Tutorial.durationTime";"trial.GoNoGo_Tutorial.endTime";"trial.GoNoGo_Tutorial.icon";"trial.GoNoGo_Tutorial.location";"trial.GoNoGo_Tutorial.outcome";"trial.GoNoGo_Tutorial.response";"trial.GoNoGo_Tutorial.result";"trial.GoNoGo_Tutorial.RT";"trial.GoNoGo_Tutorial.signal";"trial.GoNoGo_Tutorial.startTime"
"ect9128";"1991";;"Windows 7";"Rachel's Experiment (D.T.)";"1.0";"2";"1";"1";"2";"1";"1";"2014-09-10 09:14:29.404";"2014-09-10 09:27:33.033";"1";"0";"1";"1";"0";"module.GoNoGotutorial.exec-1294.GoNoGo_Tutorial";;;;;;;;;;;;;;;;;;;;;;;;;;;;;;;;;;;;;;;;;;;;;;;;;;;;;;;;;;;;;;;;;;;;;;;;;;;;;;;;;;"4000";"2014-09-10 09:15:05.195";"leftResponse";"0";"FINISHED";"LEFT";"success";"1028";"0";"2014-09-10 09:15:01.194"
"ect9128";"1991";;"Windows 7";"Rachel's Experiment (D.T.)";"1.0";"2";"1";"1";"2";"1";"1";"2014-09-10 09:14:29.404";"2014-09-10 09:27:33.033";"1";"0";"1";"2";"1";"module.GoNoGotutorial.exec-1294.GoNoGo_Tutorial";;;;;;;;;;;;;;;;;;;;;;;;;;;;;;;;;;;;;;;;;;;;;;;;;;;;;;;;;;;;;;;;;;;;;;;;;;;;;;;;;;"4000";"2014-09-10 09:15:10.516";"rightResponse";"1";"FINISHED";"NONE";"failure";"0";"0";"2014-09-10 09:15:06.516"
"ect9128";"1991";;"Windows 7";"Rachel's Experiment (D.T.)";"1.0";"2";"1";"1";"2";"1";"1";"2014-09-10 09:14:29.404";"2014-09-10 09:27:33.033";"1";"0";"1";"3";"2";"module.GoNoGotutorial.exec-1294.GoNoGo_Tutorial";;;;;;;;;;;;;;;;;;;;;;;;;;;;;;;;;;;;;;;;;;;;;;;;;;;;;;;;;;;;;;;;;;;;;;;;;;;;;;;;;;"4000";"2014-09-10 09:15:15.826";"signalResponse";"0";"FINISHED";"NONE";"success";"0";"1";"2014-09-10 09:15:11.825"
"ect9128";"1991";;"Windows 7";"Rachel's Experiment (D.T.)";"1.0";"2";"1";"1";"2";"1";"1";"2014-09-10 09:14:29.404";"2014-09-10 09:27:33.033";"1";"0";"1";"4";"3";"module.GoNoGopractice.exec-1827.GoNoGo_Practice";;;;;;;;;;;;;;;;;;;;;;;;;;;;;;;;;;;;;;;;;;;;;;;;;;;;;;;;;;;;;;;;;;;;;;;"1959";"2014-09-10 09:15:23.214";"18";"0";"FINISHED";"LEFT";"success";"641";"0";"2014-09-10 09:15:21.255";"3";;;;;;;;;;
"ect9128";"1991";;"Windows 7";"Rachel's Experiment (D.T.)";"1.0";"2";"1";"1";"2";"1";"1";"2014-09-10 09:14:29.404";"2014-09-10 09:27:33.033";"1";"0";"1";"5";"4";"module.GoNoGopractice.exec-1827.GoNoGo_Practice";;;;;;;;;;;;;;;;;;;;;;;;;;;;;;;;;;;;;;;;;;;;;;;;;;;;;;;;;;;;;;;;;;;;;;;"1950";"2014-09-10 09:15:26.470";"21";"1";"FINISHED";"RIGHT";"success";"502";"0";"2014-09-10 09:15:24.519";"3";;;;;;;;;;
"ect9128";"1991";;"Windows 7";"Rachel's Experiment (D.T.)";"1.0";"2";"1";"1";"2";"1";"1";"2014-09-10 09:14:29.404";"2014-09-10 09:27:33.033";"1";"0";"1";"6";"5";"module.GoNoGopractice.exec-1827.GoNoGo_Practice";;;;;;;;;;;;;;;;;;;;;;;;;;;;;;;;;;;;;;;;;;;;;;;;;;;;;;;;;;;;;;;;;;;;;;;"1959";"2014-09-10 09:15:29.733";"14";"1";"FINISHED";"RIGHT";"failure";"642";"1";"2014-09-10 09:15:27.773";"2";;;;;;;;;;
"ect9128";"1991";;"Windows 7";"Rachel's Experiment (D.T.)";"1.0";"2";"1";"1";"2";"1";"1";"2014-09-10 09:14:29.404";"2014-09-10 09:27:33.033";"1";"0";"1";"7";"6";"module.GoNoGopractice.exec-1827.GoNoGo_Practice";;;;;;;;;;;;;;;;;;;;;;;;;;;;;;;;;;;;;;;;;;;;;;;;;;;;;;;;;;;;;;;;;;;;;;;"1951";"2014-09-10 09:15:32.993";"26";"0";"FINISHED";"LEFT";"success";"631";"0";"2014-09-10 09:15:31.041";"3";;;;;;;;;;
"ect9128";"1991";;"Windows 7";"Rachel's Experiment (D.T.)";"1.0";"2";"1";"1";"2";"1";"1";"2014-09-10 09:14:29.404";"2014-09-10 09:27:33.033";"1";"0";"1";"8";"7";"module.GoNoGopractice.exec-1827.GoNoGo_Practice";;;;;;;;;;;;;;;;;;;;;;;;;;;;;;;;;;;;;;;;;;;;;;;;;;;;;;;;;;;;;;;;;;;;;;;"1950";"2014-09-10 09:15:36.251";"2";"0";"FINISHED";"LEFT";"success";"563";"0";"2014-09-10 09:15:34.300";"1";;;;;;;;;;
"ect9128";"1991";;"Windows 7";"Rachel's Experiment (D.T.)";"1.0";"2";"1";"1";"2";"1";"1";"2014-09-10 09:14:29.404";"2014-09-10 09:27:33.033";"1";"0";"1";"9";"8";"module.GoNoGopractice.exec-1827.GoNoGo_Practice";;;;;;;;;;;;;;;;;;;;;;;;;;;;;;;;;;;;;;;;;;;;;;;;;;;;;;;;;;;;;;;;;;;;;;;"1957";"2014-09-10 09:15:39.521";"30";"0";"FINISHED";"NONE";"success";"0";"1";"2014-09-10 09:15:37.564";"3";;;;;;;;;;
"ect9128";"1991";;"Windows 7";"Rachel's Experiment (D.T.)";"1.0";"2";"1";"1";"2";"1";"1";"2014-09-10 09:14:29.404";"2014-09-10 09:27:33.033";"1";"0";"1";"10";"9";"module.GoNoGopractice.exec-1827.GoNoGo_Practice";;;;;;;;;;;;;;;;;;;;;;;;;;;;;;;;;;;;;;;;;;;;;;;;;;;;;;;;;;;;;;;;;;;;;;;"1950";"2014-09-10 09:15:42.774";"6";"1";"FINISHED";"NONE";"success";"0";"1";"2014-09-10 09:15:40.823";"1";;;;;;;;;;
"ect9128";"1991";;"Windows 7";"Rachel's Experiment (D.T.)";"1.0";"2";"1";"1";"2";"1";"1";"2014-09-10 09:14:29.404";"2014-09-10 09:27:33.033";"1";"0";"1";"11";"10";"module.GoNoGopractice.exec-1827.GoNoGo_Practice";;;;;;;;;;;;;;;;;;;;;;;;;;;;;;;;;;;;;;;;;;;;;;;;;;;;;;;;;;;;;;;;;;;;;;;"1950";"2014-09-10 09:15:46.026";"34";"0";"FINISHED";"LEFT";"success";"801";"0";"2014-09-10 09:15:44.075";"3";;;;;;;;;;
"ect9128";"1991";;"Windows 7";"Rachel's Experiment (D.T.)";"1.0";"2";"1";"1";"2";"1";"1";"2014-09-10 09:14:29.404";"2014-09-10 09:27:33.033";"1";"0";"1";"12";"11";"module.GoNoGopractice.exec-1827.GoNoGo_Practice";;;;;;;;;;;;;;;;;;;;;;;;;;;;;;;;;;;;;;;;;;;;;;;;;;;;;;;;;;;;;;;;;;;;;;;"1951";"2014-09-10 09:15:49.281";"23";"1";"FINISHED";"RIGHT";"success";"645";"0";"2014-09-10 09:15:47.329";"3";;;;;;;;;;
"ect9128";"1991";;"Windows 7";"Rachel's Experiment (D.T.)";"1.0";"2";"1";"1";"2";"1";"1";"2014-09-10 09:14:29.404";"2014-09-10 09:27:33.033";"1";"0";"1";"13";"12";"module.GoNoGopractice.exec-1827.GoNoGo_Practice";;;;;;;;;;;;;;;;;;;;;;;;;;;;;;;;;;;;;;;;;;;;;;;;;;;;;;;;;;;;;;;;;;;;;;;"1950";"2014-09-10 09:15:52.531";"13";"0";"FINISHED";"NONE";"success";"0";"1";"2014-09-10 09:15:50.580";"2";;;;;;;;;;
"ect9128";"1991";;"Windows 7";"Rachel's Experiment (D.T.)";"1.0";"2";"1";"1";"2";"1";"1";"2014-09-10 09:14:29.404";"2014-09-10 09:27:33.033";"1";"0";"1";"14";"13";"module.GoNoGopractice.exec-1827.GoNoGo_Practice";;;;;;;;;;;;;;;;;;;;;;;;;;;;;;;;;;;;;;;;;;;;;;;;;;;;;;;;;;;;;;;;;;;;;;;"1950";"2014-09-10 09:15:55.779";"3";"1";"FINISHED";"RIGHT";"success";"538";"0";"2014-09-10 09:15:53.828";"1";;;;;;;;;;
"ect9128";"1991";;"Windows 7";"Rachel's Experiment (D.T.)";"1.0";"2";"1";"1";"2";"1";"1";"2014-09-10 09:14:29.404";"2014-09-10 09:27:33.033";"1";"0";"1";"15";"14";"module.GoNoGopractice.exec-1827.GoNoGo_Practice";;;;;;;;;;;;;;;;;;;;;;;;;;;;;;;;;;;;;;;;;;;;;;;;;;;;;;;;;;;;;;;;;;;;;;;"1951";"2014-09-10 09:15:59.033";"27";"1";"FINISHED";"NONE";"success";"0";"1";"2014-09-10 09:15:57.082";"3";;;;;;;;;;
"ect9128";"1991";;"Windows 7";"Rachel's Experiment (D.T.)";"1.0";"2";"1";"1";"2";"1";"1";"2014-09-10 09:14:29.404";"2014-09-10 09:27:33.033";"1";"0";"1";"16";"15";"module.training_block1.exec-5913.GoNoGo1";;;;;;;;;;;;;;;;;;;;;;;"1250";"2014-09-10 09:16:06.463";"ST_correctStop";"25";"1";"FINISHED";"NONE";"success";"0";"1";"2014-09-10 09:16:05.212";"3";;;;;;;;;;;;;;;;;;;;;;;;;;;;;;;;;;;;;;;;;;;;;;;;;;;;;;;;;
"ect9128";"1991";;"Windows 7";"Rachel's Experiment (D.T.)";"1.0";"2";"1";"1";"2";"1";"1";"2014-09-10 09:14:29.404";"2014-09-10 09:27:33.033";"1";"0";"1";"17";"16";"module.training_block1.exec-5913.GoNoGo1";;;;;;;;;;;;;;;;;;;;;;;"1250";"2014-09-10 09:16:09.014";"NST_correctLoc";"28";"1";"FINISHED";"RIGHT";"success";"605";"0";"2014-09-10 09:16:07.764";"3";;;;;;;;;;;;;;;;;;;;;;;;;;;;;;;;;;;;;;;;;;;;;;;;;;;;;;;;;
"ect9128";"1991";;"Windows 7";"Rachel's Experiment (D.T.)";"1.0";"2";"1";"1";"2";"1";"1";"2014-09-10 09:14:29.404";"2014-09-10 09:27:33.033";"1";"0";"1";"18";"17";"module.training_block1.exec-5913.GoNoGo1";;;;;;;;;;;;;;;;;;;;;;;"1250";"2014-09-10 09:16:11.554";"ST_correctStop";"2";"0";"FINISHED";"NONE";"success";"0";"1";"2014-09-10 09:16:10.304";"1";;;;;;;;;;;;;;;;;;;;;;;;;;;;;;;;;;;;;;;;;;;;;;;;;;;;;;;;;
"ect9128";"1991";;"Windows 7";"Rachel's Experiment (D.T.)";"1.0";"2";"1";"1";"2";"1";"1";"2014-09-10 09:14:29.404";"2014-09-10 09:27:33.033";"1";"0";"1";"19";"18";"module.training_block1.exec-5913.GoNoGo1";;;;;;;;;;;;;;;;;;;;;;;"1250";"2014-09-10 09:16:14.118";"ST_correctStop";"8";"1";"FINISHED";"NONE";"success";"0";"1";"2014-09-10 09:16:12.868";"1";;;;;;;;;;;;;;;;;;;;;;;;;;;;;;;;;;;;;;;;;;;;;;;;;;;;;;;;;
"ect9128";"1991";;"Windows 7";"Rachel's Experiment (D.T.)";"1.0";"2";"1";"1";"2";"1";"1";"2014-09-10 09:14:29.404";"2014-09-10 09:27:33.033";"1";"0";"1";"20";"19";"module.training_block1.exec-5913.GoNoGo1";;;;;;;;;;;;;;;;;;;;;;;"1249";"2014-09-10 09:16:16.669";"ST_correctStop";"33";"1";"FINISHED";"NONE";"success";"0";"1";"2014-09-10 09:16:15.419";"3";;;;;;;;;;;;;;;;;;;;;;;;;;;;;;;;;;;;;;;;;;;;;;;;;;;;;;;;;
"ect9128";"1991";;"Windows 7";"Rachel's Experiment (D.T.)";"1.0";"2";"1";"1";"2";"1";"1";"2014-09-10 09:14:29.404";"2014-09-10 09:27:33.033";"1";"0";"1";"21";"20";"module.training_block1.exec-5913.GoNoGo1";;;;;;;;;;;;;;;;;;;;;;;"1250";"2014-09-10 09:16:19.213";"NST_correctLoc";"30";"1";"FINISHED";"RIGHT";"success";"443";"0";"2014-09-10 09:16:17.962";"3";;;;;;;;;;;;;;;;;;;;;;;;;;;;;;;;;;;;;;;;;;;;;;;;;;;;;;;;;
"ect9128";"1991";;"Windows 7";"Rachel's Experiment (D.T.)";"1.0";"2";"1";"1";"2";"1";"1";"2014-09-10 09:14:29.404";"2014-09-10 09:27:33.033";"1";"0";"1";"22";"21";"module.training_block1.exec-5913.GoNoGo1";;;;;;;;;;;;;;;;;;;;;;;"1249";"2014-09-10 09:16:21.758";"ST_correctStop";"32";"0";"FINISHED";"NONE";"success";"0";"1";"2014-09-10 09:16:20.508";"3";;;;;;;;;;;;;;;;;;;;;;;;;;;;;;;;;;;;;;;;;;;;;;;;;;;;;;;;;
"ect9128";"1991";;"Windows 7";"Rachel's Experiment (D.T.)";"1.0";"2";"1";"1";"2";"1";"1";"2014-09-10 09:14:29.404";"2014-09-10 09:27:33.033";"1";"0";"1";"23";"22";"module.training_block1.exec-5913.GoNoGo1";;;;;;;;;;;;;;;;;;;;;;;"1249";"2014-09-10 09:16:24.308";"ST_correctStop";"0";"1";"FINISHED";"NONE";"success";"0";"1";"2014-09-10 09:16:23.057";"1";;;;;;;;;;;;;;;;;;;;;;;;;;;;;;;;;;;;;;;;;;;;;;;;;;;;;;;;;
"ect9128";"1991";;"Windows 7";"Rachel's Experiment (D.T.)";"1.0";"2";"1";"1";"2";"1";"1";"2014-09-10 09:14:29.404";"2014-09-10 09:27:33.033";"1";"0";"1";"24";"23";"module.training_block1.exec-5913.GoNoGo1";;;;;;;;;;;;;;;;;;;;;;;"1249";"2014-09-10 09:16:26.847";"NST_correctLoc";"24";"0";"FINISHED";"LEFT";"success";"525";"0";"2014-09-10 09:16:25.597";"3";;;;;;;;;;;;;;;;;;;;;;;;;;;;;;;;;;;;;;;;;;;;;;;;;;;;;;;;;
"ect9128";"1991";;"Windows 7";"Rachel's Experiment (D.T.)";"1.0";"2";"1";"1";"2";"1";"1";"2014-09-10 09:14:29.404";"2014-09-10 09:27:33.033";"1";"0";"1";"25";"24";"module.training_block1.exec-5913.GoNoGo1";;;;;;;;;;;;;;;;;;;;;;;"1249";"2014-09-10 09:16:29.394";"ST_correctStop";"4";"1";"FINISHED";"NONE";"success";"0";"1";"2014-09-10 09:16:28.144";"1";;;;;;;;;;;;;;;;;;;;;;;;;;;;;;;;;;;;;;;;;;;;;;;;;;;;;;;;;
"ect9128";"1991";;"Windows 7";"Rachel's Experiment (D.T.)";"1.0";"2";"1";"1";"2";"1";"1";"2014-09-10 09:14:29.404";"2014-09-10 09:27:33.033";"1";"0";"1";"26";"25";"module.training_block1.exec-5913.GoNoGo1";;;;;;;;;;;;;;;;;;;;;;;"1249";"2014-09-10 09:16:31.934";"ST_correctStop";"6";"1";"FINISHED";"NONE";"success";"0";"1";"2014-09-10 09:16:30.684";"1";;;;;;;;;;;;;;;;;;;;;;;;;;;;;;;;;;;;;;;;;;;;;;;;;;;;;;;;;
"ect9128";"1991";;"Windows 7";"Rachel's Experiment (D.T.)";"1.0";"2";"1";"1";"2";"1";"1";"2014-09-10 09:14:29.404";"2014-09-10 09:27:33.033";"1";"0";"1";"27";"26";"module.training_block1.exec-5913.GoNoGo1";;;;;;;;;;;;;;;;;;;;;;;"1249";"2014-09-10 09:16:34.480";"NST_correctLoc";"11";"1";"FINISHED";"RIGHT";"success";"589";"0";"2014-09-10 09:16:33.230";"2";;;;;;;;;;;;;;;;;;;;;;;;;;;;;;;;;;;;;;;;;;;;;;;;;;;;;;;;;
"ect9128";"1991";;"Windows 7";"Rachel's Experiment (D.T.)";"1.0";"2";"1";"1";"2";"1";"1";"2014-09-10 09:14:29.404";"2014-09-10 09:27:33.033";"1";"0";"1";"28";"27";"module.training_block1.exec-5913.GoNoGo1";;;;;;;;;;;;;;;;;;;;;;;"1250";"2014-09-10 09:16:37.029";"NST_correctLoc";"12";"0";"FINISHED";"LEFT";"success";"579";"0";"2014-09-10 09:16:35.779";"2";;;;;;;;;;;;;;;;;;;;;;;;;;;;;;;;;;;;;;;;;;;;;;;;;;;;;;;;;
"ect9128";"1991";;"Windows 7";"Rachel's Experiment (D.T.)";"1.0";"2";"1";"1";"2";"1";"1";"2014-09-10 09:14:29.404";"2014-09-10 09:27:33.033";"1";"0";"1";"29";"28";"module.training_block1.exec-5913.GoNoGo1";;;;;;;;;;;;;;;;;;;;;;;"1249";"2014-09-10 09:16:39.572";"ST_correctStop";"31";"1";"FINISHED";"NONE";"success";"0";"1";"2014-09-10 09:16:38.322";"3";;;;;;;;;;;;;;;;;;;;;;;;;;;;;;;;;;;;;;;;;;;;;;;;;;;;;;;;;
"ect9128";"1991";;"Windows 7";"Rachel's Experiment (D.T.)";"1.0";"2";"1";"1";"2";"1";"1";"2014-09-10 09:14:29.404";"2014-09-10 09:27:33.033";"1";"0";"1";"30";"29";"module.training_block1.exec-5913.GoNoGo1";;;;;;;;;;;;;;;;;;;;;;;"1250";"2014-09-10 09:16:42.122";"ST_correctStop";"7";"0";"FINISHED";"NONE";"success";"0";"1";"2014-09-10 09:16:40.871";"1";;;;;;;;;;;;;;;;;;;;;;;;;;;;;;;;;;;;;;;;;;;;;;;;;;;;;;;;;
"ect9128";"1991";;"Windows 7";"Rachel's Experiment (D.T.)";"1.0";"2";"1";"1";"2";"1";"1";"2014-09-10 09:14:29.404";"2014-09-10 09:27:33.033";"1";"0";"1";"31";"30";"module.training_block1.exec-5913.GoNoGo1";;;;;;;;;;;;;;;;;;;;;;;"1249";"2014-09-10 09:16:44.663";"ST_correctStop";"1";"1";"FINISHED";"NONE";"success";"0";"1";"2014-09-10 09:16:43.413";"1";;;;;;;;;;;;;;;;;;;;;;;;;;;;;;;;;;;;;;;;;;;;;;;;;;;;;;;;;
"ect9128";"1991";;"Windows 7";"Rachel's Experiment (D.T.)";"1.0";"2";"1";"1";"2";"1";"1";"2014-09-10 09:14:29.404";"2014-09-10 09:27:33.033";"1";"0";"1";"32";"31";"module.training_block1.exec-5913.GoNoGo1";;;;;;;;;;;;;;;;;;;;;;;"1249";"2014-09-10 09:16:47.211";"NST_correctLoc";"18";"0";"FINISHED";"LEFT";"success";"538";"0";"2014-09-10 09:16:45.961";"3";;;;;;;;;;;;;;;;;;;;;;;;;;;;;;;;;;;;;;;;;;;;;;;;;;;;;;;;;
"ect9128";"1991";;"Windows 7";"Rachel's Experiment (D.T.)";"1.0";"2";"1";"1";"2";"1";"1";"2014-09-10 09:14:29.404";"2014-09-10 09:27:33.033";"1";"0";"1";"33";"32";"module.training_block1.exec-5913.GoNoGo1";;;;;;;;;;;;;;;;;;;;;;;"1249";"2014-09-10 09:16:49.749";"ST_correctStop";"34";"0";"FINISHED";"NONE";"success";"0";"1";"2014-09-10 09:16:48.499";"3";;;;;;;;;;;;;;;;;;;;;;;;;;;;;;;;;;;;;;;;;;;;;;;;;;;;;;;;;
"ect9128";"1991";;"Windows 7";"Rachel's Experiment (D.T.)";"1.0";"2";"1";"1";"2";"1";"1";"2014-09-10 09:14:29.404";"2014-09-10 09:27:33.033";"1";"0";"1";"34";"33";"module.training_block1.exec-5913.GoNoGo1";;;;;;;;;;;;;;;;;;;;;;;"1250";"2014-09-10 09:16:52.288";"NST_correctLoc";"14";"1";"FINISHED";"RIGHT";"success";"649";"0";"2014-09-10 09:16:51.038";"2";;;;;;;;;;;;;;;;;;;;;;;;;;;;;;;;;;;;;;;;;;;;;;;;;;;;;;;;;
"ect9128";"1991";;"Windows 7";"Rachel's Experiment (D.T.)";"1.0";"2";"1";"1";"2";"1";"1";"2014-09-10 09:14:29.404";"2014-09-10 09:27:33.033";"1";"0";"1";"35";"34";"module.training_block1.exec-5913.GoNoGo1";;;;;;;;;;;;;;;;;;;;;;;"1250";"2014-09-10 09:16:54.835";"NST_correctLoc";"29";"0";"FINISHED";"LEFT";"success";"583";"0";"2014-09-10 09:16:53.585";"3";;;;;;;;;;;;;;;;;;;;;;;;;;;;;;;;;;;;;;;;;;;;;;;;;;;;;;;;;
"ect9128";"1991";;"Windows 7";"Rachel's Experiment (D.T.)";"1.0";"2";"1";"1";"2";"1";"1";"2014-09-10 09:14:29.404";"2014-09-10 09:27:33.033";"1";"0";"1";"36";"35";"module.training_block1.exec-5913.GoNoGo1";;;;;;;;;;;;;;;;;;;;;;;"1249";"2014-09-10 09:16:57.370";"ST_correctStop";"3";"0";"FINISHED";"NONE";"success";"0";"1";"2014-09-10 09:16:56.120";"1";;;;;;;;;;;;;;;;;;;;;;;;;;;;;;;;;;;;;;;;;;;;;;;;;;;;;;;;;
"ect9128";"1991";;"Windows 7";"Rachel's Experiment (D.T.)";"1.0";"2";"1";"1";"2";"1";"1";"2014-09-10 09:14:29.404";"2014-09-10 09:27:33.033";"1";"0";"1";"37";"36";"module.training_block1.exec-5913.GoNoGo1";;;;;;;;;;;;;;;;;;;;;;;"1249";"2014-09-10 09:16:59.918";"NST_correctLoc";"19";"0";"FINISHED";"LEFT";"success";"549";"0";"2014-09-10 09:16:58.667";"3";;;;;;;;;;;;;;;;;;;;;;;;;;;;;;;;;;;;;;;;;;;;;;;;;;;;;;;;;
"ect9128";"1991";;"Windows 7";"Rachel's Experiment (D.T.)";"1.0";"2";"1";"1";"2";"1";"1";"2014-09-10 09:14:29.404";"2014-09-10 09:27:33.033";"1";"0";"1";"38";"37";"module.training_block1.exec-5913.GoNoGo1";;;;;;;;;;;;;;;;;;;;;;;"1249";"2014-09-10 09:17:02.464";"NST_correctLoc";"16";"1";"FINISHED";"RIGHT";"success";"783";"0";"2014-09-10 09:17:01.214";"2";;;;;;;;;;;;;;;;;;;;;;;;;;;;;;;;;;;;;;;;;;;;;;;;;;;;;;;;;
"ect9128";"1991";;"Windows 7";"Rachel's Experiment (D.T.)";"1.0";"2";"1";"1";"2";"1";"1";"2014-09-10 09:14:29.404";"2014-09-10 09:27:33.033";"1";"0";"1";"39";"38";"module.training_block1.exec-5913.GoNoGo1";;;;;;;;;;;;;;;;;;;;;;;"1249";"2014-09-10 09:17:05.003";"ST_correctStop";"35";"1";"FINISHED";"NONE";"success";"0";"1";"2014-09-10 09:17:03.753";"3";;;;;;;;;;;;;;;;;;;;;;;;;;;;;;;;;;;;;;;;;;;;;;;;;;;;;;;;;
"ect9128";"1991";;"Windows 7";"Rachel's Experiment (D.T.)";"1.0";"2";"1";"1";"2";"1";"1";"2014-09-10 09:14:29.404";"2014-09-10 09:27:33.033";"1";"0";"1";"40";"39";"module.training_block1.exec-5913.GoNoGo1";;;;;;;;;;;;;;;;;;;;;;;"1249";"2014-09-10 09:17:07.554";"NST_correctLoc";"22";"1";"FINISHED";"RIGHT";"success";"626";"0";"2014-09-10 09:17:06.304";"3";;;;;;;;;;;;;;;;;;;;;;;;;;;;;;;;;;;;;;;;;;;;;;;;;;;;;;;;;
"ect9128";"1991";;"Windows 7";"Rachel's Experiment (D.T.)";"1.0";"2";"1";"1";"2";"1";"1";"2014-09-10 09:14:29.404";"2014-09-10 09:27:33.033";"1";"0";"1";"41";"40";"module.training_block1.exec-5913.GoNoGo1";;;;;;;;;;;;;;;;;;;;;;;"1250";"2014-09-10 09:17:10.097";"ST_correctStop";"5";"0";"FINISHED";"NONE";"success";"0";"1";"2014-09-10 09:17:08.847";"1";;;;;;;;;;;;;;;;;;;;;;;;;;;;;;;;;;;;;;;;;;;;;;;;;;;;;;;;;
"ect9128";"1991";;"Windows 7";"Rachel's Experiment (D.T.)";"1.0";"2";"1";"1";"2";"1";"1";"2014-09-10 09:14:29.404";"2014-09-10 09:27:33.033";"1";"0";"1";"42";"41";"module.training_block1.exec-5913.GoNoGo1";;;;;;;;;;;;;;;;;;;;;;;"1249";"2014-09-10 09:17:12.636";"ST_correctStop";"27";"1";"FINISHED";"NONE";"success";"0";"1";"2014-09-10 09:17:11.386";"3";;;;;;;;;;;;;;;;;;;;;;;;;;;;;;;;;;;;;;;;;;;;;;;;;;;;;;;;;
"ect9128";"1991";;"Windows 7";"Rachel's Experiment (D.T.)";"1.0";"2";"1";"1";"2";"1";"1";"2014-09-10 09:14:29.404";"2014-09-10 09:27:33.033";"1";"0";"1";"43";"42";"module.training_block1.exec-5913.GoNoGo1";;;;;;;;;;;;;;;;;;;;;;;"1249";"2014-09-10 09:17:15.181";"NST_correctLoc";"17";"0";"FINISHED";"LEFT";"success";"534";"0";"2014-09-10 09:17:13.931";"2";;;;;;;;;;;;;;;;;;;;;;;;;;;;;;;;;;;;;;;;;;;;;;;;;;;;;;;;;
"ect9128";"1991";;"Windows 7";"Rachel's Experiment (D.T.)";"1.0";"2";"1";"1";"2";"1";"1";"2014-09-10 09:14:29.404";"2014-09-10 09:27:33.033";"1";"0";"1";"44";"43";"module.training_block1.exec-5913.GoNoGo1";;;;;;;;;;;;;;;;;;;;;;;"1249";"2014-09-10 09:17:17.725";"NST_correctLoc";"9";"1";"FINISHED";"RIGHT";"success";"543";"0";"2014-09-10 09:17:16.474";"2";;;;;;;;;;;;;;;;;;;;;;;;;;;;;;;;;;;;;;;;;;;;;;;;;;;;;;;;;
"ect9128";"1991";;"Windows 7";"Rachel's Experiment (D.T.)";"1.0";"2";"1";"1";"2";"1";"1";"2014-09-10 09:14:29.404";"2014-09-10 09:27:33.033";"1";"0";"1";"45";"44";"module.training_block1.exec-5913.GoNoGo1";;;;;;;;;;;;;;;;;;;;;;;"1249";"2014-09-10 09:17:20.260";"ST_correctStop";"26";"1";"FINISHED";"NONE";"success";"0";"1";"2014-09-10 09:17:19.010";"3";;;;;;;;;;;;;;;;;;;;;;;;;;;;;;;;;;;;;;;;;;;;;;;;;;;;;;;;;
"ect9128";"1991";;"Windows 7";"Rachel's Experiment (D.T.)";"1.0";"2";"1";"1";"2";"1";"1";"2014-09-10 09:14:29.404";"2014-09-10 09:27:33.033";"1";"0";"1";"46";"45";"module.training_block1.exec-5913.GoNoGo1";;;;;;;;;;;;;;;;;;;;;;;"1249";"2014-09-10 09:17:22.805";"NST_correctLoc";"10";"1";"FINISHED";"RIGHT";"success";"698";"0";"2014-09-10 09:17:21.555";"2";;;;;;;;;;;;;;;;;;;;;;;;;;;;;;;;;;;;;;;;;;;;;;;;;;;;;;;;;
"ect9128";"1991";;"Windows 7";"Rachel's Experiment (D.T.)";"1.0";"2";"1";"1";"2";"1";"1";"2014-09-10 09:14:29.404";"2014-09-10 09:27:33.033";"1";"0";"1";"47";"46";"module.training_block1.exec-5913.GoNoGo1";;;;;;;;;;;;;;;;;;;;;;;"1249";"2014-09-10 09:17:25.324";"ST_correctStop";"23";"0";"FINISHED";"NONE";"success";"0";"1";"2014-09-10 09:17:24.074";"3";;;;;;;;;;;;;;;;;;;;;;;;;;;;;;;;;;;;;;;;;;;;;;;;;;;;;;;;;
"ect9128";"1991";;"Windows 7";"Rachel's Experiment (D.T.)";"1.0";"2";"1";"1";"2";"1";"1";"2014-09-10 09:14:29.404";"2014-09-10 09:27:33.033";"1";"0";"1";"48";"47";"module.training_block1.exec-5913.GoNoGo1";;;;;;;;;;;;;;;;;;;;;;;"1250";"2014-09-10 09:17:27.869";"NST_correctLoc";"15";"1";"FINISHED";"RIGHT";"success";"553";"0";"2014-09-10 09:17:26.619";"2";;;;;;;;;;;;;;;;;;;;;;;;;;;;;;;;;;;;;;;;;;;;;;;;;;;;;;;;;
"ect9128";"1991";;"Windows 7";"Rachel's Experiment (D.T.)";"1.0";"2";"1";"1";"2";"1";"1";"2014-09-10 09:14:29.404";"2014-09-10 09:27:33.033";"1";"0";"1";"49";"48";"module.training_block1.exec-5913.GoNoGo1";;;;;;;;;;;;;;;;;;;;;;;"1250";"2014-09-10 09:17:30.400";"NST_miss";"20";"0";"FINISHED";"NONE";"failure";"0";"0";"2014-09-10 09:17:29.150";"3";;;;;;;;;;;;;;;;;;;;;;;;;;;;;;;;;;;;;;;;;;;;;;;;;;;;;;;;;
"ect9128";"1991";;"Windows 7";"Rachel's Experiment (D.T.)";"1.0";"2";"1";"1";"2";"1";"1";"2014-09-10 09:14:29.404";"2014-09-10 09:27:33.033";"1";"0";"1";"50";"49";"module.training_block1.exec-5913.GoNoGo1";;;;;;;;;;;;;;;;;;;;;;;"1250";"2014-09-10 09:17:32.934";"NST_correctLoc";"13";"1";"FINISHED";"RIGHT";"success";"527";"0";"2014-09-10 09:17:31.684";"2";;;;;;;;;;;;;;;;;;;;;;;;;;;;;;;;;;;;;;;;;;;;;;;;;;;;;;;;;
"ect9128";"1991";;"Windows 7";"Rachel's Experiment (D.T.)";"1.0";"2";"1";"1";"2";"1";"1";"2014-09-10 09:14:29.404";"2014-09-10 09:27:33.033";"1";"0";"1";"51";"50";"module.training_block1.exec-5913.GoNoGo1";;;;;;;;;;;;;;;;;;;;;;;"1249";"2014-09-10 09:17:35.471";"NST_miss";"21";"1";"FINISHED";"NONE";"failure";"0";"0";"2014-09-10 09:17:34.221";"3";;;;;;;;;;;;;;;;;;;;;;;;;;;;;;;;;;;;;;;;;;;;;;;;;;;;;;;;;
"ect9128";"1991";;"Windows 7";"Rachel's Experiment (D.T.)";"1.0";"2";"1";"1";"2";"1";"1";"2014-09-10 09:14:29.404";"2014-09-10 09:27:33.033";"1";"0";"1";"52";"51";"module.training_block2.exec-9997.GoNoGo2";;;;;;;;;;;;;;;;;;;;;;;;;;;;;;;;;;;"1249";"2014-09-10 09:17:47.283";"NST_correctLoc";"21";"0";"FINISHED";"LEFT";"success";"611";"0";"2014-09-10 09:17:46.033";"3";;;;;;;;;;;;;;;;;;;;;;;;;;;;;;;;;;;;;;;;;;;;;
"ect9128";"1991";;"Windows 7";"Rachel's Experiment (D.T.)";"1.0";"2";"1";"1";"2";"1";"1";"2014-09-10 09:14:29.404";"2014-09-10 09:27:33.033";"1";"0";"1";"53";"52";"module.training_block2.exec-9997.GoNoGo2";;;;;;;;;;;;;;;;;;;;;;;;;;;;;;;;;;;"1250";"2014-09-10 09:17:49.820";"ST_correctStop";"6";"1";"FINISHED";"NONE";"success";"0";"1";"2014-09-10 09:17:48.570";"1";;;;;;;;;;;;;;;;;;;;;;;;;;;;;;;;;;;;;;;;;;;;;
"ect9128";"1991";;"Windows 7";"Rachel's Experiment (D.T.)";"1.0";"2";"1";"1";"2";"1";"1";"2014-09-10 09:14:29.404";"2014-09-10 09:27:33.033";"1";"0";"1";"54";"53";"module.training_block2.exec-9997.GoNoGo2";;;;;;;;;;;;;;;;;;;;;;;;;;;;;;;;;;;"1250";"2014-09-10 09:17:52.359";"NST_correctLoc";"16";"1";"FINISHED";"RIGHT";"success";"550";"0";"2014-09-10 09:17:51.108";"2";;;;;;;;;;;;;;;;;;;;;;;;;;;;;;;;;;;;;;;;;;;;;
"ect9128";"1991";;"Windows 7";"Rachel's Experiment (D.T.)";"1.0";"2";"1";"1";"2";"1";"1";"2014-09-10 09:14:29.404";"2014-09-10 09:27:33.033";"1";"0";"1";"55";"54";"module.training_block2.exec-9997.GoNoGo2";;;;;;;;;;;;;;;;;;;;;;;;;;;;;;;;;;;"1249";"2014-09-10 09:17:54.890";"NST_correctLoc";"32";"0";"FINISHED";"LEFT";"success";"609";"0";"2014-09-10 09:17:53.640";"3";;;;;;;;;;;;;;;;;;;;;;;;;;;;;;;;;;;;;;;;;;;;;
"ect9128";"1991";;"Windows 7";"Rachel's Experiment (D.T.)";"1.0";"2";"1";"1";"2";"1";"1";"2014-09-10 09:14:29.404";"2014-09-10 09:27:33.033";"1";"0";"1";"56";"55";"module.training_block2.exec-9997.GoNoGo2";;;;;;;;;;;;;;;;;;;;;;;;;;;;;;;;;;;"1249";"2014-09-10 09:17:57.419";"ST_correctStop";"5";"1";"FINISHED";"NONE";"success";"0";"1";"2014-09-10 09:17:56.169";"1";;;;;;;;;;;;;;;;;;;;;;;;;;;;;;;;;;;;;;;;;;;;;
"ect9128";"1991";;"Windows 7";"Rachel's Experiment (D.T.)";"1.0";"2";"1";"1";"2";"1";"1";"2014-09-10 09:14:29.404";"2014-09-10 09:27:33.033";"1";"0";"1";"57";"56";"module.training_block2.exec-9997.GoNoGo2";;;;;;;;;;;;;;;;;;;;;;;;;;;;;;;;;;;"1249";"2014-09-10 09:17:59.951";"NST_correctLoc";"30";"0";"FINISHED";"LEFT";"success";"488";"0";"2014-09-10 09:17:58.701";"3";;;;;;;;;;;;;;;;;;;;;;;;;;;;;;;;;;;;;;;;;;;;;
"ect9128";"1991";;"Windows 7";"Rachel's Experiment (D.T.)";"1.0";"2";"1";"1";"2";"1";"1";"2014-09-10 09:14:29.404";"2014-09-10 09:27:33.033";"1";"0";"1";"58";"57";"module.training_block2.exec-9997.GoNoGo2";;;;;;;;;;;;;;;;;;;;;;;;;;;;;;;;;;;"1249";"2014-09-10 09:18:02.481";"NST_correctLoc";"14";"1";"FINISHED";"RIGHT";"success";"536";"0";"2014-09-10 09:18:01.231";"2";;;;;;;;;;;;;;;;;;;;;;;;;;;;;;;;;;;;;;;;;;;;;
"ect9128";"1991";;"Windows 7";"Rachel's Experiment (D.T.)";"1.0";"2";"1";"1";"2";"1";"1";"2014-09-10 09:14:29.404";"2014-09-10 09:27:33.033";"1";"0";"1";"59";"58";"module.training_block2.exec-9997.GoNoGo2";;;;;;;;;;;;;;;;;;;;;;;;;;;;;;;;;;;"1249";"2014-09-10 09:18:05.016";"NST_correctLoc";"10";"1";"FINISHED";"RIGHT";"success";"478";"0";"2014-09-10 09:18:03.766";"2";;;;;;;;;;;;;;;;;;;;;;;;;;;;;;;;;;;;;;;;;;;;;
"ect9128";"1991";;"Windows 7";"Rachel's Experiment (D.T.)";"1.0";"2";"1";"1";"2";"1";"1";"2014-09-10 09:14:29.404";"2014-09-10 09:27:33.033";"1";"0";"1";"60";"59";"module.training_block2.exec-9997.GoNoGo2";;;;;;;;;;;;;;;;;;;;;;;;;;;;;;;;;;;"1249";"2014-09-10 09:18:07.550";"ST_correctStop";"0";"1";"FINISHED";"NONE";"success";"0";"1";"2014-09-10 09:18:06.300";"1";;;;;;;;;;;;;;;;;;;;;;;;;;;;;;;;;;;;;;;;;;;;;
"ect9128";"1991";;"Windows 7";"Rachel's Experiment (D.T.)";"1.0";"2";"1";"1";"2";"1";"1";"2014-09-10 09:14:29.404";"2014-09-10 09:27:33.033";"1";"0";"1";"61";"60";"module.training_block2.exec-9997.GoNoGo2";;;;;;;;;;;;;;;;;;;;;;;;;;;;;;;;;;;"1249";"2014-09-10 09:18:10.088";"NST_correctLoc";"13";"1";"FINISHED";"RIGHT";"success";"597";"0";"2014-09-10 09:18:08.837";"2";;;;;;;;;;;;;;;;;;;;;;;;;;;;;;;;;;;;;;;;;;;;;
"ect9128";"1991";;"Windows 7";"Rachel's Experiment (D.T.)";"1.0";"2";"1";"1";"2";"1";"1";"2014-09-10 09:14:29.404";"2014-09-10 09:27:33.033";"1";"0";"1";"62";"61";"module.training_block2.exec-9997.GoNoGo2";;;;;;;;;;;;;;;;;;;;;;;;;;;;;;;;;;;"1250";"2014-09-10 09:18:12.801";"ST_correctStop";"1";"1";"FINISHED";"NONE";"success";"0";"1";"2014-09-10 09:18:11.551";"1";;;;;;;;;;;;;;;;;;;;;;;;;;;;;;;;;;;;;;;;;;;;;
"ect9128";"1991";;"Windows 7";"Rachel's Experiment (D.T.)";"1.0";"2";"1";"1";"2";"1";"1";"2014-09-10 09:14:29.404";"2014-09-10 09:27:33.033";"1";"0";"1";"63";"62";"module.training_block2.exec-9997.GoNoGo2";;;;;;;;;;;;;;;;;;;;;;;;;;;;;;;;;;;"1249";"2014-09-10 09:18:15.344";"NST_correctLoc";"12";"1";"FINISHED";"RIGHT";"success";"566";"0";"2014-09-10 09:18:14.094";"2";;;;;;;;;;;;;;;;;;;;;;;;;;;;;;;;;;;;;;;;;;;;;
"ect9128";"1991";;"Windows 7";"Rachel's Experiment (D.T.)";"1.0";"2";"1";"1";"2";"1";"1";"2014-09-10 09:14:29.404";"2014-09-10 09:27:33.033";"1";"0";"1";"64";"63";"module.training_block2.exec-9997.GoNoGo2";;;;;;;;;;;;;;;;;;;;;;;;;;;;;;;;;;;"1249";"2014-09-10 09:18:17.882";"ST_correctStop";"3";"0";"FINISHED";"NONE";"success";"0";"1";"2014-09-10 09:18:16.632";"1";;;;;;;;;;;;;;;;;;;;;;;;;;;;;;;;;;;;;;;;;;;;;
"ect9128";"1991";;"Windows 7";"Rachel's Experiment (D.T.)";"1.0";"2";"1";"1";"2";"1";"1";"2014-09-10 09:14:29.404";"2014-09-10 09:27:33.033";"1";"0";"1";"65";"64";"module.training_block2.exec-9997.GoNoGo2";;;;;;;;;;;;;;;;;;;;;;;;;;;;;;;;;;;"1250";"2014-09-10 09:18:20.423";"NST_correctLoc";"25";"0";"FINISHED";"LEFT";"success";"484";"0";"2014-09-10 09:18:19.172";"3";;;;;;;;;;;;;;;;;;;;;;;;;;;;;;;;;;;;;;;;;;;;;
"ect9128";"1991";;"Windows 7";"Rachel's Experiment (D.T.)";"1.0";"2";"1";"1";"2";"1";"1";"2014-09-10 09:14:29.404";"2014-09-10 09:27:33.033";"1";"0";"1";"66";"65";"module.training_block2.exec-9997.GoNoGo2";;;;;;;;;;;;;;;;;;;;;;;;;;;;;;;;;;;"1250";"2014-09-10 09:18:22.964";"ST_correctStop";"29";"1";"FINISHED";"NONE";"success";"0";"1";"2014-09-10 09:18:21.714";"3";;;;;;;;;;;;;;;;;;;;;;;;;;;;;;;;;;;;;;;;;;;;;
"ect9128";"1991";;"Windows 7";"Rachel's Experiment (D.T.)";"1.0";"2";"1";"1";"2";"1";"1";"2014-09-10 09:14:29.404";"2014-09-10 09:27:33.033";"1";"0";"1";"67";"66";"module.training_block2.exec-9997.GoNoGo2";;;;;;;;;;;;;;;;;;;;;;;;;;;;;;;;;;;"1250";"2014-09-10 09:18:25.502";"NST_correctLoc";"11";"0";"FINISHED";"LEFT";"success";"439";"0";"2014-09-10 09:18:24.252";"2";;;;;;;;;;;;;;;;;;;;;;;;;;;;;;;;;;;;;;;;;;;;;
"ect9128";"1991";;"Windows 7";"Rachel's Experiment (D.T.)";"1.0";"2";"1";"1";"2";"1";"1";"2014-09-10 09:14:29.404";"2014-09-10 09:27:33.033";"1";"0";"1";"68";"67";"module.training_block2.exec-9997.GoNoGo2";;;;;;;;;;;;;;;;;;;;;;;;;;;;;;;;;;;"1250";"2014-09-10 09:18:28.043";"ST_correctStop";"28";"0";"FINISHED";"NONE";"success";"0";"1";"2014-09-10 09:18:26.793";"3";;;;;;;;;;;;;;;;;;;;;;;;;;;;;;;;;;;;;;;;;;;;;
"ect9128";"1991";;"Windows 7";"Rachel's Experiment (D.T.)";"1.0";"2";"1";"1";"2";"1";"1";"2014-09-10 09:14:29.404";"2014-09-10 09:27:33.033";"1";"0";"1";"69";"68";"module.training_block2.exec-9997.GoNoGo2";;;;;;;;;;;;;;;;;;;;;;;;;;;;;;;;;;;"1249";"2014-09-10 09:18:30.585";"ST_correctStop";"8";"1";"FINISHED";"NONE";"success";"0";"1";"2014-09-10 09:18:29.335";"1";;;;;;;;;;;;;;;;;;;;;;;;;;;;;;;;;;;;;;;;;;;;;
"ect9128";"1991";;"Windows 7";"Rachel's Experiment (D.T.)";"1.0";"2";"1";"1";"2";"1";"1";"2014-09-10 09:14:29.404";"2014-09-10 09:27:33.033";"1";"0";"1";"70";"69";"module.training_block2.exec-9997.GoNoGo2";;;;;;;;;;;;;;;;;;;;;;;;;;;;;;;;;;;"1249";"2014-09-10 09:18:33.121";"NST_correctLoc";"31";"0";"FINISHED";"LEFT";"success";"507";"0";"2014-09-10 09:18:31.871";"3";;;;;;;;;;;;;;;;;;;;;;;;;;;;;;;;;;;;;;;;;;;;;
"ect9128";"1991";;"Windows 7";"Rachel's Experiment (D.T.)";"1.0";"2";"1";"1";"2";"1";"1";"2014-09-10 09:14:29.404";"2014-09-10 09:27:33.033";"1";"0";"1";"71";"70";"module.training_block2.exec-9997.GoNoGo2";;;;;;;;;;;;;;;;;;;;;;;;;;;;;;;;;;;"1249";"2014-09-10 09:18:35.663";"NST_correctLoc";"15";"1";"FINISHED";"RIGHT";"success";"694";"0";"2014-09-10 09:18:34.413";"2";;;;;;;;;;;;;;;;;;;;;;;;;;;;;;;;;;;;;;;;;;;;;
"ect9128";"1991";;"Windows 7";"Rachel's Experiment (D.T.)";"1.0";"2";"1";"1";"2";"1";"1";"2014-09-10 09:14:29.404";"2014-09-10 09:27:33.033";"1";"0";"1";"72";"71";"module.training_block2.exec-9997.GoNoGo2";;;;;;;;;;;;;;;;;;;;;;;;;;;;;;;;;;;"1249";"2014-09-10 09:18:38.206";"ST_correctStop";"20";"1";"FINISHED";"NONE";"success";"0";"1";"2014-09-10 09:18:36.956";"3";;;;;;;;;;;;;;;;;;;;;;;;;;;;;;;;;;;;;;;;;;;;;
"ect9128";"1991";;"Windows 7";"Rachel's Experiment (D.T.)";"1.0";"2";"1";"1";"2";"1";"1";"2014-09-10 09:14:29.404";"2014-09-10 09:27:33.033";"1";"0";"1";"73";"72";"module.training_block2.exec-9997.GoNoGo2";;;;;;;;;;;;;;;;;;;;;;;;;;;;;;;;;;;"1250";"2014-09-10 09:18:40.744";"ST_correctStop";"23";"0";"FINISHED";"NONE";"success";"0";"1";"2014-09-10 09:18:39.494";"3";;;;;;;;;;;;;;;;;;;;;;;;;;;;;;;;;;;;;;;;;;;;;
"ect9128";"1991";;"Windows 7";"Rachel's Experiment (D.T.)";"1.0";"2";"1";"1";"2";"1";"1";"2014-09-10 09:14:29.404";"2014-09-10 09:27:33.033";"1";"0";"1";"74";"73";"module.training_block2.exec-9997.GoNoGo2";;;;;;;;;;;;;;;;;;;;;;;;;;;;;;;;;;;"1249";"2014-09-10 09:18:43.288";"NST_correctLoc";"22";"1";"FINISHED";"RIGHT";"success";"522";"0";"2014-09-10 09:18:42.038";"3";;;;;;;;;;;;;;;;;;;;;;;;;;;;;;;;;;;;;;;;;;;;;
"ect9128";"1991";;"Windows 7";"Rachel's Experiment (D.T.)";"1.0";"2";"1";"1";"2";"1";"1";"2014-09-10 09:14:29.404";"2014-09-10 09:27:33.033";"1";"0";"1";"75";"74";"module.training_block2.exec-9997.GoNoGo2";;;;;;;;;;;;;;;;;;;;;;;;;;;;;;;;;;;"1250";"2014-09-10 09:18:45.829";"ST_correctStop";"26";"0";"FINISHED";"NONE";"success";"0";"1";"2014-09-10 09:18:44.579";"3";;;;;;;;;;;;;;;;;;;;;;;;;;;;;;;;;;;;;;;;;;;;;
"ect9128";"1991";;"Windows 7";"Rachel's Experiment (D.T.)";"1.0";"2";"1";"1";"2";"1";"1";"2014-09-10 09:14:29.404";"2014-09-10 09:27:33.033";"1";"0";"1";"76";"75";"module.training_block2.exec-9997.GoNoGo2";;;;;;;;;;;;;;;;;;;;;;;;;;;;;;;;;;;"1249";"2014-09-10 09:18:48.377";"ST_correctStop";"33";"0";"FINISHED";"NONE";"success";"0";"1";"2014-09-10 09:18:47.127";"3";;;;;;;;;;;;;;;;;;;;;;;;;;;;;;;;;;;;;;;;;;;;;
"ect9128";"1991";;"Windows 7";"Rachel's Experiment (D.T.)";"1.0";"2";"1";"1";"2";"1";"1";"2014-09-10 09:14:29.404";"2014-09-10 09:27:33.033";"1";"0";"1";"77";"76";"module.training_block2.exec-9997.GoNoGo2";;;;;;;;;;;;;;;;;;;;;;;;;;;;;;;;;;;"1249";"2014-09-10 09:18:50.917";"NST_correctLoc";"9";"1";"FINISHED";"RIGHT";"success";"606";"0";"2014-09-10 09:18:49.667";"2";;;;;;;;;;;;;;;;;;;;;;;;;;;;;;;;;;;;;;;;;;;;;
"ect9128";"1991";;"Windows 7";"Rachel's Experiment (D.T.)";"1.0";"2";"1";"1";"2";"1";"1";"2014-09-10 09:14:29.404";"2014-09-10 09:27:33.033";"1";"0";"1";"78";"77";"module.training_block2.exec-9997.GoNoGo2";;;;;;;;;;;;;;;;;;;;;;;;;;;;;;;;;;;"1249";"2014-09-10 09:18:53.456";"ST_correctStop";"18";"1";"FINISHED";"NONE";"success";"0";"1";"2014-09-10 09:18:52.206";"3";;;;;;;;;;;;;;;;;;;;;;;;;;;;;;;;;;;;;;;;;;;;;
"ect9128";"1991";;"Windows 7";"Rachel's Experiment (D.T.)";"1.0";"2";"1";"1";"2";"1";"1";"2014-09-10 09:14:29.404";"2014-09-10 09:27:33.033";"1";"0";"1";"79";"78";"module.training_block2.exec-9997.GoNoGo2";;;;;;;;;;;;;;;;;;;;;;;;;;;;;;;;;;;"1249";"2014-09-10 09:18:55.995";"ST_correctStop";"24";"0";"FINISHED";"NONE";"success";"0";"1";"2014-09-10 09:18:54.745";"3";;;;;;;;;;;;;;;;;;;;;;;;;;;;;;;;;;;;;;;;;;;;;
"ect9128";"1991";;"Windows 7";"Rachel's Experiment (D.T.)";"1.0";"2";"1";"1";"2";"1";"1";"2014-09-10 09:14:29.404";"2014-09-10 09:27:33.033";"1";"0";"1";"80";"79";"module.training_block2.exec-9997.GoNoGo2";;;;;;;;;;;;;;;;;;;;;;;;;;;;;;;;;;;"1249";"2014-09-10 09:18:58.532";"ST_correctStop";"7";"1";"FINISHED";"NONE";"success";"0";"1";"2014-09-10 09:18:57.282";"1";;;;;;;;;;;;;;;;;;;;;;;;;;;;;;;;;;;;;;;;;;;;;
"ect9128";"1991";;"Windows 7";"Rachel's Experiment (D.T.)";"1.0";"2";"1";"1";"2";"1";"1";"2014-09-10 09:14:29.404";"2014-09-10 09:27:33.033";"1";"0";"1";"81";"80";"module.training_block2.exec-9997.GoNoGo2";;;;;;;;;;;;;;;;;;;;;;;;;;;;;;;;;;;"1249";"2014-09-10 09:19:01.072";"ST_correctStop";"2";"1";"FINISHED";"NONE";"success";"0";"1";"2014-09-10 09:18:59.822";"1";;;;;;;;;;;;;;;;;;;;;;;;;;;;;;;;;;;;;;;;;;;;;
"ect9128";"1991";;"Windows 7";"Rachel's Experiment (D.T.)";"1.0";"2";"1";"1";"2";"1";"1";"2014-09-10 09:14:29.404";"2014-09-10 09:27:33.033";"1";"0";"1";"82";"81";"module.training_block2.exec-9997.GoNoGo2";;;;;;;;;;;;;;;;;;;;;;;;;;;;;;;;;;;"1249";"2014-09-10 09:19:03.611";"NST_correctLoc";"19";"0";"FINISHED";"LEFT";"success";"518";"0";"2014-09-10 09:19:02.361";"3";;;;;;;;;;;;;;;;;;;;;;;;;;;;;;;;;;;;;;;;;;;;;
"ect9128";"1991";;"Windows 7";"Rachel's Experiment (D.T.)";"1.0";"2";"1";"1";"2";"1";"1";"2014-09-10 09:14:29.404";"2014-09-10 09:27:33.033";"1";"0";"1";"83";"82";"module.training_block2.exec-9997.GoNoGo2";;;;;;;;;;;;;;;;;;;;;;;;;;;;;;;;;;;"1249";"2014-09-10 09:19:06.145";"NST_correctLoc";"34";"0";"FINISHED";"LEFT";"success";"707";"0";"2014-09-10 09:19:04.895";"3";;;;;;;;;;;;;;;;;;;;;;;;;;;;;;;;;;;;;;;;;;;;;
"ect9128";"1991";;"Windows 7";"Rachel's Experiment (D.T.)";"1.0";"2";"1";"1";"2";"1";"1";"2014-09-10 09:14:29.404";"2014-09-10 09:27:33.033";"1";"0";"1";"84";"83";"module.training_block2.exec-9997.GoNoGo2";;;;;;;;;;;;;;;;;;;;;;;;;;;;;;;;;;;"1250";"2014-09-10 09:19:08.686";"ST_correctStop";"4";"1";"FINISHED";"NONE";"success";"0";"1";"2014-09-10 09:19:07.436";"1";;;;;;;;;;;;;;;;;;;;;;;;;;;;;;;;;;;;;;;;;;;;;
"ect9128";"1991";;"Windows 7";"Rachel's Experiment (D.T.)";"1.0";"2";"1";"1";"2";"1";"1";"2014-09-10 09:14:29.404";"2014-09-10 09:27:33.033";"1";"0";"1";"85";"84";"module.training_block2.exec-9997.GoNoGo2";;;;;;;;;;;;;;;;;;;;;;;;;;;;;;;;;;;"1249";"2014-09-10 09:19:11.222";"ST_correctStop";"27";"1";"FINISHED";"NONE";"success";"0";"1";"2014-09-10 09:19:09.972";"3";;;;;;;;;;;;;;;;;;;;;;;;;;;;;;;;;;;;;;;;;;;;;
"ect9128";"1991";;"Windows 7";"Rachel's Experiment (D.T.)";"1.0";"2";"1";"1";"2";"1";"1";"2014-09-10 09:14:29.404";"2014-09-10 09:27:33.033";"1";"0";"1";"86";"85";"module.training_block2.exec-9997.GoNoGo2";;;;;;;;;;;;;;;;;;;;;;;;;;;;;;;;;;;"1249";"2014-09-10 09:19:13.762";"NST_correctLoc";"17";"0";"FINISHED";"LEFT";"success";"612";"0";"2014-09-10 09:19:12.512";"2";;;;;;;;;;;;;;;;;;;;;;;;;;;;;;;;;;;;;;;;;;;;;
"ect9128";"1991";;"Windows 7";"Rachel's Experiment (D.T.)";"1.0";"2";"1";"1";"2";"1";"1";"2014-09-10 09:14:29.404";"2014-09-10 09:27:33.033";"1";"0";"1";"87";"86";"module.training_block2.exec-9997.GoNoGo2";;;;;;;;;;;;;;;;;;;;;;;;;;;;;;;;;;;"1250";"2014-09-10 09:19:16.300";"NST_correctLoc";"35";"0";"FINISHED";"LEFT";"success";"1198";"0";"2014-09-10 09:19:15.050";"3";;;;;;;;;;;;;;;;;;;;;;;;;;;;;;;;;;;;;;;;;;;;;
"ect9128";"1991";;"Windows 7";"Rachel's Experiment (D.T.)";"1.0";"2";"1";"1";"2";"1";"1";"2014-09-10 09:14:29.404";"2014-09-10 09:27:33.033";"1";"0";"1";"88";"87";"module.training_block3.exec-3718.GoNoGo3";;;;;;;;;;;;;;;;;;;;;;;;;;;;;;;;;;;;;;;;;;;;;;;"1250";"2014-09-10 09:19:33.455";"ST_correctStop";"30";"1";"FINISHED";"NONE";"success";"0";"1";"2014-09-10 09:19:32.205";"3";;;;;;;;;;;;;;;;;;;;;;;;;;;;;;;;;
"ect9128";"1991";;"Windows 7";"Rachel's Experiment (D.T.)";"1.0";"2";"1";"1";"2";"1";"1";"2014-09-10 09:14:29.404";"2014-09-10 09:27:33.033";"1";"0";"1";"89";"88";"module.training_block3.exec-3718.GoNoGo3";;;;;;;;;;;;;;;;;;;;;;;;;;;;;;;;;;;;;;;;;;;;;;;"1249";"2014-09-10 09:19:35.993";"ST_correctStop";"32";"1";"FINISHED";"NONE";"success";"0";"1";"2014-09-10 09:19:34.743";"3";;;;;;;;;;;;;;;;;;;;;;;;;;;;;;;;;
"ect9128";"1991";;"Windows 7";"Rachel's Experiment (D.T.)";"1.0";"2";"1";"1";"2";"1";"1";"2014-09-10 09:14:29.404";"2014-09-10 09:27:33.033";"1";"0";"1";"90";"89";"module.training_block3.exec-3718.GoNoGo3";;;;;;;;;;;;;;;;;;;;;;;;;;;;;;;;;;;;;;;;;;;;;;;"1249";"2014-09-10 09:19:38.532";"NST_correctLoc";"27";"1";"FINISHED";"RIGHT";"success";"628";"0";"2014-09-10 09:19:37.282";"3";;;;;;;;;;;;;;;;;;;;;;;;;;;;;;;;;
"ect9128";"1991";;"Windows 7";"Rachel's Experiment (D.T.)";"1.0";"2";"1";"1";"2";"1";"1";"2014-09-10 09:14:29.404";"2014-09-10 09:27:33.033";"1";"0";"1";"91";"90";"module.training_block3.exec-3718.GoNoGo3";;;;;;;;;;;;;;;;;;;;;;;;;;;;;;;;;;;;;;;;;;;;;;;"1249";"2014-09-10 09:19:41.060";"NST_correctLoc";"22";"1";"FINISHED";"RIGHT";"success";"510";"0";"2014-09-10 09:19:39.810";"3";;;;;;;;;;;;;;;;;;;;;;;;;;;;;;;;;
"ect9128";"1991";;"Windows 7";"Rachel's Experiment (D.T.)";"1.0";"2";"1";"1";"2";"1";"1";"2014-09-10 09:14:29.404";"2014-09-10 09:27:33.033";"1";"0";"1";"92";"91";"module.training_block3.exec-3718.GoNoGo3";;;;;;;;;;;;;;;;;;;;;;;;;;;;;;;;;;;;;;;;;;;;;;;"1249";"2014-09-10 09:19:43.590";"NST_correctLoc";"35";"1";"FINISHED";"RIGHT";"success";"483";"0";"2014-09-10 09:19:42.340";"3";;;;;;;;;;;;;;;;;;;;;;;;;;;;;;;;;
"ect9128";"1991";;"Windows 7";"Rachel's Experiment (D.T.)";"1.0";"2";"1";"1";"2";"1";"1";"2014-09-10 09:14:29.404";"2014-09-10 09:27:33.033";"1";"0";"1";"93";"92";"module.training_block3.exec-3718.GoNoGo3";;;;;;;;;;;;;;;;;;;;;;;;;;;;;;;;;;;;;;;;;;;;;;;"1249";"2014-09-10 09:19:46.120";"NST_correctLoc";"33";"1";"FINISHED";"RIGHT";"success";"636";"0";"2014-09-10 09:19:44.870";"3";;;;;;;;;;;;;;;;;;;;;;;;;;;;;;;;;
"ect9128";"1991";;"Windows 7";"Rachel's Experiment (D.T.)";"1.0";"2";"1";"1";"2";"1";"1";"2014-09-10 09:14:29.404";"2014-09-10 09:27:33.033";"1";"0";"1";"94";"93";"module.training_block3.exec-3718.GoNoGo3";;;;;;;;;;;;;;;;;;;;;;;;;;;;;;;;;;;;;;;;;;;;;;;"1249";"2014-09-10 09:19:48.647";"ST_correctStop";"28";"1";"FINISHED";"NONE";"success";"0";"1";"2014-09-10 09:19:47.397";"3";;;;;;;;;;;;;;;;;;;;;;;;;;;;;;;;;
"ect9128";"1991";;"Windows 7";"Rachel's Experiment (D.T.)";"1.0";"2";"1";"1";"2";"1";"1";"2014-09-10 09:14:29.404";"2014-09-10 09:27:33.033";"1";"0";"1";"95";"94";"module.training_block3.exec-3718.GoNoGo3";;;;;;;;;;;;;;;;;;;;;;;;;;;;;;;;;;;;;;;;;;;;;;;"1249";"2014-09-10 09:19:51.178";"NST_correctLoc";"23";"0";"FINISHED";"LEFT";"success";"483";"0";"2014-09-10 09:19:49.928";"3";;;;;;;;;;;;;;;;;;;;;;;;;;;;;;;;;
"ect9128";"1991";;"Windows 7";"Rachel's Experiment (D.T.)";"1.0";"2";"1";"1";"2";"1";"1";"2014-09-10 09:14:29.404";"2014-09-10 09:27:33.033";"1";"0";"1";"96";"95";"module.training_block3.exec-3718.GoNoGo3";;;;;;;;;;;;;;;;;;;;;;;;;;;;;;;;;;;;;;;;;;;;;;;"1250";"2014-09-10 09:19:53.720";"NST_correctLoc";"16";"1";"FINISHED";"RIGHT";"success";"580";"0";"2014-09-10 09:19:52.469";"2";;;;;;;;;;;;;;;;;;;;;;;;;;;;;;;;;
"ect9128";"1991";;"Windows 7";"Rachel's Experiment (D.T.)";"1.0";"2";"1";"1";"2";"1";"1";"2014-09-10 09:14:29.404";"2014-09-10 09:27:33.033";"1";"0";"1";"97";"96";"module.training_block3.exec-3718.GoNoGo3";;;;;;;;;;;;;;;;;;;;;;;;;;;;;;;;;;;;;;;;;;;;;;;"1249";"2014-09-10 09:19:56.252";"ST_correctStop";"20";"1";"FINISHED";"NONE";"success";"0";"1";"2014-09-10 09:19:55.002";"3";;;;;;;;;;;;;;;;;;;;;;;;;;;;;;;;;
"ect9128";"1991";;"Windows 7";"Rachel's Experiment (D.T.)";"1.0";"2";"1";"1";"2";"1";"1";"2014-09-10 09:14:29.404";"2014-09-10 09:27:33.033";"1";"0";"1";"98";"97";"module.training_block3.exec-3718.GoNoGo3";;;;;;;;;;;;;;;;;;;;;;;;;;;;;;;;;;;;;;;;;;;;;;;"1249";"2014-09-10 09:19:58.781";"ST_correctStop";"2";"1";"FINISHED";"NONE";"success";"0";"1";"2014-09-10 09:19:57.531";"1";;;;;;;;;;;;;;;;;;;;;;;;;;;;;;;;;
"ect9128";"1991";;"Windows 7";"Rachel's Experiment (D.T.)";"1.0";"2";"1";"1";"2";"1";"1";"2014-09-10 09:14:29.404";"2014-09-10 09:27:33.033";"1";"0";"1";"99";"98";"module.training_block3.exec-3718.GoNoGo3";;;;;;;;;;;;;;;;;;;;;;;;;;;;;;;;;;;;;;;;;;;;;;;"1249";"2014-09-10 09:20:01.309";"NST_correctLoc";"21";"0";"FINISHED";"LEFT";"success";"504";"0";"2014-09-10 09:20:00.059";"3";;;;;;;;;;;;;;;;;;;;;;;;;;;;;;;;;
"ect9128";"1991";;"Windows 7";"Rachel's Experiment (D.T.)";"1.0";"2";"1";"1";"2";"1";"1";"2014-09-10 09:14:29.404";"2014-09-10 09:27:33.033";"1";"0";"1";"100";"99";"module.training_block3.exec-3718.GoNoGo3";;;;;;;;;;;;;;;;;;;;;;;;;;;;;;;;;;;;;;;;;;;;;;;"1249";"2014-09-10 09:20:03.838";"ST_correctStop";"34";"1";"FINISHED";"NONE";"success";"0";"1";"2014-09-10 09:20:02.588";"3";;;;;;;;;;;;;;;;;;;;;;;;;;;;;;;;;
"ect9128";"1991";;"Windows 7";"Rachel's Experiment (D.T.)";"1.0";"2";"1";"1";"2";"1";"1";"2014-09-10 09:14:29.404";"2014-09-10 09:27:33.033";"1";"0";"1";"101";"100";"module.training_block3.exec-3718.GoNoGo3";;;;;;;;;;;;;;;;;;;;;;;;;;;;;;;;;;;;;;;;;;;;;;;"1249";"2014-09-10 09:20:06.368";"NST_correctLoc";"18";"1";"FINISHED";"RIGHT";"success";"587";"0";"2014-09-10 09:20:05.118";"3";;;;;;;;;;;;;;;;;;;;;;;;;;;;;;;;;
"ect9128";"1991";;"Windows 7";"Rachel's Experiment (D.T.)";"1.0";"2";"1";"1";"2";"1";"1";"2014-09-10 09:14:29.404";"2014-09-10 09:27:33.033";"1";"0";"1";"102";"101";"module.training_block3.exec-3718.GoNoGo3";;;;;;;;;;;;;;;;;;;;;;;;;;;;;;;;;;;;;;;;;;;;;;;"1249";"2014-09-10 09:20:08.905";"ST_failedStop";"5";"1";"FINISHED";"RIGHT";"failure";"672";"1";"2014-09-10 09:20:07.655";"1";;;;;;;;;;;;;;;;;;;;;;;;;;;;;;;;;
"ect9128";"1991";;"Windows 7";"Rachel's Experiment (D.T.)";"1.0";"2";"1";"1";"2";"1";"1";"2014-09-10 09:14:29.404";"2014-09-10 09:27:33.033";"1";"0";"1";"103";"102";"module.training_block3.exec-3718.GoNoGo3";;;;;;;;;;;;;;;;;;;;;;;;;;;;;;;;;;;;;;;;;;;;;;;"1249";"2014-09-10 09:20:11.435";"ST_correctStop";"3";"1";"FINISHED";"NONE";"success";"0";"1";"2014-09-10 09:20:10.184";"1";;;;;;;;;;;;;;;;;;;;;;;;;;;;;;;;;
"ect9128";"1991";;"Windows 7";"Rachel's Experiment (D.T.)";"1.0";"2";"1";"1";"2";"1";"1";"2014-09-10 09:14:29.404";"2014-09-10 09:27:33.033";"1";"0";"1";"104";"103";"module.training_block3.exec-3718.GoNoGo3";;;;;;;;;;;;;;;;;;;;;;;;;;;;;;;;;;;;;;;;;;;;;;;"1249";"2014-09-10 09:20:13.964";"NST_correctLoc";"15";"1";"FINISHED";"RIGHT";"success";"586";"0";"2014-09-10 09:20:12.714";"2";;;;;;;;;;;;;;;;;;;;;;;;;;;;;;;;;
"ect9128";"1991";;"Windows 7";"Rachel's Experiment (D.T.)";"1.0";"2";"1";"1";"2";"1";"1";"2014-09-10 09:14:29.404";"2014-09-10 09:27:33.033";"1";"0";"1";"105";"104";"module.training_block3.exec-3718.GoNoGo3";;;;;;;;;;;;;;;;;;;;;;;;;;;;;;;;;;;;;;;;;;;;;;;"1249";"2014-09-10 09:20:16.491";"ST_correctStop";"4";"0";"FINISHED";"NONE";"success";"0";"1";"2014-09-10 09:20:15.241";"1";;;;;;;;;;;;;;;;;;;;;;;;;;;;;;;;;
"ect9128";"1991";;"Windows 7";"Rachel's Experiment (D.T.)";"1.0";"2";"1";"1";"2";"1";"1";"2014-09-10 09:14:29.404";"2014-09-10 09:27:33.033";"1";"0";"1";"106";"105";"module.training_block3.exec-3718.GoNoGo3";;;;;;;;;;;;;;;;;;;;;;;;;;;;;;;;;;;;;;;;;;;;;;;"1249";"2014-09-10 09:20:19.021";"ST_correctStop";"26";"0";"FINISHED";"NONE";"success";"0";"1";"2014-09-10 09:20:17.771";"3";;;;;;;;;;;;;;;;;;;;;;;;;;;;;;;;;
"ect9128";"1991";;"Windows 7";"Rachel's Experiment (D.T.)";"1.0";"2";"1";"1";"2";"1";"1";"2014-09-10 09:14:29.404";"2014-09-10 09:27:33.033";"1";"0";"1";"107";"106";"module.training_block3.exec-3718.GoNoGo3";;;;;;;;;;;;;;;;;;;;;;;;;;;;;;;;;;;;;;;;;;;;;;;"1249";"2014-09-10 09:20:21.550";"ST_correctStop";"31";"1";"FINISHED";"NONE";"success";"0";"1";"2014-09-10 09:20:20.300";"3";;;;;;;;;;;;;;;;;;;;;;;;;;;;;;;;;
"ect9128";"1991";;"Windows 7";"Rachel's Experiment (D.T.)";"1.0";"2";"1";"1";"2";"1";"1";"2014-09-10 09:14:29.404";"2014-09-10 09:27:33.033";"1";"0";"1";"108";"107";"module.training_block3.exec-3718.GoNoGo3";;;;;;;;;;;;;;;;;;;;;;;;;;;;;;;;;;;;;;;;;;;;;;;"1249";"2014-09-10 09:20:24.079";"ST_correctStop";"1";"0";"FINISHED";"NONE";"success";"0";"1";"2014-09-10 09:20:22.829";"1";;;;;;;;;;;;;;;;;;;;;;;;;;;;;;;;;
"ect9128";"1991";;"Windows 7";"Rachel's Experiment (D.T.)";"1.0";"2";"1";"1";"2";"1";"1";"2014-09-10 09:14:29.404";"2014-09-10 09:27:33.033";"1";"0";"1";"109";"108";"module.training_block3.exec-3718.GoNoGo3";;;;;;;;;;;;;;;;;;;;;;;;;;;;;;;;;;;;;;;;;;;;;;;"1249";"2014-09-10 09:20:26.610";"NST_correctLoc";"11";"0";"FINISHED";"LEFT";"success";"547";"0";"2014-09-10 09:20:25.360";"2";;;;;;;;;;;;;;;;;;;;;;;;;;;;;;;;;
"ect9128";"1991";;"Windows 7";"Rachel's Experiment (D.T.)";"1.0";"2";"1";"1";"2";"1";"1";"2014-09-10 09:14:29.404";"2014-09-10 09:27:33.033";"1";"0";"1";"110";"109";"module.training_block3.exec-3718.GoNoGo3";;;;;;;;;;;;;;;;;;;;;;;;;;;;;;;;;;;;;;;;;;;;;;;"1250";"2014-09-10 09:20:29.148";"ST_correctStop";"6";"1";"FINISHED";"NONE";"success";"0";"1";"2014-09-10 09:20:27.897";"1";;;;;;;;;;;;;;;;;;;;;;;;;;;;;;;;;
"ect9128";"1991";;"Windows 7";"Rachel's Experiment (D.T.)";"1.0";"2";"1";"1";"2";"1";"1";"2014-09-10 09:14:29.404";"2014-09-10 09:27:33.033";"1";"0";"1";"111";"110";"module.training_block3.exec-3718.GoNoGo3";;;;;;;;;;;;;;;;;;;;;;;;;;;;;;;;;;;;;;;;;;;;;;;"1249";"2014-09-10 09:20:31.680";"NST_correctLoc";"13";"0";"FINISHED";"LEFT";"success";"546";"0";"2014-09-10 09:20:30.430";"2";;;;;;;;;;;;;;;;;;;;;;;;;;;;;;;;;
"ect9128";"1991";;"Windows 7";"Rachel's Experiment (D.T.)";"1.0";"2";"1";"1";"2";"1";"1";"2014-09-10 09:14:29.404";"2014-09-10 09:27:33.033";"1";"0";"1";"112";"111";"module.training_block3.exec-3718.GoNoGo3";;;;;;;;;;;;;;;;;;;;;;;;;;;;;;;;;;;;;;;;;;;;;;;"1249";"2014-09-10 09:20:34.208";"ST_correctStop";"25";"0";"FINISHED";"NONE";"success";"0";"1";"2014-09-10 09:20:32.958";"3";;;;;;;;;;;;;;;;;;;;;;;;;;;;;;;;;
"ect9128";"1991";;"Windows 7";"Rachel's Experiment (D.T.)";"1.0";"2";"1";"1";"2";"1";"1";"2014-09-10 09:14:29.404";"2014-09-10 09:27:33.033";"1";"0";"1";"113";"112";"module.training_block3.exec-3718.GoNoGo3";;;;;;;;;;;;;;;;;;;;;;;;;;;;;;;;;;;;;;;;;;;;;;;"1249";"2014-09-10 09:20:36.737";"NST_correctLoc";"17";"1";"FINISHED";"RIGHT";"success";"595";"0";"2014-09-10 09:20:35.487";"2";;;;;;;;;;;;;;;;;;;;;;;;;;;;;;;;;
"ect9128";"1991";;"Windows 7";"Rachel's Experiment (D.T.)";"1.0";"2";"1";"1";"2";"1";"1";"2014-09-10 09:14:29.404";"2014-09-10 09:27:33.033";"1";"0";"1";"114";"113";"module.training_block3.exec-3718.GoNoGo3";;;;;;;;;;;;;;;;;;;;;;;;;;;;;;;;;;;;;;;;;;;;;;;"1249";"2014-09-10 09:20:39.271";"ST_correctStop";"0";"0";"FINISHED";"NONE";"success";"0";"1";"2014-09-10 09:20:38.021";"1";;;;;;;;;;;;;;;;;;;;;;;;;;;;;;;;;
"ect9128";"1991";;"Windows 7";"Rachel's Experiment (D.T.)";"1.0";"2";"1";"1";"2";"1";"1";"2014-09-10 09:14:29.404";"2014-09-10 09:27:33.033";"1";"0";"1";"115";"114";"module.training_block3.exec-3718.GoNoGo3";;;;;;;;;;;;;;;;;;;;;;;;;;;;;;;;;;;;;;;;;;;;;;;"1249";"2014-09-10 09:20:41.799";"ST_correctStop";"29";"1";"FINISHED";"NONE";"success";"0";"1";"2014-09-10 09:20:40.549";"3";;;;;;;;;;;;;;;;;;;;;;;;;;;;;;;;;
"ect9128";"1991";;"Windows 7";"Rachel's Experiment (D.T.)";"1.0";"2";"1";"1";"2";"1";"1";"2014-09-10 09:14:29.404";"2014-09-10 09:27:33.033";"1";"0";"1";"116";"115";"module.training_block3.exec-3718.GoNoGo3";;;;;;;;;;;;;;;;;;;;;;;;;;;;;;;;;;;;;;;;;;;;;;;"1249";"2014-09-10 09:20:44.326";"NST_correctLoc";"12";"0";"FINISHED";"LEFT";"success";"490";"0";"2014-09-10 09:20:43.076";"2";;;;;;;;;;;;;;;;;;;;;;;;;;;;;;;;;
"ect9128";"1991";;"Windows 7";"Rachel's Experiment (D.T.)";"1.0";"2";"1";"1";"2";"1";"1";"2014-09-10 09:14:29.404";"2014-09-10 09:27:33.033";"1";"0";"1";"117";"116";"module.training_block3.exec-3718.GoNoGo3";;;;;;;;;;;;;;;;;;;;;;;;;;;;;;;;;;;;;;;;;;;;;;;"1249";"2014-09-10 09:20:46.856";"NST_correctLoc";"19";"0";"FINISHED";"LEFT";"success";"494";"0";"2014-09-10 09:20:45.605";"3";;;;;;;;;;;;;;;;;;;;;;;;;;;;;;;;;
"ect9128";"1991";;"Windows 7";"Rachel's Experiment (D.T.)";"1.0";"2";"1";"1";"2";"1";"1";"2014-09-10 09:14:29.404";"2014-09-10 09:27:33.033";"1";"0";"1";"118";"117";"module.training_block3.exec-3718.GoNoGo3";;;;;;;;;;;;;;;;;;;;;;;;;;;;;;;;;;;;;;;;;;;;;;;"1249";"2014-09-10 09:20:49.386";"NST_correctLoc";"24";"0";"FINISHED";"LEFT";"success";"487";"0";"2014-09-10 09:20:48.136";"3";;;;;;;;;;;;;;;;;;;;;;;;;;;;;;;;;
"ect9128";"1991";;"Windows 7";"Rachel's Experiment (D.T.)";"1.0";"2";"1";"1";"2";"1";"1";"2014-09-10 09:14:29.404";"2014-09-10 09:27:33.033";"1";"0";"1";"119";"118";"module.training_block3.exec-3718.GoNoGo3";;;;;;;;;;;;;;;;;;;;;;;;;;;;;;;;;;;;;;;;;;;;;;;"1250";"2014-09-10 09:20:51.924";"NST_correctLoc";"10";"1";"FINISHED";"RIGHT";"success";"540";"0";"2014-09-10 09:20:50.674";"2";;;;;;;;;;;;;;;;;;;;;;;;;;;;;;;;;
"ect9128";"1991";;"Windows 7";"Rachel's Experiment (D.T.)";"1.0";"2";"1";"1";"2";"1";"1";"2014-09-10 09:14:29.404";"2014-09-10 09:27:33.033";"1";"0";"1";"120";"119";"module.training_block3.exec-3718.GoNoGo3";;;;;;;;;;;;;;;;;;;;;;;;;;;;;;;;;;;;;;;;;;;;;;;"1249";"2014-09-10 09:20:54.455";"ST_correctStop";"7";"1";"FINISHED";"NONE";"success";"0";"1";"2014-09-10 09:20:53.205";"1";;;;;;;;;;;;;;;;;;;;;;;;;;;;;;;;;
"ect9128";"1991";;"Windows 7";"Rachel's Experiment (D.T.)";"1.0";"2";"1";"1";"2";"1";"1";"2014-09-10 09:14:29.404";"2014-09-10 09:27:33.033";"1";"0";"1";"121";"120";"module.training_block3.exec-3718.GoNoGo3";;;;;;;;;;;;;;;;;;;;;;;;;;;;;;;;;;;;;;;;;;;;;;;"1249";"2014-09-10 09:20:56.983";"NST_correctLoc";"9";"1";"FINISHED";"RIGHT";"success";"620";"0";"2014-09-10 09:20:55.733";"2";;;;;;;;;;;;;;;;;;;;;;;;;;;;;;;;;
"ect9128";"1991";;"Windows 7";"Rachel's Experiment (D.T.)";"1.0";"2";"1";"1";"2";"1";"1";"2014-09-10 09:14:29.404";"2014-09-10 09:27:33.033";"1";"0";"1";"122";"121";"module.training_block3.exec-3718.GoNoGo3";;;;;;;;;;;;;;;;;;;;;;;;;;;;;;;;;;;;;;;;;;;;;;;"1249";"2014-09-10 09:20:59.510";"ST_correctStop";"8";"1";"FINISHED";"NONE";"success";"0";"1";"2014-09-10 09:20:58.260";"1";;;;;;;;;;;;;;;;;;;;;;;;;;;;;;;;;
"ect9128";"1991";;"Windows 7";"Rachel's Experiment (D.T.)";"1.0";"2";"1";"1";"2";"1";"1";"2014-09-10 09:14:29.404";"2014-09-10 09:27:33.033";"1";"0";"1";"123";"122";"module.training_block3.exec-3718.GoNoGo3";;;;;;;;;;;;;;;;;;;;;;;;;;;;;;;;;;;;;;;;;;;;;;;"1249";"2014-09-10 09:21:02.051";"NST_correctLoc";"14";"1";"FINISHED";"RIGHT";"success";"663";"0";"2014-09-10 09:21:00.801";"2";;;;;;;;;;;;;;;;;;;;;;;;;;;;;;;;;
"ect9128";"1991";;"Windows 7";"Rachel's Experiment (D.T.)";"1.0";"2";"1";"1";"2";"1";"1";"2014-09-10 09:14:29.404";"2014-09-10 09:27:33.033";"1";"0";"1";"124";"123";"module.training_block4.exec-5994.GoNoGo4";;;;;;;;;;;;;;;;;;;;;;;;;;;;;;;;;;;;;;;;;;;;;;;;;;;;;;;;;;;"1249";"2014-09-10 09:21:17.289";"NST_correctLoc";"17";"1";"FINISHED";"RIGHT";"success";"527";"0";"2014-09-10 09:21:16.039";"2";;;;;;;;;;;;;;;;;;;;;
"ect9128";"1991";;"Windows 7";"Rachel's Experiment (D.T.)";"1.0";"2";"1";"1";"2";"1";"1";"2014-09-10 09:14:29.404";"2014-09-10 09:27:33.033";"1";"0";"1";"125";"124";"module.training_block4.exec-5994.GoNoGo4";;;;;;;;;;;;;;;;;;;;;;;;;;;;;;;;;;;;;;;;;;;;;;;;;;;;;;;;;;;"1249";"2014-09-10 09:21:19.817";"NST_correctLoc";"14";"1";"FINISHED";"RIGHT";"success";"668";"0";"2014-09-10 09:21:18.567";"2";;;;;;;;;;;;;;;;;;;;;
"ect9128";"1991";;"Windows 7";"Rachel's Experiment (D.T.)";"1.0";"2";"1";"1";"2";"1";"1";"2014-09-10 09:14:29.404";"2014-09-10 09:27:33.033";"1";"0";"1";"126";"125";"module.training_block4.exec-5994.GoNoGo4";;;;;;;;;;;;;;;;;;;;;;;;;;;;;;;;;;;;;;;;;;;;;;;;;;;;;;;;;;;"1249";"2014-09-10 09:21:22.349";"NST_correctLoc";"18";"0";"FINISHED";"LEFT";"success";"535";"0";"2014-09-10 09:21:21.098";"3";;;;;;;;;;;;;;;;;;;;;
"ect9128";"1991";;"Windows 7";"Rachel's Experiment (D.T.)";"1.0";"2";"1";"1";"2";"1";"1";"2014-09-10 09:14:29.404";"2014-09-10 09:27:33.033";"1";"0";"1";"127";"126";"module.training_block4.exec-5994.GoNoGo4";;;;;;;;;;;;;;;;;;;;;;;;;;;;;;;;;;;;;;;;;;;;;;;;;;;;;;;;;;;"1249";"2014-09-10 09:21:24.878";"ST_correctStop";"7";"0";"FINISHED";"NONE";"success";"0";"1";"2014-09-10 09:21:23.628";"1";;;;;;;;;;;;;;;;;;;;;
"ect9128";"1991";;"Windows 7";"Rachel's Experiment (D.T.)";"1.0";"2";"1";"1";"2";"1";"1";"2014-09-10 09:14:29.404";"2014-09-10 09:27:33.033";"1";"0";"1";"128";"127";"module.training_block4.exec-5994.GoNoGo4";;;;;;;;;;;;;;;;;;;;;;;;;;;;;;;;;;;;;;;;;;;;;;;;;;;;;;;;;;;"1249";"2014-09-10 09:21:27.409";"NST_correctLoc";"23";"0";"FINISHED";"LEFT";"success";"565";"0";"2014-09-10 09:21:26.159";"3";;;;;;;;;;;;;;;;;;;;;
"ect9128";"1991";;"Windows 7";"Rachel's Experiment (D.T.)";"1.0";"2";"1";"1";"2";"1";"1";"2014-09-10 09:14:29.404";"2014-09-10 09:27:33.033";"1";"0";"1";"129";"128";"module.training_block4.exec-5994.GoNoGo4";;;;;;;;;;;;;;;;;;;;;;;;;;;;;;;;;;;;;;;;;;;;;;;;;;;;;;;;;;;"1249";"2014-09-10 09:21:29.940";"ST_correctStop";"1";"1";"FINISHED";"NONE";"success";"0";"1";"2014-09-10 09:21:28.690";"1";;;;;;;;;;;;;;;;;;;;;
"ect9128";"1991";;"Windows 7";"Rachel's Experiment (D.T.)";"1.0";"2";"1";"1";"2";"1";"1";"2014-09-10 09:14:29.404";"2014-09-10 09:27:33.033";"1";"0";"1";"130";"129";"module.training_block4.exec-5994.GoNoGo4";;;;;;;;;;;;;;;;;;;;;;;;;;;;;;;;;;;;;;;;;;;;;;;;;;;;;;;;;;;"1249";"2014-09-10 09:21:32.470";"ST_correctStop";"32";"1";"FINISHED";"NONE";"success";"0";"1";"2014-09-10 09:21:31.220";"3";;;;;;;;;;;;;;;;;;;;;
"ect9128";"1991";;"Windows 7";"Rachel's Experiment (D.T.)";"1.0";"2";"1";"1";"2";"1";"1";"2014-09-10 09:14:29.404";"2014-09-10 09:27:33.033";"1";"0";"1";"131";"130";"module.training_block4.exec-5994.GoNoGo4";;;;;;;;;;;;;;;;;;;;;;;;;;;;;;;;;;;;;;;;;;;;;;;;;;;;;;;;;;;"1250";"2014-09-10 09:21:34.997";"NST_correctLoc";"21";"1";"FINISHED";"RIGHT";"success";"655";"0";"2014-09-10 09:21:33.747";"3";;;;;;;;;;;;;;;;;;;;;
"ect9128";"1991";;"Windows 7";"Rachel's Experiment (D.T.)";"1.0";"2";"1";"1";"2";"1";"1";"2014-09-10 09:14:29.404";"2014-09-10 09:27:33.033";"1";"0";"1";"132";"131";"module.training_block4.exec-5994.GoNoGo4";;;;;;;;;;;;;;;;;;;;;;;;;;;;;;;;;;;;;;;;;;;;;;;;;;;;;;;;;;;"1249";"2014-09-10 09:21:37.537";"ST_correctStop";"25";"1";"FINISHED";"NONE";"success";"0";"1";"2014-09-10 09:21:36.287";"3";;;;;;;;;;;;;;;;;;;;;
"ect9128";"1991";;"Windows 7";"Rachel's Experiment (D.T.)";"1.0";"2";"1";"1";"2";"1";"1";"2014-09-10 09:14:29.404";"2014-09-10 09:27:33.033";"1";"0";"1";"133";"132";"module.training_block4.exec-5994.GoNoGo4";;;;;;;;;;;;;;;;;;;;;;;;;;;;;;;;;;;;;;;;;;;;;;;;;;;;;;;;;;;"1249";"2014-09-10 09:21:40.064";"NST_correctLoc";"15";"0";"FINISHED";"LEFT";"success";"561";"0";"2014-09-10 09:21:38.814";"2";;;;;;;;;;;;;;;;;;;;;
"ect9128";"1991";;"Windows 7";"Rachel's Experiment (D.T.)";"1.0";"2";"1";"1";"2";"1";"1";"2014-09-10 09:14:29.404";"2014-09-10 09:27:33.033";"1";"0";"1";"134";"133";"module.training_block4.exec-5994.GoNoGo4";;;;;;;;;;;;;;;;;;;;;;;;;;;;;;;;;;;;;;;;;;;;;;;;;;;;;;;;;;;"1249";"2014-09-10 09:21:42.589";"ST_correctStop";"8";"0";"FINISHED";"NONE";"success";"0";"1";"2014-09-10 09:21:41.339";"1";;;;;;;;;;;;;;;;;;;;;
"ect9128";"1991";;"Windows 7";"Rachel's Experiment (D.T.)";"1.0";"2";"1";"1";"2";"1";"1";"2014-09-10 09:14:29.404";"2014-09-10 09:27:33.033";"1";"0";"1";"135";"134";"module.training_block4.exec-5994.GoNoGo4";;;;;;;;;;;;;;;;;;;;;;;;;;;;;;;;;;;;;;;;;;;;;;;;;;;;;;;;;;;"1249";"2014-09-10 09:21:45.118";"ST_correctStop";"2";"0";"FINISHED";"NONE";"success";"0";"1";"2014-09-10 09:21:43.868";"1";;;;;;;;;;;;;;;;;;;;;
"ect9128";"1991";;"Windows 7";"Rachel's Experiment (D.T.)";"1.0";"2";"1";"1";"2";"1";"1";"2014-09-10 09:14:29.404";"2014-09-10 09:27:33.033";"1";"0";"1";"136";"135";"module.training_block4.exec-5994.GoNoGo4";;;;;;;;;;;;;;;;;;;;;;;;;;;;;;;;;;;;;;;;;;;;;;;;;;;;;;;;;;;"1249";"2014-09-10 09:21:47.642";"ST_correctStop";"35";"0";"FINISHED";"NONE";"success";"0";"1";"2014-09-10 09:21:46.392";"3";;;;;;;;;;;;;;;;;;;;;
"ect9128";"1991";;"Windows 7";"Rachel's Experiment (D.T.)";"1.0";"2";"1";"1";"2";"1";"1";"2014-09-10 09:14:29.404";"2014-09-10 09:27:33.033";"1";"0";"1";"137";"136";"module.training_block4.exec-5994.GoNoGo4";;;;;;;;;;;;;;;;;;;;;;;;;;;;;;;;;;;;;;;;;;;;;;;;;;;;;;;;;;;"1249";"2014-09-10 09:21:50.170";"ST_correctStop";"24";"1";"FINISHED";"NONE";"success";"0";"1";"2014-09-10 09:21:48.920";"3";;;;;;;;;;;;;;;;;;;;;
"ect9128";"1991";;"Windows 7";"Rachel's Experiment (D.T.)";"1.0";"2";"1";"1";"2";"1";"1";"2014-09-10 09:14:29.404";"2014-09-10 09:27:33.033";"1";"0";"1";"138";"137";"module.training_block4.exec-5994.GoNoGo4";;;;;;;;;;;;;;;;;;;;;;;;;;;;;;;;;;;;;;;;;;;;;;;;;;;;;;;;;;;"1249";"2014-09-10 09:21:52.710";"NST_correctLoc";"16";"1";"FINISHED";"RIGHT";"success";"650";"0";"2014-09-10 09:21:51.460";"2";;;;;;;;;;;;;;;;;;;;;
"ect9128";"1991";;"Windows 7";"Rachel's Experiment (D.T.)";"1.0";"2";"1";"1";"2";"1";"1";"2014-09-10 09:14:29.404";"2014-09-10 09:27:33.033";"1";"0";"1";"139";"138";"module.training_block4.exec-5994.GoNoGo4";;;;;;;;;;;;;;;;;;;;;;;;;;;;;;;;;;;;;;;;;;;;;;;;;;;;;;;;;;;"1249";"2014-09-10 09:21:55.254";"ST_correctStop";"5";"1";"FINISHED";"NONE";"success";"0";"1";"2014-09-10 09:21:54.004";"1";;;;;;;;;;;;;;;;;;;;;
"ect9128";"1991";;"Windows 7";"Rachel's Experiment (D.T.)";"1.0";"2";"1";"1";"2";"1";"1";"2014-09-10 09:14:29.404";"2014-09-10 09:27:33.033";"1";"0";"1";"140";"139";"module.training_block4.exec-5994.GoNoGo4";;;;;;;;;;;;;;;;;;;;;;;;;;;;;;;;;;;;;;;;;;;;;;;;;;;;;;;;;;;"1249";"2014-09-10 09:21:57.771";"NST_correctLoc";"9";"1";"FINISHED";"RIGHT";"success";"711";"0";"2014-09-10 09:21:56.521";"2";;;;;;;;;;;;;;;;;;;;;
"ect9128";"1991";;"Windows 7";"Rachel's Experiment (D.T.)";"1.0";"2";"1";"1";"2";"1";"1";"2014-09-10 09:14:29.404";"2014-09-10 09:27:33.033";"1";"0";"1";"141";"140";"module.training_block4.exec-5994.GoNoGo4";;;;;;;;;;;;;;;;;;;;;;;;;;;;;;;;;;;;;;;;;;;;;;;;;;;;;;;;;;;"1249";"2014-09-10 09:22:00.299";"NST_correctLoc";"13";"1";"FINISHED";"RIGHT";"success";"527";"0";"2014-09-10 09:21:59.049";"2";;;;;;;;;;;;;;;;;;;;;
"ect9128";"1991";;"Windows 7";"Rachel's Experiment (D.T.)";"1.0";"2";"1";"1";"2";"1";"1";"2014-09-10 09:14:29.404";"2014-09-10 09:27:33.033";"1";"0";"1";"142";"141";"module.training_block4.exec-5994.GoNoGo4";;;;;;;;;;;;;;;;;;;;;;;;;;;;;;;;;;;;;;;;;;;;;;;;;;;;;;;;;;;"1249";"2014-09-10 09:22:02.820";"NST_correctLoc";"20";"1";"FINISHED";"RIGHT";"success";"620";"0";"2014-09-10 09:22:01.570";"3";;;;;;;;;;;;;;;;;;;;;
"ect9128";"1991";;"Windows 7";"Rachel's Experiment (D.T.)";"1.0";"2";"1";"1";"2";"1";"1";"2014-09-10 09:14:29.404";"2014-09-10 09:27:33.033";"1";"0";"1";"143";"142";"module.training_block4.exec-5994.GoNoGo4";;;;;;;;;;;;;;;;;;;;;;;;;;;;;;;;;;;;;;;;;;;;;;;;;;;;;;;;;;;"1249";"2014-09-10 09:22:05.348";"ST_correctStop";"22";"0";"FINISHED";"NONE";"success";"0";"1";"2014-09-10 09:22:04.098";"3";;;;;;;;;;;;;;;;;;;;;
"ect9128";"1991";;"Windows 7";"Rachel's Experiment (D.T.)";"1.0";"2";"1";"1";"2";"1";"1";"2014-09-10 09:14:29.404";"2014-09-10 09:27:33.033";"1";"0";"1";"144";"143";"module.training_block4.exec-5994.GoNoGo4";;;;;;;;;;;;;;;;;;;;;;;;;;;;;;;;;;;;;;;;;;;;;;;;;;;;;;;;;;;"1249";"2014-09-10 09:22:07.875";"NST_correctLoc";"28";"1";"FINISHED";"RIGHT";"success";"600";"0";"2014-09-10 09:22:06.625";"3";;;;;;;;;;;;;;;;;;;;;
"ect9128";"1991";;"Windows 7";"Rachel's Experiment (D.T.)";"1.0";"2";"1";"1";"2";"1";"1";"2014-09-10 09:14:29.404";"2014-09-10 09:27:33.033";"1";"0";"1";"145";"144";"module.training_block4.exec-5994.GoNoGo4";;;;;;;;;;;;;;;;;;;;;;;;;;;;;;;;;;;;;;;;;;;;;;;;;;;;;;;;;;;"1250";"2014-09-10 09:22:10.413";"ST_correctStop";"6";"1";"FINISHED";"NONE";"success";"0";"1";"2014-09-10 09:22:09.163";"1";;;;;;;;;;;;;;;;;;;;;
"ect9128";"1991";;"Windows 7";"Rachel's Experiment (D.T.)";"1.0";"2";"1";"1";"2";"1";"1";"2014-09-10 09:14:29.404";"2014-09-10 09:27:33.033";"1";"0";"1";"146";"145";"module.training_block4.exec-5994.GoNoGo4";;;;;;;;;;;;;;;;;;;;;;;;;;;;;;;;;;;;;;;;;;;;;;;;;;;;;;;;;;;"1249";"2014-09-10 09:22:12.941";"NST_correctLoc";"11";"0";"FINISHED";"LEFT";"success";"511";"0";"2014-09-10 09:22:11.691";"2";;;;;;;;;;;;;;;;;;;;;
"ect9128";"1991";;"Windows 7";"Rachel's Experiment (D.T.)";"1.0";"2";"1";"1";"2";"1";"1";"2014-09-10 09:14:29.404";"2014-09-10 09:27:33.033";"1";"0";"1";"147";"146";"module.training_block4.exec-5994.GoNoGo4";;;;;;;;;;;;;;;;;;;;;;;;;;;;;;;;;;;;;;;;;;;;;;;;;;;;;;;;;;;"1249";"2014-09-10 09:22:15.469";"NST_correctLoc";"19";"0";"FINISHED";"LEFT";"success";"554";"0";"2014-09-10 09:22:14.219";"3";;;;;;;;;;;;;;;;;;;;;
"ect9128";"1991";;"Windows 7";"Rachel's Experiment (D.T.)";"1.0";"2";"1";"1";"2";"1";"1";"2014-09-10 09:14:29.404";"2014-09-10 09:27:33.033";"1";"0";"1";"148";"147";"module.training_block4.exec-5994.GoNoGo4";;;;;;;;;;;;;;;;;;;;;;;;;;;;;;;;;;;;;;;;;;;;;;;;;;;;;;;;;;;"1249";"2014-09-10 09:22:17.998";"NST_correctLoc";"34";"0";"FINISHED";"LEFT";"success";"684";"0";"2014-09-10 09:22:16.748";"3";;;;;;;;;;;;;;;;;;;;;
"ect9128";"1991";;"Windows 7";"Rachel's Experiment (D.T.)";"1.0";"2";"1";"1";"2";"1";"1";"2014-09-10 09:14:29.404";"2014-09-10 09:27:33.033";"1";"0";"1";"149";"148";"module.training_block4.exec-5994.GoNoGo4";;;;;;;;;;;;;;;;;;;;;;;;;;;;;;;;;;;;;;;;;;;;;;;;;;;;;;;;;;;"1249";"2014-09-10 09:22:20.528";"ST_correctStop";"30";"1";"FINISHED";"NONE";"success";"0";"1";"2014-09-10 09:22:19.278";"3";;;;;;;;;;;;;;;;;;;;;
"ect9128";"1991";;"Windows 7";"Rachel's Experiment (D.T.)";"1.0";"2";"1";"1";"2";"1";"1";"2014-09-10 09:14:29.404";"2014-09-10 09:27:33.033";"1";"0";"1";"150";"149";"module.training_block4.exec-5994.GoNoGo4";;;;;;;;;;;;;;;;;;;;;;;;;;;;;;;;;;;;;;;;;;;;;;;;;;;;;;;;;;;"1249";"2014-09-10 09:22:23.056";"ST_correctStop";"33";"0";"FINISHED";"NONE";"success";"0";"1";"2014-09-10 09:22:21.806";"3";;;;;;;;;;;;;;;;;;;;;
"ect9128";"1991";;"Windows 7";"Rachel's Experiment (D.T.)";"1.0";"2";"1";"1";"2";"1";"1";"2014-09-10 09:14:29.404";"2014-09-10 09:27:33.033";"1";"0";"1";"151";"150";"module.training_block4.exec-5994.GoNoGo4";;;;;;;;;;;;;;;;;;;;;;;;;;;;;;;;;;;;;;;;;;;;;;;;;;;;;;;;;;;"1249";"2014-09-10 09:22:25.583";"ST_correctStop";"26";"0";"FINISHED";"NONE";"success";"0";"1";"2014-09-10 09:22:24.333";"3";;;;;;;;;;;;;;;;;;;;;
"ect9128";"1991";;"Windows 7";"Rachel's Experiment (D.T.)";"1.0";"2";"1";"1";"2";"1";"1";"2014-09-10 09:14:29.404";"2014-09-10 09:27:33.033";"1";"0";"1";"152";"151";"module.training_block4.exec-5994.GoNoGo4";;;;;;;;;;;;;;;;;;;;;;;;;;;;;;;;;;;;;;;;;;;;;;;;;;;;;;;;;;;"1249";"2014-09-10 09:22:28.113";"ST_correctStop";"31";"0";"FINISHED";"NONE";"success";"0";"1";"2014-09-10 09:22:26.863";"3";;;;;;;;;;;;;;;;;;;;;
"ect9128";"1991";;"Windows 7";"Rachel's Experiment (D.T.)";"1.0";"2";"1";"1";"2";"1";"1";"2014-09-10 09:14:29.404";"2014-09-10 09:27:33.033";"1";"0";"1";"153";"152";"module.training_block4.exec-5994.GoNoGo4";;;;;;;;;;;;;;;;;;;;;;;;;;;;;;;;;;;;;;;;;;;;;;;;;;;;;;;;;;;"1249";"2014-09-10 09:22:30.641";"ST_correctStop";"4";"1";"FINISHED";"NONE";"success";"0";"1";"2014-09-10 09:22:29.391";"1";;;;;;;;;;;;;;;;;;;;;
"ect9128";"1991";;"Windows 7";"Rachel's Experiment (D.T.)";"1.0";"2";"1";"1";"2";"1";"1";"2014-09-10 09:14:29.404";"2014-09-10 09:27:33.033";"1";"0";"1";"154";"153";"module.training_block4.exec-5994.GoNoGo4";;;;;;;;;;;;;;;;;;;;;;;;;;;;;;;;;;;;;;;;;;;;;;;;;;;;;;;;;;;"1249";"2014-09-10 09:22:33.173";"NST_correctLoc";"29";"1";"FINISHED";"RIGHT";"success";"684";"0";"2014-09-10 09:22:31.923";"3";;;;;;;;;;;;;;;;;;;;;
"ect9128";"1991";;"Windows 7";"Rachel's Experiment (D.T.)";"1.0";"2";"1";"1";"2";"1";"1";"2014-09-10 09:14:29.404";"2014-09-10 09:27:33.033";"1";"0";"1";"155";"154";"module.training_block4.exec-5994.GoNoGo4";;;;;;;;;;;;;;;;;;;;;;;;;;;;;;;;;;;;;;;;;;;;;;;;;;;;;;;;;;;"1249";"2014-09-10 09:22:35.714";"ST_correctStop";"0";"0";"FINISHED";"NONE";"success";"0";"1";"2014-09-10 09:22:34.464";"1";;;;;;;;;;;;;;;;;;;;;
"ect9128";"1991";;"Windows 7";"Rachel's Experiment (D.T.)";"1.0";"2";"1";"1";"2";"1";"1";"2014-09-10 09:14:29.404";"2014-09-10 09:27:33.033";"1";"0";"1";"156";"155";"module.training_block4.exec-5994.GoNoGo4";;;;;;;;;;;;;;;;;;;;;;;;;;;;;;;;;;;;;;;;;;;;;;;;;;;;;;;;;;;"1249";"2014-09-10 09:22:38.240";"ST_correctStop";"3";"1";"FINISHED";"NONE";"success";"0";"1";"2014-09-10 09:22:36.990";"1";;;;;;;;;;;;;;;;;;;;;
"ect9128";"1991";;"Windows 7";"Rachel's Experiment (D.T.)";"1.0";"2";"1";"1";"2";"1";"1";"2014-09-10 09:14:29.404";"2014-09-10 09:27:33.033";"1";"0";"1";"157";"156";"module.training_block4.exec-5994.GoNoGo4";;;;;;;;;;;;;;;;;;;;;;;;;;;;;;;;;;;;;;;;;;;;;;;;;;;;;;;;;;;"1249";"2014-09-10 09:22:40.769";"NST_correctLoc";"12";"0";"FINISHED";"LEFT";"success";"491";"0";"2014-09-10 09:22:39.519";"2";;;;;;;;;;;;;;;;;;;;;
"ect9128";"1991";;"Windows 7";"Rachel's Experiment (D.T.)";"1.0";"2";"1";"1";"2";"1";"1";"2014-09-10 09:14:29.404";"2014-09-10 09:27:33.033";"1";"0";"1";"158";"157";"module.training_block4.exec-5994.GoNoGo4";;;;;;;;;;;;;;;;;;;;;;;;;;;;;;;;;;;;;;;;;;;;;;;;;;;;;;;;;;;"1249";"2014-09-10 09:22:43.298";"NST_correctLoc";"27";"0";"FINISHED";"LEFT";"success";"625";"0";"2014-09-10 09:22:42.048";"3";;;;;;;;;;;;;;;;;;;;;
"ect9128";"1991";;"Windows 7";"Rachel's Experiment (D.T.)";"1.0";"2";"1";"1";"2";"1";"1";"2014-09-10 09:14:29.404";"2014-09-10 09:27:33.033";"1";"0";"1";"159";"158";"module.training_block4.exec-5994.GoNoGo4";;;;;;;;;;;;;;;;;;;;;;;;;;;;;;;;;;;;;;;;;;;;;;;;;;;;;;;;;;;"1249";"2014-09-10 09:22:45.832";"NST_correctLoc";"10";"0";"FINISHED";"LEFT";"success";"580";"0";"2014-09-10 09:22:44.582";"2";;;;;;;;;;;;;;;;;;;;;
"ect9128";"1991";;"Windows 7";"Rachel's Experiment (D.T.)";"1.0";"2";"1";"1";"2";"1";"1";"2014-09-10 09:14:29.404";"2014-09-10 09:27:33.033";"1";"0";"1";"160";"159";"module.devaluation_practice.exec-3705.devalPractice";;;;;;;;;;;;"16202";"2014-09-10 09:23:20.334";"0";"6";"6";"8";"4485";"2474";"6179";"2014-09-10 09:23:04.132";;;;;;;;;;;;;;;;;;;;;;;;;;;;;;;;;;;;;;;;;;;;;;;;;;;;;;;;;;;;;;;;;;;;;;
"ect9128";"1991";;"Windows 7";"Rachel's Experiment (D.T.)";"1.0";"2";"1";"1";"2";"1";"1";"2014-09-10 09:14:29.404";"2014-09-10 09:27:33.033";"1";"0";"1";"161";"160";"module.devaluation_practice.exec-3705.devalPractice";;;;;;;;;;;;"10336";"2014-09-10 09:23:30.702";"1";"4";"4";"6";"2505";"2845";"1976";"2014-09-10 09:23:20.365";;;;;;;;;;;;;;;;;;;;;;;;;;;;;;;;;;;;;;;;;;;;;;;;;;;;;;;;;;;;;;;;;;;;;;
"ect9128";"1991";;"Windows 7";"Rachel's Experiment (D.T.)";"1.0";"2";"1";"1";"2";"1";"1";"2014-09-10 09:14:29.404";"2014-09-10 09:27:33.033";"1";"0";"1";"162";"161";"module.devaluation_practice.exec-3705.devalPractice";;;;;;;;;;;;"10100";"2014-09-10 09:23:40.834";"2";"8";"5";"7";"2626";"2348";"2114";"2014-09-10 09:23:30.735";;;;;;;;;;;;;;;;;;;;;;;;;;;;;;;;;;;;;;;;;;;;;;;;;;;;;;;;;;;;;;;;;;;;;;
"ect9128";"1991";;"Windows 7";"Rachel's Experiment (D.T.)";"1.0";"2";"1";"1";"2";"1";"1";"2014-09-10 09:14:29.404";"2014-09-10 09:27:33.033";"1";"0";"1";"163";"162";"module.devaluation_practice.exec-3705.devalPractice";;;;;;;;;;;;"8832";"2014-09-10 09:23:49.703";"3";"8";"7";"7";"1456";"1333";"3031";"2014-09-10 09:23:40.870";;;;;;;;;;;;;;;;;;;;;;;;;;;;;;;;;;;;;;;;;;;;;;;;;;;;;;;;;;;;;;;;;;;;;;
"ect9128";"1991";;"Windows 7";"Rachel's Experiment (D.T.)";"1.0";"2";"1";"1";"2";"1";"1";"2014-09-10 09:14:29.404";"2014-09-10 09:27:33.033";"1";"0";"1";"164";"163";"module.devaluation_block1.exec-1575.deval1";"9937";"2014-09-10 09:24:03.726";"19";"7";"6";"8";"1500";"3542";"1877";"2014-09-10 09:23:53.788";"3";;;;;;;;;;;;;;;;;;;;;;;;;;;;;;;;;;;;;;;;;;;;;;;;;;;;;;;;;;;;;;;;;;;;;;;;;;;;;;;;
"ect9128";"1991";;"Windows 7";"Rachel's Experiment (D.T.)";"1.0";"2";"1";"1";"2";"1";"1";"2014-09-10 09:14:29.404";"2014-09-10 09:27:33.033";"1";"0";"1";"165";"164";"module.devaluation_block1.exec-1575.deval1";"7140";"2014-09-10 09:24:10.884";"9";"4";"6";"6";"890";"1182";"2055";"2014-09-10 09:24:03.744";"2";;;;;;;;;;;;;;;;;;;;;;;;;;;;;;;;;;;;;;;;;;;;;;;;;;;;;;;;;;;;;;;;;;;;;;;;;;;;;;;;
"ect9128";"1991";;"Windows 7";"Rachel's Experiment (D.T.)";"1.0";"2";"1";"1";"2";"1";"1";"2014-09-10 09:14:29.404";"2014-09-10 09:27:33.033";"1";"0";"1";"166";"165";"module.devaluation_block1.exec-1575.deval1";"6603";"2014-09-10 09:24:17.524";"18";"7";"5";"5";"893";"1882";"813";"2014-09-10 09:24:10.920";"3";;;;;;;;;;;;;;;;;;;;;;;;;;;;;;;;;;;;;;;;;;;;;;;;;;;;;;;;;;;;;;;;;;;;;;;;;;;;;;;;
"ect9128";"1991";;"Windows 7";"Rachel's Experiment (D.T.)";"1.0";"2";"1";"1";"2";"1";"1";"2014-09-10 09:14:29.404";"2014-09-10 09:27:33.033";"1";"0";"1";"167";"166";"module.devaluation_block1.exec-1575.deval1";"8563";"2014-09-10 09:24:26.115";"8";"6";"5";"6";"1651";"2450";"1415";"2014-09-10 09:24:17.552";"1";;;;;;;;;;;;;;;;;;;;;;;;;;;;;;;;;;;;;;;;;;;;;;;;;;;;;;;;;;;;;;;;;;;;;;;;;;;;;;;;
"ect9128";"1991";;"Windows 7";"Rachel's Experiment (D.T.)";"1.0";"2";"1";"1";"2";"1";"1";"2014-09-10 09:14:29.404";"2014-09-10 09:27:33.033";"1";"0";"1";"168";"167";"module.devaluation_block1.exec-1575.deval1";"8495";"2014-09-10 09:24:34.644";"17";"2";"3";"4";"2030";"1574";"1876";"2014-09-10 09:24:26.148";"2";;;;;;;;;;;;;;;;;;;;;;;;;;;;;;;;;;;;;;;;;;;;;;;;;;;;;;;;;;;;;;;;;;;;;;;;;;;;;;;;
"ect9128";"1991";;"Windows 7";"Rachel's Experiment (D.T.)";"1.0";"2";"1";"1";"2";"1";"1";"2014-09-10 09:14:29.404";"2014-09-10 09:27:33.033";"1";"0";"1";"169";"168";"module.devaluation_block1.exec-1575.deval1";"7693";"2014-09-10 09:24:42.371";"2";"4";"4";"6";"798";"2453";"1429";"2014-09-10 09:24:34.677";"1";;;;;;;;;;;;;;;;;;;;;;;;;;;;;;;;;;;;;;;;;;;;;;;;;;;;;;;;;;;;;;;;;;;;;;;;;;;;;;;;
"ect9128";"1991";;"Windows 7";"Rachel's Experiment (D.T.)";"1.0";"2";"1";"1";"2";"1";"1";"2014-09-10 09:14:29.404";"2014-09-10 09:27:33.033";"1";"0";"1";"170";"169";"module.devaluation_block1.exec-1575.deval1";"7843";"2014-09-10 09:24:50.246";"25";"6";"2";"5";"1692";"1537";"1602";"2014-09-10 09:24:42.403";"3";;;;;;;;;;;;;;;;;;;;;;;;;;;;;;;;;;;;;;;;;;;;;;;;;;;;;;;;;;;;;;;;;;;;;;;;;;;;;;;;
"ect9128";"1991";;"Windows 7";"Rachel's Experiment (D.T.)";"1.0";"2";"1";"1";"2";"1";"1";"2014-09-10 09:14:29.404";"2014-09-10 09:27:33.033";"1";"0";"1";"171";"170";"module.devaluation_block1.exec-1575.deval1";"6874";"2014-09-10 09:24:57.154";"0";"6";"7";"8";"1010";"850";"2001";"2014-09-10 09:24:50.279";"1";;;;;;;;;;;;;;;;;;;;;;;;;;;;;;;;;;;;;;;;;;;;;;;;;;;;;;;;;;;;;;;;;;;;;;;;;;;;;;;;
"ect9128";"1991";;"Windows 7";"Rachel's Experiment (D.T.)";"1.0";"2";"1";"1";"2";"1";"1";"2014-09-10 09:14:29.404";"2014-09-10 09:27:33.033";"1";"0";"1";"172";"171";"module.devaluation_block1.exec-1575.deval1";"9244";"2014-09-10 09:25:06.431";"23";"9";"6";"7";"2355";"2033";"1843";"2014-09-10 09:24:57.187";"3";;;;;;;;;;;;;;;;;;;;;;;;;;;;;;;;;;;;;;;;;;;;;;;;;;;;;;;;;;;;;;;;;;;;;;;;;;;;;;;;
"ect9128";"1991";;"Windows 7";"Rachel's Experiment (D.T.)";"1.0";"2";"1";"1";"2";"1";"1";"2014-09-10 09:14:29.404";"2014-09-10 09:27:33.033";"1";"0";"1";"173";"172";"module.devaluation_block1.exec-1575.deval1";"8142";"2014-09-10 09:25:14.604";"5";"6";"5";"8";"1065";"2692";"1371";"2014-09-10 09:25:06.461";"1";;;;;;;;;;;;;;;;;;;;;;;;;;;;;;;;;;;;;;;;;;;;;;;;;;;;;;;;;;;;;;;;;;;;;;;;;;;;;;;;
"ect9128";"1991";;"Windows 7";"Rachel's Experiment (D.T.)";"1.0";"2";"1";"1";"2";"1";"1";"2014-09-10 09:14:29.404";"2014-09-10 09:27:33.033";"1";"0";"1";"174";"173";"module.devaluation_block1.exec-1575.deval1";"7698";"2014-09-10 09:25:22.335";"14";"7";"5";"7";"984";"1757";"1943";"2014-09-10 09:25:14.637";"2";;;;;;;;;;;;;;;;;;;;;;;;;;;;;;;;;;;;;;;;;;;;;;;;;;;;;;;;;;;;;;;;;;;;;;;;;;;;;;;;
"ect9128";"1991";;"Windows 7";"Rachel's Experiment (D.T.)";"1.0";"2";"1";"1";"2";"1";"1";"2014-09-10 09:14:29.404";"2014-09-10 09:27:33.033";"1";"0";"1";"175";"174";"module.devaluation_block1.exec-1575.deval1";"9525";"2014-09-10 09:25:31.895";"24";"7";"4";"9";"1295";"3634";"1583";"2014-09-10 09:25:22.369";"3";;;;;;;;;;;;;;;;;;;;;;;;;;;;;;;;;;;;;;;;;;;;;;;;;;;;;;;;;;;;;;;;;;;;;;;;;;;;;;;;
"ect9128";"1991";;"Windows 7";"Rachel's Experiment (D.T.)";"1.0";"2";"1";"1";"2";"1";"1";"2014-09-10 09:14:29.404";"2014-09-10 09:27:33.033";"1";"0";"1";"176";"175";"module.devaluation_block1.exec-1575.deval1";"10345";"2014-09-10 09:25:42.271";"16";"3";"2";"4";"1980";"3648";"1697";"2014-09-10 09:25:31.925";"2";;;;;;;;;;;;;;;;;;;;;;;;;;;;;;;;;;;;;;;;;;;;;;;;;;;;;;;;;;;;;;;;;;;;;;;;;;;;;;;;
"ect9128";"1991";;"Windows 7";"Rachel's Experiment (D.T.)";"1.0";"2";"1";"1";"2";"1";"1";"2014-09-10 09:14:29.404";"2014-09-10 09:27:33.033";"1";"0";"1";"177";"176";"module.devaluation_block1.exec-1575.deval1";"7521";"2014-09-10 09:25:49.827";"11";"6";"3";"6";"729";"1856";"1917";"2014-09-10 09:25:42.305";"2";;;;;;;;;;;;;;;;;;;;;;;;;;;;;;;;;;;;;;;;;;;;;;;;;;;;;;;;;;;;;;;;;;;;;;;;;;;;;;;;
"ect9128";"1991";;"Windows 7";"Rachel's Experiment (D.T.)";"1.0";"2";"1";"1";"2";"1";"1";"2014-09-10 09:14:29.404";"2014-09-10 09:27:33.033";"1";"0";"1";"178";"177";"module.devaluation_block1.exec-1575.deval1";"8537";"2014-09-10 09:25:58.397";"10";"8";"5";"8";"2454";"865";"2205";"2014-09-10 09:25:49.860";"2";;;;;;;;;;;;;;;;;;;;;;;;;;;;;;;;;;;;;;;;;;;;;;;;;;;;;;;;;;;;;;;;;;;;;;;;;;;;;;;;
"ect9128";"1991";;"Windows 7";"Rachel's Experiment (D.T.)";"1.0";"2";"1";"1";"2";"1";"1";"2014-09-10 09:14:29.404";"2014-09-10 09:27:33.033";"1";"0";"1";"179";"178";"module.devaluation_block1.exec-1575.deval1";"9479";"2014-09-10 09:26:07.914";"6";"5";"4";"6";"4008";"1279";"1179";"2014-09-10 09:25:58.433";"1";;;;;;;;;;;;;;;;;;;;;;;;;;;;;;;;;;;;;;;;;;;;;;;;;;;;;;;;;;;;;;;;;;;;;;;;;;;;;;;;
"ect9128";"1991";;"Windows 7";"Rachel's Experiment (D.T.)";"1.0";"2";"1";"1";"2";"1";"1";"2014-09-10 09:14:29.404";"2014-09-10 09:27:33.033";"1";"0";"1";"180";"179";"module.devaluation_block1.exec-1575.deval1";"7836";"2014-09-10 09:26:15.783";"12";"7";"6";"7";"925";"1674";"2224";"2014-09-10 09:26:07.947";"2";;;;;;;;;;;;;;;;;;;;;;;;;;;;;;;;;;;;;;;;;;;;;;;;;;;;;;;;;;;;;;;;;;;;;;;;;;;;;;;;
"ect9128";"1991";;"Windows 7";"Rachel's Experiment (D.T.)";"1.0";"2";"1";"1";"2";"1";"1";"2014-09-10 09:14:29.404";"2014-09-10 09:27:33.033";"1";"0";"1";"181";"180";"module.devaluation_block1.exec-1575.deval1";"6368";"2014-09-10 09:26:22.185";"13";"4";"3";"6";"683";"1488";"1184";"2014-09-10 09:26:15.816";"2";;;;;;;;;;;;;;;;;;;;;;;;;;;;;;;;;;;;;;;;;;;;;;;;;;;;;;;;;;;;;;;;;;;;;;;;;;;;;;;;
"ect9128";"1991";;"Windows 7";"Rachel's Experiment (D.T.)";"1.0";"2";"1";"1";"2";"1";"1";"2014-09-10 09:14:29.404";"2014-09-10 09:27:33.033";"1";"0";"1";"182";"181";"module.devaluation_block1.exec-1575.deval1";"7715";"2014-09-10 09:26:29.930";"1";"2";"2";"5";"2118";"1600";"983";"2014-09-10 09:26:22.215";"1";;;;;;;;;;;;;;;;;;;;;;;;;;;;;;;;;;;;;;;;;;;;;;;;;;;;;;;;;;;;;;;;;;;;;;;;;;;;;;;;
"ect9128";"1991";;"Windows 7";"Rachel's Experiment (D.T.)";"1.0";"2";"1";"1";"2";"1";"1";"2014-09-10 09:14:29.404";"2014-09-10 09:27:33.033";"1";"0";"1";"183";"182";"module.devaluation_block1.exec-1575.deval1";"7635";"2014-09-10 09:26:37.600";"3";"4";"5";"7";"2526";"677";"1420";"2014-09-10 09:26:29.963";"1";;;;;;;;;;;;;;;;;;;;;;;;;;;;;;;;;;;;;;;;;;;;;;;;;;;;;;;;;;;;;;;;;;;;;;;;;;;;;;;;
"ect9128";"1991";;"Windows 7";"Rachel's Experiment (D.T.)";"1.0";"2";"1";"1";"2";"1";"1";"2014-09-10 09:14:29.404";"2014-09-10 09:27:33.033";"1";"0";"1";"184";"183";"module.devaluation_block1.exec-1575.deval1";"8322";"2014-09-10 09:26:45.955";"4";"8";"6";"5";"1724";"2411";"1167";"2014-09-10 09:26:37.633";"1";;;;;;;;;;;;;;;;;;;;;;;;;;;;;;;;;;;;;;;;;;;;;;;;;;;;;;;;;;;;;;;;;;;;;;;;;;;;;;;;
"ect9128";"1991";;"Windows 7";"Rachel's Experiment (D.T.)";"1.0";"2";"1";"1";"2";"1";"1";"2014-09-10 09:14:29.404";"2014-09-10 09:27:33.033";"1";"0";"1";"185";"184";"module.devaluation_block1.exec-1575.deval1";"9725";"2014-09-10 09:26:55.715";"7";"4";"2";"3";"2207";"2400";"2106";"2014-09-10 09:26:45.989";"1";;;;;;;;;;;;;;;;;;;;;;;;;;;;;;;;;;;;;;;;;;;;;;;;;;;;;;;;;;;;;;;;;;;;;;;;;;;;;;;;
"ect9128";"1991";;"Windows 7";"Rachel's Experiment (D.T.)";"1.0";"2";"1";"1";"2";"1";"1";"2014-09-10 09:14:29.404";"2014-09-10 09:27:33.033";"1";"0";"1";"186";"185";"module.devaluation_block1.exec-1575.deval1";"7138";"2014-09-10 09:27:02.886";"20";"6";"5";"8";"1252";"868";"2005";"2014-09-10 09:26:55.748";"3";;;;;;;;;;;;;;;;;;;;;;;;;;;;;;;;;;;;;;;;;;;;;;;;;;;;;;;;;;;;;;;;;;;;;;;;;;;;;;;;
"ect9128";"1991";;"Windows 7";"Rachel's Experiment (D.T.)";"1.0";"2";"1";"1";"2";"1";"1";"2014-09-10 09:14:29.404";"2014-09-10 09:27:33.033";"1";"0";"1";"187";"186";"module.devaluation_block1.exec-1575.deval1";"6391";"2014-09-10 09:27:09.310";"26";"9";"6";"8";"1453";"811";"1112";"2014-09-10 09:27:02.918";"3";;;;;;;;;;;;;;;;;;;;;;;;;;;;;;;;;;;;;;;;;;;;;;;;;;;;;;;;;;;;;;;;;;;;;;;;;;;;;;;;
"ect9128";"1991";;"Windows 7";"Rachel's Experiment (D.T.)";"1.0";"2";"1";"1";"2";"1";"1";"2014-09-10 09:14:29.404";"2014-09-10 09:27:33.033";"1";"0";"1";"188";"187";"module.devaluation_block1.exec-1575.deval1";"7391";"2014-09-10 09:27:16.731";"21";"5";"3";"6";"1720";"1424";"1235";"2014-09-10 09:27:09.339";"3";;;;;;;;;;;;;;;;;;;;;;;;;;;;;;;;;;;;;;;;;;;;;;;;;;;;;;;;;;;;;;;;;;;;;;;;;;;;;;;;
"ect9128";"1991";;"Windows 7";"Rachel's Experiment (D.T.)";"1.0";"2";"1";"1";"2";"1";"1";"2014-09-10 09:14:29.404";"2014-09-10 09:27:33.033";"1";"0";"1";"189";"188";"module.devaluation_block1.exec-1575.deval1";"7823";"2014-09-10 09:27:24.582";"15";"3";"1";"3";"1009";"1618";"2185";"2014-09-10 09:27:16.759";"2";;;;;;;;;;;;;;;;;;;;;;;;;;;;;;;;;;;;;;;;;;;;;;;;;;;;;;;;;;;;;;;;;;;;;;;;;;;;;;;;
"ect9128";"1991";;"Windows 7";"Rachel's Experiment (D.T.)";"1.0";"2";"1";"1";"2";"1";"1";"2014-09-10 09:14:29.404";"2014-09-10 09:27:33.033";"1";"0";"1";"190";"189";"module.devaluation_block1.exec-1575.deval1";"6869";"2014-09-10 09:27:31.485";"22";"6";"5";"8";"1799";"864";"1194";"2014-09-10 09:27:24.615";"3";;;;;;;;;;;;;;;;;;;;;;;;;;;;;;;;;;;;;;;;;;;;;;;;;;;;;;;;;;;;;;;;;;;;;;;;;;;;;;;;
