"user.name";"user.yearOfBirth";"user.sex";"user.osName";"module.name";"module.version";"module.online.subject.code";"module.online.study.id";"module.online.module.nr";"module.online.group.nr";"session.id";"session.index";"session.startTime";"session.endTime";"session.completed";"session.node-1157.DevalQorder";"session.node-5015.conditionType";"trial.id";"trial.index";"trial.name";"trial.deval1.durationTime";"trial.deval1.endTime";"trial.deval1.icon";"trial.deval1.Resp_Attractive";"trial.deval1.Resp_Eat";"trial.deval1.Resp_Taste";"trial.deval1.RT_Attractive";"trial.deval1.RT_Eat";"trial.deval1.RT_Taste";"trial.deval1.startTime";"trial.deval1.stimulus type";"trial.devalPractice.durationTime";"trial.devalPractice.endTime";"trial.devalPractice.icon";"trial.devalPractice.Resp_Attractive";"trial.devalPractice.Resp_Eat";"trial.devalPractice.Resp_Taste";"trial.devalPractice.RT_Attractive";"trial.devalPractice.RT_Eat";"trial.devalPractice.RT_Taste";"trial.devalPractice.startTime";"trial.devalPractice.stimulus type";"trial.GoNoGo1.durationTime";"trial.GoNoGo1.endTime";"trial.GoNoGo1.Error Type";"trial.GoNoGo1.icon";"trial.GoNoGo1.location";"trial.GoNoGo1.outcome";"trial.GoNoGo1.response";"trial.GoNoGo1.result";"trial.GoNoGo1.RT";"trial.GoNoGo1.signal";"trial.GoNoGo1.startTime";"trial.GoNoGo1.stimulus type";"trial.GoNoGo2.durationTime";"trial.GoNoGo2.endTime";"trial.GoNoGo2.Error Type";"trial.GoNoGo2.icon";"trial.GoNoGo2.location";"trial.GoNoGo2.outcome";"trial.GoNoGo2.response";"trial.GoNoGo2.result";"trial.GoNoGo2.RT";"trial.GoNoGo2.signal";"trial.GoNoGo2.startTime";"trial.GoNoGo2.stimulus type";"trial.GoNoGo3.durationTime";"trial.GoNoGo3.endTime";"trial.GoNoGo3.Error Type";"trial.GoNoGo3.icon";"trial.GoNoGo3.location";"trial.GoNoGo3.outcome";"trial.GoNoGo3.response";"trial.GoNoGo3.result";"trial.GoNoGo3.RT";"trial.GoNoGo3.signal";"trial.GoNoGo3.startTime";"trial.GoNoGo3.stimulus type";"trial.GoNoGo4.durationTime";"trial.GoNoGo4.endTime";"trial.GoNoGo4.Error Type";"trial.GoNoGo4.icon";"trial.GoNoGo4.location";"trial.GoNoGo4.outcome";"trial.GoNoGo4.response";"trial.GoNoGo4.result";"trial.GoNoGo4.RT";"trial.GoNoGo4.signal";"trial.GoNoGo4.startTime";"trial.GoNoGo4.stimulus type";"trial.GoNoGo_Practice.durationTime";"trial.GoNoGo_Practice.endTime";"trial.GoNoGo_Practice.icon";"trial.GoNoGo_Practice.location";"trial.GoNoGo_Practice.outcome";"trial.GoNoGo_Practice.response";"trial.GoNoGo_Practice.result";"trial.GoNoGo_Practice.RT";"trial.GoNoGo_Practice.signal";"trial.GoNoGo_Practice.startTime";"trial.GoNoGo_Practice.stimulus type";"trial.GoNoGo_Tutorial.durationTime";"trial.GoNoGo_Tutorial.endTime";"trial.GoNoGo_Tutorial.icon";"trial.GoNoGo_Tutorial.location";"trial.GoNoGo_Tutorial.outcome";"trial.GoNoGo_Tutorial.response";"trial.GoNoGo_Tutorial.result";"trial.GoNoGo_Tutorial.RT";"trial.GoNoGo_Tutorial.signal";"trial.GoNoGo_Tutorial.startTime"
"adj895";"1995";;"Windows 7";"Rachel's Experiment (D.T.)";"1.0";"2";"1";"1";"2";"1";"1";"2014-10-07 09:51:53.273";"2014-10-07 10:04:44.585";"1";"1";"0";"1";"0";"module.GoNoGotutorial.exec-2933.GoNoGo_Tutorial";;;;;;;;;;;;;;;;;;;;;;;;;;;;;;;;;;;;;;;;;;;;;;;;;;;;;;;;;;;;;;;;;;;;;;;;;;;;;;;;;;"3996";"2014-10-07 09:52:37.710";"leftResponse";"0";"FINISHED";"LEFT";"success";"907";"0";"2014-10-07 09:52:33.710"
"adj895";"1995";;"Windows 7";"Rachel's Experiment (D.T.)";"1.0";"2";"1";"1";"2";"1";"1";"2014-10-07 09:51:53.273";"2014-10-07 10:04:44.585";"1";"1";"0";"2";"1";"module.GoNoGotutorial.exec-2933.GoNoGo_Tutorial";;;;;;;;;;;;;;;;;;;;;;;;;;;;;;;;;;;;;;;;;;;;;;;;;;;;;;;;;;;;;;;;;;;;;;;;;;;;;;;;;;"3994";"2014-10-07 09:52:42.992";"rightResponse";"1";"FINISHED";"RIGHT";"success";"824";"0";"2014-10-07 09:52:38.992"
"adj895";"1995";;"Windows 7";"Rachel's Experiment (D.T.)";"1.0";"2";"1";"1";"2";"1";"1";"2014-10-07 09:51:53.273";"2014-10-07 10:04:44.585";"1";"1";"0";"3";"2";"module.GoNoGotutorial.exec-2933.GoNoGo_Tutorial";;;;;;;;;;;;;;;;;;;;;;;;;;;;;;;;;;;;;;;;;;;;;;;;;;;;;;;;;;;;;;;;;;;;;;;;;;;;;;;;;;"3994";"2014-10-07 09:52:48.257";"quickResponse";"0";"FINISHED";"NONE";"failure";"0";"0";"2014-10-07 09:52:44.257"
"adj895";"1995";;"Windows 7";"Rachel's Experiment (D.T.)";"1.0";"2";"1";"1";"2";"1";"1";"2014-10-07 09:51:53.273";"2014-10-07 10:04:44.585";"1";"1";"0";"4";"3";"module.GoNoGopractice.exec-6068.GoNoGo_Practice";;;;;;;;;;;;;;;;;;;;;;;;;;;;;;;;;;;;;;;;;;;;;;;;;;;;;;;;;;;;;;;;;;;;;;;"1948";"2014-10-07 09:52:55.539";"18";"0";"FINISHED";"LEFT";"success";"774";"0";"2014-10-07 09:52:53.585";"3";;;;;;;;;;
"adj895";"1995";;"Windows 7";"Rachel's Experiment (D.T.)";"1.0";"2";"1";"1";"2";"1";"1";"2014-10-07 09:51:53.273";"2014-10-07 10:04:44.585";"1";"1";"0";"5";"4";"module.GoNoGopractice.exec-6068.GoNoGo_Practice";;;;;;;;;;;;;;;;;;;;;;;;;;;;;;;;;;;;;;;;;;;;;;;;;;;;;;;;;;;;;;;;;;;;;;;"1947";"2014-10-07 09:52:58.757";"21";"1";"FINISHED";"RIGHT";"success";"395";"0";"2014-10-07 09:52:56.804";"3";;;;;;;;;;
"adj895";"1995";;"Windows 7";"Rachel's Experiment (D.T.)";"1.0";"2";"1";"1";"2";"1";"1";"2014-10-07 09:51:53.273";"2014-10-07 10:04:44.585";"1";"1";"0";"6";"5";"module.GoNoGopractice.exec-6068.GoNoGo_Practice";;;;;;;;;;;;;;;;;;;;;;;;;;;;;;;;;;;;;;;;;;;;;;;;;;;;;;;;;;;;;;;;;;;;;;;"1947";"2014-10-07 09:53:01.976";"14";"1";"FINISHED";"RIGHT";"success";"376";"0";"2014-10-07 09:53:00.023";"2";;;;;;;;;;
"adj895";"1995";;"Windows 7";"Rachel's Experiment (D.T.)";"1.0";"2";"1";"1";"2";"1";"1";"2014-10-07 09:51:53.273";"2014-10-07 10:04:44.585";"1";"1";"0";"7";"6";"module.GoNoGopractice.exec-6068.GoNoGo_Practice";;;;;;;;;;;;;;;;;;;;;;;;;;;;;;;;;;;;;;;;;;;;;;;;;;;;;;;;;;;;;;;;;;;;;;;"1946";"2014-10-07 09:53:05.195";"26";"0";"FINISHED";"LEFT";"success";"357";"0";"2014-10-07 09:53:03.242";"3";;;;;;;;;;
"adj895";"1995";;"Windows 7";"Rachel's Experiment (D.T.)";"1.0";"2";"1";"1";"2";"1";"1";"2014-10-07 09:51:53.273";"2014-10-07 10:04:44.585";"1";"1";"0";"8";"7";"module.GoNoGopractice.exec-6068.GoNoGo_Practice";;;;;;;;;;;;;;;;;;;;;;;;;;;;;;;;;;;;;;;;;;;;;;;;;;;;;;;;;;;;;;;;;;;;;;;"1947";"2014-10-07 09:53:08.414";"2";"0";"FINISHED";"LEFT";"success";"451";"0";"2014-10-07 09:53:06.460";"1";;;;;;;;;;
"adj895";"1995";;"Windows 7";"Rachel's Experiment (D.T.)";"1.0";"2";"1";"1";"2";"1";"1";"2014-10-07 09:51:53.273";"2014-10-07 10:04:44.585";"1";"1";"0";"9";"8";"module.GoNoGopractice.exec-6068.GoNoGo_Practice";;;;;;;;;;;;;;;;;;;;;;;;;;;;;;;;;;;;;;;;;;;;;;;;;;;;;;;;;;;;;;;;;;;;;;;"1948";"2014-10-07 09:53:11.632";"30";"0";"FINISHED";"LEFT";"success";"433";"0";"2014-10-07 09:53:09.679";"3";;;;;;;;;;
"adj895";"1995";;"Windows 7";"Rachel's Experiment (D.T.)";"1.0";"2";"1";"1";"2";"1";"1";"2014-10-07 09:51:53.273";"2014-10-07 10:04:44.585";"1";"1";"0";"10";"9";"module.GoNoGopractice.exec-6068.GoNoGo_Practice";;;;;;;;;;;;;;;;;;;;;;;;;;;;;;;;;;;;;;;;;;;;;;;;;;;;;;;;;;;;;;;;;;;;;;;"1947";"2014-10-07 09:53:14.851";"6";"1";"FINISHED";"RIGHT";"success";"365";"0";"2014-10-07 09:53:12.898";"1";;;;;;;;;;
"adj895";"1995";;"Windows 7";"Rachel's Experiment (D.T.)";"1.0";"2";"1";"1";"2";"1";"1";"2014-10-07 09:51:53.273";"2014-10-07 10:04:44.585";"1";"1";"0";"11";"10";"module.GoNoGopractice.exec-6068.GoNoGo_Practice";;;;;;;;;;;;;;;;;;;;;;;;;;;;;;;;;;;;;;;;;;;;;;;;;;;;;;;;;;;;;;;;;;;;;;;"1948";"2014-10-07 09:53:18.070";"34";"0";"FINISHED";"LEFT";"success";"332";"0";"2014-10-07 09:53:16.117";"3";;;;;;;;;;
"adj895";"1995";;"Windows 7";"Rachel's Experiment (D.T.)";"1.0";"2";"1";"1";"2";"1";"1";"2014-10-07 09:51:53.273";"2014-10-07 10:04:44.585";"1";"1";"0";"12";"11";"module.GoNoGopractice.exec-6068.GoNoGo_Practice";;;;;;;;;;;;;;;;;;;;;;;;;;;;;;;;;;;;;;;;;;;;;;;;;;;;;;;;;;;;;;;;;;;;;;;"1947";"2014-10-07 09:53:21.289";"23";"1";"FINISHED";"RIGHT";"success";"344";"0";"2014-10-07 09:53:19.335";"3";;;;;;;;;;
"adj895";"1995";;"Windows 7";"Rachel's Experiment (D.T.)";"1.0";"2";"1";"1";"2";"1";"1";"2014-10-07 09:51:53.273";"2014-10-07 10:04:44.585";"1";"1";"0";"13";"12";"module.GoNoGopractice.exec-6068.GoNoGo_Practice";;;;;;;;;;;;;;;;;;;;;;;;;;;;;;;;;;;;;;;;;;;;;;;;;;;;;;;;;;;;;;;;;;;;;;;"1947";"2014-10-07 09:53:24.507";"13";"0";"FINISHED";"LEFT";"success";"357";"0";"2014-10-07 09:53:22.554";"2";;;;;;;;;;
"adj895";"1995";;"Windows 7";"Rachel's Experiment (D.T.)";"1.0";"2";"1";"1";"2";"1";"1";"2014-10-07 09:51:53.273";"2014-10-07 10:04:44.585";"1";"1";"0";"14";"13";"module.GoNoGopractice.exec-6068.GoNoGo_Practice";;;;;;;;;;;;;;;;;;;;;;;;;;;;;;;;;;;;;;;;;;;;;;;;;;;;;;;;;;;;;;;;;;;;;;;"1948";"2014-10-07 09:53:27.726";"3";"1";"FINISHED";"RIGHT";"success";"379";"0";"2014-10-07 09:53:25.773";"1";;;;;;;;;;
"adj895";"1995";;"Windows 7";"Rachel's Experiment (D.T.)";"1.0";"2";"1";"1";"2";"1";"1";"2014-10-07 09:51:53.273";"2014-10-07 10:04:44.585";"1";"1";"0";"15";"14";"module.GoNoGopractice.exec-6068.GoNoGo_Practice";;;;;;;;;;;;;;;;;;;;;;;;;;;;;;;;;;;;;;;;;;;;;;;;;;;;;;;;;;;;;;;;;;;;;;;"1948";"2014-10-07 09:53:30.945";"27";"1";"FINISHED";"RIGHT";"success";"408";"0";"2014-10-07 09:53:28.992";"3";;;;;;;;;;
"adj895";"1995";;"Windows 7";"Rachel's Experiment (D.T.)";"1.0";"2";"1";"1";"2";"1";"1";"2014-10-07 09:51:53.273";"2014-10-07 10:04:44.585";"1";"1";"0";"16";"15";"module.training_block1.exec-1960.GoNoGo1";;;;;;;;;;;;;;;;;;;;;;;"1243";"2014-10-07 09:53:43.492";"NST_correctLoc";"8";"0";"FINISHED";"LEFT";"success";"540";"0";"2014-10-07 09:53:42.242";"1";;;;;;;;;;;;;;;;;;;;;;;;;;;;;;;;;;;;;;;;;;;;;;;;;;;;;;;;;
"adj895";"1995";;"Windows 7";"Rachel's Experiment (D.T.)";"1.0";"2";"1";"1";"2";"1";"1";"2014-10-07 09:51:53.273";"2014-10-07 10:04:44.585";"1";"1";"0";"17";"16";"module.training_block1.exec-1960.GoNoGo1";;;;;;;;;;;;;;;;;;;;;;;"1248";"2014-10-07 09:53:46.007";"NST_correctLoc";"30";"1";"FINISHED";"RIGHT";"success";"398";"0";"2014-10-07 09:53:44.757";"3";;;;;;;;;;;;;;;;;;;;;;;;;;;;;;;;;;;;;;;;;;;;;;;;;;;;;;;;;
"adj895";"1995";;"Windows 7";"Rachel's Experiment (D.T.)";"1.0";"2";"1";"1";"2";"1";"1";"2014-10-07 09:51:53.273";"2014-10-07 10:04:44.585";"1";"1";"0";"18";"17";"module.training_block1.exec-1960.GoNoGo1";;;;;;;;;;;;;;;;;;;;;;;"1244";"2014-10-07 09:53:48.523";"NST_correctLoc";"24";"0";"FINISHED";"LEFT";"success";"391";"0";"2014-10-07 09:53:47.273";"3";;;;;;;;;;;;;;;;;;;;;;;;;;;;;;;;;;;;;;;;;;;;;;;;;;;;;;;;;
"adj895";"1995";;"Windows 7";"Rachel's Experiment (D.T.)";"1.0";"2";"1";"1";"2";"1";"1";"2014-10-07 09:51:53.273";"2014-10-07 10:04:44.585";"1";"1";"0";"19";"18";"module.training_block1.exec-1960.GoNoGo1";;;;;;;;;;;;;;;;;;;;;;;"1245";"2014-10-07 09:53:51.039";"NST_correctLoc";"35";"1";"FINISHED";"RIGHT";"success";"324";"0";"2014-10-07 09:53:49.789";"3";;;;;;;;;;;;;;;;;;;;;;;;;;;;;;;;;;;;;;;;;;;;;;;;;;;;;;;;;
"adj895";"1995";;"Windows 7";"Rachel's Experiment (D.T.)";"1.0";"2";"1";"1";"2";"1";"1";"2014-10-07 09:51:53.273";"2014-10-07 10:04:44.585";"1";"1";"0";"20";"19";"module.training_block1.exec-1960.GoNoGo1";;;;;;;;;;;;;;;;;;;;;;;"1245";"2014-10-07 09:53:53.554";"NST_correctLoc";"33";"0";"FINISHED";"LEFT";"success";"456";"0";"2014-10-07 09:53:52.304";"3";;;;;;;;;;;;;;;;;;;;;;;;;;;;;;;;;;;;;;;;;;;;;;;;;;;;;;;;;
"adj895";"1995";;"Windows 7";"Rachel's Experiment (D.T.)";"1.0";"2";"1";"1";"2";"1";"1";"2014-10-07 09:51:53.273";"2014-10-07 10:04:44.585";"1";"1";"0";"21";"20";"module.training_block1.exec-1960.GoNoGo1";;;;;;;;;;;;;;;;;;;;;;;"1243";"2014-10-07 09:53:56.195";"NST_correctLoc";"10";"0";"FINISHED";"LEFT";"success";"541";"0";"2014-10-07 09:53:54.945";"2";;;;;;;;;;;;;;;;;;;;;;;;;;;;;;;;;;;;;;;;;;;;;;;;;;;;;;;;;
"adj895";"1995";;"Windows 7";"Rachel's Experiment (D.T.)";"1.0";"2";"1";"1";"2";"1";"1";"2014-10-07 09:51:53.273";"2014-10-07 10:04:44.585";"1";"1";"0";"22";"21";"module.training_block1.exec-1960.GoNoGo1";;;;;;;;;;;;;;;;;;;;;;;"1245";"2014-10-07 09:53:58.710";"NST_correctLoc";"28";"0";"FINISHED";"LEFT";"success";"348";"0";"2014-10-07 09:53:57.460";"3";;;;;;;;;;;;;;;;;;;;;;;;;;;;;;;;;;;;;;;;;;;;;;;;;;;;;;;;;
"adj895";"1995";;"Windows 7";"Rachel's Experiment (D.T.)";"1.0";"2";"1";"1";"2";"1";"1";"2014-10-07 09:51:53.273";"2014-10-07 10:04:44.585";"1";"1";"0";"23";"22";"module.training_block1.exec-1960.GoNoGo1";;;;;;;;;;;;;;;;;;;;;;;"1245";"2014-10-07 09:54:01.226";"NST_correctLoc";"18";"0";"FINISHED";"LEFT";"success";"448";"0";"2014-10-07 09:53:59.976";"3";;;;;;;;;;;;;;;;;;;;;;;;;;;;;;;;;;;;;;;;;;;;;;;;;;;;;;;;;
"adj895";"1995";;"Windows 7";"Rachel's Experiment (D.T.)";"1.0";"2";"1";"1";"2";"1";"1";"2014-10-07 09:51:53.273";"2014-10-07 10:04:44.585";"1";"1";"0";"24";"23";"module.training_block1.exec-1960.GoNoGo1";;;;;;;;;;;;;;;;;;;;;;;"1244";"2014-10-07 09:54:03.742";"NST_correctLoc";"31";"0";"FINISHED";"LEFT";"success";"444";"0";"2014-10-07 09:54:02.492";"3";;;;;;;;;;;;;;;;;;;;;;;;;;;;;;;;;;;;;;;;;;;;;;;;;;;;;;;;;
"adj895";"1995";;"Windows 7";"Rachel's Experiment (D.T.)";"1.0";"2";"1";"1";"2";"1";"1";"2014-10-07 09:51:53.273";"2014-10-07 10:04:44.585";"1";"1";"0";"25";"24";"module.training_block1.exec-1960.GoNoGo1";;;;;;;;;;;;;;;;;;;;;;;"1245";"2014-10-07 09:54:06.257";"NST_correctLoc";"34";"1";"FINISHED";"RIGHT";"success";"369";"0";"2014-10-07 09:54:05.007";"3";;;;;;;;;;;;;;;;;;;;;;;;;;;;;;;;;;;;;;;;;;;;;;;;;;;;;;;;;
"adj895";"1995";;"Windows 7";"Rachel's Experiment (D.T.)";"1.0";"2";"1";"1";"2";"1";"1";"2014-10-07 09:51:53.273";"2014-10-07 10:04:44.585";"1";"1";"0";"26";"25";"module.training_block1.exec-1960.GoNoGo1";;;;;;;;;;;;;;;;;;;;;;;"1244";"2014-10-07 09:54:08.773";"NST_correctLoc";"21";"1";"FINISHED";"RIGHT";"success";"365";"0";"2014-10-07 09:54:07.523";"3";;;;;;;;;;;;;;;;;;;;;;;;;;;;;;;;;;;;;;;;;;;;;;;;;;;;;;;;;
"adj895";"1995";;"Windows 7";"Rachel's Experiment (D.T.)";"1.0";"2";"1";"1";"2";"1";"1";"2014-10-07 09:51:53.273";"2014-10-07 10:04:44.585";"1";"1";"0";"27";"26";"module.training_block1.exec-1960.GoNoGo1";;;;;;;;;;;;;;;;;;;;;;;"1245";"2014-10-07 09:54:11.289";"NST_correctLoc";"3";"1";"FINISHED";"RIGHT";"success";"346";"0";"2014-10-07 09:54:10.039";"1";;;;;;;;;;;;;;;;;;;;;;;;;;;;;;;;;;;;;;;;;;;;;;;;;;;;;;;;;
"adj895";"1995";;"Windows 7";"Rachel's Experiment (D.T.)";"1.0";"2";"1";"1";"2";"1";"1";"2014-10-07 09:51:53.273";"2014-10-07 10:04:44.585";"1";"1";"0";"28";"27";"module.training_block1.exec-1960.GoNoGo1";;;;;;;;;;;;;;;;;;;;;;;"1244";"2014-10-07 09:54:13.804";"NST_correctLoc";"20";"1";"FINISHED";"RIGHT";"success";"357";"0";"2014-10-07 09:54:12.554";"3";;;;;;;;;;;;;;;;;;;;;;;;;;;;;;;;;;;;;;;;;;;;;;;;;;;;;;;;;
"adj895";"1995";;"Windows 7";"Rachel's Experiment (D.T.)";"1.0";"2";"1";"1";"2";"1";"1";"2014-10-07 09:51:53.273";"2014-10-07 10:04:44.585";"1";"1";"0";"29";"28";"module.training_block1.exec-1960.GoNoGo1";;;;;;;;;;;;;;;;;;;;;;;"1245";"2014-10-07 09:54:16.320";"NST_correctLoc";"16";"0";"FINISHED";"LEFT";"success";"482";"0";"2014-10-07 09:54:15.070";"2";;;;;;;;;;;;;;;;;;;;;;;;;;;;;;;;;;;;;;;;;;;;;;;;;;;;;;;;;
"adj895";"1995";;"Windows 7";"Rachel's Experiment (D.T.)";"1.0";"2";"1";"1";"2";"1";"1";"2014-10-07 09:51:53.273";"2014-10-07 10:04:44.585";"1";"1";"0";"30";"29";"module.training_block1.exec-1960.GoNoGo1";;;;;;;;;;;;;;;;;;;;;;;"1244";"2014-10-07 09:54:18.867";"NST_correctLoc";"13";"1";"FINISHED";"RIGHT";"success";"319";"0";"2014-10-07 09:54:17.617";"2";;;;;;;;;;;;;;;;;;;;;;;;;;;;;;;;;;;;;;;;;;;;;;;;;;;;;;;;;
"adj895";"1995";;"Windows 7";"Rachel's Experiment (D.T.)";"1.0";"2";"1";"1";"2";"1";"1";"2014-10-07 09:51:53.273";"2014-10-07 10:04:44.585";"1";"1";"0";"31";"30";"module.training_block1.exec-1960.GoNoGo1";;;;;;;;;;;;;;;;;;;;;;;"1244";"2014-10-07 09:54:21.382";"NST_correctLoc";"17";"0";"FINISHED";"LEFT";"success";"363";"0";"2014-10-07 09:54:20.132";"2";;;;;;;;;;;;;;;;;;;;;;;;;;;;;;;;;;;;;;;;;;;;;;;;;;;;;;;;;
"adj895";"1995";;"Windows 7";"Rachel's Experiment (D.T.)";"1.0";"2";"1";"1";"2";"1";"1";"2014-10-07 09:51:53.273";"2014-10-07 10:04:44.585";"1";"1";"0";"32";"31";"module.training_block1.exec-1960.GoNoGo1";;;;;;;;;;;;;;;;;;;;;;;"1244";"2014-10-07 09:54:23.898";"NST_correctLoc";"26";"0";"FINISHED";"LEFT";"success";"328";"0";"2014-10-07 09:54:22.648";"3";;;;;;;;;;;;;;;;;;;;;;;;;;;;;;;;;;;;;;;;;;;;;;;;;;;;;;;;;
"adj895";"1995";;"Windows 7";"Rachel's Experiment (D.T.)";"1.0";"2";"1";"1";"2";"1";"1";"2014-10-07 09:51:53.273";"2014-10-07 10:04:44.585";"1";"1";"0";"33";"32";"module.training_block1.exec-1960.GoNoGo1";;;;;;;;;;;;;;;;;;;;;;;"1244";"2014-10-07 09:54:26.414";"NST_correctLoc";"9";"0";"FINISHED";"LEFT";"success";"308";"0";"2014-10-07 09:54:25.164";"2";;;;;;;;;;;;;;;;;;;;;;;;;;;;;;;;;;;;;;;;;;;;;;;;;;;;;;;;;
"adj895";"1995";;"Windows 7";"Rachel's Experiment (D.T.)";"1.0";"2";"1";"1";"2";"1";"1";"2014-10-07 09:51:53.273";"2014-10-07 10:04:44.585";"1";"1";"0";"34";"33";"module.training_block1.exec-1960.GoNoGo1";;;;;;;;;;;;;;;;;;;;;;;"1244";"2014-10-07 09:54:28.929";"NST_correctLoc";"23";"0";"FINISHED";"LEFT";"success";"448";"0";"2014-10-07 09:54:27.679";"3";;;;;;;;;;;;;;;;;;;;;;;;;;;;;;;;;;;;;;;;;;;;;;;;;;;;;;;;;
"adj895";"1995";;"Windows 7";"Rachel's Experiment (D.T.)";"1.0";"2";"1";"1";"2";"1";"1";"2014-10-07 09:51:53.273";"2014-10-07 10:04:44.585";"1";"1";"0";"35";"34";"module.training_block1.exec-1960.GoNoGo1";;;;;;;;;;;;;;;;;;;;;;;"1245";"2014-10-07 09:54:31.445";"NST_correctLoc";"19";"1";"FINISHED";"RIGHT";"success";"453";"0";"2014-10-07 09:54:30.195";"3";;;;;;;;;;;;;;;;;;;;;;;;;;;;;;;;;;;;;;;;;;;;;;;;;;;;;;;;;
"adj895";"1995";;"Windows 7";"Rachel's Experiment (D.T.)";"1.0";"2";"1";"1";"2";"1";"1";"2014-10-07 09:51:53.273";"2014-10-07 10:04:44.585";"1";"1";"0";"36";"35";"module.training_block1.exec-1960.GoNoGo1";;;;;;;;;;;;;;;;;;;;;;;"1244";"2014-10-07 09:54:33.960";"NST_correctLoc";"7";"1";"FINISHED";"RIGHT";"success";"449";"0";"2014-10-07 09:54:32.710";"1";;;;;;;;;;;;;;;;;;;;;;;;;;;;;;;;;;;;;;;;;;;;;;;;;;;;;;;;;
"adj895";"1995";;"Windows 7";"Rachel's Experiment (D.T.)";"1.0";"2";"1";"1";"2";"1";"1";"2014-10-07 09:51:53.273";"2014-10-07 10:04:44.585";"1";"1";"0";"37";"36";"module.training_block1.exec-1960.GoNoGo1";;;;;;;;;;;;;;;;;;;;;;;"1239";"2014-10-07 09:54:36.476";"NST_correctLoc";"32";"0";"FINISHED";"LEFT";"success";"1153";"0";"2014-10-07 09:54:35.226";"3";;;;;;;;;;;;;;;;;;;;;;;;;;;;;;;;;;;;;;;;;;;;;;;;;;;;;;;;;
"adj895";"1995";;"Windows 7";"Rachel's Experiment (D.T.)";"1.0";"2";"1";"1";"2";"1";"1";"2014-10-07 09:51:53.273";"2014-10-07 10:04:44.585";"1";"1";"0";"38";"37";"module.training_block1.exec-1960.GoNoGo1";;;;;;;;;;;;;;;;;;;;;;;"1244";"2014-10-07 09:54:38.992";"NST_correctLoc";"6";"0";"FINISHED";"LEFT";"success";"410";"0";"2014-10-07 09:54:37.742";"1";;;;;;;;;;;;;;;;;;;;;;;;;;;;;;;;;;;;;;;;;;;;;;;;;;;;;;;;;
"adj895";"1995";;"Windows 7";"Rachel's Experiment (D.T.)";"1.0";"2";"1";"1";"2";"1";"1";"2014-10-07 09:51:53.273";"2014-10-07 10:04:44.585";"1";"1";"0";"39";"38";"module.training_block1.exec-1960.GoNoGo1";;;;;;;;;;;;;;;;;;;;;;;"1245";"2014-10-07 09:54:41.507";"NST_correctLoc";"29";"1";"FINISHED";"RIGHT";"success";"335";"0";"2014-10-07 09:54:40.257";"3";;;;;;;;;;;;;;;;;;;;;;;;;;;;;;;;;;;;;;;;;;;;;;;;;;;;;;;;;
"adj895";"1995";;"Windows 7";"Rachel's Experiment (D.T.)";"1.0";"2";"1";"1";"2";"1";"1";"2014-10-07 09:51:53.273";"2014-10-07 10:04:44.585";"1";"1";"0";"40";"39";"module.training_block1.exec-1960.GoNoGo1";;;;;;;;;;;;;;;;;;;;;;;"1243";"2014-10-07 09:54:44.023";"NST_correctLoc";"4";"1";"FINISHED";"RIGHT";"success";"314";"0";"2014-10-07 09:54:42.773";"1";;;;;;;;;;;;;;;;;;;;;;;;;;;;;;;;;;;;;;;;;;;;;;;;;;;;;;;;;
"adj895";"1995";;"Windows 7";"Rachel's Experiment (D.T.)";"1.0";"2";"1";"1";"2";"1";"1";"2014-10-07 09:51:53.273";"2014-10-07 10:04:44.585";"1";"1";"0";"41";"40";"module.training_block1.exec-1960.GoNoGo1";;;;;;;;;;;;;;;;;;;;;;;"1245";"2014-10-07 09:54:46.539";"NST_correctLoc";"1";"0";"FINISHED";"LEFT";"success";"880";"0";"2014-10-07 09:54:45.289";"1";;;;;;;;;;;;;;;;;;;;;;;;;;;;;;;;;;;;;;;;;;;;;;;;;;;;;;;;;
"adj895";"1995";;"Windows 7";"Rachel's Experiment (D.T.)";"1.0";"2";"1";"1";"2";"1";"1";"2014-10-07 09:51:53.273";"2014-10-07 10:04:44.585";"1";"1";"0";"42";"41";"module.training_block1.exec-1960.GoNoGo1";;;;;;;;;;;;;;;;;;;;;;;"1244";"2014-10-07 09:54:49.054";"NST_correctLoc";"15";"1";"FINISHED";"RIGHT";"success";"660";"0";"2014-10-07 09:54:47.804";"2";;;;;;;;;;;;;;;;;;;;;;;;;;;;;;;;;;;;;;;;;;;;;;;;;;;;;;;;;
"adj895";"1995";;"Windows 7";"Rachel's Experiment (D.T.)";"1.0";"2";"1";"1";"2";"1";"1";"2014-10-07 09:51:53.273";"2014-10-07 10:04:44.585";"1";"1";"0";"43";"42";"module.training_block1.exec-1960.GoNoGo1";;;;;;;;;;;;;;;;;;;;;;;"1244";"2014-10-07 09:54:51.570";"NST_correctLoc";"0";"0";"FINISHED";"LEFT";"success";"720";"0";"2014-10-07 09:54:50.320";"1";;;;;;;;;;;;;;;;;;;;;;;;;;;;;;;;;;;;;;;;;;;;;;;;;;;;;;;;;
"adj895";"1995";;"Windows 7";"Rachel's Experiment (D.T.)";"1.0";"2";"1";"1";"2";"1";"1";"2014-10-07 09:51:53.273";"2014-10-07 10:04:44.585";"1";"1";"0";"44";"43";"module.training_block1.exec-1960.GoNoGo1";;;;;;;;;;;;;;;;;;;;;;;"1244";"2014-10-07 09:54:54.085";"NST_correctLoc";"14";"0";"FINISHED";"LEFT";"success";"364";"0";"2014-10-07 09:54:52.835";"2";;;;;;;;;;;;;;;;;;;;;;;;;;;;;;;;;;;;;;;;;;;;;;;;;;;;;;;;;
"adj895";"1995";;"Windows 7";"Rachel's Experiment (D.T.)";"1.0";"2";"1";"1";"2";"1";"1";"2014-10-07 09:51:53.273";"2014-10-07 10:04:44.585";"1";"1";"0";"45";"44";"module.training_block1.exec-1960.GoNoGo1";;;;;;;;;;;;;;;;;;;;;;;"1244";"2014-10-07 09:54:56.601";"NST_correctLoc";"2";"0";"FINISHED";"LEFT";"success";"361";"0";"2014-10-07 09:54:55.351";"1";;;;;;;;;;;;;;;;;;;;;;;;;;;;;;;;;;;;;;;;;;;;;;;;;;;;;;;;;
"adj895";"1995";;"Windows 7";"Rachel's Experiment (D.T.)";"1.0";"2";"1";"1";"2";"1";"1";"2014-10-07 09:51:53.273";"2014-10-07 10:04:44.585";"1";"1";"0";"46";"45";"module.training_block1.exec-1960.GoNoGo1";;;;;;;;;;;;;;;;;;;;;;;"1244";"2014-10-07 09:54:59.117";"NST_correctLoc";"11";"1";"FINISHED";"RIGHT";"success";"309";"0";"2014-10-07 09:54:57.867";"2";;;;;;;;;;;;;;;;;;;;;;;;;;;;;;;;;;;;;;;;;;;;;;;;;;;;;;;;;
"adj895";"1995";;"Windows 7";"Rachel's Experiment (D.T.)";"1.0";"2";"1";"1";"2";"1";"1";"2014-10-07 09:51:53.273";"2014-10-07 10:04:44.585";"1";"1";"0";"47";"46";"module.training_block1.exec-1960.GoNoGo1";;;;;;;;;;;;;;;;;;;;;;;"1245";"2014-10-07 09:55:01.632";"NST_correctLoc";"5";"1";"FINISHED";"RIGHT";"success";"330";"0";"2014-10-07 09:55:00.382";"1";;;;;;;;;;;;;;;;;;;;;;;;;;;;;;;;;;;;;;;;;;;;;;;;;;;;;;;;;
"adj895";"1995";;"Windows 7";"Rachel's Experiment (D.T.)";"1.0";"2";"1";"1";"2";"1";"1";"2014-10-07 09:51:53.273";"2014-10-07 10:04:44.585";"1";"1";"0";"48";"47";"module.training_block1.exec-1960.GoNoGo1";;;;;;;;;;;;;;;;;;;;;;;"1245";"2014-10-07 09:55:04.148";"NST_correctLoc";"22";"0";"FINISHED";"LEFT";"success";"398";"0";"2014-10-07 09:55:02.898";"3";;;;;;;;;;;;;;;;;;;;;;;;;;;;;;;;;;;;;;;;;;;;;;;;;;;;;;;;;
"adj895";"1995";;"Windows 7";"Rachel's Experiment (D.T.)";"1.0";"2";"1";"1";"2";"1";"1";"2014-10-07 09:51:53.273";"2014-10-07 10:04:44.585";"1";"1";"0";"49";"48";"module.training_block1.exec-1960.GoNoGo1";;;;;;;;;;;;;;;;;;;;;;;"1245";"2014-10-07 09:55:06.664";"NST_correctLoc";"25";"0";"FINISHED";"LEFT";"success";"379";"0";"2014-10-07 09:55:05.414";"3";;;;;;;;;;;;;;;;;;;;;;;;;;;;;;;;;;;;;;;;;;;;;;;;;;;;;;;;;
"adj895";"1995";;"Windows 7";"Rachel's Experiment (D.T.)";"1.0";"2";"1";"1";"2";"1";"1";"2014-10-07 09:51:53.273";"2014-10-07 10:04:44.585";"1";"1";"0";"50";"49";"module.training_block1.exec-1960.GoNoGo1";;;;;;;;;;;;;;;;;;;;;;;"1245";"2014-10-07 09:55:09.179";"NST_correctLoc";"12";"1";"FINISHED";"RIGHT";"success";"367";"0";"2014-10-07 09:55:07.929";"2";;;;;;;;;;;;;;;;;;;;;;;;;;;;;;;;;;;;;;;;;;;;;;;;;;;;;;;;;
"adj895";"1995";;"Windows 7";"Rachel's Experiment (D.T.)";"1.0";"2";"1";"1";"2";"1";"1";"2014-10-07 09:51:53.273";"2014-10-07 10:04:44.585";"1";"1";"0";"51";"50";"module.training_block1.exec-1960.GoNoGo1";;;;;;;;;;;;;;;;;;;;;;;"1244";"2014-10-07 09:55:11.695";"NST_correctLoc";"27";"0";"FINISHED";"LEFT";"success";"411";"0";"2014-10-07 09:55:10.445";"3";;;;;;;;;;;;;;;;;;;;;;;;;;;;;;;;;;;;;;;;;;;;;;;;;;;;;;;;;
"adj895";"1995";;"Windows 7";"Rachel's Experiment (D.T.)";"1.0";"2";"1";"1";"2";"1";"1";"2014-10-07 09:51:53.273";"2014-10-07 10:04:44.585";"1";"1";"0";"52";"51";"module.training_block2.exec-8438.GoNoGo2";;;;;;;;;;;;;;;;;;;;;;;;;;;;;;;;;;;"1248";"2014-10-07 09:55:22.492";"NST_correctLoc";"10";"0";"FINISHED";"LEFT";"success";"914";"0";"2014-10-07 09:55:21.242";"2";;;;;;;;;;;;;;;;;;;;;;;;;;;;;;;;;;;;;;;;;;;;;
"adj895";"1995";;"Windows 7";"Rachel's Experiment (D.T.)";"1.0";"2";"1";"1";"2";"1";"1";"2014-10-07 09:51:53.273";"2014-10-07 10:04:44.585";"1";"1";"0";"53";"52";"module.training_block2.exec-8438.GoNoGo2";;;;;;;;;;;;;;;;;;;;;;;;;;;;;;;;;;;"1248";"2014-10-07 09:55:25.007";"NST_correctLoc";"16";"0";"FINISHED";"LEFT";"success";"414";"0";"2014-10-07 09:55:23.757";"2";;;;;;;;;;;;;;;;;;;;;;;;;;;;;;;;;;;;;;;;;;;;;
"adj895";"1995";;"Windows 7";"Rachel's Experiment (D.T.)";"1.0";"2";"1";"1";"2";"1";"1";"2014-10-07 09:51:53.273";"2014-10-07 10:04:44.585";"1";"1";"0";"54";"53";"module.training_block2.exec-8438.GoNoGo2";;;;;;;;;;;;;;;;;;;;;;;;;;;;;;;;;;;"1244";"2014-10-07 09:55:27.523";"NST_correctLoc";"30";"1";"FINISHED";"RIGHT";"success";"327";"0";"2014-10-07 09:55:26.273";"3";;;;;;;;;;;;;;;;;;;;;;;;;;;;;;;;;;;;;;;;;;;;;
"adj895";"1995";;"Windows 7";"Rachel's Experiment (D.T.)";"1.0";"2";"1";"1";"2";"1";"1";"2014-10-07 09:51:53.273";"2014-10-07 10:04:44.585";"1";"1";"0";"55";"54";"module.training_block2.exec-8438.GoNoGo2";;;;;;;;;;;;;;;;;;;;;;;;;;;;;;;;;;;"1244";"2014-10-07 09:55:30.039";"NST_correctLoc";"8";"1";"FINISHED";"RIGHT";"success";"403";"0";"2014-10-07 09:55:28.789";"1";;;;;;;;;;;;;;;;;;;;;;;;;;;;;;;;;;;;;;;;;;;;;
"adj895";"1995";;"Windows 7";"Rachel's Experiment (D.T.)";"1.0";"2";"1";"1";"2";"1";"1";"2014-10-07 09:51:53.273";"2014-10-07 10:04:44.585";"1";"1";"0";"56";"55";"module.training_block2.exec-8438.GoNoGo2";;;;;;;;;;;;;;;;;;;;;;;;;;;;;;;;;;;"1245";"2014-10-07 09:55:32.554";"NST_correctLoc";"24";"1";"FINISHED";"RIGHT";"success";"408";"0";"2014-10-07 09:55:31.304";"3";;;;;;;;;;;;;;;;;;;;;;;;;;;;;;;;;;;;;;;;;;;;;
"adj895";"1995";;"Windows 7";"Rachel's Experiment (D.T.)";"1.0";"2";"1";"1";"2";"1";"1";"2014-10-07 09:51:53.273";"2014-10-07 10:04:44.585";"1";"1";"0";"57";"56";"module.training_block2.exec-8438.GoNoGo2";;;;;;;;;;;;;;;;;;;;;;;;;;;;;;;;;;;"1248";"2014-10-07 09:55:35.070";"NST_correctLoc";"26";"0";"FINISHED";"LEFT";"success";"544";"0";"2014-10-07 09:55:33.820";"3";;;;;;;;;;;;;;;;;;;;;;;;;;;;;;;;;;;;;;;;;;;;;
"adj895";"1995";;"Windows 7";"Rachel's Experiment (D.T.)";"1.0";"2";"1";"1";"2";"1";"1";"2014-10-07 09:51:53.273";"2014-10-07 10:04:44.585";"1";"1";"0";"58";"57";"module.training_block2.exec-8438.GoNoGo2";;;;;;;;;;;;;;;;;;;;;;;;;;;;;;;;;;;"1248";"2014-10-07 09:55:37.585";"NST_correctLoc";"28";"1";"FINISHED";"RIGHT";"success";"316";"0";"2014-10-07 09:55:36.335";"3";;;;;;;;;;;;;;;;;;;;;;;;;;;;;;;;;;;;;;;;;;;;;
"adj895";"1995";;"Windows 7";"Rachel's Experiment (D.T.)";"1.0";"2";"1";"1";"2";"1";"1";"2014-10-07 09:51:53.273";"2014-10-07 10:04:44.585";"1";"1";"0";"59";"58";"module.training_block2.exec-8438.GoNoGo2";;;;;;;;;;;;;;;;;;;;;;;;;;;;;;;;;;;"1248";"2014-10-07 09:55:40.101";"NST_correctLoc";"33";"0";"FINISHED";"LEFT";"success";"328";"0";"2014-10-07 09:55:38.851";"3";;;;;;;;;;;;;;;;;;;;;;;;;;;;;;;;;;;;;;;;;;;;;
"adj895";"1995";;"Windows 7";"Rachel's Experiment (D.T.)";"1.0";"2";"1";"1";"2";"1";"1";"2014-10-07 09:51:53.273";"2014-10-07 10:04:44.585";"1";"1";"0";"60";"59";"module.training_block2.exec-8438.GoNoGo2";;;;;;;;;;;;;;;;;;;;;;;;;;;;;;;;;;;"1248";"2014-10-07 09:55:42.617";"NST_correctLoc";"11";"0";"FINISHED";"LEFT";"success";"333";"0";"2014-10-07 09:55:41.367";"2";;;;;;;;;;;;;;;;;;;;;;;;;;;;;;;;;;;;;;;;;;;;;
"adj895";"1995";;"Windows 7";"Rachel's Experiment (D.T.)";"1.0";"2";"1";"1";"2";"1";"1";"2014-10-07 09:51:53.273";"2014-10-07 10:04:44.585";"1";"1";"0";"61";"60";"module.training_block2.exec-8438.GoNoGo2";;;;;;;;;;;;;;;;;;;;;;;;;;;;;;;;;;;"1248";"2014-10-07 09:55:45.132";"NST_correctLoc";"6";"1";"FINISHED";"RIGHT";"success";"377";"0";"2014-10-07 09:55:43.882";"1";;;;;;;;;;;;;;;;;;;;;;;;;;;;;;;;;;;;;;;;;;;;;
"adj895";"1995";;"Windows 7";"Rachel's Experiment (D.T.)";"1.0";"2";"1";"1";"2";"1";"1";"2014-10-07 09:51:53.273";"2014-10-07 10:04:44.585";"1";"1";"0";"62";"61";"module.training_block2.exec-8438.GoNoGo2";;;;;;;;;;;;;;;;;;;;;;;;;;;;;;;;;;;"1248";"2014-10-07 09:55:47.648";"NST_correctLoc";"17";"0";"FINISHED";"LEFT";"success";"309";"0";"2014-10-07 09:55:46.398";"2";;;;;;;;;;;;;;;;;;;;;;;;;;;;;;;;;;;;;;;;;;;;;
"adj895";"1995";;"Windows 7";"Rachel's Experiment (D.T.)";"1.0";"2";"1";"1";"2";"1";"1";"2014-10-07 09:51:53.273";"2014-10-07 10:04:44.585";"1";"1";"0";"63";"62";"module.training_block2.exec-8438.GoNoGo2";;;;;;;;;;;;;;;;;;;;;;;;;;;;;;;;;;;"1248";"2014-10-07 09:55:50.164";"NST_correctLoc";"20";"1";"FINISHED";"RIGHT";"success";"330";"0";"2014-10-07 09:55:48.914";"3";;;;;;;;;;;;;;;;;;;;;;;;;;;;;;;;;;;;;;;;;;;;;
"adj895";"1995";;"Windows 7";"Rachel's Experiment (D.T.)";"1.0";"2";"1";"1";"2";"1";"1";"2014-10-07 09:51:53.273";"2014-10-07 10:04:44.585";"1";"1";"0";"64";"63";"module.training_block2.exec-8438.GoNoGo2";;;;;;;;;;;;;;;;;;;;;;;;;;;;;;;;;;;"1248";"2014-10-07 09:55:52.679";"NST_correctLoc";"23";"1";"FINISHED";"RIGHT";"success";"358";"0";"2014-10-07 09:55:51.429";"3";;;;;;;;;;;;;;;;;;;;;;;;;;;;;;;;;;;;;;;;;;;;;
"adj895";"1995";;"Windows 7";"Rachel's Experiment (D.T.)";"1.0";"2";"1";"1";"2";"1";"1";"2014-10-07 09:51:53.273";"2014-10-07 10:04:44.585";"1";"1";"0";"65";"64";"module.training_block2.exec-8438.GoNoGo2";;;;;;;;;;;;;;;;;;;;;;;;;;;;;;;;;;;"1248";"2014-10-07 09:55:55.195";"NST_correctLoc";"27";"0";"FINISHED";"LEFT";"success";"403";"0";"2014-10-07 09:55:53.945";"3";;;;;;;;;;;;;;;;;;;;;;;;;;;;;;;;;;;;;;;;;;;;;
"adj895";"1995";;"Windows 7";"Rachel's Experiment (D.T.)";"1.0";"2";"1";"1";"2";"1";"1";"2014-10-07 09:51:53.273";"2014-10-07 10:04:44.585";"1";"1";"0";"66";"65";"module.training_block2.exec-8438.GoNoGo2";;;;;;;;;;;;;;;;;;;;;;;;;;;;;;;;;;;"1248";"2014-10-07 09:55:57.710";"NST_correctLoc";"34";"1";"FINISHED";"RIGHT";"success";"327";"0";"2014-10-07 09:55:56.460";"3";;;;;;;;;;;;;;;;;;;;;;;;;;;;;;;;;;;;;;;;;;;;;
"adj895";"1995";;"Windows 7";"Rachel's Experiment (D.T.)";"1.0";"2";"1";"1";"2";"1";"1";"2014-10-07 09:51:53.273";"2014-10-07 10:04:44.585";"1";"1";"0";"67";"66";"module.training_block2.exec-8438.GoNoGo2";;;;;;;;;;;;;;;;;;;;;;;;;;;;;;;;;;;"1248";"2014-10-07 09:56:00.226";"NST_correctLoc";"21";"1";"FINISHED";"RIGHT";"success";"379";"0";"2014-10-07 09:55:58.976";"3";;;;;;;;;;;;;;;;;;;;;;;;;;;;;;;;;;;;;;;;;;;;;
"adj895";"1995";;"Windows 7";"Rachel's Experiment (D.T.)";"1.0";"2";"1";"1";"2";"1";"1";"2014-10-07 09:51:53.273";"2014-10-07 10:04:44.585";"1";"1";"0";"68";"67";"module.training_block2.exec-8438.GoNoGo2";;;;;;;;;;;;;;;;;;;;;;;;;;;;;;;;;;;"1248";"2014-10-07 09:56:02.742";"NST_correctLoc";"31";"0";"FINISHED";"LEFT";"success";"376";"0";"2014-10-07 09:56:01.492";"3";;;;;;;;;;;;;;;;;;;;;;;;;;;;;;;;;;;;;;;;;;;;;
"adj895";"1995";;"Windows 7";"Rachel's Experiment (D.T.)";"1.0";"2";"1";"1";"2";"1";"1";"2014-10-07 09:51:53.273";"2014-10-07 10:04:44.585";"1";"1";"0";"69";"68";"module.training_block2.exec-8438.GoNoGo2";;;;;;;;;;;;;;;;;;;;;;;;;;;;;;;;;;;"1248";"2014-10-07 09:56:05.257";"NST_correctLoc";"18";"0";"FINISHED";"LEFT";"success";"700";"0";"2014-10-07 09:56:04.007";"3";;;;;;;;;;;;;;;;;;;;;;;;;;;;;;;;;;;;;;;;;;;;;
"adj895";"1995";;"Windows 7";"Rachel's Experiment (D.T.)";"1.0";"2";"1";"1";"2";"1";"1";"2014-10-07 09:51:53.273";"2014-10-07 10:04:44.585";"1";"1";"0";"70";"69";"module.training_block2.exec-8438.GoNoGo2";;;;;;;;;;;;;;;;;;;;;;;;;;;;;;;;;;;"1248";"2014-10-07 09:56:07.773";"NST_correctLoc";"15";"1";"FINISHED";"RIGHT";"success";"328";"0";"2014-10-07 09:56:06.523";"2";;;;;;;;;;;;;;;;;;;;;;;;;;;;;;;;;;;;;;;;;;;;;
"adj895";"1995";;"Windows 7";"Rachel's Experiment (D.T.)";"1.0";"2";"1";"1";"2";"1";"1";"2014-10-07 09:51:53.273";"2014-10-07 10:04:44.585";"1";"1";"0";"71";"70";"module.training_block2.exec-8438.GoNoGo2";;;;;;;;;;;;;;;;;;;;;;;;;;;;;;;;;;;"1248";"2014-10-07 09:56:10.289";"NST_correctLoc";"29";"0";"FINISHED";"LEFT";"success";"389";"0";"2014-10-07 09:56:09.039";"3";;;;;;;;;;;;;;;;;;;;;;;;;;;;;;;;;;;;;;;;;;;;;
"adj895";"1995";;"Windows 7";"Rachel's Experiment (D.T.)";"1.0";"2";"1";"1";"2";"1";"1";"2014-10-07 09:51:53.273";"2014-10-07 10:04:44.585";"1";"1";"0";"72";"71";"module.training_block2.exec-8438.GoNoGo2";;;;;;;;;;;;;;;;;;;;;;;;;;;;;;;;;;;"1248";"2014-10-07 09:56:12.804";"NST_correctLoc";"32";"1";"FINISHED";"RIGHT";"success";"305";"0";"2014-10-07 09:56:11.554";"3";;;;;;;;;;;;;;;;;;;;;;;;;;;;;;;;;;;;;;;;;;;;;
"adj895";"1995";;"Windows 7";"Rachel's Experiment (D.T.)";"1.0";"2";"1";"1";"2";"1";"1";"2014-10-07 09:51:53.273";"2014-10-07 10:04:44.585";"1";"1";"0";"73";"72";"module.training_block2.exec-8438.GoNoGo2";;;;;;;;;;;;;;;;;;;;;;;;;;;;;;;;;;;"1248";"2014-10-07 09:56:15.320";"NST_correctLoc";"1";"1";"FINISHED";"RIGHT";"success";"422";"0";"2014-10-07 09:56:14.070";"1";;;;;;;;;;;;;;;;;;;;;;;;;;;;;;;;;;;;;;;;;;;;;
"adj895";"1995";;"Windows 7";"Rachel's Experiment (D.T.)";"1.0";"2";"1";"1";"2";"1";"1";"2014-10-07 09:51:53.273";"2014-10-07 10:04:44.585";"1";"1";"0";"74";"73";"module.training_block2.exec-8438.GoNoGo2";;;;;;;;;;;;;;;;;;;;;;;;;;;;;;;;;;;"1248";"2014-10-07 09:56:17.835";"NST_correctLoc";"12";"1";"FINISHED";"RIGHT";"success";"434";"0";"2014-10-07 09:56:16.585";"2";;;;;;;;;;;;;;;;;;;;;;;;;;;;;;;;;;;;;;;;;;;;;
"adj895";"1995";;"Windows 7";"Rachel's Experiment (D.T.)";"1.0";"2";"1";"1";"2";"1";"1";"2014-10-07 09:51:53.273";"2014-10-07 10:04:44.585";"1";"1";"0";"75";"74";"module.training_block2.exec-8438.GoNoGo2";;;;;;;;;;;;;;;;;;;;;;;;;;;;;;;;;;;"1248";"2014-10-07 09:56:20.351";"NST_correctLoc";"2";"1";"FINISHED";"RIGHT";"success";"334";"0";"2014-10-07 09:56:19.101";"1";;;;;;;;;;;;;;;;;;;;;;;;;;;;;;;;;;;;;;;;;;;;;
"adj895";"1995";;"Windows 7";"Rachel's Experiment (D.T.)";"1.0";"2";"1";"1";"2";"1";"1";"2014-10-07 09:51:53.273";"2014-10-07 10:04:44.585";"1";"1";"0";"76";"75";"module.training_block2.exec-8438.GoNoGo2";;;;;;;;;;;;;;;;;;;;;;;;;;;;;;;;;;;"1248";"2014-10-07 09:56:22.867";"NST_correctLoc";"13";"1";"FINISHED";"RIGHT";"success";"571";"0";"2014-10-07 09:56:21.617";"2";;;;;;;;;;;;;;;;;;;;;;;;;;;;;;;;;;;;;;;;;;;;;
"adj895";"1995";;"Windows 7";"Rachel's Experiment (D.T.)";"1.0";"2";"1";"1";"2";"1";"1";"2014-10-07 09:51:53.273";"2014-10-07 10:04:44.585";"1";"1";"0";"77";"76";"module.training_block2.exec-8438.GoNoGo2";;;;;;;;;;;;;;;;;;;;;;;;;;;;;;;;;;;"1248";"2014-10-07 09:56:25.382";"NST_correctLoc";"22";"1";"FINISHED";"RIGHT";"success";"487";"0";"2014-10-07 09:56:24.132";"3";;;;;;;;;;;;;;;;;;;;;;;;;;;;;;;;;;;;;;;;;;;;;
"adj895";"1995";;"Windows 7";"Rachel's Experiment (D.T.)";"1.0";"2";"1";"1";"2";"1";"1";"2014-10-07 09:51:53.273";"2014-10-07 10:04:44.585";"1";"1";"0";"78";"77";"module.training_block2.exec-8438.GoNoGo2";;;;;;;;;;;;;;;;;;;;;;;;;;;;;;;;;;;"1248";"2014-10-07 09:56:27.898";"NST_correctLoc";"0";"0";"FINISHED";"LEFT";"success";"379";"0";"2014-10-07 09:56:26.648";"1";;;;;;;;;;;;;;;;;;;;;;;;;;;;;;;;;;;;;;;;;;;;;
"adj895";"1995";;"Windows 7";"Rachel's Experiment (D.T.)";"1.0";"2";"1";"1";"2";"1";"1";"2014-10-07 09:51:53.273";"2014-10-07 10:04:44.585";"1";"1";"0";"79";"78";"module.training_block2.exec-8438.GoNoGo2";;;;;;;;;;;;;;;;;;;;;;;;;;;;;;;;;;;"1248";"2014-10-07 09:56:30.414";"NST_correctLoc";"9";"1";"FINISHED";"RIGHT";"success";"384";"0";"2014-10-07 09:56:29.164";"2";;;;;;;;;;;;;;;;;;;;;;;;;;;;;;;;;;;;;;;;;;;;;
"adj895";"1995";;"Windows 7";"Rachel's Experiment (D.T.)";"1.0";"2";"1";"1";"2";"1";"1";"2014-10-07 09:51:53.273";"2014-10-07 10:04:44.585";"1";"1";"0";"80";"79";"module.training_block2.exec-8438.GoNoGo2";;;;;;;;;;;;;;;;;;;;;;;;;;;;;;;;;;;"1248";"2014-10-07 09:56:32.929";"NST_correctLoc";"19";"1";"FINISHED";"RIGHT";"success";"436";"0";"2014-10-07 09:56:31.679";"3";;;;;;;;;;;;;;;;;;;;;;;;;;;;;;;;;;;;;;;;;;;;;
"adj895";"1995";;"Windows 7";"Rachel's Experiment (D.T.)";"1.0";"2";"1";"1";"2";"1";"1";"2014-10-07 09:51:53.273";"2014-10-07 10:04:44.585";"1";"1";"0";"81";"80";"module.training_block2.exec-8438.GoNoGo2";;;;;;;;;;;;;;;;;;;;;;;;;;;;;;;;;;;"1240";"2014-10-07 09:56:35.445";"NST_correctLoc";"35";"0";"FINISHED";"LEFT";"success";"481";"0";"2014-10-07 09:56:34.195";"3";;;;;;;;;;;;;;;;;;;;;;;;;;;;;;;;;;;;;;;;;;;;;
"adj895";"1995";;"Windows 7";"Rachel's Experiment (D.T.)";"1.0";"2";"1";"1";"2";"1";"1";"2014-10-07 09:51:53.273";"2014-10-07 10:04:44.585";"1";"1";"0";"82";"81";"module.training_block2.exec-8438.GoNoGo2";;;;;;;;;;;;;;;;;;;;;;;;;;;;;;;;;;;"1248";"2014-10-07 09:56:37.960";"NST_correctLoc";"7";"1";"FINISHED";"RIGHT";"success";"301";"0";"2014-10-07 09:56:36.710";"1";;;;;;;;;;;;;;;;;;;;;;;;;;;;;;;;;;;;;;;;;;;;;
"adj895";"1995";;"Windows 7";"Rachel's Experiment (D.T.)";"1.0";"2";"1";"1";"2";"1";"1";"2014-10-07 09:51:53.273";"2014-10-07 10:04:44.585";"1";"1";"0";"83";"82";"module.training_block2.exec-8438.GoNoGo2";;;;;;;;;;;;;;;;;;;;;;;;;;;;;;;;;;;"1248";"2014-10-07 09:56:40.476";"NST_correctLoc";"25";"1";"FINISHED";"RIGHT";"success";"441";"0";"2014-10-07 09:56:39.226";"3";;;;;;;;;;;;;;;;;;;;;;;;;;;;;;;;;;;;;;;;;;;;;
"adj895";"1995";;"Windows 7";"Rachel's Experiment (D.T.)";"1.0";"2";"1";"1";"2";"1";"1";"2014-10-07 09:51:53.273";"2014-10-07 10:04:44.585";"1";"1";"0";"84";"83";"module.training_block2.exec-8438.GoNoGo2";;;;;;;;;;;;;;;;;;;;;;;;;;;;;;;;;;;"1248";"2014-10-07 09:56:42.992";"NST_correctLoc";"14";"0";"FINISHED";"LEFT";"success";"390";"0";"2014-10-07 09:56:41.742";"2";;;;;;;;;;;;;;;;;;;;;;;;;;;;;;;;;;;;;;;;;;;;;
"adj895";"1995";;"Windows 7";"Rachel's Experiment (D.T.)";"1.0";"2";"1";"1";"2";"1";"1";"2014-10-07 09:51:53.273";"2014-10-07 10:04:44.585";"1";"1";"0";"85";"84";"module.training_block2.exec-8438.GoNoGo2";;;;;;;;;;;;;;;;;;;;;;;;;;;;;;;;;;;"1248";"2014-10-07 09:56:45.507";"NST_correctLoc";"5";"0";"FINISHED";"LEFT";"success";"354";"0";"2014-10-07 09:56:44.257";"1";;;;;;;;;;;;;;;;;;;;;;;;;;;;;;;;;;;;;;;;;;;;;
"adj895";"1995";;"Windows 7";"Rachel's Experiment (D.T.)";"1.0";"2";"1";"1";"2";"1";"1";"2014-10-07 09:51:53.273";"2014-10-07 10:04:44.585";"1";"1";"0";"86";"85";"module.training_block2.exec-8438.GoNoGo2";;;;;;;;;;;;;;;;;;;;;;;;;;;;;;;;;;;"1248";"2014-10-07 09:56:48.007";"NST_correctLoc";"4";"0";"FINISHED";"LEFT";"success";"446";"0";"2014-10-07 09:56:46.757";"1";;;;;;;;;;;;;;;;;;;;;;;;;;;;;;;;;;;;;;;;;;;;;
"adj895";"1995";;"Windows 7";"Rachel's Experiment (D.T.)";"1.0";"2";"1";"1";"2";"1";"1";"2014-10-07 09:51:53.273";"2014-10-07 10:04:44.585";"1";"1";"0";"87";"86";"module.training_block2.exec-8438.GoNoGo2";;;;;;;;;;;;;;;;;;;;;;;;;;;;;;;;;;;"1248";"2014-10-07 09:56:50.523";"NST_correctLoc";"3";"0";"FINISHED";"LEFT";"success";"395";"0";"2014-10-07 09:56:49.273";"1";;;;;;;;;;;;;;;;;;;;;;;;;;;;;;;;;;;;;;;;;;;;;
"adj895";"1995";;"Windows 7";"Rachel's Experiment (D.T.)";"1.0";"2";"1";"1";"2";"1";"1";"2014-10-07 09:51:53.273";"2014-10-07 10:04:44.585";"1";"1";"0";"88";"87";"module.training_block3.exec-2194.GoNoGo3";;;;;;;;;;;;;;;;;;;;;;;;;;;;;;;;;;;;;;;;;;;;;;;"1248";"2014-10-07 09:57:01.132";"NST_correctLoc";"20";"0";"FINISHED";"LEFT";"success";"914";"0";"2014-10-07 09:56:59.882";"3";;;;;;;;;;;;;;;;;;;;;;;;;;;;;;;;;
"adj895";"1995";;"Windows 7";"Rachel's Experiment (D.T.)";"1.0";"2";"1";"1";"2";"1";"1";"2014-10-07 09:51:53.273";"2014-10-07 10:04:44.585";"1";"1";"0";"89";"88";"module.training_block3.exec-2194.GoNoGo3";;;;;;;;;;;;;;;;;;;;;;;;;;;;;;;;;;;;;;;;;;;;;;;"1248";"2014-10-07 09:57:03.632";"NST_correctLoc";"33";"1";"FINISHED";"RIGHT";"success";"398";"0";"2014-10-07 09:57:02.382";"3";;;;;;;;;;;;;;;;;;;;;;;;;;;;;;;;;
"adj895";"1995";;"Windows 7";"Rachel's Experiment (D.T.)";"1.0";"2";"1";"1";"2";"1";"1";"2014-10-07 09:51:53.273";"2014-10-07 10:04:44.585";"1";"1";"0";"90";"89";"module.training_block3.exec-2194.GoNoGo3";;;;;;;;;;;;;;;;;;;;;;;;;;;;;;;;;;;;;;;;;;;;;;;"1248";"2014-10-07 09:57:06.148";"NST_correctLoc";"8";"1";"FINISHED";"RIGHT";"success";"370";"0";"2014-10-07 09:57:04.898";"1";;;;;;;;;;;;;;;;;;;;;;;;;;;;;;;;;
"adj895";"1995";;"Windows 7";"Rachel's Experiment (D.T.)";"1.0";"2";"1";"1";"2";"1";"1";"2014-10-07 09:51:53.273";"2014-10-07 10:04:44.585";"1";"1";"0";"91";"90";"module.training_block3.exec-2194.GoNoGo3";;;;;;;;;;;;;;;;;;;;;;;;;;;;;;;;;;;;;;;;;;;;;;;"1248";"2014-10-07 09:57:08.664";"NST_correctLoc";"11";"1";"FINISHED";"RIGHT";"success";"287";"0";"2014-10-07 09:57:07.414";"2";;;;;;;;;;;;;;;;;;;;;;;;;;;;;;;;;
"adj895";"1995";;"Windows 7";"Rachel's Experiment (D.T.)";"1.0";"2";"1";"1";"2";"1";"1";"2014-10-07 09:51:53.273";"2014-10-07 10:04:44.585";"1";"1";"0";"92";"91";"module.training_block3.exec-2194.GoNoGo3";;;;;;;;;;;;;;;;;;;;;;;;;;;;;;;;;;;;;;;;;;;;;;;"1248";"2014-10-07 09:57:11.164";"NST_correctLoc";"24";"0";"FINISHED";"LEFT";"success";"514";"0";"2014-10-07 09:57:09.914";"3";;;;;;;;;;;;;;;;;;;;;;;;;;;;;;;;;
"adj895";"1995";;"Windows 7";"Rachel's Experiment (D.T.)";"1.0";"2";"1";"1";"2";"1";"1";"2014-10-07 09:51:53.273";"2014-10-07 10:04:44.585";"1";"1";"0";"93";"92";"module.training_block3.exec-2194.GoNoGo3";;;;;;;;;;;;;;;;;;;;;;;;;;;;;;;;;;;;;;;;;;;;;;;"1248";"2014-10-07 09:57:13.679";"NST_correctLoc";"2";"1";"FINISHED";"RIGHT";"success";"302";"0";"2014-10-07 09:57:12.429";"1";;;;;;;;;;;;;;;;;;;;;;;;;;;;;;;;;
"adj895";"1995";;"Windows 7";"Rachel's Experiment (D.T.)";"1.0";"2";"1";"1";"2";"1";"1";"2014-10-07 09:51:53.273";"2014-10-07 10:04:44.585";"1";"1";"0";"94";"93";"module.training_block3.exec-2194.GoNoGo3";;;;;;;;;;;;;;;;;;;;;;;;;;;;;;;;;;;;;;;;;;;;;;;"1248";"2014-10-07 09:57:16.195";"NST_correctLoc";"5";"1";"FINISHED";"RIGHT";"success";"27";"0";"2014-10-07 09:57:14.945";"1";;;;;;;;;;;;;;;;;;;;;;;;;;;;;;;;;
"adj895";"1995";;"Windows 7";"Rachel's Experiment (D.T.)";"1.0";"2";"1";"1";"2";"1";"1";"2014-10-07 09:51:53.273";"2014-10-07 10:04:44.585";"1";"1";"0";"95";"94";"module.training_block3.exec-2194.GoNoGo3";;;;;;;;;;;;;;;;;;;;;;;;;;;;;;;;;;;;;;;;;;;;;;;"1248";"2014-10-07 09:57:18.710";"NST_correctLoc";"12";"1";"FINISHED";"RIGHT";"success";"311";"0";"2014-10-07 09:57:17.460";"2";;;;;;;;;;;;;;;;;;;;;;;;;;;;;;;;;
"adj895";"1995";;"Windows 7";"Rachel's Experiment (D.T.)";"1.0";"2";"1";"1";"2";"1";"1";"2014-10-07 09:51:53.273";"2014-10-07 10:04:44.585";"1";"1";"0";"96";"95";"module.training_block3.exec-2194.GoNoGo3";;;;;;;;;;;;;;;;;;;;;;;;;;;;;;;;;;;;;;;;;;;;;;;"1248";"2014-10-07 09:57:21.226";"NST_correctLoc";"6";"0";"FINISHED";"LEFT";"success";"372";"0";"2014-10-07 09:57:19.976";"1";;;;;;;;;;;;;;;;;;;;;;;;;;;;;;;;;
"adj895";"1995";;"Windows 7";"Rachel's Experiment (D.T.)";"1.0";"2";"1";"1";"2";"1";"1";"2014-10-07 09:51:53.273";"2014-10-07 10:04:44.585";"1";"1";"0";"97";"96";"module.training_block3.exec-2194.GoNoGo3";;;;;;;;;;;;;;;;;;;;;;;;;;;;;;;;;;;;;;;;;;;;;;;"1248";"2014-10-07 09:57:23.742";"NST_correctLoc";"32";"1";"FINISHED";"RIGHT";"success";"384";"0";"2014-10-07 09:57:22.492";"3";;;;;;;;;;;;;;;;;;;;;;;;;;;;;;;;;
"adj895";"1995";;"Windows 7";"Rachel's Experiment (D.T.)";"1.0";"2";"1";"1";"2";"1";"1";"2014-10-07 09:51:53.273";"2014-10-07 10:04:44.585";"1";"1";"0";"98";"97";"module.training_block3.exec-2194.GoNoGo3";;;;;;;;;;;;;;;;;;;;;;;;;;;;;;;;;;;;;;;;;;;;;;;"1248";"2014-10-07 09:57:26.257";"NST_correctLoc";"31";"0";"FINISHED";"LEFT";"success";"412";"0";"2014-10-07 09:57:25.007";"3";;;;;;;;;;;;;;;;;;;;;;;;;;;;;;;;;
"adj895";"1995";;"Windows 7";"Rachel's Experiment (D.T.)";"1.0";"2";"1";"1";"2";"1";"1";"2014-10-07 09:51:53.273";"2014-10-07 10:04:44.585";"1";"1";"0";"99";"98";"module.training_block3.exec-2194.GoNoGo3";;;;;;;;;;;;;;;;;;;;;;;;;;;;;;;;;;;;;;;;;;;;;;;"1248";"2014-10-07 09:57:28.773";"NST_correctLoc";"19";"1";"FINISHED";"RIGHT";"success";"425";"0";"2014-10-07 09:57:27.523";"3";;;;;;;;;;;;;;;;;;;;;;;;;;;;;;;;;
"adj895";"1995";;"Windows 7";"Rachel's Experiment (D.T.)";"1.0";"2";"1";"1";"2";"1";"1";"2014-10-07 09:51:53.273";"2014-10-07 10:04:44.585";"1";"1";"0";"100";"99";"module.training_block3.exec-2194.GoNoGo3";;;;;;;;;;;;;;;;;;;;;;;;;;;;;;;;;;;;;;;;;;;;;;;"1248";"2014-10-07 09:57:31.289";"NST_correctLoc";"26";"0";"FINISHED";"LEFT";"success";"301";"0";"2014-10-07 09:57:30.039";"3";;;;;;;;;;;;;;;;;;;;;;;;;;;;;;;;;
"adj895";"1995";;"Windows 7";"Rachel's Experiment (D.T.)";"1.0";"2";"1";"1";"2";"1";"1";"2014-10-07 09:51:53.273";"2014-10-07 10:04:44.585";"1";"1";"0";"101";"100";"module.training_block3.exec-2194.GoNoGo3";;;;;;;;;;;;;;;;;;;;;;;;;;;;;;;;;;;;;;;;;;;;;;;"1248";"2014-10-07 09:57:33.804";"NST_correctLoc";"15";"1";"FINISHED";"RIGHT";"success";"361";"0";"2014-10-07 09:57:32.554";"2";;;;;;;;;;;;;;;;;;;;;;;;;;;;;;;;;
"adj895";"1995";;"Windows 7";"Rachel's Experiment (D.T.)";"1.0";"2";"1";"1";"2";"1";"1";"2014-10-07 09:51:53.273";"2014-10-07 10:04:44.585";"1";"1";"0";"102";"101";"module.training_block3.exec-2194.GoNoGo3";;;;;;;;;;;;;;;;;;;;;;;;;;;;;;;;;;;;;;;;;;;;;;;"1248";"2014-10-07 09:57:36.320";"NST_correctLoc";"1";"0";"FINISHED";"LEFT";"success";"518";"0";"2014-10-07 09:57:35.070";"1";;;;;;;;;;;;;;;;;;;;;;;;;;;;;;;;;
"adj895";"1995";;"Windows 7";"Rachel's Experiment (D.T.)";"1.0";"2";"1";"1";"2";"1";"1";"2014-10-07 09:51:53.273";"2014-10-07 10:04:44.585";"1";"1";"0";"103";"102";"module.training_block3.exec-2194.GoNoGo3";;;;;;;;;;;;;;;;;;;;;;;;;;;;;;;;;;;;;;;;;;;;;;;"1248";"2014-10-07 09:57:38.835";"NST_correctLoc";"17";"0";"FINISHED";"LEFT";"success";"362";"0";"2014-10-07 09:57:37.585";"2";;;;;;;;;;;;;;;;;;;;;;;;;;;;;;;;;
"adj895";"1995";;"Windows 7";"Rachel's Experiment (D.T.)";"1.0";"2";"1";"1";"2";"1";"1";"2014-10-07 09:51:53.273";"2014-10-07 10:04:44.585";"1";"1";"0";"104";"103";"module.training_block3.exec-2194.GoNoGo3";;;;;;;;;;;;;;;;;;;;;;;;;;;;;;;;;;;;;;;;;;;;;;;"1248";"2014-10-07 09:57:41.351";"NST_wrongLoc";"13";"1";"FINISHED";"LEFT";"failure";"391";"0";"2014-10-07 09:57:40.101";"2";;;;;;;;;;;;;;;;;;;;;;;;;;;;;;;;;
"adj895";"1995";;"Windows 7";"Rachel's Experiment (D.T.)";"1.0";"2";"1";"1";"2";"1";"1";"2014-10-07 09:51:53.273";"2014-10-07 10:04:44.585";"1";"1";"0";"105";"104";"module.training_block3.exec-2194.GoNoGo3";;;;;;;;;;;;;;;;;;;;;;;;;;;;;;;;;;;;;;;;;;;;;;;"1248";"2014-10-07 09:57:43.851";"NST_correctLoc";"10";"0";"FINISHED";"LEFT";"success";"419";"0";"2014-10-07 09:57:42.601";"2";;;;;;;;;;;;;;;;;;;;;;;;;;;;;;;;;
"adj895";"1995";;"Windows 7";"Rachel's Experiment (D.T.)";"1.0";"2";"1";"1";"2";"1";"1";"2014-10-07 09:51:53.273";"2014-10-07 10:04:44.585";"1";"1";"0";"106";"105";"module.training_block3.exec-2194.GoNoGo3";;;;;;;;;;;;;;;;;;;;;;;;;;;;;;;;;;;;;;;;;;;;;;;"1248";"2014-10-07 09:57:46.351";"NST_correctLoc";"23";"1";"FINISHED";"RIGHT";"success";"367";"0";"2014-10-07 09:57:45.101";"3";;;;;;;;;;;;;;;;;;;;;;;;;;;;;;;;;
"adj895";"1995";;"Windows 7";"Rachel's Experiment (D.T.)";"1.0";"2";"1";"1";"2";"1";"1";"2014-10-07 09:51:53.273";"2014-10-07 10:04:44.585";"1";"1";"0";"107";"106";"module.training_block3.exec-2194.GoNoGo3";;;;;;;;;;;;;;;;;;;;;;;;;;;;;;;;;;;;;;;;;;;;;;;"1248";"2014-10-07 09:57:48.867";"NST_correctLoc";"14";"0";"FINISHED";"LEFT";"success";"531";"0";"2014-10-07 09:57:47.617";"2";;;;;;;;;;;;;;;;;;;;;;;;;;;;;;;;;
"adj895";"1995";;"Windows 7";"Rachel's Experiment (D.T.)";"1.0";"2";"1";"1";"2";"1";"1";"2014-10-07 09:51:53.273";"2014-10-07 10:04:44.585";"1";"1";"0";"108";"107";"module.training_block3.exec-2194.GoNoGo3";;;;;;;;;;;;;;;;;;;;;;;;;;;;;;;;;;;;;;;;;;;;;;;"1248";"2014-10-07 09:57:51.382";"NST_correctLoc";"27";"0";"FINISHED";"LEFT";"success";"351";"0";"2014-10-07 09:57:50.132";"3";;;;;;;;;;;;;;;;;;;;;;;;;;;;;;;;;
"adj895";"1995";;"Windows 7";"Rachel's Experiment (D.T.)";"1.0";"2";"1";"1";"2";"1";"1";"2014-10-07 09:51:53.273";"2014-10-07 10:04:44.585";"1";"1";"0";"109";"108";"module.training_block3.exec-2194.GoNoGo3";;;;;;;;;;;;;;;;;;;;;;;;;;;;;;;;;;;;;;;;;;;;;;;"1248";"2014-10-07 09:57:53.882";"NST_correctLoc";"21";"1";"FINISHED";"RIGHT";"success";"507";"0";"2014-10-07 09:57:52.632";"3";;;;;;;;;;;;;;;;;;;;;;;;;;;;;;;;;
"adj895";"1995";;"Windows 7";"Rachel's Experiment (D.T.)";"1.0";"2";"1";"1";"2";"1";"1";"2014-10-07 09:51:53.273";"2014-10-07 10:04:44.585";"1";"1";"0";"110";"109";"module.training_block3.exec-2194.GoNoGo3";;;;;;;;;;;;;;;;;;;;;;;;;;;;;;;;;;;;;;;;;;;;;;;"1248";"2014-10-07 09:57:56.382";"NST_correctLoc";"22";"0";"FINISHED";"LEFT";"success";"647";"0";"2014-10-07 09:57:55.132";"3";;;;;;;;;;;;;;;;;;;;;;;;;;;;;;;;;
"adj895";"1995";;"Windows 7";"Rachel's Experiment (D.T.)";"1.0";"2";"1";"1";"2";"1";"1";"2014-10-07 09:51:53.273";"2014-10-07 10:04:44.585";"1";"1";"0";"111";"110";"module.training_block3.exec-2194.GoNoGo3";;;;;;;;;;;;;;;;;;;;;;;;;;;;;;;;;;;;;;;;;;;;;;;"1248";"2014-10-07 09:57:58.882";"NST_correctLoc";"4";"1";"FINISHED";"RIGHT";"success";"523";"0";"2014-10-07 09:57:57.632";"1";;;;;;;;;;;;;;;;;;;;;;;;;;;;;;;;;
"adj895";"1995";;"Windows 7";"Rachel's Experiment (D.T.)";"1.0";"2";"1";"1";"2";"1";"1";"2014-10-07 09:51:53.273";"2014-10-07 10:04:44.585";"1";"1";"0";"112";"111";"module.training_block3.exec-2194.GoNoGo3";;;;;;;;;;;;;;;;;;;;;;;;;;;;;;;;;;;;;;;;;;;;;;;"1248";"2014-10-07 09:58:01.382";"NST_correctLoc";"7";"1";"FINISHED";"RIGHT";"success";"615";"0";"2014-10-07 09:58:00.132";"1";;;;;;;;;;;;;;;;;;;;;;;;;;;;;;;;;
"adj895";"1995";;"Windows 7";"Rachel's Experiment (D.T.)";"1.0";"2";"1";"1";"2";"1";"1";"2014-10-07 09:51:53.273";"2014-10-07 10:04:44.585";"1";"1";"0";"113";"112";"module.training_block3.exec-2194.GoNoGo3";;;;;;;;;;;;;;;;;;;;;;;;;;;;;;;;;;;;;;;;;;;;;;;"1248";"2014-10-07 09:58:03.882";"NST_correctLoc";"9";"0";"FINISHED";"LEFT";"success";"619";"0";"2014-10-07 09:58:02.632";"2";;;;;;;;;;;;;;;;;;;;;;;;;;;;;;;;;
"adj895";"1995";;"Windows 7";"Rachel's Experiment (D.T.)";"1.0";"2";"1";"1";"2";"1";"1";"2014-10-07 09:51:53.273";"2014-10-07 10:04:44.585";"1";"1";"0";"114";"113";"module.training_block3.exec-2194.GoNoGo3";;;;;;;;;;;;;;;;;;;;;;;;;;;;;;;;;;;;;;;;;;;;;;;"1248";"2014-10-07 09:58:06.398";"NST_correctLoc";"0";"0";"FINISHED";"LEFT";"success";"384";"0";"2014-10-07 09:58:05.148";"1";;;;;;;;;;;;;;;;;;;;;;;;;;;;;;;;;
"adj895";"1995";;"Windows 7";"Rachel's Experiment (D.T.)";"1.0";"2";"1";"1";"2";"1";"1";"2014-10-07 09:51:53.273";"2014-10-07 10:04:44.585";"1";"1";"0";"115";"114";"module.training_block3.exec-2194.GoNoGo3";;;;;;;;;;;;;;;;;;;;;;;;;;;;;;;;;;;;;;;;;;;;;;;"1248";"2014-10-07 09:58:08.898";"NST_correctLoc";"30";"0";"FINISHED";"LEFT";"success";"396";"0";"2014-10-07 09:58:07.648";"3";;;;;;;;;;;;;;;;;;;;;;;;;;;;;;;;;
"adj895";"1995";;"Windows 7";"Rachel's Experiment (D.T.)";"1.0";"2";"1";"1";"2";"1";"1";"2014-10-07 09:51:53.273";"2014-10-07 10:04:44.585";"1";"1";"0";"116";"115";"module.training_block3.exec-2194.GoNoGo3";;;;;;;;;;;;;;;;;;;;;;;;;;;;;;;;;;;;;;;;;;;;;;;"1248";"2014-10-07 09:58:11.398";"NST_correctLoc";"25";"0";"FINISHED";"LEFT";"success";"432";"0";"2014-10-07 09:58:10.148";"3";;;;;;;;;;;;;;;;;;;;;;;;;;;;;;;;;
"adj895";"1995";;"Windows 7";"Rachel's Experiment (D.T.)";"1.0";"2";"1";"1";"2";"1";"1";"2014-10-07 09:51:53.273";"2014-10-07 10:04:44.585";"1";"1";"0";"117";"116";"module.training_block3.exec-2194.GoNoGo3";;;;;;;;;;;;;;;;;;;;;;;;;;;;;;;;;;;;;;;;;;;;;;;"1244";"2014-10-07 09:58:13.898";"NST_correctLoc";"35";"1";"FINISHED";"RIGHT";"success";"440";"0";"2014-10-07 09:58:12.648";"3";;;;;;;;;;;;;;;;;;;;;;;;;;;;;;;;;
"adj895";"1995";;"Windows 7";"Rachel's Experiment (D.T.)";"1.0";"2";"1";"1";"2";"1";"1";"2014-10-07 09:51:53.273";"2014-10-07 10:04:44.585";"1";"1";"0";"118";"117";"module.training_block3.exec-2194.GoNoGo3";;;;;;;;;;;;;;;;;;;;;;;;;;;;;;;;;;;;;;;;;;;;;;;"1248";"2014-10-07 09:58:16.398";"NST_correctLoc";"18";"0";"FINISHED";"LEFT";"success";"328";"0";"2014-10-07 09:58:15.148";"3";;;;;;;;;;;;;;;;;;;;;;;;;;;;;;;;;
"adj895";"1995";;"Windows 7";"Rachel's Experiment (D.T.)";"1.0";"2";"1";"1";"2";"1";"1";"2014-10-07 09:51:53.273";"2014-10-07 10:04:44.585";"1";"1";"0";"119";"118";"module.training_block3.exec-2194.GoNoGo3";;;;;;;;;;;;;;;;;;;;;;;;;;;;;;;;;;;;;;;;;;;;;;;"1248";"2014-10-07 09:58:18.898";"NST_correctLoc";"3";"1";"FINISHED";"RIGHT";"success";"499";"0";"2014-10-07 09:58:17.648";"1";;;;;;;;;;;;;;;;;;;;;;;;;;;;;;;;;
"adj895";"1995";;"Windows 7";"Rachel's Experiment (D.T.)";"1.0";"2";"1";"1";"2";"1";"1";"2014-10-07 09:51:53.273";"2014-10-07 10:04:44.585";"1";"1";"0";"120";"119";"module.training_block3.exec-2194.GoNoGo3";;;;;;;;;;;;;;;;;;;;;;;;;;;;;;;;;;;;;;;;;;;;;;;"1248";"2014-10-07 09:58:21.398";"NST_correctLoc";"34";"1";"FINISHED";"RIGHT";"success";"432";"0";"2014-10-07 09:58:20.148";"3";;;;;;;;;;;;;;;;;;;;;;;;;;;;;;;;;
"adj895";"1995";;"Windows 7";"Rachel's Experiment (D.T.)";"1.0";"2";"1";"1";"2";"1";"1";"2014-10-07 09:51:53.273";"2014-10-07 10:04:44.585";"1";"1";"0";"121";"120";"module.training_block3.exec-2194.GoNoGo3";;;;;;;;;;;;;;;;;;;;;;;;;;;;;;;;;;;;;;;;;;;;;;;"1248";"2014-10-07 09:58:23.898";"NST_correctLoc";"29";"1";"FINISHED";"RIGHT";"success";"364";"0";"2014-10-07 09:58:22.648";"3";;;;;;;;;;;;;;;;;;;;;;;;;;;;;;;;;
"adj895";"1995";;"Windows 7";"Rachel's Experiment (D.T.)";"1.0";"2";"1";"1";"2";"1";"1";"2014-10-07 09:51:53.273";"2014-10-07 10:04:44.585";"1";"1";"0";"122";"121";"module.training_block3.exec-2194.GoNoGo3";;;;;;;;;;;;;;;;;;;;;;;;;;;;;;;;;;;;;;;;;;;;;;;"1248";"2014-10-07 09:58:26.398";"NST_correctLoc";"28";"0";"FINISHED";"LEFT";"success";"384";"0";"2014-10-07 09:58:25.148";"3";;;;;;;;;;;;;;;;;;;;;;;;;;;;;;;;;
"adj895";"1995";;"Windows 7";"Rachel's Experiment (D.T.)";"1.0";"2";"1";"1";"2";"1";"1";"2014-10-07 09:51:53.273";"2014-10-07 10:04:44.585";"1";"1";"0";"123";"122";"module.training_block3.exec-2194.GoNoGo3";;;;;;;;;;;;;;;;;;;;;;;;;;;;;;;;;;;;;;;;;;;;;;;"1248";"2014-10-07 09:58:28.898";"NST_correctLoc";"16";"0";"FINISHED";"LEFT";"success";"468";"0";"2014-10-07 09:58:27.648";"2";;;;;;;;;;;;;;;;;;;;;;;;;;;;;;;;;
"adj895";"1995";;"Windows 7";"Rachel's Experiment (D.T.)";"1.0";"2";"1";"1";"2";"1";"1";"2014-10-07 09:51:53.273";"2014-10-07 10:04:44.585";"1";"1";"0";"124";"123";"module.training_block4.exec-7664.GoNoGo4";;;;;;;;;;;;;;;;;;;;;;;;;;;;;;;;;;;;;;;;;;;;;;;;;;;;;;;;;;;"1248";"2014-10-07 09:58:39.507";"NST_correctLoc";"20";"1";"FINISHED";"RIGHT";"success";"386";"0";"2014-10-07 09:58:38.257";"3";;;;;;;;;;;;;;;;;;;;;
"adj895";"1995";;"Windows 7";"Rachel's Experiment (D.T.)";"1.0";"2";"1";"1";"2";"1";"1";"2014-10-07 09:51:53.273";"2014-10-07 10:04:44.585";"1";"1";"0";"125";"124";"module.training_block4.exec-7664.GoNoGo4";;;;;;;;;;;;;;;;;;;;;;;;;;;;;;;;;;;;;;;;;;;;;;;;;;;;;;;;;;;"1248";"2014-10-07 09:58:42.007";"NST_correctLoc";"6";"1";"FINISHED";"RIGHT";"success";"342";"0";"2014-10-07 09:58:40.757";"1";;;;;;;;;;;;;;;;;;;;;
"adj895";"1995";;"Windows 7";"Rachel's Experiment (D.T.)";"1.0";"2";"1";"1";"2";"1";"1";"2014-10-07 09:51:53.273";"2014-10-07 10:04:44.585";"1";"1";"0";"126";"125";"module.training_block4.exec-7664.GoNoGo4";;;;;;;;;;;;;;;;;;;;;;;;;;;;;;;;;;;;;;;;;;;;;;;;;;;;;;;;;;;"1248";"2014-10-07 09:58:44.523";"NST_correctLoc";"2";"1";"FINISHED";"RIGHT";"success";"259";"0";"2014-10-07 09:58:43.273";"1";;;;;;;;;;;;;;;;;;;;;
"adj895";"1995";;"Windows 7";"Rachel's Experiment (D.T.)";"1.0";"2";"1";"1";"2";"1";"1";"2014-10-07 09:51:53.273";"2014-10-07 10:04:44.585";"1";"1";"0";"127";"126";"module.training_block4.exec-7664.GoNoGo4";;;;;;;;;;;;;;;;;;;;;;;;;;;;;;;;;;;;;;;;;;;;;;;;;;;;;;;;;;;"1248";"2014-10-07 09:58:47.023";"NST_correctLoc";"28";"0";"FINISHED";"LEFT";"success";"271";"0";"2014-10-07 09:58:45.773";"3";;;;;;;;;;;;;;;;;;;;;
"adj895";"1995";;"Windows 7";"Rachel's Experiment (D.T.)";"1.0";"2";"1";"1";"2";"1";"1";"2014-10-07 09:51:53.273";"2014-10-07 10:04:44.585";"1";"1";"0";"128";"127";"module.training_block4.exec-7664.GoNoGo4";;;;;;;;;;;;;;;;;;;;;;;;;;;;;;;;;;;;;;;;;;;;;;;;;;;;;;;;;;;"1248";"2014-10-07 09:58:49.523";"NST_correctLoc";"5";"0";"FINISHED";"LEFT";"success";"363";"0";"2014-10-07 09:58:48.273";"1";;;;;;;;;;;;;;;;;;;;;
"adj895";"1995";;"Windows 7";"Rachel's Experiment (D.T.)";"1.0";"2";"1";"1";"2";"1";"1";"2014-10-07 09:51:53.273";"2014-10-07 10:04:44.585";"1";"1";"0";"129";"128";"module.training_block4.exec-7664.GoNoGo4";;;;;;;;;;;;;;;;;;;;;;;;;;;;;;;;;;;;;;;;;;;;;;;;;;;;;;;;;;;"1248";"2014-10-07 09:58:52.023";"NST_correctLoc";"0";"1";"FINISHED";"RIGHT";"success";"367";"0";"2014-10-07 09:58:50.773";"1";;;;;;;;;;;;;;;;;;;;;
"adj895";"1995";;"Windows 7";"Rachel's Experiment (D.T.)";"1.0";"2";"1";"1";"2";"1";"1";"2014-10-07 09:51:53.273";"2014-10-07 10:04:44.585";"1";"1";"0";"130";"129";"module.training_block4.exec-7664.GoNoGo4";;;;;;;;;;;;;;;;;;;;;;;;;;;;;;;;;;;;;;;;;;;;;;;;;;;;;;;;;;;"1248";"2014-10-07 09:58:54.523";"NST_correctLoc";"17";"0";"FINISHED";"LEFT";"success";"483";"0";"2014-10-07 09:58:53.273";"2";;;;;;;;;;;;;;;;;;;;;
"adj895";"1995";;"Windows 7";"Rachel's Experiment (D.T.)";"1.0";"2";"1";"1";"2";"1";"1";"2014-10-07 09:51:53.273";"2014-10-07 10:04:44.585";"1";"1";"0";"131";"130";"module.training_block4.exec-7664.GoNoGo4";;;;;;;;;;;;;;;;;;;;;;;;;;;;;;;;;;;;;;;;;;;;;;;;;;;;;;;;;;;"1248";"2014-10-07 09:58:57.023";"NST_correctLoc";"34";"1";"FINISHED";"RIGHT";"success";"311";"0";"2014-10-07 09:58:55.773";"3";;;;;;;;;;;;;;;;;;;;;
"adj895";"1995";;"Windows 7";"Rachel's Experiment (D.T.)";"1.0";"2";"1";"1";"2";"1";"1";"2014-10-07 09:51:53.273";"2014-10-07 10:04:44.585";"1";"1";"0";"132";"131";"module.training_block4.exec-7664.GoNoGo4";;;;;;;;;;;;;;;;;;;;;;;;;;;;;;;;;;;;;;;;;;;;;;;;;;;;;;;;;;;"1248";"2014-10-07 09:58:59.523";"NST_correctLoc";"32";"1";"FINISHED";"RIGHT";"success";"515";"0";"2014-10-07 09:58:58.273";"3";;;;;;;;;;;;;;;;;;;;;
"adj895";"1995";;"Windows 7";"Rachel's Experiment (D.T.)";"1.0";"2";"1";"1";"2";"1";"1";"2014-10-07 09:51:53.273";"2014-10-07 10:04:44.585";"1";"1";"0";"133";"132";"module.training_block4.exec-7664.GoNoGo4";;;;;;;;;;;;;;;;;;;;;;;;;;;;;;;;;;;;;;;;;;;;;;;;;;;;;;;;;;;"1248";"2014-10-07 09:59:02.023";"NST_correctLoc";"33";"1";"FINISHED";"RIGHT";"success";"327";"0";"2014-10-07 09:59:00.773";"3";;;;;;;;;;;;;;;;;;;;;
"adj895";"1995";;"Windows 7";"Rachel's Experiment (D.T.)";"1.0";"2";"1";"1";"2";"1";"1";"2014-10-07 09:51:53.273";"2014-10-07 10:04:44.585";"1";"1";"0";"134";"133";"module.training_block4.exec-7664.GoNoGo4";;;;;;;;;;;;;;;;;;;;;;;;;;;;;;;;;;;;;;;;;;;;;;;;;;;;;;;;;;;"1248";"2014-10-07 09:59:04.523";"NST_correctLoc";"16";"1";"FINISHED";"RIGHT";"success";"291";"0";"2014-10-07 09:59:03.273";"2";;;;;;;;;;;;;;;;;;;;;
"adj895";"1995";;"Windows 7";"Rachel's Experiment (D.T.)";"1.0";"2";"1";"1";"2";"1";"1";"2014-10-07 09:51:53.273";"2014-10-07 10:04:44.585";"1";"1";"0";"135";"134";"module.training_block4.exec-7664.GoNoGo4";;;;;;;;;;;;;;;;;;;;;;;;;;;;;;;;;;;;;;;;;;;;;;;;;;;;;;;;;;;"1248";"2014-10-07 09:59:07.039";"NST_correctLoc";"19";"1";"FINISHED";"RIGHT";"success";"495";"0";"2014-10-07 09:59:05.789";"3";;;;;;;;;;;;;;;;;;;;;
"adj895";"1995";;"Windows 7";"Rachel's Experiment (D.T.)";"1.0";"2";"1";"1";"2";"1";"1";"2014-10-07 09:51:53.273";"2014-10-07 10:04:44.585";"1";"1";"0";"136";"135";"module.training_block4.exec-7664.GoNoGo4";;;;;;;;;;;;;;;;;;;;;;;;;;;;;;;;;;;;;;;;;;;;;;;;;;;;;;;;;;;"1244";"2014-10-07 09:59:09.539";"NST_correctLoc";"8";"0";"FINISHED";"LEFT";"success";"375";"0";"2014-10-07 09:59:08.289";"1";;;;;;;;;;;;;;;;;;;;;
"adj895";"1995";;"Windows 7";"Rachel's Experiment (D.T.)";"1.0";"2";"1";"1";"2";"1";"1";"2014-10-07 09:51:53.273";"2014-10-07 10:04:44.585";"1";"1";"0";"137";"136";"module.training_block4.exec-7664.GoNoGo4";;;;;;;;;;;;;;;;;;;;;;;;;;;;;;;;;;;;;;;;;;;;;;;;;;;;;;;;;;;"1248";"2014-10-07 09:59:12.054";"NST_correctLoc";"21";"1";"FINISHED";"RIGHT";"success";"528";"0";"2014-10-07 09:59:10.804";"3";;;;;;;;;;;;;;;;;;;;;
"adj895";"1995";;"Windows 7";"Rachel's Experiment (D.T.)";"1.0";"2";"1";"1";"2";"1";"1";"2014-10-07 09:51:53.273";"2014-10-07 10:04:44.585";"1";"1";"0";"138";"137";"module.training_block4.exec-7664.GoNoGo4";;;;;;;;;;;;;;;;;;;;;;;;;;;;;;;;;;;;;;;;;;;;;;;;;;;;;;;;;;;"1248";"2014-10-07 09:59:14.554";"NST_correctLoc";"12";"0";"FINISHED";"LEFT";"success";"428";"0";"2014-10-07 09:59:13.304";"2";;;;;;;;;;;;;;;;;;;;;
"adj895";"1995";;"Windows 7";"Rachel's Experiment (D.T.)";"1.0";"2";"1";"1";"2";"1";"1";"2014-10-07 09:51:53.273";"2014-10-07 10:04:44.585";"1";"1";"0";"139";"138";"module.training_block4.exec-7664.GoNoGo4";;;;;;;;;;;;;;;;;;;;;;;;;;;;;;;;;;;;;;;;;;;;;;;;;;;;;;;;;;;"1248";"2014-10-07 09:59:17.054";"NST_correctLoc";"31";"0";"FINISHED";"LEFT";"success";"416";"0";"2014-10-07 09:59:15.804";"3";;;;;;;;;;;;;;;;;;;;;
"adj895";"1995";;"Windows 7";"Rachel's Experiment (D.T.)";"1.0";"2";"1";"1";"2";"1";"1";"2014-10-07 09:51:53.273";"2014-10-07 10:04:44.585";"1";"1";"0";"140";"139";"module.training_block4.exec-7664.GoNoGo4";;;;;;;;;;;;;;;;;;;;;;;;;;;;;;;;;;;;;;;;;;;;;;;;;;;;;;;;;;;"1248";"2014-10-07 09:59:19.554";"NST_correctLoc";"27";"0";"FINISHED";"LEFT";"success";"452";"0";"2014-10-07 09:59:18.304";"3";;;;;;;;;;;;;;;;;;;;;
"adj895";"1995";;"Windows 7";"Rachel's Experiment (D.T.)";"1.0";"2";"1";"1";"2";"1";"1";"2014-10-07 09:51:53.273";"2014-10-07 10:04:44.585";"1";"1";"0";"141";"140";"module.training_block4.exec-7664.GoNoGo4";;;;;;;;;;;;;;;;;;;;;;;;;;;;;;;;;;;;;;;;;;;;;;;;;;;;;;;;;;;"1248";"2014-10-07 09:59:22.054";"NST_correctLoc";"30";"1";"FINISHED";"RIGHT";"success";"416";"0";"2014-10-07 09:59:20.804";"3";;;;;;;;;;;;;;;;;;;;;
"adj895";"1995";;"Windows 7";"Rachel's Experiment (D.T.)";"1.0";"2";"1";"1";"2";"1";"1";"2014-10-07 09:51:53.273";"2014-10-07 10:04:44.585";"1";"1";"0";"142";"141";"module.training_block4.exec-7664.GoNoGo4";;;;;;;;;;;;;;;;;;;;;;;;;;;;;;;;;;;;;;;;;;;;;;;;;;;;;;;;;;;"1248";"2014-10-07 09:59:24.554";"NST_correctLoc";"13";"1";"FINISHED";"RIGHT";"success";"300";"0";"2014-10-07 09:59:23.304";"2";;;;;;;;;;;;;;;;;;;;;
"adj895";"1995";;"Windows 7";"Rachel's Experiment (D.T.)";"1.0";"2";"1";"1";"2";"1";"1";"2014-10-07 09:51:53.273";"2014-10-07 10:04:44.585";"1";"1";"0";"143";"142";"module.training_block4.exec-7664.GoNoGo4";;;;;;;;;;;;;;;;;;;;;;;;;;;;;;;;;;;;;;;;;;;;;;;;;;;;;;;;;;;"1248";"2014-10-07 09:59:27.054";"NST_wrongLoc";"23";"0";"FINISHED";"RIGHT";"failure";"392";"0";"2014-10-07 09:59:25.804";"3";;;;;;;;;;;;;;;;;;;;;
"adj895";"1995";;"Windows 7";"Rachel's Experiment (D.T.)";"1.0";"2";"1";"1";"2";"1";"1";"2014-10-07 09:51:53.273";"2014-10-07 10:04:44.585";"1";"1";"0";"144";"143";"module.training_block4.exec-7664.GoNoGo4";;;;;;;;;;;;;;;;;;;;;;;;;;;;;;;;;;;;;;;;;;;;;;;;;;;;;;;;;;;"1248";"2014-10-07 09:59:29.554";"NST_correctLoc";"35";"0";"FINISHED";"LEFT";"success";"420";"0";"2014-10-07 09:59:28.304";"3";;;;;;;;;;;;;;;;;;;;;
"adj895";"1995";;"Windows 7";"Rachel's Experiment (D.T.)";"1.0";"2";"1";"1";"2";"1";"1";"2014-10-07 09:51:53.273";"2014-10-07 10:04:44.585";"1";"1";"0";"145";"144";"module.training_block4.exec-7664.GoNoGo4";;;;;;;;;;;;;;;;;;;;;;;;;;;;;;;;;;;;;;;;;;;;;;;;;;;;;;;;;;;"1248";"2014-10-07 09:59:32.054";"NST_correctLoc";"18";"0";"FINISHED";"LEFT";"success";"496";"0";"2014-10-07 09:59:30.804";"3";;;;;;;;;;;;;;;;;;;;;
"adj895";"1995";;"Windows 7";"Rachel's Experiment (D.T.)";"1.0";"2";"1";"1";"2";"1";"1";"2014-10-07 09:51:53.273";"2014-10-07 10:04:44.585";"1";"1";"0";"146";"145";"module.training_block4.exec-7664.GoNoGo4";;;;;;;;;;;;;;;;;;;;;;;;;;;;;;;;;;;;;;;;;;;;;;;;;;;;;;;;;;;"1245";"2014-10-07 09:59:34.554";"NST_correctLoc";"24";"1";"FINISHED";"RIGHT";"success";"616";"0";"2014-10-07 09:59:33.304";"3";;;;;;;;;;;;;;;;;;;;;
"adj895";"1995";;"Windows 7";"Rachel's Experiment (D.T.)";"1.0";"2";"1";"1";"2";"1";"1";"2014-10-07 09:51:53.273";"2014-10-07 10:04:44.585";"1";"1";"0";"147";"146";"module.training_block4.exec-7664.GoNoGo4";;;;;;;;;;;;;;;;;;;;;;;;;;;;;;;;;;;;;;;;;;;;;;;;;;;;;;;;;;;"1248";"2014-10-07 09:59:37.054";"NST_correctLoc";"9";"0";"FINISHED";"LEFT";"success";"464";"0";"2014-10-07 09:59:35.804";"2";;;;;;;;;;;;;;;;;;;;;
"adj895";"1995";;"Windows 7";"Rachel's Experiment (D.T.)";"1.0";"2";"1";"1";"2";"1";"1";"2014-10-07 09:51:53.273";"2014-10-07 10:04:44.585";"1";"1";"0";"148";"147";"module.training_block4.exec-7664.GoNoGo4";;;;;;;;;;;;;;;;;;;;;;;;;;;;;;;;;;;;;;;;;;;;;;;;;;;;;;;;;;;"1248";"2014-10-07 09:59:39.554";"NST_miss";"15";"1";"FINISHED";"NONE";"failure";"0";"0";"2014-10-07 09:59:38.304";"2";;;;;;;;;;;;;;;;;;;;;
"adj895";"1995";;"Windows 7";"Rachel's Experiment (D.T.)";"1.0";"2";"1";"1";"2";"1";"1";"2014-10-07 09:51:53.273";"2014-10-07 10:04:44.585";"1";"1";"0";"149";"148";"module.training_block4.exec-7664.GoNoGo4";;;;;;;;;;;;;;;;;;;;;;;;;;;;;;;;;;;;;;;;;;;;;;;;;;;;;;;;;;;"1248";"2014-10-07 09:59:42.054";"NST_correctLoc";"10";"0";"FINISHED";"LEFT";"success";"384";"0";"2014-10-07 09:59:40.804";"2";;;;;;;;;;;;;;;;;;;;;
"adj895";"1995";;"Windows 7";"Rachel's Experiment (D.T.)";"1.0";"2";"1";"1";"2";"1";"1";"2014-10-07 09:51:53.273";"2014-10-07 10:04:44.585";"1";"1";"0";"150";"149";"module.training_block4.exec-7664.GoNoGo4";;;;;;;;;;;;;;;;;;;;;;;;;;;;;;;;;;;;;;;;;;;;;;;;;;;;;;;;;;;"1248";"2014-10-07 09:59:44.554";"NST_correctLoc";"14";"1";"FINISHED";"RIGHT";"success";"284";"0";"2014-10-07 09:59:43.304";"2";;;;;;;;;;;;;;;;;;;;;
"adj895";"1995";;"Windows 7";"Rachel's Experiment (D.T.)";"1.0";"2";"1";"1";"2";"1";"1";"2014-10-07 09:51:53.273";"2014-10-07 10:04:44.585";"1";"1";"0";"151";"150";"module.training_block4.exec-7664.GoNoGo4";;;;;;;;;;;;;;;;;;;;;;;;;;;;;;;;;;;;;;;;;;;;;;;;;;;;;;;;;;;"1248";"2014-10-07 09:59:47.054";"NST_correctLoc";"22";"0";"FINISHED";"LEFT";"success";"368";"0";"2014-10-07 09:59:45.804";"3";;;;;;;;;;;;;;;;;;;;;
"adj895";"1995";;"Windows 7";"Rachel's Experiment (D.T.)";"1.0";"2";"1";"1";"2";"1";"1";"2014-10-07 09:51:53.273";"2014-10-07 10:04:44.585";"1";"1";"0";"152";"151";"module.training_block4.exec-7664.GoNoGo4";;;;;;;;;;;;;;;;;;;;;;;;;;;;;;;;;;;;;;;;;;;;;;;;;;;;;;;;;;;"1248";"2014-10-07 09:59:49.554";"NST_correctLoc";"26";"0";"FINISHED";"LEFT";"success";"380";"0";"2014-10-07 09:59:48.304";"3";;;;;;;;;;;;;;;;;;;;;
"adj895";"1995";;"Windows 7";"Rachel's Experiment (D.T.)";"1.0";"2";"1";"1";"2";"1";"1";"2014-10-07 09:51:53.273";"2014-10-07 10:04:44.585";"1";"1";"0";"153";"152";"module.training_block4.exec-7664.GoNoGo4";;;;;;;;;;;;;;;;;;;;;;;;;;;;;;;;;;;;;;;;;;;;;;;;;;;;;;;;;;;"1248";"2014-10-07 09:59:52.054";"NST_correctLoc";"4";"0";"FINISHED";"LEFT";"success";"328";"0";"2014-10-07 09:59:50.804";"1";;;;;;;;;;;;;;;;;;;;;
"adj895";"1995";;"Windows 7";"Rachel's Experiment (D.T.)";"1.0";"2";"1";"1";"2";"1";"1";"2014-10-07 09:51:53.273";"2014-10-07 10:04:44.585";"1";"1";"0";"154";"153";"module.training_block4.exec-7664.GoNoGo4";;;;;;;;;;;;;;;;;;;;;;;;;;;;;;;;;;;;;;;;;;;;;;;;;;;;;;;;;;;"1248";"2014-10-07 09:59:54.554";"NST_correctLoc";"29";"1";"FINISHED";"RIGHT";"success";"332";"0";"2014-10-07 09:59:53.304";"3";;;;;;;;;;;;;;;;;;;;;
"adj895";"1995";;"Windows 7";"Rachel's Experiment (D.T.)";"1.0";"2";"1";"1";"2";"1";"1";"2014-10-07 09:51:53.273";"2014-10-07 10:04:44.585";"1";"1";"0";"155";"154";"module.training_block4.exec-7664.GoNoGo4";;;;;;;;;;;;;;;;;;;;;;;;;;;;;;;;;;;;;;;;;;;;;;;;;;;;;;;;;;;"1248";"2014-10-07 09:59:57.054";"NST_correctLoc";"25";"1";"FINISHED";"RIGHT";"success";"320";"0";"2014-10-07 09:59:55.804";"3";;;;;;;;;;;;;;;;;;;;;
"adj895";"1995";;"Windows 7";"Rachel's Experiment (D.T.)";"1.0";"2";"1";"1";"2";"1";"1";"2014-10-07 09:51:53.273";"2014-10-07 10:04:44.585";"1";"1";"0";"156";"155";"module.training_block4.exec-7664.GoNoGo4";;;;;;;;;;;;;;;;;;;;;;;;;;;;;;;;;;;;;;;;;;;;;;;;;;;;;;;;;;;"1248";"2014-10-07 09:59:59.554";"NST_correctLoc";"3";"0";"FINISHED";"LEFT";"success";"492";"0";"2014-10-07 09:59:58.304";"1";;;;;;;;;;;;;;;;;;;;;
"adj895";"1995";;"Windows 7";"Rachel's Experiment (D.T.)";"1.0";"2";"1";"1";"2";"1";"1";"2014-10-07 09:51:53.273";"2014-10-07 10:04:44.585";"1";"1";"0";"157";"156";"module.training_block4.exec-7664.GoNoGo4";;;;;;;;;;;;;;;;;;;;;;;;;;;;;;;;;;;;;;;;;;;;;;;;;;;;;;;;;;;"1248";"2014-10-07 10:00:02.054";"NST_correctLoc";"11";"0";"FINISHED";"LEFT";"success";"384";"0";"2014-10-07 10:00:00.804";"2";;;;;;;;;;;;;;;;;;;;;
"adj895";"1995";;"Windows 7";"Rachel's Experiment (D.T.)";"1.0";"2";"1";"1";"2";"1";"1";"2014-10-07 09:51:53.273";"2014-10-07 10:04:44.585";"1";"1";"0";"158";"157";"module.training_block4.exec-7664.GoNoGo4";;;;;;;;;;;;;;;;;;;;;;;;;;;;;;;;;;;;;;;;;;;;;;;;;;;;;;;;;;;"1248";"2014-10-07 10:00:04.554";"NST_correctLoc";"7";"0";"FINISHED";"LEFT";"success";"388";"0";"2014-10-07 10:00:03.304";"1";;;;;;;;;;;;;;;;;;;;;
"adj895";"1995";;"Windows 7";"Rachel's Experiment (D.T.)";"1.0";"2";"1";"1";"2";"1";"1";"2014-10-07 09:51:53.273";"2014-10-07 10:04:44.585";"1";"1";"0";"159";"158";"module.training_block4.exec-7664.GoNoGo4";;;;;;;;;;;;;;;;;;;;;;;;;;;;;;;;;;;;;;;;;;;;;;;;;;;;;;;;;;;"1248";"2014-10-07 10:00:07.054";"NST_correctLoc";"1";"1";"FINISHED";"RIGHT";"success";"472";"0";"2014-10-07 10:00:05.804";"1";;;;;;;;;;;;;;;;;;;;;
"adj895";"1995";;"Windows 7";"Rachel's Experiment (D.T.)";"1.0";"2";"1";"1";"2";"1";"1";"2014-10-07 09:51:53.273";"2014-10-07 10:04:44.585";"1";"1";"0";"160";"159";"module.devaluation_practice.exec-7539.devalPractice";;;;;;;;;;;;"16671";"2014-10-07 10:00:47.085";"0";"7";"6";"7";"3701";"3609";"6356";"2014-10-07 10:00:30.414";;;;;;;;;;;;;;;;;;;;;;;;;;;;;;;;;;;;;;;;;;;;;;;;;;;;;;;;;;;;;;;;;;;;;;
"adj895";"1995";;"Windows 7";"Rachel's Experiment (D.T.)";"1.0";"2";"1";"1";"2";"1";"1";"2014-10-07 09:51:53.273";"2014-10-07 10:04:44.585";"1";"1";"0";"161";"160";"module.devaluation_practice.exec-7539.devalPractice";;;;;;;;;;;;"6469";"2014-10-07 10:00:53.570";"1";"7";"7";"7";"826";"728";"1942";"2014-10-07 10:00:47.101";;;;;;;;;;;;;;;;;;;;;;;;;;;;;;;;;;;;;;;;;;;;;;;;;;;;;;;;;;;;;;;;;;;;;;
"adj895";"1995";;"Windows 7";"Rachel's Experiment (D.T.)";"1.0";"2";"1";"1";"2";"1";"1";"2014-10-07 09:51:53.273";"2014-10-07 10:04:44.585";"1";"1";"0";"162";"161";"module.devaluation_practice.exec-7539.devalPractice";;;;;;;;;;;;"9781";"2014-10-07 10:01:03.367";"2";"3";"4";"5";"1555";"1434";"3810";"2014-10-07 10:00:53.585";;;;;;;;;;;;;;;;;;;;;;;;;;;;;;;;;;;;;;;;;;;;;;;;;;;;;;;;;;;;;;;;;;;;;;
"adj895";"1995";;"Windows 7";"Rachel's Experiment (D.T.)";"1.0";"2";"1";"1";"2";"1";"1";"2014-10-07 09:51:53.273";"2014-10-07 10:04:44.585";"1";"1";"0";"163";"162";"module.devaluation_practice.exec-7539.devalPractice";;;;;;;;;;;;"8429";"2014-10-07 10:01:11.820";"3";"4";"8";"7";"1489";"2023";"1933";"2014-10-07 10:01:03.398";;;;;;;;;;;;;;;;;;;;;;;;;;;;;;;;;;;;;;;;;;;;;;;;;;;;;;;;;;;;;;;;;;;;;;
"adj895";"1995";;"Windows 7";"Rachel's Experiment (D.T.)";"1.0";"2";"1";"1";"2";"1";"1";"2014-10-07 09:51:53.273";"2014-10-07 10:04:44.585";"1";"1";"0";"164";"163";"module.devaluation_block1.exec-1290.deval1";"9029";"2014-10-07 10:01:24.210";"19";"7";"4";"8";"2295";"954";"2786";"2014-10-07 10:01:15.179";"3";;;;;;;;;;;;;;;;;;;;;;;;;;;;;;;;;;;;;;;;;;;;;;;;;;;;;;;;;;;;;;;;;;;;;;;;;;;;;;;;
"adj895";"1995";;"Windows 7";"Rachel's Experiment (D.T.)";"1.0";"2";"1";"1";"2";"1";"1";"2014-10-07 09:51:53.273";"2014-10-07 10:04:44.585";"1";"1";"0";"165";"164";"module.devaluation_block1.exec-1290.deval1";"8262";"2014-10-07 10:01:32.492";"1";"5";"3";"6";"1689";"1030";"2557";"2014-10-07 10:01:24.226";"1";;;;;;;;;;;;;;;;;;;;;;;;;;;;;;;;;;;;;;;;;;;;;;;;;;;;;;;;;;;;;;;;;;;;;;;;;;;;;;;;
"adj895";"1995";;"Windows 7";"Rachel's Experiment (D.T.)";"1.0";"2";"1";"1";"2";"1";"1";"2014-10-07 09:51:53.273";"2014-10-07 10:04:44.585";"1";"1";"0";"166";"165";"module.devaluation_block1.exec-1290.deval1";"6942";"2014-10-07 10:01:39.445";"5";"8";"9";"8";"1343";"1428";"1180";"2014-10-07 10:01:32.507";"1";;;;;;;;;;;;;;;;;;;;;;;;;;;;;;;;;;;;;;;;;;;;;;;;;;;;;;;;;;;;;;;;;;;;;;;;;;;;;;;;
"adj895";"1995";;"Windows 7";"Rachel's Experiment (D.T.)";"1.0";"2";"1";"1";"2";"1";"1";"2014-10-07 09:51:53.273";"2014-10-07 10:04:44.585";"1";"1";"0";"167";"166";"module.devaluation_block1.exec-1290.deval1";"7894";"2014-10-07 10:01:47.351";"12";"8";"9";"9";"2798";"793";"1310";"2014-10-07 10:01:39.460";"2";;;;;;;;;;;;;;;;;;;;;;;;;;;;;;;;;;;;;;;;;;;;;;;;;;;;;;;;;;;;;;;;;;;;;;;;;;;;;;;;
"adj895";"1995";;"Windows 7";"Rachel's Experiment (D.T.)";"1.0";"2";"1";"1";"2";"1";"1";"2014-10-07 09:51:53.273";"2014-10-07 10:04:44.585";"1";"1";"0";"168";"167";"module.devaluation_block1.exec-1290.deval1";"7326";"2014-10-07 10:01:54.695";"0";"7";"7";"8";"1021";"1496";"1817";"2014-10-07 10:01:47.382";"1";;;;;;;;;;;;;;;;;;;;;;;;;;;;;;;;;;;;;;;;;;;;;;;;;;;;;;;;;;;;;;;;;;;;;;;;;;;;;;;;
"adj895";"1995";;"Windows 7";"Rachel's Experiment (D.T.)";"1.0";"2";"1";"1";"2";"1";"1";"2014-10-07 09:51:53.273";"2014-10-07 10:04:44.585";"1";"1";"0";"169";"168";"module.devaluation_block1.exec-1290.deval1";"6454";"2014-10-07 10:02:01.320";"3";"9";"9";"9";"1249";"943";"1269";"2014-10-07 10:01:54.867";"1";;;;;;;;;;;;;;;;;;;;;;;;;;;;;;;;;;;;;;;;;;;;;;;;;;;;;;;;;;;;;;;;;;;;;;;;;;;;;;;;
"adj895";"1995";;"Windows 7";"Rachel's Experiment (D.T.)";"1.0";"2";"1";"1";"2";"1";"1";"2014-10-07 09:51:53.273";"2014-10-07 10:04:44.585";"1";"1";"0";"170";"169";"module.devaluation_block1.exec-1290.deval1";"7095";"2014-10-07 10:02:08.445";"24";"7";"9";"9";"2068";"1053";"993";"2014-10-07 10:02:01.351";"3";;;;;;;;;;;;;;;;;;;;;;;;;;;;;;;;;;;;;;;;;;;;;;;;;;;;;;;;;;;;;;;;;;;;;;;;;;;;;;;;
"adj895";"1995";;"Windows 7";"Rachel's Experiment (D.T.)";"1.0";"2";"1";"1";"2";"1";"1";"2014-10-07 09:51:53.273";"2014-10-07 10:04:44.585";"1";"1";"0";"171";"170";"module.devaluation_block1.exec-1290.deval1";"6661";"2014-10-07 10:02:15.132";"22";"8";"8";"9";"1391";"905";"1380";"2014-10-07 10:02:08.460";"3";;;;;;;;;;;;;;;;;;;;;;;;;;;;;;;;;;;;;;;;;;;;;;;;;;;;;;;;;;;;;;;;;;;;;;;;;;;;;;;;
"adj895";"1995";;"Windows 7";"Rachel's Experiment (D.T.)";"1.0";"2";"1";"1";"2";"1";"1";"2014-10-07 09:51:53.273";"2014-10-07 10:04:44.585";"1";"1";"0";"172";"171";"module.devaluation_block1.exec-1290.deval1";"7021";"2014-10-07 10:02:22.164";"15";"2";"1";"2";"1687";"1148";"1188";"2014-10-07 10:02:15.148";"2";;;;;;;;;;;;;;;;;;;;;;;;;;;;;;;;;;;;;;;;;;;;;;;;;;;;;;;;;;;;;;;;;;;;;;;;;;;;;;;;
"adj895";"1995";;"Windows 7";"Rachel's Experiment (D.T.)";"1.0";"2";"1";"1";"2";"1";"1";"2014-10-07 09:51:53.273";"2014-10-07 10:04:44.585";"1";"1";"0";"173";"172";"module.devaluation_block1.exec-1290.deval1";"6510";"2014-10-07 10:02:28.695";"14";"8";"8";"8";"1320";"1004";"1203";"2014-10-07 10:02:22.179";"2";;;;;;;;;;;;;;;;;;;;;;;;;;;;;;;;;;;;;;;;;;;;;;;;;;;;;;;;;;;;;;;;;;;;;;;;;;;;;;;;
"adj895";"1995";;"Windows 7";"Rachel's Experiment (D.T.)";"1.0";"2";"1";"1";"2";"1";"1";"2014-10-07 09:51:53.273";"2014-10-07 10:04:44.585";"1";"1";"0";"174";"173";"module.devaluation_block1.exec-1290.deval1";"5934";"2014-10-07 10:02:34.648";"10";"8";"6";"6";"1013";"894";"1033";"2014-10-07 10:02:28.710";"2";;;;;;;;;;;;;;;;;;;;;;;;;;;;;;;;;;;;;;;;;;;;;;;;;;;;;;;;;;;;;;;;;;;;;;;;;;;;;;;;
"adj895";"1995";;"Windows 7";"Rachel's Experiment (D.T.)";"1.0";"2";"1";"1";"2";"1";"1";"2014-10-07 09:51:53.273";"2014-10-07 10:04:44.585";"1";"1";"0";"175";"174";"module.devaluation_block1.exec-1290.deval1";"9998";"2014-10-07 10:02:44.664";"11";"7";"5";"4";"1740";"3535";"1745";"2014-10-07 10:02:34.664";"2";;;;;;;;;;;;;;;;;;;;;;;;;;;;;;;;;;;;;;;;;;;;;;;;;;;;;;;;;;;;;;;;;;;;;;;;;;;;;;;;
"adj895";"1995";;"Windows 7";"Rachel's Experiment (D.T.)";"1.0";"2";"1";"1";"2";"1";"1";"2014-10-07 09:51:53.273";"2014-10-07 10:04:44.585";"1";"1";"0";"176";"175";"module.devaluation_block1.exec-1290.deval1";"8838";"2014-10-07 10:02:53.523";"13";"8";"8";"8";"1372";"2203";"2265";"2014-10-07 10:02:44.679";"2";;;;;;;;;;;;;;;;;;;;;;;;;;;;;;;;;;;;;;;;;;;;;;;;;;;;;;;;;;;;;;;;;;;;;;;;;;;;;;;;
"adj895";"1995";;"Windows 7";"Rachel's Experiment (D.T.)";"1.0";"2";"1";"1";"2";"1";"1";"2014-10-07 09:51:53.273";"2014-10-07 10:04:44.585";"1";"1";"0";"177";"176";"module.devaluation_block1.exec-1290.deval1";"6397";"2014-10-07 10:02:59.929";"4";"8";"8";"8";"872";"1635";"898";"2014-10-07 10:02:53.539";"1";;;;;;;;;;;;;;;;;;;;;;;;;;;;;;;;;;;;;;;;;;;;;;;;;;;;;;;;;;;;;;;;;;;;;;;;;;;;;;;;
"adj895";"1995";;"Windows 7";"Rachel's Experiment (D.T.)";"1.0";"2";"1";"1";"2";"1";"1";"2014-10-07 09:51:53.273";"2014-10-07 10:04:44.585";"1";"1";"0";"178";"177";"module.devaluation_block1.exec-1290.deval1";"21789";"2014-10-07 10:03:21.742";"18";"7";"8";"8";"1650";"14068";"3102";"2014-10-07 10:02:59.945";"3";;;;;;;;;;;;;;;;;;;;;;;;;;;;;;;;;;;;;;;;;;;;;;;;;;;;;;;;;;;;;;;;;;;;;;;;;;;;;;;;
"adj895";"1995";;"Windows 7";"Rachel's Experiment (D.T.)";"1.0";"2";"1";"1";"2";"1";"1";"2014-10-07 09:51:53.273";"2014-10-07 10:04:44.585";"1";"1";"0";"179";"178";"module.devaluation_block1.exec-1290.deval1";"7126";"2014-10-07 10:03:28.882";"21";"7";"8";"8";"1630";"821";"1689";"2014-10-07 10:03:21.757";"3";;;;;;;;;;;;;;;;;;;;;;;;;;;;;;;;;;;;;;;;;;;;;;;;;;;;;;;;;;;;;;;;;;;;;;;;;;;;;;;;
"adj895";"1995";;"Windows 7";"Rachel's Experiment (D.T.)";"1.0";"2";"1";"1";"2";"1";"1";"2014-10-07 09:51:53.273";"2014-10-07 10:04:44.585";"1";"1";"0";"180";"179";"module.devaluation_block1.exec-1290.deval1";"7373";"2014-10-07 10:03:36.273";"7";"7";"9";"9";"2321";"1042";"1029";"2014-10-07 10:03:28.898";"1";;;;;;;;;;;;;;;;;;;;;;;;;;;;;;;;;;;;;;;;;;;;;;;;;;;;;;;;;;;;;;;;;;;;;;;;;;;;;;;;
"adj895";"1995";;"Windows 7";"Rachel's Experiment (D.T.)";"1.0";"2";"1";"1";"2";"1";"1";"2014-10-07 09:51:53.273";"2014-10-07 10:04:44.585";"1";"1";"0";"181";"180";"module.devaluation_block1.exec-1290.deval1";"8326";"2014-10-07 10:03:44.617";"9";"4";"5";"6";"2731";"558";"2072";"2014-10-07 10:03:36.289";"2";;;;;;;;;;;;;;;;;;;;;;;;;;;;;;;;;;;;;;;;;;;;;;;;;;;;;;;;;;;;;;;;;;;;;;;;;;;;;;;;
"adj895";"1995";;"Windows 7";"Rachel's Experiment (D.T.)";"1.0";"2";"1";"1";"2";"1";"1";"2014-10-07 09:51:53.273";"2014-10-07 10:04:44.585";"1";"1";"0";"182";"181";"module.devaluation_block1.exec-1290.deval1";"6333";"2014-10-07 10:03:50.976";"2";"6";"7";"6";"1099";"988";"1250";"2014-10-07 10:03:44.648";"1";;;;;;;;;;;;;;;;;;;;;;;;;;;;;;;;;;;;;;;;;;;;;;;;;;;;;;;;;;;;;;;;;;;;;;;;;;;;;;;;
"adj895";"1995";;"Windows 7";"Rachel's Experiment (D.T.)";"1.0";"2";"1";"1";"2";"1";"1";"2014-10-07 09:51:53.273";"2014-10-07 10:04:44.585";"1";"1";"0";"183";"182";"module.devaluation_block1.exec-1290.deval1";"5974";"2014-10-07 10:03:56.960";"17";"3";"2";"3";"1068";"870";"1057";"2014-10-07 10:03:50.992";"2";;;;;;;;;;;;;;;;;;;;;;;;;;;;;;;;;;;;;;;;;;;;;;;;;;;;;;;;;;;;;;;;;;;;;;;;;;;;;;;;
"adj895";"1995";;"Windows 7";"Rachel's Experiment (D.T.)";"1.0";"2";"1";"1";"2";"1";"1";"2014-10-07 09:51:53.273";"2014-10-07 10:04:44.585";"1";"1";"0";"184";"183";"module.devaluation_block1.exec-1290.deval1";"7797";"2014-10-07 10:04:04.789";"23";"8";"7";"8";"1884";"1061";"1869";"2014-10-07 10:03:56.992";"3";;;;;;;;;;;;;;;;;;;;;;;;;;;;;;;;;;;;;;;;;;;;;;;;;;;;;;;;;;;;;;;;;;;;;;;;;;;;;;;;
"adj895";"1995";;"Windows 7";"Rachel's Experiment (D.T.)";"1.0";"2";"1";"1";"2";"1";"1";"2014-10-07 09:51:53.273";"2014-10-07 10:04:44.585";"1";"1";"0";"185";"184";"module.devaluation_block1.exec-1290.deval1";"5525";"2014-10-07 10:04:10.320";"8";"9";"9";"9";"967";"715";"850";"2014-10-07 10:04:04.804";"1";;;;;;;;;;;;;;;;;;;;;;;;;;;;;;;;;;;;;;;;;;;;;;;;;;;;;;;;;;;;;;;;;;;;;;;;;;;;;;;;
"adj895";"1995";;"Windows 7";"Rachel's Experiment (D.T.)";"1.0";"2";"1";"1";"2";"1";"1";"2014-10-07 09:51:53.273";"2014-10-07 10:04:44.585";"1";"1";"0";"186";"185";"module.devaluation_block1.exec-1290.deval1";"6054";"2014-10-07 10:04:16.398";"25";"8";"7";"8";"1036";"693";"1337";"2014-10-07 10:04:10.351";"3";;;;;;;;;;;;;;;;;;;;;;;;;;;;;;;;;;;;;;;;;;;;;;;;;;;;;;;;;;;;;;;;;;;;;;;;;;;;;;;;
"adj895";"1995";;"Windows 7";"Rachel's Experiment (D.T.)";"1.0";"2";"1";"1";"2";"1";"1";"2014-10-07 09:51:53.273";"2014-10-07 10:04:44.585";"1";"1";"0";"187";"186";"module.devaluation_block1.exec-1290.deval1";"7166";"2014-10-07 10:04:23.585";"26";"8";"9";"9";"2342";"799";"1034";"2014-10-07 10:04:16.414";"3";;;;;;;;;;;;;;;;;;;;;;;;;;;;;;;;;;;;;;;;;;;;;;;;;;;;;;;;;;;;;;;;;;;;;;;;;;;;;;;;
"adj895";"1995";;"Windows 7";"Rachel's Experiment (D.T.)";"1.0";"2";"1";"1";"2";"1";"1";"2014-10-07 09:51:53.273";"2014-10-07 10:04:44.585";"1";"1";"0";"188";"187";"module.devaluation_block1.exec-1290.deval1";"6493";"2014-10-07 10:04:30.101";"6";"7";"8";"7";"874";"826";"1803";"2014-10-07 10:04:23.601";"1";;;;;;;;;;;;;;;;;;;;;;;;;;;;;;;;;;;;;;;;;;;;;;;;;;;;;;;;;;;;;;;;;;;;;;;;;;;;;;;;
"adj895";"1995";;"Windows 7";"Rachel's Experiment (D.T.)";"1.0";"2";"1";"1";"2";"1";"1";"2014-10-07 09:51:53.273";"2014-10-07 10:04:44.585";"1";"1";"0";"189";"188";"module.devaluation_block1.exec-1290.deval1";"6006";"2014-10-07 10:04:36.117";"16";"2";"1";"2";"1183";"1132";"711";"2014-10-07 10:04:30.117";"2";;;;;;;;;;;;;;;;;;;;;;;;;;;;;;;;;;;;;;;;;;;;;;;;;;;;;;;;;;;;;;;;;;;;;;;;;;;;;;;;
"adj895";"1995";;"Windows 7";"Rachel's Experiment (D.T.)";"1.0";"2";"1";"1";"2";"1";"1";"2014-10-07 09:51:53.273";"2014-10-07 10:04:44.585";"1";"1";"0";"190";"189";"module.devaluation_block1.exec-1290.deval1";"6357";"2014-10-07 10:04:42.492";"20";"7";"2";"6";"1343";"1258";"763";"2014-10-07 10:04:36.132";"3";;;;;;;;;;;;;;;;;;;;;;;;;;;;;;;;;;;;;;;;;;;;;;;;;;;;;;;;;;;;;;;;;;;;;;;;;;;;;;;;
