"user.name";"user.yearOfBirth";"user.sex";"user.osName";"module.name";"module.version";"module.online.subject.code";"module.online.study.id";"module.online.module.nr";"module.online.group.nr";"session.id";"session.index";"session.startTime";"session.endTime";"session.completed";"session.node-4107.conditionType";"session.node-9382.DevalQorder";"trial.id";"trial.index";"trial.name";"trial.deval1.durationTime";"trial.deval1.endTime";"trial.deval1.icon";"trial.deval1.Resp_Attractive";"trial.deval1.Resp_Eat";"trial.deval1.Resp_Taste";"trial.deval1.RT_Attractive";"trial.deval1.RT_Eat";"trial.deval1.RT_Taste";"trial.deval1.startTime";"trial.deval1.stimulus type";"trial.devalPractice.durationTime";"trial.devalPractice.endTime";"trial.devalPractice.icon";"trial.devalPractice.Resp_Attractive";"trial.devalPractice.Resp_Eat";"trial.devalPractice.Resp_Taste";"trial.devalPractice.RT_Attractive";"trial.devalPractice.RT_Eat";"trial.devalPractice.RT_Taste";"trial.devalPractice.startTime";"trial.devalPractice.stimulus type";"trial.GoNoGo1.durationTime";"trial.GoNoGo1.endTime";"trial.GoNoGo1.Error Type";"trial.GoNoGo1.icon";"trial.GoNoGo1.location";"trial.GoNoGo1.outcome";"trial.GoNoGo1.response";"trial.GoNoGo1.result";"trial.GoNoGo1.RT";"trial.GoNoGo1.signal";"trial.GoNoGo1.startTime";"trial.GoNoGo1.stimulus type";"trial.GoNoGo2.durationTime";"trial.GoNoGo2.endTime";"trial.GoNoGo2.Error Type";"trial.GoNoGo2.icon";"trial.GoNoGo2.location";"trial.GoNoGo2.outcome";"trial.GoNoGo2.response";"trial.GoNoGo2.result";"trial.GoNoGo2.RT";"trial.GoNoGo2.signal";"trial.GoNoGo2.startTime";"trial.GoNoGo2.stimulus type";"trial.GoNoGo3.durationTime";"trial.GoNoGo3.endTime";"trial.GoNoGo3.Error Type";"trial.GoNoGo3.icon";"trial.GoNoGo3.location";"trial.GoNoGo3.outcome";"trial.GoNoGo3.response";"trial.GoNoGo3.result";"trial.GoNoGo3.RT";"trial.GoNoGo3.signal";"trial.GoNoGo3.startTime";"trial.GoNoGo3.stimulus type";"trial.GoNoGo4.durationTime";"trial.GoNoGo4.endTime";"trial.GoNoGo4.Error Type";"trial.GoNoGo4.icon";"trial.GoNoGo4.location";"trial.GoNoGo4.outcome";"trial.GoNoGo4.response";"trial.GoNoGo4.result";"trial.GoNoGo4.RT";"trial.GoNoGo4.signal";"trial.GoNoGo4.startTime";"trial.GoNoGo4.stimulus type";"trial.GoNoGo_Practice.durationTime";"trial.GoNoGo_Practice.endTime";"trial.GoNoGo_Practice.icon";"trial.GoNoGo_Practice.location";"trial.GoNoGo_Practice.outcome";"trial.GoNoGo_Practice.response";"trial.GoNoGo_Practice.result";"trial.GoNoGo_Practice.RT";"trial.GoNoGo_Practice.signal";"trial.GoNoGo_Practice.startTime";"trial.GoNoGo_Practice.stimulus type";"trial.GoNoGo_Tutorial.durationTime";"trial.GoNoGo_Tutorial.endTime";"trial.GoNoGo_Tutorial.icon";"trial.GoNoGo_Tutorial.location";"trial.GoNoGo_Tutorial.outcome";"trial.GoNoGo_Tutorial.response";"trial.GoNoGo_Tutorial.result";"trial.GoNoGo_Tutorial.RT";"trial.GoNoGo_Tutorial.signal";"trial.GoNoGo_Tutorial.startTime"
"purdie2468";"1994";;"Windows 7";"Rachel's Experiment (D.T.)";"1.0";"2";"1";"1";"2";"1";"1";"2014-10-07 12:52:40.005";"2014-10-07 13:05:45.919";"1";"1";"0";"1";"0";"module.GoNoGotutorial.exec-8619.GoNoGo_Tutorial";;;;;;;;;;;;;;;;;;;;;;;;;;;;;;;;;;;;;;;;;;;;;;;;;;;;;;;;;;;;;;;;;;;;;;;;;;;;;;;;;;"3996";"2014-10-07 12:53:38.427";"leftResponse";"0";"FINISHED";"LEFT";"success";"525";"0";"2014-10-07 12:53:34.418"
"purdie2468";"1994";;"Windows 7";"Rachel's Experiment (D.T.)";"1.0";"2";"1";"1";"2";"1";"1";"2014-10-07 12:52:40.005";"2014-10-07 13:05:45.919";"1";"1";"0";"2";"1";"module.GoNoGotutorial.exec-8619.GoNoGo_Tutorial";;;;;;;;;;;;;;;;;;;;;;;;;;;;;;;;;;;;;;;;;;;;;;;;;;;;;;;;;;;;;;;;;;;;;;;;;;;;;;;;;;"4002";"2014-10-07 12:53:43.731";"rightResponse";"1";"FINISHED";"RIGHT";"success";"619";"0";"2014-10-07 12:53:39.722"
"purdie2468";"1994";;"Windows 7";"Rachel's Experiment (D.T.)";"1.0";"2";"1";"1";"2";"1";"1";"2014-10-07 12:52:40.005";"2014-10-07 13:05:45.919";"1";"1";"0";"3";"2";"module.GoNoGotutorial.exec-8619.GoNoGo_Tutorial";;;;;;;;;;;;;;;;;;;;;;;;;;;;;;;;;;;;;;;;;;;;;;;;;;;;;;;;;;;;;;;;;;;;;;;;;;;;;;;;;;"4002";"2014-10-07 12:53:49.035";"signalResponse";"0";"FINISHED";"NONE";"success";"0";"1";"2014-10-07 12:53:45.026"
"purdie2468";"1994";;"Windows 7";"Rachel's Experiment (D.T.)";"1.0";"2";"1";"1";"2";"1";"1";"2014-10-07 12:52:40.005";"2014-10-07 13:05:45.919";"1";"1";"0";"4";"3";"module.GoNoGopractice.exec-9928.GoNoGo_Practice";;;;;;;;;;;;;;;;;;;;;;;;;;;;;;;;;;;;;;;;;;;;;;;;;;;;;;;;;;;;;;;;;;;;;;;"1959";"2014-10-07 12:53:57.116";"18";"0";"FINISHED";"LEFT";"success";"582";"0";"2014-10-07 12:53:55.150";"3";;;;;;;;;;
"purdie2468";"1994";;"Windows 7";"Rachel's Experiment (D.T.)";"1.0";"2";"1";"1";"2";"1";"1";"2014-10-07 12:52:40.005";"2014-10-07 13:05:45.919";"1";"1";"0";"5";"4";"module.GoNoGopractice.exec-9928.GoNoGo_Practice";;;;;;;;;;;;;;;;;;;;;;;;;;;;;;;;;;;;;;;;;;;;;;;;;;;;;;;;;;;;;;;;;;;;;;;"1959";"2014-10-07 12:54:00.361";"21";"1";"FINISHED";"RIGHT";"success";"402";"0";"2014-10-07 12:53:58.395";"3";;;;;;;;;;
"purdie2468";"1994";;"Windows 7";"Rachel's Experiment (D.T.)";"1.0";"2";"1";"1";"2";"1";"1";"2014-10-07 12:52:40.005";"2014-10-07 13:05:45.919";"1";"1";"0";"6";"5";"module.GoNoGopractice.exec-9928.GoNoGo_Practice";;;;;;;;;;;;;;;;;;;;;;;;;;;;;;;;;;;;;;;;;;;;;;;;;;;;;;;;;;;;;;;;;;;;;;;"1959";"2014-10-07 12:54:03.605";"14";"1";"FINISHED";"NONE";"success";"0";"1";"2014-10-07 12:54:01.640";"2";;;;;;;;;;
"purdie2468";"1994";;"Windows 7";"Rachel's Experiment (D.T.)";"1.0";"2";"1";"1";"2";"1";"1";"2014-10-07 12:52:40.005";"2014-10-07 13:05:45.919";"1";"1";"0";"7";"6";"module.GoNoGopractice.exec-9928.GoNoGo_Practice";;;;;;;;;;;;;;;;;;;;;;;;;;;;;;;;;;;;;;;;;;;;;;;;;;;;;;;;;;;;;;;;;;;;;;;"1959";"2014-10-07 12:54:06.850";"26";"0";"FINISHED";"LEFT";"success";"616";"0";"2014-10-07 12:54:04.885";"3";;;;;;;;;;
"purdie2468";"1994";;"Windows 7";"Rachel's Experiment (D.T.)";"1.0";"2";"1";"1";"2";"1";"1";"2014-10-07 12:52:40.005";"2014-10-07 13:05:45.919";"1";"1";"0";"8";"7";"module.GoNoGopractice.exec-9928.GoNoGo_Practice";;;;;;;;;;;;;;;;;;;;;;;;;;;;;;;;;;;;;;;;;;;;;;;;;;;;;;;;;;;;;;;;;;;;;;;"1959";"2014-10-07 12:54:10.095";"2";"0";"FINISHED";"LEFT";"success";"452";"0";"2014-10-07 12:54:08.129";"1";;;;;;;;;;
"purdie2468";"1994";;"Windows 7";"Rachel's Experiment (D.T.)";"1.0";"2";"1";"1";"2";"1";"1";"2014-10-07 12:52:40.005";"2014-10-07 13:05:45.919";"1";"1";"0";"9";"8";"module.GoNoGopractice.exec-9928.GoNoGo_Practice";;;;;;;;;;;;;;;;;;;;;;;;;;;;;;;;;;;;;;;;;;;;;;;;;;;;;;;;;;;;;;;;;;;;;;;"1952";"2014-10-07 12:54:13.340";"30";"0";"FINISHED";"LEFT";"failure";"488";"1";"2014-10-07 12:54:11.374";"3";;;;;;;;;;
"purdie2468";"1994";;"Windows 7";"Rachel's Experiment (D.T.)";"1.0";"2";"1";"1";"2";"1";"1";"2014-10-07 12:52:40.005";"2014-10-07 13:05:45.919";"1";"1";"0";"10";"9";"module.GoNoGopractice.exec-9928.GoNoGo_Practice";;;;;;;;;;;;;;;;;;;;;;;;;;;;;;;;;;;;;;;;;;;;;;;;;;;;;;;;;;;;;;;;;;;;;;;"1959";"2014-10-07 12:54:16.585";"6";"1";"FINISHED";"NONE";"success";"0";"1";"2014-10-07 12:54:14.619";"1";;;;;;;;;;
"purdie2468";"1994";;"Windows 7";"Rachel's Experiment (D.T.)";"1.0";"2";"1";"1";"2";"1";"1";"2014-10-07 12:52:40.005";"2014-10-07 13:05:45.919";"1";"1";"0";"11";"10";"module.GoNoGopractice.exec-9928.GoNoGo_Practice";;;;;;;;;;;;;;;;;;;;;;;;;;;;;;;;;;;;;;;;;;;;;;;;;;;;;;;;;;;;;;;;;;;;;;;"1960";"2014-10-07 12:54:19.829";"34";"0";"FINISHED";"LEFT";"success";"494";"0";"2014-10-07 12:54:17.864";"3";;;;;;;;;;
"purdie2468";"1994";;"Windows 7";"Rachel's Experiment (D.T.)";"1.0";"2";"1";"1";"2";"1";"1";"2014-10-07 12:52:40.005";"2014-10-07 13:05:45.919";"1";"1";"0";"12";"11";"module.GoNoGopractice.exec-9928.GoNoGo_Practice";;;;;;;;;;;;;;;;;;;;;;;;;;;;;;;;;;;;;;;;;;;;;;;;;;;;;;;;;;;;;;;;;;;;;;;"1959";"2014-10-07 12:54:23.074";"23";"1";"FINISHED";"RIGHT";"success";"456";"0";"2014-10-07 12:54:21.109";"3";;;;;;;;;;
"purdie2468";"1994";;"Windows 7";"Rachel's Experiment (D.T.)";"1.0";"2";"1";"1";"2";"1";"1";"2014-10-07 12:52:40.005";"2014-10-07 13:05:45.919";"1";"1";"0";"13";"12";"module.GoNoGopractice.exec-9928.GoNoGo_Practice";;;;;;;;;;;;;;;;;;;;;;;;;;;;;;;;;;;;;;;;;;;;;;;;;;;;;;;;;;;;;;;;;;;;;;;"1959";"2014-10-07 12:54:26.319";"13";"0";"FINISHED";"NONE";"success";"0";"1";"2014-10-07 12:54:24.353";"2";;;;;;;;;;
"purdie2468";"1994";;"Windows 7";"Rachel's Experiment (D.T.)";"1.0";"2";"1";"1";"2";"1";"1";"2014-10-07 12:52:40.005";"2014-10-07 13:05:45.919";"1";"1";"0";"14";"13";"module.GoNoGopractice.exec-9928.GoNoGo_Practice";;;;;;;;;;;;;;;;;;;;;;;;;;;;;;;;;;;;;;;;;;;;;;;;;;;;;;;;;;;;;;;;;;;;;;;"1959";"2014-10-07 12:54:29.564";"3";"1";"FINISHED";"RIGHT";"success";"902";"0";"2014-10-07 12:54:27.598";"1";;;;;;;;;;
"purdie2468";"1994";;"Windows 7";"Rachel's Experiment (D.T.)";"1.0";"2";"1";"1";"2";"1";"1";"2014-10-07 12:52:40.005";"2014-10-07 13:05:45.919";"1";"1";"0";"15";"14";"module.GoNoGopractice.exec-9928.GoNoGo_Practice";;;;;;;;;;;;;;;;;;;;;;;;;;;;;;;;;;;;;;;;;;;;;;;;;;;;;;;;;;;;;;;;;;;;;;;"1959";"2014-10-07 12:54:32.809";"27";"1";"FINISHED";"RIGHT";"failure";"426";"1";"2014-10-07 12:54:30.843";"3";;;;;;;;;;
"purdie2468";"1994";;"Windows 7";"Rachel's Experiment (D.T.)";"1.0";"2";"1";"1";"2";"1";"1";"2014-10-07 12:52:40.005";"2014-10-07 13:05:45.919";"1";"1";"0";"16";"15";"module.training_block1.exec-4114.GoNoGo1";;;;;;;;;;;;;;;;;;;;;;;"1256";"2014-10-07 12:54:43.573";"NST_correctLoc";"17";"0";"FINISHED";"LEFT";"success";"486";"0";"2014-10-07 12:54:42.309";"2";;;;;;;;;;;;;;;;;;;;;;;;;;;;;;;;;;;;;;;;;;;;;;;;;;;;;;;;;
"purdie2468";"1994";;"Windows 7";"Rachel's Experiment (D.T.)";"1.0";"2";"1";"1";"2";"1";"1";"2014-10-07 12:52:40.005";"2014-10-07 13:05:45.919";"1";"1";"0";"17";"16";"module.training_block1.exec-4114.GoNoGo1";;;;;;;;;;;;;;;;;;;;;;;"1257";"2014-10-07 12:54:46.115";"ST_failedStop";"5";"0";"FINISHED";"LEFT";"failure";"449";"1";"2014-10-07 12:54:44.852";"1";;;;;;;;;;;;;;;;;;;;;;;;;;;;;;;;;;;;;;;;;;;;;;;;;;;;;;;;;
"purdie2468";"1994";;"Windows 7";"Rachel's Experiment (D.T.)";"1.0";"2";"1";"1";"2";"1";"1";"2014-10-07 12:52:40.005";"2014-10-07 13:05:45.919";"1";"1";"0";"18";"17";"module.training_block1.exec-4114.GoNoGo1";;;;;;;;;;;;;;;;;;;;;;;"1257";"2014-10-07 12:54:48.658";"NST_correctLoc";"35";"1";"FINISHED";"RIGHT";"success";"618";"0";"2014-10-07 12:54:47.395";"3";;;;;;;;;;;;;;;;;;;;;;;;;;;;;;;;;;;;;;;;;;;;;;;;;;;;;;;;;
"purdie2468";"1994";;"Windows 7";"Rachel's Experiment (D.T.)";"1.0";"2";"1";"1";"2";"1";"1";"2014-10-07 12:52:40.005";"2014-10-07 13:05:45.919";"1";"1";"0";"19";"18";"module.training_block1.exec-4114.GoNoGo1";;;;;;;;;;;;;;;;;;;;;;;"1261";"2014-10-07 12:54:51.201";"ST_correctStop";"27";"0";"FINISHED";"NONE";"success";"0";"1";"2014-10-07 12:54:49.937";"3";;;;;;;;;;;;;;;;;;;;;;;;;;;;;;;;;;;;;;;;;;;;;;;;;;;;;;;;;
"purdie2468";"1994";;"Windows 7";"Rachel's Experiment (D.T.)";"1.0";"2";"1";"1";"2";"1";"1";"2014-10-07 12:52:40.005";"2014-10-07 13:05:45.919";"1";"1";"0";"20";"19";"module.training_block1.exec-4114.GoNoGo1";;;;;;;;;;;;;;;;;;;;;;;"1261";"2014-10-07 12:54:53.744";"NST_correctLoc";"14";"0";"FINISHED";"LEFT";"success";"392";"0";"2014-10-07 12:54:52.480";"2";;;;;;;;;;;;;;;;;;;;;;;;;;;;;;;;;;;;;;;;;;;;;;;;;;;;;;;;;
"purdie2468";"1994";;"Windows 7";"Rachel's Experiment (D.T.)";"1.0";"2";"1";"1";"2";"1";"1";"2014-10-07 12:52:40.005";"2014-10-07 13:05:45.919";"1";"1";"0";"21";"20";"module.training_block1.exec-4114.GoNoGo1";;;;;;;;;;;;;;;;;;;;;;;"1261";"2014-10-07 12:54:56.287";"ST_correctStop";"3";"1";"FINISHED";"NONE";"success";"0";"1";"2014-10-07 12:54:55.023";"1";;;;;;;;;;;;;;;;;;;;;;;;;;;;;;;;;;;;;;;;;;;;;;;;;;;;;;;;;
"purdie2468";"1994";;"Windows 7";"Rachel's Experiment (D.T.)";"1.0";"2";"1";"1";"2";"1";"1";"2014-10-07 12:52:40.005";"2014-10-07 13:05:45.919";"1";"1";"0";"22";"21";"module.training_block1.exec-4114.GoNoGo1";;;;;;;;;;;;;;;;;;;;;;;"1261";"2014-10-07 12:54:58.829";"ST_correctStop";"6";"0";"FINISHED";"NONE";"success";"0";"1";"2014-10-07 12:54:57.566";"1";;;;;;;;;;;;;;;;;;;;;;;;;;;;;;;;;;;;;;;;;;;;;;;;;;;;;;;;;
"purdie2468";"1994";;"Windows 7";"Rachel's Experiment (D.T.)";"1.0";"2";"1";"1";"2";"1";"1";"2014-10-07 12:52:40.005";"2014-10-07 13:05:45.919";"1";"1";"0";"23";"22";"module.training_block1.exec-4114.GoNoGo1";;;;;;;;;;;;;;;;;;;;;;;"1255";"2014-10-07 12:55:01.481";"NST_correctLoc";"34";"0";"FINISHED";"LEFT";"success";"521";"0";"2014-10-07 12:55:00.218";"3";;;;;;;;;;;;;;;;;;;;;;;;;;;;;;;;;;;;;;;;;;;;;;;;;;;;;;;;;
"purdie2468";"1994";;"Windows 7";"Rachel's Experiment (D.T.)";"1.0";"2";"1";"1";"2";"1";"1";"2014-10-07 12:52:40.005";"2014-10-07 13:05:45.919";"1";"1";"0";"24";"23";"module.training_block1.exec-4114.GoNoGo1";;;;;;;;;;;;;;;;;;;;;;;"1257";"2014-10-07 12:55:04.024";"ST_correctStop";"29";"0";"FINISHED";"NONE";"success";"0";"1";"2014-10-07 12:55:02.761";"3";;;;;;;;;;;;;;;;;;;;;;;;;;;;;;;;;;;;;;;;;;;;;;;;;;;;;;;;;
"purdie2468";"1994";;"Windows 7";"Rachel's Experiment (D.T.)";"1.0";"2";"1";"1";"2";"1";"1";"2014-10-07 12:52:40.005";"2014-10-07 13:05:45.919";"1";"1";"0";"25";"24";"module.training_block1.exec-4114.GoNoGo1";;;;;;;;;;;;;;;;;;;;;;;"1258";"2014-10-07 12:55:06.567";"ST_correctStop";"1";"0";"FINISHED";"NONE";"success";"0";"1";"2014-10-07 12:55:05.303";"1";;;;;;;;;;;;;;;;;;;;;;;;;;;;;;;;;;;;;;;;;;;;;;;;;;;;;;;;;
"purdie2468";"1994";;"Windows 7";"Rachel's Experiment (D.T.)";"1.0";"2";"1";"1";"2";"1";"1";"2014-10-07 12:52:40.005";"2014-10-07 13:05:45.919";"1";"1";"0";"26";"25";"module.training_block1.exec-4114.GoNoGo1";;;;;;;;;;;;;;;;;;;;;;;"1257";"2014-10-07 12:55:09.110";"ST_correctStop";"31";"0";"FINISHED";"NONE";"success";"0";"1";"2014-10-07 12:55:07.846";"3";;;;;;;;;;;;;;;;;;;;;;;;;;;;;;;;;;;;;;;;;;;;;;;;;;;;;;;;;
"purdie2468";"1994";;"Windows 7";"Rachel's Experiment (D.T.)";"1.0";"2";"1";"1";"2";"1";"1";"2014-10-07 12:52:40.005";"2014-10-07 13:05:45.919";"1";"1";"0";"27";"26";"module.training_block1.exec-4114.GoNoGo1";;;;;;;;;;;;;;;;;;;;;;;"1257";"2014-10-07 12:55:11.653";"NST_correctLoc";"24";"0";"FINISHED";"LEFT";"success";"488";"0";"2014-10-07 12:55:10.389";"3";;;;;;;;;;;;;;;;;;;;;;;;;;;;;;;;;;;;;;;;;;;;;;;;;;;;;;;;;
"purdie2468";"1994";;"Windows 7";"Rachel's Experiment (D.T.)";"1.0";"2";"1";"1";"2";"1";"1";"2014-10-07 12:52:40.005";"2014-10-07 13:05:45.919";"1";"1";"0";"28";"27";"module.training_block1.exec-4114.GoNoGo1";;;;;;;;;;;;;;;;;;;;;;;"1257";"2014-10-07 12:55:14.196";"ST_correctStop";"22";"0";"FINISHED";"NONE";"success";"0";"1";"2014-10-07 12:55:12.932";"3";;;;;;;;;;;;;;;;;;;;;;;;;;;;;;;;;;;;;;;;;;;;;;;;;;;;;;;;;
"purdie2468";"1994";;"Windows 7";"Rachel's Experiment (D.T.)";"1.0";"2";"1";"1";"2";"1";"1";"2014-10-07 12:52:40.005";"2014-10-07 13:05:45.919";"1";"1";"0";"29";"28";"module.training_block1.exec-4114.GoNoGo1";;;;;;;;;;;;;;;;;;;;;;;"1257";"2014-10-07 12:55:16.738";"NST_correctLoc";"19";"1";"FINISHED";"RIGHT";"success";"706";"0";"2014-10-07 12:55:15.475";"3";;;;;;;;;;;;;;;;;;;;;;;;;;;;;;;;;;;;;;;;;;;;;;;;;;;;;;;;;
"purdie2468";"1994";;"Windows 7";"Rachel's Experiment (D.T.)";"1.0";"2";"1";"1";"2";"1";"1";"2014-10-07 12:52:40.005";"2014-10-07 13:05:45.919";"1";"1";"0";"30";"29";"module.training_block1.exec-4114.GoNoGo1";;;;;;;;;;;;;;;;;;;;;;;"1257";"2014-10-07 12:55:19.281";"NST_correctLoc";"33";"1";"FINISHED";"RIGHT";"success";"803";"0";"2014-10-07 12:55:18.018";"3";;;;;;;;;;;;;;;;;;;;;;;;;;;;;;;;;;;;;;;;;;;;;;;;;;;;;;;;;
"purdie2468";"1994";;"Windows 7";"Rachel's Experiment (D.T.)";"1.0";"2";"1";"1";"2";"1";"1";"2014-10-07 12:52:40.005";"2014-10-07 13:05:45.919";"1";"1";"0";"31";"30";"module.training_block1.exec-4114.GoNoGo1";;;;;;;;;;;;;;;;;;;;;;;"1257";"2014-10-07 12:55:21.824";"NST_correctLoc";"11";"1";"FINISHED";"RIGHT";"success";"740";"0";"2014-10-07 12:55:20.560";"2";;;;;;;;;;;;;;;;;;;;;;;;;;;;;;;;;;;;;;;;;;;;;;;;;;;;;;;;;
"purdie2468";"1994";;"Windows 7";"Rachel's Experiment (D.T.)";"1.0";"2";"1";"1";"2";"1";"1";"2014-10-07 12:52:40.005";"2014-10-07 13:05:45.919";"1";"1";"0";"32";"31";"module.training_block1.exec-4114.GoNoGo1";;;;;;;;;;;;;;;;;;;;;;;"1257";"2014-10-07 12:55:24.367";"NST_correctLoc";"12";"0";"FINISHED";"LEFT";"success";"774";"0";"2014-10-07 12:55:23.103";"2";;;;;;;;;;;;;;;;;;;;;;;;;;;;;;;;;;;;;;;;;;;;;;;;;;;;;;;;;
"purdie2468";"1994";;"Windows 7";"Rachel's Experiment (D.T.)";"1.0";"2";"1";"1";"2";"1";"1";"2014-10-07 12:52:40.005";"2014-10-07 13:05:45.919";"1";"1";"0";"33";"32";"module.training_block1.exec-4114.GoNoGo1";;;;;;;;;;;;;;;;;;;;;;;"1257";"2014-10-07 12:55:26.910";"ST_correctStop";"2";"0";"FINISHED";"NONE";"success";"0";"1";"2014-10-07 12:55:25.646";"1";;;;;;;;;;;;;;;;;;;;;;;;;;;;;;;;;;;;;;;;;;;;;;;;;;;;;;;;;
"purdie2468";"1994";;"Windows 7";"Rachel's Experiment (D.T.)";"1.0";"2";"1";"1";"2";"1";"1";"2014-10-07 12:52:40.005";"2014-10-07 13:05:45.919";"1";"1";"0";"34";"33";"module.training_block1.exec-4114.GoNoGo1";;;;;;;;;;;;;;;;;;;;;;;"1257";"2014-10-07 12:55:29.452";"ST_correctStop";"25";"1";"FINISHED";"NONE";"success";"0";"1";"2014-10-07 12:55:28.189";"3";;;;;;;;;;;;;;;;;;;;;;;;;;;;;;;;;;;;;;;;;;;;;;;;;;;;;;;;;
"purdie2468";"1994";;"Windows 7";"Rachel's Experiment (D.T.)";"1.0";"2";"1";"1";"2";"1";"1";"2014-10-07 12:52:40.005";"2014-10-07 13:05:45.919";"1";"1";"0";"35";"34";"module.training_block1.exec-4114.GoNoGo1";;;;;;;;;;;;;;;;;;;;;;;"1257";"2014-10-07 12:55:31.995";"NST_correctLoc";"30";"1";"FINISHED";"RIGHT";"success";"640";"0";"2014-10-07 12:55:30.732";"3";;;;;;;;;;;;;;;;;;;;;;;;;;;;;;;;;;;;;;;;;;;;;;;;;;;;;;;;;
"purdie2468";"1994";;"Windows 7";"Rachel's Experiment (D.T.)";"1.0";"2";"1";"1";"2";"1";"1";"2014-10-07 12:52:40.005";"2014-10-07 13:05:45.919";"1";"1";"0";"36";"35";"module.training_block1.exec-4114.GoNoGo1";;;;;;;;;;;;;;;;;;;;;;;"1257";"2014-10-07 12:55:34.538";"NST_correctLoc";"21";"1";"FINISHED";"RIGHT";"success";"586";"0";"2014-10-07 12:55:33.274";"3";;;;;;;;;;;;;;;;;;;;;;;;;;;;;;;;;;;;;;;;;;;;;;;;;;;;;;;;;
"purdie2468";"1994";;"Windows 7";"Rachel's Experiment (D.T.)";"1.0";"2";"1";"1";"2";"1";"1";"2014-10-07 12:52:40.005";"2014-10-07 13:05:45.919";"1";"1";"0";"37";"36";"module.training_block1.exec-4114.GoNoGo1";;;;;;;;;;;;;;;;;;;;;;;"1257";"2014-10-07 12:55:37.081";"ST_correctStop";"4";"0";"FINISHED";"NONE";"success";"0";"1";"2014-10-07 12:55:35.817";"1";;;;;;;;;;;;;;;;;;;;;;;;;;;;;;;;;;;;;;;;;;;;;;;;;;;;;;;;;
"purdie2468";"1994";;"Windows 7";"Rachel's Experiment (D.T.)";"1.0";"2";"1";"1";"2";"1";"1";"2014-10-07 12:52:40.005";"2014-10-07 13:05:45.919";"1";"1";"0";"38";"37";"module.training_block1.exec-4114.GoNoGo1";;;;;;;;;;;;;;;;;;;;;;;"1257";"2014-10-07 12:55:39.624";"NST_correctLoc";"23";"1";"FINISHED";"RIGHT";"success";"516";"0";"2014-10-07 12:55:38.360";"3";;;;;;;;;;;;;;;;;;;;;;;;;;;;;;;;;;;;;;;;;;;;;;;;;;;;;;;;;
"purdie2468";"1994";;"Windows 7";"Rachel's Experiment (D.T.)";"1.0";"2";"1";"1";"2";"1";"1";"2014-10-07 12:52:40.005";"2014-10-07 13:05:45.919";"1";"1";"0";"39";"38";"module.training_block1.exec-4114.GoNoGo1";;;;;;;;;;;;;;;;;;;;;;;"1257";"2014-10-07 12:55:42.166";"ST_correctStop";"0";"0";"FINISHED";"NONE";"success";"0";"1";"2014-10-07 12:55:40.903";"1";;;;;;;;;;;;;;;;;;;;;;;;;;;;;;;;;;;;;;;;;;;;;;;;;;;;;;;;;
"purdie2468";"1994";;"Windows 7";"Rachel's Experiment (D.T.)";"1.0";"2";"1";"1";"2";"1";"1";"2014-10-07 12:52:40.005";"2014-10-07 13:05:45.919";"1";"1";"0";"40";"39";"module.training_block1.exec-4114.GoNoGo1";;;;;;;;;;;;;;;;;;;;;;;"1256";"2014-10-07 12:55:44.709";"NST_correctLoc";"15";"1";"FINISHED";"RIGHT";"success";"413";"0";"2014-10-07 12:55:43.446";"2";;;;;;;;;;;;;;;;;;;;;;;;;;;;;;;;;;;;;;;;;;;;;;;;;;;;;;;;;
"purdie2468";"1994";;"Windows 7";"Rachel's Experiment (D.T.)";"1.0";"2";"1";"1";"2";"1";"1";"2014-10-07 12:52:40.005";"2014-10-07 13:05:45.919";"1";"1";"0";"41";"40";"module.training_block1.exec-4114.GoNoGo1";;;;;;;;;;;;;;;;;;;;;;;"1251";"2014-10-07 12:55:47.252";"ST_correctStop";"28";"1";"FINISHED";"NONE";"success";"0";"1";"2014-10-07 12:55:45.988";"3";;;;;;;;;;;;;;;;;;;;;;;;;;;;;;;;;;;;;;;;;;;;;;;;;;;;;;;;;
"purdie2468";"1994";;"Windows 7";"Rachel's Experiment (D.T.)";"1.0";"2";"1";"1";"2";"1";"1";"2014-10-07 12:52:40.005";"2014-10-07 13:05:45.919";"1";"1";"0";"42";"41";"module.training_block1.exec-4114.GoNoGo1";;;;;;;;;;;;;;;;;;;;;;;"1257";"2014-10-07 12:55:49.795";"NST_correctLoc";"16";"1";"FINISHED";"RIGHT";"success";"409";"0";"2014-10-07 12:55:48.531";"2";;;;;;;;;;;;;;;;;;;;;;;;;;;;;;;;;;;;;;;;;;;;;;;;;;;;;;;;;
"purdie2468";"1994";;"Windows 7";"Rachel's Experiment (D.T.)";"1.0";"2";"1";"1";"2";"1";"1";"2014-10-07 12:52:40.005";"2014-10-07 13:05:45.919";"1";"1";"0";"43";"42";"module.training_block1.exec-4114.GoNoGo1";;;;;;;;;;;;;;;;;;;;;;;"1257";"2014-10-07 12:55:52.338";"NST_correctLoc";"26";"1";"FINISHED";"RIGHT";"success";"642";"0";"2014-10-07 12:55:51.074";"3";;;;;;;;;;;;;;;;;;;;;;;;;;;;;;;;;;;;;;;;;;;;;;;;;;;;;;;;;
"purdie2468";"1994";;"Windows 7";"Rachel's Experiment (D.T.)";"1.0";"2";"1";"1";"2";"1";"1";"2014-10-07 12:52:40.005";"2014-10-07 13:05:45.919";"1";"1";"0";"44";"43";"module.training_block1.exec-4114.GoNoGo1";;;;;;;;;;;;;;;;;;;;;;;"1257";"2014-10-07 12:55:54.880";"ST_correctStop";"8";"0";"FINISHED";"NONE";"success";"0";"1";"2014-10-07 12:55:53.617";"1";;;;;;;;;;;;;;;;;;;;;;;;;;;;;;;;;;;;;;;;;;;;;;;;;;;;;;;;;
"purdie2468";"1994";;"Windows 7";"Rachel's Experiment (D.T.)";"1.0";"2";"1";"1";"2";"1";"1";"2014-10-07 12:52:40.005";"2014-10-07 13:05:45.919";"1";"1";"0";"45";"44";"module.training_block1.exec-4114.GoNoGo1";;;;;;;;;;;;;;;;;;;;;;;"1257";"2014-10-07 12:55:57.423";"ST_failedStop";"20";"1";"FINISHED";"RIGHT";"failure";"397";"1";"2014-10-07 12:55:56.160";"3";;;;;;;;;;;;;;;;;;;;;;;;;;;;;;;;;;;;;;;;;;;;;;;;;;;;;;;;;
"purdie2468";"1994";;"Windows 7";"Rachel's Experiment (D.T.)";"1.0";"2";"1";"1";"2";"1";"1";"2014-10-07 12:52:40.005";"2014-10-07 13:05:45.919";"1";"1";"0";"46";"45";"module.training_block1.exec-4114.GoNoGo1";;;;;;;;;;;;;;;;;;;;;;;"1257";"2014-10-07 12:55:59.966";"ST_correctStop";"18";"1";"FINISHED";"NONE";"success";"0";"1";"2014-10-07 12:55:58.702";"3";;;;;;;;;;;;;;;;;;;;;;;;;;;;;;;;;;;;;;;;;;;;;;;;;;;;;;;;;
"purdie2468";"1994";;"Windows 7";"Rachel's Experiment (D.T.)";"1.0";"2";"1";"1";"2";"1";"1";"2014-10-07 12:52:40.005";"2014-10-07 13:05:45.919";"1";"1";"0";"47";"46";"module.training_block1.exec-4114.GoNoGo1";;;;;;;;;;;;;;;;;;;;;;;"1256";"2014-10-07 12:56:02.509";"NST_correctLoc";"13";"0";"FINISHED";"LEFT";"success";"806";"0";"2014-10-07 12:56:01.245";"2";;;;;;;;;;;;;;;;;;;;;;;;;;;;;;;;;;;;;;;;;;;;;;;;;;;;;;;;;
"purdie2468";"1994";;"Windows 7";"Rachel's Experiment (D.T.)";"1.0";"2";"1";"1";"2";"1";"1";"2014-10-07 12:52:40.005";"2014-10-07 13:05:45.919";"1";"1";"0";"48";"47";"module.training_block1.exec-4114.GoNoGo1";;;;;;;;;;;;;;;;;;;;;;;"1257";"2014-10-07 12:56:05.052";"NST_correctLoc";"9";"0";"FINISHED";"LEFT";"success";"640";"0";"2014-10-07 12:56:03.788";"2";;;;;;;;;;;;;;;;;;;;;;;;;;;;;;;;;;;;;;;;;;;;;;;;;;;;;;;;;
"purdie2468";"1994";;"Windows 7";"Rachel's Experiment (D.T.)";"1.0";"2";"1";"1";"2";"1";"1";"2014-10-07 12:52:40.005";"2014-10-07 13:05:45.919";"1";"1";"0";"49";"48";"module.training_block1.exec-4114.GoNoGo1";;;;;;;;;;;;;;;;;;;;;;;"1257";"2014-10-07 12:56:07.594";"ST_correctStop";"7";"0";"FINISHED";"NONE";"success";"0";"1";"2014-10-07 12:56:06.331";"1";;;;;;;;;;;;;;;;;;;;;;;;;;;;;;;;;;;;;;;;;;;;;;;;;;;;;;;;;
"purdie2468";"1994";;"Windows 7";"Rachel's Experiment (D.T.)";"1.0";"2";"1";"1";"2";"1";"1";"2014-10-07 12:52:40.005";"2014-10-07 13:05:45.919";"1";"1";"0";"50";"49";"module.training_block1.exec-4114.GoNoGo1";;;;;;;;;;;;;;;;;;;;;;;"1257";"2014-10-07 12:56:10.137";"ST_correctStop";"32";"1";"FINISHED";"NONE";"success";"0";"1";"2014-10-07 12:56:08.874";"3";;;;;;;;;;;;;;;;;;;;;;;;;;;;;;;;;;;;;;;;;;;;;;;;;;;;;;;;;
"purdie2468";"1994";;"Windows 7";"Rachel's Experiment (D.T.)";"1.0";"2";"1";"1";"2";"1";"1";"2014-10-07 12:52:40.005";"2014-10-07 13:05:45.919";"1";"1";"0";"51";"50";"module.training_block1.exec-4114.GoNoGo1";;;;;;;;;;;;;;;;;;;;;;;"1257";"2014-10-07 12:56:12.680";"NST_correctLoc";"10";"0";"FINISHED";"LEFT";"success";"908";"0";"2014-10-07 12:56:11.416";"2";;;;;;;;;;;;;;;;;;;;;;;;;;;;;;;;;;;;;;;;;;;;;;;;;;;;;;;;;
"purdie2468";"1994";;"Windows 7";"Rachel's Experiment (D.T.)";"1.0";"2";"1";"1";"2";"1";"1";"2014-10-07 12:52:40.005";"2014-10-07 13:05:45.919";"1";"1";"0";"52";"51";"module.training_block2.exec-5185.GoNoGo2";;;;;;;;;;;;;;;;;;;;;;;;;;;;;;;;;;;"1261";"2014-10-07 12:56:24.255";"ST_correctStop";"26";"1";"FINISHED";"NONE";"success";"0";"1";"2014-10-07 12:56:22.992";"3";;;;;;;;;;;;;;;;;;;;;;;;;;;;;;;;;;;;;;;;;;;;;
"purdie2468";"1994";;"Windows 7";"Rachel's Experiment (D.T.)";"1.0";"2";"1";"1";"2";"1";"1";"2014-10-07 12:52:40.005";"2014-10-07 13:05:45.919";"1";"1";"0";"53";"52";"module.training_block2.exec-5185.GoNoGo2";;;;;;;;;;;;;;;;;;;;;;;;;;;;;;;;;;;"1257";"2014-10-07 12:56:26.798";"ST_correctStop";"35";"0";"FINISHED";"NONE";"success";"0";"1";"2014-10-07 12:56:25.534";"3";;;;;;;;;;;;;;;;;;;;;;;;;;;;;;;;;;;;;;;;;;;;;
"purdie2468";"1994";;"Windows 7";"Rachel's Experiment (D.T.)";"1.0";"2";"1";"1";"2";"1";"1";"2014-10-07 12:52:40.005";"2014-10-07 13:05:45.919";"1";"1";"0";"54";"53";"module.training_block2.exec-5185.GoNoGo2";;;;;;;;;;;;;;;;;;;;;;;;;;;;;;;;;;;"1261";"2014-10-07 12:56:29.341";"NST_correctLoc";"11";"1";"FINISHED";"RIGHT";"success";"427";"0";"2014-10-07 12:56:28.077";"2";;;;;;;;;;;;;;;;;;;;;;;;;;;;;;;;;;;;;;;;;;;;;
"purdie2468";"1994";;"Windows 7";"Rachel's Experiment (D.T.)";"1.0";"2";"1";"1";"2";"1";"1";"2014-10-07 12:52:40.005";"2014-10-07 13:05:45.919";"1";"1";"0";"55";"54";"module.training_block2.exec-5185.GoNoGo2";;;;;;;;;;;;;;;;;;;;;;;;;;;;;;;;;;;"1261";"2014-10-07 12:56:31.884";"ST_correctStop";"4";"1";"FINISHED";"NONE";"success";"0";"1";"2014-10-07 12:56:30.620";"1";;;;;;;;;;;;;;;;;;;;;;;;;;;;;;;;;;;;;;;;;;;;;
"purdie2468";"1994";;"Windows 7";"Rachel's Experiment (D.T.)";"1.0";"2";"1";"1";"2";"1";"1";"2014-10-07 12:52:40.005";"2014-10-07 13:05:45.919";"1";"1";"0";"56";"55";"module.training_block2.exec-5185.GoNoGo2";;;;;;;;;;;;;;;;;;;;;;;;;;;;;;;;;;;"1256";"2014-10-07 12:56:34.426";"NST_correctLoc";"27";"1";"FINISHED";"RIGHT";"success";"880";"0";"2014-10-07 12:56:33.163";"3";;;;;;;;;;;;;;;;;;;;;;;;;;;;;;;;;;;;;;;;;;;;;
"purdie2468";"1994";;"Windows 7";"Rachel's Experiment (D.T.)";"1.0";"2";"1";"1";"2";"1";"1";"2014-10-07 12:52:40.005";"2014-10-07 13:05:45.919";"1";"1";"0";"57";"56";"module.training_block2.exec-5185.GoNoGo2";;;;;;;;;;;;;;;;;;;;;;;;;;;;;;;;;;;"1261";"2014-10-07 12:56:36.969";"ST_correctStop";"2";"0";"FINISHED";"NONE";"success";"0";"1";"2014-10-07 12:56:35.706";"1";;;;;;;;;;;;;;;;;;;;;;;;;;;;;;;;;;;;;;;;;;;;;
"purdie2468";"1994";;"Windows 7";"Rachel's Experiment (D.T.)";"1.0";"2";"1";"1";"2";"1";"1";"2014-10-07 12:52:40.005";"2014-10-07 13:05:45.919";"1";"1";"0";"58";"57";"module.training_block2.exec-5185.GoNoGo2";;;;;;;;;;;;;;;;;;;;;;;;;;;;;;;;;;;"1258";"2014-10-07 12:56:39.512";"ST_correctStop";"3";"0";"FINISHED";"NONE";"success";"0";"1";"2014-10-07 12:56:38.248";"1";;;;;;;;;;;;;;;;;;;;;;;;;;;;;;;;;;;;;;;;;;;;;
"purdie2468";"1994";;"Windows 7";"Rachel's Experiment (D.T.)";"1.0";"2";"1";"1";"2";"1";"1";"2014-10-07 12:52:40.005";"2014-10-07 13:05:45.919";"1";"1";"0";"59";"58";"module.training_block2.exec-5185.GoNoGo2";;;;;;;;;;;;;;;;;;;;;;;;;;;;;;;;;;;"1261";"2014-10-07 12:56:42.055";"NST_correctLoc";"22";"1";"FINISHED";"RIGHT";"success";"745";"0";"2014-10-07 12:56:40.791";"3";;;;;;;;;;;;;;;;;;;;;;;;;;;;;;;;;;;;;;;;;;;;;
"purdie2468";"1994";;"Windows 7";"Rachel's Experiment (D.T.)";"1.0";"2";"1";"1";"2";"1";"1";"2014-10-07 12:52:40.005";"2014-10-07 13:05:45.919";"1";"1";"0";"60";"59";"module.training_block2.exec-5185.GoNoGo2";;;;;;;;;;;;;;;;;;;;;;;;;;;;;;;;;;;"1257";"2014-10-07 12:56:44.598";"NST_correctLoc";"14";"0";"FINISHED";"LEFT";"success";"613";"0";"2014-10-07 12:56:43.334";"2";;;;;;;;;;;;;;;;;;;;;;;;;;;;;;;;;;;;;;;;;;;;;
"purdie2468";"1994";;"Windows 7";"Rachel's Experiment (D.T.)";"1.0";"2";"1";"1";"2";"1";"1";"2014-10-07 12:52:40.005";"2014-10-07 13:05:45.919";"1";"1";"0";"61";"60";"module.training_block2.exec-5185.GoNoGo2";;;;;;;;;;;;;;;;;;;;;;;;;;;;;;;;;;;"1261";"2014-10-07 12:56:47.140";"NST_correctLoc";"10";"0";"FINISHED";"LEFT";"success";"515";"0";"2014-10-07 12:56:45.877";"2";;;;;;;;;;;;;;;;;;;;;;;;;;;;;;;;;;;;;;;;;;;;;
"purdie2468";"1994";;"Windows 7";"Rachel's Experiment (D.T.)";"1.0";"2";"1";"1";"2";"1";"1";"2014-10-07 12:52:40.005";"2014-10-07 13:05:45.919";"1";"1";"0";"62";"61";"module.training_block2.exec-5185.GoNoGo2";;;;;;;;;;;;;;;;;;;;;;;;;;;;;;;;;;;"1257";"2014-10-07 12:56:49.683";"NST_correctLoc";"17";"0";"FINISHED";"LEFT";"success";"528";"0";"2014-10-07 12:56:48.420";"2";;;;;;;;;;;;;;;;;;;;;;;;;;;;;;;;;;;;;;;;;;;;;
"purdie2468";"1994";;"Windows 7";"Rachel's Experiment (D.T.)";"1.0";"2";"1";"1";"2";"1";"1";"2014-10-07 12:52:40.005";"2014-10-07 13:05:45.919";"1";"1";"0";"63";"62";"module.training_block2.exec-5185.GoNoGo2";;;;;;;;;;;;;;;;;;;;;;;;;;;;;;;;;;;"1261";"2014-10-07 12:56:52.226";"ST_correctStop";"6";"1";"FINISHED";"NONE";"success";"0";"1";"2014-10-07 12:56:50.962";"1";;;;;;;;;;;;;;;;;;;;;;;;;;;;;;;;;;;;;;;;;;;;;
"purdie2468";"1994";;"Windows 7";"Rachel's Experiment (D.T.)";"1.0";"2";"1";"1";"2";"1";"1";"2014-10-07 12:52:40.005";"2014-10-07 13:05:45.919";"1";"1";"0";"64";"63";"module.training_block2.exec-5185.GoNoGo2";;;;;;;;;;;;;;;;;;;;;;;;;;;;;;;;;;;"1261";"2014-10-07 12:56:54.769";"NST_correctLoc";"21";"0";"FINISHED";"LEFT";"success";"711";"0";"2014-10-07 12:56:53.505";"3";;;;;;;;;;;;;;;;;;;;;;;;;;;;;;;;;;;;;;;;;;;;;
"purdie2468";"1994";;"Windows 7";"Rachel's Experiment (D.T.)";"1.0";"2";"1";"1";"2";"1";"1";"2014-10-07 12:52:40.005";"2014-10-07 13:05:45.919";"1";"1";"0";"65";"64";"module.training_block2.exec-5185.GoNoGo2";;;;;;;;;;;;;;;;;;;;;;;;;;;;;;;;;;;"1261";"2014-10-07 12:56:57.312";"NST_correctLoc";"34";"0";"FINISHED";"LEFT";"success";"928";"0";"2014-10-07 12:56:56.048";"3";;;;;;;;;;;;;;;;;;;;;;;;;;;;;;;;;;;;;;;;;;;;;
"purdie2468";"1994";;"Windows 7";"Rachel's Experiment (D.T.)";"1.0";"2";"1";"1";"2";"1";"1";"2014-10-07 12:52:40.005";"2014-10-07 13:05:45.919";"1";"1";"0";"66";"65";"module.training_block2.exec-5185.GoNoGo2";;;;;;;;;;;;;;;;;;;;;;;;;;;;;;;;;;;"1261";"2014-10-07 12:56:59.854";"NST_correctLoc";"13";"1";"FINISHED";"RIGHT";"success";"673";"0";"2014-10-07 12:56:58.591";"2";;;;;;;;;;;;;;;;;;;;;;;;;;;;;;;;;;;;;;;;;;;;;
"purdie2468";"1994";;"Windows 7";"Rachel's Experiment (D.T.)";"1.0";"2";"1";"1";"2";"1";"1";"2014-10-07 12:52:40.005";"2014-10-07 13:05:45.919";"1";"1";"0";"67";"66";"module.training_block2.exec-5185.GoNoGo2";;;;;;;;;;;;;;;;;;;;;;;;;;;;;;;;;;;"1257";"2014-10-07 12:57:02.397";"ST_correctStop";"5";"1";"FINISHED";"NONE";"success";"0";"1";"2014-10-07 12:57:01.134";"1";;;;;;;;;;;;;;;;;;;;;;;;;;;;;;;;;;;;;;;;;;;;;
"purdie2468";"1994";;"Windows 7";"Rachel's Experiment (D.T.)";"1.0";"2";"1";"1";"2";"1";"1";"2014-10-07 12:52:40.005";"2014-10-07 13:05:45.919";"1";"1";"0";"68";"67";"module.training_block2.exec-5185.GoNoGo2";;;;;;;;;;;;;;;;;;;;;;;;;;;;;;;;;;;"1261";"2014-10-07 12:57:04.940";"NST_correctLoc";"16";"0";"FINISHED";"LEFT";"success";"587";"0";"2014-10-07 12:57:03.676";"2";;;;;;;;;;;;;;;;;;;;;;;;;;;;;;;;;;;;;;;;;;;;;
"purdie2468";"1994";;"Windows 7";"Rachel's Experiment (D.T.)";"1.0";"2";"1";"1";"2";"1";"1";"2014-10-07 12:52:40.005";"2014-10-07 13:05:45.919";"1";"1";"0";"69";"68";"module.training_block2.exec-5185.GoNoGo2";;;;;;;;;;;;;;;;;;;;;;;;;;;;;;;;;;;"1261";"2014-10-07 12:57:07.483";"NST_correctLoc";"15";"1";"FINISHED";"RIGHT";"success";"621";"0";"2014-10-07 12:57:06.219";"2";;;;;;;;;;;;;;;;;;;;;;;;;;;;;;;;;;;;;;;;;;;;;
"purdie2468";"1994";;"Windows 7";"Rachel's Experiment (D.T.)";"1.0";"2";"1";"1";"2";"1";"1";"2014-10-07 12:52:40.005";"2014-10-07 13:05:45.919";"1";"1";"0";"70";"69";"module.training_block2.exec-5185.GoNoGo2";;;;;;;;;;;;;;;;;;;;;;;;;;;;;;;;;;;"1261";"2014-10-07 12:57:10.026";"ST_correctStop";"19";"1";"FINISHED";"NONE";"success";"0";"1";"2014-10-07 12:57:08.762";"3";;;;;;;;;;;;;;;;;;;;;;;;;;;;;;;;;;;;;;;;;;;;;
"purdie2468";"1994";;"Windows 7";"Rachel's Experiment (D.T.)";"1.0";"2";"1";"1";"2";"1";"1";"2014-10-07 12:52:40.005";"2014-10-07 13:05:45.919";"1";"1";"0";"71";"70";"module.training_block2.exec-5185.GoNoGo2";;;;;;;;;;;;;;;;;;;;;;;;;;;;;;;;;;;"1261";"2014-10-07 12:57:12.569";"ST_correctStop";"24";"0";"FINISHED";"NONE";"success";"0";"1";"2014-10-07 12:57:11.305";"3";;;;;;;;;;;;;;;;;;;;;;;;;;;;;;;;;;;;;;;;;;;;;
"purdie2468";"1994";;"Windows 7";"Rachel's Experiment (D.T.)";"1.0";"2";"1";"1";"2";"1";"1";"2014-10-07 12:52:40.005";"2014-10-07 13:05:45.919";"1";"1";"0";"72";"71";"module.training_block2.exec-5185.GoNoGo2";;;;;;;;;;;;;;;;;;;;;;;;;;;;;;;;;;;"1261";"2014-10-07 12:57:15.111";"ST_correctStop";"32";"0";"FINISHED";"NONE";"success";"0";"1";"2014-10-07 12:57:13.848";"3";;;;;;;;;;;;;;;;;;;;;;;;;;;;;;;;;;;;;;;;;;;;;
"purdie2468";"1994";;"Windows 7";"Rachel's Experiment (D.T.)";"1.0";"2";"1";"1";"2";"1";"1";"2014-10-07 12:52:40.005";"2014-10-07 13:05:45.919";"1";"1";"0";"73";"72";"module.training_block2.exec-5185.GoNoGo2";;;;;;;;;;;;;;;;;;;;;;;;;;;;;;;;;;;"1261";"2014-10-07 12:57:17.685";"NST_correctLoc";"33";"1";"FINISHED";"RIGHT";"success";"610";"0";"2014-10-07 12:57:16.422";"3";;;;;;;;;;;;;;;;;;;;;;;;;;;;;;;;;;;;;;;;;;;;;
"purdie2468";"1994";;"Windows 7";"Rachel's Experiment (D.T.)";"1.0";"2";"1";"1";"2";"1";"1";"2014-10-07 12:52:40.005";"2014-10-07 13:05:45.919";"1";"1";"0";"74";"73";"module.training_block2.exec-5185.GoNoGo2";;;;;;;;;;;;;;;;;;;;;;;;;;;;;;;;;;;"1261";"2014-10-07 12:57:20.244";"NST_correctLoc";"30";"0";"FINISHED";"LEFT";"success";"668";"0";"2014-10-07 12:57:18.980";"3";;;;;;;;;;;;;;;;;;;;;;;;;;;;;;;;;;;;;;;;;;;;;
"purdie2468";"1994";;"Windows 7";"Rachel's Experiment (D.T.)";"1.0";"2";"1";"1";"2";"1";"1";"2014-10-07 12:52:40.005";"2014-10-07 13:05:45.919";"1";"1";"0";"75";"74";"module.training_block2.exec-5185.GoNoGo2";;;;;;;;;;;;;;;;;;;;;;;;;;;;;;;;;;;"1261";"2014-10-07 12:57:22.787";"ST_correctStop";"8";"0";"FINISHED";"NONE";"success";"0";"1";"2014-10-07 12:57:21.523";"1";;;;;;;;;;;;;;;;;;;;;;;;;;;;;;;;;;;;;;;;;;;;;
"purdie2468";"1994";;"Windows 7";"Rachel's Experiment (D.T.)";"1.0";"2";"1";"1";"2";"1";"1";"2014-10-07 12:52:40.005";"2014-10-07 13:05:45.919";"1";"1";"0";"76";"75";"module.training_block2.exec-5185.GoNoGo2";;;;;;;;;;;;;;;;;;;;;;;;;;;;;;;;;;;"1261";"2014-10-07 12:57:25.329";"NST_correctLoc";"31";"1";"FINISHED";"RIGHT";"success";"702";"0";"2014-10-07 12:57:24.066";"3";;;;;;;;;;;;;;;;;;;;;;;;;;;;;;;;;;;;;;;;;;;;;
"purdie2468";"1994";;"Windows 7";"Rachel's Experiment (D.T.)";"1.0";"2";"1";"1";"2";"1";"1";"2014-10-07 12:52:40.005";"2014-10-07 13:05:45.919";"1";"1";"0";"77";"76";"module.training_block2.exec-5185.GoNoGo2";;;;;;;;;;;;;;;;;;;;;;;;;;;;;;;;;;;"1261";"2014-10-07 12:57:27.872";"NST_correctLoc";"12";"0";"FINISHED";"LEFT";"success";"631";"0";"2014-10-07 12:57:26.609";"2";;;;;;;;;;;;;;;;;;;;;;;;;;;;;;;;;;;;;;;;;;;;;
"purdie2468";"1994";;"Windows 7";"Rachel's Experiment (D.T.)";"1.0";"2";"1";"1";"2";"1";"1";"2014-10-07 12:52:40.005";"2014-10-07 13:05:45.919";"1";"1";"0";"78";"77";"module.training_block2.exec-5185.GoNoGo2";;;;;;;;;;;;;;;;;;;;;;;;;;;;;;;;;;;"1261";"2014-10-07 12:57:30.415";"ST_correctStop";"29";"0";"FINISHED";"NONE";"success";"0";"1";"2014-10-07 12:57:29.151";"3";;;;;;;;;;;;;;;;;;;;;;;;;;;;;;;;;;;;;;;;;;;;;
"purdie2468";"1994";;"Windows 7";"Rachel's Experiment (D.T.)";"1.0";"2";"1";"1";"2";"1";"1";"2014-10-07 12:52:40.005";"2014-10-07 13:05:45.919";"1";"1";"0";"79";"78";"module.training_block2.exec-5185.GoNoGo2";;;;;;;;;;;;;;;;;;;;;;;;;;;;;;;;;;;"1261";"2014-10-07 12:57:32.958";"ST_correctStop";"7";"0";"FINISHED";"NONE";"success";"0";"1";"2014-10-07 12:57:31.694";"1";;;;;;;;;;;;;;;;;;;;;;;;;;;;;;;;;;;;;;;;;;;;;
"purdie2468";"1994";;"Windows 7";"Rachel's Experiment (D.T.)";"1.0";"2";"1";"1";"2";"1";"1";"2014-10-07 12:52:40.005";"2014-10-07 13:05:45.919";"1";"1";"0";"80";"79";"module.training_block2.exec-5185.GoNoGo2";;;;;;;;;;;;;;;;;;;;;;;;;;;;;;;;;;;"1261";"2014-10-07 12:57:35.501";"ST_correctStop";"0";"0";"FINISHED";"NONE";"success";"0";"1";"2014-10-07 12:57:34.237";"1";;;;;;;;;;;;;;;;;;;;;;;;;;;;;;;;;;;;;;;;;;;;;
"purdie2468";"1994";;"Windows 7";"Rachel's Experiment (D.T.)";"1.0";"2";"1";"1";"2";"1";"1";"2014-10-07 12:52:40.005";"2014-10-07 13:05:45.919";"1";"1";"0";"81";"80";"module.training_block2.exec-5185.GoNoGo2";;;;;;;;;;;;;;;;;;;;;;;;;;;;;;;;;;;"1261";"2014-10-07 12:57:38.043";"ST_correctStop";"1";"1";"FINISHED";"NONE";"success";"0";"1";"2014-10-07 12:57:36.780";"1";;;;;;;;;;;;;;;;;;;;;;;;;;;;;;;;;;;;;;;;;;;;;
"purdie2468";"1994";;"Windows 7";"Rachel's Experiment (D.T.)";"1.0";"2";"1";"1";"2";"1";"1";"2014-10-07 12:52:40.005";"2014-10-07 13:05:45.919";"1";"1";"0";"82";"81";"module.training_block2.exec-5185.GoNoGo2";;;;;;;;;;;;;;;;;;;;;;;;;;;;;;;;;;;"1261";"2014-10-07 12:57:40.586";"NST_correctLoc";"9";"0";"FINISHED";"LEFT";"success";"629";"0";"2014-10-07 12:57:39.323";"2";;;;;;;;;;;;;;;;;;;;;;;;;;;;;;;;;;;;;;;;;;;;;
"purdie2468";"1994";;"Windows 7";"Rachel's Experiment (D.T.)";"1.0";"2";"1";"1";"2";"1";"1";"2014-10-07 12:52:40.005";"2014-10-07 13:05:45.919";"1";"1";"0";"83";"82";"module.training_block2.exec-5185.GoNoGo2";;;;;;;;;;;;;;;;;;;;;;;;;;;;;;;;;;;"1261";"2014-10-07 12:57:43.129";"ST_correctStop";"20";"0";"FINISHED";"NONE";"success";"0";"1";"2014-10-07 12:57:41.865";"3";;;;;;;;;;;;;;;;;;;;;;;;;;;;;;;;;;;;;;;;;;;;;
"purdie2468";"1994";;"Windows 7";"Rachel's Experiment (D.T.)";"1.0";"2";"1";"1";"2";"1";"1";"2014-10-07 12:52:40.005";"2014-10-07 13:05:45.919";"1";"1";"0";"84";"83";"module.training_block2.exec-5185.GoNoGo2";;;;;;;;;;;;;;;;;;;;;;;;;;;;;;;;;;;"1261";"2014-10-07 12:57:45.672";"NST_correctLoc";"23";"0";"FINISHED";"LEFT";"success";"607";"0";"2014-10-07 12:57:44.408";"3";;;;;;;;;;;;;;;;;;;;;;;;;;;;;;;;;;;;;;;;;;;;;
"purdie2468";"1994";;"Windows 7";"Rachel's Experiment (D.T.)";"1.0";"2";"1";"1";"2";"1";"1";"2014-10-07 12:52:40.005";"2014-10-07 13:05:45.919";"1";"1";"0";"85";"84";"module.training_block2.exec-5185.GoNoGo2";;;;;;;;;;;;;;;;;;;;;;;;;;;;;;;;;;;"1261";"2014-10-07 12:57:48.215";"ST_correctStop";"28";"0";"FINISHED";"NONE";"success";"0";"1";"2014-10-07 12:57:46.951";"3";;;;;;;;;;;;;;;;;;;;;;;;;;;;;;;;;;;;;;;;;;;;;
"purdie2468";"1994";;"Windows 7";"Rachel's Experiment (D.T.)";"1.0";"2";"1";"1";"2";"1";"1";"2014-10-07 12:52:40.005";"2014-10-07 13:05:45.919";"1";"1";"0";"86";"85";"module.training_block2.exec-5185.GoNoGo2";;;;;;;;;;;;;;;;;;;;;;;;;;;;;;;;;;;"1261";"2014-10-07 12:57:50.757";"ST_correctStop";"18";"0";"FINISHED";"NONE";"success";"0";"1";"2014-10-07 12:57:49.494";"3";;;;;;;;;;;;;;;;;;;;;;;;;;;;;;;;;;;;;;;;;;;;;
"purdie2468";"1994";;"Windows 7";"Rachel's Experiment (D.T.)";"1.0";"2";"1";"1";"2";"1";"1";"2014-10-07 12:52:40.005";"2014-10-07 13:05:45.919";"1";"1";"0";"87";"86";"module.training_block2.exec-5185.GoNoGo2";;;;;;;;;;;;;;;;;;;;;;;;;;;;;;;;;;;"1261";"2014-10-07 12:57:53.300";"NST_correctLoc";"25";"1";"FINISHED";"RIGHT";"success";"643";"0";"2014-10-07 12:57:52.037";"3";;;;;;;;;;;;;;;;;;;;;;;;;;;;;;;;;;;;;;;;;;;;;
"purdie2468";"1994";;"Windows 7";"Rachel's Experiment (D.T.)";"1.0";"2";"1";"1";"2";"1";"1";"2014-10-07 12:52:40.005";"2014-10-07 13:05:45.919";"1";"1";"0";"88";"87";"module.training_block3.exec-8724.GoNoGo3";;;;;;;;;;;;;;;;;;;;;;;;;;;;;;;;;;;;;;;;;;;;;;;"1261";"2014-10-07 12:58:03.347";"ST_correctStop";"6";"0";"FINISHED";"NONE";"success";"0";"1";"2014-10-07 12:58:02.083";"1";;;;;;;;;;;;;;;;;;;;;;;;;;;;;;;;;
"purdie2468";"1994";;"Windows 7";"Rachel's Experiment (D.T.)";"1.0";"2";"1";"1";"2";"1";"1";"2014-10-07 12:52:40.005";"2014-10-07 13:05:45.919";"1";"1";"0";"89";"88";"module.training_block3.exec-8724.GoNoGo3";;;;;;;;;;;;;;;;;;;;;;;;;;;;;;;;;;;;;;;;;;;;;;;"1261";"2014-10-07 12:58:05.889";"NST_correctLoc";"30";"0";"FINISHED";"LEFT";"success";"422";"0";"2014-10-07 12:58:04.626";"3";;;;;;;;;;;;;;;;;;;;;;;;;;;;;;;;;
"purdie2468";"1994";;"Windows 7";"Rachel's Experiment (D.T.)";"1.0";"2";"1";"1";"2";"1";"1";"2014-10-07 12:52:40.005";"2014-10-07 13:05:45.919";"1";"1";"0";"90";"89";"module.training_block3.exec-8724.GoNoGo3";;;;;;;;;;;;;;;;;;;;;;;;;;;;;;;;;;;;;;;;;;;;;;;"1261";"2014-10-07 12:58:08.432";"NST_correctLoc";"18";"1";"FINISHED";"RIGHT";"success";"431";"0";"2014-10-07 12:58:07.169";"3";;;;;;;;;;;;;;;;;;;;;;;;;;;;;;;;;
"purdie2468";"1994";;"Windows 7";"Rachel's Experiment (D.T.)";"1.0";"2";"1";"1";"2";"1";"1";"2014-10-07 12:52:40.005";"2014-10-07 13:05:45.919";"1";"1";"0";"91";"90";"module.training_block3.exec-8724.GoNoGo3";;;;;;;;;;;;;;;;;;;;;;;;;;;;;;;;;;;;;;;;;;;;;;;"1261";"2014-10-07 12:58:10.975";"ST_correctStop";"2";"0";"FINISHED";"NONE";"success";"0";"1";"2014-10-07 12:58:09.711";"1";;;;;;;;;;;;;;;;;;;;;;;;;;;;;;;;;
"purdie2468";"1994";;"Windows 7";"Rachel's Experiment (D.T.)";"1.0";"2";"1";"1";"2";"1";"1";"2014-10-07 12:52:40.005";"2014-10-07 13:05:45.919";"1";"1";"0";"92";"91";"module.training_block3.exec-8724.GoNoGo3";;;;;;;;;;;;;;;;;;;;;;;;;;;;;;;;;;;;;;;;;;;;;;;"1261";"2014-10-07 12:58:13.518";"NST_correctLoc";"17";"1";"FINISHED";"RIGHT";"success";"489";"0";"2014-10-07 12:58:12.254";"2";;;;;;;;;;;;;;;;;;;;;;;;;;;;;;;;;
"purdie2468";"1994";;"Windows 7";"Rachel's Experiment (D.T.)";"1.0";"2";"1";"1";"2";"1";"1";"2014-10-07 12:52:40.005";"2014-10-07 13:05:45.919";"1";"1";"0";"93";"92";"module.training_block3.exec-8724.GoNoGo3";;;;;;;;;;;;;;;;;;;;;;;;;;;;;;;;;;;;;;;;;;;;;;;"1261";"2014-10-07 12:58:16.061";"ST_correctStop";"29";"1";"FINISHED";"NONE";"success";"0";"1";"2014-10-07 12:58:14.797";"3";;;;;;;;;;;;;;;;;;;;;;;;;;;;;;;;;
"purdie2468";"1994";;"Windows 7";"Rachel's Experiment (D.T.)";"1.0";"2";"1";"1";"2";"1";"1";"2014-10-07 12:52:40.005";"2014-10-07 13:05:45.919";"1";"1";"0";"94";"93";"module.training_block3.exec-8724.GoNoGo3";;;;;;;;;;;;;;;;;;;;;;;;;;;;;;;;;;;;;;;;;;;;;;;"1261";"2014-10-07 12:58:18.603";"NST_correctLoc";"31";"1";"FINISHED";"RIGHT";"success";"420";"0";"2014-10-07 12:58:17.340";"3";;;;;;;;;;;;;;;;;;;;;;;;;;;;;;;;;
"purdie2468";"1994";;"Windows 7";"Rachel's Experiment (D.T.)";"1.0";"2";"1";"1";"2";"1";"1";"2014-10-07 12:52:40.005";"2014-10-07 13:05:45.919";"1";"1";"0";"95";"94";"module.training_block3.exec-8724.GoNoGo3";;;;;;;;;;;;;;;;;;;;;;;;;;;;;;;;;;;;;;;;;;;;;;;"1261";"2014-10-07 12:58:21.146";"NST_correctLoc";"21";"0";"FINISHED";"LEFT";"success";"573";"0";"2014-10-07 12:58:19.883";"3";;;;;;;;;;;;;;;;;;;;;;;;;;;;;;;;;
"purdie2468";"1994";;"Windows 7";"Rachel's Experiment (D.T.)";"1.0";"2";"1";"1";"2";"1";"1";"2014-10-07 12:52:40.005";"2014-10-07 13:05:45.919";"1";"1";"0";"96";"95";"module.training_block3.exec-8724.GoNoGo3";;;;;;;;;;;;;;;;;;;;;;;;;;;;;;;;;;;;;;;;;;;;;;;"1261";"2014-10-07 12:58:23.689";"ST_correctStop";"8";"0";"FINISHED";"NONE";"success";"0";"1";"2014-10-07 12:58:22.425";"1";;;;;;;;;;;;;;;;;;;;;;;;;;;;;;;;;
"purdie2468";"1994";;"Windows 7";"Rachel's Experiment (D.T.)";"1.0";"2";"1";"1";"2";"1";"1";"2014-10-07 12:52:40.005";"2014-10-07 13:05:45.919";"1";"1";"0";"97";"96";"module.training_block3.exec-8724.GoNoGo3";;;;;;;;;;;;;;;;;;;;;;;;;;;;;;;;;;;;;;;;;;;;;;;"1261";"2014-10-07 12:58:26.232";"ST_correctStop";"25";"1";"FINISHED";"NONE";"success";"0";"1";"2014-10-07 12:58:24.968";"3";;;;;;;;;;;;;;;;;;;;;;;;;;;;;;;;;
"purdie2468";"1994";;"Windows 7";"Rachel's Experiment (D.T.)";"1.0";"2";"1";"1";"2";"1";"1";"2014-10-07 12:52:40.005";"2014-10-07 13:05:45.919";"1";"1";"0";"98";"97";"module.training_block3.exec-8724.GoNoGo3";;;;;;;;;;;;;;;;;;;;;;;;;;;;;;;;;;;;;;;;;;;;;;;"1261";"2014-10-07 12:58:28.775";"ST_correctStop";"20";"1";"FINISHED";"NONE";"success";"0";"1";"2014-10-07 12:58:27.511";"3";;;;;;;;;;;;;;;;;;;;;;;;;;;;;;;;;
"purdie2468";"1994";;"Windows 7";"Rachel's Experiment (D.T.)";"1.0";"2";"1";"1";"2";"1";"1";"2014-10-07 12:52:40.005";"2014-10-07 13:05:45.919";"1";"1";"0";"99";"98";"module.training_block3.exec-8724.GoNoGo3";;;;;;;;;;;;;;;;;;;;;;;;;;;;;;;;;;;;;;;;;;;;;;;"1261";"2014-10-07 12:58:31.317";"NST_correctLoc";"32";"1";"FINISHED";"RIGHT";"success";"578";"0";"2014-10-07 12:58:30.054";"3";;;;;;;;;;;;;;;;;;;;;;;;;;;;;;;;;
"purdie2468";"1994";;"Windows 7";"Rachel's Experiment (D.T.)";"1.0";"2";"1";"1";"2";"1";"1";"2014-10-07 12:52:40.005";"2014-10-07 13:05:45.919";"1";"1";"0";"100";"99";"module.training_block3.exec-8724.GoNoGo3";;;;;;;;;;;;;;;;;;;;;;;;;;;;;;;;;;;;;;;;;;;;;;;"1261";"2014-10-07 12:58:33.860";"ST_correctStop";"5";"0";"FINISHED";"NONE";"success";"0";"1";"2014-10-07 12:58:32.597";"1";;;;;;;;;;;;;;;;;;;;;;;;;;;;;;;;;
"purdie2468";"1994";;"Windows 7";"Rachel's Experiment (D.T.)";"1.0";"2";"1";"1";"2";"1";"1";"2014-10-07 12:52:40.005";"2014-10-07 13:05:45.919";"1";"1";"0";"101";"100";"module.training_block3.exec-8724.GoNoGo3";;;;;;;;;;;;;;;;;;;;;;;;;;;;;;;;;;;;;;;;;;;;;;;"1261";"2014-10-07 12:58:36.403";"NST_correctLoc";"9";"0";"FINISHED";"LEFT";"success";"644";"0";"2014-10-07 12:58:35.139";"2";;;;;;;;;;;;;;;;;;;;;;;;;;;;;;;;;
"purdie2468";"1994";;"Windows 7";"Rachel's Experiment (D.T.)";"1.0";"2";"1";"1";"2";"1";"1";"2014-10-07 12:52:40.005";"2014-10-07 13:05:45.919";"1";"1";"0";"102";"101";"module.training_block3.exec-8724.GoNoGo3";;;;;;;;;;;;;;;;;;;;;;;;;;;;;;;;;;;;;;;;;;;;;;;"1261";"2014-10-07 12:58:38.946";"ST_correctStop";"27";"0";"FINISHED";"NONE";"success";"0";"1";"2014-10-07 12:58:37.682";"3";;;;;;;;;;;;;;;;;;;;;;;;;;;;;;;;;
"purdie2468";"1994";;"Windows 7";"Rachel's Experiment (D.T.)";"1.0";"2";"1";"1";"2";"1";"1";"2014-10-07 12:52:40.005";"2014-10-07 13:05:45.919";"1";"1";"0";"103";"102";"module.training_block3.exec-8724.GoNoGo3";;;;;;;;;;;;;;;;;;;;;;;;;;;;;;;;;;;;;;;;;;;;;;;"1261";"2014-10-07 12:58:41.489";"NST_correctLoc";"23";"0";"FINISHED";"LEFT";"success";"542";"0";"2014-10-07 12:58:40.225";"3";;;;;;;;;;;;;;;;;;;;;;;;;;;;;;;;;
"purdie2468";"1994";;"Windows 7";"Rachel's Experiment (D.T.)";"1.0";"2";"1";"1";"2";"1";"1";"2014-10-07 12:52:40.005";"2014-10-07 13:05:45.919";"1";"1";"0";"104";"103";"module.training_block3.exec-8724.GoNoGo3";;;;;;;;;;;;;;;;;;;;;;;;;;;;;;;;;;;;;;;;;;;;;;;"1261";"2014-10-07 12:58:44.031";"ST_correctStop";"24";"0";"FINISHED";"NONE";"success";"0";"1";"2014-10-07 12:58:42.768";"3";;;;;;;;;;;;;;;;;;;;;;;;;;;;;;;;;
"purdie2468";"1994";;"Windows 7";"Rachel's Experiment (D.T.)";"1.0";"2";"1";"1";"2";"1";"1";"2014-10-07 12:52:40.005";"2014-10-07 13:05:45.919";"1";"1";"0";"105";"104";"module.training_block3.exec-8724.GoNoGo3";;;;;;;;;;;;;;;;;;;;;;;;;;;;;;;;;;;;;;;;;;;;;;;"1261";"2014-10-07 12:58:46.574";"ST_correctStop";"0";"0";"FINISHED";"NONE";"success";"0";"1";"2014-10-07 12:58:45.311";"1";;;;;;;;;;;;;;;;;;;;;;;;;;;;;;;;;
"purdie2468";"1994";;"Windows 7";"Rachel's Experiment (D.T.)";"1.0";"2";"1";"1";"2";"1";"1";"2014-10-07 12:52:40.005";"2014-10-07 13:05:45.919";"1";"1";"0";"106";"105";"module.training_block3.exec-8724.GoNoGo3";;;;;;;;;;;;;;;;;;;;;;;;;;;;;;;;;;;;;;;;;;;;;;;"1261";"2014-10-07 12:58:49.117";"NST_correctLoc";"14";"0";"FINISHED";"LEFT";"success";"458";"0";"2014-10-07 12:58:47.853";"2";;;;;;;;;;;;;;;;;;;;;;;;;;;;;;;;;
"purdie2468";"1994";;"Windows 7";"Rachel's Experiment (D.T.)";"1.0";"2";"1";"1";"2";"1";"1";"2014-10-07 12:52:40.005";"2014-10-07 13:05:45.919";"1";"1";"0";"107";"106";"module.training_block3.exec-8724.GoNoGo3";;;;;;;;;;;;;;;;;;;;;;;;;;;;;;;;;;;;;;;;;;;;;;;"1261";"2014-10-07 12:58:51.660";"NST_correctLoc";"10";"1";"FINISHED";"RIGHT";"success";"539";"0";"2014-10-07 12:58:50.396";"2";;;;;;;;;;;;;;;;;;;;;;;;;;;;;;;;;
"purdie2468";"1994";;"Windows 7";"Rachel's Experiment (D.T.)";"1.0";"2";"1";"1";"2";"1";"1";"2014-10-07 12:52:40.005";"2014-10-07 13:05:45.919";"1";"1";"0";"108";"107";"module.training_block3.exec-8724.GoNoGo3";;;;;;;;;;;;;;;;;;;;;;;;;;;;;;;;;;;;;;;;;;;;;;;"1261";"2014-10-07 12:58:54.203";"ST_correctStop";"34";"1";"FINISHED";"NONE";"success";"0";"1";"2014-10-07 12:58:52.939";"3";;;;;;;;;;;;;;;;;;;;;;;;;;;;;;;;;
"purdie2468";"1994";;"Windows 7";"Rachel's Experiment (D.T.)";"1.0";"2";"1";"1";"2";"1";"1";"2014-10-07 12:52:40.005";"2014-10-07 13:05:45.919";"1";"1";"0";"109";"108";"module.training_block3.exec-8724.GoNoGo3";;;;;;;;;;;;;;;;;;;;;;;;;;;;;;;;;;;;;;;;;;;;;;;"1261";"2014-10-07 12:58:56.745";"NST_correctLoc";"13";"1";"FINISHED";"RIGHT";"success";"501";"0";"2014-10-07 12:58:55.482";"2";;;;;;;;;;;;;;;;;;;;;;;;;;;;;;;;;
"purdie2468";"1994";;"Windows 7";"Rachel's Experiment (D.T.)";"1.0";"2";"1";"1";"2";"1";"1";"2014-10-07 12:52:40.005";"2014-10-07 13:05:45.919";"1";"1";"0";"110";"109";"module.training_block3.exec-8724.GoNoGo3";;;;;;;;;;;;;;;;;;;;;;;;;;;;;;;;;;;;;;;;;;;;;;;"1261";"2014-10-07 12:58:59.288";"NST_correctLoc";"12";"0";"FINISHED";"LEFT";"success";"543";"0";"2014-10-07 12:58:58.025";"2";;;;;;;;;;;;;;;;;;;;;;;;;;;;;;;;;
"purdie2468";"1994";;"Windows 7";"Rachel's Experiment (D.T.)";"1.0";"2";"1";"1";"2";"1";"1";"2014-10-07 12:52:40.005";"2014-10-07 13:05:45.919";"1";"1";"0";"111";"110";"module.training_block3.exec-8724.GoNoGo3";;;;;;;;;;;;;;;;;;;;;;;;;;;;;;;;;;;;;;;;;;;;;;;"1261";"2014-10-07 12:59:01.831";"ST_correctStop";"3";"0";"FINISHED";"NONE";"success";"0";"1";"2014-10-07 12:59:00.567";"1";;;;;;;;;;;;;;;;;;;;;;;;;;;;;;;;;
"purdie2468";"1994";;"Windows 7";"Rachel's Experiment (D.T.)";"1.0";"2";"1";"1";"2";"1";"1";"2014-10-07 12:52:40.005";"2014-10-07 13:05:45.919";"1";"1";"0";"112";"111";"module.training_block3.exec-8724.GoNoGo3";;;;;;;;;;;;;;;;;;;;;;;;;;;;;;;;;;;;;;;;;;;;;;;"1261";"2014-10-07 12:59:04.374";"NST_correctLoc";"22";"1";"FINISHED";"RIGHT";"success";"489";"0";"2014-10-07 12:59:03.110";"3";;;;;;;;;;;;;;;;;;;;;;;;;;;;;;;;;
"purdie2468";"1994";;"Windows 7";"Rachel's Experiment (D.T.)";"1.0";"2";"1";"1";"2";"1";"1";"2014-10-07 12:52:40.005";"2014-10-07 13:05:45.919";"1";"1";"0";"113";"112";"module.training_block3.exec-8724.GoNoGo3";;;;;;;;;;;;;;;;;;;;;;;;;;;;;;;;;;;;;;;;;;;;;;;"1261";"2014-10-07 12:59:06.917";"ST_correctStop";"33";"0";"FINISHED";"NONE";"success";"0";"1";"2014-10-07 12:59:05.653";"3";;;;;;;;;;;;;;;;;;;;;;;;;;;;;;;;;
"purdie2468";"1994";;"Windows 7";"Rachel's Experiment (D.T.)";"1.0";"2";"1";"1";"2";"1";"1";"2014-10-07 12:52:40.005";"2014-10-07 13:05:45.919";"1";"1";"0";"114";"113";"module.training_block3.exec-8724.GoNoGo3";;;;;;;;;;;;;;;;;;;;;;;;;;;;;;;;;;;;;;;;;;;;;;;"1261";"2014-10-07 12:59:09.460";"NST_correctLoc";"26";"1";"FINISHED";"RIGHT";"success";"427";"0";"2014-10-07 12:59:08.196";"3";;;;;;;;;;;;;;;;;;;;;;;;;;;;;;;;;
"purdie2468";"1994";;"Windows 7";"Rachel's Experiment (D.T.)";"1.0";"2";"1";"1";"2";"1";"1";"2014-10-07 12:52:40.005";"2014-10-07 13:05:45.919";"1";"1";"0";"115";"114";"module.training_block3.exec-8724.GoNoGo3";;;;;;;;;;;;;;;;;;;;;;;;;;;;;;;;;;;;;;;;;;;;;;;"1261";"2014-10-07 12:59:12.002";"ST_failedStop";"4";"1";"FINISHED";"RIGHT";"failure";"668";"1";"2014-10-07 12:59:10.739";"1";;;;;;;;;;;;;;;;;;;;;;;;;;;;;;;;;
"purdie2468";"1994";;"Windows 7";"Rachel's Experiment (D.T.)";"1.0";"2";"1";"1";"2";"1";"1";"2014-10-07 12:52:40.005";"2014-10-07 13:05:45.919";"1";"1";"0";"116";"115";"module.training_block3.exec-8724.GoNoGo3";;;;;;;;;;;;;;;;;;;;;;;;;;;;;;;;;;;;;;;;;;;;;;;"1261";"2014-10-07 12:59:14.545";"NST_correctLoc";"15";"0";"FINISHED";"LEFT";"success";"502";"0";"2014-10-07 12:59:13.282";"2";;;;;;;;;;;;;;;;;;;;;;;;;;;;;;;;;
"purdie2468";"1994";;"Windows 7";"Rachel's Experiment (D.T.)";"1.0";"2";"1";"1";"2";"1";"1";"2014-10-07 12:52:40.005";"2014-10-07 13:05:45.919";"1";"1";"0";"117";"116";"module.training_block3.exec-8724.GoNoGo3";;;;;;;;;;;;;;;;;;;;;;;;;;;;;;;;;;;;;;;;;;;;;;;"1261";"2014-10-07 12:59:17.088";"ST_correctStop";"35";"0";"FINISHED";"NONE";"success";"0";"1";"2014-10-07 12:59:15.824";"3";;;;;;;;;;;;;;;;;;;;;;;;;;;;;;;;;
"purdie2468";"1994";;"Windows 7";"Rachel's Experiment (D.T.)";"1.0";"2";"1";"1";"2";"1";"1";"2014-10-07 12:52:40.005";"2014-10-07 13:05:45.919";"1";"1";"0";"118";"117";"module.training_block3.exec-8724.GoNoGo3";;;;;;;;;;;;;;;;;;;;;;;;;;;;;;;;;;;;;;;;;;;;;;;"1261";"2014-10-07 12:59:19.631";"NST_correctLoc";"16";"1";"FINISHED";"RIGHT";"success";"512";"0";"2014-10-07 12:59:18.367";"2";;;;;;;;;;;;;;;;;;;;;;;;;;;;;;;;;
"purdie2468";"1994";;"Windows 7";"Rachel's Experiment (D.T.)";"1.0";"2";"1";"1";"2";"1";"1";"2014-10-07 12:52:40.005";"2014-10-07 13:05:45.919";"1";"1";"0";"119";"118";"module.training_block3.exec-8724.GoNoGo3";;;;;;;;;;;;;;;;;;;;;;;;;;;;;;;;;;;;;;;;;;;;;;;"1261";"2014-10-07 12:59:22.174";"NST_correctLoc";"11";"0";"FINISHED";"LEFT";"success";"537";"0";"2014-10-07 12:59:20.910";"2";;;;;;;;;;;;;;;;;;;;;;;;;;;;;;;;;
"purdie2468";"1994";;"Windows 7";"Rachel's Experiment (D.T.)";"1.0";"2";"1";"1";"2";"1";"1";"2014-10-07 12:52:40.005";"2014-10-07 13:05:45.919";"1";"1";"0";"120";"119";"module.training_block3.exec-8724.GoNoGo3";;;;;;;;;;;;;;;;;;;;;;;;;;;;;;;;;;;;;;;;;;;;;;;"1261";"2014-10-07 12:59:24.716";"NST_correctLoc";"28";"1";"FINISHED";"RIGHT";"success";"538";"0";"2014-10-07 12:59:23.453";"3";;;;;;;;;;;;;;;;;;;;;;;;;;;;;;;;;
"purdie2468";"1994";;"Windows 7";"Rachel's Experiment (D.T.)";"1.0";"2";"1";"1";"2";"1";"1";"2014-10-07 12:52:40.005";"2014-10-07 13:05:45.919";"1";"1";"0";"121";"120";"module.training_block3.exec-8724.GoNoGo3";;;;;;;;;;;;;;;;;;;;;;;;;;;;;;;;;;;;;;;;;;;;;;;"1261";"2014-10-07 12:59:27.259";"ST_correctStop";"7";"1";"FINISHED";"NONE";"success";"0";"1";"2014-10-07 12:59:25.996";"1";;;;;;;;;;;;;;;;;;;;;;;;;;;;;;;;;
"purdie2468";"1994";;"Windows 7";"Rachel's Experiment (D.T.)";"1.0";"2";"1";"1";"2";"1";"1";"2014-10-07 12:52:40.005";"2014-10-07 13:05:45.919";"1";"1";"0";"122";"121";"module.training_block3.exec-8724.GoNoGo3";;;;;;;;;;;;;;;;;;;;;;;;;;;;;;;;;;;;;;;;;;;;;;;"1261";"2014-10-07 12:59:29.802";"ST_correctStop";"1";"1";"FINISHED";"NONE";"success";"0";"1";"2014-10-07 12:59:28.538";"1";;;;;;;;;;;;;;;;;;;;;;;;;;;;;;;;;
"purdie2468";"1994";;"Windows 7";"Rachel's Experiment (D.T.)";"1.0";"2";"1";"1";"2";"1";"1";"2014-10-07 12:52:40.005";"2014-10-07 13:05:45.919";"1";"1";"0";"123";"122";"module.training_block3.exec-8724.GoNoGo3";;;;;;;;;;;;;;;;;;;;;;;;;;;;;;;;;;;;;;;;;;;;;;;"1261";"2014-10-07 12:59:32.345";"ST_correctStop";"19";"1";"FINISHED";"NONE";"success";"0";"1";"2014-10-07 12:59:31.081";"3";;;;;;;;;;;;;;;;;;;;;;;;;;;;;;;;;
"purdie2468";"1994";;"Windows 7";"Rachel's Experiment (D.T.)";"1.0";"2";"1";"1";"2";"1";"1";"2014-10-07 12:52:40.005";"2014-10-07 13:05:45.919";"1";"1";"0";"124";"123";"module.training_block4.exec-2641.GoNoGo4";;;;;;;;;;;;;;;;;;;;;;;;;;;;;;;;;;;;;;;;;;;;;;;;;;;;;;;;;;;"1261";"2014-10-07 12:59:43.327";"ST_correctStop";"19";"0";"FINISHED";"NONE";"success";"0";"1";"2014-10-07 12:59:42.064";"3";;;;;;;;;;;;;;;;;;;;;
"purdie2468";"1994";;"Windows 7";"Rachel's Experiment (D.T.)";"1.0";"2";"1";"1";"2";"1";"1";"2014-10-07 12:52:40.005";"2014-10-07 13:05:45.919";"1";"1";"0";"125";"124";"module.training_block4.exec-2641.GoNoGo4";;;;;;;;;;;;;;;;;;;;;;;;;;;;;;;;;;;;;;;;;;;;;;;;;;;;;;;;;;;"1261";"2014-10-07 12:59:45.870";"ST_correctStop";"6";"1";"FINISHED";"NONE";"success";"0";"1";"2014-10-07 12:59:44.606";"1";;;;;;;;;;;;;;;;;;;;;
"purdie2468";"1994";;"Windows 7";"Rachel's Experiment (D.T.)";"1.0";"2";"1";"1";"2";"1";"1";"2014-10-07 12:52:40.005";"2014-10-07 13:05:45.919";"1";"1";"0";"126";"125";"module.training_block4.exec-2641.GoNoGo4";;;;;;;;;;;;;;;;;;;;;;;;;;;;;;;;;;;;;;;;;;;;;;;;;;;;;;;;;;;"1261";"2014-10-07 12:59:48.413";"ST_correctStop";"4";"1";"FINISHED";"NONE";"success";"0";"1";"2014-10-07 12:59:47.149";"1";;;;;;;;;;;;;;;;;;;;;
"purdie2468";"1994";;"Windows 7";"Rachel's Experiment (D.T.)";"1.0";"2";"1";"1";"2";"1";"1";"2014-10-07 12:52:40.005";"2014-10-07 13:05:45.919";"1";"1";"0";"127";"126";"module.training_block4.exec-2641.GoNoGo4";;;;;;;;;;;;;;;;;;;;;;;;;;;;;;;;;;;;;;;;;;;;;;;;;;;;;;;;;;;"1261";"2014-10-07 12:59:50.956";"ST_correctStop";"2";"0";"FINISHED";"NONE";"success";"0";"1";"2014-10-07 12:59:49.692";"1";;;;;;;;;;;;;;;;;;;;;
"purdie2468";"1994";;"Windows 7";"Rachel's Experiment (D.T.)";"1.0";"2";"1";"1";"2";"1";"1";"2014-10-07 12:52:40.005";"2014-10-07 13:05:45.919";"1";"1";"0";"128";"127";"module.training_block4.exec-2641.GoNoGo4";;;;;;;;;;;;;;;;;;;;;;;;;;;;;;;;;;;;;;;;;;;;;;;;;;;;;;;;;;;"1261";"2014-10-07 12:59:53.498";"NST_correctLoc";"12";"1";"FINISHED";"RIGHT";"success";"732";"0";"2014-10-07 12:59:52.235";"2";;;;;;;;;;;;;;;;;;;;;
"purdie2468";"1994";;"Windows 7";"Rachel's Experiment (D.T.)";"1.0";"2";"1";"1";"2";"1";"1";"2014-10-07 12:52:40.005";"2014-10-07 13:05:45.919";"1";"1";"0";"129";"128";"module.training_block4.exec-2641.GoNoGo4";;;;;;;;;;;;;;;;;;;;;;;;;;;;;;;;;;;;;;;;;;;;;;;;;;;;;;;;;;;"1261";"2014-10-07 12:59:56.041";"NST_correctLoc";"27";"0";"FINISHED";"LEFT";"success";"717";"0";"2014-10-07 12:59:54.778";"3";;;;;;;;;;;;;;;;;;;;;
"purdie2468";"1994";;"Windows 7";"Rachel's Experiment (D.T.)";"1.0";"2";"1";"1";"2";"1";"1";"2014-10-07 12:52:40.005";"2014-10-07 13:05:45.919";"1";"1";"0";"130";"129";"module.training_block4.exec-2641.GoNoGo4";;;;;;;;;;;;;;;;;;;;;;;;;;;;;;;;;;;;;;;;;;;;;;;;;;;;;;;;;;;"1261";"2014-10-07 12:59:58.584";"NST_correctLoc";"25";"1";"FINISHED";"RIGHT";"success";"431";"0";"2014-10-07 12:59:57.320";"3";;;;;;;;;;;;;;;;;;;;;
"purdie2468";"1994";;"Windows 7";"Rachel's Experiment (D.T.)";"1.0";"2";"1";"1";"2";"1";"1";"2014-10-07 12:52:40.005";"2014-10-07 13:05:45.919";"1";"1";"0";"131";"130";"module.training_block4.exec-2641.GoNoGo4";;;;;;;;;;;;;;;;;;;;;;;;;;;;;;;;;;;;;;;;;;;;;;;;;;;;;;;;;;;"1261";"2014-10-07 13:00:01.127";"NST_correctLoc";"22";"0";"FINISHED";"LEFT";"success";"408";"0";"2014-10-07 12:59:59.863";"3";;;;;;;;;;;;;;;;;;;;;
"purdie2468";"1994";;"Windows 7";"Rachel's Experiment (D.T.)";"1.0";"2";"1";"1";"2";"1";"1";"2014-10-07 12:52:40.005";"2014-10-07 13:05:45.919";"1";"1";"0";"132";"131";"module.training_block4.exec-2641.GoNoGo4";;;;;;;;;;;;;;;;;;;;;;;;;;;;;;;;;;;;;;;;;;;;;;;;;;;;;;;;;;;"1261";"2014-10-07 13:00:03.670";"ST_failedStop";"24";"0";"FINISHED";"LEFT";"failure";"441";"1";"2014-10-07 13:00:02.406";"3";;;;;;;;;;;;;;;;;;;;;
"purdie2468";"1994";;"Windows 7";"Rachel's Experiment (D.T.)";"1.0";"2";"1";"1";"2";"1";"1";"2014-10-07 12:52:40.005";"2014-10-07 13:05:45.919";"1";"1";"0";"133";"132";"module.training_block4.exec-2641.GoNoGo4";;;;;;;;;;;;;;;;;;;;;;;;;;;;;;;;;;;;;;;;;;;;;;;;;;;;;;;;;;;"1261";"2014-10-07 13:00:06.212";"NST_correctLoc";"26";"1";"FINISHED";"RIGHT";"success";"682";"0";"2014-10-07 13:00:04.949";"3";;;;;;;;;;;;;;;;;;;;;
"purdie2468";"1994";;"Windows 7";"Rachel's Experiment (D.T.)";"1.0";"2";"1";"1";"2";"1";"1";"2014-10-07 12:52:40.005";"2014-10-07 13:05:45.919";"1";"1";"0";"134";"133";"module.training_block4.exec-2641.GoNoGo4";;;;;;;;;;;;;;;;;;;;;;;;;;;;;;;;;;;;;;;;;;;;;;;;;;;;;;;;;;;"1261";"2014-10-07 13:00:08.755";"NST_correctLoc";"33";"0";"FINISHED";"LEFT";"success";"555";"0";"2014-10-07 13:00:07.492";"3";;;;;;;;;;;;;;;;;;;;;
"purdie2468";"1994";;"Windows 7";"Rachel's Experiment (D.T.)";"1.0";"2";"1";"1";"2";"1";"1";"2014-10-07 12:52:40.005";"2014-10-07 13:05:45.919";"1";"1";"0";"135";"134";"module.training_block4.exec-2641.GoNoGo4";;;;;;;;;;;;;;;;;;;;;;;;;;;;;;;;;;;;;;;;;;;;;;;;;;;;;;;;;;;"1261";"2014-10-07 13:00:11.298";"ST_correctStop";"5";"1";"FINISHED";"NONE";"success";"0";"1";"2014-10-07 13:00:10.034";"1";;;;;;;;;;;;;;;;;;;;;
"purdie2468";"1994";;"Windows 7";"Rachel's Experiment (D.T.)";"1.0";"2";"1";"1";"2";"1";"1";"2014-10-07 12:52:40.005";"2014-10-07 13:05:45.919";"1";"1";"0";"136";"135";"module.training_block4.exec-2641.GoNoGo4";;;;;;;;;;;;;;;;;;;;;;;;;;;;;;;;;;;;;;;;;;;;;;;;;;;;;;;;;;;"1261";"2014-10-07 13:00:13.841";"ST_correctStop";"1";"1";"FINISHED";"NONE";"success";"0";"1";"2014-10-07 13:00:12.577";"1";;;;;;;;;;;;;;;;;;;;;
"purdie2468";"1994";;"Windows 7";"Rachel's Experiment (D.T.)";"1.0";"2";"1";"1";"2";"1";"1";"2014-10-07 12:52:40.005";"2014-10-07 13:05:45.919";"1";"1";"0";"137";"136";"module.training_block4.exec-2641.GoNoGo4";;;;;;;;;;;;;;;;;;;;;;;;;;;;;;;;;;;;;;;;;;;;;;;;;;;;;;;;;;;"1261";"2014-10-07 13:00:16.384";"NST_correctLoc";"14";"1";"FINISHED";"RIGHT";"success";"535";"0";"2014-10-07 13:00:15.120";"2";;;;;;;;;;;;;;;;;;;;;
"purdie2468";"1994";;"Windows 7";"Rachel's Experiment (D.T.)";"1.0";"2";"1";"1";"2";"1";"1";"2014-10-07 12:52:40.005";"2014-10-07 13:05:45.919";"1";"1";"0";"138";"137";"module.training_block4.exec-2641.GoNoGo4";;;;;;;;;;;;;;;;;;;;;;;;;;;;;;;;;;;;;;;;;;;;;;;;;;;;;;;;;;;"1261";"2014-10-07 13:00:18.926";"NST_correctLoc";"9";"1";"FINISHED";"RIGHT";"success";"496";"0";"2014-10-07 13:00:17.663";"2";;;;;;;;;;;;;;;;;;;;;
"purdie2468";"1994";;"Windows 7";"Rachel's Experiment (D.T.)";"1.0";"2";"1";"1";"2";"1";"1";"2014-10-07 12:52:40.005";"2014-10-07 13:05:45.919";"1";"1";"0";"139";"138";"module.training_block4.exec-2641.GoNoGo4";;;;;;;;;;;;;;;;;;;;;;;;;;;;;;;;;;;;;;;;;;;;;;;;;;;;;;;;;;;"1261";"2014-10-07 13:00:21.469";"ST_correctStop";"3";"1";"FINISHED";"NONE";"success";"0";"1";"2014-10-07 13:00:20.206";"1";;;;;;;;;;;;;;;;;;;;;
"purdie2468";"1994";;"Windows 7";"Rachel's Experiment (D.T.)";"1.0";"2";"1";"1";"2";"1";"1";"2014-10-07 12:52:40.005";"2014-10-07 13:05:45.919";"1";"1";"0";"140";"139";"module.training_block4.exec-2641.GoNoGo4";;;;;;;;;;;;;;;;;;;;;;;;;;;;;;;;;;;;;;;;;;;;;;;;;;;;;;;;;;;"1261";"2014-10-07 13:00:24.012";"NST_correctLoc";"11";"0";"FINISHED";"LEFT";"success";"506";"0";"2014-10-07 13:00:22.748";"2";;;;;;;;;;;;;;;;;;;;;
"purdie2468";"1994";;"Windows 7";"Rachel's Experiment (D.T.)";"1.0";"2";"1";"1";"2";"1";"1";"2014-10-07 12:52:40.005";"2014-10-07 13:05:45.919";"1";"1";"0";"141";"140";"module.training_block4.exec-2641.GoNoGo4";;;;;;;;;;;;;;;;;;;;;;;;;;;;;;;;;;;;;;;;;;;;;;;;;;;;;;;;;;;"1261";"2014-10-07 13:00:26.555";"ST_correctStop";"34";"1";"FINISHED";"NONE";"success";"0";"1";"2014-10-07 13:00:25.291";"3";;;;;;;;;;;;;;;;;;;;;
"purdie2468";"1994";;"Windows 7";"Rachel's Experiment (D.T.)";"1.0";"2";"1";"1";"2";"1";"1";"2014-10-07 12:52:40.005";"2014-10-07 13:05:45.919";"1";"1";"0";"142";"141";"module.training_block4.exec-2641.GoNoGo4";;;;;;;;;;;;;;;;;;;;;;;;;;;;;;;;;;;;;;;;;;;;;;;;;;;;;;;;;;;"1261";"2014-10-07 13:00:29.098";"NST_correctLoc";"17";"0";"FINISHED";"LEFT";"success";"389";"0";"2014-10-07 13:00:27.834";"2";;;;;;;;;;;;;;;;;;;;;
"purdie2468";"1994";;"Windows 7";"Rachel's Experiment (D.T.)";"1.0";"2";"1";"1";"2";"1";"1";"2014-10-07 12:52:40.005";"2014-10-07 13:05:45.919";"1";"1";"0";"143";"142";"module.training_block4.exec-2641.GoNoGo4";;;;;;;;;;;;;;;;;;;;;;;;;;;;;;;;;;;;;;;;;;;;;;;;;;;;;;;;;;;"1261";"2014-10-07 13:00:31.640";"NST_correctLoc";"21";"1";"FINISHED";"RIGHT";"success";"462";"0";"2014-10-07 13:00:30.377";"3";;;;;;;;;;;;;;;;;;;;;
"purdie2468";"1994";;"Windows 7";"Rachel's Experiment (D.T.)";"1.0";"2";"1";"1";"2";"1";"1";"2014-10-07 12:52:40.005";"2014-10-07 13:05:45.919";"1";"1";"0";"144";"143";"module.training_block4.exec-2641.GoNoGo4";;;;;;;;;;;;;;;;;;;;;;;;;;;;;;;;;;;;;;;;;;;;;;;;;;;;;;;;;;;"1261";"2014-10-07 13:00:34.183";"NST_correctLoc";"15";"0";"FINISHED";"LEFT";"success";"375";"0";"2014-10-07 13:00:32.920";"2";;;;;;;;;;;;;;;;;;;;;
"purdie2468";"1994";;"Windows 7";"Rachel's Experiment (D.T.)";"1.0";"2";"1";"1";"2";"1";"1";"2014-10-07 12:52:40.005";"2014-10-07 13:05:45.919";"1";"1";"0";"145";"144";"module.training_block4.exec-2641.GoNoGo4";;;;;;;;;;;;;;;;;;;;;;;;;;;;;;;;;;;;;;;;;;;;;;;;;;;;;;;;;;;"1261";"2014-10-07 13:00:36.726";"ST_correctStop";"28";"0";"FINISHED";"NONE";"success";"0";"1";"2014-10-07 13:00:35.462";"3";;;;;;;;;;;;;;;;;;;;;
"purdie2468";"1994";;"Windows 7";"Rachel's Experiment (D.T.)";"1.0";"2";"1";"1";"2";"1";"1";"2014-10-07 12:52:40.005";"2014-10-07 13:05:45.919";"1";"1";"0";"146";"145";"module.training_block4.exec-2641.GoNoGo4";;;;;;;;;;;;;;;;;;;;;;;;;;;;;;;;;;;;;;;;;;;;;;;;;;;;;;;;;;;"1261";"2014-10-07 13:00:39.269";"NST_correctLoc";"31";"1";"FINISHED";"RIGHT";"success";"401";"0";"2014-10-07 13:00:38.005";"3";;;;;;;;;;;;;;;;;;;;;
"purdie2468";"1994";;"Windows 7";"Rachel's Experiment (D.T.)";"1.0";"2";"1";"1";"2";"1";"1";"2014-10-07 12:52:40.005";"2014-10-07 13:05:45.919";"1";"1";"0";"147";"146";"module.training_block4.exec-2641.GoNoGo4";;;;;;;;;;;;;;;;;;;;;;;;;;;;;;;;;;;;;;;;;;;;;;;;;;;;;;;;;;;"1261";"2014-10-07 13:00:41.812";"NST_correctLoc";"16";"0";"FINISHED";"LEFT";"success";"523";"0";"2014-10-07 13:00:40.548";"2";;;;;;;;;;;;;;;;;;;;;
"purdie2468";"1994";;"Windows 7";"Rachel's Experiment (D.T.)";"1.0";"2";"1";"1";"2";"1";"1";"2014-10-07 12:52:40.005";"2014-10-07 13:05:45.919";"1";"1";"0";"148";"147";"module.training_block4.exec-2641.GoNoGo4";;;;;;;;;;;;;;;;;;;;;;;;;;;;;;;;;;;;;;;;;;;;;;;;;;;;;;;;;;;"1261";"2014-10-07 13:00:44.354";"NST_correctLoc";"10";"0";"FINISHED";"LEFT";"success";"452";"0";"2014-10-07 13:00:43.091";"2";;;;;;;;;;;;;;;;;;;;;
"purdie2468";"1994";;"Windows 7";"Rachel's Experiment (D.T.)";"1.0";"2";"1";"1";"2";"1";"1";"2014-10-07 12:52:40.005";"2014-10-07 13:05:45.919";"1";"1";"0";"149";"148";"module.training_block4.exec-2641.GoNoGo4";;;;;;;;;;;;;;;;;;;;;;;;;;;;;;;;;;;;;;;;;;;;;;;;;;;;;;;;;;;"1261";"2014-10-07 13:00:46.897";"ST_failedStop";"18";"1";"FINISHED";"RIGHT";"failure";"429";"1";"2014-10-07 13:00:45.634";"3";;;;;;;;;;;;;;;;;;;;;
"purdie2468";"1994";;"Windows 7";"Rachel's Experiment (D.T.)";"1.0";"2";"1";"1";"2";"1";"1";"2014-10-07 12:52:40.005";"2014-10-07 13:05:45.919";"1";"1";"0";"150";"149";"module.training_block4.exec-2641.GoNoGo4";;;;;;;;;;;;;;;;;;;;;;;;;;;;;;;;;;;;;;;;;;;;;;;;;;;;;;;;;;;"1261";"2014-10-07 13:00:49.440";"ST_correctStop";"0";"1";"FINISHED";"NONE";"success";"0";"1";"2014-10-07 13:00:48.176";"1";;;;;;;;;;;;;;;;;;;;;
"purdie2468";"1994";;"Windows 7";"Rachel's Experiment (D.T.)";"1.0";"2";"1";"1";"2";"1";"1";"2014-10-07 12:52:40.005";"2014-10-07 13:05:45.919";"1";"1";"0";"151";"150";"module.training_block4.exec-2641.GoNoGo4";;;;;;;;;;;;;;;;;;;;;;;;;;;;;;;;;;;;;;;;;;;;;;;;;;;;;;;;;;;"1261";"2014-10-07 13:00:51.983";"ST_correctStop";"29";"0";"FINISHED";"NONE";"success";"0";"1";"2014-10-07 13:00:50.719";"3";;;;;;;;;;;;;;;;;;;;;
"purdie2468";"1994";;"Windows 7";"Rachel's Experiment (D.T.)";"1.0";"2";"1";"1";"2";"1";"1";"2014-10-07 12:52:40.005";"2014-10-07 13:05:45.919";"1";"1";"0";"152";"151";"module.training_block4.exec-2641.GoNoGo4";;;;;;;;;;;;;;;;;;;;;;;;;;;;;;;;;;;;;;;;;;;;;;;;;;;;;;;;;;;"1261";"2014-10-07 13:00:54.526";"ST_correctStop";"23";"1";"FINISHED";"NONE";"success";"0";"1";"2014-10-07 13:00:53.262";"3";;;;;;;;;;;;;;;;;;;;;
"purdie2468";"1994";;"Windows 7";"Rachel's Experiment (D.T.)";"1.0";"2";"1";"1";"2";"1";"1";"2014-10-07 12:52:40.005";"2014-10-07 13:05:45.919";"1";"1";"0";"153";"152";"module.training_block4.exec-2641.GoNoGo4";;;;;;;;;;;;;;;;;;;;;;;;;;;;;;;;;;;;;;;;;;;;;;;;;;;;;;;;;;;"1262";"2014-10-07 13:00:57.053";"ST_correctStop";"8";"1";"FINISHED";"NONE";"success";"0";"1";"2014-10-07 13:00:55.789";"1";;;;;;;;;;;;;;;;;;;;;
"purdie2468";"1994";;"Windows 7";"Rachel's Experiment (D.T.)";"1.0";"2";"1";"1";"2";"1";"1";"2014-10-07 12:52:40.005";"2014-10-07 13:05:45.919";"1";"1";"0";"154";"153";"module.training_block4.exec-2641.GoNoGo4";;;;;;;;;;;;;;;;;;;;;;;;;;;;;;;;;;;;;;;;;;;;;;;;;;;;;;;;;;;"1261";"2014-10-07 13:00:59.596";"NST_correctLoc";"35";"1";"FINISHED";"RIGHT";"success";"954";"0";"2014-10-07 13:00:58.332";"3";;;;;;;;;;;;;;;;;;;;;
"purdie2468";"1994";;"Windows 7";"Rachel's Experiment (D.T.)";"1.0";"2";"1";"1";"2";"1";"1";"2014-10-07 12:52:40.005";"2014-10-07 13:05:45.919";"1";"1";"0";"155";"154";"module.training_block4.exec-2641.GoNoGo4";;;;;;;;;;;;;;;;;;;;;;;;;;;;;;;;;;;;;;;;;;;;;;;;;;;;;;;;;;;"1261";"2014-10-07 13:01:02.123";"NST_correctLoc";"20";"0";"FINISHED";"LEFT";"success";"491";"0";"2014-10-07 13:01:00.859";"3";;;;;;;;;;;;;;;;;;;;;
"purdie2468";"1994";;"Windows 7";"Rachel's Experiment (D.T.)";"1.0";"2";"1";"1";"2";"1";"1";"2014-10-07 12:52:40.005";"2014-10-07 13:05:45.919";"1";"1";"0";"156";"155";"module.training_block4.exec-2641.GoNoGo4";;;;;;;;;;;;;;;;;;;;;;;;;;;;;;;;;;;;;;;;;;;;;;;;;;;;;;;;;;;"1261";"2014-10-07 13:01:04.666";"ST_correctStop";"7";"0";"FINISHED";"NONE";"success";"0";"1";"2014-10-07 13:01:03.402";"1";;;;;;;;;;;;;;;;;;;;;
"purdie2468";"1994";;"Windows 7";"Rachel's Experiment (D.T.)";"1.0";"2";"1";"1";"2";"1";"1";"2014-10-07 12:52:40.005";"2014-10-07 13:05:45.919";"1";"1";"0";"157";"156";"module.training_block4.exec-2641.GoNoGo4";;;;;;;;;;;;;;;;;;;;;;;;;;;;;;;;;;;;;;;;;;;;;;;;;;;;;;;;;;;"1261";"2014-10-07 13:01:07.209";"ST_correctStop";"32";"1";"FINISHED";"NONE";"success";"0";"1";"2014-10-07 13:01:05.945";"3";;;;;;;;;;;;;;;;;;;;;
"purdie2468";"1994";;"Windows 7";"Rachel's Experiment (D.T.)";"1.0";"2";"1";"1";"2";"1";"1";"2014-10-07 12:52:40.005";"2014-10-07 13:05:45.919";"1";"1";"0";"158";"157";"module.training_block4.exec-2641.GoNoGo4";;;;;;;;;;;;;;;;;;;;;;;;;;;;;;;;;;;;;;;;;;;;;;;;;;;;;;;;;;;"1262";"2014-10-07 13:01:09.751";"ST_correctStop";"30";"0";"FINISHED";"NONE";"success";"0";"1";"2014-10-07 13:01:08.488";"3";;;;;;;;;;;;;;;;;;;;;
"purdie2468";"1994";;"Windows 7";"Rachel's Experiment (D.T.)";"1.0";"2";"1";"1";"2";"1";"1";"2014-10-07 12:52:40.005";"2014-10-07 13:05:45.919";"1";"1";"0";"159";"158";"module.training_block4.exec-2641.GoNoGo4";;;;;;;;;;;;;;;;;;;;;;;;;;;;;;;;;;;;;;;;;;;;;;;;;;;;;;;;;;;"1262";"2014-10-07 13:01:12.279";"NST_correctLoc";"13";"1";"FINISHED";"RIGHT";"success";"752";"0";"2014-10-07 13:01:11.015";"2";;;;;;;;;;;;;;;;;;;;;
"purdie2468";"1994";;"Windows 7";"Rachel's Experiment (D.T.)";"1.0";"2";"1";"1";"2";"1";"1";"2014-10-07 12:52:40.005";"2014-10-07 13:05:45.919";"1";"1";"0";"160";"159";"module.devaluation_practice.exec-1210.devalPractice";;;;;;;;;;;;"19490";"2014-10-07 13:01:58.158";"0";"4";"3";"4";"6915";"4991";"4528";"2014-10-07 13:01:38.658";;;;;;;;;;;;;;;;;;;;;;;;;;;;;;;;;;;;;;;;;;;;;;;;;;;;;;;;;;;;;;;;;;;;;;
"purdie2468";"1994";;"Windows 7";"Rachel's Experiment (D.T.)";"1.0";"2";"1";"1";"2";"1";"1";"2014-10-07 12:52:40.005";"2014-10-07 13:05:45.919";"1";"1";"0";"161";"160";"module.devaluation_practice.exec-1210.devalPractice";;;;;;;;;;;;"16018";"2014-10-07 13:02:14.195";"1";"6";"5";"7";"4930";"4635";"3424";"2014-10-07 13:01:58.174";;;;;;;;;;;;;;;;;;;;;;;;;;;;;;;;;;;;;;;;;;;;;;;;;;;;;;;;;;;;;;;;;;;;;;
"purdie2468";"1994";;"Windows 7";"Rachel's Experiment (D.T.)";"1.0";"2";"1";"1";"2";"1";"1";"2014-10-07 12:52:40.005";"2014-10-07 13:05:45.919";"1";"1";"0";"162";"161";"module.devaluation_practice.exec-1210.devalPractice";;;;;;;;;;;;"9687";"2014-10-07 13:02:23.898";"2";"5";"5";"7";"2230";"2241";"2182";"2014-10-07 13:02:14.211";;;;;;;;;;;;;;;;;;;;;;;;;;;;;;;;;;;;;;;;;;;;;;;;;;;;;;;;;;;;;;;;;;;;;;
"purdie2468";"1994";;"Windows 7";"Rachel's Experiment (D.T.)";"1.0";"2";"1";"1";"2";"1";"1";"2014-10-07 12:52:40.005";"2014-10-07 13:05:45.919";"1";"1";"0";"163";"162";"module.devaluation_practice.exec-1210.devalPractice";;;;;;;;;;;;"8730";"2014-10-07 13:02:32.650";"3";"6";"5";"8";"2943";"1087";"1673";"2014-10-07 13:02:23.929";;;;;;;;;;;;;;;;;;;;;;;;;;;;;;;;;;;;;;;;;;;;;;;;;;;;;;;;;;;;;;;;;;;;;;
"purdie2468";"1994";;"Windows 7";"Rachel's Experiment (D.T.)";"1.0";"2";"1";"1";"2";"1";"1";"2014-10-07 12:52:40.005";"2014-10-07 13:05:45.919";"1";"1";"0";"164";"163";"module.devaluation_block1.exec-3588.deval1";"13488";"2014-10-07 13:02:50.278";"19";"3";"4";"5";"4167";"2339";"3943";"2014-10-07 13:02:36.784";"3";;;;;;;;;;;;;;;;;;;;;;;;;;;;;;;;;;;;;;;;;;;;;;;;;;;;;;;;;;;;;;;;;;;;;;;;;;;;;;;;
"purdie2468";"1994";;"Windows 7";"Rachel's Experiment (D.T.)";"1.0";"2";"1";"1";"2";"1";"1";"2014-10-07 12:52:40.005";"2014-10-07 13:05:45.919";"1";"1";"0";"165";"164";"module.devaluation_block1.exec-3588.deval1";"8024";"2014-10-07 13:02:58.328";"0";"4";"2";"2";"1707";"1705";"1580";"2014-10-07 13:02:50.309";"1";;;;;;;;;;;;;;;;;;;;;;;;;;;;;;;;;;;;;;;;;;;;;;;;;;;;;;;;;;;;;;;;;;;;;;;;;;;;;;;;
"purdie2468";"1994";;"Windows 7";"Rachel's Experiment (D.T.)";"1.0";"2";"1";"1";"2";"1";"1";"2014-10-07 12:52:40.005";"2014-10-07 13:05:45.919";"1";"1";"0";"166";"165";"module.devaluation_block1.exec-3588.deval1";"7995";"2014-10-07 13:03:06.346";"24";"6";"4";"6";"2017";"1656";"1306";"2014-10-07 13:02:58.343";"3";;;;;;;;;;;;;;;;;;;;;;;;;;;;;;;;;;;;;;;;;;;;;;;;;;;;;;;;;;;;;;;;;;;;;;;;;;;;;;;;
"purdie2468";"1994";;"Windows 7";"Rachel's Experiment (D.T.)";"1.0";"2";"1";"1";"2";"1";"1";"2014-10-07 12:52:40.005";"2014-10-07 13:05:45.919";"1";"1";"0";"167";"166";"module.devaluation_block1.exec-3588.deval1";"8586";"2014-10-07 13:03:14.957";"18";"6";"4";"7";"2630";"1294";"1639";"2014-10-07 13:03:06.362";"3";;;;;;;;;;;;;;;;;;;;;;;;;;;;;;;;;;;;;;;;;;;;;;;;;;;;;;;;;;;;;;;;;;;;;;;;;;;;;;;;
"purdie2468";"1994";;"Windows 7";"Rachel's Experiment (D.T.)";"1.0";"2";"1";"1";"2";"1";"1";"2014-10-07 12:52:40.005";"2014-10-07 13:05:45.919";"1";"1";"0";"168";"167";"module.devaluation_block1.exec-3588.deval1";"7043";"2014-10-07 13:03:22.008";"10";"5";"6";"6";"555";"870";"2590";"2014-10-07 13:03:14.973";"2";;;;;;;;;;;;;;;;;;;;;;;;;;;;;;;;;;;;;;;;;;;;;;;;;;;;;;;;;;;;;;;;;;;;;;;;;;;;;;;;
"purdie2468";"1994";;"Windows 7";"Rachel's Experiment (D.T.)";"1.0";"2";"1";"1";"2";"1";"1";"2014-10-07 12:52:40.005";"2014-10-07 13:05:45.919";"1";"1";"0";"169";"168";"module.devaluation_block1.exec-3588.deval1";"6939";"2014-10-07 13:03:28.982";"4";"5";"5";"7";"1416";"779";"1706";"2014-10-07 13:03:22.040";"1";;;;;;;;;;;;;;;;;;;;;;;;;;;;;;;;;;;;;;;;;;;;;;;;;;;;;;;;;;;;;;;;;;;;;;;;;;;;;;;;
"purdie2468";"1994";;"Windows 7";"Rachel's Experiment (D.T.)";"1.0";"2";"1";"1";"2";"1";"1";"2014-10-07 12:52:40.005";"2014-10-07 13:05:45.919";"1";"1";"0";"170";"169";"module.devaluation_block1.exec-3588.deval1";"6720";"2014-10-07 13:03:35.721";"12";"8";"8";"7";"1539";"1096";"1071";"2014-10-07 13:03:28.997";"2";;;;;;;;;;;;;;;;;;;;;;;;;;;;;;;;;;;;;;;;;;;;;;;;;;;;;;;;;;;;;;;;;;;;;;;;;;;;;;;;
"purdie2468";"1994";;"Windows 7";"Rachel's Experiment (D.T.)";"1.0";"2";"1";"1";"2";"1";"1";"2014-10-07 12:52:40.005";"2014-10-07 13:05:45.919";"1";"1";"0";"171";"170";"module.devaluation_block1.exec-3588.deval1";"5612";"2014-10-07 13:03:41.352";"8";"5";"2";"3";"520";"1002";"1058";"2014-10-07 13:03:35.736";"1";;;;;;;;;;;;;;;;;;;;;;;;;;;;;;;;;;;;;;;;;;;;;;;;;;;;;;;;;;;;;;;;;;;;;;;;;;;;;;;;
"purdie2468";"1994";;"Windows 7";"Rachel's Experiment (D.T.)";"1.0";"2";"1";"1";"2";"1";"1";"2014-10-07 12:52:40.005";"2014-10-07 13:05:45.919";"1";"1";"0";"172";"171";"module.devaluation_block1.exec-3588.deval1";"6802";"2014-10-07 13:03:48.170";"25";"5";"3";"4";"704";"1539";"1535";"2014-10-07 13:03:41.368";"3";;;;;;;;;;;;;;;;;;;;;;;;;;;;;;;;;;;;;;;;;;;;;;;;;;;;;;;;;;;;;;;;;;;;;;;;;;;;;;;;
"purdie2468";"1994";;"Windows 7";"Rachel's Experiment (D.T.)";"1.0";"2";"1";"1";"2";"1";"1";"2014-10-07 12:52:40.005";"2014-10-07 13:05:45.919";"1";"1";"0";"173";"172";"module.devaluation_block1.exec-3588.deval1";"7689";"2014-10-07 13:03:55.892";"5";"5";"7";"7";"1783";"1295";"1586";"2014-10-07 13:03:48.201";"1";;;;;;;;;;;;;;;;;;;;;;;;;;;;;;;;;;;;;;;;;;;;;;;;;;;;;;;;;;;;;;;;;;;;;;;;;;;;;;;;
"purdie2468";"1994";;"Windows 7";"Rachel's Experiment (D.T.)";"1.0";"2";"1";"1";"2";"1";"1";"2014-10-07 12:52:40.005";"2014-10-07 13:05:45.919";"1";"1";"0";"174";"173";"module.devaluation_block1.exec-3588.deval1";"7659";"2014-10-07 13:04:03.567";"15";"4";"4";"3";"1908";"1425";"1299";"2014-10-07 13:03:55.907";"2";;;;;;;;;;;;;;;;;;;;;;;;;;;;;;;;;;;;;;;;;;;;;;;;;;;;;;;;;;;;;;;;;;;;;;;;;;;;;;;;
"purdie2468";"1994";;"Windows 7";"Rachel's Experiment (D.T.)";"1.0";"2";"1";"1";"2";"1";"1";"2014-10-07 12:52:40.005";"2014-10-07 13:05:45.919";"1";"1";"0";"175";"174";"module.devaluation_block1.exec-3588.deval1";"6930";"2014-10-07 13:04:10.524";"13";"6";"6";"7";"1697";"1357";"850";"2014-10-07 13:04:03.582";"2";;;;;;;;;;;;;;;;;;;;;;;;;;;;;;;;;;;;;;;;;;;;;;;;;;;;;;;;;;;;;;;;;;;;;;;;;;;;;;;;
"purdie2468";"1994";;"Windows 7";"Rachel's Experiment (D.T.)";"1.0";"2";"1";"1";"2";"1";"1";"2014-10-07 12:52:40.005";"2014-10-07 13:05:45.919";"1";"1";"0";"176";"175";"module.devaluation_block1.exec-3588.deval1";"6963";"2014-10-07 13:04:17.498";"2";"4";"2";"3";"2076";"1071";"782";"2014-10-07 13:04:10.540";"1";;;;;;;;;;;;;;;;;;;;;;;;;;;;;;;;;;;;;;;;;;;;;;;;;;;;;;;;;;;;;;;;;;;;;;;;;;;;;;;;
"purdie2468";"1994";;"Windows 7";"Rachel's Experiment (D.T.)";"1.0";"2";"1";"1";"2";"1";"1";"2014-10-07 12:52:40.005";"2014-10-07 13:05:45.919";"1";"1";"0";"177";"176";"module.devaluation_block1.exec-3588.deval1";"6827";"2014-10-07 13:04:24.346";"16";"6";"6";"7";"2183";"728";"749";"2014-10-07 13:04:17.529";"2";;;;;;;;;;;;;;;;;;;;;;;;;;;;;;;;;;;;;;;;;;;;;;;;;;;;;;;;;;;;;;;;;;;;;;;;;;;;;;;;
"purdie2468";"1994";;"Windows 7";"Rachel's Experiment (D.T.)";"1.0";"2";"1";"1";"2";"1";"1";"2014-10-07 12:52:40.005";"2014-10-07 13:05:45.919";"1";"1";"0";"178";"177";"module.devaluation_block1.exec-3588.deval1";"6475";"2014-10-07 13:04:30.851";"23";"4";"2";"3";"1424";"1077";"944";"2014-10-07 13:04:24.377";"3";;;;;;;;;;;;;;;;;;;;;;;;;;;;;;;;;;;;;;;;;;;;;;;;;;;;;;;;;;;;;;;;;;;;;;;;;;;;;;;;
"purdie2468";"1994";;"Windows 7";"Rachel's Experiment (D.T.)";"1.0";"2";"1";"1";"2";"1";"1";"2014-10-07 12:52:40.005";"2014-10-07 13:05:45.919";"1";"1";"0";"179";"178";"module.devaluation_block1.exec-3588.deval1";"6027";"2014-10-07 13:04:36.888";"11";"7";"5";"6";"901";"589";"1521";"2014-10-07 13:04:30.867";"2";;;;;;;;;;;;;;;;;;;;;;;;;;;;;;;;;;;;;;;;;;;;;;;;;;;;;;;;;;;;;;;;;;;;;;;;;;;;;;;;
"purdie2468";"1994";;"Windows 7";"Rachel's Experiment (D.T.)";"1.0";"2";"1";"1";"2";"1";"1";"2014-10-07 12:52:40.005";"2014-10-07 13:05:45.919";"1";"1";"0";"180";"179";"module.devaluation_block1.exec-3588.deval1";"5563";"2014-10-07 13:04:42.489";"7";"4";"4";"3";"856";"830";"843";"2014-10-07 13:04:36.920";"1";;;;;;;;;;;;;;;;;;;;;;;;;;;;;;;;;;;;;;;;;;;;;;;;;;;;;;;;;;;;;;;;;;;;;;;;;;;;;;;;
"purdie2468";"1994";;"Windows 7";"Rachel's Experiment (D.T.)";"1.0";"2";"1";"1";"2";"1";"1";"2014-10-07 12:52:40.005";"2014-10-07 13:05:45.919";"1";"1";"0";"181";"180";"module.devaluation_block1.exec-3588.deval1";"5979";"2014-10-07 13:04:48.495";"20";"4";"3";"3";"1223";"887";"844";"2014-10-07 13:04:42.505";"3";;;;;;;;;;;;;;;;;;;;;;;;;;;;;;;;;;;;;;;;;;;;;;;;;;;;;;;;;;;;;;;;;;;;;;;;;;;;;;;;
"purdie2468";"1994";;"Windows 7";"Rachel's Experiment (D.T.)";"1.0";"2";"1";"1";"2";"1";"1";"2014-10-07 12:52:40.005";"2014-10-07 13:05:45.919";"1";"1";"0";"182";"181";"module.devaluation_block1.exec-3588.deval1";"6386";"2014-10-07 13:04:54.891";"26";"7";"8";"7";"1553";"992";"822";"2014-10-07 13:04:48.511";"3";;;;;;;;;;;;;;;;;;;;;;;;;;;;;;;;;;;;;;;;;;;;;;;;;;;;;;;;;;;;;;;;;;;;;;;;;;;;;;;;
"purdie2468";"1994";;"Windows 7";"Rachel's Experiment (D.T.)";"1.0";"2";"1";"1";"2";"1";"1";"2014-10-07 12:52:40.005";"2014-10-07 13:05:45.919";"1";"1";"0";"183";"182";"module.devaluation_block1.exec-3588.deval1";"6668";"2014-10-07 13:05:01.583";"14";"7";"7";"6";"2029";"863";"735";"2014-10-07 13:04:54.922";"2";;;;;;;;;;;;;;;;;;;;;;;;;;;;;;;;;;;;;;;;;;;;;;;;;;;;;;;;;;;;;;;;;;;;;;;;;;;;;;;;
"purdie2468";"1994";;"Windows 7";"Rachel's Experiment (D.T.)";"1.0";"2";"1";"1";"2";"1";"1";"2014-10-07 12:52:40.005";"2014-10-07 13:05:45.919";"1";"1";"0";"184";"183";"module.devaluation_block1.exec-3588.deval1";"5843";"2014-10-07 13:05:07.449";"21";"3";"2";"3";"1040";"908";"880";"2014-10-07 13:05:01.599";"3";;;;;;;;;;;;;;;;;;;;;;;;;;;;;;;;;;;;;;;;;;;;;;;;;;;;;;;;;;;;;;;;;;;;;;;;;;;;;;;;
"purdie2468";"1994";;"Windows 7";"Rachel's Experiment (D.T.)";"1.0";"2";"1";"1";"2";"1";"1";"2014-10-07 12:52:40.005";"2014-10-07 13:05:45.919";"1";"1";"0";"185";"184";"module.devaluation_block1.exec-3588.deval1";"7051";"2014-10-07 13:05:14.516";"3";"6";"7";"7";"839";"2473";"714";"2014-10-07 13:05:07.465";"1";;;;;;;;;;;;;;;;;;;;;;;;;;;;;;;;;;;;;;;;;;;;;;;;;;;;;;;;;;;;;;;;;;;;;;;;;;;;;;;;
"purdie2468";"1994";;"Windows 7";"Rachel's Experiment (D.T.)";"1.0";"2";"1";"1";"2";"1";"1";"2014-10-07 12:52:40.005";"2014-10-07 13:05:45.919";"1";"1";"0";"186";"185";"module.devaluation_block1.exec-3588.deval1";"5819";"2014-10-07 13:05:20.366";"9";"4";"3";"4";"1164";"856";"791";"2014-10-07 13:05:14.531";"2";;;;;;;;;;;;;;;;;;;;;;;;;;;;;;;;;;;;;;;;;;;;;;;;;;;;;;;;;;;;;;;;;;;;;;;;;;;;;;;;
"purdie2468";"1994";;"Windows 7";"Rachel's Experiment (D.T.)";"1.0";"2";"1";"1";"2";"1";"1";"2014-10-07 12:52:40.005";"2014-10-07 13:05:45.919";"1";"1";"0";"187";"186";"module.devaluation_block1.exec-3588.deval1";"5530";"2014-10-07 13:05:25.904";"6";"4";"2";"3";"914";"667";"919";"2014-10-07 13:05:20.381";"1";;;;;;;;;;;;;;;;;;;;;;;;;;;;;;;;;;;;;;;;;;;;;;;;;;;;;;;;;;;;;;;;;;;;;;;;;;;;;;;;
"purdie2468";"1994";;"Windows 7";"Rachel's Experiment (D.T.)";"1.0";"2";"1";"1";"2";"1";"1";"2014-10-07 12:52:40.005";"2014-10-07 13:05:45.919";"1";"1";"0";"188";"187";"module.devaluation_block1.exec-3588.deval1";"5363";"2014-10-07 13:05:31.301";"1";"3";"2";"3";"625";"841";"862";"2014-10-07 13:05:25.935";"1";;;;;;;;;;;;;;;;;;;;;;;;;;;;;;;;;;;;;;;;;;;;;;;;;;;;;;;;;;;;;;;;;;;;;;;;;;;;;;;;
"purdie2468";"1994";;"Windows 7";"Rachel's Experiment (D.T.)";"1.0";"2";"1";"1";"2";"1";"1";"2014-10-07 12:52:40.005";"2014-10-07 13:05:45.919";"1";"1";"0";"189";"188";"module.devaluation_block1.exec-3588.deval1";"7003";"2014-10-07 13:05:38.321";"22";"6";"7";"6";"2194";"954";"832";"2014-10-07 13:05:31.317";"3";;;;;;;;;;;;;;;;;;;;;;;;;;;;;;;;;;;;;;;;;;;;;;;;;;;;;;;;;;;;;;;;;;;;;;;;;;;;;;;;
"purdie2468";"1994";;"Windows 7";"Rachel's Experiment (D.T.)";"1.0";"2";"1";"1";"2";"1";"1";"2014-10-07 12:52:40.005";"2014-10-07 13:05:45.919";"1";"1";"0";"190";"189";"module.devaluation_block1.exec-3588.deval1";"5355";"2014-10-07 13:05:43.688";"17";"4";"3";"3";"750";"808";"775";"2014-10-07 13:05:38.337";"2";;;;;;;;;;;;;;;;;;;;;;;;;;;;;;;;;;;;;;;;;;;;;;;;;;;;;;;;;;;;;;;;;;;;;;;;;;;;;;;;
