"user.name";"user.yearOfBirth";"user.sex";"user.osName";"module.name";"module.version";"module.online.subject.code";"module.online.study.id";"module.online.module.nr";"module.online.group.nr";"session.id";"session.index";"session.startTime";"session.endTime";"session.completed";"session.node-4934.DevalQorder";"session.node-8257.conditionType";"trial.id";"trial.index";"trial.name";"trial.deval1.durationTime";"trial.deval1.endTime";"trial.deval1.icon";"trial.deval1.Resp_Attractive";"trial.deval1.Resp_Eat";"trial.deval1.Resp_Taste";"trial.deval1.RT_Attractive";"trial.deval1.RT_Eat";"trial.deval1.RT_Taste";"trial.deval1.startTime";"trial.deval1.stimulus type";"trial.devalPractice.durationTime";"trial.devalPractice.endTime";"trial.devalPractice.icon";"trial.devalPractice.Resp_Attractive";"trial.devalPractice.Resp_Eat";"trial.devalPractice.Resp_Taste";"trial.devalPractice.RT_Attractive";"trial.devalPractice.RT_Eat";"trial.devalPractice.RT_Taste";"trial.devalPractice.startTime";"trial.devalPractice.stimulus type";"trial.GoNoGo1.durationTime";"trial.GoNoGo1.endTime";"trial.GoNoGo1.Error Type";"trial.GoNoGo1.icon";"trial.GoNoGo1.location";"trial.GoNoGo1.outcome";"trial.GoNoGo1.response";"trial.GoNoGo1.result";"trial.GoNoGo1.RT";"trial.GoNoGo1.signal";"trial.GoNoGo1.startTime";"trial.GoNoGo1.stimulus type";"trial.GoNoGo2.durationTime";"trial.GoNoGo2.endTime";"trial.GoNoGo2.Error Type";"trial.GoNoGo2.icon";"trial.GoNoGo2.location";"trial.GoNoGo2.outcome";"trial.GoNoGo2.response";"trial.GoNoGo2.result";"trial.GoNoGo2.RT";"trial.GoNoGo2.signal";"trial.GoNoGo2.startTime";"trial.GoNoGo2.stimulus type";"trial.GoNoGo3.durationTime";"trial.GoNoGo3.endTime";"trial.GoNoGo3.Error Type";"trial.GoNoGo3.icon";"trial.GoNoGo3.location";"trial.GoNoGo3.outcome";"trial.GoNoGo3.response";"trial.GoNoGo3.result";"trial.GoNoGo3.RT";"trial.GoNoGo3.signal";"trial.GoNoGo3.startTime";"trial.GoNoGo3.stimulus type";"trial.GoNoGo4.durationTime";"trial.GoNoGo4.endTime";"trial.GoNoGo4.Error Type";"trial.GoNoGo4.icon";"trial.GoNoGo4.location";"trial.GoNoGo4.outcome";"trial.GoNoGo4.response";"trial.GoNoGo4.result";"trial.GoNoGo4.RT";"trial.GoNoGo4.signal";"trial.GoNoGo4.startTime";"trial.GoNoGo4.stimulus type";"trial.GoNoGo_Practice.durationTime";"trial.GoNoGo_Practice.endTime";"trial.GoNoGo_Practice.icon";"trial.GoNoGo_Practice.location";"trial.GoNoGo_Practice.outcome";"trial.GoNoGo_Practice.response";"trial.GoNoGo_Practice.result";"trial.GoNoGo_Practice.RT";"trial.GoNoGo_Practice.signal";"trial.GoNoGo_Practice.startTime";"trial.GoNoGo_Practice.stimulus type";"trial.GoNoGo_Tutorial.durationTime";"trial.GoNoGo_Tutorial.endTime";"trial.GoNoGo_Tutorial.icon";"trial.GoNoGo_Tutorial.location";"trial.GoNoGo_Tutorial.outcome";"trial.GoNoGo_Tutorial.response";"trial.GoNoGo_Tutorial.result";"trial.GoNoGo_Tutorial.RT";"trial.GoNoGo_Tutorial.signal";"trial.GoNoGo_Tutorial.startTime"
"p1429";"1994";;"Windows 7";"Rachel's Experiment (D.T.)";"1.0";"2";"1";"1";"2";"1";"1";"2014-10-16 12:12:33.829";"2014-10-16 12:26:32.654";"1";"1";"1";"1";"0";"module.GoNoGotutorial.exec-6084.GoNoGo_Tutorial";;;;;;;;;;;;;;;;;;;;;;;;;;;;;;;;;;;;;;;;;;;;;;;;;;;;;;;;;;;;;;;;;;;;;;;;;;;;;;;;;;"3994";"2014-10-16 12:12:49.309";"leftResponse";"0";"FINISHED";"LEFT";"success";"1206";"0";"2014-10-16 12:12:45.309"
"p1429";"1994";;"Windows 7";"Rachel's Experiment (D.T.)";"1.0";"2";"1";"1";"2";"1";"1";"2014-10-16 12:12:33.829";"2014-10-16 12:26:32.654";"1";"1";"1";"2";"1";"module.GoNoGotutorial.exec-6084.GoNoGo_Tutorial";;;;;;;;;;;;;;;;;;;;;;;;;;;;;;;;;;;;;;;;;;;;;;;;;;;;;;;;;;;;;;;;;;;;;;;;;;;;;;;;;;"3993";"2014-10-16 12:12:54.589";"rightResponse";"1";"FINISHED";"RIGHT";"success";"894";"0";"2014-10-16 12:12:50.589"
"p1429";"1994";;"Windows 7";"Rachel's Experiment (D.T.)";"1.0";"2";"1";"1";"2";"1";"1";"2014-10-16 12:12:33.829";"2014-10-16 12:26:32.654";"1";"1";"1";"3";"2";"module.GoNoGotutorial.exec-6084.GoNoGo_Tutorial";;;;;;;;;;;;;;;;;;;;;;;;;;;;;;;;;;;;;;;;;;;;;;;;;;;;;;;;;;;;;;;;;;;;;;;;;;;;;;;;;;"4003";"2014-10-16 12:12:59.878";"signalResponse";"0";"FINISHED";"NONE";"success";"0";"1";"2014-10-16 12:12:55.869"
"p1429";"1994";;"Windows 7";"Rachel's Experiment (D.T.)";"1.0";"2";"1";"1";"2";"1";"1";"2014-10-16 12:12:33.829";"2014-10-16 12:26:32.654";"1";"1";"1";"4";"3";"module.GoNoGopractice.exec-7754.GoNoGo_Practice";;;;;;;;;;;;;;;;;;;;;;;;;;;;;;;;;;;;;;;;;;;;;;;;;;;;;;;;;;;;;;;;;;;;;;;"1942";"2014-10-16 12:13:06.838";"18";"0";"FINISHED";"LEFT";"success";"553";"0";"2014-10-16 12:13:04.888";"3";;;;;;;;;;
"p1429";"1994";;"Windows 7";"Rachel's Experiment (D.T.)";"1.0";"2";"1";"1";"2";"1";"1";"2014-10-16 12:12:33.829";"2014-10-16 12:26:32.654";"1";"1";"1";"5";"4";"module.GoNoGopractice.exec-7754.GoNoGo_Practice";;;;;;;;;;;;;;;;;;;;;;;;;;;;;;;;;;;;;;;;;;;;;;;;;;;;;;;;;;;;;;;;;;;;;;;"1943";"2014-10-16 12:13:10.068";"21";"1";"FINISHED";"RIGHT";"success";"388";"0";"2014-10-16 12:13:08.118";"3";;;;;;;;;;
"p1429";"1994";;"Windows 7";"Rachel's Experiment (D.T.)";"1.0";"2";"1";"1";"2";"1";"1";"2014-10-16 12:12:33.829";"2014-10-16 12:26:32.654";"1";"1";"1";"6";"5";"module.GoNoGopractice.exec-7754.GoNoGo_Practice";;;;;;;;;;;;;;;;;;;;;;;;;;;;;;;;;;;;;;;;;;;;;;;;;;;;;;;;;;;;;;;;;;;;;;;"1943";"2014-10-16 12:13:13.288";"14";"1";"FINISHED";"NONE";"success";"0";"1";"2014-10-16 12:13:11.338";"2";;;;;;;;;;
"p1429";"1994";;"Windows 7";"Rachel's Experiment (D.T.)";"1.0";"2";"1";"1";"2";"1";"1";"2014-10-16 12:12:33.829";"2014-10-16 12:26:32.654";"1";"1";"1";"7";"6";"module.GoNoGopractice.exec-7754.GoNoGo_Practice";;;;;;;;;;;;;;;;;;;;;;;;;;;;;;;;;;;;;;;;;;;;;;;;;;;;;;;;;;;;;;;;;;;;;;;"1943";"2014-10-16 12:13:16.518";"26";"0";"FINISHED";"LEFT";"success";"610";"0";"2014-10-16 12:13:14.568";"3";;;;;;;;;;
"p1429";"1994";;"Windows 7";"Rachel's Experiment (D.T.)";"1.0";"2";"1";"1";"2";"1";"1";"2014-10-16 12:12:33.829";"2014-10-16 12:26:32.654";"1";"1";"1";"8";"7";"module.GoNoGopractice.exec-7754.GoNoGo_Practice";;;;;;;;;;;;;;;;;;;;;;;;;;;;;;;;;;;;;;;;;;;;;;;;;;;;;;;;;;;;;;;;;;;;;;;"1943";"2014-10-16 12:13:19.738";"2";"0";"FINISHED";"LEFT";"success";"502";"0";"2014-10-16 12:13:17.788";"1";;;;;;;;;;
"p1429";"1994";;"Windows 7";"Rachel's Experiment (D.T.)";"1.0";"2";"1";"1";"2";"1";"1";"2014-10-16 12:12:33.829";"2014-10-16 12:26:32.654";"1";"1";"1";"9";"8";"module.GoNoGopractice.exec-7754.GoNoGo_Practice";;;;;;;;;;;;;;;;;;;;;;;;;;;;;;;;;;;;;;;;;;;;;;;;;;;;;;;;;;;;;;;;;;;;;;;"1944";"2014-10-16 12:13:22.958";"30";"0";"FINISHED";"NONE";"success";"0";"1";"2014-10-16 12:13:21.008";"3";;;;;;;;;;
"p1429";"1994";;"Windows 7";"Rachel's Experiment (D.T.)";"1.0";"2";"1";"1";"2";"1";"1";"2014-10-16 12:12:33.829";"2014-10-16 12:26:32.654";"1";"1";"1";"10";"9";"module.GoNoGopractice.exec-7754.GoNoGo_Practice";;;;;;;;;;;;;;;;;;;;;;;;;;;;;;;;;;;;;;;;;;;;;;;;;;;;;;;;;;;;;;;;;;;;;;;"1948";"2014-10-16 12:13:26.188";"6";"1";"FINISHED";"NONE";"success";"0";"1";"2014-10-16 12:13:24.238";"1";;;;;;;;;;
"p1429";"1994";;"Windows 7";"Rachel's Experiment (D.T.)";"1.0";"2";"1";"1";"2";"1";"1";"2014-10-16 12:12:33.829";"2014-10-16 12:26:32.654";"1";"1";"1";"11";"10";"module.GoNoGopractice.exec-7754.GoNoGo_Practice";;;;;;;;;;;;;;;;;;;;;;;;;;;;;;;;;;;;;;;;;;;;;;;;;;;;;;;;;;;;;;;;;;;;;;;"1944";"2014-10-16 12:13:29.408";"34";"0";"FINISHED";"LEFT";"success";"585";"0";"2014-10-16 12:13:27.458";"3";;;;;;;;;;
"p1429";"1994";;"Windows 7";"Rachel's Experiment (D.T.)";"1.0";"2";"1";"1";"2";"1";"1";"2014-10-16 12:12:33.829";"2014-10-16 12:26:32.654";"1";"1";"1";"12";"11";"module.GoNoGopractice.exec-7754.GoNoGo_Practice";;;;;;;;;;;;;;;;;;;;;;;;;;;;;;;;;;;;;;;;;;;;;;;;;;;;;;;;;;;;;;;;;;;;;;;"1953";"2014-10-16 12:13:32.637";"23";"1";"FINISHED";"RIGHT";"success";"564";"0";"2014-10-16 12:13:30.678";"3";;;;;;;;;;
"p1429";"1994";;"Windows 7";"Rachel's Experiment (D.T.)";"1.0";"2";"1";"1";"2";"1";"1";"2014-10-16 12:12:33.829";"2014-10-16 12:26:32.654";"1";"1";"1";"13";"12";"module.GoNoGopractice.exec-7754.GoNoGo_Practice";;;;;;;;;;;;;;;;;;;;;;;;;;;;;;;;;;;;;;;;;;;;;;;;;;;;;;;;;;;;;;;;;;;;;;;"1943";"2014-10-16 12:13:35.857";"13";"0";"FINISHED";"NONE";"success";"0";"1";"2014-10-16 12:13:33.907";"2";;;;;;;;;;
"p1429";"1994";;"Windows 7";"Rachel's Experiment (D.T.)";"1.0";"2";"1";"1";"2";"1";"1";"2014-10-16 12:12:33.829";"2014-10-16 12:26:32.654";"1";"1";"1";"14";"13";"module.GoNoGopractice.exec-7754.GoNoGo_Practice";;;;;;;;;;;;;;;;;;;;;;;;;;;;;;;;;;;;;;;;;;;;;;;;;;;;;;;;;;;;;;;;;;;;;;;"1943";"2014-10-16 12:13:39.077";"3";"1";"FINISHED";"RIGHT";"success";"658";"0";"2014-10-16 12:13:37.127";"1";;;;;;;;;;
"p1429";"1994";;"Windows 7";"Rachel's Experiment (D.T.)";"1.0";"2";"1";"1";"2";"1";"1";"2014-10-16 12:12:33.829";"2014-10-16 12:26:32.654";"1";"1";"1";"15";"14";"module.GoNoGopractice.exec-7754.GoNoGo_Practice";;;;;;;;;;;;;;;;;;;;;;;;;;;;;;;;;;;;;;;;;;;;;;;;;;;;;;;;;;;;;;;;;;;;;;;"1943";"2014-10-16 12:13:42.297";"27";"1";"FINISHED";"NONE";"success";"0";"1";"2014-10-16 12:13:40.347";"3";;;;;;;;;;
"p1429";"1994";;"Windows 7";"Rachel's Experiment (D.T.)";"1.0";"2";"1";"1";"2";"1";"1";"2014-10-16 12:12:33.829";"2014-10-16 12:26:32.654";"1";"1";"1";"16";"15";"module.training_block1.exec-4025.GoNoGo1";;;;;;;;;;;;;;;;;;;;;;;"1243";"2014-10-16 12:13:48.877";"ST_failedStop";"28";"0";"FINISHED";"LEFT";"failure";"413";"1";"2014-10-16 12:13:47.627";"3";;;;;;;;;;;;;;;;;;;;;;;;;;;;;;;;;;;;;;;;;;;;;;;;;;;;;;;;;
"p1429";"1994";;"Windows 7";"Rachel's Experiment (D.T.)";"1.0";"2";"1";"1";"2";"1";"1";"2014-10-16 12:12:33.829";"2014-10-16 12:26:32.654";"1";"1";"1";"17";"16";"module.training_block1.exec-4025.GoNoGo1";;;;;;;;;;;;;;;;;;;;;;;"1243";"2014-10-16 12:13:51.397";"NST_correctLoc";"17";"0";"FINISHED";"LEFT";"success";"526";"0";"2014-10-16 12:13:50.147";"2";;;;;;;;;;;;;;;;;;;;;;;;;;;;;;;;;;;;;;;;;;;;;;;;;;;;;;;;;
"p1429";"1994";;"Windows 7";"Rachel's Experiment (D.T.)";"1.0";"2";"1";"1";"2";"1";"1";"2014-10-16 12:12:33.829";"2014-10-16 12:26:32.654";"1";"1";"1";"18";"17";"module.training_block1.exec-4025.GoNoGo1";;;;;;;;;;;;;;;;;;;;;;;"1243";"2014-10-16 12:13:53.917";"ST_correctStop";"7";"1";"FINISHED";"NONE";"success";"0";"1";"2014-10-16 12:13:52.667";"1";;;;;;;;;;;;;;;;;;;;;;;;;;;;;;;;;;;;;;;;;;;;;;;;;;;;;;;;;
"p1429";"1994";;"Windows 7";"Rachel's Experiment (D.T.)";"1.0";"2";"1";"1";"2";"1";"1";"2014-10-16 12:12:33.829";"2014-10-16 12:26:32.654";"1";"1";"1";"19";"18";"module.training_block1.exec-4025.GoNoGo1";;;;;;;;;;;;;;;;;;;;;;;"1244";"2014-10-16 12:13:56.437";"NST_correctLoc";"9";"1";"FINISHED";"RIGHT";"success";"534";"0";"2014-10-16 12:13:55.187";"2";;;;;;;;;;;;;;;;;;;;;;;;;;;;;;;;;;;;;;;;;;;;;;;;;;;;;;;;;
"p1429";"1994";;"Windows 7";"Rachel's Experiment (D.T.)";"1.0";"2";"1";"1";"2";"1";"1";"2014-10-16 12:12:33.829";"2014-10-16 12:26:32.654";"1";"1";"1";"20";"19";"module.training_block1.exec-4025.GoNoGo1";;;;;;;;;;;;;;;;;;;;;;;"1244";"2014-10-16 12:13:58.957";"NST_correctLoc";"10";"1";"FINISHED";"RIGHT";"success";"478";"0";"2014-10-16 12:13:57.707";"2";;;;;;;;;;;;;;;;;;;;;;;;;;;;;;;;;;;;;;;;;;;;;;;;;;;;;;;;;
"p1429";"1994";;"Windows 7";"Rachel's Experiment (D.T.)";"1.0";"2";"1";"1";"2";"1";"1";"2014-10-16 12:12:33.829";"2014-10-16 12:26:32.654";"1";"1";"1";"21";"20";"module.training_block1.exec-4025.GoNoGo1";;;;;;;;;;;;;;;;;;;;;;;"1248";"2014-10-16 12:14:01.477";"NST_correctLoc";"18";"1";"FINISHED";"RIGHT";"success";"730";"0";"2014-10-16 12:14:00.227";"3";;;;;;;;;;;;;;;;;;;;;;;;;;;;;;;;;;;;;;;;;;;;;;;;;;;;;;;;;
"p1429";"1994";;"Windows 7";"Rachel's Experiment (D.T.)";"1.0";"2";"1";"1";"2";"1";"1";"2014-10-16 12:12:33.829";"2014-10-16 12:26:32.654";"1";"1";"1";"22";"21";"module.training_block1.exec-4025.GoNoGo1";;;;;;;;;;;;;;;;;;;;;;;"1243";"2014-10-16 12:14:03.997";"NST_correctLoc";"32";"1";"FINISHED";"RIGHT";"success";"573";"0";"2014-10-16 12:14:02.747";"3";;;;;;;;;;;;;;;;;;;;;;;;;;;;;;;;;;;;;;;;;;;;;;;;;;;;;;;;;
"p1429";"1994";;"Windows 7";"Rachel's Experiment (D.T.)";"1.0";"2";"1";"1";"2";"1";"1";"2014-10-16 12:12:33.829";"2014-10-16 12:26:32.654";"1";"1";"1";"23";"22";"module.training_block1.exec-4025.GoNoGo1";;;;;;;;;;;;;;;;;;;;;;;"1243";"2014-10-16 12:14:06.626";"NST_correctLoc";"16";"0";"FINISHED";"LEFT";"success";"415";"0";"2014-10-16 12:14:05.376";"2";;;;;;;;;;;;;;;;;;;;;;;;;;;;;;;;;;;;;;;;;;;;;;;;;;;;;;;;;
"p1429";"1994";;"Windows 7";"Rachel's Experiment (D.T.)";"1.0";"2";"1";"1";"2";"1";"1";"2014-10-16 12:12:33.829";"2014-10-16 12:26:32.654";"1";"1";"1";"24";"23";"module.training_block1.exec-4025.GoNoGo1";;;;;;;;;;;;;;;;;;;;;;;"1242";"2014-10-16 12:14:09.146";"ST_correctStop";"6";"0";"FINISHED";"NONE";"success";"0";"1";"2014-10-16 12:14:07.896";"1";;;;;;;;;;;;;;;;;;;;;;;;;;;;;;;;;;;;;;;;;;;;;;;;;;;;;;;;;
"p1429";"1994";;"Windows 7";"Rachel's Experiment (D.T.)";"1.0";"2";"1";"1";"2";"1";"1";"2014-10-16 12:12:33.829";"2014-10-16 12:26:32.654";"1";"1";"1";"25";"24";"module.training_block1.exec-4025.GoNoGo1";;;;;;;;;;;;;;;;;;;;;;;"1244";"2014-10-16 12:14:11.666";"NST_correctLoc";"19";"1";"FINISHED";"RIGHT";"success";"400";"0";"2014-10-16 12:14:10.416";"3";;;;;;;;;;;;;;;;;;;;;;;;;;;;;;;;;;;;;;;;;;;;;;;;;;;;;;;;;
"p1429";"1994";;"Windows 7";"Rachel's Experiment (D.T.)";"1.0";"2";"1";"1";"2";"1";"1";"2014-10-16 12:12:33.829";"2014-10-16 12:26:32.654";"1";"1";"1";"26";"25";"module.training_block1.exec-4025.GoNoGo1";;;;;;;;;;;;;;;;;;;;;;;"1244";"2014-10-16 12:14:14.186";"NST_correctLoc";"35";"1";"FINISHED";"RIGHT";"success";"504";"0";"2014-10-16 12:14:12.936";"3";;;;;;;;;;;;;;;;;;;;;;;;;;;;;;;;;;;;;;;;;;;;;;;;;;;;;;;;;
"p1429";"1994";;"Windows 7";"Rachel's Experiment (D.T.)";"1.0";"2";"1";"1";"2";"1";"1";"2014-10-16 12:12:33.829";"2014-10-16 12:26:32.654";"1";"1";"1";"27";"26";"module.training_block1.exec-4025.GoNoGo1";;;;;;;;;;;;;;;;;;;;;;;"1244";"2014-10-16 12:14:16.706";"NST_correctLoc";"25";"1";"FINISHED";"RIGHT";"success";"424";"0";"2014-10-16 12:14:15.456";"3";;;;;;;;;;;;;;;;;;;;;;;;;;;;;;;;;;;;;;;;;;;;;;;;;;;;;;;;;
"p1429";"1994";;"Windows 7";"Rachel's Experiment (D.T.)";"1.0";"2";"1";"1";"2";"1";"1";"2014-10-16 12:12:33.829";"2014-10-16 12:26:32.654";"1";"1";"1";"28";"27";"module.training_block1.exec-4025.GoNoGo1";;;;;;;;;;;;;;;;;;;;;;;"1244";"2014-10-16 12:14:19.226";"ST_correctStop";"1";"1";"FINISHED";"NONE";"success";"0";"1";"2014-10-16 12:14:17.976";"1";;;;;;;;;;;;;;;;;;;;;;;;;;;;;;;;;;;;;;;;;;;;;;;;;;;;;;;;;
"p1429";"1994";;"Windows 7";"Rachel's Experiment (D.T.)";"1.0";"2";"1";"1";"2";"1";"1";"2014-10-16 12:12:33.829";"2014-10-16 12:26:32.654";"1";"1";"1";"29";"28";"module.training_block1.exec-4025.GoNoGo1";;;;;;;;;;;;;;;;;;;;;;;"1244";"2014-10-16 12:14:21.746";"NST_correctLoc";"12";"1";"FINISHED";"RIGHT";"success";"448";"0";"2014-10-16 12:14:20.496";"2";;;;;;;;;;;;;;;;;;;;;;;;;;;;;;;;;;;;;;;;;;;;;;;;;;;;;;;;;
"p1429";"1994";;"Windows 7";"Rachel's Experiment (D.T.)";"1.0";"2";"1";"1";"2";"1";"1";"2014-10-16 12:12:33.829";"2014-10-16 12:26:32.654";"1";"1";"1";"30";"29";"module.training_block1.exec-4025.GoNoGo1";;;;;;;;;;;;;;;;;;;;;;;"1244";"2014-10-16 12:14:24.266";"ST_failedStop";"20";"1";"FINISHED";"RIGHT";"failure";"744";"1";"2014-10-16 12:14:23.016";"3";;;;;;;;;;;;;;;;;;;;;;;;;;;;;;;;;;;;;;;;;;;;;;;;;;;;;;;;;
"p1429";"1994";;"Windows 7";"Rachel's Experiment (D.T.)";"1.0";"2";"1";"1";"2";"1";"1";"2014-10-16 12:12:33.829";"2014-10-16 12:26:32.654";"1";"1";"1";"31";"30";"module.training_block1.exec-4025.GoNoGo1";;;;;;;;;;;;;;;;;;;;;;;"1244";"2014-10-16 12:14:26.786";"ST_correctStop";"34";"0";"FINISHED";"NONE";"success";"0";"1";"2014-10-16 12:14:25.536";"3";;;;;;;;;;;;;;;;;;;;;;;;;;;;;;;;;;;;;;;;;;;;;;;;;;;;;;;;;
"p1429";"1994";;"Windows 7";"Rachel's Experiment (D.T.)";"1.0";"2";"1";"1";"2";"1";"1";"2014-10-16 12:12:33.829";"2014-10-16 12:26:32.654";"1";"1";"1";"32";"31";"module.training_block1.exec-4025.GoNoGo1";;;;;;;;;;;;;;;;;;;;;;;"1244";"2014-10-16 12:14:29.306";"ST_correctStop";"24";"0";"FINISHED";"NONE";"success";"0";"1";"2014-10-16 12:14:28.056";"3";;;;;;;;;;;;;;;;;;;;;;;;;;;;;;;;;;;;;;;;;;;;;;;;;;;;;;;;;
"p1429";"1994";;"Windows 7";"Rachel's Experiment (D.T.)";"1.0";"2";"1";"1";"2";"1";"1";"2014-10-16 12:12:33.829";"2014-10-16 12:26:32.654";"1";"1";"1";"33";"32";"module.training_block1.exec-4025.GoNoGo1";;;;;;;;;;;;;;;;;;;;;;;"1243";"2014-10-16 12:14:31.826";"ST_correctStop";"0";"0";"FINISHED";"NONE";"success";"0";"1";"2014-10-16 12:14:30.576";"1";;;;;;;;;;;;;;;;;;;;;;;;;;;;;;;;;;;;;;;;;;;;;;;;;;;;;;;;;
"p1429";"1994";;"Windows 7";"Rachel's Experiment (D.T.)";"1.0";"2";"1";"1";"2";"1";"1";"2014-10-16 12:12:33.829";"2014-10-16 12:26:32.654";"1";"1";"1";"34";"33";"module.training_block1.exec-4025.GoNoGo1";;;;;;;;;;;;;;;;;;;;;;;"1243";"2014-10-16 12:14:34.346";"NST_correctLoc";"14";"0";"FINISHED";"LEFT";"success";"488";"0";"2014-10-16 12:14:33.096";"2";;;;;;;;;;;;;;;;;;;;;;;;;;;;;;;;;;;;;;;;;;;;;;;;;;;;;;;;;
"p1429";"1994";;"Windows 7";"Rachel's Experiment (D.T.)";"1.0";"2";"1";"1";"2";"1";"1";"2014-10-16 12:12:33.829";"2014-10-16 12:26:32.654";"1";"1";"1";"35";"34";"module.training_block1.exec-4025.GoNoGo1";;;;;;;;;;;;;;;;;;;;;;;"1243";"2014-10-16 12:14:36.866";"NST_correctLoc";"21";"0";"FINISHED";"LEFT";"success";"575";"0";"2014-10-16 12:14:35.616";"3";;;;;;;;;;;;;;;;;;;;;;;;;;;;;;;;;;;;;;;;;;;;;;;;;;;;;;;;;
"p1429";"1994";;"Windows 7";"Rachel's Experiment (D.T.)";"1.0";"2";"1";"1";"2";"1";"1";"2014-10-16 12:12:33.829";"2014-10-16 12:26:32.654";"1";"1";"1";"36";"35";"module.training_block1.exec-4025.GoNoGo1";;;;;;;;;;;;;;;;;;;;;;;"1243";"2014-10-16 12:14:39.395";"ST_correctStop";"30";"0";"FINISHED";"NONE";"success";"0";"1";"2014-10-16 12:14:38.145";"3";;;;;;;;;;;;;;;;;;;;;;;;;;;;;;;;;;;;;;;;;;;;;;;;;;;;;;;;;
"p1429";"1994";;"Windows 7";"Rachel's Experiment (D.T.)";"1.0";"2";"1";"1";"2";"1";"1";"2014-10-16 12:12:33.829";"2014-10-16 12:26:32.654";"1";"1";"1";"37";"36";"module.training_block1.exec-4025.GoNoGo1";;;;;;;;;;;;;;;;;;;;;;;"1243";"2014-10-16 12:14:41.915";"ST_correctStop";"4";"0";"FINISHED";"NONE";"success";"0";"1";"2014-10-16 12:14:40.665";"1";;;;;;;;;;;;;;;;;;;;;;;;;;;;;;;;;;;;;;;;;;;;;;;;;;;;;;;;;
"p1429";"1994";;"Windows 7";"Rachel's Experiment (D.T.)";"1.0";"2";"1";"1";"2";"1";"1";"2014-10-16 12:12:33.829";"2014-10-16 12:26:32.654";"1";"1";"1";"38";"37";"module.training_block1.exec-4025.GoNoGo1";;;;;;;;;;;;;;;;;;;;;;;"1243";"2014-10-16 12:14:44.435";"ST_correctStop";"8";"1";"FINISHED";"NONE";"success";"0";"1";"2014-10-16 12:14:43.185";"1";;;;;;;;;;;;;;;;;;;;;;;;;;;;;;;;;;;;;;;;;;;;;;;;;;;;;;;;;
"p1429";"1994";;"Windows 7";"Rachel's Experiment (D.T.)";"1.0";"2";"1";"1";"2";"1";"1";"2014-10-16 12:12:33.829";"2014-10-16 12:26:32.654";"1";"1";"1";"39";"38";"module.training_block1.exec-4025.GoNoGo1";;;;;;;;;;;;;;;;;;;;;;;"1243";"2014-10-16 12:14:46.955";"NST_correctLoc";"13";"1";"FINISHED";"RIGHT";"success";"557";"0";"2014-10-16 12:14:45.705";"2";;;;;;;;;;;;;;;;;;;;;;;;;;;;;;;;;;;;;;;;;;;;;;;;;;;;;;;;;
"p1429";"1994";;"Windows 7";"Rachel's Experiment (D.T.)";"1.0";"2";"1";"1";"2";"1";"1";"2014-10-16 12:12:33.829";"2014-10-16 12:26:32.654";"1";"1";"1";"40";"39";"module.training_block1.exec-4025.GoNoGo1";;;;;;;;;;;;;;;;;;;;;;;"1243";"2014-10-16 12:14:49.475";"NST_correctLoc";"26";"1";"FINISHED";"RIGHT";"success";"573";"0";"2014-10-16 12:14:48.225";"3";;;;;;;;;;;;;;;;;;;;;;;;;;;;;;;;;;;;;;;;;;;;;;;;;;;;;;;;;
"p1429";"1994";;"Windows 7";"Rachel's Experiment (D.T.)";"1.0";"2";"1";"1";"2";"1";"1";"2014-10-16 12:12:33.829";"2014-10-16 12:26:32.654";"1";"1";"1";"41";"40";"module.training_block1.exec-4025.GoNoGo1";;;;;;;;;;;;;;;;;;;;;;;"1243";"2014-10-16 12:14:51.995";"NST_correctLoc";"31";"1";"FINISHED";"RIGHT";"success";"549";"0";"2014-10-16 12:14:50.745";"3";;;;;;;;;;;;;;;;;;;;;;;;;;;;;;;;;;;;;;;;;;;;;;;;;;;;;;;;;
"p1429";"1994";;"Windows 7";"Rachel's Experiment (D.T.)";"1.0";"2";"1";"1";"2";"1";"1";"2014-10-16 12:12:33.829";"2014-10-16 12:26:32.654";"1";"1";"1";"42";"41";"module.training_block1.exec-4025.GoNoGo1";;;;;;;;;;;;;;;;;;;;;;;"1243";"2014-10-16 12:14:54.515";"NST_correctLoc";"15";"1";"FINISHED";"RIGHT";"success";"613";"0";"2014-10-16 12:14:53.265";"2";;;;;;;;;;;;;;;;;;;;;;;;;;;;;;;;;;;;;;;;;;;;;;;;;;;;;;;;;
"p1429";"1994";;"Windows 7";"Rachel's Experiment (D.T.)";"1.0";"2";"1";"1";"2";"1";"1";"2014-10-16 12:12:33.829";"2014-10-16 12:26:32.654";"1";"1";"1";"43";"42";"module.training_block1.exec-4025.GoNoGo1";;;;;;;;;;;;;;;;;;;;;;;"1243";"2014-10-16 12:14:57.025";"ST_correctStop";"2";"0";"FINISHED";"NONE";"success";"0";"1";"2014-10-16 12:14:55.775";"1";;;;;;;;;;;;;;;;;;;;;;;;;;;;;;;;;;;;;;;;;;;;;;;;;;;;;;;;;
"p1429";"1994";;"Windows 7";"Rachel's Experiment (D.T.)";"1.0";"2";"1";"1";"2";"1";"1";"2014-10-16 12:12:33.829";"2014-10-16 12:26:32.654";"1";"1";"1";"44";"43";"module.training_block1.exec-4025.GoNoGo1";;;;;;;;;;;;;;;;;;;;;;;"1246";"2014-10-16 12:14:59.545";"NST_correctLoc";"29";"1";"FINISHED";"RIGHT";"success";"490";"0";"2014-10-16 12:14:58.295";"3";;;;;;;;;;;;;;;;;;;;;;;;;;;;;;;;;;;;;;;;;;;;;;;;;;;;;;;;;
"p1429";"1994";;"Windows 7";"Rachel's Experiment (D.T.)";"1.0";"2";"1";"1";"2";"1";"1";"2014-10-16 12:12:33.829";"2014-10-16 12:26:32.654";"1";"1";"1";"45";"44";"module.training_block1.exec-4025.GoNoGo1";;;;;;;;;;;;;;;;;;;;;;;"1244";"2014-10-16 12:15:02.065";"ST_correctStop";"22";"0";"FINISHED";"NONE";"success";"0";"1";"2014-10-16 12:15:00.815";"3";;;;;;;;;;;;;;;;;;;;;;;;;;;;;;;;;;;;;;;;;;;;;;;;;;;;;;;;;
"p1429";"1994";;"Windows 7";"Rachel's Experiment (D.T.)";"1.0";"2";"1";"1";"2";"1";"1";"2014-10-16 12:12:33.829";"2014-10-16 12:26:32.654";"1";"1";"1";"46";"45";"module.training_block1.exec-4025.GoNoGo1";;;;;;;;;;;;;;;;;;;;;;;"1244";"2014-10-16 12:15:04.585";"ST_correctStop";"3";"1";"FINISHED";"NONE";"success";"0";"1";"2014-10-16 12:15:03.335";"1";;;;;;;;;;;;;;;;;;;;;;;;;;;;;;;;;;;;;;;;;;;;;;;;;;;;;;;;;
"p1429";"1994";;"Windows 7";"Rachel's Experiment (D.T.)";"1.0";"2";"1";"1";"2";"1";"1";"2014-10-16 12:12:33.829";"2014-10-16 12:26:32.654";"1";"1";"1";"47";"46";"module.training_block1.exec-4025.GoNoGo1";;;;;;;;;;;;;;;;;;;;;;;"1244";"2014-10-16 12:15:07.105";"ST_correctStop";"33";"1";"FINISHED";"NONE";"success";"0";"1";"2014-10-16 12:15:05.855";"3";;;;;;;;;;;;;;;;;;;;;;;;;;;;;;;;;;;;;;;;;;;;;;;;;;;;;;;;;
"p1429";"1994";;"Windows 7";"Rachel's Experiment (D.T.)";"1.0";"2";"1";"1";"2";"1";"1";"2014-10-16 12:12:33.829";"2014-10-16 12:26:32.654";"1";"1";"1";"48";"47";"module.training_block1.exec-4025.GoNoGo1";;;;;;;;;;;;;;;;;;;;;;;"1243";"2014-10-16 12:15:09.625";"ST_correctStop";"27";"0";"FINISHED";"NONE";"success";"0";"1";"2014-10-16 12:15:08.375";"3";;;;;;;;;;;;;;;;;;;;;;;;;;;;;;;;;;;;;;;;;;;;;;;;;;;;;;;;;
"p1429";"1994";;"Windows 7";"Rachel's Experiment (D.T.)";"1.0";"2";"1";"1";"2";"1";"1";"2014-10-16 12:12:33.829";"2014-10-16 12:26:32.654";"1";"1";"1";"49";"48";"module.training_block1.exec-4025.GoNoGo1";;;;;;;;;;;;;;;;;;;;;;;"1253";"2014-10-16 12:15:12.154";"NST_correctLoc";"11";"0";"FINISHED";"LEFT";"success";"559";"0";"2014-10-16 12:15:10.895";"2";;;;;;;;;;;;;;;;;;;;;;;;;;;;;;;;;;;;;;;;;;;;;;;;;;;;;;;;;
"p1429";"1994";;"Windows 7";"Rachel's Experiment (D.T.)";"1.0";"2";"1";"1";"2";"1";"1";"2014-10-16 12:12:33.829";"2014-10-16 12:26:32.654";"1";"1";"1";"50";"49";"module.training_block1.exec-4025.GoNoGo1";;;;;;;;;;;;;;;;;;;;;;;"1244";"2014-10-16 12:15:14.674";"ST_correctStop";"5";"1";"FINISHED";"NONE";"success";"0";"1";"2014-10-16 12:15:13.424";"1";;;;;;;;;;;;;;;;;;;;;;;;;;;;;;;;;;;;;;;;;;;;;;;;;;;;;;;;;
"p1429";"1994";;"Windows 7";"Rachel's Experiment (D.T.)";"1.0";"2";"1";"1";"2";"1";"1";"2014-10-16 12:12:33.829";"2014-10-16 12:26:32.654";"1";"1";"1";"51";"50";"module.training_block1.exec-4025.GoNoGo1";;;;;;;;;;;;;;;;;;;;;;;"1243";"2014-10-16 12:15:17.194";"ST_correctStop";"23";"1";"FINISHED";"NONE";"success";"0";"1";"2014-10-16 12:15:15.944";"3";;;;;;;;;;;;;;;;;;;;;;;;;;;;;;;;;;;;;;;;;;;;;;;;;;;;;;;;;
"p1429";"1994";;"Windows 7";"Rachel's Experiment (D.T.)";"1.0";"2";"1";"1";"2";"1";"1";"2014-10-16 12:12:33.829";"2014-10-16 12:26:32.654";"1";"1";"1";"52";"51";"module.training_block2.exec-4347.GoNoGo2";;;;;;;;;;;;;;;;;;;;;;;;;;;;;;;;;;;"1243";"2014-10-16 12:15:28.054";"ST_correctStop";"7";"0";"FINISHED";"NONE";"success";"0";"1";"2014-10-16 12:15:26.804";"1";;;;;;;;;;;;;;;;;;;;;;;;;;;;;;;;;;;;;;;;;;;;;
"p1429";"1994";;"Windows 7";"Rachel's Experiment (D.T.)";"1.0";"2";"1";"1";"2";"1";"1";"2014-10-16 12:12:33.829";"2014-10-16 12:26:32.654";"1";"1";"1";"53";"52";"module.training_block2.exec-4347.GoNoGo2";;;;;;;;;;;;;;;;;;;;;;;;;;;;;;;;;;;"1248";"2014-10-16 12:15:30.574";"NST_correctLoc";"16";"0";"FINISHED";"LEFT";"success";"797";"0";"2014-10-16 12:15:29.324";"2";;;;;;;;;;;;;;;;;;;;;;;;;;;;;;;;;;;;;;;;;;;;;
"p1429";"1994";;"Windows 7";"Rachel's Experiment (D.T.)";"1.0";"2";"1";"1";"2";"1";"1";"2014-10-16 12:12:33.829";"2014-10-16 12:26:32.654";"1";"1";"1";"54";"53";"module.training_block2.exec-4347.GoNoGo2";;;;;;;;;;;;;;;;;;;;;;;;;;;;;;;;;;;"1247";"2014-10-16 12:15:33.094";"ST_correctStop";"25";"1";"FINISHED";"NONE";"success";"0";"1";"2014-10-16 12:15:31.844";"3";;;;;;;;;;;;;;;;;;;;;;;;;;;;;;;;;;;;;;;;;;;;;
"p1429";"1994";;"Windows 7";"Rachel's Experiment (D.T.)";"1.0";"2";"1";"1";"2";"1";"1";"2014-10-16 12:12:33.829";"2014-10-16 12:26:32.654";"1";"1";"1";"55";"54";"module.training_block2.exec-4347.GoNoGo2";;;;;;;;;;;;;;;;;;;;;;;;;;;;;;;;;;;"1248";"2014-10-16 12:15:35.614";"NST_correctLoc";"31";"0";"FINISHED";"LEFT";"success";"557";"0";"2014-10-16 12:15:34.364";"3";;;;;;;;;;;;;;;;;;;;;;;;;;;;;;;;;;;;;;;;;;;;;
"p1429";"1994";;"Windows 7";"Rachel's Experiment (D.T.)";"1.0";"2";"1";"1";"2";"1";"1";"2014-10-16 12:12:33.829";"2014-10-16 12:26:32.654";"1";"1";"1";"56";"55";"module.training_block2.exec-4347.GoNoGo2";;;;;;;;;;;;;;;;;;;;;;;;;;;;;;;;;;;"1247";"2014-10-16 12:15:38.134";"ST_correctStop";"27";"0";"FINISHED";"NONE";"success";"0";"1";"2014-10-16 12:15:36.884";"3";;;;;;;;;;;;;;;;;;;;;;;;;;;;;;;;;;;;;;;;;;;;;
"p1429";"1994";;"Windows 7";"Rachel's Experiment (D.T.)";"1.0";"2";"1";"1";"2";"1";"1";"2014-10-16 12:12:33.829";"2014-10-16 12:26:32.654";"1";"1";"1";"57";"56";"module.training_block2.exec-4347.GoNoGo2";;;;;;;;;;;;;;;;;;;;;;;;;;;;;;;;;;;"1243";"2014-10-16 12:15:40.654";"ST_correctStop";"28";"1";"FINISHED";"NONE";"success";"0";"1";"2014-10-16 12:15:39.404";"3";;;;;;;;;;;;;;;;;;;;;;;;;;;;;;;;;;;;;;;;;;;;;
"p1429";"1994";;"Windows 7";"Rachel's Experiment (D.T.)";"1.0";"2";"1";"1";"2";"1";"1";"2014-10-16 12:12:33.829";"2014-10-16 12:26:32.654";"1";"1";"1";"58";"57";"module.training_block2.exec-4347.GoNoGo2";;;;;;;;;;;;;;;;;;;;;;;;;;;;;;;;;;;"1247";"2014-10-16 12:15:43.174";"ST_correctStop";"24";"0";"FINISHED";"NONE";"success";"0";"1";"2014-10-16 12:15:41.924";"3";;;;;;;;;;;;;;;;;;;;;;;;;;;;;;;;;;;;;;;;;;;;;
"p1429";"1994";;"Windows 7";"Rachel's Experiment (D.T.)";"1.0";"2";"1";"1";"2";"1";"1";"2014-10-16 12:12:33.829";"2014-10-16 12:26:32.654";"1";"1";"1";"59";"58";"module.training_block2.exec-4347.GoNoGo2";;;;;;;;;;;;;;;;;;;;;;;;;;;;;;;;;;;"1258";"2014-10-16 12:15:45.703";"NST_correctLoc";"13";"1";"FINISHED";"RIGHT";"success";"645";"0";"2014-10-16 12:15:44.444";"2";;;;;;;;;;;;;;;;;;;;;;;;;;;;;;;;;;;;;;;;;;;;;
"p1429";"1994";;"Windows 7";"Rachel's Experiment (D.T.)";"1.0";"2";"1";"1";"2";"1";"1";"2014-10-16 12:12:33.829";"2014-10-16 12:26:32.654";"1";"1";"1";"60";"59";"module.training_block2.exec-4347.GoNoGo2";;;;;;;;;;;;;;;;;;;;;;;;;;;;;;;;;;;"1248";"2014-10-16 12:15:48.223";"NST_correctLoc";"33";"1";"FINISHED";"RIGHT";"success";"659";"0";"2014-10-16 12:15:46.973";"3";;;;;;;;;;;;;;;;;;;;;;;;;;;;;;;;;;;;;;;;;;;;;
"p1429";"1994";;"Windows 7";"Rachel's Experiment (D.T.)";"1.0";"2";"1";"1";"2";"1";"1";"2014-10-16 12:12:33.829";"2014-10-16 12:26:32.654";"1";"1";"1";"61";"60";"module.training_block2.exec-4347.GoNoGo2";;;;;;;;;;;;;;;;;;;;;;;;;;;;;;;;;;;"1247";"2014-10-16 12:15:50.743";"NST_correctLoc";"19";"1";"FINISHED";"RIGHT";"success";"995";"0";"2014-10-16 12:15:49.493";"3";;;;;;;;;;;;;;;;;;;;;;;;;;;;;;;;;;;;;;;;;;;;;
"p1429";"1994";;"Windows 7";"Rachel's Experiment (D.T.)";"1.0";"2";"1";"1";"2";"1";"1";"2014-10-16 12:12:33.829";"2014-10-16 12:26:32.654";"1";"1";"1";"62";"61";"module.training_block2.exec-4347.GoNoGo2";;;;;;;;;;;;;;;;;;;;;;;;;;;;;;;;;;;"1248";"2014-10-16 12:15:53.263";"ST_correctStop";"5";"1";"FINISHED";"NONE";"success";"0";"1";"2014-10-16 12:15:52.013";"1";;;;;;;;;;;;;;;;;;;;;;;;;;;;;;;;;;;;;;;;;;;;;
"p1429";"1994";;"Windows 7";"Rachel's Experiment (D.T.)";"1.0";"2";"1";"1";"2";"1";"1";"2014-10-16 12:12:33.829";"2014-10-16 12:26:32.654";"1";"1";"1";"63";"62";"module.training_block2.exec-4347.GoNoGo2";;;;;;;;;;;;;;;;;;;;;;;;;;;;;;;;;;;"1242";"2014-10-16 12:15:55.783";"ST_correctStop";"34";"0";"FINISHED";"NONE";"success";"0";"1";"2014-10-16 12:15:54.533";"3";;;;;;;;;;;;;;;;;;;;;;;;;;;;;;;;;;;;;;;;;;;;;
"p1429";"1994";;"Windows 7";"Rachel's Experiment (D.T.)";"1.0";"2";"1";"1";"2";"1";"1";"2014-10-16 12:12:33.829";"2014-10-16 12:26:32.654";"1";"1";"1";"64";"63";"module.training_block2.exec-4347.GoNoGo2";;;;;;;;;;;;;;;;;;;;;;;;;;;;;;;;;;;"1248";"2014-10-16 12:15:58.303";"NST_correctLoc";"30";"1";"FINISHED";"RIGHT";"success";"787";"0";"2014-10-16 12:15:57.053";"3";;;;;;;;;;;;;;;;;;;;;;;;;;;;;;;;;;;;;;;;;;;;;
"p1429";"1994";;"Windows 7";"Rachel's Experiment (D.T.)";"1.0";"2";"1";"1";"2";"1";"1";"2014-10-16 12:12:33.829";"2014-10-16 12:26:32.654";"1";"1";"1";"65";"64";"module.training_block2.exec-4347.GoNoGo2";;;;;;;;;;;;;;;;;;;;;;;;;;;;;;;;;;;"1247";"2014-10-16 12:16:00.823";"ST_correctStop";"20";"0";"FINISHED";"NONE";"success";"0";"1";"2014-10-16 12:15:59.573";"3";;;;;;;;;;;;;;;;;;;;;;;;;;;;;;;;;;;;;;;;;;;;;
"p1429";"1994";;"Windows 7";"Rachel's Experiment (D.T.)";"1.0";"2";"1";"1";"2";"1";"1";"2014-10-16 12:12:33.829";"2014-10-16 12:26:32.654";"1";"1";"1";"66";"65";"module.training_block2.exec-4347.GoNoGo2";;;;;;;;;;;;;;;;;;;;;;;;;;;;;;;;;;;"1248";"2014-10-16 12:16:03.333";"ST_correctStop";"4";"1";"FINISHED";"NONE";"success";"0";"1";"2014-10-16 12:16:02.083";"1";;;;;;;;;;;;;;;;;;;;;;;;;;;;;;;;;;;;;;;;;;;;;
"p1429";"1994";;"Windows 7";"Rachel's Experiment (D.T.)";"1.0";"2";"1";"1";"2";"1";"1";"2014-10-16 12:12:33.829";"2014-10-16 12:26:32.654";"1";"1";"1";"67";"66";"module.training_block2.exec-4347.GoNoGo2";;;;;;;;;;;;;;;;;;;;;;;;;;;;;;;;;;;"1243";"2014-10-16 12:16:05.853";"NST_correctLoc";"9";"1";"FINISHED";"RIGHT";"success";"545";"0";"2014-10-16 12:16:04.603";"2";;;;;;;;;;;;;;;;;;;;;;;;;;;;;;;;;;;;;;;;;;;;;
"p1429";"1994";;"Windows 7";"Rachel's Experiment (D.T.)";"1.0";"2";"1";"1";"2";"1";"1";"2014-10-16 12:12:33.829";"2014-10-16 12:26:32.654";"1";"1";"1";"68";"67";"module.training_block2.exec-4347.GoNoGo2";;;;;;;;;;;;;;;;;;;;;;;;;;;;;;;;;;;"1247";"2014-10-16 12:16:08.373";"NST_correctLoc";"11";"0";"FINISHED";"LEFT";"success";"517";"0";"2014-10-16 12:16:07.123";"2";;;;;;;;;;;;;;;;;;;;;;;;;;;;;;;;;;;;;;;;;;;;;
"p1429";"1994";;"Windows 7";"Rachel's Experiment (D.T.)";"1.0";"2";"1";"1";"2";"1";"1";"2014-10-16 12:12:33.829";"2014-10-16 12:26:32.654";"1";"1";"1";"69";"68";"module.training_block2.exec-4347.GoNoGo2";;;;;;;;;;;;;;;;;;;;;;;;;;;;;;;;;;;"1248";"2014-10-16 12:16:10.883";"NST_correctLoc";"12";"0";"FINISHED";"LEFT";"success";"431";"0";"2014-10-16 12:16:09.633";"2";;;;;;;;;;;;;;;;;;;;;;;;;;;;;;;;;;;;;;;;;;;;;
"p1429";"1994";;"Windows 7";"Rachel's Experiment (D.T.)";"1.0";"2";"1";"1";"2";"1";"1";"2014-10-16 12:12:33.829";"2014-10-16 12:26:32.654";"1";"1";"1";"70";"69";"module.training_block2.exec-4347.GoNoGo2";;;;;;;;;;;;;;;;;;;;;;;;;;;;;;;;;;;"1248";"2014-10-16 12:16:13.393";"ST_correctStop";"2";"0";"FINISHED";"NONE";"success";"0";"1";"2014-10-16 12:16:12.143";"1";;;;;;;;;;;;;;;;;;;;;;;;;;;;;;;;;;;;;;;;;;;;;
"p1429";"1994";;"Windows 7";"Rachel's Experiment (D.T.)";"1.0";"2";"1";"1";"2";"1";"1";"2014-10-16 12:12:33.829";"2014-10-16 12:26:32.654";"1";"1";"1";"71";"70";"module.training_block2.exec-4347.GoNoGo2";;;;;;;;;;;;;;;;;;;;;;;;;;;;;;;;;;;"1248";"2014-10-16 12:16:15.903";"ST_correctStop";"29";"0";"FINISHED";"NONE";"success";"0";"1";"2014-10-16 12:16:14.653";"3";;;;;;;;;;;;;;;;;;;;;;;;;;;;;;;;;;;;;;;;;;;;;
"p1429";"1994";;"Windows 7";"Rachel's Experiment (D.T.)";"1.0";"2";"1";"1";"2";"1";"1";"2014-10-16 12:12:33.829";"2014-10-16 12:26:32.654";"1";"1";"1";"72";"71";"module.training_block2.exec-4347.GoNoGo2";;;;;;;;;;;;;;;;;;;;;;;;;;;;;;;;;;;"1258";"2014-10-16 12:16:18.422";"NST_correctLoc";"15";"1";"FINISHED";"RIGHT";"success";"525";"0";"2014-10-16 12:16:17.163";"2";;;;;;;;;;;;;;;;;;;;;;;;;;;;;;;;;;;;;;;;;;;;;
"p1429";"1994";;"Windows 7";"Rachel's Experiment (D.T.)";"1.0";"2";"1";"1";"2";"1";"1";"2014-10-16 12:12:33.829";"2014-10-16 12:26:32.654";"1";"1";"1";"73";"72";"module.training_block2.exec-4347.GoNoGo2";;;;;;;;;;;;;;;;;;;;;;;;;;;;;;;;;;;"1248";"2014-10-16 12:16:20.932";"ST_correctStop";"21";"1";"FINISHED";"NONE";"success";"0";"1";"2014-10-16 12:16:19.682";"3";;;;;;;;;;;;;;;;;;;;;;;;;;;;;;;;;;;;;;;;;;;;;
"p1429";"1994";;"Windows 7";"Rachel's Experiment (D.T.)";"1.0";"2";"1";"1";"2";"1";"1";"2014-10-16 12:12:33.829";"2014-10-16 12:26:32.654";"1";"1";"1";"74";"73";"module.training_block2.exec-4347.GoNoGo2";;;;;;;;;;;;;;;;;;;;;;;;;;;;;;;;;;;"1247";"2014-10-16 12:16:23.442";"NST_correctLoc";"26";"0";"FINISHED";"LEFT";"success";"615";"0";"2014-10-16 12:16:22.192";"3";;;;;;;;;;;;;;;;;;;;;;;;;;;;;;;;;;;;;;;;;;;;;
"p1429";"1994";;"Windows 7";"Rachel's Experiment (D.T.)";"1.0";"2";"1";"1";"2";"1";"1";"2014-10-16 12:12:33.829";"2014-10-16 12:26:32.654";"1";"1";"1";"75";"74";"module.training_block2.exec-4347.GoNoGo2";;;;;;;;;;;;;;;;;;;;;;;;;;;;;;;;;;;"1248";"2014-10-16 12:16:25.952";"NST_correctLoc";"23";"1";"FINISHED";"RIGHT";"success";"905";"0";"2014-10-16 12:16:24.702";"3";;;;;;;;;;;;;;;;;;;;;;;;;;;;;;;;;;;;;;;;;;;;;
"p1429";"1994";;"Windows 7";"Rachel's Experiment (D.T.)";"1.0";"2";"1";"1";"2";"1";"1";"2014-10-16 12:12:33.829";"2014-10-16 12:26:32.654";"1";"1";"1";"76";"75";"module.training_block2.exec-4347.GoNoGo2";;;;;;;;;;;;;;;;;;;;;;;;;;;;;;;;;;;"1248";"2014-10-16 12:16:28.462";"NST_correctLoc";"22";"1";"FINISHED";"RIGHT";"success";"467";"0";"2014-10-16 12:16:27.212";"3";;;;;;;;;;;;;;;;;;;;;;;;;;;;;;;;;;;;;;;;;;;;;
"p1429";"1994";;"Windows 7";"Rachel's Experiment (D.T.)";"1.0";"2";"1";"1";"2";"1";"1";"2014-10-16 12:12:33.829";"2014-10-16 12:26:32.654";"1";"1";"1";"77";"76";"module.training_block2.exec-4347.GoNoGo2";;;;;;;;;;;;;;;;;;;;;;;;;;;;;;;;;;;"1248";"2014-10-16 12:16:30.972";"ST_correctStop";"3";"0";"FINISHED";"NONE";"success";"0";"1";"2014-10-16 12:16:29.722";"1";;;;;;;;;;;;;;;;;;;;;;;;;;;;;;;;;;;;;;;;;;;;;
"p1429";"1994";;"Windows 7";"Rachel's Experiment (D.T.)";"1.0";"2";"1";"1";"2";"1";"1";"2014-10-16 12:12:33.829";"2014-10-16 12:26:32.654";"1";"1";"1";"78";"77";"module.training_block2.exec-4347.GoNoGo2";;;;;;;;;;;;;;;;;;;;;;;;;;;;;;;;;;;"1248";"2014-10-16 12:16:33.482";"ST_correctStop";"0";"0";"FINISHED";"NONE";"success";"0";"1";"2014-10-16 12:16:32.232";"1";;;;;;;;;;;;;;;;;;;;;;;;;;;;;;;;;;;;;;;;;;;;;
"p1429";"1994";;"Windows 7";"Rachel's Experiment (D.T.)";"1.0";"2";"1";"1";"2";"1";"1";"2014-10-16 12:12:33.829";"2014-10-16 12:26:32.654";"1";"1";"1";"79";"78";"module.training_block2.exec-4347.GoNoGo2";;;;;;;;;;;;;;;;;;;;;;;;;;;;;;;;;;;"1242";"2014-10-16 12:16:35.992";"NST_correctLoc";"32";"0";"FINISHED";"LEFT";"success";"555";"0";"2014-10-16 12:16:34.742";"3";;;;;;;;;;;;;;;;;;;;;;;;;;;;;;;;;;;;;;;;;;;;;
"p1429";"1994";;"Windows 7";"Rachel's Experiment (D.T.)";"1.0";"2";"1";"1";"2";"1";"1";"2014-10-16 12:12:33.829";"2014-10-16 12:26:32.654";"1";"1";"1";"80";"79";"module.training_block2.exec-4347.GoNoGo2";;;;;;;;;;;;;;;;;;;;;;;;;;;;;;;;;;;"1248";"2014-10-16 12:16:38.502";"ST_correctStop";"1";"1";"FINISHED";"NONE";"success";"0";"1";"2014-10-16 12:16:37.252";"1";;;;;;;;;;;;;;;;;;;;;;;;;;;;;;;;;;;;;;;;;;;;;
"p1429";"1994";;"Windows 7";"Rachel's Experiment (D.T.)";"1.0";"2";"1";"1";"2";"1";"1";"2014-10-16 12:12:33.829";"2014-10-16 12:26:32.654";"1";"1";"1";"81";"80";"module.training_block2.exec-4347.GoNoGo2";;;;;;;;;;;;;;;;;;;;;;;;;;;;;;;;;;;"1248";"2014-10-16 12:16:41.012";"ST_correctStop";"6";"0";"FINISHED";"NONE";"success";"0";"1";"2014-10-16 12:16:39.762";"1";;;;;;;;;;;;;;;;;;;;;;;;;;;;;;;;;;;;;;;;;;;;;
"p1429";"1994";;"Windows 7";"Rachel's Experiment (D.T.)";"1.0";"2";"1";"1";"2";"1";"1";"2014-10-16 12:12:33.829";"2014-10-16 12:26:32.654";"1";"1";"1";"82";"81";"module.training_block2.exec-4347.GoNoGo2";;;;;;;;;;;;;;;;;;;;;;;;;;;;;;;;;;;"1248";"2014-10-16 12:16:43.522";"ST_correctStop";"8";"1";"FINISHED";"NONE";"success";"0";"1";"2014-10-16 12:16:42.272";"1";;;;;;;;;;;;;;;;;;;;;;;;;;;;;;;;;;;;;;;;;;;;;
"p1429";"1994";;"Windows 7";"Rachel's Experiment (D.T.)";"1.0";"2";"1";"1";"2";"1";"1";"2014-10-16 12:12:33.829";"2014-10-16 12:26:32.654";"1";"1";"1";"83";"82";"module.training_block2.exec-4347.GoNoGo2";;;;;;;;;;;;;;;;;;;;;;;;;;;;;;;;;;;"1243";"2014-10-16 12:16:46.032";"NST_correctLoc";"10";"0";"FINISHED";"LEFT";"success";"636";"0";"2014-10-16 12:16:44.782";"2";;;;;;;;;;;;;;;;;;;;;;;;;;;;;;;;;;;;;;;;;;;;;
"p1429";"1994";;"Windows 7";"Rachel's Experiment (D.T.)";"1.0";"2";"1";"1";"2";"1";"1";"2014-10-16 12:12:33.829";"2014-10-16 12:26:32.654";"1";"1";"1";"84";"83";"module.training_block2.exec-4347.GoNoGo2";;;;;;;;;;;;;;;;;;;;;;;;;;;;;;;;;;;"1243";"2014-10-16 12:16:48.542";"NST_correctLoc";"17";"0";"FINISHED";"LEFT";"success";"558";"0";"2014-10-16 12:16:47.292";"2";;;;;;;;;;;;;;;;;;;;;;;;;;;;;;;;;;;;;;;;;;;;;
"p1429";"1994";;"Windows 7";"Rachel's Experiment (D.T.)";"1.0";"2";"1";"1";"2";"1";"1";"2014-10-16 12:12:33.829";"2014-10-16 12:26:32.654";"1";"1";"1";"85";"84";"module.training_block2.exec-4347.GoNoGo2";;;;;;;;;;;;;;;;;;;;;;;;;;;;;;;;;;;"1244";"2014-10-16 12:16:51.052";"NST_correctLoc";"18";"1";"FINISHED";"RIGHT";"success";"825";"0";"2014-10-16 12:16:49.802";"3";;;;;;;;;;;;;;;;;;;;;;;;;;;;;;;;;;;;;;;;;;;;;
"p1429";"1994";;"Windows 7";"Rachel's Experiment (D.T.)";"1.0";"2";"1";"1";"2";"1";"1";"2014-10-16 12:12:33.829";"2014-10-16 12:26:32.654";"1";"1";"1";"86";"85";"module.training_block2.exec-4347.GoNoGo2";;;;;;;;;;;;;;;;;;;;;;;;;;;;;;;;;;;"1248";"2014-10-16 12:16:53.571";"ST_failedStop";"35";"0";"FINISHED";"LEFT";"failure";"709";"1";"2014-10-16 12:16:52.321";"3";;;;;;;;;;;;;;;;;;;;;;;;;;;;;;;;;;;;;;;;;;;;;
"p1429";"1994";;"Windows 7";"Rachel's Experiment (D.T.)";"1.0";"2";"1";"1";"2";"1";"1";"2014-10-16 12:12:33.829";"2014-10-16 12:26:32.654";"1";"1";"1";"87";"86";"module.training_block2.exec-4347.GoNoGo2";;;;;;;;;;;;;;;;;;;;;;;;;;;;;;;;;;;"1248";"2014-10-16 12:16:56.081";"NST_correctLoc";"14";"1";"FINISHED";"RIGHT";"success";"839";"0";"2014-10-16 12:16:54.831";"2";;;;;;;;;;;;;;;;;;;;;;;;;;;;;;;;;;;;;;;;;;;;;
"p1429";"1994";;"Windows 7";"Rachel's Experiment (D.T.)";"1.0";"2";"1";"1";"2";"1";"1";"2014-10-16 12:12:33.829";"2014-10-16 12:26:32.654";"1";"1";"1";"88";"87";"module.training_block3.exec-1763.GoNoGo3";;;;;;;;;;;;;;;;;;;;;;;;;;;;;;;;;;;;;;;;;;;;;;;"1248";"2014-10-16 12:17:27.390";"NST_correctLoc";"9";"1";"FINISHED";"RIGHT";"success";"488";"0";"2014-10-16 12:17:26.140";"2";;;;;;;;;;;;;;;;;;;;;;;;;;;;;;;;;
"p1429";"1994";;"Windows 7";"Rachel's Experiment (D.T.)";"1.0";"2";"1";"1";"2";"1";"1";"2014-10-16 12:12:33.829";"2014-10-16 12:26:32.654";"1";"1";"1";"89";"88";"module.training_block3.exec-1763.GoNoGo3";;;;;;;;;;;;;;;;;;;;;;;;;;;;;;;;;;;;;;;;;;;;;;;"1248";"2014-10-16 12:17:29.900";"NST_correctLoc";"18";"0";"FINISHED";"LEFT";"success";"370";"0";"2014-10-16 12:17:28.650";"3";;;;;;;;;;;;;;;;;;;;;;;;;;;;;;;;;
"p1429";"1994";;"Windows 7";"Rachel's Experiment (D.T.)";"1.0";"2";"1";"1";"2";"1";"1";"2014-10-16 12:12:33.829";"2014-10-16 12:26:32.654";"1";"1";"1";"90";"89";"module.training_block3.exec-1763.GoNoGo3";;;;;;;;;;;;;;;;;;;;;;;;;;;;;;;;;;;;;;;;;;;;;;;"1248";"2014-10-16 12:17:32.420";"ST_failedStop";"4";"0";"FINISHED";"LEFT";"failure";"578";"1";"2014-10-16 12:17:31.170";"1";;;;;;;;;;;;;;;;;;;;;;;;;;;;;;;;;
"p1429";"1994";;"Windows 7";"Rachel's Experiment (D.T.)";"1.0";"2";"1";"1";"2";"1";"1";"2014-10-16 12:12:33.829";"2014-10-16 12:26:32.654";"1";"1";"1";"91";"90";"module.training_block3.exec-1763.GoNoGo3";;;;;;;;;;;;;;;;;;;;;;;;;;;;;;;;;;;;;;;;;;;;;;;"1248";"2014-10-16 12:17:34.930";"NST_correctLoc";"11";"0";"FINISHED";"LEFT";"success";"668";"0";"2014-10-16 12:17:33.680";"2";;;;;;;;;;;;;;;;;;;;;;;;;;;;;;;;;
"p1429";"1994";;"Windows 7";"Rachel's Experiment (D.T.)";"1.0";"2";"1";"1";"2";"1";"1";"2014-10-16 12:12:33.829";"2014-10-16 12:26:32.654";"1";"1";"1";"92";"91";"module.training_block3.exec-1763.GoNoGo3";;;;;;;;;;;;;;;;;;;;;;;;;;;;;;;;;;;;;;;;;;;;;;;"1248";"2014-10-16 12:17:37.440";"ST_correctStop";"0";"1";"FINISHED";"NONE";"success";"0";"1";"2014-10-16 12:17:36.190";"1";;;;;;;;;;;;;;;;;;;;;;;;;;;;;;;;;
"p1429";"1994";;"Windows 7";"Rachel's Experiment (D.T.)";"1.0";"2";"1";"1";"2";"1";"1";"2014-10-16 12:12:33.829";"2014-10-16 12:26:32.654";"1";"1";"1";"93";"92";"module.training_block3.exec-1763.GoNoGo3";;;;;;;;;;;;;;;;;;;;;;;;;;;;;;;;;;;;;;;;;;;;;;;"1248";"2014-10-16 12:17:39.950";"ST_correctStop";"25";"1";"FINISHED";"NONE";"success";"0";"1";"2014-10-16 12:17:38.700";"3";;;;;;;;;;;;;;;;;;;;;;;;;;;;;;;;;
"p1429";"1994";;"Windows 7";"Rachel's Experiment (D.T.)";"1.0";"2";"1";"1";"2";"1";"1";"2014-10-16 12:12:33.829";"2014-10-16 12:26:32.654";"1";"1";"1";"94";"93";"module.training_block3.exec-1763.GoNoGo3";;;;;;;;;;;;;;;;;;;;;;;;;;;;;;;;;;;;;;;;;;;;;;;"1248";"2014-10-16 12:17:42.460";"NST_correctLoc";"30";"1";"FINISHED";"RIGHT";"success";"650";"0";"2014-10-16 12:17:41.210";"3";;;;;;;;;;;;;;;;;;;;;;;;;;;;;;;;;
"p1429";"1994";;"Windows 7";"Rachel's Experiment (D.T.)";"1.0";"2";"1";"1";"2";"1";"1";"2014-10-16 12:12:33.829";"2014-10-16 12:26:32.654";"1";"1";"1";"95";"94";"module.training_block3.exec-1763.GoNoGo3";;;;;;;;;;;;;;;;;;;;;;;;;;;;;;;;;;;;;;;;;;;;;;;"1248";"2014-10-16 12:17:44.970";"ST_correctStop";"7";"1";"FINISHED";"NONE";"success";"0";"1";"2014-10-16 12:17:43.720";"1";;;;;;;;;;;;;;;;;;;;;;;;;;;;;;;;;
"p1429";"1994";;"Windows 7";"Rachel's Experiment (D.T.)";"1.0";"2";"1";"1";"2";"1";"1";"2014-10-16 12:12:33.829";"2014-10-16 12:26:32.654";"1";"1";"1";"96";"95";"module.training_block3.exec-1763.GoNoGo3";;;;;;;;;;;;;;;;;;;;;;;;;;;;;;;;;;;;;;;;;;;;;;;"1248";"2014-10-16 12:17:47.480";"NST_correctLoc";"13";"0";"FINISHED";"LEFT";"success";"494";"0";"2014-10-16 12:17:46.230";"2";;;;;;;;;;;;;;;;;;;;;;;;;;;;;;;;;
"p1429";"1994";;"Windows 7";"Rachel's Experiment (D.T.)";"1.0";"2";"1";"1";"2";"1";"1";"2014-10-16 12:12:33.829";"2014-10-16 12:26:32.654";"1";"1";"1";"97";"96";"module.training_block3.exec-1763.GoNoGo3";;;;;;;;;;;;;;;;;;;;;;;;;;;;;;;;;;;;;;;;;;;;;;;"1248";"2014-10-16 12:17:49.990";"ST_correctStop";"22";"1";"FINISHED";"NONE";"success";"0";"1";"2014-10-16 12:17:48.740";"3";;;;;;;;;;;;;;;;;;;;;;;;;;;;;;;;;
"p1429";"1994";;"Windows 7";"Rachel's Experiment (D.T.)";"1.0";"2";"1";"1";"2";"1";"1";"2014-10-16 12:12:33.829";"2014-10-16 12:26:32.654";"1";"1";"1";"98";"97";"module.training_block3.exec-1763.GoNoGo3";;;;;;;;;;;;;;;;;;;;;;;;;;;;;;;;;;;;;;;;;;;;;;;"1248";"2014-10-16 12:17:52.500";"ST_correctStop";"34";"1";"FINISHED";"NONE";"success";"0";"1";"2014-10-16 12:17:51.250";"3";;;;;;;;;;;;;;;;;;;;;;;;;;;;;;;;;
"p1429";"1994";;"Windows 7";"Rachel's Experiment (D.T.)";"1.0";"2";"1";"1";"2";"1";"1";"2014-10-16 12:12:33.829";"2014-10-16 12:26:32.654";"1";"1";"1";"99";"98";"module.training_block3.exec-1763.GoNoGo3";;;;;;;;;;;;;;;;;;;;;;;;;;;;;;;;;;;;;;;;;;;;;;;"1248";"2014-10-16 12:17:55.010";"ST_correctStop";"8";"0";"FINISHED";"NONE";"success";"0";"1";"2014-10-16 12:17:53.760";"1";;;;;;;;;;;;;;;;;;;;;;;;;;;;;;;;;
"p1429";"1994";;"Windows 7";"Rachel's Experiment (D.T.)";"1.0";"2";"1";"1";"2";"1";"1";"2014-10-16 12:12:33.829";"2014-10-16 12:26:32.654";"1";"1";"1";"100";"99";"module.training_block3.exec-1763.GoNoGo3";;;;;;;;;;;;;;;;;;;;;;;;;;;;;;;;;;;;;;;;;;;;;;;"1248";"2014-10-16 12:17:57.520";"ST_correctStop";"5";"1";"FINISHED";"NONE";"success";"0";"1";"2014-10-16 12:17:56.270";"1";;;;;;;;;;;;;;;;;;;;;;;;;;;;;;;;;
"p1429";"1994";;"Windows 7";"Rachel's Experiment (D.T.)";"1.0";"2";"1";"1";"2";"1";"1";"2014-10-16 12:12:33.829";"2014-10-16 12:26:32.654";"1";"1";"1";"101";"100";"module.training_block3.exec-1763.GoNoGo3";;;;;;;;;;;;;;;;;;;;;;;;;;;;;;;;;;;;;;;;;;;;;;;"1248";"2014-10-16 12:18:00.039";"ST_correctStop";"24";"1";"FINISHED";"NONE";"success";"0";"1";"2014-10-16 12:17:58.789";"3";;;;;;;;;;;;;;;;;;;;;;;;;;;;;;;;;
"p1429";"1994";;"Windows 7";"Rachel's Experiment (D.T.)";"1.0";"2";"1";"1";"2";"1";"1";"2014-10-16 12:12:33.829";"2014-10-16 12:26:32.654";"1";"1";"1";"102";"101";"module.training_block3.exec-1763.GoNoGo3";;;;;;;;;;;;;;;;;;;;;;;;;;;;;;;;;;;;;;;;;;;;;;;"1248";"2014-10-16 12:18:02.549";"NST_correctLoc";"17";"0";"FINISHED";"LEFT";"success";"408";"0";"2014-10-16 12:18:01.299";"2";;;;;;;;;;;;;;;;;;;;;;;;;;;;;;;;;
"p1429";"1994";;"Windows 7";"Rachel's Experiment (D.T.)";"1.0";"2";"1";"1";"2";"1";"1";"2014-10-16 12:12:33.829";"2014-10-16 12:26:32.654";"1";"1";"1";"103";"102";"module.training_block3.exec-1763.GoNoGo3";;;;;;;;;;;;;;;;;;;;;;;;;;;;;;;;;;;;;;;;;;;;;;;"1248";"2014-10-16 12:18:05.059";"ST_correctStop";"28";"0";"FINISHED";"NONE";"success";"0";"1";"2014-10-16 12:18:03.809";"3";;;;;;;;;;;;;;;;;;;;;;;;;;;;;;;;;
"p1429";"1994";;"Windows 7";"Rachel's Experiment (D.T.)";"1.0";"2";"1";"1";"2";"1";"1";"2014-10-16 12:12:33.829";"2014-10-16 12:26:32.654";"1";"1";"1";"104";"103";"module.training_block3.exec-1763.GoNoGo3";;;;;;;;;;;;;;;;;;;;;;;;;;;;;;;;;;;;;;;;;;;;;;;"1248";"2014-10-16 12:18:07.569";"ST_correctStop";"23";"0";"FINISHED";"NONE";"success";"0";"1";"2014-10-16 12:18:06.319";"3";;;;;;;;;;;;;;;;;;;;;;;;;;;;;;;;;
"p1429";"1994";;"Windows 7";"Rachel's Experiment (D.T.)";"1.0";"2";"1";"1";"2";"1";"1";"2014-10-16 12:12:33.829";"2014-10-16 12:26:32.654";"1";"1";"1";"105";"104";"module.training_block3.exec-1763.GoNoGo3";;;;;;;;;;;;;;;;;;;;;;;;;;;;;;;;;;;;;;;;;;;;;;;"1248";"2014-10-16 12:18:10.079";"NST_correctLoc";"12";"0";"FINISHED";"LEFT";"success";"550";"0";"2014-10-16 12:18:08.829";"2";;;;;;;;;;;;;;;;;;;;;;;;;;;;;;;;;
"p1429";"1994";;"Windows 7";"Rachel's Experiment (D.T.)";"1.0";"2";"1";"1";"2";"1";"1";"2014-10-16 12:12:33.829";"2014-10-16 12:26:32.654";"1";"1";"1";"106";"105";"module.training_block3.exec-1763.GoNoGo3";;;;;;;;;;;;;;;;;;;;;;;;;;;;;;;;;;;;;;;;;;;;;;;"1248";"2014-10-16 12:18:12.599";"NST_correctLoc";"27";"0";"FINISHED";"LEFT";"success";"646";"0";"2014-10-16 12:18:11.349";"3";;;;;;;;;;;;;;;;;;;;;;;;;;;;;;;;;
"p1429";"1994";;"Windows 7";"Rachel's Experiment (D.T.)";"1.0";"2";"1";"1";"2";"1";"1";"2014-10-16 12:12:33.829";"2014-10-16 12:26:32.654";"1";"1";"1";"107";"106";"module.training_block3.exec-1763.GoNoGo3";;;;;;;;;;;;;;;;;;;;;;;;;;;;;;;;;;;;;;;;;;;;;;;"1248";"2014-10-16 12:18:15.109";"NST_correctLoc";"20";"0";"FINISHED";"LEFT";"success";"592";"0";"2014-10-16 12:18:13.859";"3";;;;;;;;;;;;;;;;;;;;;;;;;;;;;;;;;
"p1429";"1994";;"Windows 7";"Rachel's Experiment (D.T.)";"1.0";"2";"1";"1";"2";"1";"1";"2014-10-16 12:12:33.829";"2014-10-16 12:26:32.654";"1";"1";"1";"108";"107";"module.training_block3.exec-1763.GoNoGo3";;;;;;;;;;;;;;;;;;;;;;;;;;;;;;;;;;;;;;;;;;;;;;;"1248";"2014-10-16 12:18:17.619";"ST_correctStop";"6";"1";"FINISHED";"NONE";"success";"0";"1";"2014-10-16 12:18:16.369";"1";;;;;;;;;;;;;;;;;;;;;;;;;;;;;;;;;
"p1429";"1994";;"Windows 7";"Rachel's Experiment (D.T.)";"1.0";"2";"1";"1";"2";"1";"1";"2014-10-16 12:12:33.829";"2014-10-16 12:26:32.654";"1";"1";"1";"109";"108";"module.training_block3.exec-1763.GoNoGo3";;;;;;;;;;;;;;;;;;;;;;;;;;;;;;;;;;;;;;;;;;;;;;;"1248";"2014-10-16 12:18:20.129";"NST_correctLoc";"15";"1";"FINISHED";"RIGHT";"success";"612";"0";"2014-10-16 12:18:18.879";"2";;;;;;;;;;;;;;;;;;;;;;;;;;;;;;;;;
"p1429";"1994";;"Windows 7";"Rachel's Experiment (D.T.)";"1.0";"2";"1";"1";"2";"1";"1";"2014-10-16 12:12:33.829";"2014-10-16 12:26:32.654";"1";"1";"1";"110";"109";"module.training_block3.exec-1763.GoNoGo3";;;;;;;;;;;;;;;;;;;;;;;;;;;;;;;;;;;;;;;;;;;;;;;"1248";"2014-10-16 12:18:22.639";"NST_correctLoc";"29";"1";"FINISHED";"RIGHT";"success";"526";"0";"2014-10-16 12:18:21.389";"3";;;;;;;;;;;;;;;;;;;;;;;;;;;;;;;;;
"p1429";"1994";;"Windows 7";"Rachel's Experiment (D.T.)";"1.0";"2";"1";"1";"2";"1";"1";"2014-10-16 12:12:33.829";"2014-10-16 12:26:32.654";"1";"1";"1";"111";"110";"module.training_block3.exec-1763.GoNoGo3";;;;;;;;;;;;;;;;;;;;;;;;;;;;;;;;;;;;;;;;;;;;;;;"1248";"2014-10-16 12:18:25.149";"NST_correctLoc";"35";"0";"FINISHED";"LEFT";"success";"400";"0";"2014-10-16 12:18:23.899";"3";;;;;;;;;;;;;;;;;;;;;;;;;;;;;;;;;
"p1429";"1994";;"Windows 7";"Rachel's Experiment (D.T.)";"1.0";"2";"1";"1";"2";"1";"1";"2014-10-16 12:12:33.829";"2014-10-16 12:26:32.654";"1";"1";"1";"112";"111";"module.training_block3.exec-1763.GoNoGo3";;;;;;;;;;;;;;;;;;;;;;;;;;;;;;;;;;;;;;;;;;;;;;;"1248";"2014-10-16 12:18:27.659";"ST_correctStop";"1";"1";"FINISHED";"NONE";"success";"0";"1";"2014-10-16 12:18:26.409";"1";;;;;;;;;;;;;;;;;;;;;;;;;;;;;;;;;
"p1429";"1994";;"Windows 7";"Rachel's Experiment (D.T.)";"1.0";"2";"1";"1";"2";"1";"1";"2014-10-16 12:12:33.829";"2014-10-16 12:26:32.654";"1";"1";"1";"113";"112";"module.training_block3.exec-1763.GoNoGo3";;;;;;;;;;;;;;;;;;;;;;;;;;;;;;;;;;;;;;;;;;;;;;;"1248";"2014-10-16 12:18:30.169";"NST_correctLoc";"31";"0";"FINISHED";"LEFT";"success";"572";"0";"2014-10-16 12:18:28.919";"3";;;;;;;;;;;;;;;;;;;;;;;;;;;;;;;;;
"p1429";"1994";;"Windows 7";"Rachel's Experiment (D.T.)";"1.0";"2";"1";"1";"2";"1";"1";"2014-10-16 12:12:33.829";"2014-10-16 12:26:32.654";"1";"1";"1";"114";"113";"module.training_block3.exec-1763.GoNoGo3";;;;;;;;;;;;;;;;;;;;;;;;;;;;;;;;;;;;;;;;;;;;;;;"1248";"2014-10-16 12:18:32.688";"NST_correctLoc";"32";"1";"FINISHED";"RIGHT";"success";"628";"0";"2014-10-16 12:18:31.438";"3";;;;;;;;;;;;;;;;;;;;;;;;;;;;;;;;;
"p1429";"1994";;"Windows 7";"Rachel's Experiment (D.T.)";"1.0";"2";"1";"1";"2";"1";"1";"2014-10-16 12:12:33.829";"2014-10-16 12:26:32.654";"1";"1";"1";"115";"114";"module.training_block3.exec-1763.GoNoGo3";;;;;;;;;;;;;;;;;;;;;;;;;;;;;;;;;;;;;;;;;;;;;;;"1248";"2014-10-16 12:18:35.198";"ST_correctStop";"26";"0";"FINISHED";"NONE";"success";"0";"1";"2014-10-16 12:18:33.948";"3";;;;;;;;;;;;;;;;;;;;;;;;;;;;;;;;;
"p1429";"1994";;"Windows 7";"Rachel's Experiment (D.T.)";"1.0";"2";"1";"1";"2";"1";"1";"2014-10-16 12:12:33.829";"2014-10-16 12:26:32.654";"1";"1";"1";"116";"115";"module.training_block3.exec-1763.GoNoGo3";;;;;;;;;;;;;;;;;;;;;;;;;;;;;;;;;;;;;;;;;;;;;;;"1248";"2014-10-16 12:18:37.708";"ST_correctStop";"19";"1";"FINISHED";"NONE";"success";"0";"1";"2014-10-16 12:18:36.458";"3";;;;;;;;;;;;;;;;;;;;;;;;;;;;;;;;;
"p1429";"1994";;"Windows 7";"Rachel's Experiment (D.T.)";"1.0";"2";"1";"1";"2";"1";"1";"2014-10-16 12:12:33.829";"2014-10-16 12:26:32.654";"1";"1";"1";"117";"116";"module.training_block3.exec-1763.GoNoGo3";;;;;;;;;;;;;;;;;;;;;;;;;;;;;;;;;;;;;;;;;;;;;;;"1248";"2014-10-16 12:18:40.218";"NST_correctLoc";"14";"1";"FINISHED";"RIGHT";"success";"474";"0";"2014-10-16 12:18:38.968";"2";;;;;;;;;;;;;;;;;;;;;;;;;;;;;;;;;
"p1429";"1994";;"Windows 7";"Rachel's Experiment (D.T.)";"1.0";"2";"1";"1";"2";"1";"1";"2014-10-16 12:12:33.829";"2014-10-16 12:26:32.654";"1";"1";"1";"118";"117";"module.training_block3.exec-1763.GoNoGo3";;;;;;;;;;;;;;;;;;;;;;;;;;;;;;;;;;;;;;;;;;;;;;;"1248";"2014-10-16 12:18:42.728";"ST_correctStop";"2";"0";"FINISHED";"NONE";"success";"0";"1";"2014-10-16 12:18:41.478";"1";;;;;;;;;;;;;;;;;;;;;;;;;;;;;;;;;
"p1429";"1994";;"Windows 7";"Rachel's Experiment (D.T.)";"1.0";"2";"1";"1";"2";"1";"1";"2014-10-16 12:12:33.829";"2014-10-16 12:26:32.654";"1";"1";"1";"119";"118";"module.training_block3.exec-1763.GoNoGo3";;;;;;;;;;;;;;;;;;;;;;;;;;;;;;;;;;;;;;;;;;;;;;;"1248";"2014-10-16 12:18:45.238";"ST_correctStop";"3";"0";"FINISHED";"NONE";"success";"0";"1";"2014-10-16 12:18:43.988";"1";;;;;;;;;;;;;;;;;;;;;;;;;;;;;;;;;
"p1429";"1994";;"Windows 7";"Rachel's Experiment (D.T.)";"1.0";"2";"1";"1";"2";"1";"1";"2014-10-16 12:12:33.829";"2014-10-16 12:26:32.654";"1";"1";"1";"120";"119";"module.training_block3.exec-1763.GoNoGo3";;;;;;;;;;;;;;;;;;;;;;;;;;;;;;;;;;;;;;;;;;;;;;;"1248";"2014-10-16 12:18:47.748";"NST_correctLoc";"10";"1";"FINISHED";"RIGHT";"success";"496";"0";"2014-10-16 12:18:46.498";"2";;;;;;;;;;;;;;;;;;;;;;;;;;;;;;;;;
"p1429";"1994";;"Windows 7";"Rachel's Experiment (D.T.)";"1.0";"2";"1";"1";"2";"1";"1";"2014-10-16 12:12:33.829";"2014-10-16 12:26:32.654";"1";"1";"1";"121";"120";"module.training_block3.exec-1763.GoNoGo3";;;;;;;;;;;;;;;;;;;;;;;;;;;;;;;;;;;;;;;;;;;;;;;"1248";"2014-10-16 12:18:50.258";"NST_correctLoc";"16";"0";"FINISHED";"LEFT";"success";"474";"0";"2014-10-16 12:18:49.008";"2";;;;;;;;;;;;;;;;;;;;;;;;;;;;;;;;;
"p1429";"1994";;"Windows 7";"Rachel's Experiment (D.T.)";"1.0";"2";"1";"1";"2";"1";"1";"2014-10-16 12:12:33.829";"2014-10-16 12:26:32.654";"1";"1";"1";"122";"121";"module.training_block3.exec-1763.GoNoGo3";;;;;;;;;;;;;;;;;;;;;;;;;;;;;;;;;;;;;;;;;;;;;;;"1248";"2014-10-16 12:18:52.768";"NST_correctLoc";"33";"1";"FINISHED";"RIGHT";"success";"524";"0";"2014-10-16 12:18:51.518";"3";;;;;;;;;;;;;;;;;;;;;;;;;;;;;;;;;
"p1429";"1994";;"Windows 7";"Rachel's Experiment (D.T.)";"1.0";"2";"1";"1";"2";"1";"1";"2014-10-16 12:12:33.829";"2014-10-16 12:26:32.654";"1";"1";"1";"123";"122";"module.training_block3.exec-1763.GoNoGo3";;;;;;;;;;;;;;;;;;;;;;;;;;;;;;;;;;;;;;;;;;;;;;;"1248";"2014-10-16 12:18:55.278";"ST_failedStop";"21";"0";"FINISHED";"LEFT";"failure";"470";"1";"2014-10-16 12:18:54.028";"3";;;;;;;;;;;;;;;;;;;;;;;;;;;;;;;;;
"p1429";"1994";;"Windows 7";"Rachel's Experiment (D.T.)";"1.0";"2";"1";"1";"2";"1";"1";"2014-10-16 12:12:33.829";"2014-10-16 12:26:32.654";"1";"1";"1";"124";"123";"module.training_block4.exec-7899.GoNoGo4";;;;;;;;;;;;;;;;;;;;;;;;;;;;;;;;;;;;;;;;;;;;;;;;;;;;;;;;;;;"1248";"2014-10-16 12:19:13.777";"NST_correctLoc";"27";"1";"FINISHED";"RIGHT";"success";"1202";"0";"2014-10-16 12:19:12.527";"3";;;;;;;;;;;;;;;;;;;;;
"p1429";"1994";;"Windows 7";"Rachel's Experiment (D.T.)";"1.0";"2";"1";"1";"2";"1";"1";"2014-10-16 12:12:33.829";"2014-10-16 12:26:32.654";"1";"1";"1";"125";"124";"module.training_block4.exec-7899.GoNoGo4";;;;;;;;;;;;;;;;;;;;;;;;;;;;;;;;;;;;;;;;;;;;;;;;;;;;;;;;;;;"1248";"2014-10-16 12:19:16.287";"ST_failedStop";"0";"0";"FINISHED";"LEFT";"failure";"652";"1";"2014-10-16 12:19:15.037";"1";;;;;;;;;;;;;;;;;;;;;
"p1429";"1994";;"Windows 7";"Rachel's Experiment (D.T.)";"1.0";"2";"1";"1";"2";"1";"1";"2014-10-16 12:12:33.829";"2014-10-16 12:26:32.654";"1";"1";"1";"126";"125";"module.training_block4.exec-7899.GoNoGo4";;;;;;;;;;;;;;;;;;;;;;;;;;;;;;;;;;;;;;;;;;;;;;;;;;;;;;;;;;;"1243";"2014-10-16 12:19:18.797";"NST_correctLoc";"9";"0";"FINISHED";"LEFT";"success";"577";"0";"2014-10-16 12:19:17.547";"2";;;;;;;;;;;;;;;;;;;;;
"p1429";"1994";;"Windows 7";"Rachel's Experiment (D.T.)";"1.0";"2";"1";"1";"2";"1";"1";"2014-10-16 12:12:33.829";"2014-10-16 12:26:32.654";"1";"1";"1";"127";"126";"module.training_block4.exec-7899.GoNoGo4";;;;;;;;;;;;;;;;;;;;;;;;;;;;;;;;;;;;;;;;;;;;;;;;;;;;;;;;;;;"1248";"2014-10-16 12:19:21.307";"NST_correctLoc";"23";"1";"FINISHED";"RIGHT";"success";"520";"0";"2014-10-16 12:19:20.057";"3";;;;;;;;;;;;;;;;;;;;;
"p1429";"1994";;"Windows 7";"Rachel's Experiment (D.T.)";"1.0";"2";"1";"1";"2";"1";"1";"2014-10-16 12:12:33.829";"2014-10-16 12:26:32.654";"1";"1";"1";"128";"127";"module.training_block4.exec-7899.GoNoGo4";;;;;;;;;;;;;;;;;;;;;;;;;;;;;;;;;;;;;;;;;;;;;;;;;;;;;;;;;;;"1248";"2014-10-16 12:19:23.817";"ST_correctStop";"21";"1";"FINISHED";"NONE";"success";"0";"1";"2014-10-16 12:19:22.567";"3";;;;;;;;;;;;;;;;;;;;;
"p1429";"1994";;"Windows 7";"Rachel's Experiment (D.T.)";"1.0";"2";"1";"1";"2";"1";"1";"2014-10-16 12:12:33.829";"2014-10-16 12:26:32.654";"1";"1";"1";"129";"128";"module.training_block4.exec-7899.GoNoGo4";;;;;;;;;;;;;;;;;;;;;;;;;;;;;;;;;;;;;;;;;;;;;;;;;;;;;;;;;;;"1248";"2014-10-16 12:19:26.327";"ST_correctStop";"34";"0";"FINISHED";"NONE";"success";"0";"1";"2014-10-16 12:19:25.077";"3";;;;;;;;;;;;;;;;;;;;;
"p1429";"1994";;"Windows 7";"Rachel's Experiment (D.T.)";"1.0";"2";"1";"1";"2";"1";"1";"2014-10-16 12:12:33.829";"2014-10-16 12:26:32.654";"1";"1";"1";"130";"129";"module.training_block4.exec-7899.GoNoGo4";;;;;;;;;;;;;;;;;;;;;;;;;;;;;;;;;;;;;;;;;;;;;;;;;;;;;;;;;;;"1248";"2014-10-16 12:19:28.837";"NST_correctLoc";"15";"1";"FINISHED";"RIGHT";"success";"686";"0";"2014-10-16 12:19:27.587";"2";;;;;;;;;;;;;;;;;;;;;
"p1429";"1994";;"Windows 7";"Rachel's Experiment (D.T.)";"1.0";"2";"1";"1";"2";"1";"1";"2014-10-16 12:12:33.829";"2014-10-16 12:26:32.654";"1";"1";"1";"131";"130";"module.training_block4.exec-7899.GoNoGo4";;;;;;;;;;;;;;;;;;;;;;;;;;;;;;;;;;;;;;;;;;;;;;;;;;;;;;;;;;;"1248";"2014-10-16 12:19:31.347";"ST_correctStop";"4";"1";"FINISHED";"NONE";"success";"0";"1";"2014-10-16 12:19:30.097";"1";;;;;;;;;;;;;;;;;;;;;
"p1429";"1994";;"Windows 7";"Rachel's Experiment (D.T.)";"1.0";"2";"1";"1";"2";"1";"1";"2014-10-16 12:12:33.829";"2014-10-16 12:26:32.654";"1";"1";"1";"132";"131";"module.training_block4.exec-7899.GoNoGo4";;;;;;;;;;;;;;;;;;;;;;;;;;;;;;;;;;;;;;;;;;;;;;;;;;;;;;;;;;;"1248";"2014-10-16 12:19:33.857";"NST_correctLoc";"30";"0";"FINISHED";"LEFT";"success";"530";"0";"2014-10-16 12:19:32.607";"3";;;;;;;;;;;;;;;;;;;;;
"p1429";"1994";;"Windows 7";"Rachel's Experiment (D.T.)";"1.0";"2";"1";"1";"2";"1";"1";"2014-10-16 12:12:33.829";"2014-10-16 12:26:32.654";"1";"1";"1";"133";"132";"module.training_block4.exec-7899.GoNoGo4";;;;;;;;;;;;;;;;;;;;;;;;;;;;;;;;;;;;;;;;;;;;;;;;;;;;;;;;;;;"1248";"2014-10-16 12:19:36.367";"NST_correctLoc";"16";"0";"FINISHED";"LEFT";"success";"468";"0";"2014-10-16 12:19:35.117";"2";;;;;;;;;;;;;;;;;;;;;
"p1429";"1994";;"Windows 7";"Rachel's Experiment (D.T.)";"1.0";"2";"1";"1";"2";"1";"1";"2014-10-16 12:12:33.829";"2014-10-16 12:26:32.654";"1";"1";"1";"134";"133";"module.training_block4.exec-7899.GoNoGo4";;;;;;;;;;;;;;;;;;;;;;;;;;;;;;;;;;;;;;;;;;;;;;;;;;;;;;;;;;;"1258";"2014-10-16 12:19:38.886";"ST_failedStop";"26";"1";"FINISHED";"RIGHT";"failure";"509";"1";"2014-10-16 12:19:37.627";"3";;;;;;;;;;;;;;;;;;;;;
"p1429";"1994";;"Windows 7";"Rachel's Experiment (D.T.)";"1.0";"2";"1";"1";"2";"1";"1";"2014-10-16 12:12:33.829";"2014-10-16 12:26:32.654";"1";"1";"1";"135";"134";"module.training_block4.exec-7899.GoNoGo4";;;;;;;;;;;;;;;;;;;;;;;;;;;;;;;;;;;;;;;;;;;;;;;;;;;;;;;;;;;"1248";"2014-10-16 12:19:41.396";"ST_correctStop";"5";"0";"FINISHED";"NONE";"success";"0";"1";"2014-10-16 12:19:40.146";"1";;;;;;;;;;;;;;;;;;;;;
"p1429";"1994";;"Windows 7";"Rachel's Experiment (D.T.)";"1.0";"2";"1";"1";"2";"1";"1";"2014-10-16 12:12:33.829";"2014-10-16 12:26:32.654";"1";"1";"1";"136";"135";"module.training_block4.exec-7899.GoNoGo4";;;;;;;;;;;;;;;;;;;;;;;;;;;;;;;;;;;;;;;;;;;;;;;;;;;;;;;;;;;"1248";"2014-10-16 12:19:43.906";"NST_correctLoc";"31";"1";"FINISHED";"RIGHT";"success";"519";"0";"2014-10-16 12:19:42.656";"3";;;;;;;;;;;;;;;;;;;;;
"p1429";"1994";;"Windows 7";"Rachel's Experiment (D.T.)";"1.0";"2";"1";"1";"2";"1";"1";"2014-10-16 12:12:33.829";"2014-10-16 12:26:32.654";"1";"1";"1";"137";"136";"module.training_block4.exec-7899.GoNoGo4";;;;;;;;;;;;;;;;;;;;;;;;;;;;;;;;;;;;;;;;;;;;;;;;;;;;;;;;;;;"1248";"2014-10-16 12:19:46.416";"NST_correctLoc";"10";"1";"FINISHED";"RIGHT";"success";"473";"0";"2014-10-16 12:19:45.166";"2";;;;;;;;;;;;;;;;;;;;;
"p1429";"1994";;"Windows 7";"Rachel's Experiment (D.T.)";"1.0";"2";"1";"1";"2";"1";"1";"2014-10-16 12:12:33.829";"2014-10-16 12:26:32.654";"1";"1";"1";"138";"137";"module.training_block4.exec-7899.GoNoGo4";;;;;;;;;;;;;;;;;;;;;;;;;;;;;;;;;;;;;;;;;;;;;;;;;;;;;;;;;;;"1248";"2014-10-16 12:19:48.926";"NST_correctLoc";"11";"0";"FINISHED";"LEFT";"success";"499";"0";"2014-10-16 12:19:47.676";"2";;;;;;;;;;;;;;;;;;;;;
"p1429";"1994";;"Windows 7";"Rachel's Experiment (D.T.)";"1.0";"2";"1";"1";"2";"1";"1";"2014-10-16 12:12:33.829";"2014-10-16 12:26:32.654";"1";"1";"1";"139";"138";"module.training_block4.exec-7899.GoNoGo4";;;;;;;;;;;;;;;;;;;;;;;;;;;;;;;;;;;;;;;;;;;;;;;;;;;;;;;;;;;"1248";"2014-10-16 12:19:51.436";"ST_correctStop";"22";"0";"FINISHED";"NONE";"success";"0";"1";"2014-10-16 12:19:50.186";"3";;;;;;;;;;;;;;;;;;;;;
"p1429";"1994";;"Windows 7";"Rachel's Experiment (D.T.)";"1.0";"2";"1";"1";"2";"1";"1";"2014-10-16 12:12:33.829";"2014-10-16 12:26:32.654";"1";"1";"1";"140";"139";"module.training_block4.exec-7899.GoNoGo4";;;;;;;;;;;;;;;;;;;;;;;;;;;;;;;;;;;;;;;;;;;;;;;;;;;;;;;;;;;"1248";"2014-10-16 12:19:53.946";"NST_correctLoc";"13";"0";"FINISHED";"LEFT";"success";"639";"0";"2014-10-16 12:19:52.696";"2";;;;;;;;;;;;;;;;;;;;;
"p1429";"1994";;"Windows 7";"Rachel's Experiment (D.T.)";"1.0";"2";"1";"1";"2";"1";"1";"2014-10-16 12:12:33.829";"2014-10-16 12:26:32.654";"1";"1";"1";"141";"140";"module.training_block4.exec-7899.GoNoGo4";;;;;;;;;;;;;;;;;;;;;;;;;;;;;;;;;;;;;;;;;;;;;;;;;;;;;;;;;;;"1243";"2014-10-16 12:19:56.456";"ST_correctStop";"18";"1";"FINISHED";"NONE";"success";"0";"1";"2014-10-16 12:19:55.206";"3";;;;;;;;;;;;;;;;;;;;;
"p1429";"1994";;"Windows 7";"Rachel's Experiment (D.T.)";"1.0";"2";"1";"1";"2";"1";"1";"2014-10-16 12:12:33.829";"2014-10-16 12:26:32.654";"1";"1";"1";"142";"141";"module.training_block4.exec-7899.GoNoGo4";;;;;;;;;;;;;;;;;;;;;;;;;;;;;;;;;;;;;;;;;;;;;;;;;;;;;;;;;;;"1248";"2014-10-16 12:19:58.966";"ST_correctStop";"32";"1";"FINISHED";"NONE";"success";"0";"1";"2014-10-16 12:19:57.716";"3";;;;;;;;;;;;;;;;;;;;;
"p1429";"1994";;"Windows 7";"Rachel's Experiment (D.T.)";"1.0";"2";"1";"1";"2";"1";"1";"2014-10-16 12:12:33.829";"2014-10-16 12:26:32.654";"1";"1";"1";"143";"142";"module.training_block4.exec-7899.GoNoGo4";;;;;;;;;;;;;;;;;;;;;;;;;;;;;;;;;;;;;;;;;;;;;;;;;;;;;;;;;;;"1248";"2014-10-16 12:20:01.476";"ST_correctStop";"33";"1";"FINISHED";"NONE";"success";"0";"1";"2014-10-16 12:20:00.226";"3";;;;;;;;;;;;;;;;;;;;;
"p1429";"1994";;"Windows 7";"Rachel's Experiment (D.T.)";"1.0";"2";"1";"1";"2";"1";"1";"2014-10-16 12:12:33.829";"2014-10-16 12:26:32.654";"1";"1";"1";"144";"143";"module.training_block4.exec-7899.GoNoGo4";;;;;;;;;;;;;;;;;;;;;;;;;;;;;;;;;;;;;;;;;;;;;;;;;;;;;;;;;;;"1248";"2014-10-16 12:20:03.986";"NST_correctLoc";"17";"0";"FINISHED";"LEFT";"success";"503";"0";"2014-10-16 12:20:02.736";"2";;;;;;;;;;;;;;;;;;;;;
"p1429";"1994";;"Windows 7";"Rachel's Experiment (D.T.)";"1.0";"2";"1";"1";"2";"1";"1";"2014-10-16 12:12:33.829";"2014-10-16 12:26:32.654";"1";"1";"1";"145";"144";"module.training_block4.exec-7899.GoNoGo4";;;;;;;;;;;;;;;;;;;;;;;;;;;;;;;;;;;;;;;;;;;;;;;;;;;;;;;;;;;"1248";"2014-10-16 12:20:06.496";"NST_correctLoc";"24";"0";"FINISHED";"LEFT";"success";"529";"0";"2014-10-16 12:20:05.246";"3";;;;;;;;;;;;;;;;;;;;;
"p1429";"1994";;"Windows 7";"Rachel's Experiment (D.T.)";"1.0";"2";"1";"1";"2";"1";"1";"2014-10-16 12:12:33.829";"2014-10-16 12:26:32.654";"1";"1";"1";"146";"145";"module.training_block4.exec-7899.GoNoGo4";;;;;;;;;;;;;;;;;;;;;;;;;;;;;;;;;;;;;;;;;;;;;;;;;;;;;;;;;;;"1248";"2014-10-16 12:20:09.006";"NST_correctLoc";"14";"1";"FINISHED";"RIGHT";"success";"451";"0";"2014-10-16 12:20:07.756";"2";;;;;;;;;;;;;;;;;;;;;
"p1429";"1994";;"Windows 7";"Rachel's Experiment (D.T.)";"1.0";"2";"1";"1";"2";"1";"1";"2014-10-16 12:12:33.829";"2014-10-16 12:26:32.654";"1";"1";"1";"147";"146";"module.training_block4.exec-7899.GoNoGo4";;;;;;;;;;;;;;;;;;;;;;;;;;;;;;;;;;;;;;;;;;;;;;;;;;;;;;;;;;;"1258";"2014-10-16 12:20:11.525";"ST_correctStop";"25";"0";"FINISHED";"NONE";"success";"0";"1";"2014-10-16 12:20:10.266";"3";;;;;;;;;;;;;;;;;;;;;
"p1429";"1994";;"Windows 7";"Rachel's Experiment (D.T.)";"1.0";"2";"1";"1";"2";"1";"1";"2014-10-16 12:12:33.829";"2014-10-16 12:26:32.654";"1";"1";"1";"148";"147";"module.training_block4.exec-7899.GoNoGo4";;;;;;;;;;;;;;;;;;;;;;;;;;;;;;;;;;;;;;;;;;;;;;;;;;;;;;;;;;;"1248";"2014-10-16 12:20:14.035";"ST_correctStop";"3";"0";"FINISHED";"NONE";"success";"0";"1";"2014-10-16 12:20:12.785";"1";;;;;;;;;;;;;;;;;;;;;
"p1429";"1994";;"Windows 7";"Rachel's Experiment (D.T.)";"1.0";"2";"1";"1";"2";"1";"1";"2014-10-16 12:12:33.829";"2014-10-16 12:26:32.654";"1";"1";"1";"149";"148";"module.training_block4.exec-7899.GoNoGo4";;;;;;;;;;;;;;;;;;;;;;;;;;;;;;;;;;;;;;;;;;;;;;;;;;;;;;;;;;;"1248";"2014-10-16 12:20:16.555";"ST_correctStop";"20";"0";"FINISHED";"NONE";"success";"0";"1";"2014-10-16 12:20:15.305";"3";;;;;;;;;;;;;;;;;;;;;
"p1429";"1994";;"Windows 7";"Rachel's Experiment (D.T.)";"1.0";"2";"1";"1";"2";"1";"1";"2014-10-16 12:12:33.829";"2014-10-16 12:26:32.654";"1";"1";"1";"150";"149";"module.training_block4.exec-7899.GoNoGo4";;;;;;;;;;;;;;;;;;;;;;;;;;;;;;;;;;;;;;;;;;;;;;;;;;;;;;;;;;;"1248";"2014-10-16 12:20:19.065";"ST_correctStop";"7";"0";"FINISHED";"NONE";"success";"0";"1";"2014-10-16 12:20:17.815";"1";;;;;;;;;;;;;;;;;;;;;
"p1429";"1994";;"Windows 7";"Rachel's Experiment (D.T.)";"1.0";"2";"1";"1";"2";"1";"1";"2014-10-16 12:12:33.829";"2014-10-16 12:26:32.654";"1";"1";"1";"151";"150";"module.training_block4.exec-7899.GoNoGo4";;;;;;;;;;;;;;;;;;;;;;;;;;;;;;;;;;;;;;;;;;;;;;;;;;;;;;;;;;;"1248";"2014-10-16 12:20:21.575";"NST_correctLoc";"35";"1";"FINISHED";"RIGHT";"success";"505";"0";"2014-10-16 12:20:20.325";"3";;;;;;;;;;;;;;;;;;;;;
"p1429";"1994";;"Windows 7";"Rachel's Experiment (D.T.)";"1.0";"2";"1";"1";"2";"1";"1";"2014-10-16 12:12:33.829";"2014-10-16 12:26:32.654";"1";"1";"1";"152";"151";"module.training_block4.exec-7899.GoNoGo4";;;;;;;;;;;;;;;;;;;;;;;;;;;;;;;;;;;;;;;;;;;;;;;;;;;;;;;;;;;"1248";"2014-10-16 12:20:24.085";"ST_correctStop";"8";"1";"FINISHED";"NONE";"success";"0";"1";"2014-10-16 12:20:22.835";"1";;;;;;;;;;;;;;;;;;;;;
"p1429";"1994";;"Windows 7";"Rachel's Experiment (D.T.)";"1.0";"2";"1";"1";"2";"1";"1";"2014-10-16 12:12:33.829";"2014-10-16 12:26:32.654";"1";"1";"1";"153";"152";"module.training_block4.exec-7899.GoNoGo4";;;;;;;;;;;;;;;;;;;;;;;;;;;;;;;;;;;;;;;;;;;;;;;;;;;;;;;;;;;"1248";"2014-10-16 12:20:26.595";"ST_correctStop";"2";"0";"FINISHED";"NONE";"success";"0";"1";"2014-10-16 12:20:25.345";"1";;;;;;;;;;;;;;;;;;;;;
"p1429";"1994";;"Windows 7";"Rachel's Experiment (D.T.)";"1.0";"2";"1";"1";"2";"1";"1";"2014-10-16 12:12:33.829";"2014-10-16 12:26:32.654";"1";"1";"1";"154";"153";"module.training_block4.exec-7899.GoNoGo4";;;;;;;;;;;;;;;;;;;;;;;;;;;;;;;;;;;;;;;;;;;;;;;;;;;;;;;;;;;"1248";"2014-10-16 12:20:29.105";"NST_correctLoc";"12";"0";"FINISHED";"LEFT";"success";"575";"0";"2014-10-16 12:20:27.855";"2";;;;;;;;;;;;;;;;;;;;;
"p1429";"1994";;"Windows 7";"Rachel's Experiment (D.T.)";"1.0";"2";"1";"1";"2";"1";"1";"2014-10-16 12:12:33.829";"2014-10-16 12:26:32.654";"1";"1";"1";"155";"154";"module.training_block4.exec-7899.GoNoGo4";;;;;;;;;;;;;;;;;;;;;;;;;;;;;;;;;;;;;;;;;;;;;;;;;;;;;;;;;;;"1248";"2014-10-16 12:20:31.615";"ST_correctStop";"1";"1";"FINISHED";"NONE";"success";"0";"1";"2014-10-16 12:20:30.365";"1";;;;;;;;;;;;;;;;;;;;;
"p1429";"1994";;"Windows 7";"Rachel's Experiment (D.T.)";"1.0";"2";"1";"1";"2";"1";"1";"2014-10-16 12:12:33.829";"2014-10-16 12:26:32.654";"1";"1";"1";"156";"155";"module.training_block4.exec-7899.GoNoGo4";;;;;;;;;;;;;;;;;;;;;;;;;;;;;;;;;;;;;;;;;;;;;;;;;;;;;;;;;;;"1248";"2014-10-16 12:20:34.125";"ST_correctStop";"6";"0";"FINISHED";"NONE";"success";"0";"1";"2014-10-16 12:20:32.875";"1";;;;;;;;;;;;;;;;;;;;;
"p1429";"1994";;"Windows 7";"Rachel's Experiment (D.T.)";"1.0";"2";"1";"1";"2";"1";"1";"2014-10-16 12:12:33.829";"2014-10-16 12:26:32.654";"1";"1";"1";"157";"156";"module.training_block4.exec-7899.GoNoGo4";;;;;;;;;;;;;;;;;;;;;;;;;;;;;;;;;;;;;;;;;;;;;;;;;;;;;;;;;;;"1248";"2014-10-16 12:20:36.635";"NST_correctLoc";"28";"1";"FINISHED";"RIGHT";"success";"589";"0";"2014-10-16 12:20:35.385";"3";;;;;;;;;;;;;;;;;;;;;
"p1429";"1994";;"Windows 7";"Rachel's Experiment (D.T.)";"1.0";"2";"1";"1";"2";"1";"1";"2014-10-16 12:12:33.829";"2014-10-16 12:26:32.654";"1";"1";"1";"158";"157";"module.training_block4.exec-7899.GoNoGo4";;;;;;;;;;;;;;;;;;;;;;;;;;;;;;;;;;;;;;;;;;;;;;;;;;;;;;;;;;;"1248";"2014-10-16 12:20:39.145";"NST_correctLoc";"29";"1";"FINISHED";"RIGHT";"success";"607";"0";"2014-10-16 12:20:37.895";"3";;;;;;;;;;;;;;;;;;;;;
"p1429";"1994";;"Windows 7";"Rachel's Experiment (D.T.)";"1.0";"2";"1";"1";"2";"1";"1";"2014-10-16 12:12:33.829";"2014-10-16 12:26:32.654";"1";"1";"1";"159";"158";"module.training_block4.exec-7899.GoNoGo4";;;;;;;;;;;;;;;;;;;;;;;;;;;;;;;;;;;;;;;;;;;;;;;;;;;;;;;;;;;"1248";"2014-10-16 12:20:41.655";"NST_correctLoc";"19";"0";"FINISHED";"LEFT";"success";"649";"0";"2014-10-16 12:20:40.405";"3";;;;;;;;;;;;;;;;;;;;;
"p1429";"1994";;"Windows 7";"Rachel's Experiment (D.T.)";"1.0";"2";"1";"1";"2";"1";"1";"2014-10-16 12:12:33.829";"2014-10-16 12:26:32.654";"1";"1";"1";"160";"159";"module.devaluation_practice.exec-4997.devalPractice";;;;;;;;;;;;"75376";"2014-10-16 12:22:03.332";"0";"5";"8";"5";"6125";"38155";"28077";"2014-10-16 12:20:47.954";;;;;;;;;;;;;;;;;;;;;;;;;;;;;;;;;;;;;;;;;;;;;;;;;;;;;;;;;;;;;;;;;;;;;;
"p1429";"1994";;"Windows 7";"Rachel's Experiment (D.T.)";"1.0";"2";"1";"1";"2";"1";"1";"2014-10-16 12:12:33.829";"2014-10-16 12:26:32.654";"1";"1";"1";"161";"160";"module.devaluation_practice.exec-4997.devalPractice";;;;;;;;;;;;"10361";"2014-10-16 12:22:13.722";"1";"5";"5";"5";"2603";"2349";"2415";"2014-10-16 12:22:03.362";;;;;;;;;;;;;;;;;;;;;;;;;;;;;;;;;;;;;;;;;;;;;;;;;;;;;;;;;;;;;;;;;;;;;;
"p1429";"1994";;"Windows 7";"Rachel's Experiment (D.T.)";"1.0";"2";"1";"1";"2";"1";"1";"2014-10-16 12:12:33.829";"2014-10-16 12:26:32.654";"1";"1";"1";"162";"161";"module.devaluation_practice.exec-4997.devalPractice";;;;;;;;;;;;"8946";"2014-10-16 12:22:22.692";"2";"4";"4";"6";"1445";"2727";"1779";"2014-10-16 12:22:13.742";;;;;;;;;;;;;;;;;;;;;;;;;;;;;;;;;;;;;;;;;;;;;;;;;;;;;;;;;;;;;;;;;;;;;;
"p1429";"1994";;"Windows 7";"Rachel's Experiment (D.T.)";"1.0";"2";"1";"1";"2";"1";"1";"2014-10-16 12:12:33.829";"2014-10-16 12:26:32.654";"1";"1";"1";"163";"162";"module.devaluation_practice.exec-4997.devalPractice";;;;;;;;;;;;"8362";"2014-10-16 12:22:31.071";"3";"5";"6";"6";"1451";"2651";"1247";"2014-10-16 12:22:22.712";;;;;;;;;;;;;;;;;;;;;;;;;;;;;;;;;;;;;;;;;;;;;;;;;;;;;;;;;;;;;;;;;;;;;;
"p1429";"1994";;"Windows 7";"Rachel's Experiment (D.T.)";"1.0";"2";"1";"1";"2";"1";"1";"2014-10-16 12:12:33.829";"2014-10-16 12:26:32.654";"1";"1";"1";"164";"163";"module.devaluation_block1.exec-9039.deval1";"8681";"2014-10-16 12:22:48.531";"14";"6";"4";"5";"3523";"785";"1367";"2014-10-16 12:22:39.851";"2";;;;;;;;;;;;;;;;;;;;;;;;;;;;;;;;;;;;;;;;;;;;;;;;;;;;;;;;;;;;;;;;;;;;;;;;;;;;;;;;
"p1429";"1994";;"Windows 7";"Rachel's Experiment (D.T.)";"1.0";"2";"1";"1";"2";"1";"1";"2014-10-16 12:12:33.829";"2014-10-16 12:26:32.654";"1";"1";"1";"165";"164";"module.devaluation_block1.exec-9039.deval1";"8844";"2014-10-16 12:22:57.401";"3";"6";"4";"7";"2649";"1139";"2059";"2014-10-16 12:22:48.551";"1";;;;;;;;;;;;;;;;;;;;;;;;;;;;;;;;;;;;;;;;;;;;;;;;;;;;;;;;;;;;;;;;;;;;;;;;;;;;;;;;
"p1429";"1994";;"Windows 7";"Rachel's Experiment (D.T.)";"1.0";"2";"1";"1";"2";"1";"1";"2014-10-16 12:12:33.829";"2014-10-16 12:26:32.654";"1";"1";"1";"166";"165";"module.devaluation_block1.exec-9039.deval1";"7064";"2014-10-16 12:23:04.490";"9";"4";"3";"4";"1193";"1497";"1375";"2014-10-16 12:22:57.421";"2";;;;;;;;;;;;;;;;;;;;;;;;;;;;;;;;;;;;;;;;;;;;;;;;;;;;;;;;;;;;;;;;;;;;;;;;;;;;;;;;
"p1429";"1994";;"Windows 7";"Rachel's Experiment (D.T.)";"1.0";"2";"1";"1";"2";"1";"1";"2014-10-16 12:12:33.829";"2014-10-16 12:26:32.654";"1";"1";"1";"167";"166";"module.devaluation_block1.exec-9039.deval1";"10859";"2014-10-16 12:23:15.360";"1";"4";"5";"6";"3130";"1696";"3036";"2014-10-16 12:23:04.500";"1";;;;;;;;;;;;;;;;;;;;;;;;;;;;;;;;;;;;;;;;;;;;;;;;;;;;;;;;;;;;;;;;;;;;;;;;;;;;;;;;
"p1429";"1994";;"Windows 7";"Rachel's Experiment (D.T.)";"1.0";"2";"1";"1";"2";"1";"1";"2014-10-16 12:12:33.829";"2014-10-16 12:26:32.654";"1";"1";"1";"168";"167";"module.devaluation_block1.exec-9039.deval1";"9072";"2014-10-16 12:23:24.460";"20";"4";"6";"5";"1888";"2293";"1890";"2014-10-16 12:23:15.390";"3";;;;;;;;;;;;;;;;;;;;;;;;;;;;;;;;;;;;;;;;;;;;;;;;;;;;;;;;;;;;;;;;;;;;;;;;;;;;;;;;
"p1429";"1994";;"Windows 7";"Rachel's Experiment (D.T.)";"1.0";"2";"1";"1";"2";"1";"1";"2014-10-16 12:12:33.829";"2014-10-16 12:26:32.654";"1";"1";"1";"169";"168";"module.devaluation_block1.exec-9039.deval1";"7659";"2014-10-16 12:23:32.139";"21";"9";"9";"9";"1358";"1512";"1794";"2014-10-16 12:23:24.480";"3";;;;;;;;;;;;;;;;;;;;;;;;;;;;;;;;;;;;;;;;;;;;;;;;;;;;;;;;;;;;;;;;;;;;;;;;;;;;;;;;
"p1429";"1994";;"Windows 7";"Rachel's Experiment (D.T.)";"1.0";"2";"1";"1";"2";"1";"1";"2014-10-16 12:12:33.829";"2014-10-16 12:26:32.654";"1";"1";"1";"170";"169";"module.devaluation_block1.exec-9039.deval1";"10211";"2014-10-16 12:23:42.369";"15";"1";"2";"2";"3942";"1204";"2070";"2014-10-16 12:23:32.159";"2";;;;;;;;;;;;;;;;;;;;;;;;;;;;;;;;;;;;;;;;;;;;;;;;;;;;;;;;;;;;;;;;;;;;;;;;;;;;;;;;
"p1429";"1994";;"Windows 7";"Rachel's Experiment (D.T.)";"1.0";"2";"1";"1";"2";"1";"1";"2014-10-16 12:12:33.829";"2014-10-16 12:26:32.654";"1";"1";"1";"171";"170";"module.devaluation_block1.exec-9039.deval1";"7486";"2014-10-16 12:23:49.919";"19";"8";"7";"8";"992";"1328";"2174";"2014-10-16 12:23:42.429";"3";;;;;;;;;;;;;;;;;;;;;;;;;;;;;;;;;;;;;;;;;;;;;;;;;;;;;;;;;;;;;;;;;;;;;;;;;;;;;;;;
"p1429";"1994";;"Windows 7";"Rachel's Experiment (D.T.)";"1.0";"2";"1";"1";"2";"1";"1";"2014-10-16 12:12:33.829";"2014-10-16 12:26:32.654";"1";"1";"1";"172";"171";"module.devaluation_block1.exec-9039.deval1";"8586";"2014-10-16 12:23:58.519";"24";"6";"4";"5";"2650";"1396";"1540";"2014-10-16 12:23:49.939";"3";;;;;;;;;;;;;;;;;;;;;;;;;;;;;;;;;;;;;;;;;;;;;;;;;;;;;;;;;;;;;;;;;;;;;;;;;;;;;;;;
"p1429";"1994";;"Windows 7";"Rachel's Experiment (D.T.)";"1.0";"2";"1";"1";"2";"1";"1";"2014-10-16 12:12:33.829";"2014-10-16 12:26:32.654";"1";"1";"1";"173";"172";"module.devaluation_block1.exec-9039.deval1";"7601";"2014-10-16 12:24:06.258";"5";"6";"3";"6";"1930";"1235";"1404";"2014-10-16 12:23:58.659";"1";;;;;;;;;;;;;;;;;;;;;;;;;;;;;;;;;;;;;;;;;;;;;;;;;;;;;;;;;;;;;;;;;;;;;;;;;;;;;;;;
"p1429";"1994";;"Windows 7";"Rachel's Experiment (D.T.)";"1.0";"2";"1";"1";"2";"1";"1";"2014-10-16 12:12:33.829";"2014-10-16 12:26:32.654";"1";"1";"1";"174";"173";"module.devaluation_block1.exec-9039.deval1";"7931";"2014-10-16 12:24:14.208";"7";"6";"6";"7";"2062";"1044";"1830";"2014-10-16 12:24:06.278";"1";;;;;;;;;;;;;;;;;;;;;;;;;;;;;;;;;;;;;;;;;;;;;;;;;;;;;;;;;;;;;;;;;;;;;;;;;;;;;;;;
"p1429";"1994";;"Windows 7";"Rachel's Experiment (D.T.)";"1.0";"2";"1";"1";"2";"1";"1";"2014-10-16 12:12:33.829";"2014-10-16 12:26:32.654";"1";"1";"1";"175";"174";"module.devaluation_block1.exec-9039.deval1";"11143";"2014-10-16 12:24:25.378";"18";"5";"2";"6";"1854";"3892";"2400";"2014-10-16 12:24:14.238";"3";;;;;;;;;;;;;;;;;;;;;;;;;;;;;;;;;;;;;;;;;;;;;;;;;;;;;;;;;;;;;;;;;;;;;;;;;;;;;;;;
"p1429";"1994";;"Windows 7";"Rachel's Experiment (D.T.)";"1.0";"2";"1";"1";"2";"1";"1";"2014-10-16 12:12:33.829";"2014-10-16 12:26:32.654";"1";"1";"1";"176";"175";"module.devaluation_block1.exec-9039.deval1";"8968";"2014-10-16 12:24:34.368";"12";"7";"6";"8";"2510";"1484";"1980";"2014-10-16 12:24:25.398";"2";;;;;;;;;;;;;;;;;;;;;;;;;;;;;;;;;;;;;;;;;;;;;;;;;;;;;;;;;;;;;;;;;;;;;;;;;;;;;;;;
"p1429";"1994";;"Windows 7";"Rachel's Experiment (D.T.)";"1.0";"2";"1";"1";"2";"1";"1";"2014-10-16 12:12:33.829";"2014-10-16 12:26:32.654";"1";"1";"1";"177";"176";"module.devaluation_block1.exec-9039.deval1";"7795";"2014-10-16 12:24:42.187";"6";"4";"3";"5";"1968";"810";"2026";"2014-10-16 12:24:34.388";"1";;;;;;;;;;;;;;;;;;;;;;;;;;;;;;;;;;;;;;;;;;;;;;;;;;;;;;;;;;;;;;;;;;;;;;;;;;;;;;;;
"p1429";"1994";;"Windows 7";"Rachel's Experiment (D.T.)";"1.0";"2";"1";"1";"2";"1";"1";"2014-10-16 12:12:33.829";"2014-10-16 12:26:32.654";"1";"1";"1";"178";"177";"module.devaluation_block1.exec-9039.deval1";"9075";"2014-10-16 12:24:51.277";"4";"9";"6";"9";"1196";"2576";"2314";"2014-10-16 12:24:42.207";"1";;;;;;;;;;;;;;;;;;;;;;;;;;;;;;;;;;;;;;;;;;;;;;;;;;;;;;;;;;;;;;;;;;;;;;;;;;;;;;;;
"p1429";"1994";;"Windows 7";"Rachel's Experiment (D.T.)";"1.0";"2";"1";"1";"2";"1";"1";"2014-10-16 12:12:33.829";"2014-10-16 12:26:32.654";"1";"1";"1";"179";"178";"module.devaluation_block1.exec-9039.deval1";"7059";"2014-10-16 12:24:58.357";"22";"7";"6";"7";"1130";"1676";"1260";"2014-10-16 12:24:51.297";"3";;;;;;;;;;;;;;;;;;;;;;;;;;;;;;;;;;;;;;;;;;;;;;;;;;;;;;;;;;;;;;;;;;;;;;;;;;;;;;;;
"p1429";"1994";;"Windows 7";"Rachel's Experiment (D.T.)";"1.0";"2";"1";"1";"2";"1";"1";"2014-10-16 12:12:33.829";"2014-10-16 12:26:32.654";"1";"1";"1";"180";"179";"module.devaluation_block1.exec-9039.deval1";"7160";"2014-10-16 12:25:05.547";"16";"2";"1";"2";"1208";"1570";"1378";"2014-10-16 12:24:58.387";"2";;;;;;;;;;;;;;;;;;;;;;;;;;;;;;;;;;;;;;;;;;;;;;;;;;;;;;;;;;;;;;;;;;;;;;;;;;;;;;;;
"p1429";"1994";;"Windows 7";"Rachel's Experiment (D.T.)";"1.0";"2";"1";"1";"2";"1";"1";"2014-10-16 12:12:33.829";"2014-10-16 12:26:32.654";"1";"1";"1";"181";"180";"module.devaluation_block1.exec-9039.deval1";"7480";"2014-10-16 12:25:13.046";"2";"4";"4";"5";"1756";"1284";"1450";"2014-10-16 12:25:05.567";"1";;;;;;;;;;;;;;;;;;;;;;;;;;;;;;;;;;;;;;;;;;;;;;;;;;;;;;;;;;;;;;;;;;;;;;;;;;;;;;;;
"p1429";"1994";;"Windows 7";"Rachel's Experiment (D.T.)";"1.0";"2";"1";"1";"2";"1";"1";"2014-10-16 12:12:33.829";"2014-10-16 12:26:32.654";"1";"1";"1";"182";"181";"module.devaluation_block1.exec-9039.deval1";"8299";"2014-10-16 12:25:21.366";"13";"7";"4";"5";"2560";"1134";"1612";"2014-10-16 12:25:13.066";"2";;;;;;;;;;;;;;;;;;;;;;;;;;;;;;;;;;;;;;;;;;;;;;;;;;;;;;;;;;;;;;;;;;;;;;;;;;;;;;;;
"p1429";"1994";;"Windows 7";"Rachel's Experiment (D.T.)";"1.0";"2";"1";"1";"2";"1";"1";"2014-10-16 12:12:33.829";"2014-10-16 12:26:32.654";"1";"1";"1";"183";"182";"module.devaluation_block1.exec-9039.deval1";"10690";"2014-10-16 12:25:32.076";"26";"7";"1";"5";"2360";"3386";"1948";"2014-10-16 12:25:21.386";"3";;;;;;;;;;;;;;;;;;;;;;;;;;;;;;;;;;;;;;;;;;;;;;;;;;;;;;;;;;;;;;;;;;;;;;;;;;;;;;;;
"p1429";"1994";;"Windows 7";"Rachel's Experiment (D.T.)";"1.0";"2";"1";"1";"2";"1";"1";"2014-10-16 12:12:33.829";"2014-10-16 12:26:32.654";"1";"1";"1";"184";"183";"module.devaluation_block1.exec-9039.deval1";"8778";"2014-10-16 12:25:40.876";"17";"1";"2";"2";"1504";"2616";"1664";"2014-10-16 12:25:32.106";"2";;;;;;;;;;;;;;;;;;;;;;;;;;;;;;;;;;;;;;;;;;;;;;;;;;;;;;;;;;;;;;;;;;;;;;;;;;;;;;;;
"p1429";"1994";;"Windows 7";"Rachel's Experiment (D.T.)";"1.0";"2";"1";"1";"2";"1";"1";"2014-10-16 12:12:33.829";"2014-10-16 12:26:32.654";"1";"1";"1";"185";"184";"module.devaluation_block1.exec-9039.deval1";"11834";"2014-10-16 12:25:52.735";"25";"9";"6";"8";"2993";"4371";"1480";"2014-10-16 12:25:40.896";"3";;;;;;;;;;;;;;;;;;;;;;;;;;;;;;;;;;;;;;;;;;;;;;;;;;;;;;;;;;;;;;;;;;;;;;;;;;;;;;;;
"p1429";"1994";;"Windows 7";"Rachel's Experiment (D.T.)";"1.0";"2";"1";"1";"2";"1";"1";"2014-10-16 12:12:33.829";"2014-10-16 12:26:32.654";"1";"1";"1";"186";"185";"module.devaluation_block1.exec-9039.deval1";"8330";"2014-10-16 12:26:01.085";"23";"6";"3";"6";"654";"2583";"2103";"2014-10-16 12:25:52.755";"3";;;;;;;;;;;;;;;;;;;;;;;;;;;;;;;;;;;;;;;;;;;;;;;;;;;;;;;;;;;;;;;;;;;;;;;;;;;;;;;;
"p1429";"1994";;"Windows 7";"Rachel's Experiment (D.T.)";"1.0";"2";"1";"1";"2";"1";"1";"2014-10-16 12:12:33.829";"2014-10-16 12:26:32.654";"1";"1";"1";"187";"186";"module.devaluation_block1.exec-9039.deval1";"6939";"2014-10-16 12:26:08.045";"8";"4";"2";"5";"1231";"1193";"1525";"2014-10-16 12:26:01.105";"1";;;;;;;;;;;;;;;;;;;;;;;;;;;;;;;;;;;;;;;;;;;;;;;;;;;;;;;;;;;;;;;;;;;;;;;;;;;;;;;;
"p1429";"1994";;"Windows 7";"Rachel's Experiment (D.T.)";"1.0";"2";"1";"1";"2";"1";"1";"2014-10-16 12:12:33.829";"2014-10-16 12:26:32.654";"1";"1";"1";"188";"187";"module.devaluation_block1.exec-9039.deval1";"7170";"2014-10-16 12:26:15.235";"0";"4";"6";"6";"743";"1665";"1775";"2014-10-16 12:26:08.065";"1";;;;;;;;;;;;;;;;;;;;;;;;;;;;;;;;;;;;;;;;;;;;;;;;;;;;;;;;;;;;;;;;;;;;;;;;;;;;;;;;
"p1429";"1994";;"Windows 7";"Rachel's Experiment (D.T.)";"1.0";"2";"1";"1";"2";"1";"1";"2014-10-16 12:12:33.829";"2014-10-16 12:26:32.654";"1";"1";"1";"189";"188";"module.devaluation_block1.exec-9039.deval1";"7691";"2014-10-16 12:26:22.954";"10";"7";"5";"6";"1201";"977";"2517";"2014-10-16 12:26:15.255";"2";;;;;;;;;;;;;;;;;;;;;;;;;;;;;;;;;;;;;;;;;;;;;;;;;;;;;;;;;;;;;;;;;;;;;;;;;;;;;;;;
"p1429";"1994";;"Windows 7";"Rachel's Experiment (D.T.)";"1.0";"2";"1";"1";"2";"1";"1";"2014-10-16 12:12:33.829";"2014-10-16 12:26:32.654";"1";"1";"1";"190";"189";"module.devaluation_block1.exec-9039.deval1";"7435";"2014-10-16 12:26:30.404";"11";"6";"4";"4";"697";"1043";"2689";"2014-10-16 12:26:22.974";"2";;;;;;;;;;;;;;;;;;;;;;;;;;;;;;;;;;;;;;;;;;;;;;;;;;;;;;;;;;;;;;;;;;;;;;;;;;;;;;;;
