"user.name";"user.yearOfBirth";"user.sex";"user.osName";"module.name";"module.version";"module.online.subject.code";"module.online.study.id";"module.online.module.nr";"module.online.group.nr";"session.id";"session.index";"session.startTime";"session.endTime";"session.completed";"session.node-1079.conditionType";"session.node-5369.DevalQorder";"trial.id";"trial.index";"trial.name";"trial.deval1.durationTime";"trial.deval1.endTime";"trial.deval1.icon";"trial.deval1.Resp_Attractive";"trial.deval1.Resp_Eat";"trial.deval1.Resp_Taste";"trial.deval1.RT_Attractive";"trial.deval1.RT_Eat";"trial.deval1.RT_Taste";"trial.deval1.startTime";"trial.deval1.stimulus type";"trial.devalPractice.durationTime";"trial.devalPractice.endTime";"trial.devalPractice.icon";"trial.devalPractice.Resp_Attractive";"trial.devalPractice.Resp_Eat";"trial.devalPractice.Resp_Taste";"trial.devalPractice.RT_Attractive";"trial.devalPractice.RT_Eat";"trial.devalPractice.RT_Taste";"trial.devalPractice.startTime";"trial.devalPractice.stimulus type";"trial.GoNoGo1.durationTime";"trial.GoNoGo1.endTime";"trial.GoNoGo1.Error Type";"trial.GoNoGo1.icon";"trial.GoNoGo1.location";"trial.GoNoGo1.outcome";"trial.GoNoGo1.response";"trial.GoNoGo1.result";"trial.GoNoGo1.RT";"trial.GoNoGo1.signal";"trial.GoNoGo1.startTime";"trial.GoNoGo1.stimulus type";"trial.GoNoGo2.durationTime";"trial.GoNoGo2.endTime";"trial.GoNoGo2.Error Type";"trial.GoNoGo2.icon";"trial.GoNoGo2.location";"trial.GoNoGo2.outcome";"trial.GoNoGo2.response";"trial.GoNoGo2.result";"trial.GoNoGo2.RT";"trial.GoNoGo2.signal";"trial.GoNoGo2.startTime";"trial.GoNoGo2.stimulus type";"trial.GoNoGo3.durationTime";"trial.GoNoGo3.endTime";"trial.GoNoGo3.Error Type";"trial.GoNoGo3.icon";"trial.GoNoGo3.location";"trial.GoNoGo3.outcome";"trial.GoNoGo3.response";"trial.GoNoGo3.result";"trial.GoNoGo3.RT";"trial.GoNoGo3.signal";"trial.GoNoGo3.startTime";"trial.GoNoGo3.stimulus type";"trial.GoNoGo4.durationTime";"trial.GoNoGo4.endTime";"trial.GoNoGo4.Error Type";"trial.GoNoGo4.icon";"trial.GoNoGo4.location";"trial.GoNoGo4.outcome";"trial.GoNoGo4.response";"trial.GoNoGo4.result";"trial.GoNoGo4.RT";"trial.GoNoGo4.signal";"trial.GoNoGo4.startTime";"trial.GoNoGo4.stimulus type";"trial.GoNoGo_Practice.durationTime";"trial.GoNoGo_Practice.endTime";"trial.GoNoGo_Practice.icon";"trial.GoNoGo_Practice.location";"trial.GoNoGo_Practice.outcome";"trial.GoNoGo_Practice.response";"trial.GoNoGo_Practice.result";"trial.GoNoGo_Practice.RT";"trial.GoNoGo_Practice.signal";"trial.GoNoGo_Practice.startTime";"trial.GoNoGo_Practice.stimulus type";"trial.GoNoGo_Tutorial.durationTime";"trial.GoNoGo_Tutorial.endTime";"trial.GoNoGo_Tutorial.icon";"trial.GoNoGo_Tutorial.location";"trial.GoNoGo_Tutorial.outcome";"trial.GoNoGo_Tutorial.response";"trial.GoNoGo_Tutorial.result";"trial.GoNoGo_Tutorial.RT";"trial.GoNoGo_Tutorial.signal";"trial.GoNoGo_Tutorial.startTime"
"Nicola123";"1994";;"Windows 7";"Rachel's Experiment (D.T.)";"1.0";"2";"1";"1";"2";"1";"1";"2014-10-07 11:00:20.995";"2014-10-07 11:14:34.104";"1";"0";"1";"1";"0";"module.GoNoGotutorial.exec-9038.GoNoGo_Tutorial";;;;;;;;;;;;;;;;;;;;;;;;;;;;;;;;;;;;;;;;;;;;;;;;;;;;;;;;;;;;;;;;;;;;;;;;;;;;;;;;;;"4001";"2014-10-07 11:01:24.803";"leftResponse";"0";"FINISHED";"LEFT";"success";"2150";"0";"2014-10-07 11:01:20.794"
"Nicola123";"1994";;"Windows 7";"Rachel's Experiment (D.T.)";"1.0";"2";"1";"1";"2";"1";"1";"2014-10-07 11:00:20.995";"2014-10-07 11:14:34.104";"1";"0";"1";"2";"1";"module.GoNoGotutorial.exec-9038.GoNoGo_Tutorial";;;;;;;;;;;;;;;;;;;;;;;;;;;;;;;;;;;;;;;;;;;;;;;;;;;;;;;;;;;;;;;;;;;;;;;;;;;;;;;;;;"4006";"2014-10-07 11:01:31.839";"rightResponse";"1";"FINISHED";"NONE";"failure";"0";"0";"2014-10-07 11:01:27.830"
"Nicola123";"1994";;"Windows 7";"Rachel's Experiment (D.T.)";"1.0";"2";"1";"1";"2";"1";"1";"2014-10-07 11:00:20.995";"2014-10-07 11:14:34.104";"1";"0";"1";"3";"2";"module.GoNoGotutorial.exec-9038.GoNoGo_Tutorial";;;;;;;;;;;;;;;;;;;;;;;;;;;;;;;;;;;;;;;;;;;;;;;;;;;;;;;;;;;;;;;;;;;;;;;;;;;;;;;;;;"4000";"2014-10-07 11:01:38.875";"quickResponse";"0";"FINISHED";"NONE";"failure";"0";"0";"2014-10-07 11:01:34.866"
"Nicola123";"1994";;"Windows 7";"Rachel's Experiment (D.T.)";"1.0";"2";"1";"1";"2";"1";"1";"2014-10-07 11:00:20.995";"2014-10-07 11:14:34.104";"1";"0";"1";"4";"3";"module.GoNoGopractice.exec-6424.GoNoGo_Practice";;;;;;;;;;;;;;;;;;;;;;;;;;;;;;;;;;;;;;;;;;;;;;;;;;;;;;;;;;;;;;;;;;;;;;;"3263";"2014-10-07 11:01:52.620";"18";"0";"FINISHED";"LEFT";"success";"413";"0";"2014-10-07 11:01:49.344";"3";;;;;;;;;;
"Nicola123";"1994";;"Windows 7";"Rachel's Experiment (D.T.)";"1.0";"2";"1";"1";"2";"1";"1";"2014-10-07 11:00:20.995";"2014-10-07 11:14:34.104";"1";"0";"1";"5";"4";"module.GoNoGopractice.exec-6424.GoNoGo_Practice";;;;;;;;;;;;;;;;;;;;;;;;;;;;;;;;;;;;;;;;;;;;;;;;;;;;;;;;;;;;;;;;;;;;;;;"1953";"2014-10-07 11:01:57.316";"21";"1";"FINISHED";"RIGHT";"success";"328";"0";"2014-10-07 11:01:55.350";"3";;;;;;;;;;
"Nicola123";"1994";;"Windows 7";"Rachel's Experiment (D.T.)";"1.0";"2";"1";"1";"2";"1";"1";"2014-10-07 11:00:20.995";"2014-10-07 11:14:34.104";"1";"0";"1";"6";"5";"module.GoNoGopractice.exec-6424.GoNoGo_Practice";;;;;;;;;;;;;;;;;;;;;;;;;;;;;;;;;;;;;;;;;;;;;;;;;;;;;;;;;;;;;;;;;;;;;;;"1959";"2014-10-07 11:02:01.949";"14";"1";"FINISHED";"RIGHT";"success";"524";"0";"2014-10-07 11:01:59.984";"2";;;;;;;;;;
"Nicola123";"1994";;"Windows 7";"Rachel's Experiment (D.T.)";"1.0";"2";"1";"1";"2";"1";"1";"2014-10-07 11:00:20.995";"2014-10-07 11:14:34.104";"1";"0";"1";"7";"6";"module.GoNoGopractice.exec-6424.GoNoGo_Practice";;;;;;;;;;;;;;;;;;;;;;;;;;;;;;;;;;;;;;;;;;;;;;;;;;;;;;;;;;;;;;;;;;;;;;;"1951";"2014-10-07 11:02:06.676";"26";"0";"FINISHED";"LEFT";"success";"381";"0";"2014-10-07 11:02:04.711";"3";;;;;;;;;;
"Nicola123";"1994";;"Windows 7";"Rachel's Experiment (D.T.)";"1.0";"2";"1";"1";"2";"1";"1";"2014-10-07 11:00:20.995";"2014-10-07 11:14:34.104";"1";"0";"1";"8";"7";"module.GoNoGopractice.exec-6424.GoNoGo_Practice";;;;;;;;;;;;;;;;;;;;;;;;;;;;;;;;;;;;;;;;;;;;;;;;;;;;;;;;;;;;;;;;;;;;;;;"1957";"2014-10-07 11:02:11.388";"2";"0";"FINISHED";"LEFT";"success";"420";"0";"2014-10-07 11:02:09.422";"1";;;;;;;;;;
"Nicola123";"1994";;"Windows 7";"Rachel's Experiment (D.T.)";"1.0";"2";"1";"1";"2";"1";"1";"2014-10-07 11:00:20.995";"2014-10-07 11:14:34.104";"1";"0";"1";"9";"8";"module.GoNoGopractice.exec-6424.GoNoGo_Practice";;;;;;;;;;;;;;;;;;;;;;;;;;;;;;;;;;;;;;;;;;;;;;;;;;;;;;;;;;;;;;;;;;;;;;;"1954";"2014-10-07 11:02:16.162";"30";"0";"FINISHED";"LEFT";"success";"467";"0";"2014-10-07 11:02:14.196";"3";;;;;;;;;;
"Nicola123";"1994";;"Windows 7";"Rachel's Experiment (D.T.)";"1.0";"2";"1";"1";"2";"1";"1";"2014-10-07 11:00:20.995";"2014-10-07 11:14:34.104";"1";"0";"1";"10";"9";"module.GoNoGopractice.exec-6424.GoNoGo_Practice";;;;;;;;;;;;;;;;;;;;;;;;;;;;;;;;;;;;;;;;;;;;;;;;;;;;;;;;;;;;;;;;;;;;;;;"1963";"2014-10-07 11:02:21.139";"6";"1";"FINISHED";"RIGHT";"success";"508";"0";"2014-10-07 11:02:19.173";"1";;;;;;;;;;
"Nicola123";"1994";;"Windows 7";"Rachel's Experiment (D.T.)";"1.0";"2";"1";"1";"2";"1";"1";"2014-10-07 11:00:20.995";"2014-10-07 11:14:34.104";"1";"0";"1";"11";"10";"module.GoNoGopractice.exec-6424.GoNoGo_Practice";;;;;;;;;;;;;;;;;;;;;;;;;;;;;;;;;;;;;;;;;;;;;;;;;;;;;;;;;;;;;;;;;;;;;;;"1964";"2014-10-07 11:02:25.991";"34";"0";"FINISHED";"LEFT";"success";"546";"0";"2014-10-07 11:02:24.025";"3";;;;;;;;;;
"Nicola123";"1994";;"Windows 7";"Rachel's Experiment (D.T.)";"1.0";"2";"1";"1";"2";"1";"1";"2014-10-07 11:00:20.995";"2014-10-07 11:14:34.104";"1";"0";"1";"12";"11";"module.GoNoGopractice.exec-6424.GoNoGo_Practice";;;;;;;;;;;;;;;;;;;;;;;;;;;;;;;;;;;;;;;;;;;;;;;;;;;;;;;;;;;;;;;;;;;;;;;"1963";"2014-10-07 11:02:30.811";"23";"1";"FINISHED";"RIGHT";"success";"371";"0";"2014-10-07 11:02:28.846";"3";;;;;;;;;;
"Nicola123";"1994";;"Windows 7";"Rachel's Experiment (D.T.)";"1.0";"2";"1";"1";"2";"1";"1";"2014-10-07 11:00:20.995";"2014-10-07 11:14:34.104";"1";"0";"1";"13";"12";"module.GoNoGopractice.exec-6424.GoNoGo_Practice";;;;;;;;;;;;;;;;;;;;;;;;;;;;;;;;;;;;;;;;;;;;;;;;;;;;;;;;;;;;;;;;;;;;;;;"1962";"2014-10-07 11:02:35.445";"13";"0";"FINISHED";"LEFT";"success";"457";"0";"2014-10-07 11:02:33.479";"2";;;;;;;;;;
"Nicola123";"1994";;"Windows 7";"Rachel's Experiment (D.T.)";"1.0";"2";"1";"1";"2";"1";"1";"2014-10-07 11:00:20.995";"2014-10-07 11:14:34.104";"1";"0";"1";"14";"13";"module.GoNoGopractice.exec-6424.GoNoGo_Practice";;;;;;;;;;;;;;;;;;;;;;;;;;;;;;;;;;;;;;;;;;;;;;;;;;;;;;;;;;;;;;;;;;;;;;;"1952";"2014-10-07 11:02:40.203";"3";"1";"FINISHED";"RIGHT";"success";"410";"0";"2014-10-07 11:02:38.237";"1";;;;;;;;;;
"Nicola123";"1994";;"Windows 7";"Rachel's Experiment (D.T.)";"1.0";"2";"1";"1";"2";"1";"1";"2014-10-07 11:00:20.995";"2014-10-07 11:14:34.104";"1";"0";"1";"15";"14";"module.GoNoGopractice.exec-6424.GoNoGo_Practice";;;;;;;;;;;;;;;;;;;;;;;;;;;;;;;;;;;;;;;;;;;;;;;;;;;;;;;;;;;;;;;;;;;;;;;"1959";"2014-10-07 11:02:44.946";"27";"1";"FINISHED";"RIGHT";"success";"354";"0";"2014-10-07 11:02:42.980";"3";;;;;;;;;;
"Nicola123";"1994";;"Windows 7";"Rachel's Experiment (D.T.)";"1.0";"2";"1";"1";"2";"1";"1";"2014-10-07 11:00:20.995";"2014-10-07 11:14:34.104";"1";"0";"1";"16";"15";"module.training_block1.exec-2858.GoNoGo1";;;;;;;;;;;;;;;;;;;;;;;"1262";"2014-10-07 11:02:52.076";"NST_correctLoc";"3";"1";"FINISHED";"RIGHT";"success";"455";"0";"2014-10-07 11:02:50.812";"1";;;;;;;;;;;;;;;;;;;;;;;;;;;;;;;;;;;;;;;;;;;;;;;;;;;;;;;;;
"Nicola123";"1994";;"Windows 7";"Rachel's Experiment (D.T.)";"1.0";"2";"1";"1";"2";"1";"1";"2014-10-07 11:00:20.995";"2014-10-07 11:14:34.104";"1";"0";"1";"17";"16";"module.training_block1.exec-2858.GoNoGo1";;;;;;;;;;;;;;;;;;;;;;;"1259";"2014-10-07 11:02:55.976";"NST_correctLoc";"11";"1";"FINISHED";"RIGHT";"success";"553";"0";"2014-10-07 11:02:54.712";"2";;;;;;;;;;;;;;;;;;;;;;;;;;;;;;;;;;;;;;;;;;;;;;;;;;;;;;;;;
"Nicola123";"1994";;"Windows 7";"Rachel's Experiment (D.T.)";"1.0";"2";"1";"1";"2";"1";"1";"2014-10-07 11:00:20.995";"2014-10-07 11:14:34.104";"1";"0";"1";"18";"17";"module.training_block1.exec-2858.GoNoGo1";;;;;;;;;;;;;;;;;;;;;;;"1262";"2014-10-07 11:02:58.519";"NST_correctLoc";"18";"0";"FINISHED";"LEFT";"success";"429";"0";"2014-10-07 11:02:57.255";"3";;;;;;;;;;;;;;;;;;;;;;;;;;;;;;;;;;;;;;;;;;;;;;;;;;;;;;;;;
"Nicola123";"1994";;"Windows 7";"Rachel's Experiment (D.T.)";"1.0";"2";"1";"1";"2";"1";"1";"2014-10-07 11:00:20.995";"2014-10-07 11:14:34.104";"1";"0";"1";"19";"18";"module.training_block1.exec-2858.GoNoGo1";;;;;;;;;;;;;;;;;;;;;;;"1248";"2014-10-07 11:03:02.372";"NST_correctLoc";"0";"0";"FINISHED";"LEFT";"success";"370";"0";"2014-10-07 11:03:01.109";"1";;;;;;;;;;;;;;;;;;;;;;;;;;;;;;;;;;;;;;;;;;;;;;;;;;;;;;;;;
"Nicola123";"1994";;"Windows 7";"Rachel's Experiment (D.T.)";"1.0";"2";"1";"1";"2";"1";"1";"2014-10-07 11:00:20.995";"2014-10-07 11:14:34.104";"1";"0";"1";"20";"19";"module.training_block1.exec-2858.GoNoGo1";;;;;;;;;;;;;;;;;;;;;;;"1263";"2014-10-07 11:03:06.616";"NST_correctLoc";"7";"0";"FINISHED";"LEFT";"success";"430";"0";"2014-10-07 11:03:05.352";"1";;;;;;;;;;;;;;;;;;;;;;;;;;;;;;;;;;;;;;;;;;;;;;;;;;;;;;;;;
"Nicola123";"1994";;"Windows 7";"Rachel's Experiment (D.T.)";"1.0";"2";"1";"1";"2";"1";"1";"2014-10-07 11:00:20.995";"2014-10-07 11:14:34.104";"1";"0";"1";"21";"20";"module.training_block1.exec-2858.GoNoGo1";;;;;;;;;;;;;;;;;;;;;;;"1261";"2014-10-07 11:03:10.719";"NST_correctLoc";"33";"1";"FINISHED";"RIGHT";"success";"381";"0";"2014-10-07 11:03:09.455";"3";;;;;;;;;;;;;;;;;;;;;;;;;;;;;;;;;;;;;;;;;;;;;;;;;;;;;;;;;
"Nicola123";"1994";;"Windows 7";"Rachel's Experiment (D.T.)";"1.0";"2";"1";"1";"2";"1";"1";"2014-10-07 11:00:20.995";"2014-10-07 11:14:34.104";"1";"0";"1";"22";"21";"module.training_block1.exec-2858.GoNoGo1";;;;;;;;;;;;;;;;;;;;;;;"1262";"2014-10-07 11:03:13.262";"NST_correctLoc";"13";"0";"FINISHED";"LEFT";"success";"599";"0";"2014-10-07 11:03:11.998";"2";;;;;;;;;;;;;;;;;;;;;;;;;;;;;;;;;;;;;;;;;;;;;;;;;;;;;;;;;
"Nicola123";"1994";;"Windows 7";"Rachel's Experiment (D.T.)";"1.0";"2";"1";"1";"2";"1";"1";"2014-10-07 11:00:20.995";"2014-10-07 11:14:34.104";"1";"0";"1";"23";"22";"module.training_block1.exec-2858.GoNoGo1";;;;;;;;;;;;;;;;;;;;;;;"1252";"2014-10-07 11:03:17.365";"NST_correctLoc";"35";"0";"FINISHED";"LEFT";"success";"406";"0";"2014-10-07 11:03:16.101";"3";;;;;;;;;;;;;;;;;;;;;;;;;;;;;;;;;;;;;;;;;;;;;;;;;;;;;;;;;
"Nicola123";"1994";;"Windows 7";"Rachel's Experiment (D.T.)";"1.0";"2";"1";"1";"2";"1";"1";"2014-10-07 11:00:20.995";"2014-10-07 11:14:34.104";"1";"0";"1";"24";"23";"module.training_block1.exec-2858.GoNoGo1";;;;;;;;;;;;;;;;;;;;;;;"1252";"2014-10-07 11:03:21.608";"NST_correctLoc";"8";"1";"FINISHED";"RIGHT";"success";"379";"0";"2014-10-07 11:03:20.345";"1";;;;;;;;;;;;;;;;;;;;;;;;;;;;;;;;;;;;;;;;;;;;;;;;;;;;;;;;;
"Nicola123";"1994";;"Windows 7";"Rachel's Experiment (D.T.)";"1.0";"2";"1";"1";"2";"1";"1";"2014-10-07 11:00:20.995";"2014-10-07 11:14:34.104";"1";"0";"1";"25";"24";"module.training_block1.exec-2858.GoNoGo1";;;;;;;;;;;;;;;;;;;;;;;"1253";"2014-10-07 11:03:25.524";"NST_correctLoc";"12";"1";"FINISHED";"RIGHT";"success";"384";"0";"2014-10-07 11:03:24.261";"2";;;;;;;;;;;;;;;;;;;;;;;;;;;;;;;;;;;;;;;;;;;;;;;;;;;;;;;;;
"Nicola123";"1994";;"Windows 7";"Rachel's Experiment (D.T.)";"1.0";"2";"1";"1";"2";"1";"1";"2014-10-07 11:00:20.995";"2014-10-07 11:14:34.104";"1";"0";"1";"26";"25";"module.training_block1.exec-2858.GoNoGo1";;;;;;;;;;;;;;;;;;;;;;;"1258";"2014-10-07 11:03:29.690";"NST_correctLoc";"4";"0";"FINISHED";"LEFT";"success";"432";"0";"2014-10-07 11:03:28.426";"1";;;;;;;;;;;;;;;;;;;;;;;;;;;;;;;;;;;;;;;;;;;;;;;;;;;;;;;;;
"Nicola123";"1994";;"Windows 7";"Rachel's Experiment (D.T.)";"1.0";"2";"1";"1";"2";"1";"1";"2014-10-07 11:00:20.995";"2014-10-07 11:14:34.104";"1";"0";"1";"27";"26";"module.training_block1.exec-2858.GoNoGo1";;;;;;;;;;;;;;;;;;;;;;;"1255";"2014-10-07 11:03:33.762";"NST_correctLoc";"29";"0";"FINISHED";"LEFT";"success";"357";"0";"2014-10-07 11:03:32.498";"3";;;;;;;;;;;;;;;;;;;;;;;;;;;;;;;;;;;;;;;;;;;;;;;;;;;;;;;;;
"Nicola123";"1994";;"Windows 7";"Rachel's Experiment (D.T.)";"1.0";"2";"1";"1";"2";"1";"1";"2014-10-07 11:00:20.995";"2014-10-07 11:14:34.104";"1";"0";"1";"28";"27";"module.training_block1.exec-2858.GoNoGo1";;;;;;;;;;;;;;;;;;;;;;;"1262";"2014-10-07 11:03:36.305";"NST_correctLoc";"6";"0";"FINISHED";"LEFT";"success";"574";"0";"2014-10-07 11:03:35.041";"1";;;;;;;;;;;;;;;;;;;;;;;;;;;;;;;;;;;;;;;;;;;;;;;;;;;;;;;;;
"Nicola123";"1994";;"Windows 7";"Rachel's Experiment (D.T.)";"1.0";"2";"1";"1";"2";"1";"1";"2014-10-07 11:00:20.995";"2014-10-07 11:14:34.104";"1";"0";"1";"29";"28";"module.training_block1.exec-2858.GoNoGo1";;;;;;;;;;;;;;;;;;;;;;;"1255";"2014-10-07 11:03:40.345";"NST_correctLoc";"24";"0";"FINISHED";"LEFT";"success";"358";"0";"2014-10-07 11:03:39.082";"3";;;;;;;;;;;;;;;;;;;;;;;;;;;;;;;;;;;;;;;;;;;;;;;;;;;;;;;;;
"Nicola123";"1994";;"Windows 7";"Rachel's Experiment (D.T.)";"1.0";"2";"1";"1";"2";"1";"1";"2014-10-07 11:00:20.995";"2014-10-07 11:14:34.104";"1";"0";"1";"30";"29";"module.training_block1.exec-2858.GoNoGo1";;;;;;;;;;;;;;;;;;;;;;;"1248";"2014-10-07 11:03:44.386";"NST_correctLoc";"28";"1";"FINISHED";"RIGHT";"success";"343";"0";"2014-10-07 11:03:43.122";"3";;;;;;;;;;;;;;;;;;;;;;;;;;;;;;;;;;;;;;;;;;;;;;;;;;;;;;;;;
"Nicola123";"1994";;"Windows 7";"Rachel's Experiment (D.T.)";"1.0";"2";"1";"1";"2";"1";"1";"2014-10-07 11:00:20.995";"2014-10-07 11:14:34.104";"1";"0";"1";"31";"30";"module.training_block1.exec-2858.GoNoGo1";;;;;;;;;;;;;;;;;;;;;;;"1257";"2014-10-07 11:03:48.380";"NST_correctLoc";"22";"0";"FINISHED";"LEFT";"success";"414";"0";"2014-10-07 11:03:47.116";"3";;;;;;;;;;;;;;;;;;;;;;;;;;;;;;;;;;;;;;;;;;;;;;;;;;;;;;;;;
"Nicola123";"1994";;"Windows 7";"Rachel's Experiment (D.T.)";"1.0";"2";"1";"1";"2";"1";"1";"2014-10-07 11:00:20.995";"2014-10-07 11:14:34.104";"1";"0";"1";"32";"31";"module.training_block1.exec-2858.GoNoGo1";;;;;;;;;;;;;;;;;;;;;;;"1253";"2014-10-07 11:03:52.623";"NST_correctLoc";"9";"0";"FINISHED";"LEFT";"success";"359";"0";"2014-10-07 11:03:51.360";"2";;;;;;;;;;;;;;;;;;;;;;;;;;;;;;;;;;;;;;;;;;;;;;;;;;;;;;;;;
"Nicola123";"1994";;"Windows 7";"Rachel's Experiment (D.T.)";"1.0";"2";"1";"1";"2";"1";"1";"2014-10-07 11:00:20.995";"2014-10-07 11:14:34.104";"1";"0";"1";"33";"32";"module.training_block1.exec-2858.GoNoGo1";;;;;;;;;;;;;;;;;;;;;;;"1262";"2014-10-07 11:03:56.508";"NST_correctLoc";"10";"0";"FINISHED";"LEFT";"success";"460";"0";"2014-10-07 11:03:55.244";"2";;;;;;;;;;;;;;;;;;;;;;;;;;;;;;;;;;;;;;;;;;;;;;;;;;;;;;;;;
"Nicola123";"1994";;"Windows 7";"Rachel's Experiment (D.T.)";"1.0";"2";"1";"1";"2";"1";"1";"2014-10-07 11:00:20.995";"2014-10-07 11:14:34.104";"1";"0";"1";"34";"33";"module.training_block1.exec-2858.GoNoGo1";;;;;;;;;;;;;;;;;;;;;;;"1262";"2014-10-07 11:03:59.051";"NST_correctLoc";"21";"0";"FINISHED";"LEFT";"success";"373";"0";"2014-10-07 11:03:57.787";"3";;;;;;;;;;;;;;;;;;;;;;;;;;;;;;;;;;;;;;;;;;;;;;;;;;;;;;;;;
"Nicola123";"1994";;"Windows 7";"Rachel's Experiment (D.T.)";"1.0";"2";"1";"1";"2";"1";"1";"2014-10-07 11:00:20.995";"2014-10-07 11:14:34.104";"1";"0";"1";"35";"34";"module.training_block1.exec-2858.GoNoGo1";;;;;;;;;;;;;;;;;;;;;;;"1254";"2014-10-07 11:04:02.936";"NST_correctLoc";"1";"1";"FINISHED";"RIGHT";"success";"360";"0";"2014-10-07 11:04:01.672";"1";;;;;;;;;;;;;;;;;;;;;;;;;;;;;;;;;;;;;;;;;;;;;;;;;;;;;;;;;
"Nicola123";"1994";;"Windows 7";"Rachel's Experiment (D.T.)";"1.0";"2";"1";"1";"2";"1";"1";"2014-10-07 11:00:20.995";"2014-10-07 11:14:34.104";"1";"0";"1";"36";"35";"module.training_block1.exec-2858.GoNoGo1";;;;;;;;;;;;;;;;;;;;;;;"1249";"2014-10-07 11:04:06.867";"NST_correctLoc";"17";"1";"FINISHED";"RIGHT";"success";"399";"0";"2014-10-07 11:04:05.604";"2";;;;;;;;;;;;;;;;;;;;;;;;;;;;;;;;;;;;;;;;;;;;;;;;;;;;;;;;;
"Nicola123";"1994";;"Windows 7";"Rachel's Experiment (D.T.)";"1.0";"2";"1";"1";"2";"1";"1";"2014-10-07 11:00:20.995";"2014-10-07 11:14:34.104";"1";"0";"1";"37";"36";"module.training_block1.exec-2858.GoNoGo1";;;;;;;;;;;;;;;;;;;;;;;"1262";"2014-10-07 11:04:09.410";"NST_correctLoc";"23";"1";"FINISHED";"RIGHT";"success";"398";"0";"2014-10-07 11:04:08.147";"3";;;;;;;;;;;;;;;;;;;;;;;;;;;;;;;;;;;;;;;;;;;;;;;;;;;;;;;;;
"Nicola123";"1994";;"Windows 7";"Rachel's Experiment (D.T.)";"1.0";"2";"1";"1";"2";"1";"1";"2014-10-07 11:00:20.995";"2014-10-07 11:14:34.104";"1";"0";"1";"38";"37";"module.training_block1.exec-2858.GoNoGo1";;;;;;;;;;;;;;;;;;;;;;;"1262";"2014-10-07 11:04:11.953";"NST_correctLoc";"2";"1";"FINISHED";"RIGHT";"success";"327";"0";"2014-10-07 11:04:10.690";"1";;;;;;;;;;;;;;;;;;;;;;;;;;;;;;;;;;;;;;;;;;;;;;;;;;;;;;;;;
"Nicola123";"1994";;"Windows 7";"Rachel's Experiment (D.T.)";"1.0";"2";"1";"1";"2";"1";"1";"2014-10-07 11:00:20.995";"2014-10-07 11:14:34.104";"1";"0";"1";"39";"38";"module.training_block1.exec-2858.GoNoGo1";;;;;;;;;;;;;;;;;;;;;;;"1259";"2014-10-07 11:04:15.932";"NST_correctLoc";"20";"1";"FINISHED";"RIGHT";"success";"354";"0";"2014-10-07 11:04:14.668";"3";;;;;;;;;;;;;;;;;;;;;;;;;;;;;;;;;;;;;;;;;;;;;;;;;;;;;;;;;
"Nicola123";"1994";;"Windows 7";"Rachel's Experiment (D.T.)";"1.0";"2";"1";"1";"2";"1";"1";"2014-10-07 11:00:20.995";"2014-10-07 11:14:34.104";"1";"0";"1";"40";"39";"module.training_block1.exec-2858.GoNoGo1";;;;;;;;;;;;;;;;;;;;;;;"1263";"2014-10-07 11:04:20.019";"NST_correctLoc";"32";"1";"FINISHED";"RIGHT";"success";"614";"0";"2014-10-07 11:04:18.755";"3";;;;;;;;;;;;;;;;;;;;;;;;;;;;;;;;;;;;;;;;;;;;;;;;;;;;;;;;;
"Nicola123";"1994";;"Windows 7";"Rachel's Experiment (D.T.)";"1.0";"2";"1";"1";"2";"1";"1";"2014-10-07 11:00:20.995";"2014-10-07 11:14:34.104";"1";"0";"1";"41";"40";"module.training_block1.exec-2858.GoNoGo1";;;;;;;;;;;;;;;;;;;;;;;"1262";"2014-10-07 11:04:22.562";"NST_correctLoc";"30";"0";"FINISHED";"LEFT";"success";"455";"0";"2014-10-07 11:04:21.298";"3";;;;;;;;;;;;;;;;;;;;;;;;;;;;;;;;;;;;;;;;;;;;;;;;;;;;;;;;;
"Nicola123";"1994";;"Windows 7";"Rachel's Experiment (D.T.)";"1.0";"2";"1";"1";"2";"1";"1";"2014-10-07 11:00:20.995";"2014-10-07 11:14:34.104";"1";"0";"1";"42";"41";"module.training_block1.exec-2858.GoNoGo1";;;;;;;;;;;;;;;;;;;;;;;"1249";"2014-10-07 11:04:26.525";"NST_correctLoc";"19";"1";"FINISHED";"RIGHT";"success";"400";"0";"2014-10-07 11:04:25.261";"3";;;;;;;;;;;;;;;;;;;;;;;;;;;;;;;;;;;;;;;;;;;;;;;;;;;;;;;;;
"Nicola123";"1994";;"Windows 7";"Rachel's Experiment (D.T.)";"1.0";"2";"1";"1";"2";"1";"1";"2014-10-07 11:00:20.995";"2014-10-07 11:14:34.104";"1";"0";"1";"43";"42";"module.training_block1.exec-2858.GoNoGo1";;;;;;;;;;;;;;;;;;;;;;;"1262";"2014-10-07 11:04:29.068";"NST_correctLoc";"14";"0";"FINISHED";"LEFT";"success";"462";"0";"2014-10-07 11:04:27.804";"2";;;;;;;;;;;;;;;;;;;;;;;;;;;;;;;;;;;;;;;;;;;;;;;;;;;;;;;;;
"Nicola123";"1994";;"Windows 7";"Rachel's Experiment (D.T.)";"1.0";"2";"1";"1";"2";"1";"1";"2014-10-07 11:00:20.995";"2014-10-07 11:14:34.104";"1";"0";"1";"44";"43";"module.training_block1.exec-2858.GoNoGo1";;;;;;;;;;;;;;;;;;;;;;;"1248";"2014-10-07 11:04:32.999";"NST_correctLoc";"16";"0";"FINISHED";"LEFT";"success";"413";"0";"2014-10-07 11:04:31.735";"2";;;;;;;;;;;;;;;;;;;;;;;;;;;;;;;;;;;;;;;;;;;;;;;;;;;;;;;;;
"Nicola123";"1994";;"Windows 7";"Rachel's Experiment (D.T.)";"1.0";"2";"1";"1";"2";"1";"1";"2014-10-07 11:00:20.995";"2014-10-07 11:14:34.104";"1";"0";"1";"45";"44";"module.training_block1.exec-2858.GoNoGo1";;;;;;;;;;;;;;;;;;;;;;;"1262";"2014-10-07 11:04:35.542";"NST_correctLoc";"34";"0";"FINISHED";"LEFT";"success";"396";"0";"2014-10-07 11:04:34.278";"3";;;;;;;;;;;;;;;;;;;;;;;;;;;;;;;;;;;;;;;;;;;;;;;;;;;;;;;;;
"Nicola123";"1994";;"Windows 7";"Rachel's Experiment (D.T.)";"1.0";"2";"1";"1";"2";"1";"1";"2014-10-07 11:00:20.995";"2014-10-07 11:14:34.104";"1";"0";"1";"46";"45";"module.training_block1.exec-2858.GoNoGo1";;;;;;;;;;;;;;;;;;;;;;;"1262";"2014-10-07 11:04:38.085";"NST_correctLoc";"26";"1";"FINISHED";"RIGHT";"success";"365";"0";"2014-10-07 11:04:36.821";"3";;;;;;;;;;;;;;;;;;;;;;;;;;;;;;;;;;;;;;;;;;;;;;;;;;;;;;;;;
"Nicola123";"1994";;"Windows 7";"Rachel's Experiment (D.T.)";"1.0";"2";"1";"1";"2";"1";"1";"2014-10-07 11:00:20.995";"2014-10-07 11:14:34.104";"1";"0";"1";"47";"46";"module.training_block1.exec-2858.GoNoGo1";;;;;;;;;;;;;;;;;;;;;;;"1263";"2014-10-07 11:04:42.157";"NST_correctLoc";"31";"0";"FINISHED";"LEFT";"success";"366";"0";"2014-10-07 11:04:40.893";"3";;;;;;;;;;;;;;;;;;;;;;;;;;;;;;;;;;;;;;;;;;;;;;;;;;;;;;;;;
"Nicola123";"1994";;"Windows 7";"Rachel's Experiment (D.T.)";"1.0";"2";"1";"1";"2";"1";"1";"2014-10-07 11:00:20.995";"2014-10-07 11:14:34.104";"1";"0";"1";"48";"47";"module.training_block1.exec-2858.GoNoGo1";;;;;;;;;;;;;;;;;;;;;;;"1257";"2014-10-07 11:04:46.120";"NST_correctLoc";"15";"0";"FINISHED";"LEFT";"success";"365";"0";"2014-10-07 11:04:44.856";"2";;;;;;;;;;;;;;;;;;;;;;;;;;;;;;;;;;;;;;;;;;;;;;;;;;;;;;;;;
"Nicola123";"1994";;"Windows 7";"Rachel's Experiment (D.T.)";"1.0";"2";"1";"1";"2";"1";"1";"2014-10-07 11:00:20.995";"2014-10-07 11:14:34.104";"1";"0";"1";"49";"48";"module.training_block1.exec-2858.GoNoGo1";;;;;;;;;;;;;;;;;;;;;;;"1262";"2014-10-07 11:04:48.663";"NST_correctLoc";"27";"0";"FINISHED";"LEFT";"success";"460";"0";"2014-10-07 11:04:47.399";"3";;;;;;;;;;;;;;;;;;;;;;;;;;;;;;;;;;;;;;;;;;;;;;;;;;;;;;;;;
"Nicola123";"1994";;"Windows 7";"Rachel's Experiment (D.T.)";"1.0";"2";"1";"1";"2";"1";"1";"2014-10-07 11:00:20.995";"2014-10-07 11:14:34.104";"1";"0";"1";"50";"49";"module.training_block1.exec-2858.GoNoGo1";;;;;;;;;;;;;;;;;;;;;;;"1257";"2014-10-07 11:04:52.688";"NST_correctLoc";"25";"0";"FINISHED";"LEFT";"success";"390";"0";"2014-10-07 11:04:51.424";"3";;;;;;;;;;;;;;;;;;;;;;;;;;;;;;;;;;;;;;;;;;;;;;;;;;;;;;;;;
"Nicola123";"1994";;"Windows 7";"Rachel's Experiment (D.T.)";"1.0";"2";"1";"1";"2";"1";"1";"2014-10-07 11:00:20.995";"2014-10-07 11:14:34.104";"1";"0";"1";"51";"50";"module.training_block1.exec-2858.GoNoGo1";;;;;;;;;;;;;;;;;;;;;;;"1263";"2014-10-07 11:04:56.916";"NST_correctLoc";"5";"0";"FINISHED";"LEFT";"success";"328";"0";"2014-10-07 11:04:55.652";"1";;;;;;;;;;;;;;;;;;;;;;;;;;;;;;;;;;;;;;;;;;;;;;;;;;;;;;;;;
"Nicola123";"1994";;"Windows 7";"Rachel's Experiment (D.T.)";"1.0";"2";"1";"1";"2";"1";"1";"2014-10-07 11:00:20.995";"2014-10-07 11:14:34.104";"1";"0";"1";"52";"51";"module.training_block2.exec-4590.GoNoGo2";;;;;;;;;;;;;;;;;;;;;;;;;;;;;;;;;;;"1262";"2014-10-07 11:05:08.616";"NST_correctLoc";"16";"1";"FINISHED";"RIGHT";"success";"444";"0";"2014-10-07 11:05:07.353";"2";;;;;;;;;;;;;;;;;;;;;;;;;;;;;;;;;;;;;;;;;;;;;
"Nicola123";"1994";;"Windows 7";"Rachel's Experiment (D.T.)";"1.0";"2";"1";"1";"2";"1";"1";"2014-10-07 11:00:20.995";"2014-10-07 11:14:34.104";"1";"0";"1";"53";"52";"module.training_block2.exec-4590.GoNoGo2";;;;;;;;;;;;;;;;;;;;;;;;;;;;;;;;;;;"1262";"2014-10-07 11:05:11.159";"NST_correctLoc";"6";"1";"FINISHED";"RIGHT";"success";"509";"0";"2014-10-07 11:05:09.896";"1";;;;;;;;;;;;;;;;;;;;;;;;;;;;;;;;;;;;;;;;;;;;;
"Nicola123";"1994";;"Windows 7";"Rachel's Experiment (D.T.)";"1.0";"2";"1";"1";"2";"1";"1";"2014-10-07 11:00:20.995";"2014-10-07 11:14:34.104";"1";"0";"1";"54";"53";"module.training_block2.exec-4590.GoNoGo2";;;;;;;;;;;;;;;;;;;;;;;;;;;;;;;;;;;"1262";"2014-10-07 11:05:13.702";"NST_correctLoc";"17";"1";"FINISHED";"RIGHT";"success";"334";"0";"2014-10-07 11:05:12.439";"2";;;;;;;;;;;;;;;;;;;;;;;;;;;;;;;;;;;;;;;;;;;;;
"Nicola123";"1994";;"Windows 7";"Rachel's Experiment (D.T.)";"1.0";"2";"1";"1";"2";"1";"1";"2014-10-07 11:00:20.995";"2014-10-07 11:14:34.104";"1";"0";"1";"55";"54";"module.training_block2.exec-4590.GoNoGo2";;;;;;;;;;;;;;;;;;;;;;;;;;;;;;;;;;;"1262";"2014-10-07 11:05:16.245";"NST_correctLoc";"9";"0";"FINISHED";"LEFT";"success";"311";"0";"2014-10-07 11:05:14.982";"2";;;;;;;;;;;;;;;;;;;;;;;;;;;;;;;;;;;;;;;;;;;;;
"Nicola123";"1994";;"Windows 7";"Rachel's Experiment (D.T.)";"1.0";"2";"1";"1";"2";"1";"1";"2014-10-07 11:00:20.995";"2014-10-07 11:14:34.104";"1";"0";"1";"56";"55";"module.training_block2.exec-4590.GoNoGo2";;;;;;;;;;;;;;;;;;;;;;;;;;;;;;;;;;;"1262";"2014-10-07 11:05:18.788";"NST_correctLoc";"30";"1";"FINISHED";"RIGHT";"success";"360";"0";"2014-10-07 11:05:17.525";"3";;;;;;;;;;;;;;;;;;;;;;;;;;;;;;;;;;;;;;;;;;;;;
"Nicola123";"1994";;"Windows 7";"Rachel's Experiment (D.T.)";"1.0";"2";"1";"1";"2";"1";"1";"2014-10-07 11:00:20.995";"2014-10-07 11:14:34.104";"1";"0";"1";"57";"56";"module.training_block2.exec-4590.GoNoGo2";;;;;;;;;;;;;;;;;;;;;;;;;;;;;;;;;;;"1262";"2014-10-07 11:05:21.331";"NST_correctLoc";"22";"0";"FINISHED";"LEFT";"success";"338";"0";"2014-10-07 11:05:20.068";"3";;;;;;;;;;;;;;;;;;;;;;;;;;;;;;;;;;;;;;;;;;;;;
"Nicola123";"1994";;"Windows 7";"Rachel's Experiment (D.T.)";"1.0";"2";"1";"1";"2";"1";"1";"2014-10-07 11:00:20.995";"2014-10-07 11:14:34.104";"1";"0";"1";"58";"57";"module.training_block2.exec-4590.GoNoGo2";;;;;;;;;;;;;;;;;;;;;;;;;;;;;;;;;;;"1262";"2014-10-07 11:05:23.874";"NST_correctLoc";"34";"0";"FINISHED";"LEFT";"success";"363";"0";"2014-10-07 11:05:22.611";"3";;;;;;;;;;;;;;;;;;;;;;;;;;;;;;;;;;;;;;;;;;;;;
"Nicola123";"1994";;"Windows 7";"Rachel's Experiment (D.T.)";"1.0";"2";"1";"1";"2";"1";"1";"2014-10-07 11:00:20.995";"2014-10-07 11:14:34.104";"1";"0";"1";"59";"58";"module.training_block2.exec-4590.GoNoGo2";;;;;;;;;;;;;;;;;;;;;;;;;;;;;;;;;;;"1262";"2014-10-07 11:05:26.417";"NST_correctLoc";"13";"0";"FINISHED";"LEFT";"success";"324";"0";"2014-10-07 11:05:25.154";"2";;;;;;;;;;;;;;;;;;;;;;;;;;;;;;;;;;;;;;;;;;;;;
"Nicola123";"1994";;"Windows 7";"Rachel's Experiment (D.T.)";"1.0";"2";"1";"1";"2";"1";"1";"2014-10-07 11:00:20.995";"2014-10-07 11:14:34.104";"1";"0";"1";"60";"59";"module.training_block2.exec-4590.GoNoGo2";;;;;;;;;;;;;;;;;;;;;;;;;;;;;;;;;;;"1262";"2014-10-07 11:05:28.960";"NST_correctLoc";"18";"1";"FINISHED";"RIGHT";"success";"317";"0";"2014-10-07 11:05:27.697";"3";;;;;;;;;;;;;;;;;;;;;;;;;;;;;;;;;;;;;;;;;;;;;
"Nicola123";"1994";;"Windows 7";"Rachel's Experiment (D.T.)";"1.0";"2";"1";"1";"2";"1";"1";"2014-10-07 11:00:20.995";"2014-10-07 11:14:34.104";"1";"0";"1";"61";"60";"module.training_block2.exec-4590.GoNoGo2";;;;;;;;;;;;;;;;;;;;;;;;;;;;;;;;;;;"1262";"2014-10-07 11:05:31.503";"NST_correctLoc";"7";"0";"FINISHED";"LEFT";"success";"310";"0";"2014-10-07 11:05:30.240";"1";;;;;;;;;;;;;;;;;;;;;;;;;;;;;;;;;;;;;;;;;;;;;
"Nicola123";"1994";;"Windows 7";"Rachel's Experiment (D.T.)";"1.0";"2";"1";"1";"2";"1";"1";"2014-10-07 11:00:20.995";"2014-10-07 11:14:34.104";"1";"0";"1";"62";"61";"module.training_block2.exec-4590.GoNoGo2";;;;;;;;;;;;;;;;;;;;;;;;;;;;;;;;;;;"1262";"2014-10-07 11:05:34.046";"NST_correctLoc";"25";"0";"FINISHED";"LEFT";"success";"383";"0";"2014-10-07 11:05:32.783";"3";;;;;;;;;;;;;;;;;;;;;;;;;;;;;;;;;;;;;;;;;;;;;
"Nicola123";"1994";;"Windows 7";"Rachel's Experiment (D.T.)";"1.0";"2";"1";"1";"2";"1";"1";"2014-10-07 11:00:20.995";"2014-10-07 11:14:34.104";"1";"0";"1";"63";"62";"module.training_block2.exec-4590.GoNoGo2";;;;;;;;;;;;;;;;;;;;;;;;;;;;;;;;;;;"1262";"2014-10-07 11:05:36.589";"NST_correctLoc";"4";"1";"FINISHED";"RIGHT";"success";"345";"0";"2014-10-07 11:05:35.326";"1";;;;;;;;;;;;;;;;;;;;;;;;;;;;;;;;;;;;;;;;;;;;;
"Nicola123";"1994";;"Windows 7";"Rachel's Experiment (D.T.)";"1.0";"2";"1";"1";"2";"1";"1";"2014-10-07 11:00:20.995";"2014-10-07 11:14:34.104";"1";"0";"1";"64";"63";"module.training_block2.exec-4590.GoNoGo2";;;;;;;;;;;;;;;;;;;;;;;;;;;;;;;;;;;"1262";"2014-10-07 11:05:39.132";"NST_correctLoc";"0";"0";"FINISHED";"LEFT";"success";"346";"0";"2014-10-07 11:05:37.868";"1";;;;;;;;;;;;;;;;;;;;;;;;;;;;;;;;;;;;;;;;;;;;;
"Nicola123";"1994";;"Windows 7";"Rachel's Experiment (D.T.)";"1.0";"2";"1";"1";"2";"1";"1";"2014-10-07 11:00:20.995";"2014-10-07 11:14:34.104";"1";"0";"1";"65";"64";"module.training_block2.exec-4590.GoNoGo2";;;;;;;;;;;;;;;;;;;;;;;;;;;;;;;;;;;"1262";"2014-10-07 11:05:41.675";"NST_correctLoc";"32";"0";"FINISHED";"LEFT";"success";"347";"0";"2014-10-07 11:05:40.411";"3";;;;;;;;;;;;;;;;;;;;;;;;;;;;;;;;;;;;;;;;;;;;;
"Nicola123";"1994";;"Windows 7";"Rachel's Experiment (D.T.)";"1.0";"2";"1";"1";"2";"1";"1";"2014-10-07 11:00:20.995";"2014-10-07 11:14:34.104";"1";"0";"1";"66";"65";"module.training_block2.exec-4590.GoNoGo2";;;;;;;;;;;;;;;;;;;;;;;;;;;;;;;;;;;"1262";"2014-10-07 11:05:44.218";"NST_correctLoc";"15";"1";"FINISHED";"RIGHT";"success";"332";"0";"2014-10-07 11:05:42.954";"2";;;;;;;;;;;;;;;;;;;;;;;;;;;;;;;;;;;;;;;;;;;;;
"Nicola123";"1994";;"Windows 7";"Rachel's Experiment (D.T.)";"1.0";"2";"1";"1";"2";"1";"1";"2014-10-07 11:00:20.995";"2014-10-07 11:14:34.104";"1";"0";"1";"67";"66";"module.training_block2.exec-4590.GoNoGo2";;;;;;;;;;;;;;;;;;;;;;;;;;;;;;;;;;;"1262";"2014-10-07 11:05:46.761";"NST_correctLoc";"31";"1";"FINISHED";"RIGHT";"success";"341";"0";"2014-10-07 11:05:45.497";"3";;;;;;;;;;;;;;;;;;;;;;;;;;;;;;;;;;;;;;;;;;;;;
"Nicola123";"1994";;"Windows 7";"Rachel's Experiment (D.T.)";"1.0";"2";"1";"1";"2";"1";"1";"2014-10-07 11:00:20.995";"2014-10-07 11:14:34.104";"1";"0";"1";"68";"67";"module.training_block2.exec-4590.GoNoGo2";;;;;;;;;;;;;;;;;;;;;;;;;;;;;;;;;;;"1262";"2014-10-07 11:05:49.304";"NST_correctLoc";"2";"0";"FINISHED";"LEFT";"success";"358";"0";"2014-10-07 11:05:48.040";"1";;;;;;;;;;;;;;;;;;;;;;;;;;;;;;;;;;;;;;;;;;;;;
"Nicola123";"1994";;"Windows 7";"Rachel's Experiment (D.T.)";"1.0";"2";"1";"1";"2";"1";"1";"2014-10-07 11:00:20.995";"2014-10-07 11:14:34.104";"1";"0";"1";"69";"68";"module.training_block2.exec-4590.GoNoGo2";;;;;;;;;;;;;;;;;;;;;;;;;;;;;;;;;;;"1262";"2014-10-07 11:05:51.847";"NST_correctLoc";"29";"0";"FINISHED";"LEFT";"success";"360";"0";"2014-10-07 11:05:50.583";"3";;;;;;;;;;;;;;;;;;;;;;;;;;;;;;;;;;;;;;;;;;;;;
"Nicola123";"1994";;"Windows 7";"Rachel's Experiment (D.T.)";"1.0";"2";"1";"1";"2";"1";"1";"2014-10-07 11:00:20.995";"2014-10-07 11:14:34.104";"1";"0";"1";"70";"69";"module.training_block2.exec-4590.GoNoGo2";;;;;;;;;;;;;;;;;;;;;;;;;;;;;;;;;;;"1262";"2014-10-07 11:05:54.390";"NST_correctLoc";"24";"1";"FINISHED";"RIGHT";"success";"305";"0";"2014-10-07 11:05:53.126";"3";;;;;;;;;;;;;;;;;;;;;;;;;;;;;;;;;;;;;;;;;;;;;
"Nicola123";"1994";;"Windows 7";"Rachel's Experiment (D.T.)";"1.0";"2";"1";"1";"2";"1";"1";"2014-10-07 11:00:20.995";"2014-10-07 11:14:34.104";"1";"0";"1";"71";"70";"module.training_block2.exec-4590.GoNoGo2";;;;;;;;;;;;;;;;;;;;;;;;;;;;;;;;;;;"1262";"2014-10-07 11:05:56.933";"NST_correctLoc";"19";"0";"FINISHED";"LEFT";"success";"346";"0";"2014-10-07 11:05:55.669";"3";;;;;;;;;;;;;;;;;;;;;;;;;;;;;;;;;;;;;;;;;;;;;
"Nicola123";"1994";;"Windows 7";"Rachel's Experiment (D.T.)";"1.0";"2";"1";"1";"2";"1";"1";"2014-10-07 11:00:20.995";"2014-10-07 11:14:34.104";"1";"0";"1";"72";"71";"module.training_block2.exec-4590.GoNoGo2";;;;;;;;;;;;;;;;;;;;;;;;;;;;;;;;;;;"1262";"2014-10-07 11:05:59.476";"NST_correctLoc";"23";"1";"FINISHED";"RIGHT";"success";"307";"0";"2014-10-07 11:05:58.212";"3";;;;;;;;;;;;;;;;;;;;;;;;;;;;;;;;;;;;;;;;;;;;;
"Nicola123";"1994";;"Windows 7";"Rachel's Experiment (D.T.)";"1.0";"2";"1";"1";"2";"1";"1";"2014-10-07 11:00:20.995";"2014-10-07 11:14:34.104";"1";"0";"1";"73";"72";"module.training_block2.exec-4590.GoNoGo2";;;;;;;;;;;;;;;;;;;;;;;;;;;;;;;;;;;"1262";"2014-10-07 11:06:02.019";"NST_correctLoc";"14";"1";"FINISHED";"RIGHT";"success";"388";"0";"2014-10-07 11:06:00.755";"2";;;;;;;;;;;;;;;;;;;;;;;;;;;;;;;;;;;;;;;;;;;;;
"Nicola123";"1994";;"Windows 7";"Rachel's Experiment (D.T.)";"1.0";"2";"1";"1";"2";"1";"1";"2014-10-07 11:00:20.995";"2014-10-07 11:14:34.104";"1";"0";"1";"74";"73";"module.training_block2.exec-4590.GoNoGo2";;;;;;;;;;;;;;;;;;;;;;;;;;;;;;;;;;;"1262";"2014-10-07 11:06:04.562";"NST_correctLoc";"1";"0";"FINISHED";"LEFT";"success";"350";"0";"2014-10-07 11:06:03.298";"1";;;;;;;;;;;;;;;;;;;;;;;;;;;;;;;;;;;;;;;;;;;;;
"Nicola123";"1994";;"Windows 7";"Rachel's Experiment (D.T.)";"1.0";"2";"1";"1";"2";"1";"1";"2014-10-07 11:00:20.995";"2014-10-07 11:14:34.104";"1";"0";"1";"75";"74";"module.training_block2.exec-4590.GoNoGo2";;;;;;;;;;;;;;;;;;;;;;;;;;;;;;;;;;;"1262";"2014-10-07 11:06:07.105";"NST_correctLoc";"11";"0";"FINISHED";"LEFT";"success";"391";"0";"2014-10-07 11:06:05.841";"2";;;;;;;;;;;;;;;;;;;;;;;;;;;;;;;;;;;;;;;;;;;;;
"Nicola123";"1994";;"Windows 7";"Rachel's Experiment (D.T.)";"1.0";"2";"1";"1";"2";"1";"1";"2014-10-07 11:00:20.995";"2014-10-07 11:14:34.104";"1";"0";"1";"76";"75";"module.training_block2.exec-4590.GoNoGo2";;;;;;;;;;;;;;;;;;;;;;;;;;;;;;;;;;;"1262";"2014-10-07 11:06:09.648";"NST_correctLoc";"12";"1";"FINISHED";"RIGHT";"success";"320";"0";"2014-10-07 11:06:08.384";"2";;;;;;;;;;;;;;;;;;;;;;;;;;;;;;;;;;;;;;;;;;;;;
"Nicola123";"1994";;"Windows 7";"Rachel's Experiment (D.T.)";"1.0";"2";"1";"1";"2";"1";"1";"2014-10-07 11:00:20.995";"2014-10-07 11:14:34.104";"1";"0";"1";"77";"76";"module.training_block2.exec-4590.GoNoGo2";;;;;;;;;;;;;;;;;;;;;;;;;;;;;;;;;;;"1262";"2014-10-07 11:06:12.191";"NST_correctLoc";"33";"1";"FINISHED";"RIGHT";"success";"369";"0";"2014-10-07 11:06:10.927";"3";;;;;;;;;;;;;;;;;;;;;;;;;;;;;;;;;;;;;;;;;;;;;
"Nicola123";"1994";;"Windows 7";"Rachel's Experiment (D.T.)";"1.0";"2";"1";"1";"2";"1";"1";"2014-10-07 11:00:20.995";"2014-10-07 11:14:34.104";"1";"0";"1";"78";"77";"module.training_block2.exec-4590.GoNoGo2";;;;;;;;;;;;;;;;;;;;;;;;;;;;;;;;;;;"1262";"2014-10-07 11:06:14.734";"NST_correctLoc";"8";"0";"FINISHED";"LEFT";"success";"354";"0";"2014-10-07 11:06:13.470";"1";;;;;;;;;;;;;;;;;;;;;;;;;;;;;;;;;;;;;;;;;;;;;
"Nicola123";"1994";;"Windows 7";"Rachel's Experiment (D.T.)";"1.0";"2";"1";"1";"2";"1";"1";"2014-10-07 11:00:20.995";"2014-10-07 11:14:34.104";"1";"0";"1";"79";"78";"module.training_block2.exec-4590.GoNoGo2";;;;;;;;;;;;;;;;;;;;;;;;;;;;;;;;;;;"1262";"2014-10-07 11:06:17.277";"NST_correctLoc";"35";"0";"FINISHED";"LEFT";"success";"371";"0";"2014-10-07 11:06:16.013";"3";;;;;;;;;;;;;;;;;;;;;;;;;;;;;;;;;;;;;;;;;;;;;
"Nicola123";"1994";;"Windows 7";"Rachel's Experiment (D.T.)";"1.0";"2";"1";"1";"2";"1";"1";"2014-10-07 11:00:20.995";"2014-10-07 11:14:34.104";"1";"0";"1";"80";"79";"module.training_block2.exec-4590.GoNoGo2";;;;;;;;;;;;;;;;;;;;;;;;;;;;;;;;;;;"1262";"2014-10-07 11:06:19.820";"NST_correctLoc";"20";"1";"FINISHED";"RIGHT";"success";"349";"0";"2014-10-07 11:06:18.556";"3";;;;;;;;;;;;;;;;;;;;;;;;;;;;;;;;;;;;;;;;;;;;;
"Nicola123";"1994";;"Windows 7";"Rachel's Experiment (D.T.)";"1.0";"2";"1";"1";"2";"1";"1";"2014-10-07 11:00:20.995";"2014-10-07 11:14:34.104";"1";"0";"1";"81";"80";"module.training_block2.exec-4590.GoNoGo2";;;;;;;;;;;;;;;;;;;;;;;;;;;;;;;;;;;"1262";"2014-10-07 11:06:22.363";"NST_correctLoc";"3";"0";"FINISHED";"LEFT";"success";"390";"0";"2014-10-07 11:06:21.099";"1";;;;;;;;;;;;;;;;;;;;;;;;;;;;;;;;;;;;;;;;;;;;;
"Nicola123";"1994";;"Windows 7";"Rachel's Experiment (D.T.)";"1.0";"2";"1";"1";"2";"1";"1";"2014-10-07 11:00:20.995";"2014-10-07 11:14:34.104";"1";"0";"1";"82";"81";"module.training_block2.exec-4590.GoNoGo2";;;;;;;;;;;;;;;;;;;;;;;;;;;;;;;;;;;"1262";"2014-10-07 11:06:24.906";"NST_correctLoc";"26";"0";"FINISHED";"LEFT";"success";"415";"0";"2014-10-07 11:06:23.642";"3";;;;;;;;;;;;;;;;;;;;;;;;;;;;;;;;;;;;;;;;;;;;;
"Nicola123";"1994";;"Windows 7";"Rachel's Experiment (D.T.)";"1.0";"2";"1";"1";"2";"1";"1";"2014-10-07 11:00:20.995";"2014-10-07 11:14:34.104";"1";"0";"1";"83";"82";"module.training_block2.exec-4590.GoNoGo2";;;;;;;;;;;;;;;;;;;;;;;;;;;;;;;;;;;"1262";"2014-10-07 11:06:27.449";"NST_correctLoc";"5";"0";"FINISHED";"LEFT";"success";"368";"0";"2014-10-07 11:06:26.185";"1";;;;;;;;;;;;;;;;;;;;;;;;;;;;;;;;;;;;;;;;;;;;;
"Nicola123";"1994";;"Windows 7";"Rachel's Experiment (D.T.)";"1.0";"2";"1";"1";"2";"1";"1";"2014-10-07 11:00:20.995";"2014-10-07 11:14:34.104";"1";"0";"1";"84";"83";"module.training_block2.exec-4590.GoNoGo2";;;;;;;;;;;;;;;;;;;;;;;;;;;;;;;;;;;"1262";"2014-10-07 11:06:30.007";"NST_correctLoc";"21";"1";"FINISHED";"RIGHT";"success";"458";"0";"2014-10-07 11:06:28.744";"3";;;;;;;;;;;;;;;;;;;;;;;;;;;;;;;;;;;;;;;;;;;;;
"Nicola123";"1994";;"Windows 7";"Rachel's Experiment (D.T.)";"1.0";"2";"1";"1";"2";"1";"1";"2014-10-07 11:00:20.995";"2014-10-07 11:14:34.104";"1";"0";"1";"85";"84";"module.training_block2.exec-4590.GoNoGo2";;;;;;;;;;;;;;;;;;;;;;;;;;;;;;;;;;;"1262";"2014-10-07 11:06:32.550";"NST_correctLoc";"10";"1";"FINISHED";"RIGHT";"success";"395";"0";"2014-10-07 11:06:31.287";"2";;;;;;;;;;;;;;;;;;;;;;;;;;;;;;;;;;;;;;;;;;;;;
"Nicola123";"1994";;"Windows 7";"Rachel's Experiment (D.T.)";"1.0";"2";"1";"1";"2";"1";"1";"2014-10-07 11:00:20.995";"2014-10-07 11:14:34.104";"1";"0";"1";"86";"85";"module.training_block2.exec-4590.GoNoGo2";;;;;;;;;;;;;;;;;;;;;;;;;;;;;;;;;;;"1262";"2014-10-07 11:06:35.093";"NST_correctLoc";"28";"1";"FINISHED";"RIGHT";"success";"348";"0";"2014-10-07 11:06:33.830";"3";;;;;;;;;;;;;;;;;;;;;;;;;;;;;;;;;;;;;;;;;;;;;
"Nicola123";"1994";;"Windows 7";"Rachel's Experiment (D.T.)";"1.0";"2";"1";"1";"2";"1";"1";"2014-10-07 11:00:20.995";"2014-10-07 11:14:34.104";"1";"0";"1";"87";"86";"module.training_block2.exec-4590.GoNoGo2";;;;;;;;;;;;;;;;;;;;;;;;;;;;;;;;;;;"1262";"2014-10-07 11:06:37.636";"NST_correctLoc";"27";"0";"FINISHED";"LEFT";"success";"421";"0";"2014-10-07 11:06:36.373";"3";;;;;;;;;;;;;;;;;;;;;;;;;;;;;;;;;;;;;;;;;;;;;
"Nicola123";"1994";;"Windows 7";"Rachel's Experiment (D.T.)";"1.0";"2";"1";"1";"2";"1";"1";"2014-10-07 11:00:20.995";"2014-10-07 11:14:34.104";"1";"0";"1";"88";"87";"module.training_block3.exec-7965.GoNoGo3";;;;;;;;;;;;;;;;;;;;;;;;;;;;;;;;;;;;;;;;;;;;;;;"1262";"2014-10-07 11:06:48.916";"NST_correctLoc";"22";"0";"FINISHED";"LEFT";"success";"334";"0";"2014-10-07 11:06:47.652";"3";;;;;;;;;;;;;;;;;;;;;;;;;;;;;;;;;
"Nicola123";"1994";;"Windows 7";"Rachel's Experiment (D.T.)";"1.0";"2";"1";"1";"2";"1";"1";"2014-10-07 11:00:20.995";"2014-10-07 11:14:34.104";"1";"0";"1";"89";"88";"module.training_block3.exec-7965.GoNoGo3";;;;;;;;;;;;;;;;;;;;;;;;;;;;;;;;;;;;;;;;;;;;;;;"1262";"2014-10-07 11:06:51.459";"NST_correctLoc";"28";"1";"FINISHED";"RIGHT";"success";"352";"0";"2014-10-07 11:06:50.195";"3";;;;;;;;;;;;;;;;;;;;;;;;;;;;;;;;;
"Nicola123";"1994";;"Windows 7";"Rachel's Experiment (D.T.)";"1.0";"2";"1";"1";"2";"1";"1";"2014-10-07 11:00:20.995";"2014-10-07 11:14:34.104";"1";"0";"1";"90";"89";"module.training_block3.exec-7965.GoNoGo3";;;;;;;;;;;;;;;;;;;;;;;;;;;;;;;;;;;;;;;;;;;;;;;"1262";"2014-10-07 11:06:54.002";"NST_correctLoc";"2";"0";"FINISHED";"LEFT";"success";"321";"0";"2014-10-07 11:06:52.738";"1";;;;;;;;;;;;;;;;;;;;;;;;;;;;;;;;;
"Nicola123";"1994";;"Windows 7";"Rachel's Experiment (D.T.)";"1.0";"2";"1";"1";"2";"1";"1";"2014-10-07 11:00:20.995";"2014-10-07 11:14:34.104";"1";"0";"1";"91";"90";"module.training_block3.exec-7965.GoNoGo3";;;;;;;;;;;;;;;;;;;;;;;;;;;;;;;;;;;;;;;;;;;;;;;"1262";"2014-10-07 11:06:56.545";"NST_correctLoc";"7";"0";"FINISHED";"LEFT";"success";"354";"0";"2014-10-07 11:06:55.281";"1";;;;;;;;;;;;;;;;;;;;;;;;;;;;;;;;;
"Nicola123";"1994";;"Windows 7";"Rachel's Experiment (D.T.)";"1.0";"2";"1";"1";"2";"1";"1";"2014-10-07 11:00:20.995";"2014-10-07 11:14:34.104";"1";"0";"1";"92";"91";"module.training_block3.exec-7965.GoNoGo3";;;;;;;;;;;;;;;;;;;;;;;;;;;;;;;;;;;;;;;;;;;;;;;"1262";"2014-10-07 11:06:59.088";"NST_correctLoc";"11";"0";"FINISHED";"LEFT";"success";"379";"0";"2014-10-07 11:06:57.824";"2";;;;;;;;;;;;;;;;;;;;;;;;;;;;;;;;;
"Nicola123";"1994";;"Windows 7";"Rachel's Experiment (D.T.)";"1.0";"2";"1";"1";"2";"1";"1";"2014-10-07 11:00:20.995";"2014-10-07 11:14:34.104";"1";"0";"1";"93";"92";"module.training_block3.exec-7965.GoNoGo3";;;;;;;;;;;;;;;;;;;;;;;;;;;;;;;;;;;;;;;;;;;;;;;"1262";"2014-10-07 11:07:01.631";"NST_correctLoc";"17";"1";"FINISHED";"RIGHT";"success";"324";"0";"2014-10-07 11:07:00.367";"2";;;;;;;;;;;;;;;;;;;;;;;;;;;;;;;;;
"Nicola123";"1994";;"Windows 7";"Rachel's Experiment (D.T.)";"1.0";"2";"1";"1";"2";"1";"1";"2014-10-07 11:00:20.995";"2014-10-07 11:14:34.104";"1";"0";"1";"94";"93";"module.training_block3.exec-7965.GoNoGo3";;;;;;;;;;;;;;;;;;;;;;;;;;;;;;;;;;;;;;;;;;;;;;;"1262";"2014-10-07 11:07:04.174";"NST_correctLoc";"34";"1";"FINISHED";"RIGHT";"success";"349";"0";"2014-10-07 11:07:02.910";"3";;;;;;;;;;;;;;;;;;;;;;;;;;;;;;;;;
"Nicola123";"1994";;"Windows 7";"Rachel's Experiment (D.T.)";"1.0";"2";"1";"1";"2";"1";"1";"2014-10-07 11:00:20.995";"2014-10-07 11:14:34.104";"1";"0";"1";"95";"94";"module.training_block3.exec-7965.GoNoGo3";;;;;;;;;;;;;;;;;;;;;;;;;;;;;;;;;;;;;;;;;;;;;;;"1262";"2014-10-07 11:07:06.717";"NST_correctLoc";"21";"1";"FINISHED";"RIGHT";"success";"375";"0";"2014-10-07 11:07:05.453";"3";;;;;;;;;;;;;;;;;;;;;;;;;;;;;;;;;
"Nicola123";"1994";;"Windows 7";"Rachel's Experiment (D.T.)";"1.0";"2";"1";"1";"2";"1";"1";"2014-10-07 11:00:20.995";"2014-10-07 11:14:34.104";"1";"0";"1";"96";"95";"module.training_block3.exec-7965.GoNoGo3";;;;;;;;;;;;;;;;;;;;;;;;;;;;;;;;;;;;;;;;;;;;;;;"1262";"2014-10-07 11:07:09.260";"NST_correctLoc";"24";"1";"FINISHED";"RIGHT";"success";"352";"0";"2014-10-07 11:07:07.996";"3";;;;;;;;;;;;;;;;;;;;;;;;;;;;;;;;;
"Nicola123";"1994";;"Windows 7";"Rachel's Experiment (D.T.)";"1.0";"2";"1";"1";"2";"1";"1";"2014-10-07 11:00:20.995";"2014-10-07 11:14:34.104";"1";"0";"1";"97";"96";"module.training_block3.exec-7965.GoNoGo3";;;;;;;;;;;;;;;;;;;;;;;;;;;;;;;;;;;;;;;;;;;;;;;"1262";"2014-10-07 11:07:11.803";"NST_correctLoc";"35";"0";"FINISHED";"LEFT";"success";"433";"0";"2014-10-07 11:07:10.539";"3";;;;;;;;;;;;;;;;;;;;;;;;;;;;;;;;;
"Nicola123";"1994";;"Windows 7";"Rachel's Experiment (D.T.)";"1.0";"2";"1";"1";"2";"1";"1";"2014-10-07 11:00:20.995";"2014-10-07 11:14:34.104";"1";"0";"1";"98";"97";"module.training_block3.exec-7965.GoNoGo3";;;;;;;;;;;;;;;;;;;;;;;;;;;;;;;;;;;;;;;;;;;;;;;"1262";"2014-10-07 11:07:14.346";"NST_correctLoc";"13";"0";"FINISHED";"LEFT";"success";"370";"0";"2014-10-07 11:07:13.082";"2";;;;;;;;;;;;;;;;;;;;;;;;;;;;;;;;;
"Nicola123";"1994";;"Windows 7";"Rachel's Experiment (D.T.)";"1.0";"2";"1";"1";"2";"1";"1";"2014-10-07 11:00:20.995";"2014-10-07 11:14:34.104";"1";"0";"1";"99";"98";"module.training_block3.exec-7965.GoNoGo3";;;;;;;;;;;;;;;;;;;;;;;;;;;;;;;;;;;;;;;;;;;;;;;"1262";"2014-10-07 11:07:16.889";"NST_correctLoc";"20";"1";"FINISHED";"RIGHT";"success";"347";"0";"2014-10-07 11:07:15.625";"3";;;;;;;;;;;;;;;;;;;;;;;;;;;;;;;;;
"Nicola123";"1994";;"Windows 7";"Rachel's Experiment (D.T.)";"1.0";"2";"1";"1";"2";"1";"1";"2014-10-07 11:00:20.995";"2014-10-07 11:14:34.104";"1";"0";"1";"100";"99";"module.training_block3.exec-7965.GoNoGo3";;;;;;;;;;;;;;;;;;;;;;;;;;;;;;;;;;;;;;;;;;;;;;;"1262";"2014-10-07 11:07:19.432";"NST_correctLoc";"6";"1";"FINISHED";"RIGHT";"success";"357";"0";"2014-10-07 11:07:18.168";"1";;;;;;;;;;;;;;;;;;;;;;;;;;;;;;;;;
"Nicola123";"1994";;"Windows 7";"Rachel's Experiment (D.T.)";"1.0";"2";"1";"1";"2";"1";"1";"2014-10-07 11:00:20.995";"2014-10-07 11:14:34.104";"1";"0";"1";"101";"100";"module.training_block3.exec-7965.GoNoGo3";;;;;;;;;;;;;;;;;;;;;;;;;;;;;;;;;;;;;;;;;;;;;;;"1262";"2014-10-07 11:07:21.975";"NST_correctLoc";"26";"0";"FINISHED";"LEFT";"success";"342";"0";"2014-10-07 11:07:20.711";"3";;;;;;;;;;;;;;;;;;;;;;;;;;;;;;;;;
"Nicola123";"1994";;"Windows 7";"Rachel's Experiment (D.T.)";"1.0";"2";"1";"1";"2";"1";"1";"2014-10-07 11:00:20.995";"2014-10-07 11:14:34.104";"1";"0";"1";"102";"101";"module.training_block3.exec-7965.GoNoGo3";;;;;;;;;;;;;;;;;;;;;;;;;;;;;;;;;;;;;;;;;;;;;;;"1262";"2014-10-07 11:07:24.518";"NST_correctLoc";"10";"0";"FINISHED";"LEFT";"success";"351";"0";"2014-10-07 11:07:23.254";"2";;;;;;;;;;;;;;;;;;;;;;;;;;;;;;;;;
"Nicola123";"1994";;"Windows 7";"Rachel's Experiment (D.T.)";"1.0";"2";"1";"1";"2";"1";"1";"2014-10-07 11:00:20.995";"2014-10-07 11:14:34.104";"1";"0";"1";"103";"102";"module.training_block3.exec-7965.GoNoGo3";;;;;;;;;;;;;;;;;;;;;;;;;;;;;;;;;;;;;;;;;;;;;;;"1262";"2014-10-07 11:07:27.061";"NST_correctLoc";"0";"0";"FINISHED";"LEFT";"success";"344";"0";"2014-10-07 11:07:25.797";"1";;;;;;;;;;;;;;;;;;;;;;;;;;;;;;;;;
"Nicola123";"1994";;"Windows 7";"Rachel's Experiment (D.T.)";"1.0";"2";"1";"1";"2";"1";"1";"2014-10-07 11:00:20.995";"2014-10-07 11:14:34.104";"1";"0";"1";"104";"103";"module.training_block3.exec-7965.GoNoGo3";;;;;;;;;;;;;;;;;;;;;;;;;;;;;;;;;;;;;;;;;;;;;;;"1262";"2014-10-07 11:07:29.604";"NST_correctLoc";"31";"0";"FINISHED";"LEFT";"success";"337";"0";"2014-10-07 11:07:28.340";"3";;;;;;;;;;;;;;;;;;;;;;;;;;;;;;;;;
"Nicola123";"1994";;"Windows 7";"Rachel's Experiment (D.T.)";"1.0";"2";"1";"1";"2";"1";"1";"2014-10-07 11:00:20.995";"2014-10-07 11:14:34.104";"1";"0";"1";"105";"104";"module.training_block3.exec-7965.GoNoGo3";;;;;;;;;;;;;;;;;;;;;;;;;;;;;;;;;;;;;;;;;;;;;;;"1262";"2014-10-07 11:07:32.147";"NST_correctLoc";"9";"0";"FINISHED";"LEFT";"success";"338";"0";"2014-10-07 11:07:30.883";"2";;;;;;;;;;;;;;;;;;;;;;;;;;;;;;;;;
"Nicola123";"1994";;"Windows 7";"Rachel's Experiment (D.T.)";"1.0";"2";"1";"1";"2";"1";"1";"2014-10-07 11:00:20.995";"2014-10-07 11:14:34.104";"1";"0";"1";"106";"105";"module.training_block3.exec-7965.GoNoGo3";;;;;;;;;;;;;;;;;;;;;;;;;;;;;;;;;;;;;;;;;;;;;;;"1262";"2014-10-07 11:07:34.690";"NST_correctLoc";"30";"1";"FINISHED";"RIGHT";"success";"316";"0";"2014-10-07 11:07:33.426";"3";;;;;;;;;;;;;;;;;;;;;;;;;;;;;;;;;
"Nicola123";"1994";;"Windows 7";"Rachel's Experiment (D.T.)";"1.0";"2";"1";"1";"2";"1";"1";"2014-10-07 11:00:20.995";"2014-10-07 11:14:34.104";"1";"0";"1";"107";"106";"module.training_block3.exec-7965.GoNoGo3";;;;;;;;;;;;;;;;;;;;;;;;;;;;;;;;;;;;;;;;;;;;;;;"1262";"2014-10-07 11:07:37.233";"NST_correctLoc";"27";"1";"FINISHED";"RIGHT";"success";"389";"0";"2014-10-07 11:07:35.969";"3";;;;;;;;;;;;;;;;;;;;;;;;;;;;;;;;;
"Nicola123";"1994";;"Windows 7";"Rachel's Experiment (D.T.)";"1.0";"2";"1";"1";"2";"1";"1";"2014-10-07 11:00:20.995";"2014-10-07 11:14:34.104";"1";"0";"1";"108";"107";"module.training_block3.exec-7965.GoNoGo3";;;;;;;;;;;;;;;;;;;;;;;;;;;;;;;;;;;;;;;;;;;;;;;"1262";"2014-10-07 11:07:39.775";"NST_correctLoc";"3";"0";"FINISHED";"LEFT";"success";"374";"0";"2014-10-07 11:07:38.512";"1";;;;;;;;;;;;;;;;;;;;;;;;;;;;;;;;;
"Nicola123";"1994";;"Windows 7";"Rachel's Experiment (D.T.)";"1.0";"2";"1";"1";"2";"1";"1";"2014-10-07 11:00:20.995";"2014-10-07 11:14:34.104";"1";"0";"1";"109";"108";"module.training_block3.exec-7965.GoNoGo3";;;;;;;;;;;;;;;;;;;;;;;;;;;;;;;;;;;;;;;;;;;;;;;"1262";"2014-10-07 11:07:42.318";"NST_correctLoc";"12";"0";"FINISHED";"LEFT";"success";"343";"0";"2014-10-07 11:07:41.055";"2";;;;;;;;;;;;;;;;;;;;;;;;;;;;;;;;;
"Nicola123";"1994";;"Windows 7";"Rachel's Experiment (D.T.)";"1.0";"2";"1";"1";"2";"1";"1";"2014-10-07 11:00:20.995";"2014-10-07 11:14:34.104";"1";"0";"1";"110";"109";"module.training_block3.exec-7965.GoNoGo3";;;;;;;;;;;;;;;;;;;;;;;;;;;;;;;;;;;;;;;;;;;;;;;"1262";"2014-10-07 11:07:44.861";"NST_correctLoc";"15";"0";"FINISHED";"LEFT";"success";"328";"0";"2014-10-07 11:07:43.598";"2";;;;;;;;;;;;;;;;;;;;;;;;;;;;;;;;;
"Nicola123";"1994";;"Windows 7";"Rachel's Experiment (D.T.)";"1.0";"2";"1";"1";"2";"1";"1";"2014-10-07 11:00:20.995";"2014-10-07 11:14:34.104";"1";"0";"1";"111";"110";"module.training_block3.exec-7965.GoNoGo3";;;;;;;;;;;;;;;;;;;;;;;;;;;;;;;;;;;;;;;;;;;;;;;"1262";"2014-10-07 11:07:47.404";"NST_correctLoc";"19";"1";"FINISHED";"RIGHT";"success";"321";"0";"2014-10-07 11:07:46.141";"3";;;;;;;;;;;;;;;;;;;;;;;;;;;;;;;;;
"Nicola123";"1994";;"Windows 7";"Rachel's Experiment (D.T.)";"1.0";"2";"1";"1";"2";"1";"1";"2014-10-07 11:00:20.995";"2014-10-07 11:14:34.104";"1";"0";"1";"112";"111";"module.training_block3.exec-7965.GoNoGo3";;;;;;;;;;;;;;;;;;;;;;;;;;;;;;;;;;;;;;;;;;;;;;;"1262";"2014-10-07 11:07:49.947";"NST_correctLoc";"1";"1";"FINISHED";"RIGHT";"success";"379";"0";"2014-10-07 11:07:48.684";"1";;;;;;;;;;;;;;;;;;;;;;;;;;;;;;;;;
"Nicola123";"1994";;"Windows 7";"Rachel's Experiment (D.T.)";"1.0";"2";"1";"1";"2";"1";"1";"2014-10-07 11:00:20.995";"2014-10-07 11:14:34.104";"1";"0";"1";"113";"112";"module.training_block3.exec-7965.GoNoGo3";;;;;;;;;;;;;;;;;;;;;;;;;;;;;;;;;;;;;;;;;;;;;;;"1262";"2014-10-07 11:07:52.490";"NST_correctLoc";"25";"0";"FINISHED";"LEFT";"success";"388";"0";"2014-10-07 11:07:51.227";"3";;;;;;;;;;;;;;;;;;;;;;;;;;;;;;;;;
"Nicola123";"1994";;"Windows 7";"Rachel's Experiment (D.T.)";"1.0";"2";"1";"1";"2";"1";"1";"2014-10-07 11:00:20.995";"2014-10-07 11:14:34.104";"1";"0";"1";"114";"113";"module.training_block3.exec-7965.GoNoGo3";;;;;;;;;;;;;;;;;;;;;;;;;;;;;;;;;;;;;;;;;;;;;;;"1262";"2014-10-07 11:07:55.033";"NST_correctLoc";"16";"1";"FINISHED";"RIGHT";"success";"413";"0";"2014-10-07 11:07:53.770";"2";;;;;;;;;;;;;;;;;;;;;;;;;;;;;;;;;
"Nicola123";"1994";;"Windows 7";"Rachel's Experiment (D.T.)";"1.0";"2";"1";"1";"2";"1";"1";"2014-10-07 11:00:20.995";"2014-10-07 11:14:34.104";"1";"0";"1";"115";"114";"module.training_block3.exec-7965.GoNoGo3";;;;;;;;;;;;;;;;;;;;;;;;;;;;;;;;;;;;;;;;;;;;;;;"1262";"2014-10-07 11:07:57.576";"NST_correctLoc";"33";"1";"FINISHED";"RIGHT";"success";"350";"0";"2014-10-07 11:07:56.313";"3";;;;;;;;;;;;;;;;;;;;;;;;;;;;;;;;;
"Nicola123";"1994";;"Windows 7";"Rachel's Experiment (D.T.)";"1.0";"2";"1";"1";"2";"1";"1";"2014-10-07 11:00:20.995";"2014-10-07 11:14:34.104";"1";"0";"1";"116";"115";"module.training_block3.exec-7965.GoNoGo3";;;;;;;;;;;;;;;;;;;;;;;;;;;;;;;;;;;;;;;;;;;;;;;"1262";"2014-10-07 11:08:00.119";"NST_correctLoc";"32";"0";"FINISHED";"LEFT";"success";"375";"0";"2014-10-07 11:07:58.855";"3";;;;;;;;;;;;;;;;;;;;;;;;;;;;;;;;;
"Nicola123";"1994";;"Windows 7";"Rachel's Experiment (D.T.)";"1.0";"2";"1";"1";"2";"1";"1";"2014-10-07 11:00:20.995";"2014-10-07 11:14:34.104";"1";"0";"1";"117";"116";"module.training_block3.exec-7965.GoNoGo3";;;;;;;;;;;;;;;;;;;;;;;;;;;;;;;;;;;;;;;;;;;;;;;"1262";"2014-10-07 11:08:02.662";"NST_correctLoc";"23";"1";"FINISHED";"RIGHT";"success";"281";"0";"2014-10-07 11:08:01.398";"3";;;;;;;;;;;;;;;;;;;;;;;;;;;;;;;;;
"Nicola123";"1994";;"Windows 7";"Rachel's Experiment (D.T.)";"1.0";"2";"1";"1";"2";"1";"1";"2014-10-07 11:00:20.995";"2014-10-07 11:14:34.104";"1";"0";"1";"118";"117";"module.training_block3.exec-7965.GoNoGo3";;;;;;;;;;;;;;;;;;;;;;;;;;;;;;;;;;;;;;;;;;;;;;;"1262";"2014-10-07 11:08:05.221";"NST_correctLoc";"14";"0";"FINISHED";"LEFT";"success";"322";"0";"2014-10-07 11:08:03.957";"2";;;;;;;;;;;;;;;;;;;;;;;;;;;;;;;;;
"Nicola123";"1994";;"Windows 7";"Rachel's Experiment (D.T.)";"1.0";"2";"1";"1";"2";"1";"1";"2014-10-07 11:00:20.995";"2014-10-07 11:14:34.104";"1";"0";"1";"119";"118";"module.training_block3.exec-7965.GoNoGo3";;;;;;;;;;;;;;;;;;;;;;;;;;;;;;;;;;;;;;;;;;;;;;;"1262";"2014-10-07 11:08:07.764";"NST_correctLoc";"18";"0";"FINISHED";"LEFT";"success";"347";"0";"2014-10-07 11:08:06.500";"3";;;;;;;;;;;;;;;;;;;;;;;;;;;;;;;;;
"Nicola123";"1994";;"Windows 7";"Rachel's Experiment (D.T.)";"1.0";"2";"1";"1";"2";"1";"1";"2014-10-07 11:00:20.995";"2014-10-07 11:14:34.104";"1";"0";"1";"120";"119";"module.training_block3.exec-7965.GoNoGo3";;;;;;;;;;;;;;;;;;;;;;;;;;;;;;;;;;;;;;;;;;;;;;;"1262";"2014-10-07 11:08:10.307";"NST_correctLoc";"4";"1";"FINISHED";"RIGHT";"success";"309";"0";"2014-10-07 11:08:09.043";"1";;;;;;;;;;;;;;;;;;;;;;;;;;;;;;;;;
"Nicola123";"1994";;"Windows 7";"Rachel's Experiment (D.T.)";"1.0";"2";"1";"1";"2";"1";"1";"2014-10-07 11:00:20.995";"2014-10-07 11:14:34.104";"1";"0";"1";"121";"120";"module.training_block3.exec-7965.GoNoGo3";;;;;;;;;;;;;;;;;;;;;;;;;;;;;;;;;;;;;;;;;;;;;;;"1262";"2014-10-07 11:08:12.850";"NST_correctLoc";"8";"0";"FINISHED";"LEFT";"success";"310";"0";"2014-10-07 11:08:11.586";"1";;;;;;;;;;;;;;;;;;;;;;;;;;;;;;;;;
"Nicola123";"1994";;"Windows 7";"Rachel's Experiment (D.T.)";"1.0";"2";"1";"1";"2";"1";"1";"2014-10-07 11:00:20.995";"2014-10-07 11:14:34.104";"1";"0";"1";"122";"121";"module.training_block3.exec-7965.GoNoGo3";;;;;;;;;;;;;;;;;;;;;;;;;;;;;;;;;;;;;;;;;;;;;;;"1262";"2014-10-07 11:08:15.392";"NST_correctLoc";"29";"1";"FINISHED";"RIGHT";"success";"327";"0";"2014-10-07 11:08:14.129";"3";;;;;;;;;;;;;;;;;;;;;;;;;;;;;;;;;
"Nicola123";"1994";;"Windows 7";"Rachel's Experiment (D.T.)";"1.0";"2";"1";"1";"2";"1";"1";"2014-10-07 11:00:20.995";"2014-10-07 11:14:34.104";"1";"0";"1";"123";"122";"module.training_block3.exec-7965.GoNoGo3";;;;;;;;;;;;;;;;;;;;;;;;;;;;;;;;;;;;;;;;;;;;;;;"1262";"2014-10-07 11:08:17.935";"NST_correctLoc";"5";"0";"FINISHED";"LEFT";"success";"336";"0";"2014-10-07 11:08:16.672";"1";;;;;;;;;;;;;;;;;;;;;;;;;;;;;;;;;
"Nicola123";"1994";;"Windows 7";"Rachel's Experiment (D.T.)";"1.0";"2";"1";"1";"2";"1";"1";"2014-10-07 11:00:20.995";"2014-10-07 11:14:34.104";"1";"0";"1";"124";"123";"module.training_block4.exec-8807.GoNoGo4";;;;;;;;;;;;;;;;;;;;;;;;;;;;;;;;;;;;;;;;;;;;;;;;;;;;;;;;;;;"1262";"2014-10-07 11:08:29.012";"NST_correctLoc";"20";"0";"FINISHED";"LEFT";"success";"364";"0";"2014-10-07 11:08:27.748";"3";;;;;;;;;;;;;;;;;;;;;
"Nicola123";"1994";;"Windows 7";"Rachel's Experiment (D.T.)";"1.0";"2";"1";"1";"2";"1";"1";"2014-10-07 11:00:20.995";"2014-10-07 11:14:34.104";"1";"0";"1";"125";"124";"module.training_block4.exec-8807.GoNoGo4";;;;;;;;;;;;;;;;;;;;;;;;;;;;;;;;;;;;;;;;;;;;;;;;;;;;;;;;;;;"1262";"2014-10-07 11:08:31.571";"NST_correctLoc";"28";"0";"FINISHED";"LEFT";"success";"333";"0";"2014-10-07 11:08:30.307";"3";;;;;;;;;;;;;;;;;;;;;
"Nicola123";"1994";;"Windows 7";"Rachel's Experiment (D.T.)";"1.0";"2";"1";"1";"2";"1";"1";"2014-10-07 11:00:20.995";"2014-10-07 11:14:34.104";"1";"0";"1";"126";"125";"module.training_block4.exec-8807.GoNoGo4";;;;;;;;;;;;;;;;;;;;;;;;;;;;;;;;;;;;;;;;;;;;;;;;;;;;;;;;;;;"1262";"2014-10-07 11:08:34.114";"NST_correctLoc";"4";"0";"FINISHED";"LEFT";"success";"431";"0";"2014-10-07 11:08:32.850";"1";;;;;;;;;;;;;;;;;;;;;
"Nicola123";"1994";;"Windows 7";"Rachel's Experiment (D.T.)";"1.0";"2";"1";"1";"2";"1";"1";"2014-10-07 11:00:20.995";"2014-10-07 11:14:34.104";"1";"0";"1";"127";"126";"module.training_block4.exec-8807.GoNoGo4";;;;;;;;;;;;;;;;;;;;;;;;;;;;;;;;;;;;;;;;;;;;;;;;;;;;;;;;;;;"1262";"2014-10-07 11:08:36.672";"NST_correctLoc";"15";"0";"FINISHED";"LEFT";"success";"352";"0";"2014-10-07 11:08:35.408";"2";;;;;;;;;;;;;;;;;;;;;
"Nicola123";"1994";;"Windows 7";"Rachel's Experiment (D.T.)";"1.0";"2";"1";"1";"2";"1";"1";"2014-10-07 11:00:20.995";"2014-10-07 11:14:34.104";"1";"0";"1";"128";"127";"module.training_block4.exec-8807.GoNoGo4";;;;;;;;;;;;;;;;;;;;;;;;;;;;;;;;;;;;;;;;;;;;;;;;;;;;;;;;;;;"1262";"2014-10-07 11:08:39.215";"NST_correctLoc";"13";"1";"FINISHED";"RIGHT";"success";"321";"0";"2014-10-07 11:08:37.951";"2";;;;;;;;;;;;;;;;;;;;;
"Nicola123";"1994";;"Windows 7";"Rachel's Experiment (D.T.)";"1.0";"2";"1";"1";"2";"1";"1";"2014-10-07 11:00:20.995";"2014-10-07 11:14:34.104";"1";"0";"1";"129";"128";"module.training_block4.exec-8807.GoNoGo4";;;;;;;;;;;;;;;;;;;;;;;;;;;;;;;;;;;;;;;;;;;;;;;;;;;;;;;;;;;"1262";"2014-10-07 11:08:41.758";"NST_correctLoc";"5";"1";"FINISHED";"RIGHT";"success";"419";"0";"2014-10-07 11:08:40.494";"1";;;;;;;;;;;;;;;;;;;;;
"Nicola123";"1994";;"Windows 7";"Rachel's Experiment (D.T.)";"1.0";"2";"1";"1";"2";"1";"1";"2014-10-07 11:00:20.995";"2014-10-07 11:14:34.104";"1";"0";"1";"130";"129";"module.training_block4.exec-8807.GoNoGo4";;;;;;;;;;;;;;;;;;;;;;;;;;;;;;;;;;;;;;;;;;;;;;;;;;;;;;;;;;;"1262";"2014-10-07 11:08:44.301";"NST_correctLoc";"35";"0";"FINISHED";"LEFT";"success";"348";"0";"2014-10-07 11:08:43.037";"3";;;;;;;;;;;;;;;;;;;;;
"Nicola123";"1994";;"Windows 7";"Rachel's Experiment (D.T.)";"1.0";"2";"1";"1";"2";"1";"1";"2014-10-07 11:00:20.995";"2014-10-07 11:14:34.104";"1";"0";"1";"131";"130";"module.training_block4.exec-8807.GoNoGo4";;;;;;;;;;;;;;;;;;;;;;;;;;;;;;;;;;;;;;;;;;;;;;;;;;;;;;;;;;;"1262";"2014-10-07 11:08:46.844";"NST_correctLoc";"18";"0";"FINISHED";"LEFT";"success";"397";"0";"2014-10-07 11:08:45.580";"3";;;;;;;;;;;;;;;;;;;;;
"Nicola123";"1994";;"Windows 7";"Rachel's Experiment (D.T.)";"1.0";"2";"1";"1";"2";"1";"1";"2014-10-07 11:00:20.995";"2014-10-07 11:14:34.104";"1";"0";"1";"132";"131";"module.training_block4.exec-8807.GoNoGo4";;;;;;;;;;;;;;;;;;;;;;;;;;;;;;;;;;;;;;;;;;;;;;;;;;;;;;;;;;;"1262";"2014-10-07 11:08:49.371";"NST_correctLoc";"1";"1";"FINISHED";"RIGHT";"success";"366";"0";"2014-10-07 11:08:48.108";"1";;;;;;;;;;;;;;;;;;;;;
"Nicola123";"1994";;"Windows 7";"Rachel's Experiment (D.T.)";"1.0";"2";"1";"1";"2";"1";"1";"2014-10-07 11:00:20.995";"2014-10-07 11:14:34.104";"1";"0";"1";"133";"132";"module.training_block4.exec-8807.GoNoGo4";;;;;;;;;;;;;;;;;;;;;;;;;;;;;;;;;;;;;;;;;;;;;;;;;;;;;;;;;;;"1262";"2014-10-07 11:08:51.914";"NST_correctLoc";"23";"0";"FINISHED";"LEFT";"success";"367";"0";"2014-10-07 11:08:50.650";"3";;;;;;;;;;;;;;;;;;;;;
"Nicola123";"1994";;"Windows 7";"Rachel's Experiment (D.T.)";"1.0";"2";"1";"1";"2";"1";"1";"2014-10-07 11:00:20.995";"2014-10-07 11:14:34.104";"1";"0";"1";"134";"133";"module.training_block4.exec-8807.GoNoGo4";;;;;;;;;;;;;;;;;;;;;;;;;;;;;;;;;;;;;;;;;;;;;;;;;;;;;;;;;;;"1262";"2014-10-07 11:08:54.473";"NST_correctLoc";"11";"1";"FINISHED";"RIGHT";"success";"369";"0";"2014-10-07 11:08:53.209";"2";;;;;;;;;;;;;;;;;;;;;
"Nicola123";"1994";;"Windows 7";"Rachel's Experiment (D.T.)";"1.0";"2";"1";"1";"2";"1";"1";"2014-10-07 11:00:20.995";"2014-10-07 11:14:34.104";"1";"0";"1";"135";"134";"module.training_block4.exec-8807.GoNoGo4";;;;;;;;;;;;;;;;;;;;;;;;;;;;;;;;;;;;;;;;;;;;;;;;;;;;;;;;;;;"1262";"2014-10-07 11:08:57.016";"NST_correctLoc";"32";"1";"FINISHED";"RIGHT";"success";"378";"0";"2014-10-07 11:08:55.752";"3";;;;;;;;;;;;;;;;;;;;;
"Nicola123";"1994";;"Windows 7";"Rachel's Experiment (D.T.)";"1.0";"2";"1";"1";"2";"1";"1";"2014-10-07 11:00:20.995";"2014-10-07 11:14:34.104";"1";"0";"1";"136";"135";"module.training_block4.exec-8807.GoNoGo4";;;;;;;;;;;;;;;;;;;;;;;;;;;;;;;;;;;;;;;;;;;;;;;;;;;;;;;;;;;"1262";"2014-10-07 11:08:59.559";"NST_correctLoc";"25";"0";"FINISHED";"LEFT";"success";"355";"0";"2014-10-07 11:08:58.295";"3";;;;;;;;;;;;;;;;;;;;;
"Nicola123";"1994";;"Windows 7";"Rachel's Experiment (D.T.)";"1.0";"2";"1";"1";"2";"1";"1";"2014-10-07 11:00:20.995";"2014-10-07 11:14:34.104";"1";"0";"1";"137";"136";"module.training_block4.exec-8807.GoNoGo4";;;;;;;;;;;;;;;;;;;;;;;;;;;;;;;;;;;;;;;;;;;;;;;;;;;;;;;;;;;"1262";"2014-10-07 11:09:02.102";"NST_correctLoc";"21";"0";"FINISHED";"LEFT";"success";"428";"0";"2014-10-07 11:09:00.838";"3";;;;;;;;;;;;;;;;;;;;;
"Nicola123";"1994";;"Windows 7";"Rachel's Experiment (D.T.)";"1.0";"2";"1";"1";"2";"1";"1";"2014-10-07 11:00:20.995";"2014-10-07 11:14:34.104";"1";"0";"1";"138";"137";"module.training_block4.exec-8807.GoNoGo4";;;;;;;;;;;;;;;;;;;;;;;;;;;;;;;;;;;;;;;;;;;;;;;;;;;;;;;;;;;"1262";"2014-10-07 11:09:04.644";"NST_correctLoc";"24";"0";"FINISHED";"LEFT";"success";"429";"0";"2014-10-07 11:09:03.381";"3";;;;;;;;;;;;;;;;;;;;;
"Nicola123";"1994";;"Windows 7";"Rachel's Experiment (D.T.)";"1.0";"2";"1";"1";"2";"1";"1";"2014-10-07 11:00:20.995";"2014-10-07 11:14:34.104";"1";"0";"1";"139";"138";"module.training_block4.exec-8807.GoNoGo4";;;;;;;;;;;;;;;;;;;;;;;;;;;;;;;;;;;;;;;;;;;;;;;;;;;;;;;;;;;"1262";"2014-10-07 11:09:07.187";"NST_correctLoc";"30";"1";"FINISHED";"RIGHT";"success";"310";"0";"2014-10-07 11:09:05.924";"3";;;;;;;;;;;;;;;;;;;;;
"Nicola123";"1994";;"Windows 7";"Rachel's Experiment (D.T.)";"1.0";"2";"1";"1";"2";"1";"1";"2014-10-07 11:00:20.995";"2014-10-07 11:14:34.104";"1";"0";"1";"140";"139";"module.training_block4.exec-8807.GoNoGo4";;;;;;;;;;;;;;;;;;;;;;;;;;;;;;;;;;;;;;;;;;;;;;;;;;;;;;;;;;;"1262";"2014-10-07 11:09:09.730";"NST_correctLoc";"8";"1";"FINISHED";"RIGHT";"success";"368";"0";"2014-10-07 11:09:08.467";"1";;;;;;;;;;;;;;;;;;;;;
"Nicola123";"1994";;"Windows 7";"Rachel's Experiment (D.T.)";"1.0";"2";"1";"1";"2";"1";"1";"2014-10-07 11:00:20.995";"2014-10-07 11:14:34.104";"1";"0";"1";"141";"140";"module.training_block4.exec-8807.GoNoGo4";;;;;;;;;;;;;;;;;;;;;;;;;;;;;;;;;;;;;;;;;;;;;;;;;;;;;;;;;;;"1262";"2014-10-07 11:09:12.258";"NST_correctLoc";"7";"1";"FINISHED";"RIGHT";"success";"296";"0";"2014-10-07 11:09:10.994";"1";;;;;;;;;;;;;;;;;;;;;
"Nicola123";"1994";;"Windows 7";"Rachel's Experiment (D.T.)";"1.0";"2";"1";"1";"2";"1";"1";"2014-10-07 11:00:20.995";"2014-10-07 11:14:34.104";"1";"0";"1";"142";"141";"module.training_block4.exec-8807.GoNoGo4";;;;;;;;;;;;;;;;;;;;;;;;;;;;;;;;;;;;;;;;;;;;;;;;;;;;;;;;;;;"1262";"2014-10-07 11:09:14.801";"NST_correctLoc";"27";"1";"FINISHED";"RIGHT";"success";"362";"0";"2014-10-07 11:09:13.537";"3";;;;;;;;;;;;;;;;;;;;;
"Nicola123";"1994";;"Windows 7";"Rachel's Experiment (D.T.)";"1.0";"2";"1";"1";"2";"1";"1";"2014-10-07 11:00:20.995";"2014-10-07 11:14:34.104";"1";"0";"1";"143";"142";"module.training_block4.exec-8807.GoNoGo4";;;;;;;;;;;;;;;;;;;;;;;;;;;;;;;;;;;;;;;;;;;;;;;;;;;;;;;;;;;"1262";"2014-10-07 11:09:17.344";"NST_correctLoc";"29";"1";"FINISHED";"RIGHT";"success";"331";"0";"2014-10-07 11:09:16.080";"3";;;;;;;;;;;;;;;;;;;;;
"Nicola123";"1994";;"Windows 7";"Rachel's Experiment (D.T.)";"1.0";"2";"1";"1";"2";"1";"1";"2014-10-07 11:00:20.995";"2014-10-07 11:14:34.104";"1";"0";"1";"144";"143";"module.training_block4.exec-8807.GoNoGo4";;;;;;;;;;;;;;;;;;;;;;;;;;;;;;;;;;;;;;;;;;;;;;;;;;;;;;;;;;;"1262";"2014-10-07 11:09:19.887";"NST_correctLoc";"0";"1";"FINISHED";"RIGHT";"success";"340";"0";"2014-10-07 11:09:18.623";"1";;;;;;;;;;;;;;;;;;;;;
"Nicola123";"1994";;"Windows 7";"Rachel's Experiment (D.T.)";"1.0";"2";"1";"1";"2";"1";"1";"2014-10-07 11:00:20.995";"2014-10-07 11:14:34.104";"1";"0";"1";"145";"144";"module.training_block4.exec-8807.GoNoGo4";;;;;;;;;;;;;;;;;;;;;;;;;;;;;;;;;;;;;;;;;;;;;;;;;;;;;;;;;;;"1262";"2014-10-07 11:09:22.430";"NST_correctLoc";"2";"0";"FINISHED";"LEFT";"success";"341";"0";"2014-10-07 11:09:21.166";"1";;;;;;;;;;;;;;;;;;;;;
"Nicola123";"1994";;"Windows 7";"Rachel's Experiment (D.T.)";"1.0";"2";"1";"1";"2";"1";"1";"2014-10-07 11:00:20.995";"2014-10-07 11:14:34.104";"1";"0";"1";"146";"145";"module.training_block4.exec-8807.GoNoGo4";;;;;;;;;;;;;;;;;;;;;;;;;;;;;;;;;;;;;;;;;;;;;;;;;;;;;;;;;;;"1262";"2014-10-07 11:09:24.957";"NST_correctLoc";"14";"1";"FINISHED";"RIGHT";"success";"294";"0";"2014-10-07 11:09:23.693";"2";;;;;;;;;;;;;;;;;;;;;
"Nicola123";"1994";;"Windows 7";"Rachel's Experiment (D.T.)";"1.0";"2";"1";"1";"2";"1";"1";"2014-10-07 11:00:20.995";"2014-10-07 11:14:34.104";"1";"0";"1";"147";"146";"module.training_block4.exec-8807.GoNoGo4";;;;;;;;;;;;;;;;;;;;;;;;;;;;;;;;;;;;;;;;;;;;;;;;;;;;;;;;;;;"1262";"2014-10-07 11:09:27.500";"NST_correctLoc";"9";"0";"FINISHED";"LEFT";"success";"319";"0";"2014-10-07 11:09:26.236";"2";;;;;;;;;;;;;;;;;;;;;
"Nicola123";"1994";;"Windows 7";"Rachel's Experiment (D.T.)";"1.0";"2";"1";"1";"2";"1";"1";"2014-10-07 11:00:20.995";"2014-10-07 11:14:34.104";"1";"0";"1";"148";"147";"module.training_block4.exec-8807.GoNoGo4";;;;;;;;;;;;;;;;;;;;;;;;;;;;;;;;;;;;;;;;;;;;;;;;;;;;;;;;;;;"1262";"2014-10-07 11:09:30.043";"NST_correctLoc";"33";"0";"FINISHED";"LEFT";"success";"360";"0";"2014-10-07 11:09:28.779";"3";;;;;;;;;;;;;;;;;;;;;
"Nicola123";"1994";;"Windows 7";"Rachel's Experiment (D.T.)";"1.0";"2";"1";"1";"2";"1";"1";"2014-10-07 11:00:20.995";"2014-10-07 11:14:34.104";"1";"0";"1";"149";"148";"module.training_block4.exec-8807.GoNoGo4";;;;;;;;;;;;;;;;;;;;;;;;;;;;;;;;;;;;;;;;;;;;;;;;;;;;;;;;;;;"1262";"2014-10-07 11:09:32.586";"NST_correctLoc";"26";"0";"FINISHED";"LEFT";"success";"329";"0";"2014-10-07 11:09:31.322";"3";;;;;;;;;;;;;;;;;;;;;
"Nicola123";"1994";;"Windows 7";"Rachel's Experiment (D.T.)";"1.0";"2";"1";"1";"2";"1";"1";"2014-10-07 11:00:20.995";"2014-10-07 11:14:34.104";"1";"0";"1";"150";"149";"module.training_block4.exec-8807.GoNoGo4";;;;;;;;;;;;;;;;;;;;;;;;;;;;;;;;;;;;;;;;;;;;;;;;;;;;;;;;;;;"1262";"2014-10-07 11:09:35.129";"NST_correctLoc";"16";"1";"FINISHED";"RIGHT";"success";"323";"0";"2014-10-07 11:09:33.865";"2";;;;;;;;;;;;;;;;;;;;;
"Nicola123";"1994";;"Windows 7";"Rachel's Experiment (D.T.)";"1.0";"2";"1";"1";"2";"1";"1";"2014-10-07 11:00:20.995";"2014-10-07 11:14:34.104";"1";"0";"1";"151";"150";"module.training_block4.exec-8807.GoNoGo4";;;;;;;;;;;;;;;;;;;;;;;;;;;;;;;;;;;;;;;;;;;;;;;;;;;;;;;;;;;"1262";"2014-10-07 11:09:37.656";"NST_correctLoc";"6";"0";"FINISHED";"LEFT";"success";"347";"0";"2014-10-07 11:09:36.392";"1";;;;;;;;;;;;;;;;;;;;;
"Nicola123";"1994";;"Windows 7";"Rachel's Experiment (D.T.)";"1.0";"2";"1";"1";"2";"1";"1";"2014-10-07 11:00:20.995";"2014-10-07 11:14:34.104";"1";"0";"1";"152";"151";"module.training_block4.exec-8807.GoNoGo4";;;;;;;;;;;;;;;;;;;;;;;;;;;;;;;;;;;;;;;;;;;;;;;;;;;;;;;;;;;"1262";"2014-10-07 11:09:40.199";"NST_correctLoc";"12";"0";"FINISHED";"LEFT";"success";"373";"0";"2014-10-07 11:09:38.935";"2";;;;;;;;;;;;;;;;;;;;;
"Nicola123";"1994";;"Windows 7";"Rachel's Experiment (D.T.)";"1.0";"2";"1";"1";"2";"1";"1";"2014-10-07 11:00:20.995";"2014-10-07 11:14:34.104";"1";"0";"1";"153";"152";"module.training_block4.exec-8807.GoNoGo4";;;;;;;;;;;;;;;;;;;;;;;;;;;;;;;;;;;;;;;;;;;;;;;;;;;;;;;;;;;"1262";"2014-10-07 11:09:42.757";"NST_correctLoc";"22";"0";"FINISHED";"LEFT";"success";"310";"0";"2014-10-07 11:09:41.494";"3";;;;;;;;;;;;;;;;;;;;;
"Nicola123";"1994";;"Windows 7";"Rachel's Experiment (D.T.)";"1.0";"2";"1";"1";"2";"1";"1";"2014-10-07 11:00:20.995";"2014-10-07 11:14:34.104";"1";"0";"1";"154";"153";"module.training_block4.exec-8807.GoNoGo4";;;;;;;;;;;;;;;;;;;;;;;;;;;;;;;;;;;;;;;;;;;;;;;;;;;;;;;;;;;"1262";"2014-10-07 11:09:45.300";"NST_correctLoc";"3";"0";"FINISHED";"LEFT";"success";"311";"0";"2014-10-07 11:09:44.037";"1";;;;;;;;;;;;;;;;;;;;;
"Nicola123";"1994";;"Windows 7";"Rachel's Experiment (D.T.)";"1.0";"2";"1";"1";"2";"1";"1";"2014-10-07 11:00:20.995";"2014-10-07 11:14:34.104";"1";"0";"1";"155";"154";"module.training_block4.exec-8807.GoNoGo4";;;;;;;;;;;;;;;;;;;;;;;;;;;;;;;;;;;;;;;;;;;;;;;;;;;;;;;;;;;"1262";"2014-10-07 11:09:47.859";"NST_correctLoc";"10";"1";"FINISHED";"RIGHT";"success";"385";"0";"2014-10-07 11:09:46.595";"2";;;;;;;;;;;;;;;;;;;;;
"Nicola123";"1994";;"Windows 7";"Rachel's Experiment (D.T.)";"1.0";"2";"1";"1";"2";"1";"1";"2014-10-07 11:00:20.995";"2014-10-07 11:14:34.104";"1";"0";"1";"156";"155";"module.training_block4.exec-8807.GoNoGo4";;;;;;;;;;;;;;;;;;;;;;;;;;;;;;;;;;;;;;;;;;;;;;;;;;;;;;;;;;;"1262";"2014-10-07 11:09:50.402";"NST_correctLoc";"19";"0";"FINISHED";"LEFT";"success";"442";"0";"2014-10-07 11:09:49.138";"3";;;;;;;;;;;;;;;;;;;;;
"Nicola123";"1994";;"Windows 7";"Rachel's Experiment (D.T.)";"1.0";"2";"1";"1";"2";"1";"1";"2014-10-07 11:00:20.995";"2014-10-07 11:14:34.104";"1";"0";"1";"157";"156";"module.training_block4.exec-8807.GoNoGo4";;;;;;;;;;;;;;;;;;;;;;;;;;;;;;;;;;;;;;;;;;;;;;;;;;;;;;;;;;;"1262";"2014-10-07 11:09:52.945";"NST_correctLoc";"34";"1";"FINISHED";"RIGHT";"success";"355";"0";"2014-10-07 11:09:51.681";"3";;;;;;;;;;;;;;;;;;;;;
"Nicola123";"1994";;"Windows 7";"Rachel's Experiment (D.T.)";"1.0";"2";"1";"1";"2";"1";"1";"2014-10-07 11:00:20.995";"2014-10-07 11:14:34.104";"1";"0";"1";"158";"157";"module.training_block4.exec-8807.GoNoGo4";;;;;;;;;;;;;;;;;;;;;;;;;;;;;;;;;;;;;;;;;;;;;;;;;;;;;;;;;;;"1262";"2014-10-07 11:09:55.488";"NST_correctLoc";"31";"0";"FINISHED";"LEFT";"success";"308";"0";"2014-10-07 11:09:54.224";"3";;;;;;;;;;;;;;;;;;;;;
"Nicola123";"1994";;"Windows 7";"Rachel's Experiment (D.T.)";"1.0";"2";"1";"1";"2";"1";"1";"2014-10-07 11:00:20.995";"2014-10-07 11:14:34.104";"1";"0";"1";"159";"158";"module.training_block4.exec-8807.GoNoGo4";;;;;;;;;;;;;;;;;;;;;;;;;;;;;;;;;;;;;;;;;;;;;;;;;;;;;;;;;;;"1262";"2014-10-07 11:09:58.031";"NST_correctLoc";"17";"0";"FINISHED";"LEFT";"success";"334";"0";"2014-10-07 11:09:56.767";"2";;;;;;;;;;;;;;;;;;;;;
"Nicola123";"1994";;"Windows 7";"Rachel's Experiment (D.T.)";"1.0";"2";"1";"1";"2";"1";"1";"2014-10-07 11:00:20.995";"2014-10-07 11:14:34.104";"1";"0";"1";"160";"159";"module.devaluation_practice.exec-5081.devalPractice";;;;;;;;;;;;"31297";"2014-10-07 11:10:51.526";"0";"8";"8";"2";"4967";"4564";"17161";"2014-10-07 11:10:20.231";;;;;;;;;;;;;;;;;;;;;;;;;;;;;;;;;;;;;;;;;;;;;;;;;;;;;;;;;;;;;;;;;;;;;;
"Nicola123";"1994";;"Windows 7";"Rachel's Experiment (D.T.)";"1.0";"2";"1";"1";"2";"1";"1";"2014-10-07 11:00:20.995";"2014-10-07 11:14:34.104";"1";"0";"1";"161";"160";"module.devaluation_practice.exec-5081.devalPractice";;;;;;;;;;;;"11572";"2014-10-07 11:11:03.274";"1";"2";"3";"3";"2973";"4061";"1520";"2014-10-07 11:10:51.698";;;;;;;;;;;;;;;;;;;;;;;;;;;;;;;;;;;;;;;;;;;;;;;;;;;;;;;;;;;;;;;;;;;;;;
"Nicola123";"1994";;"Windows 7";"Rachel's Experiment (D.T.)";"1.0";"2";"1";"1";"2";"1";"1";"2014-10-07 11:00:20.995";"2014-10-07 11:14:34.104";"1";"0";"1";"162";"161";"module.devaluation_practice.exec-5081.devalPractice";;;;;;;;;;;;"7805";"2014-10-07 11:11:11.261";"2";"7";"9";"8";"1393";"1625";"1774";"2014-10-07 11:11:03.445";;;;;;;;;;;;;;;;;;;;;;;;;;;;;;;;;;;;;;;;;;;;;;;;;;;;;;;;;;;;;;;;;;;;;;
"Nicola123";"1994";;"Windows 7";"Rachel's Experiment (D.T.)";"1.0";"2";"1";"1";"2";"1";"1";"2014-10-07 11:00:20.995";"2014-10-07 11:14:34.104";"1";"0";"1";"163";"162";"module.devaluation_practice.exec-5081.devalPractice";;;;;;;;;;;;"7038";"2014-10-07 11:11:18.485";"3";"3";"7";"5";"1613";"971";"1419";"2014-10-07 11:11:11.449";;;;;;;;;;;;;;;;;;;;;;;;;;;;;;;;;;;;;;;;;;;;;;;;;;;;;;;;;;;;;;;;;;;;;;
"Nicola123";"1994";;"Windows 7";"Rachel's Experiment (D.T.)";"1.0";"2";"1";"1";"2";"1";"1";"2014-10-07 11:00:20.995";"2014-10-07 11:14:34.104";"1";"0";"1";"164";"163";"module.devaluation_block1.exec-6394.deval1";"8004";"2014-10-07 11:11:31.761";"23";"9";"9";"8";"2333";"1357";"1302";"2014-10-07 11:11:23.742";"3";;;;;;;;;;;;;;;;;;;;;;;;;;;;;;;;;;;;;;;;;;;;;;;;;;;;;;;;;;;;;;;;;;;;;;;;;;;;;;;;
"Nicola123";"1994";;"Windows 7";"Rachel's Experiment (D.T.)";"1.0";"2";"1";"1";"2";"1";"1";"2014-10-07 11:00:20.995";"2014-10-07 11:14:34.104";"1";"0";"1";"165";"164";"module.devaluation_block1.exec-6394.deval1";"7467";"2014-10-07 11:11:39.795";"18";"8";"9";"8";"1810";"1316";"1317";"2014-10-07 11:11:32.323";"3";;;;;;;;;;;;;;;;;;;;;;;;;;;;;;;;;;;;;;;;;;;;;;;;;;;;;;;;;;;;;;;;;;;;;;;;;;;;;;;;
"Nicola123";"1994";;"Windows 7";"Rachel's Experiment (D.T.)";"1.0";"2";"1";"1";"2";"1";"1";"2014-10-07 11:00:20.995";"2014-10-07 11:14:34.104";"1";"0";"1";"166";"165";"module.devaluation_block1.exec-6394.deval1";"6560";"2014-10-07 11:11:46.956";"20";"7";"8";"8";"873";"1308";"1349";"2014-10-07 11:11:40.404";"3";;;;;;;;;;;;;;;;;;;;;;;;;;;;;;;;;;;;;;;;;;;;;;;;;;;;;;;;;;;;;;;;;;;;;;;;;;;;;;;;
"Nicola123";"1994";;"Windows 7";"Rachel's Experiment (D.T.)";"1.0";"2";"1";"1";"2";"1";"1";"2014-10-07 11:00:20.995";"2014-10-07 11:14:34.104";"1";"0";"1";"167";"166";"module.devaluation_block1.exec-6394.deval1";"5749";"2014-10-07 11:11:53.212";"10";"4";"4";"4";"726";"879";"1125";"2014-10-07 11:11:47.455";"2";;;;;;;;;;;;;;;;;;;;;;;;;;;;;;;;;;;;;;;;;;;;;;;;;;;;;;;;;;;;;;;;;;;;;;;;;;;;;;;;
"Nicola123";"1994";;"Windows 7";"Rachel's Experiment (D.T.)";"1.0";"2";"1";"1";"2";"1";"1";"2014-10-07 11:00:20.995";"2014-10-07 11:14:34.104";"1";"0";"1";"168";"167";"module.devaluation_block1.exec-6394.deval1";"6013";"2014-10-07 11:11:59.967";"8";"6";"7";"7";"644";"1290";"1058";"2014-10-07 11:11:53.961";"1";;;;;;;;;;;;;;;;;;;;;;;;;;;;;;;;;;;;;;;;;;;;;;;;;;;;;;;;;;;;;;;;;;;;;;;;;;;;;;;;
"Nicola123";"1994";;"Windows 7";"Rachel's Experiment (D.T.)";"1.0";"2";"1";"1";"2";"1";"1";"2014-10-07 11:00:20.995";"2014-10-07 11:14:34.104";"1";"0";"1";"169";"168";"module.devaluation_block1.exec-6394.deval1";"5764";"2014-10-07 11:12:06.223";"0";"7";"8";"8";"819";"939";"989";"2014-10-07 11:12:00.451";"1";;;;;;;;;;;;;;;;;;;;;;;;;;;;;;;;;;;;;;;;;;;;;;;;;;;;;;;;;;;;;;;;;;;;;;;;;;;;;;;;
"Nicola123";"1994";;"Windows 7";"Rachel's Experiment (D.T.)";"1.0";"2";"1";"1";"2";"1";"1";"2014-10-07 11:00:20.995";"2014-10-07 11:14:34.104";"1";"0";"1";"170";"169";"module.devaluation_block1.exec-6394.deval1";"4027";"2014-10-07 11:12:10.763";"11";"5";"5";"5";"308";"390";"320";"2014-10-07 11:12:06.723";"2";;;;;;;;;;;;;;;;;;;;;;;;;;;;;;;;;;;;;;;;;;;;;;;;;;;;;;;;;;;;;;;;;;;;;;;;;;;;;;;;
"Nicola123";"1994";;"Windows 7";"Rachel's Experiment (D.T.)";"1.0";"2";"1";"1";"2";"1";"1";"2014-10-07 11:00:20.995";"2014-10-07 11:14:34.104";"1";"0";"1";"171";"170";"module.devaluation_block1.exec-6394.deval1";"4952";"2014-10-07 11:12:16.270";"17";"6";"6";"5";"609";"613";"702";"2014-10-07 11:12:11.309";"2";;;;;;;;;;;;;;;;;;;;;;;;;;;;;;;;;;;;;;;;;;;;;;;;;;;;;;;;;;;;;;;;;;;;;;;;;;;;;;;;
"Nicola123";"1994";;"Windows 7";"Rachel's Experiment (D.T.)";"1.0";"2";"1";"1";"2";"1";"1";"2014-10-07 11:00:20.995";"2014-10-07 11:14:34.104";"1";"0";"1";"172";"171";"module.devaluation_block1.exec-6394.deval1";"5502";"2014-10-07 11:12:22.480";"7";"6";"7";"7";"995";"729";"761";"2014-10-07 11:12:16.988";"1";;;;;;;;;;;;;;;;;;;;;;;;;;;;;;;;;;;;;;;;;;;;;;;;;;;;;;;;;;;;;;;;;;;;;;;;;;;;;;;;
"Nicola123";"1994";;"Windows 7";"Rachel's Experiment (D.T.)";"1.0";"2";"1";"1";"2";"1";"1";"2014-10-07 11:00:20.995";"2014-10-07 11:14:34.104";"1";"0";"1";"173";"172";"module.devaluation_block1.exec-6394.deval1";"8382";"2014-10-07 11:12:31.403";"14";"8";"8";"8";"2445";"1576";"1345";"2014-10-07 11:12:23.010";"2";;;;;;;;;;;;;;;;;;;;;;;;;;;;;;;;;;;;;;;;;;;;;;;;;;;;;;;;;;;;;;;;;;;;;;;;;;;;;;;;
"Nicola123";"1994";;"Windows 7";"Rachel's Experiment (D.T.)";"1.0";"2";"1";"1";"2";"1";"1";"2014-10-07 11:00:20.995";"2014-10-07 11:14:34.104";"1";"0";"1";"174";"173";"module.devaluation_block1.exec-6394.deval1";"4684";"2014-10-07 11:12:36.754";"25";"5";"4";"4";"357";"681";"620";"2014-10-07 11:12:32.074";"3";;;;;;;;;;;;;;;;;;;;;;;;;;;;;;;;;;;;;;;;;;;;;;;;;;;;;;;;;;;;;;;;;;;;;;;;;;;;;;;;
"Nicola123";"1994";;"Windows 7";"Rachel's Experiment (D.T.)";"1.0";"2";"1";"1";"2";"1";"1";"2014-10-07 11:00:20.995";"2014-10-07 11:14:34.104";"1";"0";"1";"175";"174";"module.devaluation_block1.exec-6394.deval1";"4297";"2014-10-07 11:12:41.575";"13";"6";"5";"5";"699";"247";"338";"2014-10-07 11:12:37.285";"2";;;;;;;;;;;;;;;;;;;;;;;;;;;;;;;;;;;;;;;;;;;;;;;;;;;;;;;;;;;;;;;;;;;;;;;;;;;;;;;;
"Nicola123";"1994";;"Windows 7";"Rachel's Experiment (D.T.)";"1.0";"2";"1";"1";"2";"1";"1";"2014-10-07 11:00:20.995";"2014-10-07 11:14:34.104";"1";"0";"1";"176";"175";"module.devaluation_block1.exec-6394.deval1";"7942";"2014-10-07 11:12:50.202";"26";"9";"9";"9";"1090";"1165";"2652";"2014-10-07 11:12:42.261";"3";;;;;;;;;;;;;;;;;;;;;;;;;;;;;;;;;;;;;;;;;;;;;;;;;;;;;;;;;;;;;;;;;;;;;;;;;;;;;;;;
"Nicola123";"1994";;"Windows 7";"Rachel's Experiment (D.T.)";"1.0";"2";"1";"1";"2";"1";"1";"2014-10-07 11:00:20.995";"2014-10-07 11:14:34.104";"1";"0";"1";"177";"176";"module.devaluation_block1.exec-6394.deval1";"6462";"2014-10-07 11:12:57.270";"2";"8";"8";"8";"1269";"951";"1227";"2014-10-07 11:12:50.795";"1";;;;;;;;;;;;;;;;;;;;;;;;;;;;;;;;;;;;;;;;;;;;;;;;;;;;;;;;;;;;;;;;;;;;;;;;;;;;;;;;
"Nicola123";"1994";;"Windows 7";"Rachel's Experiment (D.T.)";"1.0";"2";"1";"1";"2";"1";"1";"2014-10-07 11:00:20.995";"2014-10-07 11:14:34.104";"1";"0";"1";"178";"177";"module.devaluation_block1.exec-6394.deval1";"5798";"2014-10-07 11:13:03.681";"22";"6";"7";"8";"675";"652";"1434";"2014-10-07 11:12:57.894";"3";;;;;;;;;;;;;;;;;;;;;;;;;;;;;;;;;;;;;;;;;;;;;;;;;;;;;;;;;;;;;;;;;;;;;;;;;;;;;;;;
"Nicola123";"1994";;"Windows 7";"Rachel's Experiment (D.T.)";"1.0";"2";"1";"1";"2";"1";"1";"2014-10-07 11:00:20.995";"2014-10-07 11:14:34.104";"1";"0";"1";"179";"178";"module.devaluation_block1.exec-6394.deval1";"6894";"2014-10-07 11:13:11.123";"15";"3";"3";"3";"862";"1563";"1441";"2014-10-07 11:13:04.228";"2";;;;;;;;;;;;;;;;;;;;;;;;;;;;;;;;;;;;;;;;;;;;;;;;;;;;;;;;;;;;;;;;;;;;;;;;;;;;;;;;
"Nicola123";"1994";;"Windows 7";"Rachel's Experiment (D.T.)";"1.0";"2";"1";"1";"2";"1";"1";"2014-10-07 11:00:20.995";"2014-10-07 11:14:34.104";"1";"0";"1";"180";"179";"module.devaluation_block1.exec-6394.deval1";"6128";"2014-10-07 11:13:17.878";"21";"7";"7";"7";"1334";"1030";"741";"2014-10-07 11:13:11.747";"3";;;;;;;;;;;;;;;;;;;;;;;;;;;;;;;;;;;;;;;;;;;;;;;;;;;;;;;;;;;;;;;;;;;;;;;;;;;;;;;;
"Nicola123";"1994";;"Windows 7";"Rachel's Experiment (D.T.)";"1.0";"2";"1";"1";"2";"1";"1";"2014-10-07 11:00:20.995";"2014-10-07 11:14:34.104";"1";"0";"1";"181";"180";"module.devaluation_block1.exec-6394.deval1";"7726";"2014-10-07 11:13:26.303";"4";"9";"9";"9";"1213";"1310";"2185";"2014-10-07 11:13:18.565";"1";;;;;;;;;;;;;;;;;;;;;;;;;;;;;;;;;;;;;;;;;;;;;;;;;;;;;;;;;;;;;;;;;;;;;;;;;;;;;;;;
"Nicola123";"1994";;"Windows 7";"Rachel's Experiment (D.T.)";"1.0";"2";"1";"1";"2";"1";"1";"2014-10-07 11:00:20.995";"2014-10-07 11:14:34.104";"1";"0";"1";"182";"181";"module.devaluation_block1.exec-6394.deval1";"5648";"2014-10-07 11:13:32.434";"1";"8";"8";"8";"872";"809";"948";"2014-10-07 11:13:26.786";"1";;;;;;;;;;;;;;;;;;;;;;;;;;;;;;;;;;;;;;;;;;;;;;;;;;;;;;;;;;;;;;;;;;;;;;;;;;;;;;;;
"Nicola123";"1994";;"Windows 7";"Rachel's Experiment (D.T.)";"1.0";"2";"1";"1";"2";"1";"1";"2014-10-07 11:00:20.995";"2014-10-07 11:14:34.104";"1";"0";"1";"183";"182";"module.devaluation_block1.exec-6394.deval1";"8096";"2014-10-07 11:13:41.092";"16";"2";"1";"1";"3103";"986";"980";"2014-10-07 11:13:32.996";"2";;;;;;;;;;;;;;;;;;;;;;;;;;;;;;;;;;;;;;;;;;;;;;;;;;;;;;;;;;;;;;;;;;;;;;;;;;;;;;;;
"Nicola123";"1994";;"Windows 7";"Rachel's Experiment (D.T.)";"1.0";"2";"1";"1";"2";"1";"1";"2014-10-07 11:00:20.995";"2014-10-07 11:14:34.104";"1";"0";"1";"184";"183";"module.devaluation_block1.exec-6394.deval1";"5606";"2014-10-07 11:13:47.426";"9";"3";"2";"3";"1089";"778";"722";"2014-10-07 11:13:41.826";"2";;;;;;;;;;;;;;;;;;;;;;;;;;;;;;;;;;;;;;;;;;;;;;;;;;;;;;;;;;;;;;;;;;;;;;;;;;;;;;;;
"Nicola123";"1994";;"Windows 7";"Rachel's Experiment (D.T.)";"1.0";"2";"1";"1";"2";"1";"1";"2014-10-07 11:00:20.995";"2014-10-07 11:14:34.104";"1";"0";"1";"185";"184";"module.devaluation_block1.exec-6394.deval1";"6090";"2014-10-07 11:13:54.228";"6";"7";"7";"7";"843";"1423";"798";"2014-10-07 11:13:48.128";"1";;;;;;;;;;;;;;;;;;;;;;;;;;;;;;;;;;;;;;;;;;;;;;;;;;;;;;;;;;;;;;;;;;;;;;;;;;;;;;;;
"Nicola123";"1994";;"Windows 7";"Rachel's Experiment (D.T.)";"1.0";"2";"1";"1";"2";"1";"1";"2014-10-07 11:00:20.995";"2014-10-07 11:14:34.104";"1";"0";"1";"186";"185";"module.devaluation_block1.exec-6394.deval1";"6737";"2014-10-07 11:14:01.467";"12";"9";"9";"9";"1365";"1152";"1196";"2014-10-07 11:13:54.743";"2";;;;;;;;;;;;;;;;;;;;;;;;;;;;;;;;;;;;;;;;;;;;;;;;;;;;;;;;;;;;;;;;;;;;;;;;;;;;;;;;
"Nicola123";"1994";;"Windows 7";"Rachel's Experiment (D.T.)";"1.0";"2";"1";"1";"2";"1";"1";"2014-10-07 11:00:20.995";"2014-10-07 11:14:34.104";"1";"0";"1";"187";"186";"module.devaluation_block1.exec-6394.deval1";"5884";"2014-10-07 11:14:08.051";"5";"8";"9";"8";"891";"1082";"887";"2014-10-07 11:14:02.169";"1";;;;;;;;;;;;;;;;;;;;;;;;;;;;;;;;;;;;;;;;;;;;;;;;;;;;;;;;;;;;;;;;;;;;;;;;;;;;;;;;
"Nicola123";"1994";;"Windows 7";"Rachel's Experiment (D.T.)";"1.0";"2";"1";"1";"2";"1";"1";"2014-10-07 11:00:20.995";"2014-10-07 11:14:34.104";"1";"0";"1";"188";"187";"module.devaluation_block1.exec-6394.deval1";"6771";"2014-10-07 11:14:15.399";"19";"6";"8";"7";"2104";"837";"804";"2014-10-07 11:14:08.628";"3";;;;;;;;;;;;;;;;;;;;;;;;;;;;;;;;;;;;;;;;;;;;;;;;;;;;;;;;;;;;;;;;;;;;;;;;;;;;;;;;
"Nicola123";"1994";;"Windows 7";"Rachel's Experiment (D.T.)";"1.0";"2";"1";"1";"2";"1";"1";"2014-10-07 11:00:20.995";"2014-10-07 11:14:34.104";"1";"0";"1";"189";"188";"module.devaluation_block1.exec-6394.deval1";"6791";"2014-10-07 11:14:22.872";"3";"9";"9";"9";"1032";"1383";"1343";"2014-10-07 11:14:16.085";"1";;;;;;;;;;;;;;;;;;;;;;;;;;;;;;;;;;;;;;;;;;;;;;;;;;;;;;;;;;;;;;;;;;;;;;;;;;;;;;;;
"Nicola123";"1994";;"Windows 7";"Rachel's Experiment (D.T.)";"1.0";"2";"1";"1";"2";"1";"1";"2014-10-07 11:00:20.995";"2014-10-07 11:14:34.104";"1";"0";"1";"190";"189";"module.devaluation_block1.exec-6394.deval1";"6223";"2014-10-07 11:14:29.752";"24";"8";"9";"8";"1358";"985";"854";"2014-10-07 11:14:23.527";"3";;;;;;;;;;;;;;;;;;;;;;;;;;;;;;;;;;;;;;;;;;;;;;;;;;;;;;;;;;;;;;;;;;;;;;;;;;;;;;;;
