"user.name";"user.yearOfBirth";"user.sex";"user.osName";"module.name";"module.version";"module.online.subject.code";"module.online.study.id";"module.online.module.nr";"module.online.group.nr";"session.id";"session.index";"session.startTime";"session.endTime";"session.completed";"session.node-1616.conditionType";"session.node-7628.DevalQorder";"trial.id";"trial.index";"trial.name";"trial.deval1.durationTime";"trial.deval1.endTime";"trial.deval1.icon";"trial.deval1.Resp_Attractive";"trial.deval1.Resp_Eat";"trial.deval1.Resp_Taste";"trial.deval1.RT_Attractive";"trial.deval1.RT_Eat";"trial.deval1.RT_Taste";"trial.deval1.startTime";"trial.deval1.stimulus type";"trial.devalPractice.durationTime";"trial.devalPractice.endTime";"trial.devalPractice.icon";"trial.devalPractice.Resp_Attractive";"trial.devalPractice.Resp_Eat";"trial.devalPractice.Resp_Taste";"trial.devalPractice.RT_Attractive";"trial.devalPractice.RT_Eat";"trial.devalPractice.RT_Taste";"trial.devalPractice.startTime";"trial.devalPractice.stimulus type";"trial.GoNoGo1.durationTime";"trial.GoNoGo1.endTime";"trial.GoNoGo1.Error Type";"trial.GoNoGo1.icon";"trial.GoNoGo1.location";"trial.GoNoGo1.outcome";"trial.GoNoGo1.response";"trial.GoNoGo1.result";"trial.GoNoGo1.RT";"trial.GoNoGo1.signal";"trial.GoNoGo1.startTime";"trial.GoNoGo1.stimulus type";"trial.GoNoGo2.durationTime";"trial.GoNoGo2.endTime";"trial.GoNoGo2.Error Type";"trial.GoNoGo2.icon";"trial.GoNoGo2.location";"trial.GoNoGo2.outcome";"trial.GoNoGo2.response";"trial.GoNoGo2.result";"trial.GoNoGo2.RT";"trial.GoNoGo2.signal";"trial.GoNoGo2.startTime";"trial.GoNoGo2.stimulus type";"trial.GoNoGo3.durationTime";"trial.GoNoGo3.endTime";"trial.GoNoGo3.Error Type";"trial.GoNoGo3.icon";"trial.GoNoGo3.location";"trial.GoNoGo3.outcome";"trial.GoNoGo3.response";"trial.GoNoGo3.result";"trial.GoNoGo3.RT";"trial.GoNoGo3.signal";"trial.GoNoGo3.startTime";"trial.GoNoGo3.stimulus type";"trial.GoNoGo4.durationTime";"trial.GoNoGo4.endTime";"trial.GoNoGo4.Error Type";"trial.GoNoGo4.icon";"trial.GoNoGo4.location";"trial.GoNoGo4.outcome";"trial.GoNoGo4.response";"trial.GoNoGo4.result";"trial.GoNoGo4.RT";"trial.GoNoGo4.signal";"trial.GoNoGo4.startTime";"trial.GoNoGo4.stimulus type";"trial.GoNoGo_Practice.durationTime";"trial.GoNoGo_Practice.endTime";"trial.GoNoGo_Practice.icon";"trial.GoNoGo_Practice.location";"trial.GoNoGo_Practice.outcome";"trial.GoNoGo_Practice.response";"trial.GoNoGo_Practice.result";"trial.GoNoGo_Practice.RT";"trial.GoNoGo_Practice.signal";"trial.GoNoGo_Practice.startTime";"trial.GoNoGo_Practice.stimulus type";"trial.GoNoGo_Tutorial.durationTime";"trial.GoNoGo_Tutorial.endTime";"trial.GoNoGo_Tutorial.icon";"trial.GoNoGo_Tutorial.location";"trial.GoNoGo_Tutorial.outcome";"trial.GoNoGo_Tutorial.response";"trial.GoNoGo_Tutorial.result";"trial.GoNoGo_Tutorial.RT";"trial.GoNoGo_Tutorial.signal";"trial.GoNoGo_Tutorial.startTime"
"C1401190";;;"Windows 7";"Rachel's Experiment (D.T.)";"1.0";"2";"1";"1";"2";"1";"1";"2014-10-16 13:32:45.427";"2014-10-16 13:45:22.778";"1";"1";"1";"1";"0";"module.GoNoGotutorial.exec-5672.GoNoGo_Tutorial";;;;;;;;;;;;;;;;;;;;;;;;;;;;;;;;;;;;;;;;;;;;;;;;;;;;;;;;;;;;;;;;;;;;;;;;;;;;;;;;;;"3998";"2014-10-16 13:33:26.221";"leftResponse";"0";"FINISHED";"LEFT";"success";"1377";"0";"2014-10-16 13:33:22.212"
"C1401190";;;"Windows 7";"Rachel's Experiment (D.T.)";"1.0";"2";"1";"1";"2";"1";"1";"2014-10-16 13:32:45.427";"2014-10-16 13:45:22.778";"1";"1";"1";"2";"1";"module.GoNoGotutorial.exec-5672.GoNoGo_Tutorial";;;;;;;;;;;;;;;;;;;;;;;;;;;;;;;;;;;;;;;;;;;;;;;;;;;;;;;;;;;;;;;;;;;;;;;;;;;;;;;;;;"4003";"2014-10-16 13:33:31.525";"rightResponse";"1";"FINISHED";"RIGHT";"success";"775";"0";"2014-10-16 13:33:27.516"
"C1401190";;;"Windows 7";"Rachel's Experiment (D.T.)";"1.0";"2";"1";"1";"2";"1";"1";"2014-10-16 13:32:45.427";"2014-10-16 13:45:22.778";"1";"1";"1";"3";"2";"module.GoNoGotutorial.exec-5672.GoNoGo_Tutorial";;;;;;;;;;;;;;;;;;;;;;;;;;;;;;;;;;;;;;;;;;;;;;;;;;;;;;;;;;;;;;;;;;;;;;;;;;;;;;;;;;"4003";"2014-10-16 13:33:36.829";"signalResponse";"0";"FINISHED";"NONE";"success";"0";"1";"2014-10-16 13:33:32.820"
"C1401190";;;"Windows 7";"Rachel's Experiment (D.T.)";"1.0";"2";"1";"1";"2";"1";"1";"2014-10-16 13:32:45.427";"2014-10-16 13:45:22.778";"1";"1";"1";"4";"3";"module.GoNoGopractice.exec-2647.GoNoGo_Practice";;;;;;;;;;;;;;;;;;;;;;;;;;;;;;;;;;;;;;;;;;;;;;;;;;;;;;;;;;;;;;;;;;;;;;;"1959";"2014-10-16 13:33:43.959";"18";"0";"FINISHED";"LEFT";"success";"537";"0";"2014-10-16 13:33:41.993";"3";;;;;;;;;;
"C1401190";;;"Windows 7";"Rachel's Experiment (D.T.)";"1.0";"2";"1";"1";"2";"1";"1";"2014-10-16 13:32:45.427";"2014-10-16 13:45:22.778";"1";"1";"1";"5";"4";"module.GoNoGopractice.exec-2647.GoNoGo_Practice";;;;;;;;;;;;;;;;;;;;;;;;;;;;;;;;;;;;;;;;;;;;;;;;;;;;;;;;;;;;;;;;;;;;;;;"1954";"2014-10-16 13:33:47.203";"21";"1";"FINISHED";"RIGHT";"success";"416";"0";"2014-10-16 13:33:45.238";"3";;;;;;;;;;
"C1401190";;;"Windows 7";"Rachel's Experiment (D.T.)";"1.0";"2";"1";"1";"2";"1";"1";"2014-10-16 13:32:45.427";"2014-10-16 13:45:22.778";"1";"1";"1";"6";"5";"module.GoNoGopractice.exec-2647.GoNoGo_Practice";;;;;;;;;;;;;;;;;;;;;;;;;;;;;;;;;;;;;;;;;;;;;;;;;;;;;;;;;;;;;;;;;;;;;;;"1959";"2014-10-16 13:33:50.448";"14";"1";"FINISHED";"NONE";"success";"0";"1";"2014-10-16 13:33:48.483";"2";;;;;;;;;;
"C1401190";;;"Windows 7";"Rachel's Experiment (D.T.)";"1.0";"2";"1";"1";"2";"1";"1";"2014-10-16 13:32:45.427";"2014-10-16 13:45:22.778";"1";"1";"1";"7";"6";"module.GoNoGopractice.exec-2647.GoNoGo_Practice";;;;;;;;;;;;;;;;;;;;;;;;;;;;;;;;;;;;;;;;;;;;;;;;;;;;;;;;;;;;;;;;;;;;;;;"1959";"2014-10-16 13:33:53.693";"26";"0";"FINISHED";"LEFT";"success";"387";"0";"2014-10-16 13:33:51.727";"3";;;;;;;;;;
"C1401190";;;"Windows 7";"Rachel's Experiment (D.T.)";"1.0";"2";"1";"1";"2";"1";"1";"2014-10-16 13:32:45.427";"2014-10-16 13:45:22.778";"1";"1";"1";"8";"7";"module.GoNoGopractice.exec-2647.GoNoGo_Practice";;;;;;;;;;;;;;;;;;;;;;;;;;;;;;;;;;;;;;;;;;;;;;;;;;;;;;;;;;;;;;;;;;;;;;;"1959";"2014-10-16 13:33:56.938";"2";"0";"FINISHED";"LEFT";"success";"431";"0";"2014-10-16 13:33:54.972";"1";;;;;;;;;;
"C1401190";;;"Windows 7";"Rachel's Experiment (D.T.)";"1.0";"2";"1";"1";"2";"1";"1";"2014-10-16 13:32:45.427";"2014-10-16 13:45:22.778";"1";"1";"1";"9";"8";"module.GoNoGopractice.exec-2647.GoNoGo_Practice";;;;;;;;;;;;;;;;;;;;;;;;;;;;;;;;;;;;;;;;;;;;;;;;;;;;;;;;;;;;;;;;;;;;;;;"1962";"2014-10-16 13:34:00.183";"30";"0";"FINISHED";"LEFT";"failure";"469";"1";"2014-10-16 13:33:58.217";"3";;;;;;;;;;
"C1401190";;;"Windows 7";"Rachel's Experiment (D.T.)";"1.0";"2";"1";"1";"2";"1";"1";"2014-10-16 13:32:45.427";"2014-10-16 13:45:22.778";"1";"1";"1";"10";"9";"module.GoNoGopractice.exec-2647.GoNoGo_Practice";;;;;;;;;;;;;;;;;;;;;;;;;;;;;;;;;;;;;;;;;;;;;;;;;;;;;;;;;;;;;;;;;;;;;;;"1959";"2014-10-16 13:34:03.428";"6";"1";"FINISHED";"NONE";"success";"0";"1";"2014-10-16 13:34:01.462";"1";;;;;;;;;;
"C1401190";;;"Windows 7";"Rachel's Experiment (D.T.)";"1.0";"2";"1";"1";"2";"1";"1";"2014-10-16 13:32:45.427";"2014-10-16 13:45:22.778";"1";"1";"1";"11";"10";"module.GoNoGopractice.exec-2647.GoNoGo_Practice";;;;;;;;;;;;;;;;;;;;;;;;;;;;;;;;;;;;;;;;;;;;;;;;;;;;;;;;;;;;;;;;;;;;;;;"1960";"2014-10-16 13:34:06.672";"34";"0";"FINISHED";"LEFT";"success";"393";"0";"2014-10-16 13:34:04.707";"3";;;;;;;;;;
"C1401190";;;"Windows 7";"Rachel's Experiment (D.T.)";"1.0";"2";"1";"1";"2";"1";"1";"2014-10-16 13:32:45.427";"2014-10-16 13:45:22.778";"1";"1";"1";"12";"11";"module.GoNoGopractice.exec-2647.GoNoGo_Practice";;;;;;;;;;;;;;;;;;;;;;;;;;;;;;;;;;;;;;;;;;;;;;;;;;;;;;;;;;;;;;;;;;;;;;;"1959";"2014-10-16 13:34:09.917";"23";"1";"FINISHED";"RIGHT";"success";"1139";"0";"2014-10-16 13:34:07.952";"3";;;;;;;;;;
"C1401190";;;"Windows 7";"Rachel's Experiment (D.T.)";"1.0";"2";"1";"1";"2";"1";"1";"2014-10-16 13:32:45.427";"2014-10-16 13:45:22.778";"1";"1";"1";"13";"12";"module.GoNoGopractice.exec-2647.GoNoGo_Practice";;;;;;;;;;;;;;;;;;;;;;;;;;;;;;;;;;;;;;;;;;;;;;;;;;;;;;;;;;;;;;;;;;;;;;;"1959";"2014-10-16 13:34:13.162";"13";"0";"FINISHED";"NONE";"success";"0";"1";"2014-10-16 13:34:11.196";"2";;;;;;;;;;
"C1401190";;;"Windows 7";"Rachel's Experiment (D.T.)";"1.0";"2";"1";"1";"2";"1";"1";"2014-10-16 13:32:45.427";"2014-10-16 13:45:22.778";"1";"1";"1";"14";"13";"module.GoNoGopractice.exec-2647.GoNoGo_Practice";;;;;;;;;;;;;;;;;;;;;;;;;;;;;;;;;;;;;;;;;;;;;;;;;;;;;;;;;;;;;;;;;;;;;;;"1956";"2014-10-16 13:34:16.532";"3";"1";"FINISHED";"RIGHT";"success";"401";"0";"2014-10-16 13:34:14.566";"1";;;;;;;;;;
"C1401190";;;"Windows 7";"Rachel's Experiment (D.T.)";"1.0";"2";"1";"1";"2";"1";"1";"2014-10-16 13:32:45.427";"2014-10-16 13:45:22.778";"1";"1";"1";"15";"14";"module.GoNoGopractice.exec-2647.GoNoGo_Practice";;;;;;;;;;;;;;;;;;;;;;;;;;;;;;;;;;;;;;;;;;;;;;;;;;;;;;;;;;;;;;;;;;;;;;;"1959";"2014-10-16 13:34:19.776";"27";"1";"FINISHED";"NONE";"success";"0";"1";"2014-10-16 13:34:17.811";"3";;;;;;;;;;
"C1401190";;;"Windows 7";"Rachel's Experiment (D.T.)";"1.0";"2";"1";"1";"2";"1";"1";"2014-10-16 13:32:45.427";"2014-10-16 13:45:22.778";"1";"1";"1";"16";"15";"module.training_block1.exec-3379.GoNoGo1";;;;;;;;;;;;;;;;;;;;;;;"1257";"2014-10-16 13:34:28.466";"ST_correctStop";"19";"1";"FINISHED";"NONE";"success";"0";"1";"2014-10-16 13:34:27.202";"3";;;;;;;;;;;;;;;;;;;;;;;;;;;;;;;;;;;;;;;;;;;;;;;;;;;;;;;;;
"C1401190";;;"Windows 7";"Rachel's Experiment (D.T.)";"1.0";"2";"1";"1";"2";"1";"1";"2014-10-16 13:32:45.427";"2014-10-16 13:45:22.778";"1";"1";"1";"17";"16";"module.training_block1.exec-3379.GoNoGo1";;;;;;;;;;;;;;;;;;;;;;;"1257";"2014-10-16 13:34:31.008";"ST_correctStop";"2";"1";"FINISHED";"NONE";"success";"0";"1";"2014-10-16 13:34:29.745";"1";;;;;;;;;;;;;;;;;;;;;;;;;;;;;;;;;;;;;;;;;;;;;;;;;;;;;;;;;
"C1401190";;;"Windows 7";"Rachel's Experiment (D.T.)";"1.0";"2";"1";"1";"2";"1";"1";"2014-10-16 13:32:45.427";"2014-10-16 13:45:22.778";"1";"1";"1";"18";"17";"module.training_block1.exec-3379.GoNoGo1";;;;;;;;;;;;;;;;;;;;;;;"1257";"2014-10-16 13:34:33.551";"NST_correctLoc";"17";"1";"FINISHED";"RIGHT";"success";"419";"0";"2014-10-16 13:34:32.288";"2";;;;;;;;;;;;;;;;;;;;;;;;;;;;;;;;;;;;;;;;;;;;;;;;;;;;;;;;;
"C1401190";;;"Windows 7";"Rachel's Experiment (D.T.)";"1.0";"2";"1";"1";"2";"1";"1";"2014-10-16 13:32:45.427";"2014-10-16 13:45:22.778";"1";"1";"1";"19";"18";"module.training_block1.exec-3379.GoNoGo1";;;;;;;;;;;;;;;;;;;;;;;"1257";"2014-10-16 13:34:36.094";"NST_correctLoc";"13";"0";"FINISHED";"LEFT";"success";"452";"0";"2014-10-16 13:34:34.830";"2";;;;;;;;;;;;;;;;;;;;;;;;;;;;;;;;;;;;;;;;;;;;;;;;;;;;;;;;;
"C1401190";;;"Windows 7";"Rachel's Experiment (D.T.)";"1.0";"2";"1";"1";"2";"1";"1";"2014-10-16 13:32:45.427";"2014-10-16 13:45:22.778";"1";"1";"1";"20";"19";"module.training_block1.exec-3379.GoNoGo1";;;;;;;;;;;;;;;;;;;;;;;"1257";"2014-10-16 13:34:38.637";"NST_correctLoc";"21";"0";"FINISHED";"LEFT";"success";"461";"0";"2014-10-16 13:34:37.373";"3";;;;;;;;;;;;;;;;;;;;;;;;;;;;;;;;;;;;;;;;;;;;;;;;;;;;;;;;;
"C1401190";;;"Windows 7";"Rachel's Experiment (D.T.)";"1.0";"2";"1";"1";"2";"1";"1";"2014-10-16 13:32:45.427";"2014-10-16 13:45:22.778";"1";"1";"1";"21";"20";"module.training_block1.exec-3379.GoNoGo1";;;;;;;;;;;;;;;;;;;;;;;"1257";"2014-10-16 13:34:41.180";"ST_correctStop";"4";"1";"FINISHED";"NONE";"success";"0";"1";"2014-10-16 13:34:39.916";"1";;;;;;;;;;;;;;;;;;;;;;;;;;;;;;;;;;;;;;;;;;;;;;;;;;;;;;;;;
"C1401190";;;"Windows 7";"Rachel's Experiment (D.T.)";"1.0";"2";"1";"1";"2";"1";"1";"2014-10-16 13:32:45.427";"2014-10-16 13:45:22.778";"1";"1";"1";"22";"21";"module.training_block1.exec-3379.GoNoGo1";;;;;;;;;;;;;;;;;;;;;;;"1258";"2014-10-16 13:34:43.722";"ST_correctStop";"5";"1";"FINISHED";"NONE";"success";"0";"1";"2014-10-16 13:34:42.459";"1";;;;;;;;;;;;;;;;;;;;;;;;;;;;;;;;;;;;;;;;;;;;;;;;;;;;;;;;;
"C1401190";;;"Windows 7";"Rachel's Experiment (D.T.)";"1.0";"2";"1";"1";"2";"1";"1";"2014-10-16 13:32:45.427";"2014-10-16 13:45:22.778";"1";"1";"1";"23";"22";"module.training_block1.exec-3379.GoNoGo1";;;;;;;;;;;;;;;;;;;;;;;"1258";"2014-10-16 13:34:46.250";"NST_correctLoc";"9";"0";"FINISHED";"LEFT";"success";"401";"0";"2014-10-16 13:34:44.986";"2";;;;;;;;;;;;;;;;;;;;;;;;;;;;;;;;;;;;;;;;;;;;;;;;;;;;;;;;;
"C1401190";;;"Windows 7";"Rachel's Experiment (D.T.)";"1.0";"2";"1";"1";"2";"1";"1";"2014-10-16 13:32:45.427";"2014-10-16 13:45:22.778";"1";"1";"1";"24";"23";"module.training_block1.exec-3379.GoNoGo1";;;;;;;;;;;;;;;;;;;;;;;"1258";"2014-10-16 13:34:48.792";"ST_correctStop";"22";"0";"FINISHED";"NONE";"success";"0";"1";"2014-10-16 13:34:47.529";"3";;;;;;;;;;;;;;;;;;;;;;;;;;;;;;;;;;;;;;;;;;;;;;;;;;;;;;;;;
"C1401190";;;"Windows 7";"Rachel's Experiment (D.T.)";"1.0";"2";"1";"1";"2";"1";"1";"2014-10-16 13:32:45.427";"2014-10-16 13:45:22.778";"1";"1";"1";"25";"24";"module.training_block1.exec-3379.GoNoGo1";;;;;;;;;;;;;;;;;;;;;;;"1256";"2014-10-16 13:34:51.335";"ST_correctStop";"6";"1";"FINISHED";"NONE";"success";"0";"1";"2014-10-16 13:34:50.072";"1";;;;;;;;;;;;;;;;;;;;;;;;;;;;;;;;;;;;;;;;;;;;;;;;;;;;;;;;;
"C1401190";;;"Windows 7";"Rachel's Experiment (D.T.)";"1.0";"2";"1";"1";"2";"1";"1";"2014-10-16 13:32:45.427";"2014-10-16 13:45:22.778";"1";"1";"1";"26";"25";"module.training_block1.exec-3379.GoNoGo1";;;;;;;;;;;;;;;;;;;;;;;"1257";"2014-10-16 13:34:53.878";"ST_correctStop";"0";"1";"FINISHED";"NONE";"success";"0";"1";"2014-10-16 13:34:52.614";"1";;;;;;;;;;;;;;;;;;;;;;;;;;;;;;;;;;;;;;;;;;;;;;;;;;;;;;;;;
"C1401190";;;"Windows 7";"Rachel's Experiment (D.T.)";"1.0";"2";"1";"1";"2";"1";"1";"2014-10-16 13:32:45.427";"2014-10-16 13:45:22.778";"1";"1";"1";"27";"26";"module.training_block1.exec-3379.GoNoGo1";;;;;;;;;;;;;;;;;;;;;;;"1253";"2014-10-16 13:34:56.421";"NST_correctLoc";"14";"0";"FINISHED";"LEFT";"success";"417";"0";"2014-10-16 13:34:55.157";"2";;;;;;;;;;;;;;;;;;;;;;;;;;;;;;;;;;;;;;;;;;;;;;;;;;;;;;;;;
"C1401190";;;"Windows 7";"Rachel's Experiment (D.T.)";"1.0";"2";"1";"1";"2";"1";"1";"2014-10-16 13:32:45.427";"2014-10-16 13:45:22.778";"1";"1";"1";"28";"27";"module.training_block1.exec-3379.GoNoGo1";;;;;;;;;;;;;;;;;;;;;;;"1258";"2014-10-16 13:34:58.964";"NST_correctLoc";"25";"1";"FINISHED";"RIGHT";"success";"463";"0";"2014-10-16 13:34:57.700";"3";;;;;;;;;;;;;;;;;;;;;;;;;;;;;;;;;;;;;;;;;;;;;;;;;;;;;;;;;
"C1401190";;;"Windows 7";"Rachel's Experiment (D.T.)";"1.0";"2";"1";"1";"2";"1";"1";"2014-10-16 13:32:45.427";"2014-10-16 13:45:22.778";"1";"1";"1";"29";"28";"module.training_block1.exec-3379.GoNoGo1";;;;;;;;;;;;;;;;;;;;;;;"1257";"2014-10-16 13:35:01.506";"NST_correctLoc";"15";"0";"FINISHED";"LEFT";"success";"431";"0";"2014-10-16 13:35:00.243";"2";;;;;;;;;;;;;;;;;;;;;;;;;;;;;;;;;;;;;;;;;;;;;;;;;;;;;;;;;
"C1401190";;;"Windows 7";"Rachel's Experiment (D.T.)";"1.0";"2";"1";"1";"2";"1";"1";"2014-10-16 13:32:45.427";"2014-10-16 13:45:22.778";"1";"1";"1";"30";"29";"module.training_block1.exec-3379.GoNoGo1";;;;;;;;;;;;;;;;;;;;;;;"1257";"2014-10-16 13:35:04.049";"NST_correctLoc";"23";"0";"FINISHED";"LEFT";"success";"505";"0";"2014-10-16 13:35:02.786";"3";;;;;;;;;;;;;;;;;;;;;;;;;;;;;;;;;;;;;;;;;;;;;;;;;;;;;;;;;
"C1401190";;;"Windows 7";"Rachel's Experiment (D.T.)";"1.0";"2";"1";"1";"2";"1";"1";"2014-10-16 13:32:45.427";"2014-10-16 13:45:22.778";"1";"1";"1";"31";"30";"module.training_block1.exec-3379.GoNoGo1";;;;;;;;;;;;;;;;;;;;;;;"1258";"2014-10-16 13:35:06.592";"NST_correctLoc";"12";"0";"FINISHED";"LEFT";"success";"514";"0";"2014-10-16 13:35:05.328";"2";;;;;;;;;;;;;;;;;;;;;;;;;;;;;;;;;;;;;;;;;;;;;;;;;;;;;;;;;
"C1401190";;;"Windows 7";"Rachel's Experiment (D.T.)";"1.0";"2";"1";"1";"2";"1";"1";"2014-10-16 13:32:45.427";"2014-10-16 13:45:22.778";"1";"1";"1";"32";"31";"module.training_block1.exec-3379.GoNoGo1";;;;;;;;;;;;;;;;;;;;;;;"1258";"2014-10-16 13:35:09.135";"ST_correctStop";"1";"0";"FINISHED";"NONE";"success";"0";"1";"2014-10-16 13:35:07.871";"1";;;;;;;;;;;;;;;;;;;;;;;;;;;;;;;;;;;;;;;;;;;;;;;;;;;;;;;;;
"C1401190";;;"Windows 7";"Rachel's Experiment (D.T.)";"1.0";"2";"1";"1";"2";"1";"1";"2014-10-16 13:32:45.427";"2014-10-16 13:45:22.778";"1";"1";"1";"33";"32";"module.training_block1.exec-3379.GoNoGo1";;;;;;;;;;;;;;;;;;;;;;;"1257";"2014-10-16 13:35:11.678";"NST_correctLoc";"32";"0";"FINISHED";"LEFT";"success";"460";"0";"2014-10-16 13:35:10.414";"3";;;;;;;;;;;;;;;;;;;;;;;;;;;;;;;;;;;;;;;;;;;;;;;;;;;;;;;;;
"C1401190";;;"Windows 7";"Rachel's Experiment (D.T.)";"1.0";"2";"1";"1";"2";"1";"1";"2014-10-16 13:32:45.427";"2014-10-16 13:45:22.778";"1";"1";"1";"34";"33";"module.training_block1.exec-3379.GoNoGo1";;;;;;;;;;;;;;;;;;;;;;;"1258";"2014-10-16 13:35:14.220";"ST_correctStop";"30";"1";"FINISHED";"NONE";"success";"0";"1";"2014-10-16 13:35:12.957";"3";;;;;;;;;;;;;;;;;;;;;;;;;;;;;;;;;;;;;;;;;;;;;;;;;;;;;;;;;
"C1401190";;;"Windows 7";"Rachel's Experiment (D.T.)";"1.0";"2";"1";"1";"2";"1";"1";"2014-10-16 13:32:45.427";"2014-10-16 13:45:22.778";"1";"1";"1";"35";"34";"module.training_block1.exec-3379.GoNoGo1";;;;;;;;;;;;;;;;;;;;;;;"1258";"2014-10-16 13:35:16.763";"ST_correctStop";"29";"0";"FINISHED";"NONE";"success";"0";"1";"2014-10-16 13:35:15.500";"3";;;;;;;;;;;;;;;;;;;;;;;;;;;;;;;;;;;;;;;;;;;;;;;;;;;;;;;;;
"C1401190";;;"Windows 7";"Rachel's Experiment (D.T.)";"1.0";"2";"1";"1";"2";"1";"1";"2014-10-16 13:32:45.427";"2014-10-16 13:45:22.778";"1";"1";"1";"36";"35";"module.training_block1.exec-3379.GoNoGo1";;;;;;;;;;;;;;;;;;;;;;;"1257";"2014-10-16 13:35:19.306";"NST_correctLoc";"26";"1";"FINISHED";"RIGHT";"success";"480";"0";"2014-10-16 13:35:18.042";"3";;;;;;;;;;;;;;;;;;;;;;;;;;;;;;;;;;;;;;;;;;;;;;;;;;;;;;;;;
"C1401190";;;"Windows 7";"Rachel's Experiment (D.T.)";"1.0";"2";"1";"1";"2";"1";"1";"2014-10-16 13:32:45.427";"2014-10-16 13:45:22.778";"1";"1";"1";"37";"36";"module.training_block1.exec-3379.GoNoGo1";;;;;;;;;;;;;;;;;;;;;;;"1257";"2014-10-16 13:35:21.849";"ST_correctStop";"28";"1";"FINISHED";"NONE";"success";"0";"1";"2014-10-16 13:35:20.585";"3";;;;;;;;;;;;;;;;;;;;;;;;;;;;;;;;;;;;;;;;;;;;;;;;;;;;;;;;;
"C1401190";;;"Windows 7";"Rachel's Experiment (D.T.)";"1.0";"2";"1";"1";"2";"1";"1";"2014-10-16 13:32:45.427";"2014-10-16 13:45:22.778";"1";"1";"1";"38";"37";"module.training_block1.exec-3379.GoNoGo1";;;;;;;;;;;;;;;;;;;;;;;"1258";"2014-10-16 13:35:24.392";"NST_correctLoc";"24";"1";"FINISHED";"RIGHT";"success";"451";"0";"2014-10-16 13:35:23.128";"3";;;;;;;;;;;;;;;;;;;;;;;;;;;;;;;;;;;;;;;;;;;;;;;;;;;;;;;;;
"C1401190";;;"Windows 7";"Rachel's Experiment (D.T.)";"1.0";"2";"1";"1";"2";"1";"1";"2014-10-16 13:32:45.427";"2014-10-16 13:45:22.778";"1";"1";"1";"39";"38";"module.training_block1.exec-3379.GoNoGo1";;;;;;;;;;;;;;;;;;;;;;;"1258";"2014-10-16 13:35:26.934";"NST_correctLoc";"35";"1";"FINISHED";"RIGHT";"success";"580";"0";"2014-10-16 13:35:25.671";"3";;;;;;;;;;;;;;;;;;;;;;;;;;;;;;;;;;;;;;;;;;;;;;;;;;;;;;;;;
"C1401190";;;"Windows 7";"Rachel's Experiment (D.T.)";"1.0";"2";"1";"1";"2";"1";"1";"2014-10-16 13:32:45.427";"2014-10-16 13:45:22.778";"1";"1";"1";"40";"39";"module.training_block1.exec-3379.GoNoGo1";;;;;;;;;;;;;;;;;;;;;;;"1258";"2014-10-16 13:35:29.477";"ST_correctStop";"18";"1";"FINISHED";"NONE";"success";"0";"1";"2014-10-16 13:35:28.214";"3";;;;;;;;;;;;;;;;;;;;;;;;;;;;;;;;;;;;;;;;;;;;;;;;;;;;;;;;;
"C1401190";;;"Windows 7";"Rachel's Experiment (D.T.)";"1.0";"2";"1";"1";"2";"1";"1";"2014-10-16 13:32:45.427";"2014-10-16 13:45:22.778";"1";"1";"1";"41";"40";"module.training_block1.exec-3379.GoNoGo1";;;;;;;;;;;;;;;;;;;;;;;"1257";"2014-10-16 13:35:32.020";"NST_correctLoc";"10";"1";"FINISHED";"RIGHT";"success";"486";"0";"2014-10-16 13:35:30.756";"2";;;;;;;;;;;;;;;;;;;;;;;;;;;;;;;;;;;;;;;;;;;;;;;;;;;;;;;;;
"C1401190";;;"Windows 7";"Rachel's Experiment (D.T.)";"1.0";"2";"1";"1";"2";"1";"1";"2014-10-16 13:32:45.427";"2014-10-16 13:45:22.778";"1";"1";"1";"42";"41";"module.training_block1.exec-3379.GoNoGo1";;;;;;;;;;;;;;;;;;;;;;;"1253";"2014-10-16 13:35:34.563";"ST_correctStop";"33";"0";"FINISHED";"NONE";"success";"0";"1";"2014-10-16 13:35:33.299";"3";;;;;;;;;;;;;;;;;;;;;;;;;;;;;;;;;;;;;;;;;;;;;;;;;;;;;;;;;
"C1401190";;;"Windows 7";"Rachel's Experiment (D.T.)";"1.0";"2";"1";"1";"2";"1";"1";"2014-10-16 13:32:45.427";"2014-10-16 13:45:22.778";"1";"1";"1";"43";"42";"module.training_block1.exec-3379.GoNoGo1";;;;;;;;;;;;;;;;;;;;;;;"1261";"2014-10-16 13:35:37.106";"NST_correctLoc";"27";"0";"FINISHED";"LEFT";"success";"556";"0";"2014-10-16 13:35:35.842";"3";;;;;;;;;;;;;;;;;;;;;;;;;;;;;;;;;;;;;;;;;;;;;;;;;;;;;;;;;
"C1401190";;;"Windows 7";"Rachel's Experiment (D.T.)";"1.0";"2";"1";"1";"2";"1";"1";"2014-10-16 13:32:45.427";"2014-10-16 13:45:22.778";"1";"1";"1";"44";"43";"module.training_block1.exec-3379.GoNoGo1";;;;;;;;;;;;;;;;;;;;;;;"1261";"2014-10-16 13:35:39.648";"ST_correctStop";"3";"0";"FINISHED";"NONE";"success";"0";"1";"2014-10-16 13:35:38.385";"1";;;;;;;;;;;;;;;;;;;;;;;;;;;;;;;;;;;;;;;;;;;;;;;;;;;;;;;;;
"C1401190";;;"Windows 7";"Rachel's Experiment (D.T.)";"1.0";"2";"1";"1";"2";"1";"1";"2014-10-16 13:32:45.427";"2014-10-16 13:45:22.778";"1";"1";"1";"45";"44";"module.training_block1.exec-3379.GoNoGo1";;;;;;;;;;;;;;;;;;;;;;;"1257";"2014-10-16 13:35:42.191";"NST_correctLoc";"20";"0";"FINISHED";"LEFT";"success";"459";"0";"2014-10-16 13:35:40.928";"3";;;;;;;;;;;;;;;;;;;;;;;;;;;;;;;;;;;;;;;;;;;;;;;;;;;;;;;;;
"C1401190";;;"Windows 7";"Rachel's Experiment (D.T.)";"1.0";"2";"1";"1";"2";"1";"1";"2014-10-16 13:32:45.427";"2014-10-16 13:45:22.778";"1";"1";"1";"46";"45";"module.training_block1.exec-3379.GoNoGo1";;;;;;;;;;;;;;;;;;;;;;;"1257";"2014-10-16 13:35:44.734";"NST_correctLoc";"11";"1";"FINISHED";"RIGHT";"success";"436";"0";"2014-10-16 13:35:43.470";"2";;;;;;;;;;;;;;;;;;;;;;;;;;;;;;;;;;;;;;;;;;;;;;;;;;;;;;;;;
"C1401190";;;"Windows 7";"Rachel's Experiment (D.T.)";"1.0";"2";"1";"1";"2";"1";"1";"2014-10-16 13:32:45.427";"2014-10-16 13:45:22.778";"1";"1";"1";"47";"46";"module.training_block1.exec-3379.GoNoGo1";;;;;;;;;;;;;;;;;;;;;;;"1258";"2014-10-16 13:35:47.277";"ST_correctStop";"34";"1";"FINISHED";"NONE";"success";"0";"1";"2014-10-16 13:35:46.013";"3";;;;;;;;;;;;;;;;;;;;;;;;;;;;;;;;;;;;;;;;;;;;;;;;;;;;;;;;;
"C1401190";;;"Windows 7";"Rachel's Experiment (D.T.)";"1.0";"2";"1";"1";"2";"1";"1";"2014-10-16 13:32:45.427";"2014-10-16 13:45:22.778";"1";"1";"1";"48";"47";"module.training_block1.exec-3379.GoNoGo1";;;;;;;;;;;;;;;;;;;;;;;"1257";"2014-10-16 13:35:49.820";"ST_correctStop";"7";"1";"FINISHED";"NONE";"success";"0";"1";"2014-10-16 13:35:48.556";"1";;;;;;;;;;;;;;;;;;;;;;;;;;;;;;;;;;;;;;;;;;;;;;;;;;;;;;;;;
"C1401190";;;"Windows 7";"Rachel's Experiment (D.T.)";"1.0";"2";"1";"1";"2";"1";"1";"2014-10-16 13:32:45.427";"2014-10-16 13:45:22.778";"1";"1";"1";"49";"48";"module.training_block1.exec-3379.GoNoGo1";;;;;;;;;;;;;;;;;;;;;;;"1257";"2014-10-16 13:35:52.363";"NST_correctLoc";"16";"1";"FINISHED";"RIGHT";"success";"455";"0";"2014-10-16 13:35:51.099";"2";;;;;;;;;;;;;;;;;;;;;;;;;;;;;;;;;;;;;;;;;;;;;;;;;;;;;;;;;
"C1401190";;;"Windows 7";"Rachel's Experiment (D.T.)";"1.0";"2";"1";"1";"2";"1";"1";"2014-10-16 13:32:45.427";"2014-10-16 13:45:22.778";"1";"1";"1";"50";"49";"module.training_block1.exec-3379.GoNoGo1";;;;;;;;;;;;;;;;;;;;;;;"1257";"2014-10-16 13:35:54.905";"ST_correctStop";"31";"1";"FINISHED";"NONE";"success";"0";"1";"2014-10-16 13:35:53.642";"3";;;;;;;;;;;;;;;;;;;;;;;;;;;;;;;;;;;;;;;;;;;;;;;;;;;;;;;;;
"C1401190";;;"Windows 7";"Rachel's Experiment (D.T.)";"1.0";"2";"1";"1";"2";"1";"1";"2014-10-16 13:32:45.427";"2014-10-16 13:45:22.778";"1";"1";"1";"51";"50";"module.training_block1.exec-3379.GoNoGo1";;;;;;;;;;;;;;;;;;;;;;;"1257";"2014-10-16 13:35:57.448";"ST_correctStop";"8";"0";"FINISHED";"NONE";"success";"0";"1";"2014-10-16 13:35:56.185";"1";;;;;;;;;;;;;;;;;;;;;;;;;;;;;;;;;;;;;;;;;;;;;;;;;;;;;;;;;
"C1401190";;;"Windows 7";"Rachel's Experiment (D.T.)";"1.0";"2";"1";"1";"2";"1";"1";"2014-10-16 13:32:45.427";"2014-10-16 13:45:22.778";"1";"1";"1";"52";"51";"module.training_block2.exec-3897.GoNoGo2";;;;;;;;;;;;;;;;;;;;;;;;;;;;;;;;;;;"1261";"2014-10-16 13:36:08.602";"NST_correctLoc";"28";"0";"FINISHED";"LEFT";"success";"459";"0";"2014-10-16 13:36:07.339";"3";;;;;;;;;;;;;;;;;;;;;;;;;;;;;;;;;;;;;;;;;;;;;
"C1401190";;;"Windows 7";"Rachel's Experiment (D.T.)";"1.0";"2";"1";"1";"2";"1";"1";"2014-10-16 13:32:45.427";"2014-10-16 13:45:22.778";"1";"1";"1";"53";"52";"module.training_block2.exec-3897.GoNoGo2";;;;;;;;;;;;;;;;;;;;;;;;;;;;;;;;;;;"1261";"2014-10-16 13:36:11.145";"ST_correctStop";"7";"1";"FINISHED";"NONE";"success";"0";"1";"2014-10-16 13:36:09.881";"1";;;;;;;;;;;;;;;;;;;;;;;;;;;;;;;;;;;;;;;;;;;;;
"C1401190";;;"Windows 7";"Rachel's Experiment (D.T.)";"1.0";"2";"1";"1";"2";"1";"1";"2014-10-16 13:32:45.427";"2014-10-16 13:45:22.778";"1";"1";"1";"54";"53";"module.training_block2.exec-3897.GoNoGo2";;;;;;;;;;;;;;;;;;;;;;;;;;;;;;;;;;;"1261";"2014-10-16 13:36:13.688";"NST_correctLoc";"11";"1";"FINISHED";"RIGHT";"success";"446";"0";"2014-10-16 13:36:12.424";"2";;;;;;;;;;;;;;;;;;;;;;;;;;;;;;;;;;;;;;;;;;;;;
"C1401190";;;"Windows 7";"Rachel's Experiment (D.T.)";"1.0";"2";"1";"1";"2";"1";"1";"2014-10-16 13:32:45.427";"2014-10-16 13:45:22.778";"1";"1";"1";"55";"54";"module.training_block2.exec-3897.GoNoGo2";;;;;;;;;;;;;;;;;;;;;;;;;;;;;;;;;;;"1261";"2014-10-16 13:36:16.231";"NST_correctLoc";"15";"1";"FINISHED";"RIGHT";"success";"439";"0";"2014-10-16 13:36:14.967";"2";;;;;;;;;;;;;;;;;;;;;;;;;;;;;;;;;;;;;;;;;;;;;
"C1401190";;;"Windows 7";"Rachel's Experiment (D.T.)";"1.0";"2";"1";"1";"2";"1";"1";"2014-10-16 13:32:45.427";"2014-10-16 13:45:22.778";"1";"1";"1";"56";"55";"module.training_block2.exec-3897.GoNoGo2";;;;;;;;;;;;;;;;;;;;;;;;;;;;;;;;;;;"1261";"2014-10-16 13:36:18.773";"ST_correctStop";"19";"1";"FINISHED";"NONE";"success";"0";"1";"2014-10-16 13:36:17.510";"3";;;;;;;;;;;;;;;;;;;;;;;;;;;;;;;;;;;;;;;;;;;;;
"C1401190";;;"Windows 7";"Rachel's Experiment (D.T.)";"1.0";"2";"1";"1";"2";"1";"1";"2014-10-16 13:32:45.427";"2014-10-16 13:45:22.778";"1";"1";"1";"57";"56";"module.training_block2.exec-3897.GoNoGo2";;;;;;;;;;;;;;;;;;;;;;;;;;;;;;;;;;;"1261";"2014-10-16 13:36:21.316";"NST_correctLoc";"27";"0";"FINISHED";"LEFT";"success";"393";"0";"2014-10-16 13:36:20.053";"3";;;;;;;;;;;;;;;;;;;;;;;;;;;;;;;;;;;;;;;;;;;;;
"C1401190";;;"Windows 7";"Rachel's Experiment (D.T.)";"1.0";"2";"1";"1";"2";"1";"1";"2014-10-16 13:32:45.427";"2014-10-16 13:45:22.778";"1";"1";"1";"58";"57";"module.training_block2.exec-3897.GoNoGo2";;;;;;;;;;;;;;;;;;;;;;;;;;;;;;;;;;;"1261";"2014-10-16 13:36:23.859";"ST_correctStop";"25";"0";"FINISHED";"NONE";"success";"0";"1";"2014-10-16 13:36:22.595";"3";;;;;;;;;;;;;;;;;;;;;;;;;;;;;;;;;;;;;;;;;;;;;
"C1401190";;;"Windows 7";"Rachel's Experiment (D.T.)";"1.0";"2";"1";"1";"2";"1";"1";"2014-10-16 13:32:45.427";"2014-10-16 13:45:22.778";"1";"1";"1";"59";"58";"module.training_block2.exec-3897.GoNoGo2";;;;;;;;;;;;;;;;;;;;;;;;;;;;;;;;;;;"1261";"2014-10-16 13:36:26.402";"NST_correctLoc";"10";"0";"FINISHED";"LEFT";"success";"444";"0";"2014-10-16 13:36:25.138";"2";;;;;;;;;;;;;;;;;;;;;;;;;;;;;;;;;;;;;;;;;;;;;
"C1401190";;;"Windows 7";"Rachel's Experiment (D.T.)";"1.0";"2";"1";"1";"2";"1";"1";"2014-10-16 13:32:45.427";"2014-10-16 13:45:22.778";"1";"1";"1";"60";"59";"module.training_block2.exec-3897.GoNoGo2";;;;;;;;;;;;;;;;;;;;;;;;;;;;;;;;;;;"1261";"2014-10-16 13:36:28.945";"NST_correctLoc";"14";"1";"FINISHED";"RIGHT";"success";"533";"0";"2014-10-16 13:36:27.681";"2";;;;;;;;;;;;;;;;;;;;;;;;;;;;;;;;;;;;;;;;;;;;;
"C1401190";;;"Windows 7";"Rachel's Experiment (D.T.)";"1.0";"2";"1";"1";"2";"1";"1";"2014-10-16 13:32:45.427";"2014-10-16 13:45:22.778";"1";"1";"1";"61";"60";"module.training_block2.exec-3897.GoNoGo2";;;;;;;;;;;;;;;;;;;;;;;;;;;;;;;;;;;"1257";"2014-10-16 13:36:31.487";"NST_correctLoc";"29";"1";"FINISHED";"RIGHT";"success";"474";"0";"2014-10-16 13:36:30.224";"3";;;;;;;;;;;;;;;;;;;;;;;;;;;;;;;;;;;;;;;;;;;;;
"C1401190";;;"Windows 7";"Rachel's Experiment (D.T.)";"1.0";"2";"1";"1";"2";"1";"1";"2014-10-16 13:32:45.427";"2014-10-16 13:45:22.778";"1";"1";"1";"62";"61";"module.training_block2.exec-3897.GoNoGo2";;;;;;;;;;;;;;;;;;;;;;;;;;;;;;;;;;;"1261";"2014-10-16 13:36:34.030";"NST_correctLoc";"35";"1";"FINISHED";"RIGHT";"success";"423";"0";"2014-10-16 13:36:32.767";"3";;;;;;;;;;;;;;;;;;;;;;;;;;;;;;;;;;;;;;;;;;;;;
"C1401190";;;"Windows 7";"Rachel's Experiment (D.T.)";"1.0";"2";"1";"1";"2";"1";"1";"2014-10-16 13:32:45.427";"2014-10-16 13:45:22.778";"1";"1";"1";"63";"62";"module.training_block2.exec-3897.GoNoGo2";;;;;;;;;;;;;;;;;;;;;;;;;;;;;;;;;;;"1261";"2014-10-16 13:36:36.573";"ST_correctStop";"31";"0";"FINISHED";"NONE";"success";"0";"1";"2014-10-16 13:36:35.309";"3";;;;;;;;;;;;;;;;;;;;;;;;;;;;;;;;;;;;;;;;;;;;;
"C1401190";;;"Windows 7";"Rachel's Experiment (D.T.)";"1.0";"2";"1";"1";"2";"1";"1";"2014-10-16 13:32:45.427";"2014-10-16 13:45:22.778";"1";"1";"1";"64";"63";"module.training_block2.exec-3897.GoNoGo2";;;;;;;;;;;;;;;;;;;;;;;;;;;;;;;;;;;"1261";"2014-10-16 13:36:39.116";"NST_correctLoc";"17";"1";"FINISHED";"RIGHT";"success";"393";"0";"2014-10-16 13:36:37.852";"2";;;;;;;;;;;;;;;;;;;;;;;;;;;;;;;;;;;;;;;;;;;;;
"C1401190";;;"Windows 7";"Rachel's Experiment (D.T.)";"1.0";"2";"1";"1";"2";"1";"1";"2014-10-16 13:32:45.427";"2014-10-16 13:45:22.778";"1";"1";"1";"65";"64";"module.training_block2.exec-3897.GoNoGo2";;;;;;;;;;;;;;;;;;;;;;;;;;;;;;;;;;;"1261";"2014-10-16 13:36:41.659";"NST_correctLoc";"32";"1";"FINISHED";"RIGHT";"success";"499";"0";"2014-10-16 13:36:40.395";"3";;;;;;;;;;;;;;;;;;;;;;;;;;;;;;;;;;;;;;;;;;;;;
"C1401190";;;"Windows 7";"Rachel's Experiment (D.T.)";"1.0";"2";"1";"1";"2";"1";"1";"2014-10-16 13:32:45.427";"2014-10-16 13:45:22.778";"1";"1";"1";"66";"65";"module.training_block2.exec-3897.GoNoGo2";;;;;;;;;;;;;;;;;;;;;;;;;;;;;;;;;;;"1261";"2014-10-16 13:36:44.201";"NST_correctLoc";"24";"0";"FINISHED";"LEFT";"success";"444";"0";"2014-10-16 13:36:42.938";"3";;;;;;;;;;;;;;;;;;;;;;;;;;;;;;;;;;;;;;;;;;;;;
"C1401190";;;"Windows 7";"Rachel's Experiment (D.T.)";"1.0";"2";"1";"1";"2";"1";"1";"2014-10-16 13:32:45.427";"2014-10-16 13:45:22.778";"1";"1";"1";"67";"66";"module.training_block2.exec-3897.GoNoGo2";;;;;;;;;;;;;;;;;;;;;;;;;;;;;;;;;;;"1261";"2014-10-16 13:36:46.744";"ST_correctStop";"26";"1";"FINISHED";"NONE";"success";"0";"1";"2014-10-16 13:36:45.481";"3";;;;;;;;;;;;;;;;;;;;;;;;;;;;;;;;;;;;;;;;;;;;;
"C1401190";;;"Windows 7";"Rachel's Experiment (D.T.)";"1.0";"2";"1";"1";"2";"1";"1";"2014-10-16 13:32:45.427";"2014-10-16 13:45:22.778";"1";"1";"1";"68";"67";"module.training_block2.exec-3897.GoNoGo2";;;;;;;;;;;;;;;;;;;;;;;;;;;;;;;;;;;"1261";"2014-10-16 13:36:49.287";"ST_correctStop";"4";"0";"FINISHED";"NONE";"success";"0";"1";"2014-10-16 13:36:48.023";"1";;;;;;;;;;;;;;;;;;;;;;;;;;;;;;;;;;;;;;;;;;;;;
"C1401190";;;"Windows 7";"Rachel's Experiment (D.T.)";"1.0";"2";"1";"1";"2";"1";"1";"2014-10-16 13:32:45.427";"2014-10-16 13:45:22.778";"1";"1";"1";"69";"68";"module.training_block2.exec-3897.GoNoGo2";;;;;;;;;;;;;;;;;;;;;;;;;;;;;;;;;;;"1261";"2014-10-16 13:36:51.830";"NST_correctLoc";"16";"0";"FINISHED";"LEFT";"success";"407";"0";"2014-10-16 13:36:50.566";"2";;;;;;;;;;;;;;;;;;;;;;;;;;;;;;;;;;;;;;;;;;;;;
"C1401190";;;"Windows 7";"Rachel's Experiment (D.T.)";"1.0";"2";"1";"1";"2";"1";"1";"2014-10-16 13:32:45.427";"2014-10-16 13:45:22.778";"1";"1";"1";"70";"69";"module.training_block2.exec-3897.GoNoGo2";;;;;;;;;;;;;;;;;;;;;;;;;;;;;;;;;;;"1261";"2014-10-16 13:36:54.373";"ST_failedStop";"30";"0";"FINISHED";"LEFT";"failure";"449";"1";"2014-10-16 13:36:53.109";"3";;;;;;;;;;;;;;;;;;;;;;;;;;;;;;;;;;;;;;;;;;;;;
"C1401190";;;"Windows 7";"Rachel's Experiment (D.T.)";"1.0";"2";"1";"1";"2";"1";"1";"2014-10-16 13:32:45.427";"2014-10-16 13:45:22.778";"1";"1";"1";"71";"70";"module.training_block2.exec-3897.GoNoGo2";;;;;;;;;;;;;;;;;;;;;;;;;;;;;;;;;;;"1261";"2014-10-16 13:36:56.915";"NST_correctLoc";"12";"0";"FINISHED";"LEFT";"success";"482";"0";"2014-10-16 13:36:55.652";"2";;;;;;;;;;;;;;;;;;;;;;;;;;;;;;;;;;;;;;;;;;;;;
"C1401190";;;"Windows 7";"Rachel's Experiment (D.T.)";"1.0";"2";"1";"1";"2";"1";"1";"2014-10-16 13:32:45.427";"2014-10-16 13:45:22.778";"1";"1";"1";"72";"71";"module.training_block2.exec-3897.GoNoGo2";;;;;;;;;;;;;;;;;;;;;;;;;;;;;;;;;;;"1261";"2014-10-16 13:36:59.458";"ST_correctStop";"21";"1";"FINISHED";"NONE";"success";"0";"1";"2014-10-16 13:36:58.195";"3";;;;;;;;;;;;;;;;;;;;;;;;;;;;;;;;;;;;;;;;;;;;;
"C1401190";;;"Windows 7";"Rachel's Experiment (D.T.)";"1.0";"2";"1";"1";"2";"1";"1";"2014-10-16 13:32:45.427";"2014-10-16 13:45:22.778";"1";"1";"1";"73";"72";"module.training_block2.exec-3897.GoNoGo2";;;;;;;;;;;;;;;;;;;;;;;;;;;;;;;;;;;"1261";"2014-10-16 13:37:02.001";"ST_correctStop";"2";"0";"FINISHED";"NONE";"success";"0";"1";"2014-10-16 13:37:00.737";"1";;;;;;;;;;;;;;;;;;;;;;;;;;;;;;;;;;;;;;;;;;;;;
"C1401190";;;"Windows 7";"Rachel's Experiment (D.T.)";"1.0";"2";"1";"1";"2";"1";"1";"2014-10-16 13:32:45.427";"2014-10-16 13:45:22.778";"1";"1";"1";"74";"73";"module.training_block2.exec-3897.GoNoGo2";;;;;;;;;;;;;;;;;;;;;;;;;;;;;;;;;;;"1261";"2014-10-16 13:37:04.544";"NST_correctLoc";"22";"0";"FINISHED";"LEFT";"success";"477";"0";"2014-10-16 13:37:03.280";"3";;;;;;;;;;;;;;;;;;;;;;;;;;;;;;;;;;;;;;;;;;;;;
"C1401190";;;"Windows 7";"Rachel's Experiment (D.T.)";"1.0";"2";"1";"1";"2";"1";"1";"2014-10-16 13:32:45.427";"2014-10-16 13:45:22.778";"1";"1";"1";"75";"74";"module.training_block2.exec-3897.GoNoGo2";;;;;;;;;;;;;;;;;;;;;;;;;;;;;;;;;;;"1261";"2014-10-16 13:37:07.087";"ST_correctStop";"20";"0";"FINISHED";"NONE";"success";"0";"1";"2014-10-16 13:37:05.823";"3";;;;;;;;;;;;;;;;;;;;;;;;;;;;;;;;;;;;;;;;;;;;;
"C1401190";;;"Windows 7";"Rachel's Experiment (D.T.)";"1.0";"2";"1";"1";"2";"1";"1";"2014-10-16 13:32:45.427";"2014-10-16 13:45:22.778";"1";"1";"1";"76";"75";"module.training_block2.exec-3897.GoNoGo2";;;;;;;;;;;;;;;;;;;;;;;;;;;;;;;;;;;"1261";"2014-10-16 13:37:09.629";"ST_correctStop";"8";"0";"FINISHED";"NONE";"success";"0";"1";"2014-10-16 13:37:08.366";"1";;;;;;;;;;;;;;;;;;;;;;;;;;;;;;;;;;;;;;;;;;;;;
"C1401190";;;"Windows 7";"Rachel's Experiment (D.T.)";"1.0";"2";"1";"1";"2";"1";"1";"2014-10-16 13:32:45.427";"2014-10-16 13:45:22.778";"1";"1";"1";"77";"76";"module.training_block2.exec-3897.GoNoGo2";;;;;;;;;;;;;;;;;;;;;;;;;;;;;;;;;;;"1261";"2014-10-16 13:37:12.172";"ST_correctStop";"6";"0";"FINISHED";"NONE";"success";"0";"1";"2014-10-16 13:37:10.909";"1";;;;;;;;;;;;;;;;;;;;;;;;;;;;;;;;;;;;;;;;;;;;;
"C1401190";;;"Windows 7";"Rachel's Experiment (D.T.)";"1.0";"2";"1";"1";"2";"1";"1";"2014-10-16 13:32:45.427";"2014-10-16 13:45:22.778";"1";"1";"1";"78";"77";"module.training_block2.exec-3897.GoNoGo2";;;;;;;;;;;;;;;;;;;;;;;;;;;;;;;;;;;"1261";"2014-10-16 13:37:14.715";"NST_correctLoc";"23";"0";"FINISHED";"LEFT";"success";"434";"0";"2014-10-16 13:37:13.451";"3";;;;;;;;;;;;;;;;;;;;;;;;;;;;;;;;;;;;;;;;;;;;;
"C1401190";;;"Windows 7";"Rachel's Experiment (D.T.)";"1.0";"2";"1";"1";"2";"1";"1";"2014-10-16 13:32:45.427";"2014-10-16 13:45:22.778";"1";"1";"1";"79";"78";"module.training_block2.exec-3897.GoNoGo2";;;;;;;;;;;;;;;;;;;;;;;;;;;;;;;;;;;"1261";"2014-10-16 13:37:17.258";"ST_correctStop";"0";"1";"FINISHED";"NONE";"success";"0";"1";"2014-10-16 13:37:15.994";"1";;;;;;;;;;;;;;;;;;;;;;;;;;;;;;;;;;;;;;;;;;;;;
"C1401190";;;"Windows 7";"Rachel's Experiment (D.T.)";"1.0";"2";"1";"1";"2";"1";"1";"2014-10-16 13:32:45.427";"2014-10-16 13:45:22.778";"1";"1";"1";"80";"79";"module.training_block2.exec-3897.GoNoGo2";;;;;;;;;;;;;;;;;;;;;;;;;;;;;;;;;;;"1261";"2014-10-16 13:37:19.801";"ST_correctStop";"34";"0";"FINISHED";"NONE";"success";"0";"1";"2014-10-16 13:37:18.537";"3";;;;;;;;;;;;;;;;;;;;;;;;;;;;;;;;;;;;;;;;;;;;;
"C1401190";;;"Windows 7";"Rachel's Experiment (D.T.)";"1.0";"2";"1";"1";"2";"1";"1";"2014-10-16 13:32:45.427";"2014-10-16 13:45:22.778";"1";"1";"1";"81";"80";"module.training_block2.exec-3897.GoNoGo2";;;;;;;;;;;;;;;;;;;;;;;;;;;;;;;;;;;"1261";"2014-10-16 13:37:22.343";"NST_correctLoc";"9";"0";"FINISHED";"LEFT";"success";"454";"0";"2014-10-16 13:37:21.080";"2";;;;;;;;;;;;;;;;;;;;;;;;;;;;;;;;;;;;;;;;;;;;;
"C1401190";;;"Windows 7";"Rachel's Experiment (D.T.)";"1.0";"2";"1";"1";"2";"1";"1";"2014-10-16 13:32:45.427";"2014-10-16 13:45:22.778";"1";"1";"1";"82";"81";"module.training_block2.exec-3897.GoNoGo2";;;;;;;;;;;;;;;;;;;;;;;;;;;;;;;;;;;"1261";"2014-10-16 13:37:24.886";"NST_correctLoc";"33";"1";"FINISHED";"RIGHT";"success";"583";"0";"2014-10-16 13:37:23.623";"3";;;;;;;;;;;;;;;;;;;;;;;;;;;;;;;;;;;;;;;;;;;;;
"C1401190";;;"Windows 7";"Rachel's Experiment (D.T.)";"1.0";"2";"1";"1";"2";"1";"1";"2014-10-16 13:32:45.427";"2014-10-16 13:45:22.778";"1";"1";"1";"83";"82";"module.training_block2.exec-3897.GoNoGo2";;;;;;;;;;;;;;;;;;;;;;;;;;;;;;;;;;;"1261";"2014-10-16 13:37:27.429";"ST_correctStop";"1";"0";"FINISHED";"NONE";"success";"0";"1";"2014-10-16 13:37:26.165";"1";;;;;;;;;;;;;;;;;;;;;;;;;;;;;;;;;;;;;;;;;;;;;
"C1401190";;;"Windows 7";"Rachel's Experiment (D.T.)";"1.0";"2";"1";"1";"2";"1";"1";"2014-10-16 13:32:45.427";"2014-10-16 13:45:22.778";"1";"1";"1";"84";"83";"module.training_block2.exec-3897.GoNoGo2";;;;;;;;;;;;;;;;;;;;;;;;;;;;;;;;;;;"1261";"2014-10-16 13:37:29.972";"ST_correctStop";"18";"1";"FINISHED";"NONE";"success";"0";"1";"2014-10-16 13:37:28.708";"3";;;;;;;;;;;;;;;;;;;;;;;;;;;;;;;;;;;;;;;;;;;;;
"C1401190";;;"Windows 7";"Rachel's Experiment (D.T.)";"1.0";"2";"1";"1";"2";"1";"1";"2014-10-16 13:32:45.427";"2014-10-16 13:45:22.778";"1";"1";"1";"85";"84";"module.training_block2.exec-3897.GoNoGo2";;;;;;;;;;;;;;;;;;;;;;;;;;;;;;;;;;;"1261";"2014-10-16 13:37:32.515";"NST_correctLoc";"13";"0";"FINISHED";"LEFT";"success";"442";"0";"2014-10-16 13:37:31.251";"2";;;;;;;;;;;;;;;;;;;;;;;;;;;;;;;;;;;;;;;;;;;;;
"C1401190";;;"Windows 7";"Rachel's Experiment (D.T.)";"1.0";"2";"1";"1";"2";"1";"1";"2014-10-16 13:32:45.427";"2014-10-16 13:45:22.778";"1";"1";"1";"86";"85";"module.training_block2.exec-3897.GoNoGo2";;;;;;;;;;;;;;;;;;;;;;;;;;;;;;;;;;;"1261";"2014-10-16 13:37:35.057";"ST_correctStop";"5";"0";"FINISHED";"NONE";"success";"0";"1";"2014-10-16 13:37:33.794";"1";;;;;;;;;;;;;;;;;;;;;;;;;;;;;;;;;;;;;;;;;;;;;
"C1401190";;;"Windows 7";"Rachel's Experiment (D.T.)";"1.0";"2";"1";"1";"2";"1";"1";"2014-10-16 13:32:45.427";"2014-10-16 13:45:22.778";"1";"1";"1";"87";"86";"module.training_block2.exec-3897.GoNoGo2";;;;;;;;;;;;;;;;;;;;;;;;;;;;;;;;;;;"1261";"2014-10-16 13:37:37.600";"ST_correctStop";"3";"0";"FINISHED";"NONE";"success";"0";"1";"2014-10-16 13:37:36.337";"1";;;;;;;;;;;;;;;;;;;;;;;;;;;;;;;;;;;;;;;;;;;;;
"C1401190";;;"Windows 7";"Rachel's Experiment (D.T.)";"1.0";"2";"1";"1";"2";"1";"1";"2014-10-16 13:32:45.427";"2014-10-16 13:45:22.778";"1";"1";"1";"88";"87";"module.training_block3.exec-7068.GoNoGo3";;;;;;;;;;;;;;;;;;;;;;;;;;;;;;;;;;;;;;;;;;;;;;;"1261";"2014-10-16 13:37:48.520";"ST_correctStop";"5";"0";"FINISHED";"NONE";"success";"0";"1";"2014-10-16 13:37:47.257";"1";;;;;;;;;;;;;;;;;;;;;;;;;;;;;;;;;
"C1401190";;;"Windows 7";"Rachel's Experiment (D.T.)";"1.0";"2";"1";"1";"2";"1";"1";"2014-10-16 13:32:45.427";"2014-10-16 13:45:22.778";"1";"1";"1";"89";"88";"module.training_block3.exec-7068.GoNoGo3";;;;;;;;;;;;;;;;;;;;;;;;;;;;;;;;;;;;;;;;;;;;;;;"1261";"2014-10-16 13:37:51.063";"NST_correctLoc";"17";"1";"FINISHED";"RIGHT";"success";"430";"0";"2014-10-16 13:37:49.800";"2";;;;;;;;;;;;;;;;;;;;;;;;;;;;;;;;;
"C1401190";;;"Windows 7";"Rachel's Experiment (D.T.)";"1.0";"2";"1";"1";"2";"1";"1";"2014-10-16 13:32:45.427";"2014-10-16 13:45:22.778";"1";"1";"1";"90";"89";"module.training_block3.exec-7068.GoNoGo3";;;;;;;;;;;;;;;;;;;;;;;;;;;;;;;;;;;;;;;;;;;;;;;"1261";"2014-10-16 13:37:53.606";"ST_correctStop";"0";"1";"FINISHED";"NONE";"success";"0";"1";"2014-10-16 13:37:52.342";"1";;;;;;;;;;;;;;;;;;;;;;;;;;;;;;;;;
"C1401190";;;"Windows 7";"Rachel's Experiment (D.T.)";"1.0";"2";"1";"1";"2";"1";"1";"2014-10-16 13:32:45.427";"2014-10-16 13:45:22.778";"1";"1";"1";"91";"90";"module.training_block3.exec-7068.GoNoGo3";;;;;;;;;;;;;;;;;;;;;;;;;;;;;;;;;;;;;;;;;;;;;;;"1261";"2014-10-16 13:37:56.149";"NST_correctLoc";"18";"1";"FINISHED";"RIGHT";"success";"456";"0";"2014-10-16 13:37:54.885";"3";;;;;;;;;;;;;;;;;;;;;;;;;;;;;;;;;
"C1401190";;;"Windows 7";"Rachel's Experiment (D.T.)";"1.0";"2";"1";"1";"2";"1";"1";"2014-10-16 13:32:45.427";"2014-10-16 13:45:22.778";"1";"1";"1";"92";"91";"module.training_block3.exec-7068.GoNoGo3";;;;;;;;;;;;;;;;;;;;;;;;;;;;;;;;;;;;;;;;;;;;;;;"1261";"2014-10-16 13:37:58.692";"NST_correctLoc";"24";"1";"FINISHED";"RIGHT";"success";"433";"0";"2014-10-16 13:37:57.428";"3";;;;;;;;;;;;;;;;;;;;;;;;;;;;;;;;;
"C1401190";;;"Windows 7";"Rachel's Experiment (D.T.)";"1.0";"2";"1";"1";"2";"1";"1";"2014-10-16 13:32:45.427";"2014-10-16 13:45:22.778";"1";"1";"1";"93";"92";"module.training_block3.exec-7068.GoNoGo3";;;;;;;;;;;;;;;;;;;;;;;;;;;;;;;;;;;;;;;;;;;;;;;"1261";"2014-10-16 13:38:01.234";"NST_correctLoc";"35";"1";"FINISHED";"RIGHT";"success";"419";"0";"2014-10-16 13:37:59.971";"3";;;;;;;;;;;;;;;;;;;;;;;;;;;;;;;;;
"C1401190";;;"Windows 7";"Rachel's Experiment (D.T.)";"1.0";"2";"1";"1";"2";"1";"1";"2014-10-16 13:32:45.427";"2014-10-16 13:45:22.778";"1";"1";"1";"94";"93";"module.training_block3.exec-7068.GoNoGo3";;;;;;;;;;;;;;;;;;;;;;;;;;;;;;;;;;;;;;;;;;;;;;;"1261";"2014-10-16 13:38:03.777";"NST_correctLoc";"12";"1";"FINISHED";"RIGHT";"success";"412";"0";"2014-10-16 13:38:02.514";"2";;;;;;;;;;;;;;;;;;;;;;;;;;;;;;;;;
"C1401190";;;"Windows 7";"Rachel's Experiment (D.T.)";"1.0";"2";"1";"1";"2";"1";"1";"2014-10-16 13:32:45.427";"2014-10-16 13:45:22.778";"1";"1";"1";"95";"94";"module.training_block3.exec-7068.GoNoGo3";;;;;;;;;;;;;;;;;;;;;;;;;;;;;;;;;;;;;;;;;;;;;;;"1261";"2014-10-16 13:38:06.320";"ST_correctStop";"33";"0";"FINISHED";"NONE";"success";"0";"1";"2014-10-16 13:38:05.056";"3";;;;;;;;;;;;;;;;;;;;;;;;;;;;;;;;;
"C1401190";;;"Windows 7";"Rachel's Experiment (D.T.)";"1.0";"2";"1";"1";"2";"1";"1";"2014-10-16 13:32:45.427";"2014-10-16 13:45:22.778";"1";"1";"1";"96";"95";"module.training_block3.exec-7068.GoNoGo3";;;;;;;;;;;;;;;;;;;;;;;;;;;;;;;;;;;;;;;;;;;;;;;"1261";"2014-10-16 13:38:08.863";"ST_correctStop";"30";"1";"FINISHED";"NONE";"success";"0";"1";"2014-10-16 13:38:07.599";"3";;;;;;;;;;;;;;;;;;;;;;;;;;;;;;;;;
"C1401190";;;"Windows 7";"Rachel's Experiment (D.T.)";"1.0";"2";"1";"1";"2";"1";"1";"2014-10-16 13:32:45.427";"2014-10-16 13:45:22.778";"1";"1";"1";"97";"96";"module.training_block3.exec-7068.GoNoGo3";;;;;;;;;;;;;;;;;;;;;;;;;;;;;;;;;;;;;;;;;;;;;;;"1261";"2014-10-16 13:38:11.406";"NST_correctLoc";"34";"0";"FINISHED";"LEFT";"success";"399";"0";"2014-10-16 13:38:10.142";"3";;;;;;;;;;;;;;;;;;;;;;;;;;;;;;;;;
"C1401190";;;"Windows 7";"Rachel's Experiment (D.T.)";"1.0";"2";"1";"1";"2";"1";"1";"2014-10-16 13:32:45.427";"2014-10-16 13:45:22.778";"1";"1";"1";"98";"97";"module.training_block3.exec-7068.GoNoGo3";;;;;;;;;;;;;;;;;;;;;;;;;;;;;;;;;;;;;;;;;;;;;;;"1261";"2014-10-16 13:38:13.948";"ST_correctStop";"3";"0";"FINISHED";"NONE";"success";"0";"1";"2014-10-16 13:38:12.685";"1";;;;;;;;;;;;;;;;;;;;;;;;;;;;;;;;;
"C1401190";;;"Windows 7";"Rachel's Experiment (D.T.)";"1.0";"2";"1";"1";"2";"1";"1";"2014-10-16 13:32:45.427";"2014-10-16 13:45:22.778";"1";"1";"1";"99";"98";"module.training_block3.exec-7068.GoNoGo3";;;;;;;;;;;;;;;;;;;;;;;;;;;;;;;;;;;;;;;;;;;;;;;"1261";"2014-10-16 13:38:16.491";"ST_correctStop";"23";"1";"FINISHED";"NONE";"success";"0";"1";"2014-10-16 13:38:15.228";"3";;;;;;;;;;;;;;;;;;;;;;;;;;;;;;;;;
"C1401190";;;"Windows 7";"Rachel's Experiment (D.T.)";"1.0";"2";"1";"1";"2";"1";"1";"2014-10-16 13:32:45.427";"2014-10-16 13:45:22.778";"1";"1";"1";"100";"99";"module.training_block3.exec-7068.GoNoGo3";;;;;;;;;;;;;;;;;;;;;;;;;;;;;;;;;;;;;;;;;;;;;;;"1261";"2014-10-16 13:38:19.018";"ST_correctStop";"4";"0";"FINISHED";"NONE";"success";"0";"1";"2014-10-16 13:38:17.755";"1";;;;;;;;;;;;;;;;;;;;;;;;;;;;;;;;;
"C1401190";;;"Windows 7";"Rachel's Experiment (D.T.)";"1.0";"2";"1";"1";"2";"1";"1";"2014-10-16 13:32:45.427";"2014-10-16 13:45:22.778";"1";"1";"1";"101";"100";"module.training_block3.exec-7068.GoNoGo3";;;;;;;;;;;;;;;;;;;;;;;;;;;;;;;;;;;;;;;;;;;;;;;"1261";"2014-10-16 13:38:21.561";"ST_correctStop";"22";"0";"FINISHED";"NONE";"success";"0";"1";"2014-10-16 13:38:20.298";"3";;;;;;;;;;;;;;;;;;;;;;;;;;;;;;;;;
"C1401190";;;"Windows 7";"Rachel's Experiment (D.T.)";"1.0";"2";"1";"1";"2";"1";"1";"2014-10-16 13:32:45.427";"2014-10-16 13:45:22.778";"1";"1";"1";"102";"101";"module.training_block3.exec-7068.GoNoGo3";;;;;;;;;;;;;;;;;;;;;;;;;;;;;;;;;;;;;;;;;;;;;;;"1261";"2014-10-16 13:38:24.120";"ST_correctStop";"2";"0";"FINISHED";"NONE";"success";"0";"1";"2014-10-16 13:38:22.856";"1";;;;;;;;;;;;;;;;;;;;;;;;;;;;;;;;;
"C1401190";;;"Windows 7";"Rachel's Experiment (D.T.)";"1.0";"2";"1";"1";"2";"1";"1";"2014-10-16 13:32:45.427";"2014-10-16 13:45:22.778";"1";"1";"1";"103";"102";"module.training_block3.exec-7068.GoNoGo3";;;;;;;;;;;;;;;;;;;;;;;;;;;;;;;;;;;;;;;;;;;;;;;"1261";"2014-10-16 13:38:26.662";"NST_correctLoc";"13";"1";"FINISHED";"RIGHT";"success";"438";"0";"2014-10-16 13:38:25.399";"2";;;;;;;;;;;;;;;;;;;;;;;;;;;;;;;;;
"C1401190";;;"Windows 7";"Rachel's Experiment (D.T.)";"1.0";"2";"1";"1";"2";"1";"1";"2014-10-16 13:32:45.427";"2014-10-16 13:45:22.778";"1";"1";"1";"104";"103";"module.training_block3.exec-7068.GoNoGo3";;;;;;;;;;;;;;;;;;;;;;;;;;;;;;;;;;;;;;;;;;;;;;;"1261";"2014-10-16 13:38:29.205";"ST_correctStop";"26";"1";"FINISHED";"NONE";"success";"0";"1";"2014-10-16 13:38:27.942";"3";;;;;;;;;;;;;;;;;;;;;;;;;;;;;;;;;
"C1401190";;;"Windows 7";"Rachel's Experiment (D.T.)";"1.0";"2";"1";"1";"2";"1";"1";"2014-10-16 13:32:45.427";"2014-10-16 13:45:22.778";"1";"1";"1";"105";"104";"module.training_block3.exec-7068.GoNoGo3";;;;;;;;;;;;;;;;;;;;;;;;;;;;;;;;;;;;;;;;;;;;;;;"1261";"2014-10-16 13:38:31.748";"ST_correctStop";"8";"0";"FINISHED";"NONE";"success";"0";"1";"2014-10-16 13:38:30.484";"1";;;;;;;;;;;;;;;;;;;;;;;;;;;;;;;;;
"C1401190";;;"Windows 7";"Rachel's Experiment (D.T.)";"1.0";"2";"1";"1";"2";"1";"1";"2014-10-16 13:32:45.427";"2014-10-16 13:45:22.778";"1";"1";"1";"106";"105";"module.training_block3.exec-7068.GoNoGo3";;;;;;;;;;;;;;;;;;;;;;;;;;;;;;;;;;;;;;;;;;;;;;;"1261";"2014-10-16 13:38:34.291";"ST_correctStop";"31";"1";"FINISHED";"NONE";"success";"0";"1";"2014-10-16 13:38:33.027";"3";;;;;;;;;;;;;;;;;;;;;;;;;;;;;;;;;
"C1401190";;;"Windows 7";"Rachel's Experiment (D.T.)";"1.0";"2";"1";"1";"2";"1";"1";"2014-10-16 13:32:45.427";"2014-10-16 13:45:22.778";"1";"1";"1";"107";"106";"module.training_block3.exec-7068.GoNoGo3";;;;;;;;;;;;;;;;;;;;;;;;;;;;;;;;;;;;;;;;;;;;;;;"1261";"2014-10-16 13:38:36.818";"NST_correctLoc";"28";"0";"FINISHED";"LEFT";"success";"467";"0";"2014-10-16 13:38:35.554";"3";;;;;;;;;;;;;;;;;;;;;;;;;;;;;;;;;
"C1401190";;;"Windows 7";"Rachel's Experiment (D.T.)";"1.0";"2";"1";"1";"2";"1";"1";"2014-10-16 13:32:45.427";"2014-10-16 13:45:22.778";"1";"1";"1";"108";"107";"module.training_block3.exec-7068.GoNoGo3";;;;;;;;;;;;;;;;;;;;;;;;;;;;;;;;;;;;;;;;;;;;;;;"1261";"2014-10-16 13:38:39.345";"NST_correctLoc";"10";"0";"FINISHED";"LEFT";"success";"563";"0";"2014-10-16 13:38:38.082";"2";;;;;;;;;;;;;;;;;;;;;;;;;;;;;;;;;
"C1401190";;;"Windows 7";"Rachel's Experiment (D.T.)";"1.0";"2";"1";"1";"2";"1";"1";"2014-10-16 13:32:45.427";"2014-10-16 13:45:22.778";"1";"1";"1";"109";"108";"module.training_block3.exec-7068.GoNoGo3";;;;;;;;;;;;;;;;;;;;;;;;;;;;;;;;;;;;;;;;;;;;;;;"1261";"2014-10-16 13:38:41.888";"NST_correctLoc";"16";"1";"FINISHED";"RIGHT";"success";"445";"0";"2014-10-16 13:38:40.624";"2";;;;;;;;;;;;;;;;;;;;;;;;;;;;;;;;;
"C1401190";;;"Windows 7";"Rachel's Experiment (D.T.)";"1.0";"2";"1";"1";"2";"1";"1";"2014-10-16 13:32:45.427";"2014-10-16 13:45:22.778";"1";"1";"1";"110";"109";"module.training_block3.exec-7068.GoNoGo3";;;;;;;;;;;;;;;;;;;;;;;;;;;;;;;;;;;;;;;;;;;;;;;"1258";"2014-10-16 13:38:44.415";"ST_correctStop";"19";"1";"FINISHED";"NONE";"success";"0";"1";"2014-10-16 13:38:43.152";"3";;;;;;;;;;;;;;;;;;;;;;;;;;;;;;;;;
"C1401190";;;"Windows 7";"Rachel's Experiment (D.T.)";"1.0";"2";"1";"1";"2";"1";"1";"2014-10-16 13:32:45.427";"2014-10-16 13:45:22.778";"1";"1";"1";"111";"110";"module.training_block3.exec-7068.GoNoGo3";;;;;;;;;;;;;;;;;;;;;;;;;;;;;;;;;;;;;;;;;;;;;;;"1262";"2014-10-16 13:38:46.958";"NST_correctLoc";"21";"1";"FINISHED";"RIGHT";"success";"423";"0";"2014-10-16 13:38:45.694";"3";;;;;;;;;;;;;;;;;;;;;;;;;;;;;;;;;
"C1401190";;;"Windows 7";"Rachel's Experiment (D.T.)";"1.0";"2";"1";"1";"2";"1";"1";"2014-10-16 13:32:45.427";"2014-10-16 13:45:22.778";"1";"1";"1";"112";"111";"module.training_block3.exec-7068.GoNoGo3";;;;;;;;;;;;;;;;;;;;;;;;;;;;;;;;;;;;;;;;;;;;;;;"1261";"2014-10-16 13:38:49.485";"ST_correctStop";"29";"1";"FINISHED";"NONE";"success";"0";"1";"2014-10-16 13:38:48.222";"3";;;;;;;;;;;;;;;;;;;;;;;;;;;;;;;;;
"C1401190";;;"Windows 7";"Rachel's Experiment (D.T.)";"1.0";"2";"1";"1";"2";"1";"1";"2014-10-16 13:32:45.427";"2014-10-16 13:45:22.778";"1";"1";"1";"113";"112";"module.training_block3.exec-7068.GoNoGo3";;;;;;;;;;;;;;;;;;;;;;;;;;;;;;;;;;;;;;;;;;;;;;;"1262";"2014-10-16 13:38:52.012";"NST_correctLoc";"27";"1";"FINISHED";"RIGHT";"success";"544";"0";"2014-10-16 13:38:50.749";"3";;;;;;;;;;;;;;;;;;;;;;;;;;;;;;;;;
"C1401190";;;"Windows 7";"Rachel's Experiment (D.T.)";"1.0";"2";"1";"1";"2";"1";"1";"2014-10-16 13:32:45.427";"2014-10-16 13:45:22.778";"1";"1";"1";"114";"113";"module.training_block3.exec-7068.GoNoGo3";;;;;;;;;;;;;;;;;;;;;;;;;;;;;;;;;;;;;;;;;;;;;;;"1261";"2014-10-16 13:38:54.555";"ST_correctStop";"7";"1";"FINISHED";"NONE";"success";"0";"1";"2014-10-16 13:38:53.292";"1";;;;;;;;;;;;;;;;;;;;;;;;;;;;;;;;;
"C1401190";;;"Windows 7";"Rachel's Experiment (D.T.)";"1.0";"2";"1";"1";"2";"1";"1";"2014-10-16 13:32:45.427";"2014-10-16 13:45:22.778";"1";"1";"1";"115";"114";"module.training_block3.exec-7068.GoNoGo3";;;;;;;;;;;;;;;;;;;;;;;;;;;;;;;;;;;;;;;;;;;;;;;"1261";"2014-10-16 13:38:57.082";"NST_correctLoc";"25";"0";"FINISHED";"LEFT";"success";"402";"0";"2014-10-16 13:38:55.819";"3";;;;;;;;;;;;;;;;;;;;;;;;;;;;;;;;;
"C1401190";;;"Windows 7";"Rachel's Experiment (D.T.)";"1.0";"2";"1";"1";"2";"1";"1";"2014-10-16 13:32:45.427";"2014-10-16 13:45:22.778";"1";"1";"1";"116";"115";"module.training_block3.exec-7068.GoNoGo3";;;;;;;;;;;;;;;;;;;;;;;;;;;;;;;;;;;;;;;;;;;;;;;"1261";"2014-10-16 13:38:59.610";"ST_correctStop";"32";"1";"FINISHED";"NONE";"success";"0";"1";"2014-10-16 13:38:58.346";"3";;;;;;;;;;;;;;;;;;;;;;;;;;;;;;;;;
"C1401190";;;"Windows 7";"Rachel's Experiment (D.T.)";"1.0";"2";"1";"1";"2";"1";"1";"2014-10-16 13:32:45.427";"2014-10-16 13:45:22.778";"1";"1";"1";"117";"116";"module.training_block3.exec-7068.GoNoGo3";;;;;;;;;;;;;;;;;;;;;;;;;;;;;;;;;;;;;;;;;;;;;;;"1262";"2014-10-16 13:39:02.137";"ST_correctStop";"1";"1";"FINISHED";"NONE";"success";"0";"1";"2014-10-16 13:39:00.873";"1";;;;;;;;;;;;;;;;;;;;;;;;;;;;;;;;;
"C1401190";;;"Windows 7";"Rachel's Experiment (D.T.)";"1.0";"2";"1";"1";"2";"1";"1";"2014-10-16 13:32:45.427";"2014-10-16 13:45:22.778";"1";"1";"1";"118";"117";"module.training_block3.exec-7068.GoNoGo3";;;;;;;;;;;;;;;;;;;;;;;;;;;;;;;;;;;;;;;;;;;;;;;"1262";"2014-10-16 13:39:04.664";"NST_correctLoc";"11";"0";"FINISHED";"LEFT";"success";"420";"0";"2014-10-16 13:39:03.400";"2";;;;;;;;;;;;;;;;;;;;;;;;;;;;;;;;;
"C1401190";;;"Windows 7";"Rachel's Experiment (D.T.)";"1.0";"2";"1";"1";"2";"1";"1";"2014-10-16 13:32:45.427";"2014-10-16 13:45:22.778";"1";"1";"1";"119";"118";"module.training_block3.exec-7068.GoNoGo3";;;;;;;;;;;;;;;;;;;;;;;;;;;;;;;;;;;;;;;;;;;;;;;"1262";"2014-10-16 13:39:07.191";"NST_correctLoc";"15";"0";"FINISHED";"LEFT";"success";"581";"0";"2014-10-16 13:39:05.928";"2";;;;;;;;;;;;;;;;;;;;;;;;;;;;;;;;;
"C1401190";;;"Windows 7";"Rachel's Experiment (D.T.)";"1.0";"2";"1";"1";"2";"1";"1";"2014-10-16 13:32:45.427";"2014-10-16 13:45:22.778";"1";"1";"1";"120";"119";"module.training_block3.exec-7068.GoNoGo3";;;;;;;;;;;;;;;;;;;;;;;;;;;;;;;;;;;;;;;;;;;;;;;"1261";"2014-10-16 13:39:09.718";"ST_correctStop";"6";"0";"FINISHED";"NONE";"success";"0";"1";"2014-10-16 13:39:08.455";"1";;;;;;;;;;;;;;;;;;;;;;;;;;;;;;;;;
"C1401190";;;"Windows 7";"Rachel's Experiment (D.T.)";"1.0";"2";"1";"1";"2";"1";"1";"2014-10-16 13:32:45.427";"2014-10-16 13:45:22.778";"1";"1";"1";"121";"120";"module.training_block3.exec-7068.GoNoGo3";;;;;;;;;;;;;;;;;;;;;;;;;;;;;;;;;;;;;;;;;;;;;;;"1261";"2014-10-16 13:39:12.246";"NST_correctLoc";"14";"1";"FINISHED";"RIGHT";"success";"711";"0";"2014-10-16 13:39:10.982";"2";;;;;;;;;;;;;;;;;;;;;;;;;;;;;;;;;
"C1401190";;;"Windows 7";"Rachel's Experiment (D.T.)";"1.0";"2";"1";"1";"2";"1";"1";"2014-10-16 13:32:45.427";"2014-10-16 13:45:22.778";"1";"1";"1";"122";"121";"module.training_block3.exec-7068.GoNoGo3";;;;;;;;;;;;;;;;;;;;;;;;;;;;;;;;;;;;;;;;;;;;;;;"1261";"2014-10-16 13:39:14.788";"NST_correctLoc";"20";"1";"FINISHED";"RIGHT";"success";"568";"0";"2014-10-16 13:39:13.525";"3";;;;;;;;;;;;;;;;;;;;;;;;;;;;;;;;;
"C1401190";;;"Windows 7";"Rachel's Experiment (D.T.)";"1.0";"2";"1";"1";"2";"1";"1";"2014-10-16 13:32:45.427";"2014-10-16 13:45:22.778";"1";"1";"1";"123";"122";"module.training_block3.exec-7068.GoNoGo3";;;;;;;;;;;;;;;;;;;;;;;;;;;;;;;;;;;;;;;;;;;;;;;"1261";"2014-10-16 13:39:17.316";"NST_correctLoc";"9";"1";"FINISHED";"RIGHT";"success";"529";"0";"2014-10-16 13:39:16.052";"2";;;;;;;;;;;;;;;;;;;;;;;;;;;;;;;;;
"C1401190";;;"Windows 7";"Rachel's Experiment (D.T.)";"1.0";"2";"1";"1";"2";"1";"1";"2014-10-16 13:32:45.427";"2014-10-16 13:45:22.778";"1";"1";"1";"124";"123";"module.training_block4.exec-3561.GoNoGo4";;;;;;;;;;;;;;;;;;;;;;;;;;;;;;;;;;;;;;;;;;;;;;;;;;;;;;;;;;;"1261";"2014-10-16 13:39:28.158";"ST_correctStop";"18";"1";"FINISHED";"NONE";"success";"0";"1";"2014-10-16 13:39:26.894";"3";;;;;;;;;;;;;;;;;;;;;
"C1401190";;;"Windows 7";"Rachel's Experiment (D.T.)";"1.0";"2";"1";"1";"2";"1";"1";"2014-10-16 13:32:45.427";"2014-10-16 13:45:22.778";"1";"1";"1";"125";"124";"module.training_block4.exec-3561.GoNoGo4";;;;;;;;;;;;;;;;;;;;;;;;;;;;;;;;;;;;;;;;;;;;;;;;;;;;;;;;;;;"1262";"2014-10-16 13:39:30.685";"ST_correctStop";"35";"1";"FINISHED";"NONE";"success";"0";"1";"2014-10-16 13:39:29.421";"3";;;;;;;;;;;;;;;;;;;;;
"C1401190";;;"Windows 7";"Rachel's Experiment (D.T.)";"1.0";"2";"1";"1";"2";"1";"1";"2014-10-16 13:32:45.427";"2014-10-16 13:45:22.778";"1";"1";"1";"126";"125";"module.training_block4.exec-3561.GoNoGo4";;;;;;;;;;;;;;;;;;;;;;;;;;;;;;;;;;;;;;;;;;;;;;;;;;;;;;;;;;;"1262";"2014-10-16 13:39:33.212";"ST_correctStop";"31";"0";"FINISHED";"NONE";"success";"0";"1";"2014-10-16 13:39:31.948";"3";;;;;;;;;;;;;;;;;;;;;
"C1401190";;;"Windows 7";"Rachel's Experiment (D.T.)";"1.0";"2";"1";"1";"2";"1";"1";"2014-10-16 13:32:45.427";"2014-10-16 13:45:22.778";"1";"1";"1";"127";"126";"module.training_block4.exec-3561.GoNoGo4";;;;;;;;;;;;;;;;;;;;;;;;;;;;;;;;;;;;;;;;;;;;;;;;;;;;;;;;;;;"1261";"2014-10-16 13:39:35.755";"NST_correctLoc";"32";"0";"FINISHED";"LEFT";"success";"529";"0";"2014-10-16 13:39:34.491";"3";;;;;;;;;;;;;;;;;;;;;
"C1401190";;;"Windows 7";"Rachel's Experiment (D.T.)";"1.0";"2";"1";"1";"2";"1";"1";"2014-10-16 13:32:45.427";"2014-10-16 13:45:22.778";"1";"1";"1";"128";"127";"module.training_block4.exec-3561.GoNoGo4";;;;;;;;;;;;;;;;;;;;;;;;;;;;;;;;;;;;;;;;;;;;;;;;;;;;;;;;;;;"1262";"2014-10-16 13:39:38.282";"NST_correctLoc";"15";"0";"FINISHED";"LEFT";"success";"434";"0";"2014-10-16 13:39:37.019";"2";;;;;;;;;;;;;;;;;;;;;
"C1401190";;;"Windows 7";"Rachel's Experiment (D.T.)";"1.0";"2";"1";"1";"2";"1";"1";"2014-10-16 13:32:45.427";"2014-10-16 13:45:22.778";"1";"1";"1";"129";"128";"module.training_block4.exec-3561.GoNoGo4";;;;;;;;;;;;;;;;;;;;;;;;;;;;;;;;;;;;;;;;;;;;;;;;;;;;;;;;;;;"1261";"2014-10-16 13:39:40.809";"ST_correctStop";"2";"0";"FINISHED";"NONE";"success";"0";"1";"2014-10-16 13:39:39.546";"1";;;;;;;;;;;;;;;;;;;;;
"C1401190";;;"Windows 7";"Rachel's Experiment (D.T.)";"1.0";"2";"1";"1";"2";"1";"1";"2014-10-16 13:32:45.427";"2014-10-16 13:45:22.778";"1";"1";"1";"130";"129";"module.training_block4.exec-3561.GoNoGo4";;;;;;;;;;;;;;;;;;;;;;;;;;;;;;;;;;;;;;;;;;;;;;;;;;;;;;;;;;;"1261";"2014-10-16 13:39:43.337";"NST_correctLoc";"24";"1";"FINISHED";"RIGHT";"success";"460";"0";"2014-10-16 13:39:42.073";"3";;;;;;;;;;;;;;;;;;;;;
"C1401190";;;"Windows 7";"Rachel's Experiment (D.T.)";"1.0";"2";"1";"1";"2";"1";"1";"2014-10-16 13:32:45.427";"2014-10-16 13:45:22.778";"1";"1";"1";"131";"130";"module.training_block4.exec-3561.GoNoGo4";;;;;;;;;;;;;;;;;;;;;;;;;;;;;;;;;;;;;;;;;;;;;;;;;;;;;;;;;;;"1261";"2014-10-16 13:39:45.864";"NST_correctLoc";"12";"0";"FINISHED";"LEFT";"success";"436";"0";"2014-10-16 13:39:44.600";"2";;;;;;;;;;;;;;;;;;;;;
"C1401190";;;"Windows 7";"Rachel's Experiment (D.T.)";"1.0";"2";"1";"1";"2";"1";"1";"2014-10-16 13:32:45.427";"2014-10-16 13:45:22.778";"1";"1";"1";"132";"131";"module.training_block4.exec-3561.GoNoGo4";;;;;;;;;;;;;;;;;;;;;;;;;;;;;;;;;;;;;;;;;;;;;;;;;;;;;;;;;;;"1262";"2014-10-16 13:39:48.391";"NST_correctLoc";"17";"0";"FINISHED";"LEFT";"success";"541";"0";"2014-10-16 13:39:47.127";"2";;;;;;;;;;;;;;;;;;;;;
"C1401190";;;"Windows 7";"Rachel's Experiment (D.T.)";"1.0";"2";"1";"1";"2";"1";"1";"2014-10-16 13:32:45.427";"2014-10-16 13:45:22.778";"1";"1";"1";"133";"132";"module.training_block4.exec-3561.GoNoGo4";;;;;;;;;;;;;;;;;;;;;;;;;;;;;;;;;;;;;;;;;;;;;;;;;;;;;;;;;;;"1261";"2014-10-16 13:39:50.918";"ST_correctStop";"0";"1";"FINISHED";"NONE";"success";"0";"1";"2014-10-16 13:39:49.655";"1";;;;;;;;;;;;;;;;;;;;;
"C1401190";;;"Windows 7";"Rachel's Experiment (D.T.)";"1.0";"2";"1";"1";"2";"1";"1";"2014-10-16 13:32:45.427";"2014-10-16 13:45:22.778";"1";"1";"1";"134";"133";"module.training_block4.exec-3561.GoNoGo4";;;;;;;;;;;;;;;;;;;;;;;;;;;;;;;;;;;;;;;;;;;;;;;;;;;;;;;;;;;"1261";"2014-10-16 13:39:53.461";"ST_correctStop";"22";"1";"FINISHED";"NONE";"success";"0";"1";"2014-10-16 13:39:52.197";"3";;;;;;;;;;;;;;;;;;;;;
"C1401190";;;"Windows 7";"Rachel's Experiment (D.T.)";"1.0";"2";"1";"1";"2";"1";"1";"2014-10-16 13:32:45.427";"2014-10-16 13:45:22.778";"1";"1";"1";"135";"134";"module.training_block4.exec-3561.GoNoGo4";;;;;;;;;;;;;;;;;;;;;;;;;;;;;;;;;;;;;;;;;;;;;;;;;;;;;;;;;;;"1262";"2014-10-16 13:39:56.019";"ST_correctStop";"34";"0";"FINISHED";"NONE";"success";"0";"1";"2014-10-16 13:39:54.756";"3";;;;;;;;;;;;;;;;;;;;;
"C1401190";;;"Windows 7";"Rachel's Experiment (D.T.)";"1.0";"2";"1";"1";"2";"1";"1";"2014-10-16 13:32:45.427";"2014-10-16 13:45:22.778";"1";"1";"1";"136";"135";"module.training_block4.exec-3561.GoNoGo4";;;;;;;;;;;;;;;;;;;;;;;;;;;;;;;;;;;;;;;;;;;;;;;;;;;;;;;;;;;"1262";"2014-10-16 13:39:58.547";"NST_correctLoc";"16";"0";"FINISHED";"LEFT";"success";"402";"0";"2014-10-16 13:39:57.283";"2";;;;;;;;;;;;;;;;;;;;;
"C1401190";;;"Windows 7";"Rachel's Experiment (D.T.)";"1.0";"2";"1";"1";"2";"1";"1";"2014-10-16 13:32:45.427";"2014-10-16 13:45:22.778";"1";"1";"1";"137";"136";"module.training_block4.exec-3561.GoNoGo4";;;;;;;;;;;;;;;;;;;;;;;;;;;;;;;;;;;;;;;;;;;;;;;;;;;;;;;;;;;"1261";"2014-10-16 13:40:01.089";"NST_correctLoc";"26";"1";"FINISHED";"RIGHT";"success";"483";"0";"2014-10-16 13:39:59.826";"3";;;;;;;;;;;;;;;;;;;;;
"C1401190";;;"Windows 7";"Rachel's Experiment (D.T.)";"1.0";"2";"1";"1";"2";"1";"1";"2014-10-16 13:32:45.427";"2014-10-16 13:45:22.778";"1";"1";"1";"138";"137";"module.training_block4.exec-3561.GoNoGo4";;;;;;;;;;;;;;;;;;;;;;;;;;;;;;;;;;;;;;;;;;;;;;;;;;;;;;;;;;;"1261";"2014-10-16 13:40:03.617";"ST_correctStop";"27";"1";"FINISHED";"NONE";"success";"0";"1";"2014-10-16 13:40:02.353";"3";;;;;;;;;;;;;;;;;;;;;
"C1401190";;;"Windows 7";"Rachel's Experiment (D.T.)";"1.0";"2";"1";"1";"2";"1";"1";"2014-10-16 13:32:45.427";"2014-10-16 13:45:22.778";"1";"1";"1";"139";"138";"module.training_block4.exec-3561.GoNoGo4";;;;;;;;;;;;;;;;;;;;;;;;;;;;;;;;;;;;;;;;;;;;;;;;;;;;;;;;;;;"1261";"2014-10-16 13:40:06.144";"NST_correctLoc";"14";"0";"FINISHED";"LEFT";"success";"452";"0";"2014-10-16 13:40:04.880";"2";;;;;;;;;;;;;;;;;;;;;
"C1401190";;;"Windows 7";"Rachel's Experiment (D.T.)";"1.0";"2";"1";"1";"2";"1";"1";"2014-10-16 13:32:45.427";"2014-10-16 13:45:22.778";"1";"1";"1";"140";"139";"module.training_block4.exec-3561.GoNoGo4";;;;;;;;;;;;;;;;;;;;;;;;;;;;;;;;;;;;;;;;;;;;;;;;;;;;;;;;;;;"1262";"2014-10-16 13:40:08.702";"ST_correctStop";"1";"0";"FINISHED";"NONE";"success";"0";"1";"2014-10-16 13:40:07.439";"1";;;;;;;;;;;;;;;;;;;;;
"C1401190";;;"Windows 7";"Rachel's Experiment (D.T.)";"1.0";"2";"1";"1";"2";"1";"1";"2014-10-16 13:32:45.427";"2014-10-16 13:45:22.778";"1";"1";"1";"141";"140";"module.training_block4.exec-3561.GoNoGo4";;;;;;;;;;;;;;;;;;;;;;;;;;;;;;;;;;;;;;;;;;;;;;;;;;;;;;;;;;;"1262";"2014-10-16 13:40:11.229";"ST_correctStop";"5";"1";"FINISHED";"NONE";"success";"0";"1";"2014-10-16 13:40:09.966";"1";;;;;;;;;;;;;;;;;;;;;
"C1401190";;;"Windows 7";"Rachel's Experiment (D.T.)";"1.0";"2";"1";"1";"2";"1";"1";"2014-10-16 13:32:45.427";"2014-10-16 13:45:22.778";"1";"1";"1";"142";"141";"module.training_block4.exec-3561.GoNoGo4";;;;;;;;;;;;;;;;;;;;;;;;;;;;;;;;;;;;;;;;;;;;;;;;;;;;;;;;;;;"1262";"2014-10-16 13:40:13.772";"NST_correctLoc";"33";"0";"FINISHED";"LEFT";"success";"672";"0";"2014-10-16 13:40:12.509";"3";;;;;;;;;;;;;;;;;;;;;
"C1401190";;;"Windows 7";"Rachel's Experiment (D.T.)";"1.0";"2";"1";"1";"2";"1";"1";"2014-10-16 13:32:45.427";"2014-10-16 13:45:22.778";"1";"1";"1";"143";"142";"module.training_block4.exec-3561.GoNoGo4";;;;;;;;;;;;;;;;;;;;;;;;;;;;;;;;;;;;;;;;;;;;;;;;;;;;;;;;;;;"1261";"2014-10-16 13:40:16.299";"NST_correctLoc";"9";"1";"FINISHED";"RIGHT";"success";"481";"0";"2014-10-16 13:40:15.036";"2";;;;;;;;;;;;;;;;;;;;;
"C1401190";;;"Windows 7";"Rachel's Experiment (D.T.)";"1.0";"2";"1";"1";"2";"1";"1";"2014-10-16 13:32:45.427";"2014-10-16 13:45:22.778";"1";"1";"1";"144";"143";"module.training_block4.exec-3561.GoNoGo4";;;;;;;;;;;;;;;;;;;;;;;;;;;;;;;;;;;;;;;;;;;;;;;;;;;;;;;;;;;"1262";"2014-10-16 13:40:18.827";"ST_correctStop";"21";"0";"FINISHED";"NONE";"success";"0";"1";"2014-10-16 13:40:17.563";"3";;;;;;;;;;;;;;;;;;;;;
"C1401190";;;"Windows 7";"Rachel's Experiment (D.T.)";"1.0";"2";"1";"1";"2";"1";"1";"2014-10-16 13:32:45.427";"2014-10-16 13:45:22.778";"1";"1";"1";"145";"144";"module.training_block4.exec-3561.GoNoGo4";;;;;;;;;;;;;;;;;;;;;;;;;;;;;;;;;;;;;;;;;;;;;;;;;;;;;;;;;;;"1262";"2014-10-16 13:40:21.385";"NST_correctLoc";"10";"0";"FINISHED";"LEFT";"success";"419";"0";"2014-10-16 13:40:20.121";"2";;;;;;;;;;;;;;;;;;;;;
"C1401190";;;"Windows 7";"Rachel's Experiment (D.T.)";"1.0";"2";"1";"1";"2";"1";"1";"2014-10-16 13:32:45.427";"2014-10-16 13:45:22.778";"1";"1";"1";"146";"145";"module.training_block4.exec-3561.GoNoGo4";;;;;;;;;;;;;;;;;;;;;;;;;;;;;;;;;;;;;;;;;;;;;;;;;;;;;;;;;;;"1261";"2014-10-16 13:40:23.912";"NST_correctLoc";"20";"0";"FINISHED";"LEFT";"success";"516";"0";"2014-10-16 13:40:22.649";"3";;;;;;;;;;;;;;;;;;;;;
"C1401190";;;"Windows 7";"Rachel's Experiment (D.T.)";"1.0";"2";"1";"1";"2";"1";"1";"2014-10-16 13:32:45.427";"2014-10-16 13:45:22.778";"1";"1";"1";"147";"146";"module.training_block4.exec-3561.GoNoGo4";;;;;;;;;;;;;;;;;;;;;;;;;;;;;;;;;;;;;;;;;;;;;;;;;;;;;;;;;;;"1262";"2014-10-16 13:40:26.455";"ST_correctStop";"7";"1";"FINISHED";"NONE";"success";"0";"1";"2014-10-16 13:40:25.191";"1";;;;;;;;;;;;;;;;;;;;;
"C1401190";;;"Windows 7";"Rachel's Experiment (D.T.)";"1.0";"2";"1";"1";"2";"1";"1";"2014-10-16 13:32:45.427";"2014-10-16 13:45:22.778";"1";"1";"1";"148";"147";"module.training_block4.exec-3561.GoNoGo4";;;;;;;;;;;;;;;;;;;;;;;;;;;;;;;;;;;;;;;;;;;;;;;;;;;;;;;;;;;"1261";"2014-10-16 13:40:28.982";"ST_correctStop";"8";"1";"FINISHED";"NONE";"success";"0";"1";"2014-10-16 13:40:27.719";"1";;;;;;;;;;;;;;;;;;;;;
"C1401190";;;"Windows 7";"Rachel's Experiment (D.T.)";"1.0";"2";"1";"1";"2";"1";"1";"2014-10-16 13:32:45.427";"2014-10-16 13:45:22.778";"1";"1";"1";"149";"148";"module.training_block4.exec-3561.GoNoGo4";;;;;;;;;;;;;;;;;;;;;;;;;;;;;;;;;;;;;;;;;;;;;;;;;;;;;;;;;;;"1262";"2014-10-16 13:40:31.509";"NST_correctLoc";"11";"1";"FINISHED";"RIGHT";"success";"487";"0";"2014-10-16 13:40:30.246";"2";;;;;;;;;;;;;;;;;;;;;
"C1401190";;;"Windows 7";"Rachel's Experiment (D.T.)";"1.0";"2";"1";"1";"2";"1";"1";"2014-10-16 13:32:45.427";"2014-10-16 13:45:22.778";"1";"1";"1";"150";"149";"module.training_block4.exec-3561.GoNoGo4";;;;;;;;;;;;;;;;;;;;;;;;;;;;;;;;;;;;;;;;;;;;;;;;;;;;;;;;;;;"1262";"2014-10-16 13:40:34.037";"NST_correctLoc";"30";"0";"FINISHED";"LEFT";"success";"631";"0";"2014-10-16 13:40:32.773";"3";;;;;;;;;;;;;;;;;;;;;
"C1401190";;;"Windows 7";"Rachel's Experiment (D.T.)";"1.0";"2";"1";"1";"2";"1";"1";"2014-10-16 13:32:45.427";"2014-10-16 13:45:22.778";"1";"1";"1";"151";"150";"module.training_block4.exec-3561.GoNoGo4";;;;;;;;;;;;;;;;;;;;;;;;;;;;;;;;;;;;;;;;;;;;;;;;;;;;;;;;;;;"1261";"2014-10-16 13:40:36.564";"ST_correctStop";"6";"0";"FINISHED";"NONE";"success";"0";"1";"2014-10-16 13:40:35.300";"1";;;;;;;;;;;;;;;;;;;;;
"C1401190";;;"Windows 7";"Rachel's Experiment (D.T.)";"1.0";"2";"1";"1";"2";"1";"1";"2014-10-16 13:32:45.427";"2014-10-16 13:45:22.778";"1";"1";"1";"152";"151";"module.training_block4.exec-3561.GoNoGo4";;;;;;;;;;;;;;;;;;;;;;;;;;;;;;;;;;;;;;;;;;;;;;;;;;;;;;;;;;;"1261";"2014-10-16 13:40:39.091";"ST_correctStop";"23";"0";"FINISHED";"NONE";"success";"0";"1";"2014-10-16 13:40:37.827";"3";;;;;;;;;;;;;;;;;;;;;
"C1401190";;;"Windows 7";"Rachel's Experiment (D.T.)";"1.0";"2";"1";"1";"2";"1";"1";"2014-10-16 13:32:45.427";"2014-10-16 13:45:22.778";"1";"1";"1";"153";"152";"module.training_block4.exec-3561.GoNoGo4";;;;;;;;;;;;;;;;;;;;;;;;;;;;;;;;;;;;;;;;;;;;;;;;;;;;;;;;;;;"1262";"2014-10-16 13:40:41.618";"NST_correctLoc";"19";"1";"FINISHED";"RIGHT";"success";"450";"0";"2014-10-16 13:40:40.355";"3";;;;;;;;;;;;;;;;;;;;;
"C1401190";;;"Windows 7";"Rachel's Experiment (D.T.)";"1.0";"2";"1";"1";"2";"1";"1";"2014-10-16 13:32:45.427";"2014-10-16 13:45:22.778";"1";"1";"1";"154";"153";"module.training_block4.exec-3561.GoNoGo4";;;;;;;;;;;;;;;;;;;;;;;;;;;;;;;;;;;;;;;;;;;;;;;;;;;;;;;;;;;"1261";"2014-10-16 13:40:44.145";"ST_correctStop";"4";"1";"FINISHED";"NONE";"success";"0";"1";"2014-10-16 13:40:42.882";"1";;;;;;;;;;;;;;;;;;;;;
"C1401190";;;"Windows 7";"Rachel's Experiment (D.T.)";"1.0";"2";"1";"1";"2";"1";"1";"2014-10-16 13:32:45.427";"2014-10-16 13:45:22.778";"1";"1";"1";"155";"154";"module.training_block4.exec-3561.GoNoGo4";;;;;;;;;;;;;;;;;;;;;;;;;;;;;;;;;;;;;;;;;;;;;;;;;;;;;;;;;;;"1261";"2014-10-16 13:40:46.688";"ST_correctStop";"3";"0";"FINISHED";"NONE";"success";"0";"1";"2014-10-16 13:40:45.425";"1";;;;;;;;;;;;;;;;;;;;;
"C1401190";;;"Windows 7";"Rachel's Experiment (D.T.)";"1.0";"2";"1";"1";"2";"1";"1";"2014-10-16 13:32:45.427";"2014-10-16 13:45:22.778";"1";"1";"1";"156";"155";"module.training_block4.exec-3561.GoNoGo4";;;;;;;;;;;;;;;;;;;;;;;;;;;;;;;;;;;;;;;;;;;;;;;;;;;;;;;;;;;"1262";"2014-10-16 13:40:49.215";"NST_correctLoc";"28";"0";"FINISHED";"LEFT";"success";"604";"0";"2014-10-16 13:40:47.952";"3";;;;;;;;;;;;;;;;;;;;;
"C1401190";;;"Windows 7";"Rachel's Experiment (D.T.)";"1.0";"2";"1";"1";"2";"1";"1";"2014-10-16 13:32:45.427";"2014-10-16 13:45:22.778";"1";"1";"1";"157";"156";"module.training_block4.exec-3561.GoNoGo4";;;;;;;;;;;;;;;;;;;;;;;;;;;;;;;;;;;;;;;;;;;;;;;;;;;;;;;;;;;"1261";"2014-10-16 13:40:51.743";"NST_correctLoc";"13";"1";"FINISHED";"RIGHT";"success";"501";"0";"2014-10-16 13:40:50.479";"2";;;;;;;;;;;;;;;;;;;;;
"C1401190";;;"Windows 7";"Rachel's Experiment (D.T.)";"1.0";"2";"1";"1";"2";"1";"1";"2014-10-16 13:32:45.427";"2014-10-16 13:45:22.778";"1";"1";"1";"158";"157";"module.training_block4.exec-3561.GoNoGo4";;;;;;;;;;;;;;;;;;;;;;;;;;;;;;;;;;;;;;;;;;;;;;;;;;;;;;;;;;;"1261";"2014-10-16 13:40:54.270";"NST_correctLoc";"29";"0";"FINISHED";"LEFT";"success";"542";"0";"2014-10-16 13:40:53.006";"3";;;;;;;;;;;;;;;;;;;;;
"C1401190";;;"Windows 7";"Rachel's Experiment (D.T.)";"1.0";"2";"1";"1";"2";"1";"1";"2014-10-16 13:32:45.427";"2014-10-16 13:45:22.778";"1";"1";"1";"159";"158";"module.training_block4.exec-3561.GoNoGo4";;;;;;;;;;;;;;;;;;;;;;;;;;;;;;;;;;;;;;;;;;;;;;;;;;;;;;;;;;;"1258";"2014-10-16 13:40:56.797";"ST_correctStop";"25";"1";"FINISHED";"NONE";"success";"0";"1";"2014-10-16 13:40:55.533";"3";;;;;;;;;;;;;;;;;;;;;
"C1401190";;;"Windows 7";"Rachel's Experiment (D.T.)";"1.0";"2";"1";"1";"2";"1";"1";"2014-10-16 13:32:45.427";"2014-10-16 13:45:22.778";"1";"1";"1";"160";"159";"module.devaluation_practice.exec-2778.devalPractice";;;;;;;;;;;;"15244";"2014-10-16 13:41:30.368";"0";"5";"6";"7";"2357";"3404";"6436";"2014-10-16 13:41:15.127";;;;;;;;;;;;;;;;;;;;;;;;;;;;;;;;;;;;;;;;;;;;;;;;;;;;;;;;;;;;;;;;;;;;;;
"C1401190";;;"Windows 7";"Rachel's Experiment (D.T.)";"1.0";"2";"1";"1";"2";"1";"1";"2014-10-16 13:32:45.427";"2014-10-16 13:45:22.778";"1";"1";"1";"161";"160";"module.devaluation_practice.exec-2778.devalPractice";;;;;;;;;;;;"10069";"2014-10-16 13:41:40.477";"1";"3";"3";"5";"2176";"2291";"2583";"2014-10-16 13:41:30.400";;;;;;;;;;;;;;;;;;;;;;;;;;;;;;;;;;;;;;;;;;;;;;;;;;;;;;;;;;;;;;;;;;;;;;
"C1401190";;;"Windows 7";"Rachel's Experiment (D.T.)";"1.0";"2";"1";"1";"2";"1";"1";"2014-10-16 13:32:45.427";"2014-10-16 13:45:22.778";"1";"1";"1";"162";"161";"module.devaluation_practice.exec-2778.devalPractice";;;;;;;;;;;;"9483";"2014-10-16 13:41:49.993";"2";"3";"1";"2";"1874";"1733";"2850";"2014-10-16 13:41:40.508";;;;;;;;;;;;;;;;;;;;;;;;;;;;;;;;;;;;;;;;;;;;;;;;;;;;;;;;;;;;;;;;;;;;;;
"C1401190";;;"Windows 7";"Rachel's Experiment (D.T.)";"1.0";"2";"1";"1";"2";"1";"1";"2014-10-16 13:32:45.427";"2014-10-16 13:45:22.778";"1";"1";"1";"163";"162";"module.devaluation_practice.exec-2778.devalPractice";;;;;;;;;;;;"6878";"2014-10-16 13:41:56.888";"3";"6";"7";"8";"1208";"962";"1693";"2014-10-16 13:41:50.009";;;;;;;;;;;;;;;;;;;;;;;;;;;;;;;;;;;;;;;;;;;;;;;;;;;;;;;;;;;;;;;;;;;;;;
"C1401190";;;"Windows 7";"Rachel's Experiment (D.T.)";"1.0";"2";"1";"1";"2";"1";"1";"2014-10-16 13:32:45.427";"2014-10-16 13:45:22.778";"1";"1";"1";"164";"163";"module.devaluation_block1.exec-7294.deval1";"10414";"2014-10-16 13:42:13.253";"23";"8";"6";"7";"1797";"2447";"3145";"2014-10-16 13:42:02.832";"3";;;;;;;;;;;;;;;;;;;;;;;;;;;;;;;;;;;;;;;;;;;;;;;;;;;;;;;;;;;;;;;;;;;;;;;;;;;;;;;;
"C1401190";;;"Windows 7";"Rachel's Experiment (D.T.)";"1.0";"2";"1";"1";"2";"1";"1";"2014-10-16 13:32:45.427";"2014-10-16 13:45:22.778";"1";"1";"1";"165";"164";"module.devaluation_block1.exec-7294.deval1";"8331";"2014-10-16 13:42:21.708";"20";"6";"3";"3";"2132";"1895";"1266";"2014-10-16 13:42:13.362";"3";;;;;;;;;;;;;;;;;;;;;;;;;;;;;;;;;;;;;;;;;;;;;;;;;;;;;;;;;;;;;;;;;;;;;;;;;;;;;;;;
"C1401190";;;"Windows 7";"Rachel's Experiment (D.T.)";"1.0";"2";"1";"1";"2";"1";"1";"2014-10-16 13:32:45.427";"2014-10-16 13:45:22.778";"1";"1";"1";"166";"165";"module.devaluation_block1.exec-7294.deval1";"7692";"2014-10-16 13:42:29.430";"21";"4";"6";"7";"1939";"1315";"1402";"2014-10-16 13:42:21.739";"3";;;;;;;;;;;;;;;;;;;;;;;;;;;;;;;;;;;;;;;;;;;;;;;;;;;;;;;;;;;;;;;;;;;;;;;;;;;;;;;;
"C1401190";;;"Windows 7";"Rachel's Experiment (D.T.)";"1.0";"2";"1";"1";"2";"1";"1";"2014-10-16 13:32:45.427";"2014-10-16 13:45:22.778";"1";"1";"1";"167";"166";"module.devaluation_block1.exec-7294.deval1";"8853";"2014-10-16 13:42:38.306";"7";"4";"5";"7";"2016";"2496";"1313";"2014-10-16 13:42:29.446";"1";;;;;;;;;;;;;;;;;;;;;;;;;;;;;;;;;;;;;;;;;;;;;;;;;;;;;;;;;;;;;;;;;;;;;;;;;;;;;;;;
"C1401190";;;"Windows 7";"Rachel's Experiment (D.T.)";"1.0";"2";"1";"1";"2";"1";"1";"2014-10-16 13:32:45.427";"2014-10-16 13:45:22.778";"1";"1";"1";"168";"167";"module.devaluation_block1.exec-7294.deval1";"7581";"2014-10-16 13:42:45.919";"0";"6";"6";"8";"1636";"1641";"1267";"2014-10-16 13:42:38.338";"1";;;;;;;;;;;;;;;;;;;;;;;;;;;;;;;;;;;;;;;;;;;;;;;;;;;;;;;;;;;;;;;;;;;;;;;;;;;;;;;;
"C1401190";;;"Windows 7";"Rachel's Experiment (D.T.)";"1.0";"2";"1";"1";"2";"1";"1";"2014-10-16 13:32:45.427";"2014-10-16 13:45:22.778";"1";"1";"1";"169";"168";"module.devaluation_block1.exec-7294.deval1";"6729";"2014-10-16 13:42:52.674";"6";"7";"6";"8";"1167";"1319";"1211";"2014-10-16 13:42:45.950";"1";;;;;;;;;;;;;;;;;;;;;;;;;;;;;;;;;;;;;;;;;;;;;;;;;;;;;;;;;;;;;;;;;;;;;;;;;;;;;;;;
"C1401190";;;"Windows 7";"Rachel's Experiment (D.T.)";"1.0";"2";"1";"1";"2";"1";"1";"2014-10-16 13:32:45.427";"2014-10-16 13:45:22.778";"1";"1";"1";"170";"169";"module.devaluation_block1.exec-7294.deval1";"6869";"2014-10-16 13:42:59.569";"14";"7";"5";"6";"1084";"1327";"1437";"2014-10-16 13:42:52.690";"2";;;;;;;;;;;;;;;;;;;;;;;;;;;;;;;;;;;;;;;;;;;;;;;;;;;;;;;;;;;;;;;;;;;;;;;;;;;;;;;;
"C1401190";;;"Windows 7";"Rachel's Experiment (D.T.)";"1.0";"2";"1";"1";"2";"1";"1";"2014-10-16 13:32:45.427";"2014-10-16 13:45:22.778";"1";"1";"1";"171";"170";"module.devaluation_block1.exec-7294.deval1";"7661";"2014-10-16 13:43:07.244";"11";"8";"6";"7";"1301";"1472";"1867";"2014-10-16 13:42:59.585";"2";;;;;;;;;;;;;;;;;;;;;;;;;;;;;;;;;;;;;;;;;;;;;;;;;;;;;;;;;;;;;;;;;;;;;;;;;;;;;;;;
"C1401190";;;"Windows 7";"Rachel's Experiment (D.T.)";"1.0";"2";"1";"1";"2";"1";"1";"2014-10-16 13:32:45.427";"2014-10-16 13:45:22.778";"1";"1";"1";"172";"171";"module.devaluation_block1.exec-7294.deval1";"8370";"2014-10-16 13:43:15.637";"5";"7";"4";"7";"1786";"1877";"1693";"2014-10-16 13:43:07.260";"1";;;;;;;;;;;;;;;;;;;;;;;;;;;;;;;;;;;;;;;;;;;;;;;;;;;;;;;;;;;;;;;;;;;;;;;;;;;;;;;;
"C1401190";;;"Windows 7";"Rachel's Experiment (D.T.)";"1.0";"2";"1";"1";"2";"1";"1";"2014-10-16 13:32:45.427";"2014-10-16 13:45:22.778";"1";"1";"1";"173";"172";"module.devaluation_block1.exec-7294.deval1";"6650";"2014-10-16 13:43:22.314";"24";"4";"6";"7";"753";"1724";"1138";"2014-10-16 13:43:15.668";"3";;;;;;;;;;;;;;;;;;;;;;;;;;;;;;;;;;;;;;;;;;;;;;;;;;;;;;;;;;;;;;;;;;;;;;;;;;;;;;;;
"C1401190";;;"Windows 7";"Rachel's Experiment (D.T.)";"1.0";"2";"1";"1";"2";"1";"1";"2014-10-16 13:32:45.427";"2014-10-16 13:45:22.778";"1";"1";"1";"174";"173";"module.devaluation_block1.exec-7294.deval1";"6925";"2014-10-16 13:43:29.256";"18";"4";"5";"8";"812";"1695";"1398";"2014-10-16 13:43:22.330";"3";;;;;;;;;;;;;;;;;;;;;;;;;;;;;;;;;;;;;;;;;;;;;;;;;;;;;;;;;;;;;;;;;;;;;;;;;;;;;;;;
"C1401190";;;"Windows 7";"Rachel's Experiment (D.T.)";"1.0";"2";"1";"1";"2";"1";"1";"2014-10-16 13:32:45.427";"2014-10-16 13:45:22.778";"1";"1";"1";"175";"174";"module.devaluation_block1.exec-7294.deval1";"6693";"2014-10-16 13:43:35.980";"2";"6";"5";"7";"622";"1855";"1180";"2014-10-16 13:43:29.287";"1";;;;;;;;;;;;;;;;;;;;;;;;;;;;;;;;;;;;;;;;;;;;;;;;;;;;;;;;;;;;;;;;;;;;;;;;;;;;;;;;
"C1401190";;;"Windows 7";"Rachel's Experiment (D.T.)";"1.0";"2";"1";"1";"2";"1";"1";"2014-10-16 13:32:45.427";"2014-10-16 13:45:22.778";"1";"1";"1";"176";"175";"module.devaluation_block1.exec-7294.deval1";"7428";"2014-10-16 13:43:43.421";"9";"6";"5";"6";"906";"1456";"2039";"2014-10-16 13:43:35.995";"2";;;;;;;;;;;;;;;;;;;;;;;;;;;;;;;;;;;;;;;;;;;;;;;;;;;;;;;;;;;;;;;;;;;;;;;;;;;;;;;;
"C1401190";;;"Windows 7";"Rachel's Experiment (D.T.)";"1.0";"2";"1";"1";"2";"1";"1";"2014-10-16 13:32:45.427";"2014-10-16 13:45:22.778";"1";"1";"1";"177";"176";"module.devaluation_block1.exec-7294.deval1";"5741";"2014-10-16 13:43:49.177";"16";"4";"4";"5";"585";"1615";"517";"2014-10-16 13:43:43.437";"2";;;;;;;;;;;;;;;;;;;;;;;;;;;;;;;;;;;;;;;;;;;;;;;;;;;;;;;;;;;;;;;;;;;;;;;;;;;;;;;;
"C1401190";;;"Windows 7";"Rachel's Experiment (D.T.)";"1.0";"2";"1";"1";"2";"1";"1";"2014-10-16 13:32:45.427";"2014-10-16 13:45:22.778";"1";"1";"1";"178";"177";"module.devaluation_block1.exec-7294.deval1";"6684";"2014-10-16 13:43:55.885";"10";"7";"6";"7";"917";"1830";"929";"2014-10-16 13:43:49.193";"2";;;;;;;;;;;;;;;;;;;;;;;;;;;;;;;;;;;;;;;;;;;;;;;;;;;;;;;;;;;;;;;;;;;;;;;;;;;;;;;;
"C1401190";;;"Windows 7";"Rachel's Experiment (D.T.)";"1.0";"2";"1";"1";"2";"1";"1";"2014-10-16 13:32:45.427";"2014-10-16 13:45:22.778";"1";"1";"1";"179";"178";"module.devaluation_block1.exec-7294.deval1";"6986";"2014-10-16 13:44:02.905";"12";"9";"7";"8";"1553";"1061";"1343";"2014-10-16 13:43:55.917";"2";;;;;;;;;;;;;;;;;;;;;;;;;;;;;;;;;;;;;;;;;;;;;;;;;;;;;;;;;;;;;;;;;;;;;;;;;;;;;;;;
"C1401190";;;"Windows 7";"Rachel's Experiment (D.T.)";"1.0";"2";"1";"1";"2";"1";"1";"2014-10-16 13:32:45.427";"2014-10-16 13:45:22.778";"1";"1";"1";"180";"179";"module.devaluation_block1.exec-7294.deval1";"8127";"2014-10-16 13:44:11.064";"3";"6";"5";"6";"1677";"1718";"1701";"2014-10-16 13:44:02.937";"1";;;;;;;;;;;;;;;;;;;;;;;;;;;;;;;;;;;;;;;;;;;;;;;;;;;;;;;;;;;;;;;;;;;;;;;;;;;;;;;;
"C1401190";;;"Windows 7";"Rachel's Experiment (D.T.)";"1.0";"2";"1";"1";"2";"1";"1";"2014-10-16 13:32:45.427";"2014-10-16 13:45:22.778";"1";"1";"1";"181";"180";"module.devaluation_block1.exec-7294.deval1";"7685";"2014-10-16 13:44:18.771";"19";"9";"8";"9";"1238";"1591";"1834";"2014-10-16 13:44:11.080";"3";;;;;;;;;;;;;;;;;;;;;;;;;;;;;;;;;;;;;;;;;;;;;;;;;;;;;;;;;;;;;;;;;;;;;;;;;;;;;;;;
"C1401190";;;"Windows 7";"Rachel's Experiment (D.T.)";"1.0";"2";"1";"1";"2";"1";"1";"2014-10-16 13:32:45.427";"2014-10-16 13:45:22.778";"1";"1";"1";"182";"181";"module.devaluation_block1.exec-7294.deval1";"6733";"2014-10-16 13:44:25.510";"26";"8";"6";"7";"1283";"1026";"1393";"2014-10-16 13:44:18.786";"3";;;;;;;;;;;;;;;;;;;;;;;;;;;;;;;;;;;;;;;;;;;;;;;;;;;;;;;;;;;;;;;;;;;;;;;;;;;;;;;;
"C1401190";;;"Windows 7";"Rachel's Experiment (D.T.)";"1.0";"2";"1";"1";"2";"1";"1";"2014-10-16 13:32:45.427";"2014-10-16 13:45:22.778";"1";"1";"1";"183";"182";"module.devaluation_block1.exec-7294.deval1";"6769";"2014-10-16 13:44:32.327";"8";"8";"5";"7";"1081";"1251";"1410";"2014-10-16 13:44:25.557";"1";;;;;;;;;;;;;;;;;;;;;;;;;;;;;;;;;;;;;;;;;;;;;;;;;;;;;;;;;;;;;;;;;;;;;;;;;;;;;;;;
"C1401190";;;"Windows 7";"Rachel's Experiment (D.T.)";"1.0";"2";"1";"1";"2";"1";"1";"2014-10-16 13:32:45.427";"2014-10-16 13:45:22.778";"1";"1";"1";"184";"183";"module.devaluation_block1.exec-7294.deval1";"7924";"2014-10-16 13:44:40.267";"25";"5";"4";"5";"1943";"1020";"1934";"2014-10-16 13:44:32.343";"3";;;;;;;;;;;;;;;;;;;;;;;;;;;;;;;;;;;;;;;;;;;;;;;;;;;;;;;;;;;;;;;;;;;;;;;;;;;;;;;;
"C1401190";;;"Windows 7";"Rachel's Experiment (D.T.)";"1.0";"2";"1";"1";"2";"1";"1";"2014-10-16 13:32:45.427";"2014-10-16 13:45:22.778";"1";"1";"1";"185";"184";"module.devaluation_block1.exec-7294.deval1";"7049";"2014-10-16 13:44:47.334";"15";"4";"3";"5";"627";"1275";"2112";"2014-10-16 13:44:40.299";"2";;;;;;;;;;;;;;;;;;;;;;;;;;;;;;;;;;;;;;;;;;;;;;;;;;;;;;;;;;;;;;;;;;;;;;;;;;;;;;;;
"C1401190";;;"Windows 7";"Rachel's Experiment (D.T.)";"1.0";"2";"1";"1";"2";"1";"1";"2014-10-16 13:32:45.427";"2014-10-16 13:45:22.778";"1";"1";"1";"186";"185";"module.devaluation_block1.exec-7294.deval1";"6221";"2014-10-16 13:44:53.574";"4";"7";"6";"7";"856";"1244";"1075";"2014-10-16 13:44:47.365";"1";;;;;;;;;;;;;;;;;;;;;;;;;;;;;;;;;;;;;;;;;;;;;;;;;;;;;;;;;;;;;;;;;;;;;;;;;;;;;;;;
"C1401190";;;"Windows 7";"Rachel's Experiment (D.T.)";"1.0";"2";"1";"1";"2";"1";"1";"2014-10-16 13:32:45.427";"2014-10-16 13:45:22.778";"1";"1";"1";"187";"186";"module.devaluation_block1.exec-7294.deval1";"7118";"2014-10-16 13:45:00.719";"1";"4";"4";"6";"1432";"1297";"1369";"2014-10-16 13:44:53.605";"1";;;;;;;;;;;;;;;;;;;;;;;;;;;;;;;;;;;;;;;;;;;;;;;;;;;;;;;;;;;;;;;;;;;;;;;;;;;;;;;;
"C1401190";;;"Windows 7";"Rachel's Experiment (D.T.)";"1.0";"2";"1";"1";"2";"1";"1";"2014-10-16 13:32:45.427";"2014-10-16 13:45:22.778";"1";"1";"1";"188";"187";"module.devaluation_block1.exec-7294.deval1";"5959";"2014-10-16 13:45:06.709";"17";"4";"3";"3";"743";"1299";"895";"2014-10-16 13:45:00.750";"2";;;;;;;;;;;;;;;;;;;;;;;;;;;;;;;;;;;;;;;;;;;;;;;;;;;;;;;;;;;;;;;;;;;;;;;;;;;;;;;;
"C1401190";;;"Windows 7";"Rachel's Experiment (D.T.)";"1.0";"2";"1";"1";"2";"1";"1";"2014-10-16 13:32:45.427";"2014-10-16 13:45:22.778";"1";"1";"1";"189";"188";"module.devaluation_block1.exec-7294.deval1";"6436";"2014-10-16 13:45:13.168";"22";"7";"5";"6";"816";"1484";"1114";"2014-10-16 13:45:06.725";"3";;;;;;;;;;;;;;;;;;;;;;;;;;;;;;;;;;;;;;;;;;;;;;;;;;;;;;;;;;;;;;;;;;;;;;;;;;;;;;;;
"C1401190";;;"Windows 7";"Rachel's Experiment (D.T.)";"1.0";"2";"1";"1";"2";"1";"1";"2014-10-16 13:32:45.427";"2014-10-16 13:45:22.778";"1";"1";"1";"190";"189";"module.devaluation_block1.exec-7294.deval1";"7445";"2014-10-16 13:45:20.625";"13";"6";"5";"6";"1318";"1429";"1676";"2014-10-16 13:45:13.183";"2";;;;;;;;;;;;;;;;;;;;;;;;;;;;;;;;;;;;;;;;;;;;;;;;;;;;;;;;;;;;;;;;;;;;;;;;;;;;;;;;
