"user.name";"user.yearOfBirth";"user.sex";"user.osName";"module.name";"module.version";"module.online.subject.code";"module.online.study.id";"module.online.module.nr";"module.online.group.nr";"session.id";"session.index";"session.startTime";"session.endTime";"session.completed";"session.node-1295.DevalQorder";"session.node-9389.conditionType";"trial.id";"trial.index";"trial.name";"trial.deval1.durationTime";"trial.deval1.endTime";"trial.deval1.icon";"trial.deval1.Resp_Attractive";"trial.deval1.Resp_Eat";"trial.deval1.Resp_Taste";"trial.deval1.RT_Attractive";"trial.deval1.RT_Eat";"trial.deval1.RT_Taste";"trial.deval1.startTime";"trial.deval1.stimulus type";"trial.devalPractice.durationTime";"trial.devalPractice.endTime";"trial.devalPractice.icon";"trial.devalPractice.Resp_Attractive";"trial.devalPractice.Resp_Eat";"trial.devalPractice.Resp_Taste";"trial.devalPractice.RT_Attractive";"trial.devalPractice.RT_Eat";"trial.devalPractice.RT_Taste";"trial.devalPractice.startTime";"trial.devalPractice.stimulus type";"trial.GoNoGo1.durationTime";"trial.GoNoGo1.endTime";"trial.GoNoGo1.Error Type";"trial.GoNoGo1.icon";"trial.GoNoGo1.location";"trial.GoNoGo1.outcome";"trial.GoNoGo1.response";"trial.GoNoGo1.result";"trial.GoNoGo1.RT";"trial.GoNoGo1.signal";"trial.GoNoGo1.startTime";"trial.GoNoGo1.stimulus type";"trial.GoNoGo2.durationTime";"trial.GoNoGo2.endTime";"trial.GoNoGo2.Error Type";"trial.GoNoGo2.icon";"trial.GoNoGo2.location";"trial.GoNoGo2.outcome";"trial.GoNoGo2.response";"trial.GoNoGo2.result";"trial.GoNoGo2.RT";"trial.GoNoGo2.signal";"trial.GoNoGo2.startTime";"trial.GoNoGo2.stimulus type";"trial.GoNoGo3.durationTime";"trial.GoNoGo3.endTime";"trial.GoNoGo3.Error Type";"trial.GoNoGo3.icon";"trial.GoNoGo3.location";"trial.GoNoGo3.outcome";"trial.GoNoGo3.response";"trial.GoNoGo3.result";"trial.GoNoGo3.RT";"trial.GoNoGo3.signal";"trial.GoNoGo3.startTime";"trial.GoNoGo3.stimulus type";"trial.GoNoGo4.durationTime";"trial.GoNoGo4.endTime";"trial.GoNoGo4.Error Type";"trial.GoNoGo4.icon";"trial.GoNoGo4.location";"trial.GoNoGo4.outcome";"trial.GoNoGo4.response";"trial.GoNoGo4.result";"trial.GoNoGo4.RT";"trial.GoNoGo4.signal";"trial.GoNoGo4.startTime";"trial.GoNoGo4.stimulus type";"trial.GoNoGo_Practice.durationTime";"trial.GoNoGo_Practice.endTime";"trial.GoNoGo_Practice.icon";"trial.GoNoGo_Practice.location";"trial.GoNoGo_Practice.outcome";"trial.GoNoGo_Practice.response";"trial.GoNoGo_Practice.result";"trial.GoNoGo_Practice.RT";"trial.GoNoGo_Practice.signal";"trial.GoNoGo_Practice.startTime";"trial.GoNoGo_Practice.stimulus type";"trial.GoNoGo_Tutorial.durationTime";"trial.GoNoGo_Tutorial.endTime";"trial.GoNoGo_Tutorial.icon";"trial.GoNoGo_Tutorial.location";"trial.GoNoGo_Tutorial.outcome";"trial.GoNoGo_Tutorial.response";"trial.GoNoGo_Tutorial.result";"trial.GoNoGo_Tutorial.RT";"trial.GoNoGo_Tutorial.signal";"trial.GoNoGo_Tutorial.startTime"
"142032";"1992";;"Mac OS X";"Rachel's Experiment (D.T.)";"1.0";"2";"1";"1";"2";"1";"1";"2014-10-13 13:57:46.495";"2014-10-13 14:11:26.143";"1";"0";"0";"1";"0";"module.GoNoGotutorial.exec-5069.GoNoGo_Tutorial";;;;;;;;;;;;;;;;;;;;;;;;;;;;;;;;;;;;;;;;;;;;;;;;;;;;;;;;;;;;;;;;;;;;;;;;;;;;;;;;;;"4002";"2014-10-13 13:58:18.059";"leftResponse";"0";"FINISHED";"LEFT";"success";"594";"0";"2014-10-13 13:58:14.057"
"142032";"1992";;"Mac OS X";"Rachel's Experiment (D.T.)";"1.0";"2";"1";"1";"2";"1";"1";"2014-10-13 13:57:46.495";"2014-10-13 14:11:26.143";"1";"0";"0";"2";"1";"module.GoNoGotutorial.exec-5069.GoNoGo_Tutorial";;;;;;;;;;;;;;;;;;;;;;;;;;;;;;;;;;;;;;;;;;;;;;;;;;;;;;;;;;;;;;;;;;;;;;;;;;;;;;;;;;"4000";"2014-10-13 13:58:23.348";"rightResponse";"1";"FINISHED";"RIGHT";"success";"440";"0";"2014-10-13 13:58:19.347"
"142032";"1992";;"Mac OS X";"Rachel's Experiment (D.T.)";"1.0";"2";"1";"1";"2";"1";"1";"2014-10-13 13:57:46.495";"2014-10-13 14:11:26.143";"1";"0";"0";"3";"2";"module.GoNoGotutorial.exec-5069.GoNoGo_Tutorial";;;;;;;;;;;;;;;;;;;;;;;;;;;;;;;;;;;;;;;;;;;;;;;;;;;;;;;;;;;;;;;;;;;;;;;;;;;;;;;;;;"4000";"2014-10-13 13:58:28.634";"quickResponse";"0";"FINISHED";"LEFT";"success";"1723";"0";"2014-10-13 13:58:24.634"
"142032";"1992";;"Mac OS X";"Rachel's Experiment (D.T.)";"1.0";"2";"1";"1";"2";"1";"1";"2014-10-13 13:57:46.495";"2014-10-13 14:11:26.143";"1";"0";"0";"4";"3";"module.GoNoGopractice.exec-7787.GoNoGo_Practice";;;;;;;;;;;;;;;;;;;;;;;;;;;;;;;;;;;;;;;;;;;;;;;;;;;;;;;;;;;;;;;;;;;;;;;"1957";"2014-10-13 13:58:36.689";"18";"0";"FINISHED";"LEFT";"success";"402";"0";"2014-10-13 13:58:34.731";"3";;;;;;;;;;
"142032";"1992";;"Mac OS X";"Rachel's Experiment (D.T.)";"1.0";"2";"1";"1";"2";"1";"1";"2014-10-13 13:57:46.495";"2014-10-13 14:11:26.143";"1";"0";"0";"5";"4";"module.GoNoGopractice.exec-7787.GoNoGo_Practice";;;;;;;;;;;;;;;;;;;;;;;;;;;;;;;;;;;;;;;;;;;;;;;;;;;;;;;;;;;;;;;;;;;;;;;"1952";"2014-10-13 13:58:39.925";"21";"1";"FINISHED";"RIGHT";"success";"360";"0";"2014-10-13 13:58:37.973";"3";;;;;;;;;;
"142032";"1992";;"Mac OS X";"Rachel's Experiment (D.T.)";"1.0";"2";"1";"1";"2";"1";"1";"2014-10-13 13:57:46.495";"2014-10-13 14:11:26.143";"1";"0";"0";"6";"5";"module.GoNoGopractice.exec-7787.GoNoGo_Practice";;;;;;;;;;;;;;;;;;;;;;;;;;;;;;;;;;;;;;;;;;;;;;;;;;;;;;;;;;;;;;;;;;;;;;;"1952";"2014-10-13 13:58:43.161";"14";"1";"FINISHED";"RIGHT";"success";"539";"0";"2014-10-13 13:58:41.209";"2";;;;;;;;;;
"142032";"1992";;"Mac OS X";"Rachel's Experiment (D.T.)";"1.0";"2";"1";"1";"2";"1";"1";"2014-10-13 13:57:46.495";"2014-10-13 14:11:26.143";"1";"0";"0";"7";"6";"module.GoNoGopractice.exec-7787.GoNoGo_Practice";;;;;;;;;;;;;;;;;;;;;;;;;;;;;;;;;;;;;;;;;;;;;;;;;;;;;;;;;;;;;;;;;;;;;;;"1952";"2014-10-13 13:58:46.401";"26";"0";"FINISHED";"LEFT";"success";"508";"0";"2014-10-13 13:58:44.448";"3";;;;;;;;;;
"142032";"1992";;"Mac OS X";"Rachel's Experiment (D.T.)";"1.0";"2";"1";"1";"2";"1";"1";"2014-10-13 13:57:46.495";"2014-10-13 14:11:26.143";"1";"0";"0";"8";"7";"module.GoNoGopractice.exec-7787.GoNoGo_Practice";;;;;;;;;;;;;;;;;;;;;;;;;;;;;;;;;;;;;;;;;;;;;;;;;;;;;;;;;;;;;;;;;;;;;;;"1954";"2014-10-13 13:58:49.637";"2";"0";"FINISHED";"LEFT";"success";"426";"0";"2014-10-13 13:58:47.682";"1";;;;;;;;;;
"142032";"1992";;"Mac OS X";"Rachel's Experiment (D.T.)";"1.0";"2";"1";"1";"2";"1";"1";"2014-10-13 13:57:46.495";"2014-10-13 14:11:26.143";"1";"0";"0";"9";"8";"module.GoNoGopractice.exec-7787.GoNoGo_Practice";;;;;;;;;;;;;;;;;;;;;;;;;;;;;;;;;;;;;;;;;;;;;;;;;;;;;;;;;;;;;;;;;;;;;;;"1954";"2014-10-13 13:58:52.872";"30";"0";"FINISHED";"LEFT";"success";"374";"0";"2014-10-13 13:58:50.918";"3";;;;;;;;;;
"142032";"1992";;"Mac OS X";"Rachel's Experiment (D.T.)";"1.0";"2";"1";"1";"2";"1";"1";"2014-10-13 13:57:46.495";"2014-10-13 14:11:26.143";"1";"0";"0";"10";"9";"module.GoNoGopractice.exec-7787.GoNoGo_Practice";;;;;;;;;;;;;;;;;;;;;;;;;;;;;;;;;;;;;;;;;;;;;;;;;;;;;;;;;;;;;;;;;;;;;;;"1952";"2014-10-13 13:58:56.106";"6";"1";"FINISHED";"RIGHT";"success";"418";"0";"2014-10-13 13:58:54.154";"1";;;;;;;;;;
"142032";"1992";;"Mac OS X";"Rachel's Experiment (D.T.)";"1.0";"2";"1";"1";"2";"1";"1";"2014-10-13 13:57:46.495";"2014-10-13 14:11:26.143";"1";"0";"0";"11";"10";"module.GoNoGopractice.exec-7787.GoNoGo_Practice";;;;;;;;;;;;;;;;;;;;;;;;;;;;;;;;;;;;;;;;;;;;;;;;;;;;;;;;;;;;;;;;;;;;;;;"1954";"2014-10-13 13:58:59.337";"34";"0";"FINISHED";"LEFT";"success";"325";"0";"2014-10-13 13:58:57.383";"3";;;;;;;;;;
"142032";"1992";;"Mac OS X";"Rachel's Experiment (D.T.)";"1.0";"2";"1";"1";"2";"1";"1";"2014-10-13 13:57:46.495";"2014-10-13 14:11:26.143";"1";"0";"0";"12";"11";"module.GoNoGopractice.exec-7787.GoNoGo_Practice";;;;;;;;;;;;;;;;;;;;;;;;;;;;;;;;;;;;;;;;;;;;;;;;;;;;;;;;;;;;;;;;;;;;;;;"1954";"2014-10-13 13:59:02.571";"23";"1";"FINISHED";"RIGHT";"success";"322";"0";"2014-10-13 13:59:00.617";"3";;;;;;;;;;
"142032";"1992";;"Mac OS X";"Rachel's Experiment (D.T.)";"1.0";"2";"1";"1";"2";"1";"1";"2014-10-13 13:57:46.495";"2014-10-13 14:11:26.143";"1";"0";"0";"13";"12";"module.GoNoGopractice.exec-7787.GoNoGo_Practice";;;;;;;;;;;;;;;;;;;;;;;;;;;;;;;;;;;;;;;;;;;;;;;;;;;;;;;;;;;;;;;;;;;;;;;"1953";"2014-10-13 13:59:05.805";"13";"0";"FINISHED";"LEFT";"success";"377";"0";"2014-10-13 13:59:03.851";"2";;;;;;;;;;
"142032";"1992";;"Mac OS X";"Rachel's Experiment (D.T.)";"1.0";"2";"1";"1";"2";"1";"1";"2014-10-13 13:57:46.495";"2014-10-13 14:11:26.143";"1";"0";"0";"14";"13";"module.GoNoGopractice.exec-7787.GoNoGo_Practice";;;;;;;;;;;;;;;;;;;;;;;;;;;;;;;;;;;;;;;;;;;;;;;;;;;;;;;;;;;;;;;;;;;;;;;"1953";"2014-10-13 13:59:09.039";"3";"1";"FINISHED";"RIGHT";"success";"319";"0";"2014-10-13 13:59:07.085";"1";;;;;;;;;;
"142032";"1992";;"Mac OS X";"Rachel's Experiment (D.T.)";"1.0";"2";"1";"1";"2";"1";"1";"2014-10-13 13:57:46.495";"2014-10-13 14:11:26.143";"1";"0";"0";"15";"14";"module.GoNoGopractice.exec-7787.GoNoGo_Practice";;;;;;;;;;;;;;;;;;;;;;;;;;;;;;;;;;;;;;;;;;;;;;;;;;;;;;;;;;;;;;;;;;;;;;;"1953";"2014-10-13 13:59:12.272";"27";"1";"FINISHED";"RIGHT";"success";"452";"0";"2014-10-13 13:59:10.319";"3";;;;;;;;;;
"142032";"1992";;"Mac OS X";"Rachel's Experiment (D.T.)";"1.0";"2";"1";"1";"2";"1";"1";"2014-10-13 13:57:46.495";"2014-10-13 14:11:26.143";"1";"0";"0";"16";"15";"module.training_block1.exec-1990.GoNoGo1";;;;;;;;;;;;;;;;;;;;;;;"1252";"2014-10-13 13:59:21.652";"NST_correctLoc";"30";"0";"FINISHED";"LEFT";"success";"503";"0";"2014-10-13 13:59:20.400";"3";;;;;;;;;;;;;;;;;;;;;;;;;;;;;;;;;;;;;;;;;;;;;;;;;;;;;;;;;
"142032";"1992";;"Mac OS X";"Rachel's Experiment (D.T.)";"1.0";"2";"1";"1";"2";"1";"1";"2014-10-13 13:57:46.495";"2014-10-13 14:11:26.143";"1";"0";"0";"17";"16";"module.training_block1.exec-1990.GoNoGo1";;;;;;;;;;;;;;;;;;;;;;;"1251";"2014-10-13 13:59:24.187";"NST_correctLoc";"33";"1";"FINISHED";"RIGHT";"success";"320";"0";"2014-10-13 13:59:22.935";"3";;;;;;;;;;;;;;;;;;;;;;;;;;;;;;;;;;;;;;;;;;;;;;;;;;;;;;;;;
"142032";"1992";;"Mac OS X";"Rachel's Experiment (D.T.)";"1.0";"2";"1";"1";"2";"1";"1";"2014-10-13 13:57:46.495";"2014-10-13 14:11:26.143";"1";"0";"0";"18";"17";"module.training_block1.exec-1990.GoNoGo1";;;;;;;;;;;;;;;;;;;;;;;"1250";"2014-10-13 13:59:26.718";"NST_correctLoc";"7";"0";"FINISHED";"LEFT";"success";"315";"0";"2014-10-13 13:59:25.468";"1";;;;;;;;;;;;;;;;;;;;;;;;;;;;;;;;;;;;;;;;;;;;;;;;;;;;;;;;;
"142032";"1992";;"Mac OS X";"Rachel's Experiment (D.T.)";"1.0";"2";"1";"1";"2";"1";"1";"2014-10-13 13:57:46.495";"2014-10-13 14:11:26.143";"1";"0";"0";"19";"18";"module.training_block1.exec-1990.GoNoGo1";;;;;;;;;;;;;;;;;;;;;;;"1250";"2014-10-13 13:59:29.250";"NST_correctLoc";"10";"0";"FINISHED";"LEFT";"success";"383";"0";"2014-10-13 13:59:27.999";"2";;;;;;;;;;;;;;;;;;;;;;;;;;;;;;;;;;;;;;;;;;;;;;;;;;;;;;;;;
"142032";"1992";;"Mac OS X";"Rachel's Experiment (D.T.)";"1.0";"2";"1";"1";"2";"1";"1";"2014-10-13 13:57:46.495";"2014-10-13 14:11:26.143";"1";"0";"0";"20";"19";"module.training_block1.exec-1990.GoNoGo1";;;;;;;;;;;;;;;;;;;;;;;"1251";"2014-10-13 13:59:31.782";"NST_correctLoc";"8";"0";"FINISHED";"LEFT";"success";"356";"0";"2014-10-13 13:59:30.531";"1";;;;;;;;;;;;;;;;;;;;;;;;;;;;;;;;;;;;;;;;;;;;;;;;;;;;;;;;;
"142032";"1992";;"Mac OS X";"Rachel's Experiment (D.T.)";"1.0";"2";"1";"1";"2";"1";"1";"2014-10-13 13:57:46.495";"2014-10-13 14:11:26.143";"1";"0";"0";"21";"20";"module.training_block1.exec-1990.GoNoGo1";;;;;;;;;;;;;;;;;;;;;;;"1250";"2014-10-13 13:59:34.313";"NST_correctLoc";"31";"1";"FINISHED";"RIGHT";"success";"352";"0";"2014-10-13 13:59:33.063";"3";;;;;;;;;;;;;;;;;;;;;;;;;;;;;;;;;;;;;;;;;;;;;;;;;;;;;;;;;
"142032";"1992";;"Mac OS X";"Rachel's Experiment (D.T.)";"1.0";"2";"1";"1";"2";"1";"1";"2014-10-13 13:57:46.495";"2014-10-13 14:11:26.143";"1";"0";"0";"22";"21";"module.training_block1.exec-1990.GoNoGo1";;;;;;;;;;;;;;;;;;;;;;;"1250";"2014-10-13 13:59:36.849";"NST_correctLoc";"32";"0";"FINISHED";"LEFT";"success";"328";"0";"2014-10-13 13:59:35.598";"3";;;;;;;;;;;;;;;;;;;;;;;;;;;;;;;;;;;;;;;;;;;;;;;;;;;;;;;;;
"142032";"1992";;"Mac OS X";"Rachel's Experiment (D.T.)";"1.0";"2";"1";"1";"2";"1";"1";"2014-10-13 13:57:46.495";"2014-10-13 14:11:26.143";"1";"0";"0";"23";"22";"module.training_block1.exec-1990.GoNoGo1";;;;;;;;;;;;;;;;;;;;;;;"1251";"2014-10-13 13:59:39.499";"NST_correctLoc";"29";"1";"FINISHED";"RIGHT";"success";"472";"0";"2014-10-13 13:59:38.247";"3";;;;;;;;;;;;;;;;;;;;;;;;;;;;;;;;;;;;;;;;;;;;;;;;;;;;;;;;;
"142032";"1992";;"Mac OS X";"Rachel's Experiment (D.T.)";"1.0";"2";"1";"1";"2";"1";"1";"2014-10-13 13:57:46.495";"2014-10-13 14:11:26.143";"1";"0";"0";"24";"23";"module.training_block1.exec-1990.GoNoGo1";;;;;;;;;;;;;;;;;;;;;;;"1250";"2014-10-13 13:59:42.031";"NST_correctLoc";"1";"1";"FINISHED";"RIGHT";"success";"386";"0";"2014-10-13 13:59:40.780";"1";;;;;;;;;;;;;;;;;;;;;;;;;;;;;;;;;;;;;;;;;;;;;;;;;;;;;;;;;
"142032";"1992";;"Mac OS X";"Rachel's Experiment (D.T.)";"1.0";"2";"1";"1";"2";"1";"1";"2014-10-13 13:57:46.495";"2014-10-13 14:11:26.143";"1";"0";"0";"25";"24";"module.training_block1.exec-1990.GoNoGo1";;;;;;;;;;;;;;;;;;;;;;;"1251";"2014-10-13 13:59:44.563";"NST_correctLoc";"9";"0";"FINISHED";"LEFT";"success";"254";"0";"2014-10-13 13:59:43.312";"2";;;;;;;;;;;;;;;;;;;;;;;;;;;;;;;;;;;;;;;;;;;;;;;;;;;;;;;;;
"142032";"1992";;"Mac OS X";"Rachel's Experiment (D.T.)";"1.0";"2";"1";"1";"2";"1";"1";"2014-10-13 13:57:46.495";"2014-10-13 14:11:26.143";"1";"0";"0";"26";"25";"module.training_block1.exec-1990.GoNoGo1";;;;;;;;;;;;;;;;;;;;;;;"1251";"2014-10-13 13:59:47.092";"NST_correctLoc";"34";"0";"FINISHED";"LEFT";"success";"334";"0";"2014-10-13 13:59:45.840";"3";;;;;;;;;;;;;;;;;;;;;;;;;;;;;;;;;;;;;;;;;;;;;;;;;;;;;;;;;
"142032";"1992";;"Mac OS X";"Rachel's Experiment (D.T.)";"1.0";"2";"1";"1";"2";"1";"1";"2014-10-13 13:57:46.495";"2014-10-13 14:11:26.143";"1";"0";"0";"27";"26";"module.training_block1.exec-1990.GoNoGo1";;;;;;;;;;;;;;;;;;;;;;;"1250";"2014-10-13 13:59:49.622";"NST_correctLoc";"11";"0";"FINISHED";"LEFT";"success";"387";"0";"2014-10-13 13:59:48.372";"2";;;;;;;;;;;;;;;;;;;;;;;;;;;;;;;;;;;;;;;;;;;;;;;;;;;;;;;;;
"142032";"1992";;"Mac OS X";"Rachel's Experiment (D.T.)";"1.0";"2";"1";"1";"2";"1";"1";"2014-10-13 13:57:46.495";"2014-10-13 14:11:26.143";"1";"0";"0";"28";"27";"module.training_block1.exec-1990.GoNoGo1";;;;;;;;;;;;;;;;;;;;;;;"1251";"2014-10-13 13:59:52.151";"NST_correctLoc";"23";"0";"FINISHED";"LEFT";"success";"243";"0";"2014-10-13 13:59:50.900";"3";;;;;;;;;;;;;;;;;;;;;;;;;;;;;;;;;;;;;;;;;;;;;;;;;;;;;;;;;
"142032";"1992";;"Mac OS X";"Rachel's Experiment (D.T.)";"1.0";"2";"1";"1";"2";"1";"1";"2014-10-13 13:57:46.495";"2014-10-13 14:11:26.143";"1";"0";"0";"29";"28";"module.training_block1.exec-1990.GoNoGo1";;;;;;;;;;;;;;;;;;;;;;;"1251";"2014-10-13 13:59:54.682";"NST_correctLoc";"26";"1";"FINISHED";"RIGHT";"success";"264";"0";"2014-10-13 13:59:53.431";"3";;;;;;;;;;;;;;;;;;;;;;;;;;;;;;;;;;;;;;;;;;;;;;;;;;;;;;;;;
"142032";"1992";;"Mac OS X";"Rachel's Experiment (D.T.)";"1.0";"2";"1";"1";"2";"1";"1";"2014-10-13 13:57:46.495";"2014-10-13 14:11:26.143";"1";"0";"0";"30";"29";"module.training_block1.exec-1990.GoNoGo1";;;;;;;;;;;;;;;;;;;;;;;"1251";"2014-10-13 13:59:57.216";"NST_correctLoc";"22";"0";"FINISHED";"LEFT";"success";"313";"0";"2014-10-13 13:59:55.965";"3";;;;;;;;;;;;;;;;;;;;;;;;;;;;;;;;;;;;;;;;;;;;;;;;;;;;;;;;;
"142032";"1992";;"Mac OS X";"Rachel's Experiment (D.T.)";"1.0";"2";"1";"1";"2";"1";"1";"2014-10-13 13:57:46.495";"2014-10-13 14:11:26.143";"1";"0";"0";"31";"30";"module.training_block1.exec-1990.GoNoGo1";;;;;;;;;;;;;;;;;;;;;;;"1250";"2014-10-13 13:59:59.744";"NST_correctLoc";"13";"1";"FINISHED";"RIGHT";"success";"345";"0";"2014-10-13 13:59:58.493";"2";;;;;;;;;;;;;;;;;;;;;;;;;;;;;;;;;;;;;;;;;;;;;;;;;;;;;;;;;
"142032";"1992";;"Mac OS X";"Rachel's Experiment (D.T.)";"1.0";"2";"1";"1";"2";"1";"1";"2014-10-13 13:57:46.495";"2014-10-13 14:11:26.143";"1";"0";"0";"32";"31";"module.training_block1.exec-1990.GoNoGo1";;;;;;;;;;;;;;;;;;;;;;;"1251";"2014-10-13 14:00:02.274";"NST_correctLoc";"35";"1";"FINISHED";"RIGHT";"success";"375";"0";"2014-10-13 14:00:01.023";"3";;;;;;;;;;;;;;;;;;;;;;;;;;;;;;;;;;;;;;;;;;;;;;;;;;;;;;;;;
"142032";"1992";;"Mac OS X";"Rachel's Experiment (D.T.)";"1.0";"2";"1";"1";"2";"1";"1";"2014-10-13 13:57:46.495";"2014-10-13 14:11:26.143";"1";"0";"0";"33";"32";"module.training_block1.exec-1990.GoNoGo1";;;;;;;;;;;;;;;;;;;;;;;"1251";"2014-10-13 14:00:04.803";"NST_correctLoc";"25";"1";"FINISHED";"RIGHT";"success";"430";"0";"2014-10-13 14:00:03.552";"3";;;;;;;;;;;;;;;;;;;;;;;;;;;;;;;;;;;;;;;;;;;;;;;;;;;;;;;;;
"142032";"1992";;"Mac OS X";"Rachel's Experiment (D.T.)";"1.0";"2";"1";"1";"2";"1";"1";"2014-10-13 13:57:46.495";"2014-10-13 14:11:26.143";"1";"0";"0";"34";"33";"module.training_block1.exec-1990.GoNoGo1";;;;;;;;;;;;;;;;;;;;;;;"1251";"2014-10-13 14:00:07.335";"NST_correctLoc";"19";"1";"FINISHED";"RIGHT";"success";"314";"0";"2014-10-13 14:00:06.083";"3";;;;;;;;;;;;;;;;;;;;;;;;;;;;;;;;;;;;;;;;;;;;;;;;;;;;;;;;;
"142032";"1992";;"Mac OS X";"Rachel's Experiment (D.T.)";"1.0";"2";"1";"1";"2";"1";"1";"2014-10-13 13:57:46.495";"2014-10-13 14:11:26.143";"1";"0";"0";"35";"34";"module.training_block1.exec-1990.GoNoGo1";;;;;;;;;;;;;;;;;;;;;;;"1251";"2014-10-13 14:00:09.862";"NST_correctLoc";"14";"1";"FINISHED";"RIGHT";"success";"354";"0";"2014-10-13 14:00:08.611";"2";;;;;;;;;;;;;;;;;;;;;;;;;;;;;;;;;;;;;;;;;;;;;;;;;;;;;;;;;
"142032";"1992";;"Mac OS X";"Rachel's Experiment (D.T.)";"1.0";"2";"1";"1";"2";"1";"1";"2014-10-13 13:57:46.495";"2014-10-13 14:11:26.143";"1";"0";"0";"36";"35";"module.training_block1.exec-1990.GoNoGo1";;;;;;;;;;;;;;;;;;;;;;;"1250";"2014-10-13 14:00:12.392";"NST_correctLoc";"4";"0";"FINISHED";"LEFT";"success";"288";"0";"2014-10-13 14:00:11.142";"1";;;;;;;;;;;;;;;;;;;;;;;;;;;;;;;;;;;;;;;;;;;;;;;;;;;;;;;;;
"142032";"1992";;"Mac OS X";"Rachel's Experiment (D.T.)";"1.0";"2";"1";"1";"2";"1";"1";"2014-10-13 13:57:46.495";"2014-10-13 14:11:26.143";"1";"0";"0";"37";"36";"module.training_block1.exec-1990.GoNoGo1";;;;;;;;;;;;;;;;;;;;;;;"1250";"2014-10-13 14:00:14.931";"NST_correctLoc";"15";"0";"FINISHED";"LEFT";"success";"397";"0";"2014-10-13 14:00:13.680";"2";;;;;;;;;;;;;;;;;;;;;;;;;;;;;;;;;;;;;;;;;;;;;;;;;;;;;;;;;
"142032";"1992";;"Mac OS X";"Rachel's Experiment (D.T.)";"1.0";"2";"1";"1";"2";"1";"1";"2014-10-13 13:57:46.495";"2014-10-13 14:11:26.143";"1";"0";"0";"38";"37";"module.training_block1.exec-1990.GoNoGo1";;;;;;;;;;;;;;;;;;;;;;;"1250";"2014-10-13 14:00:17.457";"NST_correctLoc";"18";"1";"FINISHED";"RIGHT";"success";"343";"0";"2014-10-13 14:00:16.206";"3";;;;;;;;;;;;;;;;;;;;;;;;;;;;;;;;;;;;;;;;;;;;;;;;;;;;;;;;;
"142032";"1992";;"Mac OS X";"Rachel's Experiment (D.T.)";"1.0";"2";"1";"1";"2";"1";"1";"2014-10-13 13:57:46.495";"2014-10-13 14:11:26.143";"1";"0";"0";"39";"38";"module.training_block1.exec-1990.GoNoGo1";;;;;;;;;;;;;;;;;;;;;;;"1250";"2014-10-13 14:00:19.985";"NST_correctLoc";"17";"0";"FINISHED";"LEFT";"success";"415";"0";"2014-10-13 14:00:18.734";"2";;;;;;;;;;;;;;;;;;;;;;;;;;;;;;;;;;;;;;;;;;;;;;;;;;;;;;;;;
"142032";"1992";;"Mac OS X";"Rachel's Experiment (D.T.)";"1.0";"2";"1";"1";"2";"1";"1";"2014-10-13 13:57:46.495";"2014-10-13 14:11:26.143";"1";"0";"0";"40";"39";"module.training_block1.exec-1990.GoNoGo1";;;;;;;;;;;;;;;;;;;;;;;"1251";"2014-10-13 14:00:22.512";"NST_correctLoc";"6";"0";"FINISHED";"LEFT";"success";"368";"0";"2014-10-13 14:00:21.261";"1";;;;;;;;;;;;;;;;;;;;;;;;;;;;;;;;;;;;;;;;;;;;;;;;;;;;;;;;;
"142032";"1992";;"Mac OS X";"Rachel's Experiment (D.T.)";"1.0";"2";"1";"1";"2";"1";"1";"2014-10-13 13:57:46.495";"2014-10-13 14:11:26.143";"1";"0";"0";"41";"40";"module.training_block1.exec-1990.GoNoGo1";;;;;;;;;;;;;;;;;;;;;;;"1251";"2014-10-13 14:00:25.041";"NST_correctLoc";"21";"1";"FINISHED";"RIGHT";"success";"327";"0";"2014-10-13 14:00:23.790";"3";;;;;;;;;;;;;;;;;;;;;;;;;;;;;;;;;;;;;;;;;;;;;;;;;;;;;;;;;
"142032";"1992";;"Mac OS X";"Rachel's Experiment (D.T.)";"1.0";"2";"1";"1";"2";"1";"1";"2014-10-13 13:57:46.495";"2014-10-13 14:11:26.143";"1";"0";"0";"42";"41";"module.training_block1.exec-1990.GoNoGo1";;;;;;;;;;;;;;;;;;;;;;;"1251";"2014-10-13 14:00:27.571";"NST_correctLoc";"28";"1";"FINISHED";"RIGHT";"success";"414";"0";"2014-10-13 14:00:26.319";"3";;;;;;;;;;;;;;;;;;;;;;;;;;;;;;;;;;;;;;;;;;;;;;;;;;;;;;;;;
"142032";"1992";;"Mac OS X";"Rachel's Experiment (D.T.)";"1.0";"2";"1";"1";"2";"1";"1";"2014-10-13 13:57:46.495";"2014-10-13 14:11:26.143";"1";"0";"0";"43";"42";"module.training_block1.exec-1990.GoNoGo1";;;;;;;;;;;;;;;;;;;;;;;"1251";"2014-10-13 14:00:30.097";"NST_correctLoc";"3";"1";"FINISHED";"RIGHT";"success";"607";"0";"2014-10-13 14:00:28.846";"1";;;;;;;;;;;;;;;;;;;;;;;;;;;;;;;;;;;;;;;;;;;;;;;;;;;;;;;;;
"142032";"1992";;"Mac OS X";"Rachel's Experiment (D.T.)";"1.0";"2";"1";"1";"2";"1";"1";"2014-10-13 13:57:46.495";"2014-10-13 14:11:26.143";"1";"0";"0";"44";"43";"module.training_block1.exec-1990.GoNoGo1";;;;;;;;;;;;;;;;;;;;;;;"1251";"2014-10-13 14:00:32.625";"NST_correctLoc";"5";"0";"FINISHED";"LEFT";"success";"383";"0";"2014-10-13 14:00:31.374";"1";;;;;;;;;;;;;;;;;;;;;;;;;;;;;;;;;;;;;;;;;;;;;;;;;;;;;;;;;
"142032";"1992";;"Mac OS X";"Rachel's Experiment (D.T.)";"1.0";"2";"1";"1";"2";"1";"1";"2014-10-13 13:57:46.495";"2014-10-13 14:11:26.143";"1";"0";"0";"45";"44";"module.training_block1.exec-1990.GoNoGo1";;;;;;;;;;;;;;;;;;;;;;;"1250";"2014-10-13 14:00:35.156";"NST_correctLoc";"16";"1";"FINISHED";"RIGHT";"success";"363";"0";"2014-10-13 14:00:33.906";"2";;;;;;;;;;;;;;;;;;;;;;;;;;;;;;;;;;;;;;;;;;;;;;;;;;;;;;;;;
"142032";"1992";;"Mac OS X";"Rachel's Experiment (D.T.)";"1.0";"2";"1";"1";"2";"1";"1";"2014-10-13 13:57:46.495";"2014-10-13 14:11:26.143";"1";"0";"0";"46";"45";"module.training_block1.exec-1990.GoNoGo1";;;;;;;;;;;;;;;;;;;;;;;"1250";"2014-10-13 14:00:37.686";"NST_correctLoc";"20";"1";"FINISHED";"RIGHT";"success";"457";"0";"2014-10-13 14:00:36.436";"3";;;;;;;;;;;;;;;;;;;;;;;;;;;;;;;;;;;;;;;;;;;;;;;;;;;;;;;;;
"142032";"1992";;"Mac OS X";"Rachel's Experiment (D.T.)";"1.0";"2";"1";"1";"2";"1";"1";"2014-10-13 13:57:46.495";"2014-10-13 14:11:26.143";"1";"0";"0";"47";"46";"module.training_block1.exec-1990.GoNoGo1";;;;;;;;;;;;;;;;;;;;;;;"1251";"2014-10-13 14:00:40.216";"NST_correctLoc";"0";"0";"FINISHED";"LEFT";"success";"352";"0";"2014-10-13 14:00:38.965";"1";;;;;;;;;;;;;;;;;;;;;;;;;;;;;;;;;;;;;;;;;;;;;;;;;;;;;;;;;
"142032";"1992";;"Mac OS X";"Rachel's Experiment (D.T.)";"1.0";"2";"1";"1";"2";"1";"1";"2014-10-13 13:57:46.495";"2014-10-13 14:11:26.143";"1";"0";"0";"48";"47";"module.training_block1.exec-1990.GoNoGo1";;;;;;;;;;;;;;;;;;;;;;;"1251";"2014-10-13 14:00:42.743";"NST_correctLoc";"2";"1";"FINISHED";"RIGHT";"success";"313";"0";"2014-10-13 14:00:41.492";"1";;;;;;;;;;;;;;;;;;;;;;;;;;;;;;;;;;;;;;;;;;;;;;;;;;;;;;;;;
"142032";"1992";;"Mac OS X";"Rachel's Experiment (D.T.)";"1.0";"2";"1";"1";"2";"1";"1";"2014-10-13 13:57:46.495";"2014-10-13 14:11:26.143";"1";"0";"0";"49";"48";"module.training_block1.exec-1990.GoNoGo1";;;;;;;;;;;;;;;;;;;;;;;"1250";"2014-10-13 14:00:45.280";"NST_correctLoc";"12";"1";"FINISHED";"RIGHT";"success";"415";"0";"2014-10-13 14:00:44.029";"2";;;;;;;;;;;;;;;;;;;;;;;;;;;;;;;;;;;;;;;;;;;;;;;;;;;;;;;;;
"142032";"1992";;"Mac OS X";"Rachel's Experiment (D.T.)";"1.0";"2";"1";"1";"2";"1";"1";"2014-10-13 13:57:46.495";"2014-10-13 14:11:26.143";"1";"0";"0";"50";"49";"module.training_block1.exec-1990.GoNoGo1";;;;;;;;;;;;;;;;;;;;;;;"1251";"2014-10-13 14:00:47.808";"NST_correctLoc";"27";"1";"FINISHED";"RIGHT";"success";"360";"0";"2014-10-13 14:00:46.556";"3";;;;;;;;;;;;;;;;;;;;;;;;;;;;;;;;;;;;;;;;;;;;;;;;;;;;;;;;;
"142032";"1992";;"Mac OS X";"Rachel's Experiment (D.T.)";"1.0";"2";"1";"1";"2";"1";"1";"2014-10-13 13:57:46.495";"2014-10-13 14:11:26.143";"1";"0";"0";"51";"50";"module.training_block1.exec-1990.GoNoGo1";;;;;;;;;;;;;;;;;;;;;;;"1251";"2014-10-13 14:00:50.339";"NST_correctLoc";"24";"1";"FINISHED";"RIGHT";"success";"365";"0";"2014-10-13 14:00:49.087";"3";;;;;;;;;;;;;;;;;;;;;;;;;;;;;;;;;;;;;;;;;;;;;;;;;;;;;;;;;
"142032";"1992";;"Mac OS X";"Rachel's Experiment (D.T.)";"1.0";"2";"1";"1";"2";"1";"1";"2014-10-13 13:57:46.495";"2014-10-13 14:11:26.143";"1";"0";"0";"52";"51";"module.training_block2.exec-6469.GoNoGo2";;;;;;;;;;;;;;;;;;;;;;;;;;;;;;;;;;;"1251";"2014-10-13 14:01:02.102";"NST_correctLoc";"30";"0";"FINISHED";"LEFT";"success";"704";"0";"2014-10-13 14:01:00.850";"3";;;;;;;;;;;;;;;;;;;;;;;;;;;;;;;;;;;;;;;;;;;;;
"142032";"1992";;"Mac OS X";"Rachel's Experiment (D.T.)";"1.0";"2";"1";"1";"2";"1";"1";"2014-10-13 13:57:46.495";"2014-10-13 14:11:26.143";"1";"0";"0";"53";"52";"module.training_block2.exec-6469.GoNoGo2";;;;;;;;;;;;;;;;;;;;;;;;;;;;;;;;;;;"1251";"2014-10-13 14:01:04.630";"NST_correctLoc";"26";"1";"FINISHED";"RIGHT";"success";"400";"0";"2014-10-13 14:01:03.378";"3";;;;;;;;;;;;;;;;;;;;;;;;;;;;;;;;;;;;;;;;;;;;;
"142032";"1992";;"Mac OS X";"Rachel's Experiment (D.T.)";"1.0";"2";"1";"1";"2";"1";"1";"2014-10-13 13:57:46.495";"2014-10-13 14:11:26.143";"1";"0";"0";"54";"53";"module.training_block2.exec-6469.GoNoGo2";;;;;;;;;;;;;;;;;;;;;;;;;;;;;;;;;;;"1251";"2014-10-13 14:01:07.160";"NST_correctLoc";"21";"0";"FINISHED";"LEFT";"success";"374";"0";"2014-10-13 14:01:05.909";"3";;;;;;;;;;;;;;;;;;;;;;;;;;;;;;;;;;;;;;;;;;;;;
"142032";"1992";;"Mac OS X";"Rachel's Experiment (D.T.)";"1.0";"2";"1";"1";"2";"1";"1";"2014-10-13 13:57:46.495";"2014-10-13 14:11:26.143";"1";"0";"0";"55";"54";"module.training_block2.exec-6469.GoNoGo2";;;;;;;;;;;;;;;;;;;;;;;;;;;;;;;;;;;"1251";"2014-10-13 14:01:09.689";"NST_correctLoc";"10";"1";"FINISHED";"RIGHT";"success";"412";"0";"2014-10-13 14:01:08.438";"2";;;;;;;;;;;;;;;;;;;;;;;;;;;;;;;;;;;;;;;;;;;;;
"142032";"1992";;"Mac OS X";"Rachel's Experiment (D.T.)";"1.0";"2";"1";"1";"2";"1";"1";"2014-10-13 13:57:46.495";"2014-10-13 14:11:26.143";"1";"0";"0";"56";"55";"module.training_block2.exec-6469.GoNoGo2";;;;;;;;;;;;;;;;;;;;;;;;;;;;;;;;;;;"1250";"2014-10-13 14:01:12.214";"NST_correctLoc";"17";"0";"FINISHED";"LEFT";"success";"359";"0";"2014-10-13 14:01:10.964";"2";;;;;;;;;;;;;;;;;;;;;;;;;;;;;;;;;;;;;;;;;;;;;
"142032";"1992";;"Mac OS X";"Rachel's Experiment (D.T.)";"1.0";"2";"1";"1";"2";"1";"1";"2014-10-13 13:57:46.495";"2014-10-13 14:11:26.143";"1";"0";"0";"57";"56";"module.training_block2.exec-6469.GoNoGo2";;;;;;;;;;;;;;;;;;;;;;;;;;;;;;;;;;;"1251";"2014-10-13 14:01:14.744";"NST_correctLoc";"27";"0";"FINISHED";"LEFT";"success";"334";"0";"2014-10-13 14:01:13.492";"3";;;;;;;;;;;;;;;;;;;;;;;;;;;;;;;;;;;;;;;;;;;;;
"142032";"1992";;"Mac OS X";"Rachel's Experiment (D.T.)";"1.0";"2";"1";"1";"2";"1";"1";"2014-10-13 13:57:46.495";"2014-10-13 14:11:26.143";"1";"0";"0";"58";"57";"module.training_block2.exec-6469.GoNoGo2";;;;;;;;;;;;;;;;;;;;;;;;;;;;;;;;;;;"1251";"2014-10-13 14:01:17.270";"NST_correctLoc";"33";"1";"FINISHED";"RIGHT";"success";"319";"0";"2014-10-13 14:01:16.019";"3";;;;;;;;;;;;;;;;;;;;;;;;;;;;;;;;;;;;;;;;;;;;;
"142032";"1992";;"Mac OS X";"Rachel's Experiment (D.T.)";"1.0";"2";"1";"1";"2";"1";"1";"2014-10-13 13:57:46.495";"2014-10-13 14:11:26.143";"1";"0";"0";"59";"58";"module.training_block2.exec-6469.GoNoGo2";;;;;;;;;;;;;;;;;;;;;;;;;;;;;;;;;;;"1250";"2014-10-13 14:01:19.796";"NST_correctLoc";"35";"1";"FINISHED";"RIGHT";"success";"529";"0";"2014-10-13 14:01:18.546";"3";;;;;;;;;;;;;;;;;;;;;;;;;;;;;;;;;;;;;;;;;;;;;
"142032";"1992";;"Mac OS X";"Rachel's Experiment (D.T.)";"1.0";"2";"1";"1";"2";"1";"1";"2014-10-13 13:57:46.495";"2014-10-13 14:11:26.143";"1";"0";"0";"60";"59";"module.training_block2.exec-6469.GoNoGo2";;;;;;;;;;;;;;;;;;;;;;;;;;;;;;;;;;;"1251";"2014-10-13 14:01:22.331";"NST_correctLoc";"9";"1";"FINISHED";"RIGHT";"success";"442";"0";"2014-10-13 14:01:21.080";"2";;;;;;;;;;;;;;;;;;;;;;;;;;;;;;;;;;;;;;;;;;;;;
"142032";"1992";;"Mac OS X";"Rachel's Experiment (D.T.)";"1.0";"2";"1";"1";"2";"1";"1";"2014-10-13 13:57:46.495";"2014-10-13 14:11:26.143";"1";"0";"0";"61";"60";"module.training_block2.exec-6469.GoNoGo2";;;;;;;;;;;;;;;;;;;;;;;;;;;;;;;;;;;"1250";"2014-10-13 14:01:24.857";"NST_correctLoc";"1";"0";"FINISHED";"LEFT";"success";"468";"0";"2014-10-13 14:01:23.606";"1";;;;;;;;;;;;;;;;;;;;;;;;;;;;;;;;;;;;;;;;;;;;;
"142032";"1992";;"Mac OS X";"Rachel's Experiment (D.T.)";"1.0";"2";"1";"1";"2";"1";"1";"2014-10-13 13:57:46.495";"2014-10-13 14:11:26.143";"1";"0";"0";"62";"61";"module.training_block2.exec-6469.GoNoGo2";;;;;;;;;;;;;;;;;;;;;;;;;;;;;;;;;;;"1251";"2014-10-13 14:01:27.387";"NST_correctLoc";"14";"1";"FINISHED";"RIGHT";"success";"483";"0";"2014-10-13 14:01:26.135";"2";;;;;;;;;;;;;;;;;;;;;;;;;;;;;;;;;;;;;;;;;;;;;
"142032";"1992";;"Mac OS X";"Rachel's Experiment (D.T.)";"1.0";"2";"1";"1";"2";"1";"1";"2014-10-13 13:57:46.495";"2014-10-13 14:11:26.143";"1";"0";"0";"63";"62";"module.training_block2.exec-6469.GoNoGo2";;;;;;;;;;;;;;;;;;;;;;;;;;;;;;;;;;;"1250";"2014-10-13 14:01:29.913";"NST_correctLoc";"28";"1";"FINISHED";"RIGHT";"success";"371";"0";"2014-10-13 14:01:28.662";"3";;;;;;;;;;;;;;;;;;;;;;;;;;;;;;;;;;;;;;;;;;;;;
"142032";"1992";;"Mac OS X";"Rachel's Experiment (D.T.)";"1.0";"2";"1";"1";"2";"1";"1";"2014-10-13 13:57:46.495";"2014-10-13 14:11:26.143";"1";"0";"0";"64";"63";"module.training_block2.exec-6469.GoNoGo2";;;;;;;;;;;;;;;;;;;;;;;;;;;;;;;;;;;"1251";"2014-10-13 14:01:32.440";"NST_correctLoc";"20";"0";"FINISHED";"LEFT";"success";"309";"0";"2014-10-13 14:01:31.189";"3";;;;;;;;;;;;;;;;;;;;;;;;;;;;;;;;;;;;;;;;;;;;;
"142032";"1992";;"Mac OS X";"Rachel's Experiment (D.T.)";"1.0";"2";"1";"1";"2";"1";"1";"2014-10-13 13:57:46.495";"2014-10-13 14:11:26.143";"1";"0";"0";"65";"64";"module.training_block2.exec-6469.GoNoGo2";;;;;;;;;;;;;;;;;;;;;;;;;;;;;;;;;;;"1251";"2014-10-13 14:01:34.969";"NST_correctLoc";"31";"1";"FINISHED";"RIGHT";"success";"292";"0";"2014-10-13 14:01:33.718";"3";;;;;;;;;;;;;;;;;;;;;;;;;;;;;;;;;;;;;;;;;;;;;
"142032";"1992";;"Mac OS X";"Rachel's Experiment (D.T.)";"1.0";"2";"1";"1";"2";"1";"1";"2014-10-13 13:57:46.495";"2014-10-13 14:11:26.143";"1";"0";"0";"66";"65";"module.training_block2.exec-6469.GoNoGo2";;;;;;;;;;;;;;;;;;;;;;;;;;;;;;;;;;;"1251";"2014-10-13 14:01:37.496";"NST_correctLoc";"29";"1";"FINISHED";"RIGHT";"success";"365";"0";"2014-10-13 14:01:36.245";"3";;;;;;;;;;;;;;;;;;;;;;;;;;;;;;;;;;;;;;;;;;;;;
"142032";"1992";;"Mac OS X";"Rachel's Experiment (D.T.)";"1.0";"2";"1";"1";"2";"1";"1";"2014-10-13 13:57:46.495";"2014-10-13 14:11:26.143";"1";"0";"0";"67";"66";"module.training_block2.exec-6469.GoNoGo2";;;;;;;;;;;;;;;;;;;;;;;;;;;;;;;;;;;"1250";"2014-10-13 14:01:40.024";"NST_correctLoc";"3";"1";"FINISHED";"RIGHT";"success";"332";"0";"2014-10-13 14:01:38.773";"1";;;;;;;;;;;;;;;;;;;;;;;;;;;;;;;;;;;;;;;;;;;;;
"142032";"1992";;"Mac OS X";"Rachel's Experiment (D.T.)";"1.0";"2";"1";"1";"2";"1";"1";"2014-10-13 13:57:46.495";"2014-10-13 14:11:26.143";"1";"0";"0";"68";"67";"module.training_block2.exec-6469.GoNoGo2";;;;;;;;;;;;;;;;;;;;;;;;;;;;;;;;;;;"1251";"2014-10-13 14:01:42.551";"NST_correctLoc";"18";"1";"FINISHED";"RIGHT";"success";"342";"0";"2014-10-13 14:01:41.299";"3";;;;;;;;;;;;;;;;;;;;;;;;;;;;;;;;;;;;;;;;;;;;;
"142032";"1992";;"Mac OS X";"Rachel's Experiment (D.T.)";"1.0";"2";"1";"1";"2";"1";"1";"2014-10-13 13:57:46.495";"2014-10-13 14:11:26.143";"1";"0";"0";"69";"68";"module.training_block2.exec-6469.GoNoGo2";;;;;;;;;;;;;;;;;;;;;;;;;;;;;;;;;;;"1251";"2014-10-13 14:01:45.079";"NST_correctLoc";"12";"0";"FINISHED";"LEFT";"success";"325";"0";"2014-10-13 14:01:43.828";"2";;;;;;;;;;;;;;;;;;;;;;;;;;;;;;;;;;;;;;;;;;;;;
"142032";"1992";;"Mac OS X";"Rachel's Experiment (D.T.)";"1.0";"2";"1";"1";"2";"1";"1";"2014-10-13 13:57:46.495";"2014-10-13 14:11:26.143";"1";"0";"0";"70";"69";"module.training_block2.exec-6469.GoNoGo2";;;;;;;;;;;;;;;;;;;;;;;;;;;;;;;;;;;"1250";"2014-10-13 14:01:47.605";"NST_correctLoc";"32";"0";"FINISHED";"LEFT";"success";"368";"0";"2014-10-13 14:01:46.354";"3";;;;;;;;;;;;;;;;;;;;;;;;;;;;;;;;;;;;;;;;;;;;;
"142032";"1992";;"Mac OS X";"Rachel's Experiment (D.T.)";"1.0";"2";"1";"1";"2";"1";"1";"2014-10-13 13:57:46.495";"2014-10-13 14:11:26.143";"1";"0";"0";"71";"70";"module.training_block2.exec-6469.GoNoGo2";;;;;;;;;;;;;;;;;;;;;;;;;;;;;;;;;;;"1251";"2014-10-13 14:01:50.132";"NST_correctLoc";"22";"0";"FINISHED";"LEFT";"success";"385";"0";"2014-10-13 14:01:48.880";"3";;;;;;;;;;;;;;;;;;;;;;;;;;;;;;;;;;;;;;;;;;;;;
"142032";"1992";;"Mac OS X";"Rachel's Experiment (D.T.)";"1.0";"2";"1";"1";"2";"1";"1";"2014-10-13 13:57:46.495";"2014-10-13 14:11:26.143";"1";"0";"0";"72";"71";"module.training_block2.exec-6469.GoNoGo2";;;;;;;;;;;;;;;;;;;;;;;;;;;;;;;;;;;"1250";"2014-10-13 14:01:52.658";"NST_correctLoc";"16";"0";"FINISHED";"LEFT";"success";"361";"0";"2014-10-13 14:01:51.407";"2";;;;;;;;;;;;;;;;;;;;;;;;;;;;;;;;;;;;;;;;;;;;;
"142032";"1992";;"Mac OS X";"Rachel's Experiment (D.T.)";"1.0";"2";"1";"1";"2";"1";"1";"2014-10-13 13:57:46.495";"2014-10-13 14:11:26.143";"1";"0";"0";"73";"72";"module.training_block2.exec-6469.GoNoGo2";;;;;;;;;;;;;;;;;;;;;;;;;;;;;;;;;;;"1250";"2014-10-13 14:01:55.182";"NST_correctLoc";"6";"1";"FINISHED";"RIGHT";"success";"446";"0";"2014-10-13 14:01:53.931";"1";;;;;;;;;;;;;;;;;;;;;;;;;;;;;;;;;;;;;;;;;;;;;
"142032";"1992";;"Mac OS X";"Rachel's Experiment (D.T.)";"1.0";"2";"1";"1";"2";"1";"1";"2014-10-13 13:57:46.495";"2014-10-13 14:11:26.143";"1";"0";"0";"74";"73";"module.training_block2.exec-6469.GoNoGo2";;;;;;;;;;;;;;;;;;;;;;;;;;;;;;;;;;;"1251";"2014-10-13 14:01:57.713";"NST_correctLoc";"11";"1";"FINISHED";"RIGHT";"success";"499";"0";"2014-10-13 14:01:56.462";"2";;;;;;;;;;;;;;;;;;;;;;;;;;;;;;;;;;;;;;;;;;;;;
"142032";"1992";;"Mac OS X";"Rachel's Experiment (D.T.)";"1.0";"2";"1";"1";"2";"1";"1";"2014-10-13 13:57:46.495";"2014-10-13 14:11:26.143";"1";"0";"0";"75";"74";"module.training_block2.exec-6469.GoNoGo2";;;;;;;;;;;;;;;;;;;;;;;;;;;;;;;;;;;"1251";"2014-10-13 14:02:00.243";"NST_correctLoc";"8";"1";"FINISHED";"RIGHT";"success";"498";"0";"2014-10-13 14:01:58.991";"1";;;;;;;;;;;;;;;;;;;;;;;;;;;;;;;;;;;;;;;;;;;;;
"142032";"1992";;"Mac OS X";"Rachel's Experiment (D.T.)";"1.0";"2";"1";"1";"2";"1";"1";"2014-10-13 13:57:46.495";"2014-10-13 14:11:26.143";"1";"0";"0";"76";"75";"module.training_block2.exec-6469.GoNoGo2";;;;;;;;;;;;;;;;;;;;;;;;;;;;;;;;;;;"1250";"2014-10-13 14:02:02.769";"NST_correctLoc";"23";"1";"FINISHED";"RIGHT";"success";"435";"0";"2014-10-13 14:02:01.518";"3";;;;;;;;;;;;;;;;;;;;;;;;;;;;;;;;;;;;;;;;;;;;;
"142032";"1992";;"Mac OS X";"Rachel's Experiment (D.T.)";"1.0";"2";"1";"1";"2";"1";"1";"2014-10-13 13:57:46.495";"2014-10-13 14:11:26.143";"1";"0";"0";"77";"76";"module.training_block2.exec-6469.GoNoGo2";;;;;;;;;;;;;;;;;;;;;;;;;;;;;;;;;;;"1251";"2014-10-13 14:02:05.295";"NST_wrongLoc";"4";"0";"FINISHED";"RIGHT";"failure";"653";"0";"2014-10-13 14:02:04.044";"1";;;;;;;;;;;;;;;;;;;;;;;;;;;;;;;;;;;;;;;;;;;;;
"142032";"1992";;"Mac OS X";"Rachel's Experiment (D.T.)";"1.0";"2";"1";"1";"2";"1";"1";"2014-10-13 13:57:46.495";"2014-10-13 14:11:26.143";"1";"0";"0";"78";"77";"module.training_block2.exec-6469.GoNoGo2";;;;;;;;;;;;;;;;;;;;;;;;;;;;;;;;;;;"1250";"2014-10-13 14:02:07.820";"NST_correctLoc";"19";"0";"FINISHED";"LEFT";"success";"576";"0";"2014-10-13 14:02:06.569";"3";;;;;;;;;;;;;;;;;;;;;;;;;;;;;;;;;;;;;;;;;;;;;
"142032";"1992";;"Mac OS X";"Rachel's Experiment (D.T.)";"1.0";"2";"1";"1";"2";"1";"1";"2014-10-13 13:57:46.495";"2014-10-13 14:11:26.143";"1";"0";"0";"79";"78";"module.training_block2.exec-6469.GoNoGo2";;;;;;;;;;;;;;;;;;;;;;;;;;;;;;;;;;;"1250";"2014-10-13 14:02:10.344";"NST_correctLoc";"15";"0";"FINISHED";"LEFT";"success";"395";"0";"2014-10-13 14:02:09.094";"2";;;;;;;;;;;;;;;;;;;;;;;;;;;;;;;;;;;;;;;;;;;;;
"142032";"1992";;"Mac OS X";"Rachel's Experiment (D.T.)";"1.0";"2";"1";"1";"2";"1";"1";"2014-10-13 13:57:46.495";"2014-10-13 14:11:26.143";"1";"0";"0";"80";"79";"module.training_block2.exec-6469.GoNoGo2";;;;;;;;;;;;;;;;;;;;;;;;;;;;;;;;;;;"1250";"2014-10-13 14:02:12.872";"NST_correctLoc";"13";"0";"FINISHED";"LEFT";"success";"324";"0";"2014-10-13 14:02:11.621";"2";;;;;;;;;;;;;;;;;;;;;;;;;;;;;;;;;;;;;;;;;;;;;
"142032";"1992";;"Mac OS X";"Rachel's Experiment (D.T.)";"1.0";"2";"1";"1";"2";"1";"1";"2014-10-13 13:57:46.495";"2014-10-13 14:11:26.143";"1";"0";"0";"81";"80";"module.training_block2.exec-6469.GoNoGo2";;;;;;;;;;;;;;;;;;;;;;;;;;;;;;;;;;;"1250";"2014-10-13 14:02:15.396";"NST_correctLoc";"34";"0";"FINISHED";"LEFT";"success";"319";"0";"2014-10-13 14:02:14.145";"3";;;;;;;;;;;;;;;;;;;;;;;;;;;;;;;;;;;;;;;;;;;;;
"142032";"1992";;"Mac OS X";"Rachel's Experiment (D.T.)";"1.0";"2";"1";"1";"2";"1";"1";"2014-10-13 13:57:46.495";"2014-10-13 14:11:26.143";"1";"0";"0";"82";"81";"module.training_block2.exec-6469.GoNoGo2";;;;;;;;;;;;;;;;;;;;;;;;;;;;;;;;;;;"1251";"2014-10-13 14:02:17.921";"NST_correctLoc";"7";"1";"FINISHED";"RIGHT";"success";"331";"0";"2014-10-13 14:02:16.669";"1";;;;;;;;;;;;;;;;;;;;;;;;;;;;;;;;;;;;;;;;;;;;;
"142032";"1992";;"Mac OS X";"Rachel's Experiment (D.T.)";"1.0";"2";"1";"1";"2";"1";"1";"2014-10-13 13:57:46.495";"2014-10-13 14:11:26.143";"1";"0";"0";"83";"82";"module.training_block2.exec-6469.GoNoGo2";;;;;;;;;;;;;;;;;;;;;;;;;;;;;;;;;;;"1250";"2014-10-13 14:02:20.445";"NST_correctLoc";"24";"0";"FINISHED";"LEFT";"success";"302";"0";"2014-10-13 14:02:19.195";"3";;;;;;;;;;;;;;;;;;;;;;;;;;;;;;;;;;;;;;;;;;;;;
"142032";"1992";;"Mac OS X";"Rachel's Experiment (D.T.)";"1.0";"2";"1";"1";"2";"1";"1";"2014-10-13 13:57:46.495";"2014-10-13 14:11:26.143";"1";"0";"0";"84";"83";"module.training_block2.exec-6469.GoNoGo2";;;;;;;;;;;;;;;;;;;;;;;;;;;;;;;;;;;"1250";"2014-10-13 14:02:22.968";"NST_correctLoc";"2";"0";"FINISHED";"LEFT";"success";"346";"0";"2014-10-13 14:02:21.718";"1";;;;;;;;;;;;;;;;;;;;;;;;;;;;;;;;;;;;;;;;;;;;;
"142032";"1992";;"Mac OS X";"Rachel's Experiment (D.T.)";"1.0";"2";"1";"1";"2";"1";"1";"2014-10-13 13:57:46.495";"2014-10-13 14:11:26.143";"1";"0";"0";"85";"84";"module.training_block2.exec-6469.GoNoGo2";;;;;;;;;;;;;;;;;;;;;;;;;;;;;;;;;;;"1251";"2014-10-13 14:02:25.494";"NST_correctLoc";"25";"0";"FINISHED";"LEFT";"success";"310";"0";"2014-10-13 14:02:24.242";"3";;;;;;;;;;;;;;;;;;;;;;;;;;;;;;;;;;;;;;;;;;;;;
"142032";"1992";;"Mac OS X";"Rachel's Experiment (D.T.)";"1.0";"2";"1";"1";"2";"1";"1";"2014-10-13 13:57:46.495";"2014-10-13 14:11:26.143";"1";"0";"0";"86";"85";"module.training_block2.exec-6469.GoNoGo2";;;;;;;;;;;;;;;;;;;;;;;;;;;;;;;;;;;"1250";"2014-10-13 14:02:28.019";"NST_correctLoc";"5";"0";"FINISHED";"LEFT";"success";"392";"0";"2014-10-13 14:02:26.768";"1";;;;;;;;;;;;;;;;;;;;;;;;;;;;;;;;;;;;;;;;;;;;;
"142032";"1992";;"Mac OS X";"Rachel's Experiment (D.T.)";"1.0";"2";"1";"1";"2";"1";"1";"2014-10-13 13:57:46.495";"2014-10-13 14:11:26.143";"1";"0";"0";"87";"86";"module.training_block2.exec-6469.GoNoGo2";;;;;;;;;;;;;;;;;;;;;;;;;;;;;;;;;;;"1250";"2014-10-13 14:02:30.543";"NST_correctLoc";"0";"1";"FINISHED";"RIGHT";"success";"348";"0";"2014-10-13 14:02:29.292";"1";;;;;;;;;;;;;;;;;;;;;;;;;;;;;;;;;;;;;;;;;;;;;
"142032";"1992";;"Mac OS X";"Rachel's Experiment (D.T.)";"1.0";"2";"1";"1";"2";"1";"1";"2014-10-13 13:57:46.495";"2014-10-13 14:11:26.143";"1";"0";"0";"88";"87";"module.training_block3.exec-7753.GoNoGo3";;;;;;;;;;;;;;;;;;;;;;;;;;;;;;;;;;;;;;;;;;;;;;;"1250";"2014-10-13 14:02:41.474";"NST_correctLoc";"35";"0";"FINISHED";"LEFT";"success";"423";"0";"2014-10-13 14:02:40.224";"3";;;;;;;;;;;;;;;;;;;;;;;;;;;;;;;;;
"142032";"1992";;"Mac OS X";"Rachel's Experiment (D.T.)";"1.0";"2";"1";"1";"2";"1";"1";"2014-10-13 13:57:46.495";"2014-10-13 14:11:26.143";"1";"0";"0";"89";"88";"module.training_block3.exec-7753.GoNoGo3";;;;;;;;;;;;;;;;;;;;;;;;;;;;;;;;;;;;;;;;;;;;;;;"1250";"2014-10-13 14:02:44.001";"NST_correctLoc";"1";"0";"FINISHED";"LEFT";"success";"432";"0";"2014-10-13 14:02:42.750";"1";;;;;;;;;;;;;;;;;;;;;;;;;;;;;;;;;
"142032";"1992";;"Mac OS X";"Rachel's Experiment (D.T.)";"1.0";"2";"1";"1";"2";"1";"1";"2014-10-13 13:57:46.495";"2014-10-13 14:11:26.143";"1";"0";"0";"90";"89";"module.training_block3.exec-7753.GoNoGo3";;;;;;;;;;;;;;;;;;;;;;;;;;;;;;;;;;;;;;;;;;;;;;;"1251";"2014-10-13 14:02:46.524";"NST_correctLoc";"13";"0";"FINISHED";"LEFT";"success";"365";"0";"2014-10-13 14:02:45.273";"2";;;;;;;;;;;;;;;;;;;;;;;;;;;;;;;;;
"142032";"1992";;"Mac OS X";"Rachel's Experiment (D.T.)";"1.0";"2";"1";"1";"2";"1";"1";"2014-10-13 13:57:46.495";"2014-10-13 14:11:26.143";"1";"0";"0";"91";"90";"module.training_block3.exec-7753.GoNoGo3";;;;;;;;;;;;;;;;;;;;;;;;;;;;;;;;;;;;;;;;;;;;;;;"1251";"2014-10-13 14:02:49.049";"NST_correctLoc";"31";"1";"FINISHED";"RIGHT";"success";"329";"0";"2014-10-13 14:02:47.798";"3";;;;;;;;;;;;;;;;;;;;;;;;;;;;;;;;;
"142032";"1992";;"Mac OS X";"Rachel's Experiment (D.T.)";"1.0";"2";"1";"1";"2";"1";"1";"2014-10-13 13:57:46.495";"2014-10-13 14:11:26.143";"1";"0";"0";"92";"91";"module.training_block3.exec-7753.GoNoGo3";;;;;;;;;;;;;;;;;;;;;;;;;;;;;;;;;;;;;;;;;;;;;;;"1250";"2014-10-13 14:02:51.579";"NST_correctLoc";"22";"0";"FINISHED";"LEFT";"success";"357";"0";"2014-10-13 14:02:50.329";"3";;;;;;;;;;;;;;;;;;;;;;;;;;;;;;;;;
"142032";"1992";;"Mac OS X";"Rachel's Experiment (D.T.)";"1.0";"2";"1";"1";"2";"1";"1";"2014-10-13 13:57:46.495";"2014-10-13 14:11:26.143";"1";"0";"0";"93";"92";"module.training_block3.exec-7753.GoNoGo3";;;;;;;;;;;;;;;;;;;;;;;;;;;;;;;;;;;;;;;;;;;;;;;"1250";"2014-10-13 14:02:54.100";"NST_correctLoc";"14";"1";"FINISHED";"RIGHT";"success";"429";"0";"2014-10-13 14:02:52.849";"2";;;;;;;;;;;;;;;;;;;;;;;;;;;;;;;;;
"142032";"1992";;"Mac OS X";"Rachel's Experiment (D.T.)";"1.0";"2";"1";"1";"2";"1";"1";"2014-10-13 13:57:46.495";"2014-10-13 14:11:26.143";"1";"0";"0";"94";"93";"module.training_block3.exec-7753.GoNoGo3";;;;;;;;;;;;;;;;;;;;;;;;;;;;;;;;;;;;;;;;;;;;;;;"1251";"2014-10-13 14:02:56.627";"NST_correctLoc";"32";"1";"FINISHED";"RIGHT";"success";"391";"0";"2014-10-13 14:02:55.375";"3";;;;;;;;;;;;;;;;;;;;;;;;;;;;;;;;;
"142032";"1992";;"Mac OS X";"Rachel's Experiment (D.T.)";"1.0";"2";"1";"1";"2";"1";"1";"2014-10-13 13:57:46.495";"2014-10-13 14:11:26.143";"1";"0";"0";"95";"94";"module.training_block3.exec-7753.GoNoGo3";;;;;;;;;;;;;;;;;;;;;;;;;;;;;;;;;;;;;;;;;;;;;;;"1251";"2014-10-13 14:02:59.152";"NST_correctLoc";"17";"0";"FINISHED";"LEFT";"success";"569";"0";"2014-10-13 14:02:57.901";"2";;;;;;;;;;;;;;;;;;;;;;;;;;;;;;;;;
"142032";"1992";;"Mac OS X";"Rachel's Experiment (D.T.)";"1.0";"2";"1";"1";"2";"1";"1";"2014-10-13 13:57:46.495";"2014-10-13 14:11:26.143";"1";"0";"0";"96";"95";"module.training_block3.exec-7753.GoNoGo3";;;;;;;;;;;;;;;;;;;;;;;;;;;;;;;;;;;;;;;;;;;;;;;"1249";"2014-10-13 14:03:01.680";"NST_correctLoc";"19";"1";"FINISHED";"RIGHT";"success";"583";"0";"2014-10-13 14:03:00.430";"3";;;;;;;;;;;;;;;;;;;;;;;;;;;;;;;;;
"142032";"1992";;"Mac OS X";"Rachel's Experiment (D.T.)";"1.0";"2";"1";"1";"2";"1";"1";"2014-10-13 13:57:46.495";"2014-10-13 14:11:26.143";"1";"0";"0";"97";"96";"module.training_block3.exec-7753.GoNoGo3";;;;;;;;;;;;;;;;;;;;;;;;;;;;;;;;;;;;;;;;;;;;;;;"1250";"2014-10-13 14:03:04.200";"NST_wrongLoc";"24";"1";"FINISHED";"LEFT";"failure";"464";"0";"2014-10-13 14:03:02.950";"3";;;;;;;;;;;;;;;;;;;;;;;;;;;;;;;;;
"142032";"1992";;"Mac OS X";"Rachel's Experiment (D.T.)";"1.0";"2";"1";"1";"2";"1";"1";"2014-10-13 13:57:46.495";"2014-10-13 14:11:26.143";"1";"0";"0";"98";"97";"module.training_block3.exec-7753.GoNoGo3";;;;;;;;;;;;;;;;;;;;;;;;;;;;;;;;;;;;;;;;;;;;;;;"1250";"2014-10-13 14:03:06.724";"NST_correctLoc";"28";"0";"FINISHED";"LEFT";"success";"316";"0";"2014-10-13 14:03:05.474";"3";;;;;;;;;;;;;;;;;;;;;;;;;;;;;;;;;
"142032";"1992";;"Mac OS X";"Rachel's Experiment (D.T.)";"1.0";"2";"1";"1";"2";"1";"1";"2014-10-13 13:57:46.495";"2014-10-13 14:11:26.143";"1";"0";"0";"99";"98";"module.training_block3.exec-7753.GoNoGo3";;;;;;;;;;;;;;;;;;;;;;;;;;;;;;;;;;;;;;;;;;;;;;;"1251";"2014-10-13 14:03:09.249";"NST_correctLoc";"34";"0";"FINISHED";"LEFT";"success";"392";"0";"2014-10-13 14:03:07.997";"3";;;;;;;;;;;;;;;;;;;;;;;;;;;;;;;;;
"142032";"1992";;"Mac OS X";"Rachel's Experiment (D.T.)";"1.0";"2";"1";"1";"2";"1";"1";"2014-10-13 13:57:46.495";"2014-10-13 14:11:26.143";"1";"0";"0";"100";"99";"module.training_block3.exec-7753.GoNoGo3";;;;;;;;;;;;;;;;;;;;;;;;;;;;;;;;;;;;;;;;;;;;;;;"1251";"2014-10-13 14:03:11.772";"NST_correctLoc";"9";"1";"FINISHED";"RIGHT";"success";"325";"0";"2014-10-13 14:03:10.521";"2";;;;;;;;;;;;;;;;;;;;;;;;;;;;;;;;;
"142032";"1992";;"Mac OS X";"Rachel's Experiment (D.T.)";"1.0";"2";"1";"1";"2";"1";"1";"2014-10-13 13:57:46.495";"2014-10-13 14:11:26.143";"1";"0";"0";"101";"100";"module.training_block3.exec-7753.GoNoGo3";;;;;;;;;;;;;;;;;;;;;;;;;;;;;;;;;;;;;;;;;;;;;;;"1250";"2014-10-13 14:03:14.293";"NST_correctLoc";"15";"0";"FINISHED";"LEFT";"success";"443";"0";"2014-10-13 14:03:13.043";"2";;;;;;;;;;;;;;;;;;;;;;;;;;;;;;;;;
"142032";"1992";;"Mac OS X";"Rachel's Experiment (D.T.)";"1.0";"2";"1";"1";"2";"1";"1";"2014-10-13 13:57:46.495";"2014-10-13 14:11:26.143";"1";"0";"0";"102";"101";"module.training_block3.exec-7753.GoNoGo3";;;;;;;;;;;;;;;;;;;;;;;;;;;;;;;;;;;;;;;;;;;;;;;"1250";"2014-10-13 14:03:16.814";"NST_correctLoc";"2";"0";"FINISHED";"LEFT";"success";"426";"0";"2014-10-13 14:03:15.563";"1";;;;;;;;;;;;;;;;;;;;;;;;;;;;;;;;;
"142032";"1992";;"Mac OS X";"Rachel's Experiment (D.T.)";"1.0";"2";"1";"1";"2";"1";"1";"2014-10-13 13:57:46.495";"2014-10-13 14:11:26.143";"1";"0";"0";"103";"102";"module.training_block3.exec-7753.GoNoGo3";;;;;;;;;;;;;;;;;;;;;;;;;;;;;;;;;;;;;;;;;;;;;;;"1251";"2014-10-13 14:03:19.337";"NST_correctLoc";"7";"0";"FINISHED";"LEFT";"success";"415";"0";"2014-10-13 14:03:18.086";"1";;;;;;;;;;;;;;;;;;;;;;;;;;;;;;;;;
"142032";"1992";;"Mac OS X";"Rachel's Experiment (D.T.)";"1.0";"2";"1";"1";"2";"1";"1";"2014-10-13 13:57:46.495";"2014-10-13 14:11:26.143";"1";"0";"0";"104";"103";"module.training_block3.exec-7753.GoNoGo3";;;;;;;;;;;;;;;;;;;;;;;;;;;;;;;;;;;;;;;;;;;;;;;"1250";"2014-10-13 14:03:21.860";"NST_correctLoc";"18";"0";"FINISHED";"LEFT";"success";"411";"0";"2014-10-13 14:03:20.610";"3";;;;;;;;;;;;;;;;;;;;;;;;;;;;;;;;;
"142032";"1992";;"Mac OS X";"Rachel's Experiment (D.T.)";"1.0";"2";"1";"1";"2";"1";"1";"2014-10-13 13:57:46.495";"2014-10-13 14:11:26.143";"1";"0";"0";"105";"104";"module.training_block3.exec-7753.GoNoGo3";;;;;;;;;;;;;;;;;;;;;;;;;;;;;;;;;;;;;;;;;;;;;;;"1251";"2014-10-13 14:03:24.386";"NST_correctLoc";"21";"0";"FINISHED";"LEFT";"success";"375";"0";"2014-10-13 14:03:23.134";"3";;;;;;;;;;;;;;;;;;;;;;;;;;;;;;;;;
"142032";"1992";;"Mac OS X";"Rachel's Experiment (D.T.)";"1.0";"2";"1";"1";"2";"1";"1";"2014-10-13 13:57:46.495";"2014-10-13 14:11:26.143";"1";"0";"0";"106";"105";"module.training_block3.exec-7753.GoNoGo3";;;;;;;;;;;;;;;;;;;;;;;;;;;;;;;;;;;;;;;;;;;;;;;"1250";"2014-10-13 14:03:26.908";"NST_correctLoc";"29";"1";"FINISHED";"RIGHT";"success";"268";"0";"2014-10-13 14:03:25.657";"3";;;;;;;;;;;;;;;;;;;;;;;;;;;;;;;;;
"142032";"1992";;"Mac OS X";"Rachel's Experiment (D.T.)";"1.0";"2";"1";"1";"2";"1";"1";"2014-10-13 13:57:46.495";"2014-10-13 14:11:26.143";"1";"0";"0";"107";"106";"module.training_block3.exec-7753.GoNoGo3";;;;;;;;;;;;;;;;;;;;;;;;;;;;;;;;;;;;;;;;;;;;;;;"1250";"2014-10-13 14:03:29.432";"NST_correctLoc";"11";"0";"FINISHED";"LEFT";"success";"376";"0";"2014-10-13 14:03:28.181";"2";;;;;;;;;;;;;;;;;;;;;;;;;;;;;;;;;
"142032";"1992";;"Mac OS X";"Rachel's Experiment (D.T.)";"1.0";"2";"1";"1";"2";"1";"1";"2014-10-13 13:57:46.495";"2014-10-13 14:11:26.143";"1";"0";"0";"108";"107";"module.training_block3.exec-7753.GoNoGo3";;;;;;;;;;;;;;;;;;;;;;;;;;;;;;;;;;;;;;;;;;;;;;;"1250";"2014-10-13 14:03:31.954";"NST_correctLoc";"5";"1";"FINISHED";"RIGHT";"success";"462";"0";"2014-10-13 14:03:30.703";"1";;;;;;;;;;;;;;;;;;;;;;;;;;;;;;;;;
"142032";"1992";;"Mac OS X";"Rachel's Experiment (D.T.)";"1.0";"2";"1";"1";"2";"1";"1";"2014-10-13 13:57:46.495";"2014-10-13 14:11:26.143";"1";"0";"0";"109";"108";"module.training_block3.exec-7753.GoNoGo3";;;;;;;;;;;;;;;;;;;;;;;;;;;;;;;;;;;;;;;;;;;;;;;"1250";"2014-10-13 14:03:34.476";"NST_correctLoc";"4";"1";"FINISHED";"RIGHT";"success";"579";"0";"2014-10-13 14:03:33.226";"1";;;;;;;;;;;;;;;;;;;;;;;;;;;;;;;;;
"142032";"1992";;"Mac OS X";"Rachel's Experiment (D.T.)";"1.0";"2";"1";"1";"2";"1";"1";"2014-10-13 13:57:46.495";"2014-10-13 14:11:26.143";"1";"0";"0";"110";"109";"module.training_block3.exec-7753.GoNoGo3";;;;;;;;;;;;;;;;;;;;;;;;;;;;;;;;;;;;;;;;;;;;;;;"1251";"2014-10-13 14:03:36.998";"NST_correctLoc";"16";"0";"FINISHED";"LEFT";"success";"378";"0";"2014-10-13 14:03:35.746";"2";;;;;;;;;;;;;;;;;;;;;;;;;;;;;;;;;
"142032";"1992";;"Mac OS X";"Rachel's Experiment (D.T.)";"1.0";"2";"1";"1";"2";"1";"1";"2014-10-13 13:57:46.495";"2014-10-13 14:11:26.143";"1";"0";"0";"111";"110";"module.training_block3.exec-7753.GoNoGo3";;;;;;;;;;;;;;;;;;;;;;;;;;;;;;;;;;;;;;;;;;;;;;;"1251";"2014-10-13 14:03:39.526";"NST_correctLoc";"10";"1";"FINISHED";"RIGHT";"success";"578";"0";"2014-10-13 14:03:38.275";"2";;;;;;;;;;;;;;;;;;;;;;;;;;;;;;;;;
"142032";"1992";;"Mac OS X";"Rachel's Experiment (D.T.)";"1.0";"2";"1";"1";"2";"1";"1";"2014-10-13 13:57:46.495";"2014-10-13 14:11:26.143";"1";"0";"0";"112";"111";"module.training_block3.exec-7753.GoNoGo3";;;;;;;;;;;;;;;;;;;;;;;;;;;;;;;;;;;;;;;;;;;;;;;"1251";"2014-10-13 14:03:42.053";"NST_correctLoc";"3";"0";"FINISHED";"LEFT";"success";"443";"0";"2014-10-13 14:03:40.802";"1";;;;;;;;;;;;;;;;;;;;;;;;;;;;;;;;;
"142032";"1992";;"Mac OS X";"Rachel's Experiment (D.T.)";"1.0";"2";"1";"1";"2";"1";"1";"2014-10-13 13:57:46.495";"2014-10-13 14:11:26.143";"1";"0";"0";"113";"112";"module.training_block3.exec-7753.GoNoGo3";;;;;;;;;;;;;;;;;;;;;;;;;;;;;;;;;;;;;;;;;;;;;;;"1251";"2014-10-13 14:03:44.583";"NST_correctLoc";"30";"0";"FINISHED";"LEFT";"success";"513";"0";"2014-10-13 14:03:43.332";"3";;;;;;;;;;;;;;;;;;;;;;;;;;;;;;;;;
"142032";"1992";;"Mac OS X";"Rachel's Experiment (D.T.)";"1.0";"2";"1";"1";"2";"1";"1";"2014-10-13 13:57:46.495";"2014-10-13 14:11:26.143";"1";"0";"0";"114";"113";"module.training_block3.exec-7753.GoNoGo3";;;;;;;;;;;;;;;;;;;;;;;;;;;;;;;;;;;;;;;;;;;;;;;"1251";"2014-10-13 14:03:47.107";"NST_correctLoc";"0";"0";"FINISHED";"LEFT";"success";"428";"0";"2014-10-13 14:03:45.856";"1";;;;;;;;;;;;;;;;;;;;;;;;;;;;;;;;;
"142032";"1992";;"Mac OS X";"Rachel's Experiment (D.T.)";"1.0";"2";"1";"1";"2";"1";"1";"2014-10-13 13:57:46.495";"2014-10-13 14:11:26.143";"1";"0";"0";"115";"114";"module.training_block3.exec-7753.GoNoGo3";;;;;;;;;;;;;;;;;;;;;;;;;;;;;;;;;;;;;;;;;;;;;;;"1251";"2014-10-13 14:03:49.630";"NST_correctLoc";"6";"0";"FINISHED";"LEFT";"success";"602";"0";"2014-10-13 14:03:48.379";"1";;;;;;;;;;;;;;;;;;;;;;;;;;;;;;;;;
"142032";"1992";;"Mac OS X";"Rachel's Experiment (D.T.)";"1.0";"2";"1";"1";"2";"1";"1";"2014-10-13 13:57:46.495";"2014-10-13 14:11:26.143";"1";"0";"0";"116";"115";"module.training_block3.exec-7753.GoNoGo3";;;;;;;;;;;;;;;;;;;;;;;;;;;;;;;;;;;;;;;;;;;;;;;"1250";"2014-10-13 14:03:52.153";"NST_correctLoc";"23";"1";"FINISHED";"RIGHT";"success";"445";"0";"2014-10-13 14:03:50.903";"3";;;;;;;;;;;;;;;;;;;;;;;;;;;;;;;;;
"142032";"1992";;"Mac OS X";"Rachel's Experiment (D.T.)";"1.0";"2";"1";"1";"2";"1";"1";"2014-10-13 13:57:46.495";"2014-10-13 14:11:26.143";"1";"0";"0";"117";"116";"module.training_block3.exec-7753.GoNoGo3";;;;;;;;;;;;;;;;;;;;;;;;;;;;;;;;;;;;;;;;;;;;;;;"1251";"2014-10-13 14:03:54.675";"NST_correctLoc";"8";"1";"FINISHED";"RIGHT";"success";"437";"0";"2014-10-13 14:03:53.424";"1";;;;;;;;;;;;;;;;;;;;;;;;;;;;;;;;;
"142032";"1992";;"Mac OS X";"Rachel's Experiment (D.T.)";"1.0";"2";"1";"1";"2";"1";"1";"2014-10-13 13:57:46.495";"2014-10-13 14:11:26.143";"1";"0";"0";"118";"117";"module.training_block3.exec-7753.GoNoGo3";;;;;;;;;;;;;;;;;;;;;;;;;;;;;;;;;;;;;;;;;;;;;;;"1250";"2014-10-13 14:03:57.196";"NST_correctLoc";"20";"0";"FINISHED";"LEFT";"success";"323";"0";"2014-10-13 14:03:55.945";"3";;;;;;;;;;;;;;;;;;;;;;;;;;;;;;;;;
"142032";"1992";;"Mac OS X";"Rachel's Experiment (D.T.)";"1.0";"2";"1";"1";"2";"1";"1";"2014-10-13 13:57:46.495";"2014-10-13 14:11:26.143";"1";"0";"0";"119";"118";"module.training_block3.exec-7753.GoNoGo3";;;;;;;;;;;;;;;;;;;;;;;;;;;;;;;;;;;;;;;;;;;;;;;"1250";"2014-10-13 14:03:59.718";"NST_correctLoc";"27";"1";"FINISHED";"RIGHT";"success";"456";"0";"2014-10-13 14:03:58.468";"3";;;;;;;;;;;;;;;;;;;;;;;;;;;;;;;;;
"142032";"1992";;"Mac OS X";"Rachel's Experiment (D.T.)";"1.0";"2";"1";"1";"2";"1";"1";"2014-10-13 13:57:46.495";"2014-10-13 14:11:26.143";"1";"0";"0";"120";"119";"module.training_block3.exec-7753.GoNoGo3";;;;;;;;;;;;;;;;;;;;;;;;;;;;;;;;;;;;;;;;;;;;;;;"1250";"2014-10-13 14:04:02.242";"NST_correctLoc";"33";"1";"FINISHED";"RIGHT";"success";"357";"0";"2014-10-13 14:04:00.991";"3";;;;;;;;;;;;;;;;;;;;;;;;;;;;;;;;;
"142032";"1992";;"Mac OS X";"Rachel's Experiment (D.T.)";"1.0";"2";"1";"1";"2";"1";"1";"2014-10-13 13:57:46.495";"2014-10-13 14:11:26.143";"1";"0";"0";"121";"120";"module.training_block3.exec-7753.GoNoGo3";;;;;;;;;;;;;;;;;;;;;;;;;;;;;;;;;;;;;;;;;;;;;;;"1250";"2014-10-13 14:04:04.769";"NST_correctLoc";"12";"1";"FINISHED";"RIGHT";"success";"397";"0";"2014-10-13 14:04:03.518";"2";;;;;;;;;;;;;;;;;;;;;;;;;;;;;;;;;
"142032";"1992";;"Mac OS X";"Rachel's Experiment (D.T.)";"1.0";"2";"1";"1";"2";"1";"1";"2014-10-13 13:57:46.495";"2014-10-13 14:11:26.143";"1";"0";"0";"122";"121";"module.training_block3.exec-7753.GoNoGo3";;;;;;;;;;;;;;;;;;;;;;;;;;;;;;;;;;;;;;;;;;;;;;;"1251";"2014-10-13 14:04:07.296";"NST_correctLoc";"26";"1";"FINISHED";"RIGHT";"success";"415";"0";"2014-10-13 14:04:06.045";"3";;;;;;;;;;;;;;;;;;;;;;;;;;;;;;;;;
"142032";"1992";;"Mac OS X";"Rachel's Experiment (D.T.)";"1.0";"2";"1";"1";"2";"1";"1";"2014-10-13 13:57:46.495";"2014-10-13 14:11:26.143";"1";"0";"0";"123";"122";"module.training_block3.exec-7753.GoNoGo3";;;;;;;;;;;;;;;;;;;;;;;;;;;;;;;;;;;;;;;;;;;;;;;"1251";"2014-10-13 14:04:09.818";"NST_wrongLoc";"25";"0";"FINISHED";"RIGHT";"failure";"413";"0";"2014-10-13 14:04:08.567";"3";;;;;;;;;;;;;;;;;;;;;;;;;;;;;;;;;
"142032";"1992";;"Mac OS X";"Rachel's Experiment (D.T.)";"1.0";"2";"1";"1";"2";"1";"1";"2014-10-13 13:57:46.495";"2014-10-13 14:11:26.143";"1";"0";"0";"124";"123";"module.training_block4.exec-3467.GoNoGo4";;;;;;;;;;;;;;;;;;;;;;;;;;;;;;;;;;;;;;;;;;;;;;;;;;;;;;;;;;;"1250";"2014-10-13 14:04:21.167";"NST_miss";"14";"1";"FINISHED";"NONE";"failure";"0";"0";"2014-10-13 14:04:19.916";"2";;;;;;;;;;;;;;;;;;;;;
"142032";"1992";;"Mac OS X";"Rachel's Experiment (D.T.)";"1.0";"2";"1";"1";"2";"1";"1";"2014-10-13 13:57:46.495";"2014-10-13 14:11:26.143";"1";"0";"0";"125";"124";"module.training_block4.exec-3467.GoNoGo4";;;;;;;;;;;;;;;;;;;;;;;;;;;;;;;;;;;;;;;;;;;;;;;;;;;;;;;;;;;"1251";"2014-10-13 14:04:23.690";"NST_correctLoc";"3";"0";"FINISHED";"LEFT";"success";"471";"0";"2014-10-13 14:04:22.439";"1";;;;;;;;;;;;;;;;;;;;;
"142032";"1992";;"Mac OS X";"Rachel's Experiment (D.T.)";"1.0";"2";"1";"1";"2";"1";"1";"2014-10-13 13:57:46.495";"2014-10-13 14:11:26.143";"1";"0";"0";"126";"125";"module.training_block4.exec-3467.GoNoGo4";;;;;;;;;;;;;;;;;;;;;;;;;;;;;;;;;;;;;;;;;;;;;;;;;;;;;;;;;;;"1251";"2014-10-13 14:04:26.215";"NST_miss";"17";"1";"FINISHED";"NONE";"failure";"0";"0";"2014-10-13 14:04:24.964";"2";;;;;;;;;;;;;;;;;;;;;
"142032";"1992";;"Mac OS X";"Rachel's Experiment (D.T.)";"1.0";"2";"1";"1";"2";"1";"1";"2014-10-13 13:57:46.495";"2014-10-13 14:11:26.143";"1";"0";"0";"127";"126";"module.training_block4.exec-3467.GoNoGo4";;;;;;;;;;;;;;;;;;;;;;;;;;;;;;;;;;;;;;;;;;;;;;;;;;;;;;;;;;;"1250";"2014-10-13 14:04:28.736";"NST_miss";"18";"1";"FINISHED";"NONE";"failure";"0";"0";"2014-10-13 14:04:27.486";"3";;;;;;;;;;;;;;;;;;;;;
"142032";"1992";;"Mac OS X";"Rachel's Experiment (D.T.)";"1.0";"2";"1";"1";"2";"1";"1";"2014-10-13 13:57:46.495";"2014-10-13 14:11:26.143";"1";"0";"0";"128";"127";"module.training_block4.exec-3467.GoNoGo4";;;;;;;;;;;;;;;;;;;;;;;;;;;;;;;;;;;;;;;;;;;;;;;;;;;;;;;;;;;"1250";"2014-10-13 14:04:31.258";"NST_miss";"34";"1";"FINISHED";"NONE";"failure";"0";"0";"2014-10-13 14:04:30.008";"3";;;;;;;;;;;;;;;;;;;;;
"142032";"1992";;"Mac OS X";"Rachel's Experiment (D.T.)";"1.0";"2";"1";"1";"2";"1";"1";"2014-10-13 13:57:46.495";"2014-10-13 14:11:26.143";"1";"0";"0";"129";"128";"module.training_block4.exec-3467.GoNoGo4";;;;;;;;;;;;;;;;;;;;;;;;;;;;;;;;;;;;;;;;;;;;;;;;;;;;;;;;;;;"1251";"2014-10-13 14:04:33.779";"NST_miss";"10";"1";"FINISHED";"NONE";"failure";"0";"0";"2014-10-13 14:04:32.528";"2";;;;;;;;;;;;;;;;;;;;;
"142032";"1992";;"Mac OS X";"Rachel's Experiment (D.T.)";"1.0";"2";"1";"1";"2";"1";"1";"2014-10-13 13:57:46.495";"2014-10-13 14:11:26.143";"1";"0";"0";"130";"129";"module.training_block4.exec-3467.GoNoGo4";;;;;;;;;;;;;;;;;;;;;;;;;;;;;;;;;;;;;;;;;;;;;;;;;;;;;;;;;;;"1250";"2014-10-13 14:04:36.300";"NST_miss";"5";"1";"FINISHED";"NONE";"failure";"0";"0";"2014-10-13 14:04:35.049";"1";;;;;;;;;;;;;;;;;;;;;
"142032";"1992";;"Mac OS X";"Rachel's Experiment (D.T.)";"1.0";"2";"1";"1";"2";"1";"1";"2014-10-13 13:57:46.495";"2014-10-13 14:11:26.143";"1";"0";"0";"131";"130";"module.training_block4.exec-3467.GoNoGo4";;;;;;;;;;;;;;;;;;;;;;;;;;;;;;;;;;;;;;;;;;;;;;;;;;;;;;;;;;;"1250";"2014-10-13 14:04:38.822";"NST_miss";"16";"1";"FINISHED";"NONE";"failure";"0";"0";"2014-10-13 14:04:37.571";"2";;;;;;;;;;;;;;;;;;;;;
"142032";"1992";;"Mac OS X";"Rachel's Experiment (D.T.)";"1.0";"2";"1";"1";"2";"1";"1";"2014-10-13 13:57:46.495";"2014-10-13 14:11:26.143";"1";"0";"0";"132";"131";"module.training_block4.exec-3467.GoNoGo4";;;;;;;;;;;;;;;;;;;;;;;;;;;;;;;;;;;;;;;;;;;;;;;;;;;;;;;;;;;"1250";"2014-10-13 14:04:41.341";"NST_miss";"2";"1";"FINISHED";"NONE";"failure";"0";"0";"2014-10-13 14:04:40.090";"1";;;;;;;;;;;;;;;;;;;;;
"142032";"1992";;"Mac OS X";"Rachel's Experiment (D.T.)";"1.0";"2";"1";"1";"2";"1";"1";"2014-10-13 13:57:46.495";"2014-10-13 14:11:26.143";"1";"0";"0";"133";"132";"module.training_block4.exec-3467.GoNoGo4";;;;;;;;;;;;;;;;;;;;;;;;;;;;;;;;;;;;;;;;;;;;;;;;;;;;;;;;;;;"1251";"2014-10-13 14:04:43.865";"NST_correctLoc";"35";"0";"FINISHED";"LEFT";"success";"399";"0";"2014-10-13 14:04:42.614";"3";;;;;;;;;;;;;;;;;;;;;
"142032";"1992";;"Mac OS X";"Rachel's Experiment (D.T.)";"1.0";"2";"1";"1";"2";"1";"1";"2014-10-13 13:57:46.495";"2014-10-13 14:11:26.143";"1";"0";"0";"134";"133";"module.training_block4.exec-3467.GoNoGo4";;;;;;;;;;;;;;;;;;;;;;;;;;;;;;;;;;;;;;;;;;;;;;;;;;;;;;;;;;;"1250";"2014-10-13 14:04:46.385";"NST_correctLoc";"33";"0";"FINISHED";"LEFT";"success";"417";"0";"2014-10-13 14:04:45.134";"3";;;;;;;;;;;;;;;;;;;;;
"142032";"1992";;"Mac OS X";"Rachel's Experiment (D.T.)";"1.0";"2";"1";"1";"2";"1";"1";"2014-10-13 13:57:46.495";"2014-10-13 14:11:26.143";"1";"0";"0";"135";"134";"module.training_block4.exec-3467.GoNoGo4";;;;;;;;;;;;;;;;;;;;;;;;;;;;;;;;;;;;;;;;;;;;;;;;;;;;;;;;;;;"1250";"2014-10-13 14:04:48.908";"NST_correctLoc";"21";"0";"FINISHED";"LEFT";"success";"316";"0";"2014-10-13 14:04:47.658";"3";;;;;;;;;;;;;;;;;;;;;
"142032";"1992";;"Mac OS X";"Rachel's Experiment (D.T.)";"1.0";"2";"1";"1";"2";"1";"1";"2014-10-13 13:57:46.495";"2014-10-13 14:11:26.143";"1";"0";"0";"136";"135";"module.training_block4.exec-3467.GoNoGo4";;;;;;;;;;;;;;;;;;;;;;;;;;;;;;;;;;;;;;;;;;;;;;;;;;;;;;;;;;;"1250";"2014-10-13 14:04:51.431";"NST_miss";"31";"1";"FINISHED";"NONE";"failure";"0";"0";"2014-10-13 14:04:50.181";"3";;;;;;;;;;;;;;;;;;;;;
"142032";"1992";;"Mac OS X";"Rachel's Experiment (D.T.)";"1.0";"2";"1";"1";"2";"1";"1";"2014-10-13 13:57:46.495";"2014-10-13 14:11:26.143";"1";"0";"0";"137";"136";"module.training_block4.exec-3467.GoNoGo4";;;;;;;;;;;;;;;;;;;;;;;;;;;;;;;;;;;;;;;;;;;;;;;;;;;;;;;;;;;"1250";"2014-10-13 14:04:53.958";"NST_miss";"30";"1";"FINISHED";"NONE";"failure";"0";"0";"2014-10-13 14:04:52.708";"3";;;;;;;;;;;;;;;;;;;;;
"142032";"1992";;"Mac OS X";"Rachel's Experiment (D.T.)";"1.0";"2";"1";"1";"2";"1";"1";"2014-10-13 13:57:46.495";"2014-10-13 14:11:26.143";"1";"0";"0";"138";"137";"module.training_block4.exec-3467.GoNoGo4";;;;;;;;;;;;;;;;;;;;;;;;;;;;;;;;;;;;;;;;;;;;;;;;;;;;;;;;;;;"1251";"2014-10-13 14:04:56.482";"NST_correctLoc";"6";"0";"FINISHED";"LEFT";"success";"310";"0";"2014-10-13 14:04:55.231";"1";;;;;;;;;;;;;;;;;;;;;
"142032";"1992";;"Mac OS X";"Rachel's Experiment (D.T.)";"1.0";"2";"1";"1";"2";"1";"1";"2014-10-13 13:57:46.495";"2014-10-13 14:11:26.143";"1";"0";"0";"139";"138";"module.training_block4.exec-3467.GoNoGo4";;;;;;;;;;;;;;;;;;;;;;;;;;;;;;;;;;;;;;;;;;;;;;;;;;;;;;;;;;;"1251";"2014-10-13 14:04:59.006";"NST_miss";"22";"0";"FINISHED";"NONE";"failure";"0";"0";"2014-10-13 14:04:57.754";"3";;;;;;;;;;;;;;;;;;;;;
"142032";"1992";;"Mac OS X";"Rachel's Experiment (D.T.)";"1.0";"2";"1";"1";"2";"1";"1";"2014-10-13 13:57:46.495";"2014-10-13 14:11:26.143";"1";"0";"0";"140";"139";"module.training_block4.exec-3467.GoNoGo4";;;;;;;;;;;;;;;;;;;;;;;;;;;;;;;;;;;;;;;;;;;;;;;;;;;;;;;;;;;"1250";"2014-10-13 14:05:01.528";"NST_correctLoc";"19";"0";"FINISHED";"LEFT";"success";"351";"0";"2014-10-13 14:05:00.277";"3";;;;;;;;;;;;;;;;;;;;;
"142032";"1992";;"Mac OS X";"Rachel's Experiment (D.T.)";"1.0";"2";"1";"1";"2";"1";"1";"2014-10-13 13:57:46.495";"2014-10-13 14:11:26.143";"1";"0";"0";"141";"140";"module.training_block4.exec-3467.GoNoGo4";;;;;;;;;;;;;;;;;;;;;;;;;;;;;;;;;;;;;;;;;;;;;;;;;;;;;;;;;;;"1251";"2014-10-13 14:05:04.055";"NST_miss";"8";"1";"FINISHED";"NONE";"failure";"0";"0";"2014-10-13 14:05:02.804";"1";;;;;;;;;;;;;;;;;;;;;
"142032";"1992";;"Mac OS X";"Rachel's Experiment (D.T.)";"1.0";"2";"1";"1";"2";"1";"1";"2014-10-13 13:57:46.495";"2014-10-13 14:11:26.143";"1";"0";"0";"142";"141";"module.training_block4.exec-3467.GoNoGo4";;;;;;;;;;;;;;;;;;;;;;;;;;;;;;;;;;;;;;;;;;;;;;;;;;;;;;;;;;;"1250";"2014-10-13 14:05:06.577";"NST_correctLoc";"7";"0";"FINISHED";"LEFT";"success";"390";"0";"2014-10-13 14:05:05.326";"1";;;;;;;;;;;;;;;;;;;;;
"142032";"1992";;"Mac OS X";"Rachel's Experiment (D.T.)";"1.0";"2";"1";"1";"2";"1";"1";"2014-10-13 13:57:46.495";"2014-10-13 14:11:26.143";"1";"0";"0";"143";"142";"module.training_block4.exec-3467.GoNoGo4";;;;;;;;;;;;;;;;;;;;;;;;;;;;;;;;;;;;;;;;;;;;;;;;;;;;;;;;;;;"1250";"2014-10-13 14:05:09.096";"NST_correctLoc";"0";"0";"FINISHED";"LEFT";"success";"399";"0";"2014-10-13 14:05:07.846";"1";;;;;;;;;;;;;;;;;;;;;
"142032";"1992";;"Mac OS X";"Rachel's Experiment (D.T.)";"1.0";"2";"1";"1";"2";"1";"1";"2014-10-13 13:57:46.495";"2014-10-13 14:11:26.143";"1";"0";"0";"144";"143";"module.training_block4.exec-3467.GoNoGo4";;;;;;;;;;;;;;;;;;;;;;;;;;;;;;;;;;;;;;;;;;;;;;;;;;;;;;;;;;;"1249";"2014-10-13 14:05:11.619";"NST_correctLoc";"25";"0";"FINISHED";"LEFT";"success";"379";"0";"2014-10-13 14:05:10.369";"3";;;;;;;;;;;;;;;;;;;;;
"142032";"1992";;"Mac OS X";"Rachel's Experiment (D.T.)";"1.0";"2";"1";"1";"2";"1";"1";"2014-10-13 13:57:46.495";"2014-10-13 14:11:26.143";"1";"0";"0";"145";"144";"module.training_block4.exec-3467.GoNoGo4";;;;;;;;;;;;;;;;;;;;;;;;;;;;;;;;;;;;;;;;;;;;;;;;;;;;;;;;;;;"1250";"2014-10-13 14:05:14.141";"NST_miss";"24";"1";"FINISHED";"NONE";"failure";"0";"0";"2014-10-13 14:05:12.890";"3";;;;;;;;;;;;;;;;;;;;;
"142032";"1992";;"Mac OS X";"Rachel's Experiment (D.T.)";"1.0";"2";"1";"1";"2";"1";"1";"2014-10-13 13:57:46.495";"2014-10-13 14:11:26.143";"1";"0";"0";"146";"145";"module.training_block4.exec-3467.GoNoGo4";;;;;;;;;;;;;;;;;;;;;;;;;;;;;;;;;;;;;;;;;;;;;;;;;;;;;;;;;;;"1250";"2014-10-13 14:05:16.661";"NST_miss";"11";"1";"FINISHED";"NONE";"failure";"0";"0";"2014-10-13 14:05:15.410";"2";;;;;;;;;;;;;;;;;;;;;
"142032";"1992";;"Mac OS X";"Rachel's Experiment (D.T.)";"1.0";"2";"1";"1";"2";"1";"1";"2014-10-13 13:57:46.495";"2014-10-13 14:11:26.143";"1";"0";"0";"147";"146";"module.training_block4.exec-3467.GoNoGo4";;;;;;;;;;;;;;;;;;;;;;;;;;;;;;;;;;;;;;;;;;;;;;;;;;;;;;;;;;;"1251";"2014-10-13 14:05:19.182";"NST_miss";"12";"1";"FINISHED";"NONE";"failure";"0";"0";"2014-10-13 14:05:17.931";"2";;;;;;;;;;;;;;;;;;;;;
"142032";"1992";;"Mac OS X";"Rachel's Experiment (D.T.)";"1.0";"2";"1";"1";"2";"1";"1";"2014-10-13 13:57:46.495";"2014-10-13 14:11:26.143";"1";"0";"0";"148";"147";"module.training_block4.exec-3467.GoNoGo4";;;;;;;;;;;;;;;;;;;;;;;;;;;;;;;;;;;;;;;;;;;;;;;;;;;;;;;;;;;"1250";"2014-10-13 14:05:21.701";"NST_correctLoc";"1";"0";"FINISHED";"LEFT";"success";"433";"0";"2014-10-13 14:05:20.450";"1";;;;;;;;;;;;;;;;;;;;;
"142032";"1992";;"Mac OS X";"Rachel's Experiment (D.T.)";"1.0";"2";"1";"1";"2";"1";"1";"2014-10-13 13:57:46.495";"2014-10-13 14:11:26.143";"1";"0";"0";"149";"148";"module.training_block4.exec-3467.GoNoGo4";;;;;;;;;;;;;;;;;;;;;;;;;;;;;;;;;;;;;;;;;;;;;;;;;;;;;;;;;;;"1250";"2014-10-13 14:05:24.220";"NST_correctLoc";"29";"0";"FINISHED";"LEFT";"success";"371";"0";"2014-10-13 14:05:22.969";"3";;;;;;;;;;;;;;;;;;;;;
"142032";"1992";;"Mac OS X";"Rachel's Experiment (D.T.)";"1.0";"2";"1";"1";"2";"1";"1";"2014-10-13 13:57:46.495";"2014-10-13 14:11:26.143";"1";"0";"0";"150";"149";"module.training_block4.exec-3467.GoNoGo4";;;;;;;;;;;;;;;;;;;;;;;;;;;;;;;;;;;;;;;;;;;;;;;;;;;;;;;;;;;"1251";"2014-10-13 14:05:26.742";"NST_miss";"28";"1";"FINISHED";"NONE";"failure";"0";"0";"2014-10-13 14:05:25.490";"3";;;;;;;;;;;;;;;;;;;;;
"142032";"1992";;"Mac OS X";"Rachel's Experiment (D.T.)";"1.0";"2";"1";"1";"2";"1";"1";"2014-10-13 13:57:46.495";"2014-10-13 14:11:26.143";"1";"0";"0";"151";"150";"module.training_block4.exec-3467.GoNoGo4";;;;;;;;;;;;;;;;;;;;;;;;;;;;;;;;;;;;;;;;;;;;;;;;;;;;;;;;;;;"1250";"2014-10-13 14:05:29.270";"NST_correctLoc";"15";"0";"FINISHED";"LEFT";"success";"368";"0";"2014-10-13 14:05:28.019";"2";;;;;;;;;;;;;;;;;;;;;
"142032";"1992";;"Mac OS X";"Rachel's Experiment (D.T.)";"1.0";"2";"1";"1";"2";"1";"1";"2014-10-13 13:57:46.495";"2014-10-13 14:11:26.143";"1";"0";"0";"152";"151";"module.training_block4.exec-3467.GoNoGo4";;;;;;;;;;;;;;;;;;;;;;;;;;;;;;;;;;;;;;;;;;;;;;;;;;;;;;;;;;;"1250";"2014-10-13 14:05:31.790";"NST_miss";"13";"1";"FINISHED";"NONE";"failure";"0";"0";"2014-10-13 14:05:30.539";"2";;;;;;;;;;;;;;;;;;;;;
"142032";"1992";;"Mac OS X";"Rachel's Experiment (D.T.)";"1.0";"2";"1";"1";"2";"1";"1";"2014-10-13 13:57:46.495";"2014-10-13 14:11:26.143";"1";"0";"0";"153";"152";"module.training_block4.exec-3467.GoNoGo4";;;;;;;;;;;;;;;;;;;;;;;;;;;;;;;;;;;;;;;;;;;;;;;;;;;;;;;;;;;"1250";"2014-10-13 14:05:34.311";"NST_correctLoc";"27";"0";"FINISHED";"LEFT";"success";"295";"0";"2014-10-13 14:05:33.060";"3";;;;;;;;;;;;;;;;;;;;;
"142032";"1992";;"Mac OS X";"Rachel's Experiment (D.T.)";"1.0";"2";"1";"1";"2";"1";"1";"2014-10-13 13:57:46.495";"2014-10-13 14:11:26.143";"1";"0";"0";"154";"153";"module.training_block4.exec-3467.GoNoGo4";;;;;;;;;;;;;;;;;;;;;;;;;;;;;;;;;;;;;;;;;;;;;;;;;;;;;;;;;;;"1251";"2014-10-13 14:05:36.834";"NST_miss";"4";"0";"FINISHED";"NONE";"failure";"0";"0";"2014-10-13 14:05:35.583";"1";;;;;;;;;;;;;;;;;;;;;
"142032";"1992";;"Mac OS X";"Rachel's Experiment (D.T.)";"1.0";"2";"1";"1";"2";"1";"1";"2014-10-13 13:57:46.495";"2014-10-13 14:11:26.143";"1";"0";"0";"155";"154";"module.training_block4.exec-3467.GoNoGo4";;;;;;;;;;;;;;;;;;;;;;;;;;;;;;;;;;;;;;;;;;;;;;;;;;;;;;;;;;;"1250";"2014-10-13 14:05:39.354";"NST_correctLoc";"23";"1";"FINISHED";"RIGHT";"success";"1176";"0";"2014-10-13 14:05:38.104";"3";;;;;;;;;;;;;;;;;;;;;
"142032";"1992";;"Mac OS X";"Rachel's Experiment (D.T.)";"1.0";"2";"1";"1";"2";"1";"1";"2014-10-13 13:57:46.495";"2014-10-13 14:11:26.143";"1";"0";"0";"156";"155";"module.training_block4.exec-3467.GoNoGo4";;;;;;;;;;;;;;;;;;;;;;;;;;;;;;;;;;;;;;;;;;;;;;;;;;;;;;;;;;;"1251";"2014-10-13 14:05:41.877";"NST_correctLoc";"26";"1";"FINISHED";"RIGHT";"success";"726";"0";"2014-10-13 14:05:40.626";"3";;;;;;;;;;;;;;;;;;;;;
"142032";"1992";;"Mac OS X";"Rachel's Experiment (D.T.)";"1.0";"2";"1";"1";"2";"1";"1";"2014-10-13 13:57:46.495";"2014-10-13 14:11:26.143";"1";"0";"0";"157";"156";"module.training_block4.exec-3467.GoNoGo4";;;;;;;;;;;;;;;;;;;;;;;;;;;;;;;;;;;;;;;;;;;;;;;;;;;;;;;;;;;"1251";"2014-10-13 14:05:44.404";"NST_correctLoc";"9";"0";"FINISHED";"LEFT";"success";"455";"0";"2014-10-13 14:05:43.153";"2";;;;;;;;;;;;;;;;;;;;;
"142032";"1992";;"Mac OS X";"Rachel's Experiment (D.T.)";"1.0";"2";"1";"1";"2";"1";"1";"2014-10-13 13:57:46.495";"2014-10-13 14:11:26.143";"1";"0";"0";"158";"157";"module.training_block4.exec-3467.GoNoGo4";;;;;;;;;;;;;;;;;;;;;;;;;;;;;;;;;;;;;;;;;;;;;;;;;;;;;;;;;;;"1251";"2014-10-13 14:05:46.925";"NST_correctLoc";"20";"1";"FINISHED";"RIGHT";"success";"366";"0";"2014-10-13 14:05:45.674";"3";;;;;;;;;;;;;;;;;;;;;
"142032";"1992";;"Mac OS X";"Rachel's Experiment (D.T.)";"1.0";"2";"1";"1";"2";"1";"1";"2014-10-13 13:57:46.495";"2014-10-13 14:11:26.143";"1";"0";"0";"159";"158";"module.training_block4.exec-3467.GoNoGo4";;;;;;;;;;;;;;;;;;;;;;;;;;;;;;;;;;;;;;;;;;;;;;;;;;;;;;;;;;;"1251";"2014-10-13 14:05:49.446";"NST_correctLoc";"32";"0";"FINISHED";"LEFT";"success";"325";"0";"2014-10-13 14:05:48.195";"3";;;;;;;;;;;;;;;;;;;;;
"142032";"1992";;"Mac OS X";"Rachel's Experiment (D.T.)";"1.0";"2";"1";"1";"2";"1";"1";"2014-10-13 13:57:46.495";"2014-10-13 14:11:26.143";"1";"0";"0";"160";"159";"module.devaluation_practice.exec-5606.devalPractice";;;;;;;;;;;;"19752";"2014-10-13 14:06:34.075";"0";"3";"3";"3";"7614";"3289";"5820";"2014-10-13 14:06:14.323";;;;;;;;;;;;;;;;;;;;;;;;;;;;;;;;;;;;;;;;;;;;;;;;;;;;;;;;;;;;;;;;;;;;;;
"142032";"1992";;"Mac OS X";"Rachel's Experiment (D.T.)";"1.0";"2";"1";"1";"2";"1";"1";"2014-10-13 13:57:46.495";"2014-10-13 14:11:26.143";"1";"0";"0";"161";"160";"module.devaluation_practice.exec-5606.devalPractice";;;;;;;;;;;;"15949";"2014-10-13 14:06:50.044";"1";"5";"6";"5";"6504";"1862";"4570";"2014-10-13 14:06:34.094";;;;;;;;;;;;;;;;;;;;;;;;;;;;;;;;;;;;;;;;;;;;;;;;;;;;;;;;;;;;;;;;;;;;;;
"142032";"1992";;"Mac OS X";"Rachel's Experiment (D.T.)";"1.0";"2";"1";"1";"2";"1";"1";"2014-10-13 13:57:46.495";"2014-10-13 14:11:26.143";"1";"0";"0";"162";"161";"module.devaluation_practice.exec-5606.devalPractice";;;;;;;;;;;;"8692";"2014-10-13 14:06:58.753";"2";"6";"6";"5";"2894";"1526";"1257";"2014-10-13 14:06:50.061";;;;;;;;;;;;;;;;;;;;;;;;;;;;;;;;;;;;;;;;;;;;;;;;;;;;;;;;;;;;;;;;;;;;;;
"142032";"1992";;"Mac OS X";"Rachel's Experiment (D.T.)";"1.0";"2";"1";"1";"2";"1";"1";"2014-10-13 13:57:46.495";"2014-10-13 14:11:26.143";"1";"0";"0";"163";"162";"module.devaluation_practice.exec-5606.devalPractice";;;;;;;;;;;;"8238";"2014-10-13 14:07:07.009";"3";"7";"6";"5";"3081";"1158";"985";"2014-10-13 14:06:58.770";;;;;;;;;;;;;;;;;;;;;;;;;;;;;;;;;;;;;;;;;;;;;;;;;;;;;;;;;;;;;;;;;;;;;;
"142032";"1992";;"Mac OS X";"Rachel's Experiment (D.T.)";"1.0";"2";"1";"1";"2";"1";"1";"2014-10-13 13:57:46.495";"2014-10-13 14:11:26.143";"1";"0";"0";"164";"163";"module.devaluation_block1.exec-9596.deval1";"11287";"2014-10-13 14:07:22.926";"7";"2";"1";"3";"3173";"2655";"2437";"2014-10-13 14:07:11.639";"1";;;;;;;;;;;;;;;;;;;;;;;;;;;;;;;;;;;;;;;;;;;;;;;;;;;;;;;;;;;;;;;;;;;;;;;;;;;;;;;;
"142032";"1992";;"Mac OS X";"Rachel's Experiment (D.T.)";"1.0";"2";"1";"1";"2";"1";"1";"2014-10-13 13:57:46.495";"2014-10-13 14:11:26.143";"1";"0";"0";"165";"164";"module.devaluation_block1.exec-9596.deval1";"12526";"2014-10-13 14:07:35.470";"6";"3";"1";"3";"3971";"3375";"2166";"2014-10-13 14:07:22.943";"1";;;;;;;;;;;;;;;;;;;;;;;;;;;;;;;;;;;;;;;;;;;;;;;;;;;;;;;;;;;;;;;;;;;;;;;;;;;;;;;;
"142032";"1992";;"Mac OS X";"Rachel's Experiment (D.T.)";"1.0";"2";"1";"1";"2";"1";"1";"2014-10-13 13:57:46.495";"2014-10-13 14:11:26.143";"1";"0";"0";"166";"165";"module.devaluation_block1.exec-9596.deval1";"10065";"2014-10-13 14:07:45.553";"13";"5";"6";"6";"2261";"1246";"3544";"2014-10-13 14:07:35.487";"2";;;;;;;;;;;;;;;;;;;;;;;;;;;;;;;;;;;;;;;;;;;;;;;;;;;;;;;;;;;;;;;;;;;;;;;;;;;;;;;;
"142032";"1992";;"Mac OS X";"Rachel's Experiment (D.T.)";"1.0";"2";"1";"1";"2";"1";"1";"2014-10-13 13:57:46.495";"2014-10-13 14:11:26.143";"1";"0";"0";"167";"166";"module.devaluation_block1.exec-9596.deval1";"8063";"2014-10-13 14:07:53.632";"1";"5";"4";"6";"611";"2990";"1447";"2014-10-13 14:07:45.569";"1";;;;;;;;;;;;;;;;;;;;;;;;;;;;;;;;;;;;;;;;;;;;;;;;;;;;;;;;;;;;;;;;;;;;;;;;;;;;;;;;
"142032";"1992";;"Mac OS X";"Rachel's Experiment (D.T.)";"1.0";"2";"1";"1";"2";"1";"1";"2014-10-13 13:57:46.495";"2014-10-13 14:11:26.143";"1";"0";"0";"168";"167";"module.devaluation_block1.exec-9596.deval1";"9886";"2014-10-13 14:08:03.536";"17";"3";"2";"3";"2578";"1735";"2558";"2014-10-13 14:07:53.650";"2";;;;;;;;;;;;;;;;;;;;;;;;;;;;;;;;;;;;;;;;;;;;;;;;;;;;;;;;;;;;;;;;;;;;;;;;;;;;;;;;
"142032";"1992";;"Mac OS X";"Rachel's Experiment (D.T.)";"1.0";"2";"1";"1";"2";"1";"1";"2014-10-13 13:57:46.495";"2014-10-13 14:11:26.143";"1";"0";"0";"169";"168";"module.devaluation_block1.exec-9596.deval1";"7765";"2014-10-13 14:08:11.320";"11";"5";"2";"4";"1210";"1231";"2309";"2014-10-13 14:08:03.554";"2";;;;;;;;;;;;;;;;;;;;;;;;;;;;;;;;;;;;;;;;;;;;;;;;;;;;;;;;;;;;;;;;;;;;;;;;;;;;;;;;
"142032";"1992";;"Mac OS X";"Rachel's Experiment (D.T.)";"1.0";"2";"1";"1";"2";"1";"1";"2014-10-13 13:57:46.495";"2014-10-13 14:11:26.143";"1";"0";"0";"170";"169";"module.devaluation_block1.exec-9596.deval1";"7655";"2014-10-13 14:08:18.991";"9";"7";"5";"7";"1730";"702";"2207";"2014-10-13 14:08:11.336";"2";;;;;;;;;;;;;;;;;;;;;;;;;;;;;;;;;;;;;;;;;;;;;;;;;;;;;;;;;;;;;;;;;;;;;;;;;;;;;;;;
"142032";"1992";;"Mac OS X";"Rachel's Experiment (D.T.)";"1.0";"2";"1";"1";"2";"1";"1";"2014-10-13 13:57:46.495";"2014-10-13 14:11:26.143";"1";"0";"0";"171";"170";"module.devaluation_block1.exec-9596.deval1";"7763";"2014-10-13 14:08:26.776";"26";"8";"5";"8";"2223";"1006";"1518";"2014-10-13 14:08:19.012";"3";;;;;;;;;;;;;;;;;;;;;;;;;;;;;;;;;;;;;;;;;;;;;;;;;;;;;;;;;;;;;;;;;;;;;;;;;;;;;;;;
"142032";"1992";;"Mac OS X";"Rachel's Experiment (D.T.)";"1.0";"2";"1";"1";"2";"1";"1";"2014-10-13 13:57:46.495";"2014-10-13 14:11:26.143";"1";"0";"0";"172";"171";"module.devaluation_block1.exec-9596.deval1";"6037";"2014-10-13 14:08:32.831";"14";"6";"6";"6";"1056";"759";"1207";"2014-10-13 14:08:26.794";"2";;;;;;;;;;;;;;;;;;;;;;;;;;;;;;;;;;;;;;;;;;;;;;;;;;;;;;;;;;;;;;;;;;;;;;;;;;;;;;;;
"142032";"1992";;"Mac OS X";"Rachel's Experiment (D.T.)";"1.0";"2";"1";"1";"2";"1";"1";"2014-10-13 13:57:46.495";"2014-10-13 14:11:26.143";"1";"0";"0";"173";"172";"module.devaluation_block1.exec-9596.deval1";"7118";"2014-10-13 14:08:39.967";"24";"3";"1";"3";"1089";"1535";"1479";"2014-10-13 14:08:32.849";"3";;;;;;;;;;;;;;;;;;;;;;;;;;;;;;;;;;;;;;;;;;;;;;;;;;;;;;;;;;;;;;;;;;;;;;;;;;;;;;;;
"142032";"1992";;"Mac OS X";"Rachel's Experiment (D.T.)";"1.0";"2";"1";"1";"2";"1";"1";"2014-10-13 13:57:46.495";"2014-10-13 14:11:26.143";"1";"0";"0";"174";"173";"module.devaluation_block1.exec-9596.deval1";"7471";"2014-10-13 14:08:47.463";"19";"7";"6";"7";"1555";"1022";"1879";"2014-10-13 14:08:39.991";"3";;;;;;;;;;;;;;;;;;;;;;;;;;;;;;;;;;;;;;;;;;;;;;;;;;;;;;;;;;;;;;;;;;;;;;;;;;;;;;;;
"142032";"1992";;"Mac OS X";"Rachel's Experiment (D.T.)";"1.0";"2";"1";"1";"2";"1";"1";"2014-10-13 13:57:46.495";"2014-10-13 14:11:26.143";"1";"0";"0";"175";"174";"module.devaluation_block1.exec-9596.deval1";"7357";"2014-10-13 14:08:54.838";"12";"9";"8";"9";"1265";"1543";"1535";"2014-10-13 14:08:47.481";"2";;;;;;;;;;;;;;;;;;;;;;;;;;;;;;;;;;;;;;;;;;;;;;;;;;;;;;;;;;;;;;;;;;;;;;;;;;;;;;;;
"142032";"1992";;"Mac OS X";"Rachel's Experiment (D.T.)";"1.0";"2";"1";"1";"2";"1";"1";"2014-10-13 13:57:46.495";"2014-10-13 14:11:26.143";"1";"0";"0";"176";"175";"module.devaluation_block1.exec-9596.deval1";"8658";"2014-10-13 14:09:03.518";"3";"4";"4";"6";"1647";"1999";"1998";"2014-10-13 14:08:54.860";"1";;;;;;;;;;;;;;;;;;;;;;;;;;;;;;;;;;;;;;;;;;;;;;;;;;;;;;;;;;;;;;;;;;;;;;;;;;;;;;;;
"142032";"1992";;"Mac OS X";"Rachel's Experiment (D.T.)";"1.0";"2";"1";"1";"2";"1";"1";"2014-10-13 13:57:46.495";"2014-10-13 14:11:26.143";"1";"0";"0";"177";"176";"module.devaluation_block1.exec-9596.deval1";"9502";"2014-10-13 14:09:13.038";"23";"7";"3";"7";"4107";"895";"1487";"2014-10-13 14:09:03.535";"3";;;;;;;;;;;;;;;;;;;;;;;;;;;;;;;;;;;;;;;;;;;;;;;;;;;;;;;;;;;;;;;;;;;;;;;;;;;;;;;;
"142032";"1992";;"Mac OS X";"Rachel's Experiment (D.T.)";"1.0";"2";"1";"1";"2";"1";"1";"2014-10-13 13:57:46.495";"2014-10-13 14:11:26.143";"1";"0";"0";"178";"177";"module.devaluation_block1.exec-9596.deval1";"10303";"2014-10-13 14:09:23.357";"8";"3";"1";"3";"2651";"1983";"2654";"2014-10-13 14:09:13.054";"1";;;;;;;;;;;;;;;;;;;;;;;;;;;;;;;;;;;;;;;;;;;;;;;;;;;;;;;;;;;;;;;;;;;;;;;;;;;;;;;;
"142032";"1992";;"Mac OS X";"Rachel's Experiment (D.T.)";"1.0";"2";"1";"1";"2";"1";"1";"2014-10-13 13:57:46.495";"2014-10-13 14:11:26.143";"1";"0";"0";"179";"178";"module.devaluation_block1.exec-9596.deval1";"7583";"2014-10-13 14:09:30.958";"21";"8";"6";"8";"1578";"1753";"1238";"2014-10-13 14:09:23.375";"3";;;;;;;;;;;;;;;;;;;;;;;;;;;;;;;;;;;;;;;;;;;;;;;;;;;;;;;;;;;;;;;;;;;;;;;;;;;;;;;;
"142032";"1992";;"Mac OS X";"Rachel's Experiment (D.T.)";"1.0";"2";"1";"1";"2";"1";"1";"2014-10-13 13:57:46.495";"2014-10-13 14:11:26.143";"1";"0";"0";"180";"179";"module.devaluation_block1.exec-9596.deval1";"8938";"2014-10-13 14:09:39.917";"22";"9";"7";"9";"1230";"2039";"2655";"2014-10-13 14:09:30.979";"3";;;;;;;;;;;;;;;;;;;;;;;;;;;;;;;;;;;;;;;;;;;;;;;;;;;;;;;;;;;;;;;;;;;;;;;;;;;;;;;;
"142032";"1992";;"Mac OS X";"Rachel's Experiment (D.T.)";"1.0";"2";"1";"1";"2";"1";"1";"2014-10-13 13:57:46.495";"2014-10-13 14:11:26.143";"1";"0";"0";"181";"180";"module.devaluation_block1.exec-9596.deval1";"26284";"2014-10-13 14:10:06.220";"16";"2";"1";"3";"4905";"15382";"2984";"2014-10-13 14:09:39.935";"2";;;;;;;;;;;;;;;;;;;;;;;;;;;;;;;;;;;;;;;;;;;;;;;;;;;;;;;;;;;;;;;;;;;;;;;;;;;;;;;;
"142032";"1992";;"Mac OS X";"Rachel's Experiment (D.T.)";"1.0";"2";"1";"1";"2";"1";"1";"2014-10-13 13:57:46.495";"2014-10-13 14:11:26.143";"1";"0";"0";"182";"181";"module.devaluation_block1.exec-9596.deval1";"6349";"2014-10-13 14:10:12.588";"4";"5";"4";"5";"1057";"975";"1304";"2014-10-13 14:10:06.238";"1";;;;;;;;;;;;;;;;;;;;;;;;;;;;;;;;;;;;;;;;;;;;;;;;;;;;;;;;;;;;;;;;;;;;;;;;;;;;;;;;
"142032";"1992";;"Mac OS X";"Rachel's Experiment (D.T.)";"1.0";"2";"1";"1";"2";"1";"1";"2014-10-13 13:57:46.495";"2014-10-13 14:11:26.143";"1";"0";"0";"183";"182";"module.devaluation_block1.exec-9596.deval1";"8237";"2014-10-13 14:10:20.844";"18";"4";"2";"4";"1977";"1215";"2030";"2014-10-13 14:10:12.606";"3";;;;;;;;;;;;;;;;;;;;;;;;;;;;;;;;;;;;;;;;;;;;;;;;;;;;;;;;;;;;;;;;;;;;;;;;;;;;;;;;
"142032";"1992";;"Mac OS X";"Rachel's Experiment (D.T.)";"1.0";"2";"1";"1";"2";"1";"1";"2014-10-13 13:57:46.495";"2014-10-13 14:11:26.143";"1";"0";"0";"184";"183";"module.devaluation_block1.exec-9596.deval1";"9678";"2014-10-13 14:10:30.540";"10";"3";"3";"3";"1866";"1871";"2927";"2014-10-13 14:10:20.861";"2";;;;;;;;;;;;;;;;;;;;;;;;;;;;;;;;;;;;;;;;;;;;;;;;;;;;;;;;;;;;;;;;;;;;;;;;;;;;;;;;
"142032";"1992";;"Mac OS X";"Rachel's Experiment (D.T.)";"1.0";"2";"1";"1";"2";"1";"1";"2014-10-13 13:57:46.495";"2014-10-13 14:11:26.143";"1";"0";"0";"185";"184";"module.devaluation_block1.exec-9596.deval1";"10686";"2014-10-13 14:10:41.243";"20";"3";"1";"2";"3370";"1583";"2719";"2014-10-13 14:10:30.556";"3";;;;;;;;;;;;;;;;;;;;;;;;;;;;;;;;;;;;;;;;;;;;;;;;;;;;;;;;;;;;;;;;;;;;;;;;;;;;;;;;
"142032";"1992";;"Mac OS X";"Rachel's Experiment (D.T.)";"1.0";"2";"1";"1";"2";"1";"1";"2014-10-13 13:57:46.495";"2014-10-13 14:11:26.143";"1";"0";"0";"186";"185";"module.devaluation_block1.exec-9596.deval1";"11651";"2014-10-13 14:10:52.909";"25";"3";"1";"3";"4247";"1423";"2966";"2014-10-13 14:10:41.258";"3";;;;;;;;;;;;;;;;;;;;;;;;;;;;;;;;;;;;;;;;;;;;;;;;;;;;;;;;;;;;;;;;;;;;;;;;;;;;;;;;
"142032";"1992";;"Mac OS X";"Rachel's Experiment (D.T.)";"1.0";"2";"1";"1";"2";"1";"1";"2014-10-13 13:57:46.495";"2014-10-13 14:11:26.143";"1";"0";"0";"187";"186";"module.devaluation_block1.exec-9596.deval1";"8750";"2014-10-13 14:11:01.677";"0";"3";"2";"3";"2498";"1791";"1446";"2014-10-13 14:10:52.926";"1";;;;;;;;;;;;;;;;;;;;;;;;;;;;;;;;;;;;;;;;;;;;;;;;;;;;;;;;;;;;;;;;;;;;;;;;;;;;;;;;
"142032";"1992";;"Mac OS X";"Rachel's Experiment (D.T.)";"1.0";"2";"1";"1";"2";"1";"1";"2014-10-13 13:57:46.495";"2014-10-13 14:11:26.143";"1";"0";"0";"188";"187";"module.devaluation_block1.exec-9596.deval1";"6078";"2014-10-13 14:11:07.772";"2";"3";"2";"3";"938";"1110";"1015";"2014-10-13 14:11:01.694";"1";;;;;;;;;;;;;;;;;;;;;;;;;;;;;;;;;;;;;;;;;;;;;;;;;;;;;;;;;;;;;;;;;;;;;;;;;;;;;;;;
"142032";"1992";;"Mac OS X";"Rachel's Experiment (D.T.)";"1.0";"2";"1";"1";"2";"1";"1";"2014-10-13 13:57:46.495";"2014-10-13 14:11:26.143";"1";"0";"0";"189";"188";"module.devaluation_block1.exec-9596.deval1";"7255";"2014-10-13 14:11:15.044";"15";"1";"1";"1";"1307";"1436";"1494";"2014-10-13 14:11:07.789";"2";;;;;;;;;;;;;;;;;;;;;;;;;;;;;;;;;;;;;;;;;;;;;;;;;;;;;;;;;;;;;;;;;;;;;;;;;;;;;;;;
"142032";"1992";;"Mac OS X";"Rachel's Experiment (D.T.)";"1.0";"2";"1";"1";"2";"1";"1";"2014-10-13 13:57:46.495";"2014-10-13 14:11:26.143";"1";"0";"0";"190";"189";"module.devaluation_block1.exec-9596.deval1";"8510";"2014-10-13 14:11:23.571";"5";"4";"2";"5";"1795";"1910";"1791";"2014-10-13 14:11:15.061";"1";;;;;;;;;;;;;;;;;;;;;;;;;;;;;;;;;;;;;;;;;;;;;;;;;;;;;;;;;;;;;;;;;;;;;;;;;;;;;;;;
