"user.name";"user.yearOfBirth";"user.sex";"user.osName";"module.name";"module.version";"module.online.subject.code";"module.online.study.id";"module.online.module.nr";"module.online.group.nr";"session.id";"session.index";"session.startTime";"session.endTime";"session.completed";"session.node-3953.DevalQorder";"session.node-5142.conditionType";"trial.id";"trial.index";"trial.name";"trial.deval1.durationTime";"trial.deval1.endTime";"trial.deval1.icon";"trial.deval1.Resp_Attractive";"trial.deval1.Resp_Eat";"trial.deval1.Resp_Taste";"trial.deval1.RT_Attractive";"trial.deval1.RT_Eat";"trial.deval1.RT_Taste";"trial.deval1.startTime";"trial.deval1.stimulus type";"trial.devalPractice.durationTime";"trial.devalPractice.endTime";"trial.devalPractice.icon";"trial.devalPractice.Resp_Attractive";"trial.devalPractice.Resp_Eat";"trial.devalPractice.Resp_Taste";"trial.devalPractice.RT_Attractive";"trial.devalPractice.RT_Eat";"trial.devalPractice.RT_Taste";"trial.devalPractice.startTime";"trial.devalPractice.stimulus type";"trial.GoNoGo1.durationTime";"trial.GoNoGo1.endTime";"trial.GoNoGo1.Error Type";"trial.GoNoGo1.icon";"trial.GoNoGo1.location";"trial.GoNoGo1.outcome";"trial.GoNoGo1.response";"trial.GoNoGo1.result";"trial.GoNoGo1.RT";"trial.GoNoGo1.signal";"trial.GoNoGo1.startTime";"trial.GoNoGo1.stimulus type";"trial.GoNoGo2.durationTime";"trial.GoNoGo2.endTime";"trial.GoNoGo2.Error Type";"trial.GoNoGo2.icon";"trial.GoNoGo2.location";"trial.GoNoGo2.outcome";"trial.GoNoGo2.response";"trial.GoNoGo2.result";"trial.GoNoGo2.RT";"trial.GoNoGo2.signal";"trial.GoNoGo2.startTime";"trial.GoNoGo2.stimulus type";"trial.GoNoGo3.durationTime";"trial.GoNoGo3.endTime";"trial.GoNoGo3.Error Type";"trial.GoNoGo3.icon";"trial.GoNoGo3.location";"trial.GoNoGo3.outcome";"trial.GoNoGo3.response";"trial.GoNoGo3.result";"trial.GoNoGo3.RT";"trial.GoNoGo3.signal";"trial.GoNoGo3.startTime";"trial.GoNoGo3.stimulus type";"trial.GoNoGo4.durationTime";"trial.GoNoGo4.endTime";"trial.GoNoGo4.Error Type";"trial.GoNoGo4.icon";"trial.GoNoGo4.location";"trial.GoNoGo4.outcome";"trial.GoNoGo4.response";"trial.GoNoGo4.result";"trial.GoNoGo4.RT";"trial.GoNoGo4.signal";"trial.GoNoGo4.startTime";"trial.GoNoGo4.stimulus type";"trial.GoNoGo_Practice.durationTime";"trial.GoNoGo_Practice.endTime";"trial.GoNoGo_Practice.icon";"trial.GoNoGo_Practice.location";"trial.GoNoGo_Practice.outcome";"trial.GoNoGo_Practice.response";"trial.GoNoGo_Practice.result";"trial.GoNoGo_Practice.RT";"trial.GoNoGo_Practice.signal";"trial.GoNoGo_Practice.startTime";"trial.GoNoGo_Practice.stimulus type";"trial.GoNoGo_Tutorial.durationTime";"trial.GoNoGo_Tutorial.endTime";"trial.GoNoGo_Tutorial.icon";"trial.GoNoGo_Tutorial.location";"trial.GoNoGo_Tutorial.outcome";"trial.GoNoGo_Tutorial.response";"trial.GoNoGo_Tutorial.result";"trial.GoNoGo_Tutorial.RT";"trial.GoNoGo_Tutorial.signal";"trial.GoNoGo_Tutorial.startTime"
"C1303336";;;"Windows 7";"Rachel's Experiment (D.T.)";"1.0";"2";"1";"1";"2";"1";"1";"2014-10-15 16:22:09.541";"2014-10-15 16:36:20.241";"1";"0";"1";"1";"0";"module.GoNoGotutorial.exec-3307.GoNoGo_Tutorial";;;;;;;;;;;;;;;;;;;;;;;;;;;;;;;;;;;;;;;;;;;;;;;;;;;;;;;;;;;;;;;;;;;;;;;;;;;;;;;;;;"3998";"2014-10-15 16:24:25.838";"leftResponse";"0";"FINISHED";"LEFT";"success";"1948";"0";"2014-10-15 16:24:21.829"
"C1303336";;;"Windows 7";"Rachel's Experiment (D.T.)";"1.0";"2";"1";"1";"2";"1";"1";"2014-10-15 16:22:09.541";"2014-10-15 16:36:20.241";"1";"0";"1";"2";"1";"module.GoNoGotutorial.exec-3307.GoNoGo_Tutorial";;;;;;;;;;;;;;;;;;;;;;;;;;;;;;;;;;;;;;;;;;;;;;;;;;;;;;;;;;;;;;;;;;;;;;;;;;;;;;;;;;"4003";"2014-10-15 16:24:31.142";"rightResponse";"1";"FINISHED";"RIGHT";"success";"745";"0";"2014-10-15 16:24:27.133"
"C1303336";;;"Windows 7";"Rachel's Experiment (D.T.)";"1.0";"2";"1";"1";"2";"1";"1";"2014-10-15 16:22:09.541";"2014-10-15 16:36:20.241";"1";"0";"1";"3";"2";"module.GoNoGotutorial.exec-3307.GoNoGo_Tutorial";;;;;;;;;;;;;;;;;;;;;;;;;;;;;;;;;;;;;;;;;;;;;;;;;;;;;;;;;;;;;;;;;;;;;;;;;;;;;;;;;;"4003";"2014-10-15 16:24:36.446";"signalResponse";"0";"FINISHED";"NONE";"success";"0";"1";"2014-10-15 16:24:32.437"
"C1303336";;;"Windows 7";"Rachel's Experiment (D.T.)";"1.0";"2";"1";"1";"2";"1";"1";"2014-10-15 16:22:09.541";"2014-10-15 16:36:20.241";"1";"0";"1";"4";"3";"module.GoNoGopractice.exec-8384.GoNoGo_Practice";;;;;;;;;;;;;;;;;;;;;;;;;;;;;;;;;;;;;;;;;;;;;;;;;;;;;;;;;;;;;;;;;;;;;;;"1959";"2014-10-15 16:24:45.432";"18";"0";"FINISHED";"LEFT";"success";"379";"0";"2014-10-15 16:24:43.466";"3";;;;;;;;;;
"C1303336";;;"Windows 7";"Rachel's Experiment (D.T.)";"1.0";"2";"1";"1";"2";"1";"1";"2014-10-15 16:22:09.541";"2014-10-15 16:36:20.241";"1";"0";"1";"5";"4";"module.GoNoGopractice.exec-8384.GoNoGo_Practice";;;;;;;;;;;;;;;;;;;;;;;;;;;;;;;;;;;;;;;;;;;;;;;;;;;;;;;;;;;;;;;;;;;;;;;"1958";"2014-10-15 16:24:48.677";"21";"1";"FINISHED";"RIGHT";"success";"302";"0";"2014-10-15 16:24:46.711";"3";;;;;;;;;;
"C1303336";;;"Windows 7";"Rachel's Experiment (D.T.)";"1.0";"2";"1";"1";"2";"1";"1";"2014-10-15 16:22:09.541";"2014-10-15 16:36:20.241";"1";"0";"1";"6";"5";"module.GoNoGopractice.exec-8384.GoNoGo_Practice";;;;;;;;;;;;;;;;;;;;;;;;;;;;;;;;;;;;;;;;;;;;;;;;;;;;;;;;;;;;;;;;;;;;;;;"1959";"2014-10-15 16:24:51.921";"14";"1";"FINISHED";"RIGHT";"failure";"674";"1";"2014-10-15 16:24:49.956";"2";;;;;;;;;;
"C1303336";;;"Windows 7";"Rachel's Experiment (D.T.)";"1.0";"2";"1";"1";"2";"1";"1";"2014-10-15 16:22:09.541";"2014-10-15 16:36:20.241";"1";"0";"1";"7";"6";"module.GoNoGopractice.exec-8384.GoNoGo_Practice";;;;;;;;;;;;;;;;;;;;;;;;;;;;;;;;;;;;;;;;;;;;;;;;;;;;;;;;;;;;;;;;;;;;;;;"1959";"2014-10-15 16:24:55.166";"26";"0";"FINISHED";"LEFT";"success";"726";"0";"2014-10-15 16:24:53.201";"3";;;;;;;;;;
"C1303336";;;"Windows 7";"Rachel's Experiment (D.T.)";"1.0";"2";"1";"1";"2";"1";"1";"2014-10-15 16:22:09.541";"2014-10-15 16:36:20.241";"1";"0";"1";"8";"7";"module.GoNoGopractice.exec-8384.GoNoGo_Practice";;;;;;;;;;;;;;;;;;;;;;;;;;;;;;;;;;;;;;;;;;;;;;;;;;;;;;;;;;;;;;;;;;;;;;;"1959";"2014-10-15 16:24:58.411";"2";"0";"FINISHED";"LEFT";"success";"649";"0";"2014-10-15 16:24:56.445";"1";;;;;;;;;;
"C1303336";;;"Windows 7";"Rachel's Experiment (D.T.)";"1.0";"2";"1";"1";"2";"1";"1";"2014-10-15 16:22:09.541";"2014-10-15 16:36:20.241";"1";"0";"1";"9";"8";"module.GoNoGopractice.exec-8384.GoNoGo_Practice";;;;;;;;;;;;;;;;;;;;;;;;;;;;;;;;;;;;;;;;;;;;;;;;;;;;;;;;;;;;;;;;;;;;;;;"1960";"2014-10-15 16:25:01.656";"30";"0";"FINISHED";"LEFT";"failure";"844";"1";"2014-10-15 16:24:59.690";"3";;;;;;;;;;
"C1303336";;;"Windows 7";"Rachel's Experiment (D.T.)";"1.0";"2";"1";"1";"2";"1";"1";"2014-10-15 16:22:09.541";"2014-10-15 16:36:20.241";"1";"0";"1";"10";"9";"module.GoNoGopractice.exec-8384.GoNoGo_Practice";;;;;;;;;;;;;;;;;;;;;;;;;;;;;;;;;;;;;;;;;;;;;;;;;;;;;;;;;;;;;;;;;;;;;;;"1959";"2014-10-15 16:25:04.901";"6";"1";"FINISHED";"RIGHT";"failure";"583";"1";"2014-10-15 16:25:02.935";"1";;;;;;;;;;
"C1303336";;;"Windows 7";"Rachel's Experiment (D.T.)";"1.0";"2";"1";"1";"2";"1";"1";"2014-10-15 16:22:09.541";"2014-10-15 16:36:20.241";"1";"0";"1";"11";"10";"module.GoNoGopractice.exec-8384.GoNoGo_Practice";;;;;;;;;;;;;;;;;;;;;;;;;;;;;;;;;;;;;;;;;;;;;;;;;;;;;;;;;;;;;;;;;;;;;;;"1960";"2014-10-15 16:25:08.145";"34";"0";"FINISHED";"NONE";"failure";"0";"0";"2014-10-15 16:25:06.180";"3";;;;;;;;;;
"C1303336";;;"Windows 7";"Rachel's Experiment (D.T.)";"1.0";"2";"1";"1";"2";"1";"1";"2014-10-15 16:22:09.541";"2014-10-15 16:36:20.241";"1";"0";"1";"12";"11";"module.GoNoGopractice.exec-8384.GoNoGo_Practice";;;;;;;;;;;;;;;;;;;;;;;;;;;;;;;;;;;;;;;;;;;;;;;;;;;;;;;;;;;;;;;;;;;;;;;"1952";"2014-10-15 16:25:11.484";"23";"1";"FINISHED";"RIGHT";"success";"465";"0";"2014-10-15 16:25:09.518";"3";;;;;;;;;;
"C1303336";;;"Windows 7";"Rachel's Experiment (D.T.)";"1.0";"2";"1";"1";"2";"1";"1";"2014-10-15 16:22:09.541";"2014-10-15 16:36:20.241";"1";"0";"1";"13";"12";"module.GoNoGopractice.exec-8384.GoNoGo_Practice";;;;;;;;;;;;;;;;;;;;;;;;;;;;;;;;;;;;;;;;;;;;;;;;;;;;;;;;;;;;;;;;;;;;;;;"1959";"2014-10-15 16:25:14.729";"13";"0";"FINISHED";"LEFT";"failure";"787";"1";"2014-10-15 16:25:12.763";"2";;;;;;;;;;
"C1303336";;;"Windows 7";"Rachel's Experiment (D.T.)";"1.0";"2";"1";"1";"2";"1";"1";"2014-10-15 16:22:09.541";"2014-10-15 16:36:20.241";"1";"0";"1";"14";"13";"module.GoNoGopractice.exec-8384.GoNoGo_Practice";;;;;;;;;;;;;;;;;;;;;;;;;;;;;;;;;;;;;;;;;;;;;;;;;;;;;;;;;;;;;;;;;;;;;;;"1960";"2014-10-15 16:25:17.973";"3";"1";"FINISHED";"RIGHT";"success";"415";"0";"2014-10-15 16:25:16.008";"1";;;;;;;;;;
"C1303336";;;"Windows 7";"Rachel's Experiment (D.T.)";"1.0";"2";"1";"1";"2";"1";"1";"2014-10-15 16:22:09.541";"2014-10-15 16:36:20.241";"1";"0";"1";"15";"14";"module.GoNoGopractice.exec-8384.GoNoGo_Practice";;;;;;;;;;;;;;;;;;;;;;;;;;;;;;;;;;;;;;;;;;;;;;;;;;;;;;;;;;;;;;;;;;;;;;;"1959";"2014-10-15 16:25:21.218";"27";"1";"FINISHED";"RIGHT";"failure";"393";"1";"2014-10-15 16:25:19.253";"3";;;;;;;;;;
"C1303336";;;"Windows 7";"Rachel's Experiment (D.T.)";"1.0";"2";"1";"1";"2";"1";"1";"2014-10-15 16:22:09.541";"2014-10-15 16:36:20.241";"1";"0";"1";"16";"15";"module.training_block1.exec-5064.GoNoGo1";;;;;;;;;;;;;;;;;;;;;;;"1257";"2014-10-15 16:25:35.087";"NST_correctLoc";"12";"1";"FINISHED";"RIGHT";"success";"342";"0";"2014-10-15 16:25:33.823";"2";;;;;;;;;;;;;;;;;;;;;;;;;;;;;;;;;;;;;;;;;;;;;;;;;;;;;;;;;
"C1303336";;;"Windows 7";"Rachel's Experiment (D.T.)";"1.0";"2";"1";"1";"2";"1";"1";"2014-10-15 16:22:09.541";"2014-10-15 16:36:20.241";"1";"0";"1";"17";"16";"module.training_block1.exec-5064.GoNoGo1";;;;;;;;;;;;;;;;;;;;;;;"1258";"2014-10-15 16:25:37.629";"NST_correctLoc";"29";"0";"FINISHED";"LEFT";"success";"392";"0";"2014-10-15 16:25:36.366";"3";;;;;;;;;;;;;;;;;;;;;;;;;;;;;;;;;;;;;;;;;;;;;;;;;;;;;;;;;
"C1303336";;;"Windows 7";"Rachel's Experiment (D.T.)";"1.0";"2";"1";"1";"2";"1";"1";"2014-10-15 16:22:09.541";"2014-10-15 16:36:20.241";"1";"0";"1";"18";"17";"module.training_block1.exec-5064.GoNoGo1";;;;;;;;;;;;;;;;;;;;;;;"1258";"2014-10-15 16:25:40.172";"ST_failedStop";"30";"1";"FINISHED";"RIGHT";"failure";"306";"1";"2014-10-15 16:25:38.909";"3";;;;;;;;;;;;;;;;;;;;;;;;;;;;;;;;;;;;;;;;;;;;;;;;;;;;;;;;;
"C1303336";;;"Windows 7";"Rachel's Experiment (D.T.)";"1.0";"2";"1";"1";"2";"1";"1";"2014-10-15 16:22:09.541";"2014-10-15 16:36:20.241";"1";"0";"1";"19";"18";"module.training_block1.exec-5064.GoNoGo1";;;;;;;;;;;;;;;;;;;;;;;"1257";"2014-10-15 16:25:42.715";"NST_correctLoc";"26";"1";"FINISHED";"RIGHT";"success";"498";"0";"2014-10-15 16:25:41.451";"3";;;;;;;;;;;;;;;;;;;;;;;;;;;;;;;;;;;;;;;;;;;;;;;;;;;;;;;;;
"C1303336";;;"Windows 7";"Rachel's Experiment (D.T.)";"1.0";"2";"1";"1";"2";"1";"1";"2014-10-15 16:22:09.541";"2014-10-15 16:36:20.241";"1";"0";"1";"20";"19";"module.training_block1.exec-5064.GoNoGo1";;;;;;;;;;;;;;;;;;;;;;;"1258";"2014-10-15 16:25:45.258";"ST_correctStop";"25";"1";"FINISHED";"NONE";"success";"0";"1";"2014-10-15 16:25:43.994";"3";;;;;;;;;;;;;;;;;;;;;;;;;;;;;;;;;;;;;;;;;;;;;;;;;;;;;;;;;
"C1303336";;;"Windows 7";"Rachel's Experiment (D.T.)";"1.0";"2";"1";"1";"2";"1";"1";"2014-10-15 16:22:09.541";"2014-10-15 16:36:20.241";"1";"0";"1";"21";"20";"module.training_block1.exec-5064.GoNoGo1";;;;;;;;;;;;;;;;;;;;;;;"1261";"2014-10-15 16:25:47.801";"NST_correctLoc";"27";"0";"FINISHED";"LEFT";"success";"313";"0";"2014-10-15 16:25:46.537";"3";;;;;;;;;;;;;;;;;;;;;;;;;;;;;;;;;;;;;;;;;;;;;;;;;;;;;;;;;
"C1303336";;;"Windows 7";"Rachel's Experiment (D.T.)";"1.0";"2";"1";"1";"2";"1";"1";"2014-10-15 16:22:09.541";"2014-10-15 16:36:20.241";"1";"0";"1";"22";"21";"module.training_block1.exec-5064.GoNoGo1";;;;;;;;;;;;;;;;;;;;;;;"1257";"2014-10-15 16:25:50.343";"ST_failedStop";"31";"1";"FINISHED";"RIGHT";"failure";"294";"1";"2014-10-15 16:25:49.080";"3";;;;;;;;;;;;;;;;;;;;;;;;;;;;;;;;;;;;;;;;;;;;;;;;;;;;;;;;;
"C1303336";;;"Windows 7";"Rachel's Experiment (D.T.)";"1.0";"2";"1";"1";"2";"1";"1";"2014-10-15 16:22:09.541";"2014-10-15 16:36:20.241";"1";"0";"1";"23";"22";"module.training_block1.exec-5064.GoNoGo1";;;;;;;;;;;;;;;;;;;;;;;"1256";"2014-10-15 16:25:52.886";"ST_failedStop";"21";"1";"FINISHED";"RIGHT";"failure";"342";"1";"2014-10-15 16:25:51.623";"3";;;;;;;;;;;;;;;;;;;;;;;;;;;;;;;;;;;;;;;;;;;;;;;;;;;;;;;;;
"C1303336";;;"Windows 7";"Rachel's Experiment (D.T.)";"1.0";"2";"1";"1";"2";"1";"1";"2014-10-15 16:22:09.541";"2014-10-15 16:36:20.241";"1";"0";"1";"24";"23";"module.training_block1.exec-5064.GoNoGo1";;;;;;;;;;;;;;;;;;;;;;;"1258";"2014-10-15 16:25:55.429";"ST_correctStop";"33";"1";"FINISHED";"NONE";"success";"0";"1";"2014-10-15 16:25:54.166";"3";;;;;;;;;;;;;;;;;;;;;;;;;;;;;;;;;;;;;;;;;;;;;;;;;;;;;;;;;
"C1303336";;;"Windows 7";"Rachel's Experiment (D.T.)";"1.0";"2";"1";"1";"2";"1";"1";"2014-10-15 16:22:09.541";"2014-10-15 16:36:20.241";"1";"0";"1";"25";"24";"module.training_block1.exec-5064.GoNoGo1";;;;;;;;;;;;;;;;;;;;;;;"1261";"2014-10-15 16:25:57.972";"NST_correctLoc";"13";"0";"FINISHED";"LEFT";"success";"333";"0";"2014-10-15 16:25:56.708";"2";;;;;;;;;;;;;;;;;;;;;;;;;;;;;;;;;;;;;;;;;;;;;;;;;;;;;;;;;
"C1303336";;;"Windows 7";"Rachel's Experiment (D.T.)";"1.0";"2";"1";"1";"2";"1";"1";"2014-10-15 16:22:09.541";"2014-10-15 16:36:20.241";"1";"0";"1";"26";"25";"module.training_block1.exec-5064.GoNoGo1";;;;;;;;;;;;;;;;;;;;;;;"1253";"2014-10-15 16:26:00.515";"NST_correctLoc";"14";"1";"FINISHED";"RIGHT";"success";"326";"0";"2014-10-15 16:25:59.251";"2";;;;;;;;;;;;;;;;;;;;;;;;;;;;;;;;;;;;;;;;;;;;;;;;;;;;;;;;;
"C1303336";;;"Windows 7";"Rachel's Experiment (D.T.)";"1.0";"2";"1";"1";"2";"1";"1";"2014-10-15 16:22:09.541";"2014-10-15 16:36:20.241";"1";"0";"1";"27";"26";"module.training_block1.exec-5064.GoNoGo1";;;;;;;;;;;;;;;;;;;;;;;"1257";"2014-10-15 16:26:03.058";"NST_correctLoc";"32";"0";"FINISHED";"LEFT";"success";"564";"0";"2014-10-15 16:26:01.794";"3";;;;;;;;;;;;;;;;;;;;;;;;;;;;;;;;;;;;;;;;;;;;;;;;;;;;;;;;;
"C1303336";;;"Windows 7";"Rachel's Experiment (D.T.)";"1.0";"2";"1";"1";"2";"1";"1";"2014-10-15 16:22:09.541";"2014-10-15 16:36:20.241";"1";"0";"1";"28";"27";"module.training_block1.exec-5064.GoNoGo1";;;;;;;;;;;;;;;;;;;;;;;"1258";"2014-10-15 16:26:05.600";"ST_correctStop";"18";"1";"FINISHED";"NONE";"success";"0";"1";"2014-10-15 16:26:04.337";"3";;;;;;;;;;;;;;;;;;;;;;;;;;;;;;;;;;;;;;;;;;;;;;;;;;;;;;;;;
"C1303336";;;"Windows 7";"Rachel's Experiment (D.T.)";"1.0";"2";"1";"1";"2";"1";"1";"2014-10-15 16:22:09.541";"2014-10-15 16:36:20.241";"1";"0";"1";"29";"28";"module.training_block1.exec-5064.GoNoGo1";;;;;;;;;;;;;;;;;;;;;;;"1261";"2014-10-15 16:26:08.143";"ST_correctStop";"3";"0";"FINISHED";"NONE";"success";"0";"1";"2014-10-15 16:26:06.880";"1";;;;;;;;;;;;;;;;;;;;;;;;;;;;;;;;;;;;;;;;;;;;;;;;;;;;;;;;;
"C1303336";;;"Windows 7";"Rachel's Experiment (D.T.)";"1.0";"2";"1";"1";"2";"1";"1";"2014-10-15 16:22:09.541";"2014-10-15 16:36:20.241";"1";"0";"1";"30";"29";"module.training_block1.exec-5064.GoNoGo1";;;;;;;;;;;;;;;;;;;;;;;"1258";"2014-10-15 16:26:10.686";"ST_failedStop";"24";"1";"FINISHED";"RIGHT";"failure";"416";"1";"2014-10-15 16:26:09.422";"3";;;;;;;;;;;;;;;;;;;;;;;;;;;;;;;;;;;;;;;;;;;;;;;;;;;;;;;;;
"C1303336";;;"Windows 7";"Rachel's Experiment (D.T.)";"1.0";"2";"1";"1";"2";"1";"1";"2014-10-15 16:22:09.541";"2014-10-15 16:36:20.241";"1";"0";"1";"31";"30";"module.training_block1.exec-5064.GoNoGo1";;;;;;;;;;;;;;;;;;;;;;;"1257";"2014-10-15 16:26:13.229";"NST_correctLoc";"17";"0";"FINISHED";"LEFT";"success";"312";"0";"2014-10-15 16:26:11.965";"2";;;;;;;;;;;;;;;;;;;;;;;;;;;;;;;;;;;;;;;;;;;;;;;;;;;;;;;;;
"C1303336";;;"Windows 7";"Rachel's Experiment (D.T.)";"1.0";"2";"1";"1";"2";"1";"1";"2014-10-15 16:22:09.541";"2014-10-15 16:36:20.241";"1";"0";"1";"32";"31";"module.training_block1.exec-5064.GoNoGo1";;;;;;;;;;;;;;;;;;;;;;;"1257";"2014-10-15 16:26:15.772";"ST_correctStop";"0";"0";"FINISHED";"NONE";"success";"0";"1";"2014-10-15 16:26:14.508";"1";;;;;;;;;;;;;;;;;;;;;;;;;;;;;;;;;;;;;;;;;;;;;;;;;;;;;;;;;
"C1303336";;;"Windows 7";"Rachel's Experiment (D.T.)";"1.0";"2";"1";"1";"2";"1";"1";"2014-10-15 16:22:09.541";"2014-10-15 16:36:20.241";"1";"0";"1";"33";"32";"module.training_block1.exec-5064.GoNoGo1";;;;;;;;;;;;;;;;;;;;;;;"1258";"2014-10-15 16:26:18.314";"NST_correctLoc";"9";"1";"FINISHED";"RIGHT";"success";"323";"0";"2014-10-15 16:26:17.051";"2";;;;;;;;;;;;;;;;;;;;;;;;;;;;;;;;;;;;;;;;;;;;;;;;;;;;;;;;;
"C1303336";;;"Windows 7";"Rachel's Experiment (D.T.)";"1.0";"2";"1";"1";"2";"1";"1";"2014-10-15 16:22:09.541";"2014-10-15 16:36:20.241";"1";"0";"1";"34";"33";"module.training_block1.exec-5064.GoNoGo1";;;;;;;;;;;;;;;;;;;;;;;"1261";"2014-10-15 16:26:20.857";"ST_correctStop";"23";"0";"FINISHED";"NONE";"success";"0";"1";"2014-10-15 16:26:19.594";"3";;;;;;;;;;;;;;;;;;;;;;;;;;;;;;;;;;;;;;;;;;;;;;;;;;;;;;;;;
"C1303336";;;"Windows 7";"Rachel's Experiment (D.T.)";"1.0";"2";"1";"1";"2";"1";"1";"2014-10-15 16:22:09.541";"2014-10-15 16:36:20.241";"1";"0";"1";"35";"34";"module.training_block1.exec-5064.GoNoGo1";;;;;;;;;;;;;;;;;;;;;;;"1257";"2014-10-15 16:26:23.400";"NST_correctLoc";"16";"0";"FINISHED";"LEFT";"success";"412";"0";"2014-10-15 16:26:22.136";"2";;;;;;;;;;;;;;;;;;;;;;;;;;;;;;;;;;;;;;;;;;;;;;;;;;;;;;;;;
"C1303336";;;"Windows 7";"Rachel's Experiment (D.T.)";"1.0";"2";"1";"1";"2";"1";"1";"2014-10-15 16:22:09.541";"2014-10-15 16:36:20.241";"1";"0";"1";"36";"35";"module.training_block1.exec-5064.GoNoGo1";;;;;;;;;;;;;;;;;;;;;;;"1258";"2014-10-15 16:26:25.943";"ST_correctStop";"5";"1";"FINISHED";"NONE";"success";"0";"1";"2014-10-15 16:26:24.679";"1";;;;;;;;;;;;;;;;;;;;;;;;;;;;;;;;;;;;;;;;;;;;;;;;;;;;;;;;;
"C1303336";;;"Windows 7";"Rachel's Experiment (D.T.)";"1.0";"2";"1";"1";"2";"1";"1";"2014-10-15 16:22:09.541";"2014-10-15 16:36:20.241";"1";"0";"1";"37";"36";"module.training_block1.exec-5064.GoNoGo1";;;;;;;;;;;;;;;;;;;;;;;"1258";"2014-10-15 16:26:28.486";"NST_correctLoc";"20";"1";"FINISHED";"RIGHT";"success";"528";"0";"2014-10-15 16:26:27.222";"3";;;;;;;;;;;;;;;;;;;;;;;;;;;;;;;;;;;;;;;;;;;;;;;;;;;;;;;;;
"C1303336";;;"Windows 7";"Rachel's Experiment (D.T.)";"1.0";"2";"1";"1";"2";"1";"1";"2014-10-15 16:22:09.541";"2014-10-15 16:36:20.241";"1";"0";"1";"38";"37";"module.training_block1.exec-5064.GoNoGo1";;;;;;;;;;;;;;;;;;;;;;;"1258";"2014-10-15 16:26:31.028";"ST_correctStop";"1";"0";"FINISHED";"NONE";"success";"0";"1";"2014-10-15 16:26:29.765";"1";;;;;;;;;;;;;;;;;;;;;;;;;;;;;;;;;;;;;;;;;;;;;;;;;;;;;;;;;
"C1303336";;;"Windows 7";"Rachel's Experiment (D.T.)";"1.0";"2";"1";"1";"2";"1";"1";"2014-10-15 16:22:09.541";"2014-10-15 16:36:20.241";"1";"0";"1";"39";"38";"module.training_block1.exec-5064.GoNoGo1";;;;;;;;;;;;;;;;;;;;;;;"1258";"2014-10-15 16:26:33.571";"NST_correctLoc";"35";"1";"FINISHED";"RIGHT";"success";"322";"0";"2014-10-15 16:26:32.308";"3";;;;;;;;;;;;;;;;;;;;;;;;;;;;;;;;;;;;;;;;;;;;;;;;;;;;;;;;;
"C1303336";;;"Windows 7";"Rachel's Experiment (D.T.)";"1.0";"2";"1";"1";"2";"1";"1";"2014-10-15 16:22:09.541";"2014-10-15 16:36:20.241";"1";"0";"1";"40";"39";"module.training_block1.exec-5064.GoNoGo1";;;;;;;;;;;;;;;;;;;;;;;"1258";"2014-10-15 16:26:36.114";"NST_correctLoc";"34";"1";"FINISHED";"RIGHT";"success";"348";"0";"2014-10-15 16:26:34.850";"3";;;;;;;;;;;;;;;;;;;;;;;;;;;;;;;;;;;;;;;;;;;;;;;;;;;;;;;;;
"C1303336";;;"Windows 7";"Rachel's Experiment (D.T.)";"1.0";"2";"1";"1";"2";"1";"1";"2014-10-15 16:22:09.541";"2014-10-15 16:36:20.241";"1";"0";"1";"41";"40";"module.training_block1.exec-5064.GoNoGo1";;;;;;;;;;;;;;;;;;;;;;;"1258";"2014-10-15 16:26:38.657";"NST_correctLoc";"28";"1";"FINISHED";"RIGHT";"success";"317";"0";"2014-10-15 16:26:37.393";"3";;;;;;;;;;;;;;;;;;;;;;;;;;;;;;;;;;;;;;;;;;;;;;;;;;;;;;;;;
"C1303336";;;"Windows 7";"Rachel's Experiment (D.T.)";"1.0";"2";"1";"1";"2";"1";"1";"2014-10-15 16:22:09.541";"2014-10-15 16:36:20.241";"1";"0";"1";"42";"41";"module.training_block1.exec-5064.GoNoGo1";;;;;;;;;;;;;;;;;;;;;;;"1253";"2014-10-15 16:26:41.200";"ST_correctStop";"4";"1";"FINISHED";"NONE";"success";"0";"1";"2014-10-15 16:26:39.936";"1";;;;;;;;;;;;;;;;;;;;;;;;;;;;;;;;;;;;;;;;;;;;;;;;;;;;;;;;;
"C1303336";;;"Windows 7";"Rachel's Experiment (D.T.)";"1.0";"2";"1";"1";"2";"1";"1";"2014-10-15 16:22:09.541";"2014-10-15 16:36:20.241";"1";"0";"1";"43";"42";"module.training_block1.exec-5064.GoNoGo1";;;;;;;;;;;;;;;;;;;;;;;"1257";"2014-10-15 16:26:43.742";"ST_failedStop";"6";"0";"FINISHED";"LEFT";"failure";"479";"1";"2014-10-15 16:26:42.479";"1";;;;;;;;;;;;;;;;;;;;;;;;;;;;;;;;;;;;;;;;;;;;;;;;;;;;;;;;;
"C1303336";;;"Windows 7";"Rachel's Experiment (D.T.)";"1.0";"2";"1";"1";"2";"1";"1";"2014-10-15 16:22:09.541";"2014-10-15 16:36:20.241";"1";"0";"1";"44";"43";"module.training_block1.exec-5064.GoNoGo1";;;;;;;;;;;;;;;;;;;;;;;"1258";"2014-10-15 16:26:46.285";"NST_correctLoc";"10";"1";"FINISHED";"RIGHT";"success";"432";"0";"2014-10-15 16:26:45.022";"2";;;;;;;;;;;;;;;;;;;;;;;;;;;;;;;;;;;;;;;;;;;;;;;;;;;;;;;;;
"C1303336";;;"Windows 7";"Rachel's Experiment (D.T.)";"1.0";"2";"1";"1";"2";"1";"1";"2014-10-15 16:22:09.541";"2014-10-15 16:36:20.241";"1";"0";"1";"45";"44";"module.training_block1.exec-5064.GoNoGo1";;;;;;;;;;;;;;;;;;;;;;;"1258";"2014-10-15 16:26:48.828";"ST_correctStop";"19";"0";"FINISHED";"NONE";"success";"0";"1";"2014-10-15 16:26:47.564";"3";;;;;;;;;;;;;;;;;;;;;;;;;;;;;;;;;;;;;;;;;;;;;;;;;;;;;;;;;
"C1303336";;;"Windows 7";"Rachel's Experiment (D.T.)";"1.0";"2";"1";"1";"2";"1";"1";"2014-10-15 16:22:09.541";"2014-10-15 16:36:20.241";"1";"0";"1";"46";"45";"module.training_block1.exec-5064.GoNoGo1";;;;;;;;;;;;;;;;;;;;;;;"1257";"2014-10-15 16:26:51.371";"NST_correctLoc";"15";"1";"FINISHED";"RIGHT";"success";"394";"0";"2014-10-15 16:26:50.107";"2";;;;;;;;;;;;;;;;;;;;;;;;;;;;;;;;;;;;;;;;;;;;;;;;;;;;;;;;;
"C1303336";;;"Windows 7";"Rachel's Experiment (D.T.)";"1.0";"2";"1";"1";"2";"1";"1";"2014-10-15 16:22:09.541";"2014-10-15 16:36:20.241";"1";"0";"1";"47";"46";"module.training_block1.exec-5064.GoNoGo1";;;;;;;;;;;;;;;;;;;;;;;"1257";"2014-10-15 16:26:53.914";"NST_correctLoc";"22";"0";"FINISHED";"LEFT";"success";"523";"0";"2014-10-15 16:26:52.650";"3";;;;;;;;;;;;;;;;;;;;;;;;;;;;;;;;;;;;;;;;;;;;;;;;;;;;;;;;;
"C1303336";;;"Windows 7";"Rachel's Experiment (D.T.)";"1.0";"2";"1";"1";"2";"1";"1";"2014-10-15 16:22:09.541";"2014-10-15 16:36:20.241";"1";"0";"1";"48";"47";"module.training_block1.exec-5064.GoNoGo1";;;;;;;;;;;;;;;;;;;;;;;"1257";"2014-10-15 16:26:56.456";"ST_correctStop";"7";"0";"FINISHED";"NONE";"success";"0";"1";"2014-10-15 16:26:55.193";"1";;;;;;;;;;;;;;;;;;;;;;;;;;;;;;;;;;;;;;;;;;;;;;;;;;;;;;;;;
"C1303336";;;"Windows 7";"Rachel's Experiment (D.T.)";"1.0";"2";"1";"1";"2";"1";"1";"2014-10-15 16:22:09.541";"2014-10-15 16:36:20.241";"1";"0";"1";"49";"48";"module.training_block1.exec-5064.GoNoGo1";;;;;;;;;;;;;;;;;;;;;;;"1257";"2014-10-15 16:26:58.999";"ST_correctStop";"2";"1";"FINISHED";"NONE";"success";"0";"1";"2014-10-15 16:26:57.736";"1";;;;;;;;;;;;;;;;;;;;;;;;;;;;;;;;;;;;;;;;;;;;;;;;;;;;;;;;;
"C1303336";;;"Windows 7";"Rachel's Experiment (D.T.)";"1.0";"2";"1";"1";"2";"1";"1";"2014-10-15 16:22:09.541";"2014-10-15 16:36:20.241";"1";"0";"1";"50";"49";"module.training_block1.exec-5064.GoNoGo1";;;;;;;;;;;;;;;;;;;;;;;"1258";"2014-10-15 16:27:01.542";"NST_correctLoc";"11";"1";"FINISHED";"RIGHT";"success";"375";"0";"2014-10-15 16:27:00.278";"2";;;;;;;;;;;;;;;;;;;;;;;;;;;;;;;;;;;;;;;;;;;;;;;;;;;;;;;;;
"C1303336";;;"Windows 7";"Rachel's Experiment (D.T.)";"1.0";"2";"1";"1";"2";"1";"1";"2014-10-15 16:22:09.541";"2014-10-15 16:36:20.241";"1";"0";"1";"51";"50";"module.training_block1.exec-5064.GoNoGo1";;;;;;;;;;;;;;;;;;;;;;;"1257";"2014-10-15 16:27:04.085";"ST_correctStop";"8";"0";"FINISHED";"NONE";"success";"0";"1";"2014-10-15 16:27:02.821";"1";;;;;;;;;;;;;;;;;;;;;;;;;;;;;;;;;;;;;;;;;;;;;;;;;;;;;;;;;
"C1303336";;;"Windows 7";"Rachel's Experiment (D.T.)";"1.0";"2";"1";"1";"2";"1";"1";"2014-10-15 16:22:09.541";"2014-10-15 16:36:20.241";"1";"0";"1";"52";"51";"module.training_block2.exec-7503.GoNoGo2";;;;;;;;;;;;;;;;;;;;;;;;;;;;;;;;;;;"1261";"2014-10-15 16:27:15.176";"NST_correctLoc";"14";"0";"FINISHED";"LEFT";"success";"504";"0";"2014-10-15 16:27:13.913";"2";;;;;;;;;;;;;;;;;;;;;;;;;;;;;;;;;;;;;;;;;;;;;
"C1303336";;;"Windows 7";"Rachel's Experiment (D.T.)";"1.0";"2";"1";"1";"2";"1";"1";"2014-10-15 16:22:09.541";"2014-10-15 16:36:20.241";"1";"0";"1";"53";"52";"module.training_block2.exec-7503.GoNoGo2";;;;;;;;;;;;;;;;;;;;;;;;;;;;;;;;;;;"1261";"2014-10-15 16:27:17.719";"NST_correctLoc";"23";"0";"FINISHED";"LEFT";"success";"482";"0";"2014-10-15 16:27:16.456";"3";;;;;;;;;;;;;;;;;;;;;;;;;;;;;;;;;;;;;;;;;;;;;
"C1303336";;;"Windows 7";"Rachel's Experiment (D.T.)";"1.0";"2";"1";"1";"2";"1";"1";"2014-10-15 16:22:09.541";"2014-10-15 16:36:20.241";"1";"0";"1";"54";"53";"module.training_block2.exec-7503.GoNoGo2";;;;;;;;;;;;;;;;;;;;;;;;;;;;;;;;;;;"1261";"2014-10-15 16:27:20.262";"NST_correctLoc";"17";"1";"FINISHED";"RIGHT";"success";"387";"0";"2014-10-15 16:27:18.998";"2";;;;;;;;;;;;;;;;;;;;;;;;;;;;;;;;;;;;;;;;;;;;;
"C1303336";;;"Windows 7";"Rachel's Experiment (D.T.)";"1.0";"2";"1";"1";"2";"1";"1";"2014-10-15 16:22:09.541";"2014-10-15 16:36:20.241";"1";"0";"1";"55";"54";"module.training_block2.exec-7503.GoNoGo2";;;;;;;;;;;;;;;;;;;;;;;;;;;;;;;;;;;"1261";"2014-10-15 16:27:22.805";"NST_correctLoc";"21";"0";"FINISHED";"LEFT";"success";"492";"0";"2014-10-15 16:27:21.541";"3";;;;;;;;;;;;;;;;;;;;;;;;;;;;;;;;;;;;;;;;;;;;;
"C1303336";;;"Windows 7";"Rachel's Experiment (D.T.)";"1.0";"2";"1";"1";"2";"1";"1";"2014-10-15 16:22:09.541";"2014-10-15 16:36:20.241";"1";"0";"1";"56";"55";"module.training_block2.exec-7503.GoNoGo2";;;;;;;;;;;;;;;;;;;;;;;;;;;;;;;;;;;"1261";"2014-10-15 16:27:25.348";"ST_failedStop";"2";"1";"FINISHED";"RIGHT";"failure";"381";"1";"2014-10-15 16:27:24.084";"1";;;;;;;;;;;;;;;;;;;;;;;;;;;;;;;;;;;;;;;;;;;;;
"C1303336";;;"Windows 7";"Rachel's Experiment (D.T.)";"1.0";"2";"1";"1";"2";"1";"1";"2014-10-15 16:22:09.541";"2014-10-15 16:36:20.241";"1";"0";"1";"57";"56";"module.training_block2.exec-7503.GoNoGo2";;;;;;;;;;;;;;;;;;;;;;;;;;;;;;;;;;;"1261";"2014-10-15 16:27:27.890";"NST_correctLoc";"19";"1";"FINISHED";"RIGHT";"success";"366";"0";"2014-10-15 16:27:26.627";"3";;;;;;;;;;;;;;;;;;;;;;;;;;;;;;;;;;;;;;;;;;;;;
"C1303336";;;"Windows 7";"Rachel's Experiment (D.T.)";"1.0";"2";"1";"1";"2";"1";"1";"2014-10-15 16:22:09.541";"2014-10-15 16:36:20.241";"1";"0";"1";"58";"57";"module.training_block2.exec-7503.GoNoGo2";;;;;;;;;;;;;;;;;;;;;;;;;;;;;;;;;;;"1261";"2014-10-15 16:27:30.433";"ST_correctStop";"27";"0";"FINISHED";"NONE";"success";"0";"1";"2014-10-15 16:27:29.170";"3";;;;;;;;;;;;;;;;;;;;;;;;;;;;;;;;;;;;;;;;;;;;;
"C1303336";;;"Windows 7";"Rachel's Experiment (D.T.)";"1.0";"2";"1";"1";"2";"1";"1";"2014-10-15 16:22:09.541";"2014-10-15 16:36:20.241";"1";"0";"1";"59";"58";"module.training_block2.exec-7503.GoNoGo2";;;;;;;;;;;;;;;;;;;;;;;;;;;;;;;;;;;"1257";"2014-10-15 16:27:32.976";"NST_correctLoc";"10";"0";"FINISHED";"LEFT";"success";"436";"0";"2014-10-15 16:27:31.712";"2";;;;;;;;;;;;;;;;;;;;;;;;;;;;;;;;;;;;;;;;;;;;;
"C1303336";;;"Windows 7";"Rachel's Experiment (D.T.)";"1.0";"2";"1";"1";"2";"1";"1";"2014-10-15 16:22:09.541";"2014-10-15 16:36:20.241";"1";"0";"1";"60";"59";"module.training_block2.exec-7503.GoNoGo2";;;;;;;;;;;;;;;;;;;;;;;;;;;;;;;;;;;"1261";"2014-10-15 16:27:35.519";"ST_correctStop";"22";"1";"FINISHED";"NONE";"success";"0";"1";"2014-10-15 16:27:34.255";"3";;;;;;;;;;;;;;;;;;;;;;;;;;;;;;;;;;;;;;;;;;;;;
"C1303336";;;"Windows 7";"Rachel's Experiment (D.T.)";"1.0";"2";"1";"1";"2";"1";"1";"2014-10-15 16:22:09.541";"2014-10-15 16:36:20.241";"1";"0";"1";"61";"60";"module.training_block2.exec-7503.GoNoGo2";;;;;;;;;;;;;;;;;;;;;;;;;;;;;;;;;;;"1261";"2014-10-15 16:27:38.062";"ST_correctStop";"29";"1";"FINISHED";"NONE";"success";"0";"1";"2014-10-15 16:27:36.798";"3";;;;;;;;;;;;;;;;;;;;;;;;;;;;;;;;;;;;;;;;;;;;;
"C1303336";;;"Windows 7";"Rachel's Experiment (D.T.)";"1.0";"2";"1";"1";"2";"1";"1";"2014-10-15 16:22:09.541";"2014-10-15 16:36:20.241";"1";"0";"1";"62";"61";"module.training_block2.exec-7503.GoNoGo2";;;;;;;;;;;;;;;;;;;;;;;;;;;;;;;;;;;"1261";"2014-10-15 16:27:40.604";"ST_correctStop";"0";"0";"FINISHED";"NONE";"success";"0";"1";"2014-10-15 16:27:39.341";"1";;;;;;;;;;;;;;;;;;;;;;;;;;;;;;;;;;;;;;;;;;;;;
"C1303336";;;"Windows 7";"Rachel's Experiment (D.T.)";"1.0";"2";"1";"1";"2";"1";"1";"2014-10-15 16:22:09.541";"2014-10-15 16:36:20.241";"1";"0";"1";"63";"62";"module.training_block2.exec-7503.GoNoGo2";;;;;;;;;;;;;;;;;;;;;;;;;;;;;;;;;;;"1261";"2014-10-15 16:27:43.147";"NST_correctLoc";"33";"0";"FINISHED";"LEFT";"success";"381";"0";"2014-10-15 16:27:41.884";"3";;;;;;;;;;;;;;;;;;;;;;;;;;;;;;;;;;;;;;;;;;;;;
"C1303336";;;"Windows 7";"Rachel's Experiment (D.T.)";"1.0";"2";"1";"1";"2";"1";"1";"2014-10-15 16:22:09.541";"2014-10-15 16:36:20.241";"1";"0";"1";"64";"63";"module.training_block2.exec-7503.GoNoGo2";;;;;;;;;;;;;;;;;;;;;;;;;;;;;;;;;;;"1261";"2014-10-15 16:27:45.690";"NST_correctLoc";"30";"1";"FINISHED";"RIGHT";"success";"543";"0";"2014-10-15 16:27:44.426";"3";;;;;;;;;;;;;;;;;;;;;;;;;;;;;;;;;;;;;;;;;;;;;
"C1303336";;;"Windows 7";"Rachel's Experiment (D.T.)";"1.0";"2";"1";"1";"2";"1";"1";"2014-10-15 16:22:09.541";"2014-10-15 16:36:20.241";"1";"0";"1";"65";"64";"module.training_block2.exec-7503.GoNoGo2";;;;;;;;;;;;;;;;;;;;;;;;;;;;;;;;;;;"1261";"2014-10-15 16:27:48.233";"ST_correctStop";"3";"1";"FINISHED";"NONE";"success";"0";"1";"2014-10-15 16:27:46.969";"1";;;;;;;;;;;;;;;;;;;;;;;;;;;;;;;;;;;;;;;;;;;;;
"C1303336";;;"Windows 7";"Rachel's Experiment (D.T.)";"1.0";"2";"1";"1";"2";"1";"1";"2014-10-15 16:22:09.541";"2014-10-15 16:36:20.241";"1";"0";"1";"66";"65";"module.training_block2.exec-7503.GoNoGo2";;;;;;;;;;;;;;;;;;;;;;;;;;;;;;;;;;;"1261";"2014-10-15 16:27:50.776";"NST_correctLoc";"9";"0";"FINISHED";"LEFT";"success";"345";"0";"2014-10-15 16:27:49.512";"2";;;;;;;;;;;;;;;;;;;;;;;;;;;;;;;;;;;;;;;;;;;;;
"C1303336";;;"Windows 7";"Rachel's Experiment (D.T.)";"1.0";"2";"1";"1";"2";"1";"1";"2014-10-15 16:22:09.541";"2014-10-15 16:36:20.241";"1";"0";"1";"67";"66";"module.training_block2.exec-7503.GoNoGo2";;;;;;;;;;;;;;;;;;;;;;;;;;;;;;;;;;;"1261";"2014-10-15 16:27:53.334";"NST_correctLoc";"26";"1";"FINISHED";"RIGHT";"success";"394";"0";"2014-10-15 16:27:52.071";"3";;;;;;;;;;;;;;;;;;;;;;;;;;;;;;;;;;;;;;;;;;;;;
"C1303336";;;"Windows 7";"Rachel's Experiment (D.T.)";"1.0";"2";"1";"1";"2";"1";"1";"2014-10-15 16:22:09.541";"2014-10-15 16:36:20.241";"1";"0";"1";"68";"67";"module.training_block2.exec-7503.GoNoGo2";;;;;;;;;;;;;;;;;;;;;;;;;;;;;;;;;;;"1261";"2014-10-15 16:27:55.877";"NST_correctLoc";"35";"1";"FINISHED";"RIGHT";"success";"396";"0";"2014-10-15 16:27:54.613";"3";;;;;;;;;;;;;;;;;;;;;;;;;;;;;;;;;;;;;;;;;;;;;
"C1303336";;;"Windows 7";"Rachel's Experiment (D.T.)";"1.0";"2";"1";"1";"2";"1";"1";"2014-10-15 16:22:09.541";"2014-10-15 16:36:20.241";"1";"0";"1";"69";"68";"module.training_block2.exec-7503.GoNoGo2";;;;;;;;;;;;;;;;;;;;;;;;;;;;;;;;;;;"1261";"2014-10-15 16:27:58.420";"ST_correctStop";"4";"0";"FINISHED";"NONE";"success";"0";"1";"2014-10-15 16:27:57.156";"1";;;;;;;;;;;;;;;;;;;;;;;;;;;;;;;;;;;;;;;;;;;;;
"C1303336";;;"Windows 7";"Rachel's Experiment (D.T.)";"1.0";"2";"1";"1";"2";"1";"1";"2014-10-15 16:22:09.541";"2014-10-15 16:36:20.241";"1";"0";"1";"70";"69";"module.training_block2.exec-7503.GoNoGo2";;;;;;;;;;;;;;;;;;;;;;;;;;;;;;;;;;;"1261";"2014-10-15 16:28:00.963";"NST_correctLoc";"15";"1";"FINISHED";"RIGHT";"success";"398";"0";"2014-10-15 16:27:59.699";"2";;;;;;;;;;;;;;;;;;;;;;;;;;;;;;;;;;;;;;;;;;;;;
"C1303336";;;"Windows 7";"Rachel's Experiment (D.T.)";"1.0";"2";"1";"1";"2";"1";"1";"2014-10-15 16:22:09.541";"2014-10-15 16:36:20.241";"1";"0";"1";"71";"70";"module.training_block2.exec-7503.GoNoGo2";;;;;;;;;;;;;;;;;;;;;;;;;;;;;;;;;;;"1261";"2014-10-15 16:28:03.505";"NST_correctLoc";"16";"1";"FINISHED";"RIGHT";"success";"415";"0";"2014-10-15 16:28:02.242";"2";;;;;;;;;;;;;;;;;;;;;;;;;;;;;;;;;;;;;;;;;;;;;
"C1303336";;;"Windows 7";"Rachel's Experiment (D.T.)";"1.0";"2";"1";"1";"2";"1";"1";"2014-10-15 16:22:09.541";"2014-10-15 16:36:20.241";"1";"0";"1";"72";"71";"module.training_block2.exec-7503.GoNoGo2";;;;;;;;;;;;;;;;;;;;;;;;;;;;;;;;;;;"1261";"2014-10-15 16:28:06.048";"ST_correctStop";"7";"1";"FINISHED";"NONE";"success";"0";"1";"2014-10-15 16:28:04.785";"1";;;;;;;;;;;;;;;;;;;;;;;;;;;;;;;;;;;;;;;;;;;;;
"C1303336";;;"Windows 7";"Rachel's Experiment (D.T.)";"1.0";"2";"1";"1";"2";"1";"1";"2014-10-15 16:22:09.541";"2014-10-15 16:36:20.241";"1";"0";"1";"73";"72";"module.training_block2.exec-7503.GoNoGo2";;;;;;;;;;;;;;;;;;;;;;;;;;;;;;;;;;;"1261";"2014-10-15 16:28:08.591";"ST_correctStop";"1";"0";"FINISHED";"NONE";"success";"0";"1";"2014-10-15 16:28:07.327";"1";;;;;;;;;;;;;;;;;;;;;;;;;;;;;;;;;;;;;;;;;;;;;
"C1303336";;;"Windows 7";"Rachel's Experiment (D.T.)";"1.0";"2";"1";"1";"2";"1";"1";"2014-10-15 16:22:09.541";"2014-10-15 16:36:20.241";"1";"0";"1";"74";"73";"module.training_block2.exec-7503.GoNoGo2";;;;;;;;;;;;;;;;;;;;;;;;;;;;;;;;;;;"1261";"2014-10-15 16:28:11.134";"ST_correctStop";"5";"1";"FINISHED";"NONE";"success";"0";"1";"2014-10-15 16:28:09.870";"1";;;;;;;;;;;;;;;;;;;;;;;;;;;;;;;;;;;;;;;;;;;;;
"C1303336";;;"Windows 7";"Rachel's Experiment (D.T.)";"1.0";"2";"1";"1";"2";"1";"1";"2014-10-15 16:22:09.541";"2014-10-15 16:36:20.241";"1";"0";"1";"75";"74";"module.training_block2.exec-7503.GoNoGo2";;;;;;;;;;;;;;;;;;;;;;;;;;;;;;;;;;;"1261";"2014-10-15 16:28:13.677";"ST_correctStop";"24";"0";"FINISHED";"NONE";"success";"0";"1";"2014-10-15 16:28:12.413";"3";;;;;;;;;;;;;;;;;;;;;;;;;;;;;;;;;;;;;;;;;;;;;
"C1303336";;;"Windows 7";"Rachel's Experiment (D.T.)";"1.0";"2";"1";"1";"2";"1";"1";"2014-10-15 16:22:09.541";"2014-10-15 16:36:20.241";"1";"0";"1";"76";"75";"module.training_block2.exec-7503.GoNoGo2";;;;;;;;;;;;;;;;;;;;;;;;;;;;;;;;;;;"1261";"2014-10-15 16:28:16.219";"ST_correctStop";"6";"1";"FINISHED";"NONE";"success";"0";"1";"2014-10-15 16:28:14.956";"1";;;;;;;;;;;;;;;;;;;;;;;;;;;;;;;;;;;;;;;;;;;;;
"C1303336";;;"Windows 7";"Rachel's Experiment (D.T.)";"1.0";"2";"1";"1";"2";"1";"1";"2014-10-15 16:22:09.541";"2014-10-15 16:36:20.241";"1";"0";"1";"77";"76";"module.training_block2.exec-7503.GoNoGo2";;;;;;;;;;;;;;;;;;;;;;;;;;;;;;;;;;;"1261";"2014-10-15 16:28:18.762";"NST_correctLoc";"25";"0";"FINISHED";"LEFT";"success";"438";"0";"2014-10-15 16:28:17.499";"3";;;;;;;;;;;;;;;;;;;;;;;;;;;;;;;;;;;;;;;;;;;;;
"C1303336";;;"Windows 7";"Rachel's Experiment (D.T.)";"1.0";"2";"1";"1";"2";"1";"1";"2014-10-15 16:22:09.541";"2014-10-15 16:36:20.241";"1";"0";"1";"78";"77";"module.training_block2.exec-7503.GoNoGo2";;;;;;;;;;;;;;;;;;;;;;;;;;;;;;;;;;;"1261";"2014-10-15 16:28:21.305";"ST_correctStop";"28";"0";"FINISHED";"NONE";"success";"0";"1";"2014-10-15 16:28:20.041";"3";;;;;;;;;;;;;;;;;;;;;;;;;;;;;;;;;;;;;;;;;;;;;
"C1303336";;;"Windows 7";"Rachel's Experiment (D.T.)";"1.0";"2";"1";"1";"2";"1";"1";"2014-10-15 16:22:09.541";"2014-10-15 16:36:20.241";"1";"0";"1";"79";"78";"module.training_block2.exec-7503.GoNoGo2";;;;;;;;;;;;;;;;;;;;;;;;;;;;;;;;;;;"1261";"2014-10-15 16:28:23.848";"ST_correctStop";"32";"0";"FINISHED";"NONE";"success";"0";"1";"2014-10-15 16:28:22.584";"3";;;;;;;;;;;;;;;;;;;;;;;;;;;;;;;;;;;;;;;;;;;;;
"C1303336";;;"Windows 7";"Rachel's Experiment (D.T.)";"1.0";"2";"1";"1";"2";"1";"1";"2014-10-15 16:22:09.541";"2014-10-15 16:36:20.241";"1";"0";"1";"80";"79";"module.training_block2.exec-7503.GoNoGo2";;;;;;;;;;;;;;;;;;;;;;;;;;;;;;;;;;;"1261";"2014-10-15 16:28:26.391";"NST_correctLoc";"12";"0";"FINISHED";"LEFT";"success";"490";"0";"2014-10-15 16:28:25.127";"2";;;;;;;;;;;;;;;;;;;;;;;;;;;;;;;;;;;;;;;;;;;;;
"C1303336";;;"Windows 7";"Rachel's Experiment (D.T.)";"1.0";"2";"1";"1";"2";"1";"1";"2014-10-15 16:22:09.541";"2014-10-15 16:36:20.241";"1";"0";"1";"81";"80";"module.training_block2.exec-7503.GoNoGo2";;;;;;;;;;;;;;;;;;;;;;;;;;;;;;;;;;;"1261";"2014-10-15 16:28:28.933";"NST_correctLoc";"20";"0";"FINISHED";"LEFT";"success";"482";"0";"2014-10-15 16:28:27.670";"3";;;;;;;;;;;;;;;;;;;;;;;;;;;;;;;;;;;;;;;;;;;;;
"C1303336";;;"Windows 7";"Rachel's Experiment (D.T.)";"1.0";"2";"1";"1";"2";"1";"1";"2014-10-15 16:22:09.541";"2014-10-15 16:36:20.241";"1";"0";"1";"82";"81";"module.training_block2.exec-7503.GoNoGo2";;;;;;;;;;;;;;;;;;;;;;;;;;;;;;;;;;;"1261";"2014-10-15 16:28:31.476";"NST_correctLoc";"11";"0";"FINISHED";"LEFT";"success";"444";"0";"2014-10-15 16:28:30.213";"2";;;;;;;;;;;;;;;;;;;;;;;;;;;;;;;;;;;;;;;;;;;;;
"C1303336";;;"Windows 7";"Rachel's Experiment (D.T.)";"1.0";"2";"1";"1";"2";"1";"1";"2014-10-15 16:22:09.541";"2014-10-15 16:36:20.241";"1";"0";"1";"83";"82";"module.training_block2.exec-7503.GoNoGo2";;;;;;;;;;;;;;;;;;;;;;;;;;;;;;;;;;;"1261";"2014-10-15 16:28:34.019";"NST_correctLoc";"13";"0";"FINISHED";"LEFT";"success";"389";"0";"2014-10-15 16:28:32.755";"2";;;;;;;;;;;;;;;;;;;;;;;;;;;;;;;;;;;;;;;;;;;;;
"C1303336";;;"Windows 7";"Rachel's Experiment (D.T.)";"1.0";"2";"1";"1";"2";"1";"1";"2014-10-15 16:22:09.541";"2014-10-15 16:36:20.241";"1";"0";"1";"84";"83";"module.training_block2.exec-7503.GoNoGo2";;;;;;;;;;;;;;;;;;;;;;;;;;;;;;;;;;;"1261";"2014-10-15 16:28:36.562";"ST_failedStop";"34";"1";"FINISHED";"RIGHT";"failure";"342";"1";"2014-10-15 16:28:35.298";"3";;;;;;;;;;;;;;;;;;;;;;;;;;;;;;;;;;;;;;;;;;;;;
"C1303336";;;"Windows 7";"Rachel's Experiment (D.T.)";"1.0";"2";"1";"1";"2";"1";"1";"2014-10-15 16:22:09.541";"2014-10-15 16:36:20.241";"1";"0";"1";"85";"84";"module.training_block2.exec-7503.GoNoGo2";;;;;;;;;;;;;;;;;;;;;;;;;;;;;;;;;;;"1261";"2014-10-15 16:28:39.105";"ST_correctStop";"8";"1";"FINISHED";"NONE";"success";"0";"1";"2014-10-15 16:28:37.841";"1";;;;;;;;;;;;;;;;;;;;;;;;;;;;;;;;;;;;;;;;;;;;;
"C1303336";;;"Windows 7";"Rachel's Experiment (D.T.)";"1.0";"2";"1";"1";"2";"1";"1";"2014-10-15 16:22:09.541";"2014-10-15 16:36:20.241";"1";"0";"1";"86";"85";"module.training_block2.exec-7503.GoNoGo2";;;;;;;;;;;;;;;;;;;;;;;;;;;;;;;;;;;"1261";"2014-10-15 16:28:41.647";"ST_correctStop";"18";"0";"FINISHED";"NONE";"success";"0";"1";"2014-10-15 16:28:40.384";"3";;;;;;;;;;;;;;;;;;;;;;;;;;;;;;;;;;;;;;;;;;;;;
"C1303336";;;"Windows 7";"Rachel's Experiment (D.T.)";"1.0";"2";"1";"1";"2";"1";"1";"2014-10-15 16:22:09.541";"2014-10-15 16:36:20.241";"1";"0";"1";"87";"86";"module.training_block2.exec-7503.GoNoGo2";;;;;;;;;;;;;;;;;;;;;;;;;;;;;;;;;;;"1261";"2014-10-15 16:28:44.190";"ST_correctStop";"31";"0";"FINISHED";"NONE";"success";"0";"1";"2014-10-15 16:28:42.927";"3";;;;;;;;;;;;;;;;;;;;;;;;;;;;;;;;;;;;;;;;;;;;;
"C1303336";;;"Windows 7";"Rachel's Experiment (D.T.)";"1.0";"2";"1";"1";"2";"1";"1";"2014-10-15 16:22:09.541";"2014-10-15 16:36:20.241";"1";"0";"1";"88";"87";"module.training_block3.exec-1581.GoNoGo3";;;;;;;;;;;;;;;;;;;;;;;;;;;;;;;;;;;;;;;;;;;;;;;"1261";"2014-10-15 16:28:55.391";"NST_correctLoc";"14";"1";"FINISHED";"RIGHT";"success";"433";"0";"2014-10-15 16:28:54.127";"2";;;;;;;;;;;;;;;;;;;;;;;;;;;;;;;;;
"C1303336";;;"Windows 7";"Rachel's Experiment (D.T.)";"1.0";"2";"1";"1";"2";"1";"1";"2014-10-15 16:22:09.541";"2014-10-15 16:36:20.241";"1";"0";"1";"89";"88";"module.training_block3.exec-1581.GoNoGo3";;;;;;;;;;;;;;;;;;;;;;;;;;;;;;;;;;;;;;;;;;;;;;;"1261";"2014-10-15 16:28:57.934";"ST_correctStop";"7";"1";"FINISHED";"NONE";"success";"0";"1";"2014-10-15 16:28:56.670";"1";;;;;;;;;;;;;;;;;;;;;;;;;;;;;;;;;
"C1303336";;;"Windows 7";"Rachel's Experiment (D.T.)";"1.0";"2";"1";"1";"2";"1";"1";"2014-10-15 16:22:09.541";"2014-10-15 16:36:20.241";"1";"0";"1";"90";"89";"module.training_block3.exec-1581.GoNoGo3";;;;;;;;;;;;;;;;;;;;;;;;;;;;;;;;;;;;;;;;;;;;;;;"1261";"2014-10-15 16:29:00.477";"NST_correctLoc";"32";"1";"FINISHED";"RIGHT";"success";"548";"0";"2014-10-15 16:28:59.213";"3";;;;;;;;;;;;;;;;;;;;;;;;;;;;;;;;;
"C1303336";;;"Windows 7";"Rachel's Experiment (D.T.)";"1.0";"2";"1";"1";"2";"1";"1";"2014-10-15 16:22:09.541";"2014-10-15 16:36:20.241";"1";"0";"1";"91";"90";"module.training_block3.exec-1581.GoNoGo3";;;;;;;;;;;;;;;;;;;;;;;;;;;;;;;;;;;;;;;;;;;;;;;"1261";"2014-10-15 16:29:03.019";"NST_correctLoc";"13";"0";"FINISHED";"LEFT";"success";"421";"0";"2014-10-15 16:29:01.756";"2";;;;;;;;;;;;;;;;;;;;;;;;;;;;;;;;;
"C1303336";;;"Windows 7";"Rachel's Experiment (D.T.)";"1.0";"2";"1";"1";"2";"1";"1";"2014-10-15 16:22:09.541";"2014-10-15 16:36:20.241";"1";"0";"1";"92";"91";"module.training_block3.exec-1581.GoNoGo3";;;;;;;;;;;;;;;;;;;;;;;;;;;;;;;;;;;;;;;;;;;;;;;"1261";"2014-10-15 16:29:05.562";"ST_correctStop";"34";"0";"FINISHED";"NONE";"success";"0";"1";"2014-10-15 16:29:04.299";"3";;;;;;;;;;;;;;;;;;;;;;;;;;;;;;;;;
"C1303336";;;"Windows 7";"Rachel's Experiment (D.T.)";"1.0";"2";"1";"1";"2";"1";"1";"2014-10-15 16:22:09.541";"2014-10-15 16:36:20.241";"1";"0";"1";"93";"92";"module.training_block3.exec-1581.GoNoGo3";;;;;;;;;;;;;;;;;;;;;;;;;;;;;;;;;;;;;;;;;;;;;;;"1261";"2014-10-15 16:29:08.105";"NST_correctLoc";"30";"0";"FINISHED";"LEFT";"success";"471";"0";"2014-10-15 16:29:06.841";"3";;;;;;;;;;;;;;;;;;;;;;;;;;;;;;;;;
"C1303336";;;"Windows 7";"Rachel's Experiment (D.T.)";"1.0";"2";"1";"1";"2";"1";"1";"2014-10-15 16:22:09.541";"2014-10-15 16:36:20.241";"1";"0";"1";"94";"93";"module.training_block3.exec-1581.GoNoGo3";;;;;;;;;;;;;;;;;;;;;;;;;;;;;;;;;;;;;;;;;;;;;;;"1262";"2014-10-15 16:29:10.663";"ST_correctStop";"23";"1";"FINISHED";"NONE";"success";"0";"1";"2014-10-15 16:29:09.400";"3";;;;;;;;;;;;;;;;;;;;;;;;;;;;;;;;;
"C1303336";;;"Windows 7";"Rachel's Experiment (D.T.)";"1.0";"2";"1";"1";"2";"1";"1";"2014-10-15 16:22:09.541";"2014-10-15 16:36:20.241";"1";"0";"1";"95";"94";"module.training_block3.exec-1581.GoNoGo3";;;;;;;;;;;;;;;;;;;;;;;;;;;;;;;;;;;;;;;;;;;;;;;"1261";"2014-10-15 16:29:13.206";"ST_correctStop";"4";"0";"FINISHED";"NONE";"success";"0";"1";"2014-10-15 16:29:11.943";"1";;;;;;;;;;;;;;;;;;;;;;;;;;;;;;;;;
"C1303336";;;"Windows 7";"Rachel's Experiment (D.T.)";"1.0";"2";"1";"1";"2";"1";"1";"2014-10-15 16:22:09.541";"2014-10-15 16:36:20.241";"1";"0";"1";"96";"95";"module.training_block3.exec-1581.GoNoGo3";;;;;;;;;;;;;;;;;;;;;;;;;;;;;;;;;;;;;;;;;;;;;;;"1261";"2014-10-15 16:29:15.765";"NST_correctLoc";"35";"1";"FINISHED";"RIGHT";"success";"595";"0";"2014-10-15 16:29:14.501";"3";;;;;;;;;;;;;;;;;;;;;;;;;;;;;;;;;
"C1303336";;;"Windows 7";"Rachel's Experiment (D.T.)";"1.0";"2";"1";"1";"2";"1";"1";"2014-10-15 16:22:09.541";"2014-10-15 16:36:20.241";"1";"0";"1";"97";"96";"module.training_block3.exec-1581.GoNoGo3";;;;;;;;;;;;;;;;;;;;;;;;;;;;;;;;;;;;;;;;;;;;;;;"1261";"2014-10-15 16:29:18.307";"NST_correctLoc";"15";"1";"FINISHED";"RIGHT";"success";"429";"0";"2014-10-15 16:29:17.044";"2";;;;;;;;;;;;;;;;;;;;;;;;;;;;;;;;;
"C1303336";;;"Windows 7";"Rachel's Experiment (D.T.)";"1.0";"2";"1";"1";"2";"1";"1";"2014-10-15 16:22:09.541";"2014-10-15 16:36:20.241";"1";"0";"1";"98";"97";"module.training_block3.exec-1581.GoNoGo3";;;;;;;;;;;;;;;;;;;;;;;;;;;;;;;;;;;;;;;;;;;;;;;"1261";"2014-10-15 16:29:20.850";"ST_correctStop";"31";"1";"FINISHED";"NONE";"success";"0";"1";"2014-10-15 16:29:19.587";"3";;;;;;;;;;;;;;;;;;;;;;;;;;;;;;;;;
"C1303336";;;"Windows 7";"Rachel's Experiment (D.T.)";"1.0";"2";"1";"1";"2";"1";"1";"2014-10-15 16:22:09.541";"2014-10-15 16:36:20.241";"1";"0";"1";"99";"98";"module.training_block3.exec-1581.GoNoGo3";;;;;;;;;;;;;;;;;;;;;;;;;;;;;;;;;;;;;;;;;;;;;;;"1261";"2014-10-15 16:29:23.393";"NST_correctLoc";"27";"0";"FINISHED";"LEFT";"success";"391";"0";"2014-10-15 16:29:22.129";"3";;;;;;;;;;;;;;;;;;;;;;;;;;;;;;;;;
"C1303336";;;"Windows 7";"Rachel's Experiment (D.T.)";"1.0";"2";"1";"1";"2";"1";"1";"2014-10-15 16:22:09.541";"2014-10-15 16:36:20.241";"1";"0";"1";"100";"99";"module.training_block3.exec-1581.GoNoGo3";;;;;;;;;;;;;;;;;;;;;;;;;;;;;;;;;;;;;;;;;;;;;;;"1261";"2014-10-15 16:29:25.936";"ST_failedStop";"2";"1";"FINISHED";"RIGHT";"failure";"368";"1";"2014-10-15 16:29:24.672";"1";;;;;;;;;;;;;;;;;;;;;;;;;;;;;;;;;
"C1303336";;;"Windows 7";"Rachel's Experiment (D.T.)";"1.0";"2";"1";"1";"2";"1";"1";"2014-10-15 16:22:09.541";"2014-10-15 16:36:20.241";"1";"0";"1";"101";"100";"module.training_block3.exec-1581.GoNoGo3";;;;;;;;;;;;;;;;;;;;;;;;;;;;;;;;;;;;;;;;;;;;;;;"1261";"2014-10-15 16:29:28.479";"ST_correctStop";"28";"1";"FINISHED";"NONE";"success";"0";"1";"2014-10-15 16:29:27.215";"3";;;;;;;;;;;;;;;;;;;;;;;;;;;;;;;;;
"C1303336";;;"Windows 7";"Rachel's Experiment (D.T.)";"1.0";"2";"1";"1";"2";"1";"1";"2014-10-15 16:22:09.541";"2014-10-15 16:36:20.241";"1";"0";"1";"102";"101";"module.training_block3.exec-1581.GoNoGo3";;;;;;;;;;;;;;;;;;;;;;;;;;;;;;;;;;;;;;;;;;;;;;;"1262";"2014-10-15 16:29:31.021";"ST_correctStop";"5";"0";"FINISHED";"NONE";"success";"0";"1";"2014-10-15 16:29:29.758";"1";;;;;;;;;;;;;;;;;;;;;;;;;;;;;;;;;
"C1303336";;;"Windows 7";"Rachel's Experiment (D.T.)";"1.0";"2";"1";"1";"2";"1";"1";"2014-10-15 16:22:09.541";"2014-10-15 16:36:20.241";"1";"0";"1";"103";"102";"module.training_block3.exec-1581.GoNoGo3";;;;;;;;;;;;;;;;;;;;;;;;;;;;;;;;;;;;;;;;;;;;;;;"1262";"2014-10-15 16:29:33.564";"NST_correctLoc";"17";"0";"FINISHED";"LEFT";"success";"420";"0";"2014-10-15 16:29:32.301";"2";;;;;;;;;;;;;;;;;;;;;;;;;;;;;;;;;
"C1303336";;;"Windows 7";"Rachel's Experiment (D.T.)";"1.0";"2";"1";"1";"2";"1";"1";"2014-10-15 16:22:09.541";"2014-10-15 16:36:20.241";"1";"0";"1";"104";"103";"module.training_block3.exec-1581.GoNoGo3";;;;;;;;;;;;;;;;;;;;;;;;;;;;;;;;;;;;;;;;;;;;;;;"1262";"2014-10-15 16:29:36.107";"NST_correctLoc";"16";"1";"FINISHED";"RIGHT";"success";"621";"0";"2014-10-15 16:29:34.843";"2";;;;;;;;;;;;;;;;;;;;;;;;;;;;;;;;;
"C1303336";;;"Windows 7";"Rachel's Experiment (D.T.)";"1.0";"2";"1";"1";"2";"1";"1";"2014-10-15 16:22:09.541";"2014-10-15 16:36:20.241";"1";"0";"1";"105";"104";"module.training_block3.exec-1581.GoNoGo3";;;;;;;;;;;;;;;;;;;;;;;;;;;;;;;;;;;;;;;;;;;;;;;"1262";"2014-10-15 16:29:38.650";"ST_correctStop";"29";"1";"FINISHED";"NONE";"success";"0";"1";"2014-10-15 16:29:37.386";"3";;;;;;;;;;;;;;;;;;;;;;;;;;;;;;;;;
"C1303336";;;"Windows 7";"Rachel's Experiment (D.T.)";"1.0";"2";"1";"1";"2";"1";"1";"2014-10-15 16:22:09.541";"2014-10-15 16:36:20.241";"1";"0";"1";"106";"105";"module.training_block3.exec-1581.GoNoGo3";;;;;;;;;;;;;;;;;;;;;;;;;;;;;;;;;;;;;;;;;;;;;;;"1262";"2014-10-15 16:29:41.193";"NST_correctLoc";"10";"0";"FINISHED";"LEFT";"success";"415";"0";"2014-10-15 16:29:39.929";"2";;;;;;;;;;;;;;;;;;;;;;;;;;;;;;;;;
"C1303336";;;"Windows 7";"Rachel's Experiment (D.T.)";"1.0";"2";"1";"1";"2";"1";"1";"2014-10-15 16:22:09.541";"2014-10-15 16:36:20.241";"1";"0";"1";"107";"106";"module.training_block3.exec-1581.GoNoGo3";;;;;;;;;;;;;;;;;;;;;;;;;;;;;;;;;;;;;;;;;;;;;;;"1262";"2014-10-15 16:29:43.736";"NST_correctLoc";"26";"1";"FINISHED";"RIGHT";"success";"448";"0";"2014-10-15 16:29:42.472";"3";;;;;;;;;;;;;;;;;;;;;;;;;;;;;;;;;
"C1303336";;;"Windows 7";"Rachel's Experiment (D.T.)";"1.0";"2";"1";"1";"2";"1";"1";"2014-10-15 16:22:09.541";"2014-10-15 16:36:20.241";"1";"0";"1";"108";"107";"module.training_block3.exec-1581.GoNoGo3";;;;;;;;;;;;;;;;;;;;;;;;;;;;;;;;;;;;;;;;;;;;;;;"1262";"2014-10-15 16:29:46.278";"ST_correctStop";"33";"0";"FINISHED";"NONE";"success";"0";"1";"2014-10-15 16:29:45.015";"3";;;;;;;;;;;;;;;;;;;;;;;;;;;;;;;;;
"C1303336";;;"Windows 7";"Rachel's Experiment (D.T.)";"1.0";"2";"1";"1";"2";"1";"1";"2014-10-15 16:22:09.541";"2014-10-15 16:36:20.241";"1";"0";"1";"109";"108";"module.training_block3.exec-1581.GoNoGo3";;;;;;;;;;;;;;;;;;;;;;;;;;;;;;;;;;;;;;;;;;;;;;;"1261";"2014-10-15 16:29:48.806";"ST_failedStop";"6";"0";"FINISHED";"LEFT";"failure";"402";"1";"2014-10-15 16:29:47.542";"1";;;;;;;;;;;;;;;;;;;;;;;;;;;;;;;;;
"C1303336";;;"Windows 7";"Rachel's Experiment (D.T.)";"1.0";"2";"1";"1";"2";"1";"1";"2014-10-15 16:22:09.541";"2014-10-15 16:36:20.241";"1";"0";"1";"110";"109";"module.training_block3.exec-1581.GoNoGo3";;;;;;;;;;;;;;;;;;;;;;;;;;;;;;;;;;;;;;;;;;;;;;;"1262";"2014-10-15 16:29:51.364";"NST_correctLoc";"22";"0";"FINISHED";"LEFT";"success";"612";"0";"2014-10-15 16:29:50.100";"3";;;;;;;;;;;;;;;;;;;;;;;;;;;;;;;;;
"C1303336";;;"Windows 7";"Rachel's Experiment (D.T.)";"1.0";"2";"1";"1";"2";"1";"1";"2014-10-15 16:22:09.541";"2014-10-15 16:36:20.241";"1";"0";"1";"111";"110";"module.training_block3.exec-1581.GoNoGo3";;;;;;;;;;;;;;;;;;;;;;;;;;;;;;;;;;;;;;;;;;;;;;;"1262";"2014-10-15 16:29:53.907";"ST_correctStop";"25";"1";"FINISHED";"NONE";"success";"0";"1";"2014-10-15 16:29:52.643";"3";;;;;;;;;;;;;;;;;;;;;;;;;;;;;;;;;
"C1303336";;;"Windows 7";"Rachel's Experiment (D.T.)";"1.0";"2";"1";"1";"2";"1";"1";"2014-10-15 16:22:09.541";"2014-10-15 16:36:20.241";"1";"0";"1";"112";"111";"module.training_block3.exec-1581.GoNoGo3";;;;;;;;;;;;;;;;;;;;;;;;;;;;;;;;;;;;;;;;;;;;;;;"1262";"2014-10-15 16:29:56.450";"NST_correctLoc";"19";"1";"FINISHED";"RIGHT";"success";"462";"0";"2014-10-15 16:29:55.186";"3";;;;;;;;;;;;;;;;;;;;;;;;;;;;;;;;;
"C1303336";;;"Windows 7";"Rachel's Experiment (D.T.)";"1.0";"2";"1";"1";"2";"1";"1";"2014-10-15 16:22:09.541";"2014-10-15 16:36:20.241";"1";"0";"1";"113";"112";"module.training_block3.exec-1581.GoNoGo3";;;;;;;;;;;;;;;;;;;;;;;;;;;;;;;;;;;;;;;;;;;;;;;"1262";"2014-10-15 16:29:58.977";"ST_correctStop";"1";"1";"FINISHED";"NONE";"success";"0";"1";"2014-10-15 16:29:57.713";"1";;;;;;;;;;;;;;;;;;;;;;;;;;;;;;;;;
"C1303336";;;"Windows 7";"Rachel's Experiment (D.T.)";"1.0";"2";"1";"1";"2";"1";"1";"2014-10-15 16:22:09.541";"2014-10-15 16:36:20.241";"1";"0";"1";"114";"113";"module.training_block3.exec-1581.GoNoGo3";;;;;;;;;;;;;;;;;;;;;;;;;;;;;;;;;;;;;;;;;;;;;;;"1262";"2014-10-15 16:30:01.504";"ST_correctStop";"8";"0";"FINISHED";"NONE";"success";"0";"1";"2014-10-15 16:30:00.240";"1";;;;;;;;;;;;;;;;;;;;;;;;;;;;;;;;;
"C1303336";;;"Windows 7";"Rachel's Experiment (D.T.)";"1.0";"2";"1";"1";"2";"1";"1";"2014-10-15 16:22:09.541";"2014-10-15 16:36:20.241";"1";"0";"1";"115";"114";"module.training_block3.exec-1581.GoNoGo3";;;;;;;;;;;;;;;;;;;;;;;;;;;;;;;;;;;;;;;;;;;;;;;"1262";"2014-10-15 16:30:04.031";"NST_correctLoc";"24";"1";"FINISHED";"RIGHT";"success";"361";"0";"2014-10-15 16:30:02.768";"3";;;;;;;;;;;;;;;;;;;;;;;;;;;;;;;;;
"C1303336";;;"Windows 7";"Rachel's Experiment (D.T.)";"1.0";"2";"1";"1";"2";"1";"1";"2014-10-15 16:22:09.541";"2014-10-15 16:36:20.241";"1";"0";"1";"116";"115";"module.training_block3.exec-1581.GoNoGo3";;;;;;;;;;;;;;;;;;;;;;;;;;;;;;;;;;;;;;;;;;;;;;;"1262";"2014-10-15 16:30:06.574";"ST_correctStop";"3";"1";"FINISHED";"NONE";"success";"0";"1";"2014-10-15 16:30:05.310";"1";;;;;;;;;;;;;;;;;;;;;;;;;;;;;;;;;
"C1303336";;;"Windows 7";"Rachel's Experiment (D.T.)";"1.0";"2";"1";"1";"2";"1";"1";"2014-10-15 16:22:09.541";"2014-10-15 16:36:20.241";"1";"0";"1";"117";"116";"module.training_block3.exec-1581.GoNoGo3";;;;;;;;;;;;;;;;;;;;;;;;;;;;;;;;;;;;;;;;;;;;;;;"1262";"2014-10-15 16:30:09.117";"NST_correctLoc";"11";"0";"FINISHED";"LEFT";"success";"467";"0";"2014-10-15 16:30:07.853";"2";;;;;;;;;;;;;;;;;;;;;;;;;;;;;;;;;
"C1303336";;;"Windows 7";"Rachel's Experiment (D.T.)";"1.0";"2";"1";"1";"2";"1";"1";"2014-10-15 16:22:09.541";"2014-10-15 16:36:20.241";"1";"0";"1";"118";"117";"module.training_block3.exec-1581.GoNoGo3";;;;;;;;;;;;;;;;;;;;;;;;;;;;;;;;;;;;;;;;;;;;;;;"1262";"2014-10-15 16:30:11.644";"NST_correctLoc";"9";"0";"FINISHED";"LEFT";"success";"428";"0";"2014-10-15 16:30:10.380";"2";;;;;;;;;;;;;;;;;;;;;;;;;;;;;;;;;
"C1303336";;;"Windows 7";"Rachel's Experiment (D.T.)";"1.0";"2";"1";"1";"2";"1";"1";"2014-10-15 16:22:09.541";"2014-10-15 16:36:20.241";"1";"0";"1";"119";"118";"module.training_block3.exec-1581.GoNoGo3";;;;;;;;;;;;;;;;;;;;;;;;;;;;;;;;;;;;;;;;;;;;;;;"1262";"2014-10-15 16:30:14.187";"NST_correctLoc";"12";"1";"FINISHED";"RIGHT";"success";"413";"0";"2014-10-15 16:30:12.923";"2";;;;;;;;;;;;;;;;;;;;;;;;;;;;;;;;;
"C1303336";;;"Windows 7";"Rachel's Experiment (D.T.)";"1.0";"2";"1";"1";"2";"1";"1";"2014-10-15 16:22:09.541";"2014-10-15 16:36:20.241";"1";"0";"1";"120";"119";"module.training_block3.exec-1581.GoNoGo3";;;;;;;;;;;;;;;;;;;;;;;;;;;;;;;;;;;;;;;;;;;;;;;"1262";"2014-10-15 16:30:16.714";"NST_correctLoc";"21";"1";"FINISHED";"RIGHT";"success";"430";"0";"2014-10-15 16:30:15.450";"3";;;;;;;;;;;;;;;;;;;;;;;;;;;;;;;;;
"C1303336";;;"Windows 7";"Rachel's Experiment (D.T.)";"1.0";"2";"1";"1";"2";"1";"1";"2014-10-15 16:22:09.541";"2014-10-15 16:36:20.241";"1";"0";"1";"121";"120";"module.training_block3.exec-1581.GoNoGo3";;;;;;;;;;;;;;;;;;;;;;;;;;;;;;;;;;;;;;;;;;;;;;;"1262";"2014-10-15 16:30:19.241";"ST_correctStop";"20";"0";"FINISHED";"NONE";"success";"0";"1";"2014-10-15 16:30:17.978";"3";;;;;;;;;;;;;;;;;;;;;;;;;;;;;;;;;
"C1303336";;;"Windows 7";"Rachel's Experiment (D.T.)";"1.0";"2";"1";"1";"2";"1";"1";"2014-10-15 16:22:09.541";"2014-10-15 16:36:20.241";"1";"0";"1";"122";"121";"module.training_block3.exec-1581.GoNoGo3";;;;;;;;;;;;;;;;;;;;;;;;;;;;;;;;;;;;;;;;;;;;;;;"1263";"2014-10-15 16:30:21.768";"ST_correctStop";"0";"0";"FINISHED";"NONE";"success";"0";"1";"2014-10-15 16:30:20.505";"1";;;;;;;;;;;;;;;;;;;;;;;;;;;;;;;;;
"C1303336";;;"Windows 7";"Rachel's Experiment (D.T.)";"1.0";"2";"1";"1";"2";"1";"1";"2014-10-15 16:22:09.541";"2014-10-15 16:36:20.241";"1";"0";"1";"123";"122";"module.training_block3.exec-1581.GoNoGo3";;;;;;;;;;;;;;;;;;;;;;;;;;;;;;;;;;;;;;;;;;;;;;;"1262";"2014-10-15 16:30:24.311";"ST_correctStop";"18";"0";"FINISHED";"NONE";"success";"0";"1";"2014-10-15 16:30:23.048";"3";;;;;;;;;;;;;;;;;;;;;;;;;;;;;;;;;
"C1303336";;;"Windows 7";"Rachel's Experiment (D.T.)";"1.0";"2";"1";"1";"2";"1";"1";"2014-10-15 16:22:09.541";"2014-10-15 16:36:20.241";"1";"0";"1";"124";"123";"module.training_block4.exec-6799.GoNoGo4";;;;;;;;;;;;;;;;;;;;;;;;;;;;;;;;;;;;;;;;;;;;;;;;;;;;;;;;;;;"1261";"2014-10-15 16:30:35.528";"ST_correctStop";"25";"0";"FINISHED";"NONE";"success";"0";"1";"2014-10-15 16:30:34.264";"3";;;;;;;;;;;;;;;;;;;;;
"C1303336";;;"Windows 7";"Rachel's Experiment (D.T.)";"1.0";"2";"1";"1";"2";"1";"1";"2014-10-15 16:22:09.541";"2014-10-15 16:36:20.241";"1";"0";"1";"125";"124";"module.training_block4.exec-6799.GoNoGo4";;;;;;;;;;;;;;;;;;;;;;;;;;;;;;;;;;;;;;;;;;;;;;;;;;;;;;;;;;;"1261";"2014-10-15 16:30:38.070";"NST_correctLoc";"18";"0";"FINISHED";"LEFT";"success";"457";"0";"2014-10-15 16:30:36.807";"3";;;;;;;;;;;;;;;;;;;;;
"C1303336";;;"Windows 7";"Rachel's Experiment (D.T.)";"1.0";"2";"1";"1";"2";"1";"1";"2014-10-15 16:22:09.541";"2014-10-15 16:36:20.241";"1";"0";"1";"126";"125";"module.training_block4.exec-6799.GoNoGo4";;;;;;;;;;;;;;;;;;;;;;;;;;;;;;;;;;;;;;;;;;;;;;;;;;;;;;;;;;;"1261";"2014-10-15 16:30:40.598";"ST_correctStop";"1";"0";"FINISHED";"NONE";"success";"0";"1";"2014-10-15 16:30:39.334";"1";;;;;;;;;;;;;;;;;;;;;
"C1303336";;;"Windows 7";"Rachel's Experiment (D.T.)";"1.0";"2";"1";"1";"2";"1";"1";"2014-10-15 16:22:09.541";"2014-10-15 16:36:20.241";"1";"0";"1";"127";"126";"module.training_block4.exec-6799.GoNoGo4";;;;;;;;;;;;;;;;;;;;;;;;;;;;;;;;;;;;;;;;;;;;;;;;;;;;;;;;;;;"1262";"2014-10-15 16:30:43.125";"ST_failedStop";"7";"1";"FINISHED";"RIGHT";"failure";"371";"1";"2014-10-15 16:30:41.861";"1";;;;;;;;;;;;;;;;;;;;;
"C1303336";;;"Windows 7";"Rachel's Experiment (D.T.)";"1.0";"2";"1";"1";"2";"1";"1";"2014-10-15 16:22:09.541";"2014-10-15 16:36:20.241";"1";"0";"1";"128";"127";"module.training_block4.exec-6799.GoNoGo4";;;;;;;;;;;;;;;;;;;;;;;;;;;;;;;;;;;;;;;;;;;;;;;;;;;;;;;;;;;"1262";"2014-10-15 16:30:45.652";"NST_correctLoc";"28";"0";"FINISHED";"LEFT";"success";"452";"0";"2014-10-15 16:30:44.388";"3";;;;;;;;;;;;;;;;;;;;;
"C1303336";;;"Windows 7";"Rachel's Experiment (D.T.)";"1.0";"2";"1";"1";"2";"1";"1";"2014-10-15 16:22:09.541";"2014-10-15 16:36:20.241";"1";"0";"1";"129";"128";"module.training_block4.exec-6799.GoNoGo4";;;;;;;;;;;;;;;;;;;;;;;;;;;;;;;;;;;;;;;;;;;;;;;;;;;;;;;;;;;"1262";"2014-10-15 16:30:48.179";"NST_correctLoc";"30";"0";"FINISHED";"LEFT";"success";"388";"0";"2014-10-15 16:30:46.916";"3";;;;;;;;;;;;;;;;;;;;;
"C1303336";;;"Windows 7";"Rachel's Experiment (D.T.)";"1.0";"2";"1";"1";"2";"1";"1";"2014-10-15 16:22:09.541";"2014-10-15 16:36:20.241";"1";"0";"1";"130";"129";"module.training_block4.exec-6799.GoNoGo4";;;;;;;;;;;;;;;;;;;;;;;;;;;;;;;;;;;;;;;;;;;;;;;;;;;;;;;;;;;"1262";"2014-10-15 16:30:50.706";"ST_failedStop";"19";"0";"FINISHED";"LEFT";"failure";"485";"1";"2014-10-15 16:30:49.443";"3";;;;;;;;;;;;;;;;;;;;;
"C1303336";;;"Windows 7";"Rachel's Experiment (D.T.)";"1.0";"2";"1";"1";"2";"1";"1";"2014-10-15 16:22:09.541";"2014-10-15 16:36:20.241";"1";"0";"1";"131";"130";"module.training_block4.exec-6799.GoNoGo4";;;;;;;;;;;;;;;;;;;;;;;;;;;;;;;;;;;;;;;;;;;;;;;;;;;;;;;;;;;"1262";"2014-10-15 16:30:53.249";"ST_correctStop";"3";"1";"FINISHED";"NONE";"success";"0";"1";"2014-10-15 16:30:51.986";"1";;;;;;;;;;;;;;;;;;;;;
"C1303336";;;"Windows 7";"Rachel's Experiment (D.T.)";"1.0";"2";"1";"1";"2";"1";"1";"2014-10-15 16:22:09.541";"2014-10-15 16:36:20.241";"1";"0";"1";"132";"131";"module.training_block4.exec-6799.GoNoGo4";;;;;;;;;;;;;;;;;;;;;;;;;;;;;;;;;;;;;;;;;;;;;;;;;;;;;;;;;;;"1262";"2014-10-15 16:30:55.792";"ST_correctStop";"29";"0";"FINISHED";"NONE";"success";"0";"1";"2014-10-15 16:30:54.528";"3";;;;;;;;;;;;;;;;;;;;;
"C1303336";;;"Windows 7";"Rachel's Experiment (D.T.)";"1.0";"2";"1";"1";"2";"1";"1";"2014-10-15 16:22:09.541";"2014-10-15 16:36:20.241";"1";"0";"1";"133";"132";"module.training_block4.exec-6799.GoNoGo4";;;;;;;;;;;;;;;;;;;;;;;;;;;;;;;;;;;;;;;;;;;;;;;;;;;;;;;;;;;"1262";"2014-10-15 16:30:58.319";"ST_correctStop";"27";"1";"FINISHED";"NONE";"success";"0";"1";"2014-10-15 16:30:57.056";"3";;;;;;;;;;;;;;;;;;;;;
"C1303336";;;"Windows 7";"Rachel's Experiment (D.T.)";"1.0";"2";"1";"1";"2";"1";"1";"2014-10-15 16:22:09.541";"2014-10-15 16:36:20.241";"1";"0";"1";"134";"133";"module.training_block4.exec-6799.GoNoGo4";;;;;;;;;;;;;;;;;;;;;;;;;;;;;;;;;;;;;;;;;;;;;;;;;;;;;;;;;;;"1262";"2014-10-15 16:31:00.846";"NST_correctLoc";"9";"1";"FINISHED";"RIGHT";"success";"377";"0";"2014-10-15 16:30:59.583";"2";;;;;;;;;;;;;;;;;;;;;
"C1303336";;;"Windows 7";"Rachel's Experiment (D.T.)";"1.0";"2";"1";"1";"2";"1";"1";"2014-10-15 16:22:09.541";"2014-10-15 16:36:20.241";"1";"0";"1";"135";"134";"module.training_block4.exec-6799.GoNoGo4";;;;;;;;;;;;;;;;;;;;;;;;;;;;;;;;;;;;;;;;;;;;;;;;;;;;;;;;;;;"1262";"2014-10-15 16:31:03.374";"ST_correctStop";"2";"0";"FINISHED";"NONE";"success";"0";"1";"2014-10-15 16:31:02.110";"1";;;;;;;;;;;;;;;;;;;;;
"C1303336";;;"Windows 7";"Rachel's Experiment (D.T.)";"1.0";"2";"1";"1";"2";"1";"1";"2014-10-15 16:22:09.541";"2014-10-15 16:36:20.241";"1";"0";"1";"136";"135";"module.training_block4.exec-6799.GoNoGo4";;;;;;;;;;;;;;;;;;;;;;;;;;;;;;;;;;;;;;;;;;;;;;;;;;;;;;;;;;;"1261";"2014-10-15 16:31:05.916";"ST_correctStop";"5";"1";"FINISHED";"NONE";"success";"0";"1";"2014-10-15 16:31:04.653";"1";;;;;;;;;;;;;;;;;;;;;
"C1303336";;;"Windows 7";"Rachel's Experiment (D.T.)";"1.0";"2";"1";"1";"2";"1";"1";"2014-10-15 16:22:09.541";"2014-10-15 16:36:20.241";"1";"0";"1";"137";"136";"module.training_block4.exec-6799.GoNoGo4";;;;;;;;;;;;;;;;;;;;;;;;;;;;;;;;;;;;;;;;;;;;;;;;;;;;;;;;;;;"1262";"2014-10-15 16:31:08.444";"NST_correctLoc";"17";"0";"FINISHED";"LEFT";"success";"428";"0";"2014-10-15 16:31:07.180";"2";;;;;;;;;;;;;;;;;;;;;
"C1303336";;;"Windows 7";"Rachel's Experiment (D.T.)";"1.0";"2";"1";"1";"2";"1";"1";"2014-10-15 16:22:09.541";"2014-10-15 16:36:20.241";"1";"0";"1";"138";"137";"module.training_block4.exec-6799.GoNoGo4";;;;;;;;;;;;;;;;;;;;;;;;;;;;;;;;;;;;;;;;;;;;;;;;;;;;;;;;;;;"1262";"2014-10-15 16:31:10.971";"ST_correctStop";"4";"1";"FINISHED";"NONE";"success";"0";"1";"2014-10-15 16:31:09.707";"1";;;;;;;;;;;;;;;;;;;;;
"C1303336";;;"Windows 7";"Rachel's Experiment (D.T.)";"1.0";"2";"1";"1";"2";"1";"1";"2014-10-15 16:22:09.541";"2014-10-15 16:36:20.241";"1";"0";"1";"139";"138";"module.training_block4.exec-6799.GoNoGo4";;;;;;;;;;;;;;;;;;;;;;;;;;;;;;;;;;;;;;;;;;;;;;;;;;;;;;;;;;;"1262";"2014-10-15 16:31:13.529";"NST_correctLoc";"12";"1";"FINISHED";"RIGHT";"success";"406";"0";"2014-10-15 16:31:12.266";"2";;;;;;;;;;;;;;;;;;;;;
"C1303336";;;"Windows 7";"Rachel's Experiment (D.T.)";"1.0";"2";"1";"1";"2";"1";"1";"2014-10-15 16:22:09.541";"2014-10-15 16:36:20.241";"1";"0";"1";"140";"139";"module.training_block4.exec-6799.GoNoGo4";;;;;;;;;;;;;;;;;;;;;;;;;;;;;;;;;;;;;;;;;;;;;;;;;;;;;;;;;;;"1262";"2014-10-15 16:31:16.056";"NST_correctLoc";"22";"1";"FINISHED";"RIGHT";"success";"455";"0";"2014-10-15 16:31:14.793";"3";;;;;;;;;;;;;;;;;;;;;
"C1303336";;;"Windows 7";"Rachel's Experiment (D.T.)";"1.0";"2";"1";"1";"2";"1";"1";"2014-10-15 16:22:09.541";"2014-10-15 16:36:20.241";"1";"0";"1";"141";"140";"module.training_block4.exec-6799.GoNoGo4";;;;;;;;;;;;;;;;;;;;;;;;;;;;;;;;;;;;;;;;;;;;;;;;;;;;;;;;;;;"1261";"2014-10-15 16:31:18.599";"NST_correctLoc";"21";"0";"FINISHED";"LEFT";"success";"440";"0";"2014-10-15 16:31:17.336";"3";;;;;;;;;;;;;;;;;;;;;
"C1303336";;;"Windows 7";"Rachel's Experiment (D.T.)";"1.0";"2";"1";"1";"2";"1";"1";"2014-10-15 16:22:09.541";"2014-10-15 16:36:20.241";"1";"0";"1";"142";"141";"module.training_block4.exec-6799.GoNoGo4";;;;;;;;;;;;;;;;;;;;;;;;;;;;;;;;;;;;;;;;;;;;;;;;;;;;;;;;;;;"1262";"2014-10-15 16:31:21.126";"ST_correctStop";"23";"0";"FINISHED";"NONE";"success";"0";"1";"2014-10-15 16:31:19.863";"3";;;;;;;;;;;;;;;;;;;;;
"C1303336";;;"Windows 7";"Rachel's Experiment (D.T.)";"1.0";"2";"1";"1";"2";"1";"1";"2014-10-15 16:22:09.541";"2014-10-15 16:36:20.241";"1";"0";"1";"143";"142";"module.training_block4.exec-6799.GoNoGo4";;;;;;;;;;;;;;;;;;;;;;;;;;;;;;;;;;;;;;;;;;;;;;;;;;;;;;;;;;;"1262";"2014-10-15 16:31:23.654";"NST_correctLoc";"13";"1";"FINISHED";"RIGHT";"success";"530";"0";"2014-10-15 16:31:22.390";"2";;;;;;;;;;;;;;;;;;;;;
"C1303336";;;"Windows 7";"Rachel's Experiment (D.T.)";"1.0";"2";"1";"1";"2";"1";"1";"2014-10-15 16:22:09.541";"2014-10-15 16:36:20.241";"1";"0";"1";"144";"143";"module.training_block4.exec-6799.GoNoGo4";;;;;;;;;;;;;;;;;;;;;;;;;;;;;;;;;;;;;;;;;;;;;;;;;;;;;;;;;;;"1262";"2014-10-15 16:31:26.181";"NST_correctLoc";"34";"1";"FINISHED";"RIGHT";"success";"474";"0";"2014-10-15 16:31:24.917";"3";;;;;;;;;;;;;;;;;;;;;
"C1303336";;;"Windows 7";"Rachel's Experiment (D.T.)";"1.0";"2";"1";"1";"2";"1";"1";"2014-10-15 16:22:09.541";"2014-10-15 16:36:20.241";"1";"0";"1";"145";"144";"module.training_block4.exec-6799.GoNoGo4";;;;;;;;;;;;;;;;;;;;;;;;;;;;;;;;;;;;;;;;;;;;;;;;;;;;;;;;;;;"1262";"2014-10-15 16:31:28.708";"NST_correctLoc";"33";"1";"FINISHED";"RIGHT";"success";"395";"0";"2014-10-15 16:31:27.444";"3";;;;;;;;;;;;;;;;;;;;;
"C1303336";;;"Windows 7";"Rachel's Experiment (D.T.)";"1.0";"2";"1";"1";"2";"1";"1";"2014-10-15 16:22:09.541";"2014-10-15 16:36:20.241";"1";"0";"1";"146";"145";"module.training_block4.exec-6799.GoNoGo4";;;;;;;;;;;;;;;;;;;;;;;;;;;;;;;;;;;;;;;;;;;;;;;;;;;;;;;;;;;"1262";"2014-10-15 16:31:31.235";"NST_correctLoc";"26";"0";"FINISHED";"LEFT";"success";"436";"0";"2014-10-15 16:31:29.972";"3";;;;;;;;;;;;;;;;;;;;;
"C1303336";;;"Windows 7";"Rachel's Experiment (D.T.)";"1.0";"2";"1";"1";"2";"1";"1";"2014-10-15 16:22:09.541";"2014-10-15 16:36:20.241";"1";"0";"1";"147";"146";"module.training_block4.exec-6799.GoNoGo4";;;;;;;;;;;;;;;;;;;;;;;;;;;;;;;;;;;;;;;;;;;;;;;;;;;;;;;;;;;"1262";"2014-10-15 16:31:33.763";"ST_correctStop";"8";"0";"FINISHED";"NONE";"success";"0";"1";"2014-10-15 16:31:32.499";"1";;;;;;;;;;;;;;;;;;;;;
"C1303336";;;"Windows 7";"Rachel's Experiment (D.T.)";"1.0";"2";"1";"1";"2";"1";"1";"2014-10-15 16:22:09.541";"2014-10-15 16:36:20.241";"1";"0";"1";"148";"147";"module.training_block4.exec-6799.GoNoGo4";;;;;;;;;;;;;;;;;;;;;;;;;;;;;;;;;;;;;;;;;;;;;;;;;;;;;;;;;;;"1262";"2014-10-15 16:31:36.290";"ST_correctStop";"20";"1";"FINISHED";"NONE";"success";"0";"1";"2014-10-15 16:31:35.026";"3";;;;;;;;;;;;;;;;;;;;;
"C1303336";;;"Windows 7";"Rachel's Experiment (D.T.)";"1.0";"2";"1";"1";"2";"1";"1";"2014-10-15 16:22:09.541";"2014-10-15 16:36:20.241";"1";"0";"1";"149";"148";"module.training_block4.exec-6799.GoNoGo4";;;;;;;;;;;;;;;;;;;;;;;;;;;;;;;;;;;;;;;;;;;;;;;;;;;;;;;;;;;"1262";"2014-10-15 16:31:38.833";"NST_correctLoc";"15";"1";"FINISHED";"RIGHT";"success";"423";"0";"2014-10-15 16:31:37.569";"2";;;;;;;;;;;;;;;;;;;;;
"C1303336";;;"Windows 7";"Rachel's Experiment (D.T.)";"1.0";"2";"1";"1";"2";"1";"1";"2014-10-15 16:22:09.541";"2014-10-15 16:36:20.241";"1";"0";"1";"150";"149";"module.training_block4.exec-6799.GoNoGo4";;;;;;;;;;;;;;;;;;;;;;;;;;;;;;;;;;;;;;;;;;;;;;;;;;;;;;;;;;;"1262";"2014-10-15 16:31:41.360";"ST_correctStop";"35";"0";"FINISHED";"NONE";"success";"0";"1";"2014-10-15 16:31:40.096";"3";;;;;;;;;;;;;;;;;;;;;
"C1303336";;;"Windows 7";"Rachel's Experiment (D.T.)";"1.0";"2";"1";"1";"2";"1";"1";"2014-10-15 16:22:09.541";"2014-10-15 16:36:20.241";"1";"0";"1";"151";"150";"module.training_block4.exec-6799.GoNoGo4";;;;;;;;;;;;;;;;;;;;;;;;;;;;;;;;;;;;;;;;;;;;;;;;;;;;;;;;;;;"1262";"2014-10-15 16:31:43.887";"ST_correctStop";"0";"0";"FINISHED";"NONE";"success";"0";"1";"2014-10-15 16:31:42.623";"1";;;;;;;;;;;;;;;;;;;;;
"C1303336";;;"Windows 7";"Rachel's Experiment (D.T.)";"1.0";"2";"1";"1";"2";"1";"1";"2014-10-15 16:22:09.541";"2014-10-15 16:36:20.241";"1";"0";"1";"152";"151";"module.training_block4.exec-6799.GoNoGo4";;;;;;;;;;;;;;;;;;;;;;;;;;;;;;;;;;;;;;;;;;;;;;;;;;;;;;;;;;;"1262";"2014-10-15 16:31:46.414";"NST_correctLoc";"14";"1";"FINISHED";"RIGHT";"success";"449";"0";"2014-10-15 16:31:45.151";"2";;;;;;;;;;;;;;;;;;;;;
"C1303336";;;"Windows 7";"Rachel's Experiment (D.T.)";"1.0";"2";"1";"1";"2";"1";"1";"2014-10-15 16:22:09.541";"2014-10-15 16:36:20.241";"1";"0";"1";"153";"152";"module.training_block4.exec-6799.GoNoGo4";;;;;;;;;;;;;;;;;;;;;;;;;;;;;;;;;;;;;;;;;;;;;;;;;;;;;;;;;;;"1262";"2014-10-15 16:31:48.941";"ST_correctStop";"6";"0";"FINISHED";"NONE";"success";"0";"1";"2014-10-15 16:31:47.678";"1";;;;;;;;;;;;;;;;;;;;;
"C1303336";;;"Windows 7";"Rachel's Experiment (D.T.)";"1.0";"2";"1";"1";"2";"1";"1";"2014-10-15 16:22:09.541";"2014-10-15 16:36:20.241";"1";"0";"1";"154";"153";"module.training_block4.exec-6799.GoNoGo4";;;;;;;;;;;;;;;;;;;;;;;;;;;;;;;;;;;;;;;;;;;;;;;;;;;;;;;;;;;"1262";"2014-10-15 16:31:51.469";"ST_correctStop";"31";"1";"FINISHED";"NONE";"success";"0";"1";"2014-10-15 16:31:50.205";"3";;;;;;;;;;;;;;;;;;;;;
"C1303336";;;"Windows 7";"Rachel's Experiment (D.T.)";"1.0";"2";"1";"1";"2";"1";"1";"2014-10-15 16:22:09.541";"2014-10-15 16:36:20.241";"1";"0";"1";"155";"154";"module.training_block4.exec-6799.GoNoGo4";;;;;;;;;;;;;;;;;;;;;;;;;;;;;;;;;;;;;;;;;;;;;;;;;;;;;;;;;;;"1262";"2014-10-15 16:31:53.996";"ST_correctStop";"32";"1";"FINISHED";"NONE";"success";"0";"1";"2014-10-15 16:31:52.732";"3";;;;;;;;;;;;;;;;;;;;;
"C1303336";;;"Windows 7";"Rachel's Experiment (D.T.)";"1.0";"2";"1";"1";"2";"1";"1";"2014-10-15 16:22:09.541";"2014-10-15 16:36:20.241";"1";"0";"1";"156";"155";"module.training_block4.exec-6799.GoNoGo4";;;;;;;;;;;;;;;;;;;;;;;;;;;;;;;;;;;;;;;;;;;;;;;;;;;;;;;;;;;"1261";"2014-10-15 16:31:56.523";"NST_correctLoc";"16";"0";"FINISHED";"LEFT";"success";"476";"0";"2014-10-15 16:31:55.259";"2";;;;;;;;;;;;;;;;;;;;;
"C1303336";;;"Windows 7";"Rachel's Experiment (D.T.)";"1.0";"2";"1";"1";"2";"1";"1";"2014-10-15 16:22:09.541";"2014-10-15 16:36:20.241";"1";"0";"1";"157";"156";"module.training_block4.exec-6799.GoNoGo4";;;;;;;;;;;;;;;;;;;;;;;;;;;;;;;;;;;;;;;;;;;;;;;;;;;;;;;;;;;"1262";"2014-10-15 16:31:59.066";"NST_correctLoc";"10";"0";"FINISHED";"LEFT";"success";"429";"0";"2014-10-15 16:31:57.802";"2";;;;;;;;;;;;;;;;;;;;;
"C1303336";;;"Windows 7";"Rachel's Experiment (D.T.)";"1.0";"2";"1";"1";"2";"1";"1";"2014-10-15 16:22:09.541";"2014-10-15 16:36:20.241";"1";"0";"1";"158";"157";"module.training_block4.exec-6799.GoNoGo4";;;;;;;;;;;;;;;;;;;;;;;;;;;;;;;;;;;;;;;;;;;;;;;;;;;;;;;;;;;"1262";"2014-10-15 16:32:01.593";"NST_correctLoc";"24";"1";"FINISHED";"RIGHT";"success";"438";"0";"2014-10-15 16:32:00.329";"3";;;;;;;;;;;;;;;;;;;;;
"C1303336";;;"Windows 7";"Rachel's Experiment (D.T.)";"1.0";"2";"1";"1";"2";"1";"1";"2014-10-15 16:22:09.541";"2014-10-15 16:36:20.241";"1";"0";"1";"159";"158";"module.training_block4.exec-6799.GoNoGo4";;;;;;;;;;;;;;;;;;;;;;;;;;;;;;;;;;;;;;;;;;;;;;;;;;;;;;;;;;;"1262";"2014-10-15 16:32:04.120";"NST_correctLoc";"11";"0";"FINISHED";"LEFT";"success";"383";"0";"2014-10-15 16:32:02.857";"2";;;;;;;;;;;;;;;;;;;;;
"C1303336";;;"Windows 7";"Rachel's Experiment (D.T.)";"1.0";"2";"1";"1";"2";"1";"1";"2014-10-15 16:22:09.541";"2014-10-15 16:36:20.241";"1";"0";"1";"160";"159";"module.devaluation_practice.exec-8490.devalPractice";;;;;;;;;;;;"17805";"2014-10-15 16:32:48.050";"0";"7";"8";"7";"6156";"4108";"4486";"2014-10-15 16:32:30.250";;;;;;;;;;;;;;;;;;;;;;;;;;;;;;;;;;;;;;;;;;;;;;;;;;;;;;;;;;;;;;;;;;;;;;
"C1303336";;;"Windows 7";"Rachel's Experiment (D.T.)";"1.0";"2";"1";"1";"2";"1";"1";"2014-10-15 16:22:09.541";"2014-10-15 16:36:20.241";"1";"0";"1";"161";"160";"module.devaluation_practice.exec-8490.devalPractice";;;;;;;;;;;;"7173";"2014-10-15 16:32:55.257";"1";"6";"6";"6";"1777";"1245";"1109";"2014-10-15 16:32:48.081";;;;;;;;;;;;;;;;;;;;;;;;;;;;;;;;;;;;;;;;;;;;;;;;;;;;;;;;;;;;;;;;;;;;;;
"C1303336";;;"Windows 7";"Rachel's Experiment (D.T.)";"1.0";"2";"1";"1";"2";"1";"1";"2014-10-15 16:22:09.541";"2014-10-15 16:36:20.241";"1";"0";"1";"162";"161";"module.devaluation_practice.exec-8490.devalPractice";;;;;;;;;;;;"7962";"2014-10-15 16:33:03.229";"2";"6";"8";"7";"1481";"945";"2502";"2014-10-15 16:32:55.273";;;;;;;;;;;;;;;;;;;;;;;;;;;;;;;;;;;;;;;;;;;;;;;;;;;;;;;;;;;;;;;;;;;;;;
"C1303336";;;"Windows 7";"Rachel's Experiment (D.T.)";"1.0";"2";"1";"1";"2";"1";"1";"2014-10-15 16:22:09.541";"2014-10-15 16:36:20.241";"1";"0";"1";"163";"162";"module.devaluation_practice.exec-8490.devalPractice";;;;;;;;;;;;"7604";"2014-10-15 16:33:10.857";"3";"8";"9";"7";"1182";"1534";"1867";"2014-10-15 16:33:03.260";;;;;;;;;;;;;;;;;;;;;;;;;;;;;;;;;;;;;;;;;;;;;;;;;;;;;;;;;;;;;;;;;;;;;;
"C1303336";;;"Windows 7";"Rachel's Experiment (D.T.)";"1.0";"2";"1";"1";"2";"1";"1";"2014-10-15 16:22:09.541";"2014-10-15 16:36:20.241";"1";"0";"1";"164";"163";"module.devaluation_block1.exec-1511.deval1";"6973";"2014-10-15 16:33:22.651";"6";"6";"8";"6";"1123";"1048";"1773";"2014-10-15 16:33:15.677";"1";;;;;;;;;;;;;;;;;;;;;;;;;;;;;;;;;;;;;;;;;;;;;;;;;;;;;;;;;;;;;;;;;;;;;;;;;;;;;;;;
"C1303336";;;"Windows 7";"Rachel's Experiment (D.T.)";"1.0";"2";"1";"1";"2";"1";"1";"2014-10-15 16:22:09.541";"2014-10-15 16:36:20.241";"1";"0";"1";"165";"164";"module.devaluation_block1.exec-1511.deval1";"5380";"2014-10-15 16:33:28.048";"8";"7";"8";"6";"631";"1191";"540";"2014-10-15 16:33:22.666";"1";;;;;;;;;;;;;;;;;;;;;;;;;;;;;;;;;;;;;;;;;;;;;;;;;;;;;;;;;;;;;;;;;;;;;;;;;;;;;;;;
"C1303336";;;"Windows 7";"Rachel's Experiment (D.T.)";"1.0";"2";"1";"1";"2";"1";"1";"2014-10-15 16:22:09.541";"2014-10-15 16:36:20.241";"1";"0";"1";"166";"165";"module.devaluation_block1.exec-1511.deval1";"7075";"2014-10-15 16:33:35.146";"20";"6";"8";"7";"906";"1790";"1350";"2014-10-15 16:33:28.080";"3";;;;;;;;;;;;;;;;;;;;;;;;;;;;;;;;;;;;;;;;;;;;;;;;;;;;;;;;;;;;;;;;;;;;;;;;;;;;;;;;
"C1303336";;;"Windows 7";"Rachel's Experiment (D.T.)";"1.0";"2";"1";"1";"2";"1";"1";"2014-10-15 16:22:09.541";"2014-10-15 16:36:20.241";"1";"0";"1";"167";"166";"module.devaluation_block1.exec-1511.deval1";"8197";"2014-10-15 16:33:43.368";"9";"5";"6";"5";"1416";"1769";"1985";"2014-10-15 16:33:35.178";"2";;;;;;;;;;;;;;;;;;;;;;;;;;;;;;;;;;;;;;;;;;;;;;;;;;;;;;;;;;;;;;;;;;;;;;;;;;;;;;;;
"C1303336";;;"Windows 7";"Rachel's Experiment (D.T.)";"1.0";"2";"1";"1";"2";"1";"1";"2014-10-15 16:22:09.541";"2014-10-15 16:36:20.241";"1";"0";"1";"168";"167";"module.devaluation_block1.exec-1511.deval1";"7661";"2014-10-15 16:33:51.043";"1";"6";"8";"8";"1722";"1821";"1091";"2014-10-15 16:33:43.383";"1";;;;;;;;;;;;;;;;;;;;;;;;;;;;;;;;;;;;;;;;;;;;;;;;;;;;;;;;;;;;;;;;;;;;;;;;;;;;;;;;
"C1303336";;;"Windows 7";"Rachel's Experiment (D.T.)";"1.0";"2";"1";"1";"2";"1";"1";"2014-10-15 16:22:09.541";"2014-10-15 16:36:20.241";"1";"0";"1";"169";"168";"module.devaluation_block1.exec-1511.deval1";"6498";"2014-10-15 16:33:57.688";"0";"9";"9";"9";"1362";"989";"1092";"2014-10-15 16:33:51.183";"1";;;;;;;;;;;;;;;;;;;;;;;;;;;;;;;;;;;;;;;;;;;;;;;;;;;;;;;;;;;;;;;;;;;;;;;;;;;;;;;;
"C1303336";;;"Windows 7";"Rachel's Experiment (D.T.)";"1.0";"2";"1";"1";"2";"1";"1";"2014-10-15 16:22:09.541";"2014-10-15 16:36:20.241";"1";"0";"1";"170";"169";"module.devaluation_block1.exec-1511.deval1";"6475";"2014-10-15 16:34:04.178";"2";"8";"9";"9";"945";"1189";"1318";"2014-10-15 16:33:57.704";"1";;;;;;;;;;;;;;;;;;;;;;;;;;;;;;;;;;;;;;;;;;;;;;;;;;;;;;;;;;;;;;;;;;;;;;;;;;;;;;;;
"C1303336";;;"Windows 7";"Rachel's Experiment (D.T.)";"1.0";"2";"1";"1";"2";"1";"1";"2014-10-15 16:22:09.541";"2014-10-15 16:36:20.241";"1";"0";"1";"171";"170";"module.devaluation_block1.exec-1511.deval1";"6580";"2014-10-15 16:34:10.777";"25";"9";"8";"5";"976";"1877";"710";"2014-10-15 16:34:04.194";"3";;;;;;;;;;;;;;;;;;;;;;;;;;;;;;;;;;;;;;;;;;;;;;;;;;;;;;;;;;;;;;;;;;;;;;;;;;;;;;;;
"C1303336";;;"Windows 7";"Rachel's Experiment (D.T.)";"1.0";"2";"1";"1";"2";"1";"1";"2014-10-15 16:22:09.541";"2014-10-15 16:36:20.241";"1";"0";"1";"172";"171";"module.devaluation_block1.exec-1511.deval1";"6454";"2014-10-15 16:34:17.251";"3";"9";"9";"9";"1049";"1157";"1217";"2014-10-15 16:34:10.792";"1";;;;;;;;;;;;;;;;;;;;;;;;;;;;;;;;;;;;;;;;;;;;;;;;;;;;;;;;;;;;;;;;;;;;;;;;;;;;;;;;
"C1303336";;;"Windows 7";"Rachel's Experiment (D.T.)";"1.0";"2";"1";"1";"2";"1";"1";"2014-10-15 16:22:09.541";"2014-10-15 16:36:20.241";"1";"0";"1";"173";"172";"module.devaluation_block1.exec-1511.deval1";"6319";"2014-10-15 16:34:23.600";"22";"9";"8";"7";"1007";"1207";"1078";"2014-10-15 16:34:17.282";"3";;;;;;;;;;;;;;;;;;;;;;;;;;;;;;;;;;;;;;;;;;;;;;;;;;;;;;;;;;;;;;;;;;;;;;;;;;;;;;;;
"C1303336";;;"Windows 7";"Rachel's Experiment (D.T.)";"1.0";"2";"1";"1";"2";"1";"1";"2014-10-15 16:22:09.541";"2014-10-15 16:36:20.241";"1";"0";"1";"174";"173";"module.devaluation_block1.exec-1511.deval1";"6093";"2014-10-15 16:34:29.715";"4";"9";"9";"8";"1130";"876";"1060";"2014-10-15 16:34:23.616";"1";;;;;;;;;;;;;;;;;;;;;;;;;;;;;;;;;;;;;;;;;;;;;;;;;;;;;;;;;;;;;;;;;;;;;;;;;;;;;;;;
"C1303336";;;"Windows 7";"Rachel's Experiment (D.T.)";"1.0";"2";"1";"1";"2";"1";"1";"2014-10-15 16:22:09.541";"2014-10-15 16:36:20.241";"1";"0";"1";"175";"174";"module.devaluation_block1.exec-1511.deval1";"6496";"2014-10-15 16:34:36.236";"26";"8";"8";"9";"1543";"883";"1028";"2014-10-15 16:34:29.746";"3";;;;;;;;;;;;;;;;;;;;;;;;;;;;;;;;;;;;;;;;;;;;;;;;;;;;;;;;;;;;;;;;;;;;;;;;;;;;;;;;
"C1303336";;;"Windows 7";"Rachel's Experiment (D.T.)";"1.0";"2";"1";"1";"2";"1";"1";"2014-10-15 16:22:09.541";"2014-10-15 16:36:20.241";"1";"0";"1";"176";"175";"module.devaluation_block1.exec-1511.deval1";"7325";"2014-10-15 16:34:43.584";"23";"8";"8";"7";"2021";"958";"1334";"2014-10-15 16:34:36.252";"3";;;;;;;;;;;;;;;;;;;;;;;;;;;;;;;;;;;;;;;;;;;;;;;;;;;;;;;;;;;;;;;;;;;;;;;;;;;;;;;;
"C1303336";;;"Windows 7";"Rachel's Experiment (D.T.)";"1.0";"2";"1";"1";"2";"1";"1";"2014-10-15 16:22:09.541";"2014-10-15 16:36:20.241";"1";"0";"1";"177";"176";"module.devaluation_block1.exec-1511.deval1";"6557";"2014-10-15 16:34:50.167";"16";"3";"6";"4";"1410";"841";"1291";"2014-10-15 16:34:43.599";"2";;;;;;;;;;;;;;;;;;;;;;;;;;;;;;;;;;;;;;;;;;;;;;;;;;;;;;;;;;;;;;;;;;;;;;;;;;;;;;;;
"C1303336";;;"Windows 7";"Rachel's Experiment (D.T.)";"1.0";"2";"1";"1";"2";"1";"1";"2014-10-15 16:22:09.541";"2014-10-15 16:36:20.241";"1";"0";"1";"178";"177";"module.devaluation_block1.exec-1511.deval1";"5430";"2014-10-15 16:34:55.611";"7";"7";"8";"8";"747";"767";"883";"2014-10-15 16:34:50.182";"1";;;;;;;;;;;;;;;;;;;;;;;;;;;;;;;;;;;;;;;;;;;;;;;;;;;;;;;;;;;;;;;;;;;;;;;;;;;;;;;;
"C1303336";;;"Windows 7";"Rachel's Experiment (D.T.)";"1.0";"2";"1";"1";"2";"1";"1";"2014-10-15 16:22:09.541";"2014-10-15 16:36:20.241";"1";"0";"1";"179";"178";"module.devaluation_block1.exec-1511.deval1";"9829";"2014-10-15 16:35:05.455";"10";"7";"7";"7";"2454";"1317";"3022";"2014-10-15 16:34:55.627";"2";;;;;;;;;;;;;;;;;;;;;;;;;;;;;;;;;;;;;;;;;;;;;;;;;;;;;;;;;;;;;;;;;;;;;;;;;;;;;;;;
"C1303336";;;"Windows 7";"Rachel's Experiment (D.T.)";"1.0";"2";"1";"1";"2";"1";"1";"2014-10-15 16:22:09.541";"2014-10-15 16:36:20.241";"1";"0";"1";"180";"179";"module.devaluation_block1.exec-1511.deval1";"5373";"2014-10-15 16:35:10.852";"17";"4";"5";"4";"483";"1358";"500";"2014-10-15 16:35:05.470";"2";;;;;;;;;;;;;;;;;;;;;;;;;;;;;;;;;;;;;;;;;;;;;;;;;;;;;;;;;;;;;;;;;;;;;;;;;;;;;;;;
"C1303336";;;"Windows 7";"Rachel's Experiment (D.T.)";"1.0";"2";"1";"1";"2";"1";"1";"2014-10-15 16:22:09.541";"2014-10-15 16:36:20.241";"1";"0";"1";"181";"180";"module.devaluation_block1.exec-1511.deval1";"6535";"2014-10-15 16:35:17.420";"11";"6";"6";"5";"1365";"1218";"925";"2014-10-15 16:35:10.884";"2";;;;;;;;;;;;;;;;;;;;;;;;;;;;;;;;;;;;;;;;;;;;;;;;;;;;;;;;;;;;;;;;;;;;;;;;;;;;;;;;
"C1303336";;;"Windows 7";"Rachel's Experiment (D.T.)";"1.0";"2";"1";"1";"2";"1";"1";"2014-10-15 16:22:09.541";"2014-10-15 16:36:20.241";"1";"0";"1";"182";"181";"module.devaluation_block1.exec-1511.deval1";"5693";"2014-10-15 16:35:23.130";"13";"4";"5";"6";"461";"581";"1630";"2014-10-15 16:35:17.436";"2";;;;;;;;;;;;;;;;;;;;;;;;;;;;;;;;;;;;;;;;;;;;;;;;;;;;;;;;;;;;;;;;;;;;;;;;;;;;;;;;
"C1303336";;;"Windows 7";"Rachel's Experiment (D.T.)";"1.0";"2";"1";"1";"2";"1";"1";"2014-10-15 16:22:09.541";"2014-10-15 16:36:20.241";"1";"0";"1";"183";"182";"module.devaluation_block1.exec-1511.deval1";"5720";"2014-10-15 16:35:28.886";"18";"6";"7";"7";"472";"764";"1457";"2014-10-15 16:35:23.161";"3";;;;;;;;;;;;;;;;;;;;;;;;;;;;;;;;;;;;;;;;;;;;;;;;;;;;;;;;;;;;;;;;;;;;;;;;;;;;;;;;
"C1303336";;;"Windows 7";"Rachel's Experiment (D.T.)";"1.0";"2";"1";"1";"2";"1";"1";"2014-10-15 16:22:09.541";"2014-10-15 16:36:20.241";"1";"0";"1";"184";"183";"module.devaluation_block1.exec-1511.deval1";"5820";"2014-10-15 16:35:34.736";"15";"4";"5";"5";"740";"1362";"692";"2014-10-15 16:35:28.917";"2";;;;;;;;;;;;;;;;;;;;;;;;;;;;;;;;;;;;;;;;;;;;;;;;;;;;;;;;;;;;;;;;;;;;;;;;;;;;;;;;
"C1303336";;;"Windows 7";"Rachel's Experiment (D.T.)";"1.0";"2";"1";"1";"2";"1";"1";"2014-10-15 16:22:09.541";"2014-10-15 16:36:20.241";"1";"0";"1";"185";"184";"module.devaluation_block1.exec-1511.deval1";"7061";"2014-10-15 16:35:41.819";"19";"7";"9";"8";"2001";"1138";"890";"2014-10-15 16:35:34.752";"3";;;;;;;;;;;;;;;;;;;;;;;;;;;;;;;;;;;;;;;;;;;;;;;;;;;;;;;;;;;;;;;;;;;;;;;;;;;;;;;;
"C1303336";;;"Windows 7";"Rachel's Experiment (D.T.)";"1.0";"2";"1";"1";"2";"1";"1";"2014-10-15 16:22:09.541";"2014-10-15 16:36:20.241";"1";"0";"1";"186";"185";"module.devaluation_block1.exec-1511.deval1";"6261";"2014-10-15 16:35:48.090";"14";"6";"4";"5";"423";"620";"2183";"2014-10-15 16:35:41.834";"2";;;;;;;;;;;;;;;;;;;;;;;;;;;;;;;;;;;;;;;;;;;;;;;;;;;;;;;;;;;;;;;;;;;;;;;;;;;;;;;;
"C1303336";;;"Windows 7";"Rachel's Experiment (D.T.)";"1.0";"2";"1";"1";"2";"1";"1";"2014-10-15 16:22:09.541";"2014-10-15 16:36:20.241";"1";"0";"1";"187";"186";"module.devaluation_block1.exec-1511.deval1";"5961";"2014-10-15 16:35:54.080";"12";"7";"6";"7";"896";"567";"1476";"2014-10-15 16:35:48.121";"2";;;;;;;;;;;;;;;;;;;;;;;;;;;;;;;;;;;;;;;;;;;;;;;;;;;;;;;;;;;;;;;;;;;;;;;;;;;;;;;;
"C1303336";;;"Windows 7";"Rachel's Experiment (D.T.)";"1.0";"2";"1";"1";"2";"1";"1";"2014-10-15 16:22:09.541";"2014-10-15 16:36:20.241";"1";"0";"1";"188";"187";"module.devaluation_block1.exec-1511.deval1";"6921";"2014-10-15 16:36:01.038";"24";"6";"9";"8";"537";"1029";"2332";"2014-10-15 16:35:54.111";"3";;;;;;;;;;;;;;;;;;;;;;;;;;;;;;;;;;;;;;;;;;;;;;;;;;;;;;;;;;;;;;;;;;;;;;;;;;;;;;;;
"C1303336";;;"Windows 7";"Rachel's Experiment (D.T.)";"1.0";"2";"1";"1";"2";"1";"1";"2014-10-15 16:22:09.541";"2014-10-15 16:36:20.241";"1";"0";"1";"189";"188";"module.devaluation_block1.exec-1511.deval1";"9019";"2014-10-15 16:36:10.070";"21";"9";"9";"9";"3891";"1177";"932";"2014-10-15 16:36:01.053";"3";;;;;;;;;;;;;;;;;;;;;;;;;;;;;;;;;;;;;;;;;;;;;;;;;;;;;;;;;;;;;;;;;;;;;;;;;;;;;;;;
"C1303336";;;"Windows 7";"Rachel's Experiment (D.T.)";"1.0";"2";"1";"1";"2";"1";"1";"2014-10-15 16:22:09.541";"2014-10-15 16:36:20.241";"1";"0";"1";"190";"189";"module.devaluation_block1.exec-1511.deval1";"7957";"2014-10-15 16:36:18.042";"5";"9";"9";"9";"2275";"1119";"1538";"2014-10-15 16:36:10.086";"1";;;;;;;;;;;;;;;;;;;;;;;;;;;;;;;;;;;;;;;;;;;;;;;;;;;;;;;;;;;;;;;;;;;;;;;;;;;;;;;;
