"user.name";"user.yearOfBirth";"user.sex";"user.osName";"module.name";"module.version";"module.online.subject.code";"module.online.study.id";"module.online.module.nr";"module.online.group.nr";"session.id";"session.index";"session.startTime";"session.endTime";"session.completed";"session.node-4204.conditionType";"session.node-7328.DevalQorder";"trial.id";"trial.index";"trial.name";"trial.deval1.durationTime";"trial.deval1.endTime";"trial.deval1.icon";"trial.deval1.Resp_Attractive";"trial.deval1.Resp_Eat";"trial.deval1.Resp_Taste";"trial.deval1.RT_Attractive";"trial.deval1.RT_Eat";"trial.deval1.RT_Taste";"trial.deval1.startTime";"trial.deval1.stimulus type";"trial.devalPractice.durationTime";"trial.devalPractice.endTime";"trial.devalPractice.icon";"trial.devalPractice.Resp_Attractive";"trial.devalPractice.Resp_Eat";"trial.devalPractice.Resp_Taste";"trial.devalPractice.RT_Attractive";"trial.devalPractice.RT_Eat";"trial.devalPractice.RT_Taste";"trial.devalPractice.startTime";"trial.devalPractice.stimulus type";"trial.GoNoGo1.durationTime";"trial.GoNoGo1.endTime";"trial.GoNoGo1.Error Type";"trial.GoNoGo1.icon";"trial.GoNoGo1.location";"trial.GoNoGo1.outcome";"trial.GoNoGo1.response";"trial.GoNoGo1.result";"trial.GoNoGo1.RT";"trial.GoNoGo1.signal";"trial.GoNoGo1.startTime";"trial.GoNoGo1.stimulus type";"trial.GoNoGo2.durationTime";"trial.GoNoGo2.endTime";"trial.GoNoGo2.Error Type";"trial.GoNoGo2.icon";"trial.GoNoGo2.location";"trial.GoNoGo2.outcome";"trial.GoNoGo2.response";"trial.GoNoGo2.result";"trial.GoNoGo2.RT";"trial.GoNoGo2.signal";"trial.GoNoGo2.startTime";"trial.GoNoGo2.stimulus type";"trial.GoNoGo3.durationTime";"trial.GoNoGo3.endTime";"trial.GoNoGo3.Error Type";"trial.GoNoGo3.icon";"trial.GoNoGo3.location";"trial.GoNoGo3.outcome";"trial.GoNoGo3.response";"trial.GoNoGo3.result";"trial.GoNoGo3.RT";"trial.GoNoGo3.signal";"trial.GoNoGo3.startTime";"trial.GoNoGo3.stimulus type";"trial.GoNoGo4.durationTime";"trial.GoNoGo4.endTime";"trial.GoNoGo4.Error Type";"trial.GoNoGo4.icon";"trial.GoNoGo4.location";"trial.GoNoGo4.outcome";"trial.GoNoGo4.response";"trial.GoNoGo4.result";"trial.GoNoGo4.RT";"trial.GoNoGo4.signal";"trial.GoNoGo4.startTime";"trial.GoNoGo4.stimulus type";"trial.GoNoGo_Practice.durationTime";"trial.GoNoGo_Practice.endTime";"trial.GoNoGo_Practice.icon";"trial.GoNoGo_Practice.location";"trial.GoNoGo_Practice.outcome";"trial.GoNoGo_Practice.response";"trial.GoNoGo_Practice.result";"trial.GoNoGo_Practice.RT";"trial.GoNoGo_Practice.signal";"trial.GoNoGo_Practice.startTime";"trial.GoNoGo_Practice.stimulus type";"trial.GoNoGo_Tutorial.durationTime";"trial.GoNoGo_Tutorial.endTime";"trial.GoNoGo_Tutorial.icon";"trial.GoNoGo_Tutorial.location";"trial.GoNoGo_Tutorial.outcome";"trial.GoNoGo_Tutorial.response";"trial.GoNoGo_Tutorial.result";"trial.GoNoGo_Tutorial.RT";"trial.GoNoGo_Tutorial.signal";"trial.GoNoGo_Tutorial.startTime"
"summer1";;;"Windows 8";"Rachel's Experiment (D.T.)";"1.0";"2";"1";"1";"2";"1";"1";"2014-08-06 17:36:56.513";"2014-08-06 17:50:56.471";"1";"1";"1";"1";"0";"module.GoNoGotutorial.exec-7988.GoNoGo_Tutorial";;;;;;;;;;;;;;;;;;;;;;;;;;;;;;;;;;;;;;;;;;;;;;;;;;;;;;;;;;;;;;;;;;;;;;;;;;;;;;;;;;"4001";"2014-08-06 17:38:19.516";"leftResponse";"0";"FINISHED";"LEFT";"success";"2118";"0";"2014-08-06 17:38:15.515"
"summer1";;;"Windows 8";"Rachel's Experiment (D.T.)";"1.0";"2";"1";"1";"2";"1";"1";"2014-08-06 17:36:56.513";"2014-08-06 17:50:56.471";"1";"1";"1";"2";"1";"module.GoNoGotutorial.exec-7988.GoNoGo_Tutorial";;;;;;;;;;;;;;;;;;;;;;;;;;;;;;;;;;;;;;;;;;;;;;;;;;;;;;;;;;;;;;;;;;;;;;;;;;;;;;;;;;"4000";"2014-08-06 17:38:24.892";"rightResponse";"1";"FINISHED";"RIGHT";"success";"578";"0";"2014-08-06 17:38:20.891"
"summer1";;;"Windows 8";"Rachel's Experiment (D.T.)";"1.0";"2";"1";"1";"2";"1";"1";"2014-08-06 17:36:56.513";"2014-08-06 17:50:56.471";"1";"1";"1";"3";"2";"module.GoNoGotutorial.exec-7988.GoNoGo_Tutorial";;;;;;;;;;;;;;;;;;;;;;;;;;;;;;;;;;;;;;;;;;;;;;;;;;;;;;;;;;;;;;;;;;;;;;;;;;;;;;;;;;"3999";"2014-08-06 17:38:30.203";"signalResponse";"0";"FINISHED";"NONE";"success";"0";"1";"2014-08-06 17:38:26.203"
"summer1";;;"Windows 8";"Rachel's Experiment (D.T.)";"1.0";"2";"1";"1";"2";"1";"1";"2014-08-06 17:36:56.513";"2014-08-06 17:50:56.471";"1";"1";"1";"4";"3";"module.GoNoGopractice.exec-6634.GoNoGo_Practice";;;;;;;;;;;;;;;;;;;;;;;;;;;;;;;;;;;;;;;;;;;;;;;;;;;;;;;;;;;;;;;;;;;;;;;"1959";"2014-08-06 17:38:37.835";"18";"0";"FINISHED";"LEFT";"success";"576";"0";"2014-08-06 17:38:35.876";"3";;;;;;;;;;
"summer1";;;"Windows 8";"Rachel's Experiment (D.T.)";"1.0";"2";"1";"1";"2";"1";"1";"2014-08-06 17:36:56.513";"2014-08-06 17:50:56.471";"1";"1";"1";"5";"4";"module.GoNoGopractice.exec-6634.GoNoGo_Practice";;;;;;;;;;;;;;;;;;;;;;;;;;;;;;;;;;;;;;;;;;;;;;;;;;;;;;;;;;;;;;;;;;;;;;;"1954";"2014-08-06 17:38:41.084";"21";"1";"FINISHED";"RIGHT";"success";"478";"0";"2014-08-06 17:38:39.129";"3";;;;;;;;;;
"summer1";;;"Windows 8";"Rachel's Experiment (D.T.)";"1.0";"2";"1";"1";"2";"1";"1";"2014-08-06 17:36:56.513";"2014-08-06 17:50:56.471";"1";"1";"1";"6";"5";"module.GoNoGopractice.exec-6634.GoNoGo_Practice";;;;;;;;;;;;;;;;;;;;;;;;;;;;;;;;;;;;;;;;;;;;;;;;;;;;;;;;;;;;;;;;;;;;;;;"1957";"2014-08-06 17:38:44.354";"14";"1";"FINISHED";"RIGHT";"failure";"679";"1";"2014-08-06 17:38:42.396";"2";;;;;;;;;;
"summer1";;;"Windows 8";"Rachel's Experiment (D.T.)";"1.0";"2";"1";"1";"2";"1";"1";"2014-08-06 17:36:56.513";"2014-08-06 17:50:56.471";"1";"1";"1";"7";"6";"module.GoNoGopractice.exec-6634.GoNoGo_Practice";;;;;;;;;;;;;;;;;;;;;;;;;;;;;;;;;;;;;;;;;;;;;;;;;;;;;;;;;;;;;;;;;;;;;;;"1952";"2014-08-06 17:38:47.607";"26";"0";"FINISHED";"LEFT";"success";"1179";"0";"2014-08-06 17:38:45.653";"3";;;;;;;;;;
"summer1";;;"Windows 8";"Rachel's Experiment (D.T.)";"1.0";"2";"1";"1";"2";"1";"1";"2014-08-06 17:36:56.513";"2014-08-06 17:50:56.471";"1";"1";"1";"8";"7";"module.GoNoGopractice.exec-6634.GoNoGo_Practice";;;;;;;;;;;;;;;;;;;;;;;;;;;;;;;;;;;;;;;;;;;;;;;;;;;;;;;;;;;;;;;;;;;;;;;"1958";"2014-08-06 17:38:50.871";"2";"0";"FINISHED";"NONE";"failure";"0";"0";"2014-08-06 17:38:48.912";"1";;;;;;;;;;
"summer1";;;"Windows 8";"Rachel's Experiment (D.T.)";"1.0";"2";"1";"1";"2";"1";"1";"2014-08-06 17:36:56.513";"2014-08-06 17:50:56.471";"1";"1";"1";"9";"8";"module.GoNoGopractice.exec-6634.GoNoGo_Practice";;;;;;;;;;;;;;;;;;;;;;;;;;;;;;;;;;;;;;;;;;;;;;;;;;;;;;;;;;;;;;;;;;;;;;;"1953";"2014-08-06 17:38:54.133";"30";"0";"FINISHED";"LEFT";"failure";"547";"1";"2014-08-06 17:38:52.180";"3";;;;;;;;;;
"summer1";;;"Windows 8";"Rachel's Experiment (D.T.)";"1.0";"2";"1";"1";"2";"1";"1";"2014-08-06 17:36:56.513";"2014-08-06 17:50:56.471";"1";"1";"1";"10";"9";"module.GoNoGopractice.exec-6634.GoNoGo_Practice";;;;;;;;;;;;;;;;;;;;;;;;;;;;;;;;;;;;;;;;;;;;;;;;;;;;;;;;;;;;;;;;;;;;;;;"1958";"2014-08-06 17:38:57.405";"6";"1";"FINISHED";"NONE";"success";"0";"1";"2014-08-06 17:38:55.446";"1";;;;;;;;;;
"summer1";;;"Windows 8";"Rachel's Experiment (D.T.)";"1.0";"2";"1";"1";"2";"1";"1";"2014-08-06 17:36:56.513";"2014-08-06 17:50:56.471";"1";"1";"1";"11";"10";"module.GoNoGopractice.exec-6634.GoNoGo_Practice";;;;;;;;;;;;;;;;;;;;;;;;;;;;;;;;;;;;;;;;;;;;;;;;;;;;;;;;;;;;;;;;;;;;;;;"1951";"2014-08-06 17:39:00.667";"34";"0";"FINISHED";"LEFT";"success";"453";"0";"2014-08-06 17:38:58.714";"3";;;;;;;;;;
"summer1";;;"Windows 8";"Rachel's Experiment (D.T.)";"1.0";"2";"1";"1";"2";"1";"1";"2014-08-06 17:36:56.513";"2014-08-06 17:50:56.471";"1";"1";"1";"12";"11";"module.GoNoGopractice.exec-6634.GoNoGo_Practice";;;;;;;;;;;;;;;;;;;;;;;;;;;;;;;;;;;;;;;;;;;;;;;;;;;;;;;;;;;;;;;;;;;;;;;"1952";"2014-08-06 17:39:03.922";"23";"1";"FINISHED";"RIGHT";"success";"487";"0";"2014-08-06 17:39:01.970";"3";;;;;;;;;;
"summer1";;;"Windows 8";"Rachel's Experiment (D.T.)";"1.0";"2";"1";"1";"2";"1";"1";"2014-08-06 17:36:56.513";"2014-08-06 17:50:56.471";"1";"1";"1";"13";"12";"module.GoNoGopractice.exec-6634.GoNoGo_Practice";;;;;;;;;;;;;;;;;;;;;;;;;;;;;;;;;;;;;;;;;;;;;;;;;;;;;;;;;;;;;;;;;;;;;;;"1953";"2014-08-06 17:39:07.184";"13";"0";"FINISHED";"NONE";"success";"0";"1";"2014-08-06 17:39:05.230";"2";;;;;;;;;;
"summer1";;;"Windows 8";"Rachel's Experiment (D.T.)";"1.0";"2";"1";"1";"2";"1";"1";"2014-08-06 17:36:56.513";"2014-08-06 17:50:56.471";"1";"1";"1";"14";"13";"module.GoNoGopractice.exec-6634.GoNoGo_Practice";;;;;;;;;;;;;;;;;;;;;;;;;;;;;;;;;;;;;;;;;;;;;;;;;;;;;;;;;;;;;;;;;;;;;;;"1954";"2014-08-06 17:39:10.452";"3";"1";"FINISHED";"RIGHT";"success";"479";"0";"2014-08-06 17:39:08.497";"1";;;;;;;;;;
"summer1";;;"Windows 8";"Rachel's Experiment (D.T.)";"1.0";"2";"1";"1";"2";"1";"1";"2014-08-06 17:36:56.513";"2014-08-06 17:50:56.471";"1";"1";"1";"15";"14";"module.GoNoGopractice.exec-6634.GoNoGo_Practice";;;;;;;;;;;;;;;;;;;;;;;;;;;;;;;;;;;;;;;;;;;;;;;;;;;;;;;;;;;;;;;;;;;;;;;"1952";"2014-08-06 17:39:13.722";"27";"1";"FINISHED";"NONE";"success";"0";"1";"2014-08-06 17:39:11.769";"3";;;;;;;;;;
"summer1";;;"Windows 8";"Rachel's Experiment (D.T.)";"1.0";"2";"1";"1";"2";"1";"1";"2014-08-06 17:36:56.513";"2014-08-06 17:50:56.471";"1";"1";"1";"16";"15";"module.training_block1.exec-3810.GoNoGo1";;;;;;;;;;;;;;;;;;;;;;;"1251";"2014-08-06 17:39:24.026";"NST_correctLoc";"30";"1";"FINISHED";"RIGHT";"success";"428";"0";"2014-08-06 17:39:22.775";"3";;;;;;;;;;;;;;;;;;;;;;;;;;;;;;;;;;;;;;;;;;;;;;;;;;;;;;;;;
"summer1";;;"Windows 8";"Rachel's Experiment (D.T.)";"1.0";"2";"1";"1";"2";"1";"1";"2014-08-06 17:36:56.513";"2014-08-06 17:50:56.471";"1";"1";"1";"17";"16";"module.training_block1.exec-3810.GoNoGo1";;;;;;;;;;;;;;;;;;;;;;;"1250";"2014-08-06 17:39:26.584";"ST_correctStop";"29";"0";"FINISHED";"NONE";"success";"0";"1";"2014-08-06 17:39:25.332";"3";;;;;;;;;;;;;;;;;;;;;;;;;;;;;;;;;;;;;;;;;;;;;;;;;;;;;;;;;
"summer1";;;"Windows 8";"Rachel's Experiment (D.T.)";"1.0";"2";"1";"1";"2";"1";"1";"2014-08-06 17:36:56.513";"2014-08-06 17:50:56.471";"1";"1";"1";"18";"17";"module.training_block1.exec-3810.GoNoGo1";;;;;;;;;;;;;;;;;;;;;;;"1250";"2014-08-06 17:39:29.130";"ST_correctStop";"26";"1";"FINISHED";"NONE";"success";"0";"1";"2014-08-06 17:39:27.880";"3";;;;;;;;;;;;;;;;;;;;;;;;;;;;;;;;;;;;;;;;;;;;;;;;;;;;;;;;;
"summer1";;;"Windows 8";"Rachel's Experiment (D.T.)";"1.0";"2";"1";"1";"2";"1";"1";"2014-08-06 17:36:56.513";"2014-08-06 17:50:56.471";"1";"1";"1";"19";"18";"module.training_block1.exec-3810.GoNoGo1";;;;;;;;;;;;;;;;;;;;;;;"1250";"2014-08-06 17:39:31.691";"ST_correctStop";"1";"0";"FINISHED";"NONE";"success";"0";"1";"2014-08-06 17:39:30.441";"1";;;;;;;;;;;;;;;;;;;;;;;;;;;;;;;;;;;;;;;;;;;;;;;;;;;;;;;;;
"summer1";;;"Windows 8";"Rachel's Experiment (D.T.)";"1.0";"2";"1";"1";"2";"1";"1";"2014-08-06 17:36:56.513";"2014-08-06 17:50:56.471";"1";"1";"1";"20";"19";"module.training_block1.exec-3810.GoNoGo1";;;;;;;;;;;;;;;;;;;;;;;"1249";"2014-08-06 17:39:34.246";"ST_correctStop";"18";"1";"FINISHED";"NONE";"success";"0";"1";"2014-08-06 17:39:32.995";"3";;;;;;;;;;;;;;;;;;;;;;;;;;;;;;;;;;;;;;;;;;;;;;;;;;;;;;;;;
"summer1";;;"Windows 8";"Rachel's Experiment (D.T.)";"1.0";"2";"1";"1";"2";"1";"1";"2014-08-06 17:36:56.513";"2014-08-06 17:50:56.471";"1";"1";"1";"21";"20";"module.training_block1.exec-3810.GoNoGo1";;;;;;;;;;;;;;;;;;;;;;;"1250";"2014-08-06 17:39:36.801";"NST_correctLoc";"21";"0";"FINISHED";"LEFT";"success";"499";"0";"2014-08-06 17:39:35.551";"3";;;;;;;;;;;;;;;;;;;;;;;;;;;;;;;;;;;;;;;;;;;;;;;;;;;;;;;;;
"summer1";;;"Windows 8";"Rachel's Experiment (D.T.)";"1.0";"2";"1";"1";"2";"1";"1";"2014-08-06 17:36:56.513";"2014-08-06 17:50:56.471";"1";"1";"1";"22";"21";"module.training_block1.exec-3810.GoNoGo1";;;;;;;;;;;;;;;;;;;;;;;"1249";"2014-08-06 17:39:39.354";"ST_correctStop";"2";"1";"FINISHED";"NONE";"success";"0";"1";"2014-08-06 17:39:38.104";"1";;;;;;;;;;;;;;;;;;;;;;;;;;;;;;;;;;;;;;;;;;;;;;;;;;;;;;;;;
"summer1";;;"Windows 8";"Rachel's Experiment (D.T.)";"1.0";"2";"1";"1";"2";"1";"1";"2014-08-06 17:36:56.513";"2014-08-06 17:50:56.471";"1";"1";"1";"23";"22";"module.training_block1.exec-3810.GoNoGo1";;;;;;;;;;;;;;;;;;;;;;;"1250";"2014-08-06 17:39:41.911";"NST_correctLoc";"20";"0";"FINISHED";"LEFT";"success";"697";"0";"2014-08-06 17:39:40.661";"3";;;;;;;;;;;;;;;;;;;;;;;;;;;;;;;;;;;;;;;;;;;;;;;;;;;;;;;;;
"summer1";;;"Windows 8";"Rachel's Experiment (D.T.)";"1.0";"2";"1";"1";"2";"1";"1";"2014-08-06 17:36:56.513";"2014-08-06 17:50:56.471";"1";"1";"1";"24";"23";"module.training_block1.exec-3810.GoNoGo1";;;;;;;;;;;;;;;;;;;;;;;"1249";"2014-08-06 17:39:44.464";"NST_correctLoc";"15";"1";"FINISHED";"RIGHT";"success";"514";"0";"2014-08-06 17:39:43.214";"2";;;;;;;;;;;;;;;;;;;;;;;;;;;;;;;;;;;;;;;;;;;;;;;;;;;;;;;;;
"summer1";;;"Windows 8";"Rachel's Experiment (D.T.)";"1.0";"2";"1";"1";"2";"1";"1";"2014-08-06 17:36:56.513";"2014-08-06 17:50:56.471";"1";"1";"1";"25";"24";"module.training_block1.exec-3810.GoNoGo1";;;;;;;;;;;;;;;;;;;;;;;"1250";"2014-08-06 17:39:47.018";"ST_correctStop";"24";"0";"FINISHED";"NONE";"success";"0";"1";"2014-08-06 17:39:45.767";"3";;;;;;;;;;;;;;;;;;;;;;;;;;;;;;;;;;;;;;;;;;;;;;;;;;;;;;;;;
"summer1";;;"Windows 8";"Rachel's Experiment (D.T.)";"1.0";"2";"1";"1";"2";"1";"1";"2014-08-06 17:36:56.513";"2014-08-06 17:50:56.471";"1";"1";"1";"26";"25";"module.training_block1.exec-3810.GoNoGo1";;;;;;;;;;;;;;;;;;;;;;;"1250";"2014-08-06 17:39:49.571";"NST_correctLoc";"12";"1";"FINISHED";"RIGHT";"success";"526";"0";"2014-08-06 17:39:48.321";"2";;;;;;;;;;;;;;;;;;;;;;;;;;;;;;;;;;;;;;;;;;;;;;;;;;;;;;;;;
"summer1";;;"Windows 8";"Rachel's Experiment (D.T.)";"1.0";"2";"1";"1";"2";"1";"1";"2014-08-06 17:36:56.513";"2014-08-06 17:50:56.471";"1";"1";"1";"27";"26";"module.training_block1.exec-3810.GoNoGo1";;;;;;;;;;;;;;;;;;;;;;;"1250";"2014-08-06 17:39:52.133";"NST_correctLoc";"9";"0";"FINISHED";"LEFT";"success";"503";"0";"2014-08-06 17:39:50.883";"2";;;;;;;;;;;;;;;;;;;;;;;;;;;;;;;;;;;;;;;;;;;;;;;;;;;;;;;;;
"summer1";;;"Windows 8";"Rachel's Experiment (D.T.)";"1.0";"2";"1";"1";"2";"1";"1";"2014-08-06 17:36:56.513";"2014-08-06 17:50:56.471";"1";"1";"1";"28";"27";"module.training_block1.exec-3810.GoNoGo1";;;;;;;;;;;;;;;;;;;;;;;"1249";"2014-08-06 17:39:54.687";"ST_correctStop";"5";"0";"FINISHED";"NONE";"success";"0";"1";"2014-08-06 17:39:53.437";"1";;;;;;;;;;;;;;;;;;;;;;;;;;;;;;;;;;;;;;;;;;;;;;;;;;;;;;;;;
"summer1";;;"Windows 8";"Rachel's Experiment (D.T.)";"1.0";"2";"1";"1";"2";"1";"1";"2014-08-06 17:36:56.513";"2014-08-06 17:50:56.471";"1";"1";"1";"29";"28";"module.training_block1.exec-3810.GoNoGo1";;;;;;;;;;;;;;;;;;;;;;;"1250";"2014-08-06 17:39:57.240";"ST_correctStop";"0";"0";"FINISHED";"NONE";"success";"0";"1";"2014-08-06 17:39:55.989";"1";;;;;;;;;;;;;;;;;;;;;;;;;;;;;;;;;;;;;;;;;;;;;;;;;;;;;;;;;
"summer1";;;"Windows 8";"Rachel's Experiment (D.T.)";"1.0";"2";"1";"1";"2";"1";"1";"2014-08-06 17:36:56.513";"2014-08-06 17:50:56.471";"1";"1";"1";"30";"29";"module.training_block1.exec-3810.GoNoGo1";;;;;;;;;;;;;;;;;;;;;;;"1250";"2014-08-06 17:39:59.788";"ST_correctStop";"3";"1";"FINISHED";"NONE";"success";"0";"1";"2014-08-06 17:39:58.538";"1";;;;;;;;;;;;;;;;;;;;;;;;;;;;;;;;;;;;;;;;;;;;;;;;;;;;;;;;;
"summer1";;;"Windows 8";"Rachel's Experiment (D.T.)";"1.0";"2";"1";"1";"2";"1";"1";"2014-08-06 17:36:56.513";"2014-08-06 17:50:56.471";"1";"1";"1";"31";"30";"module.training_block1.exec-3810.GoNoGo1";;;;;;;;;;;;;;;;;;;;;;;"1249";"2014-08-06 17:40:02.341";"ST_correctStop";"7";"1";"FINISHED";"NONE";"success";"0";"1";"2014-08-06 17:40:01.091";"1";;;;;;;;;;;;;;;;;;;;;;;;;;;;;;;;;;;;;;;;;;;;;;;;;;;;;;;;;
"summer1";;;"Windows 8";"Rachel's Experiment (D.T.)";"1.0";"2";"1";"1";"2";"1";"1";"2014-08-06 17:36:56.513";"2014-08-06 17:50:56.471";"1";"1";"1";"32";"31";"module.training_block1.exec-3810.GoNoGo1";;;;;;;;;;;;;;;;;;;;;;;"1249";"2014-08-06 17:40:04.891";"NST_correctLoc";"25";"0";"FINISHED";"LEFT";"success";"440";"0";"2014-08-06 17:40:03.641";"3";;;;;;;;;;;;;;;;;;;;;;;;;;;;;;;;;;;;;;;;;;;;;;;;;;;;;;;;;
"summer1";;;"Windows 8";"Rachel's Experiment (D.T.)";"1.0";"2";"1";"1";"2";"1";"1";"2014-08-06 17:36:56.513";"2014-08-06 17:50:56.471";"1";"1";"1";"33";"32";"module.training_block1.exec-3810.GoNoGo1";;;;;;;;;;;;;;;;;;;;;;;"1250";"2014-08-06 17:40:07.441";"NST_correctLoc";"14";"1";"FINISHED";"RIGHT";"success";"667";"0";"2014-08-06 17:40:06.190";"2";;;;;;;;;;;;;;;;;;;;;;;;;;;;;;;;;;;;;;;;;;;;;;;;;;;;;;;;;
"summer1";;;"Windows 8";"Rachel's Experiment (D.T.)";"1.0";"2";"1";"1";"2";"1";"1";"2014-08-06 17:36:56.513";"2014-08-06 17:50:56.471";"1";"1";"1";"34";"33";"module.training_block1.exec-3810.GoNoGo1";;;;;;;;;;;;;;;;;;;;;;;"1250";"2014-08-06 17:40:09.992";"NST_correctLoc";"11";"1";"FINISHED";"RIGHT";"success";"485";"0";"2014-08-06 17:40:08.742";"2";;;;;;;;;;;;;;;;;;;;;;;;;;;;;;;;;;;;;;;;;;;;;;;;;;;;;;;;;
"summer1";;;"Windows 8";"Rachel's Experiment (D.T.)";"1.0";"2";"1";"1";"2";"1";"1";"2014-08-06 17:36:56.513";"2014-08-06 17:50:56.471";"1";"1";"1";"35";"34";"module.training_block1.exec-3810.GoNoGo1";;;;;;;;;;;;;;;;;;;;;;;"1250";"2014-08-06 17:40:12.542";"NST_correctLoc";"35";"1";"FINISHED";"RIGHT";"success";"514";"0";"2014-08-06 17:40:11.291";"3";;;;;;;;;;;;;;;;;;;;;;;;;;;;;;;;;;;;;;;;;;;;;;;;;;;;;;;;;
"summer1";;;"Windows 8";"Rachel's Experiment (D.T.)";"1.0";"2";"1";"1";"2";"1";"1";"2014-08-06 17:36:56.513";"2014-08-06 17:50:56.471";"1";"1";"1";"36";"35";"module.training_block1.exec-3810.GoNoGo1";;;;;;;;;;;;;;;;;;;;;;;"1250";"2014-08-06 17:40:15.081";"ST_correctStop";"8";"0";"FINISHED";"NONE";"success";"0";"1";"2014-08-06 17:40:13.830";"1";;;;;;;;;;;;;;;;;;;;;;;;;;;;;;;;;;;;;;;;;;;;;;;;;;;;;;;;;
"summer1";;;"Windows 8";"Rachel's Experiment (D.T.)";"1.0";"2";"1";"1";"2";"1";"1";"2014-08-06 17:36:56.513";"2014-08-06 17:50:56.471";"1";"1";"1";"37";"36";"module.training_block1.exec-3810.GoNoGo1";;;;;;;;;;;;;;;;;;;;;;;"1249";"2014-08-06 17:40:17.614";"NST_correctLoc";"31";"1";"FINISHED";"RIGHT";"success";"494";"0";"2014-08-06 17:40:16.364";"3";;;;;;;;;;;;;;;;;;;;;;;;;;;;;;;;;;;;;;;;;;;;;;;;;;;;;;;;;
"summer1";;;"Windows 8";"Rachel's Experiment (D.T.)";"1.0";"2";"1";"1";"2";"1";"1";"2014-08-06 17:36:56.513";"2014-08-06 17:50:56.471";"1";"1";"1";"38";"37";"module.training_block1.exec-3810.GoNoGo1";;;;;;;;;;;;;;;;;;;;;;;"1250";"2014-08-06 17:40:20.153";"NST_correctLoc";"28";"1";"FINISHED";"RIGHT";"success";"496";"0";"2014-08-06 17:40:18.902";"3";;;;;;;;;;;;;;;;;;;;;;;;;;;;;;;;;;;;;;;;;;;;;;;;;;;;;;;;;
"summer1";;;"Windows 8";"Rachel's Experiment (D.T.)";"1.0";"2";"1";"1";"2";"1";"1";"2014-08-06 17:36:56.513";"2014-08-06 17:50:56.471";"1";"1";"1";"39";"38";"module.training_block1.exec-3810.GoNoGo1";;;;;;;;;;;;;;;;;;;;;;;"1250";"2014-08-06 17:40:22.696";"ST_correctStop";"23";"0";"FINISHED";"NONE";"success";"0";"1";"2014-08-06 17:40:21.445";"3";;;;;;;;;;;;;;;;;;;;;;;;;;;;;;;;;;;;;;;;;;;;;;;;;;;;;;;;;
"summer1";;;"Windows 8";"Rachel's Experiment (D.T.)";"1.0";"2";"1";"1";"2";"1";"1";"2014-08-06 17:36:56.513";"2014-08-06 17:50:56.471";"1";"1";"1";"40";"39";"module.training_block1.exec-3810.GoNoGo1";;;;;;;;;;;;;;;;;;;;;;;"1250";"2014-08-06 17:40:25.237";"ST_correctStop";"27";"1";"FINISHED";"NONE";"success";"0";"1";"2014-08-06 17:40:23.987";"3";;;;;;;;;;;;;;;;;;;;;;;;;;;;;;;;;;;;;;;;;;;;;;;;;;;;;;;;;
"summer1";;;"Windows 8";"Rachel's Experiment (D.T.)";"1.0";"2";"1";"1";"2";"1";"1";"2014-08-06 17:36:56.513";"2014-08-06 17:50:56.471";"1";"1";"1";"41";"40";"module.training_block1.exec-3810.GoNoGo1";;;;;;;;;;;;;;;;;;;;;;;"1249";"2014-08-06 17:40:27.781";"NST_correctLoc";"19";"1";"FINISHED";"RIGHT";"success";"498";"0";"2014-08-06 17:40:26.531";"3";;;;;;;;;;;;;;;;;;;;;;;;;;;;;;;;;;;;;;;;;;;;;;;;;;;;;;;;;
"summer1";;;"Windows 8";"Rachel's Experiment (D.T.)";"1.0";"2";"1";"1";"2";"1";"1";"2014-08-06 17:36:56.513";"2014-08-06 17:50:56.471";"1";"1";"1";"42";"41";"module.training_block1.exec-3810.GoNoGo1";;;;;;;;;;;;;;;;;;;;;;;"1250";"2014-08-06 17:40:30.332";"NST_correctLoc";"17";"1";"FINISHED";"RIGHT";"success";"563";"0";"2014-08-06 17:40:29.081";"2";;;;;;;;;;;;;;;;;;;;;;;;;;;;;;;;;;;;;;;;;;;;;;;;;;;;;;;;;
"summer1";;;"Windows 8";"Rachel's Experiment (D.T.)";"1.0";"2";"1";"1";"2";"1";"1";"2014-08-06 17:36:56.513";"2014-08-06 17:50:56.471";"1";"1";"1";"43";"42";"module.training_block1.exec-3810.GoNoGo1";;;;;;;;;;;;;;;;;;;;;;;"1249";"2014-08-06 17:40:32.879";"NST_correctLoc";"16";"1";"FINISHED";"RIGHT";"success";"619";"0";"2014-08-06 17:40:31.628";"2";;;;;;;;;;;;;;;;;;;;;;;;;;;;;;;;;;;;;;;;;;;;;;;;;;;;;;;;;
"summer1";;;"Windows 8";"Rachel's Experiment (D.T.)";"1.0";"2";"1";"1";"2";"1";"1";"2014-08-06 17:36:56.513";"2014-08-06 17:50:56.471";"1";"1";"1";"44";"43";"module.training_block1.exec-3810.GoNoGo1";;;;;;;;;;;;;;;;;;;;;;;"1251";"2014-08-06 17:40:35.413";"ST_correctStop";"34";"0";"FINISHED";"NONE";"success";"0";"1";"2014-08-06 17:40:34.162";"3";;;;;;;;;;;;;;;;;;;;;;;;;;;;;;;;;;;;;;;;;;;;;;;;;;;;;;;;;
"summer1";;;"Windows 8";"Rachel's Experiment (D.T.)";"1.0";"2";"1";"1";"2";"1";"1";"2014-08-06 17:36:56.513";"2014-08-06 17:50:56.471";"1";"1";"1";"45";"44";"module.training_block1.exec-3810.GoNoGo1";;;;;;;;;;;;;;;;;;;;;;;"1250";"2014-08-06 17:40:37.946";"NST_correctLoc";"10";"0";"FINISHED";"LEFT";"success";"537";"0";"2014-08-06 17:40:36.695";"2";;;;;;;;;;;;;;;;;;;;;;;;;;;;;;;;;;;;;;;;;;;;;;;;;;;;;;;;;
"summer1";;;"Windows 8";"Rachel's Experiment (D.T.)";"1.0";"2";"1";"1";"2";"1";"1";"2014-08-06 17:36:56.513";"2014-08-06 17:50:56.471";"1";"1";"1";"46";"45";"module.training_block1.exec-3810.GoNoGo1";;;;;;;;;;;;;;;;;;;;;;;"1250";"2014-08-06 17:40:40.487";"ST_correctStop";"22";"1";"FINISHED";"NONE";"success";"0";"1";"2014-08-06 17:40:39.236";"3";;;;;;;;;;;;;;;;;;;;;;;;;;;;;;;;;;;;;;;;;;;;;;;;;;;;;;;;;
"summer1";;;"Windows 8";"Rachel's Experiment (D.T.)";"1.0";"2";"1";"1";"2";"1";"1";"2014-08-06 17:36:56.513";"2014-08-06 17:50:56.471";"1";"1";"1";"47";"46";"module.training_block1.exec-3810.GoNoGo1";;;;;;;;;;;;;;;;;;;;;;;"1250";"2014-08-06 17:40:43.026";"NST_correctLoc";"32";"0";"FINISHED";"LEFT";"success";"567";"0";"2014-08-06 17:40:41.775";"3";;;;;;;;;;;;;;;;;;;;;;;;;;;;;;;;;;;;;;;;;;;;;;;;;;;;;;;;;
"summer1";;;"Windows 8";"Rachel's Experiment (D.T.)";"1.0";"2";"1";"1";"2";"1";"1";"2014-08-06 17:36:56.513";"2014-08-06 17:50:56.471";"1";"1";"1";"48";"47";"module.training_block1.exec-3810.GoNoGo1";;;;;;;;;;;;;;;;;;;;;;;"1250";"2014-08-06 17:40:45.565";"ST_correctStop";"33";"0";"FINISHED";"NONE";"success";"0";"1";"2014-08-06 17:40:44.314";"3";;;;;;;;;;;;;;;;;;;;;;;;;;;;;;;;;;;;;;;;;;;;;;;;;;;;;;;;;
"summer1";;;"Windows 8";"Rachel's Experiment (D.T.)";"1.0";"2";"1";"1";"2";"1";"1";"2014-08-06 17:36:56.513";"2014-08-06 17:50:56.471";"1";"1";"1";"49";"48";"module.training_block1.exec-3810.GoNoGo1";;;;;;;;;;;;;;;;;;;;;;;"1250";"2014-08-06 17:40:48.115";"ST_correctStop";"6";"0";"FINISHED";"NONE";"success";"0";"1";"2014-08-06 17:40:46.864";"1";;;;;;;;;;;;;;;;;;;;;;;;;;;;;;;;;;;;;;;;;;;;;;;;;;;;;;;;;
"summer1";;;"Windows 8";"Rachel's Experiment (D.T.)";"1.0";"2";"1";"1";"2";"1";"1";"2014-08-06 17:36:56.513";"2014-08-06 17:50:56.471";"1";"1";"1";"50";"49";"module.training_block1.exec-3810.GoNoGo1";;;;;;;;;;;;;;;;;;;;;;;"1250";"2014-08-06 17:40:50.673";"ST_correctStop";"4";"1";"FINISHED";"NONE";"success";"0";"1";"2014-08-06 17:40:49.422";"1";;;;;;;;;;;;;;;;;;;;;;;;;;;;;;;;;;;;;;;;;;;;;;;;;;;;;;;;;
"summer1";;;"Windows 8";"Rachel's Experiment (D.T.)";"1.0";"2";"1";"1";"2";"1";"1";"2014-08-06 17:36:56.513";"2014-08-06 17:50:56.471";"1";"1";"1";"51";"50";"module.training_block1.exec-3810.GoNoGo1";;;;;;;;;;;;;;;;;;;;;;;"1249";"2014-08-06 17:40:53.215";"NST_correctLoc";"13";"0";"FINISHED";"LEFT";"success";"411";"0";"2014-08-06 17:40:51.964";"2";;;;;;;;;;;;;;;;;;;;;;;;;;;;;;;;;;;;;;;;;;;;;;;;;;;;;;;;;
"summer1";;;"Windows 8";"Rachel's Experiment (D.T.)";"1.0";"2";"1";"1";"2";"1";"1";"2014-08-06 17:36:56.513";"2014-08-06 17:50:56.471";"1";"1";"1";"52";"51";"module.training_block2.exec-4044.GoNoGo2";;;;;;;;;;;;;;;;;;;;;;;;;;;;;;;;;;;"1250";"2014-08-06 17:41:04.875";"NST_correctLoc";"9";"0";"FINISHED";"LEFT";"success";"441";"0";"2014-08-06 17:41:03.624";"2";;;;;;;;;;;;;;;;;;;;;;;;;;;;;;;;;;;;;;;;;;;;;
"summer1";;;"Windows 8";"Rachel's Experiment (D.T.)";"1.0";"2";"1";"1";"2";"1";"1";"2014-08-06 17:36:56.513";"2014-08-06 17:50:56.471";"1";"1";"1";"53";"52";"module.training_block2.exec-4044.GoNoGo2";;;;;;;;;;;;;;;;;;;;;;;;;;;;;;;;;;;"1251";"2014-08-06 17:41:07.426";"ST_correctStop";"25";"0";"FINISHED";"NONE";"success";"0";"1";"2014-08-06 17:41:06.175";"3";;;;;;;;;;;;;;;;;;;;;;;;;;;;;;;;;;;;;;;;;;;;;
"summer1";;;"Windows 8";"Rachel's Experiment (D.T.)";"1.0";"2";"1";"1";"2";"1";"1";"2014-08-06 17:36:56.513";"2014-08-06 17:50:56.471";"1";"1";"1";"54";"53";"module.training_block2.exec-4044.GoNoGo2";;;;;;;;;;;;;;;;;;;;;;;;;;;;;;;;;;;"1250";"2014-08-06 17:41:09.977";"NST_correctLoc";"33";"0";"FINISHED";"LEFT";"success";"647";"0";"2014-08-06 17:41:08.727";"3";;;;;;;;;;;;;;;;;;;;;;;;;;;;;;;;;;;;;;;;;;;;;
"summer1";;;"Windows 8";"Rachel's Experiment (D.T.)";"1.0";"2";"1";"1";"2";"1";"1";"2014-08-06 17:36:56.513";"2014-08-06 17:50:56.471";"1";"1";"1";"55";"54";"module.training_block2.exec-4044.GoNoGo2";;;;;;;;;;;;;;;;;;;;;;;;;;;;;;;;;;;"1250";"2014-08-06 17:41:12.526";"NST_correctLoc";"10";"1";"FINISHED";"RIGHT";"success";"434";"0";"2014-08-06 17:41:11.276";"2";;;;;;;;;;;;;;;;;;;;;;;;;;;;;;;;;;;;;;;;;;;;;
"summer1";;;"Windows 8";"Rachel's Experiment (D.T.)";"1.0";"2";"1";"1";"2";"1";"1";"2014-08-06 17:36:56.513";"2014-08-06 17:50:56.471";"1";"1";"1";"56";"55";"module.training_block2.exec-4044.GoNoGo2";;;;;;;;;;;;;;;;;;;;;;;;;;;;;;;;;;;"1249";"2014-08-06 17:41:15.076";"NST_correctLoc";"16";"1";"FINISHED";"RIGHT";"success";"532";"0";"2014-08-06 17:41:13.826";"2";;;;;;;;;;;;;;;;;;;;;;;;;;;;;;;;;;;;;;;;;;;;;
"summer1";;;"Windows 8";"Rachel's Experiment (D.T.)";"1.0";"2";"1";"1";"2";"1";"1";"2014-08-06 17:36:56.513";"2014-08-06 17:50:56.471";"1";"1";"1";"57";"56";"module.training_block2.exec-4044.GoNoGo2";;;;;;;;;;;;;;;;;;;;;;;;;;;;;;;;;;;"1250";"2014-08-06 17:41:17.627";"ST_correctStop";"21";"0";"FINISHED";"NONE";"success";"0";"1";"2014-08-06 17:41:16.376";"3";;;;;;;;;;;;;;;;;;;;;;;;;;;;;;;;;;;;;;;;;;;;;
"summer1";;;"Windows 8";"Rachel's Experiment (D.T.)";"1.0";"2";"1";"1";"2";"1";"1";"2014-08-06 17:36:56.513";"2014-08-06 17:50:56.471";"1";"1";"1";"58";"57";"module.training_block2.exec-4044.GoNoGo2";;;;;;;;;;;;;;;;;;;;;;;;;;;;;;;;;;;"1249";"2014-08-06 17:41:20.176";"NST_correctLoc";"15";"0";"FINISHED";"LEFT";"success";"447";"0";"2014-08-06 17:41:18.926";"2";;;;;;;;;;;;;;;;;;;;;;;;;;;;;;;;;;;;;;;;;;;;;
"summer1";;;"Windows 8";"Rachel's Experiment (D.T.)";"1.0";"2";"1";"1";"2";"1";"1";"2014-08-06 17:36:56.513";"2014-08-06 17:50:56.471";"1";"1";"1";"59";"58";"module.training_block2.exec-4044.GoNoGo2";;;;;;;;;;;;;;;;;;;;;;;;;;;;;;;;;;;"1250";"2014-08-06 17:41:22.729";"ST_correctStop";"8";"1";"FINISHED";"NONE";"success";"0";"1";"2014-08-06 17:41:21.478";"1";;;;;;;;;;;;;;;;;;;;;;;;;;;;;;;;;;;;;;;;;;;;;
"summer1";;;"Windows 8";"Rachel's Experiment (D.T.)";"1.0";"2";"1";"1";"2";"1";"1";"2014-08-06 17:36:56.513";"2014-08-06 17:50:56.471";"1";"1";"1";"60";"59";"module.training_block2.exec-4044.GoNoGo2";;;;;;;;;;;;;;;;;;;;;;;;;;;;;;;;;;;"1250";"2014-08-06 17:41:25.279";"ST_correctStop";"5";"0";"FINISHED";"NONE";"success";"0";"1";"2014-08-06 17:41:24.027";"1";;;;;;;;;;;;;;;;;;;;;;;;;;;;;;;;;;;;;;;;;;;;;
"summer1";;;"Windows 8";"Rachel's Experiment (D.T.)";"1.0";"2";"1";"1";"2";"1";"1";"2014-08-06 17:36:56.513";"2014-08-06 17:50:56.471";"1";"1";"1";"61";"60";"module.training_block2.exec-4044.GoNoGo2";;;;;;;;;;;;;;;;;;;;;;;;;;;;;;;;;;;"1249";"2014-08-06 17:41:27.827";"ST_correctStop";"34";"1";"FINISHED";"NONE";"success";"0";"1";"2014-08-06 17:41:26.577";"3";;;;;;;;;;;;;;;;;;;;;;;;;;;;;;;;;;;;;;;;;;;;;
"summer1";;;"Windows 8";"Rachel's Experiment (D.T.)";"1.0";"2";"1";"1";"2";"1";"1";"2014-08-06 17:36:56.513";"2014-08-06 17:50:56.471";"1";"1";"1";"62";"61";"module.training_block2.exec-4044.GoNoGo2";;;;;;;;;;;;;;;;;;;;;;;;;;;;;;;;;;;"1250";"2014-08-06 17:41:30.376";"NST_correctLoc";"19";"0";"FINISHED";"LEFT";"success";"520";"0";"2014-08-06 17:41:29.126";"3";;;;;;;;;;;;;;;;;;;;;;;;;;;;;;;;;;;;;;;;;;;;;
"summer1";;;"Windows 8";"Rachel's Experiment (D.T.)";"1.0";"2";"1";"1";"2";"1";"1";"2014-08-06 17:36:56.513";"2014-08-06 17:50:56.471";"1";"1";"1";"63";"62";"module.training_block2.exec-4044.GoNoGo2";;;;;;;;;;;;;;;;;;;;;;;;;;;;;;;;;;;"1250";"2014-08-06 17:41:32.926";"NST_correctLoc";"11";"1";"FINISHED";"RIGHT";"success";"595";"0";"2014-08-06 17:41:31.676";"2";;;;;;;;;;;;;;;;;;;;;;;;;;;;;;;;;;;;;;;;;;;;;
"summer1";;;"Windows 8";"Rachel's Experiment (D.T.)";"1.0";"2";"1";"1";"2";"1";"1";"2014-08-06 17:36:56.513";"2014-08-06 17:50:56.471";"1";"1";"1";"64";"63";"module.training_block2.exec-4044.GoNoGo2";;;;;;;;;;;;;;;;;;;;;;;;;;;;;;;;;;;"1250";"2014-08-06 17:41:35.464";"NST_correctLoc";"28";"1";"FINISHED";"RIGHT";"success";"582";"0";"2014-08-06 17:41:34.212";"3";;;;;;;;;;;;;;;;;;;;;;;;;;;;;;;;;;;;;;;;;;;;;
"summer1";;;"Windows 8";"Rachel's Experiment (D.T.)";"1.0";"2";"1";"1";"2";"1";"1";"2014-08-06 17:36:56.513";"2014-08-06 17:50:56.471";"1";"1";"1";"65";"64";"module.training_block2.exec-4044.GoNoGo2";;;;;;;;;;;;;;;;;;;;;;;;;;;;;;;;;;;"1249";"2014-08-06 17:41:38.005";"NST_correctLoc";"22";"1";"FINISHED";"RIGHT";"success";"629";"0";"2014-08-06 17:41:36.755";"3";;;;;;;;;;;;;;;;;;;;;;;;;;;;;;;;;;;;;;;;;;;;;
"summer1";;;"Windows 8";"Rachel's Experiment (D.T.)";"1.0";"2";"1";"1";"2";"1";"1";"2014-08-06 17:36:56.513";"2014-08-06 17:50:56.471";"1";"1";"1";"66";"65";"module.training_block2.exec-4044.GoNoGo2";;;;;;;;;;;;;;;;;;;;;;;;;;;;;;;;;;;"1249";"2014-08-06 17:41:40.549";"ST_correctStop";"20";"0";"FINISHED";"NONE";"success";"0";"1";"2014-08-06 17:41:39.299";"3";;;;;;;;;;;;;;;;;;;;;;;;;;;;;;;;;;;;;;;;;;;;;
"summer1";;;"Windows 8";"Rachel's Experiment (D.T.)";"1.0";"2";"1";"1";"2";"1";"1";"2014-08-06 17:36:56.513";"2014-08-06 17:50:56.471";"1";"1";"1";"67";"66";"module.training_block2.exec-4044.GoNoGo2";;;;;;;;;;;;;;;;;;;;;;;;;;;;;;;;;;;"1249";"2014-08-06 17:41:43.088";"NST_correctLoc";"29";"0";"FINISHED";"LEFT";"success";"426";"0";"2014-08-06 17:41:41.838";"3";;;;;;;;;;;;;;;;;;;;;;;;;;;;;;;;;;;;;;;;;;;;;
"summer1";;;"Windows 8";"Rachel's Experiment (D.T.)";"1.0";"2";"1";"1";"2";"1";"1";"2014-08-06 17:36:56.513";"2014-08-06 17:50:56.471";"1";"1";"1";"68";"67";"module.training_block2.exec-4044.GoNoGo2";;;;;;;;;;;;;;;;;;;;;;;;;;;;;;;;;;;"1250";"2014-08-06 17:41:45.632";"ST_correctStop";"7";"1";"FINISHED";"NONE";"success";"0";"1";"2014-08-06 17:41:44.381";"1";;;;;;;;;;;;;;;;;;;;;;;;;;;;;;;;;;;;;;;;;;;;;
"summer1";;;"Windows 8";"Rachel's Experiment (D.T.)";"1.0";"2";"1";"1";"2";"1";"1";"2014-08-06 17:36:56.513";"2014-08-06 17:50:56.471";"1";"1";"1";"69";"68";"module.training_block2.exec-4044.GoNoGo2";;;;;;;;;;;;;;;;;;;;;;;;;;;;;;;;;;;"1249";"2014-08-06 17:41:48.175";"NST_correctLoc";"13";"1";"FINISHED";"RIGHT";"success";"563";"0";"2014-08-06 17:41:46.925";"2";;;;;;;;;;;;;;;;;;;;;;;;;;;;;;;;;;;;;;;;;;;;;
"summer1";;;"Windows 8";"Rachel's Experiment (D.T.)";"1.0";"2";"1";"1";"2";"1";"1";"2014-08-06 17:36:56.513";"2014-08-06 17:50:56.471";"1";"1";"1";"70";"69";"module.training_block2.exec-4044.GoNoGo2";;;;;;;;;;;;;;;;;;;;;;;;;;;;;;;;;;;"1250";"2014-08-06 17:41:50.721";"ST_correctStop";"18";"1";"FINISHED";"NONE";"success";"0";"1";"2014-08-06 17:41:49.470";"3";;;;;;;;;;;;;;;;;;;;;;;;;;;;;;;;;;;;;;;;;;;;;
"summer1";;;"Windows 8";"Rachel's Experiment (D.T.)";"1.0";"2";"1";"1";"2";"1";"1";"2014-08-06 17:36:56.513";"2014-08-06 17:50:56.471";"1";"1";"1";"71";"70";"module.training_block2.exec-4044.GoNoGo2";;;;;;;;;;;;;;;;;;;;;;;;;;;;;;;;;;;"1249";"2014-08-06 17:41:53.273";"ST_correctStop";"35";"0";"FINISHED";"NONE";"success";"0";"1";"2014-08-06 17:41:52.023";"3";;;;;;;;;;;;;;;;;;;;;;;;;;;;;;;;;;;;;;;;;;;;;
"summer1";;;"Windows 8";"Rachel's Experiment (D.T.)";"1.0";"2";"1";"1";"2";"1";"1";"2014-08-06 17:36:56.513";"2014-08-06 17:50:56.471";"1";"1";"1";"72";"71";"module.training_block2.exec-4044.GoNoGo2";;;;;;;;;;;;;;;;;;;;;;;;;;;;;;;;;;;"1250";"2014-08-06 17:41:55.822";"NST_correctLoc";"12";"1";"FINISHED";"RIGHT";"success";"575";"0";"2014-08-06 17:41:54.572";"2";;;;;;;;;;;;;;;;;;;;;;;;;;;;;;;;;;;;;;;;;;;;;
"summer1";;;"Windows 8";"Rachel's Experiment (D.T.)";"1.0";"2";"1";"1";"2";"1";"1";"2014-08-06 17:36:56.513";"2014-08-06 17:50:56.471";"1";"1";"1";"73";"72";"module.training_block2.exec-4044.GoNoGo2";;;;;;;;;;;;;;;;;;;;;;;;;;;;;;;;;;;"1250";"2014-08-06 17:41:58.370";"ST_correctStop";"3";"0";"FINISHED";"NONE";"success";"0";"1";"2014-08-06 17:41:57.119";"1";;;;;;;;;;;;;;;;;;;;;;;;;;;;;;;;;;;;;;;;;;;;;
"summer1";;;"Windows 8";"Rachel's Experiment (D.T.)";"1.0";"2";"1";"1";"2";"1";"1";"2014-08-06 17:36:56.513";"2014-08-06 17:50:56.471";"1";"1";"1";"74";"73";"module.training_block2.exec-4044.GoNoGo2";;;;;;;;;;;;;;;;;;;;;;;;;;;;;;;;;;;"1250";"2014-08-06 17:42:00.917";"ST_correctStop";"4";"0";"FINISHED";"NONE";"success";"0";"1";"2014-08-06 17:41:59.666";"1";;;;;;;;;;;;;;;;;;;;;;;;;;;;;;;;;;;;;;;;;;;;;
"summer1";;;"Windows 8";"Rachel's Experiment (D.T.)";"1.0";"2";"1";"1";"2";"1";"1";"2014-08-06 17:36:56.513";"2014-08-06 17:50:56.471";"1";"1";"1";"75";"74";"module.training_block2.exec-4044.GoNoGo2";;;;;;;;;;;;;;;;;;;;;;;;;;;;;;;;;;;"1250";"2014-08-06 17:42:03.468";"NST_correctLoc";"31";"0";"FINISHED";"LEFT";"success";"469";"0";"2014-08-06 17:42:02.217";"3";;;;;;;;;;;;;;;;;;;;;;;;;;;;;;;;;;;;;;;;;;;;;
"summer1";;;"Windows 8";"Rachel's Experiment (D.T.)";"1.0";"2";"1";"1";"2";"1";"1";"2014-08-06 17:36:56.513";"2014-08-06 17:50:56.471";"1";"1";"1";"76";"75";"module.training_block2.exec-4044.GoNoGo2";;;;;;;;;;;;;;;;;;;;;;;;;;;;;;;;;;;"1249";"2014-08-06 17:42:06.006";"NST_correctLoc";"17";"0";"FINISHED";"LEFT";"success";"624";"0";"2014-08-06 17:42:04.756";"2";;;;;;;;;;;;;;;;;;;;;;;;;;;;;;;;;;;;;;;;;;;;;
"summer1";;;"Windows 8";"Rachel's Experiment (D.T.)";"1.0";"2";"1";"1";"2";"1";"1";"2014-08-06 17:36:56.513";"2014-08-06 17:50:56.471";"1";"1";"1";"77";"76";"module.training_block2.exec-4044.GoNoGo2";;;;;;;;;;;;;;;;;;;;;;;;;;;;;;;;;;;"1250";"2014-08-06 17:42:08.666";"NST_correctLoc";"30";"1";"FINISHED";"RIGHT";"success";"405";"0";"2014-08-06 17:42:07.416";"3";;;;;;;;;;;;;;;;;;;;;;;;;;;;;;;;;;;;;;;;;;;;;
"summer1";;;"Windows 8";"Rachel's Experiment (D.T.)";"1.0";"2";"1";"1";"2";"1";"1";"2014-08-06 17:36:56.513";"2014-08-06 17:50:56.471";"1";"1";"1";"78";"77";"module.training_block2.exec-4044.GoNoGo2";;;;;;;;;;;;;;;;;;;;;;;;;;;;;;;;;;;"1250";"2014-08-06 17:42:11.217";"NST_correctLoc";"14";"1";"FINISHED";"RIGHT";"success";"484";"0";"2014-08-06 17:42:09.967";"2";;;;;;;;;;;;;;;;;;;;;;;;;;;;;;;;;;;;;;;;;;;;;
"summer1";;;"Windows 8";"Rachel's Experiment (D.T.)";"1.0";"2";"1";"1";"2";"1";"1";"2014-08-06 17:36:56.513";"2014-08-06 17:50:56.471";"1";"1";"1";"79";"78";"module.training_block2.exec-4044.GoNoGo2";;;;;;;;;;;;;;;;;;;;;;;;;;;;;;;;;;;"1249";"2014-08-06 17:42:13.765";"ST_correctStop";"0";"1";"FINISHED";"NONE";"success";"0";"1";"2014-08-06 17:42:12.515";"1";;;;;;;;;;;;;;;;;;;;;;;;;;;;;;;;;;;;;;;;;;;;;
"summer1";;;"Windows 8";"Rachel's Experiment (D.T.)";"1.0";"2";"1";"1";"2";"1";"1";"2014-08-06 17:36:56.513";"2014-08-06 17:50:56.471";"1";"1";"1";"80";"79";"module.training_block2.exec-4044.GoNoGo2";;;;;;;;;;;;;;;;;;;;;;;;;;;;;;;;;;;"1250";"2014-08-06 17:42:16.316";"NST_correctLoc";"27";"1";"FINISHED";"RIGHT";"success";"445";"0";"2014-08-06 17:42:15.065";"3";;;;;;;;;;;;;;;;;;;;;;;;;;;;;;;;;;;;;;;;;;;;;
"summer1";;;"Windows 8";"Rachel's Experiment (D.T.)";"1.0";"2";"1";"1";"2";"1";"1";"2014-08-06 17:36:56.513";"2014-08-06 17:50:56.471";"1";"1";"1";"81";"80";"module.training_block2.exec-4044.GoNoGo2";;;;;;;;;;;;;;;;;;;;;;;;;;;;;;;;;;;"1250";"2014-08-06 17:42:18.866";"ST_correctStop";"6";"0";"FINISHED";"NONE";"success";"0";"1";"2014-08-06 17:42:17.616";"1";;;;;;;;;;;;;;;;;;;;;;;;;;;;;;;;;;;;;;;;;;;;;
"summer1";;;"Windows 8";"Rachel's Experiment (D.T.)";"1.0";"2";"1";"1";"2";"1";"1";"2014-08-06 17:36:56.513";"2014-08-06 17:50:56.471";"1";"1";"1";"82";"81";"module.training_block2.exec-4044.GoNoGo2";;;;;;;;;;;;;;;;;;;;;;;;;;;;;;;;;;;"1250";"2014-08-06 17:42:21.418";"ST_correctStop";"24";"0";"FINISHED";"NONE";"success";"0";"1";"2014-08-06 17:42:20.167";"3";;;;;;;;;;;;;;;;;;;;;;;;;;;;;;;;;;;;;;;;;;;;;
"summer1";;;"Windows 8";"Rachel's Experiment (D.T.)";"1.0";"2";"1";"1";"2";"1";"1";"2014-08-06 17:36:56.513";"2014-08-06 17:50:56.471";"1";"1";"1";"83";"82";"module.training_block2.exec-4044.GoNoGo2";;;;;;;;;;;;;;;;;;;;;;;;;;;;;;;;;;;"1249";"2014-08-06 17:42:23.965";"NST_correctLoc";"26";"1";"FINISHED";"RIGHT";"success";"578";"0";"2014-08-06 17:42:22.715";"3";;;;;;;;;;;;;;;;;;;;;;;;;;;;;;;;;;;;;;;;;;;;;
"summer1";;;"Windows 8";"Rachel's Experiment (D.T.)";"1.0";"2";"1";"1";"2";"1";"1";"2014-08-06 17:36:56.513";"2014-08-06 17:50:56.471";"1";"1";"1";"84";"83";"module.training_block2.exec-4044.GoNoGo2";;;;;;;;;;;;;;;;;;;;;;;;;;;;;;;;;;;"1250";"2014-08-06 17:42:26.511";"ST_correctStop";"32";"1";"FINISHED";"NONE";"success";"0";"1";"2014-08-06 17:42:25.260";"3";;;;;;;;;;;;;;;;;;;;;;;;;;;;;;;;;;;;;;;;;;;;;
"summer1";;;"Windows 8";"Rachel's Experiment (D.T.)";"1.0";"2";"1";"1";"2";"1";"1";"2014-08-06 17:36:56.513";"2014-08-06 17:50:56.471";"1";"1";"1";"85";"84";"module.training_block2.exec-4044.GoNoGo2";;;;;;;;;;;;;;;;;;;;;;;;;;;;;;;;;;;"1250";"2014-08-06 17:42:29.062";"ST_correctStop";"2";"0";"FINISHED";"NONE";"success";"0";"1";"2014-08-06 17:42:27.811";"1";;;;;;;;;;;;;;;;;;;;;;;;;;;;;;;;;;;;;;;;;;;;;
"summer1";;;"Windows 8";"Rachel's Experiment (D.T.)";"1.0";"2";"1";"1";"2";"1";"1";"2014-08-06 17:36:56.513";"2014-08-06 17:50:56.471";"1";"1";"1";"86";"85";"module.training_block2.exec-4044.GoNoGo2";;;;;;;;;;;;;;;;;;;;;;;;;;;;;;;;;;;"1250";"2014-08-06 17:42:31.613";"ST_correctStop";"1";"1";"FINISHED";"NONE";"success";"0";"1";"2014-08-06 17:42:30.363";"1";;;;;;;;;;;;;;;;;;;;;;;;;;;;;;;;;;;;;;;;;;;;;
"summer1";;;"Windows 8";"Rachel's Experiment (D.T.)";"1.0";"2";"1";"1";"2";"1";"1";"2014-08-06 17:36:56.513";"2014-08-06 17:50:56.471";"1";"1";"1";"87";"86";"module.training_block2.exec-4044.GoNoGo2";;;;;;;;;;;;;;;;;;;;;;;;;;;;;;;;;;;"1249";"2014-08-06 17:42:34.211";"ST_correctStop";"23";"1";"FINISHED";"NONE";"success";"0";"1";"2014-08-06 17:42:32.961";"3";;;;;;;;;;;;;;;;;;;;;;;;;;;;;;;;;;;;;;;;;;;;;
"summer1";;;"Windows 8";"Rachel's Experiment (D.T.)";"1.0";"2";"1";"1";"2";"1";"1";"2014-08-06 17:36:56.513";"2014-08-06 17:50:56.471";"1";"1";"1";"88";"87";"module.training_block3.exec-7613.GoNoGo3";;;;;;;;;;;;;;;;;;;;;;;;;;;;;;;;;;;;;;;;;;;;;;;"1249";"2014-08-06 17:42:45.344";"NST_correctLoc";"12";"0";"FINISHED";"LEFT";"success";"515";"0";"2014-08-06 17:42:44.094";"2";;;;;;;;;;;;;;;;;;;;;;;;;;;;;;;;;
"summer1";;;"Windows 8";"Rachel's Experiment (D.T.)";"1.0";"2";"1";"1";"2";"1";"1";"2014-08-06 17:36:56.513";"2014-08-06 17:50:56.471";"1";"1";"1";"89";"88";"module.training_block3.exec-7613.GoNoGo3";;;;;;;;;;;;;;;;;;;;;;;;;;;;;;;;;;;;;;;;;;;;;;;"1250";"2014-08-06 17:42:47.879";"NST_correctLoc";"10";"1";"FINISHED";"RIGHT";"success";"466";"0";"2014-08-06 17:42:46.628";"2";;;;;;;;;;;;;;;;;;;;;;;;;;;;;;;;;
"summer1";;;"Windows 8";"Rachel's Experiment (D.T.)";"1.0";"2";"1";"1";"2";"1";"1";"2014-08-06 17:36:56.513";"2014-08-06 17:50:56.471";"1";"1";"1";"90";"89";"module.training_block3.exec-7613.GoNoGo3";;;;;;;;;;;;;;;;;;;;;;;;;;;;;;;;;;;;;;;;;;;;;;;"1250";"2014-08-06 17:42:50.420";"NST_correctLoc";"26";"0";"FINISHED";"LEFT";"success";"429";"0";"2014-08-06 17:42:49.170";"3";;;;;;;;;;;;;;;;;;;;;;;;;;;;;;;;;
"summer1";;;"Windows 8";"Rachel's Experiment (D.T.)";"1.0";"2";"1";"1";"2";"1";"1";"2014-08-06 17:36:56.513";"2014-08-06 17:50:56.471";"1";"1";"1";"91";"90";"module.training_block3.exec-7613.GoNoGo3";;;;;;;;;;;;;;;;;;;;;;;;;;;;;;;;;;;;;;;;;;;;;;;"1249";"2014-08-06 17:42:52.964";"NST_correctLoc";"9";"1";"FINISHED";"RIGHT";"success";"410";"0";"2014-08-06 17:42:51.714";"2";;;;;;;;;;;;;;;;;;;;;;;;;;;;;;;;;
"summer1";;;"Windows 8";"Rachel's Experiment (D.T.)";"1.0";"2";"1";"1";"2";"1";"1";"2014-08-06 17:36:56.513";"2014-08-06 17:50:56.471";"1";"1";"1";"92";"91";"module.training_block3.exec-7613.GoNoGo3";;;;;;;;;;;;;;;;;;;;;;;;;;;;;;;;;;;;;;;;;;;;;;;"1249";"2014-08-06 17:42:55.510";"NST_correctLoc";"13";"0";"FINISHED";"LEFT";"success";"454";"0";"2014-08-06 17:42:54.259";"2";;;;;;;;;;;;;;;;;;;;;;;;;;;;;;;;;
"summer1";;;"Windows 8";"Rachel's Experiment (D.T.)";"1.0";"2";"1";"1";"2";"1";"1";"2014-08-06 17:36:56.513";"2014-08-06 17:50:56.471";"1";"1";"1";"93";"92";"module.training_block3.exec-7613.GoNoGo3";;;;;;;;;;;;;;;;;;;;;;;;;;;;;;;;;;;;;;;;;;;;;;;"1249";"2014-08-06 17:42:58.053";"ST_correctStop";"7";"1";"FINISHED";"NONE";"success";"0";"1";"2014-08-06 17:42:56.802";"1";;;;;;;;;;;;;;;;;;;;;;;;;;;;;;;;;
"summer1";;;"Windows 8";"Rachel's Experiment (D.T.)";"1.0";"2";"1";"1";"2";"1";"1";"2014-08-06 17:36:56.513";"2014-08-06 17:50:56.471";"1";"1";"1";"94";"93";"module.training_block3.exec-7613.GoNoGo3";;;;;;;;;;;;;;;;;;;;;;;;;;;;;;;;;;;;;;;;;;;;;;;"1249";"2014-08-06 17:43:00.592";"NST_correctLoc";"33";"1";"FINISHED";"RIGHT";"success";"600";"0";"2014-08-06 17:42:59.342";"3";;;;;;;;;;;;;;;;;;;;;;;;;;;;;;;;;
"summer1";;;"Windows 8";"Rachel's Experiment (D.T.)";"1.0";"2";"1";"1";"2";"1";"1";"2014-08-06 17:36:56.513";"2014-08-06 17:50:56.471";"1";"1";"1";"95";"94";"module.training_block3.exec-7613.GoNoGo3";;;;;;;;;;;;;;;;;;;;;;;;;;;;;;;;;;;;;;;;;;;;;;;"1249";"2014-08-06 17:43:03.121";"NST_correctLoc";"16";"1";"FINISHED";"RIGHT";"success";"495";"0";"2014-08-06 17:43:01.871";"2";;;;;;;;;;;;;;;;;;;;;;;;;;;;;;;;;
"summer1";;;"Windows 8";"Rachel's Experiment (D.T.)";"1.0";"2";"1";"1";"2";"1";"1";"2014-08-06 17:36:56.513";"2014-08-06 17:50:56.471";"1";"1";"1";"96";"95";"module.training_block3.exec-7613.GoNoGo3";;;;;;;;;;;;;;;;;;;;;;;;;;;;;;;;;;;;;;;;;;;;;;;"1250";"2014-08-06 17:43:05.660";"ST_correctStop";"18";"0";"FINISHED";"NONE";"success";"0";"1";"2014-08-06 17:43:04.409";"3";;;;;;;;;;;;;;;;;;;;;;;;;;;;;;;;;
"summer1";;;"Windows 8";"Rachel's Experiment (D.T.)";"1.0";"2";"1";"1";"2";"1";"1";"2014-08-06 17:36:56.513";"2014-08-06 17:50:56.471";"1";"1";"1";"97";"96";"module.training_block3.exec-7613.GoNoGo3";;;;;;;;;;;;;;;;;;;;;;;;;;;;;;;;;;;;;;;;;;;;;;;"1249";"2014-08-06 17:43:08.208";"ST_correctStop";"23";"1";"FINISHED";"NONE";"success";"0";"1";"2014-08-06 17:43:06.958";"3";;;;;;;;;;;;;;;;;;;;;;;;;;;;;;;;;
"summer1";;;"Windows 8";"Rachel's Experiment (D.T.)";"1.0";"2";"1";"1";"2";"1";"1";"2014-08-06 17:36:56.513";"2014-08-06 17:50:56.471";"1";"1";"1";"98";"97";"module.training_block3.exec-7613.GoNoGo3";;;;;;;;;;;;;;;;;;;;;;;;;;;;;;;;;;;;;;;;;;;;;;;"1249";"2014-08-06 17:43:10.754";"NST_correctLoc";"35";"1";"FINISHED";"RIGHT";"success";"587";"0";"2014-08-06 17:43:09.504";"3";;;;;;;;;;;;;;;;;;;;;;;;;;;;;;;;;
"summer1";;;"Windows 8";"Rachel's Experiment (D.T.)";"1.0";"2";"1";"1";"2";"1";"1";"2014-08-06 17:36:56.513";"2014-08-06 17:50:56.471";"1";"1";"1";"99";"98";"module.training_block3.exec-7613.GoNoGo3";;;;;;;;;;;;;;;;;;;;;;;;;;;;;;;;;;;;;;;;;;;;;;;"1250";"2014-08-06 17:43:13.297";"ST_correctStop";"22";"0";"FINISHED";"NONE";"success";"0";"1";"2014-08-06 17:43:12.047";"3";;;;;;;;;;;;;;;;;;;;;;;;;;;;;;;;;
"summer1";;;"Windows 8";"Rachel's Experiment (D.T.)";"1.0";"2";"1";"1";"2";"1";"1";"2014-08-06 17:36:56.513";"2014-08-06 17:50:56.471";"1";"1";"1";"100";"99";"module.training_block3.exec-7613.GoNoGo3";;;;;;;;;;;;;;;;;;;;;;;;;;;;;;;;;;;;;;;;;;;;;;;"1251";"2014-08-06 17:43:15.844";"ST_correctStop";"4";"1";"FINISHED";"NONE";"success";"0";"1";"2014-08-06 17:43:14.594";"1";;;;;;;;;;;;;;;;;;;;;;;;;;;;;;;;;
"summer1";;;"Windows 8";"Rachel's Experiment (D.T.)";"1.0";"2";"1";"1";"2";"1";"1";"2014-08-06 17:36:56.513";"2014-08-06 17:50:56.471";"1";"1";"1";"101";"100";"module.training_block3.exec-7613.GoNoGo3";;;;;;;;;;;;;;;;;;;;;;;;;;;;;;;;;;;;;;;;;;;;;;;"1249";"2014-08-06 17:43:18.384";"ST_correctStop";"19";"1";"FINISHED";"NONE";"success";"0";"1";"2014-08-06 17:43:17.133";"3";;;;;;;;;;;;;;;;;;;;;;;;;;;;;;;;;
"summer1";;;"Windows 8";"Rachel's Experiment (D.T.)";"1.0";"2";"1";"1";"2";"1";"1";"2014-08-06 17:36:56.513";"2014-08-06 17:50:56.471";"1";"1";"1";"102";"101";"module.training_block3.exec-7613.GoNoGo3";;;;;;;;;;;;;;;;;;;;;;;;;;;;;;;;;;;;;;;;;;;;;;;"1250";"2014-08-06 17:43:20.926";"NST_correctLoc";"25";"1";"FINISHED";"RIGHT";"success";"683";"0";"2014-08-06 17:43:19.675";"3";;;;;;;;;;;;;;;;;;;;;;;;;;;;;;;;;
"summer1";;;"Windows 8";"Rachel's Experiment (D.T.)";"1.0";"2";"1";"1";"2";"1";"1";"2014-08-06 17:36:56.513";"2014-08-06 17:50:56.471";"1";"1";"1";"103";"102";"module.training_block3.exec-7613.GoNoGo3";;;;;;;;;;;;;;;;;;;;;;;;;;;;;;;;;;;;;;;;;;;;;;;"1250";"2014-08-06 17:43:23.469";"NST_correctLoc";"27";"1";"FINISHED";"RIGHT";"success";"516";"0";"2014-08-06 17:43:22.218";"3";;;;;;;;;;;;;;;;;;;;;;;;;;;;;;;;;
"summer1";;;"Windows 8";"Rachel's Experiment (D.T.)";"1.0";"2";"1";"1";"2";"1";"1";"2014-08-06 17:36:56.513";"2014-08-06 17:50:56.471";"1";"1";"1";"104";"103";"module.training_block3.exec-7613.GoNoGo3";;;;;;;;;;;;;;;;;;;;;;;;;;;;;;;;;;;;;;;;;;;;;;;"1250";"2014-08-06 17:43:26.007";"ST_correctStop";"28";"0";"FINISHED";"NONE";"success";"0";"1";"2014-08-06 17:43:24.756";"3";;;;;;;;;;;;;;;;;;;;;;;;;;;;;;;;;
"summer1";;;"Windows 8";"Rachel's Experiment (D.T.)";"1.0";"2";"1";"1";"2";"1";"1";"2014-08-06 17:36:56.513";"2014-08-06 17:50:56.471";"1";"1";"1";"105";"104";"module.training_block3.exec-7613.GoNoGo3";;;;;;;;;;;;;;;;;;;;;;;;;;;;;;;;;;;;;;;;;;;;;;;"1250";"2014-08-06 17:43:28.548";"NST_correctLoc";"14";"0";"FINISHED";"LEFT";"success";"520";"0";"2014-08-06 17:43:27.298";"2";;;;;;;;;;;;;;;;;;;;;;;;;;;;;;;;;
"summer1";;;"Windows 8";"Rachel's Experiment (D.T.)";"1.0";"2";"1";"1";"2";"1";"1";"2014-08-06 17:36:56.513";"2014-08-06 17:50:56.471";"1";"1";"1";"106";"105";"module.training_block3.exec-7613.GoNoGo3";;;;;;;;;;;;;;;;;;;;;;;;;;;;;;;;;;;;;;;;;;;;;;;"1250";"2014-08-06 17:43:31.098";"ST_correctStop";"6";"1";"FINISHED";"NONE";"success";"0";"1";"2014-08-06 17:43:29.847";"1";;;;;;;;;;;;;;;;;;;;;;;;;;;;;;;;;
"summer1";;;"Windows 8";"Rachel's Experiment (D.T.)";"1.0";"2";"1";"1";"2";"1";"1";"2014-08-06 17:36:56.513";"2014-08-06 17:50:56.471";"1";"1";"1";"107";"106";"module.training_block3.exec-7613.GoNoGo3";;;;;;;;;;;;;;;;;;;;;;;;;;;;;;;;;;;;;;;;;;;;;;;"1249";"2014-08-06 17:43:33.639";"ST_correctStop";"30";"0";"FINISHED";"NONE";"success";"0";"1";"2014-08-06 17:43:32.389";"3";;;;;;;;;;;;;;;;;;;;;;;;;;;;;;;;;
"summer1";;;"Windows 8";"Rachel's Experiment (D.T.)";"1.0";"2";"1";"1";"2";"1";"1";"2014-08-06 17:36:56.513";"2014-08-06 17:50:56.471";"1";"1";"1";"108";"107";"module.training_block3.exec-7613.GoNoGo3";;;;;;;;;;;;;;;;;;;;;;;;;;;;;;;;;;;;;;;;;;;;;;;"1249";"2014-08-06 17:43:36.182";"NST_correctLoc";"29";"1";"FINISHED";"RIGHT";"success";"501";"0";"2014-08-06 17:43:34.932";"3";;;;;;;;;;;;;;;;;;;;;;;;;;;;;;;;;
"summer1";;;"Windows 8";"Rachel's Experiment (D.T.)";"1.0";"2";"1";"1";"2";"1";"1";"2014-08-06 17:36:56.513";"2014-08-06 17:50:56.471";"1";"1";"1";"109";"108";"module.training_block3.exec-7613.GoNoGo3";;;;;;;;;;;;;;;;;;;;;;;;;;;;;;;;;;;;;;;;;;;;;;;"1249";"2014-08-06 17:43:38.766";"NST_correctLoc";"17";"1";"FINISHED";"RIGHT";"success";"556";"0";"2014-08-06 17:43:37.515";"2";;;;;;;;;;;;;;;;;;;;;;;;;;;;;;;;;
"summer1";;;"Windows 8";"Rachel's Experiment (D.T.)";"1.0";"2";"1";"1";"2";"1";"1";"2014-08-06 17:36:56.513";"2014-08-06 17:50:56.471";"1";"1";"1";"110";"109";"module.training_block3.exec-7613.GoNoGo3";;;;;;;;;;;;;;;;;;;;;;;;;;;;;;;;;;;;;;;;;;;;;;;"1250";"2014-08-06 17:43:41.303";"ST_correctStop";"1";"1";"FINISHED";"NONE";"success";"0";"1";"2014-08-06 17:43:40.052";"1";;;;;;;;;;;;;;;;;;;;;;;;;;;;;;;;;
"summer1";;;"Windows 8";"Rachel's Experiment (D.T.)";"1.0";"2";"1";"1";"2";"1";"1";"2014-08-06 17:36:56.513";"2014-08-06 17:50:56.471";"1";"1";"1";"111";"110";"module.training_block3.exec-7613.GoNoGo3";;;;;;;;;;;;;;;;;;;;;;;;;;;;;;;;;;;;;;;;;;;;;;;"1250";"2014-08-06 17:43:43.845";"ST_correctStop";"2";"1";"FINISHED";"NONE";"success";"0";"1";"2014-08-06 17:43:42.595";"1";;;;;;;;;;;;;;;;;;;;;;;;;;;;;;;;;
"summer1";;;"Windows 8";"Rachel's Experiment (D.T.)";"1.0";"2";"1";"1";"2";"1";"1";"2014-08-06 17:36:56.513";"2014-08-06 17:50:56.471";"1";"1";"1";"112";"111";"module.training_block3.exec-7613.GoNoGo3";;;;;;;;;;;;;;;;;;;;;;;;;;;;;;;;;;;;;;;;;;;;;;;"1249";"2014-08-06 17:43:46.378";"NST_correctLoc";"15";"0";"FINISHED";"LEFT";"success";"529";"0";"2014-08-06 17:43:45.128";"2";;;;;;;;;;;;;;;;;;;;;;;;;;;;;;;;;
"summer1";;;"Windows 8";"Rachel's Experiment (D.T.)";"1.0";"2";"1";"1";"2";"1";"1";"2014-08-06 17:36:56.513";"2014-08-06 17:50:56.471";"1";"1";"1";"113";"112";"module.training_block3.exec-7613.GoNoGo3";;;;;;;;;;;;;;;;;;;;;;;;;;;;;;;;;;;;;;;;;;;;;;;"1249";"2014-08-06 17:43:48.920";"ST_correctStop";"8";"1";"FINISHED";"NONE";"success";"0";"1";"2014-08-06 17:43:47.669";"1";;;;;;;;;;;;;;;;;;;;;;;;;;;;;;;;;
"summer1";;;"Windows 8";"Rachel's Experiment (D.T.)";"1.0";"2";"1";"1";"2";"1";"1";"2014-08-06 17:36:56.513";"2014-08-06 17:50:56.471";"1";"1";"1";"114";"113";"module.training_block3.exec-7613.GoNoGo3";;;;;;;;;;;;;;;;;;;;;;;;;;;;;;;;;;;;;;;;;;;;;;;"1250";"2014-08-06 17:43:51.461";"NST_correctLoc";"34";"1";"FINISHED";"RIGHT";"success";"534";"0";"2014-08-06 17:43:50.211";"3";;;;;;;;;;;;;;;;;;;;;;;;;;;;;;;;;
"summer1";;;"Windows 8";"Rachel's Experiment (D.T.)";"1.0";"2";"1";"1";"2";"1";"1";"2014-08-06 17:36:56.513";"2014-08-06 17:50:56.471";"1";"1";"1";"115";"114";"module.training_block3.exec-7613.GoNoGo3";;;;;;;;;;;;;;;;;;;;;;;;;;;;;;;;;;;;;;;;;;;;;;;"1249";"2014-08-06 17:43:54.002";"NST_correctLoc";"11";"1";"FINISHED";"RIGHT";"success";"607";"0";"2014-08-06 17:43:52.752";"2";;;;;;;;;;;;;;;;;;;;;;;;;;;;;;;;;
"summer1";;;"Windows 8";"Rachel's Experiment (D.T.)";"1.0";"2";"1";"1";"2";"1";"1";"2014-08-06 17:36:56.513";"2014-08-06 17:50:56.471";"1";"1";"1";"116";"115";"module.training_block3.exec-7613.GoNoGo3";;;;;;;;;;;;;;;;;;;;;;;;;;;;;;;;;;;;;;;;;;;;;;;"1249";"2014-08-06 17:43:56.549";"ST_correctStop";"24";"0";"FINISHED";"NONE";"success";"0";"1";"2014-08-06 17:43:55.298";"3";;;;;;;;;;;;;;;;;;;;;;;;;;;;;;;;;
"summer1";;;"Windows 8";"Rachel's Experiment (D.T.)";"1.0";"2";"1";"1";"2";"1";"1";"2014-08-06 17:36:56.513";"2014-08-06 17:50:56.471";"1";"1";"1";"117";"116";"module.training_block3.exec-7613.GoNoGo3";;;;;;;;;;;;;;;;;;;;;;;;;;;;;;;;;;;;;;;;;;;;;;;"1249";"2014-08-06 17:43:59.087";"ST_correctStop";"21";"1";"FINISHED";"NONE";"success";"0";"1";"2014-08-06 17:43:57.837";"3";;;;;;;;;;;;;;;;;;;;;;;;;;;;;;;;;
"summer1";;;"Windows 8";"Rachel's Experiment (D.T.)";"1.0";"2";"1";"1";"2";"1";"1";"2014-08-06 17:36:56.513";"2014-08-06 17:50:56.471";"1";"1";"1";"118";"117";"module.training_block3.exec-7613.GoNoGo3";;;;;;;;;;;;;;;;;;;;;;;;;;;;;;;;;;;;;;;;;;;;;;;"1250";"2014-08-06 17:44:01.629";"ST_correctStop";"20";"0";"FINISHED";"NONE";"success";"0";"1";"2014-08-06 17:44:00.379";"3";;;;;;;;;;;;;;;;;;;;;;;;;;;;;;;;;
"summer1";;;"Windows 8";"Rachel's Experiment (D.T.)";"1.0";"2";"1";"1";"2";"1";"1";"2014-08-06 17:36:56.513";"2014-08-06 17:50:56.471";"1";"1";"1";"119";"118";"module.training_block3.exec-7613.GoNoGo3";;;;;;;;;;;;;;;;;;;;;;;;;;;;;;;;;;;;;;;;;;;;;;;"1249";"2014-08-06 17:44:04.172";"ST_correctStop";"5";"0";"FINISHED";"NONE";"success";"0";"1";"2014-08-06 17:44:02.921";"1";;;;;;;;;;;;;;;;;;;;;;;;;;;;;;;;;
"summer1";;;"Windows 8";"Rachel's Experiment (D.T.)";"1.0";"2";"1";"1";"2";"1";"1";"2014-08-06 17:36:56.513";"2014-08-06 17:50:56.471";"1";"1";"1";"120";"119";"module.training_block3.exec-7613.GoNoGo3";;;;;;;;;;;;;;;;;;;;;;;;;;;;;;;;;;;;;;;;;;;;;;;"1250";"2014-08-06 17:44:06.709";"ST_correctStop";"0";"1";"FINISHED";"NONE";"success";"0";"1";"2014-08-06 17:44:05.459";"1";;;;;;;;;;;;;;;;;;;;;;;;;;;;;;;;;
"summer1";;;"Windows 8";"Rachel's Experiment (D.T.)";"1.0";"2";"1";"1";"2";"1";"1";"2014-08-06 17:36:56.513";"2014-08-06 17:50:56.471";"1";"1";"1";"121";"120";"module.training_block3.exec-7613.GoNoGo3";;;;;;;;;;;;;;;;;;;;;;;;;;;;;;;;;;;;;;;;;;;;;;;"1250";"2014-08-06 17:44:09.251";"ST_correctStop";"3";"0";"FINISHED";"NONE";"success";"0";"1";"2014-08-06 17:44:08.000";"1";;;;;;;;;;;;;;;;;;;;;;;;;;;;;;;;;
"summer1";;;"Windows 8";"Rachel's Experiment (D.T.)";"1.0";"2";"1";"1";"2";"1";"1";"2014-08-06 17:36:56.513";"2014-08-06 17:50:56.471";"1";"1";"1";"122";"121";"module.training_block3.exec-7613.GoNoGo3";;;;;;;;;;;;;;;;;;;;;;;;;;;;;;;;;;;;;;;;;;;;;;;"1250";"2014-08-06 17:44:11.792";"NST_correctLoc";"32";"0";"FINISHED";"LEFT";"success";"602";"0";"2014-08-06 17:44:10.541";"3";;;;;;;;;;;;;;;;;;;;;;;;;;;;;;;;;
"summer1";;;"Windows 8";"Rachel's Experiment (D.T.)";"1.0";"2";"1";"1";"2";"1";"1";"2014-08-06 17:36:56.513";"2014-08-06 17:50:56.471";"1";"1";"1";"123";"122";"module.training_block3.exec-7613.GoNoGo3";;;;;;;;;;;;;;;;;;;;;;;;;;;;;;;;;;;;;;;;;;;;;;;"1249";"2014-08-06 17:44:14.332";"NST_correctLoc";"31";"0";"FINISHED";"LEFT";"success";"475";"0";"2014-08-06 17:44:13.082";"3";;;;;;;;;;;;;;;;;;;;;;;;;;;;;;;;;
"summer1";;;"Windows 8";"Rachel's Experiment (D.T.)";"1.0";"2";"1";"1";"2";"1";"1";"2014-08-06 17:36:56.513";"2014-08-06 17:50:56.471";"1";"1";"1";"124";"123";"module.training_block4.exec-3959.GoNoGo4";;;;;;;;;;;;;;;;;;;;;;;;;;;;;;;;;;;;;;;;;;;;;;;;;;;;;;;;;;;"1249";"2014-08-06 17:44:29.135";"NST_correctLoc";"32";"1";"FINISHED";"RIGHT";"success";"566";"0";"2014-08-06 17:44:27.884";"3";;;;;;;;;;;;;;;;;;;;;
"summer1";;;"Windows 8";"Rachel's Experiment (D.T.)";"1.0";"2";"1";"1";"2";"1";"1";"2014-08-06 17:36:56.513";"2014-08-06 17:50:56.471";"1";"1";"1";"125";"124";"module.training_block4.exec-3959.GoNoGo4";;;;;;;;;;;;;;;;;;;;;;;;;;;;;;;;;;;;;;;;;;;;;;;;;;;;;;;;;;;"1250";"2014-08-06 17:44:31.672";"ST_correctStop";"22";"0";"FINISHED";"NONE";"success";"0";"1";"2014-08-06 17:44:30.422";"3";;;;;;;;;;;;;;;;;;;;;
"summer1";;;"Windows 8";"Rachel's Experiment (D.T.)";"1.0";"2";"1";"1";"2";"1";"1";"2014-08-06 17:36:56.513";"2014-08-06 17:50:56.471";"1";"1";"1";"126";"125";"module.training_block4.exec-3959.GoNoGo4";;;;;;;;;;;;;;;;;;;;;;;;;;;;;;;;;;;;;;;;;;;;;;;;;;;;;;;;;;;"1249";"2014-08-06 17:44:34.215";"NST_correctLoc";"12";"1";"FINISHED";"RIGHT";"success";"444";"0";"2014-08-06 17:44:32.965";"2";;;;;;;;;;;;;;;;;;;;;
"summer1";;;"Windows 8";"Rachel's Experiment (D.T.)";"1.0";"2";"1";"1";"2";"1";"1";"2014-08-06 17:36:56.513";"2014-08-06 17:50:56.471";"1";"1";"1";"127";"126";"module.training_block4.exec-3959.GoNoGo4";;;;;;;;;;;;;;;;;;;;;;;;;;;;;;;;;;;;;;;;;;;;;;;;;;;;;;;;;;;"1250";"2014-08-06 17:44:36.756";"NST_correctLoc";"16";"0";"FINISHED";"LEFT";"success";"438";"0";"2014-08-06 17:44:35.505";"2";;;;;;;;;;;;;;;;;;;;;
"summer1";;;"Windows 8";"Rachel's Experiment (D.T.)";"1.0";"2";"1";"1";"2";"1";"1";"2014-08-06 17:36:56.513";"2014-08-06 17:50:56.471";"1";"1";"1";"128";"127";"module.training_block4.exec-3959.GoNoGo4";;;;;;;;;;;;;;;;;;;;;;;;;;;;;;;;;;;;;;;;;;;;;;;;;;;;;;;;;;;"1249";"2014-08-06 17:44:39.291";"ST_correctStop";"3";"0";"FINISHED";"NONE";"success";"0";"1";"2014-08-06 17:44:38.041";"1";;;;;;;;;;;;;;;;;;;;;
"summer1";;;"Windows 8";"Rachel's Experiment (D.T.)";"1.0";"2";"1";"1";"2";"1";"1";"2014-08-06 17:36:56.513";"2014-08-06 17:50:56.471";"1";"1";"1";"129";"128";"module.training_block4.exec-3959.GoNoGo4";;;;;;;;;;;;;;;;;;;;;;;;;;;;;;;;;;;;;;;;;;;;;;;;;;;;;;;;;;;"1250";"2014-08-06 17:44:41.832";"NST_correctLoc";"11";"1";"FINISHED";"RIGHT";"success";"430";"0";"2014-08-06 17:44:40.581";"2";;;;;;;;;;;;;;;;;;;;;
"summer1";;;"Windows 8";"Rachel's Experiment (D.T.)";"1.0";"2";"1";"1";"2";"1";"1";"2014-08-06 17:36:56.513";"2014-08-06 17:50:56.471";"1";"1";"1";"130";"129";"module.training_block4.exec-3959.GoNoGo4";;;;;;;;;;;;;;;;;;;;;;;;;;;;;;;;;;;;;;;;;;;;;;;;;;;;;;;;;;;"1250";"2014-08-06 17:44:44.386";"NST_correctLoc";"35";"1";"FINISHED";"RIGHT";"success";"436";"0";"2014-08-06 17:44:43.135";"3";;;;;;;;;;;;;;;;;;;;;
"summer1";;;"Windows 8";"Rachel's Experiment (D.T.)";"1.0";"2";"1";"1";"2";"1";"1";"2014-08-06 17:36:56.513";"2014-08-06 17:50:56.471";"1";"1";"1";"131";"130";"module.training_block4.exec-3959.GoNoGo4";;;;;;;;;;;;;;;;;;;;;;;;;;;;;;;;;;;;;;;;;;;;;;;;;;;;;;;;;;;"1250";"2014-08-06 17:44:46.918";"NST_correctLoc";"34";"1";"FINISHED";"RIGHT";"success";"398";"0";"2014-08-06 17:44:45.667";"3";;;;;;;;;;;;;;;;;;;;;
"summer1";;;"Windows 8";"Rachel's Experiment (D.T.)";"1.0";"2";"1";"1";"2";"1";"1";"2014-08-06 17:36:56.513";"2014-08-06 17:50:56.471";"1";"1";"1";"132";"131";"module.training_block4.exec-3959.GoNoGo4";;;;;;;;;;;;;;;;;;;;;;;;;;;;;;;;;;;;;;;;;;;;;;;;;;;;;;;;;;;"1250";"2014-08-06 17:44:49.458";"ST_correctStop";"6";"0";"FINISHED";"NONE";"success";"0";"1";"2014-08-06 17:44:48.207";"1";;;;;;;;;;;;;;;;;;;;;
"summer1";;;"Windows 8";"Rachel's Experiment (D.T.)";"1.0";"2";"1";"1";"2";"1";"1";"2014-08-06 17:36:56.513";"2014-08-06 17:50:56.471";"1";"1";"1";"133";"132";"module.training_block4.exec-3959.GoNoGo4";;;;;;;;;;;;;;;;;;;;;;;;;;;;;;;;;;;;;;;;;;;;;;;;;;;;;;;;;;;"1249";"2014-08-06 17:44:51.989";"ST_correctStop";"27";"0";"FINISHED";"NONE";"success";"0";"1";"2014-08-06 17:44:50.739";"3";;;;;;;;;;;;;;;;;;;;;
"summer1";;;"Windows 8";"Rachel's Experiment (D.T.)";"1.0";"2";"1";"1";"2";"1";"1";"2014-08-06 17:36:56.513";"2014-08-06 17:50:56.471";"1";"1";"1";"134";"133";"module.training_block4.exec-3959.GoNoGo4";;;;;;;;;;;;;;;;;;;;;;;;;;;;;;;;;;;;;;;;;;;;;;;;;;;;;;;;;;;"1250";"2014-08-06 17:44:54.528";"ST_correctStop";"25";"1";"FINISHED";"NONE";"success";"0";"1";"2014-08-06 17:44:53.277";"3";;;;;;;;;;;;;;;;;;;;;
"summer1";;;"Windows 8";"Rachel's Experiment (D.T.)";"1.0";"2";"1";"1";"2";"1";"1";"2014-08-06 17:36:56.513";"2014-08-06 17:50:56.471";"1";"1";"1";"135";"134";"module.training_block4.exec-3959.GoNoGo4";;;;;;;;;;;;;;;;;;;;;;;;;;;;;;;;;;;;;;;;;;;;;;;;;;;;;;;;;;;"1249";"2014-08-06 17:44:57.072";"NST_correctLoc";"21";"0";"FINISHED";"LEFT";"success";"678";"0";"2014-08-06 17:44:55.822";"3";;;;;;;;;;;;;;;;;;;;;
"summer1";;;"Windows 8";"Rachel's Experiment (D.T.)";"1.0";"2";"1";"1";"2";"1";"1";"2014-08-06 17:36:56.513";"2014-08-06 17:50:56.471";"1";"1";"1";"136";"135";"module.training_block4.exec-3959.GoNoGo4";;;;;;;;;;;;;;;;;;;;;;;;;;;;;;;;;;;;;;;;;;;;;;;;;;;;;;;;;;;"1250";"2014-08-06 17:44:59.613";"ST_correctStop";"18";"0";"FINISHED";"NONE";"success";"0";"1";"2014-08-06 17:44:58.362";"3";;;;;;;;;;;;;;;;;;;;;
"summer1";;;"Windows 8";"Rachel's Experiment (D.T.)";"1.0";"2";"1";"1";"2";"1";"1";"2014-08-06 17:36:56.513";"2014-08-06 17:50:56.471";"1";"1";"1";"137";"136";"module.training_block4.exec-3959.GoNoGo4";;;;;;;;;;;;;;;;;;;;;;;;;;;;;;;;;;;;;;;;;;;;;;;;;;;;;;;;;;;"1249";"2014-08-06 17:45:02.153";"ST_correctStop";"33";"0";"FINISHED";"NONE";"success";"0";"1";"2014-08-06 17:45:00.902";"3";;;;;;;;;;;;;;;;;;;;;
"summer1";;;"Windows 8";"Rachel's Experiment (D.T.)";"1.0";"2";"1";"1";"2";"1";"1";"2014-08-06 17:36:56.513";"2014-08-06 17:50:56.471";"1";"1";"1";"138";"137";"module.training_block4.exec-3959.GoNoGo4";;;;;;;;;;;;;;;;;;;;;;;;;;;;;;;;;;;;;;;;;;;;;;;;;;;;;;;;;;;"1249";"2014-08-06 17:45:04.699";"ST_correctStop";"24";"0";"FINISHED";"NONE";"success";"0";"1";"2014-08-06 17:45:03.449";"3";;;;;;;;;;;;;;;;;;;;;
"summer1";;;"Windows 8";"Rachel's Experiment (D.T.)";"1.0";"2";"1";"1";"2";"1";"1";"2014-08-06 17:36:56.513";"2014-08-06 17:50:56.471";"1";"1";"1";"139";"138";"module.training_block4.exec-3959.GoNoGo4";;;;;;;;;;;;;;;;;;;;;;;;;;;;;;;;;;;;;;;;;;;;;;;;;;;;;;;;;;;"1250";"2014-08-06 17:45:07.241";"NST_miss";"20";"0";"FINISHED";"NONE";"failure";"0";"0";"2014-08-06 17:45:05.990";"3";;;;;;;;;;;;;;;;;;;;;
"summer1";;;"Windows 8";"Rachel's Experiment (D.T.)";"1.0";"2";"1";"1";"2";"1";"1";"2014-08-06 17:36:56.513";"2014-08-06 17:50:56.471";"1";"1";"1";"140";"139";"module.training_block4.exec-3959.GoNoGo4";;;;;;;;;;;;;;;;;;;;;;;;;;;;;;;;;;;;;;;;;;;;;;;;;;;;;;;;;;;"1249";"2014-08-06 17:45:09.782";"NST_correctLoc";"10";"0";"FINISHED";"LEFT";"success";"477";"0";"2014-08-06 17:45:08.531";"2";;;;;;;;;;;;;;;;;;;;;
"summer1";;;"Windows 8";"Rachel's Experiment (D.T.)";"1.0";"2";"1";"1";"2";"1";"1";"2014-08-06 17:36:56.513";"2014-08-06 17:50:56.471";"1";"1";"1";"141";"140";"module.training_block4.exec-3959.GoNoGo4";;;;;;;;;;;;;;;;;;;;;;;;;;;;;;;;;;;;;;;;;;;;;;;;;;;;;;;;;;;"1249";"2014-08-06 17:45:12.324";"NST_correctLoc";"23";"0";"FINISHED";"LEFT";"success";"509";"0";"2014-08-06 17:45:11.074";"3";;;;;;;;;;;;;;;;;;;;;
"summer1";;;"Windows 8";"Rachel's Experiment (D.T.)";"1.0";"2";"1";"1";"2";"1";"1";"2014-08-06 17:36:56.513";"2014-08-06 17:50:56.471";"1";"1";"1";"142";"141";"module.training_block4.exec-3959.GoNoGo4";;;;;;;;;;;;;;;;;;;;;;;;;;;;;;;;;;;;;;;;;;;;;;;;;;;;;;;;;;;"1250";"2014-08-06 17:45:14.863";"NST_correctLoc";"17";"1";"FINISHED";"RIGHT";"success";"441";"0";"2014-08-06 17:45:13.612";"2";;;;;;;;;;;;;;;;;;;;;
"summer1";;;"Windows 8";"Rachel's Experiment (D.T.)";"1.0";"2";"1";"1";"2";"1";"1";"2014-08-06 17:36:56.513";"2014-08-06 17:50:56.471";"1";"1";"1";"143";"142";"module.training_block4.exec-3959.GoNoGo4";;;;;;;;;;;;;;;;;;;;;;;;;;;;;;;;;;;;;;;;;;;;;;;;;;;;;;;;;;;"1249";"2014-08-06 17:45:17.393";"ST_correctStop";"30";"0";"FINISHED";"NONE";"success";"0";"1";"2014-08-06 17:45:16.143";"3";;;;;;;;;;;;;;;;;;;;;
"summer1";;;"Windows 8";"Rachel's Experiment (D.T.)";"1.0";"2";"1";"1";"2";"1";"1";"2014-08-06 17:36:56.513";"2014-08-06 17:50:56.471";"1";"1";"1";"144";"143";"module.training_block4.exec-3959.GoNoGo4";;;;;;;;;;;;;;;;;;;;;;;;;;;;;;;;;;;;;;;;;;;;;;;;;;;;;;;;;;;"1250";"2014-08-06 17:45:19.933";"ST_correctStop";"0";"0";"FINISHED";"NONE";"success";"0";"1";"2014-08-06 17:45:18.682";"1";;;;;;;;;;;;;;;;;;;;;
"summer1";;;"Windows 8";"Rachel's Experiment (D.T.)";"1.0";"2";"1";"1";"2";"1";"1";"2014-08-06 17:36:56.513";"2014-08-06 17:50:56.471";"1";"1";"1";"145";"144";"module.training_block4.exec-3959.GoNoGo4";;;;;;;;;;;;;;;;;;;;;;;;;;;;;;;;;;;;;;;;;;;;;;;;;;;;;;;;;;;"1250";"2014-08-06 17:45:22.473";"NST_correctLoc";"28";"1";"FINISHED";"RIGHT";"success";"554";"0";"2014-08-06 17:45:21.222";"3";;;;;;;;;;;;;;;;;;;;;
"summer1";;;"Windows 8";"Rachel's Experiment (D.T.)";"1.0";"2";"1";"1";"2";"1";"1";"2014-08-06 17:36:56.513";"2014-08-06 17:50:56.471";"1";"1";"1";"146";"145";"module.training_block4.exec-3959.GoNoGo4";;;;;;;;;;;;;;;;;;;;;;;;;;;;;;;;;;;;;;;;;;;;;;;;;;;;;;;;;;;"1250";"2014-08-06 17:45:25.009";"NST_correctLoc";"9";"0";"FINISHED";"LEFT";"success";"404";"0";"2014-08-06 17:45:23.758";"2";;;;;;;;;;;;;;;;;;;;;
"summer1";;;"Windows 8";"Rachel's Experiment (D.T.)";"1.0";"2";"1";"1";"2";"1";"1";"2014-08-06 17:36:56.513";"2014-08-06 17:50:56.471";"1";"1";"1";"147";"146";"module.training_block4.exec-3959.GoNoGo4";;;;;;;;;;;;;;;;;;;;;;;;;;;;;;;;;;;;;;;;;;;;;;;;;;;;;;;;;;;"1249";"2014-08-06 17:45:27.547";"NST_correctLoc";"13";"1";"FINISHED";"RIGHT";"success";"449";"0";"2014-08-06 17:45:26.297";"2";;;;;;;;;;;;;;;;;;;;;
"summer1";;;"Windows 8";"Rachel's Experiment (D.T.)";"1.0";"2";"1";"1";"2";"1";"1";"2014-08-06 17:36:56.513";"2014-08-06 17:50:56.471";"1";"1";"1";"148";"147";"module.training_block4.exec-3959.GoNoGo4";;;;;;;;;;;;;;;;;;;;;;;;;;;;;;;;;;;;;;;;;;;;;;;;;;;;;;;;;;;"1250";"2014-08-06 17:45:30.082";"NST_correctLoc";"14";"1";"FINISHED";"RIGHT";"success";"439";"0";"2014-08-06 17:45:28.831";"2";;;;;;;;;;;;;;;;;;;;;
"summer1";;;"Windows 8";"Rachel's Experiment (D.T.)";"1.0";"2";"1";"1";"2";"1";"1";"2014-08-06 17:36:56.513";"2014-08-06 17:50:56.471";"1";"1";"1";"149";"148";"module.training_block4.exec-3959.GoNoGo4";;;;;;;;;;;;;;;;;;;;;;;;;;;;;;;;;;;;;;;;;;;;;;;;;;;;;;;;;;;"1250";"2014-08-06 17:45:32.620";"NST_correctLoc";"29";"1";"FINISHED";"RIGHT";"success";"565";"0";"2014-08-06 17:45:31.369";"3";;;;;;;;;;;;;;;;;;;;;
"summer1";;;"Windows 8";"Rachel's Experiment (D.T.)";"1.0";"2";"1";"1";"2";"1";"1";"2014-08-06 17:36:56.513";"2014-08-06 17:50:56.471";"1";"1";"1";"150";"149";"module.training_block4.exec-3959.GoNoGo4";;;;;;;;;;;;;;;;;;;;;;;;;;;;;;;;;;;;;;;;;;;;;;;;;;;;;;;;;;;"1250";"2014-08-06 17:45:35.162";"ST_correctStop";"4";"1";"FINISHED";"NONE";"success";"0";"1";"2014-08-06 17:45:33.911";"1";;;;;;;;;;;;;;;;;;;;;
"summer1";;;"Windows 8";"Rachel's Experiment (D.T.)";"1.0";"2";"1";"1";"2";"1";"1";"2014-08-06 17:36:56.513";"2014-08-06 17:50:56.471";"1";"1";"1";"151";"150";"module.training_block4.exec-3959.GoNoGo4";;;;;;;;;;;;;;;;;;;;;;;;;;;;;;;;;;;;;;;;;;;;;;;;;;;;;;;;;;;"1249";"2014-08-06 17:45:37.699";"ST_correctStop";"19";"0";"FINISHED";"NONE";"success";"0";"1";"2014-08-06 17:45:36.448";"3";;;;;;;;;;;;;;;;;;;;;
"summer1";;;"Windows 8";"Rachel's Experiment (D.T.)";"1.0";"2";"1";"1";"2";"1";"1";"2014-08-06 17:36:56.513";"2014-08-06 17:50:56.471";"1";"1";"1";"152";"151";"module.training_block4.exec-3959.GoNoGo4";;;;;;;;;;;;;;;;;;;;;;;;;;;;;;;;;;;;;;;;;;;;;;;;;;;;;;;;;;;"1250";"2014-08-06 17:45:40.237";"NST_correctLoc";"31";"1";"FINISHED";"RIGHT";"success";"517";"0";"2014-08-06 17:45:38.987";"3";;;;;;;;;;;;;;;;;;;;;
"summer1";;;"Windows 8";"Rachel's Experiment (D.T.)";"1.0";"2";"1";"1";"2";"1";"1";"2014-08-06 17:36:56.513";"2014-08-06 17:50:56.471";"1";"1";"1";"153";"152";"module.training_block4.exec-3959.GoNoGo4";;;;;;;;;;;;;;;;;;;;;;;;;;;;;;;;;;;;;;;;;;;;;;;;;;;;;;;;;;;"1249";"2014-08-06 17:45:42.772";"ST_correctStop";"26";"0";"FINISHED";"NONE";"success";"0";"1";"2014-08-06 17:45:41.522";"3";;;;;;;;;;;;;;;;;;;;;
"summer1";;;"Windows 8";"Rachel's Experiment (D.T.)";"1.0";"2";"1";"1";"2";"1";"1";"2014-08-06 17:36:56.513";"2014-08-06 17:50:56.471";"1";"1";"1";"154";"153";"module.training_block4.exec-3959.GoNoGo4";;;;;;;;;;;;;;;;;;;;;;;;;;;;;;;;;;;;;;;;;;;;;;;;;;;;;;;;;;;"1249";"2014-08-06 17:45:45.308";"ST_correctStop";"5";"1";"FINISHED";"NONE";"success";"0";"1";"2014-08-06 17:45:44.058";"1";;;;;;;;;;;;;;;;;;;;;
"summer1";;;"Windows 8";"Rachel's Experiment (D.T.)";"1.0";"2";"1";"1";"2";"1";"1";"2014-08-06 17:36:56.513";"2014-08-06 17:50:56.471";"1";"1";"1";"155";"154";"module.training_block4.exec-3959.GoNoGo4";;;;;;;;;;;;;;;;;;;;;;;;;;;;;;;;;;;;;;;;;;;;;;;;;;;;;;;;;;;"1249";"2014-08-06 17:45:47.842";"ST_correctStop";"7";"1";"FINISHED";"NONE";"success";"0";"1";"2014-08-06 17:45:46.591";"1";;;;;;;;;;;;;;;;;;;;;
"summer1";;;"Windows 8";"Rachel's Experiment (D.T.)";"1.0";"2";"1";"1";"2";"1";"1";"2014-08-06 17:36:56.513";"2014-08-06 17:50:56.471";"1";"1";"1";"156";"155";"module.training_block4.exec-3959.GoNoGo4";;;;;;;;;;;;;;;;;;;;;;;;;;;;;;;;;;;;;;;;;;;;;;;;;;;;;;;;;;;"1249";"2014-08-06 17:45:50.379";"ST_correctStop";"1";"1";"FINISHED";"NONE";"success";"0";"1";"2014-08-06 17:45:49.129";"1";;;;;;;;;;;;;;;;;;;;;
"summer1";;;"Windows 8";"Rachel's Experiment (D.T.)";"1.0";"2";"1";"1";"2";"1";"1";"2014-08-06 17:36:56.513";"2014-08-06 17:50:56.471";"1";"1";"1";"157";"156";"module.training_block4.exec-3959.GoNoGo4";;;;;;;;;;;;;;;;;;;;;;;;;;;;;;;;;;;;;;;;;;;;;;;;;;;;;;;;;;;"1250";"2014-08-06 17:45:52.919";"ST_correctStop";"8";"1";"FINISHED";"NONE";"success";"0";"1";"2014-08-06 17:45:51.669";"1";;;;;;;;;;;;;;;;;;;;;
"summer1";;;"Windows 8";"Rachel's Experiment (D.T.)";"1.0";"2";"1";"1";"2";"1";"1";"2014-08-06 17:36:56.513";"2014-08-06 17:50:56.471";"1";"1";"1";"158";"157";"module.training_block4.exec-3959.GoNoGo4";;;;;;;;;;;;;;;;;;;;;;;;;;;;;;;;;;;;;;;;;;;;;;;;;;;;;;;;;;;"1250";"2014-08-06 17:45:55.457";"NST_correctLoc";"15";"0";"FINISHED";"LEFT";"success";"481";"0";"2014-08-06 17:45:54.206";"2";;;;;;;;;;;;;;;;;;;;;
"summer1";;;"Windows 8";"Rachel's Experiment (D.T.)";"1.0";"2";"1";"1";"2";"1";"1";"2014-08-06 17:36:56.513";"2014-08-06 17:50:56.471";"1";"1";"1";"159";"158";"module.training_block4.exec-3959.GoNoGo4";;;;;;;;;;;;;;;;;;;;;;;;;;;;;;;;;;;;;;;;;;;;;;;;;;;;;;;;;;;"1249";"2014-08-06 17:45:57.987";"ST_correctStop";"2";"1";"FINISHED";"NONE";"success";"0";"1";"2014-08-06 17:45:56.736";"1";;;;;;;;;;;;;;;;;;;;;
"summer1";;;"Windows 8";"Rachel's Experiment (D.T.)";"1.0";"2";"1";"1";"2";"1";"1";"2014-08-06 17:36:56.513";"2014-08-06 17:50:56.471";"1";"1";"1";"160";"159";"module.devaluation_practice.exec-1549.devalPractice";;;;;;;;;;;;"23252";"2014-08-06 17:47:07.255";"0";"2";"1";"2";"3173";"2286";"14734";"2014-08-06 17:46:44.002";;;;;;;;;;;;;;;;;;;;;;;;;;;;;;;;;;;;;;;;;;;;;;;;;;;;;;;;;;;;;;;;;;;;;;
"summer1";;;"Windows 8";"Rachel's Experiment (D.T.)";"1.0";"2";"1";"1";"2";"1";"1";"2014-08-06 17:36:56.513";"2014-08-06 17:50:56.471";"1";"1";"1";"161";"160";"module.devaluation_practice.exec-1549.devalPractice";;;;;;;;;;;;"14419";"2014-08-06 17:47:21.713";"1";"2";"3";"4";"2359";"2316";"6728";"2014-08-06 17:47:07.293";;;;;;;;;;;;;;;;;;;;;;;;;;;;;;;;;;;;;;;;;;;;;;;;;;;;;;;;;;;;;;;;;;;;;;
"summer1";;;"Windows 8";"Rachel's Experiment (D.T.)";"1.0";"2";"1";"1";"2";"1";"1";"2014-08-06 17:36:56.513";"2014-08-06 17:50:56.471";"1";"1";"1";"162";"161";"module.devaluation_practice.exec-1549.devalPractice";;;;;;;;;;;;"8711";"2014-08-06 17:47:30.469";"2";"5";"6";"7";"1986";"1122";"2584";"2014-08-06 17:47:21.758";;;;;;;;;;;;;;;;;;;;;;;;;;;;;;;;;;;;;;;;;;;;;;;;;;;;;;;;;;;;;;;;;;;;;;
"summer1";;;"Windows 8";"Rachel's Experiment (D.T.)";"1.0";"2";"1";"1";"2";"1";"1";"2014-08-06 17:36:56.513";"2014-08-06 17:50:56.471";"1";"1";"1";"163";"162";"module.devaluation_practice.exec-1549.devalPractice";;;;;;;;;;;;"7598";"2014-08-06 17:47:38.097";"3";"1";"1";"1";"1291";"1136";"2152";"2014-08-06 17:47:30.499";;;;;;;;;;;;;;;;;;;;;;;;;;;;;;;;;;;;;;;;;;;;;;;;;;;;;;;;;;;;;;;;;;;;;;
"summer1";;;"Windows 8";"Rachel's Experiment (D.T.)";"1.0";"2";"1";"1";"2";"1";"1";"2014-08-06 17:36:56.513";"2014-08-06 17:50:56.471";"1";"1";"1";"164";"163";"module.devaluation_block1.exec-4111.deval1";"12687";"2014-08-06 17:47:58.671";"10";"4";"1";"2";"6012";"1262";"2389";"2014-08-06 17:47:45.983";"2";;;;;;;;;;;;;;;;;;;;;;;;;;;;;;;;;;;;;;;;;;;;;;;;;;;;;;;;;;;;;;;;;;;;;;;;;;;;;;;;
"summer1";;;"Windows 8";"Rachel's Experiment (D.T.)";"1.0";"2";"1";"1";"2";"1";"1";"2014-08-06 17:36:56.513";"2014-08-06 17:50:56.471";"1";"1";"1";"165";"164";"module.devaluation_block1.exec-4111.deval1";"6919";"2014-08-06 17:48:05.632";"21";"3";"1";"3";"1786";"1102";"1009";"2014-08-06 17:47:58.713";"3";;;;;;;;;;;;;;;;;;;;;;;;;;;;;;;;;;;;;;;;;;;;;;;;;;;;;;;;;;;;;;;;;;;;;;;;;;;;;;;;
"summer1";;;"Windows 8";"Rachel's Experiment (D.T.)";"1.0";"2";"1";"1";"2";"1";"1";"2014-08-06 17:36:56.513";"2014-08-06 17:50:56.471";"1";"1";"1";"166";"165";"module.devaluation_block1.exec-4111.deval1";"7747";"2014-08-06 17:48:13.419";"18";"9";"9";"9";"1978";"1509";"1237";"2014-08-06 17:48:05.672";"3";;;;;;;;;;;;;;;;;;;;;;;;;;;;;;;;;;;;;;;;;;;;;;;;;;;;;;;;;;;;;;;;;;;;;;;;;;;;;;;;
"summer1";;;"Windows 8";"Rachel's Experiment (D.T.)";"1.0";"2";"1";"1";"2";"1";"1";"2014-08-06 17:36:56.513";"2014-08-06 17:50:56.471";"1";"1";"1";"167";"166";"module.devaluation_block1.exec-4111.deval1";"6836";"2014-08-06 17:48:20.300";"6";"7";"8";"7";"1178";"1138";"1500";"2014-08-06 17:48:13.464";"1";;;;;;;;;;;;;;;;;;;;;;;;;;;;;;;;;;;;;;;;;;;;;;;;;;;;;;;;;;;;;;;;;;;;;;;;;;;;;;;;
"summer1";;;"Windows 8";"Rachel's Experiment (D.T.)";"1.0";"2";"1";"1";"2";"1";"1";"2014-08-06 17:36:56.513";"2014-08-06 17:50:56.471";"1";"1";"1";"168";"167";"module.devaluation_block1.exec-4111.deval1";"7746";"2014-08-06 17:48:28.086";"13";"5";"6";"6";"1969";"1098";"1658";"2014-08-06 17:48:20.339";"2";;;;;;;;;;;;;;;;;;;;;;;;;;;;;;;;;;;;;;;;;;;;;;;;;;;;;;;;;;;;;;;;;;;;;;;;;;;;;;;;
"summer1";;;"Windows 8";"Rachel's Experiment (D.T.)";"1.0";"2";"1";"1";"2";"1";"1";"2014-08-06 17:36:56.513";"2014-08-06 17:50:56.471";"1";"1";"1";"169";"168";"module.devaluation_block1.exec-4111.deval1";"6066";"2014-08-06 17:48:34.188";"15";"2";"1";"2";"1233";"834";"978";"2014-08-06 17:48:28.122";"2";;;;;;;;;;;;;;;;;;;;;;;;;;;;;;;;;;;;;;;;;;;;;;;;;;;;;;;;;;;;;;;;;;;;;;;;;;;;;;;;
"summer1";;;"Windows 8";"Rachel's Experiment (D.T.)";"1.0";"2";"1";"1";"2";"1";"1";"2014-08-06 17:36:56.513";"2014-08-06 17:50:56.471";"1";"1";"1";"170";"169";"module.devaluation_block1.exec-4111.deval1";"7322";"2014-08-06 17:48:41.551";"25";"8";"8";"9";"1893";"1003";"1405";"2014-08-06 17:48:34.229";"3";;;;;;;;;;;;;;;;;;;;;;;;;;;;;;;;;;;;;;;;;;;;;;;;;;;;;;;;;;;;;;;;;;;;;;;;;;;;;;;;
"summer1";;;"Windows 8";"Rachel's Experiment (D.T.)";"1.0";"2";"1";"1";"2";"1";"1";"2014-08-06 17:36:56.513";"2014-08-06 17:50:56.471";"1";"1";"1";"171";"170";"module.devaluation_block1.exec-4111.deval1";"6972";"2014-08-06 17:48:48.562";"3";"9";"9";"9";"1509";"1272";"1168";"2014-08-06 17:48:41.589";"1";;;;;;;;;;;;;;;;;;;;;;;;;;;;;;;;;;;;;;;;;;;;;;;;;;;;;;;;;;;;;;;;;;;;;;;;;;;;;;;;
"summer1";;;"Windows 8";"Rachel's Experiment (D.T.)";"1.0";"2";"1";"1";"2";"1";"1";"2014-08-06 17:36:56.513";"2014-08-06 17:50:56.471";"1";"1";"1";"172";"171";"module.devaluation_block1.exec-4111.deval1";"5381";"2014-08-06 17:48:53.983";"19";"7";"7";"7";"951";"710";"700";"2014-08-06 17:48:48.601";"3";;;;;;;;;;;;;;;;;;;;;;;;;;;;;;;;;;;;;;;;;;;;;;;;;;;;;;;;;;;;;;;;;;;;;;;;;;;;;;;;
"summer1";;;"Windows 8";"Rachel's Experiment (D.T.)";"1.0";"2";"1";"1";"2";"1";"1";"2014-08-06 17:36:56.513";"2014-08-06 17:50:56.471";"1";"1";"1";"173";"172";"module.devaluation_block1.exec-4111.deval1";"7537";"2014-08-06 17:49:01.561";"20";"4";"3";"4";"1009";"1148";"2359";"2014-08-06 17:48:54.023";"3";;;;;;;;;;;;;;;;;;;;;;;;;;;;;;;;;;;;;;;;;;;;;;;;;;;;;;;;;;;;;;;;;;;;;;;;;;;;;;;;
"summer1";;;"Windows 8";"Rachel's Experiment (D.T.)";"1.0";"2";"1";"1";"2";"1";"1";"2014-08-06 17:36:56.513";"2014-08-06 17:50:56.471";"1";"1";"1";"174";"173";"module.devaluation_block1.exec-4111.deval1";"6513";"2014-08-06 17:49:08.110";"2";"7";"8";"8";"1591";"899";"1003";"2014-08-06 17:49:01.597";"1";;;;;;;;;;;;;;;;;;;;;;;;;;;;;;;;;;;;;;;;;;;;;;;;;;;;;;;;;;;;;;;;;;;;;;;;;;;;;;;;
"summer1";;;"Windows 8";"Rachel's Experiment (D.T.)";"1.0";"2";"1";"1";"2";"1";"1";"2014-08-06 17:36:56.513";"2014-08-06 17:50:56.471";"1";"1";"1";"175";"174";"module.devaluation_block1.exec-4111.deval1";"7015";"2014-08-06 17:49:15.166";"0";"9";"9";"9";"1592";"1267";"1137";"2014-08-06 17:49:08.150";"1";;;;;;;;;;;;;;;;;;;;;;;;;;;;;;;;;;;;;;;;;;;;;;;;;;;;;;;;;;;;;;;;;;;;;;;;;;;;;;;;
"summer1";;;"Windows 8";"Rachel's Experiment (D.T.)";"1.0";"2";"1";"1";"2";"1";"1";"2014-08-06 17:36:56.513";"2014-08-06 17:50:56.471";"1";"1";"1";"176";"175";"module.devaluation_block1.exec-4111.deval1";"7157";"2014-08-06 17:49:22.352";"8";"9";"9";"9";"1309";"1440";"1386";"2014-08-06 17:49:15.194";"1";;;;;;;;;;;;;;;;;;;;;;;;;;;;;;;;;;;;;;;;;;;;;;;;;;;;;;;;;;;;;;;;;;;;;;;;;;;;;;;;
"summer1";;;"Windows 8";"Rachel's Experiment (D.T.)";"1.0";"2";"1";"1";"2";"1";"1";"2014-08-06 17:36:56.513";"2014-08-06 17:50:56.471";"1";"1";"1";"177";"176";"module.devaluation_block1.exec-4111.deval1";"6459";"2014-08-06 17:49:28.846";"22";"9";"9";"9";"1278";"1078";"1083";"2014-08-06 17:49:22.387";"3";;;;;;;;;;;;;;;;;;;;;;;;;;;;;;;;;;;;;;;;;;;;;;;;;;;;;;;;;;;;;;;;;;;;;;;;;;;;;;;;
"summer1";;;"Windows 8";"Rachel's Experiment (D.T.)";"1.0";"2";"1";"1";"2";"1";"1";"2014-08-06 17:36:56.513";"2014-08-06 17:50:56.471";"1";"1";"1";"178";"177";"module.devaluation_block1.exec-4111.deval1";"6793";"2014-08-06 17:49:35.678";"17";"2";"1";"2";"1558";"1013";"1203";"2014-08-06 17:49:28.884";"2";;;;;;;;;;;;;;;;;;;;;;;;;;;;;;;;;;;;;;;;;;;;;;;;;;;;;;;;;;;;;;;;;;;;;;;;;;;;;;;;
"summer1";;;"Windows 8";"Rachel's Experiment (D.T.)";"1.0";"2";"1";"1";"2";"1";"1";"2014-08-06 17:36:56.513";"2014-08-06 17:50:56.471";"1";"1";"1";"179";"178";"module.devaluation_block1.exec-4111.deval1";"6689";"2014-08-06 17:49:42.402";"11";"1";"1";"1";"1528";"1024";"1118";"2014-08-06 17:49:35.712";"2";;;;;;;;;;;;;;;;;;;;;;;;;;;;;;;;;;;;;;;;;;;;;;;;;;;;;;;;;;;;;;;;;;;;;;;;;;;;;;;;
"summer1";;;"Windows 8";"Rachel's Experiment (D.T.)";"1.0";"2";"1";"1";"2";"1";"1";"2014-08-06 17:36:56.513";"2014-08-06 17:50:56.471";"1";"1";"1";"180";"179";"module.devaluation_block1.exec-4111.deval1";"6437";"2014-08-06 17:49:48.881";"4";"9";"9";"9";"1147";"1087";"1177";"2014-08-06 17:49:42.443";"1";;;;;;;;;;;;;;;;;;;;;;;;;;;;;;;;;;;;;;;;;;;;;;;;;;;;;;;;;;;;;;;;;;;;;;;;;;;;;;;;
"summer1";;;"Windows 8";"Rachel's Experiment (D.T.)";"1.0";"2";"1";"1";"2";"1";"1";"2014-08-06 17:36:56.513";"2014-08-06 17:50:56.471";"1";"1";"1";"181";"180";"module.devaluation_block1.exec-4111.deval1";"5681";"2014-08-06 17:49:54.595";"23";"7";"7";"7";"1276";"825";"562";"2014-08-06 17:49:48.914";"3";;;;;;;;;;;;;;;;;;;;;;;;;;;;;;;;;;;;;;;;;;;;;;;;;;;;;;;;;;;;;;;;;;;;;;;;;;;;;;;;
"summer1";;;"Windows 8";"Rachel's Experiment (D.T.)";"1.0";"2";"1";"1";"2";"1";"1";"2014-08-06 17:36:56.513";"2014-08-06 17:50:56.471";"1";"1";"1";"182";"181";"module.devaluation_block1.exec-4111.deval1";"6351";"2014-08-06 17:50:00.985";"5";"9";"9";"9";"1296";"1045";"994";"2014-08-06 17:49:54.633";"1";;;;;;;;;;;;;;;;;;;;;;;;;;;;;;;;;;;;;;;;;;;;;;;;;;;;;;;;;;;;;;;;;;;;;;;;;;;;;;;;
"summer1";;;"Windows 8";"Rachel's Experiment (D.T.)";"1.0";"2";"1";"1";"2";"1";"1";"2014-08-06 17:36:56.513";"2014-08-06 17:50:56.471";"1";"1";"1";"183";"182";"module.devaluation_block1.exec-4111.deval1";"8583";"2014-08-06 17:50:09.605";"9";"4";"2";"5";"2286";"1103";"2177";"2014-08-06 17:50:01.022";"2";;;;;;;;;;;;;;;;;;;;;;;;;;;;;;;;;;;;;;;;;;;;;;;;;;;;;;;;;;;;;;;;;;;;;;;;;;;;;;;;
"summer1";;;"Windows 8";"Rachel's Experiment (D.T.)";"1.0";"2";"1";"1";"2";"1";"1";"2014-08-06 17:36:56.513";"2014-08-06 17:50:56.471";"1";"1";"1";"184";"183";"module.devaluation_block1.exec-4111.deval1";"6937";"2014-08-06 17:50:16.576";"7";"8";"8";"7";"1067";"1426";"1426";"2014-08-06 17:50:09.638";"1";;;;;;;;;;;;;;;;;;;;;;;;;;;;;;;;;;;;;;;;;;;;;;;;;;;;;;;;;;;;;;;;;;;;;;;;;;;;;;;;
"summer1";;;"Windows 8";"Rachel's Experiment (D.T.)";"1.0";"2";"1";"1";"2";"1";"1";"2014-08-06 17:36:56.513";"2014-08-06 17:50:56.471";"1";"1";"1";"185";"184";"module.devaluation_block1.exec-4111.deval1";"6466";"2014-08-06 17:50:23.081";"12";"5";"3";"5";"981";"1676";"791";"2014-08-06 17:50:16.615";"2";;;;;;;;;;;;;;;;;;;;;;;;;;;;;;;;;;;;;;;;;;;;;;;;;;;;;;;;;;;;;;;;;;;;;;;;;;;;;;;;
"summer1";;;"Windows 8";"Rachel's Experiment (D.T.)";"1.0";"2";"1";"1";"2";"1";"1";"2014-08-06 17:36:56.513";"2014-08-06 17:50:56.471";"1";"1";"1";"186";"185";"module.devaluation_block1.exec-4111.deval1";"6933";"2014-08-06 17:50:30.054";"16";"2";"1";"2";"1474";"1447";"996";"2014-08-06 17:50:23.120";"2";;;;;;;;;;;;;;;;;;;;;;;;;;;;;;;;;;;;;;;;;;;;;;;;;;;;;;;;;;;;;;;;;;;;;;;;;;;;;;;;
"summer1";;;"Windows 8";"Rachel's Experiment (D.T.)";"1.0";"2";"1";"1";"2";"1";"1";"2014-08-06 17:36:56.513";"2014-08-06 17:50:56.471";"1";"1";"1";"187";"186";"module.devaluation_block1.exec-4111.deval1";"6107";"2014-08-06 17:50:36.199";"1";"8";"8";"8";"977";"915";"1194";"2014-08-06 17:50:30.091";"1";;;;;;;;;;;;;;;;;;;;;;;;;;;;;;;;;;;;;;;;;;;;;;;;;;;;;;;;;;;;;;;;;;;;;;;;;;;;;;;;
"summer1";;;"Windows 8";"Rachel's Experiment (D.T.)";"1.0";"2";"1";"1";"2";"1";"1";"2014-08-06 17:36:56.513";"2014-08-06 17:50:56.471";"1";"1";"1";"188";"187";"module.devaluation_block1.exec-4111.deval1";"5863";"2014-08-06 17:50:42.093";"14";"6";"6";"6";"851";"1274";"721";"2014-08-06 17:50:36.230";"2";;;;;;;;;;;;;;;;;;;;;;;;;;;;;;;;;;;;;;;;;;;;;;;;;;;;;;;;;;;;;;;;;;;;;;;;;;;;;;;;
"summer1";;;"Windows 8";"Rachel's Experiment (D.T.)";"1.0";"2";"1";"1";"2";"1";"1";"2014-08-06 17:36:56.513";"2014-08-06 17:50:56.471";"1";"1";"1";"189";"188";"module.devaluation_block1.exec-4111.deval1";"5689";"2014-08-06 17:50:47.817";"26";"8";"8";"8";"1175";"772";"727";"2014-08-06 17:50:42.128";"3";;;;;;;;;;;;;;;;;;;;;;;;;;;;;;;;;;;;;;;;;;;;;;;;;;;;;;;;;;;;;;;;;;;;;;;;;;;;;;;;
"summer1";;;"Windows 8";"Rachel's Experiment (D.T.)";"1.0";"2";"1";"1";"2";"1";"1";"2014-08-06 17:36:56.513";"2014-08-06 17:50:56.471";"1";"1";"1";"190";"189";"module.devaluation_block1.exec-4111.deval1";"6254";"2014-08-06 17:50:54.108";"24";"9";"9";"9";"953";"1154";"1128";"2014-08-06 17:50:47.854";"3";;;;;;;;;;;;;;;;;;;;;;;;;;;;;;;;;;;;;;;;;;;;;;;;;;;;;;;;;;;;;;;;;;;;;;;;;;;;;;;;
