"user.name";"user.yearOfBirth";"user.sex";"user.osName";"module.name";"module.version";"module.online.subject.code";"module.online.study.id";"module.online.module.nr";"module.online.group.nr";"session.id";"session.index";"session.startTime";"session.endTime";"session.completed";"session.node-3875.conditionType";"session.node-4271.DevalQorder";"trial.id";"trial.index";"trial.name";"trial.deval1.durationTime";"trial.deval1.endTime";"trial.deval1.icon";"trial.deval1.Resp_Attractive";"trial.deval1.Resp_Eat";"trial.deval1.Resp_Taste";"trial.deval1.RT_Attractive";"trial.deval1.RT_Eat";"trial.deval1.RT_Taste";"trial.deval1.startTime";"trial.deval1.stimulus type";"trial.devalPractice.durationTime";"trial.devalPractice.endTime";"trial.devalPractice.icon";"trial.devalPractice.Resp_Attractive";"trial.devalPractice.Resp_Eat";"trial.devalPractice.Resp_Taste";"trial.devalPractice.RT_Attractive";"trial.devalPractice.RT_Eat";"trial.devalPractice.RT_Taste";"trial.devalPractice.startTime";"trial.devalPractice.stimulus type";"trial.GoNoGo1.durationTime";"trial.GoNoGo1.endTime";"trial.GoNoGo1.Error Type";"trial.GoNoGo1.icon";"trial.GoNoGo1.location";"trial.GoNoGo1.outcome";"trial.GoNoGo1.response";"trial.GoNoGo1.result";"trial.GoNoGo1.RT";"trial.GoNoGo1.signal";"trial.GoNoGo1.startTime";"trial.GoNoGo1.stimulus type";"trial.GoNoGo2.durationTime";"trial.GoNoGo2.endTime";"trial.GoNoGo2.Error Type";"trial.GoNoGo2.icon";"trial.GoNoGo2.location";"trial.GoNoGo2.outcome";"trial.GoNoGo2.response";"trial.GoNoGo2.result";"trial.GoNoGo2.RT";"trial.GoNoGo2.signal";"trial.GoNoGo2.startTime";"trial.GoNoGo2.stimulus type";"trial.GoNoGo3.durationTime";"trial.GoNoGo3.endTime";"trial.GoNoGo3.Error Type";"trial.GoNoGo3.icon";"trial.GoNoGo3.location";"trial.GoNoGo3.outcome";"trial.GoNoGo3.response";"trial.GoNoGo3.result";"trial.GoNoGo3.RT";"trial.GoNoGo3.signal";"trial.GoNoGo3.startTime";"trial.GoNoGo3.stimulus type";"trial.GoNoGo4.durationTime";"trial.GoNoGo4.endTime";"trial.GoNoGo4.Error Type";"trial.GoNoGo4.icon";"trial.GoNoGo4.location";"trial.GoNoGo4.outcome";"trial.GoNoGo4.response";"trial.GoNoGo4.result";"trial.GoNoGo4.RT";"trial.GoNoGo4.signal";"trial.GoNoGo4.startTime";"trial.GoNoGo4.stimulus type";"trial.GoNoGo_Practice.durationTime";"trial.GoNoGo_Practice.endTime";"trial.GoNoGo_Practice.icon";"trial.GoNoGo_Practice.location";"trial.GoNoGo_Practice.outcome";"trial.GoNoGo_Practice.response";"trial.GoNoGo_Practice.result";"trial.GoNoGo_Practice.RT";"trial.GoNoGo_Practice.signal";"trial.GoNoGo_Practice.startTime";"trial.GoNoGo_Practice.stimulus type";"trial.GoNoGo_Tutorial.durationTime";"trial.GoNoGo_Tutorial.endTime";"trial.GoNoGo_Tutorial.icon";"trial.GoNoGo_Tutorial.location";"trial.GoNoGo_Tutorial.outcome";"trial.GoNoGo_Tutorial.response";"trial.GoNoGo_Tutorial.result";"trial.GoNoGo_Tutorial.RT";"trial.GoNoGo_Tutorial.signal";"trial.GoNoGo_Tutorial.startTime"
"1421980";"1995";;"Windows 7";"Rachel's Experiment (D.T.)";"1.0";"2";"1";"1";"2";"1";"1";"2014-10-13 14:37:06.220";"2014-10-13 14:52:49.764";"1";"1";"0";"1";"0";"module.GoNoGotutorial.exec-8443.GoNoGo_Tutorial";;;;;;;;;;;;;;;;;;;;;;;;;;;;;;;;;;;;;;;;;;;;;;;;;;;;;;;;;;;;;;;;;;;;;;;;;;;;;;;;;;"4001";"2014-10-13 14:38:21.623";"leftResponse";"0";"FINISHED";"LEFT";"success";"893";"0";"2014-10-13 14:38:17.621"
"1421980";"1995";;"Windows 7";"Rachel's Experiment (D.T.)";"1.0";"2";"1";"1";"2";"1";"1";"2014-10-13 14:37:06.220";"2014-10-13 14:52:49.764";"1";"1";"0";"2";"1";"module.GoNoGotutorial.exec-8443.GoNoGo_Tutorial";;;;;;;;;;;;;;;;;;;;;;;;;;;;;;;;;;;;;;;;;;;;;;;;;;;;;;;;;;;;;;;;;;;;;;;;;;;;;;;;;;"4000";"2014-10-13 14:38:26.983";"rightResponse";"1";"FINISHED";"RIGHT";"success";"1023";"0";"2014-10-13 14:38:22.983"
"1421980";"1995";;"Windows 7";"Rachel's Experiment (D.T.)";"1.0";"2";"1";"1";"2";"1";"1";"2014-10-13 14:37:06.220";"2014-10-13 14:52:49.764";"1";"1";"0";"3";"2";"module.GoNoGotutorial.exec-8443.GoNoGo_Tutorial";;;;;;;;;;;;;;;;;;;;;;;;;;;;;;;;;;;;;;;;;;;;;;;;;;;;;;;;;;;;;;;;;;;;;;;;;;;;;;;;;;"4000";"2014-10-13 14:38:32.334";"signalResponse";"0";"FINISHED";"NONE";"success";"0";"1";"2014-10-13 14:38:28.333"
"1421980";"1995";;"Windows 7";"Rachel's Experiment (D.T.)";"1.0";"2";"1";"1";"2";"1";"1";"2014-10-13 14:37:06.220";"2014-10-13 14:52:49.764";"1";"1";"0";"4";"3";"module.GoNoGopractice.exec-7202.GoNoGo_Practice";;;;;;;;;;;;;;;;;;;;;;;;;;;;;;;;;;;;;;;;;;;;;;;;;;;;;;;;;;;;;;;;;;;;;;;"1961";"2014-10-13 14:40:18.195";"18";"0";"FINISHED";"LEFT";"success";"543";"0";"2014-10-13 14:40:16.233";"3";;;;;;;;;;
"1421980";"1995";;"Windows 7";"Rachel's Experiment (D.T.)";"1.0";"2";"1";"1";"2";"1";"1";"2014-10-13 14:37:06.220";"2014-10-13 14:52:49.764";"1";"1";"0";"5";"4";"module.GoNoGopractice.exec-7202.GoNoGo_Practice";;;;;;;;;;;;;;;;;;;;;;;;;;;;;;;;;;;;;;;;;;;;;;;;;;;;;;;;;;;;;;;;;;;;;;;"1951";"2014-10-13 14:40:21.471";"21";"1";"FINISHED";"RIGHT";"success";"507";"0";"2014-10-13 14:40:19.519";"3";;;;;;;;;;
"1421980";"1995";;"Windows 7";"Rachel's Experiment (D.T.)";"1.0";"2";"1";"1";"2";"1";"1";"2014-10-13 14:37:06.220";"2014-10-13 14:52:49.764";"1";"1";"0";"6";"5";"module.GoNoGopractice.exec-7202.GoNoGo_Practice";;;;;;;;;;;;;;;;;;;;;;;;;;;;;;;;;;;;;;;;;;;;;;;;;;;;;;;;;;;;;;;;;;;;;;;"1959";"2014-10-13 14:40:24.750";"14";"1";"FINISHED";"RIGHT";"failure";"534";"1";"2014-10-13 14:40:22.790";"2";;;;;;;;;;
"1421980";"1995";;"Windows 7";"Rachel's Experiment (D.T.)";"1.0";"2";"1";"1";"2";"1";"1";"2014-10-13 14:37:06.220";"2014-10-13 14:52:49.764";"1";"1";"0";"7";"6";"module.GoNoGopractice.exec-7202.GoNoGo_Practice";;;;;;;;;;;;;;;;;;;;;;;;;;;;;;;;;;;;;;;;;;;;;;;;;;;;;;;;;;;;;;;;;;;;;;;"1952";"2014-10-13 14:40:28.028";"26";"0";"FINISHED";"LEFT";"success";"544";"0";"2014-10-13 14:40:26.076";"3";;;;;;;;;;
"1421980";"1995";;"Windows 7";"Rachel's Experiment (D.T.)";"1.0";"2";"1";"1";"2";"1";"1";"2014-10-13 14:37:06.220";"2014-10-13 14:52:49.764";"1";"1";"0";"8";"7";"module.GoNoGopractice.exec-7202.GoNoGo_Practice";;;;;;;;;;;;;;;;;;;;;;;;;;;;;;;;;;;;;;;;;;;;;;;;;;;;;;;;;;;;;;;;;;;;;;;"1952";"2014-10-13 14:40:31.300";"2";"0";"FINISHED";"LEFT";"success";"516";"0";"2014-10-13 14:40:29.348";"1";;;;;;;;;;
"1421980";"1995";;"Windows 7";"Rachel's Experiment (D.T.)";"1.0";"2";"1";"1";"2";"1";"1";"2014-10-13 14:37:06.220";"2014-10-13 14:52:49.764";"1";"1";"0";"9";"8";"module.GoNoGopractice.exec-7202.GoNoGo_Practice";;;;;;;;;;;;;;;;;;;;;;;;;;;;;;;;;;;;;;;;;;;;;;;;;;;;;;;;;;;;;;;;;;;;;;;"1960";"2014-10-13 14:40:34.871";"30";"0";"FINISHED";"LEFT";"failure";"515";"1";"2014-10-13 14:40:32.910";"3";;;;;;;;;;
"1421980";"1995";;"Windows 7";"Rachel's Experiment (D.T.)";"1.0";"2";"1";"1";"2";"1";"1";"2014-10-13 14:37:06.220";"2014-10-13 14:52:49.764";"1";"1";"0";"10";"9";"module.GoNoGopractice.exec-7202.GoNoGo_Practice";;;;;;;;;;;;;;;;;;;;;;;;;;;;;;;;;;;;;;;;;;;;;;;;;;;;;;;;;;;;;;;;;;;;;;;"1959";"2014-10-13 14:40:38.148";"6";"1";"FINISHED";"NONE";"success";"0";"1";"2014-10-13 14:40:36.189";"1";;;;;;;;;;
"1421980";"1995";;"Windows 7";"Rachel's Experiment (D.T.)";"1.0";"2";"1";"1";"2";"1";"1";"2014-10-13 14:37:06.220";"2014-10-13 14:52:49.764";"1";"1";"0";"11";"10";"module.GoNoGopractice.exec-7202.GoNoGo_Practice";;;;;;;;;;;;;;;;;;;;;;;;;;;;;;;;;;;;;;;;;;;;;;;;;;;;;;;;;;;;;;;;;;;;;;;"1957";"2014-10-13 14:40:41.421";"34";"0";"FINISHED";"LEFT";"success";"537";"0";"2014-10-13 14:40:39.463";"3";;;;;;;;;;
"1421980";"1995";;"Windows 7";"Rachel's Experiment (D.T.)";"1.0";"2";"1";"1";"2";"1";"1";"2014-10-13 14:37:06.220";"2014-10-13 14:52:49.764";"1";"1";"0";"12";"11";"module.GoNoGopractice.exec-7202.GoNoGo_Practice";;;;;;;;;;;;;;;;;;;;;;;;;;;;;;;;;;;;;;;;;;;;;;;;;;;;;;;;;;;;;;;;;;;;;;;"1954";"2014-10-13 14:40:44.689";"23";"1";"FINISHED";"RIGHT";"success";"562";"0";"2014-10-13 14:40:42.734";"3";;;;;;;;;;
"1421980";"1995";;"Windows 7";"Rachel's Experiment (D.T.)";"1.0";"2";"1";"1";"2";"1";"1";"2014-10-13 14:37:06.220";"2014-10-13 14:52:49.764";"1";"1";"0";"13";"12";"module.GoNoGopractice.exec-7202.GoNoGo_Practice";;;;;;;;;;;;;;;;;;;;;;;;;;;;;;;;;;;;;;;;;;;;;;;;;;;;;;;;;;;;;;;;;;;;;;;"1951";"2014-10-13 14:40:47.960";"13";"0";"FINISHED";"NONE";"success";"0";"1";"2014-10-13 14:40:46.008";"2";;;;;;;;;;
"1421980";"1995";;"Windows 7";"Rachel's Experiment (D.T.)";"1.0";"2";"1";"1";"2";"1";"1";"2014-10-13 14:37:06.220";"2014-10-13 14:52:49.764";"1";"1";"0";"14";"13";"module.GoNoGopractice.exec-7202.GoNoGo_Practice";;;;;;;;;;;;;;;;;;;;;;;;;;;;;;;;;;;;;;;;;;;;;;;;;;;;;;;;;;;;;;;;;;;;;;;"1951";"2014-10-13 14:40:51.234";"3";"1";"FINISHED";"RIGHT";"success";"601";"0";"2014-10-13 14:40:49.282";"1";;;;;;;;;;
"1421980";"1995";;"Windows 7";"Rachel's Experiment (D.T.)";"1.0";"2";"1";"1";"2";"1";"1";"2014-10-13 14:37:06.220";"2014-10-13 14:52:49.764";"1";"1";"0";"15";"14";"module.GoNoGopractice.exec-7202.GoNoGo_Practice";;;;;;;;;;;;;;;;;;;;;;;;;;;;;;;;;;;;;;;;;;;;;;;;;;;;;;;;;;;;;;;;;;;;;;;"1951";"2014-10-13 14:40:54.499";"27";"1";"FINISHED";"NONE";"success";"0";"1";"2014-10-13 14:40:52.547";"3";;;;;;;;;;
"1421980";"1995";;"Windows 7";"Rachel's Experiment (D.T.)";"1.0";"2";"1";"1";"2";"1";"1";"2014-10-13 14:37:06.220";"2014-10-13 14:52:49.764";"1";"1";"0";"16";"15";"module.training_block1.exec-1094.GoNoGo1";;;;;;;;;;;;;;;;;;;;;;;"1251";"2014-10-13 14:41:14.230";"NST_correctLoc";"29";"1";"FINISHED";"RIGHT";"success";"683";"0";"2014-10-13 14:41:12.978";"3";;;;;;;;;;;;;;;;;;;;;;;;;;;;;;;;;;;;;;;;;;;;;;;;;;;;;;;;;
"1421980";"1995";;"Windows 7";"Rachel's Experiment (D.T.)";"1.0";"2";"1";"1";"2";"1";"1";"2014-10-13 14:37:06.220";"2014-10-13 14:52:49.764";"1";"1";"0";"17";"16";"module.training_block1.exec-1094.GoNoGo1";;;;;;;;;;;;;;;;;;;;;;;"1250";"2014-10-13 14:41:16.801";"NST_correctLoc";"9";"0";"FINISHED";"LEFT";"success";"727";"0";"2014-10-13 14:41:15.551";"2";;;;;;;;;;;;;;;;;;;;;;;;;;;;;;;;;;;;;;;;;;;;;;;;;;;;;;;;;
"1421980";"1995";;"Windows 7";"Rachel's Experiment (D.T.)";"1.0";"2";"1";"1";"2";"1";"1";"2014-10-13 14:37:06.220";"2014-10-13 14:52:49.764";"1";"1";"0";"18";"17";"module.training_block1.exec-1094.GoNoGo1";;;;;;;;;;;;;;;;;;;;;;;"1249";"2014-10-13 14:41:19.356";"NST_correctLoc";"30";"0";"FINISHED";"LEFT";"success";"694";"0";"2014-10-13 14:41:18.106";"3";;;;;;;;;;;;;;;;;;;;;;;;;;;;;;;;;;;;;;;;;;;;;;;;;;;;;;;;;
"1421980";"1995";;"Windows 7";"Rachel's Experiment (D.T.)";"1.0";"2";"1";"1";"2";"1";"1";"2014-10-13 14:37:06.220";"2014-10-13 14:52:49.764";"1";"1";"0";"19";"18";"module.training_block1.exec-1094.GoNoGo1";;;;;;;;;;;;;;;;;;;;;;;"1250";"2014-10-13 14:41:21.921";"NST_correctLoc";"14";"1";"FINISHED";"RIGHT";"success";"711";"0";"2014-10-13 14:41:20.671";"2";;;;;;;;;;;;;;;;;;;;;;;;;;;;;;;;;;;;;;;;;;;;;;;;;;;;;;;;;
"1421980";"1995";;"Windows 7";"Rachel's Experiment (D.T.)";"1.0";"2";"1";"1";"2";"1";"1";"2014-10-13 14:37:06.220";"2014-10-13 14:52:49.764";"1";"1";"0";"20";"19";"module.training_block1.exec-1094.GoNoGo1";;;;;;;;;;;;;;;;;;;;;;;"1250";"2014-10-13 14:41:24.476";"NST_correctLoc";"13";"1";"FINISHED";"RIGHT";"success";"658";"0";"2014-10-13 14:41:23.225";"2";;;;;;;;;;;;;;;;;;;;;;;;;;;;;;;;;;;;;;;;;;;;;;;;;;;;;;;;;
"1421980";"1995";;"Windows 7";"Rachel's Experiment (D.T.)";"1.0";"2";"1";"1";"2";"1";"1";"2014-10-13 14:37:06.220";"2014-10-13 14:52:49.764";"1";"1";"0";"21";"20";"module.training_block1.exec-1094.GoNoGo1";;;;;;;;;;;;;;;;;;;;;;;"1249";"2014-10-13 14:41:27.028";"ST_correctStop";"3";"0";"FINISHED";"NONE";"success";"0";"1";"2014-10-13 14:41:25.778";"1";;;;;;;;;;;;;;;;;;;;;;;;;;;;;;;;;;;;;;;;;;;;;;;;;;;;;;;;;
"1421980";"1995";;"Windows 7";"Rachel's Experiment (D.T.)";"1.0";"2";"1";"1";"2";"1";"1";"2014-10-13 14:37:06.220";"2014-10-13 14:52:49.764";"1";"1";"0";"22";"21";"module.training_block1.exec-1094.GoNoGo1";;;;;;;;;;;;;;;;;;;;;;;"1249";"2014-10-13 14:41:29.601";"NST_correctLoc";"19";"1";"FINISHED";"RIGHT";"success";"580";"0";"2014-10-13 14:41:28.351";"3";;;;;;;;;;;;;;;;;;;;;;;;;;;;;;;;;;;;;;;;;;;;;;;;;;;;;;;;;
"1421980";"1995";;"Windows 7";"Rachel's Experiment (D.T.)";"1.0";"2";"1";"1";"2";"1";"1";"2014-10-13 14:37:06.220";"2014-10-13 14:52:49.764";"1";"1";"0";"23";"22";"module.training_block1.exec-1094.GoNoGo1";;;;;;;;;;;;;;;;;;;;;;;"1249";"2014-10-13 14:41:32.162";"ST_correctStop";"0";"0";"FINISHED";"NONE";"success";"0";"1";"2014-10-13 14:41:30.912";"1";;;;;;;;;;;;;;;;;;;;;;;;;;;;;;;;;;;;;;;;;;;;;;;;;;;;;;;;;
"1421980";"1995";;"Windows 7";"Rachel's Experiment (D.T.)";"1.0";"2";"1";"1";"2";"1";"1";"2014-10-13 14:37:06.220";"2014-10-13 14:52:49.764";"1";"1";"0";"24";"23";"module.training_block1.exec-1094.GoNoGo1";;;;;;;;;;;;;;;;;;;;;;;"1249";"2014-10-13 14:41:34.721";"ST_correctStop";"25";"1";"FINISHED";"NONE";"success";"0";"1";"2014-10-13 14:41:33.471";"3";;;;;;;;;;;;;;;;;;;;;;;;;;;;;;;;;;;;;;;;;;;;;;;;;;;;;;;;;
"1421980";"1995";;"Windows 7";"Rachel's Experiment (D.T.)";"1.0";"2";"1";"1";"2";"1";"1";"2014-10-13 14:37:06.220";"2014-10-13 14:52:49.764";"1";"1";"0";"25";"24";"module.training_block1.exec-1094.GoNoGo1";;;;;;;;;;;;;;;;;;;;;;;"1249";"2014-10-13 14:41:37.273";"ST_correctStop";"27";"0";"FINISHED";"NONE";"success";"0";"1";"2014-10-13 14:41:36.023";"3";;;;;;;;;;;;;;;;;;;;;;;;;;;;;;;;;;;;;;;;;;;;;;;;;;;;;;;;;
"1421980";"1995";;"Windows 7";"Rachel's Experiment (D.T.)";"1.0";"2";"1";"1";"2";"1";"1";"2014-10-13 14:37:06.220";"2014-10-13 14:52:49.764";"1";"1";"0";"26";"25";"module.training_block1.exec-1094.GoNoGo1";;;;;;;;;;;;;;;;;;;;;;;"1250";"2014-10-13 14:41:39.836";"ST_correctStop";"8";"1";"FINISHED";"NONE";"success";"0";"1";"2014-10-13 14:41:38.586";"1";;;;;;;;;;;;;;;;;;;;;;;;;;;;;;;;;;;;;;;;;;;;;;;;;;;;;;;;;
"1421980";"1995";;"Windows 7";"Rachel's Experiment (D.T.)";"1.0";"2";"1";"1";"2";"1";"1";"2014-10-13 14:37:06.220";"2014-10-13 14:52:49.764";"1";"1";"0";"27";"26";"module.training_block1.exec-1094.GoNoGo1";;;;;;;;;;;;;;;;;;;;;;;"1249";"2014-10-13 14:41:42.395";"ST_correctStop";"1";"1";"FINISHED";"NONE";"success";"0";"1";"2014-10-13 14:41:41.144";"1";;;;;;;;;;;;;;;;;;;;;;;;;;;;;;;;;;;;;;;;;;;;;;;;;;;;;;;;;
"1421980";"1995";;"Windows 7";"Rachel's Experiment (D.T.)";"1.0";"2";"1";"1";"2";"1";"1";"2014-10-13 14:37:06.220";"2014-10-13 14:52:49.764";"1";"1";"0";"28";"27";"module.training_block1.exec-1094.GoNoGo1";;;;;;;;;;;;;;;;;;;;;;;"1249";"2014-10-13 14:41:44.951";"ST_correctStop";"5";"0";"FINISHED";"NONE";"success";"0";"1";"2014-10-13 14:41:43.701";"1";;;;;;;;;;;;;;;;;;;;;;;;;;;;;;;;;;;;;;;;;;;;;;;;;;;;;;;;;
"1421980";"1995";;"Windows 7";"Rachel's Experiment (D.T.)";"1.0";"2";"1";"1";"2";"1";"1";"2014-10-13 14:37:06.220";"2014-10-13 14:52:49.764";"1";"1";"0";"29";"28";"module.training_block1.exec-1094.GoNoGo1";;;;;;;;;;;;;;;;;;;;;;;"1249";"2014-10-13 14:41:47.504";"ST_correctStop";"6";"1";"FINISHED";"NONE";"success";"0";"1";"2014-10-13 14:41:46.254";"1";;;;;;;;;;;;;;;;;;;;;;;;;;;;;;;;;;;;;;;;;;;;;;;;;;;;;;;;;
"1421980";"1995";;"Windows 7";"Rachel's Experiment (D.T.)";"1.0";"2";"1";"1";"2";"1";"1";"2014-10-13 14:37:06.220";"2014-10-13 14:52:49.764";"1";"1";"0";"30";"29";"module.training_block1.exec-1094.GoNoGo1";;;;;;;;;;;;;;;;;;;;;;;"1249";"2014-10-13 14:41:50.060";"ST_correctStop";"18";"1";"FINISHED";"NONE";"success";"0";"1";"2014-10-13 14:41:48.810";"3";;;;;;;;;;;;;;;;;;;;;;;;;;;;;;;;;;;;;;;;;;;;;;;;;;;;;;;;;
"1421980";"1995";;"Windows 7";"Rachel's Experiment (D.T.)";"1.0";"2";"1";"1";"2";"1";"1";"2014-10-13 14:37:06.220";"2014-10-13 14:52:49.764";"1";"1";"0";"31";"30";"module.training_block1.exec-1094.GoNoGo1";;;;;;;;;;;;;;;;;;;;;;;"1249";"2014-10-13 14:41:52.618";"ST_correctStop";"20";"0";"FINISHED";"NONE";"success";"0";"1";"2014-10-13 14:41:51.368";"3";;;;;;;;;;;;;;;;;;;;;;;;;;;;;;;;;;;;;;;;;;;;;;;;;;;;;;;;;
"1421980";"1995";;"Windows 7";"Rachel's Experiment (D.T.)";"1.0";"2";"1";"1";"2";"1";"1";"2014-10-13 14:37:06.220";"2014-10-13 14:52:49.764";"1";"1";"0";"32";"31";"module.training_block1.exec-1094.GoNoGo1";;;;;;;;;;;;;;;;;;;;;;;"1249";"2014-10-13 14:41:55.171";"NST_correctLoc";"12";"0";"FINISHED";"LEFT";"success";"641";"0";"2014-10-13 14:41:53.921";"2";;;;;;;;;;;;;;;;;;;;;;;;;;;;;;;;;;;;;;;;;;;;;;;;;;;;;;;;;
"1421980";"1995";;"Windows 7";"Rachel's Experiment (D.T.)";"1.0";"2";"1";"1";"2";"1";"1";"2014-10-13 14:37:06.220";"2014-10-13 14:52:49.764";"1";"1";"0";"33";"32";"module.training_block1.exec-1094.GoNoGo1";;;;;;;;;;;;;;;;;;;;;;;"1249";"2014-10-13 14:41:57.740";"ST_correctStop";"7";"1";"FINISHED";"NONE";"success";"0";"1";"2014-10-13 14:41:56.490";"1";;;;;;;;;;;;;;;;;;;;;;;;;;;;;;;;;;;;;;;;;;;;;;;;;;;;;;;;;
"1421980";"1995";;"Windows 7";"Rachel's Experiment (D.T.)";"1.0";"2";"1";"1";"2";"1";"1";"2014-10-13 14:37:06.220";"2014-10-13 14:52:49.764";"1";"1";"0";"34";"33";"module.training_block1.exec-1094.GoNoGo1";;;;;;;;;;;;;;;;;;;;;;;"1249";"2014-10-13 14:42:00.296";"ST_correctStop";"33";"1";"FINISHED";"NONE";"success";"0";"1";"2014-10-13 14:41:59.045";"3";;;;;;;;;;;;;;;;;;;;;;;;;;;;;;;;;;;;;;;;;;;;;;;;;;;;;;;;;
"1421980";"1995";;"Windows 7";"Rachel's Experiment (D.T.)";"1.0";"2";"1";"1";"2";"1";"1";"2014-10-13 14:37:06.220";"2014-10-13 14:52:49.764";"1";"1";"0";"35";"34";"module.training_block1.exec-1094.GoNoGo1";;;;;;;;;;;;;;;;;;;;;;;"1250";"2014-10-13 14:42:02.843";"ST_correctStop";"34";"1";"FINISHED";"NONE";"success";"0";"1";"2014-10-13 14:42:01.593";"3";;;;;;;;;;;;;;;;;;;;;;;;;;;;;;;;;;;;;;;;;;;;;;;;;;;;;;;;;
"1421980";"1995";;"Windows 7";"Rachel's Experiment (D.T.)";"1.0";"2";"1";"1";"2";"1";"1";"2014-10-13 14:37:06.220";"2014-10-13 14:52:49.764";"1";"1";"0";"36";"35";"module.training_block1.exec-1094.GoNoGo1";;;;;;;;;;;;;;;;;;;;;;;"1250";"2014-10-13 14:42:05.398";"NST_correctLoc";"31";"1";"FINISHED";"RIGHT";"success";"532";"0";"2014-10-13 14:42:04.148";"3";;;;;;;;;;;;;;;;;;;;;;;;;;;;;;;;;;;;;;;;;;;;;;;;;;;;;;;;;
"1421980";"1995";;"Windows 7";"Rachel's Experiment (D.T.)";"1.0";"2";"1";"1";"2";"1";"1";"2014-10-13 14:37:06.220";"2014-10-13 14:52:49.764";"1";"1";"0";"37";"36";"module.training_block1.exec-1094.GoNoGo1";;;;;;;;;;;;;;;;;;;;;;;"1249";"2014-10-13 14:42:07.968";"ST_correctStop";"32";"0";"FINISHED";"NONE";"success";"0";"1";"2014-10-13 14:42:06.718";"3";;;;;;;;;;;;;;;;;;;;;;;;;;;;;;;;;;;;;;;;;;;;;;;;;;;;;;;;;
"1421980";"1995";;"Windows 7";"Rachel's Experiment (D.T.)";"1.0";"2";"1";"1";"2";"1";"1";"2014-10-13 14:37:06.220";"2014-10-13 14:52:49.764";"1";"1";"0";"38";"37";"module.training_block1.exec-1094.GoNoGo1";;;;;;;;;;;;;;;;;;;;;;;"1249";"2014-10-13 14:42:10.521";"NST_correctLoc";"10";"1";"FINISHED";"RIGHT";"success";"728";"0";"2014-10-13 14:42:09.271";"2";;;;;;;;;;;;;;;;;;;;;;;;;;;;;;;;;;;;;;;;;;;;;;;;;;;;;;;;;
"1421980";"1995";;"Windows 7";"Rachel's Experiment (D.T.)";"1.0";"2";"1";"1";"2";"1";"1";"2014-10-13 14:37:06.220";"2014-10-13 14:52:49.764";"1";"1";"0";"39";"38";"module.training_block1.exec-1094.GoNoGo1";;;;;;;;;;;;;;;;;;;;;;;"1250";"2014-10-13 14:42:13.076";"NST_correctLoc";"15";"1";"FINISHED";"RIGHT";"success";"567";"0";"2014-10-13 14:42:11.826";"2";;;;;;;;;;;;;;;;;;;;;;;;;;;;;;;;;;;;;;;;;;;;;;;;;;;;;;;;;
"1421980";"1995";;"Windows 7";"Rachel's Experiment (D.T.)";"1.0";"2";"1";"1";"2";"1";"1";"2014-10-13 14:37:06.220";"2014-10-13 14:52:49.764";"1";"1";"0";"40";"39";"module.training_block1.exec-1094.GoNoGo1";;;;;;;;;;;;;;;;;;;;;;;"1249";"2014-10-13 14:42:15.630";"ST_correctStop";"28";"0";"FINISHED";"NONE";"success";"0";"1";"2014-10-13 14:42:14.380";"3";;;;;;;;;;;;;;;;;;;;;;;;;;;;;;;;;;;;;;;;;;;;;;;;;;;;;;;;;
"1421980";"1995";;"Windows 7";"Rachel's Experiment (D.T.)";"1.0";"2";"1";"1";"2";"1";"1";"2014-10-13 14:37:06.220";"2014-10-13 14:52:49.764";"1";"1";"0";"41";"40";"module.training_block1.exec-1094.GoNoGo1";;;;;;;;;;;;;;;;;;;;;;;"1250";"2014-10-13 14:42:18.187";"NST_correctLoc";"26";"1";"FINISHED";"RIGHT";"success";"499";"0";"2014-10-13 14:42:16.937";"3";;;;;;;;;;;;;;;;;;;;;;;;;;;;;;;;;;;;;;;;;;;;;;;;;;;;;;;;;
"1421980";"1995";;"Windows 7";"Rachel's Experiment (D.T.)";"1.0";"2";"1";"1";"2";"1";"1";"2014-10-13 14:37:06.220";"2014-10-13 14:52:49.764";"1";"1";"0";"42";"41";"module.training_block1.exec-1094.GoNoGo1";;;;;;;;;;;;;;;;;;;;;;;"1249";"2014-10-13 14:42:20.740";"ST_correctStop";"2";"0";"FINISHED";"NONE";"success";"0";"1";"2014-10-13 14:42:19.490";"1";;;;;;;;;;;;;;;;;;;;;;;;;;;;;;;;;;;;;;;;;;;;;;;;;;;;;;;;;
"1421980";"1995";;"Windows 7";"Rachel's Experiment (D.T.)";"1.0";"2";"1";"1";"2";"1";"1";"2014-10-13 14:37:06.220";"2014-10-13 14:52:49.764";"1";"1";"0";"43";"42";"module.training_block1.exec-1094.GoNoGo1";;;;;;;;;;;;;;;;;;;;;;;"1249";"2014-10-13 14:42:23.295";"NST_correctLoc";"17";"0";"FINISHED";"LEFT";"success";"607";"0";"2014-10-13 14:42:22.045";"2";;;;;;;;;;;;;;;;;;;;;;;;;;;;;;;;;;;;;;;;;;;;;;;;;;;;;;;;;
"1421980";"1995";;"Windows 7";"Rachel's Experiment (D.T.)";"1.0";"2";"1";"1";"2";"1";"1";"2014-10-13 14:37:06.220";"2014-10-13 14:52:49.764";"1";"1";"0";"44";"43";"module.training_block1.exec-1094.GoNoGo1";;;;;;;;;;;;;;;;;;;;;;;"1250";"2014-10-13 14:42:25.840";"NST_correctLoc";"23";"1";"FINISHED";"RIGHT";"success";"836";"0";"2014-10-13 14:42:24.590";"3";;;;;;;;;;;;;;;;;;;;;;;;;;;;;;;;;;;;;;;;;;;;;;;;;;;;;;;;;
"1421980";"1995";;"Windows 7";"Rachel's Experiment (D.T.)";"1.0";"2";"1";"1";"2";"1";"1";"2014-10-13 14:37:06.220";"2014-10-13 14:52:49.764";"1";"1";"0";"45";"44";"module.training_block1.exec-1094.GoNoGo1";;;;;;;;;;;;;;;;;;;;;;;"1249";"2014-10-13 14:42:28.392";"NST_correctLoc";"11";"0";"FINISHED";"LEFT";"success";"760";"0";"2014-10-13 14:42:27.142";"2";;;;;;;;;;;;;;;;;;;;;;;;;;;;;;;;;;;;;;;;;;;;;;;;;;;;;;;;;
"1421980";"1995";;"Windows 7";"Rachel's Experiment (D.T.)";"1.0";"2";"1";"1";"2";"1";"1";"2014-10-13 14:37:06.220";"2014-10-13 14:52:49.764";"1";"1";"0";"46";"45";"module.training_block1.exec-1094.GoNoGo1";;;;;;;;;;;;;;;;;;;;;;;"1249";"2014-10-13 14:42:30.945";"ST_correctStop";"21";"0";"FINISHED";"NONE";"success";"0";"1";"2014-10-13 14:42:29.695";"3";;;;;;;;;;;;;;;;;;;;;;;;;;;;;;;;;;;;;;;;;;;;;;;;;;;;;;;;;
"1421980";"1995";;"Windows 7";"Rachel's Experiment (D.T.)";"1.0";"2";"1";"1";"2";"1";"1";"2014-10-13 14:37:06.220";"2014-10-13 14:52:49.764";"1";"1";"0";"47";"46";"module.training_block1.exec-1094.GoNoGo1";;;;;;;;;;;;;;;;;;;;;;;"1250";"2014-10-13 14:42:33.497";"NST_correctLoc";"35";"0";"FINISHED";"LEFT";"success";"659";"0";"2014-10-13 14:42:32.247";"3";;;;;;;;;;;;;;;;;;;;;;;;;;;;;;;;;;;;;;;;;;;;;;;;;;;;;;;;;
"1421980";"1995";;"Windows 7";"Rachel's Experiment (D.T.)";"1.0";"2";"1";"1";"2";"1";"1";"2014-10-13 14:37:06.220";"2014-10-13 14:52:49.764";"1";"1";"0";"48";"47";"module.training_block1.exec-1094.GoNoGo1";;;;;;;;;;;;;;;;;;;;;;;"1249";"2014-10-13 14:42:36.050";"NST_correctLoc";"16";"0";"FINISHED";"LEFT";"success";"619";"0";"2014-10-13 14:42:34.800";"2";;;;;;;;;;;;;;;;;;;;;;;;;;;;;;;;;;;;;;;;;;;;;;;;;;;;;;;;;
"1421980";"1995";;"Windows 7";"Rachel's Experiment (D.T.)";"1.0";"2";"1";"1";"2";"1";"1";"2014-10-13 14:37:06.220";"2014-10-13 14:52:49.764";"1";"1";"0";"49";"48";"module.training_block1.exec-1094.GoNoGo1";;;;;;;;;;;;;;;;;;;;;;;"1249";"2014-10-13 14:42:38.602";"NST_correctLoc";"22";"1";"FINISHED";"RIGHT";"success";"598";"0";"2014-10-13 14:42:37.352";"3";;;;;;;;;;;;;;;;;;;;;;;;;;;;;;;;;;;;;;;;;;;;;;;;;;;;;;;;;
"1421980";"1995";;"Windows 7";"Rachel's Experiment (D.T.)";"1.0";"2";"1";"1";"2";"1";"1";"2014-10-13 14:37:06.220";"2014-10-13 14:52:49.764";"1";"1";"0";"50";"49";"module.training_block1.exec-1094.GoNoGo1";;;;;;;;;;;;;;;;;;;;;;;"1249";"2014-10-13 14:42:41.154";"ST_correctStop";"4";"0";"FINISHED";"NONE";"success";"0";"1";"2014-10-13 14:42:39.904";"1";;;;;;;;;;;;;;;;;;;;;;;;;;;;;;;;;;;;;;;;;;;;;;;;;;;;;;;;;
"1421980";"1995";;"Windows 7";"Rachel's Experiment (D.T.)";"1.0";"2";"1";"1";"2";"1";"1";"2014-10-13 14:37:06.220";"2014-10-13 14:52:49.764";"1";"1";"0";"51";"50";"module.training_block1.exec-1094.GoNoGo1";;;;;;;;;;;;;;;;;;;;;;;"1249";"2014-10-13 14:42:43.718";"NST_correctLoc";"24";"1";"FINISHED";"RIGHT";"success";"497";"0";"2014-10-13 14:42:42.468";"3";;;;;;;;;;;;;;;;;;;;;;;;;;;;;;;;;;;;;;;;;;;;;;;;;;;;;;;;;
"1421980";"1995";;"Windows 7";"Rachel's Experiment (D.T.)";"1.0";"2";"1";"1";"2";"1";"1";"2014-10-13 14:37:06.220";"2014-10-13 14:52:49.764";"1";"1";"0";"52";"51";"module.training_block2.exec-8124.GoNoGo2";;;;;;;;;;;;;;;;;;;;;;;;;;;;;;;;;;;"1249";"2014-10-13 14:42:55.089";"NST_correctLoc";"29";"1";"FINISHED";"RIGHT";"success";"457";"0";"2014-10-13 14:42:53.839";"3";;;;;;;;;;;;;;;;;;;;;;;;;;;;;;;;;;;;;;;;;;;;;
"1421980";"1995";;"Windows 7";"Rachel's Experiment (D.T.)";"1.0";"2";"1";"1";"2";"1";"1";"2014-10-13 14:37:06.220";"2014-10-13 14:52:49.764";"1";"1";"0";"53";"52";"module.training_block2.exec-8124.GoNoGo2";;;;;;;;;;;;;;;;;;;;;;;;;;;;;;;;;;;"1250";"2014-10-13 14:42:57.632";"ST_correctStop";"5";"0";"FINISHED";"NONE";"success";"0";"1";"2014-10-13 14:42:56.382";"1";;;;;;;;;;;;;;;;;;;;;;;;;;;;;;;;;;;;;;;;;;;;;
"1421980";"1995";;"Windows 7";"Rachel's Experiment (D.T.)";"1.0";"2";"1";"1";"2";"1";"1";"2014-10-13 14:37:06.220";"2014-10-13 14:52:49.764";"1";"1";"0";"54";"53";"module.training_block2.exec-8124.GoNoGo2";;;;;;;;;;;;;;;;;;;;;;;;;;;;;;;;;;;"1250";"2014-10-13 14:43:00.173";"ST_correctStop";"23";"1";"FINISHED";"NONE";"success";"0";"1";"2014-10-13 14:42:58.923";"3";;;;;;;;;;;;;;;;;;;;;;;;;;;;;;;;;;;;;;;;;;;;;
"1421980";"1995";;"Windows 7";"Rachel's Experiment (D.T.)";"1.0";"2";"1";"1";"2";"1";"1";"2014-10-13 14:37:06.220";"2014-10-13 14:52:49.764";"1";"1";"0";"55";"54";"module.training_block2.exec-8124.GoNoGo2";;;;;;;;;;;;;;;;;;;;;;;;;;;;;;;;;;;"1250";"2014-10-13 14:43:02.718";"NST_correctLoc";"26";"0";"FINISHED";"LEFT";"success";"481";"0";"2014-10-13 14:43:01.468";"3";;;;;;;;;;;;;;;;;;;;;;;;;;;;;;;;;;;;;;;;;;;;;
"1421980";"1995";;"Windows 7";"Rachel's Experiment (D.T.)";"1.0";"2";"1";"1";"2";"1";"1";"2014-10-13 14:37:06.220";"2014-10-13 14:52:49.764";"1";"1";"0";"56";"55";"module.training_block2.exec-8124.GoNoGo2";;;;;;;;;;;;;;;;;;;;;;;;;;;;;;;;;;;"1250";"2014-10-13 14:43:05.261";"ST_correctStop";"27";"1";"FINISHED";"NONE";"success";"0";"1";"2014-10-13 14:43:04.011";"3";;;;;;;;;;;;;;;;;;;;;;;;;;;;;;;;;;;;;;;;;;;;;
"1421980";"1995";;"Windows 7";"Rachel's Experiment (D.T.)";"1.0";"2";"1";"1";"2";"1";"1";"2014-10-13 14:37:06.220";"2014-10-13 14:52:49.764";"1";"1";"0";"57";"56";"module.training_block2.exec-8124.GoNoGo2";;;;;;;;;;;;;;;;;;;;;;;;;;;;;;;;;;;"1249";"2014-10-13 14:43:07.803";"NST_correctLoc";"16";"0";"FINISHED";"LEFT";"success";"482";"0";"2014-10-13 14:43:06.553";"2";;;;;;;;;;;;;;;;;;;;;;;;;;;;;;;;;;;;;;;;;;;;;
"1421980";"1995";;"Windows 7";"Rachel's Experiment (D.T.)";"1.0";"2";"1";"1";"2";"1";"1";"2014-10-13 14:37:06.220";"2014-10-13 14:52:49.764";"1";"1";"0";"58";"57";"module.training_block2.exec-8124.GoNoGo2";;;;;;;;;;;;;;;;;;;;;;;;;;;;;;;;;;;"1250";"2014-10-13 14:43:10.346";"ST_correctStop";"20";"0";"FINISHED";"NONE";"success";"0";"1";"2014-10-13 14:43:09.096";"3";;;;;;;;;;;;;;;;;;;;;;;;;;;;;;;;;;;;;;;;;;;;;
"1421980";"1995";;"Windows 7";"Rachel's Experiment (D.T.)";"1.0";"2";"1";"1";"2";"1";"1";"2014-10-13 14:37:06.220";"2014-10-13 14:52:49.764";"1";"1";"0";"59";"58";"module.training_block2.exec-8124.GoNoGo2";;;;;;;;;;;;;;;;;;;;;;;;;;;;;;;;;;;"1250";"2014-10-13 14:43:12.889";"NST_correctLoc";"9";"0";"FINISHED";"LEFT";"success";"515";"0";"2014-10-13 14:43:11.639";"2";;;;;;;;;;;;;;;;;;;;;;;;;;;;;;;;;;;;;;;;;;;;;
"1421980";"1995";;"Windows 7";"Rachel's Experiment (D.T.)";"1.0";"2";"1";"1";"2";"1";"1";"2014-10-13 14:37:06.220";"2014-10-13 14:52:49.764";"1";"1";"0";"60";"59";"module.training_block2.exec-8124.GoNoGo2";;;;;;;;;;;;;;;;;;;;;;;;;;;;;;;;;;;"1250";"2014-10-13 14:43:15.433";"NST_correctLoc";"11";"1";"FINISHED";"RIGHT";"success";"481";"0";"2014-10-13 14:43:14.183";"2";;;;;;;;;;;;;;;;;;;;;;;;;;;;;;;;;;;;;;;;;;;;;
"1421980";"1995";;"Windows 7";"Rachel's Experiment (D.T.)";"1.0";"2";"1";"1";"2";"1";"1";"2014-10-13 14:37:06.220";"2014-10-13 14:52:49.764";"1";"1";"0";"61";"60";"module.training_block2.exec-8124.GoNoGo2";;;;;;;;;;;;;;;;;;;;;;;;;;;;;;;;;;;"1250";"2014-10-13 14:43:17.976";"ST_correctStop";"28";"0";"FINISHED";"NONE";"success";"0";"1";"2014-10-13 14:43:16.726";"3";;;;;;;;;;;;;;;;;;;;;;;;;;;;;;;;;;;;;;;;;;;;;
"1421980";"1995";;"Windows 7";"Rachel's Experiment (D.T.)";"1.0";"2";"1";"1";"2";"1";"1";"2014-10-13 14:37:06.220";"2014-10-13 14:52:49.764";"1";"1";"0";"62";"61";"module.training_block2.exec-8124.GoNoGo2";;;;;;;;;;;;;;;;;;;;;;;;;;;;;;;;;;;"1249";"2014-10-13 14:43:20.520";"ST_correctStop";"4";"0";"FINISHED";"NONE";"success";"0";"1";"2014-10-13 14:43:19.270";"1";;;;;;;;;;;;;;;;;;;;;;;;;;;;;;;;;;;;;;;;;;;;;
"1421980";"1995";;"Windows 7";"Rachel's Experiment (D.T.)";"1.0";"2";"1";"1";"2";"1";"1";"2014-10-13 14:37:06.220";"2014-10-13 14:52:49.764";"1";"1";"0";"63";"62";"module.training_block2.exec-8124.GoNoGo2";;;;;;;;;;;;;;;;;;;;;;;;;;;;;;;;;;;"1250";"2014-10-13 14:43:23.063";"NST_correctLoc";"15";"1";"FINISHED";"RIGHT";"success";"409";"0";"2014-10-13 14:43:21.813";"2";;;;;;;;;;;;;;;;;;;;;;;;;;;;;;;;;;;;;;;;;;;;;
"1421980";"1995";;"Windows 7";"Rachel's Experiment (D.T.)";"1.0";"2";"1";"1";"2";"1";"1";"2014-10-13 14:37:06.220";"2014-10-13 14:52:49.764";"1";"1";"0";"64";"63";"module.training_block2.exec-8124.GoNoGo2";;;;;;;;;;;;;;;;;;;;;;;;;;;;;;;;;;;"1250";"2014-10-13 14:43:25.606";"NST_correctLoc";"13";"1";"FINISHED";"RIGHT";"success";"422";"0";"2014-10-13 14:43:24.356";"2";;;;;;;;;;;;;;;;;;;;;;;;;;;;;;;;;;;;;;;;;;;;;
"1421980";"1995";;"Windows 7";"Rachel's Experiment (D.T.)";"1.0";"2";"1";"1";"2";"1";"1";"2014-10-13 14:37:06.220";"2014-10-13 14:52:49.764";"1";"1";"0";"65";"64";"module.training_block2.exec-8124.GoNoGo2";;;;;;;;;;;;;;;;;;;;;;;;;;;;;;;;;;;"1250";"2014-10-13 14:43:28.149";"ST_correctStop";"35";"1";"FINISHED";"NONE";"success";"0";"1";"2014-10-13 14:43:26.899";"3";;;;;;;;;;;;;;;;;;;;;;;;;;;;;;;;;;;;;;;;;;;;;
"1421980";"1995";;"Windows 7";"Rachel's Experiment (D.T.)";"1.0";"2";"1";"1";"2";"1";"1";"2014-10-13 14:37:06.220";"2014-10-13 14:52:49.764";"1";"1";"0";"66";"65";"module.training_block2.exec-8124.GoNoGo2";;;;;;;;;;;;;;;;;;;;;;;;;;;;;;;;;;;"1250";"2014-10-13 14:43:30.690";"ST_correctStop";"8";"0";"FINISHED";"NONE";"success";"0";"1";"2014-10-13 14:43:29.440";"1";;;;;;;;;;;;;;;;;;;;;;;;;;;;;;;;;;;;;;;;;;;;;
"1421980";"1995";;"Windows 7";"Rachel's Experiment (D.T.)";"1.0";"2";"1";"1";"2";"1";"1";"2014-10-13 14:37:06.220";"2014-10-13 14:52:49.764";"1";"1";"0";"67";"66";"module.training_block2.exec-8124.GoNoGo2";;;;;;;;;;;;;;;;;;;;;;;;;;;;;;;;;;;"1250";"2014-10-13 14:43:33.230";"ST_correctStop";"1";"1";"FINISHED";"NONE";"success";"0";"1";"2014-10-13 14:43:31.980";"1";;;;;;;;;;;;;;;;;;;;;;;;;;;;;;;;;;;;;;;;;;;;;
"1421980";"1995";;"Windows 7";"Rachel's Experiment (D.T.)";"1.0";"2";"1";"1";"2";"1";"1";"2014-10-13 14:37:06.220";"2014-10-13 14:52:49.764";"1";"1";"0";"68";"67";"module.training_block2.exec-8124.GoNoGo2";;;;;;;;;;;;;;;;;;;;;;;;;;;;;;;;;;;"1250";"2014-10-13 14:43:35.770";"NST_correctLoc";"34";"0";"FINISHED";"LEFT";"success";"383";"0";"2014-10-13 14:43:34.520";"3";;;;;;;;;;;;;;;;;;;;;;;;;;;;;;;;;;;;;;;;;;;;;
"1421980";"1995";;"Windows 7";"Rachel's Experiment (D.T.)";"1.0";"2";"1";"1";"2";"1";"1";"2014-10-13 14:37:06.220";"2014-10-13 14:52:49.764";"1";"1";"0";"69";"68";"module.training_block2.exec-8124.GoNoGo2";;;;;;;;;;;;;;;;;;;;;;;;;;;;;;;;;;;"1250";"2014-10-13 14:43:38.316";"NST_correctLoc";"10";"1";"FINISHED";"RIGHT";"success";"465";"0";"2014-10-13 14:43:37.066";"2";;;;;;;;;;;;;;;;;;;;;;;;;;;;;;;;;;;;;;;;;;;;;
"1421980";"1995";;"Windows 7";"Rachel's Experiment (D.T.)";"1.0";"2";"1";"1";"2";"1";"1";"2014-10-13 14:37:06.220";"2014-10-13 14:52:49.764";"1";"1";"0";"70";"69";"module.training_block2.exec-8124.GoNoGo2";;;;;;;;;;;;;;;;;;;;;;;;;;;;;;;;;;;"1250";"2014-10-13 14:43:40.855";"ST_correctStop";"7";"0";"FINISHED";"NONE";"success";"0";"1";"2014-10-13 14:43:39.605";"1";;;;;;;;;;;;;;;;;;;;;;;;;;;;;;;;;;;;;;;;;;;;;
"1421980";"1995";;"Windows 7";"Rachel's Experiment (D.T.)";"1.0";"2";"1";"1";"2";"1";"1";"2014-10-13 14:37:06.220";"2014-10-13 14:52:49.764";"1";"1";"0";"71";"70";"module.training_block2.exec-8124.GoNoGo2";;;;;;;;;;;;;;;;;;;;;;;;;;;;;;;;;;;"1250";"2014-10-13 14:43:43.393";"NST_correctLoc";"14";"1";"FINISHED";"RIGHT";"success";"514";"0";"2014-10-13 14:43:42.143";"2";;;;;;;;;;;;;;;;;;;;;;;;;;;;;;;;;;;;;;;;;;;;;
"1421980";"1995";;"Windows 7";"Rachel's Experiment (D.T.)";"1.0";"2";"1";"1";"2";"1";"1";"2014-10-13 14:37:06.220";"2014-10-13 14:52:49.764";"1";"1";"0";"72";"71";"module.training_block2.exec-8124.GoNoGo2";;;;;;;;;;;;;;;;;;;;;;;;;;;;;;;;;;;"1249";"2014-10-13 14:43:45.971";"NST_correctLoc";"18";"0";"FINISHED";"LEFT";"success";"710";"0";"2014-10-13 14:43:44.721";"3";;;;;;;;;;;;;;;;;;;;;;;;;;;;;;;;;;;;;;;;;;;;;
"1421980";"1995";;"Windows 7";"Rachel's Experiment (D.T.)";"1.0";"2";"1";"1";"2";"1";"1";"2014-10-13 14:37:06.220";"2014-10-13 14:52:49.764";"1";"1";"0";"73";"72";"module.training_block2.exec-8124.GoNoGo2";;;;;;;;;;;;;;;;;;;;;;;;;;;;;;;;;;;"1250";"2014-10-13 14:43:48.507";"NST_correctLoc";"30";"1";"FINISHED";"RIGHT";"success";"648";"0";"2014-10-13 14:43:47.257";"3";;;;;;;;;;;;;;;;;;;;;;;;;;;;;;;;;;;;;;;;;;;;;
"1421980";"1995";;"Windows 7";"Rachel's Experiment (D.T.)";"1.0";"2";"1";"1";"2";"1";"1";"2014-10-13 14:37:06.220";"2014-10-13 14:52:49.764";"1";"1";"0";"74";"73";"module.training_block2.exec-8124.GoNoGo2";;;;;;;;;;;;;;;;;;;;;;;;;;;;;;;;;;;"1250";"2014-10-13 14:43:51.048";"ST_correctStop";"25";"1";"FINISHED";"NONE";"success";"0";"1";"2014-10-13 14:43:49.798";"3";;;;;;;;;;;;;;;;;;;;;;;;;;;;;;;;;;;;;;;;;;;;;
"1421980";"1995";;"Windows 7";"Rachel's Experiment (D.T.)";"1.0";"2";"1";"1";"2";"1";"1";"2014-10-13 14:37:06.220";"2014-10-13 14:52:49.764";"1";"1";"0";"75";"74";"module.training_block2.exec-8124.GoNoGo2";;;;;;;;;;;;;;;;;;;;;;;;;;;;;;;;;;;"1250";"2014-10-13 14:43:53.586";"ST_correctStop";"32";"1";"FINISHED";"NONE";"success";"0";"1";"2014-10-13 14:43:52.336";"3";;;;;;;;;;;;;;;;;;;;;;;;;;;;;;;;;;;;;;;;;;;;;
"1421980";"1995";;"Windows 7";"Rachel's Experiment (D.T.)";"1.0";"2";"1";"1";"2";"1";"1";"2014-10-13 14:37:06.220";"2014-10-13 14:52:49.764";"1";"1";"0";"76";"75";"module.training_block2.exec-8124.GoNoGo2";;;;;;;;;;;;;;;;;;;;;;;;;;;;;;;;;;;"1250";"2014-10-13 14:43:56.124";"NST_correctLoc";"24";"1";"FINISHED";"RIGHT";"success";"632";"0";"2014-10-13 14:43:54.874";"3";;;;;;;;;;;;;;;;;;;;;;;;;;;;;;;;;;;;;;;;;;;;;
"1421980";"1995";;"Windows 7";"Rachel's Experiment (D.T.)";"1.0";"2";"1";"1";"2";"1";"1";"2014-10-13 14:37:06.220";"2014-10-13 14:52:49.764";"1";"1";"0";"77";"76";"module.training_block2.exec-8124.GoNoGo2";;;;;;;;;;;;;;;;;;;;;;;;;;;;;;;;;;;"1249";"2014-10-13 14:43:58.662";"ST_correctStop";"19";"1";"FINISHED";"NONE";"success";"0";"1";"2014-10-13 14:43:57.412";"3";;;;;;;;;;;;;;;;;;;;;;;;;;;;;;;;;;;;;;;;;;;;;
"1421980";"1995";;"Windows 7";"Rachel's Experiment (D.T.)";"1.0";"2";"1";"1";"2";"1";"1";"2014-10-13 14:37:06.220";"2014-10-13 14:52:49.764";"1";"1";"0";"78";"77";"module.training_block2.exec-8124.GoNoGo2";;;;;;;;;;;;;;;;;;;;;;;;;;;;;;;;;;;"1251";"2014-10-13 14:44:01.200";"ST_correctStop";"6";"0";"FINISHED";"NONE";"success";"0";"1";"2014-10-13 14:43:59.948";"1";;;;;;;;;;;;;;;;;;;;;;;;;;;;;;;;;;;;;;;;;;;;;
"1421980";"1995";;"Windows 7";"Rachel's Experiment (D.T.)";"1.0";"2";"1";"1";"2";"1";"1";"2014-10-13 14:37:06.220";"2014-10-13 14:52:49.764";"1";"1";"0";"79";"78";"module.training_block2.exec-8124.GoNoGo2";;;;;;;;;;;;;;;;;;;;;;;;;;;;;;;;;;;"1250";"2014-10-13 14:44:03.737";"NST_correctLoc";"12";"0";"FINISHED";"LEFT";"success";"550";"0";"2014-10-13 14:44:02.487";"2";;;;;;;;;;;;;;;;;;;;;;;;;;;;;;;;;;;;;;;;;;;;;
"1421980";"1995";;"Windows 7";"Rachel's Experiment (D.T.)";"1.0";"2";"1";"1";"2";"1";"1";"2014-10-13 14:37:06.220";"2014-10-13 14:52:49.764";"1";"1";"0";"80";"79";"module.training_block2.exec-8124.GoNoGo2";;;;;;;;;;;;;;;;;;;;;;;;;;;;;;;;;;;"1250";"2014-10-13 14:44:06.272";"NST_correctLoc";"17";"0";"FINISHED";"LEFT";"success";"596";"0";"2014-10-13 14:44:05.022";"2";;;;;;;;;;;;;;;;;;;;;;;;;;;;;;;;;;;;;;;;;;;;;
"1421980";"1995";;"Windows 7";"Rachel's Experiment (D.T.)";"1.0";"2";"1";"1";"2";"1";"1";"2014-10-13 14:37:06.220";"2014-10-13 14:52:49.764";"1";"1";"0";"81";"80";"module.training_block2.exec-8124.GoNoGo2";;;;;;;;;;;;;;;;;;;;;;;;;;;;;;;;;;;"1249";"2014-10-13 14:44:08.805";"NST_correctLoc";"31";"0";"FINISHED";"LEFT";"success";"591";"0";"2014-10-13 14:44:07.555";"3";;;;;;;;;;;;;;;;;;;;;;;;;;;;;;;;;;;;;;;;;;;;;
"1421980";"1995";;"Windows 7";"Rachel's Experiment (D.T.)";"1.0";"2";"1";"1";"2";"1";"1";"2014-10-13 14:37:06.220";"2014-10-13 14:52:49.764";"1";"1";"0";"82";"81";"module.training_block2.exec-8124.GoNoGo2";;;;;;;;;;;;;;;;;;;;;;;;;;;;;;;;;;;"1249";"2014-10-13 14:44:11.342";"ST_correctStop";"3";"0";"FINISHED";"NONE";"success";"0";"1";"2014-10-13 14:44:10.092";"1";;;;;;;;;;;;;;;;;;;;;;;;;;;;;;;;;;;;;;;;;;;;;
"1421980";"1995";;"Windows 7";"Rachel's Experiment (D.T.)";"1.0";"2";"1";"1";"2";"1";"1";"2014-10-13 14:37:06.220";"2014-10-13 14:52:49.764";"1";"1";"0";"83";"82";"module.training_block2.exec-8124.GoNoGo2";;;;;;;;;;;;;;;;;;;;;;;;;;;;;;;;;;;"1249";"2014-10-13 14:44:13.877";"NST_correctLoc";"33";"1";"FINISHED";"RIGHT";"success";"528";"0";"2014-10-13 14:44:12.627";"3";;;;;;;;;;;;;;;;;;;;;;;;;;;;;;;;;;;;;;;;;;;;;
"1421980";"1995";;"Windows 7";"Rachel's Experiment (D.T.)";"1.0";"2";"1";"1";"2";"1";"1";"2014-10-13 14:37:06.220";"2014-10-13 14:52:49.764";"1";"1";"0";"84";"83";"module.training_block2.exec-8124.GoNoGo2";;;;;;;;;;;;;;;;;;;;;;;;;;;;;;;;;;;"1250";"2014-10-13 14:44:16.412";"ST_correctStop";"2";"0";"FINISHED";"NONE";"success";"0";"1";"2014-10-13 14:44:15.162";"1";;;;;;;;;;;;;;;;;;;;;;;;;;;;;;;;;;;;;;;;;;;;;
"1421980";"1995";;"Windows 7";"Rachel's Experiment (D.T.)";"1.0";"2";"1";"1";"2";"1";"1";"2014-10-13 14:37:06.220";"2014-10-13 14:52:49.764";"1";"1";"0";"85";"84";"module.training_block2.exec-8124.GoNoGo2";;;;;;;;;;;;;;;;;;;;;;;;;;;;;;;;;;;"1250";"2014-10-13 14:44:18.949";"ST_correctStop";"22";"1";"FINISHED";"NONE";"success";"0";"1";"2014-10-13 14:44:17.698";"3";;;;;;;;;;;;;;;;;;;;;;;;;;;;;;;;;;;;;;;;;;;;;
"1421980";"1995";;"Windows 7";"Rachel's Experiment (D.T.)";"1.0";"2";"1";"1";"2";"1";"1";"2014-10-13 14:37:06.220";"2014-10-13 14:52:49.764";"1";"1";"0";"86";"85";"module.training_block2.exec-8124.GoNoGo2";;;;;;;;;;;;;;;;;;;;;;;;;;;;;;;;;;;"1249";"2014-10-13 14:44:21.488";"ST_correctStop";"0";"0";"FINISHED";"NONE";"success";"0";"1";"2014-10-13 14:44:20.238";"1";;;;;;;;;;;;;;;;;;;;;;;;;;;;;;;;;;;;;;;;;;;;;
"1421980";"1995";;"Windows 7";"Rachel's Experiment (D.T.)";"1.0";"2";"1";"1";"2";"1";"1";"2014-10-13 14:37:06.220";"2014-10-13 14:52:49.764";"1";"1";"0";"87";"86";"module.training_block2.exec-8124.GoNoGo2";;;;;;;;;;;;;;;;;;;;;;;;;;;;;;;;;;;"1249";"2014-10-13 14:44:24.024";"NST_correctLoc";"21";"1";"FINISHED";"RIGHT";"success";"616";"0";"2014-10-13 14:44:22.774";"3";;;;;;;;;;;;;;;;;;;;;;;;;;;;;;;;;;;;;;;;;;;;;
"1421980";"1995";;"Windows 7";"Rachel's Experiment (D.T.)";"1.0";"2";"1";"1";"2";"1";"1";"2014-10-13 14:37:06.220";"2014-10-13 14:52:49.764";"1";"1";"0";"88";"87";"module.training_block3.exec-9843.GoNoGo3";;;;;;;;;;;;;;;;;;;;;;;;;;;;;;;;;;;;;;;;;;;;;;;"1249";"2014-10-13 14:44:34.277";"NST_correctLoc";"33";"0";"FINISHED";"LEFT";"success";"578";"0";"2014-10-13 14:44:33.027";"3";;;;;;;;;;;;;;;;;;;;;;;;;;;;;;;;;
"1421980";"1995";;"Windows 7";"Rachel's Experiment (D.T.)";"1.0";"2";"1";"1";"2";"1";"1";"2014-10-13 14:37:06.220";"2014-10-13 14:52:49.764";"1";"1";"0";"89";"88";"module.training_block3.exec-9843.GoNoGo3";;;;;;;;;;;;;;;;;;;;;;;;;;;;;;;;;;;;;;;;;;;;;;;"1250";"2014-10-13 14:44:36.814";"ST_correctStop";"20";"0";"FINISHED";"NONE";"success";"0";"1";"2014-10-13 14:44:35.563";"3";;;;;;;;;;;;;;;;;;;;;;;;;;;;;;;;;
"1421980";"1995";;"Windows 7";"Rachel's Experiment (D.T.)";"1.0";"2";"1";"1";"2";"1";"1";"2014-10-13 14:37:06.220";"2014-10-13 14:52:49.764";"1";"1";"0";"90";"89";"module.training_block3.exec-9843.GoNoGo3";;;;;;;;;;;;;;;;;;;;;;;;;;;;;;;;;;;;;;;;;;;;;;;"1249";"2014-10-13 14:44:39.347";"NST_correctLoc";"15";"1";"FINISHED";"RIGHT";"success";"483";"0";"2014-10-13 14:44:38.097";"2";;;;;;;;;;;;;;;;;;;;;;;;;;;;;;;;;
"1421980";"1995";;"Windows 7";"Rachel's Experiment (D.T.)";"1.0";"2";"1";"1";"2";"1";"1";"2014-10-13 14:37:06.220";"2014-10-13 14:52:49.764";"1";"1";"0";"91";"90";"module.training_block3.exec-9843.GoNoGo3";;;;;;;;;;;;;;;;;;;;;;;;;;;;;;;;;;;;;;;;;;;;;;;"1249";"2014-10-13 14:44:41.881";"NST_correctLoc";"11";"0";"FINISHED";"LEFT";"success";"548";"0";"2014-10-13 14:44:40.631";"2";;;;;;;;;;;;;;;;;;;;;;;;;;;;;;;;;
"1421980";"1995";;"Windows 7";"Rachel's Experiment (D.T.)";"1.0";"2";"1";"1";"2";"1";"1";"2014-10-13 14:37:06.220";"2014-10-13 14:52:49.764";"1";"1";"0";"92";"91";"module.training_block3.exec-9843.GoNoGo3";;;;;;;;;;;;;;;;;;;;;;;;;;;;;;;;;;;;;;;;;;;;;;;"1249";"2014-10-13 14:44:44.415";"ST_correctStop";"3";"0";"FINISHED";"NONE";"success";"0";"1";"2014-10-13 14:44:43.165";"1";;;;;;;;;;;;;;;;;;;;;;;;;;;;;;;;;
"1421980";"1995";;"Windows 7";"Rachel's Experiment (D.T.)";"1.0";"2";"1";"1";"2";"1";"1";"2014-10-13 14:37:06.220";"2014-10-13 14:52:49.764";"1";"1";"0";"93";"92";"module.training_block3.exec-9843.GoNoGo3";;;;;;;;;;;;;;;;;;;;;;;;;;;;;;;;;;;;;;;;;;;;;;;"1250";"2014-10-13 14:44:46.959";"ST_correctStop";"32";"1";"FINISHED";"NONE";"success";"0";"1";"2014-10-13 14:44:45.709";"3";;;;;;;;;;;;;;;;;;;;;;;;;;;;;;;;;
"1421980";"1995";;"Windows 7";"Rachel's Experiment (D.T.)";"1.0";"2";"1";"1";"2";"1";"1";"2014-10-13 14:37:06.220";"2014-10-13 14:52:49.764";"1";"1";"0";"94";"93";"module.training_block3.exec-9843.GoNoGo3";;;;;;;;;;;;;;;;;;;;;;;;;;;;;;;;;;;;;;;;;;;;;;;"1249";"2014-10-13 14:44:49.493";"NST_correctLoc";"24";"0";"FINISHED";"LEFT";"success";"568";"0";"2014-10-13 14:44:48.243";"3";;;;;;;;;;;;;;;;;;;;;;;;;;;;;;;;;
"1421980";"1995";;"Windows 7";"Rachel's Experiment (D.T.)";"1.0";"2";"1";"1";"2";"1";"1";"2014-10-13 14:37:06.220";"2014-10-13 14:52:49.764";"1";"1";"0";"95";"94";"module.training_block3.exec-9843.GoNoGo3";;;;;;;;;;;;;;;;;;;;;;;;;;;;;;;;;;;;;;;;;;;;;;;"1250";"2014-10-13 14:44:52.033";"NST_correctLoc";"10";"0";"FINISHED";"LEFT";"success";"554";"0";"2014-10-13 14:44:50.783";"2";;;;;;;;;;;;;;;;;;;;;;;;;;;;;;;;;
"1421980";"1995";;"Windows 7";"Rachel's Experiment (D.T.)";"1.0";"2";"1";"1";"2";"1";"1";"2014-10-13 14:37:06.220";"2014-10-13 14:52:49.764";"1";"1";"0";"96";"95";"module.training_block3.exec-9843.GoNoGo3";;;;;;;;;;;;;;;;;;;;;;;;;;;;;;;;;;;;;;;;;;;;;;;"1249";"2014-10-13 14:44:54.567";"NST_correctLoc";"23";"1";"FINISHED";"RIGHT";"success";"794";"0";"2014-10-13 14:44:53.316";"3";;;;;;;;;;;;;;;;;;;;;;;;;;;;;;;;;
"1421980";"1995";;"Windows 7";"Rachel's Experiment (D.T.)";"1.0";"2";"1";"1";"2";"1";"1";"2014-10-13 14:37:06.220";"2014-10-13 14:52:49.764";"1";"1";"0";"97";"96";"module.training_block3.exec-9843.GoNoGo3";;;;;;;;;;;;;;;;;;;;;;;;;;;;;;;;;;;;;;;;;;;;;;;"1249";"2014-10-13 14:44:57.101";"NST_correctLoc";"13";"1";"FINISHED";"RIGHT";"success";"430";"0";"2014-10-13 14:44:55.851";"2";;;;;;;;;;;;;;;;;;;;;;;;;;;;;;;;;
"1421980";"1995";;"Windows 7";"Rachel's Experiment (D.T.)";"1.0";"2";"1";"1";"2";"1";"1";"2014-10-13 14:37:06.220";"2014-10-13 14:52:49.764";"1";"1";"0";"98";"97";"module.training_block3.exec-9843.GoNoGo3";;;;;;;;;;;;;;;;;;;;;;;;;;;;;;;;;;;;;;;;;;;;;;;"1249";"2014-10-13 14:44:59.634";"ST_correctStop";"5";"1";"FINISHED";"NONE";"success";"0";"1";"2014-10-13 14:44:58.384";"1";;;;;;;;;;;;;;;;;;;;;;;;;;;;;;;;;
"1421980";"1995";;"Windows 7";"Rachel's Experiment (D.T.)";"1.0";"2";"1";"1";"2";"1";"1";"2014-10-13 14:37:06.220";"2014-10-13 14:52:49.764";"1";"1";"0";"99";"98";"module.training_block3.exec-9843.GoNoGo3";;;;;;;;;;;;;;;;;;;;;;;;;;;;;;;;;;;;;;;;;;;;;;;"1249";"2014-10-13 14:45:02.167";"ST_correctStop";"35";"1";"FINISHED";"NONE";"success";"0";"1";"2014-10-13 14:45:00.917";"3";;;;;;;;;;;;;;;;;;;;;;;;;;;;;;;;;
"1421980";"1995";;"Windows 7";"Rachel's Experiment (D.T.)";"1.0";"2";"1";"1";"2";"1";"1";"2014-10-13 14:37:06.220";"2014-10-13 14:52:49.764";"1";"1";"0";"100";"99";"module.training_block3.exec-9843.GoNoGo3";;;;;;;;;;;;;;;;;;;;;;;;;;;;;;;;;;;;;;;;;;;;;;;"1250";"2014-10-13 14:45:04.701";"NST_correctLoc";"29";"1";"FINISHED";"RIGHT";"success";"679";"0";"2014-10-13 14:45:03.451";"3";;;;;;;;;;;;;;;;;;;;;;;;;;;;;;;;;
"1421980";"1995";;"Windows 7";"Rachel's Experiment (D.T.)";"1.0";"2";"1";"1";"2";"1";"1";"2014-10-13 14:37:06.220";"2014-10-13 14:52:49.764";"1";"1";"0";"101";"100";"module.training_block3.exec-9843.GoNoGo3";;;;;;;;;;;;;;;;;;;;;;;;;;;;;;;;;;;;;;;;;;;;;;;"1249";"2014-10-13 14:45:07.235";"ST_correctStop";"8";"0";"FINISHED";"NONE";"success";"0";"1";"2014-10-13 14:45:05.985";"1";;;;;;;;;;;;;;;;;;;;;;;;;;;;;;;;;
"1421980";"1995";;"Windows 7";"Rachel's Experiment (D.T.)";"1.0";"2";"1";"1";"2";"1";"1";"2014-10-13 14:37:06.220";"2014-10-13 14:52:49.764";"1";"1";"0";"102";"101";"module.training_block3.exec-9843.GoNoGo3";;;;;;;;;;;;;;;;;;;;;;;;;;;;;;;;;;;;;;;;;;;;;;;"1249";"2014-10-13 14:45:09.769";"ST_correctStop";"4";"1";"FINISHED";"NONE";"success";"0";"1";"2014-10-13 14:45:08.519";"1";;;;;;;;;;;;;;;;;;;;;;;;;;;;;;;;;
"1421980";"1995";;"Windows 7";"Rachel's Experiment (D.T.)";"1.0";"2";"1";"1";"2";"1";"1";"2014-10-13 14:37:06.220";"2014-10-13 14:52:49.764";"1";"1";"0";"103";"102";"module.training_block3.exec-9843.GoNoGo3";;;;;;;;;;;;;;;;;;;;;;;;;;;;;;;;;;;;;;;;;;;;;;;"1249";"2014-10-13 14:45:12.305";"ST_correctStop";"7";"1";"FINISHED";"NONE";"success";"0";"1";"2014-10-13 14:45:11.054";"1";;;;;;;;;;;;;;;;;;;;;;;;;;;;;;;;;
"1421980";"1995";;"Windows 7";"Rachel's Experiment (D.T.)";"1.0";"2";"1";"1";"2";"1";"1";"2014-10-13 14:37:06.220";"2014-10-13 14:52:49.764";"1";"1";"0";"104";"103";"module.training_block3.exec-9843.GoNoGo3";;;;;;;;;;;;;;;;;;;;;;;;;;;;;;;;;;;;;;;;;;;;;;;"1249";"2014-10-13 14:45:14.839";"NST_correctLoc";"22";"1";"FINISHED";"RIGHT";"success";"579";"0";"2014-10-13 14:45:13.589";"3";;;;;;;;;;;;;;;;;;;;;;;;;;;;;;;;;
"1421980";"1995";;"Windows 7";"Rachel's Experiment (D.T.)";"1.0";"2";"1";"1";"2";"1";"1";"2014-10-13 14:37:06.220";"2014-10-13 14:52:49.764";"1";"1";"0";"105";"104";"module.training_block3.exec-9843.GoNoGo3";;;;;;;;;;;;;;;;;;;;;;;;;;;;;;;;;;;;;;;;;;;;;;;"1249";"2014-10-13 14:45:17.378";"NST_correctLoc";"34";"1";"FINISHED";"RIGHT";"success";"545";"0";"2014-10-13 14:45:16.128";"3";;;;;;;;;;;;;;;;;;;;;;;;;;;;;;;;;
"1421980";"1995";;"Windows 7";"Rachel's Experiment (D.T.)";"1.0";"2";"1";"1";"2";"1";"1";"2014-10-13 14:37:06.220";"2014-10-13 14:52:49.764";"1";"1";"0";"106";"105";"module.training_block3.exec-9843.GoNoGo3";;;;;;;;;;;;;;;;;;;;;;;;;;;;;;;;;;;;;;;;;;;;;;;"1249";"2014-10-13 14:45:19.911";"ST_correctStop";"21";"0";"FINISHED";"NONE";"success";"0";"1";"2014-10-13 14:45:18.661";"3";;;;;;;;;;;;;;;;;;;;;;;;;;;;;;;;;
"1421980";"1995";;"Windows 7";"Rachel's Experiment (D.T.)";"1.0";"2";"1";"1";"2";"1";"1";"2014-10-13 14:37:06.220";"2014-10-13 14:52:49.764";"1";"1";"0";"107";"106";"module.training_block3.exec-9843.GoNoGo3";;;;;;;;;;;;;;;;;;;;;;;;;;;;;;;;;;;;;;;;;;;;;;;"1250";"2014-10-13 14:45:22.449";"ST_correctStop";"2";"1";"FINISHED";"NONE";"success";"0";"1";"2014-10-13 14:45:21.199";"1";;;;;;;;;;;;;;;;;;;;;;;;;;;;;;;;;
"1421980";"1995";;"Windows 7";"Rachel's Experiment (D.T.)";"1.0";"2";"1";"1";"2";"1";"1";"2014-10-13 14:37:06.220";"2014-10-13 14:52:49.764";"1";"1";"0";"108";"107";"module.training_block3.exec-9843.GoNoGo3";;;;;;;;;;;;;;;;;;;;;;;;;;;;;;;;;;;;;;;;;;;;;;;"1249";"2014-10-13 14:45:24.982";"NST_correctLoc";"9";"1";"FINISHED";"RIGHT";"success";"581";"0";"2014-10-13 14:45:23.732";"2";;;;;;;;;;;;;;;;;;;;;;;;;;;;;;;;;
"1421980";"1995";;"Windows 7";"Rachel's Experiment (D.T.)";"1.0";"2";"1";"1";"2";"1";"1";"2014-10-13 14:37:06.220";"2014-10-13 14:52:49.764";"1";"1";"0";"109";"108";"module.training_block3.exec-9843.GoNoGo3";;;;;;;;;;;;;;;;;;;;;;;;;;;;;;;;;;;;;;;;;;;;;;;"1249";"2014-10-13 14:45:27.517";"ST_correctStop";"0";"0";"FINISHED";"NONE";"success";"0";"1";"2014-10-13 14:45:26.267";"1";;;;;;;;;;;;;;;;;;;;;;;;;;;;;;;;;
"1421980";"1995";;"Windows 7";"Rachel's Experiment (D.T.)";"1.0";"2";"1";"1";"2";"1";"1";"2014-10-13 14:37:06.220";"2014-10-13 14:52:49.764";"1";"1";"0";"110";"109";"module.training_block3.exec-9843.GoNoGo3";;;;;;;;;;;;;;;;;;;;;;;;;;;;;;;;;;;;;;;;;;;;;;;"1249";"2014-10-13 14:45:30.052";"NST_correctLoc";"26";"1";"FINISHED";"RIGHT";"success";"551";"0";"2014-10-13 14:45:28.801";"3";;;;;;;;;;;;;;;;;;;;;;;;;;;;;;;;;
"1421980";"1995";;"Windows 7";"Rachel's Experiment (D.T.)";"1.0";"2";"1";"1";"2";"1";"1";"2014-10-13 14:37:06.220";"2014-10-13 14:52:49.764";"1";"1";"0";"111";"110";"module.training_block3.exec-9843.GoNoGo3";;;;;;;;;;;;;;;;;;;;;;;;;;;;;;;;;;;;;;;;;;;;;;;"1250";"2014-10-13 14:45:32.587";"ST_correctStop";"18";"0";"FINISHED";"NONE";"success";"0";"1";"2014-10-13 14:45:31.337";"3";;;;;;;;;;;;;;;;;;;;;;;;;;;;;;;;;
"1421980";"1995";;"Windows 7";"Rachel's Experiment (D.T.)";"1.0";"2";"1";"1";"2";"1";"1";"2014-10-13 14:37:06.220";"2014-10-13 14:52:49.764";"1";"1";"0";"112";"111";"module.training_block3.exec-9843.GoNoGo3";;;;;;;;;;;;;;;;;;;;;;;;;;;;;;;;;;;;;;;;;;;;;;;"1249";"2014-10-13 14:45:35.119";"ST_correctStop";"1";"0";"FINISHED";"NONE";"success";"0";"1";"2014-10-13 14:45:33.869";"1";;;;;;;;;;;;;;;;;;;;;;;;;;;;;;;;;
"1421980";"1995";;"Windows 7";"Rachel's Experiment (D.T.)";"1.0";"2";"1";"1";"2";"1";"1";"2014-10-13 14:37:06.220";"2014-10-13 14:52:49.764";"1";"1";"0";"113";"112";"module.training_block3.exec-9843.GoNoGo3";;;;;;;;;;;;;;;;;;;;;;;;;;;;;;;;;;;;;;;;;;;;;;;"1249";"2014-10-13 14:45:37.652";"ST_correctStop";"6";"1";"FINISHED";"NONE";"success";"0";"1";"2014-10-13 14:45:36.402";"1";;;;;;;;;;;;;;;;;;;;;;;;;;;;;;;;;
"1421980";"1995";;"Windows 7";"Rachel's Experiment (D.T.)";"1.0";"2";"1";"1";"2";"1";"1";"2014-10-13 14:37:06.220";"2014-10-13 14:52:49.764";"1";"1";"0";"114";"113";"module.training_block3.exec-9843.GoNoGo3";;;;;;;;;;;;;;;;;;;;;;;;;;;;;;;;;;;;;;;;;;;;;;;"1249";"2014-10-13 14:45:40.185";"NST_correctLoc";"28";"1";"FINISHED";"RIGHT";"success";"658";"0";"2014-10-13 14:45:38.935";"3";;;;;;;;;;;;;;;;;;;;;;;;;;;;;;;;;
"1421980";"1995";;"Windows 7";"Rachel's Experiment (D.T.)";"1.0";"2";"1";"1";"2";"1";"1";"2014-10-13 14:37:06.220";"2014-10-13 14:52:49.764";"1";"1";"0";"115";"114";"module.training_block3.exec-9843.GoNoGo3";;;;;;;;;;;;;;;;;;;;;;;;;;;;;;;;;;;;;;;;;;;;;;;"1249";"2014-10-13 14:45:42.722";"NST_correctLoc";"16";"1";"FINISHED";"RIGHT";"success";"508";"0";"2014-10-13 14:45:41.472";"2";;;;;;;;;;;;;;;;;;;;;;;;;;;;;;;;;
"1421980";"1995";;"Windows 7";"Rachel's Experiment (D.T.)";"1.0";"2";"1";"1";"2";"1";"1";"2014-10-13 14:37:06.220";"2014-10-13 14:52:49.764";"1";"1";"0";"116";"115";"module.training_block3.exec-9843.GoNoGo3";;;;;;;;;;;;;;;;;;;;;;;;;;;;;;;;;;;;;;;;;;;;;;;"1249";"2014-10-13 14:45:45.265";"ST_correctStop";"27";"1";"FINISHED";"NONE";"success";"0";"1";"2014-10-13 14:45:44.015";"3";;;;;;;;;;;;;;;;;;;;;;;;;;;;;;;;;
"1421980";"1995";;"Windows 7";"Rachel's Experiment (D.T.)";"1.0";"2";"1";"1";"2";"1";"1";"2014-10-13 14:37:06.220";"2014-10-13 14:52:49.764";"1";"1";"0";"117";"116";"module.training_block3.exec-9843.GoNoGo3";;;;;;;;;;;;;;;;;;;;;;;;;;;;;;;;;;;;;;;;;;;;;;;"1249";"2014-10-13 14:45:47.797";"NST_correctLoc";"12";"1";"FINISHED";"RIGHT";"success";"503";"0";"2014-10-13 14:45:46.547";"2";;;;;;;;;;;;;;;;;;;;;;;;;;;;;;;;;
"1421980";"1995";;"Windows 7";"Rachel's Experiment (D.T.)";"1.0";"2";"1";"1";"2";"1";"1";"2014-10-13 14:37:06.220";"2014-10-13 14:52:49.764";"1";"1";"0";"118";"117";"module.training_block3.exec-9843.GoNoGo3";;;;;;;;;;;;;;;;;;;;;;;;;;;;;;;;;;;;;;;;;;;;;;;"1249";"2014-10-13 14:45:50.329";"ST_correctStop";"30";"1";"FINISHED";"NONE";"success";"0";"1";"2014-10-13 14:45:49.079";"3";;;;;;;;;;;;;;;;;;;;;;;;;;;;;;;;;
"1421980";"1995";;"Windows 7";"Rachel's Experiment (D.T.)";"1.0";"2";"1";"1";"2";"1";"1";"2014-10-13 14:37:06.220";"2014-10-13 14:52:49.764";"1";"1";"0";"119";"118";"module.training_block3.exec-9843.GoNoGo3";;;;;;;;;;;;;;;;;;;;;;;;;;;;;;;;;;;;;;;;;;;;;;;"1250";"2014-10-13 14:45:52.864";"NST_correctLoc";"17";"0";"FINISHED";"LEFT";"success";"682";"0";"2014-10-13 14:45:51.614";"2";;;;;;;;;;;;;;;;;;;;;;;;;;;;;;;;;
"1421980";"1995";;"Windows 7";"Rachel's Experiment (D.T.)";"1.0";"2";"1";"1";"2";"1";"1";"2014-10-13 14:37:06.220";"2014-10-13 14:52:49.764";"1";"1";"0";"120";"119";"module.training_block3.exec-9843.GoNoGo3";;;;;;;;;;;;;;;;;;;;;;;;;;;;;;;;;;;;;;;;;;;;;;;"1249";"2014-10-13 14:45:55.399";"ST_failedStop";"31";"1";"FINISHED";"RIGHT";"failure";"568";"1";"2014-10-13 14:45:54.149";"3";;;;;;;;;;;;;;;;;;;;;;;;;;;;;;;;;
"1421980";"1995";;"Windows 7";"Rachel's Experiment (D.T.)";"1.0";"2";"1";"1";"2";"1";"1";"2014-10-13 14:37:06.220";"2014-10-13 14:52:49.764";"1";"1";"0";"121";"120";"module.training_block3.exec-9843.GoNoGo3";;;;;;;;;;;;;;;;;;;;;;;;;;;;;;;;;;;;;;;;;;;;;;;"1249";"2014-10-13 14:45:57.933";"ST_correctStop";"19";"1";"FINISHED";"NONE";"success";"0";"1";"2014-10-13 14:45:56.683";"3";;;;;;;;;;;;;;;;;;;;;;;;;;;;;;;;;
"1421980";"1995";;"Windows 7";"Rachel's Experiment (D.T.)";"1.0";"2";"1";"1";"2";"1";"1";"2014-10-13 14:37:06.220";"2014-10-13 14:52:49.764";"1";"1";"0";"122";"121";"module.training_block3.exec-9843.GoNoGo3";;;;;;;;;;;;;;;;;;;;;;;;;;;;;;;;;;;;;;;;;;;;;;;"1250";"2014-10-13 14:46:00.466";"NST_correctLoc";"25";"0";"FINISHED";"LEFT";"success";"565";"0";"2014-10-13 14:45:59.215";"3";;;;;;;;;;;;;;;;;;;;;;;;;;;;;;;;;
"1421980";"1995";;"Windows 7";"Rachel's Experiment (D.T.)";"1.0";"2";"1";"1";"2";"1";"1";"2014-10-13 14:37:06.220";"2014-10-13 14:52:49.764";"1";"1";"0";"123";"122";"module.training_block3.exec-9843.GoNoGo3";;;;;;;;;;;;;;;;;;;;;;;;;;;;;;;;;;;;;;;;;;;;;;;"1249";"2014-10-13 14:46:02.998";"NST_correctLoc";"14";"1";"FINISHED";"RIGHT";"success";"682";"0";"2014-10-13 14:46:01.748";"2";;;;;;;;;;;;;;;;;;;;;;;;;;;;;;;;;
"1421980";"1995";;"Windows 7";"Rachel's Experiment (D.T.)";"1.0";"2";"1";"1";"2";"1";"1";"2014-10-13 14:37:06.220";"2014-10-13 14:52:49.764";"1";"1";"0";"124";"123";"module.training_block4.exec-3078.GoNoGo4";;;;;;;;;;;;;;;;;;;;;;;;;;;;;;;;;;;;;;;;;;;;;;;;;;;;;;;;;;;"1250";"2014-10-13 14:46:13.102";"ST_correctStop";"2";"1";"FINISHED";"NONE";"success";"0";"1";"2014-10-13 14:46:11.851";"1";;;;;;;;;;;;;;;;;;;;;
"1421980";"1995";;"Windows 7";"Rachel's Experiment (D.T.)";"1.0";"2";"1";"1";"2";"1";"1";"2014-10-13 14:37:06.220";"2014-10-13 14:52:49.764";"1";"1";"0";"125";"124";"module.training_block4.exec-3078.GoNoGo4";;;;;;;;;;;;;;;;;;;;;;;;;;;;;;;;;;;;;;;;;;;;;;;;;;;;;;;;;;;"1249";"2014-10-13 14:46:15.634";"NST_correctLoc";"10";"0";"FINISHED";"LEFT";"success";"616";"0";"2014-10-13 14:46:14.384";"2";;;;;;;;;;;;;;;;;;;;;
"1421980";"1995";;"Windows 7";"Rachel's Experiment (D.T.)";"1.0";"2";"1";"1";"2";"1";"1";"2014-10-13 14:37:06.220";"2014-10-13 14:52:49.764";"1";"1";"0";"126";"125";"module.training_block4.exec-3078.GoNoGo4";;;;;;;;;;;;;;;;;;;;;;;;;;;;;;;;;;;;;;;;;;;;;;;;;;;;;;;;;;;"1249";"2014-10-13 14:46:18.166";"NST_correctLoc";"27";"0";"FINISHED";"LEFT";"success";"806";"0";"2014-10-13 14:46:16.916";"3";;;;;;;;;;;;;;;;;;;;;
"1421980";"1995";;"Windows 7";"Rachel's Experiment (D.T.)";"1.0";"2";"1";"1";"2";"1";"1";"2014-10-13 14:37:06.220";"2014-10-13 14:52:49.764";"1";"1";"0";"127";"126";"module.training_block4.exec-3078.GoNoGo4";;;;;;;;;;;;;;;;;;;;;;;;;;;;;;;;;;;;;;;;;;;;;;;;;;;;;;;;;;;"1249";"2014-10-13 14:46:20.697";"NST_correctLoc";"29";"1";"FINISHED";"RIGHT";"success";"539";"0";"2014-10-13 14:46:19.447";"3";;;;;;;;;;;;;;;;;;;;;
"1421980";"1995";;"Windows 7";"Rachel's Experiment (D.T.)";"1.0";"2";"1";"1";"2";"1";"1";"2014-10-13 14:37:06.220";"2014-10-13 14:52:49.764";"1";"1";"0";"128";"127";"module.training_block4.exec-3078.GoNoGo4";;;;;;;;;;;;;;;;;;;;;;;;;;;;;;;;;;;;;;;;;;;;;;;;;;;;;;;;;;;"1249";"2014-10-13 14:46:23.232";"ST_correctStop";"23";"0";"FINISHED";"NONE";"success";"0";"1";"2014-10-13 14:46:21.982";"3";;;;;;;;;;;;;;;;;;;;;
"1421980";"1995";;"Windows 7";"Rachel's Experiment (D.T.)";"1.0";"2";"1";"1";"2";"1";"1";"2014-10-13 14:37:06.220";"2014-10-13 14:52:49.764";"1";"1";"0";"129";"128";"module.training_block4.exec-3078.GoNoGo4";;;;;;;;;;;;;;;;;;;;;;;;;;;;;;;;;;;;;;;;;;;;;;;;;;;;;;;;;;;"1249";"2014-10-13 14:46:25.763";"NST_correctLoc";"15";"1";"FINISHED";"RIGHT";"success";"599";"0";"2014-10-13 14:46:24.513";"2";;;;;;;;;;;;;;;;;;;;;
"1421980";"1995";;"Windows 7";"Rachel's Experiment (D.T.)";"1.0";"2";"1";"1";"2";"1";"1";"2014-10-13 14:37:06.220";"2014-10-13 14:52:49.764";"1";"1";"0";"130";"129";"module.training_block4.exec-3078.GoNoGo4";;;;;;;;;;;;;;;;;;;;;;;;;;;;;;;;;;;;;;;;;;;;;;;;;;;;;;;;;;;"1249";"2014-10-13 14:46:28.295";"ST_correctStop";"28";"1";"FINISHED";"NONE";"success";"0";"1";"2014-10-13 14:46:27.045";"3";;;;;;;;;;;;;;;;;;;;;
"1421980";"1995";;"Windows 7";"Rachel's Experiment (D.T.)";"1.0";"2";"1";"1";"2";"1";"1";"2014-10-13 14:37:06.220";"2014-10-13 14:52:49.764";"1";"1";"0";"131";"130";"module.training_block4.exec-3078.GoNoGo4";;;;;;;;;;;;;;;;;;;;;;;;;;;;;;;;;;;;;;;;;;;;;;;;;;;;;;;;;;;"1249";"2014-10-13 14:46:30.826";"ST_failedStop";"35";"0";"FINISHED";"LEFT";"failure";"545";"1";"2014-10-13 14:46:29.576";"3";;;;;;;;;;;;;;;;;;;;;
"1421980";"1995";;"Windows 7";"Rachel's Experiment (D.T.)";"1.0";"2";"1";"1";"2";"1";"1";"2014-10-13 14:37:06.220";"2014-10-13 14:52:49.764";"1";"1";"0";"132";"131";"module.training_block4.exec-3078.GoNoGo4";;;;;;;;;;;;;;;;;;;;;;;;;;;;;;;;;;;;;;;;;;;;;;;;;;;;;;;;;;;"1249";"2014-10-13 14:46:33.357";"ST_correctStop";"0";"0";"FINISHED";"NONE";"success";"0";"1";"2014-10-13 14:46:32.107";"1";;;;;;;;;;;;;;;;;;;;;
"1421980";"1995";;"Windows 7";"Rachel's Experiment (D.T.)";"1.0";"2";"1";"1";"2";"1";"1";"2014-10-13 14:37:06.220";"2014-10-13 14:52:49.764";"1";"1";"0";"133";"132";"module.training_block4.exec-3078.GoNoGo4";;;;;;;;;;;;;;;;;;;;;;;;;;;;;;;;;;;;;;;;;;;;;;;;;;;;;;;;;;;"1249";"2014-10-13 14:46:35.887";"ST_correctStop";"19";"0";"FINISHED";"NONE";"success";"0";"1";"2014-10-13 14:46:34.637";"3";;;;;;;;;;;;;;;;;;;;;
"1421980";"1995";;"Windows 7";"Rachel's Experiment (D.T.)";"1.0";"2";"1";"1";"2";"1";"1";"2014-10-13 14:37:06.220";"2014-10-13 14:52:49.764";"1";"1";"0";"134";"133";"module.training_block4.exec-3078.GoNoGo4";;;;;;;;;;;;;;;;;;;;;;;;;;;;;;;;;;;;;;;;;;;;;;;;;;;;;;;;;;;"1249";"2014-10-13 14:46:38.418";"NST_correctLoc";"22";"1";"FINISHED";"RIGHT";"success";"762";"0";"2014-10-13 14:46:37.168";"3";;;;;;;;;;;;;;;;;;;;;
"1421980";"1995";;"Windows 7";"Rachel's Experiment (D.T.)";"1.0";"2";"1";"1";"2";"1";"1";"2014-10-13 14:37:06.220";"2014-10-13 14:52:49.764";"1";"1";"0";"135";"134";"module.training_block4.exec-3078.GoNoGo4";;;;;;;;;;;;;;;;;;;;;;;;;;;;;;;;;;;;;;;;;;;;;;;;;;;;;;;;;;;"1249";"2014-10-13 14:46:40.949";"NST_correctLoc";"18";"0";"FINISHED";"LEFT";"success";"742";"0";"2014-10-13 14:46:39.699";"3";;;;;;;;;;;;;;;;;;;;;
"1421980";"1995";;"Windows 7";"Rachel's Experiment (D.T.)";"1.0";"2";"1";"1";"2";"1";"1";"2014-10-13 14:37:06.220";"2014-10-13 14:52:49.764";"1";"1";"0";"136";"135";"module.training_block4.exec-3078.GoNoGo4";;;;;;;;;;;;;;;;;;;;;;;;;;;;;;;;;;;;;;;;;;;;;;;;;;;;;;;;;;;"1249";"2014-10-13 14:46:43.482";"NST_correctLoc";"34";"0";"FINISHED";"LEFT";"success";"682";"0";"2014-10-13 14:46:42.232";"3";;;;;;;;;;;;;;;;;;;;;
"1421980";"1995";;"Windows 7";"Rachel's Experiment (D.T.)";"1.0";"2";"1";"1";"2";"1";"1";"2014-10-13 14:37:06.220";"2014-10-13 14:52:49.764";"1";"1";"0";"137";"136";"module.training_block4.exec-3078.GoNoGo4";;;;;;;;;;;;;;;;;;;;;;;;;;;;;;;;;;;;;;;;;;;;;;;;;;;;;;;;;;;"1249";"2014-10-13 14:46:46.023";"NST_correctLoc";"9";"0";"FINISHED";"LEFT";"success";"691";"0";"2014-10-13 14:46:44.773";"2";;;;;;;;;;;;;;;;;;;;;
"1421980";"1995";;"Windows 7";"Rachel's Experiment (D.T.)";"1.0";"2";"1";"1";"2";"1";"1";"2014-10-13 14:37:06.220";"2014-10-13 14:52:49.764";"1";"1";"0";"138";"137";"module.training_block4.exec-3078.GoNoGo4";;;;;;;;;;;;;;;;;;;;;;;;;;;;;;;;;;;;;;;;;;;;;;;;;;;;;;;;;;;"1249";"2014-10-13 14:46:48.554";"NST_correctLoc";"12";"0";"FINISHED";"LEFT";"success";"600";"0";"2014-10-13 14:46:47.304";"2";;;;;;;;;;;;;;;;;;;;;
"1421980";"1995";;"Windows 7";"Rachel's Experiment (D.T.)";"1.0";"2";"1";"1";"2";"1";"1";"2014-10-13 14:37:06.220";"2014-10-13 14:52:49.764";"1";"1";"0";"139";"138";"module.training_block4.exec-3078.GoNoGo4";;;;;;;;;;;;;;;;;;;;;;;;;;;;;;;;;;;;;;;;;;;;;;;;;;;;;;;;;;;"1249";"2014-10-13 14:46:51.084";"NST_correctLoc";"32";"0";"FINISHED";"LEFT";"success";"829";"0";"2014-10-13 14:46:49.834";"3";;;;;;;;;;;;;;;;;;;;;
"1421980";"1995";;"Windows 7";"Rachel's Experiment (D.T.)";"1.0";"2";"1";"1";"2";"1";"1";"2014-10-13 14:37:06.220";"2014-10-13 14:52:49.764";"1";"1";"0";"140";"139";"module.training_block4.exec-3078.GoNoGo4";;;;;;;;;;;;;;;;;;;;;;;;;;;;;;;;;;;;;;;;;;;;;;;;;;;;;;;;;;;"1250";"2014-10-13 14:46:53.616";"ST_correctStop";"4";"0";"FINISHED";"NONE";"success";"0";"1";"2014-10-13 14:46:52.366";"1";;;;;;;;;;;;;;;;;;;;;
"1421980";"1995";;"Windows 7";"Rachel's Experiment (D.T.)";"1.0";"2";"1";"1";"2";"1";"1";"2014-10-13 14:37:06.220";"2014-10-13 14:52:49.764";"1";"1";"0";"141";"140";"module.training_block4.exec-3078.GoNoGo4";;;;;;;;;;;;;;;;;;;;;;;;;;;;;;;;;;;;;;;;;;;;;;;;;;;;;;;;;;;"1249";"2014-10-13 14:46:56.147";"ST_failedStop";"21";"1";"FINISHED";"RIGHT";"failure";"573";"1";"2014-10-13 14:46:54.897";"3";;;;;;;;;;;;;;;;;;;;;
"1421980";"1995";;"Windows 7";"Rachel's Experiment (D.T.)";"1.0";"2";"1";"1";"2";"1";"1";"2014-10-13 14:37:06.220";"2014-10-13 14:52:49.764";"1";"1";"0";"142";"141";"module.training_block4.exec-3078.GoNoGo4";;;;;;;;;;;;;;;;;;;;;;;;;;;;;;;;;;;;;;;;;;;;;;;;;;;;;;;;;;;"1249";"2014-10-13 14:46:58.678";"ST_correctStop";"7";"1";"FINISHED";"NONE";"success";"0";"1";"2014-10-13 14:46:57.428";"1";;;;;;;;;;;;;;;;;;;;;
"1421980";"1995";;"Windows 7";"Rachel's Experiment (D.T.)";"1.0";"2";"1";"1";"2";"1";"1";"2014-10-13 14:37:06.220";"2014-10-13 14:52:49.764";"1";"1";"0";"143";"142";"module.training_block4.exec-3078.GoNoGo4";;;;;;;;;;;;;;;;;;;;;;;;;;;;;;;;;;;;;;;;;;;;;;;;;;;;;;;;;;;"1249";"2014-10-13 14:47:01.208";"ST_correctStop";"33";"1";"FINISHED";"NONE";"success";"0";"1";"2014-10-13 14:46:59.958";"3";;;;;;;;;;;;;;;;;;;;;
"1421980";"1995";;"Windows 7";"Rachel's Experiment (D.T.)";"1.0";"2";"1";"1";"2";"1";"1";"2014-10-13 14:37:06.220";"2014-10-13 14:52:49.764";"1";"1";"0";"144";"143";"module.training_block4.exec-3078.GoNoGo4";;;;;;;;;;;;;;;;;;;;;;;;;;;;;;;;;;;;;;;;;;;;;;;;;;;;;;;;;;;"1249";"2014-10-13 14:47:03.739";"ST_correctStop";"3";"1";"FINISHED";"NONE";"success";"0";"1";"2014-10-13 14:47:02.489";"1";;;;;;;;;;;;;;;;;;;;;
"1421980";"1995";;"Windows 7";"Rachel's Experiment (D.T.)";"1.0";"2";"1";"1";"2";"1";"1";"2014-10-13 14:37:06.220";"2014-10-13 14:52:49.764";"1";"1";"0";"145";"144";"module.training_block4.exec-3078.GoNoGo4";;;;;;;;;;;;;;;;;;;;;;;;;;;;;;;;;;;;;;;;;;;;;;;;;;;;;;;;;;;"1249";"2014-10-13 14:47:06.269";"ST_correctStop";"5";"0";"FINISHED";"NONE";"success";"0";"1";"2014-10-13 14:47:05.019";"1";;;;;;;;;;;;;;;;;;;;;
"1421980";"1995";;"Windows 7";"Rachel's Experiment (D.T.)";"1.0";"2";"1";"1";"2";"1";"1";"2014-10-13 14:37:06.220";"2014-10-13 14:52:49.764";"1";"1";"0";"146";"145";"module.training_block4.exec-3078.GoNoGo4";;;;;;;;;;;;;;;;;;;;;;;;;;;;;;;;;;;;;;;;;;;;;;;;;;;;;;;;;;;"1249";"2014-10-13 14:47:08.799";"NST_correctLoc";"13";"0";"FINISHED";"LEFT";"success";"770";"0";"2014-10-13 14:47:07.549";"2";;;;;;;;;;;;;;;;;;;;;
"1421980";"1995";;"Windows 7";"Rachel's Experiment (D.T.)";"1.0";"2";"1";"1";"2";"1";"1";"2014-10-13 14:37:06.220";"2014-10-13 14:52:49.764";"1";"1";"0";"147";"146";"module.training_block4.exec-3078.GoNoGo4";;;;;;;;;;;;;;;;;;;;;;;;;;;;;;;;;;;;;;;;;;;;;;;;;;;;;;;;;;;"1249";"2014-10-13 14:47:11.329";"ST_correctStop";"8";"0";"FINISHED";"NONE";"success";"0";"1";"2014-10-13 14:47:10.079";"1";;;;;;;;;;;;;;;;;;;;;
"1421980";"1995";;"Windows 7";"Rachel's Experiment (D.T.)";"1.0";"2";"1";"1";"2";"1";"1";"2014-10-13 14:37:06.220";"2014-10-13 14:52:49.764";"1";"1";"0";"148";"147";"module.training_block4.exec-3078.GoNoGo4";;;;;;;;;;;;;;;;;;;;;;;;;;;;;;;;;;;;;;;;;;;;;;;;;;;;;;;;;;;"1249";"2014-10-13 14:47:13.860";"NST_correctLoc";"20";"0";"FINISHED";"LEFT";"success";"820";"0";"2014-10-13 14:47:12.609";"3";;;;;;;;;;;;;;;;;;;;;
"1421980";"1995";;"Windows 7";"Rachel's Experiment (D.T.)";"1.0";"2";"1";"1";"2";"1";"1";"2014-10-13 14:37:06.220";"2014-10-13 14:52:49.764";"1";"1";"0";"149";"148";"module.training_block4.exec-3078.GoNoGo4";;;;;;;;;;;;;;;;;;;;;;;;;;;;;;;;;;;;;;;;;;;;;;;;;;;;;;;;;;;"1249";"2014-10-13 14:47:16.389";"ST_correctStop";"26";"1";"FINISHED";"NONE";"success";"0";"1";"2014-10-13 14:47:15.139";"3";;;;;;;;;;;;;;;;;;;;;
"1421980";"1995";;"Windows 7";"Rachel's Experiment (D.T.)";"1.0";"2";"1";"1";"2";"1";"1";"2014-10-13 14:37:06.220";"2014-10-13 14:52:49.764";"1";"1";"0";"150";"149";"module.training_block4.exec-3078.GoNoGo4";;;;;;;;;;;;;;;;;;;;;;;;;;;;;;;;;;;;;;;;;;;;;;;;;;;;;;;;;;;"1249";"2014-10-13 14:47:18.917";"NST_correctLoc";"16";"1";"FINISHED";"RIGHT";"success";"627";"0";"2014-10-13 14:47:17.667";"2";;;;;;;;;;;;;;;;;;;;;
"1421980";"1995";;"Windows 7";"Rachel's Experiment (D.T.)";"1.0";"2";"1";"1";"2";"1";"1";"2014-10-13 14:37:06.220";"2014-10-13 14:52:49.764";"1";"1";"0";"151";"150";"module.training_block4.exec-3078.GoNoGo4";;;;;;;;;;;;;;;;;;;;;;;;;;;;;;;;;;;;;;;;;;;;;;;;;;;;;;;;;;;"1250";"2014-10-13 14:47:21.447";"NST_correctLoc";"17";"1";"FINISHED";"RIGHT";"success";"834";"0";"2014-10-13 14:47:20.197";"2";;;;;;;;;;;;;;;;;;;;;
"1421980";"1995";;"Windows 7";"Rachel's Experiment (D.T.)";"1.0";"2";"1";"1";"2";"1";"1";"2014-10-13 14:37:06.220";"2014-10-13 14:52:49.764";"1";"1";"0";"152";"151";"module.training_block4.exec-3078.GoNoGo4";;;;;;;;;;;;;;;;;;;;;;;;;;;;;;;;;;;;;;;;;;;;;;;;;;;;;;;;;;;"1249";"2014-10-13 14:47:23.980";"ST_correctStop";"24";"1";"FINISHED";"NONE";"success";"0";"1";"2014-10-13 14:47:22.730";"3";;;;;;;;;;;;;;;;;;;;;
"1421980";"1995";;"Windows 7";"Rachel's Experiment (D.T.)";"1.0";"2";"1";"1";"2";"1";"1";"2014-10-13 14:37:06.220";"2014-10-13 14:52:49.764";"1";"1";"0";"153";"152";"module.training_block4.exec-3078.GoNoGo4";;;;;;;;;;;;;;;;;;;;;;;;;;;;;;;;;;;;;;;;;;;;;;;;;;;;;;;;;;;"1249";"2014-10-13 14:47:26.509";"NST_correctLoc";"11";"0";"FINISHED";"LEFT";"success";"640";"0";"2014-10-13 14:47:25.259";"2";;;;;;;;;;;;;;;;;;;;;
"1421980";"1995";;"Windows 7";"Rachel's Experiment (D.T.)";"1.0";"2";"1";"1";"2";"1";"1";"2014-10-13 14:37:06.220";"2014-10-13 14:52:49.764";"1";"1";"0";"154";"153";"module.training_block4.exec-3078.GoNoGo4";;;;;;;;;;;;;;;;;;;;;;;;;;;;;;;;;;;;;;;;;;;;;;;;;;;;;;;;;;;"1250";"2014-10-13 14:47:29.041";"NST_correctLoc";"25";"0";"FINISHED";"LEFT";"success";"845";"0";"2014-10-13 14:47:27.791";"3";;;;;;;;;;;;;;;;;;;;;
"1421980";"1995";;"Windows 7";"Rachel's Experiment (D.T.)";"1.0";"2";"1";"1";"2";"1";"1";"2014-10-13 14:37:06.220";"2014-10-13 14:52:49.764";"1";"1";"0";"155";"154";"module.training_block4.exec-3078.GoNoGo4";;;;;;;;;;;;;;;;;;;;;;;;;;;;;;;;;;;;;;;;;;;;;;;;;;;;;;;;;;;"1249";"2014-10-13 14:47:31.572";"NST_correctLoc";"30";"1";"FINISHED";"RIGHT";"success";"827";"0";"2014-10-13 14:47:30.321";"3";;;;;;;;;;;;;;;;;;;;;
"1421980";"1995";;"Windows 7";"Rachel's Experiment (D.T.)";"1.0";"2";"1";"1";"2";"1";"1";"2014-10-13 14:37:06.220";"2014-10-13 14:52:49.764";"1";"1";"0";"156";"155";"module.training_block4.exec-3078.GoNoGo4";;;;;;;;;;;;;;;;;;;;;;;;;;;;;;;;;;;;;;;;;;;;;;;;;;;;;;;;;;;"1249";"2014-10-13 14:47:34.103";"ST_correctStop";"6";"0";"FINISHED";"NONE";"success";"0";"1";"2014-10-13 14:47:32.853";"1";;;;;;;;;;;;;;;;;;;;;
"1421980";"1995";;"Windows 7";"Rachel's Experiment (D.T.)";"1.0";"2";"1";"1";"2";"1";"1";"2014-10-13 14:37:06.220";"2014-10-13 14:52:49.764";"1";"1";"0";"157";"156";"module.training_block4.exec-3078.GoNoGo4";;;;;;;;;;;;;;;;;;;;;;;;;;;;;;;;;;;;;;;;;;;;;;;;;;;;;;;;;;;"1249";"2014-10-13 14:47:36.633";"ST_correctStop";"1";"0";"FINISHED";"NONE";"success";"0";"1";"2014-10-13 14:47:35.383";"1";;;;;;;;;;;;;;;;;;;;;
"1421980";"1995";;"Windows 7";"Rachel's Experiment (D.T.)";"1.0";"2";"1";"1";"2";"1";"1";"2014-10-13 14:37:06.220";"2014-10-13 14:52:49.764";"1";"1";"0";"158";"157";"module.training_block4.exec-3078.GoNoGo4";;;;;;;;;;;;;;;;;;;;;;;;;;;;;;;;;;;;;;;;;;;;;;;;;;;;;;;;;;;"1249";"2014-10-13 14:47:39.162";"ST_correctStop";"31";"0";"FINISHED";"NONE";"success";"0";"1";"2014-10-13 14:47:37.912";"3";;;;;;;;;;;;;;;;;;;;;
"1421980";"1995";;"Windows 7";"Rachel's Experiment (D.T.)";"1.0";"2";"1";"1";"2";"1";"1";"2014-10-13 14:37:06.220";"2014-10-13 14:52:49.764";"1";"1";"0";"159";"158";"module.training_block4.exec-3078.GoNoGo4";;;;;;;;;;;;;;;;;;;;;;;;;;;;;;;;;;;;;;;;;;;;;;;;;;;;;;;;;;;"1249";"2014-10-13 14:47:41.709";"NST_correctLoc";"14";"0";"FINISHED";"LEFT";"success";"688";"0";"2014-10-13 14:47:40.459";"2";;;;;;;;;;;;;;;;;;;;;
"1421980";"1995";;"Windows 7";"Rachel's Experiment (D.T.)";"1.0";"2";"1";"1";"2";"1";"1";"2014-10-13 14:37:06.220";"2014-10-13 14:52:49.764";"1";"1";"0";"160";"159";"module.devaluation_practice.exec-7304.devalPractice";;;;;;;;;;;;"15716";"2014-10-13 14:48:41.918";"0";"7";"6";"7";"5326";"2809";"4503";"2014-10-13 14:48:26.201";;;;;;;;;;;;;;;;;;;;;;;;;;;;;;;;;;;;;;;;;;;;;;;;;;;;;;;;;;;;;;;;;;;;;;
"1421980";"1995";;"Windows 7";"Rachel's Experiment (D.T.)";"1.0";"2";"1";"1";"2";"1";"1";"2014-10-13 14:37:06.220";"2014-10-13 14:52:49.764";"1";"1";"0";"161";"160";"module.devaluation_practice.exec-7304.devalPractice";;;;;;;;;;;;"12703";"2014-10-13 14:48:54.658";"1";"3";"2";"6";"3143";"2511";"4032";"2014-10-13 14:48:41.955";;;;;;;;;;;;;;;;;;;;;;;;;;;;;;;;;;;;;;;;;;;;;;;;;;;;;;;;;;;;;;;;;;;;;;
"1421980";"1995";;"Windows 7";"Rachel's Experiment (D.T.)";"1.0";"2";"1";"1";"2";"1";"1";"2014-10-13 14:37:06.220";"2014-10-13 14:52:49.764";"1";"1";"0";"162";"161";"module.devaluation_practice.exec-7304.devalPractice";;;;;;;;;;;;"11780";"2014-10-13 14:49:06.482";"2";"5";"3";"9";"1997";"4388";"2357";"2014-10-13 14:48:54.701";;;;;;;;;;;;;;;;;;;;;;;;;;;;;;;;;;;;;;;;;;;;;;;;;;;;;;;;;;;;;;;;;;;;;;
"1421980";"1995";;"Windows 7";"Rachel's Experiment (D.T.)";"1.0";"2";"1";"1";"2";"1";"1";"2014-10-13 14:37:06.220";"2014-10-13 14:52:49.764";"1";"1";"0";"163";"162";"module.devaluation_practice.exec-7304.devalPractice";;;;;;;;;;;;"9701";"2014-10-13 14:49:16.222";"3";"3";"1";"2";"2780";"1469";"2410";"2014-10-13 14:49:06.519";;;;;;;;;;;;;;;;;;;;;;;;;;;;;;;;;;;;;;;;;;;;;;;;;;;;;;;;;;;;;;;;;;;;;;
"1421980";"1995";;"Windows 7";"Rachel's Experiment (D.T.)";"1.0";"2";"1";"1";"2";"1";"1";"2014-10-13 14:37:06.220";"2014-10-13 14:52:49.764";"1";"1";"0";"164";"163";"module.devaluation_block1.exec-1424.deval1";"8890";"2014-10-13 14:49:29.231";"26";"7";"3";"6";"2194";"1178";"2491";"2014-10-13 14:49:20.341";"3";;;;;;;;;;;;;;;;;;;;;;;;;;;;;;;;;;;;;;;;;;;;;;;;;;;;;;;;;;;;;;;;;;;;;;;;;;;;;;;;
"1421980";"1995";;"Windows 7";"Rachel's Experiment (D.T.)";"1.0";"2";"1";"1";"2";"1";"1";"2014-10-13 14:37:06.220";"2014-10-13 14:52:49.764";"1";"1";"0";"165";"164";"module.devaluation_block1.exec-1424.deval1";"7760";"2014-10-13 14:49:37.028";"2";"3";"5";"7";"2090";"684";"1965";"2014-10-13 14:49:29.267";"1";;;;;;;;;;;;;;;;;;;;;;;;;;;;;;;;;;;;;;;;;;;;;;;;;;;;;;;;;;;;;;;;;;;;;;;;;;;;;;;;
"1421980";"1995";;"Windows 7";"Rachel's Experiment (D.T.)";"1.0";"2";"1";"1";"2";"1";"1";"2014-10-13 14:37:06.220";"2014-10-13 14:52:49.764";"1";"1";"0";"166";"165";"module.devaluation_block1.exec-1424.deval1";"7826";"2014-10-13 14:49:44.890";"16";"2";"1";"4";"2082";"1531";"1193";"2014-10-13 14:49:37.064";"2";;;;;;;;;;;;;;;;;;;;;;;;;;;;;;;;;;;;;;;;;;;;;;;;;;;;;;;;;;;;;;;;;;;;;;;;;;;;;;;;
"1421980";"1995";;"Windows 7";"Rachel's Experiment (D.T.)";"1.0";"2";"1";"1";"2";"1";"1";"2014-10-13 14:37:06.220";"2014-10-13 14:52:49.764";"1";"1";"0";"167";"166";"module.devaluation_block1.exec-1424.deval1";"6876";"2014-10-13 14:49:51.815";"22";"6";"1";"3";"1415";"1413";"1028";"2014-10-13 14:49:44.938";"3";;;;;;;;;;;;;;;;;;;;;;;;;;;;;;;;;;;;;;;;;;;;;;;;;;;;;;;;;;;;;;;;;;;;;;;;;;;;;;;;
"1421980";"1995";;"Windows 7";"Rachel's Experiment (D.T.)";"1.0";"2";"1";"1";"2";"1";"1";"2014-10-13 14:37:06.220";"2014-10-13 14:52:49.764";"1";"1";"0";"168";"167";"module.devaluation_block1.exec-1424.deval1";"7606";"2014-10-13 14:49:59.461";"23";"7";"1";"6";"1846";"1419";"1317";"2014-10-13 14:49:51.854";"3";;;;;;;;;;;;;;;;;;;;;;;;;;;;;;;;;;;;;;;;;;;;;;;;;;;;;;;;;;;;;;;;;;;;;;;;;;;;;;;;
"1421980";"1995";;"Windows 7";"Rachel's Experiment (D.T.)";"1.0";"2";"1";"1";"2";"1";"1";"2014-10-13 14:37:06.220";"2014-10-13 14:52:49.764";"1";"1";"0";"169";"168";"module.devaluation_block1.exec-1424.deval1";"7344";"2014-10-13 14:50:06.843";"11";"2";"1";"3";"1446";"1464";"1414";"2014-10-13 14:49:59.499";"2";;;;;;;;;;;;;;;;;;;;;;;;;;;;;;;;;;;;;;;;;;;;;;;;;;;;;;;;;;;;;;;;;;;;;;;;;;;;;;;;
"1421980";"1995";;"Windows 7";"Rachel's Experiment (D.T.)";"1.0";"2";"1";"1";"2";"1";"1";"2014-10-13 14:37:06.220";"2014-10-13 14:52:49.764";"1";"1";"0";"170";"169";"module.devaluation_block1.exec-1424.deval1";"9235";"2014-10-13 14:50:16.116";"4";"7";"1";"6";"2131";"2098";"1988";"2014-10-13 14:50:06.880";"1";;;;;;;;;;;;;;;;;;;;;;;;;;;;;;;;;;;;;;;;;;;;;;;;;;;;;;;;;;;;;;;;;;;;;;;;;;;;;;;;
"1421980";"1995";;"Windows 7";"Rachel's Experiment (D.T.)";"1.0";"2";"1";"1";"2";"1";"1";"2014-10-13 14:37:06.220";"2014-10-13 14:52:49.764";"1";"1";"0";"171";"170";"module.devaluation_block1.exec-1424.deval1";"7817";"2014-10-13 14:50:23.970";"13";"4";"2";"5";"884";"1513";"2401";"2014-10-13 14:50:16.152";"2";;;;;;;;;;;;;;;;;;;;;;;;;;;;;;;;;;;;;;;;;;;;;;;;;;;;;;;;;;;;;;;;;;;;;;;;;;;;;;;;
"1421980";"1995";;"Windows 7";"Rachel's Experiment (D.T.)";"1.0";"2";"1";"1";"2";"1";"1";"2014-10-13 14:37:06.220";"2014-10-13 14:52:49.764";"1";"1";"0";"172";"171";"module.devaluation_block1.exec-1424.deval1";"7390";"2014-10-13 14:50:31.396";"12";"3";"6";"6";"1671";"1853";"841";"2014-10-13 14:50:24.005";"2";;;;;;;;;;;;;;;;;;;;;;;;;;;;;;;;;;;;;;;;;;;;;;;;;;;;;;;;;;;;;;;;;;;;;;;;;;;;;;;;
"1421980";"1995";;"Windows 7";"Rachel's Experiment (D.T.)";"1.0";"2";"1";"1";"2";"1";"1";"2014-10-13 14:37:06.220";"2014-10-13 14:52:49.764";"1";"1";"0";"173";"172";"module.devaluation_block1.exec-1424.deval1";"10776";"2014-10-13 14:50:42.208";"8";"3";"1";"3";"3548";"1736";"2475";"2014-10-13 14:50:31.432";"1";;;;;;;;;;;;;;;;;;;;;;;;;;;;;;;;;;;;;;;;;;;;;;;;;;;;;;;;;;;;;;;;;;;;;;;;;;;;;;;;
"1421980";"1995";;"Windows 7";"Rachel's Experiment (D.T.)";"1.0";"2";"1";"1";"2";"1";"1";"2014-10-13 14:37:06.220";"2014-10-13 14:52:49.764";"1";"1";"0";"174";"173";"module.devaluation_block1.exec-1424.deval1";"8027";"2014-10-13 14:50:50.274";"14";"2";"4";"4";"1561";"1750";"1698";"2014-10-13 14:50:42.245";"2";;;;;;;;;;;;;;;;;;;;;;;;;;;;;;;;;;;;;;;;;;;;;;;;;;;;;;;;;;;;;;;;;;;;;;;;;;;;;;;;
"1421980";"1995";;"Windows 7";"Rachel's Experiment (D.T.)";"1.0";"2";"1";"1";"2";"1";"1";"2014-10-13 14:37:06.220";"2014-10-13 14:52:49.764";"1";"1";"0";"175";"174";"module.devaluation_block1.exec-1424.deval1";"8106";"2014-10-13 14:50:58.417";"6";"3";"2";"4";"2804";"1186";"1099";"2014-10-13 14:50:50.311";"1";;;;;;;;;;;;;;;;;;;;;;;;;;;;;;;;;;;;;;;;;;;;;;;;;;;;;;;;;;;;;;;;;;;;;;;;;;;;;;;;
"1421980";"1995";;"Windows 7";"Rachel's Experiment (D.T.)";"1.0";"2";"1";"1";"2";"1";"1";"2014-10-13 14:37:06.220";"2014-10-13 14:52:49.764";"1";"1";"0";"176";"175";"module.devaluation_block1.exec-1424.deval1";"6692";"2014-10-13 14:51:05.147";"15";"2";"1";"2";"1233";"1273";"1167";"2014-10-13 14:50:58.454";"2";;;;;;;;;;;;;;;;;;;;;;;;;;;;;;;;;;;;;;;;;;;;;;;;;;;;;;;;;;;;;;;;;;;;;;;;;;;;;;;;
"1421980";"1995";;"Windows 7";"Rachel's Experiment (D.T.)";"1.0";"2";"1";"1";"2";"1";"1";"2014-10-13 14:37:06.220";"2014-10-13 14:52:49.764";"1";"1";"0";"177";"176";"module.devaluation_block1.exec-1424.deval1";"6887";"2014-10-13 14:51:12.073";"25";"4";"1";"3";"1184";"1453";"1231";"2014-10-13 14:51:05.186";"3";;;;;;;;;;;;;;;;;;;;;;;;;;;;;;;;;;;;;;;;;;;;;;;;;;;;;;;;;;;;;;;;;;;;;;;;;;;;;;;;
"1421980";"1995";;"Windows 7";"Rachel's Experiment (D.T.)";"1.0";"2";"1";"1";"2";"1";"1";"2014-10-13 14:37:06.220";"2014-10-13 14:52:49.764";"1";"1";"0";"178";"177";"module.devaluation_block1.exec-1424.deval1";"9145";"2014-10-13 14:51:21.251";"17";"2";"3";"4";"2474";"1252";"2401";"2014-10-13 14:51:12.104";"2";;;;;;;;;;;;;;;;;;;;;;;;;;;;;;;;;;;;;;;;;;;;;;;;;;;;;;;;;;;;;;;;;;;;;;;;;;;;;;;;
"1421980";"1995";;"Windows 7";"Rachel's Experiment (D.T.)";"1.0";"2";"1";"1";"2";"1";"1";"2014-10-13 14:37:06.220";"2014-10-13 14:52:49.764";"1";"1";"0";"179";"178";"module.devaluation_block1.exec-1424.deval1";"7736";"2014-10-13 14:51:29.025";"19";"7";"7";"8";"1697";"1613";"1405";"2014-10-13 14:51:21.288";"3";;;;;;;;;;;;;;;;;;;;;;;;;;;;;;;;;;;;;;;;;;;;;;;;;;;;;;;;;;;;;;;;;;;;;;;;;;;;;;;;
"1421980";"1995";;"Windows 7";"Rachel's Experiment (D.T.)";"1.0";"2";"1";"1";"2";"1";"1";"2014-10-13 14:37:06.220";"2014-10-13 14:52:49.764";"1";"1";"0";"180";"179";"module.devaluation_block1.exec-1424.deval1";"6796";"2014-10-13 14:51:35.855";"1";"3";"5";"6";"1630";"656";"1492";"2014-10-13 14:51:29.058";"1";;;;;;;;;;;;;;;;;;;;;;;;;;;;;;;;;;;;;;;;;;;;;;;;;;;;;;;;;;;;;;;;;;;;;;;;;;;;;;;;
"1421980";"1995";;"Windows 7";"Rachel's Experiment (D.T.)";"1.0";"2";"1";"1";"2";"1";"1";"2014-10-13 14:37:06.220";"2014-10-13 14:52:49.764";"1";"1";"0";"181";"180";"module.devaluation_block1.exec-1424.deval1";"6358";"2014-10-13 14:51:42.252";"10";"7";"1";"3";"860";"1188";"1291";"2014-10-13 14:51:35.893";"2";;;;;;;;;;;;;;;;;;;;;;;;;;;;;;;;;;;;;;;;;;;;;;;;;;;;;;;;;;;;;;;;;;;;;;;;;;;;;;;;
"1421980";"1995";;"Windows 7";"Rachel's Experiment (D.T.)";"1.0";"2";"1";"1";"2";"1";"1";"2014-10-13 14:37:06.220";"2014-10-13 14:52:49.764";"1";"1";"0";"182";"181";"module.devaluation_block1.exec-1424.deval1";"7236";"2014-10-13 14:51:49.524";"5";"3";"7";"7";"1259";"1790";"1170";"2014-10-13 14:51:42.288";"1";;;;;;;;;;;;;;;;;;;;;;;;;;;;;;;;;;;;;;;;;;;;;;;;;;;;;;;;;;;;;;;;;;;;;;;;;;;;;;;;
"1421980";"1995";;"Windows 7";"Rachel's Experiment (D.T.)";"1.0";"2";"1";"1";"2";"1";"1";"2014-10-13 14:37:06.220";"2014-10-13 14:52:49.764";"1";"1";"0";"183";"182";"module.devaluation_block1.exec-1424.deval1";"8498";"2014-10-13 14:51:58.058";"9";"3";"6";"4";"918";"3101";"1461";"2014-10-13 14:51:49.559";"2";;;;;;;;;;;;;;;;;;;;;;;;;;;;;;;;;;;;;;;;;;;;;;;;;;;;;;;;;;;;;;;;;;;;;;;;;;;;;;;;
"1421980";"1995";;"Windows 7";"Rachel's Experiment (D.T.)";"1.0";"2";"1";"1";"2";"1";"1";"2014-10-13 14:37:06.220";"2014-10-13 14:52:49.764";"1";"1";"0";"184";"183";"module.devaluation_block1.exec-1424.deval1";"7989";"2014-10-13 14:52:06.084";"18";"6";"9";"8";"2592";"1305";"1073";"2014-10-13 14:51:58.096";"3";;;;;;;;;;;;;;;;;;;;;;;;;;;;;;;;;;;;;;;;;;;;;;;;;;;;;;;;;;;;;;;;;;;;;;;;;;;;;;;;
"1421980";"1995";;"Windows 7";"Rachel's Experiment (D.T.)";"1.0";"2";"1";"1";"2";"1";"1";"2014-10-13 14:37:06.220";"2014-10-13 14:52:49.764";"1";"1";"0";"185";"184";"module.devaluation_block1.exec-1424.deval1";"6978";"2014-10-13 14:52:13.101";"21";"7";"8";"8";"1746";"1013";"1202";"2014-10-13 14:52:06.122";"3";;;;;;;;;;;;;;;;;;;;;;;;;;;;;;;;;;;;;;;;;;;;;;;;;;;;;;;;;;;;;;;;;;;;;;;;;;;;;;;;
"1421980";"1995";;"Windows 7";"Rachel's Experiment (D.T.)";"1.0";"2";"1";"1";"2";"1";"1";"2014-10-13 14:37:06.220";"2014-10-13 14:52:49.764";"1";"1";"0";"186";"185";"module.devaluation_block1.exec-1424.deval1";"6980";"2014-10-13 14:52:20.118";"24";"2";"1";"2";"1676";"1145";"1141";"2014-10-13 14:52:13.138";"3";;;;;;;;;;;;;;;;;;;;;;;;;;;;;;;;;;;;;;;;;;;;;;;;;;;;;;;;;;;;;;;;;;;;;;;;;;;;;;;;
"1421980";"1995";;"Windows 7";"Rachel's Experiment (D.T.)";"1.0";"2";"1";"1";"2";"1";"1";"2014-10-13 14:37:06.220";"2014-10-13 14:52:49.764";"1";"1";"0";"187";"186";"module.devaluation_block1.exec-1424.deval1";"6740";"2014-10-13 14:52:26.894";"0";"3";"6";"7";"2068";"791";"863";"2014-10-13 14:52:20.154";"1";;;;;;;;;;;;;;;;;;;;;;;;;;;;;;;;;;;;;;;;;;;;;;;;;;;;;;;;;;;;;;;;;;;;;;;;;;;;;;;;
"1421980";"1995";;"Windows 7";"Rachel's Experiment (D.T.)";"1.0";"2";"1";"1";"2";"1";"1";"2014-10-13 14:37:06.220";"2014-10-13 14:52:49.764";"1";"1";"0";"188";"187";"module.devaluation_block1.exec-1424.deval1";"9552";"2014-10-13 14:52:36.493";"20";"4";"1";"2";"3651";"1116";"1761";"2014-10-13 14:52:26.941";"3";;;;;;;;;;;;;;;;;;;;;;;;;;;;;;;;;;;;;;;;;;;;;;;;;;;;;;;;;;;;;;;;;;;;;;;;;;;;;;;;
"1421980";"1995";;"Windows 7";"Rachel's Experiment (D.T.)";"1.0";"2";"1";"1";"2";"1";"1";"2014-10-13 14:37:06.220";"2014-10-13 14:52:49.764";"1";"1";"0";"189";"188";"module.devaluation_block1.exec-1424.deval1";"5654";"2014-10-13 14:52:42.189";"7";"4";"6";"7";"1019";"802";"815";"2014-10-13 14:52:36.535";"1";;;;;;;;;;;;;;;;;;;;;;;;;;;;;;;;;;;;;;;;;;;;;;;;;;;;;;;;;;;;;;;;;;;;;;;;;;;;;;;;
"1421980";"1995";;"Windows 7";"Rachel's Experiment (D.T.)";"1.0";"2";"1";"1";"2";"1";"1";"2014-10-13 14:37:06.220";"2014-10-13 14:52:49.764";"1";"1";"0";"190";"189";"module.devaluation_block1.exec-1424.deval1";"5565";"2014-10-13 14:52:47.791";"3";"3";"7";"7";"846";"828";"874";"2014-10-13 14:52:42.224";"1";;;;;;;;;;;;;;;;;;;;;;;;;;;;;;;;;;;;;;;;;;;;;;;;;;;;;;;;;;;;;;;;;;;;;;;;;;;;;;;;
