"user.name";"user.yearOfBirth";"user.sex";"user.osName";"module.name";"module.version";"module.online.subject.code";"module.online.study.id";"module.online.module.nr";"module.online.group.nr";"session.id";"session.index";"session.startTime";"session.endTime";"session.completed";"session.node-7054.DevalQorder";"session.node-7271.conditionType";"trial.id";"trial.index";"trial.name";"trial.deval1.durationTime";"trial.deval1.endTime";"trial.deval1.icon";"trial.deval1.Resp_Attractive";"trial.deval1.Resp_Eat";"trial.deval1.Resp_Taste";"trial.deval1.RT_Attractive";"trial.deval1.RT_Eat";"trial.deval1.RT_Taste";"trial.deval1.startTime";"trial.deval1.stimulus type";"trial.devalPractice.durationTime";"trial.devalPractice.endTime";"trial.devalPractice.icon";"trial.devalPractice.Resp_Attractive";"trial.devalPractice.Resp_Eat";"trial.devalPractice.Resp_Taste";"trial.devalPractice.RT_Attractive";"trial.devalPractice.RT_Eat";"trial.devalPractice.RT_Taste";"trial.devalPractice.startTime";"trial.devalPractice.stimulus type";"trial.GoNoGo1.durationTime";"trial.GoNoGo1.endTime";"trial.GoNoGo1.Error Type";"trial.GoNoGo1.icon";"trial.GoNoGo1.location";"trial.GoNoGo1.outcome";"trial.GoNoGo1.response";"trial.GoNoGo1.result";"trial.GoNoGo1.RT";"trial.GoNoGo1.signal";"trial.GoNoGo1.startTime";"trial.GoNoGo1.stimulus type";"trial.GoNoGo2.durationTime";"trial.GoNoGo2.endTime";"trial.GoNoGo2.Error Type";"trial.GoNoGo2.icon";"trial.GoNoGo2.location";"trial.GoNoGo2.outcome";"trial.GoNoGo2.response";"trial.GoNoGo2.result";"trial.GoNoGo2.RT";"trial.GoNoGo2.signal";"trial.GoNoGo2.startTime";"trial.GoNoGo2.stimulus type";"trial.GoNoGo3.durationTime";"trial.GoNoGo3.endTime";"trial.GoNoGo3.Error Type";"trial.GoNoGo3.icon";"trial.GoNoGo3.location";"trial.GoNoGo3.outcome";"trial.GoNoGo3.response";"trial.GoNoGo3.result";"trial.GoNoGo3.RT";"trial.GoNoGo3.signal";"trial.GoNoGo3.startTime";"trial.GoNoGo3.stimulus type";"trial.GoNoGo4.durationTime";"trial.GoNoGo4.endTime";"trial.GoNoGo4.Error Type";"trial.GoNoGo4.icon";"trial.GoNoGo4.location";"trial.GoNoGo4.outcome";"trial.GoNoGo4.response";"trial.GoNoGo4.result";"trial.GoNoGo4.RT";"trial.GoNoGo4.signal";"trial.GoNoGo4.startTime";"trial.GoNoGo4.stimulus type";"trial.GoNoGo_Practice.durationTime";"trial.GoNoGo_Practice.endTime";"trial.GoNoGo_Practice.icon";"trial.GoNoGo_Practice.location";"trial.GoNoGo_Practice.outcome";"trial.GoNoGo_Practice.response";"trial.GoNoGo_Practice.result";"trial.GoNoGo_Practice.RT";"trial.GoNoGo_Practice.signal";"trial.GoNoGo_Practice.startTime";"trial.GoNoGo_Practice.stimulus type";"trial.GoNoGo_Tutorial.durationTime";"trial.GoNoGo_Tutorial.endTime";"trial.GoNoGo_Tutorial.icon";"trial.GoNoGo_Tutorial.location";"trial.GoNoGo_Tutorial.outcome";"trial.GoNoGo_Tutorial.response";"trial.GoNoGo_Tutorial.result";"trial.GoNoGo_Tutorial.RT";"trial.GoNoGo_Tutorial.signal";"trial.GoNoGo_Tutorial.startTime"
"1310637";"1994";;"Windows 7";"Rachel's Experiment (D.T.)";"1.0";"2";"1";"1";"2";"1";"1";"2014-10-16 12:24:23.615";"2014-10-16 12:37:03.102";"1";"0";"0";"1";"0";"module.GoNoGotutorial.exec-4675.GoNoGo_Tutorial";;;;;;;;;;;;;;;;;;;;;;;;;;;;;;;;;;;;;;;;;;;;;;;;;;;;;;;;;;;;;;;;;;;;;;;;;;;;;;;;;;"3998";"2014-10-16 12:25:28.917";"leftResponse";"0";"FINISHED";"LEFT";"success";"736";"0";"2014-10-16 12:25:24.908"
"1310637";"1994";;"Windows 7";"Rachel's Experiment (D.T.)";"1.0";"2";"1";"1";"2";"1";"1";"2014-10-16 12:24:23.615";"2014-10-16 12:37:03.102";"1";"0";"0";"2";"1";"module.GoNoGotutorial.exec-4675.GoNoGo_Tutorial";;;;;;;;;;;;;;;;;;;;;;;;;;;;;;;;;;;;;;;;;;;;;;;;;;;;;;;;;;;;;;;;;;;;;;;;;;;;;;;;;;"4003";"2014-10-16 12:25:34.205";"rightResponse";"1";"FINISHED";"RIGHT";"success";"524";"0";"2014-10-16 12:25:30.196"
"1310637";"1994";;"Windows 7";"Rachel's Experiment (D.T.)";"1.0";"2";"1";"1";"2";"1";"1";"2014-10-16 12:24:23.615";"2014-10-16 12:37:03.102";"1";"0";"0";"3";"2";"module.GoNoGotutorial.exec-4675.GoNoGo_Tutorial";;;;;;;;;;;;;;;;;;;;;;;;;;;;;;;;;;;;;;;;;;;;;;;;;;;;;;;;;;;;;;;;;;;;;;;;;;;;;;;;;;"4003";"2014-10-16 12:25:39.509";"quickResponse";"0";"FINISHED";"LEFT";"success";"420";"0";"2014-10-16 12:25:35.500"
"1310637";"1994";;"Windows 7";"Rachel's Experiment (D.T.)";"1.0";"2";"1";"1";"2";"1";"1";"2014-10-16 12:24:23.615";"2014-10-16 12:37:03.102";"1";"0";"0";"4";"3";"module.GoNoGopractice.exec-1446.GoNoGo_Practice";;;;;;;;;;;;;;;;;;;;;;;;;;;;;;;;;;;;;;;;;;;;;;;;;;;;;;;;;;;;;;;;;;;;;;;"1959";"2014-10-16 12:25:49.088";"18";"0";"FINISHED";"LEFT";"success";"469";"0";"2014-10-16 12:25:47.122";"3";;;;;;;;;;
"1310637";"1994";;"Windows 7";"Rachel's Experiment (D.T.)";"1.0";"2";"1";"1";"2";"1";"1";"2014-10-16 12:24:23.615";"2014-10-16 12:37:03.102";"1";"0";"0";"5";"4";"module.GoNoGopractice.exec-1446.GoNoGo_Practice";;;;;;;;;;;;;;;;;;;;;;;;;;;;;;;;;;;;;;;;;;;;;;;;;;;;;;;;;;;;;;;;;;;;;;;"1954";"2014-10-16 12:25:52.332";"21";"1";"FINISHED";"RIGHT";"success";"380";"0";"2014-10-16 12:25:50.367";"3";;;;;;;;;;
"1310637";"1994";;"Windows 7";"Rachel's Experiment (D.T.)";"1.0";"2";"1";"1";"2";"1";"1";"2014-10-16 12:24:23.615";"2014-10-16 12:37:03.102";"1";"0";"0";"6";"5";"module.GoNoGopractice.exec-1446.GoNoGo_Practice";;;;;;;;;;;;;;;;;;;;;;;;;;;;;;;;;;;;;;;;;;;;;;;;;;;;;;;;;;;;;;;;;;;;;;;"1959";"2014-10-16 12:25:55.577";"14";"1";"FINISHED";"RIGHT";"success";"548";"0";"2014-10-16 12:25:53.612";"2";;;;;;;;;;
"1310637";"1994";;"Windows 7";"Rachel's Experiment (D.T.)";"1.0";"2";"1";"1";"2";"1";"1";"2014-10-16 12:24:23.615";"2014-10-16 12:37:03.102";"1";"0";"0";"7";"6";"module.GoNoGopractice.exec-1446.GoNoGo_Practice";;;;;;;;;;;;;;;;;;;;;;;;;;;;;;;;;;;;;;;;;;;;;;;;;;;;;;;;;;;;;;;;;;;;;;;"1959";"2014-10-16 12:25:58.822";"26";"0";"FINISHED";"LEFT";"success";"391";"0";"2014-10-16 12:25:56.856";"3";;;;;;;;;;
"1310637";"1994";;"Windows 7";"Rachel's Experiment (D.T.)";"1.0";"2";"1";"1";"2";"1";"1";"2014-10-16 12:24:23.615";"2014-10-16 12:37:03.102";"1";"0";"0";"8";"7";"module.GoNoGopractice.exec-1446.GoNoGo_Practice";;;;;;;;;;;;;;;;;;;;;;;;;;;;;;;;;;;;;;;;;;;;;;;;;;;;;;;;;;;;;;;;;;;;;;;"1959";"2014-10-16 12:26:02.067";"2";"0";"FINISHED";"LEFT";"success";"395";"0";"2014-10-16 12:26:00.101";"1";;;;;;;;;;
"1310637";"1994";;"Windows 7";"Rachel's Experiment (D.T.)";"1.0";"2";"1";"1";"2";"1";"1";"2014-10-16 12:24:23.615";"2014-10-16 12:37:03.102";"1";"0";"0";"9";"8";"module.GoNoGopractice.exec-1446.GoNoGo_Practice";;;;;;;;;;;;;;;;;;;;;;;;;;;;;;;;;;;;;;;;;;;;;;;;;;;;;;;;;;;;;;;;;;;;;;;"1960";"2014-10-16 12:26:05.312";"30";"0";"FINISHED";"LEFT";"success";"526";"0";"2014-10-16 12:26:03.346";"3";;;;;;;;;;
"1310637";"1994";;"Windows 7";"Rachel's Experiment (D.T.)";"1.0";"2";"1";"1";"2";"1";"1";"2014-10-16 12:24:23.615";"2014-10-16 12:37:03.102";"1";"0";"0";"10";"9";"module.GoNoGopractice.exec-1446.GoNoGo_Practice";;;;;;;;;;;;;;;;;;;;;;;;;;;;;;;;;;;;;;;;;;;;;;;;;;;;;;;;;;;;;;;;;;;;;;;"1959";"2014-10-16 12:26:08.556";"6";"1";"FINISHED";"RIGHT";"success";"385";"0";"2014-10-16 12:26:06.591";"1";;;;;;;;;;
"1310637";"1994";;"Windows 7";"Rachel's Experiment (D.T.)";"1.0";"2";"1";"1";"2";"1";"1";"2014-10-16 12:24:23.615";"2014-10-16 12:37:03.102";"1";"0";"0";"11";"10";"module.GoNoGopractice.exec-1446.GoNoGo_Practice";;;;;;;;;;;;;;;;;;;;;;;;;;;;;;;;;;;;;;;;;;;;;;;;;;;;;;;;;;;;;;;;;;;;;;;"1960";"2014-10-16 12:26:11.801";"34";"0";"FINISHED";"LEFT";"success";"397";"0";"2014-10-16 12:26:09.836";"3";;;;;;;;;;
"1310637";"1994";;"Windows 7";"Rachel's Experiment (D.T.)";"1.0";"2";"1";"1";"2";"1";"1";"2014-10-16 12:24:23.615";"2014-10-16 12:37:03.102";"1";"0";"0";"12";"11";"module.GoNoGopractice.exec-1446.GoNoGo_Practice";;;;;;;;;;;;;;;;;;;;;;;;;;;;;;;;;;;;;;;;;;;;;;;;;;;;;;;;;;;;;;;;;;;;;;;"1959";"2014-10-16 12:26:15.046";"23";"1";"FINISHED";"RIGHT";"success";"391";"0";"2014-10-16 12:26:13.080";"3";;;;;;;;;;
"1310637";"1994";;"Windows 7";"Rachel's Experiment (D.T.)";"1.0";"2";"1";"1";"2";"1";"1";"2014-10-16 12:24:23.615";"2014-10-16 12:37:03.102";"1";"0";"0";"13";"12";"module.GoNoGopractice.exec-1446.GoNoGo_Practice";;;;;;;;;;;;;;;;;;;;;;;;;;;;;;;;;;;;;;;;;;;;;;;;;;;;;;;;;;;;;;;;;;;;;;;"1959";"2014-10-16 12:26:18.291";"13";"0";"FINISHED";"LEFT";"success";"330";"0";"2014-10-16 12:26:16.325";"2";;;;;;;;;;
"1310637";"1994";;"Windows 7";"Rachel's Experiment (D.T.)";"1.0";"2";"1";"1";"2";"1";"1";"2014-10-16 12:24:23.615";"2014-10-16 12:37:03.102";"1";"0";"0";"14";"13";"module.GoNoGopractice.exec-1446.GoNoGo_Practice";;;;;;;;;;;;;;;;;;;;;;;;;;;;;;;;;;;;;;;;;;;;;;;;;;;;;;;;;;;;;;;;;;;;;;;"1959";"2014-10-16 12:26:21.536";"3";"1";"FINISHED";"RIGHT";"success";"318";"0";"2014-10-16 12:26:19.570";"1";;;;;;;;;;
"1310637";"1994";;"Windows 7";"Rachel's Experiment (D.T.)";"1.0";"2";"1";"1";"2";"1";"1";"2014-10-16 12:24:23.615";"2014-10-16 12:37:03.102";"1";"0";"0";"15";"14";"module.GoNoGopractice.exec-1446.GoNoGo_Practice";;;;;;;;;;;;;;;;;;;;;;;;;;;;;;;;;;;;;;;;;;;;;;;;;;;;;;;;;;;;;;;;;;;;;;;"1958";"2014-10-16 12:26:24.874";"27";"1";"FINISHED";"RIGHT";"success";"426";"0";"2014-10-16 12:26:22.908";"3";;;;;;;;;;
"1310637";"1994";;"Windows 7";"Rachel's Experiment (D.T.)";"1.0";"2";"1";"1";"2";"1";"1";"2014-10-16 12:24:23.615";"2014-10-16 12:37:03.102";"1";"0";"0";"16";"15";"module.training_block1.exec-5510.GoNoGo1";;;;;;;;;;;;;;;;;;;;;;;"1257";"2014-10-16 12:26:36.262";"NST_correctLoc";"12";"1";"FINISHED";"RIGHT";"success";"456";"0";"2014-10-16 12:26:34.999";"2";;;;;;;;;;;;;;;;;;;;;;;;;;;;;;;;;;;;;;;;;;;;;;;;;;;;;;;;;
"1310637";"1994";;"Windows 7";"Rachel's Experiment (D.T.)";"1.0";"2";"1";"1";"2";"1";"1";"2014-10-16 12:24:23.615";"2014-10-16 12:37:03.102";"1";"0";"0";"17";"16";"module.training_block1.exec-5510.GoNoGo1";;;;;;;;;;;;;;;;;;;;;;;"1258";"2014-10-16 12:26:38.805";"NST_correctLoc";"16";"0";"FINISHED";"LEFT";"success";"355";"0";"2014-10-16 12:26:37.541";"2";;;;;;;;;;;;;;;;;;;;;;;;;;;;;;;;;;;;;;;;;;;;;;;;;;;;;;;;;
"1310637";"1994";;"Windows 7";"Rachel's Experiment (D.T.)";"1.0";"2";"1";"1";"2";"1";"1";"2014-10-16 12:24:23.615";"2014-10-16 12:37:03.102";"1";"0";"0";"18";"17";"module.training_block1.exec-5510.GoNoGo1";;;;;;;;;;;;;;;;;;;;;;;"1258";"2014-10-16 12:26:41.348";"NST_correctLoc";"35";"1";"FINISHED";"RIGHT";"success";"364";"0";"2014-10-16 12:26:40.084";"3";;;;;;;;;;;;;;;;;;;;;;;;;;;;;;;;;;;;;;;;;;;;;;;;;;;;;;;;;
"1310637";"1994";;"Windows 7";"Rachel's Experiment (D.T.)";"1.0";"2";"1";"1";"2";"1";"1";"2014-10-16 12:24:23.615";"2014-10-16 12:37:03.102";"1";"0";"0";"19";"18";"module.training_block1.exec-5510.GoNoGo1";;;;;;;;;;;;;;;;;;;;;;;"1258";"2014-10-16 12:26:43.891";"NST_correctLoc";"25";"0";"FINISHED";"LEFT";"success";"445";"0";"2014-10-16 12:26:42.627";"3";;;;;;;;;;;;;;;;;;;;;;;;;;;;;;;;;;;;;;;;;;;;;;;;;;;;;;;;;
"1310637";"1994";;"Windows 7";"Rachel's Experiment (D.T.)";"1.0";"2";"1";"1";"2";"1";"1";"2014-10-16 12:24:23.615";"2014-10-16 12:37:03.102";"1";"0";"0";"20";"19";"module.training_block1.exec-5510.GoNoGo1";;;;;;;;;;;;;;;;;;;;;;;"1258";"2014-10-16 12:26:46.433";"NST_correctLoc";"20";"0";"FINISHED";"LEFT";"success";"350";"0";"2014-10-16 12:26:45.170";"3";;;;;;;;;;;;;;;;;;;;;;;;;;;;;;;;;;;;;;;;;;;;;;;;;;;;;;;;;
"1310637";"1994";;"Windows 7";"Rachel's Experiment (D.T.)";"1.0";"2";"1";"1";"2";"1";"1";"2014-10-16 12:24:23.615";"2014-10-16 12:37:03.102";"1";"0";"0";"21";"20";"module.training_block1.exec-5510.GoNoGo1";;;;;;;;;;;;;;;;;;;;;;;"1258";"2014-10-16 12:26:48.976";"NST_correctLoc";"1";"1";"FINISHED";"RIGHT";"success";"296";"0";"2014-10-16 12:26:47.713";"1";;;;;;;;;;;;;;;;;;;;;;;;;;;;;;;;;;;;;;;;;;;;;;;;;;;;;;;;;
"1310637";"1994";;"Windows 7";"Rachel's Experiment (D.T.)";"1.0";"2";"1";"1";"2";"1";"1";"2014-10-16 12:24:23.615";"2014-10-16 12:37:03.102";"1";"0";"0";"22";"21";"module.training_block1.exec-5510.GoNoGo1";;;;;;;;;;;;;;;;;;;;;;;"1257";"2014-10-16 12:26:51.519";"NST_correctLoc";"5";"0";"FINISHED";"LEFT";"success";"320";"0";"2014-10-16 12:26:50.255";"1";;;;;;;;;;;;;;;;;;;;;;;;;;;;;;;;;;;;;;;;;;;;;;;;;;;;;;;;;
"1310637";"1994";;"Windows 7";"Rachel's Experiment (D.T.)";"1.0";"2";"1";"1";"2";"1";"1";"2014-10-16 12:24:23.615";"2014-10-16 12:37:03.102";"1";"0";"0";"23";"22";"module.training_block1.exec-5510.GoNoGo1";;;;;;;;;;;;;;;;;;;;;;;"1258";"2014-10-16 12:26:54.062";"NST_correctLoc";"9";"0";"FINISHED";"LEFT";"success";"378";"0";"2014-10-16 12:26:52.798";"2";;;;;;;;;;;;;;;;;;;;;;;;;;;;;;;;;;;;;;;;;;;;;;;;;;;;;;;;;
"1310637";"1994";;"Windows 7";"Rachel's Experiment (D.T.)";"1.0";"2";"1";"1";"2";"1";"1";"2014-10-16 12:24:23.615";"2014-10-16 12:37:03.102";"1";"0";"0";"24";"23";"module.training_block1.exec-5510.GoNoGo1";;;;;;;;;;;;;;;;;;;;;;;"1257";"2014-10-16 12:26:56.605";"NST_correctLoc";"13";"0";"FINISHED";"LEFT";"success";"634";"0";"2014-10-16 12:26:55.341";"2";;;;;;;;;;;;;;;;;;;;;;;;;;;;;;;;;;;;;;;;;;;;;;;;;;;;;;;;;
"1310637";"1994";;"Windows 7";"Rachel's Experiment (D.T.)";"1.0";"2";"1";"1";"2";"1";"1";"2014-10-16 12:24:23.615";"2014-10-16 12:37:03.102";"1";"0";"0";"25";"24";"module.training_block1.exec-5510.GoNoGo1";;;;;;;;;;;;;;;;;;;;;;;"1258";"2014-10-16 12:26:59.147";"NST_correctLoc";"22";"1";"FINISHED";"RIGHT";"success";"436";"0";"2014-10-16 12:26:57.884";"3";;;;;;;;;;;;;;;;;;;;;;;;;;;;;;;;;;;;;;;;;;;;;;;;;;;;;;;;;
"1310637";"1994";;"Windows 7";"Rachel's Experiment (D.T.)";"1.0";"2";"1";"1";"2";"1";"1";"2014-10-16 12:24:23.615";"2014-10-16 12:37:03.102";"1";"0";"0";"26";"25";"module.training_block1.exec-5510.GoNoGo1";;;;;;;;;;;;;;;;;;;;;;;"1257";"2014-10-16 12:27:01.690";"NST_correctLoc";"32";"1";"FINISHED";"RIGHT";"success";"517";"0";"2014-10-16 12:27:00.427";"3";;;;;;;;;;;;;;;;;;;;;;;;;;;;;;;;;;;;;;;;;;;;;;;;;;;;;;;;;
"1310637";"1994";;"Windows 7";"Rachel's Experiment (D.T.)";"1.0";"2";"1";"1";"2";"1";"1";"2014-10-16 12:24:23.615";"2014-10-16 12:37:03.102";"1";"0";"0";"27";"26";"module.training_block1.exec-5510.GoNoGo1";;;;;;;;;;;;;;;;;;;;;;;"1258";"2014-10-16 12:27:04.233";"NST_correctLoc";"28";"0";"FINISHED";"LEFT";"success";"486";"0";"2014-10-16 12:27:02.969";"3";;;;;;;;;;;;;;;;;;;;;;;;;;;;;;;;;;;;;;;;;;;;;;;;;;;;;;;;;
"1310637";"1994";;"Windows 7";"Rachel's Experiment (D.T.)";"1.0";"2";"1";"1";"2";"1";"1";"2014-10-16 12:24:23.615";"2014-10-16 12:37:03.102";"1";"0";"0";"28";"27";"module.training_block1.exec-5510.GoNoGo1";;;;;;;;;;;;;;;;;;;;;;;"1257";"2014-10-16 12:27:06.776";"NST_correctLoc";"4";"0";"FINISHED";"LEFT";"success";"423";"0";"2014-10-16 12:27:05.512";"1";;;;;;;;;;;;;;;;;;;;;;;;;;;;;;;;;;;;;;;;;;;;;;;;;;;;;;;;;
"1310637";"1994";;"Windows 7";"Rachel's Experiment (D.T.)";"1.0";"2";"1";"1";"2";"1";"1";"2014-10-16 12:24:23.615";"2014-10-16 12:37:03.102";"1";"0";"0";"29";"28";"module.training_block1.exec-5510.GoNoGo1";;;;;;;;;;;;;;;;;;;;;;;"1258";"2014-10-16 12:27:09.319";"NST_correctLoc";"34";"1";"FINISHED";"RIGHT";"success";"369";"0";"2014-10-16 12:27:08.055";"3";;;;;;;;;;;;;;;;;;;;;;;;;;;;;;;;;;;;;;;;;;;;;;;;;;;;;;;;;
"1310637";"1994";;"Windows 7";"Rachel's Experiment (D.T.)";"1.0";"2";"1";"1";"2";"1";"1";"2014-10-16 12:24:23.615";"2014-10-16 12:37:03.102";"1";"0";"0";"30";"29";"module.training_block1.exec-5510.GoNoGo1";;;;;;;;;;;;;;;;;;;;;;;"1258";"2014-10-16 12:27:11.861";"NST_correctLoc";"31";"1";"FINISHED";"RIGHT";"success";"330";"0";"2014-10-16 12:27:10.598";"3";;;;;;;;;;;;;;;;;;;;;;;;;;;;;;;;;;;;;;;;;;;;;;;;;;;;;;;;;
"1310637";"1994";;"Windows 7";"Rachel's Experiment (D.T.)";"1.0";"2";"1";"1";"2";"1";"1";"2014-10-16 12:24:23.615";"2014-10-16 12:37:03.102";"1";"0";"0";"31";"30";"module.training_block1.exec-5510.GoNoGo1";;;;;;;;;;;;;;;;;;;;;;;"1258";"2014-10-16 12:27:14.404";"NST_correctLoc";"10";"0";"FINISHED";"LEFT";"success";"547";"0";"2014-10-16 12:27:13.141";"2";;;;;;;;;;;;;;;;;;;;;;;;;;;;;;;;;;;;;;;;;;;;;;;;;;;;;;;;;
"1310637";"1994";;"Windows 7";"Rachel's Experiment (D.T.)";"1.0";"2";"1";"1";"2";"1";"1";"2014-10-16 12:24:23.615";"2014-10-16 12:37:03.102";"1";"0";"0";"32";"31";"module.training_block1.exec-5510.GoNoGo1";;;;;;;;;;;;;;;;;;;;;;;"1258";"2014-10-16 12:27:16.947";"NST_correctLoc";"30";"1";"FINISHED";"RIGHT";"success";"532";"0";"2014-10-16 12:27:15.683";"3";;;;;;;;;;;;;;;;;;;;;;;;;;;;;;;;;;;;;;;;;;;;;;;;;;;;;;;;;
"1310637";"1994";;"Windows 7";"Rachel's Experiment (D.T.)";"1.0";"2";"1";"1";"2";"1";"1";"2014-10-16 12:24:23.615";"2014-10-16 12:37:03.102";"1";"0";"0";"33";"32";"module.training_block1.exec-5510.GoNoGo1";;;;;;;;;;;;;;;;;;;;;;;"1258";"2014-10-16 12:27:19.490";"NST_correctLoc";"2";"0";"FINISHED";"LEFT";"success";"509";"0";"2014-10-16 12:27:18.226";"1";;;;;;;;;;;;;;;;;;;;;;;;;;;;;;;;;;;;;;;;;;;;;;;;;;;;;;;;;
"1310637";"1994";;"Windows 7";"Rachel's Experiment (D.T.)";"1.0";"2";"1";"1";"2";"1";"1";"2014-10-16 12:24:23.615";"2014-10-16 12:37:03.102";"1";"0";"0";"34";"33";"module.training_block1.exec-5510.GoNoGo1";;;;;;;;;;;;;;;;;;;;;;;"1257";"2014-10-16 12:27:22.033";"NST_correctLoc";"7";"0";"FINISHED";"LEFT";"success";"422";"0";"2014-10-16 12:27:20.769";"1";;;;;;;;;;;;;;;;;;;;;;;;;;;;;;;;;;;;;;;;;;;;;;;;;;;;;;;;;
"1310637";"1994";;"Windows 7";"Rachel's Experiment (D.T.)";"1.0";"2";"1";"1";"2";"1";"1";"2014-10-16 12:24:23.615";"2014-10-16 12:37:03.102";"1";"0";"0";"35";"34";"module.training_block1.exec-5510.GoNoGo1";;;;;;;;;;;;;;;;;;;;;;;"1258";"2014-10-16 12:27:24.575";"NST_correctLoc";"33";"1";"FINISHED";"RIGHT";"success";"352";"0";"2014-10-16 12:27:23.312";"3";;;;;;;;;;;;;;;;;;;;;;;;;;;;;;;;;;;;;;;;;;;;;;;;;;;;;;;;;
"1310637";"1994";;"Windows 7";"Rachel's Experiment (D.T.)";"1.0";"2";"1";"1";"2";"1";"1";"2014-10-16 12:24:23.615";"2014-10-16 12:37:03.102";"1";"0";"0";"36";"35";"module.training_block1.exec-5510.GoNoGo1";;;;;;;;;;;;;;;;;;;;;;;"1258";"2014-10-16 12:27:27.118";"NST_correctLoc";"18";"1";"FINISHED";"RIGHT";"success";"425";"0";"2014-10-16 12:27:25.855";"3";;;;;;;;;;;;;;;;;;;;;;;;;;;;;;;;;;;;;;;;;;;;;;;;;;;;;;;;;
"1310637";"1994";;"Windows 7";"Rachel's Experiment (D.T.)";"1.0";"2";"1";"1";"2";"1";"1";"2014-10-16 12:24:23.615";"2014-10-16 12:37:03.102";"1";"0";"0";"37";"36";"module.training_block1.exec-5510.GoNoGo1";;;;;;;;;;;;;;;;;;;;;;;"1257";"2014-10-16 12:27:29.661";"NST_correctLoc";"26";"0";"FINISHED";"LEFT";"success";"370";"0";"2014-10-16 12:27:28.397";"3";;;;;;;;;;;;;;;;;;;;;;;;;;;;;;;;;;;;;;;;;;;;;;;;;;;;;;;;;
"1310637";"1994";;"Windows 7";"Rachel's Experiment (D.T.)";"1.0";"2";"1";"1";"2";"1";"1";"2014-10-16 12:24:23.615";"2014-10-16 12:37:03.102";"1";"0";"0";"38";"37";"module.training_block1.exec-5510.GoNoGo1";;;;;;;;;;;;;;;;;;;;;;;"1257";"2014-10-16 12:27:32.204";"NST_correctLoc";"15";"1";"FINISHED";"RIGHT";"success";"395";"0";"2014-10-16 12:27:30.940";"2";;;;;;;;;;;;;;;;;;;;;;;;;;;;;;;;;;;;;;;;;;;;;;;;;;;;;;;;;
"1310637";"1994";;"Windows 7";"Rachel's Experiment (D.T.)";"1.0";"2";"1";"1";"2";"1";"1";"2014-10-16 12:24:23.615";"2014-10-16 12:37:03.102";"1";"0";"0";"39";"38";"module.training_block1.exec-5510.GoNoGo1";;;;;;;;;;;;;;;;;;;;;;;"1258";"2014-10-16 12:27:34.747";"NST_correctLoc";"3";"0";"FINISHED";"LEFT";"success";"341";"0";"2014-10-16 12:27:33.483";"1";;;;;;;;;;;;;;;;;;;;;;;;;;;;;;;;;;;;;;;;;;;;;;;;;;;;;;;;;
"1310637";"1994";;"Windows 7";"Rachel's Experiment (D.T.)";"1.0";"2";"1";"1";"2";"1";"1";"2014-10-16 12:24:23.615";"2014-10-16 12:37:03.102";"1";"0";"0";"40";"39";"module.training_block1.exec-5510.GoNoGo1";;;;;;;;;;;;;;;;;;;;;;;"1257";"2014-10-16 12:27:37.289";"NST_correctLoc";"14";"1";"FINISHED";"RIGHT";"success";"486";"0";"2014-10-16 12:27:36.026";"2";;;;;;;;;;;;;;;;;;;;;;;;;;;;;;;;;;;;;;;;;;;;;;;;;;;;;;;;;
"1310637";"1994";;"Windows 7";"Rachel's Experiment (D.T.)";"1.0";"2";"1";"1";"2";"1";"1";"2014-10-16 12:24:23.615";"2014-10-16 12:37:03.102";"1";"0";"0";"41";"40";"module.training_block1.exec-5510.GoNoGo1";;;;;;;;;;;;;;;;;;;;;;;"1258";"2014-10-16 12:27:39.832";"NST_correctLoc";"11";"1";"FINISHED";"RIGHT";"success";"383";"0";"2014-10-16 12:27:38.569";"2";;;;;;;;;;;;;;;;;;;;;;;;;;;;;;;;;;;;;;;;;;;;;;;;;;;;;;;;;
"1310637";"1994";;"Windows 7";"Rachel's Experiment (D.T.)";"1.0";"2";"1";"1";"2";"1";"1";"2014-10-16 12:24:23.615";"2014-10-16 12:37:03.102";"1";"0";"0";"42";"41";"module.training_block1.exec-5510.GoNoGo1";;;;;;;;;;;;;;;;;;;;;;;"1258";"2014-10-16 12:27:42.375";"NST_wrongLoc";"19";"0";"FINISHED";"RIGHT";"failure";"496";"0";"2014-10-16 12:27:41.111";"3";;;;;;;;;;;;;;;;;;;;;;;;;;;;;;;;;;;;;;;;;;;;;;;;;;;;;;;;;
"1310637";"1994";;"Windows 7";"Rachel's Experiment (D.T.)";"1.0";"2";"1";"1";"2";"1";"1";"2014-10-16 12:24:23.615";"2014-10-16 12:37:03.102";"1";"0";"0";"43";"42";"module.training_block1.exec-5510.GoNoGo1";;;;;;;;;;;;;;;;;;;;;;;"1257";"2014-10-16 12:27:44.918";"NST_correctLoc";"0";"0";"FINISHED";"LEFT";"success";"505";"0";"2014-10-16 12:27:43.654";"1";;;;;;;;;;;;;;;;;;;;;;;;;;;;;;;;;;;;;;;;;;;;;;;;;;;;;;;;;
"1310637";"1994";;"Windows 7";"Rachel's Experiment (D.T.)";"1.0";"2";"1";"1";"2";"1";"1";"2014-10-16 12:24:23.615";"2014-10-16 12:37:03.102";"1";"0";"0";"44";"43";"module.training_block1.exec-5510.GoNoGo1";;;;;;;;;;;;;;;;;;;;;;;"1257";"2014-10-16 12:27:47.461";"NST_correctLoc";"21";"0";"FINISHED";"LEFT";"success";"522";"0";"2014-10-16 12:27:46.197";"3";;;;;;;;;;;;;;;;;;;;;;;;;;;;;;;;;;;;;;;;;;;;;;;;;;;;;;;;;
"1310637";"1994";;"Windows 7";"Rachel's Experiment (D.T.)";"1.0";"2";"1";"1";"2";"1";"1";"2014-10-16 12:24:23.615";"2014-10-16 12:37:03.102";"1";"0";"0";"45";"44";"module.training_block1.exec-5510.GoNoGo1";;;;;;;;;;;;;;;;;;;;;;;"1257";"2014-10-16 12:27:50.003";"NST_correctLoc";"8";"1";"FINISHED";"RIGHT";"success";"395";"0";"2014-10-16 12:27:48.740";"1";;;;;;;;;;;;;;;;;;;;;;;;;;;;;;;;;;;;;;;;;;;;;;;;;;;;;;;;;
"1310637";"1994";;"Windows 7";"Rachel's Experiment (D.T.)";"1.0";"2";"1";"1";"2";"1";"1";"2014-10-16 12:24:23.615";"2014-10-16 12:37:03.102";"1";"0";"0";"46";"45";"module.training_block1.exec-5510.GoNoGo1";;;;;;;;;;;;;;;;;;;;;;;"1257";"2014-10-16 12:27:52.546";"NST_correctLoc";"23";"0";"FINISHED";"LEFT";"success";"348";"0";"2014-10-16 12:27:51.283";"3";;;;;;;;;;;;;;;;;;;;;;;;;;;;;;;;;;;;;;;;;;;;;;;;;;;;;;;;;
"1310637";"1994";;"Windows 7";"Rachel's Experiment (D.T.)";"1.0";"2";"1";"1";"2";"1";"1";"2014-10-16 12:24:23.615";"2014-10-16 12:37:03.102";"1";"0";"0";"47";"46";"module.training_block1.exec-5510.GoNoGo1";;;;;;;;;;;;;;;;;;;;;;;"1258";"2014-10-16 12:27:55.089";"NST_correctLoc";"29";"1";"FINISHED";"RIGHT";"success";"350";"0";"2014-10-16 12:27:53.825";"3";;;;;;;;;;;;;;;;;;;;;;;;;;;;;;;;;;;;;;;;;;;;;;;;;;;;;;;;;
"1310637";"1994";;"Windows 7";"Rachel's Experiment (D.T.)";"1.0";"2";"1";"1";"2";"1";"1";"2014-10-16 12:24:23.615";"2014-10-16 12:37:03.102";"1";"0";"0";"48";"47";"module.training_block1.exec-5510.GoNoGo1";;;;;;;;;;;;;;;;;;;;;;;"1261";"2014-10-16 12:27:57.632";"NST_correctLoc";"27";"1";"FINISHED";"RIGHT";"success";"531";"0";"2014-10-16 12:27:56.368";"3";;;;;;;;;;;;;;;;;;;;;;;;;;;;;;;;;;;;;;;;;;;;;;;;;;;;;;;;;
"1310637";"1994";;"Windows 7";"Rachel's Experiment (D.T.)";"1.0";"2";"1";"1";"2";"1";"1";"2014-10-16 12:24:23.615";"2014-10-16 12:37:03.102";"1";"0";"0";"49";"48";"module.training_block1.exec-5510.GoNoGo1";;;;;;;;;;;;;;;;;;;;;;;"1257";"2014-10-16 12:28:00.175";"NST_correctLoc";"6";"0";"FINISHED";"LEFT";"success";"328";"0";"2014-10-16 12:27:58.911";"1";;;;;;;;;;;;;;;;;;;;;;;;;;;;;;;;;;;;;;;;;;;;;;;;;;;;;;;;;
"1310637";"1994";;"Windows 7";"Rachel's Experiment (D.T.)";"1.0";"2";"1";"1";"2";"1";"1";"2014-10-16 12:24:23.615";"2014-10-16 12:37:03.102";"1";"0";"0";"50";"49";"module.training_block1.exec-5510.GoNoGo1";;;;;;;;;;;;;;;;;;;;;;;"1257";"2014-10-16 12:28:02.717";"NST_correctLoc";"17";"1";"FINISHED";"RIGHT";"success";"329";"0";"2014-10-16 12:28:01.454";"2";;;;;;;;;;;;;;;;;;;;;;;;;;;;;;;;;;;;;;;;;;;;;;;;;;;;;;;;;
"1310637";"1994";;"Windows 7";"Rachel's Experiment (D.T.)";"1.0";"2";"1";"1";"2";"1";"1";"2014-10-16 12:24:23.615";"2014-10-16 12:37:03.102";"1";"0";"0";"51";"50";"module.training_block1.exec-5510.GoNoGo1";;;;;;;;;;;;;;;;;;;;;;;"1258";"2014-10-16 12:28:05.260";"NST_correctLoc";"24";"1";"FINISHED";"RIGHT";"success";"419";"0";"2014-10-16 12:28:03.997";"3";;;;;;;;;;;;;;;;;;;;;;;;;;;;;;;;;;;;;;;;;;;;;;;;;;;;;;;;;
"1310637";"1994";;"Windows 7";"Rachel's Experiment (D.T.)";"1.0";"2";"1";"1";"2";"1";"1";"2014-10-16 12:24:23.615";"2014-10-16 12:37:03.102";"1";"0";"0";"52";"51";"module.training_block2.exec-7324.GoNoGo2";;;;;;;;;;;;;;;;;;;;;;;;;;;;;;;;;;;"1261";"2014-10-16 12:28:17.163";"NST_correctLoc";"34";"0";"FINISHED";"LEFT";"success";"399";"0";"2014-10-16 12:28:15.899";"3";;;;;;;;;;;;;;;;;;;;;;;;;;;;;;;;;;;;;;;;;;;;;
"1310637";"1994";;"Windows 7";"Rachel's Experiment (D.T.)";"1.0";"2";"1";"1";"2";"1";"1";"2014-10-16 12:24:23.615";"2014-10-16 12:37:03.102";"1";"0";"0";"53";"52";"module.training_block2.exec-7324.GoNoGo2";;;;;;;;;;;;;;;;;;;;;;;;;;;;;;;;;;;"1261";"2014-10-16 12:28:19.706";"NST_correctLoc";"11";"0";"FINISHED";"LEFT";"success";"953";"0";"2014-10-16 12:28:18.442";"2";;;;;;;;;;;;;;;;;;;;;;;;;;;;;;;;;;;;;;;;;;;;;
"1310637";"1994";;"Windows 7";"Rachel's Experiment (D.T.)";"1.0";"2";"1";"1";"2";"1";"1";"2014-10-16 12:24:23.615";"2014-10-16 12:37:03.102";"1";"0";"0";"54";"53";"module.training_block2.exec-7324.GoNoGo2";;;;;;;;;;;;;;;;;;;;;;;;;;;;;;;;;;;"1261";"2014-10-16 12:28:22.249";"NST_correctLoc";"30";"1";"FINISHED";"RIGHT";"success";"386";"0";"2014-10-16 12:28:20.985";"3";;;;;;;;;;;;;;;;;;;;;;;;;;;;;;;;;;;;;;;;;;;;;
"1310637";"1994";;"Windows 7";"Rachel's Experiment (D.T.)";"1.0";"2";"1";"1";"2";"1";"1";"2014-10-16 12:24:23.615";"2014-10-16 12:37:03.102";"1";"0";"0";"55";"54";"module.training_block2.exec-7324.GoNoGo2";;;;;;;;;;;;;;;;;;;;;;;;;;;;;;;;;;;"1261";"2014-10-16 12:28:24.791";"NST_correctLoc";"17";"1";"FINISHED";"RIGHT";"success";"427";"0";"2014-10-16 12:28:23.528";"2";;;;;;;;;;;;;;;;;;;;;;;;;;;;;;;;;;;;;;;;;;;;;
"1310637";"1994";;"Windows 7";"Rachel's Experiment (D.T.)";"1.0";"2";"1";"1";"2";"1";"1";"2014-10-16 12:24:23.615";"2014-10-16 12:37:03.102";"1";"0";"0";"56";"55";"module.training_block2.exec-7324.GoNoGo2";;;;;;;;;;;;;;;;;;;;;;;;;;;;;;;;;;;"1261";"2014-10-16 12:28:27.334";"NST_correctLoc";"22";"0";"FINISHED";"LEFT";"success";"340";"0";"2014-10-16 12:28:26.071";"3";;;;;;;;;;;;;;;;;;;;;;;;;;;;;;;;;;;;;;;;;;;;;
"1310637";"1994";;"Windows 7";"Rachel's Experiment (D.T.)";"1.0";"2";"1";"1";"2";"1";"1";"2014-10-16 12:24:23.615";"2014-10-16 12:37:03.102";"1";"0";"0";"57";"56";"module.training_block2.exec-7324.GoNoGo2";;;;;;;;;;;;;;;;;;;;;;;;;;;;;;;;;;;"1261";"2014-10-16 12:28:29.877";"NST_correctLoc";"13";"1";"FINISHED";"RIGHT";"success";"437";"0";"2014-10-16 12:28:28.614";"2";;;;;;;;;;;;;;;;;;;;;;;;;;;;;;;;;;;;;;;;;;;;;
"1310637";"1994";;"Windows 7";"Rachel's Experiment (D.T.)";"1.0";"2";"1";"1";"2";"1";"1";"2014-10-16 12:24:23.615";"2014-10-16 12:37:03.102";"1";"0";"0";"58";"57";"module.training_block2.exec-7324.GoNoGo2";;;;;;;;;;;;;;;;;;;;;;;;;;;;;;;;;;;"1261";"2014-10-16 12:28:32.420";"NST_correctLoc";"23";"1";"FINISHED";"RIGHT";"success";"422";"0";"2014-10-16 12:28:31.156";"3";;;;;;;;;;;;;;;;;;;;;;;;;;;;;;;;;;;;;;;;;;;;;
"1310637";"1994";;"Windows 7";"Rachel's Experiment (D.T.)";"1.0";"2";"1";"1";"2";"1";"1";"2014-10-16 12:24:23.615";"2014-10-16 12:37:03.102";"1";"0";"0";"59";"58";"module.training_block2.exec-7324.GoNoGo2";;;;;;;;;;;;;;;;;;;;;;;;;;;;;;;;;;;"1261";"2014-10-16 12:28:34.963";"NST_correctLoc";"20";"0";"FINISHED";"LEFT";"success";"320";"0";"2014-10-16 12:28:33.699";"3";;;;;;;;;;;;;;;;;;;;;;;;;;;;;;;;;;;;;;;;;;;;;
"1310637";"1994";;"Windows 7";"Rachel's Experiment (D.T.)";"1.0";"2";"1";"1";"2";"1";"1";"2014-10-16 12:24:23.615";"2014-10-16 12:37:03.102";"1";"0";"0";"60";"59";"module.training_block2.exec-7324.GoNoGo2";;;;;;;;;;;;;;;;;;;;;;;;;;;;;;;;;;;"1261";"2014-10-16 12:28:37.506";"NST_correctLoc";"28";"1";"FINISHED";"RIGHT";"success";"361";"0";"2014-10-16 12:28:36.242";"3";;;;;;;;;;;;;;;;;;;;;;;;;;;;;;;;;;;;;;;;;;;;;
"1310637";"1994";;"Windows 7";"Rachel's Experiment (D.T.)";"1.0";"2";"1";"1";"2";"1";"1";"2014-10-16 12:24:23.615";"2014-10-16 12:37:03.102";"1";"0";"0";"61";"60";"module.training_block2.exec-7324.GoNoGo2";;;;;;;;;;;;;;;;;;;;;;;;;;;;;;;;;;;"1261";"2014-10-16 12:28:40.048";"NST_correctLoc";"35";"1";"FINISHED";"RIGHT";"success";"386";"0";"2014-10-16 12:28:38.785";"3";;;;;;;;;;;;;;;;;;;;;;;;;;;;;;;;;;;;;;;;;;;;;
"1310637";"1994";;"Windows 7";"Rachel's Experiment (D.T.)";"1.0";"2";"1";"1";"2";"1";"1";"2014-10-16 12:24:23.615";"2014-10-16 12:37:03.102";"1";"0";"0";"62";"61";"module.training_block2.exec-7324.GoNoGo2";;;;;;;;;;;;;;;;;;;;;;;;;;;;;;;;;;;"1261";"2014-10-16 12:28:42.591";"NST_correctLoc";"18";"1";"FINISHED";"RIGHT";"success";"339";"0";"2014-10-16 12:28:41.328";"3";;;;;;;;;;;;;;;;;;;;;;;;;;;;;;;;;;;;;;;;;;;;;
"1310637";"1994";;"Windows 7";"Rachel's Experiment (D.T.)";"1.0";"2";"1";"1";"2";"1";"1";"2014-10-16 12:24:23.615";"2014-10-16 12:37:03.102";"1";"0";"0";"63";"62";"module.training_block2.exec-7324.GoNoGo2";;;;;;;;;;;;;;;;;;;;;;;;;;;;;;;;;;;"1257";"2014-10-16 12:28:45.134";"NST_correctLoc";"16";"1";"FINISHED";"RIGHT";"success";"368";"0";"2014-10-16 12:28:43.870";"2";;;;;;;;;;;;;;;;;;;;;;;;;;;;;;;;;;;;;;;;;;;;;
"1310637";"1994";;"Windows 7";"Rachel's Experiment (D.T.)";"1.0";"2";"1";"1";"2";"1";"1";"2014-10-16 12:24:23.615";"2014-10-16 12:37:03.102";"1";"0";"0";"64";"63";"module.training_block2.exec-7324.GoNoGo2";;;;;;;;;;;;;;;;;;;;;;;;;;;;;;;;;;;"1261";"2014-10-16 12:28:47.677";"NST_correctLoc";"19";"1";"FINISHED";"RIGHT";"success";"462";"0";"2014-10-16 12:28:46.413";"3";;;;;;;;;;;;;;;;;;;;;;;;;;;;;;;;;;;;;;;;;;;;;
"1310637";"1994";;"Windows 7";"Rachel's Experiment (D.T.)";"1.0";"2";"1";"1";"2";"1";"1";"2014-10-16 12:24:23.615";"2014-10-16 12:37:03.102";"1";"0";"0";"65";"64";"module.training_block2.exec-7324.GoNoGo2";;;;;;;;;;;;;;;;;;;;;;;;;;;;;;;;;;;"1261";"2014-10-16 12:28:50.220";"NST_correctLoc";"10";"0";"FINISHED";"LEFT";"success";"319";"0";"2014-10-16 12:28:48.956";"2";;;;;;;;;;;;;;;;;;;;;;;;;;;;;;;;;;;;;;;;;;;;;
"1310637";"1994";;"Windows 7";"Rachel's Experiment (D.T.)";"1.0";"2";"1";"1";"2";"1";"1";"2014-10-16 12:24:23.615";"2014-10-16 12:37:03.102";"1";"0";"0";"66";"65";"module.training_block2.exec-7324.GoNoGo2";;;;;;;;;;;;;;;;;;;;;;;;;;;;;;;;;;;"1261";"2014-10-16 12:28:52.762";"NST_correctLoc";"31";"1";"FINISHED";"RIGHT";"success";"376";"0";"2014-10-16 12:28:51.499";"3";;;;;;;;;;;;;;;;;;;;;;;;;;;;;;;;;;;;;;;;;;;;;
"1310637";"1994";;"Windows 7";"Rachel's Experiment (D.T.)";"1.0";"2";"1";"1";"2";"1";"1";"2014-10-16 12:24:23.615";"2014-10-16 12:37:03.102";"1";"0";"0";"67";"66";"module.training_block2.exec-7324.GoNoGo2";;;;;;;;;;;;;;;;;;;;;;;;;;;;;;;;;;;"1261";"2014-10-16 12:28:55.305";"NST_correctLoc";"2";"0";"FINISHED";"LEFT";"success";"297";"0";"2014-10-16 12:28:54.042";"1";;;;;;;;;;;;;;;;;;;;;;;;;;;;;;;;;;;;;;;;;;;;;
"1310637";"1994";;"Windows 7";"Rachel's Experiment (D.T.)";"1.0";"2";"1";"1";"2";"1";"1";"2014-10-16 12:24:23.615";"2014-10-16 12:37:03.102";"1";"0";"0";"68";"67";"module.training_block2.exec-7324.GoNoGo2";;;;;;;;;;;;;;;;;;;;;;;;;;;;;;;;;;;"1261";"2014-10-16 12:28:57.848";"NST_correctLoc";"8";"0";"FINISHED";"LEFT";"success";"530";"0";"2014-10-16 12:28:56.584";"1";;;;;;;;;;;;;;;;;;;;;;;;;;;;;;;;;;;;;;;;;;;;;
"1310637";"1994";;"Windows 7";"Rachel's Experiment (D.T.)";"1.0";"2";"1";"1";"2";"1";"1";"2014-10-16 12:24:23.615";"2014-10-16 12:37:03.102";"1";"0";"0";"69";"68";"module.training_block2.exec-7324.GoNoGo2";;;;;;;;;;;;;;;;;;;;;;;;;;;;;;;;;;;"1261";"2014-10-16 12:29:00.391";"NST_correctLoc";"6";"0";"FINISHED";"LEFT";"success";"355";"0";"2014-10-16 12:28:59.127";"1";;;;;;;;;;;;;;;;;;;;;;;;;;;;;;;;;;;;;;;;;;;;;
"1310637";"1994";;"Windows 7";"Rachel's Experiment (D.T.)";"1.0";"2";"1";"1";"2";"1";"1";"2014-10-16 12:24:23.615";"2014-10-16 12:37:03.102";"1";"0";"0";"70";"69";"module.training_block2.exec-7324.GoNoGo2";;;;;;;;;;;;;;;;;;;;;;;;;;;;;;;;;;;"1261";"2014-10-16 12:29:02.934";"NST_correctLoc";"0";"1";"FINISHED";"RIGHT";"success";"333";"0";"2014-10-16 12:29:01.670";"1";;;;;;;;;;;;;;;;;;;;;;;;;;;;;;;;;;;;;;;;;;;;;
"1310637";"1994";;"Windows 7";"Rachel's Experiment (D.T.)";"1.0";"2";"1";"1";"2";"1";"1";"2014-10-16 12:24:23.615";"2014-10-16 12:37:03.102";"1";"0";"0";"71";"70";"module.training_block2.exec-7324.GoNoGo2";;;;;;;;;;;;;;;;;;;;;;;;;;;;;;;;;;;"1261";"2014-10-16 12:29:05.476";"NST_correctLoc";"29";"1";"FINISHED";"RIGHT";"success";"430";"0";"2014-10-16 12:29:04.213";"3";;;;;;;;;;;;;;;;;;;;;;;;;;;;;;;;;;;;;;;;;;;;;
"1310637";"1994";;"Windows 7";"Rachel's Experiment (D.T.)";"1.0";"2";"1";"1";"2";"1";"1";"2014-10-16 12:24:23.615";"2014-10-16 12:37:03.102";"1";"0";"0";"72";"71";"module.training_block2.exec-7324.GoNoGo2";;;;;;;;;;;;;;;;;;;;;;;;;;;;;;;;;;;"1261";"2014-10-16 12:29:08.019";"NST_correctLoc";"5";"0";"FINISHED";"LEFT";"success";"335";"0";"2014-10-16 12:29:06.756";"1";;;;;;;;;;;;;;;;;;;;;;;;;;;;;;;;;;;;;;;;;;;;;
"1310637";"1994";;"Windows 7";"Rachel's Experiment (D.T.)";"1.0";"2";"1";"1";"2";"1";"1";"2014-10-16 12:24:23.615";"2014-10-16 12:37:03.102";"1";"0";"0";"73";"72";"module.training_block2.exec-7324.GoNoGo2";;;;;;;;;;;;;;;;;;;;;;;;;;;;;;;;;;;"1261";"2014-10-16 12:29:10.562";"NST_correctLoc";"26";"0";"FINISHED";"LEFT";"success";"416";"0";"2014-10-16 12:29:09.298";"3";;;;;;;;;;;;;;;;;;;;;;;;;;;;;;;;;;;;;;;;;;;;;
"1310637";"1994";;"Windows 7";"Rachel's Experiment (D.T.)";"1.0";"2";"1";"1";"2";"1";"1";"2014-10-16 12:24:23.615";"2014-10-16 12:37:03.102";"1";"0";"0";"74";"73";"module.training_block2.exec-7324.GoNoGo2";;;;;;;;;;;;;;;;;;;;;;;;;;;;;;;;;;;"1261";"2014-10-16 12:29:13.120";"NST_correctLoc";"33";"0";"FINISHED";"LEFT";"success";"458";"0";"2014-10-16 12:29:11.857";"3";;;;;;;;;;;;;;;;;;;;;;;;;;;;;;;;;;;;;;;;;;;;;
"1310637";"1994";;"Windows 7";"Rachel's Experiment (D.T.)";"1.0";"2";"1";"1";"2";"1";"1";"2014-10-16 12:24:23.615";"2014-10-16 12:37:03.102";"1";"0";"0";"75";"74";"module.training_block2.exec-7324.GoNoGo2";;;;;;;;;;;;;;;;;;;;;;;;;;;;;;;;;;;"1261";"2014-10-16 12:29:15.663";"NST_correctLoc";"25";"1";"FINISHED";"RIGHT";"success";"419";"0";"2014-10-16 12:29:14.400";"3";;;;;;;;;;;;;;;;;;;;;;;;;;;;;;;;;;;;;;;;;;;;;
"1310637";"1994";;"Windows 7";"Rachel's Experiment (D.T.)";"1.0";"2";"1";"1";"2";"1";"1";"2014-10-16 12:24:23.615";"2014-10-16 12:37:03.102";"1";"0";"0";"76";"75";"module.training_block2.exec-7324.GoNoGo2";;;;;;;;;;;;;;;;;;;;;;;;;;;;;;;;;;;"1261";"2014-10-16 12:29:18.206";"NST_correctLoc";"15";"1";"FINISHED";"RIGHT";"success";"372";"0";"2014-10-16 12:29:16.942";"2";;;;;;;;;;;;;;;;;;;;;;;;;;;;;;;;;;;;;;;;;;;;;
"1310637";"1994";;"Windows 7";"Rachel's Experiment (D.T.)";"1.0";"2";"1";"1";"2";"1";"1";"2014-10-16 12:24:23.615";"2014-10-16 12:37:03.102";"1";"0";"0";"77";"76";"module.training_block2.exec-7324.GoNoGo2";;;;;;;;;;;;;;;;;;;;;;;;;;;;;;;;;;;"1261";"2014-10-16 12:29:20.749";"NST_correctLoc";"12";"0";"FINISHED";"LEFT";"success";"397";"0";"2014-10-16 12:29:19.485";"2";;;;;;;;;;;;;;;;;;;;;;;;;;;;;;;;;;;;;;;;;;;;;
"1310637";"1994";;"Windows 7";"Rachel's Experiment (D.T.)";"1.0";"2";"1";"1";"2";"1";"1";"2014-10-16 12:24:23.615";"2014-10-16 12:37:03.102";"1";"0";"0";"78";"77";"module.training_block2.exec-7324.GoNoGo2";;;;;;;;;;;;;;;;;;;;;;;;;;;;;;;;;;;"1261";"2014-10-16 12:29:23.292";"NST_correctLoc";"9";"1";"FINISHED";"RIGHT";"success";"366";"0";"2014-10-16 12:29:22.028";"2";;;;;;;;;;;;;;;;;;;;;;;;;;;;;;;;;;;;;;;;;;;;;
"1310637";"1994";;"Windows 7";"Rachel's Experiment (D.T.)";"1.0";"2";"1";"1";"2";"1";"1";"2014-10-16 12:24:23.615";"2014-10-16 12:37:03.102";"1";"0";"0";"79";"78";"module.training_block2.exec-7324.GoNoGo2";;;;;;;;;;;;;;;;;;;;;;;;;;;;;;;;;;;"1261";"2014-10-16 12:29:25.834";"NST_correctLoc";"7";"0";"FINISHED";"LEFT";"success";"408";"0";"2014-10-16 12:29:24.571";"1";;;;;;;;;;;;;;;;;;;;;;;;;;;;;;;;;;;;;;;;;;;;;
"1310637";"1994";;"Windows 7";"Rachel's Experiment (D.T.)";"1.0";"2";"1";"1";"2";"1";"1";"2014-10-16 12:24:23.615";"2014-10-16 12:37:03.102";"1";"0";"0";"80";"79";"module.training_block2.exec-7324.GoNoGo2";;;;;;;;;;;;;;;;;;;;;;;;;;;;;;;;;;;"1261";"2014-10-16 12:29:28.377";"NST_correctLoc";"14";"0";"FINISHED";"LEFT";"success";"377";"0";"2014-10-16 12:29:27.114";"2";;;;;;;;;;;;;;;;;;;;;;;;;;;;;;;;;;;;;;;;;;;;;
"1310637";"1994";;"Windows 7";"Rachel's Experiment (D.T.)";"1.0";"2";"1";"1";"2";"1";"1";"2014-10-16 12:24:23.615";"2014-10-16 12:37:03.102";"1";"0";"0";"81";"80";"module.training_block2.exec-7324.GoNoGo2";;;;;;;;;;;;;;;;;;;;;;;;;;;;;;;;;;;"1261";"2014-10-16 12:29:30.920";"NST_correctLoc";"4";"1";"FINISHED";"RIGHT";"success";"330";"0";"2014-10-16 12:29:29.656";"1";;;;;;;;;;;;;;;;;;;;;;;;;;;;;;;;;;;;;;;;;;;;;
"1310637";"1994";;"Windows 7";"Rachel's Experiment (D.T.)";"1.0";"2";"1";"1";"2";"1";"1";"2014-10-16 12:24:23.615";"2014-10-16 12:37:03.102";"1";"0";"0";"82";"81";"module.training_block2.exec-7324.GoNoGo2";;;;;;;;;;;;;;;;;;;;;;;;;;;;;;;;;;;"1261";"2014-10-16 12:29:33.463";"NST_correctLoc";"27";"0";"FINISHED";"LEFT";"success";"371";"0";"2014-10-16 12:29:32.199";"3";;;;;;;;;;;;;;;;;;;;;;;;;;;;;;;;;;;;;;;;;;;;;
"1310637";"1994";;"Windows 7";"Rachel's Experiment (D.T.)";"1.0";"2";"1";"1";"2";"1";"1";"2014-10-16 12:24:23.615";"2014-10-16 12:37:03.102";"1";"0";"0";"83";"82";"module.training_block2.exec-7324.GoNoGo2";;;;;;;;;;;;;;;;;;;;;;;;;;;;;;;;;;;"1261";"2014-10-16 12:29:36.021";"NST_correctLoc";"3";"0";"FINISHED";"LEFT";"success";"381";"0";"2014-10-16 12:29:34.758";"1";;;;;;;;;;;;;;;;;;;;;;;;;;;;;;;;;;;;;;;;;;;;;
"1310637";"1994";;"Windows 7";"Rachel's Experiment (D.T.)";"1.0";"2";"1";"1";"2";"1";"1";"2014-10-16 12:24:23.615";"2014-10-16 12:37:03.102";"1";"0";"0";"84";"83";"module.training_block2.exec-7324.GoNoGo2";;;;;;;;;;;;;;;;;;;;;;;;;;;;;;;;;;;"1261";"2014-10-16 12:29:38.564";"NST_correctLoc";"21";"0";"FINISHED";"LEFT";"success";"382";"0";"2014-10-16 12:29:37.300";"3";;;;;;;;;;;;;;;;;;;;;;;;;;;;;;;;;;;;;;;;;;;;;
"1310637";"1994";;"Windows 7";"Rachel's Experiment (D.T.)";"1.0";"2";"1";"1";"2";"1";"1";"2014-10-16 12:24:23.615";"2014-10-16 12:37:03.102";"1";"0";"0";"85";"84";"module.training_block2.exec-7324.GoNoGo2";;;;;;;;;;;;;;;;;;;;;;;;;;;;;;;;;;;"1261";"2014-10-16 12:29:41.107";"NST_correctLoc";"32";"1";"FINISHED";"RIGHT";"success";"431";"0";"2014-10-16 12:29:39.843";"3";;;;;;;;;;;;;;;;;;;;;;;;;;;;;;;;;;;;;;;;;;;;;
"1310637";"1994";;"Windows 7";"Rachel's Experiment (D.T.)";"1.0";"2";"1";"1";"2";"1";"1";"2014-10-16 12:24:23.615";"2014-10-16 12:37:03.102";"1";"0";"0";"86";"85";"module.training_block2.exec-7324.GoNoGo2";;;;;;;;;;;;;;;;;;;;;;;;;;;;;;;;;;;"1261";"2014-10-16 12:29:43.650";"NST_correctLoc";"24";"1";"FINISHED";"RIGHT";"success";"472";"0";"2014-10-16 12:29:42.386";"3";;;;;;;;;;;;;;;;;;;;;;;;;;;;;;;;;;;;;;;;;;;;;
"1310637";"1994";;"Windows 7";"Rachel's Experiment (D.T.)";"1.0";"2";"1";"1";"2";"1";"1";"2014-10-16 12:24:23.615";"2014-10-16 12:37:03.102";"1";"0";"0";"87";"86";"module.training_block2.exec-7324.GoNoGo2";;;;;;;;;;;;;;;;;;;;;;;;;;;;;;;;;;;"1261";"2014-10-16 12:29:46.192";"NST_correctLoc";"1";"0";"FINISHED";"LEFT";"success";"434";"0";"2014-10-16 12:29:44.929";"1";;;;;;;;;;;;;;;;;;;;;;;;;;;;;;;;;;;;;;;;;;;;;
"1310637";"1994";;"Windows 7";"Rachel's Experiment (D.T.)";"1.0";"2";"1";"1";"2";"1";"1";"2014-10-16 12:24:23.615";"2014-10-16 12:37:03.102";"1";"0";"0";"88";"87";"module.training_block3.exec-3690.GoNoGo3";;;;;;;;;;;;;;;;;;;;;;;;;;;;;;;;;;;;;;;;;;;;;;;"1261";"2014-10-16 12:29:58.314";"NST_correctLoc";"13";"1";"FINISHED";"RIGHT";"success";"368";"0";"2014-10-16 12:29:57.050";"2";;;;;;;;;;;;;;;;;;;;;;;;;;;;;;;;;
"1310637";"1994";;"Windows 7";"Rachel's Experiment (D.T.)";"1.0";"2";"1";"1";"2";"1";"1";"2014-10-16 12:24:23.615";"2014-10-16 12:37:03.102";"1";"0";"0";"89";"88";"module.training_block3.exec-3690.GoNoGo3";;;;;;;;;;;;;;;;;;;;;;;;;;;;;;;;;;;;;;;;;;;;;;;"1261";"2014-10-16 12:30:00.856";"NST_correctLoc";"0";"1";"FINISHED";"RIGHT";"success";"377";"0";"2014-10-16 12:29:59.593";"1";;;;;;;;;;;;;;;;;;;;;;;;;;;;;;;;;
"1310637";"1994";;"Windows 7";"Rachel's Experiment (D.T.)";"1.0";"2";"1";"1";"2";"1";"1";"2014-10-16 12:24:23.615";"2014-10-16 12:37:03.102";"1";"0";"0";"90";"89";"module.training_block3.exec-3690.GoNoGo3";;;;;;;;;;;;;;;;;;;;;;;;;;;;;;;;;;;;;;;;;;;;;;;"1261";"2014-10-16 12:30:03.399";"NST_correctLoc";"8";"0";"FINISHED";"LEFT";"success";"387";"0";"2014-10-16 12:30:02.136";"1";;;;;;;;;;;;;;;;;;;;;;;;;;;;;;;;;
"1310637";"1994";;"Windows 7";"Rachel's Experiment (D.T.)";"1.0";"2";"1";"1";"2";"1";"1";"2014-10-16 12:24:23.615";"2014-10-16 12:37:03.102";"1";"0";"0";"91";"90";"module.training_block3.exec-3690.GoNoGo3";;;;;;;;;;;;;;;;;;;;;;;;;;;;;;;;;;;;;;;;;;;;;;;"1261";"2014-10-16 12:30:05.942";"NST_correctLoc";"7";"0";"FINISHED";"LEFT";"success";"364";"0";"2014-10-16 12:30:04.678";"1";;;;;;;;;;;;;;;;;;;;;;;;;;;;;;;;;
"1310637";"1994";;"Windows 7";"Rachel's Experiment (D.T.)";"1.0";"2";"1";"1";"2";"1";"1";"2014-10-16 12:24:23.615";"2014-10-16 12:37:03.102";"1";"0";"0";"92";"91";"module.training_block3.exec-3690.GoNoGo3";;;;;;;;;;;;;;;;;;;;;;;;;;;;;;;;;;;;;;;;;;;;;;;"1261";"2014-10-16 12:30:08.485";"NST_correctLoc";"18";"0";"FINISHED";"LEFT";"success";"357";"0";"2014-10-16 12:30:07.221";"3";;;;;;;;;;;;;;;;;;;;;;;;;;;;;;;;;
"1310637";"1994";;"Windows 7";"Rachel's Experiment (D.T.)";"1.0";"2";"1";"1";"2";"1";"1";"2014-10-16 12:24:23.615";"2014-10-16 12:37:03.102";"1";"0";"0";"93";"92";"module.training_block3.exec-3690.GoNoGo3";;;;;;;;;;;;;;;;;;;;;;;;;;;;;;;;;;;;;;;;;;;;;;;"1261";"2014-10-16 12:30:11.028";"NST_correctLoc";"20";"1";"FINISHED";"RIGHT";"success";"318";"0";"2014-10-16 12:30:09.764";"3";;;;;;;;;;;;;;;;;;;;;;;;;;;;;;;;;
"1310637";"1994";;"Windows 7";"Rachel's Experiment (D.T.)";"1.0";"2";"1";"1";"2";"1";"1";"2014-10-16 12:24:23.615";"2014-10-16 12:37:03.102";"1";"0";"0";"94";"93";"module.training_block3.exec-3690.GoNoGo3";;;;;;;;;;;;;;;;;;;;;;;;;;;;;;;;;;;;;;;;;;;;;;;"1262";"2014-10-16 12:30:13.570";"NST_correctLoc";"25";"0";"FINISHED";"LEFT";"success";"311";"0";"2014-10-16 12:30:12.307";"3";;;;;;;;;;;;;;;;;;;;;;;;;;;;;;;;;
"1310637";"1994";;"Windows 7";"Rachel's Experiment (D.T.)";"1.0";"2";"1";"1";"2";"1";"1";"2014-10-16 12:24:23.615";"2014-10-16 12:37:03.102";"1";"0";"0";"95";"94";"module.training_block3.exec-3690.GoNoGo3";;;;;;;;;;;;;;;;;;;;;;;;;;;;;;;;;;;;;;;;;;;;;;;"1262";"2014-10-16 12:30:16.113";"NST_correctLoc";"5";"0";"FINISHED";"LEFT";"success";"601";"0";"2014-10-16 12:30:14.850";"1";;;;;;;;;;;;;;;;;;;;;;;;;;;;;;;;;
"1310637";"1994";;"Windows 7";"Rachel's Experiment (D.T.)";"1.0";"2";"1";"1";"2";"1";"1";"2014-10-16 12:24:23.615";"2014-10-16 12:37:03.102";"1";"0";"0";"96";"95";"module.training_block3.exec-3690.GoNoGo3";;;;;;;;;;;;;;;;;;;;;;;;;;;;;;;;;;;;;;;;;;;;;;;"1261";"2014-10-16 12:30:18.656";"NST_correctLoc";"6";"1";"FINISHED";"RIGHT";"success";"418";"0";"2014-10-16 12:30:17.392";"1";;;;;;;;;;;;;;;;;;;;;;;;;;;;;;;;;
"1310637";"1994";;"Windows 7";"Rachel's Experiment (D.T.)";"1.0";"2";"1";"1";"2";"1";"1";"2014-10-16 12:24:23.615";"2014-10-16 12:37:03.102";"1";"0";"0";"97";"96";"module.training_block3.exec-3690.GoNoGo3";;;;;;;;;;;;;;;;;;;;;;;;;;;;;;;;;;;;;;;;;;;;;;;"1261";"2014-10-16 12:30:21.199";"NST_correctLoc";"3";"1";"FINISHED";"RIGHT";"success";"387";"0";"2014-10-16 12:30:19.935";"1";;;;;;;;;;;;;;;;;;;;;;;;;;;;;;;;;
"1310637";"1994";;"Windows 7";"Rachel's Experiment (D.T.)";"1.0";"2";"1";"1";"2";"1";"1";"2014-10-16 12:24:23.615";"2014-10-16 12:37:03.102";"1";"0";"0";"98";"97";"module.training_block3.exec-3690.GoNoGo3";;;;;;;;;;;;;;;;;;;;;;;;;;;;;;;;;;;;;;;;;;;;;;;"1262";"2014-10-16 12:30:23.742";"NST_correctLoc";"4";"1";"FINISHED";"RIGHT";"success";"556";"0";"2014-10-16 12:30:22.478";"1";;;;;;;;;;;;;;;;;;;;;;;;;;;;;;;;;
"1310637";"1994";;"Windows 7";"Rachel's Experiment (D.T.)";"1.0";"2";"1";"1";"2";"1";"1";"2014-10-16 12:24:23.615";"2014-10-16 12:37:03.102";"1";"0";"0";"99";"98";"module.training_block3.exec-3690.GoNoGo3";;;;;;;;;;;;;;;;;;;;;;;;;;;;;;;;;;;;;;;;;;;;;;;"1262";"2014-10-16 12:30:26.285";"NST_correctLoc";"30";"1";"FINISHED";"RIGHT";"success";"413";"0";"2014-10-16 12:30:25.021";"3";;;;;;;;;;;;;;;;;;;;;;;;;;;;;;;;;
"1310637";"1994";;"Windows 7";"Rachel's Experiment (D.T.)";"1.0";"2";"1";"1";"2";"1";"1";"2014-10-16 12:24:23.615";"2014-10-16 12:37:03.102";"1";"0";"0";"100";"99";"module.training_block3.exec-3690.GoNoGo3";;;;;;;;;;;;;;;;;;;;;;;;;;;;;;;;;;;;;;;;;;;;;;;"1261";"2014-10-16 12:30:28.827";"NST_correctLoc";"31";"1";"FINISHED";"RIGHT";"success";"446";"0";"2014-10-16 12:30:27.564";"3";;;;;;;;;;;;;;;;;;;;;;;;;;;;;;;;;
"1310637";"1994";;"Windows 7";"Rachel's Experiment (D.T.)";"1.0";"2";"1";"1";"2";"1";"1";"2014-10-16 12:24:23.615";"2014-10-16 12:37:03.102";"1";"0";"0";"101";"100";"module.training_block3.exec-3690.GoNoGo3";;;;;;;;;;;;;;;;;;;;;;;;;;;;;;;;;;;;;;;;;;;;;;;"1261";"2014-10-16 12:30:31.370";"NST_correctLoc";"11";"1";"FINISHED";"RIGHT";"success";"528";"0";"2014-10-16 12:30:30.107";"2";;;;;;;;;;;;;;;;;;;;;;;;;;;;;;;;;
"1310637";"1994";;"Windows 7";"Rachel's Experiment (D.T.)";"1.0";"2";"1";"1";"2";"1";"1";"2014-10-16 12:24:23.615";"2014-10-16 12:37:03.102";"1";"0";"0";"102";"101";"module.training_block3.exec-3690.GoNoGo3";;;;;;;;;;;;;;;;;;;;;;;;;;;;;;;;;;;;;;;;;;;;;;;"1261";"2014-10-16 12:30:33.913";"NST_correctLoc";"34";"0";"FINISHED";"LEFT";"success";"457";"0";"2014-10-16 12:30:32.649";"3";;;;;;;;;;;;;;;;;;;;;;;;;;;;;;;;;
"1310637";"1994";;"Windows 7";"Rachel's Experiment (D.T.)";"1.0";"2";"1";"1";"2";"1";"1";"2014-10-16 12:24:23.615";"2014-10-16 12:37:03.102";"1";"0";"0";"103";"102";"module.training_block3.exec-3690.GoNoGo3";;;;;;;;;;;;;;;;;;;;;;;;;;;;;;;;;;;;;;;;;;;;;;;"1261";"2014-10-16 12:30:36.456";"NST_correctLoc";"21";"1";"FINISHED";"RIGHT";"success";"362";"0";"2014-10-16 12:30:35.192";"3";;;;;;;;;;;;;;;;;;;;;;;;;;;;;;;;;
"1310637";"1994";;"Windows 7";"Rachel's Experiment (D.T.)";"1.0";"2";"1";"1";"2";"1";"1";"2014-10-16 12:24:23.615";"2014-10-16 12:37:03.102";"1";"0";"0";"104";"103";"module.training_block3.exec-3690.GoNoGo3";;;;;;;;;;;;;;;;;;;;;;;;;;;;;;;;;;;;;;;;;;;;;;;"1262";"2014-10-16 12:30:38.983";"NST_correctLoc";"35";"1";"FINISHED";"RIGHT";"success";"403";"0";"2014-10-16 12:30:37.719";"3";;;;;;;;;;;;;;;;;;;;;;;;;;;;;;;;;
"1310637";"1994";;"Windows 7";"Rachel's Experiment (D.T.)";"1.0";"2";"1";"1";"2";"1";"1";"2014-10-16 12:24:23.615";"2014-10-16 12:37:03.102";"1";"0";"0";"105";"104";"module.training_block3.exec-3690.GoNoGo3";;;;;;;;;;;;;;;;;;;;;;;;;;;;;;;;;;;;;;;;;;;;;;;"1261";"2014-10-16 12:30:41.526";"NST_correctLoc";"12";"0";"FINISHED";"LEFT";"success";"540";"0";"2014-10-16 12:30:40.262";"2";;;;;;;;;;;;;;;;;;;;;;;;;;;;;;;;;
"1310637";"1994";;"Windows 7";"Rachel's Experiment (D.T.)";"1.0";"2";"1";"1";"2";"1";"1";"2014-10-16 12:24:23.615";"2014-10-16 12:37:03.102";"1";"0";"0";"106";"105";"module.training_block3.exec-3690.GoNoGo3";;;;;;;;;;;;;;;;;;;;;;;;;;;;;;;;;;;;;;;;;;;;;;;"1261";"2014-10-16 12:30:44.053";"NST_correctLoc";"9";"0";"FINISHED";"LEFT";"success";"381";"0";"2014-10-16 12:30:42.789";"2";;;;;;;;;;;;;;;;;;;;;;;;;;;;;;;;;
"1310637";"1994";;"Windows 7";"Rachel's Experiment (D.T.)";"1.0";"2";"1";"1";"2";"1";"1";"2014-10-16 12:24:23.615";"2014-10-16 12:37:03.102";"1";"0";"0";"107";"106";"module.training_block3.exec-3690.GoNoGo3";;;;;;;;;;;;;;;;;;;;;;;;;;;;;;;;;;;;;;;;;;;;;;;"1261";"2014-10-16 12:30:46.596";"NST_correctLoc";"28";"1";"FINISHED";"RIGHT";"success";"390";"0";"2014-10-16 12:30:45.332";"3";;;;;;;;;;;;;;;;;;;;;;;;;;;;;;;;;
"1310637";"1994";;"Windows 7";"Rachel's Experiment (D.T.)";"1.0";"2";"1";"1";"2";"1";"1";"2014-10-16 12:24:23.615";"2014-10-16 12:37:03.102";"1";"0";"0";"108";"107";"module.training_block3.exec-3690.GoNoGo3";;;;;;;;;;;;;;;;;;;;;;;;;;;;;;;;;;;;;;;;;;;;;;;"1261";"2014-10-16 12:30:49.154";"NST_correctLoc";"32";"0";"FINISHED";"LEFT";"success";"327";"0";"2014-10-16 12:30:47.891";"3";;;;;;;;;;;;;;;;;;;;;;;;;;;;;;;;;
"1310637";"1994";;"Windows 7";"Rachel's Experiment (D.T.)";"1.0";"2";"1";"1";"2";"1";"1";"2014-10-16 12:24:23.615";"2014-10-16 12:37:03.102";"1";"0";"0";"109";"108";"module.training_block3.exec-3690.GoNoGo3";;;;;;;;;;;;;;;;;;;;;;;;;;;;;;;;;;;;;;;;;;;;;;;"1261";"2014-10-16 12:30:51.681";"NST_correctLoc";"33";"0";"FINISHED";"LEFT";"success";"368";"0";"2014-10-16 12:30:50.418";"3";;;;;;;;;;;;;;;;;;;;;;;;;;;;;;;;;
"1310637";"1994";;"Windows 7";"Rachel's Experiment (D.T.)";"1.0";"2";"1";"1";"2";"1";"1";"2014-10-16 12:24:23.615";"2014-10-16 12:37:03.102";"1";"0";"0";"110";"109";"module.training_block3.exec-3690.GoNoGo3";;;;;;;;;;;;;;;;;;;;;;;;;;;;;;;;;;;;;;;;;;;;;;;"1261";"2014-10-16 12:30:54.224";"NST_correctLoc";"26";"0";"FINISHED";"LEFT";"success";"385";"0";"2014-10-16 12:30:52.961";"3";;;;;;;;;;;;;;;;;;;;;;;;;;;;;;;;;
"1310637";"1994";;"Windows 7";"Rachel's Experiment (D.T.)";"1.0";"2";"1";"1";"2";"1";"1";"2014-10-16 12:24:23.615";"2014-10-16 12:37:03.102";"1";"0";"0";"111";"110";"module.training_block3.exec-3690.GoNoGo3";;;;;;;;;;;;;;;;;;;;;;;;;;;;;;;;;;;;;;;;;;;;;;;"1261";"2014-10-16 12:30:56.751";"NST_correctLoc";"27";"1";"FINISHED";"RIGHT";"success";"394";"0";"2014-10-16 12:30:55.488";"3";;;;;;;;;;;;;;;;;;;;;;;;;;;;;;;;;
"1310637";"1994";;"Windows 7";"Rachel's Experiment (D.T.)";"1.0";"2";"1";"1";"2";"1";"1";"2014-10-16 12:24:23.615";"2014-10-16 12:37:03.102";"1";"0";"0";"112";"111";"module.training_block3.exec-3690.GoNoGo3";;;;;;;;;;;;;;;;;;;;;;;;;;;;;;;;;;;;;;;;;;;;;;;"1258";"2014-10-16 12:30:59.294";"NST_correctLoc";"24";"0";"FINISHED";"LEFT";"success";"376";"0";"2014-10-16 12:30:58.031";"3";;;;;;;;;;;;;;;;;;;;;;;;;;;;;;;;;
"1310637";"1994";;"Windows 7";"Rachel's Experiment (D.T.)";"1.0";"2";"1";"1";"2";"1";"1";"2014-10-16 12:24:23.615";"2014-10-16 12:37:03.102";"1";"0";"0";"113";"112";"module.training_block3.exec-3690.GoNoGo3";;;;;;;;;;;;;;;;;;;;;;;;;;;;;;;;;;;;;;;;;;;;;;;"1262";"2014-10-16 12:31:01.821";"NST_correctLoc";"22";"1";"FINISHED";"RIGHT";"success";"308";"0";"2014-10-16 12:31:00.558";"3";;;;;;;;;;;;;;;;;;;;;;;;;;;;;;;;;
"1310637";"1994";;"Windows 7";"Rachel's Experiment (D.T.)";"1.0";"2";"1";"1";"2";"1";"1";"2014-10-16 12:24:23.615";"2014-10-16 12:37:03.102";"1";"0";"0";"114";"113";"module.training_block3.exec-3690.GoNoGo3";;;;;;;;;;;;;;;;;;;;;;;;;;;;;;;;;;;;;;;;;;;;;;;"1261";"2014-10-16 12:31:04.349";"NST_correctLoc";"29";"1";"FINISHED";"RIGHT";"success";"453";"0";"2014-10-16 12:31:03.085";"3";;;;;;;;;;;;;;;;;;;;;;;;;;;;;;;;;
"1310637";"1994";;"Windows 7";"Rachel's Experiment (D.T.)";"1.0";"2";"1";"1";"2";"1";"1";"2014-10-16 12:24:23.615";"2014-10-16 12:37:03.102";"1";"0";"0";"115";"114";"module.training_block3.exec-3690.GoNoGo3";;;;;;;;;;;;;;;;;;;;;;;;;;;;;;;;;;;;;;;;;;;;;;;"1262";"2014-10-16 12:31:06.876";"NST_correctLoc";"17";"1";"FINISHED";"RIGHT";"success";"526";"0";"2014-10-16 12:31:05.612";"2";;;;;;;;;;;;;;;;;;;;;;;;;;;;;;;;;
"1310637";"1994";;"Windows 7";"Rachel's Experiment (D.T.)";"1.0";"2";"1";"1";"2";"1";"1";"2014-10-16 12:24:23.615";"2014-10-16 12:37:03.102";"1";"0";"0";"116";"115";"module.training_block3.exec-3690.GoNoGo3";;;;;;;;;;;;;;;;;;;;;;;;;;;;;;;;;;;;;;;;;;;;;;;"1261";"2014-10-16 12:31:09.403";"NST_correctLoc";"10";"1";"FINISHED";"RIGHT";"success";"415";"0";"2014-10-16 12:31:08.139";"2";;;;;;;;;;;;;;;;;;;;;;;;;;;;;;;;;
"1310637";"1994";;"Windows 7";"Rachel's Experiment (D.T.)";"1.0";"2";"1";"1";"2";"1";"1";"2014-10-16 12:24:23.615";"2014-10-16 12:37:03.102";"1";"0";"0";"117";"116";"module.training_block3.exec-3690.GoNoGo3";;;;;;;;;;;;;;;;;;;;;;;;;;;;;;;;;;;;;;;;;;;;;;;"1261";"2014-10-16 12:31:11.930";"NST_correctLoc";"19";"0";"FINISHED";"LEFT";"success";"527";"0";"2014-10-16 12:31:10.667";"3";;;;;;;;;;;;;;;;;;;;;;;;;;;;;;;;;
"1310637";"1994";;"Windows 7";"Rachel's Experiment (D.T.)";"1.0";"2";"1";"1";"2";"1";"1";"2014-10-16 12:24:23.615";"2014-10-16 12:37:03.102";"1";"0";"0";"118";"117";"module.training_block3.exec-3690.GoNoGo3";;;;;;;;;;;;;;;;;;;;;;;;;;;;;;;;;;;;;;;;;;;;;;;"1262";"2014-10-16 12:31:14.473";"NST_correctLoc";"1";"1";"FINISHED";"RIGHT";"success";"617";"0";"2014-10-16 12:31:13.209";"1";;;;;;;;;;;;;;;;;;;;;;;;;;;;;;;;;
"1310637";"1994";;"Windows 7";"Rachel's Experiment (D.T.)";"1.0";"2";"1";"1";"2";"1";"1";"2014-10-16 12:24:23.615";"2014-10-16 12:37:03.102";"1";"0";"0";"119";"118";"module.training_block3.exec-3690.GoNoGo3";;;;;;;;;;;;;;;;;;;;;;;;;;;;;;;;;;;;;;;;;;;;;;;"1261";"2014-10-16 12:31:17.000";"NST_correctLoc";"23";"0";"FINISHED";"LEFT";"success";"473";"0";"2014-10-16 12:31:15.737";"3";;;;;;;;;;;;;;;;;;;;;;;;;;;;;;;;;
"1310637";"1994";;"Windows 7";"Rachel's Experiment (D.T.)";"1.0";"2";"1";"1";"2";"1";"1";"2014-10-16 12:24:23.615";"2014-10-16 12:37:03.102";"1";"0";"0";"120";"119";"module.training_block3.exec-3690.GoNoGo3";;;;;;;;;;;;;;;;;;;;;;;;;;;;;;;;;;;;;;;;;;;;;;;"1262";"2014-10-16 12:31:19.527";"NST_correctLoc";"15";"1";"FINISHED";"RIGHT";"success";"434";"0";"2014-10-16 12:31:18.264";"2";;;;;;;;;;;;;;;;;;;;;;;;;;;;;;;;;
"1310637";"1994";;"Windows 7";"Rachel's Experiment (D.T.)";"1.0";"2";"1";"1";"2";"1";"1";"2014-10-16 12:24:23.615";"2014-10-16 12:37:03.102";"1";"0";"0";"121";"120";"module.training_block3.exec-3690.GoNoGo3";;;;;;;;;;;;;;;;;;;;;;;;;;;;;;;;;;;;;;;;;;;;;;;"1262";"2014-10-16 12:31:22.055";"NST_correctLoc";"14";"0";"FINISHED";"LEFT";"success";"531";"0";"2014-10-16 12:31:20.791";"2";;;;;;;;;;;;;;;;;;;;;;;;;;;;;;;;;
"1310637";"1994";;"Windows 7";"Rachel's Experiment (D.T.)";"1.0";"2";"1";"1";"2";"1";"1";"2014-10-16 12:24:23.615";"2014-10-16 12:37:03.102";"1";"0";"0";"122";"121";"module.training_block3.exec-3690.GoNoGo3";;;;;;;;;;;;;;;;;;;;;;;;;;;;;;;;;;;;;;;;;;;;;;;"1261";"2014-10-16 12:31:24.582";"NST_correctLoc";"16";"1";"FINISHED";"RIGHT";"success";"428";"0";"2014-10-16 12:31:23.318";"2";;;;;;;;;;;;;;;;;;;;;;;;;;;;;;;;;
"1310637";"1994";;"Windows 7";"Rachel's Experiment (D.T.)";"1.0";"2";"1";"1";"2";"1";"1";"2014-10-16 12:24:23.615";"2014-10-16 12:37:03.102";"1";"0";"0";"123";"122";"module.training_block3.exec-3690.GoNoGo3";;;;;;;;;;;;;;;;;;;;;;;;;;;;;;;;;;;;;;;;;;;;;;;"1262";"2014-10-16 12:31:27.109";"NST_correctLoc";"2";"1";"FINISHED";"RIGHT";"success";"396";"0";"2014-10-16 12:31:25.845";"1";;;;;;;;;;;;;;;;;;;;;;;;;;;;;;;;;
"1310637";"1994";;"Windows 7";"Rachel's Experiment (D.T.)";"1.0";"2";"1";"1";"2";"1";"1";"2014-10-16 12:24:23.615";"2014-10-16 12:37:03.102";"1";"0";"0";"124";"123";"module.training_block4.exec-8638.GoNoGo4";;;;;;;;;;;;;;;;;;;;;;;;;;;;;;;;;;;;;;;;;;;;;;;;;;;;;;;;;;;"1261";"2014-10-16 12:31:38.216";"NST_correctLoc";"32";"1";"FINISHED";"RIGHT";"success";"433";"0";"2014-10-16 12:31:36.953";"3";;;;;;;;;;;;;;;;;;;;;
"1310637";"1994";;"Windows 7";"Rachel's Experiment (D.T.)";"1.0";"2";"1";"1";"2";"1";"1";"2014-10-16 12:24:23.615";"2014-10-16 12:37:03.102";"1";"0";"0";"125";"124";"module.training_block4.exec-8638.GoNoGo4";;;;;;;;;;;;;;;;;;;;;;;;;;;;;;;;;;;;;;;;;;;;;;;;;;;;;;;;;;;"1261";"2014-10-16 12:31:40.743";"NST_correctLoc";"7";"1";"FINISHED";"RIGHT";"success";"450";"0";"2014-10-16 12:31:39.480";"1";;;;;;;;;;;;;;;;;;;;;
"1310637";"1994";;"Windows 7";"Rachel's Experiment (D.T.)";"1.0";"2";"1";"1";"2";"1";"1";"2014-10-16 12:24:23.615";"2014-10-16 12:37:03.102";"1";"0";"0";"126";"125";"module.training_block4.exec-8638.GoNoGo4";;;;;;;;;;;;;;;;;;;;;;;;;;;;;;;;;;;;;;;;;;;;;;;;;;;;;;;;;;;"1261";"2014-10-16 12:31:43.271";"NST_correctLoc";"29";"0";"FINISHED";"LEFT";"success";"331";"0";"2014-10-16 12:31:42.007";"3";;;;;;;;;;;;;;;;;;;;;
"1310637";"1994";;"Windows 7";"Rachel's Experiment (D.T.)";"1.0";"2";"1";"1";"2";"1";"1";"2014-10-16 12:24:23.615";"2014-10-16 12:37:03.102";"1";"0";"0";"127";"126";"module.training_block4.exec-8638.GoNoGo4";;;;;;;;;;;;;;;;;;;;;;;;;;;;;;;;;;;;;;;;;;;;;;;;;;;;;;;;;;;"1262";"2014-10-16 12:31:45.798";"NST_correctLoc";"23";"1";"FINISHED";"RIGHT";"success";"395";"0";"2014-10-16 12:31:44.534";"3";;;;;;;;;;;;;;;;;;;;;
"1310637";"1994";;"Windows 7";"Rachel's Experiment (D.T.)";"1.0";"2";"1";"1";"2";"1";"1";"2014-10-16 12:24:23.615";"2014-10-16 12:37:03.102";"1";"0";"0";"128";"127";"module.training_block4.exec-8638.GoNoGo4";;;;;;;;;;;;;;;;;;;;;;;;;;;;;;;;;;;;;;;;;;;;;;;;;;;;;;;;;;;"1262";"2014-10-16 12:31:48.325";"NST_correctLoc";"12";"0";"FINISHED";"LEFT";"success";"356";"0";"2014-10-16 12:31:47.061";"2";;;;;;;;;;;;;;;;;;;;;
"1310637";"1994";;"Windows 7";"Rachel's Experiment (D.T.)";"1.0";"2";"1";"1";"2";"1";"1";"2014-10-16 12:24:23.615";"2014-10-16 12:37:03.102";"1";"0";"0";"129";"128";"module.training_block4.exec-8638.GoNoGo4";;;;;;;;;;;;;;;;;;;;;;;;;;;;;;;;;;;;;;;;;;;;;;;;;;;;;;;;;;;"1262";"2014-10-16 12:31:50.852";"NST_correctLoc";"22";"0";"FINISHED";"LEFT";"success";"357";"0";"2014-10-16 12:31:49.589";"3";;;;;;;;;;;;;;;;;;;;;
"1310637";"1994";;"Windows 7";"Rachel's Experiment (D.T.)";"1.0";"2";"1";"1";"2";"1";"1";"2014-10-16 12:24:23.615";"2014-10-16 12:37:03.102";"1";"0";"0";"130";"129";"module.training_block4.exec-8638.GoNoGo4";;;;;;;;;;;;;;;;;;;;;;;;;;;;;;;;;;;;;;;;;;;;;;;;;;;;;;;;;;;"1262";"2014-10-16 12:31:53.379";"NST_correctLoc";"11";"1";"FINISHED";"RIGHT";"success";"358";"0";"2014-10-16 12:31:52.116";"2";;;;;;;;;;;;;;;;;;;;;
"1310637";"1994";;"Windows 7";"Rachel's Experiment (D.T.)";"1.0";"2";"1";"1";"2";"1";"1";"2014-10-16 12:24:23.615";"2014-10-16 12:37:03.102";"1";"0";"0";"131";"130";"module.training_block4.exec-8638.GoNoGo4";;;;;;;;;;;;;;;;;;;;;;;;;;;;;;;;;;;;;;;;;;;;;;;;;;;;;;;;;;;"1262";"2014-10-16 12:31:55.922";"NST_correctLoc";"16";"1";"FINISHED";"RIGHT";"success";"375";"0";"2014-10-16 12:31:54.659";"2";;;;;;;;;;;;;;;;;;;;;
"1310637";"1994";;"Windows 7";"Rachel's Experiment (D.T.)";"1.0";"2";"1";"1";"2";"1";"1";"2014-10-16 12:24:23.615";"2014-10-16 12:37:03.102";"1";"0";"0";"132";"131";"module.training_block4.exec-8638.GoNoGo4";;;;;;;;;;;;;;;;;;;;;;;;;;;;;;;;;;;;;;;;;;;;;;;;;;;;;;;;;;;"1262";"2014-10-16 12:31:58.449";"NST_correctLoc";"19";"1";"FINISHED";"RIGHT";"success";"472";"0";"2014-10-16 12:31:57.186";"3";;;;;;;;;;;;;;;;;;;;;
"1310637";"1994";;"Windows 7";"Rachel's Experiment (D.T.)";"1.0";"2";"1";"1";"2";"1";"1";"2014-10-16 12:24:23.615";"2014-10-16 12:37:03.102";"1";"0";"0";"133";"132";"module.training_block4.exec-8638.GoNoGo4";;;;;;;;;;;;;;;;;;;;;;;;;;;;;;;;;;;;;;;;;;;;;;;;;;;;;;;;;;;"1262";"2014-10-16 12:32:00.977";"NST_correctLoc";"10";"1";"FINISHED";"RIGHT";"success";"417";"0";"2014-10-16 12:31:59.713";"2";;;;;;;;;;;;;;;;;;;;;
"1310637";"1994";;"Windows 7";"Rachel's Experiment (D.T.)";"1.0";"2";"1";"1";"2";"1";"1";"2014-10-16 12:24:23.615";"2014-10-16 12:37:03.102";"1";"0";"0";"134";"133";"module.training_block4.exec-8638.GoNoGo4";;;;;;;;;;;;;;;;;;;;;;;;;;;;;;;;;;;;;;;;;;;;;;;;;;;;;;;;;;;"1262";"2014-10-16 12:32:03.504";"NST_correctLoc";"33";"0";"FINISHED";"LEFT";"success";"345";"0";"2014-10-16 12:32:02.240";"3";;;;;;;;;;;;;;;;;;;;;
"1310637";"1994";;"Windows 7";"Rachel's Experiment (D.T.)";"1.0";"2";"1";"1";"2";"1";"1";"2014-10-16 12:24:23.615";"2014-10-16 12:37:03.102";"1";"0";"0";"135";"134";"module.training_block4.exec-8638.GoNoGo4";;;;;;;;;;;;;;;;;;;;;;;;;;;;;;;;;;;;;;;;;;;;;;;;;;;;;;;;;;;"1262";"2014-10-16 12:32:06.031";"NST_correctLoc";"34";"1";"FINISHED";"RIGHT";"success";"354";"0";"2014-10-16 12:32:04.767";"3";;;;;;;;;;;;;;;;;;;;;
"1310637";"1994";;"Windows 7";"Rachel's Experiment (D.T.)";"1.0";"2";"1";"1";"2";"1";"1";"2014-10-16 12:24:23.615";"2014-10-16 12:37:03.102";"1";"0";"0";"136";"135";"module.training_block4.exec-8638.GoNoGo4";;;;;;;;;;;;;;;;;;;;;;;;;;;;;;;;;;;;;;;;;;;;;;;;;;;;;;;;;;;"1261";"2014-10-16 12:32:08.574";"NST_correctLoc";"1";"0";"FINISHED";"LEFT";"success";"387";"0";"2014-10-16 12:32:07.310";"1";;;;;;;;;;;;;;;;;;;;;
"1310637";"1994";;"Windows 7";"Rachel's Experiment (D.T.)";"1.0";"2";"1";"1";"2";"1";"1";"2014-10-16 12:24:23.615";"2014-10-16 12:37:03.102";"1";"0";"0";"137";"136";"module.training_block4.exec-8638.GoNoGo4";;;;;;;;;;;;;;;;;;;;;;;;;;;;;;;;;;;;;;;;;;;;;;;;;;;;;;;;;;;"1261";"2014-10-16 12:32:11.101";"NST_correctLoc";"25";"1";"FINISHED";"RIGHT";"success";"436";"0";"2014-10-16 12:32:09.837";"3";;;;;;;;;;;;;;;;;;;;;
"1310637";"1994";;"Windows 7";"Rachel's Experiment (D.T.)";"1.0";"2";"1";"1";"2";"1";"1";"2014-10-16 12:24:23.615";"2014-10-16 12:37:03.102";"1";"0";"0";"138";"137";"module.training_block4.exec-8638.GoNoGo4";;;;;;;;;;;;;;;;;;;;;;;;;;;;;;;;;;;;;;;;;;;;;;;;;;;;;;;;;;;"1262";"2014-10-16 12:32:13.628";"NST_correctLoc";"24";"1";"FINISHED";"RIGHT";"success";"421";"0";"2014-10-16 12:32:12.365";"3";;;;;;;;;;;;;;;;;;;;;
"1310637";"1994";;"Windows 7";"Rachel's Experiment (D.T.)";"1.0";"2";"1";"1";"2";"1";"1";"2014-10-16 12:24:23.615";"2014-10-16 12:37:03.102";"1";"0";"0";"139";"138";"module.training_block4.exec-8638.GoNoGo4";;;;;;;;;;;;;;;;;;;;;;;;;;;;;;;;;;;;;;;;;;;;;;;;;;;;;;;;;;;"1261";"2014-10-16 12:32:16.187";"NST_correctLoc";"6";"1";"FINISHED";"RIGHT";"success";"350";"0";"2014-10-16 12:32:14.923";"1";;;;;;;;;;;;;;;;;;;;;
"1310637";"1994";;"Windows 7";"Rachel's Experiment (D.T.)";"1.0";"2";"1";"1";"2";"1";"1";"2014-10-16 12:24:23.615";"2014-10-16 12:37:03.102";"1";"0";"0";"140";"139";"module.training_block4.exec-8638.GoNoGo4";;;;;;;;;;;;;;;;;;;;;;;;;;;;;;;;;;;;;;;;;;;;;;;;;;;;;;;;;;;"1262";"2014-10-16 12:32:18.714";"NST_correctLoc";"4";"1";"FINISHED";"RIGHT";"success";"375";"0";"2014-10-16 12:32:17.450";"1";;;;;;;;;;;;;;;;;;;;;
"1310637";"1994";;"Windows 7";"Rachel's Experiment (D.T.)";"1.0";"2";"1";"1";"2";"1";"1";"2014-10-16 12:24:23.615";"2014-10-16 12:37:03.102";"1";"0";"0";"141";"140";"module.training_block4.exec-8638.GoNoGo4";;;;;;;;;;;;;;;;;;;;;;;;;;;;;;;;;;;;;;;;;;;;;;;;;;;;;;;;;;;"1261";"2014-10-16 12:32:21.257";"NST_correctLoc";"27";"0";"FINISHED";"LEFT";"success";"344";"0";"2014-10-16 12:32:19.993";"3";;;;;;;;;;;;;;;;;;;;;
"1310637";"1994";;"Windows 7";"Rachel's Experiment (D.T.)";"1.0";"2";"1";"1";"2";"1";"1";"2014-10-16 12:24:23.615";"2014-10-16 12:37:03.102";"1";"0";"0";"142";"141";"module.training_block4.exec-8638.GoNoGo4";;;;;;;;;;;;;;;;;;;;;;;;;;;;;;;;;;;;;;;;;;;;;;;;;;;;;;;;;;;"1262";"2014-10-16 12:32:23.784";"NST_correctLoc";"21";"1";"FINISHED";"RIGHT";"success";"426";"0";"2014-10-16 12:32:22.520";"3";;;;;;;;;;;;;;;;;;;;;
"1310637";"1994";;"Windows 7";"Rachel's Experiment (D.T.)";"1.0";"2";"1";"1";"2";"1";"1";"2014-10-16 12:24:23.615";"2014-10-16 12:37:03.102";"1";"0";"0";"143";"142";"module.training_block4.exec-8638.GoNoGo4";;;;;;;;;;;;;;;;;;;;;;;;;;;;;;;;;;;;;;;;;;;;;;;;;;;;;;;;;;;"1262";"2014-10-16 12:32:26.311";"NST_correctLoc";"8";"1";"FINISHED";"RIGHT";"success";"418";"0";"2014-10-16 12:32:25.048";"1";;;;;;;;;;;;;;;;;;;;;
"1310637";"1994";;"Windows 7";"Rachel's Experiment (D.T.)";"1.0";"2";"1";"1";"2";"1";"1";"2014-10-16 12:24:23.615";"2014-10-16 12:37:03.102";"1";"0";"0";"144";"143";"module.training_block4.exec-8638.GoNoGo4";;;;;;;;;;;;;;;;;;;;;;;;;;;;;;;;;;;;;;;;;;;;;;;;;;;;;;;;;;;"1261";"2014-10-16 12:32:28.870";"NST_correctLoc";"31";"0";"FINISHED";"LEFT";"success";"483";"0";"2014-10-16 12:32:27.606";"3";;;;;;;;;;;;;;;;;;;;;
"1310637";"1994";;"Windows 7";"Rachel's Experiment (D.T.)";"1.0";"2";"1";"1";"2";"1";"1";"2014-10-16 12:24:23.615";"2014-10-16 12:37:03.102";"1";"0";"0";"145";"144";"module.training_block4.exec-8638.GoNoGo4";;;;;;;;;;;;;;;;;;;;;;;;;;;;;;;;;;;;;;;;;;;;;;;;;;;;;;;;;;;"1262";"2014-10-16 12:32:31.397";"NST_correctLoc";"15";"0";"FINISHED";"LEFT";"success";"620";"0";"2014-10-16 12:32:30.133";"2";;;;;;;;;;;;;;;;;;;;;
"1310637";"1994";;"Windows 7";"Rachel's Experiment (D.T.)";"1.0";"2";"1";"1";"2";"1";"1";"2014-10-16 12:24:23.615";"2014-10-16 12:37:03.102";"1";"0";"0";"146";"145";"module.training_block4.exec-8638.GoNoGo4";;;;;;;;;;;;;;;;;;;;;;;;;;;;;;;;;;;;;;;;;;;;;;;;;;;;;;;;;;;"1262";"2014-10-16 12:32:33.940";"NST_correctLoc";"20";"1";"FINISHED";"RIGHT";"success";"429";"0";"2014-10-16 12:32:32.676";"3";;;;;;;;;;;;;;;;;;;;;
"1310637";"1994";;"Windows 7";"Rachel's Experiment (D.T.)";"1.0";"2";"1";"1";"2";"1";"1";"2014-10-16 12:24:23.615";"2014-10-16 12:37:03.102";"1";"0";"0";"147";"146";"module.training_block4.exec-8638.GoNoGo4";;;;;;;;;;;;;;;;;;;;;;;;;;;;;;;;;;;;;;;;;;;;;;;;;;;;;;;;;;;"1262";"2014-10-16 12:32:36.467";"NST_correctLoc";"17";"1";"FINISHED";"RIGHT";"success";"374";"0";"2014-10-16 12:32:35.203";"2";;;;;;;;;;;;;;;;;;;;;
"1310637";"1994";;"Windows 7";"Rachel's Experiment (D.T.)";"1.0";"2";"1";"1";"2";"1";"1";"2014-10-16 12:24:23.615";"2014-10-16 12:37:03.102";"1";"0";"0";"148";"147";"module.training_block4.exec-8638.GoNoGo4";;;;;;;;;;;;;;;;;;;;;;;;;;;;;;;;;;;;;;;;;;;;;;;;;;;;;;;;;;;"1262";"2014-10-16 12:32:38.994";"NST_correctLoc";"26";"0";"FINISHED";"LEFT";"success";"439";"0";"2014-10-16 12:32:37.730";"3";;;;;;;;;;;;;;;;;;;;;
"1310637";"1994";;"Windows 7";"Rachel's Experiment (D.T.)";"1.0";"2";"1";"1";"2";"1";"1";"2014-10-16 12:24:23.615";"2014-10-16 12:37:03.102";"1";"0";"0";"149";"148";"module.training_block4.exec-8638.GoNoGo4";;;;;;;;;;;;;;;;;;;;;;;;;;;;;;;;;;;;;;;;;;;;;;;;;;;;;;;;;;;"1262";"2014-10-16 12:32:41.552";"NST_correctLoc";"28";"0";"FINISHED";"LEFT";"success";"433";"0";"2014-10-16 12:32:40.289";"3";;;;;;;;;;;;;;;;;;;;;
"1310637";"1994";;"Windows 7";"Rachel's Experiment (D.T.)";"1.0";"2";"1";"1";"2";"1";"1";"2014-10-16 12:24:23.615";"2014-10-16 12:37:03.102";"1";"0";"0";"150";"149";"module.training_block4.exec-8638.GoNoGo4";;;;;;;;;;;;;;;;;;;;;;;;;;;;;;;;;;;;;;;;;;;;;;;;;;;;;;;;;;;"1261";"2014-10-16 12:32:44.080";"NST_correctLoc";"30";"0";"FINISHED";"LEFT";"success";"465";"0";"2014-10-16 12:32:42.816";"3";;;;;;;;;;;;;;;;;;;;;
"1310637";"1994";;"Windows 7";"Rachel's Experiment (D.T.)";"1.0";"2";"1";"1";"2";"1";"1";"2014-10-16 12:24:23.615";"2014-10-16 12:37:03.102";"1";"0";"0";"151";"150";"module.training_block4.exec-8638.GoNoGo4";;;;;;;;;;;;;;;;;;;;;;;;;;;;;;;;;;;;;;;;;;;;;;;;;;;;;;;;;;;"1262";"2014-10-16 12:32:46.622";"NST_correctLoc";"13";"0";"FINISHED";"LEFT";"success";"371";"0";"2014-10-16 12:32:45.359";"2";;;;;;;;;;;;;;;;;;;;;
"1310637";"1994";;"Windows 7";"Rachel's Experiment (D.T.)";"1.0";"2";"1";"1";"2";"1";"1";"2014-10-16 12:24:23.615";"2014-10-16 12:37:03.102";"1";"0";"0";"152";"151";"module.training_block4.exec-8638.GoNoGo4";;;;;;;;;;;;;;;;;;;;;;;;;;;;;;;;;;;;;;;;;;;;;;;;;;;;;;;;;;;"1262";"2014-10-16 12:32:49.150";"NST_correctLoc";"14";"1";"FINISHED";"RIGHT";"success";"371";"0";"2014-10-16 12:32:47.886";"2";;;;;;;;;;;;;;;;;;;;;
"1310637";"1994";;"Windows 7";"Rachel's Experiment (D.T.)";"1.0";"2";"1";"1";"2";"1";"1";"2014-10-16 12:24:23.615";"2014-10-16 12:37:03.102";"1";"0";"0";"153";"152";"module.training_block4.exec-8638.GoNoGo4";;;;;;;;;;;;;;;;;;;;;;;;;;;;;;;;;;;;;;;;;;;;;;;;;;;;;;;;;;;"1262";"2014-10-16 12:32:51.677";"NST_correctLoc";"3";"0";"FINISHED";"LEFT";"success";"348";"0";"2014-10-16 12:32:50.413";"1";;;;;;;;;;;;;;;;;;;;;
"1310637";"1994";;"Windows 7";"Rachel's Experiment (D.T.)";"1.0";"2";"1";"1";"2";"1";"1";"2014-10-16 12:24:23.615";"2014-10-16 12:37:03.102";"1";"0";"0";"154";"153";"module.training_block4.exec-8638.GoNoGo4";;;;;;;;;;;;;;;;;;;;;;;;;;;;;;;;;;;;;;;;;;;;;;;;;;;;;;;;;;;"1262";"2014-10-16 12:32:54.204";"NST_correctLoc";"2";"1";"FINISHED";"RIGHT";"success";"349";"0";"2014-10-16 12:32:52.940";"1";;;;;;;;;;;;;;;;;;;;;
"1310637";"1994";;"Windows 7";"Rachel's Experiment (D.T.)";"1.0";"2";"1";"1";"2";"1";"1";"2014-10-16 12:24:23.615";"2014-10-16 12:37:03.102";"1";"0";"0";"155";"154";"module.training_block4.exec-8638.GoNoGo4";;;;;;;;;;;;;;;;;;;;;;;;;;;;;;;;;;;;;;;;;;;;;;;;;;;;;;;;;;;"1262";"2014-10-16 12:32:56.731";"NST_correctLoc";"5";"1";"FINISHED";"RIGHT";"success";"366";"0";"2014-10-16 12:32:55.468";"1";;;;;;;;;;;;;;;;;;;;;
"1310637";"1994";;"Windows 7";"Rachel's Experiment (D.T.)";"1.0";"2";"1";"1";"2";"1";"1";"2014-10-16 12:24:23.615";"2014-10-16 12:37:03.102";"1";"0";"0";"156";"155";"module.training_block4.exec-8638.GoNoGo4";;;;;;;;;;;;;;;;;;;;;;;;;;;;;;;;;;;;;;;;;;;;;;;;;;;;;;;;;;;"1262";"2014-10-16 12:32:59.258";"NST_correctLoc";"35";"0";"FINISHED";"LEFT";"success";"302";"0";"2014-10-16 12:32:57.995";"3";;;;;;;;;;;;;;;;;;;;;
"1310637";"1994";;"Windows 7";"Rachel's Experiment (D.T.)";"1.0";"2";"1";"1";"2";"1";"1";"2014-10-16 12:24:23.615";"2014-10-16 12:37:03.102";"1";"0";"0";"157";"156";"module.training_block4.exec-8638.GoNoGo4";;;;;;;;;;;;;;;;;;;;;;;;;;;;;;;;;;;;;;;;;;;;;;;;;;;;;;;;;;;"1262";"2014-10-16 12:33:01.786";"NST_correctLoc";"9";"1";"FINISHED";"RIGHT";"success";"287";"0";"2014-10-16 12:33:00.522";"2";;;;;;;;;;;;;;;;;;;;;
"1310637";"1994";;"Windows 7";"Rachel's Experiment (D.T.)";"1.0";"2";"1";"1";"2";"1";"1";"2014-10-16 12:24:23.615";"2014-10-16 12:37:03.102";"1";"0";"0";"158";"157";"module.training_block4.exec-8638.GoNoGo4";;;;;;;;;;;;;;;;;;;;;;;;;;;;;;;;;;;;;;;;;;;;;;;;;;;;;;;;;;;"1262";"2014-10-16 12:33:04.313";"NST_correctLoc";"18";"1";"FINISHED";"RIGHT";"success";"392";"0";"2014-10-16 12:33:03.049";"3";;;;;;;;;;;;;;;;;;;;;
"1310637";"1994";;"Windows 7";"Rachel's Experiment (D.T.)";"1.0";"2";"1";"1";"2";"1";"1";"2014-10-16 12:24:23.615";"2014-10-16 12:37:03.102";"1";"0";"0";"159";"158";"module.training_block4.exec-8638.GoNoGo4";;;;;;;;;;;;;;;;;;;;;;;;;;;;;;;;;;;;;;;;;;;;;;;;;;;;;;;;;;;"1262";"2014-10-16 12:33:06.856";"NST_correctLoc";"0";"1";"FINISHED";"RIGHT";"success";"353";"0";"2014-10-16 12:33:05.592";"1";;;;;;;;;;;;;;;;;;;;;
"1310637";"1994";;"Windows 7";"Rachel's Experiment (D.T.)";"1.0";"2";"1";"1";"2";"1";"1";"2014-10-16 12:24:23.615";"2014-10-16 12:37:03.102";"1";"0";"0";"160";"159";"module.devaluation_practice.exec-7153.devalPractice";;;;;;;;;;;;"11899";"2014-10-16 12:33:46.589";"0";"3";"2";"6";"3874";"2056";"2913";"2014-10-16 12:33:34.686";;;;;;;;;;;;;;;;;;;;;;;;;;;;;;;;;;;;;;;;;;;;;;;;;;;;;;;;;;;;;;;;;;;;;;
"1310637";"1994";;"Windows 7";"Rachel's Experiment (D.T.)";"1.0";"2";"1";"1";"2";"1";"1";"2014-10-16 12:24:23.615";"2014-10-16 12:37:03.102";"1";"0";"0";"161";"160";"module.devaluation_practice.exec-7153.devalPractice";;;;;;;;;;;;"6937";"2014-10-16 12:33:53.562";"1";"6";"4";"5";"839";"1620";"1436";"2014-10-16 12:33:46.620";;;;;;;;;;;;;;;;;;;;;;;;;;;;;;;;;;;;;;;;;;;;;;;;;;;;;;;;;;;;;;;;;;;;;;
"1310637";"1994";;"Windows 7";"Rachel's Experiment (D.T.)";"1.0";"2";"1";"1";"2";"1";"1";"2014-10-16 12:24:23.615";"2014-10-16 12:37:03.102";"1";"0";"0";"162";"161";"module.devaluation_practice.exec-7153.devalPractice";;;;;;;;;;;;"7051";"2014-10-16 12:34:00.629";"2";"3";"6";"8";"1074";"1251";"1684";"2014-10-16 12:33:53.578";;;;;;;;;;;;;;;;;;;;;;;;;;;;;;;;;;;;;;;;;;;;;;;;;;;;;;;;;;;;;;;;;;;;;;
"1310637";"1994";;"Windows 7";"Rachel's Experiment (D.T.)";"1.0";"2";"1";"1";"2";"1";"1";"2014-10-16 12:24:23.615";"2014-10-16 12:37:03.102";"1";"0";"0";"163";"162";"module.devaluation_practice.exec-7153.devalPractice";;;;;;;;;;;;"6925";"2014-10-16 12:34:07.571";"3";"2";"1";"4";"943";"1471";"1486";"2014-10-16 12:34:00.644";;;;;;;;;;;;;;;;;;;;;;;;;;;;;;;;;;;;;;;;;;;;;;;;;;;;;;;;;;;;;;;;;;;;;;
"1310637";"1994";;"Windows 7";"Rachel's Experiment (D.T.)";"1.0";"2";"1";"1";"2";"1";"1";"2014-10-16 12:24:23.615";"2014-10-16 12:37:03.102";"1";"0";"0";"164";"163";"module.devaluation_block1.exec-3763.deval1";"6433";"2014-10-16 12:34:20.550";"1";"3";"2";"4";"751";"1055";"1592";"2014-10-16 12:34:14.123";"1";;;;;;;;;;;;;;;;;;;;;;;;;;;;;;;;;;;;;;;;;;;;;;;;;;;;;;;;;;;;;;;;;;;;;;;;;;;;;;;;
"1310637";"1994";;"Windows 7";"Rachel's Experiment (D.T.)";"1.0";"2";"1";"1";"2";"1";"1";"2014-10-16 12:24:23.615";"2014-10-16 12:37:03.102";"1";"0";"0";"165";"164";"module.devaluation_block1.exec-3763.deval1";"5631";"2014-10-16 12:34:26.213";"24";"4";"2";"6";"750";"939";"910";"2014-10-16 12:34:20.581";"3";;;;;;;;;;;;;;;;;;;;;;;;;;;;;;;;;;;;;;;;;;;;;;;;;;;;;;;;;;;;;;;;;;;;;;;;;;;;;;;;
"1310637";"1994";;"Windows 7";"Rachel's Experiment (D.T.)";"1.0";"2";"1";"1";"2";"1";"1";"2014-10-16 12:24:23.615";"2014-10-16 12:37:03.102";"1";"0";"0";"166";"165";"module.devaluation_block1.exec-3763.deval1";"5614";"2014-10-16 12:34:31.845";"3";"6";"2";"7";"759";"1048";"791";"2014-10-16 12:34:26.229";"1";;;;;;;;;;;;;;;;;;;;;;;;;;;;;;;;;;;;;;;;;;;;;;;;;;;;;;;;;;;;;;;;;;;;;;;;;;;;;;;;
"1310637";"1994";;"Windows 7";"Rachel's Experiment (D.T.)";"1.0";"2";"1";"1";"2";"1";"1";"2014-10-16 12:24:23.615";"2014-10-16 12:37:03.102";"1";"0";"0";"167";"166";"module.devaluation_block1.exec-3763.deval1";"5693";"2014-10-16 12:34:37.554";"5";"6";"2";"7";"887";"926";"843";"2014-10-16 12:34:31.860";"1";;;;;;;;;;;;;;;;;;;;;;;;;;;;;;;;;;;;;;;;;;;;;;;;;;;;;;;;;;;;;;;;;;;;;;;;;;;;;;;;
"1310637";"1994";;"Windows 7";"Rachel's Experiment (D.T.)";"1.0";"2";"1";"1";"2";"1";"1";"2014-10-16 12:24:23.615";"2014-10-16 12:37:03.102";"1";"0";"0";"168";"167";"module.devaluation_block1.exec-3763.deval1";"5601";"2014-10-16 12:34:43.279";"16";"3";"6";"6";"748";"774";"1022";"2014-10-16 12:34:37.679";"2";;;;;;;;;;;;;;;;;;;;;;;;;;;;;;;;;;;;;;;;;;;;;;;;;;;;;;;;;;;;;;;;;;;;;;;;;;;;;;;;
"1310637";"1994";;"Windows 7";"Rachel's Experiment (D.T.)";"1.0";"2";"1";"1";"2";"1";"1";"2014-10-16 12:24:23.615";"2014-10-16 12:37:03.102";"1";"0";"0";"169";"168";"module.devaluation_block1.exec-3763.deval1";"7005";"2014-10-16 12:34:50.299";"20";"3";"8";"7";"692";"909";"2371";"2014-10-16 12:34:43.295";"3";;;;;;;;;;;;;;;;;;;;;;;;;;;;;;;;;;;;;;;;;;;;;;;;;;;;;;;;;;;;;;;;;;;;;;;;;;;;;;;;
"1310637";"1994";;"Windows 7";"Rachel's Experiment (D.T.)";"1.0";"2";"1";"1";"2";"1";"1";"2014-10-16 12:24:23.615";"2014-10-16 12:37:03.102";"1";"0";"0";"170";"169";"module.devaluation_block1.exec-3763.deval1";"6189";"2014-10-16 12:34:56.508";"21";"3";"6";"6";"1848";"627";"693";"2014-10-16 12:34:50.315";"3";;;;;;;;;;;;;;;;;;;;;;;;;;;;;;;;;;;;;;;;;;;;;;;;;;;;;;;;;;;;;;;;;;;;;;;;;;;;;;;;
"1310637";"1994";;"Windows 7";"Rachel's Experiment (D.T.)";"1.0";"2";"1";"1";"2";"1";"1";"2014-10-16 12:24:23.615";"2014-10-16 12:37:03.102";"1";"0";"0";"171";"170";"module.devaluation_block1.exec-3763.deval1";"6556";"2014-10-16 12:35:03.076";"25";"3";"2";"7";"671";"745";"2110";"2014-10-16 12:34:56.524";"3";;;;;;;;;;;;;;;;;;;;;;;;;;;;;;;;;;;;;;;;;;;;;;;;;;;;;;;;;;;;;;;;;;;;;;;;;;;;;;;;
"1310637";"1994";;"Windows 7";"Rachel's Experiment (D.T.)";"1.0";"2";"1";"1";"2";"1";"1";"2014-10-16 12:24:23.615";"2014-10-16 12:37:03.102";"1";"0";"0";"172";"171";"module.devaluation_block1.exec-3763.deval1";"6110";"2014-10-16 12:35:09.207";"17";"2";"1";"1";"944";"1054";"1085";"2014-10-16 12:35:03.107";"2";;;;;;;;;;;;;;;;;;;;;;;;;;;;;;;;;;;;;;;;;;;;;;;;;;;;;;;;;;;;;;;;;;;;;;;;;;;;;;;;
"1310637";"1994";;"Windows 7";"Rachel's Experiment (D.T.)";"1.0";"2";"1";"1";"2";"1";"1";"2014-10-16 12:24:23.615";"2014-10-16 12:37:03.102";"1";"0";"0";"173";"172";"module.devaluation_block1.exec-3763.deval1";"5602";"2014-10-16 12:35:14.838";"9";"3";"6";"7";"645";"563";"1355";"2014-10-16 12:35:09.238";"2";;;;;;;;;;;;;;;;;;;;;;;;;;;;;;;;;;;;;;;;;;;;;;;;;;;;;;;;;;;;;;;;;;;;;;;;;;;;;;;;
"1310637";"1994";;"Windows 7";"Rachel's Experiment (D.T.)";"1.0";"2";"1";"1";"2";"1";"1";"2014-10-16 12:24:23.615";"2014-10-16 12:37:03.102";"1";"0";"0";"174";"173";"module.devaluation_block1.exec-3763.deval1";"6781";"2014-10-16 12:35:21.640";"14";"8";"9";"8";"1213";"967";"1577";"2014-10-16 12:35:14.854";"2";;;;;;;;;;;;;;;;;;;;;;;;;;;;;;;;;;;;;;;;;;;;;;;;;;;;;;;;;;;;;;;;;;;;;;;;;;;;;;;;
"1310637";"1994";;"Windows 7";"Rachel's Experiment (D.T.)";"1.0";"2";"1";"1";"2";"1";"1";"2014-10-16 12:24:23.615";"2014-10-16 12:37:03.102";"1";"0";"0";"175";"174";"module.devaluation_block1.exec-3763.deval1";"6494";"2014-10-16 12:35:28.145";"4";"6";"6";"7";"1684";"1005";"764";"2014-10-16 12:35:21.655";"1";;;;;;;;;;;;;;;;;;;;;;;;;;;;;;;;;;;;;;;;;;;;;;;;;;;;;;;;;;;;;;;;;;;;;;;;;;;;;;;;
"1310637";"1994";;"Windows 7";"Rachel's Experiment (D.T.)";"1.0";"2";"1";"1";"2";"1";"1";"2014-10-16 12:24:23.615";"2014-10-16 12:37:03.102";"1";"0";"0";"176";"175";"module.devaluation_block1.exec-3763.deval1";"5293";"2014-10-16 12:35:33.465";"0";"3";"2";"6";"722";"794";"754";"2014-10-16 12:35:28.161";"1";;;;;;;;;;;;;;;;;;;;;;;;;;;;;;;;;;;;;;;;;;;;;;;;;;;;;;;;;;;;;;;;;;;;;;;;;;;;;;;;
"1310637";"1994";;"Windows 7";"Rachel's Experiment (D.T.)";"1.0";"2";"1";"1";"2";"1";"1";"2014-10-16 12:24:23.615";"2014-10-16 12:37:03.102";"1";"0";"0";"177";"176";"module.devaluation_block1.exec-3763.deval1";"6325";"2014-10-16 12:35:39.798";"13";"6";"8";"7";"731";"786";"1763";"2014-10-16 12:35:33.480";"2";;;;;;;;;;;;;;;;;;;;;;;;;;;;;;;;;;;;;;;;;;;;;;;;;;;;;;;;;;;;;;;;;;;;;;;;;;;;;;;;
"1310637";"1994";;"Windows 7";"Rachel's Experiment (D.T.)";"1.0";"2";"1";"1";"2";"1";"1";"2014-10-16 12:24:23.615";"2014-10-16 12:37:03.102";"1";"0";"0";"178";"177";"module.devaluation_block1.exec-3763.deval1";"5519";"2014-10-16 12:35:45.352";"7";"7";"4";"9";"701";"655";"1125";"2014-10-16 12:35:39.829";"1";;;;;;;;;;;;;;;;;;;;;;;;;;;;;;;;;;;;;;;;;;;;;;;;;;;;;;;;;;;;;;;;;;;;;;;;;;;;;;;;
"1310637";"1994";;"Windows 7";"Rachel's Experiment (D.T.)";"1.0";"2";"1";"1";"2";"1";"1";"2014-10-16 12:24:23.615";"2014-10-16 12:37:03.102";"1";"0";"0";"179";"178";"module.devaluation_block1.exec-3763.deval1";"8789";"2014-10-16 12:35:54.150";"19";"4";"1";"6";"1747";"1117";"2893";"2014-10-16 12:35:45.367";"3";;;;;;;;;;;;;;;;;;;;;;;;;;;;;;;;;;;;;;;;;;;;;;;;;;;;;;;;;;;;;;;;;;;;;;;;;;;;;;;;
"1310637";"1994";;"Windows 7";"Rachel's Experiment (D.T.)";"1.0";"2";"1";"1";"2";"1";"1";"2014-10-16 12:24:23.615";"2014-10-16 12:37:03.102";"1";"0";"0";"180";"179";"module.devaluation_block1.exec-3763.deval1";"6686";"2014-10-16 12:36:00.874";"10";"6";"8";"7";"2085";"840";"744";"2014-10-16 12:35:54.181";"2";;;;;;;;;;;;;;;;;;;;;;;;;;;;;;;;;;;;;;;;;;;;;;;;;;;;;;;;;;;;;;;;;;;;;;;;;;;;;;;;
"1310637";"1994";;"Windows 7";"Rachel's Experiment (D.T.)";"1.0";"2";"1";"1";"2";"1";"1";"2014-10-16 12:24:23.615";"2014-10-16 12:37:03.102";"1";"0";"0";"181";"180";"module.devaluation_block1.exec-3763.deval1";"6277";"2014-10-16 12:36:07.161";"6";"2";"1";"3";"1489";"880";"885";"2014-10-16 12:36:00.889";"1";;;;;;;;;;;;;;;;;;;;;;;;;;;;;;;;;;;;;;;;;;;;;;;;;;;;;;;;;;;;;;;;;;;;;;;;;;;;;;;;
"1310637";"1994";;"Windows 7";"Rachel's Experiment (D.T.)";"1.0";"2";"1";"1";"2";"1";"1";"2014-10-16 12:24:23.615";"2014-10-16 12:37:03.102";"1";"0";"0";"182";"181";"module.devaluation_block1.exec-3763.deval1";"6301";"2014-10-16 12:36:13.479";"11";"4";"8";"7";"1546";"851";"871";"2014-10-16 12:36:07.176";"2";;;;;;;;;;;;;;;;;;;;;;;;;;;;;;;;;;;;;;;;;;;;;;;;;;;;;;;;;;;;;;;;;;;;;;;;;;;;;;;;
"1310637";"1994";;"Windows 7";"Rachel's Experiment (D.T.)";"1.0";"2";"1";"1";"2";"1";"1";"2014-10-16 12:24:23.615";"2014-10-16 12:37:03.102";"1";"0";"0";"183";"182";"module.devaluation_block1.exec-3763.deval1";"5293";"2014-10-16 12:36:18.798";"2";"3";"2";"4";"676";"812";"787";"2014-10-16 12:36:13.494";"1";;;;;;;;;;;;;;;;;;;;;;;;;;;;;;;;;;;;;;;;;;;;;;;;;;;;;;;;;;;;;;;;;;;;;;;;;;;;;;;;
"1310637";"1994";;"Windows 7";"Rachel's Experiment (D.T.)";"1.0";"2";"1";"1";"2";"1";"1";"2014-10-16 12:24:23.615";"2014-10-16 12:37:03.102";"1";"0";"0";"184";"183";"module.devaluation_block1.exec-3763.deval1";"5870";"2014-10-16 12:36:24.680";"12";"7";"8";"7";"1261";"897";"682";"2014-10-16 12:36:18.814";"2";;;;;;;;;;;;;;;;;;;;;;;;;;;;;;;;;;;;;;;;;;;;;;;;;;;;;;;;;;;;;;;;;;;;;;;;;;;;;;;;
"1310637";"1994";;"Windows 7";"Rachel's Experiment (D.T.)";"1.0";"2";"1";"1";"2";"1";"1";"2014-10-16 12:24:23.615";"2014-10-16 12:37:03.102";"1";"0";"0";"185";"184";"module.devaluation_block1.exec-3763.deval1";"6084";"2014-10-16 12:36:30.779";"18";"4";"3";"6";"1500";"823";"743";"2014-10-16 12:36:24.695";"3";;;;;;;;;;;;;;;;;;;;;;;;;;;;;;;;;;;;;;;;;;;;;;;;;;;;;;;;;;;;;;;;;;;;;;;;;;;;;;;;
"1310637";"1994";;"Windows 7";"Rachel's Experiment (D.T.)";"1.0";"2";"1";"1";"2";"1";"1";"2014-10-16 12:24:23.615";"2014-10-16 12:37:03.102";"1";"0";"0";"186";"185";"module.devaluation_block1.exec-3763.deval1";"5953";"2014-10-16 12:36:36.770";"26";"4";"3";"6";"1600";"731";"590";"2014-10-16 12:36:30.810";"3";;;;;;;;;;;;;;;;;;;;;;;;;;;;;;;;;;;;;;;;;;;;;;;;;;;;;;;;;;;;;;;;;;;;;;;;;;;;;;;;
"1310637";"1994";;"Windows 7";"Rachel's Experiment (D.T.)";"1.0";"2";"1";"1";"2";"1";"1";"2014-10-16 12:24:23.615";"2014-10-16 12:37:03.102";"1";"0";"0";"187";"186";"module.devaluation_block1.exec-3763.deval1";"5397";"2014-10-16 12:36:42.183";"8";"6";"3";"3";"777";"749";"835";"2014-10-16 12:36:36.785";"1";;;;;;;;;;;;;;;;;;;;;;;;;;;;;;;;;;;;;;;;;;;;;;;;;;;;;;;;;;;;;;;;;;;;;;;;;;;;;;;;
"1310637";"1994";;"Windows 7";"Rachel's Experiment (D.T.)";"1.0";"2";"1";"1";"2";"1";"1";"2014-10-16 12:24:23.615";"2014-10-16 12:37:03.102";"1";"0";"0";"188";"187";"module.devaluation_block1.exec-3763.deval1";"6613";"2014-10-16 12:36:48.813";"23";"3";"3";"5";"1484";"751";"1351";"2014-10-16 12:36:42.198";"3";;;;;;;;;;;;;;;;;;;;;;;;;;;;;;;;;;;;;;;;;;;;;;;;;;;;;;;;;;;;;;;;;;;;;;;;;;;;;;;;
"1310637";"1994";;"Windows 7";"Rachel's Experiment (D.T.)";"1.0";"2";"1";"1";"2";"1";"1";"2014-10-16 12:24:23.615";"2014-10-16 12:37:03.102";"1";"0";"0";"189";"188";"module.devaluation_block1.exec-3763.deval1";"5524";"2014-10-16 12:36:54.351";"22";"4";"2";"7";"686";"804";"997";"2014-10-16 12:36:48.828";"3";;;;;;;;;;;;;;;;;;;;;;;;;;;;;;;;;;;;;;;;;;;;;;;;;;;;;;;;;;;;;;;;;;;;;;;;;;;;;;;;
"1310637";"1994";;"Windows 7";"Rachel's Experiment (D.T.)";"1.0";"2";"1";"1";"2";"1";"1";"2014-10-16 12:24:23.615";"2014-10-16 12:37:03.102";"1";"0";"0";"190";"189";"module.devaluation_block1.exec-3763.deval1";"6381";"2014-10-16 12:37:00.762";"15";"3";"2";"3";"1452";"847";"1051";"2014-10-16 12:36:54.382";"2";;;;;;;;;;;;;;;;;;;;;;;;;;;;;;;;;;;;;;;;;;;;;;;;;;;;;;;;;;;;;;;;;;;;;;;;;;;;;;;;
