"user.name";"user.yearOfBirth";"user.sex";"user.osName";"module.name";"module.version";"module.online.subject.code";"module.online.study.id";"module.online.module.nr";"module.online.group.nr";"session.id";"session.index";"session.startTime";"session.endTime";"session.completed";"session.node-2660.DevalQorder";"session.node-6699.conditionType";"trial.id";"trial.index";"trial.name";"trial.deval1.durationTime";"trial.deval1.endTime";"trial.deval1.icon";"trial.deval1.Resp_Attractive";"trial.deval1.Resp_Eat";"trial.deval1.Resp_Taste";"trial.deval1.RT_Attractive";"trial.deval1.RT_Eat";"trial.deval1.RT_Taste";"trial.deval1.startTime";"trial.deval1.stimulus type";"trial.devalPractice.durationTime";"trial.devalPractice.endTime";"trial.devalPractice.icon";"trial.devalPractice.Resp_Attractive";"trial.devalPractice.Resp_Eat";"trial.devalPractice.Resp_Taste";"trial.devalPractice.RT_Attractive";"trial.devalPractice.RT_Eat";"trial.devalPractice.RT_Taste";"trial.devalPractice.startTime";"trial.devalPractice.stimulus type";"trial.GoNoGo1.durationTime";"trial.GoNoGo1.endTime";"trial.GoNoGo1.Error Type";"trial.GoNoGo1.icon";"trial.GoNoGo1.location";"trial.GoNoGo1.outcome";"trial.GoNoGo1.response";"trial.GoNoGo1.result";"trial.GoNoGo1.RT";"trial.GoNoGo1.signal";"trial.GoNoGo1.startTime";"trial.GoNoGo1.stimulus type";"trial.GoNoGo2.durationTime";"trial.GoNoGo2.endTime";"trial.GoNoGo2.Error Type";"trial.GoNoGo2.icon";"trial.GoNoGo2.location";"trial.GoNoGo2.outcome";"trial.GoNoGo2.response";"trial.GoNoGo2.result";"trial.GoNoGo2.RT";"trial.GoNoGo2.signal";"trial.GoNoGo2.startTime";"trial.GoNoGo2.stimulus type";"trial.GoNoGo3.durationTime";"trial.GoNoGo3.endTime";"trial.GoNoGo3.Error Type";"trial.GoNoGo3.icon";"trial.GoNoGo3.location";"trial.GoNoGo3.outcome";"trial.GoNoGo3.response";"trial.GoNoGo3.result";"trial.GoNoGo3.RT";"trial.GoNoGo3.signal";"trial.GoNoGo3.startTime";"trial.GoNoGo3.stimulus type";"trial.GoNoGo4.durationTime";"trial.GoNoGo4.endTime";"trial.GoNoGo4.Error Type";"trial.GoNoGo4.icon";"trial.GoNoGo4.location";"trial.GoNoGo4.outcome";"trial.GoNoGo4.response";"trial.GoNoGo4.result";"trial.GoNoGo4.RT";"trial.GoNoGo4.signal";"trial.GoNoGo4.startTime";"trial.GoNoGo4.stimulus type";"trial.GoNoGo_Practice.durationTime";"trial.GoNoGo_Practice.endTime";"trial.GoNoGo_Practice.icon";"trial.GoNoGo_Practice.location";"trial.GoNoGo_Practice.outcome";"trial.GoNoGo_Practice.response";"trial.GoNoGo_Practice.result";"trial.GoNoGo_Practice.RT";"trial.GoNoGo_Practice.signal";"trial.GoNoGo_Practice.startTime";"trial.GoNoGo_Practice.stimulus type";"trial.GoNoGo_Tutorial.durationTime";"trial.GoNoGo_Tutorial.endTime";"trial.GoNoGo_Tutorial.icon";"trial.GoNoGo_Tutorial.location";"trial.GoNoGo_Tutorial.outcome";"trial.GoNoGo_Tutorial.response";"trial.GoNoGo_Tutorial.result";"trial.GoNoGo_Tutorial.RT";"trial.GoNoGo_Tutorial.signal";"trial.GoNoGo_Tutorial.startTime"
"qwerty24";"1995";;"Windows 8";"Rachel's Experiment (D.T.)";"1.0";"2";"1";"1";"2";"1";"1";"2014-10-16 22:14:09.263";"2014-10-16 22:28:56.494";"1";"0";"1";"1";"0";"module.GoNoGotutorial.exec-8439.GoNoGo_Tutorial";;;;;;;;;;;;;;;;;;;;;;;;;;;;;;;;;;;;;;;;;;;;;;;;;;;;;;;;;;;;;;;;;;;;;;;;;;;;;;;;;;"3989";"2014-10-16 22:15:43.455";"leftResponse";"0";"FINISHED";"LEFT";"success";"3301";"0";"2014-10-16 22:15:39.453"
"qwerty24";"1995";;"Windows 8";"Rachel's Experiment (D.T.)";"1.0";"2";"1";"1";"2";"1";"1";"2014-10-16 22:14:09.263";"2014-10-16 22:28:56.494";"1";"0";"1";"2";"1";"module.GoNoGotutorial.exec-8439.GoNoGo_Tutorial";;;;;;;;;;;;;;;;;;;;;;;;;;;;;;;;;;;;;;;;;;;;;;;;;;;;;;;;;;;;;;;;;;;;;;;;;;;;;;;;;;"3986";"2014-10-16 22:15:48.808";"rightResponse";"1";"FINISHED";"RIGHT";"success";"527";"0";"2014-10-16 22:15:44.807"
"qwerty24";"1995";;"Windows 8";"Rachel's Experiment (D.T.)";"1.0";"2";"1";"1";"2";"1";"1";"2014-10-16 22:14:09.263";"2014-10-16 22:28:56.494";"1";"0";"1";"3";"2";"module.GoNoGotutorial.exec-8439.GoNoGo_Tutorial";;;;;;;;;;;;;;;;;;;;;;;;;;;;;;;;;;;;;;;;;;;;;;;;;;;;;;;;;;;;;;;;;;;;;;;;;;;;;;;;;;"3997";"2014-10-16 22:15:54.126";"signalResponse";"0";"FINISHED";"NONE";"success";"0";"1";"2014-10-16 22:15:50.113"
"qwerty24";"1995";;"Windows 8";"Rachel's Experiment (D.T.)";"1.0";"2";"1";"1";"2";"1";"1";"2014-10-16 22:14:09.263";"2014-10-16 22:28:56.494";"1";"0";"1";"4";"3";"module.GoNoGopractice.exec-7261.GoNoGo_Practice";;;;;;;;;;;;;;;;;;;;;;;;;;;;;;;;;;;;;;;;;;;;;;;;;;;;;;;;;;;;;;;;;;;;;;;"1968";"2014-10-16 22:16:04.254";"18";"0";"FINISHED";"LEFT";"success";"344";"0";"2014-10-16 22:16:02.284";"3";;;;;;;;;;
"qwerty24";"1995";;"Windows 8";"Rachel's Experiment (D.T.)";"1.0";"2";"1";"1";"2";"1";"1";"2014-10-16 22:14:09.263";"2014-10-16 22:28:56.494";"1";"0";"1";"5";"4";"module.GoNoGopractice.exec-7261.GoNoGo_Practice";;;;;;;;;;;;;;;;;;;;;;;;;;;;;;;;;;;;;;;;;;;;;;;;;;;;;;;;;;;;;;;;;;;;;;;"1952";"2014-10-16 22:16:07.528";"21";"1";"FINISHED";"RIGHT";"success";"293";"0";"2014-10-16 22:16:05.567";"3";;;;;;;;;;
"qwerty24";"1995";;"Windows 8";"Rachel's Experiment (D.T.)";"1.0";"2";"1";"1";"2";"1";"1";"2014-10-16 22:14:09.263";"2014-10-16 22:28:56.494";"1";"0";"1";"6";"5";"module.GoNoGopractice.exec-7261.GoNoGo_Practice";;;;;;;;;;;;;;;;;;;;;;;;;;;;;;;;;;;;;;;;;;;;;;;;;;;;;;;;;;;;;;;;;;;;;;;"1954";"2014-10-16 22:16:10.795";"14";"1";"FINISHED";"NONE";"success";"0";"1";"2014-10-16 22:16:08.826";"2";;;;;;;;;;
"qwerty24";"1995";;"Windows 8";"Rachel's Experiment (D.T.)";"1.0";"2";"1";"1";"2";"1";"1";"2014-10-16 22:14:09.263";"2014-10-16 22:28:56.494";"1";"0";"1";"7";"6";"module.GoNoGopractice.exec-7261.GoNoGo_Practice";;;;;;;;;;;;;;;;;;;;;;;;;;;;;;;;;;;;;;;;;;;;;;;;;;;;;;;;;;;;;;;;;;;;;;;"1969";"2014-10-16 22:16:14.070";"26";"0";"FINISHED";"LEFT";"success";"462";"0";"2014-10-16 22:16:12.100";"3";;;;;;;;;;
"qwerty24";"1995";;"Windows 8";"Rachel's Experiment (D.T.)";"1.0";"2";"1";"1";"2";"1";"1";"2014-10-16 22:14:09.263";"2014-10-16 22:28:56.494";"1";"0";"1";"8";"7";"module.GoNoGopractice.exec-7261.GoNoGo_Practice";;;;;;;;;;;;;;;;;;;;;;;;;;;;;;;;;;;;;;;;;;;;;;;;;;;;;;;;;;;;;;;;;;;;;;;"1954";"2014-10-16 22:16:17.329";"2";"0";"FINISHED";"LEFT";"success";"401";"0";"2014-10-16 22:16:15.359";"1";;;;;;;;;;
"qwerty24";"1995";;"Windows 8";"Rachel's Experiment (D.T.)";"1.0";"2";"1";"1";"2";"1";"1";"2014-10-16 22:14:09.263";"2014-10-16 22:28:56.494";"1";"0";"1";"9";"8";"module.GoNoGopractice.exec-7261.GoNoGo_Practice";;;;;;;;;;;;;;;;;;;;;;;;;;;;;;;;;;;;;;;;;;;;;;;;;;;;;;;;;;;;;;;;;;;;;;;"1939";"2014-10-16 22:16:20.572";"30";"0";"FINISHED";"NONE";"success";"0";"1";"2014-10-16 22:16:18.618";"3";;;;;;;;;;
"qwerty24";"1995";;"Windows 8";"Rachel's Experiment (D.T.)";"1.0";"2";"1";"1";"2";"1";"1";"2014-10-16 22:14:09.263";"2014-10-16 22:28:56.494";"1";"0";"1";"10";"9";"module.GoNoGopractice.exec-7261.GoNoGo_Practice";;;;;;;;;;;;;;;;;;;;;;;;;;;;;;;;;;;;;;;;;;;;;;;;;;;;;;;;;;;;;;;;;;;;;;;"1968";"2014-10-16 22:16:23.839";"6";"1";"FINISHED";"NONE";"success";"0";"1";"2014-10-16 22:16:21.869";"1";;;;;;;;;;
"qwerty24";"1995";;"Windows 8";"Rachel's Experiment (D.T.)";"1.0";"2";"1";"1";"2";"1";"1";"2014-10-16 22:14:09.263";"2014-10-16 22:28:56.494";"1";"0";"1";"11";"10";"module.GoNoGopractice.exec-7261.GoNoGo_Practice";;;;;;;;;;;;;;;;;;;;;;;;;;;;;;;;;;;;;;;;;;;;;;;;;;;;;;;;;;;;;;;;;;;;;;;"1955";"2014-10-16 22:16:27.098";"34";"0";"FINISHED";"LEFT";"success";"419";"0";"2014-10-16 22:16:25.129";"3";;;;;;;;;;
"qwerty24";"1995";;"Windows 8";"Rachel's Experiment (D.T.)";"1.0";"2";"1";"1";"2";"1";"1";"2014-10-16 22:14:09.263";"2014-10-16 22:28:56.494";"1";"0";"1";"12";"11";"module.GoNoGopractice.exec-7261.GoNoGo_Practice";;;;;;;;;;;;;;;;;;;;;;;;;;;;;;;;;;;;;;;;;;;;;;;;;;;;;;;;;;;;;;;;;;;;;;;"1954";"2014-10-16 22:16:30.357";"23";"1";"FINISHED";"RIGHT";"success";"380";"0";"2014-10-16 22:16:28.388";"3";;;;;;;;;;
"qwerty24";"1995";;"Windows 8";"Rachel's Experiment (D.T.)";"1.0";"2";"1";"1";"2";"1";"1";"2014-10-16 22:14:09.263";"2014-10-16 22:28:56.494";"1";"0";"1";"13";"12";"module.GoNoGopractice.exec-7261.GoNoGo_Practice";;;;;;;;;;;;;;;;;;;;;;;;;;;;;;;;;;;;;;;;;;;;;;;;;;;;;;;;;;;;;;;;;;;;;;;"1938";"2014-10-16 22:16:33.600";"13";"0";"FINISHED";"NONE";"success";"0";"1";"2014-10-16 22:16:31.646";"2";;;;;;;;;;
"qwerty24";"1995";;"Windows 8";"Rachel's Experiment (D.T.)";"1.0";"2";"1";"1";"2";"1";"1";"2014-10-16 22:14:09.263";"2014-10-16 22:28:56.494";"1";"0";"1";"14";"13";"module.GoNoGopractice.exec-7261.GoNoGo_Practice";;;;;;;;;;;;;;;;;;;;;;;;;;;;;;;;;;;;;;;;;;;;;;;;;;;;;;;;;;;;;;;;;;;;;;;"1961";"2014-10-16 22:16:37.039";"3";"1";"FINISHED";"RIGHT";"success";"697";"0";"2014-10-16 22:16:35.069";"1";;;;;;;;;;
"qwerty24";"1995";;"Windows 8";"Rachel's Experiment (D.T.)";"1.0";"2";"1";"1";"2";"1";"1";"2014-10-16 22:14:09.263";"2014-10-16 22:28:56.494";"1";"0";"1";"15";"14";"module.GoNoGopractice.exec-7261.GoNoGo_Practice";;;;;;;;;;;;;;;;;;;;;;;;;;;;;;;;;;;;;;;;;;;;;;;;;;;;;;;;;;;;;;;;;;;;;;;"1954";"2014-10-16 22:16:40.344";"27";"1";"FINISHED";"RIGHT";"failure";"549";"1";"2014-10-16 22:16:38.375";"3";;;;;;;;;;
"qwerty24";"1995";;"Windows 8";"Rachel's Experiment (D.T.)";"1.0";"2";"1";"1";"2";"1";"1";"2014-10-16 22:14:09.263";"2014-10-16 22:28:56.494";"1";"0";"1";"16";"15";"module.training_block1.exec-2214.GoNoGo1";;;;;;;;;;;;;;;;;;;;;;;"1248";"2014-10-16 22:17:02.820";"ST_failedStop";"3";"0";"FINISHED";"LEFT";"failure";"395";"1";"2014-10-16 22:17:01.562";"1";;;;;;;;;;;;;;;;;;;;;;;;;;;;;;;;;;;;;;;;;;;;;;;;;;;;;;;;;
"qwerty24";"1995";;"Windows 8";"Rachel's Experiment (D.T.)";"1.0";"2";"1";"1";"2";"1";"1";"2014-10-16 22:14:09.263";"2014-10-16 22:28:56.494";"1";"0";"1";"17";"16";"module.training_block1.exec-2214.GoNoGo1";;;;;;;;;;;;;;;;;;;;;;;"1254";"2014-10-16 22:17:05.376";"ST_correctStop";"32";"1";"FINISHED";"NONE";"success";"0";"1";"2014-10-16 22:17:04.118";"3";;;;;;;;;;;;;;;;;;;;;;;;;;;;;;;;;;;;;;;;;;;;;;;;;;;;;;;;;
"qwerty24";"1995";;"Windows 8";"Rachel's Experiment (D.T.)";"1.0";"2";"1";"1";"2";"1";"1";"2014-10-16 22:14:09.263";"2014-10-16 22:28:56.494";"1";"0";"1";"18";"17";"module.training_block1.exec-2214.GoNoGo1";;;;;;;;;;;;;;;;;;;;;;;"1256";"2014-10-16 22:17:07.939";"NST_correctLoc";"23";"0";"FINISHED";"LEFT";"success";"496";"0";"2014-10-16 22:17:06.681";"3";;;;;;;;;;;;;;;;;;;;;;;;;;;;;;;;;;;;;;;;;;;;;;;;;;;;;;;;;
"qwerty24";"1995";;"Windows 8";"Rachel's Experiment (D.T.)";"1.0";"2";"1";"1";"2";"1";"1";"2014-10-16 22:14:09.263";"2014-10-16 22:28:56.494";"1";"0";"1";"19";"18";"module.training_block1.exec-2214.GoNoGo1";;;;;;;;;;;;;;;;;;;;;;;"1244";"2014-10-16 22:17:10.479";"NST_correctLoc";"18";"1";"FINISHED";"RIGHT";"success";"412";"0";"2014-10-16 22:17:09.221";"3";;;;;;;;;;;;;;;;;;;;;;;;;;;;;;;;;;;;;;;;;;;;;;;;;;;;;;;;;
"qwerty24";"1995";;"Windows 8";"Rachel's Experiment (D.T.)";"1.0";"2";"1";"1";"2";"1";"1";"2014-10-16 22:14:09.263";"2014-10-16 22:28:56.494";"1";"0";"1";"20";"19";"module.training_block1.exec-2214.GoNoGo1";;;;;;;;;;;;;;;;;;;;;;;"1243";"2014-10-16 22:17:13.026";"NST_correctLoc";"10";"1";"FINISHED";"RIGHT";"success";"463";"0";"2014-10-16 22:17:11.768";"2";;;;;;;;;;;;;;;;;;;;;;;;;;;;;;;;;;;;;;;;;;;;;;;;;;;;;;;;;
"qwerty24";"1995";;"Windows 8";"Rachel's Experiment (D.T.)";"1.0";"2";"1";"1";"2";"1";"1";"2014-10-16 22:14:09.263";"2014-10-16 22:28:56.494";"1";"0";"1";"21";"20";"module.training_block1.exec-2214.GoNoGo1";;;;;;;;;;;;;;;;;;;;;;;"1243";"2014-10-16 22:17:15.566";"NST_correctLoc";"14";"1";"FINISHED";"RIGHT";"success";"406";"0";"2014-10-16 22:17:14.308";"2";;;;;;;;;;;;;;;;;;;;;;;;;;;;;;;;;;;;;;;;;;;;;;;;;;;;;;;;;
"qwerty24";"1995";;"Windows 8";"Rachel's Experiment (D.T.)";"1.0";"2";"1";"1";"2";"1";"1";"2014-10-16 22:14:09.263";"2014-10-16 22:28:56.494";"1";"0";"1";"22";"21";"module.training_block1.exec-2214.GoNoGo1";;;;;;;;;;;;;;;;;;;;;;;"1250";"2014-10-16 22:17:18.122";"NST_correctLoc";"13";"1";"FINISHED";"RIGHT";"success";"399";"0";"2014-10-16 22:17:16.871";"2";;;;;;;;;;;;;;;;;;;;;;;;;;;;;;;;;;;;;;;;;;;;;;;;;;;;;;;;;
"qwerty24";"1995";;"Windows 8";"Rachel's Experiment (D.T.)";"1.0";"2";"1";"1";"2";"1";"1";"2014-10-16 22:14:09.263";"2014-10-16 22:28:56.494";"1";"0";"1";"23";"22";"module.training_block1.exec-2214.GoNoGo1";;;;;;;;;;;;;;;;;;;;;;;"1244";"2014-10-16 22:17:20.669";"ST_correctStop";"34";"0";"FINISHED";"NONE";"success";"0";"1";"2014-10-16 22:17:19.411";"3";;;;;;;;;;;;;;;;;;;;;;;;;;;;;;;;;;;;;;;;;;;;;;;;;;;;;;;;;
"qwerty24";"1995";;"Windows 8";"Rachel's Experiment (D.T.)";"1.0";"2";"1";"1";"2";"1";"1";"2014-10-16 22:14:09.263";"2014-10-16 22:28:56.494";"1";"0";"1";"24";"23";"module.training_block1.exec-2214.GoNoGo1";;;;;;;;;;;;;;;;;;;;;;;"1236";"2014-10-16 22:17:23.209";"NST_correctLoc";"25";"0";"FINISHED";"LEFT";"success";"411";"0";"2014-10-16 22:17:21.959";"3";;;;;;;;;;;;;;;;;;;;;;;;;;;;;;;;;;;;;;;;;;;;;;;;;;;;;;;;;
"qwerty24";"1995";;"Windows 8";"Rachel's Experiment (D.T.)";"1.0";"2";"1";"1";"2";"1";"1";"2014-10-16 22:14:09.263";"2014-10-16 22:28:56.494";"1";"0";"1";"25";"24";"module.training_block1.exec-2214.GoNoGo1";;;;;;;;;;;;;;;;;;;;;;;"1257";"2014-10-16 22:17:25.772";"ST_failedStop";"27";"1";"FINISHED";"RIGHT";"failure";"351";"1";"2014-10-16 22:17:24.514";"3";;;;;;;;;;;;;;;;;;;;;;;;;;;;;;;;;;;;;;;;;;;;;;;;;;;;;;;;;
"qwerty24";"1995";;"Windows 8";"Rachel's Experiment (D.T.)";"1.0";"2";"1";"1";"2";"1";"1";"2014-10-16 22:14:09.263";"2014-10-16 22:28:56.494";"1";"0";"1";"26";"25";"module.training_block1.exec-2214.GoNoGo1";;;;;;;;;;;;;;;;;;;;;;;"1249";"2014-10-16 22:17:28.328";"NST_correctLoc";"15";"1";"FINISHED";"RIGHT";"success";"461";"0";"2014-10-16 22:17:27.077";"2";;;;;;;;;;;;;;;;;;;;;;;;;;;;;;;;;;;;;;;;;;;;;;;;;;;;;;;;;
"qwerty24";"1995";;"Windows 8";"Rachel's Experiment (D.T.)";"1.0";"2";"1";"1";"2";"1";"1";"2014-10-16 22:14:09.263";"2014-10-16 22:28:56.494";"1";"0";"1";"27";"26";"module.training_block1.exec-2214.GoNoGo1";;;;;;;;;;;;;;;;;;;;;;;"1243";"2014-10-16 22:17:30.876";"NST_correctLoc";"12";"0";"FINISHED";"LEFT";"success";"453";"0";"2014-10-16 22:17:29.617";"2";;;;;;;;;;;;;;;;;;;;;;;;;;;;;;;;;;;;;;;;;;;;;;;;;;;;;;;;;
"qwerty24";"1995";;"Windows 8";"Rachel's Experiment (D.T.)";"1.0";"2";"1";"1";"2";"1";"1";"2014-10-16 22:14:09.263";"2014-10-16 22:28:56.494";"1";"0";"1";"28";"27";"module.training_block1.exec-2214.GoNoGo1";;;;;;;;;;;;;;;;;;;;;;;"1247";"2014-10-16 22:17:33.427";"NST_correctLoc";"9";"1";"FINISHED";"RIGHT";"success";"388";"0";"2014-10-16 22:17:32.165";"2";;;;;;;;;;;;;;;;;;;;;;;;;;;;;;;;;;;;;;;;;;;;;;;;;;;;;;;;;
"qwerty24";"1995";;"Windows 8";"Rachel's Experiment (D.T.)";"1.0";"2";"1";"1";"2";"1";"1";"2014-10-16 22:14:09.263";"2014-10-16 22:28:56.494";"1";"0";"1";"29";"28";"module.training_block1.exec-2214.GoNoGo1";;;;;;;;;;;;;;;;;;;;;;;"1258";"2014-10-16 22:17:35.990";"NST_correctLoc";"11";"1";"FINISHED";"RIGHT";"success";"461";"0";"2014-10-16 22:17:34.732";"2";;;;;;;;;;;;;;;;;;;;;;;;;;;;;;;;;;;;;;;;;;;;;;;;;;;;;;;;;
"qwerty24";"1995";;"Windows 8";"Rachel's Experiment (D.T.)";"1.0";"2";"1";"1";"2";"1";"1";"2014-10-16 22:14:09.263";"2014-10-16 22:28:56.494";"1";"0";"1";"30";"29";"module.training_block1.exec-2214.GoNoGo1";;;;;;;;;;;;;;;;;;;;;;;"1257";"2014-10-16 22:17:38.546";"ST_failedStop";"30";"0";"FINISHED";"LEFT";"failure";"405";"1";"2014-10-16 22:17:37.288";"3";;;;;;;;;;;;;;;;;;;;;;;;;;;;;;;;;;;;;;;;;;;;;;;;;;;;;;;;;
"qwerty24";"1995";;"Windows 8";"Rachel's Experiment (D.T.)";"1.0";"2";"1";"1";"2";"1";"1";"2014-10-16 22:14:09.263";"2014-10-16 22:28:56.494";"1";"0";"1";"31";"30";"module.training_block1.exec-2214.GoNoGo1";;;;;;;;;;;;;;;;;;;;;;;"1242";"2014-10-16 22:17:41.093";"NST_correctLoc";"17";"1";"FINISHED";"RIGHT";"success";"380";"0";"2014-10-16 22:17:39.835";"2";;;;;;;;;;;;;;;;;;;;;;;;;;;;;;;;;;;;;;;;;;;;;;;;;;;;;;;;;
"qwerty24";"1995";;"Windows 8";"Rachel's Experiment (D.T.)";"1.0";"2";"1";"1";"2";"1";"1";"2014-10-16 22:14:09.263";"2014-10-16 22:28:56.494";"1";"0";"1";"32";"31";"module.training_block1.exec-2214.GoNoGo1";;;;;;;;;;;;;;;;;;;;;;;"1243";"2014-10-16 22:17:43.634";"ST_correctStop";"26";"1";"FINISHED";"NONE";"success";"0";"1";"2014-10-16 22:17:42.375";"3";;;;;;;;;;;;;;;;;;;;;;;;;;;;;;;;;;;;;;;;;;;;;;;;;;;;;;;;;
"qwerty24";"1995";;"Windows 8";"Rachel's Experiment (D.T.)";"1.0";"2";"1";"1";"2";"1";"1";"2014-10-16 22:14:09.263";"2014-10-16 22:28:56.494";"1";"0";"1";"33";"32";"module.training_block1.exec-2214.GoNoGo1";;;;;;;;;;;;;;;;;;;;;;;"1244";"2014-10-16 22:17:46.181";"ST_correctStop";"1";"1";"FINISHED";"NONE";"success";"0";"1";"2014-10-16 22:17:44.923";"1";;;;;;;;;;;;;;;;;;;;;;;;;;;;;;;;;;;;;;;;;;;;;;;;;;;;;;;;;
"qwerty24";"1995";;"Windows 8";"Rachel's Experiment (D.T.)";"1.0";"2";"1";"1";"2";"1";"1";"2014-10-16 22:14:09.263";"2014-10-16 22:28:56.494";"1";"0";"1";"34";"33";"module.training_block1.exec-2214.GoNoGo1";;;;;;;;;;;;;;;;;;;;;;;"1243";"2014-10-16 22:17:48.721";"ST_correctStop";"21";"1";"FINISHED";"NONE";"success";"0";"1";"2014-10-16 22:17:47.463";"3";;;;;;;;;;;;;;;;;;;;;;;;;;;;;;;;;;;;;;;;;;;;;;;;;;;;;;;;;
"qwerty24";"1995";;"Windows 8";"Rachel's Experiment (D.T.)";"1.0";"2";"1";"1";"2";"1";"1";"2014-10-16 22:14:09.263";"2014-10-16 22:28:56.494";"1";"0";"1";"35";"34";"module.training_block1.exec-2214.GoNoGo1";;;;;;;;;;;;;;;;;;;;;;;"1243";"2014-10-16 22:17:51.269";"ST_correctStop";"22";"1";"FINISHED";"NONE";"success";"0";"1";"2014-10-16 22:17:50.011";"3";;;;;;;;;;;;;;;;;;;;;;;;;;;;;;;;;;;;;;;;;;;;;;;;;;;;;;;;;
"qwerty24";"1995";;"Windows 8";"Rachel's Experiment (D.T.)";"1.0";"2";"1";"1";"2";"1";"1";"2014-10-16 22:14:09.263";"2014-10-16 22:28:56.494";"1";"0";"1";"36";"35";"module.training_block1.exec-2214.GoNoGo1";;;;;;;;;;;;;;;;;;;;;;;"1243";"2014-10-16 22:17:53.809";"ST_correctStop";"6";"0";"FINISHED";"NONE";"success";"0";"1";"2014-10-16 22:17:52.550";"1";;;;;;;;;;;;;;;;;;;;;;;;;;;;;;;;;;;;;;;;;;;;;;;;;;;;;;;;;
"qwerty24";"1995";;"Windows 8";"Rachel's Experiment (D.T.)";"1.0";"2";"1";"1";"2";"1";"1";"2014-10-16 22:14:09.263";"2014-10-16 22:28:56.494";"1";"0";"1";"37";"36";"module.training_block1.exec-2214.GoNoGo1";;;;;;;;;;;;;;;;;;;;;;;"1258";"2014-10-16 22:17:56.372";"ST_correctStop";"7";"0";"FINISHED";"NONE";"success";"0";"1";"2014-10-16 22:17:55.114";"1";;;;;;;;;;;;;;;;;;;;;;;;;;;;;;;;;;;;;;;;;;;;;;;;;;;;;;;;;
"qwerty24";"1995";;"Windows 8";"Rachel's Experiment (D.T.)";"1.0";"2";"1";"1";"2";"1";"1";"2014-10-16 22:14:09.263";"2014-10-16 22:28:56.494";"1";"0";"1";"38";"37";"module.training_block1.exec-2214.GoNoGo1";;;;;;;;;;;;;;;;;;;;;;;"1244";"2014-10-16 22:17:58.913";"ST_correctStop";"0";"1";"FINISHED";"NONE";"success";"0";"1";"2014-10-16 22:17:57.654";"1";;;;;;;;;;;;;;;;;;;;;;;;;;;;;;;;;;;;;;;;;;;;;;;;;;;;;;;;;
"qwerty24";"1995";;"Windows 8";"Rachel's Experiment (D.T.)";"1.0";"2";"1";"1";"2";"1";"1";"2014-10-16 22:14:09.263";"2014-10-16 22:28:56.494";"1";"0";"1";"39";"38";"module.training_block1.exec-2214.GoNoGo1";;;;;;;;;;;;;;;;;;;;;;;"1243";"2014-10-16 22:18:01.441";"NST_correctLoc";"31";"0";"FINISHED";"LEFT";"success";"508";"0";"2014-10-16 22:18:00.183";"3";;;;;;;;;;;;;;;;;;;;;;;;;;;;;;;;;;;;;;;;;;;;;;;;;;;;;;;;;
"qwerty24";"1995";;"Windows 8";"Rachel's Experiment (D.T.)";"1.0";"2";"1";"1";"2";"1";"1";"2014-10-16 22:14:09.263";"2014-10-16 22:28:56.494";"1";"0";"1";"40";"39";"module.training_block1.exec-2214.GoNoGo1";;;;;;;;;;;;;;;;;;;;;;;"1243";"2014-10-16 22:18:03.978";"ST_correctStop";"33";"1";"FINISHED";"NONE";"success";"0";"1";"2014-10-16 22:18:02.720";"3";;;;;;;;;;;;;;;;;;;;;;;;;;;;;;;;;;;;;;;;;;;;;;;;;;;;;;;;;
"qwerty24";"1995";;"Windows 8";"Rachel's Experiment (D.T.)";"1.0";"2";"1";"1";"2";"1";"1";"2014-10-16 22:14:09.263";"2014-10-16 22:28:56.494";"1";"0";"1";"41";"40";"module.training_block1.exec-2214.GoNoGo1";;;;;;;;;;;;;;;;;;;;;;;"1250";"2014-10-16 22:18:06.534";"ST_correctStop";"8";"1";"FINISHED";"NONE";"success";"0";"1";"2014-10-16 22:18:05.283";"1";;;;;;;;;;;;;;;;;;;;;;;;;;;;;;;;;;;;;;;;;;;;;;;;;;;;;;;;;
"qwerty24";"1995";;"Windows 8";"Rachel's Experiment (D.T.)";"1.0";"2";"1";"1";"2";"1";"1";"2014-10-16 22:14:09.263";"2014-10-16 22:28:56.494";"1";"0";"1";"42";"41";"module.training_block1.exec-2214.GoNoGo1";;;;;;;;;;;;;;;;;;;;;;;"1257";"2014-10-16 22:18:09.081";"NST_correctLoc";"24";"0";"FINISHED";"LEFT";"success";"573";"0";"2014-10-16 22:18:07.823";"3";;;;;;;;;;;;;;;;;;;;;;;;;;;;;;;;;;;;;;;;;;;;;;;;;;;;;;;;;
"qwerty24";"1995";;"Windows 8";"Rachel's Experiment (D.T.)";"1.0";"2";"1";"1";"2";"1";"1";"2014-10-16 22:14:09.263";"2014-10-16 22:28:56.494";"1";"0";"1";"43";"42";"module.training_block1.exec-2214.GoNoGo1";;;;;;;;;;;;;;;;;;;;;;;"1236";"2014-10-16 22:18:11.606";"NST_correctLoc";"20";"0";"FINISHED";"LEFT";"success";"397";"0";"2014-10-16 22:18:10.355";"3";;;;;;;;;;;;;;;;;;;;;;;;;;;;;;;;;;;;;;;;;;;;;;;;;;;;;;;;;
"qwerty24";"1995";;"Windows 8";"Rachel's Experiment (D.T.)";"1.0";"2";"1";"1";"2";"1";"1";"2014-10-16 22:14:09.263";"2014-10-16 22:28:56.494";"1";"0";"1";"44";"43";"module.training_block1.exec-2214.GoNoGo1";;;;;;;;;;;;;;;;;;;;;;;"1243";"2014-10-16 22:18:14.138";"NST_correctLoc";"16";"0";"FINISHED";"LEFT";"success";"381";"0";"2014-10-16 22:18:12.879";"2";;;;;;;;;;;;;;;;;;;;;;;;;;;;;;;;;;;;;;;;;;;;;;;;;;;;;;;;;
"qwerty24";"1995";;"Windows 8";"Rachel's Experiment (D.T.)";"1.0";"2";"1";"1";"2";"1";"1";"2014-10-16 22:14:09.263";"2014-10-16 22:28:56.494";"1";"0";"1";"45";"44";"module.training_block1.exec-2214.GoNoGo1";;;;;;;;;;;;;;;;;;;;;;;"1236";"2014-10-16 22:18:16.678";"ST_correctStop";"2";"1";"FINISHED";"NONE";"success";"0";"1";"2014-10-16 22:18:15.427";"1";;;;;;;;;;;;;;;;;;;;;;;;;;;;;;;;;;;;;;;;;;;;;;;;;;;;;;;;;
"qwerty24";"1995";;"Windows 8";"Rachel's Experiment (D.T.)";"1.0";"2";"1";"1";"2";"1";"1";"2014-10-16 22:14:09.263";"2014-10-16 22:28:56.494";"1";"0";"1";"46";"45";"module.training_block1.exec-2214.GoNoGo1";;;;;;;;;;;;;;;;;;;;;;;"1244";"2014-10-16 22:18:19.210";"ST_correctStop";"4";"0";"FINISHED";"NONE";"success";"0";"1";"2014-10-16 22:18:17.951";"1";;;;;;;;;;;;;;;;;;;;;;;;;;;;;;;;;;;;;;;;;;;;;;;;;;;;;;;;;
"qwerty24";"1995";;"Windows 8";"Rachel's Experiment (D.T.)";"1.0";"2";"1";"1";"2";"1";"1";"2014-10-16 22:14:09.263";"2014-10-16 22:28:56.494";"1";"0";"1";"47";"46";"module.training_block1.exec-2214.GoNoGo1";;;;;;;;;;;;;;;;;;;;;;;"1236";"2014-10-16 22:18:21.734";"ST_correctStop";"35";"1";"FINISHED";"NONE";"success";"0";"1";"2014-10-16 22:18:20.484";"3";;;;;;;;;;;;;;;;;;;;;;;;;;;;;;;;;;;;;;;;;;;;;;;;;;;;;;;;;
"qwerty24";"1995";;"Windows 8";"Rachel's Experiment (D.T.)";"1.0";"2";"1";"1";"2";"1";"1";"2014-10-16 22:14:09.263";"2014-10-16 22:28:56.494";"1";"0";"1";"48";"47";"module.training_block1.exec-2214.GoNoGo1";;;;;;;;;;;;;;;;;;;;;;;"1244";"2014-10-16 22:18:24.282";"NST_correctLoc";"28";"0";"FINISHED";"LEFT";"success";"417";"0";"2014-10-16 22:18:23.024";"3";;;;;;;;;;;;;;;;;;;;;;;;;;;;;;;;;;;;;;;;;;;;;;;;;;;;;;;;;
"qwerty24";"1995";;"Windows 8";"Rachel's Experiment (D.T.)";"1.0";"2";"1";"1";"2";"1";"1";"2014-10-16 22:14:09.263";"2014-10-16 22:28:56.494";"1";"0";"1";"49";"48";"module.training_block1.exec-2214.GoNoGo1";;;;;;;;;;;;;;;;;;;;;;;"1236";"2014-10-16 22:18:26.806";"NST_correctLoc";"29";"1";"FINISHED";"RIGHT";"success";"600";"0";"2014-10-16 22:18:25.556";"3";;;;;;;;;;;;;;;;;;;;;;;;;;;;;;;;;;;;;;;;;;;;;;;;;;;;;;;;;
"qwerty24";"1995";;"Windows 8";"Rachel's Experiment (D.T.)";"1.0";"2";"1";"1";"2";"1";"1";"2014-10-16 22:14:09.263";"2014-10-16 22:28:56.494";"1";"0";"1";"50";"49";"module.training_block1.exec-2214.GoNoGo1";;;;;;;;;;;;;;;;;;;;;;;"1253";"2014-10-16 22:18:29.354";"NST_correctLoc";"19";"0";"FINISHED";"LEFT";"success";"386";"0";"2014-10-16 22:18:28.096";"3";;;;;;;;;;;;;;;;;;;;;;;;;;;;;;;;;;;;;;;;;;;;;;;;;;;;;;;;;
"qwerty24";"1995";;"Windows 8";"Rachel's Experiment (D.T.)";"1.0";"2";"1";"1";"2";"1";"1";"2014-10-16 22:14:09.263";"2014-10-16 22:28:56.494";"1";"0";"1";"51";"50";"module.training_block1.exec-2214.GoNoGo1";;;;;;;;;;;;;;;;;;;;;;;"1237";"2014-10-16 22:18:31.879";"ST_correctStop";"5";"0";"FINISHED";"NONE";"success";"0";"1";"2014-10-16 22:18:30.628";"1";;;;;;;;;;;;;;;;;;;;;;;;;;;;;;;;;;;;;;;;;;;;;;;;;;;;;;;;;
"qwerty24";"1995";;"Windows 8";"Rachel's Experiment (D.T.)";"1.0";"2";"1";"1";"2";"1";"1";"2014-10-16 22:14:09.263";"2014-10-16 22:28:56.494";"1";"0";"1";"52";"51";"module.training_block2.exec-5400.GoNoGo2";;;;;;;;;;;;;;;;;;;;;;;;;;;;;;;;;;;"1249";"2014-10-16 22:18:44.585";"ST_correctStop";"6";"1";"FINISHED";"NONE";"success";"0";"1";"2014-10-16 22:18:43.327";"1";;;;;;;;;;;;;;;;;;;;;;;;;;;;;;;;;;;;;;;;;;;;;
"qwerty24";"1995";;"Windows 8";"Rachel's Experiment (D.T.)";"1.0";"2";"1";"1";"2";"1";"1";"2014-10-16 22:14:09.263";"2014-10-16 22:28:56.494";"1";"0";"1";"53";"52";"module.training_block2.exec-5400.GoNoGo2";;;;;;;;;;;;;;;;;;;;;;;;;;;;;;;;;;;"1250";"2014-10-16 22:18:47.110";"NST_correctLoc";"15";"0";"FINISHED";"LEFT";"success";"384";"0";"2014-10-16 22:18:45.852";"2";;;;;;;;;;;;;;;;;;;;;;;;;;;;;;;;;;;;;;;;;;;;;
"qwerty24";"1995";;"Windows 8";"Rachel's Experiment (D.T.)";"1.0";"2";"1";"1";"2";"1";"1";"2014-10-16 22:14:09.263";"2014-10-16 22:28:56.494";"1";"0";"1";"54";"53";"module.training_block2.exec-5400.GoNoGo2";;;;;;;;;;;;;;;;;;;;;;;;;;;;;;;;;;;"1251";"2014-10-16 22:18:49.642";"NST_correctLoc";"28";"1";"FINISHED";"RIGHT";"success";"419";"0";"2014-10-16 22:18:48.384";"3";;;;;;;;;;;;;;;;;;;;;;;;;;;;;;;;;;;;;;;;;;;;;
"qwerty24";"1995";;"Windows 8";"Rachel's Experiment (D.T.)";"1.0";"2";"1";"1";"2";"1";"1";"2014-10-16 22:14:09.263";"2014-10-16 22:28:56.494";"1";"0";"1";"55";"54";"module.training_block2.exec-5400.GoNoGo2";;;;;;;;;;;;;;;;;;;;;;;;;;;;;;;;;;;"1251";"2014-10-16 22:18:52.166";"ST_failedStop";"29";"0";"FINISHED";"LEFT";"failure";"391";"1";"2014-10-16 22:18:50.908";"3";;;;;;;;;;;;;;;;;;;;;;;;;;;;;;;;;;;;;;;;;;;;;
"qwerty24";"1995";;"Windows 8";"Rachel's Experiment (D.T.)";"1.0";"2";"1";"1";"2";"1";"1";"2014-10-16 22:14:09.263";"2014-10-16 22:28:56.494";"1";"0";"1";"56";"55";"module.training_block2.exec-5400.GoNoGo2";;;;;;;;;;;;;;;;;;;;;;;;;;;;;;;;;;;"1250";"2014-10-16 22:18:54.713";"NST_correctLoc";"17";"1";"FINISHED";"RIGHT";"success";"430";"0";"2014-10-16 22:18:53.455";"2";;;;;;;;;;;;;;;;;;;;;;;;;;;;;;;;;;;;;;;;;;;;;
"qwerty24";"1995";;"Windows 8";"Rachel's Experiment (D.T.)";"1.0";"2";"1";"1";"2";"1";"1";"2014-10-16 22:14:09.263";"2014-10-16 22:28:56.494";"1";"0";"1";"57";"56";"module.training_block2.exec-5400.GoNoGo2";;;;;;;;;;;;;;;;;;;;;;;;;;;;;;;;;;;"1250";"2014-10-16 22:18:57.238";"ST_correctStop";"3";"0";"FINISHED";"NONE";"success";"0";"1";"2014-10-16 22:18:55.980";"1";;;;;;;;;;;;;;;;;;;;;;;;;;;;;;;;;;;;;;;;;;;;;
"qwerty24";"1995";;"Windows 8";"Rachel's Experiment (D.T.)";"1.0";"2";"1";"1";"2";"1";"1";"2014-10-16 22:14:09.263";"2014-10-16 22:28:56.494";"1";"0";"1";"58";"57";"module.training_block2.exec-5400.GoNoGo2";;;;;;;;;;;;;;;;;;;;;;;;;;;;;;;;;;;"1250";"2014-10-16 22:18:59.770";"NST_correctLoc";"35";"0";"FINISHED";"LEFT";"success";"450";"0";"2014-10-16 22:18:58.512";"3";;;;;;;;;;;;;;;;;;;;;;;;;;;;;;;;;;;;;;;;;;;;;
"qwerty24";"1995";;"Windows 8";"Rachel's Experiment (D.T.)";"1.0";"2";"1";"1";"2";"1";"1";"2014-10-16 22:14:09.263";"2014-10-16 22:28:56.494";"1";"0";"1";"59";"58";"module.training_block2.exec-5400.GoNoGo2";;;;;;;;;;;;;;;;;;;;;;;;;;;;;;;;;;;"1250";"2014-10-16 22:19:02.294";"NST_correctLoc";"24";"1";"FINISHED";"RIGHT";"success";"467";"0";"2014-10-16 22:19:01.036";"3";;;;;;;;;;;;;;;;;;;;;;;;;;;;;;;;;;;;;;;;;;;;;
"qwerty24";"1995";;"Windows 8";"Rachel's Experiment (D.T.)";"1.0";"2";"1";"1";"2";"1";"1";"2014-10-16 22:14:09.263";"2014-10-16 22:28:56.494";"1";"0";"1";"60";"59";"module.training_block2.exec-5400.GoNoGo2";;;;;;;;;;;;;;;;;;;;;;;;;;;;;;;;;;;"1251";"2014-10-16 22:19:04.827";"ST_correctStop";"7";"1";"FINISHED";"NONE";"success";"0";"1";"2014-10-16 22:19:03.568";"1";;;;;;;;;;;;;;;;;;;;;;;;;;;;;;;;;;;;;;;;;;;;;
"qwerty24";"1995";;"Windows 8";"Rachel's Experiment (D.T.)";"1.0";"2";"1";"1";"2";"1";"1";"2014-10-16 22:14:09.263";"2014-10-16 22:28:56.494";"1";"0";"1";"61";"60";"module.training_block2.exec-5400.GoNoGo2";;;;;;;;;;;;;;;;;;;;;;;;;;;;;;;;;;;"1250";"2014-10-16 22:19:07.363";"ST_correctStop";"22";"0";"FINISHED";"NONE";"success";"0";"1";"2014-10-16 22:19:06.105";"3";;;;;;;;;;;;;;;;;;;;;;;;;;;;;;;;;;;;;;;;;;;;;
"qwerty24";"1995";;"Windows 8";"Rachel's Experiment (D.T.)";"1.0";"2";"1";"1";"2";"1";"1";"2014-10-16 22:14:09.263";"2014-10-16 22:28:56.494";"1";"0";"1";"62";"61";"module.training_block2.exec-5400.GoNoGo2";;;;;;;;;;;;;;;;;;;;;;;;;;;;;;;;;;;"1250";"2014-10-16 22:19:09.911";"NST_correctLoc";"14";"1";"FINISHED";"RIGHT";"success";"457";"0";"2014-10-16 22:19:08.652";"2";;;;;;;;;;;;;;;;;;;;;;;;;;;;;;;;;;;;;;;;;;;;;
"qwerty24";"1995";;"Windows 8";"Rachel's Experiment (D.T.)";"1.0";"2";"1";"1";"2";"1";"1";"2014-10-16 22:14:09.263";"2014-10-16 22:28:56.494";"1";"0";"1";"63";"62";"module.training_block2.exec-5400.GoNoGo2";;;;;;;;;;;;;;;;;;;;;;;;;;;;;;;;;;;"1250";"2014-10-16 22:19:12.435";"NST_correctLoc";"20";"1";"FINISHED";"RIGHT";"success";"461";"0";"2014-10-16 22:19:11.177";"3";;;;;;;;;;;;;;;;;;;;;;;;;;;;;;;;;;;;;;;;;;;;;
"qwerty24";"1995";;"Windows 8";"Rachel's Experiment (D.T.)";"1.0";"2";"1";"1";"2";"1";"1";"2014-10-16 22:14:09.263";"2014-10-16 22:28:56.494";"1";"0";"1";"64";"63";"module.training_block2.exec-5400.GoNoGo2";;;;;;;;;;;;;;;;;;;;;;;;;;;;;;;;;;;"1249";"2014-10-16 22:19:14.967";"ST_correctStop";"34";"1";"FINISHED";"NONE";"success";"0";"1";"2014-10-16 22:19:13.709";"3";;;;;;;;;;;;;;;;;;;;;;;;;;;;;;;;;;;;;;;;;;;;;
"qwerty24";"1995";;"Windows 8";"Rachel's Experiment (D.T.)";"1.0";"2";"1";"1";"2";"1";"1";"2014-10-16 22:14:09.263";"2014-10-16 22:28:56.494";"1";"0";"1";"65";"64";"module.training_block2.exec-5400.GoNoGo2";;;;;;;;;;;;;;;;;;;;;;;;;;;;;;;;;;;"1250";"2014-10-16 22:19:17.492";"NST_correctLoc";"30";"1";"FINISHED";"RIGHT";"success";"597";"0";"2014-10-16 22:19:16.234";"3";;;;;;;;;;;;;;;;;;;;;;;;;;;;;;;;;;;;;;;;;;;;;
"qwerty24";"1995";;"Windows 8";"Rachel's Experiment (D.T.)";"1.0";"2";"1";"1";"2";"1";"1";"2014-10-16 22:14:09.263";"2014-10-16 22:28:56.494";"1";"0";"1";"66";"65";"module.training_block2.exec-5400.GoNoGo2";;;;;;;;;;;;;;;;;;;;;;;;;;;;;;;;;;;"1244";"2014-10-16 22:19:20.024";"NST_correctLoc";"32";"1";"FINISHED";"RIGHT";"success";"575";"0";"2014-10-16 22:19:18.765";"3";;;;;;;;;;;;;;;;;;;;;;;;;;;;;;;;;;;;;;;;;;;;;
"qwerty24";"1995";;"Windows 8";"Rachel's Experiment (D.T.)";"1.0";"2";"1";"1";"2";"1";"1";"2014-10-16 22:14:09.263";"2014-10-16 22:28:56.494";"1";"0";"1";"67";"66";"module.training_block2.exec-5400.GoNoGo2";;;;;;;;;;;;;;;;;;;;;;;;;;;;;;;;;;;"1250";"2014-10-16 22:19:22.548";"ST_correctStop";"8";"0";"FINISHED";"NONE";"success";"0";"1";"2014-10-16 22:19:21.290";"1";;;;;;;;;;;;;;;;;;;;;;;;;;;;;;;;;;;;;;;;;;;;;
"qwerty24";"1995";;"Windows 8";"Rachel's Experiment (D.T.)";"1.0";"2";"1";"1";"2";"1";"1";"2014-10-16 22:14:09.263";"2014-10-16 22:28:56.494";"1";"0";"1";"68";"67";"module.training_block2.exec-5400.GoNoGo2";;;;;;;;;;;;;;;;;;;;;;;;;;;;;;;;;;;"1250";"2014-10-16 22:19:25.080";"ST_correctStop";"19";"1";"FINISHED";"NONE";"success";"0";"1";"2014-10-16 22:19:23.822";"3";;;;;;;;;;;;;;;;;;;;;;;;;;;;;;;;;;;;;;;;;;;;;
"qwerty24";"1995";;"Windows 8";"Rachel's Experiment (D.T.)";"1.0";"2";"1";"1";"2";"1";"1";"2014-10-16 22:14:09.263";"2014-10-16 22:28:56.494";"1";"0";"1";"69";"68";"module.training_block2.exec-5400.GoNoGo2";;;;;;;;;;;;;;;;;;;;;;;;;;;;;;;;;;;"1250";"2014-10-16 22:19:27.604";"ST_correctStop";"21";"1";"FINISHED";"NONE";"success";"0";"1";"2014-10-16 22:19:26.346";"3";;;;;;;;;;;;;;;;;;;;;;;;;;;;;;;;;;;;;;;;;;;;;
"qwerty24";"1995";;"Windows 8";"Rachel's Experiment (D.T.)";"1.0";"2";"1";"1";"2";"1";"1";"2014-10-16 22:14:09.263";"2014-10-16 22:28:56.494";"1";"0";"1";"70";"69";"module.training_block2.exec-5400.GoNoGo2";;;;;;;;;;;;;;;;;;;;;;;;;;;;;;;;;;;"1246";"2014-10-16 22:19:30.133";"NST_correctLoc";"31";"0";"FINISHED";"LEFT";"success";"528";"0";"2014-10-16 22:19:28.879";"3";;;;;;;;;;;;;;;;;;;;;;;;;;;;;;;;;;;;;;;;;;;;;
"qwerty24";"1995";;"Windows 8";"Rachel's Experiment (D.T.)";"1.0";"2";"1";"1";"2";"1";"1";"2014-10-16 22:14:09.263";"2014-10-16 22:28:56.494";"1";"0";"1";"71";"70";"module.training_block2.exec-5400.GoNoGo2";;;;;;;;;;;;;;;;;;;;;;;;;;;;;;;;;;;"1249";"2014-10-16 22:19:32.657";"ST_correctStop";"2";"1";"FINISHED";"NONE";"success";"0";"1";"2014-10-16 22:19:31.399";"1";;;;;;;;;;;;;;;;;;;;;;;;;;;;;;;;;;;;;;;;;;;;;
"qwerty24";"1995";;"Windows 8";"Rachel's Experiment (D.T.)";"1.0";"2";"1";"1";"2";"1";"1";"2014-10-16 22:14:09.263";"2014-10-16 22:28:56.494";"1";"0";"1";"72";"71";"module.training_block2.exec-5400.GoNoGo2";;;;;;;;;;;;;;;;;;;;;;;;;;;;;;;;;;;"1250";"2014-10-16 22:19:35.189";"ST_correctStop";"1";"0";"FINISHED";"NONE";"success";"0";"1";"2014-10-16 22:19:33.931";"1";;;;;;;;;;;;;;;;;;;;;;;;;;;;;;;;;;;;;;;;;;;;;
"qwerty24";"1995";;"Windows 8";"Rachel's Experiment (D.T.)";"1.0";"2";"1";"1";"2";"1";"1";"2014-10-16 22:14:09.263";"2014-10-16 22:28:56.494";"1";"0";"1";"73";"72";"module.training_block2.exec-5400.GoNoGo2";;;;;;;;;;;;;;;;;;;;;;;;;;;;;;;;;;;"1250";"2014-10-16 22:19:37.792";"NST_correctLoc";"16";"1";"FINISHED";"RIGHT";"success";"420";"0";"2014-10-16 22:19:36.533";"2";;;;;;;;;;;;;;;;;;;;;;;;;;;;;;;;;;;;;;;;;;;;;
"qwerty24";"1995";;"Windows 8";"Rachel's Experiment (D.T.)";"1.0";"2";"1";"1";"2";"1";"1";"2014-10-16 22:14:09.263";"2014-10-16 22:28:56.494";"1";"0";"1";"74";"73";"module.training_block2.exec-5400.GoNoGo2";;;;;;;;;;;;;;;;;;;;;;;;;;;;;;;;;;;"1242";"2014-10-16 22:19:40.316";"ST_correctStop";"0";"0";"FINISHED";"NONE";"success";"0";"1";"2014-10-16 22:19:39.065";"1";;;;;;;;;;;;;;;;;;;;;;;;;;;;;;;;;;;;;;;;;;;;;
"qwerty24";"1995";;"Windows 8";"Rachel's Experiment (D.T.)";"1.0";"2";"1";"1";"2";"1";"1";"2014-10-16 22:14:09.263";"2014-10-16 22:28:56.494";"1";"0";"1";"75";"74";"module.training_block2.exec-5400.GoNoGo2";;;;;;;;;;;;;;;;;;;;;;;;;;;;;;;;;;;"1250";"2014-10-16 22:19:42.848";"ST_correctStop";"23";"1";"FINISHED";"NONE";"success";"0";"1";"2014-10-16 22:19:41.590";"3";;;;;;;;;;;;;;;;;;;;;;;;;;;;;;;;;;;;;;;;;;;;;
"qwerty24";"1995";;"Windows 8";"Rachel's Experiment (D.T.)";"1.0";"2";"1";"1";"2";"1";"1";"2014-10-16 22:14:09.263";"2014-10-16 22:28:56.494";"1";"0";"1";"76";"75";"module.training_block2.exec-5400.GoNoGo2";;;;;;;;;;;;;;;;;;;;;;;;;;;;;;;;;;;"1241";"2014-10-16 22:19:45.372";"NST_correctLoc";"12";"1";"FINISHED";"RIGHT";"success";"434";"0";"2014-10-16 22:19:44.122";"2";;;;;;;;;;;;;;;;;;;;;;;;;;;;;;;;;;;;;;;;;;;;;
"qwerty24";"1995";;"Windows 8";"Rachel's Experiment (D.T.)";"1.0";"2";"1";"1";"2";"1";"1";"2014-10-16 22:14:09.263";"2014-10-16 22:28:56.494";"1";"0";"1";"77";"76";"module.training_block2.exec-5400.GoNoGo2";;;;;;;;;;;;;;;;;;;;;;;;;;;;;;;;;;;"1250";"2014-10-16 22:19:47.904";"NST_correctLoc";"27";"1";"FINISHED";"RIGHT";"success";"406";"0";"2014-10-16 22:19:46.646";"3";;;;;;;;;;;;;;;;;;;;;;;;;;;;;;;;;;;;;;;;;;;;;
"qwerty24";"1995";;"Windows 8";"Rachel's Experiment (D.T.)";"1.0";"2";"1";"1";"2";"1";"1";"2014-10-16 22:14:09.263";"2014-10-16 22:28:56.494";"1";"0";"1";"78";"77";"module.training_block2.exec-5400.GoNoGo2";;;;;;;;;;;;;;;;;;;;;;;;;;;;;;;;;;;"1242";"2014-10-16 22:19:50.428";"ST_failedStop";"26";"0";"FINISHED";"LEFT";"failure";"564";"1";"2014-10-16 22:19:49.178";"3";;;;;;;;;;;;;;;;;;;;;;;;;;;;;;;;;;;;;;;;;;;;;
"qwerty24";"1995";;"Windows 8";"Rachel's Experiment (D.T.)";"1.0";"2";"1";"1";"2";"1";"1";"2014-10-16 22:14:09.263";"2014-10-16 22:28:56.494";"1";"0";"1";"79";"78";"module.training_block2.exec-5400.GoNoGo2";;;;;;;;;;;;;;;;;;;;;;;;;;;;;;;;;;;"1245";"2014-10-16 22:19:52.960";"ST_correctStop";"33";"0";"FINISHED";"NONE";"success";"0";"1";"2014-10-16 22:19:51.702";"3";;;;;;;;;;;;;;;;;;;;;;;;;;;;;;;;;;;;;;;;;;;;;
"qwerty24";"1995";;"Windows 8";"Rachel's Experiment (D.T.)";"1.0";"2";"1";"1";"2";"1";"1";"2014-10-16 22:14:09.263";"2014-10-16 22:28:56.494";"1";"0";"1";"80";"79";"module.training_block2.exec-5400.GoNoGo2";;;;;;;;;;;;;;;;;;;;;;;;;;;;;;;;;;;"1242";"2014-10-16 22:19:55.485";"NST_correctLoc";"10";"0";"FINISHED";"LEFT";"success";"451";"0";"2014-10-16 22:19:54.234";"2";;;;;;;;;;;;;;;;;;;;;;;;;;;;;;;;;;;;;;;;;;;;;
"qwerty24";"1995";;"Windows 8";"Rachel's Experiment (D.T.)";"1.0";"2";"1";"1";"2";"1";"1";"2014-10-16 22:14:09.263";"2014-10-16 22:28:56.494";"1";"0";"1";"81";"80";"module.training_block2.exec-5400.GoNoGo2";;;;;;;;;;;;;;;;;;;;;;;;;;;;;;;;;;;"1250";"2014-10-16 22:19:58.017";"ST_correctStop";"4";"1";"FINISHED";"NONE";"success";"0";"1";"2014-10-16 22:19:56.759";"1";;;;;;;;;;;;;;;;;;;;;;;;;;;;;;;;;;;;;;;;;;;;;
"qwerty24";"1995";;"Windows 8";"Rachel's Experiment (D.T.)";"1.0";"2";"1";"1";"2";"1";"1";"2014-10-16 22:14:09.263";"2014-10-16 22:28:56.494";"1";"0";"1";"82";"81";"module.training_block2.exec-5400.GoNoGo2";;;;;;;;;;;;;;;;;;;;;;;;;;;;;;;;;;;"1242";"2014-10-16 22:20:00.542";"ST_correctStop";"5";"0";"FINISHED";"NONE";"success";"0";"1";"2014-10-16 22:19:59.291";"1";;;;;;;;;;;;;;;;;;;;;;;;;;;;;;;;;;;;;;;;;;;;;
"qwerty24";"1995";;"Windows 8";"Rachel's Experiment (D.T.)";"1.0";"2";"1";"1";"2";"1";"1";"2014-10-16 22:14:09.263";"2014-10-16 22:28:56.494";"1";"0";"1";"83";"82";"module.training_block2.exec-5400.GoNoGo2";;;;;;;;;;;;;;;;;;;;;;;;;;;;;;;;;;;"1250";"2014-10-16 22:20:03.073";"NST_correctLoc";"13";"1";"FINISHED";"RIGHT";"success";"637";"0";"2014-10-16 22:20:01.815";"2";;;;;;;;;;;;;;;;;;;;;;;;;;;;;;;;;;;;;;;;;;;;;
"qwerty24";"1995";;"Windows 8";"Rachel's Experiment (D.T.)";"1.0";"2";"1";"1";"2";"1";"1";"2014-10-16 22:14:09.263";"2014-10-16 22:28:56.494";"1";"0";"1";"84";"83";"module.training_block2.exec-5400.GoNoGo2";;;;;;;;;;;;;;;;;;;;;;;;;;;;;;;;;;;"1238";"2014-10-16 22:20:05.598";"NST_correctLoc";"18";"1";"FINISHED";"RIGHT";"success";"527";"0";"2014-10-16 22:20:04.347";"3";;;;;;;;;;;;;;;;;;;;;;;;;;;;;;;;;;;;;;;;;;;;;
"qwerty24";"1995";;"Windows 8";"Rachel's Experiment (D.T.)";"1.0";"2";"1";"1";"2";"1";"1";"2014-10-16 22:14:09.263";"2014-10-16 22:28:56.494";"1";"0";"1";"85";"84";"module.training_block2.exec-5400.GoNoGo2";;;;;;;;;;;;;;;;;;;;;;;;;;;;;;;;;;;"1250";"2014-10-16 22:20:08.130";"NST_correctLoc";"11";"1";"FINISHED";"RIGHT";"success";"362";"0";"2014-10-16 22:20:06.872";"2";;;;;;;;;;;;;;;;;;;;;;;;;;;;;;;;;;;;;;;;;;;;;
"qwerty24";"1995";;"Windows 8";"Rachel's Experiment (D.T.)";"1.0";"2";"1";"1";"2";"1";"1";"2014-10-16 22:14:09.263";"2014-10-16 22:28:56.494";"1";"0";"1";"86";"85";"module.training_block2.exec-5400.GoNoGo2";;;;;;;;;;;;;;;;;;;;;;;;;;;;;;;;;;;"1242";"2014-10-16 22:20:10.654";"NST_correctLoc";"9";"0";"FINISHED";"LEFT";"success";"369";"0";"2014-10-16 22:20:09.403";"2";;;;;;;;;;;;;;;;;;;;;;;;;;;;;;;;;;;;;;;;;;;;;
"qwerty24";"1995";;"Windows 8";"Rachel's Experiment (D.T.)";"1.0";"2";"1";"1";"2";"1";"1";"2014-10-16 22:14:09.263";"2014-10-16 22:28:56.494";"1";"0";"1";"87";"86";"module.training_block2.exec-5400.GoNoGo2";;;;;;;;;;;;;;;;;;;;;;;;;;;;;;;;;;;"1250";"2014-10-16 22:20:13.186";"ST_failedStop";"25";"0";"FINISHED";"LEFT";"failure";"452";"1";"2014-10-16 22:20:11.928";"3";;;;;;;;;;;;;;;;;;;;;;;;;;;;;;;;;;;;;;;;;;;;;
"qwerty24";"1995";;"Windows 8";"Rachel's Experiment (D.T.)";"1.0";"2";"1";"1";"2";"1";"1";"2014-10-16 22:14:09.263";"2014-10-16 22:28:56.494";"1";"0";"1";"88";"87";"module.training_block3.exec-8263.GoNoGo3";;;;;;;;;;;;;;;;;;;;;;;;;;;;;;;;;;;;;;;;;;;;;;;"1249";"2014-10-16 22:20:24.924";"ST_failedStop";"28";"1";"FINISHED";"RIGHT";"failure";"484";"1";"2014-10-16 22:20:23.666";"3";;;;;;;;;;;;;;;;;;;;;;;;;;;;;;;;;
"qwerty24";"1995";;"Windows 8";"Rachel's Experiment (D.T.)";"1.0";"2";"1";"1";"2";"1";"1";"2014-10-16 22:14:09.263";"2014-10-16 22:28:56.494";"1";"0";"1";"89";"88";"module.training_block3.exec-8263.GoNoGo3";;;;;;;;;;;;;;;;;;;;;;;;;;;;;;;;;;;;;;;;;;;;;;;"1250";"2014-10-16 22:20:27.456";"ST_correctStop";"7";"1";"FINISHED";"NONE";"success";"0";"1";"2014-10-16 22:20:26.198";"1";;;;;;;;;;;;;;;;;;;;;;;;;;;;;;;;;
"qwerty24";"1995";;"Windows 8";"Rachel's Experiment (D.T.)";"1.0";"2";"1";"1";"2";"1";"1";"2014-10-16 22:14:09.263";"2014-10-16 22:28:56.494";"1";"0";"1";"90";"89";"module.training_block3.exec-8263.GoNoGo3";;;;;;;;;;;;;;;;;;;;;;;;;;;;;;;;;;;;;;;;;;;;;;;"1250";"2014-10-16 22:20:29.980";"ST_correctStop";"4";"0";"FINISHED";"NONE";"success";"0";"1";"2014-10-16 22:20:28.722";"1";;;;;;;;;;;;;;;;;;;;;;;;;;;;;;;;;
"qwerty24";"1995";;"Windows 8";"Rachel's Experiment (D.T.)";"1.0";"2";"1";"1";"2";"1";"1";"2014-10-16 22:14:09.263";"2014-10-16 22:28:56.494";"1";"0";"1";"91";"90";"module.training_block3.exec-8263.GoNoGo3";;;;;;;;;;;;;;;;;;;;;;;;;;;;;;;;;;;;;;;;;;;;;;;"1250";"2014-10-16 22:20:32.508";"NST_correctLoc";"33";"0";"FINISHED";"LEFT";"success";"719";"0";"2014-10-16 22:20:31.250";"3";;;;;;;;;;;;;;;;;;;;;;;;;;;;;;;;;
"qwerty24";"1995";;"Windows 8";"Rachel's Experiment (D.T.)";"1.0";"2";"1";"1";"2";"1";"1";"2014-10-16 22:14:09.263";"2014-10-16 22:28:56.494";"1";"0";"1";"92";"91";"module.training_block3.exec-8263.GoNoGo3";;;;;;;;;;;;;;;;;;;;;;;;;;;;;;;;;;;;;;;;;;;;;;;"1250";"2014-10-16 22:20:35.032";"NST_correctLoc";"10";"1";"FINISHED";"RIGHT";"success";"437";"0";"2014-10-16 22:20:33.774";"2";;;;;;;;;;;;;;;;;;;;;;;;;;;;;;;;;
"qwerty24";"1995";;"Windows 8";"Rachel's Experiment (D.T.)";"1.0";"2";"1";"1";"2";"1";"1";"2014-10-16 22:14:09.263";"2014-10-16 22:28:56.494";"1";"0";"1";"93";"92";"module.training_block3.exec-8263.GoNoGo3";;;;;;;;;;;;;;;;;;;;;;;;;;;;;;;;;;;;;;;;;;;;;;;"1250";"2014-10-16 22:20:37.564";"ST_correctStop";"6";"1";"FINISHED";"NONE";"success";"0";"1";"2014-10-16 22:20:36.306";"1";;;;;;;;;;;;;;;;;;;;;;;;;;;;;;;;;
"qwerty24";"1995";;"Windows 8";"Rachel's Experiment (D.T.)";"1.0";"2";"1";"1";"2";"1";"1";"2014-10-16 22:14:09.263";"2014-10-16 22:28:56.494";"1";"0";"1";"94";"93";"module.training_block3.exec-8263.GoNoGo3";;;;;;;;;;;;;;;;;;;;;;;;;;;;;;;;;;;;;;;;;;;;;;;"1244";"2014-10-16 22:20:40.088";"NST_correctLoc";"24";"0";"FINISHED";"LEFT";"success";"528";"0";"2014-10-16 22:20:38.830";"3";;;;;;;;;;;;;;;;;;;;;;;;;;;;;;;;;
"qwerty24";"1995";;"Windows 8";"Rachel's Experiment (D.T.)";"1.0";"2";"1";"1";"2";"1";"1";"2014-10-16 22:14:09.263";"2014-10-16 22:28:56.494";"1";"0";"1";"95";"94";"module.training_block3.exec-8263.GoNoGo3";;;;;;;;;;;;;;;;;;;;;;;;;;;;;;;;;;;;;;;;;;;;;;;"1250";"2014-10-16 22:20:42.620";"NST_correctLoc";"32";"1";"FINISHED";"RIGHT";"success";"437";"0";"2014-10-16 22:20:41.362";"3";;;;;;;;;;;;;;;;;;;;;;;;;;;;;;;;;
"qwerty24";"1995";;"Windows 8";"Rachel's Experiment (D.T.)";"1.0";"2";"1";"1";"2";"1";"1";"2014-10-16 22:14:09.263";"2014-10-16 22:28:56.494";"1";"0";"1";"96";"95";"module.training_block3.exec-8263.GoNoGo3";;;;;;;;;;;;;;;;;;;;;;;;;;;;;;;;;;;;;;;;;;;;;;;"1249";"2014-10-16 22:20:45.144";"ST_correctStop";"22";"1";"FINISHED";"NONE";"success";"0";"1";"2014-10-16 22:20:43.886";"3";;;;;;;;;;;;;;;;;;;;;;;;;;;;;;;;;
"qwerty24";"1995";;"Windows 8";"Rachel's Experiment (D.T.)";"1.0";"2";"1";"1";"2";"1";"1";"2014-10-16 22:14:09.263";"2014-10-16 22:28:56.494";"1";"0";"1";"97";"96";"module.training_block3.exec-8263.GoNoGo3";;;;;;;;;;;;;;;;;;;;;;;;;;;;;;;;;;;;;;;;;;;;;;;"1250";"2014-10-16 22:20:47.676";"ST_correctStop";"2";"0";"FINISHED";"NONE";"success";"0";"1";"2014-10-16 22:20:46.418";"1";;;;;;;;;;;;;;;;;;;;;;;;;;;;;;;;;
"qwerty24";"1995";;"Windows 8";"Rachel's Experiment (D.T.)";"1.0";"2";"1";"1";"2";"1";"1";"2014-10-16 22:14:09.263";"2014-10-16 22:28:56.494";"1";"0";"1";"98";"97";"module.training_block3.exec-8263.GoNoGo3";;;;;;;;;;;;;;;;;;;;;;;;;;;;;;;;;;;;;;;;;;;;;;;"1250";"2014-10-16 22:20:50.201";"NST_correctLoc";"16";"0";"FINISHED";"LEFT";"success";"468";"0";"2014-10-16 22:20:48.943";"2";;;;;;;;;;;;;;;;;;;;;;;;;;;;;;;;;
"qwerty24";"1995";;"Windows 8";"Rachel's Experiment (D.T.)";"1.0";"2";"1";"1";"2";"1";"1";"2014-10-16 22:14:09.263";"2014-10-16 22:28:56.494";"1";"0";"1";"99";"98";"module.training_block3.exec-8263.GoNoGo3";;;;;;;;;;;;;;;;;;;;;;;;;;;;;;;;;;;;;;;;;;;;;;;"1251";"2014-10-16 22:20:52.733";"ST_correctStop";"3";"0";"FINISHED";"NONE";"success";"0";"1";"2014-10-16 22:20:51.474";"1";;;;;;;;;;;;;;;;;;;;;;;;;;;;;;;;;
"qwerty24";"1995";;"Windows 8";"Rachel's Experiment (D.T.)";"1.0";"2";"1";"1";"2";"1";"1";"2014-10-16 22:14:09.263";"2014-10-16 22:28:56.494";"1";"0";"1";"100";"99";"module.training_block3.exec-8263.GoNoGo3";;;;;;;;;;;;;;;;;;;;;;;;;;;;;;;;;;;;;;;;;;;;;;;"1249";"2014-10-16 22:20:55.258";"NST_correctLoc";"34";"1";"FINISHED";"RIGHT";"success";"372";"0";"2014-10-16 22:20:53.999";"3";;;;;;;;;;;;;;;;;;;;;;;;;;;;;;;;;
"qwerty24";"1995";;"Windows 8";"Rachel's Experiment (D.T.)";"1.0";"2";"1";"1";"2";"1";"1";"2014-10-16 22:14:09.263";"2014-10-16 22:28:56.494";"1";"0";"1";"101";"100";"module.training_block3.exec-8263.GoNoGo3";;;;;;;;;;;;;;;;;;;;;;;;;;;;;;;;;;;;;;;;;;;;;;;"1244";"2014-10-16 22:20:57.789";"NST_correctLoc";"29";"1";"FINISHED";"RIGHT";"success";"410";"0";"2014-10-16 22:20:56.531";"3";;;;;;;;;;;;;;;;;;;;;;;;;;;;;;;;;
"qwerty24";"1995";;"Windows 8";"Rachel's Experiment (D.T.)";"1.0";"2";"1";"1";"2";"1";"1";"2014-10-16 22:14:09.263";"2014-10-16 22:28:56.494";"1";"0";"1";"102";"101";"module.training_block3.exec-8263.GoNoGo3";;;;;;;;;;;;;;;;;;;;;;;;;;;;;;;;;;;;;;;;;;;;;;;"1250";"2014-10-16 22:21:00.326";"ST_correctStop";"0";"0";"FINISHED";"NONE";"success";"0";"1";"2014-10-16 22:20:59.067";"1";;;;;;;;;;;;;;;;;;;;;;;;;;;;;;;;;
"qwerty24";"1995";;"Windows 8";"Rachel's Experiment (D.T.)";"1.0";"2";"1";"1";"2";"1";"1";"2014-10-16 22:14:09.263";"2014-10-16 22:28:56.494";"1";"0";"1";"103";"102";"module.training_block3.exec-8263.GoNoGo3";;;;;;;;;;;;;;;;;;;;;;;;;;;;;;;;;;;;;;;;;;;;;;;"1251";"2014-10-16 22:21:02.858";"NST_correctLoc";"20";"1";"FINISHED";"RIGHT";"success";"503";"0";"2014-10-16 22:21:01.599";"3";;;;;;;;;;;;;;;;;;;;;;;;;;;;;;;;;
"qwerty24";"1995";;"Windows 8";"Rachel's Experiment (D.T.)";"1.0";"2";"1";"1";"2";"1";"1";"2014-10-16 22:14:09.263";"2014-10-16 22:28:56.494";"1";"0";"1";"104";"103";"module.training_block3.exec-8263.GoNoGo3";;;;;;;;;;;;;;;;;;;;;;;;;;;;;;;;;;;;;;;;;;;;;;;"1246";"2014-10-16 22:21:05.394";"ST_failedStop";"5";"0";"FINISHED";"LEFT";"failure";"339";"1";"2014-10-16 22:21:04.136";"1";;;;;;;;;;;;;;;;;;;;;;;;;;;;;;;;;
"qwerty24";"1995";;"Windows 8";"Rachel's Experiment (D.T.)";"1.0";"2";"1";"1";"2";"1";"1";"2014-10-16 22:14:09.263";"2014-10-16 22:28:56.494";"1";"0";"1";"105";"104";"module.training_block3.exec-8263.GoNoGo3";;;;;;;;;;;;;;;;;;;;;;;;;;;;;;;;;;;;;;;;;;;;;;;"1250";"2014-10-16 22:21:07.923";"ST_correctStop";"30";"0";"FINISHED";"NONE";"success";"0";"1";"2014-10-16 22:21:06.665";"3";;;;;;;;;;;;;;;;;;;;;;;;;;;;;;;;;
"qwerty24";"1995";;"Windows 8";"Rachel's Experiment (D.T.)";"1.0";"2";"1";"1";"2";"1";"1";"2014-10-16 22:14:09.263";"2014-10-16 22:28:56.494";"1";"0";"1";"106";"105";"module.training_block3.exec-8263.GoNoGo3";;;;;;;;;;;;;;;;;;;;;;;;;;;;;;;;;;;;;;;;;;;;;;;"1245";"2014-10-16 22:21:10.459";"ST_correctStop";"8";"1";"FINISHED";"NONE";"success";"0";"1";"2014-10-16 22:21:09.201";"1";;;;;;;;;;;;;;;;;;;;;;;;;;;;;;;;;
"qwerty24";"1995";;"Windows 8";"Rachel's Experiment (D.T.)";"1.0";"2";"1";"1";"2";"1";"1";"2014-10-16 22:14:09.263";"2014-10-16 22:28:56.494";"1";"0";"1";"107";"106";"module.training_block3.exec-8263.GoNoGo3";;;;;;;;;;;;;;;;;;;;;;;;;;;;;;;;;;;;;;;;;;;;;;;"1243";"2014-10-16 22:21:12.983";"ST_failedStop";"27";"0";"FINISHED";"LEFT";"failure";"562";"1";"2014-10-16 22:21:11.732";"3";;;;;;;;;;;;;;;;;;;;;;;;;;;;;;;;;
"qwerty24";"1995";;"Windows 8";"Rachel's Experiment (D.T.)";"1.0";"2";"1";"1";"2";"1";"1";"2014-10-16 22:14:09.263";"2014-10-16 22:28:56.494";"1";"0";"1";"108";"107";"module.training_block3.exec-8263.GoNoGo3";;;;;;;;;;;;;;;;;;;;;;;;;;;;;;;;;;;;;;;;;;;;;;;"1250";"2014-10-16 22:21:15.519";"ST_correctStop";"19";"0";"FINISHED";"NONE";"success";"0";"1";"2014-10-16 22:21:14.261";"3";;;;;;;;;;;;;;;;;;;;;;;;;;;;;;;;;
"qwerty24";"1995";;"Windows 8";"Rachel's Experiment (D.T.)";"1.0";"2";"1";"1";"2";"1";"1";"2014-10-16 22:14:09.263";"2014-10-16 22:28:56.494";"1";"0";"1";"109";"108";"module.training_block3.exec-8263.GoNoGo3";;;;;;;;;;;;;;;;;;;;;;;;;;;;;;;;;;;;;;;;;;;;;;;"1242";"2014-10-16 22:21:18.043";"ST_correctStop";"1";"1";"FINISHED";"NONE";"success";"0";"1";"2014-10-16 22:21:16.793";"1";;;;;;;;;;;;;;;;;;;;;;;;;;;;;;;;;
"qwerty24";"1995";;"Windows 8";"Rachel's Experiment (D.T.)";"1.0";"2";"1";"1";"2";"1";"1";"2014-10-16 22:14:09.263";"2014-10-16 22:28:56.494";"1";"0";"1";"110";"109";"module.training_block3.exec-8263.GoNoGo3";;;;;;;;;;;;;;;;;;;;;;;;;;;;;;;;;;;;;;;;;;;;;;;"1250";"2014-10-16 22:21:20.575";"NST_correctLoc";"25";"0";"FINISHED";"LEFT";"success";"439";"0";"2014-10-16 22:21:19.317";"3";;;;;;;;;;;;;;;;;;;;;;;;;;;;;;;;;
"qwerty24";"1995";;"Windows 8";"Rachel's Experiment (D.T.)";"1.0";"2";"1";"1";"2";"1";"1";"2014-10-16 22:14:09.263";"2014-10-16 22:28:56.494";"1";"0";"1";"111";"110";"module.training_block3.exec-8263.GoNoGo3";;;;;;;;;;;;;;;;;;;;;;;;;;;;;;;;;;;;;;;;;;;;;;;"1253";"2014-10-16 22:21:23.111";"NST_correctLoc";"12";"1";"FINISHED";"RIGHT";"success";"396";"0";"2014-10-16 22:21:21.849";"2";;;;;;;;;;;;;;;;;;;;;;;;;;;;;;;;;
"qwerty24";"1995";;"Windows 8";"Rachel's Experiment (D.T.)";"1.0";"2";"1";"1";"2";"1";"1";"2014-10-16 22:14:09.263";"2014-10-16 22:28:56.494";"1";"0";"1";"112";"111";"module.training_block3.exec-8263.GoNoGo3";;;;;;;;;;;;;;;;;;;;;;;;;;;;;;;;;;;;;;;;;;;;;;;"1249";"2014-10-16 22:21:25.643";"NST_correctLoc";"17";"1";"FINISHED";"RIGHT";"success";"351";"0";"2014-10-16 22:21:24.385";"2";;;;;;;;;;;;;;;;;;;;;;;;;;;;;;;;;
"qwerty24";"1995";;"Windows 8";"Rachel's Experiment (D.T.)";"1.0";"2";"1";"1";"2";"1";"1";"2014-10-16 22:14:09.263";"2014-10-16 22:28:56.494";"1";"0";"1";"113";"112";"module.training_block3.exec-8263.GoNoGo3";;;;;;;;;;;;;;;;;;;;;;;;;;;;;;;;;;;;;;;;;;;;;;;"1243";"2014-10-16 22:21:28.167";"NST_correctLoc";"13";"0";"FINISHED";"LEFT";"success";"391";"0";"2014-10-16 22:21:26.917";"2";;;;;;;;;;;;;;;;;;;;;;;;;;;;;;;;;
"qwerty24";"1995";;"Windows 8";"Rachel's Experiment (D.T.)";"1.0";"2";"1";"1";"2";"1";"1";"2014-10-16 22:14:09.263";"2014-10-16 22:28:56.494";"1";"0";"1";"114";"113";"module.training_block3.exec-8263.GoNoGo3";;;;;;;;;;;;;;;;;;;;;;;;;;;;;;;;;;;;;;;;;;;;;;;"1250";"2014-10-16 22:21:30.699";"NST_correctLoc";"14";"0";"FINISHED";"LEFT";"success";"439";"0";"2014-10-16 22:21:29.441";"2";;;;;;;;;;;;;;;;;;;;;;;;;;;;;;;;;
"qwerty24";"1995";;"Windows 8";"Rachel's Experiment (D.T.)";"1.0";"2";"1";"1";"2";"1";"1";"2014-10-16 22:14:09.263";"2014-10-16 22:28:56.494";"1";"0";"1";"115";"114";"module.training_block3.exec-8263.GoNoGo3";;;;;;;;;;;;;;;;;;;;;;;;;;;;;;;;;;;;;;;;;;;;;;;"1242";"2014-10-16 22:21:33.224";"ST_failedStop";"31";"0";"FINISHED";"LEFT";"failure";"432";"1";"2014-10-16 22:21:31.973";"3";;;;;;;;;;;;;;;;;;;;;;;;;;;;;;;;;
"qwerty24";"1995";;"Windows 8";"Rachel's Experiment (D.T.)";"1.0";"2";"1";"1";"2";"1";"1";"2014-10-16 22:14:09.263";"2014-10-16 22:28:56.494";"1";"0";"1";"116";"115";"module.training_block3.exec-8263.GoNoGo3";;;;;;;;;;;;;;;;;;;;;;;;;;;;;;;;;;;;;;;;;;;;;;;"1250";"2014-10-16 22:21:35.756";"ST_correctStop";"18";"1";"FINISHED";"NONE";"success";"0";"1";"2014-10-16 22:21:34.497";"3";;;;;;;;;;;;;;;;;;;;;;;;;;;;;;;;;
"qwerty24";"1995";;"Windows 8";"Rachel's Experiment (D.T.)";"1.0";"2";"1";"1";"2";"1";"1";"2014-10-16 22:14:09.263";"2014-10-16 22:28:56.494";"1";"0";"1";"117";"116";"module.training_block3.exec-8263.GoNoGo3";;;;;;;;;;;;;;;;;;;;;;;;;;;;;;;;;;;;;;;;;;;;;;;"1242";"2014-10-16 22:21:38.280";"NST_correctLoc";"26";"0";"FINISHED";"LEFT";"success";"465";"0";"2014-10-16 22:21:37.029";"3";;;;;;;;;;;;;;;;;;;;;;;;;;;;;;;;;
"qwerty24";"1995";;"Windows 8";"Rachel's Experiment (D.T.)";"1.0";"2";"1";"1";"2";"1";"1";"2014-10-16 22:14:09.263";"2014-10-16 22:28:56.494";"1";"0";"1";"118";"117";"module.training_block3.exec-8263.GoNoGo3";;;;;;;;;;;;;;;;;;;;;;;;;;;;;;;;;;;;;;;;;;;;;;;"1249";"2014-10-16 22:21:40.812";"NST_correctLoc";"15";"1";"FINISHED";"RIGHT";"success";"367";"0";"2014-10-16 22:21:39.554";"2";;;;;;;;;;;;;;;;;;;;;;;;;;;;;;;;;
"qwerty24";"1995";;"Windows 8";"Rachel's Experiment (D.T.)";"1.0";"2";"1";"1";"2";"1";"1";"2014-10-16 22:14:09.263";"2014-10-16 22:28:56.494";"1";"0";"1";"119";"118";"module.training_block3.exec-8263.GoNoGo3";;;;;;;;;;;;;;;;;;;;;;;;;;;;;;;;;;;;;;;;;;;;;;;"1255";"2014-10-16 22:21:43.348";"NST_correctLoc";"9";"0";"FINISHED";"LEFT";"success";"420";"0";"2014-10-16 22:21:42.085";"2";;;;;;;;;;;;;;;;;;;;;;;;;;;;;;;;;
"qwerty24";"1995";;"Windows 8";"Rachel's Experiment (D.T.)";"1.0";"2";"1";"1";"2";"1";"1";"2014-10-16 22:14:09.263";"2014-10-16 22:28:56.494";"1";"0";"1";"120";"119";"module.training_block3.exec-8263.GoNoGo3";;;;;;;;;;;;;;;;;;;;;;;;;;;;;;;;;;;;;;;;;;;;;;;"1250";"2014-10-16 22:21:45.880";"NST_correctLoc";"23";"0";"FINISHED";"LEFT";"success";"410";"0";"2014-10-16 22:21:44.622";"3";;;;;;;;;;;;;;;;;;;;;;;;;;;;;;;;;
"qwerty24";"1995";;"Windows 8";"Rachel's Experiment (D.T.)";"1.0";"2";"1";"1";"2";"1";"1";"2014-10-16 22:14:09.263";"2014-10-16 22:28:56.494";"1";"0";"1";"121";"120";"module.training_block3.exec-8263.GoNoGo3";;;;;;;;;;;;;;;;;;;;;;;;;;;;;;;;;;;;;;;;;;;;;;;"1243";"2014-10-16 22:21:48.404";"ST_correctStop";"35";"1";"FINISHED";"NONE";"success";"0";"1";"2014-10-16 22:21:47.154";"3";;;;;;;;;;;;;;;;;;;;;;;;;;;;;;;;;
"qwerty24";"1995";;"Windows 8";"Rachel's Experiment (D.T.)";"1.0";"2";"1";"1";"2";"1";"1";"2014-10-16 22:14:09.263";"2014-10-16 22:28:56.494";"1";"0";"1";"122";"121";"module.training_block3.exec-8263.GoNoGo3";;;;;;;;;;;;;;;;;;;;;;;;;;;;;;;;;;;;;;;;;;;;;;;"1250";"2014-10-16 22:21:50.933";"ST_correctStop";"21";"0";"FINISHED";"NONE";"success";"0";"1";"2014-10-16 22:21:49.675";"3";;;;;;;;;;;;;;;;;;;;;;;;;;;;;;;;;
"qwerty24";"1995";;"Windows 8";"Rachel's Experiment (D.T.)";"1.0";"2";"1";"1";"2";"1";"1";"2014-10-16 22:14:09.263";"2014-10-16 22:28:56.494";"1";"0";"1";"123";"122";"module.training_block3.exec-8263.GoNoGo3";;;;;;;;;;;;;;;;;;;;;;;;;;;;;;;;;;;;;;;;;;;;;;;"1243";"2014-10-16 22:21:53.453";"NST_correctLoc";"11";"1";"FINISHED";"RIGHT";"success";"768";"0";"2014-10-16 22:21:52.203";"2";;;;;;;;;;;;;;;;;;;;;;;;;;;;;;;;;
"qwerty24";"1995";;"Windows 8";"Rachel's Experiment (D.T.)";"1.0";"2";"1";"1";"2";"1";"1";"2014-10-16 22:14:09.263";"2014-10-16 22:28:56.494";"1";"0";"1";"124";"123";"module.training_block4.exec-6417.GoNoGo4";;;;;;;;;;;;;;;;;;;;;;;;;;;;;;;;;;;;;;;;;;;;;;;;;;;;;;;;;;;"1242";"2014-10-16 22:22:04.434";"ST_failedStop";"0";"0";"FINISHED";"LEFT";"failure";"368";"1";"2014-10-16 22:22:03.183";"1";;;;;;;;;;;;;;;;;;;;;
"qwerty24";"1995";;"Windows 8";"Rachel's Experiment (D.T.)";"1.0";"2";"1";"1";"2";"1";"1";"2014-10-16 22:14:09.263";"2014-10-16 22:28:56.494";"1";"0";"1";"125";"124";"module.training_block4.exec-6417.GoNoGo4";;;;;;;;;;;;;;;;;;;;;;;;;;;;;;;;;;;;;;;;;;;;;;;;;;;;;;;;;;;"1250";"2014-10-16 22:22:06.966";"ST_correctStop";"30";"0";"FINISHED";"NONE";"success";"0";"1";"2014-10-16 22:22:05.708";"3";;;;;;;;;;;;;;;;;;;;;
"qwerty24";"1995";;"Windows 8";"Rachel's Experiment (D.T.)";"1.0";"2";"1";"1";"2";"1";"1";"2014-10-16 22:14:09.263";"2014-10-16 22:28:56.494";"1";"0";"1";"126";"125";"module.training_block4.exec-6417.GoNoGo4";;;;;;;;;;;;;;;;;;;;;;;;;;;;;;;;;;;;;;;;;;;;;;;;;;;;;;;;;;;"1255";"2014-10-16 22:22:09.503";"NST_correctLoc";"28";"0";"FINISHED";"LEFT";"success";"455";"0";"2014-10-16 22:22:08.240";"3";;;;;;;;;;;;;;;;;;;;;
"qwerty24";"1995";;"Windows 8";"Rachel's Experiment (D.T.)";"1.0";"2";"1";"1";"2";"1";"1";"2014-10-16 22:14:09.263";"2014-10-16 22:28:56.494";"1";"0";"1";"127";"126";"module.training_block4.exec-6417.GoNoGo4";;;;;;;;;;;;;;;;;;;;;;;;;;;;;;;;;;;;;;;;;;;;;;;;;;;;;;;;;;;"1249";"2014-10-16 22:22:12.035";"NST_correctLoc";"32";"1";"FINISHED";"RIGHT";"success";"455";"0";"2014-10-16 22:22:10.776";"3";;;;;;;;;;;;;;;;;;;;;
"qwerty24";"1995";;"Windows 8";"Rachel's Experiment (D.T.)";"1.0";"2";"1";"1";"2";"1";"1";"2014-10-16 22:14:09.263";"2014-10-16 22:28:56.494";"1";"0";"1";"128";"127";"module.training_block4.exec-6417.GoNoGo4";;;;;;;;;;;;;;;;;;;;;;;;;;;;;;;;;;;;;;;;;;;;;;;;;;;;;;;;;;;"1243";"2014-10-16 22:22:14.559";"ST_failedStop";"1";"0";"FINISHED";"LEFT";"failure";"430";"1";"2014-10-16 22:22:13.308";"1";;;;;;;;;;;;;;;;;;;;;
"qwerty24";"1995";;"Windows 8";"Rachel's Experiment (D.T.)";"1.0";"2";"1";"1";"2";"1";"1";"2014-10-16 22:14:09.263";"2014-10-16 22:28:56.494";"1";"0";"1";"129";"128";"module.training_block4.exec-6417.GoNoGo4";;;;;;;;;;;;;;;;;;;;;;;;;;;;;;;;;;;;;;;;;;;;;;;;;;;;;;;;;;;"1251";"2014-10-16 22:22:17.091";"NST_correctLoc";"21";"1";"FINISHED";"RIGHT";"success";"670";"0";"2014-10-16 22:22:15.833";"3";;;;;;;;;;;;;;;;;;;;;
"qwerty24";"1995";;"Windows 8";"Rachel's Experiment (D.T.)";"1.0";"2";"1";"1";"2";"1";"1";"2014-10-16 22:14:09.263";"2014-10-16 22:28:56.494";"1";"0";"1";"130";"129";"module.training_block4.exec-6417.GoNoGo4";;;;;;;;;;;;;;;;;;;;;;;;;;;;;;;;;;;;;;;;;;;;;;;;;;;;;;;;;;;"1242";"2014-10-16 22:22:19.615";"ST_correctStop";"18";"0";"FINISHED";"NONE";"success";"0";"1";"2014-10-16 22:22:18.365";"3";;;;;;;;;;;;;;;;;;;;;
"qwerty24";"1995";;"Windows 8";"Rachel's Experiment (D.T.)";"1.0";"2";"1";"1";"2";"1";"1";"2014-10-16 22:14:09.263";"2014-10-16 22:28:56.494";"1";"0";"1";"131";"130";"module.training_block4.exec-6417.GoNoGo4";;;;;;;;;;;;;;;;;;;;;;;;;;;;;;;;;;;;;;;;;;;;;;;;;;;;;;;;;;;"1250";"2014-10-16 22:22:22.147";"NST_correctLoc";"13";"0";"FINISHED";"LEFT";"success";"443";"0";"2014-10-16 22:22:20.889";"2";;;;;;;;;;;;;;;;;;;;;
"qwerty24";"1995";;"Windows 8";"Rachel's Experiment (D.T.)";"1.0";"2";"1";"1";"2";"1";"1";"2014-10-16 22:14:09.263";"2014-10-16 22:28:56.494";"1";"0";"1";"132";"131";"module.training_block4.exec-6417.GoNoGo4";;;;;;;;;;;;;;;;;;;;;;;;;;;;;;;;;;;;;;;;;;;;;;;;;;;;;;;;;;;"1242";"2014-10-16 22:22:24.671";"ST_correctStop";"6";"0";"FINISHED";"NONE";"success";"0";"1";"2014-10-16 22:22:23.421";"1";;;;;;;;;;;;;;;;;;;;;
"qwerty24";"1995";;"Windows 8";"Rachel's Experiment (D.T.)";"1.0";"2";"1";"1";"2";"1";"1";"2014-10-16 22:14:09.263";"2014-10-16 22:28:56.494";"1";"0";"1";"133";"132";"module.training_block4.exec-6417.GoNoGo4";;;;;;;;;;;;;;;;;;;;;;;;;;;;;;;;;;;;;;;;;;;;;;;;;;;;;;;;;;;"1250";"2014-10-16 22:22:27.203";"NST_correctLoc";"9";"1";"FINISHED";"RIGHT";"success";"531";"0";"2014-10-16 22:22:25.945";"2";;;;;;;;;;;;;;;;;;;;;
"qwerty24";"1995";;"Windows 8";"Rachel's Experiment (D.T.)";"1.0";"2";"1";"1";"2";"1";"1";"2014-10-16 22:14:09.263";"2014-10-16 22:28:56.494";"1";"0";"1";"134";"133";"module.training_block4.exec-6417.GoNoGo4";;;;;;;;;;;;;;;;;;;;;;;;;;;;;;;;;;;;;;;;;;;;;;;;;;;;;;;;;;;"1243";"2014-10-16 22:22:29.728";"ST_correctStop";"31";"1";"FINISHED";"NONE";"success";"0";"1";"2014-10-16 22:22:28.477";"3";;;;;;;;;;;;;;;;;;;;;
"qwerty24";"1995";;"Windows 8";"Rachel's Experiment (D.T.)";"1.0";"2";"1";"1";"2";"1";"1";"2014-10-16 22:14:09.263";"2014-10-16 22:28:56.494";"1";"0";"1";"135";"134";"module.training_block4.exec-6417.GoNoGo4";;;;;;;;;;;;;;;;;;;;;;;;;;;;;;;;;;;;;;;;;;;;;;;;;;;;;;;;;;;"1250";"2014-10-16 22:22:32.260";"ST_correctStop";"4";"1";"FINISHED";"NONE";"success";"0";"1";"2014-10-16 22:22:31.001";"1";;;;;;;;;;;;;;;;;;;;;
"qwerty24";"1995";;"Windows 8";"Rachel's Experiment (D.T.)";"1.0";"2";"1";"1";"2";"1";"1";"2014-10-16 22:14:09.263";"2014-10-16 22:28:56.494";"1";"0";"1";"136";"135";"module.training_block4.exec-6417.GoNoGo4";;;;;;;;;;;;;;;;;;;;;;;;;;;;;;;;;;;;;;;;;;;;;;;;;;;;;;;;;;;"1254";"2014-10-16 22:22:34.796";"NST_correctLoc";"16";"1";"FINISHED";"RIGHT";"success";"403";"0";"2014-10-16 22:22:33.533";"2";;;;;;;;;;;;;;;;;;;;;
"qwerty24";"1995";;"Windows 8";"Rachel's Experiment (D.T.)";"1.0";"2";"1";"1";"2";"1";"1";"2014-10-16 22:14:09.263";"2014-10-16 22:28:56.494";"1";"0";"1";"137";"136";"module.training_block4.exec-6417.GoNoGo4";;;;;;;;;;;;;;;;;;;;;;;;;;;;;;;;;;;;;;;;;;;;;;;;;;;;;;;;;;;"1250";"2014-10-16 22:22:37.327";"ST_correctStop";"3";"1";"FINISHED";"NONE";"success";"0";"1";"2014-10-16 22:22:36.069";"1";;;;;;;;;;;;;;;;;;;;;
"qwerty24";"1995";;"Windows 8";"Rachel's Experiment (D.T.)";"1.0";"2";"1";"1";"2";"1";"1";"2014-10-16 22:14:09.263";"2014-10-16 22:28:56.494";"1";"0";"1";"138";"137";"module.training_block4.exec-6417.GoNoGo4";;;;;;;;;;;;;;;;;;;;;;;;;;;;;;;;;;;;;;;;;;;;;;;;;;;;;;;;;;;"1242";"2014-10-16 22:22:39.852";"ST_correctStop";"7";"0";"FINISHED";"NONE";"success";"0";"1";"2014-10-16 22:22:38.601";"1";;;;;;;;;;;;;;;;;;;;;
"qwerty24";"1995";;"Windows 8";"Rachel's Experiment (D.T.)";"1.0";"2";"1";"1";"2";"1";"1";"2014-10-16 22:14:09.263";"2014-10-16 22:28:56.494";"1";"0";"1";"139";"138";"module.training_block4.exec-6417.GoNoGo4";;;;;;;;;;;;;;;;;;;;;;;;;;;;;;;;;;;;;;;;;;;;;;;;;;;;;;;;;;;"1249";"2014-10-16 22:22:42.384";"NST_wrongLoc";"15";"1";"FINISHED";"LEFT";"failure";"585";"0";"2014-10-16 22:22:41.125";"2";;;;;;;;;;;;;;;;;;;;;
"qwerty24";"1995";;"Windows 8";"Rachel's Experiment (D.T.)";"1.0";"2";"1";"1";"2";"1";"1";"2014-10-16 22:14:09.263";"2014-10-16 22:28:56.494";"1";"0";"1";"140";"139";"module.training_block4.exec-6417.GoNoGo4";;;;;;;;;;;;;;;;;;;;;;;;;;;;;;;;;;;;;;;;;;;;;;;;;;;;;;;;;;;"1242";"2014-10-16 22:22:44.908";"NST_correctLoc";"35";"0";"FINISHED";"LEFT";"success";"541";"0";"2014-10-16 22:22:43.657";"3";;;;;;;;;;;;;;;;;;;;;
"qwerty24";"1995";;"Windows 8";"Rachel's Experiment (D.T.)";"1.0";"2";"1";"1";"2";"1";"1";"2014-10-16 22:14:09.263";"2014-10-16 22:28:56.494";"1";"0";"1";"141";"140";"module.training_block4.exec-6417.GoNoGo4";;;;;;;;;;;;;;;;;;;;;;;;;;;;;;;;;;;;;;;;;;;;;;;;;;;;;;;;;;;"1250";"2014-10-16 22:22:47.440";"ST_correctStop";"2";"1";"FINISHED";"NONE";"success";"0";"1";"2014-10-16 22:22:46.182";"1";;;;;;;;;;;;;;;;;;;;;
"qwerty24";"1995";;"Windows 8";"Rachel's Experiment (D.T.)";"1.0";"2";"1";"1";"2";"1";"1";"2014-10-16 22:14:09.263";"2014-10-16 22:28:56.494";"1";"0";"1";"142";"141";"module.training_block4.exec-6417.GoNoGo4";;;;;;;;;;;;;;;;;;;;;;;;;;;;;;;;;;;;;;;;;;;;;;;;;;;;;;;;;;;"1243";"2014-10-16 22:22:49.964";"ST_correctStop";"5";"0";"FINISHED";"NONE";"success";"0";"1";"2014-10-16 22:22:48.714";"1";;;;;;;;;;;;;;;;;;;;;
"qwerty24";"1995";;"Windows 8";"Rachel's Experiment (D.T.)";"1.0";"2";"1";"1";"2";"1";"1";"2014-10-16 22:14:09.263";"2014-10-16 22:28:56.494";"1";"0";"1";"143";"142";"module.training_block4.exec-6417.GoNoGo4";;;;;;;;;;;;;;;;;;;;;;;;;;;;;;;;;;;;;;;;;;;;;;;;;;;;;;;;;;;"1250";"2014-10-16 22:22:52.496";"ST_correctStop";"8";"0";"FINISHED";"NONE";"success";"0";"1";"2014-10-16 22:22:51.238";"1";;;;;;;;;;;;;;;;;;;;;
"qwerty24";"1995";;"Windows 8";"Rachel's Experiment (D.T.)";"1.0";"2";"1";"1";"2";"1";"1";"2014-10-16 22:14:09.263";"2014-10-16 22:28:56.494";"1";"0";"1";"144";"143";"module.training_block4.exec-6417.GoNoGo4";;;;;;;;;;;;;;;;;;;;;;;;;;;;;;;;;;;;;;;;;;;;;;;;;;;;;;;;;;;"1258";"2014-10-16 22:22:55.036";"ST_correctStop";"26";"1";"FINISHED";"NONE";"success";"0";"1";"2014-10-16 22:22:53.778";"3";;;;;;;;;;;;;;;;;;;;;
"qwerty24";"1995";;"Windows 8";"Rachel's Experiment (D.T.)";"1.0";"2";"1";"1";"2";"1";"1";"2014-10-16 22:14:09.263";"2014-10-16 22:28:56.494";"1";"0";"1";"145";"144";"module.training_block4.exec-6417.GoNoGo4";;;;;;;;;;;;;;;;;;;;;;;;;;;;;;;;;;;;;;;;;;;;;;;;;;;;;;;;;;;"1250";"2014-10-16 22:22:57.568";"NST_correctLoc";"10";"0";"FINISHED";"LEFT";"success";"483";"0";"2014-10-16 22:22:56.310";"2";;;;;;;;;;;;;;;;;;;;;
"qwerty24";"1995";;"Windows 8";"Rachel's Experiment (D.T.)";"1.0";"2";"1";"1";"2";"1";"1";"2014-10-16 22:14:09.263";"2014-10-16 22:28:56.494";"1";"0";"1";"146";"145";"module.training_block4.exec-6417.GoNoGo4";;;;;;;;;;;;;;;;;;;;;;;;;;;;;;;;;;;;;;;;;;;;;;;;;;;;;;;;;;;"1250";"2014-10-16 22:23:00.092";"ST_correctStop";"34";"1";"FINISHED";"NONE";"success";"0";"1";"2014-10-16 22:22:58.834";"3";;;;;;;;;;;;;;;;;;;;;
"qwerty24";"1995";;"Windows 8";"Rachel's Experiment (D.T.)";"1.0";"2";"1";"1";"2";"1";"1";"2014-10-16 22:14:09.263";"2014-10-16 22:28:56.494";"1";"0";"1";"147";"146";"module.training_block4.exec-6417.GoNoGo4";;;;;;;;;;;;;;;;;;;;;;;;;;;;;;;;;;;;;;;;;;;;;;;;;;;;;;;;;;;"1250";"2014-10-16 22:23:02.624";"ST_correctStop";"33";"1";"FINISHED";"NONE";"success";"0";"1";"2014-10-16 22:23:01.366";"3";;;;;;;;;;;;;;;;;;;;;
"qwerty24";"1995";;"Windows 8";"Rachel's Experiment (D.T.)";"1.0";"2";"1";"1";"2";"1";"1";"2014-10-16 22:14:09.263";"2014-10-16 22:28:56.494";"1";"0";"1";"148";"147";"module.training_block4.exec-6417.GoNoGo4";;;;;;;;;;;;;;;;;;;;;;;;;;;;;;;;;;;;;;;;;;;;;;;;;;;;;;;;;;;"1250";"2014-10-16 22:23:05.148";"NST_correctLoc";"23";"1";"FINISHED";"RIGHT";"success";"1127";"0";"2014-10-16 22:23:03.890";"3";;;;;;;;;;;;;;;;;;;;;
"qwerty24";"1995";;"Windows 8";"Rachel's Experiment (D.T.)";"1.0";"2";"1";"1";"2";"1";"1";"2014-10-16 22:14:09.263";"2014-10-16 22:28:56.494";"1";"0";"1";"149";"148";"module.training_block4.exec-6417.GoNoGo4";;;;;;;;;;;;;;;;;;;;;;;;;;;;;;;;;;;;;;;;;;;;;;;;;;;;;;;;;;;"1250";"2014-10-16 22:23:07.680";"ST_correctStop";"22";"1";"FINISHED";"NONE";"success";"0";"1";"2014-10-16 22:23:06.422";"3";;;;;;;;;;;;;;;;;;;;;
"qwerty24";"1995";;"Windows 8";"Rachel's Experiment (D.T.)";"1.0";"2";"1";"1";"2";"1";"1";"2014-10-16 22:14:09.263";"2014-10-16 22:28:56.494";"1";"0";"1";"150";"149";"module.training_block4.exec-6417.GoNoGo4";;;;;;;;;;;;;;;;;;;;;;;;;;;;;;;;;;;;;;;;;;;;;;;;;;;;;;;;;;;"1250";"2014-10-16 22:23:10.205";"NST_correctLoc";"12";"1";"FINISHED";"RIGHT";"success";"482";"0";"2014-10-16 22:23:08.946";"2";;;;;;;;;;;;;;;;;;;;;
"qwerty24";"1995";;"Windows 8";"Rachel's Experiment (D.T.)";"1.0";"2";"1";"1";"2";"1";"1";"2014-10-16 22:14:09.263";"2014-10-16 22:28:56.494";"1";"0";"1";"151";"150";"module.training_block4.exec-6417.GoNoGo4";;;;;;;;;;;;;;;;;;;;;;;;;;;;;;;;;;;;;;;;;;;;;;;;;;;;;;;;;;;"1249";"2014-10-16 22:23:12.736";"NST_correctLoc";"14";"0";"FINISHED";"LEFT";"success";"437";"0";"2014-10-16 22:23:11.478";"2";;;;;;;;;;;;;;;;;;;;;
"qwerty24";"1995";;"Windows 8";"Rachel's Experiment (D.T.)";"1.0";"2";"1";"1";"2";"1";"1";"2014-10-16 22:14:09.263";"2014-10-16 22:28:56.494";"1";"0";"1";"152";"151";"module.training_block4.exec-6417.GoNoGo4";;;;;;;;;;;;;;;;;;;;;;;;;;;;;;;;;;;;;;;;;;;;;;;;;;;;;;;;;;;"1250";"2014-10-16 22:23:15.261";"NST_correctLoc";"11";"1";"FINISHED";"RIGHT";"success";"409";"0";"2014-10-16 22:23:14.003";"2";;;;;;;;;;;;;;;;;;;;;
"qwerty24";"1995";;"Windows 8";"Rachel's Experiment (D.T.)";"1.0";"2";"1";"1";"2";"1";"1";"2014-10-16 22:14:09.263";"2014-10-16 22:28:56.494";"1";"0";"1";"153";"152";"module.training_block4.exec-6417.GoNoGo4";;;;;;;;;;;;;;;;;;;;;;;;;;;;;;;;;;;;;;;;;;;;;;;;;;;;;;;;;;;"1250";"2014-10-16 22:23:17.793";"NST_correctLoc";"17";"1";"FINISHED";"RIGHT";"success";"404";"0";"2014-10-16 22:23:16.534";"2";;;;;;;;;;;;;;;;;;;;;
"qwerty24";"1995";;"Windows 8";"Rachel's Experiment (D.T.)";"1.0";"2";"1";"1";"2";"1";"1";"2014-10-16 22:14:09.263";"2014-10-16 22:28:56.494";"1";"0";"1";"154";"153";"module.training_block4.exec-6417.GoNoGo4";;;;;;;;;;;;;;;;;;;;;;;;;;;;;;;;;;;;;;;;;;;;;;;;;;;;;;;;;;;"1250";"2014-10-16 22:23:20.318";"ST_failedStop";"20";"1";"FINISHED";"RIGHT";"failure";"389";"1";"2014-10-16 22:23:19.060";"3";;;;;;;;;;;;;;;;;;;;;
"qwerty24";"1995";;"Windows 8";"Rachel's Experiment (D.T.)";"1.0";"2";"1";"1";"2";"1";"1";"2014-10-16 22:14:09.263";"2014-10-16 22:28:56.494";"1";"0";"1";"155";"154";"module.training_block4.exec-6417.GoNoGo4";;;;;;;;;;;;;;;;;;;;;;;;;;;;;;;;;;;;;;;;;;;;;;;;;;;;;;;;;;;"1249";"2014-10-16 22:23:22.850";"NST_correctLoc";"25";"0";"FINISHED";"LEFT";"success";"405";"0";"2014-10-16 22:23:21.591";"3";;;;;;;;;;;;;;;;;;;;;
"qwerty24";"1995";;"Windows 8";"Rachel's Experiment (D.T.)";"1.0";"2";"1";"1";"2";"1";"1";"2014-10-16 22:14:09.263";"2014-10-16 22:28:56.494";"1";"0";"1";"156";"155";"module.training_block4.exec-6417.GoNoGo4";;;;;;;;;;;;;;;;;;;;;;;;;;;;;;;;;;;;;;;;;;;;;;;;;;;;;;;;;;;"1250";"2014-10-16 22:23:25.387";"NST_correctLoc";"29";"1";"FINISHED";"RIGHT";"success";"477";"0";"2014-10-16 22:23:24.129";"3";;;;;;;;;;;;;;;;;;;;;
"qwerty24";"1995";;"Windows 8";"Rachel's Experiment (D.T.)";"1.0";"2";"1";"1";"2";"1";"1";"2014-10-16 22:14:09.263";"2014-10-16 22:28:56.494";"1";"0";"1";"157";"156";"module.training_block4.exec-6417.GoNoGo4";;;;;;;;;;;;;;;;;;;;;;;;;;;;;;;;;;;;;;;;;;;;;;;;;;;;;;;;;;;"1250";"2014-10-16 22:23:27.919";"NST_correctLoc";"24";"1";"FINISHED";"RIGHT";"success";"426";"0";"2014-10-16 22:23:26.661";"3";;;;;;;;;;;;;;;;;;;;;
"qwerty24";"1995";;"Windows 8";"Rachel's Experiment (D.T.)";"1.0";"2";"1";"1";"2";"1";"1";"2014-10-16 22:14:09.263";"2014-10-16 22:28:56.494";"1";"0";"1";"158";"157";"module.training_block4.exec-6417.GoNoGo4";;;;;;;;;;;;;;;;;;;;;;;;;;;;;;;;;;;;;;;;;;;;;;;;;;;;;;;;;;;"1246";"2014-10-16 22:23:30.439";"NST_correctLoc";"27";"1";"FINISHED";"RIGHT";"success";"367";"0";"2014-10-16 22:23:29.185";"3";;;;;;;;;;;;;;;;;;;;;
"qwerty24";"1995";;"Windows 8";"Rachel's Experiment (D.T.)";"1.0";"2";"1";"1";"2";"1";"1";"2014-10-16 22:14:09.263";"2014-10-16 22:28:56.494";"1";"0";"1";"159";"158";"module.training_block4.exec-6417.GoNoGo4";;;;;;;;;;;;;;;;;;;;;;;;;;;;;;;;;;;;;;;;;;;;;;;;;;;;;;;;;;;"1249";"2014-10-16 22:23:32.967";"ST_correctStop";"19";"1";"FINISHED";"NONE";"success";"0";"1";"2014-10-16 22:23:31.709";"3";;;;;;;;;;;;;;;;;;;;;
"qwerty24";"1995";;"Windows 8";"Rachel's Experiment (D.T.)";"1.0";"2";"1";"1";"2";"1";"1";"2014-10-16 22:14:09.263";"2014-10-16 22:28:56.494";"1";"0";"1";"160";"159";"module.devaluation_practice.exec-4858.devalPractice";;;;;;;;;;;;"16456";"2014-10-16 22:24:25.060";"0";"4";"7";"6";"5918";"3177";"4303";"2014-10-16 22:24:08.600";;;;;;;;;;;;;;;;;;;;;;;;;;;;;;;;;;;;;;;;;;;;;;;;;;;;;;;;;;;;;;;;;;;;;;
"qwerty24";"1995";;"Windows 8";"Rachel's Experiment (D.T.)";"1.0";"2";"1";"1";"2";"1";"1";"2014-10-16 22:14:09.263";"2014-10-16 22:28:56.494";"1";"0";"1";"161";"160";"module.devaluation_practice.exec-4858.devalPractice";;;;;;;;;;;;"11401";"2014-10-16 22:24:36.493";"1";"8";"9";"9";"2010";"2835";"3531";"2014-10-16 22:24:25.091";;;;;;;;;;;;;;;;;;;;;;;;;;;;;;;;;;;;;;;;;;;;;;;;;;;;;;;;;;;;;;;;;;;;;;
"qwerty24";"1995";;"Windows 8";"Rachel's Experiment (D.T.)";"1.0";"2";"1";"1";"2";"1";"1";"2014-10-16 22:14:09.263";"2014-10-16 22:28:56.494";"1";"0";"1";"162";"161";"module.devaluation_practice.exec-4858.devalPractice";;;;;;;;;;;;"12549";"2014-10-16 22:24:49.066";"2";"5";"1";"6";"3402";"2624";"3505";"2014-10-16 22:24:36.524";;;;;;;;;;;;;;;;;;;;;;;;;;;;;;;;;;;;;;;;;;;;;;;;;;;;;;;;;;;;;;;;;;;;;;
"qwerty24";"1995";;"Windows 8";"Rachel's Experiment (D.T.)";"1.0";"2";"1";"1";"2";"1";"1";"2014-10-16 22:14:09.263";"2014-10-16 22:28:56.494";"1";"0";"1";"163";"162";"module.devaluation_practice.exec-4858.devalPractice";;;;;;;;;;;;"14645";"2014-10-16 22:25:03.742";"3";"3";"1";"1";"5904";"2004";"3723";"2014-10-16 22:24:49.097";;;;;;;;;;;;;;;;;;;;;;;;;;;;;;;;;;;;;;;;;;;;;;;;;;;;;;;;;;;;;;;;;;;;;;
"qwerty24";"1995";;"Windows 8";"Rachel's Experiment (D.T.)";"1.0";"2";"1";"1";"2";"1";"1";"2014-10-16 22:14:09.263";"2014-10-16 22:28:56.494";"1";"0";"1";"164";"163";"module.devaluation_block1.exec-2920.deval1";"9136";"2014-10-16 22:25:17.668";"17";"1";"1";"1";"1544";"2592";"1967";"2014-10-16 22:25:08.532";"2";;;;;;;;;;;;;;;;;;;;;;;;;;;;;;;;;;;;;;;;;;;;;;;;;;;;;;;;;;;;;;;;;;;;;;;;;;;;;;;;
"qwerty24";"1995";;"Windows 8";"Rachel's Experiment (D.T.)";"1.0";"2";"1";"1";"2";"1";"1";"2014-10-16 22:14:09.263";"2014-10-16 22:28:56.494";"1";"0";"1";"165";"164";"module.devaluation_block1.exec-2920.deval1";"8220";"2014-10-16 22:25:25.916";"23";"7";"7";"5";"1397";"3114";"674";"2014-10-16 22:25:17.699";"3";;;;;;;;;;;;;;;;;;;;;;;;;;;;;;;;;;;;;;;;;;;;;;;;;;;;;;;;;;;;;;;;;;;;;;;;;;;;;;;;
"qwerty24";"1995";;"Windows 8";"Rachel's Experiment (D.T.)";"1.0";"2";"1";"1";"2";"1";"1";"2014-10-16 22:14:09.263";"2014-10-16 22:28:56.494";"1";"0";"1";"166";"165";"module.devaluation_block1.exec-2920.deval1";"8971";"2014-10-16 22:25:34.927";"14";"7";"7";"7";"2009";"1607";"2319";"2014-10-16 22:25:25.948";"2";;;;;;;;;;;;;;;;;;;;;;;;;;;;;;;;;;;;;;;;;;;;;;;;;;;;;;;;;;;;;;;;;;;;;;;;;;;;;;;;
"qwerty24";"1995";;"Windows 8";"Rachel's Experiment (D.T.)";"1.0";"2";"1";"1";"2";"1";"1";"2014-10-16 22:14:09.263";"2014-10-16 22:28:56.494";"1";"0";"1";"167";"166";"module.devaluation_block1.exec-2920.deval1";"9297";"2014-10-16 22:25:44.242";"8";"5";"9";"9";"1492";"2401";"2370";"2014-10-16 22:25:34.958";"1";;;;;;;;;;;;;;;;;;;;;;;;;;;;;;;;;;;;;;;;;;;;;;;;;;;;;;;;;;;;;;;;;;;;;;;;;;;;;;;;
"qwerty24";"1995";;"Windows 8";"Rachel's Experiment (D.T.)";"1.0";"2";"1";"1";"2";"1";"1";"2014-10-16 22:14:09.263";"2014-10-16 22:28:56.494";"1";"0";"1";"168";"167";"module.devaluation_block1.exec-2920.deval1";"8008";"2014-10-16 22:25:52.292";"22";"9";"9";"9";"2252";"1306";"1441";"2014-10-16 22:25:44.274";"3";;;;;;;;;;;;;;;;;;;;;;;;;;;;;;;;;;;;;;;;;;;;;;;;;;;;;;;;;;;;;;;;;;;;;;;;;;;;;;;;
"qwerty24";"1995";;"Windows 8";"Rachel's Experiment (D.T.)";"1.0";"2";"1";"1";"2";"1";"1";"2014-10-16 22:14:09.263";"2014-10-16 22:28:56.494";"1";"0";"1";"169";"168";"module.devaluation_block1.exec-2920.deval1";"8982";"2014-10-16 22:26:01.302";"9";"4";"4";"6";"2741";"1704";"1500";"2014-10-16 22:25:52.323";"2";;;;;;;;;;;;;;;;;;;;;;;;;;;;;;;;;;;;;;;;;;;;;;;;;;;;;;;;;;;;;;;;;;;;;;;;;;;;;;;;
"qwerty24";"1995";;"Windows 8";"Rachel's Experiment (D.T.)";"1.0";"2";"1";"1";"2";"1";"1";"2014-10-16 22:14:09.263";"2014-10-16 22:28:56.494";"1";"0";"1";"170";"169";"module.devaluation_block1.exec-2920.deval1";"11820";"2014-10-16 22:26:13.158";"15";"2";"5";"7";"2622";"4200";"1978";"2014-10-16 22:26:01.333";"2";;;;;;;;;;;;;;;;;;;;;;;;;;;;;;;;;;;;;;;;;;;;;;;;;;;;;;;;;;;;;;;;;;;;;;;;;;;;;;;;
"qwerty24";"1995";;"Windows 8";"Rachel's Experiment (D.T.)";"1.0";"2";"1";"1";"2";"1";"1";"2014-10-16 22:14:09.263";"2014-10-16 22:28:56.494";"1";"0";"1";"171";"170";"module.devaluation_block1.exec-2920.deval1";"8010";"2014-10-16 22:26:21.204";"7";"9";"9";"9";"2101";"1406";"1476";"2014-10-16 22:26:13.189";"1";;;;;;;;;;;;;;;;;;;;;;;;;;;;;;;;;;;;;;;;;;;;;;;;;;;;;;;;;;;;;;;;;;;;;;;;;;;;;;;;
"qwerty24";"1995";;"Windows 8";"Rachel's Experiment (D.T.)";"1.0";"2";"1";"1";"2";"1";"1";"2014-10-16 22:14:09.263";"2014-10-16 22:28:56.494";"1";"0";"1";"172";"171";"module.devaluation_block1.exec-2920.deval1";"8168";"2014-10-16 22:26:29.394";"0";"7";"6";"8";"939";"1821";"2366";"2014-10-16 22:26:21.235";"1";;;;;;;;;;;;;;;;;;;;;;;;;;;;;;;;;;;;;;;;;;;;;;;;;;;;;;;;;;;;;;;;;;;;;;;;;;;;;;;;
"qwerty24";"1995";;"Windows 8";"Rachel's Experiment (D.T.)";"1.0";"2";"1";"1";"2";"1";"1";"2014-10-16 22:14:09.263";"2014-10-16 22:28:56.494";"1";"0";"1";"173";"172";"module.devaluation_block1.exec-2920.deval1";"9596";"2014-10-16 22:26:39.022";"24";"8";"8";"8";"3315";"1040";"2234";"2014-10-16 22:26:29.425";"3";;;;;;;;;;;;;;;;;;;;;;;;;;;;;;;;;;;;;;;;;;;;;;;;;;;;;;;;;;;;;;;;;;;;;;;;;;;;;;;;
"qwerty24";"1995";;"Windows 8";"Rachel's Experiment (D.T.)";"1.0";"2";"1";"1";"2";"1";"1";"2014-10-16 22:14:09.263";"2014-10-16 22:28:56.494";"1";"0";"1";"174";"173";"module.devaluation_block1.exec-2920.deval1";"9160";"2014-10-16 22:26:48.220";"20";"6";"1";"3";"2148";"1502";"2481";"2014-10-16 22:26:39.053";"3";;;;;;;;;;;;;;;;;;;;;;;;;;;;;;;;;;;;;;;;;;;;;;;;;;;;;;;;;;;;;;;;;;;;;;;;;;;;;;;;
"qwerty24";"1995";;"Windows 8";"Rachel's Experiment (D.T.)";"1.0";"2";"1";"1";"2";"1";"1";"2014-10-16 22:14:09.263";"2014-10-16 22:28:56.494";"1";"0";"1";"175";"174";"module.devaluation_block1.exec-2920.deval1";"9254";"2014-10-16 22:26:57.497";"26";"8";"6";"9";"3384";"996";"1848";"2014-10-16 22:26:48.251";"3";;;;;;;;;;;;;;;;;;;;;;;;;;;;;;;;;;;;;;;;;;;;;;;;;;;;;;;;;;;;;;;;;;;;;;;;;;;;;;;;
"qwerty24";"1995";;"Windows 8";"Rachel's Experiment (D.T.)";"1.0";"2";"1";"1";"2";"1";"1";"2014-10-16 22:14:09.263";"2014-10-16 22:28:56.494";"1";"0";"1";"176";"175";"module.devaluation_block1.exec-2920.deval1";"7947";"2014-10-16 22:27:05.477";"4";"9";"9";"9";"1557";"1587";"1784";"2014-10-16 22:26:57.528";"1";;;;;;;;;;;;;;;;;;;;;;;;;;;;;;;;;;;;;;;;;;;;;;;;;;;;;;;;;;;;;;;;;;;;;;;;;;;;;;;;
"qwerty24";"1995";;"Windows 8";"Rachel's Experiment (D.T.)";"1.0";"2";"1";"1";"2";"1";"1";"2014-10-16 22:14:09.263";"2014-10-16 22:28:56.494";"1";"0";"1";"177";"176";"module.devaluation_block1.exec-2920.deval1";"8343";"2014-10-16 22:27:13.862";"1";"6";"9";"7";"1665";"1554";"2104";"2014-10-16 22:27:05.508";"1";;;;;;;;;;;;;;;;;;;;;;;;;;;;;;;;;;;;;;;;;;;;;;;;;;;;;;;;;;;;;;;;;;;;;;;;;;;;;;;;
"qwerty24";"1995";;"Windows 8";"Rachel's Experiment (D.T.)";"1.0";"2";"1";"1";"2";"1";"1";"2014-10-16 22:14:09.263";"2014-10-16 22:28:56.494";"1";"0";"1";"178";"177";"module.devaluation_block1.exec-2920.deval1";"9090";"2014-10-16 22:27:22.978";"2";"5";"2";"6";"3057";"1064";"1937";"2014-10-16 22:27:13.893";"1";;;;;;;;;;;;;;;;;;;;;;;;;;;;;;;;;;;;;;;;;;;;;;;;;;;;;;;;;;;;;;;;;;;;;;;;;;;;;;;;
"qwerty24";"1995";;"Windows 8";"Rachel's Experiment (D.T.)";"1.0";"2";"1";"1";"2";"1";"1";"2014-10-16 22:14:09.263";"2014-10-16 22:28:56.494";"1";"0";"1";"179";"178";"module.devaluation_block1.exec-2920.deval1";"7160";"2014-10-16 22:27:30.176";"18";"3";"1";"3";"1056";"1222";"1869";"2014-10-16 22:27:23.009";"3";;;;;;;;;;;;;;;;;;;;;;;;;;;;;;;;;;;;;;;;;;;;;;;;;;;;;;;;;;;;;;;;;;;;;;;;;;;;;;;;
"qwerty24";"1995";;"Windows 8";"Rachel's Experiment (D.T.)";"1.0";"2";"1";"1";"2";"1";"1";"2014-10-16 22:14:09.263";"2014-10-16 22:28:56.494";"1";"0";"1";"180";"179";"module.devaluation_block1.exec-2920.deval1";"6305";"2014-10-16 22:27:36.506";"13";"7";"5";"8";"1625";"402";"1240";"2014-10-16 22:27:30.207";"2";;;;;;;;;;;;;;;;;;;;;;;;;;;;;;;;;;;;;;;;;;;;;;;;;;;;;;;;;;;;;;;;;;;;;;;;;;;;;;;;
"qwerty24";"1995";;"Windows 8";"Rachel's Experiment (D.T.)";"1.0";"2";"1";"1";"2";"1";"1";"2014-10-16 22:14:09.263";"2014-10-16 22:28:56.494";"1";"0";"1";"181";"180";"module.devaluation_block1.exec-2920.deval1";"8459";"2014-10-16 22:27:44.989";"10";"7";"7";"6";"1875";"1278";"2298";"2014-10-16 22:27:36.537";"2";;;;;;;;;;;;;;;;;;;;;;;;;;;;;;;;;;;;;;;;;;;;;;;;;;;;;;;;;;;;;;;;;;;;;;;;;;;;;;;;
"qwerty24";"1995";;"Windows 8";"Rachel's Experiment (D.T.)";"1.0";"2";"1";"1";"2";"1";"1";"2014-10-16 22:14:09.263";"2014-10-16 22:28:56.494";"1";"0";"1";"182";"181";"module.devaluation_block1.exec-2920.deval1";"7047";"2014-10-16 22:27:52.077";"5";"9";"9";"9";"1313";"1219";"1507";"2014-10-16 22:27:45.021";"1";;;;;;;;;;;;;;;;;;;;;;;;;;;;;;;;;;;;;;;;;;;;;;;;;;;;;;;;;;;;;;;;;;;;;;;;;;;;;;;;
"qwerty24";"1995";;"Windows 8";"Rachel's Experiment (D.T.)";"1.0";"2";"1";"1";"2";"1";"1";"2014-10-16 22:14:09.263";"2014-10-16 22:28:56.494";"1";"0";"1";"183";"182";"module.devaluation_block1.exec-2920.deval1";"7252";"2014-10-16 22:27:59.362";"11";"3";"1";"1";"1309";"1443";"1481";"2014-10-16 22:27:52.109";"2";;;;;;;;;;;;;;;;;;;;;;;;;;;;;;;;;;;;;;;;;;;;;;;;;;;;;;;;;;;;;;;;;;;;;;;;;;;;;;;;
"qwerty24";"1995";;"Windows 8";"Rachel's Experiment (D.T.)";"1.0";"2";"1";"1";"2";"1";"1";"2014-10-16 22:14:09.263";"2014-10-16 22:28:56.494";"1";"0";"1";"184";"183";"module.devaluation_block1.exec-2920.deval1";"10004";"2014-10-16 22:28:09.393";"16";"4";"1";"3";"2536";"2072";"2359";"2014-10-16 22:27:59.393";"2";;;;;;;;;;;;;;;;;;;;;;;;;;;;;;;;;;;;;;;;;;;;;;;;;;;;;;;;;;;;;;;;;;;;;;;;;;;;;;;;
"qwerty24";"1995";;"Windows 8";"Rachel's Experiment (D.T.)";"1.0";"2";"1";"1";"2";"1";"1";"2014-10-16 22:14:09.263";"2014-10-16 22:28:56.494";"1";"0";"1";"185";"184";"module.devaluation_block1.exec-2920.deval1";"8889";"2014-10-16 22:28:18.313";"21";"8";"9";"9";"2556";"2025";"1280";"2014-10-16 22:28:09.424";"3";;;;;;;;;;;;;;;;;;;;;;;;;;;;;;;;;;;;;;;;;;;;;;;;;;;;;;;;;;;;;;;;;;;;;;;;;;;;;;;;
"qwerty24";"1995";;"Windows 8";"Rachel's Experiment (D.T.)";"1.0";"2";"1";"1";"2";"1";"1";"2014-10-16 22:14:09.263";"2014-10-16 22:28:56.494";"1";"0";"1";"186";"185";"module.devaluation_block1.exec-2920.deval1";"7030";"2014-10-16 22:28:25.370";"12";"9";"9";"9";"1516";"1195";"1287";"2014-10-16 22:28:18.337";"2";;;;;;;;;;;;;;;;;;;;;;;;;;;;;;;;;;;;;;;;;;;;;;;;;;;;;;;;;;;;;;;;;;;;;;;;;;;;;;;;
"qwerty24";"1995";;"Windows 8";"Rachel's Experiment (D.T.)";"1.0";"2";"1";"1";"2";"1";"1";"2014-10-16 22:14:09.263";"2014-10-16 22:28:56.494";"1";"0";"1";"187";"186";"module.devaluation_block1.exec-2920.deval1";"7076";"2014-10-16 22:28:32.482";"6";"6";"4";"4";"1265";"550";"2228";"2014-10-16 22:28:25.409";"1";;;;;;;;;;;;;;;;;;;;;;;;;;;;;;;;;;;;;;;;;;;;;;;;;;;;;;;;;;;;;;;;;;;;;;;;;;;;;;;;
"qwerty24";"1995";;"Windows 8";"Rachel's Experiment (D.T.)";"1.0";"2";"1";"1";"2";"1";"1";"2014-10-16 22:14:09.263";"2014-10-16 22:28:56.494";"1";"0";"1";"188";"187";"module.devaluation_block1.exec-2920.deval1";"7123";"2014-10-16 22:28:39.633";"19";"9";"9";"9";"1728";"1187";"1185";"2014-10-16 22:28:32.513";"3";;;;;;;;;;;;;;;;;;;;;;;;;;;;;;;;;;;;;;;;;;;;;;;;;;;;;;;;;;;;;;;;;;;;;;;;;;;;;;;;
"qwerty24";"1995";;"Windows 8";"Rachel's Experiment (D.T.)";"1.0";"2";"1";"1";"2";"1";"1";"2014-10-16 22:14:09.263";"2014-10-16 22:28:56.494";"1";"0";"1";"189";"188";"module.devaluation_block1.exec-2920.deval1";"6306";"2014-10-16 22:28:45.979";"25";"3";"1";"3";"821";"1390";"1060";"2014-10-16 22:28:39.664";"3";;;;;;;;;;;;;;;;;;;;;;;;;;;;;;;;;;;;;;;;;;;;;;;;;;;;;;;;;;;;;;;;;;;;;;;;;;;;;;;;
"qwerty24";"1995";;"Windows 8";"Rachel's Experiment (D.T.)";"1.0";"2";"1";"1";"2";"1";"1";"2014-10-16 22:14:09.263";"2014-10-16 22:28:56.494";"1";"0";"1";"190";"189";"module.devaluation_block1.exec-2920.deval1";"7475";"2014-10-16 22:28:53.485";"3";"9";"9";"9";"1960";"1181";"1301";"2014-10-16 22:28:46.010";"1";;;;;;;;;;;;;;;;;;;;;;;;;;;;;;;;;;;;;;;;;;;;;;;;;;;;;;;;;;;;;;;;;;;;;;;;;;;;;;;;
