"user.name";"user.yearOfBirth";"user.sex";"user.osName";"module.name";"module.version";"module.online.subject.code";"module.online.study.id";"module.online.module.nr";"module.online.group.nr";"session.id";"session.index";"session.startTime";"session.endTime";"session.completed";"session.node-5809.conditionType";"session.node-6543.DevalQorder";"trial.id";"trial.index";"trial.name";"trial.GoNoGo1.durationTime";"trial.GoNoGo1.endTime";"trial.GoNoGo1.Error Type";"trial.GoNoGo1.icon";"trial.GoNoGo1.location";"trial.GoNoGo1.outcome";"trial.GoNoGo1.response";"trial.GoNoGo1.result";"trial.GoNoGo1.RT";"trial.GoNoGo1.signal";"trial.GoNoGo1.startTime";"trial.GoNoGo1.stimulus type";"trial.GoNoGo2.durationTime";"trial.GoNoGo2.endTime";"trial.GoNoGo2.Error Type";"trial.GoNoGo2.icon";"trial.GoNoGo2.location";"trial.GoNoGo2.outcome";"trial.GoNoGo2.response";"trial.GoNoGo2.result";"trial.GoNoGo2.RT";"trial.GoNoGo2.signal";"trial.GoNoGo2.startTime";"trial.GoNoGo2.stimulus type";"trial.GoNoGo3.durationTime";"trial.GoNoGo3.endTime";"trial.GoNoGo3.Error Type";"trial.GoNoGo3.icon";"trial.GoNoGo3.location";"trial.GoNoGo3.outcome";"trial.GoNoGo3.response";"trial.GoNoGo3.result";"trial.GoNoGo3.RT";"trial.GoNoGo3.signal";"trial.GoNoGo3.startTime";"trial.GoNoGo3.stimulus type";"trial.GoNoGo4.durationTime";"trial.GoNoGo4.endTime";"trial.GoNoGo4.Error Type";"trial.GoNoGo4.icon";"trial.GoNoGo4.location";"trial.GoNoGo4.outcome";"trial.GoNoGo4.response";"trial.GoNoGo4.result";"trial.GoNoGo4.RT";"trial.GoNoGo4.signal";"trial.GoNoGo4.startTime";"trial.GoNoGo4.stimulus type";"trial.GoNoGo_Practice.durationTime";"trial.GoNoGo_Practice.endTime";"trial.GoNoGo_Practice.icon";"trial.GoNoGo_Practice.location";"trial.GoNoGo_Practice.outcome";"trial.GoNoGo_Practice.response";"trial.GoNoGo_Practice.result";"trial.GoNoGo_Practice.RT";"trial.GoNoGo_Practice.signal";"trial.GoNoGo_Practice.startTime";"trial.GoNoGo_Practice.stimulus type";"trial.GoNoGo_Tutorial.durationTime";"trial.GoNoGo_Tutorial.endTime";"trial.GoNoGo_Tutorial.icon";"trial.GoNoGo_Tutorial.location";"trial.GoNoGo_Tutorial.outcome";"trial.GoNoGo_Tutorial.response";"trial.GoNoGo_Tutorial.result";"trial.GoNoGo_Tutorial.RT";"trial.GoNoGo_Tutorial.signal";"trial.GoNoGo_Tutorial.startTime"
"1320593";"1994";;"Windows 7";"Rachel's Experiment (D.T.)";"1.0";"2";"1";"1";"2";"1";"1";"2014-09-29 11:29:26.016";"2014-09-29 11:51:57.232";"1";"0";"1";"1";"0";"module.GoNoGotutorial.exec-4558.GoNoGo_Tutorial";;;;;;;;;;;;;;;;;;;;;;;;;;;;;;;;;;;;;;;;;;;;;;;;;;;;;;;;;;;;"3991";"2014-09-29 11:30:09.891";"leftResponse";"0";"FINISHED";"LEFT";"success";"1217";"0";"2014-09-29 11:30:05.891"
"1320593";"1994";;"Windows 7";"Rachel's Experiment (D.T.)";"1.0";"2";"1";"1";"2";"1";"1";"2014-09-29 11:29:26.016";"2014-09-29 11:51:57.232";"1";"0";"1";"2";"1";"module.GoNoGotutorial.exec-4558.GoNoGo_Tutorial";;;;;;;;;;;;;;;;;;;;;;;;;;;;;;;;;;;;;;;;;;;;;;;;;;;;;;;;;;;;"3994";"2014-09-29 11:30:15.172";"rightResponse";"1";"FINISHED";"RIGHT";"success";"1044";"0";"2014-09-29 11:30:11.172"
"1320593";"1994";;"Windows 7";"Rachel's Experiment (D.T.)";"1.0";"2";"1";"1";"2";"1";"1";"2014-09-29 11:29:26.016";"2014-09-29 11:51:57.232";"1";"0";"1";"3";"2";"module.GoNoGotutorial.exec-4558.GoNoGo_Tutorial";;;;;;;;;;;;;;;;;;;;;;;;;;;;;;;;;;;;;;;;;;;;;;;;;;;;;;;;;;;;"3995";"2014-09-29 11:30:20.438";"quickResponse";"0";"FINISHED";"RIGHT";"failure";"1163";"0";"2014-09-29 11:30:16.438"
"1320593";"1994";;"Windows 7";"Rachel's Experiment (D.T.)";"1.0";"2";"1";"1";"2";"1";"1";"2014-09-29 11:29:26.016";"2014-09-29 11:51:57.232";"1";"0";"1";"4";"3";"module.GoNoGopractice.exec-6086.GoNoGo_Practice";;;;;;;;;;;;;;;;;;;;;;;;;;;;;;;;;;;;;;;;;;;;;;;;;"1947";"2014-09-29 11:30:30.282";"18";"0";"FINISHED";"LEFT";"success";"375";"0";"2014-09-29 11:30:28.329";"3";;;;;;;;;;
"1320593";"1994";;"Windows 7";"Rachel's Experiment (D.T.)";"1.0";"2";"1";"1";"2";"1";"1";"2014-09-29 11:29:26.016";"2014-09-29 11:51:57.232";"1";"0";"1";"5";"4";"module.GoNoGopractice.exec-6086.GoNoGo_Practice";;;;;;;;;;;;;;;;;;;;;;;;;;;;;;;;;;;;;;;;;;;;;;;;;"1947";"2014-09-29 11:30:33.500";"21";"1";"FINISHED";"RIGHT";"success";"317";"0";"2014-09-29 11:30:31.547";"3";;;;;;;;;;
"1320593";"1994";;"Windows 7";"Rachel's Experiment (D.T.)";"1.0";"2";"1";"1";"2";"1";"1";"2014-09-29 11:29:26.016";"2014-09-29 11:51:57.232";"1";"0";"1";"6";"5";"module.GoNoGopractice.exec-6086.GoNoGo_Practice";;;;;;;;;;;;;;;;;;;;;;;;;;;;;;;;;;;;;;;;;;;;;;;;;"1947";"2014-09-29 11:30:36.719";"14";"1";"FINISHED";"RIGHT";"success";"369";"0";"2014-09-29 11:30:34.766";"2";;;;;;;;;;
"1320593";"1994";;"Windows 7";"Rachel's Experiment (D.T.)";"1.0";"2";"1";"1";"2";"1";"1";"2014-09-29 11:29:26.016";"2014-09-29 11:51:57.232";"1";"0";"1";"7";"6";"module.GoNoGopractice.exec-6086.GoNoGo_Practice";;;;;;;;;;;;;;;;;;;;;;;;;;;;;;;;;;;;;;;;;;;;;;;;;"1947";"2014-09-29 11:30:39.938";"26";"0";"FINISHED";"LEFT";"success";"351";"0";"2014-09-29 11:30:37.985";"3";;;;;;;;;;
"1320593";"1994";;"Windows 7";"Rachel's Experiment (D.T.)";"1.0";"2";"1";"1";"2";"1";"1";"2014-09-29 11:29:26.016";"2014-09-29 11:51:57.232";"1";"0";"1";"8";"7";"module.GoNoGopractice.exec-6086.GoNoGo_Practice";;;;;;;;;;;;;;;;;;;;;;;;;;;;;;;;;;;;;;;;;;;;;;;;;"1948";"2014-09-29 11:30:43.157";"2";"0";"FINISHED";"LEFT";"success";"380";"0";"2014-09-29 11:30:41.204";"1";;;;;;;;;;
"1320593";"1994";;"Windows 7";"Rachel's Experiment (D.T.)";"1.0";"2";"1";"1";"2";"1";"1";"2014-09-29 11:29:26.016";"2014-09-29 11:51:57.232";"1";"0";"1";"9";"8";"module.GoNoGopractice.exec-6086.GoNoGo_Practice";;;;;;;;;;;;;;;;;;;;;;;;;;;;;;;;;;;;;;;;;;;;;;;;;"1948";"2014-09-29 11:30:46.375";"30";"0";"FINISHED";"LEFT";"success";"402";"0";"2014-09-29 11:30:44.422";"3";;;;;;;;;;
"1320593";"1994";;"Windows 7";"Rachel's Experiment (D.T.)";"1.0";"2";"1";"1";"2";"1";"1";"2014-09-29 11:29:26.016";"2014-09-29 11:51:57.232";"1";"0";"1";"10";"9";"module.GoNoGopractice.exec-6086.GoNoGo_Practice";;;;;;;;;;;;;;;;;;;;;;;;;;;;;;;;;;;;;;;;;;;;;;;;;"1948";"2014-09-29 11:30:49.594";"6";"1";"FINISHED";"RIGHT";"success";"415";"0";"2014-09-29 11:30:47.641";"1";;;;;;;;;;
"1320593";"1994";;"Windows 7";"Rachel's Experiment (D.T.)";"1.0";"2";"1";"1";"2";"1";"1";"2014-09-29 11:29:26.016";"2014-09-29 11:51:57.232";"1";"0";"1";"11";"10";"module.GoNoGopractice.exec-6086.GoNoGo_Practice";;;;;;;;;;;;;;;;;;;;;;;;;;;;;;;;;;;;;;;;;;;;;;;;;"1948";"2014-09-29 11:30:52.829";"34";"0";"FINISHED";"LEFT";"success";"629";"0";"2014-09-29 11:30:50.875";"3";;;;;;;;;;
"1320593";"1994";;"Windows 7";"Rachel's Experiment (D.T.)";"1.0";"2";"1";"1";"2";"1";"1";"2014-09-29 11:29:26.016";"2014-09-29 11:51:57.232";"1";"0";"1";"12";"11";"module.GoNoGopractice.exec-6086.GoNoGo_Practice";;;;;;;;;;;;;;;;;;;;;;;;;;;;;;;;;;;;;;;;;;;;;;;;;"1948";"2014-09-29 11:30:56.047";"23";"1";"FINISHED";"RIGHT";"success";"362";"0";"2014-09-29 11:30:54.094";"3";;;;;;;;;;
"1320593";"1994";;"Windows 7";"Rachel's Experiment (D.T.)";"1.0";"2";"1";"1";"2";"1";"1";"2014-09-29 11:29:26.016";"2014-09-29 11:51:57.232";"1";"0";"1";"13";"12";"module.GoNoGopractice.exec-6086.GoNoGo_Practice";;;;;;;;;;;;;;;;;;;;;;;;;;;;;;;;;;;;;;;;;;;;;;;;;"1947";"2014-09-29 11:30:59.266";"13";"0";"FINISHED";"LEFT";"success";"335";"0";"2014-09-29 11:30:57.313";"2";;;;;;;;;;
"1320593";"1994";;"Windows 7";"Rachel's Experiment (D.T.)";"1.0";"2";"1";"1";"2";"1";"1";"2014-09-29 11:29:26.016";"2014-09-29 11:51:57.232";"1";"0";"1";"14";"13";"module.GoNoGopractice.exec-6086.GoNoGo_Practice";;;;;;;;;;;;;;;;;;;;;;;;;;;;;;;;;;;;;;;;;;;;;;;;;"1948";"2014-09-29 11:31:02.485";"3";"1";"FINISHED";"RIGHT";"success";"389";"0";"2014-09-29 11:31:00.532";"1";;;;;;;;;;
"1320593";"1994";;"Windows 7";"Rachel's Experiment (D.T.)";"1.0";"2";"1";"1";"2";"1";"1";"2014-09-29 11:29:26.016";"2014-09-29 11:51:57.232";"1";"0";"1";"15";"14";"module.GoNoGopractice.exec-6086.GoNoGo_Practice";;;;;;;;;;;;;;;;;;;;;;;;;;;;;;;;;;;;;;;;;;;;;;;;;"1948";"2014-09-29 11:31:05.704";"27";"1";"FINISHED";"RIGHT";"success";"361";"0";"2014-09-29 11:31:03.750";"3";;;;;;;;;;
"1320593";"1994";;"Windows 7";"Rachel's Experiment (D.T.)";"1.0";"2";"1";"1";"2";"1";"1";"2014-09-29 11:29:26.016";"2014-09-29 11:51:57.232";"1";"0";"1";"16";"15";"module.training_block1.exec-7820.GoNoGo1";"1247";"2014-09-29 11:31:13.047";"NST_correctLoc";"34";"1";"FINISHED";"RIGHT";"success";"340";"0";"2014-09-29 11:31:11.797";"3";;;;;;;;;;;;;;;;;;;;;;;;;;;;;;;;;;;;;;;;;;;;;;;;;;;;;;;;;
"1320593";"1994";;"Windows 7";"Rachel's Experiment (D.T.)";"1.0";"2";"1";"1";"2";"1";"1";"2014-09-29 11:29:26.016";"2014-09-29 11:51:57.232";"1";"0";"1";"17";"16";"module.training_block1.exec-7820.GoNoGo1";"1244";"2014-09-29 11:31:15.563";"NST_correctLoc";"28";"0";"FINISHED";"LEFT";"success";"334";"0";"2014-09-29 11:31:14.313";"3";;;;;;;;;;;;;;;;;;;;;;;;;;;;;;;;;;;;;;;;;;;;;;;;;;;;;;;;;
"1320593";"1994";;"Windows 7";"Rachel's Experiment (D.T.)";"1.0";"2";"1";"1";"2";"1";"1";"2014-09-29 11:29:26.016";"2014-09-29 11:51:57.232";"1";"0";"1";"18";"17";"module.training_block1.exec-7820.GoNoGo1";"1244";"2014-09-29 11:31:18.079";"NST_correctLoc";"9";"1";"FINISHED";"RIGHT";"success";"379";"0";"2014-09-29 11:31:16.829";"2";;;;;;;;;;;;;;;;;;;;;;;;;;;;;;;;;;;;;;;;;;;;;;;;;;;;;;;;;
"1320593";"1994";;"Windows 7";"Rachel's Experiment (D.T.)";"1.0";"2";"1";"1";"2";"1";"1";"2014-09-29 11:29:26.016";"2014-09-29 11:51:57.232";"1";"0";"1";"19";"18";"module.training_block1.exec-7820.GoNoGo1";"1245";"2014-09-29 11:31:20.594";"NST_correctLoc";"8";"1";"FINISHED";"RIGHT";"success";"343";"0";"2014-09-29 11:31:19.344";"1";;;;;;;;;;;;;;;;;;;;;;;;;;;;;;;;;;;;;;;;;;;;;;;;;;;;;;;;;
"1320593";"1994";;"Windows 7";"Rachel's Experiment (D.T.)";"1.0";"2";"1";"1";"2";"1";"1";"2014-09-29 11:29:26.016";"2014-09-29 11:51:57.232";"1";"0";"1";"20";"19";"module.training_block1.exec-7820.GoNoGo1";"1248";"2014-09-29 11:31:23.110";"NST_correctLoc";"30";"1";"FINISHED";"RIGHT";"success";"335";"0";"2014-09-29 11:31:21.860";"3";;;;;;;;;;;;;;;;;;;;;;;;;;;;;;;;;;;;;;;;;;;;;;;;;;;;;;;;;
"1320593";"1994";;"Windows 7";"Rachel's Experiment (D.T.)";"1.0";"2";"1";"1";"2";"1";"1";"2014-09-29 11:29:26.016";"2014-09-29 11:51:57.232";"1";"0";"1";"21";"20";"module.training_block1.exec-7820.GoNoGo1";"1244";"2014-09-29 11:31:25.625";"NST_correctLoc";"0";"0";"FINISHED";"LEFT";"success";"304";"0";"2014-09-29 11:31:24.375";"1";;;;;;;;;;;;;;;;;;;;;;;;;;;;;;;;;;;;;;;;;;;;;;;;;;;;;;;;;
"1320593";"1994";;"Windows 7";"Rachel's Experiment (D.T.)";"1.0";"2";"1";"1";"2";"1";"1";"2014-09-29 11:29:26.016";"2014-09-29 11:51:57.232";"1";"0";"1";"22";"21";"module.training_block1.exec-7820.GoNoGo1";"1245";"2014-09-29 11:31:28.141";"NST_correctLoc";"19";"1";"FINISHED";"RIGHT";"success";"316";"0";"2014-09-29 11:31:26.891";"3";;;;;;;;;;;;;;;;;;;;;;;;;;;;;;;;;;;;;;;;;;;;;;;;;;;;;;;;;
"1320593";"1994";;"Windows 7";"Rachel's Experiment (D.T.)";"1.0";"2";"1";"1";"2";"1";"1";"2014-09-29 11:29:26.016";"2014-09-29 11:51:57.232";"1";"0";"1";"23";"22";"module.training_block1.exec-7820.GoNoGo1";"1244";"2014-09-29 11:31:30.657";"NST_correctLoc";"4";"0";"FINISHED";"LEFT";"success";"304";"0";"2014-09-29 11:31:29.407";"1";;;;;;;;;;;;;;;;;;;;;;;;;;;;;;;;;;;;;;;;;;;;;;;;;;;;;;;;;
"1320593";"1994";;"Windows 7";"Rachel's Experiment (D.T.)";"1.0";"2";"1";"1";"2";"1";"1";"2014-09-29 11:29:26.016";"2014-09-29 11:51:57.232";"1";"0";"1";"24";"23";"module.training_block1.exec-7820.GoNoGo1";"1239";"2014-09-29 11:31:33.297";"NST_correctLoc";"1";"1";"FINISHED";"RIGHT";"success";"330";"0";"2014-09-29 11:31:32.047";"1";;;;;;;;;;;;;;;;;;;;;;;;;;;;;;;;;;;;;;;;;;;;;;;;;;;;;;;;;
"1320593";"1994";;"Windows 7";"Rachel's Experiment (D.T.)";"1.0";"2";"1";"1";"2";"1";"1";"2014-09-29 11:29:26.016";"2014-09-29 11:51:57.232";"1";"0";"1";"25";"24";"module.training_block1.exec-7820.GoNoGo1";"1244";"2014-09-29 11:31:35.813";"NST_correctLoc";"15";"0";"FINISHED";"LEFT";"success";"284";"0";"2014-09-29 11:31:34.563";"2";;;;;;;;;;;;;;;;;;;;;;;;;;;;;;;;;;;;;;;;;;;;;;;;;;;;;;;;;
"1320593";"1994";;"Windows 7";"Rachel's Experiment (D.T.)";"1.0";"2";"1";"1";"2";"1";"1";"2014-09-29 11:29:26.016";"2014-09-29 11:51:57.232";"1";"0";"1";"26";"25";"module.training_block1.exec-7820.GoNoGo1";"1243";"2014-09-29 11:31:38.329";"NST_correctLoc";"27";"1";"FINISHED";"RIGHT";"success";"263";"0";"2014-09-29 11:31:37.079";"3";;;;;;;;;;;;;;;;;;;;;;;;;;;;;;;;;;;;;;;;;;;;;;;;;;;;;;;;;
"1320593";"1994";;"Windows 7";"Rachel's Experiment (D.T.)";"1.0";"2";"1";"1";"2";"1";"1";"2014-09-29 11:29:26.016";"2014-09-29 11:51:57.232";"1";"0";"1";"27";"26";"module.training_block1.exec-7820.GoNoGo1";"1244";"2014-09-29 11:31:40.844";"NST_correctLoc";"16";"1";"FINISHED";"RIGHT";"success";"372";"0";"2014-09-29 11:31:39.594";"2";;;;;;;;;;;;;;;;;;;;;;;;;;;;;;;;;;;;;;;;;;;;;;;;;;;;;;;;;
"1320593";"1994";;"Windows 7";"Rachel's Experiment (D.T.)";"1.0";"2";"1";"1";"2";"1";"1";"2014-09-29 11:29:26.016";"2014-09-29 11:51:57.232";"1";"0";"1";"28";"27";"module.training_block1.exec-7820.GoNoGo1";"1245";"2014-09-29 11:31:43.360";"NST_correctLoc";"35";"0";"FINISHED";"LEFT";"success";"314";"0";"2014-09-29 11:31:42.110";"3";;;;;;;;;;;;;;;;;;;;;;;;;;;;;;;;;;;;;;;;;;;;;;;;;;;;;;;;;
"1320593";"1994";;"Windows 7";"Rachel's Experiment (D.T.)";"1.0";"2";"1";"1";"2";"1";"1";"2014-09-29 11:29:26.016";"2014-09-29 11:51:57.232";"1";"0";"1";"29";"28";"module.training_block1.exec-7820.GoNoGo1";"1244";"2014-09-29 11:31:45.875";"NST_correctLoc";"14";"1";"FINISHED";"RIGHT";"success";"277";"0";"2014-09-29 11:31:44.625";"2";;;;;;;;;;;;;;;;;;;;;;;;;;;;;;;;;;;;;;;;;;;;;;;;;;;;;;;;;
"1320593";"1994";;"Windows 7";"Rachel's Experiment (D.T.)";"1.0";"2";"1";"1";"2";"1";"1";"2014-09-29 11:29:26.016";"2014-09-29 11:51:57.232";"1";"0";"1";"30";"29";"module.training_block1.exec-7820.GoNoGo1";"1245";"2014-09-29 11:31:48.391";"NST_correctLoc";"22";"0";"FINISHED";"LEFT";"success";"298";"0";"2014-09-29 11:31:47.141";"3";;;;;;;;;;;;;;;;;;;;;;;;;;;;;;;;;;;;;;;;;;;;;;;;;;;;;;;;;
"1320593";"1994";;"Windows 7";"Rachel's Experiment (D.T.)";"1.0";"2";"1";"1";"2";"1";"1";"2014-09-29 11:29:26.016";"2014-09-29 11:51:57.232";"1";"0";"1";"31";"30";"module.training_block1.exec-7820.GoNoGo1";"1245";"2014-09-29 11:31:50.907";"NST_correctLoc";"20";"1";"FINISHED";"RIGHT";"success";"278";"0";"2014-09-29 11:31:49.657";"3";;;;;;;;;;;;;;;;;;;;;;;;;;;;;;;;;;;;;;;;;;;;;;;;;;;;;;;;;
"1320593";"1994";;"Windows 7";"Rachel's Experiment (D.T.)";"1.0";"2";"1";"1";"2";"1";"1";"2014-09-29 11:29:26.016";"2014-09-29 11:51:57.232";"1";"0";"1";"32";"31";"module.training_block1.exec-7820.GoNoGo1";"1244";"2014-09-29 11:31:53.422";"NST_correctLoc";"26";"0";"FINISHED";"LEFT";"success";"266";"0";"2014-09-29 11:31:52.172";"3";;;;;;;;;;;;;;;;;;;;;;;;;;;;;;;;;;;;;;;;;;;;;;;;;;;;;;;;;
"1320593";"1994";;"Windows 7";"Rachel's Experiment (D.T.)";"1.0";"2";"1";"1";"2";"1";"1";"2014-09-29 11:29:26.016";"2014-09-29 11:51:57.232";"1";"0";"1";"33";"32";"module.training_block1.exec-7820.GoNoGo1";"1244";"2014-09-29 11:31:55.938";"NST_correctLoc";"21";"0";"FINISHED";"LEFT";"success";"358";"0";"2014-09-29 11:31:54.688";"3";;;;;;;;;;;;;;;;;;;;;;;;;;;;;;;;;;;;;;;;;;;;;;;;;;;;;;;;;
"1320593";"1994";;"Windows 7";"Rachel's Experiment (D.T.)";"1.0";"2";"1";"1";"2";"1";"1";"2014-09-29 11:29:26.016";"2014-09-29 11:51:57.232";"1";"0";"1";"34";"33";"module.training_block1.exec-7820.GoNoGo1";"1245";"2014-09-29 11:31:58.454";"NST_correctLoc";"31";"1";"FINISHED";"RIGHT";"success";"323";"0";"2014-09-29 11:31:57.204";"3";;;;;;;;;;;;;;;;;;;;;;;;;;;;;;;;;;;;;;;;;;;;;;;;;;;;;;;;;
"1320593";"1994";;"Windows 7";"Rachel's Experiment (D.T.)";"1.0";"2";"1";"1";"2";"1";"1";"2014-09-29 11:29:26.016";"2014-09-29 11:51:57.232";"1";"0";"1";"35";"34";"module.training_block1.exec-7820.GoNoGo1";"1245";"2014-09-29 11:32:00.969";"NST_correctLoc";"33";"0";"FINISHED";"LEFT";"success";"264";"0";"2014-09-29 11:31:59.719";"3";;;;;;;;;;;;;;;;;;;;;;;;;;;;;;;;;;;;;;;;;;;;;;;;;;;;;;;;;
"1320593";"1994";;"Windows 7";"Rachel's Experiment (D.T.)";"1.0";"2";"1";"1";"2";"1";"1";"2014-09-29 11:29:26.016";"2014-09-29 11:51:57.232";"1";"0";"1";"36";"35";"module.training_block1.exec-7820.GoNoGo1";"1244";"2014-09-29 11:32:03.485";"NST_correctLoc";"17";"0";"FINISHED";"LEFT";"success";"315";"0";"2014-09-29 11:32:02.235";"2";;;;;;;;;;;;;;;;;;;;;;;;;;;;;;;;;;;;;;;;;;;;;;;;;;;;;;;;;
"1320593";"1994";;"Windows 7";"Rachel's Experiment (D.T.)";"1.0";"2";"1";"1";"2";"1";"1";"2014-09-29 11:29:26.016";"2014-09-29 11:51:57.232";"1";"0";"1";"37";"36";"module.training_block1.exec-7820.GoNoGo1";"1245";"2014-09-29 11:32:06.000";"NST_correctLoc";"18";"1";"FINISHED";"RIGHT";"success";"312";"0";"2014-09-29 11:32:04.750";"3";;;;;;;;;;;;;;;;;;;;;;;;;;;;;;;;;;;;;;;;;;;;;;;;;;;;;;;;;
"1320593";"1994";;"Windows 7";"Rachel's Experiment (D.T.)";"1.0";"2";"1";"1";"2";"1";"1";"2014-09-29 11:29:26.016";"2014-09-29 11:51:57.232";"1";"0";"1";"38";"37";"module.training_block1.exec-7820.GoNoGo1";"1244";"2014-09-29 11:32:08.516";"NST_correctLoc";"29";"0";"FINISHED";"LEFT";"success";"276";"0";"2014-09-29 11:32:07.266";"3";;;;;;;;;;;;;;;;;;;;;;;;;;;;;;;;;;;;;;;;;;;;;;;;;;;;;;;;;
"1320593";"1994";;"Windows 7";"Rachel's Experiment (D.T.)";"1.0";"2";"1";"1";"2";"1";"1";"2014-09-29 11:29:26.016";"2014-09-29 11:51:57.232";"1";"0";"1";"39";"38";"module.training_block1.exec-7820.GoNoGo1";"1244";"2014-09-29 11:32:11.032";"NST_correctLoc";"6";"0";"FINISHED";"LEFT";"success";"304";"0";"2014-09-29 11:32:09.782";"1";;;;;;;;;;;;;;;;;;;;;;;;;;;;;;;;;;;;;;;;;;;;;;;;;;;;;;;;;
"1320593";"1994";;"Windows 7";"Rachel's Experiment (D.T.)";"1.0";"2";"1";"1";"2";"1";"1";"2014-09-29 11:29:26.016";"2014-09-29 11:51:57.232";"1";"0";"1";"40";"39";"module.training_block1.exec-7820.GoNoGo1";"1245";"2014-09-29 11:32:13.547";"NST_correctLoc";"12";"1";"FINISHED";"RIGHT";"success";"341";"0";"2014-09-29 11:32:12.297";"2";;;;;;;;;;;;;;;;;;;;;;;;;;;;;;;;;;;;;;;;;;;;;;;;;;;;;;;;;
"1320593";"1994";;"Windows 7";"Rachel's Experiment (D.T.)";"1.0";"2";"1";"1";"2";"1";"1";"2014-09-29 11:29:26.016";"2014-09-29 11:51:57.232";"1";"0";"1";"41";"40";"module.training_block1.exec-7820.GoNoGo1";"1245";"2014-09-29 11:32:16.063";"NST_correctLoc";"11";"1";"FINISHED";"RIGHT";"success";"346";"0";"2014-09-29 11:32:14.813";"2";;;;;;;;;;;;;;;;;;;;;;;;;;;;;;;;;;;;;;;;;;;;;;;;;;;;;;;;;
"1320593";"1994";;"Windows 7";"Rachel's Experiment (D.T.)";"1.0";"2";"1";"1";"2";"1";"1";"2014-09-29 11:29:26.016";"2014-09-29 11:51:57.232";"1";"0";"1";"42";"41";"module.training_block1.exec-7820.GoNoGo1";"1245";"2014-09-29 11:32:18.579";"NST_correctLoc";"5";"0";"FINISHED";"LEFT";"success";"278";"0";"2014-09-29 11:32:17.329";"1";;;;;;;;;;;;;;;;;;;;;;;;;;;;;;;;;;;;;;;;;;;;;;;;;;;;;;;;;
"1320593";"1994";;"Windows 7";"Rachel's Experiment (D.T.)";"1.0";"2";"1";"1";"2";"1";"1";"2014-09-29 11:29:26.016";"2014-09-29 11:51:57.232";"1";"0";"1";"43";"42";"module.training_block1.exec-7820.GoNoGo1";"1244";"2014-09-29 11:32:21.094";"NST_correctLoc";"13";"0";"FINISHED";"LEFT";"success";"322";"0";"2014-09-29 11:32:19.844";"2";;;;;;;;;;;;;;;;;;;;;;;;;;;;;;;;;;;;;;;;;;;;;;;;;;;;;;;;;
"1320593";"1994";;"Windows 7";"Rachel's Experiment (D.T.)";"1.0";"2";"1";"1";"2";"1";"1";"2014-09-29 11:29:26.016";"2014-09-29 11:51:57.232";"1";"0";"1";"44";"43";"module.training_block1.exec-7820.GoNoGo1";"1244";"2014-09-29 11:32:23.610";"NST_correctLoc";"32";"1";"FINISHED";"RIGHT";"success";"334";"0";"2014-09-29 11:32:22.360";"3";;;;;;;;;;;;;;;;;;;;;;;;;;;;;;;;;;;;;;;;;;;;;;;;;;;;;;;;;
"1320593";"1994";;"Windows 7";"Rachel's Experiment (D.T.)";"1.0";"2";"1";"1";"2";"1";"1";"2014-09-29 11:29:26.016";"2014-09-29 11:51:57.232";"1";"0";"1";"45";"44";"module.training_block1.exec-7820.GoNoGo1";"1245";"2014-09-29 11:32:26.125";"NST_correctLoc";"3";"0";"FINISHED";"LEFT";"success";"347";"0";"2014-09-29 11:32:24.875";"1";;;;;;;;;;;;;;;;;;;;;;;;;;;;;;;;;;;;;;;;;;;;;;;;;;;;;;;;;
"1320593";"1994";;"Windows 7";"Rachel's Experiment (D.T.)";"1.0";"2";"1";"1";"2";"1";"1";"2014-09-29 11:29:26.016";"2014-09-29 11:51:57.232";"1";"0";"1";"46";"45";"module.training_block1.exec-7820.GoNoGo1";"1244";"2014-09-29 11:32:28.641";"NST_correctLoc";"2";"1";"FINISHED";"RIGHT";"success";"319";"0";"2014-09-29 11:32:27.391";"1";;;;;;;;;;;;;;;;;;;;;;;;;;;;;;;;;;;;;;;;;;;;;;;;;;;;;;;;;
"1320593";"1994";;"Windows 7";"Rachel's Experiment (D.T.)";"1.0";"2";"1";"1";"2";"1";"1";"2014-09-29 11:29:26.016";"2014-09-29 11:51:57.232";"1";"0";"1";"47";"46";"module.training_block1.exec-7820.GoNoGo1";"1244";"2014-09-29 11:32:31.157";"NST_correctLoc";"23";"0";"FINISHED";"LEFT";"success";"283";"0";"2014-09-29 11:32:29.907";"3";;;;;;;;;;;;;;;;;;;;;;;;;;;;;;;;;;;;;;;;;;;;;;;;;;;;;;;;;
"1320593";"1994";;"Windows 7";"Rachel's Experiment (D.T.)";"1.0";"2";"1";"1";"2";"1";"1";"2014-09-29 11:29:26.016";"2014-09-29 11:51:57.232";"1";"0";"1";"48";"47";"module.training_block1.exec-7820.GoNoGo1";"1245";"2014-09-29 11:32:33.672";"NST_correctLoc";"10";"0";"FINISHED";"LEFT";"success";"336";"0";"2014-09-29 11:32:32.422";"2";;;;;;;;;;;;;;;;;;;;;;;;;;;;;;;;;;;;;;;;;;;;;;;;;;;;;;;;;
"1320593";"1994";;"Windows 7";"Rachel's Experiment (D.T.)";"1.0";"2";"1";"1";"2";"1";"1";"2014-09-29 11:29:26.016";"2014-09-29 11:51:57.232";"1";"0";"1";"49";"48";"module.training_block1.exec-7820.GoNoGo1";"1244";"2014-09-29 11:32:36.188";"NST_correctLoc";"7";"0";"FINISHED";"LEFT";"success";"308";"0";"2014-09-29 11:32:34.938";"1";;;;;;;;;;;;;;;;;;;;;;;;;;;;;;;;;;;;;;;;;;;;;;;;;;;;;;;;;
"1320593";"1994";;"Windows 7";"Rachel's Experiment (D.T.)";"1.0";"2";"1";"1";"2";"1";"1";"2014-09-29 11:29:26.016";"2014-09-29 11:51:57.232";"1";"0";"1";"50";"49";"module.training_block1.exec-7820.GoNoGo1";"1244";"2014-09-29 11:32:38.704";"NST_correctLoc";"25";"1";"FINISHED";"RIGHT";"success";"312";"0";"2014-09-29 11:32:37.454";"3";;;;;;;;;;;;;;;;;;;;;;;;;;;;;;;;;;;;;;;;;;;;;;;;;;;;;;;;;
"1320593";"1994";;"Windows 7";"Rachel's Experiment (D.T.)";"1.0";"2";"1";"1";"2";"1";"1";"2014-09-29 11:29:26.016";"2014-09-29 11:51:57.232";"1";"0";"1";"51";"50";"module.training_block1.exec-7820.GoNoGo1";"1245";"2014-09-29 11:32:41.219";"NST_correctLoc";"24";"0";"FINISHED";"LEFT";"success";"285";"0";"2014-09-29 11:32:39.969";"3";;;;;;;;;;;;;;;;;;;;;;;;;;;;;;;;;;;;;;;;;;;;;;;;;;;;;;;;;
"1320593";"1994";;"Windows 7";"Rachel's Experiment (D.T.)";"1.0";"2";"1";"1";"2";"1";"1";"2014-09-29 11:29:26.016";"2014-09-29 11:51:57.232";"1";"0";"1";"52";"51";"module.training_block2.exec-8381.GoNoGo2";;;;;;;;;;;;;"1248";"2014-09-29 11:32:52.297";"NST_correctLoc";"7";"1";"FINISHED";"RIGHT";"success";"442";"0";"2014-09-29 11:32:51.047";"1";;;;;;;;;;;;;;;;;;;;;;;;;;;;;;;;;;;;;;;;;;;;;
"1320593";"1994";;"Windows 7";"Rachel's Experiment (D.T.)";"1.0";"2";"1";"1";"2";"1";"1";"2014-09-29 11:29:26.016";"2014-09-29 11:51:57.232";"1";"0";"1";"53";"52";"module.training_block2.exec-8381.GoNoGo2";;;;;;;;;;;;;"1248";"2014-09-29 11:32:54.813";"NST_correctLoc";"12";"0";"FINISHED";"LEFT";"success";"294";"0";"2014-09-29 11:32:53.563";"2";;;;;;;;;;;;;;;;;;;;;;;;;;;;;;;;;;;;;;;;;;;;;
"1320593";"1994";;"Windows 7";"Rachel's Experiment (D.T.)";"1.0";"2";"1";"1";"2";"1";"1";"2014-09-29 11:29:26.016";"2014-09-29 11:51:57.232";"1";"0";"1";"54";"53";"module.training_block2.exec-8381.GoNoGo2";;;;;;;;;;;;;"1248";"2014-09-29 11:32:57.329";"NST_correctLoc";"33";"1";"FINISHED";"RIGHT";"success";"346";"0";"2014-09-29 11:32:56.079";"3";;;;;;;;;;;;;;;;;;;;;;;;;;;;;;;;;;;;;;;;;;;;;
"1320593";"1994";;"Windows 7";"Rachel's Experiment (D.T.)";"1.0";"2";"1";"1";"2";"1";"1";"2014-09-29 11:29:26.016";"2014-09-29 11:51:57.232";"1";"0";"1";"55";"54";"module.training_block2.exec-8381.GoNoGo2";;;;;;;;;;;;;"1247";"2014-09-29 11:32:59.844";"NST_correctLoc";"11";"0";"FINISHED";"LEFT";"success";"294";"0";"2014-09-29 11:32:58.594";"2";;;;;;;;;;;;;;;;;;;;;;;;;;;;;;;;;;;;;;;;;;;;;
"1320593";"1994";;"Windows 7";"Rachel's Experiment (D.T.)";"1.0";"2";"1";"1";"2";"1";"1";"2014-09-29 11:29:26.016";"2014-09-29 11:51:57.232";"1";"0";"1";"56";"55";"module.training_block2.exec-8381.GoNoGo2";;;;;;;;;;;;;"1244";"2014-09-29 11:33:02.360";"NST_correctLoc";"8";"0";"FINISHED";"LEFT";"success";"279";"0";"2014-09-29 11:33:01.110";"1";;;;;;;;;;;;;;;;;;;;;;;;;;;;;;;;;;;;;;;;;;;;;
"1320593";"1994";;"Windows 7";"Rachel's Experiment (D.T.)";"1.0";"2";"1";"1";"2";"1";"1";"2014-09-29 11:29:26.016";"2014-09-29 11:51:57.232";"1";"0";"1";"57";"56";"module.training_block2.exec-8381.GoNoGo2";;;;;;;;;;;;;"1248";"2014-09-29 11:33:04.875";"NST_correctLoc";"10";"1";"FINISHED";"RIGHT";"success";"303";"0";"2014-09-29 11:33:03.625";"2";;;;;;;;;;;;;;;;;;;;;;;;;;;;;;;;;;;;;;;;;;;;;
"1320593";"1994";;"Windows 7";"Rachel's Experiment (D.T.)";"1.0";"2";"1";"1";"2";"1";"1";"2014-09-29 11:29:26.016";"2014-09-29 11:51:57.232";"1";"0";"1";"58";"57";"module.training_block2.exec-8381.GoNoGo2";;;;;;;;;;;;;"1248";"2014-09-29 11:33:07.391";"NST_correctLoc";"17";"0";"FINISHED";"LEFT";"success";"196";"0";"2014-09-29 11:33:06.141";"2";;;;;;;;;;;;;;;;;;;;;;;;;;;;;;;;;;;;;;;;;;;;;
"1320593";"1994";;"Windows 7";"Rachel's Experiment (D.T.)";"1.0";"2";"1";"1";"2";"1";"1";"2014-09-29 11:29:26.016";"2014-09-29 11:51:57.232";"1";"0";"1";"59";"58";"module.training_block2.exec-8381.GoNoGo2";;;;;;;;;;;;;"1248";"2014-09-29 11:33:09.907";"NST_correctLoc";"5";"0";"FINISHED";"LEFT";"success";"360";"0";"2014-09-29 11:33:08.657";"1";;;;;;;;;;;;;;;;;;;;;;;;;;;;;;;;;;;;;;;;;;;;;
"1320593";"1994";;"Windows 7";"Rachel's Experiment (D.T.)";"1.0";"2";"1";"1";"2";"1";"1";"2014-09-29 11:29:26.016";"2014-09-29 11:51:57.232";"1";"0";"1";"60";"59";"module.training_block2.exec-8381.GoNoGo2";;;;;;;;;;;;;"1248";"2014-09-29 11:33:12.422";"NST_correctLoc";"13";"0";"FINISHED";"LEFT";"success";"276";"0";"2014-09-29 11:33:11.172";"2";;;;;;;;;;;;;;;;;;;;;;;;;;;;;;;;;;;;;;;;;;;;;
"1320593";"1994";;"Windows 7";"Rachel's Experiment (D.T.)";"1.0";"2";"1";"1";"2";"1";"1";"2014-09-29 11:29:26.016";"2014-09-29 11:51:57.232";"1";"0";"1";"61";"60";"module.training_block2.exec-8381.GoNoGo2";;;;;;;;;;;;;"1244";"2014-09-29 11:33:14.938";"NST_correctLoc";"30";"1";"FINISHED";"RIGHT";"success";"269";"0";"2014-09-29 11:33:13.688";"3";;;;;;;;;;;;;;;;;;;;;;;;;;;;;;;;;;;;;;;;;;;;;
"1320593";"1994";;"Windows 7";"Rachel's Experiment (D.T.)";"1.0";"2";"1";"1";"2";"1";"1";"2014-09-29 11:29:26.016";"2014-09-29 11:51:57.232";"1";"0";"1";"62";"61";"module.training_block2.exec-8381.GoNoGo2";;;;;;;;;;;;;"1245";"2014-09-29 11:33:17.454";"NST_correctLoc";"19";"1";"FINISHED";"RIGHT";"success";"322";"0";"2014-09-29 11:33:16.204";"3";;;;;;;;;;;;;;;;;;;;;;;;;;;;;;;;;;;;;;;;;;;;;
"1320593";"1994";;"Windows 7";"Rachel's Experiment (D.T.)";"1.0";"2";"1";"1";"2";"1";"1";"2014-09-29 11:29:26.016";"2014-09-29 11:51:57.232";"1";"0";"1";"63";"62";"module.training_block2.exec-8381.GoNoGo2";;;;;;;;;;;;;"1244";"2014-09-29 11:33:19.969";"NST_correctLoc";"0";"0";"FINISHED";"LEFT";"success";"366";"0";"2014-09-29 11:33:18.719";"1";;;;;;;;;;;;;;;;;;;;;;;;;;;;;;;;;;;;;;;;;;;;;
"1320593";"1994";;"Windows 7";"Rachel's Experiment (D.T.)";"1.0";"2";"1";"1";"2";"1";"1";"2014-09-29 11:29:26.016";"2014-09-29 11:51:57.232";"1";"0";"1";"64";"63";"module.training_block2.exec-8381.GoNoGo2";;;;;;;;;;;;;"1248";"2014-09-29 11:33:22.485";"NST_correctLoc";"31";"0";"FINISHED";"LEFT";"success";"334";"0";"2014-09-29 11:33:21.235";"3";;;;;;;;;;;;;;;;;;;;;;;;;;;;;;;;;;;;;;;;;;;;;
"1320593";"1994";;"Windows 7";"Rachel's Experiment (D.T.)";"1.0";"2";"1";"1";"2";"1";"1";"2014-09-29 11:29:26.016";"2014-09-29 11:51:57.232";"1";"0";"1";"65";"64";"module.training_block2.exec-8381.GoNoGo2";;;;;;;;;;;;;"1248";"2014-09-29 11:33:25.016";"NST_correctLoc";"25";"1";"FINISHED";"RIGHT";"success";"290";"0";"2014-09-29 11:33:23.766";"3";;;;;;;;;;;;;;;;;;;;;;;;;;;;;;;;;;;;;;;;;;;;;
"1320593";"1994";;"Windows 7";"Rachel's Experiment (D.T.)";"1.0";"2";"1";"1";"2";"1";"1";"2014-09-29 11:29:26.016";"2014-09-29 11:51:57.232";"1";"0";"1";"66";"65";"module.training_block2.exec-8381.GoNoGo2";;;;;;;;;;;;;"1248";"2014-09-29 11:33:27.532";"NST_correctLoc";"20";"0";"FINISHED";"LEFT";"success";"327";"0";"2014-09-29 11:33:26.282";"3";;;;;;;;;;;;;;;;;;;;;;;;;;;;;;;;;;;;;;;;;;;;;
"1320593";"1994";;"Windows 7";"Rachel's Experiment (D.T.)";"1.0";"2";"1";"1";"2";"1";"1";"2014-09-29 11:29:26.016";"2014-09-29 11:51:57.232";"1";"0";"1";"67";"66";"module.training_block2.exec-8381.GoNoGo2";;;;;;;;;;;;;"1248";"2014-09-29 11:33:30.047";"NST_correctLoc";"27";"1";"FINISHED";"RIGHT";"success";"283";"0";"2014-09-29 11:33:28.797";"3";;;;;;;;;;;;;;;;;;;;;;;;;;;;;;;;;;;;;;;;;;;;;
"1320593";"1994";;"Windows 7";"Rachel's Experiment (D.T.)";"1.0";"2";"1";"1";"2";"1";"1";"2014-09-29 11:29:26.016";"2014-09-29 11:51:57.232";"1";"0";"1";"68";"67";"module.training_block2.exec-8381.GoNoGo2";;;;;;;;;;;;;"1248";"2014-09-29 11:33:32.563";"NST_correctLoc";"2";"0";"FINISHED";"LEFT";"success";"311";"0";"2014-09-29 11:33:31.313";"1";;;;;;;;;;;;;;;;;;;;;;;;;;;;;;;;;;;;;;;;;;;;;
"1320593";"1994";;"Windows 7";"Rachel's Experiment (D.T.)";"1.0";"2";"1";"1";"2";"1";"1";"2014-09-29 11:29:26.016";"2014-09-29 11:51:57.232";"1";"0";"1";"69";"68";"module.training_block2.exec-8381.GoNoGo2";;;;;;;;;;;;;"1248";"2014-09-29 11:33:35.079";"NST_correctLoc";"26";"1";"FINISHED";"RIGHT";"success";"268";"0";"2014-09-29 11:33:33.829";"3";;;;;;;;;;;;;;;;;;;;;;;;;;;;;;;;;;;;;;;;;;;;;
"1320593";"1994";;"Windows 7";"Rachel's Experiment (D.T.)";"1.0";"2";"1";"1";"2";"1";"1";"2014-09-29 11:29:26.016";"2014-09-29 11:51:57.232";"1";"0";"1";"70";"69";"module.training_block2.exec-8381.GoNoGo2";;;;;;;;;;;;;"1249";"2014-09-29 11:33:37.594";"NST_correctLoc";"14";"1";"FINISHED";"RIGHT";"success";"344";"0";"2014-09-29 11:33:36.344";"2";;;;;;;;;;;;;;;;;;;;;;;;;;;;;;;;;;;;;;;;;;;;;
"1320593";"1994";;"Windows 7";"Rachel's Experiment (D.T.)";"1.0";"2";"1";"1";"2";"1";"1";"2014-09-29 11:29:26.016";"2014-09-29 11:51:57.232";"1";"0";"1";"71";"70";"module.training_block2.exec-8381.GoNoGo2";;;;;;;;;;;;;"1248";"2014-09-29 11:33:40.110";"NST_correctLoc";"23";"0";"FINISHED";"LEFT";"success";"300";"0";"2014-09-29 11:33:38.860";"3";;;;;;;;;;;;;;;;;;;;;;;;;;;;;;;;;;;;;;;;;;;;;
"1320593";"1994";;"Windows 7";"Rachel's Experiment (D.T.)";"1.0";"2";"1";"1";"2";"1";"1";"2014-09-29 11:29:26.016";"2014-09-29 11:51:57.232";"1";"0";"1";"72";"71";"module.training_block2.exec-8381.GoNoGo2";;;;;;;;;;;;;"1248";"2014-09-29 11:33:42.625";"NST_correctLoc";"29";"0";"FINISHED";"LEFT";"success";"369";"0";"2014-09-29 11:33:41.375";"3";;;;;;;;;;;;;;;;;;;;;;;;;;;;;;;;;;;;;;;;;;;;;
"1320593";"1994";;"Windows 7";"Rachel's Experiment (D.T.)";"1.0";"2";"1";"1";"2";"1";"1";"2014-09-29 11:29:26.016";"2014-09-29 11:51:57.232";"1";"0";"1";"73";"72";"module.training_block2.exec-8381.GoNoGo2";;;;;;;;;;;;;"1248";"2014-09-29 11:33:45.141";"NST_correctLoc";"4";"0";"FINISHED";"LEFT";"success";"365";"0";"2014-09-29 11:33:43.891";"1";;;;;;;;;;;;;;;;;;;;;;;;;;;;;;;;;;;;;;;;;;;;;
"1320593";"1994";;"Windows 7";"Rachel's Experiment (D.T.)";"1.0";"2";"1";"1";"2";"1";"1";"2014-09-29 11:29:26.016";"2014-09-29 11:51:57.232";"1";"0";"1";"74";"73";"module.training_block2.exec-8381.GoNoGo2";;;;;;;;;;;;;"1244";"2014-09-29 11:33:47.657";"NST_correctLoc";"28";"0";"FINISHED";"LEFT";"success";"293";"0";"2014-09-29 11:33:46.407";"3";;;;;;;;;;;;;;;;;;;;;;;;;;;;;;;;;;;;;;;;;;;;;
"1320593";"1994";;"Windows 7";"Rachel's Experiment (D.T.)";"1.0";"2";"1";"1";"2";"1";"1";"2014-09-29 11:29:26.016";"2014-09-29 11:51:57.232";"1";"0";"1";"75";"74";"module.training_block2.exec-8381.GoNoGo2";;;;;;;;;;;;;"1248";"2014-09-29 11:33:50.172";"NST_correctLoc";"35";"1";"FINISHED";"RIGHT";"success";"326";"0";"2014-09-29 11:33:48.922";"3";;;;;;;;;;;;;;;;;;;;;;;;;;;;;;;;;;;;;;;;;;;;;
"1320593";"1994";;"Windows 7";"Rachel's Experiment (D.T.)";"1.0";"2";"1";"1";"2";"1";"1";"2014-09-29 11:29:26.016";"2014-09-29 11:51:57.232";"1";"0";"1";"76";"75";"module.training_block2.exec-8381.GoNoGo2";;;;;;;;;;;;;"1248";"2014-09-29 11:33:52.688";"NST_correctLoc";"15";"0";"FINISHED";"LEFT";"success";"346";"0";"2014-09-29 11:33:51.438";"2";;;;;;;;;;;;;;;;;;;;;;;;;;;;;;;;;;;;;;;;;;;;;
"1320593";"1994";;"Windows 7";"Rachel's Experiment (D.T.)";"1.0";"2";"1";"1";"2";"1";"1";"2014-09-29 11:29:26.016";"2014-09-29 11:51:57.232";"1";"0";"1";"77";"76";"module.training_block2.exec-8381.GoNoGo2";;;;;;;;;;;;;"1248";"2014-09-29 11:33:55.204";"NST_correctLoc";"1";"1";"FINISHED";"RIGHT";"success";"334";"0";"2014-09-29 11:33:53.954";"1";;;;;;;;;;;;;;;;;;;;;;;;;;;;;;;;;;;;;;;;;;;;;
"1320593";"1994";;"Windows 7";"Rachel's Experiment (D.T.)";"1.0";"2";"1";"1";"2";"1";"1";"2014-09-29 11:29:26.016";"2014-09-29 11:51:57.232";"1";"0";"1";"78";"77";"module.training_block2.exec-8381.GoNoGo2";;;;;;;;;;;;;"1248";"2014-09-29 11:33:57.719";"NST_correctLoc";"16";"0";"FINISHED";"LEFT";"success";"275";"0";"2014-09-29 11:33:56.469";"2";;;;;;;;;;;;;;;;;;;;;;;;;;;;;;;;;;;;;;;;;;;;;
"1320593";"1994";;"Windows 7";"Rachel's Experiment (D.T.)";"1.0";"2";"1";"1";"2";"1";"1";"2014-09-29 11:29:26.016";"2014-09-29 11:51:57.232";"1";"0";"1";"79";"78";"module.training_block2.exec-8381.GoNoGo2";;;;;;;;;;;;;"1248";"2014-09-29 11:34:00.235";"NST_correctLoc";"22";"1";"FINISHED";"RIGHT";"success";"311";"0";"2014-09-29 11:33:58.985";"3";;;;;;;;;;;;;;;;;;;;;;;;;;;;;;;;;;;;;;;;;;;;;
"1320593";"1994";;"Windows 7";"Rachel's Experiment (D.T.)";"1.0";"2";"1";"1";"2";"1";"1";"2014-09-29 11:29:26.016";"2014-09-29 11:51:57.232";"1";"0";"1";"80";"79";"module.training_block2.exec-8381.GoNoGo2";;;;;;;;;;;;;"1245";"2014-09-29 11:34:02.750";"NST_correctLoc";"34";"0";"FINISHED";"LEFT";"success";"264";"0";"2014-09-29 11:34:01.500";"3";;;;;;;;;;;;;;;;;;;;;;;;;;;;;;;;;;;;;;;;;;;;;
"1320593";"1994";;"Windows 7";"Rachel's Experiment (D.T.)";"1.0";"2";"1";"1";"2";"1";"1";"2014-09-29 11:29:26.016";"2014-09-29 11:51:57.232";"1";"0";"1";"81";"80";"module.training_block2.exec-8381.GoNoGo2";;;;;;;;;;;;;"1248";"2014-09-29 11:34:05.266";"NST_correctLoc";"21";"1";"FINISHED";"RIGHT";"success";"272";"0";"2014-09-29 11:34:04.016";"3";;;;;;;;;;;;;;;;;;;;;;;;;;;;;;;;;;;;;;;;;;;;;
"1320593";"1994";;"Windows 7";"Rachel's Experiment (D.T.)";"1.0";"2";"1";"1";"2";"1";"1";"2014-09-29 11:29:26.016";"2014-09-29 11:51:57.232";"1";"0";"1";"82";"81";"module.training_block2.exec-8381.GoNoGo2";;;;;;;;;;;;;"1248";"2014-09-29 11:34:07.782";"NST_correctLoc";"3";"1";"FINISHED";"RIGHT";"success";"372";"0";"2014-09-29 11:34:06.532";"1";;;;;;;;;;;;;;;;;;;;;;;;;;;;;;;;;;;;;;;;;;;;;
"1320593";"1994";;"Windows 7";"Rachel's Experiment (D.T.)";"1.0";"2";"1";"1";"2";"1";"1";"2014-09-29 11:29:26.016";"2014-09-29 11:51:57.232";"1";"0";"1";"83";"82";"module.training_block2.exec-8381.GoNoGo2";;;;;;;;;;;;;"1248";"2014-09-29 11:34:10.297";"NST_correctLoc";"18";"1";"FINISHED";"RIGHT";"success";"352";"0";"2014-09-29 11:34:09.047";"3";;;;;;;;;;;;;;;;;;;;;;;;;;;;;;;;;;;;;;;;;;;;;
"1320593";"1994";;"Windows 7";"Rachel's Experiment (D.T.)";"1.0";"2";"1";"1";"2";"1";"1";"2014-09-29 11:29:26.016";"2014-09-29 11:51:57.232";"1";"0";"1";"84";"83";"module.training_block2.exec-8381.GoNoGo2";;;;;;;;;;;;;"1248";"2014-09-29 11:34:12.797";"NST_correctLoc";"32";"1";"FINISHED";"RIGHT";"success";"324";"0";"2014-09-29 11:34:11.547";"3";;;;;;;;;;;;;;;;;;;;;;;;;;;;;;;;;;;;;;;;;;;;;
"1320593";"1994";;"Windows 7";"Rachel's Experiment (D.T.)";"1.0";"2";"1";"1";"2";"1";"1";"2014-09-29 11:29:26.016";"2014-09-29 11:51:57.232";"1";"0";"1";"85";"84";"module.training_block2.exec-8381.GoNoGo2";;;;;;;;;;;;;"1248";"2014-09-29 11:34:15.313";"NST_correctLoc";"6";"1";"FINISHED";"RIGHT";"success";"369";"0";"2014-09-29 11:34:14.063";"1";;;;;;;;;;;;;;;;;;;;;;;;;;;;;;;;;;;;;;;;;;;;;
"1320593";"1994";;"Windows 7";"Rachel's Experiment (D.T.)";"1.0";"2";"1";"1";"2";"1";"1";"2014-09-29 11:29:26.016";"2014-09-29 11:51:57.232";"1";"0";"1";"86";"85";"module.training_block2.exec-8381.GoNoGo2";;;;;;;;;;;;;"1244";"2014-09-29 11:34:17.829";"NST_correctLoc";"9";"1";"FINISHED";"RIGHT";"success";"337";"0";"2014-09-29 11:34:16.579";"2";;;;;;;;;;;;;;;;;;;;;;;;;;;;;;;;;;;;;;;;;;;;;
"1320593";"1994";;"Windows 7";"Rachel's Experiment (D.T.)";"1.0";"2";"1";"1";"2";"1";"1";"2014-09-29 11:29:26.016";"2014-09-29 11:51:57.232";"1";"0";"1";"87";"86";"module.training_block2.exec-8381.GoNoGo2";;;;;;;;;;;;;"1248";"2014-09-29 11:34:20.329";"NST_correctLoc";"24";"0";"FINISHED";"LEFT";"success";"337";"0";"2014-09-29 11:34:19.079";"3";;;;;;;;;;;;;;;;;;;;;;;;;;;;;;;;;;;;;;;;;;;;;
"1320593";"1994";;"Windows 7";"Rachel's Experiment (D.T.)";"1.0";"2";"1";"1";"2";"1";"1";"2014-09-29 11:29:26.016";"2014-09-29 11:51:57.232";"1";"0";"1";"88";"87";"module.training_block3.exec-8011.GoNoGo3";;;;;;;;;;;;;;;;;;;;;;;;;"1248";"2014-09-29 11:34:32.969";"NST_correctLoc";"31";"0";"FINISHED";"LEFT";"success";"312";"0";"2014-09-29 11:34:31.719";"3";;;;;;;;;;;;;;;;;;;;;;;;;;;;;;;;;
"1320593";"1994";;"Windows 7";"Rachel's Experiment (D.T.)";"1.0";"2";"1";"1";"2";"1";"1";"2014-09-29 11:29:26.016";"2014-09-29 11:51:57.232";"1";"0";"1";"89";"88";"module.training_block3.exec-8011.GoNoGo3";;;;;;;;;;;;;;;;;;;;;;;;;"1248";"2014-09-29 11:34:35.485";"NST_correctLoc";"6";"1";"FINISHED";"RIGHT";"success";"292";"0";"2014-09-29 11:34:34.235";"1";;;;;;;;;;;;;;;;;;;;;;;;;;;;;;;;;
"1320593";"1994";;"Windows 7";"Rachel's Experiment (D.T.)";"1.0";"2";"1";"1";"2";"1";"1";"2014-09-29 11:29:26.016";"2014-09-29 11:51:57.232";"1";"0";"1";"90";"89";"module.training_block3.exec-8011.GoNoGo3";;;;;;;;;;;;;;;;;;;;;;;;;"1248";"2014-09-29 11:34:37.985";"NST_correctLoc";"13";"1";"FINISHED";"RIGHT";"success";"360";"0";"2014-09-29 11:34:36.735";"2";;;;;;;;;;;;;;;;;;;;;;;;;;;;;;;;;
"1320593";"1994";;"Windows 7";"Rachel's Experiment (D.T.)";"1.0";"2";"1";"1";"2";"1";"1";"2014-09-29 11:29:26.016";"2014-09-29 11:51:57.232";"1";"0";"1";"91";"90";"module.training_block3.exec-8011.GoNoGo3";;;;;;;;;;;;;;;;;;;;;;;;;"1248";"2014-09-29 11:34:40.485";"NST_correctLoc";"27";"1";"FINISHED";"RIGHT";"success";"324";"0";"2014-09-29 11:34:39.235";"3";;;;;;;;;;;;;;;;;;;;;;;;;;;;;;;;;
"1320593";"1994";;"Windows 7";"Rachel's Experiment (D.T.)";"1.0";"2";"1";"1";"2";"1";"1";"2014-09-29 11:29:26.016";"2014-09-29 11:51:57.232";"1";"0";"1";"92";"91";"module.training_block3.exec-8011.GoNoGo3";;;;;;;;;;;;;;;;;;;;;;;;;"1248";"2014-09-29 11:34:42.985";"NST_correctLoc";"8";"1";"FINISHED";"RIGHT";"success";"312";"0";"2014-09-29 11:34:41.735";"1";;;;;;;;;;;;;;;;;;;;;;;;;;;;;;;;;
"1320593";"1994";;"Windows 7";"Rachel's Experiment (D.T.)";"1.0";"2";"1";"1";"2";"1";"1";"2014-09-29 11:29:26.016";"2014-09-29 11:51:57.232";"1";"0";"1";"93";"92";"module.training_block3.exec-8011.GoNoGo3";;;;;;;;;;;;;;;;;;;;;;;;;"1248";"2014-09-29 11:34:45.485";"NST_correctLoc";"23";"0";"FINISHED";"LEFT";"success";"300";"0";"2014-09-29 11:34:44.235";"3";;;;;;;;;;;;;;;;;;;;;;;;;;;;;;;;;
"1320593";"1994";;"Windows 7";"Rachel's Experiment (D.T.)";"1.0";"2";"1";"1";"2";"1";"1";"2014-09-29 11:29:26.016";"2014-09-29 11:51:57.232";"1";"0";"1";"94";"93";"module.training_block3.exec-8011.GoNoGo3";;;;;;;;;;;;;;;;;;;;;;;;;"1248";"2014-09-29 11:34:47.985";"NST_correctLoc";"35";"0";"FINISHED";"LEFT";"success";"320";"0";"2014-09-29 11:34:46.735";"3";;;;;;;;;;;;;;;;;;;;;;;;;;;;;;;;;
"1320593";"1994";;"Windows 7";"Rachel's Experiment (D.T.)";"1.0";"2";"1";"1";"2";"1";"1";"2014-09-29 11:29:26.016";"2014-09-29 11:51:57.232";"1";"0";"1";"95";"94";"module.training_block3.exec-8011.GoNoGo3";;;;;;;;;;;;;;;;;;;;;;;;;"1248";"2014-09-29 11:34:50.485";"NST_correctLoc";"4";"1";"FINISHED";"RIGHT";"success";"276";"0";"2014-09-29 11:34:49.235";"1";;;;;;;;;;;;;;;;;;;;;;;;;;;;;;;;;
"1320593";"1994";;"Windows 7";"Rachel's Experiment (D.T.)";"1.0";"2";"1";"1";"2";"1";"1";"2014-09-29 11:29:26.016";"2014-09-29 11:51:57.232";"1";"0";"1";"96";"95";"module.training_block3.exec-8011.GoNoGo3";;;;;;;;;;;;;;;;;;;;;;;;;"1248";"2014-09-29 11:34:52.985";"NST_correctLoc";"2";"0";"FINISHED";"LEFT";"success";"304";"0";"2014-09-29 11:34:51.735";"1";;;;;;;;;;;;;;;;;;;;;;;;;;;;;;;;;
"1320593";"1994";;"Windows 7";"Rachel's Experiment (D.T.)";"1.0";"2";"1";"1";"2";"1";"1";"2014-09-29 11:29:26.016";"2014-09-29 11:51:57.232";"1";"0";"1";"97";"96";"module.training_block3.exec-8011.GoNoGo3";;;;;;;;;;;;;;;;;;;;;;;;;"1248";"2014-09-29 11:34:55.485";"NST_correctLoc";"26";"0";"FINISHED";"LEFT";"success";"332";"0";"2014-09-29 11:34:54.235";"3";;;;;;;;;;;;;;;;;;;;;;;;;;;;;;;;;
"1320593";"1994";;"Windows 7";"Rachel's Experiment (D.T.)";"1.0";"2";"1";"1";"2";"1";"1";"2014-09-29 11:29:26.016";"2014-09-29 11:51:57.232";"1";"0";"1";"98";"97";"module.training_block3.exec-8011.GoNoGo3";;;;;;;;;;;;;;;;;;;;;;;;;"1248";"2014-09-29 11:34:57.985";"NST_correctLoc";"22";"0";"FINISHED";"LEFT";"success";"320";"0";"2014-09-29 11:34:56.735";"3";;;;;;;;;;;;;;;;;;;;;;;;;;;;;;;;;
"1320593";"1994";;"Windows 7";"Rachel's Experiment (D.T.)";"1.0";"2";"1";"1";"2";"1";"1";"2014-09-29 11:29:26.016";"2014-09-29 11:51:57.232";"1";"0";"1";"99";"98";"module.training_block3.exec-8011.GoNoGo3";;;;;;;;;;;;;;;;;;;;;;;;;"1248";"2014-09-29 11:35:00.485";"NST_correctLoc";"24";"1";"FINISHED";"RIGHT";"success";"580";"0";"2014-09-29 11:34:59.235";"3";;;;;;;;;;;;;;;;;;;;;;;;;;;;;;;;;
"1320593";"1994";;"Windows 7";"Rachel's Experiment (D.T.)";"1.0";"2";"1";"1";"2";"1";"1";"2014-09-29 11:29:26.016";"2014-09-29 11:51:57.232";"1";"0";"1";"100";"99";"module.training_block3.exec-8011.GoNoGo3";;;;;;;;;;;;;;;;;;;;;;;;;"1248";"2014-09-29 11:35:02.985";"NST_correctLoc";"21";"0";"FINISHED";"LEFT";"success";"424";"0";"2014-09-29 11:35:01.735";"3";;;;;;;;;;;;;;;;;;;;;;;;;;;;;;;;;
"1320593";"1994";;"Windows 7";"Rachel's Experiment (D.T.)";"1.0";"2";"1";"1";"2";"1";"1";"2014-09-29 11:29:26.016";"2014-09-29 11:51:57.232";"1";"0";"1";"101";"100";"module.training_block3.exec-8011.GoNoGo3";;;;;;;;;;;;;;;;;;;;;;;;;"1248";"2014-09-29 11:35:05.485";"NST_correctLoc";"17";"1";"FINISHED";"RIGHT";"success";"316";"0";"2014-09-29 11:35:04.235";"2";;;;;;;;;;;;;;;;;;;;;;;;;;;;;;;;;
"1320593";"1994";;"Windows 7";"Rachel's Experiment (D.T.)";"1.0";"2";"1";"1";"2";"1";"1";"2014-09-29 11:29:26.016";"2014-09-29 11:51:57.232";"1";"0";"1";"102";"101";"module.training_block3.exec-8011.GoNoGo3";;;;;;;;;;;;;;;;;;;;;;;;;"1248";"2014-09-29 11:35:07.985";"NST_correctLoc";"5";"1";"FINISHED";"RIGHT";"success";"352";"0";"2014-09-29 11:35:06.735";"1";;;;;;;;;;;;;;;;;;;;;;;;;;;;;;;;;
"1320593";"1994";;"Windows 7";"Rachel's Experiment (D.T.)";"1.0";"2";"1";"1";"2";"1";"1";"2014-09-29 11:29:26.016";"2014-09-29 11:51:57.232";"1";"0";"1";"103";"102";"module.training_block3.exec-8011.GoNoGo3";;;;;;;;;;;;;;;;;;;;;;;;;"1248";"2014-09-29 11:35:10.485";"NST_correctLoc";"12";"1";"FINISHED";"RIGHT";"success";"356";"0";"2014-09-29 11:35:09.235";"2";;;;;;;;;;;;;;;;;;;;;;;;;;;;;;;;;
"1320593";"1994";;"Windows 7";"Rachel's Experiment (D.T.)";"1.0";"2";"1";"1";"2";"1";"1";"2014-09-29 11:29:26.016";"2014-09-29 11:51:57.232";"1";"0";"1";"104";"103";"module.training_block3.exec-8011.GoNoGo3";;;;;;;;;;;;;;;;;;;;;;;;;"1248";"2014-09-29 11:35:12.985";"NST_correctLoc";"34";"0";"FINISHED";"LEFT";"success";"312";"0";"2014-09-29 11:35:11.735";"3";;;;;;;;;;;;;;;;;;;;;;;;;;;;;;;;;
"1320593";"1994";;"Windows 7";"Rachel's Experiment (D.T.)";"1.0";"2";"1";"1";"2";"1";"1";"2014-09-29 11:29:26.016";"2014-09-29 11:51:57.232";"1";"0";"1";"105";"104";"module.training_block3.exec-8011.GoNoGo3";;;;;;;;;;;;;;;;;;;;;;;;;"1248";"2014-09-29 11:35:15.485";"NST_correctLoc";"10";"0";"FINISHED";"LEFT";"success";"268";"0";"2014-09-29 11:35:14.235";"2";;;;;;;;;;;;;;;;;;;;;;;;;;;;;;;;;
"1320593";"1994";;"Windows 7";"Rachel's Experiment (D.T.)";"1.0";"2";"1";"1";"2";"1";"1";"2014-09-29 11:29:26.016";"2014-09-29 11:51:57.232";"1";"0";"1";"106";"105";"module.training_block3.exec-8011.GoNoGo3";;;;;;;;;;;;;;;;;;;;;;;;;"1248";"2014-09-29 11:35:17.985";"NST_correctLoc";"7";"1";"FINISHED";"RIGHT";"success";"328";"0";"2014-09-29 11:35:16.735";"1";;;;;;;;;;;;;;;;;;;;;;;;;;;;;;;;;
"1320593";"1994";;"Windows 7";"Rachel's Experiment (D.T.)";"1.0";"2";"1";"1";"2";"1";"1";"2014-09-29 11:29:26.016";"2014-09-29 11:51:57.232";"1";"0";"1";"107";"106";"module.training_block3.exec-8011.GoNoGo3";;;;;;;;;;;;;;;;;;;;;;;;;"1248";"2014-09-29 11:35:20.485";"NST_correctLoc";"32";"1";"FINISHED";"RIGHT";"success";"292";"0";"2014-09-29 11:35:19.235";"3";;;;;;;;;;;;;;;;;;;;;;;;;;;;;;;;;
"1320593";"1994";;"Windows 7";"Rachel's Experiment (D.T.)";"1.0";"2";"1";"1";"2";"1";"1";"2014-09-29 11:29:26.016";"2014-09-29 11:51:57.232";"1";"0";"1";"108";"107";"module.training_block3.exec-8011.GoNoGo3";;;;;;;;;;;;;;;;;;;;;;;;;"1248";"2014-09-29 11:35:22.985";"NST_correctLoc";"1";"1";"FINISHED";"RIGHT";"success";"312";"0";"2014-09-29 11:35:21.735";"1";;;;;;;;;;;;;;;;;;;;;;;;;;;;;;;;;
"1320593";"1994";;"Windows 7";"Rachel's Experiment (D.T.)";"1.0";"2";"1";"1";"2";"1";"1";"2014-09-29 11:29:26.016";"2014-09-29 11:51:57.232";"1";"0";"1";"109";"108";"module.training_block3.exec-8011.GoNoGo3";;;;;;;;;;;;;;;;;;;;;;;;;"1248";"2014-09-29 11:35:25.485";"NST_correctLoc";"14";"1";"FINISHED";"RIGHT";"success";"260";"0";"2014-09-29 11:35:24.235";"2";;;;;;;;;;;;;;;;;;;;;;;;;;;;;;;;;
"1320593";"1994";;"Windows 7";"Rachel's Experiment (D.T.)";"1.0";"2";"1";"1";"2";"1";"1";"2014-09-29 11:29:26.016";"2014-09-29 11:51:57.232";"1";"0";"1";"110";"109";"module.training_block3.exec-8011.GoNoGo3";;;;;;;;;;;;;;;;;;;;;;;;;"1248";"2014-09-29 11:35:28.000";"NST_correctLoc";"16";"1";"FINISHED";"RIGHT";"success";"304";"0";"2014-09-29 11:35:26.750";"2";;;;;;;;;;;;;;;;;;;;;;;;;;;;;;;;;
"1320593";"1994";;"Windows 7";"Rachel's Experiment (D.T.)";"1.0";"2";"1";"1";"2";"1";"1";"2014-09-29 11:29:26.016";"2014-09-29 11:51:57.232";"1";"0";"1";"111";"110";"module.training_block3.exec-8011.GoNoGo3";;;;;;;;;;;;;;;;;;;;;;;;;"1248";"2014-09-29 11:35:30.500";"NST_correctLoc";"18";"1";"FINISHED";"RIGHT";"success";"364";"0";"2014-09-29 11:35:29.250";"3";;;;;;;;;;;;;;;;;;;;;;;;;;;;;;;;;
"1320593";"1994";;"Windows 7";"Rachel's Experiment (D.T.)";"1.0";"2";"1";"1";"2";"1";"1";"2014-09-29 11:29:26.016";"2014-09-29 11:51:57.232";"1";"0";"1";"112";"111";"module.training_block3.exec-8011.GoNoGo3";;;;;;;;;;;;;;;;;;;;;;;;;"1248";"2014-09-29 11:35:33.016";"NST_correctLoc";"20";"1";"FINISHED";"RIGHT";"success";"424";"0";"2014-09-29 11:35:31.766";"3";;;;;;;;;;;;;;;;;;;;;;;;;;;;;;;;;
"1320593";"1994";;"Windows 7";"Rachel's Experiment (D.T.)";"1.0";"2";"1";"1";"2";"1";"1";"2014-09-29 11:29:26.016";"2014-09-29 11:51:57.232";"1";"0";"1";"113";"112";"module.training_block3.exec-8011.GoNoGo3";;;;;;;;;;;;;;;;;;;;;;;;;"1244";"2014-09-29 11:35:35.532";"NST_correctLoc";"28";"1";"FINISHED";"RIGHT";"success";"304";"0";"2014-09-29 11:35:34.282";"3";;;;;;;;;;;;;;;;;;;;;;;;;;;;;;;;;
"1320593";"1994";;"Windows 7";"Rachel's Experiment (D.T.)";"1.0";"2";"1";"1";"2";"1";"1";"2014-09-29 11:29:26.016";"2014-09-29 11:51:57.232";"1";"0";"1";"114";"113";"module.training_block3.exec-8011.GoNoGo3";;;;;;;;;;;;;;;;;;;;;;;;;"1245";"2014-09-29 11:35:38.032";"NST_correctLoc";"0";"1";"FINISHED";"RIGHT";"success";"285";"0";"2014-09-29 11:35:36.782";"1";;;;;;;;;;;;;;;;;;;;;;;;;;;;;;;;;
"1320593";"1994";;"Windows 7";"Rachel's Experiment (D.T.)";"1.0";"2";"1";"1";"2";"1";"1";"2014-09-29 11:29:26.016";"2014-09-29 11:51:57.232";"1";"0";"1";"115";"114";"module.training_block3.exec-8011.GoNoGo3";;;;;;;;;;;;;;;;;;;;;;;;;"1248";"2014-09-29 11:35:40.532";"NST_correctLoc";"25";"0";"FINISHED";"LEFT";"success";"276";"0";"2014-09-29 11:35:39.282";"3";;;;;;;;;;;;;;;;;;;;;;;;;;;;;;;;;
"1320593";"1994";;"Windows 7";"Rachel's Experiment (D.T.)";"1.0";"2";"1";"1";"2";"1";"1";"2014-09-29 11:29:26.016";"2014-09-29 11:51:57.232";"1";"0";"1";"116";"115";"module.training_block3.exec-8011.GoNoGo3";;;;;;;;;;;;;;;;;;;;;;;;;"1248";"2014-09-29 11:35:43.032";"NST_correctLoc";"15";"0";"FINISHED";"LEFT";"success";"328";"0";"2014-09-29 11:35:41.782";"2";;;;;;;;;;;;;;;;;;;;;;;;;;;;;;;;;
"1320593";"1994";;"Windows 7";"Rachel's Experiment (D.T.)";"1.0";"2";"1";"1";"2";"1";"1";"2014-09-29 11:29:26.016";"2014-09-29 11:51:57.232";"1";"0";"1";"117";"116";"module.training_block3.exec-8011.GoNoGo3";;;;;;;;;;;;;;;;;;;;;;;;;"1248";"2014-09-29 11:35:45.532";"NST_correctLoc";"33";"1";"FINISHED";"RIGHT";"success";"316";"0";"2014-09-29 11:35:44.282";"3";;;;;;;;;;;;;;;;;;;;;;;;;;;;;;;;;
"1320593";"1994";;"Windows 7";"Rachel's Experiment (D.T.)";"1.0";"2";"1";"1";"2";"1";"1";"2014-09-29 11:29:26.016";"2014-09-29 11:51:57.232";"1";"0";"1";"118";"117";"module.training_block3.exec-8011.GoNoGo3";;;;;;;;;;;;;;;;;;;;;;;;;"1248";"2014-09-29 11:35:48.032";"NST_correctLoc";"11";"0";"FINISHED";"LEFT";"success";"280";"0";"2014-09-29 11:35:46.782";"2";;;;;;;;;;;;;;;;;;;;;;;;;;;;;;;;;
"1320593";"1994";;"Windows 7";"Rachel's Experiment (D.T.)";"1.0";"2";"1";"1";"2";"1";"1";"2014-09-29 11:29:26.016";"2014-09-29 11:51:57.232";"1";"0";"1";"119";"118";"module.training_block3.exec-8011.GoNoGo3";;;;;;;;;;;;;;;;;;;;;;;;;"1245";"2014-09-29 11:35:50.532";"NST_correctLoc";"30";"1";"FINISHED";"RIGHT";"success";"313";"0";"2014-09-29 11:35:49.282";"3";;;;;;;;;;;;;;;;;;;;;;;;;;;;;;;;;
"1320593";"1994";;"Windows 7";"Rachel's Experiment (D.T.)";"1.0";"2";"1";"1";"2";"1";"1";"2014-09-29 11:29:26.016";"2014-09-29 11:51:57.232";"1";"0";"1";"120";"119";"module.training_block3.exec-8011.GoNoGo3";;;;;;;;;;;;;;;;;;;;;;;;;"1248";"2014-09-29 11:35:53.032";"NST_correctLoc";"3";"0";"FINISHED";"LEFT";"success";"248";"0";"2014-09-29 11:35:51.782";"1";;;;;;;;;;;;;;;;;;;;;;;;;;;;;;;;;
"1320593";"1994";;"Windows 7";"Rachel's Experiment (D.T.)";"1.0";"2";"1";"1";"2";"1";"1";"2014-09-29 11:29:26.016";"2014-09-29 11:51:57.232";"1";"0";"1";"121";"120";"module.training_block3.exec-8011.GoNoGo3";;;;;;;;;;;;;;;;;;;;;;;;;"1248";"2014-09-29 11:35:55.532";"NST_correctLoc";"29";"1";"FINISHED";"RIGHT";"success";"252";"0";"2014-09-29 11:35:54.282";"3";;;;;;;;;;;;;;;;;;;;;;;;;;;;;;;;;
"1320593";"1994";;"Windows 7";"Rachel's Experiment (D.T.)";"1.0";"2";"1";"1";"2";"1";"1";"2014-09-29 11:29:26.016";"2014-09-29 11:51:57.232";"1";"0";"1";"122";"121";"module.training_block3.exec-8011.GoNoGo3";;;;;;;;;;;;;;;;;;;;;;;;;"1248";"2014-09-29 11:35:58.032";"NST_correctLoc";"9";"0";"FINISHED";"LEFT";"success";"272";"0";"2014-09-29 11:35:56.782";"2";;;;;;;;;;;;;;;;;;;;;;;;;;;;;;;;;
"1320593";"1994";;"Windows 7";"Rachel's Experiment (D.T.)";"1.0";"2";"1";"1";"2";"1";"1";"2014-09-29 11:29:26.016";"2014-09-29 11:51:57.232";"1";"0";"1";"123";"122";"module.training_block3.exec-8011.GoNoGo3";;;;;;;;;;;;;;;;;;;;;;;;;"1245";"2014-09-29 11:36:00.532";"NST_correctLoc";"19";"0";"FINISHED";"LEFT";"success";"369";"0";"2014-09-29 11:35:59.282";"3";;;;;;;;;;;;;;;;;;;;;;;;;;;;;;;;;
"1320593";"1994";;"Windows 7";"Rachel's Experiment (D.T.)";"1.0";"2";"1";"1";"2";"1";"1";"2014-09-29 11:29:26.016";"2014-09-29 11:51:57.232";"1";"0";"1";"124";"123";"module.training_block4.exec-5458.GoNoGo4";;;;;;;;;;;;;;;;;;;;;;;;;;;;;;;;;;;;;"1248";"2014-09-29 11:36:10.735";"NST_correctLoc";"1";"0";"FINISHED";"LEFT";"success";"585";"0";"2014-09-29 11:36:09.485";"1";;;;;;;;;;;;;;;;;;;;;
"1320593";"1994";;"Windows 7";"Rachel's Experiment (D.T.)";"1.0";"2";"1";"1";"2";"1";"1";"2014-09-29 11:29:26.016";"2014-09-29 11:51:57.232";"1";"0";"1";"125";"124";"module.training_block4.exec-5458.GoNoGo4";;;;;;;;;;;;;;;;;;;;;;;;;;;;;;;;;;;;;"1248";"2014-09-29 11:36:13.235";"NST_correctLoc";"22";"0";"FINISHED";"LEFT";"success";"309";"0";"2014-09-29 11:36:11.985";"3";;;;;;;;;;;;;;;;;;;;;
"1320593";"1994";;"Windows 7";"Rachel's Experiment (D.T.)";"1.0";"2";"1";"1";"2";"1";"1";"2014-09-29 11:29:26.016";"2014-09-29 11:51:57.232";"1";"0";"1";"126";"125";"module.training_block4.exec-5458.GoNoGo4";;;;;;;;;;;;;;;;;;;;;;;;;;;;;;;;;;;;;"1248";"2014-09-29 11:36:15.735";"NST_correctLoc";"32";"0";"FINISHED";"LEFT";"success";"265";"0";"2014-09-29 11:36:14.485";"3";;;;;;;;;;;;;;;;;;;;;
"1320593";"1994";;"Windows 7";"Rachel's Experiment (D.T.)";"1.0";"2";"1";"1";"2";"1";"1";"2014-09-29 11:29:26.016";"2014-09-29 11:51:57.232";"1";"0";"1";"127";"126";"module.training_block4.exec-5458.GoNoGo4";;;;;;;;;;;;;;;;;;;;;;;;;;;;;;;;;;;;;"1248";"2014-09-29 11:36:18.235";"NST_correctLoc";"3";"1";"FINISHED";"RIGHT";"success";"261";"0";"2014-09-29 11:36:16.985";"1";;;;;;;;;;;;;;;;;;;;;
"1320593";"1994";;"Windows 7";"Rachel's Experiment (D.T.)";"1.0";"2";"1";"1";"2";"1";"1";"2014-09-29 11:29:26.016";"2014-09-29 11:51:57.232";"1";"0";"1";"128";"127";"module.training_block4.exec-5458.GoNoGo4";;;;;;;;;;;;;;;;;;;;;;;;;;;;;;;;;;;;;"1248";"2014-09-29 11:36:20.735";"NST_correctLoc";"19";"0";"FINISHED";"LEFT";"success";"289";"0";"2014-09-29 11:36:19.485";"3";;;;;;;;;;;;;;;;;;;;;
"1320593";"1994";;"Windows 7";"Rachel's Experiment (D.T.)";"1.0";"2";"1";"1";"2";"1";"1";"2014-09-29 11:29:26.016";"2014-09-29 11:51:57.232";"1";"0";"1";"129";"128";"module.training_block4.exec-5458.GoNoGo4";;;;;;;;;;;;;;;;;;;;;;;;;;;;;;;;;;;;;"1248";"2014-09-29 11:36:23.235";"NST_correctLoc";"27";"1";"FINISHED";"RIGHT";"success";"293";"0";"2014-09-29 11:36:21.985";"3";;;;;;;;;;;;;;;;;;;;;
"1320593";"1994";;"Windows 7";"Rachel's Experiment (D.T.)";"1.0";"2";"1";"1";"2";"1";"1";"2014-09-29 11:29:26.016";"2014-09-29 11:51:57.232";"1";"0";"1";"130";"129";"module.training_block4.exec-5458.GoNoGo4";;;;;;;;;;;;;;;;;;;;;;;;;;;;;;;;;;;;;"1248";"2014-09-29 11:36:25.735";"NST_correctLoc";"7";"0";"FINISHED";"LEFT";"success";"289";"0";"2014-09-29 11:36:24.485";"1";;;;;;;;;;;;;;;;;;;;;
"1320593";"1994";;"Windows 7";"Rachel's Experiment (D.T.)";"1.0";"2";"1";"1";"2";"1";"1";"2014-09-29 11:29:26.016";"2014-09-29 11:51:57.232";"1";"0";"1";"131";"130";"module.training_block4.exec-5458.GoNoGo4";;;;;;;;;;;;;;;;;;;;;;;;;;;;;;;;;;;;;"1248";"2014-09-29 11:36:28.235";"NST_correctLoc";"8";"1";"FINISHED";"RIGHT";"success";"269";"0";"2014-09-29 11:36:26.985";"1";;;;;;;;;;;;;;;;;;;;;
"1320593";"1994";;"Windows 7";"Rachel's Experiment (D.T.)";"1.0";"2";"1";"1";"2";"1";"1";"2014-09-29 11:29:26.016";"2014-09-29 11:51:57.232";"1";"0";"1";"132";"131";"module.training_block4.exec-5458.GoNoGo4";;;;;;;;;;;;;;;;;;;;;;;;;;;;;;;;;;;;;"1248";"2014-09-29 11:36:30.735";"NST_correctLoc";"0";"0";"FINISHED";"LEFT";"success";"257";"0";"2014-09-29 11:36:29.485";"1";;;;;;;;;;;;;;;;;;;;;
"1320593";"1994";;"Windows 7";"Rachel's Experiment (D.T.)";"1.0";"2";"1";"1";"2";"1";"1";"2014-09-29 11:29:26.016";"2014-09-29 11:51:57.232";"1";"0";"1";"133";"132";"module.training_block4.exec-5458.GoNoGo4";;;;;;;;;;;;;;;;;;;;;;;;;;;;;;;;;;;;;"1248";"2014-09-29 11:36:33.235";"NST_correctLoc";"33";"1";"FINISHED";"RIGHT";"success";"276";"0";"2014-09-29 11:36:31.985";"3";;;;;;;;;;;;;;;;;;;;;
"1320593";"1994";;"Windows 7";"Rachel's Experiment (D.T.)";"1.0";"2";"1";"1";"2";"1";"1";"2014-09-29 11:29:26.016";"2014-09-29 11:51:57.232";"1";"0";"1";"134";"133";"module.training_block4.exec-5458.GoNoGo4";;;;;;;;;;;;;;;;;;;;;;;;;;;;;;;;;;;;;"1248";"2014-09-29 11:36:35.735";"NST_correctLoc";"18";"0";"FINISHED";"LEFT";"success";"280";"0";"2014-09-29 11:36:34.485";"3";;;;;;;;;;;;;;;;;;;;;
"1320593";"1994";;"Windows 7";"Rachel's Experiment (D.T.)";"1.0";"2";"1";"1";"2";"1";"1";"2014-09-29 11:29:26.016";"2014-09-29 11:51:57.232";"1";"0";"1";"135";"134";"module.training_block4.exec-5458.GoNoGo4";;;;;;;;;;;;;;;;;;;;;;;;;;;;;;;;;;;;;"1248";"2014-09-29 11:36:38.235";"NST_correctLoc";"31";"0";"FINISHED";"LEFT";"success";"340";"0";"2014-09-29 11:36:36.985";"3";;;;;;;;;;;;;;;;;;;;;
"1320593";"1994";;"Windows 7";"Rachel's Experiment (D.T.)";"1.0";"2";"1";"1";"2";"1";"1";"2014-09-29 11:29:26.016";"2014-09-29 11:51:57.232";"1";"0";"1";"136";"135";"module.training_block4.exec-5458.GoNoGo4";;;;;;;;;;;;;;;;;;;;;;;;;;;;;;;;;;;;;"1248";"2014-09-29 11:36:40.735";"NST_correctLoc";"24";"0";"FINISHED";"LEFT";"success";"288";"0";"2014-09-29 11:36:39.485";"3";;;;;;;;;;;;;;;;;;;;;
"1320593";"1994";;"Windows 7";"Rachel's Experiment (D.T.)";"1.0";"2";"1";"1";"2";"1";"1";"2014-09-29 11:29:26.016";"2014-09-29 11:51:57.232";"1";"0";"1";"137";"136";"module.training_block4.exec-5458.GoNoGo4";;;;;;;;;;;;;;;;;;;;;;;;;;;;;;;;;;;;;"1248";"2014-09-29 11:36:43.235";"NST_correctLoc";"4";"1";"FINISHED";"RIGHT";"success";"276";"0";"2014-09-29 11:36:41.985";"1";;;;;;;;;;;;;;;;;;;;;
"1320593";"1994";;"Windows 7";"Rachel's Experiment (D.T.)";"1.0";"2";"1";"1";"2";"1";"1";"2014-09-29 11:29:26.016";"2014-09-29 11:51:57.232";"1";"0";"1";"138";"137";"module.training_block4.exec-5458.GoNoGo4";;;;;;;;;;;;;;;;;;;;;;;;;;;;;;;;;;;;;"1248";"2014-09-29 11:36:45.750";"NST_correctLoc";"10";"1";"FINISHED";"RIGHT";"success";"321";"0";"2014-09-29 11:36:44.500";"2";;;;;;;;;;;;;;;;;;;;;
"1320593";"1994";;"Windows 7";"Rachel's Experiment (D.T.)";"1.0";"2";"1";"1";"2";"1";"1";"2014-09-29 11:29:26.016";"2014-09-29 11:51:57.232";"1";"0";"1";"139";"138";"module.training_block4.exec-5458.GoNoGo4";;;;;;;;;;;;;;;;;;;;;;;;;;;;;;;;;;;;;"1248";"2014-09-29 11:36:48.250";"NST_correctLoc";"12";"0";"FINISHED";"LEFT";"success";"476";"0";"2014-09-29 11:36:47.000";"2";;;;;;;;;;;;;;;;;;;;;
"1320593";"1994";;"Windows 7";"Rachel's Experiment (D.T.)";"1.0";"2";"1";"1";"2";"1";"1";"2014-09-29 11:29:26.016";"2014-09-29 11:51:57.232";"1";"0";"1";"140";"139";"module.training_block4.exec-5458.GoNoGo4";;;;;;;;;;;;;;;;;;;;;;;;;;;;;;;;;;;;;"1248";"2014-09-29 11:36:50.750";"NST_correctLoc";"11";"0";"FINISHED";"LEFT";"success";"328";"0";"2014-09-29 11:36:49.500";"2";;;;;;;;;;;;;;;;;;;;;
"1320593";"1994";;"Windows 7";"Rachel's Experiment (D.T.)";"1.0";"2";"1";"1";"2";"1";"1";"2014-09-29 11:29:26.016";"2014-09-29 11:51:57.232";"1";"0";"1";"141";"140";"module.training_block4.exec-5458.GoNoGo4";;;;;;;;;;;;;;;;;;;;;;;;;;;;;;;;;;;;;"1248";"2014-09-29 11:36:53.250";"NST_correctLoc";"13";"0";"FINISHED";"LEFT";"success";"332";"0";"2014-09-29 11:36:52.000";"2";;;;;;;;;;;;;;;;;;;;;
"1320593";"1994";;"Windows 7";"Rachel's Experiment (D.T.)";"1.0";"2";"1";"1";"2";"1";"1";"2014-09-29 11:29:26.016";"2014-09-29 11:51:57.232";"1";"0";"1";"142";"141";"module.training_block4.exec-5458.GoNoGo4";;;;;;;;;;;;;;;;;;;;;;;;;;;;;;;;;;;;;"1248";"2014-09-29 11:36:55.750";"NST_correctLoc";"35";"0";"FINISHED";"LEFT";"success";"336";"0";"2014-09-29 11:36:54.500";"3";;;;;;;;;;;;;;;;;;;;;
"1320593";"1994";;"Windows 7";"Rachel's Experiment (D.T.)";"1.0";"2";"1";"1";"2";"1";"1";"2014-09-29 11:29:26.016";"2014-09-29 11:51:57.232";"1";"0";"1";"143";"142";"module.training_block4.exec-5458.GoNoGo4";;;;;;;;;;;;;;;;;;;;;;;;;;;;;;;;;;;;;"1248";"2014-09-29 11:36:58.250";"NST_correctLoc";"17";"0";"FINISHED";"LEFT";"success";"348";"0";"2014-09-29 11:36:57.000";"2";;;;;;;;;;;;;;;;;;;;;
"1320593";"1994";;"Windows 7";"Rachel's Experiment (D.T.)";"1.0";"2";"1";"1";"2";"1";"1";"2014-09-29 11:29:26.016";"2014-09-29 11:51:57.232";"1";"0";"1";"144";"143";"module.training_block4.exec-5458.GoNoGo4";;;;;;;;;;;;;;;;;;;;;;;;;;;;;;;;;;;;;"1248";"2014-09-29 11:37:00.750";"NST_correctLoc";"26";"0";"FINISHED";"LEFT";"success";"344";"0";"2014-09-29 11:36:59.500";"3";;;;;;;;;;;;;;;;;;;;;
"1320593";"1994";;"Windows 7";"Rachel's Experiment (D.T.)";"1.0";"2";"1";"1";"2";"1";"1";"2014-09-29 11:29:26.016";"2014-09-29 11:51:57.232";"1";"0";"1";"145";"144";"module.training_block4.exec-5458.GoNoGo4";;;;;;;;;;;;;;;;;;;;;;;;;;;;;;;;;;;;;"1248";"2014-09-29 11:37:03.250";"NST_correctLoc";"30";"1";"FINISHED";"RIGHT";"success";"372";"0";"2014-09-29 11:37:02.000";"3";;;;;;;;;;;;;;;;;;;;;
"1320593";"1994";;"Windows 7";"Rachel's Experiment (D.T.)";"1.0";"2";"1";"1";"2";"1";"1";"2014-09-29 11:29:26.016";"2014-09-29 11:51:57.232";"1";"0";"1";"146";"145";"module.training_block4.exec-5458.GoNoGo4";;;;;;;;;;;;;;;;;;;;;;;;;;;;;;;;;;;;;"1248";"2014-09-29 11:37:05.750";"NST_correctLoc";"20";"1";"FINISHED";"RIGHT";"success";"400";"0";"2014-09-29 11:37:04.500";"3";;;;;;;;;;;;;;;;;;;;;
"1320593";"1994";;"Windows 7";"Rachel's Experiment (D.T.)";"1.0";"2";"1";"1";"2";"1";"1";"2014-09-29 11:29:26.016";"2014-09-29 11:51:57.232";"1";"0";"1";"147";"146";"module.training_block4.exec-5458.GoNoGo4";;;;;;;;;;;;;;;;;;;;;;;;;;;;;;;;;;;;;"1248";"2014-09-29 11:37:08.250";"NST_correctLoc";"29";"0";"FINISHED";"LEFT";"success";"332";"0";"2014-09-29 11:37:07.000";"3";;;;;;;;;;;;;;;;;;;;;
"1320593";"1994";;"Windows 7";"Rachel's Experiment (D.T.)";"1.0";"2";"1";"1";"2";"1";"1";"2014-09-29 11:29:26.016";"2014-09-29 11:51:57.232";"1";"0";"1";"148";"147";"module.training_block4.exec-5458.GoNoGo4";;;;;;;;;;;;;;;;;;;;;;;;;;;;;;;;;;;;;"1248";"2014-09-29 11:37:10.750";"NST_correctLoc";"16";"0";"FINISHED";"LEFT";"success";"400";"0";"2014-09-29 11:37:09.500";"2";;;;;;;;;;;;;;;;;;;;;
"1320593";"1994";;"Windows 7";"Rachel's Experiment (D.T.)";"1.0";"2";"1";"1";"2";"1";"1";"2014-09-29 11:29:26.016";"2014-09-29 11:51:57.232";"1";"0";"1";"149";"148";"module.training_block4.exec-5458.GoNoGo4";;;;;;;;;;;;;;;;;;;;;;;;;;;;;;;;;;;;;"1248";"2014-09-29 11:37:13.250";"NST_correctLoc";"2";"1";"FINISHED";"RIGHT";"success";"420";"0";"2014-09-29 11:37:12.000";"1";;;;;;;;;;;;;;;;;;;;;
"1320593";"1994";;"Windows 7";"Rachel's Experiment (D.T.)";"1.0";"2";"1";"1";"2";"1";"1";"2014-09-29 11:29:26.016";"2014-09-29 11:51:57.232";"1";"0";"1";"150";"149";"module.training_block4.exec-5458.GoNoGo4";;;;;;;;;;;;;;;;;;;;;;;;;;;;;;;;;;;;;"1248";"2014-09-29 11:37:15.750";"NST_correctLoc";"28";"0";"FINISHED";"LEFT";"success";"648";"0";"2014-09-29 11:37:14.500";"3";;;;;;;;;;;;;;;;;;;;;
"1320593";"1994";;"Windows 7";"Rachel's Experiment (D.T.)";"1.0";"2";"1";"1";"2";"1";"1";"2014-09-29 11:29:26.016";"2014-09-29 11:51:57.232";"1";"0";"1";"151";"150";"module.training_block4.exec-5458.GoNoGo4";;;;;;;;;;;;;;;;;;;;;;;;;;;;;;;;;;;;;"1248";"2014-09-29 11:37:18.250";"NST_correctLoc";"21";"1";"FINISHED";"RIGHT";"success";"460";"0";"2014-09-29 11:37:17.000";"3";;;;;;;;;;;;;;;;;;;;;
"1320593";"1994";;"Windows 7";"Rachel's Experiment (D.T.)";"1.0";"2";"1";"1";"2";"1";"1";"2014-09-29 11:29:26.016";"2014-09-29 11:51:57.232";"1";"0";"1";"152";"151";"module.training_block4.exec-5458.GoNoGo4";;;;;;;;;;;;;;;;;;;;;;;;;;;;;;;;;;;;;"1248";"2014-09-29 11:37:20.750";"NST_correctLoc";"23";"1";"FINISHED";"RIGHT";"success";"352";"0";"2014-09-29 11:37:19.500";"3";;;;;;;;;;;;;;;;;;;;;
"1320593";"1994";;"Windows 7";"Rachel's Experiment (D.T.)";"1.0";"2";"1";"1";"2";"1";"1";"2014-09-29 11:29:26.016";"2014-09-29 11:51:57.232";"1";"0";"1";"153";"152";"module.training_block4.exec-5458.GoNoGo4";;;;;;;;;;;;;;;;;;;;;;;;;;;;;;;;;;;;;"1248";"2014-09-29 11:37:23.250";"NST_correctLoc";"9";"1";"FINISHED";"RIGHT";"success";"508";"0";"2014-09-29 11:37:22.000";"2";;;;;;;;;;;;;;;;;;;;;
"1320593";"1994";;"Windows 7";"Rachel's Experiment (D.T.)";"1.0";"2";"1";"1";"2";"1";"1";"2014-09-29 11:29:26.016";"2014-09-29 11:51:57.232";"1";"0";"1";"154";"153";"module.training_block4.exec-5458.GoNoGo4";;;;;;;;;;;;;;;;;;;;;;;;;;;;;;;;;;;;;"1248";"2014-09-29 11:37:25.750";"NST_wrongLoc";"6";"0";"FINISHED";"RIGHT";"failure";"576";"0";"2014-09-29 11:37:24.500";"1";;;;;;;;;;;;;;;;;;;;;
"1320593";"1994";;"Windows 7";"Rachel's Experiment (D.T.)";"1.0";"2";"1";"1";"2";"1";"1";"2014-09-29 11:29:26.016";"2014-09-29 11:51:57.232";"1";"0";"1";"155";"154";"module.training_block4.exec-5458.GoNoGo4";;;;;;;;;;;;;;;;;;;;;;;;;;;;;;;;;;;;;"1248";"2014-09-29 11:37:28.250";"NST_correctLoc";"5";"0";"FINISHED";"LEFT";"success";"780";"0";"2014-09-29 11:37:27.000";"1";;;;;;;;;;;;;;;;;;;;;
"1320593";"1994";;"Windows 7";"Rachel's Experiment (D.T.)";"1.0";"2";"1";"1";"2";"1";"1";"2014-09-29 11:29:26.016";"2014-09-29 11:51:57.232";"1";"0";"1";"156";"155";"module.training_block4.exec-5458.GoNoGo4";;;;;;;;;;;;;;;;;;;;;;;;;;;;;;;;;;;;;"1248";"2014-09-29 11:37:30.750";"NST_correctLoc";"25";"1";"FINISHED";"RIGHT";"success";"736";"0";"2014-09-29 11:37:29.500";"3";;;;;;;;;;;;;;;;;;;;;
"1320593";"1994";;"Windows 7";"Rachel's Experiment (D.T.)";"1.0";"2";"1";"1";"2";"1";"1";"2014-09-29 11:29:26.016";"2014-09-29 11:51:57.232";"1";"0";"1";"157";"156";"module.training_block4.exec-5458.GoNoGo4";;;;;;;;;;;;;;;;;;;;;;;;;;;;;;;;;;;;;"1248";"2014-09-29 11:37:33.250";"NST_correctLoc";"15";"1";"FINISHED";"RIGHT";"success";"348";"0";"2014-09-29 11:37:32.000";"2";;;;;;;;;;;;;;;;;;;;;
"1320593";"1994";;"Windows 7";"Rachel's Experiment (D.T.)";"1.0";"2";"1";"1";"2";"1";"1";"2014-09-29 11:29:26.016";"2014-09-29 11:51:57.232";"1";"0";"1";"158";"157";"module.training_block4.exec-5458.GoNoGo4";;;;;;;;;;;;;;;;;;;;;;;;;;;;;;;;;;;;;"1248";"2014-09-29 11:37:35.750";"NST_correctLoc";"14";"1";"FINISHED";"RIGHT";"success";"568";"0";"2014-09-29 11:37:34.500";"2";;;;;;;;;;;;;;;;;;;;;
"1320593";"1994";;"Windows 7";"Rachel's Experiment (D.T.)";"1.0";"2";"1";"1";"2";"1";"1";"2014-09-29 11:29:26.016";"2014-09-29 11:51:57.232";"1";"0";"1";"159";"158";"module.training_block4.exec-5458.GoNoGo4";;;;;;;;;;;;;;;;;;;;;;;;;;;;;;;;;;;;;"1244";"2014-09-29 11:37:38.250";"NST_correctLoc";"34";"1";"FINISHED";"RIGHT";"success";"400";"0";"2014-09-29 11:37:37.000";"3";;;;;;;;;;;;;;;;;;;;;
