"user.name";"user.yearOfBirth";"user.sex";"user.osName";"module.name";"module.version";"module.online.subject.code";"module.online.study.id";"module.online.module.nr";"module.online.group.nr";"session.id";"session.index";"session.startTime";"session.endTime";"session.completed";"session.node-1777.conditionType";"session.node-7038.DevalQorder";"trial.id";"trial.index";"trial.name";"trial.deval1.durationTime";"trial.deval1.endTime";"trial.deval1.icon";"trial.deval1.Resp_Attractive";"trial.deval1.Resp_Eat";"trial.deval1.Resp_Taste";"trial.deval1.RT_Attractive";"trial.deval1.RT_Eat";"trial.deval1.RT_Taste";"trial.deval1.startTime";"trial.deval1.stimulus type";"trial.devalPractice.durationTime";"trial.devalPractice.endTime";"trial.devalPractice.icon";"trial.devalPractice.Resp_Attractive";"trial.devalPractice.Resp_Eat";"trial.devalPractice.Resp_Taste";"trial.devalPractice.RT_Attractive";"trial.devalPractice.RT_Eat";"trial.devalPractice.RT_Taste";"trial.devalPractice.startTime";"trial.devalPractice.stimulus type";"trial.GoNoGo1.durationTime";"trial.GoNoGo1.endTime";"trial.GoNoGo1.Error Type";"trial.GoNoGo1.icon";"trial.GoNoGo1.location";"trial.GoNoGo1.outcome";"trial.GoNoGo1.response";"trial.GoNoGo1.result";"trial.GoNoGo1.RT";"trial.GoNoGo1.signal";"trial.GoNoGo1.startTime";"trial.GoNoGo1.stimulus type";"trial.GoNoGo2.durationTime";"trial.GoNoGo2.endTime";"trial.GoNoGo2.Error Type";"trial.GoNoGo2.icon";"trial.GoNoGo2.location";"trial.GoNoGo2.outcome";"trial.GoNoGo2.response";"trial.GoNoGo2.result";"trial.GoNoGo2.RT";"trial.GoNoGo2.signal";"trial.GoNoGo2.startTime";"trial.GoNoGo2.stimulus type";"trial.GoNoGo3.durationTime";"trial.GoNoGo3.endTime";"trial.GoNoGo3.Error Type";"trial.GoNoGo3.icon";"trial.GoNoGo3.location";"trial.GoNoGo3.outcome";"trial.GoNoGo3.response";"trial.GoNoGo3.result";"trial.GoNoGo3.RT";"trial.GoNoGo3.signal";"trial.GoNoGo3.startTime";"trial.GoNoGo3.stimulus type";"trial.GoNoGo4.durationTime";"trial.GoNoGo4.endTime";"trial.GoNoGo4.Error Type";"trial.GoNoGo4.icon";"trial.GoNoGo4.location";"trial.GoNoGo4.outcome";"trial.GoNoGo4.response";"trial.GoNoGo4.result";"trial.GoNoGo4.RT";"trial.GoNoGo4.signal";"trial.GoNoGo4.startTime";"trial.GoNoGo4.stimulus type";"trial.GoNoGo_Practice.durationTime";"trial.GoNoGo_Practice.endTime";"trial.GoNoGo_Practice.icon";"trial.GoNoGo_Practice.location";"trial.GoNoGo_Practice.outcome";"trial.GoNoGo_Practice.response";"trial.GoNoGo_Practice.result";"trial.GoNoGo_Practice.RT";"trial.GoNoGo_Practice.signal";"trial.GoNoGo_Practice.startTime";"trial.GoNoGo_Practice.stimulus type";"trial.GoNoGo_Tutorial.durationTime";"trial.GoNoGo_Tutorial.endTime";"trial.GoNoGo_Tutorial.icon";"trial.GoNoGo_Tutorial.location";"trial.GoNoGo_Tutorial.outcome";"trial.GoNoGo_Tutorial.response";"trial.GoNoGo_Tutorial.result";"trial.GoNoGo_Tutorial.RT";"trial.GoNoGo_Tutorial.signal";"trial.GoNoGo_Tutorial.startTime"
"tettenhall1";"1995";;"Windows 7";"Rachel's Experiment (D.T.)";"1.0";"2";"1";"1";"2";"1";"1";"2014-10-13 14:38:43.767";"2014-10-13 14:52:57.631";"1";"1";"1";"1";"0";"module.GoNoGotutorial.exec-7771.GoNoGo_Tutorial";;;;;;;;;;;;;;;;;;;;;;;;;;;;;;;;;;;;;;;;;;;;;;;;;;;;;;;;;;;;;;;;;;;;;;;;;;;;;;;;;;"3997";"2014-10-13 14:39:30.580";"leftResponse";"0";"FINISHED";"LEFT";"success";"1035";"0";"2014-10-13 14:39:26.580"
"tettenhall1";"1995";;"Windows 7";"Rachel's Experiment (D.T.)";"1.0";"2";"1";"1";"2";"1";"1";"2014-10-13 14:38:43.767";"2014-10-13 14:52:57.631";"1";"1";"1";"2";"1";"module.GoNoGotutorial.exec-7771.GoNoGo_Tutorial";;;;;;;;;;;;;;;;;;;;;;;;;;;;;;;;;;;;;;;;;;;;;;;;;;;;;;;;;;;;;;;;;;;;;;;;;;;;;;;;;;"3994";"2014-10-13 14:39:35.861";"rightResponse";"1";"FINISHED";"NONE";"failure";"0";"0";"2014-10-13 14:39:31.861"
"tettenhall1";"1995";;"Windows 7";"Rachel's Experiment (D.T.)";"1.0";"2";"1";"1";"2";"1";"1";"2014-10-13 14:38:43.767";"2014-10-13 14:52:57.631";"1";"1";"1";"3";"2";"module.GoNoGotutorial.exec-7771.GoNoGo_Tutorial";;;;;;;;;;;;;;;;;;;;;;;;;;;;;;;;;;;;;;;;;;;;;;;;;;;;;;;;;;;;;;;;;;;;;;;;;;;;;;;;;;"3994";"2014-10-13 14:39:41.134";"signalResponse";"0";"FINISHED";"NONE";"success";"0";"1";"2014-10-13 14:39:37.134"
"tettenhall1";"1995";;"Windows 7";"Rachel's Experiment (D.T.)";"1.0";"2";"1";"1";"2";"1";"1";"2014-10-13 14:38:43.767";"2014-10-13 14:52:57.631";"1";"1";"1";"4";"3";"module.GoNoGopractice.exec-2305.GoNoGo_Practice";;;;;;;;;;;;;;;;;;;;;;;;;;;;;;;;;;;;;;;;;;;;;;;;;;;;;;;;;;;;;;;;;;;;;;;"1947";"2014-10-13 14:39:49.167";"18";"0";"FINISHED";"LEFT";"success";"1095";"0";"2014-10-13 14:39:47.214";"3";;;;;;;;;;
"tettenhall1";"1995";;"Windows 7";"Rachel's Experiment (D.T.)";"1.0";"2";"1";"1";"2";"1";"1";"2014-10-13 14:38:43.767";"2014-10-13 14:52:57.631";"1";"1";"1";"5";"4";"module.GoNoGopractice.exec-2305.GoNoGo_Practice";;;;;;;;;;;;;;;;;;;;;;;;;;;;;;;;;;;;;;;;;;;;;;;;;;;;;;;;;;;;;;;;;;;;;;;"1947";"2014-10-13 14:39:52.394";"21";"1";"FINISHED";"NONE";"failure";"0";"0";"2014-10-13 14:39:50.441";"3";;;;;;;;;;
"tettenhall1";"1995";;"Windows 7";"Rachel's Experiment (D.T.)";"1.0";"2";"1";"1";"2";"1";"1";"2014-10-13 14:38:43.767";"2014-10-13 14:52:57.631";"1";"1";"1";"6";"5";"module.GoNoGopractice.exec-2305.GoNoGo_Practice";;;;;;;;;;;;;;;;;;;;;;;;;;;;;;;;;;;;;;;;;;;;;;;;;;;;;;;;;;;;;;;;;;;;;;;"1954";"2014-10-13 14:39:55.628";"14";"1";"FINISHED";"RIGHT";"failure";"425";"1";"2014-10-13 14:39:53.667";"2";;;;;;;;;;
"tettenhall1";"1995";;"Windows 7";"Rachel's Experiment (D.T.)";"1.0";"2";"1";"1";"2";"1";"1";"2014-10-13 14:38:43.767";"2014-10-13 14:52:57.631";"1";"1";"1";"7";"6";"module.GoNoGopractice.exec-2305.GoNoGo_Practice";;;;;;;;;;;;;;;;;;;;;;;;;;;;;;;;;;;;;;;;;;;;;;;;;;;;;;;;;;;;;;;;;;;;;;;"1947";"2014-10-13 14:39:58.855";"26";"0";"FINISHED";"NONE";"failure";"0";"0";"2014-10-13 14:39:56.902";"3";;;;;;;;;;
"tettenhall1";"1995";;"Windows 7";"Rachel's Experiment (D.T.)";"1.0";"2";"1";"1";"2";"1";"1";"2014-10-13 14:38:43.767";"2014-10-13 14:52:57.631";"1";"1";"1";"8";"7";"module.GoNoGopractice.exec-2305.GoNoGo_Practice";;;;;;;;;;;;;;;;;;;;;;;;;;;;;;;;;;;;;;;;;;;;;;;;;;;;;;;;;;;;;;;;;;;;;;;"1948";"2014-10-13 14:40:02.081";"2";"0";"FINISHED";"LEFT";"success";"693";"0";"2014-10-13 14:40:00.128";"1";;;;;;;;;;
"tettenhall1";"1995";;"Windows 7";"Rachel's Experiment (D.T.)";"1.0";"2";"1";"1";"2";"1";"1";"2014-10-13 14:38:43.767";"2014-10-13 14:52:57.631";"1";"1";"1";"9";"8";"module.GoNoGopractice.exec-2305.GoNoGo_Practice";;;;;;;;;;;;;;;;;;;;;;;;;;;;;;;;;;;;;;;;;;;;;;;;;;;;;;;;;;;;;;;;;;;;;;;"1948";"2014-10-13 14:40:05.308";"30";"0";"FINISHED";"NONE";"success";"0";"1";"2014-10-13 14:40:03.355";"3";;;;;;;;;;
"tettenhall1";"1995";;"Windows 7";"Rachel's Experiment (D.T.)";"1.0";"2";"1";"1";"2";"1";"1";"2014-10-13 14:38:43.767";"2014-10-13 14:52:57.631";"1";"1";"1";"10";"9";"module.GoNoGopractice.exec-2305.GoNoGo_Practice";;;;;;;;;;;;;;;;;;;;;;;;;;;;;;;;;;;;;;;;;;;;;;;;;;;;;;;;;;;;;;;;;;;;;;;"1947";"2014-10-13 14:40:08.535";"6";"1";"FINISHED";"NONE";"success";"0";"1";"2014-10-13 14:40:06.581";"1";;;;;;;;;;
"tettenhall1";"1995";;"Windows 7";"Rachel's Experiment (D.T.)";"1.0";"2";"1";"1";"2";"1";"1";"2014-10-13 14:38:43.767";"2014-10-13 14:52:57.631";"1";"1";"1";"11";"10";"module.GoNoGopractice.exec-2305.GoNoGo_Practice";;;;;;;;;;;;;;;;;;;;;;;;;;;;;;;;;;;;;;;;;;;;;;;;;;;;;;;;;;;;;;;;;;;;;;;"1948";"2014-10-13 14:40:11.761";"34";"0";"FINISHED";"LEFT";"success";"494";"0";"2014-10-13 14:40:09.808";"3";;;;;;;;;;
"tettenhall1";"1995";;"Windows 7";"Rachel's Experiment (D.T.)";"1.0";"2";"1";"1";"2";"1";"1";"2014-10-13 14:38:43.767";"2014-10-13 14:52:57.631";"1";"1";"1";"12";"11";"module.GoNoGopractice.exec-2305.GoNoGo_Practice";;;;;;;;;;;;;;;;;;;;;;;;;;;;;;;;;;;;;;;;;;;;;;;;;;;;;;;;;;;;;;;;;;;;;;;"1948";"2014-10-13 14:40:14.988";"23";"1";"FINISHED";"RIGHT";"success";"1019";"0";"2014-10-13 14:40:13.035";"3";;;;;;;;;;
"tettenhall1";"1995";;"Windows 7";"Rachel's Experiment (D.T.)";"1.0";"2";"1";"1";"2";"1";"1";"2014-10-13 14:38:43.767";"2014-10-13 14:52:57.631";"1";"1";"1";"13";"12";"module.GoNoGopractice.exec-2305.GoNoGo_Practice";;;;;;;;;;;;;;;;;;;;;;;;;;;;;;;;;;;;;;;;;;;;;;;;;;;;;;;;;;;;;;;;;;;;;;;"1947";"2014-10-13 14:40:18.206";"13";"0";"FINISHED";"NONE";"success";"0";"1";"2014-10-13 14:40:16.253";"2";;;;;;;;;;
"tettenhall1";"1995";;"Windows 7";"Rachel's Experiment (D.T.)";"1.0";"2";"1";"1";"2";"1";"1";"2014-10-13 14:38:43.767";"2014-10-13 14:52:57.631";"1";"1";"1";"14";"13";"module.GoNoGopractice.exec-2305.GoNoGo_Practice";;;;;;;;;;;;;;;;;;;;;;;;;;;;;;;;;;;;;;;;;;;;;;;;;;;;;;;;;;;;;;;;;;;;;;;"1948";"2014-10-13 14:40:21.425";"3";"1";"FINISHED";"RIGHT";"success";"958";"0";"2014-10-13 14:40:19.472";"1";;;;;;;;;;
"tettenhall1";"1995";;"Windows 7";"Rachel's Experiment (D.T.)";"1.0";"2";"1";"1";"2";"1";"1";"2014-10-13 14:38:43.767";"2014-10-13 14:52:57.631";"1";"1";"1";"15";"14";"module.GoNoGopractice.exec-2305.GoNoGo_Practice";;;;;;;;;;;;;;;;;;;;;;;;;;;;;;;;;;;;;;;;;;;;;;;;;;;;;;;;;;;;;;;;;;;;;;;"1948";"2014-10-13 14:40:24.644";"27";"1";"FINISHED";"NONE";"success";"0";"1";"2014-10-13 14:40:22.691";"3";;;;;;;;;;
"tettenhall1";"1995";;"Windows 7";"Rachel's Experiment (D.T.)";"1.0";"2";"1";"1";"2";"1";"1";"2014-10-13 14:38:43.767";"2014-10-13 14:52:57.631";"1";"1";"1";"16";"15";"module.training_block1.exec-8065.GoNoGo1";;;;;;;;;;;;;;;;;;;;;;;"1244";"2014-10-13 14:40:34.152";"NST_correctLoc";"11";"0";"FINISHED";"LEFT";"success";"782";"0";"2014-10-13 14:40:32.902";"2";;;;;;;;;;;;;;;;;;;;;;;;;;;;;;;;;;;;;;;;;;;;;;;;;;;;;;;;;
"tettenhall1";"1995";;"Windows 7";"Rachel's Experiment (D.T.)";"1.0";"2";"1";"1";"2";"1";"1";"2014-10-13 14:38:43.767";"2014-10-13 14:52:57.631";"1";"1";"1";"17";"16";"module.training_block1.exec-8065.GoNoGo1";;;;;;;;;;;;;;;;;;;;;;;"1248";"2014-10-13 14:40:36.675";"ST_correctStop";"26";"1";"FINISHED";"NONE";"success";"0";"1";"2014-10-13 14:40:35.425";"3";;;;;;;;;;;;;;;;;;;;;;;;;;;;;;;;;;;;;;;;;;;;;;;;;;;;;;;;;
"tettenhall1";"1995";;"Windows 7";"Rachel's Experiment (D.T.)";"1.0";"2";"1";"1";"2";"1";"1";"2014-10-13 14:38:43.767";"2014-10-13 14:52:57.631";"1";"1";"1";"18";"17";"module.training_block1.exec-8065.GoNoGo1";;;;;;;;;;;;;;;;;;;;;;;"1242";"2014-10-13 14:40:39.331";"NST_correctLoc";"15";"1";"FINISHED";"RIGHT";"success";"729";"0";"2014-10-13 14:40:38.081";"2";;;;;;;;;;;;;;;;;;;;;;;;;;;;;;;;;;;;;;;;;;;;;;;;;;;;;;;;;
"tettenhall1";"1995";;"Windows 7";"Rachel's Experiment (D.T.)";"1.0";"2";"1";"1";"2";"1";"1";"2014-10-13 14:38:43.767";"2014-10-13 14:52:57.631";"1";"1";"1";"19";"18";"module.training_block1.exec-8065.GoNoGo1";;;;;;;;;;;;;;;;;;;;;;;"1245";"2014-10-13 14:40:41.847";"ST_correctStop";"33";"0";"FINISHED";"NONE";"success";"0";"1";"2014-10-13 14:40:40.597";"3";;;;;;;;;;;;;;;;;;;;;;;;;;;;;;;;;;;;;;;;;;;;;;;;;;;;;;;;;
"tettenhall1";"1995";;"Windows 7";"Rachel's Experiment (D.T.)";"1.0";"2";"1";"1";"2";"1";"1";"2014-10-13 14:38:43.767";"2014-10-13 14:52:57.631";"1";"1";"1";"20";"19";"module.training_block1.exec-8065.GoNoGo1";;;;;;;;;;;;;;;;;;;;;;;"1245";"2014-10-13 14:40:44.363";"ST_correctStop";"18";"1";"FINISHED";"NONE";"success";"0";"1";"2014-10-13 14:40:43.113";"3";;;;;;;;;;;;;;;;;;;;;;;;;;;;;;;;;;;;;;;;;;;;;;;;;;;;;;;;;
"tettenhall1";"1995";;"Windows 7";"Rachel's Experiment (D.T.)";"1.0";"2";"1";"1";"2";"1";"1";"2014-10-13 14:38:43.767";"2014-10-13 14:52:57.631";"1";"1";"1";"21";"20";"module.training_block1.exec-8065.GoNoGo1";;;;;;;;;;;;;;;;;;;;;;;"1245";"2014-10-13 14:40:46.878";"NST_correctLoc";"28";"1";"FINISHED";"RIGHT";"success";"625";"0";"2014-10-13 14:40:45.628";"3";;;;;;;;;;;;;;;;;;;;;;;;;;;;;;;;;;;;;;;;;;;;;;;;;;;;;;;;;
"tettenhall1";"1995";;"Windows 7";"Rachel's Experiment (D.T.)";"1.0";"2";"1";"1";"2";"1";"1";"2014-10-13 14:38:43.767";"2014-10-13 14:52:57.631";"1";"1";"1";"22";"21";"module.training_block1.exec-8065.GoNoGo1";;;;;;;;;;;;;;;;;;;;;;;"1244";"2014-10-13 14:40:49.394";"ST_correctStop";"6";"0";"FINISHED";"NONE";"success";"0";"1";"2014-10-13 14:40:48.144";"1";;;;;;;;;;;;;;;;;;;;;;;;;;;;;;;;;;;;;;;;;;;;;;;;;;;;;;;;;
"tettenhall1";"1995";;"Windows 7";"Rachel's Experiment (D.T.)";"1.0";"2";"1";"1";"2";"1";"1";"2014-10-13 14:38:43.767";"2014-10-13 14:52:57.631";"1";"1";"1";"23";"22";"module.training_block1.exec-8065.GoNoGo1";;;;;;;;;;;;;;;;;;;;;;;"1244";"2014-10-13 14:40:51.917";"ST_correctStop";"7";"0";"FINISHED";"NONE";"success";"0";"1";"2014-10-13 14:40:50.667";"1";;;;;;;;;;;;;;;;;;;;;;;;;;;;;;;;;;;;;;;;;;;;;;;;;;;;;;;;;
"tettenhall1";"1995";;"Windows 7";"Rachel's Experiment (D.T.)";"1.0";"2";"1";"1";"2";"1";"1";"2014-10-13 14:38:43.767";"2014-10-13 14:52:57.631";"1";"1";"1";"24";"23";"module.training_block1.exec-8065.GoNoGo1";;;;;;;;;;;;;;;;;;;;;;;"1245";"2014-10-13 14:40:54.433";"NST_correctLoc";"30";"0";"FINISHED";"LEFT";"success";"830";"0";"2014-10-13 14:40:53.183";"3";;;;;;;;;;;;;;;;;;;;;;;;;;;;;;;;;;;;;;;;;;;;;;;;;;;;;;;;;
"tettenhall1";"1995";;"Windows 7";"Rachel's Experiment (D.T.)";"1.0";"2";"1";"1";"2";"1";"1";"2014-10-13 14:38:43.767";"2014-10-13 14:52:57.631";"1";"1";"1";"25";"24";"module.training_block1.exec-8065.GoNoGo1";;;;;;;;;;;;;;;;;;;;;;;"1244";"2014-10-13 14:40:56.949";"ST_correctStop";"2";"1";"FINISHED";"NONE";"success";"0";"1";"2014-10-13 14:40:55.699";"1";;;;;;;;;;;;;;;;;;;;;;;;;;;;;;;;;;;;;;;;;;;;;;;;;;;;;;;;;
"tettenhall1";"1995";;"Windows 7";"Rachel's Experiment (D.T.)";"1.0";"2";"1";"1";"2";"1";"1";"2014-10-13 14:38:43.767";"2014-10-13 14:52:57.631";"1";"1";"1";"26";"25";"module.training_block1.exec-8065.GoNoGo1";;;;;;;;;;;;;;;;;;;;;;;"1244";"2014-10-13 14:40:59.464";"ST_correctStop";"8";"1";"FINISHED";"NONE";"success";"0";"1";"2014-10-13 14:40:58.214";"1";;;;;;;;;;;;;;;;;;;;;;;;;;;;;;;;;;;;;;;;;;;;;;;;;;;;;;;;;
"tettenhall1";"1995";;"Windows 7";"Rachel's Experiment (D.T.)";"1.0";"2";"1";"1";"2";"1";"1";"2014-10-13 14:38:43.767";"2014-10-13 14:52:57.631";"1";"1";"1";"27";"26";"module.training_block1.exec-8065.GoNoGo1";;;;;;;;;;;;;;;;;;;;;;;"1245";"2014-10-13 14:41:01.980";"NST_correctLoc";"35";"0";"FINISHED";"LEFT";"success";"731";"0";"2014-10-13 14:41:00.730";"3";;;;;;;;;;;;;;;;;;;;;;;;;;;;;;;;;;;;;;;;;;;;;;;;;;;;;;;;;
"tettenhall1";"1995";;"Windows 7";"Rachel's Experiment (D.T.)";"1.0";"2";"1";"1";"2";"1";"1";"2014-10-13 14:38:43.767";"2014-10-13 14:52:57.631";"1";"1";"1";"28";"27";"module.training_block1.exec-8065.GoNoGo1";;;;;;;;;;;;;;;;;;;;;;;"1244";"2014-10-13 14:41:04.496";"ST_correctStop";"23";"1";"FINISHED";"NONE";"success";"0";"1";"2014-10-13 14:41:03.246";"3";;;;;;;;;;;;;;;;;;;;;;;;;;;;;;;;;;;;;;;;;;;;;;;;;;;;;;;;;
"tettenhall1";"1995";;"Windows 7";"Rachel's Experiment (D.T.)";"1.0";"2";"1";"1";"2";"1";"1";"2014-10-13 14:38:43.767";"2014-10-13 14:52:57.631";"1";"1";"1";"29";"28";"module.training_block1.exec-8065.GoNoGo1";;;;;;;;;;;;;;;;;;;;;;;"1245";"2014-10-13 14:41:07.011";"ST_correctStop";"0";"0";"FINISHED";"NONE";"success";"0";"1";"2014-10-13 14:41:05.761";"1";;;;;;;;;;;;;;;;;;;;;;;;;;;;;;;;;;;;;;;;;;;;;;;;;;;;;;;;;
"tettenhall1";"1995";;"Windows 7";"Rachel's Experiment (D.T.)";"1.0";"2";"1";"1";"2";"1";"1";"2014-10-13 14:38:43.767";"2014-10-13 14:52:57.631";"1";"1";"1";"30";"29";"module.training_block1.exec-8065.GoNoGo1";;;;;;;;;;;;;;;;;;;;;;;"1245";"2014-10-13 14:41:09.527";"ST_correctStop";"5";"0";"FINISHED";"NONE";"success";"0";"1";"2014-10-13 14:41:08.277";"1";;;;;;;;;;;;;;;;;;;;;;;;;;;;;;;;;;;;;;;;;;;;;;;;;;;;;;;;;
"tettenhall1";"1995";;"Windows 7";"Rachel's Experiment (D.T.)";"1.0";"2";"1";"1";"2";"1";"1";"2014-10-13 14:38:43.767";"2014-10-13 14:52:57.631";"1";"1";"1";"31";"30";"module.training_block1.exec-8065.GoNoGo1";;;;;;;;;;;;;;;;;;;;;;;"1245";"2014-10-13 14:41:12.042";"ST_correctStop";"3";"0";"FINISHED";"NONE";"success";"0";"1";"2014-10-13 14:41:10.792";"1";;;;;;;;;;;;;;;;;;;;;;;;;;;;;;;;;;;;;;;;;;;;;;;;;;;;;;;;;
"tettenhall1";"1995";;"Windows 7";"Rachel's Experiment (D.T.)";"1.0";"2";"1";"1";"2";"1";"1";"2014-10-13 14:38:43.767";"2014-10-13 14:52:57.631";"1";"1";"1";"32";"31";"module.training_block1.exec-8065.GoNoGo1";;;;;;;;;;;;;;;;;;;;;;;"1245";"2014-10-13 14:41:14.558";"NST_correctLoc";"9";"0";"FINISHED";"LEFT";"success";"848";"0";"2014-10-13 14:41:13.308";"2";;;;;;;;;;;;;;;;;;;;;;;;;;;;;;;;;;;;;;;;;;;;;;;;;;;;;;;;;
"tettenhall1";"1995";;"Windows 7";"Rachel's Experiment (D.T.)";"1.0";"2";"1";"1";"2";"1";"1";"2014-10-13 14:38:43.767";"2014-10-13 14:52:57.631";"1";"1";"1";"33";"32";"module.training_block1.exec-8065.GoNoGo1";;;;;;;;;;;;;;;;;;;;;;;"1244";"2014-10-13 14:41:17.074";"NST_correctLoc";"27";"0";"FINISHED";"LEFT";"success";"1100";"0";"2014-10-13 14:41:15.824";"3";;;;;;;;;;;;;;;;;;;;;;;;;;;;;;;;;;;;;;;;;;;;;;;;;;;;;;;;;
"tettenhall1";"1995";;"Windows 7";"Rachel's Experiment (D.T.)";"1.0";"2";"1";"1";"2";"1";"1";"2014-10-13 14:38:43.767";"2014-10-13 14:52:57.631";"1";"1";"1";"34";"33";"module.training_block1.exec-8065.GoNoGo1";;;;;;;;;;;;;;;;;;;;;;;"1244";"2014-10-13 14:41:19.589";"NST_miss";"10";"1";"FINISHED";"NONE";"failure";"0";"0";"2014-10-13 14:41:18.339";"2";;;;;;;;;;;;;;;;;;;;;;;;;;;;;;;;;;;;;;;;;;;;;;;;;;;;;;;;;
"tettenhall1";"1995";;"Windows 7";"Rachel's Experiment (D.T.)";"1.0";"2";"1";"1";"2";"1";"1";"2014-10-13 14:38:43.767";"2014-10-13 14:52:57.631";"1";"1";"1";"35";"34";"module.training_block1.exec-8065.GoNoGo1";;;;;;;;;;;;;;;;;;;;;;;"1245";"2014-10-13 14:41:22.113";"NST_correctLoc";"24";"0";"FINISHED";"LEFT";"success";"629";"0";"2014-10-13 14:41:20.863";"3";;;;;;;;;;;;;;;;;;;;;;;;;;;;;;;;;;;;;;;;;;;;;;;;;;;;;;;;;
"tettenhall1";"1995";;"Windows 7";"Rachel's Experiment (D.T.)";"1.0";"2";"1";"1";"2";"1";"1";"2014-10-13 14:38:43.767";"2014-10-13 14:52:57.631";"1";"1";"1";"36";"35";"module.training_block1.exec-8065.GoNoGo1";;;;;;;;;;;;;;;;;;;;;;;"1245";"2014-10-13 14:41:24.628";"NST_correctLoc";"16";"1";"FINISHED";"RIGHT";"success";"1042";"0";"2014-10-13 14:41:23.378";"2";;;;;;;;;;;;;;;;;;;;;;;;;;;;;;;;;;;;;;;;;;;;;;;;;;;;;;;;;
"tettenhall1";"1995";;"Windows 7";"Rachel's Experiment (D.T.)";"1.0";"2";"1";"1";"2";"1";"1";"2014-10-13 14:38:43.767";"2014-10-13 14:52:57.631";"1";"1";"1";"37";"36";"module.training_block1.exec-8065.GoNoGo1";;;;;;;;;;;;;;;;;;;;;;;"1244";"2014-10-13 14:41:27.144";"ST_correctStop";"22";"0";"FINISHED";"NONE";"success";"0";"1";"2014-10-13 14:41:25.894";"3";;;;;;;;;;;;;;;;;;;;;;;;;;;;;;;;;;;;;;;;;;;;;;;;;;;;;;;;;
"tettenhall1";"1995";;"Windows 7";"Rachel's Experiment (D.T.)";"1.0";"2";"1";"1";"2";"1";"1";"2014-10-13 14:38:43.767";"2014-10-13 14:52:57.631";"1";"1";"1";"38";"37";"module.training_block1.exec-8065.GoNoGo1";;;;;;;;;;;;;;;;;;;;;;;"1244";"2014-10-13 14:41:29.660";"NST_correctLoc";"13";"0";"FINISHED";"LEFT";"success";"514";"0";"2014-10-13 14:41:28.410";"2";;;;;;;;;;;;;;;;;;;;;;;;;;;;;;;;;;;;;;;;;;;;;;;;;;;;;;;;;
"tettenhall1";"1995";;"Windows 7";"Rachel's Experiment (D.T.)";"1.0";"2";"1";"1";"2";"1";"1";"2014-10-13 14:38:43.767";"2014-10-13 14:52:57.631";"1";"1";"1";"39";"38";"module.training_block1.exec-8065.GoNoGo1";;;;;;;;;;;;;;;;;;;;;;;"1245";"2014-10-13 14:41:32.175";"NST_correctLoc";"20";"0";"FINISHED";"LEFT";"success";"559";"0";"2014-10-13 14:41:30.925";"3";;;;;;;;;;;;;;;;;;;;;;;;;;;;;;;;;;;;;;;;;;;;;;;;;;;;;;;;;
"tettenhall1";"1995";;"Windows 7";"Rachel's Experiment (D.T.)";"1.0";"2";"1";"1";"2";"1";"1";"2014-10-13 14:38:43.767";"2014-10-13 14:52:57.631";"1";"1";"1";"40";"39";"module.training_block1.exec-8065.GoNoGo1";;;;;;;;;;;;;;;;;;;;;;;"1245";"2014-10-13 14:41:34.691";"ST_correctStop";"29";"1";"FINISHED";"NONE";"success";"0";"1";"2014-10-13 14:41:33.441";"3";;;;;;;;;;;;;;;;;;;;;;;;;;;;;;;;;;;;;;;;;;;;;;;;;;;;;;;;;
"tettenhall1";"1995";;"Windows 7";"Rachel's Experiment (D.T.)";"1.0";"2";"1";"1";"2";"1";"1";"2014-10-13 14:38:43.767";"2014-10-13 14:52:57.631";"1";"1";"1";"41";"40";"module.training_block1.exec-8065.GoNoGo1";;;;;;;;;;;;;;;;;;;;;;;"1244";"2014-10-13 14:41:37.206";"ST_correctStop";"31";"0";"FINISHED";"NONE";"success";"0";"1";"2014-10-13 14:41:35.956";"3";;;;;;;;;;;;;;;;;;;;;;;;;;;;;;;;;;;;;;;;;;;;;;;;;;;;;;;;;
"tettenhall1";"1995";;"Windows 7";"Rachel's Experiment (D.T.)";"1.0";"2";"1";"1";"2";"1";"1";"2014-10-13 14:38:43.767";"2014-10-13 14:52:57.631";"1";"1";"1";"42";"41";"module.training_block1.exec-8065.GoNoGo1";;;;;;;;;;;;;;;;;;;;;;;"1244";"2014-10-13 14:41:39.722";"NST_correctLoc";"14";"0";"FINISHED";"LEFT";"success";"427";"0";"2014-10-13 14:41:38.472";"2";;;;;;;;;;;;;;;;;;;;;;;;;;;;;;;;;;;;;;;;;;;;;;;;;;;;;;;;;
"tettenhall1";"1995";;"Windows 7";"Rachel's Experiment (D.T.)";"1.0";"2";"1";"1";"2";"1";"1";"2014-10-13 14:38:43.767";"2014-10-13 14:52:57.631";"1";"1";"1";"43";"42";"module.training_block1.exec-8065.GoNoGo1";;;;;;;;;;;;;;;;;;;;;;;"1245";"2014-10-13 14:41:42.238";"ST_correctStop";"25";"0";"FINISHED";"NONE";"success";"0";"1";"2014-10-13 14:41:40.988";"3";;;;;;;;;;;;;;;;;;;;;;;;;;;;;;;;;;;;;;;;;;;;;;;;;;;;;;;;;
"tettenhall1";"1995";;"Windows 7";"Rachel's Experiment (D.T.)";"1.0";"2";"1";"1";"2";"1";"1";"2014-10-13 14:38:43.767";"2014-10-13 14:52:57.631";"1";"1";"1";"44";"43";"module.training_block1.exec-8065.GoNoGo1";;;;;;;;;;;;;;;;;;;;;;;"1244";"2014-10-13 14:41:44.753";"NST_correctLoc";"17";"0";"FINISHED";"LEFT";"success";"948";"0";"2014-10-13 14:41:43.503";"2";;;;;;;;;;;;;;;;;;;;;;;;;;;;;;;;;;;;;;;;;;;;;;;;;;;;;;;;;
"tettenhall1";"1995";;"Windows 7";"Rachel's Experiment (D.T.)";"1.0";"2";"1";"1";"2";"1";"1";"2014-10-13 14:38:43.767";"2014-10-13 14:52:57.631";"1";"1";"1";"45";"44";"module.training_block1.exec-8065.GoNoGo1";;;;;;;;;;;;;;;;;;;;;;;"1245";"2014-10-13 14:41:47.269";"NST_correctLoc";"34";"0";"FINISHED";"LEFT";"success";"689";"0";"2014-10-13 14:41:46.019";"3";;;;;;;;;;;;;;;;;;;;;;;;;;;;;;;;;;;;;;;;;;;;;;;;;;;;;;;;;
"tettenhall1";"1995";;"Windows 7";"Rachel's Experiment (D.T.)";"1.0";"2";"1";"1";"2";"1";"1";"2014-10-13 14:38:43.767";"2014-10-13 14:52:57.631";"1";"1";"1";"46";"45";"module.training_block1.exec-8065.GoNoGo1";;;;;;;;;;;;;;;;;;;;;;;"1245";"2014-10-13 14:41:49.785";"NST_correctLoc";"12";"0";"FINISHED";"LEFT";"success";"749";"0";"2014-10-13 14:41:48.535";"2";;;;;;;;;;;;;;;;;;;;;;;;;;;;;;;;;;;;;;;;;;;;;;;;;;;;;;;;;
"tettenhall1";"1995";;"Windows 7";"Rachel's Experiment (D.T.)";"1.0";"2";"1";"1";"2";"1";"1";"2014-10-13 14:38:43.767";"2014-10-13 14:52:57.631";"1";"1";"1";"47";"46";"module.training_block1.exec-8065.GoNoGo1";;;;;;;;;;;;;;;;;;;;;;;"1244";"2014-10-13 14:41:52.300";"NST_correctLoc";"32";"0";"FINISHED";"LEFT";"success";"761";"0";"2014-10-13 14:41:51.050";"3";;;;;;;;;;;;;;;;;;;;;;;;;;;;;;;;;;;;;;;;;;;;;;;;;;;;;;;;;
"tettenhall1";"1995";;"Windows 7";"Rachel's Experiment (D.T.)";"1.0";"2";"1";"1";"2";"1";"1";"2014-10-13 14:38:43.767";"2014-10-13 14:52:57.631";"1";"1";"1";"48";"47";"module.training_block1.exec-8065.GoNoGo1";;;;;;;;;;;;;;;;;;;;;;;"1244";"2014-10-13 14:41:54.816";"NST_correctLoc";"21";"1";"FINISHED";"RIGHT";"success";"749";"0";"2014-10-13 14:41:53.566";"3";;;;;;;;;;;;;;;;;;;;;;;;;;;;;;;;;;;;;;;;;;;;;;;;;;;;;;;;;
"tettenhall1";"1995";;"Windows 7";"Rachel's Experiment (D.T.)";"1.0";"2";"1";"1";"2";"1";"1";"2014-10-13 14:38:43.767";"2014-10-13 14:52:57.631";"1";"1";"1";"49";"48";"module.training_block1.exec-8065.GoNoGo1";;;;;;;;;;;;;;;;;;;;;;;"1244";"2014-10-13 14:41:57.355";"ST_correctStop";"19";"1";"FINISHED";"NONE";"success";"0";"1";"2014-10-13 14:41:56.105";"3";;;;;;;;;;;;;;;;;;;;;;;;;;;;;;;;;;;;;;;;;;;;;;;;;;;;;;;;;
"tettenhall1";"1995";;"Windows 7";"Rachel's Experiment (D.T.)";"1.0";"2";"1";"1";"2";"1";"1";"2014-10-13 14:38:43.767";"2014-10-13 14:52:57.631";"1";"1";"1";"50";"49";"module.training_block1.exec-8065.GoNoGo1";;;;;;;;;;;;;;;;;;;;;;;"1245";"2014-10-13 14:41:59.871";"ST_correctStop";"1";"0";"FINISHED";"NONE";"success";"0";"1";"2014-10-13 14:41:58.621";"1";;;;;;;;;;;;;;;;;;;;;;;;;;;;;;;;;;;;;;;;;;;;;;;;;;;;;;;;;
"tettenhall1";"1995";;"Windows 7";"Rachel's Experiment (D.T.)";"1.0";"2";"1";"1";"2";"1";"1";"2014-10-13 14:38:43.767";"2014-10-13 14:52:57.631";"1";"1";"1";"51";"50";"module.training_block1.exec-8065.GoNoGo1";;;;;;;;;;;;;;;;;;;;;;;"1244";"2014-10-13 14:42:02.386";"ST_correctStop";"4";"0";"FINISHED";"NONE";"success";"0";"1";"2014-10-13 14:42:01.136";"1";;;;;;;;;;;;;;;;;;;;;;;;;;;;;;;;;;;;;;;;;;;;;;;;;;;;;;;;;
"tettenhall1";"1995";;"Windows 7";"Rachel's Experiment (D.T.)";"1.0";"2";"1";"1";"2";"1";"1";"2014-10-13 14:38:43.767";"2014-10-13 14:52:57.631";"1";"1";"1";"52";"51";"module.training_block2.exec-3444.GoNoGo2";;;;;;;;;;;;;;;;;;;;;;;;;;;;;;;;;;;"1248";"2014-10-13 14:42:13.660";"NST_correctLoc";"17";"0";"FINISHED";"LEFT";"success";"604";"0";"2014-10-13 14:42:12.410";"2";;;;;;;;;;;;;;;;;;;;;;;;;;;;;;;;;;;;;;;;;;;;;
"tettenhall1";"1995";;"Windows 7";"Rachel's Experiment (D.T.)";"1.0";"2";"1";"1";"2";"1";"1";"2014-10-13 14:38:43.767";"2014-10-13 14:52:57.631";"1";"1";"1";"53";"52";"module.training_block2.exec-3444.GoNoGo2";;;;;;;;;;;;;;;;;;;;;;;;;;;;;;;;;;;"1248";"2014-10-13 14:42:16.175";"ST_correctStop";"21";"1";"FINISHED";"NONE";"success";"0";"1";"2014-10-13 14:42:14.925";"3";;;;;;;;;;;;;;;;;;;;;;;;;;;;;;;;;;;;;;;;;;;;;
"tettenhall1";"1995";;"Windows 7";"Rachel's Experiment (D.T.)";"1.0";"2";"1";"1";"2";"1";"1";"2014-10-13 14:38:43.767";"2014-10-13 14:52:57.631";"1";"1";"1";"54";"53";"module.training_block2.exec-3444.GoNoGo2";;;;;;;;;;;;;;;;;;;;;;;;;;;;;;;;;;;"1248";"2014-10-13 14:42:18.691";"NST_correctLoc";"34";"0";"FINISHED";"LEFT";"success";"525";"0";"2014-10-13 14:42:17.441";"3";;;;;;;;;;;;;;;;;;;;;;;;;;;;;;;;;;;;;;;;;;;;;
"tettenhall1";"1995";;"Windows 7";"Rachel's Experiment (D.T.)";"1.0";"2";"1";"1";"2";"1";"1";"2014-10-13 14:38:43.767";"2014-10-13 14:52:57.631";"1";"1";"1";"55";"54";"module.training_block2.exec-3444.GoNoGo2";;;;;;;;;;;;;;;;;;;;;;;;;;;;;;;;;;;"1248";"2014-10-13 14:42:21.206";"NST_correctLoc";"18";"1";"FINISHED";"RIGHT";"success";"521";"0";"2014-10-13 14:42:19.956";"3";;;;;;;;;;;;;;;;;;;;;;;;;;;;;;;;;;;;;;;;;;;;;
"tettenhall1";"1995";;"Windows 7";"Rachel's Experiment (D.T.)";"1.0";"2";"1";"1";"2";"1";"1";"2014-10-13 14:38:43.767";"2014-10-13 14:52:57.631";"1";"1";"1";"56";"55";"module.training_block2.exec-3444.GoNoGo2";;;;;;;;;;;;;;;;;;;;;;;;;;;;;;;;;;;"1248";"2014-10-13 14:42:23.722";"ST_correctStop";"7";"0";"FINISHED";"NONE";"success";"0";"1";"2014-10-13 14:42:22.472";"1";;;;;;;;;;;;;;;;;;;;;;;;;;;;;;;;;;;;;;;;;;;;;
"tettenhall1";"1995";;"Windows 7";"Rachel's Experiment (D.T.)";"1.0";"2";"1";"1";"2";"1";"1";"2014-10-13 14:38:43.767";"2014-10-13 14:52:57.631";"1";"1";"1";"57";"56";"module.training_block2.exec-3444.GoNoGo2";;;;;;;;;;;;;;;;;;;;;;;;;;;;;;;;;;;"1248";"2014-10-13 14:42:26.238";"ST_correctStop";"29";"0";"FINISHED";"NONE";"success";"0";"1";"2014-10-13 14:42:24.988";"3";;;;;;;;;;;;;;;;;;;;;;;;;;;;;;;;;;;;;;;;;;;;;
"tettenhall1";"1995";;"Windows 7";"Rachel's Experiment (D.T.)";"1.0";"2";"1";"1";"2";"1";"1";"2014-10-13 14:38:43.767";"2014-10-13 14:52:57.631";"1";"1";"1";"58";"57";"module.training_block2.exec-3444.GoNoGo2";;;;;;;;;;;;;;;;;;;;;;;;;;;;;;;;;;;"1248";"2014-10-13 14:42:28.753";"ST_correctStop";"22";"1";"FINISHED";"NONE";"success";"0";"1";"2014-10-13 14:42:27.503";"3";;;;;;;;;;;;;;;;;;;;;;;;;;;;;;;;;;;;;;;;;;;;;
"tettenhall1";"1995";;"Windows 7";"Rachel's Experiment (D.T.)";"1.0";"2";"1";"1";"2";"1";"1";"2014-10-13 14:38:43.767";"2014-10-13 14:52:57.631";"1";"1";"1";"59";"58";"module.training_block2.exec-3444.GoNoGo2";;;;;;;;;;;;;;;;;;;;;;;;;;;;;;;;;;;"1248";"2014-10-13 14:42:31.269";"NST_correctLoc";"9";"1";"FINISHED";"RIGHT";"success";"595";"0";"2014-10-13 14:42:30.019";"2";;;;;;;;;;;;;;;;;;;;;;;;;;;;;;;;;;;;;;;;;;;;;
"tettenhall1";"1995";;"Windows 7";"Rachel's Experiment (D.T.)";"1.0";"2";"1";"1";"2";"1";"1";"2014-10-13 14:38:43.767";"2014-10-13 14:52:57.631";"1";"1";"1";"60";"59";"module.training_block2.exec-3444.GoNoGo2";;;;;;;;;;;;;;;;;;;;;;;;;;;;;;;;;;;"1248";"2014-10-13 14:42:33.785";"ST_correctStop";"0";"0";"FINISHED";"NONE";"success";"0";"1";"2014-10-13 14:42:32.535";"1";;;;;;;;;;;;;;;;;;;;;;;;;;;;;;;;;;;;;;;;;;;;;
"tettenhall1";"1995";;"Windows 7";"Rachel's Experiment (D.T.)";"1.0";"2";"1";"1";"2";"1";"1";"2014-10-13 14:38:43.767";"2014-10-13 14:52:57.631";"1";"1";"1";"61";"60";"module.training_block2.exec-3444.GoNoGo2";;;;;;;;;;;;;;;;;;;;;;;;;;;;;;;;;;;"1248";"2014-10-13 14:42:36.300";"NST_correctLoc";"28";"1";"FINISHED";"RIGHT";"success";"715";"0";"2014-10-13 14:42:35.050";"3";;;;;;;;;;;;;;;;;;;;;;;;;;;;;;;;;;;;;;;;;;;;;
"tettenhall1";"1995";;"Windows 7";"Rachel's Experiment (D.T.)";"1.0";"2";"1";"1";"2";"1";"1";"2014-10-13 14:38:43.767";"2014-10-13 14:52:57.631";"1";"1";"1";"62";"61";"module.training_block2.exec-3444.GoNoGo2";;;;;;;;;;;;;;;;;;;;;;;;;;;;;;;;;;;"1248";"2014-10-13 14:42:38.816";"NST_correctLoc";"12";"1";"FINISHED";"RIGHT";"success";"767";"0";"2014-10-13 14:42:37.566";"2";;;;;;;;;;;;;;;;;;;;;;;;;;;;;;;;;;;;;;;;;;;;;
"tettenhall1";"1995";;"Windows 7";"Rachel's Experiment (D.T.)";"1.0";"2";"1";"1";"2";"1";"1";"2014-10-13 14:38:43.767";"2014-10-13 14:52:57.631";"1";"1";"1";"63";"62";"module.training_block2.exec-3444.GoNoGo2";;;;;;;;;;;;;;;;;;;;;;;;;;;;;;;;;;;"1248";"2014-10-13 14:42:41.331";"NST_correctLoc";"35";"0";"FINISHED";"LEFT";"success";"836";"0";"2014-10-13 14:42:40.081";"3";;;;;;;;;;;;;;;;;;;;;;;;;;;;;;;;;;;;;;;;;;;;;
"tettenhall1";"1995";;"Windows 7";"Rachel's Experiment (D.T.)";"1.0";"2";"1";"1";"2";"1";"1";"2014-10-13 14:38:43.767";"2014-10-13 14:52:57.631";"1";"1";"1";"64";"63";"module.training_block2.exec-3444.GoNoGo2";;;;;;;;;;;;;;;;;;;;;;;;;;;;;;;;;;;"1248";"2014-10-13 14:42:43.847";"ST_failedStop";"33";"0";"FINISHED";"LEFT";"failure";"560";"1";"2014-10-13 14:42:42.597";"3";;;;;;;;;;;;;;;;;;;;;;;;;;;;;;;;;;;;;;;;;;;;;
"tettenhall1";"1995";;"Windows 7";"Rachel's Experiment (D.T.)";"1.0";"2";"1";"1";"2";"1";"1";"2014-10-13 14:38:43.767";"2014-10-13 14:52:57.631";"1";"1";"1";"65";"64";"module.training_block2.exec-3444.GoNoGo2";;;;;;;;;;;;;;;;;;;;;;;;;;;;;;;;;;;"1248";"2014-10-13 14:42:46.363";"NST_correctLoc";"26";"1";"FINISHED";"RIGHT";"success";"756";"0";"2014-10-13 14:42:45.113";"3";;;;;;;;;;;;;;;;;;;;;;;;;;;;;;;;;;;;;;;;;;;;;
"tettenhall1";"1995";;"Windows 7";"Rachel's Experiment (D.T.)";"1.0";"2";"1";"1";"2";"1";"1";"2014-10-13 14:38:43.767";"2014-10-13 14:52:57.631";"1";"1";"1";"66";"65";"module.training_block2.exec-3444.GoNoGo2";;;;;;;;;;;;;;;;;;;;;;;;;;;;;;;;;;;"1248";"2014-10-13 14:42:48.878";"ST_correctStop";"1";"1";"FINISHED";"NONE";"success";"0";"1";"2014-10-13 14:42:47.628";"1";;;;;;;;;;;;;;;;;;;;;;;;;;;;;;;;;;;;;;;;;;;;;
"tettenhall1";"1995";;"Windows 7";"Rachel's Experiment (D.T.)";"1.0";"2";"1";"1";"2";"1";"1";"2014-10-13 14:38:43.767";"2014-10-13 14:52:57.631";"1";"1";"1";"67";"66";"module.training_block2.exec-3444.GoNoGo2";;;;;;;;;;;;;;;;;;;;;;;;;;;;;;;;;;;"1248";"2014-10-13 14:42:51.394";"NST_correctLoc";"13";"1";"FINISHED";"RIGHT";"success";"549";"0";"2014-10-13 14:42:50.144";"2";;;;;;;;;;;;;;;;;;;;;;;;;;;;;;;;;;;;;;;;;;;;;
"tettenhall1";"1995";;"Windows 7";"Rachel's Experiment (D.T.)";"1.0";"2";"1";"1";"2";"1";"1";"2014-10-13 14:38:43.767";"2014-10-13 14:52:57.631";"1";"1";"1";"68";"67";"module.training_block2.exec-3444.GoNoGo2";;;;;;;;;;;;;;;;;;;;;;;;;;;;;;;;;;;"1248";"2014-10-13 14:42:53.910";"ST_correctStop";"8";"0";"FINISHED";"NONE";"success";"0";"1";"2014-10-13 14:42:52.660";"1";;;;;;;;;;;;;;;;;;;;;;;;;;;;;;;;;;;;;;;;;;;;;
"tettenhall1";"1995";;"Windows 7";"Rachel's Experiment (D.T.)";"1.0";"2";"1";"1";"2";"1";"1";"2014-10-13 14:38:43.767";"2014-10-13 14:52:57.631";"1";"1";"1";"69";"68";"module.training_block2.exec-3444.GoNoGo2";;;;;;;;;;;;;;;;;;;;;;;;;;;;;;;;;;;"1248";"2014-10-13 14:42:56.417";"ST_correctStop";"27";"0";"FINISHED";"NONE";"success";"0";"1";"2014-10-13 14:42:55.167";"3";;;;;;;;;;;;;;;;;;;;;;;;;;;;;;;;;;;;;;;;;;;;;
"tettenhall1";"1995";;"Windows 7";"Rachel's Experiment (D.T.)";"1.0";"2";"1";"1";"2";"1";"1";"2014-10-13 14:38:43.767";"2014-10-13 14:52:57.631";"1";"1";"1";"70";"69";"module.training_block2.exec-3444.GoNoGo2";;;;;;;;;;;;;;;;;;;;;;;;;;;;;;;;;;;"1248";"2014-10-13 14:42:58.933";"NST_correctLoc";"15";"1";"FINISHED";"RIGHT";"success";"402";"0";"2014-10-13 14:42:57.683";"2";;;;;;;;;;;;;;;;;;;;;;;;;;;;;;;;;;;;;;;;;;;;;
"tettenhall1";"1995";;"Windows 7";"Rachel's Experiment (D.T.)";"1.0";"2";"1";"1";"2";"1";"1";"2014-10-13 14:38:43.767";"2014-10-13 14:52:57.631";"1";"1";"1";"71";"70";"module.training_block2.exec-3444.GoNoGo2";;;;;;;;;;;;;;;;;;;;;;;;;;;;;;;;;;;"1248";"2014-10-13 14:43:01.449";"ST_correctStop";"6";"0";"FINISHED";"NONE";"success";"0";"1";"2014-10-13 14:43:00.199";"1";;;;;;;;;;;;;;;;;;;;;;;;;;;;;;;;;;;;;;;;;;;;;
"tettenhall1";"1995";;"Windows 7";"Rachel's Experiment (D.T.)";"1.0";"2";"1";"1";"2";"1";"1";"2014-10-13 14:38:43.767";"2014-10-13 14:52:57.631";"1";"1";"1";"72";"71";"module.training_block2.exec-3444.GoNoGo2";;;;;;;;;;;;;;;;;;;;;;;;;;;;;;;;;;;"1248";"2014-10-13 14:43:03.964";"ST_correctStop";"2";"1";"FINISHED";"NONE";"success";"0";"1";"2014-10-13 14:43:02.714";"1";;;;;;;;;;;;;;;;;;;;;;;;;;;;;;;;;;;;;;;;;;;;;
"tettenhall1";"1995";;"Windows 7";"Rachel's Experiment (D.T.)";"1.0";"2";"1";"1";"2";"1";"1";"2014-10-13 14:38:43.767";"2014-10-13 14:52:57.631";"1";"1";"1";"73";"72";"module.training_block2.exec-3444.GoNoGo2";;;;;;;;;;;;;;;;;;;;;;;;;;;;;;;;;;;"1248";"2014-10-13 14:43:06.480";"ST_correctStop";"4";"1";"FINISHED";"NONE";"success";"0";"1";"2014-10-13 14:43:05.230";"1";;;;;;;;;;;;;;;;;;;;;;;;;;;;;;;;;;;;;;;;;;;;;
"tettenhall1";"1995";;"Windows 7";"Rachel's Experiment (D.T.)";"1.0";"2";"1";"1";"2";"1";"1";"2014-10-13 14:38:43.767";"2014-10-13 14:52:57.631";"1";"1";"1";"74";"73";"module.training_block2.exec-3444.GoNoGo2";;;;;;;;;;;;;;;;;;;;;;;;;;;;;;;;;;;"1248";"2014-10-13 14:43:08.996";"ST_correctStop";"5";"1";"FINISHED";"NONE";"success";"0";"1";"2014-10-13 14:43:07.746";"1";;;;;;;;;;;;;;;;;;;;;;;;;;;;;;;;;;;;;;;;;;;;;
"tettenhall1";"1995";;"Windows 7";"Rachel's Experiment (D.T.)";"1.0";"2";"1";"1";"2";"1";"1";"2014-10-13 14:38:43.767";"2014-10-13 14:52:57.631";"1";"1";"1";"75";"74";"module.training_block2.exec-3444.GoNoGo2";;;;;;;;;;;;;;;;;;;;;;;;;;;;;;;;;;;"1248";"2014-10-13 14:43:11.511";"ST_correctStop";"31";"0";"FINISHED";"NONE";"success";"0";"1";"2014-10-13 14:43:10.261";"3";;;;;;;;;;;;;;;;;;;;;;;;;;;;;;;;;;;;;;;;;;;;;
"tettenhall1";"1995";;"Windows 7";"Rachel's Experiment (D.T.)";"1.0";"2";"1";"1";"2";"1";"1";"2014-10-13 14:38:43.767";"2014-10-13 14:52:57.631";"1";"1";"1";"76";"75";"module.training_block2.exec-3444.GoNoGo2";;;;;;;;;;;;;;;;;;;;;;;;;;;;;;;;;;;"1248";"2014-10-13 14:43:14.027";"ST_correctStop";"3";"1";"FINISHED";"NONE";"success";"0";"1";"2014-10-13 14:43:12.777";"1";;;;;;;;;;;;;;;;;;;;;;;;;;;;;;;;;;;;;;;;;;;;;
"tettenhall1";"1995";;"Windows 7";"Rachel's Experiment (D.T.)";"1.0";"2";"1";"1";"2";"1";"1";"2014-10-13 14:38:43.767";"2014-10-13 14:52:57.631";"1";"1";"1";"77";"76";"module.training_block2.exec-3444.GoNoGo2";;;;;;;;;;;;;;;;;;;;;;;;;;;;;;;;;;;"1243";"2014-10-13 14:43:16.542";"NST_correctLoc";"11";"0";"FINISHED";"LEFT";"success";"771";"0";"2014-10-13 14:43:15.292";"2";;;;;;;;;;;;;;;;;;;;;;;;;;;;;;;;;;;;;;;;;;;;;
"tettenhall1";"1995";;"Windows 7";"Rachel's Experiment (D.T.)";"1.0";"2";"1";"1";"2";"1";"1";"2014-10-13 14:38:43.767";"2014-10-13 14:52:57.631";"1";"1";"1";"78";"77";"module.training_block2.exec-3444.GoNoGo2";;;;;;;;;;;;;;;;;;;;;;;;;;;;;;;;;;;"1248";"2014-10-13 14:43:19.058";"NST_correctLoc";"14";"1";"FINISHED";"RIGHT";"success";"756";"0";"2014-10-13 14:43:17.808";"2";;;;;;;;;;;;;;;;;;;;;;;;;;;;;;;;;;;;;;;;;;;;;
"tettenhall1";"1995";;"Windows 7";"Rachel's Experiment (D.T.)";"1.0";"2";"1";"1";"2";"1";"1";"2014-10-13 14:38:43.767";"2014-10-13 14:52:57.631";"1";"1";"1";"79";"78";"module.training_block2.exec-3444.GoNoGo2";;;;;;;;;;;;;;;;;;;;;;;;;;;;;;;;;;;"1248";"2014-10-13 14:43:21.574";"NST_correctLoc";"10";"0";"FINISHED";"LEFT";"success";"641";"0";"2014-10-13 14:43:20.324";"2";;;;;;;;;;;;;;;;;;;;;;;;;;;;;;;;;;;;;;;;;;;;;
"tettenhall1";"1995";;"Windows 7";"Rachel's Experiment (D.T.)";"1.0";"2";"1";"1";"2";"1";"1";"2014-10-13 14:38:43.767";"2014-10-13 14:52:57.631";"1";"1";"1";"80";"79";"module.training_block2.exec-3444.GoNoGo2";;;;;;;;;;;;;;;;;;;;;;;;;;;;;;;;;;;"1248";"2014-10-13 14:43:24.089";"ST_correctStop";"30";"0";"FINISHED";"NONE";"success";"0";"1";"2014-10-13 14:43:22.839";"3";;;;;;;;;;;;;;;;;;;;;;;;;;;;;;;;;;;;;;;;;;;;;
"tettenhall1";"1995";;"Windows 7";"Rachel's Experiment (D.T.)";"1.0";"2";"1";"1";"2";"1";"1";"2014-10-13 14:38:43.767";"2014-10-13 14:52:57.631";"1";"1";"1";"81";"80";"module.training_block2.exec-3444.GoNoGo2";;;;;;;;;;;;;;;;;;;;;;;;;;;;;;;;;;;"1248";"2014-10-13 14:43:26.605";"NST_correctLoc";"19";"1";"FINISHED";"RIGHT";"success";"481";"0";"2014-10-13 14:43:25.355";"3";;;;;;;;;;;;;;;;;;;;;;;;;;;;;;;;;;;;;;;;;;;;;
"tettenhall1";"1995";;"Windows 7";"Rachel's Experiment (D.T.)";"1.0";"2";"1";"1";"2";"1";"1";"2014-10-13 14:38:43.767";"2014-10-13 14:52:57.631";"1";"1";"1";"82";"81";"module.training_block2.exec-3444.GoNoGo2";;;;;;;;;;;;;;;;;;;;;;;;;;;;;;;;;;;"1248";"2014-10-13 14:43:29.121";"NST_correctLoc";"16";"0";"FINISHED";"LEFT";"success";"1198";"0";"2014-10-13 14:43:27.871";"2";;;;;;;;;;;;;;;;;;;;;;;;;;;;;;;;;;;;;;;;;;;;;
"tettenhall1";"1995";;"Windows 7";"Rachel's Experiment (D.T.)";"1.0";"2";"1";"1";"2";"1";"1";"2014-10-13 14:38:43.767";"2014-10-13 14:52:57.631";"1";"1";"1";"83";"82";"module.training_block2.exec-3444.GoNoGo2";;;;;;;;;;;;;;;;;;;;;;;;;;;;;;;;;;;"1248";"2014-10-13 14:43:31.636";"NST_correctLoc";"23";"1";"FINISHED";"RIGHT";"success";"578";"0";"2014-10-13 14:43:30.386";"3";;;;;;;;;;;;;;;;;;;;;;;;;;;;;;;;;;;;;;;;;;;;;
"tettenhall1";"1995";;"Windows 7";"Rachel's Experiment (D.T.)";"1.0";"2";"1";"1";"2";"1";"1";"2014-10-13 14:38:43.767";"2014-10-13 14:52:57.631";"1";"1";"1";"84";"83";"module.training_block2.exec-3444.GoNoGo2";;;;;;;;;;;;;;;;;;;;;;;;;;;;;;;;;;;"1248";"2014-10-13 14:43:34.152";"ST_correctStop";"20";"1";"FINISHED";"NONE";"success";"0";"1";"2014-10-13 14:43:32.902";"3";;;;;;;;;;;;;;;;;;;;;;;;;;;;;;;;;;;;;;;;;;;;;
"tettenhall1";"1995";;"Windows 7";"Rachel's Experiment (D.T.)";"1.0";"2";"1";"1";"2";"1";"1";"2014-10-13 14:38:43.767";"2014-10-13 14:52:57.631";"1";"1";"1";"85";"84";"module.training_block2.exec-3444.GoNoGo2";;;;;;;;;;;;;;;;;;;;;;;;;;;;;;;;;;;"1248";"2014-10-13 14:43:36.667";"ST_correctStop";"32";"1";"FINISHED";"NONE";"success";"0";"1";"2014-10-13 14:43:35.417";"3";;;;;;;;;;;;;;;;;;;;;;;;;;;;;;;;;;;;;;;;;;;;;
"tettenhall1";"1995";;"Windows 7";"Rachel's Experiment (D.T.)";"1.0";"2";"1";"1";"2";"1";"1";"2014-10-13 14:38:43.767";"2014-10-13 14:52:57.631";"1";"1";"1";"86";"85";"module.training_block2.exec-3444.GoNoGo2";;;;;;;;;;;;;;;;;;;;;;;;;;;;;;;;;;;"1248";"2014-10-13 14:43:39.183";"NST_correctLoc";"24";"0";"FINISHED";"LEFT";"success";"1207";"0";"2014-10-13 14:43:37.933";"3";;;;;;;;;;;;;;;;;;;;;;;;;;;;;;;;;;;;;;;;;;;;;
"tettenhall1";"1995";;"Windows 7";"Rachel's Experiment (D.T.)";"1.0";"2";"1";"1";"2";"1";"1";"2014-10-13 14:38:43.767";"2014-10-13 14:52:57.631";"1";"1";"1";"87";"86";"module.training_block2.exec-3444.GoNoGo2";;;;;;;;;;;;;;;;;;;;;;;;;;;;;;;;;;;"1248";"2014-10-13 14:43:41.699";"NST_correctLoc";"25";"1";"FINISHED";"RIGHT";"success";"891";"0";"2014-10-13 14:43:40.449";"3";;;;;;;;;;;;;;;;;;;;;;;;;;;;;;;;;;;;;;;;;;;;;
"tettenhall1";"1995";;"Windows 7";"Rachel's Experiment (D.T.)";"1.0";"2";"1";"1";"2";"1";"1";"2014-10-13 14:38:43.767";"2014-10-13 14:52:57.631";"1";"1";"1";"88";"87";"module.training_block3.exec-7666.GoNoGo3";;;;;;;;;;;;;;;;;;;;;;;;;;;;;;;;;;;;;;;;;;;;;;;"1248";"2014-10-13 14:43:52.558";"NST_correctLoc";"25";"0";"FINISHED";"LEFT";"success";"655";"0";"2014-10-13 14:43:51.308";"3";;;;;;;;;;;;;;;;;;;;;;;;;;;;;;;;;
"tettenhall1";"1995";;"Windows 7";"Rachel's Experiment (D.T.)";"1.0";"2";"1";"1";"2";"1";"1";"2014-10-13 14:38:43.767";"2014-10-13 14:52:57.631";"1";"1";"1";"89";"88";"module.training_block3.exec-7666.GoNoGo3";;;;;;;;;;;;;;;;;;;;;;;;;;;;;;;;;;;;;;;;;;;;;;;"1248";"2014-10-13 14:43:55.074";"NST_correctLoc";"32";"1";"FINISHED";"RIGHT";"success";"548";"0";"2014-10-13 14:43:53.824";"3";;;;;;;;;;;;;;;;;;;;;;;;;;;;;;;;;
"tettenhall1";"1995";;"Windows 7";"Rachel's Experiment (D.T.)";"1.0";"2";"1";"1";"2";"1";"1";"2014-10-13 14:38:43.767";"2014-10-13 14:52:57.631";"1";"1";"1";"90";"89";"module.training_block3.exec-7666.GoNoGo3";;;;;;;;;;;;;;;;;;;;;;;;;;;;;;;;;;;;;;;;;;;;;;;"1248";"2014-10-13 14:43:57.589";"NST_correctLoc";"14";"1";"FINISHED";"RIGHT";"success";"416";"0";"2014-10-13 14:43:56.339";"2";;;;;;;;;;;;;;;;;;;;;;;;;;;;;;;;;
"tettenhall1";"1995";;"Windows 7";"Rachel's Experiment (D.T.)";"1.0";"2";"1";"1";"2";"1";"1";"2014-10-13 14:38:43.767";"2014-10-13 14:52:57.631";"1";"1";"1";"91";"90";"module.training_block3.exec-7666.GoNoGo3";;;;;;;;;;;;;;;;;;;;;;;;;;;;;;;;;;;;;;;;;;;;;;;"1248";"2014-10-13 14:44:00.105";"NST_correctLoc";"11";"1";"FINISHED";"RIGHT";"success";"565";"0";"2014-10-13 14:43:58.855";"2";;;;;;;;;;;;;;;;;;;;;;;;;;;;;;;;;
"tettenhall1";"1995";;"Windows 7";"Rachel's Experiment (D.T.)";"1.0";"2";"1";"1";"2";"1";"1";"2014-10-13 14:38:43.767";"2014-10-13 14:52:57.631";"1";"1";"1";"92";"91";"module.training_block3.exec-7666.GoNoGo3";;;;;;;;;;;;;;;;;;;;;;;;;;;;;;;;;;;;;;;;;;;;;;;"1248";"2014-10-13 14:44:02.621";"ST_correctStop";"4";"1";"FINISHED";"NONE";"success";"0";"1";"2014-10-13 14:44:01.371";"1";;;;;;;;;;;;;;;;;;;;;;;;;;;;;;;;;
"tettenhall1";"1995";;"Windows 7";"Rachel's Experiment (D.T.)";"1.0";"2";"1";"1";"2";"1";"1";"2014-10-13 14:38:43.767";"2014-10-13 14:52:57.631";"1";"1";"1";"93";"92";"module.training_block3.exec-7666.GoNoGo3";;;;;;;;;;;;;;;;;;;;;;;;;;;;;;;;;;;;;;;;;;;;;;;"1248";"2014-10-13 14:44:05.136";"ST_correctStop";"8";"1";"FINISHED";"NONE";"success";"0";"1";"2014-10-13 14:44:03.886";"1";;;;;;;;;;;;;;;;;;;;;;;;;;;;;;;;;
"tettenhall1";"1995";;"Windows 7";"Rachel's Experiment (D.T.)";"1.0";"2";"1";"1";"2";"1";"1";"2014-10-13 14:38:43.767";"2014-10-13 14:52:57.631";"1";"1";"1";"94";"93";"module.training_block3.exec-7666.GoNoGo3";;;;;;;;;;;;;;;;;;;;;;;;;;;;;;;;;;;;;;;;;;;;;;;"1248";"2014-10-13 14:44:07.652";"NST_correctLoc";"33";"0";"FINISHED";"LEFT";"success";"802";"0";"2014-10-13 14:44:06.402";"3";;;;;;;;;;;;;;;;;;;;;;;;;;;;;;;;;
"tettenhall1";"1995";;"Windows 7";"Rachel's Experiment (D.T.)";"1.0";"2";"1";"1";"2";"1";"1";"2014-10-13 14:38:43.767";"2014-10-13 14:52:57.631";"1";"1";"1";"95";"94";"module.training_block3.exec-7666.GoNoGo3";;;;;;;;;;;;;;;;;;;;;;;;;;;;;;;;;;;;;;;;;;;;;;;"1248";"2014-10-13 14:44:10.167";"ST_correctStop";"0";"1";"FINISHED";"NONE";"success";"0";"1";"2014-10-13 14:44:08.917";"1";;;;;;;;;;;;;;;;;;;;;;;;;;;;;;;;;
"tettenhall1";"1995";;"Windows 7";"Rachel's Experiment (D.T.)";"1.0";"2";"1";"1";"2";"1";"1";"2014-10-13 14:38:43.767";"2014-10-13 14:52:57.631";"1";"1";"1";"96";"95";"module.training_block3.exec-7666.GoNoGo3";;;;;;;;;;;;;;;;;;;;;;;;;;;;;;;;;;;;;;;;;;;;;;;"1248";"2014-10-13 14:44:12.683";"NST_correctLoc";"30";"0";"FINISHED";"LEFT";"success";"490";"0";"2014-10-13 14:44:11.433";"3";;;;;;;;;;;;;;;;;;;;;;;;;;;;;;;;;
"tettenhall1";"1995";;"Windows 7";"Rachel's Experiment (D.T.)";"1.0";"2";"1";"1";"2";"1";"1";"2014-10-13 14:38:43.767";"2014-10-13 14:52:57.631";"1";"1";"1";"97";"96";"module.training_block3.exec-7666.GoNoGo3";;;;;;;;;;;;;;;;;;;;;;;;;;;;;;;;;;;;;;;;;;;;;;;"1248";"2014-10-13 14:44:15.191";"NST_correctLoc";"12";"0";"FINISHED";"LEFT";"success";"422";"0";"2014-10-13 14:44:13.941";"2";;;;;;;;;;;;;;;;;;;;;;;;;;;;;;;;;
"tettenhall1";"1995";;"Windows 7";"Rachel's Experiment (D.T.)";"1.0";"2";"1";"1";"2";"1";"1";"2014-10-13 14:38:43.767";"2014-10-13 14:52:57.631";"1";"1";"1";"98";"97";"module.training_block3.exec-7666.GoNoGo3";;;;;;;;;;;;;;;;;;;;;;;;;;;;;;;;;;;;;;;;;;;;;;;"1248";"2014-10-13 14:44:17.706";"ST_correctStop";"23";"1";"FINISHED";"NONE";"success";"0";"1";"2014-10-13 14:44:16.456";"3";;;;;;;;;;;;;;;;;;;;;;;;;;;;;;;;;
"tettenhall1";"1995";;"Windows 7";"Rachel's Experiment (D.T.)";"1.0";"2";"1";"1";"2";"1";"1";"2014-10-13 14:38:43.767";"2014-10-13 14:52:57.631";"1";"1";"1";"99";"98";"module.training_block3.exec-7666.GoNoGo3";;;;;;;;;;;;;;;;;;;;;;;;;;;;;;;;;;;;;;;;;;;;;;;"1248";"2014-10-13 14:44:20.222";"NST_correctLoc";"15";"1";"FINISHED";"RIGHT";"success";"839";"0";"2014-10-13 14:44:18.972";"2";;;;;;;;;;;;;;;;;;;;;;;;;;;;;;;;;
"tettenhall1";"1995";;"Windows 7";"Rachel's Experiment (D.T.)";"1.0";"2";"1";"1";"2";"1";"1";"2014-10-13 14:38:43.767";"2014-10-13 14:52:57.631";"1";"1";"1";"100";"99";"module.training_block3.exec-7666.GoNoGo3";;;;;;;;;;;;;;;;;;;;;;;;;;;;;;;;;;;;;;;;;;;;;;;"1248";"2014-10-13 14:44:22.730";"NST_correctLoc";"17";"1";"FINISHED";"RIGHT";"success";"771";"0";"2014-10-13 14:44:21.480";"2";;;;;;;;;;;;;;;;;;;;;;;;;;;;;;;;;
"tettenhall1";"1995";;"Windows 7";"Rachel's Experiment (D.T.)";"1.0";"2";"1";"1";"2";"1";"1";"2014-10-13 14:38:43.767";"2014-10-13 14:52:57.631";"1";"1";"1";"101";"100";"module.training_block3.exec-7666.GoNoGo3";;;;;;;;;;;;;;;;;;;;;;;;;;;;;;;;;;;;;;;;;;;;;;;"1248";"2014-10-13 14:44:25.246";"ST_correctStop";"27";"1";"FINISHED";"NONE";"success";"0";"1";"2014-10-13 14:44:23.996";"3";;;;;;;;;;;;;;;;;;;;;;;;;;;;;;;;;
"tettenhall1";"1995";;"Windows 7";"Rachel's Experiment (D.T.)";"1.0";"2";"1";"1";"2";"1";"1";"2014-10-13 14:38:43.767";"2014-10-13 14:52:57.631";"1";"1";"1";"102";"101";"module.training_block3.exec-7666.GoNoGo3";;;;;;;;;;;;;;;;;;;;;;;;;;;;;;;;;;;;;;;;;;;;;;;"1248";"2014-10-13 14:44:27.761";"ST_correctStop";"26";"0";"FINISHED";"NONE";"success";"0";"1";"2014-10-13 14:44:26.511";"3";;;;;;;;;;;;;;;;;;;;;;;;;;;;;;;;;
"tettenhall1";"1995";;"Windows 7";"Rachel's Experiment (D.T.)";"1.0";"2";"1";"1";"2";"1";"1";"2014-10-13 14:38:43.767";"2014-10-13 14:52:57.631";"1";"1";"1";"103";"102";"module.training_block3.exec-7666.GoNoGo3";;;;;;;;;;;;;;;;;;;;;;;;;;;;;;;;;;;;;;;;;;;;;;;"1248";"2014-10-13 14:44:30.277";"ST_correctStop";"1";"1";"FINISHED";"NONE";"success";"0";"1";"2014-10-13 14:44:29.027";"1";;;;;;;;;;;;;;;;;;;;;;;;;;;;;;;;;
"tettenhall1";"1995";;"Windows 7";"Rachel's Experiment (D.T.)";"1.0";"2";"1";"1";"2";"1";"1";"2014-10-13 14:38:43.767";"2014-10-13 14:52:57.631";"1";"1";"1";"104";"103";"module.training_block3.exec-7666.GoNoGo3";;;;;;;;;;;;;;;;;;;;;;;;;;;;;;;;;;;;;;;;;;;;;;;"1248";"2014-10-13 14:44:32.792";"NST_correctLoc";"16";"0";"FINISHED";"LEFT";"success";"588";"0";"2014-10-13 14:44:31.542";"2";;;;;;;;;;;;;;;;;;;;;;;;;;;;;;;;;
"tettenhall1";"1995";;"Windows 7";"Rachel's Experiment (D.T.)";"1.0";"2";"1";"1";"2";"1";"1";"2014-10-13 14:38:43.767";"2014-10-13 14:52:57.631";"1";"1";"1";"105";"104";"module.training_block3.exec-7666.GoNoGo3";;;;;;;;;;;;;;;;;;;;;;;;;;;;;;;;;;;;;;;;;;;;;;;"1248";"2014-10-13 14:44:35.308";"NST_correctLoc";"18";"0";"FINISHED";"LEFT";"success";"737";"0";"2014-10-13 14:44:34.058";"3";;;;;;;;;;;;;;;;;;;;;;;;;;;;;;;;;
"tettenhall1";"1995";;"Windows 7";"Rachel's Experiment (D.T.)";"1.0";"2";"1";"1";"2";"1";"1";"2014-10-13 14:38:43.767";"2014-10-13 14:52:57.631";"1";"1";"1";"106";"105";"module.training_block3.exec-7666.GoNoGo3";;;;;;;;;;;;;;;;;;;;;;;;;;;;;;;;;;;;;;;;;;;;;;;"1248";"2014-10-13 14:44:37.824";"ST_correctStop";"3";"0";"FINISHED";"NONE";"success";"0";"1";"2014-10-13 14:44:36.574";"1";;;;;;;;;;;;;;;;;;;;;;;;;;;;;;;;;
"tettenhall1";"1995";;"Windows 7";"Rachel's Experiment (D.T.)";"1.0";"2";"1";"1";"2";"1";"1";"2014-10-13 14:38:43.767";"2014-10-13 14:52:57.631";"1";"1";"1";"107";"106";"module.training_block3.exec-7666.GoNoGo3";;;;;;;;;;;;;;;;;;;;;;;;;;;;;;;;;;;;;;;;;;;;;;;"1248";"2014-10-13 14:44:40.331";"NST_correctLoc";"10";"0";"FINISHED";"LEFT";"success";"585";"0";"2014-10-13 14:44:39.081";"2";;;;;;;;;;;;;;;;;;;;;;;;;;;;;;;;;
"tettenhall1";"1995";;"Windows 7";"Rachel's Experiment (D.T.)";"1.0";"2";"1";"1";"2";"1";"1";"2014-10-13 14:38:43.767";"2014-10-13 14:52:57.631";"1";"1";"1";"108";"107";"module.training_block3.exec-7666.GoNoGo3";;;;;;;;;;;;;;;;;;;;;;;;;;;;;;;;;;;;;;;;;;;;;;;"1248";"2014-10-13 14:44:42.839";"ST_correctStop";"2";"0";"FINISHED";"NONE";"success";"0";"1";"2014-10-13 14:44:41.589";"1";;;;;;;;;;;;;;;;;;;;;;;;;;;;;;;;;
"tettenhall1";"1995";;"Windows 7";"Rachel's Experiment (D.T.)";"1.0";"2";"1";"1";"2";"1";"1";"2014-10-13 14:38:43.767";"2014-10-13 14:52:57.631";"1";"1";"1";"109";"108";"module.training_block3.exec-7666.GoNoGo3";;;;;;;;;;;;;;;;;;;;;;;;;;;;;;;;;;;;;;;;;;;;;;;"1248";"2014-10-13 14:44:45.347";"NST_correctLoc";"9";"1";"FINISHED";"RIGHT";"success";"761";"0";"2014-10-13 14:44:44.097";"2";;;;;;;;;;;;;;;;;;;;;;;;;;;;;;;;;
"tettenhall1";"1995";;"Windows 7";"Rachel's Experiment (D.T.)";"1.0";"2";"1";"1";"2";"1";"1";"2014-10-13 14:38:43.767";"2014-10-13 14:52:57.631";"1";"1";"1";"110";"109";"module.training_block3.exec-7666.GoNoGo3";;;;;;;;;;;;;;;;;;;;;;;;;;;;;;;;;;;;;;;;;;;;;;;"1248";"2014-10-13 14:44:47.862";"NST_correctLoc";"28";"0";"FINISHED";"LEFT";"success";"845";"0";"2014-10-13 14:44:46.612";"3";;;;;;;;;;;;;;;;;;;;;;;;;;;;;;;;;
"tettenhall1";"1995";;"Windows 7";"Rachel's Experiment (D.T.)";"1.0";"2";"1";"1";"2";"1";"1";"2014-10-13 14:38:43.767";"2014-10-13 14:52:57.631";"1";"1";"1";"111";"110";"module.training_block3.exec-7666.GoNoGo3";;;;;;;;;;;;;;;;;;;;;;;;;;;;;;;;;;;;;;;;;;;;;;;"1248";"2014-10-13 14:44:50.370";"ST_correctStop";"7";"1";"FINISHED";"NONE";"success";"0";"1";"2014-10-13 14:44:49.120";"1";;;;;;;;;;;;;;;;;;;;;;;;;;;;;;;;;
"tettenhall1";"1995";;"Windows 7";"Rachel's Experiment (D.T.)";"1.0";"2";"1";"1";"2";"1";"1";"2014-10-13 14:38:43.767";"2014-10-13 14:52:57.631";"1";"1";"1";"112";"111";"module.training_block3.exec-7666.GoNoGo3";;;;;;;;;;;;;;;;;;;;;;;;;;;;;;;;;;;;;;;;;;;;;;;"1248";"2014-10-13 14:44:52.877";"ST_correctStop";"29";"0";"FINISHED";"NONE";"success";"0";"1";"2014-10-13 14:44:51.627";"3";;;;;;;;;;;;;;;;;;;;;;;;;;;;;;;;;
"tettenhall1";"1995";;"Windows 7";"Rachel's Experiment (D.T.)";"1.0";"2";"1";"1";"2";"1";"1";"2014-10-13 14:38:43.767";"2014-10-13 14:52:57.631";"1";"1";"1";"113";"112";"module.training_block3.exec-7666.GoNoGo3";;;;;;;;;;;;;;;;;;;;;;;;;;;;;;;;;;;;;;;;;;;;;;;"1248";"2014-10-13 14:44:55.385";"ST_correctStop";"31";"1";"FINISHED";"NONE";"success";"0";"1";"2014-10-13 14:44:54.135";"3";;;;;;;;;;;;;;;;;;;;;;;;;;;;;;;;;
"tettenhall1";"1995";;"Windows 7";"Rachel's Experiment (D.T.)";"1.0";"2";"1";"1";"2";"1";"1";"2014-10-13 14:38:43.767";"2014-10-13 14:52:57.631";"1";"1";"1";"114";"113";"module.training_block3.exec-7666.GoNoGo3";;;;;;;;;;;;;;;;;;;;;;;;;;;;;;;;;;;;;;;;;;;;;;;"1248";"2014-10-13 14:44:57.893";"NST_correctLoc";"21";"0";"FINISHED";"LEFT";"success";"462";"0";"2014-10-13 14:44:56.643";"3";;;;;;;;;;;;;;;;;;;;;;;;;;;;;;;;;
"tettenhall1";"1995";;"Windows 7";"Rachel's Experiment (D.T.)";"1.0";"2";"1";"1";"2";"1";"1";"2014-10-13 14:38:43.767";"2014-10-13 14:52:57.631";"1";"1";"1";"115";"114";"module.training_block3.exec-7666.GoNoGo3";;;;;;;;;;;;;;;;;;;;;;;;;;;;;;;;;;;;;;;;;;;;;;;"1248";"2014-10-13 14:45:00.401";"ST_correctStop";"24";"0";"FINISHED";"NONE";"success";"0";"1";"2014-10-13 14:44:59.151";"3";;;;;;;;;;;;;;;;;;;;;;;;;;;;;;;;;
"tettenhall1";"1995";;"Windows 7";"Rachel's Experiment (D.T.)";"1.0";"2";"1";"1";"2";"1";"1";"2014-10-13 14:38:43.767";"2014-10-13 14:52:57.631";"1";"1";"1";"116";"115";"module.training_block3.exec-7666.GoNoGo3";;;;;;;;;;;;;;;;;;;;;;;;;;;;;;;;;;;;;;;;;;;;;;;"1248";"2014-10-13 14:45:02.909";"NST_correctLoc";"13";"1";"FINISHED";"RIGHT";"success";"582";"0";"2014-10-13 14:45:01.659";"2";;;;;;;;;;;;;;;;;;;;;;;;;;;;;;;;;
"tettenhall1";"1995";;"Windows 7";"Rachel's Experiment (D.T.)";"1.0";"2";"1";"1";"2";"1";"1";"2014-10-13 14:38:43.767";"2014-10-13 14:52:57.631";"1";"1";"1";"117";"116";"module.training_block3.exec-7666.GoNoGo3";;;;;;;;;;;;;;;;;;;;;;;;;;;;;;;;;;;;;;;;;;;;;;;"1248";"2014-10-13 14:45:05.416";"NST_correctLoc";"20";"0";"FINISHED";"LEFT";"success";"1066";"0";"2014-10-13 14:45:04.166";"3";;;;;;;;;;;;;;;;;;;;;;;;;;;;;;;;;
"tettenhall1";"1995";;"Windows 7";"Rachel's Experiment (D.T.)";"1.0";"2";"1";"1";"2";"1";"1";"2014-10-13 14:38:43.767";"2014-10-13 14:52:57.631";"1";"1";"1";"118";"117";"module.training_block3.exec-7666.GoNoGo3";;;;;;;;;;;;;;;;;;;;;;;;;;;;;;;;;;;;;;;;;;;;;;;"1248";"2014-10-13 14:45:07.924";"NST_correctLoc";"35";"1";"FINISHED";"RIGHT";"success";"670";"0";"2014-10-13 14:45:06.674";"3";;;;;;;;;;;;;;;;;;;;;;;;;;;;;;;;;
"tettenhall1";"1995";;"Windows 7";"Rachel's Experiment (D.T.)";"1.0";"2";"1";"1";"2";"1";"1";"2014-10-13 14:38:43.767";"2014-10-13 14:52:57.631";"1";"1";"1";"119";"118";"module.training_block3.exec-7666.GoNoGo3";;;;;;;;;;;;;;;;;;;;;;;;;;;;;;;;;;;;;;;;;;;;;;;"1248";"2014-10-13 14:45:10.432";"ST_correctStop";"6";"0";"FINISHED";"NONE";"success";"0";"1";"2014-10-13 14:45:09.182";"1";;;;;;;;;;;;;;;;;;;;;;;;;;;;;;;;;
"tettenhall1";"1995";;"Windows 7";"Rachel's Experiment (D.T.)";"1.0";"2";"1";"1";"2";"1";"1";"2014-10-13 14:38:43.767";"2014-10-13 14:52:57.631";"1";"1";"1";"120";"119";"module.training_block3.exec-7666.GoNoGo3";;;;;;;;;;;;;;;;;;;;;;;;;;;;;;;;;;;;;;;;;;;;;;;"1248";"2014-10-13 14:45:12.940";"ST_correctStop";"22";"1";"FINISHED";"NONE";"success";"0";"1";"2014-10-13 14:45:11.690";"3";;;;;;;;;;;;;;;;;;;;;;;;;;;;;;;;;
"tettenhall1";"1995";;"Windows 7";"Rachel's Experiment (D.T.)";"1.0";"2";"1";"1";"2";"1";"1";"2014-10-13 14:38:43.767";"2014-10-13 14:52:57.631";"1";"1";"1";"121";"120";"module.training_block3.exec-7666.GoNoGo3";;;;;;;;;;;;;;;;;;;;;;;;;;;;;;;;;;;;;;;;;;;;;;;"1248";"2014-10-13 14:45:15.456";"ST_correctStop";"19";"1";"FINISHED";"NONE";"success";"0";"1";"2014-10-13 14:45:14.206";"3";;;;;;;;;;;;;;;;;;;;;;;;;;;;;;;;;
"tettenhall1";"1995";;"Windows 7";"Rachel's Experiment (D.T.)";"1.0";"2";"1";"1";"2";"1";"1";"2014-10-13 14:38:43.767";"2014-10-13 14:52:57.631";"1";"1";"1";"122";"121";"module.training_block3.exec-7666.GoNoGo3";;;;;;;;;;;;;;;;;;;;;;;;;;;;;;;;;;;;;;;;;;;;;;;"1248";"2014-10-13 14:45:17.971";"ST_correctStop";"5";"0";"FINISHED";"NONE";"success";"0";"1";"2014-10-13 14:45:16.721";"1";;;;;;;;;;;;;;;;;;;;;;;;;;;;;;;;;
"tettenhall1";"1995";;"Windows 7";"Rachel's Experiment (D.T.)";"1.0";"2";"1";"1";"2";"1";"1";"2014-10-13 14:38:43.767";"2014-10-13 14:52:57.631";"1";"1";"1";"123";"122";"module.training_block3.exec-7666.GoNoGo3";;;;;;;;;;;;;;;;;;;;;;;;;;;;;;;;;;;;;;;;;;;;;;;"1248";"2014-10-13 14:45:20.479";"ST_correctStop";"34";"1";"FINISHED";"NONE";"success";"0";"1";"2014-10-13 14:45:19.229";"3";;;;;;;;;;;;;;;;;;;;;;;;;;;;;;;;;
"tettenhall1";"1995";;"Windows 7";"Rachel's Experiment (D.T.)";"1.0";"2";"1";"1";"2";"1";"1";"2014-10-13 14:38:43.767";"2014-10-13 14:52:57.631";"1";"1";"1";"124";"123";"module.training_block4.exec-8784.GoNoGo4";;;;;;;;;;;;;;;;;;;;;;;;;;;;;;;;;;;;;;;;;;;;;;;;;;;;;;;;;;;"1248";"2014-10-13 14:45:31.924";"NST_correctLoc";"13";"1";"FINISHED";"RIGHT";"success";"598";"0";"2014-10-13 14:45:30.674";"2";;;;;;;;;;;;;;;;;;;;;
"tettenhall1";"1995";;"Windows 7";"Rachel's Experiment (D.T.)";"1.0";"2";"1";"1";"2";"1";"1";"2014-10-13 14:38:43.767";"2014-10-13 14:52:57.631";"1";"1";"1";"125";"124";"module.training_block4.exec-8784.GoNoGo4";;;;;;;;;;;;;;;;;;;;;;;;;;;;;;;;;;;;;;;;;;;;;;;;;;;;;;;;;;;"1248";"2014-10-13 14:45:34.432";"ST_correctStop";"8";"1";"FINISHED";"NONE";"success";"0";"1";"2014-10-13 14:45:33.182";"1";;;;;;;;;;;;;;;;;;;;;
"tettenhall1";"1995";;"Windows 7";"Rachel's Experiment (D.T.)";"1.0";"2";"1";"1";"2";"1";"1";"2014-10-13 14:38:43.767";"2014-10-13 14:52:57.631";"1";"1";"1";"126";"125";"module.training_block4.exec-8784.GoNoGo4";;;;;;;;;;;;;;;;;;;;;;;;;;;;;;;;;;;;;;;;;;;;;;;;;;;;;;;;;;;"1248";"2014-10-13 14:45:36.940";"ST_correctStop";"33";"1";"FINISHED";"NONE";"success";"0";"1";"2014-10-13 14:45:35.690";"3";;;;;;;;;;;;;;;;;;;;;
"tettenhall1";"1995";;"Windows 7";"Rachel's Experiment (D.T.)";"1.0";"2";"1";"1";"2";"1";"1";"2014-10-13 14:38:43.767";"2014-10-13 14:52:57.631";"1";"1";"1";"127";"126";"module.training_block4.exec-8784.GoNoGo4";;;;;;;;;;;;;;;;;;;;;;;;;;;;;;;;;;;;;;;;;;;;;;;;;;;;;;;;;;;"1248";"2014-10-13 14:45:39.448";"ST_correctStop";"19";"0";"FINISHED";"NONE";"success";"0";"1";"2014-10-13 14:45:38.198";"3";;;;;;;;;;;;;;;;;;;;;
"tettenhall1";"1995";;"Windows 7";"Rachel's Experiment (D.T.)";"1.0";"2";"1";"1";"2";"1";"1";"2014-10-13 14:38:43.767";"2014-10-13 14:52:57.631";"1";"1";"1";"128";"127";"module.training_block4.exec-8784.GoNoGo4";;;;;;;;;;;;;;;;;;;;;;;;;;;;;;;;;;;;;;;;;;;;;;;;;;;;;;;;;;;"1248";"2014-10-13 14:45:41.956";"NST_correctLoc";"21";"0";"FINISHED";"LEFT";"success";"470";"0";"2014-10-13 14:45:40.706";"3";;;;;;;;;;;;;;;;;;;;;
"tettenhall1";"1995";;"Windows 7";"Rachel's Experiment (D.T.)";"1.0";"2";"1";"1";"2";"1";"1";"2014-10-13 14:38:43.767";"2014-10-13 14:52:57.631";"1";"1";"1";"129";"128";"module.training_block4.exec-8784.GoNoGo4";;;;;;;;;;;;;;;;;;;;;;;;;;;;;;;;;;;;;;;;;;;;;;;;;;;;;;;;;;;"1249";"2014-10-13 14:45:44.463";"NST_correctLoc";"9";"0";"FINISHED";"LEFT";"success";"762";"0";"2014-10-13 14:45:43.213";"2";;;;;;;;;;;;;;;;;;;;;
"tettenhall1";"1995";;"Windows 7";"Rachel's Experiment (D.T.)";"1.0";"2";"1";"1";"2";"1";"1";"2014-10-13 14:38:43.767";"2014-10-13 14:52:57.631";"1";"1";"1";"130";"129";"module.training_block4.exec-8784.GoNoGo4";;;;;;;;;;;;;;;;;;;;;;;;;;;;;;;;;;;;;;;;;;;;;;;;;;;;;;;;;;;"1248";"2014-10-13 14:45:46.979";"ST_correctStop";"23";"1";"FINISHED";"NONE";"success";"0";"1";"2014-10-13 14:45:45.729";"3";;;;;;;;;;;;;;;;;;;;;
"tettenhall1";"1995";;"Windows 7";"Rachel's Experiment (D.T.)";"1.0";"2";"1";"1";"2";"1";"1";"2014-10-13 14:38:43.767";"2014-10-13 14:52:57.631";"1";"1";"1";"131";"130";"module.training_block4.exec-8784.GoNoGo4";;;;;;;;;;;;;;;;;;;;;;;;;;;;;;;;;;;;;;;;;;;;;;;;;;;;;;;;;;;"1248";"2014-10-13 14:45:49.487";"NST_correctLoc";"27";"0";"FINISHED";"LEFT";"success";"1203";"0";"2014-10-13 14:45:48.237";"3";;;;;;;;;;;;;;;;;;;;;
"tettenhall1";"1995";;"Windows 7";"Rachel's Experiment (D.T.)";"1.0";"2";"1";"1";"2";"1";"1";"2014-10-13 14:38:43.767";"2014-10-13 14:52:57.631";"1";"1";"1";"132";"131";"module.training_block4.exec-8784.GoNoGo4";;;;;;;;;;;;;;;;;;;;;;;;;;;;;;;;;;;;;;;;;;;;;;;;;;;;;;;;;;;"1248";"2014-10-13 14:45:51.995";"NST_correctLoc";"35";"1";"FINISHED";"RIGHT";"success";"727";"0";"2014-10-13 14:45:50.745";"3";;;;;;;;;;;;;;;;;;;;;
"tettenhall1";"1995";;"Windows 7";"Rachel's Experiment (D.T.)";"1.0";"2";"1";"1";"2";"1";"1";"2014-10-13 14:38:43.767";"2014-10-13 14:52:57.631";"1";"1";"1";"133";"132";"module.training_block4.exec-8784.GoNoGo4";;;;;;;;;;;;;;;;;;;;;;;;;;;;;;;;;;;;;;;;;;;;;;;;;;;;;;;;;;;"1248";"2014-10-13 14:45:54.510";"ST_correctStop";"18";"0";"FINISHED";"NONE";"success";"0";"1";"2014-10-13 14:45:53.260";"3";;;;;;;;;;;;;;;;;;;;;
"tettenhall1";"1995";;"Windows 7";"Rachel's Experiment (D.T.)";"1.0";"2";"1";"1";"2";"1";"1";"2014-10-13 14:38:43.767";"2014-10-13 14:52:57.631";"1";"1";"1";"134";"133";"module.training_block4.exec-8784.GoNoGo4";;;;;;;;;;;;;;;;;;;;;;;;;;;;;;;;;;;;;;;;;;;;;;;;;;;;;;;;;;;"1248";"2014-10-13 14:45:57.018";"ST_correctStop";"32";"1";"FINISHED";"NONE";"success";"0";"1";"2014-10-13 14:45:55.768";"3";;;;;;;;;;;;;;;;;;;;;
"tettenhall1";"1995";;"Windows 7";"Rachel's Experiment (D.T.)";"1.0";"2";"1";"1";"2";"1";"1";"2014-10-13 14:38:43.767";"2014-10-13 14:52:57.631";"1";"1";"1";"135";"134";"module.training_block4.exec-8784.GoNoGo4";;;;;;;;;;;;;;;;;;;;;;;;;;;;;;;;;;;;;;;;;;;;;;;;;;;;;;;;;;;"1248";"2014-10-13 14:45:59.526";"NST_correctLoc";"15";"0";"FINISHED";"LEFT";"success";"508";"0";"2014-10-13 14:45:58.276";"2";;;;;;;;;;;;;;;;;;;;;
"tettenhall1";"1995";;"Windows 7";"Rachel's Experiment (D.T.)";"1.0";"2";"1";"1";"2";"1";"1";"2014-10-13 14:38:43.767";"2014-10-13 14:52:57.631";"1";"1";"1";"136";"135";"module.training_block4.exec-8784.GoNoGo4";;;;;;;;;;;;;;;;;;;;;;;;;;;;;;;;;;;;;;;;;;;;;;;;;;;;;;;;;;;"1248";"2014-10-13 14:46:02.034";"NST_correctLoc";"17";"1";"FINISHED";"RIGHT";"success";"816";"0";"2014-10-13 14:46:00.784";"2";;;;;;;;;;;;;;;;;;;;;
"tettenhall1";"1995";;"Windows 7";"Rachel's Experiment (D.T.)";"1.0";"2";"1";"1";"2";"1";"1";"2014-10-13 14:38:43.767";"2014-10-13 14:52:57.631";"1";"1";"1";"137";"136";"module.training_block4.exec-8784.GoNoGo4";;;;;;;;;;;;;;;;;;;;;;;;;;;;;;;;;;;;;;;;;;;;;;;;;;;;;;;;;;;"1248";"2014-10-13 14:46:04.541";"ST_correctStop";"5";"1";"FINISHED";"NONE";"success";"0";"1";"2014-10-13 14:46:03.291";"1";;;;;;;;;;;;;;;;;;;;;
"tettenhall1";"1995";;"Windows 7";"Rachel's Experiment (D.T.)";"1.0";"2";"1";"1";"2";"1";"1";"2014-10-13 14:38:43.767";"2014-10-13 14:52:57.631";"1";"1";"1";"138";"137";"module.training_block4.exec-8784.GoNoGo4";;;;;;;;;;;;;;;;;;;;;;;;;;;;;;;;;;;;;;;;;;;;;;;;;;;;;;;;;;;"1248";"2014-10-13 14:46:07.049";"NST_correctLoc";"12";"0";"FINISHED";"LEFT";"success";"768";"0";"2014-10-13 14:46:05.799";"2";;;;;;;;;;;;;;;;;;;;;
"tettenhall1";"1995";;"Windows 7";"Rachel's Experiment (D.T.)";"1.0";"2";"1";"1";"2";"1";"1";"2014-10-13 14:38:43.767";"2014-10-13 14:52:57.631";"1";"1";"1";"139";"138";"module.training_block4.exec-8784.GoNoGo4";;;;;;;;;;;;;;;;;;;;;;;;;;;;;;;;;;;;;;;;;;;;;;;;;;;;;;;;;;;"1248";"2014-10-13 14:46:09.561";"ST_correctStop";"22";"1";"FINISHED";"NONE";"success";"0";"1";"2014-10-13 14:46:08.311";"3";;;;;;;;;;;;;;;;;;;;;
"tettenhall1";"1995";;"Windows 7";"Rachel's Experiment (D.T.)";"1.0";"2";"1";"1";"2";"1";"1";"2014-10-13 14:38:43.767";"2014-10-13 14:52:57.631";"1";"1";"1";"140";"139";"module.training_block4.exec-8784.GoNoGo4";;;;;;;;;;;;;;;;;;;;;;;;;;;;;;;;;;;;;;;;;;;;;;;;;;;;;;;;;;;"1248";"2014-10-13 14:46:12.069";"ST_correctStop";"6";"0";"FINISHED";"NONE";"success";"0";"1";"2014-10-13 14:46:10.819";"1";;;;;;;;;;;;;;;;;;;;;
"tettenhall1";"1995";;"Windows 7";"Rachel's Experiment (D.T.)";"1.0";"2";"1";"1";"2";"1";"1";"2014-10-13 14:38:43.767";"2014-10-13 14:52:57.631";"1";"1";"1";"141";"140";"module.training_block4.exec-8784.GoNoGo4";;;;;;;;;;;;;;;;;;;;;;;;;;;;;;;;;;;;;;;;;;;;;;;;;;;;;;;;;;;"1248";"2014-10-13 14:46:14.577";"ST_correctStop";"7";"1";"FINISHED";"NONE";"success";"0";"1";"2014-10-13 14:46:13.327";"1";;;;;;;;;;;;;;;;;;;;;
"tettenhall1";"1995";;"Windows 7";"Rachel's Experiment (D.T.)";"1.0";"2";"1";"1";"2";"1";"1";"2014-10-13 14:38:43.767";"2014-10-13 14:52:57.631";"1";"1";"1";"142";"141";"module.training_block4.exec-8784.GoNoGo4";;;;;;;;;;;;;;;;;;;;;;;;;;;;;;;;;;;;;;;;;;;;;;;;;;;;;;;;;;;"1248";"2014-10-13 14:46:17.084";"NST_correctLoc";"10";"0";"FINISHED";"LEFT";"success";"672";"0";"2014-10-13 14:46:15.834";"2";;;;;;;;;;;;;;;;;;;;;
"tettenhall1";"1995";;"Windows 7";"Rachel's Experiment (D.T.)";"1.0";"2";"1";"1";"2";"1";"1";"2014-10-13 14:38:43.767";"2014-10-13 14:52:57.631";"1";"1";"1";"143";"142";"module.training_block4.exec-8784.GoNoGo4";;;;;;;;;;;;;;;;;;;;;;;;;;;;;;;;;;;;;;;;;;;;;;;;;;;;;;;;;;;"1248";"2014-10-13 14:46:19.592";"NST_correctLoc";"29";"0";"FINISHED";"LEFT";"success";"677";"0";"2014-10-13 14:46:18.342";"3";;;;;;;;;;;;;;;;;;;;;
"tettenhall1";"1995";;"Windows 7";"Rachel's Experiment (D.T.)";"1.0";"2";"1";"1";"2";"1";"1";"2014-10-13 14:38:43.767";"2014-10-13 14:52:57.631";"1";"1";"1";"144";"143";"module.training_block4.exec-8784.GoNoGo4";;;;;;;;;;;;;;;;;;;;;;;;;;;;;;;;;;;;;;;;;;;;;;;;;;;;;;;;;;;"1248";"2014-10-13 14:46:22.100";"ST_correctStop";"4";"0";"FINISHED";"NONE";"success";"0";"1";"2014-10-13 14:46:20.850";"1";;;;;;;;;;;;;;;;;;;;;
"tettenhall1";"1995";;"Windows 7";"Rachel's Experiment (D.T.)";"1.0";"2";"1";"1";"2";"1";"1";"2014-10-13 14:38:43.767";"2014-10-13 14:52:57.631";"1";"1";"1";"145";"144";"module.training_block4.exec-8784.GoNoGo4";;;;;;;;;;;;;;;;;;;;;;;;;;;;;;;;;;;;;;;;;;;;;;;;;;;;;;;;;;;"1248";"2014-10-13 14:46:24.608";"ST_correctStop";"3";"1";"FINISHED";"NONE";"success";"0";"1";"2014-10-13 14:46:23.358";"1";;;;;;;;;;;;;;;;;;;;;
"tettenhall1";"1995";;"Windows 7";"Rachel's Experiment (D.T.)";"1.0";"2";"1";"1";"2";"1";"1";"2014-10-13 14:38:43.767";"2014-10-13 14:52:57.631";"1";"1";"1";"146";"145";"module.training_block4.exec-8784.GoNoGo4";;;;;;;;;;;;;;;;;;;;;;;;;;;;;;;;;;;;;;;;;;;;;;;;;;;;;;;;;;;"1248";"2014-10-13 14:46:27.116";"ST_correctStop";"31";"1";"FINISHED";"NONE";"success";"0";"1";"2014-10-13 14:46:25.866";"3";;;;;;;;;;;;;;;;;;;;;
"tettenhall1";"1995";;"Windows 7";"Rachel's Experiment (D.T.)";"1.0";"2";"1";"1";"2";"1";"1";"2014-10-13 14:38:43.767";"2014-10-13 14:52:57.631";"1";"1";"1";"147";"146";"module.training_block4.exec-8784.GoNoGo4";;;;;;;;;;;;;;;;;;;;;;;;;;;;;;;;;;;;;;;;;;;;;;;;;;;;;;;;;;;"1248";"2014-10-13 14:46:29.623";"NST_correctLoc";"25";"1";"FINISHED";"RIGHT";"success";"597";"0";"2014-10-13 14:46:28.373";"3";;;;;;;;;;;;;;;;;;;;;
"tettenhall1";"1995";;"Windows 7";"Rachel's Experiment (D.T.)";"1.0";"2";"1";"1";"2";"1";"1";"2014-10-13 14:38:43.767";"2014-10-13 14:52:57.631";"1";"1";"1";"148";"147";"module.training_block4.exec-8784.GoNoGo4";;;;;;;;;;;;;;;;;;;;;;;;;;;;;;;;;;;;;;;;;;;;;;;;;;;;;;;;;;;"1248";"2014-10-13 14:46:32.131";"ST_correctStop";"20";"0";"FINISHED";"NONE";"success";"0";"1";"2014-10-13 14:46:30.881";"3";;;;;;;;;;;;;;;;;;;;;
"tettenhall1";"1995";;"Windows 7";"Rachel's Experiment (D.T.)";"1.0";"2";"1";"1";"2";"1";"1";"2014-10-13 14:38:43.767";"2014-10-13 14:52:57.631";"1";"1";"1";"149";"148";"module.training_block4.exec-8784.GoNoGo4";;;;;;;;;;;;;;;;;;;;;;;;;;;;;;;;;;;;;;;;;;;;;;;;;;;;;;;;;;;"1248";"2014-10-13 14:46:34.639";"NST_correctLoc";"30";"0";"FINISHED";"LEFT";"success";"653";"0";"2014-10-13 14:46:33.389";"3";;;;;;;;;;;;;;;;;;;;;
"tettenhall1";"1995";;"Windows 7";"Rachel's Experiment (D.T.)";"1.0";"2";"1";"1";"2";"1";"1";"2014-10-13 14:38:43.767";"2014-10-13 14:52:57.631";"1";"1";"1";"150";"149";"module.training_block4.exec-8784.GoNoGo4";;;;;;;;;;;;;;;;;;;;;;;;;;;;;;;;;;;;;;;;;;;;;;;;;;;;;;;;;;;"1248";"2014-10-13 14:46:37.147";"NST_correctLoc";"28";"0";"FINISHED";"LEFT";"success";"945";"0";"2014-10-13 14:46:35.897";"3";;;;;;;;;;;;;;;;;;;;;
"tettenhall1";"1995";;"Windows 7";"Rachel's Experiment (D.T.)";"1.0";"2";"1";"1";"2";"1";"1";"2014-10-13 14:38:43.767";"2014-10-13 14:52:57.631";"1";"1";"1";"151";"150";"module.training_block4.exec-8784.GoNoGo4";;;;;;;;;;;;;;;;;;;;;;;;;;;;;;;;;;;;;;;;;;;;;;;;;;;;;;;;;;;"1248";"2014-10-13 14:46:39.655";"NST_correctLoc";"16";"1";"FINISHED";"RIGHT";"success";"478";"0";"2014-10-13 14:46:38.405";"2";;;;;;;;;;;;;;;;;;;;;
"tettenhall1";"1995";;"Windows 7";"Rachel's Experiment (D.T.)";"1.0";"2";"1";"1";"2";"1";"1";"2014-10-13 14:38:43.767";"2014-10-13 14:52:57.631";"1";"1";"1";"152";"151";"module.training_block4.exec-8784.GoNoGo4";;;;;;;;;;;;;;;;;;;;;;;;;;;;;;;;;;;;;;;;;;;;;;;;;;;;;;;;;;;"1248";"2014-10-13 14:46:42.163";"ST_correctStop";"2";"1";"FINISHED";"NONE";"success";"0";"1";"2014-10-13 14:46:40.913";"1";;;;;;;;;;;;;;;;;;;;;
"tettenhall1";"1995";;"Windows 7";"Rachel's Experiment (D.T.)";"1.0";"2";"1";"1";"2";"1";"1";"2014-10-13 14:38:43.767";"2014-10-13 14:52:57.631";"1";"1";"1";"153";"152";"module.training_block4.exec-8784.GoNoGo4";;;;;;;;;;;;;;;;;;;;;;;;;;;;;;;;;;;;;;;;;;;;;;;;;;;;;;;;;;;"1248";"2014-10-13 14:46:44.670";"NST_correctLoc";"34";"0";"FINISHED";"LEFT";"success";"414";"0";"2014-10-13 14:46:43.420";"3";;;;;;;;;;;;;;;;;;;;;
"tettenhall1";"1995";;"Windows 7";"Rachel's Experiment (D.T.)";"1.0";"2";"1";"1";"2";"1";"1";"2014-10-13 14:38:43.767";"2014-10-13 14:52:57.631";"1";"1";"1";"154";"153";"module.training_block4.exec-8784.GoNoGo4";;;;;;;;;;;;;;;;;;;;;;;;;;;;;;;;;;;;;;;;;;;;;;;;;;;;;;;;;;;"1248";"2014-10-13 14:46:47.178";"ST_correctStop";"26";"0";"FINISHED";"NONE";"success";"0";"1";"2014-10-13 14:46:45.928";"3";;;;;;;;;;;;;;;;;;;;;
"tettenhall1";"1995";;"Windows 7";"Rachel's Experiment (D.T.)";"1.0";"2";"1";"1";"2";"1";"1";"2014-10-13 14:38:43.767";"2014-10-13 14:52:57.631";"1";"1";"1";"155";"154";"module.training_block4.exec-8784.GoNoGo4";;;;;;;;;;;;;;;;;;;;;;;;;;;;;;;;;;;;;;;;;;;;;;;;;;;;;;;;;;;"1248";"2014-10-13 14:46:49.686";"NST_correctLoc";"24";"1";"FINISHED";"RIGHT";"success";"566";"0";"2014-10-13 14:46:48.436";"3";;;;;;;;;;;;;;;;;;;;;
"tettenhall1";"1995";;"Windows 7";"Rachel's Experiment (D.T.)";"1.0";"2";"1";"1";"2";"1";"1";"2014-10-13 14:38:43.767";"2014-10-13 14:52:57.631";"1";"1";"1";"156";"155";"module.training_block4.exec-8784.GoNoGo4";;;;;;;;;;;;;;;;;;;;;;;;;;;;;;;;;;;;;;;;;;;;;;;;;;;;;;;;;;;"1243";"2014-10-13 14:46:52.194";"NST_correctLoc";"11";"0";"FINISHED";"LEFT";"success";"1142";"0";"2014-10-13 14:46:50.944";"2";;;;;;;;;;;;;;;;;;;;;
"tettenhall1";"1995";;"Windows 7";"Rachel's Experiment (D.T.)";"1.0";"2";"1";"1";"2";"1";"1";"2014-10-13 14:38:43.767";"2014-10-13 14:52:57.631";"1";"1";"1";"157";"156";"module.training_block4.exec-8784.GoNoGo4";;;;;;;;;;;;;;;;;;;;;;;;;;;;;;;;;;;;;;;;;;;;;;;;;;;;;;;;;;;"1248";"2014-10-13 14:46:54.702";"ST_correctStop";"1";"1";"FINISHED";"NONE";"success";"0";"1";"2014-10-13 14:46:53.452";"1";;;;;;;;;;;;;;;;;;;;;
"tettenhall1";"1995";;"Windows 7";"Rachel's Experiment (D.T.)";"1.0";"2";"1";"1";"2";"1";"1";"2014-10-13 14:38:43.767";"2014-10-13 14:52:57.631";"1";"1";"1";"158";"157";"module.training_block4.exec-8784.GoNoGo4";;;;;;;;;;;;;;;;;;;;;;;;;;;;;;;;;;;;;;;;;;;;;;;;;;;;;;;;;;;"1248";"2014-10-13 14:46:57.209";"NST_miss";"14";"0";"FINISHED";"NONE";"failure";"0";"0";"2014-10-13 14:46:55.959";"2";;;;;;;;;;;;;;;;;;;;;
"tettenhall1";"1995";;"Windows 7";"Rachel's Experiment (D.T.)";"1.0";"2";"1";"1";"2";"1";"1";"2014-10-13 14:38:43.767";"2014-10-13 14:52:57.631";"1";"1";"1";"159";"158";"module.training_block4.exec-8784.GoNoGo4";;;;;;;;;;;;;;;;;;;;;;;;;;;;;;;;;;;;;;;;;;;;;;;;;;;;;;;;;;;"1248";"2014-10-13 14:46:59.717";"ST_correctStop";"0";"1";"FINISHED";"NONE";"success";"0";"1";"2014-10-13 14:46:58.467";"1";;;;;;;;;;;;;;;;;;;;;
"tettenhall1";"1995";;"Windows 7";"Rachel's Experiment (D.T.)";"1.0";"2";"1";"1";"2";"1";"1";"2014-10-13 14:38:43.767";"2014-10-13 14:52:57.631";"1";"1";"1";"160";"159";"module.devaluation_practice.exec-4202.devalPractice";;;;;;;;;;;;"12445";"2014-10-13 14:47:58.545";"0";"9";"9";"9";"2790";"3469";"3162";"2014-10-13 14:47:46.100";;;;;;;;;;;;;;;;;;;;;;;;;;;;;;;;;;;;;;;;;;;;;;;;;;;;;;;;;;;;;;;;;;;;;;
"tettenhall1";"1995";;"Windows 7";"Rachel's Experiment (D.T.)";"1.0";"2";"1";"1";"2";"1";"1";"2014-10-13 14:38:43.767";"2014-10-13 14:52:57.631";"1";"1";"1";"161";"160";"module.devaluation_practice.exec-4202.devalPractice";;;;;;;;;;;;"10101";"2014-10-13 14:48:08.663";"1";"6";"7";"5";"2340";"2087";"2678";"2014-10-13 14:47:58.561";;;;;;;;;;;;;;;;;;;;;;;;;;;;;;;;;;;;;;;;;;;;;;;;;;;;;;;;;;;;;;;;;;;;;;
"tettenhall1";"1995";;"Windows 7";"Rachel's Experiment (D.T.)";"1.0";"2";"1";"1";"2";"1";"1";"2014-10-13 14:38:43.767";"2014-10-13 14:52:57.631";"1";"1";"1";"162";"161";"module.devaluation_practice.exec-4202.devalPractice";;;;;;;;;;;;"7965";"2014-10-13 14:48:16.647";"2";"4";"5";"2";"1503";"1438";"2033";"2014-10-13 14:48:08.678";;;;;;;;;;;;;;;;;;;;;;;;;;;;;;;;;;;;;;;;;;;;;;;;;;;;;;;;;;;;;;;;;;;;;;
"tettenhall1";"1995";;"Windows 7";"Rachel's Experiment (D.T.)";"1.0";"2";"1";"1";"2";"1";"1";"2014-10-13 14:38:43.767";"2014-10-13 14:52:57.631";"1";"1";"1";"163";"162";"module.devaluation_practice.exec-4202.devalPractice";;;;;;;;;;;;"9261";"2014-10-13 14:48:25.928";"3";"1";"3";"2";"2999";"1545";"1720";"2014-10-13 14:48:16.663";;;;;;;;;;;;;;;;;;;;;;;;;;;;;;;;;;;;;;;;;;;;;;;;;;;;;;;;;;;;;;;;;;;;;;
"tettenhall1";"1995";;"Windows 7";"Rachel's Experiment (D.T.)";"1.0";"2";"1";"1";"2";"1";"1";"2014-10-13 14:38:43.767";"2014-10-13 14:52:57.631";"1";"1";"1";"164";"163";"module.devaluation_block1.exec-5109.deval1";"8430";"2014-10-13 14:48:40.139";"2";"4";"9";"8";"2000";"1495";"1941";"2014-10-13 14:48:31.709";"1";;;;;;;;;;;;;;;;;;;;;;;;;;;;;;;;;;;;;;;;;;;;;;;;;;;;;;;;;;;;;;;;;;;;;;;;;;;;;;;;
"tettenhall1";"1995";;"Windows 7";"Rachel's Experiment (D.T.)";"1.0";"2";"1";"1";"2";"1";"1";"2014-10-13 14:38:43.767";"2014-10-13 14:52:57.631";"1";"1";"1";"165";"164";"module.devaluation_block1.exec-5109.deval1";"7517";"2014-10-13 14:48:47.678";"20";"9";"9";"8";"1316";"1338";"1855";"2014-10-13 14:48:40.163";"3";;;;;;;;;;;;;;;;;;;;;;;;;;;;;;;;;;;;;;;;;;;;;;;;;;;;;;;;;;;;;;;;;;;;;;;;;;;;;;;;
"tettenhall1";"1995";;"Windows 7";"Rachel's Experiment (D.T.)";"1.0";"2";"1";"1";"2";"1";"1";"2014-10-13 14:38:43.767";"2014-10-13 14:52:57.631";"1";"1";"1";"166";"165";"module.devaluation_block1.exec-5109.deval1";"7078";"2014-10-13 14:48:54.772";"1";"6";"4";"6";"794";"979";"2298";"2014-10-13 14:48:47.694";"1";;;;;;;;;;;;;;;;;;;;;;;;;;;;;;;;;;;;;;;;;;;;;;;;;;;;;;;;;;;;;;;;;;;;;;;;;;;;;;;;
"tettenhall1";"1995";;"Windows 7";"Rachel's Experiment (D.T.)";"1.0";"2";"1";"1";"2";"1";"1";"2014-10-13 14:38:43.767";"2014-10-13 14:52:57.631";"1";"1";"1";"167";"166";"module.devaluation_block1.exec-5109.deval1";"7582";"2014-10-13 14:49:02.373";"12";"7";"2";"7";"1954";"1235";"1397";"2014-10-13 14:48:54.788";"2";;;;;;;;;;;;;;;;;;;;;;;;;;;;;;;;;;;;;;;;;;;;;;;;;;;;;;;;;;;;;;;;;;;;;;;;;;;;;;;;
"tettenhall1";"1995";;"Windows 7";"Rachel's Experiment (D.T.)";"1.0";"2";"1";"1";"2";"1";"1";"2014-10-13 14:38:43.767";"2014-10-13 14:52:57.631";"1";"1";"1";"168";"167";"module.devaluation_block1.exec-5109.deval1";"9326";"2014-10-13 14:49:11.717";"17";"1";"1";"3";"2273";"1891";"2163";"2014-10-13 14:49:02.389";"2";;;;;;;;;;;;;;;;;;;;;;;;;;;;;;;;;;;;;;;;;;;;;;;;;;;;;;;;;;;;;;;;;;;;;;;;;;;;;;;;
"tettenhall1";"1995";;"Windows 7";"Rachel's Experiment (D.T.)";"1.0";"2";"1";"1";"2";"1";"1";"2014-10-13 14:38:43.767";"2014-10-13 14:52:57.631";"1";"1";"1";"169";"168";"module.devaluation_block1.exec-5109.deval1";"8581";"2014-10-13 14:49:20.319";"23";"9";"8";"9";"1569";"1553";"2458";"2014-10-13 14:49:11.733";"3";;;;;;;;;;;;;;;;;;;;;;;;;;;;;;;;;;;;;;;;;;;;;;;;;;;;;;;;;;;;;;;;;;;;;;;;;;;;;;;;
"tettenhall1";"1995";;"Windows 7";"Rachel's Experiment (D.T.)";"1.0";"2";"1";"1";"2";"1";"1";"2014-10-13 14:38:43.767";"2014-10-13 14:52:57.631";"1";"1";"1";"170";"169";"module.devaluation_block1.exec-5109.deval1";"7382";"2014-10-13 14:49:27.717";"16";"1";"1";"2";"959";"1781";"1642";"2014-10-13 14:49:20.334";"2";;;;;;;;;;;;;;;;;;;;;;;;;;;;;;;;;;;;;;;;;;;;;;;;;;;;;;;;;;;;;;;;;;;;;;;;;;;;;;;;
"tettenhall1";"1995";;"Windows 7";"Rachel's Experiment (D.T.)";"1.0";"2";"1";"1";"2";"1";"1";"2014-10-13 14:38:43.767";"2014-10-13 14:52:57.631";"1";"1";"1";"171";"170";"module.devaluation_block1.exec-5109.deval1";"7581";"2014-10-13 14:49:35.319";"22";"8";"9";"9";"1880";"1655";"1050";"2014-10-13 14:49:27.733";"3";;;;;;;;;;;;;;;;;;;;;;;;;;;;;;;;;;;;;;;;;;;;;;;;;;;;;;;;;;;;;;;;;;;;;;;;;;;;;;;;
"tettenhall1";"1995";;"Windows 7";"Rachel's Experiment (D.T.)";"1.0";"2";"1";"1";"2";"1";"1";"2014-10-13 14:38:43.767";"2014-10-13 14:52:57.631";"1";"1";"1";"172";"171";"module.devaluation_block1.exec-5109.deval1";"8804";"2014-10-13 14:49:44.139";"19";"6";"7";"8";"1911";"2502";"1400";"2014-10-13 14:49:35.334";"3";;;;;;;;;;;;;;;;;;;;;;;;;;;;;;;;;;;;;;;;;;;;;;;;;;;;;;;;;;;;;;;;;;;;;;;;;;;;;;;;
"tettenhall1";"1995";;"Windows 7";"Rachel's Experiment (D.T.)";"1.0";"2";"1";"1";"2";"1";"1";"2014-10-13 14:38:43.767";"2014-10-13 14:52:57.631";"1";"1";"1";"173";"172";"module.devaluation_block1.exec-5109.deval1";"7381";"2014-10-13 14:49:51.538";"25";"9";"9";"9";"1843";"1113";"1434";"2014-10-13 14:49:44.155";"3";;;;;;;;;;;;;;;;;;;;;;;;;;;;;;;;;;;;;;;;;;;;;;;;;;;;;;;;;;;;;;;;;;;;;;;;;;;;;;;;
"tettenhall1";"1995";;"Windows 7";"Rachel's Experiment (D.T.)";"1.0";"2";"1";"1";"2";"1";"1";"2014-10-13 14:38:43.767";"2014-10-13 14:52:57.631";"1";"1";"1";"174";"173";"module.devaluation_block1.exec-5109.deval1";"8285";"2014-10-13 14:49:59.842";"7";"3";"4";"7";"876";"2307";"2101";"2014-10-13 14:49:51.561";"1";;;;;;;;;;;;;;;;;;;;;;;;;;;;;;;;;;;;;;;;;;;;;;;;;;;;;;;;;;;;;;;;;;;;;;;;;;;;;;;;
"tettenhall1";"1995";;"Windows 7";"Rachel's Experiment (D.T.)";"1.0";"2";"1";"1";"2";"1";"1";"2014-10-13 14:38:43.767";"2014-10-13 14:52:57.631";"1";"1";"1";"175";"174";"module.devaluation_block1.exec-5109.deval1";"6541";"2014-10-13 14:50:06.405";"4";"9";"9";"9";"1179";"1242";"1115";"2014-10-13 14:49:59.866";"1";;;;;;;;;;;;;;;;;;;;;;;;;;;;;;;;;;;;;;;;;;;;;;;;;;;;;;;;;;;;;;;;;;;;;;;;;;;;;;;;
"tettenhall1";"1995";;"Windows 7";"Rachel's Experiment (D.T.)";"1.0";"2";"1";"1";"2";"1";"1";"2014-10-13 14:38:43.767";"2014-10-13 14:52:57.631";"1";"1";"1";"176";"175";"module.devaluation_block1.exec-5109.deval1";"8996";"2014-10-13 14:50:15.420";"13";"4";"3";"6";"3568";"1008";"1423";"2014-10-13 14:50:06.420";"2";;;;;;;;;;;;;;;;;;;;;;;;;;;;;;;;;;;;;;;;;;;;;;;;;;;;;;;;;;;;;;;;;;;;;;;;;;;;;;;;
"tettenhall1";"1995";;"Windows 7";"Rachel's Experiment (D.T.)";"1.0";"2";"1";"1";"2";"1";"1";"2014-10-13 14:38:43.767";"2014-10-13 14:52:57.631";"1";"1";"1";"177";"176";"module.devaluation_block1.exec-5109.deval1";"6781";"2014-10-13 14:50:22.217";"14";"3";"2";"5";"1264";"1222";"1299";"2014-10-13 14:50:15.436";"2";;;;;;;;;;;;;;;;;;;;;;;;;;;;;;;;;;;;;;;;;;;;;;;;;;;;;;;;;;;;;;;;;;;;;;;;;;;;;;;;
"tettenhall1";"1995";;"Windows 7";"Rachel's Experiment (D.T.)";"1.0";"2";"1";"1";"2";"1";"1";"2014-10-13 14:38:43.767";"2014-10-13 14:52:57.631";"1";"1";"1";"178";"177";"module.devaluation_block1.exec-5109.deval1";"9269";"2014-10-13 14:50:31.506";"24";"9";"8";"9";"3340";"1361";"1567";"2014-10-13 14:50:22.241";"3";;;;;;;;;;;;;;;;;;;;;;;;;;;;;;;;;;;;;;;;;;;;;;;;;;;;;;;;;;;;;;;;;;;;;;;;;;;;;;;;
"tettenhall1";"1995";;"Windows 7";"Rachel's Experiment (D.T.)";"1.0";"2";"1";"1";"2";"1";"1";"2014-10-13 14:38:43.767";"2014-10-13 14:52:57.631";"1";"1";"1";"179";"178";"module.devaluation_block1.exec-5109.deval1";"10173";"2014-10-13 14:50:41.702";"9";"2";"1";"2";"3218";"1709";"2251";"2014-10-13 14:50:31.522";"2";;;;;;;;;;;;;;;;;;;;;;;;;;;;;;;;;;;;;;;;;;;;;;;;;;;;;;;;;;;;;;;;;;;;;;;;;;;;;;;;
"tettenhall1";"1995";;"Windows 7";"Rachel's Experiment (D.T.)";"1.0";"2";"1";"1";"2";"1";"1";"2014-10-13 14:38:43.767";"2014-10-13 14:52:57.631";"1";"1";"1";"180";"179";"module.devaluation_block1.exec-5109.deval1";"8997";"2014-10-13 14:50:50.717";"3";"4";"8";"7";"2950";"1647";"1401";"2014-10-13 14:50:41.717";"1";;;;;;;;;;;;;;;;;;;;;;;;;;;;;;;;;;;;;;;;;;;;;;;;;;;;;;;;;;;;;;;;;;;;;;;;;;;;;;;;
"tettenhall1";"1995";;"Windows 7";"Rachel's Experiment (D.T.)";"1.0";"2";"1";"1";"2";"1";"1";"2014-10-13 14:38:43.767";"2014-10-13 14:52:57.631";"1";"1";"1";"181";"180";"module.devaluation_block1.exec-5109.deval1";"13109";"2014-10-13 14:51:03.842";"21";"7";"9";"9";"2911";"2829";"4376";"2014-10-13 14:50:50.733";"3";;;;;;;;;;;;;;;;;;;;;;;;;;;;;;;;;;;;;;;;;;;;;;;;;;;;;;;;;;;;;;;;;;;;;;;;;;;;;;;;
"tettenhall1";"1995";;"Windows 7";"Rachel's Experiment (D.T.)";"1.0";"2";"1";"1";"2";"1";"1";"2014-10-13 14:38:43.767";"2014-10-13 14:52:57.631";"1";"1";"1";"182";"181";"module.devaluation_block1.exec-5109.deval1";"8357";"2014-10-13 14:51:12.217";"15";"3";"1";"2";"1945";"1103";"2316";"2014-10-13 14:51:03.858";"2";;;;;;;;;;;;;;;;;;;;;;;;;;;;;;;;;;;;;;;;;;;;;;;;;;;;;;;;;;;;;;;;;;;;;;;;;;;;;;;;
"tettenhall1";"1995";;"Windows 7";"Rachel's Experiment (D.T.)";"1.0";"2";"1";"1";"2";"1";"1";"2014-10-13 14:38:43.767";"2014-10-13 14:52:57.631";"1";"1";"1";"183";"182";"module.devaluation_block1.exec-5109.deval1";"11997";"2014-10-13 14:51:24.233";"11";"4";"1";"1";"1874";"5830";"1299";"2014-10-13 14:51:12.233";"2";;;;;;;;;;;;;;;;;;;;;;;;;;;;;;;;;;;;;;;;;;;;;;;;;;;;;;;;;;;;;;;;;;;;;;;;;;;;;;;;
"tettenhall1";"1995";;"Windows 7";"Rachel's Experiment (D.T.)";"1.0";"2";"1";"1";"2";"1";"1";"2014-10-13 14:38:43.767";"2014-10-13 14:52:57.631";"1";"1";"1";"184";"183";"module.devaluation_block1.exec-5109.deval1";"10950";"2014-10-13 14:51:35.202";"10";"4";"1";"2";"4818";"1313";"1818";"2014-10-13 14:51:24.248";"2";;;;;;;;;;;;;;;;;;;;;;;;;;;;;;;;;;;;;;;;;;;;;;;;;;;;;;;;;;;;;;;;;;;;;;;;;;;;;;;;
"tettenhall1";"1995";;"Windows 7";"Rachel's Experiment (D.T.)";"1.0";"2";"1";"1";"2";"1";"1";"2014-10-13 14:38:43.767";"2014-10-13 14:52:57.631";"1";"1";"1";"185";"184";"module.devaluation_block1.exec-5109.deval1";"8278";"2014-10-13 14:51:43.498";"0";"6";"8";"8";"1513";"2648";"1121";"2014-10-13 14:51:35.217";"1";;;;;;;;;;;;;;;;;;;;;;;;;;;;;;;;;;;;;;;;;;;;;;;;;;;;;;;;;;;;;;;;;;;;;;;;;;;;;;;;
"tettenhall1";"1995";;"Windows 7";"Rachel's Experiment (D.T.)";"1.0";"2";"1";"1";"2";"1";"1";"2014-10-13 14:38:43.767";"2014-10-13 14:52:57.631";"1";"1";"1";"186";"185";"module.devaluation_block1.exec-5109.deval1";"8796";"2014-10-13 14:51:52.311";"26";"9";"8";"9";"1160";"2823";"1824";"2014-10-13 14:51:43.514";"3";;;;;;;;;;;;;;;;;;;;;;;;;;;;;;;;;;;;;;;;;;;;;;;;;;;;;;;;;;;;;;;;;;;;;;;;;;;;;;;;
"tettenhall1";"1995";;"Windows 7";"Rachel's Experiment (D.T.)";"1.0";"2";"1";"1";"2";"1";"1";"2014-10-13 14:38:43.767";"2014-10-13 14:52:57.631";"1";"1";"1";"187";"186";"module.devaluation_block1.exec-5109.deval1";"9094";"2014-10-13 14:52:01.428";"5";"4";"7";"7";"2420";"1880";"1793";"2014-10-13 14:51:52.334";"1";;;;;;;;;;;;;;;;;;;;;;;;;;;;;;;;;;;;;;;;;;;;;;;;;;;;;;;;;;;;;;;;;;;;;;;;;;;;;;;;
"tettenhall1";"1995";;"Windows 7";"Rachel's Experiment (D.T.)";"1.0";"2";"1";"1";"2";"1";"1";"2014-10-13 14:38:43.767";"2014-10-13 14:52:57.631";"1";"1";"1";"188";"187";"module.devaluation_block1.exec-5109.deval1";"6861";"2014-10-13 14:52:08.303";"18";"9";"9";"9";"1246";"1502";"1120";"2014-10-13 14:52:01.444";"3";;;;;;;;;;;;;;;;;;;;;;;;;;;;;;;;;;;;;;;;;;;;;;;;;;;;;;;;;;;;;;;;;;;;;;;;;;;;;;;;
"tettenhall1";"1995";;"Windows 7";"Rachel's Experiment (D.T.)";"1.0";"2";"1";"1";"2";"1";"1";"2014-10-13 14:38:43.767";"2014-10-13 14:52:57.631";"1";"1";"1";"189";"188";"module.devaluation_block1.exec-5109.deval1";"10349";"2014-10-13 14:52:18.670";"8";"8";"2";"3";"1659";"1769";"3934";"2014-10-13 14:52:08.319";"1";;;;;;;;;;;;;;;;;;;;;;;;;;;;;;;;;;;;;;;;;;;;;;;;;;;;;;;;;;;;;;;;;;;;;;;;;;;;;;;;
"tettenhall1";"1995";;"Windows 7";"Rachel's Experiment (D.T.)";"1.0";"2";"1";"1";"2";"1";"1";"2014-10-13 14:38:43.767";"2014-10-13 14:52:57.631";"1";"1";"1";"190";"189";"module.devaluation_block1.exec-5109.deval1";"12405";"2014-10-13 14:52:31.092";"6";"3";"1";"3";"1283";"4395";"3726";"2014-10-13 14:52:18.694";"1";;;;;;;;;;;;;;;;;;;;;;;;;;;;;;;;;;;;;;;;;;;;;;;;;;;;;;;;;;;;;;;;;;;;;;;;;;;;;;;;
