"user.name";"user.yearOfBirth";"user.sex";"user.osName";"module.name";"module.version";"module.online.subject.code";"module.online.study.id";"module.online.module.nr";"module.online.group.nr";"session.id";"session.index";"session.startTime";"session.endTime";"session.completed";"session.node-1363.conditionType";"session.node-9308.DevalQorder";"trial.id";"trial.index";"trial.name";"trial.deval1.durationTime";"trial.deval1.endTime";"trial.deval1.icon";"trial.deval1.Resp_Attractive";"trial.deval1.Resp_Eat";"trial.deval1.Resp_Taste";"trial.deval1.RT_Attractive";"trial.deval1.RT_Eat";"trial.deval1.RT_Taste";"trial.deval1.startTime";"trial.deval1.stimulus type";"trial.devalPractice.durationTime";"trial.devalPractice.endTime";"trial.devalPractice.icon";"trial.devalPractice.Resp_Attractive";"trial.devalPractice.Resp_Eat";"trial.devalPractice.Resp_Taste";"trial.devalPractice.RT_Attractive";"trial.devalPractice.RT_Eat";"trial.devalPractice.RT_Taste";"trial.devalPractice.startTime";"trial.devalPractice.stimulus type";"trial.GoNoGo1.durationTime";"trial.GoNoGo1.endTime";"trial.GoNoGo1.Error Type";"trial.GoNoGo1.icon";"trial.GoNoGo1.location";"trial.GoNoGo1.outcome";"trial.GoNoGo1.response";"trial.GoNoGo1.result";"trial.GoNoGo1.RT";"trial.GoNoGo1.signal";"trial.GoNoGo1.startTime";"trial.GoNoGo1.stimulus type";"trial.GoNoGo2.durationTime";"trial.GoNoGo2.endTime";"trial.GoNoGo2.Error Type";"trial.GoNoGo2.icon";"trial.GoNoGo2.location";"trial.GoNoGo2.outcome";"trial.GoNoGo2.response";"trial.GoNoGo2.result";"trial.GoNoGo2.RT";"trial.GoNoGo2.signal";"trial.GoNoGo2.startTime";"trial.GoNoGo2.stimulus type";"trial.GoNoGo3.durationTime";"trial.GoNoGo3.endTime";"trial.GoNoGo3.Error Type";"trial.GoNoGo3.icon";"trial.GoNoGo3.location";"trial.GoNoGo3.outcome";"trial.GoNoGo3.response";"trial.GoNoGo3.result";"trial.GoNoGo3.RT";"trial.GoNoGo3.signal";"trial.GoNoGo3.startTime";"trial.GoNoGo3.stimulus type";"trial.GoNoGo4.durationTime";"trial.GoNoGo4.endTime";"trial.GoNoGo4.Error Type";"trial.GoNoGo4.icon";"trial.GoNoGo4.location";"trial.GoNoGo4.outcome";"trial.GoNoGo4.response";"trial.GoNoGo4.result";"trial.GoNoGo4.RT";"trial.GoNoGo4.signal";"trial.GoNoGo4.startTime";"trial.GoNoGo4.stimulus type";"trial.GoNoGo_Practice.durationTime";"trial.GoNoGo_Practice.endTime";"trial.GoNoGo_Practice.icon";"trial.GoNoGo_Practice.location";"trial.GoNoGo_Practice.outcome";"trial.GoNoGo_Practice.response";"trial.GoNoGo_Practice.result";"trial.GoNoGo_Practice.RT";"trial.GoNoGo_Practice.signal";"trial.GoNoGo_Practice.startTime";"trial.GoNoGo_Practice.stimulus type";"trial.GoNoGo_Tutorial.durationTime";"trial.GoNoGo_Tutorial.endTime";"trial.GoNoGo_Tutorial.icon";"trial.GoNoGo_Tutorial.location";"trial.GoNoGo_Tutorial.outcome";"trial.GoNoGo_Tutorial.response";"trial.GoNoGo_Tutorial.result";"trial.GoNoGo_Tutorial.RT";"trial.GoNoGo_Tutorial.signal";"trial.GoNoGo_Tutorial.startTime"
"cati123";"1965";;"Windows 7";"Rachel's Experiment (D.T.)";"1.0";"2";"1";"1";"2";"1";"1";"2014-10-11 12:53:00.358";"2014-10-11 13:14:23.580";"1";"0";"0";"1";"0";"module.GoNoGotutorial.exec-3026.GoNoGo_Tutorial";;;;;;;;;;;;;;;;;;;;;;;;;;;;;;;;;;;;;;;;;;;;;;;;;;;;;;;;;;;;;;;;;;;;;;;;;;;;;;;;;;"3998";"2014-10-11 12:54:27.248";"leftResponse";"0";"FINISHED";"NONE";"failure";"0";"0";"2014-10-11 12:54:23.248"
"cati123";"1965";;"Windows 7";"Rachel's Experiment (D.T.)";"1.0";"2";"1";"1";"2";"1";"1";"2014-10-11 12:53:00.358";"2014-10-11 13:14:23.580";"1";"0";"0";"2";"1";"module.GoNoGotutorial.exec-3026.GoNoGo_Tutorial";;;;;;;;;;;;;;;;;;;;;;;;;;;;;;;;;;;;;;;;;;;;;;;;;;;;;;;;;;;;;;;;;;;;;;;;;;;;;;;;;;"3992";"2014-10-11 12:54:32.588";"rightResponse";"1";"FINISHED";"NONE";"failure";"0";"0";"2014-10-11 12:54:28.588"
"cati123";"1965";;"Windows 7";"Rachel's Experiment (D.T.)";"1.0";"2";"1";"1";"2";"1";"1";"2014-10-11 12:53:00.358";"2014-10-11 13:14:23.580";"1";"0";"0";"3";"2";"module.GoNoGotutorial.exec-3026.GoNoGo_Tutorial";;;;;;;;;;;;;;;;;;;;;;;;;;;;;;;;;;;;;;;;;;;;;;;;;;;;;;;;;;;;;;;;;;;;;;;;;;;;;;;;;;"3992";"2014-10-11 12:54:37.908";"quickResponse";"0";"FINISHED";"NONE";"failure";"0";"0";"2014-10-11 12:54:33.908"
"cati123";"1965";;"Windows 7";"Rachel's Experiment (D.T.)";"1.0";"2";"1";"1";"2";"1";"1";"2014-10-11 12:53:00.358";"2014-10-11 13:14:23.580";"1";"0";"0";"4";"3";"module.GoNoGopractice.exec-6719.GoNoGo_Practice";;;;;;;;;;;;;;;;;;;;;;;;;;;;;;;;;;;;;;;;;;;;;;;;;;;;;;;;;;;;;;;;;;;;;;;"1953";"2014-10-11 12:54:47.628";"18";"0";"FINISHED";"LEFT";"success";"997";"0";"2014-10-11 12:54:45.668";"3";;;;;;;;;;
"cati123";"1965";;"Windows 7";"Rachel's Experiment (D.T.)";"1.0";"2";"1";"1";"2";"1";"1";"2014-10-11 12:53:00.358";"2014-10-11 13:14:23.580";"1";"0";"0";"5";"4";"module.GoNoGopractice.exec-6719.GoNoGo_Practice";;;;;;;;;;;;;;;;;;;;;;;;;;;;;;;;;;;;;;;;;;;;;;;;;;;;;;;;;;;;;;;;;;;;;;;"1942";"2014-10-11 12:54:50.888";"21";"1";"FINISHED";"RIGHT";"success";"521";"0";"2014-10-11 12:54:48.938";"3";;;;;;;;;;
"cati123";"1965";;"Windows 7";"Rachel's Experiment (D.T.)";"1.0";"2";"1";"1";"2";"1";"1";"2014-10-11 12:53:00.358";"2014-10-11 13:14:23.580";"1";"0";"0";"6";"5";"module.GoNoGopractice.exec-6719.GoNoGo_Practice";;;;;;;;;;;;;;;;;;;;;;;;;;;;;;;;;;;;;;;;;;;;;;;;;;;;;;;;;;;;;;;;;;;;;;;"1942";"2014-10-11 12:54:54.148";"14";"1";"FINISHED";"RIGHT";"success";"868";"0";"2014-10-11 12:54:52.198";"2";;;;;;;;;;
"cati123";"1965";;"Windows 7";"Rachel's Experiment (D.T.)";"1.0";"2";"1";"1";"2";"1";"1";"2014-10-11 12:53:00.358";"2014-10-11 13:14:23.580";"1";"0";"0";"7";"6";"module.GoNoGopractice.exec-6719.GoNoGo_Practice";;;;;;;;;;;;;;;;;;;;;;;;;;;;;;;;;;;;;;;;;;;;;;;;;;;;;;;;;;;;;;;;;;;;;;;"1942";"2014-10-11 12:54:57.408";"26";"0";"FINISHED";"LEFT";"success";"288";"0";"2014-10-11 12:54:55.458";"3";;;;;;;;;;
"cati123";"1965";;"Windows 7";"Rachel's Experiment (D.T.)";"1.0";"2";"1";"1";"2";"1";"1";"2014-10-11 12:53:00.358";"2014-10-11 13:14:23.580";"1";"0";"0";"8";"7";"module.GoNoGopractice.exec-6719.GoNoGo_Practice";;;;;;;;;;;;;;;;;;;;;;;;;;;;;;;;;;;;;;;;;;;;;;;;;;;;;;;;;;;;;;;;;;;;;;;"1942";"2014-10-11 12:55:00.668";"2";"0";"FINISHED";"LEFT";"success";"604";"0";"2014-10-11 12:54:58.718";"1";;;;;;;;;;
"cati123";"1965";;"Windows 7";"Rachel's Experiment (D.T.)";"1.0";"2";"1";"1";"2";"1";"1";"2014-10-11 12:53:00.358";"2014-10-11 13:14:23.580";"1";"0";"0";"9";"8";"module.GoNoGopractice.exec-6719.GoNoGo_Practice";;;;;;;;;;;;;;;;;;;;;;;;;;;;;;;;;;;;;;;;;;;;;;;;;;;;;;;;;;;;;;;;;;;;;;;"1943";"2014-10-11 12:55:03.928";"30";"0";"FINISHED";"LEFT";"success";"498";"0";"2014-10-11 12:55:01.978";"3";;;;;;;;;;
"cati123";"1965";;"Windows 7";"Rachel's Experiment (D.T.)";"1.0";"2";"1";"1";"2";"1";"1";"2014-10-11 12:53:00.358";"2014-10-11 13:14:23.580";"1";"0";"0";"10";"9";"module.GoNoGopractice.exec-6719.GoNoGo_Practice";;;;;;;;;;;;;;;;;;;;;;;;;;;;;;;;;;;;;;;;;;;;;;;;;;;;;;;;;;;;;;;;;;;;;;;"1942";"2014-10-11 12:55:07.178";"6";"1";"FINISHED";"RIGHT";"success";"413";"0";"2014-10-11 12:55:05.228";"1";;;;;;;;;;
"cati123";"1965";;"Windows 7";"Rachel's Experiment (D.T.)";"1.0";"2";"1";"1";"2";"1";"1";"2014-10-11 12:53:00.358";"2014-10-11 13:14:23.580";"1";"0";"0";"11";"10";"module.GoNoGopractice.exec-6719.GoNoGo_Practice";;;;;;;;;;;;;;;;;;;;;;;;;;;;;;;;;;;;;;;;;;;;;;;;;;;;;;;;;;;;;;;;;;;;;;;"1944";"2014-10-11 12:55:10.438";"34";"0";"FINISHED";"LEFT";"success";"534";"0";"2014-10-11 12:55:08.488";"3";;;;;;;;;;
"cati123";"1965";;"Windows 7";"Rachel's Experiment (D.T.)";"1.0";"2";"1";"1";"2";"1";"1";"2014-10-11 12:53:00.358";"2014-10-11 13:14:23.580";"1";"0";"0";"12";"11";"module.GoNoGopractice.exec-6719.GoNoGo_Practice";;;;;;;;;;;;;;;;;;;;;;;;;;;;;;;;;;;;;;;;;;;;;;;;;;;;;;;;;;;;;;;;;;;;;;;"1942";"2014-10-11 12:55:13.688";"23";"1";"FINISHED";"RIGHT";"success";"399";"0";"2014-10-11 12:55:11.738";"3";;;;;;;;;;
"cati123";"1965";;"Windows 7";"Rachel's Experiment (D.T.)";"1.0";"2";"1";"1";"2";"1";"1";"2014-10-11 12:53:00.358";"2014-10-11 13:14:23.580";"1";"0";"0";"13";"12";"module.GoNoGopractice.exec-6719.GoNoGo_Practice";;;;;;;;;;;;;;;;;;;;;;;;;;;;;;;;;;;;;;;;;;;;;;;;;;;;;;;;;;;;;;;;;;;;;;;"1958";"2014-10-11 12:55:17.068";"13";"0";"FINISHED";"LEFT";"success";"410";"0";"2014-10-11 12:55:15.108";"2";;;;;;;;;;
"cati123";"1965";;"Windows 7";"Rachel's Experiment (D.T.)";"1.0";"2";"1";"1";"2";"1";"1";"2014-10-11 12:53:00.358";"2014-10-11 13:14:23.580";"1";"0";"0";"14";"13";"module.GoNoGopractice.exec-6719.GoNoGo_Practice";;;;;;;;;;;;;;;;;;;;;;;;;;;;;;;;;;;;;;;;;;;;;;;;;;;;;;;;;;;;;;;;;;;;;;;"1944";"2014-10-11 12:55:20.318";"3";"1";"FINISHED";"RIGHT";"success";"438";"0";"2014-10-11 12:55:18.368";"1";;;;;;;;;;
"cati123";"1965";;"Windows 7";"Rachel's Experiment (D.T.)";"1.0";"2";"1";"1";"2";"1";"1";"2014-10-11 12:53:00.358";"2014-10-11 13:14:23.580";"1";"0";"0";"15";"14";"module.GoNoGopractice.exec-6719.GoNoGo_Practice";;;;;;;;;;;;;;;;;;;;;;;;;;;;;;;;;;;;;;;;;;;;;;;;;;;;;;;;;;;;;;;;;;;;;;;"1943";"2014-10-11 12:55:23.578";"27";"1";"FINISHED";"RIGHT";"success";"565";"0";"2014-10-11 12:55:21.628";"3";;;;;;;;;;
"cati123";"1965";;"Windows 7";"Rachel's Experiment (D.T.)";"1.0";"2";"1";"1";"2";"1";"1";"2014-10-11 12:53:00.358";"2014-10-11 13:14:23.580";"1";"0";"0";"16";"15";"module.training_block1.exec-2750.GoNoGo1";;;;;;;;;;;;;;;;;;;;;;;"1248";"2014-10-11 12:55:39.808";"NST_correctLoc";"11";"0";"FINISHED";"LEFT";"success";"403";"0";"2014-10-11 12:55:38.558";"2";;;;;;;;;;;;;;;;;;;;;;;;;;;;;;;;;;;;;;;;;;;;;;;;;;;;;;;;;
"cati123";"1965";;"Windows 7";"Rachel's Experiment (D.T.)";"1.0";"2";"1";"1";"2";"1";"1";"2014-10-11 12:53:00.358";"2014-10-11 13:14:23.580";"1";"0";"0";"17";"16";"module.training_block1.exec-2750.GoNoGo1";;;;;;;;;;;;;;;;;;;;;;;"1243";"2014-10-11 12:55:42.369";"NST_correctLoc";"20";"0";"FINISHED";"LEFT";"success";"367";"0";"2014-10-11 12:55:41.118";"3";;;;;;;;;;;;;;;;;;;;;;;;;;;;;;;;;;;;;;;;;;;;;;;;;;;;;;;;;
"cati123";"1965";;"Windows 7";"Rachel's Experiment (D.T.)";"1.0";"2";"1";"1";"2";"1";"1";"2014-10-11 12:53:00.358";"2014-10-11 13:14:23.580";"1";"0";"0";"18";"17";"module.training_block1.exec-2750.GoNoGo1";;;;;;;;;;;;;;;;;;;;;;;"1242";"2014-10-11 12:55:44.919";"NST_correctLoc";"3";"1";"FINISHED";"RIGHT";"success";"358";"0";"2014-10-11 12:55:43.669";"1";;;;;;;;;;;;;;;;;;;;;;;;;;;;;;;;;;;;;;;;;;;;;;;;;;;;;;;;;
"cati123";"1965";;"Windows 7";"Rachel's Experiment (D.T.)";"1.0";"2";"1";"1";"2";"1";"1";"2014-10-11 12:53:00.358";"2014-10-11 13:14:23.580";"1";"0";"0";"19";"18";"module.training_block1.exec-2750.GoNoGo1";;;;;;;;;;;;;;;;;;;;;;;"1242";"2014-10-11 12:55:47.469";"NST_correctLoc";"2";"1";"FINISHED";"RIGHT";"success";"322";"0";"2014-10-11 12:55:46.219";"1";;;;;;;;;;;;;;;;;;;;;;;;;;;;;;;;;;;;;;;;;;;;;;;;;;;;;;;;;
"cati123";"1965";;"Windows 7";"Rachel's Experiment (D.T.)";"1.0";"2";"1";"1";"2";"1";"1";"2014-10-11 12:53:00.358";"2014-10-11 13:14:23.580";"1";"0";"0";"20";"19";"module.training_block1.exec-2750.GoNoGo1";;;;;;;;;;;;;;;;;;;;;;;"1240";"2014-10-11 12:55:50.029";"NST_correctLoc";"21";"1";"FINISHED";"RIGHT";"success";"359";"0";"2014-10-11 12:55:48.779";"3";;;;;;;;;;;;;;;;;;;;;;;;;;;;;;;;;;;;;;;;;;;;;;;;;;;;;;;;;
"cati123";"1965";;"Windows 7";"Rachel's Experiment (D.T.)";"1.0";"2";"1";"1";"2";"1";"1";"2014-10-11 12:53:00.358";"2014-10-11 13:14:23.580";"1";"0";"0";"21";"20";"module.training_block1.exec-2750.GoNoGo1";;;;;;;;;;;;;;;;;;;;;;;"1242";"2014-10-11 12:55:52.589";"NST_correctLoc";"23";"0";"FINISHED";"LEFT";"success";"354";"0";"2014-10-11 12:55:51.339";"3";;;;;;;;;;;;;;;;;;;;;;;;;;;;;;;;;;;;;;;;;;;;;;;;;;;;;;;;;
"cati123";"1965";;"Windows 7";"Rachel's Experiment (D.T.)";"1.0";"2";"1";"1";"2";"1";"1";"2014-10-11 12:53:00.358";"2014-10-11 13:14:23.580";"1";"0";"0";"22";"21";"module.training_block1.exec-2750.GoNoGo1";;;;;;;;;;;;;;;;;;;;;;;"1244";"2014-10-11 12:55:55.139";"NST_correctLoc";"35";"0";"FINISHED";"LEFT";"success";"381";"0";"2014-10-11 12:55:53.889";"3";;;;;;;;;;;;;;;;;;;;;;;;;;;;;;;;;;;;;;;;;;;;;;;;;;;;;;;;;
"cati123";"1965";;"Windows 7";"Rachel's Experiment (D.T.)";"1.0";"2";"1";"1";"2";"1";"1";"2014-10-11 12:53:00.358";"2014-10-11 13:14:23.580";"1";"0";"0";"23";"22";"module.training_block1.exec-2750.GoNoGo1";;;;;;;;;;;;;;;;;;;;;;;"1242";"2014-10-11 12:55:57.699";"NST_correctLoc";"7";"0";"FINISHED";"LEFT";"success";"387";"0";"2014-10-11 12:55:56.449";"1";;;;;;;;;;;;;;;;;;;;;;;;;;;;;;;;;;;;;;;;;;;;;;;;;;;;;;;;;
"cati123";"1965";;"Windows 7";"Rachel's Experiment (D.T.)";"1.0";"2";"1";"1";"2";"1";"1";"2014-10-11 12:53:00.358";"2014-10-11 13:14:23.580";"1";"0";"0";"24";"23";"module.training_block1.exec-2750.GoNoGo1";;;;;;;;;;;;;;;;;;;;;;;"1241";"2014-10-11 12:56:00.239";"NST_correctLoc";"13";"0";"FINISHED";"LEFT";"success";"398";"0";"2014-10-11 12:55:58.989";"2";;;;;;;;;;;;;;;;;;;;;;;;;;;;;;;;;;;;;;;;;;;;;;;;;;;;;;;;;
"cati123";"1965";;"Windows 7";"Rachel's Experiment (D.T.)";"1.0";"2";"1";"1";"2";"1";"1";"2014-10-11 12:53:00.358";"2014-10-11 13:14:23.580";"1";"0";"0";"25";"24";"module.training_block1.exec-2750.GoNoGo1";;;;;;;;;;;;;;;;;;;;;;;"1242";"2014-10-11 12:56:02.789";"NST_correctLoc";"14";"1";"FINISHED";"RIGHT";"success";"374";"0";"2014-10-11 12:56:01.539";"2";;;;;;;;;;;;;;;;;;;;;;;;;;;;;;;;;;;;;;;;;;;;;;;;;;;;;;;;;
"cati123";"1965";;"Windows 7";"Rachel's Experiment (D.T.)";"1.0";"2";"1";"1";"2";"1";"1";"2014-10-11 12:53:00.358";"2014-10-11 13:14:23.580";"1";"0";"0";"26";"25";"module.training_block1.exec-2750.GoNoGo1";;;;;;;;;;;;;;;;;;;;;;;"1243";"2014-10-11 12:56:05.349";"NST_correctLoc";"16";"0";"FINISHED";"LEFT";"success";"379";"0";"2014-10-11 12:56:04.099";"2";;;;;;;;;;;;;;;;;;;;;;;;;;;;;;;;;;;;;;;;;;;;;;;;;;;;;;;;;
"cati123";"1965";;"Windows 7";"Rachel's Experiment (D.T.)";"1.0";"2";"1";"1";"2";"1";"1";"2014-10-11 12:53:00.358";"2014-10-11 13:14:23.580";"1";"0";"0";"27";"26";"module.training_block1.exec-2750.GoNoGo1";;;;;;;;;;;;;;;;;;;;;;;"1241";"2014-10-11 12:56:07.889";"NST_correctLoc";"27";"1";"FINISHED";"RIGHT";"success";"359";"0";"2014-10-11 12:56:06.639";"3";;;;;;;;;;;;;;;;;;;;;;;;;;;;;;;;;;;;;;;;;;;;;;;;;;;;;;;;;
"cati123";"1965";;"Windows 7";"Rachel's Experiment (D.T.)";"1.0";"2";"1";"1";"2";"1";"1";"2014-10-11 12:53:00.358";"2014-10-11 13:14:23.580";"1";"0";"0";"28";"27";"module.training_block1.exec-2750.GoNoGo1";;;;;;;;;;;;;;;;;;;;;;;"1241";"2014-10-11 12:56:10.439";"NST_correctLoc";"0";"1";"FINISHED";"RIGHT";"success";"425";"0";"2014-10-11 12:56:09.189";"1";;;;;;;;;;;;;;;;;;;;;;;;;;;;;;;;;;;;;;;;;;;;;;;;;;;;;;;;;
"cati123";"1965";;"Windows 7";"Rachel's Experiment (D.T.)";"1.0";"2";"1";"1";"2";"1";"1";"2014-10-11 12:53:00.358";"2014-10-11 13:14:23.580";"1";"0";"0";"29";"28";"module.training_block1.exec-2750.GoNoGo1";;;;;;;;;;;;;;;;;;;;;;;"1243";"2014-10-11 12:56:12.989";"NST_correctLoc";"24";"1";"FINISHED";"RIGHT";"success";"386";"0";"2014-10-11 12:56:11.739";"3";;;;;;;;;;;;;;;;;;;;;;;;;;;;;;;;;;;;;;;;;;;;;;;;;;;;;;;;;
"cati123";"1965";;"Windows 7";"Rachel's Experiment (D.T.)";"1.0";"2";"1";"1";"2";"1";"1";"2014-10-11 12:53:00.358";"2014-10-11 13:14:23.580";"1";"0";"0";"30";"29";"module.training_block1.exec-2750.GoNoGo1";;;;;;;;;;;;;;;;;;;;;;;"1243";"2014-10-11 12:56:15.539";"NST_correctLoc";"5";"0";"FINISHED";"LEFT";"success";"338";"0";"2014-10-11 12:56:14.289";"1";;;;;;;;;;;;;;;;;;;;;;;;;;;;;;;;;;;;;;;;;;;;;;;;;;;;;;;;;
"cati123";"1965";;"Windows 7";"Rachel's Experiment (D.T.)";"1.0";"2";"1";"1";"2";"1";"1";"2014-10-11 12:53:00.358";"2014-10-11 13:14:23.580";"1";"0";"0";"31";"30";"module.training_block1.exec-2750.GoNoGo1";;;;;;;;;;;;;;;;;;;;;;;"1243";"2014-10-11 12:56:18.089";"NST_correctLoc";"29";"0";"FINISHED";"LEFT";"success";"412";"0";"2014-10-11 12:56:16.839";"3";;;;;;;;;;;;;;;;;;;;;;;;;;;;;;;;;;;;;;;;;;;;;;;;;;;;;;;;;
"cati123";"1965";;"Windows 7";"Rachel's Experiment (D.T.)";"1.0";"2";"1";"1";"2";"1";"1";"2014-10-11 12:53:00.358";"2014-10-11 13:14:23.580";"1";"0";"0";"32";"31";"module.training_block1.exec-2750.GoNoGo1";;;;;;;;;;;;;;;;;;;;;;;"1242";"2014-10-11 12:56:20.639";"NST_correctLoc";"34";"0";"FINISHED";"LEFT";"success";"387";"0";"2014-10-11 12:56:19.389";"3";;;;;;;;;;;;;;;;;;;;;;;;;;;;;;;;;;;;;;;;;;;;;;;;;;;;;;;;;
"cati123";"1965";;"Windows 7";"Rachel's Experiment (D.T.)";"1.0";"2";"1";"1";"2";"1";"1";"2014-10-11 12:53:00.358";"2014-10-11 13:14:23.580";"1";"0";"0";"33";"32";"module.training_block1.exec-2750.GoNoGo1";;;;;;;;;;;;;;;;;;;;;;;"1242";"2014-10-11 12:56:23.189";"NST_correctLoc";"15";"1";"FINISHED";"RIGHT";"success";"344";"0";"2014-10-11 12:56:21.939";"2";;;;;;;;;;;;;;;;;;;;;;;;;;;;;;;;;;;;;;;;;;;;;;;;;;;;;;;;;
"cati123";"1965";;"Windows 7";"Rachel's Experiment (D.T.)";"1.0";"2";"1";"1";"2";"1";"1";"2014-10-11 12:53:00.358";"2014-10-11 13:14:23.580";"1";"0";"0";"34";"33";"module.training_block1.exec-2750.GoNoGo1";;;;;;;;;;;;;;;;;;;;;;;"1243";"2014-10-11 12:56:25.739";"NST_correctLoc";"12";"0";"FINISHED";"LEFT";"success";"368";"0";"2014-10-11 12:56:24.489";"2";;;;;;;;;;;;;;;;;;;;;;;;;;;;;;;;;;;;;;;;;;;;;;;;;;;;;;;;;
"cati123";"1965";;"Windows 7";"Rachel's Experiment (D.T.)";"1.0";"2";"1";"1";"2";"1";"1";"2014-10-11 12:53:00.358";"2014-10-11 13:14:23.580";"1";"0";"0";"35";"34";"module.training_block1.exec-2750.GoNoGo1";;;;;;;;;;;;;;;;;;;;;;;"1243";"2014-10-11 12:56:28.299";"NST_correctLoc";"10";"1";"FINISHED";"RIGHT";"success";"323";"0";"2014-10-11 12:56:27.049";"2";;;;;;;;;;;;;;;;;;;;;;;;;;;;;;;;;;;;;;;;;;;;;;;;;;;;;;;;;
"cati123";"1965";;"Windows 7";"Rachel's Experiment (D.T.)";"1.0";"2";"1";"1";"2";"1";"1";"2014-10-11 12:53:00.358";"2014-10-11 13:14:23.580";"1";"0";"0";"36";"35";"module.training_block1.exec-2750.GoNoGo1";;;;;;;;;;;;;;;;;;;;;;;"1243";"2014-10-11 12:56:30.849";"NST_correctLoc";"33";"1";"FINISHED";"RIGHT";"success";"368";"0";"2014-10-11 12:56:29.599";"3";;;;;;;;;;;;;;;;;;;;;;;;;;;;;;;;;;;;;;;;;;;;;;;;;;;;;;;;;
"cati123";"1965";;"Windows 7";"Rachel's Experiment (D.T.)";"1.0";"2";"1";"1";"2";"1";"1";"2014-10-11 12:53:00.358";"2014-10-11 13:14:23.580";"1";"0";"0";"37";"36";"module.training_block1.exec-2750.GoNoGo1";;;;;;;;;;;;;;;;;;;;;;;"1242";"2014-10-11 12:56:33.399";"NST_correctLoc";"6";"0";"FINISHED";"LEFT";"success";"388";"0";"2014-10-11 12:56:32.149";"1";;;;;;;;;;;;;;;;;;;;;;;;;;;;;;;;;;;;;;;;;;;;;;;;;;;;;;;;;
"cati123";"1965";;"Windows 7";"Rachel's Experiment (D.T.)";"1.0";"2";"1";"1";"2";"1";"1";"2014-10-11 12:53:00.358";"2014-10-11 13:14:23.580";"1";"0";"0";"38";"37";"module.training_block1.exec-2750.GoNoGo1";;;;;;;;;;;;;;;;;;;;;;;"1243";"2014-10-11 12:56:35.949";"NST_correctLoc";"9";"1";"FINISHED";"RIGHT";"success";"413";"0";"2014-10-11 12:56:34.699";"2";;;;;;;;;;;;;;;;;;;;;;;;;;;;;;;;;;;;;;;;;;;;;;;;;;;;;;;;;
"cati123";"1965";;"Windows 7";"Rachel's Experiment (D.T.)";"1.0";"2";"1";"1";"2";"1";"1";"2014-10-11 12:53:00.358";"2014-10-11 13:14:23.580";"1";"0";"0";"39";"38";"module.training_block1.exec-2750.GoNoGo1";;;;;;;;;;;;;;;;;;;;;;;"1243";"2014-10-11 12:56:38.499";"NST_correctLoc";"8";"0";"FINISHED";"LEFT";"success";"364";"0";"2014-10-11 12:56:37.249";"1";;;;;;;;;;;;;;;;;;;;;;;;;;;;;;;;;;;;;;;;;;;;;;;;;;;;;;;;;
"cati123";"1965";;"Windows 7";"Rachel's Experiment (D.T.)";"1.0";"2";"1";"1";"2";"1";"1";"2014-10-11 12:53:00.358";"2014-10-11 13:14:23.580";"1";"0";"0";"40";"39";"module.training_block1.exec-2750.GoNoGo1";;;;;;;;;;;;;;;;;;;;;;;"1242";"2014-10-11 12:56:41.049";"NST_correctLoc";"26";"0";"FINISHED";"LEFT";"success";"376";"0";"2014-10-11 12:56:39.799";"3";;;;;;;;;;;;;;;;;;;;;;;;;;;;;;;;;;;;;;;;;;;;;;;;;;;;;;;;;
"cati123";"1965";;"Windows 7";"Rachel's Experiment (D.T.)";"1.0";"2";"1";"1";"2";"1";"1";"2014-10-11 12:53:00.358";"2014-10-11 13:14:23.580";"1";"0";"0";"41";"40";"module.training_block1.exec-2750.GoNoGo1";;;;;;;;;;;;;;;;;;;;;;;"1243";"2014-10-11 12:56:43.599";"NST_correctLoc";"31";"0";"FINISHED";"LEFT";"success";"324";"0";"2014-10-11 12:56:42.349";"3";;;;;;;;;;;;;;;;;;;;;;;;;;;;;;;;;;;;;;;;;;;;;;;;;;;;;;;;;
"cati123";"1965";;"Windows 7";"Rachel's Experiment (D.T.)";"1.0";"2";"1";"1";"2";"1";"1";"2014-10-11 12:53:00.358";"2014-10-11 13:14:23.580";"1";"0";"0";"42";"41";"module.training_block1.exec-2750.GoNoGo1";;;;;;;;;;;;;;;;;;;;;;;"1243";"2014-10-11 12:56:46.149";"NST_correctLoc";"19";"0";"FINISHED";"LEFT";"success";"318";"0";"2014-10-11 12:56:44.899";"3";;;;;;;;;;;;;;;;;;;;;;;;;;;;;;;;;;;;;;;;;;;;;;;;;;;;;;;;;
"cati123";"1965";;"Windows 7";"Rachel's Experiment (D.T.)";"1.0";"2";"1";"1";"2";"1";"1";"2014-10-11 12:53:00.358";"2014-10-11 13:14:23.580";"1";"0";"0";"43";"42";"module.training_block1.exec-2750.GoNoGo1";;;;;;;;;;;;;;;;;;;;;;;"1242";"2014-10-11 12:56:48.699";"NST_correctLoc";"32";"0";"FINISHED";"LEFT";"success";"357";"0";"2014-10-11 12:56:47.449";"3";;;;;;;;;;;;;;;;;;;;;;;;;;;;;;;;;;;;;;;;;;;;;;;;;;;;;;;;;
"cati123";"1965";;"Windows 7";"Rachel's Experiment (D.T.)";"1.0";"2";"1";"1";"2";"1";"1";"2014-10-11 12:53:00.358";"2014-10-11 13:14:23.580";"1";"0";"0";"44";"43";"module.training_block1.exec-2750.GoNoGo1";;;;;;;;;;;;;;;;;;;;;;;"1242";"2014-10-11 12:56:51.249";"NST_correctLoc";"1";"0";"FINISHED";"LEFT";"success";"394";"0";"2014-10-11 12:56:49.999";"1";;;;;;;;;;;;;;;;;;;;;;;;;;;;;;;;;;;;;;;;;;;;;;;;;;;;;;;;;
"cati123";"1965";;"Windows 7";"Rachel's Experiment (D.T.)";"1.0";"2";"1";"1";"2";"1";"1";"2014-10-11 12:53:00.358";"2014-10-11 13:14:23.580";"1";"0";"0";"45";"44";"module.training_block1.exec-2750.GoNoGo1";;;;;;;;;;;;;;;;;;;;;;;"1243";"2014-10-11 12:56:53.799";"NST_correctLoc";"17";"0";"FINISHED";"LEFT";"success";"359";"0";"2014-10-11 12:56:52.549";"2";;;;;;;;;;;;;;;;;;;;;;;;;;;;;;;;;;;;;;;;;;;;;;;;;;;;;;;;;
"cati123";"1965";;"Windows 7";"Rachel's Experiment (D.T.)";"1.0";"2";"1";"1";"2";"1";"1";"2014-10-11 12:53:00.358";"2014-10-11 13:14:23.580";"1";"0";"0";"46";"45";"module.training_block1.exec-2750.GoNoGo1";;;;;;;;;;;;;;;;;;;;;;;"1244";"2014-10-11 12:56:56.349";"NST_correctLoc";"28";"0";"FINISHED";"LEFT";"success";"334";"0";"2014-10-11 12:56:55.099";"3";;;;;;;;;;;;;;;;;;;;;;;;;;;;;;;;;;;;;;;;;;;;;;;;;;;;;;;;;
"cati123";"1965";;"Windows 7";"Rachel's Experiment (D.T.)";"1.0";"2";"1";"1";"2";"1";"1";"2014-10-11 12:53:00.358";"2014-10-11 13:14:23.580";"1";"0";"0";"47";"46";"module.training_block1.exec-2750.GoNoGo1";;;;;;;;;;;;;;;;;;;;;;;"1244";"2014-10-11 12:56:58.899";"NST_correctLoc";"18";"0";"FINISHED";"LEFT";"success";"303";"0";"2014-10-11 12:56:57.649";"3";;;;;;;;;;;;;;;;;;;;;;;;;;;;;;;;;;;;;;;;;;;;;;;;;;;;;;;;;
"cati123";"1965";;"Windows 7";"Rachel's Experiment (D.T.)";"1.0";"2";"1";"1";"2";"1";"1";"2014-10-11 12:53:00.358";"2014-10-11 13:14:23.580";"1";"0";"0";"48";"47";"module.training_block1.exec-2750.GoNoGo1";;;;;;;;;;;;;;;;;;;;;;;"1244";"2014-10-11 12:57:01.449";"NST_correctLoc";"25";"0";"FINISHED";"LEFT";"success";"380";"0";"2014-10-11 12:57:00.199";"3";;;;;;;;;;;;;;;;;;;;;;;;;;;;;;;;;;;;;;;;;;;;;;;;;;;;;;;;;
"cati123";"1965";;"Windows 7";"Rachel's Experiment (D.T.)";"1.0";"2";"1";"1";"2";"1";"1";"2014-10-11 12:53:00.358";"2014-10-11 13:14:23.580";"1";"0";"0";"49";"48";"module.training_block1.exec-2750.GoNoGo1";;;;;;;;;;;;;;;;;;;;;;;"1242";"2014-10-11 12:57:03.999";"NST_correctLoc";"4";"1";"FINISHED";"RIGHT";"success";"361";"0";"2014-10-11 12:57:02.749";"1";;;;;;;;;;;;;;;;;;;;;;;;;;;;;;;;;;;;;;;;;;;;;;;;;;;;;;;;;
"cati123";"1965";;"Windows 7";"Rachel's Experiment (D.T.)";"1.0";"2";"1";"1";"2";"1";"1";"2014-10-11 12:53:00.358";"2014-10-11 13:14:23.580";"1";"0";"0";"50";"49";"module.training_block1.exec-2750.GoNoGo1";;;;;;;;;;;;;;;;;;;;;;;"1244";"2014-10-11 12:57:06.549";"NST_correctLoc";"30";"1";"FINISHED";"RIGHT";"success";"331";"0";"2014-10-11 12:57:05.299";"3";;;;;;;;;;;;;;;;;;;;;;;;;;;;;;;;;;;;;;;;;;;;;;;;;;;;;;;;;
"cati123";"1965";;"Windows 7";"Rachel's Experiment (D.T.)";"1.0";"2";"1";"1";"2";"1";"1";"2014-10-11 12:53:00.358";"2014-10-11 13:14:23.580";"1";"0";"0";"51";"50";"module.training_block1.exec-2750.GoNoGo1";;;;;;;;;;;;;;;;;;;;;;;"1243";"2014-10-11 12:57:09.099";"NST_correctLoc";"22";"1";"FINISHED";"RIGHT";"success";"353";"0";"2014-10-11 12:57:07.849";"3";;;;;;;;;;;;;;;;;;;;;;;;;;;;;;;;;;;;;;;;;;;;;;;;;;;;;;;;;
"cati123";"1965";;"Windows 7";"Rachel's Experiment (D.T.)";"1.0";"2";"1";"1";"2";"1";"1";"2014-10-11 12:53:00.358";"2014-10-11 13:14:23.580";"1";"0";"0";"52";"51";"module.training_block2.exec-1683.GoNoGo2";;;;;;;;;;;;;;;;;;;;;;;;;;;;;;;;;;;"1241";"2014-10-11 12:57:26.529";"NST_correctLoc";"32";"0";"FINISHED";"LEFT";"success";"378";"0";"2014-10-11 12:57:25.279";"3";;;;;;;;;;;;;;;;;;;;;;;;;;;;;;;;;;;;;;;;;;;;;
"cati123";"1965";;"Windows 7";"Rachel's Experiment (D.T.)";"1.0";"2";"1";"1";"2";"1";"1";"2014-10-11 12:53:00.358";"2014-10-11 13:14:23.580";"1";"0";"0";"53";"52";"module.training_block2.exec-1683.GoNoGo2";;;;;;;;;;;;;;;;;;;;;;;;;;;;;;;;;;;"1242";"2014-10-11 12:57:29.069";"NST_correctLoc";"20";"1";"FINISHED";"RIGHT";"success";"304";"0";"2014-10-11 12:57:27.819";"3";;;;;;;;;;;;;;;;;;;;;;;;;;;;;;;;;;;;;;;;;;;;;
"cati123";"1965";;"Windows 7";"Rachel's Experiment (D.T.)";"1.0";"2";"1";"1";"2";"1";"1";"2014-10-11 12:53:00.358";"2014-10-11 13:14:23.580";"1";"0";"0";"54";"53";"module.training_block2.exec-1683.GoNoGo2";;;;;;;;;;;;;;;;;;;;;;;;;;;;;;;;;;;"1242";"2014-10-11 12:57:31.599";"NST_correctLoc";"12";"0";"FINISHED";"LEFT";"success";"369";"0";"2014-10-11 12:57:30.349";"2";;;;;;;;;;;;;;;;;;;;;;;;;;;;;;;;;;;;;;;;;;;;;
"cati123";"1965";;"Windows 7";"Rachel's Experiment (D.T.)";"1.0";"2";"1";"1";"2";"1";"1";"2014-10-11 12:53:00.358";"2014-10-11 13:14:23.580";"1";"0";"0";"55";"54";"module.training_block2.exec-1683.GoNoGo2";;;;;;;;;;;;;;;;;;;;;;;;;;;;;;;;;;;"1242";"2014-10-11 12:57:34.139";"NST_correctLoc";"31";"0";"FINISHED";"LEFT";"success";"354";"0";"2014-10-11 12:57:32.889";"3";;;;;;;;;;;;;;;;;;;;;;;;;;;;;;;;;;;;;;;;;;;;;
"cati123";"1965";;"Windows 7";"Rachel's Experiment (D.T.)";"1.0";"2";"1";"1";"2";"1";"1";"2014-10-11 12:53:00.358";"2014-10-11 13:14:23.580";"1";"0";"0";"56";"55";"module.training_block2.exec-1683.GoNoGo2";;;;;;;;;;;;;;;;;;;;;;;;;;;;;;;;;;;"1242";"2014-10-11 12:57:36.679";"NST_correctLoc";"34";"1";"FINISHED";"RIGHT";"success";"330";"0";"2014-10-11 12:57:35.429";"3";;;;;;;;;;;;;;;;;;;;;;;;;;;;;;;;;;;;;;;;;;;;;
"cati123";"1965";;"Windows 7";"Rachel's Experiment (D.T.)";"1.0";"2";"1";"1";"2";"1";"1";"2014-10-11 12:53:00.358";"2014-10-11 13:14:23.580";"1";"0";"0";"57";"56";"module.training_block2.exec-1683.GoNoGo2";;;;;;;;;;;;;;;;;;;;;;;;;;;;;;;;;;;"1242";"2014-10-11 12:57:39.209";"NST_correctLoc";"16";"0";"FINISHED";"LEFT";"success";"331";"0";"2014-10-11 12:57:37.959";"2";;;;;;;;;;;;;;;;;;;;;;;;;;;;;;;;;;;;;;;;;;;;;
"cati123";"1965";;"Windows 7";"Rachel's Experiment (D.T.)";"1.0";"2";"1";"1";"2";"1";"1";"2014-10-11 12:53:00.358";"2014-10-11 13:14:23.580";"1";"0";"0";"58";"57";"module.training_block2.exec-1683.GoNoGo2";;;;;;;;;;;;;;;;;;;;;;;;;;;;;;;;;;;"1242";"2014-10-11 12:57:41.749";"NST_correctLoc";"28";"1";"FINISHED";"RIGHT";"success";"329";"0";"2014-10-11 12:57:40.499";"3";;;;;;;;;;;;;;;;;;;;;;;;;;;;;;;;;;;;;;;;;;;;;
"cati123";"1965";;"Windows 7";"Rachel's Experiment (D.T.)";"1.0";"2";"1";"1";"2";"1";"1";"2014-10-11 12:53:00.358";"2014-10-11 13:14:23.580";"1";"0";"0";"59";"58";"module.training_block2.exec-1683.GoNoGo2";;;;;;;;;;;;;;;;;;;;;;;;;;;;;;;;;;;"1242";"2014-10-11 12:57:44.289";"NST_correctLoc";"1";"1";"FINISHED";"RIGHT";"success";"359";"0";"2014-10-11 12:57:43.039";"1";;;;;;;;;;;;;;;;;;;;;;;;;;;;;;;;;;;;;;;;;;;;;
"cati123";"1965";;"Windows 7";"Rachel's Experiment (D.T.)";"1.0";"2";"1";"1";"2";"1";"1";"2014-10-11 12:53:00.358";"2014-10-11 13:14:23.580";"1";"0";"0";"60";"59";"module.training_block2.exec-1683.GoNoGo2";;;;;;;;;;;;;;;;;;;;;;;;;;;;;;;;;;;"1242";"2014-10-11 12:57:46.829";"NST_correctLoc";"18";"1";"FINISHED";"RIGHT";"success";"327";"0";"2014-10-11 12:57:45.579";"3";;;;;;;;;;;;;;;;;;;;;;;;;;;;;;;;;;;;;;;;;;;;;
"cati123";"1965";;"Windows 7";"Rachel's Experiment (D.T.)";"1.0";"2";"1";"1";"2";"1";"1";"2014-10-11 12:53:00.358";"2014-10-11 13:14:23.580";"1";"0";"0";"61";"60";"module.training_block2.exec-1683.GoNoGo2";;;;;;;;;;;;;;;;;;;;;;;;;;;;;;;;;;;"1242";"2014-10-11 12:57:49.359";"NST_correctLoc";"21";"0";"FINISHED";"LEFT";"success";"353";"0";"2014-10-11 12:57:48.109";"3";;;;;;;;;;;;;;;;;;;;;;;;;;;;;;;;;;;;;;;;;;;;;
"cati123";"1965";;"Windows 7";"Rachel's Experiment (D.T.)";"1.0";"2";"1";"1";"2";"1";"1";"2014-10-11 12:53:00.358";"2014-10-11 13:14:23.580";"1";"0";"0";"62";"61";"module.training_block2.exec-1683.GoNoGo2";;;;;;;;;;;;;;;;;;;;;;;;;;;;;;;;;;;"1242";"2014-10-11 12:57:51.899";"NST_correctLoc";"15";"0";"FINISHED";"LEFT";"success";"358";"0";"2014-10-11 12:57:50.649";"2";;;;;;;;;;;;;;;;;;;;;;;;;;;;;;;;;;;;;;;;;;;;;
"cati123";"1965";;"Windows 7";"Rachel's Experiment (D.T.)";"1.0";"2";"1";"1";"2";"1";"1";"2014-10-11 12:53:00.358";"2014-10-11 13:14:23.580";"1";"0";"0";"63";"62";"module.training_block2.exec-1683.GoNoGo2";;;;;;;;;;;;;;;;;;;;;;;;;;;;;;;;;;;"1249";"2014-10-11 12:57:54.449";"NST_correctLoc";"25";"1";"FINISHED";"RIGHT";"success";"334";"0";"2014-10-11 12:57:53.199";"3";;;;;;;;;;;;;;;;;;;;;;;;;;;;;;;;;;;;;;;;;;;;;
"cati123";"1965";;"Windows 7";"Rachel's Experiment (D.T.)";"1.0";"2";"1";"1";"2";"1";"1";"2014-10-11 12:53:00.358";"2014-10-11 13:14:23.580";"1";"0";"0";"64";"63";"module.training_block2.exec-1683.GoNoGo2";;;;;;;;;;;;;;;;;;;;;;;;;;;;;;;;;;;"1241";"2014-10-11 12:57:56.989";"NST_correctLoc";"35";"1";"FINISHED";"RIGHT";"success";"324";"0";"2014-10-11 12:57:55.739";"3";;;;;;;;;;;;;;;;;;;;;;;;;;;;;;;;;;;;;;;;;;;;;
"cati123";"1965";;"Windows 7";"Rachel's Experiment (D.T.)";"1.0";"2";"1";"1";"2";"1";"1";"2014-10-11 12:53:00.358";"2014-10-11 13:14:23.580";"1";"0";"0";"65";"64";"module.training_block2.exec-1683.GoNoGo2";;;;;;;;;;;;;;;;;;;;;;;;;;;;;;;;;;;"1242";"2014-10-11 12:57:59.529";"NST_correctLoc";"29";"0";"FINISHED";"LEFT";"success";"306";"0";"2014-10-11 12:57:58.279";"3";;;;;;;;;;;;;;;;;;;;;;;;;;;;;;;;;;;;;;;;;;;;;
"cati123";"1965";;"Windows 7";"Rachel's Experiment (D.T.)";"1.0";"2";"1";"1";"2";"1";"1";"2014-10-11 12:53:00.358";"2014-10-11 13:14:23.580";"1";"0";"0";"66";"65";"module.training_block2.exec-1683.GoNoGo2";;;;;;;;;;;;;;;;;;;;;;;;;;;;;;;;;;;"1242";"2014-10-11 12:58:02.059";"NST_correctLoc";"3";"1";"FINISHED";"RIGHT";"success";"288";"0";"2014-10-11 12:58:00.809";"1";;;;;;;;;;;;;;;;;;;;;;;;;;;;;;;;;;;;;;;;;;;;;
"cati123";"1965";;"Windows 7";"Rachel's Experiment (D.T.)";"1.0";"2";"1";"1";"2";"1";"1";"2014-10-11 12:53:00.358";"2014-10-11 13:14:23.580";"1";"0";"0";"67";"66";"module.training_block2.exec-1683.GoNoGo2";;;;;;;;;;;;;;;;;;;;;;;;;;;;;;;;;;;"1242";"2014-10-11 12:58:04.589";"NST_correctLoc";"19";"1";"FINISHED";"RIGHT";"success";"341";"0";"2014-10-11 12:58:03.339";"3";;;;;;;;;;;;;;;;;;;;;;;;;;;;;;;;;;;;;;;;;;;;;
"cati123";"1965";;"Windows 7";"Rachel's Experiment (D.T.)";"1.0";"2";"1";"1";"2";"1";"1";"2014-10-11 12:53:00.358";"2014-10-11 13:14:23.580";"1";"0";"0";"68";"67";"module.training_block2.exec-1683.GoNoGo2";;;;;;;;;;;;;;;;;;;;;;;;;;;;;;;;;;;"1242";"2014-10-11 12:58:07.119";"NST_correctLoc";"7";"0";"FINISHED";"LEFT";"success";"355";"0";"2014-10-11 12:58:05.869";"1";;;;;;;;;;;;;;;;;;;;;;;;;;;;;;;;;;;;;;;;;;;;;
"cati123";"1965";;"Windows 7";"Rachel's Experiment (D.T.)";"1.0";"2";"1";"1";"2";"1";"1";"2014-10-11 12:53:00.358";"2014-10-11 13:14:23.580";"1";"0";"0";"69";"68";"module.training_block2.exec-1683.GoNoGo2";;;;;;;;;;;;;;;;;;;;;;;;;;;;;;;;;;;"1242";"2014-10-11 12:58:09.649";"NST_correctLoc";"5";"0";"FINISHED";"LEFT";"success";"409";"0";"2014-10-11 12:58:08.399";"1";;;;;;;;;;;;;;;;;;;;;;;;;;;;;;;;;;;;;;;;;;;;;
"cati123";"1965";;"Windows 7";"Rachel's Experiment (D.T.)";"1.0";"2";"1";"1";"2";"1";"1";"2014-10-11 12:53:00.358";"2014-10-11 13:14:23.580";"1";"0";"0";"70";"69";"module.training_block2.exec-1683.GoNoGo2";;;;;;;;;;;;;;;;;;;;;;;;;;;;;;;;;;;"1242";"2014-10-11 12:58:12.179";"NST_correctLoc";"11";"0";"FINISHED";"LEFT";"success";"394";"0";"2014-10-11 12:58:10.929";"2";;;;;;;;;;;;;;;;;;;;;;;;;;;;;;;;;;;;;;;;;;;;;
"cati123";"1965";;"Windows 7";"Rachel's Experiment (D.T.)";"1.0";"2";"1";"1";"2";"1";"1";"2014-10-11 12:53:00.358";"2014-10-11 13:14:23.580";"1";"0";"0";"71";"70";"module.training_block2.exec-1683.GoNoGo2";;;;;;;;;;;;;;;;;;;;;;;;;;;;;;;;;;;"1242";"2014-10-11 12:58:14.709";"NST_correctLoc";"14";"0";"FINISHED";"LEFT";"success";"333";"0";"2014-10-11 12:58:13.459";"2";;;;;;;;;;;;;;;;;;;;;;;;;;;;;;;;;;;;;;;;;;;;;
"cati123";"1965";;"Windows 7";"Rachel's Experiment (D.T.)";"1.0";"2";"1";"1";"2";"1";"1";"2014-10-11 12:53:00.358";"2014-10-11 13:14:23.580";"1";"0";"0";"72";"71";"module.training_block2.exec-1683.GoNoGo2";;;;;;;;;;;;;;;;;;;;;;;;;;;;;;;;;;;"1242";"2014-10-11 12:58:17.239";"NST_correctLoc";"10";"1";"FINISHED";"RIGHT";"success";"367";"0";"2014-10-11 12:58:15.989";"2";;;;;;;;;;;;;;;;;;;;;;;;;;;;;;;;;;;;;;;;;;;;;
"cati123";"1965";;"Windows 7";"Rachel's Experiment (D.T.)";"1.0";"2";"1";"1";"2";"1";"1";"2014-10-11 12:53:00.358";"2014-10-11 13:14:23.580";"1";"0";"0";"73";"72";"module.training_block2.exec-1683.GoNoGo2";;;;;;;;;;;;;;;;;;;;;;;;;;;;;;;;;;;"1242";"2014-10-11 12:58:19.769";"NST_correctLoc";"22";"1";"FINISHED";"RIGHT";"success";"370";"0";"2014-10-11 12:58:18.519";"3";;;;;;;;;;;;;;;;;;;;;;;;;;;;;;;;;;;;;;;;;;;;;
"cati123";"1965";;"Windows 7";"Rachel's Experiment (D.T.)";"1.0";"2";"1";"1";"2";"1";"1";"2014-10-11 12:53:00.358";"2014-10-11 13:14:23.580";"1";"0";"0";"74";"73";"module.training_block2.exec-1683.GoNoGo2";;;;;;;;;;;;;;;;;;;;;;;;;;;;;;;;;;;"1242";"2014-10-11 12:58:22.309";"NST_correctLoc";"9";"0";"FINISHED";"LEFT";"success";"308";"0";"2014-10-11 12:58:21.059";"2";;;;;;;;;;;;;;;;;;;;;;;;;;;;;;;;;;;;;;;;;;;;;
"cati123";"1965";;"Windows 7";"Rachel's Experiment (D.T.)";"1.0";"2";"1";"1";"2";"1";"1";"2014-10-11 12:53:00.358";"2014-10-11 13:14:23.580";"1";"0";"0";"75";"74";"module.training_block2.exec-1683.GoNoGo2";;;;;;;;;;;;;;;;;;;;;;;;;;;;;;;;;;;"1249";"2014-10-11 12:58:24.849";"NST_correctLoc";"6";"0";"FINISHED";"LEFT";"success";"364";"0";"2014-10-11 12:58:23.599";"1";;;;;;;;;;;;;;;;;;;;;;;;;;;;;;;;;;;;;;;;;;;;;
"cati123";"1965";;"Windows 7";"Rachel's Experiment (D.T.)";"1.0";"2";"1";"1";"2";"1";"1";"2014-10-11 12:53:00.358";"2014-10-11 13:14:23.580";"1";"0";"0";"76";"75";"module.training_block2.exec-1683.GoNoGo2";;;;;;;;;;;;;;;;;;;;;;;;;;;;;;;;;;;"1241";"2014-10-11 12:58:27.379";"NST_correctLoc";"27";"0";"FINISHED";"LEFT";"success";"371";"0";"2014-10-11 12:58:26.129";"3";;;;;;;;;;;;;;;;;;;;;;;;;;;;;;;;;;;;;;;;;;;;;
"cati123";"1965";;"Windows 7";"Rachel's Experiment (D.T.)";"1.0";"2";"1";"1";"2";"1";"1";"2014-10-11 12:53:00.358";"2014-10-11 13:14:23.580";"1";"0";"0";"77";"76";"module.training_block2.exec-1683.GoNoGo2";;;;;;;;;;;;;;;;;;;;;;;;;;;;;;;;;;;"1242";"2014-10-11 12:58:29.909";"NST_correctLoc";"13";"1";"FINISHED";"RIGHT";"success";"347";"0";"2014-10-11 12:58:28.659";"2";;;;;;;;;;;;;;;;;;;;;;;;;;;;;;;;;;;;;;;;;;;;;
"cati123";"1965";;"Windows 7";"Rachel's Experiment (D.T.)";"1.0";"2";"1";"1";"2";"1";"1";"2014-10-11 12:53:00.358";"2014-10-11 13:14:23.580";"1";"0";"0";"78";"77";"module.training_block2.exec-1683.GoNoGo2";;;;;;;;;;;;;;;;;;;;;;;;;;;;;;;;;;;"1242";"2014-10-11 12:58:32.439";"NST_correctLoc";"17";"0";"FINISHED";"LEFT";"success";"342";"0";"2014-10-11 12:58:31.189";"2";;;;;;;;;;;;;;;;;;;;;;;;;;;;;;;;;;;;;;;;;;;;;
"cati123";"1965";;"Windows 7";"Rachel's Experiment (D.T.)";"1.0";"2";"1";"1";"2";"1";"1";"2014-10-11 12:53:00.358";"2014-10-11 13:14:23.580";"1";"0";"0";"79";"78";"module.training_block2.exec-1683.GoNoGo2";;;;;;;;;;;;;;;;;;;;;;;;;;;;;;;;;;;"1242";"2014-10-11 12:58:34.969";"NST_correctLoc";"26";"1";"FINISHED";"RIGHT";"success";"341";"0";"2014-10-11 12:58:33.719";"3";;;;;;;;;;;;;;;;;;;;;;;;;;;;;;;;;;;;;;;;;;;;;
"cati123";"1965";;"Windows 7";"Rachel's Experiment (D.T.)";"1.0";"2";"1";"1";"2";"1";"1";"2014-10-11 12:53:00.358";"2014-10-11 13:14:23.580";"1";"0";"0";"80";"79";"module.training_block2.exec-1683.GoNoGo2";;;;;;;;;;;;;;;;;;;;;;;;;;;;;;;;;;;"1242";"2014-10-11 12:58:37.499";"NST_correctLoc";"2";"0";"FINISHED";"LEFT";"success";"401";"0";"2014-10-11 12:58:36.249";"1";;;;;;;;;;;;;;;;;;;;;;;;;;;;;;;;;;;;;;;;;;;;;
"cati123";"1965";;"Windows 7";"Rachel's Experiment (D.T.)";"1.0";"2";"1";"1";"2";"1";"1";"2014-10-11 12:53:00.358";"2014-10-11 13:14:23.580";"1";"0";"0";"81";"80";"module.training_block2.exec-1683.GoNoGo2";;;;;;;;;;;;;;;;;;;;;;;;;;;;;;;;;;;"1242";"2014-10-11 12:58:40.029";"NST_correctLoc";"24";"1";"FINISHED";"RIGHT";"success";"376";"0";"2014-10-11 12:58:38.779";"3";;;;;;;;;;;;;;;;;;;;;;;;;;;;;;;;;;;;;;;;;;;;;
"cati123";"1965";;"Windows 7";"Rachel's Experiment (D.T.)";"1.0";"2";"1";"1";"2";"1";"1";"2014-10-11 12:53:00.358";"2014-10-11 13:14:23.580";"1";"0";"0";"82";"81";"module.training_block2.exec-1683.GoNoGo2";;;;;;;;;;;;;;;;;;;;;;;;;;;;;;;;;;;"1242";"2014-10-11 12:58:42.559";"NST_correctLoc";"4";"0";"FINISHED";"LEFT";"success";"355";"0";"2014-10-11 12:58:41.309";"1";;;;;;;;;;;;;;;;;;;;;;;;;;;;;;;;;;;;;;;;;;;;;
"cati123";"1965";;"Windows 7";"Rachel's Experiment (D.T.)";"1.0";"2";"1";"1";"2";"1";"1";"2014-10-11 12:53:00.358";"2014-10-11 13:14:23.580";"1";"0";"0";"83";"82";"module.training_block2.exec-1683.GoNoGo2";;;;;;;;;;;;;;;;;;;;;;;;;;;;;;;;;;;"1242";"2014-10-11 12:58:45.089";"NST_correctLoc";"8";"1";"FINISHED";"RIGHT";"success";"683";"0";"2014-10-11 12:58:43.839";"1";;;;;;;;;;;;;;;;;;;;;;;;;;;;;;;;;;;;;;;;;;;;;
"cati123";"1965";;"Windows 7";"Rachel's Experiment (D.T.)";"1.0";"2";"1";"1";"2";"1";"1";"2014-10-11 12:53:00.358";"2014-10-11 13:14:23.580";"1";"0";"0";"84";"83";"module.training_block2.exec-1683.GoNoGo2";;;;;;;;;;;;;;;;;;;;;;;;;;;;;;;;;;;"1242";"2014-10-11 12:58:47.619";"NST_correctLoc";"23";"0";"FINISHED";"LEFT";"success";"598";"0";"2014-10-11 12:58:46.369";"3";;;;;;;;;;;;;;;;;;;;;;;;;;;;;;;;;;;;;;;;;;;;;
"cati123";"1965";;"Windows 7";"Rachel's Experiment (D.T.)";"1.0";"2";"1";"1";"2";"1";"1";"2014-10-11 12:53:00.358";"2014-10-11 13:14:23.580";"1";"0";"0";"85";"84";"module.training_block2.exec-1683.GoNoGo2";;;;;;;;;;;;;;;;;;;;;;;;;;;;;;;;;;;"1242";"2014-10-11 12:58:50.149";"NST_correctLoc";"33";"1";"FINISHED";"RIGHT";"success";"361";"0";"2014-10-11 12:58:48.899";"3";;;;;;;;;;;;;;;;;;;;;;;;;;;;;;;;;;;;;;;;;;;;;
"cati123";"1965";;"Windows 7";"Rachel's Experiment (D.T.)";"1.0";"2";"1";"1";"2";"1";"1";"2014-10-11 12:53:00.358";"2014-10-11 13:14:23.580";"1";"0";"0";"86";"85";"module.training_block2.exec-1683.GoNoGo2";;;;;;;;;;;;;;;;;;;;;;;;;;;;;;;;;;;"1242";"2014-10-11 12:58:52.679";"NST_correctLoc";"0";"1";"FINISHED";"RIGHT";"success";"371";"0";"2014-10-11 12:58:51.429";"1";;;;;;;;;;;;;;;;;;;;;;;;;;;;;;;;;;;;;;;;;;;;;
"cati123";"1965";;"Windows 7";"Rachel's Experiment (D.T.)";"1.0";"2";"1";"1";"2";"1";"1";"2014-10-11 12:53:00.358";"2014-10-11 13:14:23.580";"1";"0";"0";"87";"86";"module.training_block2.exec-1683.GoNoGo2";;;;;;;;;;;;;;;;;;;;;;;;;;;;;;;;;;;"1249";"2014-10-11 12:58:55.219";"NST_correctLoc";"30";"1";"FINISHED";"RIGHT";"success";"334";"0";"2014-10-11 12:58:53.969";"3";;;;;;;;;;;;;;;;;;;;;;;;;;;;;;;;;;;;;;;;;;;;;
"cati123";"1965";;"Windows 7";"Rachel's Experiment (D.T.)";"1.0";"2";"1";"1";"2";"1";"1";"2014-10-11 12:53:00.358";"2014-10-11 13:14:23.580";"1";"0";"0";"88";"87";"module.training_block3.exec-5743.GoNoGo3";;;;;;;;;;;;;;;;;;;;;;;;;;;;;;;;;;;;;;;;;;;;;;;"1241";"2014-10-11 13:00:08.559";"NST_correctLoc";"35";"1";"FINISHED";"RIGHT";"success";"394";"0";"2014-10-11 13:00:07.309";"3";;;;;;;;;;;;;;;;;;;;;;;;;;;;;;;;;
"cati123";"1965";;"Windows 7";"Rachel's Experiment (D.T.)";"1.0";"2";"1";"1";"2";"1";"1";"2014-10-11 12:53:00.358";"2014-10-11 13:14:23.580";"1";"0";"0";"89";"88";"module.training_block3.exec-5743.GoNoGo3";;;;;;;;;;;;;;;;;;;;;;;;;;;;;;;;;;;;;;;;;;;;;;;"1242";"2014-10-11 13:00:11.099";"NST_correctLoc";"13";"1";"FINISHED";"RIGHT";"success";"360";"0";"2014-10-11 13:00:09.849";"2";;;;;;;;;;;;;;;;;;;;;;;;;;;;;;;;;
"cati123";"1965";;"Windows 7";"Rachel's Experiment (D.T.)";"1.0";"2";"1";"1";"2";"1";"1";"2014-10-11 12:53:00.358";"2014-10-11 13:14:23.580";"1";"0";"0";"90";"89";"module.training_block3.exec-5743.GoNoGo3";;;;;;;;;;;;;;;;;;;;;;;;;;;;;;;;;;;;;;;;;;;;;;;"1242";"2014-10-11 13:00:13.629";"NST_correctLoc";"10";"0";"FINISHED";"LEFT";"success";"340";"0";"2014-10-11 13:00:12.379";"2";;;;;;;;;;;;;;;;;;;;;;;;;;;;;;;;;
"cati123";"1965";;"Windows 7";"Rachel's Experiment (D.T.)";"1.0";"2";"1";"1";"2";"1";"1";"2014-10-11 12:53:00.358";"2014-10-11 13:14:23.580";"1";"0";"0";"91";"90";"module.training_block3.exec-5743.GoNoGo3";;;;;;;;;;;;;;;;;;;;;;;;;;;;;;;;;;;;;;;;;;;;;;;"1242";"2014-10-11 13:00:16.159";"NST_correctLoc";"17";"0";"FINISHED";"LEFT";"success";"364";"0";"2014-10-11 13:00:14.909";"2";;;;;;;;;;;;;;;;;;;;;;;;;;;;;;;;;
"cati123";"1965";;"Windows 7";"Rachel's Experiment (D.T.)";"1.0";"2";"1";"1";"2";"1";"1";"2014-10-11 12:53:00.358";"2014-10-11 13:14:23.580";"1";"0";"0";"92";"91";"module.training_block3.exec-5743.GoNoGo3";;;;;;;;;;;;;;;;;;;;;;;;;;;;;;;;;;;;;;;;;;;;;;;"1242";"2014-10-11 13:00:18.689";"NST_correctLoc";"4";"1";"FINISHED";"RIGHT";"success";"345";"0";"2014-10-11 13:00:17.439";"1";;;;;;;;;;;;;;;;;;;;;;;;;;;;;;;;;
"cati123";"1965";;"Windows 7";"Rachel's Experiment (D.T.)";"1.0";"2";"1";"1";"2";"1";"1";"2014-10-11 12:53:00.358";"2014-10-11 13:14:23.580";"1";"0";"0";"93";"92";"module.training_block3.exec-5743.GoNoGo3";;;;;;;;;;;;;;;;;;;;;;;;;;;;;;;;;;;;;;;;;;;;;;;"1242";"2014-10-11 13:00:21.219";"NST_correctLoc";"8";"0";"FINISHED";"LEFT";"success";"353";"0";"2014-10-11 13:00:19.969";"1";;;;;;;;;;;;;;;;;;;;;;;;;;;;;;;;;
"cati123";"1965";;"Windows 7";"Rachel's Experiment (D.T.)";"1.0";"2";"1";"1";"2";"1";"1";"2014-10-11 12:53:00.358";"2014-10-11 13:14:23.580";"1";"0";"0";"94";"93";"module.training_block3.exec-5743.GoNoGo3";;;;;;;;;;;;;;;;;;;;;;;;;;;;;;;;;;;;;;;;;;;;;;;"1242";"2014-10-11 13:00:23.749";"NST_correctLoc";"15";"0";"FINISHED";"LEFT";"success";"464";"0";"2014-10-11 13:00:22.499";"2";;;;;;;;;;;;;;;;;;;;;;;;;;;;;;;;;
"cati123";"1965";;"Windows 7";"Rachel's Experiment (D.T.)";"1.0";"2";"1";"1";"2";"1";"1";"2014-10-11 12:53:00.358";"2014-10-11 13:14:23.580";"1";"0";"0";"95";"94";"module.training_block3.exec-5743.GoNoGo3";;;;;;;;;;;;;;;;;;;;;;;;;;;;;;;;;;;;;;;;;;;;;;;"1242";"2014-10-11 13:00:26.279";"NST_correctLoc";"21";"1";"FINISHED";"RIGHT";"success";"396";"0";"2014-10-11 13:00:25.029";"3";;;;;;;;;;;;;;;;;;;;;;;;;;;;;;;;;
"cati123";"1965";;"Windows 7";"Rachel's Experiment (D.T.)";"1.0";"2";"1";"1";"2";"1";"1";"2014-10-11 12:53:00.358";"2014-10-11 13:14:23.580";"1";"0";"0";"96";"95";"module.training_block3.exec-5743.GoNoGo3";;;;;;;;;;;;;;;;;;;;;;;;;;;;;;;;;;;;;;;;;;;;;;;"1242";"2014-10-11 13:00:28.809";"NST_correctLoc";"11";"1";"FINISHED";"RIGHT";"success";"400";"0";"2014-10-11 13:00:27.559";"2";;;;;;;;;;;;;;;;;;;;;;;;;;;;;;;;;
"cati123";"1965";;"Windows 7";"Rachel's Experiment (D.T.)";"1.0";"2";"1";"1";"2";"1";"1";"2014-10-11 12:53:00.358";"2014-10-11 13:14:23.580";"1";"0";"0";"97";"96";"module.training_block3.exec-5743.GoNoGo3";;;;;;;;;;;;;;;;;;;;;;;;;;;;;;;;;;;;;;;;;;;;;;;"1242";"2014-10-11 13:00:31.339";"NST_correctLoc";"7";"0";"FINISHED";"LEFT";"success";"416";"0";"2014-10-11 13:00:30.089";"1";;;;;;;;;;;;;;;;;;;;;;;;;;;;;;;;;
"cati123";"1965";;"Windows 7";"Rachel's Experiment (D.T.)";"1.0";"2";"1";"1";"2";"1";"1";"2014-10-11 12:53:00.358";"2014-10-11 13:14:23.580";"1";"0";"0";"98";"97";"module.training_block3.exec-5743.GoNoGo3";;;;;;;;;;;;;;;;;;;;;;;;;;;;;;;;;;;;;;;;;;;;;;;"1242";"2014-10-11 13:00:33.869";"NST_correctLoc";"22";"1";"FINISHED";"RIGHT";"success";"337";"0";"2014-10-11 13:00:32.619";"3";;;;;;;;;;;;;;;;;;;;;;;;;;;;;;;;;
"cati123";"1965";;"Windows 7";"Rachel's Experiment (D.T.)";"1.0";"2";"1";"1";"2";"1";"1";"2014-10-11 12:53:00.358";"2014-10-11 13:14:23.580";"1";"0";"0";"99";"98";"module.training_block3.exec-5743.GoNoGo3";;;;;;;;;;;;;;;;;;;;;;;;;;;;;;;;;;;;;;;;;;;;;;;"1240";"2014-10-11 13:00:36.399";"NST_correctLoc";"23";"0";"FINISHED";"LEFT";"success";"355";"0";"2014-10-11 13:00:35.149";"3";;;;;;;;;;;;;;;;;;;;;;;;;;;;;;;;;
"cati123";"1965";;"Windows 7";"Rachel's Experiment (D.T.)";"1.0";"2";"1";"1";"2";"1";"1";"2014-10-11 12:53:00.358";"2014-10-11 13:14:23.580";"1";"0";"0";"100";"99";"module.training_block3.exec-5743.GoNoGo3";;;;;;;;;;;;;;;;;;;;;;;;;;;;;;;;;;;;;;;;;;;;;;;"1242";"2014-10-11 13:00:38.929";"NST_correctLoc";"12";"1";"FINISHED";"RIGHT";"success";"369";"0";"2014-10-11 13:00:37.679";"2";;;;;;;;;;;;;;;;;;;;;;;;;;;;;;;;;
"cati123";"1965";;"Windows 7";"Rachel's Experiment (D.T.)";"1.0";"2";"1";"1";"2";"1";"1";"2014-10-11 12:53:00.358";"2014-10-11 13:14:23.580";"1";"0";"0";"101";"100";"module.training_block3.exec-5743.GoNoGo3";;;;;;;;;;;;;;;;;;;;;;;;;;;;;;;;;;;;;;;;;;;;;;;"1242";"2014-10-11 13:00:41.459";"NST_correctLoc";"33";"1";"FINISHED";"RIGHT";"success";"368";"0";"2014-10-11 13:00:40.209";"3";;;;;;;;;;;;;;;;;;;;;;;;;;;;;;;;;
"cati123";"1965";;"Windows 7";"Rachel's Experiment (D.T.)";"1.0";"2";"1";"1";"2";"1";"1";"2014-10-11 12:53:00.358";"2014-10-11 13:14:23.580";"1";"0";"0";"102";"101";"module.training_block3.exec-5743.GoNoGo3";;;;;;;;;;;;;;;;;;;;;;;;;;;;;;;;;;;;;;;;;;;;;;;"1242";"2014-10-11 13:00:43.989";"NST_correctLoc";"3";"1";"FINISHED";"RIGHT";"success";"526";"0";"2014-10-11 13:00:42.739";"1";;;;;;;;;;;;;;;;;;;;;;;;;;;;;;;;;
"cati123";"1965";;"Windows 7";"Rachel's Experiment (D.T.)";"1.0";"2";"1";"1";"2";"1";"1";"2014-10-11 12:53:00.358";"2014-10-11 13:14:23.580";"1";"0";"0";"103";"102";"module.training_block3.exec-5743.GoNoGo3";;;;;;;;;;;;;;;;;;;;;;;;;;;;;;;;;;;;;;;;;;;;;;;"1242";"2014-10-11 13:00:46.519";"NST_correctLoc";"20";"1";"FINISHED";"RIGHT";"success";"414";"0";"2014-10-11 13:00:45.269";"3";;;;;;;;;;;;;;;;;;;;;;;;;;;;;;;;;
"cati123";"1965";;"Windows 7";"Rachel's Experiment (D.T.)";"1.0";"2";"1";"1";"2";"1";"1";"2014-10-11 12:53:00.358";"2014-10-11 13:14:23.580";"1";"0";"0";"104";"103";"module.training_block3.exec-5743.GoNoGo3";;;;;;;;;;;;;;;;;;;;;;;;;;;;;;;;;;;;;;;;;;;;;;;"1242";"2014-10-11 13:00:49.049";"NST_correctLoc";"32";"1";"FINISHED";"RIGHT";"success";"487";"0";"2014-10-11 13:00:47.799";"3";;;;;;;;;;;;;;;;;;;;;;;;;;;;;;;;;
"cati123";"1965";;"Windows 7";"Rachel's Experiment (D.T.)";"1.0";"2";"1";"1";"2";"1";"1";"2014-10-11 12:53:00.358";"2014-10-11 13:14:23.580";"1";"0";"0";"105";"104";"module.training_block3.exec-5743.GoNoGo3";;;;;;;;;;;;;;;;;;;;;;;;;;;;;;;;;;;;;;;;;;;;;;;"1242";"2014-10-11 13:00:51.579";"NST_correctLoc";"26";"1";"FINISHED";"RIGHT";"success";"362";"0";"2014-10-11 13:00:50.329";"3";;;;;;;;;;;;;;;;;;;;;;;;;;;;;;;;;
"cati123";"1965";;"Windows 7";"Rachel's Experiment (D.T.)";"1.0";"2";"1";"1";"2";"1";"1";"2014-10-11 12:53:00.358";"2014-10-11 13:14:23.580";"1";"0";"0";"106";"105";"module.training_block3.exec-5743.GoNoGo3";;;;;;;;;;;;;;;;;;;;;;;;;;;;;;;;;;;;;;;;;;;;;;;"1242";"2014-10-11 13:00:54.109";"NST_correctLoc";"16";"1";"FINISHED";"RIGHT";"success";"377";"0";"2014-10-11 13:00:52.859";"2";;;;;;;;;;;;;;;;;;;;;;;;;;;;;;;;;
"cati123";"1965";;"Windows 7";"Rachel's Experiment (D.T.)";"1.0";"2";"1";"1";"2";"1";"1";"2014-10-11 12:53:00.358";"2014-10-11 13:14:23.580";"1";"0";"0";"107";"106";"module.training_block3.exec-5743.GoNoGo3";;;;;;;;;;;;;;;;;;;;;;;;;;;;;;;;;;;;;;;;;;;;;;;"1242";"2014-10-11 13:00:56.639";"NST_correctLoc";"34";"0";"FINISHED";"LEFT";"success";"367";"0";"2014-10-11 13:00:55.389";"3";;;;;;;;;;;;;;;;;;;;;;;;;;;;;;;;;
"cati123";"1965";;"Windows 7";"Rachel's Experiment (D.T.)";"1.0";"2";"1";"1";"2";"1";"1";"2014-10-11 12:53:00.358";"2014-10-11 13:14:23.580";"1";"0";"0";"108";"107";"module.training_block3.exec-5743.GoNoGo3";;;;;;;;;;;;;;;;;;;;;;;;;;;;;;;;;;;;;;;;;;;;;;;"1242";"2014-10-11 13:00:59.169";"NST_correctLoc";"25";"1";"FINISHED";"RIGHT";"success";"338";"0";"2014-10-11 13:00:57.919";"3";;;;;;;;;;;;;;;;;;;;;;;;;;;;;;;;;
"cati123";"1965";;"Windows 7";"Rachel's Experiment (D.T.)";"1.0";"2";"1";"1";"2";"1";"1";"2014-10-11 12:53:00.358";"2014-10-11 13:14:23.580";"1";"0";"0";"109";"108";"module.training_block3.exec-5743.GoNoGo3";;;;;;;;;;;;;;;;;;;;;;;;;;;;;;;;;;;;;;;;;;;;;;;"1242";"2014-10-11 13:01:01.699";"NST_correctLoc";"27";"1";"FINISHED";"RIGHT";"success";"350";"0";"2014-10-11 13:01:00.449";"3";;;;;;;;;;;;;;;;;;;;;;;;;;;;;;;;;
"cati123";"1965";;"Windows 7";"Rachel's Experiment (D.T.)";"1.0";"2";"1";"1";"2";"1";"1";"2014-10-11 12:53:00.358";"2014-10-11 13:14:23.580";"1";"0";"0";"110";"109";"module.training_block3.exec-5743.GoNoGo3";;;;;;;;;;;;;;;;;;;;;;;;;;;;;;;;;;;;;;;;;;;;;;;"1242";"2014-10-11 13:01:04.229";"NST_correctLoc";"6";"1";"FINISHED";"RIGHT";"success";"505";"0";"2014-10-11 13:01:02.979";"1";;;;;;;;;;;;;;;;;;;;;;;;;;;;;;;;;
"cati123";"1965";;"Windows 7";"Rachel's Experiment (D.T.)";"1.0";"2";"1";"1";"2";"1";"1";"2014-10-11 12:53:00.358";"2014-10-11 13:14:23.580";"1";"0";"0";"111";"110";"module.training_block3.exec-5743.GoNoGo3";;;;;;;;;;;;;;;;;;;;;;;;;;;;;;;;;;;;;;;;;;;;;;;"1249";"2014-10-11 13:01:06.769";"NST_correctLoc";"29";"0";"FINISHED";"LEFT";"success";"420";"0";"2014-10-11 13:01:05.519";"3";;;;;;;;;;;;;;;;;;;;;;;;;;;;;;;;;
"cati123";"1965";;"Windows 7";"Rachel's Experiment (D.T.)";"1.0";"2";"1";"1";"2";"1";"1";"2014-10-11 12:53:00.358";"2014-10-11 13:14:23.580";"1";"0";"0";"112";"111";"module.training_block3.exec-5743.GoNoGo3";;;;;;;;;;;;;;;;;;;;;;;;;;;;;;;;;;;;;;;;;;;;;;;"1242";"2014-10-11 13:01:09.299";"NST_correctLoc";"1";"0";"FINISHED";"LEFT";"success";"444";"0";"2014-10-11 13:01:08.049";"1";;;;;;;;;;;;;;;;;;;;;;;;;;;;;;;;;
"cati123";"1965";;"Windows 7";"Rachel's Experiment (D.T.)";"1.0";"2";"1";"1";"2";"1";"1";"2014-10-11 12:53:00.358";"2014-10-11 13:14:23.580";"1";"0";"0";"113";"112";"module.training_block3.exec-5743.GoNoGo3";;;;;;;;;;;;;;;;;;;;;;;;;;;;;;;;;;;;;;;;;;;;;;;"1242";"2014-10-11 13:01:11.829";"NST_correctLoc";"28";"1";"FINISHED";"RIGHT";"success";"484";"0";"2014-10-11 13:01:10.579";"3";;;;;;;;;;;;;;;;;;;;;;;;;;;;;;;;;
"cati123";"1965";;"Windows 7";"Rachel's Experiment (D.T.)";"1.0";"2";"1";"1";"2";"1";"1";"2014-10-11 12:53:00.358";"2014-10-11 13:14:23.580";"1";"0";"0";"114";"113";"module.training_block3.exec-5743.GoNoGo3";;;;;;;;;;;;;;;;;;;;;;;;;;;;;;;;;;;;;;;;;;;;;;;"1242";"2014-10-11 13:01:14.359";"NST_correctLoc";"5";"0";"FINISHED";"LEFT";"success";"411";"0";"2014-10-11 13:01:13.109";"1";;;;;;;;;;;;;;;;;;;;;;;;;;;;;;;;;
"cati123";"1965";;"Windows 7";"Rachel's Experiment (D.T.)";"1.0";"2";"1";"1";"2";"1";"1";"2014-10-11 12:53:00.358";"2014-10-11 13:14:23.580";"1";"0";"0";"115";"114";"module.training_block3.exec-5743.GoNoGo3";;;;;;;;;;;;;;;;;;;;;;;;;;;;;;;;;;;;;;;;;;;;;;;"1242";"2014-10-11 13:01:16.889";"NST_correctLoc";"30";"1";"FINISHED";"RIGHT";"success";"376";"0";"2014-10-11 13:01:15.639";"3";;;;;;;;;;;;;;;;;;;;;;;;;;;;;;;;;
"cati123";"1965";;"Windows 7";"Rachel's Experiment (D.T.)";"1.0";"2";"1";"1";"2";"1";"1";"2014-10-11 12:53:00.358";"2014-10-11 13:14:23.580";"1";"0";"0";"116";"115";"module.training_block3.exec-5743.GoNoGo3";;;;;;;;;;;;;;;;;;;;;;;;;;;;;;;;;;;;;;;;;;;;;;;"1242";"2014-10-11 13:01:19.419";"NST_correctLoc";"0";"0";"FINISHED";"LEFT";"success";"447";"0";"2014-10-11 13:01:18.169";"1";;;;;;;;;;;;;;;;;;;;;;;;;;;;;;;;;
"cati123";"1965";;"Windows 7";"Rachel's Experiment (D.T.)";"1.0";"2";"1";"1";"2";"1";"1";"2014-10-11 12:53:00.358";"2014-10-11 13:14:23.580";"1";"0";"0";"117";"116";"module.training_block3.exec-5743.GoNoGo3";;;;;;;;;;;;;;;;;;;;;;;;;;;;;;;;;;;;;;;;;;;;;;;"1242";"2014-10-11 13:01:21.939";"NST_correctLoc";"18";"0";"FINISHED";"LEFT";"success";"407";"0";"2014-10-11 13:01:20.689";"3";;;;;;;;;;;;;;;;;;;;;;;;;;;;;;;;;
"cati123";"1965";;"Windows 7";"Rachel's Experiment (D.T.)";"1.0";"2";"1";"1";"2";"1";"1";"2014-10-11 12:53:00.358";"2014-10-11 13:14:23.580";"1";"0";"0";"118";"117";"module.training_block3.exec-5743.GoNoGo3";;;;;;;;;;;;;;;;;;;;;;;;;;;;;;;;;;;;;;;;;;;;;;;"1242";"2014-10-11 13:01:24.469";"NST_correctLoc";"24";"0";"FINISHED";"LEFT";"success";"372";"0";"2014-10-11 13:01:23.219";"3";;;;;;;;;;;;;;;;;;;;;;;;;;;;;;;;;
"cati123";"1965";;"Windows 7";"Rachel's Experiment (D.T.)";"1.0";"2";"1";"1";"2";"1";"1";"2014-10-11 12:53:00.358";"2014-10-11 13:14:23.580";"1";"0";"0";"119";"118";"module.training_block3.exec-5743.GoNoGo3";;;;;;;;;;;;;;;;;;;;;;;;;;;;;;;;;;;;;;;;;;;;;;;"1242";"2014-10-11 13:01:26.989";"NST_correctLoc";"31";"1";"FINISHED";"RIGHT";"success";"373";"0";"2014-10-11 13:01:25.739";"3";;;;;;;;;;;;;;;;;;;;;;;;;;;;;;;;;
"cati123";"1965";;"Windows 7";"Rachel's Experiment (D.T.)";"1.0";"2";"1";"1";"2";"1";"1";"2014-10-11 12:53:00.358";"2014-10-11 13:14:23.580";"1";"0";"0";"120";"119";"module.training_block3.exec-5743.GoNoGo3";;;;;;;;;;;;;;;;;;;;;;;;;;;;;;;;;;;;;;;;;;;;;;;"1242";"2014-10-11 13:01:29.519";"NST_correctLoc";"19";"0";"FINISHED";"LEFT";"success";"345";"0";"2014-10-11 13:01:28.269";"3";;;;;;;;;;;;;;;;;;;;;;;;;;;;;;;;;
"cati123";"1965";;"Windows 7";"Rachel's Experiment (D.T.)";"1.0";"2";"1";"1";"2";"1";"1";"2014-10-11 12:53:00.358";"2014-10-11 13:14:23.580";"1";"0";"0";"121";"120";"module.training_block3.exec-5743.GoNoGo3";;;;;;;;;;;;;;;;;;;;;;;;;;;;;;;;;;;;;;;;;;;;;;;"1242";"2014-10-11 13:01:32.049";"NST_correctLoc";"14";"1";"FINISHED";"RIGHT";"success";"313";"0";"2014-10-11 13:01:30.799";"2";;;;;;;;;;;;;;;;;;;;;;;;;;;;;;;;;
"cati123";"1965";;"Windows 7";"Rachel's Experiment (D.T.)";"1.0";"2";"1";"1";"2";"1";"1";"2014-10-11 12:53:00.358";"2014-10-11 13:14:23.580";"1";"0";"0";"122";"121";"module.training_block3.exec-5743.GoNoGo3";;;;;;;;;;;;;;;;;;;;;;;;;;;;;;;;;;;;;;;;;;;;;;;"1242";"2014-10-11 13:01:34.569";"NST_correctLoc";"2";"1";"FINISHED";"RIGHT";"success";"381";"0";"2014-10-11 13:01:33.319";"1";;;;;;;;;;;;;;;;;;;;;;;;;;;;;;;;;
"cati123";"1965";;"Windows 7";"Rachel's Experiment (D.T.)";"1.0";"2";"1";"1";"2";"1";"1";"2014-10-11 12:53:00.358";"2014-10-11 13:14:23.580";"1";"0";"0";"123";"122";"module.training_block3.exec-5743.GoNoGo3";;;;;;;;;;;;;;;;;;;;;;;;;;;;;;;;;;;;;;;;;;;;;;;"1249";"2014-10-11 13:01:37.109";"NST_correctLoc";"9";"0";"FINISHED";"LEFT";"success";"372";"0";"2014-10-11 13:01:35.859";"2";;;;;;;;;;;;;;;;;;;;;;;;;;;;;;;;;
"cati123";"1965";;"Windows 7";"Rachel's Experiment (D.T.)";"1.0";"2";"1";"1";"2";"1";"1";"2014-10-11 12:53:00.358";"2014-10-11 13:14:23.580";"1";"0";"0";"124";"123";"module.training_block4.exec-3058.GoNoGo4";;;;;;;;;;;;;;;;;;;;;;;;;;;;;;;;;;;;;;;;;;;;;;;;;;;;;;;;;;;"1241";"2014-10-11 13:01:51.029";"NST_correctLoc";"26";"0";"FINISHED";"LEFT";"success";"859";"0";"2014-10-11 13:01:49.779";"3";;;;;;;;;;;;;;;;;;;;;
"cati123";"1965";;"Windows 7";"Rachel's Experiment (D.T.)";"1.0";"2";"1";"1";"2";"1";"1";"2014-10-11 12:53:00.358";"2014-10-11 13:14:23.580";"1";"0";"0";"125";"124";"module.training_block4.exec-3058.GoNoGo4";;;;;;;;;;;;;;;;;;;;;;;;;;;;;;;;;;;;;;;;;;;;;;;;;;;;;;;;;;;"1242";"2014-10-11 13:01:53.559";"NST_correctLoc";"34";"1";"FINISHED";"RIGHT";"success";"316";"0";"2014-10-11 13:01:52.309";"3";;;;;;;;;;;;;;;;;;;;;
"cati123";"1965";;"Windows 7";"Rachel's Experiment (D.T.)";"1.0";"2";"1";"1";"2";"1";"1";"2014-10-11 12:53:00.358";"2014-10-11 13:14:23.580";"1";"0";"0";"126";"125";"module.training_block4.exec-3058.GoNoGo4";;;;;;;;;;;;;;;;;;;;;;;;;;;;;;;;;;;;;;;;;;;;;;;;;;;;;;;;;;;"1242";"2014-10-11 13:01:56.079";"NST_correctLoc";"6";"0";"FINISHED";"LEFT";"success";"305";"0";"2014-10-11 13:01:54.829";"1";;;;;;;;;;;;;;;;;;;;;
"cati123";"1965";;"Windows 7";"Rachel's Experiment (D.T.)";"1.0";"2";"1";"1";"2";"1";"1";"2014-10-11 12:53:00.358";"2014-10-11 13:14:23.580";"1";"0";"0";"127";"126";"module.training_block4.exec-3058.GoNoGo4";;;;;;;;;;;;;;;;;;;;;;;;;;;;;;;;;;;;;;;;;;;;;;;;;;;;;;;;;;;"1243";"2014-10-11 13:01:58.599";"NST_correctLoc";"9";"0";"FINISHED";"LEFT";"success";"352";"0";"2014-10-11 13:01:57.349";"2";;;;;;;;;;;;;;;;;;;;;
"cati123";"1965";;"Windows 7";"Rachel's Experiment (D.T.)";"1.0";"2";"1";"1";"2";"1";"1";"2014-10-11 12:53:00.358";"2014-10-11 13:14:23.580";"1";"0";"0";"128";"127";"module.training_block4.exec-3058.GoNoGo4";;;;;;;;;;;;;;;;;;;;;;;;;;;;;;;;;;;;;;;;;;;;;;;;;;;;;;;;;;;"1242";"2014-10-11 13:02:01.129";"NST_correctLoc";"25";"0";"FINISHED";"LEFT";"success";"346";"0";"2014-10-11 13:01:59.879";"3";;;;;;;;;;;;;;;;;;;;;
"cati123";"1965";;"Windows 7";"Rachel's Experiment (D.T.)";"1.0";"2";"1";"1";"2";"1";"1";"2014-10-11 12:53:00.358";"2014-10-11 13:14:23.580";"1";"0";"0";"129";"128";"module.training_block4.exec-3058.GoNoGo4";;;;;;;;;;;;;;;;;;;;;;;;;;;;;;;;;;;;;;;;;;;;;;;;;;;;;;;;;;;"1242";"2014-10-11 13:02:03.659";"NST_correctLoc";"10";"1";"FINISHED";"RIGHT";"success";"286";"0";"2014-10-11 13:02:02.409";"2";;;;;;;;;;;;;;;;;;;;;
"cati123";"1965";;"Windows 7";"Rachel's Experiment (D.T.)";"1.0";"2";"1";"1";"2";"1";"1";"2014-10-11 12:53:00.358";"2014-10-11 13:14:23.580";"1";"0";"0";"130";"129";"module.training_block4.exec-3058.GoNoGo4";;;;;;;;;;;;;;;;;;;;;;;;;;;;;;;;;;;;;;;;;;;;;;;;;;;;;;;;;;;"1242";"2014-10-11 13:02:06.179";"NST_wrongLoc";"27";"1";"FINISHED";"LEFT";"failure";"384";"0";"2014-10-11 13:02:04.929";"3";;;;;;;;;;;;;;;;;;;;;
"cati123";"1965";;"Windows 7";"Rachel's Experiment (D.T.)";"1.0";"2";"1";"1";"2";"1";"1";"2014-10-11 12:53:00.358";"2014-10-11 13:14:23.580";"1";"0";"0";"131";"130";"module.training_block4.exec-3058.GoNoGo4";;;;;;;;;;;;;;;;;;;;;;;;;;;;;;;;;;;;;;;;;;;;;;;;;;;;;;;;;;;"1242";"2014-10-11 13:02:08.709";"NST_correctLoc";"23";"0";"FINISHED";"LEFT";"success";"469";"0";"2014-10-11 13:02:07.459";"3";;;;;;;;;;;;;;;;;;;;;
"cati123";"1965";;"Windows 7";"Rachel's Experiment (D.T.)";"1.0";"2";"1";"1";"2";"1";"1";"2014-10-11 12:53:00.358";"2014-10-11 13:14:23.580";"1";"0";"0";"132";"131";"module.training_block4.exec-3058.GoNoGo4";;;;;;;;;;;;;;;;;;;;;;;;;;;;;;;;;;;;;;;;;;;;;;;;;;;;;;;;;;;"1242";"2014-10-11 13:02:11.229";"NST_correctLoc";"22";"0";"FINISHED";"LEFT";"success";"378";"0";"2014-10-11 13:02:09.979";"3";;;;;;;;;;;;;;;;;;;;;
"cati123";"1965";;"Windows 7";"Rachel's Experiment (D.T.)";"1.0";"2";"1";"1";"2";"1";"1";"2014-10-11 12:53:00.358";"2014-10-11 13:14:23.580";"1";"0";"0";"133";"132";"module.training_block4.exec-3058.GoNoGo4";;;;;;;;;;;;;;;;;;;;;;;;;;;;;;;;;;;;;;;;;;;;;;;;;;;;;;;;;;;"1242";"2014-10-11 13:02:13.749";"NST_correctLoc";"18";"1";"FINISHED";"RIGHT";"success";"363";"0";"2014-10-11 13:02:12.499";"3";;;;;;;;;;;;;;;;;;;;;
"cati123";"1965";;"Windows 7";"Rachel's Experiment (D.T.)";"1.0";"2";"1";"1";"2";"1";"1";"2014-10-11 12:53:00.358";"2014-10-11 13:14:23.580";"1";"0";"0";"134";"133";"module.training_block4.exec-3058.GoNoGo4";;;;;;;;;;;;;;;;;;;;;;;;;;;;;;;;;;;;;;;;;;;;;;;;;;;;;;;;;;;"1242";"2014-10-11 13:02:16.269";"NST_correctLoc";"28";"0";"FINISHED";"LEFT";"success";"354";"0";"2014-10-11 13:02:15.019";"3";;;;;;;;;;;;;;;;;;;;;
"cati123";"1965";;"Windows 7";"Rachel's Experiment (D.T.)";"1.0";"2";"1";"1";"2";"1";"1";"2014-10-11 12:53:00.358";"2014-10-11 13:14:23.580";"1";"0";"0";"135";"134";"module.training_block4.exec-3058.GoNoGo4";;;;;;;;;;;;;;;;;;;;;;;;;;;;;;;;;;;;;;;;;;;;;;;;;;;;;;;;;;;"1242";"2014-10-11 13:02:18.789";"NST_correctLoc";"35";"0";"FINISHED";"LEFT";"success";"429";"0";"2014-10-11 13:02:17.539";"3";;;;;;;;;;;;;;;;;;;;;
"cati123";"1965";;"Windows 7";"Rachel's Experiment (D.T.)";"1.0";"2";"1";"1";"2";"1";"1";"2014-10-11 12:53:00.358";"2014-10-11 13:14:23.580";"1";"0";"0";"136";"135";"module.training_block4.exec-3058.GoNoGo4";;;;;;;;;;;;;;;;;;;;;;;;;;;;;;;;;;;;;;;;;;;;;;;;;;;;;;;;;;;"1242";"2014-10-11 13:02:21.319";"NST_correctLoc";"14";"1";"FINISHED";"RIGHT";"success";"342";"0";"2014-10-11 13:02:20.069";"2";;;;;;;;;;;;;;;;;;;;;
"cati123";"1965";;"Windows 7";"Rachel's Experiment (D.T.)";"1.0";"2";"1";"1";"2";"1";"1";"2014-10-11 12:53:00.358";"2014-10-11 13:14:23.580";"1";"0";"0";"137";"136";"module.training_block4.exec-3058.GoNoGo4";;;;;;;;;;;;;;;;;;;;;;;;;;;;;;;;;;;;;;;;;;;;;;;;;;;;;;;;;;;"1242";"2014-10-11 13:02:23.849";"NST_correctLoc";"12";"1";"FINISHED";"RIGHT";"success";"350";"0";"2014-10-11 13:02:22.599";"2";;;;;;;;;;;;;;;;;;;;;
"cati123";"1965";;"Windows 7";"Rachel's Experiment (D.T.)";"1.0";"2";"1";"1";"2";"1";"1";"2014-10-11 12:53:00.358";"2014-10-11 13:14:23.580";"1";"0";"0";"138";"137";"module.training_block4.exec-3058.GoNoGo4";;;;;;;;;;;;;;;;;;;;;;;;;;;;;;;;;;;;;;;;;;;;;;;;;;;;;;;;;;;"1242";"2014-10-11 13:02:26.369";"NST_correctLoc";"8";"0";"FINISHED";"LEFT";"success";"358";"0";"2014-10-11 13:02:25.119";"1";;;;;;;;;;;;;;;;;;;;;
"cati123";"1965";;"Windows 7";"Rachel's Experiment (D.T.)";"1.0";"2";"1";"1";"2";"1";"1";"2014-10-11 12:53:00.358";"2014-10-11 13:14:23.580";"1";"0";"0";"139";"138";"module.training_block4.exec-3058.GoNoGo4";;;;;;;;;;;;;;;;;;;;;;;;;;;;;;;;;;;;;;;;;;;;;;;;;;;;;;;;;;;"1242";"2014-10-11 13:02:28.889";"NST_correctLoc";"3";"1";"FINISHED";"RIGHT";"success";"344";"0";"2014-10-11 13:02:27.639";"1";;;;;;;;;;;;;;;;;;;;;
"cati123";"1965";;"Windows 7";"Rachel's Experiment (D.T.)";"1.0";"2";"1";"1";"2";"1";"1";"2014-10-11 12:53:00.358";"2014-10-11 13:14:23.580";"1";"0";"0";"140";"139";"module.training_block4.exec-3058.GoNoGo4";;;;;;;;;;;;;;;;;;;;;;;;;;;;;;;;;;;;;;;;;;;;;;;;;;;;;;;;;;;"1242";"2014-10-11 13:02:31.409";"NST_correctLoc";"4";"1";"FINISHED";"RIGHT";"success";"286";"0";"2014-10-11 13:02:30.159";"1";;;;;;;;;;;;;;;;;;;;;
"cati123";"1965";;"Windows 7";"Rachel's Experiment (D.T.)";"1.0";"2";"1";"1";"2";"1";"1";"2014-10-11 12:53:00.358";"2014-10-11 13:14:23.580";"1";"0";"0";"141";"140";"module.training_block4.exec-3058.GoNoGo4";;;;;;;;;;;;;;;;;;;;;;;;;;;;;;;;;;;;;;;;;;;;;;;;;;;;;;;;;;;"1242";"2014-10-11 13:02:33.929";"NST_correctLoc";"17";"1";"FINISHED";"RIGHT";"success";"404";"0";"2014-10-11 13:02:32.679";"2";;;;;;;;;;;;;;;;;;;;;
"cati123";"1965";;"Windows 7";"Rachel's Experiment (D.T.)";"1.0";"2";"1";"1";"2";"1";"1";"2014-10-11 12:53:00.358";"2014-10-11 13:14:23.580";"1";"0";"0";"142";"141";"module.training_block4.exec-3058.GoNoGo4";;;;;;;;;;;;;;;;;;;;;;;;;;;;;;;;;;;;;;;;;;;;;;;;;;;;;;;;;;;"1242";"2014-10-11 13:02:36.449";"NST_correctLoc";"15";"0";"FINISHED";"LEFT";"success";"382";"0";"2014-10-11 13:02:35.199";"2";;;;;;;;;;;;;;;;;;;;;
"cati123";"1965";;"Windows 7";"Rachel's Experiment (D.T.)";"1.0";"2";"1";"1";"2";"1";"1";"2014-10-11 12:53:00.358";"2014-10-11 13:14:23.580";"1";"0";"0";"143";"142";"module.training_block4.exec-3058.GoNoGo4";;;;;;;;;;;;;;;;;;;;;;;;;;;;;;;;;;;;;;;;;;;;;;;;;;;;;;;;;;;"1242";"2014-10-11 13:02:38.979";"NST_correctLoc";"13";"0";"FINISHED";"LEFT";"success";"500";"0";"2014-10-11 13:02:37.729";"2";;;;;;;;;;;;;;;;;;;;;
"cati123";"1965";;"Windows 7";"Rachel's Experiment (D.T.)";"1.0";"2";"1";"1";"2";"1";"1";"2014-10-11 12:53:00.358";"2014-10-11 13:14:23.580";"1";"0";"0";"144";"143";"module.training_block4.exec-3058.GoNoGo4";;;;;;;;;;;;;;;;;;;;;;;;;;;;;;;;;;;;;;;;;;;;;;;;;;;;;;;;;;;"1242";"2014-10-11 13:02:41.499";"NST_correctLoc";"20";"0";"FINISHED";"LEFT";"success";"395";"0";"2014-10-11 13:02:40.249";"3";;;;;;;;;;;;;;;;;;;;;
"cati123";"1965";;"Windows 7";"Rachel's Experiment (D.T.)";"1.0";"2";"1";"1";"2";"1";"1";"2014-10-11 12:53:00.358";"2014-10-11 13:14:23.580";"1";"0";"0";"145";"144";"module.training_block4.exec-3058.GoNoGo4";;;;;;;;;;;;;;;;;;;;;;;;;;;;;;;;;;;;;;;;;;;;;;;;;;;;;;;;;;;"1242";"2014-10-11 13:02:44.019";"NST_correctLoc";"19";"0";"FINISHED";"LEFT";"success";"399";"0";"2014-10-11 13:02:42.769";"3";;;;;;;;;;;;;;;;;;;;;
"cati123";"1965";;"Windows 7";"Rachel's Experiment (D.T.)";"1.0";"2";"1";"1";"2";"1";"1";"2014-10-11 12:53:00.358";"2014-10-11 13:14:23.580";"1";"0";"0";"146";"145";"module.training_block4.exec-3058.GoNoGo4";;;;;;;;;;;;;;;;;;;;;;;;;;;;;;;;;;;;;;;;;;;;;;;;;;;;;;;;;;;"1242";"2014-10-11 13:02:46.539";"NST_correctLoc";"21";"0";"FINISHED";"LEFT";"success";"397";"0";"2014-10-11 13:02:45.289";"3";;;;;;;;;;;;;;;;;;;;;
"cati123";"1965";;"Windows 7";"Rachel's Experiment (D.T.)";"1.0";"2";"1";"1";"2";"1";"1";"2014-10-11 12:53:00.358";"2014-10-11 13:14:23.580";"1";"0";"0";"147";"146";"module.training_block4.exec-3058.GoNoGo4";;;;;;;;;;;;;;;;;;;;;;;;;;;;;;;;;;;;;;;;;;;;;;;;;;;;;;;;;;;"1242";"2014-10-11 13:02:49.059";"NST_correctLoc";"29";"0";"FINISHED";"LEFT";"success";"372";"0";"2014-10-11 13:02:47.809";"3";;;;;;;;;;;;;;;;;;;;;
"cati123";"1965";;"Windows 7";"Rachel's Experiment (D.T.)";"1.0";"2";"1";"1";"2";"1";"1";"2014-10-11 12:53:00.358";"2014-10-11 13:14:23.580";"1";"0";"0";"148";"147";"module.training_block4.exec-3058.GoNoGo4";;;;;;;;;;;;;;;;;;;;;;;;;;;;;;;;;;;;;;;;;;;;;;;;;;;;;;;;;;;"1242";"2014-10-11 13:02:51.579";"NST_correctLoc";"32";"1";"FINISHED";"RIGHT";"success";"319";"0";"2014-10-11 13:02:50.329";"3";;;;;;;;;;;;;;;;;;;;;
"cati123";"1965";;"Windows 7";"Rachel's Experiment (D.T.)";"1.0";"2";"1";"1";"2";"1";"1";"2014-10-11 12:53:00.358";"2014-10-11 13:14:23.580";"1";"0";"0";"149";"148";"module.training_block4.exec-3058.GoNoGo4";;;;;;;;;;;;;;;;;;;;;;;;;;;;;;;;;;;;;;;;;;;;;;;;;;;;;;;;;;;"1242";"2014-10-11 13:02:54.099";"NST_correctLoc";"30";"1";"FINISHED";"RIGHT";"success";"363";"0";"2014-10-11 13:02:52.849";"3";;;;;;;;;;;;;;;;;;;;;
"cati123";"1965";;"Windows 7";"Rachel's Experiment (D.T.)";"1.0";"2";"1";"1";"2";"1";"1";"2014-10-11 12:53:00.358";"2014-10-11 13:14:23.580";"1";"0";"0";"150";"149";"module.training_block4.exec-3058.GoNoGo4";;;;;;;;;;;;;;;;;;;;;;;;;;;;;;;;;;;;;;;;;;;;;;;;;;;;;;;;;;;"1242";"2014-10-11 13:02:56.619";"NST_correctLoc";"5";"1";"FINISHED";"RIGHT";"success";"486";"0";"2014-10-11 13:02:55.369";"1";;;;;;;;;;;;;;;;;;;;;
"cati123";"1965";;"Windows 7";"Rachel's Experiment (D.T.)";"1.0";"2";"1";"1";"2";"1";"1";"2014-10-11 12:53:00.358";"2014-10-11 13:14:23.580";"1";"0";"0";"151";"150";"module.training_block4.exec-3058.GoNoGo4";;;;;;;;;;;;;;;;;;;;;;;;;;;;;;;;;;;;;;;;;;;;;;;;;;;;;;;;;;;"1242";"2014-10-11 13:02:59.139";"NST_correctLoc";"7";"0";"FINISHED";"LEFT";"success";"433";"0";"2014-10-11 13:02:57.889";"1";;;;;;;;;;;;;;;;;;;;;
"cati123";"1965";;"Windows 7";"Rachel's Experiment (D.T.)";"1.0";"2";"1";"1";"2";"1";"1";"2014-10-11 12:53:00.358";"2014-10-11 13:14:23.580";"1";"0";"0";"152";"151";"module.training_block4.exec-3058.GoNoGo4";;;;;;;;;;;;;;;;;;;;;;;;;;;;;;;;;;;;;;;;;;;;;;;;;;;;;;;;;;;"1242";"2014-10-11 13:03:01.669";"NST_correctLoc";"31";"1";"FINISHED";"RIGHT";"success";"355";"0";"2014-10-11 13:03:00.419";"3";;;;;;;;;;;;;;;;;;;;;
"cati123";"1965";;"Windows 7";"Rachel's Experiment (D.T.)";"1.0";"2";"1";"1";"2";"1";"1";"2014-10-11 12:53:00.358";"2014-10-11 13:14:23.580";"1";"0";"0";"153";"152";"module.training_block4.exec-3058.GoNoGo4";;;;;;;;;;;;;;;;;;;;;;;;;;;;;;;;;;;;;;;;;;;;;;;;;;;;;;;;;;;"1242";"2014-10-11 13:03:04.189";"NST_correctLoc";"24";"0";"FINISHED";"LEFT";"success";"447";"0";"2014-10-11 13:03:02.939";"3";;;;;;;;;;;;;;;;;;;;;
"cati123";"1965";;"Windows 7";"Rachel's Experiment (D.T.)";"1.0";"2";"1";"1";"2";"1";"1";"2014-10-11 12:53:00.358";"2014-10-11 13:14:23.580";"1";"0";"0";"154";"153";"module.training_block4.exec-3058.GoNoGo4";;;;;;;;;;;;;;;;;;;;;;;;;;;;;;;;;;;;;;;;;;;;;;;;;;;;;;;;;;;"1242";"2014-10-11 13:03:06.709";"NST_correctLoc";"16";"0";"FINISHED";"LEFT";"success";"430";"0";"2014-10-11 13:03:05.459";"2";;;;;;;;;;;;;;;;;;;;;
"cati123";"1965";;"Windows 7";"Rachel's Experiment (D.T.)";"1.0";"2";"1";"1";"2";"1";"1";"2014-10-11 12:53:00.358";"2014-10-11 13:14:23.580";"1";"0";"0";"155";"154";"module.training_block4.exec-3058.GoNoGo4";;;;;;;;;;;;;;;;;;;;;;;;;;;;;;;;;;;;;;;;;;;;;;;;;;;;;;;;;;;"1242";"2014-10-11 13:03:09.239";"NST_correctLoc";"0";"1";"FINISHED";"RIGHT";"success";"351";"0";"2014-10-11 13:03:07.989";"1";;;;;;;;;;;;;;;;;;;;;
"cati123";"1965";;"Windows 7";"Rachel's Experiment (D.T.)";"1.0";"2";"1";"1";"2";"1";"1";"2014-10-11 12:53:00.358";"2014-10-11 13:14:23.580";"1";"0";"0";"156";"155";"module.training_block4.exec-3058.GoNoGo4";;;;;;;;;;;;;;;;;;;;;;;;;;;;;;;;;;;;;;;;;;;;;;;;;;;;;;;;;;;"1242";"2014-10-11 13:03:11.759";"NST_correctLoc";"2";"1";"FINISHED";"RIGHT";"success";"363";"0";"2014-10-11 13:03:10.509";"1";;;;;;;;;;;;;;;;;;;;;
"cati123";"1965";;"Windows 7";"Rachel's Experiment (D.T.)";"1.0";"2";"1";"1";"2";"1";"1";"2014-10-11 12:53:00.358";"2014-10-11 13:14:23.580";"1";"0";"0";"157";"156";"module.training_block4.exec-3058.GoNoGo4";;;;;;;;;;;;;;;;;;;;;;;;;;;;;;;;;;;;;;;;;;;;;;;;;;;;;;;;;;;"1242";"2014-10-11 13:03:14.279";"NST_correctLoc";"33";"0";"FINISHED";"LEFT";"success";"484";"0";"2014-10-11 13:03:13.029";"3";;;;;;;;;;;;;;;;;;;;;
"cati123";"1965";;"Windows 7";"Rachel's Experiment (D.T.)";"1.0";"2";"1";"1";"2";"1";"1";"2014-10-11 12:53:00.358";"2014-10-11 13:14:23.580";"1";"0";"0";"158";"157";"module.training_block4.exec-3058.GoNoGo4";;;;;;;;;;;;;;;;;;;;;;;;;;;;;;;;;;;;;;;;;;;;;;;;;;;;;;;;;;;"1242";"2014-10-11 13:03:16.799";"NST_correctLoc";"1";"1";"FINISHED";"RIGHT";"success";"380";"0";"2014-10-11 13:03:15.549";"1";;;;;;;;;;;;;;;;;;;;;
"cati123";"1965";;"Windows 7";"Rachel's Experiment (D.T.)";"1.0";"2";"1";"1";"2";"1";"1";"2014-10-11 12:53:00.358";"2014-10-11 13:14:23.580";"1";"0";"0";"159";"158";"module.training_block4.exec-3058.GoNoGo4";;;;;;;;;;;;;;;;;;;;;;;;;;;;;;;;;;;;;;;;;;;;;;;;;;;;;;;;;;;"1242";"2014-10-11 13:03:19.319";"NST_correctLoc";"11";"1";"FINISHED";"RIGHT";"success";"366";"0";"2014-10-11 13:03:18.069";"2";;;;;;;;;;;;;;;;;;;;;
"cati123";"1965";;"Windows 7";"Rachel's Experiment (D.T.)";"1.0";"2";"1";"1";"2";"1";"1";"2014-10-11 12:53:00.358";"2014-10-11 13:14:23.580";"1";"0";"0";"160";"159";"module.devaluation_practice.exec-7113.devalPractice";;;;;;;;;;;;"37577";"2014-10-11 13:04:59.939";"0";"3";"3";"4";"9736";"8255";"16501";"2014-10-11 13:04:22.359";;;;;;;;;;;;;;;;;;;;;;;;;;;;;;;;;;;;;;;;;;;;;;;;;;;;;;;;;;;;;;;;;;;;;;
"cati123";"1965";;"Windows 7";"Rachel's Experiment (D.T.)";"1.0";"2";"1";"1";"2";"1";"1";"2014-10-11 12:53:00.358";"2014-10-11 13:14:23.580";"1";"0";"0";"161";"160";"module.devaluation_practice.exec-7113.devalPractice";;;;;;;;;;;;"19811";"2014-10-11 13:05:19.809";"1";"9";"5";"9";"8830";"3057";"4888";"2014-10-11 13:04:59.999";;;;;;;;;;;;;;;;;;;;;;;;;;;;;;;;;;;;;;;;;;;;;;;;;;;;;;;;;;;;;;;;;;;;;;
"cati123";"1965";;"Windows 7";"Rachel's Experiment (D.T.)";"1.0";"2";"1";"1";"2";"1";"1";"2014-10-11 12:53:00.358";"2014-10-11 13:14:23.580";"1";"0";"0";"162";"161";"module.devaluation_practice.exec-7113.devalPractice";;;;;;;;;;;;"33059";"2014-10-11 13:05:52.909";"2";"3";"2";"5";"17678";"9081";"3283";"2014-10-11 13:05:19.849";;;;;;;;;;;;;;;;;;;;;;;;;;;;;;;;;;;;;;;;;;;;;;;;;;;;;;;;;;;;;;;;;;;;;;
"cati123";"1965";;"Windows 7";"Rachel's Experiment (D.T.)";"1.0";"2";"1";"1";"2";"1";"1";"2014-10-11 12:53:00.358";"2014-10-11 13:14:23.580";"1";"0";"0";"163";"162";"module.devaluation_practice.exec-7113.devalPractice";;;;;;;;;;;;"14150";"2014-10-11 13:06:07.099";"3";"6";"5";"5";"4898";"4433";"1803";"2014-10-11 13:05:52.949";;;;;;;;;;;;;;;;;;;;;;;;;;;;;;;;;;;;;;;;;;;;;;;;;;;;;;;;;;;;;;;;;;;;;;
"cati123";"1965";;"Windows 7";"Rachel's Experiment (D.T.)";"1.0";"2";"1";"1";"2";"1";"1";"2014-10-11 12:53:00.358";"2014-10-11 13:14:23.580";"1";"0";"0";"164";"163";"module.devaluation_block1.exec-8180.deval1";"24696";"2014-10-11 13:06:46.859";"26";"8";"7";"5";"5152";"12734";"3762";"2014-10-11 13:06:22.169";"3";;;;;;;;;;;;;;;;;;;;;;;;;;;;;;;;;;;;;;;;;;;;;;;;;;;;;;;;;;;;;;;;;;;;;;;;;;;;;;;;
"cati123";"1965";;"Windows 7";"Rachel's Experiment (D.T.)";"1.0";"2";"1";"1";"2";"1";"1";"2014-10-11 12:53:00.358";"2014-10-11 13:14:23.580";"1";"0";"0";"165";"164";"module.devaluation_block1.exec-8180.deval1";"20363";"2014-10-11 13:07:07.269";"4";"3";"2";"3";"7547";"4090";"5705";"2014-10-11 13:06:46.899";"1";;;;;;;;;;;;;;;;;;;;;;;;;;;;;;;;;;;;;;;;;;;;;;;;;;;;;;;;;;;;;;;;;;;;;;;;;;;;;;;;
"cati123";"1965";;"Windows 7";"Rachel's Experiment (D.T.)";"1.0";"2";"1";"1";"2";"1";"1";"2014-10-11 12:53:00.358";"2014-10-11 13:14:23.580";"1";"0";"0";"166";"165";"module.devaluation_block1.exec-8180.deval1";"29402";"2014-10-11 13:07:36.710";"1";"2";"2";"5";"14331";"5791";"6236";"2014-10-11 13:07:07.309";"1";;;;;;;;;;;;;;;;;;;;;;;;;;;;;;;;;;;;;;;;;;;;;;;;;;;;;;;;;;;;;;;;;;;;;;;;;;;;;;;;
"cati123";"1965";;"Windows 7";"Rachel's Experiment (D.T.)";"1.0";"2";"1";"1";"2";"1";"1";"2014-10-11 12:53:00.358";"2014-10-11 13:14:23.580";"1";"0";"0";"167";"166";"module.devaluation_block1.exec-8180.deval1";"19764";"2014-10-11 13:07:56.520";"8";"2";"1";"3";"6880";"4059";"5797";"2014-10-11 13:07:36.750";"1";;;;;;;;;;;;;;;;;;;;;;;;;;;;;;;;;;;;;;;;;;;;;;;;;;;;;;;;;;;;;;;;;;;;;;;;;;;;;;;;
"cati123";"1965";;"Windows 7";"Rachel's Experiment (D.T.)";"1.0";"2";"1";"1";"2";"1";"1";"2014-10-11 12:53:00.358";"2014-10-11 13:14:23.580";"1";"0";"0";"168";"167";"module.devaluation_block1.exec-8180.deval1";"17880";"2014-10-11 13:08:14.440";"15";"2";"1";"2";"7176";"4760";"2911";"2014-10-11 13:07:56.560";"2";;;;;;;;;;;;;;;;;;;;;;;;;;;;;;;;;;;;;;;;;;;;;;;;;;;;;;;;;;;;;;;;;;;;;;;;;;;;;;;;
"cati123";"1965";;"Windows 7";"Rachel's Experiment (D.T.)";"1.0";"2";"1";"1";"2";"1";"1";"2014-10-11 12:53:00.358";"2014-10-11 13:14:23.580";"1";"0";"0";"169";"168";"module.devaluation_block1.exec-8180.deval1";"13538";"2014-10-11 13:08:28.020";"22";"2";"1";"2";"3181";"2951";"4384";"2014-10-11 13:08:14.480";"3";;;;;;;;;;;;;;;;;;;;;;;;;;;;;;;;;;;;;;;;;;;;;;;;;;;;;;;;;;;;;;;;;;;;;;;;;;;;;;;;
"cati123";"1965";;"Windows 7";"Rachel's Experiment (D.T.)";"1.0";"2";"1";"1";"2";"1";"1";"2014-10-11 12:53:00.358";"2014-10-11 13:14:23.580";"1";"0";"0";"170";"169";"module.devaluation_block1.exec-8180.deval1";"31820";"2014-10-11 13:08:59.880";"23";"7";"8";"7";"12377";"7194";"9220";"2014-10-11 13:08:28.060";"3";;;;;;;;;;;;;;;;;;;;;;;;;;;;;;;;;;;;;;;;;;;;;;;;;;;;;;;;;;;;;;;;;;;;;;;;;;;;;;;;
"cati123";"1965";;"Windows 7";"Rachel's Experiment (D.T.)";"1.0";"2";"1";"1";"2";"1";"1";"2014-10-11 12:53:00.358";"2014-10-11 13:14:23.580";"1";"0";"0";"171";"170";"module.devaluation_block1.exec-8180.deval1";"14390";"2014-10-11 13:09:14.320";"7";"1";"1";"1";"4316";"4074";"2970";"2014-10-11 13:08:59.930";"1";;;;;;;;;;;;;;;;;;;;;;;;;;;;;;;;;;;;;;;;;;;;;;;;;;;;;;;;;;;;;;;;;;;;;;;;;;;;;;;;
"cati123";"1965";;"Windows 7";"Rachel's Experiment (D.T.)";"1.0";"2";"1";"1";"2";"1";"1";"2014-10-11 12:53:00.358";"2014-10-11 13:14:23.580";"1";"0";"0";"172";"171";"module.devaluation_block1.exec-8180.deval1";"18889";"2014-10-11 13:09:33.250";"18";"3";"1";"4";"8793";"5255";"1825";"2014-10-11 13:09:14.360";"3";;;;;;;;;;;;;;;;;;;;;;;;;;;;;;;;;;;;;;;;;;;;;;;;;;;;;;;;;;;;;;;;;;;;;;;;;;;;;;;;
"cati123";"1965";;"Windows 7";"Rachel's Experiment (D.T.)";"1.0";"2";"1";"1";"2";"1";"1";"2014-10-11 12:53:00.358";"2014-10-11 13:14:23.580";"1";"0";"0";"173";"172";"module.devaluation_block1.exec-8180.deval1";"18141";"2014-10-11 13:09:51.440";"25";"6";"6";"7";"5808";"4813";"4488";"2014-10-11 13:09:33.300";"3";;;;;;;;;;;;;;;;;;;;;;;;;;;;;;;;;;;;;;;;;;;;;;;;;;;;;;;;;;;;;;;;;;;;;;;;;;;;;;;;
"cati123";"1965";;"Windows 7";"Rachel's Experiment (D.T.)";"1.0";"2";"1";"1";"2";"1";"1";"2014-10-11 12:53:00.358";"2014-10-11 13:14:23.580";"1";"0";"0";"174";"173";"module.devaluation_block1.exec-8180.deval1";"16393";"2014-10-11 13:10:07.870";"16";"1";"1";"2";"6766";"3216";"3390";"2014-10-11 13:09:51.480";"2";;;;;;;;;;;;;;;;;;;;;;;;;;;;;;;;;;;;;;;;;;;;;;;;;;;;;;;;;;;;;;;;;;;;;;;;;;;;;;;;
"cati123";"1965";;"Windows 7";"Rachel's Experiment (D.T.)";"1.0";"2";"1";"1";"2";"1";"1";"2014-10-11 12:53:00.358";"2014-10-11 13:14:23.580";"1";"0";"0";"175";"174";"module.devaluation_block1.exec-8180.deval1";"15266";"2014-10-11 13:10:23.180";"6";"3";"4";"4";"5855";"2185";"4204";"2014-10-11 13:10:07.910";"1";;;;;;;;;;;;;;;;;;;;;;;;;;;;;;;;;;;;;;;;;;;;;;;;;;;;;;;;;;;;;;;;;;;;;;;;;;;;;;;;
"cati123";"1965";;"Windows 7";"Rachel's Experiment (D.T.)";"1.0";"2";"1";"1";"2";"1";"1";"2014-10-11 12:53:00.358";"2014-10-11 13:14:23.580";"1";"0";"0";"176";"175";"module.devaluation_block1.exec-8180.deval1";"19985";"2014-10-11 13:10:43.210";"14";"8";"8";"8";"6796";"5731";"4436";"2014-10-11 13:10:23.220";"2";;;;;;;;;;;;;;;;;;;;;;;;;;;;;;;;;;;;;;;;;;;;;;;;;;;;;;;;;;;;;;;;;;;;;;;;;;;;;;;;
"cati123";"1965";;"Windows 7";"Rachel's Experiment (D.T.)";"1.0";"2";"1";"1";"2";"1";"1";"2014-10-11 12:53:00.358";"2014-10-11 13:14:23.580";"1";"0";"0";"177";"176";"module.devaluation_block1.exec-8180.deval1";"11283";"2014-10-11 13:10:54.530";"24";"1";"1";"1";"2991";"1574";"3687";"2014-10-11 13:10:43.250";"3";;;;;;;;;;;;;;;;;;;;;;;;;;;;;;;;;;;;;;;;;;;;;;;;;;;;;;;;;;;;;;;;;;;;;;;;;;;;;;;;
"cati123";"1965";;"Windows 7";"Rachel's Experiment (D.T.)";"1.0";"2";"1";"1";"2";"1";"1";"2014-10-11 12:53:00.358";"2014-10-11 13:14:23.580";"1";"0";"0";"178";"177";"module.devaluation_block1.exec-8180.deval1";"22748";"2014-10-11 13:11:17.320";"0";"2";"4";"6";"12323";"3380";"4017";"2014-10-11 13:10:54.570";"1";;;;;;;;;;;;;;;;;;;;;;;;;;;;;;;;;;;;;;;;;;;;;;;;;;;;;;;;;;;;;;;;;;;;;;;;;;;;;;;;
"cati123";"1965";;"Windows 7";"Rachel's Experiment (D.T.)";"1.0";"2";"1";"1";"2";"1";"1";"2014-10-11 12:53:00.358";"2014-10-11 13:14:23.580";"1";"0";"0";"179";"178";"module.devaluation_block1.exec-8180.deval1";"25621";"2014-10-11 13:11:42.980";"9";"7";"6";"7";"4275";"8655";"9666";"2014-10-11 13:11:17.360";"2";;;;;;;;;;;;;;;;;;;;;;;;;;;;;;;;;;;;;;;;;;;;;;;;;;;;;;;;;;;;;;;;;;;;;;;;;;;;;;;;
"cati123";"1965";;"Windows 7";"Rachel's Experiment (D.T.)";"1.0";"2";"1";"1";"2";"1";"1";"2014-10-11 12:53:00.358";"2014-10-11 13:14:23.580";"1";"0";"0";"180";"179";"module.devaluation_block1.exec-8180.deval1";"15376";"2014-10-11 13:11:58.400";"5";"4";"8";"8";"4087";"2260";"6002";"2014-10-11 13:11:43.020";"1";;;;;;;;;;;;;;;;;;;;;;;;;;;;;;;;;;;;;;;;;;;;;;;;;;;;;;;;;;;;;;;;;;;;;;;;;;;;;;;;
"cati123";"1965";;"Windows 7";"Rachel's Experiment (D.T.)";"1.0";"2";"1";"1";"2";"1";"1";"2014-10-11 12:53:00.358";"2014-10-11 13:14:23.580";"1";"0";"0";"181";"180";"module.devaluation_block1.exec-8180.deval1";"12087";"2014-10-11 13:12:10.530";"3";"6";"7";"7";"2644";"2449";"3969";"2014-10-11 13:11:58.440";"1";;;;;;;;;;;;;;;;;;;;;;;;;;;;;;;;;;;;;;;;;;;;;;;;;;;;;;;;;;;;;;;;;;;;;;;;;;;;;;;;
"cati123";"1965";;"Windows 7";"Rachel's Experiment (D.T.)";"1.0";"2";"1";"1";"2";"1";"1";"2014-10-11 12:53:00.358";"2014-10-11 13:14:23.580";"1";"0";"0";"182";"181";"module.devaluation_block1.exec-8180.deval1";"16672";"2014-10-11 13:12:27.240";"10";"9";"9";"9";"5446";"2768";"5436";"2014-10-11 13:12:10.570";"2";;;;;;;;;;;;;;;;;;;;;;;;;;;;;;;;;;;;;;;;;;;;;;;;;;;;;;;;;;;;;;;;;;;;;;;;;;;;;;;;
"cati123";"1965";;"Windows 7";"Rachel's Experiment (D.T.)";"1.0";"2";"1";"1";"2";"1";"1";"2014-10-11 12:53:00.358";"2014-10-11 13:14:23.580";"1";"0";"0";"183";"182";"module.devaluation_block1.exec-8180.deval1";"11286";"2014-10-11 13:12:38.570";"17";"2";"2";"3";"3932";"2005";"2318";"2014-10-11 13:12:27.290";"2";;;;;;;;;;;;;;;;;;;;;;;;;;;;;;;;;;;;;;;;;;;;;;;;;;;;;;;;;;;;;;;;;;;;;;;;;;;;;;;;
"cati123";"1965";;"Windows 7";"Rachel's Experiment (D.T.)";"1.0";"2";"1";"1";"2";"1";"1";"2014-10-11 12:53:00.358";"2014-10-11 13:14:23.580";"1";"0";"0";"184";"183";"module.devaluation_block1.exec-8180.deval1";"13100";"2014-10-11 13:12:51.710";"12";"5";"8";"9";"1836";"2317";"5922";"2014-10-11 13:12:38.610";"2";;;;;;;;;;;;;;;;;;;;;;;;;;;;;;;;;;;;;;;;;;;;;;;;;;;;;;;;;;;;;;;;;;;;;;;;;;;;;;;;
"cati123";"1965";;"Windows 7";"Rachel's Experiment (D.T.)";"1.0";"2";"1";"1";"2";"1";"1";"2014-10-11 12:53:00.358";"2014-10-11 13:14:23.580";"1";"0";"0";"185";"184";"module.devaluation_block1.exec-8180.deval1";"16981";"2014-10-11 13:13:08.740";"21";"3";"2";"3";"4819";"3470";"5673";"2014-10-11 13:12:51.750";"3";;;;;;;;;;;;;;;;;;;;;;;;;;;;;;;;;;;;;;;;;;;;;;;;;;;;;;;;;;;;;;;;;;;;;;;;;;;;;;;;
"cati123";"1965";;"Windows 7";"Rachel's Experiment (D.T.)";"1.0";"2";"1";"1";"2";"1";"1";"2014-10-11 12:53:00.358";"2014-10-11 13:14:23.580";"1";"0";"0";"186";"185";"module.devaluation_block1.exec-8180.deval1";"12137";"2014-10-11 13:13:20.920";"20";"1";"1";"2";"5018";"1649";"2445";"2014-10-11 13:13:08.780";"3";;;;;;;;;;;;;;;;;;;;;;;;;;;;;;;;;;;;;;;;;;;;;;;;;;;;;;;;;;;;;;;;;;;;;;;;;;;;;;;;
"cati123";"1965";;"Windows 7";"Rachel's Experiment (D.T.)";"1.0";"2";"1";"1";"2";"1";"1";"2014-10-11 12:53:00.358";"2014-10-11 13:14:23.580";"1";"0";"0";"187";"186";"module.devaluation_block1.exec-8180.deval1";"10893";"2014-10-11 13:13:31.850";"13";"9";"5";"9";"4014";"1059";"2797";"2014-10-11 13:13:20.950";"2";;;;;;;;;;;;;;;;;;;;;;;;;;;;;;;;;;;;;;;;;;;;;;;;;;;;;;;;;;;;;;;;;;;;;;;;;;;;;;;;
"cati123";"1965";;"Windows 7";"Rachel's Experiment (D.T.)";"1.0";"2";"1";"1";"2";"1";"1";"2014-10-11 12:53:00.358";"2014-10-11 13:14:23.580";"1";"0";"0";"188";"187";"module.devaluation_block1.exec-8180.deval1";"19198";"2014-10-11 13:13:51.090";"2";"2";"6";"6";"10340";"3590";"2234";"2014-10-11 13:13:31.890";"1";;;;;;;;;;;;;;;;;;;;;;;;;;;;;;;;;;;;;;;;;;;;;;;;;;;;;;;;;;;;;;;;;;;;;;;;;;;;;;;;
"cati123";"1965";;"Windows 7";"Rachel's Experiment (D.T.)";"1.0";"2";"1";"1";"2";"1";"1";"2014-10-11 12:53:00.358";"2014-10-11 13:14:23.580";"1";"0";"0";"189";"188";"module.devaluation_block1.exec-8180.deval1";"12930";"2014-10-11 13:14:04.060";"19";"5";"3";"5";"3800";"3322";"2784";"2014-10-11 13:13:51.130";"3";;;;;;;;;;;;;;;;;;;;;;;;;;;;;;;;;;;;;;;;;;;;;;;;;;;;;;;;;;;;;;;;;;;;;;;;;;;;;;;;
"cati123";"1965";;"Windows 7";"Rachel's Experiment (D.T.)";"1.0";"2";"1";"1";"2";"1";"1";"2014-10-11 12:53:00.358";"2014-10-11 13:14:23.580";"1";"0";"0";"190";"189";"module.devaluation_block1.exec-8180.deval1";"13429";"2014-10-11 13:14:17.530";"11";"9";"5";"9";"4416";"1694";"4306";"2014-10-11 13:14:04.100";"2";;;;;;;;;;;;;;;;;;;;;;;;;;;;;;;;;;;;;;;;;;;;;;;;;;;;;;;;;;;;;;;;;;;;;;;;;;;;;;;;
