"user.name";"user.yearOfBirth";"user.sex";"user.osName";"module.name";"module.version";"module.online.subject.code";"module.online.study.id";"module.online.module.nr";"module.online.group.nr";"session.id";"session.index";"session.startTime";"session.endTime";"session.completed";"session.node-1899.DevalQorder";"session.node-5615.conditionType";"trial.id";"trial.index";"trial.name";"trial.deval1.durationTime";"trial.deval1.endTime";"trial.deval1.icon";"trial.deval1.Resp_Attractive";"trial.deval1.Resp_Eat";"trial.deval1.Resp_Taste";"trial.deval1.RT_Attractive";"trial.deval1.RT_Eat";"trial.deval1.RT_Taste";"trial.deval1.startTime";"trial.deval1.stimulus type";"trial.devalPractice.durationTime";"trial.devalPractice.endTime";"trial.devalPractice.icon";"trial.devalPractice.Resp_Attractive";"trial.devalPractice.Resp_Eat";"trial.devalPractice.Resp_Taste";"trial.devalPractice.RT_Attractive";"trial.devalPractice.RT_Eat";"trial.devalPractice.RT_Taste";"trial.devalPractice.startTime";"trial.devalPractice.stimulus type";"trial.GoNoGo1.durationTime";"trial.GoNoGo1.endTime";"trial.GoNoGo1.Error Type";"trial.GoNoGo1.icon";"trial.GoNoGo1.location";"trial.GoNoGo1.outcome";"trial.GoNoGo1.response";"trial.GoNoGo1.result";"trial.GoNoGo1.RT";"trial.GoNoGo1.signal";"trial.GoNoGo1.startTime";"trial.GoNoGo1.stimulus type";"trial.GoNoGo2.durationTime";"trial.GoNoGo2.endTime";"trial.GoNoGo2.Error Type";"trial.GoNoGo2.icon";"trial.GoNoGo2.location";"trial.GoNoGo2.outcome";"trial.GoNoGo2.response";"trial.GoNoGo2.result";"trial.GoNoGo2.RT";"trial.GoNoGo2.signal";"trial.GoNoGo2.startTime";"trial.GoNoGo2.stimulus type";"trial.GoNoGo3.durationTime";"trial.GoNoGo3.endTime";"trial.GoNoGo3.Error Type";"trial.GoNoGo3.icon";"trial.GoNoGo3.location";"trial.GoNoGo3.outcome";"trial.GoNoGo3.response";"trial.GoNoGo3.result";"trial.GoNoGo3.RT";"trial.GoNoGo3.signal";"trial.GoNoGo3.startTime";"trial.GoNoGo3.stimulus type";"trial.GoNoGo4.durationTime";"trial.GoNoGo4.endTime";"trial.GoNoGo4.Error Type";"trial.GoNoGo4.icon";"trial.GoNoGo4.location";"trial.GoNoGo4.outcome";"trial.GoNoGo4.response";"trial.GoNoGo4.result";"trial.GoNoGo4.RT";"trial.GoNoGo4.signal";"trial.GoNoGo4.startTime";"trial.GoNoGo4.stimulus type";"trial.GoNoGo_Practice.durationTime";"trial.GoNoGo_Practice.endTime";"trial.GoNoGo_Practice.icon";"trial.GoNoGo_Practice.location";"trial.GoNoGo_Practice.outcome";"trial.GoNoGo_Practice.response";"trial.GoNoGo_Practice.result";"trial.GoNoGo_Practice.RT";"trial.GoNoGo_Practice.signal";"trial.GoNoGo_Practice.startTime";"trial.GoNoGo_Practice.stimulus type";"trial.GoNoGo_Tutorial.durationTime";"trial.GoNoGo_Tutorial.endTime";"trial.GoNoGo_Tutorial.icon";"trial.GoNoGo_Tutorial.location";"trial.GoNoGo_Tutorial.outcome";"trial.GoNoGo_Tutorial.response";"trial.GoNoGo_Tutorial.result";"trial.GoNoGo_Tutorial.RT";"trial.GoNoGo_Tutorial.signal";"trial.GoNoGo_Tutorial.startTime"
"snake";"1994";;"Windows 7";"Rachel's Experiment (D.T.)";"1.0";"2";"1";"1";"2";"1";"1";"2014-10-13 12:53:59.924";"2014-10-13 13:07:04.730";"1";"0";"1";"1";"0";"module.GoNoGotutorial.exec-9932.GoNoGo_Tutorial";;;;;;;;;;;;;;;;;;;;;;;;;;;;;;;;;;;;;;;;;;;;;;;;;;;;;;;;;;;;;;;;;;;;;;;;;;;;;;;;;;"3999";"2014-10-13 12:55:30.451";"leftResponse";"0";"FINISHED";"LEFT";"success";"1027";"0";"2014-10-13 12:55:26.442"
"snake";"1994";;"Windows 7";"Rachel's Experiment (D.T.)";"1.0";"2";"1";"1";"2";"1";"1";"2014-10-13 12:53:59.924";"2014-10-13 13:07:04.730";"1";"0";"1";"2";"1";"module.GoNoGotutorial.exec-9932.GoNoGo_Tutorial";;;;;;;;;;;;;;;;;;;;;;;;;;;;;;;;;;;;;;;;;;;;;;;;;;;;;;;;;;;;;;;;;;;;;;;;;;;;;;;;;;"4003";"2014-10-13 12:55:35.755";"rightResponse";"1";"FINISHED";"NONE";"failure";"0";"0";"2014-10-13 12:55:31.746"
"snake";"1994";;"Windows 7";"Rachel's Experiment (D.T.)";"1.0";"2";"1";"1";"2";"1";"1";"2014-10-13 12:53:59.924";"2014-10-13 13:07:04.730";"1";"0";"1";"3";"2";"module.GoNoGotutorial.exec-9932.GoNoGo_Tutorial";;;;;;;;;;;;;;;;;;;;;;;;;;;;;;;;;;;;;;;;;;;;;;;;;;;;;;;;;;;;;;;;;;;;;;;;;;;;;;;;;;"4003";"2014-10-13 12:55:41.059";"signalResponse";"0";"FINISHED";"NONE";"success";"0";"1";"2014-10-13 12:55:37.050"
"snake";"1994";;"Windows 7";"Rachel's Experiment (D.T.)";"1.0";"2";"1";"1";"2";"1";"1";"2014-10-13 12:53:59.924";"2014-10-13 13:07:04.730";"1";"0";"1";"4";"3";"module.GoNoGopractice.exec-4145.GoNoGo_Practice";;;;;;;;;;;;;;;;;;;;;;;;;;;;;;;;;;;;;;;;;;;;;;;;;;;;;;;;;;;;;;;;;;;;;;;"1959";"2014-10-13 12:55:48.500";"18";"0";"FINISHED";"LEFT";"success";"458";"0";"2014-10-13 12:55:46.535";"3";;;;;;;;;;
"snake";"1994";;"Windows 7";"Rachel's Experiment (D.T.)";"1.0";"2";"1";"1";"2";"1";"1";"2014-10-13 12:53:59.924";"2014-10-13 13:07:04.730";"1";"0";"1";"5";"4";"module.GoNoGopractice.exec-4145.GoNoGo_Practice";;;;;;;;;;;;;;;;;;;;;;;;;;;;;;;;;;;;;;;;;;;;;;;;;;;;;;;;;;;;;;;;;;;;;;;"1959";"2014-10-13 12:55:51.761";"21";"1";"FINISHED";"RIGHT";"success";"390";"0";"2014-10-13 12:55:49.795";"3";;;;;;;;;;
"snake";"1994";;"Windows 7";"Rachel's Experiment (D.T.)";"1.0";"2";"1";"1";"2";"1";"1";"2014-10-13 12:53:59.924";"2014-10-13 13:07:04.730";"1";"0";"1";"6";"5";"module.GoNoGopractice.exec-4145.GoNoGo_Practice";;;;;;;;;;;;;;;;;;;;;;;;;;;;;;;;;;;;;;;;;;;;;;;;;;;;;;;;;;;;;;;;;;;;;;;"1958";"2014-10-13 12:55:55.005";"14";"1";"FINISHED";"RIGHT";"failure";"489";"1";"2014-10-13 12:55:53.040";"2";;;;;;;;;;
"snake";"1994";;"Windows 7";"Rachel's Experiment (D.T.)";"1.0";"2";"1";"1";"2";"1";"1";"2014-10-13 12:53:59.924";"2014-10-13 13:07:04.730";"1";"0";"1";"7";"6";"module.GoNoGopractice.exec-4145.GoNoGo_Practice";;;;;;;;;;;;;;;;;;;;;;;;;;;;;;;;;;;;;;;;;;;;;;;;;;;;;;;;;;;;;;;;;;;;;;;"1959";"2014-10-13 12:55:58.250";"26";"0";"FINISHED";"LEFT";"success";"405";"0";"2014-10-13 12:55:56.285";"3";;;;;;;;;;
"snake";"1994";;"Windows 7";"Rachel's Experiment (D.T.)";"1.0";"2";"1";"1";"2";"1";"1";"2014-10-13 12:53:59.924";"2014-10-13 13:07:04.730";"1";"0";"1";"8";"7";"module.GoNoGopractice.exec-4145.GoNoGo_Practice";;;;;;;;;;;;;;;;;;;;;;;;;;;;;;;;;;;;;;;;;;;;;;;;;;;;;;;;;;;;;;;;;;;;;;;"1959";"2014-10-13 12:56:01.495";"2";"0";"FINISHED";"LEFT";"success";"456";"0";"2014-10-13 12:55:59.529";"1";;;;;;;;;;
"snake";"1994";;"Windows 7";"Rachel's Experiment (D.T.)";"1.0";"2";"1";"1";"2";"1";"1";"2014-10-13 12:53:59.924";"2014-10-13 13:07:04.730";"1";"0";"1";"9";"8";"module.GoNoGopractice.exec-4145.GoNoGo_Practice";;;;;;;;;;;;;;;;;;;;;;;;;;;;;;;;;;;;;;;;;;;;;;;;;;;;;;;;;;;;;;;;;;;;;;;"1960";"2014-10-13 12:56:04.740";"30";"0";"FINISHED";"NONE";"success";"0";"1";"2014-10-13 12:56:02.774";"3";;;;;;;;;;
"snake";"1994";;"Windows 7";"Rachel's Experiment (D.T.)";"1.0";"2";"1";"1";"2";"1";"1";"2014-10-13 12:53:59.924";"2014-10-13 13:07:04.730";"1";"0";"1";"10";"9";"module.GoNoGopractice.exec-4145.GoNoGo_Practice";;;;;;;;;;;;;;;;;;;;;;;;;;;;;;;;;;;;;;;;;;;;;;;;;;;;;;;;;;;;;;;;;;;;;;;"1953";"2014-10-13 12:56:07.985";"6";"1";"FINISHED";"RIGHT";"failure";"464";"1";"2014-10-13 12:56:06.019";"1";;;;;;;;;;
"snake";"1994";;"Windows 7";"Rachel's Experiment (D.T.)";"1.0";"2";"1";"1";"2";"1";"1";"2014-10-13 12:53:59.924";"2014-10-13 13:07:04.730";"1";"0";"1";"11";"10";"module.GoNoGopractice.exec-4145.GoNoGo_Practice";;;;;;;;;;;;;;;;;;;;;;;;;;;;;;;;;;;;;;;;;;;;;;;;;;;;;;;;;;;;;;;;;;;;;;;"1960";"2014-10-13 12:56:11.229";"34";"0";"FINISHED";"LEFT";"success";"418";"0";"2014-10-13 12:56:09.264";"3";;;;;;;;;;
"snake";"1994";;"Windows 7";"Rachel's Experiment (D.T.)";"1.0";"2";"1";"1";"2";"1";"1";"2014-10-13 12:53:59.924";"2014-10-13 13:07:04.730";"1";"0";"1";"12";"11";"module.GoNoGopractice.exec-4145.GoNoGo_Practice";;;;;;;;;;;;;;;;;;;;;;;;;;;;;;;;;;;;;;;;;;;;;;;;;;;;;;;;;;;;;;;;;;;;;;;"1959";"2014-10-13 12:56:14.474";"23";"1";"FINISHED";"RIGHT";"success";"420";"0";"2014-10-13 12:56:12.509";"3";;;;;;;;;;
"snake";"1994";;"Windows 7";"Rachel's Experiment (D.T.)";"1.0";"2";"1";"1";"2";"1";"1";"2014-10-13 12:53:59.924";"2014-10-13 13:07:04.730";"1";"0";"1";"13";"12";"module.GoNoGopractice.exec-4145.GoNoGo_Practice";;;;;;;;;;;;;;;;;;;;;;;;;;;;;;;;;;;;;;;;;;;;;;;;;;;;;;;;;;;;;;;;;;;;;;;"1959";"2014-10-13 12:56:17.719";"13";"0";"FINISHED";"NONE";"success";"0";"1";"2014-10-13 12:56:15.753";"2";;;;;;;;;;
"snake";"1994";;"Windows 7";"Rachel's Experiment (D.T.)";"1.0";"2";"1";"1";"2";"1";"1";"2014-10-13 12:53:59.924";"2014-10-13 13:07:04.730";"1";"0";"1";"14";"13";"module.GoNoGopractice.exec-4145.GoNoGo_Practice";;;;;;;;;;;;;;;;;;;;;;;;;;;;;;;;;;;;;;;;;;;;;;;;;;;;;;;;;;;;;;;;;;;;;;;"1960";"2014-10-13 12:56:20.964";"3";"1";"FINISHED";"RIGHT";"success";"428";"0";"2014-10-13 12:56:18.998";"1";;;;;;;;;;
"snake";"1994";;"Windows 7";"Rachel's Experiment (D.T.)";"1.0";"2";"1";"1";"2";"1";"1";"2014-10-13 12:53:59.924";"2014-10-13 13:07:04.730";"1";"0";"1";"15";"14";"module.GoNoGopractice.exec-4145.GoNoGo_Practice";;;;;;;;;;;;;;;;;;;;;;;;;;;;;;;;;;;;;;;;;;;;;;;;;;;;;;;;;;;;;;;;;;;;;;;"1959";"2014-10-13 12:56:24.209";"27";"1";"FINISHED";"NONE";"success";"0";"1";"2014-10-13 12:56:22.243";"3";;;;;;;;;;
"snake";"1994";;"Windows 7";"Rachel's Experiment (D.T.)";"1.0";"2";"1";"1";"2";"1";"1";"2014-10-13 12:53:59.924";"2014-10-13 13:07:04.730";"1";"0";"1";"16";"15";"module.training_block1.exec-4124.GoNoGo1";;;;;;;;;;;;;;;;;;;;;;;"1256";"2014-10-13 12:56:32.976";"ST_correctStop";"8";"0";"FINISHED";"NONE";"success";"0";"1";"2014-10-13 12:56:31.712";"1";;;;;;;;;;;;;;;;;;;;;;;;;;;;;;;;;;;;;;;;;;;;;;;;;;;;;;;;;
"snake";"1994";;"Windows 7";"Rachel's Experiment (D.T.)";"1.0";"2";"1";"1";"2";"1";"1";"2014-10-13 12:53:59.924";"2014-10-13 13:07:04.730";"1";"0";"1";"17";"16";"module.training_block1.exec-4124.GoNoGo1";;;;;;;;;;;;;;;;;;;;;;;"1258";"2014-10-13 12:56:35.519";"ST_correctStop";"1";"0";"FINISHED";"NONE";"success";"0";"1";"2014-10-13 12:56:34.255";"1";;;;;;;;;;;;;;;;;;;;;;;;;;;;;;;;;;;;;;;;;;;;;;;;;;;;;;;;;
"snake";"1994";;"Windows 7";"Rachel's Experiment (D.T.)";"1.0";"2";"1";"1";"2";"1";"1";"2014-10-13 12:53:59.924";"2014-10-13 13:07:04.730";"1";"0";"1";"18";"17";"module.training_block1.exec-4124.GoNoGo1";;;;;;;;;;;;;;;;;;;;;;;"1261";"2014-10-13 12:56:38.061";"ST_correctStop";"6";"0";"FINISHED";"NONE";"success";"0";"1";"2014-10-13 12:56:36.798";"1";;;;;;;;;;;;;;;;;;;;;;;;;;;;;;;;;;;;;;;;;;;;;;;;;;;;;;;;;
"snake";"1994";;"Windows 7";"Rachel's Experiment (D.T.)";"1.0";"2";"1";"1";"2";"1";"1";"2014-10-13 12:53:59.924";"2014-10-13 13:07:04.730";"1";"0";"1";"19";"18";"module.training_block1.exec-4124.GoNoGo1";;;;;;;;;;;;;;;;;;;;;;;"1257";"2014-10-13 12:56:40.604";"NST_correctLoc";"17";"0";"FINISHED";"LEFT";"success";"492";"0";"2014-10-13 12:56:39.341";"2";;;;;;;;;;;;;;;;;;;;;;;;;;;;;;;;;;;;;;;;;;;;;;;;;;;;;;;;;
"snake";"1994";;"Windows 7";"Rachel's Experiment (D.T.)";"1.0";"2";"1";"1";"2";"1";"1";"2014-10-13 12:53:59.924";"2014-10-13 13:07:04.730";"1";"0";"1";"20";"19";"module.training_block1.exec-4124.GoNoGo1";;;;;;;;;;;;;;;;;;;;;;;"1258";"2014-10-13 12:56:43.147";"NST_correctLoc";"29";"1";"FINISHED";"RIGHT";"success";"406";"0";"2014-10-13 12:56:41.883";"3";;;;;;;;;;;;;;;;;;;;;;;;;;;;;;;;;;;;;;;;;;;;;;;;;;;;;;;;;
"snake";"1994";;"Windows 7";"Rachel's Experiment (D.T.)";"1.0";"2";"1";"1";"2";"1";"1";"2014-10-13 12:53:59.924";"2014-10-13 13:07:04.730";"1";"0";"1";"21";"20";"module.training_block1.exec-4124.GoNoGo1";;;;;;;;;;;;;;;;;;;;;;;"1261";"2014-10-13 12:56:45.690";"ST_failedStop";"27";"0";"FINISHED";"LEFT";"failure";"427";"1";"2014-10-13 12:56:44.426";"3";;;;;;;;;;;;;;;;;;;;;;;;;;;;;;;;;;;;;;;;;;;;;;;;;;;;;;;;;
"snake";"1994";;"Windows 7";"Rachel's Experiment (D.T.)";"1.0";"2";"1";"1";"2";"1";"1";"2014-10-13 12:53:59.924";"2014-10-13 13:07:04.730";"1";"0";"1";"22";"21";"module.training_block1.exec-4124.GoNoGo1";;;;;;;;;;;;;;;;;;;;;;;"1257";"2014-10-13 12:56:48.233";"NST_correctLoc";"32";"0";"FINISHED";"LEFT";"success";"519";"0";"2014-10-13 12:56:46.969";"3";;;;;;;;;;;;;;;;;;;;;;;;;;;;;;;;;;;;;;;;;;;;;;;;;;;;;;;;;
"snake";"1994";;"Windows 7";"Rachel's Experiment (D.T.)";"1.0";"2";"1";"1";"2";"1";"1";"2014-10-13 12:53:59.924";"2014-10-13 13:07:04.730";"1";"0";"1";"23";"22";"module.training_block1.exec-4124.GoNoGo1";;;;;;;;;;;;;;;;;;;;;;;"1261";"2014-10-13 12:56:50.775";"NST_correctLoc";"30";"0";"FINISHED";"LEFT";"success";"461";"0";"2014-10-13 12:56:49.512";"3";;;;;;;;;;;;;;;;;;;;;;;;;;;;;;;;;;;;;;;;;;;;;;;;;;;;;;;;;
"snake";"1994";;"Windows 7";"Rachel's Experiment (D.T.)";"1.0";"2";"1";"1";"2";"1";"1";"2014-10-13 12:53:59.924";"2014-10-13 13:07:04.730";"1";"0";"1";"24";"23";"module.training_block1.exec-4124.GoNoGo1";;;;;;;;;;;;;;;;;;;;;;;"1257";"2014-10-13 12:56:53.318";"ST_correctStop";"0";"0";"FINISHED";"NONE";"success";"0";"1";"2014-10-13 12:56:52.055";"1";;;;;;;;;;;;;;;;;;;;;;;;;;;;;;;;;;;;;;;;;;;;;;;;;;;;;;;;;
"snake";"1994";;"Windows 7";"Rachel's Experiment (D.T.)";"1.0";"2";"1";"1";"2";"1";"1";"2014-10-13 12:53:59.924";"2014-10-13 13:07:04.730";"1";"0";"1";"25";"24";"module.training_block1.exec-4124.GoNoGo1";;;;;;;;;;;;;;;;;;;;;;;"1257";"2014-10-13 12:56:55.955";"NST_correctLoc";"33";"0";"FINISHED";"LEFT";"success";"526";"0";"2014-10-13 12:56:54.691";"3";;;;;;;;;;;;;;;;;;;;;;;;;;;;;;;;;;;;;;;;;;;;;;;;;;;;;;;;;
"snake";"1994";;"Windows 7";"Rachel's Experiment (D.T.)";"1.0";"2";"1";"1";"2";"1";"1";"2014-10-13 12:53:59.924";"2014-10-13 13:07:04.730";"1";"0";"1";"26";"25";"module.training_block1.exec-4124.GoNoGo1";;;;;;;;;;;;;;;;;;;;;;;"1258";"2014-10-13 12:56:58.497";"NST_correctLoc";"35";"1";"FINISHED";"RIGHT";"success";"479";"0";"2014-10-13 12:56:57.234";"3";;;;;;;;;;;;;;;;;;;;;;;;;;;;;;;;;;;;;;;;;;;;;;;;;;;;;;;;;
"snake";"1994";;"Windows 7";"Rachel's Experiment (D.T.)";"1.0";"2";"1";"1";"2";"1";"1";"2014-10-13 12:53:59.924";"2014-10-13 13:07:04.730";"1";"0";"1";"27";"26";"module.training_block1.exec-4124.GoNoGo1";;;;;;;;;;;;;;;;;;;;;;;"1258";"2014-10-13 12:57:01.040";"ST_correctStop";"28";"0";"FINISHED";"NONE";"success";"0";"1";"2014-10-13 12:56:59.777";"3";;;;;;;;;;;;;;;;;;;;;;;;;;;;;;;;;;;;;;;;;;;;;;;;;;;;;;;;;
"snake";"1994";;"Windows 7";"Rachel's Experiment (D.T.)";"1.0";"2";"1";"1";"2";"1";"1";"2014-10-13 12:53:59.924";"2014-10-13 13:07:04.730";"1";"0";"1";"28";"27";"module.training_block1.exec-4124.GoNoGo1";;;;;;;;;;;;;;;;;;;;;;;"1257";"2014-10-13 12:57:03.583";"NST_correctLoc";"14";"0";"FINISHED";"LEFT";"success";"441";"0";"2014-10-13 12:57:02.319";"2";;;;;;;;;;;;;;;;;;;;;;;;;;;;;;;;;;;;;;;;;;;;;;;;;;;;;;;;;
"snake";"1994";;"Windows 7";"Rachel's Experiment (D.T.)";"1.0";"2";"1";"1";"2";"1";"1";"2014-10-13 12:53:59.924";"2014-10-13 13:07:04.730";"1";"0";"1";"29";"28";"module.training_block1.exec-4124.GoNoGo1";;;;;;;;;;;;;;;;;;;;;;;"1257";"2014-10-13 12:57:06.126";"ST_correctStop";"31";"0";"FINISHED";"NONE";"success";"0";"1";"2014-10-13 12:57:04.862";"3";;;;;;;;;;;;;;;;;;;;;;;;;;;;;;;;;;;;;;;;;;;;;;;;;;;;;;;;;
"snake";"1994";;"Windows 7";"Rachel's Experiment (D.T.)";"1.0";"2";"1";"1";"2";"1";"1";"2014-10-13 12:53:59.924";"2014-10-13 13:07:04.730";"1";"0";"1";"30";"29";"module.training_block1.exec-4124.GoNoGo1";;;;;;;;;;;;;;;;;;;;;;;"1257";"2014-10-13 12:57:08.669";"NST_correctLoc";"11";"1";"FINISHED";"RIGHT";"success";"380";"0";"2014-10-13 12:57:07.405";"2";;;;;;;;;;;;;;;;;;;;;;;;;;;;;;;;;;;;;;;;;;;;;;;;;;;;;;;;;
"snake";"1994";;"Windows 7";"Rachel's Experiment (D.T.)";"1.0";"2";"1";"1";"2";"1";"1";"2014-10-13 12:53:59.924";"2014-10-13 13:07:04.730";"1";"0";"1";"31";"30";"module.training_block1.exec-4124.GoNoGo1";;;;;;;;;;;;;;;;;;;;;;;"1258";"2014-10-13 12:57:11.211";"ST_correctStop";"3";"1";"FINISHED";"NONE";"success";"0";"1";"2014-10-13 12:57:09.948";"1";;;;;;;;;;;;;;;;;;;;;;;;;;;;;;;;;;;;;;;;;;;;;;;;;;;;;;;;;
"snake";"1994";;"Windows 7";"Rachel's Experiment (D.T.)";"1.0";"2";"1";"1";"2";"1";"1";"2014-10-13 12:53:59.924";"2014-10-13 13:07:04.730";"1";"0";"1";"32";"31";"module.training_block1.exec-4124.GoNoGo1";;;;;;;;;;;;;;;;;;;;;;;"1257";"2014-10-13 12:57:13.754";"NST_correctLoc";"16";"1";"FINISHED";"RIGHT";"success";"390";"0";"2014-10-13 12:57:12.491";"2";;;;;;;;;;;;;;;;;;;;;;;;;;;;;;;;;;;;;;;;;;;;;;;;;;;;;;;;;
"snake";"1994";;"Windows 7";"Rachel's Experiment (D.T.)";"1.0";"2";"1";"1";"2";"1";"1";"2014-10-13 12:53:59.924";"2014-10-13 13:07:04.730";"1";"0";"1";"33";"32";"module.training_block1.exec-4124.GoNoGo1";;;;;;;;;;;;;;;;;;;;;;;"1258";"2014-10-13 12:57:16.297";"ST_correctStop";"34";"1";"FINISHED";"NONE";"success";"0";"1";"2014-10-13 12:57:15.034";"3";;;;;;;;;;;;;;;;;;;;;;;;;;;;;;;;;;;;;;;;;;;;;;;;;;;;;;;;;
"snake";"1994";;"Windows 7";"Rachel's Experiment (D.T.)";"1.0";"2";"1";"1";"2";"1";"1";"2014-10-13 12:53:59.924";"2014-10-13 13:07:04.730";"1";"0";"1";"34";"33";"module.training_block1.exec-4124.GoNoGo1";;;;;;;;;;;;;;;;;;;;;;;"1257";"2014-10-13 12:57:18.840";"NST_correctLoc";"9";"1";"FINISHED";"RIGHT";"success";"416";"0";"2014-10-13 12:57:17.576";"2";;;;;;;;;;;;;;;;;;;;;;;;;;;;;;;;;;;;;;;;;;;;;;;;;;;;;;;;;
"snake";"1994";;"Windows 7";"Rachel's Experiment (D.T.)";"1.0";"2";"1";"1";"2";"1";"1";"2014-10-13 12:53:59.924";"2014-10-13 13:07:04.730";"1";"0";"1";"35";"34";"module.training_block1.exec-4124.GoNoGo1";;;;;;;;;;;;;;;;;;;;;;;"1257";"2014-10-13 12:57:21.383";"ST_correctStop";"23";"0";"FINISHED";"NONE";"success";"0";"1";"2014-10-13 12:57:20.119";"3";;;;;;;;;;;;;;;;;;;;;;;;;;;;;;;;;;;;;;;;;;;;;;;;;;;;;;;;;
"snake";"1994";;"Windows 7";"Rachel's Experiment (D.T.)";"1.0";"2";"1";"1";"2";"1";"1";"2014-10-13 12:53:59.924";"2014-10-13 13:07:04.730";"1";"0";"1";"36";"35";"module.training_block1.exec-4124.GoNoGo1";;;;;;;;;;;;;;;;;;;;;;;"1257";"2014-10-13 12:57:23.926";"ST_correctStop";"20";"1";"FINISHED";"NONE";"success";"0";"1";"2014-10-13 12:57:22.662";"3";;;;;;;;;;;;;;;;;;;;;;;;;;;;;;;;;;;;;;;;;;;;;;;;;;;;;;;;;
"snake";"1994";;"Windows 7";"Rachel's Experiment (D.T.)";"1.0";"2";"1";"1";"2";"1";"1";"2014-10-13 12:53:59.924";"2014-10-13 13:07:04.730";"1";"0";"1";"37";"36";"module.training_block1.exec-4124.GoNoGo1";;;;;;;;;;;;;;;;;;;;;;;"1257";"2014-10-13 12:57:26.468";"NST_correctLoc";"12";"1";"FINISHED";"RIGHT";"success";"579";"0";"2014-10-13 12:57:25.205";"2";;;;;;;;;;;;;;;;;;;;;;;;;;;;;;;;;;;;;;;;;;;;;;;;;;;;;;;;;
"snake";"1994";;"Windows 7";"Rachel's Experiment (D.T.)";"1.0";"2";"1";"1";"2";"1";"1";"2014-10-13 12:53:59.924";"2014-10-13 13:07:04.730";"1";"0";"1";"38";"37";"module.training_block1.exec-4124.GoNoGo1";;;;;;;;;;;;;;;;;;;;;;;"1257";"2014-10-13 12:57:29.011";"NST_correctLoc";"15";"1";"FINISHED";"RIGHT";"success";"469";"0";"2014-10-13 12:57:27.748";"2";;;;;;;;;;;;;;;;;;;;;;;;;;;;;;;;;;;;;;;;;;;;;;;;;;;;;;;;;
"snake";"1994";;"Windows 7";"Rachel's Experiment (D.T.)";"1.0";"2";"1";"1";"2";"1";"1";"2014-10-13 12:53:59.924";"2014-10-13 13:07:04.730";"1";"0";"1";"39";"38";"module.training_block1.exec-4124.GoNoGo1";;;;;;;;;;;;;;;;;;;;;;;"1257";"2014-10-13 12:57:31.554";"NST_correctLoc";"22";"0";"FINISHED";"LEFT";"success";"534";"0";"2014-10-13 12:57:30.290";"3";;;;;;;;;;;;;;;;;;;;;;;;;;;;;;;;;;;;;;;;;;;;;;;;;;;;;;;;;
"snake";"1994";;"Windows 7";"Rachel's Experiment (D.T.)";"1.0";"2";"1";"1";"2";"1";"1";"2014-10-13 12:53:59.924";"2014-10-13 13:07:04.730";"1";"0";"1";"40";"39";"module.training_block1.exec-4124.GoNoGo1";;;;;;;;;;;;;;;;;;;;;;;"1257";"2014-10-13 12:57:34.097";"ST_correctStop";"2";"1";"FINISHED";"NONE";"success";"0";"1";"2014-10-13 12:57:32.833";"1";;;;;;;;;;;;;;;;;;;;;;;;;;;;;;;;;;;;;;;;;;;;;;;;;;;;;;;;;
"snake";"1994";;"Windows 7";"Rachel's Experiment (D.T.)";"1.0";"2";"1";"1";"2";"1";"1";"2014-10-13 12:53:59.924";"2014-10-13 13:07:04.730";"1";"0";"1";"41";"40";"module.training_block1.exec-4124.GoNoGo1";;;;;;;;;;;;;;;;;;;;;;;"1258";"2014-10-13 12:57:36.640";"ST_correctStop";"24";"1";"FINISHED";"NONE";"success";"0";"1";"2014-10-13 12:57:35.376";"3";;;;;;;;;;;;;;;;;;;;;;;;;;;;;;;;;;;;;;;;;;;;;;;;;;;;;;;;;
"snake";"1994";;"Windows 7";"Rachel's Experiment (D.T.)";"1.0";"2";"1";"1";"2";"1";"1";"2014-10-13 12:53:59.924";"2014-10-13 13:07:04.730";"1";"0";"1";"42";"41";"module.training_block1.exec-4124.GoNoGo1";;;;;;;;;;;;;;;;;;;;;;;"1258";"2014-10-13 12:57:39.182";"NST_correctLoc";"25";"0";"FINISHED";"LEFT";"success";"442";"0";"2014-10-13 12:57:37.919";"3";;;;;;;;;;;;;;;;;;;;;;;;;;;;;;;;;;;;;;;;;;;;;;;;;;;;;;;;;
"snake";"1994";;"Windows 7";"Rachel's Experiment (D.T.)";"1.0";"2";"1";"1";"2";"1";"1";"2014-10-13 12:53:59.924";"2014-10-13 13:07:04.730";"1";"0";"1";"43";"42";"module.training_block1.exec-4124.GoNoGo1";;;;;;;;;;;;;;;;;;;;;;;"1252";"2014-10-13 12:57:41.725";"ST_correctStop";"5";"1";"FINISHED";"NONE";"success";"0";"1";"2014-10-13 12:57:40.462";"1";;;;;;;;;;;;;;;;;;;;;;;;;;;;;;;;;;;;;;;;;;;;;;;;;;;;;;;;;
"snake";"1994";;"Windows 7";"Rachel's Experiment (D.T.)";"1.0";"2";"1";"1";"2";"1";"1";"2014-10-13 12:53:59.924";"2014-10-13 13:07:04.730";"1";"0";"1";"44";"43";"module.training_block1.exec-4124.GoNoGo1";;;;;;;;;;;;;;;;;;;;;;;"1257";"2014-10-13 12:57:44.268";"ST_correctStop";"4";"0";"FINISHED";"NONE";"success";"0";"1";"2014-10-13 12:57:43.004";"1";;;;;;;;;;;;;;;;;;;;;;;;;;;;;;;;;;;;;;;;;;;;;;;;;;;;;;;;;
"snake";"1994";;"Windows 7";"Rachel's Experiment (D.T.)";"1.0";"2";"1";"1";"2";"1";"1";"2014-10-13 12:53:59.924";"2014-10-13 13:07:04.730";"1";"0";"1";"45";"44";"module.training_block1.exec-4124.GoNoGo1";;;;;;;;;;;;;;;;;;;;;;;"1257";"2014-10-13 12:57:46.811";"NST_correctLoc";"26";"1";"FINISHED";"RIGHT";"success";"397";"0";"2014-10-13 12:57:45.547";"3";;;;;;;;;;;;;;;;;;;;;;;;;;;;;;;;;;;;;;;;;;;;;;;;;;;;;;;;;
"snake";"1994";;"Windows 7";"Rachel's Experiment (D.T.)";"1.0";"2";"1";"1";"2";"1";"1";"2014-10-13 12:53:59.924";"2014-10-13 13:07:04.730";"1";"0";"1";"46";"45";"module.training_block1.exec-4124.GoNoGo1";;;;;;;;;;;;;;;;;;;;;;;"1257";"2014-10-13 12:57:49.354";"NST_correctLoc";"10";"0";"FINISHED";"LEFT";"success";"463";"0";"2014-10-13 12:57:48.090";"2";;;;;;;;;;;;;;;;;;;;;;;;;;;;;;;;;;;;;;;;;;;;;;;;;;;;;;;;;
"snake";"1994";;"Windows 7";"Rachel's Experiment (D.T.)";"1.0";"2";"1";"1";"2";"1";"1";"2014-10-13 12:53:59.924";"2014-10-13 13:07:04.730";"1";"0";"1";"47";"46";"module.training_block1.exec-4124.GoNoGo1";;;;;;;;;;;;;;;;;;;;;;;"1258";"2014-10-13 12:57:51.896";"ST_correctStop";"18";"0";"FINISHED";"NONE";"success";"0";"1";"2014-10-13 12:57:50.633";"3";;;;;;;;;;;;;;;;;;;;;;;;;;;;;;;;;;;;;;;;;;;;;;;;;;;;;;;;;
"snake";"1994";;"Windows 7";"Rachel's Experiment (D.T.)";"1.0";"2";"1";"1";"2";"1";"1";"2014-10-13 12:53:59.924";"2014-10-13 13:07:04.730";"1";"0";"1";"48";"47";"module.training_block1.exec-4124.GoNoGo1";;;;;;;;;;;;;;;;;;;;;;;"1257";"2014-10-13 12:57:54.439";"ST_correctStop";"7";"0";"FINISHED";"NONE";"success";"0";"1";"2014-10-13 12:57:53.176";"1";;;;;;;;;;;;;;;;;;;;;;;;;;;;;;;;;;;;;;;;;;;;;;;;;;;;;;;;;
"snake";"1994";;"Windows 7";"Rachel's Experiment (D.T.)";"1.0";"2";"1";"1";"2";"1";"1";"2014-10-13 12:53:59.924";"2014-10-13 13:07:04.730";"1";"0";"1";"49";"48";"module.training_block1.exec-4124.GoNoGo1";;;;;;;;;;;;;;;;;;;;;;;"1257";"2014-10-13 12:57:56.982";"ST_correctStop";"19";"0";"FINISHED";"NONE";"success";"0";"1";"2014-10-13 12:57:55.718";"3";;;;;;;;;;;;;;;;;;;;;;;;;;;;;;;;;;;;;;;;;;;;;;;;;;;;;;;;;
"snake";"1994";;"Windows 7";"Rachel's Experiment (D.T.)";"1.0";"2";"1";"1";"2";"1";"1";"2014-10-13 12:53:59.924";"2014-10-13 13:07:04.730";"1";"0";"1";"50";"49";"module.training_block1.exec-4124.GoNoGo1";;;;;;;;;;;;;;;;;;;;;;;"1257";"2014-10-13 12:57:59.525";"NST_correctLoc";"13";"0";"FINISHED";"LEFT";"success";"1003";"0";"2014-10-13 12:57:58.261";"2";;;;;;;;;;;;;;;;;;;;;;;;;;;;;;;;;;;;;;;;;;;;;;;;;;;;;;;;;
"snake";"1994";;"Windows 7";"Rachel's Experiment (D.T.)";"1.0";"2";"1";"1";"2";"1";"1";"2014-10-13 12:53:59.924";"2014-10-13 13:07:04.730";"1";"0";"1";"51";"50";"module.training_block1.exec-4124.GoNoGo1";;;;;;;;;;;;;;;;;;;;;;;"1257";"2014-10-13 12:58:02.068";"NST_miss";"21";"1";"FINISHED";"NONE";"failure";"0";"0";"2014-10-13 12:58:00.804";"3";;;;;;;;;;;;;;;;;;;;;;;;;;;;;;;;;;;;;;;;;;;;;;;;;;;;;;;;;
"snake";"1994";;"Windows 7";"Rachel's Experiment (D.T.)";"1.0";"2";"1";"1";"2";"1";"1";"2014-10-13 12:53:59.924";"2014-10-13 13:07:04.730";"1";"0";"1";"52";"51";"module.training_block2.exec-3393.GoNoGo2";;;;;;;;;;;;;;;;;;;;;;;;;;;;;;;;;;;"1261";"2014-10-13 12:58:15.328";"NST_correctLoc";"13";"0";"FINISHED";"LEFT";"success";"388";"0";"2014-10-13 12:58:14.064";"2";;;;;;;;;;;;;;;;;;;;;;;;;;;;;;;;;;;;;;;;;;;;;
"snake";"1994";;"Windows 7";"Rachel's Experiment (D.T.)";"1.0";"2";"1";"1";"2";"1";"1";"2014-10-13 12:53:59.924";"2014-10-13 13:07:04.730";"1";"0";"1";"53";"52";"module.training_block2.exec-3393.GoNoGo2";;;;;;;;;;;;;;;;;;;;;;;;;;;;;;;;;;;"1257";"2014-10-13 12:58:17.870";"NST_correctLoc";"32";"1";"FINISHED";"RIGHT";"success";"369";"0";"2014-10-13 12:58:16.607";"3";;;;;;;;;;;;;;;;;;;;;;;;;;;;;;;;;;;;;;;;;;;;;
"snake";"1994";;"Windows 7";"Rachel's Experiment (D.T.)";"1.0";"2";"1";"1";"2";"1";"1";"2014-10-13 12:53:59.924";"2014-10-13 13:07:04.730";"1";"0";"1";"54";"53";"module.training_block2.exec-3393.GoNoGo2";;;;;;;;;;;;;;;;;;;;;;;;;;;;;;;;;;;"1261";"2014-10-13 12:58:20.413";"NST_correctLoc";"16";"0";"FINISHED";"LEFT";"success";"359";"0";"2014-10-13 12:58:19.150";"2";;;;;;;;;;;;;;;;;;;;;;;;;;;;;;;;;;;;;;;;;;;;;
"snake";"1994";;"Windows 7";"Rachel's Experiment (D.T.)";"1.0";"2";"1";"1";"2";"1";"1";"2014-10-13 12:53:59.924";"2014-10-13 13:07:04.730";"1";"0";"1";"55";"54";"module.training_block2.exec-3393.GoNoGo2";;;;;;;;;;;;;;;;;;;;;;;;;;;;;;;;;;;"1261";"2014-10-13 12:58:22.956";"ST_correctStop";"35";"0";"FINISHED";"NONE";"success";"0";"1";"2014-10-13 12:58:21.692";"3";;;;;;;;;;;;;;;;;;;;;;;;;;;;;;;;;;;;;;;;;;;;;
"snake";"1994";;"Windows 7";"Rachel's Experiment (D.T.)";"1.0";"2";"1";"1";"2";"1";"1";"2014-10-13 12:53:59.924";"2014-10-13 13:07:04.730";"1";"0";"1";"56";"55";"module.training_block2.exec-3393.GoNoGo2";;;;;;;;;;;;;;;;;;;;;;;;;;;;;;;;;;;"1261";"2014-10-13 12:58:25.499";"NST_correctLoc";"11";"1";"FINISHED";"RIGHT";"success";"401";"0";"2014-10-13 12:58:24.235";"2";;;;;;;;;;;;;;;;;;;;;;;;;;;;;;;;;;;;;;;;;;;;;
"snake";"1994";;"Windows 7";"Rachel's Experiment (D.T.)";"1.0";"2";"1";"1";"2";"1";"1";"2014-10-13 12:53:59.924";"2014-10-13 13:07:04.730";"1";"0";"1";"57";"56";"module.training_block2.exec-3393.GoNoGo2";;;;;;;;;;;;;;;;;;;;;;;;;;;;;;;;;;;"1261";"2014-10-13 12:58:28.042";"NST_correctLoc";"9";"0";"FINISHED";"LEFT";"success";"506";"0";"2014-10-13 12:58:26.778";"2";;;;;;;;;;;;;;;;;;;;;;;;;;;;;;;;;;;;;;;;;;;;;
"snake";"1994";;"Windows 7";"Rachel's Experiment (D.T.)";"1.0";"2";"1";"1";"2";"1";"1";"2014-10-13 12:53:59.924";"2014-10-13 13:07:04.730";"1";"0";"1";"58";"57";"module.training_block2.exec-3393.GoNoGo2";;;;;;;;;;;;;;;;;;;;;;;;;;;;;;;;;;;"1256";"2014-10-13 12:58:30.584";"ST_correctStop";"6";"0";"FINISHED";"NONE";"success";"0";"1";"2014-10-13 12:58:29.321";"1";;;;;;;;;;;;;;;;;;;;;;;;;;;;;;;;;;;;;;;;;;;;;
"snake";"1994";;"Windows 7";"Rachel's Experiment (D.T.)";"1.0";"2";"1";"1";"2";"1";"1";"2014-10-13 12:53:59.924";"2014-10-13 13:07:04.730";"1";"0";"1";"59";"58";"module.training_block2.exec-3393.GoNoGo2";;;;;;;;;;;;;;;;;;;;;;;;;;;;;;;;;;;"1261";"2014-10-13 12:58:33.127";"ST_correctStop";"23";"1";"FINISHED";"NONE";"success";"0";"1";"2014-10-13 12:58:31.864";"3";;;;;;;;;;;;;;;;;;;;;;;;;;;;;;;;;;;;;;;;;;;;;
"snake";"1994";;"Windows 7";"Rachel's Experiment (D.T.)";"1.0";"2";"1";"1";"2";"1";"1";"2014-10-13 12:53:59.924";"2014-10-13 13:07:04.730";"1";"0";"1";"60";"59";"module.training_block2.exec-3393.GoNoGo2";;;;;;;;;;;;;;;;;;;;;;;;;;;;;;;;;;;"1261";"2014-10-13 12:58:35.670";"ST_correctStop";"34";"0";"FINISHED";"NONE";"success";"0";"1";"2014-10-13 12:58:34.406";"3";;;;;;;;;;;;;;;;;;;;;;;;;;;;;;;;;;;;;;;;;;;;;
"snake";"1994";;"Windows 7";"Rachel's Experiment (D.T.)";"1.0";"2";"1";"1";"2";"1";"1";"2014-10-13 12:53:59.924";"2014-10-13 13:07:04.730";"1";"0";"1";"61";"60";"module.training_block2.exec-3393.GoNoGo2";;;;;;;;;;;;;;;;;;;;;;;;;;;;;;;;;;;"1257";"2014-10-13 12:58:38.213";"NST_correctLoc";"29";"1";"FINISHED";"RIGHT";"success";"755";"0";"2014-10-13 12:58:36.949";"3";;;;;;;;;;;;;;;;;;;;;;;;;;;;;;;;;;;;;;;;;;;;;
"snake";"1994";;"Windows 7";"Rachel's Experiment (D.T.)";"1.0";"2";"1";"1";"2";"1";"1";"2014-10-13 12:53:59.924";"2014-10-13 13:07:04.730";"1";"0";"1";"62";"61";"module.training_block2.exec-3393.GoNoGo2";;;;;;;;;;;;;;;;;;;;;;;;;;;;;;;;;;;"1261";"2014-10-13 12:58:40.756";"ST_correctStop";"25";"0";"FINISHED";"NONE";"success";"0";"1";"2014-10-13 12:58:39.492";"3";;;;;;;;;;;;;;;;;;;;;;;;;;;;;;;;;;;;;;;;;;;;;
"snake";"1994";;"Windows 7";"Rachel's Experiment (D.T.)";"1.0";"2";"1";"1";"2";"1";"1";"2014-10-13 12:53:59.924";"2014-10-13 13:07:04.730";"1";"0";"1";"63";"62";"module.training_block2.exec-3393.GoNoGo2";;;;;;;;;;;;;;;;;;;;;;;;;;;;;;;;;;;"1261";"2014-10-13 12:58:43.298";"NST_correctLoc";"21";"0";"FINISHED";"LEFT";"success";"393";"0";"2014-10-13 12:58:42.035";"3";;;;;;;;;;;;;;;;;;;;;;;;;;;;;;;;;;;;;;;;;;;;;
"snake";"1994";;"Windows 7";"Rachel's Experiment (D.T.)";"1.0";"2";"1";"1";"2";"1";"1";"2014-10-13 12:53:59.924";"2014-10-13 13:07:04.730";"1";"0";"1";"64";"63";"module.training_block2.exec-3393.GoNoGo2";;;;;;;;;;;;;;;;;;;;;;;;;;;;;;;;;;;"1261";"2014-10-13 12:58:45.841";"NST_correctLoc";"33";"1";"FINISHED";"RIGHT";"success";"547";"0";"2014-10-13 12:58:44.578";"3";;;;;;;;;;;;;;;;;;;;;;;;;;;;;;;;;;;;;;;;;;;;;
"snake";"1994";;"Windows 7";"Rachel's Experiment (D.T.)";"1.0";"2";"1";"1";"2";"1";"1";"2014-10-13 12:53:59.924";"2014-10-13 13:07:04.730";"1";"0";"1";"65";"64";"module.training_block2.exec-3393.GoNoGo2";;;;;;;;;;;;;;;;;;;;;;;;;;;;;;;;;;;"1252";"2014-10-13 12:58:48.384";"ST_correctStop";"8";"0";"FINISHED";"NONE";"success";"0";"1";"2014-10-13 12:58:47.120";"1";;;;;;;;;;;;;;;;;;;;;;;;;;;;;;;;;;;;;;;;;;;;;
"snake";"1994";;"Windows 7";"Rachel's Experiment (D.T.)";"1.0";"2";"1";"1";"2";"1";"1";"2014-10-13 12:53:59.924";"2014-10-13 13:07:04.730";"1";"0";"1";"66";"65";"module.training_block2.exec-3393.GoNoGo2";;;;;;;;;;;;;;;;;;;;;;;;;;;;;;;;;;;"1261";"2014-10-13 12:58:51.036";"NST_correctLoc";"14";"1";"FINISHED";"RIGHT";"success";"416";"0";"2014-10-13 12:58:49.772";"2";;;;;;;;;;;;;;;;;;;;;;;;;;;;;;;;;;;;;;;;;;;;;
"snake";"1994";;"Windows 7";"Rachel's Experiment (D.T.)";"1.0";"2";"1";"1";"2";"1";"1";"2014-10-13 12:53:59.924";"2014-10-13 13:07:04.730";"1";"0";"1";"67";"66";"module.training_block2.exec-3393.GoNoGo2";;;;;;;;;;;;;;;;;;;;;;;;;;;;;;;;;;;"1261";"2014-10-13 12:58:53.579";"NST_correctLoc";"28";"0";"FINISHED";"LEFT";"success";"465";"0";"2014-10-13 12:58:52.315";"3";;;;;;;;;;;;;;;;;;;;;;;;;;;;;;;;;;;;;;;;;;;;;
"snake";"1994";;"Windows 7";"Rachel's Experiment (D.T.)";"1.0";"2";"1";"1";"2";"1";"1";"2014-10-13 12:53:59.924";"2014-10-13 13:07:04.730";"1";"0";"1";"68";"67";"module.training_block2.exec-3393.GoNoGo2";;;;;;;;;;;;;;;;;;;;;;;;;;;;;;;;;;;"1257";"2014-10-13 12:58:56.106";"ST_correctStop";"1";"1";"FINISHED";"NONE";"success";"0";"1";"2014-10-13 12:58:54.842";"1";;;;;;;;;;;;;;;;;;;;;;;;;;;;;;;;;;;;;;;;;;;;;
"snake";"1994";;"Windows 7";"Rachel's Experiment (D.T.)";"1.0";"2";"1";"1";"2";"1";"1";"2014-10-13 12:53:59.924";"2014-10-13 13:07:04.730";"1";"0";"1";"69";"68";"module.training_block2.exec-3393.GoNoGo2";;;;;;;;;;;;;;;;;;;;;;;;;;;;;;;;;;;"1261";"2014-10-13 12:58:58.649";"ST_correctStop";"2";"0";"FINISHED";"NONE";"success";"0";"1";"2014-10-13 12:58:57.385";"1";;;;;;;;;;;;;;;;;;;;;;;;;;;;;;;;;;;;;;;;;;;;;
"snake";"1994";;"Windows 7";"Rachel's Experiment (D.T.)";"1.0";"2";"1";"1";"2";"1";"1";"2014-10-13 12:53:59.924";"2014-10-13 13:07:04.730";"1";"0";"1";"70";"69";"module.training_block2.exec-3393.GoNoGo2";;;;;;;;;;;;;;;;;;;;;;;;;;;;;;;;;;;"1261";"2014-10-13 12:59:01.192";"NST_correctLoc";"12";"0";"FINISHED";"LEFT";"success";"412";"0";"2014-10-13 12:58:59.928";"2";;;;;;;;;;;;;;;;;;;;;;;;;;;;;;;;;;;;;;;;;;;;;
"snake";"1994";;"Windows 7";"Rachel's Experiment (D.T.)";"1.0";"2";"1";"1";"2";"1";"1";"2014-10-13 12:53:59.924";"2014-10-13 13:07:04.730";"1";"0";"1";"71";"70";"module.training_block2.exec-3393.GoNoGo2";;;;;;;;;;;;;;;;;;;;;;;;;;;;;;;;;;;"1261";"2014-10-13 12:59:03.734";"NST_correctLoc";"24";"1";"FINISHED";"RIGHT";"success";"405";"0";"2014-10-13 12:59:02.471";"3";;;;;;;;;;;;;;;;;;;;;;;;;;;;;;;;;;;;;;;;;;;;;
"snake";"1994";;"Windows 7";"Rachel's Experiment (D.T.)";"1.0";"2";"1";"1";"2";"1";"1";"2014-10-13 12:53:59.924";"2014-10-13 13:07:04.730";"1";"0";"1";"72";"71";"module.training_block2.exec-3393.GoNoGo2";;;;;;;;;;;;;;;;;;;;;;;;;;;;;;;;;;;"1256";"2014-10-13 12:59:06.277";"ST_correctStop";"27";"1";"FINISHED";"NONE";"success";"0";"1";"2014-10-13 12:59:05.014";"3";;;;;;;;;;;;;;;;;;;;;;;;;;;;;;;;;;;;;;;;;;;;;
"snake";"1994";;"Windows 7";"Rachel's Experiment (D.T.)";"1.0";"2";"1";"1";"2";"1";"1";"2014-10-13 12:53:59.924";"2014-10-13 13:07:04.730";"1";"0";"1";"73";"72";"module.training_block2.exec-3393.GoNoGo2";;;;;;;;;;;;;;;;;;;;;;;;;;;;;;;;;;;"1261";"2014-10-13 12:59:08.820";"ST_correctStop";"4";"0";"FINISHED";"NONE";"success";"0";"1";"2014-10-13 12:59:07.556";"1";;;;;;;;;;;;;;;;;;;;;;;;;;;;;;;;;;;;;;;;;;;;;
"snake";"1994";;"Windows 7";"Rachel's Experiment (D.T.)";"1.0";"2";"1";"1";"2";"1";"1";"2014-10-13 12:53:59.924";"2014-10-13 13:07:04.730";"1";"0";"1";"74";"73";"module.training_block2.exec-3393.GoNoGo2";;;;;;;;;;;;;;;;;;;;;;;;;;;;;;;;;;;"1261";"2014-10-13 12:59:11.363";"ST_correctStop";"0";"1";"FINISHED";"NONE";"success";"0";"1";"2014-10-13 12:59:10.099";"1";;;;;;;;;;;;;;;;;;;;;;;;;;;;;;;;;;;;;;;;;;;;;
"snake";"1994";;"Windows 7";"Rachel's Experiment (D.T.)";"1.0";"2";"1";"1";"2";"1";"1";"2014-10-13 12:53:59.924";"2014-10-13 13:07:04.730";"1";"0";"1";"75";"74";"module.training_block2.exec-3393.GoNoGo2";;;;;;;;;;;;;;;;;;;;;;;;;;;;;;;;;;;"1261";"2014-10-13 12:59:13.906";"NST_correctLoc";"15";"1";"FINISHED";"RIGHT";"success";"386";"0";"2014-10-13 12:59:12.642";"2";;;;;;;;;;;;;;;;;;;;;;;;;;;;;;;;;;;;;;;;;;;;;
"snake";"1994";;"Windows 7";"Rachel's Experiment (D.T.)";"1.0";"2";"1";"1";"2";"1";"1";"2014-10-13 12:53:59.924";"2014-10-13 13:07:04.730";"1";"0";"1";"76";"75";"module.training_block2.exec-3393.GoNoGo2";;;;;;;;;;;;;;;;;;;;;;;;;;;;;;;;;;;"1257";"2014-10-13 12:59:16.449";"NST_correctLoc";"17";"1";"FINISHED";"RIGHT";"success";"462";"0";"2014-10-13 12:59:15.185";"2";;;;;;;;;;;;;;;;;;;;;;;;;;;;;;;;;;;;;;;;;;;;;
"snake";"1994";;"Windows 7";"Rachel's Experiment (D.T.)";"1.0";"2";"1";"1";"2";"1";"1";"2014-10-13 12:53:59.924";"2014-10-13 13:07:04.730";"1";"0";"1";"77";"76";"module.training_block2.exec-3393.GoNoGo2";;;;;;;;;;;;;;;;;;;;;;;;;;;;;;;;;;;"1261";"2014-10-13 12:59:18.991";"ST_correctStop";"22";"1";"FINISHED";"NONE";"success";"0";"1";"2014-10-13 12:59:17.728";"3";;;;;;;;;;;;;;;;;;;;;;;;;;;;;;;;;;;;;;;;;;;;;
"snake";"1994";;"Windows 7";"Rachel's Experiment (D.T.)";"1.0";"2";"1";"1";"2";"1";"1";"2014-10-13 12:53:59.924";"2014-10-13 13:07:04.730";"1";"0";"1";"78";"77";"module.training_block2.exec-3393.GoNoGo2";;;;;;;;;;;;;;;;;;;;;;;;;;;;;;;;;;;"1261";"2014-10-13 12:59:21.534";"NST_correctLoc";"10";"0";"FINISHED";"LEFT";"success";"533";"0";"2014-10-13 12:59:20.271";"2";;;;;;;;;;;;;;;;;;;;;;;;;;;;;;;;;;;;;;;;;;;;;
"snake";"1994";;"Windows 7";"Rachel's Experiment (D.T.)";"1.0";"2";"1";"1";"2";"1";"1";"2014-10-13 12:53:59.924";"2014-10-13 13:07:04.730";"1";"0";"1";"79";"78";"module.training_block2.exec-3393.GoNoGo2";;;;;;;;;;;;;;;;;;;;;;;;;;;;;;;;;;;"1261";"2014-10-13 12:59:24.077";"ST_correctStop";"3";"1";"FINISHED";"NONE";"success";"0";"1";"2014-10-13 12:59:22.813";"1";;;;;;;;;;;;;;;;;;;;;;;;;;;;;;;;;;;;;;;;;;;;;
"snake";"1994";;"Windows 7";"Rachel's Experiment (D.T.)";"1.0";"2";"1";"1";"2";"1";"1";"2014-10-13 12:53:59.924";"2014-10-13 13:07:04.730";"1";"0";"1";"80";"79";"module.training_block2.exec-3393.GoNoGo2";;;;;;;;;;;;;;;;;;;;;;;;;;;;;;;;;;;"1261";"2014-10-13 12:59:26.620";"ST_correctStop";"5";"0";"FINISHED";"NONE";"success";"0";"1";"2014-10-13 12:59:25.356";"1";;;;;;;;;;;;;;;;;;;;;;;;;;;;;;;;;;;;;;;;;;;;;
"snake";"1994";;"Windows 7";"Rachel's Experiment (D.T.)";"1.0";"2";"1";"1";"2";"1";"1";"2014-10-13 12:53:59.924";"2014-10-13 13:07:04.730";"1";"0";"1";"81";"80";"module.training_block2.exec-3393.GoNoGo2";;;;;;;;;;;;;;;;;;;;;;;;;;;;;;;;;;;"1261";"2014-10-13 12:59:29.163";"ST_correctStop";"7";"1";"FINISHED";"NONE";"success";"0";"1";"2014-10-13 12:59:27.899";"1";;;;;;;;;;;;;;;;;;;;;;;;;;;;;;;;;;;;;;;;;;;;;
"snake";"1994";;"Windows 7";"Rachel's Experiment (D.T.)";"1.0";"2";"1";"1";"2";"1";"1";"2014-10-13 12:53:59.924";"2014-10-13 13:07:04.730";"1";"0";"1";"82";"81";"module.training_block2.exec-3393.GoNoGo2";;;;;;;;;;;;;;;;;;;;;;;;;;;;;;;;;;;"1257";"2014-10-13 12:59:31.705";"NST_correctLoc";"30";"0";"FINISHED";"LEFT";"success";"478";"0";"2014-10-13 12:59:30.442";"3";;;;;;;;;;;;;;;;;;;;;;;;;;;;;;;;;;;;;;;;;;;;;
"snake";"1994";;"Windows 7";"Rachel's Experiment (D.T.)";"1.0";"2";"1";"1";"2";"1";"1";"2014-10-13 12:53:59.924";"2014-10-13 13:07:04.730";"1";"0";"1";"83";"82";"module.training_block2.exec-3393.GoNoGo2";;;;;;;;;;;;;;;;;;;;;;;;;;;;;;;;;;;"1261";"2014-10-13 12:59:34.248";"ST_correctStop";"31";"0";"FINISHED";"NONE";"success";"0";"1";"2014-10-13 12:59:32.985";"3";;;;;;;;;;;;;;;;;;;;;;;;;;;;;;;;;;;;;;;;;;;;;
"snake";"1994";;"Windows 7";"Rachel's Experiment (D.T.)";"1.0";"2";"1";"1";"2";"1";"1";"2014-10-13 12:53:59.924";"2014-10-13 13:07:04.730";"1";"0";"1";"84";"83";"module.training_block2.exec-3393.GoNoGo2";;;;;;;;;;;;;;;;;;;;;;;;;;;;;;;;;;;"1261";"2014-10-13 12:59:36.791";"ST_correctStop";"18";"1";"FINISHED";"NONE";"success";"0";"1";"2014-10-13 12:59:35.527";"3";;;;;;;;;;;;;;;;;;;;;;;;;;;;;;;;;;;;;;;;;;;;;
"snake";"1994";;"Windows 7";"Rachel's Experiment (D.T.)";"1.0";"2";"1";"1";"2";"1";"1";"2014-10-13 12:53:59.924";"2014-10-13 13:07:04.730";"1";"0";"1";"85";"84";"module.training_block2.exec-3393.GoNoGo2";;;;;;;;;;;;;;;;;;;;;;;;;;;;;;;;;;;"1261";"2014-10-13 12:59:39.334";"ST_correctStop";"26";"0";"FINISHED";"NONE";"success";"0";"1";"2014-10-13 12:59:38.070";"3";;;;;;;;;;;;;;;;;;;;;;;;;;;;;;;;;;;;;;;;;;;;;
"snake";"1994";;"Windows 7";"Rachel's Experiment (D.T.)";"1.0";"2";"1";"1";"2";"1";"1";"2014-10-13 12:53:59.924";"2014-10-13 13:07:04.730";"1";"0";"1";"86";"85";"module.training_block2.exec-3393.GoNoGo2";;;;;;;;;;;;;;;;;;;;;;;;;;;;;;;;;;;"1261";"2014-10-13 12:59:41.877";"NST_correctLoc";"19";"0";"FINISHED";"LEFT";"success";"431";"0";"2014-10-13 12:59:40.613";"3";;;;;;;;;;;;;;;;;;;;;;;;;;;;;;;;;;;;;;;;;;;;;
"snake";"1994";;"Windows 7";"Rachel's Experiment (D.T.)";"1.0";"2";"1";"1";"2";"1";"1";"2014-10-13 12:53:59.924";"2014-10-13 13:07:04.730";"1";"0";"1";"87";"86";"module.training_block2.exec-3393.GoNoGo2";;;;;;;;;;;;;;;;;;;;;;;;;;;;;;;;;;;"1261";"2014-10-13 12:59:44.419";"NST_correctLoc";"20";"0";"FINISHED";"LEFT";"success";"488";"0";"2014-10-13 12:59:43.156";"3";;;;;;;;;;;;;;;;;;;;;;;;;;;;;;;;;;;;;;;;;;;;;
"snake";"1994";;"Windows 7";"Rachel's Experiment (D.T.)";"1.0";"2";"1";"1";"2";"1";"1";"2014-10-13 12:53:59.924";"2014-10-13 13:07:04.730";"1";"0";"1";"88";"87";"module.training_block3.exec-2459.GoNoGo3";;;;;;;;;;;;;;;;;;;;;;;;;;;;;;;;;;;;;;;;;;;;;;;"1261";"2014-10-13 12:59:55.542";"NST_correctLoc";"12";"0";"FINISHED";"LEFT";"success";"765";"0";"2014-10-13 12:59:54.279";"2";;;;;;;;;;;;;;;;;;;;;;;;;;;;;;;;;
"snake";"1994";;"Windows 7";"Rachel's Experiment (D.T.)";"1.0";"2";"1";"1";"2";"1";"1";"2014-10-13 12:53:59.924";"2014-10-13 13:07:04.730";"1";"0";"1";"89";"88";"module.training_block3.exec-2459.GoNoGo3";;;;;;;;;;;;;;;;;;;;;;;;;;;;;;;;;;;;;;;;;;;;;;;"1261";"2014-10-13 12:59:58.085";"ST_failedStop";"33";"0";"FINISHED";"LEFT";"failure";"510";"1";"2014-10-13 12:59:56.821";"3";;;;;;;;;;;;;;;;;;;;;;;;;;;;;;;;;
"snake";"1994";;"Windows 7";"Rachel's Experiment (D.T.)";"1.0";"2";"1";"1";"2";"1";"1";"2014-10-13 12:53:59.924";"2014-10-13 13:07:04.730";"1";"0";"1";"90";"89";"module.training_block3.exec-2459.GoNoGo3";;;;;;;;;;;;;;;;;;;;;;;;;;;;;;;;;;;;;;;;;;;;;;;"1261";"2014-10-13 13:00:00.628";"NST_correctLoc";"16";"1";"FINISHED";"RIGHT";"success";"392";"0";"2014-10-13 12:59:59.364";"2";;;;;;;;;;;;;;;;;;;;;;;;;;;;;;;;;
"snake";"1994";;"Windows 7";"Rachel's Experiment (D.T.)";"1.0";"2";"1";"1";"2";"1";"1";"2014-10-13 12:53:59.924";"2014-10-13 13:07:04.730";"1";"0";"1";"91";"90";"module.training_block3.exec-2459.GoNoGo3";;;;;;;;;;;;;;;;;;;;;;;;;;;;;;;;;;;;;;;;;;;;;;;"1261";"2014-10-13 13:00:03.171";"ST_correctStop";"21";"0";"FINISHED";"NONE";"success";"0";"1";"2014-10-13 13:00:01.907";"3";;;;;;;;;;;;;;;;;;;;;;;;;;;;;;;;;
"snake";"1994";;"Windows 7";"Rachel's Experiment (D.T.)";"1.0";"2";"1";"1";"2";"1";"1";"2014-10-13 12:53:59.924";"2014-10-13 13:07:04.730";"1";"0";"1";"92";"91";"module.training_block3.exec-2459.GoNoGo3";;;;;;;;;;;;;;;;;;;;;;;;;;;;;;;;;;;;;;;;;;;;;;;"1261";"2014-10-13 13:00:05.713";"NST_correctLoc";"27";"0";"FINISHED";"LEFT";"success";"642";"0";"2014-10-13 13:00:04.450";"3";;;;;;;;;;;;;;;;;;;;;;;;;;;;;;;;;
"snake";"1994";;"Windows 7";"Rachel's Experiment (D.T.)";"1.0";"2";"1";"1";"2";"1";"1";"2014-10-13 12:53:59.924";"2014-10-13 13:07:04.730";"1";"0";"1";"93";"92";"module.training_block3.exec-2459.GoNoGo3";;;;;;;;;;;;;;;;;;;;;;;;;;;;;;;;;;;;;;;;;;;;;;;"1261";"2014-10-13 13:00:08.256";"NST_correctLoc";"30";"1";"FINISHED";"RIGHT";"success";"811";"0";"2014-10-13 13:00:06.993";"3";;;;;;;;;;;;;;;;;;;;;;;;;;;;;;;;;
"snake";"1994";;"Windows 7";"Rachel's Experiment (D.T.)";"1.0";"2";"1";"1";"2";"1";"1";"2014-10-13 12:53:59.924";"2014-10-13 13:07:04.730";"1";"0";"1";"94";"93";"module.training_block3.exec-2459.GoNoGo3";;;;;;;;;;;;;;;;;;;;;;;;;;;;;;;;;;;;;;;;;;;;;;;"1261";"2014-10-13 13:00:10.799";"NST_correctLoc";"14";"1";"FINISHED";"RIGHT";"success";"436";"0";"2014-10-13 13:00:09.535";"2";;;;;;;;;;;;;;;;;;;;;;;;;;;;;;;;;
"snake";"1994";;"Windows 7";"Rachel's Experiment (D.T.)";"1.0";"2";"1";"1";"2";"1";"1";"2014-10-13 12:53:59.924";"2014-10-13 13:07:04.730";"1";"0";"1";"95";"94";"module.training_block3.exec-2459.GoNoGo3";;;;;;;;;;;;;;;;;;;;;;;;;;;;;;;;;;;;;;;;;;;;;;;"1261";"2014-10-13 13:00:13.342";"ST_correctStop";"18";"0";"FINISHED";"NONE";"success";"0";"1";"2014-10-13 13:00:12.078";"3";;;;;;;;;;;;;;;;;;;;;;;;;;;;;;;;;
"snake";"1994";;"Windows 7";"Rachel's Experiment (D.T.)";"1.0";"2";"1";"1";"2";"1";"1";"2014-10-13 12:53:59.924";"2014-10-13 13:07:04.730";"1";"0";"1";"96";"95";"module.training_block3.exec-2459.GoNoGo3";;;;;;;;;;;;;;;;;;;;;;;;;;;;;;;;;;;;;;;;;;;;;;;"1262";"2014-10-13 13:00:15.885";"ST_correctStop";"34";"0";"FINISHED";"NONE";"success";"0";"1";"2014-10-13 13:00:14.621";"3";;;;;;;;;;;;;;;;;;;;;;;;;;;;;;;;;
"snake";"1994";;"Windows 7";"Rachel's Experiment (D.T.)";"1.0";"2";"1";"1";"2";"1";"1";"2014-10-13 12:53:59.924";"2014-10-13 13:07:04.730";"1";"0";"1";"97";"96";"module.training_block3.exec-2459.GoNoGo3";;;;;;;;;;;;;;;;;;;;;;;;;;;;;;;;;;;;;;;;;;;;;;;"1261";"2014-10-13 13:00:18.427";"ST_correctStop";"0";"0";"FINISHED";"NONE";"success";"0";"1";"2014-10-13 13:00:17.164";"1";;;;;;;;;;;;;;;;;;;;;;;;;;;;;;;;;
"snake";"1994";;"Windows 7";"Rachel's Experiment (D.T.)";"1.0";"2";"1";"1";"2";"1";"1";"2014-10-13 12:53:59.924";"2014-10-13 13:07:04.730";"1";"0";"1";"98";"97";"module.training_block3.exec-2459.GoNoGo3";;;;;;;;;;;;;;;;;;;;;;;;;;;;;;;;;;;;;;;;;;;;;;;"1261";"2014-10-13 13:00:20.970";"ST_correctStop";"2";"1";"FINISHED";"NONE";"success";"0";"1";"2014-10-13 13:00:19.707";"1";;;;;;;;;;;;;;;;;;;;;;;;;;;;;;;;;
"snake";"1994";;"Windows 7";"Rachel's Experiment (D.T.)";"1.0";"2";"1";"1";"2";"1";"1";"2014-10-13 12:53:59.924";"2014-10-13 13:07:04.730";"1";"0";"1";"99";"98";"module.training_block3.exec-2459.GoNoGo3";;;;;;;;;;;;;;;;;;;;;;;;;;;;;;;;;;;;;;;;;;;;;;;"1261";"2014-10-13 13:00:23.513";"NST_correctLoc";"17";"0";"FINISHED";"LEFT";"success";"474";"0";"2014-10-13 13:00:22.249";"2";;;;;;;;;;;;;;;;;;;;;;;;;;;;;;;;;
"snake";"1994";;"Windows 7";"Rachel's Experiment (D.T.)";"1.0";"2";"1";"1";"2";"1";"1";"2014-10-13 12:53:59.924";"2014-10-13 13:07:04.730";"1";"0";"1";"100";"99";"module.training_block3.exec-2459.GoNoGo3";;;;;;;;;;;;;;;;;;;;;;;;;;;;;;;;;;;;;;;;;;;;;;;"1261";"2014-10-13 13:00:26.056";"NST_correctLoc";"19";"0";"FINISHED";"LEFT";"success";"763";"0";"2014-10-13 13:00:24.792";"3";;;;;;;;;;;;;;;;;;;;;;;;;;;;;;;;;
"snake";"1994";;"Windows 7";"Rachel's Experiment (D.T.)";"1.0";"2";"1";"1";"2";"1";"1";"2014-10-13 12:53:59.924";"2014-10-13 13:07:04.730";"1";"0";"1";"101";"100";"module.training_block3.exec-2459.GoNoGo3";;;;;;;;;;;;;;;;;;;;;;;;;;;;;;;;;;;;;;;;;;;;;;;"1262";"2014-10-13 13:00:28.599";"ST_correctStop";"7";"1";"FINISHED";"NONE";"success";"0";"1";"2014-10-13 13:00:27.335";"1";;;;;;;;;;;;;;;;;;;;;;;;;;;;;;;;;
"snake";"1994";;"Windows 7";"Rachel's Experiment (D.T.)";"1.0";"2";"1";"1";"2";"1";"1";"2014-10-13 12:53:59.924";"2014-10-13 13:07:04.730";"1";"0";"1";"102";"101";"module.training_block3.exec-2459.GoNoGo3";;;;;;;;;;;;;;;;;;;;;;;;;;;;;;;;;;;;;;;;;;;;;;;"1262";"2014-10-13 13:00:31.141";"NST_correctLoc";"13";"1";"FINISHED";"RIGHT";"success";"398";"0";"2014-10-13 13:00:29.878";"2";;;;;;;;;;;;;;;;;;;;;;;;;;;;;;;;;
"snake";"1994";;"Windows 7";"Rachel's Experiment (D.T.)";"1.0";"2";"1";"1";"2";"1";"1";"2014-10-13 12:53:59.924";"2014-10-13 13:07:04.730";"1";"0";"1";"103";"102";"module.training_block3.exec-2459.GoNoGo3";;;;;;;;;;;;;;;;;;;;;;;;;;;;;;;;;;;;;;;;;;;;;;;"1262";"2014-10-13 13:00:33.684";"ST_correctStop";"24";"1";"FINISHED";"NONE";"success";"0";"1";"2014-10-13 13:00:32.421";"3";;;;;;;;;;;;;;;;;;;;;;;;;;;;;;;;;
"snake";"1994";;"Windows 7";"Rachel's Experiment (D.T.)";"1.0";"2";"1";"1";"2";"1";"1";"2014-10-13 12:53:59.924";"2014-10-13 13:07:04.730";"1";"0";"1";"104";"103";"module.training_block3.exec-2459.GoNoGo3";;;;;;;;;;;;;;;;;;;;;;;;;;;;;;;;;;;;;;;;;;;;;;;"1262";"2014-10-13 13:00:36.227";"ST_correctStop";"35";"0";"FINISHED";"NONE";"success";"0";"1";"2014-10-13 13:00:34.963";"3";;;;;;;;;;;;;;;;;;;;;;;;;;;;;;;;;
"snake";"1994";;"Windows 7";"Rachel's Experiment (D.T.)";"1.0";"2";"1";"1";"2";"1";"1";"2014-10-13 12:53:59.924";"2014-10-13 13:07:04.730";"1";"0";"1";"105";"104";"module.training_block3.exec-2459.GoNoGo3";;;;;;;;;;;;;;;;;;;;;;;;;;;;;;;;;;;;;;;;;;;;;;;"1262";"2014-10-13 13:00:38.770";"NST_correctLoc";"23";"0";"FINISHED";"LEFT";"success";"457";"0";"2014-10-13 13:00:37.506";"3";;;;;;;;;;;;;;;;;;;;;;;;;;;;;;;;;
"snake";"1994";;"Windows 7";"Rachel's Experiment (D.T.)";"1.0";"2";"1";"1";"2";"1";"1";"2014-10-13 12:53:59.924";"2014-10-13 13:07:04.730";"1";"0";"1";"106";"105";"module.training_block3.exec-2459.GoNoGo3";;;;;;;;;;;;;;;;;;;;;;;;;;;;;;;;;;;;;;;;;;;;;;;"1262";"2014-10-13 13:00:41.313";"ST_correctStop";"5";"0";"FINISHED";"NONE";"success";"0";"1";"2014-10-13 13:00:40.049";"1";;;;;;;;;;;;;;;;;;;;;;;;;;;;;;;;;
"snake";"1994";;"Windows 7";"Rachel's Experiment (D.T.)";"1.0";"2";"1";"1";"2";"1";"1";"2014-10-13 12:53:59.924";"2014-10-13 13:07:04.730";"1";"0";"1";"107";"106";"module.training_block3.exec-2459.GoNoGo3";;;;;;;;;;;;;;;;;;;;;;;;;;;;;;;;;;;;;;;;;;;;;;;"1262";"2014-10-13 13:00:43.855";"NST_correctLoc";"32";"0";"FINISHED";"LEFT";"success";"436";"0";"2014-10-13 13:00:42.592";"3";;;;;;;;;;;;;;;;;;;;;;;;;;;;;;;;;
"snake";"1994";;"Windows 7";"Rachel's Experiment (D.T.)";"1.0";"2";"1";"1";"2";"1";"1";"2014-10-13 12:53:59.924";"2014-10-13 13:07:04.730";"1";"0";"1";"108";"107";"module.training_block3.exec-2459.GoNoGo3";;;;;;;;;;;;;;;;;;;;;;;;;;;;;;;;;;;;;;;;;;;;;;;"1261";"2014-10-13 13:00:46.398";"ST_failedStop";"4";"1";"FINISHED";"RIGHT";"failure";"989";"1";"2014-10-13 13:00:45.135";"1";;;;;;;;;;;;;;;;;;;;;;;;;;;;;;;;;
"snake";"1994";;"Windows 7";"Rachel's Experiment (D.T.)";"1.0";"2";"1";"1";"2";"1";"1";"2014-10-13 12:53:59.924";"2014-10-13 13:07:04.730";"1";"0";"1";"109";"108";"module.training_block3.exec-2459.GoNoGo3";;;;;;;;;;;;;;;;;;;;;;;;;;;;;;;;;;;;;;;;;;;;;;;"1262";"2014-10-13 13:00:48.941";"NST_correctLoc";"10";"0";"FINISHED";"LEFT";"success";"390";"0";"2014-10-13 13:00:47.677";"2";;;;;;;;;;;;;;;;;;;;;;;;;;;;;;;;;
"snake";"1994";;"Windows 7";"Rachel's Experiment (D.T.)";"1.0";"2";"1";"1";"2";"1";"1";"2014-10-13 12:53:59.924";"2014-10-13 13:07:04.730";"1";"0";"1";"110";"109";"module.training_block3.exec-2459.GoNoGo3";;;;;;;;;;;;;;;;;;;;;;;;;;;;;;;;;;;;;;;;;;;;;;;"1262";"2014-10-13 13:00:51.484";"ST_correctStop";"1";"0";"FINISHED";"NONE";"success";"0";"1";"2014-10-13 13:00:50.220";"1";;;;;;;;;;;;;;;;;;;;;;;;;;;;;;;;;
"snake";"1994";;"Windows 7";"Rachel's Experiment (D.T.)";"1.0";"2";"1";"1";"2";"1";"1";"2014-10-13 12:53:59.924";"2014-10-13 13:07:04.730";"1";"0";"1";"111";"110";"module.training_block3.exec-2459.GoNoGo3";;;;;;;;;;;;;;;;;;;;;;;;;;;;;;;;;;;;;;;;;;;;;;;"1262";"2014-10-13 13:00:54.027";"NST_correctLoc";"28";"1";"FINISHED";"RIGHT";"success";"472";"0";"2014-10-13 13:00:52.763";"3";;;;;;;;;;;;;;;;;;;;;;;;;;;;;;;;;
"snake";"1994";;"Windows 7";"Rachel's Experiment (D.T.)";"1.0";"2";"1";"1";"2";"1";"1";"2014-10-13 12:53:59.924";"2014-10-13 13:07:04.730";"1";"0";"1";"112";"111";"module.training_block3.exec-2459.GoNoGo3";;;;;;;;;;;;;;;;;;;;;;;;;;;;;;;;;;;;;;;;;;;;;;;"1261";"2014-10-13 13:00:56.569";"ST_correctStop";"6";"0";"FINISHED";"NONE";"success";"0";"1";"2014-10-13 13:00:55.306";"1";;;;;;;;;;;;;;;;;;;;;;;;;;;;;;;;;
"snake";"1994";;"Windows 7";"Rachel's Experiment (D.T.)";"1.0";"2";"1";"1";"2";"1";"1";"2014-10-13 12:53:59.924";"2014-10-13 13:07:04.730";"1";"0";"1";"113";"112";"module.training_block3.exec-2459.GoNoGo3";;;;;;;;;;;;;;;;;;;;;;;;;;;;;;;;;;;;;;;;;;;;;;;"1262";"2014-10-13 13:00:59.112";"NST_correctLoc";"11";"0";"FINISHED";"LEFT";"success";"539";"0";"2014-10-13 13:00:57.849";"2";;;;;;;;;;;;;;;;;;;;;;;;;;;;;;;;;
"snake";"1994";;"Windows 7";"Rachel's Experiment (D.T.)";"1.0";"2";"1";"1";"2";"1";"1";"2014-10-13 12:53:59.924";"2014-10-13 13:07:04.730";"1";"0";"1";"114";"113";"module.training_block3.exec-2459.GoNoGo3";;;;;;;;;;;;;;;;;;;;;;;;;;;;;;;;;;;;;;;;;;;;;;;"1262";"2014-10-13 13:01:01.655";"ST_correctStop";"8";"1";"FINISHED";"NONE";"success";"0";"1";"2014-10-13 13:01:00.391";"1";;;;;;;;;;;;;;;;;;;;;;;;;;;;;;;;;
"snake";"1994";;"Windows 7";"Rachel's Experiment (D.T.)";"1.0";"2";"1";"1";"2";"1";"1";"2014-10-13 12:53:59.924";"2014-10-13 13:07:04.730";"1";"0";"1";"115";"114";"module.training_block3.exec-2459.GoNoGo3";;;;;;;;;;;;;;;;;;;;;;;;;;;;;;;;;;;;;;;;;;;;;;;"1262";"2014-10-13 13:01:04.198";"ST_correctStop";"3";"1";"FINISHED";"NONE";"success";"0";"1";"2014-10-13 13:01:02.934";"1";;;;;;;;;;;;;;;;;;;;;;;;;;;;;;;;;
"snake";"1994";;"Windows 7";"Rachel's Experiment (D.T.)";"1.0";"2";"1";"1";"2";"1";"1";"2014-10-13 12:53:59.924";"2014-10-13 13:07:04.730";"1";"0";"1";"116";"115";"module.training_block3.exec-2459.GoNoGo3";;;;;;;;;;;;;;;;;;;;;;;;;;;;;;;;;;;;;;;;;;;;;;;"1262";"2014-10-13 13:01:06.741";"NST_correctLoc";"26";"1";"FINISHED";"RIGHT";"success";"502";"0";"2014-10-13 13:01:05.477";"3";;;;;;;;;;;;;;;;;;;;;;;;;;;;;;;;;
"snake";"1994";;"Windows 7";"Rachel's Experiment (D.T.)";"1.0";"2";"1";"1";"2";"1";"1";"2014-10-13 12:53:59.924";"2014-10-13 13:07:04.730";"1";"0";"1";"117";"116";"module.training_block3.exec-2459.GoNoGo3";;;;;;;;;;;;;;;;;;;;;;;;;;;;;;;;;;;;;;;;;;;;;;;"1262";"2014-10-13 13:01:09.299";"ST_correctStop";"29";"0";"FINISHED";"NONE";"success";"0";"1";"2014-10-13 13:01:08.036";"3";;;;;;;;;;;;;;;;;;;;;;;;;;;;;;;;;
"snake";"1994";;"Windows 7";"Rachel's Experiment (D.T.)";"1.0";"2";"1";"1";"2";"1";"1";"2014-10-13 12:53:59.924";"2014-10-13 13:07:04.730";"1";"0";"1";"118";"117";"module.training_block3.exec-2459.GoNoGo3";;;;;;;;;;;;;;;;;;;;;;;;;;;;;;;;;;;;;;;;;;;;;;;"1262";"2014-10-13 13:01:11.842";"NST_correctLoc";"9";"1";"FINISHED";"RIGHT";"success";"657";"0";"2014-10-13 13:01:10.578";"2";;;;;;;;;;;;;;;;;;;;;;;;;;;;;;;;;
"snake";"1994";;"Windows 7";"Rachel's Experiment (D.T.)";"1.0";"2";"1";"1";"2";"1";"1";"2014-10-13 12:53:59.924";"2014-10-13 13:07:04.730";"1";"0";"1";"119";"118";"module.training_block3.exec-2459.GoNoGo3";;;;;;;;;;;;;;;;;;;;;;;;;;;;;;;;;;;;;;;;;;;;;;;"1261";"2014-10-13 13:01:14.385";"ST_correctStop";"31";"1";"FINISHED";"NONE";"success";"0";"1";"2014-10-13 13:01:13.121";"3";;;;;;;;;;;;;;;;;;;;;;;;;;;;;;;;;
"snake";"1994";;"Windows 7";"Rachel's Experiment (D.T.)";"1.0";"2";"1";"1";"2";"1";"1";"2014-10-13 12:53:59.924";"2014-10-13 13:07:04.730";"1";"0";"1";"120";"119";"module.training_block3.exec-2459.GoNoGo3";;;;;;;;;;;;;;;;;;;;;;;;;;;;;;;;;;;;;;;;;;;;;;;"1262";"2014-10-13 13:01:16.928";"NST_correctLoc";"22";"1";"FINISHED";"RIGHT";"success";"1107";"0";"2014-10-13 13:01:15.664";"3";;;;;;;;;;;;;;;;;;;;;;;;;;;;;;;;;
"snake";"1994";;"Windows 7";"Rachel's Experiment (D.T.)";"1.0";"2";"1";"1";"2";"1";"1";"2014-10-13 12:53:59.924";"2014-10-13 13:07:04.730";"1";"0";"1";"121";"120";"module.training_block3.exec-2459.GoNoGo3";;;;;;;;;;;;;;;;;;;;;;;;;;;;;;;;;;;;;;;;;;;;;;;"1261";"2014-10-13 13:01:19.470";"NST_correctLoc";"20";"0";"FINISHED";"LEFT";"success";"1100";"0";"2014-10-13 13:01:18.207";"3";;;;;;;;;;;;;;;;;;;;;;;;;;;;;;;;;
"snake";"1994";;"Windows 7";"Rachel's Experiment (D.T.)";"1.0";"2";"1";"1";"2";"1";"1";"2014-10-13 12:53:59.924";"2014-10-13 13:07:04.730";"1";"0";"1";"122";"121";"module.training_block3.exec-2459.GoNoGo3";;;;;;;;;;;;;;;;;;;;;;;;;;;;;;;;;;;;;;;;;;;;;;;"1262";"2014-10-13 13:01:22.013";"NST_correctLoc";"15";"1";"FINISHED";"RIGHT";"success";"446";"0";"2014-10-13 13:01:20.750";"2";;;;;;;;;;;;;;;;;;;;;;;;;;;;;;;;;
"snake";"1994";;"Windows 7";"Rachel's Experiment (D.T.)";"1.0";"2";"1";"1";"2";"1";"1";"2014-10-13 12:53:59.924";"2014-10-13 13:07:04.730";"1";"0";"1";"123";"122";"module.training_block3.exec-2459.GoNoGo3";;;;;;;;;;;;;;;;;;;;;;;;;;;;;;;;;;;;;;;;;;;;;;;"1262";"2014-10-13 13:01:24.556";"ST_correctStop";"25";"1";"FINISHED";"NONE";"success";"0";"1";"2014-10-13 13:01:23.292";"3";;;;;;;;;;;;;;;;;;;;;;;;;;;;;;;;;
"snake";"1994";;"Windows 7";"Rachel's Experiment (D.T.)";"1.0";"2";"1";"1";"2";"1";"1";"2014-10-13 12:53:59.924";"2014-10-13 13:07:04.730";"1";"0";"1";"124";"123";"module.training_block4.exec-8463.GoNoGo4";;;;;;;;;;;;;;;;;;;;;;;;;;;;;;;;;;;;;;;;;;;;;;;;;;;;;;;;;;;"1261";"2014-10-13 13:01:35.398";"NST_correctLoc";"15";"1";"FINISHED";"RIGHT";"success";"501";"0";"2014-10-13 13:01:34.134";"2";;;;;;;;;;;;;;;;;;;;;
"snake";"1994";;"Windows 7";"Rachel's Experiment (D.T.)";"1.0";"2";"1";"1";"2";"1";"1";"2014-10-13 12:53:59.924";"2014-10-13 13:07:04.730";"1";"0";"1";"125";"124";"module.training_block4.exec-8463.GoNoGo4";;;;;;;;;;;;;;;;;;;;;;;;;;;;;;;;;;;;;;;;;;;;;;;;;;;;;;;;;;;"1262";"2014-10-13 13:01:37.941";"NST_correctLoc";"13";"1";"FINISHED";"RIGHT";"success";"446";"0";"2014-10-13 13:01:36.677";"2";;;;;;;;;;;;;;;;;;;;;
"snake";"1994";;"Windows 7";"Rachel's Experiment (D.T.)";"1.0";"2";"1";"1";"2";"1";"1";"2014-10-13 12:53:59.924";"2014-10-13 13:07:04.730";"1";"0";"1";"126";"125";"module.training_block4.exec-8463.GoNoGo4";;;;;;;;;;;;;;;;;;;;;;;;;;;;;;;;;;;;;;;;;;;;;;;;;;;;;;;;;;;"1262";"2014-10-13 13:01:40.499";"ST_correctStop";"1";"1";"FINISHED";"NONE";"success";"0";"1";"2014-10-13 13:01:39.236";"1";;;;;;;;;;;;;;;;;;;;;
"snake";"1994";;"Windows 7";"Rachel's Experiment (D.T.)";"1.0";"2";"1";"1";"2";"1";"1";"2014-10-13 12:53:59.924";"2014-10-13 13:07:04.730";"1";"0";"1";"127";"126";"module.training_block4.exec-8463.GoNoGo4";;;;;;;;;;;;;;;;;;;;;;;;;;;;;;;;;;;;;;;;;;;;;;;;;;;;;;;;;;;"1262";"2014-10-13 13:01:43.042";"NST_correctLoc";"34";"0";"FINISHED";"LEFT";"success";"393";"0";"2014-10-13 13:01:41.778";"3";;;;;;;;;;;;;;;;;;;;;
"snake";"1994";;"Windows 7";"Rachel's Experiment (D.T.)";"1.0";"2";"1";"1";"2";"1";"1";"2014-10-13 12:53:59.924";"2014-10-13 13:07:04.730";"1";"0";"1";"128";"127";"module.training_block4.exec-8463.GoNoGo4";;;;;;;;;;;;;;;;;;;;;;;;;;;;;;;;;;;;;;;;;;;;;;;;;;;;;;;;;;;"1262";"2014-10-13 13:01:45.585";"ST_correctStop";"24";"0";"FINISHED";"NONE";"success";"0";"1";"2014-10-13 13:01:44.321";"3";;;;;;;;;;;;;;;;;;;;;
"snake";"1994";;"Windows 7";"Rachel's Experiment (D.T.)";"1.0";"2";"1";"1";"2";"1";"1";"2014-10-13 12:53:59.924";"2014-10-13 13:07:04.730";"1";"0";"1";"129";"128";"module.training_block4.exec-8463.GoNoGo4";;;;;;;;;;;;;;;;;;;;;;;;;;;;;;;;;;;;;;;;;;;;;;;;;;;;;;;;;;;"1262";"2014-10-13 13:01:48.128";"ST_correctStop";"28";"0";"FINISHED";"NONE";"success";"0";"1";"2014-10-13 13:01:46.864";"3";;;;;;;;;;;;;;;;;;;;;
"snake";"1994";;"Windows 7";"Rachel's Experiment (D.T.)";"1.0";"2";"1";"1";"2";"1";"1";"2014-10-13 12:53:59.924";"2014-10-13 13:07:04.730";"1";"0";"1";"130";"129";"module.training_block4.exec-8463.GoNoGo4";;;;;;;;;;;;;;;;;;;;;;;;;;;;;;;;;;;;;;;;;;;;;;;;;;;;;;;;;;;"1262";"2014-10-13 13:01:50.670";"ST_correctStop";"19";"0";"FINISHED";"NONE";"success";"0";"1";"2014-10-13 13:01:49.407";"3";;;;;;;;;;;;;;;;;;;;;
"snake";"1994";;"Windows 7";"Rachel's Experiment (D.T.)";"1.0";"2";"1";"1";"2";"1";"1";"2014-10-13 12:53:59.924";"2014-10-13 13:07:04.730";"1";"0";"1";"131";"130";"module.training_block4.exec-8463.GoNoGo4";;;;;;;;;;;;;;;;;;;;;;;;;;;;;;;;;;;;;;;;;;;;;;;;;;;;;;;;;;;"1262";"2014-10-13 13:01:53.213";"ST_correctStop";"8";"0";"FINISHED";"NONE";"success";"0";"1";"2014-10-13 13:01:51.950";"1";;;;;;;;;;;;;;;;;;;;;
"snake";"1994";;"Windows 7";"Rachel's Experiment (D.T.)";"1.0";"2";"1";"1";"2";"1";"1";"2014-10-13 12:53:59.924";"2014-10-13 13:07:04.730";"1";"0";"1";"132";"131";"module.training_block4.exec-8463.GoNoGo4";;;;;;;;;;;;;;;;;;;;;;;;;;;;;;;;;;;;;;;;;;;;;;;;;;;;;;;;;;;"1262";"2014-10-13 13:01:55.756";"NST_correctLoc";"29";"1";"FINISHED";"RIGHT";"success";"439";"0";"2014-10-13 13:01:54.492";"3";;;;;;;;;;;;;;;;;;;;;
"snake";"1994";;"Windows 7";"Rachel's Experiment (D.T.)";"1.0";"2";"1";"1";"2";"1";"1";"2014-10-13 12:53:59.924";"2014-10-13 13:07:04.730";"1";"0";"1";"133";"132";"module.training_block4.exec-8463.GoNoGo4";;;;;;;;;;;;;;;;;;;;;;;;;;;;;;;;;;;;;;;;;;;;;;;;;;;;;;;;;;;"1262";"2014-10-13 13:01:58.314";"ST_correctStop";"0";"0";"FINISHED";"NONE";"success";"0";"1";"2014-10-13 13:01:57.051";"1";;;;;;;;;;;;;;;;;;;;;
"snake";"1994";;"Windows 7";"Rachel's Experiment (D.T.)";"1.0";"2";"1";"1";"2";"1";"1";"2014-10-13 12:53:59.924";"2014-10-13 13:07:04.730";"1";"0";"1";"134";"133";"module.training_block4.exec-8463.GoNoGo4";;;;;;;;;;;;;;;;;;;;;;;;;;;;;;;;;;;;;;;;;;;;;;;;;;;;;;;;;;;"1262";"2014-10-13 13:02:00.857";"NST_correctLoc";"9";"0";"FINISHED";"LEFT";"success";"449";"0";"2014-10-13 13:01:59.594";"2";;;;;;;;;;;;;;;;;;;;;
"snake";"1994";;"Windows 7";"Rachel's Experiment (D.T.)";"1.0";"2";"1";"1";"2";"1";"1";"2014-10-13 12:53:59.924";"2014-10-13 13:07:04.730";"1";"0";"1";"135";"134";"module.training_block4.exec-8463.GoNoGo4";;;;;;;;;;;;;;;;;;;;;;;;;;;;;;;;;;;;;;;;;;;;;;;;;;;;;;;;;;;"1261";"2014-10-13 13:02:03.416";"ST_correctStop";"5";"0";"FINISHED";"NONE";"success";"0";"1";"2014-10-13 13:02:02.152";"1";;;;;;;;;;;;;;;;;;;;;
"snake";"1994";;"Windows 7";"Rachel's Experiment (D.T.)";"1.0";"2";"1";"1";"2";"1";"1";"2014-10-13 12:53:59.924";"2014-10-13 13:07:04.730";"1";"0";"1";"136";"135";"module.training_block4.exec-8463.GoNoGo4";;;;;;;;;;;;;;;;;;;;;;;;;;;;;;;;;;;;;;;;;;;;;;;;;;;;;;;;;;;"1262";"2014-10-13 13:02:05.958";"ST_correctStop";"6";"0";"FINISHED";"NONE";"success";"0";"1";"2014-10-13 13:02:04.695";"1";;;;;;;;;;;;;;;;;;;;;
"snake";"1994";;"Windows 7";"Rachel's Experiment (D.T.)";"1.0";"2";"1";"1";"2";"1";"1";"2014-10-13 12:53:59.924";"2014-10-13 13:07:04.730";"1";"0";"1";"137";"136";"module.training_block4.exec-8463.GoNoGo4";;;;;;;;;;;;;;;;;;;;;;;;;;;;;;;;;;;;;;;;;;;;;;;;;;;;;;;;;;;"1262";"2014-10-13 13:02:08.501";"NST_correctLoc";"21";"0";"FINISHED";"LEFT";"success";"517";"0";"2014-10-13 13:02:07.238";"3";;;;;;;;;;;;;;;;;;;;;
"snake";"1994";;"Windows 7";"Rachel's Experiment (D.T.)";"1.0";"2";"1";"1";"2";"1";"1";"2014-10-13 12:53:59.924";"2014-10-13 13:07:04.730";"1";"0";"1";"138";"137";"module.training_block4.exec-8463.GoNoGo4";;;;;;;;;;;;;;;;;;;;;;;;;;;;;;;;;;;;;;;;;;;;;;;;;;;;;;;;;;;"1261";"2014-10-13 13:02:11.028";"ST_correctStop";"4";"1";"FINISHED";"NONE";"success";"0";"1";"2014-10-13 13:02:09.765";"1";;;;;;;;;;;;;;;;;;;;;
"snake";"1994";;"Windows 7";"Rachel's Experiment (D.T.)";"1.0";"2";"1";"1";"2";"1";"1";"2014-10-13 12:53:59.924";"2014-10-13 13:07:04.730";"1";"0";"1";"139";"138";"module.training_block4.exec-8463.GoNoGo4";;;;;;;;;;;;;;;;;;;;;;;;;;;;;;;;;;;;;;;;;;;;;;;;;;;;;;;;;;;"1262";"2014-10-13 13:02:13.571";"ST_correctStop";"2";"0";"FINISHED";"NONE";"success";"0";"1";"2014-10-13 13:02:12.308";"1";;;;;;;;;;;;;;;;;;;;;
"snake";"1994";;"Windows 7";"Rachel's Experiment (D.T.)";"1.0";"2";"1";"1";"2";"1";"1";"2014-10-13 12:53:59.924";"2014-10-13 13:07:04.730";"1";"0";"1";"140";"139";"module.training_block4.exec-8463.GoNoGo4";;;;;;;;;;;;;;;;;;;;;;;;;;;;;;;;;;;;;;;;;;;;;;;;;;;;;;;;;;;"1262";"2014-10-13 13:02:16.098";"NST_correctLoc";"22";"1";"FINISHED";"RIGHT";"success";"584";"0";"2014-10-13 13:02:14.835";"3";;;;;;;;;;;;;;;;;;;;;
"snake";"1994";;"Windows 7";"Rachel's Experiment (D.T.)";"1.0";"2";"1";"1";"2";"1";"1";"2014-10-13 12:53:59.924";"2014-10-13 13:07:04.730";"1";"0";"1";"141";"140";"module.training_block4.exec-8463.GoNoGo4";;;;;;;;;;;;;;;;;;;;;;;;;;;;;;;;;;;;;;;;;;;;;;;;;;;;;;;;;;;"1262";"2014-10-13 13:02:18.641";"ST_correctStop";"31";"1";"FINISHED";"NONE";"success";"0";"1";"2014-10-13 13:02:17.378";"3";;;;;;;;;;;;;;;;;;;;;
"snake";"1994";;"Windows 7";"Rachel's Experiment (D.T.)";"1.0";"2";"1";"1";"2";"1";"1";"2014-10-13 12:53:59.924";"2014-10-13 13:07:04.730";"1";"0";"1";"142";"141";"module.training_block4.exec-8463.GoNoGo4";;;;;;;;;;;;;;;;;;;;;;;;;;;;;;;;;;;;;;;;;;;;;;;;;;;;;;;;;;;"1262";"2014-10-13 13:02:21.184";"ST_correctStop";"25";"1";"FINISHED";"NONE";"success";"0";"1";"2014-10-13 13:02:19.920";"3";;;;;;;;;;;;;;;;;;;;;
"snake";"1994";;"Windows 7";"Rachel's Experiment (D.T.)";"1.0";"2";"1";"1";"2";"1";"1";"2014-10-13 12:53:59.924";"2014-10-13 13:07:04.730";"1";"0";"1";"143";"142";"module.training_block4.exec-8463.GoNoGo4";;;;;;;;;;;;;;;;;;;;;;;;;;;;;;;;;;;;;;;;;;;;;;;;;;;;;;;;;;;"1261";"2014-10-13 13:02:23.727";"ST_correctStop";"18";"1";"FINISHED";"NONE";"success";"0";"1";"2014-10-13 13:02:22.463";"3";;;;;;;;;;;;;;;;;;;;;
"snake";"1994";;"Windows 7";"Rachel's Experiment (D.T.)";"1.0";"2";"1";"1";"2";"1";"1";"2014-10-13 12:53:59.924";"2014-10-13 13:07:04.730";"1";"0";"1";"144";"143";"module.training_block4.exec-8463.GoNoGo4";;;;;;;;;;;;;;;;;;;;;;;;;;;;;;;;;;;;;;;;;;;;;;;;;;;;;;;;;;;"1262";"2014-10-13 13:02:26.270";"NST_correctLoc";"23";"0";"FINISHED";"LEFT";"success";"525";"0";"2014-10-13 13:02:25.006";"3";;;;;;;;;;;;;;;;;;;;;
"snake";"1994";;"Windows 7";"Rachel's Experiment (D.T.)";"1.0";"2";"1";"1";"2";"1";"1";"2014-10-13 12:53:59.924";"2014-10-13 13:07:04.730";"1";"0";"1";"145";"144";"module.training_block4.exec-8463.GoNoGo4";;;;;;;;;;;;;;;;;;;;;;;;;;;;;;;;;;;;;;;;;;;;;;;;;;;;;;;;;;;"1262";"2014-10-13 13:02:28.812";"NST_correctLoc";"12";"1";"FINISHED";"RIGHT";"success";"430";"0";"2014-10-13 13:02:27.549";"2";;;;;;;;;;;;;;;;;;;;;
"snake";"1994";;"Windows 7";"Rachel's Experiment (D.T.)";"1.0";"2";"1";"1";"2";"1";"1";"2014-10-13 12:53:59.924";"2014-10-13 13:07:04.730";"1";"0";"1";"146";"145";"module.training_block4.exec-8463.GoNoGo4";;;;;;;;;;;;;;;;;;;;;;;;;;;;;;;;;;;;;;;;;;;;;;;;;;;;;;;;;;;"1262";"2014-10-13 13:02:31.355";"NST_correctLoc";"27";"1";"FINISHED";"RIGHT";"success";"439";"0";"2014-10-13 13:02:30.092";"3";;;;;;;;;;;;;;;;;;;;;
"snake";"1994";;"Windows 7";"Rachel's Experiment (D.T.)";"1.0";"2";"1";"1";"2";"1";"1";"2014-10-13 12:53:59.924";"2014-10-13 13:07:04.730";"1";"0";"1";"147";"146";"module.training_block4.exec-8463.GoNoGo4";;;;;;;;;;;;;;;;;;;;;;;;;;;;;;;;;;;;;;;;;;;;;;;;;;;;;;;;;;;"1262";"2014-10-13 13:02:33.898";"ST_correctStop";"3";"1";"FINISHED";"NONE";"success";"0";"1";"2014-10-13 13:02:32.634";"1";;;;;;;;;;;;;;;;;;;;;
"snake";"1994";;"Windows 7";"Rachel's Experiment (D.T.)";"1.0";"2";"1";"1";"2";"1";"1";"2014-10-13 12:53:59.924";"2014-10-13 13:07:04.730";"1";"0";"1";"148";"147";"module.training_block4.exec-8463.GoNoGo4";;;;;;;;;;;;;;;;;;;;;;;;;;;;;;;;;;;;;;;;;;;;;;;;;;;;;;;;;;;"1262";"2014-10-13 13:02:36.441";"NST_correctLoc";"10";"1";"FINISHED";"RIGHT";"success";"473";"0";"2014-10-13 13:02:35.177";"2";;;;;;;;;;;;;;;;;;;;;
"snake";"1994";;"Windows 7";"Rachel's Experiment (D.T.)";"1.0";"2";"1";"1";"2";"1";"1";"2014-10-13 12:53:59.924";"2014-10-13 13:07:04.730";"1";"0";"1";"149";"148";"module.training_block4.exec-8463.GoNoGo4";;;;;;;;;;;;;;;;;;;;;;;;;;;;;;;;;;;;;;;;;;;;;;;;;;;;;;;;;;;"1262";"2014-10-13 13:02:38.984";"ST_correctStop";"7";"0";"FINISHED";"NONE";"success";"0";"1";"2014-10-13 13:02:37.720";"1";;;;;;;;;;;;;;;;;;;;;
"snake";"1994";;"Windows 7";"Rachel's Experiment (D.T.)";"1.0";"2";"1";"1";"2";"1";"1";"2014-10-13 12:53:59.924";"2014-10-13 13:07:04.730";"1";"0";"1";"150";"149";"module.training_block4.exec-8463.GoNoGo4";;;;;;;;;;;;;;;;;;;;;;;;;;;;;;;;;;;;;;;;;;;;;;;;;;;;;;;;;;;"1262";"2014-10-13 13:02:41.511";"NST_correctLoc";"32";"0";"FINISHED";"LEFT";"success";"475";"0";"2014-10-13 13:02:40.247";"3";;;;;;;;;;;;;;;;;;;;;
"snake";"1994";;"Windows 7";"Rachel's Experiment (D.T.)";"1.0";"2";"1";"1";"2";"1";"1";"2014-10-13 12:53:59.924";"2014-10-13 13:07:04.730";"1";"0";"1";"151";"150";"module.training_block4.exec-8463.GoNoGo4";;;;;;;;;;;;;;;;;;;;;;;;;;;;;;;;;;;;;;;;;;;;;;;;;;;;;;;;;;;"1262";"2014-10-13 13:02:44.038";"ST_correctStop";"20";"0";"FINISHED";"NONE";"success";"0";"1";"2014-10-13 13:02:42.774";"3";;;;;;;;;;;;;;;;;;;;;
"snake";"1994";;"Windows 7";"Rachel's Experiment (D.T.)";"1.0";"2";"1";"1";"2";"1";"1";"2014-10-13 12:53:59.924";"2014-10-13 13:07:04.730";"1";"0";"1";"152";"151";"module.training_block4.exec-8463.GoNoGo4";;;;;;;;;;;;;;;;;;;;;;;;;;;;;;;;;;;;;;;;;;;;;;;;;;;;;;;;;;;"1261";"2014-10-13 13:02:46.581";"NST_correctLoc";"17";"0";"FINISHED";"LEFT";"success";"485";"0";"2014-10-13 13:02:45.317";"2";;;;;;;;;;;;;;;;;;;;;
"snake";"1994";;"Windows 7";"Rachel's Experiment (D.T.)";"1.0";"2";"1";"1";"2";"1";"1";"2014-10-13 12:53:59.924";"2014-10-13 13:07:04.730";"1";"0";"1";"153";"152";"module.training_block4.exec-8463.GoNoGo4";;;;;;;;;;;;;;;;;;;;;;;;;;;;;;;;;;;;;;;;;;;;;;;;;;;;;;;;;;;"1262";"2014-10-13 13:02:49.124";"NST_correctLoc";"35";"0";"FINISHED";"LEFT";"success";"743";"0";"2014-10-13 13:02:47.860";"3";;;;;;;;;;;;;;;;;;;;;
"snake";"1994";;"Windows 7";"Rachel's Experiment (D.T.)";"1.0";"2";"1";"1";"2";"1";"1";"2014-10-13 12:53:59.924";"2014-10-13 13:07:04.730";"1";"0";"1";"154";"153";"module.training_block4.exec-8463.GoNoGo4";;;;;;;;;;;;;;;;;;;;;;;;;;;;;;;;;;;;;;;;;;;;;;;;;;;;;;;;;;;"1262";"2014-10-13 13:02:51.666";"NST_correctLoc";"11";"0";"FINISHED";"LEFT";"success";"408";"0";"2014-10-13 13:02:50.403";"2";;;;;;;;;;;;;;;;;;;;;
"snake";"1994";;"Windows 7";"Rachel's Experiment (D.T.)";"1.0";"2";"1";"1";"2";"1";"1";"2014-10-13 12:53:59.924";"2014-10-13 13:07:04.730";"1";"0";"1";"155";"154";"module.training_block4.exec-8463.GoNoGo4";;;;;;;;;;;;;;;;;;;;;;;;;;;;;;;;;;;;;;;;;;;;;;;;;;;;;;;;;;;"1262";"2014-10-13 13:02:54.209";"NST_correctLoc";"26";"0";"FINISHED";"LEFT";"success";"369";"0";"2014-10-13 13:02:52.946";"3";;;;;;;;;;;;;;;;;;;;;
"snake";"1994";;"Windows 7";"Rachel's Experiment (D.T.)";"1.0";"2";"1";"1";"2";"1";"1";"2014-10-13 12:53:59.924";"2014-10-13 13:07:04.730";"1";"0";"1";"156";"155";"module.training_block4.exec-8463.GoNoGo4";;;;;;;;;;;;;;;;;;;;;;;;;;;;;;;;;;;;;;;;;;;;;;;;;;;;;;;;;;;"1262";"2014-10-13 13:02:56.737";"ST_correctStop";"30";"1";"FINISHED";"NONE";"success";"0";"1";"2014-10-13 13:02:55.473";"3";;;;;;;;;;;;;;;;;;;;;
"snake";"1994";;"Windows 7";"Rachel's Experiment (D.T.)";"1.0";"2";"1";"1";"2";"1";"1";"2014-10-13 12:53:59.924";"2014-10-13 13:07:04.730";"1";"0";"1";"157";"156";"module.training_block4.exec-8463.GoNoGo4";;;;;;;;;;;;;;;;;;;;;;;;;;;;;;;;;;;;;;;;;;;;;;;;;;;;;;;;;;;"1262";"2014-10-13 13:02:59.264";"NST_correctLoc";"14";"1";"FINISHED";"RIGHT";"success";"450";"0";"2014-10-13 13:02:58.000";"2";;;;;;;;;;;;;;;;;;;;;
"snake";"1994";;"Windows 7";"Rachel's Experiment (D.T.)";"1.0";"2";"1";"1";"2";"1";"1";"2014-10-13 12:53:59.924";"2014-10-13 13:07:04.730";"1";"0";"1";"158";"157";"module.training_block4.exec-8463.GoNoGo4";;;;;;;;;;;;;;;;;;;;;;;;;;;;;;;;;;;;;;;;;;;;;;;;;;;;;;;;;;;"1261";"2014-10-13 13:03:01.791";"NST_correctLoc";"16";"1";"FINISHED";"RIGHT";"success";"443";"0";"2014-10-13 13:03:00.527";"2";;;;;;;;;;;;;;;;;;;;;
"snake";"1994";;"Windows 7";"Rachel's Experiment (D.T.)";"1.0";"2";"1";"1";"2";"1";"1";"2014-10-13 12:53:59.924";"2014-10-13 13:07:04.730";"1";"0";"1";"159";"158";"module.training_block4.exec-8463.GoNoGo4";;;;;;;;;;;;;;;;;;;;;;;;;;;;;;;;;;;;;;;;;;;;;;;;;;;;;;;;;;;"1262";"2014-10-13 13:03:04.334";"ST_correctStop";"33";"1";"FINISHED";"NONE";"success";"0";"1";"2014-10-13 13:03:03.070";"3";;;;;;;;;;;;;;;;;;;;;
"snake";"1994";;"Windows 7";"Rachel's Experiment (D.T.)";"1.0";"2";"1";"1";"2";"1";"1";"2014-10-13 12:53:59.924";"2014-10-13 13:07:04.730";"1";"0";"1";"160";"159";"module.devaluation_practice.exec-7584.devalPractice";;;;;;;;;;;;"12135";"2014-10-13 13:03:41.212";"0";"6";"8";"6";"5350";"1459";"2282";"2014-10-13 13:03:29.075";;;;;;;;;;;;;;;;;;;;;;;;;;;;;;;;;;;;;;;;;;;;;;;;;;;;;;;;;;;;;;;;;;;;;;
"snake";"1994";;"Windows 7";"Rachel's Experiment (D.T.)";"1.0";"2";"1";"1";"2";"1";"1";"2014-10-13 12:53:59.924";"2014-10-13 13:07:04.730";"1";"0";"1";"161";"160";"module.devaluation_practice.exec-7584.devalPractice";;;;;;;;;;;;"7924";"2014-10-13 13:03:49.153";"1";"7";"8";"7";"2065";"1787";"1045";"2014-10-13 13:03:41.228";;;;;;;;;;;;;;;;;;;;;;;;;;;;;;;;;;;;;;;;;;;;;;;;;;;;;;;;;;;;;;;;;;;;;;
"snake";"1994";;"Windows 7";"Rachel's Experiment (D.T.)";"1.0";"2";"1";"1";"2";"1";"1";"2014-10-13 12:53:59.924";"2014-10-13 13:07:04.730";"1";"0";"1";"162";"161";"module.devaluation_practice.exec-7584.devalPractice";;;;;;;;;;;;"7460";"2014-10-13 13:03:56.641";"2";"4";"9";"7";"2205";"1186";"1037";"2014-10-13 13:03:49.184";;;;;;;;;;;;;;;;;;;;;;;;;;;;;;;;;;;;;;;;;;;;;;;;;;;;;;;;;;;;;;;;;;;;;;
"snake";"1994";;"Windows 7";"Rachel's Experiment (D.T.)";"1.0";"2";"1";"1";"2";"1";"1";"2014-10-13 12:53:59.924";"2014-10-13 13:07:04.730";"1";"0";"1";"163";"162";"module.devaluation_practice.exec-7584.devalPractice";;;;;;;;;;;;"9060";"2014-10-13 13:04:05.720";"3";"4";"8";"8";"3236";"984";"1822";"2014-10-13 13:03:56.656";;;;;;;;;;;;;;;;;;;;;;;;;;;;;;;;;;;;;;;;;;;;;;;;;;;;;;;;;;;;;;;;;;;;;;
"snake";"1994";;"Windows 7";"Rachel's Experiment (D.T.)";"1.0";"2";"1";"1";"2";"1";"1";"2014-10-13 12:53:59.924";"2014-10-13 13:07:04.730";"1";"0";"1";"164";"163";"module.devaluation_block1.exec-8822.deval1";"7234";"2014-10-13 13:04:22.240";"18";"7";"9";"9";"2098";"1015";"1077";"2014-10-13 13:04:15.002";"3";;;;;;;;;;;;;;;;;;;;;;;;;;;;;;;;;;;;;;;;;;;;;;;;;;;;;;;;;;;;;;;;;;;;;;;;;;;;;;;;
"snake";"1994";;"Windows 7";"Rachel's Experiment (D.T.)";"1.0";"2";"1";"1";"2";"1";"1";"2014-10-13 12:53:59.924";"2014-10-13 13:07:04.730";"1";"0";"1";"165";"164";"module.devaluation_block1.exec-8822.deval1";"7004";"2014-10-13 13:04:29.260";"11";"7";"7";"3";"1397";"1050";"1534";"2014-10-13 13:04:22.256";"2";;;;;;;;;;;;;;;;;;;;;;;;;;;;;;;;;;;;;;;;;;;;;;;;;;;;;;;;;;;;;;;;;;;;;;;;;;;;;;;;
"snake";"1994";;"Windows 7";"Rachel's Experiment (D.T.)";"1.0";"2";"1";"1";"2";"1";"1";"2014-10-13 12:53:59.924";"2014-10-13 13:07:04.730";"1";"0";"1";"166";"165";"module.devaluation_block1.exec-8822.deval1";"8572";"2014-10-13 13:04:37.856";"13";"8";"8";"7";"2689";"1358";"1498";"2014-10-13 13:04:29.276";"2";;;;;;;;;;;;;;;;;;;;;;;;;;;;;;;;;;;;;;;;;;;;;;;;;;;;;;;;;;;;;;;;;;;;;;;;;;;;;;;;
"snake";"1994";;"Windows 7";"Rachel's Experiment (D.T.)";"1.0";"2";"1";"1";"2";"1";"1";"2014-10-13 12:53:59.924";"2014-10-13 13:07:04.730";"1";"0";"1";"167";"166";"module.devaluation_block1.exec-8822.deval1";"6758";"2014-10-13 13:04:44.704";"7";"3";"9";"8";"1295";"1257";"1173";"2014-10-13 13:04:37.949";"1";;;;;;;;;;;;;;;;;;;;;;;;;;;;;;;;;;;;;;;;;;;;;;;;;;;;;;;;;;;;;;;;;;;;;;;;;;;;;;;;
"snake";"1994";;"Windows 7";"Rachel's Experiment (D.T.)";"1.0";"2";"1";"1";"2";"1";"1";"2014-10-13 12:53:59.924";"2014-10-13 13:07:04.730";"1";"0";"1";"168";"167";"module.devaluation_block1.exec-8822.deval1";"8203";"2014-10-13 13:04:52.926";"23";"2";"8";"7";"3509";"776";"884";"2014-10-13 13:04:44.735";"3";;;;;;;;;;;;;;;;;;;;;;;;;;;;;;;;;;;;;;;;;;;;;;;;;;;;;;;;;;;;;;;;;;;;;;;;;;;;;;;;
"snake";"1994";;"Windows 7";"Rachel's Experiment (D.T.)";"1.0";"2";"1";"1";"2";"1";"1";"2014-10-13 12:53:59.924";"2014-10-13 13:07:04.730";"1";"0";"1";"169";"168";"module.devaluation_block1.exec-8822.deval1";"5922";"2014-10-13 13:04:58.869";"24";"9";"9";"9";"976";"979";"942";"2014-10-13 13:04:52.957";"3";;;;;;;;;;;;;;;;;;;;;;;;;;;;;;;;;;;;;;;;;;;;;;;;;;;;;;;;;;;;;;;;;;;;;;;;;;;;;;;;
"snake";"1994";;"Windows 7";"Rachel's Experiment (D.T.)";"1.0";"2";"1";"1";"2";"1";"1";"2014-10-13 12:53:59.924";"2014-10-13 13:07:04.730";"1";"0";"1";"170";"169";"module.devaluation_block1.exec-8822.deval1";"7492";"2014-10-13 13:05:06.388";"8";"7";"8";"8";"2872";"675";"911";"2014-10-13 13:04:58.900";"1";;;;;;;;;;;;;;;;;;;;;;;;;;;;;;;;;;;;;;;;;;;;;;;;;;;;;;;;;;;;;;;;;;;;;;;;;;;;;;;;
"snake";"1994";;"Windows 7";"Rachel's Experiment (D.T.)";"1.0";"2";"1";"1";"2";"1";"1";"2014-10-13 12:53:59.924";"2014-10-13 13:07:04.730";"1";"0";"1";"171";"170";"module.devaluation_block1.exec-8822.deval1";"6123";"2014-10-13 13:05:12.535";"2";"3";"9";"9";"952";"1001";"1142";"2014-10-13 13:05:06.404";"1";;;;;;;;;;;;;;;;;;;;;;;;;;;;;;;;;;;;;;;;;;;;;;;;;;;;;;;;;;;;;;;;;;;;;;;;;;;;;;;;
"snake";"1994";;"Windows 7";"Rachel's Experiment (D.T.)";"1.0";"2";"1";"1";"2";"1";"1";"2014-10-13 12:53:59.924";"2014-10-13 13:07:04.730";"1";"0";"1";"172";"171";"module.devaluation_block1.exec-8822.deval1";"5823";"2014-10-13 13:05:18.385";"19";"9";"9";"9";"1038";"866";"894";"2014-10-13 13:05:12.566";"3";;;;;;;;;;;;;;;;;;;;;;;;;;;;;;;;;;;;;;;;;;;;;;;;;;;;;;;;;;;;;;;;;;;;;;;;;;;;;;;;
"snake";"1994";;"Windows 7";"Rachel's Experiment (D.T.)";"1.0";"2";"1";"1";"2";"1";"1";"2014-10-13 12:53:59.924";"2014-10-13 13:07:04.730";"1";"0";"1";"173";"172";"module.devaluation_block1.exec-8822.deval1";"7523";"2014-10-13 13:05:25.935";"5";"3";"7";"9";"2908";"619";"948";"2014-10-13 13:05:18.416";"1";;;;;;;;;;;;;;;;;;;;;;;;;;;;;;;;;;;;;;;;;;;;;;;;;;;;;;;;;;;;;;;;;;;;;;;;;;;;;;;;
"snake";"1994";;"Windows 7";"Rachel's Experiment (D.T.)";"1.0";"2";"1";"1";"2";"1";"1";"2014-10-13 12:53:59.924";"2014-10-13 13:07:04.730";"1";"0";"1";"174";"173";"module.devaluation_block1.exec-8822.deval1";"7055";"2014-10-13 13:05:33.018";"0";"3";"8";"8";"1280";"1162";"1574";"2014-10-13 13:05:25.966";"1";;;;;;;;;;;;;;;;;;;;;;;;;;;;;;;;;;;;;;;;;;;;;;;;;;;;;;;;;;;;;;;;;;;;;;;;;;;;;;;;
"snake";"1994";;"Windows 7";"Rachel's Experiment (D.T.)";"1.0";"2";"1";"1";"2";"1";"1";"2014-10-13 12:53:59.924";"2014-10-13 13:07:04.730";"1";"0";"1";"175";"174";"module.devaluation_block1.exec-8822.deval1";"5739";"2014-10-13 13:05:38.774";"26";"9";"6";"8";"1131";"760";"837";"2014-10-13 13:05:33.033";"3";;;;;;;;;;;;;;;;;;;;;;;;;;;;;;;;;;;;;;;;;;;;;;;;;;;;;;;;;;;;;;;;;;;;;;;;;;;;;;;;
"snake";"1994";;"Windows 7";"Rachel's Experiment (D.T.)";"1.0";"2";"1";"1";"2";"1";"1";"2014-10-13 12:53:59.924";"2014-10-13 13:07:04.730";"1";"0";"1";"176";"175";"module.devaluation_block1.exec-8822.deval1";"6100";"2014-10-13 13:05:44.905";"17";"2";"4";"3";"959";"671";"1445";"2014-10-13 13:05:38.805";"2";;;;;;;;;;;;;;;;;;;;;;;;;;;;;;;;;;;;;;;;;;;;;;;;;;;;;;;;;;;;;;;;;;;;;;;;;;;;;;;;
"snake";"1994";;"Windows 7";"Rachel's Experiment (D.T.)";"1.0";"2";"1";"1";"2";"1";"1";"2014-10-13 12:53:59.924";"2014-10-13 13:07:04.730";"1";"0";"1";"177";"176";"module.devaluation_block1.exec-8822.deval1";"5735";"2014-10-13 13:05:50.661";"3";"3";"8";"8";"1204";"838";"656";"2014-10-13 13:05:44.936";"1";;;;;;;;;;;;;;;;;;;;;;;;;;;;;;;;;;;;;;;;;;;;;;;;;;;;;;;;;;;;;;;;;;;;;;;;;;;;;;;;
"snake";"1994";;"Windows 7";"Rachel's Experiment (D.T.)";"1.0";"2";"1";"1";"2";"1";"1";"2014-10-13 12:53:59.924";"2014-10-13 13:07:04.730";"1";"0";"1";"178";"177";"module.devaluation_block1.exec-8822.deval1";"5084";"2014-10-13 13:05:55.778";"1";"4";"8";"7";"592";"732";"724";"2014-10-13 13:05:50.692";"1";;;;;;;;;;;;;;;;;;;;;;;;;;;;;;;;;;;;;;;;;;;;;;;;;;;;;;;;;;;;;;;;;;;;;;;;;;;;;;;;
"snake";"1994";;"Windows 7";"Rachel's Experiment (D.T.)";"1.0";"2";"1";"1";"2";"1";"1";"2014-10-13 12:53:59.924";"2014-10-13 13:07:04.730";"1";"0";"1";"179";"178";"module.devaluation_block1.exec-8822.deval1";"6676";"2014-10-13 13:06:02.470";"22";"4";"9";"9";"1403";"813";"1420";"2014-10-13 13:05:55.794";"3";;;;;;;;;;;;;;;;;;;;;;;;;;;;;;;;;;;;;;;;;;;;;;;;;;;;;;;;;;;;;;;;;;;;;;;;;;;;;;;;
"snake";"1994";;"Windows 7";"Rachel's Experiment (D.T.)";"1.0";"2";"1";"1";"2";"1";"1";"2014-10-13 12:53:59.924";"2014-10-13 13:07:04.730";"1";"0";"1";"180";"179";"module.devaluation_block1.exec-8822.deval1";"6916";"2014-10-13 13:06:09.397";"4";"9";"9";"9";"2206";"823";"868";"2014-10-13 13:06:02.486";"1";;;;;;;;;;;;;;;;;;;;;;;;;;;;;;;;;;;;;;;;;;;;;;;;;;;;;;;;;;;;;;;;;;;;;;;;;;;;;;;;
"snake";"1994";;"Windows 7";"Rachel's Experiment (D.T.)";"1.0";"2";"1";"1";"2";"1";"1";"2014-10-13 12:53:59.924";"2014-10-13 13:07:04.730";"1";"0";"1";"181";"180";"module.devaluation_block1.exec-8822.deval1";"6037";"2014-10-13 13:06:15.465";"12";"8";"8";"8";"1160";"623";"1219";"2014-10-13 13:06:09.428";"2";;;;;;;;;;;;;;;;;;;;;;;;;;;;;;;;;;;;;;;;;;;;;;;;;;;;;;;;;;;;;;;;;;;;;;;;;;;;;;;;
"snake";"1994";;"Windows 7";"Rachel's Experiment (D.T.)";"1.0";"2";"1";"1";"2";"1";"1";"2014-10-13 12:53:59.924";"2014-10-13 13:07:04.730";"1";"0";"1";"182";"181";"module.devaluation_block1.exec-8822.deval1";"5084";"2014-10-13 13:06:20.566";"20";"3";"9";"8";"635";"735";"697";"2014-10-13 13:06:15.481";"3";;;;;;;;;;;;;;;;;;;;;;;;;;;;;;;;;;;;;;;;;;;;;;;;;;;;;;;;;;;;;;;;;;;;;;;;;;;;;;;;
"snake";"1994";;"Windows 7";"Rachel's Experiment (D.T.)";"1.0";"2";"1";"1";"2";"1";"1";"2014-10-13 12:53:59.924";"2014-10-13 13:07:04.730";"1";"0";"1";"183";"182";"module.devaluation_block1.exec-8822.deval1";"5848";"2014-10-13 13:06:26.448";"9";"5";"6";"5";"807";"516";"1496";"2014-10-13 13:06:20.598";"2";;;;;;;;;;;;;;;;;;;;;;;;;;;;;;;;;;;;;;;;;;;;;;;;;;;;;;;;;;;;;;;;;;;;;;;;;;;;;;;;
"snake";"1994";;"Windows 7";"Rachel's Experiment (D.T.)";"1.0";"2";"1";"1";"2";"1";"1";"2014-10-13 12:53:59.924";"2014-10-13 13:07:04.730";"1";"0";"1";"184";"183";"module.devaluation_block1.exec-8822.deval1";"5364";"2014-10-13 13:06:31.830";"21";"5";"9";"9";"357";"892";"1075";"2014-10-13 13:06:26.463";"3";;;;;;;;;;;;;;;;;;;;;;;;;;;;;;;;;;;;;;;;;;;;;;;;;;;;;;;;;;;;;;;;;;;;;;;;;;;;;;;;
"snake";"1994";;"Windows 7";"Rachel's Experiment (D.T.)";"1.0";"2";"1";"1";"2";"1";"1";"2014-10-13 12:53:59.924";"2014-10-13 13:07:04.730";"1";"0";"1";"185";"184";"module.devaluation_block1.exec-8822.deval1";"5548";"2014-10-13 13:06:37.399";"15";"2";"3";"2";"695";"938";"894";"2014-10-13 13:06:31.845";"2";;;;;;;;;;;;;;;;;;;;;;;;;;;;;;;;;;;;;;;;;;;;;;;;;;;;;;;;;;;;;;;;;;;;;;;;;;;;;;;;
"snake";"1994";;"Windows 7";"Rachel's Experiment (D.T.)";"1.0";"2";"1";"1";"2";"1";"1";"2014-10-13 12:53:59.924";"2014-10-13 13:07:04.730";"1";"0";"1";"186";"185";"module.devaluation_block1.exec-8822.deval1";"5109";"2014-10-13 13:06:42.516";"10";"6";"6";"6";"566";"496";"1017";"2014-10-13 13:06:37.414";"2";;;;;;;;;;;;;;;;;;;;;;;;;;;;;;;;;;;;;;;;;;;;;;;;;;;;;;;;;;;;;;;;;;;;;;;;;;;;;;;;
"snake";"1994";;"Windows 7";"Rachel's Experiment (D.T.)";"1.0";"2";"1";"1";"2";"1";"1";"2014-10-13 12:53:59.924";"2014-10-13 13:07:04.730";"1";"0";"1";"187";"186";"module.devaluation_block1.exec-8822.deval1";"4854";"2014-10-13 13:06:47.399";"6";"3";"7";"6";"537";"595";"684";"2014-10-13 13:06:42.547";"1";;;;;;;;;;;;;;;;;;;;;;;;;;;;;;;;;;;;;;;;;;;;;;;;;;;;;;;;;;;;;;;;;;;;;;;;;;;;;;;;
"snake";"1994";;"Windows 7";"Rachel's Experiment (D.T.)";"1.0";"2";"1";"1";"2";"1";"1";"2014-10-13 12:53:59.924";"2014-10-13 13:07:04.730";"1";"0";"1";"188";"187";"module.devaluation_block1.exec-8822.deval1";"5453";"2014-10-13 13:06:52.874";"14";"7";"9";"8";"670";"856";"900";"2014-10-13 13:06:47.414";"2";;;;;;;;;;;;;;;;;;;;;;;;;;;;;;;;;;;;;;;;;;;;;;;;;;;;;;;;;;;;;;;;;;;;;;;;;;;;;;;;
"snake";"1994";;"Windows 7";"Rachel's Experiment (D.T.)";"1.0";"2";"1";"1";"2";"1";"1";"2014-10-13 12:53:59.924";"2014-10-13 13:07:04.730";"1";"0";"1";"189";"188";"module.devaluation_block1.exec-8822.deval1";"5324";"2014-10-13 13:06:58.209";"25";"4";"8";"8";"642";"959";"696";"2014-10-13 13:06:52.890";"3";;;;;;;;;;;;;;;;;;;;;;;;;;;;;;;;;;;;;;;;;;;;;;;;;;;;;;;;;;;;;;;;;;;;;;;;;;;;;;;;
"snake";"1994";;"Windows 7";"Rachel's Experiment (D.T.)";"1.0";"2";"1";"1";"2";"1";"1";"2014-10-13 12:53:59.924";"2014-10-13 13:07:04.730";"1";"0";"1";"190";"189";"module.devaluation_block1.exec-8822.deval1";"4940";"2014-10-13 13:07:03.170";"16";"3";"3";"3";"707";"661";"546";"2014-10-13 13:06:58.225";"2";;;;;;;;;;;;;;;;;;;;;;;;;;;;;;;;;;;;;;;;;;;;;;;;;;;;;;;;;;;;;;;;;;;;;;;;;;;;;;;;
