"user.name";"user.yearOfBirth";"user.sex";"user.osName";"module.name";"module.version";"module.online.subject.code";"module.online.study.id";"module.online.module.nr";"module.online.group.nr";"session.id";"session.index";"session.startTime";"session.endTime";"session.completed";"session.node-7223.DevalQorder";"session.node-9717.conditionType";"trial.id";"trial.index";"trial.name";"trial.deval1.durationTime";"trial.deval1.endTime";"trial.deval1.icon";"trial.deval1.Resp_Attractive";"trial.deval1.Resp_Eat";"trial.deval1.Resp_Taste";"trial.deval1.RT_Attractive";"trial.deval1.RT_Eat";"trial.deval1.RT_Taste";"trial.deval1.startTime";"trial.deval1.stimulus type";"trial.devalPractice.durationTime";"trial.devalPractice.endTime";"trial.devalPractice.icon";"trial.devalPractice.Resp_Attractive";"trial.devalPractice.Resp_Eat";"trial.devalPractice.Resp_Taste";"trial.devalPractice.RT_Attractive";"trial.devalPractice.RT_Eat";"trial.devalPractice.RT_Taste";"trial.devalPractice.startTime";"trial.devalPractice.stimulus type";"trial.GoNoGo1.durationTime";"trial.GoNoGo1.endTime";"trial.GoNoGo1.Error Type";"trial.GoNoGo1.icon";"trial.GoNoGo1.location";"trial.GoNoGo1.outcome";"trial.GoNoGo1.response";"trial.GoNoGo1.result";"trial.GoNoGo1.RT";"trial.GoNoGo1.signal";"trial.GoNoGo1.startTime";"trial.GoNoGo1.stimulus type";"trial.GoNoGo2.durationTime";"trial.GoNoGo2.endTime";"trial.GoNoGo2.Error Type";"trial.GoNoGo2.icon";"trial.GoNoGo2.location";"trial.GoNoGo2.outcome";"trial.GoNoGo2.response";"trial.GoNoGo2.result";"trial.GoNoGo2.RT";"trial.GoNoGo2.signal";"trial.GoNoGo2.startTime";"trial.GoNoGo2.stimulus type";"trial.GoNoGo3.durationTime";"trial.GoNoGo3.endTime";"trial.GoNoGo3.Error Type";"trial.GoNoGo3.icon";"trial.GoNoGo3.location";"trial.GoNoGo3.outcome";"trial.GoNoGo3.response";"trial.GoNoGo3.result";"trial.GoNoGo3.RT";"trial.GoNoGo3.signal";"trial.GoNoGo3.startTime";"trial.GoNoGo3.stimulus type";"trial.GoNoGo4.durationTime";"trial.GoNoGo4.endTime";"trial.GoNoGo4.Error Type";"trial.GoNoGo4.icon";"trial.GoNoGo4.location";"trial.GoNoGo4.outcome";"trial.GoNoGo4.response";"trial.GoNoGo4.result";"trial.GoNoGo4.RT";"trial.GoNoGo4.signal";"trial.GoNoGo4.startTime";"trial.GoNoGo4.stimulus type";"trial.GoNoGo_Practice.durationTime";"trial.GoNoGo_Practice.endTime";"trial.GoNoGo_Practice.icon";"trial.GoNoGo_Practice.location";"trial.GoNoGo_Practice.outcome";"trial.GoNoGo_Practice.response";"trial.GoNoGo_Practice.result";"trial.GoNoGo_Practice.RT";"trial.GoNoGo_Practice.signal";"trial.GoNoGo_Practice.startTime";"trial.GoNoGo_Practice.stimulus type";"trial.GoNoGo_Tutorial.durationTime";"trial.GoNoGo_Tutorial.endTime";"trial.GoNoGo_Tutorial.icon";"trial.GoNoGo_Tutorial.location";"trial.GoNoGo_Tutorial.outcome";"trial.GoNoGo_Tutorial.response";"trial.GoNoGo_Tutorial.result";"trial.GoNoGo_Tutorial.RT";"trial.GoNoGo_Tutorial.signal";"trial.GoNoGo_Tutorial.startTime"
"j12345";"1994";;"Windows 7";"Rachel's Experiment (D.T.)";"1.0";"2";"1";"1";"2";"1";"1";"2014-09-30 13:09:53.597";"2014-09-30 13:26:09.629";"1";"0";"0";"1";"0";"module.GoNoGotutorial.exec-9373.GoNoGo_Tutorial";;;;;;;;;;;;;;;;;;;;;;;;;;;;;;;;;;;;;;;;;;;;;;;;;;;;;;;;;;;;;;;;;;;;;;;;;;;;;;;;;;"4001";"2014-09-30 13:11:46.082";"leftResponse";"0";"FINISHED";"LEFT";"success";"821";"0";"2014-09-30 13:11:42.081"
"j12345";"1994";;"Windows 7";"Rachel's Experiment (D.T.)";"1.0";"2";"1";"1";"2";"1";"1";"2014-09-30 13:09:53.597";"2014-09-30 13:26:09.629";"1";"0";"0";"2";"1";"module.GoNoGotutorial.exec-9373.GoNoGo_Tutorial";;;;;;;;;;;;;;;;;;;;;;;;;;;;;;;;;;;;;;;;;;;;;;;;;;;;;;;;;;;;;;;;;;;;;;;;;;;;;;;;;;"4000";"2014-09-30 13:11:51.427";"rightResponse";"1";"FINISHED";"RIGHT";"success";"692";"0";"2014-09-30 13:11:47.427"
"j12345";"1994";;"Windows 7";"Rachel's Experiment (D.T.)";"1.0";"2";"1";"1";"2";"1";"1";"2014-09-30 13:09:53.597";"2014-09-30 13:26:09.629";"1";"0";"0";"3";"2";"module.GoNoGotutorial.exec-9373.GoNoGo_Tutorial";;;;;;;;;;;;;;;;;;;;;;;;;;;;;;;;;;;;;;;;;;;;;;;;;;;;;;;;;;;;;;;;;;;;;;;;;;;;;;;;;;"4000";"2014-09-30 13:11:56.759";"quickResponse";"0";"FINISHED";"LEFT";"success";"1017";"0";"2014-09-30 13:11:52.759"
"j12345";"1994";;"Windows 7";"Rachel's Experiment (D.T.)";"1.0";"2";"1";"1";"2";"1";"1";"2014-09-30 13:09:53.597";"2014-09-30 13:26:09.629";"1";"0";"0";"4";"3";"module.GoNoGopractice.exec-4656.GoNoGo_Practice";;;;;;;;;;;;;;;;;;;;;;;;;;;;;;;;;;;;;;;;;;;;;;;;;;;;;;;;;;;;;;;;;;;;;;;"1962";"2014-09-30 13:12:04.847";"18";"0";"FINISHED";"LEFT";"success";"380";"0";"2014-09-30 13:12:02.884";"3";;;;;;;;;;
"j12345";"1994";;"Windows 7";"Rachel's Experiment (D.T.)";"1.0";"2";"1";"1";"2";"1";"1";"2014-09-30 13:09:53.597";"2014-09-30 13:26:09.629";"1";"0";"0";"5";"4";"module.GoNoGopractice.exec-4656.GoNoGo_Practice";;;;;;;;;;;;;;;;;;;;;;;;;;;;;;;;;;;;;;;;;;;;;;;;;;;;;;;;;;;;;;;;;;;;;;;"1952";"2014-09-30 13:12:08.126";"21";"1";"FINISHED";"RIGHT";"success";"493";"0";"2014-09-30 13:12:06.173";"3";;;;;;;;;;
"j12345";"1994";;"Windows 7";"Rachel's Experiment (D.T.)";"1.0";"2";"1";"1";"2";"1";"1";"2014-09-30 13:09:53.597";"2014-09-30 13:26:09.629";"1";"0";"0";"6";"5";"module.GoNoGopractice.exec-4656.GoNoGo_Practice";;;;;;;;;;;;;;;;;;;;;;;;;;;;;;;;;;;;;;;;;;;;;;;;;;;;;;;;;;;;;;;;;;;;;;;"1951";"2014-09-30 13:12:11.412";"14";"1";"FINISHED";"RIGHT";"success";"357";"0";"2014-09-30 13:12:09.460";"2";;;;;;;;;;
"j12345";"1994";;"Windows 7";"Rachel's Experiment (D.T.)";"1.0";"2";"1";"1";"2";"1";"1";"2014-09-30 13:09:53.597";"2014-09-30 13:26:09.629";"1";"0";"0";"7";"6";"module.GoNoGopractice.exec-4656.GoNoGo_Practice";;;;;;;;;;;;;;;;;;;;;;;;;;;;;;;;;;;;;;;;;;;;;;;;;;;;;;;;;;;;;;;;;;;;;;;"1951";"2014-09-30 13:12:14.688";"26";"0";"FINISHED";"LEFT";"success";"454";"0";"2014-09-30 13:12:12.736";"3";;;;;;;;;;
"j12345";"1994";;"Windows 7";"Rachel's Experiment (D.T.)";"1.0";"2";"1";"1";"2";"1";"1";"2014-09-30 13:09:53.597";"2014-09-30 13:26:09.629";"1";"0";"0";"8";"7";"module.GoNoGopractice.exec-4656.GoNoGo_Practice";;;;;;;;;;;;;;;;;;;;;;;;;;;;;;;;;;;;;;;;;;;;;;;;;;;;;;;;;;;;;;;;;;;;;;;"1954";"2014-09-30 13:12:17.964";"2";"0";"FINISHED";"LEFT";"success";"412";"0";"2014-09-30 13:12:16.009";"1";;;;;;;;;;
"j12345";"1994";;"Windows 7";"Rachel's Experiment (D.T.)";"1.0";"2";"1";"1";"2";"1";"1";"2014-09-30 13:09:53.597";"2014-09-30 13:26:09.629";"1";"0";"0";"9";"8";"module.GoNoGopractice.exec-4656.GoNoGo_Practice";;;;;;;;;;;;;;;;;;;;;;;;;;;;;;;;;;;;;;;;;;;;;;;;;;;;;;;;;;;;;;;;;;;;;;;"1952";"2014-09-30 13:12:21.235";"30";"0";"FINISHED";"LEFT";"success";"385";"0";"2014-09-30 13:12:19.282";"3";;;;;;;;;;
"j12345";"1994";;"Windows 7";"Rachel's Experiment (D.T.)";"1.0";"2";"1";"1";"2";"1";"1";"2014-09-30 13:09:53.597";"2014-09-30 13:26:09.629";"1";"0";"0";"10";"9";"module.GoNoGopractice.exec-4656.GoNoGo_Practice";;;;;;;;;;;;;;;;;;;;;;;;;;;;;;;;;;;;;;;;;;;;;;;;;;;;;;;;;;;;;;;;;;;;;;;"1953";"2014-09-30 13:12:24.508";"6";"1";"FINISHED";"RIGHT";"success";"381";"0";"2014-09-30 13:12:22.555";"1";;;;;;;;;;
"j12345";"1994";;"Windows 7";"Rachel's Experiment (D.T.)";"1.0";"2";"1";"1";"2";"1";"1";"2014-09-30 13:09:53.597";"2014-09-30 13:26:09.629";"1";"0";"0";"11";"10";"module.GoNoGopractice.exec-4656.GoNoGo_Practice";;;;;;;;;;;;;;;;;;;;;;;;;;;;;;;;;;;;;;;;;;;;;;;;;;;;;;;;;;;;;;;;;;;;;;;"1952";"2014-09-30 13:12:27.775";"34";"0";"FINISHED";"LEFT";"success";"373";"0";"2014-09-30 13:12:25.823";"3";;;;;;;;;;
"j12345";"1994";;"Windows 7";"Rachel's Experiment (D.T.)";"1.0";"2";"1";"1";"2";"1";"1";"2014-09-30 13:09:53.597";"2014-09-30 13:26:09.629";"1";"0";"0";"12";"11";"module.GoNoGopractice.exec-4656.GoNoGo_Practice";;;;;;;;;;;;;;;;;;;;;;;;;;;;;;;;;;;;;;;;;;;;;;;;;;;;;;;;;;;;;;;;;;;;;;;"1952";"2014-09-30 13:12:31.045";"23";"1";"FINISHED";"RIGHT";"success";"373";"0";"2014-09-30 13:12:29.093";"3";;;;;;;;;;
"j12345";"1994";;"Windows 7";"Rachel's Experiment (D.T.)";"1.0";"2";"1";"1";"2";"1";"1";"2014-09-30 13:09:53.597";"2014-09-30 13:26:09.629";"1";"0";"0";"13";"12";"module.GoNoGopractice.exec-4656.GoNoGo_Practice";;;;;;;;;;;;;;;;;;;;;;;;;;;;;;;;;;;;;;;;;;;;;;;;;;;;;;;;;;;;;;;;;;;;;;;"1952";"2014-09-30 13:12:34.313";"13";"0";"FINISHED";"LEFT";"success";"357";"0";"2014-09-30 13:12:32.360";"2";;;;;;;;;;
"j12345";"1994";;"Windows 7";"Rachel's Experiment (D.T.)";"1.0";"2";"1";"1";"2";"1";"1";"2014-09-30 13:09:53.597";"2014-09-30 13:26:09.629";"1";"0";"0";"14";"13";"module.GoNoGopractice.exec-4656.GoNoGo_Practice";;;;;;;;;;;;;;;;;;;;;;;;;;;;;;;;;;;;;;;;;;;;;;;;;;;;;;;;;;;;;;;;;;;;;;;"1952";"2014-09-30 13:12:37.577";"3";"1";"FINISHED";"RIGHT";"success";"414";"0";"2014-09-30 13:12:35.625";"1";;;;;;;;;;
"j12345";"1994";;"Windows 7";"Rachel's Experiment (D.T.)";"1.0";"2";"1";"1";"2";"1";"1";"2014-09-30 13:09:53.597";"2014-09-30 13:26:09.629";"1";"0";"0";"15";"14";"module.GoNoGopractice.exec-4656.GoNoGo_Practice";;;;;;;;;;;;;;;;;;;;;;;;;;;;;;;;;;;;;;;;;;;;;;;;;;;;;;;;;;;;;;;;;;;;;;;"1961";"2014-09-30 13:12:41.101";"27";"1";"FINISHED";"RIGHT";"success";"475";"0";"2014-09-30 13:12:39.138";"3";;;;;;;;;;
"j12345";"1994";;"Windows 7";"Rachel's Experiment (D.T.)";"1.0";"2";"1";"1";"2";"1";"1";"2014-09-30 13:09:53.597";"2014-09-30 13:26:09.629";"1";"0";"0";"16";"15";"module.training_block1.exec-6230.GoNoGo1";;;;;;;;;;;;;;;;;;;;;;;"1251";"2014-09-30 13:12:56.223";"NST_correctLoc";"10";"1";"FINISHED";"RIGHT";"success";"471";"0";"2014-09-30 13:12:54.972";"2";;;;;;;;;;;;;;;;;;;;;;;;;;;;;;;;;;;;;;;;;;;;;;;;;;;;;;;;;
"j12345";"1994";;"Windows 7";"Rachel's Experiment (D.T.)";"1.0";"2";"1";"1";"2";"1";"1";"2014-09-30 13:09:53.597";"2014-09-30 13:26:09.629";"1";"0";"0";"17";"16";"module.training_block1.exec-6230.GoNoGo1";;;;;;;;;;;;;;;;;;;;;;;"1249";"2014-09-30 13:12:58.790";"NST_correctLoc";"5";"0";"FINISHED";"LEFT";"success";"515";"0";"2014-09-30 13:12:57.540";"1";;;;;;;;;;;;;;;;;;;;;;;;;;;;;;;;;;;;;;;;;;;;;;;;;;;;;;;;;
"j12345";"1994";;"Windows 7";"Rachel's Experiment (D.T.)";"1.0";"2";"1";"1";"2";"1";"1";"2014-09-30 13:09:53.597";"2014-09-30 13:26:09.629";"1";"0";"0";"18";"17";"module.training_block1.exec-6230.GoNoGo1";;;;;;;;;;;;;;;;;;;;;;;"1249";"2014-09-30 13:13:01.354";"NST_correctLoc";"2";"0";"FINISHED";"LEFT";"success";"514";"0";"2014-09-30 13:13:00.104";"1";;;;;;;;;;;;;;;;;;;;;;;;;;;;;;;;;;;;;;;;;;;;;;;;;;;;;;;;;
"j12345";"1994";;"Windows 7";"Rachel's Experiment (D.T.)";"1.0";"2";"1";"1";"2";"1";"1";"2014-09-30 13:09:53.597";"2014-09-30 13:26:09.629";"1";"0";"0";"19";"18";"module.training_block1.exec-6230.GoNoGo1";;;;;;;;;;;;;;;;;;;;;;;"1249";"2014-09-30 13:13:03.917";"NST_correctLoc";"8";"1";"FINISHED";"RIGHT";"success";"391";"0";"2014-09-30 13:13:02.667";"1";;;;;;;;;;;;;;;;;;;;;;;;;;;;;;;;;;;;;;;;;;;;;;;;;;;;;;;;;
"j12345";"1994";;"Windows 7";"Rachel's Experiment (D.T.)";"1.0";"2";"1";"1";"2";"1";"1";"2014-09-30 13:09:53.597";"2014-09-30 13:26:09.629";"1";"0";"0";"20";"19";"module.training_block1.exec-6230.GoNoGo1";;;;;;;;;;;;;;;;;;;;;;;"1249";"2014-09-30 13:13:06.479";"NST_correctLoc";"29";"1";"FINISHED";"RIGHT";"success";"394";"0";"2014-09-30 13:13:05.229";"3";;;;;;;;;;;;;;;;;;;;;;;;;;;;;;;;;;;;;;;;;;;;;;;;;;;;;;;;;
"j12345";"1994";;"Windows 7";"Rachel's Experiment (D.T.)";"1.0";"2";"1";"1";"2";"1";"1";"2014-09-30 13:09:53.597";"2014-09-30 13:26:09.629";"1";"0";"0";"21";"20";"module.training_block1.exec-6230.GoNoGo1";;;;;;;;;;;;;;;;;;;;;;;"1250";"2014-09-30 13:13:09.042";"NST_correctLoc";"32";"0";"FINISHED";"LEFT";"success";"293";"0";"2014-09-30 13:13:07.792";"3";;;;;;;;;;;;;;;;;;;;;;;;;;;;;;;;;;;;;;;;;;;;;;;;;;;;;;;;;
"j12345";"1994";;"Windows 7";"Rachel's Experiment (D.T.)";"1.0";"2";"1";"1";"2";"1";"1";"2014-09-30 13:09:53.597";"2014-09-30 13:26:09.629";"1";"0";"0";"22";"21";"module.training_block1.exec-6230.GoNoGo1";;;;;;;;;;;;;;;;;;;;;;;"1249";"2014-09-30 13:13:11.596";"NST_correctLoc";"27";"0";"FINISHED";"LEFT";"success";"347";"0";"2014-09-30 13:13:10.346";"3";;;;;;;;;;;;;;;;;;;;;;;;;;;;;;;;;;;;;;;;;;;;;;;;;;;;;;;;;
"j12345";"1994";;"Windows 7";"Rachel's Experiment (D.T.)";"1.0";"2";"1";"1";"2";"1";"1";"2014-09-30 13:09:53.597";"2014-09-30 13:26:09.629";"1";"0";"0";"23";"22";"module.training_block1.exec-6230.GoNoGo1";;;;;;;;;;;;;;;;;;;;;;;"1250";"2014-09-30 13:13:14.161";"NST_correctLoc";"14";"1";"FINISHED";"RIGHT";"success";"399";"0";"2014-09-30 13:13:12.911";"2";;;;;;;;;;;;;;;;;;;;;;;;;;;;;;;;;;;;;;;;;;;;;;;;;;;;;;;;;
"j12345";"1994";;"Windows 7";"Rachel's Experiment (D.T.)";"1.0";"2";"1";"1";"2";"1";"1";"2014-09-30 13:09:53.597";"2014-09-30 13:26:09.629";"1";"0";"0";"24";"23";"module.training_block1.exec-6230.GoNoGo1";;;;;;;;;;;;;;;;;;;;;;;"1250";"2014-09-30 13:13:16.719";"NST_correctLoc";"35";"1";"FINISHED";"RIGHT";"success";"387";"0";"2014-09-30 13:13:15.469";"3";;;;;;;;;;;;;;;;;;;;;;;;;;;;;;;;;;;;;;;;;;;;;;;;;;;;;;;;;
"j12345";"1994";;"Windows 7";"Rachel's Experiment (D.T.)";"1.0";"2";"1";"1";"2";"1";"1";"2014-09-30 13:09:53.597";"2014-09-30 13:26:09.629";"1";"0";"0";"25";"24";"module.training_block1.exec-6230.GoNoGo1";;;;;;;;;;;;;;;;;;;;;;;"1250";"2014-09-30 13:13:19.278";"NST_correctLoc";"12";"0";"FINISHED";"LEFT";"success";"373";"0";"2014-09-30 13:13:18.028";"2";;;;;;;;;;;;;;;;;;;;;;;;;;;;;;;;;;;;;;;;;;;;;;;;;;;;;;;;;
"j12345";"1994";;"Windows 7";"Rachel's Experiment (D.T.)";"1.0";"2";"1";"1";"2";"1";"1";"2014-09-30 13:09:53.597";"2014-09-30 13:26:09.629";"1";"0";"0";"26";"25";"module.training_block1.exec-6230.GoNoGo1";;;;;;;;;;;;;;;;;;;;;;;"1249";"2014-09-30 13:13:21.840";"NST_correctLoc";"13";"1";"FINISHED";"RIGHT";"success";"457";"0";"2014-09-30 13:13:20.590";"2";;;;;;;;;;;;;;;;;;;;;;;;;;;;;;;;;;;;;;;;;;;;;;;;;;;;;;;;;
"j12345";"1994";;"Windows 7";"Rachel's Experiment (D.T.)";"1.0";"2";"1";"1";"2";"1";"1";"2014-09-30 13:09:53.597";"2014-09-30 13:26:09.629";"1";"0";"0";"27";"26";"module.training_block1.exec-6230.GoNoGo1";;;;;;;;;;;;;;;;;;;;;;;"1250";"2014-09-30 13:13:24.409";"NST_correctLoc";"20";"0";"FINISHED";"LEFT";"success";"335";"0";"2014-09-30 13:13:23.159";"3";;;;;;;;;;;;;;;;;;;;;;;;;;;;;;;;;;;;;;;;;;;;;;;;;;;;;;;;;
"j12345";"1994";;"Windows 7";"Rachel's Experiment (D.T.)";"1.0";"2";"1";"1";"2";"1";"1";"2014-09-30 13:09:53.597";"2014-09-30 13:26:09.629";"1";"0";"0";"28";"27";"module.training_block1.exec-6230.GoNoGo1";;;;;;;;;;;;;;;;;;;;;;;"1250";"2014-09-30 13:13:26.970";"NST_correctLoc";"23";"0";"FINISHED";"LEFT";"success";"344";"0";"2014-09-30 13:13:25.720";"3";;;;;;;;;;;;;;;;;;;;;;;;;;;;;;;;;;;;;;;;;;;;;;;;;;;;;;;;;
"j12345";"1994";;"Windows 7";"Rachel's Experiment (D.T.)";"1.0";"2";"1";"1";"2";"1";"1";"2014-09-30 13:09:53.597";"2014-09-30 13:26:09.629";"1";"0";"0";"29";"28";"module.training_block1.exec-6230.GoNoGo1";;;;;;;;;;;;;;;;;;;;;;;"1250";"2014-09-30 13:13:29.527";"NST_correctLoc";"6";"0";"FINISHED";"LEFT";"success";"334";"0";"2014-09-30 13:13:28.277";"1";;;;;;;;;;;;;;;;;;;;;;;;;;;;;;;;;;;;;;;;;;;;;;;;;;;;;;;;;
"j12345";"1994";;"Windows 7";"Rachel's Experiment (D.T.)";"1.0";"2";"1";"1";"2";"1";"1";"2014-09-30 13:09:53.597";"2014-09-30 13:26:09.629";"1";"0";"0";"30";"29";"module.training_block1.exec-6230.GoNoGo1";;;;;;;;;;;;;;;;;;;;;;;"1249";"2014-09-30 13:13:32.083";"NST_correctLoc";"18";"0";"FINISHED";"LEFT";"success";"340";"0";"2014-09-30 13:13:30.832";"3";;;;;;;;;;;;;;;;;;;;;;;;;;;;;;;;;;;;;;;;;;;;;;;;;;;;;;;;;
"j12345";"1994";;"Windows 7";"Rachel's Experiment (D.T.)";"1.0";"2";"1";"1";"2";"1";"1";"2014-09-30 13:09:53.597";"2014-09-30 13:26:09.629";"1";"0";"0";"31";"30";"module.training_block1.exec-6230.GoNoGo1";;;;;;;;;;;;;;;;;;;;;;;"1249";"2014-09-30 13:13:34.639";"NST_correctLoc";"7";"0";"FINISHED";"LEFT";"success";"349";"0";"2014-09-30 13:13:33.389";"1";;;;;;;;;;;;;;;;;;;;;;;;;;;;;;;;;;;;;;;;;;;;;;;;;;;;;;;;;
"j12345";"1994";;"Windows 7";"Rachel's Experiment (D.T.)";"1.0";"2";"1";"1";"2";"1";"1";"2014-09-30 13:09:53.597";"2014-09-30 13:26:09.629";"1";"0";"0";"32";"31";"module.training_block1.exec-6230.GoNoGo1";;;;;;;;;;;;;;;;;;;;;;;"1249";"2014-09-30 13:13:37.194";"NST_correctLoc";"26";"0";"FINISHED";"LEFT";"success";"468";"0";"2014-09-30 13:13:35.944";"3";;;;;;;;;;;;;;;;;;;;;;;;;;;;;;;;;;;;;;;;;;;;;;;;;;;;;;;;;
"j12345";"1994";;"Windows 7";"Rachel's Experiment (D.T.)";"1.0";"2";"1";"1";"2";"1";"1";"2014-09-30 13:09:53.597";"2014-09-30 13:26:09.629";"1";"0";"0";"33";"32";"module.training_block1.exec-6230.GoNoGo1";;;;;;;;;;;;;;;;;;;;;;;"1249";"2014-09-30 13:13:39.748";"NST_correctLoc";"1";"1";"FINISHED";"RIGHT";"success";"441";"0";"2014-09-30 13:13:38.498";"1";;;;;;;;;;;;;;;;;;;;;;;;;;;;;;;;;;;;;;;;;;;;;;;;;;;;;;;;;
"j12345";"1994";;"Windows 7";"Rachel's Experiment (D.T.)";"1.0";"2";"1";"1";"2";"1";"1";"2014-09-30 13:09:53.597";"2014-09-30 13:26:09.629";"1";"0";"0";"34";"33";"module.training_block1.exec-6230.GoNoGo1";;;;;;;;;;;;;;;;;;;;;;;"1250";"2014-09-30 13:13:42.301";"NST_correctLoc";"3";"0";"FINISHED";"LEFT";"success";"336";"0";"2014-09-30 13:13:41.050";"1";;;;;;;;;;;;;;;;;;;;;;;;;;;;;;;;;;;;;;;;;;;;;;;;;;;;;;;;;
"j12345";"1994";;"Windows 7";"Rachel's Experiment (D.T.)";"1.0";"2";"1";"1";"2";"1";"1";"2014-09-30 13:09:53.597";"2014-09-30 13:26:09.629";"1";"0";"0";"35";"34";"module.training_block1.exec-6230.GoNoGo1";;;;;;;;;;;;;;;;;;;;;;;"1250";"2014-09-30 13:13:44.857";"NST_correctLoc";"33";"0";"FINISHED";"LEFT";"success";"386";"0";"2014-09-30 13:13:43.607";"3";;;;;;;;;;;;;;;;;;;;;;;;;;;;;;;;;;;;;;;;;;;;;;;;;;;;;;;;;
"j12345";"1994";;"Windows 7";"Rachel's Experiment (D.T.)";"1.0";"2";"1";"1";"2";"1";"1";"2014-09-30 13:09:53.597";"2014-09-30 13:26:09.629";"1";"0";"0";"36";"35";"module.training_block1.exec-6230.GoNoGo1";;;;;;;;;;;;;;;;;;;;;;;"1250";"2014-09-30 13:13:47.416";"NST_correctLoc";"15";"0";"FINISHED";"LEFT";"success";"356";"0";"2014-09-30 13:13:46.165";"2";;;;;;;;;;;;;;;;;;;;;;;;;;;;;;;;;;;;;;;;;;;;;;;;;;;;;;;;;
"j12345";"1994";;"Windows 7";"Rachel's Experiment (D.T.)";"1.0";"2";"1";"1";"2";"1";"1";"2014-09-30 13:09:53.597";"2014-09-30 13:26:09.629";"1";"0";"0";"37";"36";"module.training_block1.exec-6230.GoNoGo1";;;;;;;;;;;;;;;;;;;;;;;"1249";"2014-09-30 13:13:49.970";"NST_correctLoc";"25";"1";"FINISHED";"RIGHT";"success";"319";"0";"2014-09-30 13:13:48.719";"3";;;;;;;;;;;;;;;;;;;;;;;;;;;;;;;;;;;;;;;;;;;;;;;;;;;;;;;;;
"j12345";"1994";;"Windows 7";"Rachel's Experiment (D.T.)";"1.0";"2";"1";"1";"2";"1";"1";"2014-09-30 13:09:53.597";"2014-09-30 13:26:09.629";"1";"0";"0";"38";"37";"module.training_block1.exec-6230.GoNoGo1";;;;;;;;;;;;;;;;;;;;;;;"1249";"2014-09-30 13:13:52.525";"NST_correctLoc";"19";"0";"FINISHED";"LEFT";"success";"507";"0";"2014-09-30 13:13:51.275";"3";;;;;;;;;;;;;;;;;;;;;;;;;;;;;;;;;;;;;;;;;;;;;;;;;;;;;;;;;
"j12345";"1994";;"Windows 7";"Rachel's Experiment (D.T.)";"1.0";"2";"1";"1";"2";"1";"1";"2014-09-30 13:09:53.597";"2014-09-30 13:26:09.629";"1";"0";"0";"39";"38";"module.training_block1.exec-6230.GoNoGo1";;;;;;;;;;;;;;;;;;;;;;;"1249";"2014-09-30 13:13:55.083";"NST_correctLoc";"11";"1";"FINISHED";"RIGHT";"success";"396";"0";"2014-09-30 13:13:53.833";"2";;;;;;;;;;;;;;;;;;;;;;;;;;;;;;;;;;;;;;;;;;;;;;;;;;;;;;;;;
"j12345";"1994";;"Windows 7";"Rachel's Experiment (D.T.)";"1.0";"2";"1";"1";"2";"1";"1";"2014-09-30 13:09:53.597";"2014-09-30 13:26:09.629";"1";"0";"0";"40";"39";"module.training_block1.exec-6230.GoNoGo1";;;;;;;;;;;;;;;;;;;;;;;"1250";"2014-09-30 13:13:57.637";"NST_correctLoc";"9";"1";"FINISHED";"RIGHT";"success";"392";"0";"2014-09-30 13:13:56.387";"2";;;;;;;;;;;;;;;;;;;;;;;;;;;;;;;;;;;;;;;;;;;;;;;;;;;;;;;;;
"j12345";"1994";;"Windows 7";"Rachel's Experiment (D.T.)";"1.0";"2";"1";"1";"2";"1";"1";"2014-09-30 13:09:53.597";"2014-09-30 13:26:09.629";"1";"0";"0";"41";"40";"module.training_block1.exec-6230.GoNoGo1";;;;;;;;;;;;;;;;;;;;;;;"1250";"2014-09-30 13:14:00.207";"NST_correctLoc";"4";"1";"FINISHED";"RIGHT";"success";"346";"0";"2014-09-30 13:13:58.957";"1";;;;;;;;;;;;;;;;;;;;;;;;;;;;;;;;;;;;;;;;;;;;;;;;;;;;;;;;;
"j12345";"1994";;"Windows 7";"Rachel's Experiment (D.T.)";"1.0";"2";"1";"1";"2";"1";"1";"2014-09-30 13:09:53.597";"2014-09-30 13:26:09.629";"1";"0";"0";"42";"41";"module.training_block1.exec-6230.GoNoGo1";;;;;;;;;;;;;;;;;;;;;;;"1250";"2014-09-30 13:14:02.759";"NST_correctLoc";"34";"0";"FINISHED";"LEFT";"success";"314";"0";"2014-09-30 13:14:01.509";"3";;;;;;;;;;;;;;;;;;;;;;;;;;;;;;;;;;;;;;;;;;;;;;;;;;;;;;;;;
"j12345";"1994";;"Windows 7";"Rachel's Experiment (D.T.)";"1.0";"2";"1";"1";"2";"1";"1";"2014-09-30 13:09:53.597";"2014-09-30 13:26:09.629";"1";"0";"0";"43";"42";"module.training_block1.exec-6230.GoNoGo1";;;;;;;;;;;;;;;;;;;;;;;"1249";"2014-09-30 13:14:05.311";"NST_correctLoc";"0";"0";"FINISHED";"LEFT";"success";"504";"0";"2014-09-30 13:14:04.061";"1";;;;;;;;;;;;;;;;;;;;;;;;;;;;;;;;;;;;;;;;;;;;;;;;;;;;;;;;;
"j12345";"1994";;"Windows 7";"Rachel's Experiment (D.T.)";"1.0";"2";"1";"1";"2";"1";"1";"2014-09-30 13:09:53.597";"2014-09-30 13:26:09.629";"1";"0";"0";"44";"43";"module.training_block1.exec-6230.GoNoGo1";;;;;;;;;;;;;;;;;;;;;;;"1249";"2014-09-30 13:14:07.863";"NST_correctLoc";"28";"1";"FINISHED";"RIGHT";"success";"289";"0";"2014-09-30 13:14:06.612";"3";;;;;;;;;;;;;;;;;;;;;;;;;;;;;;;;;;;;;;;;;;;;;;;;;;;;;;;;;
"j12345";"1994";;"Windows 7";"Rachel's Experiment (D.T.)";"1.0";"2";"1";"1";"2";"1";"1";"2014-09-30 13:09:53.597";"2014-09-30 13:26:09.629";"1";"0";"0";"45";"44";"module.training_block1.exec-6230.GoNoGo1";;;;;;;;;;;;;;;;;;;;;;;"1250";"2014-09-30 13:14:10.420";"NST_correctLoc";"24";"1";"FINISHED";"RIGHT";"success";"432";"0";"2014-09-30 13:14:09.170";"3";;;;;;;;;;;;;;;;;;;;;;;;;;;;;;;;;;;;;;;;;;;;;;;;;;;;;;;;;
"j12345";"1994";;"Windows 7";"Rachel's Experiment (D.T.)";"1.0";"2";"1";"1";"2";"1";"1";"2014-09-30 13:09:53.597";"2014-09-30 13:26:09.629";"1";"0";"0";"46";"45";"module.training_block1.exec-6230.GoNoGo1";;;;;;;;;;;;;;;;;;;;;;;"1249";"2014-09-30 13:14:12.973";"NST_correctLoc";"16";"0";"FINISHED";"LEFT";"success";"361";"0";"2014-09-30 13:14:11.723";"2";;;;;;;;;;;;;;;;;;;;;;;;;;;;;;;;;;;;;;;;;;;;;;;;;;;;;;;;;
"j12345";"1994";;"Windows 7";"Rachel's Experiment (D.T.)";"1.0";"2";"1";"1";"2";"1";"1";"2014-09-30 13:09:53.597";"2014-09-30 13:26:09.629";"1";"0";"0";"47";"46";"module.training_block1.exec-6230.GoNoGo1";;;;;;;;;;;;;;;;;;;;;;;"1249";"2014-09-30 13:14:15.526";"NST_correctLoc";"21";"1";"FINISHED";"RIGHT";"success";"327";"0";"2014-09-30 13:14:14.276";"3";;;;;;;;;;;;;;;;;;;;;;;;;;;;;;;;;;;;;;;;;;;;;;;;;;;;;;;;;
"j12345";"1994";;"Windows 7";"Rachel's Experiment (D.T.)";"1.0";"2";"1";"1";"2";"1";"1";"2014-09-30 13:09:53.597";"2014-09-30 13:26:09.629";"1";"0";"0";"48";"47";"module.training_block1.exec-6230.GoNoGo1";;;;;;;;;;;;;;;;;;;;;;;"1249";"2014-09-30 13:14:18.077";"NST_correctLoc";"31";"0";"FINISHED";"LEFT";"success";"333";"0";"2014-09-30 13:14:16.827";"3";;;;;;;;;;;;;;;;;;;;;;;;;;;;;;;;;;;;;;;;;;;;;;;;;;;;;;;;;
"j12345";"1994";;"Windows 7";"Rachel's Experiment (D.T.)";"1.0";"2";"1";"1";"2";"1";"1";"2014-09-30 13:09:53.597";"2014-09-30 13:26:09.629";"1";"0";"0";"49";"48";"module.training_block1.exec-6230.GoNoGo1";;;;;;;;;;;;;;;;;;;;;;;"1249";"2014-09-30 13:14:20.628";"NST_correctLoc";"30";"1";"FINISHED";"RIGHT";"success";"397";"0";"2014-09-30 13:14:19.378";"3";;;;;;;;;;;;;;;;;;;;;;;;;;;;;;;;;;;;;;;;;;;;;;;;;;;;;;;;;
"j12345";"1994";;"Windows 7";"Rachel's Experiment (D.T.)";"1.0";"2";"1";"1";"2";"1";"1";"2014-09-30 13:09:53.597";"2014-09-30 13:26:09.629";"1";"0";"0";"50";"49";"module.training_block1.exec-6230.GoNoGo1";;;;;;;;;;;;;;;;;;;;;;;"1249";"2014-09-30 13:14:23.179";"NST_correctLoc";"22";"0";"FINISHED";"LEFT";"success";"343";"0";"2014-09-30 13:14:21.929";"3";;;;;;;;;;;;;;;;;;;;;;;;;;;;;;;;;;;;;;;;;;;;;;;;;;;;;;;;;
"j12345";"1994";;"Windows 7";"Rachel's Experiment (D.T.)";"1.0";"2";"1";"1";"2";"1";"1";"2014-09-30 13:09:53.597";"2014-09-30 13:26:09.629";"1";"0";"0";"51";"50";"module.training_block1.exec-6230.GoNoGo1";;;;;;;;;;;;;;;;;;;;;;;"1249";"2014-09-30 13:14:25.733";"NST_correctLoc";"17";"0";"FINISHED";"LEFT";"success";"358";"0";"2014-09-30 13:14:24.483";"2";;;;;;;;;;;;;;;;;;;;;;;;;;;;;;;;;;;;;;;;;;;;;;;;;;;;;;;;;
"j12345";"1994";;"Windows 7";"Rachel's Experiment (D.T.)";"1.0";"2";"1";"1";"2";"1";"1";"2014-09-30 13:09:53.597";"2014-09-30 13:26:09.629";"1";"0";"0";"52";"51";"module.training_block2.exec-3022.GoNoGo2";;;;;;;;;;;;;;;;;;;;;;;;;;;;;;;;;;;"1249";"2014-09-30 13:14:41.197";"NST_correctLoc";"28";"1";"FINISHED";"RIGHT";"success";"419";"0";"2014-09-30 13:14:39.947";"3";;;;;;;;;;;;;;;;;;;;;;;;;;;;;;;;;;;;;;;;;;;;;
"j12345";"1994";;"Windows 7";"Rachel's Experiment (D.T.)";"1.0";"2";"1";"1";"2";"1";"1";"2014-09-30 13:09:53.597";"2014-09-30 13:26:09.629";"1";"0";"0";"53";"52";"module.training_block2.exec-3022.GoNoGo2";;;;;;;;;;;;;;;;;;;;;;;;;;;;;;;;;;;"1249";"2014-09-30 13:14:43.740";"NST_correctLoc";"25";"1";"FINISHED";"RIGHT";"success";"350";"0";"2014-09-30 13:14:42.490";"3";;;;;;;;;;;;;;;;;;;;;;;;;;;;;;;;;;;;;;;;;;;;;
"j12345";"1994";;"Windows 7";"Rachel's Experiment (D.T.)";"1.0";"2";"1";"1";"2";"1";"1";"2014-09-30 13:09:53.597";"2014-09-30 13:26:09.629";"1";"0";"0";"54";"53";"module.training_block2.exec-3022.GoNoGo2";;;;;;;;;;;;;;;;;;;;;;;;;;;;;;;;;;;"1249";"2014-09-30 13:14:46.283";"NST_correctLoc";"1";"1";"FINISHED";"RIGHT";"success";"351";"0";"2014-09-30 13:14:45.033";"1";;;;;;;;;;;;;;;;;;;;;;;;;;;;;;;;;;;;;;;;;;;;;
"j12345";"1994";;"Windows 7";"Rachel's Experiment (D.T.)";"1.0";"2";"1";"1";"2";"1";"1";"2014-09-30 13:09:53.597";"2014-09-30 13:26:09.629";"1";"0";"0";"55";"54";"module.training_block2.exec-3022.GoNoGo2";;;;;;;;;;;;;;;;;;;;;;;;;;;;;;;;;;;"1249";"2014-09-30 13:14:48.842";"NST_correctLoc";"15";"1";"FINISHED";"RIGHT";"success";"316";"0";"2014-09-30 13:14:47.592";"2";;;;;;;;;;;;;;;;;;;;;;;;;;;;;;;;;;;;;;;;;;;;;
"j12345";"1994";;"Windows 7";"Rachel's Experiment (D.T.)";"1.0";"2";"1";"1";"2";"1";"1";"2014-09-30 13:09:53.597";"2014-09-30 13:26:09.629";"1";"0";"0";"56";"55";"module.training_block2.exec-3022.GoNoGo2";;;;;;;;;;;;;;;;;;;;;;;;;;;;;;;;;;;"1249";"2014-09-30 13:14:51.386";"NST_correctLoc";"4";"0";"FINISHED";"LEFT";"success";"293";"0";"2014-09-30 13:14:50.136";"1";;;;;;;;;;;;;;;;;;;;;;;;;;;;;;;;;;;;;;;;;;;;;
"j12345";"1994";;"Windows 7";"Rachel's Experiment (D.T.)";"1.0";"2";"1";"1";"2";"1";"1";"2014-09-30 13:09:53.597";"2014-09-30 13:26:09.629";"1";"0";"0";"57";"56";"module.training_block2.exec-3022.GoNoGo2";;;;;;;;;;;;;;;;;;;;;;;;;;;;;;;;;;;"1249";"2014-09-30 13:14:53.930";"NST_correctLoc";"30";"0";"FINISHED";"LEFT";"success";"392";"0";"2014-09-30 13:14:52.680";"3";;;;;;;;;;;;;;;;;;;;;;;;;;;;;;;;;;;;;;;;;;;;;
"j12345";"1994";;"Windows 7";"Rachel's Experiment (D.T.)";"1.0";"2";"1";"1";"2";"1";"1";"2014-09-30 13:09:53.597";"2014-09-30 13:26:09.629";"1";"0";"0";"58";"57";"module.training_block2.exec-3022.GoNoGo2";;;;;;;;;;;;;;;;;;;;;;;;;;;;;;;;;;;"1249";"2014-09-30 13:14:56.475";"NST_correctLoc";"26";"1";"FINISHED";"RIGHT";"success";"324";"0";"2014-09-30 13:14:55.225";"3";;;;;;;;;;;;;;;;;;;;;;;;;;;;;;;;;;;;;;;;;;;;;
"j12345";"1994";;"Windows 7";"Rachel's Experiment (D.T.)";"1.0";"2";"1";"1";"2";"1";"1";"2014-09-30 13:09:53.597";"2014-09-30 13:26:09.629";"1";"0";"0";"59";"58";"module.training_block2.exec-3022.GoNoGo2";;;;;;;;;;;;;;;;;;;;;;;;;;;;;;;;;;;"1249";"2014-09-30 13:14:59.018";"NST_correctLoc";"19";"1";"FINISHED";"RIGHT";"success";"495";"0";"2014-09-30 13:14:57.768";"3";;;;;;;;;;;;;;;;;;;;;;;;;;;;;;;;;;;;;;;;;;;;;
"j12345";"1994";;"Windows 7";"Rachel's Experiment (D.T.)";"1.0";"2";"1";"1";"2";"1";"1";"2014-09-30 13:09:53.597";"2014-09-30 13:26:09.629";"1";"0";"0";"60";"59";"module.training_block2.exec-3022.GoNoGo2";;;;;;;;;;;;;;;;;;;;;;;;;;;;;;;;;;;"1250";"2014-09-30 13:15:01.563";"NST_correctLoc";"14";"0";"FINISHED";"LEFT";"success";"350";"0";"2014-09-30 13:15:00.313";"2";;;;;;;;;;;;;;;;;;;;;;;;;;;;;;;;;;;;;;;;;;;;;
"j12345";"1994";;"Windows 7";"Rachel's Experiment (D.T.)";"1.0";"2";"1";"1";"2";"1";"1";"2014-09-30 13:09:53.597";"2014-09-30 13:26:09.629";"1";"0";"0";"61";"60";"module.training_block2.exec-3022.GoNoGo2";;;;;;;;;;;;;;;;;;;;;;;;;;;;;;;;;;;"1249";"2014-09-30 13:15:04.107";"NST_correctLoc";"6";"0";"FINISHED";"LEFT";"success";"324";"0";"2014-09-30 13:15:02.857";"1";;;;;;;;;;;;;;;;;;;;;;;;;;;;;;;;;;;;;;;;;;;;;
"j12345";"1994";;"Windows 7";"Rachel's Experiment (D.T.)";"1.0";"2";"1";"1";"2";"1";"1";"2014-09-30 13:09:53.597";"2014-09-30 13:26:09.629";"1";"0";"0";"62";"61";"module.training_block2.exec-3022.GoNoGo2";;;;;;;;;;;;;;;;;;;;;;;;;;;;;;;;;;;"1249";"2014-09-30 13:15:06.650";"NST_correctLoc";"16";"0";"FINISHED";"LEFT";"success";"385";"0";"2014-09-30 13:15:05.400";"2";;;;;;;;;;;;;;;;;;;;;;;;;;;;;;;;;;;;;;;;;;;;;
"j12345";"1994";;"Windows 7";"Rachel's Experiment (D.T.)";"1.0";"2";"1";"1";"2";"1";"1";"2014-09-30 13:09:53.597";"2014-09-30 13:26:09.629";"1";"0";"0";"63";"62";"module.training_block2.exec-3022.GoNoGo2";;;;;;;;;;;;;;;;;;;;;;;;;;;;;;;;;;;"1249";"2014-09-30 13:15:09.193";"NST_correctLoc";"17";"0";"FINISHED";"LEFT";"success";"492";"0";"2014-09-30 13:15:07.943";"2";;;;;;;;;;;;;;;;;;;;;;;;;;;;;;;;;;;;;;;;;;;;;
"j12345";"1994";;"Windows 7";"Rachel's Experiment (D.T.)";"1.0";"2";"1";"1";"2";"1";"1";"2014-09-30 13:09:53.597";"2014-09-30 13:26:09.629";"1";"0";"0";"64";"63";"module.training_block2.exec-3022.GoNoGo2";;;;;;;;;;;;;;;;;;;;;;;;;;;;;;;;;;;"1249";"2014-09-30 13:15:11.735";"NST_correctLoc";"31";"1";"FINISHED";"RIGHT";"success";"345";"0";"2014-09-30 13:15:10.485";"3";;;;;;;;;;;;;;;;;;;;;;;;;;;;;;;;;;;;;;;;;;;;;
"j12345";"1994";;"Windows 7";"Rachel's Experiment (D.T.)";"1.0";"2";"1";"1";"2";"1";"1";"2014-09-30 13:09:53.597";"2014-09-30 13:26:09.629";"1";"0";"0";"65";"64";"module.training_block2.exec-3022.GoNoGo2";;;;;;;;;;;;;;;;;;;;;;;;;;;;;;;;;;;"1249";"2014-09-30 13:15:14.276";"NST_correctLoc";"21";"1";"FINISHED";"RIGHT";"success";"442";"0";"2014-09-30 13:15:13.026";"3";;;;;;;;;;;;;;;;;;;;;;;;;;;;;;;;;;;;;;;;;;;;;
"j12345";"1994";;"Windows 7";"Rachel's Experiment (D.T.)";"1.0";"2";"1";"1";"2";"1";"1";"2014-09-30 13:09:53.597";"2014-09-30 13:26:09.629";"1";"0";"0";"66";"65";"module.training_block2.exec-3022.GoNoGo2";;;;;;;;;;;;;;;;;;;;;;;;;;;;;;;;;;;"1249";"2014-09-30 13:15:16.817";"NST_correctLoc";"3";"1";"FINISHED";"RIGHT";"success";"419";"0";"2014-09-30 13:15:15.567";"1";;;;;;;;;;;;;;;;;;;;;;;;;;;;;;;;;;;;;;;;;;;;;
"j12345";"1994";;"Windows 7";"Rachel's Experiment (D.T.)";"1.0";"2";"1";"1";"2";"1";"1";"2014-09-30 13:09:53.597";"2014-09-30 13:26:09.629";"1";"0";"0";"67";"66";"module.training_block2.exec-3022.GoNoGo2";;;;;;;;;;;;;;;;;;;;;;;;;;;;;;;;;;;"1250";"2014-09-30 13:15:19.358";"NST_correctLoc";"22";"1";"FINISHED";"RIGHT";"success";"396";"0";"2014-09-30 13:15:18.108";"3";;;;;;;;;;;;;;;;;;;;;;;;;;;;;;;;;;;;;;;;;;;;;
"j12345";"1994";;"Windows 7";"Rachel's Experiment (D.T.)";"1.0";"2";"1";"1";"2";"1";"1";"2014-09-30 13:09:53.597";"2014-09-30 13:26:09.629";"1";"0";"0";"68";"67";"module.training_block2.exec-3022.GoNoGo2";;;;;;;;;;;;;;;;;;;;;;;;;;;;;;;;;;;"1249";"2014-09-30 13:15:21.898";"NST_correctLoc";"10";"1";"FINISHED";"RIGHT";"success";"337";"0";"2014-09-30 13:15:20.648";"2";;;;;;;;;;;;;;;;;;;;;;;;;;;;;;;;;;;;;;;;;;;;;
"j12345";"1994";;"Windows 7";"Rachel's Experiment (D.T.)";"1.0";"2";"1";"1";"2";"1";"1";"2014-09-30 13:09:53.597";"2014-09-30 13:26:09.629";"1";"0";"0";"69";"68";"module.training_block2.exec-3022.GoNoGo2";;;;;;;;;;;;;;;;;;;;;;;;;;;;;;;;;;;"1250";"2014-09-30 13:15:24.437";"NST_correctLoc";"35";"1";"FINISHED";"RIGHT";"success";"488";"0";"2014-09-30 13:15:23.187";"3";;;;;;;;;;;;;;;;;;;;;;;;;;;;;;;;;;;;;;;;;;;;;
"j12345";"1994";;"Windows 7";"Rachel's Experiment (D.T.)";"1.0";"2";"1";"1";"2";"1";"1";"2014-09-30 13:09:53.597";"2014-09-30 13:26:09.629";"1";"0";"0";"70";"69";"module.training_block2.exec-3022.GoNoGo2";;;;;;;;;;;;;;;;;;;;;;;;;;;;;;;;;;;"1249";"2014-09-30 13:15:26.979";"NST_correctLoc";"7";"0";"FINISHED";"LEFT";"success";"307";"0";"2014-09-30 13:15:25.729";"1";;;;;;;;;;;;;;;;;;;;;;;;;;;;;;;;;;;;;;;;;;;;;
"j12345";"1994";;"Windows 7";"Rachel's Experiment (D.T.)";"1.0";"2";"1";"1";"2";"1";"1";"2014-09-30 13:09:53.597";"2014-09-30 13:26:09.629";"1";"0";"0";"71";"70";"module.training_block2.exec-3022.GoNoGo2";;;;;;;;;;;;;;;;;;;;;;;;;;;;;;;;;;;"1249";"2014-09-30 13:15:29.517";"NST_correctLoc";"18";"0";"FINISHED";"LEFT";"success";"373";"0";"2014-09-30 13:15:28.267";"3";;;;;;;;;;;;;;;;;;;;;;;;;;;;;;;;;;;;;;;;;;;;;
"j12345";"1994";;"Windows 7";"Rachel's Experiment (D.T.)";"1.0";"2";"1";"1";"2";"1";"1";"2014-09-30 13:09:53.597";"2014-09-30 13:26:09.629";"1";"0";"0";"72";"71";"module.training_block2.exec-3022.GoNoGo2";;;;;;;;;;;;;;;;;;;;;;;;;;;;;;;;;;;"1249";"2014-09-30 13:15:32.056";"NST_correctLoc";"11";"1";"FINISHED";"RIGHT";"success";"322";"0";"2014-09-30 13:15:30.806";"2";;;;;;;;;;;;;;;;;;;;;;;;;;;;;;;;;;;;;;;;;;;;;
"j12345";"1994";;"Windows 7";"Rachel's Experiment (D.T.)";"1.0";"2";"1";"1";"2";"1";"1";"2014-09-30 13:09:53.597";"2014-09-30 13:26:09.629";"1";"0";"0";"73";"72";"module.training_block2.exec-3022.GoNoGo2";;;;;;;;;;;;;;;;;;;;;;;;;;;;;;;;;;;"1249";"2014-09-30 13:15:34.595";"NST_correctLoc";"12";"0";"FINISHED";"LEFT";"success";"283";"0";"2014-09-30 13:15:33.344";"2";;;;;;;;;;;;;;;;;;;;;;;;;;;;;;;;;;;;;;;;;;;;;
"j12345";"1994";;"Windows 7";"Rachel's Experiment (D.T.)";"1.0";"2";"1";"1";"2";"1";"1";"2014-09-30 13:09:53.597";"2014-09-30 13:26:09.629";"1";"0";"0";"74";"73";"module.training_block2.exec-3022.GoNoGo2";;;;;;;;;;;;;;;;;;;;;;;;;;;;;;;;;;;"1250";"2014-09-30 13:15:37.133";"NST_correctLoc";"8";"0";"FINISHED";"LEFT";"success";"358";"0";"2014-09-30 13:15:35.883";"1";;;;;;;;;;;;;;;;;;;;;;;;;;;;;;;;;;;;;;;;;;;;;
"j12345";"1994";;"Windows 7";"Rachel's Experiment (D.T.)";"1.0";"2";"1";"1";"2";"1";"1";"2014-09-30 13:09:53.597";"2014-09-30 13:26:09.629";"1";"0";"0";"75";"74";"module.training_block2.exec-3022.GoNoGo2";;;;;;;;;;;;;;;;;;;;;;;;;;;;;;;;;;;"1249";"2014-09-30 13:15:39.671";"NST_correctLoc";"29";"0";"FINISHED";"LEFT";"success";"323";"0";"2014-09-30 13:15:38.421";"3";;;;;;;;;;;;;;;;;;;;;;;;;;;;;;;;;;;;;;;;;;;;;
"j12345";"1994";;"Windows 7";"Rachel's Experiment (D.T.)";"1.0";"2";"1";"1";"2";"1";"1";"2014-09-30 13:09:53.597";"2014-09-30 13:26:09.629";"1";"0";"0";"76";"75";"module.training_block2.exec-3022.GoNoGo2";;;;;;;;;;;;;;;;;;;;;;;;;;;;;;;;;;;"1249";"2014-09-30 13:15:42.208";"NST_correctLoc";"2";"1";"FINISHED";"RIGHT";"success";"452";"0";"2014-09-30 13:15:40.958";"1";;;;;;;;;;;;;;;;;;;;;;;;;;;;;;;;;;;;;;;;;;;;;
"j12345";"1994";;"Windows 7";"Rachel's Experiment (D.T.)";"1.0";"2";"1";"1";"2";"1";"1";"2014-09-30 13:09:53.597";"2014-09-30 13:26:09.629";"1";"0";"0";"77";"76";"module.training_block2.exec-3022.GoNoGo2";;;;;;;;;;;;;;;;;;;;;;;;;;;;;;;;;;;"1250";"2014-09-30 13:15:44.756";"NST_correctLoc";"20";"0";"FINISHED";"LEFT";"success";"351";"0";"2014-09-30 13:15:43.506";"3";;;;;;;;;;;;;;;;;;;;;;;;;;;;;;;;;;;;;;;;;;;;;
"j12345";"1994";;"Windows 7";"Rachel's Experiment (D.T.)";"1.0";"2";"1";"1";"2";"1";"1";"2014-09-30 13:09:53.597";"2014-09-30 13:26:09.629";"1";"0";"0";"78";"77";"module.training_block2.exec-3022.GoNoGo2";;;;;;;;;;;;;;;;;;;;;;;;;;;;;;;;;;;"1250";"2014-09-30 13:15:47.295";"NST_correctLoc";"34";"0";"FINISHED";"LEFT";"success";"288";"0";"2014-09-30 13:15:46.045";"3";;;;;;;;;;;;;;;;;;;;;;;;;;;;;;;;;;;;;;;;;;;;;
"j12345";"1994";;"Windows 7";"Rachel's Experiment (D.T.)";"1.0";"2";"1";"1";"2";"1";"1";"2014-09-30 13:09:53.597";"2014-09-30 13:26:09.629";"1";"0";"0";"79";"78";"module.training_block2.exec-3022.GoNoGo2";;;;;;;;;;;;;;;;;;;;;;;;;;;;;;;;;;;"1250";"2014-09-30 13:15:49.830";"NST_correctLoc";"9";"0";"FINISHED";"LEFT";"success";"333";"0";"2014-09-30 13:15:48.580";"2";;;;;;;;;;;;;;;;;;;;;;;;;;;;;;;;;;;;;;;;;;;;;
"j12345";"1994";;"Windows 7";"Rachel's Experiment (D.T.)";"1.0";"2";"1";"1";"2";"1";"1";"2014-09-30 13:09:53.597";"2014-09-30 13:26:09.629";"1";"0";"0";"80";"79";"module.training_block2.exec-3022.GoNoGo2";;;;;;;;;;;;;;;;;;;;;;;;;;;;;;;;;;;"1250";"2014-09-30 13:15:52.367";"NST_correctLoc";"32";"1";"FINISHED";"RIGHT";"success";"300";"0";"2014-09-30 13:15:51.116";"3";;;;;;;;;;;;;;;;;;;;;;;;;;;;;;;;;;;;;;;;;;;;;
"j12345";"1994";;"Windows 7";"Rachel's Experiment (D.T.)";"1.0";"2";"1";"1";"2";"1";"1";"2014-09-30 13:09:53.597";"2014-09-30 13:26:09.629";"1";"0";"0";"81";"80";"module.training_block2.exec-3022.GoNoGo2";;;;;;;;;;;;;;;;;;;;;;;;;;;;;;;;;;;"1249";"2014-09-30 13:15:54.904";"NST_correctLoc";"23";"1";"FINISHED";"RIGHT";"success";"473";"0";"2014-09-30 13:15:53.654";"3";;;;;;;;;;;;;;;;;;;;;;;;;;;;;;;;;;;;;;;;;;;;;
"j12345";"1994";;"Windows 7";"Rachel's Experiment (D.T.)";"1.0";"2";"1";"1";"2";"1";"1";"2014-09-30 13:09:53.597";"2014-09-30 13:26:09.629";"1";"0";"0";"82";"81";"module.training_block2.exec-3022.GoNoGo2";;;;;;;;;;;;;;;;;;;;;;;;;;;;;;;;;;;"1249";"2014-09-30 13:15:57.444";"NST_correctLoc";"24";"0";"FINISHED";"LEFT";"success";"327";"0";"2014-09-30 13:15:56.194";"3";;;;;;;;;;;;;;;;;;;;;;;;;;;;;;;;;;;;;;;;;;;;;
"j12345";"1994";;"Windows 7";"Rachel's Experiment (D.T.)";"1.0";"2";"1";"1";"2";"1";"1";"2014-09-30 13:09:53.597";"2014-09-30 13:26:09.629";"1";"0";"0";"83";"82";"module.training_block2.exec-3022.GoNoGo2";;;;;;;;;;;;;;;;;;;;;;;;;;;;;;;;;;;"1249";"2014-09-30 13:15:59.980";"NST_correctLoc";"33";"1";"FINISHED";"RIGHT";"success";"326";"0";"2014-09-30 13:15:58.730";"3";;;;;;;;;;;;;;;;;;;;;;;;;;;;;;;;;;;;;;;;;;;;;
"j12345";"1994";;"Windows 7";"Rachel's Experiment (D.T.)";"1.0";"2";"1";"1";"2";"1";"1";"2014-09-30 13:09:53.597";"2014-09-30 13:26:09.629";"1";"0";"0";"84";"83";"module.training_block2.exec-3022.GoNoGo2";;;;;;;;;;;;;;;;;;;;;;;;;;;;;;;;;;;"1250";"2014-09-30 13:16:02.515";"NST_correctLoc";"27";"0";"FINISHED";"LEFT";"success";"316";"0";"2014-09-30 13:16:01.265";"3";;;;;;;;;;;;;;;;;;;;;;;;;;;;;;;;;;;;;;;;;;;;;
"j12345";"1994";;"Windows 7";"Rachel's Experiment (D.T.)";"1.0";"2";"1";"1";"2";"1";"1";"2014-09-30 13:09:53.597";"2014-09-30 13:26:09.629";"1";"0";"0";"85";"84";"module.training_block2.exec-3022.GoNoGo2";;;;;;;;;;;;;;;;;;;;;;;;;;;;;;;;;;;"1250";"2014-09-30 13:16:05.050";"NST_correctLoc";"13";"1";"FINISHED";"RIGHT";"success";"318";"0";"2014-09-30 13:16:03.800";"2";;;;;;;;;;;;;;;;;;;;;;;;;;;;;;;;;;;;;;;;;;;;;
"j12345";"1994";;"Windows 7";"Rachel's Experiment (D.T.)";"1.0";"2";"1";"1";"2";"1";"1";"2014-09-30 13:09:53.597";"2014-09-30 13:26:09.629";"1";"0";"0";"86";"85";"module.training_block2.exec-3022.GoNoGo2";;;;;;;;;;;;;;;;;;;;;;;;;;;;;;;;;;;"1249";"2014-09-30 13:16:07.587";"NST_correctLoc";"5";"0";"FINISHED";"LEFT";"success";"353";"0";"2014-09-30 13:16:06.337";"1";;;;;;;;;;;;;;;;;;;;;;;;;;;;;;;;;;;;;;;;;;;;;
"j12345";"1994";;"Windows 7";"Rachel's Experiment (D.T.)";"1.0";"2";"1";"1";"2";"1";"1";"2014-09-30 13:09:53.597";"2014-09-30 13:26:09.629";"1";"0";"0";"87";"86";"module.training_block2.exec-3022.GoNoGo2";;;;;;;;;;;;;;;;;;;;;;;;;;;;;;;;;;;"1250";"2014-09-30 13:16:10.124";"NST_correctLoc";"0";"0";"FINISHED";"LEFT";"success";"363";"0";"2014-09-30 13:16:08.873";"1";;;;;;;;;;;;;;;;;;;;;;;;;;;;;;;;;;;;;;;;;;;;;
"j12345";"1994";;"Windows 7";"Rachel's Experiment (D.T.)";"1.0";"2";"1";"1";"2";"1";"1";"2014-09-30 13:09:53.597";"2014-09-30 13:26:09.629";"1";"0";"0";"88";"87";"module.training_block3.exec-3772.GoNoGo3";;;;;;;;;;;;;;;;;;;;;;;;;;;;;;;;;;;;;;;;;;;;;;;"1249";"2014-09-30 13:16:21.409";"NST_correctLoc";"5";"1";"FINISHED";"RIGHT";"success";"421";"0";"2014-09-30 13:16:20.159";"1";;;;;;;;;;;;;;;;;;;;;;;;;;;;;;;;;
"j12345";"1994";;"Windows 7";"Rachel's Experiment (D.T.)";"1.0";"2";"1";"1";"2";"1";"1";"2014-09-30 13:09:53.597";"2014-09-30 13:26:09.629";"1";"0";"0";"89";"88";"module.training_block3.exec-3772.GoNoGo3";;;;;;;;;;;;;;;;;;;;;;;;;;;;;;;;;;;;;;;;;;;;;;;"1250";"2014-09-30 13:16:23.944";"NST_correctLoc";"33";"1";"FINISHED";"RIGHT";"success";"339";"0";"2014-09-30 13:16:22.694";"3";;;;;;;;;;;;;;;;;;;;;;;;;;;;;;;;;
"j12345";"1994";;"Windows 7";"Rachel's Experiment (D.T.)";"1.0";"2";"1";"1";"2";"1";"1";"2014-09-30 13:09:53.597";"2014-09-30 13:26:09.629";"1";"0";"0";"90";"89";"module.training_block3.exec-3772.GoNoGo3";;;;;;;;;;;;;;;;;;;;;;;;;;;;;;;;;;;;;;;;;;;;;;;"1250";"2014-09-30 13:16:26.482";"NST_correctLoc";"11";"0";"FINISHED";"LEFT";"success";"348";"0";"2014-09-30 13:16:25.231";"2";;;;;;;;;;;;;;;;;;;;;;;;;;;;;;;;;
"j12345";"1994";;"Windows 7";"Rachel's Experiment (D.T.)";"1.0";"2";"1";"1";"2";"1";"1";"2014-09-30 13:09:53.597";"2014-09-30 13:26:09.629";"1";"0";"0";"91";"90";"module.training_block3.exec-3772.GoNoGo3";;;;;;;;;;;;;;;;;;;;;;;;;;;;;;;;;;;;;;;;;;;;;;;"1250";"2014-09-30 13:16:29.019";"NST_correctLoc";"22";"0";"FINISHED";"LEFT";"success";"372";"0";"2014-09-30 13:16:27.769";"3";;;;;;;;;;;;;;;;;;;;;;;;;;;;;;;;;
"j12345";"1994";;"Windows 7";"Rachel's Experiment (D.T.)";"1.0";"2";"1";"1";"2";"1";"1";"2014-09-30 13:09:53.597";"2014-09-30 13:26:09.629";"1";"0";"0";"92";"91";"module.training_block3.exec-3772.GoNoGo3";;;;;;;;;;;;;;;;;;;;;;;;;;;;;;;;;;;;;;;;;;;;;;;"1250";"2014-09-30 13:16:31.554";"NST_correctLoc";"21";"0";"FINISHED";"LEFT";"success";"358";"0";"2014-09-30 13:16:30.304";"3";;;;;;;;;;;;;;;;;;;;;;;;;;;;;;;;;
"j12345";"1994";;"Windows 7";"Rachel's Experiment (D.T.)";"1.0";"2";"1";"1";"2";"1";"1";"2014-09-30 13:09:53.597";"2014-09-30 13:26:09.629";"1";"0";"0";"93";"92";"module.training_block3.exec-3772.GoNoGo3";;;;;;;;;;;;;;;;;;;;;;;;;;;;;;;;;;;;;;;;;;;;;;;"1250";"2014-09-30 13:16:34.088";"NST_correctLoc";"34";"1";"FINISHED";"RIGHT";"success";"489";"0";"2014-09-30 13:16:32.838";"3";;;;;;;;;;;;;;;;;;;;;;;;;;;;;;;;;
"j12345";"1994";;"Windows 7";"Rachel's Experiment (D.T.)";"1.0";"2";"1";"1";"2";"1";"1";"2014-09-30 13:09:53.597";"2014-09-30 13:26:09.629";"1";"0";"0";"94";"93";"module.training_block3.exec-3772.GoNoGo3";;;;;;;;;;;;;;;;;;;;;;;;;;;;;;;;;;;;;;;;;;;;;;;"1250";"2014-09-30 13:16:36.623";"NST_correctLoc";"16";"0";"FINISHED";"LEFT";"success";"318";"0";"2014-09-30 13:16:35.373";"2";;;;;;;;;;;;;;;;;;;;;;;;;;;;;;;;;
"j12345";"1994";;"Windows 7";"Rachel's Experiment (D.T.)";"1.0";"2";"1";"1";"2";"1";"1";"2014-09-30 13:09:53.597";"2014-09-30 13:26:09.629";"1";"0";"0";"95";"94";"module.training_block3.exec-3772.GoNoGo3";;;;;;;;;;;;;;;;;;;;;;;;;;;;;;;;;;;;;;;;;;;;;;;"1250";"2014-09-30 13:16:39.158";"NST_correctLoc";"35";"0";"FINISHED";"LEFT";"success";"336";"0";"2014-09-30 13:16:37.908";"3";;;;;;;;;;;;;;;;;;;;;;;;;;;;;;;;;
"j12345";"1994";;"Windows 7";"Rachel's Experiment (D.T.)";"1.0";"2";"1";"1";"2";"1";"1";"2014-09-30 13:09:53.597";"2014-09-30 13:26:09.629";"1";"0";"0";"96";"95";"module.training_block3.exec-3772.GoNoGo3";;;;;;;;;;;;;;;;;;;;;;;;;;;;;;;;;;;;;;;;;;;;;;;"1249";"2014-09-30 13:16:41.692";"NST_correctLoc";"30";"1";"FINISHED";"RIGHT";"success";"314";"0";"2014-09-30 13:16:40.442";"3";;;;;;;;;;;;;;;;;;;;;;;;;;;;;;;;;
"j12345";"1994";;"Windows 7";"Rachel's Experiment (D.T.)";"1.0";"2";"1";"1";"2";"1";"1";"2014-09-30 13:09:53.597";"2014-09-30 13:26:09.629";"1";"0";"0";"97";"96";"module.training_block3.exec-3772.GoNoGo3";;;;;;;;;;;;;;;;;;;;;;;;;;;;;;;;;;;;;;;;;;;;;;;"1249";"2014-09-30 13:16:44.226";"NST_correctLoc";"7";"0";"FINISHED";"LEFT";"success";"378";"0";"2014-09-30 13:16:42.976";"1";;;;;;;;;;;;;;;;;;;;;;;;;;;;;;;;;
"j12345";"1994";;"Windows 7";"Rachel's Experiment (D.T.)";"1.0";"2";"1";"1";"2";"1";"1";"2014-09-30 13:09:53.597";"2014-09-30 13:26:09.629";"1";"0";"0";"98";"97";"module.training_block3.exec-3772.GoNoGo3";;;;;;;;;;;;;;;;;;;;;;;;;;;;;;;;;;;;;;;;;;;;;;;"1250";"2014-09-30 13:16:46.771";"NST_correctLoc";"10";"1";"FINISHED";"RIGHT";"success";"316";"0";"2014-09-30 13:16:45.521";"2";;;;;;;;;;;;;;;;;;;;;;;;;;;;;;;;;
"j12345";"1994";;"Windows 7";"Rachel's Experiment (D.T.)";"1.0";"2";"1";"1";"2";"1";"1";"2014-09-30 13:09:53.597";"2014-09-30 13:26:09.629";"1";"0";"0";"99";"98";"module.training_block3.exec-3772.GoNoGo3";;;;;;;;;;;;;;;;;;;;;;;;;;;;;;;;;;;;;;;;;;;;;;;"1250";"2014-09-30 13:16:49.305";"NST_correctLoc";"24";"1";"FINISHED";"RIGHT";"success";"350";"0";"2014-09-30 13:16:48.055";"3";;;;;;;;;;;;;;;;;;;;;;;;;;;;;;;;;
"j12345";"1994";;"Windows 7";"Rachel's Experiment (D.T.)";"1.0";"2";"1";"1";"2";"1";"1";"2014-09-30 13:09:53.597";"2014-09-30 13:26:09.629";"1";"0";"0";"100";"99";"module.training_block3.exec-3772.GoNoGo3";;;;;;;;;;;;;;;;;;;;;;;;;;;;;;;;;;;;;;;;;;;;;;;"1249";"2014-09-30 13:16:51.840";"NST_correctLoc";"9";"0";"FINISHED";"LEFT";"success";"290";"0";"2014-09-30 13:16:50.590";"2";;;;;;;;;;;;;;;;;;;;;;;;;;;;;;;;;
"j12345";"1994";;"Windows 7";"Rachel's Experiment (D.T.)";"1.0";"2";"1";"1";"2";"1";"1";"2014-09-30 13:09:53.597";"2014-09-30 13:26:09.629";"1";"0";"0";"101";"100";"module.training_block3.exec-3772.GoNoGo3";;;;;;;;;;;;;;;;;;;;;;;;;;;;;;;;;;;;;;;;;;;;;;;"1250";"2014-09-30 13:16:54.375";"NST_correctLoc";"12";"1";"FINISHED";"RIGHT";"success";"348";"0";"2014-09-30 13:16:53.125";"2";;;;;;;;;;;;;;;;;;;;;;;;;;;;;;;;;
"j12345";"1994";;"Windows 7";"Rachel's Experiment (D.T.)";"1.0";"2";"1";"1";"2";"1";"1";"2014-09-30 13:09:53.597";"2014-09-30 13:26:09.629";"1";"0";"0";"102";"101";"module.training_block3.exec-3772.GoNoGo3";;;;;;;;;;;;;;;;;;;;;;;;;;;;;;;;;;;;;;;;;;;;;;;"1249";"2014-09-30 13:16:56.911";"NST_correctLoc";"18";"0";"FINISHED";"LEFT";"success";"307";"0";"2014-09-30 13:16:55.661";"3";;;;;;;;;;;;;;;;;;;;;;;;;;;;;;;;;
"j12345";"1994";;"Windows 7";"Rachel's Experiment (D.T.)";"1.0";"2";"1";"1";"2";"1";"1";"2014-09-30 13:09:53.597";"2014-09-30 13:26:09.629";"1";"0";"0";"103";"102";"module.training_block3.exec-3772.GoNoGo3";;;;;;;;;;;;;;;;;;;;;;;;;;;;;;;;;;;;;;;;;;;;;;;"1250";"2014-09-30 13:16:59.445";"NST_correctLoc";"3";"1";"FINISHED";"RIGHT";"success";"311";"0";"2014-09-30 13:16:58.195";"1";;;;;;;;;;;;;;;;;;;;;;;;;;;;;;;;;
"j12345";"1994";;"Windows 7";"Rachel's Experiment (D.T.)";"1.0";"2";"1";"1";"2";"1";"1";"2014-09-30 13:09:53.597";"2014-09-30 13:26:09.629";"1";"0";"0";"104";"103";"module.training_block3.exec-3772.GoNoGo3";;;;;;;;;;;;;;;;;;;;;;;;;;;;;;;;;;;;;;;;;;;;;;;"1249";"2014-09-30 13:17:01.980";"NST_correctLoc";"27";"0";"FINISHED";"LEFT";"success";"306";"0";"2014-09-30 13:17:00.729";"3";;;;;;;;;;;;;;;;;;;;;;;;;;;;;;;;;
"j12345";"1994";;"Windows 7";"Rachel's Experiment (D.T.)";"1.0";"2";"1";"1";"2";"1";"1";"2014-09-30 13:09:53.597";"2014-09-30 13:26:09.629";"1";"0";"0";"105";"104";"module.training_block3.exec-3772.GoNoGo3";;;;;;;;;;;;;;;;;;;;;;;;;;;;;;;;;;;;;;;;;;;;;;;"1250";"2014-09-30 13:17:04.514";"NST_correctLoc";"29";"0";"FINISHED";"LEFT";"success";"327";"0";"2014-09-30 13:17:03.264";"3";;;;;;;;;;;;;;;;;;;;;;;;;;;;;;;;;
"j12345";"1994";;"Windows 7";"Rachel's Experiment (D.T.)";"1.0";"2";"1";"1";"2";"1";"1";"2014-09-30 13:09:53.597";"2014-09-30 13:26:09.629";"1";"0";"0";"106";"105";"module.training_block3.exec-3772.GoNoGo3";;;;;;;;;;;;;;;;;;;;;;;;;;;;;;;;;;;;;;;;;;;;;;;"1250";"2014-09-30 13:17:07.050";"NST_correctLoc";"23";"1";"FINISHED";"RIGHT";"success";"325";"0";"2014-09-30 13:17:05.800";"3";;;;;;;;;;;;;;;;;;;;;;;;;;;;;;;;;
"j12345";"1994";;"Windows 7";"Rachel's Experiment (D.T.)";"1.0";"2";"1";"1";"2";"1";"1";"2014-09-30 13:09:53.597";"2014-09-30 13:26:09.629";"1";"0";"0";"107";"106";"module.training_block3.exec-3772.GoNoGo3";;;;;;;;;;;;;;;;;;;;;;;;;;;;;;;;;;;;;;;;;;;;;;;"1250";"2014-09-30 13:17:09.584";"NST_correctLoc";"26";"0";"FINISHED";"LEFT";"success";"284";"0";"2014-09-30 13:17:08.334";"3";;;;;;;;;;;;;;;;;;;;;;;;;;;;;;;;;
"j12345";"1994";;"Windows 7";"Rachel's Experiment (D.T.)";"1.0";"2";"1";"1";"2";"1";"1";"2014-09-30 13:09:53.597";"2014-09-30 13:26:09.629";"1";"0";"0";"108";"107";"module.training_block3.exec-3772.GoNoGo3";;;;;;;;;;;;;;;;;;;;;;;;;;;;;;;;;;;;;;;;;;;;;;;"1250";"2014-09-30 13:17:12.118";"NST_correctLoc";"8";"1";"FINISHED";"RIGHT";"success";"333";"0";"2014-09-30 13:17:10.868";"1";;;;;;;;;;;;;;;;;;;;;;;;;;;;;;;;;
"j12345";"1994";;"Windows 7";"Rachel's Experiment (D.T.)";"1.0";"2";"1";"1";"2";"1";"1";"2014-09-30 13:09:53.597";"2014-09-30 13:26:09.629";"1";"0";"0";"109";"108";"module.training_block3.exec-3772.GoNoGo3";;;;;;;;;;;;;;;;;;;;;;;;;;;;;;;;;;;;;;;;;;;;;;;"1250";"2014-09-30 13:17:14.652";"NST_correctLoc";"13";"0";"FINISHED";"LEFT";"success";"309";"0";"2014-09-30 13:17:13.402";"2";;;;;;;;;;;;;;;;;;;;;;;;;;;;;;;;;
"j12345";"1994";;"Windows 7";"Rachel's Experiment (D.T.)";"1.0";"2";"1";"1";"2";"1";"1";"2014-09-30 13:09:53.597";"2014-09-30 13:26:09.629";"1";"0";"0";"110";"109";"module.training_block3.exec-3772.GoNoGo3";;;;;;;;;;;;;;;;;;;;;;;;;;;;;;;;;;;;;;;;;;;;;;;"1250";"2014-09-30 13:17:17.186";"NST_correctLoc";"4";"1";"FINISHED";"RIGHT";"success";"317";"0";"2014-09-30 13:17:15.936";"1";;;;;;;;;;;;;;;;;;;;;;;;;;;;;;;;;
"j12345";"1994";;"Windows 7";"Rachel's Experiment (D.T.)";"1.0";"2";"1";"1";"2";"1";"1";"2014-09-30 13:09:53.597";"2014-09-30 13:26:09.629";"1";"0";"0";"111";"110";"module.training_block3.exec-3772.GoNoGo3";;;;;;;;;;;;;;;;;;;;;;;;;;;;;;;;;;;;;;;;;;;;;;;"1249";"2014-09-30 13:17:19.721";"NST_correctLoc";"25";"1";"FINISHED";"RIGHT";"success";"335";"0";"2014-09-30 13:17:18.470";"3";;;;;;;;;;;;;;;;;;;;;;;;;;;;;;;;;
"j12345";"1994";;"Windows 7";"Rachel's Experiment (D.T.)";"1.0";"2";"1";"1";"2";"1";"1";"2014-09-30 13:09:53.597";"2014-09-30 13:26:09.629";"1";"0";"0";"112";"111";"module.training_block3.exec-3772.GoNoGo3";;;;;;;;;;;;;;;;;;;;;;;;;;;;;;;;;;;;;;;;;;;;;;;"1249";"2014-09-30 13:17:22.256";"NST_correctLoc";"20";"1";"FINISHED";"RIGHT";"success";"361";"0";"2014-09-30 13:17:21.006";"3";;;;;;;;;;;;;;;;;;;;;;;;;;;;;;;;;
"j12345";"1994";;"Windows 7";"Rachel's Experiment (D.T.)";"1.0";"2";"1";"1";"2";"1";"1";"2014-09-30 13:09:53.597";"2014-09-30 13:26:09.629";"1";"0";"0";"113";"112";"module.training_block3.exec-3772.GoNoGo3";;;;;;;;;;;;;;;;;;;;;;;;;;;;;;;;;;;;;;;;;;;;;;;"1250";"2014-09-30 13:17:24.790";"NST_correctLoc";"2";"0";"FINISHED";"LEFT";"success";"454";"0";"2014-09-30 13:17:23.540";"1";;;;;;;;;;;;;;;;;;;;;;;;;;;;;;;;;
"j12345";"1994";;"Windows 7";"Rachel's Experiment (D.T.)";"1.0";"2";"1";"1";"2";"1";"1";"2014-09-30 13:09:53.597";"2014-09-30 13:26:09.629";"1";"0";"0";"114";"113";"module.training_block3.exec-3772.GoNoGo3";;;;;;;;;;;;;;;;;;;;;;;;;;;;;;;;;;;;;;;;;;;;;;;"1249";"2014-09-30 13:17:27.326";"NST_correctLoc";"17";"0";"FINISHED";"LEFT";"success";"294";"0";"2014-09-30 13:17:26.076";"2";;;;;;;;;;;;;;;;;;;;;;;;;;;;;;;;;
"j12345";"1994";;"Windows 7";"Rachel's Experiment (D.T.)";"1.0";"2";"1";"1";"2";"1";"1";"2014-09-30 13:09:53.597";"2014-09-30 13:26:09.629";"1";"0";"0";"115";"114";"module.training_block3.exec-3772.GoNoGo3";;;;;;;;;;;;;;;;;;;;;;;;;;;;;;;;;;;;;;;;;;;;;;;"1249";"2014-09-30 13:17:29.859";"NST_correctLoc";"31";"1";"FINISHED";"RIGHT";"success";"291";"0";"2014-09-30 13:17:28.609";"3";;;;;;;;;;;;;;;;;;;;;;;;;;;;;;;;;
"j12345";"1994";;"Windows 7";"Rachel's Experiment (D.T.)";"1.0";"2";"1";"1";"2";"1";"1";"2014-09-30 13:09:53.597";"2014-09-30 13:26:09.629";"1";"0";"0";"116";"115";"module.training_block3.exec-3772.GoNoGo3";;;;;;;;;;;;;;;;;;;;;;;;;;;;;;;;;;;;;;;;;;;;;;;"1250";"2014-09-30 13:17:32.393";"NST_correctLoc";"15";"0";"FINISHED";"LEFT";"success";"415";"0";"2014-09-30 13:17:31.143";"2";;;;;;;;;;;;;;;;;;;;;;;;;;;;;;;;;
"j12345";"1994";;"Windows 7";"Rachel's Experiment (D.T.)";"1.0";"2";"1";"1";"2";"1";"1";"2014-09-30 13:09:53.597";"2014-09-30 13:26:09.629";"1";"0";"0";"117";"116";"module.training_block3.exec-3772.GoNoGo3";;;;;;;;;;;;;;;;;;;;;;;;;;;;;;;;;;;;;;;;;;;;;;;"1250";"2014-09-30 13:17:34.927";"NST_wrongLoc";"32";"0";"FINISHED";"RIGHT";"failure";"435";"0";"2014-09-30 13:17:33.677";"3";;;;;;;;;;;;;;;;;;;;;;;;;;;;;;;;;
"j12345";"1994";;"Windows 7";"Rachel's Experiment (D.T.)";"1.0";"2";"1";"1";"2";"1";"1";"2014-09-30 13:09:53.597";"2014-09-30 13:26:09.629";"1";"0";"0";"118";"117";"module.training_block3.exec-3772.GoNoGo3";;;;;;;;;;;;;;;;;;;;;;;;;;;;;;;;;;;;;;;;;;;;;;;"1250";"2014-09-30 13:17:37.463";"NST_correctLoc";"1";"0";"FINISHED";"LEFT";"success";"367";"0";"2014-09-30 13:17:36.212";"1";;;;;;;;;;;;;;;;;;;;;;;;;;;;;;;;;
"j12345";"1994";;"Windows 7";"Rachel's Experiment (D.T.)";"1.0";"2";"1";"1";"2";"1";"1";"2014-09-30 13:09:53.597";"2014-09-30 13:26:09.629";"1";"0";"0";"119";"118";"module.training_block3.exec-3772.GoNoGo3";;;;;;;;;;;;;;;;;;;;;;;;;;;;;;;;;;;;;;;;;;;;;;;"1250";"2014-09-30 13:17:39.998";"NST_correctLoc";"0";"0";"FINISHED";"LEFT";"success";"376";"0";"2014-09-30 13:17:38.748";"1";;;;;;;;;;;;;;;;;;;;;;;;;;;;;;;;;
"j12345";"1994";;"Windows 7";"Rachel's Experiment (D.T.)";"1.0";"2";"1";"1";"2";"1";"1";"2014-09-30 13:09:53.597";"2014-09-30 13:26:09.629";"1";"0";"0";"120";"119";"module.training_block3.exec-3772.GoNoGo3";;;;;;;;;;;;;;;;;;;;;;;;;;;;;;;;;;;;;;;;;;;;;;;"1250";"2014-09-30 13:17:42.540";"NST_correctLoc";"6";"1";"FINISHED";"RIGHT";"success";"351";"0";"2014-09-30 13:17:41.290";"1";;;;;;;;;;;;;;;;;;;;;;;;;;;;;;;;;
"j12345";"1994";;"Windows 7";"Rachel's Experiment (D.T.)";"1.0";"2";"1";"1";"2";"1";"1";"2014-09-30 13:09:53.597";"2014-09-30 13:26:09.629";"1";"0";"0";"121";"120";"module.training_block3.exec-3772.GoNoGo3";;;;;;;;;;;;;;;;;;;;;;;;;;;;;;;;;;;;;;;;;;;;;;;"1250";"2014-09-30 13:17:45.073";"NST_correctLoc";"19";"1";"FINISHED";"RIGHT";"success";"395";"0";"2014-09-30 13:17:43.823";"3";;;;;;;;;;;;;;;;;;;;;;;;;;;;;;;;;
"j12345";"1994";;"Windows 7";"Rachel's Experiment (D.T.)";"1.0";"2";"1";"1";"2";"1";"1";"2014-09-30 13:09:53.597";"2014-09-30 13:26:09.629";"1";"0";"0";"122";"121";"module.training_block3.exec-3772.GoNoGo3";;;;;;;;;;;;;;;;;;;;;;;;;;;;;;;;;;;;;;;;;;;;;;;"1250";"2014-09-30 13:17:47.606";"NST_correctLoc";"14";"1";"FINISHED";"RIGHT";"success";"468";"0";"2014-09-30 13:17:46.356";"2";;;;;;;;;;;;;;;;;;;;;;;;;;;;;;;;;
"j12345";"1994";;"Windows 7";"Rachel's Experiment (D.T.)";"1.0";"2";"1";"1";"2";"1";"1";"2014-09-30 13:09:53.597";"2014-09-30 13:26:09.629";"1";"0";"0";"123";"122";"module.training_block3.exec-3772.GoNoGo3";;;;;;;;;;;;;;;;;;;;;;;;;;;;;;;;;;;;;;;;;;;;;;;"1249";"2014-09-30 13:17:50.144";"NST_correctLoc";"28";"1";"FINISHED";"RIGHT";"success";"506";"0";"2014-09-30 13:17:48.894";"3";;;;;;;;;;;;;;;;;;;;;;;;;;;;;;;;;
"j12345";"1994";;"Windows 7";"Rachel's Experiment (D.T.)";"1.0";"2";"1";"1";"2";"1";"1";"2014-09-30 13:09:53.597";"2014-09-30 13:26:09.629";"1";"0";"0";"124";"123";"module.training_block4.exec-5693.GoNoGo4";;;;;;;;;;;;;;;;;;;;;;;;;;;;;;;;;;;;;;;;;;;;;;;;;;;;;;;;;;;"1249";"2014-09-30 13:18:09.364";"NST_correctLoc";"32";"1";"FINISHED";"RIGHT";"success";"375";"0";"2014-09-30 13:18:08.114";"3";;;;;;;;;;;;;;;;;;;;;
"j12345";"1994";;"Windows 7";"Rachel's Experiment (D.T.)";"1.0";"2";"1";"1";"2";"1";"1";"2014-09-30 13:09:53.597";"2014-09-30 13:26:09.629";"1";"0";"0";"125";"124";"module.training_block4.exec-5693.GoNoGo4";;;;;;;;;;;;;;;;;;;;;;;;;;;;;;;;;;;;;;;;;;;;;;;;;;;;;;;;;;;"1250";"2014-09-30 13:18:11.899";"NST_correctLoc";"1";"0";"FINISHED";"LEFT";"success";"375";"0";"2014-09-30 13:18:10.648";"1";;;;;;;;;;;;;;;;;;;;;
"j12345";"1994";;"Windows 7";"Rachel's Experiment (D.T.)";"1.0";"2";"1";"1";"2";"1";"1";"2014-09-30 13:09:53.597";"2014-09-30 13:26:09.629";"1";"0";"0";"126";"125";"module.training_block4.exec-5693.GoNoGo4";;;;;;;;;;;;;;;;;;;;;;;;;;;;;;;;;;;;;;;;;;;;;;;;;;;;;;;;;;;"1250";"2014-09-30 13:18:14.433";"NST_correctLoc";"13";"1";"FINISHED";"RIGHT";"success";"471";"0";"2014-09-30 13:18:13.183";"2";;;;;;;;;;;;;;;;;;;;;
"j12345";"1994";;"Windows 7";"Rachel's Experiment (D.T.)";"1.0";"2";"1";"1";"2";"1";"1";"2014-09-30 13:09:53.597";"2014-09-30 13:26:09.629";"1";"0";"0";"127";"126";"module.training_block4.exec-5693.GoNoGo4";;;;;;;;;;;;;;;;;;;;;;;;;;;;;;;;;;;;;;;;;;;;;;;;;;;;;;;;;;;"1250";"2014-09-30 13:18:16.967";"NST_correctLoc";"27";"1";"FINISHED";"RIGHT";"success";"376";"0";"2014-09-30 13:18:15.717";"3";;;;;;;;;;;;;;;;;;;;;
"j12345";"1994";;"Windows 7";"Rachel's Experiment (D.T.)";"1.0";"2";"1";"1";"2";"1";"1";"2014-09-30 13:09:53.597";"2014-09-30 13:26:09.629";"1";"0";"0";"128";"127";"module.training_block4.exec-5693.GoNoGo4";;;;;;;;;;;;;;;;;;;;;;;;;;;;;;;;;;;;;;;;;;;;;;;;;;;;;;;;;;;"1250";"2014-09-30 13:18:19.500";"NST_correctLoc";"10";"1";"FINISHED";"RIGHT";"success";"359";"0";"2014-09-30 13:18:18.250";"2";;;;;;;;;;;;;;;;;;;;;
"j12345";"1994";;"Windows 7";"Rachel's Experiment (D.T.)";"1.0";"2";"1";"1";"2";"1";"1";"2014-09-30 13:09:53.597";"2014-09-30 13:26:09.629";"1";"0";"0";"129";"128";"module.training_block4.exec-5693.GoNoGo4";;;;;;;;;;;;;;;;;;;;;;;;;;;;;;;;;;;;;;;;;;;;;;;;;;;;;;;;;;;"1250";"2014-09-30 13:18:22.033";"NST_correctLoc";"28";"0";"FINISHED";"LEFT";"success";"440";"0";"2014-09-30 13:18:20.783";"3";;;;;;;;;;;;;;;;;;;;;
"j12345";"1994";;"Windows 7";"Rachel's Experiment (D.T.)";"1.0";"2";"1";"1";"2";"1";"1";"2014-09-30 13:09:53.597";"2014-09-30 13:26:09.629";"1";"0";"0";"130";"129";"module.training_block4.exec-5693.GoNoGo4";;;;;;;;;;;;;;;;;;;;;;;;;;;;;;;;;;;;;;;;;;;;;;;;;;;;;;;;;;;"1249";"2014-09-30 13:18:24.564";"NST_correctLoc";"35";"0";"FINISHED";"LEFT";"success";"420";"0";"2014-09-30 13:18:23.314";"3";;;;;;;;;;;;;;;;;;;;;
"j12345";"1994";;"Windows 7";"Rachel's Experiment (D.T.)";"1.0";"2";"1";"1";"2";"1";"1";"2014-09-30 13:09:53.597";"2014-09-30 13:26:09.629";"1";"0";"0";"131";"130";"module.training_block4.exec-5693.GoNoGo4";;;;;;;;;;;;;;;;;;;;;;;;;;;;;;;;;;;;;;;;;;;;;;;;;;;;;;;;;;;"1250";"2014-09-30 13:18:27.097";"NST_correctLoc";"20";"1";"FINISHED";"RIGHT";"success";"326";"0";"2014-09-30 13:18:25.847";"3";;;;;;;;;;;;;;;;;;;;;
"j12345";"1994";;"Windows 7";"Rachel's Experiment (D.T.)";"1.0";"2";"1";"1";"2";"1";"1";"2014-09-30 13:09:53.597";"2014-09-30 13:26:09.629";"1";"0";"0";"132";"131";"module.training_block4.exec-5693.GoNoGo4";;;;;;;;;;;;;;;;;;;;;;;;;;;;;;;;;;;;;;;;;;;;;;;;;;;;;;;;;;;"1250";"2014-09-30 13:18:29.631";"NST_correctLoc";"17";"0";"FINISHED";"LEFT";"success";"326";"0";"2014-09-30 13:18:28.380";"2";;;;;;;;;;;;;;;;;;;;;
"j12345";"1994";;"Windows 7";"Rachel's Experiment (D.T.)";"1.0";"2";"1";"1";"2";"1";"1";"2014-09-30 13:09:53.597";"2014-09-30 13:26:09.629";"1";"0";"0";"133";"132";"module.training_block4.exec-5693.GoNoGo4";;;;;;;;;;;;;;;;;;;;;;;;;;;;;;;;;;;;;;;;;;;;;;;;;;;;;;;;;;;"1250";"2014-09-30 13:18:32.163";"NST_correctLoc";"33";"0";"FINISHED";"LEFT";"success";"349";"0";"2014-09-30 13:18:30.913";"3";;;;;;;;;;;;;;;;;;;;;
"j12345";"1994";;"Windows 7";"Rachel's Experiment (D.T.)";"1.0";"2";"1";"1";"2";"1";"1";"2014-09-30 13:09:53.597";"2014-09-30 13:26:09.629";"1";"0";"0";"134";"133";"module.training_block4.exec-5693.GoNoGo4";;;;;;;;;;;;;;;;;;;;;;;;;;;;;;;;;;;;;;;;;;;;;;;;;;;;;;;;;;;"1250";"2014-09-30 13:18:34.694";"NST_correctLoc";"12";"0";"FINISHED";"LEFT";"success";"376";"0";"2014-09-30 13:18:33.444";"2";;;;;;;;;;;;;;;;;;;;;
"j12345";"1994";;"Windows 7";"Rachel's Experiment (D.T.)";"1.0";"2";"1";"1";"2";"1";"1";"2014-09-30 13:09:53.597";"2014-09-30 13:26:09.629";"1";"0";"0";"135";"134";"module.training_block4.exec-5693.GoNoGo4";;;;;;;;;;;;;;;;;;;;;;;;;;;;;;;;;;;;;;;;;;;;;;;;;;;;;;;;;;;"1249";"2014-09-30 13:18:37.228";"NST_correctLoc";"21";"0";"FINISHED";"LEFT";"success";"315";"0";"2014-09-30 13:18:35.978";"3";;;;;;;;;;;;;;;;;;;;;
"j12345";"1994";;"Windows 7";"Rachel's Experiment (D.T.)";"1.0";"2";"1";"1";"2";"1";"1";"2014-09-30 13:09:53.597";"2014-09-30 13:26:09.629";"1";"0";"0";"136";"135";"module.training_block4.exec-5693.GoNoGo4";;;;;;;;;;;;;;;;;;;;;;;;;;;;;;;;;;;;;;;;;;;;;;;;;;;;;;;;;;;"1250";"2014-09-30 13:18:39.760";"NST_correctLoc";"34";"0";"FINISHED";"LEFT";"success";"553";"0";"2014-09-30 13:18:38.510";"3";;;;;;;;;;;;;;;;;;;;;
"j12345";"1994";;"Windows 7";"Rachel's Experiment (D.T.)";"1.0";"2";"1";"1";"2";"1";"1";"2014-09-30 13:09:53.597";"2014-09-30 13:26:09.629";"1";"0";"0";"137";"136";"module.training_block4.exec-5693.GoNoGo4";;;;;;;;;;;;;;;;;;;;;;;;;;;;;;;;;;;;;;;;;;;;;;;;;;;;;;;;;;;"1250";"2014-09-30 13:18:42.292";"NST_correctLoc";"31";"1";"FINISHED";"RIGHT";"success";"669";"0";"2014-09-30 13:18:41.042";"3";;;;;;;;;;;;;;;;;;;;;
"j12345";"1994";;"Windows 7";"Rachel's Experiment (D.T.)";"1.0";"2";"1";"1";"2";"1";"1";"2014-09-30 13:09:53.597";"2014-09-30 13:26:09.629";"1";"0";"0";"138";"137";"module.training_block4.exec-5693.GoNoGo4";;;;;;;;;;;;;;;;;;;;;;;;;;;;;;;;;;;;;;;;;;;;;;;;;;;;;;;;;;;"1250";"2014-09-30 13:18:44.823";"NST_correctLoc";"16";"0";"FINISHED";"LEFT";"success";"568";"0";"2014-09-30 13:18:43.573";"2";;;;;;;;;;;;;;;;;;;;;
"j12345";"1994";;"Windows 7";"Rachel's Experiment (D.T.)";"1.0";"2";"1";"1";"2";"1";"1";"2014-09-30 13:09:53.597";"2014-09-30 13:26:09.629";"1";"0";"0";"139";"138";"module.training_block4.exec-5693.GoNoGo4";;;;;;;;;;;;;;;;;;;;;;;;;;;;;;;;;;;;;;;;;;;;;;;;;;;;;;;;;;;"1250";"2014-09-30 13:18:47.358";"NST_correctLoc";"5";"1";"FINISHED";"RIGHT";"success";"455";"0";"2014-09-30 13:18:46.107";"1";;;;;;;;;;;;;;;;;;;;;
"j12345";"1994";;"Windows 7";"Rachel's Experiment (D.T.)";"1.0";"2";"1";"1";"2";"1";"1";"2014-09-30 13:09:53.597";"2014-09-30 13:26:09.629";"1";"0";"0";"140";"139";"module.training_block4.exec-5693.GoNoGo4";;;;;;;;;;;;;;;;;;;;;;;;;;;;;;;;;;;;;;;;;;;;;;;;;;;;;;;;;;;"1250";"2014-09-30 13:18:49.890";"NST_correctLoc";"8";"0";"FINISHED";"LEFT";"success";"320";"0";"2014-09-30 13:18:48.640";"1";;;;;;;;;;;;;;;;;;;;;
"j12345";"1994";;"Windows 7";"Rachel's Experiment (D.T.)";"1.0";"2";"1";"1";"2";"1";"1";"2014-09-30 13:09:53.597";"2014-09-30 13:26:09.629";"1";"0";"0";"141";"140";"module.training_block4.exec-5693.GoNoGo4";;;;;;;;;;;;;;;;;;;;;;;;;;;;;;;;;;;;;;;;;;;;;;;;;;;;;;;;;;;"1250";"2014-09-30 13:18:52.433";"NST_correctLoc";"18";"0";"FINISHED";"LEFT";"success";"494";"0";"2014-09-30 13:18:51.182";"3";;;;;;;;;;;;;;;;;;;;;
"j12345";"1994";;"Windows 7";"Rachel's Experiment (D.T.)";"1.0";"2";"1";"1";"2";"1";"1";"2014-09-30 13:09:53.597";"2014-09-30 13:26:09.629";"1";"0";"0";"142";"141";"module.training_block4.exec-5693.GoNoGo4";;;;;;;;;;;;;;;;;;;;;;;;;;;;;;;;;;;;;;;;;;;;;;;;;;;;;;;;;;;"1250";"2014-09-30 13:18:54.963";"NST_correctLoc";"19";"0";"FINISHED";"LEFT";"success";"389";"0";"2014-09-30 13:18:53.713";"3";;;;;;;;;;;;;;;;;;;;;
"j12345";"1994";;"Windows 7";"Rachel's Experiment (D.T.)";"1.0";"2";"1";"1";"2";"1";"1";"2014-09-30 13:09:53.597";"2014-09-30 13:26:09.629";"1";"0";"0";"143";"142";"module.training_block4.exec-5693.GoNoGo4";;;;;;;;;;;;;;;;;;;;;;;;;;;;;;;;;;;;;;;;;;;;;;;;;;;;;;;;;;;"1249";"2014-09-30 13:18:57.495";"NST_correctLoc";"7";"0";"FINISHED";"LEFT";"success";"416";"0";"2014-09-30 13:18:56.245";"1";;;;;;;;;;;;;;;;;;;;;
"j12345";"1994";;"Windows 7";"Rachel's Experiment (D.T.)";"1.0";"2";"1";"1";"2";"1";"1";"2014-09-30 13:09:53.597";"2014-09-30 13:26:09.629";"1";"0";"0";"144";"143";"module.training_block4.exec-5693.GoNoGo4";;;;;;;;;;;;;;;;;;;;;;;;;;;;;;;;;;;;;;;;;;;;;;;;;;;;;;;;;;;"1250";"2014-09-30 13:19:00.025";"NST_correctLoc";"23";"1";"FINISHED";"RIGHT";"success";"335";"0";"2014-09-30 13:18:58.774";"3";;;;;;;;;;;;;;;;;;;;;
"j12345";"1994";;"Windows 7";"Rachel's Experiment (D.T.)";"1.0";"2";"1";"1";"2";"1";"1";"2014-09-30 13:09:53.597";"2014-09-30 13:26:09.629";"1";"0";"0";"145";"144";"module.training_block4.exec-5693.GoNoGo4";;;;;;;;;;;;;;;;;;;;;;;;;;;;;;;;;;;;;;;;;;;;;;;;;;;;;;;;;;;"1250";"2014-09-30 13:19:02.559";"NST_correctLoc";"0";"1";"FINISHED";"RIGHT";"success";"417";"0";"2014-09-30 13:19:01.309";"1";;;;;;;;;;;;;;;;;;;;;
"j12345";"1994";;"Windows 7";"Rachel's Experiment (D.T.)";"1.0";"2";"1";"1";"2";"1";"1";"2014-09-30 13:09:53.597";"2014-09-30 13:26:09.629";"1";"0";"0";"146";"145";"module.training_block4.exec-5693.GoNoGo4";;;;;;;;;;;;;;;;;;;;;;;;;;;;;;;;;;;;;;;;;;;;;;;;;;;;;;;;;;;"1250";"2014-09-30 13:19:05.091";"NST_correctLoc";"2";"1";"FINISHED";"RIGHT";"success";"422";"0";"2014-09-30 13:19:03.840";"1";;;;;;;;;;;;;;;;;;;;;
"j12345";"1994";;"Windows 7";"Rachel's Experiment (D.T.)";"1.0";"2";"1";"1";"2";"1";"1";"2014-09-30 13:09:53.597";"2014-09-30 13:26:09.629";"1";"0";"0";"147";"146";"module.training_block4.exec-5693.GoNoGo4";;;;;;;;;;;;;;;;;;;;;;;;;;;;;;;;;;;;;;;;;;;;;;;;;;;;;;;;;;;"1249";"2014-09-30 13:19:07.625";"NST_correctLoc";"4";"1";"FINISHED";"RIGHT";"success";"508";"0";"2014-09-30 13:19:06.375";"1";;;;;;;;;;;;;;;;;;;;;
"j12345";"1994";;"Windows 7";"Rachel's Experiment (D.T.)";"1.0";"2";"1";"1";"2";"1";"1";"2014-09-30 13:09:53.597";"2014-09-30 13:26:09.629";"1";"0";"0";"148";"147";"module.training_block4.exec-5693.GoNoGo4";;;;;;;;;;;;;;;;;;;;;;;;;;;;;;;;;;;;;;;;;;;;;;;;;;;;;;;;;;;"1250";"2014-09-30 13:19:10.156";"NST_correctLoc";"26";"0";"FINISHED";"LEFT";"success";"305";"0";"2014-09-30 13:19:08.906";"3";;;;;;;;;;;;;;;;;;;;;
"j12345";"1994";;"Windows 7";"Rachel's Experiment (D.T.)";"1.0";"2";"1";"1";"2";"1";"1";"2014-09-30 13:09:53.597";"2014-09-30 13:26:09.629";"1";"0";"0";"149";"148";"module.training_block4.exec-5693.GoNoGo4";;;;;;;;;;;;;;;;;;;;;;;;;;;;;;;;;;;;;;;;;;;;;;;;;;;;;;;;;;;"1250";"2014-09-30 13:19:12.686";"NST_correctLoc";"25";"1";"FINISHED";"RIGHT";"success";"479";"0";"2014-09-30 13:19:11.436";"3";;;;;;;;;;;;;;;;;;;;;
"j12345";"1994";;"Windows 7";"Rachel's Experiment (D.T.)";"1.0";"2";"1";"1";"2";"1";"1";"2014-09-30 13:09:53.597";"2014-09-30 13:26:09.629";"1";"0";"0";"150";"149";"module.training_block4.exec-5693.GoNoGo4";;;;;;;;;;;;;;;;;;;;;;;;;;;;;;;;;;;;;;;;;;;;;;;;;;;;;;;;;;;"1250";"2014-09-30 13:19:15.217";"NST_correctLoc";"6";"1";"FINISHED";"RIGHT";"success";"506";"0";"2014-09-30 13:19:13.967";"1";;;;;;;;;;;;;;;;;;;;;
"j12345";"1994";;"Windows 7";"Rachel's Experiment (D.T.)";"1.0";"2";"1";"1";"2";"1";"1";"2014-09-30 13:09:53.597";"2014-09-30 13:26:09.629";"1";"0";"0";"151";"150";"module.training_block4.exec-5693.GoNoGo4";;;;;;;;;;;;;;;;;;;;;;;;;;;;;;;;;;;;;;;;;;;;;;;;;;;;;;;;;;;"1250";"2014-09-30 13:19:17.748";"NST_correctLoc";"14";"1";"FINISHED";"RIGHT";"success";"463";"0";"2014-09-30 13:19:16.498";"2";;;;;;;;;;;;;;;;;;;;;
"j12345";"1994";;"Windows 7";"Rachel's Experiment (D.T.)";"1.0";"2";"1";"1";"2";"1";"1";"2014-09-30 13:09:53.597";"2014-09-30 13:26:09.629";"1";"0";"0";"152";"151";"module.training_block4.exec-5693.GoNoGo4";;;;;;;;;;;;;;;;;;;;;;;;;;;;;;;;;;;;;;;;;;;;;;;;;;;;;;;;;;;"1249";"2014-09-30 13:19:20.278";"NST_correctLoc";"30";"1";"FINISHED";"RIGHT";"success";"592";"0";"2014-09-30 13:19:19.028";"3";;;;;;;;;;;;;;;;;;;;;
"j12345";"1994";;"Windows 7";"Rachel's Experiment (D.T.)";"1.0";"2";"1";"1";"2";"1";"1";"2014-09-30 13:09:53.597";"2014-09-30 13:26:09.629";"1";"0";"0";"153";"152";"module.training_block4.exec-5693.GoNoGo4";;;;;;;;;;;;;;;;;;;;;;;;;;;;;;;;;;;;;;;;;;;;;;;;;;;;;;;;;;;"1250";"2014-09-30 13:19:22.810";"NST_correctLoc";"9";"1";"FINISHED";"RIGHT";"success";"552";"0";"2014-09-30 13:19:21.559";"2";;;;;;;;;;;;;;;;;;;;;
"j12345";"1994";;"Windows 7";"Rachel's Experiment (D.T.)";"1.0";"2";"1";"1";"2";"1";"1";"2014-09-30 13:09:53.597";"2014-09-30 13:26:09.629";"1";"0";"0";"154";"153";"module.training_block4.exec-5693.GoNoGo4";;;;;;;;;;;;;;;;;;;;;;;;;;;;;;;;;;;;;;;;;;;;;;;;;;;;;;;;;;;"1249";"2014-09-30 13:19:25.340";"NST_correctLoc";"22";"0";"FINISHED";"LEFT";"success";"399";"0";"2014-09-30 13:19:24.090";"3";;;;;;;;;;;;;;;;;;;;;
"j12345";"1994";;"Windows 7";"Rachel's Experiment (D.T.)";"1.0";"2";"1";"1";"2";"1";"1";"2014-09-30 13:09:53.597";"2014-09-30 13:26:09.629";"1";"0";"0";"155";"154";"module.training_block4.exec-5693.GoNoGo4";;;;;;;;;;;;;;;;;;;;;;;;;;;;;;;;;;;;;;;;;;;;;;;;;;;;;;;;;;;"1250";"2014-09-30 13:19:27.871";"NST_correctLoc";"29";"0";"FINISHED";"LEFT";"success";"372";"0";"2014-09-30 13:19:26.621";"3";;;;;;;;;;;;;;;;;;;;;
"j12345";"1994";;"Windows 7";"Rachel's Experiment (D.T.)";"1.0";"2";"1";"1";"2";"1";"1";"2014-09-30 13:09:53.597";"2014-09-30 13:26:09.629";"1";"0";"0";"156";"155";"module.training_block4.exec-5693.GoNoGo4";;;;;;;;;;;;;;;;;;;;;;;;;;;;;;;;;;;;;;;;;;;;;;;;;;;;;;;;;;;"1249";"2014-09-30 13:19:30.401";"NST_correctLoc";"24";"1";"FINISHED";"RIGHT";"success";"522";"0";"2014-09-30 13:19:29.151";"3";;;;;;;;;;;;;;;;;;;;;
"j12345";"1994";;"Windows 7";"Rachel's Experiment (D.T.)";"1.0";"2";"1";"1";"2";"1";"1";"2014-09-30 13:09:53.597";"2014-09-30 13:26:09.629";"1";"0";"0";"157";"156";"module.training_block4.exec-5693.GoNoGo4";;;;;;;;;;;;;;;;;;;;;;;;;;;;;;;;;;;;;;;;;;;;;;;;;;;;;;;;;;;"1250";"2014-09-30 13:19:32.932";"NST_wrongLoc";"3";"0";"FINISHED";"RIGHT";"failure";"540";"0";"2014-09-30 13:19:31.681";"1";;;;;;;;;;;;;;;;;;;;;
"j12345";"1994";;"Windows 7";"Rachel's Experiment (D.T.)";"1.0";"2";"1";"1";"2";"1";"1";"2014-09-30 13:09:53.597";"2014-09-30 13:26:09.629";"1";"0";"0";"158";"157";"module.training_block4.exec-5693.GoNoGo4";;;;;;;;;;;;;;;;;;;;;;;;;;;;;;;;;;;;;;;;;;;;;;;;;;;;;;;;;;;"1249";"2014-09-30 13:19:35.462";"NST_correctLoc";"15";"1";"FINISHED";"RIGHT";"success";"322";"0";"2014-09-30 13:19:34.212";"2";;;;;;;;;;;;;;;;;;;;;
"j12345";"1994";;"Windows 7";"Rachel's Experiment (D.T.)";"1.0";"2";"1";"1";"2";"1";"1";"2014-09-30 13:09:53.597";"2014-09-30 13:26:09.629";"1";"0";"0";"159";"158";"module.training_block4.exec-5693.GoNoGo4";;;;;;;;;;;;;;;;;;;;;;;;;;;;;;;;;;;;;;;;;;;;;;;;;;;;;;;;;;;"1249";"2014-09-30 13:19:37.995";"NST_correctLoc";"11";"0";"FINISHED";"LEFT";"success";"386";"0";"2014-09-30 13:19:36.745";"2";;;;;;;;;;;;;;;;;;;;;
"j12345";"1994";;"Windows 7";"Rachel's Experiment (D.T.)";"1.0";"2";"1";"1";"2";"1";"1";"2014-09-30 13:09:53.597";"2014-09-30 13:26:09.629";"1";"0";"0";"160";"159";"module.devaluation_practice.exec-7992.devalPractice";;;;;;;;;;;;"16233";"2014-09-30 13:20:58.626";"0";"4";"2";"3";"5502";"2810";"4850";"2014-09-30 13:20:42.392";;;;;;;;;;;;;;;;;;;;;;;;;;;;;;;;;;;;;;;;;;;;;;;;;;;;;;;;;;;;;;;;;;;;;;
"j12345";"1994";;"Windows 7";"Rachel's Experiment (D.T.)";"1.0";"2";"1";"1";"2";"1";"1";"2014-09-30 13:09:53.597";"2014-09-30 13:26:09.629";"1";"0";"0";"161";"160";"module.devaluation_practice.exec-7992.devalPractice";;;;;;;;;;;;"12171";"2014-09-30 13:21:10.836";"1";"2";"1";"3";"3254";"1805";"4095";"2014-09-30 13:20:58.663";;;;;;;;;;;;;;;;;;;;;;;;;;;;;;;;;;;;;;;;;;;;;;;;;;;;;;;;;;;;;;;;;;;;;;
"j12345";"1994";;"Windows 7";"Rachel's Experiment (D.T.)";"1.0";"2";"1";"1";"2";"1";"1";"2014-09-30 13:09:53.597";"2014-09-30 13:26:09.629";"1";"0";"0";"162";"161";"module.devaluation_practice.exec-7992.devalPractice";;;;;;;;;;;;"10602";"2014-09-30 13:21:21.474";"2";"4";"4";"7";"3036";"2226";"2303";"2014-09-30 13:21:10.872";;;;;;;;;;;;;;;;;;;;;;;;;;;;;;;;;;;;;;;;;;;;;;;;;;;;;;;;;;;;;;;;;;;;;;
"j12345";"1994";;"Windows 7";"Rachel's Experiment (D.T.)";"1.0";"2";"1";"1";"2";"1";"1";"2014-09-30 13:09:53.597";"2014-09-30 13:26:09.629";"1";"0";"0";"163";"162";"module.devaluation_practice.exec-7992.devalPractice";;;;;;;;;;;;"14285";"2014-09-30 13:21:35.805";"3";"4";"7";"8";"2985";"3702";"4554";"2014-09-30 13:21:21.518";;;;;;;;;;;;;;;;;;;;;;;;;;;;;;;;;;;;;;;;;;;;;;;;;;;;;;;;;;;;;;;;;;;;;;
"j12345";"1994";;"Windows 7";"Rachel's Experiment (D.T.)";"1.0";"2";"1";"1";"2";"1";"1";"2014-09-30 13:09:53.597";"2014-09-30 13:26:09.629";"1";"0";"0";"164";"163";"module.devaluation_block1.exec-4921.deval1";"8251";"2014-09-30 13:21:48.251";"16";"3";"1";"3";"2120";"1371";"1730";"2014-09-30 13:21:39.998";"2";;;;;;;;;;;;;;;;;;;;;;;;;;;;;;;;;;;;;;;;;;;;;;;;;;;;;;;;;;;;;;;;;;;;;;;;;;;;;;;;
"j12345";"1994";;"Windows 7";"Rachel's Experiment (D.T.)";"1.0";"2";"1";"1";"2";"1";"1";"2014-09-30 13:09:53.597";"2014-09-30 13:26:09.629";"1";"0";"0";"165";"164";"module.devaluation_block1.exec-4921.deval1";"13693";"2014-09-30 13:22:01.981";"15";"3";"2";"3";"8330";"1065";"1276";"2014-09-30 13:21:48.287";"2";;;;;;;;;;;;;;;;;;;;;;;;;;;;;;;;;;;;;;;;;;;;;;;;;;;;;;;;;;;;;;;;;;;;;;;;;;;;;;;;
"j12345";"1994";;"Windows 7";"Rachel's Experiment (D.T.)";"1.0";"2";"1";"1";"2";"1";"1";"2014-09-30 13:09:53.597";"2014-09-30 13:26:09.629";"1";"0";"0";"166";"165";"module.devaluation_block1.exec-4921.deval1";"10666";"2014-09-30 13:22:12.681";"3";"6";"6";"9";"2620";"1571";"3453";"2014-09-30 13:22:02.015";"1";;;;;;;;;;;;;;;;;;;;;;;;;;;;;;;;;;;;;;;;;;;;;;;;;;;;;;;;;;;;;;;;;;;;;;;;;;;;;;;;
"j12345";"1994";;"Windows 7";"Rachel's Experiment (D.T.)";"1.0";"2";"1";"1";"2";"1";"1";"2014-09-30 13:09:53.597";"2014-09-30 13:26:09.629";"1";"0";"0";"167";"166";"module.devaluation_block1.exec-4921.deval1";"9826";"2014-09-30 13:22:22.545";"4";"5";"4";"6";"2503";"1325";"2977";"2014-09-30 13:22:12.718";"1";;;;;;;;;;;;;;;;;;;;;;;;;;;;;;;;;;;;;;;;;;;;;;;;;;;;;;;;;;;;;;;;;;;;;;;;;;;;;;;;
"j12345";"1994";;"Windows 7";"Rachel's Experiment (D.T.)";"1.0";"2";"1";"1";"2";"1";"1";"2014-09-30 13:09:53.597";"2014-09-30 13:26:09.629";"1";"0";"0";"168";"167";"module.devaluation_block1.exec-4921.deval1";"12103";"2014-09-30 13:22:34.688";"10";"5";"2";"3";"4930";"2457";"1694";"2014-09-30 13:22:22.584";"2";;;;;;;;;;;;;;;;;;;;;;;;;;;;;;;;;;;;;;;;;;;;;;;;;;;;;;;;;;;;;;;;;;;;;;;;;;;;;;;;
"j12345";"1994";;"Windows 7";"Rachel's Experiment (D.T.)";"1.0";"2";"1";"1";"2";"1";"1";"2014-09-30 13:09:53.597";"2014-09-30 13:26:09.629";"1";"0";"0";"169";"168";"module.devaluation_block1.exec-4921.deval1";"8818";"2014-09-30 13:22:43.544";"6";"4";"2";"7";"1428";"2009";"2360";"2014-09-30 13:22:34.726";"1";;;;;;;;;;;;;;;;;;;;;;;;;;;;;;;;;;;;;;;;;;;;;;;;;;;;;;;;;;;;;;;;;;;;;;;;;;;;;;;;
"j12345";"1994";;"Windows 7";"Rachel's Experiment (D.T.)";"1.0";"2";"1";"1";"2";"1";"1";"2014-09-30 13:09:53.597";"2014-09-30 13:26:09.629";"1";"0";"0";"170";"169";"module.devaluation_block1.exec-4921.deval1";"6286";"2014-09-30 13:22:49.866";"12";"7";"2";"4";"832";"1119";"1312";"2014-09-30 13:22:43.580";"2";;;;;;;;;;;;;;;;;;;;;;;;;;;;;;;;;;;;;;;;;;;;;;;;;;;;;;;;;;;;;;;;;;;;;;;;;;;;;;;;
"j12345";"1994";;"Windows 7";"Rachel's Experiment (D.T.)";"1.0";"2";"1";"1";"2";"1";"1";"2014-09-30 13:09:53.597";"2014-09-30 13:26:09.629";"1";"0";"0";"171";"170";"module.devaluation_block1.exec-4921.deval1";"9003";"2014-09-30 13:22:58.907";"5";"6";"7";"9";"3391";"915";"1676";"2014-09-30 13:22:49.903";"1";;;;;;;;;;;;;;;;;;;;;;;;;;;;;;;;;;;;;;;;;;;;;;;;;;;;;;;;;;;;;;;;;;;;;;;;;;;;;;;;
"j12345";"1994";;"Windows 7";"Rachel's Experiment (D.T.)";"1.0";"2";"1";"1";"2";"1";"1";"2014-09-30 13:09:53.597";"2014-09-30 13:26:09.629";"1";"0";"0";"172";"171";"module.devaluation_block1.exec-4921.deval1";"7412";"2014-09-30 13:23:06.356";"9";"3";"2";"6";"724";"1635";"2033";"2014-09-30 13:22:58.943";"2";;;;;;;;;;;;;;;;;;;;;;;;;;;;;;;;;;;;;;;;;;;;;;;;;;;;;;;;;;;;;;;;;;;;;;;;;;;;;;;;
"j12345";"1994";;"Windows 7";"Rachel's Experiment (D.T.)";"1.0";"2";"1";"1";"2";"1";"1";"2014-09-30 13:09:53.597";"2014-09-30 13:26:09.629";"1";"0";"0";"173";"172";"module.devaluation_block1.exec-4921.deval1";"18540";"2014-09-30 13:23:24.941";"19";"6";"4";"8";"10514";"2336";"2669";"2014-09-30 13:23:06.400";"3";;;;;;;;;;;;;;;;;;;;;;;;;;;;;;;;;;;;;;;;;;;;;;;;;;;;;;;;;;;;;;;;;;;;;;;;;;;;;;;;
"j12345";"1994";;"Windows 7";"Rachel's Experiment (D.T.)";"1.0";"2";"1";"1";"2";"1";"1";"2014-09-30 13:09:53.597";"2014-09-30 13:26:09.629";"1";"0";"0";"174";"173";"module.devaluation_block1.exec-4921.deval1";"7670";"2014-09-30 13:23:32.650";"0";"7";"4";"8";"1693";"904";"2054";"2014-09-30 13:23:24.978";"1";;;;;;;;;;;;;;;;;;;;;;;;;;;;;;;;;;;;;;;;;;;;;;;;;;;;;;;;;;;;;;;;;;;;;;;;;;;;;;;;
"j12345";"1994";;"Windows 7";"Rachel's Experiment (D.T.)";"1.0";"2";"1";"1";"2";"1";"1";"2014-09-30 13:09:53.597";"2014-09-30 13:26:09.629";"1";"0";"0";"175";"174";"module.devaluation_block1.exec-4921.deval1";"12526";"2014-09-30 13:23:45.213";"7";"4";"1";"3";"758";"1748";"6987";"2014-09-30 13:23:32.686";"1";;;;;;;;;;;;;;;;;;;;;;;;;;;;;;;;;;;;;;;;;;;;;;;;;;;;;;;;;;;;;;;;;;;;;;;;;;;;;;;;
"j12345";"1994";;"Windows 7";"Rachel's Experiment (D.T.)";"1.0";"2";"1";"1";"2";"1";"1";"2014-09-30 13:09:53.597";"2014-09-30 13:26:09.629";"1";"0";"0";"176";"175";"module.devaluation_block1.exec-4921.deval1";"8421";"2014-09-30 13:23:53.671";"14";"6";"2";"3";"904";"1594";"2904";"2014-09-30 13:23:45.249";"2";;;;;;;;;;;;;;;;;;;;;;;;;;;;;;;;;;;;;;;;;;;;;;;;;;;;;;;;;;;;;;;;;;;;;;;;;;;;;;;;
"j12345";"1994";;"Windows 7";"Rachel's Experiment (D.T.)";"1.0";"2";"1";"1";"2";"1";"1";"2014-09-30 13:09:53.597";"2014-09-30 13:26:09.629";"1";"0";"0";"177";"176";"module.devaluation_block1.exec-4921.deval1";"27812";"2014-09-30 13:24:21.522";"13";"7";"1";"3";"6295";"3420";"15079";"2014-09-30 13:23:53.707";"2";;;;;;;;;;;;;;;;;;;;;;;;;;;;;;;;;;;;;;;;;;;;;;;;;;;;;;;;;;;;;;;;;;;;;;;;;;;;;;;;
"j12345";"1994";;"Windows 7";"Rachel's Experiment (D.T.)";"1.0";"2";"1";"1";"2";"1";"1";"2014-09-30 13:09:53.597";"2014-09-30 13:26:09.629";"1";"0";"0";"178";"177";"module.devaluation_block1.exec-4921.deval1";"14818";"2014-09-30 13:24:36.380";"18";"4";"2";"7";"4184";"1813";"5801";"2014-09-30 13:24:21.561";"3";;;;;;;;;;;;;;;;;;;;;;;;;;;;;;;;;;;;;;;;;;;;;;;;;;;;;;;;;;;;;;;;;;;;;;;;;;;;;;;;
"j12345";"1994";;"Windows 7";"Rachel's Experiment (D.T.)";"1.0";"2";"1";"1";"2";"1";"1";"2014-09-30 13:09:53.597";"2014-09-30 13:26:09.629";"1";"0";"0";"179";"178";"module.devaluation_block1.exec-4921.deval1";"12614";"2014-09-30 13:24:49.030";"1";"4";"4";"7";"3221";"2657";"3716";"2014-09-30 13:24:36.415";"1";;;;;;;;;;;;;;;;;;;;;;;;;;;;;;;;;;;;;;;;;;;;;;;;;;;;;;;;;;;;;;;;;;;;;;;;;;;;;;;;
"j12345";"1994";;"Windows 7";"Rachel's Experiment (D.T.)";"1.0";"2";"1";"1";"2";"1";"1";"2014-09-30 13:09:53.597";"2014-09-30 13:26:09.629";"1";"0";"0";"180";"179";"module.devaluation_block1.exec-4921.deval1";"7807";"2014-09-30 13:24:56.875";"20";"4";"2";"7";"627";"1264";"2897";"2014-09-30 13:24:49.067";"3";;;;;;;;;;;;;;;;;;;;;;;;;;;;;;;;;;;;;;;;;;;;;;;;;;;;;;;;;;;;;;;;;;;;;;;;;;;;;;;;
"j12345";"1994";;"Windows 7";"Rachel's Experiment (D.T.)";"1.0";"2";"1";"1";"2";"1";"1";"2014-09-30 13:09:53.597";"2014-09-30 13:26:09.629";"1";"0";"0";"181";"180";"module.devaluation_block1.exec-4921.deval1";"6261";"2014-09-30 13:25:03.177";"23";"3";"2";"4";"724";"909";"1609";"2014-09-30 13:24:56.916";"3";;;;;;;;;;;;;;;;;;;;;;;;;;;;;;;;;;;;;;;;;;;;;;;;;;;;;;;;;;;;;;;;;;;;;;;;;;;;;;;;
"j12345";"1994";;"Windows 7";"Rachel's Experiment (D.T.)";"1.0";"2";"1";"1";"2";"1";"1";"2014-09-30 13:09:53.597";"2014-09-30 13:26:09.629";"1";"0";"0";"182";"181";"module.devaluation_block1.exec-4921.deval1";"5680";"2014-09-30 13:25:08.894";"21";"4";"3";"7";"1023";"927";"710";"2014-09-30 13:25:03.214";"3";;;;;;;;;;;;;;;;;;;;;;;;;;;;;;;;;;;;;;;;;;;;;;;;;;;;;;;;;;;;;;;;;;;;;;;;;;;;;;;;
"j12345";"1994";;"Windows 7";"Rachel's Experiment (D.T.)";"1.0";"2";"1";"1";"2";"1";"1";"2014-09-30 13:09:53.597";"2014-09-30 13:26:09.629";"1";"0";"0";"183";"182";"module.devaluation_block1.exec-4921.deval1";"9061";"2014-09-30 13:25:17.993";"11";"5";"3";"4";"573";"3593";"1875";"2014-09-30 13:25:08.931";"2";;;;;;;;;;;;;;;;;;;;;;;;;;;;;;;;;;;;;;;;;;;;;;;;;;;;;;;;;;;;;;;;;;;;;;;;;;;;;;;;
"j12345";"1994";;"Windows 7";"Rachel's Experiment (D.T.)";"1.0";"2";"1";"1";"2";"1";"1";"2014-09-30 13:09:53.597";"2014-09-30 13:26:09.629";"1";"0";"0";"184";"183";"module.devaluation_block1.exec-4921.deval1";"7223";"2014-09-30 13:25:25.253";"22";"5";"3";"6";"815";"1089";"2301";"2014-09-30 13:25:18.029";"3";;;;;;;;;;;;;;;;;;;;;;;;;;;;;;;;;;;;;;;;;;;;;;;;;;;;;;;;;;;;;;;;;;;;;;;;;;;;;;;;
"j12345";"1994";;"Windows 7";"Rachel's Experiment (D.T.)";"1.0";"2";"1";"1";"2";"1";"1";"2014-09-30 13:09:53.597";"2014-09-30 13:26:09.629";"1";"0";"0";"185";"184";"module.devaluation_block1.exec-4921.deval1";"8256";"2014-09-30 13:25:33.546";"25";"7";"6";"8";"1518";"2103";"1616";"2014-09-30 13:25:25.290";"3";;;;;;;;;;;;;;;;;;;;;;;;;;;;;;;;;;;;;;;;;;;;;;;;;;;;;;;;;;;;;;;;;;;;;;;;;;;;;;;;
"j12345";"1994";;"Windows 7";"Rachel's Experiment (D.T.)";"1.0";"2";"1";"1";"2";"1";"1";"2014-09-30 13:09:53.597";"2014-09-30 13:26:09.629";"1";"0";"0";"186";"185";"module.devaluation_block1.exec-4921.deval1";"7141";"2014-09-30 13:25:40.725";"8";"7";"3";"6";"2217";"796";"1111";"2014-09-30 13:25:33.584";"1";;;;;;;;;;;;;;;;;;;;;;;;;;;;;;;;;;;;;;;;;;;;;;;;;;;;;;;;;;;;;;;;;;;;;;;;;;;;;;;;
"j12345";"1994";;"Windows 7";"Rachel's Experiment (D.T.)";"1.0";"2";"1";"1";"2";"1";"1";"2014-09-30 13:09:53.597";"2014-09-30 13:26:09.629";"1";"0";"0";"187";"186";"module.devaluation_block1.exec-4921.deval1";"6216";"2014-09-30 13:25:46.980";"24";"4";"8";"9";"746";"1233";"1218";"2014-09-30 13:25:40.762";"3";;;;;;;;;;;;;;;;;;;;;;;;;;;;;;;;;;;;;;;;;;;;;;;;;;;;;;;;;;;;;;;;;;;;;;;;;;;;;;;;
"j12345";"1994";;"Windows 7";"Rachel's Experiment (D.T.)";"1.0";"2";"1";"1";"2";"1";"1";"2014-09-30 13:09:53.597";"2014-09-30 13:26:09.629";"1";"0";"0";"188";"187";"module.devaluation_block1.exec-4921.deval1";"5758";"2014-09-30 13:25:52.773";"2";"6";"3";"6";"595";"960";"1180";"2014-09-30 13:25:47.015";"1";;;;;;;;;;;;;;;;;;;;;;;;;;;;;;;;;;;;;;;;;;;;;;;;;;;;;;;;;;;;;;;;;;;;;;;;;;;;;;;;
"j12345";"1994";;"Windows 7";"Rachel's Experiment (D.T.)";"1.0";"2";"1";"1";"2";"1";"1";"2014-09-30 13:09:53.597";"2014-09-30 13:26:09.629";"1";"0";"0";"189";"188";"module.devaluation_block1.exec-4921.deval1";"8006";"2014-09-30 13:26:00.817";"26";"5";"3";"5";"3264";"789";"932";"2014-09-30 13:25:52.811";"3";;;;;;;;;;;;;;;;;;;;;;;;;;;;;;;;;;;;;;;;;;;;;;;;;;;;;;;;;;;;;;;;;;;;;;;;;;;;;;;;
"j12345";"1994";;"Windows 7";"Rachel's Experiment (D.T.)";"1.0";"2";"1";"1";"2";"1";"1";"2014-09-30 13:09:53.597";"2014-09-30 13:26:09.629";"1";"0";"0";"190";"189";"module.devaluation_block1.exec-4921.deval1";"6067";"2014-09-30 13:26:06.920";"17";"3";"2";"3";"808";"1240";"1000";"2014-09-30 13:26:00.852";"2";;;;;;;;;;;;;;;;;;;;;;;;;;;;;;;;;;;;;;;;;;;;;;;;;;;;;;;;;;;;;;;;;;;;;;;;;;;;;;;;
