"user.name";"user.yearOfBirth";"user.sex";"user.osName";"module.name";"module.version";"module.online.subject.code";"module.online.study.id";"module.online.module.nr";"module.online.group.nr";"session.id";"session.index";"session.startTime";"session.endTime";"session.completed";"session.node-5861.conditionType";"session.node-7905.DevalQorder";"trial.id";"trial.index";"trial.name";"trial.deval1.durationTime";"trial.deval1.endTime";"trial.deval1.icon";"trial.deval1.Resp_Attractive";"trial.deval1.Resp_Eat";"trial.deval1.Resp_Taste";"trial.deval1.RT_Attractive";"trial.deval1.RT_Eat";"trial.deval1.RT_Taste";"trial.deval1.startTime";"trial.deval1.stimulus type";"trial.devalPractice.durationTime";"trial.devalPractice.endTime";"trial.devalPractice.icon";"trial.devalPractice.Resp_Attractive";"trial.devalPractice.Resp_Eat";"trial.devalPractice.Resp_Taste";"trial.devalPractice.RT_Attractive";"trial.devalPractice.RT_Eat";"trial.devalPractice.RT_Taste";"trial.devalPractice.startTime";"trial.devalPractice.stimulus type";"trial.GoNoGo1.durationTime";"trial.GoNoGo1.endTime";"trial.GoNoGo1.Error Type";"trial.GoNoGo1.icon";"trial.GoNoGo1.location";"trial.GoNoGo1.outcome";"trial.GoNoGo1.response";"trial.GoNoGo1.result";"trial.GoNoGo1.RT";"trial.GoNoGo1.signal";"trial.GoNoGo1.startTime";"trial.GoNoGo1.stimulus type";"trial.GoNoGo2.durationTime";"trial.GoNoGo2.endTime";"trial.GoNoGo2.Error Type";"trial.GoNoGo2.icon";"trial.GoNoGo2.location";"trial.GoNoGo2.outcome";"trial.GoNoGo2.response";"trial.GoNoGo2.result";"trial.GoNoGo2.RT";"trial.GoNoGo2.signal";"trial.GoNoGo2.startTime";"trial.GoNoGo2.stimulus type";"trial.GoNoGo3.durationTime";"trial.GoNoGo3.endTime";"trial.GoNoGo3.Error Type";"trial.GoNoGo3.icon";"trial.GoNoGo3.location";"trial.GoNoGo3.outcome";"trial.GoNoGo3.response";"trial.GoNoGo3.result";"trial.GoNoGo3.RT";"trial.GoNoGo3.signal";"trial.GoNoGo3.startTime";"trial.GoNoGo3.stimulus type";"trial.GoNoGo4.durationTime";"trial.GoNoGo4.endTime";"trial.GoNoGo4.Error Type";"trial.GoNoGo4.icon";"trial.GoNoGo4.location";"trial.GoNoGo4.outcome";"trial.GoNoGo4.response";"trial.GoNoGo4.result";"trial.GoNoGo4.RT";"trial.GoNoGo4.signal";"trial.GoNoGo4.startTime";"trial.GoNoGo4.stimulus type";"trial.GoNoGo_Practice.durationTime";"trial.GoNoGo_Practice.endTime";"trial.GoNoGo_Practice.icon";"trial.GoNoGo_Practice.location";"trial.GoNoGo_Practice.outcome";"trial.GoNoGo_Practice.response";"trial.GoNoGo_Practice.result";"trial.GoNoGo_Practice.RT";"trial.GoNoGo_Practice.signal";"trial.GoNoGo_Practice.startTime";"trial.GoNoGo_Practice.stimulus type";"trial.GoNoGo_Tutorial.durationTime";"trial.GoNoGo_Tutorial.endTime";"trial.GoNoGo_Tutorial.icon";"trial.GoNoGo_Tutorial.location";"trial.GoNoGo_Tutorial.outcome";"trial.GoNoGo_Tutorial.response";"trial.GoNoGo_Tutorial.result";"trial.GoNoGo_Tutorial.RT";"trial.GoNoGo_Tutorial.signal";"trial.GoNoGo_Tutorial.startTime"
"Emmie0712";"1994";;"Windows 7";"Rachel's Experiment (D.T.)";"1.0";"2";"1";"1";"2";"1";"1";"2014-10-16 12:24:10.663";"2014-10-16 12:36:27.280";"1";"1";"0";"1";"0";"module.GoNoGotutorial.exec-7783.GoNoGo_Tutorial";;;;;;;;;;;;;;;;;;;;;;;;;;;;;;;;;;;;;;;;;;;;;;;;;;;;;;;;;;;;;;;;;;;;;;;;;;;;;;;;;;"3998";"2014-10-16 12:24:47.588";"leftResponse";"0";"FINISHED";"LEFT";"success";"845";"0";"2014-10-16 12:24:43.579"
"Emmie0712";"1994";;"Windows 7";"Rachel's Experiment (D.T.)";"1.0";"2";"1";"1";"2";"1";"1";"2014-10-16 12:24:10.663";"2014-10-16 12:36:27.280";"1";"1";"0";"2";"1";"module.GoNoGotutorial.exec-7783.GoNoGo_Tutorial";;;;;;;;;;;;;;;;;;;;;;;;;;;;;;;;;;;;;;;;;;;;;;;;;;;;;;;;;;;;;;;;;;;;;;;;;;;;;;;;;;"4003";"2014-10-16 12:24:52.892";"rightResponse";"1";"FINISHED";"RIGHT";"success";"466";"0";"2014-10-16 12:24:48.883"
"Emmie0712";"1994";;"Windows 7";"Rachel's Experiment (D.T.)";"1.0";"2";"1";"1";"2";"1";"1";"2014-10-16 12:24:10.663";"2014-10-16 12:36:27.280";"1";"1";"0";"3";"2";"module.GoNoGotutorial.exec-7783.GoNoGo_Tutorial";;;;;;;;;;;;;;;;;;;;;;;;;;;;;;;;;;;;;;;;;;;;;;;;;;;;;;;;;;;;;;;;;;;;;;;;;;;;;;;;;;"4003";"2014-10-16 12:24:58.180";"signalResponse";"0";"FINISHED";"NONE";"success";"0";"1";"2014-10-16 12:24:54.171"
"Emmie0712";"1994";;"Windows 7";"Rachel's Experiment (D.T.)";"1.0";"2";"1";"1";"2";"1";"1";"2014-10-16 12:24:10.663";"2014-10-16 12:36:27.280";"1";"1";"0";"4";"3";"module.GoNoGopractice.exec-4231.GoNoGo_Practice";;;;;;;;;;;;;;;;;;;;;;;;;;;;;;;;;;;;;;;;;;;;;;;;;;;;;;;;;;;;;;;;;;;;;;;"1959";"2014-10-16 12:25:05.388";"18";"0";"FINISHED";"LEFT";"success";"501";"0";"2014-10-16 12:25:03.422";"3";;;;;;;;;;
"Emmie0712";"1994";;"Windows 7";"Rachel's Experiment (D.T.)";"1.0";"2";"1";"1";"2";"1";"1";"2014-10-16 12:24:10.663";"2014-10-16 12:36:27.280";"1";"1";"0";"5";"4";"module.GoNoGopractice.exec-4231.GoNoGo_Practice";;;;;;;;;;;;;;;;;;;;;;;;;;;;;;;;;;;;;;;;;;;;;;;;;;;;;;;;;;;;;;;;;;;;;;;"1954";"2014-10-16 12:25:08.632";"21";"1";"FINISHED";"RIGHT";"success";"396";"0";"2014-10-16 12:25:06.667";"3";;;;;;;;;;
"Emmie0712";"1994";;"Windows 7";"Rachel's Experiment (D.T.)";"1.0";"2";"1";"1";"2";"1";"1";"2014-10-16 12:24:10.663";"2014-10-16 12:36:27.280";"1";"1";"0";"6";"5";"module.GoNoGopractice.exec-4231.GoNoGo_Practice";;;;;;;;;;;;;;;;;;;;;;;;;;;;;;;;;;;;;;;;;;;;;;;;;;;;;;;;;;;;;;;;;;;;;;;"1959";"2014-10-16 12:25:11.877";"14";"1";"FINISHED";"NONE";"success";"0";"1";"2014-10-16 12:25:09.912";"2";;;;;;;;;;
"Emmie0712";"1994";;"Windows 7";"Rachel's Experiment (D.T.)";"1.0";"2";"1";"1";"2";"1";"1";"2014-10-16 12:24:10.663";"2014-10-16 12:36:27.280";"1";"1";"0";"7";"6";"module.GoNoGopractice.exec-4231.GoNoGo_Practice";;;;;;;;;;;;;;;;;;;;;;;;;;;;;;;;;;;;;;;;;;;;;;;;;;;;;;;;;;;;;;;;;;;;;;;"1959";"2014-10-16 12:25:15.122";"26";"0";"FINISHED";"LEFT";"success";"455";"0";"2014-10-16 12:25:13.156";"3";;;;;;;;;;
"Emmie0712";"1994";;"Windows 7";"Rachel's Experiment (D.T.)";"1.0";"2";"1";"1";"2";"1";"1";"2014-10-16 12:24:10.663";"2014-10-16 12:36:27.280";"1";"1";"0";"8";"7";"module.GoNoGopractice.exec-4231.GoNoGo_Practice";;;;;;;;;;;;;;;;;;;;;;;;;;;;;;;;;;;;;;;;;;;;;;;;;;;;;;;;;;;;;;;;;;;;;;;"1959";"2014-10-16 12:25:18.367";"2";"0";"FINISHED";"LEFT";"success";"491";"0";"2014-10-16 12:25:16.401";"1";;;;;;;;;;
"Emmie0712";"1994";;"Windows 7";"Rachel's Experiment (D.T.)";"1.0";"2";"1";"1";"2";"1";"1";"2014-10-16 12:24:10.663";"2014-10-16 12:36:27.280";"1";"1";"0";"9";"8";"module.GoNoGopractice.exec-4231.GoNoGo_Practice";;;;;;;;;;;;;;;;;;;;;;;;;;;;;;;;;;;;;;;;;;;;;;;;;;;;;;;;;;;;;;;;;;;;;;;"1960";"2014-10-16 12:25:21.612";"30";"0";"FINISHED";"NONE";"success";"0";"1";"2014-10-16 12:25:19.646";"3";;;;;;;;;;
"Emmie0712";"1994";;"Windows 7";"Rachel's Experiment (D.T.)";"1.0";"2";"1";"1";"2";"1";"1";"2014-10-16 12:24:10.663";"2014-10-16 12:36:27.280";"1";"1";"0";"10";"9";"module.GoNoGopractice.exec-4231.GoNoGo_Practice";;;;;;;;;;;;;;;;;;;;;;;;;;;;;;;;;;;;;;;;;;;;;;;;;;;;;;;;;;;;;;;;;;;;;;;"1959";"2014-10-16 12:25:24.857";"6";"1";"FINISHED";"NONE";"success";"0";"1";"2014-10-16 12:25:22.891";"1";;;;;;;;;;
"Emmie0712";"1994";;"Windows 7";"Rachel's Experiment (D.T.)";"1.0";"2";"1";"1";"2";"1";"1";"2014-10-16 12:24:10.663";"2014-10-16 12:36:27.280";"1";"1";"0";"11";"10";"module.GoNoGopractice.exec-4231.GoNoGo_Practice";;;;;;;;;;;;;;;;;;;;;;;;;;;;;;;;;;;;;;;;;;;;;;;;;;;;;;;;;;;;;;;;;;;;;;;"1960";"2014-10-16 12:25:28.101";"34";"0";"FINISHED";"LEFT";"success";"413";"0";"2014-10-16 12:25:26.136";"3";;;;;;;;;;
"Emmie0712";"1994";;"Windows 7";"Rachel's Experiment (D.T.)";"1.0";"2";"1";"1";"2";"1";"1";"2014-10-16 12:24:10.663";"2014-10-16 12:36:27.280";"1";"1";"0";"12";"11";"module.GoNoGopractice.exec-4231.GoNoGo_Practice";;;;;;;;;;;;;;;;;;;;;;;;;;;;;;;;;;;;;;;;;;;;;;;;;;;;;;;;;;;;;;;;;;;;;;;"1959";"2014-10-16 12:25:31.346";"23";"1";"FINISHED";"RIGHT";"success";"368";"0";"2014-10-16 12:25:29.381";"3";;;;;;;;;;
"Emmie0712";"1994";;"Windows 7";"Rachel's Experiment (D.T.)";"1.0";"2";"1";"1";"2";"1";"1";"2014-10-16 12:24:10.663";"2014-10-16 12:36:27.280";"1";"1";"0";"13";"12";"module.GoNoGopractice.exec-4231.GoNoGo_Practice";;;;;;;;;;;;;;;;;;;;;;;;;;;;;;;;;;;;;;;;;;;;;;;;;;;;;;;;;;;;;;;;;;;;;;;"1959";"2014-10-16 12:25:34.591";"13";"0";"FINISHED";"NONE";"success";"0";"1";"2014-10-16 12:25:32.625";"2";;;;;;;;;;
"Emmie0712";"1994";;"Windows 7";"Rachel's Experiment (D.T.)";"1.0";"2";"1";"1";"2";"1";"1";"2014-10-16 12:24:10.663";"2014-10-16 12:36:27.280";"1";"1";"0";"14";"13";"module.GoNoGopractice.exec-4231.GoNoGo_Practice";;;;;;;;;;;;;;;;;;;;;;;;;;;;;;;;;;;;;;;;;;;;;;;;;;;;;;;;;;;;;;;;;;;;;;;"1960";"2014-10-16 12:25:37.929";"3";"1";"FINISHED";"RIGHT";"success";"465";"0";"2014-10-16 12:25:35.964";"1";;;;;;;;;;
"Emmie0712";"1994";;"Windows 7";"Rachel's Experiment (D.T.)";"1.0";"2";"1";"1";"2";"1";"1";"2014-10-16 12:24:10.663";"2014-10-16 12:36:27.280";"1";"1";"0";"15";"14";"module.GoNoGopractice.exec-4231.GoNoGo_Practice";;;;;;;;;;;;;;;;;;;;;;;;;;;;;;;;;;;;;;;;;;;;;;;;;;;;;;;;;;;;;;;;;;;;;;;"1959";"2014-10-16 12:25:41.174";"27";"1";"FINISHED";"NONE";"success";"0";"1";"2014-10-16 12:25:39.209";"3";;;;;;;;;;
"Emmie0712";"1994";;"Windows 7";"Rachel's Experiment (D.T.)";"1.0";"2";"1";"1";"2";"1";"1";"2014-10-16 12:24:10.663";"2014-10-16 12:36:27.280";"1";"1";"0";"16";"15";"module.training_block1.exec-7613.GoNoGo1";;;;;;;;;;;;;;;;;;;;;;;"1255";"2014-10-16 12:25:48.319";"ST_correctStop";"4";"1";"FINISHED";"NONE";"success";"0";"1";"2014-10-16 12:25:47.055";"1";;;;;;;;;;;;;;;;;;;;;;;;;;;;;;;;;;;;;;;;;;;;;;;;;;;;;;;;;
"Emmie0712";"1994";;"Windows 7";"Rachel's Experiment (D.T.)";"1.0";"2";"1";"1";"2";"1";"1";"2014-10-16 12:24:10.663";"2014-10-16 12:36:27.280";"1";"1";"0";"17";"16";"module.training_block1.exec-7613.GoNoGo1";;;;;;;;;;;;;;;;;;;;;;;"1258";"2014-10-16 12:25:50.862";"ST_correctStop";"18";"1";"FINISHED";"NONE";"success";"0";"1";"2014-10-16 12:25:49.598";"3";;;;;;;;;;;;;;;;;;;;;;;;;;;;;;;;;;;;;;;;;;;;;;;;;;;;;;;;;
"Emmie0712";"1994";;"Windows 7";"Rachel's Experiment (D.T.)";"1.0";"2";"1";"1";"2";"1";"1";"2014-10-16 12:24:10.663";"2014-10-16 12:36:27.280";"1";"1";"0";"18";"17";"module.training_block1.exec-7613.GoNoGo1";;;;;;;;;;;;;;;;;;;;;;;"1258";"2014-10-16 12:25:53.405";"NST_correctLoc";"20";"0";"FINISHED";"LEFT";"success";"512";"0";"2014-10-16 12:25:52.141";"3";;;;;;;;;;;;;;;;;;;;;;;;;;;;;;;;;;;;;;;;;;;;;;;;;;;;;;;;;
"Emmie0712";"1994";;"Windows 7";"Rachel's Experiment (D.T.)";"1.0";"2";"1";"1";"2";"1";"1";"2014-10-16 12:24:10.663";"2014-10-16 12:36:27.280";"1";"1";"0";"19";"18";"module.training_block1.exec-7613.GoNoGo1";;;;;;;;;;;;;;;;;;;;;;;"1258";"2014-10-16 12:25:55.947";"NST_correctLoc";"35";"0";"FINISHED";"LEFT";"success";"481";"0";"2014-10-16 12:25:54.684";"3";;;;;;;;;;;;;;;;;;;;;;;;;;;;;;;;;;;;;;;;;;;;;;;;;;;;;;;;;
"Emmie0712";"1994";;"Windows 7";"Rachel's Experiment (D.T.)";"1.0";"2";"1";"1";"2";"1";"1";"2014-10-16 12:24:10.663";"2014-10-16 12:36:27.280";"1";"1";"0";"20";"19";"module.training_block1.exec-7613.GoNoGo1";;;;;;;;;;;;;;;;;;;;;;;"1258";"2014-10-16 12:25:58.490";"ST_correctStop";"30";"1";"FINISHED";"NONE";"success";"0";"1";"2014-10-16 12:25:57.227";"3";;;;;;;;;;;;;;;;;;;;;;;;;;;;;;;;;;;;;;;;;;;;;;;;;;;;;;;;;
"Emmie0712";"1994";;"Windows 7";"Rachel's Experiment (D.T.)";"1.0";"2";"1";"1";"2";"1";"1";"2014-10-16 12:24:10.663";"2014-10-16 12:36:27.280";"1";"1";"0";"21";"20";"module.training_block1.exec-7613.GoNoGo1";;;;;;;;;;;;;;;;;;;;;;;"1257";"2014-10-16 12:26:01.033";"ST_correctStop";"8";"0";"FINISHED";"NONE";"success";"0";"1";"2014-10-16 12:25:59.769";"1";;;;;;;;;;;;;;;;;;;;;;;;;;;;;;;;;;;;;;;;;;;;;;;;;;;;;;;;;
"Emmie0712";"1994";;"Windows 7";"Rachel's Experiment (D.T.)";"1.0";"2";"1";"1";"2";"1";"1";"2014-10-16 12:24:10.663";"2014-10-16 12:36:27.280";"1";"1";"0";"22";"21";"module.training_block1.exec-7613.GoNoGo1";;;;;;;;;;;;;;;;;;;;;;;"1258";"2014-10-16 12:26:03.576";"NST_correctLoc";"25";"0";"FINISHED";"LEFT";"success";"437";"0";"2014-10-16 12:26:02.312";"3";;;;;;;;;;;;;;;;;;;;;;;;;;;;;;;;;;;;;;;;;;;;;;;;;;;;;;;;;
"Emmie0712";"1994";;"Windows 7";"Rachel's Experiment (D.T.)";"1.0";"2";"1";"1";"2";"1";"1";"2014-10-16 12:24:10.663";"2014-10-16 12:36:27.280";"1";"1";"0";"23";"22";"module.training_block1.exec-7613.GoNoGo1";;;;;;;;;;;;;;;;;;;;;;;"1258";"2014-10-16 12:26:06.119";"NST_correctLoc";"10";"1";"FINISHED";"RIGHT";"success";"773";"0";"2014-10-16 12:26:04.855";"2";;;;;;;;;;;;;;;;;;;;;;;;;;;;;;;;;;;;;;;;;;;;;;;;;;;;;;;;;
"Emmie0712";"1994";;"Windows 7";"Rachel's Experiment (D.T.)";"1.0";"2";"1";"1";"2";"1";"1";"2014-10-16 12:24:10.663";"2014-10-16 12:36:27.280";"1";"1";"0";"24";"23";"module.training_block1.exec-7613.GoNoGo1";;;;;;;;;;;;;;;;;;;;;;;"1258";"2014-10-16 12:26:08.661";"ST_correctStop";"19";"1";"FINISHED";"NONE";"success";"0";"1";"2014-10-16 12:26:07.398";"3";;;;;;;;;;;;;;;;;;;;;;;;;;;;;;;;;;;;;;;;;;;;;;;;;;;;;;;;;
"Emmie0712";"1994";;"Windows 7";"Rachel's Experiment (D.T.)";"1.0";"2";"1";"1";"2";"1";"1";"2014-10-16 12:24:10.663";"2014-10-16 12:36:27.280";"1";"1";"0";"25";"24";"module.training_block1.exec-7613.GoNoGo1";;;;;;;;;;;;;;;;;;;;;;;"1258";"2014-10-16 12:26:11.204";"NST_correctLoc";"12";"0";"FINISHED";"LEFT";"success";"512";"0";"2014-10-16 12:26:09.941";"2";;;;;;;;;;;;;;;;;;;;;;;;;;;;;;;;;;;;;;;;;;;;;;;;;;;;;;;;;
"Emmie0712";"1994";;"Windows 7";"Rachel's Experiment (D.T.)";"1.0";"2";"1";"1";"2";"1";"1";"2014-10-16 12:24:10.663";"2014-10-16 12:36:27.280";"1";"1";"0";"26";"25";"module.training_block1.exec-7613.GoNoGo1";;;;;;;;;;;;;;;;;;;;;;;"1257";"2014-10-16 12:26:13.747";"NST_correctLoc";"16";"1";"FINISHED";"RIGHT";"success";"457";"0";"2014-10-16 12:26:12.483";"2";;;;;;;;;;;;;;;;;;;;;;;;;;;;;;;;;;;;;;;;;;;;;;;;;;;;;;;;;
"Emmie0712";"1994";;"Windows 7";"Rachel's Experiment (D.T.)";"1.0";"2";"1";"1";"2";"1";"1";"2014-10-16 12:24:10.663";"2014-10-16 12:36:27.280";"1";"1";"0";"27";"26";"module.training_block1.exec-7613.GoNoGo1";;;;;;;;;;;;;;;;;;;;;;;"1258";"2014-10-16 12:26:16.290";"ST_correctStop";"5";"1";"FINISHED";"NONE";"success";"0";"1";"2014-10-16 12:26:15.026";"1";;;;;;;;;;;;;;;;;;;;;;;;;;;;;;;;;;;;;;;;;;;;;;;;;;;;;;;;;
"Emmie0712";"1994";;"Windows 7";"Rachel's Experiment (D.T.)";"1.0";"2";"1";"1";"2";"1";"1";"2014-10-16 12:24:10.663";"2014-10-16 12:36:27.280";"1";"1";"0";"28";"27";"module.training_block1.exec-7613.GoNoGo1";;;;;;;;;;;;;;;;;;;;;;;"1261";"2014-10-16 12:26:18.833";"NST_correctLoc";"27";"0";"FINISHED";"LEFT";"success";"367";"0";"2014-10-16 12:26:17.569";"3";;;;;;;;;;;;;;;;;;;;;;;;;;;;;;;;;;;;;;;;;;;;;;;;;;;;;;;;;
"Emmie0712";"1994";;"Windows 7";"Rachel's Experiment (D.T.)";"1.0";"2";"1";"1";"2";"1";"1";"2014-10-16 12:24:10.663";"2014-10-16 12:36:27.280";"1";"1";"0";"29";"28";"module.training_block1.exec-7613.GoNoGo1";;;;;;;;;;;;;;;;;;;;;;;"1256";"2014-10-16 12:26:21.375";"NST_correctLoc";"17";"0";"FINISHED";"LEFT";"success";"515";"0";"2014-10-16 12:26:20.112";"2";;;;;;;;;;;;;;;;;;;;;;;;;;;;;;;;;;;;;;;;;;;;;;;;;;;;;;;;;
"Emmie0712";"1994";;"Windows 7";"Rachel's Experiment (D.T.)";"1.0";"2";"1";"1";"2";"1";"1";"2014-10-16 12:24:10.663";"2014-10-16 12:36:27.280";"1";"1";"0";"30";"29";"module.training_block1.exec-7613.GoNoGo1";;;;;;;;;;;;;;;;;;;;;;;"1257";"2014-10-16 12:26:23.918";"NST_correctLoc";"13";"1";"FINISHED";"RIGHT";"success";"469";"0";"2014-10-16 12:26:22.655";"2";;;;;;;;;;;;;;;;;;;;;;;;;;;;;;;;;;;;;;;;;;;;;;;;;;;;;;;;;
"Emmie0712";"1994";;"Windows 7";"Rachel's Experiment (D.T.)";"1.0";"2";"1";"1";"2";"1";"1";"2014-10-16 12:24:10.663";"2014-10-16 12:36:27.280";"1";"1";"0";"31";"30";"module.training_block1.exec-7613.GoNoGo1";;;;;;;;;;;;;;;;;;;;;;;"1257";"2014-10-16 12:26:26.461";"NST_correctLoc";"31";"0";"FINISHED";"LEFT";"success";"543";"0";"2014-10-16 12:26:25.197";"3";;;;;;;;;;;;;;;;;;;;;;;;;;;;;;;;;;;;;;;;;;;;;;;;;;;;;;;;;
"Emmie0712";"1994";;"Windows 7";"Rachel's Experiment (D.T.)";"1.0";"2";"1";"1";"2";"1";"1";"2014-10-16 12:24:10.663";"2014-10-16 12:36:27.280";"1";"1";"0";"32";"31";"module.training_block1.exec-7613.GoNoGo1";;;;;;;;;;;;;;;;;;;;;;;"1257";"2014-10-16 12:26:29.004";"ST_correctStop";"7";"0";"FINISHED";"NONE";"success";"0";"1";"2014-10-16 12:26:27.740";"1";;;;;;;;;;;;;;;;;;;;;;;;;;;;;;;;;;;;;;;;;;;;;;;;;;;;;;;;;
"Emmie0712";"1994";;"Windows 7";"Rachel's Experiment (D.T.)";"1.0";"2";"1";"1";"2";"1";"1";"2014-10-16 12:24:10.663";"2014-10-16 12:36:27.280";"1";"1";"0";"33";"32";"module.training_block1.exec-7613.GoNoGo1";;;;;;;;;;;;;;;;;;;;;;;"1257";"2014-10-16 12:26:31.547";"NST_correctLoc";"14";"0";"FINISHED";"LEFT";"success";"441";"0";"2014-10-16 12:26:30.283";"2";;;;;;;;;;;;;;;;;;;;;;;;;;;;;;;;;;;;;;;;;;;;;;;;;;;;;;;;;
"Emmie0712";"1994";;"Windows 7";"Rachel's Experiment (D.T.)";"1.0";"2";"1";"1";"2";"1";"1";"2014-10-16 12:24:10.663";"2014-10-16 12:36:27.280";"1";"1";"0";"34";"33";"module.training_block1.exec-7613.GoNoGo1";;;;;;;;;;;;;;;;;;;;;;;"1257";"2014-10-16 12:26:34.089";"NST_correctLoc";"15";"1";"FINISHED";"RIGHT";"success";"474";"0";"2014-10-16 12:26:32.826";"2";;;;;;;;;;;;;;;;;;;;;;;;;;;;;;;;;;;;;;;;;;;;;;;;;;;;;;;;;
"Emmie0712";"1994";;"Windows 7";"Rachel's Experiment (D.T.)";"1.0";"2";"1";"1";"2";"1";"1";"2014-10-16 12:24:10.663";"2014-10-16 12:36:27.280";"1";"1";"0";"35";"34";"module.training_block1.exec-7613.GoNoGo1";;;;;;;;;;;;;;;;;;;;;;;"1258";"2014-10-16 12:26:36.632";"ST_failedStop";"34";"0";"FINISHED";"LEFT";"failure";"484";"1";"2014-10-16 12:26:35.369";"3";;;;;;;;;;;;;;;;;;;;;;;;;;;;;;;;;;;;;;;;;;;;;;;;;;;;;;;;;
"Emmie0712";"1994";;"Windows 7";"Rachel's Experiment (D.T.)";"1.0";"2";"1";"1";"2";"1";"1";"2014-10-16 12:24:10.663";"2014-10-16 12:36:27.280";"1";"1";"0";"36";"35";"module.training_block1.exec-7613.GoNoGo1";;;;;;;;;;;;;;;;;;;;;;;"1257";"2014-10-16 12:26:39.175";"ST_correctStop";"0";"0";"FINISHED";"NONE";"success";"0";"1";"2014-10-16 12:26:37.911";"1";;;;;;;;;;;;;;;;;;;;;;;;;;;;;;;;;;;;;;;;;;;;;;;;;;;;;;;;;
"Emmie0712";"1994";;"Windows 7";"Rachel's Experiment (D.T.)";"1.0";"2";"1";"1";"2";"1";"1";"2014-10-16 12:24:10.663";"2014-10-16 12:36:27.280";"1";"1";"0";"37";"36";"module.training_block1.exec-7613.GoNoGo1";;;;;;;;;;;;;;;;;;;;;;;"1258";"2014-10-16 12:26:41.718";"ST_correctStop";"33";"1";"FINISHED";"NONE";"success";"0";"1";"2014-10-16 12:26:40.454";"3";;;;;;;;;;;;;;;;;;;;;;;;;;;;;;;;;;;;;;;;;;;;;;;;;;;;;;;;;
"Emmie0712";"1994";;"Windows 7";"Rachel's Experiment (D.T.)";"1.0";"2";"1";"1";"2";"1";"1";"2014-10-16 12:24:10.663";"2014-10-16 12:36:27.280";"1";"1";"0";"38";"37";"module.training_block1.exec-7613.GoNoGo1";;;;;;;;;;;;;;;;;;;;;;;"1258";"2014-10-16 12:26:44.261";"ST_correctStop";"28";"0";"FINISHED";"NONE";"success";"0";"1";"2014-10-16 12:26:42.997";"3";;;;;;;;;;;;;;;;;;;;;;;;;;;;;;;;;;;;;;;;;;;;;;;;;;;;;;;;;
"Emmie0712";"1994";;"Windows 7";"Rachel's Experiment (D.T.)";"1.0";"2";"1";"1";"2";"1";"1";"2014-10-16 12:24:10.663";"2014-10-16 12:36:27.280";"1";"1";"0";"39";"38";"module.training_block1.exec-7613.GoNoGo1";;;;;;;;;;;;;;;;;;;;;;;"1258";"2014-10-16 12:26:46.803";"NST_correctLoc";"11";"0";"FINISHED";"LEFT";"success";"512";"0";"2014-10-16 12:26:45.540";"2";;;;;;;;;;;;;;;;;;;;;;;;;;;;;;;;;;;;;;;;;;;;;;;;;;;;;;;;;
"Emmie0712";"1994";;"Windows 7";"Rachel's Experiment (D.T.)";"1.0";"2";"1";"1";"2";"1";"1";"2014-10-16 12:24:10.663";"2014-10-16 12:36:27.280";"1";"1";"0";"40";"39";"module.training_block1.exec-7613.GoNoGo1";;;;;;;;;;;;;;;;;;;;;;;"1258";"2014-10-16 12:26:49.346";"NST_correctLoc";"9";"1";"FINISHED";"RIGHT";"success";"441";"0";"2014-10-16 12:26:48.083";"2";;;;;;;;;;;;;;;;;;;;;;;;;;;;;;;;;;;;;;;;;;;;;;;;;;;;;;;;;
"Emmie0712";"1994";;"Windows 7";"Rachel's Experiment (D.T.)";"1.0";"2";"1";"1";"2";"1";"1";"2014-10-16 12:24:10.663";"2014-10-16 12:36:27.280";"1";"1";"0";"41";"40";"module.training_block1.exec-7613.GoNoGo1";;;;;;;;;;;;;;;;;;;;;;;"1256";"2014-10-16 12:26:51.889";"NST_correctLoc";"21";"0";"FINISHED";"LEFT";"success";"362";"0";"2014-10-16 12:26:50.625";"3";;;;;;;;;;;;;;;;;;;;;;;;;;;;;;;;;;;;;;;;;;;;;;;;;;;;;;;;;
"Emmie0712";"1994";;"Windows 7";"Rachel's Experiment (D.T.)";"1.0";"2";"1";"1";"2";"1";"1";"2014-10-16 12:24:10.663";"2014-10-16 12:36:27.280";"1";"1";"0";"42";"41";"module.training_block1.exec-7613.GoNoGo1";;;;;;;;;;;;;;;;;;;;;;;"1257";"2014-10-16 12:26:54.432";"ST_correctStop";"23";"1";"FINISHED";"NONE";"success";"0";"1";"2014-10-16 12:26:53.168";"3";;;;;;;;;;;;;;;;;;;;;;;;;;;;;;;;;;;;;;;;;;;;;;;;;;;;;;;;;
"Emmie0712";"1994";;"Windows 7";"Rachel's Experiment (D.T.)";"1.0";"2";"1";"1";"2";"1";"1";"2014-10-16 12:24:10.663";"2014-10-16 12:36:27.280";"1";"1";"0";"43";"42";"module.training_block1.exec-7613.GoNoGo1";;;;;;;;;;;;;;;;;;;;;;;"1253";"2014-10-16 12:26:56.975";"ST_correctStop";"6";"0";"FINISHED";"NONE";"success";"0";"1";"2014-10-16 12:26:55.711";"1";;;;;;;;;;;;;;;;;;;;;;;;;;;;;;;;;;;;;;;;;;;;;;;;;;;;;;;;;
"Emmie0712";"1994";;"Windows 7";"Rachel's Experiment (D.T.)";"1.0";"2";"1";"1";"2";"1";"1";"2014-10-16 12:24:10.663";"2014-10-16 12:36:27.280";"1";"1";"0";"44";"43";"module.training_block1.exec-7613.GoNoGo1";;;;;;;;;;;;;;;;;;;;;;;"1258";"2014-10-16 12:26:59.517";"NST_correctLoc";"29";"0";"FINISHED";"LEFT";"success";"566";"0";"2014-10-16 12:26:58.254";"3";;;;;;;;;;;;;;;;;;;;;;;;;;;;;;;;;;;;;;;;;;;;;;;;;;;;;;;;;
"Emmie0712";"1994";;"Windows 7";"Rachel's Experiment (D.T.)";"1.0";"2";"1";"1";"2";"1";"1";"2014-10-16 12:24:10.663";"2014-10-16 12:36:27.280";"1";"1";"0";"45";"44";"module.training_block1.exec-7613.GoNoGo1";;;;;;;;;;;;;;;;;;;;;;;"1258";"2014-10-16 12:27:02.060";"ST_correctStop";"1";"0";"FINISHED";"NONE";"success";"0";"1";"2014-10-16 12:27:00.797";"1";;;;;;;;;;;;;;;;;;;;;;;;;;;;;;;;;;;;;;;;;;;;;;;;;;;;;;;;;
"Emmie0712";"1994";;"Windows 7";"Rachel's Experiment (D.T.)";"1.0";"2";"1";"1";"2";"1";"1";"2014-10-16 12:24:10.663";"2014-10-16 12:36:27.280";"1";"1";"0";"46";"45";"module.training_block1.exec-7613.GoNoGo1";;;;;;;;;;;;;;;;;;;;;;;"1258";"2014-10-16 12:27:04.603";"ST_correctStop";"2";"1";"FINISHED";"NONE";"success";"0";"1";"2014-10-16 12:27:03.339";"1";;;;;;;;;;;;;;;;;;;;;;;;;;;;;;;;;;;;;;;;;;;;;;;;;;;;;;;;;
"Emmie0712";"1994";;"Windows 7";"Rachel's Experiment (D.T.)";"1.0";"2";"1";"1";"2";"1";"1";"2014-10-16 12:24:10.663";"2014-10-16 12:36:27.280";"1";"1";"0";"47";"46";"module.training_block1.exec-7613.GoNoGo1";;;;;;;;;;;;;;;;;;;;;;;"1257";"2014-10-16 12:27:07.146";"ST_correctStop";"32";"1";"FINISHED";"NONE";"success";"0";"1";"2014-10-16 12:27:05.882";"3";;;;;;;;;;;;;;;;;;;;;;;;;;;;;;;;;;;;;;;;;;;;;;;;;;;;;;;;;
"Emmie0712";"1994";;"Windows 7";"Rachel's Experiment (D.T.)";"1.0";"2";"1";"1";"2";"1";"1";"2014-10-16 12:24:10.663";"2014-10-16 12:36:27.280";"1";"1";"0";"48";"47";"module.training_block1.exec-7613.GoNoGo1";;;;;;;;;;;;;;;;;;;;;;;"1261";"2014-10-16 12:27:09.689";"ST_correctStop";"3";"1";"FINISHED";"NONE";"success";"0";"1";"2014-10-16 12:27:08.425";"1";;;;;;;;;;;;;;;;;;;;;;;;;;;;;;;;;;;;;;;;;;;;;;;;;;;;;;;;;
"Emmie0712";"1994";;"Windows 7";"Rachel's Experiment (D.T.)";"1.0";"2";"1";"1";"2";"1";"1";"2014-10-16 12:24:10.663";"2014-10-16 12:36:27.280";"1";"1";"0";"49";"48";"module.training_block1.exec-7613.GoNoGo1";;;;;;;;;;;;;;;;;;;;;;;"1257";"2014-10-16 12:27:12.231";"NST_correctLoc";"22";"0";"FINISHED";"LEFT";"success";"572";"0";"2014-10-16 12:27:10.968";"3";;;;;;;;;;;;;;;;;;;;;;;;;;;;;;;;;;;;;;;;;;;;;;;;;;;;;;;;;
"Emmie0712";"1994";;"Windows 7";"Rachel's Experiment (D.T.)";"1.0";"2";"1";"1";"2";"1";"1";"2014-10-16 12:24:10.663";"2014-10-16 12:36:27.280";"1";"1";"0";"50";"49";"module.training_block1.exec-7613.GoNoGo1";;;;;;;;;;;;;;;;;;;;;;;"1258";"2014-10-16 12:27:14.774";"ST_correctStop";"24";"1";"FINISHED";"NONE";"success";"0";"1";"2014-10-16 12:27:13.511";"3";;;;;;;;;;;;;;;;;;;;;;;;;;;;;;;;;;;;;;;;;;;;;;;;;;;;;;;;;
"Emmie0712";"1994";;"Windows 7";"Rachel's Experiment (D.T.)";"1.0";"2";"1";"1";"2";"1";"1";"2014-10-16 12:24:10.663";"2014-10-16 12:36:27.280";"1";"1";"0";"51";"50";"module.training_block1.exec-7613.GoNoGo1";;;;;;;;;;;;;;;;;;;;;;;"1257";"2014-10-16 12:27:17.317";"NST_correctLoc";"26";"0";"FINISHED";"LEFT";"success";"638";"0";"2014-10-16 12:27:16.054";"3";;;;;;;;;;;;;;;;;;;;;;;;;;;;;;;;;;;;;;;;;;;;;;;;;;;;;;;;;
"Emmie0712";"1994";;"Windows 7";"Rachel's Experiment (D.T.)";"1.0";"2";"1";"1";"2";"1";"1";"2014-10-16 12:24:10.663";"2014-10-16 12:36:27.280";"1";"1";"0";"52";"51";"module.training_block2.exec-1336.GoNoGo2";;;;;;;;;;;;;;;;;;;;;;;;;;;;;;;;;;;"1261";"2014-10-16 12:27:28.190";"NST_correctLoc";"18";"0";"FINISHED";"LEFT";"success";"569";"0";"2014-10-16 12:27:26.927";"3";;;;;;;;;;;;;;;;;;;;;;;;;;;;;;;;;;;;;;;;;;;;;
"Emmie0712";"1994";;"Windows 7";"Rachel's Experiment (D.T.)";"1.0";"2";"1";"1";"2";"1";"1";"2014-10-16 12:24:10.663";"2014-10-16 12:36:27.280";"1";"1";"0";"53";"52";"module.training_block2.exec-1336.GoNoGo2";;;;;;;;;;;;;;;;;;;;;;;;;;;;;;;;;;;"1261";"2014-10-16 12:27:30.733";"NST_correctLoc";"12";"0";"FINISHED";"LEFT";"success";"482";"0";"2014-10-16 12:27:29.470";"2";;;;;;;;;;;;;;;;;;;;;;;;;;;;;;;;;;;;;;;;;;;;;
"Emmie0712";"1994";;"Windows 7";"Rachel's Experiment (D.T.)";"1.0";"2";"1";"1";"2";"1";"1";"2014-10-16 12:24:10.663";"2014-10-16 12:36:27.280";"1";"1";"0";"54";"53";"module.training_block2.exec-1336.GoNoGo2";;;;;;;;;;;;;;;;;;;;;;;;;;;;;;;;;;;"1261";"2014-10-16 12:27:33.276";"NST_correctLoc";"30";"0";"FINISHED";"LEFT";"success";"483";"0";"2014-10-16 12:27:32.012";"3";;;;;;;;;;;;;;;;;;;;;;;;;;;;;;;;;;;;;;;;;;;;;
"Emmie0712";"1994";;"Windows 7";"Rachel's Experiment (D.T.)";"1.0";"2";"1";"1";"2";"1";"1";"2014-10-16 12:24:10.663";"2014-10-16 12:36:27.280";"1";"1";"0";"55";"54";"module.training_block2.exec-1336.GoNoGo2";;;;;;;;;;;;;;;;;;;;;;;;;;;;;;;;;;;"1261";"2014-10-16 12:27:35.819";"NST_correctLoc";"13";"1";"FINISHED";"RIGHT";"success";"452";"0";"2014-10-16 12:27:34.555";"2";;;;;;;;;;;;;;;;;;;;;;;;;;;;;;;;;;;;;;;;;;;;;
"Emmie0712";"1994";;"Windows 7";"Rachel's Experiment (D.T.)";"1.0";"2";"1";"1";"2";"1";"1";"2014-10-16 12:24:10.663";"2014-10-16 12:36:27.280";"1";"1";"0";"56";"55";"module.training_block2.exec-1336.GoNoGo2";;;;;;;;;;;;;;;;;;;;;;;;;;;;;;;;;;;"1261";"2014-10-16 12:27:38.362";"NST_correctLoc";"17";"0";"FINISHED";"LEFT";"success";"421";"0";"2014-10-16 12:27:37.098";"2";;;;;;;;;;;;;;;;;;;;;;;;;;;;;;;;;;;;;;;;;;;;;
"Emmie0712";"1994";;"Windows 7";"Rachel's Experiment (D.T.)";"1.0";"2";"1";"1";"2";"1";"1";"2014-10-16 12:24:10.663";"2014-10-16 12:36:27.280";"1";"1";"0";"57";"56";"module.training_block2.exec-1336.GoNoGo2";;;;;;;;;;;;;;;;;;;;;;;;;;;;;;;;;;;"1261";"2014-10-16 12:27:40.904";"ST_correctStop";"19";"0";"FINISHED";"NONE";"success";"0";"1";"2014-10-16 12:27:39.641";"3";;;;;;;;;;;;;;;;;;;;;;;;;;;;;;;;;;;;;;;;;;;;;
"Emmie0712";"1994";;"Windows 7";"Rachel's Experiment (D.T.)";"1.0";"2";"1";"1";"2";"1";"1";"2014-10-16 12:24:10.663";"2014-10-16 12:36:27.280";"1";"1";"0";"58";"57";"module.training_block2.exec-1336.GoNoGo2";;;;;;;;;;;;;;;;;;;;;;;;;;;;;;;;;;;"1261";"2014-10-16 12:27:43.447";"NST_correctLoc";"23";"1";"FINISHED";"RIGHT";"success";"424";"0";"2014-10-16 12:27:42.184";"3";;;;;;;;;;;;;;;;;;;;;;;;;;;;;;;;;;;;;;;;;;;;;
"Emmie0712";"1994";;"Windows 7";"Rachel's Experiment (D.T.)";"1.0";"2";"1";"1";"2";"1";"1";"2014-10-16 12:24:10.663";"2014-10-16 12:36:27.280";"1";"1";"0";"59";"58";"module.training_block2.exec-1336.GoNoGo2";;;;;;;;;;;;;;;;;;;;;;;;;;;;;;;;;;;"1261";"2014-10-16 12:27:45.990";"NST_correctLoc";"20";"0";"FINISHED";"LEFT";"success";"673";"0";"2014-10-16 12:27:44.726";"3";;;;;;;;;;;;;;;;;;;;;;;;;;;;;;;;;;;;;;;;;;;;;
"Emmie0712";"1994";;"Windows 7";"Rachel's Experiment (D.T.)";"1.0";"2";"1";"1";"2";"1";"1";"2014-10-16 12:24:10.663";"2014-10-16 12:36:27.280";"1";"1";"0";"60";"59";"module.training_block2.exec-1336.GoNoGo2";;;;;;;;;;;;;;;;;;;;;;;;;;;;;;;;;;;"1261";"2014-10-16 12:27:48.533";"NST_correctLoc";"10";"1";"FINISHED";"RIGHT";"success";"522";"0";"2014-10-16 12:27:47.269";"2";;;;;;;;;;;;;;;;;;;;;;;;;;;;;;;;;;;;;;;;;;;;;
"Emmie0712";"1994";;"Windows 7";"Rachel's Experiment (D.T.)";"1.0";"2";"1";"1";"2";"1";"1";"2014-10-16 12:24:10.663";"2014-10-16 12:36:27.280";"1";"1";"0";"61";"60";"module.training_block2.exec-1336.GoNoGo2";;;;;;;;;;;;;;;;;;;;;;;;;;;;;;;;;;;"1261";"2014-10-16 12:27:51.076";"NST_correctLoc";"14";"1";"FINISHED";"RIGHT";"success";"651";"0";"2014-10-16 12:27:49.812";"2";;;;;;;;;;;;;;;;;;;;;;;;;;;;;;;;;;;;;;;;;;;;;
"Emmie0712";"1994";;"Windows 7";"Rachel's Experiment (D.T.)";"1.0";"2";"1";"1";"2";"1";"1";"2014-10-16 12:24:10.663";"2014-10-16 12:36:27.280";"1";"1";"0";"62";"61";"module.training_block2.exec-1336.GoNoGo2";;;;;;;;;;;;;;;;;;;;;;;;;;;;;;;;;;;"1261";"2014-10-16 12:27:53.618";"ST_correctStop";"21";"1";"FINISHED";"NONE";"success";"0";"1";"2014-10-16 12:27:52.355";"3";;;;;;;;;;;;;;;;;;;;;;;;;;;;;;;;;;;;;;;;;;;;;
"Emmie0712";"1994";;"Windows 7";"Rachel's Experiment (D.T.)";"1.0";"2";"1";"1";"2";"1";"1";"2014-10-16 12:24:10.663";"2014-10-16 12:36:27.280";"1";"1";"0";"63";"62";"module.training_block2.exec-1336.GoNoGo2";;;;;;;;;;;;;;;;;;;;;;;;;;;;;;;;;;;"1261";"2014-10-16 12:27:56.192";"ST_correctStop";"4";"1";"FINISHED";"NONE";"success";"0";"1";"2014-10-16 12:27:54.929";"1";;;;;;;;;;;;;;;;;;;;;;;;;;;;;;;;;;;;;;;;;;;;;
"Emmie0712";"1994";;"Windows 7";"Rachel's Experiment (D.T.)";"1.0";"2";"1";"1";"2";"1";"1";"2014-10-16 12:24:10.663";"2014-10-16 12:36:27.280";"1";"1";"0";"64";"63";"module.training_block2.exec-1336.GoNoGo2";;;;;;;;;;;;;;;;;;;;;;;;;;;;;;;;;;;"1261";"2014-10-16 12:27:58.766";"ST_correctStop";"24";"0";"FINISHED";"NONE";"success";"0";"1";"2014-10-16 12:27:57.503";"3";;;;;;;;;;;;;;;;;;;;;;;;;;;;;;;;;;;;;;;;;;;;;
"Emmie0712";"1994";;"Windows 7";"Rachel's Experiment (D.T.)";"1.0";"2";"1";"1";"2";"1";"1";"2014-10-16 12:24:10.663";"2014-10-16 12:36:27.280";"1";"1";"0";"65";"64";"module.training_block2.exec-1336.GoNoGo2";;;;;;;;;;;;;;;;;;;;;;;;;;;;;;;;;;;"1261";"2014-10-16 12:28:01.340";"ST_correctStop";"3";"0";"FINISHED";"NONE";"success";"0";"1";"2014-10-16 12:28:00.077";"1";;;;;;;;;;;;;;;;;;;;;;;;;;;;;;;;;;;;;;;;;;;;;
"Emmie0712";"1994";;"Windows 7";"Rachel's Experiment (D.T.)";"1.0";"2";"1";"1";"2";"1";"1";"2014-10-16 12:24:10.663";"2014-10-16 12:36:27.280";"1";"1";"0";"66";"65";"module.training_block2.exec-1336.GoNoGo2";;;;;;;;;;;;;;;;;;;;;;;;;;;;;;;;;;;"1261";"2014-10-16 12:28:03.930";"ST_correctStop";"7";"1";"FINISHED";"NONE";"success";"0";"1";"2014-10-16 12:28:02.666";"1";;;;;;;;;;;;;;;;;;;;;;;;;;;;;;;;;;;;;;;;;;;;;
"Emmie0712";"1994";;"Windows 7";"Rachel's Experiment (D.T.)";"1.0";"2";"1";"1";"2";"1";"1";"2014-10-16 12:24:10.663";"2014-10-16 12:36:27.280";"1";"1";"0";"67";"66";"module.training_block2.exec-1336.GoNoGo2";;;;;;;;;;;;;;;;;;;;;;;;;;;;;;;;;;;"1261";"2014-10-16 12:28:06.473";"ST_correctStop";"6";"0";"FINISHED";"NONE";"success";"0";"1";"2014-10-16 12:28:05.209";"1";;;;;;;;;;;;;;;;;;;;;;;;;;;;;;;;;;;;;;;;;;;;;
"Emmie0712";"1994";;"Windows 7";"Rachel's Experiment (D.T.)";"1.0";"2";"1";"1";"2";"1";"1";"2014-10-16 12:24:10.663";"2014-10-16 12:36:27.280";"1";"1";"0";"68";"67";"module.training_block2.exec-1336.GoNoGo2";;;;;;;;;;;;;;;;;;;;;;;;;;;;;;;;;;;"1261";"2014-10-16 12:28:09.016";"ST_correctStop";"35";"0";"FINISHED";"NONE";"success";"0";"1";"2014-10-16 12:28:07.752";"3";;;;;;;;;;;;;;;;;;;;;;;;;;;;;;;;;;;;;;;;;;;;;
"Emmie0712";"1994";;"Windows 7";"Rachel's Experiment (D.T.)";"1.0";"2";"1";"1";"2";"1";"1";"2014-10-16 12:24:10.663";"2014-10-16 12:36:27.280";"1";"1";"0";"69";"68";"module.training_block2.exec-1336.GoNoGo2";;;;;;;;;;;;;;;;;;;;;;;;;;;;;;;;;;;"1261";"2014-10-16 12:28:11.558";"NST_correctLoc";"16";"1";"FINISHED";"RIGHT";"success";"464";"0";"2014-10-16 12:28:10.295";"2";;;;;;;;;;;;;;;;;;;;;;;;;;;;;;;;;;;;;;;;;;;;;
"Emmie0712";"1994";;"Windows 7";"Rachel's Experiment (D.T.)";"1.0";"2";"1";"1";"2";"1";"1";"2014-10-16 12:24:10.663";"2014-10-16 12:36:27.280";"1";"1";"0";"70";"69";"module.training_block2.exec-1336.GoNoGo2";;;;;;;;;;;;;;;;;;;;;;;;;;;;;;;;;;;"1261";"2014-10-16 12:28:14.101";"ST_correctStop";"1";"0";"FINISHED";"NONE";"success";"0";"1";"2014-10-16 12:28:12.838";"1";;;;;;;;;;;;;;;;;;;;;;;;;;;;;;;;;;;;;;;;;;;;;
"Emmie0712";"1994";;"Windows 7";"Rachel's Experiment (D.T.)";"1.0";"2";"1";"1";"2";"1";"1";"2014-10-16 12:24:10.663";"2014-10-16 12:36:27.280";"1";"1";"0";"71";"70";"module.training_block2.exec-1336.GoNoGo2";;;;;;;;;;;;;;;;;;;;;;;;;;;;;;;;;;;"1261";"2014-10-16 12:28:16.644";"ST_correctStop";"34";"1";"FINISHED";"NONE";"success";"0";"1";"2014-10-16 12:28:15.380";"3";;;;;;;;;;;;;;;;;;;;;;;;;;;;;;;;;;;;;;;;;;;;;
"Emmie0712";"1994";;"Windows 7";"Rachel's Experiment (D.T.)";"1.0";"2";"1";"1";"2";"1";"1";"2014-10-16 12:24:10.663";"2014-10-16 12:36:27.280";"1";"1";"0";"72";"71";"module.training_block2.exec-1336.GoNoGo2";;;;;;;;;;;;;;;;;;;;;;;;;;;;;;;;;;;"1261";"2014-10-16 12:28:19.187";"NST_correctLoc";"15";"1";"FINISHED";"RIGHT";"success";"500";"0";"2014-10-16 12:28:17.923";"2";;;;;;;;;;;;;;;;;;;;;;;;;;;;;;;;;;;;;;;;;;;;;
"Emmie0712";"1994";;"Windows 7";"Rachel's Experiment (D.T.)";"1.0";"2";"1";"1";"2";"1";"1";"2014-10-16 12:24:10.663";"2014-10-16 12:36:27.280";"1";"1";"0";"73";"72";"module.training_block2.exec-1336.GoNoGo2";;;;;;;;;;;;;;;;;;;;;;;;;;;;;;;;;;;"1261";"2014-10-16 12:28:21.730";"NST_correctLoc";"33";"0";"FINISHED";"LEFT";"success";"613";"0";"2014-10-16 12:28:20.466";"3";;;;;;;;;;;;;;;;;;;;;;;;;;;;;;;;;;;;;;;;;;;;;
"Emmie0712";"1994";;"Windows 7";"Rachel's Experiment (D.T.)";"1.0";"2";"1";"1";"2";"1";"1";"2014-10-16 12:24:10.663";"2014-10-16 12:36:27.280";"1";"1";"0";"74";"73";"module.training_block2.exec-1336.GoNoGo2";;;;;;;;;;;;;;;;;;;;;;;;;;;;;;;;;;;"1261";"2014-10-16 12:28:24.272";"NST_correctLoc";"27";"1";"FINISHED";"RIGHT";"success";"510";"0";"2014-10-16 12:28:23.009";"3";;;;;;;;;;;;;;;;;;;;;;;;;;;;;;;;;;;;;;;;;;;;;
"Emmie0712";"1994";;"Windows 7";"Rachel's Experiment (D.T.)";"1.0";"2";"1";"1";"2";"1";"1";"2014-10-16 12:24:10.663";"2014-10-16 12:36:27.280";"1";"1";"0";"75";"74";"module.training_block2.exec-1336.GoNoGo2";;;;;;;;;;;;;;;;;;;;;;;;;;;;;;;;;;;"1261";"2014-10-16 12:28:26.815";"ST_correctStop";"25";"0";"FINISHED";"NONE";"success";"0";"1";"2014-10-16 12:28:25.552";"3";;;;;;;;;;;;;;;;;;;;;;;;;;;;;;;;;;;;;;;;;;;;;
"Emmie0712";"1994";;"Windows 7";"Rachel's Experiment (D.T.)";"1.0";"2";"1";"1";"2";"1";"1";"2014-10-16 12:24:10.663";"2014-10-16 12:36:27.280";"1";"1";"0";"76";"75";"module.training_block2.exec-1336.GoNoGo2";;;;;;;;;;;;;;;;;;;;;;;;;;;;;;;;;;;"1261";"2014-10-16 12:28:29.358";"NST_correctLoc";"31";"1";"FINISHED";"RIGHT";"success";"513";"0";"2014-10-16 12:28:28.094";"3";;;;;;;;;;;;;;;;;;;;;;;;;;;;;;;;;;;;;;;;;;;;;
"Emmie0712";"1994";;"Windows 7";"Rachel's Experiment (D.T.)";"1.0";"2";"1";"1";"2";"1";"1";"2014-10-16 12:24:10.663";"2014-10-16 12:36:27.280";"1";"1";"0";"77";"76";"module.training_block2.exec-1336.GoNoGo2";;;;;;;;;;;;;;;;;;;;;;;;;;;;;;;;;;;"1261";"2014-10-16 12:28:31.901";"ST_correctStop";"8";"1";"FINISHED";"NONE";"success";"0";"1";"2014-10-16 12:28:30.637";"1";;;;;;;;;;;;;;;;;;;;;;;;;;;;;;;;;;;;;;;;;;;;;
"Emmie0712";"1994";;"Windows 7";"Rachel's Experiment (D.T.)";"1.0";"2";"1";"1";"2";"1";"1";"2014-10-16 12:24:10.663";"2014-10-16 12:36:27.280";"1";"1";"0";"78";"77";"module.training_block2.exec-1336.GoNoGo2";;;;;;;;;;;;;;;;;;;;;;;;;;;;;;;;;;;"1261";"2014-10-16 12:28:34.444";"NST_correctLoc";"29";"1";"FINISHED";"RIGHT";"success";"667";"0";"2014-10-16 12:28:33.180";"3";;;;;;;;;;;;;;;;;;;;;;;;;;;;;;;;;;;;;;;;;;;;;
"Emmie0712";"1994";;"Windows 7";"Rachel's Experiment (D.T.)";"1.0";"2";"1";"1";"2";"1";"1";"2014-10-16 12:24:10.663";"2014-10-16 12:36:27.280";"1";"1";"0";"79";"78";"module.training_block2.exec-1336.GoNoGo2";;;;;;;;;;;;;;;;;;;;;;;;;;;;;;;;;;;"1261";"2014-10-16 12:28:36.986";"ST_correctStop";"2";"1";"FINISHED";"NONE";"success";"0";"1";"2014-10-16 12:28:35.723";"1";;;;;;;;;;;;;;;;;;;;;;;;;;;;;;;;;;;;;;;;;;;;;
"Emmie0712";"1994";;"Windows 7";"Rachel's Experiment (D.T.)";"1.0";"2";"1";"1";"2";"1";"1";"2014-10-16 12:24:10.663";"2014-10-16 12:36:27.280";"1";"1";"0";"80";"79";"module.training_block2.exec-1336.GoNoGo2";;;;;;;;;;;;;;;;;;;;;;;;;;;;;;;;;;;"1261";"2014-10-16 12:28:39.529";"NST_correctLoc";"9";"0";"FINISHED";"LEFT";"success";"525";"0";"2014-10-16 12:28:38.266";"2";;;;;;;;;;;;;;;;;;;;;;;;;;;;;;;;;;;;;;;;;;;;;
"Emmie0712";"1994";;"Windows 7";"Rachel's Experiment (D.T.)";"1.0";"2";"1";"1";"2";"1";"1";"2014-10-16 12:24:10.663";"2014-10-16 12:36:27.280";"1";"1";"0";"81";"80";"module.training_block2.exec-1336.GoNoGo2";;;;;;;;;;;;;;;;;;;;;;;;;;;;;;;;;;;"1261";"2014-10-16 12:28:42.088";"ST_correctStop";"0";"1";"FINISHED";"NONE";"success";"0";"1";"2014-10-16 12:28:40.824";"1";;;;;;;;;;;;;;;;;;;;;;;;;;;;;;;;;;;;;;;;;;;;;
"Emmie0712";"1994";;"Windows 7";"Rachel's Experiment (D.T.)";"1.0";"2";"1";"1";"2";"1";"1";"2014-10-16 12:24:10.663";"2014-10-16 12:36:27.280";"1";"1";"0";"82";"81";"module.training_block2.exec-1336.GoNoGo2";;;;;;;;;;;;;;;;;;;;;;;;;;;;;;;;;;;"1261";"2014-10-16 12:28:44.630";"ST_correctStop";"28";"0";"FINISHED";"NONE";"success";"0";"1";"2014-10-16 12:28:43.367";"3";;;;;;;;;;;;;;;;;;;;;;;;;;;;;;;;;;;;;;;;;;;;;
"Emmie0712";"1994";;"Windows 7";"Rachel's Experiment (D.T.)";"1.0";"2";"1";"1";"2";"1";"1";"2014-10-16 12:24:10.663";"2014-10-16 12:36:27.280";"1";"1";"0";"83";"82";"module.training_block2.exec-1336.GoNoGo2";;;;;;;;;;;;;;;;;;;;;;;;;;;;;;;;;;;"1261";"2014-10-16 12:28:47.173";"ST_correctStop";"5";"0";"FINISHED";"NONE";"success";"0";"1";"2014-10-16 12:28:45.910";"1";;;;;;;;;;;;;;;;;;;;;;;;;;;;;;;;;;;;;;;;;;;;;
"Emmie0712";"1994";;"Windows 7";"Rachel's Experiment (D.T.)";"1.0";"2";"1";"1";"2";"1";"1";"2014-10-16 12:24:10.663";"2014-10-16 12:36:27.280";"1";"1";"0";"84";"83";"module.training_block2.exec-1336.GoNoGo2";;;;;;;;;;;;;;;;;;;;;;;;;;;;;;;;;;;"1261";"2014-10-16 12:28:49.716";"NST_correctLoc";"11";"1";"FINISHED";"RIGHT";"success";"443";"0";"2014-10-16 12:28:48.452";"2";;;;;;;;;;;;;;;;;;;;;;;;;;;;;;;;;;;;;;;;;;;;;
"Emmie0712";"1994";;"Windows 7";"Rachel's Experiment (D.T.)";"1.0";"2";"1";"1";"2";"1";"1";"2014-10-16 12:24:10.663";"2014-10-16 12:36:27.280";"1";"1";"0";"85";"84";"module.training_block2.exec-1336.GoNoGo2";;;;;;;;;;;;;;;;;;;;;;;;;;;;;;;;;;;"1261";"2014-10-16 12:28:52.259";"NST_correctLoc";"32";"1";"FINISHED";"RIGHT";"success";"540";"0";"2014-10-16 12:28:50.995";"3";;;;;;;;;;;;;;;;;;;;;;;;;;;;;;;;;;;;;;;;;;;;;
"Emmie0712";"1994";;"Windows 7";"Rachel's Experiment (D.T.)";"1.0";"2";"1";"1";"2";"1";"1";"2014-10-16 12:24:10.663";"2014-10-16 12:36:27.280";"1";"1";"0";"86";"85";"module.training_block2.exec-1336.GoNoGo2";;;;;;;;;;;;;;;;;;;;;;;;;;;;;;;;;;;"1261";"2014-10-16 12:28:54.802";"ST_correctStop";"26";"1";"FINISHED";"NONE";"success";"0";"1";"2014-10-16 12:28:53.538";"3";;;;;;;;;;;;;;;;;;;;;;;;;;;;;;;;;;;;;;;;;;;;;
"Emmie0712";"1994";;"Windows 7";"Rachel's Experiment (D.T.)";"1.0";"2";"1";"1";"2";"1";"1";"2014-10-16 12:24:10.663";"2014-10-16 12:36:27.280";"1";"1";"0";"87";"86";"module.training_block2.exec-1336.GoNoGo2";;;;;;;;;;;;;;;;;;;;;;;;;;;;;;;;;;;"1261";"2014-10-16 12:28:57.344";"ST_correctStop";"22";"1";"FINISHED";"NONE";"success";"0";"1";"2014-10-16 12:28:56.081";"3";;;;;;;;;;;;;;;;;;;;;;;;;;;;;;;;;;;;;;;;;;;;;
"Emmie0712";"1994";;"Windows 7";"Rachel's Experiment (D.T.)";"1.0";"2";"1";"1";"2";"1";"1";"2014-10-16 12:24:10.663";"2014-10-16 12:36:27.280";"1";"1";"0";"88";"87";"module.training_block3.exec-6984.GoNoGo3";;;;;;;;;;;;;;;;;;;;;;;;;;;;;;;;;;;;;;;;;;;;;;;"1261";"2014-10-16 12:29:07.453";"ST_correctStop";"31";"1";"FINISHED";"NONE";"success";"0";"1";"2014-10-16 12:29:06.190";"3";;;;;;;;;;;;;;;;;;;;;;;;;;;;;;;;;
"Emmie0712";"1994";;"Windows 7";"Rachel's Experiment (D.T.)";"1.0";"2";"1";"1";"2";"1";"1";"2014-10-16 12:24:10.663";"2014-10-16 12:36:27.280";"1";"1";"0";"89";"88";"module.training_block3.exec-6984.GoNoGo3";;;;;;;;;;;;;;;;;;;;;;;;;;;;;;;;;;;;;;;;;;;;;;;"1261";"2014-10-16 12:29:09.996";"ST_correctStop";"24";"1";"FINISHED";"NONE";"success";"0";"1";"2014-10-16 12:29:08.733";"3";;;;;;;;;;;;;;;;;;;;;;;;;;;;;;;;;
"Emmie0712";"1994";;"Windows 7";"Rachel's Experiment (D.T.)";"1.0";"2";"1";"1";"2";"1";"1";"2014-10-16 12:24:10.663";"2014-10-16 12:36:27.280";"1";"1";"0";"90";"89";"module.training_block3.exec-6984.GoNoGo3";;;;;;;;;;;;;;;;;;;;;;;;;;;;;;;;;;;;;;;;;;;;;;;"1261";"2014-10-16 12:29:12.539";"ST_correctStop";"7";"0";"FINISHED";"NONE";"success";"0";"1";"2014-10-16 12:29:11.275";"1";;;;;;;;;;;;;;;;;;;;;;;;;;;;;;;;;
"Emmie0712";"1994";;"Windows 7";"Rachel's Experiment (D.T.)";"1.0";"2";"1";"1";"2";"1";"1";"2014-10-16 12:24:10.663";"2014-10-16 12:36:27.280";"1";"1";"0";"91";"90";"module.training_block3.exec-6984.GoNoGo3";;;;;;;;;;;;;;;;;;;;;;;;;;;;;;;;;;;;;;;;;;;;;;;"1261";"2014-10-16 12:29:15.082";"NST_correctLoc";"28";"0";"FINISHED";"LEFT";"success";"453";"0";"2014-10-16 12:29:13.818";"3";;;;;;;;;;;;;;;;;;;;;;;;;;;;;;;;;
"Emmie0712";"1994";;"Windows 7";"Rachel's Experiment (D.T.)";"1.0";"2";"1";"1";"2";"1";"1";"2014-10-16 12:24:10.663";"2014-10-16 12:36:27.280";"1";"1";"0";"92";"91";"module.training_block3.exec-6984.GoNoGo3";;;;;;;;;;;;;;;;;;;;;;;;;;;;;;;;;;;;;;;;;;;;;;;"1261";"2014-10-16 12:29:17.625";"NST_correctLoc";"12";"1";"FINISHED";"RIGHT";"success";"414";"0";"2014-10-16 12:29:16.361";"2";;;;;;;;;;;;;;;;;;;;;;;;;;;;;;;;;
"Emmie0712";"1994";;"Windows 7";"Rachel's Experiment (D.T.)";"1.0";"2";"1";"1";"2";"1";"1";"2014-10-16 12:24:10.663";"2014-10-16 12:36:27.280";"1";"1";"0";"93";"92";"module.training_block3.exec-6984.GoNoGo3";;;;;;;;;;;;;;;;;;;;;;;;;;;;;;;;;;;;;;;;;;;;;;;"1261";"2014-10-16 12:29:20.152";"NST_correctLoc";"35";"1";"FINISHED";"RIGHT";"success";"551";"0";"2014-10-16 12:29:18.888";"3";;;;;;;;;;;;;;;;;;;;;;;;;;;;;;;;;
"Emmie0712";"1994";;"Windows 7";"Rachel's Experiment (D.T.)";"1.0";"2";"1";"1";"2";"1";"1";"2014-10-16 12:24:10.663";"2014-10-16 12:36:27.280";"1";"1";"0";"94";"93";"module.training_block3.exec-6984.GoNoGo3";;;;;;;;;;;;;;;;;;;;;;;;;;;;;;;;;;;;;;;;;;;;;;;"1261";"2014-10-16 12:29:22.695";"ST_correctStop";"2";"1";"FINISHED";"NONE";"success";"0";"1";"2014-10-16 12:29:21.431";"1";;;;;;;;;;;;;;;;;;;;;;;;;;;;;;;;;
"Emmie0712";"1994";;"Windows 7";"Rachel's Experiment (D.T.)";"1.0";"2";"1";"1";"2";"1";"1";"2014-10-16 12:24:10.663";"2014-10-16 12:36:27.280";"1";"1";"0";"95";"94";"module.training_block3.exec-6984.GoNoGo3";;;;;;;;;;;;;;;;;;;;;;;;;;;;;;;;;;;;;;;;;;;;;;;"1261";"2014-10-16 12:29:25.253";"ST_correctStop";"6";"1";"FINISHED";"NONE";"success";"0";"1";"2014-10-16 12:29:23.989";"1";;;;;;;;;;;;;;;;;;;;;;;;;;;;;;;;;
"Emmie0712";"1994";;"Windows 7";"Rachel's Experiment (D.T.)";"1.0";"2";"1";"1";"2";"1";"1";"2014-10-16 12:24:10.663";"2014-10-16 12:36:27.280";"1";"1";"0";"96";"95";"module.training_block3.exec-6984.GoNoGo3";;;;;;;;;;;;;;;;;;;;;;;;;;;;;;;;;;;;;;;;;;;;;;;"1262";"2014-10-16 12:29:27.796";"NST_correctLoc";"27";"0";"FINISHED";"LEFT";"success";"403";"0";"2014-10-16 12:29:26.532";"3";;;;;;;;;;;;;;;;;;;;;;;;;;;;;;;;;
"Emmie0712";"1994";;"Windows 7";"Rachel's Experiment (D.T.)";"1.0";"2";"1";"1";"2";"1";"1";"2014-10-16 12:24:10.663";"2014-10-16 12:36:27.280";"1";"1";"0";"97";"96";"module.training_block3.exec-6984.GoNoGo3";;;;;;;;;;;;;;;;;;;;;;;;;;;;;;;;;;;;;;;;;;;;;;;"1261";"2014-10-16 12:29:30.354";"NST_correctLoc";"13";"0";"FINISHED";"LEFT";"success";"468";"0";"2014-10-16 12:29:29.091";"2";;;;;;;;;;;;;;;;;;;;;;;;;;;;;;;;;
"Emmie0712";"1994";;"Windows 7";"Rachel's Experiment (D.T.)";"1.0";"2";"1";"1";"2";"1";"1";"2014-10-16 12:24:10.663";"2014-10-16 12:36:27.280";"1";"1";"0";"98";"97";"module.training_block3.exec-6984.GoNoGo3";;;;;;;;;;;;;;;;;;;;;;;;;;;;;;;;;;;;;;;;;;;;;;;"1261";"2014-10-16 12:29:32.897";"ST_correctStop";"19";"1";"FINISHED";"NONE";"success";"0";"1";"2014-10-16 12:29:31.633";"3";;;;;;;;;;;;;;;;;;;;;;;;;;;;;;;;;
"Emmie0712";"1994";;"Windows 7";"Rachel's Experiment (D.T.)";"1.0";"2";"1";"1";"2";"1";"1";"2014-10-16 12:24:10.663";"2014-10-16 12:36:27.280";"1";"1";"0";"99";"98";"module.training_block3.exec-6984.GoNoGo3";;;;;;;;;;;;;;;;;;;;;;;;;;;;;;;;;;;;;;;;;;;;;;;"1261";"2014-10-16 12:29:35.440";"ST_correctStop";"5";"1";"FINISHED";"NONE";"success";"0";"1";"2014-10-16 12:29:34.176";"1";;;;;;;;;;;;;;;;;;;;;;;;;;;;;;;;;
"Emmie0712";"1994";;"Windows 7";"Rachel's Experiment (D.T.)";"1.0";"2";"1";"1";"2";"1";"1";"2014-10-16 12:24:10.663";"2014-10-16 12:36:27.280";"1";"1";"0";"100";"99";"module.training_block3.exec-6984.GoNoGo3";;;;;;;;;;;;;;;;;;;;;;;;;;;;;;;;;;;;;;;;;;;;;;;"1261";"2014-10-16 12:29:37.983";"NST_correctLoc";"15";"0";"FINISHED";"LEFT";"success";"488";"0";"2014-10-16 12:29:36.719";"2";;;;;;;;;;;;;;;;;;;;;;;;;;;;;;;;;
"Emmie0712";"1994";;"Windows 7";"Rachel's Experiment (D.T.)";"1.0";"2";"1";"1";"2";"1";"1";"2014-10-16 12:24:10.663";"2014-10-16 12:36:27.280";"1";"1";"0";"101";"100";"module.training_block3.exec-6984.GoNoGo3";;;;;;;;;;;;;;;;;;;;;;;;;;;;;;;;;;;;;;;;;;;;;;;"1261";"2014-10-16 12:29:40.525";"ST_correctStop";"30";"0";"FINISHED";"NONE";"success";"0";"1";"2014-10-16 12:29:39.262";"3";;;;;;;;;;;;;;;;;;;;;;;;;;;;;;;;;
"Emmie0712";"1994";;"Windows 7";"Rachel's Experiment (D.T.)";"1.0";"2";"1";"1";"2";"1";"1";"2014-10-16 12:24:10.663";"2014-10-16 12:36:27.280";"1";"1";"0";"102";"101";"module.training_block3.exec-6984.GoNoGo3";;;;;;;;;;;;;;;;;;;;;;;;;;;;;;;;;;;;;;;;;;;;;;;"1262";"2014-10-16 12:29:43.068";"ST_correctStop";"1";"1";"FINISHED";"NONE";"success";"0";"1";"2014-10-16 12:29:41.805";"1";;;;;;;;;;;;;;;;;;;;;;;;;;;;;;;;;
"Emmie0712";"1994";;"Windows 7";"Rachel's Experiment (D.T.)";"1.0";"2";"1";"1";"2";"1";"1";"2014-10-16 12:24:10.663";"2014-10-16 12:36:27.280";"1";"1";"0";"103";"102";"module.training_block3.exec-6984.GoNoGo3";;;;;;;;;;;;;;;;;;;;;;;;;;;;;;;;;;;;;;;;;;;;;;;"1261";"2014-10-16 12:29:45.611";"NST_correctLoc";"25";"1";"FINISHED";"RIGHT";"success";"563";"0";"2014-10-16 12:29:44.347";"3";;;;;;;;;;;;;;;;;;;;;;;;;;;;;;;;;
"Emmie0712";"1994";;"Windows 7";"Rachel's Experiment (D.T.)";"1.0";"2";"1";"1";"2";"1";"1";"2014-10-16 12:24:10.663";"2014-10-16 12:36:27.280";"1";"1";"0";"104";"103";"module.training_block3.exec-6984.GoNoGo3";;;;;;;;;;;;;;;;;;;;;;;;;;;;;;;;;;;;;;;;;;;;;;;"1261";"2014-10-16 12:29:48.169";"NST_correctLoc";"14";"0";"FINISHED";"LEFT";"success";"741";"0";"2014-10-16 12:29:46.906";"2";;;;;;;;;;;;;;;;;;;;;;;;;;;;;;;;;
"Emmie0712";"1994";;"Windows 7";"Rachel's Experiment (D.T.)";"1.0";"2";"1";"1";"2";"1";"1";"2014-10-16 12:24:10.663";"2014-10-16 12:36:27.280";"1";"1";"0";"105";"104";"module.training_block3.exec-6984.GoNoGo3";;;;;;;;;;;;;;;;;;;;;;;;;;;;;;;;;;;;;;;;;;;;;;;"1262";"2014-10-16 12:29:50.712";"NST_correctLoc";"26";"1";"FINISHED";"RIGHT";"success";"646";"0";"2014-10-16 12:29:49.449";"3";;;;;;;;;;;;;;;;;;;;;;;;;;;;;;;;;
"Emmie0712";"1994";;"Windows 7";"Rachel's Experiment (D.T.)";"1.0";"2";"1";"1";"2";"1";"1";"2014-10-16 12:24:10.663";"2014-10-16 12:36:27.280";"1";"1";"0";"106";"105";"module.training_block3.exec-6984.GoNoGo3";;;;;;;;;;;;;;;;;;;;;;;;;;;;;;;;;;;;;;;;;;;;;;;"1261";"2014-10-16 12:29:53.271";"ST_correctStop";"3";"0";"FINISHED";"NONE";"success";"0";"1";"2014-10-16 12:29:52.007";"1";;;;;;;;;;;;;;;;;;;;;;;;;;;;;;;;;
"Emmie0712";"1994";;"Windows 7";"Rachel's Experiment (D.T.)";"1.0";"2";"1";"1";"2";"1";"1";"2014-10-16 12:24:10.663";"2014-10-16 12:36:27.280";"1";"1";"0";"107";"106";"module.training_block3.exec-6984.GoNoGo3";;;;;;;;;;;;;;;;;;;;;;;;;;;;;;;;;;;;;;;;;;;;;;;"1261";"2014-10-16 12:29:55.813";"ST_correctStop";"4";"0";"FINISHED";"NONE";"success";"0";"1";"2014-10-16 12:29:54.550";"1";;;;;;;;;;;;;;;;;;;;;;;;;;;;;;;;;
"Emmie0712";"1994";;"Windows 7";"Rachel's Experiment (D.T.)";"1.0";"2";"1";"1";"2";"1";"1";"2014-10-16 12:24:10.663";"2014-10-16 12:36:27.280";"1";"1";"0";"108";"107";"module.training_block3.exec-6984.GoNoGo3";;;;;;;;;;;;;;;;;;;;;;;;;;;;;;;;;;;;;;;;;;;;;;;"1261";"2014-10-16 12:29:58.356";"NST_correctLoc";"29";"1";"FINISHED";"RIGHT";"success";"634";"0";"2014-10-16 12:29:57.093";"3";;;;;;;;;;;;;;;;;;;;;;;;;;;;;;;;;
"Emmie0712";"1994";;"Windows 7";"Rachel's Experiment (D.T.)";"1.0";"2";"1";"1";"2";"1";"1";"2014-10-16 12:24:10.663";"2014-10-16 12:36:27.280";"1";"1";"0";"109";"108";"module.training_block3.exec-6984.GoNoGo3";;;;;;;;;;;;;;;;;;;;;;;;;;;;;;;;;;;;;;;;;;;;;;;"1262";"2014-10-16 12:30:00.883";"NST_correctLoc";"16";"1";"FINISHED";"RIGHT";"success";"739";"0";"2014-10-16 12:29:59.620";"2";;;;;;;;;;;;;;;;;;;;;;;;;;;;;;;;;
"Emmie0712";"1994";;"Windows 7";"Rachel's Experiment (D.T.)";"1.0";"2";"1";"1";"2";"1";"1";"2014-10-16 12:24:10.663";"2014-10-16 12:36:27.280";"1";"1";"0";"110";"109";"module.training_block3.exec-6984.GoNoGo3";;;;;;;;;;;;;;;;;;;;;;;;;;;;;;;;;;;;;;;;;;;;;;;"1261";"2014-10-16 12:30:03.411";"ST_correctStop";"22";"0";"FINISHED";"NONE";"success";"0";"1";"2014-10-16 12:30:02.147";"3";;;;;;;;;;;;;;;;;;;;;;;;;;;;;;;;;
"Emmie0712";"1994";;"Windows 7";"Rachel's Experiment (D.T.)";"1.0";"2";"1";"1";"2";"1";"1";"2014-10-16 12:24:10.663";"2014-10-16 12:36:27.280";"1";"1";"0";"111";"110";"module.training_block3.exec-6984.GoNoGo3";;;;;;;;;;;;;;;;;;;;;;;;;;;;;;;;;;;;;;;;;;;;;;;"1262";"2014-10-16 12:30:05.953";"ST_correctStop";"32";"0";"FINISHED";"NONE";"success";"0";"1";"2014-10-16 12:30:04.690";"3";;;;;;;;;;;;;;;;;;;;;;;;;;;;;;;;;
"Emmie0712";"1994";;"Windows 7";"Rachel's Experiment (D.T.)";"1.0";"2";"1";"1";"2";"1";"1";"2014-10-16 12:24:10.663";"2014-10-16 12:36:27.280";"1";"1";"0";"112";"111";"module.training_block3.exec-6984.GoNoGo3";;;;;;;;;;;;;;;;;;;;;;;;;;;;;;;;;;;;;;;;;;;;;;;"1262";"2014-10-16 12:30:08.481";"ST_correctStop";"23";"0";"FINISHED";"NONE";"success";"0";"1";"2014-10-16 12:30:07.217";"3";;;;;;;;;;;;;;;;;;;;;;;;;;;;;;;;;
"Emmie0712";"1994";;"Windows 7";"Rachel's Experiment (D.T.)";"1.0";"2";"1";"1";"2";"1";"1";"2014-10-16 12:24:10.663";"2014-10-16 12:36:27.280";"1";"1";"0";"113";"112";"module.training_block3.exec-6984.GoNoGo3";;;;;;;;;;;;;;;;;;;;;;;;;;;;;;;;;;;;;;;;;;;;;;;"1262";"2014-10-16 12:30:11.008";"NST_correctLoc";"17";"1";"FINISHED";"RIGHT";"success";"534";"0";"2014-10-16 12:30:09.744";"2";;;;;;;;;;;;;;;;;;;;;;;;;;;;;;;;;
"Emmie0712";"1994";;"Windows 7";"Rachel's Experiment (D.T.)";"1.0";"2";"1";"1";"2";"1";"1";"2014-10-16 12:24:10.663";"2014-10-16 12:36:27.280";"1";"1";"0";"114";"113";"module.training_block3.exec-6984.GoNoGo3";;;;;;;;;;;;;;;;;;;;;;;;;;;;;;;;;;;;;;;;;;;;;;;"1262";"2014-10-16 12:30:13.535";"NST_correctLoc";"11";"1";"FINISHED";"RIGHT";"success";"471";"0";"2014-10-16 12:30:12.271";"2";;;;;;;;;;;;;;;;;;;;;;;;;;;;;;;;;
"Emmie0712";"1994";;"Windows 7";"Rachel's Experiment (D.T.)";"1.0";"2";"1";"1";"2";"1";"1";"2014-10-16 12:24:10.663";"2014-10-16 12:36:27.280";"1";"1";"0";"115";"114";"module.training_block3.exec-6984.GoNoGo3";;;;;;;;;;;;;;;;;;;;;;;;;;;;;;;;;;;;;;;;;;;;;;;"1262";"2014-10-16 12:30:16.062";"NST_correctLoc";"33";"0";"FINISHED";"LEFT";"success";"512";"0";"2014-10-16 12:30:14.799";"3";;;;;;;;;;;;;;;;;;;;;;;;;;;;;;;;;
"Emmie0712";"1994";;"Windows 7";"Rachel's Experiment (D.T.)";"1.0";"2";"1";"1";"2";"1";"1";"2014-10-16 12:24:10.663";"2014-10-16 12:36:27.280";"1";"1";"0";"116";"115";"module.training_block3.exec-6984.GoNoGo3";;;;;;;;;;;;;;;;;;;;;;;;;;;;;;;;;;;;;;;;;;;;;;;"1262";"2014-10-16 12:30:18.605";"NST_correctLoc";"9";"0";"FINISHED";"LEFT";"success";"521";"0";"2014-10-16 12:30:17.341";"2";;;;;;;;;;;;;;;;;;;;;;;;;;;;;;;;;
"Emmie0712";"1994";;"Windows 7";"Rachel's Experiment (D.T.)";"1.0";"2";"1";"1";"2";"1";"1";"2014-10-16 12:24:10.663";"2014-10-16 12:36:27.280";"1";"1";"0";"117";"116";"module.training_block3.exec-6984.GoNoGo3";;;;;;;;;;;;;;;;;;;;;;;;;;;;;;;;;;;;;;;;;;;;;;;"1261";"2014-10-16 12:30:21.132";"ST_correctStop";"8";"0";"FINISHED";"NONE";"success";"0";"1";"2014-10-16 12:30:19.869";"1";;;;;;;;;;;;;;;;;;;;;;;;;;;;;;;;;
"Emmie0712";"1994";;"Windows 7";"Rachel's Experiment (D.T.)";"1.0";"2";"1";"1";"2";"1";"1";"2014-10-16 12:24:10.663";"2014-10-16 12:36:27.280";"1";"1";"0";"118";"117";"module.training_block3.exec-6984.GoNoGo3";;;;;;;;;;;;;;;;;;;;;;;;;;;;;;;;;;;;;;;;;;;;;;;"1262";"2014-10-16 12:30:23.675";"NST_correctLoc";"34";"1";"FINISHED";"RIGHT";"success";"451";"0";"2014-10-16 12:30:22.411";"3";;;;;;;;;;;;;;;;;;;;;;;;;;;;;;;;;
"Emmie0712";"1994";;"Windows 7";"Rachel's Experiment (D.T.)";"1.0";"2";"1";"1";"2";"1";"1";"2014-10-16 12:24:10.663";"2014-10-16 12:36:27.280";"1";"1";"0";"119";"118";"module.training_block3.exec-6984.GoNoGo3";;;;;;;;;;;;;;;;;;;;;;;;;;;;;;;;;;;;;;;;;;;;;;;"1262";"2014-10-16 12:30:26.202";"ST_correctStop";"0";"1";"FINISHED";"NONE";"success";"0";"1";"2014-10-16 12:30:24.939";"1";;;;;;;;;;;;;;;;;;;;;;;;;;;;;;;;;
"Emmie0712";"1994";;"Windows 7";"Rachel's Experiment (D.T.)";"1.0";"2";"1";"1";"2";"1";"1";"2014-10-16 12:24:10.663";"2014-10-16 12:36:27.280";"1";"1";"0";"120";"119";"module.training_block3.exec-6984.GoNoGo3";;;;;;;;;;;;;;;;;;;;;;;;;;;;;;;;;;;;;;;;;;;;;;;"1262";"2014-10-16 12:30:28.729";"ST_correctStop";"18";"0";"FINISHED";"NONE";"success";"0";"1";"2014-10-16 12:30:27.466";"3";;;;;;;;;;;;;;;;;;;;;;;;;;;;;;;;;
"Emmie0712";"1994";;"Windows 7";"Rachel's Experiment (D.T.)";"1.0";"2";"1";"1";"2";"1";"1";"2014-10-16 12:24:10.663";"2014-10-16 12:36:27.280";"1";"1";"0";"121";"120";"module.training_block3.exec-6984.GoNoGo3";;;;;;;;;;;;;;;;;;;;;;;;;;;;;;;;;;;;;;;;;;;;;;;"1261";"2014-10-16 12:30:31.272";"NST_correctLoc";"20";"0";"FINISHED";"LEFT";"success";"654";"0";"2014-10-16 12:30:30.009";"3";;;;;;;;;;;;;;;;;;;;;;;;;;;;;;;;;
"Emmie0712";"1994";;"Windows 7";"Rachel's Experiment (D.T.)";"1.0";"2";"1";"1";"2";"1";"1";"2014-10-16 12:24:10.663";"2014-10-16 12:36:27.280";"1";"1";"0";"122";"121";"module.training_block3.exec-6984.GoNoGo3";;;;;;;;;;;;;;;;;;;;;;;;;;;;;;;;;;;;;;;;;;;;;;;"1262";"2014-10-16 12:30:33.799";"ST_correctStop";"21";"1";"FINISHED";"NONE";"success";"0";"1";"2014-10-16 12:30:32.536";"3";;;;;;;;;;;;;;;;;;;;;;;;;;;;;;;;;
"Emmie0712";"1994";;"Windows 7";"Rachel's Experiment (D.T.)";"1.0";"2";"1";"1";"2";"1";"1";"2014-10-16 12:24:10.663";"2014-10-16 12:36:27.280";"1";"1";"0";"123";"122";"module.training_block3.exec-6984.GoNoGo3";;;;;;;;;;;;;;;;;;;;;;;;;;;;;;;;;;;;;;;;;;;;;;;"1261";"2014-10-16 12:30:36.327";"NST_correctLoc";"10";"1";"FINISHED";"RIGHT";"success";"703";"0";"2014-10-16 12:30:35.063";"2";;;;;;;;;;;;;;;;;;;;;;;;;;;;;;;;;
"Emmie0712";"1994";;"Windows 7";"Rachel's Experiment (D.T.)";"1.0";"2";"1";"1";"2";"1";"1";"2014-10-16 12:24:10.663";"2014-10-16 12:36:27.280";"1";"1";"0";"124";"123";"module.training_block4.exec-2339.GoNoGo4";;;;;;;;;;;;;;;;;;;;;;;;;;;;;;;;;;;;;;;;;;;;;;;;;;;;;;;;;;;"1261";"2014-10-16 12:30:46.810";"NST_correctLoc";"24";"0";"FINISHED";"LEFT";"success";"604";"0";"2014-10-16 12:30:45.546";"3";;;;;;;;;;;;;;;;;;;;;
"Emmie0712";"1994";;"Windows 7";"Rachel's Experiment (D.T.)";"1.0";"2";"1";"1";"2";"1";"1";"2014-10-16 12:24:10.663";"2014-10-16 12:36:27.280";"1";"1";"0";"125";"124";"module.training_block4.exec-2339.GoNoGo4";;;;;;;;;;;;;;;;;;;;;;;;;;;;;;;;;;;;;;;;;;;;;;;;;;;;;;;;;;;"1262";"2014-10-16 12:30:49.337";"NST_correctLoc";"32";"0";"FINISHED";"LEFT";"success";"469";"0";"2014-10-16 12:30:48.073";"3";;;;;;;;;;;;;;;;;;;;;
"Emmie0712";"1994";;"Windows 7";"Rachel's Experiment (D.T.)";"1.0";"2";"1";"1";"2";"1";"1";"2014-10-16 12:24:10.663";"2014-10-16 12:36:27.280";"1";"1";"0";"126";"125";"module.training_block4.exec-2339.GoNoGo4";;;;;;;;;;;;;;;;;;;;;;;;;;;;;;;;;;;;;;;;;;;;;;;;;;;;;;;;;;;"1261";"2014-10-16 12:30:51.864";"ST_correctStop";"2";"1";"FINISHED";"NONE";"success";"0";"1";"2014-10-16 12:30:50.601";"1";;;;;;;;;;;;;;;;;;;;;
"Emmie0712";"1994";;"Windows 7";"Rachel's Experiment (D.T.)";"1.0";"2";"1";"1";"2";"1";"1";"2014-10-16 12:24:10.663";"2014-10-16 12:36:27.280";"1";"1";"0";"127";"126";"module.training_block4.exec-2339.GoNoGo4";;;;;;;;;;;;;;;;;;;;;;;;;;;;;;;;;;;;;;;;;;;;;;;;;;;;;;;;;;;"1262";"2014-10-16 12:30:54.391";"ST_correctStop";"0";"0";"FINISHED";"NONE";"success";"0";"1";"2014-10-16 12:30:53.128";"1";;;;;;;;;;;;;;;;;;;;;
"Emmie0712";"1994";;"Windows 7";"Rachel's Experiment (D.T.)";"1.0";"2";"1";"1";"2";"1";"1";"2014-10-16 12:24:10.663";"2014-10-16 12:36:27.280";"1";"1";"0";"128";"127";"module.training_block4.exec-2339.GoNoGo4";;;;;;;;;;;;;;;;;;;;;;;;;;;;;;;;;;;;;;;;;;;;;;;;;;;;;;;;;;;"1262";"2014-10-16 12:30:56.919";"NST_correctLoc";"13";"0";"FINISHED";"LEFT";"success";"495";"0";"2014-10-16 12:30:55.655";"2";;;;;;;;;;;;;;;;;;;;;
"Emmie0712";"1994";;"Windows 7";"Rachel's Experiment (D.T.)";"1.0";"2";"1";"1";"2";"1";"1";"2014-10-16 12:24:10.663";"2014-10-16 12:36:27.280";"1";"1";"0";"129";"128";"module.training_block4.exec-2339.GoNoGo4";;;;;;;;;;;;;;;;;;;;;;;;;;;;;;;;;;;;;;;;;;;;;;;;;;;;;;;;;;;"1262";"2014-10-16 12:30:59.446";"ST_correctStop";"1";"0";"FINISHED";"NONE";"success";"0";"1";"2014-10-16 12:30:58.182";"1";;;;;;;;;;;;;;;;;;;;;
"Emmie0712";"1994";;"Windows 7";"Rachel's Experiment (D.T.)";"1.0";"2";"1";"1";"2";"1";"1";"2014-10-16 12:24:10.663";"2014-10-16 12:36:27.280";"1";"1";"0";"130";"129";"module.training_block4.exec-2339.GoNoGo4";;;;;;;;;;;;;;;;;;;;;;;;;;;;;;;;;;;;;;;;;;;;;;;;;;;;;;;;;;;"1262";"2014-10-16 12:31:01.989";"NST_correctLoc";"11";"0";"FINISHED";"LEFT";"success";"401";"0";"2014-10-16 12:31:00.725";"2";;;;;;;;;;;;;;;;;;;;;
"Emmie0712";"1994";;"Windows 7";"Rachel's Experiment (D.T.)";"1.0";"2";"1";"1";"2";"1";"1";"2014-10-16 12:24:10.663";"2014-10-16 12:36:27.280";"1";"1";"0";"131";"130";"module.training_block4.exec-2339.GoNoGo4";;;;;;;;;;;;;;;;;;;;;;;;;;;;;;;;;;;;;;;;;;;;;;;;;;;;;;;;;;;"1262";"2014-10-16 12:31:04.516";"NST_correctLoc";"20";"1";"FINISHED";"RIGHT";"success";"722";"0";"2014-10-16 12:31:03.252";"3";;;;;;;;;;;;;;;;;;;;;
"Emmie0712";"1994";;"Windows 7";"Rachel's Experiment (D.T.)";"1.0";"2";"1";"1";"2";"1";"1";"2014-10-16 12:24:10.663";"2014-10-16 12:36:27.280";"1";"1";"0";"132";"131";"module.training_block4.exec-2339.GoNoGo4";;;;;;;;;;;;;;;;;;;;;;;;;;;;;;;;;;;;;;;;;;;;;;;;;;;;;;;;;;;"1262";"2014-10-16 12:31:07.043";"ST_correctStop";"35";"1";"FINISHED";"NONE";"success";"0";"1";"2014-10-16 12:31:05.780";"3";;;;;;;;;;;;;;;;;;;;;
"Emmie0712";"1994";;"Windows 7";"Rachel's Experiment (D.T.)";"1.0";"2";"1";"1";"2";"1";"1";"2014-10-16 12:24:10.663";"2014-10-16 12:36:27.280";"1";"1";"0";"133";"132";"module.training_block4.exec-2339.GoNoGo4";;;;;;;;;;;;;;;;;;;;;;;;;;;;;;;;;;;;;;;;;;;;;;;;;;;;;;;;;;;"1262";"2014-10-16 12:31:09.570";"ST_correctStop";"31";"0";"FINISHED";"NONE";"success";"0";"1";"2014-10-16 12:31:08.307";"3";;;;;;;;;;;;;;;;;;;;;
"Emmie0712";"1994";;"Windows 7";"Rachel's Experiment (D.T.)";"1.0";"2";"1";"1";"2";"1";"1";"2014-10-16 12:24:10.663";"2014-10-16 12:36:27.280";"1";"1";"0";"134";"133";"module.training_block4.exec-2339.GoNoGo4";;;;;;;;;;;;;;;;;;;;;;;;;;;;;;;;;;;;;;;;;;;;;;;;;;;;;;;;;;;"1262";"2014-10-16 12:31:12.098";"ST_correctStop";"23";"0";"FINISHED";"NONE";"success";"0";"1";"2014-10-16 12:31:10.834";"3";;;;;;;;;;;;;;;;;;;;;
"Emmie0712";"1994";;"Windows 7";"Rachel's Experiment (D.T.)";"1.0";"2";"1";"1";"2";"1";"1";"2014-10-16 12:24:10.663";"2014-10-16 12:36:27.280";"1";"1";"0";"135";"134";"module.training_block4.exec-2339.GoNoGo4";;;;;;;;;;;;;;;;;;;;;;;;;;;;;;;;;;;;;;;;;;;;;;;;;;;;;;;;;;;"1261";"2014-10-16 12:31:14.640";"ST_correctStop";"4";"0";"FINISHED";"NONE";"success";"0";"1";"2014-10-16 12:31:13.377";"1";;;;;;;;;;;;;;;;;;;;;
"Emmie0712";"1994";;"Windows 7";"Rachel's Experiment (D.T.)";"1.0";"2";"1";"1";"2";"1";"1";"2014-10-16 12:24:10.663";"2014-10-16 12:36:27.280";"1";"1";"0";"136";"135";"module.training_block4.exec-2339.GoNoGo4";;;;;;;;;;;;;;;;;;;;;;;;;;;;;;;;;;;;;;;;;;;;;;;;;;;;;;;;;;;"1262";"2014-10-16 12:31:17.168";"NST_correctLoc";"17";"0";"FINISHED";"LEFT";"success";"478";"0";"2014-10-16 12:31:15.904";"2";;;;;;;;;;;;;;;;;;;;;
"Emmie0712";"1994";;"Windows 7";"Rachel's Experiment (D.T.)";"1.0";"2";"1";"1";"2";"1";"1";"2014-10-16 12:24:10.663";"2014-10-16 12:36:27.280";"1";"1";"0";"137";"136";"module.training_block4.exec-2339.GoNoGo4";;;;;;;;;;;;;;;;;;;;;;;;;;;;;;;;;;;;;;;;;;;;;;;;;;;;;;;;;;;"1262";"2014-10-16 12:31:19.695";"ST_correctStop";"3";"1";"FINISHED";"NONE";"success";"0";"1";"2014-10-16 12:31:18.431";"1";;;;;;;;;;;;;;;;;;;;;
"Emmie0712";"1994";;"Windows 7";"Rachel's Experiment (D.T.)";"1.0";"2";"1";"1";"2";"1";"1";"2014-10-16 12:24:10.663";"2014-10-16 12:36:27.280";"1";"1";"0";"138";"137";"module.training_block4.exec-2339.GoNoGo4";;;;;;;;;;;;;;;;;;;;;;;;;;;;;;;;;;;;;;;;;;;;;;;;;;;;;;;;;;;"1262";"2014-10-16 12:31:22.253";"NST_correctLoc";"27";"1";"FINISHED";"RIGHT";"success";"577";"0";"2014-10-16 12:31:20.990";"3";;;;;;;;;;;;;;;;;;;;;
"Emmie0712";"1994";;"Windows 7";"Rachel's Experiment (D.T.)";"1.0";"2";"1";"1";"2";"1";"1";"2014-10-16 12:24:10.663";"2014-10-16 12:36:27.280";"1";"1";"0";"139";"138";"module.training_block4.exec-2339.GoNoGo4";;;;;;;;;;;;;;;;;;;;;;;;;;;;;;;;;;;;;;;;;;;;;;;;;;;;;;;;;;;"1262";"2014-10-16 12:31:24.780";"ST_correctStop";"5";"1";"FINISHED";"NONE";"success";"0";"1";"2014-10-16 12:31:23.517";"1";;;;;;;;;;;;;;;;;;;;;
"Emmie0712";"1994";;"Windows 7";"Rachel's Experiment (D.T.)";"1.0";"2";"1";"1";"2";"1";"1";"2014-10-16 12:24:10.663";"2014-10-16 12:36:27.280";"1";"1";"0";"140";"139";"module.training_block4.exec-2339.GoNoGo4";;;;;;;;;;;;;;;;;;;;;;;;;;;;;;;;;;;;;;;;;;;;;;;;;;;;;;;;;;;"1261";"2014-10-16 12:31:27.323";"ST_correctStop";"8";"0";"FINISHED";"NONE";"success";"0";"1";"2014-10-16 12:31:26.060";"1";;;;;;;;;;;;;;;;;;;;;
"Emmie0712";"1994";;"Windows 7";"Rachel's Experiment (D.T.)";"1.0";"2";"1";"1";"2";"1";"1";"2014-10-16 12:24:10.663";"2014-10-16 12:36:27.280";"1";"1";"0";"141";"140";"module.training_block4.exec-2339.GoNoGo4";;;;;;;;;;;;;;;;;;;;;;;;;;;;;;;;;;;;;;;;;;;;;;;;;;;;;;;;;;;"1262";"2014-10-16 12:31:29.850";"NST_correctLoc";"9";"1";"FINISHED";"RIGHT";"success";"403";"0";"2014-10-16 12:31:28.587";"2";;;;;;;;;;;;;;;;;;;;;
"Emmie0712";"1994";;"Windows 7";"Rachel's Experiment (D.T.)";"1.0";"2";"1";"1";"2";"1";"1";"2014-10-16 12:24:10.663";"2014-10-16 12:36:27.280";"1";"1";"0";"142";"141";"module.training_block4.exec-2339.GoNoGo4";;;;;;;;;;;;;;;;;;;;;;;;;;;;;;;;;;;;;;;;;;;;;;;;;;;;;;;;;;;"1261";"2014-10-16 12:31:32.378";"NST_correctLoc";"16";"1";"FINISHED";"RIGHT";"success";"484";"0";"2014-10-16 12:31:31.114";"2";;;;;;;;;;;;;;;;;;;;;
"Emmie0712";"1994";;"Windows 7";"Rachel's Experiment (D.T.)";"1.0";"2";"1";"1";"2";"1";"1";"2014-10-16 12:24:10.663";"2014-10-16 12:36:27.280";"1";"1";"0";"143";"142";"module.training_block4.exec-2339.GoNoGo4";;;;;;;;;;;;;;;;;;;;;;;;;;;;;;;;;;;;;;;;;;;;;;;;;;;;;;;;;;;"1261";"2014-10-16 12:31:34.936";"ST_correctStop";"26";"0";"FINISHED";"NONE";"success";"0";"1";"2014-10-16 12:31:33.672";"3";;;;;;;;;;;;;;;;;;;;;
"Emmie0712";"1994";;"Windows 7";"Rachel's Experiment (D.T.)";"1.0";"2";"1";"1";"2";"1";"1";"2014-10-16 12:24:10.663";"2014-10-16 12:36:27.280";"1";"1";"0";"144";"143";"module.training_block4.exec-2339.GoNoGo4";;;;;;;;;;;;;;;;;;;;;;;;;;;;;;;;;;;;;;;;;;;;;;;;;;;;;;;;;;;"1261";"2014-10-16 12:31:37.463";"ST_correctStop";"21";"1";"FINISHED";"NONE";"success";"0";"1";"2014-10-16 12:31:36.200";"3";;;;;;;;;;;;;;;;;;;;;
"Emmie0712";"1994";;"Windows 7";"Rachel's Experiment (D.T.)";"1.0";"2";"1";"1";"2";"1";"1";"2014-10-16 12:24:10.663";"2014-10-16 12:36:27.280";"1";"1";"0";"145";"144";"module.training_block4.exec-2339.GoNoGo4";;;;;;;;;;;;;;;;;;;;;;;;;;;;;;;;;;;;;;;;;;;;;;;;;;;;;;;;;;;"1262";"2014-10-16 12:31:40.006";"ST_correctStop";"30";"1";"FINISHED";"NONE";"success";"0";"1";"2014-10-16 12:31:38.742";"3";;;;;;;;;;;;;;;;;;;;;
"Emmie0712";"1994";;"Windows 7";"Rachel's Experiment (D.T.)";"1.0";"2";"1";"1";"2";"1";"1";"2014-10-16 12:24:10.663";"2014-10-16 12:36:27.280";"1";"1";"0";"146";"145";"module.training_block4.exec-2339.GoNoGo4";;;;;;;;;;;;;;;;;;;;;;;;;;;;;;;;;;;;;;;;;;;;;;;;;;;;;;;;;;;"1262";"2014-10-16 12:31:42.533";"NST_correctLoc";"12";"1";"FINISHED";"RIGHT";"success";"480";"0";"2014-10-16 12:31:41.270";"2";;;;;;;;;;;;;;;;;;;;;
"Emmie0712";"1994";;"Windows 7";"Rachel's Experiment (D.T.)";"1.0";"2";"1";"1";"2";"1";"1";"2014-10-16 12:24:10.663";"2014-10-16 12:36:27.280";"1";"1";"0";"147";"146";"module.training_block4.exec-2339.GoNoGo4";;;;;;;;;;;;;;;;;;;;;;;;;;;;;;;;;;;;;;;;;;;;;;;;;;;;;;;;;;;"1261";"2014-10-16 12:31:45.060";"NST_correctLoc";"28";"0";"FINISHED";"LEFT";"success";"561";"0";"2014-10-16 12:31:43.797";"3";;;;;;;;;;;;;;;;;;;;;
"Emmie0712";"1994";;"Windows 7";"Rachel's Experiment (D.T.)";"1.0";"2";"1";"1";"2";"1";"1";"2014-10-16 12:24:10.663";"2014-10-16 12:36:27.280";"1";"1";"0";"148";"147";"module.training_block4.exec-2339.GoNoGo4";;;;;;;;;;;;;;;;;;;;;;;;;;;;;;;;;;;;;;;;;;;;;;;;;;;;;;;;;;;"1262";"2014-10-16 12:31:47.619";"ST_correctStop";"7";"1";"FINISHED";"NONE";"success";"0";"1";"2014-10-16 12:31:46.355";"1";;;;;;;;;;;;;;;;;;;;;
"Emmie0712";"1994";;"Windows 7";"Rachel's Experiment (D.T.)";"1.0";"2";"1";"1";"2";"1";"1";"2014-10-16 12:24:10.663";"2014-10-16 12:36:27.280";"1";"1";"0";"149";"148";"module.training_block4.exec-2339.GoNoGo4";;;;;;;;;;;;;;;;;;;;;;;;;;;;;;;;;;;;;;;;;;;;;;;;;;;;;;;;;;;"1261";"2014-10-16 12:31:50.146";"NST_correctLoc";"25";"1";"FINISHED";"RIGHT";"success";"604";"0";"2014-10-16 12:31:48.882";"3";;;;;;;;;;;;;;;;;;;;;
"Emmie0712";"1994";;"Windows 7";"Rachel's Experiment (D.T.)";"1.0";"2";"1";"1";"2";"1";"1";"2014-10-16 12:24:10.663";"2014-10-16 12:36:27.280";"1";"1";"0";"150";"149";"module.training_block4.exec-2339.GoNoGo4";;;;;;;;;;;;;;;;;;;;;;;;;;;;;;;;;;;;;;;;;;;;;;;;;;;;;;;;;;;"1262";"2014-10-16 12:31:52.689";"NST_correctLoc";"15";"1";"FINISHED";"RIGHT";"success";"733";"0";"2014-10-16 12:31:51.425";"2";;;;;;;;;;;;;;;;;;;;;
"Emmie0712";"1994";;"Windows 7";"Rachel's Experiment (D.T.)";"1.0";"2";"1";"1";"2";"1";"1";"2014-10-16 12:24:10.663";"2014-10-16 12:36:27.280";"1";"1";"0";"151";"150";"module.training_block4.exec-2339.GoNoGo4";;;;;;;;;;;;;;;;;;;;;;;;;;;;;;;;;;;;;;;;;;;;;;;;;;;;;;;;;;;"1262";"2014-10-16 12:31:55.216";"NST_correctLoc";"18";"1";"FINISHED";"RIGHT";"success";"630";"0";"2014-10-16 12:31:53.952";"3";;;;;;;;;;;;;;;;;;;;;
"Emmie0712";"1994";;"Windows 7";"Rachel's Experiment (D.T.)";"1.0";"2";"1";"1";"2";"1";"1";"2014-10-16 12:24:10.663";"2014-10-16 12:36:27.280";"1";"1";"0";"152";"151";"module.training_block4.exec-2339.GoNoGo4";;;;;;;;;;;;;;;;;;;;;;;;;;;;;;;;;;;;;;;;;;;;;;;;;;;;;;;;;;;"1262";"2014-10-16 12:31:57.743";"NST_correctLoc";"10";"1";"FINISHED";"RIGHT";"success";"542";"0";"2014-10-16 12:31:56.480";"2";;;;;;;;;;;;;;;;;;;;;
"Emmie0712";"1994";;"Windows 7";"Rachel's Experiment (D.T.)";"1.0";"2";"1";"1";"2";"1";"1";"2014-10-16 12:24:10.663";"2014-10-16 12:36:27.280";"1";"1";"0";"153";"152";"module.training_block4.exec-2339.GoNoGo4";;;;;;;;;;;;;;;;;;;;;;;;;;;;;;;;;;;;;;;;;;;;;;;;;;;;;;;;;;;"1261";"2014-10-16 12:32:00.270";"NST_correctLoc";"33";"1";"FINISHED";"RIGHT";"success";"743";"0";"2014-10-16 12:31:59.007";"3";;;;;;;;;;;;;;;;;;;;;
"Emmie0712";"1994";;"Windows 7";"Rachel's Experiment (D.T.)";"1.0";"2";"1";"1";"2";"1";"1";"2014-10-16 12:24:10.663";"2014-10-16 12:36:27.280";"1";"1";"0";"154";"153";"module.training_block4.exec-2339.GoNoGo4";;;;;;;;;;;;;;;;;;;;;;;;;;;;;;;;;;;;;;;;;;;;;;;;;;;;;;;;;;;"1262";"2014-10-16 12:32:02.798";"ST_correctStop";"29";"1";"FINISHED";"NONE";"success";"0";"1";"2014-10-16 12:32:01.534";"3";;;;;;;;;;;;;;;;;;;;;
"Emmie0712";"1994";;"Windows 7";"Rachel's Experiment (D.T.)";"1.0";"2";"1";"1";"2";"1";"1";"2014-10-16 12:24:10.663";"2014-10-16 12:36:27.280";"1";"1";"0";"155";"154";"module.training_block4.exec-2339.GoNoGo4";;;;;;;;;;;;;;;;;;;;;;;;;;;;;;;;;;;;;;;;;;;;;;;;;;;;;;;;;;;"1262";"2014-10-16 12:32:05.325";"ST_correctStop";"22";"1";"FINISHED";"NONE";"success";"0";"1";"2014-10-16 12:32:04.061";"3";;;;;;;;;;;;;;;;;;;;;
"Emmie0712";"1994";;"Windows 7";"Rachel's Experiment (D.T.)";"1.0";"2";"1";"1";"2";"1";"1";"2014-10-16 12:24:10.663";"2014-10-16 12:36:27.280";"1";"1";"0";"156";"155";"module.training_block4.exec-2339.GoNoGo4";;;;;;;;;;;;;;;;;;;;;;;;;;;;;;;;;;;;;;;;;;;;;;;;;;;;;;;;;;;"1262";"2014-10-16 12:32:07.852";"ST_correctStop";"19";"1";"FINISHED";"NONE";"success";"0";"1";"2014-10-16 12:32:06.588";"3";;;;;;;;;;;;;;;;;;;;;
"Emmie0712";"1994";;"Windows 7";"Rachel's Experiment (D.T.)";"1.0";"2";"1";"1";"2";"1";"1";"2014-10-16 12:24:10.663";"2014-10-16 12:36:27.280";"1";"1";"0";"157";"156";"module.training_block4.exec-2339.GoNoGo4";;;;;;;;;;;;;;;;;;;;;;;;;;;;;;;;;;;;;;;;;;;;;;;;;;;;;;;;;;;"1262";"2014-10-16 12:32:10.379";"ST_correctStop";"6";"1";"FINISHED";"NONE";"success";"0";"1";"2014-10-16 12:32:09.116";"1";;;;;;;;;;;;;;;;;;;;;
"Emmie0712";"1994";;"Windows 7";"Rachel's Experiment (D.T.)";"1.0";"2";"1";"1";"2";"1";"1";"2014-10-16 12:24:10.663";"2014-10-16 12:36:27.280";"1";"1";"0";"158";"157";"module.training_block4.exec-2339.GoNoGo4";;;;;;;;;;;;;;;;;;;;;;;;;;;;;;;;;;;;;;;;;;;;;;;;;;;;;;;;;;;"1261";"2014-10-16 12:32:12.922";"NST_correctLoc";"34";"0";"FINISHED";"LEFT";"success";"531";"0";"2014-10-16 12:32:11.658";"3";;;;;;;;;;;;;;;;;;;;;
"Emmie0712";"1994";;"Windows 7";"Rachel's Experiment (D.T.)";"1.0";"2";"1";"1";"2";"1";"1";"2014-10-16 12:24:10.663";"2014-10-16 12:36:27.280";"1";"1";"0";"159";"158";"module.training_block4.exec-2339.GoNoGo4";;;;;;;;;;;;;;;;;;;;;;;;;;;;;;;;;;;;;;;;;;;;;;;;;;;;;;;;;;;"1262";"2014-10-16 12:32:15.449";"NST_correctLoc";"14";"0";"FINISHED";"LEFT";"success";"604";"0";"2014-10-16 12:32:14.186";"2";;;;;;;;;;;;;;;;;;;;;
"Emmie0712";"1994";;"Windows 7";"Rachel's Experiment (D.T.)";"1.0";"2";"1";"1";"2";"1";"1";"2014-10-16 12:24:10.663";"2014-10-16 12:36:27.280";"1";"1";"0";"160";"159";"module.devaluation_practice.exec-1625.devalPractice";;;;;;;;;;;;"10582";"2014-10-16 12:32:39.224";"0";"9";"7";"8";"3350";"1956";"2223";"2014-10-16 12:32:28.631";;;;;;;;;;;;;;;;;;;;;;;;;;;;;;;;;;;;;;;;;;;;;;;;;;;;;;;;;;;;;;;;;;;;;;
"Emmie0712";"1994";;"Windows 7";"Rachel's Experiment (D.T.)";"1.0";"2";"1";"1";"2";"1";"1";"2014-10-16 12:24:10.663";"2014-10-16 12:36:27.280";"1";"1";"0";"161";"160";"module.devaluation_practice.exec-1625.devalPractice";;;;;;;;;;;;"7189";"2014-10-16 12:32:46.431";"1";"3";"1";"2";"1185";"1261";"1702";"2014-10-16 12:32:39.239";;;;;;;;;;;;;;;;;;;;;;;;;;;;;;;;;;;;;;;;;;;;;;;;;;;;;;;;;;;;;;;;;;;;;;
"Emmie0712";"1994";;"Windows 7";"Rachel's Experiment (D.T.)";"1.0";"2";"1";"1";"2";"1";"1";"2014-10-16 12:24:10.663";"2014-10-16 12:36:27.280";"1";"1";"0";"162";"161";"module.devaluation_practice.exec-1625.devalPractice";;;;;;;;;;;;"9877";"2014-10-16 12:32:56.321";"2";"6";"5";"7";"1985";"1797";"3067";"2014-10-16 12:32:46.446";;;;;;;;;;;;;;;;;;;;;;;;;;;;;;;;;;;;;;;;;;;;;;;;;;;;;;;;;;;;;;;;;;;;;;
"Emmie0712";"1994";;"Windows 7";"Rachel's Experiment (D.T.)";"1.0";"2";"1";"1";"2";"1";"1";"2014-10-16 12:24:10.663";"2014-10-16 12:36:27.280";"1";"1";"0";"163";"162";"module.devaluation_practice.exec-1625.devalPractice";;;;;;;;;;;;"8659";"2014-10-16 12:33:05.011";"3";"2";"1";"1";"1767";"1687";"2172";"2014-10-16 12:32:56.352";;;;;;;;;;;;;;;;;;;;;;;;;;;;;;;;;;;;;;;;;;;;;;;;;;;;;;;;;;;;;;;;;;;;;;
"Emmie0712";"1994";;"Windows 7";"Rachel's Experiment (D.T.)";"1.0";"2";"1";"1";"2";"1";"1";"2014-10-16 12:24:10.663";"2014-10-16 12:36:27.280";"1";"1";"0";"164";"163";"module.devaluation_block1.exec-6892.deval1";"8103";"2014-10-16 12:33:17.038";"4";"4";"2";"6";"2577";"903";"1592";"2014-10-16 12:33:08.926";"1";;;;;;;;;;;;;;;;;;;;;;;;;;;;;;;;;;;;;;;;;;;;;;;;;;;;;;;;;;;;;;;;;;;;;;;;;;;;;;;;
"Emmie0712";"1994";;"Windows 7";"Rachel's Experiment (D.T.)";"1.0";"2";"1";"1";"2";"1";"1";"2014-10-16 12:24:10.663";"2014-10-16 12:36:27.280";"1";"1";"0";"165";"164";"module.devaluation_block1.exec-6892.deval1";"8325";"2014-10-16 12:33:25.369";"5";"6";"3";"8";"1306";"1930";"2064";"2014-10-16 12:33:17.054";"1";;;;;;;;;;;;;;;;;;;;;;;;;;;;;;;;;;;;;;;;;;;;;;;;;;;;;;;;;;;;;;;;;;;;;;;;;;;;;;;;
"Emmie0712";"1994";;"Windows 7";"Rachel's Experiment (D.T.)";"1.0";"2";"1";"1";"2";"1";"1";"2014-10-16 12:24:10.663";"2014-10-16 12:36:27.280";"1";"1";"0";"166";"165";"module.devaluation_block1.exec-6892.deval1";"6760";"2014-10-16 12:33:32.155";"14";"9";"8";"7";"1552";"922";"1268";"2014-10-16 12:33:25.384";"2";;;;;;;;;;;;;;;;;;;;;;;;;;;;;;;;;;;;;;;;;;;;;;;;;;;;;;;;;;;;;;;;;;;;;;;;;;;;;;;;
"Emmie0712";"1994";;"Windows 7";"Rachel's Experiment (D.T.)";"1.0";"2";"1";"1";"2";"1";"1";"2014-10-16 12:24:10.663";"2014-10-16 12:36:27.280";"1";"1";"0";"167";"166";"module.devaluation_block1.exec-6892.deval1";"6613";"2014-10-16 12:33:38.785";"2";"2";"1";"3";"1158";"1049";"1376";"2014-10-16 12:33:32.170";"1";;;;;;;;;;;;;;;;;;;;;;;;;;;;;;;;;;;;;;;;;;;;;;;;;;;;;;;;;;;;;;;;;;;;;;;;;;;;;;;;
"Emmie0712";"1994";;"Windows 7";"Rachel's Experiment (D.T.)";"1.0";"2";"1";"1";"2";"1";"1";"2014-10-16 12:24:10.663";"2014-10-16 12:36:27.280";"1";"1";"0";"168";"167";"module.devaluation_block1.exec-6892.deval1";"7717";"2014-10-16 12:33:46.522";"16";"1";"1";"1";"1912";"1188";"1590";"2014-10-16 12:33:38.800";"2";;;;;;;;;;;;;;;;;;;;;;;;;;;;;;;;;;;;;;;;;;;;;;;;;;;;;;;;;;;;;;;;;;;;;;;;;;;;;;;;
"Emmie0712";"1994";;"Windows 7";"Rachel's Experiment (D.T.)";"1.0";"2";"1";"1";"2";"1";"1";"2014-10-16 12:24:10.663";"2014-10-16 12:36:27.280";"1";"1";"0";"169";"168";"module.devaluation_block1.exec-6892.deval1";"6104";"2014-10-16 12:33:52.653";"23";"7";"6";"9";"854";"647";"1577";"2014-10-16 12:33:46.553";"3";;;;;;;;;;;;;;;;;;;;;;;;;;;;;;;;;;;;;;;;;;;;;;;;;;;;;;;;;;;;;;;;;;;;;;;;;;;;;;;;
"Emmie0712";"1994";;"Windows 7";"Rachel's Experiment (D.T.)";"1.0";"2";"1";"1";"2";"1";"1";"2014-10-16 12:24:10.663";"2014-10-16 12:36:27.280";"1";"1";"0";"170";"169";"module.devaluation_block1.exec-6892.deval1";"6790";"2014-10-16 12:33:59.470";"3";"6";"4";"6";"2156";"905";"688";"2014-10-16 12:33:52.684";"1";;;;;;;;;;;;;;;;;;;;;;;;;;;;;;;;;;;;;;;;;;;;;;;;;;;;;;;;;;;;;;;;;;;;;;;;;;;;;;;;
"Emmie0712";"1994";;"Windows 7";"Rachel's Experiment (D.T.)";"1.0";"2";"1";"1";"2";"1";"1";"2014-10-16 12:24:10.663";"2014-10-16 12:36:27.280";"1";"1";"0";"171";"170";"module.devaluation_block1.exec-6892.deval1";"7043";"2014-10-16 12:34:06.537";"21";"8";"7";"9";"1266";"916";"1832";"2014-10-16 12:33:59.501";"3";;;;;;;;;;;;;;;;;;;;;;;;;;;;;;;;;;;;;;;;;;;;;;;;;;;;;;;;;;;;;;;;;;;;;;;;;;;;;;;;
"Emmie0712";"1994";;"Windows 7";"Rachel's Experiment (D.T.)";"1.0";"2";"1";"1";"2";"1";"1";"2014-10-16 12:24:10.663";"2014-10-16 12:36:27.280";"1";"1";"0";"172";"171";"module.devaluation_block1.exec-6892.deval1";"6653";"2014-10-16 12:34:13.214";"9";"4";"1";"3";"896";"1067";"1659";"2014-10-16 12:34:06.568";"2";;;;;;;;;;;;;;;;;;;;;;;;;;;;;;;;;;;;;;;;;;;;;;;;;;;;;;;;;;;;;;;;;;;;;;;;;;;;;;;;
"Emmie0712";"1994";;"Windows 7";"Rachel's Experiment (D.T.)";"1.0";"2";"1";"1";"2";"1";"1";"2014-10-16 12:24:10.663";"2014-10-16 12:36:27.280";"1";"1";"0";"173";"172";"module.devaluation_block1.exec-6892.deval1";"9493";"2014-10-16 12:34:22.730";"24";"3";"2";"5";"1314";"1968";"3193";"2014-10-16 12:34:13.229";"3";;;;;;;;;;;;;;;;;;;;;;;;;;;;;;;;;;;;;;;;;;;;;;;;;;;;;;;;;;;;;;;;;;;;;;;;;;;;;;;;
"Emmie0712";"1994";;"Windows 7";"Rachel's Experiment (D.T.)";"1.0";"2";"1";"1";"2";"1";"1";"2014-10-16 12:24:10.663";"2014-10-16 12:36:27.280";"1";"1";"0";"174";"173";"module.devaluation_block1.exec-6892.deval1";"7020";"2014-10-16 12:34:29.765";"7";"4";"6";"7";"822";"1395";"1784";"2014-10-16 12:34:22.745";"1";;;;;;;;;;;;;;;;;;;;;;;;;;;;;;;;;;;;;;;;;;;;;;;;;;;;;;;;;;;;;;;;;;;;;;;;;;;;;;;;
"Emmie0712";"1994";;"Windows 7";"Rachel's Experiment (D.T.)";"1.0";"2";"1";"1";"2";"1";"1";"2014-10-16 12:24:10.663";"2014-10-16 12:36:27.280";"1";"1";"0";"175";"174";"module.devaluation_block1.exec-6892.deval1";"6509";"2014-10-16 12:34:36.302";"13";"6";"3";"4";"667";"1449";"1377";"2014-10-16 12:34:29.781";"2";;;;;;;;;;;;;;;;;;;;;;;;;;;;;;;;;;;;;;;;;;;;;;;;;;;;;;;;;;;;;;;;;;;;;;;;;;;;;;;;
"Emmie0712";"1994";;"Windows 7";"Rachel's Experiment (D.T.)";"1.0";"2";"1";"1";"2";"1";"1";"2014-10-16 12:24:10.663";"2014-10-16 12:36:27.280";"1";"1";"0";"176";"175";"module.devaluation_block1.exec-6892.deval1";"7045";"2014-10-16 12:34:43.353";"12";"8";"7";"9";"1266";"1072";"1672";"2014-10-16 12:34:36.317";"2";;;;;;;;;;;;;;;;;;;;;;;;;;;;;;;;;;;;;;;;;;;;;;;;;;;;;;;;;;;;;;;;;;;;;;;;;;;;;;;;
"Emmie0712";"1994";;"Windows 7";"Rachel's Experiment (D.T.)";"1.0";"2";"1";"1";"2";"1";"1";"2014-10-16 12:24:10.663";"2014-10-16 12:36:27.280";"1";"1";"0";"177";"176";"module.devaluation_block1.exec-6892.deval1";"7156";"2014-10-16 12:34:50.529";"18";"8";"9";"9";"1031";"1446";"1647";"2014-10-16 12:34:43.384";"3";;;;;;;;;;;;;;;;;;;;;;;;;;;;;;;;;;;;;;;;;;;;;;;;;;;;;;;;;;;;;;;;;;;;;;;;;;;;;;;;
"Emmie0712";"1994";;"Windows 7";"Rachel's Experiment (D.T.)";"1.0";"2";"1";"1";"2";"1";"1";"2014-10-16 12:24:10.663";"2014-10-16 12:36:27.280";"1";"1";"0";"178";"177";"module.devaluation_block1.exec-6892.deval1";"7096";"2014-10-16 12:34:57.658";"15";"1";"1";"1";"1695";"1203";"1168";"2014-10-16 12:34:50.560";"2";;;;;;;;;;;;;;;;;;;;;;;;;;;;;;;;;;;;;;;;;;;;;;;;;;;;;;;;;;;;;;;;;;;;;;;;;;;;;;;;
"Emmie0712";"1994";;"Windows 7";"Rachel's Experiment (D.T.)";"1.0";"2";"1";"1";"2";"1";"1";"2014-10-16 12:24:10.663";"2014-10-16 12:36:27.280";"1";"1";"0";"179";"178";"module.devaluation_block1.exec-6892.deval1";"5966";"2014-10-16 12:35:03.649";"25";"6";"2";"5";"766";"1056";"1111";"2014-10-16 12:34:57.690";"3";;;;;;;;;;;;;;;;;;;;;;;;;;;;;;;;;;;;;;;;;;;;;;;;;;;;;;;;;;;;;;;;;;;;;;;;;;;;;;;;
"Emmie0712";"1994";;"Windows 7";"Rachel's Experiment (D.T.)";"1.0";"2";"1";"1";"2";"1";"1";"2014-10-16 12:24:10.663";"2014-10-16 12:36:27.280";"1";"1";"0";"180";"179";"module.devaluation_block1.exec-6892.deval1";"7225";"2014-10-16 12:35:10.903";"11";"3";"1";"2";"775";"1799";"1624";"2014-10-16 12:35:03.680";"2";;;;;;;;;;;;;;;;;;;;;;;;;;;;;;;;;;;;;;;;;;;;;;;;;;;;;;;;;;;;;;;;;;;;;;;;;;;;;;;;
"Emmie0712";"1994";;"Windows 7";"Rachel's Experiment (D.T.)";"1.0";"2";"1";"1";"2";"1";"1";"2014-10-16 12:24:10.663";"2014-10-16 12:36:27.280";"1";"1";"0";"181";"180";"module.devaluation_block1.exec-6892.deval1";"6122";"2014-10-16 12:35:17.049";"20";"7";"4";"8";"777";"791";"1515";"2014-10-16 12:35:10.934";"3";;;;;;;;;;;;;;;;;;;;;;;;;;;;;;;;;;;;;;;;;;;;;;;;;;;;;;;;;;;;;;;;;;;;;;;;;;;;;;;;
"Emmie0712";"1994";;"Windows 7";"Rachel's Experiment (D.T.)";"1.0";"2";"1";"1";"2";"1";"1";"2014-10-16 12:24:10.663";"2014-10-16 12:36:27.280";"1";"1";"0";"182";"181";"module.devaluation_block1.exec-6892.deval1";"6896";"2014-10-16 12:35:23.976";"26";"9";"9";"9";"1319";"1003";"1550";"2014-10-16 12:35:17.080";"3";;;;;;;;;;;;;;;;;;;;;;;;;;;;;;;;;;;;;;;;;;;;;;;;;;;;;;;;;;;;;;;;;;;;;;;;;;;;;;;;
"Emmie0712";"1994";;"Windows 7";"Rachel's Experiment (D.T.)";"1.0";"2";"1";"1";"2";"1";"1";"2014-10-16 12:24:10.663";"2014-10-16 12:36:27.280";"1";"1";"0";"183";"182";"module.devaluation_block1.exec-6892.deval1";"6829";"2014-10-16 12:35:30.824";"19";"8";"7";"9";"992";"1049";"1775";"2014-10-16 12:35:23.991";"3";;;;;;;;;;;;;;;;;;;;;;;;;;;;;;;;;;;;;;;;;;;;;;;;;;;;;;;;;;;;;;;;;;;;;;;;;;;;;;;;
"Emmie0712";"1994";;"Windows 7";"Rachel's Experiment (D.T.)";"1.0";"2";"1";"1";"2";"1";"1";"2014-10-16 12:24:10.663";"2014-10-16 12:36:27.280";"1";"1";"0";"184";"183";"module.devaluation_block1.exec-6892.deval1";"7852";"2014-10-16 12:35:38.702";"10";"8";"9";"6";"1808";"1527";"1491";"2014-10-16 12:35:30.840";"2";;;;;;;;;;;;;;;;;;;;;;;;;;;;;;;;;;;;;;;;;;;;;;;;;;;;;;;;;;;;;;;;;;;;;;;;;;;;;;;;
"Emmie0712";"1994";;"Windows 7";"Rachel's Experiment (D.T.)";"1.0";"2";"1";"1";"2";"1";"1";"2014-10-16 12:24:10.663";"2014-10-16 12:36:27.280";"1";"1";"0";"185";"184";"module.devaluation_block1.exec-6892.deval1";"6956";"2014-10-16 12:35:45.675";"8";"7";"6";"8";"1770";"703";"1460";"2014-10-16 12:35:38.718";"1";;;;;;;;;;;;;;;;;;;;;;;;;;;;;;;;;;;;;;;;;;;;;;;;;;;;;;;;;;;;;;;;;;;;;;;;;;;;;;;;
"Emmie0712";"1994";;"Windows 7";"Rachel's Experiment (D.T.)";"1.0";"2";"1";"1";"2";"1";"1";"2014-10-16 12:24:10.663";"2014-10-16 12:36:27.280";"1";"1";"0";"186";"185";"module.devaluation_block1.exec-6892.deval1";"7046";"2014-10-16 12:35:52.758";"1";"3";"1";"2";"853";"1215";"1960";"2014-10-16 12:35:45.706";"1";;;;;;;;;;;;;;;;;;;;;;;;;;;;;;;;;;;;;;;;;;;;;;;;;;;;;;;;;;;;;;;;;;;;;;;;;;;;;;;;
"Emmie0712";"1994";;"Windows 7";"Rachel's Experiment (D.T.)";"1.0";"2";"1";"1";"2";"1";"1";"2014-10-16 12:24:10.663";"2014-10-16 12:36:27.280";"1";"1";"0";"187";"186";"module.devaluation_block1.exec-6892.deval1";"7597";"2014-10-16 12:36:00.370";"0";"4";"2";"6";"978";"1374";"2224";"2014-10-16 12:35:52.773";"1";;;;;;;;;;;;;;;;;;;;;;;;;;;;;;;;;;;;;;;;;;;;;;;;;;;;;;;;;;;;;;;;;;;;;;;;;;;;;;;;
"Emmie0712";"1994";;"Windows 7";"Rachel's Experiment (D.T.)";"1.0";"2";"1";"1";"2";"1";"1";"2014-10-16 12:24:10.663";"2014-10-16 12:36:27.280";"1";"1";"0";"188";"187";"module.devaluation_block1.exec-6892.deval1";"6629";"2014-10-16 12:36:07.016";"17";"1";"1";"1";"1229";"1174";"1210";"2014-10-16 12:36:00.386";"2";;;;;;;;;;;;;;;;;;;;;;;;;;;;;;;;;;;;;;;;;;;;;;;;;;;;;;;;;;;;;;;;;;;;;;;;;;;;;;;;
"Emmie0712";"1994";;"Windows 7";"Rachel's Experiment (D.T.)";"1.0";"2";"1";"1";"2";"1";"1";"2014-10-16 12:24:10.663";"2014-10-16 12:36:27.280";"1";"1";"0";"189";"188";"module.devaluation_block1.exec-6892.deval1";"9716";"2014-10-16 12:36:16.750";"22";"7";"5";"7";"1008";"2875";"2814";"2014-10-16 12:36:07.032";"3";;;;;;;;;;;;;;;;;;;;;;;;;;;;;;;;;;;;;;;;;;;;;;;;;;;;;;;;;;;;;;;;;;;;;;;;;;;;;;;;
"Emmie0712";"1994";;"Windows 7";"Rachel's Experiment (D.T.)";"1.0";"2";"1";"1";"2";"1";"1";"2014-10-16 12:24:10.663";"2014-10-16 12:36:27.280";"1";"1";"0";"190";"189";"module.devaluation_block1.exec-6892.deval1";"8549";"2014-10-16 12:36:25.315";"6";"2";"2";"4";"1049";"1397";"3073";"2014-10-16 12:36:16.766";"1";;;;;;;;;;;;;;;;;;;;;;;;;;;;;;;;;;;;;;;;;;;;;;;;;;;;;;;;;;;;;;;;;;;;;;;;;;;;;;;;
