"user.name";"user.yearOfBirth";"user.sex";"user.osName";"module.name";"module.version";"module.online.subject.code";"module.online.study.id";"module.online.module.nr";"module.online.group.nr";"session.id";"session.index";"session.startTime";"session.endTime";"session.completed";"session.node-5520.conditionType";"session.node-8981.DevalQorder";"trial.id";"trial.index";"trial.name";"trial.deval1.durationTime";"trial.deval1.endTime";"trial.deval1.icon";"trial.deval1.Resp_Attractive";"trial.deval1.Resp_Eat";"trial.deval1.Resp_Taste";"trial.deval1.RT_Attractive";"trial.deval1.RT_Eat";"trial.deval1.RT_Taste";"trial.deval1.startTime";"trial.deval1.stimulus type";"trial.devalPractice.durationTime";"trial.devalPractice.endTime";"trial.devalPractice.icon";"trial.devalPractice.Resp_Attractive";"trial.devalPractice.Resp_Eat";"trial.devalPractice.Resp_Taste";"trial.devalPractice.RT_Attractive";"trial.devalPractice.RT_Eat";"trial.devalPractice.RT_Taste";"trial.devalPractice.startTime";"trial.devalPractice.stimulus type";"trial.GoNoGo1.durationTime";"trial.GoNoGo1.endTime";"trial.GoNoGo1.Error Type";"trial.GoNoGo1.icon";"trial.GoNoGo1.location";"trial.GoNoGo1.outcome";"trial.GoNoGo1.response";"trial.GoNoGo1.result";"trial.GoNoGo1.RT";"trial.GoNoGo1.signal";"trial.GoNoGo1.startTime";"trial.GoNoGo1.stimulus type";"trial.GoNoGo2.durationTime";"trial.GoNoGo2.endTime";"trial.GoNoGo2.Error Type";"trial.GoNoGo2.icon";"trial.GoNoGo2.location";"trial.GoNoGo2.outcome";"trial.GoNoGo2.response";"trial.GoNoGo2.result";"trial.GoNoGo2.RT";"trial.GoNoGo2.signal";"trial.GoNoGo2.startTime";"trial.GoNoGo2.stimulus type";"trial.GoNoGo3.durationTime";"trial.GoNoGo3.endTime";"trial.GoNoGo3.Error Type";"trial.GoNoGo3.icon";"trial.GoNoGo3.location";"trial.GoNoGo3.outcome";"trial.GoNoGo3.response";"trial.GoNoGo3.result";"trial.GoNoGo3.RT";"trial.GoNoGo3.signal";"trial.GoNoGo3.startTime";"trial.GoNoGo3.stimulus type";"trial.GoNoGo4.durationTime";"trial.GoNoGo4.endTime";"trial.GoNoGo4.Error Type";"trial.GoNoGo4.icon";"trial.GoNoGo4.location";"trial.GoNoGo4.outcome";"trial.GoNoGo4.response";"trial.GoNoGo4.result";"trial.GoNoGo4.RT";"trial.GoNoGo4.signal";"trial.GoNoGo4.startTime";"trial.GoNoGo4.stimulus type";"trial.GoNoGo_Practice.durationTime";"trial.GoNoGo_Practice.endTime";"trial.GoNoGo_Practice.icon";"trial.GoNoGo_Practice.location";"trial.GoNoGo_Practice.outcome";"trial.GoNoGo_Practice.response";"trial.GoNoGo_Practice.result";"trial.GoNoGo_Practice.RT";"trial.GoNoGo_Practice.signal";"trial.GoNoGo_Practice.startTime";"trial.GoNoGo_Practice.stimulus type";"trial.GoNoGo_Tutorial.durationTime";"trial.GoNoGo_Tutorial.endTime";"trial.GoNoGo_Tutorial.icon";"trial.GoNoGo_Tutorial.location";"trial.GoNoGo_Tutorial.outcome";"trial.GoNoGo_Tutorial.response";"trial.GoNoGo_Tutorial.result";"trial.GoNoGo_Tutorial.RT";"trial.GoNoGo_Tutorial.signal";"trial.GoNoGo_Tutorial.startTime"
"ac12345";"1995";;"Windows 7";"Rachel's Experiment (D.T.)";"1.0";"2";"1";"1";"2";"1";"1";"2014-10-14 12:07:10.403";"2014-10-14 12:20:10.739";"1";"0";"0";"1";"0";"module.GoNoGotutorial.exec-6224.GoNoGo_Tutorial";;;;;;;;;;;;;;;;;;;;;;;;;;;;;;;;;;;;;;;;;;;;;;;;;;;;;;;;;;;;;;;;;;;;;;;;;;;;;;;;;;"4000";"2014-10-14 12:08:48.481";"leftResponse";"0";"FINISHED";"LEFT";"success";"644";"0";"2014-10-14 12:08:44.472"
"ac12345";"1995";;"Windows 7";"Rachel's Experiment (D.T.)";"1.0";"2";"1";"1";"2";"1";"1";"2014-10-14 12:07:10.403";"2014-10-14 12:20:10.739";"1";"0";"0";"2";"1";"module.GoNoGotutorial.exec-6224.GoNoGo_Tutorial";;;;;;;;;;;;;;;;;;;;;;;;;;;;;;;;;;;;;;;;;;;;;;;;;;;;;;;;;;;;;;;;;;;;;;;;;;;;;;;;;;"4003";"2014-10-14 12:08:53.785";"rightResponse";"1";"FINISHED";"RIGHT";"success";"575";"0";"2014-10-14 12:08:49.776"
"ac12345";"1995";;"Windows 7";"Rachel's Experiment (D.T.)";"1.0";"2";"1";"1";"2";"1";"1";"2014-10-14 12:07:10.403";"2014-10-14 12:20:10.739";"1";"0";"0";"3";"2";"module.GoNoGotutorial.exec-6224.GoNoGo_Tutorial";;;;;;;;;;;;;;;;;;;;;;;;;;;;;;;;;;;;;;;;;;;;;;;;;;;;;;;;;;;;;;;;;;;;;;;;;;;;;;;;;;"4003";"2014-10-14 12:08:59.089";"quickResponse";"0";"FINISHED";"RIGHT";"failure";"2199";"0";"2014-10-14 12:08:55.080"
"ac12345";"1995";;"Windows 7";"Rachel's Experiment (D.T.)";"1.0";"2";"1";"1";"2";"1";"1";"2014-10-14 12:07:10.403";"2014-10-14 12:20:10.739";"1";"0";"0";"4";"3";"module.GoNoGopractice.exec-7260.GoNoGo_Practice";;;;;;;;;;;;;;;;;;;;;;;;;;;;;;;;;;;;;;;;;;;;;;;;;;;;;;;;;;;;;;;;;;;;;;;"1959";"2014-10-14 12:09:07.217";"18";"0";"FINISHED";"LEFT";"success";"442";"0";"2014-10-14 12:09:05.251";"3";;;;;;;;;;
"ac12345";"1995";;"Windows 7";"Rachel's Experiment (D.T.)";"1.0";"2";"1";"1";"2";"1";"1";"2014-10-14 12:07:10.403";"2014-10-14 12:20:10.739";"1";"0";"0";"5";"4";"module.GoNoGopractice.exec-7260.GoNoGo_Practice";;;;;;;;;;;;;;;;;;;;;;;;;;;;;;;;;;;;;;;;;;;;;;;;;;;;;;;;;;;;;;;;;;;;;;;"1959";"2014-10-14 12:09:10.477";"21";"1";"FINISHED";"RIGHT";"success";"279";"0";"2014-10-14 12:09:08.511";"3";;;;;;;;;;
"ac12345";"1995";;"Windows 7";"Rachel's Experiment (D.T.)";"1.0";"2";"1";"1";"2";"1";"1";"2014-10-14 12:07:10.403";"2014-10-14 12:20:10.739";"1";"0";"0";"6";"5";"module.GoNoGopractice.exec-7260.GoNoGo_Practice";;;;;;;;;;;;;;;;;;;;;;;;;;;;;;;;;;;;;;;;;;;;;;;;;;;;;;;;;;;;;;;;;;;;;;;"1958";"2014-10-14 12:09:13.722";"14";"1";"FINISHED";"RIGHT";"success";"313";"0";"2014-10-14 12:09:11.756";"2";;;;;;;;;;
"ac12345";"1995";;"Windows 7";"Rachel's Experiment (D.T.)";"1.0";"2";"1";"1";"2";"1";"1";"2014-10-14 12:07:10.403";"2014-10-14 12:20:10.739";"1";"0";"0";"7";"6";"module.GoNoGopractice.exec-7260.GoNoGo_Practice";;;;;;;;;;;;;;;;;;;;;;;;;;;;;;;;;;;;;;;;;;;;;;;;;;;;;;;;;;;;;;;;;;;;;;;"1959";"2014-10-14 12:09:16.967";"26";"0";"FINISHED";"LEFT";"success";"293";"0";"2014-10-14 12:09:15.001";"3";;;;;;;;;;
"ac12345";"1995";;"Windows 7";"Rachel's Experiment (D.T.)";"1.0";"2";"1";"1";"2";"1";"1";"2014-10-14 12:07:10.403";"2014-10-14 12:20:10.739";"1";"0";"0";"8";"7";"module.GoNoGopractice.exec-7260.GoNoGo_Practice";;;;;;;;;;;;;;;;;;;;;;;;;;;;;;;;;;;;;;;;;;;;;;;;;;;;;;;;;;;;;;;;;;;;;;;"1959";"2014-10-14 12:09:20.211";"2";"0";"FINISHED";"LEFT";"success";"312";"0";"2014-10-14 12:09:18.246";"1";;;;;;;;;;
"ac12345";"1995";;"Windows 7";"Rachel's Experiment (D.T.)";"1.0";"2";"1";"1";"2";"1";"1";"2014-10-14 12:07:10.403";"2014-10-14 12:20:10.739";"1";"0";"0";"9";"8";"module.GoNoGopractice.exec-7260.GoNoGo_Practice";;;;;;;;;;;;;;;;;;;;;;;;;;;;;;;;;;;;;;;;;;;;;;;;;;;;;;;;;;;;;;;;;;;;;;;"1959";"2014-10-14 12:09:23.456";"30";"0";"FINISHED";"LEFT";"success";"324";"0";"2014-10-14 12:09:21.491";"3";;;;;;;;;;
"ac12345";"1995";;"Windows 7";"Rachel's Experiment (D.T.)";"1.0";"2";"1";"1";"2";"1";"1";"2014-10-14 12:07:10.403";"2014-10-14 12:20:10.739";"1";"0";"0";"10";"9";"module.GoNoGopractice.exec-7260.GoNoGo_Practice";;;;;;;;;;;;;;;;;;;;;;;;;;;;;;;;;;;;;;;;;;;;;;;;;;;;;;;;;;;;;;;;;;;;;;;"1959";"2014-10-14 12:09:26.717";"6";"1";"FINISHED";"RIGHT";"success";"311";"0";"2014-10-14 12:09:24.751";"1";;;;;;;;;;
"ac12345";"1995";;"Windows 7";"Rachel's Experiment (D.T.)";"1.0";"2";"1";"1";"2";"1";"1";"2014-10-14 12:07:10.403";"2014-10-14 12:20:10.739";"1";"0";"0";"11";"10";"module.GoNoGopractice.exec-7260.GoNoGo_Practice";;;;;;;;;;;;;;;;;;;;;;;;;;;;;;;;;;;;;;;;;;;;;;;;;;;;;;;;;;;;;;;;;;;;;;;"1960";"2014-10-14 12:09:29.961";"34";"0";"FINISHED";"LEFT";"success";"307";"0";"2014-10-14 12:09:27.996";"3";;;;;;;;;;
"ac12345";"1995";;"Windows 7";"Rachel's Experiment (D.T.)";"1.0";"2";"1";"1";"2";"1";"1";"2014-10-14 12:07:10.403";"2014-10-14 12:20:10.739";"1";"0";"0";"12";"11";"module.GoNoGopractice.exec-7260.GoNoGo_Practice";;;;;;;;;;;;;;;;;;;;;;;;;;;;;;;;;;;;;;;;;;;;;;;;;;;;;;;;;;;;;;;;;;;;;;;"1959";"2014-10-14 12:09:33.206";"23";"1";"FINISHED";"RIGHT";"success";"333";"0";"2014-10-14 12:09:31.241";"3";;;;;;;;;;
"ac12345";"1995";;"Windows 7";"Rachel's Experiment (D.T.)";"1.0";"2";"1";"1";"2";"1";"1";"2014-10-14 12:07:10.403";"2014-10-14 12:20:10.739";"1";"0";"0";"13";"12";"module.GoNoGopractice.exec-7260.GoNoGo_Practice";;;;;;;;;;;;;;;;;;;;;;;;;;;;;;;;;;;;;;;;;;;;;;;;;;;;;;;;;;;;;;;;;;;;;;;"1959";"2014-10-14 12:09:36.451";"13";"0";"FINISHED";"LEFT";"success";"289";"0";"2014-10-14 12:09:34.485";"2";;;;;;;;;;
"ac12345";"1995";;"Windows 7";"Rachel's Experiment (D.T.)";"1.0";"2";"1";"1";"2";"1";"1";"2014-10-14 12:07:10.403";"2014-10-14 12:20:10.739";"1";"0";"0";"14";"13";"module.GoNoGopractice.exec-7260.GoNoGo_Practice";;;;;;;;;;;;;;;;;;;;;;;;;;;;;;;;;;;;;;;;;;;;;;;;;;;;;;;;;;;;;;;;;;;;;;;"1960";"2014-10-14 12:09:39.696";"3";"1";"FINISHED";"RIGHT";"success";"325";"0";"2014-10-14 12:09:37.730";"1";;;;;;;;;;
"ac12345";"1995";;"Windows 7";"Rachel's Experiment (D.T.)";"1.0";"2";"1";"1";"2";"1";"1";"2014-10-14 12:07:10.403";"2014-10-14 12:20:10.739";"1";"0";"0";"15";"14";"module.GoNoGopractice.exec-7260.GoNoGo_Practice";;;;;;;;;;;;;;;;;;;;;;;;;;;;;;;;;;;;;;;;;;;;;;;;;;;;;;;;;;;;;;;;;;;;;;;"1959";"2014-10-14 12:09:42.941";"27";"1";"FINISHED";"RIGHT";"success";"335";"0";"2014-10-14 12:09:40.975";"3";;;;;;;;;;
"ac12345";"1995";;"Windows 7";"Rachel's Experiment (D.T.)";"1.0";"2";"1";"1";"2";"1";"1";"2014-10-14 12:07:10.403";"2014-10-14 12:20:10.739";"1";"0";"0";"16";"15";"module.training_block1.exec-2869.GoNoGo1";;;;;;;;;;;;;;;;;;;;;;;"1256";"2014-10-14 12:09:52.332";"NST_correctLoc";"15";"1";"FINISHED";"RIGHT";"success";"328";"0";"2014-10-14 12:09:51.068";"2";;;;;;;;;;;;;;;;;;;;;;;;;;;;;;;;;;;;;;;;;;;;;;;;;;;;;;;;;
"ac12345";"1995";;"Windows 7";"Rachel's Experiment (D.T.)";"1.0";"2";"1";"1";"2";"1";"1";"2014-10-14 12:07:10.403";"2014-10-14 12:20:10.739";"1";"0";"0";"17";"16";"module.training_block1.exec-2869.GoNoGo1";;;;;;;;;;;;;;;;;;;;;;;"1258";"2014-10-14 12:09:54.875";"NST_correctLoc";"12";"0";"FINISHED";"LEFT";"success";"332";"0";"2014-10-14 12:09:53.611";"2";;;;;;;;;;;;;;;;;;;;;;;;;;;;;;;;;;;;;;;;;;;;;;;;;;;;;;;;;
"ac12345";"1995";;"Windows 7";"Rachel's Experiment (D.T.)";"1.0";"2";"1";"1";"2";"1";"1";"2014-10-14 12:07:10.403";"2014-10-14 12:20:10.739";"1";"0";"0";"18";"17";"module.training_block1.exec-2869.GoNoGo1";;;;;;;;;;;;;;;;;;;;;;;"1257";"2014-10-14 12:09:57.417";"NST_correctLoc";"0";"0";"FINISHED";"LEFT";"success";"276";"0";"2014-10-14 12:09:56.154";"1";;;;;;;;;;;;;;;;;;;;;;;;;;;;;;;;;;;;;;;;;;;;;;;;;;;;;;;;;
"ac12345";"1995";;"Windows 7";"Rachel's Experiment (D.T.)";"1.0";"2";"1";"1";"2";"1";"1";"2014-10-14 12:07:10.403";"2014-10-14 12:20:10.739";"1";"0";"0";"19";"18";"module.training_block1.exec-2869.GoNoGo1";;;;;;;;;;;;;;;;;;;;;;;"1261";"2014-10-14 12:09:59.960";"NST_correctLoc";"21";"0";"FINISHED";"LEFT";"success";"321";"0";"2014-10-14 12:09:58.697";"3";;;;;;;;;;;;;;;;;;;;;;;;;;;;;;;;;;;;;;;;;;;;;;;;;;;;;;;;;
"ac12345";"1995";;"Windows 7";"Rachel's Experiment (D.T.)";"1.0";"2";"1";"1";"2";"1";"1";"2014-10-14 12:07:10.403";"2014-10-14 12:20:10.739";"1";"0";"0";"20";"19";"module.training_block1.exec-2869.GoNoGo1";;;;;;;;;;;;;;;;;;;;;;;"1256";"2014-10-14 12:10:02.503";"NST_correctLoc";"4";"1";"FINISHED";"RIGHT";"success";"310";"0";"2014-10-14 12:10:01.239";"1";;;;;;;;;;;;;;;;;;;;;;;;;;;;;;;;;;;;;;;;;;;;;;;;;;;;;;;;;
"ac12345";"1995";;"Windows 7";"Rachel's Experiment (D.T.)";"1.0";"2";"1";"1";"2";"1";"1";"2014-10-14 12:07:10.403";"2014-10-14 12:20:10.739";"1";"0";"0";"21";"20";"module.training_block1.exec-2869.GoNoGo1";;;;;;;;;;;;;;;;;;;;;;;"1257";"2014-10-14 12:10:05.046";"NST_correctLoc";"8";"0";"FINISHED";"LEFT";"success";"344";"0";"2014-10-14 12:10:03.782";"1";;;;;;;;;;;;;;;;;;;;;;;;;;;;;;;;;;;;;;;;;;;;;;;;;;;;;;;;;
"ac12345";"1995";;"Windows 7";"Rachel's Experiment (D.T.)";"1.0";"2";"1";"1";"2";"1";"1";"2014-10-14 12:07:10.403";"2014-10-14 12:20:10.739";"1";"0";"0";"22";"21";"module.training_block1.exec-2869.GoNoGo1";;;;;;;;;;;;;;;;;;;;;;;"1257";"2014-10-14 12:10:07.589";"NST_correctLoc";"20";"0";"FINISHED";"LEFT";"success";"353";"0";"2014-10-14 12:10:06.325";"3";;;;;;;;;;;;;;;;;;;;;;;;;;;;;;;;;;;;;;;;;;;;;;;;;;;;;;;;;
"ac12345";"1995";;"Windows 7";"Rachel's Experiment (D.T.)";"1.0";"2";"1";"1";"2";"1";"1";"2014-10-14 12:07:10.403";"2014-10-14 12:20:10.739";"1";"0";"0";"23";"22";"module.training_block1.exec-2869.GoNoGo1";;;;;;;;;;;;;;;;;;;;;;;"1255";"2014-10-14 12:10:10.225";"NST_correctLoc";"30";"1";"FINISHED";"RIGHT";"success";"283";"0";"2014-10-14 12:10:08.961";"3";;;;;;;;;;;;;;;;;;;;;;;;;;;;;;;;;;;;;;;;;;;;;;;;;;;;;;;;;
"ac12345";"1995";;"Windows 7";"Rachel's Experiment (D.T.)";"1.0";"2";"1";"1";"2";"1";"1";"2014-10-14 12:07:10.403";"2014-10-14 12:20:10.739";"1";"0";"0";"24";"23";"module.training_block1.exec-2869.GoNoGo1";;;;;;;;;;;;;;;;;;;;;;;"1257";"2014-10-14 12:10:12.768";"NST_correctLoc";"17";"0";"FINISHED";"LEFT";"success";"293";"0";"2014-10-14 12:10:11.504";"2";;;;;;;;;;;;;;;;;;;;;;;;;;;;;;;;;;;;;;;;;;;;;;;;;;;;;;;;;
"ac12345";"1995";;"Windows 7";"Rachel's Experiment (D.T.)";"1.0";"2";"1";"1";"2";"1";"1";"2014-10-14 12:07:10.403";"2014-10-14 12:20:10.739";"1";"0";"0";"25";"24";"module.training_block1.exec-2869.GoNoGo1";;;;;;;;;;;;;;;;;;;;;;;"1256";"2014-10-14 12:10:15.311";"NST_correctLoc";"22";"1";"FINISHED";"RIGHT";"success";"326";"0";"2014-10-14 12:10:14.047";"3";;;;;;;;;;;;;;;;;;;;;;;;;;;;;;;;;;;;;;;;;;;;;;;;;;;;;;;;;
"ac12345";"1995";;"Windows 7";"Rachel's Experiment (D.T.)";"1.0";"2";"1";"1";"2";"1";"1";"2014-10-14 12:07:10.403";"2014-10-14 12:20:10.739";"1";"0";"0";"26";"25";"module.training_block1.exec-2869.GoNoGo1";;;;;;;;;;;;;;;;;;;;;;;"1257";"2014-10-14 12:10:17.853";"NST_correctLoc";"25";"0";"FINISHED";"LEFT";"success";"312";"0";"2014-10-14 12:10:16.590";"3";;;;;;;;;;;;;;;;;;;;;;;;;;;;;;;;;;;;;;;;;;;;;;;;;;;;;;;;;
"ac12345";"1995";;"Windows 7";"Rachel's Experiment (D.T.)";"1.0";"2";"1";"1";"2";"1";"1";"2014-10-14 12:07:10.403";"2014-10-14 12:20:10.739";"1";"0";"0";"27";"26";"module.training_block1.exec-2869.GoNoGo1";;;;;;;;;;;;;;;;;;;;;;;"1258";"2014-10-14 12:10:20.396";"NST_correctLoc";"3";"0";"FINISHED";"LEFT";"success";"322";"0";"2014-10-14 12:10:19.133";"1";;;;;;;;;;;;;;;;;;;;;;;;;;;;;;;;;;;;;;;;;;;;;;;;;;;;;;;;;
"ac12345";"1995";;"Windows 7";"Rachel's Experiment (D.T.)";"1.0";"2";"1";"1";"2";"1";"1";"2014-10-14 12:07:10.403";"2014-10-14 12:20:10.739";"1";"0";"0";"28";"27";"module.training_block1.exec-2869.GoNoGo1";;;;;;;;;;;;;;;;;;;;;;;"1257";"2014-10-14 12:10:22.939";"NST_correctLoc";"32";"0";"FINISHED";"LEFT";"success";"394";"0";"2014-10-14 12:10:21.675";"3";;;;;;;;;;;;;;;;;;;;;;;;;;;;;;;;;;;;;;;;;;;;;;;;;;;;;;;;;
"ac12345";"1995";;"Windows 7";"Rachel's Experiment (D.T.)";"1.0";"2";"1";"1";"2";"1";"1";"2014-10-14 12:07:10.403";"2014-10-14 12:20:10.739";"1";"0";"0";"29";"28";"module.training_block1.exec-2869.GoNoGo1";;;;;;;;;;;;;;;;;;;;;;;"1257";"2014-10-14 12:10:25.482";"NST_correctLoc";"14";"1";"FINISHED";"RIGHT";"success";"315";"0";"2014-10-14 12:10:24.218";"2";;;;;;;;;;;;;;;;;;;;;;;;;;;;;;;;;;;;;;;;;;;;;;;;;;;;;;;;;
"ac12345";"1995";;"Windows 7";"Rachel's Experiment (D.T.)";"1.0";"2";"1";"1";"2";"1";"1";"2014-10-14 12:07:10.403";"2014-10-14 12:20:10.739";"1";"0";"0";"30";"29";"module.training_block1.exec-2869.GoNoGo1";;;;;;;;;;;;;;;;;;;;;;;"1258";"2014-10-14 12:10:28.025";"NST_correctLoc";"34";"0";"FINISHED";"LEFT";"success";"301";"0";"2014-10-14 12:10:26.761";"3";;;;;;;;;;;;;;;;;;;;;;;;;;;;;;;;;;;;;;;;;;;;;;;;;;;;;;;;;
"ac12345";"1995";;"Windows 7";"Rachel's Experiment (D.T.)";"1.0";"2";"1";"1";"2";"1";"1";"2014-10-14 12:07:10.403";"2014-10-14 12:20:10.739";"1";"0";"0";"31";"30";"module.training_block1.exec-2869.GoNoGo1";;;;;;;;;;;;;;;;;;;;;;;"1257";"2014-10-14 12:10:30.567";"NST_correctLoc";"27";"0";"FINISHED";"LEFT";"success";"278";"0";"2014-10-14 12:10:29.304";"3";;;;;;;;;;;;;;;;;;;;;;;;;;;;;;;;;;;;;;;;;;;;;;;;;;;;;;;;;
"ac12345";"1995";;"Windows 7";"Rachel's Experiment (D.T.)";"1.0";"2";"1";"1";"2";"1";"1";"2014-10-14 12:07:10.403";"2014-10-14 12:20:10.739";"1";"0";"0";"32";"31";"module.training_block1.exec-2869.GoNoGo1";;;;;;;;;;;;;;;;;;;;;;;"1257";"2014-10-14 12:10:33.110";"NST_correctLoc";"33";"0";"FINISHED";"LEFT";"success";"312";"0";"2014-10-14 12:10:31.847";"3";;;;;;;;;;;;;;;;;;;;;;;;;;;;;;;;;;;;;;;;;;;;;;;;;;;;;;;;;
"ac12345";"1995";;"Windows 7";"Rachel's Experiment (D.T.)";"1.0";"2";"1";"1";"2";"1";"1";"2014-10-14 12:07:10.403";"2014-10-14 12:20:10.739";"1";"0";"0";"33";"32";"module.training_block1.exec-2869.GoNoGo1";;;;;;;;;;;;;;;;;;;;;;;"1257";"2014-10-14 12:10:35.653";"NST_correctLoc";"23";"1";"FINISHED";"RIGHT";"success";"344";"0";"2014-10-14 12:10:34.389";"3";;;;;;;;;;;;;;;;;;;;;;;;;;;;;;;;;;;;;;;;;;;;;;;;;;;;;;;;;
"ac12345";"1995";;"Windows 7";"Rachel's Experiment (D.T.)";"1.0";"2";"1";"1";"2";"1";"1";"2014-10-14 12:07:10.403";"2014-10-14 12:20:10.739";"1";"0";"0";"34";"33";"module.training_block1.exec-2869.GoNoGo1";;;;;;;;;;;;;;;;;;;;;;;"1257";"2014-10-14 12:10:38.196";"NST_correctLoc";"31";"0";"FINISHED";"LEFT";"success";"297";"0";"2014-10-14 12:10:36.932";"3";;;;;;;;;;;;;;;;;;;;;;;;;;;;;;;;;;;;;;;;;;;;;;;;;;;;;;;;;
"ac12345";"1995";;"Windows 7";"Rachel's Experiment (D.T.)";"1.0";"2";"1";"1";"2";"1";"1";"2014-10-14 12:07:10.403";"2014-10-14 12:20:10.739";"1";"0";"0";"35";"34";"module.training_block1.exec-2869.GoNoGo1";;;;;;;;;;;;;;;;;;;;;;;"1257";"2014-10-14 12:10:40.739";"NST_correctLoc";"24";"0";"FINISHED";"LEFT";"success";"323";"0";"2014-10-14 12:10:39.475";"3";;;;;;;;;;;;;;;;;;;;;;;;;;;;;;;;;;;;;;;;;;;;;;;;;;;;;;;;;
"ac12345";"1995";;"Windows 7";"Rachel's Experiment (D.T.)";"1.0";"2";"1";"1";"2";"1";"1";"2014-10-14 12:07:10.403";"2014-10-14 12:20:10.739";"1";"0";"0";"36";"35";"module.training_block1.exec-2869.GoNoGo1";;;;;;;;;;;;;;;;;;;;;;;"1257";"2014-10-14 12:10:43.281";"NST_correctLoc";"7";"1";"FINISHED";"RIGHT";"success";"347";"0";"2014-10-14 12:10:42.018";"1";;;;;;;;;;;;;;;;;;;;;;;;;;;;;;;;;;;;;;;;;;;;;;;;;;;;;;;;;
"ac12345";"1995";;"Windows 7";"Rachel's Experiment (D.T.)";"1.0";"2";"1";"1";"2";"1";"1";"2014-10-14 12:07:10.403";"2014-10-14 12:20:10.739";"1";"0";"0";"37";"36";"module.training_block1.exec-2869.GoNoGo1";;;;;;;;;;;;;;;;;;;;;;;"1256";"2014-10-14 12:10:45.824";"NST_correctLoc";"11";"1";"FINISHED";"RIGHT";"success";"332";"0";"2014-10-14 12:10:44.561";"2";;;;;;;;;;;;;;;;;;;;;;;;;;;;;;;;;;;;;;;;;;;;;;;;;;;;;;;;;
"ac12345";"1995";;"Windows 7";"Rachel's Experiment (D.T.)";"1.0";"2";"1";"1";"2";"1";"1";"2014-10-14 12:07:10.403";"2014-10-14 12:20:10.739";"1";"0";"0";"38";"37";"module.training_block1.exec-2869.GoNoGo1";;;;;;;;;;;;;;;;;;;;;;;"1257";"2014-10-14 12:10:48.367";"NST_correctLoc";"29";"0";"FINISHED";"LEFT";"success";"294";"0";"2014-10-14 12:10:47.103";"3";;;;;;;;;;;;;;;;;;;;;;;;;;;;;;;;;;;;;;;;;;;;;;;;;;;;;;;;;
"ac12345";"1995";;"Windows 7";"Rachel's Experiment (D.T.)";"1.0";"2";"1";"1";"2";"1";"1";"2014-10-14 12:07:10.403";"2014-10-14 12:20:10.739";"1";"0";"0";"39";"38";"module.training_block1.exec-2869.GoNoGo1";;;;;;;;;;;;;;;;;;;;;;;"1256";"2014-10-14 12:10:50.910";"NST_correctLoc";"10";"0";"FINISHED";"LEFT";"success";"327";"0";"2014-10-14 12:10:49.646";"2";;;;;;;;;;;;;;;;;;;;;;;;;;;;;;;;;;;;;;;;;;;;;;;;;;;;;;;;;
"ac12345";"1995";;"Windows 7";"Rachel's Experiment (D.T.)";"1.0";"2";"1";"1";"2";"1";"1";"2014-10-14 12:07:10.403";"2014-10-14 12:20:10.739";"1";"0";"0";"40";"39";"module.training_block1.exec-2869.GoNoGo1";;;;;;;;;;;;;;;;;;;;;;;"1257";"2014-10-14 12:10:53.453";"NST_correctLoc";"35";"1";"FINISHED";"RIGHT";"success";"336";"0";"2014-10-14 12:10:52.189";"3";;;;;;;;;;;;;;;;;;;;;;;;;;;;;;;;;;;;;;;;;;;;;;;;;;;;;;;;;
"ac12345";"1995";;"Windows 7";"Rachel's Experiment (D.T.)";"1.0";"2";"1";"1";"2";"1";"1";"2014-10-14 12:07:10.403";"2014-10-14 12:20:10.739";"1";"0";"0";"41";"40";"module.training_block1.exec-2869.GoNoGo1";;;;;;;;;;;;;;;;;;;;;;;"1250";"2014-10-14 12:10:55.995";"NST_correctLoc";"6";"0";"FINISHED";"LEFT";"success";"291";"0";"2014-10-14 12:10:54.732";"1";;;;;;;;;;;;;;;;;;;;;;;;;;;;;;;;;;;;;;;;;;;;;;;;;;;;;;;;;
"ac12345";"1995";;"Windows 7";"Rachel's Experiment (D.T.)";"1.0";"2";"1";"1";"2";"1";"1";"2014-10-14 12:07:10.403";"2014-10-14 12:20:10.739";"1";"0";"0";"42";"41";"module.training_block1.exec-2869.GoNoGo1";;;;;;;;;;;;;;;;;;;;;;;"1257";"2014-10-14 12:10:58.538";"NST_correctLoc";"26";"1";"FINISHED";"RIGHT";"success";"315";"0";"2014-10-14 12:10:57.275";"3";;;;;;;;;;;;;;;;;;;;;;;;;;;;;;;;;;;;;;;;;;;;;;;;;;;;;;;;;
"ac12345";"1995";;"Windows 7";"Rachel's Experiment (D.T.)";"1.0";"2";"1";"1";"2";"1";"1";"2014-10-14 12:07:10.403";"2014-10-14 12:20:10.739";"1";"0";"0";"43";"42";"module.training_block1.exec-2869.GoNoGo1";;;;;;;;;;;;;;;;;;;;;;;"1257";"2014-10-14 12:11:01.081";"NST_correctLoc";"28";"0";"FINISHED";"LEFT";"success";"284";"0";"2014-10-14 12:10:59.818";"3";;;;;;;;;;;;;;;;;;;;;;;;;;;;;;;;;;;;;;;;;;;;;;;;;;;;;;;;;
"ac12345";"1995";;"Windows 7";"Rachel's Experiment (D.T.)";"1.0";"2";"1";"1";"2";"1";"1";"2014-10-14 12:07:10.403";"2014-10-14 12:20:10.739";"1";"0";"0";"44";"43";"module.training_block1.exec-2869.GoNoGo1";;;;;;;;;;;;;;;;;;;;;;;"1258";"2014-10-14 12:11:03.624";"NST_correctLoc";"18";"1";"FINISHED";"RIGHT";"success";"350";"0";"2014-10-14 12:11:02.360";"3";;;;;;;;;;;;;;;;;;;;;;;;;;;;;;;;;;;;;;;;;;;;;;;;;;;;;;;;;
"ac12345";"1995";;"Windows 7";"Rachel's Experiment (D.T.)";"1.0";"2";"1";"1";"2";"1";"1";"2014-10-14 12:07:10.403";"2014-10-14 12:20:10.739";"1";"0";"0";"45";"44";"module.training_block1.exec-2869.GoNoGo1";;;;;;;;;;;;;;;;;;;;;;;"1257";"2014-10-14 12:11:06.167";"NST_correctLoc";"2";"0";"FINISHED";"LEFT";"success";"302";"0";"2014-10-14 12:11:04.903";"1";;;;;;;;;;;;;;;;;;;;;;;;;;;;;;;;;;;;;;;;;;;;;;;;;;;;;;;;;
"ac12345";"1995";;"Windows 7";"Rachel's Experiment (D.T.)";"1.0";"2";"1";"1";"2";"1";"1";"2014-10-14 12:07:10.403";"2014-10-14 12:20:10.739";"1";"0";"0";"46";"45";"module.training_block1.exec-2869.GoNoGo1";;;;;;;;;;;;;;;;;;;;;;;"1257";"2014-10-14 12:11:08.710";"NST_correctLoc";"16";"1";"FINISHED";"RIGHT";"success";"376";"0";"2014-10-14 12:11:07.446";"2";;;;;;;;;;;;;;;;;;;;;;;;;;;;;;;;;;;;;;;;;;;;;;;;;;;;;;;;;
"ac12345";"1995";;"Windows 7";"Rachel's Experiment (D.T.)";"1.0";"2";"1";"1";"2";"1";"1";"2014-10-14 12:07:10.403";"2014-10-14 12:20:10.739";"1";"0";"0";"47";"46";"module.training_block1.exec-2869.GoNoGo1";;;;;;;;;;;;;;;;;;;;;;;"1257";"2014-10-14 12:11:11.252";"NST_correctLoc";"5";"1";"FINISHED";"RIGHT";"success";"385";"0";"2014-10-14 12:11:09.989";"1";;;;;;;;;;;;;;;;;;;;;;;;;;;;;;;;;;;;;;;;;;;;;;;;;;;;;;;;;
"ac12345";"1995";;"Windows 7";"Rachel's Experiment (D.T.)";"1.0";"2";"1";"1";"2";"1";"1";"2014-10-14 12:07:10.403";"2014-10-14 12:20:10.739";"1";"0";"0";"48";"47";"module.training_block1.exec-2869.GoNoGo1";;;;;;;;;;;;;;;;;;;;;;;"1257";"2014-10-14 12:11:13.795";"NST_correctLoc";"19";"0";"FINISHED";"LEFT";"success";"266";"0";"2014-10-14 12:11:12.532";"3";;;;;;;;;;;;;;;;;;;;;;;;;;;;;;;;;;;;;;;;;;;;;;;;;;;;;;;;;
"ac12345";"1995";;"Windows 7";"Rachel's Experiment (D.T.)";"1.0";"2";"1";"1";"2";"1";"1";"2014-10-14 12:07:10.403";"2014-10-14 12:20:10.739";"1";"0";"0";"49";"48";"module.training_block1.exec-2869.GoNoGo1";;;;;;;;;;;;;;;;;;;;;;;"1257";"2014-10-14 12:11:16.338";"NST_correctLoc";"1";"0";"FINISHED";"LEFT";"success";"379";"0";"2014-10-14 12:11:15.074";"1";;;;;;;;;;;;;;;;;;;;;;;;;;;;;;;;;;;;;;;;;;;;;;;;;;;;;;;;;
"ac12345";"1995";;"Windows 7";"Rachel's Experiment (D.T.)";"1.0";"2";"1";"1";"2";"1";"1";"2014-10-14 12:07:10.403";"2014-10-14 12:20:10.739";"1";"0";"0";"50";"49";"module.training_block1.exec-2869.GoNoGo1";;;;;;;;;;;;;;;;;;;;;;;"1257";"2014-10-14 12:11:18.881";"NST_correctLoc";"13";"1";"FINISHED";"RIGHT";"success";"292";"0";"2014-10-14 12:11:17.617";"2";;;;;;;;;;;;;;;;;;;;;;;;;;;;;;;;;;;;;;;;;;;;;;;;;;;;;;;;;
"ac12345";"1995";;"Windows 7";"Rachel's Experiment (D.T.)";"1.0";"2";"1";"1";"2";"1";"1";"2014-10-14 12:07:10.403";"2014-10-14 12:20:10.739";"1";"0";"0";"51";"50";"module.training_block1.exec-2869.GoNoGo1";;;;;;;;;;;;;;;;;;;;;;;"1257";"2014-10-14 12:11:21.424";"NST_correctLoc";"9";"1";"FINISHED";"RIGHT";"success";"350";"0";"2014-10-14 12:11:20.160";"2";;;;;;;;;;;;;;;;;;;;;;;;;;;;;;;;;;;;;;;;;;;;;;;;;;;;;;;;;
"ac12345";"1995";;"Windows 7";"Rachel's Experiment (D.T.)";"1.0";"2";"1";"1";"2";"1";"1";"2014-10-14 12:07:10.403";"2014-10-14 12:20:10.739";"1";"0";"0";"52";"51";"module.training_block2.exec-8964.GoNoGo2";;;;;;;;;;;;;;;;;;;;;;;;;;;;;;;;;;;"1261";"2014-10-14 12:11:33.030";"NST_correctLoc";"7";"0";"FINISHED";"LEFT";"success";"315";"0";"2014-10-14 12:11:31.766";"1";;;;;;;;;;;;;;;;;;;;;;;;;;;;;;;;;;;;;;;;;;;;;
"ac12345";"1995";;"Windows 7";"Rachel's Experiment (D.T.)";"1.0";"2";"1";"1";"2";"1";"1";"2014-10-14 12:07:10.403";"2014-10-14 12:20:10.739";"1";"0";"0";"53";"52";"module.training_block2.exec-8964.GoNoGo2";;;;;;;;;;;;;;;;;;;;;;;;;;;;;;;;;;;"1257";"2014-10-14 12:11:35.573";"NST_correctLoc";"0";"1";"FINISHED";"RIGHT";"success";"352";"0";"2014-10-14 12:11:34.309";"1";;;;;;;;;;;;;;;;;;;;;;;;;;;;;;;;;;;;;;;;;;;;;
"ac12345";"1995";;"Windows 7";"Rachel's Experiment (D.T.)";"1.0";"2";"1";"1";"2";"1";"1";"2014-10-14 12:07:10.403";"2014-10-14 12:20:10.739";"1";"0";"0";"54";"53";"module.training_block2.exec-8964.GoNoGo2";;;;;;;;;;;;;;;;;;;;;;;;;;;;;;;;;;;"1261";"2014-10-14 12:11:38.116";"NST_correctLoc";"1";"0";"FINISHED";"LEFT";"success";"293";"0";"2014-10-14 12:11:36.852";"1";;;;;;;;;;;;;;;;;;;;;;;;;;;;;;;;;;;;;;;;;;;;;
"ac12345";"1995";;"Windows 7";"Rachel's Experiment (D.T.)";"1.0";"2";"1";"1";"2";"1";"1";"2014-10-14 12:07:10.403";"2014-10-14 12:20:10.739";"1";"0";"0";"55";"54";"module.training_block2.exec-8964.GoNoGo2";;;;;;;;;;;;;;;;;;;;;;;;;;;;;;;;;;;"1261";"2014-10-14 12:11:40.658";"NST_correctLoc";"30";"0";"FINISHED";"LEFT";"success";"335";"0";"2014-10-14 12:11:39.395";"3";;;;;;;;;;;;;;;;;;;;;;;;;;;;;;;;;;;;;;;;;;;;;
"ac12345";"1995";;"Windows 7";"Rachel's Experiment (D.T.)";"1.0";"2";"1";"1";"2";"1";"1";"2014-10-14 12:07:10.403";"2014-10-14 12:20:10.739";"1";"0";"0";"56";"55";"module.training_block2.exec-8964.GoNoGo2";;;;;;;;;;;;;;;;;;;;;;;;;;;;;;;;;;;"1261";"2014-10-14 12:11:43.201";"NST_correctLoc";"32";"1";"FINISHED";"RIGHT";"success";"296";"0";"2014-10-14 12:11:41.938";"3";;;;;;;;;;;;;;;;;;;;;;;;;;;;;;;;;;;;;;;;;;;;;
"ac12345";"1995";;"Windows 7";"Rachel's Experiment (D.T.)";"1.0";"2";"1";"1";"2";"1";"1";"2014-10-14 12:07:10.403";"2014-10-14 12:20:10.739";"1";"0";"0";"57";"56";"module.training_block2.exec-8964.GoNoGo2";;;;;;;;;;;;;;;;;;;;;;;;;;;;;;;;;;;"1261";"2014-10-14 12:11:45.744";"NST_correctLoc";"13";"1";"FINISHED";"RIGHT";"success";"321";"0";"2014-10-14 12:11:44.480";"2";;;;;;;;;;;;;;;;;;;;;;;;;;;;;;;;;;;;;;;;;;;;;
"ac12345";"1995";;"Windows 7";"Rachel's Experiment (D.T.)";"1.0";"2";"1";"1";"2";"1";"1";"2014-10-14 12:07:10.403";"2014-10-14 12:20:10.739";"1";"0";"0";"58";"57";"module.training_block2.exec-8964.GoNoGo2";;;;;;;;;;;;;;;;;;;;;;;;;;;;;;;;;;;"1261";"2014-10-14 12:11:48.287";"NST_correctLoc";"35";"0";"FINISHED";"LEFT";"success";"290";"0";"2014-10-14 12:11:47.023";"3";;;;;;;;;;;;;;;;;;;;;;;;;;;;;;;;;;;;;;;;;;;;;
"ac12345";"1995";;"Windows 7";"Rachel's Experiment (D.T.)";"1.0";"2";"1";"1";"2";"1";"1";"2014-10-14 12:07:10.403";"2014-10-14 12:20:10.739";"1";"0";"0";"59";"58";"module.training_block2.exec-8964.GoNoGo2";;;;;;;;;;;;;;;;;;;;;;;;;;;;;;;;;;;"1256";"2014-10-14 12:11:50.830";"NST_correctLoc";"8";"0";"FINISHED";"LEFT";"success";"310";"0";"2014-10-14 12:11:49.566";"1";;;;;;;;;;;;;;;;;;;;;;;;;;;;;;;;;;;;;;;;;;;;;
"ac12345";"1995";;"Windows 7";"Rachel's Experiment (D.T.)";"1.0";"2";"1";"1";"2";"1";"1";"2014-10-14 12:07:10.403";"2014-10-14 12:20:10.739";"1";"0";"0";"60";"59";"module.training_block2.exec-8964.GoNoGo2";;;;;;;;;;;;;;;;;;;;;;;;;;;;;;;;;;;"1261";"2014-10-14 12:11:53.372";"NST_correctLoc";"17";"1";"FINISHED";"RIGHT";"success";"333";"0";"2014-10-14 12:11:52.109";"2";;;;;;;;;;;;;;;;;;;;;;;;;;;;;;;;;;;;;;;;;;;;;
"ac12345";"1995";;"Windows 7";"Rachel's Experiment (D.T.)";"1.0";"2";"1";"1";"2";"1";"1";"2014-10-14 12:07:10.403";"2014-10-14 12:20:10.739";"1";"0";"0";"61";"60";"module.training_block2.exec-8964.GoNoGo2";;;;;;;;;;;;;;;;;;;;;;;;;;;;;;;;;;;"1261";"2014-10-14 12:11:55.915";"NST_correctLoc";"16";"0";"FINISHED";"LEFT";"success";"326";"0";"2014-10-14 12:11:54.652";"2";;;;;;;;;;;;;;;;;;;;;;;;;;;;;;;;;;;;;;;;;;;;;
"ac12345";"1995";;"Windows 7";"Rachel's Experiment (D.T.)";"1.0";"2";"1";"1";"2";"1";"1";"2014-10-14 12:07:10.403";"2014-10-14 12:20:10.739";"1";"0";"0";"62";"61";"module.training_block2.exec-8964.GoNoGo2";;;;;;;;;;;;;;;;;;;;;;;;;;;;;;;;;;;"1261";"2014-10-14 12:11:58.458";"NST_correctLoc";"29";"1";"FINISHED";"RIGHT";"success";"279";"0";"2014-10-14 12:11:57.194";"3";;;;;;;;;;;;;;;;;;;;;;;;;;;;;;;;;;;;;;;;;;;;;
"ac12345";"1995";;"Windows 7";"Rachel's Experiment (D.T.)";"1.0";"2";"1";"1";"2";"1";"1";"2014-10-14 12:07:10.403";"2014-10-14 12:20:10.739";"1";"0";"0";"63";"62";"module.training_block2.exec-8964.GoNoGo2";;;;;;;;;;;;;;;;;;;;;;;;;;;;;;;;;;;"1261";"2014-10-14 12:12:01.001";"NST_correctLoc";"20";"0";"FINISHED";"LEFT";"success";"272";"0";"2014-10-14 12:11:59.737";"3";;;;;;;;;;;;;;;;;;;;;;;;;;;;;;;;;;;;;;;;;;;;;
"ac12345";"1995";;"Windows 7";"Rachel's Experiment (D.T.)";"1.0";"2";"1";"1";"2";"1";"1";"2014-10-14 12:07:10.403";"2014-10-14 12:20:10.739";"1";"0";"0";"64";"63";"module.training_block2.exec-8964.GoNoGo2";;;;;;;;;;;;;;;;;;;;;;;;;;;;;;;;;;;"1261";"2014-10-14 12:12:03.544";"NST_correctLoc";"31";"0";"FINISHED";"LEFT";"success";"281";"0";"2014-10-14 12:12:02.280";"3";;;;;;;;;;;;;;;;;;;;;;;;;;;;;;;;;;;;;;;;;;;;;
"ac12345";"1995";;"Windows 7";"Rachel's Experiment (D.T.)";"1.0";"2";"1";"1";"2";"1";"1";"2014-10-14 12:07:10.403";"2014-10-14 12:20:10.739";"1";"0";"0";"65";"64";"module.training_block2.exec-8964.GoNoGo2";;;;;;;;;;;;;;;;;;;;;;;;;;;;;;;;;;;"1261";"2014-10-14 12:12:06.086";"NST_correctLoc";"34";"1";"FINISHED";"RIGHT";"success";"307";"0";"2014-10-14 12:12:04.823";"3";;;;;;;;;;;;;;;;;;;;;;;;;;;;;;;;;;;;;;;;;;;;;
"ac12345";"1995";;"Windows 7";"Rachel's Experiment (D.T.)";"1.0";"2";"1";"1";"2";"1";"1";"2014-10-14 12:07:10.403";"2014-10-14 12:20:10.739";"1";"0";"0";"66";"65";"module.training_block2.exec-8964.GoNoGo2";;;;;;;;;;;;;;;;;;;;;;;;;;;;;;;;;;;"1261";"2014-10-14 12:12:08.629";"NST_correctLoc";"10";"1";"FINISHED";"RIGHT";"success";"324";"0";"2014-10-14 12:12:07.366";"2";;;;;;;;;;;;;;;;;;;;;;;;;;;;;;;;;;;;;;;;;;;;;
"ac12345";"1995";;"Windows 7";"Rachel's Experiment (D.T.)";"1.0";"2";"1";"1";"2";"1";"1";"2014-10-14 12:07:10.403";"2014-10-14 12:20:10.739";"1";"0";"0";"67";"66";"module.training_block2.exec-8964.GoNoGo2";;;;;;;;;;;;;;;;;;;;;;;;;;;;;;;;;;;"1261";"2014-10-14 12:12:11.172";"NST_correctLoc";"18";"0";"FINISHED";"LEFT";"success";"293";"0";"2014-10-14 12:12:09.908";"3";;;;;;;;;;;;;;;;;;;;;;;;;;;;;;;;;;;;;;;;;;;;;
"ac12345";"1995";;"Windows 7";"Rachel's Experiment (D.T.)";"1.0";"2";"1";"1";"2";"1";"1";"2014-10-14 12:07:10.403";"2014-10-14 12:20:10.739";"1";"0";"0";"68";"67";"module.training_block2.exec-8964.GoNoGo2";;;;;;;;;;;;;;;;;;;;;;;;;;;;;;;;;;;"1261";"2014-10-14 12:12:13.715";"NST_correctLoc";"14";"1";"FINISHED";"RIGHT";"success";"302";"0";"2014-10-14 12:12:12.451";"2";;;;;;;;;;;;;;;;;;;;;;;;;;;;;;;;;;;;;;;;;;;;;
"ac12345";"1995";;"Windows 7";"Rachel's Experiment (D.T.)";"1.0";"2";"1";"1";"2";"1";"1";"2014-10-14 12:07:10.403";"2014-10-14 12:20:10.739";"1";"0";"0";"69";"68";"module.training_block2.exec-8964.GoNoGo2";;;;;;;;;;;;;;;;;;;;;;;;;;;;;;;;;;;"1261";"2014-10-14 12:12:16.258";"NST_correctLoc";"33";"1";"FINISHED";"RIGHT";"success";"311";"0";"2014-10-14 12:12:14.994";"3";;;;;;;;;;;;;;;;;;;;;;;;;;;;;;;;;;;;;;;;;;;;;
"ac12345";"1995";;"Windows 7";"Rachel's Experiment (D.T.)";"1.0";"2";"1";"1";"2";"1";"1";"2014-10-14 12:07:10.403";"2014-10-14 12:20:10.739";"1";"0";"0";"70";"69";"module.training_block2.exec-8964.GoNoGo2";;;;;;;;;;;;;;;;;;;;;;;;;;;;;;;;;;;"1256";"2014-10-14 12:12:18.800";"NST_correctLoc";"4";"1";"FINISHED";"RIGHT";"success";"252";"0";"2014-10-14 12:12:17.537";"1";;;;;;;;;;;;;;;;;;;;;;;;;;;;;;;;;;;;;;;;;;;;;
"ac12345";"1995";;"Windows 7";"Rachel's Experiment (D.T.)";"1.0";"2";"1";"1";"2";"1";"1";"2014-10-14 12:07:10.403";"2014-10-14 12:20:10.739";"1";"0";"0";"71";"70";"module.training_block2.exec-8964.GoNoGo2";;;;;;;;;;;;;;;;;;;;;;;;;;;;;;;;;;;"1261";"2014-10-14 12:12:21.343";"NST_correctLoc";"26";"0";"FINISHED";"LEFT";"success";"274";"0";"2014-10-14 12:12:20.080";"3";;;;;;;;;;;;;;;;;;;;;;;;;;;;;;;;;;;;;;;;;;;;;
"ac12345";"1995";;"Windows 7";"Rachel's Experiment (D.T.)";"1.0";"2";"1";"1";"2";"1";"1";"2014-10-14 12:07:10.403";"2014-10-14 12:20:10.739";"1";"0";"0";"72";"71";"module.training_block2.exec-8964.GoNoGo2";;;;;;;;;;;;;;;;;;;;;;;;;;;;;;;;;;;"1256";"2014-10-14 12:12:23.886";"NST_correctLoc";"21";"1";"FINISHED";"RIGHT";"success";"309";"0";"2014-10-14 12:12:22.622";"3";;;;;;;;;;;;;;;;;;;;;;;;;;;;;;;;;;;;;;;;;;;;;
"ac12345";"1995";;"Windows 7";"Rachel's Experiment (D.T.)";"1.0";"2";"1";"1";"2";"1";"1";"2014-10-14 12:07:10.403";"2014-10-14 12:20:10.739";"1";"0";"0";"73";"72";"module.training_block2.exec-8964.GoNoGo2";;;;;;;;;;;;;;;;;;;;;;;;;;;;;;;;;;;"1261";"2014-10-14 12:12:26.429";"NST_correctLoc";"22";"1";"FINISHED";"RIGHT";"success";"348";"0";"2014-10-14 12:12:25.165";"3";;;;;;;;;;;;;;;;;;;;;;;;;;;;;;;;;;;;;;;;;;;;;
"ac12345";"1995";;"Windows 7";"Rachel's Experiment (D.T.)";"1.0";"2";"1";"1";"2";"1";"1";"2014-10-14 12:07:10.403";"2014-10-14 12:20:10.739";"1";"0";"0";"74";"73";"module.training_block2.exec-8964.GoNoGo2";;;;;;;;;;;;;;;;;;;;;;;;;;;;;;;;;;;"1261";"2014-10-14 12:12:28.972";"NST_correctLoc";"6";"1";"FINISHED";"RIGHT";"success";"317";"0";"2014-10-14 12:12:27.708";"1";;;;;;;;;;;;;;;;;;;;;;;;;;;;;;;;;;;;;;;;;;;;;
"ac12345";"1995";;"Windows 7";"Rachel's Experiment (D.T.)";"1.0";"2";"1";"1";"2";"1";"1";"2014-10-14 12:07:10.403";"2014-10-14 12:20:10.739";"1";"0";"0";"75";"74";"module.training_block2.exec-8964.GoNoGo2";;;;;;;;;;;;;;;;;;;;;;;;;;;;;;;;;;;"1256";"2014-10-14 12:12:31.514";"NST_correctLoc";"15";"1";"FINISHED";"RIGHT";"success";"322";"0";"2014-10-14 12:12:30.251";"2";;;;;;;;;;;;;;;;;;;;;;;;;;;;;;;;;;;;;;;;;;;;;
"ac12345";"1995";;"Windows 7";"Rachel's Experiment (D.T.)";"1.0";"2";"1";"1";"2";"1";"1";"2014-10-14 12:07:10.403";"2014-10-14 12:20:10.739";"1";"0";"0";"76";"75";"module.training_block2.exec-8964.GoNoGo2";;;;;;;;;;;;;;;;;;;;;;;;;;;;;;;;;;;"1261";"2014-10-14 12:12:34.057";"NST_correctLoc";"19";"0";"FINISHED";"LEFT";"success";"288";"0";"2014-10-14 12:12:32.794";"3";;;;;;;;;;;;;;;;;;;;;;;;;;;;;;;;;;;;;;;;;;;;;
"ac12345";"1995";;"Windows 7";"Rachel's Experiment (D.T.)";"1.0";"2";"1";"1";"2";"1";"1";"2014-10-14 12:07:10.403";"2014-10-14 12:20:10.739";"1";"0";"0";"77";"76";"module.training_block2.exec-8964.GoNoGo2";;;;;;;;;;;;;;;;;;;;;;;;;;;;;;;;;;;"1261";"2014-10-14 12:12:36.600";"NST_correctLoc";"28";"1";"FINISHED";"RIGHT";"success";"257";"0";"2014-10-14 12:12:35.336";"3";;;;;;;;;;;;;;;;;;;;;;;;;;;;;;;;;;;;;;;;;;;;;
"ac12345";"1995";;"Windows 7";"Rachel's Experiment (D.T.)";"1.0";"2";"1";"1";"2";"1";"1";"2014-10-14 12:07:10.403";"2014-10-14 12:20:10.739";"1";"0";"0";"78";"77";"module.training_block2.exec-8964.GoNoGo2";;;;;;;;;;;;;;;;;;;;;;;;;;;;;;;;;;;"1257";"2014-10-14 12:12:39.143";"NST_correctLoc";"12";"0";"FINISHED";"LEFT";"success";"302";"0";"2014-10-14 12:12:37.879";"2";;;;;;;;;;;;;;;;;;;;;;;;;;;;;;;;;;;;;;;;;;;;;
"ac12345";"1995";;"Windows 7";"Rachel's Experiment (D.T.)";"1.0";"2";"1";"1";"2";"1";"1";"2014-10-14 12:07:10.403";"2014-10-14 12:20:10.739";"1";"0";"0";"79";"78";"module.training_block2.exec-8964.GoNoGo2";;;;;;;;;;;;;;;;;;;;;;;;;;;;;;;;;;;"1261";"2014-10-14 12:12:41.717";"NST_correctLoc";"5";"0";"FINISHED";"LEFT";"success";"324";"0";"2014-10-14 12:12:40.453";"1";;;;;;;;;;;;;;;;;;;;;;;;;;;;;;;;;;;;;;;;;;;;;
"ac12345";"1995";;"Windows 7";"Rachel's Experiment (D.T.)";"1.0";"2";"1";"1";"2";"1";"1";"2014-10-14 12:07:10.403";"2014-10-14 12:20:10.739";"1";"0";"0";"80";"79";"module.training_block2.exec-8964.GoNoGo2";;;;;;;;;;;;;;;;;;;;;;;;;;;;;;;;;;;"1261";"2014-10-14 12:12:44.260";"NST_correctLoc";"2";"0";"FINISHED";"LEFT";"success";"381";"0";"2014-10-14 12:12:42.996";"1";;;;;;;;;;;;;;;;;;;;;;;;;;;;;;;;;;;;;;;;;;;;;
"ac12345";"1995";;"Windows 7";"Rachel's Experiment (D.T.)";"1.0";"2";"1";"1";"2";"1";"1";"2014-10-14 12:07:10.403";"2014-10-14 12:20:10.739";"1";"0";"0";"81";"80";"module.training_block2.exec-8964.GoNoGo2";;;;;;;;;;;;;;;;;;;;;;;;;;;;;;;;;;;"1261";"2014-10-14 12:12:46.802";"NST_correctLoc";"27";"0";"FINISHED";"LEFT";"success";"286";"0";"2014-10-14 12:12:45.539";"3";;;;;;;;;;;;;;;;;;;;;;;;;;;;;;;;;;;;;;;;;;;;;
"ac12345";"1995";;"Windows 7";"Rachel's Experiment (D.T.)";"1.0";"2";"1";"1";"2";"1";"1";"2014-10-14 12:07:10.403";"2014-10-14 12:20:10.739";"1";"0";"0";"82";"81";"module.training_block2.exec-8964.GoNoGo2";;;;;;;;;;;;;;;;;;;;;;;;;;;;;;;;;;;"1261";"2014-10-14 12:12:49.345";"NST_correctLoc";"25";"1";"FINISHED";"RIGHT";"success";"383";"0";"2014-10-14 12:12:48.082";"3";;;;;;;;;;;;;;;;;;;;;;;;;;;;;;;;;;;;;;;;;;;;;
"ac12345";"1995";;"Windows 7";"Rachel's Experiment (D.T.)";"1.0";"2";"1";"1";"2";"1";"1";"2014-10-14 12:07:10.403";"2014-10-14 12:20:10.739";"1";"0";"0";"83";"82";"module.training_block2.exec-8964.GoNoGo2";;;;;;;;;;;;;;;;;;;;;;;;;;;;;;;;;;;"1261";"2014-10-14 12:12:51.888";"NST_correctLoc";"9";"1";"FINISHED";"RIGHT";"success";"345";"0";"2014-10-14 12:12:50.624";"2";;;;;;;;;;;;;;;;;;;;;;;;;;;;;;;;;;;;;;;;;;;;;
"ac12345";"1995";;"Windows 7";"Rachel's Experiment (D.T.)";"1.0";"2";"1";"1";"2";"1";"1";"2014-10-14 12:07:10.403";"2014-10-14 12:20:10.739";"1";"0";"0";"84";"83";"module.training_block2.exec-8964.GoNoGo2";;;;;;;;;;;;;;;;;;;;;;;;;;;;;;;;;;;"1261";"2014-10-14 12:12:54.431";"NST_correctLoc";"11";"1";"FINISHED";"RIGHT";"success";"338";"0";"2014-10-14 12:12:53.167";"2";;;;;;;;;;;;;;;;;;;;;;;;;;;;;;;;;;;;;;;;;;;;;
"ac12345";"1995";;"Windows 7";"Rachel's Experiment (D.T.)";"1.0";"2";"1";"1";"2";"1";"1";"2014-10-14 12:07:10.403";"2014-10-14 12:20:10.739";"1";"0";"0";"85";"84";"module.training_block2.exec-8964.GoNoGo2";;;;;;;;;;;;;;;;;;;;;;;;;;;;;;;;;;;"1261";"2014-10-14 12:12:56.974";"NST_correctLoc";"24";"0";"FINISHED";"LEFT";"success";"291";"0";"2014-10-14 12:12:55.710";"3";;;;;;;;;;;;;;;;;;;;;;;;;;;;;;;;;;;;;;;;;;;;;
"ac12345";"1995";;"Windows 7";"Rachel's Experiment (D.T.)";"1.0";"2";"1";"1";"2";"1";"1";"2014-10-14 12:07:10.403";"2014-10-14 12:20:10.739";"1";"0";"0";"86";"85";"module.training_block2.exec-8964.GoNoGo2";;;;;;;;;;;;;;;;;;;;;;;;;;;;;;;;;;;"1261";"2014-10-14 12:12:59.517";"NST_correctLoc";"23";"1";"FINISHED";"RIGHT";"success";"300";"0";"2014-10-14 12:12:58.253";"3";;;;;;;;;;;;;;;;;;;;;;;;;;;;;;;;;;;;;;;;;;;;;
"ac12345";"1995";;"Windows 7";"Rachel's Experiment (D.T.)";"1.0";"2";"1";"1";"2";"1";"1";"2014-10-14 12:07:10.403";"2014-10-14 12:20:10.739";"1";"0";"0";"87";"86";"module.training_block2.exec-8964.GoNoGo2";;;;;;;;;;;;;;;;;;;;;;;;;;;;;;;;;;;"1261";"2014-10-14 12:13:02.059";"NST_correctLoc";"3";"0";"FINISHED";"LEFT";"success";"413";"0";"2014-10-14 12:13:00.796";"1";;;;;;;;;;;;;;;;;;;;;;;;;;;;;;;;;;;;;;;;;;;;;
"ac12345";"1995";;"Windows 7";"Rachel's Experiment (D.T.)";"1.0";"2";"1";"1";"2";"1";"1";"2014-10-14 12:07:10.403";"2014-10-14 12:20:10.739";"1";"0";"0";"88";"87";"module.training_block3.exec-4777.GoNoGo3";;;;;;;;;;;;;;;;;;;;;;;;;;;;;;;;;;;;;;;;;;;;;;;"1261";"2014-10-14 12:13:13.869";"NST_correctLoc";"34";"0";"FINISHED";"LEFT";"success";"356";"0";"2014-10-14 12:13:12.605";"3";;;;;;;;;;;;;;;;;;;;;;;;;;;;;;;;;
"ac12345";"1995";;"Windows 7";"Rachel's Experiment (D.T.)";"1.0";"2";"1";"1";"2";"1";"1";"2014-10-14 12:07:10.403";"2014-10-14 12:20:10.739";"1";"0";"0";"89";"88";"module.training_block3.exec-4777.GoNoGo3";;;;;;;;;;;;;;;;;;;;;;;;;;;;;;;;;;;;;;;;;;;;;;;"1261";"2014-10-14 12:13:16.411";"NST_correctLoc";"0";"1";"FINISHED";"RIGHT";"success";"357";"0";"2014-10-14 12:13:15.148";"1";;;;;;;;;;;;;;;;;;;;;;;;;;;;;;;;;
"ac12345";"1995";;"Windows 7";"Rachel's Experiment (D.T.)";"1.0";"2";"1";"1";"2";"1";"1";"2014-10-14 12:07:10.403";"2014-10-14 12:20:10.739";"1";"0";"0";"90";"89";"module.training_block3.exec-4777.GoNoGo3";;;;;;;;;;;;;;;;;;;;;;;;;;;;;;;;;;;;;;;;;;;;;;;"1261";"2014-10-14 12:13:18.954";"NST_correctLoc";"9";"1";"FINISHED";"RIGHT";"success";"294";"0";"2014-10-14 12:13:17.691";"2";;;;;;;;;;;;;;;;;;;;;;;;;;;;;;;;;
"ac12345";"1995";;"Windows 7";"Rachel's Experiment (D.T.)";"1.0";"2";"1";"1";"2";"1";"1";"2014-10-14 12:07:10.403";"2014-10-14 12:20:10.739";"1";"0";"0";"91";"90";"module.training_block3.exec-4777.GoNoGo3";;;;;;;;;;;;;;;;;;;;;;;;;;;;;;;;;;;;;;;;;;;;;;;"1261";"2014-10-14 12:13:21.497";"NST_correctLoc";"11";"1";"FINISHED";"RIGHT";"success";"320";"0";"2014-10-14 12:13:20.233";"2";;;;;;;;;;;;;;;;;;;;;;;;;;;;;;;;;
"ac12345";"1995";;"Windows 7";"Rachel's Experiment (D.T.)";"1.0";"2";"1";"1";"2";"1";"1";"2014-10-14 12:07:10.403";"2014-10-14 12:20:10.739";"1";"0";"0";"92";"91";"module.training_block3.exec-4777.GoNoGo3";;;;;;;;;;;;;;;;;;;;;;;;;;;;;;;;;;;;;;;;;;;;;;;"1261";"2014-10-14 12:13:24.040";"NST_correctLoc";"8";"0";"FINISHED";"LEFT";"success";"321";"0";"2014-10-14 12:13:22.776";"1";;;;;;;;;;;;;;;;;;;;;;;;;;;;;;;;;
"ac12345";"1995";;"Windows 7";"Rachel's Experiment (D.T.)";"1.0";"2";"1";"1";"2";"1";"1";"2014-10-14 12:07:10.403";"2014-10-14 12:20:10.739";"1";"0";"0";"93";"92";"module.training_block3.exec-4777.GoNoGo3";;;;;;;;;;;;;;;;;;;;;;;;;;;;;;;;;;;;;;;;;;;;;;;"1261";"2014-10-14 12:13:26.583";"NST_correctLoc";"2";"1";"FINISHED";"RIGHT";"success";"298";"0";"2014-10-14 12:13:25.319";"1";;;;;;;;;;;;;;;;;;;;;;;;;;;;;;;;;
"ac12345";"1995";;"Windows 7";"Rachel's Experiment (D.T.)";"1.0";"2";"1";"1";"2";"1";"1";"2014-10-14 12:07:10.403";"2014-10-14 12:20:10.739";"1";"0";"0";"94";"93";"module.training_block3.exec-4777.GoNoGo3";;;;;;;;;;;;;;;;;;;;;;;;;;;;;;;;;;;;;;;;;;;;;;;"1261";"2014-10-14 12:13:29.125";"NST_correctLoc";"30";"1";"FINISHED";"RIGHT";"success";"371";"0";"2014-10-14 12:13:27.862";"3";;;;;;;;;;;;;;;;;;;;;;;;;;;;;;;;;
"ac12345";"1995";;"Windows 7";"Rachel's Experiment (D.T.)";"1.0";"2";"1";"1";"2";"1";"1";"2014-10-14 12:07:10.403";"2014-10-14 12:20:10.739";"1";"0";"0";"95";"94";"module.training_block3.exec-4777.GoNoGo3";;;;;;;;;;;;;;;;;;;;;;;;;;;;;;;;;;;;;;;;;;;;;;;"1261";"2014-10-14 12:13:31.668";"NST_correctLoc";"23";"1";"FINISHED";"RIGHT";"success";"308";"0";"2014-10-14 12:13:30.405";"3";;;;;;;;;;;;;;;;;;;;;;;;;;;;;;;;;
"ac12345";"1995";;"Windows 7";"Rachel's Experiment (D.T.)";"1.0";"2";"1";"1";"2";"1";"1";"2014-10-14 12:07:10.403";"2014-10-14 12:20:10.739";"1";"0";"0";"96";"95";"module.training_block3.exec-4777.GoNoGo3";;;;;;;;;;;;;;;;;;;;;;;;;;;;;;;;;;;;;;;;;;;;;;;"1261";"2014-10-14 12:13:34.211";"NST_correctLoc";"5";"1";"FINISHED";"RIGHT";"success";"341";"0";"2014-10-14 12:13:32.947";"1";;;;;;;;;;;;;;;;;;;;;;;;;;;;;;;;;
"ac12345";"1995";;"Windows 7";"Rachel's Experiment (D.T.)";"1.0";"2";"1";"1";"2";"1";"1";"2014-10-14 12:07:10.403";"2014-10-14 12:20:10.739";"1";"0";"0";"97";"96";"module.training_block3.exec-4777.GoNoGo3";;;;;;;;;;;;;;;;;;;;;;;;;;;;;;;;;;;;;;;;;;;;;;;"1261";"2014-10-14 12:13:36.754";"NST_correctLoc";"1";"1";"FINISHED";"RIGHT";"success";"343";"0";"2014-10-14 12:13:35.490";"1";;;;;;;;;;;;;;;;;;;;;;;;;;;;;;;;;
"ac12345";"1995";;"Windows 7";"Rachel's Experiment (D.T.)";"1.0";"2";"1";"1";"2";"1";"1";"2014-10-14 12:07:10.403";"2014-10-14 12:20:10.739";"1";"0";"0";"98";"97";"module.training_block3.exec-4777.GoNoGo3";;;;;;;;;;;;;;;;;;;;;;;;;;;;;;;;;;;;;;;;;;;;;;;"1261";"2014-10-14 12:13:39.297";"NST_correctLoc";"13";"0";"FINISHED";"LEFT";"success";"312";"0";"2014-10-14 12:13:38.033";"2";;;;;;;;;;;;;;;;;;;;;;;;;;;;;;;;;
"ac12345";"1995";;"Windows 7";"Rachel's Experiment (D.T.)";"1.0";"2";"1";"1";"2";"1";"1";"2014-10-14 12:07:10.403";"2014-10-14 12:20:10.739";"1";"0";"0";"99";"98";"module.training_block3.exec-4777.GoNoGo3";;;;;;;;;;;;;;;;;;;;;;;;;;;;;;;;;;;;;;;;;;;;;;;"1261";"2014-10-14 12:13:41.839";"NST_correctLoc";"3";"1";"FINISHED";"RIGHT";"success";"265";"0";"2014-10-14 12:13:40.576";"1";;;;;;;;;;;;;;;;;;;;;;;;;;;;;;;;;
"ac12345";"1995";;"Windows 7";"Rachel's Experiment (D.T.)";"1.0";"2";"1";"1";"2";"1";"1";"2014-10-14 12:07:10.403";"2014-10-14 12:20:10.739";"1";"0";"0";"100";"99";"module.training_block3.exec-4777.GoNoGo3";;;;;;;;;;;;;;;;;;;;;;;;;;;;;;;;;;;;;;;;;;;;;;;"1261";"2014-10-14 12:13:44.382";"NST_correctLoc";"31";"1";"FINISHED";"RIGHT";"success";"290";"0";"2014-10-14 12:13:43.119";"3";;;;;;;;;;;;;;;;;;;;;;;;;;;;;;;;;
"ac12345";"1995";;"Windows 7";"Rachel's Experiment (D.T.)";"1.0";"2";"1";"1";"2";"1";"1";"2014-10-14 12:07:10.403";"2014-10-14 12:20:10.739";"1";"0";"0";"101";"100";"module.training_block3.exec-4777.GoNoGo3";;;;;;;;;;;;;;;;;;;;;;;;;;;;;;;;;;;;;;;;;;;;;;;"1261";"2014-10-14 12:13:46.925";"NST_correctLoc";"20";"1";"FINISHED";"RIGHT";"success";"347";"0";"2014-10-14 12:13:45.661";"3";;;;;;;;;;;;;;;;;;;;;;;;;;;;;;;;;
"ac12345";"1995";;"Windows 7";"Rachel's Experiment (D.T.)";"1.0";"2";"1";"1";"2";"1";"1";"2014-10-14 12:07:10.403";"2014-10-14 12:20:10.739";"1";"0";"0";"102";"101";"module.training_block3.exec-4777.GoNoGo3";;;;;;;;;;;;;;;;;;;;;;;;;;;;;;;;;;;;;;;;;;;;;;;"1261";"2014-10-14 12:13:49.468";"NST_correctLoc";"22";"1";"FINISHED";"RIGHT";"success";"317";"0";"2014-10-14 12:13:48.204";"3";;;;;;;;;;;;;;;;;;;;;;;;;;;;;;;;;
"ac12345";"1995";;"Windows 7";"Rachel's Experiment (D.T.)";"1.0";"2";"1";"1";"2";"1";"1";"2014-10-14 12:07:10.403";"2014-10-14 12:20:10.739";"1";"0";"0";"103";"102";"module.training_block3.exec-4777.GoNoGo3";;;;;;;;;;;;;;;;;;;;;;;;;;;;;;;;;;;;;;;;;;;;;;;"1261";"2014-10-14 12:13:52.011";"NST_correctLoc";"10";"1";"FINISHED";"RIGHT";"success";"310";"0";"2014-10-14 12:13:50.747";"2";;;;;;;;;;;;;;;;;;;;;;;;;;;;;;;;;
"ac12345";"1995";;"Windows 7";"Rachel's Experiment (D.T.)";"1.0";"2";"1";"1";"2";"1";"1";"2014-10-14 12:07:10.403";"2014-10-14 12:20:10.739";"1";"0";"0";"104";"103";"module.training_block3.exec-4777.GoNoGo3";;;;;;;;;;;;;;;;;;;;;;;;;;;;;;;;;;;;;;;;;;;;;;;"1261";"2014-10-14 12:13:54.553";"NST_correctLoc";"25";"0";"FINISHED";"LEFT";"success";"311";"0";"2014-10-14 12:13:53.290";"3";;;;;;;;;;;;;;;;;;;;;;;;;;;;;;;;;
"ac12345";"1995";;"Windows 7";"Rachel's Experiment (D.T.)";"1.0";"2";"1";"1";"2";"1";"1";"2014-10-14 12:07:10.403";"2014-10-14 12:20:10.739";"1";"0";"0";"105";"104";"module.training_block3.exec-4777.GoNoGo3";;;;;;;;;;;;;;;;;;;;;;;;;;;;;;;;;;;;;;;;;;;;;;;"1261";"2014-10-14 12:13:57.096";"NST_correctLoc";"16";"1";"FINISHED";"RIGHT";"success";"304";"0";"2014-10-14 12:13:55.833";"2";;;;;;;;;;;;;;;;;;;;;;;;;;;;;;;;;
"ac12345";"1995";;"Windows 7";"Rachel's Experiment (D.T.)";"1.0";"2";"1";"1";"2";"1";"1";"2014-10-14 12:07:10.403";"2014-10-14 12:20:10.739";"1";"0";"0";"106";"105";"module.training_block3.exec-4777.GoNoGo3";;;;;;;;;;;;;;;;;;;;;;;;;;;;;;;;;;;;;;;;;;;;;;;"1261";"2014-10-14 12:13:59.639";"NST_correctLoc";"21";"1";"FINISHED";"RIGHT";"success";"305";"0";"2014-10-14 12:13:58.375";"3";;;;;;;;;;;;;;;;;;;;;;;;;;;;;;;;;
"ac12345";"1995";;"Windows 7";"Rachel's Experiment (D.T.)";"1.0";"2";"1";"1";"2";"1";"1";"2014-10-14 12:07:10.403";"2014-10-14 12:20:10.739";"1";"0";"0";"107";"106";"module.training_block3.exec-4777.GoNoGo3";;;;;;;;;;;;;;;;;;;;;;;;;;;;;;;;;;;;;;;;;;;;;;;"1253";"2014-10-14 12:14:02.173";"NST_correctLoc";"26";"1";"FINISHED";"RIGHT";"success";"346";"0";"2014-10-14 12:14:00.918";"3";;;;;;;;;;;;;;;;;;;;;;;;;;;;;;;;;
"ac12345";"1995";;"Windows 7";"Rachel's Experiment (D.T.)";"1.0";"2";"1";"1";"2";"1";"1";"2014-10-14 12:07:10.403";"2014-10-14 12:20:10.739";"1";"0";"0";"108";"107";"module.training_block3.exec-4777.GoNoGo3";;;;;;;;;;;;;;;;;;;;;;;;;;;;;;;;;;;;;;;;;;;;;;;"1261";"2014-10-14 12:14:04.716";"NST_correctLoc";"32";"1";"FINISHED";"RIGHT";"success";"300";"0";"2014-10-14 12:14:03.452";"3";;;;;;;;;;;;;;;;;;;;;;;;;;;;;;;;;
"ac12345";"1995";;"Windows 7";"Rachel's Experiment (D.T.)";"1.0";"2";"1";"1";"2";"1";"1";"2014-10-14 12:07:10.403";"2014-10-14 12:20:10.739";"1";"0";"0";"109";"108";"module.training_block3.exec-4777.GoNoGo3";;;;;;;;;;;;;;;;;;;;;;;;;;;;;;;;;;;;;;;;;;;;;;;"1261";"2014-10-14 12:14:07.259";"NST_correctLoc";"18";"0";"FINISHED";"LEFT";"success";"365";"0";"2014-10-14 12:14:05.995";"3";;;;;;;;;;;;;;;;;;;;;;;;;;;;;;;;;
"ac12345";"1995";;"Windows 7";"Rachel's Experiment (D.T.)";"1.0";"2";"1";"1";"2";"1";"1";"2014-10-14 12:07:10.403";"2014-10-14 12:20:10.739";"1";"0";"0";"110";"109";"module.training_block3.exec-4777.GoNoGo3";;;;;;;;;;;;;;;;;;;;;;;;;;;;;;;;;;;;;;;;;;;;;;;"1261";"2014-10-14 12:14:09.802";"NST_correctLoc";"14";"0";"FINISHED";"LEFT";"success";"423";"0";"2014-10-14 12:14:08.538";"2";;;;;;;;;;;;;;;;;;;;;;;;;;;;;;;;;
"ac12345";"1995";;"Windows 7";"Rachel's Experiment (D.T.)";"1.0";"2";"1";"1";"2";"1";"1";"2014-10-14 12:07:10.403";"2014-10-14 12:20:10.739";"1";"0";"0";"111";"110";"module.training_block3.exec-4777.GoNoGo3";;;;;;;;;;;;;;;;;;;;;;;;;;;;;;;;;;;;;;;;;;;;;;;"1261";"2014-10-14 12:14:12.344";"NST_correctLoc";"19";"0";"FINISHED";"LEFT";"success";"352";"0";"2014-10-14 12:14:11.081";"3";;;;;;;;;;;;;;;;;;;;;;;;;;;;;;;;;
"ac12345";"1995";;"Windows 7";"Rachel's Experiment (D.T.)";"1.0";"2";"1";"1";"2";"1";"1";"2014-10-14 12:07:10.403";"2014-10-14 12:20:10.739";"1";"0";"0";"112";"111";"module.training_block3.exec-4777.GoNoGo3";;;;;;;;;;;;;;;;;;;;;;;;;;;;;;;;;;;;;;;;;;;;;;;"1261";"2014-10-14 12:14:14.887";"NST_correctLoc";"28";"0";"FINISHED";"LEFT";"success";"313";"0";"2014-10-14 12:14:13.624";"3";;;;;;;;;;;;;;;;;;;;;;;;;;;;;;;;;
"ac12345";"1995";;"Windows 7";"Rachel's Experiment (D.T.)";"1.0";"2";"1";"1";"2";"1";"1";"2014-10-14 12:07:10.403";"2014-10-14 12:20:10.739";"1";"0";"0";"113";"112";"module.training_block3.exec-4777.GoNoGo3";;;;;;;;;;;;;;;;;;;;;;;;;;;;;;;;;;;;;;;;;;;;;;;"1261";"2014-10-14 12:14:17.430";"NST_correctLoc";"35";"0";"FINISHED";"LEFT";"success";"282";"0";"2014-10-14 12:14:16.166";"3";;;;;;;;;;;;;;;;;;;;;;;;;;;;;;;;;
"ac12345";"1995";;"Windows 7";"Rachel's Experiment (D.T.)";"1.0";"2";"1";"1";"2";"1";"1";"2014-10-14 12:07:10.403";"2014-10-14 12:20:10.739";"1";"0";"0";"114";"113";"module.training_block3.exec-4777.GoNoGo3";;;;;;;;;;;;;;;;;;;;;;;;;;;;;;;;;;;;;;;;;;;;;;;"1261";"2014-10-14 12:14:19.973";"NST_correctLoc";"6";"0";"FINISHED";"LEFT";"success";"331";"0";"2014-10-14 12:14:18.709";"1";;;;;;;;;;;;;;;;;;;;;;;;;;;;;;;;;
"ac12345";"1995";;"Windows 7";"Rachel's Experiment (D.T.)";"1.0";"2";"1";"1";"2";"1";"1";"2014-10-14 12:07:10.403";"2014-10-14 12:20:10.739";"1";"0";"0";"115";"114";"module.training_block3.exec-4777.GoNoGo3";;;;;;;;;;;;;;;;;;;;;;;;;;;;;;;;;;;;;;;;;;;;;;;"1261";"2014-10-14 12:14:22.516";"NST_correctLoc";"27";"0";"FINISHED";"LEFT";"success";"308";"0";"2014-10-14 12:14:21.252";"3";;;;;;;;;;;;;;;;;;;;;;;;;;;;;;;;;
"ac12345";"1995";;"Windows 7";"Rachel's Experiment (D.T.)";"1.0";"2";"1";"1";"2";"1";"1";"2014-10-14 12:07:10.403";"2014-10-14 12:20:10.739";"1";"0";"0";"116";"115";"module.training_block3.exec-4777.GoNoGo3";;;;;;;;;;;;;;;;;;;;;;;;;;;;;;;;;;;;;;;;;;;;;;;"1261";"2014-10-14 12:14:25.058";"NST_correctLoc";"33";"1";"FINISHED";"RIGHT";"success";"334";"0";"2014-10-14 12:14:23.795";"3";;;;;;;;;;;;;;;;;;;;;;;;;;;;;;;;;
"ac12345";"1995";;"Windows 7";"Rachel's Experiment (D.T.)";"1.0";"2";"1";"1";"2";"1";"1";"2014-10-14 12:07:10.403";"2014-10-14 12:20:10.739";"1";"0";"0";"117";"116";"module.training_block3.exec-4777.GoNoGo3";;;;;;;;;;;;;;;;;;;;;;;;;;;;;;;;;;;;;;;;;;;;;;;"1261";"2014-10-14 12:14:27.601";"NST_correctLoc";"12";"0";"FINISHED";"LEFT";"success";"335";"0";"2014-10-14 12:14:26.338";"2";;;;;;;;;;;;;;;;;;;;;;;;;;;;;;;;;
"ac12345";"1995";;"Windows 7";"Rachel's Experiment (D.T.)";"1.0";"2";"1";"1";"2";"1";"1";"2014-10-14 12:07:10.403";"2014-10-14 12:20:10.739";"1";"0";"0";"118";"117";"module.training_block3.exec-4777.GoNoGo3";;;;;;;;;;;;;;;;;;;;;;;;;;;;;;;;;;;;;;;;;;;;;;;"1261";"2014-10-14 12:14:30.144";"NST_correctLoc";"17";"1";"FINISHED";"RIGHT";"success";"312";"0";"2014-10-14 12:14:28.880";"2";;;;;;;;;;;;;;;;;;;;;;;;;;;;;;;;;
"ac12345";"1995";;"Windows 7";"Rachel's Experiment (D.T.)";"1.0";"2";"1";"1";"2";"1";"1";"2014-10-14 12:07:10.403";"2014-10-14 12:20:10.739";"1";"0";"0";"119";"118";"module.training_block3.exec-4777.GoNoGo3";;;;;;;;;;;;;;;;;;;;;;;;;;;;;;;;;;;;;;;;;;;;;;;"1261";"2014-10-14 12:14:32.687";"NST_correctLoc";"7";"0";"FINISHED";"LEFT";"success";"273";"0";"2014-10-14 12:14:31.423";"1";;;;;;;;;;;;;;;;;;;;;;;;;;;;;;;;;
"ac12345";"1995";;"Windows 7";"Rachel's Experiment (D.T.)";"1.0";"2";"1";"1";"2";"1";"1";"2014-10-14 12:07:10.403";"2014-10-14 12:20:10.739";"1";"0";"0";"120";"119";"module.training_block3.exec-4777.GoNoGo3";;;;;;;;;;;;;;;;;;;;;;;;;;;;;;;;;;;;;;;;;;;;;;;"1261";"2014-10-14 12:14:35.230";"NST_correctLoc";"24";"0";"FINISHED";"LEFT";"success";"330";"0";"2014-10-14 12:14:33.966";"3";;;;;;;;;;;;;;;;;;;;;;;;;;;;;;;;;
"ac12345";"1995";;"Windows 7";"Rachel's Experiment (D.T.)";"1.0";"2";"1";"1";"2";"1";"1";"2014-10-14 12:07:10.403";"2014-10-14 12:20:10.739";"1";"0";"0";"121";"120";"module.training_block3.exec-4777.GoNoGo3";;;;;;;;;;;;;;;;;;;;;;;;;;;;;;;;;;;;;;;;;;;;;;;"1261";"2014-10-14 12:14:37.772";"NST_correctLoc";"29";"1";"FINISHED";"RIGHT";"success";"292";"0";"2014-10-14 12:14:36.509";"3";;;;;;;;;;;;;;;;;;;;;;;;;;;;;;;;;
"ac12345";"1995";;"Windows 7";"Rachel's Experiment (D.T.)";"1.0";"2";"1";"1";"2";"1";"1";"2014-10-14 12:07:10.403";"2014-10-14 12:20:10.739";"1";"0";"0";"122";"121";"module.training_block3.exec-4777.GoNoGo3";;;;;;;;;;;;;;;;;;;;;;;;;;;;;;;;;;;;;;;;;;;;;;;"1256";"2014-10-14 12:14:40.315";"NST_correctLoc";"15";"0";"FINISHED";"LEFT";"success";"327";"0";"2014-10-14 12:14:39.052";"2";;;;;;;;;;;;;;;;;;;;;;;;;;;;;;;;;
"ac12345";"1995";;"Windows 7";"Rachel's Experiment (D.T.)";"1.0";"2";"1";"1";"2";"1";"1";"2014-10-14 12:07:10.403";"2014-10-14 12:20:10.739";"1";"0";"0";"123";"122";"module.training_block3.exec-4777.GoNoGo3";;;;;;;;;;;;;;;;;;;;;;;;;;;;;;;;;;;;;;;;;;;;;;;"1257";"2014-10-14 12:14:42.858";"NST_correctLoc";"4";"1";"FINISHED";"RIGHT";"success";"266";"0";"2014-10-14 12:14:41.594";"1";;;;;;;;;;;;;;;;;;;;;;;;;;;;;;;;;
"ac12345";"1995";;"Windows 7";"Rachel's Experiment (D.T.)";"1.0";"2";"1";"1";"2";"1";"1";"2014-10-14 12:07:10.403";"2014-10-14 12:20:10.739";"1";"0";"0";"124";"123";"module.training_block4.exec-8795.GoNoGo4";;;;;;;;;;;;;;;;;;;;;;;;;;;;;;;;;;;;;;;;;;;;;;;;;;;;;;;;;;;"1261";"2014-10-14 12:14:53.716";"NST_correctLoc";"13";"0";"FINISHED";"LEFT";"success";"308";"0";"2014-10-14 12:14:52.452";"2";;;;;;;;;;;;;;;;;;;;;
"ac12345";"1995";;"Windows 7";"Rachel's Experiment (D.T.)";"1.0";"2";"1";"1";"2";"1";"1";"2014-10-14 12:07:10.403";"2014-10-14 12:20:10.739";"1";"0";"0";"125";"124";"module.training_block4.exec-8795.GoNoGo4";;;;;;;;;;;;;;;;;;;;;;;;;;;;;;;;;;;;;;;;;;;;;;;;;;;;;;;;;;;"1261";"2014-10-14 12:14:56.258";"NST_correctLoc";"14";"1";"FINISHED";"RIGHT";"success";"357";"0";"2014-10-14 12:14:54.995";"2";;;;;;;;;;;;;;;;;;;;;
"ac12345";"1995";;"Windows 7";"Rachel's Experiment (D.T.)";"1.0";"2";"1";"1";"2";"1";"1";"2014-10-14 12:07:10.403";"2014-10-14 12:20:10.739";"1";"0";"0";"126";"125";"module.training_block4.exec-8795.GoNoGo4";;;;;;;;;;;;;;;;;;;;;;;;;;;;;;;;;;;;;;;;;;;;;;;;;;;;;;;;;;;"1261";"2014-10-14 12:14:58.801";"NST_correctLoc";"8";"0";"FINISHED";"LEFT";"success";"303";"0";"2014-10-14 12:14:57.538";"1";;;;;;;;;;;;;;;;;;;;;
"ac12345";"1995";;"Windows 7";"Rachel's Experiment (D.T.)";"1.0";"2";"1";"1";"2";"1";"1";"2014-10-14 12:07:10.403";"2014-10-14 12:20:10.739";"1";"0";"0";"127";"126";"module.training_block4.exec-8795.GoNoGo4";;;;;;;;;;;;;;;;;;;;;;;;;;;;;;;;;;;;;;;;;;;;;;;;;;;;;;;;;;;"1261";"2014-10-14 12:15:01.344";"NST_correctLoc";"23";"0";"FINISHED";"LEFT";"success";"312";"0";"2014-10-14 12:15:00.080";"3";;;;;;;;;;;;;;;;;;;;;
"ac12345";"1995";;"Windows 7";"Rachel's Experiment (D.T.)";"1.0";"2";"1";"1";"2";"1";"1";"2014-10-14 12:07:10.403";"2014-10-14 12:20:10.739";"1";"0";"0";"128";"127";"module.training_block4.exec-8795.GoNoGo4";;;;;;;;;;;;;;;;;;;;;;;;;;;;;;;;;;;;;;;;;;;;;;;;;;;;;;;;;;;"1261";"2014-10-14 12:15:03.887";"NST_correctLoc";"3";"0";"FINISHED";"LEFT";"success";"337";"0";"2014-10-14 12:15:02.623";"1";;;;;;;;;;;;;;;;;;;;;
"ac12345";"1995";;"Windows 7";"Rachel's Experiment (D.T.)";"1.0";"2";"1";"1";"2";"1";"1";"2014-10-14 12:07:10.403";"2014-10-14 12:20:10.739";"1";"0";"0";"129";"128";"module.training_block4.exec-8795.GoNoGo4";;;;;;;;;;;;;;;;;;;;;;;;;;;;;;;;;;;;;;;;;;;;;;;;;;;;;;;;;;;"1261";"2014-10-14 12:15:06.430";"NST_correctLoc";"16";"1";"FINISHED";"RIGHT";"success";"338";"0";"2014-10-14 12:15:05.166";"2";;;;;;;;;;;;;;;;;;;;;
"ac12345";"1995";;"Windows 7";"Rachel's Experiment (D.T.)";"1.0";"2";"1";"1";"2";"1";"1";"2014-10-14 12:07:10.403";"2014-10-14 12:20:10.739";"1";"0";"0";"130";"129";"module.training_block4.exec-8795.GoNoGo4";;;;;;;;;;;;;;;;;;;;;;;;;;;;;;;;;;;;;;;;;;;;;;;;;;;;;;;;;;;"1261";"2014-10-14 12:15:08.972";"NST_correctLoc";"4";"1";"FINISHED";"RIGHT";"success";"363";"0";"2014-10-14 12:15:07.709";"1";;;;;;;;;;;;;;;;;;;;;
"ac12345";"1995";;"Windows 7";"Rachel's Experiment (D.T.)";"1.0";"2";"1";"1";"2";"1";"1";"2014-10-14 12:07:10.403";"2014-10-14 12:20:10.739";"1";"0";"0";"131";"130";"module.training_block4.exec-8795.GoNoGo4";;;;;;;;;;;;;;;;;;;;;;;;;;;;;;;;;;;;;;;;;;;;;;;;;;;;;;;;;;;"1261";"2014-10-14 12:15:11.515";"NST_correctLoc";"6";"1";"FINISHED";"RIGHT";"success";"356";"0";"2014-10-14 12:15:10.252";"1";;;;;;;;;;;;;;;;;;;;;
"ac12345";"1995";;"Windows 7";"Rachel's Experiment (D.T.)";"1.0";"2";"1";"1";"2";"1";"1";"2014-10-14 12:07:10.403";"2014-10-14 12:20:10.739";"1";"0";"0";"132";"131";"module.training_block4.exec-8795.GoNoGo4";;;;;;;;;;;;;;;;;;;;;;;;;;;;;;;;;;;;;;;;;;;;;;;;;;;;;;;;;;;"1261";"2014-10-14 12:15:14.058";"NST_correctLoc";"9";"0";"FINISHED";"LEFT";"success";"310";"0";"2014-10-14 12:15:12.794";"2";;;;;;;;;;;;;;;;;;;;;
"ac12345";"1995";;"Windows 7";"Rachel's Experiment (D.T.)";"1.0";"2";"1";"1";"2";"1";"1";"2014-10-14 12:07:10.403";"2014-10-14 12:20:10.739";"1";"0";"0";"133";"132";"module.training_block4.exec-8795.GoNoGo4";;;;;;;;;;;;;;;;;;;;;;;;;;;;;;;;;;;;;;;;;;;;;;;;;;;;;;;;;;;"1261";"2014-10-14 12:15:16.601";"NST_correctLoc";"17";"0";"FINISHED";"LEFT";"success";"343";"0";"2014-10-14 12:15:15.337";"2";;;;;;;;;;;;;;;;;;;;;
"ac12345";"1995";;"Windows 7";"Rachel's Experiment (D.T.)";"1.0";"2";"1";"1";"2";"1";"1";"2014-10-14 12:07:10.403";"2014-10-14 12:20:10.739";"1";"0";"0";"134";"133";"module.training_block4.exec-8795.GoNoGo4";;;;;;;;;;;;;;;;;;;;;;;;;;;;;;;;;;;;;;;;;;;;;;;;;;;;;;;;;;;"1261";"2014-10-14 12:15:19.144";"NST_correctLoc";"11";"1";"FINISHED";"RIGHT";"success";"344";"0";"2014-10-14 12:15:17.880";"2";;;;;;;;;;;;;;;;;;;;;
"ac12345";"1995";;"Windows 7";"Rachel's Experiment (D.T.)";"1.0";"2";"1";"1";"2";"1";"1";"2014-10-14 12:07:10.403";"2014-10-14 12:20:10.739";"1";"0";"0";"135";"134";"module.training_block4.exec-8795.GoNoGo4";;;;;;;;;;;;;;;;;;;;;;;;;;;;;;;;;;;;;;;;;;;;;;;;;;;;;;;;;;;"1261";"2014-10-14 12:15:21.686";"NST_correctLoc";"31";"1";"FINISHED";"RIGHT";"success";"329";"0";"2014-10-14 12:15:20.423";"3";;;;;;;;;;;;;;;;;;;;;
"ac12345";"1995";;"Windows 7";"Rachel's Experiment (D.T.)";"1.0";"2";"1";"1";"2";"1";"1";"2014-10-14 12:07:10.403";"2014-10-14 12:20:10.739";"1";"0";"0";"136";"135";"module.training_block4.exec-8795.GoNoGo4";;;;;;;;;;;;;;;;;;;;;;;;;;;;;;;;;;;;;;;;;;;;;;;;;;;;;;;;;;;"1261";"2014-10-14 12:15:24.229";"NST_correctLoc";"20";"1";"FINISHED";"RIGHT";"success";"346";"0";"2014-10-14 12:15:22.966";"3";;;;;;;;;;;;;;;;;;;;;
"ac12345";"1995";;"Windows 7";"Rachel's Experiment (D.T.)";"1.0";"2";"1";"1";"2";"1";"1";"2014-10-14 12:07:10.403";"2014-10-14 12:20:10.739";"1";"0";"0";"137";"136";"module.training_block4.exec-8795.GoNoGo4";;;;;;;;;;;;;;;;;;;;;;;;;;;;;;;;;;;;;;;;;;;;;;;;;;;;;;;;;;;"1261";"2014-10-14 12:15:26.772";"NST_correctLoc";"5";"0";"FINISHED";"LEFT";"success";"380";"0";"2014-10-14 12:15:25.508";"1";;;;;;;;;;;;;;;;;;;;;
"ac12345";"1995";;"Windows 7";"Rachel's Experiment (D.T.)";"1.0";"2";"1";"1";"2";"1";"1";"2014-10-14 12:07:10.403";"2014-10-14 12:20:10.739";"1";"0";"0";"138";"137";"module.training_block4.exec-8795.GoNoGo4";;;;;;;;;;;;;;;;;;;;;;;;;;;;;;;;;;;;;;;;;;;;;;;;;;;;;;;;;;;"1261";"2014-10-14 12:15:29.315";"NST_correctLoc";"22";"1";"FINISHED";"RIGHT";"success";"293";"0";"2014-10-14 12:15:28.051";"3";;;;;;;;;;;;;;;;;;;;;
"ac12345";"1995";;"Windows 7";"Rachel's Experiment (D.T.)";"1.0";"2";"1";"1";"2";"1";"1";"2014-10-14 12:07:10.403";"2014-10-14 12:20:10.739";"1";"0";"0";"139";"138";"module.training_block4.exec-8795.GoNoGo4";;;;;;;;;;;;;;;;;;;;;;;;;;;;;;;;;;;;;;;;;;;;;;;;;;;;;;;;;;;"1261";"2014-10-14 12:15:31.858";"NST_correctLoc";"21";"1";"FINISHED";"RIGHT";"success";"398";"0";"2014-10-14 12:15:30.594";"3";;;;;;;;;;;;;;;;;;;;;
"ac12345";"1995";;"Windows 7";"Rachel's Experiment (D.T.)";"1.0";"2";"1";"1";"2";"1";"1";"2014-10-14 12:07:10.403";"2014-10-14 12:20:10.739";"1";"0";"0";"140";"139";"module.training_block4.exec-8795.GoNoGo4";;;;;;;;;;;;;;;;;;;;;;;;;;;;;;;;;;;;;;;;;;;;;;;;;;;;;;;;;;;"1261";"2014-10-14 12:15:34.400";"NST_correctLoc";"25";"1";"FINISHED";"RIGHT";"success";"343";"0";"2014-10-14 12:15:33.137";"3";;;;;;;;;;;;;;;;;;;;;
"ac12345";"1995";;"Windows 7";"Rachel's Experiment (D.T.)";"1.0";"2";"1";"1";"2";"1";"1";"2014-10-14 12:07:10.403";"2014-10-14 12:20:10.739";"1";"0";"0";"141";"140";"module.training_block4.exec-8795.GoNoGo4";;;;;;;;;;;;;;;;;;;;;;;;;;;;;;;;;;;;;;;;;;;;;;;;;;;;;;;;;;;"1261";"2014-10-14 12:15:36.943";"NST_correctLoc";"33";"1";"FINISHED";"RIGHT";"success";"344";"0";"2014-10-14 12:15:35.680";"3";;;;;;;;;;;;;;;;;;;;;
"ac12345";"1995";;"Windows 7";"Rachel's Experiment (D.T.)";"1.0";"2";"1";"1";"2";"1";"1";"2014-10-14 12:07:10.403";"2014-10-14 12:20:10.739";"1";"0";"0";"142";"141";"module.training_block4.exec-8795.GoNoGo4";;;;;;;;;;;;;;;;;;;;;;;;;;;;;;;;;;;;;;;;;;;;;;;;;;;;;;;;;;;"1261";"2014-10-14 12:15:39.486";"NST_correctLoc";"7";"1";"FINISHED";"RIGHT";"success";"330";"0";"2014-10-14 12:15:38.222";"1";;;;;;;;;;;;;;;;;;;;;
"ac12345";"1995";;"Windows 7";"Rachel's Experiment (D.T.)";"1.0";"2";"1";"1";"2";"1";"1";"2014-10-14 12:07:10.403";"2014-10-14 12:20:10.739";"1";"0";"0";"143";"142";"module.training_block4.exec-8795.GoNoGo4";;;;;;;;;;;;;;;;;;;;;;;;;;;;;;;;;;;;;;;;;;;;;;;;;;;;;;;;;;;"1261";"2014-10-14 12:15:42.029";"NST_correctLoc";"0";"0";"FINISHED";"LEFT";"success";"331";"0";"2014-10-14 12:15:40.765";"1";;;;;;;;;;;;;;;;;;;;;
"ac12345";"1995";;"Windows 7";"Rachel's Experiment (D.T.)";"1.0";"2";"1";"1";"2";"1";"1";"2014-10-14 12:07:10.403";"2014-10-14 12:20:10.739";"1";"0";"0";"144";"143";"module.training_block4.exec-8795.GoNoGo4";;;;;;;;;;;;;;;;;;;;;;;;;;;;;;;;;;;;;;;;;;;;;;;;;;;;;;;;;;;"1261";"2014-10-14 12:15:44.572";"NST_correctLoc";"18";"1";"FINISHED";"RIGHT";"success";"404";"0";"2014-10-14 12:15:43.308";"3";;;;;;;;;;;;;;;;;;;;;
"ac12345";"1995";;"Windows 7";"Rachel's Experiment (D.T.)";"1.0";"2";"1";"1";"2";"1";"1";"2014-10-14 12:07:10.403";"2014-10-14 12:20:10.739";"1";"0";"0";"145";"144";"module.training_block4.exec-8795.GoNoGo4";;;;;;;;;;;;;;;;;;;;;;;;;;;;;;;;;;;;;;;;;;;;;;;;;;;;;;;;;;;"1261";"2014-10-14 12:15:47.115";"NST_correctLoc";"28";"1";"FINISHED";"RIGHT";"success";"341";"0";"2014-10-14 12:15:45.851";"3";;;;;;;;;;;;;;;;;;;;;
"ac12345";"1995";;"Windows 7";"Rachel's Experiment (D.T.)";"1.0";"2";"1";"1";"2";"1";"1";"2014-10-14 12:07:10.403";"2014-10-14 12:20:10.739";"1";"0";"0";"146";"145";"module.training_block4.exec-8795.GoNoGo4";;;;;;;;;;;;;;;;;;;;;;;;;;;;;;;;;;;;;;;;;;;;;;;;;;;;;;;;;;;"1261";"2014-10-14 12:15:49.657";"NST_correctLoc";"24";"0";"FINISHED";"LEFT";"success";"438";"0";"2014-10-14 12:15:48.394";"3";;;;;;;;;;;;;;;;;;;;;
"ac12345";"1995";;"Windows 7";"Rachel's Experiment (D.T.)";"1.0";"2";"1";"1";"2";"1";"1";"2014-10-14 12:07:10.403";"2014-10-14 12:20:10.739";"1";"0";"0";"147";"146";"module.training_block4.exec-8795.GoNoGo4";;;;;;;;;;;;;;;;;;;;;;;;;;;;;;;;;;;;;;;;;;;;;;;;;;;;;;;;;;;"1261";"2014-10-14 12:15:52.185";"NST_correctLoc";"29";"1";"FINISHED";"RIGHT";"success";"319";"0";"2014-10-14 12:15:50.921";"3";;;;;;;;;;;;;;;;;;;;;
"ac12345";"1995";;"Windows 7";"Rachel's Experiment (D.T.)";"1.0";"2";"1";"1";"2";"1";"1";"2014-10-14 12:07:10.403";"2014-10-14 12:20:10.739";"1";"0";"0";"148";"147";"module.training_block4.exec-8795.GoNoGo4";;;;;;;;;;;;;;;;;;;;;;;;;;;;;;;;;;;;;;;;;;;;;;;;;;;;;;;;;;;"1261";"2014-10-14 12:15:54.727";"NST_correctLoc";"1";"0";"FINISHED";"LEFT";"success";"344";"0";"2014-10-14 12:15:53.464";"1";;;;;;;;;;;;;;;;;;;;;
"ac12345";"1995";;"Windows 7";"Rachel's Experiment (D.T.)";"1.0";"2";"1";"1";"2";"1";"1";"2014-10-14 12:07:10.403";"2014-10-14 12:20:10.739";"1";"0";"0";"149";"148";"module.training_block4.exec-8795.GoNoGo4";;;;;;;;;;;;;;;;;;;;;;;;;;;;;;;;;;;;;;;;;;;;;;;;;;;;;;;;;;;"1261";"2014-10-14 12:15:57.255";"NST_correctLoc";"15";"0";"FINISHED";"LEFT";"success";"329";"0";"2014-10-14 12:15:55.991";"2";;;;;;;;;;;;;;;;;;;;;
"ac12345";"1995";;"Windows 7";"Rachel's Experiment (D.T.)";"1.0";"2";"1";"1";"2";"1";"1";"2014-10-14 12:07:10.403";"2014-10-14 12:20:10.739";"1";"0";"0";"150";"149";"module.training_block4.exec-8795.GoNoGo4";;;;;;;;;;;;;;;;;;;;;;;;;;;;;;;;;;;;;;;;;;;;;;;;;;;;;;;;;;;"1261";"2014-10-14 12:15:59.782";"NST_correctLoc";"26";"0";"FINISHED";"LEFT";"success";"298";"0";"2014-10-14 12:15:58.518";"3";;;;;;;;;;;;;;;;;;;;;
"ac12345";"1995";;"Windows 7";"Rachel's Experiment (D.T.)";"1.0";"2";"1";"1";"2";"1";"1";"2014-10-14 12:07:10.403";"2014-10-14 12:20:10.739";"1";"0";"0";"151";"150";"module.training_block4.exec-8795.GoNoGo4";;;;;;;;;;;;;;;;;;;;;;;;;;;;;;;;;;;;;;;;;;;;;;;;;;;;;;;;;;;"1261";"2014-10-14 12:16:02.309";"NST_correctLoc";"35";"0";"FINISHED";"LEFT";"success";"267";"0";"2014-10-14 12:16:01.045";"3";;;;;;;;;;;;;;;;;;;;;
"ac12345";"1995";;"Windows 7";"Rachel's Experiment (D.T.)";"1.0";"2";"1";"1";"2";"1";"1";"2014-10-14 12:07:10.403";"2014-10-14 12:20:10.739";"1";"0";"0";"152";"151";"module.training_block4.exec-8795.GoNoGo4";;;;;;;;;;;;;;;;;;;;;;;;;;;;;;;;;;;;;;;;;;;;;;;;;;;;;;;;;;;"1261";"2014-10-14 12:16:04.836";"NST_correctLoc";"2";"1";"FINISHED";"RIGHT";"success";"275";"0";"2014-10-14 12:16:03.573";"1";;;;;;;;;;;;;;;;;;;;;
"ac12345";"1995";;"Windows 7";"Rachel's Experiment (D.T.)";"1.0";"2";"1";"1";"2";"1";"1";"2014-10-14 12:07:10.403";"2014-10-14 12:20:10.739";"1";"0";"0";"153";"152";"module.training_block4.exec-8795.GoNoGo4";;;;;;;;;;;;;;;;;;;;;;;;;;;;;;;;;;;;;;;;;;;;;;;;;;;;;;;;;;;"1261";"2014-10-14 12:16:07.363";"NST_correctLoc";"19";"0";"FINISHED";"LEFT";"success";"268";"0";"2014-10-14 12:16:06.100";"3";;;;;;;;;;;;;;;;;;;;;
"ac12345";"1995";;"Windows 7";"Rachel's Experiment (D.T.)";"1.0";"2";"1";"1";"2";"1";"1";"2014-10-14 12:07:10.403";"2014-10-14 12:20:10.739";"1";"0";"0";"154";"153";"module.training_block4.exec-8795.GoNoGo4";;;;;;;;;;;;;;;;;;;;;;;;;;;;;;;;;;;;;;;;;;;;;;;;;;;;;;;;;;;"1261";"2014-10-14 12:16:09.906";"NST_correctLoc";"34";"1";"FINISHED";"RIGHT";"success";"277";"0";"2014-10-14 12:16:08.643";"3";;;;;;;;;;;;;;;;;;;;;
"ac12345";"1995";;"Windows 7";"Rachel's Experiment (D.T.)";"1.0";"2";"1";"1";"2";"1";"1";"2014-10-14 12:07:10.403";"2014-10-14 12:20:10.739";"1";"0";"0";"155";"154";"module.training_block4.exec-8795.GoNoGo4";;;;;;;;;;;;;;;;;;;;;;;;;;;;;;;;;;;;;;;;;;;;;;;;;;;;;;;;;;;"1261";"2014-10-14 12:16:12.449";"NST_correctLoc";"32";"0";"FINISHED";"LEFT";"success";"262";"0";"2014-10-14 12:16:11.185";"3";;;;;;;;;;;;;;;;;;;;;
"ac12345";"1995";;"Windows 7";"Rachel's Experiment (D.T.)";"1.0";"2";"1";"1";"2";"1";"1";"2014-10-14 12:07:10.403";"2014-10-14 12:20:10.739";"1";"0";"0";"156";"155";"module.training_block4.exec-8795.GoNoGo4";;;;;;;;;;;;;;;;;;;;;;;;;;;;;;;;;;;;;;;;;;;;;;;;;;;;;;;;;;;"1261";"2014-10-14 12:16:14.976";"NST_correctLoc";"30";"0";"FINISHED";"LEFT";"success";"311";"0";"2014-10-14 12:16:13.713";"3";;;;;;;;;;;;;;;;;;;;;
"ac12345";"1995";;"Windows 7";"Rachel's Experiment (D.T.)";"1.0";"2";"1";"1";"2";"1";"1";"2014-10-14 12:07:10.403";"2014-10-14 12:20:10.739";"1";"0";"0";"157";"156";"module.training_block4.exec-8795.GoNoGo4";;;;;;;;;;;;;;;;;;;;;;;;;;;;;;;;;;;;;;;;;;;;;;;;;;;;;;;;;;;"1261";"2014-10-14 12:16:17.503";"NST_correctLoc";"10";"0";"FINISHED";"LEFT";"success";"480";"0";"2014-10-14 12:16:16.240";"2";;;;;;;;;;;;;;;;;;;;;
"ac12345";"1995";;"Windows 7";"Rachel's Experiment (D.T.)";"1.0";"2";"1";"1";"2";"1";"1";"2014-10-14 12:07:10.403";"2014-10-14 12:20:10.739";"1";"0";"0";"158";"157";"module.training_block4.exec-8795.GoNoGo4";;;;;;;;;;;;;;;;;;;;;;;;;;;;;;;;;;;;;;;;;;;;;;;;;;;;;;;;;;;"1261";"2014-10-14 12:16:20.031";"NST_correctLoc";"27";"0";"FINISHED";"LEFT";"success";"449";"0";"2014-10-14 12:16:18.767";"3";;;;;;;;;;;;;;;;;;;;;
"ac12345";"1995";;"Windows 7";"Rachel's Experiment (D.T.)";"1.0";"2";"1";"1";"2";"1";"1";"2014-10-14 12:07:10.403";"2014-10-14 12:20:10.739";"1";"0";"0";"159";"158";"module.training_block4.exec-8795.GoNoGo4";;;;;;;;;;;;;;;;;;;;;;;;;;;;;;;;;;;;;;;;;;;;;;;;;;;;;;;;;;;"1256";"2014-10-14 12:16:22.573";"NST_correctLoc";"12";"1";"FINISHED";"RIGHT";"success";"405";"0";"2014-10-14 12:16:21.310";"2";;;;;;;;;;;;;;;;;;;;;
"ac12345";"1995";;"Windows 7";"Rachel's Experiment (D.T.)";"1.0";"2";"1";"1";"2";"1";"1";"2014-10-14 12:07:10.403";"2014-10-14 12:20:10.739";"1";"0";"0";"160";"159";"module.devaluation_practice.exec-3414.devalPractice";;;;;;;;;;;;"9477";"2014-10-14 12:17:05.910";"0";"8";"6";"7";"3277";"1491";"1645";"2014-10-14 12:16:56.425";;;;;;;;;;;;;;;;;;;;;;;;;;;;;;;;;;;;;;;;;;;;;;;;;;;;;;;;;;;;;;;;;;;;;;
"ac12345";"1995";;"Windows 7";"Rachel's Experiment (D.T.)";"1.0";"2";"1";"1";"2";"1";"1";"2014-10-14 12:07:10.403";"2014-10-14 12:20:10.739";"1";"0";"0";"161";"160";"module.devaluation_practice.exec-3414.devalPractice";;;;;;;;;;;;"6128";"2014-10-14 12:17:12.057";"1";"7";"5";"6";"1716";"505";"879";"2014-10-14 12:17:05.926";;;;;;;;;;;;;;;;;;;;;;;;;;;;;;;;;;;;;;;;;;;;;;;;;;;;;;;;;;;;;;;;;;;;;;
"ac12345";"1995";;"Windows 7";"Rachel's Experiment (D.T.)";"1.0";"2";"1";"1";"2";"1";"1";"2014-10-14 12:07:10.403";"2014-10-14 12:20:10.739";"1";"0";"0";"162";"161";"module.devaluation_practice.exec-3414.devalPractice";;;;;;;;;;;;"7619";"2014-10-14 12:17:19.701";"2";"7";"8";"8";"1153";"906";"2534";"2014-10-14 12:17:12.072";;;;;;;;;;;;;;;;;;;;;;;;;;;;;;;;;;;;;;;;;;;;;;;;;;;;;;;;;;;;;;;;;;;;;;
"ac12345";"1995";;"Windows 7";"Rachel's Experiment (D.T.)";"1.0";"2";"1";"1";"2";"1";"1";"2014-10-14 12:07:10.403";"2014-10-14 12:20:10.739";"1";"0";"0";"163";"162";"module.devaluation_practice.exec-3414.devalPractice";;;;;;;;;;;;"6356";"2014-10-14 12:17:26.081";"3";"8";"8";"8";"1341";"949";"1039";"2014-10-14 12:17:19.716";;;;;;;;;;;;;;;;;;;;;;;;;;;;;;;;;;;;;;;;;;;;;;;;;;;;;;;;;;;;;;;;;;;;;;
"ac12345";"1995";;"Windows 7";"Rachel's Experiment (D.T.)";"1.0";"2";"1";"1";"2";"1";"1";"2014-10-14 12:07:10.403";"2014-10-14 12:20:10.739";"1";"0";"0";"164";"163";"module.devaluation_block1.exec-6947.deval1";"6317";"2014-10-14 12:17:36.923";"9";"5";"5";"4";"1027";"1017";"1236";"2014-10-14 12:17:30.605";"2";;;;;;;;;;;;;;;;;;;;;;;;;;;;;;;;;;;;;;;;;;;;;;;;;;;;;;;;;;;;;;;;;;;;;;;;;;;;;;;;
"ac12345";"1995";;"Windows 7";"Rachel's Experiment (D.T.)";"1.0";"2";"1";"1";"2";"1";"1";"2014-10-14 12:07:10.403";"2014-10-14 12:20:10.739";"1";"0";"0";"165";"164";"module.devaluation_block1.exec-6947.deval1";"7433";"2014-10-14 12:17:44.380";"5";"4";"6";"7";"2087";"642";"1674";"2014-10-14 12:17:36.939";"1";;;;;;;;;;;;;;;;;;;;;;;;;;;;;;;;;;;;;;;;;;;;;;;;;;;;;;;;;;;;;;;;;;;;;;;;;;;;;;;;
"ac12345";"1995";;"Windows 7";"Rachel's Experiment (D.T.)";"1.0";"2";"1";"1";"2";"1";"1";"2014-10-14 12:07:10.403";"2014-10-14 12:20:10.739";"1";"0";"0";"166";"165";"module.devaluation_block1.exec-6947.deval1";"5531";"2014-10-14 12:17:49.934";"15";"3";"5";"4";"950";"578";"972";"2014-10-14 12:17:44.396";"2";;;;;;;;;;;;;;;;;;;;;;;;;;;;;;;;;;;;;;;;;;;;;;;;;;;;;;;;;;;;;;;;;;;;;;;;;;;;;;;;
"ac12345";"1995";;"Windows 7";"Rachel's Experiment (D.T.)";"1.0";"2";"1";"1";"2";"1";"1";"2014-10-14 12:07:10.403";"2014-10-14 12:20:10.739";"1";"0";"0";"167";"166";"module.devaluation_block1.exec-6947.deval1";"6443";"2014-10-14 12:17:56.392";"10";"7";"7";"6";"1188";"911";"1312";"2014-10-14 12:17:49.949";"2";;;;;;;;;;;;;;;;;;;;;;;;;;;;;;;;;;;;;;;;;;;;;;;;;;;;;;;;;;;;;;;;;;;;;;;;;;;;;;;;
"ac12345";"1995";;"Windows 7";"Rachel's Experiment (D.T.)";"1.0";"2";"1";"1";"2";"1";"1";"2014-10-14 12:07:10.403";"2014-10-14 12:20:10.739";"1";"0";"0";"168";"167";"module.devaluation_block1.exec-6947.deval1";"7578";"2014-10-14 12:18:03.989";"21";"8";"8";"8";"1242";"1366";"1951";"2014-10-14 12:17:56.408";"3";;;;;;;;;;;;;;;;;;;;;;;;;;;;;;;;;;;;;;;;;;;;;;;;;;;;;;;;;;;;;;;;;;;;;;;;;;;;;;;;
"ac12345";"1995";;"Windows 7";"Rachel's Experiment (D.T.)";"1.0";"2";"1";"1";"2";"1";"1";"2014-10-14 12:07:10.403";"2014-10-14 12:20:10.739";"1";"0";"0";"169";"168";"module.devaluation_block1.exec-6947.deval1";"6059";"2014-10-14 12:18:10.073";"2";"4";"7";"7";"797";"894";"1327";"2014-10-14 12:18:04.020";"1";;;;;;;;;;;;;;;;;;;;;;;;;;;;;;;;;;;;;;;;;;;;;;;;;;;;;;;;;;;;;;;;;;;;;;;;;;;;;;;;
"ac12345";"1995";;"Windows 7";"Rachel's Experiment (D.T.)";"1.0";"2";"1";"1";"2";"1";"1";"2014-10-14 12:07:10.403";"2014-10-14 12:20:10.739";"1";"0";"0";"170";"169";"module.devaluation_block1.exec-6947.deval1";"5110";"2014-10-14 12:18:15.206";"25";"7";"6";"8";"713";"523";"840";"2014-10-14 12:18:10.104";"3";;;;;;;;;;;;;;;;;;;;;;;;;;;;;;;;;;;;;;;;;;;;;;;;;;;;;;;;;;;;;;;;;;;;;;;;;;;;;;;;
"ac12345";"1995";;"Windows 7";"Rachel's Experiment (D.T.)";"1.0";"2";"1";"1";"2";"1";"1";"2014-10-14 12:07:10.403";"2014-10-14 12:20:10.739";"1";"0";"0";"171";"170";"module.devaluation_block1.exec-6947.deval1";"6707";"2014-10-14 12:18:21.945";"0";"4";"6";"7";"2021";"450";"1198";"2014-10-14 12:18:15.237";"1";;;;;;;;;;;;;;;;;;;;;;;;;;;;;;;;;;;;;;;;;;;;;;;;;;;;;;;;;;;;;;;;;;;;;;;;;;;;;;;;
"ac12345";"1995";;"Windows 7";"Rachel's Experiment (D.T.)";"1.0";"2";"1";"1";"2";"1";"1";"2014-10-14 12:07:10.403";"2014-10-14 12:20:10.739";"1";"0";"0";"172";"171";"module.devaluation_block1.exec-6947.deval1";"5664";"2014-10-14 12:18:27.623";"18";"6";"5";"7";"769";"693";"1178";"2014-10-14 12:18:21.960";"3";;;;;;;;;;;;;;;;;;;;;;;;;;;;;;;;;;;;;;;;;;;;;;;;;;;;;;;;;;;;;;;;;;;;;;;;;;;;;;;;
"ac12345";"1995";;"Windows 7";"Rachel's Experiment (D.T.)";"1.0";"2";"1";"1";"2";"1";"1";"2014-10-14 12:07:10.403";"2014-10-14 12:20:10.739";"1";"0";"0";"173";"172";"module.devaluation_block1.exec-6947.deval1";"5650";"2014-10-14 12:18:33.302";"14";"7";"5";"6";"947";"1139";"552";"2014-10-14 12:18:27.639";"2";;;;;;;;;;;;;;;;;;;;;;;;;;;;;;;;;;;;;;;;;;;;;;;;;;;;;;;;;;;;;;;;;;;;;;;;;;;;;;;;
"ac12345";"1995";;"Windows 7";"Rachel's Experiment (D.T.)";"1.0";"2";"1";"1";"2";"1";"1";"2014-10-14 12:07:10.403";"2014-10-14 12:20:10.739";"1";"0";"0";"174";"173";"module.devaluation_block1.exec-6947.deval1";"6844";"2014-10-14 12:18:40.166";"3";"4";"6";"7";"972";"1420";"1426";"2014-10-14 12:18:33.317";"1";;;;;;;;;;;;;;;;;;;;;;;;;;;;;;;;;;;;;;;;;;;;;;;;;;;;;;;;;;;;;;;;;;;;;;;;;;;;;;;;
"ac12345";"1995";;"Windows 7";"Rachel's Experiment (D.T.)";"1.0";"2";"1";"1";"2";"1";"1";"2014-10-14 12:07:10.403";"2014-10-14 12:20:10.739";"1";"0";"0";"175";"174";"module.devaluation_block1.exec-6947.deval1";"6923";"2014-10-14 12:18:47.108";"22";"7";"8";"8";"2004";"689";"1204";"2014-10-14 12:18:40.181";"3";;;;;;;;;;;;;;;;;;;;;;;;;;;;;;;;;;;;;;;;;;;;;;;;;;;;;;;;;;;;;;;;;;;;;;;;;;;;;;;;
"ac12345";"1995";;"Windows 7";"Rachel's Experiment (D.T.)";"1.0";"2";"1";"1";"2";"1";"1";"2014-10-14 12:07:10.403";"2014-10-14 12:20:10.739";"1";"0";"0";"176";"175";"module.devaluation_block1.exec-6947.deval1";"4753";"2014-10-14 12:18:51.881";"12";"7";"6";"6";"718";"566";"438";"2014-10-14 12:18:47.123";"2";;;;;;;;;;;;;;;;;;;;;;;;;;;;;;;;;;;;;;;;;;;;;;;;;;;;;;;;;;;;;;;;;;;;;;;;;;;;;;;;
"ac12345";"1995";;"Windows 7";"Rachel's Experiment (D.T.)";"1.0";"2";"1";"1";"2";"1";"1";"2014-10-14 12:07:10.403";"2014-10-14 12:20:10.739";"1";"0";"0";"177";"176";"module.devaluation_block1.exec-6947.deval1";"6275";"2014-10-14 12:18:58.184";"23";"9";"8";"8";"1384";"840";"1033";"2014-10-14 12:18:51.897";"3";;;;;;;;;;;;;;;;;;;;;;;;;;;;;;;;;;;;;;;;;;;;;;;;;;;;;;;;;;;;;;;;;;;;;;;;;;;;;;;;
"ac12345";"1995";;"Windows 7";"Rachel's Experiment (D.T.)";"1.0";"2";"1";"1";"2";"1";"1";"2014-10-14 12:07:10.403";"2014-10-14 12:20:10.739";"1";"0";"0";"178";"177";"module.devaluation_block1.exec-6947.deval1";"4923";"2014-10-14 12:19:03.129";"13";"6";"6";"5";"418";"465";"1002";"2014-10-14 12:18:58.199";"2";;;;;;;;;;;;;;;;;;;;;;;;;;;;;;;;;;;;;;;;;;;;;;;;;;;;;;;;;;;;;;;;;;;;;;;;;;;;;;;;
"ac12345";"1995";;"Windows 7";"Rachel's Experiment (D.T.)";"1.0";"2";"1";"1";"2";"1";"1";"2014-10-14 12:07:10.403";"2014-10-14 12:20:10.739";"1";"0";"0";"179";"178";"module.devaluation_block1.exec-6947.deval1";"5056";"2014-10-14 12:19:08.199";"20";"6";"4";"7";"577";"584";"869";"2014-10-14 12:19:03.144";"3";;;;;;;;;;;;;;;;;;;;;;;;;;;;;;;;;;;;;;;;;;;;;;;;;;;;;;;;;;;;;;;;;;;;;;;;;;;;;;;;
"ac12345";"1995";;"Windows 7";"Rachel's Experiment (D.T.)";"1.0";"2";"1";"1";"2";"1";"1";"2014-10-14 12:07:10.403";"2014-10-14 12:20:10.739";"1";"0";"0";"180";"179";"module.devaluation_block1.exec-6947.deval1";"5476";"2014-10-14 12:19:13.690";"26";"9";"6";"8";"1179";"449";"830";"2014-10-14 12:19:08.214";"3";;;;;;;;;;;;;;;;;;;;;;;;;;;;;;;;;;;;;;;;;;;;;;;;;;;;;;;;;;;;;;;;;;;;;;;;;;;;;;;;
"ac12345";"1995";;"Windows 7";"Rachel's Experiment (D.T.)";"1.0";"2";"1";"1";"2";"1";"1";"2014-10-14 12:07:10.403";"2014-10-14 12:20:10.739";"1";"0";"0";"181";"180";"module.devaluation_block1.exec-6947.deval1";"4803";"2014-10-14 12:19:18.526";"8";"7";"6";"6";"840";"468";"451";"2014-10-14 12:19:13.721";"1";;;;;;;;;;;;;;;;;;;;;;;;;;;;;;;;;;;;;;;;;;;;;;;;;;;;;;;;;;;;;;;;;;;;;;;;;;;;;;;;
"ac12345";"1995";;"Windows 7";"Rachel's Experiment (D.T.)";"1.0";"2";"1";"1";"2";"1";"1";"2014-10-14 12:07:10.403";"2014-10-14 12:20:10.739";"1";"0";"0";"182";"181";"module.devaluation_block1.exec-6947.deval1";"6073";"2014-10-14 12:19:24.610";"1";"4";"5";"6";"780";"854";"1413";"2014-10-14 12:19:18.542";"1";;;;;;;;;;;;;;;;;;;;;;;;;;;;;;;;;;;;;;;;;;;;;;;;;;;;;;;;;;;;;;;;;;;;;;;;;;;;;;;;
"ac12345";"1995";;"Windows 7";"Rachel's Experiment (D.T.)";"1.0";"2";"1";"1";"2";"1";"1";"2014-10-14 12:07:10.403";"2014-10-14 12:20:10.739";"1";"0";"0";"183";"182";"module.devaluation_block1.exec-6947.deval1";"6211";"2014-10-14 12:19:30.850";"17";"4";"2";"3";"1112";"1096";"969";"2014-10-14 12:19:24.641";"2";;;;;;;;;;;;;;;;;;;;;;;;;;;;;;;;;;;;;;;;;;;;;;;;;;;;;;;;;;;;;;;;;;;;;;;;;;;;;;;;
"ac12345";"1995";;"Windows 7";"Rachel's Experiment (D.T.)";"1.0";"2";"1";"1";"2";"1";"1";"2014-10-14 12:07:10.403";"2014-10-14 12:20:10.739";"1";"0";"0";"184";"183";"module.devaluation_block1.exec-6947.deval1";"4807";"2014-10-14 12:19:35.686";"6";"4";"6";"7";"729";"320";"721";"2014-10-14 12:19:30.866";"1";;;;;;;;;;;;;;;;;;;;;;;;;;;;;;;;;;;;;;;;;;;;;;;;;;;;;;;;;;;;;;;;;;;;;;;;;;;;;;;;
"ac12345";"1995";;"Windows 7";"Rachel's Experiment (D.T.)";"1.0";"2";"1";"1";"2";"1";"1";"2014-10-14 12:07:10.403";"2014-10-14 12:20:10.739";"1";"0";"0";"185";"184";"module.devaluation_block1.exec-6947.deval1";"4876";"2014-10-14 12:19:40.585";"11";"8";"6";"6";"763";"543";"532";"2014-10-14 12:19:35.702";"2";;;;;;;;;;;;;;;;;;;;;;;;;;;;;;;;;;;;;;;;;;;;;;;;;;;;;;;;;;;;;;;;;;;;;;;;;;;;;;;;
"ac12345";"1995";;"Windows 7";"Rachel's Experiment (D.T.)";"1.0";"2";"1";"1";"2";"1";"1";"2014-10-14 12:07:10.403";"2014-10-14 12:20:10.739";"1";"0";"0";"186";"185";"module.devaluation_block1.exec-6947.deval1";"5495";"2014-10-14 12:19:46.091";"16";"4";"6";"4";"657";"541";"1271";"2014-10-14 12:19:40.600";"2";;;;;;;;;;;;;;;;;;;;;;;;;;;;;;;;;;;;;;;;;;;;;;;;;;;;;;;;;;;;;;;;;;;;;;;;;;;;;;;;
"ac12345";"1995";;"Windows 7";"Rachel's Experiment (D.T.)";"1.0";"2";"1";"1";"2";"1";"1";"2014-10-14 12:07:10.403";"2014-10-14 12:20:10.739";"1";"0";"0";"187";"186";"module.devaluation_block1.exec-6947.deval1";"4827";"2014-10-14 12:19:50.943";"7";"7";"7";"8";"654";"553";"581";"2014-10-14 12:19:46.123";"1";;;;;;;;;;;;;;;;;;;;;;;;;;;;;;;;;;;;;;;;;;;;;;;;;;;;;;;;;;;;;;;;;;;;;;;;;;;;;;;;
"ac12345";"1995";;"Windows 7";"Rachel's Experiment (D.T.)";"1.0";"2";"1";"1";"2";"1";"1";"2014-10-14 12:07:10.403";"2014-10-14 12:20:10.739";"1";"0";"0";"188";"187";"module.devaluation_block1.exec-6947.deval1";"6979";"2014-10-14 12:19:57.947";"19";"7";"7";"8";"1602";"689";"1672";"2014-10-14 12:19:50.959";"3";;;;;;;;;;;;;;;;;;;;;;;;;;;;;;;;;;;;;;;;;;;;;;;;;;;;;;;;;;;;;;;;;;;;;;;;;;;;;;;;
"ac12345";"1995";;"Windows 7";"Rachel's Experiment (D.T.)";"1.0";"2";"1";"1";"2";"1";"1";"2014-10-14 12:07:10.403";"2014-10-14 12:20:10.739";"1";"0";"0";"189";"188";"module.devaluation_block1.exec-6947.deval1";"5323";"2014-10-14 12:20:03.283";"4";"8";"8";"8";"830";"729";"744";"2014-10-14 12:19:57.963";"1";;;;;;;;;;;;;;;;;;;;;;;;;;;;;;;;;;;;;;;;;;;;;;;;;;;;;;;;;;;;;;;;;;;;;;;;;;;;;;;;
"ac12345";"1995";;"Windows 7";"Rachel's Experiment (D.T.)";"1.0";"2";"1";"1";"2";"1";"1";"2014-10-14 12:07:10.403";"2014-10-14 12:20:10.739";"1";"0";"0";"190";"189";"module.devaluation_block1.exec-6947.deval1";"4930";"2014-10-14 12:20:08.243";"24";"6";"8";"7";"423";"688";"783";"2014-10-14 12:20:03.314";"3";;;;;;;;;;;;;;;;;;;;;;;;;;;;;;;;;;;;;;;;;;;;;;;;;;;;;;;;;;;;;;;;;;;;;;;;;;;;;;;;
