"user.name";"user.yearOfBirth";"user.sex";"user.osName";"module.name";"module.version";"module.online.subject.code";"module.online.study.id";"module.online.module.nr";"module.online.group.nr";"session.id";"session.index";"session.startTime";"session.endTime";"session.completed";"session.node-5184.conditionType";"session.node-7527.DevalQorder";"trial.id";"trial.index";"trial.name";"trial.deval1.durationTime";"trial.deval1.endTime";"trial.deval1.icon";"trial.deval1.Resp_Attractive";"trial.deval1.Resp_Eat";"trial.deval1.Resp_Taste";"trial.deval1.RT_Attractive";"trial.deval1.RT_Eat";"trial.deval1.RT_Taste";"trial.deval1.startTime";"trial.deval1.stimulus type";"trial.devalPractice.durationTime";"trial.devalPractice.endTime";"trial.devalPractice.icon";"trial.devalPractice.Resp_Attractive";"trial.devalPractice.Resp_Eat";"trial.devalPractice.Resp_Taste";"trial.devalPractice.RT_Attractive";"trial.devalPractice.RT_Eat";"trial.devalPractice.RT_Taste";"trial.devalPractice.startTime";"trial.devalPractice.stimulus type";"trial.GoNoGo1.durationTime";"trial.GoNoGo1.endTime";"trial.GoNoGo1.Error Type";"trial.GoNoGo1.icon";"trial.GoNoGo1.location";"trial.GoNoGo1.outcome";"trial.GoNoGo1.response";"trial.GoNoGo1.result";"trial.GoNoGo1.RT";"trial.GoNoGo1.signal";"trial.GoNoGo1.startTime";"trial.GoNoGo1.stimulus type";"trial.GoNoGo2.durationTime";"trial.GoNoGo2.endTime";"trial.GoNoGo2.Error Type";"trial.GoNoGo2.icon";"trial.GoNoGo2.location";"trial.GoNoGo2.outcome";"trial.GoNoGo2.response";"trial.GoNoGo2.result";"trial.GoNoGo2.RT";"trial.GoNoGo2.signal";"trial.GoNoGo2.startTime";"trial.GoNoGo2.stimulus type";"trial.GoNoGo3.durationTime";"trial.GoNoGo3.endTime";"trial.GoNoGo3.Error Type";"trial.GoNoGo3.icon";"trial.GoNoGo3.location";"trial.GoNoGo3.outcome";"trial.GoNoGo3.response";"trial.GoNoGo3.result";"trial.GoNoGo3.RT";"trial.GoNoGo3.signal";"trial.GoNoGo3.startTime";"trial.GoNoGo3.stimulus type";"trial.GoNoGo4.durationTime";"trial.GoNoGo4.endTime";"trial.GoNoGo4.Error Type";"trial.GoNoGo4.icon";"trial.GoNoGo4.location";"trial.GoNoGo4.outcome";"trial.GoNoGo4.response";"trial.GoNoGo4.result";"trial.GoNoGo4.RT";"trial.GoNoGo4.signal";"trial.GoNoGo4.startTime";"trial.GoNoGo4.stimulus type";"trial.GoNoGo_Practice.durationTime";"trial.GoNoGo_Practice.endTime";"trial.GoNoGo_Practice.icon";"trial.GoNoGo_Practice.location";"trial.GoNoGo_Practice.outcome";"trial.GoNoGo_Practice.response";"trial.GoNoGo_Practice.result";"trial.GoNoGo_Practice.RT";"trial.GoNoGo_Practice.signal";"trial.GoNoGo_Practice.startTime";"trial.GoNoGo_Practice.stimulus type";"trial.GoNoGo_Tutorial.durationTime";"trial.GoNoGo_Tutorial.endTime";"trial.GoNoGo_Tutorial.icon";"trial.GoNoGo_Tutorial.location";"trial.GoNoGo_Tutorial.outcome";"trial.GoNoGo_Tutorial.response";"trial.GoNoGo_Tutorial.result";"trial.GoNoGo_Tutorial.RT";"trial.GoNoGo_Tutorial.signal";"trial.GoNoGo_Tutorial.startTime"
"Brown20";"1994";;"Windows 8";"Rachel's Experiment (D.T.)";"1.0";"2";"1";"1";"2";"1";"1";"2014-10-11 15:44:34.934";"2014-10-11 15:58:19.067";"1";"1";"0";"1";"0";"module.GoNoGotutorial.exec-5273.GoNoGo_Tutorial";;;;;;;;;;;;;;;;;;;;;;;;;;;;;;;;;;;;;;;;;;;;;;;;;;;;;;;;;;;;;;;;;;;;;;;;;;;;;;;;;;"4000";"2014-10-11 15:46:20.015";"leftResponse";"0";"FINISHED";"LEFT";"success";"1495";"0";"2014-10-11 15:46:16.014"
"Brown20";"1994";;"Windows 8";"Rachel's Experiment (D.T.)";"1.0";"2";"1";"1";"2";"1";"1";"2014-10-11 15:44:34.934";"2014-10-11 15:58:19.067";"1";"1";"0";"2";"1";"module.GoNoGotutorial.exec-5273.GoNoGo_Tutorial";;;;;;;;;;;;;;;;;;;;;;;;;;;;;;;;;;;;;;;;;;;;;;;;;;;;;;;;;;;;;;;;;;;;;;;;;;;;;;;;;;"3999";"2014-10-11 15:46:25.361";"rightResponse";"1";"FINISHED";"RIGHT";"success";"1091";"0";"2014-10-11 15:46:21.361"
"Brown20";"1994";;"Windows 8";"Rachel's Experiment (D.T.)";"1.0";"2";"1";"1";"2";"1";"1";"2014-10-11 15:44:34.934";"2014-10-11 15:58:19.067";"1";"1";"0";"3";"2";"module.GoNoGotutorial.exec-5273.GoNoGo_Tutorial";;;;;;;;;;;;;;;;;;;;;;;;;;;;;;;;;;;;;;;;;;;;;;;;;;;;;;;;;;;;;;;;;;;;;;;;;;;;;;;;;;"3999";"2014-10-11 15:46:30.651";"signalResponse";"0";"FINISHED";"NONE";"success";"0";"1";"2014-10-11 15:46:26.651"
"Brown20";"1994";;"Windows 8";"Rachel's Experiment (D.T.)";"1.0";"2";"1";"1";"2";"1";"1";"2014-10-11 15:44:34.934";"2014-10-11 15:58:19.067";"1";"1";"0";"4";"3";"module.GoNoGopractice.exec-2810.GoNoGo_Practice";;;;;;;;;;;;;;;;;;;;;;;;;;;;;;;;;;;;;;;;;;;;;;;;;;;;;;;;;;;;;;;;;;;;;;;"1991";"2014-10-11 15:46:40.336";"18";"0";"FINISHED";"LEFT";"success";"386";"0";"2014-10-11 15:46:38.343";"3";;;;;;;;;;
"Brown20";"1994";;"Windows 8";"Rachel's Experiment (D.T.)";"1.0";"2";"1";"1";"2";"1";"1";"2014-10-11 15:44:34.934";"2014-10-11 15:58:19.067";"1";"1";"0";"5";"4";"module.GoNoGopractice.exec-2810.GoNoGo_Practice";;;;;;;;;;;;;;;;;;;;;;;;;;;;;;;;;;;;;;;;;;;;;;;;;;;;;;;;;;;;;;;;;;;;;;;"1952";"2014-10-11 15:46:43.595";"21";"1";"FINISHED";"RIGHT";"success";"400";"0";"2014-10-11 15:46:41.643";"3";;;;;;;;;;
"Brown20";"1994";;"Windows 8";"Rachel's Experiment (D.T.)";"1.0";"2";"1";"1";"2";"1";"1";"2014-10-11 15:44:34.934";"2014-10-11 15:58:19.067";"1";"1";"0";"6";"5";"module.GoNoGopractice.exec-2810.GoNoGo_Practice";;;;;;;;;;;;;;;;;;;;;;;;;;;;;;;;;;;;;;;;;;;;;;;;;;;;;;;;;;;;;;;;;;;;;;;"1960";"2014-10-11 15:46:46.862";"14";"1";"FINISHED";"NONE";"success";"0";"1";"2014-10-11 15:46:44.901";"2";;;;;;;;;;
"Brown20";"1994";;"Windows 8";"Rachel's Experiment (D.T.)";"1.0";"2";"1";"1";"2";"1";"1";"2014-10-11 15:44:34.934";"2014-10-11 15:58:19.067";"1";"1";"0";"7";"6";"module.GoNoGopractice.exec-2810.GoNoGo_Practice";;;;;;;;;;;;;;;;;;;;;;;;;;;;;;;;;;;;;;;;;;;;;;;;;;;;;;;;;;;;;;;;;;;;;;;"1952";"2014-10-11 15:46:50.124";"26";"0";"FINISHED";"LEFT";"success";"387";"0";"2014-10-11 15:46:48.171";"3";;;;;;;;;;
"Brown20";"1994";;"Windows 8";"Rachel's Experiment (D.T.)";"1.0";"2";"1";"1";"2";"1";"1";"2014-10-11 15:44:34.934";"2014-10-11 15:58:19.067";"1";"1";"0";"8";"7";"module.GoNoGopractice.exec-2810.GoNoGo_Practice";;;;;;;;;;;;;;;;;;;;;;;;;;;;;;;;;;;;;;;;;;;;;;;;;;;;;;;;;;;;;;;;;;;;;;;"1952";"2014-10-11 15:46:53.386";"2";"0";"FINISHED";"LEFT";"success";"515";"0";"2014-10-11 15:46:51.433";"1";;;;;;;;;;
"Brown20";"1994";;"Windows 8";"Rachel's Experiment (D.T.)";"1.0";"2";"1";"1";"2";"1";"1";"2014-10-11 15:44:34.934";"2014-10-11 15:58:19.067";"1";"1";"0";"9";"8";"module.GoNoGopractice.exec-2810.GoNoGo_Practice";;;;;;;;;;;;;;;;;;;;;;;;;;;;;;;;;;;;;;;;;;;;;;;;;;;;;;;;;;;;;;;;;;;;;;;"1953";"2014-10-11 15:46:56.651";"30";"0";"FINISHED";"NONE";"success";"0";"1";"2014-10-11 15:46:54.698";"3";;;;;;;;;;
"Brown20";"1994";;"Windows 8";"Rachel's Experiment (D.T.)";"1.0";"2";"1";"1";"2";"1";"1";"2014-10-11 15:44:34.934";"2014-10-11 15:58:19.067";"1";"1";"0";"10";"9";"module.GoNoGopractice.exec-2810.GoNoGo_Practice";;;;;;;;;;;;;;;;;;;;;;;;;;;;;;;;;;;;;;;;;;;;;;;;;;;;;;;;;;;;;;;;;;;;;;;"1959";"2014-10-11 15:46:59.924";"6";"1";"FINISHED";"RIGHT";"failure";"362";"1";"2014-10-11 15:46:57.964";"1";;;;;;;;;;
"Brown20";"1994";;"Windows 8";"Rachel's Experiment (D.T.)";"1.0";"2";"1";"1";"2";"1";"1";"2014-10-11 15:44:34.934";"2014-10-11 15:58:19.067";"1";"1";"0";"11";"10";"module.GoNoGopractice.exec-2810.GoNoGo_Practice";;;;;;;;;;;;;;;;;;;;;;;;;;;;;;;;;;;;;;;;;;;;;;;;;;;;;;;;;;;;;;;;;;;;;;;"1953";"2014-10-11 15:47:03.188";"34";"0";"FINISHED";"LEFT";"success";"486";"0";"2014-10-11 15:47:01.235";"3";;;;;;;;;;
"Brown20";"1994";;"Windows 8";"Rachel's Experiment (D.T.)";"1.0";"2";"1";"1";"2";"1";"1";"2014-10-11 15:44:34.934";"2014-10-11 15:58:19.067";"1";"1";"0";"12";"11";"module.GoNoGopractice.exec-2810.GoNoGo_Practice";;;;;;;;;;;;;;;;;;;;;;;;;;;;;;;;;;;;;;;;;;;;;;;;;;;;;;;;;;;;;;;;;;;;;;;"1961";"2014-10-11 15:47:06.571";"23";"1";"FINISHED";"RIGHT";"success";"421";"0";"2014-10-11 15:47:04.610";"3";;;;;;;;;;
"Brown20";"1994";;"Windows 8";"Rachel's Experiment (D.T.)";"1.0";"2";"1";"1";"2";"1";"1";"2014-10-11 15:44:34.934";"2014-10-11 15:58:19.067";"1";"1";"0";"13";"12";"module.GoNoGopractice.exec-2810.GoNoGo_Practice";;;;;;;;;;;;;;;;;;;;;;;;;;;;;;;;;;;;;;;;;;;;;;;;;;;;;;;;;;;;;;;;;;;;;;;"1959";"2014-10-11 15:47:09.831";"13";"0";"FINISHED";"LEFT";"failure";"518";"1";"2014-10-11 15:47:07.871";"2";;;;;;;;;;
"Brown20";"1994";;"Windows 8";"Rachel's Experiment (D.T.)";"1.0";"2";"1";"1";"2";"1";"1";"2014-10-11 15:44:34.934";"2014-10-11 15:58:19.067";"1";"1";"0";"14";"13";"module.GoNoGopractice.exec-2810.GoNoGo_Practice";;;;;;;;;;;;;;;;;;;;;;;;;;;;;;;;;;;;;;;;;;;;;;;;;;;;;;;;;;;;;;;;;;;;;;;"1952";"2014-10-11 15:47:13.119";"3";"1";"FINISHED";"RIGHT";"success";"647";"0";"2014-10-11 15:47:11.166";"1";;;;;;;;;;
"Brown20";"1994";;"Windows 8";"Rachel's Experiment (D.T.)";"1.0";"2";"1";"1";"2";"1";"1";"2014-10-11 15:44:34.934";"2014-10-11 15:58:19.067";"1";"1";"0";"15";"14";"module.GoNoGopractice.exec-2810.GoNoGo_Practice";;;;;;;;;;;;;;;;;;;;;;;;;;;;;;;;;;;;;;;;;;;;;;;;;;;;;;;;;;;;;;;;;;;;;;;"1959";"2014-10-11 15:47:16.393";"27";"1";"FINISHED";"NONE";"success";"0";"1";"2014-10-11 15:47:14.433";"3";;;;;;;;;;
"Brown20";"1994";;"Windows 8";"Rachel's Experiment (D.T.)";"1.0";"2";"1";"1";"2";"1";"1";"2014-10-11 15:44:34.934";"2014-10-11 15:58:19.067";"1";"1";"0";"16";"15";"module.training_block1.exec-3259.GoNoGo1";;;;;;;;;;;;;;;;;;;;;;;"1252";"2014-10-11 15:47:27.157";"ST_correctStop";"21";"0";"FINISHED";"NONE";"success";"0";"1";"2014-10-11 15:47:25.905";"3";;;;;;;;;;;;;;;;;;;;;;;;;;;;;;;;;;;;;;;;;;;;;;;;;;;;;;;;;
"Brown20";"1994";;"Windows 8";"Rachel's Experiment (D.T.)";"1.0";"2";"1";"1";"2";"1";"1";"2014-10-11 15:44:34.934";"2014-10-11 15:58:19.067";"1";"1";"0";"17";"16";"module.training_block1.exec-3259.GoNoGo1";;;;;;;;;;;;;;;;;;;;;;;"1250";"2014-10-11 15:47:29.700";"NST_correctLoc";"27";"0";"FINISHED";"LEFT";"success";"510";"0";"2014-10-11 15:47:28.449";"3";;;;;;;;;;;;;;;;;;;;;;;;;;;;;;;;;;;;;;;;;;;;;;;;;;;;;;;;;
"Brown20";"1994";;"Windows 8";"Rachel's Experiment (D.T.)";"1.0";"2";"1";"1";"2";"1";"1";"2014-10-11 15:44:34.934";"2014-10-11 15:58:19.067";"1";"1";"0";"18";"17";"module.training_block1.exec-3259.GoNoGo1";;;;;;;;;;;;;;;;;;;;;;;"1249";"2014-10-11 15:47:32.253";"ST_correctStop";"5";"0";"FINISHED";"NONE";"success";"0";"1";"2014-10-11 15:47:31.003";"1";;;;;;;;;;;;;;;;;;;;;;;;;;;;;;;;;;;;;;;;;;;;;;;;;;;;;;;;;
"Brown20";"1994";;"Windows 8";"Rachel's Experiment (D.T.)";"1.0";"2";"1";"1";"2";"1";"1";"2014-10-11 15:44:34.934";"2014-10-11 15:58:19.067";"1";"1";"0";"19";"18";"module.training_block1.exec-3259.GoNoGo1";;;;;;;;;;;;;;;;;;;;;;;"1250";"2014-10-11 15:47:34.808";"NST_correctLoc";"28";"0";"FINISHED";"LEFT";"success";"508";"0";"2014-10-11 15:47:33.558";"3";;;;;;;;;;;;;;;;;;;;;;;;;;;;;;;;;;;;;;;;;;;;;;;;;;;;;;;;;
"Brown20";"1994";;"Windows 8";"Rachel's Experiment (D.T.)";"1.0";"2";"1";"1";"2";"1";"1";"2014-10-11 15:44:34.934";"2014-10-11 15:58:19.067";"1";"1";"0";"20";"19";"module.training_block1.exec-3259.GoNoGo1";;;;;;;;;;;;;;;;;;;;;;;"1249";"2014-10-11 15:47:37.358";"ST_correctStop";"8";"1";"FINISHED";"NONE";"success";"0";"1";"2014-10-11 15:47:36.108";"1";;;;;;;;;;;;;;;;;;;;;;;;;;;;;;;;;;;;;;;;;;;;;;;;;;;;;;;;;
"Brown20";"1994";;"Windows 8";"Rachel's Experiment (D.T.)";"1.0";"2";"1";"1";"2";"1";"1";"2014-10-11 15:44:34.934";"2014-10-11 15:58:19.067";"1";"1";"0";"21";"20";"module.training_block1.exec-3259.GoNoGo1";;;;;;;;;;;;;;;;;;;;;;;"1249";"2014-10-11 15:47:39.911";"NST_correctLoc";"17";"0";"FINISHED";"LEFT";"success";"526";"0";"2014-10-11 15:47:38.661";"2";;;;;;;;;;;;;;;;;;;;;;;;;;;;;;;;;;;;;;;;;;;;;;;;;;;;;;;;;
"Brown20";"1994";;"Windows 8";"Rachel's Experiment (D.T.)";"1.0";"2";"1";"1";"2";"1";"1";"2014-10-11 15:44:34.934";"2014-10-11 15:58:19.067";"1";"1";"0";"22";"21";"module.training_block1.exec-3259.GoNoGo1";;;;;;;;;;;;;;;;;;;;;;;"1250";"2014-10-11 15:47:42.494";"NST_correctLoc";"13";"1";"FINISHED";"RIGHT";"success";"390";"0";"2014-10-11 15:47:41.244";"2";;;;;;;;;;;;;;;;;;;;;;;;;;;;;;;;;;;;;;;;;;;;;;;;;;;;;;;;;
"Brown20";"1994";;"Windows 8";"Rachel's Experiment (D.T.)";"1.0";"2";"1";"1";"2";"1";"1";"2014-10-11 15:44:34.934";"2014-10-11 15:58:19.067";"1";"1";"0";"23";"22";"module.training_block1.exec-3259.GoNoGo1";;;;;;;;;;;;;;;;;;;;;;;"1249";"2014-10-11 15:47:45.058";"ST_correctStop";"4";"0";"FINISHED";"NONE";"success";"0";"1";"2014-10-11 15:47:43.808";"1";;;;;;;;;;;;;;;;;;;;;;;;;;;;;;;;;;;;;;;;;;;;;;;;;;;;;;;;;
"Brown20";"1994";;"Windows 8";"Rachel's Experiment (D.T.)";"1.0";"2";"1";"1";"2";"1";"1";"2014-10-11 15:44:34.934";"2014-10-11 15:58:19.067";"1";"1";"0";"24";"23";"module.training_block1.exec-3259.GoNoGo1";;;;;;;;;;;;;;;;;;;;;;;"1250";"2014-10-11 15:47:47.617";"NST_correctLoc";"16";"1";"FINISHED";"RIGHT";"success";"413";"0";"2014-10-11 15:47:46.366";"2";;;;;;;;;;;;;;;;;;;;;;;;;;;;;;;;;;;;;;;;;;;;;;;;;;;;;;;;;
"Brown20";"1994";;"Windows 8";"Rachel's Experiment (D.T.)";"1.0";"2";"1";"1";"2";"1";"1";"2014-10-11 15:44:34.934";"2014-10-11 15:58:19.067";"1";"1";"0";"25";"24";"module.training_block1.exec-3259.GoNoGo1";;;;;;;;;;;;;;;;;;;;;;;"1249";"2014-10-11 15:47:50.166";"ST_failedStop";"20";"1";"FINISHED";"RIGHT";"failure";"613";"1";"2014-10-11 15:47:48.916";"3";;;;;;;;;;;;;;;;;;;;;;;;;;;;;;;;;;;;;;;;;;;;;;;;;;;;;;;;;
"Brown20";"1994";;"Windows 8";"Rachel's Experiment (D.T.)";"1.0";"2";"1";"1";"2";"1";"1";"2014-10-11 15:44:34.934";"2014-10-11 15:58:19.067";"1";"1";"0";"26";"25";"module.training_block1.exec-3259.GoNoGo1";;;;;;;;;;;;;;;;;;;;;;;"1250";"2014-10-11 15:47:52.715";"ST_correctStop";"34";"1";"FINISHED";"NONE";"success";"0";"1";"2014-10-11 15:47:51.465";"3";;;;;;;;;;;;;;;;;;;;;;;;;;;;;;;;;;;;;;;;;;;;;;;;;;;;;;;;;
"Brown20";"1994";;"Windows 8";"Rachel's Experiment (D.T.)";"1.0";"2";"1";"1";"2";"1";"1";"2014-10-11 15:44:34.934";"2014-10-11 15:58:19.067";"1";"1";"0";"27";"26";"module.training_block1.exec-3259.GoNoGo1";;;;;;;;;;;;;;;;;;;;;;;"1250";"2014-10-11 15:47:55.266";"ST_correctStop";"35";"0";"FINISHED";"NONE";"success";"0";"1";"2014-10-11 15:47:54.016";"3";;;;;;;;;;;;;;;;;;;;;;;;;;;;;;;;;;;;;;;;;;;;;;;;;;;;;;;;;
"Brown20";"1994";;"Windows 8";"Rachel's Experiment (D.T.)";"1.0";"2";"1";"1";"2";"1";"1";"2014-10-11 15:44:34.934";"2014-10-11 15:58:19.067";"1";"1";"0";"28";"27";"module.training_block1.exec-3259.GoNoGo1";;;;;;;;;;;;;;;;;;;;;;;"1250";"2014-10-11 15:47:57.815";"NST_correctLoc";"10";"1";"FINISHED";"RIGHT";"success";"489";"0";"2014-10-11 15:47:56.565";"2";;;;;;;;;;;;;;;;;;;;;;;;;;;;;;;;;;;;;;;;;;;;;;;;;;;;;;;;;
"Brown20";"1994";;"Windows 8";"Rachel's Experiment (D.T.)";"1.0";"2";"1";"1";"2";"1";"1";"2014-10-11 15:44:34.934";"2014-10-11 15:58:19.067";"1";"1";"0";"29";"28";"module.training_block1.exec-3259.GoNoGo1";;;;;;;;;;;;;;;;;;;;;;;"1250";"2014-10-11 15:48:00.367";"NST_correctLoc";"15";"0";"FINISHED";"LEFT";"success";"481";"0";"2014-10-11 15:47:59.117";"2";;;;;;;;;;;;;;;;;;;;;;;;;;;;;;;;;;;;;;;;;;;;;;;;;;;;;;;;;
"Brown20";"1994";;"Windows 8";"Rachel's Experiment (D.T.)";"1.0";"2";"1";"1";"2";"1";"1";"2014-10-11 15:44:34.934";"2014-10-11 15:58:19.067";"1";"1";"0";"30";"29";"module.training_block1.exec-3259.GoNoGo1";;;;;;;;;;;;;;;;;;;;;;;"1250";"2014-10-11 15:48:02.919";"NST_correctLoc";"24";"1";"FINISHED";"RIGHT";"success";"435";"0";"2014-10-11 15:48:01.668";"3";;;;;;;;;;;;;;;;;;;;;;;;;;;;;;;;;;;;;;;;;;;;;;;;;;;;;;;;;
"Brown20";"1994";;"Windows 8";"Rachel's Experiment (D.T.)";"1.0";"2";"1";"1";"2";"1";"1";"2014-10-11 15:44:34.934";"2014-10-11 15:58:19.067";"1";"1";"0";"31";"30";"module.training_block1.exec-3259.GoNoGo1";;;;;;;;;;;;;;;;;;;;;;;"1250";"2014-10-11 15:48:05.455";"ST_correctStop";"2";"1";"FINISHED";"NONE";"success";"0";"1";"2014-10-11 15:48:04.205";"1";;;;;;;;;;;;;;;;;;;;;;;;;;;;;;;;;;;;;;;;;;;;;;;;;;;;;;;;;
"Brown20";"1994";;"Windows 8";"Rachel's Experiment (D.T.)";"1.0";"2";"1";"1";"2";"1";"1";"2014-10-11 15:44:34.934";"2014-10-11 15:58:19.067";"1";"1";"0";"32";"31";"module.training_block1.exec-3259.GoNoGo1";;;;;;;;;;;;;;;;;;;;;;;"1250";"2014-10-11 15:48:08.007";"NST_correctLoc";"11";"0";"FINISHED";"LEFT";"success";"472";"0";"2014-10-11 15:48:06.757";"2";;;;;;;;;;;;;;;;;;;;;;;;;;;;;;;;;;;;;;;;;;;;;;;;;;;;;;;;;
"Brown20";"1994";;"Windows 8";"Rachel's Experiment (D.T.)";"1.0";"2";"1";"1";"2";"1";"1";"2014-10-11 15:44:34.934";"2014-10-11 15:58:19.067";"1";"1";"0";"33";"32";"module.training_block1.exec-3259.GoNoGo1";;;;;;;;;;;;;;;;;;;;;;;"1249";"2014-10-11 15:48:10.561";"NST_correctLoc";"19";"1";"FINISHED";"RIGHT";"success";"448";"0";"2014-10-11 15:48:09.310";"3";;;;;;;;;;;;;;;;;;;;;;;;;;;;;;;;;;;;;;;;;;;;;;;;;;;;;;;;;
"Brown20";"1994";;"Windows 8";"Rachel's Experiment (D.T.)";"1.0";"2";"1";"1";"2";"1";"1";"2014-10-11 15:44:34.934";"2014-10-11 15:58:19.067";"1";"1";"0";"34";"33";"module.training_block1.exec-3259.GoNoGo1";;;;;;;;;;;;;;;;;;;;;;;"1250";"2014-10-11 15:48:13.140";"ST_correctStop";"7";"0";"FINISHED";"NONE";"success";"0";"1";"2014-10-11 15:48:11.889";"1";;;;;;;;;;;;;;;;;;;;;;;;;;;;;;;;;;;;;;;;;;;;;;;;;;;;;;;;;
"Brown20";"1994";;"Windows 8";"Rachel's Experiment (D.T.)";"1.0";"2";"1";"1";"2";"1";"1";"2014-10-11 15:44:34.934";"2014-10-11 15:58:19.067";"1";"1";"0";"35";"34";"module.training_block1.exec-3259.GoNoGo1";;;;;;;;;;;;;;;;;;;;;;;"1250";"2014-10-11 15:48:15.693";"ST_failedStop";"32";"0";"FINISHED";"LEFT";"failure";"421";"1";"2014-10-11 15:48:14.441";"3";;;;;;;;;;;;;;;;;;;;;;;;;;;;;;;;;;;;;;;;;;;;;;;;;;;;;;;;;
"Brown20";"1994";;"Windows 8";"Rachel's Experiment (D.T.)";"1.0";"2";"1";"1";"2";"1";"1";"2014-10-11 15:44:34.934";"2014-10-11 15:58:19.067";"1";"1";"0";"36";"35";"module.training_block1.exec-3259.GoNoGo1";;;;;;;;;;;;;;;;;;;;;;;"1250";"2014-10-11 15:48:18.241";"ST_correctStop";"1";"0";"FINISHED";"NONE";"success";"0";"1";"2014-10-11 15:48:16.991";"1";;;;;;;;;;;;;;;;;;;;;;;;;;;;;;;;;;;;;;;;;;;;;;;;;;;;;;;;;
"Brown20";"1994";;"Windows 8";"Rachel's Experiment (D.T.)";"1.0";"2";"1";"1";"2";"1";"1";"2014-10-11 15:44:34.934";"2014-10-11 15:58:19.067";"1";"1";"0";"37";"36";"module.training_block1.exec-3259.GoNoGo1";;;;;;;;;;;;;;;;;;;;;;;"1249";"2014-10-11 15:48:20.797";"NST_correctLoc";"31";"1";"FINISHED";"RIGHT";"success";"361";"0";"2014-10-11 15:48:19.547";"3";;;;;;;;;;;;;;;;;;;;;;;;;;;;;;;;;;;;;;;;;;;;;;;;;;;;;;;;;
"Brown20";"1994";;"Windows 8";"Rachel's Experiment (D.T.)";"1.0";"2";"1";"1";"2";"1";"1";"2014-10-11 15:44:34.934";"2014-10-11 15:58:19.067";"1";"1";"0";"38";"37";"module.training_block1.exec-3259.GoNoGo1";;;;;;;;;;;;;;;;;;;;;;;"1250";"2014-10-11 15:48:23.352";"ST_correctStop";"18";"0";"FINISHED";"NONE";"success";"0";"1";"2014-10-11 15:48:22.102";"3";;;;;;;;;;;;;;;;;;;;;;;;;;;;;;;;;;;;;;;;;;;;;;;;;;;;;;;;;
"Brown20";"1994";;"Windows 8";"Rachel's Experiment (D.T.)";"1.0";"2";"1";"1";"2";"1";"1";"2014-10-11 15:44:34.934";"2014-10-11 15:58:19.067";"1";"1";"0";"39";"38";"module.training_block1.exec-3259.GoNoGo1";;;;;;;;;;;;;;;;;;;;;;;"1250";"2014-10-11 15:48:25.894";"NST_correctLoc";"12";"1";"FINISHED";"RIGHT";"success";"417";"0";"2014-10-11 15:48:24.644";"2";;;;;;;;;;;;;;;;;;;;;;;;;;;;;;;;;;;;;;;;;;;;;;;;;;;;;;;;;
"Brown20";"1994";;"Windows 8";"Rachel's Experiment (D.T.)";"1.0";"2";"1";"1";"2";"1";"1";"2014-10-11 15:44:34.934";"2014-10-11 15:58:19.067";"1";"1";"0";"40";"39";"module.training_block1.exec-3259.GoNoGo1";;;;;;;;;;;;;;;;;;;;;;;"1249";"2014-10-11 15:48:28.435";"ST_correctStop";"23";"0";"FINISHED";"NONE";"success";"0";"1";"2014-10-11 15:48:27.184";"3";;;;;;;;;;;;;;;;;;;;;;;;;;;;;;;;;;;;;;;;;;;;;;;;;;;;;;;;;
"Brown20";"1994";;"Windows 8";"Rachel's Experiment (D.T.)";"1.0";"2";"1";"1";"2";"1";"1";"2014-10-11 15:44:34.934";"2014-10-11 15:58:19.067";"1";"1";"0";"41";"40";"module.training_block1.exec-3259.GoNoGo1";;;;;;;;;;;;;;;;;;;;;;;"1250";"2014-10-11 15:48:30.988";"NST_correctLoc";"9";"0";"FINISHED";"LEFT";"success";"447";"0";"2014-10-11 15:48:29.737";"2";;;;;;;;;;;;;;;;;;;;;;;;;;;;;;;;;;;;;;;;;;;;;;;;;;;;;;;;;
"Brown20";"1994";;"Windows 8";"Rachel's Experiment (D.T.)";"1.0";"2";"1";"1";"2";"1";"1";"2014-10-11 15:44:34.934";"2014-10-11 15:58:19.067";"1";"1";"0";"42";"41";"module.training_block1.exec-3259.GoNoGo1";;;;;;;;;;;;;;;;;;;;;;;"1250";"2014-10-11 15:48:33.543";"NST_correctLoc";"26";"1";"FINISHED";"RIGHT";"success";"446";"0";"2014-10-11 15:48:32.292";"3";;;;;;;;;;;;;;;;;;;;;;;;;;;;;;;;;;;;;;;;;;;;;;;;;;;;;;;;;
"Brown20";"1994";;"Windows 8";"Rachel's Experiment (D.T.)";"1.0";"2";"1";"1";"2";"1";"1";"2014-10-11 15:44:34.934";"2014-10-11 15:58:19.067";"1";"1";"0";"43";"42";"module.training_block1.exec-3259.GoNoGo1";;;;;;;;;;;;;;;;;;;;;;;"1250";"2014-10-11 15:48:36.091";"NST_correctLoc";"14";"0";"FINISHED";"LEFT";"success";"604";"0";"2014-10-11 15:48:34.841";"2";;;;;;;;;;;;;;;;;;;;;;;;;;;;;;;;;;;;;;;;;;;;;;;;;;;;;;;;;
"Brown20";"1994";;"Windows 8";"Rachel's Experiment (D.T.)";"1.0";"2";"1";"1";"2";"1";"1";"2014-10-11 15:44:34.934";"2014-10-11 15:58:19.067";"1";"1";"0";"44";"43";"module.training_block1.exec-3259.GoNoGo1";;;;;;;;;;;;;;;;;;;;;;;"1249";"2014-10-11 15:48:38.632";"ST_correctStop";"3";"0";"FINISHED";"NONE";"success";"0";"1";"2014-10-11 15:48:37.381";"1";;;;;;;;;;;;;;;;;;;;;;;;;;;;;;;;;;;;;;;;;;;;;;;;;;;;;;;;;
"Brown20";"1994";;"Windows 8";"Rachel's Experiment (D.T.)";"1.0";"2";"1";"1";"2";"1";"1";"2014-10-11 15:44:34.934";"2014-10-11 15:58:19.067";"1";"1";"0";"45";"44";"module.training_block1.exec-3259.GoNoGo1";;;;;;;;;;;;;;;;;;;;;;;"1250";"2014-10-11 15:48:41.184";"NST_correctLoc";"25";"0";"FINISHED";"LEFT";"success";"599";"0";"2014-10-11 15:48:39.934";"3";;;;;;;;;;;;;;;;;;;;;;;;;;;;;;;;;;;;;;;;;;;;;;;;;;;;;;;;;
"Brown20";"1994";;"Windows 8";"Rachel's Experiment (D.T.)";"1.0";"2";"1";"1";"2";"1";"1";"2014-10-11 15:44:34.934";"2014-10-11 15:58:19.067";"1";"1";"0";"46";"45";"module.training_block1.exec-3259.GoNoGo1";;;;;;;;;;;;;;;;;;;;;;;"1250";"2014-10-11 15:48:43.762";"ST_correctStop";"22";"1";"FINISHED";"NONE";"success";"0";"1";"2014-10-11 15:48:42.512";"3";;;;;;;;;;;;;;;;;;;;;;;;;;;;;;;;;;;;;;;;;;;;;;;;;;;;;;;;;
"Brown20";"1994";;"Windows 8";"Rachel's Experiment (D.T.)";"1.0";"2";"1";"1";"2";"1";"1";"2014-10-11 15:44:34.934";"2014-10-11 15:58:19.067";"1";"1";"0";"47";"46";"module.training_block1.exec-3259.GoNoGo1";;;;;;;;;;;;;;;;;;;;;;;"1249";"2014-10-11 15:48:46.316";"ST_correctStop";"6";"1";"FINISHED";"NONE";"success";"0";"1";"2014-10-11 15:48:45.066";"1";;;;;;;;;;;;;;;;;;;;;;;;;;;;;;;;;;;;;;;;;;;;;;;;;;;;;;;;;
"Brown20";"1994";;"Windows 8";"Rachel's Experiment (D.T.)";"1.0";"2";"1";"1";"2";"1";"1";"2014-10-11 15:44:34.934";"2014-10-11 15:58:19.067";"1";"1";"0";"48";"47";"module.training_block1.exec-3259.GoNoGo1";;;;;;;;;;;;;;;;;;;;;;;"1249";"2014-10-11 15:48:48.866";"ST_correctStop";"0";"0";"FINISHED";"NONE";"success";"0";"1";"2014-10-11 15:48:47.616";"1";;;;;;;;;;;;;;;;;;;;;;;;;;;;;;;;;;;;;;;;;;;;;;;;;;;;;;;;;
"Brown20";"1994";;"Windows 8";"Rachel's Experiment (D.T.)";"1.0";"2";"1";"1";"2";"1";"1";"2014-10-11 15:44:34.934";"2014-10-11 15:58:19.067";"1";"1";"0";"49";"48";"module.training_block1.exec-3259.GoNoGo1";;;;;;;;;;;;;;;;;;;;;;;"1249";"2014-10-11 15:48:51.417";"NST_correctLoc";"30";"1";"FINISHED";"RIGHT";"success";"849";"0";"2014-10-11 15:48:50.167";"3";;;;;;;;;;;;;;;;;;;;;;;;;;;;;;;;;;;;;;;;;;;;;;;;;;;;;;;;;
"Brown20";"1994";;"Windows 8";"Rachel's Experiment (D.T.)";"1.0";"2";"1";"1";"2";"1";"1";"2014-10-11 15:44:34.934";"2014-10-11 15:58:19.067";"1";"1";"0";"50";"49";"module.training_block1.exec-3259.GoNoGo1";;;;;;;;;;;;;;;;;;;;;;;"1249";"2014-10-11 15:48:53.967";"NST_correctLoc";"33";"0";"FINISHED";"LEFT";"success";"527";"0";"2014-10-11 15:48:52.717";"3";;;;;;;;;;;;;;;;;;;;;;;;;;;;;;;;;;;;;;;;;;;;;;;;;;;;;;;;;
"Brown20";"1994";;"Windows 8";"Rachel's Experiment (D.T.)";"1.0";"2";"1";"1";"2";"1";"1";"2014-10-11 15:44:34.934";"2014-10-11 15:58:19.067";"1";"1";"0";"51";"50";"module.training_block1.exec-3259.GoNoGo1";;;;;;;;;;;;;;;;;;;;;;;"1250";"2014-10-11 15:48:56.531";"ST_correctStop";"29";"0";"FINISHED";"NONE";"success";"0";"1";"2014-10-11 15:48:55.281";"3";;;;;;;;;;;;;;;;;;;;;;;;;;;;;;;;;;;;;;;;;;;;;;;;;;;;;;;;;
"Brown20";"1994";;"Windows 8";"Rachel's Experiment (D.T.)";"1.0";"2";"1";"1";"2";"1";"1";"2014-10-11 15:44:34.934";"2014-10-11 15:58:19.067";"1";"1";"0";"52";"51";"module.training_block2.exec-8071.GoNoGo2";;;;;;;;;;;;;;;;;;;;;;;;;;;;;;;;;;;"1249";"2014-10-11 15:49:15.820";"NST_correctLoc";"9";"1";"FINISHED";"RIGHT";"success";"485";"0";"2014-10-11 15:49:14.570";"2";;;;;;;;;;;;;;;;;;;;;;;;;;;;;;;;;;;;;;;;;;;;;
"Brown20";"1994";;"Windows 8";"Rachel's Experiment (D.T.)";"1.0";"2";"1";"1";"2";"1";"1";"2014-10-11 15:44:34.934";"2014-10-11 15:58:19.067";"1";"1";"0";"53";"52";"module.training_block2.exec-8071.GoNoGo2";;;;;;;;;;;;;;;;;;;;;;;;;;;;;;;;;;;"1250";"2014-10-11 15:49:18.356";"NST_correctLoc";"15";"0";"FINISHED";"LEFT";"success";"534";"0";"2014-10-11 15:49:17.106";"2";;;;;;;;;;;;;;;;;;;;;;;;;;;;;;;;;;;;;;;;;;;;;
"Brown20";"1994";;"Windows 8";"Rachel's Experiment (D.T.)";"1.0";"2";"1";"1";"2";"1";"1";"2014-10-11 15:44:34.934";"2014-10-11 15:58:19.067";"1";"1";"0";"54";"53";"module.training_block2.exec-8071.GoNoGo2";;;;;;;;;;;;;;;;;;;;;;;;;;;;;;;;;;;"1249";"2014-10-11 15:49:20.897";"ST_correctStop";"4";"0";"FINISHED";"NONE";"success";"0";"1";"2014-10-11 15:49:19.646";"1";;;;;;;;;;;;;;;;;;;;;;;;;;;;;;;;;;;;;;;;;;;;;
"Brown20";"1994";;"Windows 8";"Rachel's Experiment (D.T.)";"1.0";"2";"1";"1";"2";"1";"1";"2014-10-11 15:44:34.934";"2014-10-11 15:58:19.067";"1";"1";"0";"55";"54";"module.training_block2.exec-8071.GoNoGo2";;;;;;;;;;;;;;;;;;;;;;;;;;;;;;;;;;;"1249";"2014-10-11 15:49:23.440";"ST_correctStop";"21";"1";"FINISHED";"NONE";"success";"0";"1";"2014-10-11 15:49:22.190";"3";;;;;;;;;;;;;;;;;;;;;;;;;;;;;;;;;;;;;;;;;;;;;
"Brown20";"1994";;"Windows 8";"Rachel's Experiment (D.T.)";"1.0";"2";"1";"1";"2";"1";"1";"2014-10-11 15:44:34.934";"2014-10-11 15:58:19.067";"1";"1";"0";"56";"55";"module.training_block2.exec-8071.GoNoGo2";;;;;;;;;;;;;;;;;;;;;;;;;;;;;;;;;;;"1249";"2014-10-11 15:49:25.973";"ST_correctStop";"24";"0";"FINISHED";"NONE";"success";"0";"1";"2014-10-11 15:49:24.723";"3";;;;;;;;;;;;;;;;;;;;;;;;;;;;;;;;;;;;;;;;;;;;;
"Brown20";"1994";;"Windows 8";"Rachel's Experiment (D.T.)";"1.0";"2";"1";"1";"2";"1";"1";"2014-10-11 15:44:34.934";"2014-10-11 15:58:19.067";"1";"1";"0";"57";"56";"module.training_block2.exec-8071.GoNoGo2";;;;;;;;;;;;;;;;;;;;;;;;;;;;;;;;;;;"1250";"2014-10-11 15:49:28.516";"NST_correctLoc";"13";"0";"FINISHED";"LEFT";"success";"448";"0";"2014-10-11 15:49:27.265";"2";;;;;;;;;;;;;;;;;;;;;;;;;;;;;;;;;;;;;;;;;;;;;
"Brown20";"1994";;"Windows 8";"Rachel's Experiment (D.T.)";"1.0";"2";"1";"1";"2";"1";"1";"2014-10-11 15:44:34.934";"2014-10-11 15:58:19.067";"1";"1";"0";"58";"57";"module.training_block2.exec-8071.GoNoGo2";;;;;;;;;;;;;;;;;;;;;;;;;;;;;;;;;;;"1249";"2014-10-11 15:49:31.045";"NST_correctLoc";"28";"1";"FINISHED";"RIGHT";"success";"626";"0";"2014-10-11 15:49:29.795";"3";;;;;;;;;;;;;;;;;;;;;;;;;;;;;;;;;;;;;;;;;;;;;
"Brown20";"1994";;"Windows 8";"Rachel's Experiment (D.T.)";"1.0";"2";"1";"1";"2";"1";"1";"2014-10-11 15:44:34.934";"2014-10-11 15:58:19.067";"1";"1";"0";"59";"58";"module.training_block2.exec-8071.GoNoGo2";;;;;;;;;;;;;;;;;;;;;;;;;;;;;;;;;;;"1250";"2014-10-11 15:49:33.587";"NST_correctLoc";"35";"1";"FINISHED";"RIGHT";"success";"421";"0";"2014-10-11 15:49:32.336";"3";;;;;;;;;;;;;;;;;;;;;;;;;;;;;;;;;;;;;;;;;;;;;
"Brown20";"1994";;"Windows 8";"Rachel's Experiment (D.T.)";"1.0";"2";"1";"1";"2";"1";"1";"2014-10-11 15:44:34.934";"2014-10-11 15:58:19.067";"1";"1";"0";"60";"59";"module.training_block2.exec-8071.GoNoGo2";;;;;;;;;;;;;;;;;;;;;;;;;;;;;;;;;;;"1249";"2014-10-11 15:49:36.131";"ST_correctStop";"5";"0";"FINISHED";"NONE";"success";"0";"1";"2014-10-11 15:49:34.881";"1";;;;;;;;;;;;;;;;;;;;;;;;;;;;;;;;;;;;;;;;;;;;;
"Brown20";"1994";;"Windows 8";"Rachel's Experiment (D.T.)";"1.0";"2";"1";"1";"2";"1";"1";"2014-10-11 15:44:34.934";"2014-10-11 15:58:19.067";"1";"1";"0";"61";"60";"module.training_block2.exec-8071.GoNoGo2";;;;;;;;;;;;;;;;;;;;;;;;;;;;;;;;;;;"1250";"2014-10-11 15:49:38.676";"NST_correctLoc";"11";"1";"FINISHED";"RIGHT";"success";"565";"0";"2014-10-11 15:49:37.426";"2";;;;;;;;;;;;;;;;;;;;;;;;;;;;;;;;;;;;;;;;;;;;;
"Brown20";"1994";;"Windows 8";"Rachel's Experiment (D.T.)";"1.0";"2";"1";"1";"2";"1";"1";"2014-10-11 15:44:34.934";"2014-10-11 15:58:19.067";"1";"1";"0";"62";"61";"module.training_block2.exec-8071.GoNoGo2";;;;;;;;;;;;;;;;;;;;;;;;;;;;;;;;;;;"1249";"2014-10-11 15:49:41.213";"ST_correctStop";"33";"1";"FINISHED";"NONE";"success";"0";"1";"2014-10-11 15:49:39.962";"3";;;;;;;;;;;;;;;;;;;;;;;;;;;;;;;;;;;;;;;;;;;;;
"Brown20";"1994";;"Windows 8";"Rachel's Experiment (D.T.)";"1.0";"2";"1";"1";"2";"1";"1";"2014-10-11 15:44:34.934";"2014-10-11 15:58:19.067";"1";"1";"0";"63";"62";"module.training_block2.exec-8071.GoNoGo2";;;;;;;;;;;;;;;;;;;;;;;;;;;;;;;;;;;"1249";"2014-10-11 15:49:43.783";"ST_correctStop";"23";"1";"FINISHED";"NONE";"success";"0";"1";"2014-10-11 15:49:42.532";"3";;;;;;;;;;;;;;;;;;;;;;;;;;;;;;;;;;;;;;;;;;;;;
"Brown20";"1994";;"Windows 8";"Rachel's Experiment (D.T.)";"1.0";"2";"1";"1";"2";"1";"1";"2014-10-11 15:44:34.934";"2014-10-11 15:58:19.067";"1";"1";"0";"64";"63";"module.training_block2.exec-8071.GoNoGo2";;;;;;;;;;;;;;;;;;;;;;;;;;;;;;;;;;;"1250";"2014-10-11 15:49:46.318";"ST_correctStop";"22";"0";"FINISHED";"NONE";"success";"0";"1";"2014-10-11 15:49:45.067";"3";;;;;;;;;;;;;;;;;;;;;;;;;;;;;;;;;;;;;;;;;;;;;
"Brown20";"1994";;"Windows 8";"Rachel's Experiment (D.T.)";"1.0";"2";"1";"1";"2";"1";"1";"2014-10-11 15:44:34.934";"2014-10-11 15:58:19.067";"1";"1";"0";"65";"64";"module.training_block2.exec-8071.GoNoGo2";;;;;;;;;;;;;;;;;;;;;;;;;;;;;;;;;;;"1249";"2014-10-11 15:49:48.857";"NST_correctLoc";"26";"1";"FINISHED";"RIGHT";"success";"434";"0";"2014-10-11 15:49:47.607";"3";;;;;;;;;;;;;;;;;;;;;;;;;;;;;;;;;;;;;;;;;;;;;
"Brown20";"1994";;"Windows 8";"Rachel's Experiment (D.T.)";"1.0";"2";"1";"1";"2";"1";"1";"2014-10-11 15:44:34.934";"2014-10-11 15:58:19.067";"1";"1";"0";"66";"65";"module.training_block2.exec-8071.GoNoGo2";;;;;;;;;;;;;;;;;;;;;;;;;;;;;;;;;;;"1250";"2014-10-11 15:49:51.400";"NST_correctLoc";"30";"1";"FINISHED";"RIGHT";"success";"625";"0";"2014-10-11 15:49:50.149";"3";;;;;;;;;;;;;;;;;;;;;;;;;;;;;;;;;;;;;;;;;;;;;
"Brown20";"1994";;"Windows 8";"Rachel's Experiment (D.T.)";"1.0";"2";"1";"1";"2";"1";"1";"2014-10-11 15:44:34.934";"2014-10-11 15:58:19.067";"1";"1";"0";"67";"66";"module.training_block2.exec-8071.GoNoGo2";;;;;;;;;;;;;;;;;;;;;;;;;;;;;;;;;;;"1250";"2014-10-11 15:49:53.941";"NST_correctLoc";"10";"1";"FINISHED";"RIGHT";"success";"433";"0";"2014-10-11 15:49:52.691";"2";;;;;;;;;;;;;;;;;;;;;;;;;;;;;;;;;;;;;;;;;;;;;
"Brown20";"1994";;"Windows 8";"Rachel's Experiment (D.T.)";"1.0";"2";"1";"1";"2";"1";"1";"2014-10-11 15:44:34.934";"2014-10-11 15:58:19.067";"1";"1";"0";"68";"67";"module.training_block2.exec-8071.GoNoGo2";;;;;;;;;;;;;;;;;;;;;;;;;;;;;;;;;;;"1250";"2014-10-11 15:49:56.477";"ST_correctStop";"25";"1";"FINISHED";"NONE";"success";"0";"1";"2014-10-11 15:49:55.227";"3";;;;;;;;;;;;;;;;;;;;;;;;;;;;;;;;;;;;;;;;;;;;;
"Brown20";"1994";;"Windows 8";"Rachel's Experiment (D.T.)";"1.0";"2";"1";"1";"2";"1";"1";"2014-10-11 15:44:34.934";"2014-10-11 15:58:19.067";"1";"1";"0";"69";"68";"module.training_block2.exec-8071.GoNoGo2";;;;;;;;;;;;;;;;;;;;;;;;;;;;;;;;;;;"1250";"2014-10-11 15:49:59.026";"NST_correctLoc";"19";"0";"FINISHED";"LEFT";"success";"416";"0";"2014-10-11 15:49:57.776";"3";;;;;;;;;;;;;;;;;;;;;;;;;;;;;;;;;;;;;;;;;;;;;
"Brown20";"1994";;"Windows 8";"Rachel's Experiment (D.T.)";"1.0";"2";"1";"1";"2";"1";"1";"2014-10-11 15:44:34.934";"2014-10-11 15:58:19.067";"1";"1";"0";"70";"69";"module.training_block2.exec-8071.GoNoGo2";;;;;;;;;;;;;;;;;;;;;;;;;;;;;;;;;;;"1250";"2014-10-11 15:50:01.565";"ST_correctStop";"29";"0";"FINISHED";"NONE";"success";"0";"1";"2014-10-11 15:50:00.315";"3";;;;;;;;;;;;;;;;;;;;;;;;;;;;;;;;;;;;;;;;;;;;;
"Brown20";"1994";;"Windows 8";"Rachel's Experiment (D.T.)";"1.0";"2";"1";"1";"2";"1";"1";"2014-10-11 15:44:34.934";"2014-10-11 15:58:19.067";"1";"1";"0";"71";"70";"module.training_block2.exec-8071.GoNoGo2";;;;;;;;;;;;;;;;;;;;;;;;;;;;;;;;;;;"1249";"2014-10-11 15:50:04.101";"NST_correctLoc";"16";"1";"FINISHED";"RIGHT";"success";"559";"0";"2014-10-11 15:50:02.850";"2";;;;;;;;;;;;;;;;;;;;;;;;;;;;;;;;;;;;;;;;;;;;;
"Brown20";"1994";;"Windows 8";"Rachel's Experiment (D.T.)";"1.0";"2";"1";"1";"2";"1";"1";"2014-10-11 15:44:34.934";"2014-10-11 15:58:19.067";"1";"1";"0";"72";"71";"module.training_block2.exec-8071.GoNoGo2";;;;;;;;;;;;;;;;;;;;;;;;;;;;;;;;;;;"1249";"2014-10-11 15:50:06.638";"NST_correctLoc";"20";"1";"FINISHED";"RIGHT";"success";"587";"0";"2014-10-11 15:50:05.388";"3";;;;;;;;;;;;;;;;;;;;;;;;;;;;;;;;;;;;;;;;;;;;;
"Brown20";"1994";;"Windows 8";"Rachel's Experiment (D.T.)";"1.0";"2";"1";"1";"2";"1";"1";"2014-10-11 15:44:34.934";"2014-10-11 15:58:19.067";"1";"1";"0";"73";"72";"module.training_block2.exec-8071.GoNoGo2";;;;;;;;;;;;;;;;;;;;;;;;;;;;;;;;;;;"1250";"2014-10-11 15:50:09.173";"ST_correctStop";"8";"0";"FINISHED";"NONE";"success";"0";"1";"2014-10-11 15:50:07.923";"1";;;;;;;;;;;;;;;;;;;;;;;;;;;;;;;;;;;;;;;;;;;;;
"Brown20";"1994";;"Windows 8";"Rachel's Experiment (D.T.)";"1.0";"2";"1";"1";"2";"1";"1";"2014-10-11 15:44:34.934";"2014-10-11 15:58:19.067";"1";"1";"0";"74";"73";"module.training_block2.exec-8071.GoNoGo2";;;;;;;;;;;;;;;;;;;;;;;;;;;;;;;;;;;"1250";"2014-10-11 15:50:11.712";"NST_correctLoc";"32";"1";"FINISHED";"RIGHT";"success";"517";"0";"2014-10-11 15:50:10.462";"3";;;;;;;;;;;;;;;;;;;;;;;;;;;;;;;;;;;;;;;;;;;;;
"Brown20";"1994";;"Windows 8";"Rachel's Experiment (D.T.)";"1.0";"2";"1";"1";"2";"1";"1";"2014-10-11 15:44:34.934";"2014-10-11 15:58:19.067";"1";"1";"0";"75";"74";"module.training_block2.exec-8071.GoNoGo2";;;;;;;;;;;;;;;;;;;;;;;;;;;;;;;;;;;"1249";"2014-10-11 15:50:14.252";"ST_correctStop";"3";"1";"FINISHED";"NONE";"success";"0";"1";"2014-10-11 15:50:13.002";"1";;;;;;;;;;;;;;;;;;;;;;;;;;;;;;;;;;;;;;;;;;;;;
"Brown20";"1994";;"Windows 8";"Rachel's Experiment (D.T.)";"1.0";"2";"1";"1";"2";"1";"1";"2014-10-11 15:44:34.934";"2014-10-11 15:58:19.067";"1";"1";"0";"76";"75";"module.training_block2.exec-8071.GoNoGo2";;;;;;;;;;;;;;;;;;;;;;;;;;;;;;;;;;;"1250";"2014-10-11 15:50:16.787";"NST_correctLoc";"18";"0";"FINISHED";"LEFT";"success";"434";"0";"2014-10-11 15:50:15.537";"3";;;;;;;;;;;;;;;;;;;;;;;;;;;;;;;;;;;;;;;;;;;;;
"Brown20";"1994";;"Windows 8";"Rachel's Experiment (D.T.)";"1.0";"2";"1";"1";"2";"1";"1";"2014-10-11 15:44:34.934";"2014-10-11 15:58:19.067";"1";"1";"0";"77";"76";"module.training_block2.exec-8071.GoNoGo2";;;;;;;;;;;;;;;;;;;;;;;;;;;;;;;;;;;"1250";"2014-10-11 15:50:19.324";"ST_correctStop";"2";"1";"FINISHED";"NONE";"success";"0";"1";"2014-10-11 15:50:18.074";"1";;;;;;;;;;;;;;;;;;;;;;;;;;;;;;;;;;;;;;;;;;;;;
"Brown20";"1994";;"Windows 8";"Rachel's Experiment (D.T.)";"1.0";"2";"1";"1";"2";"1";"1";"2014-10-11 15:44:34.934";"2014-10-11 15:58:19.067";"1";"1";"0";"78";"77";"module.training_block2.exec-8071.GoNoGo2";;;;;;;;;;;;;;;;;;;;;;;;;;;;;;;;;;;"1250";"2014-10-11 15:50:21.858";"ST_correctStop";"34";"0";"FINISHED";"NONE";"success";"0";"1";"2014-10-11 15:50:20.608";"3";;;;;;;;;;;;;;;;;;;;;;;;;;;;;;;;;;;;;;;;;;;;;
"Brown20";"1994";;"Windows 8";"Rachel's Experiment (D.T.)";"1.0";"2";"1";"1";"2";"1";"1";"2014-10-11 15:44:34.934";"2014-10-11 15:58:19.067";"1";"1";"0";"79";"78";"module.training_block2.exec-8071.GoNoGo2";;;;;;;;;;;;;;;;;;;;;;;;;;;;;;;;;;;"1250";"2014-10-11 15:50:24.394";"NST_correctLoc";"17";"0";"FINISHED";"LEFT";"success";"619";"0";"2014-10-11 15:50:23.144";"2";;;;;;;;;;;;;;;;;;;;;;;;;;;;;;;;;;;;;;;;;;;;;
"Brown20";"1994";;"Windows 8";"Rachel's Experiment (D.T.)";"1.0";"2";"1";"1";"2";"1";"1";"2014-10-11 15:44:34.934";"2014-10-11 15:58:19.067";"1";"1";"0";"80";"79";"module.training_block2.exec-8071.GoNoGo2";;;;;;;;;;;;;;;;;;;;;;;;;;;;;;;;;;;"1250";"2014-10-11 15:50:26.928";"ST_correctStop";"7";"1";"FINISHED";"NONE";"success";"0";"1";"2014-10-11 15:50:25.677";"1";;;;;;;;;;;;;;;;;;;;;;;;;;;;;;;;;;;;;;;;;;;;;
"Brown20";"1994";;"Windows 8";"Rachel's Experiment (D.T.)";"1.0";"2";"1";"1";"2";"1";"1";"2014-10-11 15:44:34.934";"2014-10-11 15:58:19.067";"1";"1";"0";"81";"80";"module.training_block2.exec-8071.GoNoGo2";;;;;;;;;;;;;;;;;;;;;;;;;;;;;;;;;;;"1250";"2014-10-11 15:50:29.465";"NST_correctLoc";"14";"0";"FINISHED";"LEFT";"success";"653";"0";"2014-10-11 15:50:28.215";"2";;;;;;;;;;;;;;;;;;;;;;;;;;;;;;;;;;;;;;;;;;;;;
"Brown20";"1994";;"Windows 8";"Rachel's Experiment (D.T.)";"1.0";"2";"1";"1";"2";"1";"1";"2014-10-11 15:44:34.934";"2014-10-11 15:58:19.067";"1";"1";"0";"82";"81";"module.training_block2.exec-8071.GoNoGo2";;;;;;;;;;;;;;;;;;;;;;;;;;;;;;;;;;;"1249";"2014-10-11 15:50:31.998";"ST_correctStop";"6";"0";"FINISHED";"NONE";"success";"0";"1";"2014-10-11 15:50:30.748";"1";;;;;;;;;;;;;;;;;;;;;;;;;;;;;;;;;;;;;;;;;;;;;
"Brown20";"1994";;"Windows 8";"Rachel's Experiment (D.T.)";"1.0";"2";"1";"1";"2";"1";"1";"2014-10-11 15:44:34.934";"2014-10-11 15:58:19.067";"1";"1";"0";"83";"82";"module.training_block2.exec-8071.GoNoGo2";;;;;;;;;;;;;;;;;;;;;;;;;;;;;;;;;;;"1250";"2014-10-11 15:50:34.538";"ST_correctStop";"0";"0";"FINISHED";"NONE";"success";"0";"1";"2014-10-11 15:50:33.288";"1";;;;;;;;;;;;;;;;;;;;;;;;;;;;;;;;;;;;;;;;;;;;;
"Brown20";"1994";;"Windows 8";"Rachel's Experiment (D.T.)";"1.0";"2";"1";"1";"2";"1";"1";"2014-10-11 15:44:34.934";"2014-10-11 15:58:19.067";"1";"1";"0";"84";"83";"module.training_block2.exec-8071.GoNoGo2";;;;;;;;;;;;;;;;;;;;;;;;;;;;;;;;;;;"1251";"2014-10-11 15:50:37.070";"NST_correctLoc";"12";"0";"FINISHED";"LEFT";"success";"662";"0";"2014-10-11 15:50:35.819";"2";;;;;;;;;;;;;;;;;;;;;;;;;;;;;;;;;;;;;;;;;;;;;
"Brown20";"1994";;"Windows 8";"Rachel's Experiment (D.T.)";"1.0";"2";"1";"1";"2";"1";"1";"2014-10-11 15:44:34.934";"2014-10-11 15:58:19.067";"1";"1";"0";"85";"84";"module.training_block2.exec-8071.GoNoGo2";;;;;;;;;;;;;;;;;;;;;;;;;;;;;;;;;;;"1250";"2014-10-11 15:50:39.597";"ST_correctStop";"1";"1";"FINISHED";"NONE";"success";"0";"1";"2014-10-11 15:50:38.347";"1";;;;;;;;;;;;;;;;;;;;;;;;;;;;;;;;;;;;;;;;;;;;;
"Brown20";"1994";;"Windows 8";"Rachel's Experiment (D.T.)";"1.0";"2";"1";"1";"2";"1";"1";"2014-10-11 15:44:34.934";"2014-10-11 15:58:19.067";"1";"1";"0";"86";"85";"module.training_block2.exec-8071.GoNoGo2";;;;;;;;;;;;;;;;;;;;;;;;;;;;;;;;;;;"1250";"2014-10-11 15:50:42.135";"NST_correctLoc";"27";"1";"FINISHED";"RIGHT";"success";"659";"0";"2014-10-11 15:50:40.884";"3";;;;;;;;;;;;;;;;;;;;;;;;;;;;;;;;;;;;;;;;;;;;;
"Brown20";"1994";;"Windows 8";"Rachel's Experiment (D.T.)";"1.0";"2";"1";"1";"2";"1";"1";"2014-10-11 15:44:34.934";"2014-10-11 15:58:19.067";"1";"1";"0";"87";"86";"module.training_block2.exec-8071.GoNoGo2";;;;;;;;;;;;;;;;;;;;;;;;;;;;;;;;;;;"1249";"2014-10-11 15:50:44.692";"ST_correctStop";"31";"1";"FINISHED";"NONE";"success";"0";"1";"2014-10-11 15:50:43.441";"3";;;;;;;;;;;;;;;;;;;;;;;;;;;;;;;;;;;;;;;;;;;;;
"Brown20";"1994";;"Windows 8";"Rachel's Experiment (D.T.)";"1.0";"2";"1";"1";"2";"1";"1";"2014-10-11 15:44:34.934";"2014-10-11 15:58:19.067";"1";"1";"0";"88";"87";"module.training_block3.exec-4889.GoNoGo3";;;;;;;;;;;;;;;;;;;;;;;;;;;;;;;;;;;;;;;;;;;;;;;"1250";"2014-10-11 15:50:55.686";"ST_correctStop";"35";"1";"FINISHED";"NONE";"success";"0";"1";"2014-10-11 15:50:54.436";"3";;;;;;;;;;;;;;;;;;;;;;;;;;;;;;;;;
"Brown20";"1994";;"Windows 8";"Rachel's Experiment (D.T.)";"1.0";"2";"1";"1";"2";"1";"1";"2014-10-11 15:44:34.934";"2014-10-11 15:58:19.067";"1";"1";"0";"89";"88";"module.training_block3.exec-4889.GoNoGo3";;;;;;;;;;;;;;;;;;;;;;;;;;;;;;;;;;;;;;;;;;;;;;;"1250";"2014-10-11 15:50:58.218";"NST_correctLoc";"30";"0";"FINISHED";"LEFT";"success";"587";"0";"2014-10-11 15:50:56.968";"3";;;;;;;;;;;;;;;;;;;;;;;;;;;;;;;;;
"Brown20";"1994";;"Windows 8";"Rachel's Experiment (D.T.)";"1.0";"2";"1";"1";"2";"1";"1";"2014-10-11 15:44:34.934";"2014-10-11 15:58:19.067";"1";"1";"0";"90";"89";"module.training_block3.exec-4889.GoNoGo3";;;;;;;;;;;;;;;;;;;;;;;;;;;;;;;;;;;;;;;;;;;;;;;"1250";"2014-10-11 15:51:00.752";"NST_correctLoc";"10";"0";"FINISHED";"LEFT";"success";"530";"0";"2014-10-11 15:50:59.502";"2";;;;;;;;;;;;;;;;;;;;;;;;;;;;;;;;;
"Brown20";"1994";;"Windows 8";"Rachel's Experiment (D.T.)";"1.0";"2";"1";"1";"2";"1";"1";"2014-10-11 15:44:34.934";"2014-10-11 15:58:19.067";"1";"1";"0";"91";"90";"module.training_block3.exec-4889.GoNoGo3";;;;;;;;;;;;;;;;;;;;;;;;;;;;;;;;;;;;;;;;;;;;;;;"1250";"2014-10-11 15:51:03.286";"ST_correctStop";"28";"0";"FINISHED";"NONE";"success";"0";"1";"2014-10-11 15:51:02.036";"3";;;;;;;;;;;;;;;;;;;;;;;;;;;;;;;;;
"Brown20";"1994";;"Windows 8";"Rachel's Experiment (D.T.)";"1.0";"2";"1";"1";"2";"1";"1";"2014-10-11 15:44:34.934";"2014-10-11 15:58:19.067";"1";"1";"0";"92";"91";"module.training_block3.exec-4889.GoNoGo3";;;;;;;;;;;;;;;;;;;;;;;;;;;;;;;;;;;;;;;;;;;;;;;"1249";"2014-10-11 15:51:05.822";"ST_correctStop";"26";"0";"FINISHED";"NONE";"success";"0";"1";"2014-10-11 15:51:04.572";"3";;;;;;;;;;;;;;;;;;;;;;;;;;;;;;;;;
"Brown20";"1994";;"Windows 8";"Rachel's Experiment (D.T.)";"1.0";"2";"1";"1";"2";"1";"1";"2014-10-11 15:44:34.934";"2014-10-11 15:58:19.067";"1";"1";"0";"93";"92";"module.training_block3.exec-4889.GoNoGo3";;;;;;;;;;;;;;;;;;;;;;;;;;;;;;;;;;;;;;;;;;;;;;;"1250";"2014-10-11 15:51:08.356";"NST_correctLoc";"16";"0";"FINISHED";"LEFT";"success";"472";"0";"2014-10-11 15:51:07.106";"2";;;;;;;;;;;;;;;;;;;;;;;;;;;;;;;;;
"Brown20";"1994";;"Windows 8";"Rachel's Experiment (D.T.)";"1.0";"2";"1";"1";"2";"1";"1";"2014-10-11 15:44:34.934";"2014-10-11 15:58:19.067";"1";"1";"0";"94";"93";"module.training_block3.exec-4889.GoNoGo3";;;;;;;;;;;;;;;;;;;;;;;;;;;;;;;;;;;;;;;;;;;;;;;"1250";"2014-10-11 15:51:10.893";"ST_correctStop";"22";"1";"FINISHED";"NONE";"success";"0";"1";"2014-10-11 15:51:09.643";"3";;;;;;;;;;;;;;;;;;;;;;;;;;;;;;;;;
"Brown20";"1994";;"Windows 8";"Rachel's Experiment (D.T.)";"1.0";"2";"1";"1";"2";"1";"1";"2014-10-11 15:44:34.934";"2014-10-11 15:58:19.067";"1";"1";"0";"95";"94";"module.training_block3.exec-4889.GoNoGo3";;;;;;;;;;;;;;;;;;;;;;;;;;;;;;;;;;;;;;;;;;;;;;;"1250";"2014-10-11 15:51:13.427";"NST_correctLoc";"19";"1";"FINISHED";"RIGHT";"success";"423";"0";"2014-10-11 15:51:12.177";"3";;;;;;;;;;;;;;;;;;;;;;;;;;;;;;;;;
"Brown20";"1994";;"Windows 8";"Rachel's Experiment (D.T.)";"1.0";"2";"1";"1";"2";"1";"1";"2014-10-11 15:44:34.934";"2014-10-11 15:58:19.067";"1";"1";"0";"96";"95";"module.training_block3.exec-4889.GoNoGo3";;;;;;;;;;;;;;;;;;;;;;;;;;;;;;;;;;;;;;;;;;;;;;;"1250";"2014-10-11 15:51:15.963";"ST_correctStop";"29";"0";"FINISHED";"NONE";"success";"0";"1";"2014-10-11 15:51:14.713";"3";;;;;;;;;;;;;;;;;;;;;;;;;;;;;;;;;
"Brown20";"1994";;"Windows 8";"Rachel's Experiment (D.T.)";"1.0";"2";"1";"1";"2";"1";"1";"2014-10-11 15:44:34.934";"2014-10-11 15:58:19.067";"1";"1";"0";"97";"96";"module.training_block3.exec-4889.GoNoGo3";;;;;;;;;;;;;;;;;;;;;;;;;;;;;;;;;;;;;;;;;;;;;;;"1250";"2014-10-11 15:51:18.496";"NST_correctLoc";"24";"1";"FINISHED";"RIGHT";"success";"513";"0";"2014-10-11 15:51:17.246";"3";;;;;;;;;;;;;;;;;;;;;;;;;;;;;;;;;
"Brown20";"1994";;"Windows 8";"Rachel's Experiment (D.T.)";"1.0";"2";"1";"1";"2";"1";"1";"2014-10-11 15:44:34.934";"2014-10-11 15:58:19.067";"1";"1";"0";"98";"97";"module.training_block3.exec-4889.GoNoGo3";;;;;;;;;;;;;;;;;;;;;;;;;;;;;;;;;;;;;;;;;;;;;;;"1250";"2014-10-11 15:51:21.032";"ST_correctStop";"27";"1";"FINISHED";"NONE";"success";"0";"1";"2014-10-11 15:51:19.782";"3";;;;;;;;;;;;;;;;;;;;;;;;;;;;;;;;;
"Brown20";"1994";;"Windows 8";"Rachel's Experiment (D.T.)";"1.0";"2";"1";"1";"2";"1";"1";"2014-10-11 15:44:34.934";"2014-10-11 15:58:19.067";"1";"1";"0";"99";"98";"module.training_block3.exec-4889.GoNoGo3";;;;;;;;;;;;;;;;;;;;;;;;;;;;;;;;;;;;;;;;;;;;;;;"1250";"2014-10-11 15:51:23.567";"NST_correctLoc";"14";"1";"FINISHED";"RIGHT";"success";"433";"0";"2014-10-11 15:51:22.316";"2";;;;;;;;;;;;;;;;;;;;;;;;;;;;;;;;;
"Brown20";"1994";;"Windows 8";"Rachel's Experiment (D.T.)";"1.0";"2";"1";"1";"2";"1";"1";"2014-10-11 15:44:34.934";"2014-10-11 15:58:19.067";"1";"1";"0";"100";"99";"module.training_block3.exec-4889.GoNoGo3";;;;;;;;;;;;;;;;;;;;;;;;;;;;;;;;;;;;;;;;;;;;;;;"1250";"2014-10-11 15:51:26.103";"ST_correctStop";"6";"0";"FINISHED";"NONE";"success";"0";"1";"2014-10-11 15:51:24.852";"1";;;;;;;;;;;;;;;;;;;;;;;;;;;;;;;;;
"Brown20";"1994";;"Windows 8";"Rachel's Experiment (D.T.)";"1.0";"2";"1";"1";"2";"1";"1";"2014-10-11 15:44:34.934";"2014-10-11 15:58:19.067";"1";"1";"0";"101";"100";"module.training_block3.exec-4889.GoNoGo3";;;;;;;;;;;;;;;;;;;;;;;;;;;;;;;;;;;;;;;;;;;;;;;"1250";"2014-10-11 15:51:28.636";"NST_correctLoc";"33";"0";"FINISHED";"LEFT";"success";"567";"0";"2014-10-11 15:51:27.386";"3";;;;;;;;;;;;;;;;;;;;;;;;;;;;;;;;;
"Brown20";"1994";;"Windows 8";"Rachel's Experiment (D.T.)";"1.0";"2";"1";"1";"2";"1";"1";"2014-10-11 15:44:34.934";"2014-10-11 15:58:19.067";"1";"1";"0";"102";"101";"module.training_block3.exec-4889.GoNoGo3";;;;;;;;;;;;;;;;;;;;;;;;;;;;;;;;;;;;;;;;;;;;;;;"1250";"2014-10-11 15:51:31.164";"ST_correctStop";"0";"1";"FINISHED";"NONE";"success";"0";"1";"2014-10-11 15:51:29.914";"1";;;;;;;;;;;;;;;;;;;;;;;;;;;;;;;;;
"Brown20";"1994";;"Windows 8";"Rachel's Experiment (D.T.)";"1.0";"2";"1";"1";"2";"1";"1";"2014-10-11 15:44:34.934";"2014-10-11 15:58:19.067";"1";"1";"0";"103";"102";"module.training_block3.exec-4889.GoNoGo3";;;;;;;;;;;;;;;;;;;;;;;;;;;;;;;;;;;;;;;;;;;;;;;"1250";"2014-10-11 15:51:33.700";"ST_correctStop";"8";"1";"FINISHED";"NONE";"success";"0";"1";"2014-10-11 15:51:32.450";"1";;;;;;;;;;;;;;;;;;;;;;;;;;;;;;;;;
"Brown20";"1994";;"Windows 8";"Rachel's Experiment (D.T.)";"1.0";"2";"1";"1";"2";"1";"1";"2014-10-11 15:44:34.934";"2014-10-11 15:58:19.067";"1";"1";"0";"104";"103";"module.training_block3.exec-4889.GoNoGo3";;;;;;;;;;;;;;;;;;;;;;;;;;;;;;;;;;;;;;;;;;;;;;;"1249";"2014-10-11 15:51:36.229";"NST_correctLoc";"20";"0";"FINISHED";"LEFT";"success";"552";"0";"2014-10-11 15:51:34.978";"3";;;;;;;;;;;;;;;;;;;;;;;;;;;;;;;;;
"Brown20";"1994";;"Windows 8";"Rachel's Experiment (D.T.)";"1.0";"2";"1";"1";"2";"1";"1";"2014-10-11 15:44:34.934";"2014-10-11 15:58:19.067";"1";"1";"0";"105";"104";"module.training_block3.exec-4889.GoNoGo3";;;;;;;;;;;;;;;;;;;;;;;;;;;;;;;;;;;;;;;;;;;;;;;"1250";"2014-10-11 15:51:38.765";"NST_correctLoc";"31";"0";"FINISHED";"LEFT";"success";"649";"0";"2014-10-11 15:51:37.514";"3";;;;;;;;;;;;;;;;;;;;;;;;;;;;;;;;;
"Brown20";"1994";;"Windows 8";"Rachel's Experiment (D.T.)";"1.0";"2";"1";"1";"2";"1";"1";"2014-10-11 15:44:34.934";"2014-10-11 15:58:19.067";"1";"1";"0";"106";"105";"module.training_block3.exec-4889.GoNoGo3";;;;;;;;;;;;;;;;;;;;;;;;;;;;;;;;;;;;;;;;;;;;;;;"1250";"2014-10-11 15:51:41.299";"ST_correctStop";"3";"0";"FINISHED";"NONE";"success";"0";"1";"2014-10-11 15:51:40.048";"1";;;;;;;;;;;;;;;;;;;;;;;;;;;;;;;;;
"Brown20";"1994";;"Windows 8";"Rachel's Experiment (D.T.)";"1.0";"2";"1";"1";"2";"1";"1";"2014-10-11 15:44:34.934";"2014-10-11 15:58:19.067";"1";"1";"0";"107";"106";"module.training_block3.exec-4889.GoNoGo3";;;;;;;;;;;;;;;;;;;;;;;;;;;;;;;;;;;;;;;;;;;;;;;"1249";"2014-10-11 15:51:43.833";"NST_correctLoc";"32";"0";"FINISHED";"LEFT";"success";"560";"0";"2014-10-11 15:51:42.583";"3";;;;;;;;;;;;;;;;;;;;;;;;;;;;;;;;;
"Brown20";"1994";;"Windows 8";"Rachel's Experiment (D.T.)";"1.0";"2";"1";"1";"2";"1";"1";"2014-10-11 15:44:34.934";"2014-10-11 15:58:19.067";"1";"1";"0";"108";"107";"module.training_block3.exec-4889.GoNoGo3";;;;;;;;;;;;;;;;;;;;;;;;;;;;;;;;;;;;;;;;;;;;;;;"1249";"2014-10-11 15:51:46.394";"NST_correctLoc";"12";"1";"FINISHED";"RIGHT";"success";"526";"0";"2014-10-11 15:51:45.144";"2";;;;;;;;;;;;;;;;;;;;;;;;;;;;;;;;;
"Brown20";"1994";;"Windows 8";"Rachel's Experiment (D.T.)";"1.0";"2";"1";"1";"2";"1";"1";"2014-10-11 15:44:34.934";"2014-10-11 15:58:19.067";"1";"1";"0";"109";"108";"module.training_block3.exec-4889.GoNoGo3";;;;;;;;;;;;;;;;;;;;;;;;;;;;;;;;;;;;;;;;;;;;;;;"1249";"2014-10-11 15:51:48.928";"ST_correctStop";"2";"0";"FINISHED";"NONE";"success";"0";"1";"2014-10-11 15:51:47.678";"1";;;;;;;;;;;;;;;;;;;;;;;;;;;;;;;;;
"Brown20";"1994";;"Windows 8";"Rachel's Experiment (D.T.)";"1.0";"2";"1";"1";"2";"1";"1";"2014-10-11 15:44:34.934";"2014-10-11 15:58:19.067";"1";"1";"0";"110";"109";"module.training_block3.exec-4889.GoNoGo3";;;;;;;;;;;;;;;;;;;;;;;;;;;;;;;;;;;;;;;;;;;;;;;"1250";"2014-10-11 15:51:51.464";"NST_correctLoc";"13";"1";"FINISHED";"RIGHT";"success";"446";"0";"2014-10-11 15:51:50.213";"2";;;;;;;;;;;;;;;;;;;;;;;;;;;;;;;;;
"Brown20";"1994";;"Windows 8";"Rachel's Experiment (D.T.)";"1.0";"2";"1";"1";"2";"1";"1";"2014-10-11 15:44:34.934";"2014-10-11 15:58:19.067";"1";"1";"0";"111";"110";"module.training_block3.exec-4889.GoNoGo3";;;;;;;;;;;;;;;;;;;;;;;;;;;;;;;;;;;;;;;;;;;;;;;"1249";"2014-10-11 15:51:53.998";"NST_correctLoc";"11";"1";"FINISHED";"RIGHT";"success";"456";"0";"2014-10-11 15:51:52.748";"2";;;;;;;;;;;;;;;;;;;;;;;;;;;;;;;;;
"Brown20";"1994";;"Windows 8";"Rachel's Experiment (D.T.)";"1.0";"2";"1";"1";"2";"1";"1";"2014-10-11 15:44:34.934";"2014-10-11 15:58:19.067";"1";"1";"0";"112";"111";"module.training_block3.exec-4889.GoNoGo3";;;;;;;;;;;;;;;;;;;;;;;;;;;;;;;;;;;;;;;;;;;;;;;"1251";"2014-10-11 15:51:56.538";"ST_correctStop";"18";"1";"FINISHED";"NONE";"success";"0";"1";"2014-10-11 15:51:55.286";"3";;;;;;;;;;;;;;;;;;;;;;;;;;;;;;;;;
"Brown20";"1994";;"Windows 8";"Rachel's Experiment (D.T.)";"1.0";"2";"1";"1";"2";"1";"1";"2014-10-11 15:44:34.934";"2014-10-11 15:58:19.067";"1";"1";"0";"113";"112";"module.training_block3.exec-4889.GoNoGo3";;;;;;;;;;;;;;;;;;;;;;;;;;;;;;;;;;;;;;;;;;;;;;;"1251";"2014-10-11 15:51:59.075";"NST_correctLoc";"17";"0";"FINISHED";"LEFT";"success";"528";"0";"2014-10-11 15:51:57.824";"2";;;;;;;;;;;;;;;;;;;;;;;;;;;;;;;;;
"Brown20";"1994";;"Windows 8";"Rachel's Experiment (D.T.)";"1.0";"2";"1";"1";"2";"1";"1";"2014-10-11 15:44:34.934";"2014-10-11 15:58:19.067";"1";"1";"0";"114";"113";"module.training_block3.exec-4889.GoNoGo3";;;;;;;;;;;;;;;;;;;;;;;;;;;;;;;;;;;;;;;;;;;;;;;"1250";"2014-10-11 15:52:01.607";"NST_correctLoc";"21";"1";"FINISHED";"RIGHT";"success";"575";"0";"2014-10-11 15:52:00.357";"3";;;;;;;;;;;;;;;;;;;;;;;;;;;;;;;;;
"Brown20";"1994";;"Windows 8";"Rachel's Experiment (D.T.)";"1.0";"2";"1";"1";"2";"1";"1";"2014-10-11 15:44:34.934";"2014-10-11 15:58:19.067";"1";"1";"0";"115";"114";"module.training_block3.exec-4889.GoNoGo3";;;;;;;;;;;;;;;;;;;;;;;;;;;;;;;;;;;;;;;;;;;;;;;"1250";"2014-10-11 15:52:04.141";"NST_correctLoc";"9";"0";"FINISHED";"LEFT";"success";"396";"0";"2014-10-11 15:52:02.891";"2";;;;;;;;;;;;;;;;;;;;;;;;;;;;;;;;;
"Brown20";"1994";;"Windows 8";"Rachel's Experiment (D.T.)";"1.0";"2";"1";"1";"2";"1";"1";"2014-10-11 15:44:34.934";"2014-10-11 15:58:19.067";"1";"1";"0";"116";"115";"module.training_block3.exec-4889.GoNoGo3";;;;;;;;;;;;;;;;;;;;;;;;;;;;;;;;;;;;;;;;;;;;;;;"1250";"2014-10-11 15:52:06.677";"ST_correctStop";"1";"0";"FINISHED";"NONE";"success";"0";"1";"2014-10-11 15:52:05.426";"1";;;;;;;;;;;;;;;;;;;;;;;;;;;;;;;;;
"Brown20";"1994";;"Windows 8";"Rachel's Experiment (D.T.)";"1.0";"2";"1";"1";"2";"1";"1";"2014-10-11 15:44:34.934";"2014-10-11 15:58:19.067";"1";"1";"0";"117";"116";"module.training_block3.exec-4889.GoNoGo3";;;;;;;;;;;;;;;;;;;;;;;;;;;;;;;;;;;;;;;;;;;;;;;"1250";"2014-10-11 15:52:09.213";"ST_correctStop";"34";"0";"FINISHED";"NONE";"success";"0";"1";"2014-10-11 15:52:07.962";"3";;;;;;;;;;;;;;;;;;;;;;;;;;;;;;;;;
"Brown20";"1994";;"Windows 8";"Rachel's Experiment (D.T.)";"1.0";"2";"1";"1";"2";"1";"1";"2014-10-11 15:44:34.934";"2014-10-11 15:58:19.067";"1";"1";"0";"118";"117";"module.training_block3.exec-4889.GoNoGo3";;;;;;;;;;;;;;;;;;;;;;;;;;;;;;;;;;;;;;;;;;;;;;;"1250";"2014-10-11 15:52:11.745";"ST_correctStop";"23";"0";"FINISHED";"NONE";"success";"0";"1";"2014-10-11 15:52:10.495";"3";;;;;;;;;;;;;;;;;;;;;;;;;;;;;;;;;
"Brown20";"1994";;"Windows 8";"Rachel's Experiment (D.T.)";"1.0";"2";"1";"1";"2";"1";"1";"2014-10-11 15:44:34.934";"2014-10-11 15:58:19.067";"1";"1";"0";"119";"118";"module.training_block3.exec-4889.GoNoGo3";;;;;;;;;;;;;;;;;;;;;;;;;;;;;;;;;;;;;;;;;;;;;;;"1250";"2014-10-11 15:52:14.273";"NST_correctLoc";"25";"1";"FINISHED";"RIGHT";"success";"418";"0";"2014-10-11 15:52:13.023";"3";;;;;;;;;;;;;;;;;;;;;;;;;;;;;;;;;
"Brown20";"1994";;"Windows 8";"Rachel's Experiment (D.T.)";"1.0";"2";"1";"1";"2";"1";"1";"2014-10-11 15:44:34.934";"2014-10-11 15:58:19.067";"1";"1";"0";"120";"119";"module.training_block3.exec-4889.GoNoGo3";;;;;;;;;;;;;;;;;;;;;;;;;;;;;;;;;;;;;;;;;;;;;;;"1249";"2014-10-11 15:52:16.808";"ST_correctStop";"4";"1";"FINISHED";"NONE";"success";"0";"1";"2014-10-11 15:52:15.557";"1";;;;;;;;;;;;;;;;;;;;;;;;;;;;;;;;;
"Brown20";"1994";;"Windows 8";"Rachel's Experiment (D.T.)";"1.0";"2";"1";"1";"2";"1";"1";"2014-10-11 15:44:34.934";"2014-10-11 15:58:19.067";"1";"1";"0";"121";"120";"module.training_block3.exec-4889.GoNoGo3";;;;;;;;;;;;;;;;;;;;;;;;;;;;;;;;;;;;;;;;;;;;;;;"1249";"2014-10-11 15:52:19.340";"ST_correctStop";"5";"1";"FINISHED";"NONE";"success";"0";"1";"2014-10-11 15:52:18.090";"1";;;;;;;;;;;;;;;;;;;;;;;;;;;;;;;;;
"Brown20";"1994";;"Windows 8";"Rachel's Experiment (D.T.)";"1.0";"2";"1";"1";"2";"1";"1";"2014-10-11 15:44:34.934";"2014-10-11 15:58:19.067";"1";"1";"0";"122";"121";"module.training_block3.exec-4889.GoNoGo3";;;;;;;;;;;;;;;;;;;;;;;;;;;;;;;;;;;;;;;;;;;;;;;"1249";"2014-10-11 15:52:21.874";"NST_correctLoc";"15";"1";"FINISHED";"RIGHT";"success";"512";"0";"2014-10-11 15:52:20.624";"2";;;;;;;;;;;;;;;;;;;;;;;;;;;;;;;;;
"Brown20";"1994";;"Windows 8";"Rachel's Experiment (D.T.)";"1.0";"2";"1";"1";"2";"1";"1";"2014-10-11 15:44:34.934";"2014-10-11 15:58:19.067";"1";"1";"0";"123";"122";"module.training_block3.exec-4889.GoNoGo3";;;;;;;;;;;;;;;;;;;;;;;;;;;;;;;;;;;;;;;;;;;;;;;"1250";"2014-10-11 15:52:24.406";"ST_correctStop";"7";"1";"FINISHED";"NONE";"success";"0";"1";"2014-10-11 15:52:23.156";"1";;;;;;;;;;;;;;;;;;;;;;;;;;;;;;;;;
"Brown20";"1994";;"Windows 8";"Rachel's Experiment (D.T.)";"1.0";"2";"1";"1";"2";"1";"1";"2014-10-11 15:44:34.934";"2014-10-11 15:58:19.067";"1";"1";"0";"124";"123";"module.training_block4.exec-3868.GoNoGo4";;;;;;;;;;;;;;;;;;;;;;;;;;;;;;;;;;;;;;;;;;;;;;;;;;;;;;;;;;;"1250";"2014-10-11 15:52:36.526";"ST_correctStop";"22";"1";"FINISHED";"NONE";"success";"0";"1";"2014-10-11 15:52:35.276";"3";;;;;;;;;;;;;;;;;;;;;
"Brown20";"1994";;"Windows 8";"Rachel's Experiment (D.T.)";"1.0";"2";"1";"1";"2";"1";"1";"2014-10-11 15:44:34.934";"2014-10-11 15:58:19.067";"1";"1";"0";"125";"124";"module.training_block4.exec-3868.GoNoGo4";;;;;;;;;;;;;;;;;;;;;;;;;;;;;;;;;;;;;;;;;;;;;;;;;;;;;;;;;;;"1249";"2014-10-11 15:52:39.051";"ST_failedStop";"6";"0";"FINISHED";"LEFT";"failure";"446";"1";"2014-10-11 15:52:37.801";"1";;;;;;;;;;;;;;;;;;;;;
"Brown20";"1994";;"Windows 8";"Rachel's Experiment (D.T.)";"1.0";"2";"1";"1";"2";"1";"1";"2014-10-11 15:44:34.934";"2014-10-11 15:58:19.067";"1";"1";"0";"126";"125";"module.training_block4.exec-3868.GoNoGo4";;;;;;;;;;;;;;;;;;;;;;;;;;;;;;;;;;;;;;;;;;;;;;;;;;;;;;;;;;;"1249";"2014-10-11 15:52:41.592";"ST_correctStop";"1";"0";"FINISHED";"NONE";"success";"0";"1";"2014-10-11 15:52:40.342";"1";;;;;;;;;;;;;;;;;;;;;
"Brown20";"1994";;"Windows 8";"Rachel's Experiment (D.T.)";"1.0";"2";"1";"1";"2";"1";"1";"2014-10-11 15:44:34.934";"2014-10-11 15:58:19.067";"1";"1";"0";"127";"126";"module.training_block4.exec-3868.GoNoGo4";;;;;;;;;;;;;;;;;;;;;;;;;;;;;;;;;;;;;;;;;;;;;;;;;;;;;;;;;;;"1250";"2014-10-11 15:52:44.120";"NST_correctLoc";"11";"0";"FINISHED";"LEFT";"success";"469";"0";"2014-10-11 15:52:42.869";"2";;;;;;;;;;;;;;;;;;;;;
"Brown20";"1994";;"Windows 8";"Rachel's Experiment (D.T.)";"1.0";"2";"1";"1";"2";"1";"1";"2014-10-11 15:44:34.934";"2014-10-11 15:58:19.067";"1";"1";"0";"128";"127";"module.training_block4.exec-3868.GoNoGo4";;;;;;;;;;;;;;;;;;;;;;;;;;;;;;;;;;;;;;;;;;;;;;;;;;;;;;;;;;;"1250";"2014-10-11 15:52:46.682";"ST_correctStop";"34";"1";"FINISHED";"NONE";"success";"0";"1";"2014-10-11 15:52:45.431";"3";;;;;;;;;;;;;;;;;;;;;
"Brown20";"1994";;"Windows 8";"Rachel's Experiment (D.T.)";"1.0";"2";"1";"1";"2";"1";"1";"2014-10-11 15:44:34.934";"2014-10-11 15:58:19.067";"1";"1";"0";"129";"128";"module.training_block4.exec-3868.GoNoGo4";;;;;;;;;;;;;;;;;;;;;;;;;;;;;;;;;;;;;;;;;;;;;;;;;;;;;;;;;;;"1250";"2014-10-11 15:52:49.215";"NST_correctLoc";"19";"0";"FINISHED";"LEFT";"success";"363";"0";"2014-10-11 15:52:47.964";"3";;;;;;;;;;;;;;;;;;;;;
"Brown20";"1994";;"Windows 8";"Rachel's Experiment (D.T.)";"1.0";"2";"1";"1";"2";"1";"1";"2014-10-11 15:44:34.934";"2014-10-11 15:58:19.067";"1";"1";"0";"130";"129";"module.training_block4.exec-3868.GoNoGo4";;;;;;;;;;;;;;;;;;;;;;;;;;;;;;;;;;;;;;;;;;;;;;;;;;;;;;;;;;;"1249";"2014-10-11 15:52:51.747";"NST_correctLoc";"16";"0";"FINISHED";"LEFT";"success";"615";"0";"2014-10-11 15:52:50.497";"2";;;;;;;;;;;;;;;;;;;;;
"Brown20";"1994";;"Windows 8";"Rachel's Experiment (D.T.)";"1.0";"2";"1";"1";"2";"1";"1";"2014-10-11 15:44:34.934";"2014-10-11 15:58:19.067";"1";"1";"0";"131";"130";"module.training_block4.exec-3868.GoNoGo4";;;;;;;;;;;;;;;;;;;;;;;;;;;;;;;;;;;;;;;;;;;;;;;;;;;;;;;;;;;"1249";"2014-10-11 15:52:54.279";"NST_correctLoc";"15";"1";"FINISHED";"RIGHT";"success";"580";"0";"2014-10-11 15:52:53.029";"2";;;;;;;;;;;;;;;;;;;;;
"Brown20";"1994";;"Windows 8";"Rachel's Experiment (D.T.)";"1.0";"2";"1";"1";"2";"1";"1";"2014-10-11 15:44:34.934";"2014-10-11 15:58:19.067";"1";"1";"0";"132";"131";"module.training_block4.exec-3868.GoNoGo4";;;;;;;;;;;;;;;;;;;;;;;;;;;;;;;;;;;;;;;;;;;;;;;;;;;;;;;;;;;"1251";"2014-10-11 15:52:56.809";"NST_correctLoc";"29";"1";"FINISHED";"RIGHT";"success";"409";"0";"2014-10-11 15:52:55.558";"3";;;;;;;;;;;;;;;;;;;;;
"Brown20";"1994";;"Windows 8";"Rachel's Experiment (D.T.)";"1.0";"2";"1";"1";"2";"1";"1";"2014-10-11 15:44:34.934";"2014-10-11 15:58:19.067";"1";"1";"0";"133";"132";"module.training_block4.exec-3868.GoNoGo4";;;;;;;;;;;;;;;;;;;;;;;;;;;;;;;;;;;;;;;;;;;;;;;;;;;;;;;;;;;"1249";"2014-10-11 15:52:59.342";"NST_correctLoc";"12";"1";"FINISHED";"RIGHT";"success";"430";"0";"2014-10-11 15:52:58.092";"2";;;;;;;;;;;;;;;;;;;;;
"Brown20";"1994";;"Windows 8";"Rachel's Experiment (D.T.)";"1.0";"2";"1";"1";"2";"1";"1";"2014-10-11 15:44:34.934";"2014-10-11 15:58:19.067";"1";"1";"0";"134";"133";"module.training_block4.exec-3868.GoNoGo4";;;;;;;;;;;;;;;;;;;;;;;;;;;;;;;;;;;;;;;;;;;;;;;;;;;;;;;;;;;"1251";"2014-10-11 15:53:01.875";"ST_correctStop";"20";"0";"FINISHED";"NONE";"success";"0";"1";"2014-10-11 15:53:00.624";"3";;;;;;;;;;;;;;;;;;;;;
"Brown20";"1994";;"Windows 8";"Rachel's Experiment (D.T.)";"1.0";"2";"1";"1";"2";"1";"1";"2014-10-11 15:44:34.934";"2014-10-11 15:58:19.067";"1";"1";"0";"135";"134";"module.training_block4.exec-3868.GoNoGo4";;;;;;;;;;;;;;;;;;;;;;;;;;;;;;;;;;;;;;;;;;;;;;;;;;;;;;;;;;;"1249";"2014-10-11 15:53:04.402";"NST_correctLoc";"25";"1";"FINISHED";"RIGHT";"success";"417";"0";"2014-10-11 15:53:03.151";"3";;;;;;;;;;;;;;;;;;;;;
"Brown20";"1994";;"Windows 8";"Rachel's Experiment (D.T.)";"1.0";"2";"1";"1";"2";"1";"1";"2014-10-11 15:44:34.934";"2014-10-11 15:58:19.067";"1";"1";"0";"136";"135";"module.training_block4.exec-3868.GoNoGo4";;;;;;;;;;;;;;;;;;;;;;;;;;;;;;;;;;;;;;;;;;;;;;;;;;;;;;;;;;;"1249";"2014-10-11 15:53:06.934";"NST_correctLoc";"35";"1";"FINISHED";"RIGHT";"success";"515";"0";"2014-10-11 15:53:05.683";"3";;;;;;;;;;;;;;;;;;;;;
"Brown20";"1994";;"Windows 8";"Rachel's Experiment (D.T.)";"1.0";"2";"1";"1";"2";"1";"1";"2014-10-11 15:44:34.934";"2014-10-11 15:58:19.067";"1";"1";"0";"137";"136";"module.training_block4.exec-3868.GoNoGo4";;;;;;;;;;;;;;;;;;;;;;;;;;;;;;;;;;;;;;;;;;;;;;;;;;;;;;;;;;;"1249";"2014-10-11 15:53:09.464";"NST_correctLoc";"14";"0";"FINISHED";"LEFT";"success";"540";"0";"2014-10-11 15:53:08.214";"2";;;;;;;;;;;;;;;;;;;;;
"Brown20";"1994";;"Windows 8";"Rachel's Experiment (D.T.)";"1.0";"2";"1";"1";"2";"1";"1";"2014-10-11 15:44:34.934";"2014-10-11 15:58:19.067";"1";"1";"0";"138";"137";"module.training_block4.exec-3868.GoNoGo4";;;;;;;;;;;;;;;;;;;;;;;;;;;;;;;;;;;;;;;;;;;;;;;;;;;;;;;;;;;"1250";"2014-10-11 15:53:11.993";"NST_correctLoc";"10";"0";"FINISHED";"LEFT";"success";"510";"0";"2014-10-11 15:53:10.743";"2";;;;;;;;;;;;;;;;;;;;;
"Brown20";"1994";;"Windows 8";"Rachel's Experiment (D.T.)";"1.0";"2";"1";"1";"2";"1";"1";"2014-10-11 15:44:34.934";"2014-10-11 15:58:19.067";"1";"1";"0";"139";"138";"module.training_block4.exec-3868.GoNoGo4";;;;;;;;;;;;;;;;;;;;;;;;;;;;;;;;;;;;;;;;;;;;;;;;;;;;;;;;;;;"1249";"2014-10-11 15:53:14.528";"ST_correctStop";"31";"1";"FINISHED";"NONE";"success";"0";"1";"2014-10-11 15:53:13.278";"3";;;;;;;;;;;;;;;;;;;;;
"Brown20";"1994";;"Windows 8";"Rachel's Experiment (D.T.)";"1.0";"2";"1";"1";"2";"1";"1";"2014-10-11 15:44:34.934";"2014-10-11 15:58:19.067";"1";"1";"0";"140";"139";"module.training_block4.exec-3868.GoNoGo4";;;;;;;;;;;;;;;;;;;;;;;;;;;;;;;;;;;;;;;;;;;;;;;;;;;;;;;;;;;"1250";"2014-10-11 15:53:17.057";"ST_correctStop";"8";"1";"FINISHED";"NONE";"success";"0";"1";"2014-10-11 15:53:15.807";"1";;;;;;;;;;;;;;;;;;;;;
"Brown20";"1994";;"Windows 8";"Rachel's Experiment (D.T.)";"1.0";"2";"1";"1";"2";"1";"1";"2014-10-11 15:44:34.934";"2014-10-11 15:58:19.067";"1";"1";"0";"141";"140";"module.training_block4.exec-3868.GoNoGo4";;;;;;;;;;;;;;;;;;;;;;;;;;;;;;;;;;;;;;;;;;;;;;;;;;;;;;;;;;;"1249";"2014-10-11 15:53:19.590";"NST_correctLoc";"30";"0";"FINISHED";"LEFT";"success";"415";"0";"2014-10-11 15:53:18.339";"3";;;;;;;;;;;;;;;;;;;;;
"Brown20";"1994";;"Windows 8";"Rachel's Experiment (D.T.)";"1.0";"2";"1";"1";"2";"1";"1";"2014-10-11 15:44:34.934";"2014-10-11 15:58:19.067";"1";"1";"0";"142";"141";"module.training_block4.exec-3868.GoNoGo4";;;;;;;;;;;;;;;;;;;;;;;;;;;;;;;;;;;;;;;;;;;;;;;;;;;;;;;;;;;"1250";"2014-10-11 15:53:22.122";"ST_correctStop";"5";"0";"FINISHED";"NONE";"success";"0";"1";"2014-10-11 15:53:20.871";"1";;;;;;;;;;;;;;;;;;;;;
"Brown20";"1994";;"Windows 8";"Rachel's Experiment (D.T.)";"1.0";"2";"1";"1";"2";"1";"1";"2014-10-11 15:44:34.934";"2014-10-11 15:58:19.067";"1";"1";"0";"143";"142";"module.training_block4.exec-3868.GoNoGo4";;;;;;;;;;;;;;;;;;;;;;;;;;;;;;;;;;;;;;;;;;;;;;;;;;;;;;;;;;;"1251";"2014-10-11 15:53:24.650";"ST_correctStop";"33";"0";"FINISHED";"NONE";"success";"0";"1";"2014-10-11 15:53:23.399";"3";;;;;;;;;;;;;;;;;;;;;
"Brown20";"1994";;"Windows 8";"Rachel's Experiment (D.T.)";"1.0";"2";"1";"1";"2";"1";"1";"2014-10-11 15:44:34.934";"2014-10-11 15:58:19.067";"1";"1";"0";"144";"143";"module.training_block4.exec-3868.GoNoGo4";;;;;;;;;;;;;;;;;;;;;;;;;;;;;;;;;;;;;;;;;;;;;;;;;;;;;;;;;;;"1250";"2014-10-11 15:53:27.172";"NST_correctLoc";"9";"0";"FINISHED";"LEFT";"success";"570";"0";"2014-10-11 15:53:25.922";"2";;;;;;;;;;;;;;;;;;;;;
"Brown20";"1994";;"Windows 8";"Rachel's Experiment (D.T.)";"1.0";"2";"1";"1";"2";"1";"1";"2014-10-11 15:44:34.934";"2014-10-11 15:58:19.067";"1";"1";"0";"145";"144";"module.training_block4.exec-3868.GoNoGo4";;;;;;;;;;;;;;;;;;;;;;;;;;;;;;;;;;;;;;;;;;;;;;;;;;;;;;;;;;;"1250";"2014-10-11 15:53:29.705";"NST_correctLoc";"28";"0";"FINISHED";"LEFT";"success";"606";"0";"2014-10-11 15:53:28.455";"3";;;;;;;;;;;;;;;;;;;;;
"Brown20";"1994";;"Windows 8";"Rachel's Experiment (D.T.)";"1.0";"2";"1";"1";"2";"1";"1";"2014-10-11 15:44:34.934";"2014-10-11 15:58:19.067";"1";"1";"0";"146";"145";"module.training_block4.exec-3868.GoNoGo4";;;;;;;;;;;;;;;;;;;;;;;;;;;;;;;;;;;;;;;;;;;;;;;;;;;;;;;;;;;"1250";"2014-10-11 15:53:32.236";"NST_correctLoc";"13";"1";"FINISHED";"RIGHT";"success";"477";"0";"2014-10-11 15:53:30.985";"2";;;;;;;;;;;;;;;;;;;;;
"Brown20";"1994";;"Windows 8";"Rachel's Experiment (D.T.)";"1.0";"2";"1";"1";"2";"1";"1";"2014-10-11 15:44:34.934";"2014-10-11 15:58:19.067";"1";"1";"0";"147";"146";"module.training_block4.exec-3868.GoNoGo4";;;;;;;;;;;;;;;;;;;;;;;;;;;;;;;;;;;;;;;;;;;;;;;;;;;;;;;;;;;"1250";"2014-10-11 15:53:34.766";"ST_correctStop";"3";"1";"FINISHED";"NONE";"success";"0";"1";"2014-10-11 15:53:33.516";"1";;;;;;;;;;;;;;;;;;;;;
"Brown20";"1994";;"Windows 8";"Rachel's Experiment (D.T.)";"1.0";"2";"1";"1";"2";"1";"1";"2014-10-11 15:44:34.934";"2014-10-11 15:58:19.067";"1";"1";"0";"148";"147";"module.training_block4.exec-3868.GoNoGo4";;;;;;;;;;;;;;;;;;;;;;;;;;;;;;;;;;;;;;;;;;;;;;;;;;;;;;;;;;;"1250";"2014-10-11 15:53:37.308";"ST_correctStop";"4";"1";"FINISHED";"NONE";"success";"0";"1";"2014-10-11 15:53:36.057";"1";;;;;;;;;;;;;;;;;;;;;
"Brown20";"1994";;"Windows 8";"Rachel's Experiment (D.T.)";"1.0";"2";"1";"1";"2";"1";"1";"2014-10-11 15:44:34.934";"2014-10-11 15:58:19.067";"1";"1";"0";"149";"148";"module.training_block4.exec-3868.GoNoGo4";;;;;;;;;;;;;;;;;;;;;;;;;;;;;;;;;;;;;;;;;;;;;;;;;;;;;;;;;;;"1249";"2014-10-11 15:53:39.831";"NST_correctLoc";"18";"1";"FINISHED";"RIGHT";"success";"414";"0";"2014-10-11 15:53:38.581";"3";;;;;;;;;;;;;;;;;;;;;
"Brown20";"1994";;"Windows 8";"Rachel's Experiment (D.T.)";"1.0";"2";"1";"1";"2";"1";"1";"2014-10-11 15:44:34.934";"2014-10-11 15:58:19.067";"1";"1";"0";"150";"149";"module.training_block4.exec-3868.GoNoGo4";;;;;;;;;;;;;;;;;;;;;;;;;;;;;;;;;;;;;;;;;;;;;;;;;;;;;;;;;;;"1250";"2014-10-11 15:53:42.363";"ST_correctStop";"7";"1";"FINISHED";"NONE";"success";"0";"1";"2014-10-11 15:53:41.111";"1";;;;;;;;;;;;;;;;;;;;;
"Brown20";"1994";;"Windows 8";"Rachel's Experiment (D.T.)";"1.0";"2";"1";"1";"2";"1";"1";"2014-10-11 15:44:34.934";"2014-10-11 15:58:19.067";"1";"1";"0";"151";"150";"module.training_block4.exec-3868.GoNoGo4";;;;;;;;;;;;;;;;;;;;;;;;;;;;;;;;;;;;;;;;;;;;;;;;;;;;;;;;;;;"1250";"2014-10-11 15:53:44.894";"NST_correctLoc";"27";"0";"FINISHED";"LEFT";"success";"530";"0";"2014-10-11 15:53:43.644";"3";;;;;;;;;;;;;;;;;;;;;
"Brown20";"1994";;"Windows 8";"Rachel's Experiment (D.T.)";"1.0";"2";"1";"1";"2";"1";"1";"2014-10-11 15:44:34.934";"2014-10-11 15:58:19.067";"1";"1";"0";"152";"151";"module.training_block4.exec-3868.GoNoGo4";;;;;;;;;;;;;;;;;;;;;;;;;;;;;;;;;;;;;;;;;;;;;;;;;;;;;;;;;;;"1250";"2014-10-11 15:53:47.449";"NST_correctLoc";"17";"1";"FINISHED";"RIGHT";"success";"456";"0";"2014-10-11 15:53:46.198";"2";;;;;;;;;;;;;;;;;;;;;
"Brown20";"1994";;"Windows 8";"Rachel's Experiment (D.T.)";"1.0";"2";"1";"1";"2";"1";"1";"2014-10-11 15:44:34.934";"2014-10-11 15:58:19.067";"1";"1";"0";"153";"152";"module.training_block4.exec-3868.GoNoGo4";;;;;;;;;;;;;;;;;;;;;;;;;;;;;;;;;;;;;;;;;;;;;;;;;;;;;;;;;;;"1250";"2014-10-11 15:53:49.980";"ST_correctStop";"2";"0";"FINISHED";"NONE";"success";"0";"1";"2014-10-11 15:53:48.730";"1";;;;;;;;;;;;;;;;;;;;;
"Brown20";"1994";;"Windows 8";"Rachel's Experiment (D.T.)";"1.0";"2";"1";"1";"2";"1";"1";"2014-10-11 15:44:34.934";"2014-10-11 15:58:19.067";"1";"1";"0";"154";"153";"module.training_block4.exec-3868.GoNoGo4";;;;;;;;;;;;;;;;;;;;;;;;;;;;;;;;;;;;;;;;;;;;;;;;;;;;;;;;;;;"1249";"2014-10-11 15:53:52.511";"NST_correctLoc";"26";"0";"FINISHED";"LEFT";"success";"470";"0";"2014-10-11 15:53:51.261";"3";;;;;;;;;;;;;;;;;;;;;
"Brown20";"1994";;"Windows 8";"Rachel's Experiment (D.T.)";"1.0";"2";"1";"1";"2";"1";"1";"2014-10-11 15:44:34.934";"2014-10-11 15:58:19.067";"1";"1";"0";"155";"154";"module.training_block4.exec-3868.GoNoGo4";;;;;;;;;;;;;;;;;;;;;;;;;;;;;;;;;;;;;;;;;;;;;;;;;;;;;;;;;;;"1249";"2014-10-11 15:53:55.042";"ST_correctStop";"21";"1";"FINISHED";"NONE";"success";"0";"1";"2014-10-11 15:53:53.791";"3";;;;;;;;;;;;;;;;;;;;;
"Brown20";"1994";;"Windows 8";"Rachel's Experiment (D.T.)";"1.0";"2";"1";"1";"2";"1";"1";"2014-10-11 15:44:34.934";"2014-10-11 15:58:19.067";"1";"1";"0";"156";"155";"module.training_block4.exec-3868.GoNoGo4";;;;;;;;;;;;;;;;;;;;;;;;;;;;;;;;;;;;;;;;;;;;;;;;;;;;;;;;;;;"1249";"2014-10-11 15:53:57.572";"ST_correctStop";"32";"1";"FINISHED";"NONE";"success";"0";"1";"2014-10-11 15:53:56.322";"3";;;;;;;;;;;;;;;;;;;;;
"Brown20";"1994";;"Windows 8";"Rachel's Experiment (D.T.)";"1.0";"2";"1";"1";"2";"1";"1";"2014-10-11 15:44:34.934";"2014-10-11 15:58:19.067";"1";"1";"0";"157";"156";"module.training_block4.exec-3868.GoNoGo4";;;;;;;;;;;;;;;;;;;;;;;;;;;;;;;;;;;;;;;;;;;;;;;;;;;;;;;;;;;"1250";"2014-10-11 15:54:00.104";"ST_correctStop";"0";"1";"FINISHED";"NONE";"success";"0";"1";"2014-10-11 15:53:58.854";"1";;;;;;;;;;;;;;;;;;;;;
"Brown20";"1994";;"Windows 8";"Rachel's Experiment (D.T.)";"1.0";"2";"1";"1";"2";"1";"1";"2014-10-11 15:44:34.934";"2014-10-11 15:58:19.067";"1";"1";"0";"158";"157";"module.training_block4.exec-3868.GoNoGo4";;;;;;;;;;;;;;;;;;;;;;;;;;;;;;;;;;;;;;;;;;;;;;;;;;;;;;;;;;;"1250";"2014-10-11 15:54:02.636";"ST_correctStop";"23";"1";"FINISHED";"NONE";"success";"0";"1";"2014-10-11 15:54:01.386";"3";;;;;;;;;;;;;;;;;;;;;
"Brown20";"1994";;"Windows 8";"Rachel's Experiment (D.T.)";"1.0";"2";"1";"1";"2";"1";"1";"2014-10-11 15:44:34.934";"2014-10-11 15:58:19.067";"1";"1";"0";"159";"158";"module.training_block4.exec-3868.GoNoGo4";;;;;;;;;;;;;;;;;;;;;;;;;;;;;;;;;;;;;;;;;;;;;;;;;;;;;;;;;;;"1249";"2014-10-11 15:54:05.167";"ST_failedStop";"24";"0";"FINISHED";"LEFT";"failure";"405";"1";"2014-10-11 15:54:03.917";"3";;;;;;;;;;;;;;;;;;;;;
"Brown20";"1994";;"Windows 8";"Rachel's Experiment (D.T.)";"1.0";"2";"1";"1";"2";"1";"1";"2014-10-11 15:44:34.934";"2014-10-11 15:58:19.067";"1";"1";"0";"160";"159";"module.devaluation_practice.exec-2203.devalPractice";;;;;;;;;;;;"13732";"2014-10-11 15:54:49.008";"0";"7";"7";"5";"3766";"4882";"2010";"2014-10-11 15:54:35.276";;;;;;;;;;;;;;;;;;;;;;;;;;;;;;;;;;;;;;;;;;;;;;;;;;;;;;;;;;;;;;;;;;;;;;
"Brown20";"1994";;"Windows 8";"Rachel's Experiment (D.T.)";"1.0";"2";"1";"1";"2";"1";"1";"2014-10-11 15:44:34.934";"2014-10-11 15:58:19.067";"1";"1";"0";"161";"160";"module.devaluation_practice.exec-2203.devalPractice";;;;;;;;;;;;"11026";"2014-10-11 15:55:00.085";"1";"4";"4";"5";"3961";"1245";"2803";"2014-10-11 15:54:49.059";;;;;;;;;;;;;;;;;;;;;;;;;;;;;;;;;;;;;;;;;;;;;;;;;;;;;;;;;;;;;;;;;;;;;;
"Brown20";"1994";;"Windows 8";"Rachel's Experiment (D.T.)";"1.0";"2";"1";"1";"2";"1";"1";"2014-10-11 15:44:34.934";"2014-10-11 15:58:19.067";"1";"1";"0";"162";"161";"module.devaluation_practice.exec-2203.devalPractice";;;;;;;;;;;;"5970";"2014-10-11 15:55:06.090";"2";"6";"5";"6";"1250";"464";"1208";"2014-10-11 15:55:00.121";;;;;;;;;;;;;;;;;;;;;;;;;;;;;;;;;;;;;;;;;;;;;;;;;;;;;;;;;;;;;;;;;;;;;;
"Brown20";"1994";;"Windows 8";"Rachel's Experiment (D.T.)";"1.0";"2";"1";"1";"2";"1";"1";"2014-10-11 15:44:34.934";"2014-10-11 15:58:19.067";"1";"1";"0";"163";"162";"module.devaluation_practice.exec-2203.devalPractice";;;;;;;;;;;;"6524";"2014-10-11 15:55:12.652";"3";"6";"6";"6";"2111";"663";"733";"2014-10-11 15:55:06.127";;;;;;;;;;;;;;;;;;;;;;;;;;;;;;;;;;;;;;;;;;;;;;;;;;;;;;;;;;;;;;;;;;;;;;
"Brown20";"1994";;"Windows 8";"Rachel's Experiment (D.T.)";"1.0";"2";"1";"1";"2";"1";"1";"2014-10-11 15:44:34.934";"2014-10-11 15:58:19.067";"1";"1";"0";"164";"163";"module.devaluation_block1.exec-1333.deval1";"13044";"2014-10-11 15:55:32.678";"4";"9";"9";"8";"4657";"2273";"2936";"2014-10-11 15:55:19.635";"1";;;;;;;;;;;;;;;;;;;;;;;;;;;;;;;;;;;;;;;;;;;;;;;;;;;;;;;;;;;;;;;;;;;;;;;;;;;;;;;;
"Brown20";"1994";;"Windows 8";"Rachel's Experiment (D.T.)";"1.0";"2";"1";"1";"2";"1";"1";"2014-10-11 15:44:34.934";"2014-10-11 15:58:19.067";"1";"1";"0";"165";"164";"module.devaluation_block1.exec-1333.deval1";"7635";"2014-10-11 15:55:40.351";"2";"7";"7";"6";"1742";"1298";"1572";"2014-10-11 15:55:32.716";"1";;;;;;;;;;;;;;;;;;;;;;;;;;;;;;;;;;;;;;;;;;;;;;;;;;;;;;;;;;;;;;;;;;;;;;;;;;;;;;;;
"Brown20";"1994";;"Windows 8";"Rachel's Experiment (D.T.)";"1.0";"2";"1";"1";"2";"1";"1";"2014-10-11 15:44:34.934";"2014-10-11 15:58:19.067";"1";"1";"0";"166";"165";"module.devaluation_block1.exec-1333.deval1";"8228";"2014-10-11 15:55:48.612";"3";"8";"8";"8";"1708";"1032";"2467";"2014-10-11 15:55:40.383";"1";;;;;;;;;;;;;;;;;;;;;;;;;;;;;;;;;;;;;;;;;;;;;;;;;;;;;;;;;;;;;;;;;;;;;;;;;;;;;;;;
"Brown20";"1994";;"Windows 8";"Rachel's Experiment (D.T.)";"1.0";"2";"1";"1";"2";"1";"1";"2014-10-11 15:44:34.934";"2014-10-11 15:58:19.067";"1";"1";"0";"167";"166";"module.devaluation_block1.exec-1333.deval1";"7006";"2014-10-11 15:55:55.646";"25";"8";"8";"8";"1196";"1712";"1067";"2014-10-11 15:55:48.640";"3";;;;;;;;;;;;;;;;;;;;;;;;;;;;;;;;;;;;;;;;;;;;;;;;;;;;;;;;;;;;;;;;;;;;;;;;;;;;;;;;
"Brown20";"1994";;"Windows 8";"Rachel's Experiment (D.T.)";"1.0";"2";"1";"1";"2";"1";"1";"2014-10-11 15:44:34.934";"2014-10-11 15:58:19.067";"1";"1";"0";"168";"167";"module.devaluation_block1.exec-1333.deval1";"6238";"2014-10-11 15:56:01.920";"24";"8";"8";"8";"1358";"971";"887";"2014-10-11 15:55:55.682";"3";;;;;;;;;;;;;;;;;;;;;;;;;;;;;;;;;;;;;;;;;;;;;;;;;;;;;;;;;;;;;;;;;;;;;;;;;;;;;;;;
"Brown20";"1994";;"Windows 8";"Rachel's Experiment (D.T.)";"1.0";"2";"1";"1";"2";"1";"1";"2014-10-11 15:44:34.934";"2014-10-11 15:58:19.067";"1";"1";"0";"169";"168";"module.devaluation_block1.exec-1333.deval1";"7790";"2014-10-11 15:56:09.743";"21";"7";"7";"7";"2267";"635";"1866";"2014-10-11 15:56:01.953";"3";;;;;;;;;;;;;;;;;;;;;;;;;;;;;;;;;;;;;;;;;;;;;;;;;;;;;;;;;;;;;;;;;;;;;;;;;;;;;;;;
"Brown20";"1994";;"Windows 8";"Rachel's Experiment (D.T.)";"1.0";"2";"1";"1";"2";"1";"1";"2014-10-11 15:44:34.934";"2014-10-11 15:58:19.067";"1";"1";"0";"170";"169";"module.devaluation_block1.exec-1333.deval1";"5428";"2014-10-11 15:56:15.209";"22";"7";"7";"7";"884";"821";"702";"2014-10-11 15:56:09.780";"3";;;;;;;;;;;;;;;;;;;;;;;;;;;;;;;;;;;;;;;;;;;;;;;;;;;;;;;;;;;;;;;;;;;;;;;;;;;;;;;;
"Brown20";"1994";;"Windows 8";"Rachel's Experiment (D.T.)";"1.0";"2";"1";"1";"2";"1";"1";"2014-10-11 15:44:34.934";"2014-10-11 15:58:19.067";"1";"1";"0";"171";"170";"module.devaluation_block1.exec-1333.deval1";"5879";"2014-10-11 15:56:21.123";"26";"8";"7";"7";"1353";"754";"750";"2014-10-11 15:56:15.244";"3";;;;;;;;;;;;;;;;;;;;;;;;;;;;;;;;;;;;;;;;;;;;;;;;;;;;;;;;;;;;;;;;;;;;;;;;;;;;;;;;
"Brown20";"1994";;"Windows 8";"Rachel's Experiment (D.T.)";"1.0";"2";"1";"1";"2";"1";"1";"2014-10-11 15:44:34.934";"2014-10-11 15:58:19.067";"1";"1";"0";"172";"171";"module.devaluation_block1.exec-1333.deval1";"5305";"2014-10-11 15:56:26.460";"14";"7";"7";"7";"856";"606";"825";"2014-10-11 15:56:21.154";"2";;;;;;;;;;;;;;;;;;;;;;;;;;;;;;;;;;;;;;;;;;;;;;;;;;;;;;;;;;;;;;;;;;;;;;;;;;;;;;;;
"Brown20";"1994";;"Windows 8";"Rachel's Experiment (D.T.)";"1.0";"2";"1";"1";"2";"1";"1";"2014-10-11 15:44:34.934";"2014-10-11 15:58:19.067";"1";"1";"0";"173";"172";"module.devaluation_block1.exec-1333.deval1";"6317";"2014-10-11 15:56:32.797";"18";"8";"8";"7";"1625";"937";"735";"2014-10-11 15:56:26.479";"3";;;;;;;;;;;;;;;;;;;;;;;;;;;;;;;;;;;;;;;;;;;;;;;;;;;;;;;;;;;;;;;;;;;;;;;;;;;;;;;;
"Brown20";"1994";;"Windows 8";"Rachel's Experiment (D.T.)";"1.0";"2";"1";"1";"2";"1";"1";"2014-10-11 15:44:34.934";"2014-10-11 15:58:19.067";"1";"1";"0";"174";"173";"module.devaluation_block1.exec-1333.deval1";"6809";"2014-10-11 15:56:39.637";"6";"8";"7";"8";"1061";"1198";"1530";"2014-10-11 15:56:32.828";"1";;;;;;;;;;;;;;;;;;;;;;;;;;;;;;;;;;;;;;;;;;;;;;;;;;;;;;;;;;;;;;;;;;;;;;;;;;;;;;;;
"Brown20";"1994";;"Windows 8";"Rachel's Experiment (D.T.)";"1.0";"2";"1";"1";"2";"1";"1";"2014-10-11 15:44:34.934";"2014-10-11 15:58:19.067";"1";"1";"0";"175";"174";"module.devaluation_block1.exec-1333.deval1";"5261";"2014-10-11 15:56:44.928";"7";"8";"7";"7";"995";"666";"581";"2014-10-11 15:56:39.667";"1";;;;;;;;;;;;;;;;;;;;;;;;;;;;;;;;;;;;;;;;;;;;;;;;;;;;;;;;;;;;;;;;;;;;;;;;;;;;;;;;
"Brown20";"1994";;"Windows 8";"Rachel's Experiment (D.T.)";"1.0";"2";"1";"1";"2";"1";"1";"2014-10-11 15:44:34.934";"2014-10-11 15:58:19.067";"1";"1";"0";"176";"175";"module.devaluation_block1.exec-1333.deval1";"5029";"2014-10-11 15:56:49.995";"17";"5";"5";"5";"1051";"329";"630";"2014-10-11 15:56:44.966";"2";;;;;;;;;;;;;;;;;;;;;;;;;;;;;;;;;;;;;;;;;;;;;;;;;;;;;;;;;;;;;;;;;;;;;;;;;;;;;;;;
"Brown20";"1994";;"Windows 8";"Rachel's Experiment (D.T.)";"1.0";"2";"1";"1";"2";"1";"1";"2014-10-11 15:44:34.934";"2014-10-11 15:58:19.067";"1";"1";"0";"177";"176";"module.devaluation_block1.exec-1333.deval1";"5758";"2014-10-11 15:56:55.792";"10";"6";"6";"7";"700";"644";"1393";"2014-10-11 15:56:50.034";"2";;;;;;;;;;;;;;;;;;;;;;;;;;;;;;;;;;;;;;;;;;;;;;;;;;;;;;;;;;;;;;;;;;;;;;;;;;;;;;;;
"Brown20";"1994";;"Windows 8";"Rachel's Experiment (D.T.)";"1.0";"2";"1";"1";"2";"1";"1";"2014-10-11 15:44:34.934";"2014-10-11 15:58:19.067";"1";"1";"0";"178";"177";"module.devaluation_block1.exec-1333.deval1";"5114";"2014-10-11 15:57:00.943";"13";"6";"6";"7";"553";"622";"913";"2014-10-11 15:56:55.829";"2";;;;;;;;;;;;;;;;;;;;;;;;;;;;;;;;;;;;;;;;;;;;;;;;;;;;;;;;;;;;;;;;;;;;;;;;;;;;;;;;
"Brown20";"1994";;"Windows 8";"Rachel's Experiment (D.T.)";"1.0";"2";"1";"1";"2";"1";"1";"2014-10-11 15:44:34.934";"2014-10-11 15:58:19.067";"1";"1";"0";"179";"178";"module.devaluation_block1.exec-1333.deval1";"6519";"2014-10-11 15:57:07.493";"0";"7";"8";"8";"1329";"741";"1402";"2014-10-11 15:57:00.973";"1";;;;;;;;;;;;;;;;;;;;;;;;;;;;;;;;;;;;;;;;;;;;;;;;;;;;;;;;;;;;;;;;;;;;;;;;;;;;;;;;
"Brown20";"1994";;"Windows 8";"Rachel's Experiment (D.T.)";"1.0";"2";"1";"1";"2";"1";"1";"2014-10-11 15:44:34.934";"2014-10-11 15:58:19.067";"1";"1";"0";"180";"179";"module.devaluation_block1.exec-1333.deval1";"6413";"2014-10-11 15:57:13.944";"8";"8";"9";"9";"976";"1023";"1393";"2014-10-11 15:57:07.530";"1";;;;;;;;;;;;;;;;;;;;;;;;;;;;;;;;;;;;;;;;;;;;;;;;;;;;;;;;;;;;;;;;;;;;;;;;;;;;;;;;
"Brown20";"1994";;"Windows 8";"Rachel's Experiment (D.T.)";"1.0";"2";"1";"1";"2";"1";"1";"2014-10-11 15:44:34.934";"2014-10-11 15:58:19.067";"1";"1";"0";"181";"180";"module.devaluation_block1.exec-1333.deval1";"7650";"2014-10-11 15:57:21.630";"1";"7";"7";"7";"2363";"799";"1470";"2014-10-11 15:57:13.980";"1";;;;;;;;;;;;;;;;;;;;;;;;;;;;;;;;;;;;;;;;;;;;;;;;;;;;;;;;;;;;;;;;;;;;;;;;;;;;;;;;
"Brown20";"1994";;"Windows 8";"Rachel's Experiment (D.T.)";"1.0";"2";"1";"1";"2";"1";"1";"2014-10-11 15:44:34.934";"2014-10-11 15:58:19.067";"1";"1";"0";"182";"181";"module.devaluation_block1.exec-1333.deval1";"5847";"2014-10-11 15:57:27.512";"9";"5";"4";"6";"856";"1296";"673";"2014-10-11 15:57:21.664";"2";;;;;;;;;;;;;;;;;;;;;;;;;;;;;;;;;;;;;;;;;;;;;;;;;;;;;;;;;;;;;;;;;;;;;;;;;;;;;;;;
"Brown20";"1994";;"Windows 8";"Rachel's Experiment (D.T.)";"1.0";"2";"1";"1";"2";"1";"1";"2014-10-11 15:44:34.934";"2014-10-11 15:58:19.067";"1";"1";"0";"183";"182";"module.devaluation_block1.exec-1333.deval1";"5856";"2014-10-11 15:57:33.401";"19";"7";"7";"7";"1035";"746";"1056";"2014-10-11 15:57:27.545";"3";;;;;;;;;;;;;;;;;;;;;;;;;;;;;;;;;;;;;;;;;;;;;;;;;;;;;;;;;;;;;;;;;;;;;;;;;;;;;;;;
"Brown20";"1994";;"Windows 8";"Rachel's Experiment (D.T.)";"1.0";"2";"1";"1";"2";"1";"1";"2014-10-11 15:44:34.934";"2014-10-11 15:58:19.067";"1";"1";"0";"184";"183";"module.devaluation_block1.exec-1333.deval1";"6495";"2014-10-11 15:57:39.928";"20";"8";"8";"8";"1339";"991";"1148";"2014-10-11 15:57:33.432";"3";;;;;;;;;;;;;;;;;;;;;;;;;;;;;;;;;;;;;;;;;;;;;;;;;;;;;;;;;;;;;;;;;;;;;;;;;;;;;;;;
"Brown20";"1994";;"Windows 8";"Rachel's Experiment (D.T.)";"1.0";"2";"1";"1";"2";"1";"1";"2014-10-11 15:44:34.934";"2014-10-11 15:58:19.067";"1";"1";"0";"185";"184";"module.devaluation_block1.exec-1333.deval1";"7398";"2014-10-11 15:57:47.360";"5";"8";"7";"7";"2295";"1249";"838";"2014-10-11 15:57:39.963";"1";;;;;;;;;;;;;;;;;;;;;;;;;;;;;;;;;;;;;;;;;;;;;;;;;;;;;;;;;;;;;;;;;;;;;;;;;;;;;;;;
"Brown20";"1994";;"Windows 8";"Rachel's Experiment (D.T.)";"1.0";"2";"1";"1";"2";"1";"1";"2014-10-11 15:44:34.934";"2014-10-11 15:58:19.067";"1";"1";"0";"186";"185";"module.devaluation_block1.exec-1333.deval1";"7346";"2014-10-11 15:57:54.745";"15";"5";"4";"4";"1371";"2008";"948";"2014-10-11 15:57:47.399";"2";;;;;;;;;;;;;;;;;;;;;;;;;;;;;;;;;;;;;;;;;;;;;;;;;;;;;;;;;;;;;;;;;;;;;;;;;;;;;;;;
"Brown20";"1994";;"Windows 8";"Rachel's Experiment (D.T.)";"1.0";"2";"1";"1";"2";"1";"1";"2014-10-11 15:44:34.934";"2014-10-11 15:58:19.067";"1";"1";"0";"187";"186";"module.devaluation_block1.exec-1333.deval1";"7579";"2014-10-11 15:58:02.361";"23";"7";"7";"8";"2341";"949";"1271";"2014-10-11 15:57:54.781";"3";;;;;;;;;;;;;;;;;;;;;;;;;;;;;;;;;;;;;;;;;;;;;;;;;;;;;;;;;;;;;;;;;;;;;;;;;;;;;;;;
"Brown20";"1994";;"Windows 8";"Rachel's Experiment (D.T.)";"1.0";"2";"1";"1";"2";"1";"1";"2014-10-11 15:44:34.934";"2014-10-11 15:58:19.067";"1";"1";"0";"188";"187";"module.devaluation_block1.exec-1333.deval1";"4750";"2014-10-11 15:58:07.148";"11";"6";"6";"6";"654";"530";"545";"2014-10-11 15:58:02.398";"2";;;;;;;;;;;;;;;;;;;;;;;;;;;;;;;;;;;;;;;;;;;;;;;;;;;;;;;;;;;;;;;;;;;;;;;;;;;;;;;;
"Brown20";"1994";;"Windows 8";"Rachel's Experiment (D.T.)";"1.0";"2";"1";"1";"2";"1";"1";"2014-10-11 15:44:34.934";"2014-10-11 15:58:19.067";"1";"1";"0";"189";"188";"module.devaluation_block1.exec-1333.deval1";"5770";"2014-10-11 15:58:12.948";"12";"6";"7";"7";"625";"812";"1315";"2014-10-11 15:58:07.178";"2";;;;;;;;;;;;;;;;;;;;;;;;;;;;;;;;;;;;;;;;;;;;;;;;;;;;;;;;;;;;;;;;;;;;;;;;;;;;;;;;
"Brown20";"1994";;"Windows 8";"Rachel's Experiment (D.T.)";"1.0";"2";"1";"1";"2";"1";"1";"2014-10-11 15:44:34.934";"2014-10-11 15:58:19.067";"1";"1";"0";"190";"189";"module.devaluation_block1.exec-1333.deval1";"4025";"2014-10-11 15:58:17.011";"16";"5";"5";"5";"398";"309";"300";"2014-10-11 15:58:12.985";"2";;;;;;;;;;;;;;;;;;;;;;;;;;;;;;;;;;;;;;;;;;;;;;;;;;;;;;;;;;;;;;;;;;;;;;;;;;;;;;;;
