"user.name";"user.yearOfBirth";"user.sex";"user.osName";"module.name";"module.version";"module.online.subject.code";"module.online.study.id";"module.online.module.nr";"module.online.group.nr";"session.id";"session.index";"session.startTime";"session.endTime";"session.completed";"session.node-7285.conditionType";"session.node-8597.DevalQorder";"trial.id";"trial.index";"trial.name";"trial.deval1.durationTime";"trial.deval1.endTime";"trial.deval1.icon";"trial.deval1.Resp_Attractive";"trial.deval1.Resp_Eat";"trial.deval1.Resp_Taste";"trial.deval1.RT_Attractive";"trial.deval1.RT_Eat";"trial.deval1.RT_Taste";"trial.deval1.startTime";"trial.deval1.stimulus type";"trial.devalPractice.durationTime";"trial.devalPractice.endTime";"trial.devalPractice.icon";"trial.devalPractice.Resp_Attractive";"trial.devalPractice.Resp_Eat";"trial.devalPractice.Resp_Taste";"trial.devalPractice.RT_Attractive";"trial.devalPractice.RT_Eat";"trial.devalPractice.RT_Taste";"trial.devalPractice.startTime";"trial.devalPractice.stimulus type";"trial.GoNoGo1.durationTime";"trial.GoNoGo1.endTime";"trial.GoNoGo1.Error Type";"trial.GoNoGo1.icon";"trial.GoNoGo1.location";"trial.GoNoGo1.outcome";"trial.GoNoGo1.response";"trial.GoNoGo1.result";"trial.GoNoGo1.RT";"trial.GoNoGo1.signal";"trial.GoNoGo1.startTime";"trial.GoNoGo1.stimulus type";"trial.GoNoGo2.durationTime";"trial.GoNoGo2.endTime";"trial.GoNoGo2.Error Type";"trial.GoNoGo2.icon";"trial.GoNoGo2.location";"trial.GoNoGo2.outcome";"trial.GoNoGo2.response";"trial.GoNoGo2.result";"trial.GoNoGo2.RT";"trial.GoNoGo2.signal";"trial.GoNoGo2.startTime";"trial.GoNoGo2.stimulus type";"trial.GoNoGo3.durationTime";"trial.GoNoGo3.endTime";"trial.GoNoGo3.Error Type";"trial.GoNoGo3.icon";"trial.GoNoGo3.location";"trial.GoNoGo3.outcome";"trial.GoNoGo3.response";"trial.GoNoGo3.result";"trial.GoNoGo3.RT";"trial.GoNoGo3.signal";"trial.GoNoGo3.startTime";"trial.GoNoGo3.stimulus type";"trial.GoNoGo4.durationTime";"trial.GoNoGo4.endTime";"trial.GoNoGo4.Error Type";"trial.GoNoGo4.icon";"trial.GoNoGo4.location";"trial.GoNoGo4.outcome";"trial.GoNoGo4.response";"trial.GoNoGo4.result";"trial.GoNoGo4.RT";"trial.GoNoGo4.signal";"trial.GoNoGo4.startTime";"trial.GoNoGo4.stimulus type";"trial.GoNoGo_Practice.durationTime";"trial.GoNoGo_Practice.endTime";"trial.GoNoGo_Practice.icon";"trial.GoNoGo_Practice.location";"trial.GoNoGo_Practice.outcome";"trial.GoNoGo_Practice.response";"trial.GoNoGo_Practice.result";"trial.GoNoGo_Practice.RT";"trial.GoNoGo_Practice.signal";"trial.GoNoGo_Practice.startTime";"trial.GoNoGo_Practice.stimulus type";"trial.GoNoGo_Tutorial.durationTime";"trial.GoNoGo_Tutorial.endTime";"trial.GoNoGo_Tutorial.icon";"trial.GoNoGo_Tutorial.location";"trial.GoNoGo_Tutorial.outcome";"trial.GoNoGo_Tutorial.response";"trial.GoNoGo_Tutorial.result";"trial.GoNoGo_Tutorial.RT";"trial.GoNoGo_Tutorial.signal";"trial.GoNoGo_Tutorial.startTime"
"c1307325";;;"Windows 7";"Rachel's Experiment (D.T.)";"1.0";"2";"1";"1";"2";"1";"1";"2014-10-16 11:24:26.055";"2014-10-16 11:37:28.412";"1";"1";"1";"1";"0";"module.GoNoGotutorial.exec-1735.GoNoGo_Tutorial";;;;;;;;;;;;;;;;;;;;;;;;;;;;;;;;;;;;;;;;;;;;;;;;;;;;;;;;;;;;;;;;;;;;;;;;;;;;;;;;;;"3997";"2014-10-16 11:25:30.202";"leftResponse";"0";"FINISHED";"LEFT";"success";"1304";"0";"2014-10-16 11:25:26.193"
"c1307325";;;"Windows 7";"Rachel's Experiment (D.T.)";"1.0";"2";"1";"1";"2";"1";"1";"2014-10-16 11:24:26.055";"2014-10-16 11:37:28.412";"1";"1";"1";"2";"1";"module.GoNoGotutorial.exec-1735.GoNoGo_Tutorial";;;;;;;;;;;;;;;;;;;;;;;;;;;;;;;;;;;;;;;;;;;;;;;;;;;;;;;;;;;;;;;;;;;;;;;;;;;;;;;;;;"4003";"2014-10-16 11:25:35.506";"rightResponse";"1";"FINISHED";"NONE";"failure";"0";"0";"2014-10-16 11:25:31.497"
"c1307325";;;"Windows 7";"Rachel's Experiment (D.T.)";"1.0";"2";"1";"1";"2";"1";"1";"2014-10-16 11:24:26.055";"2014-10-16 11:37:28.412";"1";"1";"1";"3";"2";"module.GoNoGotutorial.exec-1735.GoNoGo_Tutorial";;;;;;;;;;;;;;;;;;;;;;;;;;;;;;;;;;;;;;;;;;;;;;;;;;;;;;;;;;;;;;;;;;;;;;;;;;;;;;;;;;"4003";"2014-10-16 11:25:40.795";"signalResponse";"0";"FINISHED";"NONE";"success";"0";"1";"2014-10-16 11:25:36.786"
"c1307325";;;"Windows 7";"Rachel's Experiment (D.T.)";"1.0";"2";"1";"1";"2";"1";"1";"2014-10-16 11:24:26.055";"2014-10-16 11:37:28.412";"1";"1";"1";"4";"3";"module.GoNoGopractice.exec-4203.GoNoGo_Practice";;;;;;;;;;;;;;;;;;;;;;;;;;;;;;;;;;;;;;;;;;;;;;;;;;;;;;;;;;;;;;;;;;;;;;;"1959";"2014-10-16 11:25:48.283";"18";"0";"FINISHED";"LEFT";"success";"601";"0";"2014-10-16 11:25:46.317";"3";;;;;;;;;;
"c1307325";;;"Windows 7";"Rachel's Experiment (D.T.)";"1.0";"2";"1";"1";"2";"1";"1";"2014-10-16 11:24:26.055";"2014-10-16 11:37:28.412";"1";"1";"1";"5";"4";"module.GoNoGopractice.exec-4203.GoNoGo_Practice";;;;;;;;;;;;;;;;;;;;;;;;;;;;;;;;;;;;;;;;;;;;;;;;;;;;;;;;;;;;;;;;;;;;;;;"1958";"2014-10-16 11:25:51.528";"21";"1";"FINISHED";"RIGHT";"success";"452";"0";"2014-10-16 11:25:49.562";"3";;;;;;;;;;
"c1307325";;;"Windows 7";"Rachel's Experiment (D.T.)";"1.0";"2";"1";"1";"2";"1";"1";"2014-10-16 11:24:26.055";"2014-10-16 11:37:28.412";"1";"1";"1";"6";"5";"module.GoNoGopractice.exec-4203.GoNoGo_Practice";;;;;;;;;;;;;;;;;;;;;;;;;;;;;;;;;;;;;;;;;;;;;;;;;;;;;;;;;;;;;;;;;;;;;;;"1959";"2014-10-16 11:25:54.772";"14";"1";"FINISHED";"RIGHT";"failure";"705";"1";"2014-10-16 11:25:52.807";"2";;;;;;;;;;
"c1307325";;;"Windows 7";"Rachel's Experiment (D.T.)";"1.0";"2";"1";"1";"2";"1";"1";"2014-10-16 11:24:26.055";"2014-10-16 11:37:28.412";"1";"1";"1";"7";"6";"module.GoNoGopractice.exec-4203.GoNoGo_Practice";;;;;;;;;;;;;;;;;;;;;;;;;;;;;;;;;;;;;;;;;;;;;;;;;;;;;;;;;;;;;;;;;;;;;;;"1959";"2014-10-16 11:25:58.017";"26";"0";"FINISHED";"NONE";"failure";"0";"0";"2014-10-16 11:25:56.052";"3";;;;;;;;;;
"c1307325";;;"Windows 7";"Rachel's Experiment (D.T.)";"1.0";"2";"1";"1";"2";"1";"1";"2014-10-16 11:24:26.055";"2014-10-16 11:37:28.412";"1";"1";"1";"8";"7";"module.GoNoGopractice.exec-4203.GoNoGo_Practice";;;;;;;;;;;;;;;;;;;;;;;;;;;;;;;;;;;;;;;;;;;;;;;;;;;;;;;;;;;;;;;;;;;;;;;"1959";"2014-10-16 11:26:01.262";"2";"0";"FINISHED";"LEFT";"success";"1063";"0";"2014-10-16 11:25:59.296";"1";;;;;;;;;;
"c1307325";;;"Windows 7";"Rachel's Experiment (D.T.)";"1.0";"2";"1";"1";"2";"1";"1";"2014-10-16 11:24:26.055";"2014-10-16 11:37:28.412";"1";"1";"1";"9";"8";"module.GoNoGopractice.exec-4203.GoNoGo_Practice";;;;;;;;;;;;;;;;;;;;;;;;;;;;;;;;;;;;;;;;;;;;;;;;;;;;;;;;;;;;;;;;;;;;;;;"1960";"2014-10-16 11:26:04.507";"30";"0";"FINISHED";"NONE";"success";"0";"1";"2014-10-16 11:26:02.541";"3";;;;;;;;;;
"c1307325";;;"Windows 7";"Rachel's Experiment (D.T.)";"1.0";"2";"1";"1";"2";"1";"1";"2014-10-16 11:24:26.055";"2014-10-16 11:37:28.412";"1";"1";"1";"10";"9";"module.GoNoGopractice.exec-4203.GoNoGo_Practice";;;;;;;;;;;;;;;;;;;;;;;;;;;;;;;;;;;;;;;;;;;;;;;;;;;;;;;;;;;;;;;;;;;;;;;"1959";"2014-10-16 11:26:07.767";"6";"1";"FINISHED";"NONE";"success";"0";"1";"2014-10-16 11:26:05.802";"1";;;;;;;;;;
"c1307325";;;"Windows 7";"Rachel's Experiment (D.T.)";"1.0";"2";"1";"1";"2";"1";"1";"2014-10-16 11:24:26.055";"2014-10-16 11:37:28.412";"1";"1";"1";"11";"10";"module.GoNoGopractice.exec-4203.GoNoGo_Practice";;;;;;;;;;;;;;;;;;;;;;;;;;;;;;;;;;;;;;;;;;;;;;;;;;;;;;;;;;;;;;;;;;;;;;;"1960";"2014-10-16 11:26:11.012";"34";"0";"FINISHED";"LEFT";"success";"562";"0";"2014-10-16 11:26:09.047";"3";;;;;;;;;;
"c1307325";;;"Windows 7";"Rachel's Experiment (D.T.)";"1.0";"2";"1";"1";"2";"1";"1";"2014-10-16 11:24:26.055";"2014-10-16 11:37:28.412";"1";"1";"1";"12";"11";"module.GoNoGopractice.exec-4203.GoNoGo_Practice";;;;;;;;;;;;;;;;;;;;;;;;;;;;;;;;;;;;;;;;;;;;;;;;;;;;;;;;;;;;;;;;;;;;;;;"1959";"2014-10-16 11:26:14.257";"23";"1";"FINISHED";"RIGHT";"success";"588";"0";"2014-10-16 11:26:12.291";"3";;;;;;;;;;
"c1307325";;;"Windows 7";"Rachel's Experiment (D.T.)";"1.0";"2";"1";"1";"2";"1";"1";"2014-10-16 11:24:26.055";"2014-10-16 11:37:28.412";"1";"1";"1";"13";"12";"module.GoNoGopractice.exec-4203.GoNoGo_Practice";;;;;;;;;;;;;;;;;;;;;;;;;;;;;;;;;;;;;;;;;;;;;;;;;;;;;;;;;;;;;;;;;;;;;;;"1959";"2014-10-16 11:26:17.502";"13";"0";"FINISHED";"NONE";"success";"0";"1";"2014-10-16 11:26:15.536";"2";;;;;;;;;;
"c1307325";;;"Windows 7";"Rachel's Experiment (D.T.)";"1.0";"2";"1";"1";"2";"1";"1";"2014-10-16 11:24:26.055";"2014-10-16 11:37:28.412";"1";"1";"1";"14";"13";"module.GoNoGopractice.exec-4203.GoNoGo_Practice";;;;;;;;;;;;;;;;;;;;;;;;;;;;;;;;;;;;;;;;;;;;;;;;;;;;;;;;;;;;;;;;;;;;;;;"1960";"2014-10-16 11:26:20.747";"3";"1";"FINISHED";"RIGHT";"success";"667";"0";"2014-10-16 11:26:18.781";"1";;;;;;;;;;
"c1307325";;;"Windows 7";"Rachel's Experiment (D.T.)";"1.0";"2";"1";"1";"2";"1";"1";"2014-10-16 11:24:26.055";"2014-10-16 11:37:28.412";"1";"1";"1";"15";"14";"module.GoNoGopractice.exec-4203.GoNoGo_Practice";;;;;;;;;;;;;;;;;;;;;;;;;;;;;;;;;;;;;;;;;;;;;;;;;;;;;;;;;;;;;;;;;;;;;;;"1959";"2014-10-16 11:26:23.991";"27";"1";"FINISHED";"NONE";"success";"0";"1";"2014-10-16 11:26:22.026";"3";;;;;;;;;;
"c1307325";;;"Windows 7";"Rachel's Experiment (D.T.)";"1.0";"2";"1";"1";"2";"1";"1";"2014-10-16 11:24:26.055";"2014-10-16 11:37:28.412";"1";"1";"1";"16";"15";"module.training_block1.exec-1895.GoNoGo1";;;;;;;;;;;;;;;;;;;;;;;"1257";"2014-10-16 11:26:31.791";"NST_correctLoc";"9";"0";"FINISHED";"LEFT";"success";"494";"0";"2014-10-16 11:26:30.528";"2";;;;;;;;;;;;;;;;;;;;;;;;;;;;;;;;;;;;;;;;;;;;;;;;;;;;;;;;;
"c1307325";;;"Windows 7";"Rachel's Experiment (D.T.)";"1.0";"2";"1";"1";"2";"1";"1";"2014-10-16 11:24:26.055";"2014-10-16 11:37:28.412";"1";"1";"1";"17";"16";"module.training_block1.exec-1895.GoNoGo1";;;;;;;;;;;;;;;;;;;;;;;"1261";"2014-10-16 11:26:34.334";"NST_correctLoc";"13";"1";"FINISHED";"RIGHT";"success";"629";"0";"2014-10-16 11:26:33.071";"2";;;;;;;;;;;;;;;;;;;;;;;;;;;;;;;;;;;;;;;;;;;;;;;;;;;;;;;;;
"c1307325";;;"Windows 7";"Rachel's Experiment (D.T.)";"1.0";"2";"1";"1";"2";"1";"1";"2014-10-16 11:24:26.055";"2014-10-16 11:37:28.412";"1";"1";"1";"18";"17";"module.training_block1.exec-1895.GoNoGo1";;;;;;;;;;;;;;;;;;;;;;;"1258";"2014-10-16 11:26:36.877";"ST_correctStop";"33";"1";"FINISHED";"NONE";"success";"0";"1";"2014-10-16 11:26:35.613";"3";;;;;;;;;;;;;;;;;;;;;;;;;;;;;;;;;;;;;;;;;;;;;;;;;;;;;;;;;
"c1307325";;;"Windows 7";"Rachel's Experiment (D.T.)";"1.0";"2";"1";"1";"2";"1";"1";"2014-10-16 11:24:26.055";"2014-10-16 11:37:28.412";"1";"1";"1";"19";"18";"module.training_block1.exec-1895.GoNoGo1";;;;;;;;;;;;;;;;;;;;;;;"1261";"2014-10-16 11:26:39.420";"ST_correctStop";"6";"1";"FINISHED";"NONE";"success";"0";"1";"2014-10-16 11:26:38.156";"1";;;;;;;;;;;;;;;;;;;;;;;;;;;;;;;;;;;;;;;;;;;;;;;;;;;;;;;;;
"c1307325";;;"Windows 7";"Rachel's Experiment (D.T.)";"1.0";"2";"1";"1";"2";"1";"1";"2014-10-16 11:24:26.055";"2014-10-16 11:37:28.412";"1";"1";"1";"20";"19";"module.training_block1.exec-1895.GoNoGo1";;;;;;;;;;;;;;;;;;;;;;;"1257";"2014-10-16 11:26:41.963";"NST_correctLoc";"22";"1";"FINISHED";"RIGHT";"success";"532";"0";"2014-10-16 11:26:40.699";"3";;;;;;;;;;;;;;;;;;;;;;;;;;;;;;;;;;;;;;;;;;;;;;;;;;;;;;;;;
"c1307325";;;"Windows 7";"Rachel's Experiment (D.T.)";"1.0";"2";"1";"1";"2";"1";"1";"2014-10-16 11:24:26.055";"2014-10-16 11:37:28.412";"1";"1";"1";"21";"20";"module.training_block1.exec-1895.GoNoGo1";;;;;;;;;;;;;;;;;;;;;;;"1257";"2014-10-16 11:26:44.505";"NST_correctLoc";"10";"0";"FINISHED";"LEFT";"success";"638";"0";"2014-10-16 11:26:43.242";"2";;;;;;;;;;;;;;;;;;;;;;;;;;;;;;;;;;;;;;;;;;;;;;;;;;;;;;;;;
"c1307325";;;"Windows 7";"Rachel's Experiment (D.T.)";"1.0";"2";"1";"1";"2";"1";"1";"2014-10-16 11:24:26.055";"2014-10-16 11:37:28.412";"1";"1";"1";"22";"21";"module.training_block1.exec-1895.GoNoGo1";;;;;;;;;;;;;;;;;;;;;;;"1257";"2014-10-16 11:26:47.048";"ST_correctStop";"4";"0";"FINISHED";"NONE";"success";"0";"1";"2014-10-16 11:26:45.785";"1";;;;;;;;;;;;;;;;;;;;;;;;;;;;;;;;;;;;;;;;;;;;;;;;;;;;;;;;;
"c1307325";;;"Windows 7";"Rachel's Experiment (D.T.)";"1.0";"2";"1";"1";"2";"1";"1";"2014-10-16 11:24:26.055";"2014-10-16 11:37:28.412";"1";"1";"1";"23";"22";"module.training_block1.exec-1895.GoNoGo1";;;;;;;;;;;;;;;;;;;;;;;"1258";"2014-10-16 11:26:49.591";"NST_correctLoc";"12";"1";"FINISHED";"RIGHT";"success";"528";"0";"2014-10-16 11:26:48.327";"2";;;;;;;;;;;;;;;;;;;;;;;;;;;;;;;;;;;;;;;;;;;;;;;;;;;;;;;;;
"c1307325";;;"Windows 7";"Rachel's Experiment (D.T.)";"1.0";"2";"1";"1";"2";"1";"1";"2014-10-16 11:24:26.055";"2014-10-16 11:37:28.412";"1";"1";"1";"24";"23";"module.training_block1.exec-1895.GoNoGo1";;;;;;;;;;;;;;;;;;;;;;;"1257";"2014-10-16 11:26:52.134";"ST_correctStop";"0";"0";"FINISHED";"NONE";"success";"0";"1";"2014-10-16 11:26:50.870";"1";;;;;;;;;;;;;;;;;;;;;;;;;;;;;;;;;;;;;;;;;;;;;;;;;;;;;;;;;
"c1307325";;;"Windows 7";"Rachel's Experiment (D.T.)";"1.0";"2";"1";"1";"2";"1";"1";"2014-10-16 11:24:26.055";"2014-10-16 11:37:28.412";"1";"1";"1";"25";"24";"module.training_block1.exec-1895.GoNoGo1";;;;;;;;;;;;;;;;;;;;;;;"1257";"2014-10-16 11:26:54.677";"ST_correctStop";"35";"0";"FINISHED";"NONE";"success";"0";"1";"2014-10-16 11:26:53.413";"3";;;;;;;;;;;;;;;;;;;;;;;;;;;;;;;;;;;;;;;;;;;;;;;;;;;;;;;;;
"c1307325";;;"Windows 7";"Rachel's Experiment (D.T.)";"1.0";"2";"1";"1";"2";"1";"1";"2014-10-16 11:24:26.055";"2014-10-16 11:37:28.412";"1";"1";"1";"26";"25";"module.training_block1.exec-1895.GoNoGo1";;;;;;;;;;;;;;;;;;;;;;;"1257";"2014-10-16 11:26:57.219";"NST_correctLoc";"11";"0";"FINISHED";"LEFT";"success";"539";"0";"2014-10-16 11:26:55.956";"2";;;;;;;;;;;;;;;;;;;;;;;;;;;;;;;;;;;;;;;;;;;;;;;;;;;;;;;;;
"c1307325";;;"Windows 7";"Rachel's Experiment (D.T.)";"1.0";"2";"1";"1";"2";"1";"1";"2014-10-16 11:24:26.055";"2014-10-16 11:37:28.412";"1";"1";"1";"27";"26";"module.training_block1.exec-1895.GoNoGo1";;;;;;;;;;;;;;;;;;;;;;;"1251";"2014-10-16 11:26:59.762";"NST_correctLoc";"15";"0";"FINISHED";"LEFT";"success";"566";"0";"2014-10-16 11:26:58.499";"2";;;;;;;;;;;;;;;;;;;;;;;;;;;;;;;;;;;;;;;;;;;;;;;;;;;;;;;;;
"c1307325";;;"Windows 7";"Rachel's Experiment (D.T.)";"1.0";"2";"1";"1";"2";"1";"1";"2014-10-16 11:24:26.055";"2014-10-16 11:37:28.412";"1";"1";"1";"28";"27";"module.training_block1.exec-1895.GoNoGo1";;;;;;;;;;;;;;;;;;;;;;;"1258";"2014-10-16 11:27:02.305";"ST_correctStop";"29";"0";"FINISHED";"NONE";"success";"0";"1";"2014-10-16 11:27:01.041";"3";;;;;;;;;;;;;;;;;;;;;;;;;;;;;;;;;;;;;;;;;;;;;;;;;;;;;;;;;
"c1307325";;;"Windows 7";"Rachel's Experiment (D.T.)";"1.0";"2";"1";"1";"2";"1";"1";"2014-10-16 11:24:26.055";"2014-10-16 11:37:28.412";"1";"1";"1";"29";"28";"module.training_block1.exec-1895.GoNoGo1";;;;;;;;;;;;;;;;;;;;;;;"1258";"2014-10-16 11:27:04.848";"NST_correctLoc";"16";"1";"FINISHED";"RIGHT";"success";"631";"0";"2014-10-16 11:27:03.584";"2";;;;;;;;;;;;;;;;;;;;;;;;;;;;;;;;;;;;;;;;;;;;;;;;;;;;;;;;;
"c1307325";;;"Windows 7";"Rachel's Experiment (D.T.)";"1.0";"2";"1";"1";"2";"1";"1";"2014-10-16 11:24:26.055";"2014-10-16 11:37:28.412";"1";"1";"1";"30";"29";"module.training_block1.exec-1895.GoNoGo1";;;;;;;;;;;;;;;;;;;;;;;"1261";"2014-10-16 11:27:07.391";"NST_correctLoc";"30";"0";"FINISHED";"LEFT";"success";"684";"0";"2014-10-16 11:27:06.127";"3";;;;;;;;;;;;;;;;;;;;;;;;;;;;;;;;;;;;;;;;;;;;;;;;;;;;;;;;;
"c1307325";;;"Windows 7";"Rachel's Experiment (D.T.)";"1.0";"2";"1";"1";"2";"1";"1";"2014-10-16 11:24:26.055";"2014-10-16 11:37:28.412";"1";"1";"1";"31";"30";"module.training_block1.exec-1895.GoNoGo1";;;;;;;;;;;;;;;;;;;;;;;"1261";"2014-10-16 11:27:09.933";"ST_correctStop";"3";"0";"FINISHED";"NONE";"success";"0";"1";"2014-10-16 11:27:08.670";"1";;;;;;;;;;;;;;;;;;;;;;;;;;;;;;;;;;;;;;;;;;;;;;;;;;;;;;;;;
"c1307325";;;"Windows 7";"Rachel's Experiment (D.T.)";"1.0";"2";"1";"1";"2";"1";"1";"2014-10-16 11:24:26.055";"2014-10-16 11:37:28.412";"1";"1";"1";"32";"31";"module.training_block1.exec-1895.GoNoGo1";;;;;;;;;;;;;;;;;;;;;;;"1257";"2014-10-16 11:27:12.476";"NST_correctLoc";"32";"1";"FINISHED";"RIGHT";"success";"650";"0";"2014-10-16 11:27:11.213";"3";;;;;;;;;;;;;;;;;;;;;;;;;;;;;;;;;;;;;;;;;;;;;;;;;;;;;;;;;
"c1307325";;;"Windows 7";"Rachel's Experiment (D.T.)";"1.0";"2";"1";"1";"2";"1";"1";"2014-10-16 11:24:26.055";"2014-10-16 11:37:28.412";"1";"1";"1";"33";"32";"module.training_block1.exec-1895.GoNoGo1";;;;;;;;;;;;;;;;;;;;;;;"1258";"2014-10-16 11:27:15.019";"ST_correctStop";"1";"0";"FINISHED";"NONE";"success";"0";"1";"2014-10-16 11:27:13.755";"1";;;;;;;;;;;;;;;;;;;;;;;;;;;;;;;;;;;;;;;;;;;;;;;;;;;;;;;;;
"c1307325";;;"Windows 7";"Rachel's Experiment (D.T.)";"1.0";"2";"1";"1";"2";"1";"1";"2014-10-16 11:24:26.055";"2014-10-16 11:37:28.412";"1";"1";"1";"34";"33";"module.training_block1.exec-1895.GoNoGo1";;;;;;;;;;;;;;;;;;;;;;;"1258";"2014-10-16 11:27:17.562";"ST_correctStop";"24";"0";"FINISHED";"NONE";"success";"0";"1";"2014-10-16 11:27:16.298";"3";;;;;;;;;;;;;;;;;;;;;;;;;;;;;;;;;;;;;;;;;;;;;;;;;;;;;;;;;
"c1307325";;;"Windows 7";"Rachel's Experiment (D.T.)";"1.0";"2";"1";"1";"2";"1";"1";"2014-10-16 11:24:26.055";"2014-10-16 11:37:28.412";"1";"1";"1";"35";"34";"module.training_block1.exec-1895.GoNoGo1";;;;;;;;;;;;;;;;;;;;;;;"1257";"2014-10-16 11:27:20.105";"NST_correctLoc";"17";"0";"FINISHED";"LEFT";"success";"542";"0";"2014-10-16 11:27:18.841";"2";;;;;;;;;;;;;;;;;;;;;;;;;;;;;;;;;;;;;;;;;;;;;;;;;;;;;;;;;
"c1307325";;;"Windows 7";"Rachel's Experiment (D.T.)";"1.0";"2";"1";"1";"2";"1";"1";"2014-10-16 11:24:26.055";"2014-10-16 11:37:28.412";"1";"1";"1";"36";"35";"module.training_block1.exec-1895.GoNoGo1";;;;;;;;;;;;;;;;;;;;;;;"1258";"2014-10-16 11:27:22.647";"NST_correctLoc";"25";"1";"FINISHED";"RIGHT";"success";"816";"0";"2014-10-16 11:27:21.384";"3";;;;;;;;;;;;;;;;;;;;;;;;;;;;;;;;;;;;;;;;;;;;;;;;;;;;;;;;;
"c1307325";;;"Windows 7";"Rachel's Experiment (D.T.)";"1.0";"2";"1";"1";"2";"1";"1";"2014-10-16 11:24:26.055";"2014-10-16 11:37:28.412";"1";"1";"1";"37";"36";"module.training_block1.exec-1895.GoNoGo1";;;;;;;;;;;;;;;;;;;;;;;"1256";"2014-10-16 11:27:25.190";"ST_correctStop";"7";"0";"FINISHED";"NONE";"success";"0";"1";"2014-10-16 11:27:23.927";"1";;;;;;;;;;;;;;;;;;;;;;;;;;;;;;;;;;;;;;;;;;;;;;;;;;;;;;;;;
"c1307325";;;"Windows 7";"Rachel's Experiment (D.T.)";"1.0";"2";"1";"1";"2";"1";"1";"2014-10-16 11:24:26.055";"2014-10-16 11:37:28.412";"1";"1";"1";"38";"37";"module.training_block1.exec-1895.GoNoGo1";;;;;;;;;;;;;;;;;;;;;;;"1258";"2014-10-16 11:27:27.733";"ST_correctStop";"19";"0";"FINISHED";"NONE";"success";"0";"1";"2014-10-16 11:27:26.469";"3";;;;;;;;;;;;;;;;;;;;;;;;;;;;;;;;;;;;;;;;;;;;;;;;;;;;;;;;;
"c1307325";;;"Windows 7";"Rachel's Experiment (D.T.)";"1.0";"2";"1";"1";"2";"1";"1";"2014-10-16 11:24:26.055";"2014-10-16 11:37:28.412";"1";"1";"1";"39";"38";"module.training_block1.exec-1895.GoNoGo1";;;;;;;;;;;;;;;;;;;;;;;"1261";"2014-10-16 11:27:30.276";"NST_correctLoc";"18";"0";"FINISHED";"LEFT";"success";"447";"0";"2014-10-16 11:27:29.012";"3";;;;;;;;;;;;;;;;;;;;;;;;;;;;;;;;;;;;;;;;;;;;;;;;;;;;;;;;;
"c1307325";;;"Windows 7";"Rachel's Experiment (D.T.)";"1.0";"2";"1";"1";"2";"1";"1";"2014-10-16 11:24:26.055";"2014-10-16 11:37:28.412";"1";"1";"1";"40";"39";"module.training_block1.exec-1895.GoNoGo1";;;;;;;;;;;;;;;;;;;;;;;"1258";"2014-10-16 11:27:32.819";"ST_correctStop";"5";"0";"FINISHED";"NONE";"success";"0";"1";"2014-10-16 11:27:31.555";"1";;;;;;;;;;;;;;;;;;;;;;;;;;;;;;;;;;;;;;;;;;;;;;;;;;;;;;;;;
"c1307325";;;"Windows 7";"Rachel's Experiment (D.T.)";"1.0";"2";"1";"1";"2";"1";"1";"2014-10-16 11:24:26.055";"2014-10-16 11:37:28.412";"1";"1";"1";"41";"40";"module.training_block1.exec-1895.GoNoGo1";;;;;;;;;;;;;;;;;;;;;;;"1261";"2014-10-16 11:27:35.361";"NST_correctLoc";"23";"0";"FINISHED";"LEFT";"success";"569";"0";"2014-10-16 11:27:34.098";"3";;;;;;;;;;;;;;;;;;;;;;;;;;;;;;;;;;;;;;;;;;;;;;;;;;;;;;;;;
"c1307325";;;"Windows 7";"Rachel's Experiment (D.T.)";"1.0";"2";"1";"1";"2";"1";"1";"2014-10-16 11:24:26.055";"2014-10-16 11:37:28.412";"1";"1";"1";"42";"41";"module.training_block1.exec-1895.GoNoGo1";;;;;;;;;;;;;;;;;;;;;;;"1257";"2014-10-16 11:27:37.904";"ST_correctStop";"20";"0";"FINISHED";"NONE";"success";"0";"1";"2014-10-16 11:27:36.641";"3";;;;;;;;;;;;;;;;;;;;;;;;;;;;;;;;;;;;;;;;;;;;;;;;;;;;;;;;;
"c1307325";;;"Windows 7";"Rachel's Experiment (D.T.)";"1.0";"2";"1";"1";"2";"1";"1";"2014-10-16 11:24:26.055";"2014-10-16 11:37:28.412";"1";"1";"1";"43";"42";"module.training_block1.exec-1895.GoNoGo1";;;;;;;;;;;;;;;;;;;;;;;"1261";"2014-10-16 11:27:40.447";"NST_correctLoc";"27";"1";"FINISHED";"RIGHT";"success";"683";"0";"2014-10-16 11:27:39.183";"3";;;;;;;;;;;;;;;;;;;;;;;;;;;;;;;;;;;;;;;;;;;;;;;;;;;;;;;;;
"c1307325";;;"Windows 7";"Rachel's Experiment (D.T.)";"1.0";"2";"1";"1";"2";"1";"1";"2014-10-16 11:24:26.055";"2014-10-16 11:37:28.412";"1";"1";"1";"44";"43";"module.training_block1.exec-1895.GoNoGo1";;;;;;;;;;;;;;;;;;;;;;;"1258";"2014-10-16 11:27:42.990";"ST_correctStop";"28";"1";"FINISHED";"NONE";"success";"0";"1";"2014-10-16 11:27:41.726";"3";;;;;;;;;;;;;;;;;;;;;;;;;;;;;;;;;;;;;;;;;;;;;;;;;;;;;;;;;
"c1307325";;;"Windows 7";"Rachel's Experiment (D.T.)";"1.0";"2";"1";"1";"2";"1";"1";"2014-10-16 11:24:26.055";"2014-10-16 11:37:28.412";"1";"1";"1";"45";"44";"module.training_block1.exec-1895.GoNoGo1";;;;;;;;;;;;;;;;;;;;;;;"1261";"2014-10-16 11:27:45.533";"NST_correctLoc";"21";"0";"FINISHED";"LEFT";"success";"518";"0";"2014-10-16 11:27:44.269";"3";;;;;;;;;;;;;;;;;;;;;;;;;;;;;;;;;;;;;;;;;;;;;;;;;;;;;;;;;
"c1307325";;;"Windows 7";"Rachel's Experiment (D.T.)";"1.0";"2";"1";"1";"2";"1";"1";"2014-10-16 11:24:26.055";"2014-10-16 11:37:28.412";"1";"1";"1";"46";"45";"module.training_block1.exec-1895.GoNoGo1";;;;;;;;;;;;;;;;;;;;;;;"1261";"2014-10-16 11:27:48.075";"ST_correctStop";"26";"1";"FINISHED";"NONE";"success";"0";"1";"2014-10-16 11:27:46.812";"3";;;;;;;;;;;;;;;;;;;;;;;;;;;;;;;;;;;;;;;;;;;;;;;;;;;;;;;;;
"c1307325";;;"Windows 7";"Rachel's Experiment (D.T.)";"1.0";"2";"1";"1";"2";"1";"1";"2014-10-16 11:24:26.055";"2014-10-16 11:37:28.412";"1";"1";"1";"47";"46";"module.training_block1.exec-1895.GoNoGo1";;;;;;;;;;;;;;;;;;;;;;;"1261";"2014-10-16 11:27:50.618";"NST_correctLoc";"14";"1";"FINISHED";"RIGHT";"success";"488";"0";"2014-10-16 11:27:49.355";"2";;;;;;;;;;;;;;;;;;;;;;;;;;;;;;;;;;;;;;;;;;;;;;;;;;;;;;;;;
"c1307325";;;"Windows 7";"Rachel's Experiment (D.T.)";"1.0";"2";"1";"1";"2";"1";"1";"2014-10-16 11:24:26.055";"2014-10-16 11:37:28.412";"1";"1";"1";"48";"47";"module.training_block1.exec-1895.GoNoGo1";;;;;;;;;;;;;;;;;;;;;;;"1252";"2014-10-16 11:27:53.161";"ST_correctStop";"31";"1";"FINISHED";"NONE";"success";"0";"1";"2014-10-16 11:27:51.897";"3";;;;;;;;;;;;;;;;;;;;;;;;;;;;;;;;;;;;;;;;;;;;;;;;;;;;;;;;;
"c1307325";;;"Windows 7";"Rachel's Experiment (D.T.)";"1.0";"2";"1";"1";"2";"1";"1";"2014-10-16 11:24:26.055";"2014-10-16 11:37:28.412";"1";"1";"1";"49";"48";"module.training_block1.exec-1895.GoNoGo1";;;;;;;;;;;;;;;;;;;;;;;"1257";"2014-10-16 11:27:55.704";"ST_correctStop";"8";"1";"FINISHED";"NONE";"success";"0";"1";"2014-10-16 11:27:54.440";"1";;;;;;;;;;;;;;;;;;;;;;;;;;;;;;;;;;;;;;;;;;;;;;;;;;;;;;;;;
"c1307325";;;"Windows 7";"Rachel's Experiment (D.T.)";"1.0";"2";"1";"1";"2";"1";"1";"2014-10-16 11:24:26.055";"2014-10-16 11:37:28.412";"1";"1";"1";"50";"49";"module.training_block1.exec-1895.GoNoGo1";;;;;;;;;;;;;;;;;;;;;;;"1261";"2014-10-16 11:27:58.247";"ST_correctStop";"2";"0";"FINISHED";"NONE";"success";"0";"1";"2014-10-16 11:27:56.983";"1";;;;;;;;;;;;;;;;;;;;;;;;;;;;;;;;;;;;;;;;;;;;;;;;;;;;;;;;;
"c1307325";;;"Windows 7";"Rachel's Experiment (D.T.)";"1.0";"2";"1";"1";"2";"1";"1";"2014-10-16 11:24:26.055";"2014-10-16 11:37:28.412";"1";"1";"1";"51";"50";"module.training_block1.exec-1895.GoNoGo1";;;;;;;;;;;;;;;;;;;;;;;"1261";"2014-10-16 11:28:00.790";"NST_correctLoc";"34";"1";"FINISHED";"RIGHT";"success";"581";"0";"2014-10-16 11:27:59.526";"3";;;;;;;;;;;;;;;;;;;;;;;;;;;;;;;;;;;;;;;;;;;;;;;;;;;;;;;;;
"c1307325";;;"Windows 7";"Rachel's Experiment (D.T.)";"1.0";"2";"1";"1";"2";"1";"1";"2014-10-16 11:24:26.055";"2014-10-16 11:37:28.412";"1";"1";"1";"52";"51";"module.training_block2.exec-4800.GoNoGo2";;;;;;;;;;;;;;;;;;;;;;;;;;;;;;;;;;;"1261";"2014-10-16 11:28:12.365";"NST_correctLoc";"9";"1";"FINISHED";"RIGHT";"success";"669";"0";"2014-10-16 11:28:11.101";"2";;;;;;;;;;;;;;;;;;;;;;;;;;;;;;;;;;;;;;;;;;;;;
"c1307325";;;"Windows 7";"Rachel's Experiment (D.T.)";"1.0";"2";"1";"1";"2";"1";"1";"2014-10-16 11:24:26.055";"2014-10-16 11:37:28.412";"1";"1";"1";"53";"52";"module.training_block2.exec-4800.GoNoGo2";;;;;;;;;;;;;;;;;;;;;;;;;;;;;;;;;;;"1261";"2014-10-16 11:28:14.908";"NST_correctLoc";"13";"1";"FINISHED";"RIGHT";"success";"526";"0";"2014-10-16 11:28:13.644";"2";;;;;;;;;;;;;;;;;;;;;;;;;;;;;;;;;;;;;;;;;;;;;
"c1307325";;;"Windows 7";"Rachel's Experiment (D.T.)";"1.0";"2";"1";"1";"2";"1";"1";"2014-10-16 11:24:26.055";"2014-10-16 11:37:28.412";"1";"1";"1";"54";"53";"module.training_block2.exec-4800.GoNoGo2";;;;;;;;;;;;;;;;;;;;;;;;;;;;;;;;;;;"1261";"2014-10-16 11:28:17.450";"ST_correctStop";"5";"0";"FINISHED";"NONE";"success";"0";"1";"2014-10-16 11:28:16.187";"1";;;;;;;;;;;;;;;;;;;;;;;;;;;;;;;;;;;;;;;;;;;;;
"c1307325";;;"Windows 7";"Rachel's Experiment (D.T.)";"1.0";"2";"1";"1";"2";"1";"1";"2014-10-16 11:24:26.055";"2014-10-16 11:37:28.412";"1";"1";"1";"55";"54";"module.training_block2.exec-4800.GoNoGo2";;;;;;;;;;;;;;;;;;;;;;;;;;;;;;;;;;;"1261";"2014-10-16 11:28:19.993";"ST_correctStop";"28";"1";"FINISHED";"NONE";"success";"0";"1";"2014-10-16 11:28:18.730";"3";;;;;;;;;;;;;;;;;;;;;;;;;;;;;;;;;;;;;;;;;;;;;
"c1307325";;;"Windows 7";"Rachel's Experiment (D.T.)";"1.0";"2";"1";"1";"2";"1";"1";"2014-10-16 11:24:26.055";"2014-10-16 11:37:28.412";"1";"1";"1";"56";"55";"module.training_block2.exec-4800.GoNoGo2";;;;;;;;;;;;;;;;;;;;;;;;;;;;;;;;;;;"1261";"2014-10-16 11:28:22.536";"NST_correctLoc";"16";"1";"FINISHED";"RIGHT";"success";"450";"0";"2014-10-16 11:28:21.272";"2";;;;;;;;;;;;;;;;;;;;;;;;;;;;;;;;;;;;;;;;;;;;;
"c1307325";;;"Windows 7";"Rachel's Experiment (D.T.)";"1.0";"2";"1";"1";"2";"1";"1";"2014-10-16 11:24:26.055";"2014-10-16 11:37:28.412";"1";"1";"1";"57";"56";"module.training_block2.exec-4800.GoNoGo2";;;;;;;;;;;;;;;;;;;;;;;;;;;;;;;;;;;"1261";"2014-10-16 11:28:25.079";"ST_correctStop";"33";"0";"FINISHED";"NONE";"success";"0";"1";"2014-10-16 11:28:23.815";"3";;;;;;;;;;;;;;;;;;;;;;;;;;;;;;;;;;;;;;;;;;;;;
"c1307325";;;"Windows 7";"Rachel's Experiment (D.T.)";"1.0";"2";"1";"1";"2";"1";"1";"2014-10-16 11:24:26.055";"2014-10-16 11:37:28.412";"1";"1";"1";"58";"57";"module.training_block2.exec-4800.GoNoGo2";;;;;;;;;;;;;;;;;;;;;;;;;;;;;;;;;;;"1261";"2014-10-16 11:28:27.622";"ST_correctStop";"34";"1";"FINISHED";"NONE";"success";"0";"1";"2014-10-16 11:28:26.358";"3";;;;;;;;;;;;;;;;;;;;;;;;;;;;;;;;;;;;;;;;;;;;;
"c1307325";;;"Windows 7";"Rachel's Experiment (D.T.)";"1.0";"2";"1";"1";"2";"1";"1";"2014-10-16 11:24:26.055";"2014-10-16 11:37:28.412";"1";"1";"1";"59";"58";"module.training_block2.exec-4800.GoNoGo2";;;;;;;;;;;;;;;;;;;;;;;;;;;;;;;;;;;"1261";"2014-10-16 11:28:30.164";"NST_correctLoc";"32";"0";"FINISHED";"LEFT";"success";"566";"0";"2014-10-16 11:28:28.901";"3";;;;;;;;;;;;;;;;;;;;;;;;;;;;;;;;;;;;;;;;;;;;;
"c1307325";;;"Windows 7";"Rachel's Experiment (D.T.)";"1.0";"2";"1";"1";"2";"1";"1";"2014-10-16 11:24:26.055";"2014-10-16 11:37:28.412";"1";"1";"1";"60";"59";"module.training_block2.exec-4800.GoNoGo2";;;;;;;;;;;;;;;;;;;;;;;;;;;;;;;;;;;"1261";"2014-10-16 11:28:32.707";"NST_correctLoc";"22";"0";"FINISHED";"LEFT";"success";"623";"0";"2014-10-16 11:28:31.444";"3";;;;;;;;;;;;;;;;;;;;;;;;;;;;;;;;;;;;;;;;;;;;;
"c1307325";;;"Windows 7";"Rachel's Experiment (D.T.)";"1.0";"2";"1";"1";"2";"1";"1";"2014-10-16 11:24:26.055";"2014-10-16 11:37:28.412";"1";"1";"1";"61";"60";"module.training_block2.exec-4800.GoNoGo2";;;;;;;;;;;;;;;;;;;;;;;;;;;;;;;;;;;"1261";"2014-10-16 11:28:35.250";"ST_correctStop";"1";"0";"FINISHED";"NONE";"success";"0";"1";"2014-10-16 11:28:33.986";"1";;;;;;;;;;;;;;;;;;;;;;;;;;;;;;;;;;;;;;;;;;;;;
"c1307325";;;"Windows 7";"Rachel's Experiment (D.T.)";"1.0";"2";"1";"1";"2";"1";"1";"2014-10-16 11:24:26.055";"2014-10-16 11:37:28.412";"1";"1";"1";"62";"61";"module.training_block2.exec-4800.GoNoGo2";;;;;;;;;;;;;;;;;;;;;;;;;;;;;;;;;;;"1261";"2014-10-16 11:28:37.793";"ST_correctStop";"23";"1";"FINISHED";"NONE";"success";"0";"1";"2014-10-16 11:28:36.529";"3";;;;;;;;;;;;;;;;;;;;;;;;;;;;;;;;;;;;;;;;;;;;;
"c1307325";;;"Windows 7";"Rachel's Experiment (D.T.)";"1.0";"2";"1";"1";"2";"1";"1";"2014-10-16 11:24:26.055";"2014-10-16 11:37:28.412";"1";"1";"1";"63";"62";"module.training_block2.exec-4800.GoNoGo2";;;;;;;;;;;;;;;;;;;;;;;;;;;;;;;;;;;"1261";"2014-10-16 11:28:40.336";"ST_correctStop";"2";"1";"FINISHED";"NONE";"success";"0";"1";"2014-10-16 11:28:39.072";"1";;;;;;;;;;;;;;;;;;;;;;;;;;;;;;;;;;;;;;;;;;;;;
"c1307325";;;"Windows 7";"Rachel's Experiment (D.T.)";"1.0";"2";"1";"1";"2";"1";"1";"2014-10-16 11:24:26.055";"2014-10-16 11:37:28.412";"1";"1";"1";"64";"63";"module.training_block2.exec-4800.GoNoGo2";;;;;;;;;;;;;;;;;;;;;;;;;;;;;;;;;;;"1261";"2014-10-16 11:28:42.878";"ST_correctStop";"31";"0";"FINISHED";"NONE";"success";"0";"1";"2014-10-16 11:28:41.615";"3";;;;;;;;;;;;;;;;;;;;;;;;;;;;;;;;;;;;;;;;;;;;;
"c1307325";;;"Windows 7";"Rachel's Experiment (D.T.)";"1.0";"2";"1";"1";"2";"1";"1";"2014-10-16 11:24:26.055";"2014-10-16 11:37:28.412";"1";"1";"1";"65";"64";"module.training_block2.exec-4800.GoNoGo2";;;;;;;;;;;;;;;;;;;;;;;;;;;;;;;;;;;"1261";"2014-10-16 11:28:45.421";"NST_correctLoc";"27";"0";"FINISHED";"LEFT";"success";"533";"0";"2014-10-16 11:28:44.158";"3";;;;;;;;;;;;;;;;;;;;;;;;;;;;;;;;;;;;;;;;;;;;;
"c1307325";;;"Windows 7";"Rachel's Experiment (D.T.)";"1.0";"2";"1";"1";"2";"1";"1";"2014-10-16 11:24:26.055";"2014-10-16 11:37:28.412";"1";"1";"1";"66";"65";"module.training_block2.exec-4800.GoNoGo2";;;;;;;;;;;;;;;;;;;;;;;;;;;;;;;;;;;"1261";"2014-10-16 11:28:47.964";"ST_correctStop";"18";"1";"FINISHED";"NONE";"success";"0";"1";"2014-10-16 11:28:46.700";"3";;;;;;;;;;;;;;;;;;;;;;;;;;;;;;;;;;;;;;;;;;;;;
"c1307325";;;"Windows 7";"Rachel's Experiment (D.T.)";"1.0";"2";"1";"1";"2";"1";"1";"2014-10-16 11:24:26.055";"2014-10-16 11:37:28.412";"1";"1";"1";"67";"66";"module.training_block2.exec-4800.GoNoGo2";;;;;;;;;;;;;;;;;;;;;;;;;;;;;;;;;;;"1261";"2014-10-16 11:28:50.507";"NST_correctLoc";"15";"0";"FINISHED";"LEFT";"success";"559";"0";"2014-10-16 11:28:49.243";"2";;;;;;;;;;;;;;;;;;;;;;;;;;;;;;;;;;;;;;;;;;;;;
"c1307325";;;"Windows 7";"Rachel's Experiment (D.T.)";"1.0";"2";"1";"1";"2";"1";"1";"2014-10-16 11:24:26.055";"2014-10-16 11:37:28.412";"1";"1";"1";"68";"67";"module.training_block2.exec-4800.GoNoGo2";;;;;;;;;;;;;;;;;;;;;;;;;;;;;;;;;;;"1261";"2014-10-16 11:28:53.050";"NST_correctLoc";"12";"1";"FINISHED";"RIGHT";"success";"624";"0";"2014-10-16 11:28:51.786";"2";;;;;;;;;;;;;;;;;;;;;;;;;;;;;;;;;;;;;;;;;;;;;
"c1307325";;;"Windows 7";"Rachel's Experiment (D.T.)";"1.0";"2";"1";"1";"2";"1";"1";"2014-10-16 11:24:26.055";"2014-10-16 11:37:28.412";"1";"1";"1";"69";"68";"module.training_block2.exec-4800.GoNoGo2";;;;;;;;;;;;;;;;;;;;;;;;;;;;;;;;;;;"1261";"2014-10-16 11:28:55.592";"NST_correctLoc";"14";"1";"FINISHED";"RIGHT";"success";"521";"0";"2014-10-16 11:28:54.329";"2";;;;;;;;;;;;;;;;;;;;;;;;;;;;;;;;;;;;;;;;;;;;;
"c1307325";;;"Windows 7";"Rachel's Experiment (D.T.)";"1.0";"2";"1";"1";"2";"1";"1";"2014-10-16 11:24:26.055";"2014-10-16 11:37:28.412";"1";"1";"1";"70";"69";"module.training_block2.exec-4800.GoNoGo2";;;;;;;;;;;;;;;;;;;;;;;;;;;;;;;;;;;"1261";"2014-10-16 11:28:58.135";"ST_correctStop";"24";"1";"FINISHED";"NONE";"success";"0";"1";"2014-10-16 11:28:56.872";"3";;;;;;;;;;;;;;;;;;;;;;;;;;;;;;;;;;;;;;;;;;;;;
"c1307325";;;"Windows 7";"Rachel's Experiment (D.T.)";"1.0";"2";"1";"1";"2";"1";"1";"2014-10-16 11:24:26.055";"2014-10-16 11:37:28.412";"1";"1";"1";"71";"70";"module.training_block2.exec-4800.GoNoGo2";;;;;;;;;;;;;;;;;;;;;;;;;;;;;;;;;;;"1261";"2014-10-16 11:29:00.678";"NST_correctLoc";"11";"1";"FINISHED";"RIGHT";"success";"500";"0";"2014-10-16 11:28:59.414";"2";;;;;;;;;;;;;;;;;;;;;;;;;;;;;;;;;;;;;;;;;;;;;
"c1307325";;;"Windows 7";"Rachel's Experiment (D.T.)";"1.0";"2";"1";"1";"2";"1";"1";"2014-10-16 11:24:26.055";"2014-10-16 11:37:28.412";"1";"1";"1";"72";"71";"module.training_block2.exec-4800.GoNoGo2";;;;;;;;;;;;;;;;;;;;;;;;;;;;;;;;;;;"1261";"2014-10-16 11:29:03.221";"NST_correctLoc";"20";"1";"FINISHED";"RIGHT";"success";"645";"0";"2014-10-16 11:29:01.957";"3";;;;;;;;;;;;;;;;;;;;;;;;;;;;;;;;;;;;;;;;;;;;;
"c1307325";;;"Windows 7";"Rachel's Experiment (D.T.)";"1.0";"2";"1";"1";"2";"1";"1";"2014-10-16 11:24:26.055";"2014-10-16 11:37:28.412";"1";"1";"1";"73";"72";"module.training_block2.exec-4800.GoNoGo2";;;;;;;;;;;;;;;;;;;;;;;;;;;;;;;;;;;"1261";"2014-10-16 11:29:05.764";"NST_correctLoc";"19";"1";"FINISHED";"RIGHT";"success";"590";"0";"2014-10-16 11:29:04.500";"3";;;;;;;;;;;;;;;;;;;;;;;;;;;;;;;;;;;;;;;;;;;;;
"c1307325";;;"Windows 7";"Rachel's Experiment (D.T.)";"1.0";"2";"1";"1";"2";"1";"1";"2014-10-16 11:24:26.055";"2014-10-16 11:37:28.412";"1";"1";"1";"74";"73";"module.training_block2.exec-4800.GoNoGo2";;;;;;;;;;;;;;;;;;;;;;;;;;;;;;;;;;;"1261";"2014-10-16 11:29:08.306";"NST_correctLoc";"30";"0";"FINISHED";"LEFT";"success";"663";"0";"2014-10-16 11:29:07.043";"3";;;;;;;;;;;;;;;;;;;;;;;;;;;;;;;;;;;;;;;;;;;;;
"c1307325";;;"Windows 7";"Rachel's Experiment (D.T.)";"1.0";"2";"1";"1";"2";"1";"1";"2014-10-16 11:24:26.055";"2014-10-16 11:37:28.412";"1";"1";"1";"75";"74";"module.training_block2.exec-4800.GoNoGo2";;;;;;;;;;;;;;;;;;;;;;;;;;;;;;;;;;;"1261";"2014-10-16 11:29:10.849";"NST_correctLoc";"29";"1";"FINISHED";"RIGHT";"success";"705";"0";"2014-10-16 11:29:09.586";"3";;;;;;;;;;;;;;;;;;;;;;;;;;;;;;;;;;;;;;;;;;;;;
"c1307325";;;"Windows 7";"Rachel's Experiment (D.T.)";"1.0";"2";"1";"1";"2";"1";"1";"2014-10-16 11:24:26.055";"2014-10-16 11:37:28.412";"1";"1";"1";"76";"75";"module.training_block2.exec-4800.GoNoGo2";;;;;;;;;;;;;;;;;;;;;;;;;;;;;;;;;;;"1261";"2014-10-16 11:29:13.392";"ST_correctStop";"7";"1";"FINISHED";"NONE";"success";"0";"1";"2014-10-16 11:29:12.128";"1";;;;;;;;;;;;;;;;;;;;;;;;;;;;;;;;;;;;;;;;;;;;;
"c1307325";;;"Windows 7";"Rachel's Experiment (D.T.)";"1.0";"2";"1";"1";"2";"1";"1";"2014-10-16 11:24:26.055";"2014-10-16 11:37:28.412";"1";"1";"1";"77";"76";"module.training_block2.exec-4800.GoNoGo2";;;;;;;;;;;;;;;;;;;;;;;;;;;;;;;;;;;"1261";"2014-10-16 11:29:15.935";"ST_correctStop";"0";"0";"FINISHED";"NONE";"success";"0";"1";"2014-10-16 11:29:14.671";"1";;;;;;;;;;;;;;;;;;;;;;;;;;;;;;;;;;;;;;;;;;;;;
"c1307325";;;"Windows 7";"Rachel's Experiment (D.T.)";"1.0";"2";"1";"1";"2";"1";"1";"2014-10-16 11:24:26.055";"2014-10-16 11:37:28.412";"1";"1";"1";"78";"77";"module.training_block2.exec-4800.GoNoGo2";;;;;;;;;;;;;;;;;;;;;;;;;;;;;;;;;;;"1261";"2014-10-16 11:29:18.478";"ST_correctStop";"3";"1";"FINISHED";"NONE";"success";"0";"1";"2014-10-16 11:29:17.214";"1";;;;;;;;;;;;;;;;;;;;;;;;;;;;;;;;;;;;;;;;;;;;;
"c1307325";;;"Windows 7";"Rachel's Experiment (D.T.)";"1.0";"2";"1";"1";"2";"1";"1";"2014-10-16 11:24:26.055";"2014-10-16 11:37:28.412";"1";"1";"1";"79";"78";"module.training_block2.exec-4800.GoNoGo2";;;;;;;;;;;;;;;;;;;;;;;;;;;;;;;;;;;"1261";"2014-10-16 11:29:21.020";"NST_correctLoc";"26";"1";"FINISHED";"RIGHT";"success";"565";"0";"2014-10-16 11:29:19.757";"3";;;;;;;;;;;;;;;;;;;;;;;;;;;;;;;;;;;;;;;;;;;;;
"c1307325";;;"Windows 7";"Rachel's Experiment (D.T.)";"1.0";"2";"1";"1";"2";"1";"1";"2014-10-16 11:24:26.055";"2014-10-16 11:37:28.412";"1";"1";"1";"80";"79";"module.training_block2.exec-4800.GoNoGo2";;;;;;;;;;;;;;;;;;;;;;;;;;;;;;;;;;;"1261";"2014-10-16 11:29:23.579";"ST_correctStop";"6";"1";"FINISHED";"NONE";"success";"0";"1";"2014-10-16 11:29:22.315";"1";;;;;;;;;;;;;;;;;;;;;;;;;;;;;;;;;;;;;;;;;;;;;
"c1307325";;;"Windows 7";"Rachel's Experiment (D.T.)";"1.0";"2";"1";"1";"2";"1";"1";"2014-10-16 11:24:26.055";"2014-10-16 11:37:28.412";"1";"1";"1";"81";"80";"module.training_block2.exec-4800.GoNoGo2";;;;;;;;;;;;;;;;;;;;;;;;;;;;;;;;;;;"1261";"2014-10-16 11:29:26.122";"NST_correctLoc";"17";"0";"FINISHED";"LEFT";"success";"640";"0";"2014-10-16 11:29:24.858";"2";;;;;;;;;;;;;;;;;;;;;;;;;;;;;;;;;;;;;;;;;;;;;
"c1307325";;;"Windows 7";"Rachel's Experiment (D.T.)";"1.0";"2";"1";"1";"2";"1";"1";"2014-10-16 11:24:26.055";"2014-10-16 11:37:28.412";"1";"1";"1";"82";"81";"module.training_block2.exec-4800.GoNoGo2";;;;;;;;;;;;;;;;;;;;;;;;;;;;;;;;;;;"1261";"2014-10-16 11:29:28.664";"ST_correctStop";"25";"0";"FINISHED";"NONE";"success";"0";"1";"2014-10-16 11:29:27.401";"3";;;;;;;;;;;;;;;;;;;;;;;;;;;;;;;;;;;;;;;;;;;;;
"c1307325";;;"Windows 7";"Rachel's Experiment (D.T.)";"1.0";"2";"1";"1";"2";"1";"1";"2014-10-16 11:24:26.055";"2014-10-16 11:37:28.412";"1";"1";"1";"83";"82";"module.training_block2.exec-4800.GoNoGo2";;;;;;;;;;;;;;;;;;;;;;;;;;;;;;;;;;;"1261";"2014-10-16 11:29:31.207";"NST_correctLoc";"10";"0";"FINISHED";"LEFT";"success";"562";"0";"2014-10-16 11:29:29.944";"2";;;;;;;;;;;;;;;;;;;;;;;;;;;;;;;;;;;;;;;;;;;;;
"c1307325";;;"Windows 7";"Rachel's Experiment (D.T.)";"1.0";"2";"1";"1";"2";"1";"1";"2014-10-16 11:24:26.055";"2014-10-16 11:37:28.412";"1";"1";"1";"84";"83";"module.training_block2.exec-4800.GoNoGo2";;;;;;;;;;;;;;;;;;;;;;;;;;;;;;;;;;;"1261";"2014-10-16 11:29:33.750";"ST_correctStop";"4";"1";"FINISHED";"NONE";"success";"0";"1";"2014-10-16 11:29:32.486";"1";;;;;;;;;;;;;;;;;;;;;;;;;;;;;;;;;;;;;;;;;;;;;
"c1307325";;;"Windows 7";"Rachel's Experiment (D.T.)";"1.0";"2";"1";"1";"2";"1";"1";"2014-10-16 11:24:26.055";"2014-10-16 11:37:28.412";"1";"1";"1";"85";"84";"module.training_block2.exec-4800.GoNoGo2";;;;;;;;;;;;;;;;;;;;;;;;;;;;;;;;;;;"1261";"2014-10-16 11:29:36.293";"ST_correctStop";"21";"1";"FINISHED";"NONE";"success";"0";"1";"2014-10-16 11:29:35.029";"3";;;;;;;;;;;;;;;;;;;;;;;;;;;;;;;;;;;;;;;;;;;;;
"c1307325";;;"Windows 7";"Rachel's Experiment (D.T.)";"1.0";"2";"1";"1";"2";"1";"1";"2014-10-16 11:24:26.055";"2014-10-16 11:37:28.412";"1";"1";"1";"86";"85";"module.training_block2.exec-4800.GoNoGo2";;;;;;;;;;;;;;;;;;;;;;;;;;;;;;;;;;;"1261";"2014-10-16 11:29:38.836";"NST_correctLoc";"35";"0";"FINISHED";"LEFT";"success";"454";"0";"2014-10-16 11:29:37.572";"3";;;;;;;;;;;;;;;;;;;;;;;;;;;;;;;;;;;;;;;;;;;;;
"c1307325";;;"Windows 7";"Rachel's Experiment (D.T.)";"1.0";"2";"1";"1";"2";"1";"1";"2014-10-16 11:24:26.055";"2014-10-16 11:37:28.412";"1";"1";"1";"87";"86";"module.training_block2.exec-4800.GoNoGo2";;;;;;;;;;;;;;;;;;;;;;;;;;;;;;;;;;;"1261";"2014-10-16 11:29:41.378";"ST_correctStop";"8";"0";"FINISHED";"NONE";"success";"0";"1";"2014-10-16 11:29:40.115";"1";;;;;;;;;;;;;;;;;;;;;;;;;;;;;;;;;;;;;;;;;;;;;
"c1307325";;;"Windows 7";"Rachel's Experiment (D.T.)";"1.0";"2";"1";"1";"2";"1";"1";"2014-10-16 11:24:26.055";"2014-10-16 11:37:28.412";"1";"1";"1";"88";"87";"module.training_block3.exec-6860.GoNoGo3";;;;;;;;;;;;;;;;;;;;;;;;;;;;;;;;;;;;;;;;;;;;;;;"1261";"2014-10-16 11:29:51.441";"NST_correctLoc";"14";"1";"FINISHED";"RIGHT";"success";"593";"0";"2014-10-16 11:29:50.177";"2";;;;;;;;;;;;;;;;;;;;;;;;;;;;;;;;;
"c1307325";;;"Windows 7";"Rachel's Experiment (D.T.)";"1.0";"2";"1";"1";"2";"1";"1";"2014-10-16 11:24:26.055";"2014-10-16 11:37:28.412";"1";"1";"1";"89";"88";"module.training_block3.exec-6860.GoNoGo3";;;;;;;;;;;;;;;;;;;;;;;;;;;;;;;;;;;;;;;;;;;;;;;"1261";"2014-10-16 11:29:53.983";"ST_correctStop";"2";"0";"FINISHED";"NONE";"success";"0";"1";"2014-10-16 11:29:52.720";"1";;;;;;;;;;;;;;;;;;;;;;;;;;;;;;;;;
"c1307325";;;"Windows 7";"Rachel's Experiment (D.T.)";"1.0";"2";"1";"1";"2";"1";"1";"2014-10-16 11:24:26.055";"2014-10-16 11:37:28.412";"1";"1";"1";"90";"89";"module.training_block3.exec-6860.GoNoGo3";;;;;;;;;;;;;;;;;;;;;;;;;;;;;;;;;;;;;;;;;;;;;;;"1261";"2014-10-16 11:29:56.511";"ST_correctStop";"24";"1";"FINISHED";"NONE";"success";"0";"1";"2014-10-16 11:29:55.247";"3";;;;;;;;;;;;;;;;;;;;;;;;;;;;;;;;;
"c1307325";;;"Windows 7";"Rachel's Experiment (D.T.)";"1.0";"2";"1";"1";"2";"1";"1";"2014-10-16 11:24:26.055";"2014-10-16 11:37:28.412";"1";"1";"1";"91";"90";"module.training_block3.exec-6860.GoNoGo3";;;;;;;;;;;;;;;;;;;;;;;;;;;;;;;;;;;;;;;;;;;;;;;"1261";"2014-10-16 11:29:59.053";"ST_correctStop";"3";"0";"FINISHED";"NONE";"success";"0";"1";"2014-10-16 11:29:57.790";"1";;;;;;;;;;;;;;;;;;;;;;;;;;;;;;;;;
"c1307325";;;"Windows 7";"Rachel's Experiment (D.T.)";"1.0";"2";"1";"1";"2";"1";"1";"2014-10-16 11:24:26.055";"2014-10-16 11:37:28.412";"1";"1";"1";"92";"91";"module.training_block3.exec-6860.GoNoGo3";;;;;;;;;;;;;;;;;;;;;;;;;;;;;;;;;;;;;;;;;;;;;;;"1261";"2014-10-16 11:30:01.612";"ST_correctStop";"0";"0";"FINISHED";"NONE";"success";"0";"1";"2014-10-16 11:30:00.348";"1";;;;;;;;;;;;;;;;;;;;;;;;;;;;;;;;;
"c1307325";;;"Windows 7";"Rachel's Experiment (D.T.)";"1.0";"2";"1";"1";"2";"1";"1";"2014-10-16 11:24:26.055";"2014-10-16 11:37:28.412";"1";"1";"1";"93";"92";"module.training_block3.exec-6860.GoNoGo3";;;;;;;;;;;;;;;;;;;;;;;;;;;;;;;;;;;;;;;;;;;;;;;"1261";"2014-10-16 11:30:04.155";"NST_correctLoc";"20";"0";"FINISHED";"LEFT";"success";"695";"0";"2014-10-16 11:30:02.891";"3";;;;;;;;;;;;;;;;;;;;;;;;;;;;;;;;;
"c1307325";;;"Windows 7";"Rachel's Experiment (D.T.)";"1.0";"2";"1";"1";"2";"1";"1";"2014-10-16 11:24:26.055";"2014-10-16 11:37:28.412";"1";"1";"1";"94";"93";"module.training_block3.exec-6860.GoNoGo3";;;;;;;;;;;;;;;;;;;;;;;;;;;;;;;;;;;;;;;;;;;;;;;"1261";"2014-10-16 11:30:06.697";"ST_correctStop";"26";"0";"FINISHED";"NONE";"success";"0";"1";"2014-10-16 11:30:05.434";"3";;;;;;;;;;;;;;;;;;;;;;;;;;;;;;;;;
"c1307325";;;"Windows 7";"Rachel's Experiment (D.T.)";"1.0";"2";"1";"1";"2";"1";"1";"2014-10-16 11:24:26.055";"2014-10-16 11:37:28.412";"1";"1";"1";"95";"94";"module.training_block3.exec-6860.GoNoGo3";;;;;;;;;;;;;;;;;;;;;;;;;;;;;;;;;;;;;;;;;;;;;;;"1261";"2014-10-16 11:30:09.240";"NST_correctLoc";"11";"1";"FINISHED";"RIGHT";"success";"617";"0";"2014-10-16 11:30:07.977";"2";;;;;;;;;;;;;;;;;;;;;;;;;;;;;;;;;
"c1307325";;;"Windows 7";"Rachel's Experiment (D.T.)";"1.0";"2";"1";"1";"2";"1";"1";"2014-10-16 11:24:26.055";"2014-10-16 11:37:28.412";"1";"1";"1";"96";"95";"module.training_block3.exec-6860.GoNoGo3";;;;;;;;;;;;;;;;;;;;;;;;;;;;;;;;;;;;;;;;;;;;;;;"1261";"2014-10-16 11:30:11.783";"NST_correctLoc";"9";"1";"FINISHED";"RIGHT";"success";"579";"0";"2014-10-16 11:30:10.519";"2";;;;;;;;;;;;;;;;;;;;;;;;;;;;;;;;;
"c1307325";;;"Windows 7";"Rachel's Experiment (D.T.)";"1.0";"2";"1";"1";"2";"1";"1";"2014-10-16 11:24:26.055";"2014-10-16 11:37:28.412";"1";"1";"1";"97";"96";"module.training_block3.exec-6860.GoNoGo3";;;;;;;;;;;;;;;;;;;;;;;;;;;;;;;;;;;;;;;;;;;;;;;"1261";"2014-10-16 11:30:14.326";"NST_correctLoc";"10";"0";"FINISHED";"LEFT";"success";"588";"0";"2014-10-16 11:30:13.062";"2";;;;;;;;;;;;;;;;;;;;;;;;;;;;;;;;;
"c1307325";;;"Windows 7";"Rachel's Experiment (D.T.)";"1.0";"2";"1";"1";"2";"1";"1";"2014-10-16 11:24:26.055";"2014-10-16 11:37:28.412";"1";"1";"1";"98";"97";"module.training_block3.exec-6860.GoNoGo3";;;;;;;;;;;;;;;;;;;;;;;;;;;;;;;;;;;;;;;;;;;;;;;"1261";"2014-10-16 11:30:16.869";"NST_correctLoc";"13";"1";"FINISHED";"RIGHT";"success";"549";"0";"2014-10-16 11:30:15.605";"2";;;;;;;;;;;;;;;;;;;;;;;;;;;;;;;;;
"c1307325";;;"Windows 7";"Rachel's Experiment (D.T.)";"1.0";"2";"1";"1";"2";"1";"1";"2014-10-16 11:24:26.055";"2014-10-16 11:37:28.412";"1";"1";"1";"99";"98";"module.training_block3.exec-6860.GoNoGo3";;;;;;;;;;;;;;;;;;;;;;;;;;;;;;;;;;;;;;;;;;;;;;;"1261";"2014-10-16 11:30:19.411";"NST_correctLoc";"34";"0";"FINISHED";"LEFT";"success";"582";"0";"2014-10-16 11:30:18.148";"3";;;;;;;;;;;;;;;;;;;;;;;;;;;;;;;;;
"c1307325";;;"Windows 7";"Rachel's Experiment (D.T.)";"1.0";"2";"1";"1";"2";"1";"1";"2014-10-16 11:24:26.055";"2014-10-16 11:37:28.412";"1";"1";"1";"100";"99";"module.training_block3.exec-6860.GoNoGo3";;;;;;;;;;;;;;;;;;;;;;;;;;;;;;;;;;;;;;;;;;;;;;;"1261";"2014-10-16 11:30:21.954";"ST_correctStop";"6";"0";"FINISHED";"NONE";"success";"0";"1";"2014-10-16 11:30:20.691";"1";;;;;;;;;;;;;;;;;;;;;;;;;;;;;;;;;
"c1307325";;;"Windows 7";"Rachel's Experiment (D.T.)";"1.0";"2";"1";"1";"2";"1";"1";"2014-10-16 11:24:26.055";"2014-10-16 11:37:28.412";"1";"1";"1";"101";"100";"module.training_block3.exec-6860.GoNoGo3";;;;;;;;;;;;;;;;;;;;;;;;;;;;;;;;;;;;;;;;;;;;;;;"1261";"2014-10-16 11:30:24.497";"NST_correctLoc";"16";"0";"FINISHED";"LEFT";"success";"576";"0";"2014-10-16 11:30:23.233";"2";;;;;;;;;;;;;;;;;;;;;;;;;;;;;;;;;
"c1307325";;;"Windows 7";"Rachel's Experiment (D.T.)";"1.0";"2";"1";"1";"2";"1";"1";"2014-10-16 11:24:26.055";"2014-10-16 11:37:28.412";"1";"1";"1";"102";"101";"module.training_block3.exec-6860.GoNoGo3";;;;;;;;;;;;;;;;;;;;;;;;;;;;;;;;;;;;;;;;;;;;;;;"1262";"2014-10-16 11:30:27.040";"ST_correctStop";"5";"0";"FINISHED";"NONE";"success";"0";"1";"2014-10-16 11:30:25.776";"1";;;;;;;;;;;;;;;;;;;;;;;;;;;;;;;;;
"c1307325";;;"Windows 7";"Rachel's Experiment (D.T.)";"1.0";"2";"1";"1";"2";"1";"1";"2014-10-16 11:24:26.055";"2014-10-16 11:37:28.412";"1";"1";"1";"103";"102";"module.training_block3.exec-6860.GoNoGo3";;;;;;;;;;;;;;;;;;;;;;;;;;;;;;;;;;;;;;;;;;;;;;;"1258";"2014-10-16 11:30:29.583";"ST_correctStop";"7";"1";"FINISHED";"NONE";"success";"0";"1";"2014-10-16 11:30:28.319";"1";;;;;;;;;;;;;;;;;;;;;;;;;;;;;;;;;
"c1307325";;;"Windows 7";"Rachel's Experiment (D.T.)";"1.0";"2";"1";"1";"2";"1";"1";"2014-10-16 11:24:26.055";"2014-10-16 11:37:28.412";"1";"1";"1";"104";"103";"module.training_block3.exec-6860.GoNoGo3";;;;;;;;;;;;;;;;;;;;;;;;;;;;;;;;;;;;;;;;;;;;;;;"1261";"2014-10-16 11:30:32.125";"ST_correctStop";"28";"1";"FINISHED";"NONE";"success";"0";"1";"2014-10-16 11:30:30.862";"3";;;;;;;;;;;;;;;;;;;;;;;;;;;;;;;;;
"c1307325";;;"Windows 7";"Rachel's Experiment (D.T.)";"1.0";"2";"1";"1";"2";"1";"1";"2014-10-16 11:24:26.055";"2014-10-16 11:37:28.412";"1";"1";"1";"105";"104";"module.training_block3.exec-6860.GoNoGo3";;;;;;;;;;;;;;;;;;;;;;;;;;;;;;;;;;;;;;;;;;;;;;;"1261";"2014-10-16 11:30:34.668";"NST_correctLoc";"15";"1";"FINISHED";"RIGHT";"success";"541";"0";"2014-10-16 11:30:33.405";"2";;;;;;;;;;;;;;;;;;;;;;;;;;;;;;;;;
"c1307325";;;"Windows 7";"Rachel's Experiment (D.T.)";"1.0";"2";"1";"1";"2";"1";"1";"2014-10-16 11:24:26.055";"2014-10-16 11:37:28.412";"1";"1";"1";"106";"105";"module.training_block3.exec-6860.GoNoGo3";;;;;;;;;;;;;;;;;;;;;;;;;;;;;;;;;;;;;;;;;;;;;;;"1261";"2014-10-16 11:30:37.195";"ST_correctStop";"23";"1";"FINISHED";"NONE";"success";"0";"1";"2014-10-16 11:30:35.932";"3";;;;;;;;;;;;;;;;;;;;;;;;;;;;;;;;;
"c1307325";;;"Windows 7";"Rachel's Experiment (D.T.)";"1.0";"2";"1";"1";"2";"1";"1";"2014-10-16 11:24:26.055";"2014-10-16 11:37:28.412";"1";"1";"1";"107";"106";"module.training_block3.exec-6860.GoNoGo3";;;;;;;;;;;;;;;;;;;;;;;;;;;;;;;;;;;;;;;;;;;;;;;"1261";"2014-10-16 11:30:39.738";"NST_correctLoc";"22";"0";"FINISHED";"LEFT";"success";"583";"0";"2014-10-16 11:30:38.475";"3";;;;;;;;;;;;;;;;;;;;;;;;;;;;;;;;;
"c1307325";;;"Windows 7";"Rachel's Experiment (D.T.)";"1.0";"2";"1";"1";"2";"1";"1";"2014-10-16 11:24:26.055";"2014-10-16 11:37:28.412";"1";"1";"1";"108";"107";"module.training_block3.exec-6860.GoNoGo3";;;;;;;;;;;;;;;;;;;;;;;;;;;;;;;;;;;;;;;;;;;;;;;"1261";"2014-10-16 11:30:42.265";"NST_correctLoc";"18";"0";"FINISHED";"LEFT";"success";"672";"0";"2014-10-16 11:30:41.002";"3";;;;;;;;;;;;;;;;;;;;;;;;;;;;;;;;;
"c1307325";;;"Windows 7";"Rachel's Experiment (D.T.)";"1.0";"2";"1";"1";"2";"1";"1";"2014-10-16 11:24:26.055";"2014-10-16 11:37:28.412";"1";"1";"1";"109";"108";"module.training_block3.exec-6860.GoNoGo3";;;;;;;;;;;;;;;;;;;;;;;;;;;;;;;;;;;;;;;;;;;;;;;"1261";"2014-10-16 11:30:44.793";"ST_correctStop";"29";"0";"FINISHED";"NONE";"success";"0";"1";"2014-10-16 11:30:43.529";"3";;;;;;;;;;;;;;;;;;;;;;;;;;;;;;;;;
"c1307325";;;"Windows 7";"Rachel's Experiment (D.T.)";"1.0";"2";"1";"1";"2";"1";"1";"2014-10-16 11:24:26.055";"2014-10-16 11:37:28.412";"1";"1";"1";"110";"109";"module.training_block3.exec-6860.GoNoGo3";;;;;;;;;;;;;;;;;;;;;;;;;;;;;;;;;;;;;;;;;;;;;;;"1261";"2014-10-16 11:30:47.335";"NST_correctLoc";"30";"0";"FINISHED";"LEFT";"success";"586";"0";"2014-10-16 11:30:46.072";"3";;;;;;;;;;;;;;;;;;;;;;;;;;;;;;;;;
"c1307325";;;"Windows 7";"Rachel's Experiment (D.T.)";"1.0";"2";"1";"1";"2";"1";"1";"2014-10-16 11:24:26.055";"2014-10-16 11:37:28.412";"1";"1";"1";"111";"110";"module.training_block3.exec-6860.GoNoGo3";;;;;;;;;;;;;;;;;;;;;;;;;;;;;;;;;;;;;;;;;;;;;;;"1262";"2014-10-16 11:30:49.894";"ST_correctStop";"1";"0";"FINISHED";"NONE";"success";"0";"1";"2014-10-16 11:30:48.630";"1";;;;;;;;;;;;;;;;;;;;;;;;;;;;;;;;;
"c1307325";;;"Windows 7";"Rachel's Experiment (D.T.)";"1.0";"2";"1";"1";"2";"1";"1";"2014-10-16 11:24:26.055";"2014-10-16 11:37:28.412";"1";"1";"1";"112";"111";"module.training_block3.exec-6860.GoNoGo3";;;;;;;;;;;;;;;;;;;;;;;;;;;;;;;;;;;;;;;;;;;;;;;"1261";"2014-10-16 11:30:52.437";"ST_correctStop";"35";"0";"FINISHED";"NONE";"success";"0";"1";"2014-10-16 11:30:51.173";"3";;;;;;;;;;;;;;;;;;;;;;;;;;;;;;;;;
"c1307325";;;"Windows 7";"Rachel's Experiment (D.T.)";"1.0";"2";"1";"1";"2";"1";"1";"2014-10-16 11:24:26.055";"2014-10-16 11:37:28.412";"1";"1";"1";"113";"112";"module.training_block3.exec-6860.GoNoGo3";;;;;;;;;;;;;;;;;;;;;;;;;;;;;;;;;;;;;;;;;;;;;;;"1261";"2014-10-16 11:30:54.995";"ST_correctStop";"4";"0";"FINISHED";"NONE";"success";"0";"1";"2014-10-16 11:30:53.731";"1";;;;;;;;;;;;;;;;;;;;;;;;;;;;;;;;;
"c1307325";;;"Windows 7";"Rachel's Experiment (D.T.)";"1.0";"2";"1";"1";"2";"1";"1";"2014-10-16 11:24:26.055";"2014-10-16 11:37:28.412";"1";"1";"1";"114";"113";"module.training_block3.exec-6860.GoNoGo3";;;;;;;;;;;;;;;;;;;;;;;;;;;;;;;;;;;;;;;;;;;;;;;"1262";"2014-10-16 11:30:57.522";"ST_correctStop";"33";"0";"FINISHED";"NONE";"success";"0";"1";"2014-10-16 11:30:56.259";"3";;;;;;;;;;;;;;;;;;;;;;;;;;;;;;;;;
"c1307325";;;"Windows 7";"Rachel's Experiment (D.T.)";"1.0";"2";"1";"1";"2";"1";"1";"2014-10-16 11:24:26.055";"2014-10-16 11:37:28.412";"1";"1";"1";"115";"114";"module.training_block3.exec-6860.GoNoGo3";;;;;;;;;;;;;;;;;;;;;;;;;;;;;;;;;;;;;;;;;;;;;;;"1262";"2014-10-16 11:31:00.049";"ST_correctStop";"19";"1";"FINISHED";"NONE";"success";"0";"1";"2014-10-16 11:30:58.786";"3";;;;;;;;;;;;;;;;;;;;;;;;;;;;;;;;;
"c1307325";;;"Windows 7";"Rachel's Experiment (D.T.)";"1.0";"2";"1";"1";"2";"1";"1";"2014-10-16 11:24:26.055";"2014-10-16 11:37:28.412";"1";"1";"1";"116";"115";"module.training_block3.exec-6860.GoNoGo3";;;;;;;;;;;;;;;;;;;;;;;;;;;;;;;;;;;;;;;;;;;;;;;"1261";"2014-10-16 11:31:02.577";"NST_correctLoc";"25";"1";"FINISHED";"RIGHT";"success";"808";"0";"2014-10-16 11:31:01.313";"3";;;;;;;;;;;;;;;;;;;;;;;;;;;;;;;;;
"c1307325";;;"Windows 7";"Rachel's Experiment (D.T.)";"1.0";"2";"1";"1";"2";"1";"1";"2014-10-16 11:24:26.055";"2014-10-16 11:37:28.412";"1";"1";"1";"117";"116";"module.training_block3.exec-6860.GoNoGo3";;;;;;;;;;;;;;;;;;;;;;;;;;;;;;;;;;;;;;;;;;;;;;;"1261";"2014-10-16 11:31:05.104";"NST_correctLoc";"12";"1";"FINISHED";"RIGHT";"success";"945";"0";"2014-10-16 11:31:03.840";"2";;;;;;;;;;;;;;;;;;;;;;;;;;;;;;;;;
"c1307325";;;"Windows 7";"Rachel's Experiment (D.T.)";"1.0";"2";"1";"1";"2";"1";"1";"2014-10-16 11:24:26.055";"2014-10-16 11:37:28.412";"1";"1";"1";"118";"117";"module.training_block3.exec-6860.GoNoGo3";;;;;;;;;;;;;;;;;;;;;;;;;;;;;;;;;;;;;;;;;;;;;;;"1261";"2014-10-16 11:31:07.647";"ST_correctStop";"31";"1";"FINISHED";"NONE";"success";"0";"1";"2014-10-16 11:31:06.383";"3";;;;;;;;;;;;;;;;;;;;;;;;;;;;;;;;;
"c1307325";;;"Windows 7";"Rachel's Experiment (D.T.)";"1.0";"2";"1";"1";"2";"1";"1";"2014-10-16 11:24:26.055";"2014-10-16 11:37:28.412";"1";"1";"1";"119";"118";"module.training_block3.exec-6860.GoNoGo3";;;;;;;;;;;;;;;;;;;;;;;;;;;;;;;;;;;;;;;;;;;;;;;"1261";"2014-10-16 11:31:10.174";"NST_correctLoc";"17";"1";"FINISHED";"RIGHT";"success";"635";"0";"2014-10-16 11:31:08.910";"2";;;;;;;;;;;;;;;;;;;;;;;;;;;;;;;;;
"c1307325";;;"Windows 7";"Rachel's Experiment (D.T.)";"1.0";"2";"1";"1";"2";"1";"1";"2014-10-16 11:24:26.055";"2014-10-16 11:37:28.412";"1";"1";"1";"120";"119";"module.training_block3.exec-6860.GoNoGo3";;;;;;;;;;;;;;;;;;;;;;;;;;;;;;;;;;;;;;;;;;;;;;;"1261";"2014-10-16 11:31:12.701";"NST_correctLoc";"21";"1";"FINISHED";"RIGHT";"success";"660";"0";"2014-10-16 11:31:11.437";"3";;;;;;;;;;;;;;;;;;;;;;;;;;;;;;;;;
"c1307325";;;"Windows 7";"Rachel's Experiment (D.T.)";"1.0";"2";"1";"1";"2";"1";"1";"2014-10-16 11:24:26.055";"2014-10-16 11:37:28.412";"1";"1";"1";"121";"120";"module.training_block3.exec-6860.GoNoGo3";;;;;;;;;;;;;;;;;;;;;;;;;;;;;;;;;;;;;;;;;;;;;;;"1261";"2014-10-16 11:31:15.228";"NST_correctLoc";"27";"0";"FINISHED";"LEFT";"success";"741";"0";"2014-10-16 11:31:13.965";"3";;;;;;;;;;;;;;;;;;;;;;;;;;;;;;;;;
"c1307325";;;"Windows 7";"Rachel's Experiment (D.T.)";"1.0";"2";"1";"1";"2";"1";"1";"2014-10-16 11:24:26.055";"2014-10-16 11:37:28.412";"1";"1";"1";"122";"121";"module.training_block3.exec-6860.GoNoGo3";;;;;;;;;;;;;;;;;;;;;;;;;;;;;;;;;;;;;;;;;;;;;;;"1261";"2014-10-16 11:31:17.771";"ST_correctStop";"8";"1";"FINISHED";"NONE";"success";"0";"1";"2014-10-16 11:31:16.507";"1";;;;;;;;;;;;;;;;;;;;;;;;;;;;;;;;;
"c1307325";;;"Windows 7";"Rachel's Experiment (D.T.)";"1.0";"2";"1";"1";"2";"1";"1";"2014-10-16 11:24:26.055";"2014-10-16 11:37:28.412";"1";"1";"1";"123";"122";"module.training_block3.exec-6860.GoNoGo3";;;;;;;;;;;;;;;;;;;;;;;;;;;;;;;;;;;;;;;;;;;;;;;"1261";"2014-10-16 11:31:20.314";"NST_correctLoc";"32";"0";"FINISHED";"LEFT";"success";"543";"0";"2014-10-16 11:31:19.050";"3";;;;;;;;;;;;;;;;;;;;;;;;;;;;;;;;;
"c1307325";;;"Windows 7";"Rachel's Experiment (D.T.)";"1.0";"2";"1";"1";"2";"1";"1";"2014-10-16 11:24:26.055";"2014-10-16 11:37:28.412";"1";"1";"1";"124";"123";"module.training_block4.exec-2018.GoNoGo4";;;;;;;;;;;;;;;;;;;;;;;;;;;;;;;;;;;;;;;;;;;;;;;;;;;;;;;;;;;"1261";"2014-10-16 11:31:30.516";"NST_correctLoc";"11";"0";"FINISHED";"LEFT";"success";"437";"0";"2014-10-16 11:31:29.253";"2";;;;;;;;;;;;;;;;;;;;;
"c1307325";;;"Windows 7";"Rachel's Experiment (D.T.)";"1.0";"2";"1";"1";"2";"1";"1";"2014-10-16 11:24:26.055";"2014-10-16 11:37:28.412";"1";"1";"1";"125";"124";"module.training_block4.exec-2018.GoNoGo4";;;;;;;;;;;;;;;;;;;;;;;;;;;;;;;;;;;;;;;;;;;;;;;;;;;;;;;;;;;"1262";"2014-10-16 11:31:33.043";"ST_correctStop";"28";"0";"FINISHED";"NONE";"success";"0";"1";"2014-10-16 11:31:31.780";"3";;;;;;;;;;;;;;;;;;;;;
"c1307325";;;"Windows 7";"Rachel's Experiment (D.T.)";"1.0";"2";"1";"1";"2";"1";"1";"2014-10-16 11:24:26.055";"2014-10-16 11:37:28.412";"1";"1";"1";"126";"125";"module.training_block4.exec-2018.GoNoGo4";;;;;;;;;;;;;;;;;;;;;;;;;;;;;;;;;;;;;;;;;;;;;;;;;;;;;;;;;;;"1261";"2014-10-16 11:31:35.571";"ST_correctStop";"8";"1";"FINISHED";"NONE";"success";"0";"1";"2014-10-16 11:31:34.307";"1";;;;;;;;;;;;;;;;;;;;;
"c1307325";;;"Windows 7";"Rachel's Experiment (D.T.)";"1.0";"2";"1";"1";"2";"1";"1";"2014-10-16 11:24:26.055";"2014-10-16 11:37:28.412";"1";"1";"1";"127";"126";"module.training_block4.exec-2018.GoNoGo4";;;;;;;;;;;;;;;;;;;;;;;;;;;;;;;;;;;;;;;;;;;;;;;;;;;;;;;;;;;"1261";"2014-10-16 11:31:38.113";"NST_correctLoc";"14";"1";"FINISHED";"RIGHT";"success";"543";"0";"2014-10-16 11:31:36.850";"2";;;;;;;;;;;;;;;;;;;;;
"c1307325";;;"Windows 7";"Rachel's Experiment (D.T.)";"1.0";"2";"1";"1";"2";"1";"1";"2014-10-16 11:24:26.055";"2014-10-16 11:37:28.412";"1";"1";"1";"128";"127";"module.training_block4.exec-2018.GoNoGo4";;;;;;;;;;;;;;;;;;;;;;;;;;;;;;;;;;;;;;;;;;;;;;;;;;;;;;;;;;;"1261";"2014-10-16 11:31:40.641";"ST_correctStop";"19";"0";"FINISHED";"NONE";"success";"0";"1";"2014-10-16 11:31:39.377";"3";;;;;;;;;;;;;;;;;;;;;
"c1307325";;;"Windows 7";"Rachel's Experiment (D.T.)";"1.0";"2";"1";"1";"2";"1";"1";"2014-10-16 11:24:26.055";"2014-10-16 11:37:28.412";"1";"1";"1";"129";"128";"module.training_block4.exec-2018.GoNoGo4";;;;;;;;;;;;;;;;;;;;;;;;;;;;;;;;;;;;;;;;;;;;;;;;;;;;;;;;;;;"1261";"2014-10-16 11:31:43.168";"NST_correctLoc";"9";"0";"FINISHED";"LEFT";"success";"537";"0";"2014-10-16 11:31:41.904";"2";;;;;;;;;;;;;;;;;;;;;
"c1307325";;;"Windows 7";"Rachel's Experiment (D.T.)";"1.0";"2";"1";"1";"2";"1";"1";"2014-10-16 11:24:26.055";"2014-10-16 11:37:28.412";"1";"1";"1";"130";"129";"module.training_block4.exec-2018.GoNoGo4";;;;;;;;;;;;;;;;;;;;;;;;;;;;;;;;;;;;;;;;;;;;;;;;;;;;;;;;;;;"1261";"2014-10-16 11:31:45.695";"NST_correctLoc";"17";"1";"FINISHED";"RIGHT";"success";"642";"0";"2014-10-16 11:31:44.432";"2";;;;;;;;;;;;;;;;;;;;;
"c1307325";;;"Windows 7";"Rachel's Experiment (D.T.)";"1.0";"2";"1";"1";"2";"1";"1";"2014-10-16 11:24:26.055";"2014-10-16 11:37:28.412";"1";"1";"1";"131";"130";"module.training_block4.exec-2018.GoNoGo4";;;;;;;;;;;;;;;;;;;;;;;;;;;;;;;;;;;;;;;;;;;;;;;;;;;;;;;;;;;"1261";"2014-10-16 11:31:48.222";"ST_correctStop";"5";"0";"FINISHED";"NONE";"success";"0";"1";"2014-10-16 11:31:46.959";"1";;;;;;;;;;;;;;;;;;;;;
"c1307325";;;"Windows 7";"Rachel's Experiment (D.T.)";"1.0";"2";"1";"1";"2";"1";"1";"2014-10-16 11:24:26.055";"2014-10-16 11:37:28.412";"1";"1";"1";"132";"131";"module.training_block4.exec-2018.GoNoGo4";;;;;;;;;;;;;;;;;;;;;;;;;;;;;;;;;;;;;;;;;;;;;;;;;;;;;;;;;;;"1261";"2014-10-16 11:31:50.765";"NST_correctLoc";"27";"1";"FINISHED";"RIGHT";"success";"604";"0";"2014-10-16 11:31:49.502";"3";;;;;;;;;;;;;;;;;;;;;
"c1307325";;;"Windows 7";"Rachel's Experiment (D.T.)";"1.0";"2";"1";"1";"2";"1";"1";"2014-10-16 11:24:26.055";"2014-10-16 11:37:28.412";"1";"1";"1";"133";"132";"module.training_block4.exec-2018.GoNoGo4";;;;;;;;;;;;;;;;;;;;;;;;;;;;;;;;;;;;;;;;;;;;;;;;;;;;;;;;;;;"1262";"2014-10-16 11:31:53.292";"NST_correctLoc";"34";"0";"FINISHED";"LEFT";"success";"580";"0";"2014-10-16 11:31:52.029";"3";;;;;;;;;;;;;;;;;;;;;
"c1307325";;;"Windows 7";"Rachel's Experiment (D.T.)";"1.0";"2";"1";"1";"2";"1";"1";"2014-10-16 11:24:26.055";"2014-10-16 11:37:28.412";"1";"1";"1";"134";"133";"module.training_block4.exec-2018.GoNoGo4";;;;;;;;;;;;;;;;;;;;;;;;;;;;;;;;;;;;;;;;;;;;;;;;;;;;;;;;;;;"1261";"2014-10-16 11:31:55.820";"NST_correctLoc";"30";"1";"FINISHED";"RIGHT";"success";"509";"0";"2014-10-16 11:31:54.556";"3";;;;;;;;;;;;;;;;;;;;;
"c1307325";;;"Windows 7";"Rachel's Experiment (D.T.)";"1.0";"2";"1";"1";"2";"1";"1";"2014-10-16 11:24:26.055";"2014-10-16 11:37:28.412";"1";"1";"1";"135";"134";"module.training_block4.exec-2018.GoNoGo4";;;;;;;;;;;;;;;;;;;;;;;;;;;;;;;;;;;;;;;;;;;;;;;;;;;;;;;;;;;"1261";"2014-10-16 11:31:58.378";"NST_correctLoc";"33";"0";"FINISHED";"LEFT";"success";"399";"0";"2014-10-16 11:31:57.114";"3";;;;;;;;;;;;;;;;;;;;;
"c1307325";;;"Windows 7";"Rachel's Experiment (D.T.)";"1.0";"2";"1";"1";"2";"1";"1";"2014-10-16 11:24:26.055";"2014-10-16 11:37:28.412";"1";"1";"1";"136";"135";"module.training_block4.exec-2018.GoNoGo4";;;;;;;;;;;;;;;;;;;;;;;;;;;;;;;;;;;;;;;;;;;;;;;;;;;;;;;;;;;"1261";"2014-10-16 11:32:00.905";"NST_correctLoc";"20";"0";"FINISHED";"LEFT";"success";"511";"0";"2014-10-16 11:31:59.642";"3";;;;;;;;;;;;;;;;;;;;;
"c1307325";;;"Windows 7";"Rachel's Experiment (D.T.)";"1.0";"2";"1";"1";"2";"1";"1";"2014-10-16 11:24:26.055";"2014-10-16 11:37:28.412";"1";"1";"1";"137";"136";"module.training_block4.exec-2018.GoNoGo4";;;;;;;;;;;;;;;;;;;;;;;;;;;;;;;;;;;;;;;;;;;;;;;;;;;;;;;;;;;"1261";"2014-10-16 11:32:03.448";"ST_correctStop";"7";"1";"FINISHED";"NONE";"success";"0";"1";"2014-10-16 11:32:02.184";"1";;;;;;;;;;;;;;;;;;;;;
"c1307325";;;"Windows 7";"Rachel's Experiment (D.T.)";"1.0";"2";"1";"1";"2";"1";"1";"2014-10-16 11:24:26.055";"2014-10-16 11:37:28.412";"1";"1";"1";"138";"137";"module.training_block4.exec-2018.GoNoGo4";;;;;;;;;;;;;;;;;;;;;;;;;;;;;;;;;;;;;;;;;;;;;;;;;;;;;;;;;;;"1261";"2014-10-16 11:32:05.975";"ST_correctStop";"3";"0";"FINISHED";"NONE";"success";"0";"1";"2014-10-16 11:32:04.712";"1";;;;;;;;;;;;;;;;;;;;;
"c1307325";;;"Windows 7";"Rachel's Experiment (D.T.)";"1.0";"2";"1";"1";"2";"1";"1";"2014-10-16 11:24:26.055";"2014-10-16 11:37:28.412";"1";"1";"1";"139";"138";"module.training_block4.exec-2018.GoNoGo4";;;;;;;;;;;;;;;;;;;;;;;;;;;;;;;;;;;;;;;;;;;;;;;;;;;;;;;;;;;"1262";"2014-10-16 11:32:08.502";"NST_correctLoc";"16";"1";"FINISHED";"RIGHT";"success";"586";"0";"2014-10-16 11:32:07.239";"2";;;;;;;;;;;;;;;;;;;;;
"c1307325";;;"Windows 7";"Rachel's Experiment (D.T.)";"1.0";"2";"1";"1";"2";"1";"1";"2014-10-16 11:24:26.055";"2014-10-16 11:37:28.412";"1";"1";"1";"140";"139";"module.training_block4.exec-2018.GoNoGo4";;;;;;;;;;;;;;;;;;;;;;;;;;;;;;;;;;;;;;;;;;;;;;;;;;;;;;;;;;;"1261";"2014-10-16 11:32:11.061";"ST_correctStop";"32";"0";"FINISHED";"NONE";"success";"0";"1";"2014-10-16 11:32:09.797";"3";;;;;;;;;;;;;;;;;;;;;
"c1307325";;;"Windows 7";"Rachel's Experiment (D.T.)";"1.0";"2";"1";"1";"2";"1";"1";"2014-10-16 11:24:26.055";"2014-10-16 11:37:28.412";"1";"1";"1";"141";"140";"module.training_block4.exec-2018.GoNoGo4";;;;;;;;;;;;;;;;;;;;;;;;;;;;;;;;;;;;;;;;;;;;;;;;;;;;;;;;;;;"1261";"2014-10-16 11:32:13.588";"NST_correctLoc";"35";"0";"FINISHED";"LEFT";"success";"629";"0";"2014-10-16 11:32:12.324";"3";;;;;;;;;;;;;;;;;;;;;
"c1307325";;;"Windows 7";"Rachel's Experiment (D.T.)";"1.0";"2";"1";"1";"2";"1";"1";"2014-10-16 11:24:26.055";"2014-10-16 11:37:28.412";"1";"1";"1";"142";"141";"module.training_block4.exec-2018.GoNoGo4";;;;;;;;;;;;;;;;;;;;;;;;;;;;;;;;;;;;;;;;;;;;;;;;;;;;;;;;;;;"1261";"2014-10-16 11:32:16.131";"NST_correctLoc";"13";"0";"FINISHED";"LEFT";"success";"678";"0";"2014-10-16 11:32:14.867";"2";;;;;;;;;;;;;;;;;;;;;
"c1307325";;;"Windows 7";"Rachel's Experiment (D.T.)";"1.0";"2";"1";"1";"2";"1";"1";"2014-10-16 11:24:26.055";"2014-10-16 11:37:28.412";"1";"1";"1";"143";"142";"module.training_block4.exec-2018.GoNoGo4";;;;;;;;;;;;;;;;;;;;;;;;;;;;;;;;;;;;;;;;;;;;;;;;;;;;;;;;;;;"1262";"2014-10-16 11:32:18.658";"ST_correctStop";"4";"1";"FINISHED";"NONE";"success";"0";"1";"2014-10-16 11:32:17.394";"1";;;;;;;;;;;;;;;;;;;;;
"c1307325";;;"Windows 7";"Rachel's Experiment (D.T.)";"1.0";"2";"1";"1";"2";"1";"1";"2014-10-16 11:24:26.055";"2014-10-16 11:37:28.412";"1";"1";"1";"144";"143";"module.training_block4.exec-2018.GoNoGo4";;;;;;;;;;;;;;;;;;;;;;;;;;;;;;;;;;;;;;;;;;;;;;;;;;;;;;;;;;;"1261";"2014-10-16 11:32:21.185";"ST_correctStop";"21";"0";"FINISHED";"NONE";"success";"0";"1";"2014-10-16 11:32:19.922";"3";;;;;;;;;;;;;;;;;;;;;
"c1307325";;;"Windows 7";"Rachel's Experiment (D.T.)";"1.0";"2";"1";"1";"2";"1";"1";"2014-10-16 11:24:26.055";"2014-10-16 11:37:28.412";"1";"1";"1";"145";"144";"module.training_block4.exec-2018.GoNoGo4";;;;;;;;;;;;;;;;;;;;;;;;;;;;;;;;;;;;;;;;;;;;;;;;;;;;;;;;;;;"1261";"2014-10-16 11:32:23.744";"NST_correctLoc";"29";"1";"FINISHED";"RIGHT";"success";"793";"0";"2014-10-16 11:32:22.480";"3";;;;;;;;;;;;;;;;;;;;;
"c1307325";;;"Windows 7";"Rachel's Experiment (D.T.)";"1.0";"2";"1";"1";"2";"1";"1";"2014-10-16 11:24:26.055";"2014-10-16 11:37:28.412";"1";"1";"1";"146";"145";"module.training_block4.exec-2018.GoNoGo4";;;;;;;;;;;;;;;;;;;;;;;;;;;;;;;;;;;;;;;;;;;;;;;;;;;;;;;;;;;"1262";"2014-10-16 11:32:26.271";"ST_correctStop";"18";"1";"FINISHED";"NONE";"success";"0";"1";"2014-10-16 11:32:25.007";"3";;;;;;;;;;;;;;;;;;;;;
"c1307325";;;"Windows 7";"Rachel's Experiment (D.T.)";"1.0";"2";"1";"1";"2";"1";"1";"2014-10-16 11:24:26.055";"2014-10-16 11:37:28.412";"1";"1";"1";"147";"146";"module.training_block4.exec-2018.GoNoGo4";;;;;;;;;;;;;;;;;;;;;;;;;;;;;;;;;;;;;;;;;;;;;;;;;;;;;;;;;;;"1262";"2014-10-16 11:32:28.814";"ST_correctStop";"1";"1";"FINISHED";"NONE";"success";"0";"1";"2014-10-16 11:32:27.550";"1";;;;;;;;;;;;;;;;;;;;;
"c1307325";;;"Windows 7";"Rachel's Experiment (D.T.)";"1.0";"2";"1";"1";"2";"1";"1";"2014-10-16 11:24:26.055";"2014-10-16 11:37:28.412";"1";"1";"1";"148";"147";"module.training_block4.exec-2018.GoNoGo4";;;;;;;;;;;;;;;;;;;;;;;;;;;;;;;;;;;;;;;;;;;;;;;;;;;;;;;;;;;"1261";"2014-10-16 11:32:31.341";"ST_correctStop";"0";"0";"FINISHED";"NONE";"success";"0";"1";"2014-10-16 11:32:30.077";"1";;;;;;;;;;;;;;;;;;;;;
"c1307325";;;"Windows 7";"Rachel's Experiment (D.T.)";"1.0";"2";"1";"1";"2";"1";"1";"2014-10-16 11:24:26.055";"2014-10-16 11:37:28.412";"1";"1";"1";"149";"148";"module.training_block4.exec-2018.GoNoGo4";;;;;;;;;;;;;;;;;;;;;;;;;;;;;;;;;;;;;;;;;;;;;;;;;;;;;;;;;;;"1262";"2014-10-16 11:32:33.868";"NST_correctLoc";"12";"1";"FINISHED";"RIGHT";"success";"669";"0";"2014-10-16 11:32:32.604";"2";;;;;;;;;;;;;;;;;;;;;
"c1307325";;;"Windows 7";"Rachel's Experiment (D.T.)";"1.0";"2";"1";"1";"2";"1";"1";"2014-10-16 11:24:26.055";"2014-10-16 11:37:28.412";"1";"1";"1";"150";"149";"module.training_block4.exec-2018.GoNoGo4";;;;;;;;;;;;;;;;;;;;;;;;;;;;;;;;;;;;;;;;;;;;;;;;;;;;;;;;;;;"1261";"2014-10-16 11:32:36.395";"NST_correctLoc";"15";"0";"FINISHED";"LEFT";"success";"485";"0";"2014-10-16 11:32:35.132";"2";;;;;;;;;;;;;;;;;;;;;
"c1307325";;;"Windows 7";"Rachel's Experiment (D.T.)";"1.0";"2";"1";"1";"2";"1";"1";"2014-10-16 11:24:26.055";"2014-10-16 11:37:28.412";"1";"1";"1";"151";"150";"module.training_block4.exec-2018.GoNoGo4";;;;;;;;;;;;;;;;;;;;;;;;;;;;;;;;;;;;;;;;;;;;;;;;;;;;;;;;;;;"1262";"2014-10-16 11:32:38.922";"ST_failedStop";"25";"1";"FINISHED";"RIGHT";"failure";"654";"1";"2014-10-16 11:32:37.659";"3";;;;;;;;;;;;;;;;;;;;;
"c1307325";;;"Windows 7";"Rachel's Experiment (D.T.)";"1.0";"2";"1";"1";"2";"1";"1";"2014-10-16 11:24:26.055";"2014-10-16 11:37:28.412";"1";"1";"1";"152";"151";"module.training_block4.exec-2018.GoNoGo4";;;;;;;;;;;;;;;;;;;;;;;;;;;;;;;;;;;;;;;;;;;;;;;;;;;;;;;;;;;"1262";"2014-10-16 11:32:41.450";"NST_correctLoc";"24";"1";"FINISHED";"RIGHT";"success";"831";"0";"2014-10-16 11:32:40.186";"3";;;;;;;;;;;;;;;;;;;;;
"c1307325";;;"Windows 7";"Rachel's Experiment (D.T.)";"1.0";"2";"1";"1";"2";"1";"1";"2014-10-16 11:24:26.055";"2014-10-16 11:37:28.412";"1";"1";"1";"153";"152";"module.training_block4.exec-2018.GoNoGo4";;;;;;;;;;;;;;;;;;;;;;;;;;;;;;;;;;;;;;;;;;;;;;;;;;;;;;;;;;;"1262";"2014-10-16 11:32:43.977";"ST_correctStop";"26";"0";"FINISHED";"NONE";"success";"0";"1";"2014-10-16 11:32:42.713";"3";;;;;;;;;;;;;;;;;;;;;
"c1307325";;;"Windows 7";"Rachel's Experiment (D.T.)";"1.0";"2";"1";"1";"2";"1";"1";"2014-10-16 11:24:26.055";"2014-10-16 11:37:28.412";"1";"1";"1";"154";"153";"module.training_block4.exec-2018.GoNoGo4";;;;;;;;;;;;;;;;;;;;;;;;;;;;;;;;;;;;;;;;;;;;;;;;;;;;;;;;;;;"1262";"2014-10-16 11:32:46.504";"NST_correctLoc";"10";"1";"FINISHED";"RIGHT";"success";"744";"0";"2014-10-16 11:32:45.240";"2";;;;;;;;;;;;;;;;;;;;;
"c1307325";;;"Windows 7";"Rachel's Experiment (D.T.)";"1.0";"2";"1";"1";"2";"1";"1";"2014-10-16 11:24:26.055";"2014-10-16 11:37:28.412";"1";"1";"1";"155";"154";"module.training_block4.exec-2018.GoNoGo4";;;;;;;;;;;;;;;;;;;;;;;;;;;;;;;;;;;;;;;;;;;;;;;;;;;;;;;;;;;"1262";"2014-10-16 11:32:49.047";"ST_correctStop";"31";"1";"FINISHED";"NONE";"success";"0";"1";"2014-10-16 11:32:47.783";"3";;;;;;;;;;;;;;;;;;;;;
"c1307325";;;"Windows 7";"Rachel's Experiment (D.T.)";"1.0";"2";"1";"1";"2";"1";"1";"2014-10-16 11:24:26.055";"2014-10-16 11:37:28.412";"1";"1";"1";"156";"155";"module.training_block4.exec-2018.GoNoGo4";;;;;;;;;;;;;;;;;;;;;;;;;;;;;;;;;;;;;;;;;;;;;;;;;;;;;;;;;;;"1262";"2014-10-16 11:32:51.574";"ST_correctStop";"22";"1";"FINISHED";"NONE";"success";"0";"1";"2014-10-16 11:32:50.310";"3";;;;;;;;;;;;;;;;;;;;;
"c1307325";;;"Windows 7";"Rachel's Experiment (D.T.)";"1.0";"2";"1";"1";"2";"1";"1";"2014-10-16 11:24:26.055";"2014-10-16 11:37:28.412";"1";"1";"1";"157";"156";"module.training_block4.exec-2018.GoNoGo4";;;;;;;;;;;;;;;;;;;;;;;;;;;;;;;;;;;;;;;;;;;;;;;;;;;;;;;;;;;"1261";"2014-10-16 11:32:54.101";"NST_correctLoc";"23";"0";"FINISHED";"LEFT";"success";"499";"0";"2014-10-16 11:32:52.838";"3";;;;;;;;;;;;;;;;;;;;;
"c1307325";;;"Windows 7";"Rachel's Experiment (D.T.)";"1.0";"2";"1";"1";"2";"1";"1";"2014-10-16 11:24:26.055";"2014-10-16 11:37:28.412";"1";"1";"1";"158";"157";"module.training_block4.exec-2018.GoNoGo4";;;;;;;;;;;;;;;;;;;;;;;;;;;;;;;;;;;;;;;;;;;;;;;;;;;;;;;;;;;"1261";"2014-10-16 11:32:56.660";"ST_correctStop";"6";"0";"FINISHED";"NONE";"success";"0";"1";"2014-10-16 11:32:55.396";"1";;;;;;;;;;;;;;;;;;;;;
"c1307325";;;"Windows 7";"Rachel's Experiment (D.T.)";"1.0";"2";"1";"1";"2";"1";"1";"2014-10-16 11:24:26.055";"2014-10-16 11:37:28.412";"1";"1";"1";"159";"158";"module.training_block4.exec-2018.GoNoGo4";;;;;;;;;;;;;;;;;;;;;;;;;;;;;;;;;;;;;;;;;;;;;;;;;;;;;;;;;;;"1262";"2014-10-16 11:32:59.187";"ST_correctStop";"2";"0";"FINISHED";"NONE";"success";"0";"1";"2014-10-16 11:32:57.923";"1";;;;;;;;;;;;;;;;;;;;;
"c1307325";;;"Windows 7";"Rachel's Experiment (D.T.)";"1.0";"2";"1";"1";"2";"1";"1";"2014-10-16 11:24:26.055";"2014-10-16 11:37:28.412";"1";"1";"1";"160";"159";"module.devaluation_practice.exec-4334.devalPractice";;;;;;;;;;;;"13998";"2014-10-16 11:33:40.667";"0";"7";"5";"7";"3370";"1924";"5655";"2014-10-16 11:33:26.674";;;;;;;;;;;;;;;;;;;;;;;;;;;;;;;;;;;;;;;;;;;;;;;;;;;;;;;;;;;;;;;;;;;;;;
"c1307325";;;"Windows 7";"Rachel's Experiment (D.T.)";"1.0";"2";"1";"1";"2";"1";"1";"2014-10-16 11:24:26.055";"2014-10-16 11:37:28.412";"1";"1";"1";"161";"160";"module.devaluation_practice.exec-4334.devalPractice";;;;;;;;;;;;"10532";"2014-10-16 11:33:51.229";"1";"7";"6";"6";"3130";"1797";"2584";"2014-10-16 11:33:40.699";;;;;;;;;;;;;;;;;;;;;;;;;;;;;;;;;;;;;;;;;;;;;;;;;;;;;;;;;;;;;;;;;;;;;;
"c1307325";;;"Windows 7";"Rachel's Experiment (D.T.)";"1.0";"2";"1";"1";"2";"1";"1";"2014-10-16 11:24:26.055";"2014-10-16 11:37:28.412";"1";"1";"1";"162";"161";"module.devaluation_practice.exec-4334.devalPractice";;;;;;;;;;;;"8313";"2014-10-16 11:33:59.575";"2";"6";"7";"8";"2114";"1139";"2039";"2014-10-16 11:33:51.260";;;;;;;;;;;;;;;;;;;;;;;;;;;;;;;;;;;;;;;;;;;;;;;;;;;;;;;;;;;;;;;;;;;;;;
"c1307325";;;"Windows 7";"Rachel's Experiment (D.T.)";"1.0";"2";"1";"1";"2";"1";"1";"2014-10-16 11:24:26.055";"2014-10-16 11:37:28.412";"1";"1";"1";"163";"162";"module.devaluation_practice.exec-4334.devalPractice";;;;;;;;;;;;"11813";"2014-10-16 11:34:11.399";"3";"6";"4";"6";"1457";"3050";"4276";"2014-10-16 11:33:59.590";;;;;;;;;;;;;;;;;;;;;;;;;;;;;;;;;;;;;;;;;;;;;;;;;;;;;;;;;;;;;;;;;;;;;;
"c1307325";;;"Windows 7";"Rachel's Experiment (D.T.)";"1.0";"2";"1";"1";"2";"1";"1";"2014-10-16 11:24:26.055";"2014-10-16 11:37:28.412";"1";"1";"1";"164";"163";"module.devaluation_block1.exec-1986.deval1";"9211";"2014-10-16 11:34:24.925";"0";"6";"6";"7";"2225";"1430";"2535";"2014-10-16 11:34:15.721";"1";;;;;;;;;;;;;;;;;;;;;;;;;;;;;;;;;;;;;;;;;;;;;;;;;;;;;;;;;;;;;;;;;;;;;;;;;;;;;;;;
"c1307325";;;"Windows 7";"Rachel's Experiment (D.T.)";"1.0";"2";"1";"1";"2";"1";"1";"2014-10-16 11:24:26.055";"2014-10-16 11:37:28.412";"1";"1";"1";"165";"164";"module.devaluation_block1.exec-1986.deval1";"8181";"2014-10-16 11:34:33.130";"3";"6";"7";"7";"2151";"1284";"1707";"2014-10-16 11:34:24.956";"1";;;;;;;;;;;;;;;;;;;;;;;;;;;;;;;;;;;;;;;;;;;;;;;;;;;;;;;;;;;;;;;;;;;;;;;;;;;;;;;;
"c1307325";;;"Windows 7";"Rachel's Experiment (D.T.)";"1.0";"2";"1";"1";"2";"1";"1";"2014-10-16 11:24:26.055";"2014-10-16 11:37:28.412";"1";"1";"1";"166";"165";"module.devaluation_block1.exec-1986.deval1";"7723";"2014-10-16 11:34:40.883";"11";"6";"5";"5";"1057";"1454";"2193";"2014-10-16 11:34:33.161";"2";;;;;;;;;;;;;;;;;;;;;;;;;;;;;;;;;;;;;;;;;;;;;;;;;;;;;;;;;;;;;;;;;;;;;;;;;;;;;;;;
"c1307325";;;"Windows 7";"Rachel's Experiment (D.T.)";"1.0";"2";"1";"1";"2";"1";"1";"2014-10-16 11:24:26.055";"2014-10-16 11:37:28.412";"1";"1";"1";"167";"166";"module.devaluation_block1.exec-1986.deval1";"7932";"2014-10-16 11:34:48.839";"15";"3";"3";"4";"1871";"1684";"1341";"2014-10-16 11:34:40.899";"2";;;;;;;;;;;;;;;;;;;;;;;;;;;;;;;;;;;;;;;;;;;;;;;;;;;;;;;;;;;;;;;;;;;;;;;;;;;;;;;;
"c1307325";;;"Windows 7";"Rachel's Experiment (D.T.)";"1.0";"2";"1";"1";"2";"1";"1";"2014-10-16 11:24:26.055";"2014-10-16 11:37:28.412";"1";"1";"1";"168";"167";"module.devaluation_block1.exec-1986.deval1";"8293";"2014-10-16 11:34:57.139";"7";"5";"8";"8";"2123";"1650";"1479";"2014-10-16 11:34:48.855";"1";;;;;;;;;;;;;;;;;;;;;;;;;;;;;;;;;;;;;;;;;;;;;;;;;;;;;;;;;;;;;;;;;;;;;;;;;;;;;;;;
"c1307325";;;"Windows 7";"Rachel's Experiment (D.T.)";"1.0";"2";"1";"1";"2";"1";"1";"2014-10-16 11:24:26.055";"2014-10-16 11:37:28.412";"1";"1";"1";"169";"168";"module.devaluation_block1.exec-1986.deval1";"10738";"2014-10-16 11:35:07.903";"24";"6";"7";"7";"2944";"1381";"3393";"2014-10-16 11:34:57.170";"3";;;;;;;;;;;;;;;;;;;;;;;;;;;;;;;;;;;;;;;;;;;;;;;;;;;;;;;;;;;;;;;;;;;;;;;;;;;;;;;;
"c1307325";;;"Windows 7";"Rachel's Experiment (D.T.)";"1.0";"2";"1";"1";"2";"1";"1";"2014-10-16 11:24:26.055";"2014-10-16 11:37:28.412";"1";"1";"1";"170";"169";"module.devaluation_block1.exec-1986.deval1";"7229";"2014-10-16 11:35:15.157";"12";"7";"8";"8";"1924";"1156";"1122";"2014-10-16 11:35:07.918";"2";;;;;;;;;;;;;;;;;;;;;;;;;;;;;;;;;;;;;;;;;;;;;;;;;;;;;;;;;;;;;;;;;;;;;;;;;;;;;;;;
"c1307325";;;"Windows 7";"Rachel's Experiment (D.T.)";"1.0";"2";"1";"1";"2";"1";"1";"2014-10-16 11:24:26.055";"2014-10-16 11:37:28.412";"1";"1";"1";"171";"170";"module.devaluation_block1.exec-1986.deval1";"7828";"2014-10-16 11:35:23.003";"20";"4";"3";"4";"1350";"1525";"1910";"2014-10-16 11:35:15.172";"3";;;;;;;;;;;;;;;;;;;;;;;;;;;;;;;;;;;;;;;;;;;;;;;;;;;;;;;;;;;;;;;;;;;;;;;;;;;;;;;;
"c1307325";;;"Windows 7";"Rachel's Experiment (D.T.)";"1.0";"2";"1";"1";"2";"1";"1";"2014-10-16 11:24:26.055";"2014-10-16 11:37:28.412";"1";"1";"1";"172";"171";"module.devaluation_block1.exec-1986.deval1";"6173";"2014-10-16 11:35:29.197";"9";"7";"7";"8";"969";"922";"1247";"2014-10-16 11:35:23.019";"2";;;;;;;;;;;;;;;;;;;;;;;;;;;;;;;;;;;;;;;;;;;;;;;;;;;;;;;;;;;;;;;;;;;;;;;;;;;;;;;;
"c1307325";;;"Windows 7";"Rachel's Experiment (D.T.)";"1.0";"2";"1";"1";"2";"1";"1";"2014-10-16 11:24:26.055";"2014-10-16 11:37:28.412";"1";"1";"1";"173";"172";"module.devaluation_block1.exec-1986.deval1";"7000";"2014-10-16 11:35:36.232";"21";"7";"8";"7";"2134";"1137";"698";"2014-10-16 11:35:29.228";"3";;;;;;;;;;;;;;;;;;;;;;;;;;;;;;;;;;;;;;;;;;;;;;;;;;;;;;;;;;;;;;;;;;;;;;;;;;;;;;;;
"c1307325";;;"Windows 7";"Rachel's Experiment (D.T.)";"1.0";"2";"1";"1";"2";"1";"1";"2014-10-16 11:24:26.055";"2014-10-16 11:37:28.412";"1";"1";"1";"174";"173";"module.devaluation_block1.exec-1986.deval1";"7740";"2014-10-16 11:35:44.001";"10";"7";"6";"6";"1043";"2158";"1499";"2014-10-16 11:35:36.264";"2";;;;;;;;;;;;;;;;;;;;;;;;;;;;;;;;;;;;;;;;;;;;;;;;;;;;;;;;;;;;;;;;;;;;;;;;;;;;;;;;
"c1307325";;;"Windows 7";"Rachel's Experiment (D.T.)";"1.0";"2";"1";"1";"2";"1";"1";"2014-10-16 11:24:26.055";"2014-10-16 11:37:28.412";"1";"1";"1";"175";"174";"module.devaluation_block1.exec-1986.deval1";"5645";"2014-10-16 11:35:49.664";"14";"6";"7";"7";"689";"1177";"752";"2014-10-16 11:35:44.017";"2";;;;;;;;;;;;;;;;;;;;;;;;;;;;;;;;;;;;;;;;;;;;;;;;;;;;;;;;;;;;;;;;;;;;;;;;;;;;;;;;
"c1307325";;;"Windows 7";"Rachel's Experiment (D.T.)";"1.0";"2";"1";"1";"2";"1";"1";"2014-10-16 11:24:26.055";"2014-10-16 11:37:28.412";"1";"1";"1";"176";"175";"module.devaluation_block1.exec-1986.deval1";"6132";"2014-10-16 11:35:55.810";"2";"4";"7";"7";"802";"1151";"1156";"2014-10-16 11:35:49.680";"1";;;;;;;;;;;;;;;;;;;;;;;;;;;;;;;;;;;;;;;;;;;;;;;;;;;;;;;;;;;;;;;;;;;;;;;;;;;;;;;;
"c1307325";;;"Windows 7";"Rachel's Experiment (D.T.)";"1.0";"2";"1";"1";"2";"1";"1";"2014-10-16 11:24:26.055";"2014-10-16 11:37:28.412";"1";"1";"1";"177";"176";"module.devaluation_block1.exec-1986.deval1";"5693";"2014-10-16 11:36:01.536";"17";"4";"6";"6";"729";"888";"1048";"2014-10-16 11:35:55.842";"2";;;;;;;;;;;;;;;;;;;;;;;;;;;;;;;;;;;;;;;;;;;;;;;;;;;;;;;;;;;;;;;;;;;;;;;;;;;;;;;;
"c1307325";;;"Windows 7";"Rachel's Experiment (D.T.)";"1.0";"2";"1";"1";"2";"1";"1";"2014-10-16 11:24:26.055";"2014-10-16 11:37:28.412";"1";"1";"1";"178";"177";"module.devaluation_block1.exec-1986.deval1";"5747";"2014-10-16 11:36:07.292";"23";"7";"7";"8";"771";"603";"1348";"2014-10-16 11:36:01.551";"3";;;;;;;;;;;;;;;;;;;;;;;;;;;;;;;;;;;;;;;;;;;;;;;;;;;;;;;;;;;;;;;;;;;;;;;;;;;;;;;;
"c1307325";;;"Windows 7";"Rachel's Experiment (D.T.)";"1.0";"2";"1";"1";"2";"1";"1";"2014-10-16 11:24:26.055";"2014-10-16 11:37:28.412";"1";"1";"1";"179";"178";"module.devaluation_block1.exec-1986.deval1";"7877";"2014-10-16 11:36:15.201";"13";"6";"7";"7";"3455";"731";"660";"2014-10-16 11:36:07.323";"2";;;;;;;;;;;;;;;;;;;;;;;;;;;;;;;;;;;;;;;;;;;;;;;;;;;;;;;;;;;;;;;;;;;;;;;;;;;;;;;;
"c1307325";;;"Windows 7";"Rachel's Experiment (D.T.)";"1.0";"2";"1";"1";"2";"1";"1";"2014-10-16 11:24:26.055";"2014-10-16 11:37:28.412";"1";"1";"1";"180";"179";"module.devaluation_block1.exec-1986.deval1";"6315";"2014-10-16 11:36:21.550";"5";"6";"7";"8";"1226";"889";"1174";"2014-10-16 11:36:15.232";"1";;;;;;;;;;;;;;;;;;;;;;;;;;;;;;;;;;;;;;;;;;;;;;;;;;;;;;;;;;;;;;;;;;;;;;;;;;;;;;;;
"c1307325";;;"Windows 7";"Rachel's Experiment (D.T.)";"1.0";"2";"1";"1";"2";"1";"1";"2014-10-16 11:24:26.055";"2014-10-16 11:37:28.412";"1";"1";"1";"181";"180";"module.devaluation_block1.exec-1986.deval1";"6796";"2014-10-16 11:36:28.383";"18";"4";"7";"7";"1428";"655";"1686";"2014-10-16 11:36:21.582";"3";;;;;;;;;;;;;;;;;;;;;;;;;;;;;;;;;;;;;;;;;;;;;;;;;;;;;;;;;;;;;;;;;;;;;;;;;;;;;;;;
"c1307325";;;"Windows 7";"Rachel's Experiment (D.T.)";"1.0";"2";"1";"1";"2";"1";"1";"2014-10-16 11:24:26.055";"2014-10-16 11:37:28.412";"1";"1";"1";"182";"181";"module.devaluation_block1.exec-1986.deval1";"5949";"2014-10-16 11:36:34.358";"6";"5";"7";"7";"1300";"898";"722";"2014-10-16 11:36:28.414";"1";;;;;;;;;;;;;;;;;;;;;;;;;;;;;;;;;;;;;;;;;;;;;;;;;;;;;;;;;;;;;;;;;;;;;;;;;;;;;;;;
"c1307325";;;"Windows 7";"Rachel's Experiment (D.T.)";"1.0";"2";"1";"1";"2";"1";"1";"2014-10-16 11:24:26.055";"2014-10-16 11:37:28.412";"1";"1";"1";"183";"182";"module.devaluation_block1.exec-1986.deval1";"5934";"2014-10-16 11:36:40.317";"16";"4";"6";"6";"1245";"602";"1042";"2014-10-16 11:36:34.389";"2";;;;;;;;;;;;;;;;;;;;;;;;;;;;;;;;;;;;;;;;;;;;;;;;;;;;;;;;;;;;;;;;;;;;;;;;;;;;;;;;
"c1307325";;;"Windows 7";"Rachel's Experiment (D.T.)";"1.0";"2";"1";"1";"2";"1";"1";"2014-10-16 11:24:26.055";"2014-10-16 11:37:28.412";"1";"1";"1";"184";"183";"module.devaluation_block1.exec-1986.deval1";"9397";"2014-10-16 11:36:49.740";"19";"5";"4";"6";"3101";"1282";"1978";"2014-10-16 11:36:40.333";"3";;;;;;;;;;;;;;;;;;;;;;;;;;;;;;;;;;;;;;;;;;;;;;;;;;;;;;;;;;;;;;;;;;;;;;;;;;;;;;;;
"c1307325";;;"Windows 7";"Rachel's Experiment (D.T.)";"1.0";"2";"1";"1";"2";"1";"1";"2014-10-16 11:24:26.055";"2014-10-16 11:37:28.412";"1";"1";"1";"185";"184";"module.devaluation_block1.exec-1986.deval1";"6501";"2014-10-16 11:36:56.260";"22";"6";"8";"8";"1127";"1484";"857";"2014-10-16 11:36:49.755";"3";;;;;;;;;;;;;;;;;;;;;;;;;;;;;;;;;;;;;;;;;;;;;;;;;;;;;;;;;;;;;;;;;;;;;;;;;;;;;;;;
"c1307325";;;"Windows 7";"Rachel's Experiment (D.T.)";"1.0";"2";"1";"1";"2";"1";"1";"2014-10-16 11:24:26.055";"2014-10-16 11:37:28.412";"1";"1";"1";"186";"185";"module.devaluation_block1.exec-1986.deval1";"6444";"2014-10-16 11:37:02.719";"25";"6";"7";"8";"1630";"741";"1045";"2014-10-16 11:36:56.276";"3";;;;;;;;;;;;;;;;;;;;;;;;;;;;;;;;;;;;;;;;;;;;;;;;;;;;;;;;;;;;;;;;;;;;;;;;;;;;;;;;
"c1307325";;;"Windows 7";"Rachel's Experiment (D.T.)";"1.0";"2";"1";"1";"2";"1";"1";"2014-10-16 11:24:26.055";"2014-10-16 11:37:28.412";"1";"1";"1";"187";"186";"module.devaluation_block1.exec-1986.deval1";"5117";"2014-10-16 11:37:07.851";"4";"6";"7";"7";"643";"588";"857";"2014-10-16 11:37:02.734";"1";;;;;;;;;;;;;;;;;;;;;;;;;;;;;;;;;;;;;;;;;;;;;;;;;;;;;;;;;;;;;;;;;;;;;;;;;;;;;;;;
"c1307325";;;"Windows 7";"Rachel's Experiment (D.T.)";"1.0";"2";"1";"1";"2";"1";"1";"2014-10-16 11:24:26.055";"2014-10-16 11:37:28.412";"1";"1";"1";"188";"187";"module.devaluation_block1.exec-1986.deval1";"6598";"2014-10-16 11:37:14.466";"1";"3";"6";"6";"751";"2025";"799";"2014-10-16 11:37:07.867";"1";;;;;;;;;;;;;;;;;;;;;;;;;;;;;;;;;;;;;;;;;;;;;;;;;;;;;;;;;;;;;;;;;;;;;;;;;;;;;;;;
"c1307325";;;"Windows 7";"Rachel's Experiment (D.T.)";"1.0";"2";"1";"1";"2";"1";"1";"2014-10-16 11:24:26.055";"2014-10-16 11:37:28.412";"1";"1";"1";"189";"188";"module.devaluation_block1.exec-1986.deval1";"5973";"2014-10-16 11:37:20.472";"26";"7";"7";"8";"1161";"638";"1148";"2014-10-16 11:37:14.497";"3";;;;;;;;;;;;;;;;;;;;;;;;;;;;;;;;;;;;;;;;;;;;;;;;;;;;;;;;;;;;;;;;;;;;;;;;;;;;;;;;
"c1307325";;;"Windows 7";"Rachel's Experiment (D.T.)";"1.0";"2";"1";"1";"2";"1";"1";"2014-10-16 11:24:26.055";"2014-10-16 11:37:28.412";"1";"1";"1";"190";"189";"module.devaluation_block1.exec-1986.deval1";"5637";"2014-10-16 11:37:26.119";"8";"7";"8";"7";"930";"1006";"671";"2014-10-16 11:37:20.487";"1";;;;;;;;;;;;;;;;;;;;;;;;;;;;;;;;;;;;;;;;;;;;;;;;;;;;;;;;;;;;;;;;;;;;;;;;;;;;;;;;
