"user.name";"user.yearOfBirth";"user.sex";"user.osName";"module.name";"module.version";"module.online.subject.code";"module.online.study.id";"module.online.module.nr";"module.online.group.nr";"session.id";"session.index";"session.startTime";"session.endTime";"session.completed";"session.node-1520.conditionType";"session.node-3496.DevalQorder";"trial.id";"trial.index";"trial.name";"trial.deval1.durationTime";"trial.deval1.endTime";"trial.deval1.icon";"trial.deval1.Resp_Attractive";"trial.deval1.Resp_Eat";"trial.deval1.Resp_Taste";"trial.deval1.RT_Attractive";"trial.deval1.RT_Eat";"trial.deval1.RT_Taste";"trial.deval1.startTime";"trial.deval1.stimulus type";"trial.devalPractice.durationTime";"trial.devalPractice.endTime";"trial.devalPractice.icon";"trial.devalPractice.Resp_Attractive";"trial.devalPractice.Resp_Eat";"trial.devalPractice.Resp_Taste";"trial.devalPractice.RT_Attractive";"trial.devalPractice.RT_Eat";"trial.devalPractice.RT_Taste";"trial.devalPractice.startTime";"trial.devalPractice.stimulus type";"trial.GoNoGo1.durationTime";"trial.GoNoGo1.endTime";"trial.GoNoGo1.Error Type";"trial.GoNoGo1.icon";"trial.GoNoGo1.location";"trial.GoNoGo1.outcome";"trial.GoNoGo1.response";"trial.GoNoGo1.result";"trial.GoNoGo1.RT";"trial.GoNoGo1.signal";"trial.GoNoGo1.startTime";"trial.GoNoGo1.stimulus type";"trial.GoNoGo2.durationTime";"trial.GoNoGo2.endTime";"trial.GoNoGo2.Error Type";"trial.GoNoGo2.icon";"trial.GoNoGo2.location";"trial.GoNoGo2.outcome";"trial.GoNoGo2.response";"trial.GoNoGo2.result";"trial.GoNoGo2.RT";"trial.GoNoGo2.signal";"trial.GoNoGo2.startTime";"trial.GoNoGo2.stimulus type";"trial.GoNoGo3.durationTime";"trial.GoNoGo3.endTime";"trial.GoNoGo3.Error Type";"trial.GoNoGo3.icon";"trial.GoNoGo3.location";"trial.GoNoGo3.outcome";"trial.GoNoGo3.response";"trial.GoNoGo3.result";"trial.GoNoGo3.RT";"trial.GoNoGo3.signal";"trial.GoNoGo3.startTime";"trial.GoNoGo3.stimulus type";"trial.GoNoGo4.durationTime";"trial.GoNoGo4.endTime";"trial.GoNoGo4.Error Type";"trial.GoNoGo4.icon";"trial.GoNoGo4.location";"trial.GoNoGo4.outcome";"trial.GoNoGo4.response";"trial.GoNoGo4.result";"trial.GoNoGo4.RT";"trial.GoNoGo4.signal";"trial.GoNoGo4.startTime";"trial.GoNoGo4.stimulus type";"trial.GoNoGo_Practice.durationTime";"trial.GoNoGo_Practice.endTime";"trial.GoNoGo_Practice.icon";"trial.GoNoGo_Practice.location";"trial.GoNoGo_Practice.outcome";"trial.GoNoGo_Practice.response";"trial.GoNoGo_Practice.result";"trial.GoNoGo_Practice.RT";"trial.GoNoGo_Practice.signal";"trial.GoNoGo_Practice.startTime";"trial.GoNoGo_Practice.stimulus type";"trial.GoNoGo_Tutorial.durationTime";"trial.GoNoGo_Tutorial.endTime";"trial.GoNoGo_Tutorial.icon";"trial.GoNoGo_Tutorial.location";"trial.GoNoGo_Tutorial.outcome";"trial.GoNoGo_Tutorial.response";"trial.GoNoGo_Tutorial.result";"trial.GoNoGo_Tutorial.RT";"trial.GoNoGo_Tutorial.signal";"trial.GoNoGo_Tutorial.startTime"
"c1309647";"1994";;"Windows 7";"Rachel's Experiment (D.T.)";"1.0";"2";"1";"1";"2";"1";"1";"2014-10-16 12:24:23.566";"2014-10-16 12:37:52.958";"1";"1";"1";"1";"0";"module.GoNoGotutorial.exec-9041.GoNoGo_Tutorial";;;;;;;;;;;;;;;;;;;;;;;;;;;;;;;;;;;;;;;;;;;;;;;;;;;;;;;;;;;;;;;;;;;;;;;;;;;;;;;;;;"3998";"2014-10-16 12:25:46.808";"leftResponse";"0";"FINISHED";"LEFT";"success";"3812";"0";"2014-10-16 12:25:42.798"
"c1309647";"1994";;"Windows 7";"Rachel's Experiment (D.T.)";"1.0";"2";"1";"1";"2";"1";"1";"2014-10-16 12:24:23.566";"2014-10-16 12:37:52.958";"1";"1";"1";"2";"1";"module.GoNoGotutorial.exec-9041.GoNoGo_Tutorial";;;;;;;;;;;;;;;;;;;;;;;;;;;;;;;;;;;;;;;;;;;;;;;;;;;;;;;;;;;;;;;;;;;;;;;;;;;;;;;;;;"4003";"2014-10-16 12:25:52.112";"rightResponse";"1";"FINISHED";"RIGHT";"success";"705";"0";"2014-10-16 12:25:48.102"
"c1309647";"1994";;"Windows 7";"Rachel's Experiment (D.T.)";"1.0";"2";"1";"1";"2";"1";"1";"2014-10-16 12:24:23.566";"2014-10-16 12:37:52.958";"1";"1";"1";"3";"2";"module.GoNoGotutorial.exec-9041.GoNoGo_Tutorial";;;;;;;;;;;;;;;;;;;;;;;;;;;;;;;;;;;;;;;;;;;;;;;;;;;;;;;;;;;;;;;;;;;;;;;;;;;;;;;;;;"4003";"2014-10-16 12:25:57.400";"signalResponse";"0";"FINISHED";"NONE";"success";"0";"1";"2014-10-16 12:25:53.391"
"c1309647";"1994";;"Windows 7";"Rachel's Experiment (D.T.)";"1.0";"2";"1";"1";"2";"1";"1";"2014-10-16 12:24:23.566";"2014-10-16 12:37:52.958";"1";"1";"1";"4";"3";"module.GoNoGopractice.exec-8969.GoNoGo_Practice";;;;;;;;;;;;;;;;;;;;;;;;;;;;;;;;;;;;;;;;;;;;;;;;;;;;;;;;;;;;;;;;;;;;;;;"1959";"2014-10-16 12:26:05.574";"18";"0";"FINISHED";"LEFT";"success";"486";"0";"2014-10-16 12:26:03.609";"3";;;;;;;;;;
"c1309647";"1994";;"Windows 7";"Rachel's Experiment (D.T.)";"1.0";"2";"1";"1";"2";"1";"1";"2014-10-16 12:24:23.566";"2014-10-16 12:37:52.958";"1";"1";"1";"5";"4";"module.GoNoGopractice.exec-8969.GoNoGo_Practice";;;;;;;;;;;;;;;;;;;;;;;;;;;;;;;;;;;;;;;;;;;;;;;;;;;;;;;;;;;;;;;;;;;;;;;"1959";"2014-10-16 12:26:08.835";"21";"1";"FINISHED";"RIGHT";"success";"506";"0";"2014-10-16 12:26:06.869";"3";;;;;;;;;;
"c1309647";"1994";;"Windows 7";"Rachel's Experiment (D.T.)";"1.0";"2";"1";"1";"2";"1";"1";"2014-10-16 12:24:23.566";"2014-10-16 12:37:52.958";"1";"1";"1";"6";"5";"module.GoNoGopractice.exec-8969.GoNoGo_Practice";;;;;;;;;;;;;;;;;;;;;;;;;;;;;;;;;;;;;;;;;;;;;;;;;;;;;;;;;;;;;;;;;;;;;;;"1959";"2014-10-16 12:26:12.080";"14";"1";"FINISHED";"NONE";"success";"0";"1";"2014-10-16 12:26:10.114";"2";;;;;;;;;;
"c1309647";"1994";;"Windows 7";"Rachel's Experiment (D.T.)";"1.0";"2";"1";"1";"2";"1";"1";"2014-10-16 12:24:23.566";"2014-10-16 12:37:52.958";"1";"1";"1";"7";"6";"module.GoNoGopractice.exec-8969.GoNoGo_Practice";;;;;;;;;;;;;;;;;;;;;;;;;;;;;;;;;;;;;;;;;;;;;;;;;;;;;;;;;;;;;;;;;;;;;;;"1959";"2014-10-16 12:26:15.324";"26";"0";"FINISHED";"LEFT";"success";"536";"0";"2014-10-16 12:26:13.359";"3";;;;;;;;;;
"c1309647";"1994";;"Windows 7";"Rachel's Experiment (D.T.)";"1.0";"2";"1";"1";"2";"1";"1";"2014-10-16 12:24:23.566";"2014-10-16 12:37:52.958";"1";"1";"1";"8";"7";"module.GoNoGopractice.exec-8969.GoNoGo_Practice";;;;;;;;;;;;;;;;;;;;;;;;;;;;;;;;;;;;;;;;;;;;;;;;;;;;;;;;;;;;;;;;;;;;;;;"1959";"2014-10-16 12:26:18.569";"2";"0";"FINISHED";"LEFT";"success";"604";"0";"2014-10-16 12:26:16.604";"1";;;;;;;;;;
"c1309647";"1994";;"Windows 7";"Rachel's Experiment (D.T.)";"1.0";"2";"1";"1";"2";"1";"1";"2014-10-16 12:24:23.566";"2014-10-16 12:37:52.958";"1";"1";"1";"9";"8";"module.GoNoGopractice.exec-8969.GoNoGo_Practice";;;;;;;;;;;;;;;;;;;;;;;;;;;;;;;;;;;;;;;;;;;;;;;;;;;;;;;;;;;;;;;;;;;;;;;"1960";"2014-10-16 12:26:21.814";"30";"0";"FINISHED";"NONE";"success";"0";"1";"2014-10-16 12:26:19.848";"3";;;;;;;;;;
"c1309647";"1994";;"Windows 7";"Rachel's Experiment (D.T.)";"1.0";"2";"1";"1";"2";"1";"1";"2014-10-16 12:24:23.566";"2014-10-16 12:37:52.958";"1";"1";"1";"10";"9";"module.GoNoGopractice.exec-8969.GoNoGo_Practice";;;;;;;;;;;;;;;;;;;;;;;;;;;;;;;;;;;;;;;;;;;;;;;;;;;;;;;;;;;;;;;;;;;;;;;"1959";"2014-10-16 12:26:25.059";"6";"1";"FINISHED";"NONE";"success";"0";"1";"2014-10-16 12:26:23.093";"1";;;;;;;;;;
"c1309647";"1994";;"Windows 7";"Rachel's Experiment (D.T.)";"1.0";"2";"1";"1";"2";"1";"1";"2014-10-16 12:24:23.566";"2014-10-16 12:37:52.958";"1";"1";"1";"11";"10";"module.GoNoGopractice.exec-8969.GoNoGo_Practice";;;;;;;;;;;;;;;;;;;;;;;;;;;;;;;;;;;;;;;;;;;;;;;;;;;;;;;;;;;;;;;;;;;;;;;"1960";"2014-10-16 12:26:28.304";"34";"0";"FINISHED";"LEFT";"success";"518";"0";"2014-10-16 12:26:26.338";"3";;;;;;;;;;
"c1309647";"1994";;"Windows 7";"Rachel's Experiment (D.T.)";"1.0";"2";"1";"1";"2";"1";"1";"2014-10-16 12:24:23.566";"2014-10-16 12:37:52.958";"1";"1";"1";"12";"11";"module.GoNoGopractice.exec-8969.GoNoGo_Practice";;;;;;;;;;;;;;;;;;;;;;;;;;;;;;;;;;;;;;;;;;;;;;;;;;;;;;;;;;;;;;;;;;;;;;;"1959";"2014-10-16 12:26:31.548";"23";"1";"FINISHED";"RIGHT";"success";"544";"0";"2014-10-16 12:26:29.583";"3";;;;;;;;;;
"c1309647";"1994";;"Windows 7";"Rachel's Experiment (D.T.)";"1.0";"2";"1";"1";"2";"1";"1";"2014-10-16 12:24:23.566";"2014-10-16 12:37:52.958";"1";"1";"1";"13";"12";"module.GoNoGopractice.exec-8969.GoNoGo_Practice";;;;;;;;;;;;;;;;;;;;;;;;;;;;;;;;;;;;;;;;;;;;;;;;;;;;;;;;;;;;;;;;;;;;;;;"1959";"2014-10-16 12:26:34.793";"13";"0";"FINISHED";"NONE";"success";"0";"1";"2014-10-16 12:26:32.828";"2";;;;;;;;;;
"c1309647";"1994";;"Windows 7";"Rachel's Experiment (D.T.)";"1.0";"2";"1";"1";"2";"1";"1";"2014-10-16 12:24:23.566";"2014-10-16 12:37:52.958";"1";"1";"1";"14";"13";"module.GoNoGopractice.exec-8969.GoNoGo_Practice";;;;;;;;;;;;;;;;;;;;;;;;;;;;;;;;;;;;;;;;;;;;;;;;;;;;;;;;;;;;;;;;;;;;;;;"1959";"2014-10-16 12:26:38.132";"3";"1";"FINISHED";"RIGHT";"success";"488";"0";"2014-10-16 12:26:36.166";"1";;;;;;;;;;
"c1309647";"1994";;"Windows 7";"Rachel's Experiment (D.T.)";"1.0";"2";"1";"1";"2";"1";"1";"2014-10-16 12:24:23.566";"2014-10-16 12:37:52.958";"1";"1";"1";"15";"14";"module.GoNoGopractice.exec-8969.GoNoGo_Practice";;;;;;;;;;;;;;;;;;;;;;;;;;;;;;;;;;;;;;;;;;;;;;;;;;;;;;;;;;;;;;;;;;;;;;;"1959";"2014-10-16 12:26:41.376";"27";"1";"FINISHED";"NONE";"success";"0";"1";"2014-10-16 12:26:39.411";"3";;;;;;;;;;
"c1309647";"1994";;"Windows 7";"Rachel's Experiment (D.T.)";"1.0";"2";"1";"1";"2";"1";"1";"2014-10-16 12:24:23.566";"2014-10-16 12:37:52.958";"1";"1";"1";"16";"15";"module.training_block1.exec-6035.GoNoGo1";;;;;;;;;;;;;;;;;;;;;;;"1256";"2014-10-16 12:26:51.688";"ST_correctStop";"0";"1";"FINISHED";"NONE";"success";"0";"1";"2014-10-16 12:26:50.424";"1";;;;;;;;;;;;;;;;;;;;;;;;;;;;;;;;;;;;;;;;;;;;;;;;;;;;;;;;;
"c1309647";"1994";;"Windows 7";"Rachel's Experiment (D.T.)";"1.0";"2";"1";"1";"2";"1";"1";"2014-10-16 12:24:23.566";"2014-10-16 12:37:52.958";"1";"1";"1";"17";"16";"module.training_block1.exec-6035.GoNoGo1";;;;;;;;;;;;;;;;;;;;;;;"1257";"2014-10-16 12:26:54.231";"NST_correctLoc";"13";"0";"FINISHED";"LEFT";"success";"520";"0";"2014-10-16 12:26:52.967";"2";;;;;;;;;;;;;;;;;;;;;;;;;;;;;;;;;;;;;;;;;;;;;;;;;;;;;;;;;
"c1309647";"1994";;"Windows 7";"Rachel's Experiment (D.T.)";"1.0";"2";"1";"1";"2";"1";"1";"2014-10-16 12:24:23.566";"2014-10-16 12:37:52.958";"1";"1";"1";"18";"17";"module.training_block1.exec-6035.GoNoGo1";;;;;;;;;;;;;;;;;;;;;;;"1257";"2014-10-16 12:26:56.774";"ST_correctStop";"2";"0";"FINISHED";"NONE";"success";"0";"1";"2014-10-16 12:26:55.510";"1";;;;;;;;;;;;;;;;;;;;;;;;;;;;;;;;;;;;;;;;;;;;;;;;;;;;;;;;;
"c1309647";"1994";;"Windows 7";"Rachel's Experiment (D.T.)";"1.0";"2";"1";"1";"2";"1";"1";"2014-10-16 12:24:23.566";"2014-10-16 12:37:52.958";"1";"1";"1";"19";"18";"module.training_block1.exec-6035.GoNoGo1";;;;;;;;;;;;;;;;;;;;;;;"1257";"2014-10-16 12:26:59.316";"ST_correctStop";"4";"0";"FINISHED";"NONE";"success";"0";"1";"2014-10-16 12:26:58.053";"1";;;;;;;;;;;;;;;;;;;;;;;;;;;;;;;;;;;;;;;;;;;;;;;;;;;;;;;;;
"c1309647";"1994";;"Windows 7";"Rachel's Experiment (D.T.)";"1.0";"2";"1";"1";"2";"1";"1";"2014-10-16 12:24:23.566";"2014-10-16 12:37:52.958";"1";"1";"1";"20";"19";"module.training_block1.exec-6035.GoNoGo1";;;;;;;;;;;;;;;;;;;;;;;"1261";"2014-10-16 12:27:01.859";"ST_correctStop";"3";"1";"FINISHED";"NONE";"success";"0";"1";"2014-10-16 12:27:00.596";"1";;;;;;;;;;;;;;;;;;;;;;;;;;;;;;;;;;;;;;;;;;;;;;;;;;;;;;;;;
"c1309647";"1994";;"Windows 7";"Rachel's Experiment (D.T.)";"1.0";"2";"1";"1";"2";"1";"1";"2014-10-16 12:24:23.566";"2014-10-16 12:37:52.958";"1";"1";"1";"21";"20";"module.training_block1.exec-6035.GoNoGo1";;;;;;;;;;;;;;;;;;;;;;;"1257";"2014-10-16 12:27:04.402";"NST_correctLoc";"11";"1";"FINISHED";"RIGHT";"success";"460";"0";"2014-10-16 12:27:03.138";"2";;;;;;;;;;;;;;;;;;;;;;;;;;;;;;;;;;;;;;;;;;;;;;;;;;;;;;;;;
"c1309647";"1994";;"Windows 7";"Rachel's Experiment (D.T.)";"1.0";"2";"1";"1";"2";"1";"1";"2014-10-16 12:24:23.566";"2014-10-16 12:37:52.958";"1";"1";"1";"22";"21";"module.training_block1.exec-6035.GoNoGo1";;;;;;;;;;;;;;;;;;;;;;;"1257";"2014-10-16 12:27:06.945";"NST_correctLoc";"17";"1";"FINISHED";"RIGHT";"success";"501";"0";"2014-10-16 12:27:05.681";"2";;;;;;;;;;;;;;;;;;;;;;;;;;;;;;;;;;;;;;;;;;;;;;;;;;;;;;;;;
"c1309647";"1994";;"Windows 7";"Rachel's Experiment (D.T.)";"1.0";"2";"1";"1";"2";"1";"1";"2014-10-16 12:24:23.566";"2014-10-16 12:37:52.958";"1";"1";"1";"23";"22";"module.training_block1.exec-6035.GoNoGo1";;;;;;;;;;;;;;;;;;;;;;;"1258";"2014-10-16 12:27:09.488";"ST_correctStop";"5";"0";"FINISHED";"NONE";"success";"0";"1";"2014-10-16 12:27:08.224";"1";;;;;;;;;;;;;;;;;;;;;;;;;;;;;;;;;;;;;;;;;;;;;;;;;;;;;;;;;
"c1309647";"1994";;"Windows 7";"Rachel's Experiment (D.T.)";"1.0";"2";"1";"1";"2";"1";"1";"2014-10-16 12:24:23.566";"2014-10-16 12:37:52.958";"1";"1";"1";"24";"23";"module.training_block1.exec-6035.GoNoGo1";;;;;;;;;;;;;;;;;;;;;;;"1257";"2014-10-16 12:27:12.030";"ST_correctStop";"32";"0";"FINISHED";"NONE";"success";"0";"1";"2014-10-16 12:27:10.767";"3";;;;;;;;;;;;;;;;;;;;;;;;;;;;;;;;;;;;;;;;;;;;;;;;;;;;;;;;;
"c1309647";"1994";;"Windows 7";"Rachel's Experiment (D.T.)";"1.0";"2";"1";"1";"2";"1";"1";"2014-10-16 12:24:23.566";"2014-10-16 12:37:52.958";"1";"1";"1";"25";"24";"module.training_block1.exec-6035.GoNoGo1";;;;;;;;;;;;;;;;;;;;;;;"1257";"2014-10-16 12:27:14.573";"NST_correctLoc";"34";"1";"FINISHED";"RIGHT";"success";"537";"0";"2014-10-16 12:27:13.310";"3";;;;;;;;;;;;;;;;;;;;;;;;;;;;;;;;;;;;;;;;;;;;;;;;;;;;;;;;;
"c1309647";"1994";;"Windows 7";"Rachel's Experiment (D.T.)";"1.0";"2";"1";"1";"2";"1";"1";"2014-10-16 12:24:23.566";"2014-10-16 12:37:52.958";"1";"1";"1";"26";"25";"module.training_block1.exec-6035.GoNoGo1";;;;;;;;;;;;;;;;;;;;;;;"1257";"2014-10-16 12:27:17.116";"NST_correctLoc";"9";"0";"FINISHED";"LEFT";"success";"530";"0";"2014-10-16 12:27:15.852";"2";;;;;;;;;;;;;;;;;;;;;;;;;;;;;;;;;;;;;;;;;;;;;;;;;;;;;;;;;
"c1309647";"1994";;"Windows 7";"Rachel's Experiment (D.T.)";"1.0";"2";"1";"1";"2";"1";"1";"2014-10-16 12:24:23.566";"2014-10-16 12:37:52.958";"1";"1";"1";"27";"26";"module.training_block1.exec-6035.GoNoGo1";;;;;;;;;;;;;;;;;;;;;;;"1257";"2014-10-16 12:27:19.659";"NST_correctLoc";"16";"1";"FINISHED";"RIGHT";"success";"420";"0";"2014-10-16 12:27:18.395";"2";;;;;;;;;;;;;;;;;;;;;;;;;;;;;;;;;;;;;;;;;;;;;;;;;;;;;;;;;
"c1309647";"1994";;"Windows 7";"Rachel's Experiment (D.T.)";"1.0";"2";"1";"1";"2";"1";"1";"2014-10-16 12:24:23.566";"2014-10-16 12:37:52.958";"1";"1";"1";"28";"27";"module.training_block1.exec-6035.GoNoGo1";;;;;;;;;;;;;;;;;;;;;;;"1258";"2014-10-16 12:27:22.202";"NST_correctLoc";"19";"1";"FINISHED";"RIGHT";"success";"477";"0";"2014-10-16 12:27:20.938";"3";;;;;;;;;;;;;;;;;;;;;;;;;;;;;;;;;;;;;;;;;;;;;;;;;;;;;;;;;
"c1309647";"1994";;"Windows 7";"Rachel's Experiment (D.T.)";"1.0";"2";"1";"1";"2";"1";"1";"2014-10-16 12:24:23.566";"2014-10-16 12:37:52.958";"1";"1";"1";"29";"28";"module.training_block1.exec-6035.GoNoGo1";;;;;;;;;;;;;;;;;;;;;;;"1258";"2014-10-16 12:27:24.744";"ST_correctStop";"1";"1";"FINISHED";"NONE";"success";"0";"1";"2014-10-16 12:27:23.481";"1";;;;;;;;;;;;;;;;;;;;;;;;;;;;;;;;;;;;;;;;;;;;;;;;;;;;;;;;;
"c1309647";"1994";;"Windows 7";"Rachel's Experiment (D.T.)";"1.0";"2";"1";"1";"2";"1";"1";"2014-10-16 12:24:23.566";"2014-10-16 12:37:52.958";"1";"1";"1";"30";"29";"module.training_block1.exec-6035.GoNoGo1";;;;;;;;;;;;;;;;;;;;;;;"1257";"2014-10-16 12:27:27.287";"NST_correctLoc";"14";"1";"FINISHED";"RIGHT";"success";"551";"0";"2014-10-16 12:27:26.024";"2";;;;;;;;;;;;;;;;;;;;;;;;;;;;;;;;;;;;;;;;;;;;;;;;;;;;;;;;;
"c1309647";"1994";;"Windows 7";"Rachel's Experiment (D.T.)";"1.0";"2";"1";"1";"2";"1";"1";"2014-10-16 12:24:23.566";"2014-10-16 12:37:52.958";"1";"1";"1";"31";"30";"module.training_block1.exec-6035.GoNoGo1";;;;;;;;;;;;;;;;;;;;;;;"1258";"2014-10-16 12:27:29.830";"NST_correctLoc";"18";"0";"FINISHED";"LEFT";"success";"481";"0";"2014-10-16 12:27:28.566";"3";;;;;;;;;;;;;;;;;;;;;;;;;;;;;;;;;;;;;;;;;;;;;;;;;;;;;;;;;
"c1309647";"1994";;"Windows 7";"Rachel's Experiment (D.T.)";"1.0";"2";"1";"1";"2";"1";"1";"2014-10-16 12:24:23.566";"2014-10-16 12:37:52.958";"1";"1";"1";"32";"31";"module.training_block1.exec-6035.GoNoGo1";;;;;;;;;;;;;;;;;;;;;;;"1258";"2014-10-16 12:27:32.373";"NST_correctLoc";"35";"0";"FINISHED";"LEFT";"success";"474";"0";"2014-10-16 12:27:31.109";"3";;;;;;;;;;;;;;;;;;;;;;;;;;;;;;;;;;;;;;;;;;;;;;;;;;;;;;;;;
"c1309647";"1994";;"Windows 7";"Rachel's Experiment (D.T.)";"1.0";"2";"1";"1";"2";"1";"1";"2014-10-16 12:24:23.566";"2014-10-16 12:37:52.958";"1";"1";"1";"33";"32";"module.training_block1.exec-6035.GoNoGo1";;;;;;;;;;;;;;;;;;;;;;;"1257";"2014-10-16 12:27:34.916";"NST_correctLoc";"21";"0";"FINISHED";"LEFT";"success";"434";"0";"2014-10-16 12:27:33.652";"3";;;;;;;;;;;;;;;;;;;;;;;;;;;;;;;;;;;;;;;;;;;;;;;;;;;;;;;;;
"c1309647";"1994";;"Windows 7";"Rachel's Experiment (D.T.)";"1.0";"2";"1";"1";"2";"1";"1";"2014-10-16 12:24:23.566";"2014-10-16 12:37:52.958";"1";"1";"1";"34";"33";"module.training_block1.exec-6035.GoNoGo1";;;;;;;;;;;;;;;;;;;;;;;"1257";"2014-10-16 12:27:37.459";"ST_correctStop";"31";"0";"FINISHED";"NONE";"success";"0";"1";"2014-10-16 12:27:36.195";"3";;;;;;;;;;;;;;;;;;;;;;;;;;;;;;;;;;;;;;;;;;;;;;;;;;;;;;;;;
"c1309647";"1994";;"Windows 7";"Rachel's Experiment (D.T.)";"1.0";"2";"1";"1";"2";"1";"1";"2014-10-16 12:24:23.566";"2014-10-16 12:37:52.958";"1";"1";"1";"35";"34";"module.training_block1.exec-6035.GoNoGo1";;;;;;;;;;;;;;;;;;;;;;;"1261";"2014-10-16 12:27:40.001";"ST_correctStop";"27";"1";"FINISHED";"NONE";"success";"0";"1";"2014-10-16 12:27:38.738";"3";;;;;;;;;;;;;;;;;;;;;;;;;;;;;;;;;;;;;;;;;;;;;;;;;;;;;;;;;
"c1309647";"1994";;"Windows 7";"Rachel's Experiment (D.T.)";"1.0";"2";"1";"1";"2";"1";"1";"2014-10-16 12:24:23.566";"2014-10-16 12:37:52.958";"1";"1";"1";"36";"35";"module.training_block1.exec-6035.GoNoGo1";;;;;;;;;;;;;;;;;;;;;;;"1258";"2014-10-16 12:27:42.544";"NST_correctLoc";"28";"1";"FINISHED";"RIGHT";"success";"406";"0";"2014-10-16 12:27:41.281";"3";;;;;;;;;;;;;;;;;;;;;;;;;;;;;;;;;;;;;;;;;;;;;;;;;;;;;;;;;
"c1309647";"1994";;"Windows 7";"Rachel's Experiment (D.T.)";"1.0";"2";"1";"1";"2";"1";"1";"2014-10-16 12:24:23.566";"2014-10-16 12:37:52.958";"1";"1";"1";"37";"36";"module.training_block1.exec-6035.GoNoGo1";;;;;;;;;;;;;;;;;;;;;;;"1257";"2014-10-16 12:27:45.087";"ST_failedStop";"25";"0";"FINISHED";"LEFT";"failure";"479";"1";"2014-10-16 12:27:43.823";"3";;;;;;;;;;;;;;;;;;;;;;;;;;;;;;;;;;;;;;;;;;;;;;;;;;;;;;;;;
"c1309647";"1994";;"Windows 7";"Rachel's Experiment (D.T.)";"1.0";"2";"1";"1";"2";"1";"1";"2014-10-16 12:24:23.566";"2014-10-16 12:37:52.958";"1";"1";"1";"38";"37";"module.training_block1.exec-6035.GoNoGo1";;;;;;;;;;;;;;;;;;;;;;;"1258";"2014-10-16 12:27:47.630";"ST_correctStop";"33";"1";"FINISHED";"NONE";"success";"0";"1";"2014-10-16 12:27:46.366";"3";;;;;;;;;;;;;;;;;;;;;;;;;;;;;;;;;;;;;;;;;;;;;;;;;;;;;;;;;
"c1309647";"1994";;"Windows 7";"Rachel's Experiment (D.T.)";"1.0";"2";"1";"1";"2";"1";"1";"2014-10-16 12:24:23.566";"2014-10-16 12:37:52.958";"1";"1";"1";"39";"38";"module.training_block1.exec-6035.GoNoGo1";;;;;;;;;;;;;;;;;;;;;;;"1257";"2014-10-16 12:27:50.173";"ST_correctStop";"20";"0";"FINISHED";"NONE";"success";"0";"1";"2014-10-16 12:27:48.909";"3";;;;;;;;;;;;;;;;;;;;;;;;;;;;;;;;;;;;;;;;;;;;;;;;;;;;;;;;;
"c1309647";"1994";;"Windows 7";"Rachel's Experiment (D.T.)";"1.0";"2";"1";"1";"2";"1";"1";"2014-10-16 12:24:23.566";"2014-10-16 12:37:52.958";"1";"1";"1";"40";"39";"module.training_block1.exec-6035.GoNoGo1";;;;;;;;;;;;;;;;;;;;;;;"1257";"2014-10-16 12:27:52.715";"ST_correctStop";"8";"0";"FINISHED";"NONE";"success";"0";"1";"2014-10-16 12:27:51.452";"1";;;;;;;;;;;;;;;;;;;;;;;;;;;;;;;;;;;;;;;;;;;;;;;;;;;;;;;;;
"c1309647";"1994";;"Windows 7";"Rachel's Experiment (D.T.)";"1.0";"2";"1";"1";"2";"1";"1";"2014-10-16 12:24:23.566";"2014-10-16 12:37:52.958";"1";"1";"1";"41";"40";"module.training_block1.exec-6035.GoNoGo1";;;;;;;;;;;;;;;;;;;;;;;"1258";"2014-10-16 12:27:55.258";"NST_correctLoc";"30";"1";"FINISHED";"RIGHT";"success";"516";"0";"2014-10-16 12:27:53.995";"3";;;;;;;;;;;;;;;;;;;;;;;;;;;;;;;;;;;;;;;;;;;;;;;;;;;;;;;;;
"c1309647";"1994";;"Windows 7";"Rachel's Experiment (D.T.)";"1.0";"2";"1";"1";"2";"1";"1";"2014-10-16 12:24:23.566";"2014-10-16 12:37:52.958";"1";"1";"1";"42";"41";"module.training_block1.exec-6035.GoNoGo1";;;;;;;;;;;;;;;;;;;;;;;"1258";"2014-10-16 12:27:57.801";"NST_correctLoc";"12";"0";"FINISHED";"LEFT";"success";"390";"0";"2014-10-16 12:27:56.537";"2";;;;;;;;;;;;;;;;;;;;;;;;;;;;;;;;;;;;;;;;;;;;;;;;;;;;;;;;;
"c1309647";"1994";;"Windows 7";"Rachel's Experiment (D.T.)";"1.0";"2";"1";"1";"2";"1";"1";"2014-10-16 12:24:23.566";"2014-10-16 12:37:52.958";"1";"1";"1";"43";"42";"module.training_block1.exec-6035.GoNoGo1";;;;;;;;;;;;;;;;;;;;;;;"1253";"2014-10-16 12:28:00.344";"NST_correctLoc";"10";"1";"FINISHED";"RIGHT";"success";"506";"0";"2014-10-16 12:27:59.080";"2";;;;;;;;;;;;;;;;;;;;;;;;;;;;;;;;;;;;;;;;;;;;;;;;;;;;;;;;;
"c1309647";"1994";;"Windows 7";"Rachel's Experiment (D.T.)";"1.0";"2";"1";"1";"2";"1";"1";"2014-10-16 12:24:23.566";"2014-10-16 12:37:52.958";"1";"1";"1";"44";"43";"module.training_block1.exec-6035.GoNoGo1";;;;;;;;;;;;;;;;;;;;;;;"1258";"2014-10-16 12:28:02.887";"NST_correctLoc";"24";"0";"FINISHED";"LEFT";"success";"440";"0";"2014-10-16 12:28:01.623";"3";;;;;;;;;;;;;;;;;;;;;;;;;;;;;;;;;;;;;;;;;;;;;;;;;;;;;;;;;
"c1309647";"1994";;"Windows 7";"Rachel's Experiment (D.T.)";"1.0";"2";"1";"1";"2";"1";"1";"2014-10-16 12:24:23.566";"2014-10-16 12:37:52.958";"1";"1";"1";"45";"44";"module.training_block1.exec-6035.GoNoGo1";;;;;;;;;;;;;;;;;;;;;;;"1257";"2014-10-16 12:28:05.429";"NST_correctLoc";"15";"0";"FINISHED";"LEFT";"success";"409";"0";"2014-10-16 12:28:04.166";"2";;;;;;;;;;;;;;;;;;;;;;;;;;;;;;;;;;;;;;;;;;;;;;;;;;;;;;;;;
"c1309647";"1994";;"Windows 7";"Rachel's Experiment (D.T.)";"1.0";"2";"1";"1";"2";"1";"1";"2014-10-16 12:24:23.566";"2014-10-16 12:37:52.958";"1";"1";"1";"46";"45";"module.training_block1.exec-6035.GoNoGo1";;;;;;;;;;;;;;;;;;;;;;;"1257";"2014-10-16 12:28:07.972";"ST_correctStop";"6";"1";"FINISHED";"NONE";"success";"0";"1";"2014-10-16 12:28:06.709";"1";;;;;;;;;;;;;;;;;;;;;;;;;;;;;;;;;;;;;;;;;;;;;;;;;;;;;;;;;
"c1309647";"1994";;"Windows 7";"Rachel's Experiment (D.T.)";"1.0";"2";"1";"1";"2";"1";"1";"2014-10-16 12:24:23.566";"2014-10-16 12:37:52.958";"1";"1";"1";"47";"46";"module.training_block1.exec-6035.GoNoGo1";;;;;;;;;;;;;;;;;;;;;;;"1258";"2014-10-16 12:28:10.515";"ST_correctStop";"22";"0";"FINISHED";"NONE";"success";"0";"1";"2014-10-16 12:28:09.251";"3";;;;;;;;;;;;;;;;;;;;;;;;;;;;;;;;;;;;;;;;;;;;;;;;;;;;;;;;;
"c1309647";"1994";;"Windows 7";"Rachel's Experiment (D.T.)";"1.0";"2";"1";"1";"2";"1";"1";"2014-10-16 12:24:23.566";"2014-10-16 12:37:52.958";"1";"1";"1";"48";"47";"module.training_block1.exec-6035.GoNoGo1";;;;;;;;;;;;;;;;;;;;;;;"1257";"2014-10-16 12:28:13.058";"ST_correctStop";"7";"1";"FINISHED";"NONE";"success";"0";"1";"2014-10-16 12:28:11.794";"1";;;;;;;;;;;;;;;;;;;;;;;;;;;;;;;;;;;;;;;;;;;;;;;;;;;;;;;;;
"c1309647";"1994";;"Windows 7";"Rachel's Experiment (D.T.)";"1.0";"2";"1";"1";"2";"1";"1";"2014-10-16 12:24:23.566";"2014-10-16 12:37:52.958";"1";"1";"1";"49";"48";"module.training_block1.exec-6035.GoNoGo1";;;;;;;;;;;;;;;;;;;;;;;"1257";"2014-10-16 12:28:15.601";"NST_correctLoc";"26";"0";"FINISHED";"LEFT";"success";"477";"0";"2014-10-16 12:28:14.337";"3";;;;;;;;;;;;;;;;;;;;;;;;;;;;;;;;;;;;;;;;;;;;;;;;;;;;;;;;;
"c1309647";"1994";;"Windows 7";"Rachel's Experiment (D.T.)";"1.0";"2";"1";"1";"2";"1";"1";"2014-10-16 12:24:23.566";"2014-10-16 12:37:52.958";"1";"1";"1";"50";"49";"module.training_block1.exec-6035.GoNoGo1";;;;;;;;;;;;;;;;;;;;;;;"1257";"2014-10-16 12:28:18.143";"ST_failedStop";"23";"0";"FINISHED";"LEFT";"failure";"407";"1";"2014-10-16 12:28:16.880";"3";;;;;;;;;;;;;;;;;;;;;;;;;;;;;;;;;;;;;;;;;;;;;;;;;;;;;;;;;
"c1309647";"1994";;"Windows 7";"Rachel's Experiment (D.T.)";"1.0";"2";"1";"1";"2";"1";"1";"2014-10-16 12:24:23.566";"2014-10-16 12:37:52.958";"1";"1";"1";"51";"50";"module.training_block1.exec-6035.GoNoGo1";;;;;;;;;;;;;;;;;;;;;;;"1258";"2014-10-16 12:28:20.686";"ST_correctStop";"29";"1";"FINISHED";"NONE";"success";"0";"1";"2014-10-16 12:28:19.423";"3";;;;;;;;;;;;;;;;;;;;;;;;;;;;;;;;;;;;;;;;;;;;;;;;;;;;;;;;;
"c1309647";"1994";;"Windows 7";"Rachel's Experiment (D.T.)";"1.0";"2";"1";"1";"2";"1";"1";"2014-10-16 12:24:23.566";"2014-10-16 12:37:52.958";"1";"1";"1";"52";"51";"module.training_block2.exec-4701.GoNoGo2";;;;;;;;;;;;;;;;;;;;;;;;;;;;;;;;;;;"1261";"2014-10-16 12:28:31.747";"ST_correctStop";"29";"1";"FINISHED";"NONE";"success";"0";"1";"2014-10-16 12:28:30.483";"3";;;;;;;;;;;;;;;;;;;;;;;;;;;;;;;;;;;;;;;;;;;;;
"c1309647";"1994";;"Windows 7";"Rachel's Experiment (D.T.)";"1.0";"2";"1";"1";"2";"1";"1";"2014-10-16 12:24:23.566";"2014-10-16 12:37:52.958";"1";"1";"1";"53";"52";"module.training_block2.exec-4701.GoNoGo2";;;;;;;;;;;;;;;;;;;;;;;;;;;;;;;;;;;"1261";"2014-10-16 12:28:34.289";"NST_correctLoc";"24";"1";"FINISHED";"RIGHT";"success";"456";"0";"2014-10-16 12:28:33.026";"3";;;;;;;;;;;;;;;;;;;;;;;;;;;;;;;;;;;;;;;;;;;;;
"c1309647";"1994";;"Windows 7";"Rachel's Experiment (D.T.)";"1.0";"2";"1";"1";"2";"1";"1";"2014-10-16 12:24:23.566";"2014-10-16 12:37:52.958";"1";"1";"1";"54";"53";"module.training_block2.exec-4701.GoNoGo2";;;;;;;;;;;;;;;;;;;;;;;;;;;;;;;;;;;"1261";"2014-10-16 12:28:36.832";"ST_correctStop";"23";"0";"FINISHED";"NONE";"success";"0";"1";"2014-10-16 12:28:35.569";"3";;;;;;;;;;;;;;;;;;;;;;;;;;;;;;;;;;;;;;;;;;;;;
"c1309647";"1994";;"Windows 7";"Rachel's Experiment (D.T.)";"1.0";"2";"1";"1";"2";"1";"1";"2014-10-16 12:24:23.566";"2014-10-16 12:37:52.958";"1";"1";"1";"55";"54";"module.training_block2.exec-4701.GoNoGo2";;;;;;;;;;;;;;;;;;;;;;;;;;;;;;;;;;;"1261";"2014-10-16 12:28:39.375";"NST_correctLoc";"11";"0";"FINISHED";"LEFT";"success";"467";"0";"2014-10-16 12:28:38.111";"2";;;;;;;;;;;;;;;;;;;;;;;;;;;;;;;;;;;;;;;;;;;;;
"c1309647";"1994";;"Windows 7";"Rachel's Experiment (D.T.)";"1.0";"2";"1";"1";"2";"1";"1";"2014-10-16 12:24:23.566";"2014-10-16 12:37:52.958";"1";"1";"1";"56";"55";"module.training_block2.exec-4701.GoNoGo2";;;;;;;;;;;;;;;;;;;;;;;;;;;;;;;;;;;"1261";"2014-10-16 12:28:41.918";"ST_correctStop";"7";"1";"FINISHED";"NONE";"success";"0";"1";"2014-10-16 12:28:40.654";"1";;;;;;;;;;;;;;;;;;;;;;;;;;;;;;;;;;;;;;;;;;;;;
"c1309647";"1994";;"Windows 7";"Rachel's Experiment (D.T.)";"1.0";"2";"1";"1";"2";"1";"1";"2014-10-16 12:24:23.566";"2014-10-16 12:37:52.958";"1";"1";"1";"57";"56";"module.training_block2.exec-4701.GoNoGo2";;;;;;;;;;;;;;;;;;;;;;;;;;;;;;;;;;;"1261";"2014-10-16 12:28:44.461";"ST_failedStop";"25";"0";"FINISHED";"LEFT";"failure";"477";"1";"2014-10-16 12:28:43.197";"3";;;;;;;;;;;;;;;;;;;;;;;;;;;;;;;;;;;;;;;;;;;;;
"c1309647";"1994";;"Windows 7";"Rachel's Experiment (D.T.)";"1.0";"2";"1";"1";"2";"1";"1";"2014-10-16 12:24:23.566";"2014-10-16 12:37:52.958";"1";"1";"1";"58";"57";"module.training_block2.exec-4701.GoNoGo2";;;;;;;;;;;;;;;;;;;;;;;;;;;;;;;;;;;"1261";"2014-10-16 12:28:47.003";"ST_correctStop";"4";"1";"FINISHED";"NONE";"success";"0";"1";"2014-10-16 12:28:45.740";"1";;;;;;;;;;;;;;;;;;;;;;;;;;;;;;;;;;;;;;;;;;;;;
"c1309647";"1994";;"Windows 7";"Rachel's Experiment (D.T.)";"1.0";"2";"1";"1";"2";"1";"1";"2014-10-16 12:24:23.566";"2014-10-16 12:37:52.958";"1";"1";"1";"59";"58";"module.training_block2.exec-4701.GoNoGo2";;;;;;;;;;;;;;;;;;;;;;;;;;;;;;;;;;;"1261";"2014-10-16 12:28:49.546";"NST_correctLoc";"10";"0";"FINISHED";"LEFT";"success";"567";"0";"2014-10-16 12:28:48.283";"2";;;;;;;;;;;;;;;;;;;;;;;;;;;;;;;;;;;;;;;;;;;;;
"c1309647";"1994";;"Windows 7";"Rachel's Experiment (D.T.)";"1.0";"2";"1";"1";"2";"1";"1";"2014-10-16 12:24:23.566";"2014-10-16 12:37:52.958";"1";"1";"1";"60";"59";"module.training_block2.exec-4701.GoNoGo2";;;;;;;;;;;;;;;;;;;;;;;;;;;;;;;;;;;"1261";"2014-10-16 12:28:52.089";"ST_correctStop";"31";"0";"FINISHED";"NONE";"success";"0";"1";"2014-10-16 12:28:50.825";"3";;;;;;;;;;;;;;;;;;;;;;;;;;;;;;;;;;;;;;;;;;;;;
"c1309647";"1994";;"Windows 7";"Rachel's Experiment (D.T.)";"1.0";"2";"1";"1";"2";"1";"1";"2014-10-16 12:24:23.566";"2014-10-16 12:37:52.958";"1";"1";"1";"61";"60";"module.training_block2.exec-4701.GoNoGo2";;;;;;;;;;;;;;;;;;;;;;;;;;;;;;;;;;;"1257";"2014-10-16 12:28:54.632";"NST_correctLoc";"14";"0";"FINISHED";"LEFT";"success";"502";"0";"2014-10-16 12:28:53.368";"2";;;;;;;;;;;;;;;;;;;;;;;;;;;;;;;;;;;;;;;;;;;;;
"c1309647";"1994";;"Windows 7";"Rachel's Experiment (D.T.)";"1.0";"2";"1";"1";"2";"1";"1";"2014-10-16 12:24:23.566";"2014-10-16 12:37:52.958";"1";"1";"1";"62";"61";"module.training_block2.exec-4701.GoNoGo2";;;;;;;;;;;;;;;;;;;;;;;;;;;;;;;;;;;"1261";"2014-10-16 12:28:57.175";"NST_correctLoc";"15";"1";"FINISHED";"RIGHT";"success";"419";"0";"2014-10-16 12:28:55.911";"2";;;;;;;;;;;;;;;;;;;;;;;;;;;;;;;;;;;;;;;;;;;;;
"c1309647";"1994";;"Windows 7";"Rachel's Experiment (D.T.)";"1.0";"2";"1";"1";"2";"1";"1";"2014-10-16 12:24:23.566";"2014-10-16 12:37:52.958";"1";"1";"1";"63";"62";"module.training_block2.exec-4701.GoNoGo2";;;;;;;;;;;;;;;;;;;;;;;;;;;;;;;;;;;"1261";"2014-10-16 12:28:59.717";"NST_correctLoc";"22";"0";"FINISHED";"LEFT";"success";"924";"0";"2014-10-16 12:28:58.454";"3";;;;;;;;;;;;;;;;;;;;;;;;;;;;;;;;;;;;;;;;;;;;;
"c1309647";"1994";;"Windows 7";"Rachel's Experiment (D.T.)";"1.0";"2";"1";"1";"2";"1";"1";"2014-10-16 12:24:23.566";"2014-10-16 12:37:52.958";"1";"1";"1";"64";"63";"module.training_block2.exec-4701.GoNoGo2";;;;;;;;;;;;;;;;;;;;;;;;;;;;;;;;;;;"1261";"2014-10-16 12:29:02.260";"NST_correctLoc";"12";"1";"FINISHED";"RIGHT";"success";"429";"0";"2014-10-16 12:29:00.997";"2";;;;;;;;;;;;;;;;;;;;;;;;;;;;;;;;;;;;;;;;;;;;;
"c1309647";"1994";;"Windows 7";"Rachel's Experiment (D.T.)";"1.0";"2";"1";"1";"2";"1";"1";"2014-10-16 12:24:23.566";"2014-10-16 12:37:52.958";"1";"1";"1";"65";"64";"module.training_block2.exec-4701.GoNoGo2";;;;;;;;;;;;;;;;;;;;;;;;;;;;;;;;;;;"1261";"2014-10-16 12:29:04.803";"NST_correctLoc";"18";"0";"FINISHED";"LEFT";"success";"446";"0";"2014-10-16 12:29:03.539";"3";;;;;;;;;;;;;;;;;;;;;;;;;;;;;;;;;;;;;;;;;;;;;
"c1309647";"1994";;"Windows 7";"Rachel's Experiment (D.T.)";"1.0";"2";"1";"1";"2";"1";"1";"2014-10-16 12:24:23.566";"2014-10-16 12:37:52.958";"1";"1";"1";"66";"65";"module.training_block2.exec-4701.GoNoGo2";;;;;;;;;;;;;;;;;;;;;;;;;;;;;;;;;;;"1261";"2014-10-16 12:29:07.346";"NST_correctLoc";"20";"1";"FINISHED";"RIGHT";"success";"424";"0";"2014-10-16 12:29:06.082";"3";;;;;;;;;;;;;;;;;;;;;;;;;;;;;;;;;;;;;;;;;;;;;
"c1309647";"1994";;"Windows 7";"Rachel's Experiment (D.T.)";"1.0";"2";"1";"1";"2";"1";"1";"2014-10-16 12:24:23.566";"2014-10-16 12:37:52.958";"1";"1";"1";"67";"66";"module.training_block2.exec-4701.GoNoGo2";;;;;;;;;;;;;;;;;;;;;;;;;;;;;;;;;;;"1261";"2014-10-16 12:29:09.889";"ST_correctStop";"1";"0";"FINISHED";"NONE";"success";"0";"1";"2014-10-16 12:29:08.625";"1";;;;;;;;;;;;;;;;;;;;;;;;;;;;;;;;;;;;;;;;;;;;;
"c1309647";"1994";;"Windows 7";"Rachel's Experiment (D.T.)";"1.0";"2";"1";"1";"2";"1";"1";"2014-10-16 12:24:23.566";"2014-10-16 12:37:52.958";"1";"1";"1";"68";"67";"module.training_block2.exec-4701.GoNoGo2";;;;;;;;;;;;;;;;;;;;;;;;;;;;;;;;;;;"1261";"2014-10-16 12:29:12.431";"ST_correctStop";"6";"0";"FINISHED";"NONE";"success";"0";"1";"2014-10-16 12:29:11.168";"1";;;;;;;;;;;;;;;;;;;;;;;;;;;;;;;;;;;;;;;;;;;;;
"c1309647";"1994";;"Windows 7";"Rachel's Experiment (D.T.)";"1.0";"2";"1";"1";"2";"1";"1";"2014-10-16 12:24:23.566";"2014-10-16 12:37:52.958";"1";"1";"1";"69";"68";"module.training_block2.exec-4701.GoNoGo2";;;;;;;;;;;;;;;;;;;;;;;;;;;;;;;;;;;"1261";"2014-10-16 12:29:14.974";"ST_correctStop";"26";"0";"FINISHED";"NONE";"success";"0";"1";"2014-10-16 12:29:13.711";"3";;;;;;;;;;;;;;;;;;;;;;;;;;;;;;;;;;;;;;;;;;;;;
"c1309647";"1994";;"Windows 7";"Rachel's Experiment (D.T.)";"1.0";"2";"1";"1";"2";"1";"1";"2014-10-16 12:24:23.566";"2014-10-16 12:37:52.958";"1";"1";"1";"70";"69";"module.training_block2.exec-4701.GoNoGo2";;;;;;;;;;;;;;;;;;;;;;;;;;;;;;;;;;;"1261";"2014-10-16 12:29:17.517";"NST_correctLoc";"13";"1";"FINISHED";"RIGHT";"success";"340";"0";"2014-10-16 12:29:16.253";"2";;;;;;;;;;;;;;;;;;;;;;;;;;;;;;;;;;;;;;;;;;;;;
"c1309647";"1994";;"Windows 7";"Rachel's Experiment (D.T.)";"1.0";"2";"1";"1";"2";"1";"1";"2014-10-16 12:24:23.566";"2014-10-16 12:37:52.958";"1";"1";"1";"71";"70";"module.training_block2.exec-4701.GoNoGo2";;;;;;;;;;;;;;;;;;;;;;;;;;;;;;;;;;;"1261";"2014-10-16 12:29:20.060";"NST_correctLoc";"9";"1";"FINISHED";"RIGHT";"success";"446";"0";"2014-10-16 12:29:18.796";"2";;;;;;;;;;;;;;;;;;;;;;;;;;;;;;;;;;;;;;;;;;;;;
"c1309647";"1994";;"Windows 7";"Rachel's Experiment (D.T.)";"1.0";"2";"1";"1";"2";"1";"1";"2014-10-16 12:24:23.566";"2014-10-16 12:37:52.958";"1";"1";"1";"72";"71";"module.training_block2.exec-4701.GoNoGo2";;;;;;;;;;;;;;;;;;;;;;;;;;;;;;;;;;;"1261";"2014-10-16 12:29:22.603";"ST_correctStop";"2";"1";"FINISHED";"NONE";"success";"0";"1";"2014-10-16 12:29:21.339";"1";;;;;;;;;;;;;;;;;;;;;;;;;;;;;;;;;;;;;;;;;;;;;
"c1309647";"1994";;"Windows 7";"Rachel's Experiment (D.T.)";"1.0";"2";"1";"1";"2";"1";"1";"2014-10-16 12:24:23.566";"2014-10-16 12:37:52.958";"1";"1";"1";"73";"72";"module.training_block2.exec-4701.GoNoGo2";;;;;;;;;;;;;;;;;;;;;;;;;;;;;;;;;;;"1261";"2014-10-16 12:29:25.146";"ST_correctStop";"0";"1";"FINISHED";"NONE";"success";"0";"1";"2014-10-16 12:29:23.882";"1";;;;;;;;;;;;;;;;;;;;;;;;;;;;;;;;;;;;;;;;;;;;;
"c1309647";"1994";;"Windows 7";"Rachel's Experiment (D.T.)";"1.0";"2";"1";"1";"2";"1";"1";"2014-10-16 12:24:23.566";"2014-10-16 12:37:52.958";"1";"1";"1";"74";"73";"module.training_block2.exec-4701.GoNoGo2";;;;;;;;;;;;;;;;;;;;;;;;;;;;;;;;;;;"1261";"2014-10-16 12:29:27.688";"ST_correctStop";"28";"0";"FINISHED";"NONE";"success";"0";"1";"2014-10-16 12:29:26.425";"3";;;;;;;;;;;;;;;;;;;;;;;;;;;;;;;;;;;;;;;;;;;;;
"c1309647";"1994";;"Windows 7";"Rachel's Experiment (D.T.)";"1.0";"2";"1";"1";"2";"1";"1";"2014-10-16 12:24:23.566";"2014-10-16 12:37:52.958";"1";"1";"1";"75";"74";"module.training_block2.exec-4701.GoNoGo2";;;;;;;;;;;;;;;;;;;;;;;;;;;;;;;;;;;"1261";"2014-10-16 12:29:30.231";"NST_correctLoc";"16";"0";"FINISHED";"LEFT";"success";"402";"0";"2014-10-16 12:29:28.968";"2";;;;;;;;;;;;;;;;;;;;;;;;;;;;;;;;;;;;;;;;;;;;;
"c1309647";"1994";;"Windows 7";"Rachel's Experiment (D.T.)";"1.0";"2";"1";"1";"2";"1";"1";"2014-10-16 12:24:23.566";"2014-10-16 12:37:52.958";"1";"1";"1";"76";"75";"module.training_block2.exec-4701.GoNoGo2";;;;;;;;;;;;;;;;;;;;;;;;;;;;;;;;;;;"1261";"2014-10-16 12:29:32.774";"ST_correctStop";"3";"1";"FINISHED";"NONE";"success";"0";"1";"2014-10-16 12:29:31.510";"1";;;;;;;;;;;;;;;;;;;;;;;;;;;;;;;;;;;;;;;;;;;;;
"c1309647";"1994";;"Windows 7";"Rachel's Experiment (D.T.)";"1.0";"2";"1";"1";"2";"1";"1";"2014-10-16 12:24:23.566";"2014-10-16 12:37:52.958";"1";"1";"1";"77";"76";"module.training_block2.exec-4701.GoNoGo2";;;;;;;;;;;;;;;;;;;;;;;;;;;;;;;;;;;"1261";"2014-10-16 12:29:35.317";"NST_correctLoc";"35";"1";"FINISHED";"RIGHT";"success";"397";"0";"2014-10-16 12:29:34.053";"3";;;;;;;;;;;;;;;;;;;;;;;;;;;;;;;;;;;;;;;;;;;;;
"c1309647";"1994";;"Windows 7";"Rachel's Experiment (D.T.)";"1.0";"2";"1";"1";"2";"1";"1";"2014-10-16 12:24:23.566";"2014-10-16 12:37:52.958";"1";"1";"1";"78";"77";"module.training_block2.exec-4701.GoNoGo2";;;;;;;;;;;;;;;;;;;;;;;;;;;;;;;;;;;"1261";"2014-10-16 12:29:37.860";"ST_correctStop";"8";"0";"FINISHED";"NONE";"success";"0";"1";"2014-10-16 12:29:36.596";"1";;;;;;;;;;;;;;;;;;;;;;;;;;;;;;;;;;;;;;;;;;;;;
"c1309647";"1994";;"Windows 7";"Rachel's Experiment (D.T.)";"1.0";"2";"1";"1";"2";"1";"1";"2014-10-16 12:24:23.566";"2014-10-16 12:37:52.958";"1";"1";"1";"79";"78";"module.training_block2.exec-4701.GoNoGo2";;;;;;;;;;;;;;;;;;;;;;;;;;;;;;;;;;;"1261";"2014-10-16 12:29:40.402";"ST_correctStop";"5";"1";"FINISHED";"NONE";"success";"0";"1";"2014-10-16 12:29:39.139";"1";;;;;;;;;;;;;;;;;;;;;;;;;;;;;;;;;;;;;;;;;;;;;
"c1309647";"1994";;"Windows 7";"Rachel's Experiment (D.T.)";"1.0";"2";"1";"1";"2";"1";"1";"2014-10-16 12:24:23.566";"2014-10-16 12:37:52.958";"1";"1";"1";"80";"79";"module.training_block2.exec-4701.GoNoGo2";;;;;;;;;;;;;;;;;;;;;;;;;;;;;;;;;;;"1261";"2014-10-16 12:29:42.945";"NST_correctLoc";"30";"1";"FINISHED";"RIGHT";"success";"560";"0";"2014-10-16 12:29:41.682";"3";;;;;;;;;;;;;;;;;;;;;;;;;;;;;;;;;;;;;;;;;;;;;
"c1309647";"1994";;"Windows 7";"Rachel's Experiment (D.T.)";"1.0";"2";"1";"1";"2";"1";"1";"2014-10-16 12:24:23.566";"2014-10-16 12:37:52.958";"1";"1";"1";"81";"80";"module.training_block2.exec-4701.GoNoGo2";;;;;;;;;;;;;;;;;;;;;;;;;;;;;;;;;;;"1261";"2014-10-16 12:29:45.488";"NST_correctLoc";"32";"0";"FINISHED";"LEFT";"success";"409";"0";"2014-10-16 12:29:44.224";"3";;;;;;;;;;;;;;;;;;;;;;;;;;;;;;;;;;;;;;;;;;;;;
"c1309647";"1994";;"Windows 7";"Rachel's Experiment (D.T.)";"1.0";"2";"1";"1";"2";"1";"1";"2014-10-16 12:24:23.566";"2014-10-16 12:37:52.958";"1";"1";"1";"82";"81";"module.training_block2.exec-4701.GoNoGo2";;;;;;;;;;;;;;;;;;;;;;;;;;;;;;;;;;;"1261";"2014-10-16 12:29:48.031";"NST_correctLoc";"33";"0";"FINISHED";"LEFT";"success";"515";"0";"2014-10-16 12:29:46.767";"3";;;;;;;;;;;;;;;;;;;;;;;;;;;;;;;;;;;;;;;;;;;;;
"c1309647";"1994";;"Windows 7";"Rachel's Experiment (D.T.)";"1.0";"2";"1";"1";"2";"1";"1";"2014-10-16 12:24:23.566";"2014-10-16 12:37:52.958";"1";"1";"1";"83";"82";"module.training_block2.exec-4701.GoNoGo2";;;;;;;;;;;;;;;;;;;;;;;;;;;;;;;;;;;"1261";"2014-10-16 12:29:50.574";"NST_correctLoc";"19";"1";"FINISHED";"RIGHT";"success";"396";"0";"2014-10-16 12:29:49.310";"3";;;;;;;;;;;;;;;;;;;;;;;;;;;;;;;;;;;;;;;;;;;;;
"c1309647";"1994";;"Windows 7";"Rachel's Experiment (D.T.)";"1.0";"2";"1";"1";"2";"1";"1";"2014-10-16 12:24:23.566";"2014-10-16 12:37:52.958";"1";"1";"1";"84";"83";"module.training_block2.exec-4701.GoNoGo2";;;;;;;;;;;;;;;;;;;;;;;;;;;;;;;;;;;"1261";"2014-10-16 12:29:53.132";"ST_correctStop";"21";"1";"FINISHED";"NONE";"success";"0";"1";"2014-10-16 12:29:51.868";"3";;;;;;;;;;;;;;;;;;;;;;;;;;;;;;;;;;;;;;;;;;;;;
"c1309647";"1994";;"Windows 7";"Rachel's Experiment (D.T.)";"1.0";"2";"1";"1";"2";"1";"1";"2014-10-16 12:24:23.566";"2014-10-16 12:37:52.958";"1";"1";"1";"85";"84";"module.training_block2.exec-4701.GoNoGo2";;;;;;;;;;;;;;;;;;;;;;;;;;;;;;;;;;;"1261";"2014-10-16 12:29:55.675";"NST_correctLoc";"17";"0";"FINISHED";"LEFT";"success";"583";"0";"2014-10-16 12:29:54.411";"2";;;;;;;;;;;;;;;;;;;;;;;;;;;;;;;;;;;;;;;;;;;;;
"c1309647";"1994";;"Windows 7";"Rachel's Experiment (D.T.)";"1.0";"2";"1";"1";"2";"1";"1";"2014-10-16 12:24:23.566";"2014-10-16 12:37:52.958";"1";"1";"1";"86";"85";"module.training_block2.exec-4701.GoNoGo2";;;;;;;;;;;;;;;;;;;;;;;;;;;;;;;;;;;"1261";"2014-10-16 12:29:58.218";"ST_correctStop";"27";"1";"FINISHED";"NONE";"success";"0";"1";"2014-10-16 12:29:56.954";"3";;;;;;;;;;;;;;;;;;;;;;;;;;;;;;;;;;;;;;;;;;;;;
"c1309647";"1994";;"Windows 7";"Rachel's Experiment (D.T.)";"1.0";"2";"1";"1";"2";"1";"1";"2014-10-16 12:24:23.566";"2014-10-16 12:37:52.958";"1";"1";"1";"87";"86";"module.training_block2.exec-4701.GoNoGo2";;;;;;;;;;;;;;;;;;;;;;;;;;;;;;;;;;;"1261";"2014-10-16 12:30:00.760";"ST_correctStop";"34";"1";"FINISHED";"NONE";"success";"0";"1";"2014-10-16 12:29:59.497";"3";;;;;;;;;;;;;;;;;;;;;;;;;;;;;;;;;;;;;;;;;;;;;
"c1309647";"1994";;"Windows 7";"Rachel's Experiment (D.T.)";"1.0";"2";"1";"1";"2";"1";"1";"2014-10-16 12:24:23.566";"2014-10-16 12:37:52.958";"1";"1";"1";"88";"87";"module.training_block3.exec-9199.GoNoGo3";;;;;;;;;;;;;;;;;;;;;;;;;;;;;;;;;;;;;;;;;;;;;;;"1261";"2014-10-16 12:30:20.416";"NST_correctLoc";"17";"0";"FINISHED";"LEFT";"success";"385";"0";"2014-10-16 12:30:19.153";"2";;;;;;;;;;;;;;;;;;;;;;;;;;;;;;;;;
"c1309647";"1994";;"Windows 7";"Rachel's Experiment (D.T.)";"1.0";"2";"1";"1";"2";"1";"1";"2014-10-16 12:24:23.566";"2014-10-16 12:37:52.958";"1";"1";"1";"89";"88";"module.training_block3.exec-9199.GoNoGo3";;;;;;;;;;;;;;;;;;;;;;;;;;;;;;;;;;;;;;;;;;;;;;;"1261";"2014-10-16 12:30:22.959";"ST_failedStop";"7";"0";"FINISHED";"LEFT";"failure";"466";"1";"2014-10-16 12:30:21.696";"1";;;;;;;;;;;;;;;;;;;;;;;;;;;;;;;;;
"c1309647";"1994";;"Windows 7";"Rachel's Experiment (D.T.)";"1.0";"2";"1";"1";"2";"1";"1";"2014-10-16 12:24:23.566";"2014-10-16 12:37:52.958";"1";"1";"1";"90";"89";"module.training_block3.exec-9199.GoNoGo3";;;;;;;;;;;;;;;;;;;;;;;;;;;;;;;;;;;;;;;;;;;;;;;"1261";"2014-10-16 12:30:25.502";"NST_correctLoc";"14";"0";"FINISHED";"LEFT";"success";"491";"0";"2014-10-16 12:30:24.238";"2";;;;;;;;;;;;;;;;;;;;;;;;;;;;;;;;;
"c1309647";"1994";;"Windows 7";"Rachel's Experiment (D.T.)";"1.0";"2";"1";"1";"2";"1";"1";"2014-10-16 12:24:23.566";"2014-10-16 12:37:52.958";"1";"1";"1";"91";"90";"module.training_block3.exec-9199.GoNoGo3";;;;;;;;;;;;;;;;;;;;;;;;;;;;;;;;;;;;;;;;;;;;;;;"1261";"2014-10-16 12:30:28.045";"NST_correctLoc";"33";"0";"FINISHED";"LEFT";"success";"380";"0";"2014-10-16 12:30:26.781";"3";;;;;;;;;;;;;;;;;;;;;;;;;;;;;;;;;
"c1309647";"1994";;"Windows 7";"Rachel's Experiment (D.T.)";"1.0";"2";"1";"1";"2";"1";"1";"2014-10-16 12:24:23.566";"2014-10-16 12:37:52.958";"1";"1";"1";"92";"91";"module.training_block3.exec-9199.GoNoGo3";;;;;;;;;;;;;;;;;;;;;;;;;;;;;;;;;;;;;;;;;;;;;;;"1261";"2014-10-16 12:30:30.588";"ST_correctStop";"21";"1";"FINISHED";"NONE";"success";"0";"1";"2014-10-16 12:30:29.324";"3";;;;;;;;;;;;;;;;;;;;;;;;;;;;;;;;;
"c1309647";"1994";;"Windows 7";"Rachel's Experiment (D.T.)";"1.0";"2";"1";"1";"2";"1";"1";"2014-10-16 12:24:23.566";"2014-10-16 12:37:52.958";"1";"1";"1";"93";"92";"module.training_block3.exec-9199.GoNoGo3";;;;;;;;;;;;;;;;;;;;;;;;;;;;;;;;;;;;;;;;;;;;;;;"1261";"2014-10-16 12:30:33.130";"ST_correctStop";"6";"0";"FINISHED";"NONE";"success";"0";"1";"2014-10-16 12:30:31.867";"1";;;;;;;;;;;;;;;;;;;;;;;;;;;;;;;;;
"c1309647";"1994";;"Windows 7";"Rachel's Experiment (D.T.)";"1.0";"2";"1";"1";"2";"1";"1";"2014-10-16 12:24:23.566";"2014-10-16 12:37:52.958";"1";"1";"1";"94";"93";"module.training_block3.exec-9199.GoNoGo3";;;;;;;;;;;;;;;;;;;;;;;;;;;;;;;;;;;;;;;;;;;;;;;"1261";"2014-10-16 12:30:35.673";"NST_correctLoc";"10";"0";"FINISHED";"LEFT";"success";"544";"0";"2014-10-16 12:30:34.410";"2";;;;;;;;;;;;;;;;;;;;;;;;;;;;;;;;;
"c1309647";"1994";;"Windows 7";"Rachel's Experiment (D.T.)";"1.0";"2";"1";"1";"2";"1";"1";"2014-10-16 12:24:23.566";"2014-10-16 12:37:52.958";"1";"1";"1";"95";"94";"module.training_block3.exec-9199.GoNoGo3";;;;;;;;;;;;;;;;;;;;;;;;;;;;;;;;;;;;;;;;;;;;;;;"1261";"2014-10-16 12:30:38.232";"ST_correctStop";"28";"0";"FINISHED";"NONE";"success";"0";"1";"2014-10-16 12:30:36.968";"3";;;;;;;;;;;;;;;;;;;;;;;;;;;;;;;;;
"c1309647";"1994";;"Windows 7";"Rachel's Experiment (D.T.)";"1.0";"2";"1";"1";"2";"1";"1";"2014-10-16 12:24:23.566";"2014-10-16 12:37:52.958";"1";"1";"1";"96";"95";"module.training_block3.exec-9199.GoNoGo3";;;;;;;;;;;;;;;;;;;;;;;;;;;;;;;;;;;;;;;;;;;;;;;"1261";"2014-10-16 12:30:40.774";"NST_correctLoc";"22";"0";"FINISHED";"LEFT";"success";"467";"0";"2014-10-16 12:30:39.511";"3";;;;;;;;;;;;;;;;;;;;;;;;;;;;;;;;;
"c1309647";"1994";;"Windows 7";"Rachel's Experiment (D.T.)";"1.0";"2";"1";"1";"2";"1";"1";"2014-10-16 12:24:23.566";"2014-10-16 12:37:52.958";"1";"1";"1";"97";"96";"module.training_block3.exec-9199.GoNoGo3";;;;;;;;;;;;;;;;;;;;;;;;;;;;;;;;;;;;;;;;;;;;;;;"1261";"2014-10-16 12:30:43.317";"ST_correctStop";"24";"1";"FINISHED";"NONE";"success";"0";"1";"2014-10-16 12:30:42.054";"3";;;;;;;;;;;;;;;;;;;;;;;;;;;;;;;;;
"c1309647";"1994";;"Windows 7";"Rachel's Experiment (D.T.)";"1.0";"2";"1";"1";"2";"1";"1";"2014-10-16 12:24:23.566";"2014-10-16 12:37:52.958";"1";"1";"1";"98";"97";"module.training_block3.exec-9199.GoNoGo3";;;;;;;;;;;;;;;;;;;;;;;;;;;;;;;;;;;;;;;;;;;;;;;"1261";"2014-10-16 12:30:45.860";"NST_correctLoc";"15";"0";"FINISHED";"LEFT";"success";"453";"0";"2014-10-16 12:30:44.596";"2";;;;;;;;;;;;;;;;;;;;;;;;;;;;;;;;;
"c1309647";"1994";;"Windows 7";"Rachel's Experiment (D.T.)";"1.0";"2";"1";"1";"2";"1";"1";"2014-10-16 12:24:23.566";"2014-10-16 12:37:52.958";"1";"1";"1";"99";"98";"module.training_block3.exec-9199.GoNoGo3";;;;;;;;;;;;;;;;;;;;;;;;;;;;;;;;;;;;;;;;;;;;;;;"1261";"2014-10-16 12:30:48.403";"ST_correctStop";"35";"0";"FINISHED";"NONE";"success";"0";"1";"2014-10-16 12:30:47.139";"3";;;;;;;;;;;;;;;;;;;;;;;;;;;;;;;;;
"c1309647";"1994";;"Windows 7";"Rachel's Experiment (D.T.)";"1.0";"2";"1";"1";"2";"1";"1";"2014-10-16 12:24:23.566";"2014-10-16 12:37:52.958";"1";"1";"1";"100";"99";"module.training_block3.exec-9199.GoNoGo3";;;;;;;;;;;;;;;;;;;;;;;;;;;;;;;;;;;;;;;;;;;;;;;"1261";"2014-10-16 12:30:50.930";"NST_correctLoc";"34";"1";"FINISHED";"RIGHT";"success";"887";"0";"2014-10-16 12:30:49.666";"3";;;;;;;;;;;;;;;;;;;;;;;;;;;;;;;;;
"c1309647";"1994";;"Windows 7";"Rachel's Experiment (D.T.)";"1.0";"2";"1";"1";"2";"1";"1";"2014-10-16 12:24:23.566";"2014-10-16 12:37:52.958";"1";"1";"1";"101";"100";"module.training_block3.exec-9199.GoNoGo3";;;;;;;;;;;;;;;;;;;;;;;;;;;;;;;;;;;;;;;;;;;;;;;"1261";"2014-10-16 12:30:53.473";"ST_correctStop";"31";"1";"FINISHED";"NONE";"success";"0";"1";"2014-10-16 12:30:52.209";"3";;;;;;;;;;;;;;;;;;;;;;;;;;;;;;;;;
"c1309647";"1994";;"Windows 7";"Rachel's Experiment (D.T.)";"1.0";"2";"1";"1";"2";"1";"1";"2014-10-16 12:24:23.566";"2014-10-16 12:37:52.958";"1";"1";"1";"102";"101";"module.training_block3.exec-9199.GoNoGo3";;;;;;;;;;;;;;;;;;;;;;;;;;;;;;;;;;;;;;;;;;;;;;;"1261";"2014-10-16 12:30:56.031";"ST_correctStop";"30";"0";"FINISHED";"NONE";"success";"0";"1";"2014-10-16 12:30:54.768";"3";;;;;;;;;;;;;;;;;;;;;;;;;;;;;;;;;
"c1309647";"1994";;"Windows 7";"Rachel's Experiment (D.T.)";"1.0";"2";"1";"1";"2";"1";"1";"2014-10-16 12:24:23.566";"2014-10-16 12:37:52.958";"1";"1";"1";"103";"102";"module.training_block3.exec-9199.GoNoGo3";;;;;;;;;;;;;;;;;;;;;;;;;;;;;;;;;;;;;;;;;;;;;;;"1261";"2014-10-16 12:30:58.574";"NST_correctLoc";"9";"1";"FINISHED";"RIGHT";"success";"579";"0";"2014-10-16 12:30:57.310";"2";;;;;;;;;;;;;;;;;;;;;;;;;;;;;;;;;
"c1309647";"1994";;"Windows 7";"Rachel's Experiment (D.T.)";"1.0";"2";"1";"1";"2";"1";"1";"2014-10-16 12:24:23.566";"2014-10-16 12:37:52.958";"1";"1";"1";"104";"103";"module.training_block3.exec-9199.GoNoGo3";;;;;;;;;;;;;;;;;;;;;;;;;;;;;;;;;;;;;;;;;;;;;;;"1261";"2014-10-16 12:31:01.117";"NST_correctLoc";"27";"0";"FINISHED";"LEFT";"success";"388";"0";"2014-10-16 12:30:59.853";"3";;;;;;;;;;;;;;;;;;;;;;;;;;;;;;;;;
"c1309647";"1994";;"Windows 7";"Rachel's Experiment (D.T.)";"1.0";"2";"1";"1";"2";"1";"1";"2014-10-16 12:24:23.566";"2014-10-16 12:37:52.958";"1";"1";"1";"105";"104";"module.training_block3.exec-9199.GoNoGo3";;;;;;;;;;;;;;;;;;;;;;;;;;;;;;;;;;;;;;;;;;;;;;;"1261";"2014-10-16 12:31:03.660";"ST_correctStop";"32";"0";"FINISHED";"NONE";"success";"0";"1";"2014-10-16 12:31:02.396";"3";;;;;;;;;;;;;;;;;;;;;;;;;;;;;;;;;
"c1309647";"1994";;"Windows 7";"Rachel's Experiment (D.T.)";"1.0";"2";"1";"1";"2";"1";"1";"2014-10-16 12:24:23.566";"2014-10-16 12:37:52.958";"1";"1";"1";"106";"105";"module.training_block3.exec-9199.GoNoGo3";;;;;;;;;;;;;;;;;;;;;;;;;;;;;;;;;;;;;;;;;;;;;;;"1261";"2014-10-16 12:31:06.202";"NST_correctLoc";"18";"1";"FINISHED";"RIGHT";"success";"446";"0";"2014-10-16 12:31:04.939";"3";;;;;;;;;;;;;;;;;;;;;;;;;;;;;;;;;
"c1309647";"1994";;"Windows 7";"Rachel's Experiment (D.T.)";"1.0";"2";"1";"1";"2";"1";"1";"2014-10-16 12:24:23.566";"2014-10-16 12:37:52.958";"1";"1";"1";"107";"106";"module.training_block3.exec-9199.GoNoGo3";;;;;;;;;;;;;;;;;;;;;;;;;;;;;;;;;;;;;;;;;;;;;;;"1261";"2014-10-16 12:31:08.745";"NST_correctLoc";"12";"1";"FINISHED";"RIGHT";"success";"456";"0";"2014-10-16 12:31:07.482";"2";;;;;;;;;;;;;;;;;;;;;;;;;;;;;;;;;
"c1309647";"1994";;"Windows 7";"Rachel's Experiment (D.T.)";"1.0";"2";"1";"1";"2";"1";"1";"2014-10-16 12:24:23.566";"2014-10-16 12:37:52.958";"1";"1";"1";"108";"107";"module.training_block3.exec-9199.GoNoGo3";;;;;;;;;;;;;;;;;;;;;;;;;;;;;;;;;;;;;;;;;;;;;;;"1261";"2014-10-16 12:31:11.288";"NST_correctLoc";"13";"1";"FINISHED";"RIGHT";"success";"553";"0";"2014-10-16 12:31:10.024";"2";;;;;;;;;;;;;;;;;;;;;;;;;;;;;;;;;
"c1309647";"1994";;"Windows 7";"Rachel's Experiment (D.T.)";"1.0";"2";"1";"1";"2";"1";"1";"2014-10-16 12:24:23.566";"2014-10-16 12:37:52.958";"1";"1";"1";"109";"108";"module.training_block3.exec-9199.GoNoGo3";;;;;;;;;;;;;;;;;;;;;;;;;;;;;;;;;;;;;;;;;;;;;;;"1261";"2014-10-16 12:31:13.831";"ST_correctStop";"2";"0";"FINISHED";"NONE";"success";"0";"1";"2014-10-16 12:31:12.567";"1";;;;;;;;;;;;;;;;;;;;;;;;;;;;;;;;;
"c1309647";"1994";;"Windows 7";"Rachel's Experiment (D.T.)";"1.0";"2";"1";"1";"2";"1";"1";"2014-10-16 12:24:23.566";"2014-10-16 12:37:52.958";"1";"1";"1";"110";"109";"module.training_block3.exec-9199.GoNoGo3";;;;;;;;;;;;;;;;;;;;;;;;;;;;;;;;;;;;;;;;;;;;;;;"1258";"2014-10-16 12:31:16.374";"ST_correctStop";"1";"0";"FINISHED";"NONE";"success";"0";"1";"2014-10-16 12:31:15.110";"1";;;;;;;;;;;;;;;;;;;;;;;;;;;;;;;;;
"c1309647";"1994";;"Windows 7";"Rachel's Experiment (D.T.)";"1.0";"2";"1";"1";"2";"1";"1";"2014-10-16 12:24:23.566";"2014-10-16 12:37:52.958";"1";"1";"1";"111";"110";"module.training_block3.exec-9199.GoNoGo3";;;;;;;;;;;;;;;;;;;;;;;;;;;;;;;;;;;;;;;;;;;;;;;"1261";"2014-10-16 12:31:18.917";"NST_correctLoc";"16";"0";"FINISHED";"LEFT";"success";"556";"0";"2014-10-16 12:31:17.653";"2";;;;;;;;;;;;;;;;;;;;;;;;;;;;;;;;;
"c1309647";"1994";;"Windows 7";"Rachel's Experiment (D.T.)";"1.0";"2";"1";"1";"2";"1";"1";"2014-10-16 12:24:23.566";"2014-10-16 12:37:52.958";"1";"1";"1";"112";"111";"module.training_block3.exec-9199.GoNoGo3";;;;;;;;;;;;;;;;;;;;;;;;;;;;;;;;;;;;;;;;;;;;;;;"1261";"2014-10-16 12:31:21.444";"ST_correctStop";"5";"1";"FINISHED";"NONE";"success";"0";"1";"2014-10-16 12:31:20.180";"1";;;;;;;;;;;;;;;;;;;;;;;;;;;;;;;;;
"c1309647";"1994";;"Windows 7";"Rachel's Experiment (D.T.)";"1.0";"2";"1";"1";"2";"1";"1";"2014-10-16 12:24:23.566";"2014-10-16 12:37:52.958";"1";"1";"1";"113";"112";"module.training_block3.exec-9199.GoNoGo3";;;;;;;;;;;;;;;;;;;;;;;;;;;;;;;;;;;;;;;;;;;;;;;"1261";"2014-10-16 12:31:23.987";"ST_correctStop";"4";"1";"FINISHED";"NONE";"success";"0";"1";"2014-10-16 12:31:22.723";"1";;;;;;;;;;;;;;;;;;;;;;;;;;;;;;;;;
"c1309647";"1994";;"Windows 7";"Rachel's Experiment (D.T.)";"1.0";"2";"1";"1";"2";"1";"1";"2014-10-16 12:24:23.566";"2014-10-16 12:37:52.958";"1";"1";"1";"114";"113";"module.training_block3.exec-9199.GoNoGo3";;;;;;;;;;;;;;;;;;;;;;;;;;;;;;;;;;;;;;;;;;;;;;;"1261";"2014-10-16 12:31:26.514";"NST_correctLoc";"25";"1";"FINISHED";"RIGHT";"success";"423";"0";"2014-10-16 12:31:25.250";"3";;;;;;;;;;;;;;;;;;;;;;;;;;;;;;;;;
"c1309647";"1994";;"Windows 7";"Rachel's Experiment (D.T.)";"1.0";"2";"1";"1";"2";"1";"1";"2014-10-16 12:24:23.566";"2014-10-16 12:37:52.958";"1";"1";"1";"115";"114";"module.training_block3.exec-9199.GoNoGo3";;;;;;;;;;;;;;;;;;;;;;;;;;;;;;;;;;;;;;;;;;;;;;;"1261";"2014-10-16 12:31:29.057";"NST_correctLoc";"26";"1";"FINISHED";"RIGHT";"success";"496";"0";"2014-10-16 12:31:27.793";"3";;;;;;;;;;;;;;;;;;;;;;;;;;;;;;;;;
"c1309647";"1994";;"Windows 7";"Rachel's Experiment (D.T.)";"1.0";"2";"1";"1";"2";"1";"1";"2014-10-16 12:24:23.566";"2014-10-16 12:37:52.958";"1";"1";"1";"116";"115";"module.training_block3.exec-9199.GoNoGo3";;;;;;;;;;;;;;;;;;;;;;;;;;;;;;;;;;;;;;;;;;;;;;;"1261";"2014-10-16 12:31:31.615";"ST_correctStop";"20";"0";"FINISHED";"NONE";"success";"0";"1";"2014-10-16 12:31:30.351";"3";;;;;;;;;;;;;;;;;;;;;;;;;;;;;;;;;
"c1309647";"1994";;"Windows 7";"Rachel's Experiment (D.T.)";"1.0";"2";"1";"1";"2";"1";"1";"2014-10-16 12:24:23.566";"2014-10-16 12:37:52.958";"1";"1";"1";"117";"116";"module.training_block3.exec-9199.GoNoGo3";;;;;;;;;;;;;;;;;;;;;;;;;;;;;;;;;;;;;;;;;;;;;;;"1261";"2014-10-16 12:31:34.142";"NST_correctLoc";"23";"1";"FINISHED";"RIGHT";"success";"515";"0";"2014-10-16 12:31:32.879";"3";;;;;;;;;;;;;;;;;;;;;;;;;;;;;;;;;
"c1309647";"1994";;"Windows 7";"Rachel's Experiment (D.T.)";"1.0";"2";"1";"1";"2";"1";"1";"2014-10-16 12:24:23.566";"2014-10-16 12:37:52.958";"1";"1";"1";"118";"117";"module.training_block3.exec-9199.GoNoGo3";;;;;;;;;;;;;;;;;;;;;;;;;;;;;;;;;;;;;;;;;;;;;;;"1261";"2014-10-16 12:31:36.669";"ST_correctStop";"0";"1";"FINISHED";"NONE";"success";"0";"1";"2014-10-16 12:31:35.406";"1";;;;;;;;;;;;;;;;;;;;;;;;;;;;;;;;;
"c1309647";"1994";;"Windows 7";"Rachel's Experiment (D.T.)";"1.0";"2";"1";"1";"2";"1";"1";"2014-10-16 12:24:23.566";"2014-10-16 12:37:52.958";"1";"1";"1";"119";"118";"module.training_block3.exec-9199.GoNoGo3";;;;;;;;;;;;;;;;;;;;;;;;;;;;;;;;;;;;;;;;;;;;;;;"1261";"2014-10-16 12:31:39.197";"ST_correctStop";"3";"0";"FINISHED";"NONE";"success";"0";"1";"2014-10-16 12:31:37.933";"1";;;;;;;;;;;;;;;;;;;;;;;;;;;;;;;;;
"c1309647";"1994";;"Windows 7";"Rachel's Experiment (D.T.)";"1.0";"2";"1";"1";"2";"1";"1";"2014-10-16 12:24:23.566";"2014-10-16 12:37:52.958";"1";"1";"1";"120";"119";"module.training_block3.exec-9199.GoNoGo3";;;;;;;;;;;;;;;;;;;;;;;;;;;;;;;;;;;;;;;;;;;;;;;"1261";"2014-10-16 12:31:41.739";"NST_correctLoc";"11";"0";"FINISHED";"LEFT";"success";"613";"0";"2014-10-16 12:31:40.476";"2";;;;;;;;;;;;;;;;;;;;;;;;;;;;;;;;;
"c1309647";"1994";;"Windows 7";"Rachel's Experiment (D.T.)";"1.0";"2";"1";"1";"2";"1";"1";"2014-10-16 12:24:23.566";"2014-10-16 12:37:52.958";"1";"1";"1";"121";"120";"module.training_block3.exec-9199.GoNoGo3";;;;;;;;;;;;;;;;;;;;;;;;;;;;;;;;;;;;;;;;;;;;;;;"1261";"2014-10-16 12:31:44.298";"ST_correctStop";"8";"1";"FINISHED";"NONE";"success";"0";"1";"2014-10-16 12:31:43.034";"1";;;;;;;;;;;;;;;;;;;;;;;;;;;;;;;;;
"c1309647";"1994";;"Windows 7";"Rachel's Experiment (D.T.)";"1.0";"2";"1";"1";"2";"1";"1";"2014-10-16 12:24:23.566";"2014-10-16 12:37:52.958";"1";"1";"1";"122";"121";"module.training_block3.exec-9199.GoNoGo3";;;;;;;;;;;;;;;;;;;;;;;;;;;;;;;;;;;;;;;;;;;;;;;"1261";"2014-10-16 12:31:46.841";"ST_correctStop";"29";"1";"FINISHED";"NONE";"success";"0";"1";"2014-10-16 12:31:45.577";"3";;;;;;;;;;;;;;;;;;;;;;;;;;;;;;;;;
"c1309647";"1994";;"Windows 7";"Rachel's Experiment (D.T.)";"1.0";"2";"1";"1";"2";"1";"1";"2014-10-16 12:24:23.566";"2014-10-16 12:37:52.958";"1";"1";"1";"123";"122";"module.training_block3.exec-9199.GoNoGo3";;;;;;;;;;;;;;;;;;;;;;;;;;;;;;;;;;;;;;;;;;;;;;;"1261";"2014-10-16 12:31:49.383";"NST_correctLoc";"19";"1";"FINISHED";"RIGHT";"success";"809";"0";"2014-10-16 12:31:48.120";"3";;;;;;;;;;;;;;;;;;;;;;;;;;;;;;;;;
"c1309647";"1994";;"Windows 7";"Rachel's Experiment (D.T.)";"1.0";"2";"1";"1";"2";"1";"1";"2014-10-16 12:24:23.566";"2014-10-16 12:37:52.958";"1";"1";"1";"124";"123";"module.training_block4.exec-2462.GoNoGo4";;;;;;;;;;;;;;;;;;;;;;;;;;;;;;;;;;;;;;;;;;;;;;;;;;;;;;;;;;;"1261";"2014-10-16 12:31:59.555";"NST_correctLoc";"17";"0";"FINISHED";"LEFT";"success";"414";"0";"2014-10-16 12:31:58.291";"2";;;;;;;;;;;;;;;;;;;;;
"c1309647";"1994";;"Windows 7";"Rachel's Experiment (D.T.)";"1.0";"2";"1";"1";"2";"1";"1";"2014-10-16 12:24:23.566";"2014-10-16 12:37:52.958";"1";"1";"1";"125";"124";"module.training_block4.exec-2462.GoNoGo4";;;;;;;;;;;;;;;;;;;;;;;;;;;;;;;;;;;;;;;;;;;;;;;;;;;;;;;;;;;"1261";"2014-10-16 12:32:02.082";"ST_correctStop";"6";"1";"FINISHED";"NONE";"success";"0";"1";"2014-10-16 12:32:00.818";"1";;;;;;;;;;;;;;;;;;;;;
"c1309647";"1994";;"Windows 7";"Rachel's Experiment (D.T.)";"1.0";"2";"1";"1";"2";"1";"1";"2014-10-16 12:24:23.566";"2014-10-16 12:37:52.958";"1";"1";"1";"126";"125";"module.training_block4.exec-2462.GoNoGo4";;;;;;;;;;;;;;;;;;;;;;;;;;;;;;;;;;;;;;;;;;;;;;;;;;;;;;;;;;;"1261";"2014-10-16 12:32:04.609";"ST_correctStop";"7";"0";"FINISHED";"NONE";"success";"0";"1";"2014-10-16 12:32:03.345";"1";;;;;;;;;;;;;;;;;;;;;
"c1309647";"1994";;"Windows 7";"Rachel's Experiment (D.T.)";"1.0";"2";"1";"1";"2";"1";"1";"2014-10-16 12:24:23.566";"2014-10-16 12:37:52.958";"1";"1";"1";"127";"126";"module.training_block4.exec-2462.GoNoGo4";;;;;;;;;;;;;;;;;;;;;;;;;;;;;;;;;;;;;;;;;;;;;;;;;;;;;;;;;;;"1261";"2014-10-16 12:32:07.136";"NST_correctLoc";"28";"1";"FINISHED";"RIGHT";"success";"384";"0";"2014-10-16 12:32:05.873";"3";;;;;;;;;;;;;;;;;;;;;
"c1309647";"1994";;"Windows 7";"Rachel's Experiment (D.T.)";"1.0";"2";"1";"1";"2";"1";"1";"2014-10-16 12:24:23.566";"2014-10-16 12:37:52.958";"1";"1";"1";"128";"127";"module.training_block4.exec-2462.GoNoGo4";;;;;;;;;;;;;;;;;;;;;;;;;;;;;;;;;;;;;;;;;;;;;;;;;;;;;;;;;;;"1262";"2014-10-16 12:32:09.663";"ST_correctStop";"3";"0";"FINISHED";"NONE";"success";"0";"1";"2014-10-16 12:32:08.400";"1";;;;;;;;;;;;;;;;;;;;;
"c1309647";"1994";;"Windows 7";"Rachel's Experiment (D.T.)";"1.0";"2";"1";"1";"2";"1";"1";"2014-10-16 12:24:23.566";"2014-10-16 12:37:52.958";"1";"1";"1";"129";"128";"module.training_block4.exec-2462.GoNoGo4";;;;;;;;;;;;;;;;;;;;;;;;;;;;;;;;;;;;;;;;;;;;;;;;;;;;;;;;;;;"1261";"2014-10-16 12:32:12.191";"ST_correctStop";"21";"0";"FINISHED";"NONE";"success";"0";"1";"2014-10-16 12:32:10.927";"3";;;;;;;;;;;;;;;;;;;;;
"c1309647";"1994";;"Windows 7";"Rachel's Experiment (D.T.)";"1.0";"2";"1";"1";"2";"1";"1";"2014-10-16 12:24:23.566";"2014-10-16 12:37:52.958";"1";"1";"1";"130";"129";"module.training_block4.exec-2462.GoNoGo4";;;;;;;;;;;;;;;;;;;;;;;;;;;;;;;;;;;;;;;;;;;;;;;;;;;;;;;;;;;"1261";"2014-10-16 12:32:14.733";"NST_correctLoc";"31";"1";"FINISHED";"RIGHT";"success";"427";"0";"2014-10-16 12:32:13.470";"3";;;;;;;;;;;;;;;;;;;;;
"c1309647";"1994";;"Windows 7";"Rachel's Experiment (D.T.)";"1.0";"2";"1";"1";"2";"1";"1";"2014-10-16 12:24:23.566";"2014-10-16 12:37:52.958";"1";"1";"1";"131";"130";"module.training_block4.exec-2462.GoNoGo4";;;;;;;;;;;;;;;;;;;;;;;;;;;;;;;;;;;;;;;;;;;;;;;;;;;;;;;;;;;"1261";"2014-10-16 12:32:17.261";"ST_correctStop";"0";"0";"FINISHED";"NONE";"success";"0";"1";"2014-10-16 12:32:15.997";"1";;;;;;;;;;;;;;;;;;;;;
"c1309647";"1994";;"Windows 7";"Rachel's Experiment (D.T.)";"1.0";"2";"1";"1";"2";"1";"1";"2014-10-16 12:24:23.566";"2014-10-16 12:37:52.958";"1";"1";"1";"132";"131";"module.training_block4.exec-2462.GoNoGo4";;;;;;;;;;;;;;;;;;;;;;;;;;;;;;;;;;;;;;;;;;;;;;;;;;;;;;;;;;;"1261";"2014-10-16 12:32:19.788";"ST_correctStop";"23";"1";"FINISHED";"NONE";"success";"0";"1";"2014-10-16 12:32:18.524";"3";;;;;;;;;;;;;;;;;;;;;
"c1309647";"1994";;"Windows 7";"Rachel's Experiment (D.T.)";"1.0";"2";"1";"1";"2";"1";"1";"2014-10-16 12:24:23.566";"2014-10-16 12:37:52.958";"1";"1";"1";"133";"132";"module.training_block4.exec-2462.GoNoGo4";;;;;;;;;;;;;;;;;;;;;;;;;;;;;;;;;;;;;;;;;;;;;;;;;;;;;;;;;;;"1261";"2014-10-16 12:32:22.315";"ST_correctStop";"22";"0";"FINISHED";"NONE";"success";"0";"1";"2014-10-16 12:32:21.051";"3";;;;;;;;;;;;;;;;;;;;;
"c1309647";"1994";;"Windows 7";"Rachel's Experiment (D.T.)";"1.0";"2";"1";"1";"2";"1";"1";"2014-10-16 12:24:23.566";"2014-10-16 12:37:52.958";"1";"1";"1";"134";"133";"module.training_block4.exec-2462.GoNoGo4";;;;;;;;;;;;;;;;;;;;;;;;;;;;;;;;;;;;;;;;;;;;;;;;;;;;;;;;;;;"1261";"2014-10-16 12:32:24.858";"ST_correctStop";"18";"0";"FINISHED";"NONE";"success";"0";"1";"2014-10-16 12:32:23.594";"3";;;;;;;;;;;;;;;;;;;;;
"c1309647";"1994";;"Windows 7";"Rachel's Experiment (D.T.)";"1.0";"2";"1";"1";"2";"1";"1";"2014-10-16 12:24:23.566";"2014-10-16 12:37:52.958";"1";"1";"1";"135";"134";"module.training_block4.exec-2462.GoNoGo4";;;;;;;;;;;;;;;;;;;;;;;;;;;;;;;;;;;;;;;;;;;;;;;;;;;;;;;;;;;"1261";"2014-10-16 12:32:27.401";"ST_correctStop";"25";"0";"FINISHED";"NONE";"success";"0";"1";"2014-10-16 12:32:26.137";"3";;;;;;;;;;;;;;;;;;;;;
"c1309647";"1994";;"Windows 7";"Rachel's Experiment (D.T.)";"1.0";"2";"1";"1";"2";"1";"1";"2014-10-16 12:24:23.566";"2014-10-16 12:37:52.958";"1";"1";"1";"136";"135";"module.training_block4.exec-2462.GoNoGo4";;;;;;;;;;;;;;;;;;;;;;;;;;;;;;;;;;;;;;;;;;;;;;;;;;;;;;;;;;;"1261";"2014-10-16 12:32:29.928";"NST_correctLoc";"15";"0";"FINISHED";"LEFT";"success";"441";"0";"2014-10-16 12:32:28.664";"2";;;;;;;;;;;;;;;;;;;;;
"c1309647";"1994";;"Windows 7";"Rachel's Experiment (D.T.)";"1.0";"2";"1";"1";"2";"1";"1";"2014-10-16 12:24:23.566";"2014-10-16 12:37:52.958";"1";"1";"1";"137";"136";"module.training_block4.exec-2462.GoNoGo4";;;;;;;;;;;;;;;;;;;;;;;;;;;;;;;;;;;;;;;;;;;;;;;;;;;;;;;;;;;"1261";"2014-10-16 12:32:32.455";"NST_correctLoc";"11";"0";"FINISHED";"LEFT";"success";"681";"0";"2014-10-16 12:32:31.191";"2";;;;;;;;;;;;;;;;;;;;;
"c1309647";"1994";;"Windows 7";"Rachel's Experiment (D.T.)";"1.0";"2";"1";"1";"2";"1";"1";"2014-10-16 12:24:23.566";"2014-10-16 12:37:52.958";"1";"1";"1";"138";"137";"module.training_block4.exec-2462.GoNoGo4";;;;;;;;;;;;;;;;;;;;;;;;;;;;;;;;;;;;;;;;;;;;;;;;;;;;;;;;;;;"1261";"2014-10-16 12:32:35.013";"NST_correctLoc";"30";"1";"FINISHED";"RIGHT";"success";"595";"0";"2014-10-16 12:32:33.750";"3";;;;;;;;;;;;;;;;;;;;;
"c1309647";"1994";;"Windows 7";"Rachel's Experiment (D.T.)";"1.0";"2";"1";"1";"2";"1";"1";"2014-10-16 12:24:23.566";"2014-10-16 12:37:52.958";"1";"1";"1";"139";"138";"module.training_block4.exec-2462.GoNoGo4";;;;;;;;;;;;;;;;;;;;;;;;;;;;;;;;;;;;;;;;;;;;;;;;;;;;;;;;;;;"1261";"2014-10-16 12:32:37.541";"ST_correctStop";"34";"1";"FINISHED";"NONE";"success";"0";"1";"2014-10-16 12:32:36.277";"3";;;;;;;;;;;;;;;;;;;;;
"c1309647";"1994";;"Windows 7";"Rachel's Experiment (D.T.)";"1.0";"2";"1";"1";"2";"1";"1";"2014-10-16 12:24:23.566";"2014-10-16 12:37:52.958";"1";"1";"1";"140";"139";"module.training_block4.exec-2462.GoNoGo4";;;;;;;;;;;;;;;;;;;;;;;;;;;;;;;;;;;;;;;;;;;;;;;;;;;;;;;;;;;"1261";"2014-10-16 12:32:40.083";"NST_correctLoc";"35";"1";"FINISHED";"RIGHT";"success";"477";"0";"2014-10-16 12:32:38.820";"3";;;;;;;;;;;;;;;;;;;;;
"c1309647";"1994";;"Windows 7";"Rachel's Experiment (D.T.)";"1.0";"2";"1";"1";"2";"1";"1";"2014-10-16 12:24:23.566";"2014-10-16 12:37:52.958";"1";"1";"1";"141";"140";"module.training_block4.exec-2462.GoNoGo4";;;;;;;;;;;;;;;;;;;;;;;;;;;;;;;;;;;;;;;;;;;;;;;;;;;;;;;;;;;"1261";"2014-10-16 12:32:42.611";"NST_correctLoc";"10";"1";"FINISHED";"RIGHT";"success";"462";"0";"2014-10-16 12:32:41.347";"2";;;;;;;;;;;;;;;;;;;;;
"c1309647";"1994";;"Windows 7";"Rachel's Experiment (D.T.)";"1.0";"2";"1";"1";"2";"1";"1";"2014-10-16 12:24:23.566";"2014-10-16 12:37:52.958";"1";"1";"1";"142";"141";"module.training_block4.exec-2462.GoNoGo4";;;;;;;;;;;;;;;;;;;;;;;;;;;;;;;;;;;;;;;;;;;;;;;;;;;;;;;;;;;"1262";"2014-10-16 12:32:45.138";"ST_correctStop";"1";"1";"FINISHED";"NONE";"success";"0";"1";"2014-10-16 12:32:43.874";"1";;;;;;;;;;;;;;;;;;;;;
"c1309647";"1994";;"Windows 7";"Rachel's Experiment (D.T.)";"1.0";"2";"1";"1";"2";"1";"1";"2014-10-16 12:24:23.566";"2014-10-16 12:37:52.958";"1";"1";"1";"143";"142";"module.training_block4.exec-2462.GoNoGo4";;;;;;;;;;;;;;;;;;;;;;;;;;;;;;;;;;;;;;;;;;;;;;;;;;;;;;;;;;;"1262";"2014-10-16 12:32:47.665";"NST_correctLoc";"33";"1";"FINISHED";"RIGHT";"success";"487";"0";"2014-10-16 12:32:46.401";"3";;;;;;;;;;;;;;;;;;;;;
"c1309647";"1994";;"Windows 7";"Rachel's Experiment (D.T.)";"1.0";"2";"1";"1";"2";"1";"1";"2014-10-16 12:24:23.566";"2014-10-16 12:37:52.958";"1";"1";"1";"144";"143";"module.training_block4.exec-2462.GoNoGo4";;;;;;;;;;;;;;;;;;;;;;;;;;;;;;;;;;;;;;;;;;;;;;;;;;;;;;;;;;;"1261";"2014-10-16 12:32:50.192";"NST_correctLoc";"9";"1";"FINISHED";"RIGHT";"success";"496";"0";"2014-10-16 12:32:48.929";"2";;;;;;;;;;;;;;;;;;;;;
"c1309647";"1994";;"Windows 7";"Rachel's Experiment (D.T.)";"1.0";"2";"1";"1";"2";"1";"1";"2014-10-16 12:24:23.566";"2014-10-16 12:37:52.958";"1";"1";"1";"145";"144";"module.training_block4.exec-2462.GoNoGo4";;;;;;;;;;;;;;;;;;;;;;;;;;;;;;;;;;;;;;;;;;;;;;;;;;;;;;;;;;;"1261";"2014-10-16 12:32:52.719";"ST_failedStop";"4";"0";"FINISHED";"LEFT";"failure";"393";"1";"2014-10-16 12:32:51.456";"1";;;;;;;;;;;;;;;;;;;;;
"c1309647";"1994";;"Windows 7";"Rachel's Experiment (D.T.)";"1.0";"2";"1";"1";"2";"1";"1";"2014-10-16 12:24:23.566";"2014-10-16 12:37:52.958";"1";"1";"1";"146";"145";"module.training_block4.exec-2462.GoNoGo4";;;;;;;;;;;;;;;;;;;;;;;;;;;;;;;;;;;;;;;;;;;;;;;;;;;;;;;;;;;"1261";"2014-10-16 12:32:55.247";"ST_correctStop";"5";"1";"FINISHED";"NONE";"success";"0";"1";"2014-10-16 12:32:53.983";"1";;;;;;;;;;;;;;;;;;;;;
"c1309647";"1994";;"Windows 7";"Rachel's Experiment (D.T.)";"1.0";"2";"1";"1";"2";"1";"1";"2014-10-16 12:24:23.566";"2014-10-16 12:37:52.958";"1";"1";"1";"147";"146";"module.training_block4.exec-2462.GoNoGo4";;;;;;;;;;;;;;;;;;;;;;;;;;;;;;;;;;;;;;;;;;;;;;;;;;;;;;;;;;;"1260";"2014-10-16 12:32:57.774";"NST_correctLoc";"29";"1";"FINISHED";"RIGHT";"success";"385";"0";"2014-10-16 12:32:56.510";"3";;;;;;;;;;;;;;;;;;;;;
"c1309647";"1994";;"Windows 7";"Rachel's Experiment (D.T.)";"1.0";"2";"1";"1";"2";"1";"1";"2014-10-16 12:24:23.566";"2014-10-16 12:37:52.958";"1";"1";"1";"148";"147";"module.training_block4.exec-2462.GoNoGo4";;;;;;;;;;;;;;;;;;;;;;;;;;;;;;;;;;;;;;;;;;;;;;;;;;;;;;;;;;;"1261";"2014-10-16 12:33:00.317";"ST_failedStop";"19";"1";"FINISHED";"RIGHT";"failure";"411";"1";"2014-10-16 12:32:59.053";"3";;;;;;;;;;;;;;;;;;;;;
"c1309647";"1994";;"Windows 7";"Rachel's Experiment (D.T.)";"1.0";"2";"1";"1";"2";"1";"1";"2014-10-16 12:24:23.566";"2014-10-16 12:37:52.958";"1";"1";"1";"149";"148";"module.training_block4.exec-2462.GoNoGo4";;;;;;;;;;;;;;;;;;;;;;;;;;;;;;;;;;;;;;;;;;;;;;;;;;;;;;;;;;;"1261";"2014-10-16 12:33:02.844";"NST_correctLoc";"14";"1";"FINISHED";"RIGHT";"success";"452";"0";"2014-10-16 12:33:01.580";"2";;;;;;;;;;;;;;;;;;;;;
"c1309647";"1994";;"Windows 7";"Rachel's Experiment (D.T.)";"1.0";"2";"1";"1";"2";"1";"1";"2014-10-16 12:24:23.566";"2014-10-16 12:37:52.958";"1";"1";"1";"150";"149";"module.training_block4.exec-2462.GoNoGo4";;;;;;;;;;;;;;;;;;;;;;;;;;;;;;;;;;;;;;;;;;;;;;;;;;;;;;;;;;;"1261";"2014-10-16 12:33:05.371";"NST_correctLoc";"20";"0";"FINISHED";"LEFT";"success";"525";"0";"2014-10-16 12:33:04.107";"3";;;;;;;;;;;;;;;;;;;;;
"c1309647";"1994";;"Windows 7";"Rachel's Experiment (D.T.)";"1.0";"2";"1";"1";"2";"1";"1";"2014-10-16 12:24:23.566";"2014-10-16 12:37:52.958";"1";"1";"1";"151";"150";"module.training_block4.exec-2462.GoNoGo4";;;;;;;;;;;;;;;;;;;;;;;;;;;;;;;;;;;;;;;;;;;;;;;;;;;;;;;;;;;"1261";"2014-10-16 12:33:07.898";"ST_correctStop";"27";"0";"FINISHED";"NONE";"success";"0";"1";"2014-10-16 12:33:06.635";"3";;;;;;;;;;;;;;;;;;;;;
"c1309647";"1994";;"Windows 7";"Rachel's Experiment (D.T.)";"1.0";"2";"1";"1";"2";"1";"1";"2014-10-16 12:24:23.566";"2014-10-16 12:37:52.958";"1";"1";"1";"152";"151";"module.training_block4.exec-2462.GoNoGo4";;;;;;;;;;;;;;;;;;;;;;;;;;;;;;;;;;;;;;;;;;;;;;;;;;;;;;;;;;;"1261";"2014-10-16 12:33:10.425";"ST_correctStop";"8";"0";"FINISHED";"NONE";"success";"0";"1";"2014-10-16 12:33:09.162";"1";;;;;;;;;;;;;;;;;;;;;
"c1309647";"1994";;"Windows 7";"Rachel's Experiment (D.T.)";"1.0";"2";"1";"1";"2";"1";"1";"2014-10-16 12:24:23.566";"2014-10-16 12:37:52.958";"1";"1";"1";"153";"152";"module.training_block4.exec-2462.GoNoGo4";;;;;;;;;;;;;;;;;;;;;;;;;;;;;;;;;;;;;;;;;;;;;;;;;;;;;;;;;;;"1262";"2014-10-16 12:33:12.953";"NST_correctLoc";"16";"0";"FINISHED";"LEFT";"success";"511";"0";"2014-10-16 12:33:11.689";"2";;;;;;;;;;;;;;;;;;;;;
"c1309647";"1994";;"Windows 7";"Rachel's Experiment (D.T.)";"1.0";"2";"1";"1";"2";"1";"1";"2014-10-16 12:24:23.566";"2014-10-16 12:37:52.958";"1";"1";"1";"154";"153";"module.training_block4.exec-2462.GoNoGo4";;;;;;;;;;;;;;;;;;;;;;;;;;;;;;;;;;;;;;;;;;;;;;;;;;;;;;;;;;;"1261";"2014-10-16 12:33:15.480";"NST_correctLoc";"13";"0";"FINISHED";"LEFT";"success";"432";"0";"2014-10-16 12:33:14.216";"2";;;;;;;;;;;;;;;;;;;;;
"c1309647";"1994";;"Windows 7";"Rachel's Experiment (D.T.)";"1.0";"2";"1";"1";"2";"1";"1";"2014-10-16 12:24:23.566";"2014-10-16 12:37:52.958";"1";"1";"1";"155";"154";"module.training_block4.exec-2462.GoNoGo4";;;;;;;;;;;;;;;;;;;;;;;;;;;;;;;;;;;;;;;;;;;;;;;;;;;;;;;;;;;"1261";"2014-10-16 12:33:18.007";"NST_correctLoc";"26";"0";"FINISHED";"LEFT";"success";"457";"0";"2014-10-16 12:33:16.744";"3";;;;;;;;;;;;;;;;;;;;;
"c1309647";"1994";;"Windows 7";"Rachel's Experiment (D.T.)";"1.0";"2";"1";"1";"2";"1";"1";"2014-10-16 12:24:23.566";"2014-10-16 12:37:52.958";"1";"1";"1";"156";"155";"module.training_block4.exec-2462.GoNoGo4";;;;;;;;;;;;;;;;;;;;;;;;;;;;;;;;;;;;;;;;;;;;;;;;;;;;;;;;;;;"1261";"2014-10-16 12:33:20.550";"ST_correctStop";"2";"1";"FINISHED";"NONE";"success";"0";"1";"2014-10-16 12:33:19.286";"1";;;;;;;;;;;;;;;;;;;;;
"c1309647";"1994";;"Windows 7";"Rachel's Experiment (D.T.)";"1.0";"2";"1";"1";"2";"1";"1";"2014-10-16 12:24:23.566";"2014-10-16 12:37:52.958";"1";"1";"1";"157";"156";"module.training_block4.exec-2462.GoNoGo4";;;;;;;;;;;;;;;;;;;;;;;;;;;;;;;;;;;;;;;;;;;;;;;;;;;;;;;;;;;"1261";"2014-10-16 12:33:23.077";"ST_correctStop";"24";"1";"FINISHED";"NONE";"success";"0";"1";"2014-10-16 12:33:21.814";"3";;;;;;;;;;;;;;;;;;;;;
"c1309647";"1994";;"Windows 7";"Rachel's Experiment (D.T.)";"1.0";"2";"1";"1";"2";"1";"1";"2014-10-16 12:24:23.566";"2014-10-16 12:37:52.958";"1";"1";"1";"158";"157";"module.training_block4.exec-2462.GoNoGo4";;;;;;;;;;;;;;;;;;;;;;;;;;;;;;;;;;;;;;;;;;;;;;;;;;;;;;;;;;;"1262";"2014-10-16 12:33:25.604";"NST_correctLoc";"32";"0";"FINISHED";"LEFT";"success";"436";"0";"2014-10-16 12:33:24.341";"3";;;;;;;;;;;;;;;;;;;;;
"c1309647";"1994";;"Windows 7";"Rachel's Experiment (D.T.)";"1.0";"2";"1";"1";"2";"1";"1";"2014-10-16 12:24:23.566";"2014-10-16 12:37:52.958";"1";"1";"1";"159";"158";"module.training_block4.exec-2462.GoNoGo4";;;;;;;;;;;;;;;;;;;;;;;;;;;;;;;;;;;;;;;;;;;;;;;;;;;;;;;;;;;"1258";"2014-10-16 12:33:28.132";"NST_correctLoc";"12";"1";"FINISHED";"RIGHT";"success";"505";"0";"2014-10-16 12:33:26.868";"2";;;;;;;;;;;;;;;;;;;;;
"c1309647";"1994";;"Windows 7";"Rachel's Experiment (D.T.)";"1.0";"2";"1";"1";"2";"1";"1";"2014-10-16 12:24:23.566";"2014-10-16 12:37:52.958";"1";"1";"1";"160";"159";"module.devaluation_practice.exec-4318.devalPractice";;;;;;;;;;;;"12720";"2014-10-16 12:34:02.202";"0";"5";"8";"7";"3072";"2938";"3637";"2014-10-16 12:33:49.472";;;;;;;;;;;;;;;;;;;;;;;;;;;;;;;;;;;;;;;;;;;;;;;;;;;;;;;;;;;;;;;;;;;;;;
"c1309647";"1994";;"Windows 7";"Rachel's Experiment (D.T.)";"1.0";"2";"1";"1";"2";"1";"1";"2014-10-16 12:24:23.566";"2014-10-16 12:37:52.958";"1";"1";"1";"161";"160";"module.devaluation_practice.exec-4318.devalPractice";;;;;;;;;;;;"8020";"2014-10-16 12:34:10.236";"1";"2";"3";"4";"1384";"1422";"2185";"2014-10-16 12:34:02.218";;;;;;;;;;;;;;;;;;;;;;;;;;;;;;;;;;;;;;;;;;;;;;;;;;;;;;;;;;;;;;;;;;;;;;
"c1309647";"1994";;"Windows 7";"Rachel's Experiment (D.T.)";"1.0";"2";"1";"1";"2";"1";"1";"2014-10-16 12:24:23.566";"2014-10-16 12:37:52.958";"1";"1";"1";"162";"161";"module.devaluation_practice.exec-4318.devalPractice";;;;;;;;;;;;"8389";"2014-10-16 12:34:18.644";"2";"7";"8";"9";"1799";"1344";"2215";"2014-10-16 12:34:10.252";;;;;;;;;;;;;;;;;;;;;;;;;;;;;;;;;;;;;;;;;;;;;;;;;;;;;;;;;;;;;;;;;;;;;;
"c1309647";"1994";;"Windows 7";"Rachel's Experiment (D.T.)";"1.0";"2";"1";"1";"2";"1";"1";"2014-10-16 12:24:23.566";"2014-10-16 12:37:52.958";"1";"1";"1";"163";"162";"module.devaluation_practice.exec-4318.devalPractice";;;;;;;;;;;;"8877";"2014-10-16 12:34:27.536";"3";"2";"3";"2";"1924";"1488";"2438";"2014-10-16 12:34:18.660";;;;;;;;;;;;;;;;;;;;;;;;;;;;;;;;;;;;;;;;;;;;;;;;;;;;;;;;;;;;;;;;;;;;;;
"c1309647";"1994";;"Windows 7";"Rachel's Experiment (D.T.)";"1.0";"2";"1";"1";"2";"1";"1";"2014-10-16 12:24:23.566";"2014-10-16 12:37:52.958";"1";"1";"1";"164";"163";"module.devaluation_block1.exec-5434.deval1";"11909";"2014-10-16 12:34:44.868";"13";"6";"3";"8";"4756";"2656";"1444";"2014-10-16 12:34:32.965";"2";;;;;;;;;;;;;;;;;;;;;;;;;;;;;;;;;;;;;;;;;;;;;;;;;;;;;;;;;;;;;;;;;;;;;;;;;;;;;;;;
"c1309647";"1994";;"Windows 7";"Rachel's Experiment (D.T.)";"1.0";"2";"1";"1";"2";"1";"1";"2014-10-16 12:24:23.566";"2014-10-16 12:37:52.958";"1";"1";"1";"165";"164";"module.devaluation_block1.exec-5434.deval1";"8397";"2014-10-16 12:34:53.292";"10";"4";"6";"7";"2313";"1204";"1841";"2014-10-16 12:34:44.899";"2";;;;;;;;;;;;;;;;;;;;;;;;;;;;;;;;;;;;;;;;;;;;;;;;;;;;;;;;;;;;;;;;;;;;;;;;;;;;;;;;
"c1309647";"1994";;"Windows 7";"Rachel's Experiment (D.T.)";"1.0";"2";"1";"1";"2";"1";"1";"2014-10-16 12:24:23.566";"2014-10-16 12:37:52.958";"1";"1";"1";"166";"165";"module.devaluation_block1.exec-5434.deval1";"7597";"2014-10-16 12:35:00.905";"17";"1";"1";"1";"1271";"1191";"2108";"2014-10-16 12:34:53.308";"2";;;;;;;;;;;;;;;;;;;;;;;;;;;;;;;;;;;;;;;;;;;;;;;;;;;;;;;;;;;;;;;;;;;;;;;;;;;;;;;;
"c1309647";"1994";;"Windows 7";"Rachel's Experiment (D.T.)";"1.0";"2";"1";"1";"2";"1";"1";"2014-10-16 12:24:23.566";"2014-10-16 12:37:52.958";"1";"1";"1";"167";"166";"module.devaluation_block1.exec-5434.deval1";"7805";"2014-10-16 12:35:08.736";"23";"8";"6";"9";"2098";"919";"1764";"2014-10-16 12:35:00.920";"3";;;;;;;;;;;;;;;;;;;;;;;;;;;;;;;;;;;;;;;;;;;;;;;;;;;;;;;;;;;;;;;;;;;;;;;;;;;;;;;;
"c1309647";"1994";;"Windows 7";"Rachel's Experiment (D.T.)";"1.0";"2";"1";"1";"2";"1";"1";"2014-10-16 12:24:23.566";"2014-10-16 12:37:52.958";"1";"1";"1";"168";"167";"module.devaluation_block1.exec-5434.deval1";"7884";"2014-10-16 12:35:16.645";"24";"4";"9";"9";"2092";"992";"1766";"2014-10-16 12:35:08.767";"3";;;;;;;;;;;;;;;;;;;;;;;;;;;;;;;;;;;;;;;;;;;;;;;;;;;;;;;;;;;;;;;;;;;;;;;;;;;;;;;;
"c1309647";"1994";;"Windows 7";"Rachel's Experiment (D.T.)";"1.0";"2";"1";"1";"2";"1";"1";"2014-10-16 12:24:23.566";"2014-10-16 12:37:52.958";"1";"1";"1";"169";"168";"module.devaluation_block1.exec-5434.deval1";"7847";"2014-10-16 12:35:24.523";"25";"4";"9";"9";"1902";"1251";"1660";"2014-10-16 12:35:16.677";"3";;;;;;;;;;;;;;;;;;;;;;;;;;;;;;;;;;;;;;;;;;;;;;;;;;;;;;;;;;;;;;;;;;;;;;;;;;;;;;;;
"c1309647";"1994";;"Windows 7";"Rachel's Experiment (D.T.)";"1.0";"2";"1";"1";"2";"1";"1";"2014-10-16 12:24:23.566";"2014-10-16 12:37:52.958";"1";"1";"1";"170";"169";"module.devaluation_block1.exec-5434.deval1";"6044";"2014-10-16 12:35:30.592";"22";"5";"3";"6";"575";"857";"1587";"2014-10-16 12:35:24.539";"3";;;;;;;;;;;;;;;;;;;;;;;;;;;;;;;;;;;;;;;;;;;;;;;;;;;;;;;;;;;;;;;;;;;;;;;;;;;;;;;;
"c1309647";"1994";;"Windows 7";"Rachel's Experiment (D.T.)";"1.0";"2";"1";"1";"2";"1";"1";"2014-10-16 12:24:23.566";"2014-10-16 12:37:52.958";"1";"1";"1";"171";"170";"module.devaluation_block1.exec-5434.deval1";"8389";"2014-10-16 12:35:39.000";"19";"2";"4";"5";"2139";"732";"2487";"2014-10-16 12:35:30.607";"3";;;;;;;;;;;;;;;;;;;;;;;;;;;;;;;;;;;;;;;;;;;;;;;;;;;;;;;;;;;;;;;;;;;;;;;;;;;;;;;;
"c1309647";"1994";;"Windows 7";"Rachel's Experiment (D.T.)";"1.0";"2";"1";"1";"2";"1";"1";"2014-10-16 12:24:23.566";"2014-10-16 12:37:52.958";"1";"1";"1";"172";"171";"module.devaluation_block1.exec-5434.deval1";"5464";"2014-10-16 12:35:44.476";"7";"3";"5";"5";"714";"573";"1138";"2014-10-16 12:35:39.016";"1";;;;;;;;;;;;;;;;;;;;;;;;;;;;;;;;;;;;;;;;;;;;;;;;;;;;;;;;;;;;;;;;;;;;;;;;;;;;;;;;
"c1309647";"1994";;"Windows 7";"Rachel's Experiment (D.T.)";"1.0";"2";"1";"1";"2";"1";"1";"2014-10-16 12:24:23.566";"2014-10-16 12:37:52.958";"1";"1";"1";"173";"172";"module.devaluation_block1.exec-5434.deval1";"6201";"2014-10-16 12:35:50.700";"8";"6";"3";"6";"727";"1134";"1319";"2014-10-16 12:35:44.507";"1";;;;;;;;;;;;;;;;;;;;;;;;;;;;;;;;;;;;;;;;;;;;;;;;;;;;;;;;;;;;;;;;;;;;;;;;;;;;;;;;
"c1309647";"1994";;"Windows 7";"Rachel's Experiment (D.T.)";"1.0";"2";"1";"1";"2";"1";"1";"2014-10-16 12:24:23.566";"2014-10-16 12:37:52.958";"1";"1";"1";"174";"173";"module.devaluation_block1.exec-5434.deval1";"6901";"2014-10-16 12:35:57.627";"9";"5";"5";"7";"503";"1580";"1777";"2014-10-16 12:35:50.731";"2";;;;;;;;;;;;;;;;;;;;;;;;;;;;;;;;;;;;;;;;;;;;;;;;;;;;;;;;;;;;;;;;;;;;;;;;;;;;;;;;
"c1309647";"1994";;"Windows 7";"Rachel's Experiment (D.T.)";"1.0";"2";"1";"1";"2";"1";"1";"2014-10-16 12:24:23.566";"2014-10-16 12:37:52.958";"1";"1";"1";"175";"174";"module.devaluation_block1.exec-5434.deval1";"6444";"2014-10-16 12:36:04.085";"18";"3";"9";"8";"1008";"1133";"1279";"2014-10-16 12:35:57.642";"3";;;;;;;;;;;;;;;;;;;;;;;;;;;;;;;;;;;;;;;;;;;;;;;;;;;;;;;;;;;;;;;;;;;;;;;;;;;;;;;;
"c1309647";"1994";;"Windows 7";"Rachel's Experiment (D.T.)";"1.0";"2";"1";"1";"2";"1";"1";"2014-10-16 12:24:23.566";"2014-10-16 12:37:52.958";"1";"1";"1";"176";"175";"module.devaluation_block1.exec-5434.deval1";"7261";"2014-10-16 12:36:11.370";"3";"4";"9";"9";"1733";"1237";"1263";"2014-10-16 12:36:04.101";"1";;;;;;;;;;;;;;;;;;;;;;;;;;;;;;;;;;;;;;;;;;;;;;;;;;;;;;;;;;;;;;;;;;;;;;;;;;;;;;;;
"c1309647";"1994";;"Windows 7";"Rachel's Experiment (D.T.)";"1.0";"2";"1";"1";"2";"1";"1";"2014-10-16 12:24:23.566";"2014-10-16 12:37:52.958";"1";"1";"1";"177";"176";"module.devaluation_block1.exec-5434.deval1";"6364";"2014-10-16 12:36:17.751";"20";"6";"8";"7";"792";"944";"1617";"2014-10-16 12:36:11.386";"3";;;;;;;;;;;;;;;;;;;;;;;;;;;;;;;;;;;;;;;;;;;;;;;;;;;;;;;;;;;;;;;;;;;;;;;;;;;;;;;;
"c1309647";"1994";;"Windows 7";"Rachel's Experiment (D.T.)";"1.0";"2";"1";"1";"2";"1";"1";"2014-10-16 12:24:23.566";"2014-10-16 12:37:52.958";"1";"1";"1";"178";"177";"module.devaluation_block1.exec-5434.deval1";"6476";"2014-10-16 12:36:24.256";"26";"8";"9";"9";"1196";"1106";"1159";"2014-10-16 12:36:17.766";"3";;;;;;;;;;;;;;;;;;;;;;;;;;;;;;;;;;;;;;;;;;;;;;;;;;;;;;;;;;;;;;;;;;;;;;;;;;;;;;;;
"c1309647";"1994";;"Windows 7";"Rachel's Experiment (D.T.)";"1.0";"2";"1";"1";"2";"1";"1";"2014-10-16 12:24:23.566";"2014-10-16 12:37:52.958";"1";"1";"1";"179";"178";"module.devaluation_block1.exec-5434.deval1";"8628";"2014-10-16 12:36:32.898";"1";"2";"6";"7";"3642";"831";"1133";"2014-10-16 12:36:24.271";"1";;;;;;;;;;;;;;;;;;;;;;;;;;;;;;;;;;;;;;;;;;;;;;;;;;;;;;;;;;;;;;;;;;;;;;;;;;;;;;;;
"c1309647";"1994";;"Windows 7";"Rachel's Experiment (D.T.)";"1.0";"2";"1";"1";"2";"1";"1";"2014-10-16 12:24:23.566";"2014-10-16 12:37:52.958";"1";"1";"1";"180";"179";"module.devaluation_block1.exec-5434.deval1";"5985";"2014-10-16 12:36:38.920";"6";"3";"9";"8";"665";"1012";"1278";"2014-10-16 12:36:32.929";"1";;;;;;;;;;;;;;;;;;;;;;;;;;;;;;;;;;;;;;;;;;;;;;;;;;;;;;;;;;;;;;;;;;;;;;;;;;;;;;;;
"c1309647";"1994";;"Windows 7";"Rachel's Experiment (D.T.)";"1.0";"2";"1";"1";"2";"1";"1";"2014-10-16 12:24:23.566";"2014-10-16 12:37:52.958";"1";"1";"1";"181";"180";"module.devaluation_block1.exec-5434.deval1";"8340";"2014-10-16 12:36:47.297";"12";"6";"7";"7";"611";"1900";"2800";"2014-10-16 12:36:38.951";"2";;;;;;;;;;;;;;;;;;;;;;;;;;;;;;;;;;;;;;;;;;;;;;;;;;;;;;;;;;;;;;;;;;;;;;;;;;;;;;;;
"c1309647";"1994";;"Windows 7";"Rachel's Experiment (D.T.)";"1.0";"2";"1";"1";"2";"1";"1";"2014-10-16 12:24:23.566";"2014-10-16 12:37:52.958";"1";"1";"1";"182";"181";"module.devaluation_block1.exec-5434.deval1";"6732";"2014-10-16 12:36:54.036";"2";"4";"8";"8";"617";"1508";"1574";"2014-10-16 12:36:47.313";"1";;;;;;;;;;;;;;;;;;;;;;;;;;;;;;;;;;;;;;;;;;;;;;;;;;;;;;;;;;;;;;;;;;;;;;;;;;;;;;;;
"c1309647";"1994";;"Windows 7";"Rachel's Experiment (D.T.)";"1.0";"2";"1";"1";"2";"1";"1";"2014-10-16 12:24:23.566";"2014-10-16 12:37:52.958";"1";"1";"1";"183";"182";"module.devaluation_block1.exec-5434.deval1";"6037";"2014-10-16 12:37:00.105";"14";"5";"5";"6";"582";"762";"1674";"2014-10-16 12:36:54.052";"2";;;;;;;;;;;;;;;;;;;;;;;;;;;;;;;;;;;;;;;;;;;;;;;;;;;;;;;;;;;;;;;;;;;;;;;;;;;;;;;;
"c1309647";"1994";;"Windows 7";"Rachel's Experiment (D.T.)";"1.0";"2";"1";"1";"2";"1";"1";"2014-10-16 12:24:23.566";"2014-10-16 12:37:52.958";"1";"1";"1";"184";"183";"module.devaluation_block1.exec-5434.deval1";"7448";"2014-10-16 12:37:07.562";"5";"5";"9";"9";"2130";"1261";"1037";"2014-10-16 12:37:00.120";"1";;;;;;;;;;;;;;;;;;;;;;;;;;;;;;;;;;;;;;;;;;;;;;;;;;;;;;;;;;;;;;;;;;;;;;;;;;;;;;;;
"c1309647";"1994";;"Windows 7";"Rachel's Experiment (D.T.)";"1.0";"2";"1";"1";"2";"1";"1";"2014-10-16 12:24:23.566";"2014-10-16 12:37:52.958";"1";"1";"1";"185";"184";"module.devaluation_block1.exec-5434.deval1";"7093";"2014-10-16 12:37:14.675";"16";"2";"1";"1";"1113";"1165";"1779";"2014-10-16 12:37:07.593";"2";;;;;;;;;;;;;;;;;;;;;;;;;;;;;;;;;;;;;;;;;;;;;;;;;;;;;;;;;;;;;;;;;;;;;;;;;;;;;;;;
"c1309647";"1994";;"Windows 7";"Rachel's Experiment (D.T.)";"1.0";"2";"1";"1";"2";"1";"1";"2014-10-16 12:24:23.566";"2014-10-16 12:37:52.958";"1";"1";"1";"186";"185";"module.devaluation_block1.exec-5434.deval1";"7704";"2014-10-16 12:37:22.413";"4";"7";"9";"9";"2479";"1109";"1084";"2014-10-16 12:37:14.706";"1";;;;;;;;;;;;;;;;;;;;;;;;;;;;;;;;;;;;;;;;;;;;;;;;;;;;;;;;;;;;;;;;;;;;;;;;;;;;;;;;
"c1309647";"1994";;"Windows 7";"Rachel's Experiment (D.T.)";"1.0";"2";"1";"1";"2";"1";"1";"2014-10-16 12:24:23.566";"2014-10-16 12:37:52.958";"1";"1";"1";"187";"186";"module.devaluation_block1.exec-5434.deval1";"7827";"2014-10-16 12:37:30.260";"21";"3";"9";"8";"2277";"1126";"1389";"2014-10-16 12:37:22.428";"3";;;;;;;;;;;;;;;;;;;;;;;;;;;;;;;;;;;;;;;;;;;;;;;;;;;;;;;;;;;;;;;;;;;;;;;;;;;;;;;;
"c1309647";"1994";;"Windows 7";"Rachel's Experiment (D.T.)";"1.0";"2";"1";"1";"2";"1";"1";"2014-10-16 12:24:23.566";"2014-10-16 12:37:52.958";"1";"1";"1";"188";"187";"module.devaluation_block1.exec-5434.deval1";"6908";"2014-10-16 12:37:37.186";"0";"4";"7";"7";"1782";"753";"1353";"2014-10-16 12:37:30.275";"1";;;;;;;;;;;;;;;;;;;;;;;;;;;;;;;;;;;;;;;;;;;;;;;;;;;;;;;;;;;;;;;;;;;;;;;;;;;;;;;;
"c1309647";"1994";;"Windows 7";"Rachel's Experiment (D.T.)";"1.0";"2";"1";"1";"2";"1";"1";"2014-10-16 12:24:23.566";"2014-10-16 12:37:52.958";"1";"1";"1";"189";"188";"module.devaluation_block1.exec-5434.deval1";"6697";"2014-10-16 12:37:43.910";"15";"2";"2";"6";"1040";"1108";"1528";"2014-10-16 12:37:37.202";"2";;;;;;;;;;;;;;;;;;;;;;;;;;;;;;;;;;;;;;;;;;;;;;;;;;;;;;;;;;;;;;;;;;;;;;;;;;;;;;;;
"c1309647";"1994";;"Windows 7";"Rachel's Experiment (D.T.)";"1.0";"2";"1";"1";"2";"1";"1";"2014-10-16 12:24:23.566";"2014-10-16 12:37:52.958";"1";"1";"1";"190";"189";"module.devaluation_block1.exec-5434.deval1";"7260";"2014-10-16 12:37:51.179";"11";"4";"4";"7";"1524";"1540";"1176";"2014-10-16 12:37:43.925";"2";;;;;;;;;;;;;;;;;;;;;;;;;;;;;;;;;;;;;;;;;;;;;;;;;;;;;;;;;;;;;;;;;;;;;;;;;;;;;;;;
