"user.name";"user.yearOfBirth";"user.sex";"user.osName";"module.name";"module.version";"module.online.subject.code";"module.online.study.id";"module.online.module.nr";"module.online.group.nr";"session.id";"session.index";"session.startTime";"session.endTime";"session.completed";"session.node-1805.conditionType";"session.node-3016.DevalQorder";"trial.id";"trial.index";"trial.name";"trial.deval1.durationTime";"trial.deval1.endTime";"trial.deval1.icon";"trial.deval1.Resp_Attractive";"trial.deval1.Resp_Eat";"trial.deval1.Resp_Taste";"trial.deval1.RT_Attractive";"trial.deval1.RT_Eat";"trial.deval1.RT_Taste";"trial.deval1.startTime";"trial.deval1.stimulus type";"trial.devalPractice.durationTime";"trial.devalPractice.endTime";"trial.devalPractice.icon";"trial.devalPractice.Resp_Attractive";"trial.devalPractice.Resp_Eat";"trial.devalPractice.Resp_Taste";"trial.devalPractice.RT_Attractive";"trial.devalPractice.RT_Eat";"trial.devalPractice.RT_Taste";"trial.devalPractice.startTime";"trial.devalPractice.stimulus type";"trial.GoNoGo1.durationTime";"trial.GoNoGo1.endTime";"trial.GoNoGo1.Error Type";"trial.GoNoGo1.icon";"trial.GoNoGo1.location";"trial.GoNoGo1.outcome";"trial.GoNoGo1.response";"trial.GoNoGo1.result";"trial.GoNoGo1.RT";"trial.GoNoGo1.signal";"trial.GoNoGo1.startTime";"trial.GoNoGo1.stimulus type";"trial.GoNoGo2.durationTime";"trial.GoNoGo2.endTime";"trial.GoNoGo2.Error Type";"trial.GoNoGo2.icon";"trial.GoNoGo2.location";"trial.GoNoGo2.outcome";"trial.GoNoGo2.response";"trial.GoNoGo2.result";"trial.GoNoGo2.RT";"trial.GoNoGo2.signal";"trial.GoNoGo2.startTime";"trial.GoNoGo2.stimulus type";"trial.GoNoGo3.durationTime";"trial.GoNoGo3.endTime";"trial.GoNoGo3.Error Type";"trial.GoNoGo3.icon";"trial.GoNoGo3.location";"trial.GoNoGo3.outcome";"trial.GoNoGo3.response";"trial.GoNoGo3.result";"trial.GoNoGo3.RT";"trial.GoNoGo3.signal";"trial.GoNoGo3.startTime";"trial.GoNoGo3.stimulus type";"trial.GoNoGo4.durationTime";"trial.GoNoGo4.endTime";"trial.GoNoGo4.Error Type";"trial.GoNoGo4.icon";"trial.GoNoGo4.location";"trial.GoNoGo4.outcome";"trial.GoNoGo4.response";"trial.GoNoGo4.result";"trial.GoNoGo4.RT";"trial.GoNoGo4.signal";"trial.GoNoGo4.startTime";"trial.GoNoGo4.stimulus type";"trial.GoNoGo_Practice.durationTime";"trial.GoNoGo_Practice.endTime";"trial.GoNoGo_Practice.icon";"trial.GoNoGo_Practice.location";"trial.GoNoGo_Practice.outcome";"trial.GoNoGo_Practice.response";"trial.GoNoGo_Practice.result";"trial.GoNoGo_Practice.RT";"trial.GoNoGo_Practice.signal";"trial.GoNoGo_Practice.startTime";"trial.GoNoGo_Practice.stimulus type";"trial.GoNoGo_Tutorial.durationTime";"trial.GoNoGo_Tutorial.endTime";"trial.GoNoGo_Tutorial.icon";"trial.GoNoGo_Tutorial.location";"trial.GoNoGo_Tutorial.outcome";"trial.GoNoGo_Tutorial.response";"trial.GoNoGo_Tutorial.result";"trial.GoNoGo_Tutorial.RT";"trial.GoNoGo_Tutorial.signal";"trial.GoNoGo_Tutorial.startTime"
"Shona21";"1995";;"Mac OS X";"Rachel's Experiment (D.T.)";"1.0";"2";"1";"1";"2";"1";"1";"2014-10-05 10:19:06.487";"2014-10-05 10:34:13.307";"1";"0";"1";"1";"0";"module.GoNoGotutorial.exec-1745.GoNoGo_Tutorial";;;;;;;;;;;;;;;;;;;;;;;;;;;;;;;;;;;;;;;;;;;;;;;;;;;;;;;;;;;;;;;;;;;;;;;;;;;;;;;;;;"4001";"2014-10-05 10:19:55.283";"leftResponse";"0";"FINISHED";"LEFT";"success";"2422";"0";"2014-10-05 10:19:51.282"
"Shona21";"1995";;"Mac OS X";"Rachel's Experiment (D.T.)";"1.0";"2";"1";"1";"2";"1";"1";"2014-10-05 10:19:06.487";"2014-10-05 10:34:13.307";"1";"0";"1";"2";"1";"module.GoNoGotutorial.exec-1745.GoNoGo_Tutorial";;;;;;;;;;;;;;;;;;;;;;;;;;;;;;;;;;;;;;;;;;;;;;;;;;;;;;;;;;;;;;;;;;;;;;;;;;;;;;;;;;"4001";"2014-10-05 10:20:00.573";"rightResponse";"1";"FINISHED";"RIGHT";"success";"979";"0";"2014-10-05 10:19:56.572"
"Shona21";"1995";;"Mac OS X";"Rachel's Experiment (D.T.)";"1.0";"2";"1";"1";"2";"1";"1";"2014-10-05 10:19:06.487";"2014-10-05 10:34:13.307";"1";"0";"1";"3";"2";"module.GoNoGotutorial.exec-1745.GoNoGo_Tutorial";;;;;;;;;;;;;;;;;;;;;;;;;;;;;;;;;;;;;;;;;;;;;;;;;;;;;;;;;;;;;;;;;;;;;;;;;;;;;;;;;;"4001";"2014-10-05 10:20:05.857";"quickResponse";"0";"FINISHED";"NONE";"failure";"0";"0";"2014-10-05 10:20:01.856"
"Shona21";"1995";;"Mac OS X";"Rachel's Experiment (D.T.)";"1.0";"2";"1";"1";"2";"1";"1";"2014-10-05 10:19:06.487";"2014-10-05 10:34:13.307";"1";"0";"1";"4";"3";"module.GoNoGopractice.exec-9335.GoNoGo_Practice";;;;;;;;;;;;;;;;;;;;;;;;;;;;;;;;;;;;;;;;;;;;;;;;;;;;;;;;;;;;;;;;;;;;;;;"1958";"2014-10-05 10:20:14.075";"18";"0";"FINISHED";"LEFT";"success";"434";"0";"2014-10-05 10:20:12.117";"3";;;;;;;;;;
"Shona21";"1995";;"Mac OS X";"Rachel's Experiment (D.T.)";"1.0";"2";"1";"1";"2";"1";"1";"2014-10-05 10:19:06.487";"2014-10-05 10:34:13.307";"1";"0";"1";"5";"4";"module.GoNoGopractice.exec-9335.GoNoGo_Practice";;;;;;;;;;;;;;;;;;;;;;;;;;;;;;;;;;;;;;;;;;;;;;;;;;;;;;;;;;;;;;;;;;;;;;;"1954";"2014-10-05 10:20:17.312";"21";"1";"FINISHED";"RIGHT";"success";"489";"0";"2014-10-05 10:20:15.358";"3";;;;;;;;;;
"Shona21";"1995";;"Mac OS X";"Rachel's Experiment (D.T.)";"1.0";"2";"1";"1";"2";"1";"1";"2014-10-05 10:19:06.487";"2014-10-05 10:34:13.307";"1";"0";"1";"6";"5";"module.GoNoGopractice.exec-9335.GoNoGo_Practice";;;;;;;;;;;;;;;;;;;;;;;;;;;;;;;;;;;;;;;;;;;;;;;;;;;;;;;;;;;;;;;;;;;;;;;"1953";"2014-10-05 10:20:20.555";"14";"1";"FINISHED";"RIGHT";"success";"605";"0";"2014-10-05 10:20:18.602";"2";;;;;;;;;;
"Shona21";"1995";;"Mac OS X";"Rachel's Experiment (D.T.)";"1.0";"2";"1";"1";"2";"1";"1";"2014-10-05 10:19:06.487";"2014-10-05 10:34:13.307";"1";"0";"1";"7";"6";"module.GoNoGopractice.exec-9335.GoNoGo_Practice";;;;;;;;;;;;;;;;;;;;;;;;;;;;;;;;;;;;;;;;;;;;;;;;;;;;;;;;;;;;;;;;;;;;;;;"1954";"2014-10-05 10:20:23.791";"26";"0";"FINISHED";"LEFT";"success";"386";"0";"2014-10-05 10:20:21.837";"3";;;;;;;;;;
"Shona21";"1995";;"Mac OS X";"Rachel's Experiment (D.T.)";"1.0";"2";"1";"1";"2";"1";"1";"2014-10-05 10:19:06.487";"2014-10-05 10:34:13.307";"1";"0";"1";"8";"7";"module.GoNoGopractice.exec-9335.GoNoGo_Practice";;;;;;;;;;;;;;;;;;;;;;;;;;;;;;;;;;;;;;;;;;;;;;;;;;;;;;;;;;;;;;;;;;;;;;;"1952";"2014-10-05 10:20:27.025";"2";"0";"FINISHED";"LEFT";"success";"431";"0";"2014-10-05 10:20:25.072";"1";;;;;;;;;;
"Shona21";"1995";;"Mac OS X";"Rachel's Experiment (D.T.)";"1.0";"2";"1";"1";"2";"1";"1";"2014-10-05 10:19:06.487";"2014-10-05 10:34:13.307";"1";"0";"1";"9";"8";"module.GoNoGopractice.exec-9335.GoNoGo_Practice";;;;;;;;;;;;;;;;;;;;;;;;;;;;;;;;;;;;;;;;;;;;;;;;;;;;;;;;;;;;;;;;;;;;;;;"1953";"2014-10-05 10:20:30.263";"30";"0";"FINISHED";"LEFT";"success";"393";"0";"2014-10-05 10:20:28.310";"3";;;;;;;;;;
"Shona21";"1995";;"Mac OS X";"Rachel's Experiment (D.T.)";"1.0";"2";"1";"1";"2";"1";"1";"2014-10-05 10:19:06.487";"2014-10-05 10:34:13.307";"1";"0";"1";"10";"9";"module.GoNoGopractice.exec-9335.GoNoGo_Practice";;;;;;;;;;;;;;;;;;;;;;;;;;;;;;;;;;;;;;;;;;;;;;;;;;;;;;;;;;;;;;;;;;;;;;;"1954";"2014-10-05 10:20:33.499";"6";"1";"FINISHED";"RIGHT";"success";"374";"0";"2014-10-05 10:20:31.545";"1";;;;;;;;;;
"Shona21";"1995";;"Mac OS X";"Rachel's Experiment (D.T.)";"1.0";"2";"1";"1";"2";"1";"1";"2014-10-05 10:19:06.487";"2014-10-05 10:34:13.307";"1";"0";"1";"11";"10";"module.GoNoGopractice.exec-9335.GoNoGo_Practice";;;;;;;;;;;;;;;;;;;;;;;;;;;;;;;;;;;;;;;;;;;;;;;;;;;;;;;;;;;;;;;;;;;;;;;"1954";"2014-10-05 10:20:36.738";"34";"0";"FINISHED";"LEFT";"success";"367";"0";"2014-10-05 10:20:34.783";"3";;;;;;;;;;
"Shona21";"1995";;"Mac OS X";"Rachel's Experiment (D.T.)";"1.0";"2";"1";"1";"2";"1";"1";"2014-10-05 10:19:06.487";"2014-10-05 10:34:13.307";"1";"0";"1";"12";"11";"module.GoNoGopractice.exec-9335.GoNoGo_Practice";;;;;;;;;;;;;;;;;;;;;;;;;;;;;;;;;;;;;;;;;;;;;;;;;;;;;;;;;;;;;;;;;;;;;;;"1954";"2014-10-05 10:20:39.973";"23";"1";"FINISHED";"RIGHT";"success";"323";"0";"2014-10-05 10:20:38.019";"3";;;;;;;;;;
"Shona21";"1995";;"Mac OS X";"Rachel's Experiment (D.T.)";"1.0";"2";"1";"1";"2";"1";"1";"2014-10-05 10:19:06.487";"2014-10-05 10:34:13.307";"1";"0";"1";"13";"12";"module.GoNoGopractice.exec-9335.GoNoGo_Practice";;;;;;;;;;;;;;;;;;;;;;;;;;;;;;;;;;;;;;;;;;;;;;;;;;;;;;;;;;;;;;;;;;;;;;;"1954";"2014-10-05 10:20:43.206";"13";"0";"FINISHED";"LEFT";"success";"330";"0";"2014-10-05 10:20:41.252";"2";;;;;;;;;;
"Shona21";"1995";;"Mac OS X";"Rachel's Experiment (D.T.)";"1.0";"2";"1";"1";"2";"1";"1";"2014-10-05 10:19:06.487";"2014-10-05 10:34:13.307";"1";"0";"1";"14";"13";"module.GoNoGopractice.exec-9335.GoNoGo_Practice";;;;;;;;;;;;;;;;;;;;;;;;;;;;;;;;;;;;;;;;;;;;;;;;;;;;;;;;;;;;;;;;;;;;;;;"1954";"2014-10-05 10:20:46.440";"3";"1";"FINISHED";"RIGHT";"success";"425";"0";"2014-10-05 10:20:44.486";"1";;;;;;;;;;
"Shona21";"1995";;"Mac OS X";"Rachel's Experiment (D.T.)";"1.0";"2";"1";"1";"2";"1";"1";"2014-10-05 10:19:06.487";"2014-10-05 10:34:13.307";"1";"0";"1";"15";"14";"module.GoNoGopractice.exec-9335.GoNoGo_Practice";;;;;;;;;;;;;;;;;;;;;;;;;;;;;;;;;;;;;;;;;;;;;;;;;;;;;;;;;;;;;;;;;;;;;;;"1953";"2014-10-05 10:20:49.674";"27";"1";"FINISHED";"RIGHT";"success";"366";"0";"2014-10-05 10:20:47.721";"3";;;;;;;;;;
"Shona21";"1995";;"Mac OS X";"Rachel's Experiment (D.T.)";"1.0";"2";"1";"1";"2";"1";"1";"2014-10-05 10:19:06.487";"2014-10-05 10:34:13.307";"1";"0";"1";"16";"15";"module.training_block1.exec-2589.GoNoGo1";;;;;;;;;;;;;;;;;;;;;;;"1252";"2014-10-05 10:20:56.122";"NST_correctLoc";"5";"0";"FINISHED";"LEFT";"success";"471";"0";"2014-10-05 10:20:54.870";"1";;;;;;;;;;;;;;;;;;;;;;;;;;;;;;;;;;;;;;;;;;;;;;;;;;;;;;;;;
"Shona21";"1995";;"Mac OS X";"Rachel's Experiment (D.T.)";"1.0";"2";"1";"1";"2";"1";"1";"2014-10-05 10:19:06.487";"2014-10-05 10:34:13.307";"1";"0";"1";"17";"16";"module.training_block1.exec-2589.GoNoGo1";;;;;;;;;;;;;;;;;;;;;;;"1251";"2014-10-05 10:20:58.650";"NST_correctLoc";"26";"1";"FINISHED";"RIGHT";"success";"310";"0";"2014-10-05 10:20:57.399";"3";;;;;;;;;;;;;;;;;;;;;;;;;;;;;;;;;;;;;;;;;;;;;;;;;;;;;;;;;
"Shona21";"1995";;"Mac OS X";"Rachel's Experiment (D.T.)";"1.0";"2";"1";"1";"2";"1";"1";"2014-10-05 10:19:06.487";"2014-10-05 10:34:13.307";"1";"0";"1";"18";"17";"module.training_block1.exec-2589.GoNoGo1";;;;;;;;;;;;;;;;;;;;;;;"1251";"2014-10-05 10:21:01.182";"NST_correctLoc";"9";"0";"FINISHED";"LEFT";"success";"506";"0";"2014-10-05 10:20:59.931";"2";;;;;;;;;;;;;;;;;;;;;;;;;;;;;;;;;;;;;;;;;;;;;;;;;;;;;;;;;
"Shona21";"1995";;"Mac OS X";"Rachel's Experiment (D.T.)";"1.0";"2";"1";"1";"2";"1";"1";"2014-10-05 10:19:06.487";"2014-10-05 10:34:13.307";"1";"0";"1";"19";"18";"module.training_block1.exec-2589.GoNoGo1";;;;;;;;;;;;;;;;;;;;;;;"1251";"2014-10-05 10:21:03.710";"NST_correctLoc";"27";"0";"FINISHED";"LEFT";"success";"426";"0";"2014-10-05 10:21:02.458";"3";;;;;;;;;;;;;;;;;;;;;;;;;;;;;;;;;;;;;;;;;;;;;;;;;;;;;;;;;
"Shona21";"1995";;"Mac OS X";"Rachel's Experiment (D.T.)";"1.0";"2";"1";"1";"2";"1";"1";"2014-10-05 10:19:06.487";"2014-10-05 10:34:13.307";"1";"0";"1";"20";"19";"module.training_block1.exec-2589.GoNoGo1";;;;;;;;;;;;;;;;;;;;;;;"1251";"2014-10-05 10:21:06.241";"NST_correctLoc";"4";"1";"FINISHED";"RIGHT";"success";"319";"0";"2014-10-05 10:21:04.990";"1";;;;;;;;;;;;;;;;;;;;;;;;;;;;;;;;;;;;;;;;;;;;;;;;;;;;;;;;;
"Shona21";"1995";;"Mac OS X";"Rachel's Experiment (D.T.)";"1.0";"2";"1";"1";"2";"1";"1";"2014-10-05 10:19:06.487";"2014-10-05 10:34:13.307";"1";"0";"1";"21";"20";"module.training_block1.exec-2589.GoNoGo1";;;;;;;;;;;;;;;;;;;;;;;"1251";"2014-10-05 10:21:08.769";"NST_correctLoc";"21";"0";"FINISHED";"LEFT";"success";"383";"0";"2014-10-05 10:21:07.518";"3";;;;;;;;;;;;;;;;;;;;;;;;;;;;;;;;;;;;;;;;;;;;;;;;;;;;;;;;;
"Shona21";"1995";;"Mac OS X";"Rachel's Experiment (D.T.)";"1.0";"2";"1";"1";"2";"1";"1";"2014-10-05 10:19:06.487";"2014-10-05 10:34:13.307";"1";"0";"1";"22";"21";"module.training_block1.exec-2589.GoNoGo1";;;;;;;;;;;;;;;;;;;;;;;"1251";"2014-10-05 10:21:11.299";"NST_correctLoc";"8";"0";"FINISHED";"LEFT";"success";"357";"0";"2014-10-05 10:21:10.048";"1";;;;;;;;;;;;;;;;;;;;;;;;;;;;;;;;;;;;;;;;;;;;;;;;;;;;;;;;;
"Shona21";"1995";;"Mac OS X";"Rachel's Experiment (D.T.)";"1.0";"2";"1";"1";"2";"1";"1";"2014-10-05 10:19:06.487";"2014-10-05 10:34:13.307";"1";"0";"1";"23";"22";"module.training_block1.exec-2589.GoNoGo1";;;;;;;;;;;;;;;;;;;;;;;"1251";"2014-10-05 10:21:13.826";"NST_correctLoc";"2";"0";"FINISHED";"LEFT";"success";"318";"0";"2014-10-05 10:21:12.574";"1";;;;;;;;;;;;;;;;;;;;;;;;;;;;;;;;;;;;;;;;;;;;;;;;;;;;;;;;;
"Shona21";"1995";;"Mac OS X";"Rachel's Experiment (D.T.)";"1.0";"2";"1";"1";"2";"1";"1";"2014-10-05 10:19:06.487";"2014-10-05 10:34:13.307";"1";"0";"1";"24";"23";"module.training_block1.exec-2589.GoNoGo1";;;;;;;;;;;;;;;;;;;;;;;"1251";"2014-10-05 10:21:16.353";"NST_correctLoc";"30";"0";"FINISHED";"LEFT";"success";"318";"0";"2014-10-05 10:21:15.102";"3";;;;;;;;;;;;;;;;;;;;;;;;;;;;;;;;;;;;;;;;;;;;;;;;;;;;;;;;;
"Shona21";"1995";;"Mac OS X";"Rachel's Experiment (D.T.)";"1.0";"2";"1";"1";"2";"1";"1";"2014-10-05 10:19:06.487";"2014-10-05 10:34:13.307";"1";"0";"1";"25";"24";"module.training_block1.exec-2589.GoNoGo1";;;;;;;;;;;;;;;;;;;;;;;"1251";"2014-10-05 10:21:18.885";"NST_correctLoc";"24";"1";"FINISHED";"RIGHT";"success";"346";"0";"2014-10-05 10:21:17.634";"3";;;;;;;;;;;;;;;;;;;;;;;;;;;;;;;;;;;;;;;;;;;;;;;;;;;;;;;;;
"Shona21";"1995";;"Mac OS X";"Rachel's Experiment (D.T.)";"1.0";"2";"1";"1";"2";"1";"1";"2014-10-05 10:19:06.487";"2014-10-05 10:34:13.307";"1";"0";"1";"26";"25";"module.training_block1.exec-2589.GoNoGo1";;;;;;;;;;;;;;;;;;;;;;;"1251";"2014-10-05 10:21:21.415";"NST_correctLoc";"25";"1";"FINISHED";"RIGHT";"success";"361";"0";"2014-10-05 10:21:20.164";"3";;;;;;;;;;;;;;;;;;;;;;;;;;;;;;;;;;;;;;;;;;;;;;;;;;;;;;;;;
"Shona21";"1995";;"Mac OS X";"Rachel's Experiment (D.T.)";"1.0";"2";"1";"1";"2";"1";"1";"2014-10-05 10:19:06.487";"2014-10-05 10:34:13.307";"1";"0";"1";"27";"26";"module.training_block1.exec-2589.GoNoGo1";;;;;;;;;;;;;;;;;;;;;;;"1250";"2014-10-05 10:21:23.947";"NST_correctLoc";"14";"0";"FINISHED";"LEFT";"success";"332";"0";"2014-10-05 10:21:22.696";"2";;;;;;;;;;;;;;;;;;;;;;;;;;;;;;;;;;;;;;;;;;;;;;;;;;;;;;;;;
"Shona21";"1995";;"Mac OS X";"Rachel's Experiment (D.T.)";"1.0";"2";"1";"1";"2";"1";"1";"2014-10-05 10:19:06.487";"2014-10-05 10:34:13.307";"1";"0";"1";"28";"27";"module.training_block1.exec-2589.GoNoGo1";;;;;;;;;;;;;;;;;;;;;;;"1251";"2014-10-05 10:21:26.477";"NST_correctLoc";"1";"1";"FINISHED";"RIGHT";"success";"331";"0";"2014-10-05 10:21:25.225";"1";;;;;;;;;;;;;;;;;;;;;;;;;;;;;;;;;;;;;;;;;;;;;;;;;;;;;;;;;
"Shona21";"1995";;"Mac OS X";"Rachel's Experiment (D.T.)";"1.0";"2";"1";"1";"2";"1";"1";"2014-10-05 10:19:06.487";"2014-10-05 10:34:13.307";"1";"0";"1";"29";"28";"module.training_block1.exec-2589.GoNoGo1";;;;;;;;;;;;;;;;;;;;;;;"1250";"2014-10-05 10:21:29.006";"NST_correctLoc";"16";"0";"FINISHED";"LEFT";"success";"337";"0";"2014-10-05 10:21:27.755";"2";;;;;;;;;;;;;;;;;;;;;;;;;;;;;;;;;;;;;;;;;;;;;;;;;;;;;;;;;
"Shona21";"1995";;"Mac OS X";"Rachel's Experiment (D.T.)";"1.0";"2";"1";"1";"2";"1";"1";"2014-10-05 10:19:06.487";"2014-10-05 10:34:13.307";"1";"0";"1";"30";"29";"module.training_block1.exec-2589.GoNoGo1";;;;;;;;;;;;;;;;;;;;;;;"1251";"2014-10-05 10:21:31.535";"NST_correctLoc";"34";"1";"FINISHED";"RIGHT";"success";"313";"0";"2014-10-05 10:21:30.283";"3";;;;;;;;;;;;;;;;;;;;;;;;;;;;;;;;;;;;;;;;;;;;;;;;;;;;;;;;;
"Shona21";"1995";;"Mac OS X";"Rachel's Experiment (D.T.)";"1.0";"2";"1";"1";"2";"1";"1";"2014-10-05 10:19:06.487";"2014-10-05 10:34:13.307";"1";"0";"1";"31";"30";"module.training_block1.exec-2589.GoNoGo1";;;;;;;;;;;;;;;;;;;;;;;"1250";"2014-10-05 10:21:34.064";"NST_correctLoc";"31";"1";"FINISHED";"RIGHT";"success";"319";"0";"2014-10-05 10:21:32.813";"3";;;;;;;;;;;;;;;;;;;;;;;;;;;;;;;;;;;;;;;;;;;;;;;;;;;;;;;;;
"Shona21";"1995";;"Mac OS X";"Rachel's Experiment (D.T.)";"1.0";"2";"1";"1";"2";"1";"1";"2014-10-05 10:19:06.487";"2014-10-05 10:34:13.307";"1";"0";"1";"32";"31";"module.training_block1.exec-2589.GoNoGo1";;;;;;;;;;;;;;;;;;;;;;;"1251";"2014-10-05 10:21:36.593";"NST_correctLoc";"33";"1";"FINISHED";"RIGHT";"success";"319";"0";"2014-10-05 10:21:35.341";"3";;;;;;;;;;;;;;;;;;;;;;;;;;;;;;;;;;;;;;;;;;;;;;;;;;;;;;;;;
"Shona21";"1995";;"Mac OS X";"Rachel's Experiment (D.T.)";"1.0";"2";"1";"1";"2";"1";"1";"2014-10-05 10:19:06.487";"2014-10-05 10:34:13.307";"1";"0";"1";"33";"32";"module.training_block1.exec-2589.GoNoGo1";;;;;;;;;;;;;;;;;;;;;;;"1251";"2014-10-05 10:21:39.119";"NST_correctLoc";"13";"0";"FINISHED";"LEFT";"success";"384";"0";"2014-10-05 10:21:37.868";"2";;;;;;;;;;;;;;;;;;;;;;;;;;;;;;;;;;;;;;;;;;;;;;;;;;;;;;;;;
"Shona21";"1995";;"Mac OS X";"Rachel's Experiment (D.T.)";"1.0";"2";"1";"1";"2";"1";"1";"2014-10-05 10:19:06.487";"2014-10-05 10:34:13.307";"1";"0";"1";"34";"33";"module.training_block1.exec-2589.GoNoGo1";;;;;;;;;;;;;;;;;;;;;;;"1251";"2014-10-05 10:21:41.645";"NST_correctLoc";"3";"1";"FINISHED";"RIGHT";"success";"586";"0";"2014-10-05 10:21:40.394";"1";;;;;;;;;;;;;;;;;;;;;;;;;;;;;;;;;;;;;;;;;;;;;;;;;;;;;;;;;
"Shona21";"1995";;"Mac OS X";"Rachel's Experiment (D.T.)";"1.0";"2";"1";"1";"2";"1";"1";"2014-10-05 10:19:06.487";"2014-10-05 10:34:13.307";"1";"0";"1";"35";"34";"module.training_block1.exec-2589.GoNoGo1";;;;;;;;;;;;;;;;;;;;;;;"1251";"2014-10-05 10:21:44.174";"NST_correctLoc";"22";"0";"FINISHED";"LEFT";"success";"361";"0";"2014-10-05 10:21:42.923";"3";;;;;;;;;;;;;;;;;;;;;;;;;;;;;;;;;;;;;;;;;;;;;;;;;;;;;;;;;
"Shona21";"1995";;"Mac OS X";"Rachel's Experiment (D.T.)";"1.0";"2";"1";"1";"2";"1";"1";"2014-10-05 10:19:06.487";"2014-10-05 10:34:13.307";"1";"0";"1";"36";"35";"module.training_block1.exec-2589.GoNoGo1";;;;;;;;;;;;;;;;;;;;;;;"1251";"2014-10-05 10:21:46.702";"NST_correctLoc";"23";"1";"FINISHED";"RIGHT";"success";"289";"0";"2014-10-05 10:21:45.451";"3";;;;;;;;;;;;;;;;;;;;;;;;;;;;;;;;;;;;;;;;;;;;;;;;;;;;;;;;;
"Shona21";"1995";;"Mac OS X";"Rachel's Experiment (D.T.)";"1.0";"2";"1";"1";"2";"1";"1";"2014-10-05 10:19:06.487";"2014-10-05 10:34:13.307";"1";"0";"1";"37";"36";"module.training_block1.exec-2589.GoNoGo1";;;;;;;;;;;;;;;;;;;;;;;"1250";"2014-10-05 10:21:49.231";"NST_correctLoc";"19";"0";"FINISHED";"LEFT";"success";"255";"0";"2014-10-05 10:21:47.980";"3";;;;;;;;;;;;;;;;;;;;;;;;;;;;;;;;;;;;;;;;;;;;;;;;;;;;;;;;;
"Shona21";"1995";;"Mac OS X";"Rachel's Experiment (D.T.)";"1.0";"2";"1";"1";"2";"1";"1";"2014-10-05 10:19:06.487";"2014-10-05 10:34:13.307";"1";"0";"1";"38";"37";"module.training_block1.exec-2589.GoNoGo1";;;;;;;;;;;;;;;;;;;;;;;"1250";"2014-10-05 10:21:51.761";"NST_correctLoc";"11";"0";"FINISHED";"LEFT";"success";"445";"0";"2014-10-05 10:21:50.510";"2";;;;;;;;;;;;;;;;;;;;;;;;;;;;;;;;;;;;;;;;;;;;;;;;;;;;;;;;;
"Shona21";"1995";;"Mac OS X";"Rachel's Experiment (D.T.)";"1.0";"2";"1";"1";"2";"1";"1";"2014-10-05 10:19:06.487";"2014-10-05 10:34:13.307";"1";"0";"1";"39";"38";"module.training_block1.exec-2589.GoNoGo1";;;;;;;;;;;;;;;;;;;;;;;"1251";"2014-10-05 10:21:54.292";"NST_correctLoc";"15";"1";"FINISHED";"RIGHT";"success";"355";"0";"2014-10-05 10:21:53.041";"2";;;;;;;;;;;;;;;;;;;;;;;;;;;;;;;;;;;;;;;;;;;;;;;;;;;;;;;;;
"Shona21";"1995";;"Mac OS X";"Rachel's Experiment (D.T.)";"1.0";"2";"1";"1";"2";"1";"1";"2014-10-05 10:19:06.487";"2014-10-05 10:34:13.307";"1";"0";"1";"40";"39";"module.training_block1.exec-2589.GoNoGo1";;;;;;;;;;;;;;;;;;;;;;;"1251";"2014-10-05 10:21:56.822";"NST_correctLoc";"7";"0";"FINISHED";"LEFT";"success";"400";"0";"2014-10-05 10:21:55.571";"1";;;;;;;;;;;;;;;;;;;;;;;;;;;;;;;;;;;;;;;;;;;;;;;;;;;;;;;;;
"Shona21";"1995";;"Mac OS X";"Rachel's Experiment (D.T.)";"1.0";"2";"1";"1";"2";"1";"1";"2014-10-05 10:19:06.487";"2014-10-05 10:34:13.307";"1";"0";"1";"41";"40";"module.training_block1.exec-2589.GoNoGo1";;;;;;;;;;;;;;;;;;;;;;;"1251";"2014-10-05 10:21:59.351";"NST_correctLoc";"0";"0";"FINISHED";"LEFT";"success";"351";"0";"2014-10-05 10:21:58.100";"1";;;;;;;;;;;;;;;;;;;;;;;;;;;;;;;;;;;;;;;;;;;;;;;;;;;;;;;;;
"Shona21";"1995";;"Mac OS X";"Rachel's Experiment (D.T.)";"1.0";"2";"1";"1";"2";"1";"1";"2014-10-05 10:19:06.487";"2014-10-05 10:34:13.307";"1";"0";"1";"42";"41";"module.training_block1.exec-2589.GoNoGo1";;;;;;;;;;;;;;;;;;;;;;;"1251";"2014-10-05 10:22:01.878";"NST_correctLoc";"18";"0";"FINISHED";"LEFT";"success";"272";"0";"2014-10-05 10:22:00.627";"3";;;;;;;;;;;;;;;;;;;;;;;;;;;;;;;;;;;;;;;;;;;;;;;;;;;;;;;;;
"Shona21";"1995";;"Mac OS X";"Rachel's Experiment (D.T.)";"1.0";"2";"1";"1";"2";"1";"1";"2014-10-05 10:19:06.487";"2014-10-05 10:34:13.307";"1";"0";"1";"43";"42";"module.training_block1.exec-2589.GoNoGo1";;;;;;;;;;;;;;;;;;;;;;;"1251";"2014-10-05 10:22:04.405";"NST_correctLoc";"6";"1";"FINISHED";"RIGHT";"success";"306";"0";"2014-10-05 10:22:03.153";"1";;;;;;;;;;;;;;;;;;;;;;;;;;;;;;;;;;;;;;;;;;;;;;;;;;;;;;;;;
"Shona21";"1995";;"Mac OS X";"Rachel's Experiment (D.T.)";"1.0";"2";"1";"1";"2";"1";"1";"2014-10-05 10:19:06.487";"2014-10-05 10:34:13.307";"1";"0";"1";"44";"43";"module.training_block1.exec-2589.GoNoGo1";;;;;;;;;;;;;;;;;;;;;;;"1251";"2014-10-05 10:22:06.935";"NST_correctLoc";"12";"0";"FINISHED";"LEFT";"success";"383";"0";"2014-10-05 10:22:05.684";"2";;;;;;;;;;;;;;;;;;;;;;;;;;;;;;;;;;;;;;;;;;;;;;;;;;;;;;;;;
"Shona21";"1995";;"Mac OS X";"Rachel's Experiment (D.T.)";"1.0";"2";"1";"1";"2";"1";"1";"2014-10-05 10:19:06.487";"2014-10-05 10:34:13.307";"1";"0";"1";"45";"44";"module.training_block1.exec-2589.GoNoGo1";;;;;;;;;;;;;;;;;;;;;;;"1251";"2014-10-05 10:22:09.463";"NST_correctLoc";"20";"1";"FINISHED";"RIGHT";"success";"263";"0";"2014-10-05 10:22:08.212";"3";;;;;;;;;;;;;;;;;;;;;;;;;;;;;;;;;;;;;;;;;;;;;;;;;;;;;;;;;
"Shona21";"1995";;"Mac OS X";"Rachel's Experiment (D.T.)";"1.0";"2";"1";"1";"2";"1";"1";"2014-10-05 10:19:06.487";"2014-10-05 10:34:13.307";"1";"0";"1";"46";"45";"module.training_block1.exec-2589.GoNoGo1";;;;;;;;;;;;;;;;;;;;;;;"1251";"2014-10-05 10:22:11.993";"NST_correctLoc";"29";"1";"FINISHED";"RIGHT";"success";"350";"0";"2014-10-05 10:22:10.741";"3";;;;;;;;;;;;;;;;;;;;;;;;;;;;;;;;;;;;;;;;;;;;;;;;;;;;;;;;;
"Shona21";"1995";;"Mac OS X";"Rachel's Experiment (D.T.)";"1.0";"2";"1";"1";"2";"1";"1";"2014-10-05 10:19:06.487";"2014-10-05 10:34:13.307";"1";"0";"1";"47";"46";"module.training_block1.exec-2589.GoNoGo1";;;;;;;;;;;;;;;;;;;;;;;"1251";"2014-10-05 10:22:14.521";"NST_correctLoc";"28";"1";"FINISHED";"RIGHT";"success";"309";"0";"2014-10-05 10:22:13.270";"3";;;;;;;;;;;;;;;;;;;;;;;;;;;;;;;;;;;;;;;;;;;;;;;;;;;;;;;;;
"Shona21";"1995";;"Mac OS X";"Rachel's Experiment (D.T.)";"1.0";"2";"1";"1";"2";"1";"1";"2014-10-05 10:19:06.487";"2014-10-05 10:34:13.307";"1";"0";"1";"48";"47";"module.training_block1.exec-2589.GoNoGo1";;;;;;;;;;;;;;;;;;;;;;;"1251";"2014-10-05 10:22:17.089";"NST_correctLoc";"17";"0";"FINISHED";"LEFT";"success";"277";"0";"2014-10-05 10:22:15.838";"2";;;;;;;;;;;;;;;;;;;;;;;;;;;;;;;;;;;;;;;;;;;;;;;;;;;;;;;;;
"Shona21";"1995";;"Mac OS X";"Rachel's Experiment (D.T.)";"1.0";"2";"1";"1";"2";"1";"1";"2014-10-05 10:19:06.487";"2014-10-05 10:34:13.307";"1";"0";"1";"49";"48";"module.training_block1.exec-2589.GoNoGo1";;;;;;;;;;;;;;;;;;;;;;;"1251";"2014-10-05 10:22:19.618";"NST_correctLoc";"32";"1";"FINISHED";"RIGHT";"success";"300";"0";"2014-10-05 10:22:18.367";"3";;;;;;;;;;;;;;;;;;;;;;;;;;;;;;;;;;;;;;;;;;;;;;;;;;;;;;;;;
"Shona21";"1995";;"Mac OS X";"Rachel's Experiment (D.T.)";"1.0";"2";"1";"1";"2";"1";"1";"2014-10-05 10:19:06.487";"2014-10-05 10:34:13.307";"1";"0";"1";"50";"49";"module.training_block1.exec-2589.GoNoGo1";;;;;;;;;;;;;;;;;;;;;;;"1249";"2014-10-05 10:22:22.151";"NST_correctLoc";"10";"1";"FINISHED";"RIGHT";"success";"285";"0";"2014-10-05 10:22:20.901";"2";;;;;;;;;;;;;;;;;;;;;;;;;;;;;;;;;;;;;;;;;;;;;;;;;;;;;;;;;
"Shona21";"1995";;"Mac OS X";"Rachel's Experiment (D.T.)";"1.0";"2";"1";"1";"2";"1";"1";"2014-10-05 10:19:06.487";"2014-10-05 10:34:13.307";"1";"0";"1";"51";"50";"module.training_block1.exec-2589.GoNoGo1";;;;;;;;;;;;;;;;;;;;;;;"1251";"2014-10-05 10:22:24.684";"NST_correctLoc";"35";"1";"FINISHED";"RIGHT";"success";"306";"0";"2014-10-05 10:22:23.432";"3";;;;;;;;;;;;;;;;;;;;;;;;;;;;;;;;;;;;;;;;;;;;;;;;;;;;;;;;;
"Shona21";"1995";;"Mac OS X";"Rachel's Experiment (D.T.)";"1.0";"2";"1";"1";"2";"1";"1";"2014-10-05 10:19:06.487";"2014-10-05 10:34:13.307";"1";"0";"1";"52";"51";"module.training_block2.exec-2886.GoNoGo2";;;;;;;;;;;;;;;;;;;;;;;;;;;;;;;;;;;"1251";"2014-10-05 10:22:36.347";"NST_correctLoc";"21";"0";"FINISHED";"LEFT";"success";"344";"0";"2014-10-05 10:22:35.096";"3";;;;;;;;;;;;;;;;;;;;;;;;;;;;;;;;;;;;;;;;;;;;;
"Shona21";"1995";;"Mac OS X";"Rachel's Experiment (D.T.)";"1.0";"2";"1";"1";"2";"1";"1";"2014-10-05 10:19:06.487";"2014-10-05 10:34:13.307";"1";"0";"1";"53";"52";"module.training_block2.exec-2886.GoNoGo2";;;;;;;;;;;;;;;;;;;;;;;;;;;;;;;;;;;"1251";"2014-10-05 10:22:38.875";"NST_correctLoc";"4";"1";"FINISHED";"RIGHT";"success";"288";"0";"2014-10-05 10:22:37.623";"1";;;;;;;;;;;;;;;;;;;;;;;;;;;;;;;;;;;;;;;;;;;;;
"Shona21";"1995";;"Mac OS X";"Rachel's Experiment (D.T.)";"1.0";"2";"1";"1";"2";"1";"1";"2014-10-05 10:19:06.487";"2014-10-05 10:34:13.307";"1";"0";"1";"54";"53";"module.training_block2.exec-2886.GoNoGo2";;;;;;;;;;;;;;;;;;;;;;;;;;;;;;;;;;;"1251";"2014-10-05 10:22:41.400";"NST_correctLoc";"6";"0";"FINISHED";"LEFT";"success";"275";"0";"2014-10-05 10:22:40.149";"1";;;;;;;;;;;;;;;;;;;;;;;;;;;;;;;;;;;;;;;;;;;;;
"Shona21";"1995";;"Mac OS X";"Rachel's Experiment (D.T.)";"1.0";"2";"1";"1";"2";"1";"1";"2014-10-05 10:19:06.487";"2014-10-05 10:34:13.307";"1";"0";"1";"55";"54";"module.training_block2.exec-2886.GoNoGo2";;;;;;;;;;;;;;;;;;;;;;;;;;;;;;;;;;;"1251";"2014-10-05 10:22:43.924";"NST_wrongLoc";"29";"1";"FINISHED";"LEFT";"failure";"335";"0";"2014-10-05 10:22:42.673";"3";;;;;;;;;;;;;;;;;;;;;;;;;;;;;;;;;;;;;;;;;;;;;
"Shona21";"1995";;"Mac OS X";"Rachel's Experiment (D.T.)";"1.0";"2";"1";"1";"2";"1";"1";"2014-10-05 10:19:06.487";"2014-10-05 10:34:13.307";"1";"0";"1";"56";"55";"module.training_block2.exec-2886.GoNoGo2";;;;;;;;;;;;;;;;;;;;;;;;;;;;;;;;;;;"1251";"2014-10-05 10:22:46.451";"NST_correctLoc";"16";"0";"FINISHED";"LEFT";"success";"487";"0";"2014-10-05 10:22:45.200";"2";;;;;;;;;;;;;;;;;;;;;;;;;;;;;;;;;;;;;;;;;;;;;
"Shona21";"1995";;"Mac OS X";"Rachel's Experiment (D.T.)";"1.0";"2";"1";"1";"2";"1";"1";"2014-10-05 10:19:06.487";"2014-10-05 10:34:13.307";"1";"0";"1";"57";"56";"module.training_block2.exec-2886.GoNoGo2";;;;;;;;;;;;;;;;;;;;;;;;;;;;;;;;;;;"1251";"2014-10-05 10:22:48.977";"NST_correctLoc";"35";"0";"FINISHED";"LEFT";"success";"401";"0";"2014-10-05 10:22:47.726";"3";;;;;;;;;;;;;;;;;;;;;;;;;;;;;;;;;;;;;;;;;;;;;
"Shona21";"1995";;"Mac OS X";"Rachel's Experiment (D.T.)";"1.0";"2";"1";"1";"2";"1";"1";"2014-10-05 10:19:06.487";"2014-10-05 10:34:13.307";"1";"0";"1";"58";"57";"module.training_block2.exec-2886.GoNoGo2";;;;;;;;;;;;;;;;;;;;;;;;;;;;;;;;;;;"1251";"2014-10-05 10:22:51.504";"NST_correctLoc";"20";"1";"FINISHED";"RIGHT";"success";"307";"0";"2014-10-05 10:22:50.253";"3";;;;;;;;;;;;;;;;;;;;;;;;;;;;;;;;;;;;;;;;;;;;;
"Shona21";"1995";;"Mac OS X";"Rachel's Experiment (D.T.)";"1.0";"2";"1";"1";"2";"1";"1";"2014-10-05 10:19:06.487";"2014-10-05 10:34:13.307";"1";"0";"1";"59";"58";"module.training_block2.exec-2886.GoNoGo2";;;;;;;;;;;;;;;;;;;;;;;;;;;;;;;;;;;"1251";"2014-10-05 10:22:54.030";"NST_correctLoc";"26";"1";"FINISHED";"RIGHT";"success";"285";"0";"2014-10-05 10:22:52.778";"3";;;;;;;;;;;;;;;;;;;;;;;;;;;;;;;;;;;;;;;;;;;;;
"Shona21";"1995";;"Mac OS X";"Rachel's Experiment (D.T.)";"1.0";"2";"1";"1";"2";"1";"1";"2014-10-05 10:19:06.487";"2014-10-05 10:34:13.307";"1";"0";"1";"60";"59";"module.training_block2.exec-2886.GoNoGo2";;;;;;;;;;;;;;;;;;;;;;;;;;;;;;;;;;;"1251";"2014-10-05 10:22:56.555";"NST_correctLoc";"24";"0";"FINISHED";"LEFT";"success";"343";"0";"2014-10-05 10:22:55.304";"3";;;;;;;;;;;;;;;;;;;;;;;;;;;;;;;;;;;;;;;;;;;;;
"Shona21";"1995";;"Mac OS X";"Rachel's Experiment (D.T.)";"1.0";"2";"1";"1";"2";"1";"1";"2014-10-05 10:19:06.487";"2014-10-05 10:34:13.307";"1";"0";"1";"61";"60";"module.training_block2.exec-2886.GoNoGo2";;;;;;;;;;;;;;;;;;;;;;;;;;;;;;;;;;;"1251";"2014-10-05 10:22:59.081";"NST_correctLoc";"9";"1";"FINISHED";"RIGHT";"success";"257";"0";"2014-10-05 10:22:57.830";"2";;;;;;;;;;;;;;;;;;;;;;;;;;;;;;;;;;;;;;;;;;;;;
"Shona21";"1995";;"Mac OS X";"Rachel's Experiment (D.T.)";"1.0";"2";"1";"1";"2";"1";"1";"2014-10-05 10:19:06.487";"2014-10-05 10:34:13.307";"1";"0";"1";"62";"61";"module.training_block2.exec-2886.GoNoGo2";;;;;;;;;;;;;;;;;;;;;;;;;;;;;;;;;;;"1251";"2014-10-05 10:23:01.606";"NST_correctLoc";"13";"0";"FINISHED";"LEFT";"success";"260";"0";"2014-10-05 10:23:00.355";"2";;;;;;;;;;;;;;;;;;;;;;;;;;;;;;;;;;;;;;;;;;;;;
"Shona21";"1995";;"Mac OS X";"Rachel's Experiment (D.T.)";"1.0";"2";"1";"1";"2";"1";"1";"2014-10-05 10:19:06.487";"2014-10-05 10:34:13.307";"1";"0";"1";"63";"62";"module.training_block2.exec-2886.GoNoGo2";;;;;;;;;;;;;;;;;;;;;;;;;;;;;;;;;;;"1250";"2014-10-05 10:23:04.131";"NST_wrongLoc";"18";"0";"FINISHED";"RIGHT";"failure";"343";"0";"2014-10-05 10:23:02.880";"3";;;;;;;;;;;;;;;;;;;;;;;;;;;;;;;;;;;;;;;;;;;;;
"Shona21";"1995";;"Mac OS X";"Rachel's Experiment (D.T.)";"1.0";"2";"1";"1";"2";"1";"1";"2014-10-05 10:19:06.487";"2014-10-05 10:34:13.307";"1";"0";"1";"64";"63";"module.training_block2.exec-2886.GoNoGo2";;;;;;;;;;;;;;;;;;;;;;;;;;;;;;;;;;;"1250";"2014-10-05 10:23:06.656";"NST_correctLoc";"3";"0";"FINISHED";"LEFT";"success";"450";"0";"2014-10-05 10:23:05.405";"1";;;;;;;;;;;;;;;;;;;;;;;;;;;;;;;;;;;;;;;;;;;;;
"Shona21";"1995";;"Mac OS X";"Rachel's Experiment (D.T.)";"1.0";"2";"1";"1";"2";"1";"1";"2014-10-05 10:19:06.487";"2014-10-05 10:34:13.307";"1";"0";"1";"65";"64";"module.training_block2.exec-2886.GoNoGo2";;;;;;;;;;;;;;;;;;;;;;;;;;;;;;;;;;;"1251";"2014-10-05 10:23:09.181";"NST_correctLoc";"32";"1";"FINISHED";"RIGHT";"success";"317";"0";"2014-10-05 10:23:07.930";"3";;;;;;;;;;;;;;;;;;;;;;;;;;;;;;;;;;;;;;;;;;;;;
"Shona21";"1995";;"Mac OS X";"Rachel's Experiment (D.T.)";"1.0";"2";"1";"1";"2";"1";"1";"2014-10-05 10:19:06.487";"2014-10-05 10:34:13.307";"1";"0";"1";"66";"65";"module.training_block2.exec-2886.GoNoGo2";;;;;;;;;;;;;;;;;;;;;;;;;;;;;;;;;;;"1251";"2014-10-05 10:23:11.706";"NST_correctLoc";"5";"1";"FINISHED";"RIGHT";"success";"312";"0";"2014-10-05 10:23:10.454";"1";;;;;;;;;;;;;;;;;;;;;;;;;;;;;;;;;;;;;;;;;;;;;
"Shona21";"1995";;"Mac OS X";"Rachel's Experiment (D.T.)";"1.0";"2";"1";"1";"2";"1";"1";"2014-10-05 10:19:06.487";"2014-10-05 10:34:13.307";"1";"0";"1";"67";"66";"module.training_block2.exec-2886.GoNoGo2";;;;;;;;;;;;;;;;;;;;;;;;;;;;;;;;;;;"1251";"2014-10-05 10:23:14.231";"NST_correctLoc";"14";"0";"FINISHED";"LEFT";"success";"323";"0";"2014-10-05 10:23:12.979";"2";;;;;;;;;;;;;;;;;;;;;;;;;;;;;;;;;;;;;;;;;;;;;
"Shona21";"1995";;"Mac OS X";"Rachel's Experiment (D.T.)";"1.0";"2";"1";"1";"2";"1";"1";"2014-10-05 10:19:06.487";"2014-10-05 10:34:13.307";"1";"0";"1";"68";"67";"module.training_block2.exec-2886.GoNoGo2";;;;;;;;;;;;;;;;;;;;;;;;;;;;;;;;;;;"1251";"2014-10-05 10:23:16.757";"NST_correctLoc";"15";"1";"FINISHED";"RIGHT";"success";"293";"0";"2014-10-05 10:23:15.505";"2";;;;;;;;;;;;;;;;;;;;;;;;;;;;;;;;;;;;;;;;;;;;;
"Shona21";"1995";;"Mac OS X";"Rachel's Experiment (D.T.)";"1.0";"2";"1";"1";"2";"1";"1";"2014-10-05 10:19:06.487";"2014-10-05 10:34:13.307";"1";"0";"1";"69";"68";"module.training_block2.exec-2886.GoNoGo2";;;;;;;;;;;;;;;;;;;;;;;;;;;;;;;;;;;"1251";"2014-10-05 10:23:19.284";"NST_correctLoc";"33";"1";"FINISHED";"RIGHT";"success";"342";"0";"2014-10-05 10:23:18.033";"3";;;;;;;;;;;;;;;;;;;;;;;;;;;;;;;;;;;;;;;;;;;;;
"Shona21";"1995";;"Mac OS X";"Rachel's Experiment (D.T.)";"1.0";"2";"1";"1";"2";"1";"1";"2014-10-05 10:19:06.487";"2014-10-05 10:34:13.307";"1";"0";"1";"70";"69";"module.training_block2.exec-2886.GoNoGo2";;;;;;;;;;;;;;;;;;;;;;;;;;;;;;;;;;;"1251";"2014-10-05 10:23:21.946";"NST_correctLoc";"31";"1";"FINISHED";"RIGHT";"success";"344";"0";"2014-10-05 10:23:20.695";"3";;;;;;;;;;;;;;;;;;;;;;;;;;;;;;;;;;;;;;;;;;;;;
"Shona21";"1995";;"Mac OS X";"Rachel's Experiment (D.T.)";"1.0";"2";"1";"1";"2";"1";"1";"2014-10-05 10:19:06.487";"2014-10-05 10:34:13.307";"1";"0";"1";"71";"70";"module.training_block2.exec-2886.GoNoGo2";;;;;;;;;;;;;;;;;;;;;;;;;;;;;;;;;;;"1251";"2014-10-05 10:23:24.481";"NST_correctLoc";"30";"1";"FINISHED";"RIGHT";"success";"393";"0";"2014-10-05 10:23:23.229";"3";;;;;;;;;;;;;;;;;;;;;;;;;;;;;;;;;;;;;;;;;;;;;
"Shona21";"1995";;"Mac OS X";"Rachel's Experiment (D.T.)";"1.0";"2";"1";"1";"2";"1";"1";"2014-10-05 10:19:06.487";"2014-10-05 10:34:13.307";"1";"0";"1";"72";"71";"module.training_block2.exec-2886.GoNoGo2";;;;;;;;;;;;;;;;;;;;;;;;;;;;;;;;;;;"1251";"2014-10-05 10:23:27.009";"NST_correctLoc";"17";"1";"FINISHED";"RIGHT";"success";"273";"0";"2014-10-05 10:23:25.758";"2";;;;;;;;;;;;;;;;;;;;;;;;;;;;;;;;;;;;;;;;;;;;;
"Shona21";"1995";;"Mac OS X";"Rachel's Experiment (D.T.)";"1.0";"2";"1";"1";"2";"1";"1";"2014-10-05 10:19:06.487";"2014-10-05 10:34:13.307";"1";"0";"1";"73";"72";"module.training_block2.exec-2886.GoNoGo2";;;;;;;;;;;;;;;;;;;;;;;;;;;;;;;;;;;"1250";"2014-10-05 10:23:29.536";"NST_correctLoc";"19";"0";"FINISHED";"LEFT";"success";"321";"0";"2014-10-05 10:23:28.286";"3";;;;;;;;;;;;;;;;;;;;;;;;;;;;;;;;;;;;;;;;;;;;;
"Shona21";"1995";;"Mac OS X";"Rachel's Experiment (D.T.)";"1.0";"2";"1";"1";"2";"1";"1";"2014-10-05 10:19:06.487";"2014-10-05 10:34:13.307";"1";"0";"1";"74";"73";"module.training_block2.exec-2886.GoNoGo2";;;;;;;;;;;;;;;;;;;;;;;;;;;;;;;;;;;"1251";"2014-10-05 10:23:32.066";"NST_correctLoc";"23";"0";"FINISHED";"LEFT";"success";"384";"0";"2014-10-05 10:23:30.814";"3";;;;;;;;;;;;;;;;;;;;;;;;;;;;;;;;;;;;;;;;;;;;;
"Shona21";"1995";;"Mac OS X";"Rachel's Experiment (D.T.)";"1.0";"2";"1";"1";"2";"1";"1";"2014-10-05 10:19:06.487";"2014-10-05 10:34:13.307";"1";"0";"1";"75";"74";"module.training_block2.exec-2886.GoNoGo2";;;;;;;;;;;;;;;;;;;;;;;;;;;;;;;;;;;"1251";"2014-10-05 10:23:34.595";"NST_correctLoc";"25";"0";"FINISHED";"LEFT";"success";"310";"0";"2014-10-05 10:23:33.344";"3";;;;;;;;;;;;;;;;;;;;;;;;;;;;;;;;;;;;;;;;;;;;;
"Shona21";"1995";;"Mac OS X";"Rachel's Experiment (D.T.)";"1.0";"2";"1";"1";"2";"1";"1";"2014-10-05 10:19:06.487";"2014-10-05 10:34:13.307";"1";"0";"1";"76";"75";"module.training_block2.exec-2886.GoNoGo2";;;;;;;;;;;;;;;;;;;;;;;;;;;;;;;;;;;"1251";"2014-10-05 10:23:37.123";"NST_correctLoc";"2";"1";"FINISHED";"RIGHT";"success";"374";"0";"2014-10-05 10:23:35.872";"1";;;;;;;;;;;;;;;;;;;;;;;;;;;;;;;;;;;;;;;;;;;;;
"Shona21";"1995";;"Mac OS X";"Rachel's Experiment (D.T.)";"1.0";"2";"1";"1";"2";"1";"1";"2014-10-05 10:19:06.487";"2014-10-05 10:34:13.307";"1";"0";"1";"77";"76";"module.training_block2.exec-2886.GoNoGo2";;;;;;;;;;;;;;;;;;;;;;;;;;;;;;;;;;;"1250";"2014-10-05 10:23:39.651";"NST_correctLoc";"1";"0";"FINISHED";"LEFT";"success";"262";"0";"2014-10-05 10:23:38.400";"1";;;;;;;;;;;;;;;;;;;;;;;;;;;;;;;;;;;;;;;;;;;;;
"Shona21";"1995";;"Mac OS X";"Rachel's Experiment (D.T.)";"1.0";"2";"1";"1";"2";"1";"1";"2014-10-05 10:19:06.487";"2014-10-05 10:34:13.307";"1";"0";"1";"78";"77";"module.training_block2.exec-2886.GoNoGo2";;;;;;;;;;;;;;;;;;;;;;;;;;;;;;;;;;;"1251";"2014-10-05 10:23:42.181";"NST_correctLoc";"12";"0";"FINISHED";"LEFT";"success";"373";"0";"2014-10-05 10:23:40.929";"2";;;;;;;;;;;;;;;;;;;;;;;;;;;;;;;;;;;;;;;;;;;;;
"Shona21";"1995";;"Mac OS X";"Rachel's Experiment (D.T.)";"1.0";"2";"1";"1";"2";"1";"1";"2014-10-05 10:19:06.487";"2014-10-05 10:34:13.307";"1";"0";"1";"79";"78";"module.training_block2.exec-2886.GoNoGo2";;;;;;;;;;;;;;;;;;;;;;;;;;;;;;;;;;;"1251";"2014-10-05 10:23:44.709";"NST_correctLoc";"28";"0";"FINISHED";"LEFT";"success";"276";"0";"2014-10-05 10:23:43.458";"3";;;;;;;;;;;;;;;;;;;;;;;;;;;;;;;;;;;;;;;;;;;;;
"Shona21";"1995";;"Mac OS X";"Rachel's Experiment (D.T.)";"1.0";"2";"1";"1";"2";"1";"1";"2014-10-05 10:19:06.487";"2014-10-05 10:34:13.307";"1";"0";"1";"80";"79";"module.training_block2.exec-2886.GoNoGo2";;;;;;;;;;;;;;;;;;;;;;;;;;;;;;;;;;;"1251";"2014-10-05 10:23:47.238";"NST_correctLoc";"8";"0";"FINISHED";"LEFT";"success";"292";"0";"2014-10-05 10:23:45.986";"1";;;;;;;;;;;;;;;;;;;;;;;;;;;;;;;;;;;;;;;;;;;;;
"Shona21";"1995";;"Mac OS X";"Rachel's Experiment (D.T.)";"1.0";"2";"1";"1";"2";"1";"1";"2014-10-05 10:19:06.487";"2014-10-05 10:34:13.307";"1";"0";"1";"81";"80";"module.training_block2.exec-2886.GoNoGo2";;;;;;;;;;;;;;;;;;;;;;;;;;;;;;;;;;;"1251";"2014-10-05 10:23:49.768";"NST_correctLoc";"27";"0";"FINISHED";"LEFT";"success";"305";"0";"2014-10-05 10:23:48.517";"3";;;;;;;;;;;;;;;;;;;;;;;;;;;;;;;;;;;;;;;;;;;;;
"Shona21";"1995";;"Mac OS X";"Rachel's Experiment (D.T.)";"1.0";"2";"1";"1";"2";"1";"1";"2014-10-05 10:19:06.487";"2014-10-05 10:34:13.307";"1";"0";"1";"82";"81";"module.training_block2.exec-2886.GoNoGo2";;;;;;;;;;;;;;;;;;;;;;;;;;;;;;;;;;;"1250";"2014-10-05 10:23:52.296";"NST_correctLoc";"0";"1";"FINISHED";"RIGHT";"success";"401";"0";"2014-10-05 10:23:51.045";"1";;;;;;;;;;;;;;;;;;;;;;;;;;;;;;;;;;;;;;;;;;;;;
"Shona21";"1995";;"Mac OS X";"Rachel's Experiment (D.T.)";"1.0";"2";"1";"1";"2";"1";"1";"2014-10-05 10:19:06.487";"2014-10-05 10:34:13.307";"1";"0";"1";"83";"82";"module.training_block2.exec-2886.GoNoGo2";;;;;;;;;;;;;;;;;;;;;;;;;;;;;;;;;;;"1251";"2014-10-05 10:23:54.826";"NST_correctLoc";"7";"1";"FINISHED";"RIGHT";"success";"303";"0";"2014-10-05 10:23:53.575";"1";;;;;;;;;;;;;;;;;;;;;;;;;;;;;;;;;;;;;;;;;;;;;
"Shona21";"1995";;"Mac OS X";"Rachel's Experiment (D.T.)";"1.0";"2";"1";"1";"2";"1";"1";"2014-10-05 10:19:06.487";"2014-10-05 10:34:13.307";"1";"0";"1";"84";"83";"module.training_block2.exec-2886.GoNoGo2";;;;;;;;;;;;;;;;;;;;;;;;;;;;;;;;;;;"1250";"2014-10-05 10:23:57.351";"NST_correctLoc";"10";"1";"FINISHED";"RIGHT";"success";"314";"0";"2014-10-05 10:23:56.100";"2";;;;;;;;;;;;;;;;;;;;;;;;;;;;;;;;;;;;;;;;;;;;;
"Shona21";"1995";;"Mac OS X";"Rachel's Experiment (D.T.)";"1.0";"2";"1";"1";"2";"1";"1";"2014-10-05 10:19:06.487";"2014-10-05 10:34:13.307";"1";"0";"1";"85";"84";"module.training_block2.exec-2886.GoNoGo2";;;;;;;;;;;;;;;;;;;;;;;;;;;;;;;;;;;"1250";"2014-10-05 10:23:59.880";"NST_correctLoc";"34";"0";"FINISHED";"LEFT";"success";"336";"0";"2014-10-05 10:23:58.629";"3";;;;;;;;;;;;;;;;;;;;;;;;;;;;;;;;;;;;;;;;;;;;;
"Shona21";"1995";;"Mac OS X";"Rachel's Experiment (D.T.)";"1.0";"2";"1";"1";"2";"1";"1";"2014-10-05 10:19:06.487";"2014-10-05 10:34:13.307";"1";"0";"1";"86";"85";"module.training_block2.exec-2886.GoNoGo2";;;;;;;;;;;;;;;;;;;;;;;;;;;;;;;;;;;"1251";"2014-10-05 10:24:02.406";"NST_correctLoc";"11";"0";"FINISHED";"LEFT";"success";"378";"0";"2014-10-05 10:24:01.155";"2";;;;;;;;;;;;;;;;;;;;;;;;;;;;;;;;;;;;;;;;;;;;;
"Shona21";"1995";;"Mac OS X";"Rachel's Experiment (D.T.)";"1.0";"2";"1";"1";"2";"1";"1";"2014-10-05 10:19:06.487";"2014-10-05 10:34:13.307";"1";"0";"1";"87";"86";"module.training_block2.exec-2886.GoNoGo2";;;;;;;;;;;;;;;;;;;;;;;;;;;;;;;;;;;"1251";"2014-10-05 10:24:04.933";"NST_correctLoc";"22";"0";"FINISHED";"LEFT";"success";"292";"0";"2014-10-05 10:24:03.682";"3";;;;;;;;;;;;;;;;;;;;;;;;;;;;;;;;;;;;;;;;;;;;;
"Shona21";"1995";;"Mac OS X";"Rachel's Experiment (D.T.)";"1.0";"2";"1";"1";"2";"1";"1";"2014-10-05 10:19:06.487";"2014-10-05 10:34:13.307";"1";"0";"1";"88";"87";"module.training_block3.exec-1449.GoNoGo3";;;;;;;;;;;;;;;;;;;;;;;;;;;;;;;;;;;;;;;;;;;;;;;"1251";"2014-10-05 10:24:14.992";"NST_correctLoc";"25";"1";"FINISHED";"RIGHT";"success";"328";"0";"2014-10-05 10:24:13.741";"3";;;;;;;;;;;;;;;;;;;;;;;;;;;;;;;;;
"Shona21";"1995";;"Mac OS X";"Rachel's Experiment (D.T.)";"1.0";"2";"1";"1";"2";"1";"1";"2014-10-05 10:19:06.487";"2014-10-05 10:34:13.307";"1";"0";"1";"89";"88";"module.training_block3.exec-1449.GoNoGo3";;;;;;;;;;;;;;;;;;;;;;;;;;;;;;;;;;;;;;;;;;;;;;;"1251";"2014-10-05 10:24:17.519";"NST_correctLoc";"2";"0";"FINISHED";"LEFT";"success";"305";"0";"2014-10-05 10:24:16.268";"1";;;;;;;;;;;;;;;;;;;;;;;;;;;;;;;;;
"Shona21";"1995";;"Mac OS X";"Rachel's Experiment (D.T.)";"1.0";"2";"1";"1";"2";"1";"1";"2014-10-05 10:19:06.487";"2014-10-05 10:34:13.307";"1";"0";"1";"90";"89";"module.training_block3.exec-1449.GoNoGo3";;;;;;;;;;;;;;;;;;;;;;;;;;;;;;;;;;;;;;;;;;;;;;;"1251";"2014-10-05 10:24:20.043";"NST_correctLoc";"16";"1";"FINISHED";"RIGHT";"success";"341";"0";"2014-10-05 10:24:18.792";"2";;;;;;;;;;;;;;;;;;;;;;;;;;;;;;;;;
"Shona21";"1995";;"Mac OS X";"Rachel's Experiment (D.T.)";"1.0";"2";"1";"1";"2";"1";"1";"2014-10-05 10:19:06.487";"2014-10-05 10:34:13.307";"1";"0";"1";"91";"90";"module.training_block3.exec-1449.GoNoGo3";;;;;;;;;;;;;;;;;;;;;;;;;;;;;;;;;;;;;;;;;;;;;;;"1251";"2014-10-05 10:24:22.570";"NST_correctLoc";"8";"1";"FINISHED";"RIGHT";"success";"342";"0";"2014-10-05 10:24:21.319";"1";;;;;;;;;;;;;;;;;;;;;;;;;;;;;;;;;
"Shona21";"1995";;"Mac OS X";"Rachel's Experiment (D.T.)";"1.0";"2";"1";"1";"2";"1";"1";"2014-10-05 10:19:06.487";"2014-10-05 10:34:13.307";"1";"0";"1";"92";"91";"module.training_block3.exec-1449.GoNoGo3";;;;;;;;;;;;;;;;;;;;;;;;;;;;;;;;;;;;;;;;;;;;;;;"1251";"2014-10-05 10:24:25.094";"NST_correctLoc";"13";"0";"FINISHED";"LEFT";"success";"274";"0";"2014-10-05 10:24:23.842";"2";;;;;;;;;;;;;;;;;;;;;;;;;;;;;;;;;
"Shona21";"1995";;"Mac OS X";"Rachel's Experiment (D.T.)";"1.0";"2";"1";"1";"2";"1";"1";"2014-10-05 10:19:06.487";"2014-10-05 10:34:13.307";"1";"0";"1";"93";"92";"module.training_block3.exec-1449.GoNoGo3";;;;;;;;;;;;;;;;;;;;;;;;;;;;;;;;;;;;;;;;;;;;;;;"1249";"2014-10-05 10:24:27.616";"NST_correctLoc";"12";"1";"FINISHED";"RIGHT";"success";"246";"0";"2014-10-05 10:24:26.366";"2";;;;;;;;;;;;;;;;;;;;;;;;;;;;;;;;;
"Shona21";"1995";;"Mac OS X";"Rachel's Experiment (D.T.)";"1.0";"2";"1";"1";"2";"1";"1";"2014-10-05 10:19:06.487";"2014-10-05 10:34:13.307";"1";"0";"1";"94";"93";"module.training_block3.exec-1449.GoNoGo3";;;;;;;;;;;;;;;;;;;;;;;;;;;;;;;;;;;;;;;;;;;;;;;"1251";"2014-10-05 10:24:30.139";"NST_correctLoc";"22";"0";"FINISHED";"LEFT";"success";"229";"0";"2014-10-05 10:24:28.888";"3";;;;;;;;;;;;;;;;;;;;;;;;;;;;;;;;;
"Shona21";"1995";;"Mac OS X";"Rachel's Experiment (D.T.)";"1.0";"2";"1";"1";"2";"1";"1";"2014-10-05 10:19:06.487";"2014-10-05 10:34:13.307";"1";"0";"1";"95";"94";"module.training_block3.exec-1449.GoNoGo3";;;;;;;;;;;;;;;;;;;;;;;;;;;;;;;;;;;;;;;;;;;;;;;"1250";"2014-10-05 10:24:32.661";"NST_correctLoc";"0";"1";"FINISHED";"RIGHT";"success";"211";"0";"2014-10-05 10:24:31.410";"1";;;;;;;;;;;;;;;;;;;;;;;;;;;;;;;;;
"Shona21";"1995";;"Mac OS X";"Rachel's Experiment (D.T.)";"1.0";"2";"1";"1";"2";"1";"1";"2014-10-05 10:19:06.487";"2014-10-05 10:34:13.307";"1";"0";"1";"96";"95";"module.training_block3.exec-1449.GoNoGo3";;;;;;;;;;;;;;;;;;;;;;;;;;;;;;;;;;;;;;;;;;;;;;;"1251";"2014-10-05 10:24:35.184";"NST_correctLoc";"34";"0";"FINISHED";"LEFT";"success";"311";"0";"2014-10-05 10:24:33.933";"3";;;;;;;;;;;;;;;;;;;;;;;;;;;;;;;;;
"Shona21";"1995";;"Mac OS X";"Rachel's Experiment (D.T.)";"1.0";"2";"1";"1";"2";"1";"1";"2014-10-05 10:19:06.487";"2014-10-05 10:34:13.307";"1";"0";"1";"97";"96";"module.training_block3.exec-1449.GoNoGo3";;;;;;;;;;;;;;;;;;;;;;;;;;;;;;;;;;;;;;;;;;;;;;;"1251";"2014-10-05 10:24:37.707";"NST_correctLoc";"18";"1";"FINISHED";"RIGHT";"success";"252";"0";"2014-10-05 10:24:36.456";"3";;;;;;;;;;;;;;;;;;;;;;;;;;;;;;;;;
"Shona21";"1995";;"Mac OS X";"Rachel's Experiment (D.T.)";"1.0";"2";"1";"1";"2";"1";"1";"2014-10-05 10:19:06.487";"2014-10-05 10:34:13.307";"1";"0";"1";"98";"97";"module.training_block3.exec-1449.GoNoGo3";;;;;;;;;;;;;;;;;;;;;;;;;;;;;;;;;;;;;;;;;;;;;;;"1251";"2014-10-05 10:24:40.231";"NST_correctLoc";"29";"0";"FINISHED";"LEFT";"success";"41";"0";"2014-10-05 10:24:38.980";"3";;;;;;;;;;;;;;;;;;;;;;;;;;;;;;;;;
"Shona21";"1995";;"Mac OS X";"Rachel's Experiment (D.T.)";"1.0";"2";"1";"1";"2";"1";"1";"2014-10-05 10:19:06.487";"2014-10-05 10:34:13.307";"1";"0";"1";"99";"98";"module.training_block3.exec-1449.GoNoGo3";;;;;;;;;;;;;;;;;;;;;;;;;;;;;;;;;;;;;;;;;;;;;;;"1250";"2014-10-05 10:24:42.754";"NST_correctLoc";"26";"1";"FINISHED";"RIGHT";"success";"269";"0";"2014-10-05 10:24:41.503";"3";;;;;;;;;;;;;;;;;;;;;;;;;;;;;;;;;
"Shona21";"1995";;"Mac OS X";"Rachel's Experiment (D.T.)";"1.0";"2";"1";"1";"2";"1";"1";"2014-10-05 10:19:06.487";"2014-10-05 10:34:13.307";"1";"0";"1";"100";"99";"module.training_block3.exec-1449.GoNoGo3";;;;;;;;;;;;;;;;;;;;;;;;;;;;;;;;;;;;;;;;;;;;;;;"1251";"2014-10-05 10:24:45.278";"NST_correctLoc";"27";"0";"FINISHED";"LEFT";"success";"242";"0";"2014-10-05 10:24:44.026";"3";;;;;;;;;;;;;;;;;;;;;;;;;;;;;;;;;
"Shona21";"1995";;"Mac OS X";"Rachel's Experiment (D.T.)";"1.0";"2";"1";"1";"2";"1";"1";"2014-10-05 10:19:06.487";"2014-10-05 10:34:13.307";"1";"0";"1";"101";"100";"module.training_block3.exec-1449.GoNoGo3";;;;;;;;;;;;;;;;;;;;;;;;;;;;;;;;;;;;;;;;;;;;;;;"1250";"2014-10-05 10:24:47.802";"NST_correctLoc";"14";"1";"FINISHED";"RIGHT";"success";"301";"0";"2014-10-05 10:24:46.551";"2";;;;;;;;;;;;;;;;;;;;;;;;;;;;;;;;;
"Shona21";"1995";;"Mac OS X";"Rachel's Experiment (D.T.)";"1.0";"2";"1";"1";"2";"1";"1";"2014-10-05 10:19:06.487";"2014-10-05 10:34:13.307";"1";"0";"1";"102";"101";"module.training_block3.exec-1449.GoNoGo3";;;;;;;;;;;;;;;;;;;;;;;;;;;;;;;;;;;;;;;;;;;;;;;"1251";"2014-10-05 10:24:50.326";"NST_correctLoc";"4";"0";"FINISHED";"LEFT";"success";"289";"0";"2014-10-05 10:24:49.075";"1";;;;;;;;;;;;;;;;;;;;;;;;;;;;;;;;;
"Shona21";"1995";;"Mac OS X";"Rachel's Experiment (D.T.)";"1.0";"2";"1";"1";"2";"1";"1";"2014-10-05 10:19:06.487";"2014-10-05 10:34:13.307";"1";"0";"1";"103";"102";"module.training_block3.exec-1449.GoNoGo3";;;;;;;;;;;;;;;;;;;;;;;;;;;;;;;;;;;;;;;;;;;;;;;"1251";"2014-10-05 10:24:52.849";"NST_correctLoc";"35";"1";"FINISHED";"RIGHT";"success";"286";"0";"2014-10-05 10:24:51.598";"3";;;;;;;;;;;;;;;;;;;;;;;;;;;;;;;;;
"Shona21";"1995";;"Mac OS X";"Rachel's Experiment (D.T.)";"1.0";"2";"1";"1";"2";"1";"1";"2014-10-05 10:19:06.487";"2014-10-05 10:34:13.307";"1";"0";"1";"104";"103";"module.training_block3.exec-1449.GoNoGo3";;;;;;;;;;;;;;;;;;;;;;;;;;;;;;;;;;;;;;;;;;;;;;;"1251";"2014-10-05 10:24:55.377";"NST_correctLoc";"19";"0";"FINISHED";"LEFT";"success";"326";"0";"2014-10-05 10:24:54.126";"3";;;;;;;;;;;;;;;;;;;;;;;;;;;;;;;;;
"Shona21";"1995";;"Mac OS X";"Rachel's Experiment (D.T.)";"1.0";"2";"1";"1";"2";"1";"1";"2014-10-05 10:19:06.487";"2014-10-05 10:34:13.307";"1";"0";"1";"105";"104";"module.training_block3.exec-1449.GoNoGo3";;;;;;;;;;;;;;;;;;;;;;;;;;;;;;;;;;;;;;;;;;;;;;;"1251";"2014-10-05 10:24:57.901";"NST_correctLoc";"28";"1";"FINISHED";"RIGHT";"success";"282";"0";"2014-10-05 10:24:56.650";"3";;;;;;;;;;;;;;;;;;;;;;;;;;;;;;;;;
"Shona21";"1995";;"Mac OS X";"Rachel's Experiment (D.T.)";"1.0";"2";"1";"1";"2";"1";"1";"2014-10-05 10:19:06.487";"2014-10-05 10:34:13.307";"1";"0";"1";"106";"105";"module.training_block3.exec-1449.GoNoGo3";;;;;;;;;;;;;;;;;;;;;;;;;;;;;;;;;;;;;;;;;;;;;;;"1250";"2014-10-05 10:25:00.423";"NST_correctLoc";"32";"1";"FINISHED";"RIGHT";"success";"351";"0";"2014-10-05 10:24:59.172";"3";;;;;;;;;;;;;;;;;;;;;;;;;;;;;;;;;
"Shona21";"1995";;"Mac OS X";"Rachel's Experiment (D.T.)";"1.0";"2";"1";"1";"2";"1";"1";"2014-10-05 10:19:06.487";"2014-10-05 10:34:13.307";"1";"0";"1";"107";"106";"module.training_block3.exec-1449.GoNoGo3";;;;;;;;;;;;;;;;;;;;;;;;;;;;;;;;;;;;;;;;;;;;;;;"1251";"2014-10-05 10:25:02.946";"NST_correctLoc";"15";"1";"FINISHED";"RIGHT";"success";"293";"0";"2014-10-05 10:25:01.695";"2";;;;;;;;;;;;;;;;;;;;;;;;;;;;;;;;;
"Shona21";"1995";;"Mac OS X";"Rachel's Experiment (D.T.)";"1.0";"2";"1";"1";"2";"1";"1";"2014-10-05 10:19:06.487";"2014-10-05 10:34:13.307";"1";"0";"1";"108";"107";"module.training_block3.exec-1449.GoNoGo3";;;;;;;;;;;;;;;;;;;;;;;;;;;;;;;;;;;;;;;;;;;;;;;"1250";"2014-10-05 10:25:05.468";"NST_correctLoc";"20";"1";"FINISHED";"RIGHT";"success";"346";"0";"2014-10-05 10:25:04.217";"3";;;;;;;;;;;;;;;;;;;;;;;;;;;;;;;;;
"Shona21";"1995";;"Mac OS X";"Rachel's Experiment (D.T.)";"1.0";"2";"1";"1";"2";"1";"1";"2014-10-05 10:19:06.487";"2014-10-05 10:34:13.307";"1";"0";"1";"109";"108";"module.training_block3.exec-1449.GoNoGo3";;;;;;;;;;;;;;;;;;;;;;;;;;;;;;;;;;;;;;;;;;;;;;;"1251";"2014-10-05 10:25:07.991";"NST_correctLoc";"3";"1";"FINISHED";"RIGHT";"success";"312";"0";"2014-10-05 10:25:06.740";"1";;;;;;;;;;;;;;;;;;;;;;;;;;;;;;;;;
"Shona21";"1995";;"Mac OS X";"Rachel's Experiment (D.T.)";"1.0";"2";"1";"1";"2";"1";"1";"2014-10-05 10:19:06.487";"2014-10-05 10:34:13.307";"1";"0";"1";"110";"109";"module.training_block3.exec-1449.GoNoGo3";;;;;;;;;;;;;;;;;;;;;;;;;;;;;;;;;;;;;;;;;;;;;;;"1251";"2014-10-05 10:25:10.513";"NST_correctLoc";"6";"0";"FINISHED";"LEFT";"success";"310";"0";"2014-10-05 10:25:09.261";"1";;;;;;;;;;;;;;;;;;;;;;;;;;;;;;;;;
"Shona21";"1995";;"Mac OS X";"Rachel's Experiment (D.T.)";"1.0";"2";"1";"1";"2";"1";"1";"2014-10-05 10:19:06.487";"2014-10-05 10:34:13.307";"1";"0";"1";"111";"110";"module.training_block3.exec-1449.GoNoGo3";;;;;;;;;;;;;;;;;;;;;;;;;;;;;;;;;;;;;;;;;;;;;;;"1250";"2014-10-05 10:25:13.032";"NST_correctLoc";"31";"1";"FINISHED";"RIGHT";"success";"342";"0";"2014-10-05 10:25:11.782";"3";;;;;;;;;;;;;;;;;;;;;;;;;;;;;;;;;
"Shona21";"1995";;"Mac OS X";"Rachel's Experiment (D.T.)";"1.0";"2";"1";"1";"2";"1";"1";"2014-10-05 10:19:06.487";"2014-10-05 10:34:13.307";"1";"0";"1";"112";"111";"module.training_block3.exec-1449.GoNoGo3";;;;;;;;;;;;;;;;;;;;;;;;;;;;;;;;;;;;;;;;;;;;;;;"1250";"2014-10-05 10:25:15.555";"NST_correctLoc";"24";"1";"FINISHED";"RIGHT";"success";"251";"0";"2014-10-05 10:25:14.304";"3";;;;;;;;;;;;;;;;;;;;;;;;;;;;;;;;;
"Shona21";"1995";;"Mac OS X";"Rachel's Experiment (D.T.)";"1.0";"2";"1";"1";"2";"1";"1";"2014-10-05 10:19:06.487";"2014-10-05 10:34:13.307";"1";"0";"1";"113";"112";"module.training_block3.exec-1449.GoNoGo3";;;;;;;;;;;;;;;;;;;;;;;;;;;;;;;;;;;;;;;;;;;;;;;"1251";"2014-10-05 10:25:18.077";"NST_correctLoc";"23";"0";"FINISHED";"LEFT";"success";"313";"0";"2014-10-05 10:25:16.826";"3";;;;;;;;;;;;;;;;;;;;;;;;;;;;;;;;;
"Shona21";"1995";;"Mac OS X";"Rachel's Experiment (D.T.)";"1.0";"2";"1";"1";"2";"1";"1";"2014-10-05 10:19:06.487";"2014-10-05 10:34:13.307";"1";"0";"1";"114";"113";"module.training_block3.exec-1449.GoNoGo3";;;;;;;;;;;;;;;;;;;;;;;;;;;;;;;;;;;;;;;;;;;;;;;"1251";"2014-10-05 10:25:20.601";"NST_correctLoc";"5";"0";"FINISHED";"LEFT";"success";"294";"0";"2014-10-05 10:25:19.349";"1";;;;;;;;;;;;;;;;;;;;;;;;;;;;;;;;;
"Shona21";"1995";;"Mac OS X";"Rachel's Experiment (D.T.)";"1.0";"2";"1";"1";"2";"1";"1";"2014-10-05 10:19:06.487";"2014-10-05 10:34:13.307";"1";"0";"1";"115";"114";"module.training_block3.exec-1449.GoNoGo3";;;;;;;;;;;;;;;;;;;;;;;;;;;;;;;;;;;;;;;;;;;;;;;"1251";"2014-10-05 10:25:23.125";"NST_wrongLoc";"9";"0";"FINISHED";"RIGHT";"failure";"289";"0";"2014-10-05 10:25:21.874";"2";;;;;;;;;;;;;;;;;;;;;;;;;;;;;;;;;
"Shona21";"1995";;"Mac OS X";"Rachel's Experiment (D.T.)";"1.0";"2";"1";"1";"2";"1";"1";"2014-10-05 10:19:06.487";"2014-10-05 10:34:13.307";"1";"0";"1";"116";"115";"module.training_block3.exec-1449.GoNoGo3";;;;;;;;;;;;;;;;;;;;;;;;;;;;;;;;;;;;;;;;;;;;;;;"1251";"2014-10-05 10:25:25.650";"NST_correctLoc";"7";"1";"FINISHED";"RIGHT";"success";"285";"0";"2014-10-05 10:25:24.398";"1";;;;;;;;;;;;;;;;;;;;;;;;;;;;;;;;;
"Shona21";"1995";;"Mac OS X";"Rachel's Experiment (D.T.)";"1.0";"2";"1";"1";"2";"1";"1";"2014-10-05 10:19:06.487";"2014-10-05 10:34:13.307";"1";"0";"1";"117";"116";"module.training_block3.exec-1449.GoNoGo3";;;;;;;;;;;;;;;;;;;;;;;;;;;;;;;;;;;;;;;;;;;;;;;"1250";"2014-10-05 10:25:28.171";"NST_correctLoc";"30";"0";"FINISHED";"LEFT";"success";"275";"0";"2014-10-05 10:25:26.920";"3";;;;;;;;;;;;;;;;;;;;;;;;;;;;;;;;;
"Shona21";"1995";;"Mac OS X";"Rachel's Experiment (D.T.)";"1.0";"2";"1";"1";"2";"1";"1";"2014-10-05 10:19:06.487";"2014-10-05 10:34:13.307";"1";"0";"1";"118";"117";"module.training_block3.exec-1449.GoNoGo3";;;;;;;;;;;;;;;;;;;;;;;;;;;;;;;;;;;;;;;;;;;;;;;"1251";"2014-10-05 10:25:30.692";"NST_correctLoc";"10";"1";"FINISHED";"RIGHT";"success";"322";"0";"2014-10-05 10:25:29.441";"2";;;;;;;;;;;;;;;;;;;;;;;;;;;;;;;;;
"Shona21";"1995";;"Mac OS X";"Rachel's Experiment (D.T.)";"1.0";"2";"1";"1";"2";"1";"1";"2014-10-05 10:19:06.487";"2014-10-05 10:34:13.307";"1";"0";"1";"119";"118";"module.training_block3.exec-1449.GoNoGo3";;;;;;;;;;;;;;;;;;;;;;;;;;;;;;;;;;;;;;;;;;;;;;;"1251";"2014-10-05 10:25:33.221";"NST_correctLoc";"1";"1";"FINISHED";"RIGHT";"success";"306";"0";"2014-10-05 10:25:31.969";"1";;;;;;;;;;;;;;;;;;;;;;;;;;;;;;;;;
"Shona21";"1995";;"Mac OS X";"Rachel's Experiment (D.T.)";"1.0";"2";"1";"1";"2";"1";"1";"2014-10-05 10:19:06.487";"2014-10-05 10:34:13.307";"1";"0";"1";"120";"119";"module.training_block3.exec-1449.GoNoGo3";;;;;;;;;;;;;;;;;;;;;;;;;;;;;;;;;;;;;;;;;;;;;;;"1250";"2014-10-05 10:25:35.745";"NST_correctLoc";"21";"0";"FINISHED";"LEFT";"success";"285";"0";"2014-10-05 10:25:34.494";"3";;;;;;;;;;;;;;;;;;;;;;;;;;;;;;;;;
"Shona21";"1995";;"Mac OS X";"Rachel's Experiment (D.T.)";"1.0";"2";"1";"1";"2";"1";"1";"2014-10-05 10:19:06.487";"2014-10-05 10:34:13.307";"1";"0";"1";"121";"120";"module.training_block3.exec-1449.GoNoGo3";;;;;;;;;;;;;;;;;;;;;;;;;;;;;;;;;;;;;;;;;;;;;;;"1250";"2014-10-05 10:25:38.266";"NST_correctLoc";"33";"0";"FINISHED";"LEFT";"success";"292";"0";"2014-10-05 10:25:37.015";"3";;;;;;;;;;;;;;;;;;;;;;;;;;;;;;;;;
"Shona21";"1995";;"Mac OS X";"Rachel's Experiment (D.T.)";"1.0";"2";"1";"1";"2";"1";"1";"2014-10-05 10:19:06.487";"2014-10-05 10:34:13.307";"1";"0";"1";"122";"121";"module.training_block3.exec-1449.GoNoGo3";;;;;;;;;;;;;;;;;;;;;;;;;;;;;;;;;;;;;;;;;;;;;;;"1250";"2014-10-05 10:25:40.787";"NST_correctLoc";"17";"0";"FINISHED";"LEFT";"success";"250";"0";"2014-10-05 10:25:39.536";"2";;;;;;;;;;;;;;;;;;;;;;;;;;;;;;;;;
"Shona21";"1995";;"Mac OS X";"Rachel's Experiment (D.T.)";"1.0";"2";"1";"1";"2";"1";"1";"2014-10-05 10:19:06.487";"2014-10-05 10:34:13.307";"1";"0";"1";"123";"122";"module.training_block3.exec-1449.GoNoGo3";;;;;;;;;;;;;;;;;;;;;;;;;;;;;;;;;;;;;;;;;;;;;;;"1250";"2014-10-05 10:25:43.310";"NST_correctLoc";"11";"1";"FINISHED";"RIGHT";"success";"304";"0";"2014-10-05 10:25:42.059";"2";;;;;;;;;;;;;;;;;;;;;;;;;;;;;;;;;
"Shona21";"1995";;"Mac OS X";"Rachel's Experiment (D.T.)";"1.0";"2";"1";"1";"2";"1";"1";"2014-10-05 10:19:06.487";"2014-10-05 10:34:13.307";"1";"0";"1";"124";"123";"module.training_block4.exec-3028.GoNoGo4";;;;;;;;;;;;;;;;;;;;;;;;;;;;;;;;;;;;;;;;;;;;;;;;;;;;;;;;;;;"1251";"2014-10-05 10:25:53.698";"NST_correctLoc";"9";"1";"FINISHED";"RIGHT";"success";"246";"0";"2014-10-05 10:25:52.446";"2";;;;;;;;;;;;;;;;;;;;;
"Shona21";"1995";;"Mac OS X";"Rachel's Experiment (D.T.)";"1.0";"2";"1";"1";"2";"1";"1";"2014-10-05 10:19:06.487";"2014-10-05 10:34:13.307";"1";"0";"1";"125";"124";"module.training_block4.exec-3028.GoNoGo4";;;;;;;;;;;;;;;;;;;;;;;;;;;;;;;;;;;;;;;;;;;;;;;;;;;;;;;;;;;"1251";"2014-10-05 10:25:56.220";"NST_correctLoc";"32";"0";"FINISHED";"LEFT";"success";"148";"0";"2014-10-05 10:25:54.968";"3";;;;;;;;;;;;;;;;;;;;;
"Shona21";"1995";;"Mac OS X";"Rachel's Experiment (D.T.)";"1.0";"2";"1";"1";"2";"1";"1";"2014-10-05 10:19:06.487";"2014-10-05 10:34:13.307";"1";"0";"1";"126";"125";"module.training_block4.exec-3028.GoNoGo4";;;;;;;;;;;;;;;;;;;;;;;;;;;;;;;;;;;;;;;;;;;;;;;;;;;;;;;;;;;"1251";"2014-10-05 10:25:58.742";"NST_correctLoc";"25";"1";"FINISHED";"RIGHT";"success";"353";"0";"2014-10-05 10:25:57.490";"3";;;;;;;;;;;;;;;;;;;;;
"Shona21";"1995";;"Mac OS X";"Rachel's Experiment (D.T.)";"1.0";"2";"1";"1";"2";"1";"1";"2014-10-05 10:19:06.487";"2014-10-05 10:34:13.307";"1";"0";"1";"127";"126";"module.training_block4.exec-3028.GoNoGo4";;;;;;;;;;;;;;;;;;;;;;;;;;;;;;;;;;;;;;;;;;;;;;;;;;;;;;;;;;;"1251";"2014-10-05 10:26:01.263";"NST_correctLoc";"23";"1";"FINISHED";"RIGHT";"success";"288";"0";"2014-10-05 10:26:00.012";"3";;;;;;;;;;;;;;;;;;;;;
"Shona21";"1995";;"Mac OS X";"Rachel's Experiment (D.T.)";"1.0";"2";"1";"1";"2";"1";"1";"2014-10-05 10:19:06.487";"2014-10-05 10:34:13.307";"1";"0";"1";"128";"127";"module.training_block4.exec-3028.GoNoGo4";;;;;;;;;;;;;;;;;;;;;;;;;;;;;;;;;;;;;;;;;;;;;;;;;;;;;;;;;;;"1251";"2014-10-05 10:26:03.785";"NST_correctLoc";"29";"0";"FINISHED";"LEFT";"success";"358";"0";"2014-10-05 10:26:02.534";"3";;;;;;;;;;;;;;;;;;;;;
"Shona21";"1995";;"Mac OS X";"Rachel's Experiment (D.T.)";"1.0";"2";"1";"1";"2";"1";"1";"2014-10-05 10:19:06.487";"2014-10-05 10:34:13.307";"1";"0";"1";"129";"128";"module.training_block4.exec-3028.GoNoGo4";;;;;;;;;;;;;;;;;;;;;;;;;;;;;;;;;;;;;;;;;;;;;;;;;;;;;;;;;;;"1251";"2014-10-05 10:26:06.307";"NST_correctLoc";"12";"0";"FINISHED";"LEFT";"success";"276";"0";"2014-10-05 10:26:05.056";"2";;;;;;;;;;;;;;;;;;;;;
"Shona21";"1995";;"Mac OS X";"Rachel's Experiment (D.T.)";"1.0";"2";"1";"1";"2";"1";"1";"2014-10-05 10:19:06.487";"2014-10-05 10:34:13.307";"1";"0";"1";"130";"129";"module.training_block4.exec-3028.GoNoGo4";;;;;;;;;;;;;;;;;;;;;;;;;;;;;;;;;;;;;;;;;;;;;;;;;;;;;;;;;;;"1251";"2014-10-05 10:26:08.828";"NST_correctLoc";"28";"1";"FINISHED";"RIGHT";"success";"419";"0";"2014-10-05 10:26:07.577";"3";;;;;;;;;;;;;;;;;;;;;
"Shona21";"1995";;"Mac OS X";"Rachel's Experiment (D.T.)";"1.0";"2";"1";"1";"2";"1";"1";"2014-10-05 10:19:06.487";"2014-10-05 10:34:13.307";"1";"0";"1";"131";"130";"module.training_block4.exec-3028.GoNoGo4";;;;;;;;;;;;;;;;;;;;;;;;;;;;;;;;;;;;;;;;;;;;;;;;;;;;;;;;;;;"1251";"2014-10-05 10:26:11.349";"NST_correctLoc";"10";"0";"FINISHED";"LEFT";"success";"298";"0";"2014-10-05 10:26:10.098";"2";;;;;;;;;;;;;;;;;;;;;
"Shona21";"1995";;"Mac OS X";"Rachel's Experiment (D.T.)";"1.0";"2";"1";"1";"2";"1";"1";"2014-10-05 10:19:06.487";"2014-10-05 10:34:13.307";"1";"0";"1";"132";"131";"module.training_block4.exec-3028.GoNoGo4";;;;;;;;;;;;;;;;;;;;;;;;;;;;;;;;;;;;;;;;;;;;;;;;;;;;;;;;;;;"1251";"2014-10-05 10:26:13.874";"NST_correctLoc";"35";"1";"FINISHED";"RIGHT";"success";"285";"0";"2014-10-05 10:26:12.622";"3";;;;;;;;;;;;;;;;;;;;;
"Shona21";"1995";;"Mac OS X";"Rachel's Experiment (D.T.)";"1.0";"2";"1";"1";"2";"1";"1";"2014-10-05 10:19:06.487";"2014-10-05 10:34:13.307";"1";"0";"1";"133";"132";"module.training_block4.exec-3028.GoNoGo4";;;;;;;;;;;;;;;;;;;;;;;;;;;;;;;;;;;;;;;;;;;;;;;;;;;;;;;;;;;"1251";"2014-10-05 10:26:16.396";"NST_correctLoc";"3";"1";"FINISHED";"RIGHT";"success";"379";"0";"2014-10-05 10:26:15.145";"1";;;;;;;;;;;;;;;;;;;;;
"Shona21";"1995";;"Mac OS X";"Rachel's Experiment (D.T.)";"1.0";"2";"1";"1";"2";"1";"1";"2014-10-05 10:19:06.487";"2014-10-05 10:34:13.307";"1";"0";"1";"134";"133";"module.training_block4.exec-3028.GoNoGo4";;;;;;;;;;;;;;;;;;;;;;;;;;;;;;;;;;;;;;;;;;;;;;;;;;;;;;;;;;;"1251";"2014-10-05 10:26:18.919";"NST_wrongLoc";"7";"0";"FINISHED";"RIGHT";"failure";"448";"0";"2014-10-05 10:26:17.668";"1";;;;;;;;;;;;;;;;;;;;;
"Shona21";"1995";;"Mac OS X";"Rachel's Experiment (D.T.)";"1.0";"2";"1";"1";"2";"1";"1";"2014-10-05 10:19:06.487";"2014-10-05 10:34:13.307";"1";"0";"1";"135";"134";"module.training_block4.exec-3028.GoNoGo4";;;;;;;;;;;;;;;;;;;;;;;;;;;;;;;;;;;;;;;;;;;;;;;;;;;;;;;;;;;"1251";"2014-10-05 10:26:21.441";"NST_correctLoc";"1";"1";"FINISHED";"RIGHT";"success";"502";"0";"2014-10-05 10:26:20.189";"1";;;;;;;;;;;;;;;;;;;;;
"Shona21";"1995";;"Mac OS X";"Rachel's Experiment (D.T.)";"1.0";"2";"1";"1";"2";"1";"1";"2014-10-05 10:19:06.487";"2014-10-05 10:34:13.307";"1";"0";"1";"136";"135";"module.training_block4.exec-3028.GoNoGo4";;;;;;;;;;;;;;;;;;;;;;;;;;;;;;;;;;;;;;;;;;;;;;;;;;;;;;;;;;;"1251";"2014-10-05 10:26:23.962";"NST_correctLoc";"17";"0";"FINISHED";"LEFT";"success";"397";"0";"2014-10-05 10:26:22.711";"2";;;;;;;;;;;;;;;;;;;;;
"Shona21";"1995";;"Mac OS X";"Rachel's Experiment (D.T.)";"1.0";"2";"1";"1";"2";"1";"1";"2014-10-05 10:19:06.487";"2014-10-05 10:34:13.307";"1";"0";"1";"137";"136";"module.training_block4.exec-3028.GoNoGo4";;;;;;;;;;;;;;;;;;;;;;;;;;;;;;;;;;;;;;;;;;;;;;;;;;;;;;;;;;;"1251";"2014-10-05 10:26:26.484";"NST_correctLoc";"30";"0";"FINISHED";"LEFT";"success";"339";"0";"2014-10-05 10:26:25.232";"3";;;;;;;;;;;;;;;;;;;;;
"Shona21";"1995";;"Mac OS X";"Rachel's Experiment (D.T.)";"1.0";"2";"1";"1";"2";"1";"1";"2014-10-05 10:19:06.487";"2014-10-05 10:34:13.307";"1";"0";"1";"138";"137";"module.training_block4.exec-3028.GoNoGo4";;;;;;;;;;;;;;;;;;;;;;;;;;;;;;;;;;;;;;;;;;;;;;;;;;;;;;;;;;;"1249";"2014-10-05 10:26:29.007";"NST_correctLoc";"24";"0";"FINISHED";"LEFT";"success";"318";"0";"2014-10-05 10:26:27.757";"3";;;;;;;;;;;;;;;;;;;;;
"Shona21";"1995";;"Mac OS X";"Rachel's Experiment (D.T.)";"1.0";"2";"1";"1";"2";"1";"1";"2014-10-05 10:19:06.487";"2014-10-05 10:34:13.307";"1";"0";"1";"139";"138";"module.training_block4.exec-3028.GoNoGo4";;;;;;;;;;;;;;;;;;;;;;;;;;;;;;;;;;;;;;;;;;;;;;;;;;;;;;;;;;;"1251";"2014-10-05 10:26:31.529";"NST_correctLoc";"27";"1";"FINISHED";"RIGHT";"success";"294";"0";"2014-10-05 10:26:30.277";"3";;;;;;;;;;;;;;;;;;;;;
"Shona21";"1995";;"Mac OS X";"Rachel's Experiment (D.T.)";"1.0";"2";"1";"1";"2";"1";"1";"2014-10-05 10:19:06.487";"2014-10-05 10:34:13.307";"1";"0";"1";"140";"139";"module.training_block4.exec-3028.GoNoGo4";;;;;;;;;;;;;;;;;;;;;;;;;;;;;;;;;;;;;;;;;;;;;;;;;;;;;;;;;;;"1251";"2014-10-05 10:26:34.051";"NST_correctLoc";"11";"0";"FINISHED";"LEFT";"success";"339";"0";"2014-10-05 10:26:32.799";"2";;;;;;;;;;;;;;;;;;;;;
"Shona21";"1995";;"Mac OS X";"Rachel's Experiment (D.T.)";"1.0";"2";"1";"1";"2";"1";"1";"2014-10-05 10:19:06.487";"2014-10-05 10:34:13.307";"1";"0";"1";"141";"140";"module.training_block4.exec-3028.GoNoGo4";;;;;;;;;;;;;;;;;;;;;;;;;;;;;;;;;;;;;;;;;;;;;;;;;;;;;;;;;;;"1251";"2014-10-05 10:26:36.572";"NST_correctLoc";"8";"1";"FINISHED";"RIGHT";"success";"283";"0";"2014-10-05 10:26:35.320";"1";;;;;;;;;;;;;;;;;;;;;
"Shona21";"1995";;"Mac OS X";"Rachel's Experiment (D.T.)";"1.0";"2";"1";"1";"2";"1";"1";"2014-10-05 10:19:06.487";"2014-10-05 10:34:13.307";"1";"0";"1";"142";"141";"module.training_block4.exec-3028.GoNoGo4";;;;;;;;;;;;;;;;;;;;;;;;;;;;;;;;;;;;;;;;;;;;;;;;;;;;;;;;;;;"1251";"2014-10-05 10:26:39.092";"NST_correctLoc";"15";"0";"FINISHED";"LEFT";"success";"426";"0";"2014-10-05 10:26:37.841";"2";;;;;;;;;;;;;;;;;;;;;
"Shona21";"1995";;"Mac OS X";"Rachel's Experiment (D.T.)";"1.0";"2";"1";"1";"2";"1";"1";"2014-10-05 10:19:06.487";"2014-10-05 10:34:13.307";"1";"0";"1";"143";"142";"module.training_block4.exec-3028.GoNoGo4";;;;;;;;;;;;;;;;;;;;;;;;;;;;;;;;;;;;;;;;;;;;;;;;;;;;;;;;;;;"1251";"2014-10-05 10:26:41.614";"NST_correctLoc";"5";"1";"FINISHED";"RIGHT";"success";"265";"0";"2014-10-05 10:26:40.362";"1";;;;;;;;;;;;;;;;;;;;;
"Shona21";"1995";;"Mac OS X";"Rachel's Experiment (D.T.)";"1.0";"2";"1";"1";"2";"1";"1";"2014-10-05 10:19:06.487";"2014-10-05 10:34:13.307";"1";"0";"1";"144";"143";"module.training_block4.exec-3028.GoNoGo4";;;;;;;;;;;;;;;;;;;;;;;;;;;;;;;;;;;;;;;;;;;;;;;;;;;;;;;;;;;"1251";"2014-10-05 10:26:44.137";"NST_correctLoc";"26";"0";"FINISHED";"LEFT";"success";"221";"0";"2014-10-05 10:26:42.885";"3";;;;;;;;;;;;;;;;;;;;;
"Shona21";"1995";;"Mac OS X";"Rachel's Experiment (D.T.)";"1.0";"2";"1";"1";"2";"1";"1";"2014-10-05 10:19:06.487";"2014-10-05 10:34:13.307";"1";"0";"1";"145";"144";"module.training_block4.exec-3028.GoNoGo4";;;;;;;;;;;;;;;;;;;;;;;;;;;;;;;;;;;;;;;;;;;;;;;;;;;;;;;;;;;"1251";"2014-10-05 10:26:46.663";"NST_correctLoc";"4";"1";"FINISHED";"RIGHT";"success";"223";"0";"2014-10-05 10:26:45.411";"1";;;;;;;;;;;;;;;;;;;;;
"Shona21";"1995";;"Mac OS X";"Rachel's Experiment (D.T.)";"1.0";"2";"1";"1";"2";"1";"1";"2014-10-05 10:19:06.487";"2014-10-05 10:34:13.307";"1";"0";"1";"146";"145";"module.training_block4.exec-3028.GoNoGo4";;;;;;;;;;;;;;;;;;;;;;;;;;;;;;;;;;;;;;;;;;;;;;;;;;;;;;;;;;;"1251";"2014-10-05 10:26:49.183";"NST_correctLoc";"13";"1";"FINISHED";"RIGHT";"success";"494";"0";"2014-10-05 10:26:47.932";"2";;;;;;;;;;;;;;;;;;;;;
"Shona21";"1995";;"Mac OS X";"Rachel's Experiment (D.T.)";"1.0";"2";"1";"1";"2";"1";"1";"2014-10-05 10:19:06.487";"2014-10-05 10:34:13.307";"1";"0";"1";"147";"146";"module.training_block4.exec-3028.GoNoGo4";;;;;;;;;;;;;;;;;;;;;;;;;;;;;;;;;;;;;;;;;;;;;;;;;;;;;;;;;;;"1251";"2014-10-05 10:26:51.704";"NST_correctLoc";"16";"1";"FINISHED";"RIGHT";"success";"366";"0";"2014-10-05 10:26:50.453";"2";;;;;;;;;;;;;;;;;;;;;
"Shona21";"1995";;"Mac OS X";"Rachel's Experiment (D.T.)";"1.0";"2";"1";"1";"2";"1";"1";"2014-10-05 10:19:06.487";"2014-10-05 10:34:13.307";"1";"0";"1";"148";"147";"module.training_block4.exec-3028.GoNoGo4";;;;;;;;;;;;;;;;;;;;;;;;;;;;;;;;;;;;;;;;;;;;;;;;;;;;;;;;;;;"1251";"2014-10-05 10:26:54.225";"NST_correctLoc";"6";"1";"FINISHED";"RIGHT";"success";"252";"0";"2014-10-05 10:26:52.974";"1";;;;;;;;;;;;;;;;;;;;;
"Shona21";"1995";;"Mac OS X";"Rachel's Experiment (D.T.)";"1.0";"2";"1";"1";"2";"1";"1";"2014-10-05 10:19:06.487";"2014-10-05 10:34:13.307";"1";"0";"1";"149";"148";"module.training_block4.exec-3028.GoNoGo4";;;;;;;;;;;;;;;;;;;;;;;;;;;;;;;;;;;;;;;;;;;;;;;;;;;;;;;;;;;"1251";"2014-10-05 10:26:56.746";"NST_correctLoc";"33";"1";"FINISHED";"RIGHT";"success";"235";"0";"2014-10-05 10:26:55.495";"3";;;;;;;;;;;;;;;;;;;;;
"Shona21";"1995";;"Mac OS X";"Rachel's Experiment (D.T.)";"1.0";"2";"1";"1";"2";"1";"1";"2014-10-05 10:19:06.487";"2014-10-05 10:34:13.307";"1";"0";"1";"150";"149";"module.training_block4.exec-3028.GoNoGo4";;;;;;;;;;;;;;;;;;;;;;;;;;;;;;;;;;;;;;;;;;;;;;;;;;;;;;;;;;;"1251";"2014-10-05 10:26:59.267";"NST_correctLoc";"31";"0";"FINISHED";"LEFT";"success";"411";"0";"2014-10-05 10:26:58.016";"3";;;;;;;;;;;;;;;;;;;;;
"Shona21";"1995";;"Mac OS X";"Rachel's Experiment (D.T.)";"1.0";"2";"1";"1";"2";"1";"1";"2014-10-05 10:19:06.487";"2014-10-05 10:34:13.307";"1";"0";"1";"151";"150";"module.training_block4.exec-3028.GoNoGo4";;;;;;;;;;;;;;;;;;;;;;;;;;;;;;;;;;;;;;;;;;;;;;;;;;;;;;;;;;;"1251";"2014-10-05 10:27:01.790";"NST_correctLoc";"21";"0";"FINISHED";"LEFT";"success";"312";"0";"2014-10-05 10:27:00.538";"3";;;;;;;;;;;;;;;;;;;;;
"Shona21";"1995";;"Mac OS X";"Rachel's Experiment (D.T.)";"1.0";"2";"1";"1";"2";"1";"1";"2014-10-05 10:19:06.487";"2014-10-05 10:34:13.307";"1";"0";"1";"152";"151";"module.training_block4.exec-3028.GoNoGo4";;;;;;;;;;;;;;;;;;;;;;;;;;;;;;;;;;;;;;;;;;;;;;;;;;;;;;;;;;;"1251";"2014-10-05 10:27:04.314";"NST_correctLoc";"34";"0";"FINISHED";"LEFT";"success";"244";"0";"2014-10-05 10:27:03.062";"3";;;;;;;;;;;;;;;;;;;;;
"Shona21";"1995";;"Mac OS X";"Rachel's Experiment (D.T.)";"1.0";"2";"1";"1";"2";"1";"1";"2014-10-05 10:19:06.487";"2014-10-05 10:34:13.307";"1";"0";"1";"153";"152";"module.training_block4.exec-3028.GoNoGo4";;;;;;;;;;;;;;;;;;;;;;;;;;;;;;;;;;;;;;;;;;;;;;;;;;;;;;;;;;;"1251";"2014-10-05 10:27:06.837";"NST_correctLoc";"19";"0";"FINISHED";"LEFT";"success";"240";"0";"2014-10-05 10:27:05.586";"3";;;;;;;;;;;;;;;;;;;;;
"Shona21";"1995";;"Mac OS X";"Rachel's Experiment (D.T.)";"1.0";"2";"1";"1";"2";"1";"1";"2014-10-05 10:19:06.487";"2014-10-05 10:34:13.307";"1";"0";"1";"154";"153";"module.training_block4.exec-3028.GoNoGo4";;;;;;;;;;;;;;;;;;;;;;;;;;;;;;;;;;;;;;;;;;;;;;;;;;;;;;;;;;;"1251";"2014-10-05 10:27:09.361";"NST_correctLoc";"18";"0";"FINISHED";"LEFT";"success";"292";"0";"2014-10-05 10:27:08.110";"3";;;;;;;;;;;;;;;;;;;;;
"Shona21";"1995";;"Mac OS X";"Rachel's Experiment (D.T.)";"1.0";"2";"1";"1";"2";"1";"1";"2014-10-05 10:19:06.487";"2014-10-05 10:34:13.307";"1";"0";"1";"155";"154";"module.training_block4.exec-3028.GoNoGo4";;;;;;;;;;;;;;;;;;;;;;;;;;;;;;;;;;;;;;;;;;;;;;;;;;;;;;;;;;;"1250";"2014-10-05 10:27:11.881";"NST_correctLoc";"20";"1";"FINISHED";"RIGHT";"success";"348";"0";"2014-10-05 10:27:10.630";"3";;;;;;;;;;;;;;;;;;;;;
"Shona21";"1995";;"Mac OS X";"Rachel's Experiment (D.T.)";"1.0";"2";"1";"1";"2";"1";"1";"2014-10-05 10:19:06.487";"2014-10-05 10:34:13.307";"1";"0";"1";"156";"155";"module.training_block4.exec-3028.GoNoGo4";;;;;;;;;;;;;;;;;;;;;;;;;;;;;;;;;;;;;;;;;;;;;;;;;;;;;;;;;;;"1251";"2014-10-05 10:27:14.404";"NST_correctLoc";"22";"1";"FINISHED";"RIGHT";"success";"378";"0";"2014-10-05 10:27:13.152";"3";;;;;;;;;;;;;;;;;;;;;
"Shona21";"1995";;"Mac OS X";"Rachel's Experiment (D.T.)";"1.0";"2";"1";"1";"2";"1";"1";"2014-10-05 10:19:06.487";"2014-10-05 10:34:13.307";"1";"0";"1";"157";"156";"module.training_block4.exec-3028.GoNoGo4";;;;;;;;;;;;;;;;;;;;;;;;;;;;;;;;;;;;;;;;;;;;;;;;;;;;;;;;;;;"1250";"2014-10-05 10:27:16.928";"NST_correctLoc";"2";"0";"FINISHED";"LEFT";"success";"317";"0";"2014-10-05 10:27:15.677";"1";;;;;;;;;;;;;;;;;;;;;
"Shona21";"1995";;"Mac OS X";"Rachel's Experiment (D.T.)";"1.0";"2";"1";"1";"2";"1";"1";"2014-10-05 10:19:06.487";"2014-10-05 10:34:13.307";"1";"0";"1";"158";"157";"module.training_block4.exec-3028.GoNoGo4";;;;;;;;;;;;;;;;;;;;;;;;;;;;;;;;;;;;;;;;;;;;;;;;;;;;;;;;;;;"1251";"2014-10-05 10:27:19.452";"NST_correctLoc";"0";"1";"FINISHED";"RIGHT";"success";"266";"0";"2014-10-05 10:27:18.200";"1";;;;;;;;;;;;;;;;;;;;;
"Shona21";"1995";;"Mac OS X";"Rachel's Experiment (D.T.)";"1.0";"2";"1";"1";"2";"1";"1";"2014-10-05 10:19:06.487";"2014-10-05 10:34:13.307";"1";"0";"1";"159";"158";"module.training_block4.exec-3028.GoNoGo4";;;;;;;;;;;;;;;;;;;;;;;;;;;;;;;;;;;;;;;;;;;;;;;;;;;;;;;;;;;"1251";"2014-10-05 10:27:21.972";"NST_correctLoc";"14";"1";"FINISHED";"RIGHT";"success";"329";"0";"2014-10-05 10:27:20.721";"2";;;;;;;;;;;;;;;;;;;;;
"Shona21";"1995";;"Mac OS X";"Rachel's Experiment (D.T.)";"1.0";"2";"1";"1";"2";"1";"1";"2014-10-05 10:19:06.487";"2014-10-05 10:34:13.307";"1";"0";"1";"160";"159";"module.devaluation_practice.exec-1138.devalPractice";;;;;;;;;;;;"37366";"2014-10-05 10:28:32.851";"0";"4";"4";"5";"8207";"6109";"20018";"2014-10-05 10:27:55.484";;;;;;;;;;;;;;;;;;;;;;;;;;;;;;;;;;;;;;;;;;;;;;;;;;;;;;;;;;;;;;;;;;;;;;
"Shona21";"1995";;"Mac OS X";"Rachel's Experiment (D.T.)";"1.0";"2";"1";"1";"2";"1";"1";"2014-10-05 10:19:06.487";"2014-10-05 10:34:13.307";"1";"0";"1";"161";"160";"module.devaluation_practice.exec-1138.devalPractice";;;;;;;;;;;;"25396";"2014-10-05 10:28:58.267";"1";"2";"2";"3";"3200";"15814";"3366";"2014-10-05 10:28:32.871";;;;;;;;;;;;;;;;;;;;;;;;;;;;;;;;;;;;;;;;;;;;;;;;;;;;;;;;;;;;;;;;;;;;;;
"Shona21";"1995";;"Mac OS X";"Rachel's Experiment (D.T.)";"1.0";"2";"1";"1";"2";"1";"1";"2014-10-05 10:19:06.487";"2014-10-05 10:34:13.307";"1";"0";"1";"162";"161";"module.devaluation_practice.exec-1138.devalPractice";;;;;;;;;;;;"18073";"2014-10-05 10:29:16.359";"2";"3";"2";"3";"3208";"4077";"7772";"2014-10-05 10:28:58.285";;;;;;;;;;;;;;;;;;;;;;;;;;;;;;;;;;;;;;;;;;;;;;;;;;;;;;;;;;;;;;;;;;;;;;
"Shona21";"1995";;"Mac OS X";"Rachel's Experiment (D.T.)";"1.0";"2";"1";"1";"2";"1";"1";"2014-10-05 10:19:06.487";"2014-10-05 10:34:13.307";"1";"0";"1";"163";"162";"module.devaluation_practice.exec-1138.devalPractice";;;;;;;;;;;;"13469";"2014-10-05 10:29:29.847";"3";"6";"7";"7";"3024";"2598";"4832";"2014-10-05 10:29:16.377";;;;;;;;;;;;;;;;;;;;;;;;;;;;;;;;;;;;;;;;;;;;;;;;;;;;;;;;;;;;;;;;;;;;;;
"Shona21";"1995";;"Mac OS X";"Rachel's Experiment (D.T.)";"1.0";"2";"1";"1";"2";"1";"1";"2014-10-05 10:19:06.487";"2014-10-05 10:34:13.307";"1";"0";"1";"164";"163";"module.devaluation_block1.exec-6626.deval1";"13403";"2014-10-05 10:29:49.791";"20";"6";"6";"6";"5940";"1945";"2494";"2014-10-05 10:29:36.388";"3";;;;;;;;;;;;;;;;;;;;;;;;;;;;;;;;;;;;;;;;;;;;;;;;;;;;;;;;;;;;;;;;;;;;;;;;;;;;;;;;
"Shona21";"1995";;"Mac OS X";"Rachel's Experiment (D.T.)";"1.0";"2";"1";"1";"2";"1";"1";"2014-10-05 10:19:06.487";"2014-10-05 10:34:13.307";"1";"0";"1";"165";"164";"module.devaluation_block1.exec-6626.deval1";"11355";"2014-10-05 10:30:01.165";"0";"4";"3";"4";"4462";"2093";"1781";"2014-10-05 10:29:49.810";"1";;;;;;;;;;;;;;;;;;;;;;;;;;;;;;;;;;;;;;;;;;;;;;;;;;;;;;;;;;;;;;;;;;;;;;;;;;;;;;;;
"Shona21";"1995";;"Mac OS X";"Rachel's Experiment (D.T.)";"1.0";"2";"1";"1";"2";"1";"1";"2014-10-05 10:19:06.487";"2014-10-05 10:34:13.307";"1";"0";"1";"166";"165";"module.devaluation_block1.exec-6626.deval1";"7933";"2014-10-05 10:30:09.117";"18";"3";"3";"3";"1824";"1774";"1317";"2014-10-05 10:30:01.183";"3";;;;;;;;;;;;;;;;;;;;;;;;;;;;;;;;;;;;;;;;;;;;;;;;;;;;;;;;;;;;;;;;;;;;;;;;;;;;;;;;
"Shona21";"1995";;"Mac OS X";"Rachel's Experiment (D.T.)";"1.0";"2";"1";"1";"2";"1";"1";"2014-10-05 10:19:06.487";"2014-10-05 10:34:13.307";"1";"0";"1";"167";"166";"module.devaluation_block1.exec-6626.deval1";"8879";"2014-10-05 10:30:18.015";"2";"7";"6";"7";"2930";"1575";"1357";"2014-10-05 10:30:09.136";"1";;;;;;;;;;;;;;;;;;;;;;;;;;;;;;;;;;;;;;;;;;;;;;;;;;;;;;;;;;;;;;;;;;;;;;;;;;;;;;;;
"Shona21";"1995";;"Mac OS X";"Rachel's Experiment (D.T.)";"1.0";"2";"1";"1";"2";"1";"1";"2014-10-05 10:19:06.487";"2014-10-05 10:34:13.307";"1";"0";"1";"168";"167";"module.devaluation_block1.exec-6626.deval1";"11184";"2014-10-05 10:30:29.217";"11";"4";"5";"4";"2113";"2174";"3880";"2014-10-05 10:30:18.033";"2";;;;;;;;;;;;;;;;;;;;;;;;;;;;;;;;;;;;;;;;;;;;;;;;;;;;;;;;;;;;;;;;;;;;;;;;;;;;;;;;
"Shona21";"1995";;"Mac OS X";"Rachel's Experiment (D.T.)";"1.0";"2";"1";"1";"2";"1";"1";"2014-10-05 10:19:06.487";"2014-10-05 10:34:13.307";"1";"0";"1";"169";"168";"module.devaluation_block1.exec-6626.deval1";"7612";"2014-10-05 10:30:36.849";"6";"6";"6";"6";"1887";"1710";"998";"2014-10-05 10:30:29.236";"1";;;;;;;;;;;;;;;;;;;;;;;;;;;;;;;;;;;;;;;;;;;;;;;;;;;;;;;;;;;;;;;;;;;;;;;;;;;;;;;;
"Shona21";"1995";;"Mac OS X";"Rachel's Experiment (D.T.)";"1.0";"2";"1";"1";"2";"1";"1";"2014-10-05 10:19:06.487";"2014-10-05 10:34:13.307";"1";"0";"1";"170";"169";"module.devaluation_block1.exec-6626.deval1";"5731";"2014-10-05 10:30:42.601";"8";"6";"6";"6";"991";"935";"790";"2014-10-05 10:30:36.869";"1";;;;;;;;;;;;;;;;;;;;;;;;;;;;;;;;;;;;;;;;;;;;;;;;;;;;;;;;;;;;;;;;;;;;;;;;;;;;;;;;
"Shona21";"1995";;"Mac OS X";"Rachel's Experiment (D.T.)";"1.0";"2";"1";"1";"2";"1";"1";"2014-10-05 10:19:06.487";"2014-10-05 10:34:13.307";"1";"0";"1";"171";"170";"module.devaluation_block1.exec-6626.deval1";"6101";"2014-10-05 10:30:48.721";"16";"3";"4";"3";"1401";"710";"974";"2014-10-05 10:30:42.619";"2";;;;;;;;;;;;;;;;;;;;;;;;;;;;;;;;;;;;;;;;;;;;;;;;;;;;;;;;;;;;;;;;;;;;;;;;;;;;;;;;
"Shona21";"1995";;"Mac OS X";"Rachel's Experiment (D.T.)";"1.0";"2";"1";"1";"2";"1";"1";"2014-10-05 10:19:06.487";"2014-10-05 10:34:13.307";"1";"0";"1";"172";"171";"module.devaluation_block1.exec-6626.deval1";"8101";"2014-10-05 10:30:56.840";"12";"7";"7";"7";"2561";"1454";"1070";"2014-10-05 10:30:48.738";"2";;;;;;;;;;;;;;;;;;;;;;;;;;;;;;;;;;;;;;;;;;;;;;;;;;;;;;;;;;;;;;;;;;;;;;;;;;;;;;;;
"Shona21";"1995";;"Mac OS X";"Rachel's Experiment (D.T.)";"1.0";"2";"1";"1";"2";"1";"1";"2014-10-05 10:19:06.487";"2014-10-05 10:34:13.307";"1";"0";"1";"173";"172";"module.devaluation_block1.exec-6626.deval1";"9677";"2014-10-05 10:31:06.536";"5";"9";"9";"9";"2801";"1519";"2342";"2014-10-05 10:30:56.858";"1";;;;;;;;;;;;;;;;;;;;;;;;;;;;;;;;;;;;;;;;;;;;;;;;;;;;;;;;;;;;;;;;;;;;;;;;;;;;;;;;
"Shona21";"1995";;"Mac OS X";"Rachel's Experiment (D.T.)";"1.0";"2";"1";"1";"2";"1";"1";"2014-10-05 10:19:06.487";"2014-10-05 10:34:13.307";"1";"0";"1";"174";"173";"module.devaluation_block1.exec-6626.deval1";"6406";"2014-10-05 10:31:12.960";"24";"3";"5";"3";"1441";"854";"1094";"2014-10-05 10:31:06.553";"3";;;;;;;;;;;;;;;;;;;;;;;;;;;;;;;;;;;;;;;;;;;;;;;;;;;;;;;;;;;;;;;;;;;;;;;;;;;;;;;;
"Shona21";"1995";;"Mac OS X";"Rachel's Experiment (D.T.)";"1.0";"2";"1";"1";"2";"1";"1";"2014-10-05 10:19:06.487";"2014-10-05 10:34:13.307";"1";"0";"1";"175";"174";"module.devaluation_block1.exec-6626.deval1";"9220";"2014-10-05 10:31:22.198";"23";"4";"4";"4";"4359";"766";"1078";"2014-10-05 10:31:12.978";"3";;;;;;;;;;;;;;;;;;;;;;;;;;;;;;;;;;;;;;;;;;;;;;;;;;;;;;;;;;;;;;;;;;;;;;;;;;;;;;;;
"Shona21";"1995";;"Mac OS X";"Rachel's Experiment (D.T.)";"1.0";"2";"1";"1";"2";"1";"1";"2014-10-05 10:19:06.487";"2014-10-05 10:34:13.307";"1";"0";"1";"176";"175";"module.devaluation_block1.exec-6626.deval1";"10454";"2014-10-05 10:31:32.670";"9";"1";"1";"1";"3881";"1414";"2142";"2014-10-05 10:31:22.216";"2";;;;;;;;;;;;;;;;;;;;;;;;;;;;;;;;;;;;;;;;;;;;;;;;;;;;;;;;;;;;;;;;;;;;;;;;;;;;;;;;
"Shona21";"1995";;"Mac OS X";"Rachel's Experiment (D.T.)";"1.0";"2";"1";"1";"2";"1";"1";"2014-10-05 10:19:06.487";"2014-10-05 10:34:13.307";"1";"0";"1";"177";"176";"module.devaluation_block1.exec-6626.deval1";"7796";"2014-10-05 10:31:40.486";"25";"7";"7";"7";"2975";"831";"974";"2014-10-05 10:31:32.689";"3";;;;;;;;;;;;;;;;;;;;;;;;;;;;;;;;;;;;;;;;;;;;;;;;;;;;;;;;;;;;;;;;;;;;;;;;;;;;;;;;
"Shona21";"1995";;"Mac OS X";"Rachel's Experiment (D.T.)";"1.0";"2";"1";"1";"2";"1";"1";"2014-10-05 10:19:06.487";"2014-10-05 10:34:13.307";"1";"0";"1";"178";"177";"module.devaluation_block1.exec-6626.deval1";"11910";"2014-10-05 10:31:52.414";"10";"5";"5";"5";"3841";"1854";"3197";"2014-10-05 10:31:40.504";"2";;;;;;;;;;;;;;;;;;;;;;;;;;;;;;;;;;;;;;;;;;;;;;;;;;;;;;;;;;;;;;;;;;;;;;;;;;;;;;;;
"Shona21";"1995";;"Mac OS X";"Rachel's Experiment (D.T.)";"1.0";"2";"1";"1";"2";"1";"1";"2014-10-05 10:19:06.487";"2014-10-05 10:34:13.307";"1";"0";"1";"179";"178";"module.devaluation_block1.exec-6626.deval1";"8134";"2014-10-05 10:32:00.565";"13";"4";"4";"4";"1273";"1232";"2610";"2014-10-05 10:31:52.431";"2";;;;;;;;;;;;;;;;;;;;;;;;;;;;;;;;;;;;;;;;;;;;;;;;;;;;;;;;;;;;;;;;;;;;;;;;;;;;;;;;
"Shona21";"1995";;"Mac OS X";"Rachel's Experiment (D.T.)";"1.0";"2";"1";"1";"2";"1";"1";"2014-10-05 10:19:06.487";"2014-10-05 10:34:13.307";"1";"0";"1";"180";"179";"module.devaluation_block1.exec-6626.deval1";"7293";"2014-10-05 10:32:07.877";"21";"7";"7";"8";"1377";"1310";"1590";"2014-10-05 10:32:00.583";"3";;;;;;;;;;;;;;;;;;;;;;;;;;;;;;;;;;;;;;;;;;;;;;;;;;;;;;;;;;;;;;;;;;;;;;;;;;;;;;;;
"Shona21";"1995";;"Mac OS X";"Rachel's Experiment (D.T.)";"1.0";"2";"1";"1";"2";"1";"1";"2014-10-05 10:19:06.487";"2014-10-05 10:34:13.307";"1";"0";"1";"181";"180";"module.devaluation_block1.exec-6626.deval1";"27453";"2014-10-05 10:32:35.348";"7";"6";"6";"6";"22864";"822";"751";"2014-10-05 10:32:07.895";"1";;;;;;;;;;;;;;;;;;;;;;;;;;;;;;;;;;;;;;;;;;;;;;;;;;;;;;;;;;;;;;;;;;;;;;;;;;;;;;;;
"Shona21";"1995";;"Mac OS X";"Rachel's Experiment (D.T.)";"1.0";"2";"1";"1";"2";"1";"1";"2014-10-05 10:19:06.487";"2014-10-05 10:34:13.307";"1";"0";"1";"182";"181";"module.devaluation_block1.exec-6626.deval1";"9356";"2014-10-05 10:32:44.724";"26";"9";"9";"9";"3342";"1391";"1605";"2014-10-05 10:32:35.367";"3";;;;;;;;;;;;;;;;;;;;;;;;;;;;;;;;;;;;;;;;;;;;;;;;;;;;;;;;;;;;;;;;;;;;;;;;;;;;;;;;
"Shona21";"1995";;"Mac OS X";"Rachel's Experiment (D.T.)";"1.0";"2";"1";"1";"2";"1";"1";"2014-10-05 10:19:06.487";"2014-10-05 10:34:13.307";"1";"0";"1";"183";"182";"module.devaluation_block1.exec-6626.deval1";"11794";"2014-10-05 10:32:56.539";"17";"4";"2";"3";"2773";"3256";"2749";"2014-10-05 10:32:44.745";"2";;;;;;;;;;;;;;;;;;;;;;;;;;;;;;;;;;;;;;;;;;;;;;;;;;;;;;;;;;;;;;;;;;;;;;;;;;;;;;;;
"Shona21";"1995";;"Mac OS X";"Rachel's Experiment (D.T.)";"1.0";"2";"1";"1";"2";"1";"1";"2014-10-05 10:19:06.487";"2014-10-05 10:34:13.307";"1";"0";"1";"184";"183";"module.devaluation_block1.exec-6626.deval1";"9911";"2014-10-05 10:33:06.467";"1";"6";"3";"7";"2642";"1343";"2911";"2014-10-05 10:32:56.556";"1";;;;;;;;;;;;;;;;;;;;;;;;;;;;;;;;;;;;;;;;;;;;;;;;;;;;;;;;;;;;;;;;;;;;;;;;;;;;;;;;
"Shona21";"1995";;"Mac OS X";"Rachel's Experiment (D.T.)";"1.0";"2";"1";"1";"2";"1";"1";"2014-10-05 10:19:06.487";"2014-10-05 10:34:13.307";"1";"0";"1";"185";"184";"module.devaluation_block1.exec-6626.deval1";"8998";"2014-10-05 10:33:15.483";"3";"9";"9";"9";"2897";"1414";"1671";"2014-10-05 10:33:06.484";"1";;;;;;;;;;;;;;;;;;;;;;;;;;;;;;;;;;;;;;;;;;;;;;;;;;;;;;;;;;;;;;;;;;;;;;;;;;;;;;;;
"Shona21";"1995";;"Mac OS X";"Rachel's Experiment (D.T.)";"1.0";"2";"1";"1";"2";"1";"1";"2014-10-05 10:19:06.487";"2014-10-05 10:34:13.307";"1";"0";"1";"186";"185";"module.devaluation_block1.exec-6626.deval1";"8779";"2014-10-05 10:33:24.283";"19";"7";"5";"8";"1999";"2063";"1702";"2014-10-05 10:33:15.503";"3";;;;;;;;;;;;;;;;;;;;;;;;;;;;;;;;;;;;;;;;;;;;;;;;;;;;;;;;;;;;;;;;;;;;;;;;;;;;;;;;
"Shona21";"1995";;"Mac OS X";"Rachel's Experiment (D.T.)";"1.0";"2";"1";"1";"2";"1";"1";"2014-10-05 10:19:06.487";"2014-10-05 10:34:13.307";"1";"0";"1";"187";"186";"module.devaluation_block1.exec-6626.deval1";"7846";"2014-10-05 10:33:32.146";"4";"9";"9";"9";"1897";"1622";"1310";"2014-10-05 10:33:24.300";"1";;;;;;;;;;;;;;;;;;;;;;;;;;;;;;;;;;;;;;;;;;;;;;;;;;;;;;;;;;;;;;;;;;;;;;;;;;;;;;;;
"Shona21";"1995";;"Mac OS X";"Rachel's Experiment (D.T.)";"1.0";"2";"1";"1";"2";"1";"1";"2014-10-05 10:19:06.487";"2014-10-05 10:34:13.307";"1";"0";"1";"188";"187";"module.devaluation_block1.exec-6626.deval1";"23161";"2014-10-05 10:33:55.325";"15";"3";"2";"3";"17925";"1246";"975";"2014-10-05 10:33:32.164";"2";;;;;;;;;;;;;;;;;;;;;;;;;;;;;;;;;;;;;;;;;;;;;;;;;;;;;;;;;;;;;;;;;;;;;;;;;;;;;;;;
"Shona21";"1995";;"Mac OS X";"Rachel's Experiment (D.T.)";"1.0";"2";"1";"1";"2";"1";"1";"2014-10-05 10:19:06.487";"2014-10-05 10:34:13.307";"1";"0";"1";"189";"188";"module.devaluation_block1.exec-6626.deval1";"6574";"2014-10-05 10:34:01.917";"14";"7";"7";"7";"1651";"1022";"886";"2014-10-05 10:33:55.342";"2";;;;;;;;;;;;;;;;;;;;;;;;;;;;;;;;;;;;;;;;;;;;;;;;;;;;;;;;;;;;;;;;;;;;;;;;;;;;;;;;
"Shona21";"1995";;"Mac OS X";"Rachel's Experiment (D.T.)";"1.0";"2";"1";"1";"2";"1";"1";"2014-10-05 10:19:06.487";"2014-10-05 10:34:13.307";"1";"0";"1";"190";"189";"module.devaluation_block1.exec-6626.deval1";"8761";"2014-10-05 10:34:10.698";"22";"8";"9";"8";"3245";"1388";"1110";"2014-10-05 10:34:01.936";"3";;;;;;;;;;;;;;;;;;;;;;;;;;;;;;;;;;;;;;;;;;;;;;;;;;;;;;;;;;;;;;;;;;;;;;;;;;;;;;;;
