"user.name";"user.yearOfBirth";"user.sex";"user.osName";"module.name";"module.version";"module.online.subject.code";"module.online.study.id";"module.online.module.nr";"module.online.group.nr";"session.id";"session.index";"session.startTime";"session.endTime";"session.completed";"session.node-1104.DevalQorder";"session.node-1758.conditionType";"session.node-3359.conditionType";"session.node-7257.DevalQorder";"trial.id";"trial.index";"trial.name";"trial.deval1.durationTime";"trial.deval1.endTime";"trial.deval1.icon";"trial.deval1.Resp_Attractive";"trial.deval1.Resp_Eat";"trial.deval1.Resp_Taste";"trial.deval1.RT_Attractive";"trial.deval1.RT_Eat";"trial.deval1.RT_Taste";"trial.deval1.startTime";"trial.deval1.stimulus type";"trial.devalPractice.durationTime";"trial.devalPractice.endTime";"trial.devalPractice.icon";"trial.devalPractice.Resp_Attractive";"trial.devalPractice.Resp_Eat";"trial.devalPractice.Resp_Taste";"trial.devalPractice.RT_Attractive";"trial.devalPractice.RT_Eat";"trial.devalPractice.RT_Taste";"trial.devalPractice.startTime";"trial.devalPractice.stimulus type";"trial.GoNoGo1.durationTime";"trial.GoNoGo1.endTime";"trial.GoNoGo1.Error Type";"trial.GoNoGo1.icon";"trial.GoNoGo1.location";"trial.GoNoGo1.outcome";"trial.GoNoGo1.response";"trial.GoNoGo1.result";"trial.GoNoGo1.RT";"trial.GoNoGo1.signal";"trial.GoNoGo1.startTime";"trial.GoNoGo1.stimulus type";"trial.GoNoGo2.durationTime";"trial.GoNoGo2.endTime";"trial.GoNoGo2.Error Type";"trial.GoNoGo2.icon";"trial.GoNoGo2.location";"trial.GoNoGo2.outcome";"trial.GoNoGo2.response";"trial.GoNoGo2.result";"trial.GoNoGo2.RT";"trial.GoNoGo2.signal";"trial.GoNoGo2.startTime";"trial.GoNoGo2.stimulus type";"trial.GoNoGo3.durationTime";"trial.GoNoGo3.endTime";"trial.GoNoGo3.Error Type";"trial.GoNoGo3.icon";"trial.GoNoGo3.location";"trial.GoNoGo3.outcome";"trial.GoNoGo3.response";"trial.GoNoGo3.result";"trial.GoNoGo3.RT";"trial.GoNoGo3.signal";"trial.GoNoGo3.startTime";"trial.GoNoGo3.stimulus type";"trial.GoNoGo4.durationTime";"trial.GoNoGo4.endTime";"trial.GoNoGo4.Error Type";"trial.GoNoGo4.icon";"trial.GoNoGo4.location";"trial.GoNoGo4.outcome";"trial.GoNoGo4.response";"trial.GoNoGo4.result";"trial.GoNoGo4.RT";"trial.GoNoGo4.signal";"trial.GoNoGo4.startTime";"trial.GoNoGo4.stimulus type";"trial.GoNoGo_Practice.durationTime";"trial.GoNoGo_Practice.endTime";"trial.GoNoGo_Practice.icon";"trial.GoNoGo_Practice.location";"trial.GoNoGo_Practice.outcome";"trial.GoNoGo_Practice.response";"trial.GoNoGo_Practice.result";"trial.GoNoGo_Practice.RT";"trial.GoNoGo_Practice.signal";"trial.GoNoGo_Practice.startTime";"trial.GoNoGo_Practice.stimulus type";"trial.GoNoGo_Tutorial.durationTime";"trial.GoNoGo_Tutorial.endTime";"trial.GoNoGo_Tutorial.icon";"trial.GoNoGo_Tutorial.location";"trial.GoNoGo_Tutorial.outcome";"trial.GoNoGo_Tutorial.response";"trial.GoNoGo_Tutorial.result";"trial.GoNoGo_Tutorial.RT";"trial.GoNoGo_Tutorial.signal";"trial.GoNoGo_Tutorial.startTime"
"sophiefs";"1994";;"Mac OS X";"Rachel's Experiment (D.T.)";"1.0";"2";"1";"1";"2";"2";"2";"2014-10-13 19:35:52.834";"2014-10-13 19:48:49.546";"1";"0";"0";;;"1";"0";"module.GoNoGotutorial.exec-4737.GoNoGo_Tutorial";;;;;;;;;;;;;;;;;;;;;;;;;;;;;;;;;;;;;;;;;;;;;;;;;;;;;;;;;;;;;;;;;;;;;;;;;;;;;;;;;;"4001";"2014-10-13 19:36:29.671";"leftResponse";"0";"FINISHED";"LEFT";"success";"1251";"0";"2014-10-13 19:36:25.670"
"sophiefs";"1994";;"Mac OS X";"Rachel's Experiment (D.T.)";"1.0";"2";"1";"1";"2";"2";"2";"2014-10-13 19:35:52.834";"2014-10-13 19:48:49.546";"1";"0";"0";;;"2";"1";"module.GoNoGotutorial.exec-4737.GoNoGo_Tutorial";;;;;;;;;;;;;;;;;;;;;;;;;;;;;;;;;;;;;;;;;;;;;;;;;;;;;;;;;;;;;;;;;;;;;;;;;;;;;;;;;;"4001";"2014-10-13 19:36:35.055";"rightResponse";"1";"FINISHED";"LEFT";"failure";"200";"0";"2014-10-13 19:36:31.054"
"sophiefs";"1994";;"Mac OS X";"Rachel's Experiment (D.T.)";"1.0";"2";"1";"1";"2";"2";"2";"2014-10-13 19:35:52.834";"2014-10-13 19:48:49.546";"1";"0";"0";;;"3";"2";"module.GoNoGotutorial.exec-4737.GoNoGo_Tutorial";;;;;;;;;;;;;;;;;;;;;;;;;;;;;;;;;;;;;;;;;;;;;;;;;;;;;;;;;;;;;;;;;;;;;;;;;;;;;;;;;;"4000";"2014-10-13 19:36:40.332";"quickResponse";"0";"FINISHED";"NONE";"failure";"0";"0";"2014-10-13 19:36:36.331"
"sophiefs";"1994";;"Mac OS X";"Rachel's Experiment (D.T.)";"1.0";"2";"1";"1";"2";"2";"2";"2014-10-13 19:35:52.834";"2014-10-13 19:48:49.546";"1";"0";"0";;;"4";"3";"module.GoNoGopractice.exec-3187.GoNoGo_Practice";;;;;;;;;;;;;;;;;;;;;;;;;;;;;;;;;;;;;;;;;;;;;;;;;;;;;;;;;;;;;;;;;;;;;;;"1974";"2014-10-13 19:36:47.487";"18";"0";"FINISHED";"LEFT";"success";"533";"0";"2014-10-13 19:36:45.512";"3";;;;;;;;;;
"sophiefs";"1994";;"Mac OS X";"Rachel's Experiment (D.T.)";"1.0";"2";"1";"1";"2";"2";"2";"2014-10-13 19:35:52.834";"2014-10-13 19:48:49.546";"1";"0";"0";;;"5";"4";"module.GoNoGopractice.exec-3187.GoNoGo_Practice";;;;;;;;;;;;;;;;;;;;;;;;;;;;;;;;;;;;;;;;;;;;;;;;;;;;;;;;;;;;;;;;;;;;;;;"1952";"2014-10-13 19:36:50.788";"21";"1";"FINISHED";"RIGHT";"success";"330";"0";"2014-10-13 19:36:48.835";"3";;;;;;;;;;
"sophiefs";"1994";;"Mac OS X";"Rachel's Experiment (D.T.)";"1.0";"2";"1";"1";"2";"2";"2";"2014-10-13 19:35:52.834";"2014-10-13 19:48:49.546";"1";"0";"0";;;"6";"5";"module.GoNoGopractice.exec-3187.GoNoGo_Practice";;;;;;;;;;;;;;;;;;;;;;;;;;;;;;;;;;;;;;;;;;;;;;;;;;;;;;;;;;;;;;;;;;;;;;;"1953";"2014-10-13 19:36:54.055";"14";"1";"FINISHED";"RIGHT";"success";"352";"0";"2014-10-13 19:36:52.102";"2";;;;;;;;;;
"sophiefs";"1994";;"Mac OS X";"Rachel's Experiment (D.T.)";"1.0";"2";"1";"1";"2";"2";"2";"2014-10-13 19:35:52.834";"2014-10-13 19:48:49.546";"1";"0";"0";;;"7";"6";"module.GoNoGopractice.exec-3187.GoNoGo_Practice";;;;;;;;;;;;;;;;;;;;;;;;;;;;;;;;;;;;;;;;;;;;;;;;;;;;;;;;;;;;;;;;;;;;;;;"1951";"2014-10-13 19:36:57.299";"26";"0";"FINISHED";"LEFT";"success";"419";"0";"2014-10-13 19:36:55.347";"3";;;;;;;;;;
"sophiefs";"1994";;"Mac OS X";"Rachel's Experiment (D.T.)";"1.0";"2";"1";"1";"2";"2";"2";"2014-10-13 19:35:52.834";"2014-10-13 19:48:49.546";"1";"0";"0";;;"8";"7";"module.GoNoGopractice.exec-3187.GoNoGo_Practice";;;;;;;;;;;;;;;;;;;;;;;;;;;;;;;;;;;;;;;;;;;;;;;;;;;;;;;;;;;;;;;;;;;;;;;"1952";"2014-10-13 19:37:00.610";"2";"0";"FINISHED";"LEFT";"success";"300";"0";"2014-10-13 19:36:58.658";"1";;;;;;;;;;
"sophiefs";"1994";;"Mac OS X";"Rachel's Experiment (D.T.)";"1.0";"2";"1";"1";"2";"2";"2";"2014-10-13 19:35:52.834";"2014-10-13 19:48:49.546";"1";"0";"0";;;"9";"8";"module.GoNoGopractice.exec-3187.GoNoGo_Practice";;;;;;;;;;;;;;;;;;;;;;;;;;;;;;;;;;;;;;;;;;;;;;;;;;;;;;;;;;;;;;;;;;;;;;;"1952";"2014-10-13 19:37:03.903";"30";"0";"FINISHED";"LEFT";"success";"288";"0";"2014-10-13 19:37:01.950";"3";;;;;;;;;;
"sophiefs";"1994";;"Mac OS X";"Rachel's Experiment (D.T.)";"1.0";"2";"1";"1";"2";"2";"2";"2014-10-13 19:35:52.834";"2014-10-13 19:48:49.546";"1";"0";"0";;;"10";"9";"module.GoNoGopractice.exec-3187.GoNoGo_Practice";;;;;;;;;;;;;;;;;;;;;;;;;;;;;;;;;;;;;;;;;;;;;;;;;;;;;;;;;;;;;;;;;;;;;;;"1953";"2014-10-13 19:37:07.210";"6";"1";"FINISHED";"RIGHT";"success";"326";"0";"2014-10-13 19:37:05.257";"1";;;;;;;;;;
"sophiefs";"1994";;"Mac OS X";"Rachel's Experiment (D.T.)";"1.0";"2";"1";"1";"2";"2";"2";"2014-10-13 19:35:52.834";"2014-10-13 19:48:49.546";"1";"0";"0";;;"11";"10";"module.GoNoGopractice.exec-3187.GoNoGo_Practice";;;;;;;;;;;;;;;;;;;;;;;;;;;;;;;;;;;;;;;;;;;;;;;;;;;;;;;;;;;;;;;;;;;;;;;"1952";"2014-10-13 19:37:10.636";"34";"0";"FINISHED";"LEFT";"success";"355";"0";"2014-10-13 19:37:08.683";"3";;;;;;;;;;
"sophiefs";"1994";;"Mac OS X";"Rachel's Experiment (D.T.)";"1.0";"2";"1";"1";"2";"2";"2";"2014-10-13 19:35:52.834";"2014-10-13 19:48:49.546";"1";"0";"0";;;"12";"11";"module.GoNoGopractice.exec-3187.GoNoGo_Practice";;;;;;;;;;;;;;;;;;;;;;;;;;;;;;;;;;;;;;;;;;;;;;;;;;;;;;;;;;;;;;;;;;;;;;;"1953";"2014-10-13 19:37:13.882";"23";"1";"FINISHED";"RIGHT";"success";"327";"0";"2014-10-13 19:37:11.928";"3";;;;;;;;;;
"sophiefs";"1994";;"Mac OS X";"Rachel's Experiment (D.T.)";"1.0";"2";"1";"1";"2";"2";"2";"2014-10-13 19:35:52.834";"2014-10-13 19:48:49.546";"1";"0";"0";;;"13";"12";"module.GoNoGopractice.exec-3187.GoNoGo_Practice";;;;;;;;;;;;;;;;;;;;;;;;;;;;;;;;;;;;;;;;;;;;;;;;;;;;;;;;;;;;;;;;;;;;;;;"1952";"2014-10-13 19:37:17.179";"13";"0";"FINISHED";"LEFT";"success";"325";"0";"2014-10-13 19:37:15.226";"2";;;;;;;;;;
"sophiefs";"1994";;"Mac OS X";"Rachel's Experiment (D.T.)";"1.0";"2";"1";"1";"2";"2";"2";"2014-10-13 19:35:52.834";"2014-10-13 19:48:49.546";"1";"0";"0";;;"14";"13";"module.GoNoGopractice.exec-3187.GoNoGo_Practice";;;;;;;;;;;;;;;;;;;;;;;;;;;;;;;;;;;;;;;;;;;;;;;;;;;;;;;;;;;;;;;;;;;;;;;"1952";"2014-10-13 19:37:20.459";"3";"1";"FINISHED";"RIGHT";"success";"292";"0";"2014-10-13 19:37:18.506";"1";;;;;;;;;;
"sophiefs";"1994";;"Mac OS X";"Rachel's Experiment (D.T.)";"1.0";"2";"1";"1";"2";"2";"2";"2014-10-13 19:35:52.834";"2014-10-13 19:48:49.546";"1";"0";"0";;;"15";"14";"module.GoNoGopractice.exec-3187.GoNoGo_Practice";;;;;;;;;;;;;;;;;;;;;;;;;;;;;;;;;;;;;;;;;;;;;;;;;;;;;;;;;;;;;;;;;;;;;;;"1952";"2014-10-13 19:37:23.681";"27";"1";"FINISHED";"RIGHT";"success";"533";"0";"2014-10-13 19:37:21.729";"3";;;;;;;;;;
"sophiefs";"1994";;"Mac OS X";"Rachel's Experiment (D.T.)";"1.0";"2";"1";"1";"2";"2";"2";"2014-10-13 19:35:52.834";"2014-10-13 19:48:49.546";"1";"0";"0";;;"16";"15";"module.training_block1.exec-5359.GoNoGo1";;;;;;;;;;;;;;;;;;;;;;;"1251";"2014-10-13 19:37:31.944";"NST_correctLoc";"8";"1";"FINISHED";"RIGHT";"success";"466";"0";"2014-10-13 19:37:30.692";"1";;;;;;;;;;;;;;;;;;;;;;;;;;;;;;;;;;;;;;;;;;;;;;;;;;;;;;;;;
"sophiefs";"1994";;"Mac OS X";"Rachel's Experiment (D.T.)";"1.0";"2";"1";"1";"2";"2";"2";"2014-10-13 19:35:52.834";"2014-10-13 19:48:49.546";"1";"0";"0";;;"17";"16";"module.training_block1.exec-5359.GoNoGo1";;;;;;;;;;;;;;;;;;;;;;;"1251";"2014-10-13 19:37:34.523";"NST_correctLoc";"1";"0";"FINISHED";"LEFT";"success";"328";"0";"2014-10-13 19:37:33.272";"1";;;;;;;;;;;;;;;;;;;;;;;;;;;;;;;;;;;;;;;;;;;;;;;;;;;;;;;;;
"sophiefs";"1994";;"Mac OS X";"Rachel's Experiment (D.T.)";"1.0";"2";"1";"1";"2";"2";"2";"2014-10-13 19:35:52.834";"2014-10-13 19:48:49.546";"1";"0";"0";;;"18";"17";"module.training_block1.exec-5359.GoNoGo1";;;;;;;;;;;;;;;;;;;;;;;"1250";"2014-10-13 19:37:37.100";"NST_correctLoc";"12";"0";"FINISHED";"LEFT";"success";"301";"0";"2014-10-13 19:37:35.850";"2";;;;;;;;;;;;;;;;;;;;;;;;;;;;;;;;;;;;;;;;;;;;;;;;;;;;;;;;;
"sophiefs";"1994";;"Mac OS X";"Rachel's Experiment (D.T.)";"1.0";"2";"1";"1";"2";"2";"2";"2014-10-13 19:35:52.834";"2014-10-13 19:48:49.546";"1";"0";"0";;;"19";"18";"module.training_block1.exec-5359.GoNoGo1";;;;;;;;;;;;;;;;;;;;;;;"1250";"2014-10-13 19:37:39.621";"NST_correctLoc";"30";"1";"FINISHED";"RIGHT";"success";"341";"0";"2014-10-13 19:37:38.370";"3";;;;;;;;;;;;;;;;;;;;;;;;;;;;;;;;;;;;;;;;;;;;;;;;;;;;;;;;;
"sophiefs";"1994";;"Mac OS X";"Rachel's Experiment (D.T.)";"1.0";"2";"1";"1";"2";"2";"2";"2014-10-13 19:35:52.834";"2014-10-13 19:48:49.546";"1";"0";"0";;;"20";"19";"module.training_block1.exec-5359.GoNoGo1";;;;;;;;;;;;;;;;;;;;;;;"1251";"2014-10-13 19:37:42.142";"NST_correctLoc";"6";"0";"FINISHED";"LEFT";"success";"284";"0";"2014-10-13 19:37:40.891";"1";;;;;;;;;;;;;;;;;;;;;;;;;;;;;;;;;;;;;;;;;;;;;;;;;;;;;;;;;
"sophiefs";"1994";;"Mac OS X";"Rachel's Experiment (D.T.)";"1.0";"2";"1";"1";"2";"2";"2";"2014-10-13 19:35:52.834";"2014-10-13 19:48:49.546";"1";"0";"0";;;"21";"20";"module.training_block1.exec-5359.GoNoGo1";;;;;;;;;;;;;;;;;;;;;;;"1250";"2014-10-13 19:37:44.661";"NST_correctLoc";"21";"0";"FINISHED";"LEFT";"success";"325";"0";"2014-10-13 19:37:43.411";"3";;;;;;;;;;;;;;;;;;;;;;;;;;;;;;;;;;;;;;;;;;;;;;;;;;;;;;;;;
"sophiefs";"1994";;"Mac OS X";"Rachel's Experiment (D.T.)";"1.0";"2";"1";"1";"2";"2";"2";"2014-10-13 19:35:52.834";"2014-10-13 19:48:49.546";"1";"0";"0";;;"22";"21";"module.training_block1.exec-5359.GoNoGo1";;;;;;;;;;;;;;;;;;;;;;;"1251";"2014-10-13 19:37:47.185";"NST_correctLoc";"2";"1";"FINISHED";"RIGHT";"success";"290";"0";"2014-10-13 19:37:45.934";"1";;;;;;;;;;;;;;;;;;;;;;;;;;;;;;;;;;;;;;;;;;;;;;;;;;;;;;;;;
"sophiefs";"1994";;"Mac OS X";"Rachel's Experiment (D.T.)";"1.0";"2";"1";"1";"2";"2";"2";"2014-10-13 19:35:52.834";"2014-10-13 19:48:49.546";"1";"0";"0";;;"23";"22";"module.training_block1.exec-5359.GoNoGo1";;;;;;;;;;;;;;;;;;;;;;;"1251";"2014-10-13 19:37:49.711";"NST_correctLoc";"15";"0";"FINISHED";"LEFT";"success";"252";"0";"2014-10-13 19:37:48.460";"2";;;;;;;;;;;;;;;;;;;;;;;;;;;;;;;;;;;;;;;;;;;;;;;;;;;;;;;;;
"sophiefs";"1994";;"Mac OS X";"Rachel's Experiment (D.T.)";"1.0";"2";"1";"1";"2";"2";"2";"2014-10-13 19:35:52.834";"2014-10-13 19:48:49.546";"1";"0";"0";;;"24";"23";"module.training_block1.exec-5359.GoNoGo1";;;;;;;;;;;;;;;;;;;;;;;"1250";"2014-10-13 19:37:52.228";"NST_correctLoc";"26";"1";"FINISHED";"RIGHT";"success";"302";"0";"2014-10-13 19:37:50.978";"3";;;;;;;;;;;;;;;;;;;;;;;;;;;;;;;;;;;;;;;;;;;;;;;;;;;;;;;;;
"sophiefs";"1994";;"Mac OS X";"Rachel's Experiment (D.T.)";"1.0";"2";"1";"1";"2";"2";"2";"2014-10-13 19:35:52.834";"2014-10-13 19:48:49.546";"1";"0";"0";;;"25";"24";"module.training_block1.exec-5359.GoNoGo1";;;;;;;;;;;;;;;;;;;;;;;"1251";"2014-10-13 19:37:54.796";"NST_correctLoc";"35";"1";"FINISHED";"RIGHT";"success";"375";"0";"2014-10-13 19:37:53.545";"3";;;;;;;;;;;;;;;;;;;;;;;;;;;;;;;;;;;;;;;;;;;;;;;;;;;;;;;;;
"sophiefs";"1994";;"Mac OS X";"Rachel's Experiment (D.T.)";"1.0";"2";"1";"1";"2";"2";"2";"2014-10-13 19:35:52.834";"2014-10-13 19:48:49.546";"1";"0";"0";;;"26";"25";"module.training_block1.exec-5359.GoNoGo1";;;;;;;;;;;;;;;;;;;;;;;"1251";"2014-10-13 19:37:57.319";"NST_correctLoc";"13";"1";"FINISHED";"RIGHT";"success";"308";"0";"2014-10-13 19:37:56.068";"2";;;;;;;;;;;;;;;;;;;;;;;;;;;;;;;;;;;;;;;;;;;;;;;;;;;;;;;;;
"sophiefs";"1994";;"Mac OS X";"Rachel's Experiment (D.T.)";"1.0";"2";"1";"1";"2";"2";"2";"2014-10-13 19:35:52.834";"2014-10-13 19:48:49.546";"1";"0";"0";;;"27";"26";"module.training_block1.exec-5359.GoNoGo1";;;;;;;;;;;;;;;;;;;;;;;"1251";"2014-10-13 19:37:59.936";"NST_correctLoc";"5";"0";"FINISHED";"LEFT";"success";"283";"0";"2014-10-13 19:37:58.685";"1";;;;;;;;;;;;;;;;;;;;;;;;;;;;;;;;;;;;;;;;;;;;;;;;;;;;;;;;;
"sophiefs";"1994";;"Mac OS X";"Rachel's Experiment (D.T.)";"1.0";"2";"1";"1";"2";"2";"2";"2014-10-13 19:35:52.834";"2014-10-13 19:48:49.546";"1";"0";"0";;;"28";"27";"module.training_block1.exec-5359.GoNoGo1";;;;;;;;;;;;;;;;;;;;;;;"1250";"2014-10-13 19:38:02.482";"NST_correctLoc";"20";"1";"FINISHED";"RIGHT";"success";"264";"0";"2014-10-13 19:38:01.232";"3";;;;;;;;;;;;;;;;;;;;;;;;;;;;;;;;;;;;;;;;;;;;;;;;;;;;;;;;;
"sophiefs";"1994";;"Mac OS X";"Rachel's Experiment (D.T.)";"1.0";"2";"1";"1";"2";"2";"2";"2014-10-13 19:35:52.834";"2014-10-13 19:48:49.546";"1";"0";"0";;;"29";"28";"module.training_block1.exec-5359.GoNoGo1";;;;;;;;;;;;;;;;;;;;;;;"1251";"2014-10-13 19:38:05.037";"NST_correctLoc";"10";"1";"FINISHED";"RIGHT";"success";"383";"0";"2014-10-13 19:38:03.786";"2";;;;;;;;;;;;;;;;;;;;;;;;;;;;;;;;;;;;;;;;;;;;;;;;;;;;;;;;;
"sophiefs";"1994";;"Mac OS X";"Rachel's Experiment (D.T.)";"1.0";"2";"1";"1";"2";"2";"2";"2014-10-13 19:35:52.834";"2014-10-13 19:48:49.546";"1";"0";"0";;;"30";"29";"module.training_block1.exec-5359.GoNoGo1";;;;;;;;;;;;;;;;;;;;;;;"1251";"2014-10-13 19:38:07.606";"NST_correctLoc";"16";"1";"FINISHED";"RIGHT";"success";"293";"0";"2014-10-13 19:38:06.355";"2";;;;;;;;;;;;;;;;;;;;;;;;;;;;;;;;;;;;;;;;;;;;;;;;;;;;;;;;;
"sophiefs";"1994";;"Mac OS X";"Rachel's Experiment (D.T.)";"1.0";"2";"1";"1";"2";"2";"2";"2014-10-13 19:35:52.834";"2014-10-13 19:48:49.546";"1";"0";"0";;;"31";"30";"module.training_block1.exec-5359.GoNoGo1";;;;;;;;;;;;;;;;;;;;;;;"1251";"2014-10-13 19:38:10.129";"NST_correctLoc";"11";"0";"FINISHED";"LEFT";"success";"282";"0";"2014-10-13 19:38:08.878";"2";;;;;;;;;;;;;;;;;;;;;;;;;;;;;;;;;;;;;;;;;;;;;;;;;;;;;;;;;
"sophiefs";"1994";;"Mac OS X";"Rachel's Experiment (D.T.)";"1.0";"2";"1";"1";"2";"2";"2";"2014-10-13 19:35:52.834";"2014-10-13 19:48:49.546";"1";"0";"0";;;"32";"31";"module.training_block1.exec-5359.GoNoGo1";;;;;;;;;;;;;;;;;;;;;;;"1249";"2014-10-13 19:38:12.676";"NST_correctLoc";"4";"1";"FINISHED";"RIGHT";"success";"286";"0";"2014-10-13 19:38:11.426";"1";;;;;;;;;;;;;;;;;;;;;;;;;;;;;;;;;;;;;;;;;;;;;;;;;;;;;;;;;
"sophiefs";"1994";;"Mac OS X";"Rachel's Experiment (D.T.)";"1.0";"2";"1";"1";"2";"2";"2";"2014-10-13 19:35:52.834";"2014-10-13 19:48:49.546";"1";"0";"0";;;"33";"32";"module.training_block1.exec-5359.GoNoGo1";;;;;;;;;;;;;;;;;;;;;;;"1251";"2014-10-13 19:38:15.192";"NST_correctLoc";"3";"1";"FINISHED";"RIGHT";"success";"300";"0";"2014-10-13 19:38:13.941";"1";;;;;;;;;;;;;;;;;;;;;;;;;;;;;;;;;;;;;;;;;;;;;;;;;;;;;;;;;
"sophiefs";"1994";;"Mac OS X";"Rachel's Experiment (D.T.)";"1.0";"2";"1";"1";"2";"2";"2";"2014-10-13 19:35:52.834";"2014-10-13 19:48:49.546";"1";"0";"0";;;"34";"33";"module.training_block1.exec-5359.GoNoGo1";;;;;;;;;;;;;;;;;;;;;;;"1251";"2014-10-13 19:38:17.754";"NST_correctLoc";"24";"1";"FINISHED";"RIGHT";"success";"274";"0";"2014-10-13 19:38:16.502";"3";;;;;;;;;;;;;;;;;;;;;;;;;;;;;;;;;;;;;;;;;;;;;;;;;;;;;;;;;
"sophiefs";"1994";;"Mac OS X";"Rachel's Experiment (D.T.)";"1.0";"2";"1";"1";"2";"2";"2";"2014-10-13 19:35:52.834";"2014-10-13 19:48:49.546";"1";"0";"0";;;"35";"34";"module.training_block1.exec-5359.GoNoGo1";;;;;;;;;;;;;;;;;;;;;;;"1250";"2014-10-13 19:38:20.271";"NST_correctLoc";"14";"1";"FINISHED";"RIGHT";"success";"308";"0";"2014-10-13 19:38:19.021";"2";;;;;;;;;;;;;;;;;;;;;;;;;;;;;;;;;;;;;;;;;;;;;;;;;;;;;;;;;
"sophiefs";"1994";;"Mac OS X";"Rachel's Experiment (D.T.)";"1.0";"2";"1";"1";"2";"2";"2";"2014-10-13 19:35:52.834";"2014-10-13 19:48:49.546";"1";"0";"0";;;"36";"35";"module.training_block1.exec-5359.GoNoGo1";;;;;;;;;;;;;;;;;;;;;;;"1251";"2014-10-13 19:38:22.820";"NST_correctLoc";"29";"0";"FINISHED";"LEFT";"success";"255";"0";"2014-10-13 19:38:21.569";"3";;;;;;;;;;;;;;;;;;;;;;;;;;;;;;;;;;;;;;;;;;;;;;;;;;;;;;;;;
"sophiefs";"1994";;"Mac OS X";"Rachel's Experiment (D.T.)";"1.0";"2";"1";"1";"2";"2";"2";"2014-10-13 19:35:52.834";"2014-10-13 19:48:49.546";"1";"0";"0";;;"37";"36";"module.training_block1.exec-5359.GoNoGo1";;;;;;;;;;;;;;;;;;;;;;;"1250";"2014-10-13 19:38:25.335";"NST_correctLoc";"27";"0";"FINISHED";"LEFT";"success";"372";"0";"2014-10-13 19:38:24.085";"3";;;;;;;;;;;;;;;;;;;;;;;;;;;;;;;;;;;;;;;;;;;;;;;;;;;;;;;;;
"sophiefs";"1994";;"Mac OS X";"Rachel's Experiment (D.T.)";"1.0";"2";"1";"1";"2";"2";"2";"2014-10-13 19:35:52.834";"2014-10-13 19:48:49.546";"1";"0";"0";;;"38";"37";"module.training_block1.exec-5359.GoNoGo1";;;;;;;;;;;;;;;;;;;;;;;"1250";"2014-10-13 19:38:27.887";"NST_correctLoc";"22";"0";"FINISHED";"LEFT";"success";"284";"0";"2014-10-13 19:38:26.637";"3";;;;;;;;;;;;;;;;;;;;;;;;;;;;;;;;;;;;;;;;;;;;;;;;;;;;;;;;;
"sophiefs";"1994";;"Mac OS X";"Rachel's Experiment (D.T.)";"1.0";"2";"1";"1";"2";"2";"2";"2014-10-13 19:35:52.834";"2014-10-13 19:48:49.546";"1";"0";"0";;;"39";"38";"module.training_block1.exec-5359.GoNoGo1";;;;;;;;;;;;;;;;;;;;;;;"1251";"2014-10-13 19:38:30.441";"NST_correctLoc";"0";"0";"FINISHED";"LEFT";"success";"291";"0";"2014-10-13 19:38:29.190";"1";;;;;;;;;;;;;;;;;;;;;;;;;;;;;;;;;;;;;;;;;;;;;;;;;;;;;;;;;
"sophiefs";"1994";;"Mac OS X";"Rachel's Experiment (D.T.)";"1.0";"2";"1";"1";"2";"2";"2";"2014-10-13 19:35:52.834";"2014-10-13 19:48:49.546";"1";"0";"0";;;"40";"39";"module.training_block1.exec-5359.GoNoGo1";;;;;;;;;;;;;;;;;;;;;;;"1251";"2014-10-13 19:38:32.956";"NST_correctLoc";"34";"0";"FINISHED";"LEFT";"success";"264";"0";"2014-10-13 19:38:31.704";"3";;;;;;;;;;;;;;;;;;;;;;;;;;;;;;;;;;;;;;;;;;;;;;;;;;;;;;;;;
"sophiefs";"1994";;"Mac OS X";"Rachel's Experiment (D.T.)";"1.0";"2";"1";"1";"2";"2";"2";"2014-10-13 19:35:52.834";"2014-10-13 19:48:49.546";"1";"0";"0";;;"41";"40";"module.training_block1.exec-5359.GoNoGo1";;;;;;;;;;;;;;;;;;;;;;;"1251";"2014-10-13 19:38:35.469";"NST_correctLoc";"23";"1";"FINISHED";"RIGHT";"success";"263";"0";"2014-10-13 19:38:34.218";"3";;;;;;;;;;;;;;;;;;;;;;;;;;;;;;;;;;;;;;;;;;;;;;;;;;;;;;;;;
"sophiefs";"1994";;"Mac OS X";"Rachel's Experiment (D.T.)";"1.0";"2";"1";"1";"2";"2";"2";"2014-10-13 19:35:52.834";"2014-10-13 19:48:49.546";"1";"0";"0";;;"42";"41";"module.training_block1.exec-5359.GoNoGo1";;;;;;;;;;;;;;;;;;;;;;;"1251";"2014-10-13 19:38:38.020";"NST_correctLoc";"17";"1";"FINISHED";"RIGHT";"success";"289";"0";"2014-10-13 19:38:36.769";"2";;;;;;;;;;;;;;;;;;;;;;;;;;;;;;;;;;;;;;;;;;;;;;;;;;;;;;;;;
"sophiefs";"1994";;"Mac OS X";"Rachel's Experiment (D.T.)";"1.0";"2";"1";"1";"2";"2";"2";"2014-10-13 19:35:52.834";"2014-10-13 19:48:49.546";"1";"0";"0";;;"43";"42";"module.training_block1.exec-5359.GoNoGo1";;;;;;;;;;;;;;;;;;;;;;;"1250";"2014-10-13 19:38:40.576";"NST_correctLoc";"19";"0";"FINISHED";"LEFT";"success";"275";"0";"2014-10-13 19:38:39.326";"3";;;;;;;;;;;;;;;;;;;;;;;;;;;;;;;;;;;;;;;;;;;;;;;;;;;;;;;;;
"sophiefs";"1994";;"Mac OS X";"Rachel's Experiment (D.T.)";"1.0";"2";"1";"1";"2";"2";"2";"2014-10-13 19:35:52.834";"2014-10-13 19:48:49.546";"1";"0";"0";;;"44";"43";"module.training_block1.exec-5359.GoNoGo1";;;;;;;;;;;;;;;;;;;;;;;"1250";"2014-10-13 19:38:43.130";"NST_correctLoc";"7";"1";"FINISHED";"RIGHT";"success";"258";"0";"2014-10-13 19:38:41.879";"1";;;;;;;;;;;;;;;;;;;;;;;;;;;;;;;;;;;;;;;;;;;;;;;;;;;;;;;;;
"sophiefs";"1994";;"Mac OS X";"Rachel's Experiment (D.T.)";"1.0";"2";"1";"1";"2";"2";"2";"2014-10-13 19:35:52.834";"2014-10-13 19:48:49.546";"1";"0";"0";;;"45";"44";"module.training_block1.exec-5359.GoNoGo1";;;;;;;;;;;;;;;;;;;;;;;"1250";"2014-10-13 19:38:45.679";"NST_correctLoc";"33";"0";"FINISHED";"LEFT";"success";"285";"0";"2014-10-13 19:38:44.428";"3";;;;;;;;;;;;;;;;;;;;;;;;;;;;;;;;;;;;;;;;;;;;;;;;;;;;;;;;;
"sophiefs";"1994";;"Mac OS X";"Rachel's Experiment (D.T.)";"1.0";"2";"1";"1";"2";"2";"2";"2014-10-13 19:35:52.834";"2014-10-13 19:48:49.546";"1";"0";"0";;;"46";"45";"module.training_block1.exec-5359.GoNoGo1";;;;;;;;;;;;;;;;;;;;;;;"1251";"2014-10-13 19:38:48.236";"NST_correctLoc";"28";"0";"FINISHED";"LEFT";"success";"281";"0";"2014-10-13 19:38:46.985";"3";;;;;;;;;;;;;;;;;;;;;;;;;;;;;;;;;;;;;;;;;;;;;;;;;;;;;;;;;
"sophiefs";"1994";;"Mac OS X";"Rachel's Experiment (D.T.)";"1.0";"2";"1";"1";"2";"2";"2";"2014-10-13 19:35:52.834";"2014-10-13 19:48:49.546";"1";"0";"0";;;"47";"46";"module.training_block1.exec-5359.GoNoGo1";;;;;;;;;;;;;;;;;;;;;;;"1250";"2014-10-13 19:38:50.756";"NST_correctLoc";"25";"0";"FINISHED";"LEFT";"success";"336";"0";"2014-10-13 19:38:49.506";"3";;;;;;;;;;;;;;;;;;;;;;;;;;;;;;;;;;;;;;;;;;;;;;;;;;;;;;;;;
"sophiefs";"1994";;"Mac OS X";"Rachel's Experiment (D.T.)";"1.0";"2";"1";"1";"2";"2";"2";"2014-10-13 19:35:52.834";"2014-10-13 19:48:49.546";"1";"0";"0";;;"48";"47";"module.training_block1.exec-5359.GoNoGo1";;;;;;;;;;;;;;;;;;;;;;;"1250";"2014-10-13 19:38:53.291";"NST_correctLoc";"31";"1";"FINISHED";"RIGHT";"success";"265";"0";"2014-10-13 19:38:52.040";"3";;;;;;;;;;;;;;;;;;;;;;;;;;;;;;;;;;;;;;;;;;;;;;;;;;;;;;;;;
"sophiefs";"1994";;"Mac OS X";"Rachel's Experiment (D.T.)";"1.0";"2";"1";"1";"2";"2";"2";"2014-10-13 19:35:52.834";"2014-10-13 19:48:49.546";"1";"0";"0";;;"49";"48";"module.training_block1.exec-5359.GoNoGo1";;;;;;;;;;;;;;;;;;;;;;;"1250";"2014-10-13 19:38:55.804";"NST_correctLoc";"18";"0";"FINISHED";"LEFT";"success";"288";"0";"2014-10-13 19:38:54.553";"3";;;;;;;;;;;;;;;;;;;;;;;;;;;;;;;;;;;;;;;;;;;;;;;;;;;;;;;;;
"sophiefs";"1994";;"Mac OS X";"Rachel's Experiment (D.T.)";"1.0";"2";"1";"1";"2";"2";"2";"2014-10-13 19:35:52.834";"2014-10-13 19:48:49.546";"1";"0";"0";;;"50";"49";"module.training_block1.exec-5359.GoNoGo1";;;;;;;;;;;;;;;;;;;;;;;"1250";"2014-10-13 19:38:58.366";"NST_correctLoc";"9";"0";"FINISHED";"LEFT";"success";"279";"0";"2014-10-13 19:38:57.115";"2";;;;;;;;;;;;;;;;;;;;;;;;;;;;;;;;;;;;;;;;;;;;;;;;;;;;;;;;;
"sophiefs";"1994";;"Mac OS X";"Rachel's Experiment (D.T.)";"1.0";"2";"1";"1";"2";"2";"2";"2014-10-13 19:35:52.834";"2014-10-13 19:48:49.546";"1";"0";"0";;;"51";"50";"module.training_block1.exec-5359.GoNoGo1";;;;;;;;;;;;;;;;;;;;;;;"1251";"2014-10-13 19:39:00.886";"NST_correctLoc";"32";"1";"FINISHED";"RIGHT";"success";"351";"0";"2014-10-13 19:38:59.635";"3";;;;;;;;;;;;;;;;;;;;;;;;;;;;;;;;;;;;;;;;;;;;;;;;;;;;;;;;;
"sophiefs";"1994";;"Mac OS X";"Rachel's Experiment (D.T.)";"1.0";"2";"1";"1";"2";"2";"2";"2014-10-13 19:35:52.834";"2014-10-13 19:48:49.546";"1";"0";"0";;;"52";"51";"module.training_block2.exec-3411.GoNoGo2";;;;;;;;;;;;;;;;;;;;;;;;;;;;;;;;;;;"1251";"2014-10-13 19:39:11.865";"NST_correctLoc";"31";"1";"FINISHED";"RIGHT";"success";"403";"0";"2014-10-13 19:39:10.614";"3";;;;;;;;;;;;;;;;;;;;;;;;;;;;;;;;;;;;;;;;;;;;;
"sophiefs";"1994";;"Mac OS X";"Rachel's Experiment (D.T.)";"1.0";"2";"1";"1";"2";"2";"2";"2014-10-13 19:35:52.834";"2014-10-13 19:48:49.546";"1";"0";"0";;;"53";"52";"module.training_block2.exec-3411.GoNoGo2";;;;;;;;;;;;;;;;;;;;;;;;;;;;;;;;;;;"1251";"2014-10-13 19:39:14.379";"NST_correctLoc";"22";"0";"FINISHED";"LEFT";"success";"281";"0";"2014-10-13 19:39:13.128";"3";;;;;;;;;;;;;;;;;;;;;;;;;;;;;;;;;;;;;;;;;;;;;
"sophiefs";"1994";;"Mac OS X";"Rachel's Experiment (D.T.)";"1.0";"2";"1";"1";"2";"2";"2";"2014-10-13 19:35:52.834";"2014-10-13 19:48:49.546";"1";"0";"0";;;"54";"53";"module.training_block2.exec-3411.GoNoGo2";;;;;;;;;;;;;;;;;;;;;;;;;;;;;;;;;;;"1250";"2014-10-13 19:39:16.892";"NST_correctLoc";"23";"0";"FINISHED";"LEFT";"success";"272";"0";"2014-10-13 19:39:15.641";"3";;;;;;;;;;;;;;;;;;;;;;;;;;;;;;;;;;;;;;;;;;;;;
"sophiefs";"1994";;"Mac OS X";"Rachel's Experiment (D.T.)";"1.0";"2";"1";"1";"2";"2";"2";"2014-10-13 19:35:52.834";"2014-10-13 19:48:49.546";"1";"0";"0";;;"55";"54";"module.training_block2.exec-3411.GoNoGo2";;;;;;;;;;;;;;;;;;;;;;;;;;;;;;;;;;;"1251";"2014-10-13 19:39:19.408";"NST_correctLoc";"18";"1";"FINISHED";"RIGHT";"success";"285";"0";"2014-10-13 19:39:18.157";"3";;;;;;;;;;;;;;;;;;;;;;;;;;;;;;;;;;;;;;;;;;;;;
"sophiefs";"1994";;"Mac OS X";"Rachel's Experiment (D.T.)";"1.0";"2";"1";"1";"2";"2";"2";"2014-10-13 19:35:52.834";"2014-10-13 19:48:49.546";"1";"0";"0";;;"56";"55";"module.training_block2.exec-3411.GoNoGo2";;;;;;;;;;;;;;;;;;;;;;;;;;;;;;;;;;;"1250";"2014-10-13 19:39:21.924";"NST_correctLoc";"8";"0";"FINISHED";"LEFT";"success";"305";"0";"2014-10-13 19:39:20.673";"1";;;;;;;;;;;;;;;;;;;;;;;;;;;;;;;;;;;;;;;;;;;;;
"sophiefs";"1994";;"Mac OS X";"Rachel's Experiment (D.T.)";"1.0";"2";"1";"1";"2";"2";"2";"2014-10-13 19:35:52.834";"2014-10-13 19:48:49.546";"1";"0";"0";;;"57";"56";"module.training_block2.exec-3411.GoNoGo2";;;;;;;;;;;;;;;;;;;;;;;;;;;;;;;;;;;"1251";"2014-10-13 19:39:24.439";"NST_correctLoc";"14";"1";"FINISHED";"RIGHT";"success";"501";"0";"2014-10-13 19:39:23.188";"2";;;;;;;;;;;;;;;;;;;;;;;;;;;;;;;;;;;;;;;;;;;;;
"sophiefs";"1994";;"Mac OS X";"Rachel's Experiment (D.T.)";"1.0";"2";"1";"1";"2";"2";"2";"2014-10-13 19:35:52.834";"2014-10-13 19:48:49.546";"1";"0";"0";;;"58";"57";"module.training_block2.exec-3411.GoNoGo2";;;;;;;;;;;;;;;;;;;;;;;;;;;;;;;;;;;"1250";"2014-10-13 19:39:26.953";"NST_correctLoc";"19";"0";"FINISHED";"LEFT";"success";"308";"0";"2014-10-13 19:39:25.702";"3";;;;;;;;;;;;;;;;;;;;;;;;;;;;;;;;;;;;;;;;;;;;;
"sophiefs";"1994";;"Mac OS X";"Rachel's Experiment (D.T.)";"1.0";"2";"1";"1";"2";"2";"2";"2014-10-13 19:35:52.834";"2014-10-13 19:48:49.546";"1";"0";"0";;;"59";"58";"module.training_block2.exec-3411.GoNoGo2";;;;;;;;;;;;;;;;;;;;;;;;;;;;;;;;;;;"1250";"2014-10-13 19:39:29.468";"NST_correctLoc";"32";"1";"FINISHED";"RIGHT";"success";"257";"0";"2014-10-13 19:39:28.217";"3";;;;;;;;;;;;;;;;;;;;;;;;;;;;;;;;;;;;;;;;;;;;;
"sophiefs";"1994";;"Mac OS X";"Rachel's Experiment (D.T.)";"1.0";"2";"1";"1";"2";"2";"2";"2014-10-13 19:35:52.834";"2014-10-13 19:48:49.546";"1";"0";"0";;;"60";"59";"module.training_block2.exec-3411.GoNoGo2";;;;;;;;;;;;;;;;;;;;;;;;;;;;;;;;;;;"1251";"2014-10-13 19:39:31.984";"NST_correctLoc";"1";"0";"FINISHED";"LEFT";"success";"517";"0";"2014-10-13 19:39:30.733";"1";;;;;;;;;;;;;;;;;;;;;;;;;;;;;;;;;;;;;;;;;;;;;
"sophiefs";"1994";;"Mac OS X";"Rachel's Experiment (D.T.)";"1.0";"2";"1";"1";"2";"2";"2";"2014-10-13 19:35:52.834";"2014-10-13 19:48:49.546";"1";"0";"0";;;"61";"60";"module.training_block2.exec-3411.GoNoGo2";;;;;;;;;;;;;;;;;;;;;;;;;;;;;;;;;;;"1251";"2014-10-13 19:39:34.499";"NST_correctLoc";"4";"0";"FINISHED";"LEFT";"success";"274";"0";"2014-10-13 19:39:33.248";"1";;;;;;;;;;;;;;;;;;;;;;;;;;;;;;;;;;;;;;;;;;;;;
"sophiefs";"1994";;"Mac OS X";"Rachel's Experiment (D.T.)";"1.0";"2";"1";"1";"2";"2";"2";"2014-10-13 19:35:52.834";"2014-10-13 19:48:49.546";"1";"0";"0";;;"62";"61";"module.training_block2.exec-3411.GoNoGo2";;;;;;;;;;;;;;;;;;;;;;;;;;;;;;;;;;;"1251";"2014-10-13 19:39:37.012";"NST_correctLoc";"9";"0";"FINISHED";"LEFT";"success";"298";"0";"2014-10-13 19:39:35.760";"2";;;;;;;;;;;;;;;;;;;;;;;;;;;;;;;;;;;;;;;;;;;;;
"sophiefs";"1994";;"Mac OS X";"Rachel's Experiment (D.T.)";"1.0";"2";"1";"1";"2";"2";"2";"2014-10-13 19:35:52.834";"2014-10-13 19:48:49.546";"1";"0";"0";;;"63";"62";"module.training_block2.exec-3411.GoNoGo2";;;;;;;;;;;;;;;;;;;;;;;;;;;;;;;;;;;"1251";"2014-10-13 19:39:39.526";"NST_correctLoc";"24";"1";"FINISHED";"RIGHT";"success";"504";"0";"2014-10-13 19:39:38.275";"3";;;;;;;;;;;;;;;;;;;;;;;;;;;;;;;;;;;;;;;;;;;;;
"sophiefs";"1994";;"Mac OS X";"Rachel's Experiment (D.T.)";"1.0";"2";"1";"1";"2";"2";"2";"2014-10-13 19:35:52.834";"2014-10-13 19:48:49.546";"1";"0";"0";;;"64";"63";"module.training_block2.exec-3411.GoNoGo2";;;;;;;;;;;;;;;;;;;;;;;;;;;;;;;;;;;"1250";"2014-10-13 19:39:42.040";"NST_correctLoc";"2";"1";"FINISHED";"RIGHT";"success";"301";"0";"2014-10-13 19:39:40.789";"1";;;;;;;;;;;;;;;;;;;;;;;;;;;;;;;;;;;;;;;;;;;;;
"sophiefs";"1994";;"Mac OS X";"Rachel's Experiment (D.T.)";"1.0";"2";"1";"1";"2";"2";"2";"2014-10-13 19:35:52.834";"2014-10-13 19:48:49.546";"1";"0";"0";;;"65";"64";"module.training_block2.exec-3411.GoNoGo2";;;;;;;;;;;;;;;;;;;;;;;;;;;;;;;;;;;"1251";"2014-10-13 19:39:44.555";"NST_correctLoc";"33";"1";"FINISHED";"RIGHT";"success";"282";"0";"2014-10-13 19:39:43.304";"3";;;;;;;;;;;;;;;;;;;;;;;;;;;;;;;;;;;;;;;;;;;;;
"sophiefs";"1994";;"Mac OS X";"Rachel's Experiment (D.T.)";"1.0";"2";"1";"1";"2";"2";"2";"2014-10-13 19:35:52.834";"2014-10-13 19:48:49.546";"1";"0";"0";;;"66";"65";"module.training_block2.exec-3411.GoNoGo2";;;;;;;;;;;;;;;;;;;;;;;;;;;;;;;;;;;"1251";"2014-10-13 19:39:47.067";"NST_correctLoc";"16";"0";"FINISHED";"LEFT";"success";"434";"0";"2014-10-13 19:39:45.816";"2";;;;;;;;;;;;;;;;;;;;;;;;;;;;;;;;;;;;;;;;;;;;;
"sophiefs";"1994";;"Mac OS X";"Rachel's Experiment (D.T.)";"1.0";"2";"1";"1";"2";"2";"2";"2014-10-13 19:35:52.834";"2014-10-13 19:48:49.546";"1";"0";"0";;;"67";"66";"module.training_block2.exec-3411.GoNoGo2";;;;;;;;;;;;;;;;;;;;;;;;;;;;;;;;;;;"1251";"2014-10-13 19:39:49.581";"NST_correctLoc";"25";"0";"FINISHED";"LEFT";"success";"362";"0";"2014-10-13 19:39:48.329";"3";;;;;;;;;;;;;;;;;;;;;;;;;;;;;;;;;;;;;;;;;;;;;
"sophiefs";"1994";;"Mac OS X";"Rachel's Experiment (D.T.)";"1.0";"2";"1";"1";"2";"2";"2";"2014-10-13 19:35:52.834";"2014-10-13 19:48:49.546";"1";"0";"0";;;"68";"67";"module.training_block2.exec-3411.GoNoGo2";;;;;;;;;;;;;;;;;;;;;;;;;;;;;;;;;;;"1251";"2014-10-13 19:39:52.096";"NST_correctLoc";"30";"0";"FINISHED";"LEFT";"success";"327";"0";"2014-10-13 19:39:50.844";"3";;;;;;;;;;;;;;;;;;;;;;;;;;;;;;;;;;;;;;;;;;;;;
"sophiefs";"1994";;"Mac OS X";"Rachel's Experiment (D.T.)";"1.0";"2";"1";"1";"2";"2";"2";"2014-10-13 19:35:52.834";"2014-10-13 19:48:49.546";"1";"0";"0";;;"69";"68";"module.training_block2.exec-3411.GoNoGo2";;;;;;;;;;;;;;;;;;;;;;;;;;;;;;;;;;;"1251";"2014-10-13 19:39:54.611";"NST_correctLoc";"29";"1";"FINISHED";"RIGHT";"success";"323";"0";"2014-10-13 19:39:53.360";"3";;;;;;;;;;;;;;;;;;;;;;;;;;;;;;;;;;;;;;;;;;;;;
"sophiefs";"1994";;"Mac OS X";"Rachel's Experiment (D.T.)";"1.0";"2";"1";"1";"2";"2";"2";"2014-10-13 19:35:52.834";"2014-10-13 19:48:49.546";"1";"0";"0";;;"70";"69";"module.training_block2.exec-3411.GoNoGo2";;;;;;;;;;;;;;;;;;;;;;;;;;;;;;;;;;;"1250";"2014-10-13 19:39:57.123";"NST_correctLoc";"21";"1";"FINISHED";"RIGHT";"success";"482";"0";"2014-10-13 19:39:55.873";"3";;;;;;;;;;;;;;;;;;;;;;;;;;;;;;;;;;;;;;;;;;;;;
"sophiefs";"1994";;"Mac OS X";"Rachel's Experiment (D.T.)";"1.0";"2";"1";"1";"2";"2";"2";"2014-10-13 19:35:52.834";"2014-10-13 19:48:49.546";"1";"0";"0";;;"71";"70";"module.training_block2.exec-3411.GoNoGo2";;;;;;;;;;;;;;;;;;;;;;;;;;;;;;;;;;;"1251";"2014-10-13 19:39:59.638";"NST_correctLoc";"3";"0";"FINISHED";"LEFT";"success";"464";"0";"2014-10-13 19:39:58.387";"1";;;;;;;;;;;;;;;;;;;;;;;;;;;;;;;;;;;;;;;;;;;;;
"sophiefs";"1994";;"Mac OS X";"Rachel's Experiment (D.T.)";"1.0";"2";"1";"1";"2";"2";"2";"2014-10-13 19:35:52.834";"2014-10-13 19:48:49.546";"1";"0";"0";;;"72";"71";"module.training_block2.exec-3411.GoNoGo2";;;;;;;;;;;;;;;;;;;;;;;;;;;;;;;;;;;"1251";"2014-10-13 19:40:02.154";"NST_correctLoc";"26";"1";"FINISHED";"RIGHT";"success";"276";"0";"2014-10-13 19:40:00.903";"3";;;;;;;;;;;;;;;;;;;;;;;;;;;;;;;;;;;;;;;;;;;;;
"sophiefs";"1994";;"Mac OS X";"Rachel's Experiment (D.T.)";"1.0";"2";"1";"1";"2";"2";"2";"2014-10-13 19:35:52.834";"2014-10-13 19:48:49.546";"1";"0";"0";;;"73";"72";"module.training_block2.exec-3411.GoNoGo2";;;;;;;;;;;;;;;;;;;;;;;;;;;;;;;;;;;"1251";"2014-10-13 19:40:04.669";"NST_correctLoc";"27";"0";"FINISHED";"LEFT";"success";"313";"0";"2014-10-13 19:40:03.418";"3";;;;;;;;;;;;;;;;;;;;;;;;;;;;;;;;;;;;;;;;;;;;;
"sophiefs";"1994";;"Mac OS X";"Rachel's Experiment (D.T.)";"1.0";"2";"1";"1";"2";"2";"2";"2014-10-13 19:35:52.834";"2014-10-13 19:48:49.546";"1";"0";"0";;;"74";"73";"module.training_block2.exec-3411.GoNoGo2";;;;;;;;;;;;;;;;;;;;;;;;;;;;;;;;;;;"1251";"2014-10-13 19:40:07.181";"NST_correctLoc";"7";"0";"FINISHED";"LEFT";"success";"321";"0";"2014-10-13 19:40:05.930";"1";;;;;;;;;;;;;;;;;;;;;;;;;;;;;;;;;;;;;;;;;;;;;
"sophiefs";"1994";;"Mac OS X";"Rachel's Experiment (D.T.)";"1.0";"2";"1";"1";"2";"2";"2";"2014-10-13 19:35:52.834";"2014-10-13 19:48:49.546";"1";"0";"0";;;"75";"74";"module.training_block2.exec-3411.GoNoGo2";;;;;;;;;;;;;;;;;;;;;;;;;;;;;;;;;;;"1251";"2014-10-13 19:40:09.695";"NST_correctLoc";"13";"0";"FINISHED";"LEFT";"success";"336";"0";"2014-10-13 19:40:08.444";"2";;;;;;;;;;;;;;;;;;;;;;;;;;;;;;;;;;;;;;;;;;;;;
"sophiefs";"1994";;"Mac OS X";"Rachel's Experiment (D.T.)";"1.0";"2";"1";"1";"2";"2";"2";"2014-10-13 19:35:52.834";"2014-10-13 19:48:49.546";"1";"0";"0";;;"76";"75";"module.training_block2.exec-3411.GoNoGo2";;;;;;;;;;;;;;;;;;;;;;;;;;;;;;;;;;;"1251";"2014-10-13 19:40:12.213";"NST_correctLoc";"5";"1";"FINISHED";"RIGHT";"success";"306";"0";"2014-10-13 19:40:10.962";"1";;;;;;;;;;;;;;;;;;;;;;;;;;;;;;;;;;;;;;;;;;;;;
"sophiefs";"1994";;"Mac OS X";"Rachel's Experiment (D.T.)";"1.0";"2";"1";"1";"2";"2";"2";"2014-10-13 19:35:52.834";"2014-10-13 19:48:49.546";"1";"0";"0";;;"77";"76";"module.training_block2.exec-3411.GoNoGo2";;;;;;;;;;;;;;;;;;;;;;;;;;;;;;;;;;;"1250";"2014-10-13 19:40:14.728";"NST_correctLoc";"15";"0";"FINISHED";"LEFT";"success";"285";"0";"2014-10-13 19:40:13.478";"2";;;;;;;;;;;;;;;;;;;;;;;;;;;;;;;;;;;;;;;;;;;;;
"sophiefs";"1994";;"Mac OS X";"Rachel's Experiment (D.T.)";"1.0";"2";"1";"1";"2";"2";"2";"2014-10-13 19:35:52.834";"2014-10-13 19:48:49.546";"1";"0";"0";;;"78";"77";"module.training_block2.exec-3411.GoNoGo2";;;;;;;;;;;;;;;;;;;;;;;;;;;;;;;;;;;"1251";"2014-10-13 19:40:17.244";"NST_correctLoc";"35";"0";"FINISHED";"LEFT";"success";"283";"0";"2014-10-13 19:40:15.993";"3";;;;;;;;;;;;;;;;;;;;;;;;;;;;;;;;;;;;;;;;;;;;;
"sophiefs";"1994";;"Mac OS X";"Rachel's Experiment (D.T.)";"1.0";"2";"1";"1";"2";"2";"2";"2014-10-13 19:35:52.834";"2014-10-13 19:48:49.546";"1";"0";"0";;;"79";"78";"module.training_block2.exec-3411.GoNoGo2";;;;;;;;;;;;;;;;;;;;;;;;;;;;;;;;;;;"1251";"2014-10-13 19:40:19.756";"NST_correctLoc";"0";"1";"FINISHED";"RIGHT";"success";"251";"0";"2014-10-13 19:40:18.505";"1";;;;;;;;;;;;;;;;;;;;;;;;;;;;;;;;;;;;;;;;;;;;;
"sophiefs";"1994";;"Mac OS X";"Rachel's Experiment (D.T.)";"1.0";"2";"1";"1";"2";"2";"2";"2014-10-13 19:35:52.834";"2014-10-13 19:48:49.546";"1";"0";"0";;;"80";"79";"module.training_block2.exec-3411.GoNoGo2";;;;;;;;;;;;;;;;;;;;;;;;;;;;;;;;;;;"1250";"2014-10-13 19:40:22.271";"NST_correctLoc";"28";"1";"FINISHED";"RIGHT";"success";"312";"0";"2014-10-13 19:40:21.020";"3";;;;;;;;;;;;;;;;;;;;;;;;;;;;;;;;;;;;;;;;;;;;;
"sophiefs";"1994";;"Mac OS X";"Rachel's Experiment (D.T.)";"1.0";"2";"1";"1";"2";"2";"2";"2014-10-13 19:35:52.834";"2014-10-13 19:48:49.546";"1";"0";"0";;;"81";"80";"module.training_block2.exec-3411.GoNoGo2";;;;;;;;;;;;;;;;;;;;;;;;;;;;;;;;;;;"1250";"2014-10-13 19:40:24.786";"NST_correctLoc";"10";"0";"FINISHED";"LEFT";"success";"268";"0";"2014-10-13 19:40:23.535";"2";;;;;;;;;;;;;;;;;;;;;;;;;;;;;;;;;;;;;;;;;;;;;
"sophiefs";"1994";;"Mac OS X";"Rachel's Experiment (D.T.)";"1.0";"2";"1";"1";"2";"2";"2";"2014-10-13 19:35:52.834";"2014-10-13 19:48:49.546";"1";"0";"0";;;"82";"81";"module.training_block2.exec-3411.GoNoGo2";;;;;;;;;;;;;;;;;;;;;;;;;;;;;;;;;;;"1251";"2014-10-13 19:40:27.298";"NST_correctLoc";"6";"1";"FINISHED";"RIGHT";"success";"285";"0";"2014-10-13 19:40:26.047";"1";;;;;;;;;;;;;;;;;;;;;;;;;;;;;;;;;;;;;;;;;;;;;
"sophiefs";"1994";;"Mac OS X";"Rachel's Experiment (D.T.)";"1.0";"2";"1";"1";"2";"2";"2";"2014-10-13 19:35:52.834";"2014-10-13 19:48:49.546";"1";"0";"0";;;"83";"82";"module.training_block2.exec-3411.GoNoGo2";;;;;;;;;;;;;;;;;;;;;;;;;;;;;;;;;;;"1250";"2014-10-13 19:40:29.810";"NST_correctLoc";"12";"1";"FINISHED";"RIGHT";"success";"364";"0";"2014-10-13 19:40:28.559";"2";;;;;;;;;;;;;;;;;;;;;;;;;;;;;;;;;;;;;;;;;;;;;
"sophiefs";"1994";;"Mac OS X";"Rachel's Experiment (D.T.)";"1.0";"2";"1";"1";"2";"2";"2";"2014-10-13 19:35:52.834";"2014-10-13 19:48:49.546";"1";"0";"0";;;"84";"83";"module.training_block2.exec-3411.GoNoGo2";;;;;;;;;;;;;;;;;;;;;;;;;;;;;;;;;;;"1250";"2014-10-13 19:40:32.325";"NST_correctLoc";"20";"1";"FINISHED";"RIGHT";"success";"346";"0";"2014-10-13 19:40:31.074";"3";;;;;;;;;;;;;;;;;;;;;;;;;;;;;;;;;;;;;;;;;;;;;
"sophiefs";"1994";;"Mac OS X";"Rachel's Experiment (D.T.)";"1.0";"2";"1";"1";"2";"2";"2";"2014-10-13 19:35:52.834";"2014-10-13 19:48:49.546";"1";"0";"0";;;"85";"84";"module.training_block2.exec-3411.GoNoGo2";;;;;;;;;;;;;;;;;;;;;;;;;;;;;;;;;;;"1251";"2014-10-13 19:40:34.840";"NST_correctLoc";"11";"1";"FINISHED";"RIGHT";"success";"279";"0";"2014-10-13 19:40:33.589";"2";;;;;;;;;;;;;;;;;;;;;;;;;;;;;;;;;;;;;;;;;;;;;
"sophiefs";"1994";;"Mac OS X";"Rachel's Experiment (D.T.)";"1.0";"2";"1";"1";"2";"2";"2";"2014-10-13 19:35:52.834";"2014-10-13 19:48:49.546";"1";"0";"0";;;"86";"85";"module.training_block2.exec-3411.GoNoGo2";;;;;;;;;;;;;;;;;;;;;;;;;;;;;;;;;;;"1251";"2014-10-13 19:40:37.352";"NST_correctLoc";"34";"1";"FINISHED";"RIGHT";"success";"303";"0";"2014-10-13 19:40:36.101";"3";;;;;;;;;;;;;;;;;;;;;;;;;;;;;;;;;;;;;;;;;;;;;
"sophiefs";"1994";;"Mac OS X";"Rachel's Experiment (D.T.)";"1.0";"2";"1";"1";"2";"2";"2";"2014-10-13 19:35:52.834";"2014-10-13 19:48:49.546";"1";"0";"0";;;"87";"86";"module.training_block2.exec-3411.GoNoGo2";;;;;;;;;;;;;;;;;;;;;;;;;;;;;;;;;;;"1251";"2014-10-13 19:40:39.867";"NST_correctLoc";"17";"0";"FINISHED";"LEFT";"success";"317";"0";"2014-10-13 19:40:38.615";"2";;;;;;;;;;;;;;;;;;;;;;;;;;;;;;;;;;;;;;;;;;;;;
"sophiefs";"1994";;"Mac OS X";"Rachel's Experiment (D.T.)";"1.0";"2";"1";"1";"2";"2";"2";"2014-10-13 19:35:52.834";"2014-10-13 19:48:49.546";"1";"0";"0";;;"88";"87";"module.training_block3.exec-1986.GoNoGo3";;;;;;;;;;;;;;;;;;;;;;;;;;;;;;;;;;;;;;;;;;;;;;;"1251";"2014-10-13 19:40:50.619";"NST_correctLoc";"14";"1";"FINISHED";"RIGHT";"success";"350";"0";"2014-10-13 19:40:49.367";"2";;;;;;;;;;;;;;;;;;;;;;;;;;;;;;;;;
"sophiefs";"1994";;"Mac OS X";"Rachel's Experiment (D.T.)";"1.0";"2";"1";"1";"2";"2";"2";"2014-10-13 19:35:52.834";"2014-10-13 19:48:49.546";"1";"0";"0";;;"89";"88";"module.training_block3.exec-1986.GoNoGo3";;;;;;;;;;;;;;;;;;;;;;;;;;;;;;;;;;;;;;;;;;;;;;;"1251";"2014-10-13 19:40:53.135";"NST_correctLoc";"1";"1";"FINISHED";"RIGHT";"success";"401";"0";"2014-10-13 19:40:51.884";"1";;;;;;;;;;;;;;;;;;;;;;;;;;;;;;;;;
"sophiefs";"1994";;"Mac OS X";"Rachel's Experiment (D.T.)";"1.0";"2";"1";"1";"2";"2";"2";"2014-10-13 19:35:52.834";"2014-10-13 19:48:49.546";"1";"0";"0";;;"90";"89";"module.training_block3.exec-1986.GoNoGo3";;;;;;;;;;;;;;;;;;;;;;;;;;;;;;;;;;;;;;;;;;;;;;;"1250";"2014-10-13 19:40:55.650";"NST_correctLoc";"19";"1";"FINISHED";"RIGHT";"success";"301";"0";"2014-10-13 19:40:54.399";"3";;;;;;;;;;;;;;;;;;;;;;;;;;;;;;;;;
"sophiefs";"1994";;"Mac OS X";"Rachel's Experiment (D.T.)";"1.0";"2";"1";"1";"2";"2";"2";"2014-10-13 19:35:52.834";"2014-10-13 19:48:49.546";"1";"0";"0";;;"91";"90";"module.training_block3.exec-1986.GoNoGo3";;;;;;;;;;;;;;;;;;;;;;;;;;;;;;;;;;;;;;;;;;;;;;;"1250";"2014-10-13 19:40:58.161";"NST_correctLoc";"13";"0";"FINISHED";"LEFT";"success";"342";"0";"2014-10-13 19:40:56.910";"2";;;;;;;;;;;;;;;;;;;;;;;;;;;;;;;;;
"sophiefs";"1994";;"Mac OS X";"Rachel's Experiment (D.T.)";"1.0";"2";"1";"1";"2";"2";"2";"2014-10-13 19:35:52.834";"2014-10-13 19:48:49.546";"1";"0";"0";;;"92";"91";"module.training_block3.exec-1986.GoNoGo3";;;;;;;;;;;;;;;;;;;;;;;;;;;;;;;;;;;;;;;;;;;;;;;"1250";"2014-10-13 19:41:00.672";"NST_correctLoc";"33";"0";"FINISHED";"LEFT";"success";"391";"0";"2014-10-13 19:40:59.421";"3";;;;;;;;;;;;;;;;;;;;;;;;;;;;;;;;;
"sophiefs";"1994";;"Mac OS X";"Rachel's Experiment (D.T.)";"1.0";"2";"1";"1";"2";"2";"2";"2014-10-13 19:35:52.834";"2014-10-13 19:48:49.546";"1";"0";"0";;;"93";"92";"module.training_block3.exec-1986.GoNoGo3";;;;;;;;;;;;;;;;;;;;;;;;;;;;;;;;;;;;;;;;;;;;;;;"1251";"2014-10-13 19:41:03.187";"NST_correctLoc";"35";"1";"FINISHED";"RIGHT";"success";"501";"0";"2014-10-13 19:41:01.936";"3";;;;;;;;;;;;;;;;;;;;;;;;;;;;;;;;;
"sophiefs";"1994";;"Mac OS X";"Rachel's Experiment (D.T.)";"1.0";"2";"1";"1";"2";"2";"2";"2014-10-13 19:35:52.834";"2014-10-13 19:48:49.546";"1";"0";"0";;;"94";"93";"module.training_block3.exec-1986.GoNoGo3";;;;;;;;;;;;;;;;;;;;;;;;;;;;;;;;;;;;;;;;;;;;;;;"1250";"2014-10-13 19:41:05.701";"NST_correctLoc";"16";"1";"FINISHED";"RIGHT";"success";"307";"0";"2014-10-13 19:41:04.451";"2";;;;;;;;;;;;;;;;;;;;;;;;;;;;;;;;;
"sophiefs";"1994";;"Mac OS X";"Rachel's Experiment (D.T.)";"1.0";"2";"1";"1";"2";"2";"2";"2014-10-13 19:35:52.834";"2014-10-13 19:48:49.546";"1";"0";"0";;;"95";"94";"module.training_block3.exec-1986.GoNoGo3";;;;;;;;;;;;;;;;;;;;;;;;;;;;;;;;;;;;;;;;;;;;;;;"1250";"2014-10-13 19:41:08.213";"NST_correctLoc";"28";"0";"FINISHED";"LEFT";"success";"275";"0";"2014-10-13 19:41:06.962";"3";;;;;;;;;;;;;;;;;;;;;;;;;;;;;;;;;
"sophiefs";"1994";;"Mac OS X";"Rachel's Experiment (D.T.)";"1.0";"2";"1";"1";"2";"2";"2";"2014-10-13 19:35:52.834";"2014-10-13 19:48:49.546";"1";"0";"0";;;"96";"95";"module.training_block3.exec-1986.GoNoGo3";;;;;;;;;;;;;;;;;;;;;;;;;;;;;;;;;;;;;;;;;;;;;;;"1251";"2014-10-13 19:41:10.724";"NST_correctLoc";"7";"1";"FINISHED";"RIGHT";"success";"268";"0";"2014-10-13 19:41:09.473";"1";;;;;;;;;;;;;;;;;;;;;;;;;;;;;;;;;
"sophiefs";"1994";;"Mac OS X";"Rachel's Experiment (D.T.)";"1.0";"2";"1";"1";"2";"2";"2";"2014-10-13 19:35:52.834";"2014-10-13 19:48:49.546";"1";"0";"0";;;"97";"96";"module.training_block3.exec-1986.GoNoGo3";;;;;;;;;;;;;;;;;;;;;;;;;;;;;;;;;;;;;;;;;;;;;;;"1251";"2014-10-13 19:41:13.242";"NST_correctLoc";"27";"0";"FINISHED";"LEFT";"success";"255";"0";"2014-10-13 19:41:11.991";"3";;;;;;;;;;;;;;;;;;;;;;;;;;;;;;;;;
"sophiefs";"1994";;"Mac OS X";"Rachel's Experiment (D.T.)";"1.0";"2";"1";"1";"2";"2";"2";"2014-10-13 19:35:52.834";"2014-10-13 19:48:49.546";"1";"0";"0";;;"98";"97";"module.training_block3.exec-1986.GoNoGo3";;;;;;;;;;;;;;;;;;;;;;;;;;;;;;;;;;;;;;;;;;;;;;;"1251";"2014-10-13 19:41:15.757";"NST_correctLoc";"17";"1";"FINISHED";"RIGHT";"success";"348";"0";"2014-10-13 19:41:14.506";"2";;;;;;;;;;;;;;;;;;;;;;;;;;;;;;;;;
"sophiefs";"1994";;"Mac OS X";"Rachel's Experiment (D.T.)";"1.0";"2";"1";"1";"2";"2";"2";"2014-10-13 19:35:52.834";"2014-10-13 19:48:49.546";"1";"0";"0";;;"99";"98";"module.training_block3.exec-1986.GoNoGo3";;;;;;;;;;;;;;;;;;;;;;;;;;;;;;;;;;;;;;;;;;;;;;;"1250";"2014-10-13 19:41:18.269";"NST_correctLoc";"3";"0";"FINISHED";"LEFT";"success";"331";"0";"2014-10-13 19:41:17.018";"1";;;;;;;;;;;;;;;;;;;;;;;;;;;;;;;;;
"sophiefs";"1994";;"Mac OS X";"Rachel's Experiment (D.T.)";"1.0";"2";"1";"1";"2";"2";"2";"2014-10-13 19:35:52.834";"2014-10-13 19:48:49.546";"1";"0";"0";;;"100";"99";"module.training_block3.exec-1986.GoNoGo3";;;;;;;;;;;;;;;;;;;;;;;;;;;;;;;;;;;;;;;;;;;;;;;"1250";"2014-10-13 19:41:20.779";"NST_correctLoc";"24";"0";"FINISHED";"LEFT";"success";"284";"0";"2014-10-13 19:41:19.529";"3";;;;;;;;;;;;;;;;;;;;;;;;;;;;;;;;;
"sophiefs";"1994";;"Mac OS X";"Rachel's Experiment (D.T.)";"1.0";"2";"1";"1";"2";"2";"2";"2014-10-13 19:35:52.834";"2014-10-13 19:48:49.546";"1";"0";"0";;;"101";"100";"module.training_block3.exec-1986.GoNoGo3";;;;;;;;;;;;;;;;;;;;;;;;;;;;;;;;;;;;;;;;;;;;;;;"1250";"2014-10-13 19:41:23.292";"NST_correctLoc";"2";"0";"FINISHED";"LEFT";"success";"293";"0";"2014-10-13 19:41:22.041";"1";;;;;;;;;;;;;;;;;;;;;;;;;;;;;;;;;
"sophiefs";"1994";;"Mac OS X";"Rachel's Experiment (D.T.)";"1.0";"2";"1";"1";"2";"2";"2";"2014-10-13 19:35:52.834";"2014-10-13 19:48:49.546";"1";"0";"0";;;"102";"101";"module.training_block3.exec-1986.GoNoGo3";;;;;;;;;;;;;;;;;;;;;;;;;;;;;;;;;;;;;;;;;;;;;;;"1251";"2014-10-13 19:41:25.806";"NST_correctLoc";"22";"0";"FINISHED";"LEFT";"success";"515";"0";"2014-10-13 19:41:24.555";"3";;;;;;;;;;;;;;;;;;;;;;;;;;;;;;;;;
"sophiefs";"1994";;"Mac OS X";"Rachel's Experiment (D.T.)";"1.0";"2";"1";"1";"2";"2";"2";"2014-10-13 19:35:52.834";"2014-10-13 19:48:49.546";"1";"0";"0";;;"103";"102";"module.training_block3.exec-1986.GoNoGo3";;;;;;;;;;;;;;;;;;;;;;;;;;;;;;;;;;;;;;;;;;;;;;;"1250";"2014-10-13 19:41:28.319";"NST_correctLoc";"25";"1";"FINISHED";"RIGHT";"success";"329";"0";"2014-10-13 19:41:27.069";"3";;;;;;;;;;;;;;;;;;;;;;;;;;;;;;;;;
"sophiefs";"1994";;"Mac OS X";"Rachel's Experiment (D.T.)";"1.0";"2";"1";"1";"2";"2";"2";"2014-10-13 19:35:52.834";"2014-10-13 19:48:49.546";"1";"0";"0";;;"104";"103";"module.training_block3.exec-1986.GoNoGo3";;;;;;;;;;;;;;;;;;;;;;;;;;;;;;;;;;;;;;;;;;;;;;;"1250";"2014-10-13 19:41:30.831";"NST_correctLoc";"26";"0";"FINISHED";"LEFT";"success";"401";"0";"2014-10-13 19:41:29.581";"3";;;;;;;;;;;;;;;;;;;;;;;;;;;;;;;;;
"sophiefs";"1994";;"Mac OS X";"Rachel's Experiment (D.T.)";"1.0";"2";"1";"1";"2";"2";"2";"2014-10-13 19:35:52.834";"2014-10-13 19:48:49.546";"1";"0";"0";;;"105";"104";"module.training_block3.exec-1986.GoNoGo3";;;;;;;;;;;;;;;;;;;;;;;;;;;;;;;;;;;;;;;;;;;;;;;"1250";"2014-10-13 19:41:33.343";"NST_correctLoc";"10";"1";"FINISHED";"RIGHT";"success";"329";"0";"2014-10-13 19:41:32.093";"2";;;;;;;;;;;;;;;;;;;;;;;;;;;;;;;;;
"sophiefs";"1994";;"Mac OS X";"Rachel's Experiment (D.T.)";"1.0";"2";"1";"1";"2";"2";"2";"2014-10-13 19:35:52.834";"2014-10-13 19:48:49.546";"1";"0";"0";;;"106";"105";"module.training_block3.exec-1986.GoNoGo3";;;;;;;;;;;;;;;;;;;;;;;;;;;;;;;;;;;;;;;;;;;;;;;"1251";"2014-10-13 19:41:35.857";"NST_correctLoc";"5";"0";"FINISHED";"LEFT";"success";"248";"0";"2014-10-13 19:41:34.606";"1";;;;;;;;;;;;;;;;;;;;;;;;;;;;;;;;;
"sophiefs";"1994";;"Mac OS X";"Rachel's Experiment (D.T.)";"1.0";"2";"1";"1";"2";"2";"2";"2014-10-13 19:35:52.834";"2014-10-13 19:48:49.546";"1";"0";"0";;;"107";"106";"module.training_block3.exec-1986.GoNoGo3";;;;;;;;;;;;;;;;;;;;;;;;;;;;;;;;;;;;;;;;;;;;;;;"1251";"2014-10-13 19:41:38.372";"NST_correctLoc";"20";"1";"FINISHED";"RIGHT";"success";"373";"0";"2014-10-13 19:41:37.121";"3";;;;;;;;;;;;;;;;;;;;;;;;;;;;;;;;;
"sophiefs";"1994";;"Mac OS X";"Rachel's Experiment (D.T.)";"1.0";"2";"1";"1";"2";"2";"2";"2014-10-13 19:35:52.834";"2014-10-13 19:48:49.546";"1";"0";"0";;;"108";"107";"module.training_block3.exec-1986.GoNoGo3";;;;;;;;;;;;;;;;;;;;;;;;;;;;;;;;;;;;;;;;;;;;;;;"1251";"2014-10-13 19:41:40.884";"NST_correctLoc";"4";"1";"FINISHED";"RIGHT";"success";"301";"0";"2014-10-13 19:41:39.633";"1";;;;;;;;;;;;;;;;;;;;;;;;;;;;;;;;;
"sophiefs";"1994";;"Mac OS X";"Rachel's Experiment (D.T.)";"1.0";"2";"1";"1";"2";"2";"2";"2014-10-13 19:35:52.834";"2014-10-13 19:48:49.546";"1";"0";"0";;;"109";"108";"module.training_block3.exec-1986.GoNoGo3";;;;;;;;;;;;;;;;;;;;;;;;;;;;;;;;;;;;;;;;;;;;;;;"1250";"2014-10-13 19:41:43.395";"NST_correctLoc";"9";"0";"FINISHED";"LEFT";"success";"278";"0";"2014-10-13 19:41:42.145";"2";;;;;;;;;;;;;;;;;;;;;;;;;;;;;;;;;
"sophiefs";"1994";;"Mac OS X";"Rachel's Experiment (D.T.)";"1.0";"2";"1";"1";"2";"2";"2";"2014-10-13 19:35:52.834";"2014-10-13 19:48:49.546";"1";"0";"0";;;"110";"109";"module.training_block3.exec-1986.GoNoGo3";;;;;;;;;;;;;;;;;;;;;;;;;;;;;;;;;;;;;;;;;;;;;;;"1250";"2014-10-13 19:41:45.909";"NST_correctLoc";"31";"1";"FINISHED";"RIGHT";"success";"324";"0";"2014-10-13 19:41:44.659";"3";;;;;;;;;;;;;;;;;;;;;;;;;;;;;;;;;
"sophiefs";"1994";;"Mac OS X";"Rachel's Experiment (D.T.)";"1.0";"2";"1";"1";"2";"2";"2";"2014-10-13 19:35:52.834";"2014-10-13 19:48:49.546";"1";"0";"0";;;"111";"110";"module.training_block3.exec-1986.GoNoGo3";;;;;;;;;;;;;;;;;;;;;;;;;;;;;;;;;;;;;;;;;;;;;;;"1251";"2014-10-13 19:41:48.424";"NST_correctLoc";"32";"0";"FINISHED";"LEFT";"success";"257";"0";"2014-10-13 19:41:47.173";"3";;;;;;;;;;;;;;;;;;;;;;;;;;;;;;;;;
"sophiefs";"1994";;"Mac OS X";"Rachel's Experiment (D.T.)";"1.0";"2";"1";"1";"2";"2";"2";"2014-10-13 19:35:52.834";"2014-10-13 19:48:49.546";"1";"0";"0";;;"112";"111";"module.training_block3.exec-1986.GoNoGo3";;;;;;;;;;;;;;;;;;;;;;;;;;;;;;;;;;;;;;;;;;;;;;;"1251";"2014-10-13 19:41:50.936";"NST_correctLoc";"12";"0";"FINISHED";"LEFT";"success";"458";"0";"2014-10-13 19:41:49.685";"2";;;;;;;;;;;;;;;;;;;;;;;;;;;;;;;;;
"sophiefs";"1994";;"Mac OS X";"Rachel's Experiment (D.T.)";"1.0";"2";"1";"1";"2";"2";"2";"2014-10-13 19:35:52.834";"2014-10-13 19:48:49.546";"1";"0";"0";;;"113";"112";"module.training_block3.exec-1986.GoNoGo3";;;;;;;;;;;;;;;;;;;;;;;;;;;;;;;;;;;;;;;;;;;;;;;"1249";"2014-10-13 19:41:53.712";"NST_correctLoc";"23";"0";"FINISHED";"LEFT";"success";"344";"0";"2014-10-13 19:41:52.462";"3";;;;;;;;;;;;;;;;;;;;;;;;;;;;;;;;;
"sophiefs";"1994";;"Mac OS X";"Rachel's Experiment (D.T.)";"1.0";"2";"1";"1";"2";"2";"2";"2014-10-13 19:35:52.834";"2014-10-13 19:48:49.546";"1";"0";"0";;;"114";"113";"module.training_block3.exec-1986.GoNoGo3";;;;;;;;;;;;;;;;;;;;;;;;;;;;;;;;;;;;;;;;;;;;;;;"1251";"2014-10-13 19:41:56.227";"NST_wrongLoc";"11";"1";"FINISHED";"LEFT";"failure";"288";"0";"2014-10-13 19:41:54.975";"2";;;;;;;;;;;;;;;;;;;;;;;;;;;;;;;;;
"sophiefs";"1994";;"Mac OS X";"Rachel's Experiment (D.T.)";"1.0";"2";"1";"1";"2";"2";"2";"2014-10-13 19:35:52.834";"2014-10-13 19:48:49.546";"1";"0";"0";;;"115";"114";"module.training_block3.exec-1986.GoNoGo3";;;;;;;;;;;;;;;;;;;;;;;;;;;;;;;;;;;;;;;;;;;;;;;"1250";"2014-10-13 19:41:58.741";"NST_correctLoc";"15";"0";"FINISHED";"LEFT";"success";"316";"0";"2014-10-13 19:41:57.491";"2";;;;;;;;;;;;;;;;;;;;;;;;;;;;;;;;;
"sophiefs";"1994";;"Mac OS X";"Rachel's Experiment (D.T.)";"1.0";"2";"1";"1";"2";"2";"2";"2014-10-13 19:35:52.834";"2014-10-13 19:48:49.546";"1";"0";"0";;;"116";"115";"module.training_block3.exec-1986.GoNoGo3";;;;;;;;;;;;;;;;;;;;;;;;;;;;;;;;;;;;;;;;;;;;;;;"1251";"2014-10-13 19:42:01.252";"NST_correctLoc";"0";"0";"FINISHED";"LEFT";"success";"294";"0";"2014-10-13 19:42:00.001";"1";;;;;;;;;;;;;;;;;;;;;;;;;;;;;;;;;
"sophiefs";"1994";;"Mac OS X";"Rachel's Experiment (D.T.)";"1.0";"2";"1";"1";"2";"2";"2";"2014-10-13 19:35:52.834";"2014-10-13 19:48:49.546";"1";"0";"0";;;"117";"116";"module.training_block3.exec-1986.GoNoGo3";;;;;;;;;;;;;;;;;;;;;;;;;;;;;;;;;;;;;;;;;;;;;;;"1251";"2014-10-13 19:42:03.764";"NST_correctLoc";"18";"0";"FINISHED";"LEFT";"success";"318";"0";"2014-10-13 19:42:02.513";"3";;;;;;;;;;;;;;;;;;;;;;;;;;;;;;;;;
"sophiefs";"1994";;"Mac OS X";"Rachel's Experiment (D.T.)";"1.0";"2";"1";"1";"2";"2";"2";"2014-10-13 19:35:52.834";"2014-10-13 19:48:49.546";"1";"0";"0";;;"118";"117";"module.training_block3.exec-1986.GoNoGo3";;;;;;;;;;;;;;;;;;;;;;;;;;;;;;;;;;;;;;;;;;;;;;;"1250";"2014-10-13 19:42:06.278";"NST_correctLoc";"30";"0";"FINISHED";"LEFT";"success";"308";"0";"2014-10-13 19:42:05.027";"3";;;;;;;;;;;;;;;;;;;;;;;;;;;;;;;;;
"sophiefs";"1994";;"Mac OS X";"Rachel's Experiment (D.T.)";"1.0";"2";"1";"1";"2";"2";"2";"2014-10-13 19:35:52.834";"2014-10-13 19:48:49.546";"1";"0";"0";;;"119";"118";"module.training_block3.exec-1986.GoNoGo3";;;;;;;;;;;;;;;;;;;;;;;;;;;;;;;;;;;;;;;;;;;;;;;"1249";"2014-10-13 19:42:08.792";"NST_correctLoc";"34";"0";"FINISHED";"LEFT";"success";"297";"0";"2014-10-13 19:42:07.542";"3";;;;;;;;;;;;;;;;;;;;;;;;;;;;;;;;;
"sophiefs";"1994";;"Mac OS X";"Rachel's Experiment (D.T.)";"1.0";"2";"1";"1";"2";"2";"2";"2014-10-13 19:35:52.834";"2014-10-13 19:48:49.546";"1";"0";"0";;;"120";"119";"module.training_block3.exec-1986.GoNoGo3";;;;;;;;;;;;;;;;;;;;;;;;;;;;;;;;;;;;;;;;;;;;;;;"1250";"2014-10-13 19:42:11.302";"NST_correctLoc";"21";"0";"FINISHED";"LEFT";"success";"283";"0";"2014-10-13 19:42:10.052";"3";;;;;;;;;;;;;;;;;;;;;;;;;;;;;;;;;
"sophiefs";"1994";;"Mac OS X";"Rachel's Experiment (D.T.)";"1.0";"2";"1";"1";"2";"2";"2";"2014-10-13 19:35:52.834";"2014-10-13 19:48:49.546";"1";"0";"0";;;"121";"120";"module.training_block3.exec-1986.GoNoGo3";;;;;;;;;;;;;;;;;;;;;;;;;;;;;;;;;;;;;;;;;;;;;;;"1250";"2014-10-13 19:42:13.815";"NST_correctLoc";"6";"1";"FINISHED";"RIGHT";"success";"290";"0";"2014-10-13 19:42:12.565";"1";;;;;;;;;;;;;;;;;;;;;;;;;;;;;;;;;
"sophiefs";"1994";;"Mac OS X";"Rachel's Experiment (D.T.)";"1.0";"2";"1";"1";"2";"2";"2";"2014-10-13 19:35:52.834";"2014-10-13 19:48:49.546";"1";"0";"0";;;"122";"121";"module.training_block3.exec-1986.GoNoGo3";;;;;;;;;;;;;;;;;;;;;;;;;;;;;;;;;;;;;;;;;;;;;;;"1251";"2014-10-13 19:42:16.329";"NST_correctLoc";"8";"0";"FINISHED";"LEFT";"success";"306";"0";"2014-10-13 19:42:15.078";"1";;;;;;;;;;;;;;;;;;;;;;;;;;;;;;;;;
"sophiefs";"1994";;"Mac OS X";"Rachel's Experiment (D.T.)";"1.0";"2";"1";"1";"2";"2";"2";"2014-10-13 19:35:52.834";"2014-10-13 19:48:49.546";"1";"0";"0";;;"123";"122";"module.training_block3.exec-1986.GoNoGo3";;;;;;;;;;;;;;;;;;;;;;;;;;;;;;;;;;;;;;;;;;;;;;;"1250";"2014-10-13 19:42:18.842";"NST_correctLoc";"29";"0";"FINISHED";"LEFT";"success";"328";"0";"2014-10-13 19:42:17.592";"3";;;;;;;;;;;;;;;;;;;;;;;;;;;;;;;;;
"sophiefs";"1994";;"Mac OS X";"Rachel's Experiment (D.T.)";"1.0";"2";"1";"1";"2";"2";"2";"2014-10-13 19:35:52.834";"2014-10-13 19:48:49.546";"1";"0";"0";;;"124";"123";"module.training_block4.exec-6212.GoNoGo4";;;;;;;;;;;;;;;;;;;;;;;;;;;;;;;;;;;;;;;;;;;;;;;;;;;;;;;;;;;"1251";"2014-10-13 19:42:29.679";"NST_correctLoc";"23";"1";"FINISHED";"RIGHT";"success";"324";"0";"2014-10-13 19:42:28.427";"3";;;;;;;;;;;;;;;;;;;;;
"sophiefs";"1994";;"Mac OS X";"Rachel's Experiment (D.T.)";"1.0";"2";"1";"1";"2";"2";"2";"2014-10-13 19:35:52.834";"2014-10-13 19:48:49.546";"1";"0";"0";;;"125";"124";"module.training_block4.exec-6212.GoNoGo4";;;;;;;;;;;;;;;;;;;;;;;;;;;;;;;;;;;;;;;;;;;;;;;;;;;;;;;;;;;"1250";"2014-10-13 19:42:32.189";"NST_correctLoc";"29";"0";"FINISHED";"LEFT";"success";"293";"0";"2014-10-13 19:42:30.939";"3";;;;;;;;;;;;;;;;;;;;;
"sophiefs";"1994";;"Mac OS X";"Rachel's Experiment (D.T.)";"1.0";"2";"1";"1";"2";"2";"2";"2014-10-13 19:35:52.834";"2014-10-13 19:48:49.546";"1";"0";"0";;;"126";"125";"module.training_block4.exec-6212.GoNoGo4";;;;;;;;;;;;;;;;;;;;;;;;;;;;;;;;;;;;;;;;;;;;;;;;;;;;;;;;;;;"1251";"2014-10-13 19:42:34.700";"NST_correctLoc";"13";"1";"FINISHED";"RIGHT";"success";"327";"0";"2014-10-13 19:42:33.449";"2";;;;;;;;;;;;;;;;;;;;;
"sophiefs";"1994";;"Mac OS X";"Rachel's Experiment (D.T.)";"1.0";"2";"1";"1";"2";"2";"2";"2014-10-13 19:35:52.834";"2014-10-13 19:48:49.546";"1";"0";"0";;;"127";"126";"module.training_block4.exec-6212.GoNoGo4";;;;;;;;;;;;;;;;;;;;;;;;;;;;;;;;;;;;;;;;;;;;;;;;;;;;;;;;;;;"1251";"2014-10-13 19:42:37.214";"NST_correctLoc";"24";"0";"FINISHED";"LEFT";"success";"286";"0";"2014-10-13 19:42:35.962";"3";;;;;;;;;;;;;;;;;;;;;
"sophiefs";"1994";;"Mac OS X";"Rachel's Experiment (D.T.)";"1.0";"2";"1";"1";"2";"2";"2";"2014-10-13 19:35:52.834";"2014-10-13 19:48:49.546";"1";"0";"0";;;"128";"127";"module.training_block4.exec-6212.GoNoGo4";;;;;;;;;;;;;;;;;;;;;;;;;;;;;;;;;;;;;;;;;;;;;;;;;;;;;;;;;;;"1250";"2014-10-13 19:42:39.726";"NST_correctLoc";"5";"1";"FINISHED";"RIGHT";"success";"300";"0";"2014-10-13 19:42:38.476";"1";;;;;;;;;;;;;;;;;;;;;
"sophiefs";"1994";;"Mac OS X";"Rachel's Experiment (D.T.)";"1.0";"2";"1";"1";"2";"2";"2";"2014-10-13 19:35:52.834";"2014-10-13 19:48:49.546";"1";"0";"0";;;"129";"128";"module.training_block4.exec-6212.GoNoGo4";;;;;;;;;;;;;;;;;;;;;;;;;;;;;;;;;;;;;;;;;;;;;;;;;;;;;;;;;;;"1250";"2014-10-13 19:42:42.238";"NST_correctLoc";"8";"0";"FINISHED";"LEFT";"success";"269";"0";"2014-10-13 19:42:40.987";"1";;;;;;;;;;;;;;;;;;;;;
"sophiefs";"1994";;"Mac OS X";"Rachel's Experiment (D.T.)";"1.0";"2";"1";"1";"2";"2";"2";"2014-10-13 19:35:52.834";"2014-10-13 19:48:49.546";"1";"0";"0";;;"130";"129";"module.training_block4.exec-6212.GoNoGo4";;;;;;;;;;;;;;;;;;;;;;;;;;;;;;;;;;;;;;;;;;;;;;;;;;;;;;;;;;;"1251";"2014-10-13 19:42:44.749";"NST_correctLoc";"11";"1";"FINISHED";"RIGHT";"success";"279";"0";"2014-10-13 19:42:43.497";"2";;;;;;;;;;;;;;;;;;;;;
"sophiefs";"1994";;"Mac OS X";"Rachel's Experiment (D.T.)";"1.0";"2";"1";"1";"2";"2";"2";"2014-10-13 19:35:52.834";"2014-10-13 19:48:49.546";"1";"0";"0";;;"131";"130";"module.training_block4.exec-6212.GoNoGo4";;;;;;;;;;;;;;;;;;;;;;;;;;;;;;;;;;;;;;;;;;;;;;;;;;;;;;;;;;;"1251";"2014-10-13 19:42:47.263";"NST_correctLoc";"27";"0";"FINISHED";"LEFT";"success";"317";"0";"2014-10-13 19:42:46.012";"3";;;;;;;;;;;;;;;;;;;;;
"sophiefs";"1994";;"Mac OS X";"Rachel's Experiment (D.T.)";"1.0";"2";"1";"1";"2";"2";"2";"2014-10-13 19:35:52.834";"2014-10-13 19:48:49.546";"1";"0";"0";;;"132";"131";"module.training_block4.exec-6212.GoNoGo4";;;;;;;;;;;;;;;;;;;;;;;;;;;;;;;;;;;;;;;;;;;;;;;;;;;;;;;;;;;"1251";"2014-10-13 19:42:49.777";"NST_correctLoc";"26";"1";"FINISHED";"RIGHT";"success";"291";"0";"2014-10-13 19:42:48.526";"3";;;;;;;;;;;;;;;;;;;;;
"sophiefs";"1994";;"Mac OS X";"Rachel's Experiment (D.T.)";"1.0";"2";"1";"1";"2";"2";"2";"2014-10-13 19:35:52.834";"2014-10-13 19:48:49.546";"1";"0";"0";;;"133";"132";"module.training_block4.exec-6212.GoNoGo4";;;;;;;;;;;;;;;;;;;;;;;;;;;;;;;;;;;;;;;;;;;;;;;;;;;;;;;;;;;"1250";"2014-10-13 19:42:52.288";"NST_correctLoc";"31";"0";"FINISHED";"LEFT";"success";"323";"0";"2014-10-13 19:42:51.038";"3";;;;;;;;;;;;;;;;;;;;;
"sophiefs";"1994";;"Mac OS X";"Rachel's Experiment (D.T.)";"1.0";"2";"1";"1";"2";"2";"2";"2014-10-13 19:35:52.834";"2014-10-13 19:48:49.546";"1";"0";"0";;;"134";"133";"module.training_block4.exec-6212.GoNoGo4";;;;;;;;;;;;;;;;;;;;;;;;;;;;;;;;;;;;;;;;;;;;;;;;;;;;;;;;;;;"1251";"2014-10-13 19:42:54.799";"NST_correctLoc";"17";"1";"FINISHED";"RIGHT";"success";"357";"0";"2014-10-13 19:42:53.547";"2";;;;;;;;;;;;;;;;;;;;;
"sophiefs";"1994";;"Mac OS X";"Rachel's Experiment (D.T.)";"1.0";"2";"1";"1";"2";"2";"2";"2014-10-13 19:35:52.834";"2014-10-13 19:48:49.546";"1";"0";"0";;;"135";"134";"module.training_block4.exec-6212.GoNoGo4";;;;;;;;;;;;;;;;;;;;;;;;;;;;;;;;;;;;;;;;;;;;;;;;;;;;;;;;;;;"1250";"2014-10-13 19:42:57.312";"NST_correctLoc";"30";"0";"FINISHED";"LEFT";"success";"323";"0";"2014-10-13 19:42:56.061";"3";;;;;;;;;;;;;;;;;;;;;
"sophiefs";"1994";;"Mac OS X";"Rachel's Experiment (D.T.)";"1.0";"2";"1";"1";"2";"2";"2";"2014-10-13 19:35:52.834";"2014-10-13 19:48:49.546";"1";"0";"0";;;"136";"135";"module.training_block4.exec-6212.GoNoGo4";;;;;;;;;;;;;;;;;;;;;;;;;;;;;;;;;;;;;;;;;;;;;;;;;;;;;;;;;;;"1250";"2014-10-13 19:42:59.824";"NST_correctLoc";"28";"0";"FINISHED";"LEFT";"success";"339";"0";"2014-10-13 19:42:58.574";"3";;;;;;;;;;;;;;;;;;;;;
"sophiefs";"1994";;"Mac OS X";"Rachel's Experiment (D.T.)";"1.0";"2";"1";"1";"2";"2";"2";"2014-10-13 19:35:52.834";"2014-10-13 19:48:49.546";"1";"0";"0";;;"137";"136";"module.training_block4.exec-6212.GoNoGo4";;;;;;;;;;;;;;;;;;;;;;;;;;;;;;;;;;;;;;;;;;;;;;;;;;;;;;;;;;;"1251";"2014-10-13 19:43:02.337";"NST_correctLoc";"7";"0";"FINISHED";"LEFT";"success";"339";"0";"2014-10-13 19:43:01.086";"1";;;;;;;;;;;;;;;;;;;;;
"sophiefs";"1994";;"Mac OS X";"Rachel's Experiment (D.T.)";"1.0";"2";"1";"1";"2";"2";"2";"2014-10-13 19:35:52.834";"2014-10-13 19:48:49.546";"1";"0";"0";;;"138";"137";"module.training_block4.exec-6212.GoNoGo4";;;;;;;;;;;;;;;;;;;;;;;;;;;;;;;;;;;;;;;;;;;;;;;;;;;;;;;;;;;"1250";"2014-10-13 19:43:04.848";"NST_correctLoc";"18";"0";"FINISHED";"LEFT";"success";"324";"0";"2014-10-13 19:43:03.597";"3";;;;;;;;;;;;;;;;;;;;;
"sophiefs";"1994";;"Mac OS X";"Rachel's Experiment (D.T.)";"1.0";"2";"1";"1";"2";"2";"2";"2014-10-13 19:35:52.834";"2014-10-13 19:48:49.546";"1";"0";"0";;;"139";"138";"module.training_block4.exec-6212.GoNoGo4";;;;;;;;;;;;;;;;;;;;;;;;;;;;;;;;;;;;;;;;;;;;;;;;;;;;;;;;;;;"1251";"2014-10-13 19:43:07.362";"NST_correctLoc";"22";"0";"FINISHED";"LEFT";"success";"299";"0";"2014-10-13 19:43:06.111";"3";;;;;;;;;;;;;;;;;;;;;
"sophiefs";"1994";;"Mac OS X";"Rachel's Experiment (D.T.)";"1.0";"2";"1";"1";"2";"2";"2";"2014-10-13 19:35:52.834";"2014-10-13 19:48:49.546";"1";"0";"0";;;"140";"139";"module.training_block4.exec-6212.GoNoGo4";;;;;;;;;;;;;;;;;;;;;;;;;;;;;;;;;;;;;;;;;;;;;;;;;;;;;;;;;;;"1251";"2014-10-13 19:43:09.875";"NST_correctLoc";"1";"0";"FINISHED";"LEFT";"success";"338";"0";"2014-10-13 19:43:08.624";"1";;;;;;;;;;;;;;;;;;;;;
"sophiefs";"1994";;"Mac OS X";"Rachel's Experiment (D.T.)";"1.0";"2";"1";"1";"2";"2";"2";"2014-10-13 19:35:52.834";"2014-10-13 19:48:49.546";"1";"0";"0";;;"141";"140";"module.training_block4.exec-6212.GoNoGo4";;;;;;;;;;;;;;;;;;;;;;;;;;;;;;;;;;;;;;;;;;;;;;;;;;;;;;;;;;;"1251";"2014-10-13 19:43:12.386";"NST_correctLoc";"14";"1";"FINISHED";"RIGHT";"success";"338";"0";"2014-10-13 19:43:11.135";"2";;;;;;;;;;;;;;;;;;;;;
"sophiefs";"1994";;"Mac OS X";"Rachel's Experiment (D.T.)";"1.0";"2";"1";"1";"2";"2";"2";"2014-10-13 19:35:52.834";"2014-10-13 19:48:49.546";"1";"0";"0";;;"142";"141";"module.training_block4.exec-6212.GoNoGo4";;;;;;;;;;;;;;;;;;;;;;;;;;;;;;;;;;;;;;;;;;;;;;;;;;;;;;;;;;;"1249";"2014-10-13 19:43:14.897";"NST_correctLoc";"33";"1";"FINISHED";"RIGHT";"success";"402";"0";"2014-10-13 19:43:13.647";"3";;;;;;;;;;;;;;;;;;;;;
"sophiefs";"1994";;"Mac OS X";"Rachel's Experiment (D.T.)";"1.0";"2";"1";"1";"2";"2";"2";"2014-10-13 19:35:52.834";"2014-10-13 19:48:49.546";"1";"0";"0";;;"143";"142";"module.training_block4.exec-6212.GoNoGo4";;;;;;;;;;;;;;;;;;;;;;;;;;;;;;;;;;;;;;;;;;;;;;;;;;;;;;;;;;;"1250";"2014-10-13 19:43:17.411";"NST_correctLoc";"21";"0";"FINISHED";"LEFT";"success";"265";"0";"2014-10-13 19:43:16.160";"3";;;;;;;;;;;;;;;;;;;;;
"sophiefs";"1994";;"Mac OS X";"Rachel's Experiment (D.T.)";"1.0";"2";"1";"1";"2";"2";"2";"2014-10-13 19:35:52.834";"2014-10-13 19:48:49.546";"1";"0";"0";;;"144";"143";"module.training_block4.exec-6212.GoNoGo4";;;;;;;;;;;;;;;;;;;;;;;;;;;;;;;;;;;;;;;;;;;;;;;;;;;;;;;;;;;"1251";"2014-10-13 19:43:19.928";"NST_correctLoc";"0";"0";"FINISHED";"LEFT";"success";"309";"0";"2014-10-13 19:43:18.676";"1";;;;;;;;;;;;;;;;;;;;;
"sophiefs";"1994";;"Mac OS X";"Rachel's Experiment (D.T.)";"1.0";"2";"1";"1";"2";"2";"2";"2014-10-13 19:35:52.834";"2014-10-13 19:48:49.546";"1";"0";"0";;;"145";"144";"module.training_block4.exec-6212.GoNoGo4";;;;;;;;;;;;;;;;;;;;;;;;;;;;;;;;;;;;;;;;;;;;;;;;;;;;;;;;;;;"1251";"2014-10-13 19:43:22.441";"NST_correctLoc";"12";"1";"FINISHED";"RIGHT";"success";"340";"0";"2014-10-13 19:43:21.189";"2";;;;;;;;;;;;;;;;;;;;;
"sophiefs";"1994";;"Mac OS X";"Rachel's Experiment (D.T.)";"1.0";"2";"1";"1";"2";"2";"2";"2014-10-13 19:35:52.834";"2014-10-13 19:48:49.546";"1";"0";"0";;;"146";"145";"module.training_block4.exec-6212.GoNoGo4";;;;;;;;;;;;;;;;;;;;;;;;;;;;;;;;;;;;;;;;;;;;;;;;;;;;;;;;;;;"1250";"2014-10-13 19:43:24.951";"NST_correctLoc";"3";"0";"FINISHED";"LEFT";"success";"453";"0";"2014-10-13 19:43:23.701";"1";;;;;;;;;;;;;;;;;;;;;
"sophiefs";"1994";;"Mac OS X";"Rachel's Experiment (D.T.)";"1.0";"2";"1";"1";"2";"2";"2";"2014-10-13 19:35:52.834";"2014-10-13 19:48:49.546";"1";"0";"0";;;"147";"146";"module.training_block4.exec-6212.GoNoGo4";;;;;;;;;;;;;;;;;;;;;;;;;;;;;;;;;;;;;;;;;;;;;;;;;;;;;;;;;;;"1250";"2014-10-13 19:43:27.463";"NST_correctLoc";"2";"1";"FINISHED";"RIGHT";"success";"325";"0";"2014-10-13 19:43:26.213";"1";;;;;;;;;;;;;;;;;;;;;
"sophiefs";"1994";;"Mac OS X";"Rachel's Experiment (D.T.)";"1.0";"2";"1";"1";"2";"2";"2";"2014-10-13 19:35:52.834";"2014-10-13 19:48:49.546";"1";"0";"0";;;"148";"147";"module.training_block4.exec-6212.GoNoGo4";;;;;;;;;;;;;;;;;;;;;;;;;;;;;;;;;;;;;;;;;;;;;;;;;;;;;;;;;;;"1250";"2014-10-13 19:43:29.978";"NST_correctLoc";"10";"0";"FINISHED";"LEFT";"success";"267";"0";"2014-10-13 19:43:28.727";"2";;;;;;;;;;;;;;;;;;;;;
"sophiefs";"1994";;"Mac OS X";"Rachel's Experiment (D.T.)";"1.0";"2";"1";"1";"2";"2";"2";"2014-10-13 19:35:52.834";"2014-10-13 19:48:49.546";"1";"0";"0";;;"149";"148";"module.training_block4.exec-6212.GoNoGo4";;;;;;;;;;;;;;;;;;;;;;;;;;;;;;;;;;;;;;;;;;;;;;;;;;;;;;;;;;;"1251";"2014-10-13 19:43:32.491";"NST_correctLoc";"34";"1";"FINISHED";"RIGHT";"success";"338";"0";"2014-10-13 19:43:31.240";"3";;;;;;;;;;;;;;;;;;;;;
"sophiefs";"1994";;"Mac OS X";"Rachel's Experiment (D.T.)";"1.0";"2";"1";"1";"2";"2";"2";"2014-10-13 19:35:52.834";"2014-10-13 19:48:49.546";"1";"0";"0";;;"150";"149";"module.training_block4.exec-6212.GoNoGo4";;;;;;;;;;;;;;;;;;;;;;;;;;;;;;;;;;;;;;;;;;;;;;;;;;;;;;;;;;;"1251";"2014-10-13 19:43:35.002";"NST_correctLoc";"32";"1";"FINISHED";"RIGHT";"success";"331";"0";"2014-10-13 19:43:33.751";"3";;;;;;;;;;;;;;;;;;;;;
"sophiefs";"1994";;"Mac OS X";"Rachel's Experiment (D.T.)";"1.0";"2";"1";"1";"2";"2";"2";"2014-10-13 19:35:52.834";"2014-10-13 19:48:49.546";"1";"0";"0";;;"151";"150";"module.training_block4.exec-6212.GoNoGo4";;;;;;;;;;;;;;;;;;;;;;;;;;;;;;;;;;;;;;;;;;;;;;;;;;;;;;;;;;;"1251";"2014-10-13 19:43:37.513";"NST_correctLoc";"35";"1";"FINISHED";"RIGHT";"success";"308";"0";"2014-10-13 19:43:36.262";"3";;;;;;;;;;;;;;;;;;;;;
"sophiefs";"1994";;"Mac OS X";"Rachel's Experiment (D.T.)";"1.0";"2";"1";"1";"2";"2";"2";"2014-10-13 19:35:52.834";"2014-10-13 19:48:49.546";"1";"0";"0";;;"152";"151";"module.training_block4.exec-6212.GoNoGo4";;;;;;;;;;;;;;;;;;;;;;;;;;;;;;;;;;;;;;;;;;;;;;;;;;;;;;;;;;;"1250";"2014-10-13 19:43:40.027";"NST_correctLoc";"25";"0";"FINISHED";"LEFT";"success";"498";"0";"2014-10-13 19:43:38.776";"3";;;;;;;;;;;;;;;;;;;;;
"sophiefs";"1994";;"Mac OS X";"Rachel's Experiment (D.T.)";"1.0";"2";"1";"1";"2";"2";"2";"2014-10-13 19:35:52.834";"2014-10-13 19:48:49.546";"1";"0";"0";;;"153";"152";"module.training_block4.exec-6212.GoNoGo4";;;;;;;;;;;;;;;;;;;;;;;;;;;;;;;;;;;;;;;;;;;;;;;;;;;;;;;;;;;"1251";"2014-10-13 19:43:42.541";"NST_correctLoc";"4";"0";"FINISHED";"LEFT";"success";"312";"0";"2014-10-13 19:43:41.290";"1";;;;;;;;;;;;;;;;;;;;;
"sophiefs";"1994";;"Mac OS X";"Rachel's Experiment (D.T.)";"1.0";"2";"1";"1";"2";"2";"2";"2014-10-13 19:35:52.834";"2014-10-13 19:48:49.546";"1";"0";"0";;;"154";"153";"module.training_block4.exec-6212.GoNoGo4";;;;;;;;;;;;;;;;;;;;;;;;;;;;;;;;;;;;;;;;;;;;;;;;;;;;;;;;;;;"1250";"2014-10-13 19:43:45.051";"NST_correctLoc";"15";"1";"FINISHED";"RIGHT";"success";"338";"0";"2014-10-13 19:43:43.800";"2";;;;;;;;;;;;;;;;;;;;;
"sophiefs";"1994";;"Mac OS X";"Rachel's Experiment (D.T.)";"1.0";"2";"1";"1";"2";"2";"2";"2014-10-13 19:35:52.834";"2014-10-13 19:48:49.546";"1";"0";"0";;;"155";"154";"module.training_block4.exec-6212.GoNoGo4";;;;;;;;;;;;;;;;;;;;;;;;;;;;;;;;;;;;;;;;;;;;;;;;;;;;;;;;;;;"1250";"2014-10-13 19:43:47.563";"NST_correctLoc";"6";"1";"FINISHED";"RIGHT";"success";"362";"0";"2014-10-13 19:43:46.313";"1";;;;;;;;;;;;;;;;;;;;;
"sophiefs";"1994";;"Mac OS X";"Rachel's Experiment (D.T.)";"1.0";"2";"1";"1";"2";"2";"2";"2014-10-13 19:35:52.834";"2014-10-13 19:48:49.546";"1";"0";"0";;;"156";"155";"module.training_block4.exec-6212.GoNoGo4";;;;;;;;;;;;;;;;;;;;;;;;;;;;;;;;;;;;;;;;;;;;;;;;;;;;;;;;;;;"1251";"2014-10-13 19:43:50.077";"NST_correctLoc";"19";"0";"FINISHED";"LEFT";"success";"314";"0";"2014-10-13 19:43:48.825";"3";;;;;;;;;;;;;;;;;;;;;
"sophiefs";"1994";;"Mac OS X";"Rachel's Experiment (D.T.)";"1.0";"2";"1";"1";"2";"2";"2";"2014-10-13 19:35:52.834";"2014-10-13 19:48:49.546";"1";"0";"0";;;"157";"156";"module.training_block4.exec-6212.GoNoGo4";;;;;;;;;;;;;;;;;;;;;;;;;;;;;;;;;;;;;;;;;;;;;;;;;;;;;;;;;;;"1251";"2014-10-13 19:43:52.589";"NST_correctLoc";"20";"1";"FINISHED";"RIGHT";"success";"288";"0";"2014-10-13 19:43:51.338";"3";;;;;;;;;;;;;;;;;;;;;
"sophiefs";"1994";;"Mac OS X";"Rachel's Experiment (D.T.)";"1.0";"2";"1";"1";"2";"2";"2";"2014-10-13 19:35:52.834";"2014-10-13 19:48:49.546";"1";"0";"0";;;"158";"157";"module.training_block4.exec-6212.GoNoGo4";;;;;;;;;;;;;;;;;;;;;;;;;;;;;;;;;;;;;;;;;;;;;;;;;;;;;;;;;;;"1251";"2014-10-13 19:43:55.099";"NST_correctLoc";"16";"0";"FINISHED";"LEFT";"success";"282";"0";"2014-10-13 19:43:53.848";"2";;;;;;;;;;;;;;;;;;;;;
"sophiefs";"1994";;"Mac OS X";"Rachel's Experiment (D.T.)";"1.0";"2";"1";"1";"2";"2";"2";"2014-10-13 19:35:52.834";"2014-10-13 19:48:49.546";"1";"0";"0";;;"159";"158";"module.training_block4.exec-6212.GoNoGo4";;;;;;;;;;;;;;;;;;;;;;;;;;;;;;;;;;;;;;;;;;;;;;;;;;;;;;;;;;;"1251";"2014-10-13 19:43:57.611";"NST_correctLoc";"9";"1";"FINISHED";"RIGHT";"success";"371";"0";"2014-10-13 19:43:56.360";"2";;;;;;;;;;;;;;;;;;;;;
"sophiefs";"1994";;"Mac OS X";"Rachel's Experiment (D.T.)";"1.0";"2";"1";"1";"2";"2";"2";"2014-10-13 19:35:52.834";"2014-10-13 19:48:49.546";"1";"0";"0";;;"160";"159";"module.devaluation_practice.exec-1469.devalPractice";;;;;;;;;;;;"14803";"2014-10-13 19:44:37.719";"0";"6";"3";"6";"5063";"2808";"3767";"2014-10-13 19:44:22.915";;;;;;;;;;;;;;;;;;;;;;;;;;;;;;;;;;;;;;;;;;;;;;;;;;;;;;;;;;;;;;;;;;;;;;
"sophiefs";"1994";;"Mac OS X";"Rachel's Experiment (D.T.)";"1.0";"2";"1";"1";"2";"2";"2";"2014-10-13 19:35:52.834";"2014-10-13 19:48:49.546";"1";"0";"0";;;"161";"160";"module.devaluation_practice.exec-1469.devalPractice";;;;;;;;;;;;"11108";"2014-10-13 19:44:48.841";"1";"1";"1";"2";"4327";"1594";"2177";"2014-10-13 19:44:37.732";;;;;;;;;;;;;;;;;;;;;;;;;;;;;;;;;;;;;;;;;;;;;;;;;;;;;;;;;;;;;;;;;;;;;;
"sophiefs";"1994";;"Mac OS X";"Rachel's Experiment (D.T.)";"1.0";"2";"1";"1";"2";"2";"2";"2014-10-13 19:35:52.834";"2014-10-13 19:48:49.546";"1";"0";"0";;;"162";"161";"module.devaluation_practice.exec-1469.devalPractice";;;;;;;;;;;;"10285";"2014-10-13 19:44:59.177";"2";"7";"5";"8";"2640";"991";"3641";"2014-10-13 19:44:48.891";;;;;;;;;;;;;;;;;;;;;;;;;;;;;;;;;;;;;;;;;;;;;;;;;;;;;;;;;;;;;;;;;;;;;;
"sophiefs";"1994";;"Mac OS X";"Rachel's Experiment (D.T.)";"1.0";"2";"1";"1";"2";"2";"2";"2014-10-13 19:35:52.834";"2014-10-13 19:48:49.546";"1";"0";"0";;;"163";"162";"module.devaluation_practice.exec-1469.devalPractice";;;;;;;;;;;;"7770";"2014-10-13 19:45:06.961";"3";"4";"2";"6";"1591";"1904";"1266";"2014-10-13 19:44:59.190";;;;;;;;;;;;;;;;;;;;;;;;;;;;;;;;;;;;;;;;;;;;;;;;;;;;;;;;;;;;;;;;;;;;;;
"sophiefs";"1994";;"Mac OS X";"Rachel's Experiment (D.T.)";"1.0";"2";"1";"1";"2";"2";"2";"2014-10-13 19:35:52.834";"2014-10-13 19:48:49.546";"1";"0";"0";;;"164";"163";"module.devaluation_block1.exec-5833.deval1";"11347";"2014-10-13 19:45:23.597";"10";"7";"3";"8";"4071";"1231";"3031";"2014-10-13 19:45:12.249";"2";;;;;;;;;;;;;;;;;;;;;;;;;;;;;;;;;;;;;;;;;;;;;;;;;;;;;;;;;;;;;;;;;;;;;;;;;;;;;;;;
"sophiefs";"1994";;"Mac OS X";"Rachel's Experiment (D.T.)";"1.0";"2";"1";"1";"2";"2";"2";"2014-10-13 19:35:52.834";"2014-10-13 19:48:49.546";"1";"0";"0";;;"165";"164";"module.devaluation_block1.exec-5833.deval1";"8450";"2014-10-13 19:45:32.093";"21";"4";"4";"8";"1727";"2608";"1105";"2014-10-13 19:45:23.642";"3";;;;;;;;;;;;;;;;;;;;;;;;;;;;;;;;;;;;;;;;;;;;;;;;;;;;;;;;;;;;;;;;;;;;;;;;;;;;;;;;
"sophiefs";"1994";;"Mac OS X";"Rachel's Experiment (D.T.)";"1.0";"2";"1";"1";"2";"2";"2";"2014-10-13 19:35:52.834";"2014-10-13 19:48:49.546";"1";"0";"0";;;"166";"165";"module.devaluation_block1.exec-5833.deval1";"8841";"2014-10-13 19:45:40.982";"1";"3";"2";"8";"861";"2049";"2920";"2014-10-13 19:45:32.140";"1";;;;;;;;;;;;;;;;;;;;;;;;;;;;;;;;;;;;;;;;;;;;;;;;;;;;;;;;;;;;;;;;;;;;;;;;;;;;;;;;
"sophiefs";"1994";;"Mac OS X";"Rachel's Experiment (D.T.)";"1.0";"2";"1";"1";"2";"2";"2";"2014-10-13 19:35:52.834";"2014-10-13 19:48:49.546";"1";"0";"0";;;"167";"166";"module.devaluation_block1.exec-5833.deval1";"6250";"2014-10-13 19:45:47.285";"26";"9";"3";"9";"1207";"880";"1152";"2014-10-13 19:45:41.035";"3";;;;;;;;;;;;;;;;;;;;;;;;;;;;;;;;;;;;;;;;;;;;;;;;;;;;;;;;;;;;;;;;;;;;;;;;;;;;;;;;
"sophiefs";"1994";;"Mac OS X";"Rachel's Experiment (D.T.)";"1.0";"2";"1";"1";"2";"2";"2";"2014-10-13 19:35:52.834";"2014-10-13 19:48:49.546";"1";"0";"0";;;"168";"167";"module.devaluation_block1.exec-5833.deval1";"6039";"2014-10-13 19:45:53.334";"22";"9";"8";"9";"836";"1368";"823";"2014-10-13 19:45:47.294";"3";;;;;;;;;;;;;;;;;;;;;;;;;;;;;;;;;;;;;;;;;;;;;;;;;;;;;;;;;;;;;;;;;;;;;;;;;;;;;;;;
"sophiefs";"1994";;"Mac OS X";"Rachel's Experiment (D.T.)";"1.0";"2";"1";"1";"2";"2";"2";"2014-10-13 19:35:52.834";"2014-10-13 19:48:49.546";"1";"0";"0";;;"169";"168";"module.devaluation_block1.exec-5833.deval1";"6702";"2014-10-13 19:46:00.086";"9";"3";"1";"3";"827";"1185";"1680";"2014-10-13 19:45:53.384";"2";;;;;;;;;;;;;;;;;;;;;;;;;;;;;;;;;;;;;;;;;;;;;;;;;;;;;;;;;;;;;;;;;;;;;;;;;;;;;;;;
"sophiefs";"1994";;"Mac OS X";"Rachel's Experiment (D.T.)";"1.0";"2";"1";"1";"2";"2";"2";"2014-10-13 19:35:52.834";"2014-10-13 19:48:49.546";"1";"0";"0";;;"170";"169";"module.devaluation_block1.exec-5833.deval1";"8525";"2014-10-13 19:46:08.622";"3";"4";"8";"9";"2834";"848";"1827";"2014-10-13 19:46:00.097";"1";;;;;;;;;;;;;;;;;;;;;;;;;;;;;;;;;;;;;;;;;;;;;;;;;;;;;;;;;;;;;;;;;;;;;;;;;;;;;;;;
"sophiefs";"1994";;"Mac OS X";"Rachel's Experiment (D.T.)";"1.0";"2";"1";"1";"2";"2";"2";"2014-10-13 19:35:52.834";"2014-10-13 19:48:49.546";"1";"0";"0";;;"171";"170";"module.devaluation_block1.exec-5833.deval1";"5967";"2014-10-13 19:46:14.639";"7";"4";"1";"6";"435";"1216";"1303";"2014-10-13 19:46:08.671";"1";;;;;;;;;;;;;;;;;;;;;;;;;;;;;;;;;;;;;;;;;;;;;;;;;;;;;;;;;;;;;;;;;;;;;;;;;;;;;;;;
"sophiefs";"1994";;"Mac OS X";"Rachel's Experiment (D.T.)";"1.0";"2";"1";"1";"2";"2";"2";"2014-10-13 19:35:52.834";"2014-10-13 19:48:49.546";"1";"0";"0";;;"172";"171";"module.devaluation_block1.exec-5833.deval1";"7962";"2014-10-13 19:46:22.631";"13";"5";"1";"7";"2002";"1327";"1616";"2014-10-13 19:46:14.669";"2";;;;;;;;;;;;;;;;;;;;;;;;;;;;;;;;;;;;;;;;;;;;;;;;;;;;;;;;;;;;;;;;;;;;;;;;;;;;;;;;
"sophiefs";"1994";;"Mac OS X";"Rachel's Experiment (D.T.)";"1.0";"2";"1";"1";"2";"2";"2";"2014-10-13 19:35:52.834";"2014-10-13 19:48:49.546";"1";"0";"0";;;"173";"172";"module.devaluation_block1.exec-5833.deval1";"27536";"2014-10-13 19:46:50.219";"18";"2";"1";"5";"2638";"2448";"19439";"2014-10-13 19:46:22.681";"3";;;;;;;;;;;;;;;;;;;;;;;;;;;;;;;;;;;;;;;;;;;;;;;;;;;;;;;;;;;;;;;;;;;;;;;;;;;;;;;;
"sophiefs";"1994";;"Mac OS X";"Rachel's Experiment (D.T.)";"1.0";"2";"1";"1";"2";"2";"2";"2014-10-13 19:35:52.834";"2014-10-13 19:48:49.546";"1";"0";"0";;;"174";"173";"module.devaluation_block1.exec-5833.deval1";"7661";"2014-10-13 19:46:57.923";"16";"3";"2";"7";"2081";"1472";"1095";"2014-10-13 19:46:50.261";"2";;;;;;;;;;;;;;;;;;;;;;;;;;;;;;;;;;;;;;;;;;;;;;;;;;;;;;;;;;;;;;;;;;;;;;;;;;;;;;;;
"sophiefs";"1994";;"Mac OS X";"Rachel's Experiment (D.T.)";"1.0";"2";"1";"1";"2";"2";"2";"2014-10-13 19:35:52.834";"2014-10-13 19:48:49.546";"1";"0";"0";;;"175";"174";"module.devaluation_block1.exec-5833.deval1";"6295";"2014-10-13 19:47:04.268";"11";"7";"1";"3";"836";"1681";"767";"2014-10-13 19:46:57.972";"2";;;;;;;;;;;;;;;;;;;;;;;;;;;;;;;;;;;;;;;;;;;;;;;;;;;;;;;;;;;;;;;;;;;;;;;;;;;;;;;;
"sophiefs";"1994";;"Mac OS X";"Rachel's Experiment (D.T.)";"1.0";"2";"1";"1";"2";"2";"2";"2014-10-13 19:35:52.834";"2014-10-13 19:48:49.546";"1";"0";"0";;;"176";"175";"module.devaluation_block1.exec-5833.deval1";"8492";"2014-10-13 19:47:12.812";"14";"8";"9";"5";"2040";"2905";"536";"2014-10-13 19:47:04.319";"2";;;;;;;;;;;;;;;;;;;;;;;;;;;;;;;;;;;;;;;;;;;;;;;;;;;;;;;;;;;;;;;;;;;;;;;;;;;;;;;;
"sophiefs";"1994";;"Mac OS X";"Rachel's Experiment (D.T.)";"1.0";"2";"1";"1";"2";"2";"2";"2014-10-13 19:35:52.834";"2014-10-13 19:48:49.546";"1";"0";"0";;;"177";"176";"module.devaluation_block1.exec-5833.deval1";"6790";"2014-10-13 19:47:19.620";"6";"7";"2";"5";"995";"2335";"447";"2014-10-13 19:47:12.829";"1";;;;;;;;;;;;;;;;;;;;;;;;;;;;;;;;;;;;;;;;;;;;;;;;;;;;;;;;;;;;;;;;;;;;;;;;;;;;;;;;
"sophiefs";"1994";;"Mac OS X";"Rachel's Experiment (D.T.)";"1.0";"2";"1";"1";"2";"2";"2";"2014-10-13 19:35:52.834";"2014-10-13 19:48:49.546";"1";"0";"0";;;"178";"177";"module.devaluation_block1.exec-5833.deval1";"5760";"2014-10-13 19:47:25.428";"4";"7";"3";"9";"1133";"752";"865";"2014-10-13 19:47:19.668";"1";;;;;;;;;;;;;;;;;;;;;;;;;;;;;;;;;;;;;;;;;;;;;;;;;;;;;;;;;;;;;;;;;;;;;;;;;;;;;;;;
"sophiefs";"1994";;"Mac OS X";"Rachel's Experiment (D.T.)";"1.0";"2";"1";"1";"2";"2";"2";"2014-10-13 19:35:52.834";"2014-10-13 19:48:49.546";"1";"0";"0";;;"179";"178";"module.devaluation_block1.exec-5833.deval1";"5188";"2014-10-13 19:47:30.628";"0";"5";"2";"8";"401";"800";"976";"2014-10-13 19:47:25.440";"1";;;;;;;;;;;;;;;;;;;;;;;;;;;;;;;;;;;;;;;;;;;;;;;;;;;;;;;;;;;;;;;;;;;;;;;;;;;;;;;;
"sophiefs";"1994";;"Mac OS X";"Rachel's Experiment (D.T.)";"1.0";"2";"1";"1";"2";"2";"2";"2014-10-13 19:35:52.834";"2014-10-13 19:48:49.546";"1";"0";"0";;;"180";"179";"module.devaluation_block1.exec-5833.deval1";"6320";"2014-10-13 19:47:36.989";"24";"7";"9";"9";"1694";"712";"903";"2014-10-13 19:47:30.669";"3";;;;;;;;;;;;;;;;;;;;;;;;;;;;;;;;;;;;;;;;;;;;;;;;;;;;;;;;;;;;;;;;;;;;;;;;;;;;;;;;
"sophiefs";"1994";;"Mac OS X";"Rachel's Experiment (D.T.)";"1.0";"2";"1";"1";"2";"2";"2";"2014-10-13 19:35:52.834";"2014-10-13 19:48:49.546";"1";"0";"0";;;"181";"180";"module.devaluation_block1.exec-5833.deval1";"7900";"2014-10-13 19:47:44.901";"15";"4";"2";"6";"1306";"824";"2761";"2014-10-13 19:47:37.000";"2";;;;;;;;;;;;;;;;;;;;;;;;;;;;;;;;;;;;;;;;;;;;;;;;;;;;;;;;;;;;;;;;;;;;;;;;;;;;;;;;
"sophiefs";"1994";;"Mac OS X";"Rachel's Experiment (D.T.)";"1.0";"2";"1";"1";"2";"2";"2";"2014-10-13 19:35:52.834";"2014-10-13 19:48:49.546";"1";"0";"0";;;"182";"181";"module.devaluation_block1.exec-5833.deval1";"7306";"2014-10-13 19:47:52.253";"17";"3";"1";"3";"2620";"1016";"657";"2014-10-13 19:47:44.946";"2";;;;;;;;;;;;;;;;;;;;;;;;;;;;;;;;;;;;;;;;;;;;;;;;;;;;;;;;;;;;;;;;;;;;;;;;;;;;;;;;
"sophiefs";"1994";;"Mac OS X";"Rachel's Experiment (D.T.)";"1.0";"2";"1";"1";"2";"2";"2";"2014-10-13 19:35:52.834";"2014-10-13 19:48:49.546";"1";"0";"0";;;"183";"182";"module.devaluation_block1.exec-5833.deval1";"6302";"2014-10-13 19:47:58.606";"19";"7";"7";"9";"1386";"927";"976";"2014-10-13 19:47:52.303";"3";;;;;;;;;;;;;;;;;;;;;;;;;;;;;;;;;;;;;;;;;;;;;;;;;;;;;;;;;;;;;;;;;;;;;;;;;;;;;;;;
"sophiefs";"1994";;"Mac OS X";"Rachel's Experiment (D.T.)";"1.0";"2";"1";"1";"2";"2";"2";"2014-10-13 19:35:52.834";"2014-10-13 19:48:49.546";"1";"0";"0";;;"184";"183";"module.devaluation_block1.exec-5833.deval1";"5442";"2014-10-13 19:48:04.093";"23";"9";"7";"9";"1239";"489";"704";"2014-10-13 19:47:58.651";"3";;;;;;;;;;;;;;;;;;;;;;;;;;;;;;;;;;;;;;;;;;;;;;;;;;;;;;;;;;;;;;;;;;;;;;;;;;;;;;;;
"sophiefs";"1994";;"Mac OS X";"Rachel's Experiment (D.T.)";"1.0";"2";"1";"1";"2";"2";"2";"2014-10-13 19:35:52.834";"2014-10-13 19:48:49.546";"1";"0";"0";;;"185";"184";"module.devaluation_block1.exec-5833.deval1";"5375";"2014-10-13 19:48:09.478";"12";"9";"9";"9";"716";"807";"837";"2014-10-13 19:48:04.102";"2";;;;;;;;;;;;;;;;;;;;;;;;;;;;;;;;;;;;;;;;;;;;;;;;;;;;;;;;;;;;;;;;;;;;;;;;;;;;;;;;
"sophiefs";"1994";;"Mac OS X";"Rachel's Experiment (D.T.)";"1.0";"2";"1";"1";"2";"2";"2";"2014-10-13 19:35:52.834";"2014-10-13 19:48:49.546";"1";"0";"0";;;"186";"185";"module.devaluation_block1.exec-5833.deval1";"6911";"2014-10-13 19:48:16.398";"5";"6";"8";"9";"1324";"1199";"1377";"2014-10-13 19:48:09.486";"1";;;;;;;;;;;;;;;;;;;;;;;;;;;;;;;;;;;;;;;;;;;;;;;;;;;;;;;;;;;;;;;;;;;;;;;;;;;;;;;;
"sophiefs";"1994";;"Mac OS X";"Rachel's Experiment (D.T.)";"1.0";"2";"1";"1";"2";"2";"2";"2014-10-13 19:35:52.834";"2014-10-13 19:48:49.546";"1";"0";"0";;;"187";"186";"module.devaluation_block1.exec-5833.deval1";"7628";"2014-10-13 19:48:24.038";"25";"7";"8";"9";"3185";"697";"736";"2014-10-13 19:48:16.409";"3";;;;;;;;;;;;;;;;;;;;;;;;;;;;;;;;;;;;;;;;;;;;;;;;;;;;;;;;;;;;;;;;;;;;;;;;;;;;;;;;
"sophiefs";"1994";;"Mac OS X";"Rachel's Experiment (D.T.)";"1.0";"2";"1";"1";"2";"2";"2";"2014-10-13 19:35:52.834";"2014-10-13 19:48:49.546";"1";"0";"0";;;"188";"187";"module.devaluation_block1.exec-5833.deval1";"7207";"2014-10-13 19:48:31.254";"20";"6";"9";"7";"1195";"1903";"1096";"2014-10-13 19:48:24.046";"3";;;;;;;;;;;;;;;;;;;;;;;;;;;;;;;;;;;;;;;;;;;;;;;;;;;;;;;;;;;;;;;;;;;;;;;;;;;;;;;;
"sophiefs";"1994";;"Mac OS X";"Rachel's Experiment (D.T.)";"1.0";"2";"1";"1";"2";"2";"2";"2014-10-13 19:35:52.834";"2014-10-13 19:48:49.546";"1";"0";"0";;;"189";"188";"module.devaluation_block1.exec-5833.deval1";"8784";"2014-10-13 19:48:40.087";"8";"7";"1";"4";"2925";"1639";"1208";"2014-10-13 19:48:31.302";"1";;;;;;;;;;;;;;;;;;;;;;;;;;;;;;;;;;;;;;;;;;;;;;;;;;;;;;;;;;;;;;;;;;;;;;;;;;;;;;;;
"sophiefs";"1994";;"Mac OS X";"Rachel's Experiment (D.T.)";"1.0";"2";"1";"1";"2";"2";"2";"2014-10-13 19:35:52.834";"2014-10-13 19:48:49.546";"1";"0";"0";;;"190";"189";"module.devaluation_block1.exec-5833.deval1";"6821";"2014-10-13 19:48:46.919";"2";"7";"8";"9";"2193";"889";"729";"2014-10-13 19:48:40.097";"1";;;;;;;;;;;;;;;;;;;;;;;;;;;;;;;;;;;;;;;;;;;;;;;;;;;;;;;;;;;;;;;;;;;;;;;;;;;;;;;;
