"user.name";"user.yearOfBirth";"user.sex";"user.osName";"module.name";"module.version";"module.online.subject.code";"module.online.study.id";"module.online.module.nr";"module.online.group.nr";"session.id";"session.index";"session.startTime";"session.endTime";"session.completed";"session.node-2859.DevalQorder";"session.node-4464.conditionType";"trial.id";"trial.index";"trial.name";"trial.deval1.durationTime";"trial.deval1.endTime";"trial.deval1.icon";"trial.deval1.Resp_Attractive";"trial.deval1.Resp_Eat";"trial.deval1.Resp_Taste";"trial.deval1.RT_Attractive";"trial.deval1.RT_Eat";"trial.deval1.RT_Taste";"trial.deval1.startTime";"trial.deval1.stimulus type";"trial.devalPractice.durationTime";"trial.devalPractice.endTime";"trial.devalPractice.icon";"trial.devalPractice.Resp_Attractive";"trial.devalPractice.Resp_Eat";"trial.devalPractice.Resp_Taste";"trial.devalPractice.RT_Attractive";"trial.devalPractice.RT_Eat";"trial.devalPractice.RT_Taste";"trial.devalPractice.startTime";"trial.devalPractice.stimulus type";"trial.GoNoGo1.durationTime";"trial.GoNoGo1.endTime";"trial.GoNoGo1.Error Type";"trial.GoNoGo1.icon";"trial.GoNoGo1.location";"trial.GoNoGo1.outcome";"trial.GoNoGo1.response";"trial.GoNoGo1.result";"trial.GoNoGo1.RT";"trial.GoNoGo1.signal";"trial.GoNoGo1.startTime";"trial.GoNoGo1.stimulus type";"trial.GoNoGo2.durationTime";"trial.GoNoGo2.endTime";"trial.GoNoGo2.Error Type";"trial.GoNoGo2.icon";"trial.GoNoGo2.location";"trial.GoNoGo2.outcome";"trial.GoNoGo2.response";"trial.GoNoGo2.result";"trial.GoNoGo2.RT";"trial.GoNoGo2.signal";"trial.GoNoGo2.startTime";"trial.GoNoGo2.stimulus type";"trial.GoNoGo3.durationTime";"trial.GoNoGo3.endTime";"trial.GoNoGo3.Error Type";"trial.GoNoGo3.icon";"trial.GoNoGo3.location";"trial.GoNoGo3.outcome";"trial.GoNoGo3.response";"trial.GoNoGo3.result";"trial.GoNoGo3.RT";"trial.GoNoGo3.signal";"trial.GoNoGo3.startTime";"trial.GoNoGo3.stimulus type";"trial.GoNoGo4.durationTime";"trial.GoNoGo4.endTime";"trial.GoNoGo4.Error Type";"trial.GoNoGo4.icon";"trial.GoNoGo4.location";"trial.GoNoGo4.outcome";"trial.GoNoGo4.response";"trial.GoNoGo4.result";"trial.GoNoGo4.RT";"trial.GoNoGo4.signal";"trial.GoNoGo4.startTime";"trial.GoNoGo4.stimulus type";"trial.GoNoGo_Practice.durationTime";"trial.GoNoGo_Practice.endTime";"trial.GoNoGo_Practice.icon";"trial.GoNoGo_Practice.location";"trial.GoNoGo_Practice.outcome";"trial.GoNoGo_Practice.response";"trial.GoNoGo_Practice.result";"trial.GoNoGo_Practice.RT";"trial.GoNoGo_Practice.signal";"trial.GoNoGo_Practice.startTime";"trial.GoNoGo_Practice.stimulus type";"trial.GoNoGo_Tutorial.durationTime";"trial.GoNoGo_Tutorial.endTime";"trial.GoNoGo_Tutorial.icon";"trial.GoNoGo_Tutorial.location";"trial.GoNoGo_Tutorial.outcome";"trial.GoNoGo_Tutorial.response";"trial.GoNoGo_Tutorial.result";"trial.GoNoGo_Tutorial.RT";"trial.GoNoGo_Tutorial.signal";"trial.GoNoGo_Tutorial.startTime"
"c1226961";"11/07/93";;"Windows 7";"Rachel's Experiment (D.T.)";"1.0";"2";"1";"1";"2";"1";"1";"2014-10-16 12:24:33.970";"2014-10-16 12:36:38.295";"1";"1";"0";"1";"0";"module.GoNoGotutorial.exec-9572.GoNoGo_Tutorial";;;;;;;;;;;;;;;;;;;;;;;;;;;;;;;;;;;;;;;;;;;;;;;;;;;;;;;;;;;;;;;;;;;;;;;;;;;;;;;;;;"3998";"2014-10-16 12:25:05.139";"leftResponse";"0";"FINISHED";"LEFT";"success";"2009";"0";"2014-10-16 12:25:01.130"
"c1226961";"11/07/93";;"Windows 7";"Rachel's Experiment (D.T.)";"1.0";"2";"1";"1";"2";"1";"1";"2014-10-16 12:24:33.970";"2014-10-16 12:36:38.295";"1";"1";"0";"2";"1";"module.GoNoGotutorial.exec-9572.GoNoGo_Tutorial";;;;;;;;;;;;;;;;;;;;;;;;;;;;;;;;;;;;;;;;;;;;;;;;;;;;;;;;;;;;;;;;;;;;;;;;;;;;;;;;;;"4002";"2014-10-16 12:25:10.443";"rightResponse";"1";"FINISHED";"RIGHT";"success";"493";"0";"2014-10-16 12:25:06.434"
"c1226961";"11/07/93";;"Windows 7";"Rachel's Experiment (D.T.)";"1.0";"2";"1";"1";"2";"1";"1";"2014-10-16 12:24:33.970";"2014-10-16 12:36:38.295";"1";"1";"0";"3";"2";"module.GoNoGotutorial.exec-9572.GoNoGo_Tutorial";;;;;;;;;;;;;;;;;;;;;;;;;;;;;;;;;;;;;;;;;;;;;;;;;;;;;;;;;;;;;;;;;;;;;;;;;;;;;;;;;;"4003";"2014-10-16 12:25:15.747";"quickResponse";"0";"FINISHED";"NONE";"failure";"0";"0";"2014-10-16 12:25:11.738"
"c1226961";"11/07/93";;"Windows 7";"Rachel's Experiment (D.T.)";"1.0";"2";"1";"1";"2";"1";"1";"2014-10-16 12:24:33.970";"2014-10-16 12:36:38.295";"1";"1";"0";"4";"3";"module.GoNoGopractice.exec-7723.GoNoGo_Practice";;;;;;;;;;;;;;;;;;;;;;;;;;;;;;;;;;;;;;;;;;;;;;;;;;;;;;;;;;;;;;;;;;;;;;;"1957";"2014-10-16 12:25:23.298";"18";"0";"FINISHED";"LEFT";"success";"497";"0";"2014-10-16 12:25:21.332";"3";;;;;;;;;;
"c1226961";"11/07/93";;"Windows 7";"Rachel's Experiment (D.T.)";"1.0";"2";"1";"1";"2";"1";"1";"2014-10-16 12:24:33.970";"2014-10-16 12:36:38.295";"1";"1";"0";"5";"4";"module.GoNoGopractice.exec-7723.GoNoGo_Practice";;;;;;;;;;;;;;;;;;;;;;;;;;;;;;;;;;;;;;;;;;;;;;;;;;;;;;;;;;;;;;;;;;;;;;;"1959";"2014-10-16 12:25:26.542";"21";"1";"FINISHED";"RIGHT";"success";"351";"0";"2014-10-16 12:25:24.577";"3";;;;;;;;;;
"c1226961";"11/07/93";;"Windows 7";"Rachel's Experiment (D.T.)";"1.0";"2";"1";"1";"2";"1";"1";"2014-10-16 12:24:33.970";"2014-10-16 12:36:38.295";"1";"1";"0";"6";"5";"module.GoNoGopractice.exec-7723.GoNoGo_Practice";;;;;;;;;;;;;;;;;;;;;;;;;;;;;;;;;;;;;;;;;;;;;;;;;;;;;;;;;;;;;;;;;;;;;;;"1959";"2014-10-16 12:25:29.787";"14";"1";"FINISHED";"RIGHT";"success";"514";"0";"2014-10-16 12:25:27.822";"2";;;;;;;;;;
"c1226961";"11/07/93";;"Windows 7";"Rachel's Experiment (D.T.)";"1.0";"2";"1";"1";"2";"1";"1";"2014-10-16 12:24:33.970";"2014-10-16 12:36:38.295";"1";"1";"0";"7";"6";"module.GoNoGopractice.exec-7723.GoNoGo_Practice";;;;;;;;;;;;;;;;;;;;;;;;;;;;;;;;;;;;;;;;;;;;;;;;;;;;;;;;;;;;;;;;;;;;;;;"1959";"2014-10-16 12:25:33.032";"26";"0";"FINISHED";"LEFT";"success";"397";"0";"2014-10-16 12:25:31.066";"3";;;;;;;;;;
"c1226961";"11/07/93";;"Windows 7";"Rachel's Experiment (D.T.)";"1.0";"2";"1";"1";"2";"1";"1";"2014-10-16 12:24:33.970";"2014-10-16 12:36:38.295";"1";"1";"0";"8";"7";"module.GoNoGopractice.exec-7723.GoNoGo_Practice";;;;;;;;;;;;;;;;;;;;;;;;;;;;;;;;;;;;;;;;;;;;;;;;;;;;;;;;;;;;;;;;;;;;;;;"1959";"2014-10-16 12:25:36.277";"2";"0";"FINISHED";"LEFT";"success";"392";"0";"2014-10-16 12:25:34.311";"1";;;;;;;;;;
"c1226961";"11/07/93";;"Windows 7";"Rachel's Experiment (D.T.)";"1.0";"2";"1";"1";"2";"1";"1";"2014-10-16 12:24:33.970";"2014-10-16 12:36:38.295";"1";"1";"0";"9";"8";"module.GoNoGopractice.exec-7723.GoNoGo_Practice";;;;;;;;;;;;;;;;;;;;;;;;;;;;;;;;;;;;;;;;;;;;;;;;;;;;;;;;;;;;;;;;;;;;;;;"1959";"2014-10-16 12:25:39.522";"30";"0";"FINISHED";"LEFT";"success";"443";"0";"2014-10-16 12:25:37.556";"3";;;;;;;;;;
"c1226961";"11/07/93";;"Windows 7";"Rachel's Experiment (D.T.)";"1.0";"2";"1";"1";"2";"1";"1";"2014-10-16 12:24:33.970";"2014-10-16 12:36:38.295";"1";"1";"0";"10";"9";"module.GoNoGopractice.exec-7723.GoNoGo_Practice";;;;;;;;;;;;;;;;;;;;;;;;;;;;;;;;;;;;;;;;;;;;;;;;;;;;;;;;;;;;;;;;;;;;;;;"1959";"2014-10-16 12:25:42.766";"6";"1";"FINISHED";"RIGHT";"success";"486";"0";"2014-10-16 12:25:40.801";"1";;;;;;;;;;
"c1226961";"11/07/93";;"Windows 7";"Rachel's Experiment (D.T.)";"1.0";"2";"1";"1";"2";"1";"1";"2014-10-16 12:24:33.970";"2014-10-16 12:36:38.295";"1";"1";"0";"11";"10";"module.GoNoGopractice.exec-7723.GoNoGo_Practice";;;;;;;;;;;;;;;;;;;;;;;;;;;;;;;;;;;;;;;;;;;;;;;;;;;;;;;;;;;;;;;;;;;;;;;"1960";"2014-10-16 12:25:46.011";"34";"0";"FINISHED";"LEFT";"success";"323";"0";"2014-10-16 12:25:44.046";"3";;;;;;;;;;
"c1226961";"11/07/93";;"Windows 7";"Rachel's Experiment (D.T.)";"1.0";"2";"1";"1";"2";"1";"1";"2014-10-16 12:24:33.970";"2014-10-16 12:36:38.295";"1";"1";"0";"12";"11";"module.GoNoGopractice.exec-7723.GoNoGo_Practice";;;;;;;;;;;;;;;;;;;;;;;;;;;;;;;;;;;;;;;;;;;;;;;;;;;;;;;;;;;;;;;;;;;;;;;"1959";"2014-10-16 12:25:49.256";"23";"1";"FINISHED";"RIGHT";"success";"413";"0";"2014-10-16 12:25:47.291";"3";;;;;;;;;;
"c1226961";"11/07/93";;"Windows 7";"Rachel's Experiment (D.T.)";"1.0";"2";"1";"1";"2";"1";"1";"2014-10-16 12:24:33.970";"2014-10-16 12:36:38.295";"1";"1";"0";"13";"12";"module.GoNoGopractice.exec-7723.GoNoGo_Practice";;;;;;;;;;;;;;;;;;;;;;;;;;;;;;;;;;;;;;;;;;;;;;;;;;;;;;;;;;;;;;;;;;;;;;;"1959";"2014-10-16 12:25:52.501";"13";"0";"FINISHED";"LEFT";"success";"344";"0";"2014-10-16 12:25:50.535";"2";;;;;;;;;;
"c1226961";"11/07/93";;"Windows 7";"Rachel's Experiment (D.T.)";"1.0";"2";"1";"1";"2";"1";"1";"2014-10-16 12:24:33.970";"2014-10-16 12:36:38.295";"1";"1";"0";"14";"13";"module.GoNoGopractice.exec-7723.GoNoGo_Practice";;;;;;;;;;;;;;;;;;;;;;;;;;;;;;;;;;;;;;;;;;;;;;;;;;;;;;;;;;;;;;;;;;;;;;;"1960";"2014-10-16 12:25:55.746";"3";"1";"FINISHED";"RIGHT";"success";"452";"0";"2014-10-16 12:25:53.780";"1";;;;;;;;;;
"c1226961";"11/07/93";;"Windows 7";"Rachel's Experiment (D.T.)";"1.0";"2";"1";"1";"2";"1";"1";"2014-10-16 12:24:33.970";"2014-10-16 12:36:38.295";"1";"1";"0";"15";"14";"module.GoNoGopractice.exec-7723.GoNoGo_Practice";;;;;;;;;;;;;;;;;;;;;;;;;;;;;;;;;;;;;;;;;;;;;;;;;;;;;;;;;;;;;;;;;;;;;;;"1959";"2014-10-16 12:25:58.991";"27";"1";"FINISHED";"RIGHT";"success";"487";"0";"2014-10-16 12:25:57.025";"3";;;;;;;;;;
"c1226961";"11/07/93";;"Windows 7";"Rachel's Experiment (D.T.)";"1.0";"2";"1";"1";"2";"1";"1";"2014-10-16 12:24:33.970";"2014-10-16 12:36:38.295";"1";"1";"0";"16";"15";"module.training_block1.exec-3137.GoNoGo1";;;;;;;;;;;;;;;;;;;;;;;"1256";"2014-10-16 12:26:05.075";"NST_correctLoc";"20";"1";"FINISHED";"RIGHT";"success";"387";"0";"2014-10-16 12:26:03.811";"3";;;;;;;;;;;;;;;;;;;;;;;;;;;;;;;;;;;;;;;;;;;;;;;;;;;;;;;;;
"c1226961";"11/07/93";;"Windows 7";"Rachel's Experiment (D.T.)";"1.0";"2";"1";"1";"2";"1";"1";"2014-10-16 12:24:33.970";"2014-10-16 12:36:38.295";"1";"1";"0";"17";"16";"module.training_block1.exec-3137.GoNoGo1";;;;;;;;;;;;;;;;;;;;;;;"1261";"2014-10-16 12:26:07.617";"NST_correctLoc";"23";"0";"FINISHED";"LEFT";"success";"369";"0";"2014-10-16 12:26:06.354";"3";;;;;;;;;;;;;;;;;;;;;;;;;;;;;;;;;;;;;;;;;;;;;;;;;;;;;;;;;
"c1226961";"11/07/93";;"Windows 7";"Rachel's Experiment (D.T.)";"1.0";"2";"1";"1";"2";"1";"1";"2014-10-16 12:24:33.970";"2014-10-16 12:36:38.295";"1";"1";"0";"18";"17";"module.training_block1.exec-3137.GoNoGo1";;;;;;;;;;;;;;;;;;;;;;;"1261";"2014-10-16 12:26:10.176";"NST_correctLoc";"3";"1";"FINISHED";"RIGHT";"success";"363";"0";"2014-10-16 12:26:08.912";"1";;;;;;;;;;;;;;;;;;;;;;;;;;;;;;;;;;;;;;;;;;;;;;;;;;;;;;;;;
"c1226961";"11/07/93";;"Windows 7";"Rachel's Experiment (D.T.)";"1.0";"2";"1";"1";"2";"1";"1";"2014-10-16 12:24:33.970";"2014-10-16 12:36:38.295";"1";"1";"0";"19";"18";"module.training_block1.exec-3137.GoNoGo1";;;;;;;;;;;;;;;;;;;;;;;"1261";"2014-10-16 12:26:12.719";"NST_correctLoc";"14";"0";"FINISHED";"LEFT";"success";"428";"0";"2014-10-16 12:26:11.455";"2";;;;;;;;;;;;;;;;;;;;;;;;;;;;;;;;;;;;;;;;;;;;;;;;;;;;;;;;;
"c1226961";"11/07/93";;"Windows 7";"Rachel's Experiment (D.T.)";"1.0";"2";"1";"1";"2";"1";"1";"2014-10-16 12:24:33.970";"2014-10-16 12:36:38.295";"1";"1";"0";"20";"19";"module.training_block1.exec-3137.GoNoGo1";;;;;;;;;;;;;;;;;;;;;;;"1256";"2014-10-16 12:26:15.261";"NST_correctLoc";"0";"1";"FINISHED";"RIGHT";"success";"425";"0";"2014-10-16 12:26:13.998";"1";;;;;;;;;;;;;;;;;;;;;;;;;;;;;;;;;;;;;;;;;;;;;;;;;;;;;;;;;
"c1226961";"11/07/93";;"Windows 7";"Rachel's Experiment (D.T.)";"1.0";"2";"1";"1";"2";"1";"1";"2014-10-16 12:24:33.970";"2014-10-16 12:36:38.295";"1";"1";"0";"21";"20";"module.training_block1.exec-3137.GoNoGo1";;;;;;;;;;;;;;;;;;;;;;;"1257";"2014-10-16 12:26:17.804";"NST_correctLoc";"11";"1";"FINISHED";"RIGHT";"success";"635";"0";"2014-10-16 12:26:16.541";"2";;;;;;;;;;;;;;;;;;;;;;;;;;;;;;;;;;;;;;;;;;;;;;;;;;;;;;;;;
"c1226961";"11/07/93";;"Windows 7";"Rachel's Experiment (D.T.)";"1.0";"2";"1";"1";"2";"1";"1";"2014-10-16 12:24:33.970";"2014-10-16 12:36:38.295";"1";"1";"0";"22";"21";"module.training_block1.exec-3137.GoNoGo1";;;;;;;;;;;;;;;;;;;;;;;"1258";"2014-10-16 12:26:20.347";"NST_correctLoc";"29";"1";"FINISHED";"RIGHT";"success";"428";"0";"2014-10-16 12:26:19.083";"3";;;;;;;;;;;;;;;;;;;;;;;;;;;;;;;;;;;;;;;;;;;;;;;;;;;;;;;;;
"c1226961";"11/07/93";;"Windows 7";"Rachel's Experiment (D.T.)";"1.0";"2";"1";"1";"2";"1";"1";"2014-10-16 12:24:33.970";"2014-10-16 12:36:38.295";"1";"1";"0";"23";"22";"module.training_block1.exec-3137.GoNoGo1";;;;;;;;;;;;;;;;;;;;;;;"1261";"2014-10-16 12:26:22.890";"NST_correctLoc";"21";"0";"FINISHED";"LEFT";"success";"337";"0";"2014-10-16 12:26:21.626";"3";;;;;;;;;;;;;;;;;;;;;;;;;;;;;;;;;;;;;;;;;;;;;;;;;;;;;;;;;
"c1226961";"11/07/93";;"Windows 7";"Rachel's Experiment (D.T.)";"1.0";"2";"1";"1";"2";"1";"1";"2014-10-16 12:24:33.970";"2014-10-16 12:36:38.295";"1";"1";"0";"24";"23";"module.training_block1.exec-3137.GoNoGo1";;;;;;;;;;;;;;;;;;;;;;;"1257";"2014-10-16 12:26:25.433";"NST_correctLoc";"31";"0";"FINISHED";"LEFT";"success";"374";"0";"2014-10-16 12:26:24.169";"3";;;;;;;;;;;;;;;;;;;;;;;;;;;;;;;;;;;;;;;;;;;;;;;;;;;;;;;;;
"c1226961";"11/07/93";;"Windows 7";"Rachel's Experiment (D.T.)";"1.0";"2";"1";"1";"2";"1";"1";"2014-10-16 12:24:33.970";"2014-10-16 12:36:38.295";"1";"1";"0";"25";"24";"module.training_block1.exec-3137.GoNoGo1";;;;;;;;;;;;;;;;;;;;;;;"1261";"2014-10-16 12:26:27.975";"NST_correctLoc";"13";"0";"FINISHED";"LEFT";"success";"331";"0";"2014-10-16 12:26:26.712";"2";;;;;;;;;;;;;;;;;;;;;;;;;;;;;;;;;;;;;;;;;;;;;;;;;;;;;;;;;
"c1226961";"11/07/93";;"Windows 7";"Rachel's Experiment (D.T.)";"1.0";"2";"1";"1";"2";"1";"1";"2014-10-16 12:24:33.970";"2014-10-16 12:36:38.295";"1";"1";"0";"26";"25";"module.training_block1.exec-3137.GoNoGo1";;;;;;;;;;;;;;;;;;;;;;;"1257";"2014-10-16 12:26:30.518";"NST_correctLoc";"7";"0";"FINISHED";"LEFT";"success";"384";"0";"2014-10-16 12:26:29.255";"1";;;;;;;;;;;;;;;;;;;;;;;;;;;;;;;;;;;;;;;;;;;;;;;;;;;;;;;;;
"c1226961";"11/07/93";;"Windows 7";"Rachel's Experiment (D.T.)";"1.0";"2";"1";"1";"2";"1";"1";"2014-10-16 12:24:33.970";"2014-10-16 12:36:38.295";"1";"1";"0";"27";"26";"module.training_block1.exec-3137.GoNoGo1";;;;;;;;;;;;;;;;;;;;;;;"1258";"2014-10-16 12:26:33.061";"NST_correctLoc";"28";"0";"FINISHED";"LEFT";"success";"514";"0";"2014-10-16 12:26:31.797";"3";;;;;;;;;;;;;;;;;;;;;;;;;;;;;;;;;;;;;;;;;;;;;;;;;;;;;;;;;
"c1226961";"11/07/93";;"Windows 7";"Rachel's Experiment (D.T.)";"1.0";"2";"1";"1";"2";"1";"1";"2014-10-16 12:24:33.970";"2014-10-16 12:36:38.295";"1";"1";"0";"28";"27";"module.training_block1.exec-3137.GoNoGo1";;;;;;;;;;;;;;;;;;;;;;;"1258";"2014-10-16 12:26:35.604";"NST_correctLoc";"12";"0";"FINISHED";"LEFT";"success";"387";"0";"2014-10-16 12:26:34.340";"2";;;;;;;;;;;;;;;;;;;;;;;;;;;;;;;;;;;;;;;;;;;;;;;;;;;;;;;;;
"c1226961";"11/07/93";;"Windows 7";"Rachel's Experiment (D.T.)";"1.0";"2";"1";"1";"2";"1";"1";"2014-10-16 12:24:33.970";"2014-10-16 12:36:38.295";"1";"1";"0";"29";"28";"module.training_block1.exec-3137.GoNoGo1";;;;;;;;;;;;;;;;;;;;;;;"1261";"2014-10-16 12:26:38.147";"NST_correctLoc";"26";"0";"FINISHED";"LEFT";"success";"464";"0";"2014-10-16 12:26:36.883";"3";;;;;;;;;;;;;;;;;;;;;;;;;;;;;;;;;;;;;;;;;;;;;;;;;;;;;;;;;
"c1226961";"11/07/93";;"Windows 7";"Rachel's Experiment (D.T.)";"1.0";"2";"1";"1";"2";"1";"1";"2014-10-16 12:24:33.970";"2014-10-16 12:36:38.295";"1";"1";"0";"30";"29";"module.training_block1.exec-3137.GoNoGo1";;;;;;;;;;;;;;;;;;;;;;;"1257";"2014-10-16 12:26:40.689";"NST_correctLoc";"10";"1";"FINISHED";"RIGHT";"success";"317";"0";"2014-10-16 12:26:39.426";"2";;;;;;;;;;;;;;;;;;;;;;;;;;;;;;;;;;;;;;;;;;;;;;;;;;;;;;;;;
"c1226961";"11/07/93";;"Windows 7";"Rachel's Experiment (D.T.)";"1.0";"2";"1";"1";"2";"1";"1";"2014-10-16 12:24:33.970";"2014-10-16 12:36:38.295";"1";"1";"0";"31";"30";"module.training_block1.exec-3137.GoNoGo1";;;;;;;;;;;;;;;;;;;;;;;"1257";"2014-10-16 12:26:43.232";"NST_wrongLoc";"8";"1";"FINISHED";"LEFT";"failure";"487";"0";"2014-10-16 12:26:41.969";"1";;;;;;;;;;;;;;;;;;;;;;;;;;;;;;;;;;;;;;;;;;;;;;;;;;;;;;;;;
"c1226961";"11/07/93";;"Windows 7";"Rachel's Experiment (D.T.)";"1.0";"2";"1";"1";"2";"1";"1";"2014-10-16 12:24:33.970";"2014-10-16 12:36:38.295";"1";"1";"0";"32";"31";"module.training_block1.exec-3137.GoNoGo1";;;;;;;;;;;;;;;;;;;;;;;"1257";"2014-10-16 12:26:45.775";"NST_correctLoc";"22";"1";"FINISHED";"RIGHT";"success";"367";"0";"2014-10-16 12:26:44.511";"3";;;;;;;;;;;;;;;;;;;;;;;;;;;;;;;;;;;;;;;;;;;;;;;;;;;;;;;;;
"c1226961";"11/07/93";;"Windows 7";"Rachel's Experiment (D.T.)";"1.0";"2";"1";"1";"2";"1";"1";"2014-10-16 12:24:33.970";"2014-10-16 12:36:38.295";"1";"1";"0";"33";"32";"module.training_block1.exec-3137.GoNoGo1";;;;;;;;;;;;;;;;;;;;;;;"1258";"2014-10-16 12:26:48.318";"NST_correctLoc";"5";"1";"FINISHED";"RIGHT";"success";"393";"0";"2014-10-16 12:26:47.054";"1";;;;;;;;;;;;;;;;;;;;;;;;;;;;;;;;;;;;;;;;;;;;;;;;;;;;;;;;;
"c1226961";"11/07/93";;"Windows 7";"Rachel's Experiment (D.T.)";"1.0";"2";"1";"1";"2";"1";"1";"2014-10-16 12:24:33.970";"2014-10-16 12:36:38.295";"1";"1";"0";"34";"33";"module.training_block1.exec-3137.GoNoGo1";;;;;;;;;;;;;;;;;;;;;;;"1258";"2014-10-16 12:26:50.861";"NST_correctLoc";"25";"0";"FINISHED";"LEFT";"success";"330";"0";"2014-10-16 12:26:49.597";"3";;;;;;;;;;;;;;;;;;;;;;;;;;;;;;;;;;;;;;;;;;;;;;;;;;;;;;;;;
"c1226961";"11/07/93";;"Windows 7";"Rachel's Experiment (D.T.)";"1.0";"2";"1";"1";"2";"1";"1";"2014-10-16 12:24:33.970";"2014-10-16 12:36:38.295";"1";"1";"0";"35";"34";"module.training_block1.exec-3137.GoNoGo1";;;;;;;;;;;;;;;;;;;;;;;"1258";"2014-10-16 12:26:53.403";"NST_correctLoc";"35";"1";"FINISHED";"RIGHT";"success";"332";"0";"2014-10-16 12:26:52.140";"3";;;;;;;;;;;;;;;;;;;;;;;;;;;;;;;;;;;;;;;;;;;;;;;;;;;;;;;;;
"c1226961";"11/07/93";;"Windows 7";"Rachel's Experiment (D.T.)";"1.0";"2";"1";"1";"2";"1";"1";"2014-10-16 12:24:33.970";"2014-10-16 12:36:38.295";"1";"1";"0";"36";"35";"module.training_block1.exec-3137.GoNoGo1";;;;;;;;;;;;;;;;;;;;;;;"1261";"2014-10-16 12:26:55.946";"NST_correctLoc";"6";"1";"FINISHED";"RIGHT";"success";"336";"0";"2014-10-16 12:26:54.683";"1";;;;;;;;;;;;;;;;;;;;;;;;;;;;;;;;;;;;;;;;;;;;;;;;;;;;;;;;;
"c1226961";"11/07/93";;"Windows 7";"Rachel's Experiment (D.T.)";"1.0";"2";"1";"1";"2";"1";"1";"2014-10-16 12:24:33.970";"2014-10-16 12:36:38.295";"1";"1";"0";"37";"36";"module.training_block1.exec-3137.GoNoGo1";;;;;;;;;;;;;;;;;;;;;;;"1258";"2014-10-16 12:26:58.489";"NST_correctLoc";"33";"0";"FINISHED";"LEFT";"success";"310";"0";"2014-10-16 12:26:57.225";"3";;;;;;;;;;;;;;;;;;;;;;;;;;;;;;;;;;;;;;;;;;;;;;;;;;;;;;;;;
"c1226961";"11/07/93";;"Windows 7";"Rachel's Experiment (D.T.)";"1.0";"2";"1";"1";"2";"1";"1";"2014-10-16 12:24:33.970";"2014-10-16 12:36:38.295";"1";"1";"0";"38";"37";"module.training_block1.exec-3137.GoNoGo1";;;;;;;;;;;;;;;;;;;;;;;"1257";"2014-10-16 12:27:01.032";"NST_correctLoc";"9";"0";"FINISHED";"LEFT";"success";"327";"0";"2014-10-16 12:26:59.768";"2";;;;;;;;;;;;;;;;;;;;;;;;;;;;;;;;;;;;;;;;;;;;;;;;;;;;;;;;;
"c1226961";"11/07/93";;"Windows 7";"Rachel's Experiment (D.T.)";"1.0";"2";"1";"1";"2";"1";"1";"2014-10-16 12:24:33.970";"2014-10-16 12:36:38.295";"1";"1";"0";"39";"38";"module.training_block1.exec-3137.GoNoGo1";;;;;;;;;;;;;;;;;;;;;;;"1258";"2014-10-16 12:27:03.575";"NST_correctLoc";"24";"0";"FINISHED";"LEFT";"success";"352";"0";"2014-10-16 12:27:02.311";"3";;;;;;;;;;;;;;;;;;;;;;;;;;;;;;;;;;;;;;;;;;;;;;;;;;;;;;;;;
"c1226961";"11/07/93";;"Windows 7";"Rachel's Experiment (D.T.)";"1.0";"2";"1";"1";"2";"1";"1";"2014-10-16 12:24:33.970";"2014-10-16 12:36:38.295";"1";"1";"0";"40";"39";"module.training_block1.exec-3137.GoNoGo1";;;;;;;;;;;;;;;;;;;;;;;"1261";"2014-10-16 12:27:06.117";"NST_correctLoc";"27";"0";"FINISHED";"LEFT";"success";"309";"0";"2014-10-16 12:27:04.854";"3";;;;;;;;;;;;;;;;;;;;;;;;;;;;;;;;;;;;;;;;;;;;;;;;;;;;;;;;;
"c1226961";"11/07/93";;"Windows 7";"Rachel's Experiment (D.T.)";"1.0";"2";"1";"1";"2";"1";"1";"2014-10-16 12:24:33.970";"2014-10-16 12:36:38.295";"1";"1";"0";"41";"40";"module.training_block1.exec-3137.GoNoGo1";;;;;;;;;;;;;;;;;;;;;;;"1257";"2014-10-16 12:27:08.660";"NST_correctLoc";"4";"1";"FINISHED";"RIGHT";"success";"322";"0";"2014-10-16 12:27:07.397";"1";;;;;;;;;;;;;;;;;;;;;;;;;;;;;;;;;;;;;;;;;;;;;;;;;;;;;;;;;
"c1226961";"11/07/93";;"Windows 7";"Rachel's Experiment (D.T.)";"1.0";"2";"1";"1";"2";"1";"1";"2014-10-16 12:24:33.970";"2014-10-16 12:36:38.295";"1";"1";"0";"42";"41";"module.training_block1.exec-3137.GoNoGo1";;;;;;;;;;;;;;;;;;;;;;;"1258";"2014-10-16 12:27:11.203";"NST_correctLoc";"16";"0";"FINISHED";"LEFT";"success";"340";"0";"2014-10-16 12:27:09.939";"2";;;;;;;;;;;;;;;;;;;;;;;;;;;;;;;;;;;;;;;;;;;;;;;;;;;;;;;;;
"c1226961";"11/07/93";;"Windows 7";"Rachel's Experiment (D.T.)";"1.0";"2";"1";"1";"2";"1";"1";"2014-10-16 12:24:33.970";"2014-10-16 12:36:38.295";"1";"1";"0";"43";"42";"module.training_block1.exec-3137.GoNoGo1";;;;;;;;;;;;;;;;;;;;;;;"1261";"2014-10-16 12:27:13.746";"NST_correctLoc";"2";"1";"FINISHED";"RIGHT";"success";"592";"0";"2014-10-16 12:27:12.482";"1";;;;;;;;;;;;;;;;;;;;;;;;;;;;;;;;;;;;;;;;;;;;;;;;;;;;;;;;;
"c1226961";"11/07/93";;"Windows 7";"Rachel's Experiment (D.T.)";"1.0";"2";"1";"1";"2";"1";"1";"2014-10-16 12:24:33.970";"2014-10-16 12:36:38.295";"1";"1";"0";"44";"43";"module.training_block1.exec-3137.GoNoGo1";;;;;;;;;;;;;;;;;;;;;;;"1261";"2014-10-16 12:27:16.289";"NST_correctLoc";"18";"0";"FINISHED";"LEFT";"success";"378";"0";"2014-10-16 12:27:15.025";"3";;;;;;;;;;;;;;;;;;;;;;;;;;;;;;;;;;;;;;;;;;;;;;;;;;;;;;;;;
"c1226961";"11/07/93";;"Windows 7";"Rachel's Experiment (D.T.)";"1.0";"2";"1";"1";"2";"1";"1";"2014-10-16 12:24:33.970";"2014-10-16 12:36:38.295";"1";"1";"0";"45";"44";"module.training_block1.exec-3137.GoNoGo1";;;;;;;;;;;;;;;;;;;;;;;"1256";"2014-10-16 12:27:18.831";"NST_correctLoc";"32";"1";"FINISHED";"RIGHT";"success";"334";"0";"2014-10-16 12:27:17.568";"3";;;;;;;;;;;;;;;;;;;;;;;;;;;;;;;;;;;;;;;;;;;;;;;;;;;;;;;;;
"c1226961";"11/07/93";;"Windows 7";"Rachel's Experiment (D.T.)";"1.0";"2";"1";"1";"2";"1";"1";"2014-10-16 12:24:33.970";"2014-10-16 12:36:38.295";"1";"1";"0";"46";"45";"module.training_block1.exec-3137.GoNoGo1";;;;;;;;;;;;;;;;;;;;;;;"1258";"2014-10-16 12:27:21.374";"NST_correctLoc";"1";"1";"FINISHED";"RIGHT";"success";"401";"0";"2014-10-16 12:27:20.111";"1";;;;;;;;;;;;;;;;;;;;;;;;;;;;;;;;;;;;;;;;;;;;;;;;;;;;;;;;;
"c1226961";"11/07/93";;"Windows 7";"Rachel's Experiment (D.T.)";"1.0";"2";"1";"1";"2";"1";"1";"2014-10-16 12:24:33.970";"2014-10-16 12:36:38.295";"1";"1";"0";"47";"46";"module.training_block1.exec-3137.GoNoGo1";;;;;;;;;;;;;;;;;;;;;;;"1261";"2014-10-16 12:27:23.917";"NST_correctLoc";"30";"0";"FINISHED";"LEFT";"success";"501";"0";"2014-10-16 12:27:22.653";"3";;;;;;;;;;;;;;;;;;;;;;;;;;;;;;;;;;;;;;;;;;;;;;;;;;;;;;;;;
"c1226961";"11/07/93";;"Windows 7";"Rachel's Experiment (D.T.)";"1.0";"2";"1";"1";"2";"1";"1";"2014-10-16 12:24:33.970";"2014-10-16 12:36:38.295";"1";"1";"0";"48";"47";"module.training_block1.exec-3137.GoNoGo1";;;;;;;;;;;;;;;;;;;;;;;"1257";"2014-10-16 12:27:26.460";"NST_correctLoc";"17";"1";"FINISHED";"RIGHT";"success";"314";"0";"2014-10-16 12:27:25.196";"2";;;;;;;;;;;;;;;;;;;;;;;;;;;;;;;;;;;;;;;;;;;;;;;;;;;;;;;;;
"c1226961";"11/07/93";;"Windows 7";"Rachel's Experiment (D.T.)";"1.0";"2";"1";"1";"2";"1";"1";"2014-10-16 12:24:33.970";"2014-10-16 12:36:38.295";"1";"1";"0";"49";"48";"module.training_block1.exec-3137.GoNoGo1";;;;;;;;;;;;;;;;;;;;;;;"1257";"2014-10-16 12:27:29.003";"NST_correctLoc";"15";"1";"FINISHED";"RIGHT";"success";"332";"0";"2014-10-16 12:27:27.739";"2";;;;;;;;;;;;;;;;;;;;;;;;;;;;;;;;;;;;;;;;;;;;;;;;;;;;;;;;;
"c1226961";"11/07/93";;"Windows 7";"Rachel's Experiment (D.T.)";"1.0";"2";"1";"1";"2";"1";"1";"2014-10-16 12:24:33.970";"2014-10-16 12:36:38.295";"1";"1";"0";"50";"49";"module.training_block1.exec-3137.GoNoGo1";;;;;;;;;;;;;;;;;;;;;;;"1258";"2014-10-16 12:27:31.545";"NST_correctLoc";"19";"0";"FINISHED";"LEFT";"success";"469";"0";"2014-10-16 12:27:30.282";"3";;;;;;;;;;;;;;;;;;;;;;;;;;;;;;;;;;;;;;;;;;;;;;;;;;;;;;;;;
"c1226961";"11/07/93";;"Windows 7";"Rachel's Experiment (D.T.)";"1.0";"2";"1";"1";"2";"1";"1";"2014-10-16 12:24:33.970";"2014-10-16 12:36:38.295";"1";"1";"0";"51";"50";"module.training_block1.exec-3137.GoNoGo1";;;;;;;;;;;;;;;;;;;;;;;"1261";"2014-10-16 12:27:34.088";"NST_miss";"34";"1";"FINISHED";"NONE";"failure";"0";"0";"2014-10-16 12:27:32.825";"3";;;;;;;;;;;;;;;;;;;;;;;;;;;;;;;;;;;;;;;;;;;;;;;;;;;;;;;;;
"c1226961";"11/07/93";;"Windows 7";"Rachel's Experiment (D.T.)";"1.0";"2";"1";"1";"2";"1";"1";"2014-10-16 12:24:33.970";"2014-10-16 12:36:38.295";"1";"1";"0";"52";"51";"module.training_block2.exec-6674.GoNoGo2";;;;;;;;;;;;;;;;;;;;;;;;;;;;;;;;;;;"1261";"2014-10-16 12:27:45.352";"NST_correctLoc";"4";"1";"FINISHED";"RIGHT";"success";"563";"0";"2014-10-16 12:27:44.088";"1";;;;;;;;;;;;;;;;;;;;;;;;;;;;;;;;;;;;;;;;;;;;;
"c1226961";"11/07/93";;"Windows 7";"Rachel's Experiment (D.T.)";"1.0";"2";"1";"1";"2";"1";"1";"2014-10-16 12:24:33.970";"2014-10-16 12:36:38.295";"1";"1";"0";"53";"52";"module.training_block2.exec-6674.GoNoGo2";;;;;;;;;;;;;;;;;;;;;;;;;;;;;;;;;;;"1261";"2014-10-16 12:27:47.894";"NST_correctLoc";"33";"0";"FINISHED";"LEFT";"success";"340";"0";"2014-10-16 12:27:46.631";"3";;;;;;;;;;;;;;;;;;;;;;;;;;;;;;;;;;;;;;;;;;;;;
"c1226961";"11/07/93";;"Windows 7";"Rachel's Experiment (D.T.)";"1.0";"2";"1";"1";"2";"1";"1";"2014-10-16 12:24:33.970";"2014-10-16 12:36:38.295";"1";"1";"0";"54";"53";"module.training_block2.exec-6674.GoNoGo2";;;;;;;;;;;;;;;;;;;;;;;;;;;;;;;;;;;"1261";"2014-10-16 12:27:50.437";"NST_correctLoc";"18";"1";"FINISHED";"RIGHT";"success";"525";"0";"2014-10-16 12:27:49.174";"3";;;;;;;;;;;;;;;;;;;;;;;;;;;;;;;;;;;;;;;;;;;;;
"c1226961";"11/07/93";;"Windows 7";"Rachel's Experiment (D.T.)";"1.0";"2";"1";"1";"2";"1";"1";"2014-10-16 12:24:33.970";"2014-10-16 12:36:38.295";"1";"1";"0";"55";"54";"module.training_block2.exec-6674.GoNoGo2";;;;;;;;;;;;;;;;;;;;;;;;;;;;;;;;;;;"1261";"2014-10-16 12:27:52.980";"NST_correctLoc";"32";"0";"FINISHED";"LEFT";"success";"830";"0";"2014-10-16 12:27:51.716";"3";;;;;;;;;;;;;;;;;;;;;;;;;;;;;;;;;;;;;;;;;;;;;
"c1226961";"11/07/93";;"Windows 7";"Rachel's Experiment (D.T.)";"1.0";"2";"1";"1";"2";"1";"1";"2014-10-16 12:24:33.970";"2014-10-16 12:36:38.295";"1";"1";"0";"56";"55";"module.training_block2.exec-6674.GoNoGo2";;;;;;;;;;;;;;;;;;;;;;;;;;;;;;;;;;;"1261";"2014-10-16 12:27:55.523";"NST_correctLoc";"23";"1";"FINISHED";"RIGHT";"success";"631";"0";"2014-10-16 12:27:54.259";"3";;;;;;;;;;;;;;;;;;;;;;;;;;;;;;;;;;;;;;;;;;;;;
"c1226961";"11/07/93";;"Windows 7";"Rachel's Experiment (D.T.)";"1.0";"2";"1";"1";"2";"1";"1";"2014-10-16 12:24:33.970";"2014-10-16 12:36:38.295";"1";"1";"0";"57";"56";"module.training_block2.exec-6674.GoNoGo2";;;;;;;;;;;;;;;;;;;;;;;;;;;;;;;;;;;"1261";"2014-10-16 12:27:58.066";"NST_correctLoc";"8";"0";"FINISHED";"LEFT";"success";"393";"0";"2014-10-16 12:27:56.802";"1";;;;;;;;;;;;;;;;;;;;;;;;;;;;;;;;;;;;;;;;;;;;;
"c1226961";"11/07/93";;"Windows 7";"Rachel's Experiment (D.T.)";"1.0";"2";"1";"1";"2";"1";"1";"2014-10-16 12:24:33.970";"2014-10-16 12:36:38.295";"1";"1";"0";"58";"57";"module.training_block2.exec-6674.GoNoGo2";;;;;;;;;;;;;;;;;;;;;;;;;;;;;;;;;;;"1261";"2014-10-16 12:28:00.608";"NST_correctLoc";"24";"1";"FINISHED";"RIGHT";"success";"578";"0";"2014-10-16 12:27:59.345";"3";;;;;;;;;;;;;;;;;;;;;;;;;;;;;;;;;;;;;;;;;;;;;
"c1226961";"11/07/93";;"Windows 7";"Rachel's Experiment (D.T.)";"1.0";"2";"1";"1";"2";"1";"1";"2014-10-16 12:24:33.970";"2014-10-16 12:36:38.295";"1";"1";"0";"59";"58";"module.training_block2.exec-6674.GoNoGo2";;;;;;;;;;;;;;;;;;;;;;;;;;;;;;;;;;;"1261";"2014-10-16 12:28:03.151";"NST_correctLoc";"20";"0";"FINISHED";"LEFT";"success";"371";"0";"2014-10-16 12:28:01.888";"3";;;;;;;;;;;;;;;;;;;;;;;;;;;;;;;;;;;;;;;;;;;;;
"c1226961";"11/07/93";;"Windows 7";"Rachel's Experiment (D.T.)";"1.0";"2";"1";"1";"2";"1";"1";"2014-10-16 12:24:33.970";"2014-10-16 12:36:38.295";"1";"1";"0";"60";"59";"module.training_block2.exec-6674.GoNoGo2";;;;;;;;;;;;;;;;;;;;;;;;;;;;;;;;;;;"1261";"2014-10-16 12:28:05.694";"NST_correctLoc";"7";"0";"FINISHED";"LEFT";"success";"364";"0";"2014-10-16 12:28:04.430";"1";;;;;;;;;;;;;;;;;;;;;;;;;;;;;;;;;;;;;;;;;;;;;
"c1226961";"11/07/93";;"Windows 7";"Rachel's Experiment (D.T.)";"1.0";"2";"1";"1";"2";"1";"1";"2014-10-16 12:24:33.970";"2014-10-16 12:36:38.295";"1";"1";"0";"61";"60";"module.training_block2.exec-6674.GoNoGo2";;;;;;;;;;;;;;;;;;;;;;;;;;;;;;;;;;;"1261";"2014-10-16 12:28:08.237";"NST_correctLoc";"29";"1";"FINISHED";"RIGHT";"success";"421";"0";"2014-10-16 12:28:06.973";"3";;;;;;;;;;;;;;;;;;;;;;;;;;;;;;;;;;;;;;;;;;;;;
"c1226961";"11/07/93";;"Windows 7";"Rachel's Experiment (D.T.)";"1.0";"2";"1";"1";"2";"1";"1";"2014-10-16 12:24:33.970";"2014-10-16 12:36:38.295";"1";"1";"0";"62";"61";"module.training_block2.exec-6674.GoNoGo2";;;;;;;;;;;;;;;;;;;;;;;;;;;;;;;;;;;"1261";"2014-10-16 12:28:10.780";"NST_correctLoc";"19";"0";"FINISHED";"LEFT";"success";"1022";"0";"2014-10-16 12:28:09.516";"3";;;;;;;;;;;;;;;;;;;;;;;;;;;;;;;;;;;;;;;;;;;;;
"c1226961";"11/07/93";;"Windows 7";"Rachel's Experiment (D.T.)";"1.0";"2";"1";"1";"2";"1";"1";"2014-10-16 12:24:33.970";"2014-10-16 12:36:38.295";"1";"1";"0";"63";"62";"module.training_block2.exec-6674.GoNoGo2";;;;;;;;;;;;;;;;;;;;;;;;;;;;;;;;;;;"1261";"2014-10-16 12:28:13.322";"NST_correctLoc";"22";"1";"FINISHED";"RIGHT";"success";"616";"0";"2014-10-16 12:28:12.059";"3";;;;;;;;;;;;;;;;;;;;;;;;;;;;;;;;;;;;;;;;;;;;;
"c1226961";"11/07/93";;"Windows 7";"Rachel's Experiment (D.T.)";"1.0";"2";"1";"1";"2";"1";"1";"2014-10-16 12:24:33.970";"2014-10-16 12:36:38.295";"1";"1";"0";"64";"63";"module.training_block2.exec-6674.GoNoGo2";;;;;;;;;;;;;;;;;;;;;;;;;;;;;;;;;;;"1261";"2014-10-16 12:28:15.865";"NST_correctLoc";"25";"1";"FINISHED";"RIGHT";"success";"777";"0";"2014-10-16 12:28:14.602";"3";;;;;;;;;;;;;;;;;;;;;;;;;;;;;;;;;;;;;;;;;;;;;
"c1226961";"11/07/93";;"Windows 7";"Rachel's Experiment (D.T.)";"1.0";"2";"1";"1";"2";"1";"1";"2014-10-16 12:24:33.970";"2014-10-16 12:36:38.295";"1";"1";"0";"65";"64";"module.training_block2.exec-6674.GoNoGo2";;;;;;;;;;;;;;;;;;;;;;;;;;;;;;;;;;;"1261";"2014-10-16 12:28:18.408";"NST_correctLoc";"10";"0";"FINISHED";"LEFT";"success";"298";"0";"2014-10-16 12:28:17.144";"2";;;;;;;;;;;;;;;;;;;;;;;;;;;;;;;;;;;;;;;;;;;;;
"c1226961";"11/07/93";;"Windows 7";"Rachel's Experiment (D.T.)";"1.0";"2";"1";"1";"2";"1";"1";"2014-10-16 12:24:33.970";"2014-10-16 12:36:38.295";"1";"1";"0";"66";"65";"module.training_block2.exec-6674.GoNoGo2";;;;;;;;;;;;;;;;;;;;;;;;;;;;;;;;;;;"1261";"2014-10-16 12:28:20.951";"NST_correctLoc";"26";"1";"FINISHED";"RIGHT";"success";"363";"0";"2014-10-16 12:28:19.687";"3";;;;;;;;;;;;;;;;;;;;;;;;;;;;;;;;;;;;;;;;;;;;;
"c1226961";"11/07/93";;"Windows 7";"Rachel's Experiment (D.T.)";"1.0";"2";"1";"1";"2";"1";"1";"2014-10-16 12:24:33.970";"2014-10-16 12:36:38.295";"1";"1";"0";"67";"66";"module.training_block2.exec-6674.GoNoGo2";;;;;;;;;;;;;;;;;;;;;;;;;;;;;;;;;;;"1261";"2014-10-16 12:28:23.494";"NST_wrongLoc";"27";"0";"FINISHED";"RIGHT";"failure";"284";"0";"2014-10-16 12:28:22.230";"3";;;;;;;;;;;;;;;;;;;;;;;;;;;;;;;;;;;;;;;;;;;;;
"c1226961";"11/07/93";;"Windows 7";"Rachel's Experiment (D.T.)";"1.0";"2";"1";"1";"2";"1";"1";"2014-10-16 12:24:33.970";"2014-10-16 12:36:38.295";"1";"1";"0";"68";"67";"module.training_block2.exec-6674.GoNoGo2";;;;;;;;;;;;;;;;;;;;;;;;;;;;;;;;;;;"1261";"2014-10-16 12:28:26.036";"NST_correctLoc";"2";"0";"FINISHED";"LEFT";"success";"382";"0";"2014-10-16 12:28:24.773";"1";;;;;;;;;;;;;;;;;;;;;;;;;;;;;;;;;;;;;;;;;;;;;
"c1226961";"11/07/93";;"Windows 7";"Rachel's Experiment (D.T.)";"1.0";"2";"1";"1";"2";"1";"1";"2014-10-16 12:24:33.970";"2014-10-16 12:36:38.295";"1";"1";"0";"69";"68";"module.training_block2.exec-6674.GoNoGo2";;;;;;;;;;;;;;;;;;;;;;;;;;;;;;;;;;;"1261";"2014-10-16 12:28:28.579";"NST_correctLoc";"28";"0";"FINISHED";"LEFT";"success";"679";"0";"2014-10-16 12:28:27.316";"3";;;;;;;;;;;;;;;;;;;;;;;;;;;;;;;;;;;;;;;;;;;;;
"c1226961";"11/07/93";;"Windows 7";"Rachel's Experiment (D.T.)";"1.0";"2";"1";"1";"2";"1";"1";"2014-10-16 12:24:33.970";"2014-10-16 12:36:38.295";"1";"1";"0";"70";"69";"module.training_block2.exec-6674.GoNoGo2";;;;;;;;;;;;;;;;;;;;;;;;;;;;;;;;;;;"1261";"2014-10-16 12:28:31.122";"NST_correctLoc";"17";"1";"FINISHED";"RIGHT";"success";"384";"0";"2014-10-16 12:28:29.858";"2";;;;;;;;;;;;;;;;;;;;;;;;;;;;;;;;;;;;;;;;;;;;;
"c1226961";"11/07/93";;"Windows 7";"Rachel's Experiment (D.T.)";"1.0";"2";"1";"1";"2";"1";"1";"2014-10-16 12:24:33.970";"2014-10-16 12:36:38.295";"1";"1";"0";"71";"70";"module.training_block2.exec-6674.GoNoGo2";;;;;;;;;;;;;;;;;;;;;;;;;;;;;;;;;;;"1261";"2014-10-16 12:28:33.665";"NST_correctLoc";"12";"1";"FINISHED";"RIGHT";"success";"377";"0";"2014-10-16 12:28:32.401";"2";;;;;;;;;;;;;;;;;;;;;;;;;;;;;;;;;;;;;;;;;;;;;
"c1226961";"11/07/93";;"Windows 7";"Rachel's Experiment (D.T.)";"1.0";"2";"1";"1";"2";"1";"1";"2014-10-16 12:24:33.970";"2014-10-16 12:36:38.295";"1";"1";"0";"72";"71";"module.training_block2.exec-6674.GoNoGo2";;;;;;;;;;;;;;;;;;;;;;;;;;;;;;;;;;;"1261";"2014-10-16 12:28:36.208";"NST_correctLoc";"9";"0";"FINISHED";"LEFT";"success";"330";"0";"2014-10-16 12:28:34.944";"2";;;;;;;;;;;;;;;;;;;;;;;;;;;;;;;;;;;;;;;;;;;;;
"c1226961";"11/07/93";;"Windows 7";"Rachel's Experiment (D.T.)";"1.0";"2";"1";"1";"2";"1";"1";"2014-10-16 12:24:33.970";"2014-10-16 12:36:38.295";"1";"1";"0";"73";"72";"module.training_block2.exec-6674.GoNoGo2";;;;;;;;;;;;;;;;;;;;;;;;;;;;;;;;;;;"1261";"2014-10-16 12:28:38.750";"NST_correctLoc";"5";"0";"FINISHED";"LEFT";"success";"347";"0";"2014-10-16 12:28:37.487";"1";;;;;;;;;;;;;;;;;;;;;;;;;;;;;;;;;;;;;;;;;;;;;
"c1226961";"11/07/93";;"Windows 7";"Rachel's Experiment (D.T.)";"1.0";"2";"1";"1";"2";"1";"1";"2014-10-16 12:24:33.970";"2014-10-16 12:36:38.295";"1";"1";"0";"74";"73";"module.training_block2.exec-6674.GoNoGo2";;;;;;;;;;;;;;;;;;;;;;;;;;;;;;;;;;;"1261";"2014-10-16 12:28:41.293";"NST_correctLoc";"6";"1";"FINISHED";"RIGHT";"success";"317";"0";"2014-10-16 12:28:40.030";"1";;;;;;;;;;;;;;;;;;;;;;;;;;;;;;;;;;;;;;;;;;;;;
"c1226961";"11/07/93";;"Windows 7";"Rachel's Experiment (D.T.)";"1.0";"2";"1";"1";"2";"1";"1";"2014-10-16 12:24:33.970";"2014-10-16 12:36:38.295";"1";"1";"0";"75";"74";"module.training_block2.exec-6674.GoNoGo2";;;;;;;;;;;;;;;;;;;;;;;;;;;;;;;;;;;"1261";"2014-10-16 12:28:43.836";"NST_correctLoc";"15";"1";"FINISHED";"RIGHT";"success";"446";"0";"2014-10-16 12:28:42.572";"2";;;;;;;;;;;;;;;;;;;;;;;;;;;;;;;;;;;;;;;;;;;;;
"c1226961";"11/07/93";;"Windows 7";"Rachel's Experiment (D.T.)";"1.0";"2";"1";"1";"2";"1";"1";"2014-10-16 12:24:33.970";"2014-10-16 12:36:38.295";"1";"1";"0";"76";"75";"module.training_block2.exec-6674.GoNoGo2";;;;;;;;;;;;;;;;;;;;;;;;;;;;;;;;;;;"1257";"2014-10-16 12:28:46.379";"NST_correctLoc";"13";"0";"FINISHED";"LEFT";"success";"483";"0";"2014-10-16 12:28:45.115";"2";;;;;;;;;;;;;;;;;;;;;;;;;;;;;;;;;;;;;;;;;;;;;
"c1226961";"11/07/93";;"Windows 7";"Rachel's Experiment (D.T.)";"1.0";"2";"1";"1";"2";"1";"1";"2014-10-16 12:24:33.970";"2014-10-16 12:36:38.295";"1";"1";"0";"77";"76";"module.training_block2.exec-6674.GoNoGo2";;;;;;;;;;;;;;;;;;;;;;;;;;;;;;;;;;;"1261";"2014-10-16 12:28:48.922";"NST_correctLoc";"1";"1";"FINISHED";"RIGHT";"success";"416";"0";"2014-10-16 12:28:47.658";"1";;;;;;;;;;;;;;;;;;;;;;;;;;;;;;;;;;;;;;;;;;;;;
"c1226961";"11/07/93";;"Windows 7";"Rachel's Experiment (D.T.)";"1.0";"2";"1";"1";"2";"1";"1";"2014-10-16 12:24:33.970";"2014-10-16 12:36:38.295";"1";"1";"0";"78";"77";"module.training_block2.exec-6674.GoNoGo2";;;;;;;;;;;;;;;;;;;;;;;;;;;;;;;;;;;"1261";"2014-10-16 12:28:51.480";"NST_correctLoc";"21";"0";"FINISHED";"LEFT";"success";"290";"0";"2014-10-16 12:28:50.216";"3";;;;;;;;;;;;;;;;;;;;;;;;;;;;;;;;;;;;;;;;;;;;;
"c1226961";"11/07/93";;"Windows 7";"Rachel's Experiment (D.T.)";"1.0";"2";"1";"1";"2";"1";"1";"2014-10-16 12:24:33.970";"2014-10-16 12:36:38.295";"1";"1";"0";"79";"78";"module.training_block2.exec-6674.GoNoGo2";;;;;;;;;;;;;;;;;;;;;;;;;;;;;;;;;;;"1261";"2014-10-16 12:28:54.023";"NST_correctLoc";"0";"0";"FINISHED";"LEFT";"success";"371";"0";"2014-10-16 12:28:52.759";"1";;;;;;;;;;;;;;;;;;;;;;;;;;;;;;;;;;;;;;;;;;;;;
"c1226961";"11/07/93";;"Windows 7";"Rachel's Experiment (D.T.)";"1.0";"2";"1";"1";"2";"1";"1";"2014-10-16 12:24:33.970";"2014-10-16 12:36:38.295";"1";"1";"0";"80";"79";"module.training_block2.exec-6674.GoNoGo2";;;;;;;;;;;;;;;;;;;;;;;;;;;;;;;;;;;"1261";"2014-10-16 12:28:56.566";"NST_correctLoc";"30";"0";"FINISHED";"LEFT";"success";"524";"0";"2014-10-16 12:28:55.302";"3";;;;;;;;;;;;;;;;;;;;;;;;;;;;;;;;;;;;;;;;;;;;;
"c1226961";"11/07/93";;"Windows 7";"Rachel's Experiment (D.T.)";"1.0";"2";"1";"1";"2";"1";"1";"2014-10-16 12:24:33.970";"2014-10-16 12:36:38.295";"1";"1";"0";"81";"80";"module.training_block2.exec-6674.GoNoGo2";;;;;;;;;;;;;;;;;;;;;;;;;;;;;;;;;;;"1261";"2014-10-16 12:28:59.108";"NST_correctLoc";"14";"0";"FINISHED";"LEFT";"success";"325";"0";"2014-10-16 12:28:57.845";"2";;;;;;;;;;;;;;;;;;;;;;;;;;;;;;;;;;;;;;;;;;;;;
"c1226961";"11/07/93";;"Windows 7";"Rachel's Experiment (D.T.)";"1.0";"2";"1";"1";"2";"1";"1";"2014-10-16 12:24:33.970";"2014-10-16 12:36:38.295";"1";"1";"0";"82";"81";"module.training_block2.exec-6674.GoNoGo2";;;;;;;;;;;;;;;;;;;;;;;;;;;;;;;;;;;"1261";"2014-10-16 12:29:01.651";"NST_correctLoc";"16";"1";"FINISHED";"RIGHT";"success";"422";"0";"2014-10-16 12:29:00.388";"2";;;;;;;;;;;;;;;;;;;;;;;;;;;;;;;;;;;;;;;;;;;;;
"c1226961";"11/07/93";;"Windows 7";"Rachel's Experiment (D.T.)";"1.0";"2";"1";"1";"2";"1";"1";"2014-10-16 12:24:33.970";"2014-10-16 12:36:38.295";"1";"1";"0";"83";"82";"module.training_block2.exec-6674.GoNoGo2";;;;;;;;;;;;;;;;;;;;;;;;;;;;;;;;;;;"1261";"2014-10-16 12:29:04.194";"NST_correctLoc";"34";"1";"FINISHED";"RIGHT";"success";"312";"0";"2014-10-16 12:29:02.930";"3";;;;;;;;;;;;;;;;;;;;;;;;;;;;;;;;;;;;;;;;;;;;;
"c1226961";"11/07/93";;"Windows 7";"Rachel's Experiment (D.T.)";"1.0";"2";"1";"1";"2";"1";"1";"2014-10-16 12:24:33.970";"2014-10-16 12:36:38.295";"1";"1";"0";"84";"83";"module.training_block2.exec-6674.GoNoGo2";;;;;;;;;;;;;;;;;;;;;;;;;;;;;;;;;;;"1261";"2014-10-16 12:29:06.737";"NST_correctLoc";"35";"1";"FINISHED";"RIGHT";"success";"585";"0";"2014-10-16 12:29:05.473";"3";;;;;;;;;;;;;;;;;;;;;;;;;;;;;;;;;;;;;;;;;;;;;
"c1226961";"11/07/93";;"Windows 7";"Rachel's Experiment (D.T.)";"1.0";"2";"1";"1";"2";"1";"1";"2014-10-16 12:24:33.970";"2014-10-16 12:36:38.295";"1";"1";"0";"85";"84";"module.training_block2.exec-6674.GoNoGo2";;;;;;;;;;;;;;;;;;;;;;;;;;;;;;;;;;;"1261";"2014-10-16 12:29:09.295";"NST_correctLoc";"11";"0";"FINISHED";"LEFT";"success";"314";"0";"2014-10-16 12:29:08.032";"2";;;;;;;;;;;;;;;;;;;;;;;;;;;;;;;;;;;;;;;;;;;;;
"c1226961";"11/07/93";;"Windows 7";"Rachel's Experiment (D.T.)";"1.0";"2";"1";"1";"2";"1";"1";"2014-10-16 12:24:33.970";"2014-10-16 12:36:38.295";"1";"1";"0";"86";"85";"module.training_block2.exec-6674.GoNoGo2";;;;;;;;;;;;;;;;;;;;;;;;;;;;;;;;;;;"1261";"2014-10-16 12:29:11.838";"NST_correctLoc";"3";"0";"FINISHED";"LEFT";"success";"364";"0";"2014-10-16 12:29:10.574";"1";;;;;;;;;;;;;;;;;;;;;;;;;;;;;;;;;;;;;;;;;;;;;
"c1226961";"11/07/93";;"Windows 7";"Rachel's Experiment (D.T.)";"1.0";"2";"1";"1";"2";"1";"1";"2014-10-16 12:24:33.970";"2014-10-16 12:36:38.295";"1";"1";"0";"87";"86";"module.training_block2.exec-6674.GoNoGo2";;;;;;;;;;;;;;;;;;;;;;;;;;;;;;;;;;;"1261";"2014-10-16 12:29:14.396";"NST_correctLoc";"31";"0";"FINISHED";"LEFT";"success";"365";"0";"2014-10-16 12:29:13.133";"3";;;;;;;;;;;;;;;;;;;;;;;;;;;;;;;;;;;;;;;;;;;;;
"c1226961";"11/07/93";;"Windows 7";"Rachel's Experiment (D.T.)";"1.0";"2";"1";"1";"2";"1";"1";"2014-10-16 12:24:33.970";"2014-10-16 12:36:38.295";"1";"1";"0";"88";"87";"module.training_block3.exec-5931.GoNoGo3";;;;;;;;;;;;;;;;;;;;;;;;;;;;;;;;;;;;;;;;;;;;;;;"1261";"2014-10-16 12:29:25.316";"NST_correctLoc";"34";"1";"FINISHED";"RIGHT";"success";"477";"0";"2014-10-16 12:29:24.053";"3";;;;;;;;;;;;;;;;;;;;;;;;;;;;;;;;;
"c1226961";"11/07/93";;"Windows 7";"Rachel's Experiment (D.T.)";"1.0";"2";"1";"1";"2";"1";"1";"2014-10-16 12:24:33.970";"2014-10-16 12:36:38.295";"1";"1";"0";"89";"88";"module.training_block3.exec-5931.GoNoGo3";;;;;;;;;;;;;;;;;;;;;;;;;;;;;;;;;;;;;;;;;;;;;;;"1262";"2014-10-16 12:29:27.859";"NST_correctLoc";"22";"1";"FINISHED";"RIGHT";"success";"374";"0";"2014-10-16 12:29:26.596";"3";;;;;;;;;;;;;;;;;;;;;;;;;;;;;;;;;
"c1226961";"11/07/93";;"Windows 7";"Rachel's Experiment (D.T.)";"1.0";"2";"1";"1";"2";"1";"1";"2014-10-16 12:24:33.970";"2014-10-16 12:36:38.295";"1";"1";"0";"90";"89";"module.training_block3.exec-5931.GoNoGo3";;;;;;;;;;;;;;;;;;;;;;;;;;;;;;;;;;;;;;;;;;;;;;;"1261";"2014-10-16 12:29:30.402";"NST_correctLoc";"13";"0";"FINISHED";"LEFT";"success";"352";"0";"2014-10-16 12:29:29.138";"2";;;;;;;;;;;;;;;;;;;;;;;;;;;;;;;;;
"c1226961";"11/07/93";;"Windows 7";"Rachel's Experiment (D.T.)";"1.0";"2";"1";"1";"2";"1";"1";"2014-10-16 12:24:33.970";"2014-10-16 12:36:38.295";"1";"1";"0";"91";"90";"module.training_block3.exec-5931.GoNoGo3";;;;;;;;;;;;;;;;;;;;;;;;;;;;;;;;;;;;;;;;;;;;;;;"1261";"2014-10-16 12:29:32.929";"NST_correctLoc";"31";"1";"FINISHED";"RIGHT";"success";"536";"0";"2014-10-16 12:29:31.666";"3";;;;;;;;;;;;;;;;;;;;;;;;;;;;;;;;;
"c1226961";"11/07/93";;"Windows 7";"Rachel's Experiment (D.T.)";"1.0";"2";"1";"1";"2";"1";"1";"2014-10-16 12:24:33.970";"2014-10-16 12:36:38.295";"1";"1";"0";"92";"91";"module.training_block3.exec-5931.GoNoGo3";;;;;;;;;;;;;;;;;;;;;;;;;;;;;;;;;;;;;;;;;;;;;;;"1262";"2014-10-16 12:29:35.472";"NST_correctLoc";"32";"1";"FINISHED";"RIGHT";"success";"634";"0";"2014-10-16 12:29:34.209";"3";;;;;;;;;;;;;;;;;;;;;;;;;;;;;;;;;
"c1226961";"11/07/93";;"Windows 7";"Rachel's Experiment (D.T.)";"1.0";"2";"1";"1";"2";"1";"1";"2014-10-16 12:24:33.970";"2014-10-16 12:36:38.295";"1";"1";"0";"93";"92";"module.training_block3.exec-5931.GoNoGo3";;;;;;;;;;;;;;;;;;;;;;;;;;;;;;;;;;;;;;;;;;;;;;;"1261";"2014-10-16 12:29:38.015";"NST_correctLoc";"21";"0";"FINISHED";"LEFT";"success";"539";"0";"2014-10-16 12:29:36.751";"3";;;;;;;;;;;;;;;;;;;;;;;;;;;;;;;;;
"c1226961";"11/07/93";;"Windows 7";"Rachel's Experiment (D.T.)";"1.0";"2";"1";"1";"2";"1";"1";"2014-10-16 12:24:33.970";"2014-10-16 12:36:38.295";"1";"1";"0";"94";"93";"module.training_block3.exec-5931.GoNoGo3";;;;;;;;;;;;;;;;;;;;;;;;;;;;;;;;;;;;;;;;;;;;;;;"1261";"2014-10-16 12:29:40.558";"NST_correctLoc";"3";"1";"FINISHED";"RIGHT";"success";"380";"0";"2014-10-16 12:29:39.294";"1";;;;;;;;;;;;;;;;;;;;;;;;;;;;;;;;;
"c1226961";"11/07/93";;"Windows 7";"Rachel's Experiment (D.T.)";"1.0";"2";"1";"1";"2";"1";"1";"2014-10-16 12:24:33.970";"2014-10-16 12:36:38.295";"1";"1";"0";"95";"94";"module.training_block3.exec-5931.GoNoGo3";;;;;;;;;;;;;;;;;;;;;;;;;;;;;;;;;;;;;;;;;;;;;;;"1261";"2014-10-16 12:29:43.101";"NST_correctLoc";"28";"1";"FINISHED";"RIGHT";"success";"365";"0";"2014-10-16 12:29:41.837";"3";;;;;;;;;;;;;;;;;;;;;;;;;;;;;;;;;
"c1226961";"11/07/93";;"Windows 7";"Rachel's Experiment (D.T.)";"1.0";"2";"1";"1";"2";"1";"1";"2014-10-16 12:24:33.970";"2014-10-16 12:36:38.295";"1";"1";"0";"96";"95";"module.training_block3.exec-5931.GoNoGo3";;;;;;;;;;;;;;;;;;;;;;;;;;;;;;;;;;;;;;;;;;;;;;;"1261";"2014-10-16 12:29:45.628";"NST_correctLoc";"26";"0";"FINISHED";"LEFT";"success";"310";"0";"2014-10-16 12:29:44.364";"3";;;;;;;;;;;;;;;;;;;;;;;;;;;;;;;;;
"c1226961";"11/07/93";;"Windows 7";"Rachel's Experiment (D.T.)";"1.0";"2";"1";"1";"2";"1";"1";"2014-10-16 12:24:33.970";"2014-10-16 12:36:38.295";"1";"1";"0";"97";"96";"module.training_block3.exec-5931.GoNoGo3";;;;;;;;;;;;;;;;;;;;;;;;;;;;;;;;;;;;;;;;;;;;;;;"1261";"2014-10-16 12:29:48.171";"NST_correctLoc";"29";"0";"FINISHED";"LEFT";"success";"903";"0";"2014-10-16 12:29:46.907";"3";;;;;;;;;;;;;;;;;;;;;;;;;;;;;;;;;
"c1226961";"11/07/93";;"Windows 7";"Rachel's Experiment (D.T.)";"1.0";"2";"1";"1";"2";"1";"1";"2014-10-16 12:24:33.970";"2014-10-16 12:36:38.295";"1";"1";"0";"98";"97";"module.training_block3.exec-5931.GoNoGo3";;;;;;;;;;;;;;;;;;;;;;;;;;;;;;;;;;;;;;;;;;;;;;;"1261";"2014-10-16 12:29:50.729";"NST_correctLoc";"30";"0";"FINISHED";"LEFT";"success";"313";"0";"2014-10-16 12:29:49.465";"3";;;;;;;;;;;;;;;;;;;;;;;;;;;;;;;;;
"c1226961";"11/07/93";;"Windows 7";"Rachel's Experiment (D.T.)";"1.0";"2";"1";"1";"2";"1";"1";"2014-10-16 12:24:33.970";"2014-10-16 12:36:38.295";"1";"1";"0";"99";"98";"module.training_block3.exec-5931.GoNoGo3";;;;;;;;;;;;;;;;;;;;;;;;;;;;;;;;;;;;;;;;;;;;;;;"1262";"2014-10-16 12:29:53.272";"NST_correctLoc";"24";"1";"FINISHED";"RIGHT";"success";"346";"0";"2014-10-16 12:29:52.008";"3";;;;;;;;;;;;;;;;;;;;;;;;;;;;;;;;;
"c1226961";"11/07/93";;"Windows 7";"Rachel's Experiment (D.T.)";"1.0";"2";"1";"1";"2";"1";"1";"2014-10-16 12:24:33.970";"2014-10-16 12:36:38.295";"1";"1";"0";"100";"99";"module.training_block3.exec-5931.GoNoGo3";;;;;;;;;;;;;;;;;;;;;;;;;;;;;;;;;;;;;;;;;;;;;;;"1258";"2014-10-16 12:29:55.815";"NST_correctLoc";"19";"0";"FINISHED";"LEFT";"success";"272";"0";"2014-10-16 12:29:54.551";"3";;;;;;;;;;;;;;;;;;;;;;;;;;;;;;;;;
"c1226961";"11/07/93";;"Windows 7";"Rachel's Experiment (D.T.)";"1.0";"2";"1";"1";"2";"1";"1";"2014-10-16 12:24:33.970";"2014-10-16 12:36:38.295";"1";"1";"0";"101";"100";"module.training_block3.exec-5931.GoNoGo3";;;;;;;;;;;;;;;;;;;;;;;;;;;;;;;;;;;;;;;;;;;;;;;"1261";"2014-10-16 12:29:58.357";"NST_correctLoc";"25";"1";"FINISHED";"RIGHT";"success";"476";"0";"2014-10-16 12:29:57.094";"3";;;;;;;;;;;;;;;;;;;;;;;;;;;;;;;;;
"c1226961";"11/07/93";;"Windows 7";"Rachel's Experiment (D.T.)";"1.0";"2";"1";"1";"2";"1";"1";"2014-10-16 12:24:33.970";"2014-10-16 12:36:38.295";"1";"1";"0";"102";"101";"module.training_block3.exec-5931.GoNoGo3";;;;;;;;;;;;;;;;;;;;;;;;;;;;;;;;;;;;;;;;;;;;;;;"1262";"2014-10-16 12:30:00.900";"NST_correctLoc";"6";"0";"FINISHED";"LEFT";"success";"301";"0";"2014-10-16 12:29:59.637";"1";;;;;;;;;;;;;;;;;;;;;;;;;;;;;;;;;
"c1226961";"11/07/93";;"Windows 7";"Rachel's Experiment (D.T.)";"1.0";"2";"1";"1";"2";"1";"1";"2014-10-16 12:24:33.970";"2014-10-16 12:36:38.295";"1";"1";"0";"103";"102";"module.training_block3.exec-5931.GoNoGo3";;;;;;;;;;;;;;;;;;;;;;;;;;;;;;;;;;;;;;;;;;;;;;;"1262";"2014-10-16 12:30:03.443";"NST_correctLoc";"35";"0";"FINISHED";"LEFT";"success";"366";"0";"2014-10-16 12:30:02.179";"3";;;;;;;;;;;;;;;;;;;;;;;;;;;;;;;;;
"c1226961";"11/07/93";;"Windows 7";"Rachel's Experiment (D.T.)";"1.0";"2";"1";"1";"2";"1";"1";"2014-10-16 12:24:33.970";"2014-10-16 12:36:38.295";"1";"1";"0";"104";"103";"module.training_block3.exec-5931.GoNoGo3";;;;;;;;;;;;;;;;;;;;;;;;;;;;;;;;;;;;;;;;;;;;;;;"1261";"2014-10-16 12:30:05.986";"NST_correctLoc";"27";"0";"FINISHED";"LEFT";"success";"376";"0";"2014-10-16 12:30:04.722";"3";;;;;;;;;;;;;;;;;;;;;;;;;;;;;;;;;
"c1226961";"11/07/93";;"Windows 7";"Rachel's Experiment (D.T.)";"1.0";"2";"1";"1";"2";"1";"1";"2014-10-16 12:24:33.970";"2014-10-16 12:36:38.295";"1";"1";"0";"105";"104";"module.training_block3.exec-5931.GoNoGo3";;;;;;;;;;;;;;;;;;;;;;;;;;;;;;;;;;;;;;;;;;;;;;;"1261";"2014-10-16 12:30:08.529";"NST_correctLoc";"0";"0";"FINISHED";"LEFT";"success";"297";"0";"2014-10-16 12:30:07.265";"1";;;;;;;;;;;;;;;;;;;;;;;;;;;;;;;;;
"c1226961";"11/07/93";;"Windows 7";"Rachel's Experiment (D.T.)";"1.0";"2";"1";"1";"2";"1";"1";"2014-10-16 12:24:33.970";"2014-10-16 12:36:38.295";"1";"1";"0";"106";"105";"module.training_block3.exec-5931.GoNoGo3";;;;;;;;;;;;;;;;;;;;;;;;;;;;;;;;;;;;;;;;;;;;;;;"1261";"2014-10-16 12:30:11.071";"NST_correctLoc";"12";"0";"FINISHED";"LEFT";"success";"338";"0";"2014-10-16 12:30:09.808";"2";;;;;;;;;;;;;;;;;;;;;;;;;;;;;;;;;
"c1226961";"11/07/93";;"Windows 7";"Rachel's Experiment (D.T.)";"1.0";"2";"1";"1";"2";"1";"1";"2014-10-16 12:24:33.970";"2014-10-16 12:36:38.295";"1";"1";"0";"107";"106";"module.training_block3.exec-5931.GoNoGo3";;;;;;;;;;;;;;;;;;;;;;;;;;;;;;;;;;;;;;;;;;;;;;;"1261";"2014-10-16 12:30:13.614";"NST_wrongLoc";"1";"1";"FINISHED";"LEFT";"failure";"275";"0";"2014-10-16 12:30:12.351";"1";;;;;;;;;;;;;;;;;;;;;;;;;;;;;;;;;
"c1226961";"11/07/93";;"Windows 7";"Rachel's Experiment (D.T.)";"1.0";"2";"1";"1";"2";"1";"1";"2014-10-16 12:24:33.970";"2014-10-16 12:36:38.295";"1";"1";"0";"108";"107";"module.training_block3.exec-5931.GoNoGo3";;;;;;;;;;;;;;;;;;;;;;;;;;;;;;;;;;;;;;;;;;;;;;;"1262";"2014-10-16 12:30:16.157";"NST_correctLoc";"14";"0";"FINISHED";"LEFT";"success";"420";"0";"2014-10-16 12:30:14.893";"2";;;;;;;;;;;;;;;;;;;;;;;;;;;;;;;;;
"c1226961";"11/07/93";;"Windows 7";"Rachel's Experiment (D.T.)";"1.0";"2";"1";"1";"2";"1";"1";"2014-10-16 12:24:33.970";"2014-10-16 12:36:38.295";"1";"1";"0";"109";"108";"module.training_block3.exec-5931.GoNoGo3";;;;;;;;;;;;;;;;;;;;;;;;;;;;;;;;;;;;;;;;;;;;;;;"1261";"2014-10-16 12:30:18.700";"NST_correctLoc";"4";"1";"FINISHED";"RIGHT";"success";"373";"0";"2014-10-16 12:30:17.436";"1";;;;;;;;;;;;;;;;;;;;;;;;;;;;;;;;;
"c1226961";"11/07/93";;"Windows 7";"Rachel's Experiment (D.T.)";"1.0";"2";"1";"1";"2";"1";"1";"2014-10-16 12:24:33.970";"2014-10-16 12:36:38.295";"1";"1";"0";"110";"109";"module.training_block3.exec-5931.GoNoGo3";;;;;;;;;;;;;;;;;;;;;;;;;;;;;;;;;;;;;;;;;;;;;;;"1261";"2014-10-16 12:30:21.227";"NST_correctLoc";"9";"1";"FINISHED";"RIGHT";"success";"598";"0";"2014-10-16 12:30:19.963";"2";;;;;;;;;;;;;;;;;;;;;;;;;;;;;;;;;
"c1226961";"11/07/93";;"Windows 7";"Rachel's Experiment (D.T.)";"1.0";"2";"1";"1";"2";"1";"1";"2014-10-16 12:24:33.970";"2014-10-16 12:36:38.295";"1";"1";"0";"111";"110";"module.training_block3.exec-5931.GoNoGo3";;;;;;;;;;;;;;;;;;;;;;;;;;;;;;;;;;;;;;;;;;;;;;;"1261";"2014-10-16 12:30:23.770";"NST_correctLoc";"17";"0";"FINISHED";"LEFT";"success";"335";"0";"2014-10-16 12:30:22.506";"2";;;;;;;;;;;;;;;;;;;;;;;;;;;;;;;;;
"c1226961";"11/07/93";;"Windows 7";"Rachel's Experiment (D.T.)";"1.0";"2";"1";"1";"2";"1";"1";"2014-10-16 12:24:33.970";"2014-10-16 12:36:38.295";"1";"1";"0";"112";"111";"module.training_block3.exec-5931.GoNoGo3";;;;;;;;;;;;;;;;;;;;;;;;;;;;;;;;;;;;;;;;;;;;;;;"1261";"2014-10-16 12:30:26.328";"NST_correctLoc";"11";"1";"FINISHED";"RIGHT";"success";"401";"0";"2014-10-16 12:30:25.065";"2";;;;;;;;;;;;;;;;;;;;;;;;;;;;;;;;;
"c1226961";"11/07/93";;"Windows 7";"Rachel's Experiment (D.T.)";"1.0";"2";"1";"1";"2";"1";"1";"2014-10-16 12:24:33.970";"2014-10-16 12:36:38.295";"1";"1";"0";"113";"112";"module.training_block3.exec-5931.GoNoGo3";;;;;;;;;;;;;;;;;;;;;;;;;;;;;;;;;;;;;;;;;;;;;;;"1261";"2014-10-16 12:30:28.855";"NST_correctLoc";"7";"1";"FINISHED";"RIGHT";"success";"442";"0";"2014-10-16 12:30:27.592";"1";;;;;;;;;;;;;;;;;;;;;;;;;;;;;;;;;
"c1226961";"11/07/93";;"Windows 7";"Rachel's Experiment (D.T.)";"1.0";"2";"1";"1";"2";"1";"1";"2014-10-16 12:24:33.970";"2014-10-16 12:36:38.295";"1";"1";"0";"114";"113";"module.training_block3.exec-5931.GoNoGo3";;;;;;;;;;;;;;;;;;;;;;;;;;;;;;;;;;;;;;;;;;;;;;;"1261";"2014-10-16 12:30:31.398";"NST_correctLoc";"5";"0";"FINISHED";"LEFT";"success";"315";"0";"2014-10-16 12:30:30.135";"1";;;;;;;;;;;;;;;;;;;;;;;;;;;;;;;;;
"c1226961";"11/07/93";;"Windows 7";"Rachel's Experiment (D.T.)";"1.0";"2";"1";"1";"2";"1";"1";"2014-10-16 12:24:33.970";"2014-10-16 12:36:38.295";"1";"1";"0";"115";"114";"module.training_block3.exec-5931.GoNoGo3";;;;;;;;;;;;;;;;;;;;;;;;;;;;;;;;;;;;;;;;;;;;;;;"1262";"2014-10-16 12:30:33.941";"NST_correctLoc";"8";"0";"FINISHED";"LEFT";"success";"396";"0";"2014-10-16 12:30:32.677";"1";;;;;;;;;;;;;;;;;;;;;;;;;;;;;;;;;
"c1226961";"11/07/93";;"Windows 7";"Rachel's Experiment (D.T.)";"1.0";"2";"1";"1";"2";"1";"1";"2014-10-16 12:24:33.970";"2014-10-16 12:36:38.295";"1";"1";"0";"116";"115";"module.training_block3.exec-5931.GoNoGo3";;;;;;;;;;;;;;;;;;;;;;;;;;;;;;;;;;;;;;;;;;;;;;;"1261";"2014-10-16 12:30:36.468";"NST_correctLoc";"18";"1";"FINISHED";"RIGHT";"success";"293";"0";"2014-10-16 12:30:35.205";"3";;;;;;;;;;;;;;;;;;;;;;;;;;;;;;;;;
"c1226961";"11/07/93";;"Windows 7";"Rachel's Experiment (D.T.)";"1.0";"2";"1";"1";"2";"1";"1";"2014-10-16 12:24:33.970";"2014-10-16 12:36:38.295";"1";"1";"0";"117";"116";"module.training_block3.exec-5931.GoNoGo3";;;;;;;;;;;;;;;;;;;;;;;;;;;;;;;;;;;;;;;;;;;;;;;"1262";"2014-10-16 12:30:38.995";"NST_correctLoc";"10";"0";"FINISHED";"LEFT";"success";"334";"0";"2014-10-16 12:30:37.732";"2";;;;;;;;;;;;;;;;;;;;;;;;;;;;;;;;;
"c1226961";"11/07/93";;"Windows 7";"Rachel's Experiment (D.T.)";"1.0";"2";"1";"1";"2";"1";"1";"2014-10-16 12:24:33.970";"2014-10-16 12:36:38.295";"1";"1";"0";"118";"117";"module.training_block3.exec-5931.GoNoGo3";;;;;;;;;;;;;;;;;;;;;;;;;;;;;;;;;;;;;;;;;;;;;;;"1261";"2014-10-16 12:30:41.523";"NST_correctLoc";"33";"1";"FINISHED";"RIGHT";"success";"318";"0";"2014-10-16 12:30:40.259";"3";;;;;;;;;;;;;;;;;;;;;;;;;;;;;;;;;
"c1226961";"11/07/93";;"Windows 7";"Rachel's Experiment (D.T.)";"1.0";"2";"1";"1";"2";"1";"1";"2014-10-16 12:24:33.970";"2014-10-16 12:36:38.295";"1";"1";"0";"119";"118";"module.training_block3.exec-5931.GoNoGo3";;;;;;;;;;;;;;;;;;;;;;;;;;;;;;;;;;;;;;;;;;;;;;;"1262";"2014-10-16 12:30:44.050";"NST_correctLoc";"23";"0";"FINISHED";"LEFT";"success";"351";"0";"2014-10-16 12:30:42.786";"3";;;;;;;;;;;;;;;;;;;;;;;;;;;;;;;;;
"c1226961";"11/07/93";;"Windows 7";"Rachel's Experiment (D.T.)";"1.0";"2";"1";"1";"2";"1";"1";"2014-10-16 12:24:33.970";"2014-10-16 12:36:38.295";"1";"1";"0";"120";"119";"module.training_block3.exec-5931.GoNoGo3";;;;;;;;;;;;;;;;;;;;;;;;;;;;;;;;;;;;;;;;;;;;;;;"1261";"2014-10-16 12:30:46.577";"NST_correctLoc";"16";"1";"FINISHED";"RIGHT";"success";"816";"0";"2014-10-16 12:30:45.313";"2";;;;;;;;;;;;;;;;;;;;;;;;;;;;;;;;;
"c1226961";"11/07/93";;"Windows 7";"Rachel's Experiment (D.T.)";"1.0";"2";"1";"1";"2";"1";"1";"2014-10-16 12:24:33.970";"2014-10-16 12:36:38.295";"1";"1";"0";"121";"120";"module.training_block3.exec-5931.GoNoGo3";;;;;;;;;;;;;;;;;;;;;;;;;;;;;;;;;;;;;;;;;;;;;;;"1261";"2014-10-16 12:30:49.104";"NST_correctLoc";"20";"1";"FINISHED";"RIGHT";"success";"817";"0";"2014-10-16 12:30:47.841";"3";;;;;;;;;;;;;;;;;;;;;;;;;;;;;;;;;
"c1226961";"11/07/93";;"Windows 7";"Rachel's Experiment (D.T.)";"1.0";"2";"1";"1";"2";"1";"1";"2014-10-16 12:24:33.970";"2014-10-16 12:36:38.295";"1";"1";"0";"122";"121";"module.training_block3.exec-5931.GoNoGo3";;;;;;;;;;;;;;;;;;;;;;;;;;;;;;;;;;;;;;;;;;;;;;;"1261";"2014-10-16 12:30:51.647";"NST_correctLoc";"15";"0";"FINISHED";"LEFT";"success";"290";"0";"2014-10-16 12:30:50.383";"2";;;;;;;;;;;;;;;;;;;;;;;;;;;;;;;;;
"c1226961";"11/07/93";;"Windows 7";"Rachel's Experiment (D.T.)";"1.0";"2";"1";"1";"2";"1";"1";"2014-10-16 12:24:33.970";"2014-10-16 12:36:38.295";"1";"1";"0";"123";"122";"module.training_block3.exec-5931.GoNoGo3";;;;;;;;;;;;;;;;;;;;;;;;;;;;;;;;;;;;;;;;;;;;;;;"1261";"2014-10-16 12:30:54.174";"NST_correctLoc";"2";"1";"FINISHED";"RIGHT";"success";"347";"0";"2014-10-16 12:30:52.911";"1";;;;;;;;;;;;;;;;;;;;;;;;;;;;;;;;;
"c1226961";"11/07/93";;"Windows 7";"Rachel's Experiment (D.T.)";"1.0";"2";"1";"1";"2";"1";"1";"2014-10-16 12:24:33.970";"2014-10-16 12:36:38.295";"1";"1";"0";"124";"123";"module.training_block4.exec-9568.GoNoGo4";;;;;;;;;;;;;;;;;;;;;;;;;;;;;;;;;;;;;;;;;;;;;;;;;;;;;;;;;;;"1261";"2014-10-16 12:31:04.891";"NST_correctLoc";"6";"0";"FINISHED";"LEFT";"success";"421";"0";"2014-10-16 12:31:03.628";"1";;;;;;;;;;;;;;;;;;;;;
"c1226961";"11/07/93";;"Windows 7";"Rachel's Experiment (D.T.)";"1.0";"2";"1";"1";"2";"1";"1";"2014-10-16 12:24:33.970";"2014-10-16 12:36:38.295";"1";"1";"0";"125";"124";"module.training_block4.exec-9568.GoNoGo4";;;;;;;;;;;;;;;;;;;;;;;;;;;;;;;;;;;;;;;;;;;;;;;;;;;;;;;;;;;"1262";"2014-10-16 12:31:07.419";"NST_correctLoc";"19";"1";"FINISHED";"RIGHT";"success";"390";"0";"2014-10-16 12:31:06.155";"3";;;;;;;;;;;;;;;;;;;;;
"c1226961";"11/07/93";;"Windows 7";"Rachel's Experiment (D.T.)";"1.0";"2";"1";"1";"2";"1";"1";"2014-10-16 12:24:33.970";"2014-10-16 12:36:38.295";"1";"1";"0";"126";"125";"module.training_block4.exec-9568.GoNoGo4";;;;;;;;;;;;;;;;;;;;;;;;;;;;;;;;;;;;;;;;;;;;;;;;;;;;;;;;;;;"1261";"2014-10-16 12:31:09.946";"NST_correctLoc";"4";"0";"FINISHED";"LEFT";"success";"327";"0";"2014-10-16 12:31:08.682";"1";;;;;;;;;;;;;;;;;;;;;
"c1226961";"11/07/93";;"Windows 7";"Rachel's Experiment (D.T.)";"1.0";"2";"1";"1";"2";"1";"1";"2014-10-16 12:24:33.970";"2014-10-16 12:36:38.295";"1";"1";"0";"127";"126";"module.training_block4.exec-9568.GoNoGo4";;;;;;;;;;;;;;;;;;;;;;;;;;;;;;;;;;;;;;;;;;;;;;;;;;;;;;;;;;;"1262";"2014-10-16 12:31:12.473";"NST_correctLoc";"9";"1";"FINISHED";"RIGHT";"success";"312";"0";"2014-10-16 12:31:11.209";"2";;;;;;;;;;;;;;;;;;;;;
"c1226961";"11/07/93";;"Windows 7";"Rachel's Experiment (D.T.)";"1.0";"2";"1";"1";"2";"1";"1";"2014-10-16 12:24:33.970";"2014-10-16 12:36:38.295";"1";"1";"0";"128";"127";"module.training_block4.exec-9568.GoNoGo4";;;;;;;;;;;;;;;;;;;;;;;;;;;;;;;;;;;;;;;;;;;;;;;;;;;;;;;;;;;"1261";"2014-10-16 12:31:15.000";"NST_correctLoc";"14";"0";"FINISHED";"LEFT";"success";"289";"0";"2014-10-16 12:31:13.737";"2";;;;;;;;;;;;;;;;;;;;;
"c1226961";"11/07/93";;"Windows 7";"Rachel's Experiment (D.T.)";"1.0";"2";"1";"1";"2";"1";"1";"2014-10-16 12:24:33.970";"2014-10-16 12:36:38.295";"1";"1";"0";"129";"128";"module.training_block4.exec-9568.GoNoGo4";;;;;;;;;;;;;;;;;;;;;;;;;;;;;;;;;;;;;;;;;;;;;;;;;;;;;;;;;;;"1261";"2014-10-16 12:31:17.527";"NST_correctLoc";"0";"0";"FINISHED";"LEFT";"success";"889";"0";"2014-10-16 12:31:16.264";"1";;;;;;;;;;;;;;;;;;;;;
"c1226961";"11/07/93";;"Windows 7";"Rachel's Experiment (D.T.)";"1.0";"2";"1";"1";"2";"1";"1";"2014-10-16 12:24:33.970";"2014-10-16 12:36:38.295";"1";"1";"0";"130";"129";"module.training_block4.exec-9568.GoNoGo4";;;;;;;;;;;;;;;;;;;;;;;;;;;;;;;;;;;;;;;;;;;;;;;;;;;;;;;;;;;"1262";"2014-10-16 12:31:20.055";"NST_correctLoc";"7";"1";"FINISHED";"RIGHT";"success";"490";"0";"2014-10-16 12:31:18.791";"1";;;;;;;;;;;;;;;;;;;;;
"c1226961";"11/07/93";;"Windows 7";"Rachel's Experiment (D.T.)";"1.0";"2";"1";"1";"2";"1";"1";"2014-10-16 12:24:33.970";"2014-10-16 12:36:38.295";"1";"1";"0";"131";"130";"module.training_block4.exec-9568.GoNoGo4";;;;;;;;;;;;;;;;;;;;;;;;;;;;;;;;;;;;;;;;;;;;;;;;;;;;;;;;;;;"1262";"2014-10-16 12:31:22.597";"NST_correctLoc";"29";"1";"FINISHED";"RIGHT";"success";"547";"0";"2014-10-16 12:31:21.334";"3";;;;;;;;;;;;;;;;;;;;;
"c1226961";"11/07/93";;"Windows 7";"Rachel's Experiment (D.T.)";"1.0";"2";"1";"1";"2";"1";"1";"2014-10-16 12:24:33.970";"2014-10-16 12:36:38.295";"1";"1";"0";"132";"131";"module.training_block4.exec-9568.GoNoGo4";;;;;;;;;;;;;;;;;;;;;;;;;;;;;;;;;;;;;;;;;;;;;;;;;;;;;;;;;;;"1262";"2014-10-16 12:31:25.125";"NST_correctLoc";"35";"1";"FINISHED";"RIGHT";"success";"500";"0";"2014-10-16 12:31:23.861";"3";;;;;;;;;;;;;;;;;;;;;
"c1226961";"11/07/93";;"Windows 7";"Rachel's Experiment (D.T.)";"1.0";"2";"1";"1";"2";"1";"1";"2014-10-16 12:24:33.970";"2014-10-16 12:36:38.295";"1";"1";"0";"133";"132";"module.training_block4.exec-9568.GoNoGo4";;;;;;;;;;;;;;;;;;;;;;;;;;;;;;;;;;;;;;;;;;;;;;;;;;;;;;;;;;;"1261";"2014-10-16 12:31:27.652";"NST_correctLoc";"15";"1";"FINISHED";"RIGHT";"success";"453";"0";"2014-10-16 12:31:26.388";"2";;;;;;;;;;;;;;;;;;;;;
"c1226961";"11/07/93";;"Windows 7";"Rachel's Experiment (D.T.)";"1.0";"2";"1";"1";"2";"1";"1";"2014-10-16 12:24:33.970";"2014-10-16 12:36:38.295";"1";"1";"0";"134";"133";"module.training_block4.exec-9568.GoNoGo4";;;;;;;;;;;;;;;;;;;;;;;;;;;;;;;;;;;;;;;;;;;;;;;;;;;;;;;;;;;"1261";"2014-10-16 12:31:30.179";"NST_correctLoc";"8";"1";"FINISHED";"RIGHT";"success";"422";"0";"2014-10-16 12:31:28.916";"1";;;;;;;;;;;;;;;;;;;;;
"c1226961";"11/07/93";;"Windows 7";"Rachel's Experiment (D.T.)";"1.0";"2";"1";"1";"2";"1";"1";"2014-10-16 12:24:33.970";"2014-10-16 12:36:38.295";"1";"1";"0";"135";"134";"module.training_block4.exec-9568.GoNoGo4";;;;;;;;;;;;;;;;;;;;;;;;;;;;;;;;;;;;;;;;;;;;;;;;;;;;;;;;;;;"1262";"2014-10-16 12:31:32.706";"NST_correctLoc";"30";"0";"FINISHED";"LEFT";"success";"591";"0";"2014-10-16 12:31:31.443";"3";;;;;;;;;;;;;;;;;;;;;
"c1226961";"11/07/93";;"Windows 7";"Rachel's Experiment (D.T.)";"1.0";"2";"1";"1";"2";"1";"1";"2014-10-16 12:24:33.970";"2014-10-16 12:36:38.295";"1";"1";"0";"136";"135";"module.training_block4.exec-9568.GoNoGo4";;;;;;;;;;;;;;;;;;;;;;;;;;;;;;;;;;;;;;;;;;;;;;;;;;;;;;;;;;;"1262";"2014-10-16 12:31:35.249";"NST_correctLoc";"20";"1";"FINISHED";"RIGHT";"success";"552";"0";"2014-10-16 12:31:33.986";"3";;;;;;;;;;;;;;;;;;;;;
"c1226961";"11/07/93";;"Windows 7";"Rachel's Experiment (D.T.)";"1.0";"2";"1";"1";"2";"1";"1";"2014-10-16 12:24:33.970";"2014-10-16 12:36:38.295";"1";"1";"0";"137";"136";"module.training_block4.exec-9568.GoNoGo4";;;;;;;;;;;;;;;;;;;;;;;;;;;;;;;;;;;;;;;;;;;;;;;;;;;;;;;;;;;"1262";"2014-10-16 12:31:37.776";"NST_correctLoc";"5";"0";"FINISHED";"LEFT";"success";"656";"0";"2014-10-16 12:31:36.513";"1";;;;;;;;;;;;;;;;;;;;;
"c1226961";"11/07/93";;"Windows 7";"Rachel's Experiment (D.T.)";"1.0";"2";"1";"1";"2";"1";"1";"2014-10-16 12:24:33.970";"2014-10-16 12:36:38.295";"1";"1";"0";"138";"137";"module.training_block4.exec-9568.GoNoGo4";;;;;;;;;;;;;;;;;;;;;;;;;;;;;;;;;;;;;;;;;;;;;;;;;;;;;;;;;;;"1262";"2014-10-16 12:31:40.304";"NST_correctLoc";"26";"0";"FINISHED";"LEFT";"success";"977";"0";"2014-10-16 12:31:39.040";"3";;;;;;;;;;;;;;;;;;;;;
"c1226961";"11/07/93";;"Windows 7";"Rachel's Experiment (D.T.)";"1.0";"2";"1";"1";"2";"1";"1";"2014-10-16 12:24:33.970";"2014-10-16 12:36:38.295";"1";"1";"0";"139";"138";"module.training_block4.exec-9568.GoNoGo4";;;;;;;;;;;;;;;;;;;;;;;;;;;;;;;;;;;;;;;;;;;;;;;;;;;;;;;;;;;"1261";"2014-10-16 12:31:42.862";"NST_correctLoc";"11";"0";"FINISHED";"LEFT";"success";"883";"0";"2014-10-16 12:31:41.598";"2";;;;;;;;;;;;;;;;;;;;;
"c1226961";"11/07/93";;"Windows 7";"Rachel's Experiment (D.T.)";"1.0";"2";"1";"1";"2";"1";"1";"2014-10-16 12:24:33.970";"2014-10-16 12:36:38.295";"1";"1";"0";"140";"139";"module.training_block4.exec-9568.GoNoGo4";;;;;;;;;;;;;;;;;;;;;;;;;;;;;;;;;;;;;;;;;;;;;;;;;;;;;;;;;;;"1262";"2014-10-16 12:31:45.389";"NST_correctLoc";"28";"0";"FINISHED";"LEFT";"success";"596";"0";"2014-10-16 12:31:44.126";"3";;;;;;;;;;;;;;;;;;;;;
"c1226961";"11/07/93";;"Windows 7";"Rachel's Experiment (D.T.)";"1.0";"2";"1";"1";"2";"1";"1";"2014-10-16 12:24:33.970";"2014-10-16 12:36:38.295";"1";"1";"0";"141";"140";"module.training_block4.exec-9568.GoNoGo4";;;;;;;;;;;;;;;;;;;;;;;;;;;;;;;;;;;;;;;;;;;;;;;;;;;;;;;;;;;"1261";"2014-10-16 12:31:47.932";"NST_correctLoc";"16";"1";"FINISHED";"RIGHT";"success";"349";"0";"2014-10-16 12:31:46.668";"2";;;;;;;;;;;;;;;;;;;;;
"c1226961";"11/07/93";;"Windows 7";"Rachel's Experiment (D.T.)";"1.0";"2";"1";"1";"2";"1";"1";"2014-10-16 12:24:33.970";"2014-10-16 12:36:38.295";"1";"1";"0";"142";"141";"module.training_block4.exec-9568.GoNoGo4";;;;;;;;;;;;;;;;;;;;;;;;;;;;;;;;;;;;;;;;;;;;;;;;;;;;;;;;;;;"1262";"2014-10-16 12:31:50.459";"NST_miss";"21";"0";"FINISHED";"NONE";"failure";"0";"0";"2014-10-16 12:31:49.196";"3";;;;;;;;;;;;;;;;;;;;;
"c1226961";"11/07/93";;"Windows 7";"Rachel's Experiment (D.T.)";"1.0";"2";"1";"1";"2";"1";"1";"2014-10-16 12:24:33.970";"2014-10-16 12:36:38.295";"1";"1";"0";"143";"142";"module.training_block4.exec-9568.GoNoGo4";;;;;;;;;;;;;;;;;;;;;;;;;;;;;;;;;;;;;;;;;;;;;;;;;;;;;;;;;;;"1262";"2014-10-16 12:31:52.986";"NST_correctLoc";"34";"1";"FINISHED";"RIGHT";"success";"478";"0";"2014-10-16 12:31:51.723";"3";;;;;;;;;;;;;;;;;;;;;
"c1226961";"11/07/93";;"Windows 7";"Rachel's Experiment (D.T.)";"1.0";"2";"1";"1";"2";"1";"1";"2014-10-16 12:24:33.970";"2014-10-16 12:36:38.295";"1";"1";"0";"144";"143";"module.training_block4.exec-9568.GoNoGo4";;;;;;;;;;;;;;;;;;;;;;;;;;;;;;;;;;;;;;;;;;;;;;;;;;;;;;;;;;;"1262";"2014-10-16 12:31:55.545";"NST_correctLoc";"3";"0";"FINISHED";"LEFT";"success";"688";"0";"2014-10-16 12:31:54.281";"1";;;;;;;;;;;;;;;;;;;;;
"c1226961";"11/07/93";;"Windows 7";"Rachel's Experiment (D.T.)";"1.0";"2";"1";"1";"2";"1";"1";"2014-10-16 12:24:33.970";"2014-10-16 12:36:38.295";"1";"1";"0";"145";"144";"module.training_block4.exec-9568.GoNoGo4";;;;;;;;;;;;;;;;;;;;;;;;;;;;;;;;;;;;;;;;;;;;;;;;;;;;;;;;;;;"1262";"2014-10-16 12:31:58.072";"NST_wrongLoc";"1";"1";"FINISHED";"LEFT";"failure";"505";"0";"2014-10-16 12:31:56.808";"1";;;;;;;;;;;;;;;;;;;;;
"c1226961";"11/07/93";;"Windows 7";"Rachel's Experiment (D.T.)";"1.0";"2";"1";"1";"2";"1";"1";"2014-10-16 12:24:33.970";"2014-10-16 12:36:38.295";"1";"1";"0";"146";"145";"module.training_block4.exec-9568.GoNoGo4";;;;;;;;;;;;;;;;;;;;;;;;;;;;;;;;;;;;;;;;;;;;;;;;;;;;;;;;;;;"1262";"2014-10-16 12:32:00.615";"NST_correctLoc";"22";"1";"FINISHED";"RIGHT";"success";"506";"0";"2014-10-16 12:31:59.351";"3";;;;;;;;;;;;;;;;;;;;;
"c1226961";"11/07/93";;"Windows 7";"Rachel's Experiment (D.T.)";"1.0";"2";"1";"1";"2";"1";"1";"2014-10-16 12:24:33.970";"2014-10-16 12:36:38.295";"1";"1";"0";"147";"146";"module.training_block4.exec-9568.GoNoGo4";;;;;;;;;;;;;;;;;;;;;;;;;;;;;;;;;;;;;;;;;;;;;;;;;;;;;;;;;;;"1261";"2014-10-16 12:32:03.142";"NST_correctLoc";"13";"0";"FINISHED";"LEFT";"success";"315";"0";"2014-10-16 12:32:01.878";"2";;;;;;;;;;;;;;;;;;;;;
"c1226961";"11/07/93";;"Windows 7";"Rachel's Experiment (D.T.)";"1.0";"2";"1";"1";"2";"1";"1";"2014-10-16 12:24:33.970";"2014-10-16 12:36:38.295";"1";"1";"0";"148";"147";"module.training_block4.exec-9568.GoNoGo4";;;;;;;;;;;;;;;;;;;;;;;;;;;;;;;;;;;;;;;;;;;;;;;;;;;;;;;;;;;"1262";"2014-10-16 12:32:05.669";"NST_correctLoc";"31";"1";"FINISHED";"RIGHT";"success";"347";"0";"2014-10-16 12:32:04.406";"3";;;;;;;;;;;;;;;;;;;;;
"c1226961";"11/07/93";;"Windows 7";"Rachel's Experiment (D.T.)";"1.0";"2";"1";"1";"2";"1";"1";"2014-10-16 12:24:33.970";"2014-10-16 12:36:38.295";"1";"1";"0";"149";"148";"module.training_block4.exec-9568.GoNoGo4";;;;;;;;;;;;;;;;;;;;;;;;;;;;;;;;;;;;;;;;;;;;;;;;;;;;;;;;;;;"1257";"2014-10-16 12:32:08.228";"NST_correctLoc";"10";"1";"FINISHED";"RIGHT";"success";"433";"0";"2014-10-16 12:32:06.964";"2";;;;;;;;;;;;;;;;;;;;;
"c1226961";"11/07/93";;"Windows 7";"Rachel's Experiment (D.T.)";"1.0";"2";"1";"1";"2";"1";"1";"2014-10-16 12:24:33.970";"2014-10-16 12:36:38.295";"1";"1";"0";"150";"149";"module.training_block4.exec-9568.GoNoGo4";;;;;;;;;;;;;;;;;;;;;;;;;;;;;;;;;;;;;;;;;;;;;;;;;;;;;;;;;;;"1262";"2014-10-16 12:32:10.755";"NST_correctLoc";"24";"0";"FINISHED";"LEFT";"success";"326";"0";"2014-10-16 12:32:09.491";"3";;;;;;;;;;;;;;;;;;;;;
"c1226961";"11/07/93";;"Windows 7";"Rachel's Experiment (D.T.)";"1.0";"2";"1";"1";"2";"1";"1";"2014-10-16 12:24:33.970";"2014-10-16 12:36:38.295";"1";"1";"0";"151";"150";"module.training_block4.exec-9568.GoNoGo4";;;;;;;;;;;;;;;;;;;;;;;;;;;;;;;;;;;;;;;;;;;;;;;;;;;;;;;;;;;"1261";"2014-10-16 12:32:13.298";"NST_correctLoc";"23";"0";"FINISHED";"LEFT";"success";"407";"0";"2014-10-16 12:32:12.034";"3";;;;;;;;;;;;;;;;;;;;;
"c1226961";"11/07/93";;"Windows 7";"Rachel's Experiment (D.T.)";"1.0";"2";"1";"1";"2";"1";"1";"2014-10-16 12:24:33.970";"2014-10-16 12:36:38.295";"1";"1";"0";"152";"151";"module.training_block4.exec-9568.GoNoGo4";;;;;;;;;;;;;;;;;;;;;;;;;;;;;;;;;;;;;;;;;;;;;;;;;;;;;;;;;;;"1262";"2014-10-16 12:32:15.825";"NST_correctLoc";"18";"1";"FINISHED";"RIGHT";"success";"336";"0";"2014-10-16 12:32:14.561";"3";;;;;;;;;;;;;;;;;;;;;
"c1226961";"11/07/93";;"Windows 7";"Rachel's Experiment (D.T.)";"1.0";"2";"1";"1";"2";"1";"1";"2014-10-16 12:24:33.970";"2014-10-16 12:36:38.295";"1";"1";"0";"153";"152";"module.training_block4.exec-9568.GoNoGo4";;;;;;;;;;;;;;;;;;;;;;;;;;;;;;;;;;;;;;;;;;;;;;;;;;;;;;;;;;;"1262";"2014-10-16 12:32:18.352";"NST_correctLoc";"17";"0";"FINISHED";"LEFT";"success";"305";"0";"2014-10-16 12:32:17.088";"2";;;;;;;;;;;;;;;;;;;;;
"c1226961";"11/07/93";;"Windows 7";"Rachel's Experiment (D.T.)";"1.0";"2";"1";"1";"2";"1";"1";"2014-10-16 12:24:33.970";"2014-10-16 12:36:38.295";"1";"1";"0";"154";"153";"module.training_block4.exec-9568.GoNoGo4";;;;;;;;;;;;;;;;;;;;;;;;;;;;;;;;;;;;;;;;;;;;;;;;;;;;;;;;;;;"1262";"2014-10-16 12:32:20.879";"NST_correctLoc";"32";"1";"FINISHED";"RIGHT";"success";"313";"0";"2014-10-16 12:32:19.616";"3";;;;;;;;;;;;;;;;;;;;;
"c1226961";"11/07/93";;"Windows 7";"Rachel's Experiment (D.T.)";"1.0";"2";"1";"1";"2";"1";"1";"2014-10-16 12:24:33.970";"2014-10-16 12:36:38.295";"1";"1";"0";"155";"154";"module.training_block4.exec-9568.GoNoGo4";;;;;;;;;;;;;;;;;;;;;;;;;;;;;;;;;;;;;;;;;;;;;;;;;;;;;;;;;;;"1262";"2014-10-16 12:32:23.406";"NST_correctLoc";"2";"1";"FINISHED";"RIGHT";"success";"378";"0";"2014-10-16 12:32:22.143";"1";;;;;;;;;;;;;;;;;;;;;
"c1226961";"11/07/93";;"Windows 7";"Rachel's Experiment (D.T.)";"1.0";"2";"1";"1";"2";"1";"1";"2014-10-16 12:24:33.970";"2014-10-16 12:36:38.295";"1";"1";"0";"156";"155";"module.training_block4.exec-9568.GoNoGo4";;;;;;;;;;;;;;;;;;;;;;;;;;;;;;;;;;;;;;;;;;;;;;;;;;;;;;;;;;;"1262";"2014-10-16 12:32:25.934";"NST_correctLoc";"33";"1";"FINISHED";"RIGHT";"success";"395";"0";"2014-10-16 12:32:24.670";"3";;;;;;;;;;;;;;;;;;;;;
"c1226961";"11/07/93";;"Windows 7";"Rachel's Experiment (D.T.)";"1.0";"2";"1";"1";"2";"1";"1";"2014-10-16 12:24:33.970";"2014-10-16 12:36:38.295";"1";"1";"0";"157";"156";"module.training_block4.exec-9568.GoNoGo4";;;;;;;;;;;;;;;;;;;;;;;;;;;;;;;;;;;;;;;;;;;;;;;;;;;;;;;;;;;"1262";"2014-10-16 12:32:28.461";"NST_correctLoc";"25";"1";"FINISHED";"RIGHT";"success";"740";"0";"2014-10-16 12:32:27.197";"3";;;;;;;;;;;;;;;;;;;;;
"c1226961";"11/07/93";;"Windows 7";"Rachel's Experiment (D.T.)";"1.0";"2";"1";"1";"2";"1";"1";"2014-10-16 12:24:33.970";"2014-10-16 12:36:38.295";"1";"1";"0";"158";"157";"module.training_block4.exec-9568.GoNoGo4";;;;;;;;;;;;;;;;;;;;;;;;;;;;;;;;;;;;;;;;;;;;;;;;;;;;;;;;;;;"1262";"2014-10-16 12:32:30.988";"NST_correctLoc";"12";"1";"FINISHED";"RIGHT";"success";"836";"0";"2014-10-16 12:32:29.724";"2";;;;;;;;;;;;;;;;;;;;;
"c1226961";"11/07/93";;"Windows 7";"Rachel's Experiment (D.T.)";"1.0";"2";"1";"1";"2";"1";"1";"2014-10-16 12:24:33.970";"2014-10-16 12:36:38.295";"1";"1";"0";"159";"158";"module.training_block4.exec-9568.GoNoGo4";;;;;;;;;;;;;;;;;;;;;;;;;;;;;;;;;;;;;;;;;;;;;;;;;;;;;;;;;;;"1261";"2014-10-16 12:32:33.531";"NST_correctLoc";"27";"1";"FINISHED";"RIGHT";"success";"461";"0";"2014-10-16 12:32:32.267";"3";;;;;;;;;;;;;;;;;;;;;
"c1226961";"11/07/93";;"Windows 7";"Rachel's Experiment (D.T.)";"1.0";"2";"1";"1";"2";"1";"1";"2014-10-16 12:24:33.970";"2014-10-16 12:36:38.295";"1";"1";"0";"160";"159";"module.devaluation_practice.exec-4256.devalPractice";;;;;;;;;;;;"15723";"2014-10-16 12:33:20.066";"0";"9";"9";"9";"4226";"4242";"4212";"2014-10-16 12:33:04.341";;;;;;;;;;;;;;;;;;;;;;;;;;;;;;;;;;;;;;;;;;;;;;;;;;;;;;;;;;;;;;;;;;;;;;
"c1226961";"11/07/93";;"Windows 7";"Rachel's Experiment (D.T.)";"1.0";"2";"1";"1";"2";"1";"1";"2014-10-16 12:24:33.970";"2014-10-16 12:36:38.295";"1";"1";"0";"161";"160";"module.devaluation_practice.exec-4256.devalPractice";;;;;;;;;;;;"11484";"2014-10-16 12:33:31.579";"1";"8";"9";"7";"3590";"2181";"2675";"2014-10-16 12:33:20.081";;;;;;;;;;;;;;;;;;;;;;;;;;;;;;;;;;;;;;;;;;;;;;;;;;;;;;;;;;;;;;;;;;;;;;
"c1226961";"11/07/93";;"Windows 7";"Rachel's Experiment (D.T.)";"1.0";"2";"1";"1";"2";"1";"1";"2014-10-16 12:24:33.970";"2014-10-16 12:36:38.295";"1";"1";"0";"162";"161";"module.devaluation_practice.exec-4256.devalPractice";;;;;;;;;;;;"8484";"2014-10-16 12:33:40.081";"2";"7";"9";"8";"1646";"1699";"2113";"2014-10-16 12:33:31.594";;;;;;;;;;;;;;;;;;;;;;;;;;;;;;;;;;;;;;;;;;;;;;;;;;;;;;;;;;;;;;;;;;;;;;
"c1226961";"11/07/93";;"Windows 7";"Rachel's Experiment (D.T.)";"1.0";"2";"1";"1";"2";"1";"1";"2014-10-16 12:24:33.970";"2014-10-16 12:36:38.295";"1";"1";"0";"163";"162";"module.devaluation_practice.exec-4256.devalPractice";;;;;;;;;;;;"7724";"2014-10-16 12:33:47.818";"3";"6";"6";"6";"1402";"1097";"2203";"2014-10-16 12:33:40.096";;;;;;;;;;;;;;;;;;;;;;;;;;;;;;;;;;;;;;;;;;;;;;;;;;;;;;;;;;;;;;;;;;;;;;
"c1226961";"11/07/93";;"Windows 7";"Rachel's Experiment (D.T.)";"1.0";"2";"1";"1";"2";"1";"1";"2014-10-16 12:24:33.970";"2014-10-16 12:36:38.295";"1";"1";"0";"164";"163";"module.devaluation_block1.exec-4706.deval1";"7437";"2014-10-16 12:33:59.471";"15";"6";"7";"6";"1004";"1638";"1771";"2014-10-16 12:33:52.030";"2";;;;;;;;;;;;;;;;;;;;;;;;;;;;;;;;;;;;;;;;;;;;;;;;;;;;;;;;;;;;;;;;;;;;;;;;;;;;;;;;
"c1226961";"11/07/93";;"Windows 7";"Rachel's Experiment (D.T.)";"1.0";"2";"1";"1";"2";"1";"1";"2014-10-16 12:24:33.970";"2014-10-16 12:36:38.295";"1";"1";"0";"165";"164";"module.devaluation_block1.exec-4706.deval1";"7164";"2014-10-16 12:34:06.647";"18";"9";"9";"9";"1524";"1224";"1392";"2014-10-16 12:33:59.487";"3";;;;;;;;;;;;;;;;;;;;;;;;;;;;;;;;;;;;;;;;;;;;;;;;;;;;;;;;;;;;;;;;;;;;;;;;;;;;;;;;
"c1226961";"11/07/93";;"Windows 7";"Rachel's Experiment (D.T.)";"1.0";"2";"1";"1";"2";"1";"1";"2014-10-16 12:24:33.970";"2014-10-16 12:36:38.295";"1";"1";"0";"166";"165";"module.devaluation_block1.exec-4706.deval1";"5677";"2014-10-16 12:34:12.341";"0";"7";"5";"6";"1084";"634";"932";"2014-10-16 12:34:06.663";"1";;;;;;;;;;;;;;;;;;;;;;;;;;;;;;;;;;;;;;;;;;;;;;;;;;;;;;;;;;;;;;;;;;;;;;;;;;;;;;;;
"c1226961";"11/07/93";;"Windows 7";"Rachel's Experiment (D.T.)";"1.0";"2";"1";"1";"2";"1";"1";"2014-10-16 12:24:33.970";"2014-10-16 12:36:38.295";"1";"1";"0";"167";"166";"module.devaluation_block1.exec-4706.deval1";"5870";"2014-10-16 12:34:18.238";"23";"6";"6";"6";"894";"945";"1010";"2014-10-16 12:34:12.373";"3";;;;;;;;;;;;;;;;;;;;;;;;;;;;;;;;;;;;;;;;;;;;;;;;;;;;;;;;;;;;;;;;;;;;;;;;;;;;;;;;
"c1226961";"11/07/93";;"Windows 7";"Rachel's Experiment (D.T.)";"1.0";"2";"1";"1";"2";"1";"1";"2014-10-16 12:24:33.970";"2014-10-16 12:36:38.295";"1";"1";"0";"168";"167";"module.devaluation_block1.exec-4706.deval1";"6461";"2014-10-16 12:34:24.728";"4";"8";"9";"8";"1181";"1169";"1096";"2014-10-16 12:34:18.254";"1";;;;;;;;;;;;;;;;;;;;;;;;;;;;;;;;;;;;;;;;;;;;;;;;;;;;;;;;;;;;;;;;;;;;;;;;;;;;;;;;
"c1226961";"11/07/93";;"Windows 7";"Rachel's Experiment (D.T.)";"1.0";"2";"1";"1";"2";"1";"1";"2014-10-16 12:24:33.970";"2014-10-16 12:36:38.295";"1";"1";"0";"169";"168";"module.devaluation_block1.exec-4706.deval1";"6589";"2014-10-16 12:34:31.327";"14";"8";"9";"9";"1091";"1444";"1020";"2014-10-16 12:34:24.743";"2";;;;;;;;;;;;;;;;;;;;;;;;;;;;;;;;;;;;;;;;;;;;;;;;;;;;;;;;;;;;;;;;;;;;;;;;;;;;;;;;
"c1226961";"11/07/93";;"Windows 7";"Rachel's Experiment (D.T.)";"1.0";"2";"1";"1";"2";"1";"1";"2014-10-16 12:24:33.970";"2014-10-16 12:36:38.295";"1";"1";"0";"170";"169";"module.devaluation_block1.exec-4706.deval1";"4166";"2014-10-16 12:34:35.523";"7";"5";"5";"5";"501";"285";"343";"2014-10-16 12:34:31.358";"1";;;;;;;;;;;;;;;;;;;;;;;;;;;;;;;;;;;;;;;;;;;;;;;;;;;;;;;;;;;;;;;;;;;;;;;;;;;;;;;;
"c1226961";"11/07/93";;"Windows 7";"Rachel's Experiment (D.T.)";"1.0";"2";"1";"1";"2";"1";"1";"2014-10-16 12:24:33.970";"2014-10-16 12:36:38.295";"1";"1";"0";"171";"170";"module.devaluation_block1.exec-4706.deval1";"8549";"2014-10-16 12:34:44.087";"26";"7";"7";"9";"1832";"1365";"2332";"2014-10-16 12:34:35.539";"3";;;;;;;;;;;;;;;;;;;;;;;;;;;;;;;;;;;;;;;;;;;;;;;;;;;;;;;;;;;;;;;;;;;;;;;;;;;;;;;;
"c1226961";"11/07/93";;"Windows 7";"Rachel's Experiment (D.T.)";"1.0";"2";"1";"1";"2";"1";"1";"2014-10-16 12:24:33.970";"2014-10-16 12:36:38.295";"1";"1";"0";"172";"171";"module.devaluation_block1.exec-4706.deval1";"6413";"2014-10-16 12:34:50.515";"5";"8";"9";"9";"1276";"1042";"1073";"2014-10-16 12:34:44.103";"1";;;;;;;;;;;;;;;;;;;;;;;;;;;;;;;;;;;;;;;;;;;;;;;;;;;;;;;;;;;;;;;;;;;;;;;;;;;;;;;;
"c1226961";"11/07/93";;"Windows 7";"Rachel's Experiment (D.T.)";"1.0";"2";"1";"1";"2";"1";"1";"2014-10-16 12:24:33.970";"2014-10-16 12:36:38.295";"1";"1";"0";"173";"172";"module.devaluation_block1.exec-4706.deval1";"6012";"2014-10-16 12:34:56.552";"25";"9";"8";"9";"1241";"943";"806";"2014-10-16 12:34:50.546";"3";;;;;;;;;;;;;;;;;;;;;;;;;;;;;;;;;;;;;;;;;;;;;;;;;;;;;;;;;;;;;;;;;;;;;;;;;;;;;;;;
"c1226961";"11/07/93";;"Windows 7";"Rachel's Experiment (D.T.)";"1.0";"2";"1";"1";"2";"1";"1";"2014-10-16 12:24:33.970";"2014-10-16 12:36:38.295";"1";"1";"0";"174";"173";"module.devaluation_block1.exec-4706.deval1";"6708";"2014-10-16 12:35:03.275";"19";"9";"9";"9";"1059";"963";"1659";"2014-10-16 12:34:56.567";"3";;;;;;;;;;;;;;;;;;;;;;;;;;;;;;;;;;;;;;;;;;;;;;;;;;;;;;;;;;;;;;;;;;;;;;;;;;;;;;;;
"c1226961";"11/07/93";;"Windows 7";"Rachel's Experiment (D.T.)";"1.0";"2";"1";"1";"2";"1";"1";"2014-10-16 12:24:33.970";"2014-10-16 12:36:38.295";"1";"1";"0";"175";"174";"module.devaluation_block1.exec-4706.deval1";"4524";"2014-10-16 12:35:07.831";"6";"5";"5";"5";"960";"234";"302";"2014-10-16 12:35:03.307";"1";;;;;;;;;;;;;;;;;;;;;;;;;;;;;;;;;;;;;;;;;;;;;;;;;;;;;;;;;;;;;;;;;;;;;;;;;;;;;;;;
"c1226961";"11/07/93";;"Windows 7";"Rachel's Experiment (D.T.)";"1.0";"2";"1";"1";"2";"1";"1";"2014-10-16 12:24:33.970";"2014-10-16 12:36:38.295";"1";"1";"0";"176";"175";"module.devaluation_block1.exec-4706.deval1";"5558";"2014-10-16 12:35:13.400";"2";"6";"6";"6";"788";"818";"917";"2014-10-16 12:35:07.846";"1";;;;;;;;;;;;;;;;;;;;;;;;;;;;;;;;;;;;;;;;;;;;;;;;;;;;;;;;;;;;;;;;;;;;;;;;;;;;;;;;
"c1226961";"11/07/93";;"Windows 7";"Rachel's Experiment (D.T.)";"1.0";"2";"1";"1";"2";"1";"1";"2014-10-16 12:24:33.970";"2014-10-16 12:36:38.295";"1";"1";"0";"177";"176";"module.devaluation_block1.exec-4706.deval1";"5957";"2014-10-16 12:35:19.375";"13";"9";"9";"9";"1131";"944";"861";"2014-10-16 12:35:13.415";"2";;;;;;;;;;;;;;;;;;;;;;;;;;;;;;;;;;;;;;;;;;;;;;;;;;;;;;;;;;;;;;;;;;;;;;;;;;;;;;;;
"c1226961";"11/07/93";;"Windows 7";"Rachel's Experiment (D.T.)";"1.0";"2";"1";"1";"2";"1";"1";"2014-10-16 12:24:33.970";"2014-10-16 12:36:38.295";"1";"1";"0";"178";"177";"module.devaluation_block1.exec-4706.deval1";"5453";"2014-10-16 12:35:24.850";"17";"6";"6";"6";"700";"1011";"700";"2014-10-16 12:35:19.406";"2";;;;;;;;;;;;;;;;;;;;;;;;;;;;;;;;;;;;;;;;;;;;;;;;;;;;;;;;;;;;;;;;;;;;;;;;;;;;;;;;
"c1226961";"11/07/93";;"Windows 7";"Rachel's Experiment (D.T.)";"1.0";"2";"1";"1";"2";"1";"1";"2014-10-16 12:24:33.970";"2014-10-16 12:36:38.295";"1";"1";"0";"179";"178";"module.devaluation_block1.exec-4706.deval1";"6190";"2014-10-16 12:35:31.059";"9";"8";"7";"8";"977";"1041";"1143";"2014-10-16 12:35:24.882";"2";;;;;;;;;;;;;;;;;;;;;;;;;;;;;;;;;;;;;;;;;;;;;;;;;;;;;;;;;;;;;;;;;;;;;;;;;;;;;;;;
"c1226961";"11/07/93";;"Windows 7";"Rachel's Experiment (D.T.)";"1.0";"2";"1";"1";"2";"1";"1";"2014-10-16 12:24:33.970";"2014-10-16 12:36:38.295";"1";"1";"0";"180";"179";"module.devaluation_block1.exec-4706.deval1";"6940";"2014-10-16 12:35:38.032";"20";"6";"8";"7";"1400";"919";"1593";"2014-10-16 12:35:31.090";"3";;;;;;;;;;;;;;;;;;;;;;;;;;;;;;;;;;;;;;;;;;;;;;;;;;;;;;;;;;;;;;;;;;;;;;;;;;;;;;;;
"c1226961";"11/07/93";;"Windows 7";"Rachel's Experiment (D.T.)";"1.0";"2";"1";"1";"2";"1";"1";"2014-10-16 12:24:33.970";"2014-10-16 12:36:38.295";"1";"1";"0";"181";"180";"module.devaluation_block1.exec-4706.deval1";"6257";"2014-10-16 12:35:44.304";"21";"9";"9";"9";"1090";"1146";"988";"2014-10-16 12:35:38.048";"3";;;;;;;;;;;;;;;;;;;;;;;;;;;;;;;;;;;;;;;;;;;;;;;;;;;;;;;;;;;;;;;;;;;;;;;;;;;;;;;;
"c1226961";"11/07/93";;"Windows 7";"Rachel's Experiment (D.T.)";"1.0";"2";"1";"1";"2";"1";"1";"2014-10-16 12:24:33.970";"2014-10-16 12:36:38.295";"1";"1";"0";"182";"181";"module.devaluation_block1.exec-4706.deval1";"4629";"2014-10-16 12:35:48.952";"24";"5";"5";"5";"571";"334";"703";"2014-10-16 12:35:44.319";"3";;;;;;;;;;;;;;;;;;;;;;;;;;;;;;;;;;;;;;;;;;;;;;;;;;;;;;;;;;;;;;;;;;;;;;;;;;;;;;;;
"c1226961";"11/07/93";;"Windows 7";"Rachel's Experiment (D.T.)";"1.0";"2";"1";"1";"2";"1";"1";"2014-10-16 12:24:33.970";"2014-10-16 12:36:38.295";"1";"1";"0";"183";"182";"module.devaluation_block1.exec-4706.deval1";"3966";"2014-10-16 12:35:52.930";"1";"5";"5";"5";"346";"247";"345";"2014-10-16 12:35:48.968";"1";;;;;;;;;;;;;;;;;;;;;;;;;;;;;;;;;;;;;;;;;;;;;;;;;;;;;;;;;;;;;;;;;;;;;;;;;;;;;;;;
"c1226961";"11/07/93";;"Windows 7";"Rachel's Experiment (D.T.)";"1.0";"2";"1";"1";"2";"1";"1";"2014-10-16 12:24:33.970";"2014-10-16 12:36:38.295";"1";"1";"0";"184";"183";"module.devaluation_block1.exec-4706.deval1";"5092";"2014-10-16 12:35:58.047";"22";"6";"6";"6";"889";"569";"605";"2014-10-16 12:35:52.962";"3";;;;;;;;;;;;;;;;;;;;;;;;;;;;;;;;;;;;;;;;;;;;;;;;;;;;;;;;;;;;;;;;;;;;;;;;;;;;;;;;
"c1226961";"11/07/93";;"Windows 7";"Rachel's Experiment (D.T.)";"1.0";"2";"1";"1";"2";"1";"1";"2014-10-16 12:24:33.970";"2014-10-16 12:36:38.295";"1";"1";"0";"185";"184";"module.devaluation_block1.exec-4706.deval1";"3837";"2014-10-16 12:36:01.900";"8";"5";"5";"5";"324";"166";"337";"2014-10-16 12:35:58.063";"1";;;;;;;;;;;;;;;;;;;;;;;;;;;;;;;;;;;;;;;;;;;;;;;;;;;;;;;;;;;;;;;;;;;;;;;;;;;;;;;;
"c1226961";"11/07/93";;"Windows 7";"Rachel's Experiment (D.T.)";"1.0";"2";"1";"1";"2";"1";"1";"2014-10-16 12:24:33.970";"2014-10-16 12:36:38.295";"1";"1";"0";"186";"185";"module.devaluation_block1.exec-4706.deval1";"6862";"2014-10-16 12:36:08.780";"10";"8";"7";"7";"1510";"1150";"1170";"2014-10-16 12:36:01.916";"2";;;;;;;;;;;;;;;;;;;;;;;;;;;;;;;;;;;;;;;;;;;;;;;;;;;;;;;;;;;;;;;;;;;;;;;;;;;;;;;;
"c1226961";"11/07/93";;"Windows 7";"Rachel's Experiment (D.T.)";"1.0";"2";"1";"1";"2";"1";"1";"2014-10-16 12:24:33.970";"2014-10-16 12:36:38.295";"1";"1";"0";"187";"186";"module.devaluation_block1.exec-4706.deval1";"5901";"2014-10-16 12:36:14.708";"12";"9";"8";"7";"1151";"892";"825";"2014-10-16 12:36:08.811";"2";;;;;;;;;;;;;;;;;;;;;;;;;;;;;;;;;;;;;;;;;;;;;;;;;;;;;;;;;;;;;;;;;;;;;;;;;;;;;;;;
"c1226961";"11/07/93";;"Windows 7";"Rachel's Experiment (D.T.)";"1.0";"2";"1";"1";"2";"1";"1";"2014-10-16 12:24:33.970";"2014-10-16 12:36:38.295";"1";"1";"0";"188";"187";"module.devaluation_block1.exec-4706.deval1";"9293";"2014-10-16 12:36:24.021";"16";"5";"5";"6";"5270";"298";"691";"2014-10-16 12:36:14.724";"2";;;;;;;;;;;;;;;;;;;;;;;;;;;;;;;;;;;;;;;;;;;;;;;;;;;;;;;;;;;;;;;;;;;;;;;;;;;;;;;;
"c1226961";"11/07/93";;"Windows 7";"Rachel's Experiment (D.T.)";"1.0";"2";"1";"1";"2";"1";"1";"2014-10-16 12:24:33.970";"2014-10-16 12:36:38.295";"1";"1";"0";"189";"188";"module.devaluation_block1.exec-4706.deval1";"5677";"2014-10-16 12:36:29.715";"3";"8";"6";"7";"1301";"549";"804";"2014-10-16 12:36:24.037";"1";;;;;;;;;;;;;;;;;;;;;;;;;;;;;;;;;;;;;;;;;;;;;;;;;;;;;;;;;;;;;;;;;;;;;;;;;;;;;;;;
"c1226961";"11/07/93";;"Windows 7";"Rachel's Experiment (D.T.)";"1.0";"2";"1";"1";"2";"1";"1";"2014-10-16 12:24:33.970";"2014-10-16 12:36:38.295";"1";"1";"0";"190";"189";"module.devaluation_block1.exec-4706.deval1";"5880";"2014-10-16 12:36:35.612";"11";"9";"8";"6";"1335";"962";"566";"2014-10-16 12:36:29.731";"2";;;;;;;;;;;;;;;;;;;;;;;;;;;;;;;;;;;;;;;;;;;;;;;;;;;;;;;;;;;;;;;;;;;;;;;;;;;;;;;;
