"user.name";"user.yearOfBirth";"user.sex";"user.osName";"module.name";"module.version";"module.online.subject.code";"module.online.study.id";"module.online.module.nr";"module.online.group.nr";"session.id";"session.index";"session.startTime";"session.endTime";"session.completed";"session.node-1969.DevalQorder";"session.node-3431.conditionType";"trial.id";"trial.index";"trial.name";"trial.deval1.durationTime";"trial.deval1.endTime";"trial.deval1.icon";"trial.deval1.Resp_Attractive";"trial.deval1.Resp_Eat";"trial.deval1.Resp_Taste";"trial.deval1.RT_Attractive";"trial.deval1.RT_Eat";"trial.deval1.RT_Taste";"trial.deval1.startTime";"trial.deval1.stimulus type";"trial.devalPractice.durationTime";"trial.devalPractice.endTime";"trial.devalPractice.icon";"trial.devalPractice.Resp_Attractive";"trial.devalPractice.Resp_Eat";"trial.devalPractice.Resp_Taste";"trial.devalPractice.RT_Attractive";"trial.devalPractice.RT_Eat";"trial.devalPractice.RT_Taste";"trial.devalPractice.startTime";"trial.devalPractice.stimulus type";"trial.GoNoGo1.durationTime";"trial.GoNoGo1.endTime";"trial.GoNoGo1.Error Type";"trial.GoNoGo1.icon";"trial.GoNoGo1.location";"trial.GoNoGo1.outcome";"trial.GoNoGo1.response";"trial.GoNoGo1.result";"trial.GoNoGo1.RT";"trial.GoNoGo1.signal";"trial.GoNoGo1.startTime";"trial.GoNoGo1.stimulus type";"trial.GoNoGo2.durationTime";"trial.GoNoGo2.endTime";"trial.GoNoGo2.Error Type";"trial.GoNoGo2.icon";"trial.GoNoGo2.location";"trial.GoNoGo2.outcome";"trial.GoNoGo2.response";"trial.GoNoGo2.result";"trial.GoNoGo2.RT";"trial.GoNoGo2.signal";"trial.GoNoGo2.startTime";"trial.GoNoGo2.stimulus type";"trial.GoNoGo3.durationTime";"trial.GoNoGo3.endTime";"trial.GoNoGo3.Error Type";"trial.GoNoGo3.icon";"trial.GoNoGo3.location";"trial.GoNoGo3.outcome";"trial.GoNoGo3.response";"trial.GoNoGo3.result";"trial.GoNoGo3.RT";"trial.GoNoGo3.signal";"trial.GoNoGo3.startTime";"trial.GoNoGo3.stimulus type";"trial.GoNoGo4.durationTime";"trial.GoNoGo4.endTime";"trial.GoNoGo4.Error Type";"trial.GoNoGo4.icon";"trial.GoNoGo4.location";"trial.GoNoGo4.outcome";"trial.GoNoGo4.response";"trial.GoNoGo4.result";"trial.GoNoGo4.RT";"trial.GoNoGo4.signal";"trial.GoNoGo4.startTime";"trial.GoNoGo4.stimulus type";"trial.GoNoGo_Practice.durationTime";"trial.GoNoGo_Practice.endTime";"trial.GoNoGo_Practice.icon";"trial.GoNoGo_Practice.location";"trial.GoNoGo_Practice.outcome";"trial.GoNoGo_Practice.response";"trial.GoNoGo_Practice.result";"trial.GoNoGo_Practice.RT";"trial.GoNoGo_Practice.signal";"trial.GoNoGo_Practice.startTime";"trial.GoNoGo_Practice.stimulus type";"trial.GoNoGo_Tutorial.durationTime";"trial.GoNoGo_Tutorial.endTime";"trial.GoNoGo_Tutorial.icon";"trial.GoNoGo_Tutorial.location";"trial.GoNoGo_Tutorial.outcome";"trial.GoNoGo_Tutorial.response";"trial.GoNoGo_Tutorial.result";"trial.GoNoGo_Tutorial.RT";"trial.GoNoGo_Tutorial.signal";"trial.GoNoGo_Tutorial.startTime"
"!(km*(";"1989";;"Windows 7";"Rachel's Experiment (D.T.)";"1.0";"2";"1";"1";"2";"3";"1";"2014-08-06 12:50:33.674";"2014-08-06 13:07:33.656";"1";"0";"0";"160";"0";"module.GoNoGotutorial.exec-9386.GoNoGo_Tutorial";;;;;;;;;;;;;;;;;;;;;;;;;;;;;;;;;;;;;;;;;;;;;;;;;;;;;;;;;;;;;;;;;;;;;;;;;;;;;;;;;;"3999";"2014-08-06 12:50:47.384";"leftResponse";"0";"FINISHED";"NONE";"failure";"0";"0";"2014-08-06 12:50:43.384"
"!(km*(";"1989";;"Windows 7";"Rachel's Experiment (D.T.)";"1.0";"2";"1";"1";"2";"3";"1";"2014-08-06 12:50:33.674";"2014-08-06 13:07:33.656";"1";"0";"0";"161";"1";"module.GoNoGotutorial.exec-9386.GoNoGo_Tutorial";;;;;;;;;;;;;;;;;;;;;;;;;;;;;;;;;;;;;;;;;;;;;;;;;;;;;;;;;;;;;;;;;;;;;;;;;;;;;;;;;;"4000";"2014-08-06 12:50:52.669";"rightResponse";"1";"FINISHED";"NONE";"failure";"0";"0";"2014-08-06 12:50:48.668"
"!(km*(";"1989";;"Windows 7";"Rachel's Experiment (D.T.)";"1.0";"2";"1";"1";"2";"3";"1";"2014-08-06 12:50:33.674";"2014-08-06 13:07:33.656";"1";"0";"0";"162";"2";"module.GoNoGotutorial.exec-9386.GoNoGo_Tutorial";;;;;;;;;;;;;;;;;;;;;;;;;;;;;;;;;;;;;;;;;;;;;;;;;;;;;;;;;;;;;;;;;;;;;;;;;;;;;;;;;;"4000";"2014-08-06 12:50:57.932";"quickResponse";"0";"FINISHED";"NONE";"failure";"0";"0";"2014-08-06 12:50:53.932"
"!(km*(";"1989";;"Windows 7";"Rachel's Experiment (D.T.)";"1.0";"2";"1";"1";"2";"3";"1";"2014-08-06 12:50:33.674";"2014-08-06 13:07:33.656";"1";"0";"0";"163";"3";"module.GoNoGopractice.exec-5507.GoNoGo_Practice";;;;;;;;;;;;;;;;;;;;;;;;;;;;;;;;;;;;;;;;;;;;;;;;;;;;;;;;;;;;;;;;;;;;;;;"1951";"2014-08-06 12:51:04.032";"18";"0";"FINISHED";"LEFT";"success";"636";"0";"2014-08-06 12:51:02.081";"3";;;;;;;;;;
"!(km*(";"1989";;"Windows 7";"Rachel's Experiment (D.T.)";"1.0";"2";"1";"1";"2";"3";"1";"2014-08-06 12:50:33.674";"2014-08-06 13:07:33.656";"1";"0";"0";"164";"4";"module.GoNoGopractice.exec-5507.GoNoGo_Practice";;;;;;;;;;;;;;;;;;;;;;;;;;;;;;;;;;;;;;;;;;;;;;;;;;;;;;;;;;;;;;;;;;;;;;;"1950";"2014-08-06 12:51:07.250";"21";"1";"FINISHED";"RIGHT";"success";"359";"0";"2014-08-06 12:51:05.299";"3";;;;;;;;;;
"!(km*(";"1989";;"Windows 7";"Rachel's Experiment (D.T.)";"1.0";"2";"1";"1";"2";"3";"1";"2014-08-06 12:50:33.674";"2014-08-06 13:07:33.656";"1";"0";"0";"165";"5";"module.GoNoGopractice.exec-5507.GoNoGo_Practice";;;;;;;;;;;;;;;;;;;;;;;;;;;;;;;;;;;;;;;;;;;;;;;;;;;;;;;;;;;;;;;;;;;;;;;"1951";"2014-08-06 12:51:10.466";"14";"1";"FINISHED";"RIGHT";"success";"419";"0";"2014-08-06 12:51:08.514";"2";;;;;;;;;;
"!(km*(";"1989";;"Windows 7";"Rachel's Experiment (D.T.)";"1.0";"2";"1";"1";"2";"3";"1";"2014-08-06 12:50:33.674";"2014-08-06 13:07:33.656";"1";"0";"0";"166";"6";"module.GoNoGopractice.exec-5507.GoNoGo_Practice";;;;;;;;;;;;;;;;;;;;;;;;;;;;;;;;;;;;;;;;;;;;;;;;;;;;;;;;;;;;;;;;;;;;;;;"1950";"2014-08-06 12:51:13.680";"26";"0";"FINISHED";"LEFT";"success";"371";"0";"2014-08-06 12:51:11.729";"3";;;;;;;;;;
"!(km*(";"1989";;"Windows 7";"Rachel's Experiment (D.T.)";"1.0";"2";"1";"1";"2";"3";"1";"2014-08-06 12:50:33.674";"2014-08-06 13:07:33.656";"1";"0";"0";"167";"7";"module.GoNoGopractice.exec-5507.GoNoGo_Practice";;;;;;;;;;;;;;;;;;;;;;;;;;;;;;;;;;;;;;;;;;;;;;;;;;;;;;;;;;;;;;;;;;;;;;;"1950";"2014-08-06 12:51:16.894";"2";"0";"FINISHED";"LEFT";"success";"568";"0";"2014-08-06 12:51:14.943";"1";;;;;;;;;;
"!(km*(";"1989";;"Windows 7";"Rachel's Experiment (D.T.)";"1.0";"2";"1";"1";"2";"3";"1";"2014-08-06 12:50:33.674";"2014-08-06 13:07:33.656";"1";"0";"0";"168";"8";"module.GoNoGopractice.exec-5507.GoNoGo_Practice";;;;;;;;;;;;;;;;;;;;;;;;;;;;;;;;;;;;;;;;;;;;;;;;;;;;;;;;;;;;;;;;;;;;;;;"1950";"2014-08-06 12:51:20.108";"30";"0";"FINISHED";"LEFT";"success";"719";"0";"2014-08-06 12:51:18.157";"3";;;;;;;;;;
"!(km*(";"1989";;"Windows 7";"Rachel's Experiment (D.T.)";"1.0";"2";"1";"1";"2";"3";"1";"2014-08-06 12:50:33.674";"2014-08-06 13:07:33.656";"1";"0";"0";"169";"9";"module.GoNoGopractice.exec-5507.GoNoGo_Practice";;;;;;;;;;;;;;;;;;;;;;;;;;;;;;;;;;;;;;;;;;;;;;;;;;;;;;;;;;;;;;;;;;;;;;;"1950";"2014-08-06 12:51:23.323";"6";"1";"FINISHED";"RIGHT";"success";"728";"0";"2014-08-06 12:51:21.372";"1";;;;;;;;;;
"!(km*(";"1989";;"Windows 7";"Rachel's Experiment (D.T.)";"1.0";"2";"1";"1";"2";"3";"1";"2014-08-06 12:50:33.674";"2014-08-06 13:07:33.656";"1";"0";"0";"170";"10";"module.GoNoGopractice.exec-5507.GoNoGo_Practice";;;;;;;;;;;;;;;;;;;;;;;;;;;;;;;;;;;;;;;;;;;;;;;;;;;;;;;;;;;;;;;;;;;;;;;"1951";"2014-08-06 12:51:26.546";"34";"0";"FINISHED";"LEFT";"success";"435";"0";"2014-08-06 12:51:24.594";"3";;;;;;;;;;
"!(km*(";"1989";;"Windows 7";"Rachel's Experiment (D.T.)";"1.0";"2";"1";"1";"2";"3";"1";"2014-08-06 12:50:33.674";"2014-08-06 13:07:33.656";"1";"0";"0";"171";"11";"module.GoNoGopractice.exec-5507.GoNoGo_Practice";;;;;;;;;;;;;;;;;;;;;;;;;;;;;;;;;;;;;;;;;;;;;;;;;;;;;;;;;;;;;;;;;;;;;;;"1951";"2014-08-06 12:51:29.762";"23";"1";"FINISHED";"RIGHT";"success";"607";"0";"2014-08-06 12:51:27.811";"3";;;;;;;;;;
"!(km*(";"1989";;"Windows 7";"Rachel's Experiment (D.T.)";"1.0";"2";"1";"1";"2";"3";"1";"2014-08-06 12:50:33.674";"2014-08-06 13:07:33.656";"1";"0";"0";"172";"12";"module.GoNoGopractice.exec-5507.GoNoGo_Practice";;;;;;;;;;;;;;;;;;;;;;;;;;;;;;;;;;;;;;;;;;;;;;;;;;;;;;;;;;;;;;;;;;;;;;;"1950";"2014-08-06 12:51:32.976";"13";"0";"FINISHED";"LEFT";"success";"679";"0";"2014-08-06 12:51:31.025";"2";;;;;;;;;;
"!(km*(";"1989";;"Windows 7";"Rachel's Experiment (D.T.)";"1.0";"2";"1";"1";"2";"3";"1";"2014-08-06 12:50:33.674";"2014-08-06 13:07:33.656";"1";"0";"0";"173";"13";"module.GoNoGopractice.exec-5507.GoNoGo_Practice";;;;;;;;;;;;;;;;;;;;;;;;;;;;;;;;;;;;;;;;;;;;;;;;;;;;;;;;;;;;;;;;;;;;;;;"1952";"2014-08-06 12:51:36.288";"3";"1";"FINISHED";"RIGHT";"success";"860";"0";"2014-08-06 12:51:34.336";"1";;;;;;;;;;
"!(km*(";"1989";;"Windows 7";"Rachel's Experiment (D.T.)";"1.0";"2";"1";"1";"2";"3";"1";"2014-08-06 12:50:33.674";"2014-08-06 13:07:33.656";"1";"0";"0";"174";"14";"module.GoNoGopractice.exec-5507.GoNoGo_Practice";;;;;;;;;;;;;;;;;;;;;;;;;;;;;;;;;;;;;;;;;;;;;;;;;;;;;;;;;;;;;;;;;;;;;;;"1951";"2014-08-06 12:51:39.518";"27";"1";"FINISHED";"RIGHT";"success";"1101";"0";"2014-08-06 12:51:37.567";"3";;;;;;;;;;
"!(km*(";"1989";;"Windows 7";"Rachel's Experiment (D.T.)";"1.0";"2";"1";"1";"2";"3";"1";"2014-08-06 12:50:33.674";"2014-08-06 13:07:33.656";"1";"0";"0";"175";"15";"module.training_block1.exec-2259.GoNoGo1";;;;;;;;;;;;;;;;;;;;;;;"1250";"2014-08-06 12:51:53.212";"NST_correctLoc";"0";"1";"FINISHED";"RIGHT";"success";"587";"0";"2014-08-06 12:51:51.962";"1";;;;;;;;;;;;;;;;;;;;;;;;;;;;;;;;;;;;;;;;;;;;;;;;;;;;;;;;;
"!(km*(";"1989";;"Windows 7";"Rachel's Experiment (D.T.)";"1.0";"2";"1";"1";"2";"3";"1";"2014-08-06 12:50:33.674";"2014-08-06 13:07:33.656";"1";"0";"0";"176";"16";"module.training_block1.exec-2259.GoNoGo1";;;;;;;;;;;;;;;;;;;;;;;"1250";"2014-08-06 12:51:55.744";"NST_correctLoc";"8";"1";"FINISHED";"RIGHT";"success";"427";"0";"2014-08-06 12:51:54.494";"1";;;;;;;;;;;;;;;;;;;;;;;;;;;;;;;;;;;;;;;;;;;;;;;;;;;;;;;;;
"!(km*(";"1989";;"Windows 7";"Rachel's Experiment (D.T.)";"1.0";"2";"1";"1";"2";"3";"1";"2014-08-06 12:50:33.674";"2014-08-06 13:07:33.656";"1";"0";"0";"177";"17";"module.training_block1.exec-2259.GoNoGo1";;;;;;;;;;;;;;;;;;;;;;;"1250";"2014-08-06 12:51:58.276";"NST_correctLoc";"34";"1";"FINISHED";"RIGHT";"success";"616";"0";"2014-08-06 12:51:57.026";"3";;;;;;;;;;;;;;;;;;;;;;;;;;;;;;;;;;;;;;;;;;;;;;;;;;;;;;;;;
"!(km*(";"1989";;"Windows 7";"Rachel's Experiment (D.T.)";"1.0";"2";"1";"1";"2";"3";"1";"2014-08-06 12:50:33.674";"2014-08-06 13:07:33.656";"1";"0";"0";"178";"18";"module.training_block1.exec-2259.GoNoGo1";;;;;;;;;;;;;;;;;;;;;;;"1250";"2014-08-06 12:52:00.808";"NST_correctLoc";"21";"1";"FINISHED";"RIGHT";"success";"578";"0";"2014-08-06 12:51:59.558";"3";;;;;;;;;;;;;;;;;;;;;;;;;;;;;;;;;;;;;;;;;;;;;;;;;;;;;;;;;
"!(km*(";"1989";;"Windows 7";"Rachel's Experiment (D.T.)";"1.0";"2";"1";"1";"2";"3";"1";"2014-08-06 12:50:33.674";"2014-08-06 13:07:33.656";"1";"0";"0";"179";"19";"module.training_block1.exec-2259.GoNoGo1";;;;;;;;;;;;;;;;;;;;;;;"1250";"2014-08-06 12:52:03.335";"NST_correctLoc";"20";"0";"FINISHED";"LEFT";"success";"386";"0";"2014-08-06 12:52:02.085";"3";;;;;;;;;;;;;;;;;;;;;;;;;;;;;;;;;;;;;;;;;;;;;;;;;;;;;;;;;
"!(km*(";"1989";;"Windows 7";"Rachel's Experiment (D.T.)";"1.0";"2";"1";"1";"2";"3";"1";"2014-08-06 12:50:33.674";"2014-08-06 13:07:33.656";"1";"0";"0";"180";"20";"module.training_block1.exec-2259.GoNoGo1";;;;;;;;;;;;;;;;;;;;;;;"1249";"2014-08-06 12:52:05.868";"NST_correctLoc";"24";"1";"FINISHED";"RIGHT";"success";"333";"0";"2014-08-06 12:52:04.618";"3";;;;;;;;;;;;;;;;;;;;;;;;;;;;;;;;;;;;;;;;;;;;;;;;;;;;;;;;;
"!(km*(";"1989";;"Windows 7";"Rachel's Experiment (D.T.)";"1.0";"2";"1";"1";"2";"3";"1";"2014-08-06 12:50:33.674";"2014-08-06 13:07:33.656";"1";"0";"0";"181";"21";"module.training_block1.exec-2259.GoNoGo1";;;;;;;;;;;;;;;;;;;;;;;"1249";"2014-08-06 12:52:08.398";"NST_correctLoc";"27";"1";"FINISHED";"RIGHT";"success";"520";"0";"2014-08-06 12:52:07.148";"3";;;;;;;;;;;;;;;;;;;;;;;;;;;;;;;;;;;;;;;;;;;;;;;;;;;;;;;;;
"!(km*(";"1989";;"Windows 7";"Rachel's Experiment (D.T.)";"1.0";"2";"1";"1";"2";"3";"1";"2014-08-06 12:50:33.674";"2014-08-06 13:07:33.656";"1";"0";"0";"182";"22";"module.training_block1.exec-2259.GoNoGo1";;;;;;;;;;;;;;;;;;;;;;;"1249";"2014-08-06 12:52:10.927";"NST_correctLoc";"22";"0";"FINISHED";"LEFT";"success";"563";"0";"2014-08-06 12:52:09.677";"3";;;;;;;;;;;;;;;;;;;;;;;;;;;;;;;;;;;;;;;;;;;;;;;;;;;;;;;;;
"!(km*(";"1989";;"Windows 7";"Rachel's Experiment (D.T.)";"1.0";"2";"1";"1";"2";"3";"1";"2014-08-06 12:50:33.674";"2014-08-06 13:07:33.656";"1";"0";"0";"183";"23";"module.training_block1.exec-2259.GoNoGo1";;;;;;;;;;;;;;;;;;;;;;;"1250";"2014-08-06 12:52:13.458";"NST_correctLoc";"28";"1";"FINISHED";"RIGHT";"success";"412";"0";"2014-08-06 12:52:12.208";"3";;;;;;;;;;;;;;;;;;;;;;;;;;;;;;;;;;;;;;;;;;;;;;;;;;;;;;;;;
"!(km*(";"1989";;"Windows 7";"Rachel's Experiment (D.T.)";"1.0";"2";"1";"1";"2";"3";"1";"2014-08-06 12:50:33.674";"2014-08-06 13:07:33.656";"1";"0";"0";"184";"24";"module.training_block1.exec-2259.GoNoGo1";;;;;;;;;;;;;;;;;;;;;;;"1250";"2014-08-06 12:52:15.986";"NST_correctLoc";"2";"0";"FINISHED";"LEFT";"success";"460";"0";"2014-08-06 12:52:14.736";"1";;;;;;;;;;;;;;;;;;;;;;;;;;;;;;;;;;;;;;;;;;;;;;;;;;;;;;;;;
"!(km*(";"1989";;"Windows 7";"Rachel's Experiment (D.T.)";"1.0";"2";"1";"1";"2";"3";"1";"2014-08-06 12:50:33.674";"2014-08-06 13:07:33.656";"1";"0";"0";"185";"25";"module.training_block1.exec-2259.GoNoGo1";;;;;;;;;;;;;;;;;;;;;;;"1249";"2014-08-06 12:52:18.517";"NST_correctLoc";"13";"0";"FINISHED";"LEFT";"success";"575";"0";"2014-08-06 12:52:17.266";"2";;;;;;;;;;;;;;;;;;;;;;;;;;;;;;;;;;;;;;;;;;;;;;;;;;;;;;;;;
"!(km*(";"1989";;"Windows 7";"Rachel's Experiment (D.T.)";"1.0";"2";"1";"1";"2";"3";"1";"2014-08-06 12:50:33.674";"2014-08-06 13:07:33.656";"1";"0";"0";"186";"26";"module.training_block1.exec-2259.GoNoGo1";;;;;;;;;;;;;;;;;;;;;;;"1249";"2014-08-06 12:52:21.051";"NST_correctLoc";"4";"1";"FINISHED";"RIGHT";"success";"523";"0";"2014-08-06 12:52:19.801";"1";;;;;;;;;;;;;;;;;;;;;;;;;;;;;;;;;;;;;;;;;;;;;;;;;;;;;;;;;
"!(km*(";"1989";;"Windows 7";"Rachel's Experiment (D.T.)";"1.0";"2";"1";"1";"2";"3";"1";"2014-08-06 12:50:33.674";"2014-08-06 13:07:33.656";"1";"0";"0";"187";"27";"module.training_block1.exec-2259.GoNoGo1";;;;;;;;;;;;;;;;;;;;;;;"1250";"2014-08-06 12:52:23.582";"NST_correctLoc";"6";"1";"FINISHED";"RIGHT";"success";"524";"0";"2014-08-06 12:52:22.332";"1";;;;;;;;;;;;;;;;;;;;;;;;;;;;;;;;;;;;;;;;;;;;;;;;;;;;;;;;;
"!(km*(";"1989";;"Windows 7";"Rachel's Experiment (D.T.)";"1.0";"2";"1";"1";"2";"3";"1";"2014-08-06 12:50:33.674";"2014-08-06 13:07:33.656";"1";"0";"0";"188";"28";"module.training_block1.exec-2259.GoNoGo1";;;;;;;;;;;;;;;;;;;;;;;"1249";"2014-08-06 12:52:26.113";"NST_correctLoc";"11";"1";"FINISHED";"RIGHT";"success";"499";"0";"2014-08-06 12:52:24.863";"2";;;;;;;;;;;;;;;;;;;;;;;;;;;;;;;;;;;;;;;;;;;;;;;;;;;;;;;;;
"!(km*(";"1989";;"Windows 7";"Rachel's Experiment (D.T.)";"1.0";"2";"1";"1";"2";"3";"1";"2014-08-06 12:50:33.674";"2014-08-06 13:07:33.656";"1";"0";"0";"189";"29";"module.training_block1.exec-2259.GoNoGo1";;;;;;;;;;;;;;;;;;;;;;;"1249";"2014-08-06 12:52:28.662";"NST_correctLoc";"15";"1";"FINISHED";"RIGHT";"success";"834";"0";"2014-08-06 12:52:27.412";"2";;;;;;;;;;;;;;;;;;;;;;;;;;;;;;;;;;;;;;;;;;;;;;;;;;;;;;;;;
"!(km*(";"1989";;"Windows 7";"Rachel's Experiment (D.T.)";"1.0";"2";"1";"1";"2";"3";"1";"2014-08-06 12:50:33.674";"2014-08-06 13:07:33.656";"1";"0";"0";"190";"30";"module.training_block1.exec-2259.GoNoGo1";;;;;;;;;;;;;;;;;;;;;;;"1249";"2014-08-06 12:52:31.189";"NST_correctLoc";"14";"0";"FINISHED";"LEFT";"success";"707";"0";"2014-08-06 12:52:29.939";"2";;;;;;;;;;;;;;;;;;;;;;;;;;;;;;;;;;;;;;;;;;;;;;;;;;;;;;;;;
"!(km*(";"1989";;"Windows 7";"Rachel's Experiment (D.T.)";"1.0";"2";"1";"1";"2";"3";"1";"2014-08-06 12:50:33.674";"2014-08-06 13:07:33.656";"1";"0";"0";"191";"31";"module.training_block1.exec-2259.GoNoGo1";;;;;;;;;;;;;;;;;;;;;;;"1250";"2014-08-06 12:52:33.720";"NST_correctLoc";"17";"0";"FINISHED";"LEFT";"success";"369";"0";"2014-08-06 12:52:32.470";"2";;;;;;;;;;;;;;;;;;;;;;;;;;;;;;;;;;;;;;;;;;;;;;;;;;;;;;;;;
"!(km*(";"1989";;"Windows 7";"Rachel's Experiment (D.T.)";"1.0";"2";"1";"1";"2";"3";"1";"2014-08-06 12:50:33.674";"2014-08-06 13:07:33.656";"1";"0";"0";"192";"32";"module.training_block1.exec-2259.GoNoGo1";;;;;;;;;;;;;;;;;;;;;;;"1250";"2014-08-06 12:52:36.343";"NST_correctLoc";"7";"1";"FINISHED";"RIGHT";"success";"384";"0";"2014-08-06 12:52:35.092";"1";;;;;;;;;;;;;;;;;;;;;;;;;;;;;;;;;;;;;;;;;;;;;;;;;;;;;;;;;
"!(km*(";"1989";;"Windows 7";"Rachel's Experiment (D.T.)";"1.0";"2";"1";"1";"2";"3";"1";"2014-08-06 12:50:33.674";"2014-08-06 13:07:33.656";"1";"0";"0";"193";"33";"module.training_block1.exec-2259.GoNoGo1";;;;;;;;;;;;;;;;;;;;;;;"1249";"2014-08-06 12:52:38.873";"NST_correctLoc";"18";"0";"FINISHED";"LEFT";"success";"481";"0";"2014-08-06 12:52:37.623";"3";;;;;;;;;;;;;;;;;;;;;;;;;;;;;;;;;;;;;;;;;;;;;;;;;;;;;;;;;
"!(km*(";"1989";;"Windows 7";"Rachel's Experiment (D.T.)";"1.0";"2";"1";"1";"2";"3";"1";"2014-08-06 12:50:33.674";"2014-08-06 13:07:33.656";"1";"0";"0";"194";"34";"module.training_block1.exec-2259.GoNoGo1";;;;;;;;;;;;;;;;;;;;;;;"1249";"2014-08-06 12:52:41.390";"NST_correctLoc";"19";"0";"FINISHED";"LEFT";"success";"374";"0";"2014-08-06 12:52:40.140";"3";;;;;;;;;;;;;;;;;;;;;;;;;;;;;;;;;;;;;;;;;;;;;;;;;;;;;;;;;
"!(km*(";"1989";;"Windows 7";"Rachel's Experiment (D.T.)";"1.0";"2";"1";"1";"2";"3";"1";"2014-08-06 12:50:33.674";"2014-08-06 13:07:33.656";"1";"0";"0";"195";"35";"module.training_block1.exec-2259.GoNoGo1";;;;;;;;;;;;;;;;;;;;;;;"1250";"2014-08-06 12:52:43.921";"NST_correctLoc";"10";"1";"FINISHED";"RIGHT";"success";"363";"0";"2014-08-06 12:52:42.671";"2";;;;;;;;;;;;;;;;;;;;;;;;;;;;;;;;;;;;;;;;;;;;;;;;;;;;;;;;;
"!(km*(";"1989";;"Windows 7";"Rachel's Experiment (D.T.)";"1.0";"2";"1";"1";"2";"3";"1";"2014-08-06 12:50:33.674";"2014-08-06 13:07:33.656";"1";"0";"0";"196";"36";"module.training_block1.exec-2259.GoNoGo1";;;;;;;;;;;;;;;;;;;;;;;"1250";"2014-08-06 12:52:46.456";"NST_correctLoc";"32";"0";"FINISHED";"LEFT";"success";"488";"0";"2014-08-06 12:52:45.206";"3";;;;;;;;;;;;;;;;;;;;;;;;;;;;;;;;;;;;;;;;;;;;;;;;;;;;;;;;;
"!(km*(";"1989";;"Windows 7";"Rachel's Experiment (D.T.)";"1.0";"2";"1";"1";"2";"3";"1";"2014-08-06 12:50:33.674";"2014-08-06 13:07:33.656";"1";"0";"0";"197";"37";"module.training_block1.exec-2259.GoNoGo1";;;;;;;;;;;;;;;;;;;;;;;"1249";"2014-08-06 12:52:48.985";"NST_correctLoc";"26";"0";"FINISHED";"LEFT";"success";"358";"0";"2014-08-06 12:52:47.735";"3";;;;;;;;;;;;;;;;;;;;;;;;;;;;;;;;;;;;;;;;;;;;;;;;;;;;;;;;;
"!(km*(";"1989";;"Windows 7";"Rachel's Experiment (D.T.)";"1.0";"2";"1";"1";"2";"3";"1";"2014-08-06 12:50:33.674";"2014-08-06 13:07:33.656";"1";"0";"0";"198";"38";"module.training_block1.exec-2259.GoNoGo1";;;;;;;;;;;;;;;;;;;;;;;"1250";"2014-08-06 12:52:51.502";"NST_correctLoc";"1";"1";"FINISHED";"RIGHT";"success";"334";"0";"2014-08-06 12:52:50.252";"1";;;;;;;;;;;;;;;;;;;;;;;;;;;;;;;;;;;;;;;;;;;;;;;;;;;;;;;;;
"!(km*(";"1989";;"Windows 7";"Rachel's Experiment (D.T.)";"1.0";"2";"1";"1";"2";"3";"1";"2014-08-06 12:50:33.674";"2014-08-06 13:07:33.656";"1";"0";"0";"199";"39";"module.training_block1.exec-2259.GoNoGo1";;;;;;;;;;;;;;;;;;;;;;;"1250";"2014-08-06 12:52:54.034";"NST_correctLoc";"30";"1";"FINISHED";"RIGHT";"success";"402";"0";"2014-08-06 12:52:52.783";"3";;;;;;;;;;;;;;;;;;;;;;;;;;;;;;;;;;;;;;;;;;;;;;;;;;;;;;;;;
"!(km*(";"1989";;"Windows 7";"Rachel's Experiment (D.T.)";"1.0";"2";"1";"1";"2";"3";"1";"2014-08-06 12:50:33.674";"2014-08-06 13:07:33.656";"1";"0";"0";"200";"40";"module.training_block1.exec-2259.GoNoGo1";;;;;;;;;;;;;;;;;;;;;;;"1250";"2014-08-06 12:52:56.565";"NST_correctLoc";"25";"1";"FINISHED";"RIGHT";"success";"513";"0";"2014-08-06 12:52:55.315";"3";;;;;;;;;;;;;;;;;;;;;;;;;;;;;;;;;;;;;;;;;;;;;;;;;;;;;;;;;
"!(km*(";"1989";;"Windows 7";"Rachel's Experiment (D.T.)";"1.0";"2";"1";"1";"2";"3";"1";"2014-08-06 12:50:33.674";"2014-08-06 13:07:33.656";"1";"0";"0";"201";"41";"module.training_block1.exec-2259.GoNoGo1";;;;;;;;;;;;;;;;;;;;;;;"1250";"2014-08-06 12:52:59.096";"NST_correctLoc";"29";"1";"FINISHED";"RIGHT";"success";"514";"0";"2014-08-06 12:52:57.845";"3";;;;;;;;;;;;;;;;;;;;;;;;;;;;;;;;;;;;;;;;;;;;;;;;;;;;;;;;;
"!(km*(";"1989";;"Windows 7";"Rachel's Experiment (D.T.)";"1.0";"2";"1";"1";"2";"3";"1";"2014-08-06 12:50:33.674";"2014-08-06 13:07:33.656";"1";"0";"0";"202";"42";"module.training_block1.exec-2259.GoNoGo1";;;;;;;;;;;;;;;;;;;;;;;"1250";"2014-08-06 12:53:01.612";"NST_correctLoc";"35";"0";"FINISHED";"LEFT";"success";"367";"0";"2014-08-06 12:53:00.362";"3";;;;;;;;;;;;;;;;;;;;;;;;;;;;;;;;;;;;;;;;;;;;;;;;;;;;;;;;;
"!(km*(";"1989";;"Windows 7";"Rachel's Experiment (D.T.)";"1.0";"2";"1";"1";"2";"3";"1";"2014-08-06 12:50:33.674";"2014-08-06 13:07:33.656";"1";"0";"0";"203";"43";"module.training_block1.exec-2259.GoNoGo1";;;;;;;;;;;;;;;;;;;;;;;"1250";"2014-08-06 12:53:04.143";"NST_correctLoc";"23";"0";"FINISHED";"LEFT";"success";"501";"0";"2014-08-06 12:53:02.893";"3";;;;;;;;;;;;;;;;;;;;;;;;;;;;;;;;;;;;;;;;;;;;;;;;;;;;;;;;;
"!(km*(";"1989";;"Windows 7";"Rachel's Experiment (D.T.)";"1.0";"2";"1";"1";"2";"3";"1";"2014-08-06 12:50:33.674";"2014-08-06 13:07:33.656";"1";"0";"0";"204";"44";"module.training_block1.exec-2259.GoNoGo1";;;;;;;;;;;;;;;;;;;;;;;"1250";"2014-08-06 12:53:06.678";"NST_correctLoc";"9";"0";"FINISHED";"LEFT";"success";"476";"0";"2014-08-06 12:53:05.428";"2";;;;;;;;;;;;;;;;;;;;;;;;;;;;;;;;;;;;;;;;;;;;;;;;;;;;;;;;;
"!(km*(";"1989";;"Windows 7";"Rachel's Experiment (D.T.)";"1.0";"2";"1";"1";"2";"3";"1";"2014-08-06 12:50:33.674";"2014-08-06 13:07:33.656";"1";"0";"0";"205";"45";"module.training_block1.exec-2259.GoNoGo1";;;;;;;;;;;;;;;;;;;;;;;"1250";"2014-08-06 12:53:09.209";"NST_correctLoc";"3";"0";"FINISHED";"LEFT";"success";"391";"0";"2014-08-06 12:53:07.959";"1";;;;;;;;;;;;;;;;;;;;;;;;;;;;;;;;;;;;;;;;;;;;;;;;;;;;;;;;;
"!(km*(";"1989";;"Windows 7";"Rachel's Experiment (D.T.)";"1.0";"2";"1";"1";"2";"3";"1";"2014-08-06 12:50:33.674";"2014-08-06 13:07:33.656";"1";"0";"0";"206";"46";"module.training_block1.exec-2259.GoNoGo1";;;;;;;;;;;;;;;;;;;;;;;"1250";"2014-08-06 12:53:11.742";"NST_correctLoc";"31";"0";"FINISHED";"LEFT";"success";"357";"0";"2014-08-06 12:53:10.491";"3";;;;;;;;;;;;;;;;;;;;;;;;;;;;;;;;;;;;;;;;;;;;;;;;;;;;;;;;;
"!(km*(";"1989";;"Windows 7";"Rachel's Experiment (D.T.)";"1.0";"2";"1";"1";"2";"3";"1";"2014-08-06 12:50:33.674";"2014-08-06 13:07:33.656";"1";"0";"0";"207";"47";"module.training_block1.exec-2259.GoNoGo1";;;;;;;;;;;;;;;;;;;;;;;"1249";"2014-08-06 12:53:14.273";"NST_correctLoc";"12";"0";"FINISHED";"LEFT";"success";"357";"0";"2014-08-06 12:53:13.023";"2";;;;;;;;;;;;;;;;;;;;;;;;;;;;;;;;;;;;;;;;;;;;;;;;;;;;;;;;;
"!(km*(";"1989";;"Windows 7";"Rachel's Experiment (D.T.)";"1.0";"2";"1";"1";"2";"3";"1";"2014-08-06 12:50:33.674";"2014-08-06 13:07:33.656";"1";"0";"0";"208";"48";"module.training_block1.exec-2259.GoNoGo1";;;;;;;;;;;;;;;;;;;;;;;"1249";"2014-08-06 12:53:16.805";"NST_correctLoc";"5";"1";"FINISHED";"RIGHT";"success";"429";"0";"2014-08-06 12:53:15.555";"1";;;;;;;;;;;;;;;;;;;;;;;;;;;;;;;;;;;;;;;;;;;;;;;;;;;;;;;;;
"!(km*(";"1989";;"Windows 7";"Rachel's Experiment (D.T.)";"1.0";"2";"1";"1";"2";"3";"1";"2014-08-06 12:50:33.674";"2014-08-06 13:07:33.656";"1";"0";"0";"209";"49";"module.training_block1.exec-2259.GoNoGo1";;;;;;;;;;;;;;;;;;;;;;;"1249";"2014-08-06 12:53:19.342";"NST_correctLoc";"16";"0";"FINISHED";"LEFT";"success";"372";"0";"2014-08-06 12:53:18.092";"2";;;;;;;;;;;;;;;;;;;;;;;;;;;;;;;;;;;;;;;;;;;;;;;;;;;;;;;;;
"!(km*(";"1989";;"Windows 7";"Rachel's Experiment (D.T.)";"1.0";"2";"1";"1";"2";"3";"1";"2014-08-06 12:50:33.674";"2014-08-06 13:07:33.656";"1";"0";"0";"210";"50";"module.training_block1.exec-2259.GoNoGo1";;;;;;;;;;;;;;;;;;;;;;;"1249";"2014-08-06 12:53:21.868";"NST_correctLoc";"33";"1";"FINISHED";"RIGHT";"success";"370";"0";"2014-08-06 12:53:20.618";"3";;;;;;;;;;;;;;;;;;;;;;;;;;;;;;;;;;;;;;;;;;;;;;;;;;;;;;;;;
"!(km*(";"1989";;"Windows 7";"Rachel's Experiment (D.T.)";"1.0";"2";"1";"1";"2";"3";"1";"2014-08-06 12:50:33.674";"2014-08-06 13:07:33.656";"1";"0";"0";"211";"51";"module.training_block2.exec-8603.GoNoGo2";;;;;;;;;;;;;;;;;;;;;;;;;;;;;;;;;;;"1250";"2014-08-06 12:56:46.710";"NST_correctLoc";"9";"0";"FINISHED";"LEFT";"success";"864";"0";"2014-08-06 12:56:45.460";"2";;;;;;;;;;;;;;;;;;;;;;;;;;;;;;;;;;;;;;;;;;;;;
"!(km*(";"1989";;"Windows 7";"Rachel's Experiment (D.T.)";"1.0";"2";"1";"1";"2";"3";"1";"2014-08-06 12:50:33.674";"2014-08-06 13:07:33.656";"1";"0";"0";"212";"52";"module.training_block2.exec-8603.GoNoGo2";;;;;;;;;;;;;;;;;;;;;;;;;;;;;;;;;;;"1250";"2014-08-06 12:56:49.241";"NST_correctLoc";"1";"0";"FINISHED";"LEFT";"success";"449";"0";"2014-08-06 12:56:47.991";"1";;;;;;;;;;;;;;;;;;;;;;;;;;;;;;;;;;;;;;;;;;;;;
"!(km*(";"1989";;"Windows 7";"Rachel's Experiment (D.T.)";"1.0";"2";"1";"1";"2";"3";"1";"2014-08-06 12:50:33.674";"2014-08-06 13:07:33.656";"1";"0";"0";"213";"53";"module.training_block2.exec-8603.GoNoGo2";;;;;;;;;;;;;;;;;;;;;;;;;;;;;;;;;;;"1249";"2014-08-06 12:56:51.771";"NST_correctLoc";"23";"0";"FINISHED";"LEFT";"success";"333";"0";"2014-08-06 12:56:50.521";"3";;;;;;;;;;;;;;;;;;;;;;;;;;;;;;;;;;;;;;;;;;;;;
"!(km*(";"1989";;"Windows 7";"Rachel's Experiment (D.T.)";"1.0";"2";"1";"1";"2";"3";"1";"2014-08-06 12:50:33.674";"2014-08-06 13:07:33.656";"1";"0";"0";"214";"54";"module.training_block2.exec-8603.GoNoGo2";;;;;;;;;;;;;;;;;;;;;;;;;;;;;;;;;;;"1249";"2014-08-06 12:56:54.300";"NST_correctLoc";"15";"0";"FINISHED";"LEFT";"success";"418";"0";"2014-08-06 12:56:53.050";"2";;;;;;;;;;;;;;;;;;;;;;;;;;;;;;;;;;;;;;;;;;;;;
"!(km*(";"1989";;"Windows 7";"Rachel's Experiment (D.T.)";"1.0";"2";"1";"1";"2";"3";"1";"2014-08-06 12:50:33.674";"2014-08-06 13:07:33.656";"1";"0";"0";"215";"55";"module.training_block2.exec-8603.GoNoGo2";;;;;;;;;;;;;;;;;;;;;;;;;;;;;;;;;;;"1250";"2014-08-06 12:56:56.831";"NST_correctLoc";"16";"0";"FINISHED";"LEFT";"success";"371";"0";"2014-08-06 12:56:55.581";"2";;;;;;;;;;;;;;;;;;;;;;;;;;;;;;;;;;;;;;;;;;;;;
"!(km*(";"1989";;"Windows 7";"Rachel's Experiment (D.T.)";"1.0";"2";"1";"1";"2";"3";"1";"2014-08-06 12:50:33.674";"2014-08-06 13:07:33.656";"1";"0";"0";"216";"56";"module.training_block2.exec-8603.GoNoGo2";;;;;;;;;;;;;;;;;;;;;;;;;;;;;;;;;;;"1250";"2014-08-06 12:56:59.363";"NST_correctLoc";"22";"1";"FINISHED";"RIGHT";"success";"337";"0";"2014-08-06 12:56:58.113";"3";;;;;;;;;;;;;;;;;;;;;;;;;;;;;;;;;;;;;;;;;;;;;
"!(km*(";"1989";;"Windows 7";"Rachel's Experiment (D.T.)";"1.0";"2";"1";"1";"2";"3";"1";"2014-08-06 12:50:33.674";"2014-08-06 13:07:33.656";"1";"0";"0";"217";"57";"module.training_block2.exec-8603.GoNoGo2";;;;;;;;;;;;;;;;;;;;;;;;;;;;;;;;;;;"1250";"2014-08-06 12:57:01.892";"NST_correctLoc";"11";"1";"FINISHED";"RIGHT";"success";"611";"0";"2014-08-06 12:57:00.642";"2";;;;;;;;;;;;;;;;;;;;;;;;;;;;;;;;;;;;;;;;;;;;;
"!(km*(";"1989";;"Windows 7";"Rachel's Experiment (D.T.)";"1.0";"2";"1";"1";"2";"3";"1";"2014-08-06 12:50:33.674";"2014-08-06 13:07:33.656";"1";"0";"0";"218";"58";"module.training_block2.exec-8603.GoNoGo2";;;;;;;;;;;;;;;;;;;;;;;;;;;;;;;;;;;"1249";"2014-08-06 12:57:04.422";"NST_correctLoc";"27";"0";"FINISHED";"LEFT";"success";"361";"0";"2014-08-06 12:57:03.172";"3";;;;;;;;;;;;;;;;;;;;;;;;;;;;;;;;;;;;;;;;;;;;;
"!(km*(";"1989";;"Windows 7";"Rachel's Experiment (D.T.)";"1.0";"2";"1";"1";"2";"3";"1";"2014-08-06 12:50:33.674";"2014-08-06 13:07:33.656";"1";"0";"0";"219";"59";"module.training_block2.exec-8603.GoNoGo2";;;;;;;;;;;;;;;;;;;;;;;;;;;;;;;;;;;"1250";"2014-08-06 12:57:06.952";"NST_correctLoc";"34";"0";"FINISHED";"LEFT";"success";"349";"0";"2014-08-06 12:57:05.702";"3";;;;;;;;;;;;;;;;;;;;;;;;;;;;;;;;;;;;;;;;;;;;;
"!(km*(";"1989";;"Windows 7";"Rachel's Experiment (D.T.)";"1.0";"2";"1";"1";"2";"3";"1";"2014-08-06 12:50:33.674";"2014-08-06 13:07:33.656";"1";"0";"0";"220";"60";"module.training_block2.exec-8603.GoNoGo2";;;;;;;;;;;;;;;;;;;;;;;;;;;;;;;;;;;"1249";"2014-08-06 12:57:09.481";"NST_correctLoc";"21";"1";"FINISHED";"RIGHT";"success";"471";"0";"2014-08-06 12:57:08.231";"3";;;;;;;;;;;;;;;;;;;;;;;;;;;;;;;;;;;;;;;;;;;;;
"!(km*(";"1989";;"Windows 7";"Rachel's Experiment (D.T.)";"1.0";"2";"1";"1";"2";"3";"1";"2014-08-06 12:50:33.674";"2014-08-06 13:07:33.656";"1";"0";"0";"221";"61";"module.training_block2.exec-8603.GoNoGo2";;;;;;;;;;;;;;;;;;;;;;;;;;;;;;;;;;;"1249";"2014-08-06 12:57:12.011";"NST_correctLoc";"7";"0";"FINISHED";"LEFT";"success";"333";"0";"2014-08-06 12:57:10.761";"1";;;;;;;;;;;;;;;;;;;;;;;;;;;;;;;;;;;;;;;;;;;;;
"!(km*(";"1989";;"Windows 7";"Rachel's Experiment (D.T.)";"1.0";"2";"1";"1";"2";"3";"1";"2014-08-06 12:50:33.674";"2014-08-06 13:07:33.656";"1";"0";"0";"222";"62";"module.training_block2.exec-8603.GoNoGo2";;;;;;;;;;;;;;;;;;;;;;;;;;;;;;;;;;;"1249";"2014-08-06 12:57:14.543";"NST_correctLoc";"10";"0";"FINISHED";"LEFT";"success";"406";"0";"2014-08-06 12:57:13.293";"2";;;;;;;;;;;;;;;;;;;;;;;;;;;;;;;;;;;;;;;;;;;;;
"!(km*(";"1989";;"Windows 7";"Rachel's Experiment (D.T.)";"1.0";"2";"1";"1";"2";"3";"1";"2014-08-06 12:50:33.674";"2014-08-06 13:07:33.656";"1";"0";"0";"223";"63";"module.training_block2.exec-8603.GoNoGo2";;;;;;;;;;;;;;;;;;;;;;;;;;;;;;;;;;;"1249";"2014-08-06 12:57:17.073";"NST_correctLoc";"13";"0";"FINISHED";"LEFT";"success";"530";"0";"2014-08-06 12:57:15.823";"2";;;;;;;;;;;;;;;;;;;;;;;;;;;;;;;;;;;;;;;;;;;;;
"!(km*(";"1989";;"Windows 7";"Rachel's Experiment (D.T.)";"1.0";"2";"1";"1";"2";"3";"1";"2014-08-06 12:50:33.674";"2014-08-06 13:07:33.656";"1";"0";"0";"224";"64";"module.training_block2.exec-8603.GoNoGo2";;;;;;;;;;;;;;;;;;;;;;;;;;;;;;;;;;;"1249";"2014-08-06 12:57:19.602";"NST_correctLoc";"33";"1";"FINISHED";"RIGHT";"success";"594";"0";"2014-08-06 12:57:18.352";"3";;;;;;;;;;;;;;;;;;;;;;;;;;;;;;;;;;;;;;;;;;;;;
"!(km*(";"1989";;"Windows 7";"Rachel's Experiment (D.T.)";"1.0";"2";"1";"1";"2";"3";"1";"2014-08-06 12:50:33.674";"2014-08-06 13:07:33.656";"1";"0";"0";"225";"65";"module.training_block2.exec-8603.GoNoGo2";;;;;;;;;;;;;;;;;;;;;;;;;;;;;;;;;;;"1249";"2014-08-06 12:57:22.132";"NST_correctLoc";"28";"0";"FINISHED";"LEFT";"success";"344";"0";"2014-08-06 12:57:20.882";"3";;;;;;;;;;;;;;;;;;;;;;;;;;;;;;;;;;;;;;;;;;;;;
"!(km*(";"1989";;"Windows 7";"Rachel's Experiment (D.T.)";"1.0";"2";"1";"1";"2";"3";"1";"2014-08-06 12:50:33.674";"2014-08-06 13:07:33.656";"1";"0";"0";"226";"66";"module.training_block2.exec-8603.GoNoGo2";;;;;;;;;;;;;;;;;;;;;;;;;;;;;;;;;;;"1249";"2014-08-06 12:57:24.660";"NST_correctLoc";"3";"1";"FINISHED";"RIGHT";"success";"453";"0";"2014-08-06 12:57:23.410";"1";;;;;;;;;;;;;;;;;;;;;;;;;;;;;;;;;;;;;;;;;;;;;
"!(km*(";"1989";;"Windows 7";"Rachel's Experiment (D.T.)";"1.0";"2";"1";"1";"2";"3";"1";"2014-08-06 12:50:33.674";"2014-08-06 13:07:33.656";"1";"0";"0";"227";"67";"module.training_block2.exec-8603.GoNoGo2";;;;;;;;;;;;;;;;;;;;;;;;;;;;;;;;;;;"1249";"2014-08-06 12:57:27.189";"NST_correctLoc";"6";"0";"FINISHED";"LEFT";"success";"341";"0";"2014-08-06 12:57:25.939";"1";;;;;;;;;;;;;;;;;;;;;;;;;;;;;;;;;;;;;;;;;;;;;
"!(km*(";"1989";;"Windows 7";"Rachel's Experiment (D.T.)";"1.0";"2";"1";"1";"2";"3";"1";"2014-08-06 12:50:33.674";"2014-08-06 13:07:33.656";"1";"0";"0";"228";"68";"module.training_block2.exec-8603.GoNoGo2";;;;;;;;;;;;;;;;;;;;;;;;;;;;;;;;;;;"1249";"2014-08-06 12:57:29.728";"NST_correctLoc";"26";"0";"FINISHED";"LEFT";"success";"354";"0";"2014-08-06 12:57:28.478";"3";;;;;;;;;;;;;;;;;;;;;;;;;;;;;;;;;;;;;;;;;;;;;
"!(km*(";"1989";;"Windows 7";"Rachel's Experiment (D.T.)";"1.0";"2";"1";"1";"2";"3";"1";"2014-08-06 12:50:33.674";"2014-08-06 13:07:33.656";"1";"0";"0";"229";"69";"module.training_block2.exec-8603.GoNoGo2";;;;;;;;;;;;;;;;;;;;;;;;;;;;;;;;;;;"1249";"2014-08-06 12:57:32.244";"NST_correctLoc";"5";"1";"FINISHED";"RIGHT";"success";"626";"0";"2014-08-06 12:57:30.994";"1";;;;;;;;;;;;;;;;;;;;;;;;;;;;;;;;;;;;;;;;;;;;;
"!(km*(";"1989";;"Windows 7";"Rachel's Experiment (D.T.)";"1.0";"2";"1";"1";"2";"3";"1";"2014-08-06 12:50:33.674";"2014-08-06 13:07:33.656";"1";"0";"0";"230";"70";"module.training_block2.exec-8603.GoNoGo2";;;;;;;;;;;;;;;;;;;;;;;;;;;;;;;;;;;"1249";"2014-08-06 12:57:34.773";"NST_correctLoc";"29";"1";"FINISHED";"RIGHT";"success";"389";"0";"2014-08-06 12:57:33.523";"3";;;;;;;;;;;;;;;;;;;;;;;;;;;;;;;;;;;;;;;;;;;;;
"!(km*(";"1989";;"Windows 7";"Rachel's Experiment (D.T.)";"1.0";"2";"1";"1";"2";"3";"1";"2014-08-06 12:50:33.674";"2014-08-06 13:07:33.656";"1";"0";"0";"231";"71";"module.training_block2.exec-8603.GoNoGo2";;;;;;;;;;;;;;;;;;;;;;;;;;;;;;;;;;;"1249";"2014-08-06 12:57:37.289";"NST_correctLoc";"12";"1";"FINISHED";"RIGHT";"success";"522";"0";"2014-08-06 12:57:36.039";"2";;;;;;;;;;;;;;;;;;;;;;;;;;;;;;;;;;;;;;;;;;;;;
"!(km*(";"1989";;"Windows 7";"Rachel's Experiment (D.T.)";"1.0";"2";"1";"1";"2";"3";"1";"2014-08-06 12:50:33.674";"2014-08-06 13:07:33.656";"1";"0";"0";"232";"72";"module.training_block2.exec-8603.GoNoGo2";;;;;;;;;;;;;;;;;;;;;;;;;;;;;;;;;;;"1249";"2014-08-06 12:57:39.818";"NST_correctLoc";"19";"0";"FINISHED";"LEFT";"success";"556";"0";"2014-08-06 12:57:38.568";"3";;;;;;;;;;;;;;;;;;;;;;;;;;;;;;;;;;;;;;;;;;;;;
"!(km*(";"1989";;"Windows 7";"Rachel's Experiment (D.T.)";"1.0";"2";"1";"1";"2";"3";"1";"2014-08-06 12:50:33.674";"2014-08-06 13:07:33.656";"1";"0";"0";"233";"73";"module.training_block2.exec-8603.GoNoGo2";;;;;;;;;;;;;;;;;;;;;;;;;;;;;;;;;;;"1250";"2014-08-06 12:57:42.334";"NST_correctLoc";"20";"0";"FINISHED";"LEFT";"success";"318";"0";"2014-08-06 12:57:41.083";"3";;;;;;;;;;;;;;;;;;;;;;;;;;;;;;;;;;;;;;;;;;;;;
"!(km*(";"1989";;"Windows 7";"Rachel's Experiment (D.T.)";"1.0";"2";"1";"1";"2";"3";"1";"2014-08-06 12:50:33.674";"2014-08-06 13:07:33.656";"1";"0";"0";"234";"74";"module.training_block2.exec-8603.GoNoGo2";;;;;;;;;;;;;;;;;;;;;;;;;;;;;;;;;;;"1249";"2014-08-06 12:57:44.932";"NST_correctLoc";"31";"1";"FINISHED";"RIGHT";"success";"412";"0";"2014-08-06 12:57:43.682";"3";;;;;;;;;;;;;;;;;;;;;;;;;;;;;;;;;;;;;;;;;;;;;
"!(km*(";"1989";;"Windows 7";"Rachel's Experiment (D.T.)";"1.0";"2";"1";"1";"2";"3";"1";"2014-08-06 12:50:33.674";"2014-08-06 13:07:33.656";"1";"0";"0";"235";"75";"module.training_block2.exec-8603.GoNoGo2";;;;;;;;;;;;;;;;;;;;;;;;;;;;;;;;;;;"1250";"2014-08-06 12:57:47.447";"NST_correctLoc";"24";"1";"FINISHED";"RIGHT";"success";"584";"0";"2014-08-06 12:57:46.197";"3";;;;;;;;;;;;;;;;;;;;;;;;;;;;;;;;;;;;;;;;;;;;;
"!(km*(";"1989";;"Windows 7";"Rachel's Experiment (D.T.)";"1.0";"2";"1";"1";"2";"3";"1";"2014-08-06 12:50:33.674";"2014-08-06 13:07:33.656";"1";"0";"0";"236";"76";"module.training_block2.exec-8603.GoNoGo2";;;;;;;;;;;;;;;;;;;;;;;;;;;;;;;;;;;"1249";"2014-08-06 12:57:49.974";"NST_correctLoc";"17";"0";"FINISHED";"LEFT";"success";"644";"0";"2014-08-06 12:57:48.724";"2";;;;;;;;;;;;;;;;;;;;;;;;;;;;;;;;;;;;;;;;;;;;;
"!(km*(";"1989";;"Windows 7";"Rachel's Experiment (D.T.)";"1.0";"2";"1";"1";"2";"3";"1";"2014-08-06 12:50:33.674";"2014-08-06 13:07:33.656";"1";"0";"0";"237";"77";"module.training_block2.exec-8603.GoNoGo2";;;;;;;;;;;;;;;;;;;;;;;;;;;;;;;;;;;"1250";"2014-08-06 12:57:52.505";"NST_correctLoc";"0";"1";"FINISHED";"RIGHT";"success";"425";"0";"2014-08-06 12:57:51.254";"1";;;;;;;;;;;;;;;;;;;;;;;;;;;;;;;;;;;;;;;;;;;;;
"!(km*(";"1989";;"Windows 7";"Rachel's Experiment (D.T.)";"1.0";"2";"1";"1";"2";"3";"1";"2014-08-06 12:50:33.674";"2014-08-06 13:07:33.656";"1";"0";"0";"238";"78";"module.training_block2.exec-8603.GoNoGo2";;;;;;;;;;;;;;;;;;;;;;;;;;;;;;;;;;;"1249";"2014-08-06 12:57:55.036";"NST_correctLoc";"25";"1";"FINISHED";"RIGHT";"success";"423";"0";"2014-08-06 12:57:53.786";"3";;;;;;;;;;;;;;;;;;;;;;;;;;;;;;;;;;;;;;;;;;;;;
"!(km*(";"1989";;"Windows 7";"Rachel's Experiment (D.T.)";"1.0";"2";"1";"1";"2";"3";"1";"2014-08-06 12:50:33.674";"2014-08-06 13:07:33.656";"1";"0";"0";"239";"79";"module.training_block2.exec-8603.GoNoGo2";;;;;;;;;;;;;;;;;;;;;;;;;;;;;;;;;;;"1249";"2014-08-06 12:57:57.565";"NST_correctLoc";"18";"0";"FINISHED";"LEFT";"success";"470";"0";"2014-08-06 12:57:56.315";"3";;;;;;;;;;;;;;;;;;;;;;;;;;;;;;;;;;;;;;;;;;;;;
"!(km*(";"1989";;"Windows 7";"Rachel's Experiment (D.T.)";"1.0";"2";"1";"1";"2";"3";"1";"2014-08-06 12:50:33.674";"2014-08-06 13:07:33.656";"1";"0";"0";"240";"80";"module.training_block2.exec-8603.GoNoGo2";;;;;;;;;;;;;;;;;;;;;;;;;;;;;;;;;;;"1250";"2014-08-06 12:58:00.094";"NST_correctLoc";"14";"0";"FINISHED";"LEFT";"success";"354";"0";"2014-08-06 12:57:58.844";"2";;;;;;;;;;;;;;;;;;;;;;;;;;;;;;;;;;;;;;;;;;;;;
"!(km*(";"1989";;"Windows 7";"Rachel's Experiment (D.T.)";"1.0";"2";"1";"1";"2";"3";"1";"2014-08-06 12:50:33.674";"2014-08-06 13:07:33.656";"1";"0";"0";"241";"81";"module.training_block2.exec-8603.GoNoGo2";;;;;;;;;;;;;;;;;;;;;;;;;;;;;;;;;;;"1249";"2014-08-06 12:58:02.625";"NST_correctLoc";"32";"1";"FINISHED";"RIGHT";"success";"369";"0";"2014-08-06 12:58:01.375";"3";;;;;;;;;;;;;;;;;;;;;;;;;;;;;;;;;;;;;;;;;;;;;
"!(km*(";"1989";;"Windows 7";"Rachel's Experiment (D.T.)";"1.0";"2";"1";"1";"2";"3";"1";"2014-08-06 12:50:33.674";"2014-08-06 13:07:33.656";"1";"0";"0";"242";"82";"module.training_block2.exec-8603.GoNoGo2";;;;;;;;;;;;;;;;;;;;;;;;;;;;;;;;;;;"1250";"2014-08-06 12:58:05.154";"NST_correctLoc";"8";"1";"FINISHED";"RIGHT";"success";"599";"0";"2014-08-06 12:58:03.904";"1";;;;;;;;;;;;;;;;;;;;;;;;;;;;;;;;;;;;;;;;;;;;;
"!(km*(";"1989";;"Windows 7";"Rachel's Experiment (D.T.)";"1.0";"2";"1";"1";"2";"3";"1";"2014-08-06 12:50:33.674";"2014-08-06 13:07:33.656";"1";"0";"0";"243";"83";"module.training_block2.exec-8603.GoNoGo2";;;;;;;;;;;;;;;;;;;;;;;;;;;;;;;;;;;"1249";"2014-08-06 12:58:07.683";"NST_correctLoc";"4";"0";"FINISHED";"LEFT";"success";"428";"0";"2014-08-06 12:58:06.433";"1";;;;;;;;;;;;;;;;;;;;;;;;;;;;;;;;;;;;;;;;;;;;;
"!(km*(";"1989";;"Windows 7";"Rachel's Experiment (D.T.)";"1.0";"2";"1";"1";"2";"3";"1";"2014-08-06 12:50:33.674";"2014-08-06 13:07:33.656";"1";"0";"0";"244";"84";"module.training_block2.exec-8603.GoNoGo2";;;;;;;;;;;;;;;;;;;;;;;;;;;;;;;;;;;"1249";"2014-08-06 12:58:10.212";"NST_correctLoc";"30";"0";"FINISHED";"LEFT";"success";"433";"0";"2014-08-06 12:58:08.962";"3";;;;;;;;;;;;;;;;;;;;;;;;;;;;;;;;;;;;;;;;;;;;;
"!(km*(";"1989";;"Windows 7";"Rachel's Experiment (D.T.)";"1.0";"2";"1";"1";"2";"3";"1";"2014-08-06 12:50:33.674";"2014-08-06 13:07:33.656";"1";"0";"0";"245";"85";"module.training_block2.exec-8603.GoNoGo2";;;;;;;;;;;;;;;;;;;;;;;;;;;;;;;;;;;"1249";"2014-08-06 12:58:12.739";"NST_correctLoc";"2";"0";"FINISHED";"LEFT";"success";"547";"0";"2014-08-06 12:58:11.489";"1";;;;;;;;;;;;;;;;;;;;;;;;;;;;;;;;;;;;;;;;;;;;;
"!(km*(";"1989";;"Windows 7";"Rachel's Experiment (D.T.)";"1.0";"2";"1";"1";"2";"3";"1";"2014-08-06 12:50:33.674";"2014-08-06 13:07:33.656";"1";"0";"0";"246";"86";"module.training_block2.exec-8603.GoNoGo2";;;;;;;;;;;;;;;;;;;;;;;;;;;;;;;;;;;"1249";"2014-08-06 12:58:15.270";"NST_correctLoc";"35";"1";"FINISHED";"RIGHT";"success";"445";"0";"2014-08-06 12:58:14.020";"3";;;;;;;;;;;;;;;;;;;;;;;;;;;;;;;;;;;;;;;;;;;;;
"!(km*(";"1989";;"Windows 7";"Rachel's Experiment (D.T.)";"1.0";"2";"1";"1";"2";"3";"1";"2014-08-06 12:50:33.674";"2014-08-06 13:07:33.656";"1";"0";"0";"247";"87";"module.training_block3.exec-2976.GoNoGo3";;;;;;;;;;;;;;;;;;;;;;;;;;;;;;;;;;;;;;;;;;;;;;;"1250";"2014-08-06 12:58:34.738";"NST_correctLoc";"18";"1";"FINISHED";"RIGHT";"success";"376";"0";"2014-08-06 12:58:33.488";"3";;;;;;;;;;;;;;;;;;;;;;;;;;;;;;;;;
"!(km*(";"1989";;"Windows 7";"Rachel's Experiment (D.T.)";"1.0";"2";"1";"1";"2";"3";"1";"2014-08-06 12:50:33.674";"2014-08-06 13:07:33.656";"1";"0";"0";"248";"88";"module.training_block3.exec-2976.GoNoGo3";;;;;;;;;;;;;;;;;;;;;;;;;;;;;;;;;;;;;;;;;;;;;;;"1249";"2014-08-06 12:58:37.267";"NST_correctLoc";"25";"1";"FINISHED";"RIGHT";"success";"610";"0";"2014-08-06 12:58:36.017";"3";;;;;;;;;;;;;;;;;;;;;;;;;;;;;;;;;
"!(km*(";"1989";;"Windows 7";"Rachel's Experiment (D.T.)";"1.0";"2";"1";"1";"2";"3";"1";"2014-08-06 12:50:33.674";"2014-08-06 13:07:33.656";"1";"0";"0";"249";"89";"module.training_block3.exec-2976.GoNoGo3";;;;;;;;;;;;;;;;;;;;;;;;;;;;;;;;;;;;;;;;;;;;;;;"1249";"2014-08-06 12:58:39.795";"NST_correctLoc";"29";"0";"FINISHED";"LEFT";"success";"526";"0";"2014-08-06 12:58:38.545";"3";;;;;;;;;;;;;;;;;;;;;;;;;;;;;;;;;
"!(km*(";"1989";;"Windows 7";"Rachel's Experiment (D.T.)";"1.0";"2";"1";"1";"2";"3";"1";"2014-08-06 12:50:33.674";"2014-08-06 13:07:33.656";"1";"0";"0";"250";"90";"module.training_block3.exec-2976.GoNoGo3";;;;;;;;;;;;;;;;;;;;;;;;;;;;;;;;;;;;;;;;;;;;;;;"1249";"2014-08-06 12:58:42.322";"NST_correctLoc";"21";"1";"FINISHED";"RIGHT";"success";"359";"0";"2014-08-06 12:58:41.072";"3";;;;;;;;;;;;;;;;;;;;;;;;;;;;;;;;;
"!(km*(";"1989";;"Windows 7";"Rachel's Experiment (D.T.)";"1.0";"2";"1";"1";"2";"3";"1";"2014-08-06 12:50:33.674";"2014-08-06 13:07:33.656";"1";"0";"0";"251";"91";"module.training_block3.exec-2976.GoNoGo3";;;;;;;;;;;;;;;;;;;;;;;;;;;;;;;;;;;;;;;;;;;;;;;"1249";"2014-08-06 12:58:44.851";"NST_correctLoc";"20";"0";"FINISHED";"LEFT";"success";"326";"0";"2014-08-06 12:58:43.601";"3";;;;;;;;;;;;;;;;;;;;;;;;;;;;;;;;;
"!(km*(";"1989";;"Windows 7";"Rachel's Experiment (D.T.)";"1.0";"2";"1";"1";"2";"3";"1";"2014-08-06 12:50:33.674";"2014-08-06 13:07:33.656";"1";"0";"0";"252";"92";"module.training_block3.exec-2976.GoNoGo3";;;;;;;;;;;;;;;;;;;;;;;;;;;;;;;;;;;;;;;;;;;;;;;"1249";"2014-08-06 12:58:47.462";"NST_correctLoc";"24";"1";"FINISHED";"RIGHT";"success";"362";"0";"2014-08-06 12:58:46.212";"3";;;;;;;;;;;;;;;;;;;;;;;;;;;;;;;;;
"!(km*(";"1989";;"Windows 7";"Rachel's Experiment (D.T.)";"1.0";"2";"1";"1";"2";"3";"1";"2014-08-06 12:50:33.674";"2014-08-06 13:07:33.656";"1";"0";"0";"253";"93";"module.training_block3.exec-2976.GoNoGo3";;;;;;;;;;;;;;;;;;;;;;;;;;;;;;;;;;;;;;;;;;;;;;;"1249";"2014-08-06 12:58:49.990";"NST_correctLoc";"15";"0";"FINISHED";"LEFT";"success";"362";"0";"2014-08-06 12:58:48.740";"2";;;;;;;;;;;;;;;;;;;;;;;;;;;;;;;;;
"!(km*(";"1989";;"Windows 7";"Rachel's Experiment (D.T.)";"1.0";"2";"1";"1";"2";"3";"1";"2014-08-06 12:50:33.674";"2014-08-06 13:07:33.656";"1";"0";"0";"254";"94";"module.training_block3.exec-2976.GoNoGo3";;;;;;;;;;;;;;;;;;;;;;;;;;;;;;;;;;;;;;;;;;;;;;;"1250";"2014-08-06 12:58:52.505";"NST_correctLoc";"28";"0";"FINISHED";"LEFT";"success";"410";"0";"2014-08-06 12:58:51.255";"3";;;;;;;;;;;;;;;;;;;;;;;;;;;;;;;;;
"!(km*(";"1989";;"Windows 7";"Rachel's Experiment (D.T.)";"1.0";"2";"1";"1";"2";"3";"1";"2014-08-06 12:50:33.674";"2014-08-06 13:07:33.656";"1";"0";"0";"255";"95";"module.training_block3.exec-2976.GoNoGo3";;;;;;;;;;;;;;;;;;;;;;;;;;;;;;;;;;;;;;;;;;;;;;;"1249";"2014-08-06 12:58:55.033";"NST_correctLoc";"0";"0";"FINISHED";"LEFT";"success";"340";"0";"2014-08-06 12:58:53.783";"1";;;;;;;;;;;;;;;;;;;;;;;;;;;;;;;;;
"!(km*(";"1989";;"Windows 7";"Rachel's Experiment (D.T.)";"1.0";"2";"1";"1";"2";"3";"1";"2014-08-06 12:50:33.674";"2014-08-06 13:07:33.656";"1";"0";"0";"256";"96";"module.training_block3.exec-2976.GoNoGo3";;;;;;;;;;;;;;;;;;;;;;;;;;;;;;;;;;;;;;;;;;;;;;;"1249";"2014-08-06 12:58:57.549";"NST_correctLoc";"33";"1";"FINISHED";"RIGHT";"success";"460";"0";"2014-08-06 12:58:56.299";"3";;;;;;;;;;;;;;;;;;;;;;;;;;;;;;;;;
"!(km*(";"1989";;"Windows 7";"Rachel's Experiment (D.T.)";"1.0";"2";"1";"1";"2";"3";"1";"2014-08-06 12:50:33.674";"2014-08-06 13:07:33.656";"1";"0";"0";"257";"97";"module.training_block3.exec-2976.GoNoGo3";;;;;;;;;;;;;;;;;;;;;;;;;;;;;;;;;;;;;;;;;;;;;;;"1250";"2014-08-06 12:59:00.078";"NST_correctLoc";"17";"0";"FINISHED";"LEFT";"success";"387";"0";"2014-08-06 12:58:58.827";"2";;;;;;;;;;;;;;;;;;;;;;;;;;;;;;;;;
"!(km*(";"1989";;"Windows 7";"Rachel's Experiment (D.T.)";"1.0";"2";"1";"1";"2";"3";"1";"2014-08-06 12:50:33.674";"2014-08-06 13:07:33.656";"1";"0";"0";"258";"98";"module.training_block3.exec-2976.GoNoGo3";;;;;;;;;;;;;;;;;;;;;;;;;;;;;;;;;;;;;;;;;;;;;;;"1249";"2014-08-06 12:59:02.608";"NST_correctLoc";"14";"0";"FINISHED";"LEFT";"success";"364";"0";"2014-08-06 12:59:01.358";"2";;;;;;;;;;;;;;;;;;;;;;;;;;;;;;;;;
"!(km*(";"1989";;"Windows 7";"Rachel's Experiment (D.T.)";"1.0";"2";"1";"1";"2";"3";"1";"2014-08-06 12:50:33.674";"2014-08-06 13:07:33.656";"1";"0";"0";"259";"99";"module.training_block3.exec-2976.GoNoGo3";;;;;;;;;;;;;;;;;;;;;;;;;;;;;;;;;;;;;;;;;;;;;;;"1249";"2014-08-06 12:59:05.136";"NST_correctLoc";"4";"1";"FINISHED";"RIGHT";"success";"417";"0";"2014-08-06 12:59:03.886";"1";;;;;;;;;;;;;;;;;;;;;;;;;;;;;;;;;
"!(km*(";"1989";;"Windows 7";"Rachel's Experiment (D.T.)";"1.0";"2";"1";"1";"2";"3";"1";"2014-08-06 12:50:33.674";"2014-08-06 13:07:33.656";"1";"0";"0";"260";"100";"module.training_block3.exec-2976.GoNoGo3";;;;;;;;;;;;;;;;;;;;;;;;;;;;;;;;;;;;;;;;;;;;;;;"1249";"2014-08-06 12:59:07.660";"NST_correctLoc";"9";"1";"FINISHED";"RIGHT";"success";"358";"0";"2014-08-06 12:59:06.410";"2";;;;;;;;;;;;;;;;;;;;;;;;;;;;;;;;;
"!(km*(";"1989";;"Windows 7";"Rachel's Experiment (D.T.)";"1.0";"2";"1";"1";"2";"3";"1";"2014-08-06 12:50:33.674";"2014-08-06 13:07:33.656";"1";"0";"0";"261";"101";"module.training_block3.exec-2976.GoNoGo3";;;;;;;;;;;;;;;;;;;;;;;;;;;;;;;;;;;;;;;;;;;;;;;"1250";"2014-08-06 12:59:10.189";"NST_correctLoc";"13";"0";"FINISHED";"LEFT";"success";"430";"0";"2014-08-06 12:59:08.939";"2";;;;;;;;;;;;;;;;;;;;;;;;;;;;;;;;;
"!(km*(";"1989";;"Windows 7";"Rachel's Experiment (D.T.)";"1.0";"2";"1";"1";"2";"3";"1";"2014-08-06 12:50:33.674";"2014-08-06 13:07:33.656";"1";"0";"0";"262";"102";"module.training_block3.exec-2976.GoNoGo3";;;;;;;;;;;;;;;;;;;;;;;;;;;;;;;;;;;;;;;;;;;;;;;"1249";"2014-08-06 12:59:12.717";"NST_correctLoc";"5";"0";"FINISHED";"LEFT";"success";"345";"0";"2014-08-06 12:59:11.467";"1";;;;;;;;;;;;;;;;;;;;;;;;;;;;;;;;;
"!(km*(";"1989";;"Windows 7";"Rachel's Experiment (D.T.)";"1.0";"2";"1";"1";"2";"3";"1";"2014-08-06 12:50:33.674";"2014-08-06 13:07:33.656";"1";"0";"0";"263";"103";"module.training_block3.exec-2976.GoNoGo3";;;;;;;;;;;;;;;;;;;;;;;;;;;;;;;;;;;;;;;;;;;;;;;"1249";"2014-08-06 12:59:15.245";"NST_correctLoc";"1";"0";"FINISHED";"LEFT";"success";"364";"0";"2014-08-06 12:59:13.995";"1";;;;;;;;;;;;;;;;;;;;;;;;;;;;;;;;;
"!(km*(";"1989";;"Windows 7";"Rachel's Experiment (D.T.)";"1.0";"2";"1";"1";"2";"3";"1";"2014-08-06 12:50:33.674";"2014-08-06 13:07:33.656";"1";"0";"0";"264";"104";"module.training_block3.exec-2976.GoNoGo3";;;;;;;;;;;;;;;;;;;;;;;;;;;;;;;;;;;;;;;;;;;;;;;"1249";"2014-08-06 12:59:17.775";"NST_correctLoc";"26";"0";"FINISHED";"LEFT";"success";"510";"0";"2014-08-06 12:59:16.525";"3";;;;;;;;;;;;;;;;;;;;;;;;;;;;;;;;;
"!(km*(";"1989";;"Windows 7";"Rachel's Experiment (D.T.)";"1.0";"2";"1";"1";"2";"3";"1";"2014-08-06 12:50:33.674";"2014-08-06 13:07:33.656";"1";"0";"0";"265";"105";"module.training_block3.exec-2976.GoNoGo3";;;;;;;;;;;;;;;;;;;;;;;;;;;;;;;;;;;;;;;;;;;;;;;"1250";"2014-08-06 12:59:20.304";"NST_correctLoc";"32";"0";"FINISHED";"LEFT";"success";"340";"0";"2014-08-06 12:59:19.053";"3";;;;;;;;;;;;;;;;;;;;;;;;;;;;;;;;;
"!(km*(";"1989";;"Windows 7";"Rachel's Experiment (D.T.)";"1.0";"2";"1";"1";"2";"3";"1";"2014-08-06 12:50:33.674";"2014-08-06 13:07:33.656";"1";"0";"0";"266";"106";"module.training_block3.exec-2976.GoNoGo3";;;;;;;;;;;;;;;;;;;;;;;;;;;;;;;;;;;;;;;;;;;;;;;"1249";"2014-08-06 12:59:22.833";"NST_correctLoc";"8";"0";"FINISHED";"LEFT";"success";"346";"0";"2014-08-06 12:59:21.583";"1";;;;;;;;;;;;;;;;;;;;;;;;;;;;;;;;;
"!(km*(";"1989";;"Windows 7";"Rachel's Experiment (D.T.)";"1.0";"2";"1";"1";"2";"3";"1";"2014-08-06 12:50:33.674";"2014-08-06 13:07:33.656";"1";"0";"0";"267";"107";"module.training_block3.exec-2976.GoNoGo3";;;;;;;;;;;;;;;;;;;;;;;;;;;;;;;;;;;;;;;;;;;;;;;"1250";"2014-08-06 12:59:25.373";"NST_correctLoc";"16";"1";"FINISHED";"RIGHT";"success";"378";"0";"2014-08-06 12:59:24.123";"2";;;;;;;;;;;;;;;;;;;;;;;;;;;;;;;;;
"!(km*(";"1989";;"Windows 7";"Rachel's Experiment (D.T.)";"1.0";"2";"1";"1";"2";"3";"1";"2014-08-06 12:50:33.674";"2014-08-06 13:07:33.656";"1";"0";"0";"268";"108";"module.training_block3.exec-2976.GoNoGo3";;;;;;;;;;;;;;;;;;;;;;;;;;;;;;;;;;;;;;;;;;;;;;;"1249";"2014-08-06 12:59:27.900";"NST_correctLoc";"11";"1";"FINISHED";"RIGHT";"success";"384";"0";"2014-08-06 12:59:26.650";"2";;;;;;;;;;;;;;;;;;;;;;;;;;;;;;;;;
"!(km*(";"1989";;"Windows 7";"Rachel's Experiment (D.T.)";"1.0";"2";"1";"1";"2";"3";"1";"2014-08-06 12:50:33.674";"2014-08-06 13:07:33.656";"1";"0";"0";"269";"109";"module.training_block3.exec-2976.GoNoGo3";;;;;;;;;;;;;;;;;;;;;;;;;;;;;;;;;;;;;;;;;;;;;;;"1249";"2014-08-06 12:59:30.427";"NST_correctLoc";"7";"0";"FINISHED";"LEFT";"success";"400";"0";"2014-08-06 12:59:29.177";"1";;;;;;;;;;;;;;;;;;;;;;;;;;;;;;;;;
"!(km*(";"1989";;"Windows 7";"Rachel's Experiment (D.T.)";"1.0";"2";"1";"1";"2";"3";"1";"2014-08-06 12:50:33.674";"2014-08-06 13:07:33.656";"1";"0";"0";"270";"110";"module.training_block3.exec-2976.GoNoGo3";;;;;;;;;;;;;;;;;;;;;;;;;;;;;;;;;;;;;;;;;;;;;;;"1250";"2014-08-06 12:59:32.956";"NST_correctLoc";"34";"0";"FINISHED";"LEFT";"success";"341";"0";"2014-08-06 12:59:31.706";"3";;;;;;;;;;;;;;;;;;;;;;;;;;;;;;;;;
"!(km*(";"1989";;"Windows 7";"Rachel's Experiment (D.T.)";"1.0";"2";"1";"1";"2";"3";"1";"2014-08-06 12:50:33.674";"2014-08-06 13:07:33.656";"1";"0";"0";"271";"111";"module.training_block3.exec-2976.GoNoGo3";;;;;;;;;;;;;;;;;;;;;;;;;;;;;;;;;;;;;;;;;;;;;;;"1249";"2014-08-06 12:59:35.485";"NST_correctLoc";"10";"0";"FINISHED";"LEFT";"success";"337";"0";"2014-08-06 12:59:34.234";"2";;;;;;;;;;;;;;;;;;;;;;;;;;;;;;;;;
"!(km*(";"1989";;"Windows 7";"Rachel's Experiment (D.T.)";"1.0";"2";"1";"1";"2";"3";"1";"2014-08-06 12:50:33.674";"2014-08-06 13:07:33.656";"1";"0";"0";"272";"112";"module.training_block3.exec-2976.GoNoGo3";;;;;;;;;;;;;;;;;;;;;;;;;;;;;;;;;;;;;;;;;;;;;;;"1250";"2014-08-06 12:59:38.013";"NST_correctLoc";"3";"1";"FINISHED";"RIGHT";"success";"412";"0";"2014-08-06 12:59:36.762";"1";;;;;;;;;;;;;;;;;;;;;;;;;;;;;;;;;
"!(km*(";"1989";;"Windows 7";"Rachel's Experiment (D.T.)";"1.0";"2";"1";"1";"2";"3";"1";"2014-08-06 12:50:33.674";"2014-08-06 13:07:33.656";"1";"0";"0";"273";"113";"module.training_block3.exec-2976.GoNoGo3";;;;;;;;;;;;;;;;;;;;;;;;;;;;;;;;;;;;;;;;;;;;;;;"1249";"2014-08-06 12:59:40.538";"NST_correctLoc";"30";"1";"FINISHED";"RIGHT";"success";"410";"0";"2014-08-06 12:59:39.288";"3";;;;;;;;;;;;;;;;;;;;;;;;;;;;;;;;;
"!(km*(";"1989";;"Windows 7";"Rachel's Experiment (D.T.)";"1.0";"2";"1";"1";"2";"3";"1";"2014-08-06 12:50:33.674";"2014-08-06 13:07:33.656";"1";"0";"0";"274";"114";"module.training_block3.exec-2976.GoNoGo3";;;;;;;;;;;;;;;;;;;;;;;;;;;;;;;;;;;;;;;;;;;;;;;"1249";"2014-08-06 12:59:43.065";"NST_correctLoc";"2";"0";"FINISHED";"LEFT";"success";"364";"0";"2014-08-06 12:59:41.815";"1";;;;;;;;;;;;;;;;;;;;;;;;;;;;;;;;;
"!(km*(";"1989";;"Windows 7";"Rachel's Experiment (D.T.)";"1.0";"2";"1";"1";"2";"3";"1";"2014-08-06 12:50:33.674";"2014-08-06 13:07:33.656";"1";"0";"0";"275";"115";"module.training_block3.exec-2976.GoNoGo3";;;;;;;;;;;;;;;;;;;;;;;;;;;;;;;;;;;;;;;;;;;;;;;"1249";"2014-08-06 12:59:45.591";"NST_correctLoc";"19";"0";"FINISHED";"LEFT";"success";"366";"0";"2014-08-06 12:59:44.341";"3";;;;;;;;;;;;;;;;;;;;;;;;;;;;;;;;;
"!(km*(";"1989";;"Windows 7";"Rachel's Experiment (D.T.)";"1.0";"2";"1";"1";"2";"3";"1";"2014-08-06 12:50:33.674";"2014-08-06 13:07:33.656";"1";"0";"0";"276";"116";"module.training_block3.exec-2976.GoNoGo3";;;;;;;;;;;;;;;;;;;;;;;;;;;;;;;;;;;;;;;;;;;;;;;"1249";"2014-08-06 12:59:48.170";"NST_correctLoc";"22";"1";"FINISHED";"RIGHT";"success";"382";"0";"2014-08-06 12:59:46.920";"3";;;;;;;;;;;;;;;;;;;;;;;;;;;;;;;;;
"!(km*(";"1989";;"Windows 7";"Rachel's Experiment (D.T.)";"1.0";"2";"1";"1";"2";"3";"1";"2014-08-06 12:50:33.674";"2014-08-06 13:07:33.656";"1";"0";"0";"277";"117";"module.training_block3.exec-2976.GoNoGo3";;;;;;;;;;;;;;;;;;;;;;;;;;;;;;;;;;;;;;;;;;;;;;;"1250";"2014-08-06 12:59:50.699";"NST_correctLoc";"23";"0";"FINISHED";"LEFT";"success";"376";"0";"2014-08-06 12:59:49.449";"3";;;;;;;;;;;;;;;;;;;;;;;;;;;;;;;;;
"!(km*(";"1989";;"Windows 7";"Rachel's Experiment (D.T.)";"1.0";"2";"1";"1";"2";"3";"1";"2014-08-06 12:50:33.674";"2014-08-06 13:07:33.656";"1";"0";"0";"278";"118";"module.training_block3.exec-2976.GoNoGo3";;;;;;;;;;;;;;;;;;;;;;;;;;;;;;;;;;;;;;;;;;;;;;;"1250";"2014-08-06 12:59:53.228";"NST_correctLoc";"6";"1";"FINISHED";"RIGHT";"success";"347";"0";"2014-08-06 12:59:51.976";"1";;;;;;;;;;;;;;;;;;;;;;;;;;;;;;;;;
"!(km*(";"1989";;"Windows 7";"Rachel's Experiment (D.T.)";"1.0";"2";"1";"1";"2";"3";"1";"2014-08-06 12:50:33.674";"2014-08-06 13:07:33.656";"1";"0";"0";"279";"119";"module.training_block3.exec-2976.GoNoGo3";;;;;;;;;;;;;;;;;;;;;;;;;;;;;;;;;;;;;;;;;;;;;;;"1249";"2014-08-06 12:59:55.755";"NST_correctLoc";"12";"1";"FINISHED";"RIGHT";"success";"374";"0";"2014-08-06 12:59:54.505";"2";;;;;;;;;;;;;;;;;;;;;;;;;;;;;;;;;
"!(km*(";"1989";;"Windows 7";"Rachel's Experiment (D.T.)";"1.0";"2";"1";"1";"2";"3";"1";"2014-08-06 12:50:33.674";"2014-08-06 13:07:33.656";"1";"0";"0";"280";"120";"module.training_block3.exec-2976.GoNoGo3";;;;;;;;;;;;;;;;;;;;;;;;;;;;;;;;;;;;;;;;;;;;;;;"1250";"2014-08-06 12:59:58.283";"NST_correctLoc";"27";"1";"FINISHED";"RIGHT";"success";"373";"0";"2014-08-06 12:59:57.033";"3";;;;;;;;;;;;;;;;;;;;;;;;;;;;;;;;;
"!(km*(";"1989";;"Windows 7";"Rachel's Experiment (D.T.)";"1.0";"2";"1";"1";"2";"3";"1";"2014-08-06 12:50:33.674";"2014-08-06 13:07:33.656";"1";"0";"0";"281";"121";"module.training_block3.exec-2976.GoNoGo3";;;;;;;;;;;;;;;;;;;;;;;;;;;;;;;;;;;;;;;;;;;;;;;"1249";"2014-08-06 13:00:00.814";"NST_correctLoc";"31";"1";"FINISHED";"RIGHT";"success";"362";"0";"2014-08-06 12:59:59.564";"3";;;;;;;;;;;;;;;;;;;;;;;;;;;;;;;;;
"!(km*(";"1989";;"Windows 7";"Rachel's Experiment (D.T.)";"1.0";"2";"1";"1";"2";"3";"1";"2014-08-06 12:50:33.674";"2014-08-06 13:07:33.656";"1";"0";"0";"282";"122";"module.training_block3.exec-2976.GoNoGo3";;;;;;;;;;;;;;;;;;;;;;;;;;;;;;;;;;;;;;;;;;;;;;;"1250";"2014-08-06 13:00:03.341";"NST_correctLoc";"35";"1";"FINISHED";"RIGHT";"success";"385";"0";"2014-08-06 13:00:02.091";"3";;;;;;;;;;;;;;;;;;;;;;;;;;;;;;;;;
"!(km*(";"1989";;"Windows 7";"Rachel's Experiment (D.T.)";"1.0";"2";"1";"1";"2";"3";"1";"2014-08-06 12:50:33.674";"2014-08-06 13:07:33.656";"1";"0";"0";"283";"123";"module.training_block4.exec-9767.GoNoGo4";;;;;;;;;;;;;;;;;;;;;;;;;;;;;;;;;;;;;;;;;;;;;;;;;;;;;;;;;;;"1249";"2014-08-06 13:00:17.218";"NST_correctLoc";"32";"1";"FINISHED";"RIGHT";"success";"361";"0";"2014-08-06 13:00:15.968";"3";;;;;;;;;;;;;;;;;;;;;
"!(km*(";"1989";;"Windows 7";"Rachel's Experiment (D.T.)";"1.0";"2";"1";"1";"2";"3";"1";"2014-08-06 12:50:33.674";"2014-08-06 13:07:33.656";"1";"0";"0";"284";"124";"module.training_block4.exec-9767.GoNoGo4";;;;;;;;;;;;;;;;;;;;;;;;;;;;;;;;;;;;;;;;;;;;;;;;;;;;;;;;;;;"1249";"2014-08-06 13:00:19.746";"NST_correctLoc";"8";"0";"FINISHED";"LEFT";"success";"393";"0";"2014-08-06 13:00:18.496";"1";;;;;;;;;;;;;;;;;;;;;
"!(km*(";"1989";;"Windows 7";"Rachel's Experiment (D.T.)";"1.0";"2";"1";"1";"2";"3";"1";"2014-08-06 12:50:33.674";"2014-08-06 13:07:33.656";"1";"0";"0";"285";"125";"module.training_block4.exec-9767.GoNoGo4";;;;;;;;;;;;;;;;;;;;;;;;;;;;;;;;;;;;;;;;;;;;;;;;;;;;;;;;;;;"1250";"2014-08-06 13:00:22.275";"NST_correctLoc";"19";"0";"FINISHED";"LEFT";"success";"381";"0";"2014-08-06 13:00:21.024";"3";;;;;;;;;;;;;;;;;;;;;
"!(km*(";"1989";;"Windows 7";"Rachel's Experiment (D.T.)";"1.0";"2";"1";"1";"2";"3";"1";"2014-08-06 12:50:33.674";"2014-08-06 13:07:33.656";"1";"0";"0";"286";"126";"module.training_block4.exec-9767.GoNoGo4";;;;;;;;;;;;;;;;;;;;;;;;;;;;;;;;;;;;;;;;;;;;;;;;;;;;;;;;;;;"1249";"2014-08-06 13:00:24.802";"NST_correctLoc";"24";"0";"FINISHED";"LEFT";"success";"444";"0";"2014-08-06 13:00:23.552";"3";;;;;;;;;;;;;;;;;;;;;
"!(km*(";"1989";;"Windows 7";"Rachel's Experiment (D.T.)";"1.0";"2";"1";"1";"2";"3";"1";"2014-08-06 12:50:33.674";"2014-08-06 13:07:33.656";"1";"0";"0";"287";"127";"module.training_block4.exec-9767.GoNoGo4";;;;;;;;;;;;;;;;;;;;;;;;;;;;;;;;;;;;;;;;;;;;;;;;;;;;;;;;;;;"1249";"2014-08-06 13:00:27.328";"NST_correctLoc";"0";"1";"FINISHED";"RIGHT";"success";"317";"0";"2014-08-06 13:00:26.078";"1";;;;;;;;;;;;;;;;;;;;;
"!(km*(";"1989";;"Windows 7";"Rachel's Experiment (D.T.)";"1.0";"2";"1";"1";"2";"3";"1";"2014-08-06 12:50:33.674";"2014-08-06 13:07:33.656";"1";"0";"0";"288";"128";"module.training_block4.exec-9767.GoNoGo4";;;;;;;;;;;;;;;;;;;;;;;;;;;;;;;;;;;;;;;;;;;;;;;;;;;;;;;;;;;"1249";"2014-08-06 13:00:29.856";"NST_correctLoc";"3";"1";"FINISHED";"RIGHT";"success";"349";"0";"2014-08-06 13:00:28.606";"1";;;;;;;;;;;;;;;;;;;;;
"!(km*(";"1989";;"Windows 7";"Rachel's Experiment (D.T.)";"1.0";"2";"1";"1";"2";"3";"1";"2014-08-06 12:50:33.674";"2014-08-06 13:07:33.656";"1";"0";"0";"289";"129";"module.training_block4.exec-9767.GoNoGo4";;;;;;;;;;;;;;;;;;;;;;;;;;;;;;;;;;;;;;;;;;;;;;;;;;;;;;;;;;;"1249";"2014-08-06 13:00:32.384";"NST_correctLoc";"30";"0";"FINISHED";"LEFT";"success";"384";"0";"2014-08-06 13:00:31.134";"3";;;;;;;;;;;;;;;;;;;;;
"!(km*(";"1989";;"Windows 7";"Rachel's Experiment (D.T.)";"1.0";"2";"1";"1";"2";"3";"1";"2014-08-06 12:50:33.674";"2014-08-06 13:07:33.656";"1";"0";"0";"290";"130";"module.training_block4.exec-9767.GoNoGo4";;;;;;;;;;;;;;;;;;;;;;;;;;;;;;;;;;;;;;;;;;;;;;;;;;;;;;;;;;;"1249";"2014-08-06 13:00:34.912";"NST_correctLoc";"10";"1";"FINISHED";"RIGHT";"success";"342";"0";"2014-08-06 13:00:33.662";"2";;;;;;;;;;;;;;;;;;;;;
"!(km*(";"1989";;"Windows 7";"Rachel's Experiment (D.T.)";"1.0";"2";"1";"1";"2";"3";"1";"2014-08-06 12:50:33.674";"2014-08-06 13:07:33.656";"1";"0";"0";"291";"131";"module.training_block4.exec-9767.GoNoGo4";;;;;;;;;;;;;;;;;;;;;;;;;;;;;;;;;;;;;;;;;;;;;;;;;;;;;;;;;;;"1250";"2014-08-06 13:00:37.441";"NST_correctLoc";"31";"0";"FINISHED";"LEFT";"success";"597";"0";"2014-08-06 13:00:36.190";"3";;;;;;;;;;;;;;;;;;;;;
"!(km*(";"1989";;"Windows 7";"Rachel's Experiment (D.T.)";"1.0";"2";"1";"1";"2";"3";"1";"2014-08-06 12:50:33.674";"2014-08-06 13:07:33.656";"1";"0";"0";"292";"132";"module.training_block4.exec-9767.GoNoGo4";;;;;;;;;;;;;;;;;;;;;;;;;;;;;;;;;;;;;;;;;;;;;;;;;;;;;;;;;;;"1249";"2014-08-06 13:00:39.967";"NST_correctLoc";"20";"0";"FINISHED";"LEFT";"success";"393";"0";"2014-08-06 13:00:38.717";"3";;;;;;;;;;;;;;;;;;;;;
"!(km*(";"1989";;"Windows 7";"Rachel's Experiment (D.T.)";"1.0";"2";"1";"1";"2";"3";"1";"2014-08-06 12:50:33.674";"2014-08-06 13:07:33.656";"1";"0";"0";"293";"133";"module.training_block4.exec-9767.GoNoGo4";;;;;;;;;;;;;;;;;;;;;;;;;;;;;;;;;;;;;;;;;;;;;;;;;;;;;;;;;;;"1249";"2014-08-06 13:00:42.493";"NST_correctLoc";"15";"1";"FINISHED";"RIGHT";"success";"444";"0";"2014-08-06 13:00:41.243";"2";;;;;;;;;;;;;;;;;;;;;
"!(km*(";"1989";;"Windows 7";"Rachel's Experiment (D.T.)";"1.0";"2";"1";"1";"2";"3";"1";"2014-08-06 12:50:33.674";"2014-08-06 13:07:33.656";"1";"0";"0";"294";"134";"module.training_block4.exec-9767.GoNoGo4";;;;;;;;;;;;;;;;;;;;;;;;;;;;;;;;;;;;;;;;;;;;;;;;;;;;;;;;;;;"1249";"2014-08-06 13:00:45.020";"NST_correctLoc";"21";"0";"FINISHED";"LEFT";"success";"494";"0";"2014-08-06 13:00:43.770";"3";;;;;;;;;;;;;;;;;;;;;
"!(km*(";"1989";;"Windows 7";"Rachel's Experiment (D.T.)";"1.0";"2";"1";"1";"2";"3";"1";"2014-08-06 12:50:33.674";"2014-08-06 13:07:33.656";"1";"0";"0";"295";"135";"module.training_block4.exec-9767.GoNoGo4";;;;;;;;;;;;;;;;;;;;;;;;;;;;;;;;;;;;;;;;;;;;;;;;;;;;;;;;;;;"1249";"2014-08-06 13:00:47.628";"NST_correctLoc";"16";"0";"FINISHED";"LEFT";"success";"397";"0";"2014-08-06 13:00:46.378";"2";;;;;;;;;;;;;;;;;;;;;
"!(km*(";"1989";;"Windows 7";"Rachel's Experiment (D.T.)";"1.0";"2";"1";"1";"2";"3";"1";"2014-08-06 12:50:33.674";"2014-08-06 13:07:33.656";"1";"0";"0";"296";"136";"module.training_block4.exec-9767.GoNoGo4";;;;;;;;;;;;;;;;;;;;;;;;;;;;;;;;;;;;;;;;;;;;;;;;;;;;;;;;;;;"1250";"2014-08-06 13:00:50.156";"NST_correctLoc";"7";"1";"FINISHED";"RIGHT";"success";"366";"0";"2014-08-06 13:00:48.906";"1";;;;;;;;;;;;;;;;;;;;;
"!(km*(";"1989";;"Windows 7";"Rachel's Experiment (D.T.)";"1.0";"2";"1";"1";"2";"3";"1";"2014-08-06 12:50:33.674";"2014-08-06 13:07:33.656";"1";"0";"0";"297";"137";"module.training_block4.exec-9767.GoNoGo4";;;;;;;;;;;;;;;;;;;;;;;;;;;;;;;;;;;;;;;;;;;;;;;;;;;;;;;;;;;"1249";"2014-08-06 13:00:52.674";"NST_correctLoc";"4";"0";"FINISHED";"LEFT";"success";"341";"0";"2014-08-06 13:00:51.424";"1";;;;;;;;;;;;;;;;;;;;;
"!(km*(";"1989";;"Windows 7";"Rachel's Experiment (D.T.)";"1.0";"2";"1";"1";"2";"3";"1";"2014-08-06 12:50:33.674";"2014-08-06 13:07:33.656";"1";"0";"0";"298";"138";"module.training_block4.exec-9767.GoNoGo4";;;;;;;;;;;;;;;;;;;;;;;;;;;;;;;;;;;;;;;;;;;;;;;;;;;;;;;;;;;"1249";"2014-08-06 13:00:55.201";"NST_correctLoc";"22";"0";"FINISHED";"LEFT";"success";"337";"0";"2014-08-06 13:00:53.951";"3";;;;;;;;;;;;;;;;;;;;;
"!(km*(";"1989";;"Windows 7";"Rachel's Experiment (D.T.)";"1.0";"2";"1";"1";"2";"3";"1";"2014-08-06 12:50:33.674";"2014-08-06 13:07:33.656";"1";"0";"0";"299";"139";"module.training_block4.exec-9767.GoNoGo4";;;;;;;;;;;;;;;;;;;;;;;;;;;;;;;;;;;;;;;;;;;;;;;;;;;;;;;;;;;"1249";"2014-08-06 13:00:57.718";"NST_correctLoc";"9";"0";"FINISHED";"LEFT";"success";"382";"0";"2014-08-06 13:00:56.468";"2";;;;;;;;;;;;;;;;;;;;;
"!(km*(";"1989";;"Windows 7";"Rachel's Experiment (D.T.)";"1.0";"2";"1";"1";"2";"3";"1";"2014-08-06 12:50:33.674";"2014-08-06 13:07:33.656";"1";"0";"0";"300";"140";"module.training_block4.exec-9767.GoNoGo4";;;;;;;;;;;;;;;;;;;;;;;;;;;;;;;;;;;;;;;;;;;;;;;;;;;;;;;;;;;"1249";"2014-08-06 13:01:00.245";"NST_correctLoc";"25";"1";"FINISHED";"RIGHT";"success";"535";"0";"2014-08-06 13:00:58.995";"3";;;;;;;;;;;;;;;;;;;;;
"!(km*(";"1989";;"Windows 7";"Rachel's Experiment (D.T.)";"1.0";"2";"1";"1";"2";"3";"1";"2014-08-06 12:50:33.674";"2014-08-06 13:07:33.656";"1";"0";"0";"301";"141";"module.training_block4.exec-9767.GoNoGo4";;;;;;;;;;;;;;;;;;;;;;;;;;;;;;;;;;;;;;;;;;;;;;;;;;;;;;;;;;;"1249";"2014-08-06 13:01:02.768";"NST_correctLoc";"17";"1";"FINISHED";"RIGHT";"success";"465";"0";"2014-08-06 13:01:01.518";"2";;;;;;;;;;;;;;;;;;;;;
"!(km*(";"1989";;"Windows 7";"Rachel's Experiment (D.T.)";"1.0";"2";"1";"1";"2";"3";"1";"2014-08-06 12:50:33.674";"2014-08-06 13:07:33.656";"1";"0";"0";"302";"142";"module.training_block4.exec-9767.GoNoGo4";;;;;;;;;;;;;;;;;;;;;;;;;;;;;;;;;;;;;;;;;;;;;;;;;;;;;;;;;;;"1249";"2014-08-06 13:01:05.296";"NST_correctLoc";"23";"0";"FINISHED";"LEFT";"success";"552";"0";"2014-08-06 13:01:04.046";"3";;;;;;;;;;;;;;;;;;;;;
"!(km*(";"1989";;"Windows 7";"Rachel's Experiment (D.T.)";"1.0";"2";"1";"1";"2";"3";"1";"2014-08-06 12:50:33.674";"2014-08-06 13:07:33.656";"1";"0";"0";"303";"143";"module.training_block4.exec-9767.GoNoGo4";;;;;;;;;;;;;;;;;;;;;;;;;;;;;;;;;;;;;;;;;;;;;;;;;;;;;;;;;;;"1249";"2014-08-06 13:01:07.824";"NST_correctLoc";"14";"0";"FINISHED";"LEFT";"success";"697";"0";"2014-08-06 13:01:06.574";"2";;;;;;;;;;;;;;;;;;;;;
"!(km*(";"1989";;"Windows 7";"Rachel's Experiment (D.T.)";"1.0";"2";"1";"1";"2";"3";"1";"2014-08-06 12:50:33.674";"2014-08-06 13:07:33.656";"1";"0";"0";"304";"144";"module.training_block4.exec-9767.GoNoGo4";;;;;;;;;;;;;;;;;;;;;;;;;;;;;;;;;;;;;;;;;;;;;;;;;;;;;;;;;;;"1249";"2014-08-06 13:01:10.348";"NST_correctLoc";"28";"1";"FINISHED";"RIGHT";"success";"396";"0";"2014-08-06 13:01:09.098";"3";;;;;;;;;;;;;;;;;;;;;
"!(km*(";"1989";;"Windows 7";"Rachel's Experiment (D.T.)";"1.0";"2";"1";"1";"2";"3";"1";"2014-08-06 12:50:33.674";"2014-08-06 13:07:33.656";"1";"0";"0";"305";"145";"module.training_block4.exec-9767.GoNoGo4";;;;;;;;;;;;;;;;;;;;;;;;;;;;;;;;;;;;;;;;;;;;;;;;;;;;;;;;;;;"1249";"2014-08-06 13:01:12.875";"NST_correctLoc";"18";"1";"FINISHED";"RIGHT";"success";"371";"0";"2014-08-06 13:01:11.625";"3";;;;;;;;;;;;;;;;;;;;;
"!(km*(";"1989";;"Windows 7";"Rachel's Experiment (D.T.)";"1.0";"2";"1";"1";"2";"3";"1";"2014-08-06 12:50:33.674";"2014-08-06 13:07:33.656";"1";"0";"0";"306";"146";"module.training_block4.exec-9767.GoNoGo4";;;;;;;;;;;;;;;;;;;;;;;;;;;;;;;;;;;;;;;;;;;;;;;;;;;;;;;;;;;"1249";"2014-08-06 13:01:15.402";"NST_correctLoc";"11";"1";"FINISHED";"RIGHT";"success";"401";"0";"2014-08-06 13:01:14.152";"2";;;;;;;;;;;;;;;;;;;;;
"!(km*(";"1989";;"Windows 7";"Rachel's Experiment (D.T.)";"1.0";"2";"1";"1";"2";"3";"1";"2014-08-06 12:50:33.674";"2014-08-06 13:07:33.656";"1";"0";"0";"307";"147";"module.training_block4.exec-9767.GoNoGo4";;;;;;;;;;;;;;;;;;;;;;;;;;;;;;;;;;;;;;;;;;;;;;;;;;;;;;;;;;;"1249";"2014-08-06 13:01:17.932";"NST_correctLoc";"27";"1";"FINISHED";"RIGHT";"success";"429";"0";"2014-08-06 13:01:16.682";"3";;;;;;;;;;;;;;;;;;;;;
"!(km*(";"1989";;"Windows 7";"Rachel's Experiment (D.T.)";"1.0";"2";"1";"1";"2";"3";"1";"2014-08-06 12:50:33.674";"2014-08-06 13:07:33.656";"1";"0";"0";"308";"148";"module.training_block4.exec-9767.GoNoGo4";;;;;;;;;;;;;;;;;;;;;;;;;;;;;;;;;;;;;;;;;;;;;;;;;;;;;;;;;;;"1250";"2014-08-06 13:01:20.458";"NST_correctLoc";"1";"0";"FINISHED";"LEFT";"success";"532";"0";"2014-08-06 13:01:19.207";"1";;;;;;;;;;;;;;;;;;;;;
"!(km*(";"1989";;"Windows 7";"Rachel's Experiment (D.T.)";"1.0";"2";"1";"1";"2";"3";"1";"2014-08-06 12:50:33.674";"2014-08-06 13:07:33.656";"1";"0";"0";"309";"149";"module.training_block4.exec-9767.GoNoGo4";;;;;;;;;;;;;;;;;;;;;;;;;;;;;;;;;;;;;;;;;;;;;;;;;;;;;;;;;;;"1249";"2014-08-06 13:01:22.985";"NST_correctLoc";"6";"0";"FINISHED";"LEFT";"success";"402";"0";"2014-08-06 13:01:21.735";"1";;;;;;;;;;;;;;;;;;;;;
"!(km*(";"1989";;"Windows 7";"Rachel's Experiment (D.T.)";"1.0";"2";"1";"1";"2";"3";"1";"2014-08-06 12:50:33.674";"2014-08-06 13:07:33.656";"1";"0";"0";"310";"150";"module.training_block4.exec-9767.GoNoGo4";;;;;;;;;;;;;;;;;;;;;;;;;;;;;;;;;;;;;;;;;;;;;;;;;;;;;;;;;;;"1249";"2014-08-06 13:01:25.511";"NST_correctLoc";"13";"0";"FINISHED";"LEFT";"success";"423";"0";"2014-08-06 13:01:24.261";"2";;;;;;;;;;;;;;;;;;;;;
"!(km*(";"1989";;"Windows 7";"Rachel's Experiment (D.T.)";"1.0";"2";"1";"1";"2";"3";"1";"2014-08-06 12:50:33.674";"2014-08-06 13:07:33.656";"1";"0";"0";"311";"151";"module.training_block4.exec-9767.GoNoGo4";;;;;;;;;;;;;;;;;;;;;;;;;;;;;;;;;;;;;;;;;;;;;;;;;;;;;;;;;;;"1249";"2014-08-06 13:01:28.038";"NST_correctLoc";"26";"1";"FINISHED";"RIGHT";"success";"904";"0";"2014-08-06 13:01:26.788";"3";;;;;;;;;;;;;;;;;;;;;
"!(km*(";"1989";;"Windows 7";"Rachel's Experiment (D.T.)";"1.0";"2";"1";"1";"2";"3";"1";"2014-08-06 12:50:33.674";"2014-08-06 13:07:33.656";"1";"0";"0";"312";"152";"module.training_block4.exec-9767.GoNoGo4";;;;;;;;;;;;;;;;;;;;;;;;;;;;;;;;;;;;;;;;;;;;;;;;;;;;;;;;;;;"1250";"2014-08-06 13:01:30.563";"NST_correctLoc";"35";"0";"FINISHED";"LEFT";"success";"421";"0";"2014-08-06 13:01:29.313";"3";;;;;;;;;;;;;;;;;;;;;
"!(km*(";"1989";;"Windows 7";"Rachel's Experiment (D.T.)";"1.0";"2";"1";"1";"2";"3";"1";"2014-08-06 12:50:33.674";"2014-08-06 13:07:33.656";"1";"0";"0";"313";"153";"module.training_block4.exec-9767.GoNoGo4";;;;;;;;;;;;;;;;;;;;;;;;;;;;;;;;;;;;;;;;;;;;;;;;;;;;;;;;;;;"1249";"2014-08-06 13:01:33.091";"NST_correctLoc";"2";"0";"FINISHED";"LEFT";"success";"347";"0";"2014-08-06 13:01:31.841";"1";;;;;;;;;;;;;;;;;;;;;
"!(km*(";"1989";;"Windows 7";"Rachel's Experiment (D.T.)";"1.0";"2";"1";"1";"2";"3";"1";"2014-08-06 12:50:33.674";"2014-08-06 13:07:33.656";"1";"0";"0";"314";"154";"module.training_block4.exec-9767.GoNoGo4";;;;;;;;;;;;;;;;;;;;;;;;;;;;;;;;;;;;;;;;;;;;;;;;;;;;;;;;;;;"1249";"2014-08-06 13:01:35.618";"NST_correctLoc";"29";"1";"FINISHED";"RIGHT";"success";"359";"0";"2014-08-06 13:01:34.368";"3";;;;;;;;;;;;;;;;;;;;;
"!(km*(";"1989";;"Windows 7";"Rachel's Experiment (D.T.)";"1.0";"2";"1";"1";"2";"3";"1";"2014-08-06 12:50:33.674";"2014-08-06 13:07:33.656";"1";"0";"0";"315";"155";"module.training_block4.exec-9767.GoNoGo4";;;;;;;;;;;;;;;;;;;;;;;;;;;;;;;;;;;;;;;;;;;;;;;;;;;;;;;;;;;"1249";"2014-08-06 13:01:38.146";"NST_correctLoc";"34";"1";"FINISHED";"RIGHT";"success";"570";"0";"2014-08-06 13:01:36.895";"3";;;;;;;;;;;;;;;;;;;;;
"!(km*(";"1989";;"Windows 7";"Rachel's Experiment (D.T.)";"1.0";"2";"1";"1";"2";"3";"1";"2014-08-06 12:50:33.674";"2014-08-06 13:07:33.656";"1";"0";"0";"316";"156";"module.training_block4.exec-9767.GoNoGo4";;;;;;;;;;;;;;;;;;;;;;;;;;;;;;;;;;;;;;;;;;;;;;;;;;;;;;;;;;;"1249";"2014-08-06 13:01:40.671";"NST_correctLoc";"5";"0";"FINISHED";"LEFT";"success";"429";"0";"2014-08-06 13:01:39.421";"1";;;;;;;;;;;;;;;;;;;;;
"!(km*(";"1989";;"Windows 7";"Rachel's Experiment (D.T.)";"1.0";"2";"1";"1";"2";"3";"1";"2014-08-06 12:50:33.674";"2014-08-06 13:07:33.656";"1";"0";"0";"317";"157";"module.training_block4.exec-9767.GoNoGo4";;;;;;;;;;;;;;;;;;;;;;;;;;;;;;;;;;;;;;;;;;;;;;;;;;;;;;;;;;;"1249";"2014-08-06 13:01:43.198";"NST_correctLoc";"12";"0";"FINISHED";"LEFT";"success";"426";"0";"2014-08-06 13:01:41.948";"2";;;;;;;;;;;;;;;;;;;;;
"!(km*(";"1989";;"Windows 7";"Rachel's Experiment (D.T.)";"1.0";"2";"1";"1";"2";"3";"1";"2014-08-06 12:50:33.674";"2014-08-06 13:07:33.656";"1";"0";"0";"318";"158";"module.training_block4.exec-9767.GoNoGo4";;;;;;;;;;;;;;;;;;;;;;;;;;;;;;;;;;;;;;;;;;;;;;;;;;;;;;;;;;;"1249";"2014-08-06 13:01:45.725";"NST_correctLoc";"33";"1";"FINISHED";"RIGHT";"success";"419";"0";"2014-08-06 13:01:44.475";"3";;;;;;;;;;;;;;;;;;;;;
"!(km*(";"1989";;"Windows 7";"Rachel's Experiment (D.T.)";"1.0";"2";"1";"1";"2";"3";"1";"2014-08-06 12:50:33.674";"2014-08-06 13:07:33.656";"1";"0";"0";"319";"159";"module.devaluation_practice.exec-3024.devalPractice";;;;;;;;;;;;"17507";"2014-08-06 13:02:18.897";"0";"3";"5";"8";"6795";"1944";"5678";"2014-08-06 13:02:01.390";;;;;;;;;;;;;;;;;;;;;;;;;;;;;;;;;;;;;;;;;;;;;;;;;;;;;;;;;;;;;;;;;;;;;;
"!(km*(";"1989";;"Windows 7";"Rachel's Experiment (D.T.)";"1.0";"2";"1";"1";"2";"3";"1";"2014-08-06 12:50:33.674";"2014-08-06 13:07:33.656";"1";"0";"0";"320";"160";"module.devaluation_practice.exec-3024.devalPractice";;;;;;;;;;;;"9451";"2014-08-06 13:02:28.387";"1";"1";"1";"3";"2505";"1763";"2124";"2014-08-06 13:02:18.937";;;;;;;;;;;;;;;;;;;;;;;;;;;;;;;;;;;;;;;;;;;;;;;;;;;;;;;;;;;;;;;;;;;;;;
"!(km*(";"1989";;"Windows 7";"Rachel's Experiment (D.T.)";"1.0";"2";"1";"1";"2";"3";"1";"2014-08-06 12:50:33.674";"2014-08-06 13:07:33.656";"1";"0";"0";"321";"161";"module.devaluation_practice.exec-3024.devalPractice";;;;;;;;;;;;"11906";"2014-08-06 13:02:40.332";"2";"3";"6";"6";"1065";"1517";"6298";"2014-08-06 13:02:28.425";;;;;;;;;;;;;;;;;;;;;;;;;;;;;;;;;;;;;;;;;;;;;;;;;;;;;;;;;;;;;;;;;;;;;;
"!(km*(";"1989";;"Windows 7";"Rachel's Experiment (D.T.)";"1.0";"2";"1";"1";"2";"3";"1";"2014-08-06 12:50:33.674";"2014-08-06 13:07:33.656";"1";"0";"0";"322";"162";"module.devaluation_practice.exec-3024.devalPractice";;;;;;;;;;;;"11627";"2014-08-06 13:02:52.005";"3";"1";"3";"4";"4434";"873";"3304";"2014-08-06 13:02:40.376";;;;;;;;;;;;;;;;;;;;;;;;;;;;;;;;;;;;;;;;;;;;;;;;;;;;;;;;;;;;;;;;;;;;;;
"!(km*(";"1989";;"Windows 7";"Rachel's Experiment (D.T.)";"1.0";"2";"1";"1";"2";"3";"1";"2014-08-06 12:50:33.674";"2014-08-06 13:07:33.656";"1";"0";"0";"323";"163";"module.devaluation_block1.exec-7076.deval1";"24252";"2014-08-06 13:03:23.190";"22";"6";"6";"7";"6907";"11776";"2543";"2014-08-06 13:02:58.935";"3";;;;;;;;;;;;;;;;;;;;;;;;;;;;;;;;;;;;;;;;;;;;;;;;;;;;;;;;;;;;;;;;;;;;;;;;;;;;;;;;
"!(km*(";"1989";;"Windows 7";"Rachel's Experiment (D.T.)";"1.0";"2";"1";"1";"2";"3";"1";"2014-08-06 12:50:33.674";"2014-08-06 13:07:33.656";"1";"0";"0";"324";"164";"module.devaluation_block1.exec-7076.deval1";"7311";"2014-08-06 13:03:30.550";"16";"3";"5";"3";"746";"1885";"1660";"2014-08-06 13:03:23.238";"2";;;;;;;;;;;;;;;;;;;;;;;;;;;;;;;;;;;;;;;;;;;;;;;;;;;;;;;;;;;;;;;;;;;;;;;;;;;;;;;;
"!(km*(";"1989";;"Windows 7";"Rachel's Experiment (D.T.)";"1.0";"2";"1";"1";"2";"3";"1";"2014-08-06 12:50:33.674";"2014-08-06 13:07:33.656";"1";"0";"0";"325";"165";"module.devaluation_block1.exec-7076.deval1";"8581";"2014-08-06 13:03:39.175";"14";"5";"3";"7";"1116";"1588";"2855";"2014-08-06 13:03:30.594";"2";;;;;;;;;;;;;;;;;;;;;;;;;;;;;;;;;;;;;;;;;;;;;;;;;;;;;;;;;;;;;;;;;;;;;;;;;;;;;;;;
"!(km*(";"1989";;"Windows 7";"Rachel's Experiment (D.T.)";"1.0";"2";"1";"1";"2";"3";"1";"2014-08-06 12:50:33.674";"2014-08-06 13:07:33.656";"1";"0";"0";"326";"166";"module.devaluation_block1.exec-7076.deval1";"19897";"2014-08-06 13:03:59.112";"17";"2";"4";"4";"1667";"1556";"13606";"2014-08-06 13:03:39.213";"2";;;;;;;;;;;;;;;;;;;;;;;;;;;;;;;;;;;;;;;;;;;;;;;;;;;;;;;;;;;;;;;;;;;;;;;;;;;;;;;;
"!(km*(";"1989";;"Windows 7";"Rachel's Experiment (D.T.)";"1.0";"2";"1";"1";"2";"3";"1";"2014-08-06 12:50:33.674";"2014-08-06 13:07:33.656";"1";"0";"0";"327";"167";"module.devaluation_block1.exec-7076.deval1";"7506";"2014-08-06 13:04:06.662";"1";"4";"5";"7";"2770";"666";"1049";"2014-08-06 13:03:59.156";"1";;;;;;;;;;;;;;;;;;;;;;;;;;;;;;;;;;;;;;;;;;;;;;;;;;;;;;;;;;;;;;;;;;;;;;;;;;;;;;;;
"!(km*(";"1989";;"Windows 7";"Rachel's Experiment (D.T.)";"1.0";"2";"1";"1";"2";"3";"1";"2014-08-06 12:50:33.674";"2014-08-06 13:07:33.656";"1";"0";"0";"328";"168";"module.devaluation_block1.exec-7076.deval1";"5518";"2014-08-06 13:04:12.221";"10";"5";"1";"3";"350";"1320";"832";"2014-08-06 13:04:06.702";"2";;;;;;;;;;;;;;;;;;;;;;;;;;;;;;;;;;;;;;;;;;;;;;;;;;;;;;;;;;;;;;;;;;;;;;;;;;;;;;;;
"!(km*(";"1989";;"Windows 7";"Rachel's Experiment (D.T.)";"1.0";"2";"1";"1";"2";"3";"1";"2014-08-06 12:50:33.674";"2014-08-06 13:07:33.656";"1";"0";"0";"329";"169";"module.devaluation_block1.exec-7076.deval1";"7605";"2014-08-06 13:04:19.867";"26";"6";"5";"7";"1632";"1197";"1759";"2014-08-06 13:04:12.260";"3";;;;;;;;;;;;;;;;;;;;;;;;;;;;;;;;;;;;;;;;;;;;;;;;;;;;;;;;;;;;;;;;;;;;;;;;;;;;;;;;
"!(km*(";"1989";;"Windows 7";"Rachel's Experiment (D.T.)";"1.0";"2";"1";"1";"2";"3";"1";"2014-08-06 12:50:33.674";"2014-08-06 13:07:33.656";"1";"0";"0";"330";"170";"module.devaluation_block1.exec-7076.deval1";"14378";"2014-08-06 13:04:34.280";"9";"4";"5";"6";"8672";"364";"2322";"2014-08-06 13:04:19.901";"2";;;;;;;;;;;;;;;;;;;;;;;;;;;;;;;;;;;;;;;;;;;;;;;;;;;;;;;;;;;;;;;;;;;;;;;;;;;;;;;;
"!(km*(";"1989";;"Windows 7";"Rachel's Experiment (D.T.)";"1.0";"2";"1";"1";"2";"3";"1";"2014-08-06 12:50:33.674";"2014-08-06 13:07:33.656";"1";"0";"0";"331";"171";"module.devaluation_block1.exec-7076.deval1";"9782";"2014-08-06 13:04:44.107";"0";"4";"5";"7";"524";"1754";"4483";"2014-08-06 13:04:34.325";"1";;;;;;;;;;;;;;;;;;;;;;;;;;;;;;;;;;;;;;;;;;;;;;;;;;;;;;;;;;;;;;;;;;;;;;;;;;;;;;;;
"!(km*(";"1989";;"Windows 7";"Rachel's Experiment (D.T.)";"1.0";"2";"1";"1";"2";"3";"1";"2014-08-06 12:50:33.674";"2014-08-06 13:07:33.656";"1";"0";"0";"332";"172";"module.devaluation_block1.exec-7076.deval1";"8137";"2014-08-06 13:04:52.280";"11";"5";"3";"4";"652";"2557";"1901";"2014-08-06 13:04:44.141";"2";;;;;;;;;;;;;;;;;;;;;;;;;;;;;;;;;;;;;;;;;;;;;;;;;;;;;;;;;;;;;;;;;;;;;;;;;;;;;;;;
"!(km*(";"1989";;"Windows 7";"Rachel's Experiment (D.T.)";"1.0";"2";"1";"1";"2";"3";"1";"2014-08-06 12:50:33.674";"2014-08-06 13:07:33.656";"1";"0";"0";"333";"173";"module.devaluation_block1.exec-7076.deval1";"27223";"2014-08-06 13:05:19.542";"24";"3";"7";"7";"21197";"1046";"1961";"2014-08-06 13:04:52.318";"3";;;;;;;;;;;;;;;;;;;;;;;;;;;;;;;;;;;;;;;;;;;;;;;;;;;;;;;;;;;;;;;;;;;;;;;;;;;;;;;;
"!(km*(";"1989";;"Windows 7";"Rachel's Experiment (D.T.)";"1.0";"2";"1";"1";"2";"3";"1";"2014-08-06 12:50:33.674";"2014-08-06 13:07:33.656";"1";"0";"0";"334";"174";"module.devaluation_block1.exec-7076.deval1";"7075";"2014-08-06 13:05:26.635";"4";"6";"5";"4";"571";"1158";"2329";"2014-08-06 13:05:19.558";"1";;;;;;;;;;;;;;;;;;;;;;;;;;;;;;;;;;;;;;;;;;;;;;;;;;;;;;;;;;;;;;;;;;;;;;;;;;;;;;;;
"!(km*(";"1989";;"Windows 7";"Rachel's Experiment (D.T.)";"1.0";"2";"1";"1";"2";"3";"1";"2014-08-06 12:50:33.674";"2014-08-06 13:07:33.656";"1";"0";"0";"335";"175";"module.devaluation_block1.exec-7076.deval1";"5810";"2014-08-06 13:05:32.484";"19";"4";"5";"5";"737";"489";"1564";"2014-08-06 13:05:26.674";"3";;;;;;;;;;;;;;;;;;;;;;;;;;;;;;;;;;;;;;;;;;;;;;;;;;;;;;;;;;;;;;;;;;;;;;;;;;;;;;;;
"!(km*(";"1989";;"Windows 7";"Rachel's Experiment (D.T.)";"1.0";"2";"1";"1";"2";"3";"1";"2014-08-06 12:50:33.674";"2014-08-06 13:07:33.656";"1";"0";"0";"336";"176";"module.devaluation_block1.exec-7076.deval1";"6065";"2014-08-06 13:05:38.591";"23";"7";"5";"6";"1002";"410";"1633";"2014-08-06 13:05:32.526";"3";;;;;;;;;;;;;;;;;;;;;;;;;;;;;;;;;;;;;;;;;;;;;;;;;;;;;;;;;;;;;;;;;;;;;;;;;;;;;;;;
"!(km*(";"1989";;"Windows 7";"Rachel's Experiment (D.T.)";"1.0";"2";"1";"1";"2";"3";"1";"2014-08-06 12:50:33.674";"2014-08-06 13:07:33.656";"1";"0";"0";"337";"177";"module.devaluation_block1.exec-7076.deval1";"5445";"2014-08-06 13:05:44.070";"8";"5";"3";"4";"568";"807";"1054";"2014-08-06 13:05:38.623";"1";;;;;;;;;;;;;;;;;;;;;;;;;;;;;;;;;;;;;;;;;;;;;;;;;;;;;;;;;;;;;;;;;;;;;;;;;;;;;;;;
"!(km*(";"1989";;"Windows 7";"Rachel's Experiment (D.T.)";"1.0";"2";"1";"1";"2";"3";"1";"2014-08-06 12:50:33.674";"2014-08-06 13:07:33.656";"1";"0";"0";"338";"178";"module.devaluation_block1.exec-7076.deval1";"7419";"2014-08-06 13:05:51.527";"12";"7";"6";"8";"912";"589";"2895";"2014-08-06 13:05:44.108";"2";;;;;;;;;;;;;;;;;;;;;;;;;;;;;;;;;;;;;;;;;;;;;;;;;;;;;;;;;;;;;;;;;;;;;;;;;;;;;;;;
"!(km*(";"1989";;"Windows 7";"Rachel's Experiment (D.T.)";"1.0";"2";"1";"1";"2";"3";"1";"2014-08-06 12:50:33.674";"2014-08-06 13:07:33.656";"1";"0";"0";"339";"179";"module.devaluation_block1.exec-7076.deval1";"7570";"2014-08-06 13:05:59.133";"15";"2";"1";"3";"903";"984";"2663";"2014-08-06 13:05:51.563";"2";;;;;;;;;;;;;;;;;;;;;;;;;;;;;;;;;;;;;;;;;;;;;;;;;;;;;;;;;;;;;;;;;;;;;;;;;;;;;;;;
"!(km*(";"1989";;"Windows 7";"Rachel's Experiment (D.T.)";"1.0";"2";"1";"1";"2";"3";"1";"2014-08-06 12:50:33.674";"2014-08-06 13:07:33.656";"1";"0";"0";"340";"180";"module.devaluation_block1.exec-7076.deval1";"8258";"2014-08-06 13:06:07.430";"7";"4";"4";"6";"2393";"834";"2011";"2014-08-06 13:05:59.171";"1";;;;;;;;;;;;;;;;;;;;;;;;;;;;;;;;;;;;;;;;;;;;;;;;;;;;;;;;;;;;;;;;;;;;;;;;;;;;;;;;
"!(km*(";"1989";;"Windows 7";"Rachel's Experiment (D.T.)";"1.0";"2";"1";"1";"2";"3";"1";"2014-08-06 12:50:33.674";"2014-08-06 13:07:33.656";"1";"0";"0";"341";"181";"module.devaluation_block1.exec-7076.deval1";"6404";"2014-08-06 13:06:13.871";"3";"6";"8";"7";"1363";"989";"1028";"2014-08-06 13:06:07.467";"1";;;;;;;;;;;;;;;;;;;;;;;;;;;;;;;;;;;;;;;;;;;;;;;;;;;;;;;;;;;;;;;;;;;;;;;;;;;;;;;;
"!(km*(";"1989";;"Windows 7";"Rachel's Experiment (D.T.)";"1.0";"2";"1";"1";"2";"3";"1";"2014-08-06 12:50:33.674";"2014-08-06 13:07:33.656";"1";"0";"0";"342";"182";"module.devaluation_block1.exec-7076.deval1";"5740";"2014-08-06 13:06:19.648";"21";"3";"2";"5";"1185";"931";"604";"2014-08-06 13:06:13.907";"3";;;;;;;;;;;;;;;;;;;;;;;;;;;;;;;;;;;;;;;;;;;;;;;;;;;;;;;;;;;;;;;;;;;;;;;;;;;;;;;;
"!(km*(";"1989";;"Windows 7";"Rachel's Experiment (D.T.)";"1.0";"2";"1";"1";"2";"3";"1";"2014-08-06 12:50:33.674";"2014-08-06 13:07:33.656";"1";"0";"0";"343";"183";"module.devaluation_block1.exec-7076.deval1";"8005";"2014-08-06 13:06:27.683";"25";"1";"2";"4";"1338";"1359";"2289";"2014-08-06 13:06:19.678";"3";;;;;;;;;;;;;;;;;;;;;;;;;;;;;;;;;;;;;;;;;;;;;;;;;;;;;;;;;;;;;;;;;;;;;;;;;;;;;;;;
"!(km*(";"1989";;"Windows 7";"Rachel's Experiment (D.T.)";"1.0";"2";"1";"1";"2";"3";"1";"2014-08-06 12:50:33.674";"2014-08-06 13:07:33.656";"1";"0";"0";"344";"184";"module.devaluation_block1.exec-7076.deval1";"7622";"2014-08-06 13:06:35.354";"18";"3";"6";"6";"933";"2851";"820";"2014-08-06 13:06:27.731";"3";;;;;;;;;;;;;;;;;;;;;;;;;;;;;;;;;;;;;;;;;;;;;;;;;;;;;;;;;;;;;;;;;;;;;;;;;;;;;;;;
"!(km*(";"1989";;"Windows 7";"Rachel's Experiment (D.T.)";"1.0";"2";"1";"1";"2";"3";"1";"2014-08-06 12:50:33.674";"2014-08-06 13:07:33.656";"1";"0";"0";"345";"185";"module.devaluation_block1.exec-7076.deval1";"9580";"2014-08-06 13:06:44.971";"5";"6";"3";"6";"3198";"494";"2869";"2014-08-06 13:06:35.391";"1";;;;;;;;;;;;;;;;;;;;;;;;;;;;;;;;;;;;;;;;;;;;;;;;;;;;;;;;;;;;;;;;;;;;;;;;;;;;;;;;
"!(km*(";"1989";;"Windows 7";"Rachel's Experiment (D.T.)";"1.0";"2";"1";"1";"2";"3";"1";"2014-08-06 12:50:33.674";"2014-08-06 13:07:33.656";"1";"0";"0";"346";"186";"module.devaluation_block1.exec-7076.deval1";"11414";"2014-08-06 13:06:56.425";"2";"6";"7";"7";"1901";"4702";"1789";"2014-08-06 13:06:45.009";"1";;;;;;;;;;;;;;;;;;;;;;;;;;;;;;;;;;;;;;;;;;;;;;;;;;;;;;;;;;;;;;;;;;;;;;;;;;;;;;;;
"!(km*(";"1989";;"Windows 7";"Rachel's Experiment (D.T.)";"1.0";"2";"1";"1";"2";"3";"1";"2014-08-06 12:50:33.674";"2014-08-06 13:07:33.656";"1";"0";"0";"347";"187";"module.devaluation_block1.exec-7076.deval1";"8033";"2014-08-06 13:07:04.495";"6";"3";"3";"5";"709";"2441";"1865";"2014-08-06 13:06:56.462";"1";;;;;;;;;;;;;;;;;;;;;;;;;;;;;;;;;;;;;;;;;;;;;;;;;;;;;;;;;;;;;;;;;;;;;;;;;;;;;;;;
"!(km*(";"1989";;"Windows 7";"Rachel's Experiment (D.T.)";"1.0";"2";"1";"1";"2";"3";"1";"2014-08-06 12:50:33.674";"2014-08-06 13:07:33.656";"1";"0";"0";"348";"188";"module.devaluation_block1.exec-7076.deval1";"17666";"2014-08-06 13:07:22.210";"20";"2";"1";"2";"3549";"2806";"8291";"2014-08-06 13:07:04.543";"3";;;;;;;;;;;;;;;;;;;;;;;;;;;;;;;;;;;;;;;;;;;;;;;;;;;;;;;;;;;;;;;;;;;;;;;;;;;;;;;;
"!(km*(";"1989";;"Windows 7";"Rachel's Experiment (D.T.)";"1.0";"2";"1";"1";"2";"3";"1";"2014-08-06 12:50:33.674";"2014-08-06 13:07:33.656";"1";"0";"0";"349";"189";"module.devaluation_block1.exec-7076.deval1";"7953";"2014-08-06 13:07:30.203";"13";"3";"5";"6";"663";"496";"3779";"2014-08-06 13:07:22.249";"2";;;;;;;;;;;;;;;;;;;;;;;;;;;;;;;;;;;;;;;;;;;;;;;;;;;;;;;;;;;;;;;;;;;;;;;;;;;;;;;;
