"user.name";"user.yearOfBirth";"user.sex";"user.osName";"module.name";"module.version";"module.online.subject.code";"module.online.study.id";"module.online.module.nr";"module.online.group.nr";"session.id";"session.index";"session.startTime";"session.endTime";"session.completed";"session.node-1196.conditionType";"session.node-5079.DevalQorder";"trial.id";"trial.index";"trial.name";"trial.deval1.durationTime";"trial.deval1.endTime";"trial.deval1.icon";"trial.deval1.Resp_Attractive";"trial.deval1.Resp_Eat";"trial.deval1.Resp_Taste";"trial.deval1.RT_Attractive";"trial.deval1.RT_Eat";"trial.deval1.RT_Taste";"trial.deval1.startTime";"trial.deval1.stimulus type";"trial.devalPractice.durationTime";"trial.devalPractice.endTime";"trial.devalPractice.icon";"trial.devalPractice.Resp_Attractive";"trial.devalPractice.Resp_Eat";"trial.devalPractice.Resp_Taste";"trial.devalPractice.RT_Attractive";"trial.devalPractice.RT_Eat";"trial.devalPractice.RT_Taste";"trial.devalPractice.startTime";"trial.devalPractice.stimulus type";"trial.GoNoGo1.durationTime";"trial.GoNoGo1.endTime";"trial.GoNoGo1.Error Type";"trial.GoNoGo1.icon";"trial.GoNoGo1.location";"trial.GoNoGo1.outcome";"trial.GoNoGo1.response";"trial.GoNoGo1.result";"trial.GoNoGo1.RT";"trial.GoNoGo1.signal";"trial.GoNoGo1.startTime";"trial.GoNoGo1.stimulus type";"trial.GoNoGo2.durationTime";"trial.GoNoGo2.endTime";"trial.GoNoGo2.Error Type";"trial.GoNoGo2.icon";"trial.GoNoGo2.location";"trial.GoNoGo2.outcome";"trial.GoNoGo2.response";"trial.GoNoGo2.result";"trial.GoNoGo2.RT";"trial.GoNoGo2.signal";"trial.GoNoGo2.startTime";"trial.GoNoGo2.stimulus type";"trial.GoNoGo3.durationTime";"trial.GoNoGo3.endTime";"trial.GoNoGo3.Error Type";"trial.GoNoGo3.icon";"trial.GoNoGo3.location";"trial.GoNoGo3.outcome";"trial.GoNoGo3.response";"trial.GoNoGo3.result";"trial.GoNoGo3.RT";"trial.GoNoGo3.signal";"trial.GoNoGo3.startTime";"trial.GoNoGo3.stimulus type";"trial.GoNoGo4.durationTime";"trial.GoNoGo4.endTime";"trial.GoNoGo4.Error Type";"trial.GoNoGo4.icon";"trial.GoNoGo4.location";"trial.GoNoGo4.outcome";"trial.GoNoGo4.response";"trial.GoNoGo4.result";"trial.GoNoGo4.RT";"trial.GoNoGo4.signal";"trial.GoNoGo4.startTime";"trial.GoNoGo4.stimulus type";"trial.GoNoGo_Practice.durationTime";"trial.GoNoGo_Practice.endTime";"trial.GoNoGo_Practice.icon";"trial.GoNoGo_Practice.location";"trial.GoNoGo_Practice.outcome";"trial.GoNoGo_Practice.response";"trial.GoNoGo_Practice.result";"trial.GoNoGo_Practice.RT";"trial.GoNoGo_Practice.signal";"trial.GoNoGo_Practice.startTime";"trial.GoNoGo_Practice.stimulus type";"trial.GoNoGo_Tutorial.durationTime";"trial.GoNoGo_Tutorial.endTime";"trial.GoNoGo_Tutorial.icon";"trial.GoNoGo_Tutorial.location";"trial.GoNoGo_Tutorial.outcome";"trial.GoNoGo_Tutorial.response";"trial.GoNoGo_Tutorial.result";"trial.GoNoGo_Tutorial.RT";"trial.GoNoGo_Tutorial.signal";"trial.GoNoGo_Tutorial.startTime"
"c1322662";"1995";;"Windows 8";"Rachel's Experiment (D.T.)";"1.0";"2";"1";"1";"2";"1";"1";"2014-09-28 16:46:11.640";"2014-09-28 17:00:26.605";"1";"1";"0";"1";"0";"module.GoNoGotutorial.exec-1307.GoNoGo_Tutorial";;;;;;;;;;;;;;;;;;;;;;;;;;;;;;;;;;;;;;;;;;;;;;;;;;;;;;;;;;;;;;;;;;;;;;;;;;;;;;;;;;"4001";"2014-09-28 16:47:39.038";"leftResponse";"0";"FINISHED";"LEFT";"success";"1963";"0";"2014-09-28 16:47:35.036"
"c1322662";"1995";;"Windows 8";"Rachel's Experiment (D.T.)";"1.0";"2";"1";"1";"2";"1";"1";"2014-09-28 16:46:11.640";"2014-09-28 17:00:26.605";"1";"1";"0";"2";"1";"module.GoNoGotutorial.exec-1307.GoNoGo_Tutorial";;;;;;;;;;;;;;;;;;;;;;;;;;;;;;;;;;;;;;;;;;;;;;;;;;;;;;;;;;;;;;;;;;;;;;;;;;;;;;;;;;"3999";"2014-09-28 16:47:44.408";"rightResponse";"1";"FINISHED";"RIGHT";"success";"1381";"0";"2014-09-28 16:47:40.407"
"c1322662";"1995";;"Windows 8";"Rachel's Experiment (D.T.)";"1.0";"2";"1";"1";"2";"1";"1";"2014-09-28 16:46:11.640";"2014-09-28 17:00:26.605";"1";"1";"0";"3";"2";"module.GoNoGotutorial.exec-1307.GoNoGo_Tutorial";;;;;;;;;;;;;;;;;;;;;;;;;;;;;;;;;;;;;;;;;;;;;;;;;;;;;;;;;;;;;;;;;;;;;;;;;;;;;;;;;;"4000";"2014-09-28 16:47:49.756";"signalResponse";"0";"FINISHED";"NONE";"success";"0";"1";"2014-09-28 16:47:45.755"
"c1322662";"1995";;"Windows 8";"Rachel's Experiment (D.T.)";"1.0";"2";"1";"1";"2";"1";"1";"2014-09-28 16:46:11.640";"2014-09-28 17:00:26.605";"1";"1";"0";"4";"3";"module.GoNoGopractice.exec-8978.GoNoGo_Practice";;;;;;;;;;;;;;;;;;;;;;;;;;;;;;;;;;;;;;;;;;;;;;;;;;;;;;;;;;;;;;;;;;;;;;;"1964";"2014-09-28 16:47:57.230";"18";"0";"FINISHED";"LEFT";"success";"412";"0";"2014-09-28 16:47:55.265";"3";;;;;;;;;;
"c1322662";"1995";;"Windows 8";"Rachel's Experiment (D.T.)";"1.0";"2";"1";"1";"2";"1";"1";"2014-09-28 16:46:11.640";"2014-09-28 17:00:26.605";"1";"1";"0";"5";"4";"module.GoNoGopractice.exec-8978.GoNoGo_Practice";;;;;;;;;;;;;;;;;;;;;;;;;;;;;;;;;;;;;;;;;;;;;;;;;;;;;;;;;;;;;;;;;;;;;;;"1954";"2014-09-28 16:48:00.512";"21";"1";"FINISHED";"RIGHT";"success";"560";"0";"2014-09-28 16:47:58.558";"3";;;;;;;;;;
"c1322662";"1995";;"Windows 8";"Rachel's Experiment (D.T.)";"1.0";"2";"1";"1";"2";"1";"1";"2014-09-28 16:46:11.640";"2014-09-28 17:00:26.605";"1";"1";"0";"6";"5";"module.GoNoGopractice.exec-8978.GoNoGo_Practice";;;;;;;;;;;;;;;;;;;;;;;;;;;;;;;;;;;;;;;;;;;;;;;;;;;;;;;;;;;;;;;;;;;;;;;"1960";"2014-09-28 16:48:03.806";"14";"1";"FINISHED";"NONE";"success";"0";"1";"2014-09-28 16:48:01.845";"2";;;;;;;;;;
"c1322662";"1995";;"Windows 8";"Rachel's Experiment (D.T.)";"1.0";"2";"1";"1";"2";"1";"1";"2014-09-28 16:46:11.640";"2014-09-28 17:00:26.605";"1";"1";"0";"7";"6";"module.GoNoGopractice.exec-8978.GoNoGo_Practice";;;;;;;;;;;;;;;;;;;;;;;;;;;;;;;;;;;;;;;;;;;;;;;;;;;;;;;;;;;;;;;;;;;;;;;"1952";"2014-09-28 16:48:07.090";"26";"0";"FINISHED";"LEFT";"success";"465";"0";"2014-09-28 16:48:05.137";"3";;;;;;;;;;
"c1322662";"1995";;"Windows 8";"Rachel's Experiment (D.T.)";"1.0";"2";"1";"1";"2";"1";"1";"2014-09-28 16:46:11.640";"2014-09-28 17:00:26.605";"1";"1";"0";"8";"7";"module.GoNoGopractice.exec-8978.GoNoGo_Practice";;;;;;;;;;;;;;;;;;;;;;;;;;;;;;;;;;;;;;;;;;;;;;;;;;;;;;;;;;;;;;;;;;;;;;;"1952";"2014-09-28 16:48:10.388";"2";"0";"FINISHED";"LEFT";"success";"688";"0";"2014-09-28 16:48:08.435";"1";;;;;;;;;;
"c1322662";"1995";;"Windows 8";"Rachel's Experiment (D.T.)";"1.0";"2";"1";"1";"2";"1";"1";"2014-09-28 16:46:11.640";"2014-09-28 17:00:26.605";"1";"1";"0";"9";"8";"module.GoNoGopractice.exec-8978.GoNoGo_Practice";;;;;;;;;;;;;;;;;;;;;;;;;;;;;;;;;;;;;;;;;;;;;;;;;;;;;;;;;;;;;;;;;;;;;;;"1953";"2014-09-28 16:48:13.676";"30";"0";"FINISHED";"NONE";"success";"0";"1";"2014-09-28 16:48:11.723";"3";;;;;;;;;;
"c1322662";"1995";;"Windows 8";"Rachel's Experiment (D.T.)";"1.0";"2";"1";"1";"2";"1";"1";"2014-09-28 16:46:11.640";"2014-09-28 17:00:26.605";"1";"1";"0";"10";"9";"module.GoNoGopractice.exec-8978.GoNoGo_Practice";;;;;;;;;;;;;;;;;;;;;;;;;;;;;;;;;;;;;;;;;;;;;;;;;;;;;;;;;;;;;;;;;;;;;;;"1954";"2014-09-28 16:48:16.953";"6";"1";"FINISHED";"NONE";"success";"0";"1";"2014-09-28 16:48:14.998";"1";;;;;;;;;;
"c1322662";"1995";;"Windows 8";"Rachel's Experiment (D.T.)";"1.0";"2";"1";"1";"2";"1";"1";"2014-09-28 16:46:11.640";"2014-09-28 17:00:26.605";"1";"1";"0";"11";"10";"module.GoNoGopractice.exec-8978.GoNoGo_Practice";;;;;;;;;;;;;;;;;;;;;;;;;;;;;;;;;;;;;;;;;;;;;;;;;;;;;;;;;;;;;;;;;;;;;;;"1953";"2014-09-28 16:48:20.225";"34";"0";"FINISHED";"LEFT";"success";"649";"0";"2014-09-28 16:48:18.272";"3";;;;;;;;;;
"c1322662";"1995";;"Windows 8";"Rachel's Experiment (D.T.)";"1.0";"2";"1";"1";"2";"1";"1";"2014-09-28 16:46:11.640";"2014-09-28 17:00:26.605";"1";"1";"0";"12";"11";"module.GoNoGopractice.exec-8978.GoNoGo_Practice";;;;;;;;;;;;;;;;;;;;;;;;;;;;;;;;;;;;;;;;;;;;;;;;;;;;;;;;;;;;;;;;;;;;;;;"1954";"2014-09-28 16:48:23.499";"23";"1";"FINISHED";"RIGHT";"success";"498";"0";"2014-09-28 16:48:21.545";"3";;;;;;;;;;
"c1322662";"1995";;"Windows 8";"Rachel's Experiment (D.T.)";"1.0";"2";"1";"1";"2";"1";"1";"2014-09-28 16:46:11.640";"2014-09-28 17:00:26.605";"1";"1";"0";"13";"12";"module.GoNoGopractice.exec-8978.GoNoGo_Practice";;;;;;;;;;;;;;;;;;;;;;;;;;;;;;;;;;;;;;;;;;;;;;;;;;;;;;;;;;;;;;;;;;;;;;;"1952";"2014-09-28 16:48:26.768";"13";"0";"FINISHED";"NONE";"success";"0";"1";"2014-09-28 16:48:24.816";"2";;;;;;;;;;
"c1322662";"1995";;"Windows 8";"Rachel's Experiment (D.T.)";"1.0";"2";"1";"1";"2";"1";"1";"2014-09-28 16:46:11.640";"2014-09-28 17:00:26.605";"1";"1";"0";"14";"13";"module.GoNoGopractice.exec-8978.GoNoGo_Practice";;;;;;;;;;;;;;;;;;;;;;;;;;;;;;;;;;;;;;;;;;;;;;;;;;;;;;;;;;;;;;;;;;;;;;;"1953";"2014-09-28 16:48:30.041";"3";"1";"FINISHED";"RIGHT";"success";"642";"0";"2014-09-28 16:48:28.087";"1";;;;;;;;;;
"c1322662";"1995";;"Windows 8";"Rachel's Experiment (D.T.)";"1.0";"2";"1";"1";"2";"1";"1";"2014-09-28 16:46:11.640";"2014-09-28 17:00:26.605";"1";"1";"0";"15";"14";"module.GoNoGopractice.exec-8978.GoNoGo_Practice";;;;;;;;;;;;;;;;;;;;;;;;;;;;;;;;;;;;;;;;;;;;;;;;;;;;;;;;;;;;;;;;;;;;;;;"1953";"2014-09-28 16:48:33.321";"27";"1";"FINISHED";"NONE";"success";"0";"1";"2014-09-28 16:48:31.368";"3";;;;;;;;;;
"c1322662";"1995";;"Windows 8";"Rachel's Experiment (D.T.)";"1.0";"2";"1";"1";"2";"1";"1";"2014-09-28 16:46:11.640";"2014-09-28 17:00:26.605";"1";"1";"0";"16";"15";"module.training_block1.exec-3876.GoNoGo1";;;;;;;;;;;;;;;;;;;;;;;"1251";"2014-09-28 16:48:43.185";"NST_correctLoc";"16";"1";"FINISHED";"RIGHT";"success";"570";"0";"2014-09-28 16:48:41.933";"2";;;;;;;;;;;;;;;;;;;;;;;;;;;;;;;;;;;;;;;;;;;;;;;;;;;;;;;;;
"c1322662";"1995";;"Windows 8";"Rachel's Experiment (D.T.)";"1.0";"2";"1";"1";"2";"1";"1";"2014-09-28 16:46:11.640";"2014-09-28 17:00:26.605";"1";"1";"0";"17";"16";"module.training_block1.exec-3876.GoNoGo1";;;;;;;;;;;;;;;;;;;;;;;"1249";"2014-09-28 16:48:45.747";"NST_correctLoc";"13";"0";"FINISHED";"LEFT";"success";"634";"0";"2014-09-28 16:48:44.497";"2";;;;;;;;;;;;;;;;;;;;;;;;;;;;;;;;;;;;;;;;;;;;;;;;;;;;;;;;;
"c1322662";"1995";;"Windows 8";"Rachel's Experiment (D.T.)";"1.0";"2";"1";"1";"2";"1";"1";"2014-09-28 16:46:11.640";"2014-09-28 17:00:26.605";"1";"1";"0";"18";"17";"module.training_block1.exec-3876.GoNoGo1";;;;;;;;;;;;;;;;;;;;;;;"1250";"2014-09-28 16:48:48.624";"ST_correctStop";"4";"0";"FINISHED";"NONE";"success";"0";"1";"2014-09-28 16:48:47.373";"1";;;;;;;;;;;;;;;;;;;;;;;;;;;;;;;;;;;;;;;;;;;;;;;;;;;;;;;;;
"c1322662";"1995";;"Windows 8";"Rachel's Experiment (D.T.)";"1.0";"2";"1";"1";"2";"1";"1";"2014-09-28 16:46:11.640";"2014-09-28 17:00:26.605";"1";"1";"0";"19";"18";"module.training_block1.exec-3876.GoNoGo1";;;;;;;;;;;;;;;;;;;;;;;"1249";"2014-09-28 16:48:51.199";"ST_correctStop";"24";"1";"FINISHED";"NONE";"success";"0";"1";"2014-09-28 16:48:49.949";"3";;;;;;;;;;;;;;;;;;;;;;;;;;;;;;;;;;;;;;;;;;;;;;;;;;;;;;;;;
"c1322662";"1995";;"Windows 8";"Rachel's Experiment (D.T.)";"1.0";"2";"1";"1";"2";"1";"1";"2014-09-28 16:46:11.640";"2014-09-28 17:00:26.605";"1";"1";"0";"20";"19";"module.training_block1.exec-3876.GoNoGo1";;;;;;;;;;;;;;;;;;;;;;;"1250";"2014-09-28 16:48:53.762";"ST_correctStop";"1";"1";"FINISHED";"NONE";"success";"0";"1";"2014-09-28 16:48:52.512";"1";;;;;;;;;;;;;;;;;;;;;;;;;;;;;;;;;;;;;;;;;;;;;;;;;;;;;;;;;
"c1322662";"1995";;"Windows 8";"Rachel's Experiment (D.T.)";"1.0";"2";"1";"1";"2";"1";"1";"2014-09-28 16:46:11.640";"2014-09-28 17:00:26.605";"1";"1";"0";"21";"20";"module.training_block1.exec-3876.GoNoGo1";;;;;;;;;;;;;;;;;;;;;;;"1249";"2014-09-28 16:48:56.333";"NST_correctLoc";"15";"0";"FINISHED";"LEFT";"success";"776";"0";"2014-09-28 16:48:55.083";"2";;;;;;;;;;;;;;;;;;;;;;;;;;;;;;;;;;;;;;;;;;;;;;;;;;;;;;;;;
"c1322662";"1995";;"Windows 8";"Rachel's Experiment (D.T.)";"1.0";"2";"1";"1";"2";"1";"1";"2014-09-28 16:46:11.640";"2014-09-28 17:00:26.605";"1";"1";"0";"22";"21";"module.training_block1.exec-3876.GoNoGo1";;;;;;;;;;;;;;;;;;;;;;;"1249";"2014-09-28 16:48:58.898";"NST_correctLoc";"17";"0";"FINISHED";"LEFT";"success";"1003";"0";"2014-09-28 16:48:57.648";"2";;;;;;;;;;;;;;;;;;;;;;;;;;;;;;;;;;;;;;;;;;;;;;;;;;;;;;;;;
"c1322662";"1995";;"Windows 8";"Rachel's Experiment (D.T.)";"1.0";"2";"1";"1";"2";"1";"1";"2014-09-28 16:46:11.640";"2014-09-28 17:00:26.605";"1";"1";"0";"23";"22";"module.training_block1.exec-3876.GoNoGo1";;;;;;;;;;;;;;;;;;;;;;;"1250";"2014-09-28 16:49:01.466";"NST_correctLoc";"28";"1";"FINISHED";"RIGHT";"success";"904";"0";"2014-09-28 16:49:00.215";"3";;;;;;;;;;;;;;;;;;;;;;;;;;;;;;;;;;;;;;;;;;;;;;;;;;;;;;;;;
"c1322662";"1995";;"Windows 8";"Rachel's Experiment (D.T.)";"1.0";"2";"1";"1";"2";"1";"1";"2014-09-28 16:46:11.640";"2014-09-28 17:00:26.605";"1";"1";"0";"24";"23";"module.training_block1.exec-3876.GoNoGo1";;;;;;;;;;;;;;;;;;;;;;;"1250";"2014-09-28 16:49:04.030";"ST_correctStop";"27";"1";"FINISHED";"NONE";"success";"0";"1";"2014-09-28 16:49:02.779";"3";;;;;;;;;;;;;;;;;;;;;;;;;;;;;;;;;;;;;;;;;;;;;;;;;;;;;;;;;
"c1322662";"1995";;"Windows 8";"Rachel's Experiment (D.T.)";"1.0";"2";"1";"1";"2";"1";"1";"2014-09-28 16:46:11.640";"2014-09-28 17:00:26.605";"1";"1";"0";"25";"24";"module.training_block1.exec-3876.GoNoGo1";;;;;;;;;;;;;;;;;;;;;;;"1249";"2014-09-28 16:49:06.608";"ST_correctStop";"31";"0";"FINISHED";"NONE";"success";"0";"1";"2014-09-28 16:49:05.357";"3";;;;;;;;;;;;;;;;;;;;;;;;;;;;;;;;;;;;;;;;;;;;;;;;;;;;;;;;;
"c1322662";"1995";;"Windows 8";"Rachel's Experiment (D.T.)";"1.0";"2";"1";"1";"2";"1";"1";"2014-09-28 16:46:11.640";"2014-09-28 17:00:26.605";"1";"1";"0";"26";"25";"module.training_block1.exec-3876.GoNoGo1";;;;;;;;;;;;;;;;;;;;;;;"1250";"2014-09-28 16:49:09.173";"NST_correctLoc";"23";"0";"FINISHED";"LEFT";"success";"847";"0";"2014-09-28 16:49:07.923";"3";;;;;;;;;;;;;;;;;;;;;;;;;;;;;;;;;;;;;;;;;;;;;;;;;;;;;;;;;
"c1322662";"1995";;"Windows 8";"Rachel's Experiment (D.T.)";"1.0";"2";"1";"1";"2";"1";"1";"2014-09-28 16:46:11.640";"2014-09-28 17:00:26.605";"1";"1";"0";"27";"26";"module.training_block1.exec-3876.GoNoGo1";;;;;;;;;;;;;;;;;;;;;;;"1251";"2014-09-28 16:49:11.738";"NST_correctLoc";"20";"1";"FINISHED";"RIGHT";"success";"829";"0";"2014-09-28 16:49:10.486";"3";;;;;;;;;;;;;;;;;;;;;;;;;;;;;;;;;;;;;;;;;;;;;;;;;;;;;;;;;
"c1322662";"1995";;"Windows 8";"Rachel's Experiment (D.T.)";"1.0";"2";"1";"1";"2";"1";"1";"2014-09-28 16:46:11.640";"2014-09-28 17:00:26.605";"1";"1";"0";"28";"27";"module.training_block1.exec-3876.GoNoGo1";;;;;;;;;;;;;;;;;;;;;;;"1250";"2014-09-28 16:49:14.317";"ST_correctStop";"2";"0";"FINISHED";"NONE";"success";"0";"1";"2014-09-28 16:49:13.066";"1";;;;;;;;;;;;;;;;;;;;;;;;;;;;;;;;;;;;;;;;;;;;;;;;;;;;;;;;;
"c1322662";"1995";;"Windows 8";"Rachel's Experiment (D.T.)";"1.0";"2";"1";"1";"2";"1";"1";"2014-09-28 16:46:11.640";"2014-09-28 17:00:26.605";"1";"1";"0";"29";"28";"module.training_block1.exec-3876.GoNoGo1";;;;;;;;;;;;;;;;;;;;;;;"1249";"2014-09-28 16:49:16.880";"ST_correctStop";"19";"1";"FINISHED";"NONE";"success";"0";"1";"2014-09-28 16:49:15.630";"3";;;;;;;;;;;;;;;;;;;;;;;;;;;;;;;;;;;;;;;;;;;;;;;;;;;;;;;;;
"c1322662";"1995";;"Windows 8";"Rachel's Experiment (D.T.)";"1.0";"2";"1";"1";"2";"1";"1";"2014-09-28 16:46:11.640";"2014-09-28 17:00:26.605";"1";"1";"0";"30";"29";"module.training_block1.exec-3876.GoNoGo1";;;;;;;;;;;;;;;;;;;;;;;"1250";"2014-09-28 16:49:19.458";"NST_correctLoc";"32";"0";"FINISHED";"LEFT";"success";"949";"0";"2014-09-28 16:49:18.207";"3";;;;;;;;;;;;;;;;;;;;;;;;;;;;;;;;;;;;;;;;;;;;;;;;;;;;;;;;;
"c1322662";"1995";;"Windows 8";"Rachel's Experiment (D.T.)";"1.0";"2";"1";"1";"2";"1";"1";"2014-09-28 16:46:11.640";"2014-09-28 17:00:26.605";"1";"1";"0";"31";"30";"module.training_block1.exec-3876.GoNoGo1";;;;;;;;;;;;;;;;;;;;;;;"1250";"2014-09-28 16:49:22.020";"ST_correctStop";"21";"0";"FINISHED";"NONE";"success";"0";"1";"2014-09-28 16:49:20.770";"3";;;;;;;;;;;;;;;;;;;;;;;;;;;;;;;;;;;;;;;;;;;;;;;;;;;;;;;;;
"c1322662";"1995";;"Windows 8";"Rachel's Experiment (D.T.)";"1.0";"2";"1";"1";"2";"1";"1";"2014-09-28 16:46:11.640";"2014-09-28 17:00:26.605";"1";"1";"0";"32";"31";"module.training_block1.exec-3876.GoNoGo1";;;;;;;;;;;;;;;;;;;;;;;"1249";"2014-09-28 16:49:24.586";"ST_correctStop";"25";"0";"FINISHED";"NONE";"success";"0";"1";"2014-09-28 16:49:23.336";"3";;;;;;;;;;;;;;;;;;;;;;;;;;;;;;;;;;;;;;;;;;;;;;;;;;;;;;;;;
"c1322662";"1995";;"Windows 8";"Rachel's Experiment (D.T.)";"1.0";"2";"1";"1";"2";"1";"1";"2014-09-28 16:46:11.640";"2014-09-28 17:00:26.605";"1";"1";"0";"33";"32";"module.training_block1.exec-3876.GoNoGo1";;;;;;;;;;;;;;;;;;;;;;;"1249";"2014-09-28 16:49:27.147";"ST_correctStop";"0";"1";"FINISHED";"NONE";"success";"0";"1";"2014-09-28 16:49:25.897";"1";;;;;;;;;;;;;;;;;;;;;;;;;;;;;;;;;;;;;;;;;;;;;;;;;;;;;;;;;
"c1322662";"1995";;"Windows 8";"Rachel's Experiment (D.T.)";"1.0";"2";"1";"1";"2";"1";"1";"2014-09-28 16:46:11.640";"2014-09-28 17:00:26.605";"1";"1";"0";"34";"33";"module.training_block1.exec-3876.GoNoGo1";;;;;;;;;;;;;;;;;;;;;;;"1250";"2014-09-28 16:49:29.710";"ST_correctStop";"6";"0";"FINISHED";"NONE";"success";"0";"1";"2014-09-28 16:49:28.460";"1";;;;;;;;;;;;;;;;;;;;;;;;;;;;;;;;;;;;;;;;;;;;;;;;;;;;;;;;;
"c1322662";"1995";;"Windows 8";"Rachel's Experiment (D.T.)";"1.0";"2";"1";"1";"2";"1";"1";"2014-09-28 16:46:11.640";"2014-09-28 17:00:26.605";"1";"1";"0";"35";"34";"module.training_block1.exec-3876.GoNoGo1";;;;;;;;;;;;;;;;;;;;;;;"1249";"2014-09-28 16:49:32.305";"NST_correctLoc";"33";"0";"FINISHED";"LEFT";"success";"701";"0";"2014-09-28 16:49:31.055";"3";;;;;;;;;;;;;;;;;;;;;;;;;;;;;;;;;;;;;;;;;;;;;;;;;;;;;;;;;
"c1322662";"1995";;"Windows 8";"Rachel's Experiment (D.T.)";"1.0";"2";"1";"1";"2";"1";"1";"2014-09-28 16:46:11.640";"2014-09-28 17:00:26.605";"1";"1";"0";"36";"35";"module.training_block1.exec-3876.GoNoGo1";;;;;;;;;;;;;;;;;;;;;;;"1250";"2014-09-28 16:49:34.866";"NST_correctLoc";"22";"0";"FINISHED";"LEFT";"success";"876";"0";"2014-09-28 16:49:33.616";"3";;;;;;;;;;;;;;;;;;;;;;;;;;;;;;;;;;;;;;;;;;;;;;;;;;;;;;;;;
"c1322662";"1995";;"Windows 8";"Rachel's Experiment (D.T.)";"1.0";"2";"1";"1";"2";"1";"1";"2014-09-28 16:46:11.640";"2014-09-28 17:00:26.605";"1";"1";"0";"37";"36";"module.training_block1.exec-3876.GoNoGo1";;;;;;;;;;;;;;;;;;;;;;;"1249";"2014-09-28 16:49:37.428";"ST_correctStop";"26";"0";"FINISHED";"NONE";"success";"0";"1";"2014-09-28 16:49:36.178";"3";;;;;;;;;;;;;;;;;;;;;;;;;;;;;;;;;;;;;;;;;;;;;;;;;;;;;;;;;
"c1322662";"1995";;"Windows 8";"Rachel's Experiment (D.T.)";"1.0";"2";"1";"1";"2";"1";"1";"2014-09-28 16:46:11.640";"2014-09-28 17:00:26.605";"1";"1";"0";"38";"37";"module.training_block1.exec-3876.GoNoGo1";;;;;;;;;;;;;;;;;;;;;;;"1250";"2014-09-28 16:49:39.987";"ST_correctStop";"34";"1";"FINISHED";"NONE";"success";"0";"1";"2014-09-28 16:49:38.736";"3";;;;;;;;;;;;;;;;;;;;;;;;;;;;;;;;;;;;;;;;;;;;;;;;;;;;;;;;;
"c1322662";"1995";;"Windows 8";"Rachel's Experiment (D.T.)";"1.0";"2";"1";"1";"2";"1";"1";"2014-09-28 16:46:11.640";"2014-09-28 17:00:26.605";"1";"1";"0";"39";"38";"module.training_block1.exec-3876.GoNoGo1";;;;;;;;;;;;;;;;;;;;;;;"1249";"2014-09-28 16:49:42.553";"ST_correctStop";"5";"1";"FINISHED";"NONE";"success";"0";"1";"2014-09-28 16:49:41.303";"1";;;;;;;;;;;;;;;;;;;;;;;;;;;;;;;;;;;;;;;;;;;;;;;;;;;;;;;;;
"c1322662";"1995";;"Windows 8";"Rachel's Experiment (D.T.)";"1.0";"2";"1";"1";"2";"1";"1";"2014-09-28 16:46:11.640";"2014-09-28 17:00:26.605";"1";"1";"0";"40";"39";"module.training_block1.exec-3876.GoNoGo1";;;;;;;;;;;;;;;;;;;;;;;"1250";"2014-09-28 16:49:45.111";"NST_miss";"9";"0";"FINISHED";"NONE";"failure";"0";"0";"2014-09-28 16:49:43.861";"2";;;;;;;;;;;;;;;;;;;;;;;;;;;;;;;;;;;;;;;;;;;;;;;;;;;;;;;;;
"c1322662";"1995";;"Windows 8";"Rachel's Experiment (D.T.)";"1.0";"2";"1";"1";"2";"1";"1";"2014-09-28 16:46:11.640";"2014-09-28 17:00:26.605";"1";"1";"0";"41";"40";"module.training_block1.exec-3876.GoNoGo1";;;;;;;;;;;;;;;;;;;;;;;"1249";"2014-09-28 16:49:47.669";"NST_miss";"10";"0";"FINISHED";"NONE";"failure";"0";"0";"2014-09-28 16:49:46.419";"2";;;;;;;;;;;;;;;;;;;;;;;;;;;;;;;;;;;;;;;;;;;;;;;;;;;;;;;;;
"c1322662";"1995";;"Windows 8";"Rachel's Experiment (D.T.)";"1.0";"2";"1";"1";"2";"1";"1";"2014-09-28 16:46:11.640";"2014-09-28 17:00:26.605";"1";"1";"0";"42";"41";"module.training_block1.exec-3876.GoNoGo1";;;;;;;;;;;;;;;;;;;;;;;"1249";"2014-09-28 16:49:50.234";"ST_correctStop";"3";"0";"FINISHED";"NONE";"success";"0";"1";"2014-09-28 16:49:48.984";"1";;;;;;;;;;;;;;;;;;;;;;;;;;;;;;;;;;;;;;;;;;;;;;;;;;;;;;;;;
"c1322662";"1995";;"Windows 8";"Rachel's Experiment (D.T.)";"1.0";"2";"1";"1";"2";"1";"1";"2014-09-28 16:46:11.640";"2014-09-28 17:00:26.605";"1";"1";"0";"43";"42";"module.training_block1.exec-3876.GoNoGo1";;;;;;;;;;;;;;;;;;;;;;;"1249";"2014-09-28 16:49:52.805";"ST_correctStop";"8";"0";"FINISHED";"NONE";"success";"0";"1";"2014-09-28 16:49:51.555";"1";;;;;;;;;;;;;;;;;;;;;;;;;;;;;;;;;;;;;;;;;;;;;;;;;;;;;;;;;
"c1322662";"1995";;"Windows 8";"Rachel's Experiment (D.T.)";"1.0";"2";"1";"1";"2";"1";"1";"2014-09-28 16:46:11.640";"2014-09-28 17:00:26.605";"1";"1";"0";"44";"43";"module.training_block1.exec-3876.GoNoGo1";;;;;;;;;;;;;;;;;;;;;;;"1249";"2014-09-28 16:49:55.362";"NST_correctLoc";"18";"1";"FINISHED";"RIGHT";"success";"620";"0";"2014-09-28 16:49:54.112";"3";;;;;;;;;;;;;;;;;;;;;;;;;;;;;;;;;;;;;;;;;;;;;;;;;;;;;;;;;
"c1322662";"1995";;"Windows 8";"Rachel's Experiment (D.T.)";"1.0";"2";"1";"1";"2";"1";"1";"2014-09-28 16:46:11.640";"2014-09-28 17:00:26.605";"1";"1";"0";"45";"44";"module.training_block1.exec-3876.GoNoGo1";;;;;;;;;;;;;;;;;;;;;;;"1249";"2014-09-28 16:49:57.920";"NST_correctLoc";"14";"0";"FINISHED";"LEFT";"success";"680";"0";"2014-09-28 16:49:56.670";"2";;;;;;;;;;;;;;;;;;;;;;;;;;;;;;;;;;;;;;;;;;;;;;;;;;;;;;;;;
"c1322662";"1995";;"Windows 8";"Rachel's Experiment (D.T.)";"1.0";"2";"1";"1";"2";"1";"1";"2014-09-28 16:46:11.640";"2014-09-28 17:00:26.605";"1";"1";"0";"46";"45";"module.training_block1.exec-3876.GoNoGo1";;;;;;;;;;;;;;;;;;;;;;;"1250";"2014-09-28 16:50:00.491";"ST_correctStop";"30";"0";"FINISHED";"NONE";"success";"0";"1";"2014-09-28 16:49:59.240";"3";;;;;;;;;;;;;;;;;;;;;;;;;;;;;;;;;;;;;;;;;;;;;;;;;;;;;;;;;
"c1322662";"1995";;"Windows 8";"Rachel's Experiment (D.T.)";"1.0";"2";"1";"1";"2";"1";"1";"2014-09-28 16:46:11.640";"2014-09-28 17:00:26.605";"1";"1";"0";"47";"46";"module.training_block1.exec-3876.GoNoGo1";;;;;;;;;;;;;;;;;;;;;;;"1249";"2014-09-28 16:50:03.048";"NST_correctLoc";"12";"1";"FINISHED";"RIGHT";"success";"866";"0";"2014-09-28 16:50:01.798";"2";;;;;;;;;;;;;;;;;;;;;;;;;;;;;;;;;;;;;;;;;;;;;;;;;;;;;;;;;
"c1322662";"1995";;"Windows 8";"Rachel's Experiment (D.T.)";"1.0";"2";"1";"1";"2";"1";"1";"2014-09-28 16:46:11.640";"2014-09-28 17:00:26.605";"1";"1";"0";"48";"47";"module.training_block1.exec-3876.GoNoGo1";;;;;;;;;;;;;;;;;;;;;;;"1250";"2014-09-28 16:50:05.605";"NST_correctLoc";"35";"1";"FINISHED";"RIGHT";"success";"919";"0";"2014-09-28 16:50:04.354";"3";;;;;;;;;;;;;;;;;;;;;;;;;;;;;;;;;;;;;;;;;;;;;;;;;;;;;;;;;
"c1322662";"1995";;"Windows 8";"Rachel's Experiment (D.T.)";"1.0";"2";"1";"1";"2";"1";"1";"2014-09-28 16:46:11.640";"2014-09-28 17:00:26.605";"1";"1";"0";"49";"48";"module.training_block1.exec-3876.GoNoGo1";;;;;;;;;;;;;;;;;;;;;;;"1250";"2014-09-28 16:50:08.177";"ST_correctStop";"7";"1";"FINISHED";"NONE";"success";"0";"1";"2014-09-28 16:50:06.926";"1";;;;;;;;;;;;;;;;;;;;;;;;;;;;;;;;;;;;;;;;;;;;;;;;;;;;;;;;;
"c1322662";"1995";;"Windows 8";"Rachel's Experiment (D.T.)";"1.0";"2";"1";"1";"2";"1";"1";"2014-09-28 16:46:11.640";"2014-09-28 17:00:26.605";"1";"1";"0";"50";"49";"module.training_block1.exec-3876.GoNoGo1";;;;;;;;;;;;;;;;;;;;;;;"1250";"2014-09-28 16:50:10.733";"NST_correctLoc";"11";"1";"FINISHED";"RIGHT";"success";"975";"0";"2014-09-28 16:50:09.483";"2";;;;;;;;;;;;;;;;;;;;;;;;;;;;;;;;;;;;;;;;;;;;;;;;;;;;;;;;;
"c1322662";"1995";;"Windows 8";"Rachel's Experiment (D.T.)";"1.0";"2";"1";"1";"2";"1";"1";"2014-09-28 16:46:11.640";"2014-09-28 17:00:26.605";"1";"1";"0";"51";"50";"module.training_block1.exec-3876.GoNoGo1";;;;;;;;;;;;;;;;;;;;;;;"1249";"2014-09-28 16:50:13.289";"NST_correctLoc";"29";"1";"FINISHED";"RIGHT";"success";"1018";"0";"2014-09-28 16:50:12.039";"3";;;;;;;;;;;;;;;;;;;;;;;;;;;;;;;;;;;;;;;;;;;;;;;;;;;;;;;;;
"c1322662";"1995";;"Windows 8";"Rachel's Experiment (D.T.)";"1.0";"2";"1";"1";"2";"1";"1";"2014-09-28 16:46:11.640";"2014-09-28 17:00:26.605";"1";"1";"0";"52";"51";"module.training_block2.exec-9066.GoNoGo2";;;;;;;;;;;;;;;;;;;;;;;;;;;;;;;;;;;"1250";"2014-09-28 16:50:38.705";"NST_correctLoc";"14";"0";"FINISHED";"LEFT";"success";"761";"0";"2014-09-28 16:50:37.454";"2";;;;;;;;;;;;;;;;;;;;;;;;;;;;;;;;;;;;;;;;;;;;;
"c1322662";"1995";;"Windows 8";"Rachel's Experiment (D.T.)";"1.0";"2";"1";"1";"2";"1";"1";"2014-09-28 16:46:11.640";"2014-09-28 17:00:26.605";"1";"1";"0";"53";"52";"module.training_block2.exec-9066.GoNoGo2";;;;;;;;;;;;;;;;;;;;;;;;;;;;;;;;;;;"1251";"2014-09-28 16:50:41.272";"NST_correctLoc";"16";"1";"FINISHED";"RIGHT";"success";"929";"0";"2014-09-28 16:50:40.021";"2";;;;;;;;;;;;;;;;;;;;;;;;;;;;;;;;;;;;;;;;;;;;;
"c1322662";"1995";;"Windows 8";"Rachel's Experiment (D.T.)";"1.0";"2";"1";"1";"2";"1";"1";"2014-09-28 16:46:11.640";"2014-09-28 17:00:26.605";"1";"1";"0";"54";"53";"module.training_block2.exec-9066.GoNoGo2";;;;;;;;;;;;;;;;;;;;;;;;;;;;;;;;;;;"1249";"2014-09-28 16:50:43.822";"ST_correctStop";"3";"1";"FINISHED";"NONE";"success";"0";"1";"2014-09-28 16:50:42.572";"1";;;;;;;;;;;;;;;;;;;;;;;;;;;;;;;;;;;;;;;;;;;;;
"c1322662";"1995";;"Windows 8";"Rachel's Experiment (D.T.)";"1.0";"2";"1";"1";"2";"1";"1";"2014-09-28 16:46:11.640";"2014-09-28 17:00:26.605";"1";"1";"0";"55";"54";"module.training_block2.exec-9066.GoNoGo2";;;;;;;;;;;;;;;;;;;;;;;;;;;;;;;;;;;"1250";"2014-09-28 16:50:46.368";"NST_correctLoc";"32";"0";"FINISHED";"LEFT";"success";"759";"0";"2014-09-28 16:50:45.118";"3";;;;;;;;;;;;;;;;;;;;;;;;;;;;;;;;;;;;;;;;;;;;;
"c1322662";"1995";;"Windows 8";"Rachel's Experiment (D.T.)";"1.0";"2";"1";"1";"2";"1";"1";"2014-09-28 16:46:11.640";"2014-09-28 17:00:26.605";"1";"1";"0";"56";"55";"module.training_block2.exec-9066.GoNoGo2";;;;;;;;;;;;;;;;;;;;;;;;;;;;;;;;;;;"1250";"2014-09-28 16:50:48.924";"NST_correctLoc";"25";"0";"FINISHED";"LEFT";"success";"633";"0";"2014-09-28 16:50:47.673";"3";;;;;;;;;;;;;;;;;;;;;;;;;;;;;;;;;;;;;;;;;;;;;
"c1322662";"1995";;"Windows 8";"Rachel's Experiment (D.T.)";"1.0";"2";"1";"1";"2";"1";"1";"2014-09-28 16:46:11.640";"2014-09-28 17:00:26.605";"1";"1";"0";"57";"56";"module.training_block2.exec-9066.GoNoGo2";;;;;;;;;;;;;;;;;;;;;;;;;;;;;;;;;;;"1250";"2014-09-28 16:50:51.472";"NST_correctLoc";"11";"0";"FINISHED";"LEFT";"success";"838";"0";"2014-09-28 16:50:50.221";"2";;;;;;;;;;;;;;;;;;;;;;;;;;;;;;;;;;;;;;;;;;;;;
"c1322662";"1995";;"Windows 8";"Rachel's Experiment (D.T.)";"1.0";"2";"1";"1";"2";"1";"1";"2014-09-28 16:46:11.640";"2014-09-28 17:00:26.605";"1";"1";"0";"58";"57";"module.training_block2.exec-9066.GoNoGo2";;;;;;;;;;;;;;;;;;;;;;;;;;;;;;;;;;;"1249";"2014-09-28 16:50:54.018";"ST_correctStop";"23";"1";"FINISHED";"NONE";"success";"0";"1";"2014-09-28 16:50:52.767";"3";;;;;;;;;;;;;;;;;;;;;;;;;;;;;;;;;;;;;;;;;;;;;
"c1322662";"1995";;"Windows 8";"Rachel's Experiment (D.T.)";"1.0";"2";"1";"1";"2";"1";"1";"2014-09-28 16:46:11.640";"2014-09-28 17:00:26.605";"1";"1";"0";"59";"58";"module.training_block2.exec-9066.GoNoGo2";;;;;;;;;;;;;;;;;;;;;;;;;;;;;;;;;;;"1249";"2014-09-28 16:50:56.563";"ST_correctStop";"27";"1";"FINISHED";"NONE";"success";"0";"1";"2014-09-28 16:50:55.313";"3";;;;;;;;;;;;;;;;;;;;;;;;;;;;;;;;;;;;;;;;;;;;;
"c1322662";"1995";;"Windows 8";"Rachel's Experiment (D.T.)";"1.0";"2";"1";"1";"2";"1";"1";"2014-09-28 16:46:11.640";"2014-09-28 17:00:26.605";"1";"1";"0";"60";"59";"module.training_block2.exec-9066.GoNoGo2";;;;;;;;;;;;;;;;;;;;;;;;;;;;;;;;;;;"1251";"2014-09-28 16:50:59.111";"NST_correctLoc";"13";"1";"FINISHED";"RIGHT";"success";"641";"0";"2014-09-28 16:50:57.860";"2";;;;;;;;;;;;;;;;;;;;;;;;;;;;;;;;;;;;;;;;;;;;;
"c1322662";"1995";;"Windows 8";"Rachel's Experiment (D.T.)";"1.0";"2";"1";"1";"2";"1";"1";"2014-09-28 16:46:11.640";"2014-09-28 17:00:26.605";"1";"1";"0";"61";"60";"module.training_block2.exec-9066.GoNoGo2";;;;;;;;;;;;;;;;;;;;;;;;;;;;;;;;;;;"1250";"2014-09-28 16:51:01.657";"ST_correctStop";"6";"1";"FINISHED";"NONE";"success";"0";"1";"2014-09-28 16:51:00.407";"1";;;;;;;;;;;;;;;;;;;;;;;;;;;;;;;;;;;;;;;;;;;;;
"c1322662";"1995";;"Windows 8";"Rachel's Experiment (D.T.)";"1.0";"2";"1";"1";"2";"1";"1";"2014-09-28 16:46:11.640";"2014-09-28 17:00:26.605";"1";"1";"0";"62";"61";"module.training_block2.exec-9066.GoNoGo2";;;;;;;;;;;;;;;;;;;;;;;;;;;;;;;;;;;"1250";"2014-09-28 16:51:04.202";"ST_correctStop";"2";"0";"FINISHED";"NONE";"success";"0";"1";"2014-09-28 16:51:02.952";"1";;;;;;;;;;;;;;;;;;;;;;;;;;;;;;;;;;;;;;;;;;;;;
"c1322662";"1995";;"Windows 8";"Rachel's Experiment (D.T.)";"1.0";"2";"1";"1";"2";"1";"1";"2014-09-28 16:46:11.640";"2014-09-28 17:00:26.605";"1";"1";"0";"63";"62";"module.training_block2.exec-9066.GoNoGo2";;;;;;;;;;;;;;;;;;;;;;;;;;;;;;;;;;;"1250";"2014-09-28 16:51:06.749";"ST_correctStop";"7";"1";"FINISHED";"NONE";"success";"0";"1";"2014-09-28 16:51:05.499";"1";;;;;;;;;;;;;;;;;;;;;;;;;;;;;;;;;;;;;;;;;;;;;
"c1322662";"1995";;"Windows 8";"Rachel's Experiment (D.T.)";"1.0";"2";"1";"1";"2";"1";"1";"2014-09-28 16:46:11.640";"2014-09-28 17:00:26.605";"1";"1";"0";"64";"63";"module.training_block2.exec-9066.GoNoGo2";;;;;;;;;;;;;;;;;;;;;;;;;;;;;;;;;;;"1250";"2014-09-28 16:51:09.298";"NST_correctLoc";"24";"0";"FINISHED";"LEFT";"success";"630";"0";"2014-09-28 16:51:08.048";"3";;;;;;;;;;;;;;;;;;;;;;;;;;;;;;;;;;;;;;;;;;;;;
"c1322662";"1995";;"Windows 8";"Rachel's Experiment (D.T.)";"1.0";"2";"1";"1";"2";"1";"1";"2014-09-28 16:46:11.640";"2014-09-28 17:00:26.605";"1";"1";"0";"65";"64";"module.training_block2.exec-9066.GoNoGo2";;;;;;;;;;;;;;;;;;;;;;;;;;;;;;;;;;;"1250";"2014-09-28 16:51:11.850";"NST_correctLoc";"19";"0";"FINISHED";"LEFT";"success";"705";"0";"2014-09-28 16:51:10.600";"3";;;;;;;;;;;;;;;;;;;;;;;;;;;;;;;;;;;;;;;;;;;;;
"c1322662";"1995";;"Windows 8";"Rachel's Experiment (D.T.)";"1.0";"2";"1";"1";"2";"1";"1";"2014-09-28 16:46:11.640";"2014-09-28 17:00:26.605";"1";"1";"0";"66";"65";"module.training_block2.exec-9066.GoNoGo2";;;;;;;;;;;;;;;;;;;;;;;;;;;;;;;;;;;"1250";"2014-09-28 16:51:14.394";"ST_correctStop";"26";"0";"FINISHED";"NONE";"success";"0";"1";"2014-09-28 16:51:13.144";"3";;;;;;;;;;;;;;;;;;;;;;;;;;;;;;;;;;;;;;;;;;;;;
"c1322662";"1995";;"Windows 8";"Rachel's Experiment (D.T.)";"1.0";"2";"1";"1";"2";"1";"1";"2014-09-28 16:46:11.640";"2014-09-28 17:00:26.605";"1";"1";"0";"67";"66";"module.training_block2.exec-9066.GoNoGo2";;;;;;;;;;;;;;;;;;;;;;;;;;;;;;;;;;;"1250";"2014-09-28 16:51:16.940";"ST_correctStop";"0";"1";"FINISHED";"NONE";"success";"0";"1";"2014-09-28 16:51:15.689";"1";;;;;;;;;;;;;;;;;;;;;;;;;;;;;;;;;;;;;;;;;;;;;
"c1322662";"1995";;"Windows 8";"Rachel's Experiment (D.T.)";"1.0";"2";"1";"1";"2";"1";"1";"2014-09-28 16:46:11.640";"2014-09-28 17:00:26.605";"1";"1";"0";"68";"67";"module.training_block2.exec-9066.GoNoGo2";;;;;;;;;;;;;;;;;;;;;;;;;;;;;;;;;;;"1250";"2014-09-28 16:51:19.490";"ST_correctStop";"8";"1";"FINISHED";"NONE";"success";"0";"1";"2014-09-28 16:51:18.239";"1";;;;;;;;;;;;;;;;;;;;;;;;;;;;;;;;;;;;;;;;;;;;;
"c1322662";"1995";;"Windows 8";"Rachel's Experiment (D.T.)";"1.0";"2";"1";"1";"2";"1";"1";"2014-09-28 16:46:11.640";"2014-09-28 17:00:26.605";"1";"1";"0";"69";"68";"module.training_block2.exec-9066.GoNoGo2";;;;;;;;;;;;;;;;;;;;;;;;;;;;;;;;;;;"1250";"2014-09-28 16:51:22.034";"ST_correctStop";"5";"1";"FINISHED";"NONE";"success";"0";"1";"2014-09-28 16:51:20.783";"1";;;;;;;;;;;;;;;;;;;;;;;;;;;;;;;;;;;;;;;;;;;;;
"c1322662";"1995";;"Windows 8";"Rachel's Experiment (D.T.)";"1.0";"2";"1";"1";"2";"1";"1";"2014-09-28 16:46:11.640";"2014-09-28 17:00:26.605";"1";"1";"0";"70";"69";"module.training_block2.exec-9066.GoNoGo2";;;;;;;;;;;;;;;;;;;;;;;;;;;;;;;;;;;"1250";"2014-09-28 16:51:24.578";"NST_correctLoc";"35";"0";"FINISHED";"LEFT";"success";"502";"0";"2014-09-28 16:51:23.327";"3";;;;;;;;;;;;;;;;;;;;;;;;;;;;;;;;;;;;;;;;;;;;;
"c1322662";"1995";;"Windows 8";"Rachel's Experiment (D.T.)";"1.0";"2";"1";"1";"2";"1";"1";"2014-09-28 16:46:11.640";"2014-09-28 17:00:26.605";"1";"1";"0";"71";"70";"module.training_block2.exec-9066.GoNoGo2";;;;;;;;;;;;;;;;;;;;;;;;;;;;;;;;;;;"1249";"2014-09-28 16:51:27.120";"NST_correctLoc";"10";"0";"FINISHED";"LEFT";"success";"629";"0";"2014-09-28 16:51:25.870";"2";;;;;;;;;;;;;;;;;;;;;;;;;;;;;;;;;;;;;;;;;;;;;
"c1322662";"1995";;"Windows 8";"Rachel's Experiment (D.T.)";"1.0";"2";"1";"1";"2";"1";"1";"2014-09-28 16:46:11.640";"2014-09-28 17:00:26.605";"1";"1";"0";"72";"71";"module.training_block2.exec-9066.GoNoGo2";;;;;;;;;;;;;;;;;;;;;;;;;;;;;;;;;;;"1249";"2014-09-28 16:51:29.668";"ST_correctStop";"31";"1";"FINISHED";"NONE";"success";"0";"1";"2014-09-28 16:51:28.418";"3";;;;;;;;;;;;;;;;;;;;;;;;;;;;;;;;;;;;;;;;;;;;;
"c1322662";"1995";;"Windows 8";"Rachel's Experiment (D.T.)";"1.0";"2";"1";"1";"2";"1";"1";"2014-09-28 16:46:11.640";"2014-09-28 17:00:26.605";"1";"1";"0";"73";"72";"module.training_block2.exec-9066.GoNoGo2";;;;;;;;;;;;;;;;;;;;;;;;;;;;;;;;;;;"1250";"2014-09-28 16:51:32.210";"NST_correctLoc";"9";"0";"FINISHED";"LEFT";"success";"610";"0";"2014-09-28 16:51:30.959";"2";;;;;;;;;;;;;;;;;;;;;;;;;;;;;;;;;;;;;;;;;;;;;
"c1322662";"1995";;"Windows 8";"Rachel's Experiment (D.T.)";"1.0";"2";"1";"1";"2";"1";"1";"2014-09-28 16:46:11.640";"2014-09-28 17:00:26.605";"1";"1";"0";"74";"73";"module.training_block2.exec-9066.GoNoGo2";;;;;;;;;;;;;;;;;;;;;;;;;;;;;;;;;;;"1249";"2014-09-28 16:51:34.754";"ST_correctStop";"28";"1";"FINISHED";"NONE";"success";"0";"1";"2014-09-28 16:51:33.504";"3";;;;;;;;;;;;;;;;;;;;;;;;;;;;;;;;;;;;;;;;;;;;;
"c1322662";"1995";;"Windows 8";"Rachel's Experiment (D.T.)";"1.0";"2";"1";"1";"2";"1";"1";"2014-09-28 16:46:11.640";"2014-09-28 17:00:26.605";"1";"1";"0";"75";"74";"module.training_block2.exec-9066.GoNoGo2";;;;;;;;;;;;;;;;;;;;;;;;;;;;;;;;;;;"1250";"2014-09-28 16:51:37.298";"ST_correctStop";"33";"0";"FINISHED";"NONE";"success";"0";"1";"2014-09-28 16:51:36.048";"3";;;;;;;;;;;;;;;;;;;;;;;;;;;;;;;;;;;;;;;;;;;;;
"c1322662";"1995";;"Windows 8";"Rachel's Experiment (D.T.)";"1.0";"2";"1";"1";"2";"1";"1";"2014-09-28 16:46:11.640";"2014-09-28 17:00:26.605";"1";"1";"0";"76";"75";"module.training_block2.exec-9066.GoNoGo2";;;;;;;;;;;;;;;;;;;;;;;;;;;;;;;;;;;"1250";"2014-09-28 16:51:39.839";"ST_correctStop";"1";"0";"FINISHED";"NONE";"success";"0";"1";"2014-09-28 16:51:38.589";"1";;;;;;;;;;;;;;;;;;;;;;;;;;;;;;;;;;;;;;;;;;;;;
"c1322662";"1995";;"Windows 8";"Rachel's Experiment (D.T.)";"1.0";"2";"1";"1";"2";"1";"1";"2014-09-28 16:46:11.640";"2014-09-28 17:00:26.605";"1";"1";"0";"77";"76";"module.training_block2.exec-9066.GoNoGo2";;;;;;;;;;;;;;;;;;;;;;;;;;;;;;;;;;;"1250";"2014-09-28 16:51:42.382";"ST_correctStop";"34";"0";"FINISHED";"NONE";"success";"0";"1";"2014-09-28 16:51:41.131";"3";;;;;;;;;;;;;;;;;;;;;;;;;;;;;;;;;;;;;;;;;;;;;
"c1322662";"1995";;"Windows 8";"Rachel's Experiment (D.T.)";"1.0";"2";"1";"1";"2";"1";"1";"2014-09-28 16:46:11.640";"2014-09-28 17:00:26.605";"1";"1";"0";"78";"77";"module.training_block2.exec-9066.GoNoGo2";;;;;;;;;;;;;;;;;;;;;;;;;;;;;;;;;;;"1250";"2014-09-28 16:51:44.927";"ST_correctStop";"20";"1";"FINISHED";"NONE";"success";"0";"1";"2014-09-28 16:51:43.676";"3";;;;;;;;;;;;;;;;;;;;;;;;;;;;;;;;;;;;;;;;;;;;;
"c1322662";"1995";;"Windows 8";"Rachel's Experiment (D.T.)";"1.0";"2";"1";"1";"2";"1";"1";"2014-09-28 16:46:11.640";"2014-09-28 17:00:26.605";"1";"1";"0";"79";"78";"module.training_block2.exec-9066.GoNoGo2";;;;;;;;;;;;;;;;;;;;;;;;;;;;;;;;;;;"1250";"2014-09-28 16:51:47.475";"NST_correctLoc";"17";"0";"FINISHED";"LEFT";"success";"733";"0";"2014-09-28 16:51:46.224";"2";;;;;;;;;;;;;;;;;;;;;;;;;;;;;;;;;;;;;;;;;;;;;
"c1322662";"1995";;"Windows 8";"Rachel's Experiment (D.T.)";"1.0";"2";"1";"1";"2";"1";"1";"2014-09-28 16:46:11.640";"2014-09-28 17:00:26.605";"1";"1";"0";"80";"79";"module.training_block2.exec-9066.GoNoGo2";;;;;;;;;;;;;;;;;;;;;;;;;;;;;;;;;;;"1250";"2014-09-28 16:51:50.016";"ST_correctStop";"4";"1";"FINISHED";"NONE";"success";"0";"1";"2014-09-28 16:51:48.765";"1";;;;;;;;;;;;;;;;;;;;;;;;;;;;;;;;;;;;;;;;;;;;;
"c1322662";"1995";;"Windows 8";"Rachel's Experiment (D.T.)";"1.0";"2";"1";"1";"2";"1";"1";"2014-09-28 16:46:11.640";"2014-09-28 17:00:26.605";"1";"1";"0";"81";"80";"module.training_block2.exec-9066.GoNoGo2";;;;;;;;;;;;;;;;;;;;;;;;;;;;;;;;;;;"1249";"2014-09-28 16:51:52.554";"NST_correctLoc";"21";"1";"FINISHED";"RIGHT";"success";"809";"0";"2014-09-28 16:51:51.304";"3";;;;;;;;;;;;;;;;;;;;;;;;;;;;;;;;;;;;;;;;;;;;;
"c1322662";"1995";;"Windows 8";"Rachel's Experiment (D.T.)";"1.0";"2";"1";"1";"2";"1";"1";"2014-09-28 16:46:11.640";"2014-09-28 17:00:26.605";"1";"1";"0";"82";"81";"module.training_block2.exec-9066.GoNoGo2";;;;;;;;;;;;;;;;;;;;;;;;;;;;;;;;;;;"1250";"2014-09-28 16:51:55.093";"NST_correctLoc";"15";"1";"FINISHED";"RIGHT";"success";"685";"0";"2014-09-28 16:51:53.843";"2";;;;;;;;;;;;;;;;;;;;;;;;;;;;;;;;;;;;;;;;;;;;;
"c1322662";"1995";;"Windows 8";"Rachel's Experiment (D.T.)";"1.0";"2";"1";"1";"2";"1";"1";"2014-09-28 16:46:11.640";"2014-09-28 17:00:26.605";"1";"1";"0";"83";"82";"module.training_block2.exec-9066.GoNoGo2";;;;;;;;;;;;;;;;;;;;;;;;;;;;;;;;;;;"1250";"2014-09-28 16:51:57.631";"NST_correctLoc";"12";"1";"FINISHED";"RIGHT";"success";"751";"0";"2014-09-28 16:51:56.381";"2";;;;;;;;;;;;;;;;;;;;;;;;;;;;;;;;;;;;;;;;;;;;;
"c1322662";"1995";;"Windows 8";"Rachel's Experiment (D.T.)";"1.0";"2";"1";"1";"2";"1";"1";"2014-09-28 16:46:11.640";"2014-09-28 17:00:26.605";"1";"1";"0";"84";"83";"module.training_block2.exec-9066.GoNoGo2";;;;;;;;;;;;;;;;;;;;;;;;;;;;;;;;;;;"1250";"2014-09-28 16:52:00.170";"NST_correctLoc";"18";"1";"FINISHED";"RIGHT";"success";"708";"0";"2014-09-28 16:51:58.918";"3";;;;;;;;;;;;;;;;;;;;;;;;;;;;;;;;;;;;;;;;;;;;;
"c1322662";"1995";;"Windows 8";"Rachel's Experiment (D.T.)";"1.0";"2";"1";"1";"2";"1";"1";"2014-09-28 16:46:11.640";"2014-09-28 17:00:26.605";"1";"1";"0";"85";"84";"module.training_block2.exec-9066.GoNoGo2";;;;;;;;;;;;;;;;;;;;;;;;;;;;;;;;;;;"1249";"2014-09-28 16:52:02.717";"NST_correctLoc";"29";"0";"FINISHED";"LEFT";"success";"744";"0";"2014-09-28 16:52:01.467";"3";;;;;;;;;;;;;;;;;;;;;;;;;;;;;;;;;;;;;;;;;;;;;
"c1322662";"1995";;"Windows 8";"Rachel's Experiment (D.T.)";"1.0";"2";"1";"1";"2";"1";"1";"2014-09-28 16:46:11.640";"2014-09-28 17:00:26.605";"1";"1";"0";"86";"85";"module.training_block2.exec-9066.GoNoGo2";;;;;;;;;;;;;;;;;;;;;;;;;;;;;;;;;;;"1250";"2014-09-28 16:52:05.257";"NST_correctLoc";"30";"0";"FINISHED";"LEFT";"success";"705";"0";"2014-09-28 16:52:04.006";"3";;;;;;;;;;;;;;;;;;;;;;;;;;;;;;;;;;;;;;;;;;;;;
"c1322662";"1995";;"Windows 8";"Rachel's Experiment (D.T.)";"1.0";"2";"1";"1";"2";"1";"1";"2014-09-28 16:46:11.640";"2014-09-28 17:00:26.605";"1";"1";"0";"87";"86";"module.training_block2.exec-9066.GoNoGo2";;;;;;;;;;;;;;;;;;;;;;;;;;;;;;;;;;;"1250";"2014-09-28 16:52:07.797";"ST_failedStop";"22";"0";"FINISHED";"LEFT";"failure";"596";"1";"2014-09-28 16:52:06.546";"3";;;;;;;;;;;;;;;;;;;;;;;;;;;;;;;;;;;;;;;;;;;;;
"c1322662";"1995";;"Windows 8";"Rachel's Experiment (D.T.)";"1.0";"2";"1";"1";"2";"1";"1";"2014-09-28 16:46:11.640";"2014-09-28 17:00:26.605";"1";"1";"0";"88";"87";"module.training_block3.exec-1690.GoNoGo3";;;;;;;;;;;;;;;;;;;;;;;;;;;;;;;;;;;;;;;;;;;;;;;"1249";"2014-09-28 16:52:18.422";"ST_correctStop";"7";"1";"FINISHED";"NONE";"success";"0";"1";"2014-09-28 16:52:17.172";"1";;;;;;;;;;;;;;;;;;;;;;;;;;;;;;;;;
"c1322662";"1995";;"Windows 8";"Rachel's Experiment (D.T.)";"1.0";"2";"1";"1";"2";"1";"1";"2014-09-28 16:46:11.640";"2014-09-28 17:00:26.605";"1";"1";"0";"89";"88";"module.training_block3.exec-1690.GoNoGo3";;;;;;;;;;;;;;;;;;;;;;;;;;;;;;;;;;;;;;;;;;;;;;;"1250";"2014-09-28 16:52:20.965";"ST_correctStop";"27";"0";"FINISHED";"NONE";"success";"0";"1";"2014-09-28 16:52:19.714";"3";;;;;;;;;;;;;;;;;;;;;;;;;;;;;;;;;
"c1322662";"1995";;"Windows 8";"Rachel's Experiment (D.T.)";"1.0";"2";"1";"1";"2";"1";"1";"2014-09-28 16:46:11.640";"2014-09-28 17:00:26.605";"1";"1";"0";"90";"89";"module.training_block3.exec-1690.GoNoGo3";;;;;;;;;;;;;;;;;;;;;;;;;;;;;;;;;;;;;;;;;;;;;;;"1250";"2014-09-28 16:52:23.506";"NST_correctLoc";"33";"1";"FINISHED";"RIGHT";"success";"572";"0";"2014-09-28 16:52:22.255";"3";;;;;;;;;;;;;;;;;;;;;;;;;;;;;;;;;
"c1322662";"1995";;"Windows 8";"Rachel's Experiment (D.T.)";"1.0";"2";"1";"1";"2";"1";"1";"2014-09-28 16:46:11.640";"2014-09-28 17:00:26.605";"1";"1";"0";"91";"90";"module.training_block3.exec-1690.GoNoGo3";;;;;;;;;;;;;;;;;;;;;;;;;;;;;;;;;;;;;;;;;;;;;;;"1250";"2014-09-28 16:52:26.043";"ST_correctStop";"8";"0";"FINISHED";"NONE";"success";"0";"1";"2014-09-28 16:52:24.793";"1";;;;;;;;;;;;;;;;;;;;;;;;;;;;;;;;;
"c1322662";"1995";;"Windows 8";"Rachel's Experiment (D.T.)";"1.0";"2";"1";"1";"2";"1";"1";"2014-09-28 16:46:11.640";"2014-09-28 17:00:26.605";"1";"1";"0";"92";"91";"module.training_block3.exec-1690.GoNoGo3";;;;;;;;;;;;;;;;;;;;;;;;;;;;;;;;;;;;;;;;;;;;;;;"1249";"2014-09-28 16:52:28.585";"NST_correctLoc";"20";"0";"FINISHED";"LEFT";"success";"730";"0";"2014-09-28 16:52:27.335";"3";;;;;;;;;;;;;;;;;;;;;;;;;;;;;;;;;
"c1322662";"1995";;"Windows 8";"Rachel's Experiment (D.T.)";"1.0";"2";"1";"1";"2";"1";"1";"2014-09-28 16:46:11.640";"2014-09-28 17:00:26.605";"1";"1";"0";"93";"92";"module.training_block3.exec-1690.GoNoGo3";;;;;;;;;;;;;;;;;;;;;;;;;;;;;;;;;;;;;;;;;;;;;;;"1250";"2014-09-28 16:52:31.128";"ST_correctStop";"24";"1";"FINISHED";"NONE";"success";"0";"1";"2014-09-28 16:52:29.878";"3";;;;;;;;;;;;;;;;;;;;;;;;;;;;;;;;;
"c1322662";"1995";;"Windows 8";"Rachel's Experiment (D.T.)";"1.0";"2";"1";"1";"2";"1";"1";"2014-09-28 16:46:11.640";"2014-09-28 17:00:26.605";"1";"1";"0";"94";"93";"module.training_block3.exec-1690.GoNoGo3";;;;;;;;;;;;;;;;;;;;;;;;;;;;;;;;;;;;;;;;;;;;;;;"1250";"2014-09-28 16:52:33.665";"ST_correctStop";"35";"0";"FINISHED";"NONE";"success";"0";"1";"2014-09-28 16:52:32.415";"3";;;;;;;;;;;;;;;;;;;;;;;;;;;;;;;;;
"c1322662";"1995";;"Windows 8";"Rachel's Experiment (D.T.)";"1.0";"2";"1";"1";"2";"1";"1";"2014-09-28 16:46:11.640";"2014-09-28 17:00:26.605";"1";"1";"0";"95";"94";"module.training_block3.exec-1690.GoNoGo3";;;;;;;;;;;;;;;;;;;;;;;;;;;;;;;;;;;;;;;;;;;;;;;"1250";"2014-09-28 16:52:36.204";"ST_correctStop";"5";"1";"FINISHED";"NONE";"success";"0";"1";"2014-09-28 16:52:34.953";"1";;;;;;;;;;;;;;;;;;;;;;;;;;;;;;;;;
"c1322662";"1995";;"Windows 8";"Rachel's Experiment (D.T.)";"1.0";"2";"1";"1";"2";"1";"1";"2014-09-28 16:46:11.640";"2014-09-28 17:00:26.605";"1";"1";"0";"96";"95";"module.training_block3.exec-1690.GoNoGo3";;;;;;;;;;;;;;;;;;;;;;;;;;;;;;;;;;;;;;;;;;;;;;;"1250";"2014-09-28 16:52:38.748";"ST_correctStop";"32";"1";"FINISHED";"NONE";"success";"0";"1";"2014-09-28 16:52:37.498";"3";;;;;;;;;;;;;;;;;;;;;;;;;;;;;;;;;
"c1322662";"1995";;"Windows 8";"Rachel's Experiment (D.T.)";"1.0";"2";"1";"1";"2";"1";"1";"2014-09-28 16:46:11.640";"2014-09-28 17:00:26.605";"1";"1";"0";"97";"96";"module.training_block3.exec-1690.GoNoGo3";;;;;;;;;;;;;;;;;;;;;;;;;;;;;;;;;;;;;;;;;;;;;;;"1251";"2014-09-28 16:52:41.287";"ST_correctStop";"30";"0";"FINISHED";"NONE";"success";"0";"1";"2014-09-28 16:52:40.035";"3";;;;;;;;;;;;;;;;;;;;;;;;;;;;;;;;;
"c1322662";"1995";;"Windows 8";"Rachel's Experiment (D.T.)";"1.0";"2";"1";"1";"2";"1";"1";"2014-09-28 16:46:11.640";"2014-09-28 17:00:26.605";"1";"1";"0";"98";"97";"module.training_block3.exec-1690.GoNoGo3";;;;;;;;;;;;;;;;;;;;;;;;;;;;;;;;;;;;;;;;;;;;;;;"1250";"2014-09-28 16:52:43.824";"NST_correctLoc";"18";"1";"FINISHED";"RIGHT";"success";"542";"0";"2014-09-28 16:52:42.573";"3";;;;;;;;;;;;;;;;;;;;;;;;;;;;;;;;;
"c1322662";"1995";;"Windows 8";"Rachel's Experiment (D.T.)";"1.0";"2";"1";"1";"2";"1";"1";"2014-09-28 16:46:11.640";"2014-09-28 17:00:26.605";"1";"1";"0";"99";"98";"module.training_block3.exec-1690.GoNoGo3";;;;;;;;;;;;;;;;;;;;;;;;;;;;;;;;;;;;;;;;;;;;;;;"1249";"2014-09-28 16:52:46.364";"ST_correctStop";"0";"0";"FINISHED";"NONE";"success";"0";"1";"2014-09-28 16:52:45.113";"1";;;;;;;;;;;;;;;;;;;;;;;;;;;;;;;;;
"c1322662";"1995";;"Windows 8";"Rachel's Experiment (D.T.)";"1.0";"2";"1";"1";"2";"1";"1";"2014-09-28 16:46:11.640";"2014-09-28 17:00:26.605";"1";"1";"0";"100";"99";"module.training_block3.exec-1690.GoNoGo3";;;;;;;;;;;;;;;;;;;;;;;;;;;;;;;;;;;;;;;;;;;;;;;"1249";"2014-09-28 16:52:48.900";"NST_correctLoc";"16";"0";"FINISHED";"LEFT";"success";"972";"0";"2014-09-28 16:52:47.650";"2";;;;;;;;;;;;;;;;;;;;;;;;;;;;;;;;;
"c1322662";"1995";;"Windows 8";"Rachel's Experiment (D.T.)";"1.0";"2";"1";"1";"2";"1";"1";"2014-09-28 16:46:11.640";"2014-09-28 17:00:26.605";"1";"1";"0";"101";"100";"module.training_block3.exec-1690.GoNoGo3";;;;;;;;;;;;;;;;;;;;;;;;;;;;;;;;;;;;;;;;;;;;;;;"1250";"2014-09-28 16:52:51.439";"NST_miss";"17";"0";"FINISHED";"NONE";"failure";"0";"0";"2014-09-28 16:52:50.189";"2";;;;;;;;;;;;;;;;;;;;;;;;;;;;;;;;;
"c1322662";"1995";;"Windows 8";"Rachel's Experiment (D.T.)";"1.0";"2";"1";"1";"2";"1";"1";"2014-09-28 16:46:11.640";"2014-09-28 17:00:26.605";"1";"1";"0";"102";"101";"module.training_block3.exec-1690.GoNoGo3";;;;;;;;;;;;;;;;;;;;;;;;;;;;;;;;;;;;;;;;;;;;;;;"1250";"2014-09-28 16:52:53.975";"ST_correctStop";"22";"1";"FINISHED";"NONE";"success";"0";"1";"2014-09-28 16:52:52.725";"3";;;;;;;;;;;;;;;;;;;;;;;;;;;;;;;;;
"c1322662";"1995";;"Windows 8";"Rachel's Experiment (D.T.)";"1.0";"2";"1";"1";"2";"1";"1";"2014-09-28 16:46:11.640";"2014-09-28 17:00:26.605";"1";"1";"0";"103";"102";"module.training_block3.exec-1690.GoNoGo3";;;;;;;;;;;;;;;;;;;;;;;;;;;;;;;;;;;;;;;;;;;;;;;"1249";"2014-09-28 16:52:56.520";"ST_correctStop";"2";"0";"FINISHED";"NONE";"success";"0";"1";"2014-09-28 16:52:55.270";"1";;;;;;;;;;;;;;;;;;;;;;;;;;;;;;;;;
"c1322662";"1995";;"Windows 8";"Rachel's Experiment (D.T.)";"1.0";"2";"1";"1";"2";"1";"1";"2014-09-28 16:46:11.640";"2014-09-28 17:00:26.605";"1";"1";"0";"104";"103";"module.training_block3.exec-1690.GoNoGo3";;;;;;;;;;;;;;;;;;;;;;;;;;;;;;;;;;;;;;;;;;;;;;;"1249";"2014-09-28 16:52:59.057";"NST_correctLoc";"11";"0";"FINISHED";"LEFT";"success";"547";"0";"2014-09-28 16:52:57.806";"2";;;;;;;;;;;;;;;;;;;;;;;;;;;;;;;;;
"c1322662";"1995";;"Windows 8";"Rachel's Experiment (D.T.)";"1.0";"2";"1";"1";"2";"1";"1";"2014-09-28 16:46:11.640";"2014-09-28 17:00:26.605";"1";"1";"0";"105";"104";"module.training_block3.exec-1690.GoNoGo3";;;;;;;;;;;;;;;;;;;;;;;;;;;;;;;;;;;;;;;;;;;;;;;"1249";"2014-09-28 16:53:01.595";"ST_correctStop";"1";"1";"FINISHED";"NONE";"success";"0";"1";"2014-09-28 16:53:00.344";"1";;;;;;;;;;;;;;;;;;;;;;;;;;;;;;;;;
"c1322662";"1995";;"Windows 8";"Rachel's Experiment (D.T.)";"1.0";"2";"1";"1";"2";"1";"1";"2014-09-28 16:46:11.640";"2014-09-28 17:00:26.605";"1";"1";"0";"106";"105";"module.training_block3.exec-1690.GoNoGo3";;;;;;;;;;;;;;;;;;;;;;;;;;;;;;;;;;;;;;;;;;;;;;;"1249";"2014-09-28 16:53:04.137";"NST_correctLoc";"12";"1";"FINISHED";"RIGHT";"success";"670";"0";"2014-09-28 16:53:02.887";"2";;;;;;;;;;;;;;;;;;;;;;;;;;;;;;;;;
"c1322662";"1995";;"Windows 8";"Rachel's Experiment (D.T.)";"1.0";"2";"1";"1";"2";"1";"1";"2014-09-28 16:46:11.640";"2014-09-28 17:00:26.605";"1";"1";"0";"107";"106";"module.training_block3.exec-1690.GoNoGo3";;;;;;;;;;;;;;;;;;;;;;;;;;;;;;;;;;;;;;;;;;;;;;;"1250";"2014-09-28 16:53:06.675";"NST_correctLoc";"23";"0";"FINISHED";"LEFT";"success";"701";"0";"2014-09-28 16:53:05.425";"3";;;;;;;;;;;;;;;;;;;;;;;;;;;;;;;;;
"c1322662";"1995";;"Windows 8";"Rachel's Experiment (D.T.)";"1.0";"2";"1";"1";"2";"1";"1";"2014-09-28 16:46:11.640";"2014-09-28 17:00:26.605";"1";"1";"0";"108";"107";"module.training_block3.exec-1690.GoNoGo3";;;;;;;;;;;;;;;;;;;;;;;;;;;;;;;;;;;;;;;;;;;;;;;"1250";"2014-09-28 16:53:09.214";"NST_correctLoc";"29";"1";"FINISHED";"RIGHT";"success";"580";"0";"2014-09-28 16:53:07.964";"3";;;;;;;;;;;;;;;;;;;;;;;;;;;;;;;;;
"c1322662";"1995";;"Windows 8";"Rachel's Experiment (D.T.)";"1.0";"2";"1";"1";"2";"1";"1";"2014-09-28 16:46:11.640";"2014-09-28 17:00:26.605";"1";"1";"0";"109";"108";"module.training_block3.exec-1690.GoNoGo3";;;;;;;;;;;;;;;;;;;;;;;;;;;;;;;;;;;;;;;;;;;;;;;"1250";"2014-09-28 16:53:11.754";"NST_correctLoc";"26";"0";"FINISHED";"LEFT";"success";"631";"0";"2014-09-28 16:53:10.503";"3";;;;;;;;;;;;;;;;;;;;;;;;;;;;;;;;;
"c1322662";"1995";;"Windows 8";"Rachel's Experiment (D.T.)";"1.0";"2";"1";"1";"2";"1";"1";"2014-09-28 16:46:11.640";"2014-09-28 17:00:26.605";"1";"1";"0";"110";"109";"module.training_block3.exec-1690.GoNoGo3";;;;;;;;;;;;;;;;;;;;;;;;;;;;;;;;;;;;;;;;;;;;;;;"1249";"2014-09-28 16:53:14.296";"ST_correctStop";"28";"0";"FINISHED";"NONE";"success";"0";"1";"2014-09-28 16:53:13.046";"3";;;;;;;;;;;;;;;;;;;;;;;;;;;;;;;;;
"c1322662";"1995";;"Windows 8";"Rachel's Experiment (D.T.)";"1.0";"2";"1";"1";"2";"1";"1";"2014-09-28 16:46:11.640";"2014-09-28 17:00:26.605";"1";"1";"0";"111";"110";"module.training_block3.exec-1690.GoNoGo3";;;;;;;;;;;;;;;;;;;;;;;;;;;;;;;;;;;;;;;;;;;;;;;"1249";"2014-09-28 16:53:16.833";"ST_correctStop";"25";"0";"FINISHED";"NONE";"success";"0";"1";"2014-09-28 16:53:15.583";"3";;;;;;;;;;;;;;;;;;;;;;;;;;;;;;;;;
"c1322662";"1995";;"Windows 8";"Rachel's Experiment (D.T.)";"1.0";"2";"1";"1";"2";"1";"1";"2014-09-28 16:46:11.640";"2014-09-28 17:00:26.605";"1";"1";"0";"112";"111";"module.training_block3.exec-1690.GoNoGo3";;;;;;;;;;;;;;;;;;;;;;;;;;;;;;;;;;;;;;;;;;;;;;;"1250";"2014-09-28 16:53:19.371";"NST_correctLoc";"9";"1";"FINISHED";"RIGHT";"success";"736";"0";"2014-09-28 16:53:18.120";"2";;;;;;;;;;;;;;;;;;;;;;;;;;;;;;;;;
"c1322662";"1995";;"Windows 8";"Rachel's Experiment (D.T.)";"1.0";"2";"1";"1";"2";"1";"1";"2014-09-28 16:46:11.640";"2014-09-28 17:00:26.605";"1";"1";"0";"113";"112";"module.training_block3.exec-1690.GoNoGo3";;;;;;;;;;;;;;;;;;;;;;;;;;;;;;;;;;;;;;;;;;;;;;;"1249";"2014-09-28 16:53:21.912";"ST_correctStop";"3";"1";"FINISHED";"NONE";"success";"0";"1";"2014-09-28 16:53:20.662";"1";;;;;;;;;;;;;;;;;;;;;;;;;;;;;;;;;
"c1322662";"1995";;"Windows 8";"Rachel's Experiment (D.T.)";"1.0";"2";"1";"1";"2";"1";"1";"2014-09-28 16:46:11.640";"2014-09-28 17:00:26.605";"1";"1";"0";"114";"113";"module.training_block3.exec-1690.GoNoGo3";;;;;;;;;;;;;;;;;;;;;;;;;;;;;;;;;;;;;;;;;;;;;;;"1250";"2014-09-28 16:53:24.449";"ST_correctStop";"4";"1";"FINISHED";"NONE";"success";"0";"1";"2014-09-28 16:53:23.198";"1";;;;;;;;;;;;;;;;;;;;;;;;;;;;;;;;;
"c1322662";"1995";;"Windows 8";"Rachel's Experiment (D.T.)";"1.0";"2";"1";"1";"2";"1";"1";"2014-09-28 16:46:11.640";"2014-09-28 17:00:26.605";"1";"1";"0";"115";"114";"module.training_block3.exec-1690.GoNoGo3";;;;;;;;;;;;;;;;;;;;;;;;;;;;;;;;;;;;;;;;;;;;;;;"1250";"2014-09-28 16:53:26.986";"ST_correctStop";"31";"1";"FINISHED";"NONE";"success";"0";"1";"2014-09-28 16:53:25.734";"3";;;;;;;;;;;;;;;;;;;;;;;;;;;;;;;;;
"c1322662";"1995";;"Windows 8";"Rachel's Experiment (D.T.)";"1.0";"2";"1";"1";"2";"1";"1";"2014-09-28 16:46:11.640";"2014-09-28 17:00:26.605";"1";"1";"0";"116";"115";"module.training_block3.exec-1690.GoNoGo3";;;;;;;;;;;;;;;;;;;;;;;;;;;;;;;;;;;;;;;;;;;;;;;"1250";"2014-09-28 16:53:29.521";"NST_correctLoc";"10";"1";"FINISHED";"RIGHT";"success";"740";"0";"2014-09-28 16:53:28.271";"2";;;;;;;;;;;;;;;;;;;;;;;;;;;;;;;;;
"c1322662";"1995";;"Windows 8";"Rachel's Experiment (D.T.)";"1.0";"2";"1";"1";"2";"1";"1";"2014-09-28 16:46:11.640";"2014-09-28 17:00:26.605";"1";"1";"0";"117";"116";"module.training_block3.exec-1690.GoNoGo3";;;;;;;;;;;;;;;;;;;;;;;;;;;;;;;;;;;;;;;;;;;;;;;"1250";"2014-09-28 16:53:32.068";"NST_correctLoc";"13";"0";"FINISHED";"LEFT";"success";"612";"0";"2014-09-28 16:53:30.817";"2";;;;;;;;;;;;;;;;;;;;;;;;;;;;;;;;;
"c1322662";"1995";;"Windows 8";"Rachel's Experiment (D.T.)";"1.0";"2";"1";"1";"2";"1";"1";"2014-09-28 16:46:11.640";"2014-09-28 17:00:26.605";"1";"1";"0";"118";"117";"module.training_block3.exec-1690.GoNoGo3";;;;;;;;;;;;;;;;;;;;;;;;;;;;;;;;;;;;;;;;;;;;;;;"1250";"2014-09-28 16:53:34.604";"NST_correctLoc";"21";"0";"FINISHED";"LEFT";"success";"697";"0";"2014-09-28 16:53:33.353";"3";;;;;;;;;;;;;;;;;;;;;;;;;;;;;;;;;
"c1322662";"1995";;"Windows 8";"Rachel's Experiment (D.T.)";"1.0";"2";"1";"1";"2";"1";"1";"2014-09-28 16:46:11.640";"2014-09-28 17:00:26.605";"1";"1";"0";"119";"118";"module.training_block3.exec-1690.GoNoGo3";;;;;;;;;;;;;;;;;;;;;;;;;;;;;;;;;;;;;;;;;;;;;;;"1250";"2014-09-28 16:53:37.141";"NST_correctLoc";"34";"1";"FINISHED";"RIGHT";"success";"744";"0";"2014-09-28 16:53:35.890";"3";;;;;;;;;;;;;;;;;;;;;;;;;;;;;;;;;
"c1322662";"1995";;"Windows 8";"Rachel's Experiment (D.T.)";"1.0";"2";"1";"1";"2";"1";"1";"2014-09-28 16:46:11.640";"2014-09-28 17:00:26.605";"1";"1";"0";"120";"119";"module.training_block3.exec-1690.GoNoGo3";;;;;;;;;;;;;;;;;;;;;;;;;;;;;;;;;;;;;;;;;;;;;;;"1249";"2014-09-28 16:53:39.682";"NST_correctLoc";"14";"0";"FINISHED";"LEFT";"success";"631";"0";"2014-09-28 16:53:38.432";"2";;;;;;;;;;;;;;;;;;;;;;;;;;;;;;;;;
"c1322662";"1995";;"Windows 8";"Rachel's Experiment (D.T.)";"1.0";"2";"1";"1";"2";"1";"1";"2014-09-28 16:46:11.640";"2014-09-28 17:00:26.605";"1";"1";"0";"121";"120";"module.training_block3.exec-1690.GoNoGo3";;;;;;;;;;;;;;;;;;;;;;;;;;;;;;;;;;;;;;;;;;;;;;;"1249";"2014-09-28 16:53:42.216";"NST_correctLoc";"15";"1";"FINISHED";"RIGHT";"success";"660";"0";"2014-09-28 16:53:40.966";"2";;;;;;;;;;;;;;;;;;;;;;;;;;;;;;;;;
"c1322662";"1995";;"Windows 8";"Rachel's Experiment (D.T.)";"1.0";"2";"1";"1";"2";"1";"1";"2014-09-28 16:46:11.640";"2014-09-28 17:00:26.605";"1";"1";"0";"122";"121";"module.training_block3.exec-1690.GoNoGo3";;;;;;;;;;;;;;;;;;;;;;;;;;;;;;;;;;;;;;;;;;;;;;;"1250";"2014-09-28 16:53:44.756";"NST_correctLoc";"19";"0";"FINISHED";"LEFT";"success";"698";"0";"2014-09-28 16:53:43.506";"3";;;;;;;;;;;;;;;;;;;;;;;;;;;;;;;;;
"c1322662";"1995";;"Windows 8";"Rachel's Experiment (D.T.)";"1.0";"2";"1";"1";"2";"1";"1";"2014-09-28 16:46:11.640";"2014-09-28 17:00:26.605";"1";"1";"0";"123";"122";"module.training_block3.exec-1690.GoNoGo3";;;;;;;;;;;;;;;;;;;;;;;;;;;;;;;;;;;;;;;;;;;;;;;"1249";"2014-09-28 16:53:47.292";"ST_correctStop";"6";"1";"FINISHED";"NONE";"success";"0";"1";"2014-09-28 16:53:46.041";"1";;;;;;;;;;;;;;;;;;;;;;;;;;;;;;;;;
"c1322662";"1995";;"Windows 8";"Rachel's Experiment (D.T.)";"1.0";"2";"1";"1";"2";"1";"1";"2014-09-28 16:46:11.640";"2014-09-28 17:00:26.605";"1";"1";"0";"124";"123";"module.training_block4.exec-2994.GoNoGo4";;;;;;;;;;;;;;;;;;;;;;;;;;;;;;;;;;;;;;;;;;;;;;;;;;;;;;;;;;;"1250";"2014-09-28 16:53:58.463";"NST_correctLoc";"13";"0";"FINISHED";"LEFT";"success";"687";"0";"2014-09-28 16:53:57.212";"2";;;;;;;;;;;;;;;;;;;;;
"c1322662";"1995";;"Windows 8";"Rachel's Experiment (D.T.)";"1.0";"2";"1";"1";"2";"1";"1";"2014-09-28 16:46:11.640";"2014-09-28 17:00:26.605";"1";"1";"0";"125";"124";"module.training_block4.exec-2994.GoNoGo4";;;;;;;;;;;;;;;;;;;;;;;;;;;;;;;;;;;;;;;;;;;;;;;;;;;;;;;;;;;"1250";"2014-09-28 16:54:00.999";"NST_correctLoc";"21";"0";"FINISHED";"LEFT";"success";"721";"0";"2014-09-28 16:53:59.748";"3";;;;;;;;;;;;;;;;;;;;;
"c1322662";"1995";;"Windows 8";"Rachel's Experiment (D.T.)";"1.0";"2";"1";"1";"2";"1";"1";"2014-09-28 16:46:11.640";"2014-09-28 17:00:26.605";"1";"1";"0";"126";"125";"module.training_block4.exec-2994.GoNoGo4";;;;;;;;;;;;;;;;;;;;;;;;;;;;;;;;;;;;;;;;;;;;;;;;;;;;;;;;;;;"1250";"2014-09-28 16:54:03.535";"NST_correctLoc";"27";"1";"FINISHED";"RIGHT";"success";"672";"0";"2014-09-28 16:54:02.284";"3";;;;;;;;;;;;;;;;;;;;;
"c1322662";"1995";;"Windows 8";"Rachel's Experiment (D.T.)";"1.0";"2";"1";"1";"2";"1";"1";"2014-09-28 16:46:11.640";"2014-09-28 17:00:26.605";"1";"1";"0";"127";"126";"module.training_block4.exec-2994.GoNoGo4";;;;;;;;;;;;;;;;;;;;;;;;;;;;;;;;;;;;;;;;;;;;;;;;;;;;;;;;;;;"1250";"2014-09-28 16:54:06.075";"NST_correctLoc";"18";"1";"FINISHED";"RIGHT";"success";"682";"0";"2014-09-28 16:54:04.824";"3";;;;;;;;;;;;;;;;;;;;;
"c1322662";"1995";;"Windows 8";"Rachel's Experiment (D.T.)";"1.0";"2";"1";"1";"2";"1";"1";"2014-09-28 16:46:11.640";"2014-09-28 17:00:26.605";"1";"1";"0";"128";"127";"module.training_block4.exec-2994.GoNoGo4";;;;;;;;;;;;;;;;;;;;;;;;;;;;;;;;;;;;;;;;;;;;;;;;;;;;;;;;;;;"1249";"2014-09-28 16:54:08.616";"ST_correctStop";"2";"0";"FINISHED";"NONE";"success";"0";"1";"2014-09-28 16:54:07.366";"1";;;;;;;;;;;;;;;;;;;;;
"c1322662";"1995";;"Windows 8";"Rachel's Experiment (D.T.)";"1.0";"2";"1";"1";"2";"1";"1";"2014-09-28 16:46:11.640";"2014-09-28 17:00:26.605";"1";"1";"0";"129";"128";"module.training_block4.exec-2994.GoNoGo4";;;;;;;;;;;;;;;;;;;;;;;;;;;;;;;;;;;;;;;;;;;;;;;;;;;;;;;;;;;"1249";"2014-09-28 16:54:11.151";"NST_correctLoc";"34";"1";"FINISHED";"RIGHT";"success";"633";"0";"2014-09-28 16:54:09.900";"3";;;;;;;;;;;;;;;;;;;;;
"c1322662";"1995";;"Windows 8";"Rachel's Experiment (D.T.)";"1.0";"2";"1";"1";"2";"1";"1";"2014-09-28 16:46:11.640";"2014-09-28 17:00:26.605";"1";"1";"0";"130";"129";"module.training_block4.exec-2994.GoNoGo4";;;;;;;;;;;;;;;;;;;;;;;;;;;;;;;;;;;;;;;;;;;;;;;;;;;;;;;;;;;"1249";"2014-09-28 16:54:13.688";"ST_correctStop";"5";"0";"FINISHED";"NONE";"success";"0";"1";"2014-09-28 16:54:12.438";"1";;;;;;;;;;;;;;;;;;;;;
"c1322662";"1995";;"Windows 8";"Rachel's Experiment (D.T.)";"1.0";"2";"1";"1";"2";"1";"1";"2014-09-28 16:46:11.640";"2014-09-28 17:00:26.605";"1";"1";"0";"131";"130";"module.training_block4.exec-2994.GoNoGo4";;;;;;;;;;;;;;;;;;;;;;;;;;;;;;;;;;;;;;;;;;;;;;;;;;;;;;;;;;;"1249";"2014-09-28 16:54:16.234";"ST_correctStop";"23";"0";"FINISHED";"NONE";"success";"0";"1";"2014-09-28 16:54:14.984";"3";;;;;;;;;;;;;;;;;;;;;
"c1322662";"1995";;"Windows 8";"Rachel's Experiment (D.T.)";"1.0";"2";"1";"1";"2";"1";"1";"2014-09-28 16:46:11.640";"2014-09-28 17:00:26.605";"1";"1";"0";"132";"131";"module.training_block4.exec-2994.GoNoGo4";;;;;;;;;;;;;;;;;;;;;;;;;;;;;;;;;;;;;;;;;;;;;;;;;;;;;;;;;;;"1249";"2014-09-28 16:54:18.770";"NST_correctLoc";"11";"0";"FINISHED";"LEFT";"success";"641";"0";"2014-09-28 16:54:17.519";"2";;;;;;;;;;;;;;;;;;;;;
"c1322662";"1995";;"Windows 8";"Rachel's Experiment (D.T.)";"1.0";"2";"1";"1";"2";"1";"1";"2014-09-28 16:46:11.640";"2014-09-28 17:00:26.605";"1";"1";"0";"133";"132";"module.training_block4.exec-2994.GoNoGo4";;;;;;;;;;;;;;;;;;;;;;;;;;;;;;;;;;;;;;;;;;;;;;;;;;;;;;;;;;;"1250";"2014-09-28 16:54:21.304";"NST_correctLoc";"10";"1";"FINISHED";"RIGHT";"success";"645";"0";"2014-09-28 16:54:20.053";"2";;;;;;;;;;;;;;;;;;;;;
"c1322662";"1995";;"Windows 8";"Rachel's Experiment (D.T.)";"1.0";"2";"1";"1";"2";"1";"1";"2014-09-28 16:46:11.640";"2014-09-28 17:00:26.605";"1";"1";"0";"134";"133";"module.training_block4.exec-2994.GoNoGo4";;;;;;;;;;;;;;;;;;;;;;;;;;;;;;;;;;;;;;;;;;;;;;;;;;;;;;;;;;;"1250";"2014-09-28 16:54:23.846";"ST_correctStop";"25";"1";"FINISHED";"NONE";"success";"0";"1";"2014-09-28 16:54:22.596";"3";;;;;;;;;;;;;;;;;;;;;
"c1322662";"1995";;"Windows 8";"Rachel's Experiment (D.T.)";"1.0";"2";"1";"1";"2";"1";"1";"2014-09-28 16:46:11.640";"2014-09-28 17:00:26.605";"1";"1";"0";"135";"134";"module.training_block4.exec-2994.GoNoGo4";;;;;;;;;;;;;;;;;;;;;;;;;;;;;;;;;;;;;;;;;;;;;;;;;;;;;;;;;;;"1250";"2014-09-28 16:54:26.391";"NST_correctLoc";"33";"1";"FINISHED";"RIGHT";"success";"729";"0";"2014-09-28 16:54:25.140";"3";;;;;;;;;;;;;;;;;;;;;
"c1322662";"1995";;"Windows 8";"Rachel's Experiment (D.T.)";"1.0";"2";"1";"1";"2";"1";"1";"2014-09-28 16:46:11.640";"2014-09-28 17:00:26.605";"1";"1";"0";"136";"135";"module.training_block4.exec-2994.GoNoGo4";;;;;;;;;;;;;;;;;;;;;;;;;;;;;;;;;;;;;;;;;;;;;;;;;;;;;;;;;;;"1250";"2014-09-28 16:54:28.926";"NST_correctLoc";"15";"1";"FINISHED";"RIGHT";"success";"631";"0";"2014-09-28 16:54:27.675";"2";;;;;;;;;;;;;;;;;;;;;
"c1322662";"1995";;"Windows 8";"Rachel's Experiment (D.T.)";"1.0";"2";"1";"1";"2";"1";"1";"2014-09-28 16:46:11.640";"2014-09-28 17:00:26.605";"1";"1";"0";"137";"136";"module.training_block4.exec-2994.GoNoGo4";;;;;;;;;;;;;;;;;;;;;;;;;;;;;;;;;;;;;;;;;;;;;;;;;;;;;;;;;;;"1250";"2014-09-28 16:54:31.461";"ST_correctStop";"0";"1";"FINISHED";"NONE";"success";"0";"1";"2014-09-28 16:54:30.210";"1";;;;;;;;;;;;;;;;;;;;;
"c1322662";"1995";;"Windows 8";"Rachel's Experiment (D.T.)";"1.0";"2";"1";"1";"2";"1";"1";"2014-09-28 16:46:11.640";"2014-09-28 17:00:26.605";"1";"1";"0";"138";"137";"module.training_block4.exec-2994.GoNoGo4";;;;;;;;;;;;;;;;;;;;;;;;;;;;;;;;;;;;;;;;;;;;;;;;;;;;;;;;;;;"1250";"2014-09-28 16:54:33.996";"ST_correctStop";"3";"1";"FINISHED";"NONE";"success";"0";"1";"2014-09-28 16:54:32.745";"1";;;;;;;;;;;;;;;;;;;;;
"c1322662";"1995";;"Windows 8";"Rachel's Experiment (D.T.)";"1.0";"2";"1";"1";"2";"1";"1";"2014-09-28 16:46:11.640";"2014-09-28 17:00:26.605";"1";"1";"0";"139";"138";"module.training_block4.exec-2994.GoNoGo4";;;;;;;;;;;;;;;;;;;;;;;;;;;;;;;;;;;;;;;;;;;;;;;;;;;;;;;;;;;"1249";"2014-09-28 16:54:36.532";"ST_correctStop";"19";"1";"FINISHED";"NONE";"success";"0";"1";"2014-09-28 16:54:35.282";"3";;;;;;;;;;;;;;;;;;;;;
"c1322662";"1995";;"Windows 8";"Rachel's Experiment (D.T.)";"1.0";"2";"1";"1";"2";"1";"1";"2014-09-28 16:46:11.640";"2014-09-28 17:00:26.605";"1";"1";"0";"140";"139";"module.training_block4.exec-2994.GoNoGo4";;;;;;;;;;;;;;;;;;;;;;;;;;;;;;;;;;;;;;;;;;;;;;;;;;;;;;;;;;;"1250";"2014-09-28 16:54:39.068";"ST_correctStop";"4";"0";"FINISHED";"NONE";"success";"0";"1";"2014-09-28 16:54:37.817";"1";;;;;;;;;;;;;;;;;;;;;
"c1322662";"1995";;"Windows 8";"Rachel's Experiment (D.T.)";"1.0";"2";"1";"1";"2";"1";"1";"2014-09-28 16:46:11.640";"2014-09-28 17:00:26.605";"1";"1";"0";"141";"140";"module.training_block4.exec-2994.GoNoGo4";;;;;;;;;;;;;;;;;;;;;;;;;;;;;;;;;;;;;;;;;;;;;;;;;;;;;;;;;;;"1250";"2014-09-28 16:54:41.611";"NST_correctLoc";"14";"0";"FINISHED";"LEFT";"success";"670";"0";"2014-09-28 16:54:40.360";"2";;;;;;;;;;;;;;;;;;;;;
"c1322662";"1995";;"Windows 8";"Rachel's Experiment (D.T.)";"1.0";"2";"1";"1";"2";"1";"1";"2014-09-28 16:46:11.640";"2014-09-28 17:00:26.605";"1";"1";"0";"142";"141";"module.training_block4.exec-2994.GoNoGo4";;;;;;;;;;;;;;;;;;;;;;;;;;;;;;;;;;;;;;;;;;;;;;;;;;;;;;;;;;;"1249";"2014-09-28 16:54:44.150";"NST_correctLoc";"35";"1";"FINISHED";"RIGHT";"success";"761";"0";"2014-09-28 16:54:42.900";"3";;;;;;;;;;;;;;;;;;;;;
"c1322662";"1995";;"Windows 8";"Rachel's Experiment (D.T.)";"1.0";"2";"1";"1";"2";"1";"1";"2014-09-28 16:46:11.640";"2014-09-28 17:00:26.605";"1";"1";"0";"143";"142";"module.training_block4.exec-2994.GoNoGo4";;;;;;;;;;;;;;;;;;;;;;;;;;;;;;;;;;;;;;;;;;;;;;;;;;;;;;;;;;;"1250";"2014-09-28 16:54:46.684";"ST_correctStop";"6";"0";"FINISHED";"NONE";"success";"0";"1";"2014-09-28 16:54:45.433";"1";;;;;;;;;;;;;;;;;;;;;
"c1322662";"1995";;"Windows 8";"Rachel's Experiment (D.T.)";"1.0";"2";"1";"1";"2";"1";"1";"2014-09-28 16:46:11.640";"2014-09-28 17:00:26.605";"1";"1";"0";"144";"143";"module.training_block4.exec-2994.GoNoGo4";;;;;;;;;;;;;;;;;;;;;;;;;;;;;;;;;;;;;;;;;;;;;;;;;;;;;;;;;;;"1249";"2014-09-28 16:54:49.217";"ST_correctStop";"30";"0";"FINISHED";"NONE";"success";"0";"1";"2014-09-28 16:54:47.967";"3";;;;;;;;;;;;;;;;;;;;;
"c1322662";"1995";;"Windows 8";"Rachel's Experiment (D.T.)";"1.0";"2";"1";"1";"2";"1";"1";"2014-09-28 16:46:11.640";"2014-09-28 17:00:26.605";"1";"1";"0";"145";"144";"module.training_block4.exec-2994.GoNoGo4";;;;;;;;;;;;;;;;;;;;;;;;;;;;;;;;;;;;;;;;;;;;;;;;;;;;;;;;;;;"1249";"2014-09-28 16:54:51.750";"NST_correctLoc";"9";"1";"FINISHED";"RIGHT";"success";"538";"0";"2014-09-28 16:54:50.500";"2";;;;;;;;;;;;;;;;;;;;;
"c1322662";"1995";;"Windows 8";"Rachel's Experiment (D.T.)";"1.0";"2";"1";"1";"2";"1";"1";"2014-09-28 16:46:11.640";"2014-09-28 17:00:26.605";"1";"1";"0";"146";"145";"module.training_block4.exec-2994.GoNoGo4";;;;;;;;;;;;;;;;;;;;;;;;;;;;;;;;;;;;;;;;;;;;;;;;;;;;;;;;;;;"1250";"2014-09-28 16:54:54.338";"ST_correctStop";"22";"1";"FINISHED";"NONE";"success";"0";"1";"2014-09-28 16:54:53.087";"3";;;;;;;;;;;;;;;;;;;;;
"c1322662";"1995";;"Windows 8";"Rachel's Experiment (D.T.)";"1.0";"2";"1";"1";"2";"1";"1";"2014-09-28 16:46:11.640";"2014-09-28 17:00:26.605";"1";"1";"0";"147";"146";"module.training_block4.exec-2994.GoNoGo4";;;;;;;;;;;;;;;;;;;;;;;;;;;;;;;;;;;;;;;;;;;;;;;;;;;;;;;;;;;"1249";"2014-09-28 16:54:56.871";"NST_correctLoc";"20";"0";"FINISHED";"LEFT";"success";"462";"0";"2014-09-28 16:54:55.621";"3";;;;;;;;;;;;;;;;;;;;;
"c1322662";"1995";;"Windows 8";"Rachel's Experiment (D.T.)";"1.0";"2";"1";"1";"2";"1";"1";"2014-09-28 16:46:11.640";"2014-09-28 17:00:26.605";"1";"1";"0";"148";"147";"module.training_block4.exec-2994.GoNoGo4";;;;;;;;;;;;;;;;;;;;;;;;;;;;;;;;;;;;;;;;;;;;;;;;;;;;;;;;;;;"1249";"2014-09-28 16:54:59.409";"ST_correctStop";"32";"0";"FINISHED";"NONE";"success";"0";"1";"2014-09-28 16:54:58.159";"3";;;;;;;;;;;;;;;;;;;;;
"c1322662";"1995";;"Windows 8";"Rachel's Experiment (D.T.)";"1.0";"2";"1";"1";"2";"1";"1";"2014-09-28 16:46:11.640";"2014-09-28 17:00:26.605";"1";"1";"0";"149";"148";"module.training_block4.exec-2994.GoNoGo4";;;;;;;;;;;;;;;;;;;;;;;;;;;;;;;;;;;;;;;;;;;;;;;;;;;;;;;;;;;"1249";"2014-09-28 16:55:01.944";"NST_correctLoc";"12";"1";"FINISHED";"RIGHT";"success";"565";"0";"2014-09-28 16:55:00.694";"2";;;;;;;;;;;;;;;;;;;;;
"c1322662";"1995";;"Windows 8";"Rachel's Experiment (D.T.)";"1.0";"2";"1";"1";"2";"1";"1";"2014-09-28 16:46:11.640";"2014-09-28 17:00:26.605";"1";"1";"0";"150";"149";"module.training_block4.exec-2994.GoNoGo4";;;;;;;;;;;;;;;;;;;;;;;;;;;;;;;;;;;;;;;;;;;;;;;;;;;;;;;;;;;"1250";"2014-09-28 16:55:04.487";"ST_correctStop";"1";"1";"FINISHED";"NONE";"success";"0";"1";"2014-09-28 16:55:03.236";"1";;;;;;;;;;;;;;;;;;;;;
"c1322662";"1995";;"Windows 8";"Rachel's Experiment (D.T.)";"1.0";"2";"1";"1";"2";"1";"1";"2014-09-28 16:46:11.640";"2014-09-28 17:00:26.605";"1";"1";"0";"151";"150";"module.training_block4.exec-2994.GoNoGo4";;;;;;;;;;;;;;;;;;;;;;;;;;;;;;;;;;;;;;;;;;;;;;;;;;;;;;;;;;;"1251";"2014-09-28 16:55:07.024";"NST_correctLoc";"31";"1";"FINISHED";"RIGHT";"success";"708";"0";"2014-09-28 16:55:05.773";"3";;;;;;;;;;;;;;;;;;;;;
"c1322662";"1995";;"Windows 8";"Rachel's Experiment (D.T.)";"1.0";"2";"1";"1";"2";"1";"1";"2014-09-28 16:46:11.640";"2014-09-28 17:00:26.605";"1";"1";"0";"152";"151";"module.training_block4.exec-2994.GoNoGo4";;;;;;;;;;;;;;;;;;;;;;;;;;;;;;;;;;;;;;;;;;;;;;;;;;;;;;;;;;;"1249";"2014-09-28 16:55:09.558";"ST_correctStop";"24";"0";"FINISHED";"NONE";"success";"0";"1";"2014-09-28 16:55:08.308";"3";;;;;;;;;;;;;;;;;;;;;
"c1322662";"1995";;"Windows 8";"Rachel's Experiment (D.T.)";"1.0";"2";"1";"1";"2";"1";"1";"2014-09-28 16:46:11.640";"2014-09-28 17:00:26.605";"1";"1";"0";"153";"152";"module.training_block4.exec-2994.GoNoGo4";;;;;;;;;;;;;;;;;;;;;;;;;;;;;;;;;;;;;;;;;;;;;;;;;;;;;;;;;;;"1250";"2014-09-28 16:55:12.092";"ST_correctStop";"8";"0";"FINISHED";"NONE";"success";"0";"1";"2014-09-28 16:55:10.842";"1";;;;;;;;;;;;;;;;;;;;;
"c1322662";"1995";;"Windows 8";"Rachel's Experiment (D.T.)";"1.0";"2";"1";"1";"2";"1";"1";"2014-09-28 16:46:11.640";"2014-09-28 17:00:26.605";"1";"1";"0";"154";"153";"module.training_block4.exec-2994.GoNoGo4";;;;;;;;;;;;;;;;;;;;;;;;;;;;;;;;;;;;;;;;;;;;;;;;;;;;;;;;;;;"1250";"2014-09-28 16:55:14.626";"ST_correctStop";"7";"0";"FINISHED";"NONE";"success";"0";"1";"2014-09-28 16:55:13.375";"1";;;;;;;;;;;;;;;;;;;;;
"c1322662";"1995";;"Windows 8";"Rachel's Experiment (D.T.)";"1.0";"2";"1";"1";"2";"1";"1";"2014-09-28 16:46:11.640";"2014-09-28 17:00:26.605";"1";"1";"0";"155";"154";"module.training_block4.exec-2994.GoNoGo4";;;;;;;;;;;;;;;;;;;;;;;;;;;;;;;;;;;;;;;;;;;;;;;;;;;;;;;;;;;"1249";"2014-09-28 16:55:17.164";"NST_correctLoc";"26";"0";"FINISHED";"LEFT";"success";"545";"0";"2014-09-28 16:55:15.914";"3";;;;;;;;;;;;;;;;;;;;;
"c1322662";"1995";;"Windows 8";"Rachel's Experiment (D.T.)";"1.0";"2";"1";"1";"2";"1";"1";"2014-09-28 16:46:11.640";"2014-09-28 17:00:26.605";"1";"1";"0";"156";"155";"module.training_block4.exec-2994.GoNoGo4";;;;;;;;;;;;;;;;;;;;;;;;;;;;;;;;;;;;;;;;;;;;;;;;;;;;;;;;;;;"1249";"2014-09-28 16:55:19.698";"ST_correctStop";"29";"1";"FINISHED";"NONE";"success";"0";"1";"2014-09-28 16:55:18.448";"3";;;;;;;;;;;;;;;;;;;;;
"c1322662";"1995";;"Windows 8";"Rachel's Experiment (D.T.)";"1.0";"2";"1";"1";"2";"1";"1";"2014-09-28 16:46:11.640";"2014-09-28 17:00:26.605";"1";"1";"0";"157";"156";"module.training_block4.exec-2994.GoNoGo4";;;;;;;;;;;;;;;;;;;;;;;;;;;;;;;;;;;;;;;;;;;;;;;;;;;;;;;;;;;"1250";"2014-09-28 16:55:22.232";"NST_correctLoc";"16";"0";"FINISHED";"LEFT";"success";"601";"0";"2014-09-28 16:55:20.981";"2";;;;;;;;;;;;;;;;;;;;;
"c1322662";"1995";;"Windows 8";"Rachel's Experiment (D.T.)";"1.0";"2";"1";"1";"2";"1";"1";"2014-09-28 16:46:11.640";"2014-09-28 17:00:26.605";"1";"1";"0";"158";"157";"module.training_block4.exec-2994.GoNoGo4";;;;;;;;;;;;;;;;;;;;;;;;;;;;;;;;;;;;;;;;;;;;;;;;;;;;;;;;;;;"1250";"2014-09-28 16:55:24.769";"NST_correctLoc";"17";"1";"FINISHED";"RIGHT";"success";"785";"0";"2014-09-28 16:55:23.519";"2";;;;;;;;;;;;;;;;;;;;;
"c1322662";"1995";;"Windows 8";"Rachel's Experiment (D.T.)";"1.0";"2";"1";"1";"2";"1";"1";"2014-09-28 16:46:11.640";"2014-09-28 17:00:26.605";"1";"1";"0";"159";"158";"module.training_block4.exec-2994.GoNoGo4";;;;;;;;;;;;;;;;;;;;;;;;;;;;;;;;;;;;;;;;;;;;;;;;;;;;;;;;;;;"1249";"2014-09-28 16:55:27.338";"ST_correctStop";"28";"0";"FINISHED";"NONE";"success";"0";"1";"2014-09-28 16:55:26.088";"3";;;;;;;;;;;;;;;;;;;;;
"c1322662";"1995";;"Windows 8";"Rachel's Experiment (D.T.)";"1.0";"2";"1";"1";"2";"1";"1";"2014-09-28 16:46:11.640";"2014-09-28 17:00:26.605";"1";"1";"0";"160";"159";"module.devaluation_practice.exec-9744.devalPractice";;;;;;;;;;;;"17856";"2014-09-28 16:56:07.110";"0";"7";"6";"8";"9760";"2929";"2075";"2014-09-28 16:55:49.254";;;;;;;;;;;;;;;;;;;;;;;;;;;;;;;;;;;;;;;;;;;;;;;;;;;;;;;;;;;;;;;;;;;;;;
"c1322662";"1995";;"Windows 8";"Rachel's Experiment (D.T.)";"1.0";"2";"1";"1";"2";"1";"1";"2014-09-28 16:46:11.640";"2014-09-28 17:00:26.605";"1";"1";"0";"161";"160";"module.devaluation_practice.exec-9744.devalPractice";;;;;;;;;;;;"10127";"2014-09-28 16:56:17.280";"1";"4";"4";"5";"2433";"2051";"2597";"2014-09-28 16:56:07.153";;;;;;;;;;;;;;;;;;;;;;;;;;;;;;;;;;;;;;;;;;;;;;;;;;;;;;;;;;;;;;;;;;;;;;
"c1322662";"1995";;"Windows 8";"Rachel's Experiment (D.T.)";"1.0";"2";"1";"1";"2";"1";"1";"2014-09-28 16:46:11.640";"2014-09-28 17:00:26.605";"1";"1";"0";"162";"161";"module.devaluation_practice.exec-9744.devalPractice";;;;;;;;;;;;"14795";"2014-09-28 16:56:32.117";"2";"5";"6";"6";"3098";"3743";"4935";"2014-09-28 16:56:17.322";;;;;;;;;;;;;;;;;;;;;;;;;;;;;;;;;;;;;;;;;;;;;;;;;;;;;;;;;;;;;;;;;;;;;;
"c1322662";"1995";;"Windows 8";"Rachel's Experiment (D.T.)";"1.0";"2";"1";"1";"2";"1";"1";"2014-09-28 16:46:11.640";"2014-09-28 17:00:26.605";"1";"1";"0";"163";"162";"module.devaluation_practice.exec-9744.devalPractice";;;;;;;;;;;;"10493";"2014-09-28 16:56:42.649";"3";"6";"7";"8";"1770";"4562";"1100";"2014-09-28 16:56:32.155";;;;;;;;;;;;;;;;;;;;;;;;;;;;;;;;;;;;;;;;;;;;;;;;;;;;;;;;;;;;;;;;;;;;;;
"c1322662";"1995";;"Windows 8";"Rachel's Experiment (D.T.)";"1.0";"2";"1";"1";"2";"1";"1";"2014-09-28 16:46:11.640";"2014-09-28 17:00:26.605";"1";"1";"0";"164";"163";"module.devaluation_block1.exec-2141.deval1";"8188";"2014-09-28 16:56:58.849";"15";"3";"3";"4";"1673";"1134";"2337";"2014-09-28 16:56:50.661";"2";;;;;;;;;;;;;;;;;;;;;;;;;;;;;;;;;;;;;;;;;;;;;;;;;;;;;;;;;;;;;;;;;;;;;;;;;;;;;;;;
"c1322662";"1995";;"Windows 8";"Rachel's Experiment (D.T.)";"1.0";"2";"1";"1";"2";"1";"1";"2014-09-28 16:46:11.640";"2014-09-28 17:00:26.605";"1";"1";"0";"165";"164";"module.devaluation_block1.exec-2141.deval1";"9183";"2014-09-28 16:57:08.072";"11";"5";"2";"4";"2030";"2537";"1591";"2014-09-28 16:56:58.889";"2";;;;;;;;;;;;;;;;;;;;;;;;;;;;;;;;;;;;;;;;;;;;;;;;;;;;;;;;;;;;;;;;;;;;;;;;;;;;;;;;
"c1322662";"1995";;"Windows 8";"Rachel's Experiment (D.T.)";"1.0";"2";"1";"1";"2";"1";"1";"2014-09-28 16:46:11.640";"2014-09-28 17:00:26.605";"1";"1";"0";"166";"165";"module.devaluation_block1.exec-2141.deval1";"8803";"2014-09-28 16:57:16.922";"22";"7";"6";"8";"2753";"1708";"1319";"2014-09-28 16:57:08.118";"3";;;;;;;;;;;;;;;;;;;;;;;;;;;;;;;;;;;;;;;;;;;;;;;;;;;;;;;;;;;;;;;;;;;;;;;;;;;;;;;;
"c1322662";"1995";;"Windows 8";"Rachel's Experiment (D.T.)";"1.0";"2";"1";"1";"2";"1";"1";"2014-09-28 16:46:11.640";"2014-09-28 17:00:26.605";"1";"1";"0";"167";"166";"module.devaluation_block1.exec-2141.deval1";"6349";"2014-09-28 16:57:23.311";"7";"5";"5";"7";"576";"1438";"1309";"2014-09-28 16:57:16.961";"1";;;;;;;;;;;;;;;;;;;;;;;;;;;;;;;;;;;;;;;;;;;;;;;;;;;;;;;;;;;;;;;;;;;;;;;;;;;;;;;;
"c1322662";"1995";;"Windows 8";"Rachel's Experiment (D.T.)";"1.0";"2";"1";"1";"2";"1";"1";"2014-09-28 16:46:11.640";"2014-09-28 17:00:26.605";"1";"1";"0";"168";"167";"module.devaluation_block1.exec-2141.deval1";"11600";"2014-09-28 16:57:34.950";"16";"4";"3";"5";"2766";"1399";"4410";"2014-09-28 16:57:23.350";"2";;;;;;;;;;;;;;;;;;;;;;;;;;;;;;;;;;;;;;;;;;;;;;;;;;;;;;;;;;;;;;;;;;;;;;;;;;;;;;;;
"c1322662";"1995";;"Windows 8";"Rachel's Experiment (D.T.)";"1.0";"2";"1";"1";"2";"1";"1";"2014-09-28 16:46:11.640";"2014-09-28 17:00:26.605";"1";"1";"0";"169";"168";"module.devaluation_block1.exec-2141.deval1";"7910";"2014-09-28 16:57:42.900";"0";"5";"7";"8";"2043";"1414";"1428";"2014-09-28 16:57:34.990";"1";;;;;;;;;;;;;;;;;;;;;;;;;;;;;;;;;;;;;;;;;;;;;;;;;;;;;;;;;;;;;;;;;;;;;;;;;;;;;;;;
"c1322662";"1995";;"Windows 8";"Rachel's Experiment (D.T.)";"1.0";"2";"1";"1";"2";"1";"1";"2014-09-28 16:46:11.640";"2014-09-28 17:00:26.605";"1";"1";"0";"170";"169";"module.devaluation_block1.exec-2141.deval1";"7085";"2014-09-28 16:57:50.030";"26";"8";"8";"9";"974";"1630";"1456";"2014-09-28 16:57:42.945";"3";;;;;;;;;;;;;;;;;;;;;;;;;;;;;;;;;;;;;;;;;;;;;;;;;;;;;;;;;;;;;;;;;;;;;;;;;;;;;;;;
"c1322662";"1995";;"Windows 8";"Rachel's Experiment (D.T.)";"1.0";"2";"1";"1";"2";"1";"1";"2014-09-28 16:46:11.640";"2014-09-28 17:00:26.605";"1";"1";"0";"171";"170";"module.devaluation_block1.exec-2141.deval1";"8198";"2014-09-28 16:57:58.270";"23";"7";"7";"8";"1184";"1744";"2244";"2014-09-28 16:57:50.072";"3";;;;;;;;;;;;;;;;;;;;;;;;;;;;;;;;;;;;;;;;;;;;;;;;;;;;;;;;;;;;;;;;;;;;;;;;;;;;;;;;
"c1322662";"1995";;"Windows 8";"Rachel's Experiment (D.T.)";"1.0";"2";"1";"1";"2";"1";"1";"2014-09-28 16:46:11.640";"2014-09-28 17:00:26.605";"1";"1";"0";"172";"171";"module.devaluation_block1.exec-2141.deval1";"9492";"2014-09-28 16:58:07.802";"10";"7";"3";"5";"2883";"1913";"1668";"2014-09-28 16:57:58.310";"2";;;;;;;;;;;;;;;;;;;;;;;;;;;;;;;;;;;;;;;;;;;;;;;;;;;;;;;;;;;;;;;;;;;;;;;;;;;;;;;;
"c1322662";"1995";;"Windows 8";"Rachel's Experiment (D.T.)";"1.0";"2";"1";"1";"2";"1";"1";"2014-09-28 16:46:11.640";"2014-09-28 17:00:26.605";"1";"1";"0";"173";"172";"module.devaluation_block1.exec-2141.deval1";"8714";"2014-09-28 16:58:16.559";"8";"7";"6";"7";"864";"3409";"1415";"2014-09-28 16:58:07.843";"1";;;;;;;;;;;;;;;;;;;;;;;;;;;;;;;;;;;;;;;;;;;;;;;;;;;;;;;;;;;;;;;;;;;;;;;;;;;;;;;;
"c1322662";"1995";;"Windows 8";"Rachel's Experiment (D.T.)";"1.0";"2";"1";"1";"2";"1";"1";"2014-09-28 16:46:11.640";"2014-09-28 17:00:26.605";"1";"1";"0";"174";"173";"module.devaluation_block1.exec-2141.deval1";"7282";"2014-09-28 16:58:23.884";"24";"8";"8";"9";"1270";"1908";"1079";"2014-09-28 16:58:16.602";"3";;;;;;;;;;;;;;;;;;;;;;;;;;;;;;;;;;;;;;;;;;;;;;;;;;;;;;;;;;;;;;;;;;;;;;;;;;;;;;;;
"c1322662";"1995";;"Windows 8";"Rachel's Experiment (D.T.)";"1.0";"2";"1";"1";"2";"1";"1";"2014-09-28 16:46:11.640";"2014-09-28 17:00:26.605";"1";"1";"0";"175";"174";"module.devaluation_block1.exec-2141.deval1";"9359";"2014-09-28 16:58:33.282";"9";"4";"3";"6";"2880";"1798";"1651";"2014-09-28 16:58:23.924";"2";;;;;;;;;;;;;;;;;;;;;;;;;;;;;;;;;;;;;;;;;;;;;;;;;;;;;;;;;;;;;;;;;;;;;;;;;;;;;;;;
"c1322662";"1995";;"Windows 8";"Rachel's Experiment (D.T.)";"1.0";"2";"1";"1";"2";"1";"1";"2014-09-28 16:46:11.640";"2014-09-28 17:00:26.605";"1";"1";"0";"176";"175";"module.devaluation_block1.exec-2141.deval1";"6444";"2014-09-28 16:58:39.765";"3";"8";"9";"9";"1250";"956";"1214";"2014-09-28 16:58:33.321";"1";;;;;;;;;;;;;;;;;;;;;;;;;;;;;;;;;;;;;;;;;;;;;;;;;;;;;;;;;;;;;;;;;;;;;;;;;;;;;;;;
"c1322662";"1995";;"Windows 8";"Rachel's Experiment (D.T.)";"1.0";"2";"1";"1";"2";"1";"1";"2014-09-28 16:46:11.640";"2014-09-28 17:00:26.605";"1";"1";"0";"177";"176";"module.devaluation_block1.exec-2141.deval1";"6241";"2014-09-28 16:58:46.045";"25";"7";"8";"8";"1175";"938";"1105";"2014-09-28 16:58:39.804";"3";;;;;;;;;;;;;;;;;;;;;;;;;;;;;;;;;;;;;;;;;;;;;;;;;;;;;;;;;;;;;;;;;;;;;;;;;;;;;;;;
"c1322662";"1995";;"Windows 8";"Rachel's Experiment (D.T.)";"1.0";"2";"1";"1";"2";"1";"1";"2014-09-28 16:46:11.640";"2014-09-28 17:00:26.605";"1";"1";"0";"178";"177";"module.devaluation_block1.exec-2141.deval1";"7567";"2014-09-28 16:58:53.660";"2";"6";"9";"8";"1390";"2057";"1096";"2014-09-28 16:58:46.092";"1";;;;;;;;;;;;;;;;;;;;;;;;;;;;;;;;;;;;;;;;;;;;;;;;;;;;;;;;;;;;;;;;;;;;;;;;;;;;;;;;
"c1322662";"1995";;"Windows 8";"Rachel's Experiment (D.T.)";"1.0";"2";"1";"1";"2";"1";"1";"2014-09-28 16:46:11.640";"2014-09-28 17:00:26.605";"1";"1";"0";"179";"178";"module.devaluation_block1.exec-2141.deval1";"8407";"2014-09-28 16:59:02.111";"6";"6";"6";"8";"510";"1918";"2958";"2014-09-28 16:58:53.703";"1";;;;;;;;;;;;;;;;;;;;;;;;;;;;;;;;;;;;;;;;;;;;;;;;;;;;;;;;;;;;;;;;;;;;;;;;;;;;;;;;
"c1322662";"1995";;"Windows 8";"Rachel's Experiment (D.T.)";"1.0";"2";"1";"1";"2";"1";"1";"2014-09-28 16:46:11.640";"2014-09-28 17:00:26.605";"1";"1";"0";"180";"179";"module.devaluation_block1.exec-2141.deval1";"6786";"2014-09-28 16:59:08.987";"1";"7";"8";"8";"1766";"1123";"870";"2014-09-28 16:59:02.200";"1";;;;;;;;;;;;;;;;;;;;;;;;;;;;;;;;;;;;;;;;;;;;;;;;;;;;;;;;;;;;;;;;;;;;;;;;;;;;;;;;
"c1322662";"1995";;"Windows 8";"Rachel's Experiment (D.T.)";"1.0";"2";"1";"1";"2";"1";"1";"2014-09-28 16:46:11.640";"2014-09-28 17:00:26.605";"1";"1";"0";"181";"180";"module.devaluation_block1.exec-2141.deval1";"8120";"2014-09-28 16:59:17.154";"21";"8";"7";"9";"2078";"2038";"983";"2014-09-28 16:59:09.033";"3";;;;;;;;;;;;;;;;;;;;;;;;;;;;;;;;;;;;;;;;;;;;;;;;;;;;;;;;;;;;;;;;;;;;;;;;;;;;;;;;
"c1322662";"1995";;"Windows 8";"Rachel's Experiment (D.T.)";"1.0";"2";"1";"1";"2";"1";"1";"2014-09-28 16:46:11.640";"2014-09-28 17:00:26.605";"1";"1";"0";"182";"181";"module.devaluation_block1.exec-2141.deval1";"6070";"2014-09-28 16:59:23.265";"17";"4";"2";"3";"1036";"1070";"939";"2014-09-28 16:59:17.195";"2";;;;;;;;;;;;;;;;;;;;;;;;;;;;;;;;;;;;;;;;;;;;;;;;;;;;;;;;;;;;;;;;;;;;;;;;;;;;;;;;
"c1322662";"1995";;"Windows 8";"Rachel's Experiment (D.T.)";"1.0";"2";"1";"1";"2";"1";"1";"2014-09-28 16:46:11.640";"2014-09-28 17:00:26.605";"1";"1";"0";"183";"182";"module.devaluation_block1.exec-2141.deval1";"7294";"2014-09-28 16:59:30.602";"19";"8";"8";"9";"843";"2081";"1349";"2014-09-28 16:59:23.308";"3";;;;;;;;;;;;;;;;;;;;;;;;;;;;;;;;;;;;;;;;;;;;;;;;;;;;;;;;;;;;;;;;;;;;;;;;;;;;;;;;
"c1322662";"1995";;"Windows 8";"Rachel's Experiment (D.T.)";"1.0";"2";"1";"1";"2";"1";"1";"2014-09-28 16:46:11.640";"2014-09-28 17:00:26.605";"1";"1";"0";"184";"183";"module.devaluation_block1.exec-2141.deval1";"8900";"2014-09-28 16:59:39.550";"13";"6";"5";"6";"755";"3510";"1614";"2014-09-28 16:59:30.649";"2";;;;;;;;;;;;;;;;;;;;;;;;;;;;;;;;;;;;;;;;;;;;;;;;;;;;;;;;;;;;;;;;;;;;;;;;;;;;;;;;
"c1322662";"1995";;"Windows 8";"Rachel's Experiment (D.T.)";"1.0";"2";"1";"1";"2";"1";"1";"2014-09-28 16:46:11.640";"2014-09-28 17:00:26.605";"1";"1";"0";"185";"184";"module.devaluation_block1.exec-2141.deval1";"7250";"2014-09-28 16:59:46.846";"12";"6";"2";"4";"1299";"1521";"1409";"2014-09-28 16:59:39.596";"2";;;;;;;;;;;;;;;;;;;;;;;;;;;;;;;;;;;;;;;;;;;;;;;;;;;;;;;;;;;;;;;;;;;;;;;;;;;;;;;;
"c1322662";"1995";;"Windows 8";"Rachel's Experiment (D.T.)";"1.0";"2";"1";"1";"2";"1";"1";"2014-09-28 16:46:11.640";"2014-09-28 17:00:26.605";"1";"1";"0";"186";"185";"module.devaluation_block1.exec-2141.deval1";"8169";"2014-09-28 16:59:55.062";"18";"4";"8";"9";"1531";"2621";"994";"2014-09-28 16:59:46.893";"3";;;;;;;;;;;;;;;;;;;;;;;;;;;;;;;;;;;;;;;;;;;;;;;;;;;;;;;;;;;;;;;;;;;;;;;;;;;;;;;;
"c1322662";"1995";;"Windows 8";"Rachel's Experiment (D.T.)";"1.0";"2";"1";"1";"2";"1";"1";"2014-09-28 16:46:11.640";"2014-09-28 17:00:26.605";"1";"1";"0";"187";"186";"module.devaluation_block1.exec-2141.deval1";"6031";"2014-09-28 17:00:01.131";"5";"7";"8";"8";"942";"1145";"924";"2014-09-28 16:59:55.100";"1";;;;;;;;;;;;;;;;;;;;;;;;;;;;;;;;;;;;;;;;;;;;;;;;;;;;;;;;;;;;;;;;;;;;;;;;;;;;;;;;
"c1322662";"1995";;"Windows 8";"Rachel's Experiment (D.T.)";"1.0";"2";"1";"1";"2";"1";"1";"2014-09-28 16:46:11.640";"2014-09-28 17:00:26.605";"1";"1";"0";"188";"187";"module.devaluation_block1.exec-2141.deval1";"7007";"2014-09-28 17:00:08.183";"20";"5";"4";"5";"1496";"452";"2037";"2014-09-28 17:00:01.176";"3";;;;;;;;;;;;;;;;;;;;;;;;;;;;;;;;;;;;;;;;;;;;;;;;;;;;;;;;;;;;;;;;;;;;;;;;;;;;;;;;
"c1322662";"1995";;"Windows 8";"Rachel's Experiment (D.T.)";"1.0";"2";"1";"1";"2";"1";"1";"2014-09-28 16:46:11.640";"2014-09-28 17:00:26.605";"1";"1";"0";"189";"188";"module.devaluation_block1.exec-2141.deval1";"7059";"2014-09-28 17:00:15.283";"14";"6";"3";"6";"743";"1376";"1919";"2014-09-28 17:00:08.223";"2";;;;;;;;;;;;;;;;;;;;;;;;;;;;;;;;;;;;;;;;;;;;;;;;;;;;;;;;;;;;;;;;;;;;;;;;;;;;;;;;
"c1322662";"1995";;"Windows 8";"Rachel's Experiment (D.T.)";"1.0";"2";"1";"1";"2";"1";"1";"2014-09-28 16:46:11.640";"2014-09-28 17:00:26.605";"1";"1";"0";"190";"189";"module.devaluation_block1.exec-2141.deval1";"7355";"2014-09-28 17:00:22.681";"4";"8";"6";"9";"1358";"2054";"920";"2014-09-28 17:00:15.325";"1";;;;;;;;;;;;;;;;;;;;;;;;;;;;;;;;;;;;;;;;;;;;;;;;;;;;;;;;;;;;;;;;;;;;;;;;;;;;;;;;
