"user.name";"user.yearOfBirth";"user.sex";"user.osName";"module.name";"module.version";"module.online.subject.code";"module.online.study.id";"module.online.module.nr";"module.online.group.nr";"session.id";"session.index";"session.startTime";"session.endTime";"session.completed";"session.node-1285.DevalQorder";"session.node-6124.conditionType";"trial.id";"trial.index";"trial.name";"trial.deval1.durationTime";"trial.deval1.endTime";"trial.deval1.icon";"trial.deval1.Resp_Attractive";"trial.deval1.Resp_Eat";"trial.deval1.Resp_Taste";"trial.deval1.RT_Attractive";"trial.deval1.RT_Eat";"trial.deval1.RT_Taste";"trial.deval1.startTime";"trial.deval1.stimulus type";"trial.devalPractice.durationTime";"trial.devalPractice.endTime";"trial.devalPractice.icon";"trial.devalPractice.Resp_Attractive";"trial.devalPractice.Resp_Eat";"trial.devalPractice.Resp_Taste";"trial.devalPractice.RT_Attractive";"trial.devalPractice.RT_Eat";"trial.devalPractice.RT_Taste";"trial.devalPractice.startTime";"trial.devalPractice.stimulus type";"trial.GoNoGo1.durationTime";"trial.GoNoGo1.endTime";"trial.GoNoGo1.Error Type";"trial.GoNoGo1.icon";"trial.GoNoGo1.location";"trial.GoNoGo1.outcome";"trial.GoNoGo1.response";"trial.GoNoGo1.result";"trial.GoNoGo1.RT";"trial.GoNoGo1.signal";"trial.GoNoGo1.startTime";"trial.GoNoGo1.stimulus type";"trial.GoNoGo2.durationTime";"trial.GoNoGo2.endTime";"trial.GoNoGo2.Error Type";"trial.GoNoGo2.icon";"trial.GoNoGo2.location";"trial.GoNoGo2.outcome";"trial.GoNoGo2.response";"trial.GoNoGo2.result";"trial.GoNoGo2.RT";"trial.GoNoGo2.signal";"trial.GoNoGo2.startTime";"trial.GoNoGo2.stimulus type";"trial.GoNoGo3.durationTime";"trial.GoNoGo3.endTime";"trial.GoNoGo3.Error Type";"trial.GoNoGo3.icon";"trial.GoNoGo3.location";"trial.GoNoGo3.outcome";"trial.GoNoGo3.response";"trial.GoNoGo3.result";"trial.GoNoGo3.RT";"trial.GoNoGo3.signal";"trial.GoNoGo3.startTime";"trial.GoNoGo3.stimulus type";"trial.GoNoGo4.durationTime";"trial.GoNoGo4.endTime";"trial.GoNoGo4.Error Type";"trial.GoNoGo4.icon";"trial.GoNoGo4.location";"trial.GoNoGo4.outcome";"trial.GoNoGo4.response";"trial.GoNoGo4.result";"trial.GoNoGo4.RT";"trial.GoNoGo4.signal";"trial.GoNoGo4.startTime";"trial.GoNoGo4.stimulus type";"trial.GoNoGo_Practice.durationTime";"trial.GoNoGo_Practice.endTime";"trial.GoNoGo_Practice.icon";"trial.GoNoGo_Practice.location";"trial.GoNoGo_Practice.outcome";"trial.GoNoGo_Practice.response";"trial.GoNoGo_Practice.result";"trial.GoNoGo_Practice.RT";"trial.GoNoGo_Practice.signal";"trial.GoNoGo_Practice.startTime";"trial.GoNoGo_Practice.stimulus type";"trial.GoNoGo_Tutorial.durationTime";"trial.GoNoGo_Tutorial.endTime";"trial.GoNoGo_Tutorial.icon";"trial.GoNoGo_Tutorial.location";"trial.GoNoGo_Tutorial.outcome";"trial.GoNoGo_Tutorial.response";"trial.GoNoGo_Tutorial.result";"trial.GoNoGo_Tutorial.RT";"trial.GoNoGo_Tutorial.signal";"trial.GoNoGo_Tutorial.startTime"
"C1419964";;;"Windows 7";"Rachel's Experiment (D.T.)";"1.0";"2";"1";"1";"2";"1";"1";"2014-10-16 13:32:45.059";"2014-10-16 13:47:19.269";"1";"0";"0";"1";"0";"module.GoNoGotutorial.exec-7187.GoNoGo_Tutorial";;;;;;;;;;;;;;;;;;;;;;;;;;;;;;;;;;;;;;;;;;;;;;;;;;;;;;;;;;;;;;;;;;;;;;;;;;;;;;;;;;"3998";"2014-10-16 13:34:05.368";"leftResponse";"0";"FINISHED";"LEFT";"success";"1333";"0";"2014-10-16 13:34:01.359"
"C1419964";;;"Windows 7";"Rachel's Experiment (D.T.)";"1.0";"2";"1";"1";"2";"1";"1";"2014-10-16 13:32:45.059";"2014-10-16 13:47:19.269";"1";"0";"0";"2";"1";"module.GoNoGotutorial.exec-7187.GoNoGo_Tutorial";;;;;;;;;;;;;;;;;;;;;;;;;;;;;;;;;;;;;;;;;;;;;;;;;;;;;;;;;;;;;;;;;;;;;;;;;;;;;;;;;;"4003";"2014-10-16 13:34:10.672";"rightResponse";"1";"FINISHED";"RIGHT";"success";"1218";"0";"2014-10-16 13:34:06.663"
"C1419964";;;"Windows 7";"Rachel's Experiment (D.T.)";"1.0";"2";"1";"1";"2";"1";"1";"2014-10-16 13:32:45.059";"2014-10-16 13:47:19.269";"1";"0";"0";"3";"2";"module.GoNoGotutorial.exec-7187.GoNoGo_Tutorial";;;;;;;;;;;;;;;;;;;;;;;;;;;;;;;;;;;;;;;;;;;;;;;;;;;;;;;;;;;;;;;;;;;;;;;;;;;;;;;;;;"4003";"2014-10-16 13:34:15.976";"quickResponse";"0";"FINISHED";"NONE";"failure";"0";"0";"2014-10-16 13:34:11.967"
"C1419964";;;"Windows 7";"Rachel's Experiment (D.T.)";"1.0";"2";"1";"1";"2";"1";"1";"2014-10-16 13:32:45.059";"2014-10-16 13:47:19.269";"1";"0";"0";"4";"3";"module.GoNoGopractice.exec-4812.GoNoGo_Practice";;;;;;;;;;;;;;;;;;;;;;;;;;;;;;;;;;;;;;;;;;;;;;;;;;;;;;;;;;;;;;;;;;;;;;;"1959";"2014-10-16 13:34:24.228";"18";"0";"FINISHED";"LEFT";"success";"769";"0";"2014-10-16 13:34:22.263";"3";;;;;;;;;;
"C1419964";;;"Windows 7";"Rachel's Experiment (D.T.)";"1.0";"2";"1";"1";"2";"1";"1";"2014-10-16 13:32:45.059";"2014-10-16 13:47:19.269";"1";"0";"0";"5";"4";"module.GoNoGopractice.exec-4812.GoNoGo_Practice";;;;;;;;;;;;;;;;;;;;;;;;;;;;;;;;;;;;;;;;;;;;;;;;;;;;;;;;;;;;;;;;;;;;;;;"1953";"2014-10-16 13:34:27.473";"21";"1";"FINISHED";"RIGHT";"success";"471";"0";"2014-10-16 13:34:25.508";"3";;;;;;;;;;
"C1419964";;;"Windows 7";"Rachel's Experiment (D.T.)";"1.0";"2";"1";"1";"2";"1";"1";"2014-10-16 13:32:45.059";"2014-10-16 13:47:19.269";"1";"0";"0";"6";"5";"module.GoNoGopractice.exec-4812.GoNoGo_Practice";;;;;;;;;;;;;;;;;;;;;;;;;;;;;;;;;;;;;;;;;;;;;;;;;;;;;;;;;;;;;;;;;;;;;;;"1959";"2014-10-16 13:34:30.718";"14";"1";"FINISHED";"RIGHT";"success";"505";"0";"2014-10-16 13:34:28.752";"2";;;;;;;;;;
"C1419964";;;"Windows 7";"Rachel's Experiment (D.T.)";"1.0";"2";"1";"1";"2";"1";"1";"2014-10-16 13:32:45.059";"2014-10-16 13:47:19.269";"1";"0";"0";"7";"6";"module.GoNoGopractice.exec-4812.GoNoGo_Practice";;;;;;;;;;;;;;;;;;;;;;;;;;;;;;;;;;;;;;;;;;;;;;;;;;;;;;;;;;;;;;;;;;;;;;;"1959";"2014-10-16 13:34:33.963";"26";"0";"FINISHED";"LEFT";"success";"372";"0";"2014-10-16 13:34:31.997";"3";;;;;;;;;;
"C1419964";;;"Windows 7";"Rachel's Experiment (D.T.)";"1.0";"2";"1";"1";"2";"1";"1";"2014-10-16 13:32:45.059";"2014-10-16 13:47:19.269";"1";"0";"0";"8";"7";"module.GoNoGopractice.exec-4812.GoNoGo_Practice";;;;;;;;;;;;;;;;;;;;;;;;;;;;;;;;;;;;;;;;;;;;;;;;;;;;;;;;;;;;;;;;;;;;;;;"1959";"2014-10-16 13:34:37.208";"2";"0";"FINISHED";"LEFT";"success";"359";"0";"2014-10-16 13:34:35.242";"1";;;;;;;;;;
"C1419964";;;"Windows 7";"Rachel's Experiment (D.T.)";"1.0";"2";"1";"1";"2";"1";"1";"2014-10-16 13:32:45.059";"2014-10-16 13:47:19.269";"1";"0";"0";"9";"8";"module.GoNoGopractice.exec-4812.GoNoGo_Practice";;;;;;;;;;;;;;;;;;;;;;;;;;;;;;;;;;;;;;;;;;;;;;;;;;;;;;;;;;;;;;;;;;;;;;;"1960";"2014-10-16 13:34:40.452";"30";"0";"FINISHED";"LEFT";"success";"450";"0";"2014-10-16 13:34:38.487";"3";;;;;;;;;;
"C1419964";;;"Windows 7";"Rachel's Experiment (D.T.)";"1.0";"2";"1";"1";"2";"1";"1";"2014-10-16 13:32:45.059";"2014-10-16 13:47:19.269";"1";"0";"0";"10";"9";"module.GoNoGopractice.exec-4812.GoNoGo_Practice";;;;;;;;;;;;;;;;;;;;;;;;;;;;;;;;;;;;;;;;;;;;;;;;;;;;;;;;;;;;;;;;;;;;;;;"1959";"2014-10-16 13:34:43.697";"6";"1";"FINISHED";"RIGHT";"success";"429";"0";"2014-10-16 13:34:41.732";"1";;;;;;;;;;
"C1419964";;;"Windows 7";"Rachel's Experiment (D.T.)";"1.0";"2";"1";"1";"2";"1";"1";"2014-10-16 13:32:45.059";"2014-10-16 13:47:19.269";"1";"0";"0";"11";"10";"module.GoNoGopractice.exec-4812.GoNoGo_Practice";;;;;;;;;;;;;;;;;;;;;;;;;;;;;;;;;;;;;;;;;;;;;;;;;;;;;;;;;;;;;;;;;;;;;;;"1960";"2014-10-16 13:34:46.942";"34";"0";"FINISHED";"LEFT";"success";"369";"0";"2014-10-16 13:34:44.976";"3";;;;;;;;;;
"C1419964";;;"Windows 7";"Rachel's Experiment (D.T.)";"1.0";"2";"1";"1";"2";"1";"1";"2014-10-16 13:32:45.059";"2014-10-16 13:47:19.269";"1";"0";"0";"12";"11";"module.GoNoGopractice.exec-4812.GoNoGo_Practice";;;;;;;;;;;;;;;;;;;;;;;;;;;;;;;;;;;;;;;;;;;;;;;;;;;;;;;;;;;;;;;;;;;;;;;"1959";"2014-10-16 13:34:50.187";"23";"1";"FINISHED";"RIGHT";"success";"355";"0";"2014-10-16 13:34:48.221";"3";;;;;;;;;;
"C1419964";;;"Windows 7";"Rachel's Experiment (D.T.)";"1.0";"2";"1";"1";"2";"1";"1";"2014-10-16 13:32:45.059";"2014-10-16 13:47:19.269";"1";"0";"0";"13";"12";"module.GoNoGopractice.exec-4812.GoNoGo_Practice";;;;;;;;;;;;;;;;;;;;;;;;;;;;;;;;;;;;;;;;;;;;;;;;;;;;;;;;;;;;;;;;;;;;;;;"1959";"2014-10-16 13:34:53.432";"13";"0";"FINISHED";"LEFT";"success";"350";"0";"2014-10-16 13:34:51.466";"2";;;;;;;;;;
"C1419964";;;"Windows 7";"Rachel's Experiment (D.T.)";"1.0";"2";"1";"1";"2";"1";"1";"2014-10-16 13:32:45.059";"2014-10-16 13:47:19.269";"1";"0";"0";"14";"13";"module.GoNoGopractice.exec-4812.GoNoGo_Practice";;;;;;;;;;;;;;;;;;;;;;;;;;;;;;;;;;;;;;;;;;;;;;;;;;;;;;;;;;;;;;;;;;;;;;;"1960";"2014-10-16 13:34:56.677";"3";"1";"FINISHED";"RIGHT";"success";"459";"0";"2014-10-16 13:34:54.711";"1";;;;;;;;;;
"C1419964";;;"Windows 7";"Rachel's Experiment (D.T.)";"1.0";"2";"1";"1";"2";"1";"1";"2014-10-16 13:32:45.059";"2014-10-16 13:47:19.269";"1";"0";"0";"15";"14";"module.GoNoGopractice.exec-4812.GoNoGo_Practice";;;;;;;;;;;;;;;;;;;;;;;;;;;;;;;;;;;;;;;;;;;;;;;;;;;;;;;;;;;;;;;;;;;;;;;"1958";"2014-10-16 13:35:00.031";"27";"1";"FINISHED";"RIGHT";"success";"422";"0";"2014-10-16 13:34:58.065";"3";;;;;;;;;;
"C1419964";;;"Windows 7";"Rachel's Experiment (D.T.)";"1.0";"2";"1";"1";"2";"1";"1";"2014-10-16 13:32:45.059";"2014-10-16 13:47:19.269";"1";"0";"0";"16";"15";"module.training_block1.exec-6760.GoNoGo1";;;;;;;;;;;;;;;;;;;;;;;"1257";"2014-10-16 13:35:12.963";"NST_correctLoc";"28";"0";"FINISHED";"LEFT";"success";"620";"0";"2014-10-16 13:35:11.699";"3";;;;;;;;;;;;;;;;;;;;;;;;;;;;;;;;;;;;;;;;;;;;;;;;;;;;;;;;;
"C1419964";;;"Windows 7";"Rachel's Experiment (D.T.)";"1.0";"2";"1";"1";"2";"1";"1";"2014-10-16 13:32:45.059";"2014-10-16 13:47:19.269";"1";"0";"0";"17";"16";"module.training_block1.exec-6760.GoNoGo1";;;;;;;;;;;;;;;;;;;;;;;"1257";"2014-10-16 13:35:15.506";"NST_correctLoc";"32";"0";"FINISHED";"LEFT";"success";"374";"0";"2014-10-16 13:35:14.242";"3";;;;;;;;;;;;;;;;;;;;;;;;;;;;;;;;;;;;;;;;;;;;;;;;;;;;;;;;;
"C1419964";;;"Windows 7";"Rachel's Experiment (D.T.)";"1.0";"2";"1";"1";"2";"1";"1";"2014-10-16 13:32:45.059";"2014-10-16 13:47:19.269";"1";"0";"0";"18";"17";"module.training_block1.exec-6760.GoNoGo1";;;;;;;;;;;;;;;;;;;;;;;"1257";"2014-10-16 13:35:18.049";"NST_correctLoc";"10";"1";"FINISHED";"RIGHT";"success";"384";"0";"2014-10-16 13:35:16.785";"2";;;;;;;;;;;;;;;;;;;;;;;;;;;;;;;;;;;;;;;;;;;;;;;;;;;;;;;;;
"C1419964";;;"Windows 7";"Rachel's Experiment (D.T.)";"1.0";"2";"1";"1";"2";"1";"1";"2014-10-16 13:32:45.059";"2014-10-16 13:47:19.269";"1";"0";"0";"19";"18";"module.training_block1.exec-6760.GoNoGo1";;;;;;;;;;;;;;;;;;;;;;;"1257";"2014-10-16 13:35:20.591";"NST_correctLoc";"11";"1";"FINISHED";"RIGHT";"success";"353";"0";"2014-10-16 13:35:19.328";"2";;;;;;;;;;;;;;;;;;;;;;;;;;;;;;;;;;;;;;;;;;;;;;;;;;;;;;;;;
"C1419964";;;"Windows 7";"Rachel's Experiment (D.T.)";"1.0";"2";"1";"1";"2";"1";"1";"2014-10-16 13:32:45.059";"2014-10-16 13:47:19.269";"1";"0";"0";"20";"19";"module.training_block1.exec-6760.GoNoGo1";;;;;;;;;;;;;;;;;;;;;;;"1257";"2014-10-16 13:35:23.134";"NST_correctLoc";"0";"1";"FINISHED";"RIGHT";"success";"370";"0";"2014-10-16 13:35:21.871";"1";;;;;;;;;;;;;;;;;;;;;;;;;;;;;;;;;;;;;;;;;;;;;;;;;;;;;;;;;
"C1419964";;;"Windows 7";"Rachel's Experiment (D.T.)";"1.0";"2";"1";"1";"2";"1";"1";"2014-10-16 13:32:45.059";"2014-10-16 13:47:19.269";"1";"0";"0";"21";"20";"module.training_block1.exec-6760.GoNoGo1";;;;;;;;;;;;;;;;;;;;;;;"1257";"2014-10-16 13:35:25.677";"NST_correctLoc";"26";"0";"FINISHED";"LEFT";"success";"411";"0";"2014-10-16 13:35:24.413";"3";;;;;;;;;;;;;;;;;;;;;;;;;;;;;;;;;;;;;;;;;;;;;;;;;;;;;;;;;
"C1419964";;;"Windows 7";"Rachel's Experiment (D.T.)";"1.0";"2";"1";"1";"2";"1";"1";"2014-10-16 13:32:45.059";"2014-10-16 13:47:19.269";"1";"0";"0";"22";"21";"module.training_block1.exec-6760.GoNoGo1";;;;;;;;;;;;;;;;;;;;;;;"1258";"2014-10-16 13:35:28.220";"NST_correctLoc";"1";"1";"FINISHED";"RIGHT";"success";"333";"0";"2014-10-16 13:35:26.956";"1";;;;;;;;;;;;;;;;;;;;;;;;;;;;;;;;;;;;;;;;;;;;;;;;;;;;;;;;;
"C1419964";;;"Windows 7";"Rachel's Experiment (D.T.)";"1.0";"2";"1";"1";"2";"1";"1";"2014-10-16 13:32:45.059";"2014-10-16 13:47:19.269";"1";"0";"0";"23";"22";"module.training_block1.exec-6760.GoNoGo1";;;;;;;;;;;;;;;;;;;;;;;"1257";"2014-10-16 13:35:30.763";"NST_correctLoc";"20";"0";"FINISHED";"LEFT";"success";"317";"0";"2014-10-16 13:35:29.499";"3";;;;;;;;;;;;;;;;;;;;;;;;;;;;;;;;;;;;;;;;;;;;;;;;;;;;;;;;;
"C1419964";;;"Windows 7";"Rachel's Experiment (D.T.)";"1.0";"2";"1";"1";"2";"1";"1";"2014-10-16 13:32:45.059";"2014-10-16 13:47:19.269";"1";"0";"0";"24";"23";"module.training_block1.exec-6760.GoNoGo1";;;;;;;;;;;;;;;;;;;;;;;"1257";"2014-10-16 13:35:33.305";"NST_correctLoc";"13";"1";"FINISHED";"RIGHT";"success";"343";"0";"2014-10-16 13:35:32.042";"2";;;;;;;;;;;;;;;;;;;;;;;;;;;;;;;;;;;;;;;;;;;;;;;;;;;;;;;;;
"C1419964";;;"Windows 7";"Rachel's Experiment (D.T.)";"1.0";"2";"1";"1";"2";"1";"1";"2014-10-16 13:32:45.059";"2014-10-16 13:47:19.269";"1";"0";"0";"25";"24";"module.training_block1.exec-6760.GoNoGo1";;;;;;;;;;;;;;;;;;;;;;;"1258";"2014-10-16 13:35:35.848";"NST_correctLoc";"30";"0";"FINISHED";"LEFT";"success";"376";"0";"2014-10-16 13:35:34.585";"3";;;;;;;;;;;;;;;;;;;;;;;;;;;;;;;;;;;;;;;;;;;;;;;;;;;;;;;;;
"C1419964";;;"Windows 7";"Rachel's Experiment (D.T.)";"1.0";"2";"1";"1";"2";"1";"1";"2014-10-16 13:32:45.059";"2014-10-16 13:47:19.269";"1";"0";"0";"26";"25";"module.training_block1.exec-6760.GoNoGo1";;;;;;;;;;;;;;;;;;;;;;;"1257";"2014-10-16 13:35:38.391";"NST_correctLoc";"23";"1";"FINISHED";"RIGHT";"success";"377";"0";"2014-10-16 13:35:37.127";"3";;;;;;;;;;;;;;;;;;;;;;;;;;;;;;;;;;;;;;;;;;;;;;;;;;;;;;;;;
"C1419964";;;"Windows 7";"Rachel's Experiment (D.T.)";"1.0";"2";"1";"1";"2";"1";"1";"2014-10-16 13:32:45.059";"2014-10-16 13:47:19.269";"1";"0";"0";"27";"26";"module.training_block1.exec-6760.GoNoGo1";;;;;;;;;;;;;;;;;;;;;;;"1257";"2014-10-16 13:35:40.934";"NST_correctLoc";"17";"0";"FINISHED";"LEFT";"success";"346";"0";"2014-10-16 13:35:39.670";"2";;;;;;;;;;;;;;;;;;;;;;;;;;;;;;;;;;;;;;;;;;;;;;;;;;;;;;;;;
"C1419964";;;"Windows 7";"Rachel's Experiment (D.T.)";"1.0";"2";"1";"1";"2";"1";"1";"2014-10-16 13:32:45.059";"2014-10-16 13:47:19.269";"1";"0";"0";"28";"27";"module.training_block1.exec-6760.GoNoGo1";;;;;;;;;;;;;;;;;;;;;;;"1258";"2014-10-16 13:35:43.477";"NST_correctLoc";"33";"0";"FINISHED";"LEFT";"success";"348";"0";"2014-10-16 13:35:42.213";"3";;;;;;;;;;;;;;;;;;;;;;;;;;;;;;;;;;;;;;;;;;;;;;;;;;;;;;;;;
"C1419964";;;"Windows 7";"Rachel's Experiment (D.T.)";"1.0";"2";"1";"1";"2";"1";"1";"2014-10-16 13:32:45.059";"2014-10-16 13:47:19.269";"1";"0";"0";"29";"28";"module.training_block1.exec-6760.GoNoGo1";;;;;;;;;;;;;;;;;;;;;;;"1258";"2014-10-16 13:35:46.019";"NST_correctLoc";"25";"0";"FINISHED";"LEFT";"success";"373";"0";"2014-10-16 13:35:44.756";"3";;;;;;;;;;;;;;;;;;;;;;;;;;;;;;;;;;;;;;;;;;;;;;;;;;;;;;;;;
"C1419964";;;"Windows 7";"Rachel's Experiment (D.T.)";"1.0";"2";"1";"1";"2";"1";"1";"2014-10-16 13:32:45.059";"2014-10-16 13:47:19.269";"1";"0";"0";"30";"29";"module.training_block1.exec-6760.GoNoGo1";;;;;;;;;;;;;;;;;;;;;;;"1258";"2014-10-16 13:35:48.562";"NST_correctLoc";"18";"1";"FINISHED";"RIGHT";"success";"374";"0";"2014-10-16 13:35:47.299";"3";;;;;;;;;;;;;;;;;;;;;;;;;;;;;;;;;;;;;;;;;;;;;;;;;;;;;;;;;
"C1419964";;;"Windows 7";"Rachel's Experiment (D.T.)";"1.0";"2";"1";"1";"2";"1";"1";"2014-10-16 13:32:45.059";"2014-10-16 13:47:19.269";"1";"0";"0";"31";"30";"module.training_block1.exec-6760.GoNoGo1";;;;;;;;;;;;;;;;;;;;;;;"1257";"2014-10-16 13:35:51.105";"NST_correctLoc";"15";"1";"FINISHED";"RIGHT";"success";"351";"0";"2014-10-16 13:35:49.841";"2";;;;;;;;;;;;;;;;;;;;;;;;;;;;;;;;;;;;;;;;;;;;;;;;;;;;;;;;;
"C1419964";;;"Windows 7";"Rachel's Experiment (D.T.)";"1.0";"2";"1";"1";"2";"1";"1";"2014-10-16 13:32:45.059";"2014-10-16 13:47:19.269";"1";"0";"0";"32";"31";"module.training_block1.exec-6760.GoNoGo1";;;;;;;;;;;;;;;;;;;;;;;"1258";"2014-10-16 13:35:53.648";"NST_correctLoc";"12";"1";"FINISHED";"RIGHT";"success";"321";"0";"2014-10-16 13:35:52.384";"2";;;;;;;;;;;;;;;;;;;;;;;;;;;;;;;;;;;;;;;;;;;;;;;;;;;;;;;;;
"C1419964";;;"Windows 7";"Rachel's Experiment (D.T.)";"1.0";"2";"1";"1";"2";"1";"1";"2014-10-16 13:32:45.059";"2014-10-16 13:47:19.269";"1";"0";"0";"33";"32";"module.training_block1.exec-6760.GoNoGo1";;;;;;;;;;;;;;;;;;;;;;;"1258";"2014-10-16 13:35:56.191";"NST_correctLoc";"34";"0";"FINISHED";"LEFT";"success";"370";"0";"2014-10-16 13:35:54.927";"3";;;;;;;;;;;;;;;;;;;;;;;;;;;;;;;;;;;;;;;;;;;;;;;;;;;;;;;;;
"C1419964";;;"Windows 7";"Rachel's Experiment (D.T.)";"1.0";"2";"1";"1";"2";"1";"1";"2014-10-16 13:32:45.059";"2014-10-16 13:47:19.269";"1";"0";"0";"34";"33";"module.training_block1.exec-6760.GoNoGo1";;;;;;;;;;;;;;;;;;;;;;;"1257";"2014-10-16 13:35:58.733";"NST_correctLoc";"7";"1";"FINISHED";"RIGHT";"success";"315";"0";"2014-10-16 13:35:57.470";"1";;;;;;;;;;;;;;;;;;;;;;;;;;;;;;;;;;;;;;;;;;;;;;;;;;;;;;;;;
"C1419964";;;"Windows 7";"Rachel's Experiment (D.T.)";"1.0";"2";"1";"1";"2";"1";"1";"2014-10-16 13:32:45.059";"2014-10-16 13:47:19.269";"1";"0";"0";"35";"34";"module.training_block1.exec-6760.GoNoGo1";;;;;;;;;;;;;;;;;;;;;;;"1257";"2014-10-16 13:36:01.276";"NST_correctLoc";"8";"0";"FINISHED";"LEFT";"success";"283";"0";"2014-10-16 13:36:00.013";"1";;;;;;;;;;;;;;;;;;;;;;;;;;;;;;;;;;;;;;;;;;;;;;;;;;;;;;;;;
"C1419964";;;"Windows 7";"Rachel's Experiment (D.T.)";"1.0";"2";"1";"1";"2";"1";"1";"2014-10-16 13:32:45.059";"2014-10-16 13:47:19.269";"1";"0";"0";"36";"35";"module.training_block1.exec-6760.GoNoGo1";;;;;;;;;;;;;;;;;;;;;;;"1258";"2014-10-16 13:36:03.819";"NST_correctLoc";"5";"0";"FINISHED";"LEFT";"success";"325";"0";"2014-10-16 13:36:02.555";"1";;;;;;;;;;;;;;;;;;;;;;;;;;;;;;;;;;;;;;;;;;;;;;;;;;;;;;;;;
"C1419964";;;"Windows 7";"Rachel's Experiment (D.T.)";"1.0";"2";"1";"1";"2";"1";"1";"2014-10-16 13:32:45.059";"2014-10-16 13:47:19.269";"1";"0";"0";"37";"36";"module.training_block1.exec-6760.GoNoGo1";;;;;;;;;;;;;;;;;;;;;;;"1257";"2014-10-16 13:36:06.362";"NST_correctLoc";"9";"1";"FINISHED";"RIGHT";"success";"294";"0";"2014-10-16 13:36:05.098";"2";;;;;;;;;;;;;;;;;;;;;;;;;;;;;;;;;;;;;;;;;;;;;;;;;;;;;;;;;
"C1419964";;;"Windows 7";"Rachel's Experiment (D.T.)";"1.0";"2";"1";"1";"2";"1";"1";"2014-10-16 13:32:45.059";"2014-10-16 13:47:19.269";"1";"0";"0";"38";"37";"module.training_block1.exec-6760.GoNoGo1";;;;;;;;;;;;;;;;;;;;;;;"1258";"2014-10-16 13:36:08.905";"NST_correctLoc";"3";"0";"FINISHED";"LEFT";"success";"344";"0";"2014-10-16 13:36:07.641";"1";;;;;;;;;;;;;;;;;;;;;;;;;;;;;;;;;;;;;;;;;;;;;;;;;;;;;;;;;
"C1419964";;;"Windows 7";"Rachel's Experiment (D.T.)";"1.0";"2";"1";"1";"2";"1";"1";"2014-10-16 13:32:45.059";"2014-10-16 13:47:19.269";"1";"0";"0";"39";"38";"module.training_block1.exec-6760.GoNoGo1";;;;;;;;;;;;;;;;;;;;;;;"1257";"2014-10-16 13:36:11.447";"NST_correctLoc";"4";"1";"FINISHED";"RIGHT";"success";"312";"0";"2014-10-16 13:36:10.184";"1";;;;;;;;;;;;;;;;;;;;;;;;;;;;;;;;;;;;;;;;;;;;;;;;;;;;;;;;;
"C1419964";;;"Windows 7";"Rachel's Experiment (D.T.)";"1.0";"2";"1";"1";"2";"1";"1";"2014-10-16 13:32:45.059";"2014-10-16 13:47:19.269";"1";"0";"0";"40";"39";"module.training_block1.exec-6760.GoNoGo1";;;;;;;;;;;;;;;;;;;;;;;"1257";"2014-10-16 13:36:13.990";"NST_correctLoc";"21";"0";"FINISHED";"LEFT";"success";"306";"0";"2014-10-16 13:36:12.727";"3";;;;;;;;;;;;;;;;;;;;;;;;;;;;;;;;;;;;;;;;;;;;;;;;;;;;;;;;;
"C1419964";;;"Windows 7";"Rachel's Experiment (D.T.)";"1.0";"2";"1";"1";"2";"1";"1";"2014-10-16 13:32:45.059";"2014-10-16 13:47:19.269";"1";"0";"0";"41";"40";"module.training_block1.exec-6760.GoNoGo1";;;;;;;;;;;;;;;;;;;;;;;"1258";"2014-10-16 13:36:16.533";"NST_correctLoc";"16";"1";"FINISHED";"RIGHT";"success";"315";"0";"2014-10-16 13:36:15.269";"2";;;;;;;;;;;;;;;;;;;;;;;;;;;;;;;;;;;;;;;;;;;;;;;;;;;;;;;;;
"C1419964";;;"Windows 7";"Rachel's Experiment (D.T.)";"1.0";"2";"1";"1";"2";"1";"1";"2014-10-16 13:32:45.059";"2014-10-16 13:47:19.269";"1";"0";"0";"42";"41";"module.training_block1.exec-6760.GoNoGo1";;;;;;;;;;;;;;;;;;;;;;;"1257";"2014-10-16 13:36:19.076";"NST_correctLoc";"31";"0";"FINISHED";"LEFT";"success";"284";"0";"2014-10-16 13:36:17.812";"3";;;;;;;;;;;;;;;;;;;;;;;;;;;;;;;;;;;;;;;;;;;;;;;;;;;;;;;;;
"C1419964";;;"Windows 7";"Rachel's Experiment (D.T.)";"1.0";"2";"1";"1";"2";"1";"1";"2014-10-16 13:32:45.059";"2014-10-16 13:47:19.269";"1";"0";"0";"43";"42";"module.training_block1.exec-6760.GoNoGo1";;;;;;;;;;;;;;;;;;;;;;;"1258";"2014-10-16 13:36:21.619";"NST_correctLoc";"19";"1";"FINISHED";"RIGHT";"success";"318";"0";"2014-10-16 13:36:20.355";"3";;;;;;;;;;;;;;;;;;;;;;;;;;;;;;;;;;;;;;;;;;;;;;;;;;;;;;;;;
"C1419964";;;"Windows 7";"Rachel's Experiment (D.T.)";"1.0";"2";"1";"1";"2";"1";"1";"2014-10-16 13:32:45.059";"2014-10-16 13:47:19.269";"1";"0";"0";"44";"43";"module.training_block1.exec-6760.GoNoGo1";;;;;;;;;;;;;;;;;;;;;;;"1252";"2014-10-16 13:36:24.161";"NST_correctLoc";"6";"1";"FINISHED";"RIGHT";"success";"305";"0";"2014-10-16 13:36:22.898";"1";;;;;;;;;;;;;;;;;;;;;;;;;;;;;;;;;;;;;;;;;;;;;;;;;;;;;;;;;
"C1419964";;;"Windows 7";"Rachel's Experiment (D.T.)";"1.0";"2";"1";"1";"2";"1";"1";"2014-10-16 13:32:45.059";"2014-10-16 13:47:19.269";"1";"0";"0";"45";"44";"module.training_block1.exec-6760.GoNoGo1";;;;;;;;;;;;;;;;;;;;;;;"1258";"2014-10-16 13:36:26.704";"NST_correctLoc";"35";"1";"FINISHED";"RIGHT";"success";"408";"0";"2014-10-16 13:36:25.441";"3";;;;;;;;;;;;;;;;;;;;;;;;;;;;;;;;;;;;;;;;;;;;;;;;;;;;;;;;;
"C1419964";;;"Windows 7";"Rachel's Experiment (D.T.)";"1.0";"2";"1";"1";"2";"1";"1";"2014-10-16 13:32:45.059";"2014-10-16 13:47:19.269";"1";"0";"0";"46";"45";"module.training_block1.exec-6760.GoNoGo1";;;;;;;;;;;;;;;;;;;;;;;"1257";"2014-10-16 13:36:29.247";"NST_correctLoc";"2";"0";"FINISHED";"LEFT";"success";"361";"0";"2014-10-16 13:36:27.983";"1";;;;;;;;;;;;;;;;;;;;;;;;;;;;;;;;;;;;;;;;;;;;;;;;;;;;;;;;;
"C1419964";;;"Windows 7";"Rachel's Experiment (D.T.)";"1.0";"2";"1";"1";"2";"1";"1";"2014-10-16 13:32:45.059";"2014-10-16 13:47:19.269";"1";"0";"0";"47";"46";"module.training_block1.exec-6760.GoNoGo1";;;;;;;;;;;;;;;;;;;;;;;"1257";"2014-10-16 13:36:31.790";"NST_correctLoc";"29";"0";"FINISHED";"LEFT";"success";"338";"0";"2014-10-16 13:36:30.526";"3";;;;;;;;;;;;;;;;;;;;;;;;;;;;;;;;;;;;;;;;;;;;;;;;;;;;;;;;;
"C1419964";;;"Windows 7";"Rachel's Experiment (D.T.)";"1.0";"2";"1";"1";"2";"1";"1";"2014-10-16 13:32:45.059";"2014-10-16 13:47:19.269";"1";"0";"0";"48";"47";"module.training_block1.exec-6760.GoNoGo1";;;;;;;;;;;;;;;;;;;;;;;"1257";"2014-10-16 13:36:34.333";"NST_correctLoc";"14";"0";"FINISHED";"LEFT";"success";"371";"0";"2014-10-16 13:36:33.069";"2";;;;;;;;;;;;;;;;;;;;;;;;;;;;;;;;;;;;;;;;;;;;;;;;;;;;;;;;;
"C1419964";;;"Windows 7";"Rachel's Experiment (D.T.)";"1.0";"2";"1";"1";"2";"1";"1";"2014-10-16 13:32:45.059";"2014-10-16 13:47:19.269";"1";"0";"0";"49";"48";"module.training_block1.exec-6760.GoNoGo1";;;;;;;;;;;;;;;;;;;;;;;"1261";"2014-10-16 13:36:36.875";"NST_correctLoc";"27";"1";"FINISHED";"RIGHT";"success";"320";"0";"2014-10-16 13:36:35.612";"3";;;;;;;;;;;;;;;;;;;;;;;;;;;;;;;;;;;;;;;;;;;;;;;;;;;;;;;;;
"C1419964";;;"Windows 7";"Rachel's Experiment (D.T.)";"1.0";"2";"1";"1";"2";"1";"1";"2014-10-16 13:32:45.059";"2014-10-16 13:47:19.269";"1";"0";"0";"50";"49";"module.training_block1.exec-6760.GoNoGo1";;;;;;;;;;;;;;;;;;;;;;;"1257";"2014-10-16 13:36:39.418";"NST_correctLoc";"22";"1";"FINISHED";"RIGHT";"success";"317";"0";"2014-10-16 13:36:38.155";"3";;;;;;;;;;;;;;;;;;;;;;;;;;;;;;;;;;;;;;;;;;;;;;;;;;;;;;;;;
"C1419964";;;"Windows 7";"Rachel's Experiment (D.T.)";"1.0";"2";"1";"1";"2";"1";"1";"2014-10-16 13:32:45.059";"2014-10-16 13:47:19.269";"1";"0";"0";"51";"50";"module.training_block1.exec-6760.GoNoGo1";;;;;;;;;;;;;;;;;;;;;;;"1258";"2014-10-16 13:36:41.961";"NST_correctLoc";"24";"1";"FINISHED";"RIGHT";"success";"335";"0";"2014-10-16 13:36:40.697";"3";;;;;;;;;;;;;;;;;;;;;;;;;;;;;;;;;;;;;;;;;;;;;;;;;;;;;;;;;
"C1419964";;;"Windows 7";"Rachel's Experiment (D.T.)";"1.0";"2";"1";"1";"2";"1";"1";"2014-10-16 13:32:45.059";"2014-10-16 13:47:19.269";"1";"0";"0";"52";"51";"module.training_block2.exec-7743.GoNoGo2";;;;;;;;;;;;;;;;;;;;;;;;;;;;;;;;;;;"1261";"2014-10-16 13:36:55.627";"NST_correctLoc";"6";"0";"FINISHED";"LEFT";"success";"441";"0";"2014-10-16 13:36:54.363";"1";;;;;;;;;;;;;;;;;;;;;;;;;;;;;;;;;;;;;;;;;;;;;
"C1419964";;;"Windows 7";"Rachel's Experiment (D.T.)";"1.0";"2";"1";"1";"2";"1";"1";"2014-10-16 13:32:45.059";"2014-10-16 13:47:19.269";"1";"0";"0";"53";"52";"module.training_block2.exec-7743.GoNoGo2";;;;;;;;;;;;;;;;;;;;;;;;;;;;;;;;;;;"1261";"2014-10-16 13:36:58.170";"NST_correctLoc";"7";"0";"FINISHED";"LEFT";"success";"362";"0";"2014-10-16 13:36:56.906";"1";;;;;;;;;;;;;;;;;;;;;;;;;;;;;;;;;;;;;;;;;;;;;
"C1419964";;;"Windows 7";"Rachel's Experiment (D.T.)";"1.0";"2";"1";"1";"2";"1";"1";"2014-10-16 13:32:45.059";"2014-10-16 13:47:19.269";"1";"0";"0";"54";"53";"module.training_block2.exec-7743.GoNoGo2";;;;;;;;;;;;;;;;;;;;;;;;;;;;;;;;;;;"1261";"2014-10-16 13:37:00.712";"NST_correctLoc";"31";"1";"FINISHED";"RIGHT";"success";"371";"0";"2014-10-16 13:36:59.449";"3";;;;;;;;;;;;;;;;;;;;;;;;;;;;;;;;;;;;;;;;;;;;;
"C1419964";;;"Windows 7";"Rachel's Experiment (D.T.)";"1.0";"2";"1";"1";"2";"1";"1";"2014-10-16 13:32:45.059";"2014-10-16 13:47:19.269";"1";"0";"0";"55";"54";"module.training_block2.exec-7743.GoNoGo2";;;;;;;;;;;;;;;;;;;;;;;;;;;;;;;;;;;"1261";"2014-10-16 13:37:03.255";"NST_correctLoc";"14";"0";"FINISHED";"LEFT";"success";"348";"0";"2014-10-16 13:37:01.992";"2";;;;;;;;;;;;;;;;;;;;;;;;;;;;;;;;;;;;;;;;;;;;;
"C1419964";;;"Windows 7";"Rachel's Experiment (D.T.)";"1.0";"2";"1";"1";"2";"1";"1";"2014-10-16 13:32:45.059";"2014-10-16 13:47:19.269";"1";"0";"0";"56";"55";"module.training_block2.exec-7743.GoNoGo2";;;;;;;;;;;;;;;;;;;;;;;;;;;;;;;;;;;"1261";"2014-10-16 13:37:05.798";"NST_correctLoc";"29";"0";"FINISHED";"LEFT";"success";"366";"0";"2014-10-16 13:37:04.534";"3";;;;;;;;;;;;;;;;;;;;;;;;;;;;;;;;;;;;;;;;;;;;;
"C1419964";;;"Windows 7";"Rachel's Experiment (D.T.)";"1.0";"2";"1";"1";"2";"1";"1";"2014-10-16 13:32:45.059";"2014-10-16 13:47:19.269";"1";"0";"0";"57";"56";"module.training_block2.exec-7743.GoNoGo2";;;;;;;;;;;;;;;;;;;;;;;;;;;;;;;;;;;"1261";"2014-10-16 13:37:08.341";"NST_correctLoc";"25";"0";"FINISHED";"LEFT";"success";"335";"0";"2014-10-16 13:37:07.077";"3";;;;;;;;;;;;;;;;;;;;;;;;;;;;;;;;;;;;;;;;;;;;;
"C1419964";;;"Windows 7";"Rachel's Experiment (D.T.)";"1.0";"2";"1";"1";"2";"1";"1";"2014-10-16 13:32:45.059";"2014-10-16 13:47:19.269";"1";"0";"0";"58";"57";"module.training_block2.exec-7743.GoNoGo2";;;;;;;;;;;;;;;;;;;;;;;;;;;;;;;;;;;"1261";"2014-10-16 13:37:10.884";"NST_correctLoc";"35";"0";"FINISHED";"LEFT";"success";"336";"0";"2014-10-16 13:37:09.620";"3";;;;;;;;;;;;;;;;;;;;;;;;;;;;;;;;;;;;;;;;;;;;;
"C1419964";;;"Windows 7";"Rachel's Experiment (D.T.)";"1.0";"2";"1";"1";"2";"1";"1";"2014-10-16 13:32:45.059";"2014-10-16 13:47:19.269";"1";"0";"0";"59";"58";"module.training_block2.exec-7743.GoNoGo2";;;;;;;;;;;;;;;;;;;;;;;;;;;;;;;;;;;"1261";"2014-10-16 13:37:13.426";"NST_correctLoc";"23";"0";"FINISHED";"LEFT";"success";"321";"0";"2014-10-16 13:37:12.163";"3";;;;;;;;;;;;;;;;;;;;;;;;;;;;;;;;;;;;;;;;;;;;;
"C1419964";;;"Windows 7";"Rachel's Experiment (D.T.)";"1.0";"2";"1";"1";"2";"1";"1";"2014-10-16 13:32:45.059";"2014-10-16 13:47:19.269";"1";"0";"0";"60";"59";"module.training_block2.exec-7743.GoNoGo2";;;;;;;;;;;;;;;;;;;;;;;;;;;;;;;;;;;"1261";"2014-10-16 13:37:15.969";"NST_correctLoc";"2";"0";"FINISHED";"LEFT";"success";"282";"0";"2014-10-16 13:37:14.706";"1";;;;;;;;;;;;;;;;;;;;;;;;;;;;;;;;;;;;;;;;;;;;;
"C1419964";;;"Windows 7";"Rachel's Experiment (D.T.)";"1.0";"2";"1";"1";"2";"1";"1";"2014-10-16 13:32:45.059";"2014-10-16 13:47:19.269";"1";"0";"0";"61";"60";"module.training_block2.exec-7743.GoNoGo2";;;;;;;;;;;;;;;;;;;;;;;;;;;;;;;;;;;"1261";"2014-10-16 13:37:18.512";"NST_correctLoc";"1";"1";"FINISHED";"RIGHT";"success";"347";"0";"2014-10-16 13:37:17.248";"1";;;;;;;;;;;;;;;;;;;;;;;;;;;;;;;;;;;;;;;;;;;;;
"C1419964";;;"Windows 7";"Rachel's Experiment (D.T.)";"1.0";"2";"1";"1";"2";"1";"1";"2014-10-16 13:32:45.059";"2014-10-16 13:47:19.269";"1";"0";"0";"62";"61";"module.training_block2.exec-7743.GoNoGo2";;;;;;;;;;;;;;;;;;;;;;;;;;;;;;;;;;;"1261";"2014-10-16 13:37:21.055";"NST_correctLoc";"19";"0";"FINISHED";"LEFT";"success";"309";"0";"2014-10-16 13:37:19.791";"3";;;;;;;;;;;;;;;;;;;;;;;;;;;;;;;;;;;;;;;;;;;;;
"C1419964";;;"Windows 7";"Rachel's Experiment (D.T.)";"1.0";"2";"1";"1";"2";"1";"1";"2014-10-16 13:32:45.059";"2014-10-16 13:47:19.269";"1";"0";"0";"63";"62";"module.training_block2.exec-7743.GoNoGo2";;;;;;;;;;;;;;;;;;;;;;;;;;;;;;;;;;;"1261";"2014-10-16 13:37:23.598";"NST_correctLoc";"4";"1";"FINISHED";"RIGHT";"success";"302";"0";"2014-10-16 13:37:22.334";"1";;;;;;;;;;;;;;;;;;;;;;;;;;;;;;;;;;;;;;;;;;;;;
"C1419964";;;"Windows 7";"Rachel's Experiment (D.T.)";"1.0";"2";"1";"1";"2";"1";"1";"2014-10-16 13:32:45.059";"2014-10-16 13:47:19.269";"1";"0";"0";"64";"63";"module.training_block2.exec-7743.GoNoGo2";;;;;;;;;;;;;;;;;;;;;;;;;;;;;;;;;;;"1261";"2014-10-16 13:37:26.140";"NST_correctLoc";"3";"0";"FINISHED";"LEFT";"success";"295";"0";"2014-10-16 13:37:24.877";"1";;;;;;;;;;;;;;;;;;;;;;;;;;;;;;;;;;;;;;;;;;;;;
"C1419964";;;"Windows 7";"Rachel's Experiment (D.T.)";"1.0";"2";"1";"1";"2";"1";"1";"2014-10-16 13:32:45.059";"2014-10-16 13:47:19.269";"1";"0";"0";"65";"64";"module.training_block2.exec-7743.GoNoGo2";;;;;;;;;;;;;;;;;;;;;;;;;;;;;;;;;;;"1261";"2014-10-16 13:37:28.683";"NST_correctLoc";"27";"1";"FINISHED";"RIGHT";"success";"312";"0";"2014-10-16 13:37:27.420";"3";;;;;;;;;;;;;;;;;;;;;;;;;;;;;;;;;;;;;;;;;;;;;
"C1419964";;;"Windows 7";"Rachel's Experiment (D.T.)";"1.0";"2";"1";"1";"2";"1";"1";"2014-10-16 13:32:45.059";"2014-10-16 13:47:19.269";"1";"0";"0";"66";"65";"module.training_block2.exec-7743.GoNoGo2";;;;;;;;;;;;;;;;;;;;;;;;;;;;;;;;;;;"1261";"2014-10-16 13:37:31.226";"NST_correctLoc";"10";"1";"FINISHED";"RIGHT";"success";"345";"0";"2014-10-16 13:37:29.962";"2";;;;;;;;;;;;;;;;;;;;;;;;;;;;;;;;;;;;;;;;;;;;;
"C1419964";;;"Windows 7";"Rachel's Experiment (D.T.)";"1.0";"2";"1";"1";"2";"1";"1";"2014-10-16 13:32:45.059";"2014-10-16 13:47:19.269";"1";"0";"0";"67";"66";"module.training_block2.exec-7743.GoNoGo2";;;;;;;;;;;;;;;;;;;;;;;;;;;;;;;;;;;"1261";"2014-10-16 13:37:33.769";"NST_correctLoc";"13";"1";"FINISHED";"RIGHT";"success";"314";"0";"2014-10-16 13:37:32.505";"2";;;;;;;;;;;;;;;;;;;;;;;;;;;;;;;;;;;;;;;;;;;;;
"C1419964";;;"Windows 7";"Rachel's Experiment (D.T.)";"1.0";"2";"1";"1";"2";"1";"1";"2014-10-16 13:32:45.059";"2014-10-16 13:47:19.269";"1";"0";"0";"68";"67";"module.training_block2.exec-7743.GoNoGo2";;;;;;;;;;;;;;;;;;;;;;;;;;;;;;;;;;;"1261";"2014-10-16 13:37:36.312";"NST_correctLoc";"22";"0";"FINISHED";"LEFT";"success";"300";"0";"2014-10-16 13:37:35.048";"3";;;;;;;;;;;;;;;;;;;;;;;;;;;;;;;;;;;;;;;;;;;;;
"C1419964";;;"Windows 7";"Rachel's Experiment (D.T.)";"1.0";"2";"1";"1";"2";"1";"1";"2014-10-16 13:32:45.059";"2014-10-16 13:47:19.269";"1";"0";"0";"69";"68";"module.training_block2.exec-7743.GoNoGo2";;;;;;;;;;;;;;;;;;;;;;;;;;;;;;;;;;;"1261";"2014-10-16 13:37:38.854";"NST_correctLoc";"5";"1";"FINISHED";"RIGHT";"success";"309";"0";"2014-10-16 13:37:37.591";"1";;;;;;;;;;;;;;;;;;;;;;;;;;;;;;;;;;;;;;;;;;;;;
"C1419964";;;"Windows 7";"Rachel's Experiment (D.T.)";"1.0";"2";"1";"1";"2";"1";"1";"2014-10-16 13:32:45.059";"2014-10-16 13:47:19.269";"1";"0";"0";"70";"69";"module.training_block2.exec-7743.GoNoGo2";;;;;;;;;;;;;;;;;;;;;;;;;;;;;;;;;;;"1261";"2014-10-16 13:37:41.397";"NST_correctLoc";"28";"1";"FINISHED";"RIGHT";"success";"350";"0";"2014-10-16 13:37:40.134";"3";;;;;;;;;;;;;;;;;;;;;;;;;;;;;;;;;;;;;;;;;;;;;
"C1419964";;;"Windows 7";"Rachel's Experiment (D.T.)";"1.0";"2";"1";"1";"2";"1";"1";"2014-10-16 13:32:45.059";"2014-10-16 13:47:19.269";"1";"0";"0";"71";"70";"module.training_block2.exec-7743.GoNoGo2";;;;;;;;;;;;;;;;;;;;;;;;;;;;;;;;;;;"1261";"2014-10-16 13:37:43.940";"NST_correctLoc";"34";"1";"FINISHED";"RIGHT";"success";"343";"0";"2014-10-16 13:37:42.676";"3";;;;;;;;;;;;;;;;;;;;;;;;;;;;;;;;;;;;;;;;;;;;;
"C1419964";;;"Windows 7";"Rachel's Experiment (D.T.)";"1.0";"2";"1";"1";"2";"1";"1";"2014-10-16 13:32:45.059";"2014-10-16 13:47:19.269";"1";"0";"0";"72";"71";"module.training_block2.exec-7743.GoNoGo2";;;;;;;;;;;;;;;;;;;;;;;;;;;;;;;;;;;"1261";"2014-10-16 13:37:46.483";"NST_correctLoc";"32";"1";"FINISHED";"RIGHT";"success";"368";"0";"2014-10-16 13:37:45.219";"3";;;;;;;;;;;;;;;;;;;;;;;;;;;;;;;;;;;;;;;;;;;;;
"C1419964";;;"Windows 7";"Rachel's Experiment (D.T.)";"1.0";"2";"1";"1";"2";"1";"1";"2014-10-16 13:32:45.059";"2014-10-16 13:47:19.269";"1";"0";"0";"73";"72";"module.training_block2.exec-7743.GoNoGo2";;;;;;;;;;;;;;;;;;;;;;;;;;;;;;;;;;;"1261";"2014-10-16 13:37:49.026";"NST_correctLoc";"33";"1";"FINISHED";"RIGHT";"success";"330";"0";"2014-10-16 13:37:47.762";"3";;;;;;;;;;;;;;;;;;;;;;;;;;;;;;;;;;;;;;;;;;;;;
"C1419964";;;"Windows 7";"Rachel's Experiment (D.T.)";"1.0";"2";"1";"1";"2";"1";"1";"2014-10-16 13:32:45.059";"2014-10-16 13:47:19.269";"1";"0";"0";"74";"73";"module.training_block2.exec-7743.GoNoGo2";;;;;;;;;;;;;;;;;;;;;;;;;;;;;;;;;;;"1261";"2014-10-16 13:37:51.584";"NST_correctLoc";"8";"0";"FINISHED";"LEFT";"success";"355";"0";"2014-10-16 13:37:50.320";"1";;;;;;;;;;;;;;;;;;;;;;;;;;;;;;;;;;;;;;;;;;;;;
"C1419964";;;"Windows 7";"Rachel's Experiment (D.T.)";"1.0";"2";"1";"1";"2";"1";"1";"2014-10-16 13:32:45.059";"2014-10-16 13:47:19.269";"1";"0";"0";"75";"74";"module.training_block2.exec-7743.GoNoGo2";;;;;;;;;;;;;;;;;;;;;;;;;;;;;;;;;;;"1261";"2014-10-16 13:37:54.127";"NST_correctLoc";"9";"0";"FINISHED";"LEFT";"success";"364";"0";"2014-10-16 13:37:52.863";"2";;;;;;;;;;;;;;;;;;;;;;;;;;;;;;;;;;;;;;;;;;;;;
"C1419964";;;"Windows 7";"Rachel's Experiment (D.T.)";"1.0";"2";"1";"1";"2";"1";"1";"2014-10-16 13:32:45.059";"2014-10-16 13:47:19.269";"1";"0";"0";"76";"75";"module.training_block2.exec-7743.GoNoGo2";;;;;;;;;;;;;;;;;;;;;;;;;;;;;;;;;;;"1261";"2014-10-16 13:37:56.670";"NST_correctLoc";"30";"1";"FINISHED";"RIGHT";"success";"341";"0";"2014-10-16 13:37:55.406";"3";;;;;;;;;;;;;;;;;;;;;;;;;;;;;;;;;;;;;;;;;;;;;
"C1419964";;;"Windows 7";"Rachel's Experiment (D.T.)";"1.0";"2";"1";"1";"2";"1";"1";"2014-10-16 13:32:45.059";"2014-10-16 13:47:19.269";"1";"0";"0";"77";"76";"module.training_block2.exec-7743.GoNoGo2";;;;;;;;;;;;;;;;;;;;;;;;;;;;;;;;;;;"1261";"2014-10-16 13:37:59.212";"NST_correctLoc";"20";"0";"FINISHED";"LEFT";"success";"343";"0";"2014-10-16 13:37:57.949";"3";;;;;;;;;;;;;;;;;;;;;;;;;;;;;;;;;;;;;;;;;;;;;
"C1419964";;;"Windows 7";"Rachel's Experiment (D.T.)";"1.0";"2";"1";"1";"2";"1";"1";"2014-10-16 13:32:45.059";"2014-10-16 13:47:19.269";"1";"0";"0";"78";"77";"module.training_block2.exec-7743.GoNoGo2";;;;;;;;;;;;;;;;;;;;;;;;;;;;;;;;;;;"1261";"2014-10-16 13:38:01.755";"NST_correctLoc";"16";"0";"FINISHED";"LEFT";"success";"352";"0";"2014-10-16 13:38:00.492";"2";;;;;;;;;;;;;;;;;;;;;;;;;;;;;;;;;;;;;;;;;;;;;
"C1419964";;;"Windows 7";"Rachel's Experiment (D.T.)";"1.0";"2";"1";"1";"2";"1";"1";"2014-10-16 13:32:45.059";"2014-10-16 13:47:19.269";"1";"0";"0";"79";"78";"module.training_block2.exec-7743.GoNoGo2";;;;;;;;;;;;;;;;;;;;;;;;;;;;;;;;;;;"1261";"2014-10-16 13:38:04.298";"NST_correctLoc";"26";"0";"FINISHED";"LEFT";"success";"329";"0";"2014-10-16 13:38:03.034";"3";;;;;;;;;;;;;;;;;;;;;;;;;;;;;;;;;;;;;;;;;;;;;
"C1419964";;;"Windows 7";"Rachel's Experiment (D.T.)";"1.0";"2";"1";"1";"2";"1";"1";"2014-10-16 13:32:45.059";"2014-10-16 13:47:19.269";"1";"0";"0";"80";"79";"module.training_block2.exec-7743.GoNoGo2";;;;;;;;;;;;;;;;;;;;;;;;;;;;;;;;;;;"1261";"2014-10-16 13:38:06.841";"NST_correctLoc";"11";"1";"FINISHED";"RIGHT";"success";"338";"0";"2014-10-16 13:38:05.577";"2";;;;;;;;;;;;;;;;;;;;;;;;;;;;;;;;;;;;;;;;;;;;;
"C1419964";;;"Windows 7";"Rachel's Experiment (D.T.)";"1.0";"2";"1";"1";"2";"1";"1";"2014-10-16 13:32:45.059";"2014-10-16 13:47:19.269";"1";"0";"0";"81";"80";"module.training_block2.exec-7743.GoNoGo2";;;;;;;;;;;;;;;;;;;;;;;;;;;;;;;;;;;"1261";"2014-10-16 13:38:09.384";"NST_correctLoc";"15";"1";"FINISHED";"RIGHT";"success";"355";"0";"2014-10-16 13:38:08.120";"2";;;;;;;;;;;;;;;;;;;;;;;;;;;;;;;;;;;;;;;;;;;;;
"C1419964";;;"Windows 7";"Rachel's Experiment (D.T.)";"1.0";"2";"1";"1";"2";"1";"1";"2014-10-16 13:32:45.059";"2014-10-16 13:47:19.269";"1";"0";"0";"82";"81";"module.training_block2.exec-7743.GoNoGo2";;;;;;;;;;;;;;;;;;;;;;;;;;;;;;;;;;;"1261";"2014-10-16 13:38:11.926";"NST_correctLoc";"0";"1";"FINISHED";"RIGHT";"success";"348";"0";"2014-10-16 13:38:10.663";"1";;;;;;;;;;;;;;;;;;;;;;;;;;;;;;;;;;;;;;;;;;;;;
"C1419964";;;"Windows 7";"Rachel's Experiment (D.T.)";"1.0";"2";"1";"1";"2";"1";"1";"2014-10-16 13:32:45.059";"2014-10-16 13:47:19.269";"1";"0";"0";"83";"82";"module.training_block2.exec-7743.GoNoGo2";;;;;;;;;;;;;;;;;;;;;;;;;;;;;;;;;;;"1261";"2014-10-16 13:38:14.469";"NST_correctLoc";"21";"0";"FINISHED";"LEFT";"success";"326";"0";"2014-10-16 13:38:13.206";"3";;;;;;;;;;;;;;;;;;;;;;;;;;;;;;;;;;;;;;;;;;;;;
"C1419964";;;"Windows 7";"Rachel's Experiment (D.T.)";"1.0";"2";"1";"1";"2";"1";"1";"2014-10-16 13:32:45.059";"2014-10-16 13:47:19.269";"1";"0";"0";"84";"83";"module.training_block2.exec-7743.GoNoGo2";;;;;;;;;;;;;;;;;;;;;;;;;;;;;;;;;;;"1261";"2014-10-16 13:38:17.012";"NST_correctLoc";"18";"1";"FINISHED";"RIGHT";"success";"319";"0";"2014-10-16 13:38:15.748";"3";;;;;;;;;;;;;;;;;;;;;;;;;;;;;;;;;;;;;;;;;;;;;
"C1419964";;;"Windows 7";"Rachel's Experiment (D.T.)";"1.0";"2";"1";"1";"2";"1";"1";"2014-10-16 13:32:45.059";"2014-10-16 13:47:19.269";"1";"0";"0";"85";"84";"module.training_block2.exec-7743.GoNoGo2";;;;;;;;;;;;;;;;;;;;;;;;;;;;;;;;;;;"1261";"2014-10-16 13:38:19.555";"NST_correctLoc";"12";"0";"FINISHED";"LEFT";"success";"296";"0";"2014-10-16 13:38:18.291";"2";;;;;;;;;;;;;;;;;;;;;;;;;;;;;;;;;;;;;;;;;;;;;
"C1419964";;;"Windows 7";"Rachel's Experiment (D.T.)";"1.0";"2";"1";"1";"2";"1";"1";"2014-10-16 13:32:45.059";"2014-10-16 13:47:19.269";"1";"0";"0";"86";"85";"module.training_block2.exec-7743.GoNoGo2";;;;;;;;;;;;;;;;;;;;;;;;;;;;;;;;;;;"1261";"2014-10-16 13:38:22.098";"NST_correctLoc";"24";"1";"FINISHED";"RIGHT";"success";"321";"0";"2014-10-16 13:38:20.834";"3";;;;;;;;;;;;;;;;;;;;;;;;;;;;;;;;;;;;;;;;;;;;;
"C1419964";;;"Windows 7";"Rachel's Experiment (D.T.)";"1.0";"2";"1";"1";"2";"1";"1";"2014-10-16 13:32:45.059";"2014-10-16 13:47:19.269";"1";"0";"0";"87";"86";"module.training_block2.exec-7743.GoNoGo2";;;;;;;;;;;;;;;;;;;;;;;;;;;;;;;;;;;"1261";"2014-10-16 13:38:24.640";"NST_correctLoc";"17";"1";"FINISHED";"RIGHT";"success";"370";"0";"2014-10-16 13:38:23.377";"2";;;;;;;;;;;;;;;;;;;;;;;;;;;;;;;;;;;;;;;;;;;;;
"C1419964";;;"Windows 7";"Rachel's Experiment (D.T.)";"1.0";"2";"1";"1";"2";"1";"1";"2014-10-16 13:32:45.059";"2014-10-16 13:47:19.269";"1";"0";"0";"88";"87";"module.training_block3.exec-3483.GoNoGo3";;;;;;;;;;;;;;;;;;;;;;;;;;;;;;;;;;;;;;;;;;;;;;;"1262";"2014-10-16 13:38:39.320";"NST_correctLoc";"4";"1";"FINISHED";"RIGHT";"success";"603";"0";"2014-10-16 13:38:38.057";"1";;;;;;;;;;;;;;;;;;;;;;;;;;;;;;;;;
"C1419964";;;"Windows 7";"Rachel's Experiment (D.T.)";"1.0";"2";"1";"1";"2";"1";"1";"2014-10-16 13:32:45.059";"2014-10-16 13:47:19.269";"1";"0";"0";"89";"88";"module.training_block3.exec-3483.GoNoGo3";;;;;;;;;;;;;;;;;;;;;;;;;;;;;;;;;;;;;;;;;;;;;;;"1261";"2014-10-16 13:38:41.863";"NST_correctLoc";"27";"1";"FINISHED";"RIGHT";"success";"420";"0";"2014-10-16 13:38:40.599";"3";;;;;;;;;;;;;;;;;;;;;;;;;;;;;;;;;
"C1419964";;;"Windows 7";"Rachel's Experiment (D.T.)";"1.0";"2";"1";"1";"2";"1";"1";"2014-10-16 13:32:45.059";"2014-10-16 13:47:19.269";"1";"0";"0";"90";"89";"module.training_block3.exec-3483.GoNoGo3";;;;;;;;;;;;;;;;;;;;;;;;;;;;;;;;;;;;;;;;;;;;;;;"1261";"2014-10-16 13:38:44.406";"NST_correctLoc";"3";"1";"FINISHED";"RIGHT";"success";"373";"0";"2014-10-16 13:38:43.142";"1";;;;;;;;;;;;;;;;;;;;;;;;;;;;;;;;;
"C1419964";;;"Windows 7";"Rachel's Experiment (D.T.)";"1.0";"2";"1";"1";"2";"1";"1";"2014-10-16 13:32:45.059";"2014-10-16 13:47:19.269";"1";"0";"0";"91";"90";"module.training_block3.exec-3483.GoNoGo3";;;;;;;;;;;;;;;;;;;;;;;;;;;;;;;;;;;;;;;;;;;;;;;"1261";"2014-10-16 13:38:46.949";"NST_correctLoc";"34";"1";"FINISHED";"RIGHT";"success";"366";"0";"2014-10-16 13:38:45.685";"3";;;;;;;;;;;;;;;;;;;;;;;;;;;;;;;;;
"C1419964";;;"Windows 7";"Rachel's Experiment (D.T.)";"1.0";"2";"1";"1";"2";"1";"1";"2014-10-16 13:32:45.059";"2014-10-16 13:47:19.269";"1";"0";"0";"92";"91";"module.training_block3.exec-3483.GoNoGo3";;;;;;;;;;;;;;;;;;;;;;;;;;;;;;;;;;;;;;;;;;;;;;;"1261";"2014-10-16 13:38:49.491";"NST_correctLoc";"20";"0";"FINISHED";"LEFT";"success";"303";"0";"2014-10-16 13:38:48.228";"3";;;;;;;;;;;;;;;;;;;;;;;;;;;;;;;;;
"C1419964";;;"Windows 7";"Rachel's Experiment (D.T.)";"1.0";"2";"1";"1";"2";"1";"1";"2014-10-16 13:32:45.059";"2014-10-16 13:47:19.269";"1";"0";"0";"93";"92";"module.training_block3.exec-3483.GoNoGo3";;;;;;;;;;;;;;;;;;;;;;;;;;;;;;;;;;;;;;;;;;;;;;;"1261";"2014-10-16 13:38:52.034";"NST_correctLoc";"8";"1";"FINISHED";"RIGHT";"success";"409";"0";"2014-10-16 13:38:50.771";"1";;;;;;;;;;;;;;;;;;;;;;;;;;;;;;;;;
"C1419964";;;"Windows 7";"Rachel's Experiment (D.T.)";"1.0";"2";"1";"1";"2";"1";"1";"2014-10-16 13:32:45.059";"2014-10-16 13:47:19.269";"1";"0";"0";"94";"93";"module.training_block3.exec-3483.GoNoGo3";;;;;;;;;;;;;;;;;;;;;;;;;;;;;;;;;;;;;;;;;;;;;;;"1261";"2014-10-16 13:38:54.577";"NST_correctLoc";"25";"1";"FINISHED";"RIGHT";"success";"410";"0";"2014-10-16 13:38:53.313";"3";;;;;;;;;;;;;;;;;;;;;;;;;;;;;;;;;
"C1419964";;;"Windows 7";"Rachel's Experiment (D.T.)";"1.0";"2";"1";"1";"2";"1";"1";"2014-10-16 13:32:45.059";"2014-10-16 13:47:19.269";"1";"0";"0";"95";"94";"module.training_block3.exec-3483.GoNoGo3";;;;;;;;;;;;;;;;;;;;;;;;;;;;;;;;;;;;;;;;;;;;;;;"1261";"2014-10-16 13:38:57.135";"NST_correctLoc";"16";"1";"FINISHED";"RIGHT";"success";"363";"0";"2014-10-16 13:38:55.872";"2";;;;;;;;;;;;;;;;;;;;;;;;;;;;;;;;;
"C1419964";;;"Windows 7";"Rachel's Experiment (D.T.)";"1.0";"2";"1";"1";"2";"1";"1";"2014-10-16 13:32:45.059";"2014-10-16 13:47:19.269";"1";"0";"0";"96";"95";"module.training_block3.exec-3483.GoNoGo3";;;;;;;;;;;;;;;;;;;;;;;;;;;;;;;;;;;;;;;;;;;;;;;"1261";"2014-10-16 13:38:59.678";"NST_correctLoc";"31";"0";"FINISHED";"LEFT";"success";"356";"0";"2014-10-16 13:38:58.415";"3";;;;;;;;;;;;;;;;;;;;;;;;;;;;;;;;;
"C1419964";;;"Windows 7";"Rachel's Experiment (D.T.)";"1.0";"2";"1";"1";"2";"1";"1";"2014-10-16 13:32:45.059";"2014-10-16 13:47:19.269";"1";"0";"0";"97";"96";"module.training_block3.exec-3483.GoNoGo3";;;;;;;;;;;;;;;;;;;;;;;;;;;;;;;;;;;;;;;;;;;;;;;"1261";"2014-10-16 13:39:02.221";"NST_correctLoc";"28";"1";"FINISHED";"RIGHT";"success";"334";"0";"2014-10-16 13:39:00.957";"3";;;;;;;;;;;;;;;;;;;;;;;;;;;;;;;;;
"C1419964";;;"Windows 7";"Rachel's Experiment (D.T.)";"1.0";"2";"1";"1";"2";"1";"1";"2014-10-16 13:32:45.059";"2014-10-16 13:47:19.269";"1";"0";"0";"98";"97";"module.training_block3.exec-3483.GoNoGo3";;;;;;;;;;;;;;;;;;;;;;;;;;;;;;;;;;;;;;;;;;;;;;;"1261";"2014-10-16 13:39:04.764";"NST_correctLoc";"1";"0";"FINISHED";"LEFT";"success";"351";"0";"2014-10-16 13:39:03.500";"1";;;;;;;;;;;;;;;;;;;;;;;;;;;;;;;;;
"C1419964";;;"Windows 7";"Rachel's Experiment (D.T.)";"1.0";"2";"1";"1";"2";"1";"1";"2014-10-16 13:32:45.059";"2014-10-16 13:47:19.269";"1";"0";"0";"99";"98";"module.training_block3.exec-3483.GoNoGo3";;;;;;;;;;;;;;;;;;;;;;;;;;;;;;;;;;;;;;;;;;;;;;;"1261";"2014-10-16 13:39:07.307";"NST_correctLoc";"12";"0";"FINISHED";"LEFT";"success";"368";"0";"2014-10-16 13:39:06.043";"2";;;;;;;;;;;;;;;;;;;;;;;;;;;;;;;;;
"C1419964";;;"Windows 7";"Rachel's Experiment (D.T.)";"1.0";"2";"1";"1";"2";"1";"1";"2014-10-16 13:32:45.059";"2014-10-16 13:47:19.269";"1";"0";"0";"100";"99";"module.training_block3.exec-3483.GoNoGo3";;;;;;;;;;;;;;;;;;;;;;;;;;;;;;;;;;;;;;;;;;;;;;;"1261";"2014-10-16 13:39:09.849";"NST_correctLoc";"2";"0";"FINISHED";"LEFT";"success";"321";"0";"2014-10-16 13:39:08.586";"1";;;;;;;;;;;;;;;;;;;;;;;;;;;;;;;;;
"C1419964";;;"Windows 7";"Rachel's Experiment (D.T.)";"1.0";"2";"1";"1";"2";"1";"1";"2014-10-16 13:32:45.059";"2014-10-16 13:47:19.269";"1";"0";"0";"101";"100";"module.training_block3.exec-3483.GoNoGo3";;;;;;;;;;;;;;;;;;;;;;;;;;;;;;;;;;;;;;;;;;;;;;;"1261";"2014-10-16 13:39:12.392";"NST_correctLoc";"30";"0";"FINISHED";"LEFT";"success";"354";"0";"2014-10-16 13:39:11.129";"3";;;;;;;;;;;;;;;;;;;;;;;;;;;;;;;;;
"C1419964";;;"Windows 7";"Rachel's Experiment (D.T.)";"1.0";"2";"1";"1";"2";"1";"1";"2014-10-16 13:32:45.059";"2014-10-16 13:47:19.269";"1";"0";"0";"102";"101";"module.training_block3.exec-3483.GoNoGo3";;;;;;;;;;;;;;;;;;;;;;;;;;;;;;;;;;;;;;;;;;;;;;;"1261";"2014-10-16 13:39:14.935";"NST_correctLoc";"22";"0";"FINISHED";"LEFT";"success";"340";"0";"2014-10-16 13:39:13.671";"3";;;;;;;;;;;;;;;;;;;;;;;;;;;;;;;;;
"C1419964";;;"Windows 7";"Rachel's Experiment (D.T.)";"1.0";"2";"1";"1";"2";"1";"1";"2014-10-16 13:32:45.059";"2014-10-16 13:47:19.269";"1";"0";"0";"103";"102";"module.training_block3.exec-3483.GoNoGo3";;;;;;;;;;;;;;;;;;;;;;;;;;;;;;;;;;;;;;;;;;;;;;;"1261";"2014-10-16 13:39:17.478";"NST_correctLoc";"29";"1";"FINISHED";"RIGHT";"success";"421";"0";"2014-10-16 13:39:16.214";"3";;;;;;;;;;;;;;;;;;;;;;;;;;;;;;;;;
"C1419964";;;"Windows 7";"Rachel's Experiment (D.T.)";"1.0";"2";"1";"1";"2";"1";"1";"2014-10-16 13:32:45.059";"2014-10-16 13:47:19.269";"1";"0";"0";"104";"103";"module.training_block3.exec-3483.GoNoGo3";;;;;;;;;;;;;;;;;;;;;;;;;;;;;;;;;;;;;;;;;;;;;;;"1261";"2014-10-16 13:39:20.036";"NST_correctLoc";"26";"1";"FINISHED";"RIGHT";"success";"342";"0";"2014-10-16 13:39:18.773";"3";;;;;;;;;;;;;;;;;;;;;;;;;;;;;;;;;
"C1419964";;;"Windows 7";"Rachel's Experiment (D.T.)";"1.0";"2";"1";"1";"2";"1";"1";"2014-10-16 13:32:45.059";"2014-10-16 13:47:19.269";"1";"0";"0";"105";"104";"module.training_block3.exec-3483.GoNoGo3";;;;;;;;;;;;;;;;;;;;;;;;;;;;;;;;;;;;;;;;;;;;;;;"1261";"2014-10-16 13:39:22.579";"NST_correctLoc";"6";"1";"FINISHED";"RIGHT";"success";"327";"0";"2014-10-16 13:39:21.315";"1";;;;;;;;;;;;;;;;;;;;;;;;;;;;;;;;;
"C1419964";;;"Windows 7";"Rachel's Experiment (D.T.)";"1.0";"2";"1";"1";"2";"1";"1";"2014-10-16 13:32:45.059";"2014-10-16 13:47:19.269";"1";"0";"0";"106";"105";"module.training_block3.exec-3483.GoNoGo3";;;;;;;;;;;;;;;;;;;;;;;;;;;;;;;;;;;;;;;;;;;;;;;"1261";"2014-10-16 13:39:25.122";"NST_correctLoc";"0";"1";"FINISHED";"RIGHT";"success";"329";"0";"2014-10-16 13:39:23.858";"1";;;;;;;;;;;;;;;;;;;;;;;;;;;;;;;;;
"C1419964";;;"Windows 7";"Rachel's Experiment (D.T.)";"1.0";"2";"1";"1";"2";"1";"1";"2014-10-16 13:32:45.059";"2014-10-16 13:47:19.269";"1";"0";"0";"107";"106";"module.training_block3.exec-3483.GoNoGo3";;;;;;;;;;;;;;;;;;;;;;;;;;;;;;;;;;;;;;;;;;;;;;;"1261";"2014-10-16 13:39:27.665";"NST_correctLoc";"19";"1";"FINISHED";"RIGHT";"success";"354";"0";"2014-10-16 13:39:26.401";"3";;;;;;;;;;;;;;;;;;;;;;;;;;;;;;;;;
"C1419964";;;"Windows 7";"Rachel's Experiment (D.T.)";"1.0";"2";"1";"1";"2";"1";"1";"2014-10-16 13:32:45.059";"2014-10-16 13:47:19.269";"1";"0";"0";"108";"107";"module.training_block3.exec-3483.GoNoGo3";;;;;;;;;;;;;;;;;;;;;;;;;;;;;;;;;;;;;;;;;;;;;;;"1261";"2014-10-16 13:39:30.207";"NST_correctLoc";"13";"1";"FINISHED";"RIGHT";"success";"395";"0";"2014-10-16 13:39:28.944";"2";;;;;;;;;;;;;;;;;;;;;;;;;;;;;;;;;
"C1419964";;;"Windows 7";"Rachel's Experiment (D.T.)";"1.0";"2";"1";"1";"2";"1";"1";"2014-10-16 13:32:45.059";"2014-10-16 13:47:19.269";"1";"0";"0";"109";"108";"module.training_block3.exec-3483.GoNoGo3";;;;;;;;;;;;;;;;;;;;;;;;;;;;;;;;;;;;;;;;;;;;;;;"1261";"2014-10-16 13:39:32.750";"NST_correctLoc";"5";"1";"FINISHED";"RIGHT";"success";"340";"0";"2014-10-16 13:39:31.487";"1";;;;;;;;;;;;;;;;;;;;;;;;;;;;;;;;;
"C1419964";;;"Windows 7";"Rachel's Experiment (D.T.)";"1.0";"2";"1";"1";"2";"1";"1";"2014-10-16 13:32:45.059";"2014-10-16 13:47:19.269";"1";"0";"0";"110";"109";"module.training_block3.exec-3483.GoNoGo3";;;;;;;;;;;;;;;;;;;;;;;;;;;;;;;;;;;;;;;;;;;;;;;"1261";"2014-10-16 13:39:35.293";"NST_correctLoc";"21";"1";"FINISHED";"RIGHT";"success";"349";"0";"2014-10-16 13:39:34.029";"3";;;;;;;;;;;;;;;;;;;;;;;;;;;;;;;;;
"C1419964";;;"Windows 7";"Rachel's Experiment (D.T.)";"1.0";"2";"1";"1";"2";"1";"1";"2014-10-16 13:32:45.059";"2014-10-16 13:47:19.269";"1";"0";"0";"111";"110";"module.training_block3.exec-3483.GoNoGo3";;;;;;;;;;;;;;;;;;;;;;;;;;;;;;;;;;;;;;;;;;;;;;;"1261";"2014-10-16 13:39:37.851";"NST_correctLoc";"7";"0";"FINISHED";"LEFT";"success";"359";"0";"2014-10-16 13:39:36.588";"1";;;;;;;;;;;;;;;;;;;;;;;;;;;;;;;;;
"C1419964";;;"Windows 7";"Rachel's Experiment (D.T.)";"1.0";"2";"1";"1";"2";"1";"1";"2014-10-16 13:32:45.059";"2014-10-16 13:47:19.269";"1";"0";"0";"112";"111";"module.training_block3.exec-3483.GoNoGo3";;;;;;;;;;;;;;;;;;;;;;;;;;;;;;;;;;;;;;;;;;;;;;;"1261";"2014-10-16 13:39:40.394";"NST_correctLoc";"9";"1";"FINISHED";"RIGHT";"success";"336";"0";"2014-10-16 13:39:39.131";"2";;;;;;;;;;;;;;;;;;;;;;;;;;;;;;;;;
"C1419964";;;"Windows 7";"Rachel's Experiment (D.T.)";"1.0";"2";"1";"1";"2";"1";"1";"2014-10-16 13:32:45.059";"2014-10-16 13:47:19.269";"1";"0";"0";"113";"112";"module.training_block3.exec-3483.GoNoGo3";;;;;;;;;;;;;;;;;;;;;;;;;;;;;;;;;;;;;;;;;;;;;;;"1261";"2014-10-16 13:39:42.937";"NST_correctLoc";"18";"1";"FINISHED";"RIGHT";"success";"361";"0";"2014-10-16 13:39:41.673";"3";;;;;;;;;;;;;;;;;;;;;;;;;;;;;;;;;
"C1419964";;;"Windows 7";"Rachel's Experiment (D.T.)";"1.0";"2";"1";"1";"2";"1";"1";"2014-10-16 13:32:45.059";"2014-10-16 13:47:19.269";"1";"0";"0";"114";"113";"module.training_block3.exec-3483.GoNoGo3";;;;;;;;;;;;;;;;;;;;;;;;;;;;;;;;;;;;;;;;;;;;;;;"1261";"2014-10-16 13:39:45.480";"NST_correctLoc";"24";"1";"FINISHED";"RIGHT";"success";"322";"0";"2014-10-16 13:39:44.216";"3";;;;;;;;;;;;;;;;;;;;;;;;;;;;;;;;;
"C1419964";;;"Windows 7";"Rachel's Experiment (D.T.)";"1.0";"2";"1";"1";"2";"1";"1";"2014-10-16 13:32:45.059";"2014-10-16 13:47:19.269";"1";"0";"0";"115";"114";"module.training_block3.exec-3483.GoNoGo3";;;;;;;;;;;;;;;;;;;;;;;;;;;;;;;;;;;;;;;;;;;;;;;"1261";"2014-10-16 13:39:48.023";"NST_correctLoc";"35";"1";"FINISHED";"RIGHT";"success";"348";"0";"2014-10-16 13:39:46.759";"3";;;;;;;;;;;;;;;;;;;;;;;;;;;;;;;;;
"C1419964";;;"Windows 7";"Rachel's Experiment (D.T.)";"1.0";"2";"1";"1";"2";"1";"1";"2014-10-16 13:32:45.059";"2014-10-16 13:47:19.269";"1";"0";"0";"116";"115";"module.training_block3.exec-3483.GoNoGo3";;;;;;;;;;;;;;;;;;;;;;;;;;;;;;;;;;;;;;;;;;;;;;;"1261";"2014-10-16 13:39:50.565";"NST_correctLoc";"15";"1";"FINISHED";"RIGHT";"success";"365";"0";"2014-10-16 13:39:49.302";"2";;;;;;;;;;;;;;;;;;;;;;;;;;;;;;;;;
"C1419964";;;"Windows 7";"Rachel's Experiment (D.T.)";"1.0";"2";"1";"1";"2";"1";"1";"2014-10-16 13:32:45.059";"2014-10-16 13:47:19.269";"1";"0";"0";"117";"116";"module.training_block3.exec-3483.GoNoGo3";;;;;;;;;;;;;;;;;;;;;;;;;;;;;;;;;;;;;;;;;;;;;;;"1261";"2014-10-16 13:39:53.108";"NST_correctLoc";"33";"0";"FINISHED";"LEFT";"success";"342";"0";"2014-10-16 13:39:51.845";"3";;;;;;;;;;;;;;;;;;;;;;;;;;;;;;;;;
"C1419964";;;"Windows 7";"Rachel's Experiment (D.T.)";"1.0";"2";"1";"1";"2";"1";"1";"2014-10-16 13:32:45.059";"2014-10-16 13:47:19.269";"1";"0";"0";"118";"117";"module.training_block3.exec-3483.GoNoGo3";;;;;;;;;;;;;;;;;;;;;;;;;;;;;;;;;;;;;;;;;;;;;;;"1261";"2014-10-16 13:39:55.651";"NST_correctLoc";"17";"1";"FINISHED";"RIGHT";"success";"351";"0";"2014-10-16 13:39:54.387";"2";;;;;;;;;;;;;;;;;;;;;;;;;;;;;;;;;
"C1419964";;;"Windows 7";"Rachel's Experiment (D.T.)";"1.0";"2";"1";"1";"2";"1";"1";"2014-10-16 13:32:45.059";"2014-10-16 13:47:19.269";"1";"0";"0";"119";"118";"module.training_block3.exec-3483.GoNoGo3";;;;;;;;;;;;;;;;;;;;;;;;;;;;;;;;;;;;;;;;;;;;;;;"1261";"2014-10-16 13:39:58.194";"NST_correctLoc";"32";"0";"FINISHED";"LEFT";"success";"336";"0";"2014-10-16 13:39:56.930";"3";;;;;;;;;;;;;;;;;;;;;;;;;;;;;;;;;
"C1419964";;;"Windows 7";"Rachel's Experiment (D.T.)";"1.0";"2";"1";"1";"2";"1";"1";"2014-10-16 13:32:45.059";"2014-10-16 13:47:19.269";"1";"0";"0";"120";"119";"module.training_block3.exec-3483.GoNoGo3";;;;;;;;;;;;;;;;;;;;;;;;;;;;;;;;;;;;;;;;;;;;;;;"1261";"2014-10-16 13:40:00.752";"NST_correctLoc";"10";"1";"FINISHED";"RIGHT";"success";"322";"0";"2014-10-16 13:39:59.489";"2";;;;;;;;;;;;;;;;;;;;;;;;;;;;;;;;;
"C1419964";;;"Windows 7";"Rachel's Experiment (D.T.)";"1.0";"2";"1";"1";"2";"1";"1";"2014-10-16 13:32:45.059";"2014-10-16 13:47:19.269";"1";"0";"0";"121";"120";"module.training_block3.exec-3483.GoNoGo3";;;;;;;;;;;;;;;;;;;;;;;;;;;;;;;;;;;;;;;;;;;;;;;"1261";"2014-10-16 13:40:03.295";"NST_correctLoc";"23";"0";"FINISHED";"LEFT";"success";"307";"0";"2014-10-16 13:40:02.031";"3";;;;;;;;;;;;;;;;;;;;;;;;;;;;;;;;;
"C1419964";;;"Windows 7";"Rachel's Experiment (D.T.)";"1.0";"2";"1";"1";"2";"1";"1";"2014-10-16 13:32:45.059";"2014-10-16 13:47:19.269";"1";"0";"0";"122";"121";"module.training_block3.exec-3483.GoNoGo3";;;;;;;;;;;;;;;;;;;;;;;;;;;;;;;;;;;;;;;;;;;;;;;"1261";"2014-10-16 13:40:05.838";"NST_correctLoc";"14";"0";"FINISHED";"LEFT";"success";"380";"0";"2014-10-16 13:40:04.574";"2";;;;;;;;;;;;;;;;;;;;;;;;;;;;;;;;;
"C1419964";;;"Windows 7";"Rachel's Experiment (D.T.)";"1.0";"2";"1";"1";"2";"1";"1";"2014-10-16 13:32:45.059";"2014-10-16 13:47:19.269";"1";"0";"0";"123";"122";"module.training_block3.exec-3483.GoNoGo3";;;;;;;;;;;;;;;;;;;;;;;;;;;;;;;;;;;;;;;;;;;;;;;"1261";"2014-10-16 13:40:08.381";"NST_correctLoc";"11";"0";"FINISHED";"LEFT";"success";"405";"0";"2014-10-16 13:40:07.117";"2";;;;;;;;;;;;;;;;;;;;;;;;;;;;;;;;;
"C1419964";;;"Windows 7";"Rachel's Experiment (D.T.)";"1.0";"2";"1";"1";"2";"1";"1";"2014-10-16 13:32:45.059";"2014-10-16 13:47:19.269";"1";"0";"0";"124";"123";"module.training_block4.exec-4529.GoNoGo4";;;;;;;;;;;;;;;;;;;;;;;;;;;;;;;;;;;;;;;;;;;;;;;;;;;;;;;;;;;"1261";"2014-10-16 13:40:19.425";"NST_correctLoc";"18";"1";"FINISHED";"RIGHT";"success";"624";"0";"2014-10-16 13:40:18.162";"3";;;;;;;;;;;;;;;;;;;;;
"C1419964";;;"Windows 7";"Rachel's Experiment (D.T.)";"1.0";"2";"1";"1";"2";"1";"1";"2014-10-16 13:32:45.059";"2014-10-16 13:47:19.269";"1";"0";"0";"125";"124";"module.training_block4.exec-4529.GoNoGo4";;;;;;;;;;;;;;;;;;;;;;;;;;;;;;;;;;;;;;;;;;;;;;;;;;;;;;;;;;;"1261";"2014-10-16 13:40:21.968";"NST_correctLoc";"13";"1";"FINISHED";"RIGHT";"success";"378";"0";"2014-10-16 13:40:20.705";"2";;;;;;;;;;;;;;;;;;;;;
"C1419964";;;"Windows 7";"Rachel's Experiment (D.T.)";"1.0";"2";"1";"1";"2";"1";"1";"2014-10-16 13:32:45.059";"2014-10-16 13:47:19.269";"1";"0";"0";"126";"125";"module.training_block4.exec-4529.GoNoGo4";;;;;;;;;;;;;;;;;;;;;;;;;;;;;;;;;;;;;;;;;;;;;;;;;;;;;;;;;;;"1261";"2014-10-16 13:40:24.511";"NST_correctLoc";"35";"0";"FINISHED";"LEFT";"success";"363";"0";"2014-10-16 13:40:23.247";"3";;;;;;;;;;;;;;;;;;;;;
"C1419964";;;"Windows 7";"Rachel's Experiment (D.T.)";"1.0";"2";"1";"1";"2";"1";"1";"2014-10-16 13:32:45.059";"2014-10-16 13:47:19.269";"1";"0";"0";"127";"126";"module.training_block4.exec-4529.GoNoGo4";;;;;;;;;;;;;;;;;;;;;;;;;;;;;;;;;;;;;;;;;;;;;;;;;;;;;;;;;;;"1261";"2014-10-16 13:40:27.054";"NST_correctLoc";"4";"1";"FINISHED";"RIGHT";"success";"364";"0";"2014-10-16 13:40:25.790";"1";;;;;;;;;;;;;;;;;;;;;
"C1419964";;;"Windows 7";"Rachel's Experiment (D.T.)";"1.0";"2";"1";"1";"2";"1";"1";"2014-10-16 13:32:45.059";"2014-10-16 13:47:19.269";"1";"0";"0";"128";"127";"module.training_block4.exec-4529.GoNoGo4";;;;;;;;;;;;;;;;;;;;;;;;;;;;;;;;;;;;;;;;;;;;;;;;;;;;;;;;;;;"1261";"2014-10-16 13:40:29.597";"NST_correctLoc";"16";"0";"FINISHED";"LEFT";"success";"333";"0";"2014-10-16 13:40:28.333";"2";;;;;;;;;;;;;;;;;;;;;
"C1419964";;;"Windows 7";"Rachel's Experiment (D.T.)";"1.0";"2";"1";"1";"2";"1";"1";"2014-10-16 13:32:45.059";"2014-10-16 13:47:19.269";"1";"0";"0";"129";"128";"module.training_block4.exec-4529.GoNoGo4";;;;;;;;;;;;;;;;;;;;;;;;;;;;;;;;;;;;;;;;;;;;;;;;;;;;;;;;;;;"1261";"2014-10-16 13:40:32.140";"NST_correctLoc";"6";"1";"FINISHED";"RIGHT";"success";"318";"0";"2014-10-16 13:40:30.876";"1";;;;;;;;;;;;;;;;;;;;;
"C1419964";;;"Windows 7";"Rachel's Experiment (D.T.)";"1.0";"2";"1";"1";"2";"1";"1";"2014-10-16 13:32:45.059";"2014-10-16 13:47:19.269";"1";"0";"0";"130";"129";"module.training_block4.exec-4529.GoNoGo4";;;;;;;;;;;;;;;;;;;;;;;;;;;;;;;;;;;;;;;;;;;;;;;;;;;;;;;;;;;"1261";"2014-10-16 13:40:34.682";"NST_correctLoc";"9";"1";"FINISHED";"RIGHT";"success";"368";"0";"2014-10-16 13:40:33.419";"2";;;;;;;;;;;;;;;;;;;;;
"C1419964";;;"Windows 7";"Rachel's Experiment (D.T.)";"1.0";"2";"1";"1";"2";"1";"1";"2014-10-16 13:32:45.059";"2014-10-16 13:47:19.269";"1";"0";"0";"131";"130";"module.training_block4.exec-4529.GoNoGo4";;;;;;;;;;;;;;;;;;;;;;;;;;;;;;;;;;;;;;;;;;;;;;;;;;;;;;;;;;;"1261";"2014-10-16 13:40:37.225";"NST_correctLoc";"19";"1";"FINISHED";"RIGHT";"success";"361";"0";"2014-10-16 13:40:35.962";"3";;;;;;;;;;;;;;;;;;;;;
"C1419964";;;"Windows 7";"Rachel's Experiment (D.T.)";"1.0";"2";"1";"1";"2";"1";"1";"2014-10-16 13:32:45.059";"2014-10-16 13:47:19.269";"1";"0";"0";"132";"131";"module.training_block4.exec-4529.GoNoGo4";;;;;;;;;;;;;;;;;;;;;;;;;;;;;;;;;;;;;;;;;;;;;;;;;;;;;;;;;;;"1261";"2014-10-16 13:40:39.768";"NST_correctLoc";"22";"0";"FINISHED";"LEFT";"success";"330";"0";"2014-10-16 13:40:38.504";"3";;;;;;;;;;;;;;;;;;;;;
"C1419964";;;"Windows 7";"Rachel's Experiment (D.T.)";"1.0";"2";"1";"1";"2";"1";"1";"2014-10-16 13:32:45.059";"2014-10-16 13:47:19.269";"1";"0";"0";"133";"132";"module.training_block4.exec-4529.GoNoGo4";;;;;;;;;;;;;;;;;;;;;;;;;;;;;;;;;;;;;;;;;;;;;;;;;;;;;;;;;;;"1261";"2014-10-16 13:40:42.311";"NST_correctLoc";"32";"0";"FINISHED";"LEFT";"success";"371";"0";"2014-10-16 13:40:41.047";"3";;;;;;;;;;;;;;;;;;;;;
"C1419964";;;"Windows 7";"Rachel's Experiment (D.T.)";"1.0";"2";"1";"1";"2";"1";"1";"2014-10-16 13:32:45.059";"2014-10-16 13:47:19.269";"1";"0";"0";"134";"133";"module.training_block4.exec-4529.GoNoGo4";;;;;;;;;;;;;;;;;;;;;;;;;;;;;;;;;;;;;;;;;;;;;;;;;;;;;;;;;;;"1261";"2014-10-16 13:40:44.854";"NST_correctLoc";"26";"0";"FINISHED";"LEFT";"success";"364";"0";"2014-10-16 13:40:43.590";"3";;;;;;;;;;;;;;;;;;;;;
"C1419964";;;"Windows 7";"Rachel's Experiment (D.T.)";"1.0";"2";"1";"1";"2";"1";"1";"2014-10-16 13:32:45.059";"2014-10-16 13:47:19.269";"1";"0";"0";"135";"134";"module.training_block4.exec-4529.GoNoGo4";;;;;;;;;;;;;;;;;;;;;;;;;;;;;;;;;;;;;;;;;;;;;;;;;;;;;;;;;;;"1261";"2014-10-16 13:40:47.396";"NST_correctLoc";"8";"1";"FINISHED";"RIGHT";"success";"350";"0";"2014-10-16 13:40:46.133";"1";;;;;;;;;;;;;;;;;;;;;
"C1419964";;;"Windows 7";"Rachel's Experiment (D.T.)";"1.0";"2";"1";"1";"2";"1";"1";"2014-10-16 13:32:45.059";"2014-10-16 13:47:19.269";"1";"0";"0";"136";"135";"module.training_block4.exec-4529.GoNoGo4";;;;;;;;;;;;;;;;;;;;;;;;;;;;;;;;;;;;;;;;;;;;;;;;;;;;;;;;;;;"1261";"2014-10-16 13:40:49.939";"NST_correctLoc";"25";"0";"FINISHED";"LEFT";"success";"367";"0";"2014-10-16 13:40:48.676";"3";;;;;;;;;;;;;;;;;;;;;
"C1419964";;;"Windows 7";"Rachel's Experiment (D.T.)";"1.0";"2";"1";"1";"2";"1";"1";"2014-10-16 13:32:45.059";"2014-10-16 13:47:19.269";"1";"0";"0";"137";"136";"module.training_block4.exec-4529.GoNoGo4";;;;;;;;;;;;;;;;;;;;;;;;;;;;;;;;;;;;;;;;;;;;;;;;;;;;;;;;;;;"1261";"2014-10-16 13:40:52.482";"NST_correctLoc";"14";"0";"FINISHED";"LEFT";"success";"352";"0";"2014-10-16 13:40:51.218";"2";;;;;;;;;;;;;;;;;;;;;
"C1419964";;;"Windows 7";"Rachel's Experiment (D.T.)";"1.0";"2";"1";"1";"2";"1";"1";"2014-10-16 13:32:45.059";"2014-10-16 13:47:19.269";"1";"0";"0";"138";"137";"module.training_block4.exec-4529.GoNoGo4";;;;;;;;;;;;;;;;;;;;;;;;;;;;;;;;;;;;;;;;;;;;;;;;;;;;;;;;;;;"1261";"2014-10-16 13:40:55.025";"NST_correctLoc";"27";"0";"FINISHED";"LEFT";"success";"337";"0";"2014-10-16 13:40:53.761";"3";;;;;;;;;;;;;;;;;;;;;
"C1419964";;;"Windows 7";"Rachel's Experiment (D.T.)";"1.0";"2";"1";"1";"2";"1";"1";"2014-10-16 13:32:45.059";"2014-10-16 13:47:19.269";"1";"0";"0";"139";"138";"module.training_block4.exec-4529.GoNoGo4";;;;;;;;;;;;;;;;;;;;;;;;;;;;;;;;;;;;;;;;;;;;;;;;;;;;;;;;;;;"1261";"2014-10-16 13:40:57.568";"NST_correctLoc";"34";"1";"FINISHED";"RIGHT";"success";"306";"0";"2014-10-16 13:40:56.304";"3";;;;;;;;;;;;;;;;;;;;;
"C1419964";;;"Windows 7";"Rachel's Experiment (D.T.)";"1.0";"2";"1";"1";"2";"1";"1";"2014-10-16 13:32:45.059";"2014-10-16 13:47:19.269";"1";"0";"0";"140";"139";"module.training_block4.exec-4529.GoNoGo4";;;;;;;;;;;;;;;;;;;;;;;;;;;;;;;;;;;;;;;;;;;;;;;;;;;;;;;;;;;"1261";"2014-10-16 13:41:00.110";"NST_correctLoc";"0";"0";"FINISHED";"LEFT";"success";"331";"0";"2014-10-16 13:40:58.847";"1";;;;;;;;;;;;;;;;;;;;;
"C1419964";;;"Windows 7";"Rachel's Experiment (D.T.)";"1.0";"2";"1";"1";"2";"1";"1";"2014-10-16 13:32:45.059";"2014-10-16 13:47:19.269";"1";"0";"0";"141";"140";"module.training_block4.exec-4529.GoNoGo4";;;;;;;;;;;;;;;;;;;;;;;;;;;;;;;;;;;;;;;;;;;;;;;;;;;;;;;;;;;"1261";"2014-10-16 13:41:02.669";"NST_correctLoc";"15";"0";"FINISHED";"LEFT";"success";"341";"0";"2014-10-16 13:41:01.405";"2";;;;;;;;;;;;;;;;;;;;;
"C1419964";;;"Windows 7";"Rachel's Experiment (D.T.)";"1.0";"2";"1";"1";"2";"1";"1";"2014-10-16 13:32:45.059";"2014-10-16 13:47:19.269";"1";"0";"0";"142";"141";"module.training_block4.exec-4529.GoNoGo4";;;;;;;;;;;;;;;;;;;;;;;;;;;;;;;;;;;;;;;;;;;;;;;;;;;;;;;;;;;"1261";"2014-10-16 13:41:05.212";"NST_correctLoc";"12";"0";"FINISHED";"LEFT";"success";"342";"0";"2014-10-16 13:41:03.948";"2";;;;;;;;;;;;;;;;;;;;;
"C1419964";;;"Windows 7";"Rachel's Experiment (D.T.)";"1.0";"2";"1";"1";"2";"1";"1";"2014-10-16 13:32:45.059";"2014-10-16 13:47:19.269";"1";"0";"0";"143";"142";"module.training_block4.exec-4529.GoNoGo4";;;;;;;;;;;;;;;;;;;;;;;;;;;;;;;;;;;;;;;;;;;;;;;;;;;;;;;;;;;"1261";"2014-10-16 13:41:07.754";"NST_correctLoc";"31";"1";"FINISHED";"RIGHT";"success";"351";"0";"2014-10-16 13:41:06.491";"3";;;;;;;;;;;;;;;;;;;;;
"C1419964";;;"Windows 7";"Rachel's Experiment (D.T.)";"1.0";"2";"1";"1";"2";"1";"1";"2014-10-16 13:32:45.059";"2014-10-16 13:47:19.269";"1";"0";"0";"144";"143";"module.training_block4.exec-4529.GoNoGo4";;;;;;;;;;;;;;;;;;;;;;;;;;;;;;;;;;;;;;;;;;;;;;;;;;;;;;;;;;;"1261";"2014-10-16 13:41:10.297";"NST_correctLoc";"29";"0";"FINISHED";"LEFT";"success";"345";"0";"2014-10-16 13:41:09.034";"3";;;;;;;;;;;;;;;;;;;;;
"C1419964";;;"Windows 7";"Rachel's Experiment (D.T.)";"1.0";"2";"1";"1";"2";"1";"1";"2014-10-16 13:32:45.059";"2014-10-16 13:47:19.269";"1";"0";"0";"145";"144";"module.training_block4.exec-4529.GoNoGo4";;;;;;;;;;;;;;;;;;;;;;;;;;;;;;;;;;;;;;;;;;;;;;;;;;;;;;;;;;;"1261";"2014-10-16 13:41:12.840";"NST_correctLoc";"10";"0";"FINISHED";"LEFT";"success";"346";"0";"2014-10-16 13:41:11.576";"2";;;;;;;;;;;;;;;;;;;;;
"C1419964";;;"Windows 7";"Rachel's Experiment (D.T.)";"1.0";"2";"1";"1";"2";"1";"1";"2014-10-16 13:32:45.059";"2014-10-16 13:47:19.269";"1";"0";"0";"146";"145";"module.training_block4.exec-4529.GoNoGo4";;;;;;;;;;;;;;;;;;;;;;;;;;;;;;;;;;;;;;;;;;;;;;;;;;;;;;;;;;;"1261";"2014-10-16 13:41:15.383";"NST_correctLoc";"23";"0";"FINISHED";"LEFT";"success";"347";"0";"2014-10-16 13:41:14.119";"3";;;;;;;;;;;;;;;;;;;;;
"C1419964";;;"Windows 7";"Rachel's Experiment (D.T.)";"1.0";"2";"1";"1";"2";"1";"1";"2014-10-16 13:32:45.059";"2014-10-16 13:47:19.269";"1";"0";"0";"147";"146";"module.training_block4.exec-4529.GoNoGo4";;;;;;;;;;;;;;;;;;;;;;;;;;;;;;;;;;;;;;;;;;;;;;;;;;;;;;;;;;;"1261";"2014-10-16 13:41:17.926";"NST_correctLoc";"28";"1";"FINISHED";"RIGHT";"success";"388";"0";"2014-10-16 13:41:16.662";"3";;;;;;;;;;;;;;;;;;;;;
"C1419964";;;"Windows 7";"Rachel's Experiment (D.T.)";"1.0";"2";"1";"1";"2";"1";"1";"2014-10-16 13:32:45.059";"2014-10-16 13:47:19.269";"1";"0";"0";"148";"147";"module.training_block4.exec-4529.GoNoGo4";;;;;;;;;;;;;;;;;;;;;;;;;;;;;;;;;;;;;;;;;;;;;;;;;;;;;;;;;;;"1261";"2014-10-16 13:41:20.484";"NST_correctLoc";"17";"1";"FINISHED";"RIGHT";"success";"374";"0";"2014-10-16 13:41:19.220";"2";;;;;;;;;;;;;;;;;;;;;
"C1419964";;;"Windows 7";"Rachel's Experiment (D.T.)";"1.0";"2";"1";"1";"2";"1";"1";"2014-10-16 13:32:45.059";"2014-10-16 13:47:19.269";"1";"0";"0";"149";"148";"module.training_block4.exec-4529.GoNoGo4";;;;;;;;;;;;;;;;;;;;;;;;;;;;;;;;;;;;;;;;;;;;;;;;;;;;;;;;;;;"1261";"2014-10-16 13:41:23.027";"NST_correctLoc";"21";"1";"FINISHED";"RIGHT";"success";"359";"0";"2014-10-16 13:41:21.763";"3";;;;;;;;;;;;;;;;;;;;;
"C1419964";;;"Windows 7";"Rachel's Experiment (D.T.)";"1.0";"2";"1";"1";"2";"1";"1";"2014-10-16 13:32:45.059";"2014-10-16 13:47:19.269";"1";"0";"0";"150";"149";"module.training_block4.exec-4529.GoNoGo4";;;;;;;;;;;;;;;;;;;;;;;;;;;;;;;;;;;;;;;;;;;;;;;;;;;;;;;;;;;"1261";"2014-10-16 13:41:25.585";"NST_correctLoc";"11";"0";"FINISHED";"LEFT";"success";"312";"0";"2014-10-16 13:41:24.322";"2";;;;;;;;;;;;;;;;;;;;;
"C1419964";;;"Windows 7";"Rachel's Experiment (D.T.)";"1.0";"2";"1";"1";"2";"1";"1";"2014-10-16 13:32:45.059";"2014-10-16 13:47:19.269";"1";"0";"0";"151";"150";"module.training_block4.exec-4529.GoNoGo4";;;;;;;;;;;;;;;;;;;;;;;;;;;;;;;;;;;;;;;;;;;;;;;;;;;;;;;;;;;"1261";"2014-10-16 13:41:28.128";"NST_correctLoc";"7";"1";"FINISHED";"RIGHT";"success";"314";"0";"2014-10-16 13:41:26.864";"1";;;;;;;;;;;;;;;;;;;;;
"C1419964";;;"Windows 7";"Rachel's Experiment (D.T.)";"1.0";"2";"1";"1";"2";"1";"1";"2014-10-16 13:32:45.059";"2014-10-16 13:47:19.269";"1";"0";"0";"152";"151";"module.training_block4.exec-4529.GoNoGo4";;;;;;;;;;;;;;;;;;;;;;;;;;;;;;;;;;;;;;;;;;;;;;;;;;;;;;;;;;;"1261";"2014-10-16 13:41:30.671";"NST_correctLoc";"33";"0";"FINISHED";"LEFT";"success";"347";"0";"2014-10-16 13:41:29.407";"3";;;;;;;;;;;;;;;;;;;;;
"C1419964";;;"Windows 7";"Rachel's Experiment (D.T.)";"1.0";"2";"1";"1";"2";"1";"1";"2014-10-16 13:32:45.059";"2014-10-16 13:47:19.269";"1";"0";"0";"153";"152";"module.training_block4.exec-4529.GoNoGo4";;;;;;;;;;;;;;;;;;;;;;;;;;;;;;;;;;;;;;;;;;;;;;;;;;;;;;;;;;;"1261";"2014-10-16 13:41:33.214";"NST_correctLoc";"1";"1";"FINISHED";"RIGHT";"success";"356";"0";"2014-10-16 13:41:31.950";"1";;;;;;;;;;;;;;;;;;;;;
"C1419964";;;"Windows 7";"Rachel's Experiment (D.T.)";"1.0";"2";"1";"1";"2";"1";"1";"2014-10-16 13:32:45.059";"2014-10-16 13:47:19.269";"1";"0";"0";"154";"153";"module.training_block4.exec-4529.GoNoGo4";;;;;;;;;;;;;;;;;;;;;;;;;;;;;;;;;;;;;;;;;;;;;;;;;;;;;;;;;;;"1261";"2014-10-16 13:41:35.756";"NST_correctLoc";"3";"0";"FINISHED";"LEFT";"success";"333";"0";"2014-10-16 13:41:34.493";"1";;;;;;;;;;;;;;;;;;;;;
"C1419964";;;"Windows 7";"Rachel's Experiment (D.T.)";"1.0";"2";"1";"1";"2";"1";"1";"2014-10-16 13:32:45.059";"2014-10-16 13:47:19.269";"1";"0";"0";"155";"154";"module.training_block4.exec-4529.GoNoGo4";;;;;;;;;;;;;;;;;;;;;;;;;;;;;;;;;;;;;;;;;;;;;;;;;;;;;;;;;;;"1261";"2014-10-16 13:41:38.299";"NST_correctLoc";"5";"0";"FINISHED";"LEFT";"success";"366";"0";"2014-10-16 13:41:37.036";"1";;;;;;;;;;;;;;;;;;;;;
"C1419964";;;"Windows 7";"Rachel's Experiment (D.T.)";"1.0";"2";"1";"1";"2";"1";"1";"2014-10-16 13:32:45.059";"2014-10-16 13:47:19.269";"1";"0";"0";"156";"155";"module.training_block4.exec-4529.GoNoGo4";;;;;;;;;;;;;;;;;;;;;;;;;;;;;;;;;;;;;;;;;;;;;;;;;;;;;;;;;;;"1261";"2014-10-16 13:41:40.842";"NST_correctLoc";"24";"1";"FINISHED";"RIGHT";"success";"327";"0";"2014-10-16 13:41:39.578";"3";;;;;;;;;;;;;;;;;;;;;
"C1419964";;;"Windows 7";"Rachel's Experiment (D.T.)";"1.0";"2";"1";"1";"2";"1";"1";"2014-10-16 13:32:45.059";"2014-10-16 13:47:19.269";"1";"0";"0";"157";"156";"module.training_block4.exec-4529.GoNoGo4";;;;;;;;;;;;;;;;;;;;;;;;;;;;;;;;;;;;;;;;;;;;;;;;;;;;;;;;;;;"1261";"2014-10-16 13:41:43.385";"NST_correctLoc";"20";"1";"FINISHED";"RIGHT";"success";"361";"0";"2014-10-16 13:41:42.121";"3";;;;;;;;;;;;;;;;;;;;;
"C1419964";;;"Windows 7";"Rachel's Experiment (D.T.)";"1.0";"2";"1";"1";"2";"1";"1";"2014-10-16 13:32:45.059";"2014-10-16 13:47:19.269";"1";"0";"0";"158";"157";"module.training_block4.exec-4529.GoNoGo4";;;;;;;;;;;;;;;;;;;;;;;;;;;;;;;;;;;;;;;;;;;;;;;;;;;;;;;;;;;"1261";"2014-10-16 13:41:45.928";"NST_correctLoc";"30";"0";"FINISHED";"LEFT";"success";"314";"0";"2014-10-16 13:41:44.664";"3";;;;;;;;;;;;;;;;;;;;;
"C1419964";;;"Windows 7";"Rachel's Experiment (D.T.)";"1.0";"2";"1";"1";"2";"1";"1";"2014-10-16 13:32:45.059";"2014-10-16 13:47:19.269";"1";"0";"0";"159";"158";"module.training_block4.exec-4529.GoNoGo4";;;;;;;;;;;;;;;;;;;;;;;;;;;;;;;;;;;;;;;;;;;;;;;;;;;;;;;;;;;"1261";"2014-10-16 13:41:48.470";"NST_correctLoc";"2";"1";"FINISHED";"RIGHT";"success";"291";"0";"2014-10-16 13:41:47.207";"1";;;;;;;;;;;;;;;;;;;;;
"C1419964";;;"Windows 7";"Rachel's Experiment (D.T.)";"1.0";"2";"1";"1";"2";"1";"1";"2014-10-16 13:32:45.059";"2014-10-16 13:47:19.269";"1";"0";"0";"160";"159";"module.devaluation_practice.exec-8969.devalPractice";;;;;;;;;;;;"20129";"2014-10-16 13:42:45.379";"0";"7";"7";"8";"7608";"3835";"5624";"2014-10-16 13:42:25.240";;;;;;;;;;;;;;;;;;;;;;;;;;;;;;;;;;;;;;;;;;;;;;;;;;;;;;;;;;;;;;;;;;;;;;
"C1419964";;;"Windows 7";"Rachel's Experiment (D.T.)";"1.0";"2";"1";"1";"2";"1";"1";"2014-10-16 13:32:45.059";"2014-10-16 13:47:19.269";"1";"0";"0";"161";"160";"module.devaluation_practice.exec-8969.devalPractice";;;;;;;;;;;;"12322";"2014-10-16 13:42:57.719";"1";"3";"4";"3";"2897";"2528";"3882";"2014-10-16 13:42:45.395";;;;;;;;;;;;;;;;;;;;;;;;;;;;;;;;;;;;;;;;;;;;;;;;;;;;;;;;;;;;;;;;;;;;;;
"C1419964";;;"Windows 7";"Rachel's Experiment (D.T.)";"1.0";"2";"1";"1";"2";"1";"1";"2014-10-16 13:32:45.059";"2014-10-16 13:47:19.269";"1";"0";"0";"162";"161";"module.devaluation_practice.exec-8969.devalPractice";;;;;;;;;;;;"11371";"2014-10-16 13:43:09.107";"2";"3";"5";"6";"4509";"2189";"1640";"2014-10-16 13:42:57.735";;;;;;;;;;;;;;;;;;;;;;;;;;;;;;;;;;;;;;;;;;;;;;;;;;;;;;;;;;;;;;;;;;;;;;
"C1419964";;;"Windows 7";"Rachel's Experiment (D.T.)";"1.0";"2";"1";"1";"2";"1";"1";"2014-10-16 13:32:45.059";"2014-10-16 13:47:19.269";"1";"0";"0";"163";"162";"module.devaluation_practice.exec-8969.devalPractice";;;;;;;;;;;;"9969";"2014-10-16 13:43:19.216";"3";"2";"3";"4";"2660";"1904";"2354";"2014-10-16 13:43:09.247";;;;;;;;;;;;;;;;;;;;;;;;;;;;;;;;;;;;;;;;;;;;;;;;;;;;;;;;;;;;;;;;;;;;;;
"C1419964";;;"Windows 7";"Rachel's Experiment (D.T.)";"1.0";"2";"1";"1";"2";"1";"1";"2014-10-16 13:32:45.059";"2014-10-16 13:47:19.269";"1";"0";"0";"164";"163";"module.devaluation_block1.exec-3258.deval1";"10328";"2014-10-16 13:43:40.323";"11";"3";"6";"4";"2335";"1909";"3041";"2014-10-16 13:43:29.995";"2";;;;;;;;;;;;;;;;;;;;;;;;;;;;;;;;;;;;;;;;;;;;;;;;;;;;;;;;;;;;;;;;;;;;;;;;;;;;;;;;
"C1419964";;;"Windows 7";"Rachel's Experiment (D.T.)";"1.0";"2";"1";"1";"2";"1";"1";"2014-10-16 13:32:45.059";"2014-10-16 13:47:19.269";"1";"0";"0";"165";"164";"module.devaluation_block1.exec-3258.deval1";"9958";"2014-10-16 13:43:50.307";"3";"8";"7";"8";"3746";"1144";"2031";"2014-10-16 13:43:40.354";"1";;;;;;;;;;;;;;;;;;;;;;;;;;;;;;;;;;;;;;;;;;;;;;;;;;;;;;;;;;;;;;;;;;;;;;;;;;;;;;;;
"C1419964";;;"Windows 7";"Rachel's Experiment (D.T.)";"1.0";"2";"1";"1";"2";"1";"1";"2014-10-16 13:32:45.059";"2014-10-16 13:47:19.269";"1";"0";"0";"166";"165";"module.devaluation_block1.exec-3258.deval1";"10618";"2014-10-16 13:44:00.946";"23";"6";"3";"3";"2225";"1426";"3951";"2014-10-16 13:43:50.322";"3";;;;;;;;;;;;;;;;;;;;;;;;;;;;;;;;;;;;;;;;;;;;;;;;;;;;;;;;;;;;;;;;;;;;;;;;;;;;;;;;
"C1419964";;;"Windows 7";"Rachel's Experiment (D.T.)";"1.0";"2";"1";"1";"2";"1";"1";"2014-10-16 13:32:45.059";"2014-10-16 13:47:19.269";"1";"0";"0";"167";"166";"module.devaluation_block1.exec-3258.deval1";"8523";"2014-10-16 13:44:09.495";"5";"8";"8";"8";"2578";"1717";"1209";"2014-10-16 13:44:00.961";"1";;;;;;;;;;;;;;;;;;;;;;;;;;;;;;;;;;;;;;;;;;;;;;;;;;;;;;;;;;;;;;;;;;;;;;;;;;;;;;;;
"C1419964";;;"Windows 7";"Rachel's Experiment (D.T.)";"1.0";"2";"1";"1";"2";"1";"1";"2014-10-16 13:32:45.059";"2014-10-16 13:47:19.269";"1";"0";"0";"168";"167";"module.devaluation_block1.exec-3258.deval1";"9499";"2014-10-16 13:44:19.011";"24";"5";"5";"6";"3133";"1160";"2166";"2014-10-16 13:44:09.510";"3";;;;;;;;;;;;;;;;;;;;;;;;;;;;;;;;;;;;;;;;;;;;;;;;;;;;;;;;;;;;;;;;;;;;;;;;;;;;;;;;
"C1419964";;;"Windows 7";"Rachel's Experiment (D.T.)";"1.0";"2";"1";"1";"2";"1";"1";"2014-10-16 13:32:45.059";"2014-10-16 13:47:19.269";"1";"0";"0";"169";"168";"module.devaluation_block1.exec-3258.deval1";"7291";"2014-10-16 13:44:26.327";"2";"5";"6";"6";"801";"1951";"1523";"2014-10-16 13:44:19.026";"1";;;;;;;;;;;;;;;;;;;;;;;;;;;;;;;;;;;;;;;;;;;;;;;;;;;;;;;;;;;;;;;;;;;;;;;;;;;;;;;;
"C1419964";;;"Windows 7";"Rachel's Experiment (D.T.)";"1.0";"2";"1";"1";"2";"1";"1";"2014-10-16 13:32:45.059";"2014-10-16 13:47:19.269";"1";"0";"0";"170";"169";"module.devaluation_block1.exec-3258.deval1";"6812";"2014-10-16 13:44:33.160";"1";"6";"6";"7";"917";"1607";"1258";"2014-10-16 13:44:26.343";"1";;;;;;;;;;;;;;;;;;;;;;;;;;;;;;;;;;;;;;;;;;;;;;;;;;;;;;;;;;;;;;;;;;;;;;;;;;;;;;;;
"C1419964";;;"Windows 7";"Rachel's Experiment (D.T.)";"1.0";"2";"1";"1";"2";"1";"1";"2014-10-16 13:32:45.059";"2014-10-16 13:47:19.269";"1";"0";"0";"171";"170";"module.devaluation_block1.exec-3258.deval1";"7754";"2014-10-16 13:44:40.929";"13";"7";"7";"7";"1764";"1505";"1454";"2014-10-16 13:44:33.176";"2";;;;;;;;;;;;;;;;;;;;;;;;;;;;;;;;;;;;;;;;;;;;;;;;;;;;;;;;;;;;;;;;;;;;;;;;;;;;;;;;
"C1419964";;;"Windows 7";"Rachel's Experiment (D.T.)";"1.0";"2";"1";"1";"2";"1";"1";"2014-10-16 13:32:45.059";"2014-10-16 13:47:19.269";"1";"0";"0";"172";"171";"module.devaluation_block1.exec-3258.deval1";"10315";"2014-10-16 13:44:51.272";"25";"4";"3";"3";"2499";"2746";"2048";"2014-10-16 13:44:40.944";"3";;;;;;;;;;;;;;;;;;;;;;;;;;;;;;;;;;;;;;;;;;;;;;;;;;;;;;;;;;;;;;;;;;;;;;;;;;;;;;;;
"C1419964";;;"Windows 7";"Rachel's Experiment (D.T.)";"1.0";"2";"1";"1";"2";"1";"1";"2014-10-16 13:32:45.059";"2014-10-16 13:47:19.269";"1";"0";"0";"173";"172";"module.devaluation_block1.exec-3258.deval1";"6926";"2014-10-16 13:44:58.229";"16";"3";"3";"3";"989";"1531";"1379";"2014-10-16 13:44:51.303";"2";;;;;;;;;;;;;;;;;;;;;;;;;;;;;;;;;;;;;;;;;;;;;;;;;;;;;;;;;;;;;;;;;;;;;;;;;;;;;;;;
"C1419964";;;"Windows 7";"Rachel's Experiment (D.T.)";"1.0";"2";"1";"1";"2";"1";"1";"2014-10-16 13:32:45.059";"2014-10-16 13:47:19.269";"1";"0";"0";"174";"173";"module.devaluation_block1.exec-3258.deval1";"5760";"2014-10-16 13:45:04.017";"15";"3";"3";"3";"1150";"748";"841";"2014-10-16 13:44:58.245";"2";;;;;;;;;;;;;;;;;;;;;;;;;;;;;;;;;;;;;;;;;;;;;;;;;;;;;;;;;;;;;;;;;;;;;;;;;;;;;;;;
"C1419964";;;"Windows 7";"Rachel's Experiment (D.T.)";"1.0";"2";"1";"1";"2";"1";"1";"2014-10-16 13:32:45.059";"2014-10-16 13:47:19.269";"1";"0";"0";"175";"174";"module.devaluation_block1.exec-3258.deval1";"13220";"2014-10-16 13:45:17.277";"26";"8";"6";"8";"3011";"3060";"4117";"2014-10-16 13:45:04.048";"3";;;;;;;;;;;;;;;;;;;;;;;;;;;;;;;;;;;;;;;;;;;;;;;;;;;;;;;;;;;;;;;;;;;;;;;;;;;;;;;;
"C1419964";;;"Windows 7";"Rachel's Experiment (D.T.)";"1.0";"2";"1";"1";"2";"1";"1";"2014-10-16 13:32:45.059";"2014-10-16 13:47:19.269";"1";"0";"0";"176";"175";"module.devaluation_block1.exec-3258.deval1";"6267";"2014-10-16 13:45:23.564";"19";"7";"6";"7";"1719";"659";"864";"2014-10-16 13:45:17.292";"3";;;;;;;;;;;;;;;;;;;;;;;;;;;;;;;;;;;;;;;;;;;;;;;;;;;;;;;;;;;;;;;;;;;;;;;;;;;;;;;;
"C1419964";;;"Windows 7";"Rachel's Experiment (D.T.)";"1.0";"2";"1";"1";"2";"1";"1";"2014-10-16 13:32:45.059";"2014-10-16 13:47:19.269";"1";"0";"0";"177";"176";"module.devaluation_block1.exec-3258.deval1";"7131";"2014-10-16 13:45:30.708";"14";"7";"7";"7";"1472";"1477";"1155";"2014-10-16 13:45:23.579";"2";;;;;;;;;;;;;;;;;;;;;;;;;;;;;;;;;;;;;;;;;;;;;;;;;;;;;;;;;;;;;;;;;;;;;;;;;;;;;;;;
"C1419964";;;"Windows 7";"Rachel's Experiment (D.T.)";"1.0";"2";"1";"1";"2";"1";"1";"2014-10-16 13:32:45.059";"2014-10-16 13:47:19.269";"1";"0";"0";"178";"177";"module.devaluation_block1.exec-3258.deval1";"7483";"2014-10-16 13:45:38.212";"7";"6";"7";"7";"656";"2305";"1494";"2014-10-16 13:45:30.740";"1";;;;;;;;;;;;;;;;;;;;;;;;;;;;;;;;;;;;;;;;;;;;;;;;;;;;;;;;;;;;;;;;;;;;;;;;;;;;;;;;
"C1419964";;;"Windows 7";"Rachel's Experiment (D.T.)";"1.0";"2";"1";"1";"2";"1";"1";"2014-10-16 13:32:45.059";"2014-10-16 13:47:19.269";"1";"0";"0";"179";"178";"module.devaluation_block1.exec-3258.deval1";"9498";"2014-10-16 13:45:47.744";"17";"2";"2";"2";"2816";"2527";"1133";"2014-10-16 13:45:38.243";"2";;;;;;;;;;;;;;;;;;;;;;;;;;;;;;;;;;;;;;;;;;;;;;;;;;;;;;;;;;;;;;;;;;;;;;;;;;;;;;;;
"C1419964";;;"Windows 7";"Rachel's Experiment (D.T.)";"1.0";"2";"1";"1";"2";"1";"1";"2014-10-16 13:32:45.059";"2014-10-16 13:47:19.269";"1";"0";"0";"180";"179";"module.devaluation_block1.exec-3258.deval1";"8147";"2014-10-16 13:45:55.902";"20";"2";"2";"5";"1620";"1616";"1883";"2014-10-16 13:45:47.759";"3";;;;;;;;;;;;;;;;;;;;;;;;;;;;;;;;;;;;;;;;;;;;;;;;;;;;;;;;;;;;;;;;;;;;;;;;;;;;;;;;
"C1419964";;;"Windows 7";"Rachel's Experiment (D.T.)";"1.0";"2";"1";"1";"2";"1";"1";"2014-10-16 13:32:45.059";"2014-10-16 13:47:19.269";"1";"0";"0";"181";"180";"module.devaluation_block1.exec-3258.deval1";"9906";"2014-10-16 13:46:05.840";"6";"7";"5";"7";"2213";"1123";"3523";"2014-10-16 13:45:55.934";"1";;;;;;;;;;;;;;;;;;;;;;;;;;;;;;;;;;;;;;;;;;;;;;;;;;;;;;;;;;;;;;;;;;;;;;;;;;;;;;;;
"C1419964";;;"Windows 7";"Rachel's Experiment (D.T.)";"1.0";"2";"1";"1";"2";"1";"1";"2014-10-16 13:32:45.059";"2014-10-16 13:47:19.269";"1";"0";"0";"182";"181";"module.devaluation_block1.exec-3258.deval1";"6837";"2014-10-16 13:46:12.704";"9";"5";"6";"4";"844";"1037";"1927";"2014-10-16 13:46:05.871";"2";;;;;;;;;;;;;;;;;;;;;;;;;;;;;;;;;;;;;;;;;;;;;;;;;;;;;;;;;;;;;;;;;;;;;;;;;;;;;;;;
"C1419964";;;"Windows 7";"Rachel's Experiment (D.T.)";"1.0";"2";"1";"1";"2";"1";"1";"2014-10-16 13:32:45.059";"2014-10-16 13:47:19.269";"1";"0";"0";"183";"182";"module.devaluation_block1.exec-3258.deval1";"9201";"2014-10-16 13:46:21.923";"18";"5";"6";"7";"2340";"1042";"2781";"2014-10-16 13:46:12.735";"3";;;;;;;;;;;;;;;;;;;;;;;;;;;;;;;;;;;;;;;;;;;;;;;;;;;;;;;;;;;;;;;;;;;;;;;;;;;;;;;;
"C1419964";;;"Windows 7";"Rachel's Experiment (D.T.)";"1.0";"2";"1";"1";"2";"1";"1";"2014-10-16 13:32:45.059";"2014-10-16 13:47:19.269";"1";"0";"0";"184";"183";"module.devaluation_block1.exec-3258.deval1";"7635";"2014-10-16 13:46:29.583";"10";"8";"7";"8";"1056";"1693";"1856";"2014-10-16 13:46:21.955";"2";;;;;;;;;;;;;;;;;;;;;;;;;;;;;;;;;;;;;;;;;;;;;;;;;;;;;;;;;;;;;;;;;;;;;;;;;;;;;;;;
"C1419964";;;"Windows 7";"Rachel's Experiment (D.T.)";"1.0";"2";"1";"1";"2";"1";"1";"2014-10-16 13:32:45.059";"2014-10-16 13:47:19.269";"1";"0";"0";"185";"184";"module.devaluation_block1.exec-3258.deval1";"6643";"2014-10-16 13:46:36.244";"0";"5";"7";"7";"413";"2180";"1012";"2014-10-16 13:46:29.614";"1";;;;;;;;;;;;;;;;;;;;;;;;;;;;;;;;;;;;;;;;;;;;;;;;;;;;;;;;;;;;;;;;;;;;;;;;;;;;;;;;
"C1419964";;;"Windows 7";"Rachel's Experiment (D.T.)";"1.0";"2";"1";"1";"2";"1";"1";"2014-10-16 13:32:45.059";"2014-10-16 13:47:19.269";"1";"0";"0";"186";"185";"module.devaluation_block1.exec-3258.deval1";"10151";"2014-10-16 13:46:46.431";"12";"8";"7";"7";"1096";"1591";"4441";"2014-10-16 13:46:36.275";"2";;;;;;;;;;;;;;;;;;;;;;;;;;;;;;;;;;;;;;;;;;;;;;;;;;;;;;;;;;;;;;;;;;;;;;;;;;;;;;;;
"C1419964";;;"Windows 7";"Rachel's Experiment (D.T.)";"1.0";"2";"1";"1";"2";"1";"1";"2014-10-16 13:32:45.059";"2014-10-16 13:47:19.269";"1";"0";"0";"187";"186";"module.devaluation_block1.exec-3258.deval1";"6946";"2014-10-16 13:46:53.389";"22";"7";"6";"7";"1596";"1056";"1274";"2014-10-16 13:46:46.447";"3";;;;;;;;;;;;;;;;;;;;;;;;;;;;;;;;;;;;;;;;;;;;;;;;;;;;;;;;;;;;;;;;;;;;;;;;;;;;;;;;
"C1419964";;;"Windows 7";"Rachel's Experiment (D.T.)";"1.0";"2";"1";"1";"2";"1";"1";"2014-10-16 13:32:45.059";"2014-10-16 13:47:19.269";"1";"0";"0";"188";"187";"module.devaluation_block1.exec-3258.deval1";"8211";"2014-10-16 13:47:01.625";"21";"8";"7";"8";"2983";"786";"1409";"2014-10-16 13:46:53.420";"3";;;;;;;;;;;;;;;;;;;;;;;;;;;;;;;;;;;;;;;;;;;;;;;;;;;;;;;;;;;;;;;;;;;;;;;;;;;;;;;;
"C1419964";;;"Windows 7";"Rachel's Experiment (D.T.)";"1.0";"2";"1";"1";"2";"1";"1";"2014-10-16 13:32:45.059";"2014-10-16 13:47:19.269";"1";"0";"0";"189";"188";"module.devaluation_block1.exec-3258.deval1";"7467";"2014-10-16 13:47:09.113";"8";"7";"4";"6";"1114";"1129";"2203";"2014-10-16 13:47:01.641";"1";;;;;;;;;;;;;;;;;;;;;;;;;;;;;;;;;;;;;;;;;;;;;;;;;;;;;;;;;;;;;;;;;;;;;;;;;;;;;;;;
"C1419964";;;"Windows 7";"Rachel's Experiment (D.T.)";"1.0";"2";"1";"1";"2";"1";"1";"2014-10-16 13:32:45.059";"2014-10-16 13:47:19.269";"1";"0";"0";"190";"189";"module.devaluation_block1.exec-3258.deval1";"8043";"2014-10-16 13:47:17.179";"4";"8";"8";"9";"1258";"1736";"2039";"2014-10-16 13:47:09.129";"1";;;;;;;;;;;;;;;;;;;;;;;;;;;;;;;;;;;;;;;;;;;;;;;;;;;;;;;;;;;;;;;;;;;;;;;;;;;;;;;;
