"user.name";"user.yearOfBirth";"user.sex";"user.osName";"module.name";"module.version";"module.online.subject.code";"module.online.study.id";"module.online.module.nr";"module.online.group.nr";"session.id";"session.index";"session.startTime";"session.endTime";"session.completed";"session.node-6045.DevalQorder";"session.node-7742.conditionType";"trial.id";"trial.index";"trial.name";"trial.deval1.durationTime";"trial.deval1.endTime";"trial.deval1.icon";"trial.deval1.Resp_Attractive";"trial.deval1.Resp_Eat";"trial.deval1.Resp_Taste";"trial.deval1.RT_Attractive";"trial.deval1.RT_Eat";"trial.deval1.RT_Taste";"trial.deval1.startTime";"trial.deval1.stimulus type";"trial.devalPractice.durationTime";"trial.devalPractice.endTime";"trial.devalPractice.icon";"trial.devalPractice.Resp_Attractive";"trial.devalPractice.Resp_Eat";"trial.devalPractice.Resp_Taste";"trial.devalPractice.RT_Attractive";"trial.devalPractice.RT_Eat";"trial.devalPractice.RT_Taste";"trial.devalPractice.startTime";"trial.devalPractice.stimulus type";"trial.GoNoGo1.durationTime";"trial.GoNoGo1.endTime";"trial.GoNoGo1.Error Type";"trial.GoNoGo1.icon";"trial.GoNoGo1.location";"trial.GoNoGo1.outcome";"trial.GoNoGo1.response";"trial.GoNoGo1.result";"trial.GoNoGo1.RT";"trial.GoNoGo1.signal";"trial.GoNoGo1.startTime";"trial.GoNoGo1.stimulus type";"trial.GoNoGo2.durationTime";"trial.GoNoGo2.endTime";"trial.GoNoGo2.Error Type";"trial.GoNoGo2.icon";"trial.GoNoGo2.location";"trial.GoNoGo2.outcome";"trial.GoNoGo2.response";"trial.GoNoGo2.result";"trial.GoNoGo2.RT";"trial.GoNoGo2.signal";"trial.GoNoGo2.startTime";"trial.GoNoGo2.stimulus type";"trial.GoNoGo3.durationTime";"trial.GoNoGo3.endTime";"trial.GoNoGo3.Error Type";"trial.GoNoGo3.icon";"trial.GoNoGo3.location";"trial.GoNoGo3.outcome";"trial.GoNoGo3.response";"trial.GoNoGo3.result";"trial.GoNoGo3.RT";"trial.GoNoGo3.signal";"trial.GoNoGo3.startTime";"trial.GoNoGo3.stimulus type";"trial.GoNoGo4.durationTime";"trial.GoNoGo4.endTime";"trial.GoNoGo4.Error Type";"trial.GoNoGo4.icon";"trial.GoNoGo4.location";"trial.GoNoGo4.outcome";"trial.GoNoGo4.response";"trial.GoNoGo4.result";"trial.GoNoGo4.RT";"trial.GoNoGo4.signal";"trial.GoNoGo4.startTime";"trial.GoNoGo4.stimulus type";"trial.GoNoGo_Practice.durationTime";"trial.GoNoGo_Practice.endTime";"trial.GoNoGo_Practice.icon";"trial.GoNoGo_Practice.location";"trial.GoNoGo_Practice.outcome";"trial.GoNoGo_Practice.response";"trial.GoNoGo_Practice.result";"trial.GoNoGo_Practice.RT";"trial.GoNoGo_Practice.signal";"trial.GoNoGo_Practice.startTime";"trial.GoNoGo_Practice.stimulus type";"trial.GoNoGo_Tutorial.durationTime";"trial.GoNoGo_Tutorial.endTime";"trial.GoNoGo_Tutorial.icon";"trial.GoNoGo_Tutorial.location";"trial.GoNoGo_Tutorial.outcome";"trial.GoNoGo_Tutorial.response";"trial.GoNoGo_Tutorial.result";"trial.GoNoGo_Tutorial.RT";"trial.GoNoGo_Tutorial.signal";"trial.GoNoGo_Tutorial.startTime"
"tob11";"1994";;"Windows 7";"Rachel's Experiment (D.T.)";"1.0";"2";"1";"1";"2";"1";"1";"2014-10-15 15:20:58.511";"2014-10-15 15:33:31.037";"1";"0";"0";"1";"0";"module.GoNoGotutorial.exec-8296.GoNoGo_Tutorial";;;;;;;;;;;;;;;;;;;;;;;;;;;;;;;;;;;;;;;;;;;;;;;;;;;;;;;;;;;;;;;;;;;;;;;;;;;;;;;;;;"3995";"2014-10-15 15:21:53.683";"leftResponse";"0";"FINISHED";"NONE";"failure";"0";"0";"2014-10-15 15:21:49.673"
"tob11";"1994";;"Windows 7";"Rachel's Experiment (D.T.)";"1.0";"2";"1";"1";"2";"1";"1";"2014-10-15 15:20:58.511";"2014-10-15 15:33:31.037";"1";"0";"0";"2";"1";"module.GoNoGotutorial.exec-8296.GoNoGo_Tutorial";;;;;;;;;;;;;;;;;;;;;;;;;;;;;;;;;;;;;;;;;;;;;;;;;;;;;;;;;;;;;;;;;;;;;;;;;;;;;;;;;;"4008";"2014-10-15 15:21:59.003";"rightResponse";"1";"FINISHED";"NONE";"failure";"0";"0";"2014-10-15 15:21:54.993"
"tob11";"1994";;"Windows 7";"Rachel's Experiment (D.T.)";"1.0";"2";"1";"1";"2";"1";"1";"2014-10-15 15:20:58.511";"2014-10-15 15:33:31.037";"1";"0";"0";"3";"2";"module.GoNoGotutorial.exec-8296.GoNoGo_Tutorial";;;;;;;;;;;;;;;;;;;;;;;;;;;;;;;;;;;;;;;;;;;;;;;;;;;;;;;;;;;;;;;;;;;;;;;;;;;;;;;;;;"4003";"2014-10-15 15:22:04.308";"quickResponse";"0";"FINISHED";"NONE";"failure";"0";"0";"2014-10-15 15:22:00.298"
"tob11";"1994";;"Windows 7";"Rachel's Experiment (D.T.)";"1.0";"2";"1";"1";"2";"1";"1";"2014-10-15 15:20:58.511";"2014-10-15 15:33:31.037";"1";"0";"0";"4";"3";"module.GoNoGopractice.exec-1241.GoNoGo_Practice";;;;;;;;;;;;;;;;;;;;;;;;;;;;;;;;;;;;;;;;;;;;;;;;;;;;;;;;;;;;;;;;;;;;;;;"1959";"2014-10-15 15:22:14.700";"18";"0";"FINISHED";"NONE";"failure";"0";"0";"2014-10-15 15:22:12.734";"3";;;;;;;;;;
"tob11";"1994";;"Windows 7";"Rachel's Experiment (D.T.)";"1.0";"2";"1";"1";"2";"1";"1";"2014-10-15 15:20:58.511";"2014-10-15 15:33:31.037";"1";"0";"0";"5";"4";"module.GoNoGopractice.exec-1241.GoNoGo_Practice";;;;;;;;;;;;;;;;;;;;;;;;;;;;;;;;;;;;;;;;;;;;;;;;;;;;;;;;;;;;;;;;;;;;;;;"1959";"2014-10-15 15:22:17.945";"21";"1";"FINISHED";"RIGHT";"success";"468";"0";"2014-10-15 15:22:15.979";"3";;;;;;;;;;
"tob11";"1994";;"Windows 7";"Rachel's Experiment (D.T.)";"1.0";"2";"1";"1";"2";"1";"1";"2014-10-15 15:20:58.511";"2014-10-15 15:33:31.037";"1";"0";"0";"6";"5";"module.GoNoGopractice.exec-1241.GoNoGo_Practice";;;;;;;;;;;;;;;;;;;;;;;;;;;;;;;;;;;;;;;;;;;;;;;;;;;;;;;;;;;;;;;;;;;;;;;"1959";"2014-10-15 15:22:21.191";"14";"1";"FINISHED";"RIGHT";"success";"423";"0";"2014-10-15 15:22:19.225";"2";;;;;;;;;;
"tob11";"1994";;"Windows 7";"Rachel's Experiment (D.T.)";"1.0";"2";"1";"1";"2";"1";"1";"2014-10-15 15:20:58.511";"2014-10-15 15:33:31.037";"1";"0";"0";"7";"6";"module.GoNoGopractice.exec-1241.GoNoGo_Practice";;;;;;;;;;;;;;;;;;;;;;;;;;;;;;;;;;;;;;;;;;;;;;;;;;;;;;;;;;;;;;;;;;;;;;;"1959";"2014-10-15 15:22:24.436";"26";"0";"FINISHED";"LEFT";"success";"306";"0";"2014-10-15 15:22:22.470";"3";;;;;;;;;;
"tob11";"1994";;"Windows 7";"Rachel's Experiment (D.T.)";"1.0";"2";"1";"1";"2";"1";"1";"2014-10-15 15:20:58.511";"2014-10-15 15:33:31.037";"1";"0";"0";"8";"7";"module.GoNoGopractice.exec-1241.GoNoGo_Practice";;;;;;;;;;;;;;;;;;;;;;;;;;;;;;;;;;;;;;;;;;;;;;;;;;;;;;;;;;;;;;;;;;;;;;;"1959";"2014-10-15 15:22:27.682";"2";"0";"FINISHED";"LEFT";"success";"421";"0";"2014-10-15 15:22:25.716";"1";;;;;;;;;;
"tob11";"1994";;"Windows 7";"Rachel's Experiment (D.T.)";"1.0";"2";"1";"1";"2";"1";"1";"2014-10-15 15:20:58.511";"2014-10-15 15:33:31.037";"1";"0";"0";"9";"8";"module.GoNoGopractice.exec-1241.GoNoGo_Practice";;;;;;;;;;;;;;;;;;;;;;;;;;;;;;;;;;;;;;;;;;;;;;;;;;;;;;;;;;;;;;;;;;;;;;;"1959";"2014-10-15 15:22:30.927";"30";"0";"FINISHED";"LEFT";"success";"425";"0";"2014-10-15 15:22:28.961";"3";;;;;;;;;;
"tob11";"1994";;"Windows 7";"Rachel's Experiment (D.T.)";"1.0";"2";"1";"1";"2";"1";"1";"2014-10-15 15:20:58.511";"2014-10-15 15:33:31.037";"1";"0";"0";"10";"9";"module.GoNoGopractice.exec-1241.GoNoGo_Practice";;;;;;;;;;;;;;;;;;;;;;;;;;;;;;;;;;;;;;;;;;;;;;;;;;;;;;;;;;;;;;;;;;;;;;;"1959";"2014-10-15 15:22:34.157";"6";"1";"FINISHED";"RIGHT";"success";"323";"0";"2014-10-15 15:22:32.191";"1";;;;;;;;;;
"tob11";"1994";;"Windows 7";"Rachel's Experiment (D.T.)";"1.0";"2";"1";"1";"2";"1";"1";"2014-10-15 15:20:58.511";"2014-10-15 15:33:31.037";"1";"0";"0";"11";"10";"module.GoNoGopractice.exec-1241.GoNoGo_Practice";;;;;;;;;;;;;;;;;;;;;;;;;;;;;;;;;;;;;;;;;;;;;;;;;;;;;;;;;;;;;;;;;;;;;;;"1955";"2014-10-15 15:22:37.402";"34";"0";"FINISHED";"LEFT";"success";"346";"0";"2014-10-15 15:22:35.436";"3";;;;;;;;;;
"tob11";"1994";;"Windows 7";"Rachel's Experiment (D.T.)";"1.0";"2";"1";"1";"2";"1";"1";"2014-10-15 15:20:58.511";"2014-10-15 15:33:31.037";"1";"0";"0";"12";"11";"module.GoNoGopractice.exec-1241.GoNoGo_Practice";;;;;;;;;;;;;;;;;;;;;;;;;;;;;;;;;;;;;;;;;;;;;;;;;;;;;;;;;;;;;;;;;;;;;;;"1959";"2014-10-15 15:22:40.648";"23";"1";"FINISHED";"RIGHT";"success";"585";"0";"2014-10-15 15:22:38.682";"3";;;;;;;;;;
"tob11";"1994";;"Windows 7";"Rachel's Experiment (D.T.)";"1.0";"2";"1";"1";"2";"1";"1";"2014-10-15 15:20:58.511";"2014-10-15 15:33:31.037";"1";"0";"0";"13";"12";"module.GoNoGopractice.exec-1241.GoNoGo_Practice";;;;;;;;;;;;;;;;;;;;;;;;;;;;;;;;;;;;;;;;;;;;;;;;;;;;;;;;;;;;;;;;;;;;;;;"1959";"2014-10-15 15:22:43.893";"13";"0";"FINISHED";"LEFT";"success";"341";"0";"2014-10-15 15:22:41.927";"2";;;;;;;;;;
"tob11";"1994";;"Windows 7";"Rachel's Experiment (D.T.)";"1.0";"2";"1";"1";"2";"1";"1";"2014-10-15 15:20:58.511";"2014-10-15 15:33:31.037";"1";"0";"0";"14";"13";"module.GoNoGopractice.exec-1241.GoNoGo_Practice";;;;;;;;;;;;;;;;;;;;;;;;;;;;;;;;;;;;;;;;;;;;;;;;;;;;;;;;;;;;;;;;;;;;;;;"1959";"2014-10-15 15:22:47.138";"3";"1";"FINISHED";"RIGHT";"success";"344";"0";"2014-10-15 15:22:45.172";"1";;;;;;;;;;
"tob11";"1994";;"Windows 7";"Rachel's Experiment (D.T.)";"1.0";"2";"1";"1";"2";"1";"1";"2014-10-15 15:20:58.511";"2014-10-15 15:33:31.037";"1";"0";"0";"15";"14";"module.GoNoGopractice.exec-1241.GoNoGo_Practice";;;;;;;;;;;;;;;;;;;;;;;;;;;;;;;;;;;;;;;;;;;;;;;;;;;;;;;;;;;;;;;;;;;;;;;"1960";"2014-10-15 15:22:50.384";"27";"1";"FINISHED";"RIGHT";"success";"419";"0";"2014-10-15 15:22:48.418";"3";;;;;;;;;;
"tob11";"1994";;"Windows 7";"Rachel's Experiment (D.T.)";"1.0";"2";"1";"1";"2";"1";"1";"2014-10-15 15:20:58.511";"2014-10-15 15:33:31.037";"1";"0";"0";"16";"15";"module.training_block1.exec-7002.GoNoGo1";;;;;;;;;;;;;;;;;;;;;;;"1261";"2014-10-15 15:23:02.133";"NST_correctLoc";"26";"1";"FINISHED";"RIGHT";"success";"381";"0";"2014-10-15 15:23:00.869";"3";;;;;;;;;;;;;;;;;;;;;;;;;;;;;;;;;;;;;;;;;;;;;;;;;;;;;;;;;
"tob11";"1994";;"Windows 7";"Rachel's Experiment (D.T.)";"1.0";"2";"1";"1";"2";"1";"1";"2014-10-15 15:20:58.511";"2014-10-15 15:33:31.037";"1";"0";"0";"17";"16";"module.training_block1.exec-7002.GoNoGo1";;;;;;;;;;;;;;;;;;;;;;;"1257";"2014-10-15 15:23:04.676";"NST_correctLoc";"25";"1";"FINISHED";"RIGHT";"success";"411";"0";"2014-10-15 15:23:03.412";"3";;;;;;;;;;;;;;;;;;;;;;;;;;;;;;;;;;;;;;;;;;;;;;;;;;;;;;;;;
"tob11";"1994";;"Windows 7";"Rachel's Experiment (D.T.)";"1.0";"2";"1";"1";"2";"1";"1";"2014-10-15 15:20:58.511";"2014-10-15 15:33:31.037";"1";"0";"0";"18";"17";"module.training_block1.exec-7002.GoNoGo1";;;;;;;;;;;;;;;;;;;;;;;"1261";"2014-10-15 15:23:07.219";"NST_correctLoc";"3";"1";"FINISHED";"RIGHT";"success";"392";"0";"2014-10-15 15:23:05.955";"1";;;;;;;;;;;;;;;;;;;;;;;;;;;;;;;;;;;;;;;;;;;;;;;;;;;;;;;;;
"tob11";"1994";;"Windows 7";"Rachel's Experiment (D.T.)";"1.0";"2";"1";"1";"2";"1";"1";"2014-10-15 15:20:58.511";"2014-10-15 15:33:31.037";"1";"0";"0";"19";"18";"module.training_block1.exec-7002.GoNoGo1";;;;;;;;;;;;;;;;;;;;;;;"1257";"2014-10-15 15:23:09.763";"NST_correctLoc";"20";"1";"FINISHED";"RIGHT";"success";"374";"0";"2014-10-15 15:23:08.499";"3";;;;;;;;;;;;;;;;;;;;;;;;;;;;;;;;;;;;;;;;;;;;;;;;;;;;;;;;;
"tob11";"1994";;"Windows 7";"Rachel's Experiment (D.T.)";"1.0";"2";"1";"1";"2";"1";"1";"2014-10-15 15:20:58.511";"2014-10-15 15:33:31.037";"1";"0";"0";"20";"19";"module.training_block1.exec-7002.GoNoGo1";;;;;;;;;;;;;;;;;;;;;;;"1261";"2014-10-15 15:23:12.306";"NST_correctLoc";"6";"1";"FINISHED";"RIGHT";"success";"443";"0";"2014-10-15 15:23:11.042";"1";;;;;;;;;;;;;;;;;;;;;;;;;;;;;;;;;;;;;;;;;;;;;;;;;;;;;;;;;
"tob11";"1994";;"Windows 7";"Rachel's Experiment (D.T.)";"1.0";"2";"1";"1";"2";"1";"1";"2014-10-15 15:20:58.511";"2014-10-15 15:33:31.037";"1";"0";"0";"21";"20";"module.training_block1.exec-7002.GoNoGo1";;;;;;;;;;;;;;;;;;;;;;;"1257";"2014-10-15 15:23:14.849";"NST_correctLoc";"0";"0";"FINISHED";"LEFT";"success";"328";"0";"2014-10-15 15:23:13.585";"1";;;;;;;;;;;;;;;;;;;;;;;;;;;;;;;;;;;;;;;;;;;;;;;;;;;;;;;;;
"tob11";"1994";;"Windows 7";"Rachel's Experiment (D.T.)";"1.0";"2";"1";"1";"2";"1";"1";"2014-10-15 15:20:58.511";"2014-10-15 15:33:31.037";"1";"0";"0";"22";"21";"module.training_block1.exec-7002.GoNoGo1";;;;;;;;;;;;;;;;;;;;;;;"1256";"2014-10-15 15:23:17.392";"NST_correctLoc";"15";"1";"FINISHED";"RIGHT";"success";"560";"0";"2014-10-15 15:23:16.129";"2";;;;;;;;;;;;;;;;;;;;;;;;;;;;;;;;;;;;;;;;;;;;;;;;;;;;;;;;;
"tob11";"1994";;"Windows 7";"Rachel's Experiment (D.T.)";"1.0";"2";"1";"1";"2";"1";"1";"2014-10-15 15:20:58.511";"2014-10-15 15:33:31.037";"1";"0";"0";"23";"22";"module.training_block1.exec-7002.GoNoGo1";;;;;;;;;;;;;;;;;;;;;;;"1257";"2014-10-15 15:23:19.936";"NST_correctLoc";"17";"0";"FINISHED";"LEFT";"success";"346";"0";"2014-10-15 15:23:18.672";"2";;;;;;;;;;;;;;;;;;;;;;;;;;;;;;;;;;;;;;;;;;;;;;;;;;;;;;;;;
"tob11";"1994";;"Windows 7";"Rachel's Experiment (D.T.)";"1.0";"2";"1";"1";"2";"1";"1";"2014-10-15 15:20:58.511";"2014-10-15 15:33:31.037";"1";"0";"0";"24";"23";"module.training_block1.exec-7002.GoNoGo1";;;;;;;;;;;;;;;;;;;;;;;"1258";"2014-10-15 15:23:22.479";"NST_correctLoc";"1";"1";"FINISHED";"RIGHT";"success";"316";"0";"2014-10-15 15:23:21.215";"1";;;;;;;;;;;;;;;;;;;;;;;;;;;;;;;;;;;;;;;;;;;;;;;;;;;;;;;;;
"tob11";"1994";;"Windows 7";"Rachel's Experiment (D.T.)";"1.0";"2";"1";"1";"2";"1";"1";"2014-10-15 15:20:58.511";"2014-10-15 15:33:31.037";"1";"0";"0";"25";"24";"module.training_block1.exec-7002.GoNoGo1";;;;;;;;;;;;;;;;;;;;;;;"1255";"2014-10-15 15:23:25.116";"NST_correctLoc";"4";"0";"FINISHED";"LEFT";"success";"373";"0";"2014-10-15 15:23:23.852";"1";;;;;;;;;;;;;;;;;;;;;;;;;;;;;;;;;;;;;;;;;;;;;;;;;;;;;;;;;
"tob11";"1994";;"Windows 7";"Rachel's Experiment (D.T.)";"1.0";"2";"1";"1";"2";"1";"1";"2014-10-15 15:20:58.511";"2014-10-15 15:33:31.037";"1";"0";"0";"26";"25";"module.training_block1.exec-7002.GoNoGo1";;;;;;;;;;;;;;;;;;;;;;;"1257";"2014-10-15 15:23:27.659";"NST_correctLoc";"19";"1";"FINISHED";"RIGHT";"success";"320";"0";"2014-10-15 15:23:26.395";"3";;;;;;;;;;;;;;;;;;;;;;;;;;;;;;;;;;;;;;;;;;;;;;;;;;;;;;;;;
"tob11";"1994";;"Windows 7";"Rachel's Experiment (D.T.)";"1.0";"2";"1";"1";"2";"1";"1";"2014-10-15 15:20:58.511";"2014-10-15 15:33:31.037";"1";"0";"0";"27";"26";"module.training_block1.exec-7002.GoNoGo1";;;;;;;;;;;;;;;;;;;;;;;"1258";"2014-10-15 15:23:30.202";"NST_correctLoc";"29";"0";"FINISHED";"LEFT";"success";"354";"0";"2014-10-15 15:23:28.939";"3";;;;;;;;;;;;;;;;;;;;;;;;;;;;;;;;;;;;;;;;;;;;;;;;;;;;;;;;;
"tob11";"1994";;"Windows 7";"Rachel's Experiment (D.T.)";"1.0";"2";"1";"1";"2";"1";"1";"2014-10-15 15:20:58.511";"2014-10-15 15:33:31.037";"1";"0";"0";"28";"27";"module.training_block1.exec-7002.GoNoGo1";;;;;;;;;;;;;;;;;;;;;;;"1257";"2014-10-15 15:23:32.746";"NST_correctLoc";"14";"0";"FINISHED";"LEFT";"success";"371";"0";"2014-10-15 15:23:31.482";"2";;;;;;;;;;;;;;;;;;;;;;;;;;;;;;;;;;;;;;;;;;;;;;;;;;;;;;;;;
"tob11";"1994";;"Windows 7";"Rachel's Experiment (D.T.)";"1.0";"2";"1";"1";"2";"1";"1";"2014-10-15 15:20:58.511";"2014-10-15 15:33:31.037";"1";"0";"0";"29";"28";"module.training_block1.exec-7002.GoNoGo1";;;;;;;;;;;;;;;;;;;;;;;"1258";"2014-10-15 15:23:35.289";"NST_correctLoc";"9";"1";"FINISHED";"RIGHT";"success";"300";"0";"2014-10-15 15:23:34.025";"2";;;;;;;;;;;;;;;;;;;;;;;;;;;;;;;;;;;;;;;;;;;;;;;;;;;;;;;;;
"tob11";"1994";;"Windows 7";"Rachel's Experiment (D.T.)";"1.0";"2";"1";"1";"2";"1";"1";"2014-10-15 15:20:58.511";"2014-10-15 15:33:31.037";"1";"0";"0";"30";"29";"module.training_block1.exec-7002.GoNoGo1";;;;;;;;;;;;;;;;;;;;;;;"1258";"2014-10-15 15:23:37.832";"NST_correctLoc";"16";"1";"FINISHED";"RIGHT";"success";"341";"0";"2014-10-15 15:23:36.568";"2";;;;;;;;;;;;;;;;;;;;;;;;;;;;;;;;;;;;;;;;;;;;;;;;;;;;;;;;;
"tob11";"1994";;"Windows 7";"Rachel's Experiment (D.T.)";"1.0";"2";"1";"1";"2";"1";"1";"2014-10-15 15:20:58.511";"2014-10-15 15:33:31.037";"1";"0";"0";"31";"30";"module.training_block1.exec-7002.GoNoGo1";;;;;;;;;;;;;;;;;;;;;;;"1258";"2014-10-15 15:23:40.375";"NST_correctLoc";"12";"1";"FINISHED";"RIGHT";"success";"359";"0";"2014-10-15 15:23:39.112";"2";;;;;;;;;;;;;;;;;;;;;;;;;;;;;;;;;;;;;;;;;;;;;;;;;;;;;;;;;
"tob11";"1994";;"Windows 7";"Rachel's Experiment (D.T.)";"1.0";"2";"1";"1";"2";"1";"1";"2014-10-15 15:20:58.511";"2014-10-15 15:33:31.037";"1";"0";"0";"32";"31";"module.training_block1.exec-7002.GoNoGo1";;;;;;;;;;;;;;;;;;;;;;;"1258";"2014-10-15 15:23:42.919";"NST_correctLoc";"33";"0";"FINISHED";"LEFT";"success";"360";"0";"2014-10-15 15:23:41.655";"3";;;;;;;;;;;;;;;;;;;;;;;;;;;;;;;;;;;;;;;;;;;;;;;;;;;;;;;;;
"tob11";"1994";;"Windows 7";"Rachel's Experiment (D.T.)";"1.0";"2";"1";"1";"2";"1";"1";"2014-10-15 15:20:58.511";"2014-10-15 15:33:31.037";"1";"0";"0";"33";"32";"module.training_block1.exec-7002.GoNoGo1";;;;;;;;;;;;;;;;;;;;;;;"1258";"2014-10-15 15:23:45.462";"NST_correctLoc";"24";"0";"FINISHED";"LEFT";"success";"409";"0";"2014-10-15 15:23:44.198";"3";;;;;;;;;;;;;;;;;;;;;;;;;;;;;;;;;;;;;;;;;;;;;;;;;;;;;;;;;
"tob11";"1994";;"Windows 7";"Rachel's Experiment (D.T.)";"1.0";"2";"1";"1";"2";"1";"1";"2014-10-15 15:20:58.511";"2014-10-15 15:33:31.037";"1";"0";"0";"34";"33";"module.training_block1.exec-7002.GoNoGo1";;;;;;;;;;;;;;;;;;;;;;;"1257";"2014-10-15 15:23:48.005";"NST_correctLoc";"8";"0";"FINISHED";"LEFT";"success";"377";"0";"2014-10-15 15:23:46.741";"1";;;;;;;;;;;;;;;;;;;;;;;;;;;;;;;;;;;;;;;;;;;;;;;;;;;;;;;;;
"tob11";"1994";;"Windows 7";"Rachel's Experiment (D.T.)";"1.0";"2";"1";"1";"2";"1";"1";"2014-10-15 15:20:58.511";"2014-10-15 15:33:31.037";"1";"0";"0";"35";"34";"module.training_block1.exec-7002.GoNoGo1";;;;;;;;;;;;;;;;;;;;;;;"1258";"2014-10-15 15:23:50.549";"NST_correctLoc";"27";"1";"FINISHED";"RIGHT";"success";"435";"0";"2014-10-15 15:23:49.285";"3";;;;;;;;;;;;;;;;;;;;;;;;;;;;;;;;;;;;;;;;;;;;;;;;;;;;;;;;;
"tob11";"1994";;"Windows 7";"Rachel's Experiment (D.T.)";"1.0";"2";"1";"1";"2";"1";"1";"2014-10-15 15:20:58.511";"2014-10-15 15:33:31.037";"1";"0";"0";"36";"35";"module.training_block1.exec-7002.GoNoGo1";;;;;;;;;;;;;;;;;;;;;;;"1257";"2014-10-15 15:23:53.092";"NST_correctLoc";"22";"0";"FINISHED";"LEFT";"success";"372";"0";"2014-10-15 15:23:51.828";"3";;;;;;;;;;;;;;;;;;;;;;;;;;;;;;;;;;;;;;;;;;;;;;;;;;;;;;;;;
"tob11";"1994";;"Windows 7";"Rachel's Experiment (D.T.)";"1.0";"2";"1";"1";"2";"1";"1";"2014-10-15 15:20:58.511";"2014-10-15 15:33:31.037";"1";"0";"0";"37";"36";"module.training_block1.exec-7002.GoNoGo1";;;;;;;;;;;;;;;;;;;;;;;"1257";"2014-10-15 15:23:55.635";"NST_correctLoc";"31";"0";"FINISHED";"LEFT";"success";"365";"0";"2014-10-15 15:23:54.371";"3";;;;;;;;;;;;;;;;;;;;;;;;;;;;;;;;;;;;;;;;;;;;;;;;;;;;;;;;;
"tob11";"1994";;"Windows 7";"Rachel's Experiment (D.T.)";"1.0";"2";"1";"1";"2";"1";"1";"2014-10-15 15:20:58.511";"2014-10-15 15:33:31.037";"1";"0";"0";"38";"37";"module.training_block1.exec-7002.GoNoGo1";;;;;;;;;;;;;;;;;;;;;;;"1258";"2014-10-15 15:23:58.178";"NST_correctLoc";"18";"0";"FINISHED";"LEFT";"success";"407";"0";"2014-10-15 15:23:56.915";"3";;;;;;;;;;;;;;;;;;;;;;;;;;;;;;;;;;;;;;;;;;;;;;;;;;;;;;;;;
"tob11";"1994";;"Windows 7";"Rachel's Experiment (D.T.)";"1.0";"2";"1";"1";"2";"1";"1";"2014-10-15 15:20:58.511";"2014-10-15 15:33:31.037";"1";"0";"0";"39";"38";"module.training_block1.exec-7002.GoNoGo1";;;;;;;;;;;;;;;;;;;;;;;"1258";"2014-10-15 15:24:00.722";"NST_correctLoc";"28";"1";"FINISHED";"RIGHT";"success";"432";"0";"2014-10-15 15:23:59.458";"3";;;;;;;;;;;;;;;;;;;;;;;;;;;;;;;;;;;;;;;;;;;;;;;;;;;;;;;;;
"tob11";"1994";;"Windows 7";"Rachel's Experiment (D.T.)";"1.0";"2";"1";"1";"2";"1";"1";"2014-10-15 15:20:58.511";"2014-10-15 15:33:31.037";"1";"0";"0";"40";"39";"module.training_block1.exec-7002.GoNoGo1";;;;;;;;;;;;;;;;;;;;;;;"1257";"2014-10-15 15:24:03.265";"NST_correctLoc";"23";"0";"FINISHED";"LEFT";"success";"337";"0";"2014-10-15 15:24:02.001";"3";;;;;;;;;;;;;;;;;;;;;;;;;;;;;;;;;;;;;;;;;;;;;;;;;;;;;;;;;
"tob11";"1994";;"Windows 7";"Rachel's Experiment (D.T.)";"1.0";"2";"1";"1";"2";"1";"1";"2014-10-15 15:20:58.511";"2014-10-15 15:33:31.037";"1";"0";"0";"41";"40";"module.training_block1.exec-7002.GoNoGo1";;;;;;;;;;;;;;;;;;;;;;;"1253";"2014-10-15 15:24:05.808";"NST_correctLoc";"30";"1";"FINISHED";"RIGHT";"success";"366";"0";"2014-10-15 15:24:04.544";"3";;;;;;;;;;;;;;;;;;;;;;;;;;;;;;;;;;;;;;;;;;;;;;;;;;;;;;;;;
"tob11";"1994";;"Windows 7";"Rachel's Experiment (D.T.)";"1.0";"2";"1";"1";"2";"1";"1";"2014-10-15 15:20:58.511";"2014-10-15 15:33:31.037";"1";"0";"0";"42";"41";"module.training_block1.exec-7002.GoNoGo1";;;;;;;;;;;;;;;;;;;;;;;"1257";"2014-10-15 15:24:08.351";"NST_correctLoc";"11";"1";"FINISHED";"RIGHT";"success";"459";"0";"2014-10-15 15:24:07.088";"2";;;;;;;;;;;;;;;;;;;;;;;;;;;;;;;;;;;;;;;;;;;;;;;;;;;;;;;;;
"tob11";"1994";;"Windows 7";"Rachel's Experiment (D.T.)";"1.0";"2";"1";"1";"2";"1";"1";"2014-10-15 15:20:58.511";"2014-10-15 15:33:31.037";"1";"0";"0";"43";"42";"module.training_block1.exec-7002.GoNoGo1";;;;;;;;;;;;;;;;;;;;;;;"1258";"2014-10-15 15:24:10.895";"NST_correctLoc";"35";"0";"FINISHED";"LEFT";"success";"349";"0";"2014-10-15 15:24:09.631";"3";;;;;;;;;;;;;;;;;;;;;;;;;;;;;;;;;;;;;;;;;;;;;;;;;;;;;;;;;
"tob11";"1994";;"Windows 7";"Rachel's Experiment (D.T.)";"1.0";"2";"1";"1";"2";"1";"1";"2014-10-15 15:20:58.511";"2014-10-15 15:33:31.037";"1";"0";"0";"44";"43";"module.training_block1.exec-7002.GoNoGo1";;;;;;;;;;;;;;;;;;;;;;;"1258";"2014-10-15 15:24:13.438";"NST_correctLoc";"2";"1";"FINISHED";"RIGHT";"success";"374";"0";"2014-10-15 15:24:12.174";"1";;;;;;;;;;;;;;;;;;;;;;;;;;;;;;;;;;;;;;;;;;;;;;;;;;;;;;;;;
"tob11";"1994";;"Windows 7";"Rachel's Experiment (D.T.)";"1.0";"2";"1";"1";"2";"1";"1";"2014-10-15 15:20:58.511";"2014-10-15 15:33:31.037";"1";"0";"0";"45";"44";"module.training_block1.exec-7002.GoNoGo1";;;;;;;;;;;;;;;;;;;;;;;"1258";"2014-10-15 15:24:15.981";"NST_correctLoc";"10";"1";"FINISHED";"RIGHT";"success";"415";"0";"2014-10-15 15:24:14.717";"2";;;;;;;;;;;;;;;;;;;;;;;;;;;;;;;;;;;;;;;;;;;;;;;;;;;;;;;;;
"tob11";"1994";;"Windows 7";"Rachel's Experiment (D.T.)";"1.0";"2";"1";"1";"2";"1";"1";"2014-10-15 15:20:58.511";"2014-10-15 15:33:31.037";"1";"0";"0";"46";"45";"module.training_block1.exec-7002.GoNoGo1";;;;;;;;;;;;;;;;;;;;;;;"1256";"2014-10-15 15:24:18.525";"NST_correctLoc";"13";"1";"FINISHED";"RIGHT";"success";"423";"0";"2014-10-15 15:24:17.261";"2";;;;;;;;;;;;;;;;;;;;;;;;;;;;;;;;;;;;;;;;;;;;;;;;;;;;;;;;;
"tob11";"1994";;"Windows 7";"Rachel's Experiment (D.T.)";"1.0";"2";"1";"1";"2";"1";"1";"2014-10-15 15:20:58.511";"2014-10-15 15:33:31.037";"1";"0";"0";"47";"46";"module.training_block1.exec-7002.GoNoGo1";;;;;;;;;;;;;;;;;;;;;;;"1258";"2014-10-15 15:24:21.068";"NST_correctLoc";"5";"0";"FINISHED";"LEFT";"success";"378";"0";"2014-10-15 15:24:19.804";"1";;;;;;;;;;;;;;;;;;;;;;;;;;;;;;;;;;;;;;;;;;;;;;;;;;;;;;;;;
"tob11";"1994";;"Windows 7";"Rachel's Experiment (D.T.)";"1.0";"2";"1";"1";"2";"1";"1";"2014-10-15 15:20:58.511";"2014-10-15 15:33:31.037";"1";"0";"0";"48";"47";"module.training_block1.exec-7002.GoNoGo1";;;;;;;;;;;;;;;;;;;;;;;"1258";"2014-10-15 15:24:23.611";"NST_correctLoc";"34";"0";"FINISHED";"LEFT";"success";"531";"0";"2014-10-15 15:24:22.347";"3";;;;;;;;;;;;;;;;;;;;;;;;;;;;;;;;;;;;;;;;;;;;;;;;;;;;;;;;;
"tob11";"1994";;"Windows 7";"Rachel's Experiment (D.T.)";"1.0";"2";"1";"1";"2";"1";"1";"2014-10-15 15:20:58.511";"2014-10-15 15:33:31.037";"1";"0";"0";"49";"48";"module.training_block1.exec-7002.GoNoGo1";;;;;;;;;;;;;;;;;;;;;;;"1257";"2014-10-15 15:24:26.154";"NST_correctLoc";"7";"1";"FINISHED";"RIGHT";"success";"467";"0";"2014-10-15 15:24:24.891";"1";;;;;;;;;;;;;;;;;;;;;;;;;;;;;;;;;;;;;;;;;;;;;;;;;;;;;;;;;
"tob11";"1994";;"Windows 7";"Rachel's Experiment (D.T.)";"1.0";"2";"1";"1";"2";"1";"1";"2014-10-15 15:20:58.511";"2014-10-15 15:33:31.037";"1";"0";"0";"50";"49";"module.training_block1.exec-7002.GoNoGo1";;;;;;;;;;;;;;;;;;;;;;;"1257";"2014-10-15 15:24:28.698";"NST_correctLoc";"21";"0";"FINISHED";"LEFT";"success";"284";"0";"2014-10-15 15:24:27.434";"3";;;;;;;;;;;;;;;;;;;;;;;;;;;;;;;;;;;;;;;;;;;;;;;;;;;;;;;;;
"tob11";"1994";;"Windows 7";"Rachel's Experiment (D.T.)";"1.0";"2";"1";"1";"2";"1";"1";"2014-10-15 15:20:58.511";"2014-10-15 15:33:31.037";"1";"0";"0";"51";"50";"module.training_block1.exec-7002.GoNoGo1";;;;;;;;;;;;;;;;;;;;;;;"1257";"2014-10-15 15:24:31.241";"NST_correctLoc";"32";"1";"FINISHED";"RIGHT";"success";"358";"0";"2014-10-15 15:24:29.977";"3";;;;;;;;;;;;;;;;;;;;;;;;;;;;;;;;;;;;;;;;;;;;;;;;;;;;;;;;;
"tob11";"1994";;"Windows 7";"Rachel's Experiment (D.T.)";"1.0";"2";"1";"1";"2";"1";"1";"2014-10-15 15:20:58.511";"2014-10-15 15:33:31.037";"1";"0";"0";"52";"51";"module.training_block2.exec-8524.GoNoGo2";;;;;;;;;;;;;;;;;;;;;;;;;;;;;;;;;;;"1261";"2014-10-15 15:24:42.740";"NST_correctLoc";"7";"1";"FINISHED";"RIGHT";"success";"480";"0";"2014-10-15 15:24:41.476";"1";;;;;;;;;;;;;;;;;;;;;;;;;;;;;;;;;;;;;;;;;;;;;
"tob11";"1994";;"Windows 7";"Rachel's Experiment (D.T.)";"1.0";"2";"1";"1";"2";"1";"1";"2014-10-15 15:20:58.511";"2014-10-15 15:33:31.037";"1";"0";"0";"53";"52";"module.training_block2.exec-8524.GoNoGo2";;;;;;;;;;;;;;;;;;;;;;;;;;;;;;;;;;;"1261";"2014-10-15 15:24:45.283";"NST_correctLoc";"14";"1";"FINISHED";"RIGHT";"success";"649";"0";"2014-10-15 15:24:44.020";"2";;;;;;;;;;;;;;;;;;;;;;;;;;;;;;;;;;;;;;;;;;;;;
"tob11";"1994";;"Windows 7";"Rachel's Experiment (D.T.)";"1.0";"2";"1";"1";"2";"1";"1";"2014-10-15 15:20:58.511";"2014-10-15 15:33:31.037";"1";"0";"0";"54";"53";"module.training_block2.exec-8524.GoNoGo2";;;;;;;;;;;;;;;;;;;;;;;;;;;;;;;;;;;"1261";"2014-10-15 15:24:47.827";"NST_correctLoc";"31";"0";"FINISHED";"LEFT";"success";"731";"0";"2014-10-15 15:24:46.563";"3";;;;;;;;;;;;;;;;;;;;;;;;;;;;;;;;;;;;;;;;;;;;;
"tob11";"1994";;"Windows 7";"Rachel's Experiment (D.T.)";"1.0";"2";"1";"1";"2";"1";"1";"2014-10-15 15:20:58.511";"2014-10-15 15:33:31.037";"1";"0";"0";"55";"54";"module.training_block2.exec-8524.GoNoGo2";;;;;;;;;;;;;;;;;;;;;;;;;;;;;;;;;;;"1261";"2014-10-15 15:24:50.370";"NST_correctLoc";"11";"1";"FINISHED";"RIGHT";"success";"332";"0";"2014-10-15 15:24:49.106";"2";;;;;;;;;;;;;;;;;;;;;;;;;;;;;;;;;;;;;;;;;;;;;
"tob11";"1994";;"Windows 7";"Rachel's Experiment (D.T.)";"1.0";"2";"1";"1";"2";"1";"1";"2014-10-15 15:20:58.511";"2014-10-15 15:33:31.037";"1";"0";"0";"56";"55";"module.training_block2.exec-8524.GoNoGo2";;;;;;;;;;;;;;;;;;;;;;;;;;;;;;;;;;;"1256";"2014-10-15 15:24:52.913";"NST_correctLoc";"15";"0";"FINISHED";"LEFT";"success";"336";"0";"2014-10-15 15:24:51.649";"2";;;;;;;;;;;;;;;;;;;;;;;;;;;;;;;;;;;;;;;;;;;;;
"tob11";"1994";;"Windows 7";"Rachel's Experiment (D.T.)";"1.0";"2";"1";"1";"2";"1";"1";"2014-10-15 15:20:58.511";"2014-10-15 15:33:31.037";"1";"0";"0";"57";"56";"module.training_block2.exec-8524.GoNoGo2";;;;;;;;;;;;;;;;;;;;;;;;;;;;;;;;;;;"1261";"2014-10-15 15:24:55.457";"NST_correctLoc";"28";"1";"FINISHED";"RIGHT";"success";"390";"0";"2014-10-15 15:24:54.193";"3";;;;;;;;;;;;;;;;;;;;;;;;;;;;;;;;;;;;;;;;;;;;;
"tob11";"1994";;"Windows 7";"Rachel's Experiment (D.T.)";"1.0";"2";"1";"1";"2";"1";"1";"2014-10-15 15:20:58.511";"2014-10-15 15:33:31.037";"1";"0";"0";"58";"57";"module.training_block2.exec-8524.GoNoGo2";;;;;;;;;;;;;;;;;;;;;;;;;;;;;;;;;;;"1261";"2014-10-15 15:24:58.000";"NST_correctLoc";"24";"1";"FINISHED";"RIGHT";"success";"455";"0";"2014-10-15 15:24:56.736";"3";;;;;;;;;;;;;;;;;;;;;;;;;;;;;;;;;;;;;;;;;;;;;
"tob11";"1994";;"Windows 7";"Rachel's Experiment (D.T.)";"1.0";"2";"1";"1";"2";"1";"1";"2014-10-15 15:20:58.511";"2014-10-15 15:33:31.037";"1";"0";"0";"59";"58";"module.training_block2.exec-8524.GoNoGo2";;;;;;;;;;;;;;;;;;;;;;;;;;;;;;;;;;;"1261";"2014-10-15 15:25:00.543";"NST_correctLoc";"1";"0";"FINISHED";"LEFT";"success";"385";"0";"2014-10-15 15:24:59.279";"1";;;;;;;;;;;;;;;;;;;;;;;;;;;;;;;;;;;;;;;;;;;;;
"tob11";"1994";;"Windows 7";"Rachel's Experiment (D.T.)";"1.0";"2";"1";"1";"2";"1";"1";"2014-10-15 15:20:58.511";"2014-10-15 15:33:31.037";"1";"0";"0";"60";"59";"module.training_block2.exec-8524.GoNoGo2";;;;;;;;;;;;;;;;;;;;;;;;;;;;;;;;;;;"1261";"2014-10-15 15:25:03.086";"NST_correctLoc";"32";"1";"FINISHED";"RIGHT";"success";"578";"0";"2014-10-15 15:25:01.823";"3";;;;;;;;;;;;;;;;;;;;;;;;;;;;;;;;;;;;;;;;;;;;;
"tob11";"1994";;"Windows 7";"Rachel's Experiment (D.T.)";"1.0";"2";"1";"1";"2";"1";"1";"2014-10-15 15:20:58.511";"2014-10-15 15:33:31.037";"1";"0";"0";"61";"60";"module.training_block2.exec-8524.GoNoGo2";;;;;;;;;;;;;;;;;;;;;;;;;;;;;;;;;;;"1261";"2014-10-15 15:25:05.630";"NST_correctLoc";"2";"1";"FINISHED";"RIGHT";"success";"483";"0";"2014-10-15 15:25:04.366";"1";;;;;;;;;;;;;;;;;;;;;;;;;;;;;;;;;;;;;;;;;;;;;
"tob11";"1994";;"Windows 7";"Rachel's Experiment (D.T.)";"1.0";"2";"1";"1";"2";"1";"1";"2014-10-15 15:20:58.511";"2014-10-15 15:33:31.037";"1";"0";"0";"62";"61";"module.training_block2.exec-8524.GoNoGo2";;;;;;;;;;;;;;;;;;;;;;;;;;;;;;;;;;;"1261";"2014-10-15 15:25:08.173";"NST_correctLoc";"35";"1";"FINISHED";"RIGHT";"success";"356";"0";"2014-10-15 15:25:06.909";"3";;;;;;;;;;;;;;;;;;;;;;;;;;;;;;;;;;;;;;;;;;;;;
"tob11";"1994";;"Windows 7";"Rachel's Experiment (D.T.)";"1.0";"2";"1";"1";"2";"1";"1";"2014-10-15 15:20:58.511";"2014-10-15 15:33:31.037";"1";"0";"0";"63";"62";"module.training_block2.exec-8524.GoNoGo2";;;;;;;;;;;;;;;;;;;;;;;;;;;;;;;;;;;"1258";"2014-10-15 15:25:10.732";"NST_correctLoc";"3";"0";"FINISHED";"LEFT";"success";"306";"0";"2014-10-15 15:25:09.468";"1";;;;;;;;;;;;;;;;;;;;;;;;;;;;;;;;;;;;;;;;;;;;;
"tob11";"1994";;"Windows 7";"Rachel's Experiment (D.T.)";"1.0";"2";"1";"1";"2";"1";"1";"2014-10-15 15:20:58.511";"2014-10-15 15:33:31.037";"1";"0";"0";"64";"63";"module.training_block2.exec-8524.GoNoGo2";;;;;;;;;;;;;;;;;;;;;;;;;;;;;;;;;;;"1261";"2014-10-15 15:25:13.275";"NST_correctLoc";"29";"0";"FINISHED";"LEFT";"success";"455";"0";"2014-10-15 15:25:12.011";"3";;;;;;;;;;;;;;;;;;;;;;;;;;;;;;;;;;;;;;;;;;;;;
"tob11";"1994";;"Windows 7";"Rachel's Experiment (D.T.)";"1.0";"2";"1";"1";"2";"1";"1";"2014-10-15 15:20:58.511";"2014-10-15 15:33:31.037";"1";"0";"0";"65";"64";"module.training_block2.exec-8524.GoNoGo2";;;;;;;;;;;;;;;;;;;;;;;;;;;;;;;;;;;"1261";"2014-10-15 15:25:15.818";"NST_correctLoc";"16";"1";"FINISHED";"RIGHT";"success";"352";"0";"2014-10-15 15:25:14.555";"2";;;;;;;;;;;;;;;;;;;;;;;;;;;;;;;;;;;;;;;;;;;;;
"tob11";"1994";;"Windows 7";"Rachel's Experiment (D.T.)";"1.0";"2";"1";"1";"2";"1";"1";"2014-10-15 15:20:58.511";"2014-10-15 15:33:31.037";"1";"0";"0";"66";"65";"module.training_block2.exec-8524.GoNoGo2";;;;;;;;;;;;;;;;;;;;;;;;;;;;;;;;;;;"1261";"2014-10-15 15:25:18.362";"NST_correctLoc";"10";"1";"FINISHED";"RIGHT";"success";"369";"0";"2014-10-15 15:25:17.098";"2";;;;;;;;;;;;;;;;;;;;;;;;;;;;;;;;;;;;;;;;;;;;;
"tob11";"1994";;"Windows 7";"Rachel's Experiment (D.T.)";"1.0";"2";"1";"1";"2";"1";"1";"2014-10-15 15:20:58.511";"2014-10-15 15:33:31.037";"1";"0";"0";"67";"66";"module.training_block2.exec-8524.GoNoGo2";;;;;;;;;;;;;;;;;;;;;;;;;;;;;;;;;;;"1261";"2014-10-15 15:25:20.905";"NST_correctLoc";"13";"0";"FINISHED";"LEFT";"success";"386";"0";"2014-10-15 15:25:19.641";"2";;;;;;;;;;;;;;;;;;;;;;;;;;;;;;;;;;;;;;;;;;;;;
"tob11";"1994";;"Windows 7";"Rachel's Experiment (D.T.)";"1.0";"2";"1";"1";"2";"1";"1";"2014-10-15 15:20:58.511";"2014-10-15 15:33:31.037";"1";"0";"0";"68";"67";"module.training_block2.exec-8524.GoNoGo2";;;;;;;;;;;;;;;;;;;;;;;;;;;;;;;;;;;"1261";"2014-10-15 15:25:23.448";"NST_correctLoc";"21";"0";"FINISHED";"LEFT";"success";"420";"0";"2014-10-15 15:25:22.184";"3";;;;;;;;;;;;;;;;;;;;;;;;;;;;;;;;;;;;;;;;;;;;;
"tob11";"1994";;"Windows 7";"Rachel's Experiment (D.T.)";"1.0";"2";"1";"1";"2";"1";"1";"2014-10-15 15:20:58.511";"2014-10-15 15:33:31.037";"1";"0";"0";"69";"68";"module.training_block2.exec-8524.GoNoGo2";;;;;;;;;;;;;;;;;;;;;;;;;;;;;;;;;;;"1261";"2014-10-15 15:25:25.991";"NST_correctLoc";"5";"1";"FINISHED";"RIGHT";"success";"293";"0";"2014-10-15 15:25:24.728";"1";;;;;;;;;;;;;;;;;;;;;;;;;;;;;;;;;;;;;;;;;;;;;
"tob11";"1994";;"Windows 7";"Rachel's Experiment (D.T.)";"1.0";"2";"1";"1";"2";"1";"1";"2014-10-15 15:20:58.511";"2014-10-15 15:33:31.037";"1";"0";"0";"70";"69";"module.training_block2.exec-8524.GoNoGo2";;;;;;;;;;;;;;;;;;;;;;;;;;;;;;;;;;;"1261";"2014-10-15 15:25:28.535";"NST_correctLoc";"30";"1";"FINISHED";"RIGHT";"success";"334";"0";"2014-10-15 15:25:27.271";"3";;;;;;;;;;;;;;;;;;;;;;;;;;;;;;;;;;;;;;;;;;;;;
"tob11";"1994";;"Windows 7";"Rachel's Experiment (D.T.)";"1.0";"2";"1";"1";"2";"1";"1";"2014-10-15 15:20:58.511";"2014-10-15 15:33:31.037";"1";"0";"0";"71";"70";"module.training_block2.exec-8524.GoNoGo2";;;;;;;;;;;;;;;;;;;;;;;;;;;;;;;;;;;"1256";"2014-10-15 15:25:31.078";"NST_correctLoc";"17";"0";"FINISHED";"LEFT";"success";"338";"0";"2014-10-15 15:25:29.814";"2";;;;;;;;;;;;;;;;;;;;;;;;;;;;;;;;;;;;;;;;;;;;;
"tob11";"1994";;"Windows 7";"Rachel's Experiment (D.T.)";"1.0";"2";"1";"1";"2";"1";"1";"2014-10-15 15:20:58.511";"2014-10-15 15:33:31.037";"1";"0";"0";"72";"71";"module.training_block2.exec-8524.GoNoGo2";;;;;;;;;;;;;;;;;;;;;;;;;;;;;;;;;;;"1261";"2014-10-15 15:25:33.621";"NST_correctLoc";"22";"1";"FINISHED";"RIGHT";"success";"296";"0";"2014-10-15 15:25:32.357";"3";;;;;;;;;;;;;;;;;;;;;;;;;;;;;;;;;;;;;;;;;;;;;
"tob11";"1994";;"Windows 7";"Rachel's Experiment (D.T.)";"1.0";"2";"1";"1";"2";"1";"1";"2014-10-15 15:20:58.511";"2014-10-15 15:33:31.037";"1";"0";"0";"73";"72";"module.training_block2.exec-8524.GoNoGo2";;;;;;;;;;;;;;;;;;;;;;;;;;;;;;;;;;;"1257";"2014-10-15 15:25:36.165";"NST_correctLoc";"25";"0";"FINISHED";"LEFT";"success";"462";"0";"2014-10-15 15:25:34.901";"3";;;;;;;;;;;;;;;;;;;;;;;;;;;;;;;;;;;;;;;;;;;;;
"tob11";"1994";;"Windows 7";"Rachel's Experiment (D.T.)";"1.0";"2";"1";"1";"2";"1";"1";"2014-10-15 15:20:58.511";"2014-10-15 15:33:31.037";"1";"0";"0";"74";"73";"module.training_block2.exec-8524.GoNoGo2";;;;;;;;;;;;;;;;;;;;;;;;;;;;;;;;;;;"1261";"2014-10-15 15:25:38.708";"NST_correctLoc";"27";"1";"FINISHED";"RIGHT";"success";"283";"0";"2014-10-15 15:25:37.444";"3";;;;;;;;;;;;;;;;;;;;;;;;;;;;;;;;;;;;;;;;;;;;;
"tob11";"1994";;"Windows 7";"Rachel's Experiment (D.T.)";"1.0";"2";"1";"1";"2";"1";"1";"2014-10-15 15:20:58.511";"2014-10-15 15:33:31.037";"1";"0";"0";"75";"74";"module.training_block2.exec-8524.GoNoGo2";;;;;;;;;;;;;;;;;;;;;;;;;;;;;;;;;;;"1261";"2014-10-15 15:25:41.251";"NST_correctLoc";"8";"0";"FINISHED";"LEFT";"success";"500";"0";"2014-10-15 15:25:39.987";"1";;;;;;;;;;;;;;;;;;;;;;;;;;;;;;;;;;;;;;;;;;;;;
"tob11";"1994";;"Windows 7";"Rachel's Experiment (D.T.)";"1.0";"2";"1";"1";"2";"1";"1";"2014-10-15 15:20:58.511";"2014-10-15 15:33:31.037";"1";"0";"0";"76";"75";"module.training_block2.exec-8524.GoNoGo2";;;;;;;;;;;;;;;;;;;;;;;;;;;;;;;;;;;"1261";"2014-10-15 15:25:43.794";"NST_correctLoc";"19";"1";"FINISHED";"RIGHT";"success";"349";"0";"2014-10-15 15:25:42.531";"3";;;;;;;;;;;;;;;;;;;;;;;;;;;;;;;;;;;;;;;;;;;;;
"tob11";"1994";;"Windows 7";"Rachel's Experiment (D.T.)";"1.0";"2";"1";"1";"2";"1";"1";"2014-10-15 15:20:58.511";"2014-10-15 15:33:31.037";"1";"0";"0";"77";"76";"module.training_block2.exec-8524.GoNoGo2";;;;;;;;;;;;;;;;;;;;;;;;;;;;;;;;;;;"1261";"2014-10-15 15:25:46.338";"NST_correctLoc";"33";"1";"FINISHED";"RIGHT";"success";"390";"0";"2014-10-15 15:25:45.074";"3";;;;;;;;;;;;;;;;;;;;;;;;;;;;;;;;;;;;;;;;;;;;;
"tob11";"1994";;"Windows 7";"Rachel's Experiment (D.T.)";"1.0";"2";"1";"1";"2";"1";"1";"2014-10-15 15:20:58.511";"2014-10-15 15:33:31.037";"1";"0";"0";"78";"77";"module.training_block2.exec-8524.GoNoGo2";;;;;;;;;;;;;;;;;;;;;;;;;;;;;;;;;;;"1261";"2014-10-15 15:25:48.881";"NST_correctLoc";"12";"0";"FINISHED";"LEFT";"success";"399";"0";"2014-10-15 15:25:47.617";"2";;;;;;;;;;;;;;;;;;;;;;;;;;;;;;;;;;;;;;;;;;;;;
"tob11";"1994";;"Windows 7";"Rachel's Experiment (D.T.)";"1.0";"2";"1";"1";"2";"1";"1";"2014-10-15 15:20:58.511";"2014-10-15 15:33:31.037";"1";"0";"0";"79";"78";"module.training_block2.exec-8524.GoNoGo2";;;;;;;;;;;;;;;;;;;;;;;;;;;;;;;;;;;"1257";"2014-10-15 15:25:51.424";"NST_correctLoc";"20";"1";"FINISHED";"RIGHT";"success";"381";"0";"2014-10-15 15:25:50.160";"3";;;;;;;;;;;;;;;;;;;;;;;;;;;;;;;;;;;;;;;;;;;;;
"tob11";"1994";;"Windows 7";"Rachel's Experiment (D.T.)";"1.0";"2";"1";"1";"2";"1";"1";"2014-10-15 15:20:58.511";"2014-10-15 15:33:31.037";"1";"0";"0";"80";"79";"module.training_block2.exec-8524.GoNoGo2";;;;;;;;;;;;;;;;;;;;;;;;;;;;;;;;;;;"1261";"2014-10-15 15:25:53.967";"NST_correctLoc";"23";"0";"FINISHED";"LEFT";"success";"362";"0";"2014-10-15 15:25:52.704";"3";;;;;;;;;;;;;;;;;;;;;;;;;;;;;;;;;;;;;;;;;;;;;
"tob11";"1994";;"Windows 7";"Rachel's Experiment (D.T.)";"1.0";"2";"1";"1";"2";"1";"1";"2014-10-15 15:20:58.511";"2014-10-15 15:33:31.037";"1";"0";"0";"81";"80";"module.training_block2.exec-8524.GoNoGo2";;;;;;;;;;;;;;;;;;;;;;;;;;;;;;;;;;;"1257";"2014-10-15 15:25:56.511";"NST_correctLoc";"6";"0";"FINISHED";"LEFT";"success";"495";"0";"2014-10-15 15:25:55.247";"1";;;;;;;;;;;;;;;;;;;;;;;;;;;;;;;;;;;;;;;;;;;;;
"tob11";"1994";;"Windows 7";"Rachel's Experiment (D.T.)";"1.0";"2";"1";"1";"2";"1";"1";"2014-10-15 15:20:58.511";"2014-10-15 15:33:31.037";"1";"0";"0";"82";"81";"module.training_block2.exec-8524.GoNoGo2";;;;;;;;;;;;;;;;;;;;;;;;;;;;;;;;;;;"1261";"2014-10-15 15:25:59.054";"NST_correctLoc";"4";"0";"FINISHED";"LEFT";"success";"532";"0";"2014-10-15 15:25:57.790";"1";;;;;;;;;;;;;;;;;;;;;;;;;;;;;;;;;;;;;;;;;;;;;
"tob11";"1994";;"Windows 7";"Rachel's Experiment (D.T.)";"1.0";"2";"1";"1";"2";"1";"1";"2014-10-15 15:20:58.511";"2014-10-15 15:33:31.037";"1";"0";"0";"83";"82";"module.training_block2.exec-8524.GoNoGo2";;;;;;;;;;;;;;;;;;;;;;;;;;;;;;;;;;;"1253";"2014-10-15 15:26:01.597";"NST_correctLoc";"0";"1";"FINISHED";"RIGHT";"success";"397";"0";"2014-10-15 15:26:00.333";"1";;;;;;;;;;;;;;;;;;;;;;;;;;;;;;;;;;;;;;;;;;;;;
"tob11";"1994";;"Windows 7";"Rachel's Experiment (D.T.)";"1.0";"2";"1";"1";"2";"1";"1";"2014-10-15 15:20:58.511";"2014-10-15 15:33:31.037";"1";"0";"0";"84";"83";"module.training_block2.exec-8524.GoNoGo2";;;;;;;;;;;;;;;;;;;;;;;;;;;;;;;;;;;"1261";"2014-10-15 15:26:04.141";"NST_correctLoc";"9";"1";"FINISHED";"RIGHT";"success";"391";"0";"2014-10-15 15:26:02.877";"2";;;;;;;;;;;;;;;;;;;;;;;;;;;;;;;;;;;;;;;;;;;;;
"tob11";"1994";;"Windows 7";"Rachel's Experiment (D.T.)";"1.0";"2";"1";"1";"2";"1";"1";"2014-10-15 15:20:58.511";"2014-10-15 15:33:31.037";"1";"0";"0";"85";"84";"module.training_block2.exec-8524.GoNoGo2";;;;;;;;;;;;;;;;;;;;;;;;;;;;;;;;;;;"1257";"2014-10-15 15:26:06.699";"NST_correctLoc";"26";"1";"FINISHED";"RIGHT";"success";"412";"0";"2014-10-15 15:26:05.436";"3";;;;;;;;;;;;;;;;;;;;;;;;;;;;;;;;;;;;;;;;;;;;;
"tob11";"1994";;"Windows 7";"Rachel's Experiment (D.T.)";"1.0";"2";"1";"1";"2";"1";"1";"2014-10-15 15:20:58.511";"2014-10-15 15:33:31.037";"1";"0";"0";"86";"85";"module.training_block2.exec-8524.GoNoGo2";;;;;;;;;;;;;;;;;;;;;;;;;;;;;;;;;;;"1261";"2014-10-15 15:26:09.243";"NST_correctLoc";"34";"0";"FINISHED";"LEFT";"success";"393";"0";"2014-10-15 15:26:07.979";"3";;;;;;;;;;;;;;;;;;;;;;;;;;;;;;;;;;;;;;;;;;;;;
"tob11";"1994";;"Windows 7";"Rachel's Experiment (D.T.)";"1.0";"2";"1";"1";"2";"1";"1";"2014-10-15 15:20:58.511";"2014-10-15 15:33:31.037";"1";"0";"0";"87";"86";"module.training_block2.exec-8524.GoNoGo2";;;;;;;;;;;;;;;;;;;;;;;;;;;;;;;;;;;"1261";"2014-10-15 15:26:11.786";"NST_correctLoc";"18";"0";"FINISHED";"LEFT";"success";"603";"0";"2014-10-15 15:26:10.522";"3";;;;;;;;;;;;;;;;;;;;;;;;;;;;;;;;;;;;;;;;;;;;;
"tob11";"1994";;"Windows 7";"Rachel's Experiment (D.T.)";"1.0";"2";"1";"1";"2";"1";"1";"2014-10-15 15:20:58.511";"2014-10-15 15:33:31.037";"1";"0";"0";"88";"87";"module.training_block3.exec-6186.GoNoGo3";;;;;;;;;;;;;;;;;;;;;;;;;;;;;;;;;;;;;;;;;;;;;;;"1261";"2014-10-15 15:26:22.910";"NST_correctLoc";"29";"0";"FINISHED";"LEFT";"success";"816";"0";"2014-10-15 15:26:21.646";"3";;;;;;;;;;;;;;;;;;;;;;;;;;;;;;;;;
"tob11";"1994";;"Windows 7";"Rachel's Experiment (D.T.)";"1.0";"2";"1";"1";"2";"1";"1";"2014-10-15 15:20:58.511";"2014-10-15 15:33:31.037";"1";"0";"0";"89";"88";"module.training_block3.exec-6186.GoNoGo3";;;;;;;;;;;;;;;;;;;;;;;;;;;;;;;;;;;;;;;;;;;;;;;"1261";"2014-10-15 15:26:25.453";"NST_correctLoc";"15";"1";"FINISHED";"RIGHT";"success";"625";"0";"2014-10-15 15:26:24.190";"2";;;;;;;;;;;;;;;;;;;;;;;;;;;;;;;;;
"tob11";"1994";;"Windows 7";"Rachel's Experiment (D.T.)";"1.0";"2";"1";"1";"2";"1";"1";"2014-10-15 15:20:58.511";"2014-10-15 15:33:31.037";"1";"0";"0";"90";"89";"module.training_block3.exec-6186.GoNoGo3";;;;;;;;;;;;;;;;;;;;;;;;;;;;;;;;;;;;;;;;;;;;;;;"1261";"2014-10-15 15:26:27.996";"NST_correctLoc";"24";"0";"FINISHED";"LEFT";"success";"346";"0";"2014-10-15 15:26:26.733";"3";;;;;;;;;;;;;;;;;;;;;;;;;;;;;;;;;
"tob11";"1994";;"Windows 7";"Rachel's Experiment (D.T.)";"1.0";"2";"1";"1";"2";"1";"1";"2014-10-15 15:20:58.511";"2014-10-15 15:33:31.037";"1";"0";"0";"91";"90";"module.training_block3.exec-6186.GoNoGo3";;;;;;;;;;;;;;;;;;;;;;;;;;;;;;;;;;;;;;;;;;;;;;;"1261";"2014-10-15 15:26:30.540";"NST_correctLoc";"0";"0";"FINISHED";"LEFT";"success";"515";"0";"2014-10-15 15:26:29.276";"1";;;;;;;;;;;;;;;;;;;;;;;;;;;;;;;;;
"tob11";"1994";;"Windows 7";"Rachel's Experiment (D.T.)";"1.0";"2";"1";"1";"2";"1";"1";"2014-10-15 15:20:58.511";"2014-10-15 15:33:31.037";"1";"0";"0";"92";"91";"module.training_block3.exec-6186.GoNoGo3";;;;;;;;;;;;;;;;;;;;;;;;;;;;;;;;;;;;;;;;;;;;;;;"1261";"2014-10-15 15:26:33.083";"NST_correctLoc";"10";"1";"FINISHED";"RIGHT";"success";"300";"0";"2014-10-15 15:26:31.819";"2";;;;;;;;;;;;;;;;;;;;;;;;;;;;;;;;;
"tob11";"1994";;"Windows 7";"Rachel's Experiment (D.T.)";"1.0";"2";"1";"1";"2";"1";"1";"2014-10-15 15:20:58.511";"2014-10-15 15:33:31.037";"1";"0";"0";"93";"92";"module.training_block3.exec-6186.GoNoGo3";;;;;;;;;;;;;;;;;;;;;;;;;;;;;;;;;;;;;;;;;;;;;;;"1261";"2014-10-15 15:26:35.626";"NST_correctLoc";"26";"1";"FINISHED";"RIGHT";"success";"438";"0";"2014-10-15 15:26:34.362";"3";;;;;;;;;;;;;;;;;;;;;;;;;;;;;;;;;
"tob11";"1994";;"Windows 7";"Rachel's Experiment (D.T.)";"1.0";"2";"1";"1";"2";"1";"1";"2014-10-15 15:20:58.511";"2014-10-15 15:33:31.037";"1";"0";"0";"94";"93";"module.training_block3.exec-6186.GoNoGo3";;;;;;;;;;;;;;;;;;;;;;;;;;;;;;;;;;;;;;;;;;;;;;;"1261";"2014-10-15 15:26:38.154";"NST_correctLoc";"35";"1";"FINISHED";"RIGHT";"success";"342";"0";"2014-10-15 15:26:36.890";"3";;;;;;;;;;;;;;;;;;;;;;;;;;;;;;;;;
"tob11";"1994";;"Windows 7";"Rachel's Experiment (D.T.)";"1.0";"2";"1";"1";"2";"1";"1";"2014-10-15 15:20:58.511";"2014-10-15 15:33:31.037";"1";"0";"0";"95";"94";"module.training_block3.exec-6186.GoNoGo3";;;;;;;;;;;;;;;;;;;;;;;;;;;;;;;;;;;;;;;;;;;;;;;"1261";"2014-10-15 15:26:40.697";"NST_correctLoc";"31";"1";"FINISHED";"RIGHT";"success";"335";"0";"2014-10-15 15:26:39.433";"3";;;;;;;;;;;;;;;;;;;;;;;;;;;;;;;;;
"tob11";"1994";;"Windows 7";"Rachel's Experiment (D.T.)";"1.0";"2";"1";"1";"2";"1";"1";"2014-10-15 15:20:58.511";"2014-10-15 15:33:31.037";"1";"0";"0";"96";"95";"module.training_block3.exec-6186.GoNoGo3";;;;;;;;;;;;;;;;;;;;;;;;;;;;;;;;;;;;;;;;;;;;;;;"1261";"2014-10-15 15:26:43.240";"NST_correctLoc";"33";"1";"FINISHED";"RIGHT";"success";"361";"0";"2014-10-15 15:26:41.976";"3";;;;;;;;;;;;;;;;;;;;;;;;;;;;;;;;;
"tob11";"1994";;"Windows 7";"Rachel's Experiment (D.T.)";"1.0";"2";"1";"1";"2";"1";"1";"2014-10-15 15:20:58.511";"2014-10-15 15:33:31.037";"1";"0";"0";"97";"96";"module.training_block3.exec-6186.GoNoGo3";;;;;;;;;;;;;;;;;;;;;;;;;;;;;;;;;;;;;;;;;;;;;;;"1261";"2014-10-15 15:26:45.783";"NST_correctLoc";"21";"0";"FINISHED";"LEFT";"success";"346";"0";"2014-10-15 15:26:44.519";"3";;;;;;;;;;;;;;;;;;;;;;;;;;;;;;;;;
"tob11";"1994";;"Windows 7";"Rachel's Experiment (D.T.)";"1.0";"2";"1";"1";"2";"1";"1";"2014-10-15 15:20:58.511";"2014-10-15 15:33:31.037";"1";"0";"0";"98";"97";"module.training_block3.exec-6186.GoNoGo3";;;;;;;;;;;;;;;;;;;;;;;;;;;;;;;;;;;;;;;;;;;;;;;"1261";"2014-10-15 15:26:48.326";"NST_correctLoc";"25";"0";"FINISHED";"LEFT";"success";"523";"0";"2014-10-15 15:26:47.063";"3";;;;;;;;;;;;;;;;;;;;;;;;;;;;;;;;;
"tob11";"1994";;"Windows 7";"Rachel's Experiment (D.T.)";"1.0";"2";"1";"1";"2";"1";"1";"2014-10-15 15:20:58.511";"2014-10-15 15:33:31.037";"1";"0";"0";"99";"98";"module.training_block3.exec-6186.GoNoGo3";;;;;;;;;;;;;;;;;;;;;;;;;;;;;;;;;;;;;;;;;;;;;;;"1261";"2014-10-15 15:26:50.869";"NST_correctLoc";"13";"0";"FINISHED";"LEFT";"success";"396";"0";"2014-10-15 15:26:49.606";"2";;;;;;;;;;;;;;;;;;;;;;;;;;;;;;;;;
"tob11";"1994";;"Windows 7";"Rachel's Experiment (D.T.)";"1.0";"2";"1";"1";"2";"1";"1";"2014-10-15 15:20:58.511";"2014-10-15 15:33:31.037";"1";"0";"0";"100";"99";"module.training_block3.exec-6186.GoNoGo3";;;;;;;;;;;;;;;;;;;;;;;;;;;;;;;;;;;;;;;;;;;;;;;"1261";"2014-10-15 15:26:53.413";"NST_correctLoc";"8";"0";"FINISHED";"LEFT";"success";"573";"0";"2014-10-15 15:26:52.149";"1";;;;;;;;;;;;;;;;;;;;;;;;;;;;;;;;;
"tob11";"1994";;"Windows 7";"Rachel's Experiment (D.T.)";"1.0";"2";"1";"1";"2";"1";"1";"2014-10-15 15:20:58.511";"2014-10-15 15:33:31.037";"1";"0";"0";"101";"100";"module.training_block3.exec-6186.GoNoGo3";;;;;;;;;;;;;;;;;;;;;;;;;;;;;;;;;;;;;;;;;;;;;;;"1261";"2014-10-15 15:26:55.956";"NST_correctLoc";"9";"0";"FINISHED";"LEFT";"success";"407";"0";"2014-10-15 15:26:54.692";"2";;;;;;;;;;;;;;;;;;;;;;;;;;;;;;;;;
"tob11";"1994";;"Windows 7";"Rachel's Experiment (D.T.)";"1.0";"2";"1";"1";"2";"1";"1";"2014-10-15 15:20:58.511";"2014-10-15 15:33:31.037";"1";"0";"0";"102";"101";"module.training_block3.exec-6186.GoNoGo3";;;;;;;;;;;;;;;;;;;;;;;;;;;;;;;;;;;;;;;;;;;;;;;"1261";"2014-10-15 15:26:58.499";"NST_correctLoc";"3";"1";"FINISHED";"RIGHT";"success";"344";"0";"2014-10-15 15:26:57.235";"1";;;;;;;;;;;;;;;;;;;;;;;;;;;;;;;;;
"tob11";"1994";;"Windows 7";"Rachel's Experiment (D.T.)";"1.0";"2";"1";"1";"2";"1";"1";"2014-10-15 15:20:58.511";"2014-10-15 15:33:31.037";"1";"0";"0";"103";"102";"module.training_block3.exec-6186.GoNoGo3";;;;;;;;;;;;;;;;;;;;;;;;;;;;;;;;;;;;;;;;;;;;;;;"1261";"2014-10-15 15:27:01.042";"NST_correctLoc";"18";"1";"FINISHED";"RIGHT";"success";"401";"0";"2014-10-15 15:26:59.778";"3";;;;;;;;;;;;;;;;;;;;;;;;;;;;;;;;;
"tob11";"1994";;"Windows 7";"Rachel's Experiment (D.T.)";"1.0";"2";"1";"1";"2";"1";"1";"2014-10-15 15:20:58.511";"2014-10-15 15:33:31.037";"1";"0";"0";"104";"103";"module.training_block3.exec-6186.GoNoGo3";;;;;;;;;;;;;;;;;;;;;;;;;;;;;;;;;;;;;;;;;;;;;;;"1261";"2014-10-15 15:27:03.585";"NST_correctLoc";"4";"1";"FINISHED";"RIGHT";"success";"434";"0";"2014-10-15 15:27:02.322";"1";;;;;;;;;;;;;;;;;;;;;;;;;;;;;;;;;
"tob11";"1994";;"Windows 7";"Rachel's Experiment (D.T.)";"1.0";"2";"1";"1";"2";"1";"1";"2014-10-15 15:20:58.511";"2014-10-15 15:33:31.037";"1";"0";"0";"105";"104";"module.training_block3.exec-6186.GoNoGo3";;;;;;;;;;;;;;;;;;;;;;;;;;;;;;;;;;;;;;;;;;;;;;;"1261";"2014-10-15 15:27:06.129";"NST_correctLoc";"22";"1";"FINISHED";"RIGHT";"success";"571";"0";"2014-10-15 15:27:04.865";"3";;;;;;;;;;;;;;;;;;;;;;;;;;;;;;;;;
"tob11";"1994";;"Windows 7";"Rachel's Experiment (D.T.)";"1.0";"2";"1";"1";"2";"1";"1";"2014-10-15 15:20:58.511";"2014-10-15 15:33:31.037";"1";"0";"0";"106";"105";"module.training_block3.exec-6186.GoNoGo3";;;;;;;;;;;;;;;;;;;;;;;;;;;;;;;;;;;;;;;;;;;;;;;"1261";"2014-10-15 15:27:08.656";"NST_correctLoc";"7";"1";"FINISHED";"RIGHT";"success";"588";"0";"2014-10-15 15:27:07.392";"1";;;;;;;;;;;;;;;;;;;;;;;;;;;;;;;;;
"tob11";"1994";;"Windows 7";"Rachel's Experiment (D.T.)";"1.0";"2";"1";"1";"2";"1";"1";"2014-10-15 15:20:58.511";"2014-10-15 15:33:31.037";"1";"0";"0";"107";"106";"module.training_block3.exec-6186.GoNoGo3";;;;;;;;;;;;;;;;;;;;;;;;;;;;;;;;;;;;;;;;;;;;;;;"1261";"2014-10-15 15:27:11.199";"NST_correctLoc";"12";"1";"FINISHED";"RIGHT";"success";"413";"0";"2014-10-15 15:27:09.935";"2";;;;;;;;;;;;;;;;;;;;;;;;;;;;;;;;;
"tob11";"1994";;"Windows 7";"Rachel's Experiment (D.T.)";"1.0";"2";"1";"1";"2";"1";"1";"2014-10-15 15:20:58.511";"2014-10-15 15:33:31.037";"1";"0";"0";"108";"107";"module.training_block3.exec-6186.GoNoGo3";;;;;;;;;;;;;;;;;;;;;;;;;;;;;;;;;;;;;;;;;;;;;;;"1261";"2014-10-15 15:27:13.758";"NST_correctLoc";"28";"0";"FINISHED";"LEFT";"success";"559";"0";"2014-10-15 15:27:12.494";"3";;;;;;;;;;;;;;;;;;;;;;;;;;;;;;;;;
"tob11";"1994";;"Windows 7";"Rachel's Experiment (D.T.)";"1.0";"2";"1";"1";"2";"1";"1";"2014-10-15 15:20:58.511";"2014-10-15 15:33:31.037";"1";"0";"0";"109";"108";"module.training_block3.exec-6186.GoNoGo3";;;;;;;;;;;;;;;;;;;;;;;;;;;;;;;;;;;;;;;;;;;;;;;"1261";"2014-10-15 15:27:16.301";"NST_correctLoc";"16";"1";"FINISHED";"RIGHT";"success";"368";"0";"2014-10-15 15:27:15.037";"2";;;;;;;;;;;;;;;;;;;;;;;;;;;;;;;;;
"tob11";"1994";;"Windows 7";"Rachel's Experiment (D.T.)";"1.0";"2";"1";"1";"2";"1";"1";"2014-10-15 15:20:58.511";"2014-10-15 15:33:31.037";"1";"0";"0";"110";"109";"module.training_block3.exec-6186.GoNoGo3";;;;;;;;;;;;;;;;;;;;;;;;;;;;;;;;;;;;;;;;;;;;;;;"1261";"2014-10-15 15:27:18.844";"NST_correctLoc";"27";"1";"FINISHED";"RIGHT";"success";"385";"0";"2014-10-15 15:27:17.581";"3";;;;;;;;;;;;;;;;;;;;;;;;;;;;;;;;;
"tob11";"1994";;"Windows 7";"Rachel's Experiment (D.T.)";"1.0";"2";"1";"1";"2";"1";"1";"2014-10-15 15:20:58.511";"2014-10-15 15:33:31.037";"1";"0";"0";"111";"110";"module.training_block3.exec-6186.GoNoGo3";;;;;;;;;;;;;;;;;;;;;;;;;;;;;;;;;;;;;;;;;;;;;;;"1261";"2014-10-15 15:27:21.388";"NST_correctLoc";"14";"0";"FINISHED";"LEFT";"success";"490";"0";"2014-10-15 15:27:20.124";"2";;;;;;;;;;;;;;;;;;;;;;;;;;;;;;;;;
"tob11";"1994";;"Windows 7";"Rachel's Experiment (D.T.)";"1.0";"2";"1";"1";"2";"1";"1";"2014-10-15 15:20:58.511";"2014-10-15 15:33:31.037";"1";"0";"0";"112";"111";"module.training_block3.exec-6186.GoNoGo3";;;;;;;;;;;;;;;;;;;;;;;;;;;;;;;;;;;;;;;;;;;;;;;"1256";"2014-10-15 15:27:23.931";"NST_correctLoc";"6";"0";"FINISHED";"LEFT";"success";"558";"0";"2014-10-15 15:27:22.667";"1";;;;;;;;;;;;;;;;;;;;;;;;;;;;;;;;;
"tob11";"1994";;"Windows 7";"Rachel's Experiment (D.T.)";"1.0";"2";"1";"1";"2";"1";"1";"2014-10-15 15:20:58.511";"2014-10-15 15:33:31.037";"1";"0";"0";"113";"112";"module.training_block3.exec-6186.GoNoGo3";;;;;;;;;;;;;;;;;;;;;;;;;;;;;;;;;;;;;;;;;;;;;;;"1261";"2014-10-15 15:27:26.474";"NST_correctLoc";"2";"1";"FINISHED";"RIGHT";"success";"429";"0";"2014-10-15 15:27:25.210";"1";;;;;;;;;;;;;;;;;;;;;;;;;;;;;;;;;
"tob11";"1994";;"Windows 7";"Rachel's Experiment (D.T.)";"1.0";"2";"1";"1";"2";"1";"1";"2014-10-15 15:20:58.511";"2014-10-15 15:33:31.037";"1";"0";"0";"114";"113";"module.training_block3.exec-6186.GoNoGo3";;;;;;;;;;;;;;;;;;;;;;;;;;;;;;;;;;;;;;;;;;;;;;;"1262";"2014-10-15 15:27:29.017";"NST_correctLoc";"11";"1";"FINISHED";"RIGHT";"success";"390";"0";"2014-10-15 15:27:27.753";"2";;;;;;;;;;;;;;;;;;;;;;;;;;;;;;;;;
"tob11";"1994";;"Windows 7";"Rachel's Experiment (D.T.)";"1.0";"2";"1";"1";"2";"1";"1";"2014-10-15 15:20:58.511";"2014-10-15 15:33:31.037";"1";"0";"0";"115";"114";"module.training_block3.exec-6186.GoNoGo3";;;;;;;;;;;;;;;;;;;;;;;;;;;;;;;;;;;;;;;;;;;;;;;"1257";"2014-10-15 15:27:31.545";"NST_correctLoc";"17";"0";"FINISHED";"LEFT";"success";"450";"0";"2014-10-15 15:27:30.281";"2";;;;;;;;;;;;;;;;;;;;;;;;;;;;;;;;;
"tob11";"1994";;"Windows 7";"Rachel's Experiment (D.T.)";"1.0";"2";"1";"1";"2";"1";"1";"2014-10-15 15:20:58.511";"2014-10-15 15:33:31.037";"1";"0";"0";"116";"115";"module.training_block3.exec-6186.GoNoGo3";;;;;;;;;;;;;;;;;;;;;;;;;;;;;;;;;;;;;;;;;;;;;;;"1261";"2014-10-15 15:27:34.088";"NST_correctLoc";"1";"1";"FINISHED";"RIGHT";"success";"312";"0";"2014-10-15 15:27:32.824";"1";;;;;;;;;;;;;;;;;;;;;;;;;;;;;;;;;
"tob11";"1994";;"Windows 7";"Rachel's Experiment (D.T.)";"1.0";"2";"1";"1";"2";"1";"1";"2014-10-15 15:20:58.511";"2014-10-15 15:33:31.037";"1";"0";"0";"117";"116";"module.training_block3.exec-6186.GoNoGo3";;;;;;;;;;;;;;;;;;;;;;;;;;;;;;;;;;;;;;;;;;;;;;;"1261";"2014-10-15 15:27:36.615";"NST_correctLoc";"34";"0";"FINISHED";"LEFT";"success";"489";"0";"2014-10-15 15:27:35.352";"3";;;;;;;;;;;;;;;;;;;;;;;;;;;;;;;;;
"tob11";"1994";;"Windows 7";"Rachel's Experiment (D.T.)";"1.0";"2";"1";"1";"2";"1";"1";"2014-10-15 15:20:58.511";"2014-10-15 15:33:31.037";"1";"0";"0";"118";"117";"module.training_block3.exec-6186.GoNoGo3";;;;;;;;;;;;;;;;;;;;;;;;;;;;;;;;;;;;;;;;;;;;;;;"1261";"2014-10-15 15:27:39.143";"NST_correctLoc";"5";"1";"FINISHED";"RIGHT";"success";"433";"0";"2014-10-15 15:27:37.879";"1";;;;;;;;;;;;;;;;;;;;;;;;;;;;;;;;;
"tob11";"1994";;"Windows 7";"Rachel's Experiment (D.T.)";"1.0";"2";"1";"1";"2";"1";"1";"2014-10-15 15:20:58.511";"2014-10-15 15:33:31.037";"1";"0";"0";"119";"118";"module.training_block3.exec-6186.GoNoGo3";;;;;;;;;;;;;;;;;;;;;;;;;;;;;;;;;;;;;;;;;;;;;;;"1258";"2014-10-15 15:27:41.671";"NST_correctLoc";"20";"1";"FINISHED";"RIGHT";"success";"358";"0";"2014-10-15 15:27:40.407";"3";;;;;;;;;;;;;;;;;;;;;;;;;;;;;;;;;
"tob11";"1994";;"Windows 7";"Rachel's Experiment (D.T.)";"1.0";"2";"1";"1";"2";"1";"1";"2014-10-15 15:20:58.511";"2014-10-15 15:33:31.037";"1";"0";"0";"120";"119";"module.training_block3.exec-6186.GoNoGo3";;;;;;;;;;;;;;;;;;;;;;;;;;;;;;;;;;;;;;;;;;;;;;;"1261";"2014-10-15 15:27:44.229";"NST_correctLoc";"19";"0";"FINISHED";"LEFT";"success";"404";"0";"2014-10-15 15:27:42.966";"3";;;;;;;;;;;;;;;;;;;;;;;;;;;;;;;;;
"tob11";"1994";;"Windows 7";"Rachel's Experiment (D.T.)";"1.0";"2";"1";"1";"2";"1";"1";"2014-10-15 15:20:58.511";"2014-10-15 15:33:31.037";"1";"0";"0";"121";"120";"module.training_block3.exec-6186.GoNoGo3";;;;;;;;;;;;;;;;;;;;;;;;;;;;;;;;;;;;;;;;;;;;;;;"1261";"2014-10-15 15:27:46.757";"NST_correctLoc";"32";"1";"FINISHED";"RIGHT";"success";"349";"0";"2014-10-15 15:27:45.493";"3";;;;;;;;;;;;;;;;;;;;;;;;;;;;;;;;;
"tob11";"1994";;"Windows 7";"Rachel's Experiment (D.T.)";"1.0";"2";"1";"1";"2";"1";"1";"2014-10-15 15:20:58.511";"2014-10-15 15:33:31.037";"1";"0";"0";"122";"121";"module.training_block3.exec-6186.GoNoGo3";;;;;;;;;;;;;;;;;;;;;;;;;;;;;;;;;;;;;;;;;;;;;;;"1261";"2014-10-15 15:27:49.284";"NST_correctLoc";"23";"1";"FINISHED";"RIGHT";"success";"421";"0";"2014-10-15 15:27:48.021";"3";;;;;;;;;;;;;;;;;;;;;;;;;;;;;;;;;
"tob11";"1994";;"Windows 7";"Rachel's Experiment (D.T.)";"1.0";"2";"1";"1";"2";"1";"1";"2014-10-15 15:20:58.511";"2014-10-15 15:33:31.037";"1";"0";"0";"123";"122";"module.training_block3.exec-6186.GoNoGo3";;;;;;;;;;;;;;;;;;;;;;;;;;;;;;;;;;;;;;;;;;;;;;;"1261";"2014-10-15 15:27:51.812";"NST_correctLoc";"30";"1";"FINISHED";"RIGHT";"success";"390";"0";"2014-10-15 15:27:50.548";"3";;;;;;;;;;;;;;;;;;;;;;;;;;;;;;;;;
"tob11";"1994";;"Windows 7";"Rachel's Experiment (D.T.)";"1.0";"2";"1";"1";"2";"1";"1";"2014-10-15 15:20:58.511";"2014-10-15 15:33:31.037";"1";"0";"0";"124";"123";"module.training_block4.exec-3713.GoNoGo4";;;;;;;;;;;;;;;;;;;;;;;;;;;;;;;;;;;;;;;;;;;;;;;;;;;;;;;;;;;"1261";"2014-10-15 15:28:01.891";"NST_correctLoc";"22";"0";"FINISHED";"LEFT";"success";"368";"0";"2014-10-15 15:28:00.627";"3";;;;;;;;;;;;;;;;;;;;;
"tob11";"1994";;"Windows 7";"Rachel's Experiment (D.T.)";"1.0";"2";"1";"1";"2";"1";"1";"2014-10-15 15:20:58.511";"2014-10-15 15:33:31.037";"1";"0";"0";"125";"124";"module.training_block4.exec-3713.GoNoGo4";;;;;;;;;;;;;;;;;;;;;;;;;;;;;;;;;;;;;;;;;;;;;;;;;;;;;;;;;;;"1261";"2014-10-15 15:28:04.434";"NST_correctLoc";"33";"1";"FINISHED";"RIGHT";"success";"346";"0";"2014-10-15 15:28:03.171";"3";;;;;;;;;;;;;;;;;;;;;
"tob11";"1994";;"Windows 7";"Rachel's Experiment (D.T.)";"1.0";"2";"1";"1";"2";"1";"1";"2014-10-15 15:20:58.511";"2014-10-15 15:33:31.037";"1";"0";"0";"126";"125";"module.training_block4.exec-3713.GoNoGo4";;;;;;;;;;;;;;;;;;;;;;;;;;;;;;;;;;;;;;;;;;;;;;;;;;;;;;;;;;;"1261";"2014-10-15 15:28:06.962";"NST_correctLoc";"31";"0";"FINISHED";"LEFT";"success";"394";"0";"2014-10-15 15:28:05.698";"3";;;;;;;;;;;;;;;;;;;;;
"tob11";"1994";;"Windows 7";"Rachel's Experiment (D.T.)";"1.0";"2";"1";"1";"2";"1";"1";"2014-10-15 15:20:58.511";"2014-10-15 15:33:31.037";"1";"0";"0";"127";"126";"module.training_block4.exec-3713.GoNoGo4";;;;;;;;;;;;;;;;;;;;;;;;;;;;;;;;;;;;;;;;;;;;;;;;;;;;;;;;;;;"1261";"2014-10-15 15:28:09.489";"NST_correctLoc";"13";"1";"FINISHED";"RIGHT";"success";"283";"0";"2014-10-15 15:28:08.226";"2";;;;;;;;;;;;;;;;;;;;;
"tob11";"1994";;"Windows 7";"Rachel's Experiment (D.T.)";"1.0";"2";"1";"1";"2";"1";"1";"2014-10-15 15:20:58.511";"2014-10-15 15:33:31.037";"1";"0";"0";"128";"127";"module.training_block4.exec-3713.GoNoGo4";;;;;;;;;;;;;;;;;;;;;;;;;;;;;;;;;;;;;;;;;;;;;;;;;;;;;;;;;;;"1261";"2014-10-15 15:28:12.017";"NST_correctLoc";"34";"0";"FINISHED";"LEFT";"success";"324";"0";"2014-10-15 15:28:10.753";"3";;;;;;;;;;;;;;;;;;;;;
"tob11";"1994";;"Windows 7";"Rachel's Experiment (D.T.)";"1.0";"2";"1";"1";"2";"1";"1";"2014-10-15 15:20:58.511";"2014-10-15 15:33:31.037";"1";"0";"0";"129";"128";"module.training_block4.exec-3713.GoNoGo4";;;;;;;;;;;;;;;;;;;;;;;;;;;;;;;;;;;;;;;;;;;;;;;;;;;;;;;;;;;"1261";"2014-10-15 15:28:14.545";"NST_correctLoc";"7";"0";"FINISHED";"LEFT";"success";"461";"0";"2014-10-15 15:28:13.281";"1";;;;;;;;;;;;;;;;;;;;;
"tob11";"1994";;"Windows 7";"Rachel's Experiment (D.T.)";"1.0";"2";"1";"1";"2";"1";"1";"2014-10-15 15:20:58.511";"2014-10-15 15:33:31.037";"1";"0";"0";"130";"129";"module.training_block4.exec-3713.GoNoGo4";;;;;;;;;;;;;;;;;;;;;;;;;;;;;;;;;;;;;;;;;;;;;;;;;;;;;;;;;;;"1262";"2014-10-15 15:28:17.072";"NST_correctLoc";"27";"0";"FINISHED";"LEFT";"success";"469";"0";"2014-10-15 15:28:15.808";"3";;;;;;;;;;;;;;;;;;;;;
"tob11";"1994";;"Windows 7";"Rachel's Experiment (D.T.)";"1.0";"2";"1";"1";"2";"1";"1";"2014-10-15 15:20:58.511";"2014-10-15 15:33:31.037";"1";"0";"0";"131";"130";"module.training_block4.exec-3713.GoNoGo4";;;;;;;;;;;;;;;;;;;;;;;;;;;;;;;;;;;;;;;;;;;;;;;;;;;;;;;;;;;"1261";"2014-10-15 15:28:19.600";"NST_correctLoc";"0";"0";"FINISHED";"LEFT";"success";"358";"0";"2014-10-15 15:28:18.336";"1";;;;;;;;;;;;;;;;;;;;;
"tob11";"1994";;"Windows 7";"Rachel's Experiment (D.T.)";"1.0";"2";"1";"1";"2";"1";"1";"2014-10-15 15:20:58.511";"2014-10-15 15:33:31.037";"1";"0";"0";"132";"131";"module.training_block4.exec-3713.GoNoGo4";;;;;;;;;;;;;;;;;;;;;;;;;;;;;;;;;;;;;;;;;;;;;;;;;;;;;;;;;;;"1261";"2014-10-15 15:28:22.127";"NST_correctLoc";"29";"0";"FINISHED";"LEFT";"success";"423";"0";"2014-10-15 15:28:20.864";"3";;;;;;;;;;;;;;;;;;;;;
"tob11";"1994";;"Windows 7";"Rachel's Experiment (D.T.)";"1.0";"2";"1";"1";"2";"1";"1";"2014-10-15 15:20:58.511";"2014-10-15 15:33:31.037";"1";"0";"0";"133";"132";"module.training_block4.exec-3713.GoNoGo4";;;;;;;;;;;;;;;;;;;;;;;;;;;;;;;;;;;;;;;;;;;;;;;;;;;;;;;;;;;"1262";"2014-10-15 15:28:24.670";"NST_correctLoc";"14";"1";"FINISHED";"RIGHT";"success";"312";"0";"2014-10-15 15:28:23.407";"2";;;;;;;;;;;;;;;;;;;;;
"tob11";"1994";;"Windows 7";"Rachel's Experiment (D.T.)";"1.0";"2";"1";"1";"2";"1";"1";"2014-10-15 15:20:58.511";"2014-10-15 15:33:31.037";"1";"0";"0";"134";"133";"module.training_block4.exec-3713.GoNoGo4";;;;;;;;;;;;;;;;;;;;;;;;;;;;;;;;;;;;;;;;;;;;;;;;;;;;;;;;;;;"1261";"2014-10-15 15:28:27.198";"NST_correctLoc";"23";"0";"FINISHED";"LEFT";"success";"337";"0";"2014-10-15 15:28:25.934";"3";;;;;;;;;;;;;;;;;;;;;
"tob11";"1994";;"Windows 7";"Rachel's Experiment (D.T.)";"1.0";"2";"1";"1";"2";"1";"1";"2014-10-15 15:20:58.511";"2014-10-15 15:33:31.037";"1";"0";"0";"135";"134";"module.training_block4.exec-3713.GoNoGo4";;;;;;;;;;;;;;;;;;;;;;;;;;;;;;;;;;;;;;;;;;;;;;;;;;;;;;;;;;;"1261";"2014-10-15 15:28:29.726";"NST_correctLoc";"16";"1";"FINISHED";"RIGHT";"success";"306";"0";"2014-10-15 15:28:28.462";"2";;;;;;;;;;;;;;;;;;;;;
"tob11";"1994";;"Windows 7";"Rachel's Experiment (D.T.)";"1.0";"2";"1";"1";"2";"1";"1";"2014-10-15 15:20:58.511";"2014-10-15 15:33:31.037";"1";"0";"0";"136";"135";"module.training_block4.exec-3713.GoNoGo4";;;;;;;;;;;;;;;;;;;;;;;;;;;;;;;;;;;;;;;;;;;;;;;;;;;;;;;;;;;"1261";"2014-10-15 15:28:32.253";"NST_correctLoc";"19";"0";"FINISHED";"LEFT";"success";"347";"0";"2014-10-15 15:28:30.989";"3";;;;;;;;;;;;;;;;;;;;;
"tob11";"1994";;"Windows 7";"Rachel's Experiment (D.T.)";"1.0";"2";"1";"1";"2";"1";"1";"2014-10-15 15:20:58.511";"2014-10-15 15:33:31.037";"1";"0";"0";"137";"136";"module.training_block4.exec-3713.GoNoGo4";;;;;;;;;;;;;;;;;;;;;;;;;;;;;;;;;;;;;;;;;;;;;;;;;;;;;;;;;;;"1261";"2014-10-15 15:28:34.781";"NST_correctLoc";"20";"1";"FINISHED";"RIGHT";"success";"331";"0";"2014-10-15 15:28:33.517";"3";;;;;;;;;;;;;;;;;;;;;
"tob11";"1994";;"Windows 7";"Rachel's Experiment (D.T.)";"1.0";"2";"1";"1";"2";"1";"1";"2014-10-15 15:20:58.511";"2014-10-15 15:33:31.037";"1";"0";"0";"138";"137";"module.training_block4.exec-3713.GoNoGo4";;;;;;;;;;;;;;;;;;;;;;;;;;;;;;;;;;;;;;;;;;;;;;;;;;;;;;;;;;;"1261";"2014-10-15 15:28:37.308";"NST_correctLoc";"17";"1";"FINISHED";"RIGHT";"success";"348";"0";"2014-10-15 15:28:36.045";"2";;;;;;;;;;;;;;;;;;;;;
"tob11";"1994";;"Windows 7";"Rachel's Experiment (D.T.)";"1.0";"2";"1";"1";"2";"1";"1";"2014-10-15 15:20:58.511";"2014-10-15 15:33:31.037";"1";"0";"0";"139";"138";"module.training_block4.exec-3713.GoNoGo4";;;;;;;;;;;;;;;;;;;;;;;;;;;;;;;;;;;;;;;;;;;;;;;;;;;;;;;;;;;"1261";"2014-10-15 15:28:39.836";"NST_correctLoc";"21";"1";"FINISHED";"RIGHT";"success";"381";"0";"2014-10-15 15:28:38.572";"3";;;;;;;;;;;;;;;;;;;;;
"tob11";"1994";;"Windows 7";"Rachel's Experiment (D.T.)";"1.0";"2";"1";"1";"2";"1";"1";"2014-10-15 15:20:58.511";"2014-10-15 15:33:31.037";"1";"0";"0";"140";"139";"module.training_block4.exec-3713.GoNoGo4";;;;;;;;;;;;;;;;;;;;;;;;;;;;;;;;;;;;;;;;;;;;;;;;;;;;;;;;;;;"1261";"2014-10-15 15:28:42.363";"NST_correctLoc";"15";"0";"FINISHED";"LEFT";"success";"414";"0";"2014-10-15 15:28:41.100";"2";;;;;;;;;;;;;;;;;;;;;
"tob11";"1994";;"Windows 7";"Rachel's Experiment (D.T.)";"1.0";"2";"1";"1";"2";"1";"1";"2014-10-15 15:20:58.511";"2014-10-15 15:33:31.037";"1";"0";"0";"141";"140";"module.training_block4.exec-3713.GoNoGo4";;;;;;;;;;;;;;;;;;;;;;;;;;;;;;;;;;;;;;;;;;;;;;;;;;;;;;;;;;;"1261";"2014-10-15 15:28:44.907";"NST_correctLoc";"10";"1";"FINISHED";"RIGHT";"success";"391";"0";"2014-10-15 15:28:43.643";"2";;;;;;;;;;;;;;;;;;;;;
"tob11";"1994";;"Windows 7";"Rachel's Experiment (D.T.)";"1.0";"2";"1";"1";"2";"1";"1";"2014-10-15 15:20:58.511";"2014-10-15 15:33:31.037";"1";"0";"0";"142";"141";"module.training_block4.exec-3713.GoNoGo4";;;;;;;;;;;;;;;;;;;;;;;;;;;;;;;;;;;;;;;;;;;;;;;;;;;;;;;;;;;"1261";"2014-10-15 15:28:47.434";"NST_correctLoc";"2";"1";"FINISHED";"RIGHT";"success";"416";"0";"2014-10-15 15:28:46.170";"1";;;;;;;;;;;;;;;;;;;;;
"tob11";"1994";;"Windows 7";"Rachel's Experiment (D.T.)";"1.0";"2";"1";"1";"2";"1";"1";"2014-10-15 15:20:58.511";"2014-10-15 15:33:31.037";"1";"0";"0";"143";"142";"module.training_block4.exec-3713.GoNoGo4";;;;;;;;;;;;;;;;;;;;;;;;;;;;;;;;;;;;;;;;;;;;;;;;;;;;;;;;;;;"1261";"2014-10-15 15:28:49.962";"NST_correctLoc";"18";"1";"FINISHED";"RIGHT";"success";"384";"0";"2014-10-15 15:28:48.698";"3";;;;;;;;;;;;;;;;;;;;;
"tob11";"1994";;"Windows 7";"Rachel's Experiment (D.T.)";"1.0";"2";"1";"1";"2";"1";"1";"2014-10-15 15:20:58.511";"2014-10-15 15:33:31.037";"1";"0";"0";"144";"143";"module.training_block4.exec-3713.GoNoGo4";;;;;;;;;;;;;;;;;;;;;;;;;;;;;;;;;;;;;;;;;;;;;;;;;;;;;;;;;;;"1261";"2014-10-15 15:28:52.489";"NST_correctLoc";"24";"1";"FINISHED";"RIGHT";"success";"425";"0";"2014-10-15 15:28:51.226";"3";;;;;;;;;;;;;;;;;;;;;
"tob11";"1994";;"Windows 7";"Rachel's Experiment (D.T.)";"1.0";"2";"1";"1";"2";"1";"1";"2014-10-15 15:20:58.511";"2014-10-15 15:33:31.037";"1";"0";"0";"145";"144";"module.training_block4.exec-3713.GoNoGo4";;;;;;;;;;;;;;;;;;;;;;;;;;;;;;;;;;;;;;;;;;;;;;;;;;;;;;;;;;;"1262";"2014-10-15 15:28:55.017";"NST_correctLoc";"9";"0";"FINISHED";"LEFT";"success";"378";"0";"2014-10-15 15:28:53.753";"2";;;;;;;;;;;;;;;;;;;;;
"tob11";"1994";;"Windows 7";"Rachel's Experiment (D.T.)";"1.0";"2";"1";"1";"2";"1";"1";"2014-10-15 15:20:58.511";"2014-10-15 15:33:31.037";"1";"0";"0";"146";"145";"module.training_block4.exec-3713.GoNoGo4";;;;;;;;;;;;;;;;;;;;;;;;;;;;;;;;;;;;;;;;;;;;;;;;;;;;;;;;;;;"1261";"2014-10-15 15:28:57.545";"NST_correctLoc";"12";"1";"FINISHED";"RIGHT";"success";"299";"0";"2014-10-15 15:28:56.281";"2";;;;;;;;;;;;;;;;;;;;;
"tob11";"1994";;"Windows 7";"Rachel's Experiment (D.T.)";"1.0";"2";"1";"1";"2";"1";"1";"2014-10-15 15:20:58.511";"2014-10-15 15:33:31.037";"1";"0";"0";"147";"146";"module.training_block4.exec-3713.GoNoGo4";;;;;;;;;;;;;;;;;;;;;;;;;;;;;;;;;;;;;;;;;;;;;;;;;;;;;;;;;;;"1256";"2014-10-15 15:29:00.072";"NST_correctLoc";"26";"1";"FINISHED";"RIGHT";"success";"350";"0";"2014-10-15 15:28:58.808";"3";;;;;;;;;;;;;;;;;;;;;
"tob11";"1994";;"Windows 7";"Rachel's Experiment (D.T.)";"1.0";"2";"1";"1";"2";"1";"1";"2014-10-15 15:20:58.511";"2014-10-15 15:33:31.037";"1";"0";"0";"148";"147";"module.training_block4.exec-3713.GoNoGo4";;;;;;;;;;;;;;;;;;;;;;;;;;;;;;;;;;;;;;;;;;;;;;;;;;;;;;;;;;;"1261";"2014-10-15 15:29:02.600";"NST_correctLoc";"30";"0";"FINISHED";"LEFT";"success";"460";"0";"2014-10-15 15:29:01.336";"3";;;;;;;;;;;;;;;;;;;;;
"tob11";"1994";;"Windows 7";"Rachel's Experiment (D.T.)";"1.0";"2";"1";"1";"2";"1";"1";"2014-10-15 15:20:58.511";"2014-10-15 15:33:31.037";"1";"0";"0";"149";"148";"module.training_block4.exec-3713.GoNoGo4";;;;;;;;;;;;;;;;;;;;;;;;;;;;;;;;;;;;;;;;;;;;;;;;;;;;;;;;;;;"1261";"2014-10-15 15:29:05.143";"NST_correctLoc";"11";"1";"FINISHED";"RIGHT";"success";"597";"0";"2014-10-15 15:29:03.879";"2";;;;;;;;;;;;;;;;;;;;;
"tob11";"1994";;"Windows 7";"Rachel's Experiment (D.T.)";"1.0";"2";"1";"1";"2";"1";"1";"2014-10-15 15:20:58.511";"2014-10-15 15:33:31.037";"1";"0";"0";"150";"149";"module.training_block4.exec-3713.GoNoGo4";;;;;;;;;;;;;;;;;;;;;;;;;;;;;;;;;;;;;;;;;;;;;;;;;;;;;;;;;;;"1261";"2014-10-15 15:29:07.670";"NST_correctLoc";"25";"0";"FINISHED";"LEFT";"success";"374";"0";"2014-10-15 15:29:06.407";"3";;;;;;;;;;;;;;;;;;;;;
"tob11";"1994";;"Windows 7";"Rachel's Experiment (D.T.)";"1.0";"2";"1";"1";"2";"1";"1";"2014-10-15 15:20:58.511";"2014-10-15 15:33:31.037";"1";"0";"0";"151";"150";"module.training_block4.exec-3713.GoNoGo4";;;;;;;;;;;;;;;;;;;;;;;;;;;;;;;;;;;;;;;;;;;;;;;;;;;;;;;;;;;"1261";"2014-10-15 15:29:10.198";"NST_correctLoc";"5";"0";"FINISHED";"LEFT";"success";"519";"0";"2014-10-15 15:29:08.934";"1";;;;;;;;;;;;;;;;;;;;;
"tob11";"1994";;"Windows 7";"Rachel's Experiment (D.T.)";"1.0";"2";"1";"1";"2";"1";"1";"2014-10-15 15:20:58.511";"2014-10-15 15:33:31.037";"1";"0";"0";"152";"151";"module.training_block4.exec-3713.GoNoGo4";;;;;;;;;;;;;;;;;;;;;;;;;;;;;;;;;;;;;;;;;;;;;;;;;;;;;;;;;;;"1261";"2014-10-15 15:29:12.726";"NST_correctLoc";"32";"0";"FINISHED";"LEFT";"success";"408";"0";"2014-10-15 15:29:11.462";"3";;;;;;;;;;;;;;;;;;;;;
"tob11";"1994";;"Windows 7";"Rachel's Experiment (D.T.)";"1.0";"2";"1";"1";"2";"1";"1";"2014-10-15 15:20:58.511";"2014-10-15 15:33:31.037";"1";"0";"0";"153";"152";"module.training_block4.exec-3713.GoNoGo4";;;;;;;;;;;;;;;;;;;;;;;;;;;;;;;;;;;;;;;;;;;;;;;;;;;;;;;;;;;"1261";"2014-10-15 15:29:15.253";"NST_correctLoc";"6";"1";"FINISHED";"RIGHT";"success";"305";"0";"2014-10-15 15:29:13.989";"1";;;;;;;;;;;;;;;;;;;;;
"tob11";"1994";;"Windows 7";"Rachel's Experiment (D.T.)";"1.0";"2";"1";"1";"2";"1";"1";"2014-10-15 15:20:58.511";"2014-10-15 15:33:31.037";"1";"0";"0";"154";"153";"module.training_block4.exec-3713.GoNoGo4";;;;;;;;;;;;;;;;;;;;;;;;;;;;;;;;;;;;;;;;;;;;;;;;;;;;;;;;;;;"1262";"2014-10-15 15:29:17.796";"NST_correctLoc";"35";"0";"FINISHED";"LEFT";"success";"362";"0";"2014-10-15 15:29:16.533";"3";;;;;;;;;;;;;;;;;;;;;
"tob11";"1994";;"Windows 7";"Rachel's Experiment (D.T.)";"1.0";"2";"1";"1";"2";"1";"1";"2014-10-15 15:20:58.511";"2014-10-15 15:33:31.037";"1";"0";"0";"155";"154";"module.training_block4.exec-3713.GoNoGo4";;;;;;;;;;;;;;;;;;;;;;;;;;;;;;;;;;;;;;;;;;;;;;;;;;;;;;;;;;;"1262";"2014-10-15 15:29:20.324";"NST_correctLoc";"28";"0";"FINISHED";"LEFT";"success";"483";"0";"2014-10-15 15:29:19.060";"3";;;;;;;;;;;;;;;;;;;;;
"tob11";"1994";;"Windows 7";"Rachel's Experiment (D.T.)";"1.0";"2";"1";"1";"2";"1";"1";"2014-10-15 15:20:58.511";"2014-10-15 15:33:31.037";"1";"0";"0";"156";"155";"module.training_block4.exec-3713.GoNoGo4";;;;;;;;;;;;;;;;;;;;;;;;;;;;;;;;;;;;;;;;;;;;;;;;;;;;;;;;;;;"1261";"2014-10-15 15:29:22.851";"NST_correctLoc";"8";"0";"FINISHED";"LEFT";"success";"443";"0";"2014-10-15 15:29:21.588";"1";;;;;;;;;;;;;;;;;;;;;
"tob11";"1994";;"Windows 7";"Rachel's Experiment (D.T.)";"1.0";"2";"1";"1";"2";"1";"1";"2014-10-15 15:20:58.511";"2014-10-15 15:33:31.037";"1";"0";"0";"157";"156";"module.training_block4.exec-3713.GoNoGo4";;;;;;;;;;;;;;;;;;;;;;;;;;;;;;;;;;;;;;;;;;;;;;;;;;;;;;;;;;;"1262";"2014-10-15 15:29:25.410";"NST_correctLoc";"4";"1";"FINISHED";"RIGHT";"success";"285";"0";"2014-10-15 15:29:24.146";"1";;;;;;;;;;;;;;;;;;;;;
"tob11";"1994";;"Windows 7";"Rachel's Experiment (D.T.)";"1.0";"2";"1";"1";"2";"1";"1";"2014-10-15 15:20:58.511";"2014-10-15 15:33:31.037";"1";"0";"0";"158";"157";"module.training_block4.exec-3713.GoNoGo4";;;;;;;;;;;;;;;;;;;;;;;;;;;;;;;;;;;;;;;;;;;;;;;;;;;;;;;;;;;"1262";"2014-10-15 15:29:27.938";"NST_correctLoc";"1";"0";"FINISHED";"LEFT";"success";"422";"0";"2014-10-15 15:29:26.674";"1";;;;;;;;;;;;;;;;;;;;;
"tob11";"1994";;"Windows 7";"Rachel's Experiment (D.T.)";"1.0";"2";"1";"1";"2";"1";"1";"2014-10-15 15:20:58.511";"2014-10-15 15:33:31.037";"1";"0";"0";"159";"158";"module.training_block4.exec-3713.GoNoGo4";;;;;;;;;;;;;;;;;;;;;;;;;;;;;;;;;;;;;;;;;;;;;;;;;;;;;;;;;;;"1262";"2014-10-15 15:29:30.481";"NST_correctLoc";"3";"0";"FINISHED";"LEFT";"success";"583";"0";"2014-10-15 15:29:29.217";"1";;;;;;;;;;;;;;;;;;;;;
"tob11";"1994";;"Windows 7";"Rachel's Experiment (D.T.)";"1.0";"2";"1";"1";"2";"1";"1";"2014-10-15 15:20:58.511";"2014-10-15 15:33:31.037";"1";"0";"0";"160";"159";"module.devaluation_practice.exec-8250.devalPractice";;;;;;;;;;;;"16969";"2014-10-15 15:30:24.699";"0";"3";"2";"5";"7186";"3538";"3197";"2014-10-15 15:30:07.724";;;;;;;;;;;;;;;;;;;;;;;;;;;;;;;;;;;;;;;;;;;;;;;;;;;;;;;;;;;;;;;;;;;;;;
"tob11";"1994";;"Windows 7";"Rachel's Experiment (D.T.)";"1.0";"2";"1";"1";"2";"1";"1";"2014-10-15 15:20:58.511";"2014-10-15 15:33:31.037";"1";"0";"0";"161";"160";"module.devaluation_practice.exec-8250.devalPractice";;;;;;;;;;;;"10029";"2014-10-15 15:30:34.762";"1";"1";"8";"7";"3224";"1136";"2650";"2014-10-15 15:30:24.730";;;;;;;;;;;;;;;;;;;;;;;;;;;;;;;;;;;;;;;;;;;;;;;;;;;;;;;;;;;;;;;;;;;;;;
"tob11";"1994";;"Windows 7";"Rachel's Experiment (D.T.)";"1.0";"2";"1";"1";"2";"1";"1";"2014-10-15 15:20:58.511";"2014-10-15 15:33:31.037";"1";"0";"0";"162";"161";"module.devaluation_practice.exec-8250.devalPractice";;;;;;;;;;;;"6323";"2014-10-15 15:30:41.097";"2";"1";"1";"1";"1010";"1115";"1178";"2014-10-15 15:30:34.778";;;;;;;;;;;;;;;;;;;;;;;;;;;;;;;;;;;;;;;;;;;;;;;;;;;;;;;;;;;;;;;;;;;;;;
"tob11";"1994";;"Windows 7";"Rachel's Experiment (D.T.)";"1.0";"2";"1";"1";"2";"1";"1";"2014-10-15 15:20:58.511";"2014-10-15 15:33:31.037";"1";"0";"0";"163";"162";"module.devaluation_practice.exec-8250.devalPractice";;;;;;;;;;;;"5646";"2014-10-15 15:30:46.761";"3";"3";"8";"7";"876";"898";"841";"2014-10-15 15:30:41.113";;;;;;;;;;;;;;;;;;;;;;;;;;;;;;;;;;;;;;;;;;;;;;;;;;;;;;;;;;;;;;;;;;;;;;
"tob11";"1994";;"Windows 7";"Rachel's Experiment (D.T.)";"1.0";"2";"1";"1";"2";"1";"1";"2014-10-15 15:20:58.511";"2014-10-15 15:33:31.037";"1";"0";"0";"164";"163";"module.devaluation_block1.exec-6245.deval1";"7398";"2014-10-15 15:30:58.244";"26";"7";"7";"7";"1708";"709";"1958";"2014-10-15 15:30:50.848";"3";;;;;;;;;;;;;;;;;;;;;;;;;;;;;;;;;;;;;;;;;;;;;;;;;;;;;;;;;;;;;;;;;;;;;;;;;;;;;;;;
"tob11";"1994";;"Windows 7";"Rachel's Experiment (D.T.)";"1.0";"2";"1";"1";"2";"1";"1";"2014-10-15 15:20:58.511";"2014-10-15 15:33:31.037";"1";"0";"0";"165";"164";"module.devaluation_block1.exec-6245.deval1";"6565";"2014-10-15 15:31:04.828";"4";"3";"9";"9";"971";"1042";"1401";"2014-10-15 15:30:58.260";"1";;;;;;;;;;;;;;;;;;;;;;;;;;;;;;;;;;;;;;;;;;;;;;;;;;;;;;;;;;;;;;;;;;;;;;;;;;;;;;;;
"tob11";"1994";;"Windows 7";"Rachel's Experiment (D.T.)";"1.0";"2";"1";"1";"2";"1";"1";"2014-10-15 15:20:58.511";"2014-10-15 15:33:31.037";"1";"0";"0";"166";"165";"module.devaluation_block1.exec-6245.deval1";"6529";"2014-10-15 15:31:11.381";"18";"1";"2";"2";"1278";"1225";"988";"2014-10-15 15:31:04.859";"3";;;;;;;;;;;;;;;;;;;;;;;;;;;;;;;;;;;;;;;;;;;;;;;;;;;;;;;;;;;;;;;;;;;;;;;;;;;;;;;;
"tob11";"1994";;"Windows 7";"Rachel's Experiment (D.T.)";"1.0";"2";"1";"1";"2";"1";"1";"2014-10-15 15:20:58.511";"2014-10-15 15:33:31.037";"1";"0";"0";"167";"166";"module.devaluation_block1.exec-6245.deval1";"5886";"2014-10-15 15:31:17.294";"16";"1";"7";"1";"852";"1185";"831";"2014-10-15 15:31:11.397";"2";;;;;;;;;;;;;;;;;;;;;;;;;;;;;;;;;;;;;;;;;;;;;;;;;;;;;;;;;;;;;;;;;;;;;;;;;;;;;;;;
"tob11";"1994";;"Windows 7";"Rachel's Experiment (D.T.)";"1.0";"2";"1";"1";"2";"1";"1";"2014-10-15 15:20:58.511";"2014-10-15 15:33:31.037";"1";"0";"0";"168";"167";"module.devaluation_block1.exec-6245.deval1";"6734";"2014-10-15 15:31:24.035";"9";"4";"6";"6";"1204";"496";"2007";"2014-10-15 15:31:17.310";"2";;;;;;;;;;;;;;;;;;;;;;;;;;;;;;;;;;;;;;;;;;;;;;;;;;;;;;;;;;;;;;;;;;;;;;;;;;;;;;;;
"tob11";"1994";;"Windows 7";"Rachel's Experiment (D.T.)";"1.0";"2";"1";"1";"2";"1";"1";"2014-10-15 15:20:58.511";"2014-10-15 15:33:31.037";"1";"0";"0";"169";"168";"module.devaluation_block1.exec-6245.deval1";"5277";"2014-10-15 15:31:29.339";"13";"6";"6";"6";"1153";"457";"628";"2014-10-15 15:31:24.066";"2";;;;;;;;;;;;;;;;;;;;;;;;;;;;;;;;;;;;;;;;;;;;;;;;;;;;;;;;;;;;;;;;;;;;;;;;;;;;;;;;
"tob11";"1994";;"Windows 7";"Rachel's Experiment (D.T.)";"1.0";"2";"1";"1";"2";"1";"1";"2014-10-15 15:20:58.511";"2014-10-15 15:33:31.037";"1";"0";"0";"170";"169";"module.devaluation_block1.exec-6245.deval1";"5382";"2014-10-15 15:31:34.738";"5";"1";"9";"9";"553";"771";"1036";"2014-10-15 15:31:29.355";"1";;;;;;;;;;;;;;;;;;;;;;;;;;;;;;;;;;;;;;;;;;;;;;;;;;;;;;;;;;;;;;;;;;;;;;;;;;;;;;;;
"tob11";"1994";;"Windows 7";"Rachel's Experiment (D.T.)";"1.0";"2";"1";"1";"2";"1";"1";"2014-10-15 15:20:58.511";"2014-10-15 15:33:31.037";"1";"0";"0";"171";"170";"module.devaluation_block1.exec-6245.deval1";"6365";"2014-10-15 15:31:41.119";"21";"2";"7";"7";"1163";"1399";"790";"2014-10-15 15:31:34.753";"3";;;;;;;;;;;;;;;;;;;;;;;;;;;;;;;;;;;;;;;;;;;;;;;;;;;;;;;;;;;;;;;;;;;;;;;;;;;;;;;;
"tob11";"1994";;"Windows 7";"Rachel's Experiment (D.T.)";"1.0";"2";"1";"1";"2";"1";"1";"2014-10-15 15:20:58.511";"2014-10-15 15:33:31.037";"1";"0";"0";"172";"171";"module.devaluation_block1.exec-6245.deval1";"6005";"2014-10-15 15:31:47.157";"3";"1";"9";"9";"1383";"762";"831";"2014-10-15 15:31:41.150";"1";;;;;;;;;;;;;;;;;;;;;;;;;;;;;;;;;;;;;;;;;;;;;;;;;;;;;;;;;;;;;;;;;;;;;;;;;;;;;;;;
"tob11";"1994";;"Windows 7";"Rachel's Experiment (D.T.)";"1.0";"2";"1";"1";"2";"1";"1";"2014-10-15 15:20:58.511";"2014-10-15 15:33:31.037";"1";"0";"0";"173";"172";"module.devaluation_block1.exec-6245.deval1";"5162";"2014-10-15 15:31:52.337";"14";"6";"7";"6";"513";"985";"636";"2014-10-15 15:31:47.173";"2";;;;;;;;;;;;;;;;;;;;;;;;;;;;;;;;;;;;;;;;;;;;;;;;;;;;;;;;;;;;;;;;;;;;;;;;;;;;;;;;
"tob11";"1994";;"Windows 7";"Rachel's Experiment (D.T.)";"1.0";"2";"1";"1";"2";"1";"1";"2014-10-15 15:20:58.511";"2014-10-15 15:33:31.037";"1";"0";"0";"174";"173";"module.devaluation_block1.exec-6245.deval1";"5677";"2014-10-15 15:31:58.032";"17";"2";"2";"3";"782";"784";"1079";"2014-10-15 15:31:52.353";"2";;;;;;;;;;;;;;;;;;;;;;;;;;;;;;;;;;;;;;;;;;;;;;;;;;;;;;;;;;;;;;;;;;;;;;;;;;;;;;;;
"tob11";"1994";;"Windows 7";"Rachel's Experiment (D.T.)";"1.0";"2";"1";"1";"2";"1";"1";"2014-10-15 15:20:58.511";"2014-10-15 15:33:31.037";"1";"0";"0";"175";"174";"module.devaluation_block1.exec-6245.deval1";"5425";"2014-10-15 15:32:03.493";"23";"4";"8";"6";"984";"796";"615";"2014-10-15 15:31:58.063";"3";;;;;;;;;;;;;;;;;;;;;;;;;;;;;;;;;;;;;;;;;;;;;;;;;;;;;;;;;;;;;;;;;;;;;;;;;;;;;;;;
"tob11";"1994";;"Windows 7";"Rachel's Experiment (D.T.)";"1.0";"2";"1";"1";"2";"1";"1";"2014-10-15 15:20:58.511";"2014-10-15 15:33:31.037";"1";"0";"0";"176";"175";"module.devaluation_block1.exec-6245.deval1";"4990";"2014-10-15 15:32:08.501";"1";"1";"6";"6";"988";"344";"626";"2014-10-15 15:32:03.508";"1";;;;;;;;;;;;;;;;;;;;;;;;;;;;;;;;;;;;;;;;;;;;;;;;;;;;;;;;;;;;;;;;;;;;;;;;;;;;;;;;
"tob11";"1994";;"Windows 7";"Rachel's Experiment (D.T.)";"1.0";"2";"1";"1";"2";"1";"1";"2014-10-15 15:20:58.511";"2014-10-15 15:33:31.037";"1";"0";"0";"177";"176";"module.devaluation_block1.exec-6245.deval1";"4845";"2014-10-15 15:32:13.353";"20";"3";"7";"7";"628";"543";"642";"2014-10-15 15:32:08.517";"3";;;;;;;;;;;;;;;;;;;;;;;;;;;;;;;;;;;;;;;;;;;;;;;;;;;;;;;;;;;;;;;;;;;;;;;;;;;;;;;;
"tob11";"1994";;"Windows 7";"Rachel's Experiment (D.T.)";"1.0";"2";"1";"1";"2";"1";"1";"2014-10-15 15:20:58.511";"2014-10-15 15:33:31.037";"1";"0";"0";"178";"177";"module.devaluation_block1.exec-6245.deval1";"5325";"2014-10-15 15:32:18.705";"12";"7";"7";"7";"1377";"427";"489";"2014-10-15 15:32:13.385";"2";;;;;;;;;;;;;;;;;;;;;;;;;;;;;;;;;;;;;;;;;;;;;;;;;;;;;;;;;;;;;;;;;;;;;;;;;;;;;;;;
"tob11";"1994";;"Windows 7";"Rachel's Experiment (D.T.)";"1.0";"2";"1";"1";"2";"1";"1";"2014-10-15 15:20:58.511";"2014-10-15 15:33:31.037";"1";"0";"0";"179";"178";"module.devaluation_block1.exec-6245.deval1";"5333";"2014-10-15 15:32:24.057";"15";"2";"7";"6";"1042";"381";"897";"2014-10-15 15:32:18.721";"2";;;;;;;;;;;;;;;;;;;;;;;;;;;;;;;;;;;;;;;;;;;;;;;;;;;;;;;;;;;;;;;;;;;;;;;;;;;;;;;;
"tob11";"1994";;"Windows 7";"Rachel's Experiment (D.T.)";"1.0";"2";"1";"1";"2";"1";"1";"2014-10-15 15:20:58.511";"2014-10-15 15:33:31.037";"1";"0";"0";"180";"179";"module.devaluation_block1.exec-6245.deval1";"4925";"2014-10-15 15:32:29.003";"10";"3";"7";"7";"955";"458";"489";"2014-10-15 15:32:24.072";"2";;;;;;;;;;;;;;;;;;;;;;;;;;;;;;;;;;;;;;;;;;;;;;;;;;;;;;;;;;;;;;;;;;;;;;;;;;;;;;;;
"tob11";"1994";;"Windows 7";"Rachel's Experiment (D.T.)";"1.0";"2";"1";"1";"2";"1";"1";"2014-10-15 15:20:58.511";"2014-10-15 15:33:31.037";"1";"0";"0";"181";"180";"module.devaluation_block1.exec-6245.deval1";"4812";"2014-10-15 15:32:33.839";"0";"4";"9";"7";"546";"743";"485";"2014-10-15 15:32:29.034";"1";;;;;;;;;;;;;;;;;;;;;;;;;;;;;;;;;;;;;;;;;;;;;;;;;;;;;;;;;;;;;;;;;;;;;;;;;;;;;;;;
"tob11";"1994";;"Windows 7";"Rachel's Experiment (D.T.)";"1.0";"2";"1";"1";"2";"1";"1";"2014-10-15 15:20:58.511";"2014-10-15 15:33:31.037";"1";"0";"0";"182";"181";"module.devaluation_block1.exec-6245.deval1";"6381";"2014-10-15 15:32:40.252";"11";"4";"2";"2";"1702";"716";"942";"2014-10-15 15:32:33.855";"2";;;;;;;;;;;;;;;;;;;;;;;;;;;;;;;;;;;;;;;;;;;;;;;;;;;;;;;;;;;;;;;;;;;;;;;;;;;;;;;;
"tob11";"1994";;"Windows 7";"Rachel's Experiment (D.T.)";"1.0";"2";"1";"1";"2";"1";"1";"2014-10-15 15:20:58.511";"2014-10-15 15:33:31.037";"1";"0";"0";"183";"182";"module.devaluation_block1.exec-6245.deval1";"7197";"2014-10-15 15:32:47.460";"19";"7";"8";"9";"2378";"896";"900";"2014-10-15 15:32:40.267";"3";;;;;;;;;;;;;;;;;;;;;;;;;;;;;;;;;;;;;;;;;;;;;;;;;;;;;;;;;;;;;;;;;;;;;;;;;;;;;;;;
"tob11";"1994";;"Windows 7";"Rachel's Experiment (D.T.)";"1.0";"2";"1";"1";"2";"1";"1";"2014-10-15 15:20:58.511";"2014-10-15 15:33:31.037";"1";"0";"0";"184";"183";"module.devaluation_block1.exec-6245.deval1";"9980";"2014-10-15 15:32:57.461";"22";"2";"8";"7";"5555";"616";"782";"2014-10-15 15:32:47.476";"3";;;;;;;;;;;;;;;;;;;;;;;;;;;;;;;;;;;;;;;;;;;;;;;;;;;;;;;;;;;;;;;;;;;;;;;;;;;;;;;;
"tob11";"1994";;"Windows 7";"Rachel's Experiment (D.T.)";"1.0";"2";"1";"1";"2";"1";"1";"2014-10-15 15:20:58.511";"2014-10-15 15:33:31.037";"1";"0";"0";"185";"184";"module.devaluation_block1.exec-6245.deval1";"4917";"2014-10-15 15:33:02.407";"7";"4";"9";"9";"507";"763";"629";"2014-10-15 15:32:57.477";"1";;;;;;;;;;;;;;;;;;;;;;;;;;;;;;;;;;;;;;;;;;;;;;;;;;;;;;;;;;;;;;;;;;;;;;;;;;;;;;;;
"tob11";"1994";;"Windows 7";"Rachel's Experiment (D.T.)";"1.0";"2";"1";"1";"2";"1";"1";"2014-10-15 15:20:58.511";"2014-10-15 15:33:31.037";"1";"0";"0";"186";"185";"module.devaluation_block1.exec-6245.deval1";"4733";"2014-10-15 15:33:07.150";"2";"4";"8";"6";"458";"663";"587";"2014-10-15 15:33:02.423";"1";;;;;;;;;;;;;;;;;;;;;;;;;;;;;;;;;;;;;;;;;;;;;;;;;;;;;;;;;;;;;;;;;;;;;;;;;;;;;;;;
"tob11";"1994";;"Windows 7";"Rachel's Experiment (D.T.)";"1.0";"2";"1";"1";"2";"1";"1";"2014-10-15 15:20:58.511";"2014-10-15 15:33:31.037";"1";"0";"0";"187";"186";"module.devaluation_block1.exec-6245.deval1";"4877";"2014-10-15 15:33:12.049";"6";"4";"8";"8";"540";"629";"686";"2014-10-15 15:33:07.166";"1";;;;;;;;;;;;;;;;;;;;;;;;;;;;;;;;;;;;;;;;;;;;;;;;;;;;;;;;;;;;;;;;;;;;;;;;;;;;;;;;
"tob11";"1994";;"Windows 7";"Rachel's Experiment (D.T.)";"1.0";"2";"1";"1";"2";"1";"1";"2014-10-15 15:20:58.511";"2014-10-15 15:33:31.037";"1";"0";"0";"188";"187";"module.devaluation_block1.exec-6245.deval1";"4925";"2014-10-15 15:33:16.995";"24";"4";"9";"9";"521";"690";"692";"2014-10-15 15:33:12.065";"3";;;;;;;;;;;;;;;;;;;;;;;;;;;;;;;;;;;;;;;;;;;;;;;;;;;;;;;;;;;;;;;;;;;;;;;;;;;;;;;;
"tob11";"1994";;"Windows 7";"Rachel's Experiment (D.T.)";"1.0";"2";"1";"1";"2";"1";"1";"2014-10-15 15:20:58.511";"2014-10-15 15:33:31.037";"1";"0";"0";"189";"188";"module.devaluation_block1.exec-6245.deval1";"5890";"2014-10-15 15:33:22.908";"25";"6";"9";"9";"1544";"682";"621";"2014-10-15 15:33:17.026";"3";;;;;;;;;;;;;;;;;;;;;;;;;;;;;;;;;;;;;;;;;;;;;;;;;;;;;;;;;;;;;;;;;;;;;;;;;;;;;;;;
"tob11";"1994";;"Windows 7";"Rachel's Experiment (D.T.)";"1.0";"2";"1";"1";"2";"1";"1";"2014-10-15 15:20:58.511";"2014-10-15 15:33:31.037";"1";"0";"0";"190";"189";"module.devaluation_block1.exec-6245.deval1";"5120";"2014-10-15 15:33:28.057";"8";"4";"9";"9";"520";"725";"842";"2014-10-15 15:33:22.940";"1";;;;;;;;;;;;;;;;;;;;;;;;;;;;;;;;;;;;;;;;;;;;;;;;;;;;;;;;;;;;;;;;;;;;;;;;;;;;;;;;
