"user.name";"user.yearOfBirth";"user.sex";"user.osName";"module.name";"module.version";"module.online.subject.code";"module.online.study.id";"module.online.module.nr";"module.online.group.nr";"session.id";"session.index";"session.startTime";"session.endTime";"session.completed";"session.node-1637.conditionType";"session.node-5800.DevalQorder";"trial.id";"trial.index";"trial.name";"trial.deval1.durationTime";"trial.deval1.endTime";"trial.deval1.icon";"trial.deval1.Resp_Attractive";"trial.deval1.Resp_Eat";"trial.deval1.Resp_Taste";"trial.deval1.RT_Attractive";"trial.deval1.RT_Eat";"trial.deval1.RT_Taste";"trial.deval1.startTime";"trial.deval1.stimulus type";"trial.devalPractice.durationTime";"trial.devalPractice.endTime";"trial.devalPractice.icon";"trial.devalPractice.Resp_Attractive";"trial.devalPractice.Resp_Eat";"trial.devalPractice.Resp_Taste";"trial.devalPractice.RT_Attractive";"trial.devalPractice.RT_Eat";"trial.devalPractice.RT_Taste";"trial.devalPractice.startTime";"trial.devalPractice.stimulus type";"trial.GoNoGo1.durationTime";"trial.GoNoGo1.endTime";"trial.GoNoGo1.Error Type";"trial.GoNoGo1.icon";"trial.GoNoGo1.location";"trial.GoNoGo1.outcome";"trial.GoNoGo1.response";"trial.GoNoGo1.result";"trial.GoNoGo1.RT";"trial.GoNoGo1.signal";"trial.GoNoGo1.startTime";"trial.GoNoGo1.stimulus type";"trial.GoNoGo2.durationTime";"trial.GoNoGo2.endTime";"trial.GoNoGo2.Error Type";"trial.GoNoGo2.icon";"trial.GoNoGo2.location";"trial.GoNoGo2.outcome";"trial.GoNoGo2.response";"trial.GoNoGo2.result";"trial.GoNoGo2.RT";"trial.GoNoGo2.signal";"trial.GoNoGo2.startTime";"trial.GoNoGo2.stimulus type";"trial.GoNoGo3.durationTime";"trial.GoNoGo3.endTime";"trial.GoNoGo3.Error Type";"trial.GoNoGo3.icon";"trial.GoNoGo3.location";"trial.GoNoGo3.outcome";"trial.GoNoGo3.response";"trial.GoNoGo3.result";"trial.GoNoGo3.RT";"trial.GoNoGo3.signal";"trial.GoNoGo3.startTime";"trial.GoNoGo3.stimulus type";"trial.GoNoGo4.durationTime";"trial.GoNoGo4.endTime";"trial.GoNoGo4.Error Type";"trial.GoNoGo4.icon";"trial.GoNoGo4.location";"trial.GoNoGo4.outcome";"trial.GoNoGo4.response";"trial.GoNoGo4.result";"trial.GoNoGo4.RT";"trial.GoNoGo4.signal";"trial.GoNoGo4.startTime";"trial.GoNoGo4.stimulus type";"trial.GoNoGo_Practice.durationTime";"trial.GoNoGo_Practice.endTime";"trial.GoNoGo_Practice.icon";"trial.GoNoGo_Practice.location";"trial.GoNoGo_Practice.outcome";"trial.GoNoGo_Practice.response";"trial.GoNoGo_Practice.result";"trial.GoNoGo_Practice.RT";"trial.GoNoGo_Practice.signal";"trial.GoNoGo_Practice.startTime";"trial.GoNoGo_Practice.stimulus type";"trial.GoNoGo_Tutorial.durationTime";"trial.GoNoGo_Tutorial.endTime";"trial.GoNoGo_Tutorial.icon";"trial.GoNoGo_Tutorial.location";"trial.GoNoGo_Tutorial.outcome";"trial.GoNoGo_Tutorial.response";"trial.GoNoGo_Tutorial.result";"trial.GoNoGo_Tutorial.RT";"trial.GoNoGo_Tutorial.signal";"trial.GoNoGo_Tutorial.startTime"
"123abc";"1995";;"Windows 7";"Rachel's Experiment (D.T.)";"1.0";"2";"1";"1";"2";"1";"1";"2014-10-13 13:12:22.529";"2014-10-13 13:23:57.355";"1";"1";"0";"1";"0";"module.GoNoGotutorial.exec-5749.GoNoGo_Tutorial";;;;;;;;;;;;;;;;;;;;;;;;;;;;;;;;;;;;;;;;;;;;;;;;;;;;;;;;;;;;;;;;;;;;;;;;;;;;;;;;;;"3999";"2014-10-13 13:13:12.215";"leftResponse";"0";"FINISHED";"LEFT";"success";"1531";"0";"2014-10-13 13:13:08.206"
"123abc";"1995";;"Windows 7";"Rachel's Experiment (D.T.)";"1.0";"2";"1";"1";"2";"1";"1";"2014-10-13 13:12:22.529";"2014-10-13 13:23:57.355";"1";"1";"0";"2";"1";"module.GoNoGotutorial.exec-5749.GoNoGo_Tutorial";;;;;;;;;;;;;;;;;;;;;;;;;;;;;;;;;;;;;;;;;;;;;;;;;;;;;;;;;;;;;;;;;;;;;;;;;;;;;;;;;;"4003";"2014-10-13 13:13:17.519";"rightResponse";"1";"FINISHED";"RIGHT";"success";"480";"0";"2014-10-13 13:13:13.510"
"123abc";"1995";;"Windows 7";"Rachel's Experiment (D.T.)";"1.0";"2";"1";"1";"2";"1";"1";"2014-10-13 13:12:22.529";"2014-10-13 13:23:57.355";"1";"1";"0";"3";"2";"module.GoNoGotutorial.exec-5749.GoNoGo_Tutorial";;;;;;;;;;;;;;;;;;;;;;;;;;;;;;;;;;;;;;;;;;;;;;;;;;;;;;;;;;;;;;;;;;;;;;;;;;;;;;;;;;"4003";"2014-10-13 13:13:22.823";"signalResponse";"0";"FINISHED";"NONE";"success";"0";"1";"2014-10-13 13:13:18.814"
"123abc";"1995";;"Windows 7";"Rachel's Experiment (D.T.)";"1.0";"2";"1";"1";"2";"1";"1";"2014-10-13 13:12:22.529";"2014-10-13 13:23:57.355";"1";"1";"0";"4";"3";"module.GoNoGopractice.exec-4120.GoNoGo_Practice";;;;;;;;;;;;;;;;;;;;;;;;;;;;;;;;;;;;;;;;;;;;;;;;;;;;;;;;;;;;;;;;;;;;;;;"1959";"2014-10-13 13:13:31.388";"18";"0";"FINISHED";"LEFT";"success";"487";"0";"2014-10-13 13:13:29.422";"3";;;;;;;;;;
"123abc";"1995";;"Windows 7";"Rachel's Experiment (D.T.)";"1.0";"2";"1";"1";"2";"1";"1";"2014-10-13 13:12:22.529";"2014-10-13 13:23:57.355";"1";"1";"0";"5";"4";"module.GoNoGopractice.exec-4120.GoNoGo_Practice";;;;;;;;;;;;;;;;;;;;;;;;;;;;;;;;;;;;;;;;;;;;;;;;;;;;;;;;;;;;;;;;;;;;;;;"1959";"2014-10-13 13:13:34.648";"21";"1";"FINISHED";"RIGHT";"success";"411";"0";"2014-10-13 13:13:32.683";"3";;;;;;;;;;
"123abc";"1995";;"Windows 7";"Rachel's Experiment (D.T.)";"1.0";"2";"1";"1";"2";"1";"1";"2014-10-13 13:12:22.529";"2014-10-13 13:23:57.355";"1";"1";"0";"6";"5";"module.GoNoGopractice.exec-4120.GoNoGo_Practice";;;;;;;;;;;;;;;;;;;;;;;;;;;;;;;;;;;;;;;;;;;;;;;;;;;;;;;;;;;;;;;;;;;;;;;"1958";"2014-10-13 13:13:37.893";"14";"1";"FINISHED";"RIGHT";"failure";"469";"1";"2014-10-13 13:13:35.928";"2";;;;;;;;;;
"123abc";"1995";;"Windows 7";"Rachel's Experiment (D.T.)";"1.0";"2";"1";"1";"2";"1";"1";"2014-10-13 13:12:22.529";"2014-10-13 13:23:57.355";"1";"1";"0";"7";"6";"module.GoNoGopractice.exec-4120.GoNoGo_Practice";;;;;;;;;;;;;;;;;;;;;;;;;;;;;;;;;;;;;;;;;;;;;;;;;;;;;;;;;;;;;;;;;;;;;;;"1959";"2014-10-13 13:13:41.138";"26";"0";"FINISHED";"LEFT";"success";"530";"0";"2014-10-13 13:13:39.172";"3";;;;;;;;;;
"123abc";"1995";;"Windows 7";"Rachel's Experiment (D.T.)";"1.0";"2";"1";"1";"2";"1";"1";"2014-10-13 13:12:22.529";"2014-10-13 13:23:57.355";"1";"1";"0";"8";"7";"module.GoNoGopractice.exec-4120.GoNoGo_Practice";;;;;;;;;;;;;;;;;;;;;;;;;;;;;;;;;;;;;;;;;;;;;;;;;;;;;;;;;;;;;;;;;;;;;;;"1959";"2014-10-13 13:13:44.383";"2";"0";"FINISHED";"LEFT";"success";"597";"0";"2014-10-13 13:13:42.417";"1";;;;;;;;;;
"123abc";"1995";;"Windows 7";"Rachel's Experiment (D.T.)";"1.0";"2";"1";"1";"2";"1";"1";"2014-10-13 13:12:22.529";"2014-10-13 13:23:57.355";"1";"1";"0";"9";"8";"module.GoNoGopractice.exec-4120.GoNoGo_Practice";;;;;;;;;;;;;;;;;;;;;;;;;;;;;;;;;;;;;;;;;;;;;;;;;;;;;;;;;;;;;;;;;;;;;;;"1960";"2014-10-13 13:13:47.628";"30";"0";"FINISHED";"LEFT";"failure";"456";"1";"2014-10-13 13:13:45.662";"3";;;;;;;;;;
"123abc";"1995";;"Windows 7";"Rachel's Experiment (D.T.)";"1.0";"2";"1";"1";"2";"1";"1";"2014-10-13 13:12:22.529";"2014-10-13 13:23:57.355";"1";"1";"0";"10";"9";"module.GoNoGopractice.exec-4120.GoNoGo_Practice";;;;;;;;;;;;;;;;;;;;;;;;;;;;;;;;;;;;;;;;;;;;;;;;;;;;;;;;;;;;;;;;;;;;;;;"1953";"2014-10-13 13:13:50.872";"6";"1";"FINISHED";"RIGHT";"failure";"461";"1";"2014-10-13 13:13:48.907";"1";;;;;;;;;;
"123abc";"1995";;"Windows 7";"Rachel's Experiment (D.T.)";"1.0";"2";"1";"1";"2";"1";"1";"2014-10-13 13:12:22.529";"2014-10-13 13:23:57.355";"1";"1";"0";"11";"10";"module.GoNoGopractice.exec-4120.GoNoGo_Practice";;;;;;;;;;;;;;;;;;;;;;;;;;;;;;;;;;;;;;;;;;;;;;;;;;;;;;;;;;;;;;;;;;;;;;;"1960";"2014-10-13 13:13:54.117";"34";"0";"FINISHED";"NONE";"failure";"0";"0";"2014-10-13 13:13:52.152";"3";;;;;;;;;;
"123abc";"1995";;"Windows 7";"Rachel's Experiment (D.T.)";"1.0";"2";"1";"1";"2";"1";"1";"2014-10-13 13:12:22.529";"2014-10-13 13:23:57.355";"1";"1";"0";"12";"11";"module.GoNoGopractice.exec-4120.GoNoGo_Practice";;;;;;;;;;;;;;;;;;;;;;;;;;;;;;;;;;;;;;;;;;;;;;;;;;;;;;;;;;;;;;;;;;;;;;;"1959";"2014-10-13 13:13:57.362";"23";"1";"FINISHED";"RIGHT";"success";"1161";"0";"2014-10-13 13:13:55.396";"3";;;;;;;;;;
"123abc";"1995";;"Windows 7";"Rachel's Experiment (D.T.)";"1.0";"2";"1";"1";"2";"1";"1";"2014-10-13 13:12:22.529";"2014-10-13 13:23:57.355";"1";"1";"0";"13";"12";"module.GoNoGopractice.exec-4120.GoNoGo_Practice";;;;;;;;;;;;;;;;;;;;;;;;;;;;;;;;;;;;;;;;;;;;;;;;;;;;;;;;;;;;;;;;;;;;;;;"1959";"2014-10-13 13:14:00.607";"13";"0";"FINISHED";"NONE";"success";"0";"1";"2014-10-13 13:13:58.641";"2";;;;;;;;;;
"123abc";"1995";;"Windows 7";"Rachel's Experiment (D.T.)";"1.0";"2";"1";"1";"2";"1";"1";"2014-10-13 13:12:22.529";"2014-10-13 13:23:57.355";"1";"1";"0";"14";"13";"module.GoNoGopractice.exec-4120.GoNoGo_Practice";;;;;;;;;;;;;;;;;;;;;;;;;;;;;;;;;;;;;;;;;;;;;;;;;;;;;;;;;;;;;;;;;;;;;;;"1960";"2014-10-13 13:14:03.852";"3";"1";"FINISHED";"RIGHT";"success";"473";"0";"2014-10-13 13:14:01.886";"1";;;;;;;;;;
"123abc";"1995";;"Windows 7";"Rachel's Experiment (D.T.)";"1.0";"2";"1";"1";"2";"1";"1";"2014-10-13 13:12:22.529";"2014-10-13 13:23:57.355";"1";"1";"0";"15";"14";"module.GoNoGopractice.exec-4120.GoNoGo_Practice";;;;;;;;;;;;;;;;;;;;;;;;;;;;;;;;;;;;;;;;;;;;;;;;;;;;;;;;;;;;;;;;;;;;;;;"1959";"2014-10-13 13:14:07.096";"27";"1";"FINISHED";"NONE";"success";"0";"1";"2014-10-13 13:14:05.131";"3";;;;;;;;;;
"123abc";"1995";;"Windows 7";"Rachel's Experiment (D.T.)";"1.0";"2";"1";"1";"2";"1";"1";"2014-10-13 13:12:22.529";"2014-10-13 13:23:57.355";"1";"1";"0";"16";"15";"module.training_block1.exec-4017.GoNoGo1";;;;;;;;;;;;;;;;;;;;;;;"1257";"2014-10-13 13:14:15.380";"ST_failedStop";"5";"0";"FINISHED";"LEFT";"failure";"408";"1";"2014-10-13 13:14:14.116";"1";;;;;;;;;;;;;;;;;;;;;;;;;;;;;;;;;;;;;;;;;;;;;;;;;;;;;;;;;
"123abc";"1995";;"Windows 7";"Rachel's Experiment (D.T.)";"1.0";"2";"1";"1";"2";"1";"1";"2014-10-13 13:12:22.529";"2014-10-13 13:23:57.355";"1";"1";"0";"17";"16";"module.training_block1.exec-4017.GoNoGo1";;;;;;;;;;;;;;;;;;;;;;;"1261";"2014-10-13 13:14:17.923";"NST_correctLoc";"14";"0";"FINISHED";"LEFT";"success";"791";"0";"2014-10-13 13:14:16.659";"2";;;;;;;;;;;;;;;;;;;;;;;;;;;;;;;;;;;;;;;;;;;;;;;;;;;;;;;;;
"123abc";"1995";;"Windows 7";"Rachel's Experiment (D.T.)";"1.0";"2";"1";"1";"2";"1";"1";"2014-10-13 13:12:22.529";"2014-10-13 13:23:57.355";"1";"1";"0";"18";"17";"module.training_block1.exec-4017.GoNoGo1";;;;;;;;;;;;;;;;;;;;;;;"1257";"2014-10-13 13:14:20.466";"NST_correctLoc";"10";"1";"FINISHED";"RIGHT";"success";"499";"0";"2014-10-13 13:14:19.202";"2";;;;;;;;;;;;;;;;;;;;;;;;;;;;;;;;;;;;;;;;;;;;;;;;;;;;;;;;;
"123abc";"1995";;"Windows 7";"Rachel's Experiment (D.T.)";"1.0";"2";"1";"1";"2";"1";"1";"2014-10-13 13:12:22.529";"2014-10-13 13:23:57.355";"1";"1";"0";"19";"18";"module.training_block1.exec-4017.GoNoGo1";;;;;;;;;;;;;;;;;;;;;;;"1258";"2014-10-13 13:14:23.008";"ST_failedStop";"8";"1";"FINISHED";"RIGHT";"failure";"365";"1";"2014-10-13 13:14:21.745";"1";;;;;;;;;;;;;;;;;;;;;;;;;;;;;;;;;;;;;;;;;;;;;;;;;;;;;;;;;
"123abc";"1995";;"Windows 7";"Rachel's Experiment (D.T.)";"1.0";"2";"1";"1";"2";"1";"1";"2014-10-13 13:12:22.529";"2014-10-13 13:23:57.355";"1";"1";"0";"20";"19";"module.training_block1.exec-4017.GoNoGo1";;;;;;;;;;;;;;;;;;;;;;;"1261";"2014-10-13 13:14:25.551";"ST_failedStop";"2";"1";"FINISHED";"RIGHT";"failure";"314";"1";"2014-10-13 13:14:24.288";"1";;;;;;;;;;;;;;;;;;;;;;;;;;;;;;;;;;;;;;;;;;;;;;;;;;;;;;;;;
"123abc";"1995";;"Windows 7";"Rachel's Experiment (D.T.)";"1.0";"2";"1";"1";"2";"1";"1";"2014-10-13 13:12:22.529";"2014-10-13 13:23:57.355";"1";"1";"0";"21";"20";"module.training_block1.exec-4017.GoNoGo1";;;;;;;;;;;;;;;;;;;;;;;"1261";"2014-10-13 13:14:28.094";"NST_correctLoc";"13";"0";"FINISHED";"LEFT";"success";"707";"0";"2014-10-13 13:14:26.830";"2";;;;;;;;;;;;;;;;;;;;;;;;;;;;;;;;;;;;;;;;;;;;;;;;;;;;;;;;;
"123abc";"1995";;"Windows 7";"Rachel's Experiment (D.T.)";"1.0";"2";"1";"1";"2";"1";"1";"2014-10-13 13:12:22.529";"2014-10-13 13:23:57.355";"1";"1";"0";"22";"21";"module.training_block1.exec-4017.GoNoGo1";;;;;;;;;;;;;;;;;;;;;;;"1257";"2014-10-13 13:14:30.637";"NST_correctLoc";"25";"1";"FINISHED";"RIGHT";"success";"449";"0";"2014-10-13 13:14:29.373";"3";;;;;;;;;;;;;;;;;;;;;;;;;;;;;;;;;;;;;;;;;;;;;;;;;;;;;;;;;
"123abc";"1995";;"Windows 7";"Rachel's Experiment (D.T.)";"1.0";"2";"1";"1";"2";"1";"1";"2014-10-13 13:12:22.529";"2014-10-13 13:23:57.355";"1";"1";"0";"23";"22";"module.training_block1.exec-4017.GoNoGo1";;;;;;;;;;;;;;;;;;;;;;;"1261";"2014-10-13 13:14:33.180";"NST_correctLoc";"26";"1";"FINISHED";"RIGHT";"success";"366";"0";"2014-10-13 13:14:31.916";"3";;;;;;;;;;;;;;;;;;;;;;;;;;;;;;;;;;;;;;;;;;;;;;;;;;;;;;;;;
"123abc";"1995";;"Windows 7";"Rachel's Experiment (D.T.)";"1.0";"2";"1";"1";"2";"1";"1";"2014-10-13 13:12:22.529";"2014-10-13 13:23:57.355";"1";"1";"0";"24";"23";"module.training_block1.exec-4017.GoNoGo1";;;;;;;;;;;;;;;;;;;;;;;"1250";"2014-10-13 13:14:35.816";"ST_failedStop";"24";"1";"FINISHED";"RIGHT";"failure";"414";"1";"2014-10-13 13:14:34.552";"3";;;;;;;;;;;;;;;;;;;;;;;;;;;;;;;;;;;;;;;;;;;;;;;;;;;;;;;;;
"123abc";"1995";;"Windows 7";"Rachel's Experiment (D.T.)";"1.0";"2";"1";"1";"2";"1";"1";"2014-10-13 13:12:22.529";"2014-10-13 13:23:57.355";"1";"1";"0";"25";"24";"module.training_block1.exec-4017.GoNoGo1";;;;;;;;;;;;;;;;;;;;;;;"1257";"2014-10-13 13:14:38.359";"ST_correctStop";"0";"0";"FINISHED";"NONE";"success";"0";"1";"2014-10-13 13:14:37.095";"1";;;;;;;;;;;;;;;;;;;;;;;;;;;;;;;;;;;;;;;;;;;;;;;;;;;;;;;;;
"123abc";"1995";;"Windows 7";"Rachel's Experiment (D.T.)";"1.0";"2";"1";"1";"2";"1";"1";"2014-10-13 13:12:22.529";"2014-10-13 13:23:57.355";"1";"1";"0";"26";"25";"module.training_block1.exec-4017.GoNoGo1";;;;;;;;;;;;;;;;;;;;;;;"1257";"2014-10-13 13:14:40.902";"ST_correctStop";"29";"0";"FINISHED";"NONE";"success";"0";"1";"2014-10-13 13:14:39.638";"3";;;;;;;;;;;;;;;;;;;;;;;;;;;;;;;;;;;;;;;;;;;;;;;;;;;;;;;;;
"123abc";"1995";;"Windows 7";"Rachel's Experiment (D.T.)";"1.0";"2";"1";"1";"2";"1";"1";"2014-10-13 13:12:22.529";"2014-10-13 13:23:57.355";"1";"1";"0";"27";"26";"module.training_block1.exec-4017.GoNoGo1";;;;;;;;;;;;;;;;;;;;;;;"1257";"2014-10-13 13:14:43.444";"NST_correctLoc";"22";"0";"FINISHED";"LEFT";"success";"457";"0";"2014-10-13 13:14:42.181";"3";;;;;;;;;;;;;;;;;;;;;;;;;;;;;;;;;;;;;;;;;;;;;;;;;;;;;;;;;
"123abc";"1995";;"Windows 7";"Rachel's Experiment (D.T.)";"1.0";"2";"1";"1";"2";"1";"1";"2014-10-13 13:12:22.529";"2014-10-13 13:23:57.355";"1";"1";"0";"28";"27";"module.training_block1.exec-4017.GoNoGo1";;;;;;;;;;;;;;;;;;;;;;;"1257";"2014-10-13 13:14:45.987";"ST_correctStop";"21";"1";"FINISHED";"NONE";"success";"0";"1";"2014-10-13 13:14:44.724";"3";;;;;;;;;;;;;;;;;;;;;;;;;;;;;;;;;;;;;;;;;;;;;;;;;;;;;;;;;
"123abc";"1995";;"Windows 7";"Rachel's Experiment (D.T.)";"1.0";"2";"1";"1";"2";"1";"1";"2014-10-13 13:12:22.529";"2014-10-13 13:23:57.355";"1";"1";"0";"29";"28";"module.training_block1.exec-4017.GoNoGo1";;;;;;;;;;;;;;;;;;;;;;;"1257";"2014-10-13 13:14:48.530";"NST_correctLoc";"15";"0";"FINISHED";"LEFT";"success";"419";"0";"2014-10-13 13:14:47.266";"2";;;;;;;;;;;;;;;;;;;;;;;;;;;;;;;;;;;;;;;;;;;;;;;;;;;;;;;;;
"123abc";"1995";;"Windows 7";"Rachel's Experiment (D.T.)";"1.0";"2";"1";"1";"2";"1";"1";"2014-10-13 13:12:22.529";"2014-10-13 13:23:57.355";"1";"1";"0";"30";"29";"module.training_block1.exec-4017.GoNoGo1";;;;;;;;;;;;;;;;;;;;;;;"1258";"2014-10-13 13:14:51.073";"ST_correctStop";"19";"0";"FINISHED";"NONE";"success";"0";"1";"2014-10-13 13:14:49.809";"3";;;;;;;;;;;;;;;;;;;;;;;;;;;;;;;;;;;;;;;;;;;;;;;;;;;;;;;;;
"123abc";"1995";;"Windows 7";"Rachel's Experiment (D.T.)";"1.0";"2";"1";"1";"2";"1";"1";"2014-10-13 13:12:22.529";"2014-10-13 13:23:57.355";"1";"1";"0";"31";"30";"module.training_block1.exec-4017.GoNoGo1";;;;;;;;;;;;;;;;;;;;;;;"1257";"2014-10-13 13:14:53.616";"NST_correctLoc";"30";"0";"FINISHED";"LEFT";"success";"477";"0";"2014-10-13 13:14:52.352";"3";;;;;;;;;;;;;;;;;;;;;;;;;;;;;;;;;;;;;;;;;;;;;;;;;;;;;;;;;
"123abc";"1995";;"Windows 7";"Rachel's Experiment (D.T.)";"1.0";"2";"1";"1";"2";"1";"1";"2014-10-13 13:12:22.529";"2014-10-13 13:23:57.355";"1";"1";"0";"32";"31";"module.training_block1.exec-4017.GoNoGo1";;;;;;;;;;;;;;;;;;;;;;;"1257";"2014-10-13 13:14:56.158";"NST_correctLoc";"11";"1";"FINISHED";"RIGHT";"success";"543";"0";"2014-10-13 13:14:54.895";"2";;;;;;;;;;;;;;;;;;;;;;;;;;;;;;;;;;;;;;;;;;;;;;;;;;;;;;;;;
"123abc";"1995";;"Windows 7";"Rachel's Experiment (D.T.)";"1.0";"2";"1";"1";"2";"1";"1";"2014-10-13 13:12:22.529";"2014-10-13 13:23:57.355";"1";"1";"0";"33";"32";"module.training_block1.exec-4017.GoNoGo1";;;;;;;;;;;;;;;;;;;;;;;"1257";"2014-10-13 13:14:58.701";"NST_correctLoc";"23";"0";"FINISHED";"LEFT";"success";"488";"0";"2014-10-13 13:14:57.438";"3";;;;;;;;;;;;;;;;;;;;;;;;;;;;;;;;;;;;;;;;;;;;;;;;;;;;;;;;;
"123abc";"1995";;"Windows 7";"Rachel's Experiment (D.T.)";"1.0";"2";"1";"1";"2";"1";"1";"2014-10-13 13:12:22.529";"2014-10-13 13:23:57.355";"1";"1";"0";"34";"33";"module.training_block1.exec-4017.GoNoGo1";;;;;;;;;;;;;;;;;;;;;;;"1257";"2014-10-13 13:15:01.244";"ST_failedStop";"4";"0";"FINISHED";"LEFT";"failure";"377";"1";"2014-10-13 13:14:59.980";"1";;;;;;;;;;;;;;;;;;;;;;;;;;;;;;;;;;;;;;;;;;;;;;;;;;;;;;;;;
"123abc";"1995";;"Windows 7";"Rachel's Experiment (D.T.)";"1.0";"2";"1";"1";"2";"1";"1";"2014-10-13 13:12:22.529";"2014-10-13 13:23:57.355";"1";"1";"0";"35";"34";"module.training_block1.exec-4017.GoNoGo1";;;;;;;;;;;;;;;;;;;;;;;"1257";"2014-10-13 13:15:03.787";"ST_correctStop";"32";"1";"FINISHED";"NONE";"success";"0";"1";"2014-10-13 13:15:02.523";"3";;;;;;;;;;;;;;;;;;;;;;;;;;;;;;;;;;;;;;;;;;;;;;;;;;;;;;;;;
"123abc";"1995";;"Windows 7";"Rachel's Experiment (D.T.)";"1.0";"2";"1";"1";"2";"1";"1";"2014-10-13 13:12:22.529";"2014-10-13 13:23:57.355";"1";"1";"0";"36";"35";"module.training_block1.exec-4017.GoNoGo1";;;;;;;;;;;;;;;;;;;;;;;"1257";"2014-10-13 13:15:06.330";"ST_correctStop";"31";"1";"FINISHED";"NONE";"success";"0";"1";"2014-10-13 13:15:05.066";"3";;;;;;;;;;;;;;;;;;;;;;;;;;;;;;;;;;;;;;;;;;;;;;;;;;;;;;;;;
"123abc";"1995";;"Windows 7";"Rachel's Experiment (D.T.)";"1.0";"2";"1";"1";"2";"1";"1";"2014-10-13 13:12:22.529";"2014-10-13 13:23:57.355";"1";"1";"0";"37";"36";"module.training_block1.exec-4017.GoNoGo1";;;;;;;;;;;;;;;;;;;;;;;"1258";"2014-10-13 13:15:08.872";"NST_correctLoc";"34";"1";"FINISHED";"RIGHT";"success";"565";"0";"2014-10-13 13:15:07.609";"3";;;;;;;;;;;;;;;;;;;;;;;;;;;;;;;;;;;;;;;;;;;;;;;;;;;;;;;;;
"123abc";"1995";;"Windows 7";"Rachel's Experiment (D.T.)";"1.0";"2";"1";"1";"2";"1";"1";"2014-10-13 13:12:22.529";"2014-10-13 13:23:57.355";"1";"1";"0";"38";"37";"module.training_block1.exec-4017.GoNoGo1";;;;;;;;;;;;;;;;;;;;;;;"1256";"2014-10-13 13:15:11.415";"NST_correctLoc";"17";"0";"FINISHED";"LEFT";"success";"381";"0";"2014-10-13 13:15:10.152";"2";;;;;;;;;;;;;;;;;;;;;;;;;;;;;;;;;;;;;;;;;;;;;;;;;;;;;;;;;
"123abc";"1995";;"Windows 7";"Rachel's Experiment (D.T.)";"1.0";"2";"1";"1";"2";"1";"1";"2014-10-13 13:12:22.529";"2014-10-13 13:23:57.355";"1";"1";"0";"39";"38";"module.training_block1.exec-4017.GoNoGo1";;;;;;;;;;;;;;;;;;;;;;;"1258";"2014-10-13 13:15:13.958";"NST_correctLoc";"12";"0";"FINISHED";"LEFT";"success";"439";"0";"2014-10-13 13:15:12.694";"2";;;;;;;;;;;;;;;;;;;;;;;;;;;;;;;;;;;;;;;;;;;;;;;;;;;;;;;;;
"123abc";"1995";;"Windows 7";"Rachel's Experiment (D.T.)";"1.0";"2";"1";"1";"2";"1";"1";"2014-10-13 13:12:22.529";"2014-10-13 13:23:57.355";"1";"1";"0";"40";"39";"module.training_block1.exec-4017.GoNoGo1";;;;;;;;;;;;;;;;;;;;;;;"1257";"2014-10-13 13:15:16.501";"ST_correctStop";"7";"1";"FINISHED";"NONE";"success";"0";"1";"2014-10-13 13:15:15.237";"1";;;;;;;;;;;;;;;;;;;;;;;;;;;;;;;;;;;;;;;;;;;;;;;;;;;;;;;;;
"123abc";"1995";;"Windows 7";"Rachel's Experiment (D.T.)";"1.0";"2";"1";"1";"2";"1";"1";"2014-10-13 13:12:22.529";"2014-10-13 13:23:57.355";"1";"1";"0";"41";"40";"module.training_block1.exec-4017.GoNoGo1";;;;;;;;;;;;;;;;;;;;;;;"1258";"2014-10-13 13:15:19.044";"NST_correctLoc";"35";"1";"FINISHED";"RIGHT";"success";"362";"0";"2014-10-13 13:15:17.780";"3";;;;;;;;;;;;;;;;;;;;;;;;;;;;;;;;;;;;;;;;;;;;;;;;;;;;;;;;;
"123abc";"1995";;"Windows 7";"Rachel's Experiment (D.T.)";"1.0";"2";"1";"1";"2";"1";"1";"2014-10-13 13:12:22.529";"2014-10-13 13:23:57.355";"1";"1";"0";"42";"41";"module.training_block1.exec-4017.GoNoGo1";;;;;;;;;;;;;;;;;;;;;;;"1252";"2014-10-13 13:15:21.587";"ST_correctStop";"6";"0";"FINISHED";"NONE";"success";"0";"1";"2014-10-13 13:15:20.323";"1";;;;;;;;;;;;;;;;;;;;;;;;;;;;;;;;;;;;;;;;;;;;;;;;;;;;;;;;;
"123abc";"1995";;"Windows 7";"Rachel's Experiment (D.T.)";"1.0";"2";"1";"1";"2";"1";"1";"2014-10-13 13:12:22.529";"2014-10-13 13:23:57.355";"1";"1";"0";"43";"42";"module.training_block1.exec-4017.GoNoGo1";;;;;;;;;;;;;;;;;;;;;;;"1258";"2014-10-13 13:15:24.129";"ST_correctStop";"28";"1";"FINISHED";"NONE";"success";"0";"1";"2014-10-13 13:15:22.866";"3";;;;;;;;;;;;;;;;;;;;;;;;;;;;;;;;;;;;;;;;;;;;;;;;;;;;;;;;;
"123abc";"1995";;"Windows 7";"Rachel's Experiment (D.T.)";"1.0";"2";"1";"1";"2";"1";"1";"2014-10-13 13:12:22.529";"2014-10-13 13:23:57.355";"1";"1";"0";"44";"43";"module.training_block1.exec-4017.GoNoGo1";;;;;;;;;;;;;;;;;;;;;;;"1258";"2014-10-13 13:15:26.672";"ST_correctStop";"3";"1";"FINISHED";"NONE";"success";"0";"1";"2014-10-13 13:15:25.409";"1";;;;;;;;;;;;;;;;;;;;;;;;;;;;;;;;;;;;;;;;;;;;;;;;;;;;;;;;;
"123abc";"1995";;"Windows 7";"Rachel's Experiment (D.T.)";"1.0";"2";"1";"1";"2";"1";"1";"2014-10-13 13:12:22.529";"2014-10-13 13:23:57.355";"1";"1";"0";"45";"44";"module.training_block1.exec-4017.GoNoGo1";;;;;;;;;;;;;;;;;;;;;;;"1257";"2014-10-13 13:15:29.215";"ST_correctStop";"20";"1";"FINISHED";"NONE";"success";"0";"1";"2014-10-13 13:15:27.951";"3";;;;;;;;;;;;;;;;;;;;;;;;;;;;;;;;;;;;;;;;;;;;;;;;;;;;;;;;;
"123abc";"1995";;"Windows 7";"Rachel's Experiment (D.T.)";"1.0";"2";"1";"1";"2";"1";"1";"2014-10-13 13:12:22.529";"2014-10-13 13:23:57.355";"1";"1";"0";"46";"45";"module.training_block1.exec-4017.GoNoGo1";;;;;;;;;;;;;;;;;;;;;;;"1258";"2014-10-13 13:15:31.758";"NST_correctLoc";"18";"1";"FINISHED";"RIGHT";"success";"432";"0";"2014-10-13 13:15:30.494";"3";;;;;;;;;;;;;;;;;;;;;;;;;;;;;;;;;;;;;;;;;;;;;;;;;;;;;;;;;
"123abc";"1995";;"Windows 7";"Rachel's Experiment (D.T.)";"1.0";"2";"1";"1";"2";"1";"1";"2014-10-13 13:12:22.529";"2014-10-13 13:23:57.355";"1";"1";"0";"47";"46";"module.training_block1.exec-4017.GoNoGo1";;;;;;;;;;;;;;;;;;;;;;;"1258";"2014-10-13 13:15:34.301";"NST_correctLoc";"33";"0";"FINISHED";"LEFT";"success";"433";"0";"2014-10-13 13:15:33.037";"3";;;;;;;;;;;;;;;;;;;;;;;;;;;;;;;;;;;;;;;;;;;;;;;;;;;;;;;;;
"123abc";"1995";;"Windows 7";"Rachel's Experiment (D.T.)";"1.0";"2";"1";"1";"2";"1";"1";"2014-10-13 13:12:22.529";"2014-10-13 13:23:57.355";"1";"1";"0";"48";"47";"module.training_block1.exec-4017.GoNoGo1";;;;;;;;;;;;;;;;;;;;;;;"1257";"2014-10-13 13:15:36.843";"NST_correctLoc";"16";"1";"FINISHED";"RIGHT";"success";"362";"0";"2014-10-13 13:15:35.580";"2";;;;;;;;;;;;;;;;;;;;;;;;;;;;;;;;;;;;;;;;;;;;;;;;;;;;;;;;;
"123abc";"1995";;"Windows 7";"Rachel's Experiment (D.T.)";"1.0";"2";"1";"1";"2";"1";"1";"2014-10-13 13:12:22.529";"2014-10-13 13:23:57.355";"1";"1";"0";"49";"48";"module.training_block1.exec-4017.GoNoGo1";;;;;;;;;;;;;;;;;;;;;;;"1258";"2014-10-13 13:15:39.386";"ST_correctStop";"1";"0";"FINISHED";"NONE";"success";"0";"1";"2014-10-13 13:15:38.123";"1";;;;;;;;;;;;;;;;;;;;;;;;;;;;;;;;;;;;;;;;;;;;;;;;;;;;;;;;;
"123abc";"1995";;"Windows 7";"Rachel's Experiment (D.T.)";"1.0";"2";"1";"1";"2";"1";"1";"2014-10-13 13:12:22.529";"2014-10-13 13:23:57.355";"1";"1";"0";"50";"49";"module.training_block1.exec-4017.GoNoGo1";;;;;;;;;;;;;;;;;;;;;;;"1256";"2014-10-13 13:15:41.929";"ST_correctStop";"27";"1";"FINISHED";"NONE";"success";"0";"1";"2014-10-13 13:15:40.665";"3";;;;;;;;;;;;;;;;;;;;;;;;;;;;;;;;;;;;;;;;;;;;;;;;;;;;;;;;;
"123abc";"1995";;"Windows 7";"Rachel's Experiment (D.T.)";"1.0";"2";"1";"1";"2";"1";"1";"2014-10-13 13:12:22.529";"2014-10-13 13:23:57.355";"1";"1";"0";"51";"50";"module.training_block1.exec-4017.GoNoGo1";;;;;;;;;;;;;;;;;;;;;;;"1257";"2014-10-13 13:15:44.472";"NST_correctLoc";"9";"1";"FINISHED";"RIGHT";"success";"389";"0";"2014-10-13 13:15:43.208";"2";;;;;;;;;;;;;;;;;;;;;;;;;;;;;;;;;;;;;;;;;;;;;;;;;;;;;;;;;
"123abc";"1995";;"Windows 7";"Rachel's Experiment (D.T.)";"1.0";"2";"1";"1";"2";"1";"1";"2014-10-13 13:12:22.529";"2014-10-13 13:23:57.355";"1";"1";"0";"52";"51";"module.training_block2.exec-2490.GoNoGo2";;;;;;;;;;;;;;;;;;;;;;;;;;;;;;;;;;;"1261";"2014-10-13 13:15:57.264";"NST_correctLoc";"11";"0";"FINISHED";"LEFT";"success";"409";"0";"2014-10-13 13:15:56.000";"2";;;;;;;;;;;;;;;;;;;;;;;;;;;;;;;;;;;;;;;;;;;;;
"123abc";"1995";;"Windows 7";"Rachel's Experiment (D.T.)";"1.0";"2";"1";"1";"2";"1";"1";"2014-10-13 13:12:22.529";"2014-10-13 13:23:57.355";"1";"1";"0";"53";"52";"module.training_block2.exec-2490.GoNoGo2";;;;;;;;;;;;;;;;;;;;;;;;;;;;;;;;;;;"1257";"2014-10-13 13:15:59.807";"NST_correctLoc";"13";"1";"FINISHED";"RIGHT";"success";"413";"0";"2014-10-13 13:15:58.543";"2";;;;;;;;;;;;;;;;;;;;;;;;;;;;;;;;;;;;;;;;;;;;;
"123abc";"1995";;"Windows 7";"Rachel's Experiment (D.T.)";"1.0";"2";"1";"1";"2";"1";"1";"2014-10-13 13:12:22.529";"2014-10-13 13:23:57.355";"1";"1";"0";"54";"53";"module.training_block2.exec-2490.GoNoGo2";;;;;;;;;;;;;;;;;;;;;;;;;;;;;;;;;;;"1261";"2014-10-13 13:16:02.349";"NST_correctLoc";"16";"1";"FINISHED";"RIGHT";"success";"371";"0";"2014-10-13 13:16:01.086";"2";;;;;;;;;;;;;;;;;;;;;;;;;;;;;;;;;;;;;;;;;;;;;
"123abc";"1995";;"Windows 7";"Rachel's Experiment (D.T.)";"1.0";"2";"1";"1";"2";"1";"1";"2014-10-13 13:12:22.529";"2014-10-13 13:23:57.355";"1";"1";"0";"55";"54";"module.training_block2.exec-2490.GoNoGo2";;;;;;;;;;;;;;;;;;;;;;;;;;;;;;;;;;;"1257";"2014-10-13 13:16:04.892";"ST_correctStop";"8";"1";"FINISHED";"NONE";"success";"0";"1";"2014-10-13 13:16:03.629";"1";;;;;;;;;;;;;;;;;;;;;;;;;;;;;;;;;;;;;;;;;;;;;
"123abc";"1995";;"Windows 7";"Rachel's Experiment (D.T.)";"1.0";"2";"1";"1";"2";"1";"1";"2014-10-13 13:12:22.529";"2014-10-13 13:23:57.355";"1";"1";"0";"56";"55";"module.training_block2.exec-2490.GoNoGo2";;;;;;;;;;;;;;;;;;;;;;;;;;;;;;;;;;;"1257";"2014-10-13 13:16:07.435";"ST_failedStop";"2";"0";"FINISHED";"LEFT";"failure";"369";"1";"2014-10-13 13:16:06.171";"1";;;;;;;;;;;;;;;;;;;;;;;;;;;;;;;;;;;;;;;;;;;;;
"123abc";"1995";;"Windows 7";"Rachel's Experiment (D.T.)";"1.0";"2";"1";"1";"2";"1";"1";"2014-10-13 13:12:22.529";"2014-10-13 13:23:57.355";"1";"1";"0";"57";"56";"module.training_block2.exec-2490.GoNoGo2";;;;;;;;;;;;;;;;;;;;;;;;;;;;;;;;;;;"1261";"2014-10-13 13:16:09.978";"ST_correctStop";"6";"0";"FINISHED";"NONE";"success";"0";"1";"2014-10-13 13:16:08.714";"1";;;;;;;;;;;;;;;;;;;;;;;;;;;;;;;;;;;;;;;;;;;;;
"123abc";"1995";;"Windows 7";"Rachel's Experiment (D.T.)";"1.0";"2";"1";"1";"2";"1";"1";"2014-10-13 13:12:22.529";"2014-10-13 13:23:57.355";"1";"1";"0";"58";"57";"module.training_block2.exec-2490.GoNoGo2";;;;;;;;;;;;;;;;;;;;;;;;;;;;;;;;;;;"1261";"2014-10-13 13:16:12.521";"ST_correctStop";"4";"1";"FINISHED";"NONE";"success";"0";"1";"2014-10-13 13:16:11.257";"1";;;;;;;;;;;;;;;;;;;;;;;;;;;;;;;;;;;;;;;;;;;;;
"123abc";"1995";;"Windows 7";"Rachel's Experiment (D.T.)";"1.0";"2";"1";"1";"2";"1";"1";"2014-10-13 13:12:22.529";"2014-10-13 13:23:57.355";"1";"1";"0";"59";"58";"module.training_block2.exec-2490.GoNoGo2";;;;;;;;;;;;;;;;;;;;;;;;;;;;;;;;;;;"1261";"2014-10-13 13:16:15.063";"NST_correctLoc";"32";"0";"FINISHED";"LEFT";"success";"441";"0";"2014-10-13 13:16:13.800";"3";;;;;;;;;;;;;;;;;;;;;;;;;;;;;;;;;;;;;;;;;;;;;
"123abc";"1995";;"Windows 7";"Rachel's Experiment (D.T.)";"1.0";"2";"1";"1";"2";"1";"1";"2014-10-13 13:12:22.529";"2014-10-13 13:23:57.355";"1";"1";"0";"60";"59";"module.training_block2.exec-2490.GoNoGo2";;;;;;;;;;;;;;;;;;;;;;;;;;;;;;;;;;;"1261";"2014-10-13 13:16:17.606";"NST_correctLoc";"31";"0";"FINISHED";"LEFT";"success";"450";"0";"2014-10-13 13:16:16.343";"3";;;;;;;;;;;;;;;;;;;;;;;;;;;;;;;;;;;;;;;;;;;;;
"123abc";"1995";;"Windows 7";"Rachel's Experiment (D.T.)";"1.0";"2";"1";"1";"2";"1";"1";"2014-10-13 13:12:22.529";"2014-10-13 13:23:57.355";"1";"1";"0";"61";"60";"module.training_block2.exec-2490.GoNoGo2";;;;;;;;;;;;;;;;;;;;;;;;;;;;;;;;;;;"1261";"2014-10-13 13:16:20.149";"ST_correctStop";"0";"1";"FINISHED";"NONE";"success";"0";"1";"2014-10-13 13:16:18.885";"1";;;;;;;;;;;;;;;;;;;;;;;;;;;;;;;;;;;;;;;;;;;;;
"123abc";"1995";;"Windows 7";"Rachel's Experiment (D.T.)";"1.0";"2";"1";"1";"2";"1";"1";"2014-10-13 13:12:22.529";"2014-10-13 13:23:57.355";"1";"1";"0";"62";"61";"module.training_block2.exec-2490.GoNoGo2";;;;;;;;;;;;;;;;;;;;;;;;;;;;;;;;;;;"1256";"2014-10-13 13:16:22.692";"NST_correctLoc";"26";"0";"FINISHED";"LEFT";"success";"407";"0";"2014-10-13 13:16:21.428";"3";;;;;;;;;;;;;;;;;;;;;;;;;;;;;;;;;;;;;;;;;;;;;
"123abc";"1995";;"Windows 7";"Rachel's Experiment (D.T.)";"1.0";"2";"1";"1";"2";"1";"1";"2014-10-13 13:12:22.529";"2014-10-13 13:23:57.355";"1";"1";"0";"63";"62";"module.training_block2.exec-2490.GoNoGo2";;;;;;;;;;;;;;;;;;;;;;;;;;;;;;;;;;;"1261";"2014-10-13 13:16:25.235";"NST_correctLoc";"33";"1";"FINISHED";"RIGHT";"success";"406";"0";"2014-10-13 13:16:23.971";"3";;;;;;;;;;;;;;;;;;;;;;;;;;;;;;;;;;;;;;;;;;;;;
"123abc";"1995";;"Windows 7";"Rachel's Experiment (D.T.)";"1.0";"2";"1";"1";"2";"1";"1";"2014-10-13 13:12:22.529";"2014-10-13 13:23:57.355";"1";"1";"0";"64";"63";"module.training_block2.exec-2490.GoNoGo2";;;;;;;;;;;;;;;;;;;;;;;;;;;;;;;;;;;"1261";"2014-10-13 13:16:27.777";"ST_failedStop";"24";"0";"FINISHED";"LEFT";"failure";"383";"1";"2014-10-13 13:16:26.514";"3";;;;;;;;;;;;;;;;;;;;;;;;;;;;;;;;;;;;;;;;;;;;;
"123abc";"1995";;"Windows 7";"Rachel's Experiment (D.T.)";"1.0";"2";"1";"1";"2";"1";"1";"2014-10-13 13:12:22.529";"2014-10-13 13:23:57.355";"1";"1";"0";"65";"64";"module.training_block2.exec-2490.GoNoGo2";;;;;;;;;;;;;;;;;;;;;;;;;;;;;;;;;;;"1261";"2014-10-13 13:16:30.320";"ST_correctStop";"35";"1";"FINISHED";"NONE";"success";"0";"1";"2014-10-13 13:16:29.057";"3";;;;;;;;;;;;;;;;;;;;;;;;;;;;;;;;;;;;;;;;;;;;;
"123abc";"1995";;"Windows 7";"Rachel's Experiment (D.T.)";"1.0";"2";"1";"1";"2";"1";"1";"2014-10-13 13:12:22.529";"2014-10-13 13:23:57.355";"1";"1";"0";"66";"65";"module.training_block2.exec-2490.GoNoGo2";;;;;;;;;;;;;;;;;;;;;;;;;;;;;;;;;;;"1261";"2014-10-13 13:16:32.863";"ST_correctStop";"3";"1";"FINISHED";"NONE";"success";"0";"1";"2014-10-13 13:16:31.599";"1";;;;;;;;;;;;;;;;;;;;;;;;;;;;;;;;;;;;;;;;;;;;;
"123abc";"1995";;"Windows 7";"Rachel's Experiment (D.T.)";"1.0";"2";"1";"1";"2";"1";"1";"2014-10-13 13:12:22.529";"2014-10-13 13:23:57.355";"1";"1";"0";"67";"66";"module.training_block2.exec-2490.GoNoGo2";;;;;;;;;;;;;;;;;;;;;;;;;;;;;;;;;;;"1257";"2014-10-13 13:16:35.406";"NST_correctLoc";"14";"0";"FINISHED";"LEFT";"success";"382";"0";"2014-10-13 13:16:34.142";"2";;;;;;;;;;;;;;;;;;;;;;;;;;;;;;;;;;;;;;;;;;;;;
"123abc";"1995";;"Windows 7";"Rachel's Experiment (D.T.)";"1.0";"2";"1";"1";"2";"1";"1";"2014-10-13 13:12:22.529";"2014-10-13 13:23:57.355";"1";"1";"0";"68";"67";"module.training_block2.exec-2490.GoNoGo2";;;;;;;;;;;;;;;;;;;;;;;;;;;;;;;;;;;"1261";"2014-10-13 13:16:37.949";"NST_correctLoc";"12";"0";"FINISHED";"LEFT";"success";"404";"0";"2014-10-13 13:16:36.685";"2";;;;;;;;;;;;;;;;;;;;;;;;;;;;;;;;;;;;;;;;;;;;;
"123abc";"1995";;"Windows 7";"Rachel's Experiment (D.T.)";"1.0";"2";"1";"1";"2";"1";"1";"2014-10-13 13:12:22.529";"2014-10-13 13:23:57.355";"1";"1";"0";"69";"68";"module.training_block2.exec-2490.GoNoGo2";;;;;;;;;;;;;;;;;;;;;;;;;;;;;;;;;;;"1261";"2014-10-13 13:16:40.569";"ST_correctStop";"23";"1";"FINISHED";"NONE";"success";"0";"1";"2014-10-13 13:16:39.306";"3";;;;;;;;;;;;;;;;;;;;;;;;;;;;;;;;;;;;;;;;;;;;;
"123abc";"1995";;"Windows 7";"Rachel's Experiment (D.T.)";"1.0";"2";"1";"1";"2";"1";"1";"2014-10-13 13:12:22.529";"2014-10-13 13:23:57.355";"1";"1";"0";"70";"69";"module.training_block2.exec-2490.GoNoGo2";;;;;;;;;;;;;;;;;;;;;;;;;;;;;;;;;;;"1261";"2014-10-13 13:16:43.112";"NST_correctLoc";"18";"1";"FINISHED";"RIGHT";"success";"384";"0";"2014-10-13 13:16:41.849";"3";;;;;;;;;;;;;;;;;;;;;;;;;;;;;;;;;;;;;;;;;;;;;
"123abc";"1995";;"Windows 7";"Rachel's Experiment (D.T.)";"1.0";"2";"1";"1";"2";"1";"1";"2014-10-13 13:12:22.529";"2014-10-13 13:23:57.355";"1";"1";"0";"71";"70";"module.training_block2.exec-2490.GoNoGo2";;;;;;;;;;;;;;;;;;;;;;;;;;;;;;;;;;;"1261";"2014-10-13 13:16:45.655";"NST_correctLoc";"30";"0";"FINISHED";"LEFT";"success";"409";"0";"2014-10-13 13:16:44.391";"3";;;;;;;;;;;;;;;;;;;;;;;;;;;;;;;;;;;;;;;;;;;;;
"123abc";"1995";;"Windows 7";"Rachel's Experiment (D.T.)";"1.0";"2";"1";"1";"2";"1";"1";"2014-10-13 13:12:22.529";"2014-10-13 13:23:57.355";"1";"1";"0";"72";"71";"module.training_block2.exec-2490.GoNoGo2";;;;;;;;;;;;;;;;;;;;;;;;;;;;;;;;;;;"1261";"2014-10-13 13:16:48.291";"ST_correctStop";"27";"0";"FINISHED";"NONE";"success";"0";"1";"2014-10-13 13:16:47.028";"3";;;;;;;;;;;;;;;;;;;;;;;;;;;;;;;;;;;;;;;;;;;;;
"123abc";"1995";;"Windows 7";"Rachel's Experiment (D.T.)";"1.0";"2";"1";"1";"2";"1";"1";"2014-10-13 13:12:22.529";"2014-10-13 13:23:57.355";"1";"1";"0";"73";"72";"module.training_block2.exec-2490.GoNoGo2";;;;;;;;;;;;;;;;;;;;;;;;;;;;;;;;;;;"1261";"2014-10-13 13:16:50.834";"ST_correctStop";"22";"1";"FINISHED";"NONE";"success";"0";"1";"2014-10-13 13:16:49.571";"3";;;;;;;;;;;;;;;;;;;;;;;;;;;;;;;;;;;;;;;;;;;;;
"123abc";"1995";;"Windows 7";"Rachel's Experiment (D.T.)";"1.0";"2";"1";"1";"2";"1";"1";"2014-10-13 13:12:22.529";"2014-10-13 13:23:57.355";"1";"1";"0";"74";"73";"module.training_block2.exec-2490.GoNoGo2";;;;;;;;;;;;;;;;;;;;;;;;;;;;;;;;;;;"1261";"2014-10-13 13:16:53.377";"ST_correctStop";"7";"0";"FINISHED";"NONE";"success";"0";"1";"2014-10-13 13:16:52.113";"1";;;;;;;;;;;;;;;;;;;;;;;;;;;;;;;;;;;;;;;;;;;;;
"123abc";"1995";;"Windows 7";"Rachel's Experiment (D.T.)";"1.0";"2";"1";"1";"2";"1";"1";"2014-10-13 13:12:22.529";"2014-10-13 13:23:57.355";"1";"1";"0";"75";"74";"module.training_block2.exec-2490.GoNoGo2";;;;;;;;;;;;;;;;;;;;;;;;;;;;;;;;;;;"1261";"2014-10-13 13:16:55.920";"ST_failedStop";"34";"0";"FINISHED";"LEFT";"failure";"440";"1";"2014-10-13 13:16:54.656";"3";;;;;;;;;;;;;;;;;;;;;;;;;;;;;;;;;;;;;;;;;;;;;
"123abc";"1995";;"Windows 7";"Rachel's Experiment (D.T.)";"1.0";"2";"1";"1";"2";"1";"1";"2014-10-13 13:12:22.529";"2014-10-13 13:23:57.355";"1";"1";"0";"76";"75";"module.training_block2.exec-2490.GoNoGo2";;;;;;;;;;;;;;;;;;;;;;;;;;;;;;;;;;;"1261";"2014-10-13 13:16:58.463";"ST_correctStop";"28";"1";"FINISHED";"NONE";"success";"0";"1";"2014-10-13 13:16:57.199";"3";;;;;;;;;;;;;;;;;;;;;;;;;;;;;;;;;;;;;;;;;;;;;
"123abc";"1995";;"Windows 7";"Rachel's Experiment (D.T.)";"1.0";"2";"1";"1";"2";"1";"1";"2014-10-13 13:12:22.529";"2014-10-13 13:23:57.355";"1";"1";"0";"77";"76";"module.training_block2.exec-2490.GoNoGo2";;;;;;;;;;;;;;;;;;;;;;;;;;;;;;;;;;;"1257";"2014-10-13 13:17:01.005";"NST_correctLoc";"25";"0";"FINISHED";"LEFT";"success";"422";"0";"2014-10-13 13:16:59.742";"3";;;;;;;;;;;;;;;;;;;;;;;;;;;;;;;;;;;;;;;;;;;;;
"123abc";"1995";;"Windows 7";"Rachel's Experiment (D.T.)";"1.0";"2";"1";"1";"2";"1";"1";"2014-10-13 13:12:22.529";"2014-10-13 13:23:57.355";"1";"1";"0";"78";"77";"module.training_block2.exec-2490.GoNoGo2";;;;;;;;;;;;;;;;;;;;;;;;;;;;;;;;;;;"1257";"2014-10-13 13:17:03.548";"NST_correctLoc";"10";"0";"FINISHED";"LEFT";"success";"520";"0";"2014-10-13 13:17:02.285";"2";;;;;;;;;;;;;;;;;;;;;;;;;;;;;;;;;;;;;;;;;;;;;
"123abc";"1995";;"Windows 7";"Rachel's Experiment (D.T.)";"1.0";"2";"1";"1";"2";"1";"1";"2014-10-13 13:12:22.529";"2014-10-13 13:23:57.355";"1";"1";"0";"79";"78";"module.training_block2.exec-2490.GoNoGo2";;;;;;;;;;;;;;;;;;;;;;;;;;;;;;;;;;;"1261";"2014-10-13 13:17:06.091";"NST_correctLoc";"9";"1";"FINISHED";"RIGHT";"success";"333";"0";"2014-10-13 13:17:04.827";"2";;;;;;;;;;;;;;;;;;;;;;;;;;;;;;;;;;;;;;;;;;;;;
"123abc";"1995";;"Windows 7";"Rachel's Experiment (D.T.)";"1.0";"2";"1";"1";"2";"1";"1";"2014-10-13 13:12:22.529";"2014-10-13 13:23:57.355";"1";"1";"0";"80";"79";"module.training_block2.exec-2490.GoNoGo2";;;;;;;;;;;;;;;;;;;;;;;;;;;;;;;;;;;"1261";"2014-10-13 13:17:08.634";"ST_correctStop";"20";"0";"FINISHED";"NONE";"success";"0";"1";"2014-10-13 13:17:07.370";"3";;;;;;;;;;;;;;;;;;;;;;;;;;;;;;;;;;;;;;;;;;;;;
"123abc";"1995";;"Windows 7";"Rachel's Experiment (D.T.)";"1.0";"2";"1";"1";"2";"1";"1";"2014-10-13 13:12:22.529";"2014-10-13 13:23:57.355";"1";"1";"0";"81";"80";"module.training_block2.exec-2490.GoNoGo2";;;;;;;;;;;;;;;;;;;;;;;;;;;;;;;;;;;"1261";"2014-10-13 13:17:11.177";"NST_correctLoc";"21";"0";"FINISHED";"LEFT";"success";"392";"0";"2014-10-13 13:17:09.913";"3";;;;;;;;;;;;;;;;;;;;;;;;;;;;;;;;;;;;;;;;;;;;;
"123abc";"1995";;"Windows 7";"Rachel's Experiment (D.T.)";"1.0";"2";"1";"1";"2";"1";"1";"2014-10-13 13:12:22.529";"2014-10-13 13:23:57.355";"1";"1";"0";"82";"81";"module.training_block2.exec-2490.GoNoGo2";;;;;;;;;;;;;;;;;;;;;;;;;;;;;;;;;;;"1261";"2014-10-13 13:17:13.735";"NST_correctLoc";"19";"0";"FINISHED";"LEFT";"success";"377";"0";"2014-10-13 13:17:12.471";"3";;;;;;;;;;;;;;;;;;;;;;;;;;;;;;;;;;;;;;;;;;;;;
"123abc";"1995";;"Windows 7";"Rachel's Experiment (D.T.)";"1.0";"2";"1";"1";"2";"1";"1";"2014-10-13 13:12:22.529";"2014-10-13 13:23:57.355";"1";"1";"0";"83";"82";"module.training_block2.exec-2490.GoNoGo2";;;;;;;;;;;;;;;;;;;;;;;;;;;;;;;;;;;"1257";"2014-10-13 13:17:16.278";"ST_failedStop";"5";"0";"FINISHED";"LEFT";"failure";"358";"1";"2014-10-13 13:17:15.014";"1";;;;;;;;;;;;;;;;;;;;;;;;;;;;;;;;;;;;;;;;;;;;;
"123abc";"1995";;"Windows 7";"Rachel's Experiment (D.T.)";"1.0";"2";"1";"1";"2";"1";"1";"2014-10-13 13:12:22.529";"2014-10-13 13:23:57.355";"1";"1";"0";"84";"83";"module.training_block2.exec-2490.GoNoGo2";;;;;;;;;;;;;;;;;;;;;;;;;;;;;;;;;;;"1261";"2014-10-13 13:17:18.821";"NST_correctLoc";"15";"1";"FINISHED";"RIGHT";"success";"339";"0";"2014-10-13 13:17:17.557";"2";;;;;;;;;;;;;;;;;;;;;;;;;;;;;;;;;;;;;;;;;;;;;
"123abc";"1995";;"Windows 7";"Rachel's Experiment (D.T.)";"1.0";"2";"1";"1";"2";"1";"1";"2014-10-13 13:12:22.529";"2014-10-13 13:23:57.355";"1";"1";"0";"85";"84";"module.training_block2.exec-2490.GoNoGo2";;;;;;;;;;;;;;;;;;;;;;;;;;;;;;;;;;;"1261";"2014-10-13 13:17:21.364";"ST_correctStop";"1";"0";"FINISHED";"NONE";"success";"0";"1";"2014-10-13 13:17:20.100";"1";;;;;;;;;;;;;;;;;;;;;;;;;;;;;;;;;;;;;;;;;;;;;
"123abc";"1995";;"Windows 7";"Rachel's Experiment (D.T.)";"1.0";"2";"1";"1";"2";"1";"1";"2014-10-13 13:12:22.529";"2014-10-13 13:23:57.355";"1";"1";"0";"86";"85";"module.training_block2.exec-2490.GoNoGo2";;;;;;;;;;;;;;;;;;;;;;;;;;;;;;;;;;;"1261";"2014-10-13 13:17:23.906";"ST_correctStop";"29";"1";"FINISHED";"NONE";"success";"0";"1";"2014-10-13 13:17:22.643";"3";;;;;;;;;;;;;;;;;;;;;;;;;;;;;;;;;;;;;;;;;;;;;
"123abc";"1995";;"Windows 7";"Rachel's Experiment (D.T.)";"1.0";"2";"1";"1";"2";"1";"1";"2014-10-13 13:12:22.529";"2014-10-13 13:23:57.355";"1";"1";"0";"87";"86";"module.training_block2.exec-2490.GoNoGo2";;;;;;;;;;;;;;;;;;;;;;;;;;;;;;;;;;;"1261";"2014-10-13 13:17:26.449";"NST_correctLoc";"17";"0";"FINISHED";"LEFT";"success";"383";"0";"2014-10-13 13:17:25.186";"2";;;;;;;;;;;;;;;;;;;;;;;;;;;;;;;;;;;;;;;;;;;;;
"123abc";"1995";;"Windows 7";"Rachel's Experiment (D.T.)";"1.0";"2";"1";"1";"2";"1";"1";"2014-10-13 13:12:22.529";"2014-10-13 13:23:57.355";"1";"1";"0";"88";"87";"module.training_block3.exec-5129.GoNoGo3";;;;;;;;;;;;;;;;;;;;;;;;;;;;;;;;;;;;;;;;;;;;;;;"1261";"2014-10-13 13:17:36.464";"NST_correctLoc";"14";"1";"FINISHED";"RIGHT";"success";"392";"0";"2014-10-13 13:17:35.201";"2";;;;;;;;;;;;;;;;;;;;;;;;;;;;;;;;;
"123abc";"1995";;"Windows 7";"Rachel's Experiment (D.T.)";"1.0";"2";"1";"1";"2";"1";"1";"2014-10-13 13:12:22.529";"2014-10-13 13:23:57.355";"1";"1";"0";"89";"88";"module.training_block3.exec-5129.GoNoGo3";;;;;;;;;;;;;;;;;;;;;;;;;;;;;;;;;;;;;;;;;;;;;;;"1261";"2014-10-13 13:17:39.007";"ST_correctStop";"4";"0";"FINISHED";"NONE";"success";"0";"1";"2014-10-13 13:17:37.744";"1";;;;;;;;;;;;;;;;;;;;;;;;;;;;;;;;;
"123abc";"1995";;"Windows 7";"Rachel's Experiment (D.T.)";"1.0";"2";"1";"1";"2";"1";"1";"2014-10-13 13:12:22.529";"2014-10-13 13:23:57.355";"1";"1";"0";"90";"89";"module.training_block3.exec-5129.GoNoGo3";;;;;;;;;;;;;;;;;;;;;;;;;;;;;;;;;;;;;;;;;;;;;;;"1261";"2014-10-13 13:17:41.550";"ST_correctStop";"20";"1";"FINISHED";"NONE";"success";"0";"1";"2014-10-13 13:17:40.286";"3";;;;;;;;;;;;;;;;;;;;;;;;;;;;;;;;;
"123abc";"1995";;"Windows 7";"Rachel's Experiment (D.T.)";"1.0";"2";"1";"1";"2";"1";"1";"2014-10-13 13:12:22.529";"2014-10-13 13:23:57.355";"1";"1";"0";"91";"90";"module.training_block3.exec-5129.GoNoGo3";;;;;;;;;;;;;;;;;;;;;;;;;;;;;;;;;;;;;;;;;;;;;;;"1261";"2014-10-13 13:17:44.093";"ST_correctStop";"3";"0";"FINISHED";"NONE";"success";"0";"1";"2014-10-13 13:17:42.829";"1";;;;;;;;;;;;;;;;;;;;;;;;;;;;;;;;;
"123abc";"1995";;"Windows 7";"Rachel's Experiment (D.T.)";"1.0";"2";"1";"1";"2";"1";"1";"2014-10-13 13:12:22.529";"2014-10-13 13:23:57.355";"1";"1";"0";"92";"91";"module.training_block3.exec-5129.GoNoGo3";;;;;;;;;;;;;;;;;;;;;;;;;;;;;;;;;;;;;;;;;;;;;;;"1261";"2014-10-13 13:17:46.636";"NST_correctLoc";"22";"0";"FINISHED";"LEFT";"success";"445";"0";"2014-10-13 13:17:45.372";"3";;;;;;;;;;;;;;;;;;;;;;;;;;;;;;;;;
"123abc";"1995";;"Windows 7";"Rachel's Experiment (D.T.)";"1.0";"2";"1";"1";"2";"1";"1";"2014-10-13 13:12:22.529";"2014-10-13 13:23:57.355";"1";"1";"0";"93";"92";"module.training_block3.exec-5129.GoNoGo3";;;;;;;;;;;;;;;;;;;;;;;;;;;;;;;;;;;;;;;;;;;;;;;"1261";"2014-10-13 13:17:49.178";"NST_correctLoc";"16";"1";"FINISHED";"RIGHT";"success";"326";"0";"2014-10-13 13:17:47.915";"2";;;;;;;;;;;;;;;;;;;;;;;;;;;;;;;;;
"123abc";"1995";;"Windows 7";"Rachel's Experiment (D.T.)";"1.0";"2";"1";"1";"2";"1";"1";"2014-10-13 13:12:22.529";"2014-10-13 13:23:57.355";"1";"1";"0";"94";"93";"module.training_block3.exec-5129.GoNoGo3";;;;;;;;;;;;;;;;;;;;;;;;;;;;;;;;;;;;;;;;;;;;;;;"1261";"2014-10-13 13:17:51.721";"ST_correctStop";"33";"0";"FINISHED";"NONE";"success";"0";"1";"2014-10-13 13:17:50.458";"3";;;;;;;;;;;;;;;;;;;;;;;;;;;;;;;;;
"123abc";"1995";;"Windows 7";"Rachel's Experiment (D.T.)";"1.0";"2";"1";"1";"2";"1";"1";"2014-10-13 13:12:22.529";"2014-10-13 13:23:57.355";"1";"1";"0";"95";"94";"module.training_block3.exec-5129.GoNoGo3";;;;;;;;;;;;;;;;;;;;;;;;;;;;;;;;;;;;;;;;;;;;;;;"1261";"2014-10-13 13:17:54.264";"ST_correctStop";"1";"0";"FINISHED";"NONE";"success";"0";"1";"2014-10-13 13:17:53.000";"1";;;;;;;;;;;;;;;;;;;;;;;;;;;;;;;;;
"123abc";"1995";;"Windows 7";"Rachel's Experiment (D.T.)";"1.0";"2";"1";"1";"2";"1";"1";"2014-10-13 13:12:22.529";"2014-10-13 13:23:57.355";"1";"1";"0";"96";"95";"module.training_block3.exec-5129.GoNoGo3";;;;;;;;;;;;;;;;;;;;;;;;;;;;;;;;;;;;;;;;;;;;;;;"1262";"2014-10-13 13:17:56.807";"ST_correctStop";"6";"0";"FINISHED";"NONE";"success";"0";"1";"2014-10-13 13:17:55.543";"1";;;;;;;;;;;;;;;;;;;;;;;;;;;;;;;;;
"123abc";"1995";;"Windows 7";"Rachel's Experiment (D.T.)";"1.0";"2";"1";"1";"2";"1";"1";"2014-10-13 13:12:22.529";"2014-10-13 13:23:57.355";"1";"1";"0";"97";"96";"module.training_block3.exec-5129.GoNoGo3";;;;;;;;;;;;;;;;;;;;;;;;;;;;;;;;;;;;;;;;;;;;;;;"1262";"2014-10-13 13:17:59.350";"NST_correctLoc";"12";"1";"FINISHED";"RIGHT";"success";"394";"0";"2014-10-13 13:17:58.086";"2";;;;;;;;;;;;;;;;;;;;;;;;;;;;;;;;;
"123abc";"1995";;"Windows 7";"Rachel's Experiment (D.T.)";"1.0";"2";"1";"1";"2";"1";"1";"2014-10-13 13:12:22.529";"2014-10-13 13:23:57.355";"1";"1";"0";"98";"97";"module.training_block3.exec-5129.GoNoGo3";;;;;;;;;;;;;;;;;;;;;;;;;;;;;;;;;;;;;;;;;;;;;;;"1261";"2014-10-13 13:18:01.892";"ST_failedStop";"24";"0";"FINISHED";"LEFT";"failure";"492";"1";"2014-10-13 13:18:00.629";"3";;;;;;;;;;;;;;;;;;;;;;;;;;;;;;;;;
"123abc";"1995";;"Windows 7";"Rachel's Experiment (D.T.)";"1.0";"2";"1";"1";"2";"1";"1";"2014-10-13 13:12:22.529";"2014-10-13 13:23:57.355";"1";"1";"0";"99";"98";"module.training_block3.exec-5129.GoNoGo3";;;;;;;;;;;;;;;;;;;;;;;;;;;;;;;;;;;;;;;;;;;;;;;"1261";"2014-10-13 13:18:04.435";"NST_correctLoc";"18";"1";"FINISHED";"RIGHT";"success";"413";"0";"2014-10-13 13:18:03.172";"3";;;;;;;;;;;;;;;;;;;;;;;;;;;;;;;;;
"123abc";"1995";;"Windows 7";"Rachel's Experiment (D.T.)";"1.0";"2";"1";"1";"2";"1";"1";"2014-10-13 13:12:22.529";"2014-10-13 13:23:57.355";"1";"1";"0";"100";"99";"module.training_block3.exec-5129.GoNoGo3";;;;;;;;;;;;;;;;;;;;;;;;;;;;;;;;;;;;;;;;;;;;;;;"1261";"2014-10-13 13:18:06.978";"ST_correctStop";"8";"0";"FINISHED";"NONE";"success";"0";"1";"2014-10-13 13:18:05.714";"1";;;;;;;;;;;;;;;;;;;;;;;;;;;;;;;;;
"123abc";"1995";;"Windows 7";"Rachel's Experiment (D.T.)";"1.0";"2";"1";"1";"2";"1";"1";"2014-10-13 13:12:22.529";"2014-10-13 13:23:57.355";"1";"1";"0";"101";"100";"module.training_block3.exec-5129.GoNoGo3";;;;;;;;;;;;;;;;;;;;;;;;;;;;;;;;;;;;;;;;;;;;;;;"1261";"2014-10-13 13:18:09.521";"NST_correctLoc";"23";"0";"FINISHED";"LEFT";"success";"527";"0";"2014-10-13 13:18:08.257";"3";;;;;;;;;;;;;;;;;;;;;;;;;;;;;;;;;
"123abc";"1995";;"Windows 7";"Rachel's Experiment (D.T.)";"1.0";"2";"1";"1";"2";"1";"1";"2014-10-13 13:12:22.529";"2014-10-13 13:23:57.355";"1";"1";"0";"102";"101";"module.training_block3.exec-5129.GoNoGo3";;;;;;;;;;;;;;;;;;;;;;;;;;;;;;;;;;;;;;;;;;;;;;;"1261";"2014-10-13 13:18:12.048";"ST_correctStop";"0";"1";"FINISHED";"NONE";"success";"0";"1";"2014-10-13 13:18:10.784";"1";;;;;;;;;;;;;;;;;;;;;;;;;;;;;;;;;
"123abc";"1995";;"Windows 7";"Rachel's Experiment (D.T.)";"1.0";"2";"1";"1";"2";"1";"1";"2014-10-13 13:12:22.529";"2014-10-13 13:23:57.355";"1";"1";"0";"103";"102";"module.training_block3.exec-5129.GoNoGo3";;;;;;;;;;;;;;;;;;;;;;;;;;;;;;;;;;;;;;;;;;;;;;;"1261";"2014-10-13 13:18:14.591";"ST_correctStop";"5";"1";"FINISHED";"NONE";"success";"0";"1";"2014-10-13 13:18:13.327";"1";;;;;;;;;;;;;;;;;;;;;;;;;;;;;;;;;
"123abc";"1995";;"Windows 7";"Rachel's Experiment (D.T.)";"1.0";"2";"1";"1";"2";"1";"1";"2014-10-13 13:12:22.529";"2014-10-13 13:23:57.355";"1";"1";"0";"104";"103";"module.training_block3.exec-5129.GoNoGo3";;;;;;;;;;;;;;;;;;;;;;;;;;;;;;;;;;;;;;;;;;;;;;;"1262";"2014-10-13 13:18:17.134";"NST_correctLoc";"17";"0";"FINISHED";"LEFT";"success";"418";"0";"2014-10-13 13:18:15.870";"2";;;;;;;;;;;;;;;;;;;;;;;;;;;;;;;;;
"123abc";"1995";;"Windows 7";"Rachel's Experiment (D.T.)";"1.0";"2";"1";"1";"2";"1";"1";"2014-10-13 13:12:22.529";"2014-10-13 13:23:57.355";"1";"1";"0";"105";"104";"module.training_block3.exec-5129.GoNoGo3";;;;;;;;;;;;;;;;;;;;;;;;;;;;;;;;;;;;;;;;;;;;;;;"1261";"2014-10-13 13:18:19.676";"ST_correctStop";"2";"1";"FINISHED";"NONE";"success";"0";"1";"2014-10-13 13:18:18.413";"1";;;;;;;;;;;;;;;;;;;;;;;;;;;;;;;;;
"123abc";"1995";;"Windows 7";"Rachel's Experiment (D.T.)";"1.0";"2";"1";"1";"2";"1";"1";"2014-10-13 13:12:22.529";"2014-10-13 13:23:57.355";"1";"1";"0";"106";"105";"module.training_block3.exec-5129.GoNoGo3";;;;;;;;;;;;;;;;;;;;;;;;;;;;;;;;;;;;;;;;;;;;;;;"1261";"2014-10-13 13:18:22.235";"NST_correctLoc";"29";"0";"FINISHED";"LEFT";"success";"421";"0";"2014-10-13 13:18:20.971";"3";;;;;;;;;;;;;;;;;;;;;;;;;;;;;;;;;
"123abc";"1995";;"Windows 7";"Rachel's Experiment (D.T.)";"1.0";"2";"1";"1";"2";"1";"1";"2014-10-13 13:12:22.529";"2014-10-13 13:23:57.355";"1";"1";"0";"107";"106";"module.training_block3.exec-5129.GoNoGo3";;;;;;;;;;;;;;;;;;;;;;;;;;;;;;;;;;;;;;;;;;;;;;;"1262";"2014-10-13 13:18:24.778";"ST_correctStop";"31";"1";"FINISHED";"NONE";"success";"0";"1";"2014-10-13 13:18:23.514";"3";;;;;;;;;;;;;;;;;;;;;;;;;;;;;;;;;
"123abc";"1995";;"Windows 7";"Rachel's Experiment (D.T.)";"1.0";"2";"1";"1";"2";"1";"1";"2014-10-13 13:12:22.529";"2014-10-13 13:23:57.355";"1";"1";"0";"108";"107";"module.training_block3.exec-5129.GoNoGo3";;;;;;;;;;;;;;;;;;;;;;;;;;;;;;;;;;;;;;;;;;;;;;;"1261";"2014-10-13 13:18:27.320";"ST_correctStop";"34";"1";"FINISHED";"NONE";"success";"0";"1";"2014-10-13 13:18:26.057";"3";;;;;;;;;;;;;;;;;;;;;;;;;;;;;;;;;
"123abc";"1995";;"Windows 7";"Rachel's Experiment (D.T.)";"1.0";"2";"1";"1";"2";"1";"1";"2014-10-13 13:12:22.529";"2014-10-13 13:23:57.355";"1";"1";"0";"109";"108";"module.training_block3.exec-5129.GoNoGo3";;;;;;;;;;;;;;;;;;;;;;;;;;;;;;;;;;;;;;;;;;;;;;;"1261";"2014-10-13 13:18:29.863";"NST_correctLoc";"13";"0";"FINISHED";"LEFT";"success";"361";"0";"2014-10-13 13:18:28.600";"2";;;;;;;;;;;;;;;;;;;;;;;;;;;;;;;;;
"123abc";"1995";;"Windows 7";"Rachel's Experiment (D.T.)";"1.0";"2";"1";"1";"2";"1";"1";"2014-10-13 13:12:22.529";"2014-10-13 13:23:57.355";"1";"1";"0";"110";"109";"module.training_block3.exec-5129.GoNoGo3";;;;;;;;;;;;;;;;;;;;;;;;;;;;;;;;;;;;;;;;;;;;;;;"1261";"2014-10-13 13:18:32.406";"ST_failedStop";"30";"1";"FINISHED";"RIGHT";"failure";"442";"1";"2014-10-13 13:18:31.142";"3";;;;;;;;;;;;;;;;;;;;;;;;;;;;;;;;;
"123abc";"1995";;"Windows 7";"Rachel's Experiment (D.T.)";"1.0";"2";"1";"1";"2";"1";"1";"2014-10-13 13:12:22.529";"2014-10-13 13:23:57.355";"1";"1";"0";"111";"110";"module.training_block3.exec-5129.GoNoGo3";;;;;;;;;;;;;;;;;;;;;;;;;;;;;;;;;;;;;;;;;;;;;;;"1261";"2014-10-13 13:18:34.949";"NST_correctLoc";"10";"0";"FINISHED";"LEFT";"success";"379";"0";"2014-10-13 13:18:33.685";"2";;;;;;;;;;;;;;;;;;;;;;;;;;;;;;;;;
"123abc";"1995";;"Windows 7";"Rachel's Experiment (D.T.)";"1.0";"2";"1";"1";"2";"1";"1";"2014-10-13 13:12:22.529";"2014-10-13 13:23:57.355";"1";"1";"0";"112";"111";"module.training_block3.exec-5129.GoNoGo3";;;;;;;;;;;;;;;;;;;;;;;;;;;;;;;;;;;;;;;;;;;;;;;"1261";"2014-10-13 13:18:37.492";"NST_correctLoc";"28";"0";"FINISHED";"LEFT";"success";"428";"0";"2014-10-13 13:18:36.228";"3";;;;;;;;;;;;;;;;;;;;;;;;;;;;;;;;;
"123abc";"1995";;"Windows 7";"Rachel's Experiment (D.T.)";"1.0";"2";"1";"1";"2";"1";"1";"2014-10-13 13:12:22.529";"2014-10-13 13:23:57.355";"1";"1";"0";"113";"112";"module.training_block3.exec-5129.GoNoGo3";;;;;;;;;;;;;;;;;;;;;;;;;;;;;;;;;;;;;;;;;;;;;;;"1261";"2014-10-13 13:18:40.034";"NST_correctLoc";"9";"0";"FINISHED";"LEFT";"success";"421";"0";"2014-10-13 13:18:38.771";"2";;;;;;;;;;;;;;;;;;;;;;;;;;;;;;;;;
"123abc";"1995";;"Windows 7";"Rachel's Experiment (D.T.)";"1.0";"2";"1";"1";"2";"1";"1";"2014-10-13 13:12:22.529";"2014-10-13 13:23:57.355";"1";"1";"0";"114";"113";"module.training_block3.exec-5129.GoNoGo3";;;;;;;;;;;;;;;;;;;;;;;;;;;;;;;;;;;;;;;;;;;;;;;"1261";"2014-10-13 13:18:42.577";"ST_correctStop";"7";"1";"FINISHED";"NONE";"success";"0";"1";"2014-10-13 13:18:41.314";"1";;;;;;;;;;;;;;;;;;;;;;;;;;;;;;;;;
"123abc";"1995";;"Windows 7";"Rachel's Experiment (D.T.)";"1.0";"2";"1";"1";"2";"1";"1";"2014-10-13 13:12:22.529";"2014-10-13 13:23:57.355";"1";"1";"0";"115";"114";"module.training_block3.exec-5129.GoNoGo3";;;;;;;;;;;;;;;;;;;;;;;;;;;;;;;;;;;;;;;;;;;;;;;"1261";"2014-10-13 13:18:45.120";"NST_correctLoc";"11";"1";"FINISHED";"RIGHT";"success";"456";"0";"2014-10-13 13:18:43.856";"2";;;;;;;;;;;;;;;;;;;;;;;;;;;;;;;;;
"123abc";"1995";;"Windows 7";"Rachel's Experiment (D.T.)";"1.0";"2";"1";"1";"2";"1";"1";"2014-10-13 13:12:22.529";"2014-10-13 13:23:57.355";"1";"1";"0";"116";"115";"module.training_block3.exec-5129.GoNoGo3";;;;;;;;;;;;;;;;;;;;;;;;;;;;;;;;;;;;;;;;;;;;;;;"1261";"2014-10-13 13:18:47.663";"NST_correctLoc";"35";"1";"FINISHED";"RIGHT";"success";"369";"0";"2014-10-13 13:18:46.399";"3";;;;;;;;;;;;;;;;;;;;;;;;;;;;;;;;;
"123abc";"1995";;"Windows 7";"Rachel's Experiment (D.T.)";"1.0";"2";"1";"1";"2";"1";"1";"2014-10-13 13:12:22.529";"2014-10-13 13:23:57.355";"1";"1";"0";"117";"116";"module.training_block3.exec-5129.GoNoGo3";;;;;;;;;;;;;;;;;;;;;;;;;;;;;;;;;;;;;;;;;;;;;;;"1262";"2014-10-13 13:18:50.206";"NST_correctLoc";"15";"0";"FINISHED";"LEFT";"success";"370";"0";"2014-10-13 13:18:48.942";"2";;;;;;;;;;;;;;;;;;;;;;;;;;;;;;;;;
"123abc";"1995";;"Windows 7";"Rachel's Experiment (D.T.)";"1.0";"2";"1";"1";"2";"1";"1";"2014-10-13 13:12:22.529";"2014-10-13 13:23:57.355";"1";"1";"0";"118";"117";"module.training_block3.exec-5129.GoNoGo3";;;;;;;;;;;;;;;;;;;;;;;;;;;;;;;;;;;;;;;;;;;;;;;"1261";"2014-10-13 13:18:52.748";"NST_correctLoc";"19";"0";"FINISHED";"LEFT";"success";"395";"0";"2014-10-13 13:18:51.485";"3";;;;;;;;;;;;;;;;;;;;;;;;;;;;;;;;;
"123abc";"1995";;"Windows 7";"Rachel's Experiment (D.T.)";"1.0";"2";"1";"1";"2";"1";"1";"2014-10-13 13:12:22.529";"2014-10-13 13:23:57.355";"1";"1";"0";"119";"118";"module.training_block3.exec-5129.GoNoGo3";;;;;;;;;;;;;;;;;;;;;;;;;;;;;;;;;;;;;;;;;;;;;;;"1262";"2014-10-13 13:18:55.291";"NST_correctLoc";"25";"0";"FINISHED";"LEFT";"success";"420";"0";"2014-10-13 13:18:54.028";"3";;;;;;;;;;;;;;;;;;;;;;;;;;;;;;;;;
"123abc";"1995";;"Windows 7";"Rachel's Experiment (D.T.)";"1.0";"2";"1";"1";"2";"1";"1";"2014-10-13 13:12:22.529";"2014-10-13 13:23:57.355";"1";"1";"0";"120";"119";"module.training_block3.exec-5129.GoNoGo3";;;;;;;;;;;;;;;;;;;;;;;;;;;;;;;;;;;;;;;;;;;;;;;"1261";"2014-10-13 13:18:57.834";"ST_correctStop";"21";"1";"FINISHED";"NONE";"success";"0";"1";"2014-10-13 13:18:56.570";"3";;;;;;;;;;;;;;;;;;;;;;;;;;;;;;;;;
"123abc";"1995";;"Windows 7";"Rachel's Experiment (D.T.)";"1.0";"2";"1";"1";"2";"1";"1";"2014-10-13 13:12:22.529";"2014-10-13 13:23:57.355";"1";"1";"0";"121";"120";"module.training_block3.exec-5129.GoNoGo3";;;;;;;;;;;;;;;;;;;;;;;;;;;;;;;;;;;;;;;;;;;;;;;"1262";"2014-10-13 13:19:00.377";"NST_correctLoc";"26";"0";"FINISHED";"LEFT";"success";"487";"0";"2014-10-13 13:18:59.113";"3";;;;;;;;;;;;;;;;;;;;;;;;;;;;;;;;;
"123abc";"1995";;"Windows 7";"Rachel's Experiment (D.T.)";"1.0";"2";"1";"1";"2";"1";"1";"2014-10-13 13:12:22.529";"2014-10-13 13:23:57.355";"1";"1";"0";"122";"121";"module.training_block3.exec-5129.GoNoGo3";;;;;;;;;;;;;;;;;;;;;;;;;;;;;;;;;;;;;;;;;;;;;;;"1261";"2014-10-13 13:19:02.935";"ST_failedStop";"32";"1";"FINISHED";"RIGHT";"failure";"360";"1";"2014-10-13 13:19:01.672";"3";;;;;;;;;;;;;;;;;;;;;;;;;;;;;;;;;
"123abc";"1995";;"Windows 7";"Rachel's Experiment (D.T.)";"1.0";"2";"1";"1";"2";"1";"1";"2014-10-13 13:12:22.529";"2014-10-13 13:23:57.355";"1";"1";"0";"123";"122";"module.training_block3.exec-5129.GoNoGo3";;;;;;;;;;;;;;;;;;;;;;;;;;;;;;;;;;;;;;;;;;;;;;;"1261";"2014-10-13 13:19:05.478";"ST_correctStop";"27";"1";"FINISHED";"NONE";"success";"0";"1";"2014-10-13 13:19:04.214";"3";;;;;;;;;;;;;;;;;;;;;;;;;;;;;;;;;
"123abc";"1995";;"Windows 7";"Rachel's Experiment (D.T.)";"1.0";"2";"1";"1";"2";"1";"1";"2014-10-13 13:12:22.529";"2014-10-13 13:23:57.355";"1";"1";"0";"124";"123";"module.training_block4.exec-9880.GoNoGo4";;;;;;;;;;;;;;;;;;;;;;;;;;;;;;;;;;;;;;;;;;;;;;;;;;;;;;;;;;;"1261";"2014-10-13 13:19:15.618";"NST_correctLoc";"16";"0";"FINISHED";"LEFT";"success";"429";"0";"2014-10-13 13:19:14.355";"2";;;;;;;;;;;;;;;;;;;;;
"123abc";"1995";;"Windows 7";"Rachel's Experiment (D.T.)";"1.0";"2";"1";"1";"2";"1";"1";"2014-10-13 13:12:22.529";"2014-10-13 13:23:57.355";"1";"1";"0";"125";"124";"module.training_block4.exec-9880.GoNoGo4";;;;;;;;;;;;;;;;;;;;;;;;;;;;;;;;;;;;;;;;;;;;;;;;;;;;;;;;;;;"1262";"2014-10-13 13:19:18.161";"ST_correctStop";"8";"1";"FINISHED";"NONE";"success";"0";"1";"2014-10-13 13:19:16.897";"1";;;;;;;;;;;;;;;;;;;;;
"123abc";"1995";;"Windows 7";"Rachel's Experiment (D.T.)";"1.0";"2";"1";"1";"2";"1";"1";"2014-10-13 13:12:22.529";"2014-10-13 13:23:57.355";"1";"1";"0";"126";"125";"module.training_block4.exec-9880.GoNoGo4";;;;;;;;;;;;;;;;;;;;;;;;;;;;;;;;;;;;;;;;;;;;;;;;;;;;;;;;;;;"1261";"2014-10-13 13:19:20.704";"ST_failedStop";"24";"1";"FINISHED";"RIGHT";"failure";"400";"1";"2014-10-13 13:19:19.440";"3";;;;;;;;;;;;;;;;;;;;;
"123abc";"1995";;"Windows 7";"Rachel's Experiment (D.T.)";"1.0";"2";"1";"1";"2";"1";"1";"2014-10-13 13:12:22.529";"2014-10-13 13:23:57.355";"1";"1";"0";"127";"126";"module.training_block4.exec-9880.GoNoGo4";;;;;;;;;;;;;;;;;;;;;;;;;;;;;;;;;;;;;;;;;;;;;;;;;;;;;;;;;;;"1262";"2014-10-13 13:19:23.247";"NST_correctLoc";"9";"0";"FINISHED";"LEFT";"success";"673";"0";"2014-10-13 13:19:21.983";"2";;;;;;;;;;;;;;;;;;;;;
"123abc";"1995";;"Windows 7";"Rachel's Experiment (D.T.)";"1.0";"2";"1";"1";"2";"1";"1";"2014-10-13 13:12:22.529";"2014-10-13 13:23:57.355";"1";"1";"0";"128";"127";"module.training_block4.exec-9880.GoNoGo4";;;;;;;;;;;;;;;;;;;;;;;;;;;;;;;;;;;;;;;;;;;;;;;;;;;;;;;;;;;"1261";"2014-10-13 13:19:25.789";"ST_correctStop";"7";"1";"FINISHED";"NONE";"success";"0";"1";"2014-10-13 13:19:24.526";"1";;;;;;;;;;;;;;;;;;;;;
"123abc";"1995";;"Windows 7";"Rachel's Experiment (D.T.)";"1.0";"2";"1";"1";"2";"1";"1";"2014-10-13 13:12:22.529";"2014-10-13 13:23:57.355";"1";"1";"0";"129";"128";"module.training_block4.exec-9880.GoNoGo4";;;;;;;;;;;;;;;;;;;;;;;;;;;;;;;;;;;;;;;;;;;;;;;;;;;;;;;;;;;"1261";"2014-10-13 13:19:28.332";"ST_correctStop";"18";"1";"FINISHED";"NONE";"success";"0";"1";"2014-10-13 13:19:27.069";"3";;;;;;;;;;;;;;;;;;;;;
"123abc";"1995";;"Windows 7";"Rachel's Experiment (D.T.)";"1.0";"2";"1";"1";"2";"1";"1";"2014-10-13 13:12:22.529";"2014-10-13 13:23:57.355";"1";"1";"0";"130";"129";"module.training_block4.exec-9880.GoNoGo4";;;;;;;;;;;;;;;;;;;;;;;;;;;;;;;;;;;;;;;;;;;;;;;;;;;;;;;;;;;"1261";"2014-10-13 13:19:30.875";"ST_correctStop";"21";"0";"FINISHED";"NONE";"success";"0";"1";"2014-10-13 13:19:29.611";"3";;;;;;;;;;;;;;;;;;;;;
"123abc";"1995";;"Windows 7";"Rachel's Experiment (D.T.)";"1.0";"2";"1";"1";"2";"1";"1";"2014-10-13 13:12:22.529";"2014-10-13 13:23:57.355";"1";"1";"0";"131";"130";"module.training_block4.exec-9880.GoNoGo4";;;;;;;;;;;;;;;;;;;;;;;;;;;;;;;;;;;;;;;;;;;;;;;;;;;;;;;;;;;"1257";"2014-10-13 13:19:33.418";"NST_correctLoc";"14";"0";"FINISHED";"LEFT";"success";"417";"0";"2014-10-13 13:19:32.154";"2";;;;;;;;;;;;;;;;;;;;;
"123abc";"1995";;"Windows 7";"Rachel's Experiment (D.T.)";"1.0";"2";"1";"1";"2";"1";"1";"2014-10-13 13:12:22.529";"2014-10-13 13:23:57.355";"1";"1";"0";"132";"131";"module.training_block4.exec-9880.GoNoGo4";;;;;;;;;;;;;;;;;;;;;;;;;;;;;;;;;;;;;;;;;;;;;;;;;;;;;;;;;;;"1262";"2014-10-13 13:19:35.961";"NST_correctLoc";"23";"1";"FINISHED";"RIGHT";"success";"455";"0";"2014-10-13 13:19:34.697";"3";;;;;;;;;;;;;;;;;;;;;
"123abc";"1995";;"Windows 7";"Rachel's Experiment (D.T.)";"1.0";"2";"1";"1";"2";"1";"1";"2014-10-13 13:12:22.529";"2014-10-13 13:23:57.355";"1";"1";"0";"133";"132";"module.training_block4.exec-9880.GoNoGo4";;;;;;;;;;;;;;;;;;;;;;;;;;;;;;;;;;;;;;;;;;;;;;;;;;;;;;;;;;;"1262";"2014-10-13 13:19:38.503";"ST_correctStop";"5";"1";"FINISHED";"NONE";"success";"0";"1";"2014-10-13 13:19:37.240";"1";;;;;;;;;;;;;;;;;;;;;
"123abc";"1995";;"Windows 7";"Rachel's Experiment (D.T.)";"1.0";"2";"1";"1";"2";"1";"1";"2014-10-13 13:12:22.529";"2014-10-13 13:23:57.355";"1";"1";"0";"134";"133";"module.training_block4.exec-9880.GoNoGo4";;;;;;;;;;;;;;;;;;;;;;;;;;;;;;;;;;;;;;;;;;;;;;;;;;;;;;;;;;;"1262";"2014-10-13 13:19:41.046";"ST_correctStop";"3";"1";"FINISHED";"NONE";"success";"0";"1";"2014-10-13 13:19:39.783";"1";;;;;;;;;;;;;;;;;;;;;
"123abc";"1995";;"Windows 7";"Rachel's Experiment (D.T.)";"1.0";"2";"1";"1";"2";"1";"1";"2014-10-13 13:12:22.529";"2014-10-13 13:23:57.355";"1";"1";"0";"135";"134";"module.training_block4.exec-9880.GoNoGo4";;;;;;;;;;;;;;;;;;;;;;;;;;;;;;;;;;;;;;;;;;;;;;;;;;;;;;;;;;;"1261";"2014-10-13 13:19:43.589";"NST_correctLoc";"11";"0";"FINISHED";"LEFT";"success";"474";"0";"2014-10-13 13:19:42.325";"2";;;;;;;;;;;;;;;;;;;;;
"123abc";"1995";;"Windows 7";"Rachel's Experiment (D.T.)";"1.0";"2";"1";"1";"2";"1";"1";"2014-10-13 13:12:22.529";"2014-10-13 13:23:57.355";"1";"1";"0";"136";"135";"module.training_block4.exec-9880.GoNoGo4";;;;;;;;;;;;;;;;;;;;;;;;;;;;;;;;;;;;;;;;;;;;;;;;;;;;;;;;;;;"1262";"2014-10-13 13:19:46.116";"NST_correctLoc";"22";"0";"FINISHED";"LEFT";"success";"395";"0";"2014-10-13 13:19:44.853";"3";;;;;;;;;;;;;;;;;;;;;
"123abc";"1995";;"Windows 7";"Rachel's Experiment (D.T.)";"1.0";"2";"1";"1";"2";"1";"1";"2014-10-13 13:12:22.529";"2014-10-13 13:23:57.355";"1";"1";"0";"137";"136";"module.training_block4.exec-9880.GoNoGo4";;;;;;;;;;;;;;;;;;;;;;;;;;;;;;;;;;;;;;;;;;;;;;;;;;;;;;;;;;;"1262";"2014-10-13 13:19:48.659";"NST_correctLoc";"15";"1";"FINISHED";"RIGHT";"success";"436";"0";"2014-10-13 13:19:47.395";"2";;;;;;;;;;;;;;;;;;;;;
"123abc";"1995";;"Windows 7";"Rachel's Experiment (D.T.)";"1.0";"2";"1";"1";"2";"1";"1";"2014-10-13 13:12:22.529";"2014-10-13 13:23:57.355";"1";"1";"0";"138";"137";"module.training_block4.exec-9880.GoNoGo4";;;;;;;;;;;;;;;;;;;;;;;;;;;;;;;;;;;;;;;;;;;;;;;;;;;;;;;;;;;"1262";"2014-10-13 13:19:51.217";"ST_correctStop";"29";"1";"FINISHED";"NONE";"success";"0";"1";"2014-10-13 13:19:49.954";"3";;;;;;;;;;;;;;;;;;;;;
"123abc";"1995";;"Windows 7";"Rachel's Experiment (D.T.)";"1.0";"2";"1";"1";"2";"1";"1";"2014-10-13 13:12:22.529";"2014-10-13 13:23:57.355";"1";"1";"0";"139";"138";"module.training_block4.exec-9880.GoNoGo4";;;;;;;;;;;;;;;;;;;;;;;;;;;;;;;;;;;;;;;;;;;;;;;;;;;;;;;;;;;"1262";"2014-10-13 13:19:53.760";"ST_failedStop";"31";"0";"FINISHED";"LEFT";"failure";"423";"1";"2014-10-13 13:19:52.497";"3";;;;;;;;;;;;;;;;;;;;;
"123abc";"1995";;"Windows 7";"Rachel's Experiment (D.T.)";"1.0";"2";"1";"1";"2";"1";"1";"2014-10-13 13:12:22.529";"2014-10-13 13:23:57.355";"1";"1";"0";"140";"139";"module.training_block4.exec-9880.GoNoGo4";;;;;;;;;;;;;;;;;;;;;;;;;;;;;;;;;;;;;;;;;;;;;;;;;;;;;;;;;;;"1262";"2014-10-13 13:19:56.319";"NST_correctLoc";"26";"0";"FINISHED";"LEFT";"success";"433";"0";"2014-10-13 13:19:55.055";"3";;;;;;;;;;;;;;;;;;;;;
"123abc";"1995";;"Windows 7";"Rachel's Experiment (D.T.)";"1.0";"2";"1";"1";"2";"1";"1";"2014-10-13 13:12:22.529";"2014-10-13 13:23:57.355";"1";"1";"0";"141";"140";"module.training_block4.exec-9880.GoNoGo4";;;;;;;;;;;;;;;;;;;;;;;;;;;;;;;;;;;;;;;;;;;;;;;;;;;;;;;;;;;"1261";"2014-10-13 13:19:58.861";"NST_correctLoc";"25";"1";"FINISHED";"RIGHT";"success";"458";"0";"2014-10-13 13:19:57.598";"3";;;;;;;;;;;;;;;;;;;;;
"123abc";"1995";;"Windows 7";"Rachel's Experiment (D.T.)";"1.0";"2";"1";"1";"2";"1";"1";"2014-10-13 13:12:22.529";"2014-10-13 13:23:57.355";"1";"1";"0";"142";"141";"module.training_block4.exec-9880.GoNoGo4";;;;;;;;;;;;;;;;;;;;;;;;;;;;;;;;;;;;;;;;;;;;;;;;;;;;;;;;;;;"1262";"2014-10-13 13:20:01.404";"NST_correctLoc";"17";"0";"FINISHED";"LEFT";"success";"443";"0";"2014-10-13 13:20:00.141";"2";;;;;;;;;;;;;;;;;;;;;
"123abc";"1995";;"Windows 7";"Rachel's Experiment (D.T.)";"1.0";"2";"1";"1";"2";"1";"1";"2014-10-13 13:12:22.529";"2014-10-13 13:23:57.355";"1";"1";"0";"143";"142";"module.training_block4.exec-9880.GoNoGo4";;;;;;;;;;;;;;;;;;;;;;;;;;;;;;;;;;;;;;;;;;;;;;;;;;;;;;;;;;;"1261";"2014-10-13 13:20:03.931";"NST_correctLoc";"30";"0";"FINISHED";"LEFT";"success";"420";"0";"2014-10-13 13:20:02.668";"3";;;;;;;;;;;;;;;;;;;;;
"123abc";"1995";;"Windows 7";"Rachel's Experiment (D.T.)";"1.0";"2";"1";"1";"2";"1";"1";"2014-10-13 13:12:22.529";"2014-10-13 13:23:57.355";"1";"1";"0";"144";"143";"module.training_block4.exec-9880.GoNoGo4";;;;;;;;;;;;;;;;;;;;;;;;;;;;;;;;;;;;;;;;;;;;;;;;;;;;;;;;;;;"1261";"2014-10-13 13:20:06.474";"ST_correctStop";"34";"1";"FINISHED";"NONE";"success";"0";"1";"2014-10-13 13:20:05.211";"3";;;;;;;;;;;;;;;;;;;;;
"123abc";"1995";;"Windows 7";"Rachel's Experiment (D.T.)";"1.0";"2";"1";"1";"2";"1";"1";"2014-10-13 13:12:22.529";"2014-10-13 13:23:57.355";"1";"1";"0";"145";"144";"module.training_block4.exec-9880.GoNoGo4";;;;;;;;;;;;;;;;;;;;;;;;;;;;;;;;;;;;;;;;;;;;;;;;;;;;;;;;;;;"1262";"2014-10-13 13:20:09.001";"NST_correctLoc";"12";"1";"FINISHED";"RIGHT";"success";"566";"0";"2014-10-13 13:20:07.738";"2";;;;;;;;;;;;;;;;;;;;;
"123abc";"1995";;"Windows 7";"Rachel's Experiment (D.T.)";"1.0";"2";"1";"1";"2";"1";"1";"2014-10-13 13:12:22.529";"2014-10-13 13:23:57.355";"1";"1";"0";"146";"145";"module.training_block4.exec-9880.GoNoGo4";;;;;;;;;;;;;;;;;;;;;;;;;;;;;;;;;;;;;;;;;;;;;;;;;;;;;;;;;;;"1261";"2014-10-13 13:20:11.544";"ST_correctStop";"35";"0";"FINISHED";"NONE";"success";"0";"1";"2014-10-13 13:20:10.281";"3";;;;;;;;;;;;;;;;;;;;;
"123abc";"1995";;"Windows 7";"Rachel's Experiment (D.T.)";"1.0";"2";"1";"1";"2";"1";"1";"2014-10-13 13:12:22.529";"2014-10-13 13:23:57.355";"1";"1";"0";"147";"146";"module.training_block4.exec-9880.GoNoGo4";;;;;;;;;;;;;;;;;;;;;;;;;;;;;;;;;;;;;;;;;;;;;;;;;;;;;;;;;;;"1261";"2014-10-13 13:20:14.087";"ST_correctStop";"4";"0";"FINISHED";"NONE";"success";"0";"1";"2014-10-13 13:20:12.823";"1";;;;;;;;;;;;;;;;;;;;;
"123abc";"1995";;"Windows 7";"Rachel's Experiment (D.T.)";"1.0";"2";"1";"1";"2";"1";"1";"2014-10-13 13:12:22.529";"2014-10-13 13:23:57.355";"1";"1";"0";"148";"147";"module.training_block4.exec-9880.GoNoGo4";;;;;;;;;;;;;;;;;;;;;;;;;;;;;;;;;;;;;;;;;;;;;;;;;;;;;;;;;;;"1261";"2014-10-13 13:20:16.630";"ST_correctStop";"19";"1";"FINISHED";"NONE";"success";"0";"1";"2014-10-13 13:20:15.366";"3";;;;;;;;;;;;;;;;;;;;;
"123abc";"1995";;"Windows 7";"Rachel's Experiment (D.T.)";"1.0";"2";"1";"1";"2";"1";"1";"2014-10-13 13:12:22.529";"2014-10-13 13:23:57.355";"1";"1";"0";"149";"148";"module.training_block4.exec-9880.GoNoGo4";;;;;;;;;;;;;;;;;;;;;;;;;;;;;;;;;;;;;;;;;;;;;;;;;;;;;;;;;;;"1262";"2014-10-13 13:20:19.173";"NST_correctLoc";"27";"1";"FINISHED";"RIGHT";"success";"698";"0";"2014-10-13 13:20:17.909";"3";;;;;;;;;;;;;;;;;;;;;
"123abc";"1995";;"Windows 7";"Rachel's Experiment (D.T.)";"1.0";"2";"1";"1";"2";"1";"1";"2014-10-13 13:12:22.529";"2014-10-13 13:23:57.355";"1";"1";"0";"150";"149";"module.training_block4.exec-9880.GoNoGo4";;;;;;;;;;;;;;;;;;;;;;;;;;;;;;;;;;;;;;;;;;;;;;;;;;;;;;;;;;;"1256";"2014-10-13 13:20:21.715";"NST_correctLoc";"10";"1";"FINISHED";"RIGHT";"success";"470";"0";"2014-10-13 13:20:20.452";"2";;;;;;;;;;;;;;;;;;;;;
"123abc";"1995";;"Windows 7";"Rachel's Experiment (D.T.)";"1.0";"2";"1";"1";"2";"1";"1";"2014-10-13 13:12:22.529";"2014-10-13 13:23:57.355";"1";"1";"0";"151";"150";"module.training_block4.exec-9880.GoNoGo4";;;;;;;;;;;;;;;;;;;;;;;;;;;;;;;;;;;;;;;;;;;;;;;;;;;;;;;;;;;"1261";"2014-10-13 13:20:24.243";"NST_correctLoc";"13";"1";"FINISHED";"RIGHT";"success";"444";"0";"2014-10-13 13:20:22.979";"2";;;;;;;;;;;;;;;;;;;;;
"123abc";"1995";;"Windows 7";"Rachel's Experiment (D.T.)";"1.0";"2";"1";"1";"2";"1";"1";"2014-10-13 13:12:22.529";"2014-10-13 13:23:57.355";"1";"1";"0";"152";"151";"module.training_block4.exec-9880.GoNoGo4";;;;;;;;;;;;;;;;;;;;;;;;;;;;;;;;;;;;;;;;;;;;;;;;;;;;;;;;;;;"1262";"2014-10-13 13:20:26.801";"NST_correctLoc";"20";"1";"FINISHED";"RIGHT";"success";"382";"0";"2014-10-13 13:20:25.537";"3";;;;;;;;;;;;;;;;;;;;;
"123abc";"1995";;"Windows 7";"Rachel's Experiment (D.T.)";"1.0";"2";"1";"1";"2";"1";"1";"2014-10-13 13:12:22.529";"2014-10-13 13:23:57.355";"1";"1";"0";"153";"152";"module.training_block4.exec-9880.GoNoGo4";;;;;;;;;;;;;;;;;;;;;;;;;;;;;;;;;;;;;;;;;;;;;;;;;;;;;;;;;;;"1262";"2014-10-13 13:20:29.328";"ST_failedStop";"28";"1";"FINISHED";"RIGHT";"failure";"391";"1";"2014-10-13 13:20:28.065";"3";;;;;;;;;;;;;;;;;;;;;
"123abc";"1995";;"Windows 7";"Rachel's Experiment (D.T.)";"1.0";"2";"1";"1";"2";"1";"1";"2014-10-13 13:12:22.529";"2014-10-13 13:23:57.355";"1";"1";"0";"154";"153";"module.training_block4.exec-9880.GoNoGo4";;;;;;;;;;;;;;;;;;;;;;;;;;;;;;;;;;;;;;;;;;;;;;;;;;;;;;;;;;;"1262";"2014-10-13 13:20:31.855";"NST_miss";"32";"0";"FINISHED";"NONE";"failure";"0";"0";"2014-10-13 13:20:30.592";"3";;;;;;;;;;;;;;;;;;;;;
"123abc";"1995";;"Windows 7";"Rachel's Experiment (D.T.)";"1.0";"2";"1";"1";"2";"1";"1";"2014-10-13 13:12:22.529";"2014-10-13 13:23:57.355";"1";"1";"0";"155";"154";"module.training_block4.exec-9880.GoNoGo4";;;;;;;;;;;;;;;;;;;;;;;;;;;;;;;;;;;;;;;;;;;;;;;;;;;;;;;;;;;"1262";"2014-10-13 13:20:34.383";"ST_correctStop";"0";"1";"FINISHED";"NONE";"success";"0";"1";"2014-10-13 13:20:33.119";"1";;;;;;;;;;;;;;;;;;;;;
"123abc";"1995";;"Windows 7";"Rachel's Experiment (D.T.)";"1.0";"2";"1";"1";"2";"1";"1";"2014-10-13 13:12:22.529";"2014-10-13 13:23:57.355";"1";"1";"0";"156";"155";"module.training_block4.exec-9880.GoNoGo4";;;;;;;;;;;;;;;;;;;;;;;;;;;;;;;;;;;;;;;;;;;;;;;;;;;;;;;;;;;"1261";"2014-10-13 13:20:36.910";"NST_correctLoc";"33";"1";"FINISHED";"RIGHT";"success";"441";"0";"2014-10-13 13:20:35.646";"3";;;;;;;;;;;;;;;;;;;;;
"123abc";"1995";;"Windows 7";"Rachel's Experiment (D.T.)";"1.0";"2";"1";"1";"2";"1";"1";"2014-10-13 13:12:22.529";"2014-10-13 13:23:57.355";"1";"1";"0";"157";"156";"module.training_block4.exec-9880.GoNoGo4";;;;;;;;;;;;;;;;;;;;;;;;;;;;;;;;;;;;;;;;;;;;;;;;;;;;;;;;;;;"1261";"2014-10-13 13:20:39.468";"ST_correctStop";"6";"0";"FINISHED";"NONE";"success";"0";"1";"2014-10-13 13:20:38.205";"1";;;;;;;;;;;;;;;;;;;;;
"123abc";"1995";;"Windows 7";"Rachel's Experiment (D.T.)";"1.0";"2";"1";"1";"2";"1";"1";"2014-10-13 13:12:22.529";"2014-10-13 13:23:57.355";"1";"1";"0";"158";"157";"module.training_block4.exec-9880.GoNoGo4";;;;;;;;;;;;;;;;;;;;;;;;;;;;;;;;;;;;;;;;;;;;;;;;;;;;;;;;;;;"1262";"2014-10-13 13:20:42.011";"ST_correctStop";"1";"1";"FINISHED";"NONE";"success";"0";"1";"2014-10-13 13:20:40.747";"1";;;;;;;;;;;;;;;;;;;;;
"123abc";"1995";;"Windows 7";"Rachel's Experiment (D.T.)";"1.0";"2";"1";"1";"2";"1";"1";"2014-10-13 13:12:22.529";"2014-10-13 13:23:57.355";"1";"1";"0";"159";"158";"module.training_block4.exec-9880.GoNoGo4";;;;;;;;;;;;;;;;;;;;;;;;;;;;;;;;;;;;;;;;;;;;;;;;;;;;;;;;;;;"1262";"2014-10-13 13:20:44.554";"ST_correctStop";"2";"0";"FINISHED";"NONE";"success";"0";"1";"2014-10-13 13:20:43.290";"1";;;;;;;;;;;;;;;;;;;;;
"123abc";"1995";;"Windows 7";"Rachel's Experiment (D.T.)";"1.0";"2";"1";"1";"2";"1";"1";"2014-10-13 13:12:22.529";"2014-10-13 13:23:57.355";"1";"1";"0";"160";"159";"module.devaluation_practice.exec-8601.devalPractice";;;;;;;;;;;;"13659";"2014-10-13 13:21:24.974";"0";"5";"5";"6";"6354";"1335";"2920";"2014-10-13 13:21:11.308";;;;;;;;;;;;;;;;;;;;;;;;;;;;;;;;;;;;;;;;;;;;;;;;;;;;;;;;;;;;;;;;;;;;;;
"123abc";"1995";;"Windows 7";"Rachel's Experiment (D.T.)";"1.0";"2";"1";"1";"2";"1";"1";"2014-10-13 13:12:22.529";"2014-10-13 13:23:57.355";"1";"1";"0";"161";"160";"module.devaluation_practice.exec-8601.devalPractice";;;;;;;;;;;;"6310";"2014-10-13 13:21:31.307";"1";"6";"5";"5";"1684";"650";"936";"2014-10-13 13:21:25.005";;;;;;;;;;;;;;;;;;;;;;;;;;;;;;;;;;;;;;;;;;;;;;;;;;;;;;;;;;;;;;;;;;;;;;
"123abc";"1995";;"Windows 7";"Rachel's Experiment (D.T.)";"1.0";"2";"1";"1";"2";"1";"1";"2014-10-13 13:12:22.529";"2014-10-13 13:23:57.355";"1";"1";"0";"162";"161";"module.devaluation_practice.exec-8601.devalPractice";;;;;;;;;;;;"5060";"2014-10-13 13:21:36.393";"2";"6";"6";"6";"855";"551";"612";"2014-10-13 13:21:31.338";;;;;;;;;;;;;;;;;;;;;;;;;;;;;;;;;;;;;;;;;;;;;;;;;;;;;;;;;;;;;;;;;;;;;;
"123abc";"1995";;"Windows 7";"Rachel's Experiment (D.T.)";"1.0";"2";"1";"1";"2";"1";"1";"2014-10-13 13:12:22.529";"2014-10-13 13:23:57.355";"1";"1";"0";"163";"162";"module.devaluation_practice.exec-8601.devalPractice";;;;;;;;;;;;"5516";"2014-10-13 13:21:41.931";"3";"4";"4";"4";"1441";"518";"541";"2014-10-13 13:21:36.408";;;;;;;;;;;;;;;;;;;;;;;;;;;;;;;;;;;;;;;;;;;;;;;;;;;;;;;;;;;;;;;;;;;;;;
"123abc";"1995";;"Windows 7";"Rachel's Experiment (D.T.)";"1.0";"2";"1";"1";"2";"1";"1";"2014-10-13 13:12:22.529";"2014-10-13 13:23:57.355";"1";"1";"0";"164";"163";"module.devaluation_block1.exec-9674.deval1";"6629";"2014-10-13 13:21:52.523";"25";"7";"7";"7";"1531";"1188";"880";"2014-10-13 13:21:45.893";"3";;;;;;;;;;;;;;;;;;;;;;;;;;;;;;;;;;;;;;;;;;;;;;;;;;;;;;;;;;;;;;;;;;;;;;;;;;;;;;;;
"123abc";"1995";;"Windows 7";"Rachel's Experiment (D.T.)";"1.0";"2";"1";"1";"2";"1";"1";"2014-10-13 13:12:22.529";"2014-10-13 13:23:57.355";"1";"1";"0";"165";"164";"module.devaluation_block1.exec-9674.deval1";"6796";"2014-10-13 13:21:59.340";"5";"7";"8";"8";"1654";"953";"1149";"2014-10-13 13:21:52.539";"1";;;;;;;;;;;;;;;;;;;;;;;;;;;;;;;;;;;;;;;;;;;;;;;;;;;;;;;;;;;;;;;;;;;;;;;;;;;;;;;;
"123abc";"1995";;"Windows 7";"Rachel's Experiment (D.T.)";"1.0";"2";"1";"1";"2";"1";"1";"2014-10-13 13:12:22.529";"2014-10-13 13:23:57.355";"1";"1";"0";"166";"165";"module.devaluation_block1.exec-9674.deval1";"6300";"2014-10-13 13:22:05.658";"2";"5";"7";"7";"1253";"612";"1402";"2014-10-13 13:21:59.356";"1";;;;;;;;;;;;;;;;;;;;;;;;;;;;;;;;;;;;;;;;;;;;;;;;;;;;;;;;;;;;;;;;;;;;;;;;;;;;;;;;
"123abc";"1995";;"Windows 7";"Rachel's Experiment (D.T.)";"1.0";"2";"1";"1";"2";"1";"1";"2014-10-13 13:12:22.529";"2014-10-13 13:23:57.355";"1";"1";"0";"167";"166";"module.devaluation_block1.exec-9674.deval1";"4971";"2014-10-13 13:22:10.650";"4";"6";"7";"7";"679";"596";"670";"2014-10-13 13:22:05.674";"1";;;;;;;;;;;;;;;;;;;;;;;;;;;;;;;;;;;;;;;;;;;;;;;;;;;;;;;;;;;;;;;;;;;;;;;;;;;;;;;;
"123abc";"1995";;"Windows 7";"Rachel's Experiment (D.T.)";"1.0";"2";"1";"1";"2";"1";"1";"2014-10-13 13:12:22.529";"2014-10-13 13:23:57.355";"1";"1";"0";"168";"167";"module.devaluation_block1.exec-9674.deval1";"5075";"2014-10-13 13:22:15.752";"24";"7";"8";"7";"607";"700";"740";"2014-10-13 13:22:10.666";"3";;;;;;;;;;;;;;;;;;;;;;;;;;;;;;;;;;;;;;;;;;;;;;;;;;;;;;;;;;;;;;;;;;;;;;;;;;;;;;;;
"123abc";"1995";;"Windows 7";"Rachel's Experiment (D.T.)";"1.0";"2";"1";"1";"2";"1";"1";"2014-10-13 13:12:22.529";"2014-10-13 13:23:57.355";"1";"1";"0";"169";"168";"module.devaluation_block1.exec-9674.deval1";"3876";"2014-10-13 13:22:19.636";"11";"5";"5";"5";"322";"150";"383";"2014-10-13 13:22:15.767";"2";;;;;;;;;;;;;;;;;;;;;;;;;;;;;;;;;;;;;;;;;;;;;;;;;;;;;;;;;;;;;;;;;;;;;;;;;;;;;;;;
"123abc";"1995";;"Windows 7";"Rachel's Experiment (D.T.)";"1.0";"2";"1";"1";"2";"1";"1";"2014-10-13 13:12:22.529";"2014-10-13 13:23:57.355";"1";"1";"0";"170";"169";"module.devaluation_block1.exec-9674.deval1";"4236";"2014-10-13 13:22:23.895";"20";"6";"6";"6";"542";"241";"433";"2014-10-13 13:22:19.667";"3";;;;;;;;;;;;;;;;;;;;;;;;;;;;;;;;;;;;;;;;;;;;;;;;;;;;;;;;;;;;;;;;;;;;;;;;;;;;;;;;
"123abc";"1995";;"Windows 7";"Rachel's Experiment (D.T.)";"1.0";"2";"1";"1";"2";"1";"1";"2014-10-13 13:12:22.529";"2014-10-13 13:23:57.355";"1";"1";"0";"171";"170";"module.devaluation_block1.exec-9674.deval1";"4140";"2014-10-13 13:22:28.060";"7";"6";"6";"6";"499";"329";"293";"2014-10-13 13:22:23.910";"1";;;;;;;;;;;;;;;;;;;;;;;;;;;;;;;;;;;;;;;;;;;;;;;;;;;;;;;;;;;;;;;;;;;;;;;;;;;;;;;;
"123abc";"1995";;"Windows 7";"Rachel's Experiment (D.T.)";"1.0";"2";"1";"1";"2";"1";"1";"2014-10-13 13:12:22.529";"2014-10-13 13:23:57.355";"1";"1";"0";"172";"171";"module.devaluation_block1.exec-9674.deval1";"4829";"2014-10-13 13:22:32.912";"1";"6";"7";"7";"525";"778";"496";"2014-10-13 13:22:28.076";"1";;;;;;;;;;;;;;;;;;;;;;;;;;;;;;;;;;;;;;;;;;;;;;;;;;;;;;;;;;;;;;;;;;;;;;;;;;;;;;;;
"123abc";"1995";;"Windows 7";"Rachel's Experiment (D.T.)";"1.0";"2";"1";"1";"2";"1";"1";"2014-10-13 13:12:22.529";"2014-10-13 13:23:57.355";"1";"1";"0";"173";"172";"module.devaluation_block1.exec-9674.deval1";"5412";"2014-10-13 13:22:38.340";"8";"8";"9";"9";"802";"687";"899";"2014-10-13 13:22:32.927";"1";;;;;;;;;;;;;;;;;;;;;;;;;;;;;;;;;;;;;;;;;;;;;;;;;;;;;;;;;;;;;;;;;;;;;;;;;;;;;;;;
"123abc";"1995";;"Windows 7";"Rachel's Experiment (D.T.)";"1.0";"2";"1";"1";"2";"1";"1";"2014-10-13 13:12:22.529";"2014-10-13 13:23:57.355";"1";"1";"0";"174";"173";"module.devaluation_block1.exec-9674.deval1";"3836";"2014-10-13 13:22:42.194";"9";"5";"5";"5";"325";"176";"299";"2014-10-13 13:22:38.356";"2";;;;;;;;;;;;;;;;;;;;;;;;;;;;;;;;;;;;;;;;;;;;;;;;;;;;;;;;;;;;;;;;;;;;;;;;;;;;;;;;
"123abc";"1995";;"Windows 7";"Rachel's Experiment (D.T.)";"1.0";"2";"1";"1";"2";"1";"1";"2014-10-13 13:12:22.529";"2014-10-13 13:23:57.355";"1";"1";"0";"175";"174";"module.devaluation_block1.exec-9674.deval1";"4986";"2014-10-13 13:22:47.201";"19";"5";"7";"7";"392";"831";"735";"2014-10-13 13:22:42.209";"3";;;;;;;;;;;;;;;;;;;;;;;;;;;;;;;;;;;;;;;;;;;;;;;;;;;;;;;;;;;;;;;;;;;;;;;;;;;;;;;;
"123abc";"1995";;"Windows 7";"Rachel's Experiment (D.T.)";"1.0";"2";"1";"1";"2";"1";"1";"2014-10-13 13:12:22.529";"2014-10-13 13:23:57.355";"1";"1";"0";"176";"175";"module.devaluation_block1.exec-9674.deval1";"4698";"2014-10-13 13:22:51.928";"21";"3";"5";"5";"1089";"208";"362";"2014-10-13 13:22:47.232";"3";;;;;;;;;;;;;;;;;;;;;;;;;;;;;;;;;;;;;;;;;;;;;;;;;;;;;;;;;;;;;;;;;;;;;;;;;;;;;;;;
"123abc";"1995";;"Windows 7";"Rachel's Experiment (D.T.)";"1.0";"2";"1";"1";"2";"1";"1";"2014-10-13 13:12:22.529";"2014-10-13 13:23:57.355";"1";"1";"0";"177";"176";"module.devaluation_block1.exec-9674.deval1";"6157";"2014-10-13 13:22:58.106";"3";"8";"8";"9";"1393";"659";"1074";"2014-10-13 13:22:51.944";"1";;;;;;;;;;;;;;;;;;;;;;;;;;;;;;;;;;;;;;;;;;;;;;;;;;;;;;;;;;;;;;;;;;;;;;;;;;;;;;;;
"123abc";"1995";;"Windows 7";"Rachel's Experiment (D.T.)";"1.0";"2";"1";"1";"2";"1";"1";"2014-10-13 13:12:22.529";"2014-10-13 13:23:57.355";"1";"1";"0";"178";"177";"module.devaluation_block1.exec-9674.deval1";"4859";"2014-10-13 13:23:02.989";"0";"6";"7";"7";"568";"603";"651";"2014-10-13 13:22:58.121";"1";;;;;;;;;;;;;;;;;;;;;;;;;;;;;;;;;;;;;;;;;;;;;;;;;;;;;;;;;;;;;;;;;;;;;;;;;;;;;;;;
"123abc";"1995";;"Windows 7";"Rachel's Experiment (D.T.)";"1.0";"2";"1";"1";"2";"1";"1";"2014-10-13 13:12:22.529";"2014-10-13 13:23:57.355";"1";"1";"0";"179";"178";"module.devaluation_block1.exec-9674.deval1";"5862";"2014-10-13 13:23:08.885";"23";"4";"4";"4";"735";"609";"1479";"2014-10-13 13:23:03.020";"3";;;;;;;;;;;;;;;;;;;;;;;;;;;;;;;;;;;;;;;;;;;;;;;;;;;;;;;;;;;;;;;;;;;;;;;;;;;;;;;;
"123abc";"1995";;"Windows 7";"Rachel's Experiment (D.T.)";"1.0";"2";"1";"1";"2";"1";"1";"2014-10-13 13:12:22.529";"2014-10-13 13:23:57.355";"1";"1";"0";"180";"179";"module.devaluation_block1.exec-9674.deval1";"3636";"2014-10-13 13:23:12.536";"22";"5";"5";"5";"268";"99";"232";"2014-10-13 13:23:08.901";"3";;;;;;;;;;;;;;;;;;;;;;;;;;;;;;;;;;;;;;;;;;;;;;;;;;;;;;;;;;;;;;;;;;;;;;;;;;;;;;;;
"123abc";"1995";;"Windows 7";"Rachel's Experiment (D.T.)";"1.0";"2";"1";"1";"2";"1";"1";"2014-10-13 13:12:22.529";"2014-10-13 13:23:57.355";"1";"1";"0";"181";"180";"module.devaluation_block1.exec-9674.deval1";"4523";"2014-10-13 13:23:17.075";"15";"6";"6";"6";"554";"416";"533";"2014-10-13 13:23:12.551";"2";;;;;;;;;;;;;;;;;;;;;;;;;;;;;;;;;;;;;;;;;;;;;;;;;;;;;;;;;;;;;;;;;;;;;;;;;;;;;;;;
"123abc";"1995";;"Windows 7";"Rachel's Experiment (D.T.)";"1.0";"2";"1";"1";"2";"1";"1";"2014-10-13 13:12:22.529";"2014-10-13 13:23:57.355";"1";"1";"0";"182";"181";"module.devaluation_block1.exec-9674.deval1";"3748";"2014-10-13 13:23:20.851";"6";"5";"5";"5";"263";"237";"203";"2014-10-13 13:23:17.107";"1";;;;;;;;;;;;;;;;;;;;;;;;;;;;;;;;;;;;;;;;;;;;;;;;;;;;;;;;;;;;;;;;;;;;;;;;;;;;;;;;
"123abc";"1995";;"Windows 7";"Rachel's Experiment (D.T.)";"1.0";"2";"1";"1";"2";"1";"1";"2014-10-13 13:12:22.529";"2014-10-13 13:23:57.355";"1";"1";"0";"183";"182";"module.devaluation_block1.exec-9674.deval1";"4452";"2014-10-13 13:23:25.328";"18";"5";"6";"6";"311";"590";"511";"2014-10-13 13:23:20.866";"3";;;;;;;;;;;;;;;;;;;;;;;;;;;;;;;;;;;;;;;;;;;;;;;;;;;;;;;;;;;;;;;;;;;;;;;;;;;;;;;;
"123abc";"1995";;"Windows 7";"Rachel's Experiment (D.T.)";"1.0";"2";"1";"1";"2";"1";"1";"2014-10-13 13:12:22.529";"2014-10-13 13:23:57.355";"1";"1";"0";"184";"183";"module.devaluation_block1.exec-9674.deval1";"4276";"2014-10-13 13:23:29.618";"12";"6";"6";"6";"529";"315";"396";"2014-10-13 13:23:25.343";"2";;;;;;;;;;;;;;;;;;;;;;;;;;;;;;;;;;;;;;;;;;;;;;;;;;;;;;;;;;;;;;;;;;;;;;;;;;;;;;;;
"123abc";"1995";;"Windows 7";"Rachel's Experiment (D.T.)";"1.0";"2";"1";"1";"2";"1";"1";"2014-10-13 13:12:22.529";"2014-10-13 13:23:57.355";"1";"1";"0";"185";"184";"module.devaluation_block1.exec-9674.deval1";"4809";"2014-10-13 13:23:34.454";"14";"6";"6";"6";"584";"834";"356";"2014-10-13 13:23:29.649";"2";;;;;;;;;;;;;;;;;;;;;;;;;;;;;;;;;;;;;;;;;;;;;;;;;;;;;;;;;;;;;;;;;;;;;;;;;;;;;;;;
"123abc";"1995";;"Windows 7";"Rachel's Experiment (D.T.)";"1.0";"2";"1";"1";"2";"1";"1";"2014-10-13 13:12:22.529";"2014-10-13 13:23:57.355";"1";"1";"0";"186";"185";"module.devaluation_block1.exec-9674.deval1";"5692";"2014-10-13 13:23:40.163";"26";"8";"8";"8";"892";"712";"1064";"2014-10-13 13:23:34.469";"3";;;;;;;;;;;;;;;;;;;;;;;;;;;;;;;;;;;;;;;;;;;;;;;;;;;;;;;;;;;;;;;;;;;;;;;;;;;;;;;;
"123abc";"1995";;"Windows 7";"Rachel's Experiment (D.T.)";"1.0";"2";"1";"1";"2";"1";"1";"2014-10-13 13:12:22.529";"2014-10-13 13:23:57.355";"1";"1";"0";"187";"186";"module.devaluation_block1.exec-9674.deval1";"3744";"2014-10-13 13:23:43.939";"16";"5";"5";"5";"214";"252";"249";"2014-10-13 13:23:40.195";"2";;;;;;;;;;;;;;;;;;;;;;;;;;;;;;;;;;;;;;;;;;;;;;;;;;;;;;;;;;;;;;;;;;;;;;;;;;;;;;;;
"123abc";"1995";;"Windows 7";"Rachel's Experiment (D.T.)";"1.0";"2";"1";"1";"2";"1";"1";"2014-10-13 13:12:22.529";"2014-10-13 13:23:57.355";"1";"1";"0";"188";"187";"module.devaluation_block1.exec-9674.deval1";"3867";"2014-10-13 13:23:47.823";"13";"5";"5";"5";"303";"256";"292";"2014-10-13 13:23:43.954";"2";;;;;;;;;;;;;;;;;;;;;;;;;;;;;;;;;;;;;;;;;;;;;;;;;;;;;;;;;;;;;;;;;;;;;;;;;;;;;;;;
"123abc";"1995";;"Windows 7";"Rachel's Experiment (D.T.)";"1.0";"2";"1";"1";"2";"1";"1";"2014-10-13 13:12:22.529";"2014-10-13 13:23:57.355";"1";"1";"0";"189";"188";"module.devaluation_block1.exec-9674.deval1";"3900";"2014-10-13 13:23:51.739";"10";"5";"5";"5";"402";"229";"234";"2014-10-13 13:23:47.839";"2";;;;;;;;;;;;;;;;;;;;;;;;;;;;;;;;;;;;;;;;;;;;;;;;;;;;;;;;;;;;;;;;;;;;;;;;;;;;;;;;
"123abc";"1995";;"Windows 7";"Rachel's Experiment (D.T.)";"1.0";"2";"1";"1";"2";"1";"1";"2014-10-13 13:12:22.529";"2014-10-13 13:23:57.355";"1";"1";"0";"190";"189";"module.devaluation_block1.exec-9674.deval1";"3924";"2014-10-13 13:23:55.685";"17";"5";"5";"5";"311";"242";"324";"2014-10-13 13:23:51.770";"2";;;;;;;;;;;;;;;;;;;;;;;;;;;;;;;;;;;;;;;;;;;;;;;;;;;;;;;;;;;;;;;;;;;;;;;;;;;;;;;;
