"user.name";"user.yearOfBirth";"user.sex";"user.osName";"module.name";"module.version";"module.online.subject.code";"module.online.study.id";"module.online.module.nr";"module.online.group.nr";"session.id";"session.index";"session.startTime";"session.endTime";"session.completed";"session.node-1447.DevalQorder";"session.node-7849.conditionType";"trial.id";"trial.index";"trial.name";"trial.deval1.durationTime";"trial.deval1.endTime";"trial.deval1.icon";"trial.deval1.Resp_Attractive";"trial.deval1.Resp_Eat";"trial.deval1.Resp_Taste";"trial.deval1.RT_Attractive";"trial.deval1.RT_Eat";"trial.deval1.RT_Taste";"trial.deval1.startTime";"trial.deval1.stimulus type";"trial.devalPractice.durationTime";"trial.devalPractice.endTime";"trial.devalPractice.icon";"trial.devalPractice.Resp_Attractive";"trial.devalPractice.Resp_Eat";"trial.devalPractice.Resp_Taste";"trial.devalPractice.RT_Attractive";"trial.devalPractice.RT_Eat";"trial.devalPractice.RT_Taste";"trial.devalPractice.startTime";"trial.devalPractice.stimulus type";"trial.GoNoGo1.durationTime";"trial.GoNoGo1.endTime";"trial.GoNoGo1.Error Type";"trial.GoNoGo1.icon";"trial.GoNoGo1.location";"trial.GoNoGo1.outcome";"trial.GoNoGo1.response";"trial.GoNoGo1.result";"trial.GoNoGo1.RT";"trial.GoNoGo1.signal";"trial.GoNoGo1.startTime";"trial.GoNoGo1.stimulus type";"trial.GoNoGo2.durationTime";"trial.GoNoGo2.endTime";"trial.GoNoGo2.Error Type";"trial.GoNoGo2.icon";"trial.GoNoGo2.location";"trial.GoNoGo2.outcome";"trial.GoNoGo2.response";"trial.GoNoGo2.result";"trial.GoNoGo2.RT";"trial.GoNoGo2.signal";"trial.GoNoGo2.startTime";"trial.GoNoGo2.stimulus type";"trial.GoNoGo3.durationTime";"trial.GoNoGo3.endTime";"trial.GoNoGo3.Error Type";"trial.GoNoGo3.icon";"trial.GoNoGo3.location";"trial.GoNoGo3.outcome";"trial.GoNoGo3.response";"trial.GoNoGo3.result";"trial.GoNoGo3.RT";"trial.GoNoGo3.signal";"trial.GoNoGo3.startTime";"trial.GoNoGo3.stimulus type";"trial.GoNoGo4.durationTime";"trial.GoNoGo4.endTime";"trial.GoNoGo4.Error Type";"trial.GoNoGo4.icon";"trial.GoNoGo4.location";"trial.GoNoGo4.outcome";"trial.GoNoGo4.response";"trial.GoNoGo4.result";"trial.GoNoGo4.RT";"trial.GoNoGo4.signal";"trial.GoNoGo4.startTime";"trial.GoNoGo4.stimulus type";"trial.GoNoGo_Practice.durationTime";"trial.GoNoGo_Practice.endTime";"trial.GoNoGo_Practice.icon";"trial.GoNoGo_Practice.location";"trial.GoNoGo_Practice.outcome";"trial.GoNoGo_Practice.response";"trial.GoNoGo_Practice.result";"trial.GoNoGo_Practice.RT";"trial.GoNoGo_Practice.signal";"trial.GoNoGo_Practice.startTime";"trial.GoNoGo_Practice.stimulus type";"trial.GoNoGo_Tutorial.durationTime";"trial.GoNoGo_Tutorial.endTime";"trial.GoNoGo_Tutorial.icon";"trial.GoNoGo_Tutorial.location";"trial.GoNoGo_Tutorial.outcome";"trial.GoNoGo_Tutorial.response";"trial.GoNoGo_Tutorial.result";"trial.GoNoGo_Tutorial.RT";"trial.GoNoGo_Tutorial.signal";"trial.GoNoGo_Tutorial.startTime"
"laurenh_96";"1996";;"Windows 7";"Rachel's Experiment (D.T.)";"1.0";"2";"1";"1";"2";"1";"1";"2014-10-13 12:57:22.565";"2014-10-13 13:12:42.126";"1";"1";"1";"1";"0";"module.GoNoGotutorial.exec-1391.GoNoGo_Tutorial";;;;;;;;;;;;;;;;;;;;;;;;;;;;;;;;;;;;;;;;;;;;;;;;;;;;;;;;;;;;;;;;;;;;;;;;;;;;;;;;;;"3996";"2014-10-13 12:58:32.175";"leftResponse";"0";"FINISHED";"NONE";"failure";"0";"0";"2014-10-13 12:58:28.175"
"laurenh_96";"1996";;"Windows 7";"Rachel's Experiment (D.T.)";"1.0";"2";"1";"1";"2";"1";"1";"2014-10-13 12:57:22.565";"2014-10-13 13:12:42.126";"1";"1";"1";"2";"1";"module.GoNoGotutorial.exec-1391.GoNoGo_Tutorial";;;;;;;;;;;;;;;;;;;;;;;;;;;;;;;;;;;;;;;;;;;;;;;;;;;;;;;;;;;;;;;;;;;;;;;;;;;;;;;;;;"3993";"2014-10-13 12:58:37.455";"rightResponse";"1";"FINISHED";"NONE";"failure";"0";"0";"2014-10-13 12:58:33.455"
"laurenh_96";"1996";;"Windows 7";"Rachel's Experiment (D.T.)";"1.0";"2";"1";"1";"2";"1";"1";"2014-10-13 12:57:22.565";"2014-10-13 13:12:42.126";"1";"1";"1";"3";"2";"module.GoNoGotutorial.exec-1391.GoNoGo_Tutorial";;;;;;;;;;;;;;;;;;;;;;;;;;;;;;;;;;;;;;;;;;;;;;;;;;;;;;;;;;;;;;;;;;;;;;;;;;;;;;;;;;"3993";"2014-10-13 12:58:42.735";"signalResponse";"0";"FINISHED";"NONE";"success";"0";"1";"2014-10-13 12:58:38.735"
"laurenh_96";"1996";;"Windows 7";"Rachel's Experiment (D.T.)";"1.0";"2";"1";"1";"2";"1";"1";"2014-10-13 12:57:22.565";"2014-10-13 13:12:42.126";"1";"1";"1";"4";"3";"module.GoNoGopractice.exec-1021.GoNoGo_Practice";;;;;;;;;;;;;;;;;;;;;;;;;;;;;;;;;;;;;;;;;;;;;;;;;;;;;;;;;;;;;;;;;;;;;;;"1943";"2014-10-13 12:58:49.925";"18";"0";"FINISHED";"LEFT";"success";"645";"0";"2014-10-13 12:58:47.975";"3";;;;;;;;;;
"laurenh_96";"1996";;"Windows 7";"Rachel's Experiment (D.T.)";"1.0";"2";"1";"1";"2";"1";"1";"2014-10-13 12:57:22.565";"2014-10-13 13:12:42.126";"1";"1";"1";"5";"4";"module.GoNoGopractice.exec-1021.GoNoGo_Practice";;;;;;;;;;;;;;;;;;;;;;;;;;;;;;;;;;;;;;;;;;;;;;;;;;;;;;;;;;;;;;;;;;;;;;;"1943";"2014-10-13 12:58:53.155";"21";"1";"FINISHED";"RIGHT";"success";"519";"0";"2014-10-13 12:58:51.205";"3";;;;;;;;;;
"laurenh_96";"1996";;"Windows 7";"Rachel's Experiment (D.T.)";"1.0";"2";"1";"1";"2";"1";"1";"2014-10-13 12:57:22.565";"2014-10-13 13:12:42.126";"1";"1";"1";"6";"5";"module.GoNoGopractice.exec-1021.GoNoGo_Practice";;;;;;;;;;;;;;;;;;;;;;;;;;;;;;;;;;;;;;;;;;;;;;;;;;;;;;;;;;;;;;;;;;;;;;;"1943";"2014-10-13 12:58:56.375";"14";"1";"FINISHED";"RIGHT";"failure";"612";"1";"2014-10-13 12:58:54.425";"2";;;;;;;;;;
"laurenh_96";"1996";;"Windows 7";"Rachel's Experiment (D.T.)";"1.0";"2";"1";"1";"2";"1";"1";"2014-10-13 12:57:22.565";"2014-10-13 13:12:42.126";"1";"1";"1";"7";"6";"module.GoNoGopractice.exec-1021.GoNoGo_Practice";;;;;;;;;;;;;;;;;;;;;;;;;;;;;;;;;;;;;;;;;;;;;;;;;;;;;;;;;;;;;;;;;;;;;;;"1943";"2014-10-13 12:58:59.605";"26";"0";"FINISHED";"LEFT";"success";"814";"0";"2014-10-13 12:58:57.655";"3";;;;;;;;;;
"laurenh_96";"1996";;"Windows 7";"Rachel's Experiment (D.T.)";"1.0";"2";"1";"1";"2";"1";"1";"2014-10-13 12:57:22.565";"2014-10-13 13:12:42.126";"1";"1";"1";"8";"7";"module.GoNoGopractice.exec-1021.GoNoGo_Practice";;;;;;;;;;;;;;;;;;;;;;;;;;;;;;;;;;;;;;;;;;;;;;;;;;;;;;;;;;;;;;;;;;;;;;;"1943";"2014-10-13 12:59:02.825";"2";"0";"FINISHED";"LEFT";"success";"674";"0";"2014-10-13 12:59:00.875";"1";;;;;;;;;;
"laurenh_96";"1996";;"Windows 7";"Rachel's Experiment (D.T.)";"1.0";"2";"1";"1";"2";"1";"1";"2014-10-13 12:57:22.565";"2014-10-13 13:12:42.126";"1";"1";"1";"9";"8";"module.GoNoGopractice.exec-1021.GoNoGo_Practice";;;;;;;;;;;;;;;;;;;;;;;;;;;;;;;;;;;;;;;;;;;;;;;;;;;;;;;;;;;;;;;;;;;;;;;"1943";"2014-10-13 12:59:06.045";"30";"0";"FINISHED";"LEFT";"failure";"518";"1";"2014-10-13 12:59:04.095";"3";;;;;;;;;;
"laurenh_96";"1996";;"Windows 7";"Rachel's Experiment (D.T.)";"1.0";"2";"1";"1";"2";"1";"1";"2014-10-13 12:57:22.565";"2014-10-13 13:12:42.126";"1";"1";"1";"10";"9";"module.GoNoGopractice.exec-1021.GoNoGo_Practice";;;;;;;;;;;;;;;;;;;;;;;;;;;;;;;;;;;;;;;;;;;;;;;;;;;;;;;;;;;;;;;;;;;;;;;"1943";"2014-10-13 12:59:09.265";"6";"1";"FINISHED";"NONE";"success";"0";"1";"2014-10-13 12:59:07.315";"1";;;;;;;;;;
"laurenh_96";"1996";;"Windows 7";"Rachel's Experiment (D.T.)";"1.0";"2";"1";"1";"2";"1";"1";"2014-10-13 12:57:22.565";"2014-10-13 13:12:42.126";"1";"1";"1";"11";"10";"module.GoNoGopractice.exec-1021.GoNoGo_Practice";;;;;;;;;;;;;;;;;;;;;;;;;;;;;;;;;;;;;;;;;;;;;;;;;;;;;;;;;;;;;;;;;;;;;;;"1944";"2014-10-13 12:59:12.495";"34";"0";"FINISHED";"LEFT";"success";"717";"0";"2014-10-13 12:59:10.545";"3";;;;;;;;;;
"laurenh_96";"1996";;"Windows 7";"Rachel's Experiment (D.T.)";"1.0";"2";"1";"1";"2";"1";"1";"2014-10-13 12:57:22.565";"2014-10-13 13:12:42.126";"1";"1";"1";"12";"11";"module.GoNoGopractice.exec-1021.GoNoGo_Practice";;;;;;;;;;;;;;;;;;;;;;;;;;;;;;;;;;;;;;;;;;;;;;;;;;;;;;;;;;;;;;;;;;;;;;;"1943";"2014-10-13 12:59:15.715";"23";"1";"FINISHED";"RIGHT";"success";"575";"0";"2014-10-13 12:59:13.765";"3";;;;;;;;;;
"laurenh_96";"1996";;"Windows 7";"Rachel's Experiment (D.T.)";"1.0";"2";"1";"1";"2";"1";"1";"2014-10-13 12:57:22.565";"2014-10-13 13:12:42.126";"1";"1";"1";"13";"12";"module.GoNoGopractice.exec-1021.GoNoGo_Practice";;;;;;;;;;;;;;;;;;;;;;;;;;;;;;;;;;;;;;;;;;;;;;;;;;;;;;;;;;;;;;;;;;;;;;;"1943";"2014-10-13 12:59:18.935";"13";"0";"FINISHED";"NONE";"success";"0";"1";"2014-10-13 12:59:16.985";"2";;;;;;;;;;
"laurenh_96";"1996";;"Windows 7";"Rachel's Experiment (D.T.)";"1.0";"2";"1";"1";"2";"1";"1";"2014-10-13 12:57:22.565";"2014-10-13 13:12:42.126";"1";"1";"1";"14";"13";"module.GoNoGopractice.exec-1021.GoNoGo_Practice";;;;;;;;;;;;;;;;;;;;;;;;;;;;;;;;;;;;;;;;;;;;;;;;;;;;;;;;;;;;;;;;;;;;;;;"1944";"2014-10-13 12:59:22.155";"3";"1";"FINISHED";"NONE";"failure";"0";"0";"2014-10-13 12:59:20.205";"1";;;;;;;;;;
"laurenh_96";"1996";;"Windows 7";"Rachel's Experiment (D.T.)";"1.0";"2";"1";"1";"2";"1";"1";"2014-10-13 12:57:22.565";"2014-10-13 13:12:42.126";"1";"1";"1";"15";"14";"module.GoNoGopractice.exec-1021.GoNoGo_Practice";;;;;;;;;;;;;;;;;;;;;;;;;;;;;;;;;;;;;;;;;;;;;;;;;;;;;;;;;;;;;;;;;;;;;;;"1943";"2014-10-13 12:59:25.375";"27";"1";"FINISHED";"RIGHT";"failure";"540";"1";"2014-10-13 12:59:23.425";"3";;;;;;;;;;
"laurenh_96";"1996";;"Windows 7";"Rachel's Experiment (D.T.)";"1.0";"2";"1";"1";"2";"1";"1";"2014-10-13 12:57:22.565";"2014-10-13 13:12:42.126";"1";"1";"1";"16";"15";"module.training_block1.exec-1811.GoNoGo1";;;;;;;;;;;;;;;;;;;;;;;"1247";"2014-10-13 12:59:37.455";"ST_failedStop";"18";"1";"FINISHED";"RIGHT";"failure";"666";"1";"2014-10-13 12:59:36.205";"3";;;;;;;;;;;;;;;;;;;;;;;;;;;;;;;;;;;;;;;;;;;;;;;;;;;;;;;;;
"laurenh_96";"1996";;"Windows 7";"Rachel's Experiment (D.T.)";"1.0";"2";"1";"1";"2";"1";"1";"2014-10-13 12:57:22.565";"2014-10-13 13:12:42.126";"1";"1";"1";"17";"16";"module.training_block1.exec-1811.GoNoGo1";;;;;;;;;;;;;;;;;;;;;;;"1243";"2014-10-13 12:59:39.975";"ST_failedStop";"1";"1";"FINISHED";"RIGHT";"failure";"663";"1";"2014-10-13 12:59:38.725";"1";;;;;;;;;;;;;;;;;;;;;;;;;;;;;;;;;;;;;;;;;;;;;;;;;;;;;;;;;
"laurenh_96";"1996";;"Windows 7";"Rachel's Experiment (D.T.)";"1.0";"2";"1";"1";"2";"1";"1";"2014-10-13 12:57:22.565";"2014-10-13 13:12:42.126";"1";"1";"1";"18";"17";"module.training_block1.exec-1811.GoNoGo1";;;;;;;;;;;;;;;;;;;;;;;"1244";"2014-10-13 12:59:42.495";"NST_correctLoc";"28";"1";"FINISHED";"RIGHT";"success";"992";"0";"2014-10-13 12:59:41.245";"3";;;;;;;;;;;;;;;;;;;;;;;;;;;;;;;;;;;;;;;;;;;;;;;;;;;;;;;;;
"laurenh_96";"1996";;"Windows 7";"Rachel's Experiment (D.T.)";"1.0";"2";"1";"1";"2";"1";"1";"2014-10-13 12:57:22.565";"2014-10-13 13:12:42.126";"1";"1";"1";"19";"18";"module.training_block1.exec-1811.GoNoGo1";;;;;;;;;;;;;;;;;;;;;;;"1248";"2014-10-13 12:59:45.015";"ST_failedStop";"30";"0";"FINISHED";"LEFT";"failure";"900";"1";"2014-10-13 12:59:43.765";"3";;;;;;;;;;;;;;;;;;;;;;;;;;;;;;;;;;;;;;;;;;;;;;;;;;;;;;;;;
"laurenh_96";"1996";;"Windows 7";"Rachel's Experiment (D.T.)";"1.0";"2";"1";"1";"2";"1";"1";"2014-10-13 12:57:22.565";"2014-10-13 13:12:42.126";"1";"1";"1";"20";"19";"module.training_block1.exec-1811.GoNoGo1";;;;;;;;;;;;;;;;;;;;;;;"1248";"2014-10-13 12:59:47.535";"NST_correctLoc";"34";"1";"FINISHED";"RIGHT";"success";"924";"0";"2014-10-13 12:59:46.285";"3";;;;;;;;;;;;;;;;;;;;;;;;;;;;;;;;;;;;;;;;;;;;;;;;;;;;;;;;;
"laurenh_96";"1996";;"Windows 7";"Rachel's Experiment (D.T.)";"1.0";"2";"1";"1";"2";"1";"1";"2014-10-13 12:57:22.565";"2014-10-13 13:12:42.126";"1";"1";"1";"21";"20";"module.training_block1.exec-1811.GoNoGo1";;;;;;;;;;;;;;;;;;;;;;;"1248";"2014-10-13 12:59:50.055";"ST_correctStop";"2";"1";"FINISHED";"NONE";"success";"0";"1";"2014-10-13 12:59:48.805";"1";;;;;;;;;;;;;;;;;;;;;;;;;;;;;;;;;;;;;;;;;;;;;;;;;;;;;;;;;
"laurenh_96";"1996";;"Windows 7";"Rachel's Experiment (D.T.)";"1.0";"2";"1";"1";"2";"1";"1";"2014-10-13 12:57:22.565";"2014-10-13 13:12:42.126";"1";"1";"1";"22";"21";"module.training_block1.exec-1811.GoNoGo1";;;;;;;;;;;;;;;;;;;;;;;"1248";"2014-10-13 12:59:52.575";"NST_miss";"14";"0";"FINISHED";"NONE";"failure";"0";"0";"2014-10-13 12:59:51.325";"2";;;;;;;;;;;;;;;;;;;;;;;;;;;;;;;;;;;;;;;;;;;;;;;;;;;;;;;;;
"laurenh_96";"1996";;"Windows 7";"Rachel's Experiment (D.T.)";"1.0";"2";"1";"1";"2";"1";"1";"2014-10-13 12:57:22.565";"2014-10-13 13:12:42.126";"1";"1";"1";"23";"22";"module.training_block1.exec-1811.GoNoGo1";;;;;;;;;;;;;;;;;;;;;;;"1244";"2014-10-13 12:59:55.095";"NST_correctLoc";"35";"0";"FINISHED";"LEFT";"success";"656";"0";"2014-10-13 12:59:53.845";"3";;;;;;;;;;;;;;;;;;;;;;;;;;;;;;;;;;;;;;;;;;;;;;;;;;;;;;;;;
"laurenh_96";"1996";;"Windows 7";"Rachel's Experiment (D.T.)";"1.0";"2";"1";"1";"2";"1";"1";"2014-10-13 12:57:22.565";"2014-10-13 13:12:42.126";"1";"1";"1";"24";"23";"module.training_block1.exec-1811.GoNoGo1";;;;;;;;;;;;;;;;;;;;;;;"1244";"2014-10-13 12:59:57.615";"NST_miss";"33";"0";"FINISHED";"NONE";"failure";"0";"0";"2014-10-13 12:59:56.365";"3";;;;;;;;;;;;;;;;;;;;;;;;;;;;;;;;;;;;;;;;;;;;;;;;;;;;;;;;;
"laurenh_96";"1996";;"Windows 7";"Rachel's Experiment (D.T.)";"1.0";"2";"1";"1";"2";"1";"1";"2014-10-13 12:57:22.565";"2014-10-13 13:12:42.126";"1";"1";"1";"25";"24";"module.training_block1.exec-1811.GoNoGo1";;;;;;;;;;;;;;;;;;;;;;;"1243";"2014-10-13 13:00:00.135";"ST_failedStop";"31";"0";"FINISHED";"LEFT";"failure";"711";"1";"2014-10-13 12:59:58.885";"3";;;;;;;;;;;;;;;;;;;;;;;;;;;;;;;;;;;;;;;;;;;;;;;;;;;;;;;;;
"laurenh_96";"1996";;"Windows 7";"Rachel's Experiment (D.T.)";"1.0";"2";"1";"1";"2";"1";"1";"2014-10-13 12:57:22.565";"2014-10-13 13:12:42.126";"1";"1";"1";"26";"25";"module.training_block1.exec-1811.GoNoGo1";;;;;;;;;;;;;;;;;;;;;;;"1244";"2014-10-13 13:00:02.655";"NST_miss";"16";"1";"FINISHED";"NONE";"failure";"0";"0";"2014-10-13 13:00:01.405";"2";;;;;;;;;;;;;;;;;;;;;;;;;;;;;;;;;;;;;;;;;;;;;;;;;;;;;;;;;
"laurenh_96";"1996";;"Windows 7";"Rachel's Experiment (D.T.)";"1.0";"2";"1";"1";"2";"1";"1";"2014-10-13 12:57:22.565";"2014-10-13 13:12:42.126";"1";"1";"1";"27";"26";"module.training_block1.exec-1811.GoNoGo1";;;;;;;;;;;;;;;;;;;;;;;"1248";"2014-10-13 13:00:05.175";"ST_correctStop";"26";"1";"FINISHED";"NONE";"success";"0";"1";"2014-10-13 13:00:03.925";"3";;;;;;;;;;;;;;;;;;;;;;;;;;;;;;;;;;;;;;;;;;;;;;;;;;;;;;;;;
"laurenh_96";"1996";;"Windows 7";"Rachel's Experiment (D.T.)";"1.0";"2";"1";"1";"2";"1";"1";"2014-10-13 12:57:22.565";"2014-10-13 13:12:42.126";"1";"1";"1";"28";"27";"module.training_block1.exec-1811.GoNoGo1";;;;;;;;;;;;;;;;;;;;;;;"1248";"2014-10-13 13:00:07.695";"ST_correctStop";"23";"1";"FINISHED";"NONE";"success";"0";"1";"2014-10-13 13:00:06.445";"3";;;;;;;;;;;;;;;;;;;;;;;;;;;;;;;;;;;;;;;;;;;;;;;;;;;;;;;;;
"laurenh_96";"1996";;"Windows 7";"Rachel's Experiment (D.T.)";"1.0";"2";"1";"1";"2";"1";"1";"2014-10-13 12:57:22.565";"2014-10-13 13:12:42.126";"1";"1";"1";"29";"28";"module.training_block1.exec-1811.GoNoGo1";;;;;;;;;;;;;;;;;;;;;;;"1242";"2014-10-13 13:00:10.215";"ST_failedStop";"4";"0";"FINISHED";"LEFT";"failure";"318";"1";"2014-10-13 13:00:08.965";"1";;;;;;;;;;;;;;;;;;;;;;;;;;;;;;;;;;;;;;;;;;;;;;;;;;;;;;;;;
"laurenh_96";"1996";;"Windows 7";"Rachel's Experiment (D.T.)";"1.0";"2";"1";"1";"2";"1";"1";"2014-10-13 12:57:22.565";"2014-10-13 13:12:42.126";"1";"1";"1";"30";"29";"module.training_block1.exec-1811.GoNoGo1";;;;;;;;;;;;;;;;;;;;;;;"1248";"2014-10-13 13:00:12.735";"NST_correctLoc";"13";"1";"FINISHED";"RIGHT";"success";"403";"0";"2014-10-13 13:00:11.485";"2";;;;;;;;;;;;;;;;;;;;;;;;;;;;;;;;;;;;;;;;;;;;;;;;;;;;;;;;;
"laurenh_96";"1996";;"Windows 7";"Rachel's Experiment (D.T.)";"1.0";"2";"1";"1";"2";"1";"1";"2014-10-13 12:57:22.565";"2014-10-13 13:12:42.126";"1";"1";"1";"31";"30";"module.training_block1.exec-1811.GoNoGo1";;;;;;;;;;;;;;;;;;;;;;;"1243";"2014-10-13 13:00:15.265";"NST_correctLoc";"9";"1";"FINISHED";"RIGHT";"success";"421";"0";"2014-10-13 13:00:14.015";"2";;;;;;;;;;;;;;;;;;;;;;;;;;;;;;;;;;;;;;;;;;;;;;;;;;;;;;;;;
"laurenh_96";"1996";;"Windows 7";"Rachel's Experiment (D.T.)";"1.0";"2";"1";"1";"2";"1";"1";"2014-10-13 12:57:22.565";"2014-10-13 13:12:42.126";"1";"1";"1";"32";"31";"module.training_block1.exec-1811.GoNoGo1";;;;;;;;;;;;;;;;;;;;;;;"1243";"2014-10-13 13:00:17.785";"ST_failedStop";"0";"1";"FINISHED";"RIGHT";"failure";"445";"1";"2014-10-13 13:00:16.535";"1";;;;;;;;;;;;;;;;;;;;;;;;;;;;;;;;;;;;;;;;;;;;;;;;;;;;;;;;;
"laurenh_96";"1996";;"Windows 7";"Rachel's Experiment (D.T.)";"1.0";"2";"1";"1";"2";"1";"1";"2014-10-13 12:57:22.565";"2014-10-13 13:12:42.126";"1";"1";"1";"33";"32";"module.training_block1.exec-1811.GoNoGo1";;;;;;;;;;;;;;;;;;;;;;;"1244";"2014-10-13 13:00:20.305";"NST_correctLoc";"19";"1";"FINISHED";"RIGHT";"success";"1149";"0";"2014-10-13 13:00:19.055";"3";;;;;;;;;;;;;;;;;;;;;;;;;;;;;;;;;;;;;;;;;;;;;;;;;;;;;;;;;
"laurenh_96";"1996";;"Windows 7";"Rachel's Experiment (D.T.)";"1.0";"2";"1";"1";"2";"1";"1";"2014-10-13 12:57:22.565";"2014-10-13 13:12:42.126";"1";"1";"1";"34";"33";"module.training_block1.exec-1811.GoNoGo1";;;;;;;;;;;;;;;;;;;;;;;"1248";"2014-10-13 13:00:22.825";"NST_miss";"27";"1";"FINISHED";"NONE";"failure";"0";"0";"2014-10-13 13:00:21.575";"3";;;;;;;;;;;;;;;;;;;;;;;;;;;;;;;;;;;;;;;;;;;;;;;;;;;;;;;;;
"laurenh_96";"1996";;"Windows 7";"Rachel's Experiment (D.T.)";"1.0";"2";"1";"1";"2";"1";"1";"2014-10-13 12:57:22.565";"2014-10-13 13:12:42.126";"1";"1";"1";"35";"34";"module.training_block1.exec-1811.GoNoGo1";;;;;;;;;;;;;;;;;;;;;;;"1243";"2014-10-13 13:00:25.345";"NST_correctLoc";"17";"1";"FINISHED";"RIGHT";"success";"485";"0";"2014-10-13 13:00:24.095";"2";;;;;;;;;;;;;;;;;;;;;;;;;;;;;;;;;;;;;;;;;;;;;;;;;;;;;;;;;
"laurenh_96";"1996";;"Windows 7";"Rachel's Experiment (D.T.)";"1.0";"2";"1";"1";"2";"1";"1";"2014-10-13 12:57:22.565";"2014-10-13 13:12:42.126";"1";"1";"1";"36";"35";"module.training_block1.exec-1811.GoNoGo1";;;;;;;;;;;;;;;;;;;;;;;"1243";"2014-10-13 13:00:27.865";"ST_failedStop";"7";"0";"FINISHED";"LEFT";"failure";"957";"1";"2014-10-13 13:00:26.615";"1";;;;;;;;;;;;;;;;;;;;;;;;;;;;;;;;;;;;;;;;;;;;;;;;;;;;;;;;;
"laurenh_96";"1996";;"Windows 7";"Rachel's Experiment (D.T.)";"1.0";"2";"1";"1";"2";"1";"1";"2014-10-13 12:57:22.565";"2014-10-13 13:12:42.126";"1";"1";"1";"37";"36";"module.training_block1.exec-1811.GoNoGo1";;;;;;;;;;;;;;;;;;;;;;;"1244";"2014-10-13 13:00:30.385";"ST_failedStop";"29";"0";"FINISHED";"LEFT";"failure";"453";"1";"2014-10-13 13:00:29.135";"3";;;;;;;;;;;;;;;;;;;;;;;;;;;;;;;;;;;;;;;;;;;;;;;;;;;;;;;;;
"laurenh_96";"1996";;"Windows 7";"Rachel's Experiment (D.T.)";"1.0";"2";"1";"1";"2";"1";"1";"2014-10-13 12:57:22.565";"2014-10-13 13:12:42.126";"1";"1";"1";"38";"37";"module.training_block1.exec-1811.GoNoGo1";;;;;;;;;;;;;;;;;;;;;;;"1244";"2014-10-13 13:00:32.905";"NST_correctLoc";"10";"1";"FINISHED";"RIGHT";"success";"509";"0";"2014-10-13 13:00:31.655";"2";;;;;;;;;;;;;;;;;;;;;;;;;;;;;;;;;;;;;;;;;;;;;;;;;;;;;;;;;
"laurenh_96";"1996";;"Windows 7";"Rachel's Experiment (D.T.)";"1.0";"2";"1";"1";"2";"1";"1";"2014-10-13 12:57:22.565";"2014-10-13 13:12:42.126";"1";"1";"1";"39";"38";"module.training_block1.exec-1811.GoNoGo1";;;;;;;;;;;;;;;;;;;;;;;"1244";"2014-10-13 13:00:35.425";"NST_correctLoc";"22";"0";"FINISHED";"LEFT";"success";"357";"0";"2014-10-13 13:00:34.175";"3";;;;;;;;;;;;;;;;;;;;;;;;;;;;;;;;;;;;;;;;;;;;;;;;;;;;;;;;;
"laurenh_96";"1996";;"Windows 7";"Rachel's Experiment (D.T.)";"1.0";"2";"1";"1";"2";"1";"1";"2014-10-13 12:57:22.565";"2014-10-13 13:12:42.126";"1";"1";"1";"40";"39";"module.training_block1.exec-1811.GoNoGo1";;;;;;;;;;;;;;;;;;;;;;;"1244";"2014-10-13 13:00:37.945";"NST_correctLoc";"12";"1";"FINISHED";"RIGHT";"success";"413";"0";"2014-10-13 13:00:36.695";"2";;;;;;;;;;;;;;;;;;;;;;;;;;;;;;;;;;;;;;;;;;;;;;;;;;;;;;;;;
"laurenh_96";"1996";;"Windows 7";"Rachel's Experiment (D.T.)";"1.0";"2";"1";"1";"2";"1";"1";"2014-10-13 12:57:22.565";"2014-10-13 13:12:42.126";"1";"1";"1";"41";"40";"module.training_block1.exec-1811.GoNoGo1";;;;;;;;;;;;;;;;;;;;;;;"1243";"2014-10-13 13:00:40.465";"ST_correctStop";"20";"1";"FINISHED";"NONE";"success";"0";"1";"2014-10-13 13:00:39.215";"3";;;;;;;;;;;;;;;;;;;;;;;;;;;;;;;;;;;;;;;;;;;;;;;;;;;;;;;;;
"laurenh_96";"1996";;"Windows 7";"Rachel's Experiment (D.T.)";"1.0";"2";"1";"1";"2";"1";"1";"2014-10-13 12:57:22.565";"2014-10-13 13:12:42.126";"1";"1";"1";"42";"41";"module.training_block1.exec-1811.GoNoGo1";;;;;;;;;;;;;;;;;;;;;;;"1243";"2014-10-13 13:00:42.985";"ST_correctStop";"32";"0";"FINISHED";"NONE";"success";"0";"1";"2014-10-13 13:00:41.735";"3";;;;;;;;;;;;;;;;;;;;;;;;;;;;;;;;;;;;;;;;;;;;;;;;;;;;;;;;;
"laurenh_96";"1996";;"Windows 7";"Rachel's Experiment (D.T.)";"1.0";"2";"1";"1";"2";"1";"1";"2014-10-13 12:57:22.565";"2014-10-13 13:12:42.126";"1";"1";"1";"43";"42";"module.training_block1.exec-1811.GoNoGo1";;;;;;;;;;;;;;;;;;;;;;;"1243";"2014-10-13 13:00:45.505";"ST_correctStop";"8";"1";"FINISHED";"NONE";"success";"0";"1";"2014-10-13 13:00:44.255";"1";;;;;;;;;;;;;;;;;;;;;;;;;;;;;;;;;;;;;;;;;;;;;;;;;;;;;;;;;
"laurenh_96";"1996";;"Windows 7";"Rachel's Experiment (D.T.)";"1.0";"2";"1";"1";"2";"1";"1";"2014-10-13 12:57:22.565";"2014-10-13 13:12:42.126";"1";"1";"1";"44";"43";"module.training_block1.exec-1811.GoNoGo1";;;;;;;;;;;;;;;;;;;;;;;"1244";"2014-10-13 13:00:48.025";"ST_failedStop";"5";"0";"FINISHED";"LEFT";"failure";"373";"1";"2014-10-13 13:00:46.775";"1";;;;;;;;;;;;;;;;;;;;;;;;;;;;;;;;;;;;;;;;;;;;;;;;;;;;;;;;;
"laurenh_96";"1996";;"Windows 7";"Rachel's Experiment (D.T.)";"1.0";"2";"1";"1";"2";"1";"1";"2014-10-13 12:57:22.565";"2014-10-13 13:12:42.126";"1";"1";"1";"45";"44";"module.training_block1.exec-1811.GoNoGo1";;;;;;;;;;;;;;;;;;;;;;;"1248";"2014-10-13 13:00:50.545";"ST_correctStop";"6";"1";"FINISHED";"NONE";"success";"0";"1";"2014-10-13 13:00:49.295";"1";;;;;;;;;;;;;;;;;;;;;;;;;;;;;;;;;;;;;;;;;;;;;;;;;;;;;;;;;
"laurenh_96";"1996";;"Windows 7";"Rachel's Experiment (D.T.)";"1.0";"2";"1";"1";"2";"1";"1";"2014-10-13 12:57:22.565";"2014-10-13 13:12:42.126";"1";"1";"1";"46";"45";"module.training_block1.exec-1811.GoNoGo1";;;;;;;;;;;;;;;;;;;;;;;"1244";"2014-10-13 13:00:53.065";"ST_failedStop";"25";"1";"FINISHED";"RIGHT";"failure";"493";"1";"2014-10-13 13:00:51.815";"3";;;;;;;;;;;;;;;;;;;;;;;;;;;;;;;;;;;;;;;;;;;;;;;;;;;;;;;;;
"laurenh_96";"1996";;"Windows 7";"Rachel's Experiment (D.T.)";"1.0";"2";"1";"1";"2";"1";"1";"2014-10-13 12:57:22.565";"2014-10-13 13:12:42.126";"1";"1";"1";"47";"46";"module.training_block1.exec-1811.GoNoGo1";;;;;;;;;;;;;;;;;;;;;;;"1244";"2014-10-13 13:00:55.585";"NST_correctLoc";"24";"0";"FINISHED";"LEFT";"success";"477";"0";"2014-10-13 13:00:54.335";"3";;;;;;;;;;;;;;;;;;;;;;;;;;;;;;;;;;;;;;;;;;;;;;;;;;;;;;;;;
"laurenh_96";"1996";;"Windows 7";"Rachel's Experiment (D.T.)";"1.0";"2";"1";"1";"2";"1";"1";"2014-10-13 12:57:22.565";"2014-10-13 13:12:42.126";"1";"1";"1";"48";"47";"module.training_block1.exec-1811.GoNoGo1";;;;;;;;;;;;;;;;;;;;;;;"1248";"2014-10-13 13:00:58.105";"ST_failedStop";"3";"0";"FINISHED";"LEFT";"failure";"417";"1";"2014-10-13 13:00:56.855";"1";;;;;;;;;;;;;;;;;;;;;;;;;;;;;;;;;;;;;;;;;;;;;;;;;;;;;;;;;
"laurenh_96";"1996";;"Windows 7";"Rachel's Experiment (D.T.)";"1.0";"2";"1";"1";"2";"1";"1";"2014-10-13 12:57:22.565";"2014-10-13 13:12:42.126";"1";"1";"1";"49";"48";"module.training_block1.exec-1811.GoNoGo1";;;;;;;;;;;;;;;;;;;;;;;"1248";"2014-10-13 13:01:00.625";"NST_correctLoc";"21";"1";"FINISHED";"RIGHT";"success";"449";"0";"2014-10-13 13:00:59.375";"3";;;;;;;;;;;;;;;;;;;;;;;;;;;;;;;;;;;;;;;;;;;;;;;;;;;;;;;;;
"laurenh_96";"1996";;"Windows 7";"Rachel's Experiment (D.T.)";"1.0";"2";"1";"1";"2";"1";"1";"2014-10-13 12:57:22.565";"2014-10-13 13:12:42.126";"1";"1";"1";"50";"49";"module.training_block1.exec-1811.GoNoGo1";;;;;;;;;;;;;;;;;;;;;;;"1248";"2014-10-13 13:01:03.155";"NST_correctLoc";"11";"1";"FINISHED";"RIGHT";"success";"391";"0";"2014-10-13 13:01:01.905";"2";;;;;;;;;;;;;;;;;;;;;;;;;;;;;;;;;;;;;;;;;;;;;;;;;;;;;;;;;
"laurenh_96";"1996";;"Windows 7";"Rachel's Experiment (D.T.)";"1.0";"2";"1";"1";"2";"1";"1";"2014-10-13 12:57:22.565";"2014-10-13 13:12:42.126";"1";"1";"1";"51";"50";"module.training_block1.exec-1811.GoNoGo1";;;;;;;;;;;;;;;;;;;;;;;"1243";"2014-10-13 13:01:05.675";"NST_correctLoc";"15";"1";"FINISHED";"RIGHT";"success";"955";"0";"2014-10-13 13:01:04.425";"2";;;;;;;;;;;;;;;;;;;;;;;;;;;;;;;;;;;;;;;;;;;;;;;;;;;;;;;;;
"laurenh_96";"1996";;"Windows 7";"Rachel's Experiment (D.T.)";"1.0";"2";"1";"1";"2";"1";"1";"2014-10-13 12:57:22.565";"2014-10-13 13:12:42.126";"1";"1";"1";"52";"51";"module.training_block2.exec-2911.GoNoGo2";;;;;;;;;;;;;;;;;;;;;;;;;;;;;;;;;;;"1248";"2014-10-13 13:01:16.935";"NST_correctLoc";"33";"1";"FINISHED";"RIGHT";"success";"387";"0";"2014-10-13 13:01:15.685";"3";;;;;;;;;;;;;;;;;;;;;;;;;;;;;;;;;;;;;;;;;;;;;
"laurenh_96";"1996";;"Windows 7";"Rachel's Experiment (D.T.)";"1.0";"2";"1";"1";"2";"1";"1";"2014-10-13 12:57:22.565";"2014-10-13 13:12:42.126";"1";"1";"1";"53";"52";"module.training_block2.exec-2911.GoNoGo2";;;;;;;;;;;;;;;;;;;;;;;;;;;;;;;;;;;"1248";"2014-10-13 13:01:19.455";"ST_failedStop";"20";"1";"FINISHED";"RIGHT";"failure";"523";"1";"2014-10-13 13:01:18.205";"3";;;;;;;;;;;;;;;;;;;;;;;;;;;;;;;;;;;;;;;;;;;;;
"laurenh_96";"1996";;"Windows 7";"Rachel's Experiment (D.T.)";"1.0";"2";"1";"1";"2";"1";"1";"2014-10-13 12:57:22.565";"2014-10-13 13:12:42.126";"1";"1";"1";"54";"53";"module.training_block2.exec-2911.GoNoGo2";;;;;;;;;;;;;;;;;;;;;;;;;;;;;;;;;;;"1248";"2014-10-13 13:01:21.975";"NST_correctLoc";"30";"1";"FINISHED";"RIGHT";"success";"611";"0";"2014-10-13 13:01:20.725";"3";;;;;;;;;;;;;;;;;;;;;;;;;;;;;;;;;;;;;;;;;;;;;
"laurenh_96";"1996";;"Windows 7";"Rachel's Experiment (D.T.)";"1.0";"2";"1";"1";"2";"1";"1";"2014-10-13 12:57:22.565";"2014-10-13 13:12:42.126";"1";"1";"1";"55";"54";"module.training_block2.exec-2911.GoNoGo2";;;;;;;;;;;;;;;;;;;;;;;;;;;;;;;;;;;"1248";"2014-10-13 13:01:24.495";"NST_correctLoc";"13";"0";"FINISHED";"LEFT";"success";"387";"0";"2014-10-13 13:01:23.245";"2";;;;;;;;;;;;;;;;;;;;;;;;;;;;;;;;;;;;;;;;;;;;;
"laurenh_96";"1996";;"Windows 7";"Rachel's Experiment (D.T.)";"1.0";"2";"1";"1";"2";"1";"1";"2014-10-13 12:57:22.565";"2014-10-13 13:12:42.126";"1";"1";"1";"56";"55";"module.training_block2.exec-2911.GoNoGo2";;;;;;;;;;;;;;;;;;;;;;;;;;;;;;;;;;;"1248";"2014-10-13 13:01:27.015";"ST_failedStop";"21";"0";"FINISHED";"LEFT";"failure";"483";"1";"2014-10-13 13:01:25.765";"3";;;;;;;;;;;;;;;;;;;;;;;;;;;;;;;;;;;;;;;;;;;;;
"laurenh_96";"1996";;"Windows 7";"Rachel's Experiment (D.T.)";"1.0";"2";"1";"1";"2";"1";"1";"2014-10-13 12:57:22.565";"2014-10-13 13:12:42.126";"1";"1";"1";"57";"56";"module.training_block2.exec-2911.GoNoGo2";;;;;;;;;;;;;;;;;;;;;;;;;;;;;;;;;;;"1248";"2014-10-13 13:01:29.535";"NST_correctLoc";"16";"0";"FINISHED";"LEFT";"success";"715";"0";"2014-10-13 13:01:28.285";"2";;;;;;;;;;;;;;;;;;;;;;;;;;;;;;;;;;;;;;;;;;;;;
"laurenh_96";"1996";;"Windows 7";"Rachel's Experiment (D.T.)";"1.0";"2";"1";"1";"2";"1";"1";"2014-10-13 12:57:22.565";"2014-10-13 13:12:42.126";"1";"1";"1";"58";"57";"module.training_block2.exec-2911.GoNoGo2";;;;;;;;;;;;;;;;;;;;;;;;;;;;;;;;;;;"1248";"2014-10-13 13:01:32.055";"ST_failedStop";"26";"0";"FINISHED";"LEFT";"failure";"523";"1";"2014-10-13 13:01:30.805";"3";;;;;;;;;;;;;;;;;;;;;;;;;;;;;;;;;;;;;;;;;;;;;
"laurenh_96";"1996";;"Windows 7";"Rachel's Experiment (D.T.)";"1.0";"2";"1";"1";"2";"1";"1";"2014-10-13 12:57:22.565";"2014-10-13 13:12:42.126";"1";"1";"1";"59";"58";"module.training_block2.exec-2911.GoNoGo2";;;;;;;;;;;;;;;;;;;;;;;;;;;;;;;;;;;"1248";"2014-10-13 13:01:34.575";"ST_failedStop";"1";"1";"FINISHED";"RIGHT";"failure";"371";"1";"2014-10-13 13:01:33.325";"1";;;;;;;;;;;;;;;;;;;;;;;;;;;;;;;;;;;;;;;;;;;;;
"laurenh_96";"1996";;"Windows 7";"Rachel's Experiment (D.T.)";"1.0";"2";"1";"1";"2";"1";"1";"2014-10-13 12:57:22.565";"2014-10-13 13:12:42.126";"1";"1";"1";"60";"59";"module.training_block2.exec-2911.GoNoGo2";;;;;;;;;;;;;;;;;;;;;;;;;;;;;;;;;;;"1248";"2014-10-13 13:01:37.095";"ST_failedStop";"32";"0";"FINISHED";"LEFT";"failure";"323";"1";"2014-10-13 13:01:35.845";"3";;;;;;;;;;;;;;;;;;;;;;;;;;;;;;;;;;;;;;;;;;;;;
"laurenh_96";"1996";;"Windows 7";"Rachel's Experiment (D.T.)";"1.0";"2";"1";"1";"2";"1";"1";"2014-10-13 12:57:22.565";"2014-10-13 13:12:42.126";"1";"1";"1";"61";"60";"module.training_block2.exec-2911.GoNoGo2";;;;;;;;;;;;;;;;;;;;;;;;;;;;;;;;;;;"1248";"2014-10-13 13:01:39.615";"NST_correctLoc";"12";"1";"FINISHED";"RIGHT";"success";"531";"0";"2014-10-13 13:01:38.365";"2";;;;;;;;;;;;;;;;;;;;;;;;;;;;;;;;;;;;;;;;;;;;;
"laurenh_96";"1996";;"Windows 7";"Rachel's Experiment (D.T.)";"1.0";"2";"1";"1";"2";"1";"1";"2014-10-13 12:57:22.565";"2014-10-13 13:12:42.126";"1";"1";"1";"62";"61";"module.training_block2.exec-2911.GoNoGo2";;;;;;;;;;;;;;;;;;;;;;;;;;;;;;;;;;;"1248";"2014-10-13 13:01:42.135";"NST_miss";"34";"0";"FINISHED";"NONE";"failure";"0";"0";"2014-10-13 13:01:40.885";"3";;;;;;;;;;;;;;;;;;;;;;;;;;;;;;;;;;;;;;;;;;;;;
"laurenh_96";"1996";;"Windows 7";"Rachel's Experiment (D.T.)";"1.0";"2";"1";"1";"2";"1";"1";"2014-10-13 12:57:22.565";"2014-10-13 13:12:42.126";"1";"1";"1";"63";"62";"module.training_block2.exec-2911.GoNoGo2";;;;;;;;;;;;;;;;;;;;;;;;;;;;;;;;;;;"1248";"2014-10-13 13:01:44.655";"NST_miss";"11";"0";"FINISHED";"NONE";"failure";"0";"0";"2014-10-13 13:01:43.405";"2";;;;;;;;;;;;;;;;;;;;;;;;;;;;;;;;;;;;;;;;;;;;;
"laurenh_96";"1996";;"Windows 7";"Rachel's Experiment (D.T.)";"1.0";"2";"1";"1";"2";"1";"1";"2014-10-13 12:57:22.565";"2014-10-13 13:12:42.126";"1";"1";"1";"64";"63";"module.training_block2.exec-2911.GoNoGo2";;;;;;;;;;;;;;;;;;;;;;;;;;;;;;;;;;;"1248";"2014-10-13 13:01:47.175";"ST_failedStop";"6";"1";"FINISHED";"RIGHT";"failure";"539";"1";"2014-10-13 13:01:45.925";"1";;;;;;;;;;;;;;;;;;;;;;;;;;;;;;;;;;;;;;;;;;;;;
"laurenh_96";"1996";;"Windows 7";"Rachel's Experiment (D.T.)";"1.0";"2";"1";"1";"2";"1";"1";"2014-10-13 12:57:22.565";"2014-10-13 13:12:42.126";"1";"1";"1";"65";"64";"module.training_block2.exec-2911.GoNoGo2";;;;;;;;;;;;;;;;;;;;;;;;;;;;;;;;;;;"1248";"2014-10-13 13:01:49.695";"NST_correctLoc";"15";"0";"FINISHED";"LEFT";"success";"531";"0";"2014-10-13 13:01:48.445";"2";;;;;;;;;;;;;;;;;;;;;;;;;;;;;;;;;;;;;;;;;;;;;
"laurenh_96";"1996";;"Windows 7";"Rachel's Experiment (D.T.)";"1.0";"2";"1";"1";"2";"1";"1";"2014-10-13 12:57:22.565";"2014-10-13 13:12:42.126";"1";"1";"1";"66";"65";"module.training_block2.exec-2911.GoNoGo2";;;;;;;;;;;;;;;;;;;;;;;;;;;;;;;;;;;"1248";"2014-10-13 13:01:52.205";"ST_correctStop";"7";"0";"FINISHED";"NONE";"success";"0";"1";"2014-10-13 13:01:50.955";"1";;;;;;;;;;;;;;;;;;;;;;;;;;;;;;;;;;;;;;;;;;;;;
"laurenh_96";"1996";;"Windows 7";"Rachel's Experiment (D.T.)";"1.0";"2";"1";"1";"2";"1";"1";"2014-10-13 12:57:22.565";"2014-10-13 13:12:42.126";"1";"1";"1";"67";"66";"module.training_block2.exec-2911.GoNoGo2";;;;;;;;;;;;;;;;;;;;;;;;;;;;;;;;;;;"1248";"2014-10-13 13:01:54.715";"ST_failedStop";"2";"1";"FINISHED";"RIGHT";"failure";"431";"1";"2014-10-13 13:01:53.465";"1";;;;;;;;;;;;;;;;;;;;;;;;;;;;;;;;;;;;;;;;;;;;;
"laurenh_96";"1996";;"Windows 7";"Rachel's Experiment (D.T.)";"1.0";"2";"1";"1";"2";"1";"1";"2014-10-13 12:57:22.565";"2014-10-13 13:12:42.126";"1";"1";"1";"68";"67";"module.training_block2.exec-2911.GoNoGo2";;;;;;;;;;;;;;;;;;;;;;;;;;;;;;;;;;;"1248";"2014-10-13 13:01:57.225";"ST_failedStop";"4";"1";"FINISHED";"RIGHT";"failure";"505";"1";"2014-10-13 13:01:55.975";"1";;;;;;;;;;;;;;;;;;;;;;;;;;;;;;;;;;;;;;;;;;;;;
"laurenh_96";"1996";;"Windows 7";"Rachel's Experiment (D.T.)";"1.0";"2";"1";"1";"2";"1";"1";"2014-10-13 12:57:22.565";"2014-10-13 13:12:42.126";"1";"1";"1";"69";"68";"module.training_block2.exec-2911.GoNoGo2";;;;;;;;;;;;;;;;;;;;;;;;;;;;;;;;;;;"1248";"2014-10-13 13:01:59.735";"ST_correctStop";"3";"0";"FINISHED";"NONE";"success";"0";"1";"2014-10-13 13:01:58.485";"1";;;;;;;;;;;;;;;;;;;;;;;;;;;;;;;;;;;;;;;;;;;;;
"laurenh_96";"1996";;"Windows 7";"Rachel's Experiment (D.T.)";"1.0";"2";"1";"1";"2";"1";"1";"2014-10-13 12:57:22.565";"2014-10-13 13:12:42.126";"1";"1";"1";"70";"69";"module.training_block2.exec-2911.GoNoGo2";;;;;;;;;;;;;;;;;;;;;;;;;;;;;;;;;;;"1248";"2014-10-13 13:02:02.245";"ST_failedStop";"8";"0";"FINISHED";"LEFT";"failure";"892";"1";"2014-10-13 13:02:00.995";"1";;;;;;;;;;;;;;;;;;;;;;;;;;;;;;;;;;;;;;;;;;;;;
"laurenh_96";"1996";;"Windows 7";"Rachel's Experiment (D.T.)";"1.0";"2";"1";"1";"2";"1";"1";"2014-10-13 12:57:22.565";"2014-10-13 13:12:42.126";"1";"1";"1";"71";"70";"module.training_block2.exec-2911.GoNoGo2";;;;;;;;;;;;;;;;;;;;;;;;;;;;;;;;;;;"1248";"2014-10-13 13:02:04.755";"ST_failedStop";"19";"1";"FINISHED";"RIGHT";"failure";"438";"1";"2014-10-13 13:02:03.505";"3";;;;;;;;;;;;;;;;;;;;;;;;;;;;;;;;;;;;;;;;;;;;;
"laurenh_96";"1996";;"Windows 7";"Rachel's Experiment (D.T.)";"1.0";"2";"1";"1";"2";"1";"1";"2014-10-13 12:57:22.565";"2014-10-13 13:12:42.126";"1";"1";"1";"72";"71";"module.training_block2.exec-2911.GoNoGo2";;;;;;;;;;;;;;;;;;;;;;;;;;;;;;;;;;;"1248";"2014-10-13 13:02:07.275";"NST_correctLoc";"28";"0";"FINISHED";"LEFT";"success";"543";"0";"2014-10-13 13:02:06.025";"3";;;;;;;;;;;;;;;;;;;;;;;;;;;;;;;;;;;;;;;;;;;;;
"laurenh_96";"1996";;"Windows 7";"Rachel's Experiment (D.T.)";"1.0";"2";"1";"1";"2";"1";"1";"2014-10-13 12:57:22.565";"2014-10-13 13:12:42.126";"1";"1";"1";"73";"72";"module.training_block2.exec-2911.GoNoGo2";;;;;;;;;;;;;;;;;;;;;;;;;;;;;;;;;;;"1248";"2014-10-13 13:02:09.785";"NST_correctLoc";"35";"1";"FINISHED";"RIGHT";"success";"712";"0";"2014-10-13 13:02:08.535";"3";;;;;;;;;;;;;;;;;;;;;;;;;;;;;;;;;;;;;;;;;;;;;
"laurenh_96";"1996";;"Windows 7";"Rachel's Experiment (D.T.)";"1.0";"2";"1";"1";"2";"1";"1";"2014-10-13 12:57:22.565";"2014-10-13 13:12:42.126";"1";"1";"1";"74";"73";"module.training_block2.exec-2911.GoNoGo2";;;;;;;;;;;;;;;;;;;;;;;;;;;;;;;;;;;"1248";"2014-10-13 13:02:12.295";"NST_correctLoc";"18";"1";"FINISHED";"RIGHT";"success";"698";"0";"2014-10-13 13:02:11.045";"3";;;;;;;;;;;;;;;;;;;;;;;;;;;;;;;;;;;;;;;;;;;;;
"laurenh_96";"1996";;"Windows 7";"Rachel's Experiment (D.T.)";"1.0";"2";"1";"1";"2";"1";"1";"2014-10-13 12:57:22.565";"2014-10-13 13:12:42.126";"1";"1";"1";"75";"74";"module.training_block2.exec-2911.GoNoGo2";;;;;;;;;;;;;;;;;;;;;;;;;;;;;;;;;;;"1248";"2014-10-13 13:02:14.805";"NST_correctLoc";"25";"0";"FINISHED";"LEFT";"success";"572";"0";"2014-10-13 13:02:13.555";"3";;;;;;;;;;;;;;;;;;;;;;;;;;;;;;;;;;;;;;;;;;;;;
"laurenh_96";"1996";;"Windows 7";"Rachel's Experiment (D.T.)";"1.0";"2";"1";"1";"2";"1";"1";"2014-10-13 12:57:22.565";"2014-10-13 13:12:42.126";"1";"1";"1";"76";"75";"module.training_block2.exec-2911.GoNoGo2";;;;;;;;;;;;;;;;;;;;;;;;;;;;;;;;;;;"1248";"2014-10-13 13:02:17.315";"ST_correctStop";"5";"0";"FINISHED";"NONE";"success";"0";"1";"2014-10-13 13:02:16.065";"1";;;;;;;;;;;;;;;;;;;;;;;;;;;;;;;;;;;;;;;;;;;;;
"laurenh_96";"1996";;"Windows 7";"Rachel's Experiment (D.T.)";"1.0";"2";"1";"1";"2";"1";"1";"2014-10-13 12:57:22.565";"2014-10-13 13:12:42.126";"1";"1";"1";"77";"76";"module.training_block2.exec-2911.GoNoGo2";;;;;;;;;;;;;;;;;;;;;;;;;;;;;;;;;;;"1248";"2014-10-13 13:02:19.825";"ST_correctStop";"0";"0";"FINISHED";"NONE";"success";"0";"1";"2014-10-13 13:02:18.575";"1";;;;;;;;;;;;;;;;;;;;;;;;;;;;;;;;;;;;;;;;;;;;;
"laurenh_96";"1996";;"Windows 7";"Rachel's Experiment (D.T.)";"1.0";"2";"1";"1";"2";"1";"1";"2014-10-13 12:57:22.565";"2014-10-13 13:12:42.126";"1";"1";"1";"78";"77";"module.training_block2.exec-2911.GoNoGo2";;;;;;;;;;;;;;;;;;;;;;;;;;;;;;;;;;;"1248";"2014-10-13 13:02:22.335";"ST_correctStop";"24";"1";"FINISHED";"NONE";"success";"0";"1";"2014-10-13 13:02:21.085";"3";;;;;;;;;;;;;;;;;;;;;;;;;;;;;;;;;;;;;;;;;;;;;
"laurenh_96";"1996";;"Windows 7";"Rachel's Experiment (D.T.)";"1.0";"2";"1";"1";"2";"1";"1";"2014-10-13 12:57:22.565";"2014-10-13 13:12:42.126";"1";"1";"1";"79";"78";"module.training_block2.exec-2911.GoNoGo2";;;;;;;;;;;;;;;;;;;;;;;;;;;;;;;;;;;"1248";"2014-10-13 13:02:24.855";"NST_miss";"22";"1";"FINISHED";"NONE";"failure";"0";"0";"2014-10-13 13:02:23.605";"3";;;;;;;;;;;;;;;;;;;;;;;;;;;;;;;;;;;;;;;;;;;;;
"laurenh_96";"1996";;"Windows 7";"Rachel's Experiment (D.T.)";"1.0";"2";"1";"1";"2";"1";"1";"2014-10-13 12:57:22.565";"2014-10-13 13:12:42.126";"1";"1";"1";"80";"79";"module.training_block2.exec-2911.GoNoGo2";;;;;;;;;;;;;;;;;;;;;;;;;;;;;;;;;;;"1248";"2014-10-13 13:02:27.365";"NST_correctLoc";"29";"0";"FINISHED";"LEFT";"success";"372";"0";"2014-10-13 13:02:26.115";"3";;;;;;;;;;;;;;;;;;;;;;;;;;;;;;;;;;;;;;;;;;;;;
"laurenh_96";"1996";;"Windows 7";"Rachel's Experiment (D.T.)";"1.0";"2";"1";"1";"2";"1";"1";"2014-10-13 12:57:22.565";"2014-10-13 13:12:42.126";"1";"1";"1";"81";"80";"module.training_block2.exec-2911.GoNoGo2";;;;;;;;;;;;;;;;;;;;;;;;;;;;;;;;;;;"1248";"2014-10-13 13:02:29.875";"NST_correctLoc";"9";"0";"FINISHED";"LEFT";"success";"550";"0";"2014-10-13 13:02:28.625";"2";;;;;;;;;;;;;;;;;;;;;;;;;;;;;;;;;;;;;;;;;;;;;
"laurenh_96";"1996";;"Windows 7";"Rachel's Experiment (D.T.)";"1.0";"2";"1";"1";"2";"1";"1";"2014-10-13 12:57:22.565";"2014-10-13 13:12:42.126";"1";"1";"1";"82";"81";"module.training_block2.exec-2911.GoNoGo2";;;;;;;;;;;;;;;;;;;;;;;;;;;;;;;;;;;"1248";"2014-10-13 13:02:32.385";"ST_correctStop";"31";"1";"FINISHED";"NONE";"success";"0";"1";"2014-10-13 13:02:31.135";"3";;;;;;;;;;;;;;;;;;;;;;;;;;;;;;;;;;;;;;;;;;;;;
"laurenh_96";"1996";;"Windows 7";"Rachel's Experiment (D.T.)";"1.0";"2";"1";"1";"2";"1";"1";"2014-10-13 12:57:22.565";"2014-10-13 13:12:42.126";"1";"1";"1";"83";"82";"module.training_block2.exec-2911.GoNoGo2";;;;;;;;;;;;;;;;;;;;;;;;;;;;;;;;;;;"1248";"2014-10-13 13:02:34.895";"NST_correctLoc";"14";"1";"FINISHED";"RIGHT";"success";"786";"0";"2014-10-13 13:02:33.645";"2";;;;;;;;;;;;;;;;;;;;;;;;;;;;;;;;;;;;;;;;;;;;;
"laurenh_96";"1996";;"Windows 7";"Rachel's Experiment (D.T.)";"1.0";"2";"1";"1";"2";"1";"1";"2014-10-13 12:57:22.565";"2014-10-13 13:12:42.126";"1";"1";"1";"84";"83";"module.training_block2.exec-2911.GoNoGo2";;;;;;;;;;;;;;;;;;;;;;;;;;;;;;;;;;;"1248";"2014-10-13 13:02:37.405";"NST_correctLoc";"17";"1";"FINISHED";"RIGHT";"success";"756";"0";"2014-10-13 13:02:36.155";"2";;;;;;;;;;;;;;;;;;;;;;;;;;;;;;;;;;;;;;;;;;;;;
"laurenh_96";"1996";;"Windows 7";"Rachel's Experiment (D.T.)";"1.0";"2";"1";"1";"2";"1";"1";"2014-10-13 12:57:22.565";"2014-10-13 13:12:42.126";"1";"1";"1";"85";"84";"module.training_block2.exec-2911.GoNoGo2";;;;;;;;;;;;;;;;;;;;;;;;;;;;;;;;;;;"1248";"2014-10-13 13:02:39.915";"ST_failedStop";"27";"0";"FINISHED";"LEFT";"failure";"462";"1";"2014-10-13 13:02:38.665";"3";;;;;;;;;;;;;;;;;;;;;;;;;;;;;;;;;;;;;;;;;;;;;
"laurenh_96";"1996";;"Windows 7";"Rachel's Experiment (D.T.)";"1.0";"2";"1";"1";"2";"1";"1";"2014-10-13 12:57:22.565";"2014-10-13 13:12:42.126";"1";"1";"1";"86";"85";"module.training_block2.exec-2911.GoNoGo2";;;;;;;;;;;;;;;;;;;;;;;;;;;;;;;;;;;"1248";"2014-10-13 13:02:42.425";"NST_miss";"10";"0";"FINISHED";"NONE";"failure";"0";"0";"2014-10-13 13:02:41.175";"2";;;;;;;;;;;;;;;;;;;;;;;;;;;;;;;;;;;;;;;;;;;;;
"laurenh_96";"1996";;"Windows 7";"Rachel's Experiment (D.T.)";"1.0";"2";"1";"1";"2";"1";"1";"2014-10-13 12:57:22.565";"2014-10-13 13:12:42.126";"1";"1";"1";"87";"86";"module.training_block2.exec-2911.GoNoGo2";;;;;;;;;;;;;;;;;;;;;;;;;;;;;;;;;;;"1248";"2014-10-13 13:02:44.935";"ST_failedStop";"23";"1";"FINISHED";"RIGHT";"failure";"586";"1";"2014-10-13 13:02:43.685";"3";;;;;;;;;;;;;;;;;;;;;;;;;;;;;;;;;;;;;;;;;;;;;
"laurenh_96";"1996";;"Windows 7";"Rachel's Experiment (D.T.)";"1.0";"2";"1";"1";"2";"1";"1";"2014-10-13 12:57:22.565";"2014-10-13 13:12:42.126";"1";"1";"1";"88";"87";"module.training_block3.exec-3268.GoNoGo3";;;;;;;;;;;;;;;;;;;;;;;;;;;;;;;;;;;;;;;;;;;;;;;"1248";"2014-10-13 13:02:57.205";"ST_failedStop";"6";"1";"FINISHED";"RIGHT";"failure";"436";"1";"2014-10-13 13:02:55.955";"1";;;;;;;;;;;;;;;;;;;;;;;;;;;;;;;;;
"laurenh_96";"1996";;"Windows 7";"Rachel's Experiment (D.T.)";"1.0";"2";"1";"1";"2";"1";"1";"2014-10-13 12:57:22.565";"2014-10-13 13:12:42.126";"1";"1";"1";"89";"88";"module.training_block3.exec-3268.GoNoGo3";;;;;;;;;;;;;;;;;;;;;;;;;;;;;;;;;;;;;;;;;;;;;;;"1248";"2014-10-13 13:02:59.715";"NST_correctLoc";"14";"0";"FINISHED";"LEFT";"success";"566";"0";"2014-10-13 13:02:58.465";"2";;;;;;;;;;;;;;;;;;;;;;;;;;;;;;;;;
"laurenh_96";"1996";;"Windows 7";"Rachel's Experiment (D.T.)";"1.0";"2";"1";"1";"2";"1";"1";"2014-10-13 12:57:22.565";"2014-10-13 13:12:42.126";"1";"1";"1";"90";"89";"module.training_block3.exec-3268.GoNoGo3";;;;;;;;;;;;;;;;;;;;;;;;;;;;;;;;;;;;;;;;;;;;;;;"1248";"2014-10-13 13:03:02.225";"ST_correctStop";"1";"1";"FINISHED";"NONE";"success";"0";"1";"2014-10-13 13:03:00.975";"1";;;;;;;;;;;;;;;;;;;;;;;;;;;;;;;;;
"laurenh_96";"1996";;"Windows 7";"Rachel's Experiment (D.T.)";"1.0";"2";"1";"1";"2";"1";"1";"2014-10-13 12:57:22.565";"2014-10-13 13:12:42.126";"1";"1";"1";"91";"90";"module.training_block3.exec-3268.GoNoGo3";;;;;;;;;;;;;;;;;;;;;;;;;;;;;;;;;;;;;;;;;;;;;;;"1248";"2014-10-13 13:03:04.735";"ST_failedStop";"4";"0";"FINISHED";"LEFT";"failure";"642";"1";"2014-10-13 13:03:03.485";"1";;;;;;;;;;;;;;;;;;;;;;;;;;;;;;;;;
"laurenh_96";"1996";;"Windows 7";"Rachel's Experiment (D.T.)";"1.0";"2";"1";"1";"2";"1";"1";"2014-10-13 12:57:22.565";"2014-10-13 13:12:42.126";"1";"1";"1";"92";"91";"module.training_block3.exec-3268.GoNoGo3";;;;;;;;;;;;;;;;;;;;;;;;;;;;;;;;;;;;;;;;;;;;;;;"1248";"2014-10-13 13:03:07.245";"ST_failedStop";"0";"1";"FINISHED";"RIGHT";"failure";"700";"1";"2014-10-13 13:03:05.995";"1";;;;;;;;;;;;;;;;;;;;;;;;;;;;;;;;;
"laurenh_96";"1996";;"Windows 7";"Rachel's Experiment (D.T.)";"1.0";"2";"1";"1";"2";"1";"1";"2014-10-13 12:57:22.565";"2014-10-13 13:12:42.126";"1";"1";"1";"93";"92";"module.training_block3.exec-3268.GoNoGo3";;;;;;;;;;;;;;;;;;;;;;;;;;;;;;;;;;;;;;;;;;;;;;;"1248";"2014-10-13 13:03:09.755";"NST_correctLoc";"17";"0";"FINISHED";"LEFT";"success";"718";"0";"2014-10-13 13:03:08.505";"2";;;;;;;;;;;;;;;;;;;;;;;;;;;;;;;;;
"laurenh_96";"1996";;"Windows 7";"Rachel's Experiment (D.T.)";"1.0";"2";"1";"1";"2";"1";"1";"2014-10-13 12:57:22.565";"2014-10-13 13:12:42.126";"1";"1";"1";"94";"93";"module.training_block3.exec-3268.GoNoGo3";;;;;;;;;;;;;;;;;;;;;;;;;;;;;;;;;;;;;;;;;;;;;;;"1248";"2014-10-13 13:03:12.265";"NST_correctLoc";"21";"1";"FINISHED";"RIGHT";"success";"624";"0";"2014-10-13 13:03:11.015";"3";;;;;;;;;;;;;;;;;;;;;;;;;;;;;;;;;
"laurenh_96";"1996";;"Windows 7";"Rachel's Experiment (D.T.)";"1.0";"2";"1";"1";"2";"1";"1";"2014-10-13 12:57:22.565";"2014-10-13 13:12:42.126";"1";"1";"1";"95";"94";"module.training_block3.exec-3268.GoNoGo3";;;;;;;;;;;;;;;;;;;;;;;;;;;;;;;;;;;;;;;;;;;;;;;"1248";"2014-10-13 13:03:14.775";"NST_correctLoc";"11";"1";"FINISHED";"RIGHT";"success";"578";"0";"2014-10-13 13:03:13.525";"2";;;;;;;;;;;;;;;;;;;;;;;;;;;;;;;;;
"laurenh_96";"1996";;"Windows 7";"Rachel's Experiment (D.T.)";"1.0";"2";"1";"1";"2";"1";"1";"2014-10-13 12:57:22.565";"2014-10-13 13:12:42.126";"1";"1";"1";"96";"95";"module.training_block3.exec-3268.GoNoGo3";;;;;;;;;;;;;;;;;;;;;;;;;;;;;;;;;;;;;;;;;;;;;;;"1248";"2014-10-13 13:03:17.285";"NST_correctLoc";"16";"1";"FINISHED";"RIGHT";"success";"724";"0";"2014-10-13 13:03:16.035";"2";;;;;;;;;;;;;;;;;;;;;;;;;;;;;;;;;
"laurenh_96";"1996";;"Windows 7";"Rachel's Experiment (D.T.)";"1.0";"2";"1";"1";"2";"1";"1";"2014-10-13 12:57:22.565";"2014-10-13 13:12:42.126";"1";"1";"1";"97";"96";"module.training_block3.exec-3268.GoNoGo3";;;;;;;;;;;;;;;;;;;;;;;;;;;;;;;;;;;;;;;;;;;;;;;"1248";"2014-10-13 13:03:19.795";"NST_correctLoc";"26";"1";"FINISHED";"RIGHT";"success";"606";"0";"2014-10-13 13:03:18.545";"3";;;;;;;;;;;;;;;;;;;;;;;;;;;;;;;;;
"laurenh_96";"1996";;"Windows 7";"Rachel's Experiment (D.T.)";"1.0";"2";"1";"1";"2";"1";"1";"2014-10-13 12:57:22.565";"2014-10-13 13:12:42.126";"1";"1";"1";"98";"97";"module.training_block3.exec-3268.GoNoGo3";;;;;;;;;;;;;;;;;;;;;;;;;;;;;;;;;;;;;;;;;;;;;;;"1248";"2014-10-13 13:03:22.305";"ST_correctStop";"2";"1";"FINISHED";"NONE";"success";"0";"1";"2014-10-13 13:03:21.055";"1";;;;;;;;;;;;;;;;;;;;;;;;;;;;;;;;;
"laurenh_96";"1996";;"Windows 7";"Rachel's Experiment (D.T.)";"1.0";"2";"1";"1";"2";"1";"1";"2014-10-13 12:57:22.565";"2014-10-13 13:12:42.126";"1";"1";"1";"99";"98";"module.training_block3.exec-3268.GoNoGo3";;;;;;;;;;;;;;;;;;;;;;;;;;;;;;;;;;;;;;;;;;;;;;;"1248";"2014-10-13 13:03:24.815";"NST_correctLoc";"12";"1";"FINISHED";"RIGHT";"success";"459";"0";"2014-10-13 13:03:23.565";"2";;;;;;;;;;;;;;;;;;;;;;;;;;;;;;;;;
"laurenh_96";"1996";;"Windows 7";"Rachel's Experiment (D.T.)";"1.0";"2";"1";"1";"2";"1";"1";"2014-10-13 12:57:22.565";"2014-10-13 13:12:42.126";"1";"1";"1";"100";"99";"module.training_block3.exec-3268.GoNoGo3";;;;;;;;;;;;;;;;;;;;;;;;;;;;;;;;;;;;;;;;;;;;;;;"1248";"2014-10-13 13:03:27.325";"ST_failedStop";"30";"1";"FINISHED";"RIGHT";"failure";"540";"1";"2014-10-13 13:03:26.075";"3";;;;;;;;;;;;;;;;;;;;;;;;;;;;;;;;;
"laurenh_96";"1996";;"Windows 7";"Rachel's Experiment (D.T.)";"1.0";"2";"1";"1";"2";"1";"1";"2014-10-13 12:57:22.565";"2014-10-13 13:12:42.126";"1";"1";"1";"101";"100";"module.training_block3.exec-3268.GoNoGo3";;;;;;;;;;;;;;;;;;;;;;;;;;;;;;;;;;;;;;;;;;;;;;;"1248";"2014-10-13 13:03:29.835";"NST_correctLoc";"25";"0";"FINISHED";"LEFT";"success";"494";"0";"2014-10-13 13:03:28.585";"3";;;;;;;;;;;;;;;;;;;;;;;;;;;;;;;;;
"laurenh_96";"1996";;"Windows 7";"Rachel's Experiment (D.T.)";"1.0";"2";"1";"1";"2";"1";"1";"2014-10-13 12:57:22.565";"2014-10-13 13:12:42.126";"1";"1";"1";"102";"101";"module.training_block3.exec-3268.GoNoGo3";;;;;;;;;;;;;;;;;;;;;;;;;;;;;;;;;;;;;;;;;;;;;;;"1248";"2014-10-13 13:03:32.345";"ST_correctStop";"22";"1";"FINISHED";"NONE";"success";"0";"1";"2014-10-13 13:03:31.095";"3";;;;;;;;;;;;;;;;;;;;;;;;;;;;;;;;;
"laurenh_96";"1996";;"Windows 7";"Rachel's Experiment (D.T.)";"1.0";"2";"1";"1";"2";"1";"1";"2014-10-13 12:57:22.565";"2014-10-13 13:12:42.126";"1";"1";"1";"103";"102";"module.training_block3.exec-3268.GoNoGo3";;;;;;;;;;;;;;;;;;;;;;;;;;;;;;;;;;;;;;;;;;;;;;;"1248";"2014-10-13 13:03:34.855";"ST_correctStop";"8";"1";"FINISHED";"NONE";"success";"0";"1";"2014-10-13 13:03:33.605";"1";;;;;;;;;;;;;;;;;;;;;;;;;;;;;;;;;
"laurenh_96";"1996";;"Windows 7";"Rachel's Experiment (D.T.)";"1.0";"2";"1";"1";"2";"1";"1";"2014-10-13 12:57:22.565";"2014-10-13 13:12:42.126";"1";"1";"1";"104";"103";"module.training_block3.exec-3268.GoNoGo3";;;;;;;;;;;;;;;;;;;;;;;;;;;;;;;;;;;;;;;;;;;;;;;"1248";"2014-10-13 13:03:37.366";"NST_correctLoc";"35";"1";"FINISHED";"RIGHT";"success";"516";"0";"2014-10-13 13:03:36.116";"3";;;;;;;;;;;;;;;;;;;;;;;;;;;;;;;;;
"laurenh_96";"1996";;"Windows 7";"Rachel's Experiment (D.T.)";"1.0";"2";"1";"1";"2";"1";"1";"2014-10-13 12:57:22.565";"2014-10-13 13:12:42.126";"1";"1";"1";"105";"104";"module.training_block3.exec-3268.GoNoGo3";;;;;;;;;;;;;;;;;;;;;;;;;;;;;;;;;;;;;;;;;;;;;;;"1248";"2014-10-13 13:03:39.876";"NST_correctLoc";"10";"0";"FINISHED";"LEFT";"success";"686";"0";"2014-10-13 13:03:38.626";"2";;;;;;;;;;;;;;;;;;;;;;;;;;;;;;;;;
"laurenh_96";"1996";;"Windows 7";"Rachel's Experiment (D.T.)";"1.0";"2";"1";"1";"2";"1";"1";"2014-10-13 12:57:22.565";"2014-10-13 13:12:42.126";"1";"1";"1";"106";"105";"module.training_block3.exec-3268.GoNoGo3";;;;;;;;;;;;;;;;;;;;;;;;;;;;;;;;;;;;;;;;;;;;;;;"1248";"2014-10-13 13:03:42.386";"NST_correctLoc";"13";"0";"FINISHED";"LEFT";"success";"864";"0";"2014-10-13 13:03:41.136";"2";;;;;;;;;;;;;;;;;;;;;;;;;;;;;;;;;
"laurenh_96";"1996";;"Windows 7";"Rachel's Experiment (D.T.)";"1.0";"2";"1";"1";"2";"1";"1";"2014-10-13 12:57:22.565";"2014-10-13 13:12:42.126";"1";"1";"1";"107";"106";"module.training_block3.exec-3268.GoNoGo3";;;;;;;;;;;;;;;;;;;;;;;;;;;;;;;;;;;;;;;;;;;;;;;"1248";"2014-10-13 13:03:44.896";"ST_correctStop";"20";"0";"FINISHED";"NONE";"success";"0";"1";"2014-10-13 13:03:43.646";"3";;;;;;;;;;;;;;;;;;;;;;;;;;;;;;;;;
"laurenh_96";"1996";;"Windows 7";"Rachel's Experiment (D.T.)";"1.0";"2";"1";"1";"2";"1";"1";"2014-10-13 12:57:22.565";"2014-10-13 13:12:42.126";"1";"1";"1";"108";"107";"module.training_block3.exec-3268.GoNoGo3";;;;;;;;;;;;;;;;;;;;;;;;;;;;;;;;;;;;;;;;;;;;;;;"1248";"2014-10-13 13:03:47.416";"NST_correctLoc";"9";"1";"FINISHED";"RIGHT";"success";"570";"0";"2014-10-13 13:03:46.166";"2";;;;;;;;;;;;;;;;;;;;;;;;;;;;;;;;;
"laurenh_96";"1996";;"Windows 7";"Rachel's Experiment (D.T.)";"1.0";"2";"1";"1";"2";"1";"1";"2014-10-13 12:57:22.565";"2014-10-13 13:12:42.126";"1";"1";"1";"109";"108";"module.training_block3.exec-3268.GoNoGo3";;;;;;;;;;;;;;;;;;;;;;;;;;;;;;;;;;;;;;;;;;;;;;;"1248";"2014-10-13 13:03:49.926";"ST_failedStop";"31";"0";"FINISHED";"LEFT";"failure";"340";"1";"2014-10-13 13:03:48.676";"3";;;;;;;;;;;;;;;;;;;;;;;;;;;;;;;;;
"laurenh_96";"1996";;"Windows 7";"Rachel's Experiment (D.T.)";"1.0";"2";"1";"1";"2";"1";"1";"2014-10-13 12:57:22.565";"2014-10-13 13:12:42.126";"1";"1";"1";"110";"109";"module.training_block3.exec-3268.GoNoGo3";;;;;;;;;;;;;;;;;;;;;;;;;;;;;;;;;;;;;;;;;;;;;;;"1248";"2014-10-13 13:03:52.436";"ST_failedStop";"34";"0";"FINISHED";"LEFT";"failure";"638";"1";"2014-10-13 13:03:51.186";"3";;;;;;;;;;;;;;;;;;;;;;;;;;;;;;;;;
"laurenh_96";"1996";;"Windows 7";"Rachel's Experiment (D.T.)";"1.0";"2";"1";"1";"2";"1";"1";"2014-10-13 12:57:22.565";"2014-10-13 13:12:42.126";"1";"1";"1";"111";"110";"module.training_block3.exec-3268.GoNoGo3";;;;;;;;;;;;;;;;;;;;;;;;;;;;;;;;;;;;;;;;;;;;;;;"1248";"2014-10-13 13:03:54.946";"ST_correctStop";"3";"0";"FINISHED";"NONE";"success";"0";"1";"2014-10-13 13:03:53.696";"1";;;;;;;;;;;;;;;;;;;;;;;;;;;;;;;;;
"laurenh_96";"1996";;"Windows 7";"Rachel's Experiment (D.T.)";"1.0";"2";"1";"1";"2";"1";"1";"2014-10-13 12:57:22.565";"2014-10-13 13:12:42.126";"1";"1";"1";"112";"111";"module.training_block3.exec-3268.GoNoGo3";;;;;;;;;;;;;;;;;;;;;;;;;;;;;;;;;;;;;;;;;;;;;;;"1248";"2014-10-13 13:03:57.456";"ST_failedStop";"28";"0";"FINISHED";"LEFT";"failure";"466";"1";"2014-10-13 13:03:56.206";"3";;;;;;;;;;;;;;;;;;;;;;;;;;;;;;;;;
"laurenh_96";"1996";;"Windows 7";"Rachel's Experiment (D.T.)";"1.0";"2";"1";"1";"2";"1";"1";"2014-10-13 12:57:22.565";"2014-10-13 13:12:42.126";"1";"1";"1";"113";"112";"module.training_block3.exec-3268.GoNoGo3";;;;;;;;;;;;;;;;;;;;;;;;;;;;;;;;;;;;;;;;;;;;;;;"1248";"2014-10-13 13:03:59.966";"NST_correctLoc";"32";"0";"FINISHED";"LEFT";"success";"604";"0";"2014-10-13 13:03:58.716";"3";;;;;;;;;;;;;;;;;;;;;;;;;;;;;;;;;
"laurenh_96";"1996";;"Windows 7";"Rachel's Experiment (D.T.)";"1.0";"2";"1";"1";"2";"1";"1";"2014-10-13 12:57:22.565";"2014-10-13 13:12:42.126";"1";"1";"1";"114";"113";"module.training_block3.exec-3268.GoNoGo3";;;;;;;;;;;;;;;;;;;;;;;;;;;;;;;;;;;;;;;;;;;;;;;"1248";"2014-10-13 13:04:02.476";"ST_failedStop";"24";"0";"FINISHED";"LEFT";"failure";"446";"1";"2014-10-13 13:04:01.226";"3";;;;;;;;;;;;;;;;;;;;;;;;;;;;;;;;;
"laurenh_96";"1996";;"Windows 7";"Rachel's Experiment (D.T.)";"1.0";"2";"1";"1";"2";"1";"1";"2014-10-13 12:57:22.565";"2014-10-13 13:12:42.126";"1";"1";"1";"115";"114";"module.training_block3.exec-3268.GoNoGo3";;;;;;;;;;;;;;;;;;;;;;;;;;;;;;;;;;;;;;;;;;;;;;;"1248";"2014-10-13 13:04:04.986";"ST_correctStop";"7";"1";"FINISHED";"NONE";"success";"0";"1";"2014-10-13 13:04:03.736";"1";;;;;;;;;;;;;;;;;;;;;;;;;;;;;;;;;
"laurenh_96";"1996";;"Windows 7";"Rachel's Experiment (D.T.)";"1.0";"2";"1";"1";"2";"1";"1";"2014-10-13 12:57:22.565";"2014-10-13 13:12:42.126";"1";"1";"1";"116";"115";"module.training_block3.exec-3268.GoNoGo3";;;;;;;;;;;;;;;;;;;;;;;;;;;;;;;;;;;;;;;;;;;;;;;"1248";"2014-10-13 13:04:07.496";"ST_correctStop";"29";"1";"FINISHED";"NONE";"success";"0";"1";"2014-10-13 13:04:06.246";"3";;;;;;;;;;;;;;;;;;;;;;;;;;;;;;;;;
"laurenh_96";"1996";;"Windows 7";"Rachel's Experiment (D.T.)";"1.0";"2";"1";"1";"2";"1";"1";"2014-10-13 12:57:22.565";"2014-10-13 13:12:42.126";"1";"1";"1";"117";"116";"module.training_block3.exec-3268.GoNoGo3";;;;;;;;;;;;;;;;;;;;;;;;;;;;;;;;;;;;;;;;;;;;;;;"1248";"2014-10-13 13:04:10.006";"NST_correctLoc";"33";"1";"FINISHED";"RIGHT";"success";"676";"0";"2014-10-13 13:04:08.756";"3";;;;;;;;;;;;;;;;;;;;;;;;;;;;;;;;;
"laurenh_96";"1996";;"Windows 7";"Rachel's Experiment (D.T.)";"1.0";"2";"1";"1";"2";"1";"1";"2014-10-13 12:57:22.565";"2014-10-13 13:12:42.126";"1";"1";"1";"118";"117";"module.training_block3.exec-3268.GoNoGo3";;;;;;;;;;;;;;;;;;;;;;;;;;;;;;;;;;;;;;;;;;;;;;;"1248";"2014-10-13 13:04:12.516";"ST_correctStop";"5";"0";"FINISHED";"NONE";"success";"0";"1";"2014-10-13 13:04:11.266";"1";;;;;;;;;;;;;;;;;;;;;;;;;;;;;;;;;
"laurenh_96";"1996";;"Windows 7";"Rachel's Experiment (D.T.)";"1.0";"2";"1";"1";"2";"1";"1";"2014-10-13 12:57:22.565";"2014-10-13 13:12:42.126";"1";"1";"1";"119";"118";"module.training_block3.exec-3268.GoNoGo3";;;;;;;;;;;;;;;;;;;;;;;;;;;;;;;;;;;;;;;;;;;;;;;"1248";"2014-10-13 13:04:15.026";"ST_failedStop";"19";"0";"FINISHED";"LEFT";"failure";"520";"1";"2014-10-13 13:04:13.776";"3";;;;;;;;;;;;;;;;;;;;;;;;;;;;;;;;;
"laurenh_96";"1996";;"Windows 7";"Rachel's Experiment (D.T.)";"1.0";"2";"1";"1";"2";"1";"1";"2014-10-13 12:57:22.565";"2014-10-13 13:12:42.126";"1";"1";"1";"120";"119";"module.training_block3.exec-3268.GoNoGo3";;;;;;;;;;;;;;;;;;;;;;;;;;;;;;;;;;;;;;;;;;;;;;;"1248";"2014-10-13 13:04:17.536";"NST_correctLoc";"15";"1";"FINISHED";"RIGHT";"success";"666";"0";"2014-10-13 13:04:16.286";"2";;;;;;;;;;;;;;;;;;;;;;;;;;;;;;;;;
"laurenh_96";"1996";;"Windows 7";"Rachel's Experiment (D.T.)";"1.0";"2";"1";"1";"2";"1";"1";"2014-10-13 12:57:22.565";"2014-10-13 13:12:42.126";"1";"1";"1";"121";"120";"module.training_block3.exec-3268.GoNoGo3";;;;;;;;;;;;;;;;;;;;;;;;;;;;;;;;;;;;;;;;;;;;;;;"1248";"2014-10-13 13:04:20.046";"NST_correctLoc";"27";"0";"FINISHED";"LEFT";"success";"667";"0";"2014-10-13 13:04:18.796";"3";;;;;;;;;;;;;;;;;;;;;;;;;;;;;;;;;
"laurenh_96";"1996";;"Windows 7";"Rachel's Experiment (D.T.)";"1.0";"2";"1";"1";"2";"1";"1";"2014-10-13 12:57:22.565";"2014-10-13 13:12:42.126";"1";"1";"1";"122";"121";"module.training_block3.exec-3268.GoNoGo3";;;;;;;;;;;;;;;;;;;;;;;;;;;;;;;;;;;;;;;;;;;;;;;"1248";"2014-10-13 13:04:22.556";"NST_correctLoc";"23";"0";"FINISHED";"LEFT";"success";"638";"0";"2014-10-13 13:04:21.306";"3";;;;;;;;;;;;;;;;;;;;;;;;;;;;;;;;;
"laurenh_96";"1996";;"Windows 7";"Rachel's Experiment (D.T.)";"1.0";"2";"1";"1";"2";"1";"1";"2014-10-13 12:57:22.565";"2014-10-13 13:12:42.126";"1";"1";"1";"123";"122";"module.training_block3.exec-3268.GoNoGo3";;;;;;;;;;;;;;;;;;;;;;;;;;;;;;;;;;;;;;;;;;;;;;;"1248";"2014-10-13 13:04:25.066";"NST_correctLoc";"18";"0";"FINISHED";"LEFT";"success";"536";"0";"2014-10-13 13:04:23.816";"3";;;;;;;;;;;;;;;;;;;;;;;;;;;;;;;;;
"laurenh_96";"1996";;"Windows 7";"Rachel's Experiment (D.T.)";"1.0";"2";"1";"1";"2";"1";"1";"2014-10-13 12:57:22.565";"2014-10-13 13:12:42.126";"1";"1";"1";"124";"123";"module.training_block4.exec-8904.GoNoGo4";;;;;;;;;;;;;;;;;;;;;;;;;;;;;;;;;;;;;;;;;;;;;;;;;;;;;;;;;;;"1248";"2014-10-13 13:04:35.316";"ST_correctStop";"3";"1";"FINISHED";"NONE";"success";"0";"1";"2014-10-13 13:04:34.066";"1";;;;;;;;;;;;;;;;;;;;;
"laurenh_96";"1996";;"Windows 7";"Rachel's Experiment (D.T.)";"1.0";"2";"1";"1";"2";"1";"1";"2014-10-13 12:57:22.565";"2014-10-13 13:12:42.126";"1";"1";"1";"125";"124";"module.training_block4.exec-8904.GoNoGo4";;;;;;;;;;;;;;;;;;;;;;;;;;;;;;;;;;;;;;;;;;;;;;;;;;;;;;;;;;;"1248";"2014-10-13 13:04:37.826";"ST_correctStop";"34";"0";"FINISHED";"NONE";"success";"0";"1";"2014-10-13 13:04:36.576";"3";;;;;;;;;;;;;;;;;;;;;
"laurenh_96";"1996";;"Windows 7";"Rachel's Experiment (D.T.)";"1.0";"2";"1";"1";"2";"1";"1";"2014-10-13 12:57:22.565";"2014-10-13 13:12:42.126";"1";"1";"1";"126";"125";"module.training_block4.exec-8904.GoNoGo4";;;;;;;;;;;;;;;;;;;;;;;;;;;;;;;;;;;;;;;;;;;;;;;;;;;;;;;;;;;"1248";"2014-10-13 13:04:40.336";"NST_correctLoc";"30";"0";"FINISHED";"LEFT";"success";"513";"0";"2014-10-13 13:04:39.086";"3";;;;;;;;;;;;;;;;;;;;;
"laurenh_96";"1996";;"Windows 7";"Rachel's Experiment (D.T.)";"1.0";"2";"1";"1";"2";"1";"1";"2014-10-13 12:57:22.565";"2014-10-13 13:12:42.126";"1";"1";"1";"127";"126";"module.training_block4.exec-8904.GoNoGo4";;;;;;;;;;;;;;;;;;;;;;;;;;;;;;;;;;;;;;;;;;;;;;;;;;;;;;;;;;;"1248";"2014-10-13 13:04:42.846";"NST_correctLoc";"24";"0";"FINISHED";"LEFT";"success";"539";"0";"2014-10-13 13:04:41.596";"3";;;;;;;;;;;;;;;;;;;;;
"laurenh_96";"1996";;"Windows 7";"Rachel's Experiment (D.T.)";"1.0";"2";"1";"1";"2";"1";"1";"2014-10-13 12:57:22.565";"2014-10-13 13:12:42.126";"1";"1";"1";"128";"127";"module.training_block4.exec-8904.GoNoGo4";;;;;;;;;;;;;;;;;;;;;;;;;;;;;;;;;;;;;;;;;;;;;;;;;;;;;;;;;;;"1248";"2014-10-13 13:04:45.356";"ST_correctStop";"4";"0";"FINISHED";"NONE";"success";"0";"1";"2014-10-13 13:04:44.106";"1";;;;;;;;;;;;;;;;;;;;;
"laurenh_96";"1996";;"Windows 7";"Rachel's Experiment (D.T.)";"1.0";"2";"1";"1";"2";"1";"1";"2014-10-13 12:57:22.565";"2014-10-13 13:12:42.126";"1";"1";"1";"129";"128";"module.training_block4.exec-8904.GoNoGo4";;;;;;;;;;;;;;;;;;;;;;;;;;;;;;;;;;;;;;;;;;;;;;;;;;;;;;;;;;;"1248";"2014-10-13 13:04:47.866";"NST_correctLoc";"13";"1";"FINISHED";"RIGHT";"success";"399";"0";"2014-10-13 13:04:46.616";"2";;;;;;;;;;;;;;;;;;;;;
"laurenh_96";"1996";;"Windows 7";"Rachel's Experiment (D.T.)";"1.0";"2";"1";"1";"2";"1";"1";"2014-10-13 12:57:22.565";"2014-10-13 13:12:42.126";"1";"1";"1";"130";"129";"module.training_block4.exec-8904.GoNoGo4";;;;;;;;;;;;;;;;;;;;;;;;;;;;;;;;;;;;;;;;;;;;;;;;;;;;;;;;;;;"1248";"2014-10-13 13:04:50.376";"ST_correctStop";"25";"0";"FINISHED";"NONE";"success";"0";"1";"2014-10-13 13:04:49.126";"3";;;;;;;;;;;;;;;;;;;;;
"laurenh_96";"1996";;"Windows 7";"Rachel's Experiment (D.T.)";"1.0";"2";"1";"1";"2";"1";"1";"2014-10-13 12:57:22.565";"2014-10-13 13:12:42.126";"1";"1";"1";"131";"130";"module.training_block4.exec-8904.GoNoGo4";;;;;;;;;;;;;;;;;;;;;;;;;;;;;;;;;;;;;;;;;;;;;;;;;;;;;;;;;;;"1248";"2014-10-13 13:04:52.886";"ST_correctStop";"23";"1";"FINISHED";"NONE";"success";"0";"1";"2014-10-13 13:04:51.636";"3";;;;;;;;;;;;;;;;;;;;;
"laurenh_96";"1996";;"Windows 7";"Rachel's Experiment (D.T.)";"1.0";"2";"1";"1";"2";"1";"1";"2014-10-13 12:57:22.565";"2014-10-13 13:12:42.126";"1";"1";"1";"132";"131";"module.training_block4.exec-8904.GoNoGo4";;;;;;;;;;;;;;;;;;;;;;;;;;;;;;;;;;;;;;;;;;;;;;;;;;;;;;;;;;;"1248";"2014-10-13 13:04:55.396";"ST_correctStop";"2";"1";"FINISHED";"NONE";"success";"0";"1";"2014-10-13 13:04:54.146";"1";;;;;;;;;;;;;;;;;;;;;
"laurenh_96";"1996";;"Windows 7";"Rachel's Experiment (D.T.)";"1.0";"2";"1";"1";"2";"1";"1";"2014-10-13 12:57:22.565";"2014-10-13 13:12:42.126";"1";"1";"1";"133";"132";"module.training_block4.exec-8904.GoNoGo4";;;;;;;;;;;;;;;;;;;;;;;;;;;;;;;;;;;;;;;;;;;;;;;;;;;;;;;;;;;"1248";"2014-10-13 13:04:57.906";"ST_correctStop";"8";"1";"FINISHED";"NONE";"success";"0";"1";"2014-10-13 13:04:56.656";"1";;;;;;;;;;;;;;;;;;;;;
"laurenh_96";"1996";;"Windows 7";"Rachel's Experiment (D.T.)";"1.0";"2";"1";"1";"2";"1";"1";"2014-10-13 12:57:22.565";"2014-10-13 13:12:42.126";"1";"1";"1";"134";"133";"module.training_block4.exec-8904.GoNoGo4";;;;;;;;;;;;;;;;;;;;;;;;;;;;;;;;;;;;;;;;;;;;;;;;;;;;;;;;;;;"1248";"2014-10-13 13:05:00.416";"NST_correctLoc";"10";"0";"FINISHED";"LEFT";"success";"521";"0";"2014-10-13 13:04:59.166";"2";;;;;;;;;;;;;;;;;;;;;
"laurenh_96";"1996";;"Windows 7";"Rachel's Experiment (D.T.)";"1.0";"2";"1";"1";"2";"1";"1";"2014-10-13 12:57:22.565";"2014-10-13 13:12:42.126";"1";"1";"1";"135";"134";"module.training_block4.exec-8904.GoNoGo4";;;;;;;;;;;;;;;;;;;;;;;;;;;;;;;;;;;;;;;;;;;;;;;;;;;;;;;;;;;"1248";"2014-10-13 13:05:02.926";"ST_correctStop";"20";"1";"FINISHED";"NONE";"success";"0";"1";"2014-10-13 13:05:01.676";"3";;;;;;;;;;;;;;;;;;;;;
"laurenh_96";"1996";;"Windows 7";"Rachel's Experiment (D.T.)";"1.0";"2";"1";"1";"2";"1";"1";"2014-10-13 12:57:22.565";"2014-10-13 13:12:42.126";"1";"1";"1";"136";"135";"module.training_block4.exec-8904.GoNoGo4";;;;;;;;;;;;;;;;;;;;;;;;;;;;;;;;;;;;;;;;;;;;;;;;;;;;;;;;;;;"1248";"2014-10-13 13:05:05.436";"ST_correctStop";"6";"1";"FINISHED";"NONE";"success";"0";"1";"2014-10-13 13:05:04.186";"1";;;;;;;;;;;;;;;;;;;;;
"laurenh_96";"1996";;"Windows 7";"Rachel's Experiment (D.T.)";"1.0";"2";"1";"1";"2";"1";"1";"2014-10-13 12:57:22.565";"2014-10-13 13:12:42.126";"1";"1";"1";"137";"136";"module.training_block4.exec-8904.GoNoGo4";;;;;;;;;;;;;;;;;;;;;;;;;;;;;;;;;;;;;;;;;;;;;;;;;;;;;;;;;;;"1248";"2014-10-13 13:05:07.956";"NST_correctLoc";"9";"0";"FINISHED";"LEFT";"success";"533";"0";"2014-10-13 13:05:06.706";"2";;;;;;;;;;;;;;;;;;;;;
"laurenh_96";"1996";;"Windows 7";"Rachel's Experiment (D.T.)";"1.0";"2";"1";"1";"2";"1";"1";"2014-10-13 12:57:22.565";"2014-10-13 13:12:42.126";"1";"1";"1";"138";"137";"module.training_block4.exec-8904.GoNoGo4";;;;;;;;;;;;;;;;;;;;;;;;;;;;;;;;;;;;;;;;;;;;;;;;;;;;;;;;;;;"1248";"2014-10-13 13:05:10.466";"ST_correctStop";"26";"1";"FINISHED";"NONE";"success";"0";"1";"2014-10-13 13:05:09.216";"3";;;;;;;;;;;;;;;;;;;;;
"laurenh_96";"1996";;"Windows 7";"Rachel's Experiment (D.T.)";"1.0";"2";"1";"1";"2";"1";"1";"2014-10-13 12:57:22.565";"2014-10-13 13:12:42.126";"1";"1";"1";"139";"138";"module.training_block4.exec-8904.GoNoGo4";;;;;;;;;;;;;;;;;;;;;;;;;;;;;;;;;;;;;;;;;;;;;;;;;;;;;;;;;;;"1248";"2014-10-13 13:05:12.976";"NST_correctLoc";"27";"1";"FINISHED";"RIGHT";"success";"657";"0";"2014-10-13 13:05:11.726";"3";;;;;;;;;;;;;;;;;;;;;
"laurenh_96";"1996";;"Windows 7";"Rachel's Experiment (D.T.)";"1.0";"2";"1";"1";"2";"1";"1";"2014-10-13 12:57:22.565";"2014-10-13 13:12:42.126";"1";"1";"1";"140";"139";"module.training_block4.exec-8904.GoNoGo4";;;;;;;;;;;;;;;;;;;;;;;;;;;;;;;;;;;;;;;;;;;;;;;;;;;;;;;;;;;"1248";"2014-10-13 13:05:15.486";"NST_correctLoc";"33";"0";"FINISHED";"LEFT";"success";"611";"0";"2014-10-13 13:05:14.236";"3";;;;;;;;;;;;;;;;;;;;;
"laurenh_96";"1996";;"Windows 7";"Rachel's Experiment (D.T.)";"1.0";"2";"1";"1";"2";"1";"1";"2014-10-13 12:57:22.565";"2014-10-13 13:12:42.126";"1";"1";"1";"141";"140";"module.training_block4.exec-8904.GoNoGo4";;;;;;;;;;;;;;;;;;;;;;;;;;;;;;;;;;;;;;;;;;;;;;;;;;;;;;;;;;;"1248";"2014-10-13 13:05:17.996";"ST_correctStop";"7";"1";"FINISHED";"NONE";"success";"0";"1";"2014-10-13 13:05:16.746";"1";;;;;;;;;;;;;;;;;;;;;
"laurenh_96";"1996";;"Windows 7";"Rachel's Experiment (D.T.)";"1.0";"2";"1";"1";"2";"1";"1";"2014-10-13 12:57:22.565";"2014-10-13 13:12:42.126";"1";"1";"1";"142";"141";"module.training_block4.exec-8904.GoNoGo4";;;;;;;;;;;;;;;;;;;;;;;;;;;;;;;;;;;;;;;;;;;;;;;;;;;;;;;;;;;"1248";"2014-10-13 13:05:20.506";"NST_correctLoc";"17";"1";"FINISHED";"RIGHT";"success";"567";"0";"2014-10-13 13:05:19.256";"2";;;;;;;;;;;;;;;;;;;;;
"laurenh_96";"1996";;"Windows 7";"Rachel's Experiment (D.T.)";"1.0";"2";"1";"1";"2";"1";"1";"2014-10-13 12:57:22.565";"2014-10-13 13:12:42.126";"1";"1";"1";"143";"142";"module.training_block4.exec-8904.GoNoGo4";;;;;;;;;;;;;;;;;;;;;;;;;;;;;;;;;;;;;;;;;;;;;;;;;;;;;;;;;;;"1248";"2014-10-13 13:05:23.016";"ST_correctStop";"21";"1";"FINISHED";"NONE";"success";"0";"1";"2014-10-13 13:05:21.766";"3";;;;;;;;;;;;;;;;;;;;;
"laurenh_96";"1996";;"Windows 7";"Rachel's Experiment (D.T.)";"1.0";"2";"1";"1";"2";"1";"1";"2014-10-13 12:57:22.565";"2014-10-13 13:12:42.126";"1";"1";"1";"144";"143";"module.training_block4.exec-8904.GoNoGo4";;;;;;;;;;;;;;;;;;;;;;;;;;;;;;;;;;;;;;;;;;;;;;;;;;;;;;;;;;;"1248";"2014-10-13 13:05:25.526";"NST_correctLoc";"32";"0";"FINISHED";"LEFT";"success";"387";"0";"2014-10-13 13:05:24.276";"3";;;;;;;;;;;;;;;;;;;;;
"laurenh_96";"1996";;"Windows 7";"Rachel's Experiment (D.T.)";"1.0";"2";"1";"1";"2";"1";"1";"2014-10-13 12:57:22.565";"2014-10-13 13:12:42.126";"1";"1";"1";"145";"144";"module.training_block4.exec-8904.GoNoGo4";;;;;;;;;;;;;;;;;;;;;;;;;;;;;;;;;;;;;;;;;;;;;;;;;;;;;;;;;;;"1248";"2014-10-13 13:05:28.036";"ST_correctStop";"5";"1";"FINISHED";"NONE";"success";"0";"1";"2014-10-13 13:05:26.786";"1";;;;;;;;;;;;;;;;;;;;;
"laurenh_96";"1996";;"Windows 7";"Rachel's Experiment (D.T.)";"1.0";"2";"1";"1";"2";"1";"1";"2014-10-13 12:57:22.565";"2014-10-13 13:12:42.126";"1";"1";"1";"146";"145";"module.training_block4.exec-8904.GoNoGo4";;;;;;;;;;;;;;;;;;;;;;;;;;;;;;;;;;;;;;;;;;;;;;;;;;;;;;;;;;;"1248";"2014-10-13 13:05:30.546";"ST_correctStop";"19";"1";"FINISHED";"NONE";"success";"0";"1";"2014-10-13 13:05:29.296";"3";;;;;;;;;;;;;;;;;;;;;
"laurenh_96";"1996";;"Windows 7";"Rachel's Experiment (D.T.)";"1.0";"2";"1";"1";"2";"1";"1";"2014-10-13 12:57:22.565";"2014-10-13 13:12:42.126";"1";"1";"1";"147";"146";"module.training_block4.exec-8904.GoNoGo4";;;;;;;;;;;;;;;;;;;;;;;;;;;;;;;;;;;;;;;;;;;;;;;;;;;;;;;;;;;"1248";"2014-10-13 13:05:33.056";"NST_correctLoc";"29";"0";"FINISHED";"LEFT";"success";"513";"0";"2014-10-13 13:05:31.806";"3";;;;;;;;;;;;;;;;;;;;;
"laurenh_96";"1996";;"Windows 7";"Rachel's Experiment (D.T.)";"1.0";"2";"1";"1";"2";"1";"1";"2014-10-13 12:57:22.565";"2014-10-13 13:12:42.126";"1";"1";"1";"148";"147";"module.training_block4.exec-8904.GoNoGo4";;;;;;;;;;;;;;;;;;;;;;;;;;;;;;;;;;;;;;;;;;;;;;;;;;;;;;;;;;;"1248";"2014-10-13 13:05:35.566";"NST_correctLoc";"12";"0";"FINISHED";"LEFT";"success";"603";"0";"2014-10-13 13:05:34.316";"2";;;;;;;;;;;;;;;;;;;;;
"laurenh_96";"1996";;"Windows 7";"Rachel's Experiment (D.T.)";"1.0";"2";"1";"1";"2";"1";"1";"2014-10-13 12:57:22.565";"2014-10-13 13:12:42.126";"1";"1";"1";"149";"148";"module.training_block4.exec-8904.GoNoGo4";;;;;;;;;;;;;;;;;;;;;;;;;;;;;;;;;;;;;;;;;;;;;;;;;;;;;;;;;;;"1248";"2014-10-13 13:05:38.076";"NST_correctLoc";"16";"0";"FINISHED";"LEFT";"success";"629";"0";"2014-10-13 13:05:36.826";"2";;;;;;;;;;;;;;;;;;;;;
"laurenh_96";"1996";;"Windows 7";"Rachel's Experiment (D.T.)";"1.0";"2";"1";"1";"2";"1";"1";"2014-10-13 12:57:22.565";"2014-10-13 13:12:42.126";"1";"1";"1";"150";"149";"module.training_block4.exec-8904.GoNoGo4";;;;;;;;;;;;;;;;;;;;;;;;;;;;;;;;;;;;;;;;;;;;;;;;;;;;;;;;;;;"1248";"2014-10-13 13:05:40.586";"NST_correctLoc";"18";"1";"FINISHED";"RIGHT";"success";"647";"0";"2014-10-13 13:05:39.336";"3";;;;;;;;;;;;;;;;;;;;;
"laurenh_96";"1996";;"Windows 7";"Rachel's Experiment (D.T.)";"1.0";"2";"1";"1";"2";"1";"1";"2014-10-13 12:57:22.565";"2014-10-13 13:12:42.126";"1";"1";"1";"151";"150";"module.training_block4.exec-8904.GoNoGo4";;;;;;;;;;;;;;;;;;;;;;;;;;;;;;;;;;;;;;;;;;;;;;;;;;;;;;;;;;;"1248";"2014-10-13 13:05:43.096";"NST_correctLoc";"35";"1";"FINISHED";"RIGHT";"success";"425";"0";"2014-10-13 13:05:41.846";"3";;;;;;;;;;;;;;;;;;;;;
"laurenh_96";"1996";;"Windows 7";"Rachel's Experiment (D.T.)";"1.0";"2";"1";"1";"2";"1";"1";"2014-10-13 12:57:22.565";"2014-10-13 13:12:42.126";"1";"1";"1";"152";"151";"module.training_block4.exec-8904.GoNoGo4";;;;;;;;;;;;;;;;;;;;;;;;;;;;;;;;;;;;;;;;;;;;;;;;;;;;;;;;;;;"1248";"2014-10-13 13:05:45.606";"NST_correctLoc";"14";"1";"FINISHED";"RIGHT";"success";"563";"0";"2014-10-13 13:05:44.356";"2";;;;;;;;;;;;;;;;;;;;;
"laurenh_96";"1996";;"Windows 7";"Rachel's Experiment (D.T.)";"1.0";"2";"1";"1";"2";"1";"1";"2014-10-13 12:57:22.565";"2014-10-13 13:12:42.126";"1";"1";"1";"153";"152";"module.training_block4.exec-8904.GoNoGo4";;;;;;;;;;;;;;;;;;;;;;;;;;;;;;;;;;;;;;;;;;;;;;;;;;;;;;;;;;;"1248";"2014-10-13 13:05:48.116";"ST_correctStop";"0";"1";"FINISHED";"NONE";"success";"0";"1";"2014-10-13 13:05:46.866";"1";;;;;;;;;;;;;;;;;;;;;
"laurenh_96";"1996";;"Windows 7";"Rachel's Experiment (D.T.)";"1.0";"2";"1";"1";"2";"1";"1";"2014-10-13 12:57:22.565";"2014-10-13 13:12:42.126";"1";"1";"1";"154";"153";"module.training_block4.exec-8904.GoNoGo4";;;;;;;;;;;;;;;;;;;;;;;;;;;;;;;;;;;;;;;;;;;;;;;;;;;;;;;;;;;"1248";"2014-10-13 13:05:50.626";"NST_correctLoc";"11";"1";"FINISHED";"RIGHT";"success";"439";"0";"2014-10-13 13:05:49.376";"2";;;;;;;;;;;;;;;;;;;;;
"laurenh_96";"1996";;"Windows 7";"Rachel's Experiment (D.T.)";"1.0";"2";"1";"1";"2";"1";"1";"2014-10-13 12:57:22.565";"2014-10-13 13:12:42.126";"1";"1";"1";"155";"154";"module.training_block4.exec-8904.GoNoGo4";;;;;;;;;;;;;;;;;;;;;;;;;;;;;;;;;;;;;;;;;;;;;;;;;;;;;;;;;;;"1248";"2014-10-13 13:05:53.136";"ST_correctStop";"22";"1";"FINISHED";"NONE";"success";"0";"1";"2014-10-13 13:05:51.886";"3";;;;;;;;;;;;;;;;;;;;;
"laurenh_96";"1996";;"Windows 7";"Rachel's Experiment (D.T.)";"1.0";"2";"1";"1";"2";"1";"1";"2014-10-13 12:57:22.565";"2014-10-13 13:12:42.126";"1";"1";"1";"156";"155";"module.training_block4.exec-8904.GoNoGo4";;;;;;;;;;;;;;;;;;;;;;;;;;;;;;;;;;;;;;;;;;;;;;;;;;;;;;;;;;;"1248";"2014-10-13 13:05:55.646";"ST_failedStop";"1";"0";"FINISHED";"LEFT";"failure";"563";"1";"2014-10-13 13:05:54.396";"1";;;;;;;;;;;;;;;;;;;;;
"laurenh_96";"1996";;"Windows 7";"Rachel's Experiment (D.T.)";"1.0";"2";"1";"1";"2";"1";"1";"2014-10-13 12:57:22.565";"2014-10-13 13:12:42.126";"1";"1";"1";"157";"156";"module.training_block4.exec-8904.GoNoGo4";;;;;;;;;;;;;;;;;;;;;;;;;;;;;;;;;;;;;;;;;;;;;;;;;;;;;;;;;;;"1248";"2014-10-13 13:05:58.156";"NST_correctLoc";"31";"0";"FINISHED";"LEFT";"success";"501";"0";"2014-10-13 13:05:56.906";"3";;;;;;;;;;;;;;;;;;;;;
"laurenh_96";"1996";;"Windows 7";"Rachel's Experiment (D.T.)";"1.0";"2";"1";"1";"2";"1";"1";"2014-10-13 12:57:22.565";"2014-10-13 13:12:42.126";"1";"1";"1";"158";"157";"module.training_block4.exec-8904.GoNoGo4";;;;;;;;;;;;;;;;;;;;;;;;;;;;;;;;;;;;;;;;;;;;;;;;;;;;;;;;;;;"1248";"2014-10-13 13:06:00.666";"ST_correctStop";"28";"0";"FINISHED";"NONE";"success";"0";"1";"2014-10-13 13:05:59.416";"3";;;;;;;;;;;;;;;;;;;;;
"laurenh_96";"1996";;"Windows 7";"Rachel's Experiment (D.T.)";"1.0";"2";"1";"1";"2";"1";"1";"2014-10-13 12:57:22.565";"2014-10-13 13:12:42.126";"1";"1";"1";"159";"158";"module.training_block4.exec-8904.GoNoGo4";;;;;;;;;;;;;;;;;;;;;;;;;;;;;;;;;;;;;;;;;;;;;;;;;;;;;;;;;;;"1248";"2014-10-13 13:06:03.176";"NST_correctLoc";"15";"0";"FINISHED";"LEFT";"success";"601";"0";"2014-10-13 13:06:01.926";"2";;;;;;;;;;;;;;;;;;;;;
"laurenh_96";"1996";;"Windows 7";"Rachel's Experiment (D.T.)";"1.0";"2";"1";"1";"2";"1";"1";"2014-10-13 12:57:22.565";"2014-10-13 13:12:42.126";"1";"1";"1";"160";"159";"module.devaluation_practice.exec-2217.devalPractice";;;;;;;;;;;;"31171";"2014-10-13 13:07:46.236";"0";"7";"8";"8";"4569";"2713";"20871";"2014-10-13 13:07:15.066";;;;;;;;;;;;;;;;;;;;;;;;;;;;;;;;;;;;;;;;;;;;;;;;;;;;;;;;;;;;;;;;;;;;;;
"laurenh_96";"1996";;"Windows 7";"Rachel's Experiment (D.T.)";"1.0";"2";"1";"1";"2";"1";"1";"2014-10-13 12:57:22.565";"2014-10-13 13:12:42.126";"1";"1";"1";"161";"160";"module.devaluation_practice.exec-2217.devalPractice";;;;;;;;;;;;"11122";"2014-10-13 13:07:57.376";"1";"3";"2";"4";"3371";"2155";"2605";"2014-10-13 13:07:46.256";;;;;;;;;;;;;;;;;;;;;;;;;;;;;;;;;;;;;;;;;;;;;;;;;;;;;;;;;;;;;;;;;;;;;;
"laurenh_96";"1996";;"Windows 7";"Rachel's Experiment (D.T.)";"1.0";"2";"1";"1";"2";"1";"1";"2014-10-13 12:57:22.565";"2014-10-13 13:12:42.126";"1";"1";"1";"162";"161";"module.devaluation_practice.exec-2217.devalPractice";;;;;;;;;;;;"8256";"2014-10-13 13:08:05.656";"2";"8";"9";"8";"1427";"1184";"2646";"2014-10-13 13:07:57.406";;;;;;;;;;;;;;;;;;;;;;;;;;;;;;;;;;;;;;;;;;;;;;;;;;;;;;;;;;;;;;;;;;;;;;
"laurenh_96";"1996";;"Windows 7";"Rachel's Experiment (D.T.)";"1.0";"2";"1";"1";"2";"1";"1";"2014-10-13 12:57:22.565";"2014-10-13 13:12:42.126";"1";"1";"1";"163";"162";"module.devaluation_practice.exec-2217.devalPractice";;;;;;;;;;;;"8595";"2014-10-13 13:08:14.276";"3";"6";"5";"5";"2954";"1563";"955";"2014-10-13 13:08:05.676";;;;;;;;;;;;;;;;;;;;;;;;;;;;;;;;;;;;;;;;;;;;;;;;;;;;;;;;;;;;;;;;;;;;;;
"laurenh_96";"1996";;"Windows 7";"Rachel's Experiment (D.T.)";"1.0";"2";"1";"1";"2";"1";"1";"2014-10-13 12:57:22.565";"2014-10-13 13:12:42.126";"1";"1";"1";"164";"163";"module.devaluation_block1.exec-9250.deval1";"10793";"2014-10-13 13:08:30.046";"7";"6";"6";"7";"3453";"1208";"3144";"2014-10-13 13:08:19.246";"1";;;;;;;;;;;;;;;;;;;;;;;;;;;;;;;;;;;;;;;;;;;;;;;;;;;;;;;;;;;;;;;;;;;;;;;;;;;;;;;;
"laurenh_96";"1996";;"Windows 7";"Rachel's Experiment (D.T.)";"1.0";"2";"1";"1";"2";"1";"1";"2014-10-13 12:57:22.565";"2014-10-13 13:12:42.126";"1";"1";"1";"165";"164";"module.devaluation_block1.exec-9250.deval1";"9379";"2014-10-13 13:08:39.446";"14";"7";"5";"6";"3162";"1368";"1846";"2014-10-13 13:08:30.066";"2";;;;;;;;;;;;;;;;;;;;;;;;;;;;;;;;;;;;;;;;;;;;;;;;;;;;;;;;;;;;;;;;;;;;;;;;;;;;;;;;
"laurenh_96";"1996";;"Windows 7";"Rachel's Experiment (D.T.)";"1.0";"2";"1";"1";"2";"1";"1";"2014-10-13 12:57:22.565";"2014-10-13 13:12:42.126";"1";"1";"1";"166";"165";"module.devaluation_block1.exec-9250.deval1";"9323";"2014-10-13 13:08:48.786";"10";"5";"2";"4";"2234";"1462";"2632";"2014-10-13 13:08:39.466";"2";;;;;;;;;;;;;;;;;;;;;;;;;;;;;;;;;;;;;;;;;;;;;;;;;;;;;;;;;;;;;;;;;;;;;;;;;;;;;;;;
"laurenh_96";"1996";;"Windows 7";"Rachel's Experiment (D.T.)";"1.0";"2";"1";"1";"2";"1";"1";"2014-10-13 12:57:22.565";"2014-10-13 13:12:42.126";"1";"1";"1";"167";"166";"module.devaluation_block1.exec-9250.deval1";"9995";"2014-10-13 13:08:58.806";"0";"4";"6";"6";"3302";"2058";"1638";"2014-10-13 13:08:48.806";"1";;;;;;;;;;;;;;;;;;;;;;;;;;;;;;;;;;;;;;;;;;;;;;;;;;;;;;;;;;;;;;;;;;;;;;;;;;;;;;;;
"laurenh_96";"1996";;"Windows 7";"Rachel's Experiment (D.T.)";"1.0";"2";"1";"1";"2";"1";"1";"2014-10-13 12:57:22.565";"2014-10-13 13:12:42.126";"1";"1";"1";"168";"167";"module.devaluation_block1.exec-9250.deval1";"7651";"2014-10-13 13:09:06.476";"5";"6";"9";"8";"1450";"1210";"1996";"2014-10-13 13:08:58.826";"1";;;;;;;;;;;;;;;;;;;;;;;;;;;;;;;;;;;;;;;;;;;;;;;;;;;;;;;;;;;;;;;;;;;;;;;;;;;;;;;;
"laurenh_96";"1996";;"Windows 7";"Rachel's Experiment (D.T.)";"1.0";"2";"1";"1";"2";"1";"1";"2014-10-13 12:57:22.565";"2014-10-13 13:12:42.126";"1";"1";"1";"169";"168";"module.devaluation_block1.exec-9250.deval1";"12715";"2014-10-13 13:09:19.206";"12";"6";"5";"5";"1268";"646";"7802";"2014-10-13 13:09:06.496";"2";;;;;;;;;;;;;;;;;;;;;;;;;;;;;;;;;;;;;;;;;;;;;;;;;;;;;;;;;;;;;;;;;;;;;;;;;;;;;;;;
"laurenh_96";"1996";;"Windows 7";"Rachel's Experiment (D.T.)";"1.0";"2";"1";"1";"2";"1";"1";"2014-10-13 12:57:22.565";"2014-10-13 13:12:42.126";"1";"1";"1";"170";"169";"module.devaluation_block1.exec-9250.deval1";"50307";"2014-10-13 13:10:09.546";"22";"7";"5";"8";"44437";"1161";"1708";"2014-10-13 13:09:19.236";"3";;;;;;;;;;;;;;;;;;;;;;;;;;;;;;;;;;;;;;;;;;;;;;;;;;;;;;;;;;;;;;;;;;;;;;;;;;;;;;;;
"laurenh_96";"1996";;"Windows 7";"Rachel's Experiment (D.T.)";"1.0";"2";"1";"1";"2";"1";"1";"2014-10-13 12:57:22.565";"2014-10-13 13:12:42.126";"1";"1";"1";"171";"170";"module.devaluation_block1.exec-9250.deval1";"8960";"2014-10-13 13:10:18.526";"15";"3";"2";"3";"3085";"1275";"1609";"2014-10-13 13:10:09.566";"2";;;;;;;;;;;;;;;;;;;;;;;;;;;;;;;;;;;;;;;;;;;;;;;;;;;;;;;;;;;;;;;;;;;;;;;;;;;;;;;;
"laurenh_96";"1996";;"Windows 7";"Rachel's Experiment (D.T.)";"1.0";"2";"1";"1";"2";"1";"1";"2014-10-13 12:57:22.565";"2014-10-13 13:12:42.126";"1";"1";"1";"172";"171";"module.devaluation_block1.exec-9250.deval1";"7443";"2014-10-13 13:10:25.996";"17";"2";"3";"3";"2353";"929";"1175";"2014-10-13 13:10:18.546";"2";;;;;;;;;;;;;;;;;;;;;;;;;;;;;;;;;;;;;;;;;;;;;;;;;;;;;;;;;;;;;;;;;;;;;;;;;;;;;;;;
"laurenh_96";"1996";;"Windows 7";"Rachel's Experiment (D.T.)";"1.0";"2";"1";"1";"2";"1";"1";"2014-10-13 12:57:22.565";"2014-10-13 13:12:42.126";"1";"1";"1";"173";"172";"module.devaluation_block1.exec-9250.deval1";"8088";"2014-10-13 13:10:34.106";"19";"6";"9";"8";"2523";"1031";"1544";"2014-10-13 13:10:26.016";"3";;;;;;;;;;;;;;;;;;;;;;;;;;;;;;;;;;;;;;;;;;;;;;;;;;;;;;;;;;;;;;;;;;;;;;;;;;;;;;;;
"laurenh_96";"1996";;"Windows 7";"Rachel's Experiment (D.T.)";"1.0";"2";"1";"1";"2";"1";"1";"2014-10-13 12:57:22.565";"2014-10-13 13:12:42.126";"1";"1";"1";"174";"173";"module.devaluation_block1.exec-9250.deval1";"6875";"2014-10-13 13:10:41.006";"13";"3";"2";"2";"1941";"947";"989";"2014-10-13 13:10:34.126";"2";;;;;;;;;;;;;;;;;;;;;;;;;;;;;;;;;;;;;;;;;;;;;;;;;;;;;;;;;;;;;;;;;;;;;;;;;;;;;;;;
"laurenh_96";"1996";;"Windows 7";"Rachel's Experiment (D.T.)";"1.0";"2";"1";"1";"2";"1";"1";"2014-10-13 12:57:22.565";"2014-10-13 13:12:42.126";"1";"1";"1";"175";"174";"module.devaluation_block1.exec-9250.deval1";"7698";"2014-10-13 13:10:48.726";"8";"7";"6";"6";"2369";"857";"1467";"2014-10-13 13:10:41.026";"1";;;;;;;;;;;;;;;;;;;;;;;;;;;;;;;;;;;;;;;;;;;;;;;;;;;;;;;;;;;;;;;;;;;;;;;;;;;;;;;;
"laurenh_96";"1996";;"Windows 7";"Rachel's Experiment (D.T.)";"1.0";"2";"1";"1";"2";"1";"1";"2014-10-13 12:57:22.565";"2014-10-13 13:12:42.126";"1";"1";"1";"176";"175";"module.devaluation_block1.exec-9250.deval1";"7491";"2014-10-13 13:10:56.236";"16";"3";"3";"2";"977";"1239";"2273";"2014-10-13 13:10:48.746";"2";;;;;;;;;;;;;;;;;;;;;;;;;;;;;;;;;;;;;;;;;;;;;;;;;;;;;;;;;;;;;;;;;;;;;;;;;;;;;;;;
"laurenh_96";"1996";;"Windows 7";"Rachel's Experiment (D.T.)";"1.0";"2";"1";"1";"2";"1";"1";"2014-10-13 12:57:22.565";"2014-10-13 13:12:42.126";"1";"1";"1";"177";"176";"module.devaluation_block1.exec-9250.deval1";"6138";"2014-10-13 13:11:02.396";"18";"8";"8";"8";"1163";"909";"1071";"2014-10-13 13:10:56.256";"3";;;;;;;;;;;;;;;;;;;;;;;;;;;;;;;;;;;;;;;;;;;;;;;;;;;;;;;;;;;;;;;;;;;;;;;;;;;;;;;;
"laurenh_96";"1996";;"Windows 7";"Rachel's Experiment (D.T.)";"1.0";"2";"1";"1";"2";"1";"1";"2014-10-13 12:57:22.565";"2014-10-13 13:12:42.126";"1";"1";"1";"178";"177";"module.devaluation_block1.exec-9250.deval1";"7888";"2014-10-13 13:11:10.306";"9";"3";"6";"6";"1715";"761";"2425";"2014-10-13 13:11:02.416";"2";;;;;;;;;;;;;;;;;;;;;;;;;;;;;;;;;;;;;;;;;;;;;;;;;;;;;;;;;;;;;;;;;;;;;;;;;;;;;;;;
"laurenh_96";"1996";;"Windows 7";"Rachel's Experiment (D.T.)";"1.0";"2";"1";"1";"2";"1";"1";"2014-10-13 12:57:22.565";"2014-10-13 13:12:42.126";"1";"1";"1";"179";"178";"module.devaluation_block1.exec-9250.deval1";"8475";"2014-10-13 13:11:18.806";"21";"4";"8";"7";"2517";"1247";"1713";"2014-10-13 13:11:10.326";"3";;;;;;;;;;;;;;;;;;;;;;;;;;;;;;;;;;;;;;;;;;;;;;;;;;;;;;;;;;;;;;;;;;;;;;;;;;;;;;;;
"laurenh_96";"1996";;"Windows 7";"Rachel's Experiment (D.T.)";"1.0";"2";"1";"1";"2";"1";"1";"2014-10-13 12:57:22.565";"2014-10-13 13:12:42.126";"1";"1";"1";"180";"179";"module.devaluation_block1.exec-9250.deval1";"10209";"2014-10-13 13:11:29.036";"23";"8";"7";"8";"3641";"849";"2725";"2014-10-13 13:11:18.826";"3";;;;;;;;;;;;;;;;;;;;;;;;;;;;;;;;;;;;;;;;;;;;;;;;;;;;;;;;;;;;;;;;;;;;;;;;;;;;;;;;
"laurenh_96";"1996";;"Windows 7";"Rachel's Experiment (D.T.)";"1.0";"2";"1";"1";"2";"1";"1";"2014-10-13 12:57:22.565";"2014-10-13 13:12:42.126";"1";"1";"1";"181";"180";"module.devaluation_block1.exec-9250.deval1";"8234";"2014-10-13 13:11:37.286";"20";"5";"6";"5";"2771";"1245";"1221";"2014-10-13 13:11:29.056";"3";;;;;;;;;;;;;;;;;;;;;;;;;;;;;;;;;;;;;;;;;;;;;;;;;;;;;;;;;;;;;;;;;;;;;;;;;;;;;;;;
"laurenh_96";"1996";;"Windows 7";"Rachel's Experiment (D.T.)";"1.0";"2";"1";"1";"2";"1";"1";"2014-10-13 12:57:22.565";"2014-10-13 13:12:42.126";"1";"1";"1";"182";"181";"module.devaluation_block1.exec-9250.deval1";"6035";"2014-10-13 13:11:43.346";"2";"5";"6";"5";"577";"2151";"313";"2014-10-13 13:11:37.306";"1";;;;;;;;;;;;;;;;;;;;;;;;;;;;;;;;;;;;;;;;;;;;;;;;;;;;;;;;;;;;;;;;;;;;;;;;;;;;;;;;
"laurenh_96";"1996";;"Windows 7";"Rachel's Experiment (D.T.)";"1.0";"2";"1";"1";"2";"1";"1";"2014-10-13 12:57:22.565";"2014-10-13 13:12:42.126";"1";"1";"1";"183";"182";"module.devaluation_block1.exec-9250.deval1";"6698";"2014-10-13 13:11:50.066";"25";"6";"6";"7";"1293";"841";"1575";"2014-10-13 13:11:43.366";"3";;;;;;;;;;;;;;;;;;;;;;;;;;;;;;;;;;;;;;;;;;;;;;;;;;;;;;;;;;;;;;;;;;;;;;;;;;;;;;;;
"laurenh_96";"1996";;"Windows 7";"Rachel's Experiment (D.T.)";"1.0";"2";"1";"1";"2";"1";"1";"2014-10-13 12:57:22.565";"2014-10-13 13:12:42.126";"1";"1";"1";"184";"183";"module.devaluation_block1.exec-9250.deval1";"6858";"2014-10-13 13:11:56.946";"11";"2";"2";"3";"1405";"901";"1561";"2014-10-13 13:11:50.086";"2";;;;;;;;;;;;;;;;;;;;;;;;;;;;;;;;;;;;;;;;;;;;;;;;;;;;;;;;;;;;;;;;;;;;;;;;;;;;;;;;
"laurenh_96";"1996";;"Windows 7";"Rachel's Experiment (D.T.)";"1.0";"2";"1";"1";"2";"1";"1";"2014-10-13 12:57:22.565";"2014-10-13 13:12:42.126";"1";"1";"1";"185";"184";"module.devaluation_block1.exec-9250.deval1";"5675";"2014-10-13 13:12:02.636";"1";"5";"4";"5";"1013";"1317";"351";"2014-10-13 13:11:56.966";"1";;;;;;;;;;;;;;;;;;;;;;;;;;;;;;;;;;;;;;;;;;;;;;;;;;;;;;;;;;;;;;;;;;;;;;;;;;;;;;;;
"laurenh_96";"1996";;"Windows 7";"Rachel's Experiment (D.T.)";"1.0";"2";"1";"1";"2";"1";"1";"2014-10-13 12:57:22.565";"2014-10-13 13:12:42.126";"1";"1";"1";"186";"185";"module.devaluation_block1.exec-9250.deval1";"8923";"2014-10-13 13:12:11.586";"24";"7";"6";"7";"4193";"731";"999";"2014-10-13 13:12:02.666";"3";;;;;;;;;;;;;;;;;;;;;;;;;;;;;;;;;;;;;;;;;;;;;;;;;;;;;;;;;;;;;;;;;;;;;;;;;;;;;;;;
"laurenh_96";"1996";;"Windows 7";"Rachel's Experiment (D.T.)";"1.0";"2";"1";"1";"2";"1";"1";"2014-10-13 12:57:22.565";"2014-10-13 13:12:42.126";"1";"1";"1";"187";"186";"module.devaluation_block1.exec-9250.deval1";"6334";"2014-10-13 13:12:17.946";"26";"9";"8";"7";"1317";"921";"1105";"2014-10-13 13:12:11.606";"3";;;;;;;;;;;;;;;;;;;;;;;;;;;;;;;;;;;;;;;;;;;;;;;;;;;;;;;;;;;;;;;;;;;;;;;;;;;;;;;;
"laurenh_96";"1996";;"Windows 7";"Rachel's Experiment (D.T.)";"1.0";"2";"1";"1";"2";"1";"1";"2014-10-13 12:57:22.565";"2014-10-13 13:12:42.126";"1";"1";"1";"188";"187";"module.devaluation_block1.exec-9250.deval1";"6036";"2014-10-13 13:12:23.996";"3";"7";"8";"8";"861";"837";"1341";"2014-10-13 13:12:17.966";"1";;;;;;;;;;;;;;;;;;;;;;;;;;;;;;;;;;;;;;;;;;;;;;;;;;;;;;;;;;;;;;;;;;;;;;;;;;;;;;;;
"laurenh_96";"1996";;"Windows 7";"Rachel's Experiment (D.T.)";"1.0";"2";"1";"1";"2";"1";"1";"2014-10-13 12:57:22.565";"2014-10-13 13:12:42.126";"1";"1";"1";"189";"188";"module.devaluation_block1.exec-9250.deval1";"7826";"2014-10-13 13:12:31.846";"4";"8";"8";"8";"2489";"1345";"995";"2014-10-13 13:12:24.026";"1";;;;;;;;;;;;;;;;;;;;;;;;;;;;;;;;;;;;;;;;;;;;;;;;;;;;;;;;;;;;;;;;;;;;;;;;;;;;;;;;
"laurenh_96";"1996";;"Windows 7";"Rachel's Experiment (D.T.)";"1.0";"2";"1";"1";"2";"1";"1";"2014-10-13 12:57:22.565";"2014-10-13 13:12:42.126";"1";"1";"1";"190";"189";"module.devaluation_block1.exec-9250.deval1";"7427";"2014-10-13 13:12:39.296";"6";"5";"8";"6";"1089";"1833";"1507";"2014-10-13 13:12:31.866";"1";;;;;;;;;;;;;;;;;;;;;;;;;;;;;;;;;;;;;;;;;;;;;;;;;;;;;;;;;;;;;;;;;;;;;;;;;;;;;;;;
