"user.name";"user.yearOfBirth";"user.sex";"user.osName";"module.name";"module.version";"module.online.subject.code";"module.online.study.id";"module.online.module.nr";"module.online.group.nr";"session.id";"session.index";"session.startTime";"session.endTime";"session.completed";"session.node-8034.conditionType";"session.node-8777.DevalQorder";"trial.id";"trial.index";"trial.name";"trial.deval1.durationTime";"trial.deval1.endTime";"trial.deval1.icon";"trial.deval1.Resp_Attractive";"trial.deval1.Resp_Eat";"trial.deval1.Resp_Taste";"trial.deval1.RT_Attractive";"trial.deval1.RT_Eat";"trial.deval1.RT_Taste";"trial.deval1.startTime";"trial.deval1.stimulus type";"trial.devalPractice.durationTime";"trial.devalPractice.endTime";"trial.devalPractice.icon";"trial.devalPractice.Resp_Attractive";"trial.devalPractice.Resp_Eat";"trial.devalPractice.Resp_Taste";"trial.devalPractice.RT_Attractive";"trial.devalPractice.RT_Eat";"trial.devalPractice.RT_Taste";"trial.devalPractice.startTime";"trial.devalPractice.stimulus type";"trial.GoNoGo1.durationTime";"trial.GoNoGo1.endTime";"trial.GoNoGo1.Error Type";"trial.GoNoGo1.icon";"trial.GoNoGo1.location";"trial.GoNoGo1.outcome";"trial.GoNoGo1.response";"trial.GoNoGo1.result";"trial.GoNoGo1.RT";"trial.GoNoGo1.signal";"trial.GoNoGo1.startTime";"trial.GoNoGo1.stimulus type";"trial.GoNoGo2.durationTime";"trial.GoNoGo2.endTime";"trial.GoNoGo2.Error Type";"trial.GoNoGo2.icon";"trial.GoNoGo2.location";"trial.GoNoGo2.outcome";"trial.GoNoGo2.response";"trial.GoNoGo2.result";"trial.GoNoGo2.RT";"trial.GoNoGo2.signal";"trial.GoNoGo2.startTime";"trial.GoNoGo2.stimulus type";"trial.GoNoGo3.durationTime";"trial.GoNoGo3.endTime";"trial.GoNoGo3.Error Type";"trial.GoNoGo3.icon";"trial.GoNoGo3.location";"trial.GoNoGo3.outcome";"trial.GoNoGo3.response";"trial.GoNoGo3.result";"trial.GoNoGo3.RT";"trial.GoNoGo3.signal";"trial.GoNoGo3.startTime";"trial.GoNoGo3.stimulus type";"trial.GoNoGo4.durationTime";"trial.GoNoGo4.endTime";"trial.GoNoGo4.Error Type";"trial.GoNoGo4.icon";"trial.GoNoGo4.location";"trial.GoNoGo4.outcome";"trial.GoNoGo4.response";"trial.GoNoGo4.result";"trial.GoNoGo4.RT";"trial.GoNoGo4.signal";"trial.GoNoGo4.startTime";"trial.GoNoGo4.stimulus type";"trial.GoNoGo_Practice.durationTime";"trial.GoNoGo_Practice.endTime";"trial.GoNoGo_Practice.icon";"trial.GoNoGo_Practice.location";"trial.GoNoGo_Practice.outcome";"trial.GoNoGo_Practice.response";"trial.GoNoGo_Practice.result";"trial.GoNoGo_Practice.RT";"trial.GoNoGo_Practice.signal";"trial.GoNoGo_Practice.startTime";"trial.GoNoGo_Practice.stimulus type";"trial.GoNoGo_Tutorial.durationTime";"trial.GoNoGo_Tutorial.endTime";"trial.GoNoGo_Tutorial.icon";"trial.GoNoGo_Tutorial.location";"trial.GoNoGo_Tutorial.outcome";"trial.GoNoGo_Tutorial.response";"trial.GoNoGo_Tutorial.result";"trial.GoNoGo_Tutorial.RT";"trial.GoNoGo_Tutorial.signal";"trial.GoNoGo_Tutorial.startTime"
"Ashby20";"1994";;"Windows 7";"Rachel's Experiment (D.T.)";"1.0";"2";"1";"1";"2";"1";"1";"2014-10-06 10:17:00.564";"2014-10-06 10:30:19.395";"1";"0";"1";"1";"0";"module.GoNoGotutorial.exec-9405.GoNoGo_Tutorial";;;;;;;;;;;;;;;;;;;;;;;;;;;;;;;;;;;;;;;;;;;;;;;;;;;;;;;;;;;;;;;;;;;;;;;;;;;;;;;;;;"3999";"2014-10-06 10:17:54.228";"leftResponse";"0";"FINISHED";"NONE";"failure";"0";"0";"2014-10-06 10:17:50.219"
"Ashby20";"1994";;"Windows 7";"Rachel's Experiment (D.T.)";"1.0";"2";"1";"1";"2";"1";"1";"2014-10-06 10:17:00.564";"2014-10-06 10:30:19.395";"1";"0";"1";"2";"1";"module.GoNoGotutorial.exec-9405.GoNoGo_Tutorial";;;;;;;;;;;;;;;;;;;;;;;;;;;;;;;;;;;;;;;;;;;;;;;;;;;;;;;;;;;;;;;;;;;;;;;;;;;;;;;;;;"4003";"2014-10-06 10:17:59.532";"rightResponse";"1";"FINISHED";"NONE";"failure";"0";"0";"2014-10-06 10:17:55.523"
"Ashby20";"1994";;"Windows 7";"Rachel's Experiment (D.T.)";"1.0";"2";"1";"1";"2";"1";"1";"2014-10-06 10:17:00.564";"2014-10-06 10:30:19.395";"1";"0";"1";"3";"2";"module.GoNoGotutorial.exec-9405.GoNoGo_Tutorial";;;;;;;;;;;;;;;;;;;;;;;;;;;;;;;;;;;;;;;;;;;;;;;;;;;;;;;;;;;;;;;;;;;;;;;;;;;;;;;;;;"4003";"2014-10-06 10:18:04.836";"quickResponse";"0";"FINISHED";"NONE";"failure";"0";"0";"2014-10-06 10:18:00.827"
"Ashby20";"1994";;"Windows 7";"Rachel's Experiment (D.T.)";"1.0";"2";"1";"1";"2";"1";"1";"2014-10-06 10:17:00.564";"2014-10-06 10:30:19.395";"1";"0";"1";"4";"3";"module.GoNoGopractice.exec-4383.GoNoGo_Practice";;;;;;;;;;;;;;;;;;;;;;;;;;;;;;;;;;;;;;;;;;;;;;;;;;;;;;;;;;;;;;;;;;;;;;;"1959";"2014-10-06 10:18:12.995";"18";"0";"FINISHED";"LEFT";"success";"488";"0";"2014-10-06 10:18:11.030";"3";;;;;;;;;;
"Ashby20";"1994";;"Windows 7";"Rachel's Experiment (D.T.)";"1.0";"2";"1";"1";"2";"1";"1";"2014-10-06 10:17:00.564";"2014-10-06 10:30:19.395";"1";"0";"1";"5";"4";"module.GoNoGopractice.exec-4383.GoNoGo_Practice";;;;;;;;;;;;;;;;;;;;;;;;;;;;;;;;;;;;;;;;;;;;;;;;;;;;;;;;;;;;;;;;;;;;;;;"1959";"2014-10-06 10:18:16.240";"21";"1";"FINISHED";"RIGHT";"success";"372";"0";"2014-10-06 10:18:14.274";"3";;;;;;;;;;
"Ashby20";"1994";;"Windows 7";"Rachel's Experiment (D.T.)";"1.0";"2";"1";"1";"2";"1";"1";"2014-10-06 10:17:00.564";"2014-10-06 10:30:19.395";"1";"0";"1";"6";"5";"module.GoNoGopractice.exec-4383.GoNoGo_Practice";;;;;;;;;;;;;;;;;;;;;;;;;;;;;;;;;;;;;;;;;;;;;;;;;;;;;;;;;;;;;;;;;;;;;;;"1959";"2014-10-06 10:18:19.485";"14";"1";"FINISHED";"RIGHT";"success";"471";"0";"2014-10-06 10:18:17.519";"2";;;;;;;;;;
"Ashby20";"1994";;"Windows 7";"Rachel's Experiment (D.T.)";"1.0";"2";"1";"1";"2";"1";"1";"2014-10-06 10:17:00.564";"2014-10-06 10:30:19.395";"1";"0";"1";"7";"6";"module.GoNoGopractice.exec-4383.GoNoGo_Practice";;;;;;;;;;;;;;;;;;;;;;;;;;;;;;;;;;;;;;;;;;;;;;;;;;;;;;;;;;;;;;;;;;;;;;;"1959";"2014-10-06 10:18:22.730";"26";"0";"FINISHED";"LEFT";"success";"298";"0";"2014-10-06 10:18:20.764";"3";;;;;;;;;;
"Ashby20";"1994";;"Windows 7";"Rachel's Experiment (D.T.)";"1.0";"2";"1";"1";"2";"1";"1";"2014-10-06 10:17:00.564";"2014-10-06 10:30:19.395";"1";"0";"1";"8";"7";"module.GoNoGopractice.exec-4383.GoNoGo_Practice";;;;;;;;;;;;;;;;;;;;;;;;;;;;;;;;;;;;;;;;;;;;;;;;;;;;;;;;;;;;;;;;;;;;;;;"1959";"2014-10-06 10:18:25.974";"2";"0";"FINISHED";"LEFT";"success";"350";"0";"2014-10-06 10:18:24.009";"1";;;;;;;;;;
"Ashby20";"1994";;"Windows 7";"Rachel's Experiment (D.T.)";"1.0";"2";"1";"1";"2";"1";"1";"2014-10-06 10:17:00.564";"2014-10-06 10:30:19.395";"1";"0";"1";"9";"8";"module.GoNoGopractice.exec-4383.GoNoGo_Practice";;;;;;;;;;;;;;;;;;;;;;;;;;;;;;;;;;;;;;;;;;;;;;;;;;;;;;;;;;;;;;;;;;;;;;;"1959";"2014-10-06 10:18:29.219";"30";"0";"FINISHED";"LEFT";"success";"353";"0";"2014-10-06 10:18:27.254";"3";;;;;;;;;;
"Ashby20";"1994";;"Windows 7";"Rachel's Experiment (D.T.)";"1.0";"2";"1";"1";"2";"1";"1";"2014-10-06 10:17:00.564";"2014-10-06 10:30:19.395";"1";"0";"1";"10";"9";"module.GoNoGopractice.exec-4383.GoNoGo_Practice";;;;;;;;;;;;;;;;;;;;;;;;;;;;;;;;;;;;;;;;;;;;;;;;;;;;;;;;;;;;;;;;;;;;;;;"1959";"2014-10-06 10:18:32.464";"6";"1";"FINISHED";"RIGHT";"success";"292";"0";"2014-10-06 10:18:30.498";"1";;;;;;;;;;
"Ashby20";"1994";;"Windows 7";"Rachel's Experiment (D.T.)";"1.0";"2";"1";"1";"2";"1";"1";"2014-10-06 10:17:00.564";"2014-10-06 10:30:19.395";"1";"0";"1";"11";"10";"module.GoNoGopractice.exec-4383.GoNoGo_Practice";;;;;;;;;;;;;;;;;;;;;;;;;;;;;;;;;;;;;;;;;;;;;;;;;;;;;;;;;;;;;;;;;;;;;;;"1960";"2014-10-06 10:18:35.724";"34";"0";"FINISHED";"LEFT";"success";"336";"0";"2014-10-06 10:18:33.759";"3";;;;;;;;;;
"Ashby20";"1994";;"Windows 7";"Rachel's Experiment (D.T.)";"1.0";"2";"1";"1";"2";"1";"1";"2014-10-06 10:17:00.564";"2014-10-06 10:30:19.395";"1";"0";"1";"12";"11";"module.GoNoGopractice.exec-4383.GoNoGo_Practice";;;;;;;;;;;;;;;;;;;;;;;;;;;;;;;;;;;;;;;;;;;;;;;;;;;;;;;;;;;;;;;;;;;;;;;"1959";"2014-10-06 10:18:38.969";"23";"1";"FINISHED";"RIGHT";"success";"531";"0";"2014-10-06 10:18:37.004";"3";;;;;;;;;;
"Ashby20";"1994";;"Windows 7";"Rachel's Experiment (D.T.)";"1.0";"2";"1";"1";"2";"1";"1";"2014-10-06 10:17:00.564";"2014-10-06 10:30:19.395";"1";"0";"1";"13";"12";"module.GoNoGopractice.exec-4383.GoNoGo_Practice";;;;;;;;;;;;;;;;;;;;;;;;;;;;;;;;;;;;;;;;;;;;;;;;;;;;;;;;;;;;;;;;;;;;;;;"1959";"2014-10-06 10:18:42.214";"13";"0";"FINISHED";"LEFT";"success";"326";"0";"2014-10-06 10:18:40.249";"2";;;;;;;;;;
"Ashby20";"1994";;"Windows 7";"Rachel's Experiment (D.T.)";"1.0";"2";"1";"1";"2";"1";"1";"2014-10-06 10:17:00.564";"2014-10-06 10:30:19.395";"1";"0";"1";"14";"13";"module.GoNoGopractice.exec-4383.GoNoGo_Practice";;;;;;;;;;;;;;;;;;;;;;;;;;;;;;;;;;;;;;;;;;;;;;;;;;;;;;;;;;;;;;;;;;;;;;;"1959";"2014-10-06 10:18:45.459";"3";"1";"FINISHED";"RIGHT";"success";"417";"0";"2014-10-06 10:18:43.493";"1";;;;;;;;;;
"Ashby20";"1994";;"Windows 7";"Rachel's Experiment (D.T.)";"1.0";"2";"1";"1";"2";"1";"1";"2014-10-06 10:17:00.564";"2014-10-06 10:30:19.395";"1";"0";"1";"15";"14";"module.GoNoGopractice.exec-4383.GoNoGo_Practice";;;;;;;;;;;;;;;;;;;;;;;;;;;;;;;;;;;;;;;;;;;;;;;;;;;;;;;;;;;;;;;;;;;;;;;"1959";"2014-10-06 10:18:48.704";"27";"1";"FINISHED";"RIGHT";"success";"380";"0";"2014-10-06 10:18:46.738";"3";;;;;;;;;;
"Ashby20";"1994";;"Windows 7";"Rachel's Experiment (D.T.)";"1.0";"2";"1";"1";"2";"1";"1";"2014-10-06 10:17:00.564";"2014-10-06 10:30:19.395";"1";"0";"1";"16";"15";"module.training_block1.exec-4686.GoNoGo1";;;;;;;;;;;;;;;;;;;;;;;"1256";"2014-10-06 10:18:58.407";"NST_correctLoc";"15";"0";"FINISHED";"LEFT";"success";"413";"0";"2014-10-06 10:18:57.143";"2";;;;;;;;;;;;;;;;;;;;;;;;;;;;;;;;;;;;;;;;;;;;;;;;;;;;;;;;;
"Ashby20";"1994";;"Windows 7";"Rachel's Experiment (D.T.)";"1.0";"2";"1";"1";"2";"1";"1";"2014-10-06 10:17:00.564";"2014-10-06 10:30:19.395";"1";"0";"1";"17";"16";"module.training_block1.exec-4686.GoNoGo1";;;;;;;;;;;;;;;;;;;;;;;"1258";"2014-10-06 10:19:00.950";"NST_correctLoc";"33";"0";"FINISHED";"LEFT";"success";"353";"0";"2014-10-06 10:18:59.686";"3";;;;;;;;;;;;;;;;;;;;;;;;;;;;;;;;;;;;;;;;;;;;;;;;;;;;;;;;;
"Ashby20";"1994";;"Windows 7";"Rachel's Experiment (D.T.)";"1.0";"2";"1";"1";"2";"1";"1";"2014-10-06 10:17:00.564";"2014-10-06 10:30:19.395";"1";"0";"1";"18";"17";"module.training_block1.exec-4686.GoNoGo1";;;;;;;;;;;;;;;;;;;;;;;"1258";"2014-10-06 10:19:03.493";"NST_correctLoc";"1";"1";"FINISHED";"RIGHT";"success";"306";"0";"2014-10-06 10:19:02.229";"1";;;;;;;;;;;;;;;;;;;;;;;;;;;;;;;;;;;;;;;;;;;;;;;;;;;;;;;;;
"Ashby20";"1994";;"Windows 7";"Rachel's Experiment (D.T.)";"1.0";"2";"1";"1";"2";"1";"1";"2014-10-06 10:17:00.564";"2014-10-06 10:30:19.395";"1";"0";"1";"19";"18";"module.training_block1.exec-4686.GoNoGo1";;;;;;;;;;;;;;;;;;;;;;;"1257";"2014-10-06 10:19:06.035";"NST_correctLoc";"17";"0";"FINISHED";"LEFT";"success";"306";"0";"2014-10-06 10:19:04.772";"2";;;;;;;;;;;;;;;;;;;;;;;;;;;;;;;;;;;;;;;;;;;;;;;;;;;;;;;;;
"Ashby20";"1994";;"Windows 7";"Rachel's Experiment (D.T.)";"1.0";"2";"1";"1";"2";"1";"1";"2014-10-06 10:17:00.564";"2014-10-06 10:30:19.395";"1";"0";"1";"20";"19";"module.training_block1.exec-4686.GoNoGo1";;;;;;;;;;;;;;;;;;;;;;;"1261";"2014-10-06 10:19:08.578";"NST_correctLoc";"2";"0";"FINISHED";"LEFT";"success";"376";"0";"2014-10-06 10:19:07.315";"1";;;;;;;;;;;;;;;;;;;;;;;;;;;;;;;;;;;;;;;;;;;;;;;;;;;;;;;;;
"Ashby20";"1994";;"Windows 7";"Rachel's Experiment (D.T.)";"1.0";"2";"1";"1";"2";"1";"1";"2014-10-06 10:17:00.564";"2014-10-06 10:30:19.395";"1";"0";"1";"21";"20";"module.training_block1.exec-4686.GoNoGo1";;;;;;;;;;;;;;;;;;;;;;;"1257";"2014-10-06 10:19:11.121";"NST_correctLoc";"22";"1";"FINISHED";"RIGHT";"success";"341";"0";"2014-10-06 10:19:09.857";"3";;;;;;;;;;;;;;;;;;;;;;;;;;;;;;;;;;;;;;;;;;;;;;;;;;;;;;;;;
"Ashby20";"1994";;"Windows 7";"Rachel's Experiment (D.T.)";"1.0";"2";"1";"1";"2";"1";"1";"2014-10-06 10:17:00.564";"2014-10-06 10:30:19.395";"1";"0";"1";"22";"21";"module.training_block1.exec-4686.GoNoGo1";;;;;;;;;;;;;;;;;;;;;;;"1257";"2014-10-06 10:19:13.664";"NST_correctLoc";"8";"1";"FINISHED";"RIGHT";"success";"358";"0";"2014-10-06 10:19:12.400";"1";;;;;;;;;;;;;;;;;;;;;;;;;;;;;;;;;;;;;;;;;;;;;;;;;;;;;;;;;
"Ashby20";"1994";;"Windows 7";"Rachel's Experiment (D.T.)";"1.0";"2";"1";"1";"2";"1";"1";"2014-10-06 10:17:00.564";"2014-10-06 10:30:19.395";"1";"0";"1";"23";"22";"module.training_block1.exec-4686.GoNoGo1";;;;;;;;;;;;;;;;;;;;;;;"1261";"2014-10-06 10:19:16.207";"NST_correctLoc";"23";"1";"FINISHED";"RIGHT";"success";"331";"0";"2014-10-06 10:19:14.943";"3";;;;;;;;;;;;;;;;;;;;;;;;;;;;;;;;;;;;;;;;;;;;;;;;;;;;;;;;;
"Ashby20";"1994";;"Windows 7";"Rachel's Experiment (D.T.)";"1.0";"2";"1";"1";"2";"1";"1";"2014-10-06 10:17:00.564";"2014-10-06 10:30:19.395";"1";"0";"1";"24";"23";"module.training_block1.exec-4686.GoNoGo1";;;;;;;;;;;;;;;;;;;;;;;"1256";"2014-10-06 10:19:18.749";"NST_correctLoc";"9";"1";"FINISHED";"RIGHT";"success";"368";"0";"2014-10-06 10:19:17.486";"2";;;;;;;;;;;;;;;;;;;;;;;;;;;;;;;;;;;;;;;;;;;;;;;;;;;;;;;;;
"Ashby20";"1994";;"Windows 7";"Rachel's Experiment (D.T.)";"1.0";"2";"1";"1";"2";"1";"1";"2014-10-06 10:17:00.564";"2014-10-06 10:30:19.395";"1";"0";"1";"25";"24";"module.training_block1.exec-4686.GoNoGo1";;;;;;;;;;;;;;;;;;;;;;;"1256";"2014-10-06 10:19:21.386";"NST_correctLoc";"7";"0";"FINISHED";"LEFT";"success";"291";"0";"2014-10-06 10:19:20.122";"1";;;;;;;;;;;;;;;;;;;;;;;;;;;;;;;;;;;;;;;;;;;;;;;;;;;;;;;;;
"Ashby20";"1994";;"Windows 7";"Rachel's Experiment (D.T.)";"1.0";"2";"1";"1";"2";"1";"1";"2014-10-06 10:17:00.564";"2014-10-06 10:30:19.395";"1";"0";"1";"26";"25";"module.training_block1.exec-4686.GoNoGo1";;;;;;;;;;;;;;;;;;;;;;;"1257";"2014-10-06 10:19:23.929";"NST_correctLoc";"13";"1";"FINISHED";"RIGHT";"success";"325";"0";"2014-10-06 10:19:22.665";"2";;;;;;;;;;;;;;;;;;;;;;;;;;;;;;;;;;;;;;;;;;;;;;;;;;;;;;;;;
"Ashby20";"1994";;"Windows 7";"Rachel's Experiment (D.T.)";"1.0";"2";"1";"1";"2";"1";"1";"2014-10-06 10:17:00.564";"2014-10-06 10:30:19.395";"1";"0";"1";"27";"26";"module.training_block1.exec-4686.GoNoGo1";;;;;;;;;;;;;;;;;;;;;;;"1257";"2014-10-06 10:19:26.471";"NST_correctLoc";"27";"0";"FINISHED";"LEFT";"success";"430";"0";"2014-10-06 10:19:25.208";"3";;;;;;;;;;;;;;;;;;;;;;;;;;;;;;;;;;;;;;;;;;;;;;;;;;;;;;;;;
"Ashby20";"1994";;"Windows 7";"Rachel's Experiment (D.T.)";"1.0";"2";"1";"1";"2";"1";"1";"2014-10-06 10:17:00.564";"2014-10-06 10:30:19.395";"1";"0";"1";"28";"27";"module.training_block1.exec-4686.GoNoGo1";;;;;;;;;;;;;;;;;;;;;;;"1257";"2014-10-06 10:19:29.030";"NST_correctLoc";"29";"1";"FINISHED";"RIGHT";"success";"360";"0";"2014-10-06 10:19:27.766";"3";;;;;;;;;;;;;;;;;;;;;;;;;;;;;;;;;;;;;;;;;;;;;;;;;;;;;;;;;
"Ashby20";"1994";;"Windows 7";"Rachel's Experiment (D.T.)";"1.0";"2";"1";"1";"2";"1";"1";"2014-10-06 10:17:00.564";"2014-10-06 10:30:19.395";"1";"0";"1";"29";"28";"module.training_block1.exec-4686.GoNoGo1";;;;;;;;;;;;;;;;;;;;;;;"1258";"2014-10-06 10:19:31.573";"NST_correctLoc";"24";"1";"FINISHED";"RIGHT";"success";"321";"0";"2014-10-06 10:19:30.309";"3";;;;;;;;;;;;;;;;;;;;;;;;;;;;;;;;;;;;;;;;;;;;;;;;;;;;;;;;;
"Ashby20";"1994";;"Windows 7";"Rachel's Experiment (D.T.)";"1.0";"2";"1";"1";"2";"1";"1";"2014-10-06 10:17:00.564";"2014-10-06 10:30:19.395";"1";"0";"1";"30";"29";"module.training_block1.exec-4686.GoNoGo1";;;;;;;;;;;;;;;;;;;;;;;"1258";"2014-10-06 10:19:34.115";"NST_correctLoc";"5";"1";"FINISHED";"RIGHT";"success";"355";"0";"2014-10-06 10:19:32.852";"1";;;;;;;;;;;;;;;;;;;;;;;;;;;;;;;;;;;;;;;;;;;;;;;;;;;;;;;;;
"Ashby20";"1994";;"Windows 7";"Rachel's Experiment (D.T.)";"1.0";"2";"1";"1";"2";"1";"1";"2014-10-06 10:17:00.564";"2014-10-06 10:30:19.395";"1";"0";"1";"31";"30";"module.training_block1.exec-4686.GoNoGo1";;;;;;;;;;;;;;;;;;;;;;;"1258";"2014-10-06 10:19:36.658";"NST_correctLoc";"20";"1";"FINISHED";"RIGHT";"success";"372";"0";"2014-10-06 10:19:35.395";"3";;;;;;;;;;;;;;;;;;;;;;;;;;;;;;;;;;;;;;;;;;;;;;;;;;;;;;;;;
"Ashby20";"1994";;"Windows 7";"Rachel's Experiment (D.T.)";"1.0";"2";"1";"1";"2";"1";"1";"2014-10-06 10:17:00.564";"2014-10-06 10:30:19.395";"1";"0";"1";"32";"31";"module.training_block1.exec-4686.GoNoGo1";;;;;;;;;;;;;;;;;;;;;;;"1257";"2014-10-06 10:19:39.201";"NST_correctLoc";"21";"1";"FINISHED";"RIGHT";"success";"324";"0";"2014-10-06 10:19:37.937";"3";;;;;;;;;;;;;;;;;;;;;;;;;;;;;;;;;;;;;;;;;;;;;;;;;;;;;;;;;
"Ashby20";"1994";;"Windows 7";"Rachel's Experiment (D.T.)";"1.0";"2";"1";"1";"2";"1";"1";"2014-10-06 10:17:00.564";"2014-10-06 10:30:19.395";"1";"0";"1";"33";"32";"module.training_block1.exec-4686.GoNoGo1";;;;;;;;;;;;;;;;;;;;;;;"1257";"2014-10-06 10:19:41.744";"NST_correctLoc";"4";"0";"FINISHED";"LEFT";"success";"301";"0";"2014-10-06 10:19:40.480";"1";;;;;;;;;;;;;;;;;;;;;;;;;;;;;;;;;;;;;;;;;;;;;;;;;;;;;;;;;
"Ashby20";"1994";;"Windows 7";"Rachel's Experiment (D.T.)";"1.0";"2";"1";"1";"2";"1";"1";"2014-10-06 10:17:00.564";"2014-10-06 10:30:19.395";"1";"0";"1";"34";"33";"module.training_block1.exec-4686.GoNoGo1";;;;;;;;;;;;;;;;;;;;;;;"1257";"2014-10-06 10:19:44.287";"NST_correctLoc";"31";"1";"FINISHED";"RIGHT";"success";"295";"0";"2014-10-06 10:19:43.023";"3";;;;;;;;;;;;;;;;;;;;;;;;;;;;;;;;;;;;;;;;;;;;;;;;;;;;;;;;;
"Ashby20";"1994";;"Windows 7";"Rachel's Experiment (D.T.)";"1.0";"2";"1";"1";"2";"1";"1";"2014-10-06 10:17:00.564";"2014-10-06 10:30:19.395";"1";"0";"1";"35";"34";"module.training_block1.exec-4686.GoNoGo1";;;;;;;;;;;;;;;;;;;;;;;"1257";"2014-10-06 10:19:46.829";"NST_correctLoc";"10";"1";"FINISHED";"RIGHT";"success";"360";"0";"2014-10-06 10:19:45.566";"2";;;;;;;;;;;;;;;;;;;;;;;;;;;;;;;;;;;;;;;;;;;;;;;;;;;;;;;;;
"Ashby20";"1994";;"Windows 7";"Rachel's Experiment (D.T.)";"1.0";"2";"1";"1";"2";"1";"1";"2014-10-06 10:17:00.564";"2014-10-06 10:30:19.395";"1";"0";"1";"36";"35";"module.training_block1.exec-4686.GoNoGo1";;;;;;;;;;;;;;;;;;;;;;;"1257";"2014-10-06 10:19:49.372";"NST_correctLoc";"35";"1";"FINISHED";"RIGHT";"success";"297";"0";"2014-10-06 10:19:48.109";"3";;;;;;;;;;;;;;;;;;;;;;;;;;;;;;;;;;;;;;;;;;;;;;;;;;;;;;;;;
"Ashby20";"1994";;"Windows 7";"Rachel's Experiment (D.T.)";"1.0";"2";"1";"1";"2";"1";"1";"2014-10-06 10:17:00.564";"2014-10-06 10:30:19.395";"1";"0";"1";"37";"36";"module.training_block1.exec-4686.GoNoGo1";;;;;;;;;;;;;;;;;;;;;;;"1258";"2014-10-06 10:19:51.915";"NST_correctLoc";"25";"1";"FINISHED";"RIGHT";"success";"355";"0";"2014-10-06 10:19:50.651";"3";;;;;;;;;;;;;;;;;;;;;;;;;;;;;;;;;;;;;;;;;;;;;;;;;;;;;;;;;
"Ashby20";"1994";;"Windows 7";"Rachel's Experiment (D.T.)";"1.0";"2";"1";"1";"2";"1";"1";"2014-10-06 10:17:00.564";"2014-10-06 10:30:19.395";"1";"0";"1";"38";"37";"module.training_block1.exec-4686.GoNoGo1";;;;;;;;;;;;;;;;;;;;;;;"1257";"2014-10-06 10:19:54.458";"NST_correctLoc";"32";"0";"FINISHED";"LEFT";"success";"340";"0";"2014-10-06 10:19:53.194";"3";;;;;;;;;;;;;;;;;;;;;;;;;;;;;;;;;;;;;;;;;;;;;;;;;;;;;;;;;
"Ashby20";"1994";;"Windows 7";"Rachel's Experiment (D.T.)";"1.0";"2";"1";"1";"2";"1";"1";"2014-10-06 10:17:00.564";"2014-10-06 10:30:19.395";"1";"0";"1";"39";"38";"module.training_block1.exec-4686.GoNoGo1";;;;;;;;;;;;;;;;;;;;;;;"1257";"2014-10-06 10:19:57.001";"NST_correctLoc";"14";"0";"FINISHED";"LEFT";"success";"349";"0";"2014-10-06 10:19:55.737";"2";;;;;;;;;;;;;;;;;;;;;;;;;;;;;;;;;;;;;;;;;;;;;;;;;;;;;;;;;
"Ashby20";"1994";;"Windows 7";"Rachel's Experiment (D.T.)";"1.0";"2";"1";"1";"2";"1";"1";"2014-10-06 10:17:00.564";"2014-10-06 10:30:19.395";"1";"0";"1";"40";"39";"module.training_block1.exec-4686.GoNoGo1";;;;;;;;;;;;;;;;;;;;;;;"1257";"2014-10-06 10:19:59.543";"NST_correctLoc";"11";"1";"FINISHED";"RIGHT";"success";"430";"0";"2014-10-06 10:19:58.280";"2";;;;;;;;;;;;;;;;;;;;;;;;;;;;;;;;;;;;;;;;;;;;;;;;;;;;;;;;;
"Ashby20";"1994";;"Windows 7";"Rachel's Experiment (D.T.)";"1.0";"2";"1";"1";"2";"1";"1";"2014-10-06 10:17:00.564";"2014-10-06 10:30:19.395";"1";"0";"1";"41";"40";"module.training_block1.exec-4686.GoNoGo1";;;;;;;;;;;;;;;;;;;;;;;"1258";"2014-10-06 10:20:02.086";"NST_correctLoc";"30";"0";"FINISHED";"LEFT";"success";"288";"0";"2014-10-06 10:20:00.823";"3";;;;;;;;;;;;;;;;;;;;;;;;;;;;;;;;;;;;;;;;;;;;;;;;;;;;;;;;;
"Ashby20";"1994";;"Windows 7";"Rachel's Experiment (D.T.)";"1.0";"2";"1";"1";"2";"1";"1";"2014-10-06 10:17:00.564";"2014-10-06 10:30:19.395";"1";"0";"1";"42";"41";"module.training_block1.exec-4686.GoNoGo1";;;;;;;;;;;;;;;;;;;;;;;"1258";"2014-10-06 10:20:04.629";"NST_correctLoc";"28";"1";"FINISHED";"RIGHT";"success";"289";"0";"2014-10-06 10:20:03.365";"3";;;;;;;;;;;;;;;;;;;;;;;;;;;;;;;;;;;;;;;;;;;;;;;;;;;;;;;;;
"Ashby20";"1994";;"Windows 7";"Rachel's Experiment (D.T.)";"1.0";"2";"1";"1";"2";"1";"1";"2014-10-06 10:17:00.564";"2014-10-06 10:30:19.395";"1";"0";"1";"43";"42";"module.training_block1.exec-4686.GoNoGo1";;;;;;;;;;;;;;;;;;;;;;;"1252";"2014-10-06 10:20:07.172";"NST_correctLoc";"12";"0";"FINISHED";"LEFT";"success";"349";"0";"2014-10-06 10:20:05.908";"2";;;;;;;;;;;;;;;;;;;;;;;;;;;;;;;;;;;;;;;;;;;;;;;;;;;;;;;;;
"Ashby20";"1994";;"Windows 7";"Rachel's Experiment (D.T.)";"1.0";"2";"1";"1";"2";"1";"1";"2014-10-06 10:17:00.564";"2014-10-06 10:30:19.395";"1";"0";"1";"44";"43";"module.training_block1.exec-4686.GoNoGo1";;;;;;;;;;;;;;;;;;;;;;;"1258";"2014-10-06 10:20:09.715";"NST_correctLoc";"3";"1";"FINISHED";"RIGHT";"success";"355";"0";"2014-10-06 10:20:08.451";"1";;;;;;;;;;;;;;;;;;;;;;;;;;;;;;;;;;;;;;;;;;;;;;;;;;;;;;;;;
"Ashby20";"1994";;"Windows 7";"Rachel's Experiment (D.T.)";"1.0";"2";"1";"1";"2";"1";"1";"2014-10-06 10:17:00.564";"2014-10-06 10:30:19.395";"1";"0";"1";"45";"44";"module.training_block1.exec-4686.GoNoGo1";;;;;;;;;;;;;;;;;;;;;;;"1257";"2014-10-06 10:20:12.257";"NST_correctLoc";"16";"1";"FINISHED";"RIGHT";"success";"356";"0";"2014-10-06 10:20:10.994";"2";;;;;;;;;;;;;;;;;;;;;;;;;;;;;;;;;;;;;;;;;;;;;;;;;;;;;;;;;
"Ashby20";"1994";;"Windows 7";"Rachel's Experiment (D.T.)";"1.0";"2";"1";"1";"2";"1";"1";"2014-10-06 10:17:00.564";"2014-10-06 10:30:19.395";"1";"0";"1";"46";"45";"module.training_block1.exec-4686.GoNoGo1";;;;;;;;;;;;;;;;;;;;;;;"1257";"2014-10-06 10:20:14.800";"NST_correctLoc";"0";"1";"FINISHED";"RIGHT";"success";"381";"0";"2014-10-06 10:20:13.537";"1";;;;;;;;;;;;;;;;;;;;;;;;;;;;;;;;;;;;;;;;;;;;;;;;;;;;;;;;;
"Ashby20";"1994";;"Windows 7";"Rachel's Experiment (D.T.)";"1.0";"2";"1";"1";"2";"1";"1";"2014-10-06 10:17:00.564";"2014-10-06 10:30:19.395";"1";"0";"1";"47";"46";"module.training_block1.exec-4686.GoNoGo1";;;;;;;;;;;;;;;;;;;;;;;"1257";"2014-10-06 10:20:17.343";"NST_correctLoc";"26";"0";"FINISHED";"LEFT";"success";"358";"0";"2014-10-06 10:20:16.079";"3";;;;;;;;;;;;;;;;;;;;;;;;;;;;;;;;;;;;;;;;;;;;;;;;;;;;;;;;;
"Ashby20";"1994";;"Windows 7";"Rachel's Experiment (D.T.)";"1.0";"2";"1";"1";"2";"1";"1";"2014-10-06 10:17:00.564";"2014-10-06 10:30:19.395";"1";"0";"1";"48";"47";"module.training_block1.exec-4686.GoNoGo1";;;;;;;;;;;;;;;;;;;;;;;"1257";"2014-10-06 10:20:19.886";"NST_correctLoc";"19";"0";"FINISHED";"LEFT";"success";"351";"0";"2014-10-06 10:20:18.622";"3";;;;;;;;;;;;;;;;;;;;;;;;;;;;;;;;;;;;;;;;;;;;;;;;;;;;;;;;;
"Ashby20";"1994";;"Windows 7";"Rachel's Experiment (D.T.)";"1.0";"2";"1";"1";"2";"1";"1";"2014-10-06 10:17:00.564";"2014-10-06 10:30:19.395";"1";"0";"1";"49";"48";"module.training_block1.exec-4686.GoNoGo1";;;;;;;;;;;;;;;;;;;;;;;"1258";"2014-10-06 10:20:22.429";"NST_correctLoc";"18";"0";"FINISHED";"LEFT";"success";"377";"0";"2014-10-06 10:20:21.165";"3";;;;;;;;;;;;;;;;;;;;;;;;;;;;;;;;;;;;;;;;;;;;;;;;;;;;;;;;;
"Ashby20";"1994";;"Windows 7";"Rachel's Experiment (D.T.)";"1.0";"2";"1";"1";"2";"1";"1";"2014-10-06 10:17:00.564";"2014-10-06 10:30:19.395";"1";"0";"1";"50";"49";"module.training_block1.exec-4686.GoNoGo1";;;;;;;;;;;;;;;;;;;;;;;"1258";"2014-10-06 10:20:24.971";"NST_correctLoc";"34";"1";"FINISHED";"RIGHT";"success";"363";"0";"2014-10-06 10:20:23.708";"3";;;;;;;;;;;;;;;;;;;;;;;;;;;;;;;;;;;;;;;;;;;;;;;;;;;;;;;;;
"Ashby20";"1994";;"Windows 7";"Rachel's Experiment (D.T.)";"1.0";"2";"1";"1";"2";"1";"1";"2014-10-06 10:17:00.564";"2014-10-06 10:30:19.395";"1";"0";"1";"51";"50";"module.training_block1.exec-4686.GoNoGo1";;;;;;;;;;;;;;;;;;;;;;;"1257";"2014-10-06 10:20:27.514";"NST_correctLoc";"6";"0";"FINISHED";"LEFT";"success";"331";"0";"2014-10-06 10:20:26.251";"1";;;;;;;;;;;;;;;;;;;;;;;;;;;;;;;;;;;;;;;;;;;;;;;;;;;;;;;;;
"Ashby20";"1994";;"Windows 7";"Rachel's Experiment (D.T.)";"1.0";"2";"1";"1";"2";"1";"1";"2014-10-06 10:17:00.564";"2014-10-06 10:30:19.395";"1";"0";"1";"52";"51";"module.training_block2.exec-4304.GoNoGo2";;;;;;;;;;;;;;;;;;;;;;;;;;;;;;;;;;;"1261";"2014-10-06 10:20:39.682";"NST_correctLoc";"12";"1";"FINISHED";"RIGHT";"success";"391";"0";"2014-10-06 10:20:38.419";"2";;;;;;;;;;;;;;;;;;;;;;;;;;;;;;;;;;;;;;;;;;;;;
"Ashby20";"1994";;"Windows 7";"Rachel's Experiment (D.T.)";"1.0";"2";"1";"1";"2";"1";"1";"2014-10-06 10:17:00.564";"2014-10-06 10:30:19.395";"1";"0";"1";"53";"52";"module.training_block2.exec-4304.GoNoGo2";;;;;;;;;;;;;;;;;;;;;;;;;;;;;;;;;;;"1261";"2014-10-06 10:20:42.225";"NST_correctLoc";"21";"1";"FINISHED";"RIGHT";"success";"328";"0";"2014-10-06 10:20:40.962";"3";;;;;;;;;;;;;;;;;;;;;;;;;;;;;;;;;;;;;;;;;;;;;
"Ashby20";"1994";;"Windows 7";"Rachel's Experiment (D.T.)";"1.0";"2";"1";"1";"2";"1";"1";"2014-10-06 10:17:00.564";"2014-10-06 10:30:19.395";"1";"0";"1";"54";"53";"module.training_block2.exec-4304.GoNoGo2";;;;;;;;;;;;;;;;;;;;;;;;;;;;;;;;;;;"1261";"2014-10-06 10:20:44.768";"NST_correctLoc";"10";"1";"FINISHED";"RIGHT";"success";"305";"0";"2014-10-06 10:20:43.504";"2";;;;;;;;;;;;;;;;;;;;;;;;;;;;;;;;;;;;;;;;;;;;;
"Ashby20";"1994";;"Windows 7";"Rachel's Experiment (D.T.)";"1.0";"2";"1";"1";"2";"1";"1";"2014-10-06 10:17:00.564";"2014-10-06 10:30:19.395";"1";"0";"1";"55";"54";"module.training_block2.exec-4304.GoNoGo2";;;;;;;;;;;;;;;;;;;;;;;;;;;;;;;;;;;"1261";"2014-10-06 10:20:47.311";"NST_correctLoc";"29";"1";"FINISHED";"RIGHT";"success";"434";"0";"2014-10-06 10:20:46.047";"3";;;;;;;;;;;;;;;;;;;;;;;;;;;;;;;;;;;;;;;;;;;;;
"Ashby20";"1994";;"Windows 7";"Rachel's Experiment (D.T.)";"1.0";"2";"1";"1";"2";"1";"1";"2014-10-06 10:17:00.564";"2014-10-06 10:30:19.395";"1";"0";"1";"56";"55";"module.training_block2.exec-4304.GoNoGo2";;;;;;;;;;;;;;;;;;;;;;;;;;;;;;;;;;;"1257";"2014-10-06 10:20:49.854";"NST_correctLoc";"23";"0";"FINISHED";"LEFT";"success";"335";"0";"2014-10-06 10:20:48.590";"3";;;;;;;;;;;;;;;;;;;;;;;;;;;;;;;;;;;;;;;;;;;;;
"Ashby20";"1994";;"Windows 7";"Rachel's Experiment (D.T.)";"1.0";"2";"1";"1";"2";"1";"1";"2014-10-06 10:17:00.564";"2014-10-06 10:30:19.395";"1";"0";"1";"57";"56";"module.training_block2.exec-4304.GoNoGo2";;;;;;;;;;;;;;;;;;;;;;;;;;;;;;;;;;;"1256";"2014-10-06 10:20:52.396";"NST_correctLoc";"17";"0";"FINISHED";"LEFT";"success";"376";"0";"2014-10-06 10:20:51.133";"2";;;;;;;;;;;;;;;;;;;;;;;;;;;;;;;;;;;;;;;;;;;;;
"Ashby20";"1994";;"Windows 7";"Rachel's Experiment (D.T.)";"1.0";"2";"1";"1";"2";"1";"1";"2014-10-06 10:17:00.564";"2014-10-06 10:30:19.395";"1";"0";"1";"58";"57";"module.training_block2.exec-4304.GoNoGo2";;;;;;;;;;;;;;;;;;;;;;;;;;;;;;;;;;;"1261";"2014-10-06 10:20:54.939";"NST_correctLoc";"11";"0";"FINISHED";"LEFT";"success";"334";"0";"2014-10-06 10:20:53.676";"2";;;;;;;;;;;;;;;;;;;;;;;;;;;;;;;;;;;;;;;;;;;;;
"Ashby20";"1994";;"Windows 7";"Rachel's Experiment (D.T.)";"1.0";"2";"1";"1";"2";"1";"1";"2014-10-06 10:17:00.564";"2014-10-06 10:30:19.395";"1";"0";"1";"59";"58";"module.training_block2.exec-4304.GoNoGo2";;;;;;;;;;;;;;;;;;;;;;;;;;;;;;;;;;;"1261";"2014-10-06 10:20:57.482";"NST_correctLoc";"19";"1";"FINISHED";"RIGHT";"success";"479";"0";"2014-10-06 10:20:56.218";"3";;;;;;;;;;;;;;;;;;;;;;;;;;;;;;;;;;;;;;;;;;;;;
"Ashby20";"1994";;"Windows 7";"Rachel's Experiment (D.T.)";"1.0";"2";"1";"1";"2";"1";"1";"2014-10-06 10:17:00.564";"2014-10-06 10:30:19.395";"1";"0";"1";"60";"59";"module.training_block2.exec-4304.GoNoGo2";;;;;;;;;;;;;;;;;;;;;;;;;;;;;;;;;;;"1261";"2014-10-06 10:21:00.025";"NST_correctLoc";"34";"0";"FINISHED";"LEFT";"success";"424";"0";"2014-10-06 10:20:58.761";"3";;;;;;;;;;;;;;;;;;;;;;;;;;;;;;;;;;;;;;;;;;;;;
"Ashby20";"1994";;"Windows 7";"Rachel's Experiment (D.T.)";"1.0";"2";"1";"1";"2";"1";"1";"2014-10-06 10:17:00.564";"2014-10-06 10:30:19.395";"1";"0";"1";"61";"60";"module.training_block2.exec-4304.GoNoGo2";;;;;;;;;;;;;;;;;;;;;;;;;;;;;;;;;;;"1261";"2014-10-06 10:21:02.568";"NST_correctLoc";"32";"1";"FINISHED";"RIGHT";"success";"353";"0";"2014-10-06 10:21:01.304";"3";;;;;;;;;;;;;;;;;;;;;;;;;;;;;;;;;;;;;;;;;;;;;
"Ashby20";"1994";;"Windows 7";"Rachel's Experiment (D.T.)";"1.0";"2";"1";"1";"2";"1";"1";"2014-10-06 10:17:00.564";"2014-10-06 10:30:19.395";"1";"0";"1";"62";"61";"module.training_block2.exec-4304.GoNoGo2";;;;;;;;;;;;;;;;;;;;;;;;;;;;;;;;;;;"1261";"2014-10-06 10:21:05.110";"NST_correctLoc";"0";"0";"FINISHED";"LEFT";"success";"331";"0";"2014-10-06 10:21:03.847";"1";;;;;;;;;;;;;;;;;;;;;;;;;;;;;;;;;;;;;;;;;;;;;
"Ashby20";"1994";;"Windows 7";"Rachel's Experiment (D.T.)";"1.0";"2";"1";"1";"2";"1";"1";"2014-10-06 10:17:00.564";"2014-10-06 10:30:19.395";"1";"0";"1";"63";"62";"module.training_block2.exec-4304.GoNoGo2";;;;;;;;;;;;;;;;;;;;;;;;;;;;;;;;;;;"1261";"2014-10-06 10:21:07.653";"NST_correctLoc";"30";"0";"FINISHED";"LEFT";"success";"372";"0";"2014-10-06 10:21:06.390";"3";;;;;;;;;;;;;;;;;;;;;;;;;;;;;;;;;;;;;;;;;;;;;
"Ashby20";"1994";;"Windows 7";"Rachel's Experiment (D.T.)";"1.0";"2";"1";"1";"2";"1";"1";"2014-10-06 10:17:00.564";"2014-10-06 10:30:19.395";"1";"0";"1";"64";"63";"module.training_block2.exec-4304.GoNoGo2";;;;;;;;;;;;;;;;;;;;;;;;;;;;;;;;;;;"1261";"2014-10-06 10:21:10.196";"NST_correctLoc";"25";"0";"FINISHED";"LEFT";"success";"365";"0";"2014-10-06 10:21:08.932";"3";;;;;;;;;;;;;;;;;;;;;;;;;;;;;;;;;;;;;;;;;;;;;
"Ashby20";"1994";;"Windows 7";"Rachel's Experiment (D.T.)";"1.0";"2";"1";"1";"2";"1";"1";"2014-10-06 10:17:00.564";"2014-10-06 10:30:19.395";"1";"0";"1";"65";"64";"module.training_block2.exec-4304.GoNoGo2";;;;;;;;;;;;;;;;;;;;;;;;;;;;;;;;;;;"1261";"2014-10-06 10:21:12.739";"NST_correctLoc";"27";"1";"FINISHED";"RIGHT";"success";"470";"0";"2014-10-06 10:21:11.475";"3";;;;;;;;;;;;;;;;;;;;;;;;;;;;;;;;;;;;;;;;;;;;;
"Ashby20";"1994";;"Windows 7";"Rachel's Experiment (D.T.)";"1.0";"2";"1";"1";"2";"1";"1";"2014-10-06 10:17:00.564";"2014-10-06 10:30:19.395";"1";"0";"1";"66";"65";"module.training_block2.exec-4304.GoNoGo2";;;;;;;;;;;;;;;;;;;;;;;;;;;;;;;;;;;"1261";"2014-10-06 10:21:15.282";"NST_correctLoc";"24";"0";"FINISHED";"LEFT";"success";"335";"0";"2014-10-06 10:21:14.018";"3";;;;;;;;;;;;;;;;;;;;;;;;;;;;;;;;;;;;;;;;;;;;;
"Ashby20";"1994";;"Windows 7";"Rachel's Experiment (D.T.)";"1.0";"2";"1";"1";"2";"1";"1";"2014-10-06 10:17:00.564";"2014-10-06 10:30:19.395";"1";"0";"1";"67";"66";"module.training_block2.exec-4304.GoNoGo2";;;;;;;;;;;;;;;;;;;;;;;;;;;;;;;;;;;"1261";"2014-10-06 10:21:17.824";"NST_correctLoc";"4";"0";"FINISHED";"LEFT";"success";"433";"0";"2014-10-06 10:21:16.561";"1";;;;;;;;;;;;;;;;;;;;;;;;;;;;;;;;;;;;;;;;;;;;;
"Ashby20";"1994";;"Windows 7";"Rachel's Experiment (D.T.)";"1.0";"2";"1";"1";"2";"1";"1";"2014-10-06 10:17:00.564";"2014-10-06 10:30:19.395";"1";"0";"1";"68";"67";"module.training_block2.exec-4304.GoNoGo2";;;;;;;;;;;;;;;;;;;;;;;;;;;;;;;;;;;"1261";"2014-10-06 10:21:20.367";"NST_correctLoc";"28";"0";"FINISHED";"LEFT";"success";"322";"0";"2014-10-06 10:21:19.104";"3";;;;;;;;;;;;;;;;;;;;;;;;;;;;;;;;;;;;;;;;;;;;;
"Ashby20";"1994";;"Windows 7";"Rachel's Experiment (D.T.)";"1.0";"2";"1";"1";"2";"1";"1";"2014-10-06 10:17:00.564";"2014-10-06 10:30:19.395";"1";"0";"1";"69";"68";"module.training_block2.exec-4304.GoNoGo2";;;;;;;;;;;;;;;;;;;;;;;;;;;;;;;;;;;"1261";"2014-10-06 10:21:22.910";"NST_correctLoc";"18";"0";"FINISHED";"LEFT";"success";"395";"0";"2014-10-06 10:21:21.646";"3";;;;;;;;;;;;;;;;;;;;;;;;;;;;;;;;;;;;;;;;;;;;;
"Ashby20";"1994";;"Windows 7";"Rachel's Experiment (D.T.)";"1.0";"2";"1";"1";"2";"1";"1";"2014-10-06 10:17:00.564";"2014-10-06 10:30:19.395";"1";"0";"1";"70";"69";"module.training_block2.exec-4304.GoNoGo2";;;;;;;;;;;;;;;;;;;;;;;;;;;;;;;;;;;"1256";"2014-10-06 10:21:25.453";"NST_correctLoc";"2";"0";"FINISHED";"LEFT";"success";"319";"0";"2014-10-06 10:21:24.189";"1";;;;;;;;;;;;;;;;;;;;;;;;;;;;;;;;;;;;;;;;;;;;;
"Ashby20";"1994";;"Windows 7";"Rachel's Experiment (D.T.)";"1.0";"2";"1";"1";"2";"1";"1";"2014-10-06 10:17:00.564";"2014-10-06 10:30:19.395";"1";"0";"1";"71";"70";"module.training_block2.exec-4304.GoNoGo2";;;;;;;;;;;;;;;;;;;;;;;;;;;;;;;;;;;"1261";"2014-10-06 10:21:27.996";"NST_correctLoc";"7";"0";"FINISHED";"LEFT";"success";"349";"0";"2014-10-06 10:21:26.732";"1";;;;;;;;;;;;;;;;;;;;;;;;;;;;;;;;;;;;;;;;;;;;;
"Ashby20";"1994";;"Windows 7";"Rachel's Experiment (D.T.)";"1.0";"2";"1";"1";"2";"1";"1";"2014-10-06 10:17:00.564";"2014-10-06 10:30:19.395";"1";"0";"1";"72";"71";"module.training_block2.exec-4304.GoNoGo2";;;;;;;;;;;;;;;;;;;;;;;;;;;;;;;;;;;"1261";"2014-10-06 10:21:30.538";"NST_correctLoc";"16";"0";"FINISHED";"LEFT";"success";"294";"0";"2014-10-06 10:21:29.275";"2";;;;;;;;;;;;;;;;;;;;;;;;;;;;;;;;;;;;;;;;;;;;;
"Ashby20";"1994";;"Windows 7";"Rachel's Experiment (D.T.)";"1.0";"2";"1";"1";"2";"1";"1";"2014-10-06 10:17:00.564";"2014-10-06 10:30:19.395";"1";"0";"1";"73";"72";"module.training_block2.exec-4304.GoNoGo2";;;;;;;;;;;;;;;;;;;;;;;;;;;;;;;;;;;"1261";"2014-10-06 10:21:33.081";"NST_correctLoc";"5";"1";"FINISHED";"RIGHT";"success";"424";"0";"2014-10-06 10:21:31.818";"1";;;;;;;;;;;;;;;;;;;;;;;;;;;;;;;;;;;;;;;;;;;;;
"Ashby20";"1994";;"Windows 7";"Rachel's Experiment (D.T.)";"1.0";"2";"1";"1";"2";"1";"1";"2014-10-06 10:17:00.564";"2014-10-06 10:30:19.395";"1";"0";"1";"74";"73";"module.training_block2.exec-4304.GoNoGo2";;;;;;;;;;;;;;;;;;;;;;;;;;;;;;;;;;;"1261";"2014-10-06 10:21:35.624";"NST_correctLoc";"26";"0";"FINISHED";"LEFT";"success";"273";"0";"2014-10-06 10:21:34.360";"3";;;;;;;;;;;;;;;;;;;;;;;;;;;;;;;;;;;;;;;;;;;;;
"Ashby20";"1994";;"Windows 7";"Rachel's Experiment (D.T.)";"1.0";"2";"1";"1";"2";"1";"1";"2014-10-06 10:17:00.564";"2014-10-06 10:30:19.395";"1";"0";"1";"75";"74";"module.training_block2.exec-4304.GoNoGo2";;;;;;;;;;;;;;;;;;;;;;;;;;;;;;;;;;;"1257";"2014-10-06 10:21:38.167";"NST_correctLoc";"8";"1";"FINISHED";"RIGHT";"success";"454";"0";"2014-10-06 10:21:36.903";"1";;;;;;;;;;;;;;;;;;;;;;;;;;;;;;;;;;;;;;;;;;;;;
"Ashby20";"1994";;"Windows 7";"Rachel's Experiment (D.T.)";"1.0";"2";"1";"1";"2";"1";"1";"2014-10-06 10:17:00.564";"2014-10-06 10:30:19.395";"1";"0";"1";"76";"75";"module.training_block2.exec-4304.GoNoGo2";;;;;;;;;;;;;;;;;;;;;;;;;;;;;;;;;;;"1258";"2014-10-06 10:21:40.710";"NST_correctLoc";"33";"1";"FINISHED";"RIGHT";"success";"367";"0";"2014-10-06 10:21:39.446";"3";;;;;;;;;;;;;;;;;;;;;;;;;;;;;;;;;;;;;;;;;;;;;
"Ashby20";"1994";;"Windows 7";"Rachel's Experiment (D.T.)";"1.0";"2";"1";"1";"2";"1";"1";"2014-10-06 10:17:00.564";"2014-10-06 10:30:19.395";"1";"0";"1";"77";"76";"module.training_block2.exec-4304.GoNoGo2";;;;;;;;;;;;;;;;;;;;;;;;;;;;;;;;;;;"1261";"2014-10-06 10:21:43.252";"NST_correctLoc";"3";"1";"FINISHED";"RIGHT";"success";"348";"0";"2014-10-06 10:21:41.989";"1";;;;;;;;;;;;;;;;;;;;;;;;;;;;;;;;;;;;;;;;;;;;;
"Ashby20";"1994";;"Windows 7";"Rachel's Experiment (D.T.)";"1.0";"2";"1";"1";"2";"1";"1";"2014-10-06 10:17:00.564";"2014-10-06 10:30:19.395";"1";"0";"1";"78";"77";"module.training_block2.exec-4304.GoNoGo2";;;;;;;;;;;;;;;;;;;;;;;;;;;;;;;;;;;"1261";"2014-10-06 10:21:45.795";"NST_correctLoc";"35";"0";"FINISHED";"LEFT";"success";"293";"0";"2014-10-06 10:21:44.532";"3";;;;;;;;;;;;;;;;;;;;;;;;;;;;;;;;;;;;;;;;;;;;;
"Ashby20";"1994";;"Windows 7";"Rachel's Experiment (D.T.)";"1.0";"2";"1";"1";"2";"1";"1";"2014-10-06 10:17:00.564";"2014-10-06 10:30:19.395";"1";"0";"1";"79";"78";"module.training_block2.exec-4304.GoNoGo2";;;;;;;;;;;;;;;;;;;;;;;;;;;;;;;;;;;"1261";"2014-10-06 10:21:48.338";"NST_correctLoc";"6";"1";"FINISHED";"RIGHT";"success";"311";"0";"2014-10-06 10:21:47.074";"1";;;;;;;;;;;;;;;;;;;;;;;;;;;;;;;;;;;;;;;;;;;;;
"Ashby20";"1994";;"Windows 7";"Rachel's Experiment (D.T.)";"1.0";"2";"1";"1";"2";"1";"1";"2014-10-06 10:17:00.564";"2014-10-06 10:30:19.395";"1";"0";"1";"80";"79";"module.training_block2.exec-4304.GoNoGo2";;;;;;;;;;;;;;;;;;;;;;;;;;;;;;;;;;;"1261";"2014-10-06 10:21:50.881";"NST_correctLoc";"31";"0";"FINISHED";"LEFT";"success";"312";"0";"2014-10-06 10:21:49.617";"3";;;;;;;;;;;;;;;;;;;;;;;;;;;;;;;;;;;;;;;;;;;;;
"Ashby20";"1994";;"Windows 7";"Rachel's Experiment (D.T.)";"1.0";"2";"1";"1";"2";"1";"1";"2014-10-06 10:17:00.564";"2014-10-06 10:30:19.395";"1";"0";"1";"81";"80";"module.training_block2.exec-4304.GoNoGo2";;;;;;;;;;;;;;;;;;;;;;;;;;;;;;;;;;;"1261";"2014-10-06 10:21:53.424";"NST_correctLoc";"9";"1";"FINISHED";"RIGHT";"success";"273";"0";"2014-10-06 10:21:52.160";"2";;;;;;;;;;;;;;;;;;;;;;;;;;;;;;;;;;;;;;;;;;;;;
"Ashby20";"1994";;"Windows 7";"Rachel's Experiment (D.T.)";"1.0";"2";"1";"1";"2";"1";"1";"2014-10-06 10:17:00.564";"2014-10-06 10:30:19.395";"1";"0";"1";"82";"81";"module.training_block2.exec-4304.GoNoGo2";;;;;;;;;;;;;;;;;;;;;;;;;;;;;;;;;;;"1261";"2014-10-06 10:21:55.966";"NST_correctLoc";"20";"0";"FINISHED";"LEFT";"success";"298";"0";"2014-10-06 10:21:54.703";"3";;;;;;;;;;;;;;;;;;;;;;;;;;;;;;;;;;;;;;;;;;;;;
"Ashby20";"1994";;"Windows 7";"Rachel's Experiment (D.T.)";"1.0";"2";"1";"1";"2";"1";"1";"2014-10-06 10:17:00.564";"2014-10-06 10:30:19.395";"1";"0";"1";"83";"82";"module.training_block2.exec-4304.GoNoGo2";;;;;;;;;;;;;;;;;;;;;;;;;;;;;;;;;;;"1257";"2014-10-06 10:21:58.509";"NST_correctLoc";"1";"0";"FINISHED";"LEFT";"success";"391";"0";"2014-10-06 10:21:57.246";"1";;;;;;;;;;;;;;;;;;;;;;;;;;;;;;;;;;;;;;;;;;;;;
"Ashby20";"1994";;"Windows 7";"Rachel's Experiment (D.T.)";"1.0";"2";"1";"1";"2";"1";"1";"2014-10-06 10:17:00.564";"2014-10-06 10:30:19.395";"1";"0";"1";"84";"83";"module.training_block2.exec-4304.GoNoGo2";;;;;;;;;;;;;;;;;;;;;;;;;;;;;;;;;;;"1258";"2014-10-06 10:22:01.052";"NST_correctLoc";"22";"0";"FINISHED";"LEFT";"success";"313";"0";"2014-10-06 10:21:59.788";"3";;;;;;;;;;;;;;;;;;;;;;;;;;;;;;;;;;;;;;;;;;;;;
"Ashby20";"1994";;"Windows 7";"Rachel's Experiment (D.T.)";"1.0";"2";"1";"1";"2";"1";"1";"2014-10-06 10:17:00.564";"2014-10-06 10:30:19.395";"1";"0";"1";"85";"84";"module.training_block2.exec-4304.GoNoGo2";;;;;;;;;;;;;;;;;;;;;;;;;;;;;;;;;;;"1261";"2014-10-06 10:22:03.595";"NST_correctLoc";"14";"0";"FINISHED";"LEFT";"success";"374";"0";"2014-10-06 10:22:02.331";"2";;;;;;;;;;;;;;;;;;;;;;;;;;;;;;;;;;;;;;;;;;;;;
"Ashby20";"1994";;"Windows 7";"Rachel's Experiment (D.T.)";"1.0";"2";"1";"1";"2";"1";"1";"2014-10-06 10:17:00.564";"2014-10-06 10:30:19.395";"1";"0";"1";"86";"85";"module.training_block2.exec-4304.GoNoGo2";;;;;;;;;;;;;;;;;;;;;;;;;;;;;;;;;;;"1257";"2014-10-06 10:22:06.138";"NST_correctLoc";"15";"1";"FINISHED";"RIGHT";"success";"330";"0";"2014-10-06 10:22:04.874";"2";;;;;;;;;;;;;;;;;;;;;;;;;;;;;;;;;;;;;;;;;;;;;
"Ashby20";"1994";;"Windows 7";"Rachel's Experiment (D.T.)";"1.0";"2";"1";"1";"2";"1";"1";"2014-10-06 10:17:00.564";"2014-10-06 10:30:19.395";"1";"0";"1";"87";"86";"module.training_block2.exec-4304.GoNoGo2";;;;;;;;;;;;;;;;;;;;;;;;;;;;;;;;;;;"1261";"2014-10-06 10:22:08.680";"NST_correctLoc";"13";"0";"FINISHED";"LEFT";"success";"296";"0";"2014-10-06 10:22:07.417";"2";;;;;;;;;;;;;;;;;;;;;;;;;;;;;;;;;;;;;;;;;;;;;
"Ashby20";"1994";;"Windows 7";"Rachel's Experiment (D.T.)";"1.0";"2";"1";"1";"2";"1";"1";"2014-10-06 10:17:00.564";"2014-10-06 10:30:19.395";"1";"0";"1";"88";"87";"module.training_block3.exec-1847.GoNoGo3";;;;;;;;;;;;;;;;;;;;;;;;;;;;;;;;;;;;;;;;;;;;;;;"1261";"2014-10-06 10:22:19.632";"NST_correctLoc";"2";"0";"FINISHED";"LEFT";"success";"433";"0";"2014-10-06 10:22:18.368";"1";;;;;;;;;;;;;;;;;;;;;;;;;;;;;;;;;
"Ashby20";"1994";;"Windows 7";"Rachel's Experiment (D.T.)";"1.0";"2";"1";"1";"2";"1";"1";"2014-10-06 10:17:00.564";"2014-10-06 10:30:19.395";"1";"0";"1";"89";"88";"module.training_block3.exec-1847.GoNoGo3";;;;;;;;;;;;;;;;;;;;;;;;;;;;;;;;;;;;;;;;;;;;;;;"1262";"2014-10-06 10:22:22.174";"NST_correctLoc";"4";"1";"FINISHED";"RIGHT";"success";"370";"0";"2014-10-06 10:22:20.911";"1";;;;;;;;;;;;;;;;;;;;;;;;;;;;;;;;;
"Ashby20";"1994";;"Windows 7";"Rachel's Experiment (D.T.)";"1.0";"2";"1";"1";"2";"1";"1";"2014-10-06 10:17:00.564";"2014-10-06 10:30:19.395";"1";"0";"1";"90";"89";"module.training_block3.exec-1847.GoNoGo3";;;;;;;;;;;;;;;;;;;;;;;;;;;;;;;;;;;;;;;;;;;;;;;"1261";"2014-10-06 10:22:24.717";"NST_correctLoc";"13";"1";"FINISHED";"RIGHT";"success";"419";"0";"2014-10-06 10:22:23.454";"2";;;;;;;;;;;;;;;;;;;;;;;;;;;;;;;;;
"Ashby20";"1994";;"Windows 7";"Rachel's Experiment (D.T.)";"1.0";"2";"1";"1";"2";"1";"1";"2014-10-06 10:17:00.564";"2014-10-06 10:30:19.395";"1";"0";"1";"91";"90";"module.training_block3.exec-1847.GoNoGo3";;;;;;;;;;;;;;;;;;;;;;;;;;;;;;;;;;;;;;;;;;;;;;;"1261";"2014-10-06 10:22:27.260";"NST_correctLoc";"1";"1";"FINISHED";"RIGHT";"success";"389";"0";"2014-10-06 10:22:25.996";"1";;;;;;;;;;;;;;;;;;;;;;;;;;;;;;;;;
"Ashby20";"1994";;"Windows 7";"Rachel's Experiment (D.T.)";"1.0";"2";"1";"1";"2";"1";"1";"2014-10-06 10:17:00.564";"2014-10-06 10:30:19.395";"1";"0";"1";"92";"91";"module.training_block3.exec-1847.GoNoGo3";;;;;;;;;;;;;;;;;;;;;;;;;;;;;;;;;;;;;;;;;;;;;;;"1261";"2014-10-06 10:22:29.803";"NST_correctLoc";"22";"0";"FINISHED";"LEFT";"success";"358";"0";"2014-10-06 10:22:28.539";"3";;;;;;;;;;;;;;;;;;;;;;;;;;;;;;;;;
"Ashby20";"1994";;"Windows 7";"Rachel's Experiment (D.T.)";"1.0";"2";"1";"1";"2";"1";"1";"2014-10-06 10:17:00.564";"2014-10-06 10:30:19.395";"1";"0";"1";"93";"92";"module.training_block3.exec-1847.GoNoGo3";;;;;;;;;;;;;;;;;;;;;;;;;;;;;;;;;;;;;;;;;;;;;;;"1261";"2014-10-06 10:22:32.346";"NST_correctLoc";"18";"0";"FINISHED";"LEFT";"success";"383";"0";"2014-10-06 10:22:31.082";"3";;;;;;;;;;;;;;;;;;;;;;;;;;;;;;;;;
"Ashby20";"1994";;"Windows 7";"Rachel's Experiment (D.T.)";"1.0";"2";"1";"1";"2";"1";"1";"2014-10-06 10:17:00.564";"2014-10-06 10:30:19.395";"1";"0";"1";"94";"93";"module.training_block3.exec-1847.GoNoGo3";;;;;;;;;;;;;;;;;;;;;;;;;;;;;;;;;;;;;;;;;;;;;;;"1261";"2014-10-06 10:22:34.889";"NST_correctLoc";"19";"1";"FINISHED";"RIGHT";"success";"352";"0";"2014-10-06 10:22:33.625";"3";;;;;;;;;;;;;;;;;;;;;;;;;;;;;;;;;
"Ashby20";"1994";;"Windows 7";"Rachel's Experiment (D.T.)";"1.0";"2";"1";"1";"2";"1";"1";"2014-10-06 10:17:00.564";"2014-10-06 10:30:19.395";"1";"0";"1";"95";"94";"module.training_block3.exec-1847.GoNoGo3";;;;;;;;;;;;;;;;;;;;;;;;;;;;;;;;;;;;;;;;;;;;;;;"1262";"2014-10-06 10:22:37.431";"NST_correctLoc";"28";"0";"FINISHED";"LEFT";"success";"273";"0";"2014-10-06 10:22:36.168";"3";;;;;;;;;;;;;;;;;;;;;;;;;;;;;;;;;
"Ashby20";"1994";;"Windows 7";"Rachel's Experiment (D.T.)";"1.0";"2";"1";"1";"2";"1";"1";"2014-10-06 10:17:00.564";"2014-10-06 10:30:19.395";"1";"0";"1";"96";"95";"module.training_block3.exec-1847.GoNoGo3";;;;;;;;;;;;;;;;;;;;;;;;;;;;;;;;;;;;;;;;;;;;;;;"1261";"2014-10-06 10:22:39.974";"NST_correctLoc";"8";"1";"FINISHED";"RIGHT";"success";"426";"0";"2014-10-06 10:22:38.711";"1";;;;;;;;;;;;;;;;;;;;;;;;;;;;;;;;;
"Ashby20";"1994";;"Windows 7";"Rachel's Experiment (D.T.)";"1.0";"2";"1";"1";"2";"1";"1";"2014-10-06 10:17:00.564";"2014-10-06 10:30:19.395";"1";"0";"1";"97";"96";"module.training_block3.exec-1847.GoNoGo3";;;;;;;;;;;;;;;;;;;;;;;;;;;;;;;;;;;;;;;;;;;;;;;"1262";"2014-10-06 10:22:42.517";"NST_correctLoc";"11";"1";"FINISHED";"RIGHT";"success";"372";"0";"2014-10-06 10:22:41.253";"2";;;;;;;;;;;;;;;;;;;;;;;;;;;;;;;;;
"Ashby20";"1994";;"Windows 7";"Rachel's Experiment (D.T.)";"1.0";"2";"1";"1";"2";"1";"1";"2014-10-06 10:17:00.564";"2014-10-06 10:30:19.395";"1";"0";"1";"98";"97";"module.training_block3.exec-1847.GoNoGo3";;;;;;;;;;;;;;;;;;;;;;;;;;;;;;;;;;;;;;;;;;;;;;;"1261";"2014-10-06 10:22:45.060";"NST_correctLoc";"3";"0";"FINISHED";"LEFT";"success";"301";"0";"2014-10-06 10:22:43.796";"1";;;;;;;;;;;;;;;;;;;;;;;;;;;;;;;;;
"Ashby20";"1994";;"Windows 7";"Rachel's Experiment (D.T.)";"1.0";"2";"1";"1";"2";"1";"1";"2014-10-06 10:17:00.564";"2014-10-06 10:30:19.395";"1";"0";"1";"99";"98";"module.training_block3.exec-1847.GoNoGo3";;;;;;;;;;;;;;;;;;;;;;;;;;;;;;;;;;;;;;;;;;;;;;;"1262";"2014-10-06 10:22:47.696";"NST_correctLoc";"33";"0";"FINISHED";"LEFT";"success";"344";"0";"2014-10-06 10:22:46.433";"3";;;;;;;;;;;;;;;;;;;;;;;;;;;;;;;;;
"Ashby20";"1994";;"Windows 7";"Rachel's Experiment (D.T.)";"1.0";"2";"1";"1";"2";"1";"1";"2014-10-06 10:17:00.564";"2014-10-06 10:30:19.395";"1";"0";"1";"100";"99";"module.training_block3.exec-1847.GoNoGo3";;;;;;;;;;;;;;;;;;;;;;;;;;;;;;;;;;;;;;;;;;;;;;;"1262";"2014-10-06 10:22:50.239";"NST_correctLoc";"17";"0";"FINISHED";"LEFT";"success";"426";"0";"2014-10-06 10:22:48.975";"2";;;;;;;;;;;;;;;;;;;;;;;;;;;;;;;;;
"Ashby20";"1994";;"Windows 7";"Rachel's Experiment (D.T.)";"1.0";"2";"1";"1";"2";"1";"1";"2014-10-06 10:17:00.564";"2014-10-06 10:30:19.395";"1";"0";"1";"101";"100";"module.training_block3.exec-1847.GoNoGo3";;;;;;;;;;;;;;;;;;;;;;;;;;;;;;;;;;;;;;;;;;;;;;;"1262";"2014-10-06 10:22:52.782";"NST_correctLoc";"31";"1";"FINISHED";"RIGHT";"success";"355";"0";"2014-10-06 10:22:51.518";"3";;;;;;;;;;;;;;;;;;;;;;;;;;;;;;;;;
"Ashby20";"1994";;"Windows 7";"Rachel's Experiment (D.T.)";"1.0";"2";"1";"1";"2";"1";"1";"2014-10-06 10:17:00.564";"2014-10-06 10:30:19.395";"1";"0";"1";"102";"101";"module.training_block3.exec-1847.GoNoGo3";;;;;;;;;;;;;;;;;;;;;;;;;;;;;;;;;;;;;;;;;;;;;;;"1261";"2014-10-06 10:22:55.340";"NST_correctLoc";"5";"1";"FINISHED";"RIGHT";"success";"372";"0";"2014-10-06 10:22:54.077";"1";;;;;;;;;;;;;;;;;;;;;;;;;;;;;;;;;
"Ashby20";"1994";;"Windows 7";"Rachel's Experiment (D.T.)";"1.0";"2";"1";"1";"2";"1";"1";"2014-10-06 10:17:00.564";"2014-10-06 10:30:19.395";"1";"0";"1";"103";"102";"module.training_block3.exec-1847.GoNoGo3";;;;;;;;;;;;;;;;;;;;;;;;;;;;;;;;;;;;;;;;;;;;;;;"1261";"2014-10-06 10:22:57.883";"NST_correctLoc";"25";"1";"FINISHED";"RIGHT";"success";"357";"0";"2014-10-06 10:22:56.619";"3";;;;;;;;;;;;;;;;;;;;;;;;;;;;;;;;;
"Ashby20";"1994";;"Windows 7";"Rachel's Experiment (D.T.)";"1.0";"2";"1";"1";"2";"1";"1";"2014-10-06 10:17:00.564";"2014-10-06 10:30:19.395";"1";"0";"1";"104";"103";"module.training_block3.exec-1847.GoNoGo3";;;;;;;;;;;;;;;;;;;;;;;;;;;;;;;;;;;;;;;;;;;;;;;"1261";"2014-10-06 10:23:00.441";"NST_correctLoc";"10";"0";"FINISHED";"LEFT";"success";"407";"0";"2014-10-06 10:22:59.178";"2";;;;;;;;;;;;;;;;;;;;;;;;;;;;;;;;;
"Ashby20";"1994";;"Windows 7";"Rachel's Experiment (D.T.)";"1.0";"2";"1";"1";"2";"1";"1";"2014-10-06 10:17:00.564";"2014-10-06 10:30:19.395";"1";"0";"1";"105";"104";"module.training_block3.exec-1847.GoNoGo3";;;;;;;;;;;;;;;;;;;;;;;;;;;;;;;;;;;;;;;;;;;;;;;"1262";"2014-10-06 10:23:02.984";"NST_correctLoc";"32";"0";"FINISHED";"LEFT";"success";"552";"0";"2014-10-06 10:23:01.721";"3";;;;;;;;;;;;;;;;;;;;;;;;;;;;;;;;;
"Ashby20";"1994";;"Windows 7";"Rachel's Experiment (D.T.)";"1.0";"2";"1";"1";"2";"1";"1";"2014-10-06 10:17:00.564";"2014-10-06 10:30:19.395";"1";"0";"1";"106";"105";"module.training_block3.exec-1847.GoNoGo3";;;;;;;;;;;;;;;;;;;;;;;;;;;;;;;;;;;;;;;;;;;;;;;"1261";"2014-10-06 10:23:05.527";"NST_correctLoc";"7";"0";"FINISHED";"LEFT";"success";"377";"0";"2014-10-06 10:23:04.263";"1";;;;;;;;;;;;;;;;;;;;;;;;;;;;;;;;;
"Ashby20";"1994";;"Windows 7";"Rachel's Experiment (D.T.)";"1.0";"2";"1";"1";"2";"1";"1";"2014-10-06 10:17:00.564";"2014-10-06 10:30:19.395";"1";"0";"1";"107";"106";"module.training_block3.exec-1847.GoNoGo3";;;;;;;;;;;;;;;;;;;;;;;;;;;;;;;;;;;;;;;;;;;;;;;"1261";"2014-10-06 10:23:08.070";"NST_correctLoc";"34";"1";"FINISHED";"RIGHT";"success";"395";"0";"2014-10-06 10:23:06.806";"3";;;;;;;;;;;;;;;;;;;;;;;;;;;;;;;;;
"Ashby20";"1994";;"Windows 7";"Rachel's Experiment (D.T.)";"1.0";"2";"1";"1";"2";"1";"1";"2014-10-06 10:17:00.564";"2014-10-06 10:30:19.395";"1";"0";"1";"108";"107";"module.training_block3.exec-1847.GoNoGo3";;;;;;;;;;;;;;;;;;;;;;;;;;;;;;;;;;;;;;;;;;;;;;;"1262";"2014-10-06 10:23:10.613";"NST_correctLoc";"0";"1";"FINISHED";"RIGHT";"success";"404";"0";"2014-10-06 10:23:09.349";"1";;;;;;;;;;;;;;;;;;;;;;;;;;;;;;;;;
"Ashby20";"1994";;"Windows 7";"Rachel's Experiment (D.T.)";"1.0";"2";"1";"1";"2";"1";"1";"2014-10-06 10:17:00.564";"2014-10-06 10:30:19.395";"1";"0";"1";"109";"108";"module.training_block3.exec-1847.GoNoGo3";;;;;;;;;;;;;;;;;;;;;;;;;;;;;;;;;;;;;;;;;;;;;;;"1261";"2014-10-06 10:23:13.155";"NST_correctLoc";"23";"1";"FINISHED";"RIGHT";"success";"373";"0";"2014-10-06 10:23:11.892";"3";;;;;;;;;;;;;;;;;;;;;;;;;;;;;;;;;
"Ashby20";"1994";;"Windows 7";"Rachel's Experiment (D.T.)";"1.0";"2";"1";"1";"2";"1";"1";"2014-10-06 10:17:00.564";"2014-10-06 10:30:19.395";"1";"0";"1";"110";"109";"module.training_block3.exec-1847.GoNoGo3";;;;;;;;;;;;;;;;;;;;;;;;;;;;;;;;;;;;;;;;;;;;;;;"1261";"2014-10-06 10:23:15.698";"NST_correctLoc";"9";"0";"FINISHED";"LEFT";"success";"398";"0";"2014-10-06 10:23:14.435";"2";;;;;;;;;;;;;;;;;;;;;;;;;;;;;;;;;
"Ashby20";"1994";;"Windows 7";"Rachel's Experiment (D.T.)";"1.0";"2";"1";"1";"2";"1";"1";"2014-10-06 10:17:00.564";"2014-10-06 10:30:19.395";"1";"0";"1";"111";"110";"module.training_block3.exec-1847.GoNoGo3";;;;;;;;;;;;;;;;;;;;;;;;;;;;;;;;;;;;;;;;;;;;;;;"1261";"2014-10-06 10:23:18.241";"NST_correctLoc";"16";"1";"FINISHED";"RIGHT";"success";"391";"0";"2014-10-06 10:23:16.977";"2";;;;;;;;;;;;;;;;;;;;;;;;;;;;;;;;;
"Ashby20";"1994";;"Windows 7";"Rachel's Experiment (D.T.)";"1.0";"2";"1";"1";"2";"1";"1";"2014-10-06 10:17:00.564";"2014-10-06 10:30:19.395";"1";"0";"1";"112";"111";"module.training_block3.exec-1847.GoNoGo3";;;;;;;;;;;;;;;;;;;;;;;;;;;;;;;;;;;;;;;;;;;;;;;"1261";"2014-10-06 10:23:20.784";"NST_correctLoc";"27";"1";"FINISHED";"RIGHT";"success";"464";"0";"2014-10-06 10:23:19.520";"3";;;;;;;;;;;;;;;;;;;;;;;;;;;;;;;;;
"Ashby20";"1994";;"Windows 7";"Rachel's Experiment (D.T.)";"1.0";"2";"1";"1";"2";"1";"1";"2014-10-06 10:17:00.564";"2014-10-06 10:30:19.395";"1";"0";"1";"113";"112";"module.training_block3.exec-1847.GoNoGo3";;;;;;;;;;;;;;;;;;;;;;;;;;;;;;;;;;;;;;;;;;;;;;;"1261";"2014-10-06 10:23:23.327";"NST_correctLoc";"26";"0";"FINISHED";"LEFT";"success";"370";"0";"2014-10-06 10:23:22.063";"3";;;;;;;;;;;;;;;;;;;;;;;;;;;;;;;;;
"Ashby20";"1994";;"Windows 7";"Rachel's Experiment (D.T.)";"1.0";"2";"1";"1";"2";"1";"1";"2014-10-06 10:17:00.564";"2014-10-06 10:30:19.395";"1";"0";"1";"114";"113";"module.training_block3.exec-1847.GoNoGo3";;;;;;;;;;;;;;;;;;;;;;;;;;;;;;;;;;;;;;;;;;;;;;;"1261";"2014-10-06 10:23:25.869";"NST_correctLoc";"30";"0";"FINISHED";"LEFT";"success";"347";"0";"2014-10-06 10:23:24.606";"3";;;;;;;;;;;;;;;;;;;;;;;;;;;;;;;;;
"Ashby20";"1994";;"Windows 7";"Rachel's Experiment (D.T.)";"1.0";"2";"1";"1";"2";"1";"1";"2014-10-06 10:17:00.564";"2014-10-06 10:30:19.395";"1";"0";"1";"115";"114";"module.training_block3.exec-1847.GoNoGo3";;;;;;;;;;;;;;;;;;;;;;;;;;;;;;;;;;;;;;;;;;;;;;;"1262";"2014-10-06 10:23:28.412";"NST_correctLoc";"29";"1";"FINISHED";"RIGHT";"success";"420";"0";"2014-10-06 10:23:27.149";"3";;;;;;;;;;;;;;;;;;;;;;;;;;;;;;;;;
"Ashby20";"1994";;"Windows 7";"Rachel's Experiment (D.T.)";"1.0";"2";"1";"1";"2";"1";"1";"2014-10-06 10:17:00.564";"2014-10-06 10:30:19.395";"1";"0";"1";"116";"115";"module.training_block3.exec-1847.GoNoGo3";;;;;;;;;;;;;;;;;;;;;;;;;;;;;;;;;;;;;;;;;;;;;;;"1261";"2014-10-06 10:23:30.955";"NST_correctLoc";"12";"0";"FINISHED";"LEFT";"success";"413";"0";"2014-10-06 10:23:29.691";"2";;;;;;;;;;;;;;;;;;;;;;;;;;;;;;;;;
"Ashby20";"1994";;"Windows 7";"Rachel's Experiment (D.T.)";"1.0";"2";"1";"1";"2";"1";"1";"2014-10-06 10:17:00.564";"2014-10-06 10:30:19.395";"1";"0";"1";"117";"116";"module.training_block3.exec-1847.GoNoGo3";;;;;;;;;;;;;;;;;;;;;;;;;;;;;;;;;;;;;;;;;;;;;;;"1261";"2014-10-06 10:23:33.498";"NST_correctLoc";"15";"1";"FINISHED";"RIGHT";"success";"382";"0";"2014-10-06 10:23:32.234";"2";;;;;;;;;;;;;;;;;;;;;;;;;;;;;;;;;
"Ashby20";"1994";;"Windows 7";"Rachel's Experiment (D.T.)";"1.0";"2";"1";"1";"2";"1";"1";"2014-10-06 10:17:00.564";"2014-10-06 10:30:19.395";"1";"0";"1";"118";"117";"module.training_block3.exec-1847.GoNoGo3";;;;;;;;;;;;;;;;;;;;;;;;;;;;;;;;;;;;;;;;;;;;;;;"1261";"2014-10-06 10:23:36.041";"NST_correctLoc";"21";"1";"FINISHED";"RIGHT";"success";"376";"0";"2014-10-06 10:23:34.777";"3";;;;;;;;;;;;;;;;;;;;;;;;;;;;;;;;;
"Ashby20";"1994";;"Windows 7";"Rachel's Experiment (D.T.)";"1.0";"2";"1";"1";"2";"1";"1";"2014-10-06 10:17:00.564";"2014-10-06 10:30:19.395";"1";"0";"1";"119";"118";"module.training_block3.exec-1847.GoNoGo3";;;;;;;;;;;;;;;;;;;;;;;;;;;;;;;;;;;;;;;;;;;;;;;"1261";"2014-10-06 10:23:38.583";"NST_correctLoc";"35";"0";"FINISHED";"LEFT";"success";"377";"0";"2014-10-06 10:23:37.320";"3";;;;;;;;;;;;;;;;;;;;;;;;;;;;;;;;;
"Ashby20";"1994";;"Windows 7";"Rachel's Experiment (D.T.)";"1.0";"2";"1";"1";"2";"1";"1";"2014-10-06 10:17:00.564";"2014-10-06 10:30:19.395";"1";"0";"1";"120";"119";"module.training_block3.exec-1847.GoNoGo3";;;;;;;;;;;;;;;;;;;;;;;;;;;;;;;;;;;;;;;;;;;;;;;"1261";"2014-10-06 10:23:41.126";"NST_correctLoc";"20";"1";"FINISHED";"RIGHT";"success";"450";"0";"2014-10-06 10:23:39.863";"3";;;;;;;;;;;;;;;;;;;;;;;;;;;;;;;;;
"Ashby20";"1994";;"Windows 7";"Rachel's Experiment (D.T.)";"1.0";"2";"1";"1";"2";"1";"1";"2014-10-06 10:17:00.564";"2014-10-06 10:30:19.395";"1";"0";"1";"121";"120";"module.training_block3.exec-1847.GoNoGo3";;;;;;;;;;;;;;;;;;;;;;;;;;;;;;;;;;;;;;;;;;;;;;;"1261";"2014-10-06 10:23:43.669";"NST_correctLoc";"24";"0";"FINISHED";"LEFT";"success";"323";"0";"2014-10-06 10:23:42.405";"3";;;;;;;;;;;;;;;;;;;;;;;;;;;;;;;;;
"Ashby20";"1994";;"Windows 7";"Rachel's Experiment (D.T.)";"1.0";"2";"1";"1";"2";"1";"1";"2014-10-06 10:17:00.564";"2014-10-06 10:30:19.395";"1";"0";"1";"122";"121";"module.training_block3.exec-1847.GoNoGo3";;;;;;;;;;;;;;;;;;;;;;;;;;;;;;;;;;;;;;;;;;;;;;;"1261";"2014-10-06 10:23:46.212";"NST_correctLoc";"6";"0";"FINISHED";"LEFT";"success";"460";"0";"2014-10-06 10:23:44.948";"1";;;;;;;;;;;;;;;;;;;;;;;;;;;;;;;;;
"Ashby20";"1994";;"Windows 7";"Rachel's Experiment (D.T.)";"1.0";"2";"1";"1";"2";"1";"1";"2014-10-06 10:17:00.564";"2014-10-06 10:30:19.395";"1";"0";"1";"123";"122";"module.training_block3.exec-1847.GoNoGo3";;;;;;;;;;;;;;;;;;;;;;;;;;;;;;;;;;;;;;;;;;;;;;;"1261";"2014-10-06 10:23:48.755";"NST_correctLoc";"14";"0";"FINISHED";"LEFT";"success";"317";"0";"2014-10-06 10:23:47.491";"2";;;;;;;;;;;;;;;;;;;;;;;;;;;;;;;;;
"Ashby20";"1994";;"Windows 7";"Rachel's Experiment (D.T.)";"1.0";"2";"1";"1";"2";"1";"1";"2014-10-06 10:17:00.564";"2014-10-06 10:30:19.395";"1";"0";"1";"124";"123";"module.training_block4.exec-1828.GoNoGo4";;;;;;;;;;;;;;;;;;;;;;;;;;;;;;;;;;;;;;;;;;;;;;;;;;;;;;;;;;;"1261";"2014-10-06 10:23:59.534";"NST_correctLoc";"6";"1";"FINISHED";"RIGHT";"success";"554";"0";"2014-10-06 10:23:58.271";"1";;;;;;;;;;;;;;;;;;;;;
"Ashby20";"1994";;"Windows 7";"Rachel's Experiment (D.T.)";"1.0";"2";"1";"1";"2";"1";"1";"2014-10-06 10:17:00.564";"2014-10-06 10:30:19.395";"1";"0";"1";"125";"124";"module.training_block4.exec-1828.GoNoGo4";;;;;;;;;;;;;;;;;;;;;;;;;;;;;;;;;;;;;;;;;;;;;;;;;;;;;;;;;;;"1262";"2014-10-06 10:24:02.077";"NST_correctLoc";"7";"1";"FINISHED";"RIGHT";"success";"443";"0";"2014-10-06 10:24:00.813";"1";;;;;;;;;;;;;;;;;;;;;
"Ashby20";"1994";;"Windows 7";"Rachel's Experiment (D.T.)";"1.0";"2";"1";"1";"2";"1";"1";"2014-10-06 10:17:00.564";"2014-10-06 10:30:19.395";"1";"0";"1";"126";"125";"module.training_block4.exec-1828.GoNoGo4";;;;;;;;;;;;;;;;;;;;;;;;;;;;;;;;;;;;;;;;;;;;;;;;;;;;;;;;;;;"1261";"2014-10-06 10:24:04.620";"NST_correctLoc";"13";"0";"FINISHED";"LEFT";"success";"572";"0";"2014-10-06 10:24:03.356";"2";;;;;;;;;;;;;;;;;;;;;
"Ashby20";"1994";;"Windows 7";"Rachel's Experiment (D.T.)";"1.0";"2";"1";"1";"2";"1";"1";"2014-10-06 10:17:00.564";"2014-10-06 10:30:19.395";"1";"0";"1";"127";"126";"module.training_block4.exec-1828.GoNoGo4";;;;;;;;;;;;;;;;;;;;;;;;;;;;;;;;;;;;;;;;;;;;;;;;;;;;;;;;;;;"1262";"2014-10-06 10:24:07.163";"NST_correctLoc";"12";"0";"FINISHED";"LEFT";"success";"373";"0";"2014-10-06 10:24:05.899";"2";;;;;;;;;;;;;;;;;;;;;
"Ashby20";"1994";;"Windows 7";"Rachel's Experiment (D.T.)";"1.0";"2";"1";"1";"2";"1";"1";"2014-10-06 10:17:00.564";"2014-10-06 10:30:19.395";"1";"0";"1";"128";"127";"module.training_block4.exec-1828.GoNoGo4";;;;;;;;;;;;;;;;;;;;;;;;;;;;;;;;;;;;;;;;;;;;;;;;;;;;;;;;;;;"1262";"2014-10-06 10:24:09.705";"NST_correctLoc";"32";"1";"FINISHED";"RIGHT";"success";"311";"0";"2014-10-06 10:24:08.442";"3";;;;;;;;;;;;;;;;;;;;;
"Ashby20";"1994";;"Windows 7";"Rachel's Experiment (D.T.)";"1.0";"2";"1";"1";"2";"1";"1";"2014-10-06 10:17:00.564";"2014-10-06 10:30:19.395";"1";"0";"1";"129";"128";"module.training_block4.exec-1828.GoNoGo4";;;;;;;;;;;;;;;;;;;;;;;;;;;;;;;;;;;;;;;;;;;;;;;;;;;;;;;;;;;"1262";"2014-10-06 10:24:12.248";"NST_correctLoc";"20";"1";"FINISHED";"RIGHT";"success";"376";"0";"2014-10-06 10:24:10.985";"3";;;;;;;;;;;;;;;;;;;;;
"Ashby20";"1994";;"Windows 7";"Rachel's Experiment (D.T.)";"1.0";"2";"1";"1";"2";"1";"1";"2014-10-06 10:17:00.564";"2014-10-06 10:30:19.395";"1";"0";"1";"130";"129";"module.training_block4.exec-1828.GoNoGo4";;;;;;;;;;;;;;;;;;;;;;;;;;;;;;;;;;;;;;;;;;;;;;;;;;;;;;;;;;;"1261";"2014-10-06 10:24:14.807";"NST_correctLoc";"23";"0";"FINISHED";"LEFT";"success";"313";"0";"2014-10-06 10:24:13.543";"3";;;;;;;;;;;;;;;;;;;;;
"Ashby20";"1994";;"Windows 7";"Rachel's Experiment (D.T.)";"1.0";"2";"1";"1";"2";"1";"1";"2014-10-06 10:17:00.564";"2014-10-06 10:30:19.395";"1";"0";"1";"131";"130";"module.training_block4.exec-1828.GoNoGo4";;;;;;;;;;;;;;;;;;;;;;;;;;;;;;;;;;;;;;;;;;;;;;;;;;;;;;;;;;;"1261";"2014-10-06 10:24:17.349";"NST_correctLoc";"33";"1";"FINISHED";"RIGHT";"success";"306";"0";"2014-10-06 10:24:16.086";"3";;;;;;;;;;;;;;;;;;;;;
"Ashby20";"1994";;"Windows 7";"Rachel's Experiment (D.T.)";"1.0";"2";"1";"1";"2";"1";"1";"2014-10-06 10:17:00.564";"2014-10-06 10:30:19.395";"1";"0";"1";"132";"131";"module.training_block4.exec-1828.GoNoGo4";;;;;;;;;;;;;;;;;;;;;;;;;;;;;;;;;;;;;;;;;;;;;;;;;;;;;;;;;;;"1261";"2014-10-06 10:24:19.892";"NST_correctLoc";"22";"0";"FINISHED";"LEFT";"success";"324";"0";"2014-10-06 10:24:18.629";"3";;;;;;;;;;;;;;;;;;;;;
"Ashby20";"1994";;"Windows 7";"Rachel's Experiment (D.T.)";"1.0";"2";"1";"1";"2";"1";"1";"2014-10-06 10:17:00.564";"2014-10-06 10:30:19.395";"1";"0";"1";"133";"132";"module.training_block4.exec-1828.GoNoGo4";;;;;;;;;;;;;;;;;;;;;;;;;;;;;;;;;;;;;;;;;;;;;;;;;;;;;;;;;;;"1261";"2014-10-06 10:24:22.435";"NST_correctLoc";"28";"0";"FINISHED";"LEFT";"success";"341";"0";"2014-10-06 10:24:21.171";"3";;;;;;;;;;;;;;;;;;;;;
"Ashby20";"1994";;"Windows 7";"Rachel's Experiment (D.T.)";"1.0";"2";"1";"1";"2";"1";"1";"2014-10-06 10:17:00.564";"2014-10-06 10:30:19.395";"1";"0";"1";"134";"133";"module.training_block4.exec-1828.GoNoGo4";;;;;;;;;;;;;;;;;;;;;;;;;;;;;;;;;;;;;;;;;;;;;;;;;;;;;;;;;;;"1262";"2014-10-06 10:24:24.978";"NST_correctLoc";"5";"0";"FINISHED";"LEFT";"success";"334";"0";"2014-10-06 10:24:23.714";"1";;;;;;;;;;;;;;;;;;;;;
"Ashby20";"1994";;"Windows 7";"Rachel's Experiment (D.T.)";"1.0";"2";"1";"1";"2";"1";"1";"2014-10-06 10:17:00.564";"2014-10-06 10:30:19.395";"1";"0";"1";"135";"134";"module.training_block4.exec-1828.GoNoGo4";;;;;;;;;;;;;;;;;;;;;;;;;;;;;;;;;;;;;;;;;;;;;;;;;;;;;;;;;;;"1262";"2014-10-06 10:24:27.521";"NST_correctLoc";"16";"1";"FINISHED";"RIGHT";"success";"351";"0";"2014-10-06 10:24:26.257";"2";;;;;;;;;;;;;;;;;;;;;
"Ashby20";"1994";;"Windows 7";"Rachel's Experiment (D.T.)";"1.0";"2";"1";"1";"2";"1";"1";"2014-10-06 10:17:00.564";"2014-10-06 10:30:19.395";"1";"0";"1";"136";"135";"module.training_block4.exec-1828.GoNoGo4";;;;;;;;;;;;;;;;;;;;;;;;;;;;;;;;;;;;;;;;;;;;;;;;;;;;;;;;;;;"1261";"2014-10-06 10:24:30.064";"NST_correctLoc";"24";"1";"FINISHED";"RIGHT";"success";"376";"0";"2014-10-06 10:24:28.800";"3";;;;;;;;;;;;;;;;;;;;;
"Ashby20";"1994";;"Windows 7";"Rachel's Experiment (D.T.)";"1.0";"2";"1";"1";"2";"1";"1";"2014-10-06 10:17:00.564";"2014-10-06 10:30:19.395";"1";"0";"1";"137";"136";"module.training_block4.exec-1828.GoNoGo4";;;;;;;;;;;;;;;;;;;;;;;;;;;;;;;;;;;;;;;;;;;;;;;;;;;;;;;;;;;"1261";"2014-10-06 10:24:32.606";"NST_correctLoc";"3";"1";"FINISHED";"RIGHT";"success";"329";"0";"2014-10-06 10:24:31.343";"1";;;;;;;;;;;;;;;;;;;;;
"Ashby20";"1994";;"Windows 7";"Rachel's Experiment (D.T.)";"1.0";"2";"1";"1";"2";"1";"1";"2014-10-06 10:17:00.564";"2014-10-06 10:30:19.395";"1";"0";"1";"138";"137";"module.training_block4.exec-1828.GoNoGo4";;;;;;;;;;;;;;;;;;;;;;;;;;;;;;;;;;;;;;;;;;;;;;;;;;;;;;;;;;;"1262";"2014-10-06 10:24:35.149";"NST_correctLoc";"21";"1";"FINISHED";"RIGHT";"success";"331";"0";"2014-10-06 10:24:33.886";"3";;;;;;;;;;;;;;;;;;;;;
"Ashby20";"1994";;"Windows 7";"Rachel's Experiment (D.T.)";"1.0";"2";"1";"1";"2";"1";"1";"2014-10-06 10:17:00.564";"2014-10-06 10:30:19.395";"1";"0";"1";"139";"138";"module.training_block4.exec-1828.GoNoGo4";;;;;;;;;;;;;;;;;;;;;;;;;;;;;;;;;;;;;;;;;;;;;;;;;;;;;;;;;;;"1261";"2014-10-06 10:24:37.708";"NST_correctLoc";"1";"0";"FINISHED";"LEFT";"success";"332";"0";"2014-10-06 10:24:36.444";"1";;;;;;;;;;;;;;;;;;;;;
"Ashby20";"1994";;"Windows 7";"Rachel's Experiment (D.T.)";"1.0";"2";"1";"1";"2";"1";"1";"2014-10-06 10:17:00.564";"2014-10-06 10:30:19.395";"1";"0";"1";"140";"139";"module.training_block4.exec-1828.GoNoGo4";;;;;;;;;;;;;;;;;;;;;;;;;;;;;;;;;;;;;;;;;;;;;;;;;;;;;;;;;;;"1261";"2014-10-06 10:24:40.250";"NST_correctLoc";"26";"0";"FINISHED";"LEFT";"success";"493";"0";"2014-10-06 10:24:38.987";"3";;;;;;;;;;;;;;;;;;;;;
"Ashby20";"1994";;"Windows 7";"Rachel's Experiment (D.T.)";"1.0";"2";"1";"1";"2";"1";"1";"2014-10-06 10:17:00.564";"2014-10-06 10:30:19.395";"1";"0";"1";"141";"140";"module.training_block4.exec-1828.GoNoGo4";;;;;;;;;;;;;;;;;;;;;;;;;;;;;;;;;;;;;;;;;;;;;;;;;;;;;;;;;;;"1262";"2014-10-06 10:24:42.793";"NST_correctLoc";"15";"1";"FINISHED";"RIGHT";"success";"359";"0";"2014-10-06 10:24:41.530";"2";;;;;;;;;;;;;;;;;;;;;
"Ashby20";"1994";;"Windows 7";"Rachel's Experiment (D.T.)";"1.0";"2";"1";"1";"2";"1";"1";"2014-10-06 10:17:00.564";"2014-10-06 10:30:19.395";"1";"0";"1";"142";"141";"module.training_block4.exec-1828.GoNoGo4";;;;;;;;;;;;;;;;;;;;;;;;;;;;;;;;;;;;;;;;;;;;;;;;;;;;;;;;;;;"1261";"2014-10-06 10:24:45.336";"NST_correctLoc";"17";"0";"FINISHED";"LEFT";"success";"312";"0";"2014-10-06 10:24:44.072";"2";;;;;;;;;;;;;;;;;;;;;
"Ashby20";"1994";;"Windows 7";"Rachel's Experiment (D.T.)";"1.0";"2";"1";"1";"2";"1";"1";"2014-10-06 10:17:00.564";"2014-10-06 10:30:19.395";"1";"0";"1";"143";"142";"module.training_block4.exec-1828.GoNoGo4";;;;;;;;;;;;;;;;;;;;;;;;;;;;;;;;;;;;;;;;;;;;;;;;;;;;;;;;;;;"1261";"2014-10-06 10:24:47.879";"NST_correctLoc";"31";"1";"FINISHED";"RIGHT";"success";"321";"0";"2014-10-06 10:24:46.615";"3";;;;;;;;;;;;;;;;;;;;;
"Ashby20";"1994";;"Windows 7";"Rachel's Experiment (D.T.)";"1.0";"2";"1";"1";"2";"1";"1";"2014-10-06 10:17:00.564";"2014-10-06 10:30:19.395";"1";"0";"1";"144";"143";"module.training_block4.exec-1828.GoNoGo4";;;;;;;;;;;;;;;;;;;;;;;;;;;;;;;;;;;;;;;;;;;;;;;;;;;;;;;;;;;"1261";"2014-10-06 10:24:50.422";"NST_correctLoc";"25";"0";"FINISHED";"LEFT";"success";"330";"0";"2014-10-06 10:24:49.158";"3";;;;;;;;;;;;;;;;;;;;;
"Ashby20";"1994";;"Windows 7";"Rachel's Experiment (D.T.)";"1.0";"2";"1";"1";"2";"1";"1";"2014-10-06 10:17:00.564";"2014-10-06 10:30:19.395";"1";"0";"1";"145";"144";"module.training_block4.exec-1828.GoNoGo4";;;;;;;;;;;;;;;;;;;;;;;;;;;;;;;;;;;;;;;;;;;;;;;;;;;;;;;;;;;"1261";"2014-10-06 10:24:52.964";"NST_correctLoc";"8";"0";"FINISHED";"LEFT";"success";"347";"0";"2014-10-06 10:24:51.701";"1";;;;;;;;;;;;;;;;;;;;;
"Ashby20";"1994";;"Windows 7";"Rachel's Experiment (D.T.)";"1.0";"2";"1";"1";"2";"1";"1";"2014-10-06 10:17:00.564";"2014-10-06 10:30:19.395";"1";"0";"1";"146";"145";"module.training_block4.exec-1828.GoNoGo4";;;;;;;;;;;;;;;;;;;;;;;;;;;;;;;;;;;;;;;;;;;;;;;;;;;;;;;;;;;"1262";"2014-10-06 10:24:55.523";"NST_correctLoc";"0";"1";"FINISHED";"RIGHT";"success";"421";"0";"2014-10-06 10:24:54.259";"1";;;;;;;;;;;;;;;;;;;;;
"Ashby20";"1994";;"Windows 7";"Rachel's Experiment (D.T.)";"1.0";"2";"1";"1";"2";"1";"1";"2014-10-06 10:17:00.564";"2014-10-06 10:30:19.395";"1";"0";"1";"147";"146";"module.training_block4.exec-1828.GoNoGo4";;;;;;;;;;;;;;;;;;;;;;;;;;;;;;;;;;;;;;;;;;;;;;;;;;;;;;;;;;;"1262";"2014-10-06 10:24:58.066";"NST_correctLoc";"18";"0";"FINISHED";"LEFT";"success";"310";"0";"2014-10-06 10:24:56.802";"3";;;;;;;;;;;;;;;;;;;;;
"Ashby20";"1994";;"Windows 7";"Rachel's Experiment (D.T.)";"1.0";"2";"1";"1";"2";"1";"1";"2014-10-06 10:17:00.564";"2014-10-06 10:30:19.395";"1";"0";"1";"148";"147";"module.training_block4.exec-1828.GoNoGo4";;;;;;;;;;;;;;;;;;;;;;;;;;;;;;;;;;;;;;;;;;;;;;;;;;;;;;;;;;;"1261";"2014-10-06 10:25:00.624";"NST_correctLoc";"14";"0";"FINISHED";"LEFT";"success";"384";"0";"2014-10-06 10:24:59.360";"2";;;;;;;;;;;;;;;;;;;;;
"Ashby20";"1994";;"Windows 7";"Rachel's Experiment (D.T.)";"1.0";"2";"1";"1";"2";"1";"1";"2014-10-06 10:17:00.564";"2014-10-06 10:30:19.395";"1";"0";"1";"149";"148";"module.training_block4.exec-1828.GoNoGo4";;;;;;;;;;;;;;;;;;;;;;;;;;;;;;;;;;;;;;;;;;;;;;;;;;;;;;;;;;;"1261";"2014-10-06 10:25:03.167";"NST_correctLoc";"27";"1";"FINISHED";"RIGHT";"success";"329";"0";"2014-10-06 10:25:01.903";"3";;;;;;;;;;;;;;;;;;;;;
"Ashby20";"1994";;"Windows 7";"Rachel's Experiment (D.T.)";"1.0";"2";"1";"1";"2";"1";"1";"2014-10-06 10:17:00.564";"2014-10-06 10:30:19.395";"1";"0";"1";"150";"149";"module.training_block4.exec-1828.GoNoGo4";;;;;;;;;;;;;;;;;;;;;;;;;;;;;;;;;;;;;;;;;;;;;;;;;;;;;;;;;;;"1262";"2014-10-06 10:25:05.710";"NST_correctLoc";"30";"0";"FINISHED";"LEFT";"success";"514";"0";"2014-10-06 10:25:04.446";"3";;;;;;;;;;;;;;;;;;;;;
"Ashby20";"1994";;"Windows 7";"Rachel's Experiment (D.T.)";"1.0";"2";"1";"1";"2";"1";"1";"2014-10-06 10:17:00.564";"2014-10-06 10:30:19.395";"1";"0";"1";"151";"150";"module.training_block4.exec-1828.GoNoGo4";;;;;;;;;;;;;;;;;;;;;;;;;;;;;;;;;;;;;;;;;;;;;;;;;;;;;;;;;;;"1262";"2014-10-06 10:25:08.237";"NST_correctLoc";"2";"1";"FINISHED";"RIGHT";"success";"291";"0";"2014-10-06 10:25:06.973";"1";;;;;;;;;;;;;;;;;;;;;
"Ashby20";"1994";;"Windows 7";"Rachel's Experiment (D.T.)";"1.0";"2";"1";"1";"2";"1";"1";"2014-10-06 10:17:00.564";"2014-10-06 10:30:19.395";"1";"0";"1";"152";"151";"module.training_block4.exec-1828.GoNoGo4";;;;;;;;;;;;;;;;;;;;;;;;;;;;;;;;;;;;;;;;;;;;;;;;;;;;;;;;;;;"1258";"2014-10-06 10:25:10.780";"NST_correctLoc";"9";"0";"FINISHED";"LEFT";"success";"305";"0";"2014-10-06 10:25:09.516";"2";;;;;;;;;;;;;;;;;;;;;
"Ashby20";"1994";;"Windows 7";"Rachel's Experiment (D.T.)";"1.0";"2";"1";"1";"2";"1";"1";"2014-10-06 10:17:00.564";"2014-10-06 10:30:19.395";"1";"0";"1";"153";"152";"module.training_block4.exec-1828.GoNoGo4";;;;;;;;;;;;;;;;;;;;;;;;;;;;;;;;;;;;;;;;;;;;;;;;;;;;;;;;;;;"1262";"2014-10-06 10:25:13.307";"NST_correctLoc";"19";"0";"FINISHED";"LEFT";"success";"349";"0";"2014-10-06 10:25:12.043";"3";;;;;;;;;;;;;;;;;;;;;
"Ashby20";"1994";;"Windows 7";"Rachel's Experiment (D.T.)";"1.0";"2";"1";"1";"2";"1";"1";"2014-10-06 10:17:00.564";"2014-10-06 10:30:19.395";"1";"0";"1";"154";"153";"module.training_block4.exec-1828.GoNoGo4";;;;;;;;;;;;;;;;;;;;;;;;;;;;;;;;;;;;;;;;;;;;;;;;;;;;;;;;;;;"1261";"2014-10-06 10:25:15.850";"NST_correctLoc";"11";"1";"FINISHED";"RIGHT";"success";"334";"0";"2014-10-06 10:25:14.586";"2";;;;;;;;;;;;;;;;;;;;;
"Ashby20";"1994";;"Windows 7";"Rachel's Experiment (D.T.)";"1.0";"2";"1";"1";"2";"1";"1";"2014-10-06 10:17:00.564";"2014-10-06 10:30:19.395";"1";"0";"1";"155";"154";"module.training_block4.exec-1828.GoNoGo4";;;;;;;;;;;;;;;;;;;;;;;;;;;;;;;;;;;;;;;;;;;;;;;;;;;;;;;;;;;"1261";"2014-10-06 10:25:18.392";"NST_correctLoc";"29";"0";"FINISHED";"LEFT";"success";"335";"0";"2014-10-06 10:25:17.129";"3";;;;;;;;;;;;;;;;;;;;;
"Ashby20";"1994";;"Windows 7";"Rachel's Experiment (D.T.)";"1.0";"2";"1";"1";"2";"1";"1";"2014-10-06 10:17:00.564";"2014-10-06 10:30:19.395";"1";"0";"1";"156";"155";"module.training_block4.exec-1828.GoNoGo4";;;;;;;;;;;;;;;;;;;;;;;;;;;;;;;;;;;;;;;;;;;;;;;;;;;;;;;;;;;"1262";"2014-10-06 10:25:20.935";"NST_correctLoc";"4";"0";"FINISHED";"LEFT";"success";"472";"0";"2014-10-06 10:25:19.672";"1";;;;;;;;;;;;;;;;;;;;;
"Ashby20";"1994";;"Windows 7";"Rachel's Experiment (D.T.)";"1.0";"2";"1";"1";"2";"1";"1";"2014-10-06 10:17:00.564";"2014-10-06 10:30:19.395";"1";"0";"1";"157";"156";"module.training_block4.exec-1828.GoNoGo4";;;;;;;;;;;;;;;;;;;;;;;;;;;;;;;;;;;;;;;;;;;;;;;;;;;;;;;;;;;"1261";"2014-10-06 10:25:23.462";"NST_correctLoc";"34";"1";"FINISHED";"RIGHT";"success";"329";"0";"2014-10-06 10:25:22.199";"3";;;;;;;;;;;;;;;;;;;;;
"Ashby20";"1994";;"Windows 7";"Rachel's Experiment (D.T.)";"1.0";"2";"1";"1";"2";"1";"1";"2014-10-06 10:17:00.564";"2014-10-06 10:30:19.395";"1";"0";"1";"158";"157";"module.training_block4.exec-1828.GoNoGo4";;;;;;;;;;;;;;;;;;;;;;;;;;;;;;;;;;;;;;;;;;;;;;;;;;;;;;;;;;;"1262";"2014-10-06 10:25:25.990";"NST_correctLoc";"10";"0";"FINISHED";"LEFT";"success";"394";"0";"2014-10-06 10:25:24.726";"2";;;;;;;;;;;;;;;;;;;;;
"Ashby20";"1994";;"Windows 7";"Rachel's Experiment (D.T.)";"1.0";"2";"1";"1";"2";"1";"1";"2014-10-06 10:17:00.564";"2014-10-06 10:30:19.395";"1";"0";"1";"159";"158";"module.training_block4.exec-1828.GoNoGo4";;;;;;;;;;;;;;;;;;;;;;;;;;;;;;;;;;;;;;;;;;;;;;;;;;;;;;;;;;;"1262";"2014-10-06 10:25:28.532";"NST_correctLoc";"35";"1";"FINISHED";"RIGHT";"success";"267";"0";"2014-10-06 10:25:27.269";"3";;;;;;;;;;;;;;;;;;;;;
"Ashby20";"1994";;"Windows 7";"Rachel's Experiment (D.T.)";"1.0";"2";"1";"1";"2";"1";"1";"2014-10-06 10:17:00.564";"2014-10-06 10:30:19.395";"1";"0";"1";"160";"159";"module.devaluation_practice.exec-2872.devalPractice";;;;;;;;;;;;"12765";"2014-10-06 10:26:09.139";"0";"7";"5";"7";"2878";"1886";"4932";"2014-10-06 10:25:56.378";;;;;;;;;;;;;;;;;;;;;;;;;;;;;;;;;;;;;;;;;;;;;;;;;;;;;;;;;;;;;;;;;;;;;;
"Ashby20";"1994";;"Windows 7";"Rachel's Experiment (D.T.)";"1.0";"2";"1";"1";"2";"1";"1";"2014-10-06 10:17:00.564";"2014-10-06 10:30:19.395";"1";"0";"1";"161";"160";"module.devaluation_practice.exec-2872.devalPractice";;;;;;;;;;;;"11283";"2014-10-06 10:26:20.449";"1";"2";"1";"3";"2391";"2392";"3471";"2014-10-06 10:26:09.170";;;;;;;;;;;;;;;;;;;;;;;;;;;;;;;;;;;;;;;;;;;;;;;;;;;;;;;;;;;;;;;;;;;;;;
"Ashby20";"1994";;"Windows 7";"Rachel's Experiment (D.T.)";"1.0";"2";"1";"1";"2";"1";"1";"2014-10-06 10:17:00.564";"2014-10-06 10:30:19.395";"1";"0";"1";"162";"161";"module.devaluation_practice.exec-2872.devalPractice";;;;;;;;;;;;"10052";"2014-10-06 10:26:30.527";"2";"4";"5";"7";"2590";"1700";"2737";"2014-10-06 10:26:20.465";;;;;;;;;;;;;;;;;;;;;;;;;;;;;;;;;;;;;;;;;;;;;;;;;;;;;;;;;;;;;;;;;;;;;;
"Ashby20";"1994";;"Windows 7";"Rachel's Experiment (D.T.)";"1.0";"2";"1";"1";"2";"1";"1";"2014-10-06 10:17:00.564";"2014-10-06 10:30:19.395";"1";"0";"1";"163";"162";"module.devaluation_practice.exec-2872.devalPractice";;;;;;;;;;;;"10578";"2014-10-06 10:26:41.119";"3";"2";"3";"3";"1900";"1856";"3795";"2014-10-06 10:26:30.543";;;;;;;;;;;;;;;;;;;;;;;;;;;;;;;;;;;;;;;;;;;;;;;;;;;;;;;;;;;;;;;;;;;;;;
"Ashby20";"1994";;"Windows 7";"Rachel's Experiment (D.T.)";"1.0";"2";"1";"1";"2";"1";"1";"2014-10-06 10:17:00.564";"2014-10-06 10:30:19.395";"1";"0";"1";"164";"163";"module.devaluation_block1.exec-2923.deval1";"11152";"2014-10-06 10:26:57.765";"17";"2";"1";"2";"3678";"1952";"2482";"2014-10-06 10:26:46.611";"2";;;;;;;;;;;;;;;;;;;;;;;;;;;;;;;;;;;;;;;;;;;;;;;;;;;;;;;;;;;;;;;;;;;;;;;;;;;;;;;;
"Ashby20";"1994";;"Windows 7";"Rachel's Experiment (D.T.)";"1.0";"2";"1";"1";"2";"1";"1";"2014-10-06 10:17:00.564";"2014-10-06 10:30:19.395";"1";"0";"1";"165";"164";"module.devaluation_block1.exec-2923.deval1";"9659";"2014-10-06 10:27:07.437";"2";"3";"6";"7";"2334";"1023";"3286";"2014-10-06 10:26:57.780";"1";;;;;;;;;;;;;;;;;;;;;;;;;;;;;;;;;;;;;;;;;;;;;;;;;;;;;;;;;;;;;;;;;;;;;;;;;;;;;;;;
"Ashby20";"1994";;"Windows 7";"Rachel's Experiment (D.T.)";"1.0";"2";"1";"1";"2";"1";"1";"2014-10-06 10:17:00.564";"2014-10-06 10:30:19.395";"1";"0";"1";"166";"165";"module.devaluation_block1.exec-2923.deval1";"8695";"2014-10-06 10:27:16.157";"25";"6";"6";"7";"2654";"1631";"1375";"2014-10-06 10:27:07.468";"3";;;;;;;;;;;;;;;;;;;;;;;;;;;;;;;;;;;;;;;;;;;;;;;;;;;;;;;;;;;;;;;;;;;;;;;;;;;;;;;;
"Ashby20";"1994";;"Windows 7";"Rachel's Experiment (D.T.)";"1.0";"2";"1";"1";"2";"1";"1";"2014-10-06 10:17:00.564";"2014-10-06 10:30:19.395";"1";"0";"1";"167";"166";"module.devaluation_block1.exec-2923.deval1";"7851";"2014-10-06 10:27:24.035";"13";"5";"7";"7";"1341";"1549";"1925";"2014-10-06 10:27:16.188";"2";;;;;;;;;;;;;;;;;;;;;;;;;;;;;;;;;;;;;;;;;;;;;;;;;;;;;;;;;;;;;;;;;;;;;;;;;;;;;;;;
"Ashby20";"1994";;"Windows 7";"Rachel's Experiment (D.T.)";"1.0";"2";"1";"1";"2";"1";"1";"2014-10-06 10:17:00.564";"2014-10-06 10:30:19.395";"1";"0";"1";"168";"167";"module.devaluation_block1.exec-2923.deval1";"8827";"2014-10-06 10:27:32.880";"23";"4";"6";"6";"2623";"1332";"1840";"2014-10-06 10:27:24.051";"3";;;;;;;;;;;;;;;;;;;;;;;;;;;;;;;;;;;;;;;;;;;;;;;;;;;;;;;;;;;;;;;;;;;;;;;;;;;;;;;;
"Ashby20";"1994";;"Windows 7";"Rachel's Experiment (D.T.)";"1.0";"2";"1";"1";"2";"1";"1";"2014-10-06 10:17:00.564";"2014-10-06 10:30:19.395";"1";"0";"1";"169";"168";"module.devaluation_block1.exec-2923.deval1";"7203";"2014-10-06 10:27:40.103";"9";"2";"1";"1";"1450";"1060";"1652";"2014-10-06 10:27:32.896";"2";;;;;;;;;;;;;;;;;;;;;;;;;;;;;;;;;;;;;;;;;;;;;;;;;;;;;;;;;;;;;;;;;;;;;;;;;;;;;;;;
"Ashby20";"1994";;"Windows 7";"Rachel's Experiment (D.T.)";"1.0";"2";"1";"1";"2";"1";"1";"2014-10-06 10:17:00.564";"2014-10-06 10:30:19.395";"1";"0";"1";"170";"169";"module.devaluation_block1.exec-2923.deval1";"8100";"2014-10-06 10:27:48.215";"22";"7";"8";"9";"1995";"1333";"1731";"2014-10-06 10:27:40.119";"3";;;;;;;;;;;;;;;;;;;;;;;;;;;;;;;;;;;;;;;;;;;;;;;;;;;;;;;;;;;;;;;;;;;;;;;;;;;;;;;;
"Ashby20";"1994";;"Windows 7";"Rachel's Experiment (D.T.)";"1.0";"2";"1";"1";"2";"1";"1";"2014-10-06 10:17:00.564";"2014-10-06 10:30:19.395";"1";"0";"1";"171";"170";"module.devaluation_block1.exec-2923.deval1";"6524";"2014-10-06 10:27:54.767";"15";"3";"2";"2";"907";"1013";"1583";"2014-10-06 10:27:48.231";"2";;;;;;;;;;;;;;;;;;;;;;;;;;;;;;;;;;;;;;;;;;;;;;;;;;;;;;;;;;;;;;;;;;;;;;;;;;;;;;;;
"Ashby20";"1994";;"Windows 7";"Rachel's Experiment (D.T.)";"1.0";"2";"1";"1";"2";"1";"1";"2014-10-06 10:17:00.564";"2014-10-06 10:30:19.395";"1";"0";"1";"172";"171";"module.devaluation_block1.exec-2923.deval1";"9356";"2014-10-06 10:28:04.143";"5";"6";"8";"9";"3771";"920";"1640";"2014-10-06 10:27:54.783";"1";;;;;;;;;;;;;;;;;;;;;;;;;;;;;;;;;;;;;;;;;;;;;;;;;;;;;;;;;;;;;;;;;;;;;;;;;;;;;;;;
"Ashby20";"1994";;"Windows 7";"Rachel's Experiment (D.T.)";"1.0";"2";"1";"1";"2";"1";"1";"2014-10-06 10:17:00.564";"2014-10-06 10:30:19.395";"1";"0";"1";"173";"172";"module.devaluation_block1.exec-2923.deval1";"6540";"2014-10-06 10:28:10.695";"8";"6";"2";"4";"1139";"1052";"1318";"2014-10-06 10:28:04.158";"1";;;;;;;;;;;;;;;;;;;;;;;;;;;;;;;;;;;;;;;;;;;;;;;;;;;;;;;;;;;;;;;;;;;;;;;;;;;;;;;;
"Ashby20";"1994";;"Windows 7";"Rachel's Experiment (D.T.)";"1.0";"2";"1";"1";"2";"1";"1";"2014-10-06 10:17:00.564";"2014-10-06 10:30:19.395";"1";"0";"1";"174";"173";"module.devaluation_block1.exec-2923.deval1";"7771";"2014-10-06 10:28:18.495";"19";"7";"7";"9";"2452";"819";"1339";"2014-10-06 10:28:10.710";"3";;;;;;;;;;;;;;;;;;;;;;;;;;;;;;;;;;;;;;;;;;;;;;;;;;;;;;;;;;;;;;;;;;;;;;;;;;;;;;;;
"Ashby20";"1994";;"Windows 7";"Rachel's Experiment (D.T.)";"1.0";"2";"1";"1";"2";"1";"1";"2014-10-06 10:17:00.564";"2014-10-06 10:30:19.395";"1";"0";"1";"175";"174";"module.devaluation_block1.exec-2923.deval1";"7549";"2014-10-06 10:28:26.076";"0";"3";"6";"6";"2435";"610";"1471";"2014-10-06 10:28:18.526";"1";;;;;;;;;;;;;;;;;;;;;;;;;;;;;;;;;;;;;;;;;;;;;;;;;;;;;;;;;;;;;;;;;;;;;;;;;;;;;;;;
"Ashby20";"1994";;"Windows 7";"Rachel's Experiment (D.T.)";"1.0";"2";"1";"1";"2";"1";"1";"2014-10-06 10:17:00.564";"2014-10-06 10:30:19.395";"1";"0";"1";"176";"175";"module.devaluation_block1.exec-2923.deval1";"6808";"2014-10-06 10:28:32.909";"3";"6";"8";"9";"1486";"742";"1553";"2014-10-06 10:28:26.108";"1";;;;;;;;;;;;;;;;;;;;;;;;;;;;;;;;;;;;;;;;;;;;;;;;;;;;;;;;;;;;;;;;;;;;;;;;;;;;;;;;
"Ashby20";"1994";;"Windows 7";"Rachel's Experiment (D.T.)";"1.0";"2";"1";"1";"2";"1";"1";"2014-10-06 10:17:00.564";"2014-10-06 10:30:19.395";"1";"0";"1";"177";"176";"module.devaluation_block1.exec-2923.deval1";"9036";"2014-10-06 10:28:41.973";"7";"5";"7";"8";"3405";"875";"1713";"2014-10-06 10:28:32.940";"1";;;;;;;;;;;;;;;;;;;;;;;;;;;;;;;;;;;;;;;;;;;;;;;;;;;;;;;;;;;;;;;;;;;;;;;;;;;;;;;;
"Ashby20";"1994";;"Windows 7";"Rachel's Experiment (D.T.)";"1.0";"2";"1";"1";"2";"1";"1";"2014-10-06 10:17:00.564";"2014-10-06 10:30:19.395";"1";"0";"1";"178";"177";"module.devaluation_block1.exec-2923.deval1";"6579";"2014-10-06 10:28:48.572";"6";"5";"3";"5";"589";"626";"2345";"2014-10-06 10:28:41.988";"1";;;;;;;;;;;;;;;;;;;;;;;;;;;;;;;;;;;;;;;;;;;;;;;;;;;;;;;;;;;;;;;;;;;;;;;;;;;;;;;;
"Ashby20";"1994";;"Windows 7";"Rachel's Experiment (D.T.)";"1.0";"2";"1";"1";"2";"1";"1";"2014-10-06 10:17:00.564";"2014-10-06 10:30:19.395";"1";"0";"1";"179";"178";"module.devaluation_block1.exec-2923.deval1";"6373";"2014-10-06 10:28:54.968";"1";"4";"6";"6";"830";"1418";"1097";"2014-10-06 10:28:48.587";"1";;;;;;;;;;;;;;;;;;;;;;;;;;;;;;;;;;;;;;;;;;;;;;;;;;;;;;;;;;;;;;;;;;;;;;;;;;;;;;;;
"Ashby20";"1994";;"Windows 7";"Rachel's Experiment (D.T.)";"1.0";"2";"1";"1";"2";"1";"1";"2014-10-06 10:17:00.564";"2014-10-06 10:30:19.395";"1";"0";"1";"180";"179";"module.devaluation_block1.exec-2923.deval1";"5875";"2014-10-06 10:29:00.864";"4";"6";"8";"8";"850";"918";"1077";"2014-10-06 10:28:54.983";"1";;;;;;;;;;;;;;;;;;;;;;;;;;;;;;;;;;;;;;;;;;;;;;;;;;;;;;;;;;;;;;;;;;;;;;;;;;;;;;;;
"Ashby20";"1994";;"Windows 7";"Rachel's Experiment (D.T.)";"1.0";"2";"1";"1";"2";"1";"1";"2014-10-06 10:17:00.564";"2014-10-06 10:30:19.395";"1";"0";"1";"181";"180";"module.devaluation_block1.exec-2923.deval1";"7346";"2014-10-06 10:29:08.228";"10";"6";"7";"7";"2377";"610";"1323";"2014-10-06 10:29:00.880";"2";;;;;;;;;;;;;;;;;;;;;;;;;;;;;;;;;;;;;;;;;;;;;;;;;;;;;;;;;;;;;;;;;;;;;;;;;;;;;;;;
"Ashby20";"1994";;"Windows 7";"Rachel's Experiment (D.T.)";"1.0";"2";"1";"1";"2";"1";"1";"2014-10-06 10:17:00.564";"2014-10-06 10:30:19.395";"1";"0";"1";"182";"181";"module.devaluation_block1.exec-2923.deval1";"7603";"2014-10-06 10:29:15.856";"26";"9";"7";"7";"1742";"1401";"1440";"2014-10-06 10:29:08.243";"3";;;;;;;;;;;;;;;;;;;;;;;;;;;;;;;;;;;;;;;;;;;;;;;;;;;;;;;;;;;;;;;;;;;;;;;;;;;;;;;;
"Ashby20";"1994";;"Windows 7";"Rachel's Experiment (D.T.)";"1.0";"2";"1";"1";"2";"1";"1";"2014-10-06 10:17:00.564";"2014-10-06 10:30:19.395";"1";"0";"1";"183";"182";"module.devaluation_block1.exec-2923.deval1";"5808";"2014-10-06 10:29:21.675";"12";"6";"8";"8";"554";"884";"1349";"2014-10-06 10:29:15.872";"2";;;;;;;;;;;;;;;;;;;;;;;;;;;;;;;;;;;;;;;;;;;;;;;;;;;;;;;;;;;;;;;;;;;;;;;;;;;;;;;;
"Ashby20";"1994";;"Windows 7";"Rachel's Experiment (D.T.)";"1.0";"2";"1";"1";"2";"1";"1";"2014-10-06 10:17:00.564";"2014-10-06 10:30:19.395";"1";"0";"1";"184";"183";"module.devaluation_block1.exec-2923.deval1";"7413";"2014-10-06 10:29:29.116";"20";"3";"6";"7";"1607";"1039";"1733";"2014-10-06 10:29:21.706";"3";;;;;;;;;;;;;;;;;;;;;;;;;;;;;;;;;;;;;;;;;;;;;;;;;;;;;;;;;;;;;;;;;;;;;;;;;;;;;;;;
"Ashby20";"1994";;"Windows 7";"Rachel's Experiment (D.T.)";"1.0";"2";"1";"1";"2";"1";"1";"2014-10-06 10:17:00.564";"2014-10-06 10:30:19.395";"1";"0";"1";"185";"184";"module.devaluation_block1.exec-2923.deval1";"7316";"2014-10-06 10:29:36.464";"11";"2";"1";"1";"1414";"1293";"1575";"2014-10-06 10:29:29.147";"2";;;;;;;;;;;;;;;;;;;;;;;;;;;;;;;;;;;;;;;;;;;;;;;;;;;;;;;;;;;;;;;;;;;;;;;;;;;;;;;;
"Ashby20";"1994";;"Windows 7";"Rachel's Experiment (D.T.)";"1.0";"2";"1";"1";"2";"1";"1";"2014-10-06 10:17:00.564";"2014-10-06 10:30:19.395";"1";"0";"1";"186";"185";"module.devaluation_block1.exec-2923.deval1";"8003";"2014-10-06 10:29:44.498";"24";"4";"7";"8";"2242";"893";"1840";"2014-10-06 10:29:36.495";"3";;;;;;;;;;;;;;;;;;;;;;;;;;;;;;;;;;;;;;;;;;;;;;;;;;;;;;;;;;;;;;;;;;;;;;;;;;;;;;;;
"Ashby20";"1994";;"Windows 7";"Rachel's Experiment (D.T.)";"1.0";"2";"1";"1";"2";"1";"1";"2014-10-06 10:17:00.564";"2014-10-06 10:30:19.395";"1";"0";"1";"187";"186";"module.devaluation_block1.exec-2923.deval1";"6051";"2014-10-06 10:29:50.566";"16";"2";"1";"1";"1040";"943";"1043";"2014-10-06 10:29:44.513";"2";;;;;;;;;;;;;;;;;;;;;;;;;;;;;;;;;;;;;;;;;;;;;;;;;;;;;;;;;;;;;;;;;;;;;;;;;;;;;;;;
"Ashby20";"1994";;"Windows 7";"Rachel's Experiment (D.T.)";"1.0";"2";"1";"1";"2";"1";"1";"2014-10-06 10:17:00.564";"2014-10-06 10:30:19.395";"1";"0";"1";"188";"187";"module.devaluation_block1.exec-2923.deval1";"7852";"2014-10-06 10:29:58.444";"18";"4";"7";"8";"2003";"1530";"1300";"2014-10-06 10:29:50.582";"3";;;;;;;;;;;;;;;;;;;;;;;;;;;;;;;;;;;;;;;;;;;;;;;;;;;;;;;;;;;;;;;;;;;;;;;;;;;;;;;;
"Ashby20";"1994";;"Windows 7";"Rachel's Experiment (D.T.)";"1.0";"2";"1";"1";"2";"1";"1";"2014-10-06 10:17:00.564";"2014-10-06 10:30:19.395";"1";"0";"1";"189";"188";"module.devaluation_block1.exec-2923.deval1";"10750";"2014-10-06 10:30:09.224";"14";"7";"7";"7";"4701";"1316";"1707";"2014-10-06 10:29:58.475";"2";;;;;;;;;;;;;;;;;;;;;;;;;;;;;;;;;;;;;;;;;;;;;;;;;;;;;;;;;;;;;;;;;;;;;;;;;;;;;;;;
"Ashby20";"1994";;"Windows 7";"Rachel's Experiment (D.T.)";"1.0";"2";"1";"1";"2";"1";"1";"2014-10-06 10:17:00.564";"2014-10-06 10:30:19.395";"1";"0";"1";"190";"189";"module.devaluation_block1.exec-2923.deval1";"7587";"2014-10-06 10:30:16.837";"21";"3";"6";"7";"2009";"1093";"1458";"2014-10-06 10:30:09.239";"3";;;;;;;;;;;;;;;;;;;;;;;;;;;;;;;;;;;;;;;;;;;;;;;;;;;;;;;;;;;;;;;;;;;;;;;;;;;;;;;;
