"user.name";"user.yearOfBirth";"user.sex";"user.osName";"module.name";"module.version";"module.online.subject.code";"module.online.study.id";"module.online.module.nr";"module.online.group.nr";"session.id";"session.index";"session.startTime";"session.endTime";"session.completed";"session.node-1054.conditionType";"session.node-7748.DevalQorder";"trial.id";"trial.index";"trial.name";"trial.deval1.durationTime";"trial.deval1.endTime";"trial.deval1.icon";"trial.deval1.Resp_Attractive";"trial.deval1.Resp_Eat";"trial.deval1.Resp_Taste";"trial.deval1.RT_Attractive";"trial.deval1.RT_Eat";"trial.deval1.RT_Taste";"trial.deval1.startTime";"trial.deval1.stimulus type";"trial.devalPractice.durationTime";"trial.devalPractice.endTime";"trial.devalPractice.icon";"trial.devalPractice.Resp_Attractive";"trial.devalPractice.Resp_Eat";"trial.devalPractice.Resp_Taste";"trial.devalPractice.RT_Attractive";"trial.devalPractice.RT_Eat";"trial.devalPractice.RT_Taste";"trial.devalPractice.startTime";"trial.devalPractice.stimulus type";"trial.GoNoGo1.durationTime";"trial.GoNoGo1.endTime";"trial.GoNoGo1.Error Type";"trial.GoNoGo1.icon";"trial.GoNoGo1.location";"trial.GoNoGo1.outcome";"trial.GoNoGo1.response";"trial.GoNoGo1.result";"trial.GoNoGo1.RT";"trial.GoNoGo1.signal";"trial.GoNoGo1.startTime";"trial.GoNoGo1.stimulus type";"trial.GoNoGo2.durationTime";"trial.GoNoGo2.endTime";"trial.GoNoGo2.Error Type";"trial.GoNoGo2.icon";"trial.GoNoGo2.location";"trial.GoNoGo2.outcome";"trial.GoNoGo2.response";"trial.GoNoGo2.result";"trial.GoNoGo2.RT";"trial.GoNoGo2.signal";"trial.GoNoGo2.startTime";"trial.GoNoGo2.stimulus type";"trial.GoNoGo3.durationTime";"trial.GoNoGo3.endTime";"trial.GoNoGo3.Error Type";"trial.GoNoGo3.icon";"trial.GoNoGo3.location";"trial.GoNoGo3.outcome";"trial.GoNoGo3.response";"trial.GoNoGo3.result";"trial.GoNoGo3.RT";"trial.GoNoGo3.signal";"trial.GoNoGo3.startTime";"trial.GoNoGo3.stimulus type";"trial.GoNoGo4.durationTime";"trial.GoNoGo4.endTime";"trial.GoNoGo4.Error Type";"trial.GoNoGo4.icon";"trial.GoNoGo4.location";"trial.GoNoGo4.outcome";"trial.GoNoGo4.response";"trial.GoNoGo4.result";"trial.GoNoGo4.RT";"trial.GoNoGo4.signal";"trial.GoNoGo4.startTime";"trial.GoNoGo4.stimulus type";"trial.GoNoGo_Practice.durationTime";"trial.GoNoGo_Practice.endTime";"trial.GoNoGo_Practice.icon";"trial.GoNoGo_Practice.location";"trial.GoNoGo_Practice.outcome";"trial.GoNoGo_Practice.response";"trial.GoNoGo_Practice.result";"trial.GoNoGo_Practice.RT";"trial.GoNoGo_Practice.signal";"trial.GoNoGo_Practice.startTime";"trial.GoNoGo_Practice.stimulus type";"trial.GoNoGo_Tutorial.durationTime";"trial.GoNoGo_Tutorial.endTime";"trial.GoNoGo_Tutorial.icon";"trial.GoNoGo_Tutorial.location";"trial.GoNoGo_Tutorial.outcome";"trial.GoNoGo_Tutorial.response";"trial.GoNoGo_Tutorial.result";"trial.GoNoGo_Tutorial.RT";"trial.GoNoGo_Tutorial.signal";"trial.GoNoGo_Tutorial.startTime"
"RA_test";;;"Windows 7";"Rachel's Experiment (D.T.)";"1.0";"2";"1";"1";"2";"1";"1";"2014-07-15 20:32:03.664";"2014-07-15 20:45:27.560";"1";"0";"0";"1";"0";"module.GoNoGotutorial.exec-8645.GoNoGo_Tutorial";;;;;;;;;;;;;;;;;;;;;;;;;;;;;;;;;;;;;;;;;;;;;;;;;;;;;;;;;;;;;;;;;;;;;;;;;;;;;;;;;;"4002";"2014-07-15 20:32:11.880";"leftResponse";"0";"FINISHED";"NONE";"failure";"0";"0";"2014-07-15 20:32:07.868"
"RA_test";;;"Windows 7";"Rachel's Experiment (D.T.)";"1.0";"2";"1";"1";"2";"1";"1";"2014-07-15 20:32:03.664";"2014-07-15 20:45:27.560";"1";"0";"0";"2";"1";"module.GoNoGotutorial.exec-8645.GoNoGo_Tutorial";;;;;;;;;;;;;;;;;;;;;;;;;;;;;;;;;;;;;;;;;;;;;;;;;;;;;;;;;;;;;;;;;;;;;;;;;;;;;;;;;;"4006";"2014-07-15 20:32:17.201";"rightResponse";"1";"FINISHED";"NONE";"failure";"0";"0";"2014-07-15 20:32:13.186"
"RA_test";;;"Windows 7";"Rachel's Experiment (D.T.)";"1.0";"2";"1";"1";"2";"1";"1";"2014-07-15 20:32:03.664";"2014-07-15 20:45:27.560";"1";"0";"0";"3";"2";"module.GoNoGotutorial.exec-8645.GoNoGo_Tutorial";;;;;;;;;;;;;;;;;;;;;;;;;;;;;;;;;;;;;;;;;;;;;;;;;;;;;;;;;;;;;;;;;;;;;;;;;;;;;;;;;;"3994";"2014-07-15 20:32:22.530";"quickResponse";"0";"FINISHED";"NONE";"failure";"0";"0";"2014-07-15 20:32:18.526"
"RA_test";;;"Windows 7";"Rachel's Experiment (D.T.)";"1.0";"2";"1";"1";"2";"1";"1";"2014-07-15 20:32:03.664";"2014-07-15 20:45:27.560";"1";"0";"0";"4";"3";"module.GoNoGopractice.exec-1715.GoNoGo_Practice";;;;;;;;;;;;;;;;;;;;;;;;;;;;;;;;;;;;;;;;;;;;;;;;;;;;;;;;;;;;;;;;;;;;;;;"1955";"2014-07-15 20:32:28.246";"18";"0";"FINISHED";"NONE";"failure";"0";"0";"2014-07-15 20:32:26.282";"3";;;;;;;;;;
"RA_test";;;"Windows 7";"Rachel's Experiment (D.T.)";"1.0";"2";"1";"1";"2";"1";"1";"2014-07-15 20:32:03.664";"2014-07-15 20:45:27.560";"1";"0";"0";"5";"4";"module.GoNoGopractice.exec-1715.GoNoGo_Practice";;;;;;;;;;;;;;;;;;;;;;;;;;;;;;;;;;;;;;;;;;;;;;;;;;;;;;;;;;;;;;;;;;;;;;;"1955";"2014-07-15 20:32:31.780";"21";"1";"FINISHED";"NONE";"failure";"0";"0";"2014-07-15 20:32:29.818";"3";;;;;;;;;;
"RA_test";;;"Windows 7";"Rachel's Experiment (D.T.)";"1.0";"2";"1";"1";"2";"1";"1";"2014-07-15 20:32:03.664";"2014-07-15 20:45:27.560";"1";"0";"0";"6";"5";"module.GoNoGopractice.exec-1715.GoNoGo_Practice";;;;;;;;;;;;;;;;;;;;;;;;;;;;;;;;;;;;;;;;;;;;;;;;;;;;;;;;;;;;;;;;;;;;;;;"1956";"2014-07-15 20:32:35.054";"14";"1";"FINISHED";"NONE";"failure";"0";"0";"2014-07-15 20:32:33.090";"2";;;;;;;;;;
"RA_test";;;"Windows 7";"Rachel's Experiment (D.T.)";"1.0";"2";"1";"1";"2";"1";"1";"2014-07-15 20:32:03.664";"2014-07-15 20:45:27.560";"1";"0";"0";"7";"6";"module.GoNoGopractice.exec-1715.GoNoGo_Practice";;;;;;;;;;;;;;;;;;;;;;;;;;;;;;;;;;;;;;;;;;;;;;;;;;;;;;;;;;;;;;;;;;;;;;;"1949";"2014-07-15 20:32:38.318";"26";"0";"FINISHED";"NONE";"failure";"0";"0";"2014-07-15 20:32:36.364";"3";;;;;;;;;;
"RA_test";;;"Windows 7";"Rachel's Experiment (D.T.)";"1.0";"2";"1";"1";"2";"1";"1";"2014-07-15 20:32:03.664";"2014-07-15 20:45:27.560";"1";"0";"0";"8";"7";"module.GoNoGopractice.exec-1715.GoNoGo_Practice";;;;;;;;;;;;;;;;;;;;;;;;;;;;;;;;;;;;;;;;;;;;;;;;;;;;;;;;;;;;;;;;;;;;;;;"1965";"2014-07-15 20:32:41.589";"2";"0";"FINISHED";"NONE";"failure";"0";"0";"2014-07-15 20:32:39.615";"1";;;;;;;;;;
"RA_test";;;"Windows 7";"Rachel's Experiment (D.T.)";"1.0";"2";"1";"1";"2";"1";"1";"2014-07-15 20:32:03.664";"2014-07-15 20:45:27.560";"1";"0";"0";"9";"8";"module.GoNoGopractice.exec-1715.GoNoGo_Practice";;;;;;;;;;;;;;;;;;;;;;;;;;;;;;;;;;;;;;;;;;;;;;;;;;;;;;;;;;;;;;;;;;;;;;;"1956";"2014-07-15 20:32:44.842";"30";"0";"FINISHED";"NONE";"failure";"0";"0";"2014-07-15 20:32:42.878";"3";;;;;;;;;;
"RA_test";;;"Windows 7";"Rachel's Experiment (D.T.)";"1.0";"2";"1";"1";"2";"1";"1";"2014-07-15 20:32:03.664";"2014-07-15 20:45:27.560";"1";"0";"0";"10";"9";"module.GoNoGopractice.exec-1715.GoNoGo_Practice";;;;;;;;;;;;;;;;;;;;;;;;;;;;;;;;;;;;;;;;;;;;;;;;;;;;;;;;;;;;;;;;;;;;;;;"1950";"2014-07-15 20:32:48.095";"6";"1";"FINISHED";"NONE";"failure";"0";"0";"2014-07-15 20:32:46.136";"1";;;;;;;;;;
"RA_test";;;"Windows 7";"Rachel's Experiment (D.T.)";"1.0";"2";"1";"1";"2";"1";"1";"2014-07-15 20:32:03.664";"2014-07-15 20:45:27.560";"1";"0";"0";"11";"10";"module.GoNoGopractice.exec-1715.GoNoGo_Practice";;;;;;;;;;;;;;;;;;;;;;;;;;;;;;;;;;;;;;;;;;;;;;;;;;;;;;;;;;;;;;;;;;;;;;;"1966";"2014-07-15 20:32:51.356";"34";"0";"FINISHED";"NONE";"failure";"0";"0";"2014-07-15 20:32:49.381";"3";;;;;;;;;;
"RA_test";;;"Windows 7";"Rachel's Experiment (D.T.)";"1.0";"2";"1";"1";"2";"1";"1";"2014-07-15 20:32:03.664";"2014-07-15 20:45:27.560";"1";"0";"0";"12";"11";"module.GoNoGopractice.exec-1715.GoNoGo_Practice";;;;;;;;;;;;;;;;;;;;;;;;;;;;;;;;;;;;;;;;;;;;;;;;;;;;;;;;;;;;;;;;;;;;;;;"1953";"2014-07-15 20:32:54.604";"23";"1";"FINISHED";"NONE";"failure";"0";"0";"2014-07-15 20:32:52.642";"3";;;;;;;;;;
"RA_test";;;"Windows 7";"Rachel's Experiment (D.T.)";"1.0";"2";"1";"1";"2";"1";"1";"2014-07-15 20:32:03.664";"2014-07-15 20:45:27.560";"1";"0";"0";"13";"12";"module.GoNoGopractice.exec-1715.GoNoGo_Practice";;;;;;;;;;;;;;;;;;;;;;;;;;;;;;;;;;;;;;;;;;;;;;;;;;;;;;;;;;;;;;;;;;;;;;;"1948";"2014-07-15 20:32:57.845";"13";"0";"FINISHED";"NONE";"failure";"0";"0";"2014-07-15 20:32:55.888";"2";;;;;;;;;;
"RA_test";;;"Windows 7";"Rachel's Experiment (D.T.)";"1.0";"2";"1";"1";"2";"1";"1";"2014-07-15 20:32:03.664";"2014-07-15 20:45:27.560";"1";"0";"0";"14";"13";"module.GoNoGopractice.exec-1715.GoNoGo_Practice";;;;;;;;;;;;;;;;;;;;;;;;;;;;;;;;;;;;;;;;;;;;;;;;;;;;;;;;;;;;;;;;;;;;;;;"1951";"2014-07-15 20:33:01.111";"3";"1";"FINISHED";"NONE";"failure";"0";"0";"2014-07-15 20:32:59.152";"1";;;;;;;;;;
"RA_test";;;"Windows 7";"Rachel's Experiment (D.T.)";"1.0";"2";"1";"1";"2";"1";"1";"2014-07-15 20:32:03.664";"2014-07-15 20:45:27.560";"1";"0";"0";"15";"14";"module.GoNoGopractice.exec-1715.GoNoGo_Practice";;;;;;;;;;;;;;;;;;;;;;;;;;;;;;;;;;;;;;;;;;;;;;;;;;;;;;;;;;;;;;;;;;;;;;;"1961";"2014-07-15 20:33:04.369";"27";"1";"FINISHED";"NONE";"failure";"0";"0";"2014-07-15 20:33:02.399";"3";;;;;;;;;;
"RA_test";;;"Windows 7";"Rachel's Experiment (D.T.)";"1.0";"2";"1";"1";"2";"1";"1";"2014-07-15 20:32:03.664";"2014-07-15 20:45:27.560";"1";"0";"0";"16";"15";"module.training_block1.exec-1508.GoNoGo1";;;;;;;;;;;;;;;;;;;;;;;"1241";"2014-07-15 20:33:21.970";"NST_miss";"17";"0";"FINISHED";"NONE";"failure";"0";"0";"2014-07-15 20:33:20.718";"2";;;;;;;;;;;;;;;;;;;;;;;;;;;;;;;;;;;;;;;;;;;;;;;;;;;;;;;;;
"RA_test";;;"Windows 7";"Rachel's Experiment (D.T.)";"1.0";"2";"1";"1";"2";"1";"1";"2014-07-15 20:32:03.664";"2014-07-15 20:45:27.560";"1";"0";"0";"17";"16";"module.training_block1.exec-1508.GoNoGo1";;;;;;;;;;;;;;;;;;;;;;;"1255";"2014-07-15 20:33:24.517";"NST_miss";"25";"1";"FINISHED";"NONE";"failure";"0";"0";"2014-07-15 20:33:23.254";"3";;;;;;;;;;;;;;;;;;;;;;;;;;;;;;;;;;;;;;;;;;;;;;;;;;;;;;;;;
"RA_test";;;"Windows 7";"Rachel's Experiment (D.T.)";"1.0";"2";"1";"1";"2";"1";"1";"2014-07-15 20:32:03.664";"2014-07-15 20:45:27.560";"1";"0";"0";"18";"17";"module.training_block1.exec-1508.GoNoGo1";;;;;;;;;;;;;;;;;;;;;;;"1254";"2014-07-15 20:33:27.066";"NST_miss";"33";"1";"FINISHED";"NONE";"failure";"0";"0";"2014-07-15 20:33:25.804";"3";;;;;;;;;;;;;;;;;;;;;;;;;;;;;;;;;;;;;;;;;;;;;;;;;;;;;;;;;
"RA_test";;;"Windows 7";"Rachel's Experiment (D.T.)";"1.0";"2";"1";"1";"2";"1";"1";"2014-07-15 20:32:03.664";"2014-07-15 20:45:27.560";"1";"0";"0";"19";"18";"module.training_block1.exec-1508.GoNoGo1";;;;;;;;;;;;;;;;;;;;;;;"1255";"2014-07-15 20:33:29.610";"NST_miss";"30";"0";"FINISHED";"NONE";"failure";"0";"0";"2014-07-15 20:33:28.352";"3";;;;;;;;;;;;;;;;;;;;;;;;;;;;;;;;;;;;;;;;;;;;;;;;;;;;;;;;;
"RA_test";;;"Windows 7";"Rachel's Experiment (D.T.)";"1.0";"2";"1";"1";"2";"1";"1";"2014-07-15 20:32:03.664";"2014-07-15 20:45:27.560";"1";"0";"0";"20";"19";"module.training_block1.exec-1508.GoNoGo1";;;;;;;;;;;;;;;;;;;;;;;"1244";"2014-07-15 20:33:32.146";"NST_miss";"5";"1";"FINISHED";"NONE";"failure";"0";"0";"2014-07-15 20:33:30.894";"1";;;;;;;;;;;;;;;;;;;;;;;;;;;;;;;;;;;;;;;;;;;;;;;;;;;;;;;;;
"RA_test";;;"Windows 7";"Rachel's Experiment (D.T.)";"1.0";"2";"1";"1";"2";"1";"1";"2014-07-15 20:32:03.664";"2014-07-15 20:45:27.560";"1";"0";"0";"21";"20";"module.training_block1.exec-1508.GoNoGo1";;;;;;;;;;;;;;;;;;;;;;;"1251";"2014-07-15 20:33:34.693";"NST_miss";"9";"0";"FINISHED";"NONE";"failure";"0";"0";"2014-07-15 20:33:33.430";"2";;;;;;;;;;;;;;;;;;;;;;;;;;;;;;;;;;;;;;;;;;;;;;;;;;;;;;;;;
"RA_test";;;"Windows 7";"Rachel's Experiment (D.T.)";"1.0";"2";"1";"1";"2";"1";"1";"2014-07-15 20:32:03.664";"2014-07-15 20:45:27.560";"1";"0";"0";"22";"21";"module.training_block1.exec-1508.GoNoGo1";;;;;;;;;;;;;;;;;;;;;;;"1254";"2014-07-15 20:33:37.245";"NST_miss";"23";"1";"FINISHED";"NONE";"failure";"0";"0";"2014-07-15 20:33:35.987";"3";;;;;;;;;;;;;;;;;;;;;;;;;;;;;;;;;;;;;;;;;;;;;;;;;;;;;;;;;
"RA_test";;;"Windows 7";"Rachel's Experiment (D.T.)";"1.0";"2";"1";"1";"2";"1";"1";"2014-07-15 20:32:03.664";"2014-07-15 20:45:27.560";"1";"0";"0";"23";"22";"module.training_block1.exec-1508.GoNoGo1";;;;;;;;;;;;;;;;;;;;;;;"1260";"2014-07-15 20:33:39.796";"NST_miss";"27";"1";"FINISHED";"NONE";"failure";"0";"0";"2014-07-15 20:33:38.533";"3";;;;;;;;;;;;;;;;;;;;;;;;;;;;;;;;;;;;;;;;;;;;;;;;;;;;;;;;;
"RA_test";;;"Windows 7";"Rachel's Experiment (D.T.)";"1.0";"2";"1";"1";"2";"1";"1";"2014-07-15 20:32:03.664";"2014-07-15 20:45:27.560";"1";"0";"0";"24";"23";"module.training_block1.exec-1508.GoNoGo1";;;;;;;;;;;;;;;;;;;;;;;"1244";"2014-07-15 20:33:42.335";"NST_miss";"24";"0";"FINISHED";"NONE";"failure";"0";"0";"2014-07-15 20:33:41.083";"3";;;;;;;;;;;;;;;;;;;;;;;;;;;;;;;;;;;;;;;;;;;;;;;;;;;;;;;;;
"RA_test";;;"Windows 7";"Rachel's Experiment (D.T.)";"1.0";"2";"1";"1";"2";"1";"1";"2014-07-15 20:32:03.664";"2014-07-15 20:45:27.560";"1";"0";"0";"25";"24";"module.training_block1.exec-1508.GoNoGo1";;;;;;;;;;;;;;;;;;;;;;;"1255";"2014-07-15 20:33:44.884";"NST_miss";"1";"0";"FINISHED";"NONE";"failure";"0";"0";"2014-07-15 20:33:43.621";"1";;;;;;;;;;;;;;;;;;;;;;;;;;;;;;;;;;;;;;;;;;;;;;;;;;;;;;;;;
"RA_test";;;"Windows 7";"Rachel's Experiment (D.T.)";"1.0";"2";"1";"1";"2";"1";"1";"2014-07-15 20:32:03.664";"2014-07-15 20:45:27.560";"1";"0";"0";"26";"25";"module.training_block1.exec-1508.GoNoGo1";;;;;;;;;;;;;;;;;;;;;;;"1259";"2014-07-15 20:33:47.430";"NST_miss";"34";"0";"FINISHED";"NONE";"failure";"0";"0";"2014-07-15 20:33:46.168";"3";;;;;;;;;;;;;;;;;;;;;;;;;;;;;;;;;;;;;;;;;;;;;;;;;;;;;;;;;
"RA_test";;;"Windows 7";"Rachel's Experiment (D.T.)";"1.0";"2";"1";"1";"2";"1";"1";"2014-07-15 20:32:03.664";"2014-07-15 20:45:27.560";"1";"0";"0";"27";"26";"module.training_block1.exec-1508.GoNoGo1";;;;;;;;;;;;;;;;;;;;;;;"1254";"2014-07-15 20:33:49.977";"NST_miss";"0";"0";"FINISHED";"NONE";"failure";"0";"0";"2014-07-15 20:33:48.714";"1";;;;;;;;;;;;;;;;;;;;;;;;;;;;;;;;;;;;;;;;;;;;;;;;;;;;;;;;;
"RA_test";;;"Windows 7";"Rachel's Experiment (D.T.)";"1.0";"2";"1";"1";"2";"1";"1";"2014-07-15 20:32:03.664";"2014-07-15 20:45:27.560";"1";"0";"0";"28";"27";"module.training_block1.exec-1508.GoNoGo1";;;;;;;;;;;;;;;;;;;;;;;"1248";"2014-07-15 20:33:52.521";"NST_miss";"29";"0";"FINISHED";"NONE";"failure";"0";"0";"2014-07-15 20:33:51.264";"3";;;;;;;;;;;;;;;;;;;;;;;;;;;;;;;;;;;;;;;;;;;;;;;;;;;;;;;;;
"RA_test";;;"Windows 7";"Rachel's Experiment (D.T.)";"1.0";"2";"1";"1";"2";"1";"1";"2014-07-15 20:32:03.664";"2014-07-15 20:45:27.560";"1";"0";"0";"29";"28";"module.training_block1.exec-1508.GoNoGo1";;;;;;;;;;;;;;;;;;;;;;;"1255";"2014-07-15 20:33:55.068";"NST_miss";"35";"0";"FINISHED";"NONE";"failure";"0";"0";"2014-07-15 20:33:53.805";"3";;;;;;;;;;;;;;;;;;;;;;;;;;;;;;;;;;;;;;;;;;;;;;;;;;;;;;;;;
"RA_test";;;"Windows 7";"Rachel's Experiment (D.T.)";"1.0";"2";"1";"1";"2";"1";"1";"2014-07-15 20:32:03.664";"2014-07-15 20:45:27.560";"1";"0";"0";"30";"29";"module.training_block1.exec-1508.GoNoGo1";;;;;;;;;;;;;;;;;;;;;;;"1257";"2014-07-15 20:33:57.627";"NST_miss";"15";"0";"FINISHED";"NONE";"failure";"0";"0";"2014-07-15 20:33:56.367";"2";;;;;;;;;;;;;;;;;;;;;;;;;;;;;;;;;;;;;;;;;;;;;;;;;;;;;;;;;
"RA_test";;;"Windows 7";"Rachel's Experiment (D.T.)";"1.0";"2";"1";"1";"2";"1";"1";"2014-07-15 20:32:03.664";"2014-07-15 20:45:27.560";"1";"0";"0";"31";"30";"module.training_block1.exec-1508.GoNoGo1";;;;;;;;;;;;;;;;;;;;;;;"1249";"2014-07-15 20:34:00.168";"NST_miss";"6";"1";"FINISHED";"NONE";"failure";"0";"0";"2014-07-15 20:33:58.916";"1";;;;;;;;;;;;;;;;;;;;;;;;;;;;;;;;;;;;;;;;;;;;;;;;;;;;;;;;;
"RA_test";;;"Windows 7";"Rachel's Experiment (D.T.)";"1.0";"2";"1";"1";"2";"1";"1";"2014-07-15 20:32:03.664";"2014-07-15 20:45:27.560";"1";"0";"0";"32";"31";"module.training_block1.exec-1508.GoNoGo1";;;;;;;;;;;;;;;;;;;;;;;"1250";"2014-07-15 20:34:02.715";"NST_miss";"12";"0";"FINISHED";"NONE";"failure";"0";"0";"2014-07-15 20:34:01.457";"2";;;;;;;;;;;;;;;;;;;;;;;;;;;;;;;;;;;;;;;;;;;;;;;;;;;;;;;;;
"RA_test";;;"Windows 7";"Rachel's Experiment (D.T.)";"1.0";"2";"1";"1";"2";"1";"1";"2014-07-15 20:32:03.664";"2014-07-15 20:45:27.560";"1";"0";"0";"33";"32";"module.training_block1.exec-1508.GoNoGo1";;;;;;;;;;;;;;;;;;;;;;;"1255";"2014-07-15 20:34:05.262";"NST_miss";"8";"1";"FINISHED";"NONE";"failure";"0";"0";"2014-07-15 20:34:03.999";"1";;;;;;;;;;;;;;;;;;;;;;;;;;;;;;;;;;;;;;;;;;;;;;;;;;;;;;;;;
"RA_test";;;"Windows 7";"Rachel's Experiment (D.T.)";"1.0";"2";"1";"1";"2";"1";"1";"2014-07-15 20:32:03.664";"2014-07-15 20:45:27.560";"1";"0";"0";"34";"33";"module.training_block1.exec-1508.GoNoGo1";;;;;;;;;;;;;;;;;;;;;;;"1260";"2014-07-15 20:34:07.811";"NST_miss";"18";"0";"FINISHED";"NONE";"failure";"0";"0";"2014-07-15 20:34:06.548";"3";;;;;;;;;;;;;;;;;;;;;;;;;;;;;;;;;;;;;;;;;;;;;;;;;;;;;;;;;
"RA_test";;;"Windows 7";"Rachel's Experiment (D.T.)";"1.0";"2";"1";"1";"2";"1";"1";"2014-07-15 20:32:03.664";"2014-07-15 20:45:27.560";"1";"0";"0";"35";"34";"module.training_block1.exec-1508.GoNoGo1";;;;;;;;;;;;;;;;;;;;;;;"1248";"2014-07-15 20:34:10.367";"NST_miss";"22";"0";"FINISHED";"NONE";"failure";"0";"0";"2014-07-15 20:34:09.104";"3";;;;;;;;;;;;;;;;;;;;;;;;;;;;;;;;;;;;;;;;;;;;;;;;;;;;;;;;;
"RA_test";;;"Windows 7";"Rachel's Experiment (D.T.)";"1.0";"2";"1";"1";"2";"1";"1";"2014-07-15 20:32:03.664";"2014-07-15 20:45:27.560";"1";"0";"0";"36";"35";"module.training_block1.exec-1508.GoNoGo1";;;;;;;;;;;;;;;;;;;;;;;"1249";"2014-07-15 20:34:12.914";"NST_miss";"3";"0";"FINISHED";"NONE";"failure";"0";"0";"2014-07-15 20:34:11.661";"1";;;;;;;;;;;;;;;;;;;;;;;;;;;;;;;;;;;;;;;;;;;;;;;;;;;;;;;;;
"RA_test";;;"Windows 7";"Rachel's Experiment (D.T.)";"1.0";"2";"1";"1";"2";"1";"1";"2014-07-15 20:32:03.664";"2014-07-15 20:45:27.560";"1";"0";"0";"37";"36";"module.training_block1.exec-1508.GoNoGo1";;;;;;;;;;;;;;;;;;;;;;;"1251";"2014-07-15 20:34:15.465";"NST_miss";"7";"0";"FINISHED";"NONE";"failure";"0";"0";"2014-07-15 20:34:14.205";"1";;;;;;;;;;;;;;;;;;;;;;;;;;;;;;;;;;;;;;;;;;;;;;;;;;;;;;;;;
"RA_test";;;"Windows 7";"Rachel's Experiment (D.T.)";"1.0";"2";"1";"1";"2";"1";"1";"2014-07-15 20:32:03.664";"2014-07-15 20:45:27.560";"1";"0";"0";"38";"37";"module.training_block1.exec-1508.GoNoGo1";;;;;;;;;;;;;;;;;;;;;;;"1244";"2014-07-15 20:34:18.003";"NST_miss";"4";"0";"FINISHED";"NONE";"failure";"0";"0";"2014-07-15 20:34:16.751";"1";;;;;;;;;;;;;;;;;;;;;;;;;;;;;;;;;;;;;;;;;;;;;;;;;;;;;;;;;
"RA_test";;;"Windows 7";"Rachel's Experiment (D.T.)";"1.0";"2";"1";"1";"2";"1";"1";"2014-07-15 20:32:03.664";"2014-07-15 20:45:27.560";"1";"0";"0";"39";"38";"module.training_block1.exec-1508.GoNoGo1";;;;;;;;;;;;;;;;;;;;;;;"1255";"2014-07-15 20:34:20.561";"NST_miss";"28";"1";"FINISHED";"NONE";"failure";"0";"0";"2014-07-15 20:34:19.298";"3";;;;;;;;;;;;;;;;;;;;;;;;;;;;;;;;;;;;;;;;;;;;;;;;;;;;;;;;;
"RA_test";;;"Windows 7";"Rachel's Experiment (D.T.)";"1.0";"2";"1";"1";"2";"1";"1";"2014-07-15 20:32:03.664";"2014-07-15 20:45:27.560";"1";"0";"0";"40";"39";"module.training_block1.exec-1508.GoNoGo1";;;;;;;;;;;;;;;;;;;;;;;"1253";"2014-07-15 20:34:23.112";"NST_miss";"10";"0";"FINISHED";"NONE";"failure";"0";"0";"2014-07-15 20:34:21.849";"2";;;;;;;;;;;;;;;;;;;;;;;;;;;;;;;;;;;;;;;;;;;;;;;;;;;;;;;;;
"RA_test";;;"Windows 7";"Rachel's Experiment (D.T.)";"1.0";"2";"1";"1";"2";"1";"1";"2014-07-15 20:32:03.664";"2014-07-15 20:45:27.560";"1";"0";"0";"41";"40";"module.training_block1.exec-1508.GoNoGo1";;;;;;;;;;;;;;;;;;;;;;;"1249";"2014-07-15 20:34:25.658";"NST_miss";"14";"0";"FINISHED";"NONE";"failure";"0";"0";"2014-07-15 20:34:24.406";"2";;;;;;;;;;;;;;;;;;;;;;;;;;;;;;;;;;;;;;;;;;;;;;;;;;;;;;;;;
"RA_test";;;"Windows 7";"Rachel's Experiment (D.T.)";"1.0";"2";"1";"1";"2";"1";"1";"2014-07-15 20:32:03.664";"2014-07-15 20:45:27.560";"1";"0";"0";"42";"41";"module.training_block1.exec-1508.GoNoGo1";;;;;;;;;;;;;;;;;;;;;;;"1244";"2014-07-15 20:34:28.204";"NST_miss";"19";"1";"FINISHED";"NONE";"failure";"0";"0";"2014-07-15 20:34:26.952";"3";;;;;;;;;;;;;;;;;;;;;;;;;;;;;;;;;;;;;;;;;;;;;;;;;;;;;;;;;
"RA_test";;;"Windows 7";"Rachel's Experiment (D.T.)";"1.0";"2";"1";"1";"2";"1";"1";"2014-07-15 20:32:03.664";"2014-07-15 20:45:27.560";"1";"0";"0";"43";"42";"module.training_block1.exec-1508.GoNoGo1";;;;;;;;;;;;;;;;;;;;;;;"1250";"2014-07-15 20:34:30.756";"NST_miss";"20";"0";"FINISHED";"NONE";"failure";"0";"0";"2014-07-15 20:34:29.498";"3";;;;;;;;;;;;;;;;;;;;;;;;;;;;;;;;;;;;;;;;;;;;;;;;;;;;;;;;;
"RA_test";;;"Windows 7";"Rachel's Experiment (D.T.)";"1.0";"2";"1";"1";"2";"1";"1";"2014-07-15 20:32:03.664";"2014-07-15 20:45:27.560";"1";"0";"0";"44";"43";"module.training_block1.exec-1508.GoNoGo1";;;;;;;;;;;;;;;;;;;;;;;"1254";"2014-07-15 20:34:33.302";"NST_miss";"31";"0";"FINISHED";"NONE";"failure";"0";"0";"2014-07-15 20:34:32.040";"3";;;;;;;;;;;;;;;;;;;;;;;;;;;;;;;;;;;;;;;;;;;;;;;;;;;;;;;;;
"RA_test";;;"Windows 7";"Rachel's Experiment (D.T.)";"1.0";"2";"1";"1";"2";"1";"1";"2014-07-15 20:32:03.664";"2014-07-15 20:45:27.560";"1";"0";"0";"45";"44";"module.training_block1.exec-1508.GoNoGo1";;;;;;;;;;;;;;;;;;;;;;;"1260";"2014-07-15 20:34:35.860";"NST_miss";"26";"1";"FINISHED";"NONE";"failure";"0";"0";"2014-07-15 20:34:34.597";"3";;;;;;;;;;;;;;;;;;;;;;;;;;;;;;;;;;;;;;;;;;;;;;;;;;;;;;;;;
"RA_test";;;"Windows 7";"Rachel's Experiment (D.T.)";"1.0";"2";"1";"1";"2";"1";"1";"2014-07-15 20:32:03.664";"2014-07-15 20:45:27.560";"1";"0";"0";"46";"45";"module.training_block1.exec-1508.GoNoGo1";;;;;;;;;;;;;;;;;;;;;;;"1244";"2014-07-15 20:34:38.426";"NST_miss";"32";"0";"FINISHED";"NONE";"failure";"0";"0";"2014-07-15 20:34:37.174";"3";;;;;;;;;;;;;;;;;;;;;;;;;;;;;;;;;;;;;;;;;;;;;;;;;;;;;;;;;
"RA_test";;;"Windows 7";"Rachel's Experiment (D.T.)";"1.0";"2";"1";"1";"2";"1";"1";"2014-07-15 20:32:03.664";"2014-07-15 20:45:27.560";"1";"0";"0";"47";"46";"module.training_block1.exec-1508.GoNoGo1";;;;;;;;;;;;;;;;;;;;;;;"1260";"2014-07-15 20:34:40.976";"NST_miss";"13";"1";"FINISHED";"NONE";"failure";"0";"0";"2014-07-15 20:34:39.713";"2";;;;;;;;;;;;;;;;;;;;;;;;;;;;;;;;;;;;;;;;;;;;;;;;;;;;;;;;;
"RA_test";;;"Windows 7";"Rachel's Experiment (D.T.)";"1.0";"2";"1";"1";"2";"1";"1";"2014-07-15 20:32:03.664";"2014-07-15 20:45:27.560";"1";"0";"0";"48";"47";"module.training_block1.exec-1508.GoNoGo1";;;;;;;;;;;;;;;;;;;;;;;"1257";"2014-07-15 20:34:43.528";"NST_miss";"16";"1";"FINISHED";"NONE";"failure";"0";"0";"2014-07-15 20:34:42.262";"2";;;;;;;;;;;;;;;;;;;;;;;;;;;;;;;;;;;;;;;;;;;;;;;;;;;;;;;;;
"RA_test";;;"Windows 7";"Rachel's Experiment (D.T.)";"1.0";"2";"1";"1";"2";"1";"1";"2014-07-15 20:32:03.664";"2014-07-15 20:45:27.560";"1";"0";"0";"49";"48";"module.training_block1.exec-1508.GoNoGo1";;;;;;;;;;;;;;;;;;;;;;;"1257";"2014-07-15 20:34:46.087";"NST_miss";"11";"1";"FINISHED";"NONE";"failure";"0";"0";"2014-07-15 20:34:44.822";"2";;;;;;;;;;;;;;;;;;;;;;;;;;;;;;;;;;;;;;;;;;;;;;;;;;;;;;;;;
"RA_test";;;"Windows 7";"Rachel's Experiment (D.T.)";"1.0";"2";"1";"1";"2";"1";"1";"2014-07-15 20:32:03.664";"2014-07-15 20:45:27.560";"1";"0";"0";"50";"49";"module.training_block1.exec-1508.GoNoGo1";;;;;;;;;;;;;;;;;;;;;;;"1254";"2014-07-15 20:34:48.639";"NST_miss";"2";"0";"FINISHED";"NONE";"failure";"0";"0";"2014-07-15 20:34:47.381";"1";;;;;;;;;;;;;;;;;;;;;;;;;;;;;;;;;;;;;;;;;;;;;;;;;;;;;;;;;
"RA_test";;;"Windows 7";"Rachel's Experiment (D.T.)";"1.0";"2";"1";"1";"2";"1";"1";"2014-07-15 20:32:03.664";"2014-07-15 20:45:27.560";"1";"0";"0";"51";"50";"module.training_block1.exec-1508.GoNoGo1";;;;;;;;;;;;;;;;;;;;;;;"1253";"2014-07-15 20:34:51.188";"NST_miss";"21";"0";"FINISHED";"NONE";"failure";"0";"0";"2014-07-15 20:34:49.931";"3";;;;;;;;;;;;;;;;;;;;;;;;;;;;;;;;;;;;;;;;;;;;;;;;;;;;;;;;;
"RA_test";;;"Windows 7";"Rachel's Experiment (D.T.)";"1.0";"2";"1";"1";"2";"1";"1";"2014-07-15 20:32:03.664";"2014-07-15 20:45:27.560";"1";"0";"0";"52";"51";"module.training_block2.exec-6994.GoNoGo2";;;;;;;;;;;;;;;;;;;;;;;;;;;;;;;;;;;"1260";"2014-07-15 20:35:01.270";"NST_miss";"14";"1";"FINISHED";"NONE";"failure";"0";"0";"2014-07-15 20:35:00.007";"2";;;;;;;;;;;;;;;;;;;;;;;;;;;;;;;;;;;;;;;;;;;;;
"RA_test";;;"Windows 7";"Rachel's Experiment (D.T.)";"1.0";"2";"1";"1";"2";"1";"1";"2014-07-15 20:32:03.664";"2014-07-15 20:45:27.560";"1";"0";"0";"53";"52";"module.training_block2.exec-6994.GoNoGo2";;;;;;;;;;;;;;;;;;;;;;;;;;;;;;;;;;;"1262";"2014-07-15 20:35:03.825";"NST_miss";"4";"1";"FINISHED";"NONE";"failure";"0";"0";"2014-07-15 20:35:02.559";"1";;;;;;;;;;;;;;;;;;;;;;;;;;;;;;;;;;;;;;;;;;;;;
"RA_test";;;"Windows 7";"Rachel's Experiment (D.T.)";"1.0";"2";"1";"1";"2";"1";"1";"2014-07-15 20:32:03.664";"2014-07-15 20:45:27.560";"1";"0";"0";"54";"53";"module.training_block2.exec-6994.GoNoGo2";;;;;;;;;;;;;;;;;;;;;;;;;;;;;;;;;;;"1262";"2014-07-15 20:35:06.385";"NST_miss";"34";"0";"FINISHED";"NONE";"failure";"0";"0";"2014-07-15 20:35:05.119";"3";;;;;;;;;;;;;;;;;;;;;;;;;;;;;;;;;;;;;;;;;;;;;
"RA_test";;;"Windows 7";"Rachel's Experiment (D.T.)";"1.0";"2";"1";"1";"2";"1";"1";"2014-07-15 20:32:03.664";"2014-07-15 20:45:27.560";"1";"0";"0";"55";"54";"module.training_block2.exec-6994.GoNoGo2";;;;;;;;;;;;;;;;;;;;;;;;;;;;;;;;;;;"1254";"2014-07-15 20:35:08.926";"NST_miss";"16";"1";"FINISHED";"NONE";"failure";"0";"0";"2014-07-15 20:35:07.668";"2";;;;;;;;;;;;;;;;;;;;;;;;;;;;;;;;;;;;;;;;;;;;;
"RA_test";;;"Windows 7";"Rachel's Experiment (D.T.)";"1.0";"2";"1";"1";"2";"1";"1";"2014-07-15 20:32:03.664";"2014-07-15 20:45:27.560";"1";"0";"0";"56";"55";"module.training_block2.exec-6994.GoNoGo2";;;;;;;;;;;;;;;;;;;;;;;;;;;;;;;;;;;"1254";"2014-07-15 20:35:11.468";"NST_miss";"18";"1";"FINISHED";"NONE";"failure";"0";"0";"2014-07-15 20:35:10.210";"3";;;;;;;;;;;;;;;;;;;;;;;;;;;;;;;;;;;;;;;;;;;;;
"RA_test";;;"Windows 7";"Rachel's Experiment (D.T.)";"1.0";"2";"1";"1";"2";"1";"1";"2014-07-15 20:32:03.664";"2014-07-15 20:45:27.560";"1";"0";"0";"57";"56";"module.training_block2.exec-6994.GoNoGo2";;;;;;;;;;;;;;;;;;;;;;;;;;;;;;;;;;;"1249";"2014-07-15 20:35:14.024";"NST_miss";"15";"0";"FINISHED";"NONE";"failure";"0";"0";"2014-07-15 20:35:12.772";"2";;;;;;;;;;;;;;;;;;;;;;;;;;;;;;;;;;;;;;;;;;;;;
"RA_test";;;"Windows 7";"Rachel's Experiment (D.T.)";"1.0";"2";"1";"1";"2";"1";"1";"2014-07-15 20:32:03.664";"2014-07-15 20:45:27.560";"1";"0";"0";"58";"57";"module.training_block2.exec-6994.GoNoGo2";;;;;;;;;;;;;;;;;;;;;;;;;;;;;;;;;;;"1257";"2014-07-15 20:35:16.568";"NST_miss";"5";"1";"FINISHED";"NONE";"failure";"0";"0";"2014-07-15 20:35:15.308";"1";;;;;;;;;;;;;;;;;;;;;;;;;;;;;;;;;;;;;;;;;;;;;
"RA_test";;;"Windows 7";"Rachel's Experiment (D.T.)";"1.0";"2";"1";"1";"2";"1";"1";"2014-07-15 20:32:03.664";"2014-07-15 20:45:27.560";"1";"0";"0";"59";"58";"module.training_block2.exec-6994.GoNoGo2";;;;;;;;;;;;;;;;;;;;;;;;;;;;;;;;;;;"1257";"2014-07-15 20:35:19.117";"NST_miss";"35";"0";"FINISHED";"NONE";"failure";"0";"0";"2014-07-15 20:35:17.857";"3";;;;;;;;;;;;;;;;;;;;;;;;;;;;;;;;;;;;;;;;;;;;;
"RA_test";;;"Windows 7";"Rachel's Experiment (D.T.)";"1.0";"2";"1";"1";"2";"1";"1";"2014-07-15 20:32:03.664";"2014-07-15 20:45:27.560";"1";"0";"0";"60";"59";"module.training_block2.exec-6994.GoNoGo2";;;;;;;;;;;;;;;;;;;;;;;;;;;;;;;;;;;"1253";"2014-07-15 20:35:21.667";"NST_miss";"31";"0";"FINISHED";"NONE";"failure";"0";"0";"2014-07-15 20:35:20.409";"3";;;;;;;;;;;;;;;;;;;;;;;;;;;;;;;;;;;;;;;;;;;;;
"RA_test";;;"Windows 7";"Rachel's Experiment (D.T.)";"1.0";"2";"1";"1";"2";"1";"1";"2014-07-15 20:32:03.664";"2014-07-15 20:45:27.560";"1";"0";"0";"61";"60";"module.training_block2.exec-6994.GoNoGo2";;;;;;;;;;;;;;;;;;;;;;;;;;;;;;;;;;;"1260";"2014-07-15 20:35:24.218";"NST_miss";"6";"1";"FINISHED";"NONE";"failure";"0";"0";"2014-07-15 20:35:22.955";"1";;;;;;;;;;;;;;;;;;;;;;;;;;;;;;;;;;;;;;;;;;;;;
"RA_test";;;"Windows 7";"Rachel's Experiment (D.T.)";"1.0";"2";"1";"1";"2";"1";"1";"2014-07-15 20:32:03.664";"2014-07-15 20:45:27.560";"1";"0";"0";"62";"61";"module.training_block2.exec-6994.GoNoGo2";;;;;;;;;;;;;;;;;;;;;;;;;;;;;;;;;;;"1254";"2014-07-15 20:35:26.770";"NST_miss";"2";"1";"FINISHED";"NONE";"failure";"0";"0";"2014-07-15 20:35:25.512";"1";;;;;;;;;;;;;;;;;;;;;;;;;;;;;;;;;;;;;;;;;;;;;
"RA_test";;;"Windows 7";"Rachel's Experiment (D.T.)";"1.0";"2";"1";"1";"2";"1";"1";"2014-07-15 20:32:03.664";"2014-07-15 20:45:27.560";"1";"0";"0";"63";"62";"module.training_block2.exec-6994.GoNoGo2";;;;;;;;;;;;;;;;;;;;;;;;;;;;;;;;;;;"1254";"2014-07-15 20:35:29.321";"NST_miss";"10";"1";"FINISHED";"NONE";"failure";"0";"0";"2014-07-15 20:35:28.063";"2";;;;;;;;;;;;;;;;;;;;;;;;;;;;;;;;;;;;;;;;;;;;;
"RA_test";;;"Windows 7";"Rachel's Experiment (D.T.)";"1.0";"2";"1";"1";"2";"1";"1";"2014-07-15 20:32:03.664";"2014-07-15 20:45:27.560";"1";"0";"0";"64";"63";"module.training_block2.exec-6994.GoNoGo2";;;;;;;;;;;;;;;;;;;;;;;;;;;;;;;;;;;"1259";"2014-07-15 20:35:31.867";"NST_miss";"26";"1";"FINISHED";"NONE";"failure";"0";"0";"2014-07-15 20:35:30.604";"3";;;;;;;;;;;;;;;;;;;;;;;;;;;;;;;;;;;;;;;;;;;;;
"RA_test";;;"Windows 7";"Rachel's Experiment (D.T.)";"1.0";"2";"1";"1";"2";"1";"1";"2014-07-15 20:32:03.664";"2014-07-15 20:45:27.560";"1";"0";"0";"65";"64";"module.training_block2.exec-6994.GoNoGo2";;;;;;;;;;;;;;;;;;;;;;;;;;;;;;;;;;;"1249";"2014-07-15 20:35:34.438";"NST_miss";"20";"1";"FINISHED";"NONE";"failure";"0";"0";"2014-07-15 20:35:33.186";"3";;;;;;;;;;;;;;;;;;;;;;;;;;;;;;;;;;;;;;;;;;;;;
"RA_test";;;"Windows 7";"Rachel's Experiment (D.T.)";"1.0";"2";"1";"1";"2";"1";"1";"2014-07-15 20:32:03.664";"2014-07-15 20:45:27.560";"1";"0";"0";"66";"65";"module.training_block2.exec-6994.GoNoGo2";;;;;;;;;;;;;;;;;;;;;;;;;;;;;;;;;;;"1249";"2014-07-15 20:35:36.974";"NST_miss";"12";"0";"FINISHED";"NONE";"failure";"0";"0";"2014-07-15 20:35:35.722";"2";;;;;;;;;;;;;;;;;;;;;;;;;;;;;;;;;;;;;;;;;;;;;
"RA_test";;;"Windows 7";"Rachel's Experiment (D.T.)";"1.0";"2";"1";"1";"2";"1";"1";"2014-07-15 20:32:03.664";"2014-07-15 20:45:27.560";"1";"0";"0";"67";"66";"module.training_block2.exec-6994.GoNoGo2";;;;;;;;;;;;;;;;;;;;;;;;;;;;;;;;;;;"1249";"2014-07-15 20:35:39.515";"NST_miss";"30";"1";"FINISHED";"NONE";"failure";"0";"0";"2014-07-15 20:35:38.263";"3";;;;;;;;;;;;;;;;;;;;;;;;;;;;;;;;;;;;;;;;;;;;;
"RA_test";;;"Windows 7";"Rachel's Experiment (D.T.)";"1.0";"2";"1";"1";"2";"1";"1";"2014-07-15 20:32:03.664";"2014-07-15 20:45:27.560";"1";"0";"0";"68";"67";"module.training_block2.exec-6994.GoNoGo2";;;;;;;;;;;;;;;;;;;;;;;;;;;;;;;;;;;"1262";"2014-07-15 20:35:42.064";"NST_miss";"1";"1";"FINISHED";"NONE";"failure";"0";"0";"2014-07-15 20:35:40.801";"1";;;;;;;;;;;;;;;;;;;;;;;;;;;;;;;;;;;;;;;;;;;;;
"RA_test";;;"Windows 7";"Rachel's Experiment (D.T.)";"1.0";"2";"1";"1";"2";"1";"1";"2014-07-15 20:32:03.664";"2014-07-15 20:45:27.560";"1";"0";"0";"69";"68";"module.training_block2.exec-6994.GoNoGo2";;;;;;;;;;;;;;;;;;;;;;;;;;;;;;;;;;;"1249";"2014-07-15 20:35:44.605";"NST_miss";"22";"1";"FINISHED";"NONE";"failure";"0";"0";"2014-07-15 20:35:43.353";"3";;;;;;;;;;;;;;;;;;;;;;;;;;;;;;;;;;;;;;;;;;;;;
"RA_test";;;"Windows 7";"Rachel's Experiment (D.T.)";"1.0";"2";"1";"1";"2";"1";"1";"2014-07-15 20:32:03.664";"2014-07-15 20:45:27.560";"1";"0";"0";"70";"69";"module.training_block2.exec-6994.GoNoGo2";;;;;;;;;;;;;;;;;;;;;;;;;;;;;;;;;;;"1260";"2014-07-15 20:35:47.152";"NST_miss";"9";"1";"FINISHED";"NONE";"failure";"0";"0";"2014-07-15 20:35:45.889";"2";;;;;;;;;;;;;;;;;;;;;;;;;;;;;;;;;;;;;;;;;;;;;
"RA_test";;;"Windows 7";"Rachel's Experiment (D.T.)";"1.0";"2";"1";"1";"2";"1";"1";"2014-07-15 20:32:03.664";"2014-07-15 20:45:27.560";"1";"0";"0";"71";"70";"module.training_block2.exec-6994.GoNoGo2";;;;;;;;;;;;;;;;;;;;;;;;;;;;;;;;;;;"1249";"2014-07-15 20:35:49.693";"NST_miss";"17";"0";"FINISHED";"NONE";"failure";"0";"0";"2014-07-15 20:35:48.441";"2";;;;;;;;;;;;;;;;;;;;;;;;;;;;;;;;;;;;;;;;;;;;;
"RA_test";;;"Windows 7";"Rachel's Experiment (D.T.)";"1.0";"2";"1";"1";"2";"1";"1";"2014-07-15 20:32:03.664";"2014-07-15 20:45:27.560";"1";"0";"0";"72";"71";"module.training_block2.exec-6994.GoNoGo2";;;;;;;;;;;;;;;;;;;;;;;;;;;;;;;;;;;"1248";"2014-07-15 20:35:52.255";"NST_miss";"25";"1";"FINISHED";"NONE";"failure";"0";"0";"2014-07-15 20:35:51.003";"3";;;;;;;;;;;;;;;;;;;;;;;;;;;;;;;;;;;;;;;;;;;;;
"RA_test";;;"Windows 7";"Rachel's Experiment (D.T.)";"1.0";"2";"1";"1";"2";"1";"1";"2014-07-15 20:32:03.664";"2014-07-15 20:45:27.560";"1";"0";"0";"73";"72";"module.training_block2.exec-6994.GoNoGo2";;;;;;;;;;;;;;;;;;;;;;;;;;;;;;;;;;;"1260";"2014-07-15 20:35:54.809";"NST_miss";"8";"0";"FINISHED";"NONE";"failure";"0";"0";"2014-07-15 20:35:53.546";"1";;;;;;;;;;;;;;;;;;;;;;;;;;;;;;;;;;;;;;;;;;;;;
"RA_test";;;"Windows 7";"Rachel's Experiment (D.T.)";"1.0";"2";"1";"1";"2";"1";"1";"2014-07-15 20:32:03.664";"2014-07-15 20:45:27.560";"1";"0";"0";"74";"73";"module.training_block2.exec-6994.GoNoGo2";;;;;;;;;;;;;;;;;;;;;;;;;;;;;;;;;;;"1260";"2014-07-15 20:35:57.364";"NST_miss";"28";"0";"FINISHED";"NONE";"failure";"0";"0";"2014-07-15 20:35:56.101";"3";;;;;;;;;;;;;;;;;;;;;;;;;;;;;;;;;;;;;;;;;;;;;
"RA_test";;;"Windows 7";"Rachel's Experiment (D.T.)";"1.0";"2";"1";"1";"2";"1";"1";"2014-07-15 20:32:03.664";"2014-07-15 20:45:27.560";"1";"0";"0";"75";"74";"module.training_block2.exec-6994.GoNoGo2";;;;;;;;;;;;;;;;;;;;;;;;;;;;;;;;;;;"1249";"2014-07-15 20:35:59.916";"NST_miss";"24";"1";"FINISHED";"NONE";"failure";"0";"0";"2014-07-15 20:35:58.663";"3";;;;;;;;;;;;;;;;;;;;;;;;;;;;;;;;;;;;;;;;;;;;;
"RA_test";;;"Windows 7";"Rachel's Experiment (D.T.)";"1.0";"2";"1";"1";"2";"1";"1";"2014-07-15 20:32:03.664";"2014-07-15 20:45:27.560";"1";"0";"0";"76";"75";"module.training_block2.exec-6994.GoNoGo2";;;;;;;;;;;;;;;;;;;;;;;;;;;;;;;;;;;"1254";"2014-07-15 20:36:02.467";"NST_miss";"7";"0";"FINISHED";"NONE";"failure";"0";"0";"2014-07-15 20:36:01.209";"1";;;;;;;;;;;;;;;;;;;;;;;;;;;;;;;;;;;;;;;;;;;;;
"RA_test";;;"Windows 7";"Rachel's Experiment (D.T.)";"1.0";"2";"1";"1";"2";"1";"1";"2014-07-15 20:32:03.664";"2014-07-15 20:45:27.560";"1";"0";"0";"77";"76";"module.training_block2.exec-6994.GoNoGo2";;;;;;;;;;;;;;;;;;;;;;;;;;;;;;;;;;;"1249";"2014-07-15 20:36:05.013";"NST_miss";"23";"0";"FINISHED";"NONE";"failure";"0";"0";"2014-07-15 20:36:03.761";"3";;;;;;;;;;;;;;;;;;;;;;;;;;;;;;;;;;;;;;;;;;;;;
"RA_test";;;"Windows 7";"Rachel's Experiment (D.T.)";"1.0";"2";"1";"1";"2";"1";"1";"2014-07-15 20:32:03.664";"2014-07-15 20:45:27.560";"1";"0";"0";"78";"77";"module.training_block2.exec-6994.GoNoGo2";;;;;;;;;;;;;;;;;;;;;;;;;;;;;;;;;;;"1257";"2014-07-15 20:36:07.607";"NST_miss";"13";"1";"FINISHED";"NONE";"failure";"0";"0";"2014-07-15 20:36:06.346";"2";;;;;;;;;;;;;;;;;;;;;;;;;;;;;;;;;;;;;;;;;;;;;
"RA_test";;;"Windows 7";"Rachel's Experiment (D.T.)";"1.0";"2";"1";"1";"2";"1";"1";"2014-07-15 20:32:03.664";"2014-07-15 20:45:27.560";"1";"0";"0";"79";"78";"module.training_block2.exec-6994.GoNoGo2";;;;;;;;;;;;;;;;;;;;;;;;;;;;;;;;;;;"1260";"2014-07-15 20:36:10.164";"NST_miss";"11";"0";"FINISHED";"NONE";"failure";"0";"0";"2014-07-15 20:36:08.901";"2";;;;;;;;;;;;;;;;;;;;;;;;;;;;;;;;;;;;;;;;;;;;;
"RA_test";;;"Windows 7";"Rachel's Experiment (D.T.)";"1.0";"2";"1";"1";"2";"1";"1";"2014-07-15 20:32:03.664";"2014-07-15 20:45:27.560";"1";"0";"0";"80";"79";"module.training_block2.exec-6994.GoNoGo2";;;;;;;;;;;;;;;;;;;;;;;;;;;;;;;;;;;"1249";"2014-07-15 20:36:12.705";"NST_miss";"3";"0";"FINISHED";"NONE";"failure";"0";"0";"2014-07-15 20:36:11.453";"1";;;;;;;;;;;;;;;;;;;;;;;;;;;;;;;;;;;;;;;;;;;;;
"RA_test";;;"Windows 7";"Rachel's Experiment (D.T.)";"1.0";"2";"1";"1";"2";"1";"1";"2014-07-15 20:32:03.664";"2014-07-15 20:45:27.560";"1";"0";"0";"81";"80";"module.training_block2.exec-6994.GoNoGo2";;;;;;;;;;;;;;;;;;;;;;;;;;;;;;;;;;;"1257";"2014-07-15 20:36:15.249";"NST_miss";"32";"1";"FINISHED";"NONE";"failure";"0";"0";"2014-07-15 20:36:13.989";"3";;;;;;;;;;;;;;;;;;;;;;;;;;;;;;;;;;;;;;;;;;;;;
"RA_test";;;"Windows 7";"Rachel's Experiment (D.T.)";"1.0";"2";"1";"1";"2";"1";"1";"2014-07-15 20:32:03.664";"2014-07-15 20:45:27.560";"1";"0";"0";"82";"81";"module.training_block2.exec-6994.GoNoGo2";;;;;;;;;;;;;;;;;;;;;;;;;;;;;;;;;;;"1259";"2014-07-15 20:36:17.811";"NST_miss";"21";"0";"FINISHED";"NONE";"failure";"0";"0";"2014-07-15 20:36:16.548";"3";;;;;;;;;;;;;;;;;;;;;;;;;;;;;;;;;;;;;;;;;;;;;
"RA_test";;;"Windows 7";"Rachel's Experiment (D.T.)";"1.0";"2";"1";"1";"2";"1";"1";"2014-07-15 20:32:03.664";"2014-07-15 20:45:27.560";"1";"0";"0";"83";"82";"module.training_block2.exec-6994.GoNoGo2";;;;;;;;;;;;;;;;;;;;;;;;;;;;;;;;;;;"1249";"2014-07-15 20:36:20.347";"NST_miss";"29";"0";"FINISHED";"NONE";"failure";"0";"0";"2014-07-15 20:36:19.094";"3";;;;;;;;;;;;;;;;;;;;;;;;;;;;;;;;;;;;;;;;;;;;;
"RA_test";;;"Windows 7";"Rachel's Experiment (D.T.)";"1.0";"2";"1";"1";"2";"1";"1";"2014-07-15 20:32:03.664";"2014-07-15 20:45:27.560";"1";"0";"0";"84";"83";"module.training_block2.exec-6994.GoNoGo2";;;;;;;;;;;;;;;;;;;;;;;;;;;;;;;;;;;"1251";"2014-07-15 20:36:22.901";"NST_miss";"33";"0";"FINISHED";"NONE";"failure";"0";"0";"2014-07-15 20:36:21.646";"3";;;;;;;;;;;;;;;;;;;;;;;;;;;;;;;;;;;;;;;;;;;;;
"RA_test";;;"Windows 7";"Rachel's Experiment (D.T.)";"1.0";"2";"1";"1";"2";"1";"1";"2014-07-15 20:32:03.664";"2014-07-15 20:45:27.560";"1";"0";"0";"85";"84";"module.training_block2.exec-6994.GoNoGo2";;;;;;;;;;;;;;;;;;;;;;;;;;;;;;;;;;;"1262";"2014-07-15 20:36:25.450";"NST_miss";"27";"1";"FINISHED";"NONE";"failure";"0";"0";"2014-07-15 20:36:24.184";"3";;;;;;;;;;;;;;;;;;;;;;;;;;;;;;;;;;;;;;;;;;;;;
"RA_test";;;"Windows 7";"Rachel's Experiment (D.T.)";"1.0";"2";"1";"1";"2";"1";"1";"2014-07-15 20:32:03.664";"2014-07-15 20:45:27.560";"1";"0";"0";"86";"85";"module.training_block2.exec-6994.GoNoGo2";;;;;;;;;;;;;;;;;;;;;;;;;;;;;;;;;;;"1254";"2014-07-15 20:36:27.991";"NST_miss";"19";"1";"FINISHED";"NONE";"failure";"0";"0";"2014-07-15 20:36:26.733";"3";;;;;;;;;;;;;;;;;;;;;;;;;;;;;;;;;;;;;;;;;;;;;
"RA_test";;;"Windows 7";"Rachel's Experiment (D.T.)";"1.0";"2";"1";"1";"2";"1";"1";"2014-07-15 20:32:03.664";"2014-07-15 20:45:27.560";"1";"0";"0";"87";"86";"module.training_block2.exec-6994.GoNoGo2";;;;;;;;;;;;;;;;;;;;;;;;;;;;;;;;;;;"1254";"2014-07-15 20:36:30.540";"NST_miss";"0";"1";"FINISHED";"NONE";"failure";"0";"0";"2014-07-15 20:36:29.283";"1";;;;;;;;;;;;;;;;;;;;;;;;;;;;;;;;;;;;;;;;;;;;;
"RA_test";;;"Windows 7";"Rachel's Experiment (D.T.)";"1.0";"2";"1";"1";"2";"1";"1";"2014-07-15 20:32:03.664";"2014-07-15 20:45:27.560";"1";"0";"0";"88";"87";"module.training_block3.exec-4407.GoNoGo3";;;;;;;;;;;;;;;;;;;;;;;;;;;;;;;;;;;;;;;;;;;;;;;"1254";"2014-07-15 20:36:40.630";"NST_miss";"11";"1";"FINISHED";"NONE";"failure";"0";"0";"2014-07-15 20:36:39.372";"2";;;;;;;;;;;;;;;;;;;;;;;;;;;;;;;;;
"RA_test";;;"Windows 7";"Rachel's Experiment (D.T.)";"1.0";"2";"1";"1";"2";"1";"1";"2014-07-15 20:32:03.664";"2014-07-15 20:45:27.560";"1";"0";"0";"89";"88";"module.training_block3.exec-4407.GoNoGo3";;;;;;;;;;;;;;;;;;;;;;;;;;;;;;;;;;;;;;;;;;;;;;;"1248";"2014-07-15 20:36:43.160";"NST_miss";"6";"1";"FINISHED";"NONE";"failure";"0";"0";"2014-07-15 20:36:41.908";"1";;;;;;;;;;;;;;;;;;;;;;;;;;;;;;;;;
"RA_test";;;"Windows 7";"Rachel's Experiment (D.T.)";"1.0";"2";"1";"1";"2";"1";"1";"2014-07-15 20:32:03.664";"2014-07-15 20:45:27.560";"1";"0";"0";"90";"89";"module.training_block3.exec-4407.GoNoGo3";;;;;;;;;;;;;;;;;;;;;;;;;;;;;;;;;;;;;;;;;;;;;;;"1249";"2014-07-15 20:36:45.704";"NST_miss";"18";"0";"FINISHED";"NONE";"failure";"0";"0";"2014-07-15 20:36:44.452";"3";;;;;;;;;;;;;;;;;;;;;;;;;;;;;;;;;
"RA_test";;;"Windows 7";"Rachel's Experiment (D.T.)";"1.0";"2";"1";"1";"2";"1";"1";"2014-07-15 20:32:03.664";"2014-07-15 20:45:27.560";"1";"0";"0";"91";"90";"module.training_block3.exec-4407.GoNoGo3";;;;;;;;;;;;;;;;;;;;;;;;;;;;;;;;;;;;;;;;;;;;;;;"1249";"2014-07-15 20:36:48.227";"NST_miss";"32";"1";"FINISHED";"NONE";"failure";"0";"0";"2014-07-15 20:36:46.975";"3";;;;;;;;;;;;;;;;;;;;;;;;;;;;;;;;;
"RA_test";;;"Windows 7";"Rachel's Experiment (D.T.)";"1.0";"2";"1";"1";"2";"1";"1";"2014-07-15 20:32:03.664";"2014-07-15 20:45:27.560";"1";"0";"0";"92";"91";"module.training_block3.exec-4407.GoNoGo3";;;;;;;;;;;;;;;;;;;;;;;;;;;;;;;;;;;;;;;;;;;;;;;"1257";"2014-07-15 20:36:50.771";"NST_miss";"26";"1";"FINISHED";"NONE";"failure";"0";"0";"2014-07-15 20:36:49.511";"3";;;;;;;;;;;;;;;;;;;;;;;;;;;;;;;;;
"RA_test";;;"Windows 7";"Rachel's Experiment (D.T.)";"1.0";"2";"1";"1";"2";"1";"1";"2014-07-15 20:32:03.664";"2014-07-15 20:45:27.560";"1";"0";"0";"93";"92";"module.training_block3.exec-4407.GoNoGo3";;;;;;;;;;;;;;;;;;;;;;;;;;;;;;;;;;;;;;;;;;;;;;;"1258";"2014-07-15 20:36:53.315";"NST_miss";"23";"1";"FINISHED";"NONE";"failure";"0";"0";"2014-07-15 20:36:52.052";"3";;;;;;;;;;;;;;;;;;;;;;;;;;;;;;;;;
"RA_test";;;"Windows 7";"Rachel's Experiment (D.T.)";"1.0";"2";"1";"1";"2";"1";"1";"2014-07-15 20:32:03.664";"2014-07-15 20:45:27.560";"1";"0";"0";"94";"93";"module.training_block3.exec-4407.GoNoGo3";;;;;;;;;;;;;;;;;;;;;;;;;;;;;;;;;;;;;;;;;;;;;;;"1254";"2014-07-15 20:36:55.859";"NST_miss";"28";"1";"FINISHED";"NONE";"failure";"0";"0";"2014-07-15 20:36:54.601";"3";;;;;;;;;;;;;;;;;;;;;;;;;;;;;;;;;
"RA_test";;;"Windows 7";"Rachel's Experiment (D.T.)";"1.0";"2";"1";"1";"2";"1";"1";"2014-07-15 20:32:03.664";"2014-07-15 20:45:27.560";"1";"0";"0";"95";"94";"module.training_block3.exec-4407.GoNoGo3";;;;;;;;;;;;;;;;;;;;;;;;;;;;;;;;;;;;;;;;;;;;;;;"1249";"2014-07-15 20:36:58.395";"NST_miss";"5";"0";"FINISHED";"NONE";"failure";"0";"0";"2014-07-15 20:36:57.142";"1";;;;;;;;;;;;;;;;;;;;;;;;;;;;;;;;;
"RA_test";;;"Windows 7";"Rachel's Experiment (D.T.)";"1.0";"2";"1";"1";"2";"1";"1";"2014-07-15 20:32:03.664";"2014-07-15 20:45:27.560";"1";"0";"0";"96";"95";"module.training_block3.exec-4407.GoNoGo3";;;;;;;;;;;;;;;;;;;;;;;;;;;;;;;;;;;;;;;;;;;;;;;"1249";"2014-07-15 20:37:00.931";"NST_miss";"17";"1";"FINISHED";"NONE";"failure";"0";"0";"2014-07-15 20:36:59.678";"2";;;;;;;;;;;;;;;;;;;;;;;;;;;;;;;;;
"RA_test";;;"Windows 7";"Rachel's Experiment (D.T.)";"1.0";"2";"1";"1";"2";"1";"1";"2014-07-15 20:32:03.664";"2014-07-15 20:45:27.560";"1";"0";"0";"97";"96";"module.training_block3.exec-4407.GoNoGo3";;;;;;;;;;;;;;;;;;;;;;;;;;;;;;;;;;;;;;;;;;;;;;;"1262";"2014-07-15 20:37:03.506";"NST_miss";"16";"0";"FINISHED";"NONE";"failure";"0";"0";"2014-07-15 20:37:02.241";"2";;;;;;;;;;;;;;;;;;;;;;;;;;;;;;;;;
"RA_test";;;"Windows 7";"Rachel's Experiment (D.T.)";"1.0";"2";"1";"1";"2";"1";"1";"2014-07-15 20:32:03.664";"2014-07-15 20:45:27.560";"1";"0";"0";"98";"97";"module.training_block3.exec-4407.GoNoGo3";;;;;;;;;;;;;;;;;;;;;;;;;;;;;;;;;;;;;;;;;;;;;;;"1259";"2014-07-15 20:37:06.063";"NST_miss";"24";"0";"FINISHED";"NONE";"failure";"0";"0";"2014-07-15 20:37:04.800";"3";;;;;;;;;;;;;;;;;;;;;;;;;;;;;;;;;
"RA_test";;;"Windows 7";"Rachel's Experiment (D.T.)";"1.0";"2";"1";"1";"2";"1";"1";"2014-07-15 20:32:03.664";"2014-07-15 20:45:27.560";"1";"0";"0";"99";"98";"module.training_block3.exec-4407.GoNoGo3";;;;;;;;;;;;;;;;;;;;;;;;;;;;;;;;;;;;;;;;;;;;;;;"1252";"2014-07-15 20:37:08.601";"NST_miss";"27";"1";"FINISHED";"NONE";"failure";"0";"0";"2014-07-15 20:37:07.349";"3";;;;;;;;;;;;;;;;;;;;;;;;;;;;;;;;;
"RA_test";;;"Windows 7";"Rachel's Experiment (D.T.)";"1.0";"2";"1";"1";"2";"1";"1";"2014-07-15 20:32:03.664";"2014-07-15 20:45:27.560";"1";"0";"0";"100";"99";"module.training_block3.exec-4407.GoNoGo3";;;;;;;;;;;;;;;;;;;;;;;;;;;;;;;;;;;;;;;;;;;;;;;"1254";"2014-07-15 20:37:11.145";"NST_miss";"8";"0";"FINISHED";"NONE";"failure";"0";"0";"2014-07-15 20:37:09.888";"1";;;;;;;;;;;;;;;;;;;;;;;;;;;;;;;;;
"RA_test";;;"Windows 7";"Rachel's Experiment (D.T.)";"1.0";"2";"1";"1";"2";"1";"1";"2014-07-15 20:32:03.664";"2014-07-15 20:45:27.560";"1";"0";"0";"101";"100";"module.training_block3.exec-4407.GoNoGo3";;;;;;;;;;;;;;;;;;;;;;;;;;;;;;;;;;;;;;;;;;;;;;;"1260";"2014-07-15 20:37:13.705";"NST_miss";"21";"1";"FINISHED";"NONE";"failure";"0";"0";"2014-07-15 20:37:12.442";"3";;;;;;;;;;;;;;;;;;;;;;;;;;;;;;;;;
"RA_test";;;"Windows 7";"Rachel's Experiment (D.T.)";"1.0";"2";"1";"1";"2";"1";"1";"2014-07-15 20:32:03.664";"2014-07-15 20:45:27.560";"1";"0";"0";"102";"101";"module.training_block3.exec-4407.GoNoGo3";;;;;;;;;;;;;;;;;;;;;;;;;;;;;;;;;;;;;;;;;;;;;;;"1252";"2014-07-15 20:37:16.254";"NST_miss";"0";"0";"FINISHED";"NONE";"failure";"0";"0";"2014-07-15 20:37:14.999";"1";;;;;;;;;;;;;;;;;;;;;;;;;;;;;;;;;
"RA_test";;;"Windows 7";"Rachel's Experiment (D.T.)";"1.0";"2";"1";"1";"2";"1";"1";"2014-07-15 20:32:03.664";"2014-07-15 20:45:27.560";"1";"0";"0";"103";"102";"module.training_block3.exec-4407.GoNoGo3";;;;;;;;;;;;;;;;;;;;;;;;;;;;;;;;;;;;;;;;;;;;;;;"1255";"2014-07-15 20:37:18.801";"NST_miss";"34";"0";"FINISHED";"NONE";"failure";"0";"0";"2014-07-15 20:37:17.543";"3";;;;;;;;;;;;;;;;;;;;;;;;;;;;;;;;;
"RA_test";;;"Windows 7";"Rachel's Experiment (D.T.)";"1.0";"2";"1";"1";"2";"1";"1";"2014-07-15 20:32:03.664";"2014-07-15 20:45:27.560";"1";"0";"0";"104";"103";"module.training_block3.exec-4407.GoNoGo3";;;;;;;;;;;;;;;;;;;;;;;;;;;;;;;;;;;;;;;;;;;;;;;"1252";"2014-07-15 20:37:21.350";"NST_miss";"9";"0";"FINISHED";"NONE";"failure";"0";"0";"2014-07-15 20:37:20.095";"2";;;;;;;;;;;;;;;;;;;;;;;;;;;;;;;;;
"RA_test";;;"Windows 7";"Rachel's Experiment (D.T.)";"1.0";"2";"1";"1";"2";"1";"1";"2014-07-15 20:32:03.664";"2014-07-15 20:45:27.560";"1";"0";"0";"105";"104";"module.training_block3.exec-4407.GoNoGo3";;;;;;;;;;;;;;;;;;;;;;;;;;;;;;;;;;;;;;;;;;;;;;;"1254";"2014-07-15 20:37:23.894";"NST_miss";"13";"1";"FINISHED";"NONE";"failure";"0";"0";"2014-07-15 20:37:22.636";"2";;;;;;;;;;;;;;;;;;;;;;;;;;;;;;;;;
"RA_test";;;"Windows 7";"Rachel's Experiment (D.T.)";"1.0";"2";"1";"1";"2";"1";"1";"2014-07-15 20:32:03.664";"2014-07-15 20:45:27.560";"1";"0";"0";"106";"105";"module.training_block3.exec-4407.GoNoGo3";;;;;;;;;;;;;;;;;;;;;;;;;;;;;;;;;;;;;;;;;;;;;;;"1259";"2014-07-15 20:37:26.440";"NST_miss";"3";"0";"FINISHED";"NONE";"failure";"0";"0";"2014-07-15 20:37:25.178";"1";;;;;;;;;;;;;;;;;;;;;;;;;;;;;;;;;
"RA_test";;;"Windows 7";"Rachel's Experiment (D.T.)";"1.0";"2";"1";"1";"2";"1";"1";"2014-07-15 20:32:03.664";"2014-07-15 20:45:27.560";"1";"0";"0";"107";"106";"module.training_block3.exec-4407.GoNoGo3";;;;;;;;;;;;;;;;;;;;;;;;;;;;;;;;;;;;;;;;;;;;;;;"1260";"2014-07-15 20:37:28.987";"NST_miss";"31";"1";"FINISHED";"NONE";"failure";"0";"0";"2014-07-15 20:37:27.724";"3";;;;;;;;;;;;;;;;;;;;;;;;;;;;;;;;;
"RA_test";;;"Windows 7";"Rachel's Experiment (D.T.)";"1.0";"2";"1";"1";"2";"1";"1";"2014-07-15 20:32:03.664";"2014-07-15 20:45:27.560";"1";"0";"0";"108";"107";"module.training_block3.exec-4407.GoNoGo3";;;;;;;;;;;;;;;;;;;;;;;;;;;;;;;;;;;;;;;;;;;;;;;"1249";"2014-07-15 20:37:31.523";"NST_miss";"15";"1";"FINISHED";"NONE";"failure";"0";"0";"2014-07-15 20:37:30.270";"2";;;;;;;;;;;;;;;;;;;;;;;;;;;;;;;;;
"RA_test";;;"Windows 7";"Rachel's Experiment (D.T.)";"1.0";"2";"1";"1";"2";"1";"1";"2014-07-15 20:32:03.664";"2014-07-15 20:45:27.560";"1";"0";"0";"109";"108";"module.training_block3.exec-4407.GoNoGo3";;;;;;;;;;;;;;;;;;;;;;;;;;;;;;;;;;;;;;;;;;;;;;;"1260";"2014-07-15 20:37:34.079";"NST_miss";"22";"1";"FINISHED";"NONE";"failure";"0";"0";"2014-07-15 20:37:32.816";"3";;;;;;;;;;;;;;;;;;;;;;;;;;;;;;;;;
"RA_test";;;"Windows 7";"Rachel's Experiment (D.T.)";"1.0";"2";"1";"1";"2";"1";"1";"2014-07-15 20:32:03.664";"2014-07-15 20:45:27.560";"1";"0";"0";"110";"109";"module.training_block3.exec-4407.GoNoGo3";;;;;;;;;;;;;;;;;;;;;;;;;;;;;;;;;;;;;;;;;;;;;;;"1259";"2014-07-15 20:37:36.620";"NST_miss";"29";"0";"FINISHED";"NONE";"failure";"0";"0";"2014-07-15 20:37:35.358";"3";;;;;;;;;;;;;;;;;;;;;;;;;;;;;;;;;
"RA_test";;;"Windows 7";"Rachel's Experiment (D.T.)";"1.0";"2";"1";"1";"2";"1";"1";"2014-07-15 20:32:03.664";"2014-07-15 20:45:27.560";"1";"0";"0";"111";"110";"module.training_block3.exec-4407.GoNoGo3";;;;;;;;;;;;;;;;;;;;;;;;;;;;;;;;;;;;;;;;;;;;;;;"1255";"2014-07-15 20:37:39.162";"NST_miss";"35";"0";"FINISHED";"NONE";"failure";"0";"0";"2014-07-15 20:37:37.904";"3";;;;;;;;;;;;;;;;;;;;;;;;;;;;;;;;;
"RA_test";;;"Windows 7";"Rachel's Experiment (D.T.)";"1.0";"2";"1";"1";"2";"1";"1";"2014-07-15 20:32:03.664";"2014-07-15 20:45:27.560";"1";"0";"0";"112";"111";"module.training_block3.exec-4407.GoNoGo3";;;;;;;;;;;;;;;;;;;;;;;;;;;;;;;;;;;;;;;;;;;;;;;"1253";"2014-07-15 20:37:41.713";"NST_miss";"10";"1";"FINISHED";"NONE";"failure";"0";"0";"2014-07-15 20:37:40.458";"2";;;;;;;;;;;;;;;;;;;;;;;;;;;;;;;;;
"RA_test";;;"Windows 7";"Rachel's Experiment (D.T.)";"1.0";"2";"1";"1";"2";"1";"1";"2014-07-15 20:32:03.664";"2014-07-15 20:45:27.560";"1";"0";"0";"113";"112";"module.training_block3.exec-4407.GoNoGo3";;;;;;;;;;;;;;;;;;;;;;;;;;;;;;;;;;;;;;;;;;;;;;;"1260";"2014-07-15 20:37:44.262";"NST_miss";"25";"0";"FINISHED";"NONE";"failure";"0";"0";"2014-07-15 20:37:42.999";"3";;;;;;;;;;;;;;;;;;;;;;;;;;;;;;;;;
"RA_test";;;"Windows 7";"Rachel's Experiment (D.T.)";"1.0";"2";"1";"1";"2";"1";"1";"2014-07-15 20:32:03.664";"2014-07-15 20:45:27.560";"1";"0";"0";"114";"113";"module.training_block3.exec-4407.GoNoGo3";;;;;;;;;;;;;;;;;;;;;;;;;;;;;;;;;;;;;;;;;;;;;;;"1253";"2014-07-15 20:37:46.812";"NST_miss";"12";"1";"FINISHED";"NONE";"failure";"0";"0";"2014-07-15 20:37:45.557";"2";;;;;;;;;;;;;;;;;;;;;;;;;;;;;;;;;
"RA_test";;;"Windows 7";"Rachel's Experiment (D.T.)";"1.0";"2";"1";"1";"2";"1";"1";"2014-07-15 20:32:03.664";"2014-07-15 20:45:27.560";"1";"0";"0";"115";"114";"module.training_block3.exec-4407.GoNoGo3";;;;;;;;;;;;;;;;;;;;;;;;;;;;;;;;;;;;;;;;;;;;;;;"1252";"2014-07-15 20:37:49.356";"NST_miss";"1";"0";"FINISHED";"NONE";"failure";"0";"0";"2014-07-15 20:37:48.101";"1";;;;;;;;;;;;;;;;;;;;;;;;;;;;;;;;;
"RA_test";;;"Windows 7";"Rachel's Experiment (D.T.)";"1.0";"2";"1";"1";"2";"1";"1";"2014-07-15 20:32:03.664";"2014-07-15 20:45:27.560";"1";"0";"0";"116";"115";"module.training_block3.exec-4407.GoNoGo3";;;;;;;;;;;;;;;;;;;;;;;;;;;;;;;;;;;;;;;;;;;;;;;"1259";"2014-07-15 20:37:51.905";"NST_miss";"4";"1";"FINISHED";"NONE";"failure";"0";"0";"2014-07-15 20:37:50.642";"1";;;;;;;;;;;;;;;;;;;;;;;;;;;;;;;;;
"RA_test";;;"Windows 7";"Rachel's Experiment (D.T.)";"1.0";"2";"1";"1";"2";"1";"1";"2014-07-15 20:32:03.664";"2014-07-15 20:45:27.560";"1";"0";"0";"117";"116";"module.training_block3.exec-4407.GoNoGo3";;;;;;;;;;;;;;;;;;;;;;;;;;;;;;;;;;;;;;;;;;;;;;;"1248";"2014-07-15 20:37:54.443";"NST_miss";"7";"0";"FINISHED";"NONE";"failure";"0";"0";"2014-07-15 20:37:53.191";"1";;;;;;;;;;;;;;;;;;;;;;;;;;;;;;;;;
"RA_test";;;"Windows 7";"Rachel's Experiment (D.T.)";"1.0";"2";"1";"1";"2";"1";"1";"2014-07-15 20:32:03.664";"2014-07-15 20:45:27.560";"1";"0";"0";"118";"117";"module.training_block3.exec-4407.GoNoGo3";;;;;;;;;;;;;;;;;;;;;;;;;;;;;;;;;;;;;;;;;;;;;;;"1261";"2014-07-15 20:37:56.995";"NST_miss";"14";"0";"FINISHED";"NONE";"failure";"0";"0";"2014-07-15 20:37:55.732";"2";;;;;;;;;;;;;;;;;;;;;;;;;;;;;;;;;
"RA_test";;;"Windows 7";"Rachel's Experiment (D.T.)";"1.0";"2";"1";"1";"2";"1";"1";"2014-07-15 20:32:03.664";"2014-07-15 20:45:27.560";"1";"0";"0";"119";"118";"module.training_block3.exec-4407.GoNoGo3";;;;;;;;;;;;;;;;;;;;;;;;;;;;;;;;;;;;;;;;;;;;;;;"1260";"2014-07-15 20:37:59.559";"NST_miss";"33";"0";"FINISHED";"NONE";"failure";"0";"0";"2014-07-15 20:37:58.296";"3";;;;;;;;;;;;;;;;;;;;;;;;;;;;;;;;;
"RA_test";;;"Windows 7";"Rachel's Experiment (D.T.)";"1.0";"2";"1";"1";"2";"1";"1";"2014-07-15 20:32:03.664";"2014-07-15 20:45:27.560";"1";"0";"0";"120";"119";"module.training_block3.exec-4407.GoNoGo3";;;;;;;;;;;;;;;;;;;;;;;;;;;;;;;;;;;;;;;;;;;;;;;"1249";"2014-07-15 20:38:02.095";"NST_miss";"30";"0";"FINISHED";"NONE";"failure";"0";"0";"2014-07-15 20:38:00.843";"3";;;;;;;;;;;;;;;;;;;;;;;;;;;;;;;;;
"RA_test";;;"Windows 7";"Rachel's Experiment (D.T.)";"1.0";"2";"1";"1";"2";"1";"1";"2014-07-15 20:32:03.664";"2014-07-15 20:45:27.560";"1";"0";"0";"121";"120";"module.training_block3.exec-4407.GoNoGo3";;;;;;;;;;;;;;;;;;;;;;;;;;;;;;;;;;;;;;;;;;;;;;;"1258";"2014-07-15 20:38:04.645";"NST_miss";"19";"0";"FINISHED";"NONE";"failure";"0";"0";"2014-07-15 20:38:03.384";"3";;;;;;;;;;;;;;;;;;;;;;;;;;;;;;;;;
"RA_test";;;"Windows 7";"Rachel's Experiment (D.T.)";"1.0";"2";"1";"1";"2";"1";"1";"2014-07-15 20:32:03.664";"2014-07-15 20:45:27.560";"1";"0";"0";"122";"121";"module.training_block3.exec-4407.GoNoGo3";;;;;;;;;;;;;;;;;;;;;;;;;;;;;;;;;;;;;;;;;;;;;;;"1260";"2014-07-15 20:38:07.196";"NST_miss";"2";"1";"FINISHED";"NONE";"failure";"0";"0";"2014-07-15 20:38:05.933";"1";;;;;;;;;;;;;;;;;;;;;;;;;;;;;;;;;
"RA_test";;;"Windows 7";"Rachel's Experiment (D.T.)";"1.0";"2";"1";"1";"2";"1";"1";"2014-07-15 20:32:03.664";"2014-07-15 20:45:27.560";"1";"0";"0";"123";"122";"module.training_block3.exec-4407.GoNoGo3";;;;;;;;;;;;;;;;;;;;;;;;;;;;;;;;;;;;;;;;;;;;;;;"1254";"2014-07-15 20:38:09.748";"NST_miss";"20";"0";"FINISHED";"NONE";"failure";"0";"0";"2014-07-15 20:38:08.490";"3";;;;;;;;;;;;;;;;;;;;;;;;;;;;;;;;;
"RA_test";;;"Windows 7";"Rachel's Experiment (D.T.)";"1.0";"2";"1";"1";"2";"1";"1";"2014-07-15 20:32:03.664";"2014-07-15 20:45:27.560";"1";"0";"0";"124";"123";"module.training_block4.exec-9572.GoNoGo4";;;;;;;;;;;;;;;;;;;;;;;;;;;;;;;;;;;;;;;;;;;;;;;;;;;;;;;;;;;"1254";"2014-07-15 20:38:20.467";"NST_miss";"4";"0";"FINISHED";"NONE";"failure";"0";"0";"2014-07-15 20:38:19.209";"1";;;;;;;;;;;;;;;;;;;;;
"RA_test";;;"Windows 7";"Rachel's Experiment (D.T.)";"1.0";"2";"1";"1";"2";"1";"1";"2014-07-15 20:32:03.664";"2014-07-15 20:45:27.560";"1";"0";"0";"125";"124";"module.training_block4.exec-9572.GoNoGo4";;;;;;;;;;;;;;;;;;;;;;;;;;;;;;;;;;;;;;;;;;;;;;;;;;;;;;;;;;;"1260";"2014-07-15 20:38:23.024";"NST_miss";"8";"1";"FINISHED";"NONE";"failure";"0";"0";"2014-07-15 20:38:21.761";"1";;;;;;;;;;;;;;;;;;;;;
"RA_test";;;"Windows 7";"Rachel's Experiment (D.T.)";"1.0";"2";"1";"1";"2";"1";"1";"2014-07-15 20:32:03.664";"2014-07-15 20:45:27.560";"1";"0";"0";"126";"125";"module.training_block4.exec-9572.GoNoGo4";;;;;;;;;;;;;;;;;;;;;;;;;;;;;;;;;;;;;;;;;;;;;;;;;;;;;;;;;;;"1253";"2014-07-15 20:38:25.565";"NST_miss";"13";"1";"FINISHED";"NONE";"failure";"0";"0";"2014-07-15 20:38:24.307";"2";;;;;;;;;;;;;;;;;;;;;
"RA_test";;;"Windows 7";"Rachel's Experiment (D.T.)";"1.0";"2";"1";"1";"2";"1";"1";"2014-07-15 20:32:03.664";"2014-07-15 20:45:27.560";"1";"0";"0";"127";"126";"module.training_block4.exec-9572.GoNoGo4";;;;;;;;;;;;;;;;;;;;;;;;;;;;;;;;;;;;;;;;;;;;;;;;;;;;;;;;;;;"1249";"2014-07-15 20:38:28.085";"NST_miss";"19";"1";"FINISHED";"NONE";"failure";"0";"0";"2014-07-15 20:38:26.833";"3";;;;;;;;;;;;;;;;;;;;;
"RA_test";;;"Windows 7";"Rachel's Experiment (D.T.)";"1.0";"2";"1";"1";"2";"1";"1";"2014-07-15 20:32:03.664";"2014-07-15 20:45:27.560";"1";"0";"0";"128";"127";"module.training_block4.exec-9572.GoNoGo4";;;;;;;;;;;;;;;;;;;;;;;;;;;;;;;;;;;;;;;;;;;;;;;;;;;;;;;;;;;"1254";"2014-07-15 20:38:30.616";"NST_miss";"5";"0";"FINISHED";"NONE";"failure";"0";"0";"2014-07-15 20:38:29.358";"1";;;;;;;;;;;;;;;;;;;;;
"RA_test";;;"Windows 7";"Rachel's Experiment (D.T.)";"1.0";"2";"1";"1";"2";"1";"1";"2014-07-15 20:32:03.664";"2014-07-15 20:45:27.560";"1";"0";"0";"129";"128";"module.training_block4.exec-9572.GoNoGo4";;;;;;;;;;;;;;;;;;;;;;;;;;;;;;;;;;;;;;;;;;;;;;;;;;;;;;;;;;;"1260";"2014-07-15 20:38:33.157";"NST_miss";"3";"1";"FINISHED";"NONE";"failure";"0";"0";"2014-07-15 20:38:31.894";"1";;;;;;;;;;;;;;;;;;;;;
"RA_test";;;"Windows 7";"Rachel's Experiment (D.T.)";"1.0";"2";"1";"1";"2";"1";"1";"2014-07-15 20:32:03.664";"2014-07-15 20:45:27.560";"1";"0";"0";"130";"129";"module.training_block4.exec-9572.GoNoGo4";;;;;;;;;;;;;;;;;;;;;;;;;;;;;;;;;;;;;;;;;;;;;;;;;;;;;;;;;;;"1254";"2014-07-15 20:38:35.693";"NST_miss";"12";"1";"FINISHED";"NONE";"failure";"0";"0";"2014-07-15 20:38:34.435";"2";;;;;;;;;;;;;;;;;;;;;
"RA_test";;;"Windows 7";"Rachel's Experiment (D.T.)";"1.0";"2";"1";"1";"2";"1";"1";"2014-07-15 20:32:03.664";"2014-07-15 20:45:27.560";"1";"0";"0";"131";"130";"module.training_block4.exec-9572.GoNoGo4";;;;;;;;;;;;;;;;;;;;;;;;;;;;;;;;;;;;;;;;;;;;;;;;;;;;;;;;;;;"1260";"2014-07-15 20:38:38.224";"NST_miss";"21";"0";"FINISHED";"NONE";"failure";"0";"0";"2014-07-15 20:38:36.961";"3";;;;;;;;;;;;;;;;;;;;;
"RA_test";;;"Windows 7";"Rachel's Experiment (D.T.)";"1.0";"2";"1";"1";"2";"1";"1";"2014-07-15 20:32:03.664";"2014-07-15 20:45:27.560";"1";"0";"0";"132";"131";"module.training_block4.exec-9572.GoNoGo4";;;;;;;;;;;;;;;;;;;;;;;;;;;;;;;;;;;;;;;;;;;;;;;;;;;;;;;;;;;"1254";"2014-07-15 20:38:40.772";"NST_miss";"7";"0";"FINISHED";"NONE";"failure";"0";"0";"2014-07-15 20:38:39.515";"1";;;;;;;;;;;;;;;;;;;;;
"RA_test";;;"Windows 7";"Rachel's Experiment (D.T.)";"1.0";"2";"1";"1";"2";"1";"1";"2014-07-15 20:32:03.664";"2014-07-15 20:45:27.560";"1";"0";"0";"133";"132";"module.training_block4.exec-9572.GoNoGo4";;;;;;;;;;;;;;;;;;;;;;;;;;;;;;;;;;;;;;;;;;;;;;;;;;;;;;;;;;;"1257";"2014-07-15 20:38:43.316";"NST_miss";"35";"1";"FINISHED";"NONE";"failure";"0";"0";"2014-07-15 20:38:42.056";"3";;;;;;;;;;;;;;;;;;;;;
"RA_test";;;"Windows 7";"Rachel's Experiment (D.T.)";"1.0";"2";"1";"1";"2";"1";"1";"2014-07-15 20:32:03.664";"2014-07-15 20:45:27.560";"1";"0";"0";"134";"133";"module.training_block4.exec-9572.GoNoGo4";;;;;;;;;;;;;;;;;;;;;;;;;;;;;;;;;;;;;;;;;;;;;;;;;;;;;;;;;;;"1258";"2014-07-15 20:38:45.859";"NST_miss";"25";"1";"FINISHED";"NONE";"failure";"0";"0";"2014-07-15 20:38:44.597";"3";;;;;;;;;;;;;;;;;;;;;
"RA_test";;;"Windows 7";"Rachel's Experiment (D.T.)";"1.0";"2";"1";"1";"2";"1";"1";"2014-07-15 20:32:03.664";"2014-07-15 20:45:27.560";"1";"0";"0";"135";"134";"module.training_block4.exec-9572.GoNoGo4";;;;;;;;;;;;;;;;;;;;;;;;;;;;;;;;;;;;;;;;;;;;;;;;;;;;;;;;;;;"1260";"2014-07-15 20:38:48.401";"NST_miss";"34";"1";"FINISHED";"NONE";"failure";"0";"0";"2014-07-15 20:38:47.138";"3";;;;;;;;;;;;;;;;;;;;;
"RA_test";;;"Windows 7";"Rachel's Experiment (D.T.)";"1.0";"2";"1";"1";"2";"1";"1";"2014-07-15 20:32:03.664";"2014-07-15 20:45:27.560";"1";"0";"0";"136";"135";"module.training_block4.exec-9572.GoNoGo4";;;;;;;;;;;;;;;;;;;;;;;;;;;;;;;;;;;;;;;;;;;;;;;;;;;;;;;;;;;"1254";"2014-07-15 20:38:50.936";"NST_miss";"23";"1";"FINISHED";"NONE";"failure";"0";"0";"2014-07-15 20:38:49.679";"3";;;;;;;;;;;;;;;;;;;;;
"RA_test";;;"Windows 7";"Rachel's Experiment (D.T.)";"1.0";"2";"1";"1";"2";"1";"1";"2014-07-15 20:32:03.664";"2014-07-15 20:45:27.560";"1";"0";"0";"137";"136";"module.training_block4.exec-9572.GoNoGo4";;;;;;;;;;;;;;;;;;;;;;;;;;;;;;;;;;;;;;;;;;;;;;;;;;;;;;;;;;;"1262";"2014-07-15 20:38:53.475";"NST_miss";"30";"1";"FINISHED";"NONE";"failure";"0";"0";"2014-07-15 20:38:52.210";"3";;;;;;;;;;;;;;;;;;;;;
"RA_test";;;"Windows 7";"Rachel's Experiment (D.T.)";"1.0";"2";"1";"1";"2";"1";"1";"2014-07-15 20:32:03.664";"2014-07-15 20:45:27.560";"1";"0";"0";"138";"137";"module.training_block4.exec-9572.GoNoGo4";;;;;;;;;;;;;;;;;;;;;;;;;;;;;;;;;;;;;;;;;;;;;;;;;;;;;;;;;;;"1261";"2014-07-15 20:38:56.035";"NST_miss";"31";"1";"FINISHED";"NONE";"failure";"0";"0";"2014-07-15 20:38:54.770";"3";;;;;;;;;;;;;;;;;;;;;
"RA_test";;;"Windows 7";"Rachel's Experiment (D.T.)";"1.0";"2";"1";"1";"2";"1";"1";"2014-07-15 20:32:03.664";"2014-07-15 20:45:27.560";"1";"0";"0";"139";"138";"module.training_block4.exec-9572.GoNoGo4";;;;;;;;;;;;;;;;;;;;;;;;;;;;;;;;;;;;;;;;;;;;;;;;;;;;;;;;;;;"1259";"2014-07-15 20:38:58.592";"NST_miss";"27";"0";"FINISHED";"NONE";"failure";"0";"0";"2014-07-15 20:38:57.329";"3";;;;;;;;;;;;;;;;;;;;;
"RA_test";;;"Windows 7";"Rachel's Experiment (D.T.)";"1.0";"2";"1";"1";"2";"1";"1";"2014-07-15 20:32:03.664";"2014-07-15 20:45:27.560";"1";"0";"0";"140";"139";"module.training_block4.exec-9572.GoNoGo4";;;;;;;;;;;;;;;;;;;;;;;;;;;;;;;;;;;;;;;;;;;;;;;;;;;;;;;;;;;"1254";"2014-07-15 20:39:01.143";"NST_miss";"0";"0";"FINISHED";"NONE";"failure";"0";"0";"2014-07-15 20:38:59.888";"1";;;;;;;;;;;;;;;;;;;;;
"RA_test";;;"Windows 7";"Rachel's Experiment (D.T.)";"1.0";"2";"1";"1";"2";"1";"1";"2014-07-15 20:32:03.664";"2014-07-15 20:45:27.560";"1";"0";"0";"141";"140";"module.training_block4.exec-9572.GoNoGo4";;;;;;;;;;;;;;;;;;;;;;;;;;;;;;;;;;;;;;;;;;;;;;;;;;;;;;;;;;;"1259";"2014-07-15 20:39:03.684";"NST_miss";"10";"1";"FINISHED";"NONE";"failure";"0";"0";"2014-07-15 20:39:02.422";"2";;;;;;;;;;;;;;;;;;;;;
"RA_test";;;"Windows 7";"Rachel's Experiment (D.T.)";"1.0";"2";"1";"1";"2";"1";"1";"2014-07-15 20:32:03.664";"2014-07-15 20:45:27.560";"1";"0";"0";"142";"141";"module.training_block4.exec-9572.GoNoGo4";;;;;;;;;;;;;;;;;;;;;;;;;;;;;;;;;;;;;;;;;;;;;;;;;;;;;;;;;;;"1260";"2014-07-15 20:39:06.241";"NST_miss";"20";"0";"FINISHED";"NONE";"failure";"0";"0";"2014-07-15 20:39:04.978";"3";;;;;;;;;;;;;;;;;;;;;
"RA_test";;;"Windows 7";"Rachel's Experiment (D.T.)";"1.0";"2";"1";"1";"2";"1";"1";"2014-07-15 20:32:03.664";"2014-07-15 20:45:27.560";"1";"0";"0";"143";"142";"module.training_block4.exec-9572.GoNoGo4";;;;;;;;;;;;;;;;;;;;;;;;;;;;;;;;;;;;;;;;;;;;;;;;;;;;;;;;;;;"1262";"2014-07-15 20:39:08.786";"NST_miss";"2";"0";"FINISHED";"NONE";"failure";"0";"0";"2014-07-15 20:39:07.520";"1";;;;;;;;;;;;;;;;;;;;;
"RA_test";;;"Windows 7";"Rachel's Experiment (D.T.)";"1.0";"2";"1";"1";"2";"1";"1";"2014-07-15 20:32:03.664";"2014-07-15 20:45:27.560";"1";"0";"0";"144";"143";"module.training_block4.exec-9572.GoNoGo4";;;;;;;;;;;;;;;;;;;;;;;;;;;;;;;;;;;;;;;;;;;;;;;;;;;;;;;;;;;"1257";"2014-07-15 20:39:11.340";"NST_miss";"22";"1";"FINISHED";"NONE";"failure";"0";"0";"2014-07-15 20:39:10.079";"3";;;;;;;;;;;;;;;;;;;;;
"RA_test";;;"Windows 7";"Rachel's Experiment (D.T.)";"1.0";"2";"1";"1";"2";"1";"1";"2014-07-15 20:32:03.664";"2014-07-15 20:45:27.560";"1";"0";"0";"145";"144";"module.training_block4.exec-9572.GoNoGo4";;;;;;;;;;;;;;;;;;;;;;;;;;;;;;;;;;;;;;;;;;;;;;;;;;;;;;;;;;;"1254";"2014-07-15 20:39:13.876";"NST_miss";"26";"0";"FINISHED";"NONE";"failure";"0";"0";"2014-07-15 20:39:12.618";"3";;;;;;;;;;;;;;;;;;;;;
"RA_test";;;"Windows 7";"Rachel's Experiment (D.T.)";"1.0";"2";"1";"1";"2";"1";"1";"2014-07-15 20:32:03.664";"2014-07-15 20:45:27.560";"1";"0";"0";"146";"145";"module.training_block4.exec-9572.GoNoGo4";;;;;;;;;;;;;;;;;;;;;;;;;;;;;;;;;;;;;;;;;;;;;;;;;;;;;;;;;;;"1260";"2014-07-15 20:39:16.407";"NST_miss";"18";"0";"FINISHED";"NONE";"failure";"0";"0";"2014-07-15 20:39:15.144";"3";;;;;;;;;;;;;;;;;;;;;
"RA_test";;;"Windows 7";"Rachel's Experiment (D.T.)";"1.0";"2";"1";"1";"2";"1";"1";"2014-07-15 20:32:03.664";"2014-07-15 20:45:27.560";"1";"0";"0";"147";"146";"module.training_block4.exec-9572.GoNoGo4";;;;;;;;;;;;;;;;;;;;;;;;;;;;;;;;;;;;;;;;;;;;;;;;;;;;;;;;;;;"1249";"2014-07-15 20:39:18.938";"NST_miss";"24";"1";"FINISHED";"NONE";"failure";"0";"0";"2014-07-15 20:39:17.685";"3";;;;;;;;;;;;;;;;;;;;;
"RA_test";;;"Windows 7";"Rachel's Experiment (D.T.)";"1.0";"2";"1";"1";"2";"1";"1";"2014-07-15 20:32:03.664";"2014-07-15 20:45:27.560";"1";"0";"0";"148";"147";"module.training_block4.exec-9572.GoNoGo4";;;;;;;;;;;;;;;;;;;;;;;;;;;;;;;;;;;;;;;;;;;;;;;;;;;;;;;;;;;"1260";"2014-07-15 20:39:21.487";"NST_miss";"33";"0";"FINISHED";"NONE";"failure";"0";"0";"2014-07-15 20:39:20.224";"3";;;;;;;;;;;;;;;;;;;;;
"RA_test";;;"Windows 7";"Rachel's Experiment (D.T.)";"1.0";"2";"1";"1";"2";"1";"1";"2014-07-15 20:32:03.664";"2014-07-15 20:45:27.560";"1";"0";"0";"149";"148";"module.training_block4.exec-9572.GoNoGo4";;;;;;;;;;;;;;;;;;;;;;;;;;;;;;;;;;;;;;;;;;;;;;;;;;;;;;;;;;;"1262";"2014-07-15 20:39:24.046";"NST_miss";"17";"0";"FINISHED";"NONE";"failure";"0";"0";"2014-07-15 20:39:22.781";"2";;;;;;;;;;;;;;;;;;;;;
"RA_test";;;"Windows 7";"Rachel's Experiment (D.T.)";"1.0";"2";"1";"1";"2";"1";"1";"2014-07-15 20:32:03.664";"2014-07-15 20:45:27.560";"1";"0";"0";"150";"149";"module.training_block4.exec-9572.GoNoGo4";;;;;;;;;;;;;;;;;;;;;;;;;;;;;;;;;;;;;;;;;;;;;;;;;;;;;;;;;;;"1257";"2014-07-15 20:39:26.616";"NST_miss";"1";"0";"FINISHED";"NONE";"failure";"0";"0";"2014-07-15 20:39:25.356";"1";;;;;;;;;;;;;;;;;;;;;
"RA_test";;;"Windows 7";"Rachel's Experiment (D.T.)";"1.0";"2";"1";"1";"2";"1";"1";"2014-07-15 20:32:03.664";"2014-07-15 20:45:27.560";"1";"0";"0";"151";"150";"module.training_block4.exec-9572.GoNoGo4";;;;;;;;;;;;;;;;;;;;;;;;;;;;;;;;;;;;;;;;;;;;;;;;;;;;;;;;;;;"1249";"2014-07-15 20:39:29.137";"NST_miss";"6";"1";"FINISHED";"NONE";"failure";"0";"0";"2014-07-15 20:39:27.884";"1";;;;;;;;;;;;;;;;;;;;;
"RA_test";;;"Windows 7";"Rachel's Experiment (D.T.)";"1.0";"2";"1";"1";"2";"1";"1";"2014-07-15 20:32:03.664";"2014-07-15 20:45:27.560";"1";"0";"0";"152";"151";"module.training_block4.exec-9572.GoNoGo4";;;;;;;;;;;;;;;;;;;;;;;;;;;;;;;;;;;;;;;;;;;;;;;;;;;;;;;;;;;"1260";"2014-07-15 20:39:31.673";"NST_miss";"11";"1";"FINISHED";"NONE";"failure";"0";"0";"2014-07-15 20:39:30.410";"2";;;;;;;;;;;;;;;;;;;;;
"RA_test";;;"Windows 7";"Rachel's Experiment (D.T.)";"1.0";"2";"1";"1";"2";"1";"1";"2014-07-15 20:32:03.664";"2014-07-15 20:45:27.560";"1";"0";"0";"153";"152";"module.training_block4.exec-9572.GoNoGo4";;;;;;;;;;;;;;;;;;;;;;;;;;;;;;;;;;;;;;;;;;;;;;;;;;;;;;;;;;;"1254";"2014-07-15 20:39:34.209";"NST_miss";"29";"0";"FINISHED";"NONE";"failure";"0";"0";"2014-07-15 20:39:32.951";"3";;;;;;;;;;;;;;;;;;;;;
"RA_test";;;"Windows 7";"Rachel's Experiment (D.T.)";"1.0";"2";"1";"1";"2";"1";"1";"2014-07-15 20:32:03.664";"2014-07-15 20:45:27.560";"1";"0";"0";"154";"153";"module.training_block4.exec-9572.GoNoGo4";;;;;;;;;;;;;;;;;;;;;;;;;;;;;;;;;;;;;;;;;;;;;;;;;;;;;;;;;;;"1260";"2014-07-15 20:39:36.768";"NST_miss";"15";"1";"FINISHED";"NONE";"failure";"0";"0";"2014-07-15 20:39:35.505";"2";;;;;;;;;;;;;;;;;;;;;
"RA_test";;;"Windows 7";"Rachel's Experiment (D.T.)";"1.0";"2";"1";"1";"2";"1";"1";"2014-07-15 20:32:03.664";"2014-07-15 20:45:27.560";"1";"0";"0";"155";"154";"module.training_block4.exec-9572.GoNoGo4";;;;;;;;;;;;;;;;;;;;;;;;;;;;;;;;;;;;;;;;;;;;;;;;;;;;;;;;;;;"1254";"2014-07-15 20:39:39.320";"NST_miss";"28";"1";"FINISHED";"NONE";"failure";"0";"0";"2014-07-15 20:39:38.063";"3";;;;;;;;;;;;;;;;;;;;;
"RA_test";;;"Windows 7";"Rachel's Experiment (D.T.)";"1.0";"2";"1";"1";"2";"1";"1";"2014-07-15 20:32:03.664";"2014-07-15 20:45:27.560";"1";"0";"0";"156";"155";"module.training_block4.exec-9572.GoNoGo4";;;;;;;;;;;;;;;;;;;;;;;;;;;;;;;;;;;;;;;;;;;;;;;;;;;;;;;;;;;"1260";"2014-07-15 20:39:41.877";"NST_miss";"16";"0";"FINISHED";"NONE";"failure";"0";"0";"2014-07-15 20:39:40.614";"2";;;;;;;;;;;;;;;;;;;;;
"RA_test";;;"Windows 7";"Rachel's Experiment (D.T.)";"1.0";"2";"1";"1";"2";"1";"1";"2014-07-15 20:32:03.664";"2014-07-15 20:45:27.560";"1";"0";"0";"157";"156";"module.training_block4.exec-9572.GoNoGo4";;;;;;;;;;;;;;;;;;;;;;;;;;;;;;;;;;;;;;;;;;;;;;;;;;;;;;;;;;;"1252";"2014-07-15 20:39:44.399";"NST_miss";"14";"0";"FINISHED";"NONE";"failure";"0";"0";"2014-07-15 20:39:43.147";"2";;;;;;;;;;;;;;;;;;;;;
"RA_test";;;"Windows 7";"Rachel's Experiment (D.T.)";"1.0";"2";"1";"1";"2";"1";"1";"2014-07-15 20:32:03.664";"2014-07-15 20:45:27.560";"1";"0";"0";"158";"157";"module.training_block4.exec-9572.GoNoGo4";;;;;;;;;;;;;;;;;;;;;;;;;;;;;;;;;;;;;;;;;;;;;;;;;;;;;;;;;;;"1255";"2014-07-15 20:39:46.928";"NST_miss";"32";"1";"FINISHED";"NONE";"failure";"0";"0";"2014-07-15 20:39:45.670";"3";;;;;;;;;;;;;;;;;;;;;
"RA_test";;;"Windows 7";"Rachel's Experiment (D.T.)";"1.0";"2";"1";"1";"2";"1";"1";"2014-07-15 20:32:03.664";"2014-07-15 20:45:27.560";"1";"0";"0";"159";"158";"module.training_block4.exec-9572.GoNoGo4";;;;;;;;;;;;;;;;;;;;;;;;;;;;;;;;;;;;;;;;;;;;;;;;;;;;;;;;;;;"1249";"2014-07-15 20:39:49.451";"NST_miss";"9";"0";"FINISHED";"NONE";"failure";"0";"0";"2014-07-15 20:39:48.199";"2";;;;;;;;;;;;;;;;;;;;;
"RA_test";;;"Windows 7";"Rachel's Experiment (D.T.)";"1.0";"2";"1";"1";"2";"1";"1";"2014-07-15 20:32:03.664";"2014-07-15 20:45:27.560";"1";"0";"0";"160";"159";"module.devaluation_practice.exec-2202.devalPractice";;;;;;;;;;;;"17654";"2014-07-15 20:40:17.800";"0";"8";"3";"4";"7188";"6344";"1015";"2014-07-15 20:40:00.133";;;;;;;;;;;;;;;;;;;;;;;;;;;;;;;;;;;;;;;;;;;;;;;;;;;;;;;;;;;;;;;;;;;;;;
"RA_test";;;"Windows 7";"Rachel's Experiment (D.T.)";"1.0";"2";"1";"1";"2";"1";"1";"2014-07-15 20:32:03.664";"2014-07-15 20:45:27.560";"1";"0";"0";"161";"160";"module.devaluation_practice.exec-2202.devalPractice";;;;;;;;;;;;"16890";"2014-07-15 20:40:34.739";"1";"3";"5";"5";"4029";"4411";"5438";"2014-07-15 20:40:17.847";;;;;;;;;;;;;;;;;;;;;;;;;;;;;;;;;;;;;;;;;;;;;;;;;;;;;;;;;;;;;;;;;;;;;;
"RA_test";;;"Windows 7";"Rachel's Experiment (D.T.)";"1.0";"2";"1";"1";"2";"1";"1";"2014-07-15 20:32:03.664";"2014-07-15 20:45:27.560";"1";"0";"0";"162";"161";"module.devaluation_practice.exec-2202.devalPractice";;;;;;;;;;;;"13021";"2014-07-15 20:40:47.786";"2";"3";"1";"3";"3548";"2266";"4184";"2014-07-15 20:40:34.771";;;;;;;;;;;;;;;;;;;;;;;;;;;;;;;;;;;;;;;;;;;;;;;;;;;;;;;;;;;;;;;;;;;;;;
"RA_test";;;"Windows 7";"Rachel's Experiment (D.T.)";"1.0";"2";"1";"1";"2";"1";"1";"2014-07-15 20:32:03.664";"2014-07-15 20:45:27.560";"1";"0";"0";"163";"162";"module.devaluation_practice.exec-2202.devalPractice";;;;;;;;;;;;"11471";"2014-07-15 20:40:59.299";"3";"4";"4";"5";"5144";"1594";"1717";"2014-07-15 20:40:47.817";;;;;;;;;;;;;;;;;;;;;;;;;;;;;;;;;;;;;;;;;;;;;;;;;;;;;;;;;;;;;;;;;;;;;;
"RA_test";;;"Windows 7";"Rachel's Experiment (D.T.)";"1.0";"2";"1";"1";"2";"1";"1";"2014-07-15 20:32:03.664";"2014-07-15 20:45:27.560";"1";"0";"0";"164";"163";"module.devaluation_block1.exec-9198.deval1";"10235";"2014-07-15 20:41:16.995";"3";"2";"7";"5";"3759";"1889";"1576";"2014-07-15 20:41:06.759";"1";;;;;;;;;;;;;;;;;;;;;;;;;;;;;;;;;;;;;;;;;;;;;;;;;;;;;;;;;;;;;;;;;;;;;;;;;;;;;;;;
"RA_test";;;"Windows 7";"Rachel's Experiment (D.T.)";"1.0";"2";"1";"1";"2";"1";"1";"2014-07-15 20:32:03.664";"2014-07-15 20:45:27.560";"1";"0";"0";"165";"164";"module.devaluation_block1.exec-9198.deval1";"13679";"2014-07-15 20:41:30.701";"4";"4";"4";"6";"6708";"1698";"2251";"2014-07-15 20:41:17.027";"1";;;;;;;;;;;;;;;;;;;;;;;;;;;;;;;;;;;;;;;;;;;;;;;;;;;;;;;;;;;;;;;;;;;;;;;;;;;;;;;;
"RA_test";;;"Windows 7";"Rachel's Experiment (D.T.)";"1.0";"2";"1";"1";"2";"1";"1";"2014-07-15 20:32:03.664";"2014-07-15 20:45:27.560";"1";"0";"0";"166";"165";"module.devaluation_block1.exec-9198.deval1";"9861";"2014-07-15 20:41:40.619";"15";"1";"1";"1";"2932";"2219";"1693";"2014-07-15 20:41:30.764";"2";;;;;;;;;;;;;;;;;;;;;;;;;;;;;;;;;;;;;;;;;;;;;;;;;;;;;;;;;;;;;;;;;;;;;;;;;;;;;;;;
"RA_test";;;"Windows 7";"Rachel's Experiment (D.T.)";"1.0";"2";"1";"1";"2";"1";"1";"2014-07-15 20:32:03.664";"2014-07-15 20:45:27.560";"1";"0";"0";"167";"166";"module.devaluation_block1.exec-9198.deval1";"10039";"2014-07-15 20:41:50.706";"5";"3";"7";"7";"2977";"1406";"2642";"2014-07-15 20:41:40.666";"1";;;;;;;;;;;;;;;;;;;;;;;;;;;;;;;;;;;;;;;;;;;;;;;;;;;;;;;;;;;;;;;;;;;;;;;;;;;;;;;;
"RA_test";;;"Windows 7";"Rachel's Experiment (D.T.)";"1.0";"2";"1";"1";"2";"1";"1";"2014-07-15 20:32:03.664";"2014-07-15 20:45:27.560";"1";"0";"0";"168";"167";"module.devaluation_block1.exec-9198.deval1";"16634";"2014-07-15 20:42:07.404";"0";"2";"3";"5";"9213";"2082";"2310";"2014-07-15 20:41:50.768";"1";;;;;;;;;;;;;;;;;;;;;;;;;;;;;;;;;;;;;;;;;;;;;;;;;;;;;;;;;;;;;;;;;;;;;;;;;;;;;;;;
"RA_test";;;"Windows 7";"Rachel's Experiment (D.T.)";"1.0";"2";"1";"1";"2";"1";"1";"2014-07-15 20:32:03.664";"2014-07-15 20:45:27.560";"1";"0";"0";"169";"168";"module.devaluation_block1.exec-9198.deval1";"6977";"2014-07-15 20:42:14.429";"13";"5";"4";"6";"747";"748";"2460";"2014-07-15 20:42:07.451";"2";;;;;;;;;;;;;;;;;;;;;;;;;;;;;;;;;;;;;;;;;;;;;;;;;;;;;;;;;;;;;;;;;;;;;;;;;;;;;;;;
"RA_test";;;"Windows 7";"Rachel's Experiment (D.T.)";"1.0";"2";"1";"1";"2";"1";"1";"2014-07-15 20:32:03.664";"2014-07-15 20:45:27.560";"1";"0";"0";"170";"169";"module.devaluation_block1.exec-9198.deval1";"8901";"2014-07-15 20:42:23.388";"2";"2";"3";"4";"982";"1542";"3347";"2014-07-15 20:42:14.491";"1";;;;;;;;;;;;;;;;;;;;;;;;;;;;;;;;;;;;;;;;;;;;;;;;;;;;;;;;;;;;;;;;;;;;;;;;;;;;;;;;
"RA_test";;;"Windows 7";"Rachel's Experiment (D.T.)";"1.0";"2";"1";"1";"2";"1";"1";"2014-07-15 20:32:03.664";"2014-07-15 20:45:27.560";"1";"0";"0";"171";"170";"module.devaluation_block1.exec-9198.deval1";"8075";"2014-07-15 20:42:31.501";"8";"4";"4";"5";"1181";"2038";"1857";"2014-07-15 20:42:23.419";"1";;;;;;;;;;;;;;;;;;;;;;;;;;;;;;;;;;;;;;;;;;;;;;;;;;;;;;;;;;;;;;;;;;;;;;;;;;;;;;;;
"RA_test";;;"Windows 7";"Rachel's Experiment (D.T.)";"1.0";"2";"1";"1";"2";"1";"1";"2014-07-15 20:32:03.664";"2014-07-15 20:45:27.560";"1";"0";"0";"172";"171";"module.devaluation_block1.exec-9198.deval1";"11508";"2014-07-15 20:42:43.040";"20";"2";"1";"4";"1437";"1728";"5315";"2014-07-15 20:42:31.532";"3";;;;;;;;;;;;;;;;;;;;;;;;;;;;;;;;;;;;;;;;;;;;;;;;;;;;;;;;;;;;;;;;;;;;;;;;;;;;;;;;
"RA_test";;;"Windows 7";"Rachel's Experiment (D.T.)";"1.0";"2";"1";"1";"2";"1";"1";"2014-07-15 20:32:03.664";"2014-07-15 20:45:27.560";"1";"0";"0";"173";"172";"module.devaluation_block1.exec-9198.deval1";"8295";"2014-07-15 20:42:51.371";"14";"5";"4";"6";"789";"2701";"1799";"2014-07-15 20:42:43.072";"2";;;;;;;;;;;;;;;;;;;;;;;;;;;;;;;;;;;;;;;;;;;;;;;;;;;;;;;;;;;;;;;;;;;;;;;;;;;;;;;;
"RA_test";;;"Windows 7";"Rachel's Experiment (D.T.)";"1.0";"2";"1";"1";"2";"1";"1";"2014-07-15 20:32:03.664";"2014-07-15 20:45:27.560";"1";"0";"0";"174";"173";"module.devaluation_block1.exec-9198.deval1";"11106";"2014-07-15 20:43:02.512";"22";"5";"3";"7";"1044";"2355";"4701";"2014-07-15 20:42:51.402";"3";;;;;;;;;;;;;;;;;;;;;;;;;;;;;;;;;;;;;;;;;;;;;;;;;;;;;;;;;;;;;;;;;;;;;;;;;;;;;;;;
"RA_test";;;"Windows 7";"Rachel's Experiment (D.T.)";"1.0";"2";"1";"1";"2";"1";"1";"2014-07-15 20:32:03.664";"2014-07-15 20:45:27.560";"1";"0";"0";"175";"174";"module.devaluation_block1.exec-9198.deval1";"8124";"2014-07-15 20:43:10.664";"11";"4";"1";"1";"885";"2242";"1980";"2014-07-15 20:43:02.543";"2";;;;;;;;;;;;;;;;;;;;;;;;;;;;;;;;;;;;;;;;;;;;;;;;;;;;;;;;;;;;;;;;;;;;;;;;;;;;;;;;
"RA_test";;;"Windows 7";"Rachel's Experiment (D.T.)";"1.0";"2";"1";"1";"2";"1";"1";"2014-07-15 20:32:03.664";"2014-07-15 20:45:27.560";"1";"0";"0";"176";"175";"module.devaluation_block1.exec-9198.deval1";"7575";"2014-07-15 20:43:18.290";"12";"3";"4";"5";"1433";"1358";"1773";"2014-07-15 20:43:10.711";"2";;;;;;;;;;;;;;;;;;;;;;;;;;;;;;;;;;;;;;;;;;;;;;;;;;;;;;;;;;;;;;;;;;;;;;;;;;;;;;;;
"RA_test";;;"Windows 7";"Rachel's Experiment (D.T.)";"1.0";"2";"1";"1";"2";"1";"1";"2014-07-15 20:32:03.664";"2014-07-15 20:45:27.560";"1";"0";"0";"177";"176";"module.devaluation_block1.exec-9198.deval1";"8227";"2014-07-15 20:43:26.556";"21";"6";"1";"7";"1558";"1523";"2124";"2014-07-15 20:43:18.322";"3";;;;;;;;;;;;;;;;;;;;;;;;;;;;;;;;;;;;;;;;;;;;;;;;;;;;;;;;;;;;;;;;;;;;;;;;;;;;;;;;
"RA_test";;;"Windows 7";"Rachel's Experiment (D.T.)";"1.0";"2";"1";"1";"2";"1";"1";"2014-07-15 20:32:03.664";"2014-07-15 20:45:27.560";"1";"0";"0";"178";"177";"module.devaluation_block1.exec-9198.deval1";"7636";"2014-07-15 20:43:34.220";"16";"1";"1";"1";"1518";"1575";"1522";"2014-07-15 20:43:26.592";"2";;;;;;;;;;;;;;;;;;;;;;;;;;;;;;;;;;;;;;;;;;;;;;;;;;;;;;;;;;;;;;;;;;;;;;;;;;;;;;;;
"RA_test";;;"Windows 7";"Rachel's Experiment (D.T.)";"1.0";"2";"1";"1";"2";"1";"1";"2014-07-15 20:32:03.664";"2014-07-15 20:45:27.560";"1";"0";"0";"179";"178";"module.devaluation_block1.exec-9198.deval1";"8738";"2014-07-15 20:43:43.023";"18";"4";"1";"5";"1565";"2906";"1240";"2014-07-15 20:43:34.283";"3";;;;;;;;;;;;;;;;;;;;;;;;;;;;;;;;;;;;;;;;;;;;;;;;;;;;;;;;;;;;;;;;;;;;;;;;;;;;;;;;
"RA_test";;;"Windows 7";"Rachel's Experiment (D.T.)";"1.0";"2";"1";"1";"2";"1";"1";"2014-07-15 20:32:03.664";"2014-07-15 20:45:27.560";"1";"0";"0";"180";"179";"module.devaluation_block1.exec-9198.deval1";"8429";"2014-07-15 20:43:51.505";"23";"7";"5";"7";"1783";"2420";"1205";"2014-07-15 20:43:43.070";"3";;;;;;;;;;;;;;;;;;;;;;;;;;;;;;;;;;;;;;;;;;;;;;;;;;;;;;;;;;;;;;;;;;;;;;;;;;;;;;;;
"RA_test";;;"Windows 7";"Rachel's Experiment (D.T.)";"1.0";"2";"1";"1";"2";"1";"1";"2014-07-15 20:32:03.664";"2014-07-15 20:45:27.560";"1";"0";"0";"181";"180";"module.devaluation_block1.exec-9198.deval1";"10971";"2014-07-15 20:44:02.506";"10";"2";"1";"2";"3876";"1921";"2142";"2014-07-15 20:43:51.536";"2";;;;;;;;;;;;;;;;;;;;;;;;;;;;;;;;;;;;;;;;;;;;;;;;;;;;;;;;;;;;;;;;;;;;;;;;;;;;;;;;
"RA_test";;;"Windows 7";"Rachel's Experiment (D.T.)";"1.0";"2";"1";"1";"2";"1";"1";"2014-07-15 20:32:03.664";"2014-07-15 20:45:27.560";"1";"0";"0";"182";"181";"module.devaluation_block1.exec-9198.deval1";"8329";"2014-07-15 20:44:10.878";"6";"3";"5";"6";"938";"1480";"2890";"2014-07-15 20:44:02.553";"1";;;;;;;;;;;;;;;;;;;;;;;;;;;;;;;;;;;;;;;;;;;;;;;;;;;;;;;;;;;;;;;;;;;;;;;;;;;;;;;;
"RA_test";;;"Windows 7";"Rachel's Experiment (D.T.)";"1.0";"2";"1";"1";"2";"1";"1";"2014-07-15 20:32:03.664";"2014-07-15 20:45:27.560";"1";"0";"0";"183";"182";"module.devaluation_block1.exec-9198.deval1";"10177";"2014-07-15 20:44:21.084";"24";"6";"5";"5";"2166";"4143";"862";"2014-07-15 20:44:10.909";"3";;;;;;;;;;;;;;;;;;;;;;;;;;;;;;;;;;;;;;;;;;;;;;;;;;;;;;;;;;;;;;;;;;;;;;;;;;;;;;;;
"RA_test";;;"Windows 7";"Rachel's Experiment (D.T.)";"1.0";"2";"1";"1";"2";"1";"1";"2014-07-15 20:32:03.664";"2014-07-15 20:45:27.560";"1";"0";"0";"184";"183";"module.devaluation_block1.exec-9198.deval1";"8755";"2014-07-15 20:44:29.875";"1";"3";"3";"4";"3025";"1141";"1575";"2014-07-15 20:44:21.115";"1";;;;;;;;;;;;;;;;;;;;;;;;;;;;;;;;;;;;;;;;;;;;;;;;;;;;;;;;;;;;;;;;;;;;;;;;;;;;;;;;
"RA_test";;;"Windows 7";"Rachel's Experiment (D.T.)";"1.0";"2";"1";"1";"2";"1";"1";"2014-07-15 20:32:03.664";"2014-07-15 20:45:27.560";"1";"0";"0";"185";"184";"module.devaluation_block1.exec-9198.deval1";"13491";"2014-07-15 20:44:43.416";"25";"4";"4";"5";"695";"8301";"1458";"2014-07-15 20:44:29.922";"3";;;;;;;;;;;;;;;;;;;;;;;;;;;;;;;;;;;;;;;;;;;;;;;;;;;;;;;;;;;;;;;;;;;;;;;;;;;;;;;;
"RA_test";;;"Windows 7";"Rachel's Experiment (D.T.)";"1.0";"2";"1";"1";"2";"1";"1";"2014-07-15 20:32:03.664";"2014-07-15 20:45:27.560";"1";"0";"0";"186";"185";"module.devaluation_block1.exec-9198.deval1";"7770";"2014-07-15 20:44:51.235";"9";"4";"1";"4";"702";"2233";"1820";"2014-07-15 20:44:43.463";"2";;;;;;;;;;;;;;;;;;;;;;;;;;;;;;;;;;;;;;;;;;;;;;;;;;;;;;;;;;;;;;;;;;;;;;;;;;;;;;;;
"RA_test";;;"Windows 7";"Rachel's Experiment (D.T.)";"1.0";"2";"1";"1";"2";"1";"1";"2014-07-15 20:32:03.664";"2014-07-15 20:45:27.560";"1";"0";"0";"187";"186";"module.devaluation_block1.exec-9198.deval1";"7985";"2014-07-15 20:44:59.270";"26";"8";"7";"8";"1263";"1218";"2493";"2014-07-15 20:44:51.282";"3";;;;;;;;;;;;;;;;;;;;;;;;;;;;;;;;;;;;;;;;;;;;;;;;;;;;;;;;;;;;;;;;;;;;;;;;;;;;;;;;
"RA_test";;;"Windows 7";"Rachel's Experiment (D.T.)";"1.0";"2";"1";"1";"2";"1";"1";"2014-07-15 20:32:03.664";"2014-07-15 20:45:27.560";"1";"0";"0";"188";"187";"module.devaluation_block1.exec-9198.deval1";"8400";"2014-07-15 20:45:07.722";"17";"1";"1";"1";"2506";"1565";"1320";"2014-07-15 20:44:59.317";"2";;;;;;;;;;;;;;;;;;;;;;;;;;;;;;;;;;;;;;;;;;;;;;;;;;;;;;;;;;;;;;;;;;;;;;;;;;;;;;;;
"RA_test";;;"Windows 7";"Rachel's Experiment (D.T.)";"1.0";"2";"1";"1";"2";"1";"1";"2014-07-15 20:32:03.664";"2014-07-15 20:45:27.560";"1";"0";"0";"189";"188";"module.devaluation_block1.exec-9198.deval1";"8450";"2014-07-15 20:45:16.211";"19";"7";"2";"8";"913";"2583";"1934";"2014-07-15 20:45:07.769";"3";;;;;;;;;;;;;;;;;;;;;;;;;;;;;;;;;;;;;;;;;;;;;;;;;;;;;;;;;;;;;;;;;;;;;;;;;;;;;;;;
"RA_test";;;"Windows 7";"Rachel's Experiment (D.T.)";"1.0";"2";"1";"1";"2";"1";"1";"2014-07-15 20:32:03.664";"2014-07-15 20:45:27.560";"1";"0";"0";"190";"189";"module.devaluation_block1.exec-9198.deval1";"9080";"2014-07-15 20:45:25.341";"7";"2";"2";"2";"3939";"863";"1254";"2014-07-15 20:45:16.258";"1";;;;;;;;;;;;;;;;;;;;;;;;;;;;;;;;;;;;;;;;;;;;;;;;;;;;;;;;;;;;;;;;;;;;;;;;;;;;;;;;
