"user.name";"user.yearOfBirth";"user.sex";"user.osName";"module.name";"module.version";"module.online.subject.code";"module.online.study.id";"module.online.module.nr";"module.online.group.nr";"session.id";"session.index";"session.startTime";"session.endTime";"session.completed";"session.node-7415.conditionType";"session.node-9188.DevalQorder";"trial.id";"trial.index";"trial.name";"trial.deval1.durationTime";"trial.deval1.endTime";"trial.deval1.icon";"trial.deval1.Resp_Attractive";"trial.deval1.Resp_Eat";"trial.deval1.Resp_Taste";"trial.deval1.RT_Attractive";"trial.deval1.RT_Eat";"trial.deval1.RT_Taste";"trial.deval1.startTime";"trial.deval1.stimulus type";"trial.devalPractice.durationTime";"trial.devalPractice.endTime";"trial.devalPractice.icon";"trial.devalPractice.Resp_Attractive";"trial.devalPractice.Resp_Eat";"trial.devalPractice.Resp_Taste";"trial.devalPractice.RT_Attractive";"trial.devalPractice.RT_Eat";"trial.devalPractice.RT_Taste";"trial.devalPractice.startTime";"trial.devalPractice.stimulus type";"trial.GoNoGo1.durationTime";"trial.GoNoGo1.endTime";"trial.GoNoGo1.Error Type";"trial.GoNoGo1.icon";"trial.GoNoGo1.location";"trial.GoNoGo1.outcome";"trial.GoNoGo1.response";"trial.GoNoGo1.result";"trial.GoNoGo1.RT";"trial.GoNoGo1.signal";"trial.GoNoGo1.startTime";"trial.GoNoGo1.stimulus type";"trial.GoNoGo2.durationTime";"trial.GoNoGo2.endTime";"trial.GoNoGo2.Error Type";"trial.GoNoGo2.icon";"trial.GoNoGo2.location";"trial.GoNoGo2.outcome";"trial.GoNoGo2.response";"trial.GoNoGo2.result";"trial.GoNoGo2.RT";"trial.GoNoGo2.signal";"trial.GoNoGo2.startTime";"trial.GoNoGo2.stimulus type";"trial.GoNoGo3.durationTime";"trial.GoNoGo3.endTime";"trial.GoNoGo3.Error Type";"trial.GoNoGo3.icon";"trial.GoNoGo3.location";"trial.GoNoGo3.outcome";"trial.GoNoGo3.response";"trial.GoNoGo3.result";"trial.GoNoGo3.RT";"trial.GoNoGo3.signal";"trial.GoNoGo3.startTime";"trial.GoNoGo3.stimulus type";"trial.GoNoGo4.durationTime";"trial.GoNoGo4.endTime";"trial.GoNoGo4.Error Type";"trial.GoNoGo4.icon";"trial.GoNoGo4.location";"trial.GoNoGo4.outcome";"trial.GoNoGo4.response";"trial.GoNoGo4.result";"trial.GoNoGo4.RT";"trial.GoNoGo4.signal";"trial.GoNoGo4.startTime";"trial.GoNoGo4.stimulus type";"trial.GoNoGo_Practice.durationTime";"trial.GoNoGo_Practice.endTime";"trial.GoNoGo_Practice.icon";"trial.GoNoGo_Practice.location";"trial.GoNoGo_Practice.outcome";"trial.GoNoGo_Practice.response";"trial.GoNoGo_Practice.result";"trial.GoNoGo_Practice.RT";"trial.GoNoGo_Practice.signal";"trial.GoNoGo_Practice.startTime";"trial.GoNoGo_Practice.stimulus type";"trial.GoNoGo_Tutorial.durationTime";"trial.GoNoGo_Tutorial.endTime";"trial.GoNoGo_Tutorial.icon";"trial.GoNoGo_Tutorial.location";"trial.GoNoGo_Tutorial.outcome";"trial.GoNoGo_Tutorial.response";"trial.GoNoGo_Tutorial.result";"trial.GoNoGo_Tutorial.RT";"trial.GoNoGo_Tutorial.signal";"trial.GoNoGo_Tutorial.startTime"
"AC2014";;;"Windows 7";"Rachel's Experiment (D.T.)";"1.0";"2";"1";"1";"2";"1";"1";"2014-09-29 19:27:38.254";"2014-09-29 19:43:30.014";"1";"0";"0";"1";"0";"module.GoNoGotutorial.exec-5325.GoNoGo_Tutorial";;;;;;;;;;;;;;;;;;;;;;;;;;;;;;;;;;;;;;;;;;;;;;;;;;;;;;;;;;;;;;;;;;;;;;;;;;;;;;;;;;"4000";"2014-09-29 19:29:14.076";"leftResponse";"0";"FINISHED";"LEFT";"success";"2666";"0";"2014-09-29 19:29:10.075"
"AC2014";;;"Windows 7";"Rachel's Experiment (D.T.)";"1.0";"2";"1";"1";"2";"1";"1";"2014-09-29 19:27:38.254";"2014-09-29 19:43:30.014";"1";"0";"0";"2";"1";"module.GoNoGotutorial.exec-5325.GoNoGo_Tutorial";;;;;;;;;;;;;;;;;;;;;;;;;;;;;;;;;;;;;;;;;;;;;;;;;;;;;;;;;;;;;;;;;;;;;;;;;;;;;;;;;;"3999";"2014-09-29 19:29:19.393";"rightResponse";"1";"FINISHED";"RIGHT";"success";"1021";"0";"2014-09-29 19:29:15.393"
"AC2014";;;"Windows 7";"Rachel's Experiment (D.T.)";"1.0";"2";"1";"1";"2";"1";"1";"2014-09-29 19:27:38.254";"2014-09-29 19:43:30.014";"1";"0";"0";"3";"2";"module.GoNoGotutorial.exec-5325.GoNoGo_Tutorial";;;;;;;;;;;;;;;;;;;;;;;;;;;;;;;;;;;;;;;;;;;;;;;;;;;;;;;;;;;;;;;;;;;;;;;;;;;;;;;;;;"3999";"2014-09-29 19:29:24.706";"quickResponse";"0";"FINISHED";"NONE";"failure";"0";"0";"2014-09-29 19:29:20.706"
"AC2014";;;"Windows 7";"Rachel's Experiment (D.T.)";"1.0";"2";"1";"1";"2";"1";"1";"2014-09-29 19:27:38.254";"2014-09-29 19:43:30.014";"1";"0";"0";"4";"3";"module.GoNoGopractice.exec-3280.GoNoGo_Practice";;;;;;;;;;;;;;;;;;;;;;;;;;;;;;;;;;;;;;;;;;;;;;;;;;;;;;;;;;;;;;;;;;;;;;;"1960";"2014-09-29 19:29:37.314";"18";"0";"FINISHED";"LEFT";"success";"454";"0";"2014-09-29 19:29:35.354";"3";;;;;;;;;;
"AC2014";;;"Windows 7";"Rachel's Experiment (D.T.)";"1.0";"2";"1";"1";"2";"1";"1";"2014-09-29 19:27:38.254";"2014-09-29 19:43:30.014";"1";"0";"0";"5";"4";"module.GoNoGopractice.exec-3280.GoNoGo_Practice";;;;;;;;;;;;;;;;;;;;;;;;;;;;;;;;;;;;;;;;;;;;;;;;;;;;;;;;;;;;;;;;;;;;;;;"1950";"2014-09-29 19:29:40.563";"21";"1";"FINISHED";"RIGHT";"success";"391";"0";"2014-09-29 19:29:38.612";"3";;;;;;;;;;
"AC2014";;;"Windows 7";"Rachel's Experiment (D.T.)";"1.0";"2";"1";"1";"2";"1";"1";"2014-09-29 19:27:38.254";"2014-09-29 19:43:30.014";"1";"0";"0";"6";"5";"module.GoNoGopractice.exec-3280.GoNoGo_Practice";;;;;;;;;;;;;;;;;;;;;;;;;;;;;;;;;;;;;;;;;;;;;;;;;;;;;;;;;;;;;;;;;;;;;;;"1951";"2014-09-29 19:29:43.810";"14";"1";"FINISHED";"RIGHT";"success";"402";"0";"2014-09-29 19:29:41.858";"2";;;;;;;;;;
"AC2014";;;"Windows 7";"Rachel's Experiment (D.T.)";"1.0";"2";"1";"1";"2";"1";"1";"2014-09-29 19:27:38.254";"2014-09-29 19:43:30.014";"1";"0";"0";"7";"6";"module.GoNoGopractice.exec-3280.GoNoGo_Practice";;;;;;;;;;;;;;;;;;;;;;;;;;;;;;;;;;;;;;;;;;;;;;;;;;;;;;;;;;;;;;;;;;;;;;;"1951";"2014-09-29 19:29:47.063";"26";"0";"FINISHED";"LEFT";"success";"366";"0";"2014-09-29 19:29:45.111";"3";;;;;;;;;;
"AC2014";;;"Windows 7";"Rachel's Experiment (D.T.)";"1.0";"2";"1";"1";"2";"1";"1";"2014-09-29 19:27:38.254";"2014-09-29 19:43:30.014";"1";"0";"0";"8";"7";"module.GoNoGopractice.exec-3280.GoNoGo_Practice";;;;;;;;;;;;;;;;;;;;;;;;;;;;;;;;;;;;;;;;;;;;;;;;;;;;;;;;;;;;;;;;;;;;;;;"1951";"2014-09-29 19:29:50.310";"2";"0";"FINISHED";"LEFT";"success";"436";"0";"2014-09-29 19:29:48.358";"1";;;;;;;;;;
"AC2014";;;"Windows 7";"Rachel's Experiment (D.T.)";"1.0";"2";"1";"1";"2";"1";"1";"2014-09-29 19:27:38.254";"2014-09-29 19:43:30.014";"1";"0";"0";"9";"8";"module.GoNoGopractice.exec-3280.GoNoGo_Practice";;;;;;;;;;;;;;;;;;;;;;;;;;;;;;;;;;;;;;;;;;;;;;;;;;;;;;;;;;;;;;;;;;;;;;;"1951";"2014-09-29 19:29:53.568";"30";"0";"FINISHED";"LEFT";"success";"384";"0";"2014-09-29 19:29:51.616";"3";;;;;;;;;;
"AC2014";;;"Windows 7";"Rachel's Experiment (D.T.)";"1.0";"2";"1";"1";"2";"1";"1";"2014-09-29 19:27:38.254";"2014-09-29 19:43:30.014";"1";"0";"0";"10";"9";"module.GoNoGopractice.exec-3280.GoNoGo_Practice";;;;;;;;;;;;;;;;;;;;;;;;;;;;;;;;;;;;;;;;;;;;;;;;;;;;;;;;;;;;;;;;;;;;;;;"1950";"2014-09-29 19:29:56.812";"6";"1";"FINISHED";"RIGHT";"success";"310";"0";"2014-09-29 19:29:54.861";"1";;;;;;;;;;
"AC2014";;;"Windows 7";"Rachel's Experiment (D.T.)";"1.0";"2";"1";"1";"2";"1";"1";"2014-09-29 19:27:38.254";"2014-09-29 19:43:30.014";"1";"0";"0";"11";"10";"module.GoNoGopractice.exec-3280.GoNoGo_Practice";;;;;;;;;;;;;;;;;;;;;;;;;;;;;;;;;;;;;;;;;;;;;;;;;;;;;;;;;;;;;;;;;;;;;;;"1952";"2014-09-29 19:30:00.060";"34";"0";"FINISHED";"LEFT";"success";"365";"0";"2014-09-29 19:29:58.108";"3";;;;;;;;;;
"AC2014";;;"Windows 7";"Rachel's Experiment (D.T.)";"1.0";"2";"1";"1";"2";"1";"1";"2014-09-29 19:27:38.254";"2014-09-29 19:43:30.014";"1";"0";"0";"12";"11";"module.GoNoGopractice.exec-3280.GoNoGo_Practice";;;;;;;;;;;;;;;;;;;;;;;;;;;;;;;;;;;;;;;;;;;;;;;;;;;;;;;;;;;;;;;;;;;;;;;"1951";"2014-09-29 19:30:03.307";"23";"1";"FINISHED";"RIGHT";"success";"400";"0";"2014-09-29 19:30:01.354";"3";;;;;;;;;;
"AC2014";;;"Windows 7";"Rachel's Experiment (D.T.)";"1.0";"2";"1";"1";"2";"1";"1";"2014-09-29 19:27:38.254";"2014-09-29 19:43:30.014";"1";"0";"0";"13";"12";"module.GoNoGopractice.exec-3280.GoNoGo_Practice";;;;;;;;;;;;;;;;;;;;;;;;;;;;;;;;;;;;;;;;;;;;;;;;;;;;;;;;;;;;;;;;;;;;;;;"1951";"2014-09-29 19:30:06.553";"13";"0";"FINISHED";"LEFT";"success";"350";"0";"2014-09-29 19:30:04.601";"2";;;;;;;;;;
"AC2014";;;"Windows 7";"Rachel's Experiment (D.T.)";"1.0";"2";"1";"1";"2";"1";"1";"2014-09-29 19:27:38.254";"2014-09-29 19:43:30.014";"1";"0";"0";"14";"13";"module.GoNoGopractice.exec-3280.GoNoGo_Practice";;;;;;;;;;;;;;;;;;;;;;;;;;;;;;;;;;;;;;;;;;;;;;;;;;;;;;;;;;;;;;;;;;;;;;;"1951";"2014-09-29 19:30:09.797";"3";"1";"FINISHED";"RIGHT";"success";"407";"0";"2014-09-29 19:30:07.845";"1";;;;;;;;;;
"AC2014";;;"Windows 7";"Rachel's Experiment (D.T.)";"1.0";"2";"1";"1";"2";"1";"1";"2014-09-29 19:27:38.254";"2014-09-29 19:43:30.014";"1";"0";"0";"15";"14";"module.GoNoGopractice.exec-3280.GoNoGo_Practice";;;;;;;;;;;;;;;;;;;;;;;;;;;;;;;;;;;;;;;;;;;;;;;;;;;;;;;;;;;;;;;;;;;;;;;"1951";"2014-09-29 19:30:13.042";"27";"1";"FINISHED";"RIGHT";"success";"399";"0";"2014-09-29 19:30:11.090";"3";;;;;;;;;;
"AC2014";;;"Windows 7";"Rachel's Experiment (D.T.)";"1.0";"2";"1";"1";"2";"1";"1";"2014-09-29 19:27:38.254";"2014-09-29 19:43:30.014";"1";"0";"0";"16";"15";"module.training_block1.exec-4801.GoNoGo1";;;;;;;;;;;;;;;;;;;;;;;"1251";"2014-09-29 19:30:25.141";"NST_correctLoc";"18";"0";"FINISHED";"LEFT";"success";"339";"0";"2014-09-29 19:30:23.889";"3";;;;;;;;;;;;;;;;;;;;;;;;;;;;;;;;;;;;;;;;;;;;;;;;;;;;;;;;;
"AC2014";;;"Windows 7";"Rachel's Experiment (D.T.)";"1.0";"2";"1";"1";"2";"1";"1";"2014-09-29 19:27:38.254";"2014-09-29 19:43:30.014";"1";"0";"0";"17";"16";"module.training_block1.exec-4801.GoNoGo1";;;;;;;;;;;;;;;;;;;;;;;"1250";"2014-09-29 19:30:27.680";"NST_correctLoc";"3";"0";"FINISHED";"LEFT";"success";"361";"0";"2014-09-29 19:30:26.430";"1";;;;;;;;;;;;;;;;;;;;;;;;;;;;;;;;;;;;;;;;;;;;;;;;;;;;;;;;;
"AC2014";;;"Windows 7";"Rachel's Experiment (D.T.)";"1.0";"2";"1";"1";"2";"1";"1";"2014-09-29 19:27:38.254";"2014-09-29 19:43:30.014";"1";"0";"0";"18";"17";"module.training_block1.exec-4801.GoNoGo1";;;;;;;;;;;;;;;;;;;;;;;"1249";"2014-09-29 19:30:30.223";"NST_correctLoc";"32";"0";"FINISHED";"LEFT";"success";"416";"0";"2014-09-29 19:30:28.973";"3";;;;;;;;;;;;;;;;;;;;;;;;;;;;;;;;;;;;;;;;;;;;;;;;;;;;;;;;;
"AC2014";;;"Windows 7";"Rachel's Experiment (D.T.)";"1.0";"2";"1";"1";"2";"1";"1";"2014-09-29 19:27:38.254";"2014-09-29 19:43:30.014";"1";"0";"0";"19";"18";"module.training_block1.exec-4801.GoNoGo1";;;;;;;;;;;;;;;;;;;;;;;"1249";"2014-09-29 19:30:32.766";"NST_correctLoc";"4";"0";"FINISHED";"LEFT";"success";"370";"0";"2014-09-29 19:30:31.516";"1";;;;;;;;;;;;;;;;;;;;;;;;;;;;;;;;;;;;;;;;;;;;;;;;;;;;;;;;;
"AC2014";;;"Windows 7";"Rachel's Experiment (D.T.)";"1.0";"2";"1";"1";"2";"1";"1";"2014-09-29 19:27:38.254";"2014-09-29 19:43:30.014";"1";"0";"0";"20";"19";"module.training_block1.exec-4801.GoNoGo1";;;;;;;;;;;;;;;;;;;;;;;"1250";"2014-09-29 19:30:35.467";"NST_correctLoc";"10";"1";"FINISHED";"RIGHT";"success";"364";"0";"2014-09-29 19:30:34.217";"2";;;;;;;;;;;;;;;;;;;;;;;;;;;;;;;;;;;;;;;;;;;;;;;;;;;;;;;;;
"AC2014";;;"Windows 7";"Rachel's Experiment (D.T.)";"1.0";"2";"1";"1";"2";"1";"1";"2014-09-29 19:27:38.254";"2014-09-29 19:43:30.014";"1";"0";"0";"21";"20";"module.training_block1.exec-4801.GoNoGo1";;;;;;;;;;;;;;;;;;;;;;;"1249";"2014-09-29 19:30:38.010";"NST_correctLoc";"11";"1";"FINISHED";"RIGHT";"success";"400";"0";"2014-09-29 19:30:36.759";"2";;;;;;;;;;;;;;;;;;;;;;;;;;;;;;;;;;;;;;;;;;;;;;;;;;;;;;;;;
"AC2014";;;"Windows 7";"Rachel's Experiment (D.T.)";"1.0";"2";"1";"1";"2";"1";"1";"2014-09-29 19:27:38.254";"2014-09-29 19:43:30.014";"1";"0";"0";"22";"21";"module.training_block1.exec-4801.GoNoGo1";;;;;;;;;;;;;;;;;;;;;;;"1249";"2014-09-29 19:30:40.552";"NST_correctLoc";"31";"1";"FINISHED";"RIGHT";"success";"355";"0";"2014-09-29 19:30:39.302";"3";;;;;;;;;;;;;;;;;;;;;;;;;;;;;;;;;;;;;;;;;;;;;;;;;;;;;;;;;
"AC2014";;;"Windows 7";"Rachel's Experiment (D.T.)";"1.0";"2";"1";"1";"2";"1";"1";"2014-09-29 19:27:38.254";"2014-09-29 19:43:30.014";"1";"0";"0";"23";"22";"module.training_block1.exec-4801.GoNoGo1";;;;;;;;;;;;;;;;;;;;;;;"1249";"2014-09-29 19:30:43.095";"NST_correctLoc";"13";"1";"FINISHED";"RIGHT";"success";"355";"0";"2014-09-29 19:30:41.845";"2";;;;;;;;;;;;;;;;;;;;;;;;;;;;;;;;;;;;;;;;;;;;;;;;;;;;;;;;;
"AC2014";;;"Windows 7";"Rachel's Experiment (D.T.)";"1.0";"2";"1";"1";"2";"1";"1";"2014-09-29 19:27:38.254";"2014-09-29 19:43:30.014";"1";"0";"0";"24";"23";"module.training_block1.exec-4801.GoNoGo1";;;;;;;;;;;;;;;;;;;;;;;"1249";"2014-09-29 19:30:45.635";"NST_correctLoc";"12";"0";"FINISHED";"LEFT";"success";"393";"0";"2014-09-29 19:30:44.385";"2";;;;;;;;;;;;;;;;;;;;;;;;;;;;;;;;;;;;;;;;;;;;;;;;;;;;;;;;;
"AC2014";;;"Windows 7";"Rachel's Experiment (D.T.)";"1.0";"2";"1";"1";"2";"1";"1";"2014-09-29 19:27:38.254";"2014-09-29 19:43:30.014";"1";"0";"0";"25";"24";"module.training_block1.exec-4801.GoNoGo1";;;;;;;;;;;;;;;;;;;;;;;"1250";"2014-09-29 19:30:48.174";"NST_correctLoc";"16";"0";"FINISHED";"LEFT";"success";"372";"0";"2014-09-29 19:30:46.924";"2";;;;;;;;;;;;;;;;;;;;;;;;;;;;;;;;;;;;;;;;;;;;;;;;;;;;;;;;;
"AC2014";;;"Windows 7";"Rachel's Experiment (D.T.)";"1.0";"2";"1";"1";"2";"1";"1";"2014-09-29 19:27:38.254";"2014-09-29 19:43:30.014";"1";"0";"0";"26";"25";"module.training_block1.exec-4801.GoNoGo1";;;;;;;;;;;;;;;;;;;;;;;"1249";"2014-09-29 19:30:50.713";"NST_correctLoc";"0";"0";"FINISHED";"LEFT";"success";"391";"0";"2014-09-29 19:30:49.463";"1";;;;;;;;;;;;;;;;;;;;;;;;;;;;;;;;;;;;;;;;;;;;;;;;;;;;;;;;;
"AC2014";;;"Windows 7";"Rachel's Experiment (D.T.)";"1.0";"2";"1";"1";"2";"1";"1";"2014-09-29 19:27:38.254";"2014-09-29 19:43:30.014";"1";"0";"0";"27";"26";"module.training_block1.exec-4801.GoNoGo1";;;;;;;;;;;;;;;;;;;;;;;"1249";"2014-09-29 19:30:53.253";"NST_correctLoc";"22";"1";"FINISHED";"RIGHT";"success";"373";"0";"2014-09-29 19:30:52.003";"3";;;;;;;;;;;;;;;;;;;;;;;;;;;;;;;;;;;;;;;;;;;;;;;;;;;;;;;;;
"AC2014";;;"Windows 7";"Rachel's Experiment (D.T.)";"1.0";"2";"1";"1";"2";"1";"1";"2014-09-29 19:27:38.254";"2014-09-29 19:43:30.014";"1";"0";"0";"28";"27";"module.training_block1.exec-4801.GoNoGo1";;;;;;;;;;;;;;;;;;;;;;;"1249";"2014-09-29 19:30:55.793";"NST_correctLoc";"29";"0";"FINISHED";"LEFT";"success";"307";"0";"2014-09-29 19:30:54.543";"3";;;;;;;;;;;;;;;;;;;;;;;;;;;;;;;;;;;;;;;;;;;;;;;;;;;;;;;;;
"AC2014";;;"Windows 7";"Rachel's Experiment (D.T.)";"1.0";"2";"1";"1";"2";"1";"1";"2014-09-29 19:27:38.254";"2014-09-29 19:43:30.014";"1";"0";"0";"29";"28";"module.training_block1.exec-4801.GoNoGo1";;;;;;;;;;;;;;;;;;;;;;;"1249";"2014-09-29 19:30:58.330";"NST_correctLoc";"34";"1";"FINISHED";"RIGHT";"success";"342";"0";"2014-09-29 19:30:57.080";"3";;;;;;;;;;;;;;;;;;;;;;;;;;;;;;;;;;;;;;;;;;;;;;;;;;;;;;;;;
"AC2014";;;"Windows 7";"Rachel's Experiment (D.T.)";"1.0";"2";"1";"1";"2";"1";"1";"2014-09-29 19:27:38.254";"2014-09-29 19:43:30.014";"1";"0";"0";"30";"29";"module.training_block1.exec-4801.GoNoGo1";;;;;;;;;;;;;;;;;;;;;;;"1249";"2014-09-29 19:31:00.868";"NST_correctLoc";"30";"1";"FINISHED";"RIGHT";"success";"387";"0";"2014-09-29 19:30:59.618";"3";;;;;;;;;;;;;;;;;;;;;;;;;;;;;;;;;;;;;;;;;;;;;;;;;;;;;;;;;
"AC2014";;;"Windows 7";"Rachel's Experiment (D.T.)";"1.0";"2";"1";"1";"2";"1";"1";"2014-09-29 19:27:38.254";"2014-09-29 19:43:30.014";"1";"0";"0";"31";"30";"module.training_block1.exec-4801.GoNoGo1";;;;;;;;;;;;;;;;;;;;;;;"1249";"2014-09-29 19:31:03.407";"NST_correctLoc";"9";"1";"FINISHED";"RIGHT";"success";"387";"0";"2014-09-29 19:31:02.157";"2";;;;;;;;;;;;;;;;;;;;;;;;;;;;;;;;;;;;;;;;;;;;;;;;;;;;;;;;;
"AC2014";;;"Windows 7";"Rachel's Experiment (D.T.)";"1.0";"2";"1";"1";"2";"1";"1";"2014-09-29 19:27:38.254";"2014-09-29 19:43:30.014";"1";"0";"0";"32";"31";"module.training_block1.exec-4801.GoNoGo1";;;;;;;;;;;;;;;;;;;;;;;"1249";"2014-09-29 19:31:05.944";"NST_correctLoc";"15";"1";"FINISHED";"RIGHT";"success";"422";"0";"2014-09-29 19:31:04.694";"2";;;;;;;;;;;;;;;;;;;;;;;;;;;;;;;;;;;;;;;;;;;;;;;;;;;;;;;;;
"AC2014";;;"Windows 7";"Rachel's Experiment (D.T.)";"1.0";"2";"1";"1";"2";"1";"1";"2014-09-29 19:27:38.254";"2014-09-29 19:43:30.014";"1";"0";"0";"33";"32";"module.training_block1.exec-4801.GoNoGo1";;;;;;;;;;;;;;;;;;;;;;;"1249";"2014-09-29 19:31:08.482";"NST_correctLoc";"27";"0";"FINISHED";"LEFT";"success";"352";"0";"2014-09-29 19:31:07.232";"3";;;;;;;;;;;;;;;;;;;;;;;;;;;;;;;;;;;;;;;;;;;;;;;;;;;;;;;;;
"AC2014";;;"Windows 7";"Rachel's Experiment (D.T.)";"1.0";"2";"1";"1";"2";"1";"1";"2014-09-29 19:27:38.254";"2014-09-29 19:43:30.014";"1";"0";"0";"34";"33";"module.training_block1.exec-4801.GoNoGo1";;;;;;;;;;;;;;;;;;;;;;;"1249";"2014-09-29 19:31:11.029";"NST_correctLoc";"28";"1";"FINISHED";"RIGHT";"success";"338";"0";"2014-09-29 19:31:09.779";"3";;;;;;;;;;;;;;;;;;;;;;;;;;;;;;;;;;;;;;;;;;;;;;;;;;;;;;;;;
"AC2014";;;"Windows 7";"Rachel's Experiment (D.T.)";"1.0";"2";"1";"1";"2";"1";"1";"2014-09-29 19:27:38.254";"2014-09-29 19:43:30.014";"1";"0";"0";"35";"34";"module.training_block1.exec-4801.GoNoGo1";;;;;;;;;;;;;;;;;;;;;;;"1249";"2014-09-29 19:31:13.567";"NST_correctLoc";"14";"1";"FINISHED";"RIGHT";"success";"358";"0";"2014-09-29 19:31:12.317";"2";;;;;;;;;;;;;;;;;;;;;;;;;;;;;;;;;;;;;;;;;;;;;;;;;;;;;;;;;
"AC2014";;;"Windows 7";"Rachel's Experiment (D.T.)";"1.0";"2";"1";"1";"2";"1";"1";"2014-09-29 19:27:38.254";"2014-09-29 19:43:30.014";"1";"0";"0";"36";"35";"module.training_block1.exec-4801.GoNoGo1";;;;;;;;;;;;;;;;;;;;;;;"1249";"2014-09-29 19:31:16.105";"NST_correctLoc";"26";"1";"FINISHED";"RIGHT";"success";"364";"0";"2014-09-29 19:31:14.855";"3";;;;;;;;;;;;;;;;;;;;;;;;;;;;;;;;;;;;;;;;;;;;;;;;;;;;;;;;;
"AC2014";;;"Windows 7";"Rachel's Experiment (D.T.)";"1.0";"2";"1";"1";"2";"1";"1";"2014-09-29 19:27:38.254";"2014-09-29 19:43:30.014";"1";"0";"0";"37";"36";"module.training_block1.exec-4801.GoNoGo1";;;;;;;;;;;;;;;;;;;;;;;"1250";"2014-09-29 19:31:18.641";"NST_correctLoc";"24";"0";"FINISHED";"LEFT";"success";"330";"0";"2014-09-29 19:31:17.391";"3";;;;;;;;;;;;;;;;;;;;;;;;;;;;;;;;;;;;;;;;;;;;;;;;;;;;;;;;;
"AC2014";;;"Windows 7";"Rachel's Experiment (D.T.)";"1.0";"2";"1";"1";"2";"1";"1";"2014-09-29 19:27:38.254";"2014-09-29 19:43:30.014";"1";"0";"0";"38";"37";"module.training_block1.exec-4801.GoNoGo1";;;;;;;;;;;;;;;;;;;;;;;"1249";"2014-09-29 19:31:21.178";"NST_correctLoc";"23";"1";"FINISHED";"RIGHT";"success";"376";"0";"2014-09-29 19:31:19.928";"3";;;;;;;;;;;;;;;;;;;;;;;;;;;;;;;;;;;;;;;;;;;;;;;;;;;;;;;;;
"AC2014";;;"Windows 7";"Rachel's Experiment (D.T.)";"1.0";"2";"1";"1";"2";"1";"1";"2014-09-29 19:27:38.254";"2014-09-29 19:43:30.014";"1";"0";"0";"39";"38";"module.training_block1.exec-4801.GoNoGo1";;;;;;;;;;;;;;;;;;;;;;;"1250";"2014-09-29 19:31:23.712";"NST_correctLoc";"19";"1";"FINISHED";"RIGHT";"success";"380";"0";"2014-09-29 19:31:22.462";"3";;;;;;;;;;;;;;;;;;;;;;;;;;;;;;;;;;;;;;;;;;;;;;;;;;;;;;;;;
"AC2014";;;"Windows 7";"Rachel's Experiment (D.T.)";"1.0";"2";"1";"1";"2";"1";"1";"2014-09-29 19:27:38.254";"2014-09-29 19:43:30.014";"1";"0";"0";"40";"39";"module.training_block1.exec-4801.GoNoGo1";;;;;;;;;;;;;;;;;;;;;;;"1249";"2014-09-29 19:31:26.250";"NST_correctLoc";"6";"1";"FINISHED";"RIGHT";"success";"439";"0";"2014-09-29 19:31:25.000";"1";;;;;;;;;;;;;;;;;;;;;;;;;;;;;;;;;;;;;;;;;;;;;;;;;;;;;;;;;
"AC2014";;;"Windows 7";"Rachel's Experiment (D.T.)";"1.0";"2";"1";"1";"2";"1";"1";"2014-09-29 19:27:38.254";"2014-09-29 19:43:30.014";"1";"0";"0";"41";"40";"module.training_block1.exec-4801.GoNoGo1";;;;;;;;;;;;;;;;;;;;;;;"1249";"2014-09-29 19:31:28.788";"NST_correctLoc";"21";"1";"FINISHED";"RIGHT";"success";"364";"0";"2014-09-29 19:31:27.538";"3";;;;;;;;;;;;;;;;;;;;;;;;;;;;;;;;;;;;;;;;;;;;;;;;;;;;;;;;;
"AC2014";;;"Windows 7";"Rachel's Experiment (D.T.)";"1.0";"2";"1";"1";"2";"1";"1";"2014-09-29 19:27:38.254";"2014-09-29 19:43:30.014";"1";"0";"0";"42";"41";"module.training_block1.exec-4801.GoNoGo1";;;;;;;;;;;;;;;;;;;;;;;"1249";"2014-09-29 19:31:31.325";"NST_correctLoc";"35";"0";"FINISHED";"LEFT";"success";"386";"0";"2014-09-29 19:31:30.075";"3";;;;;;;;;;;;;;;;;;;;;;;;;;;;;;;;;;;;;;;;;;;;;;;;;;;;;;;;;
"AC2014";;;"Windows 7";"Rachel's Experiment (D.T.)";"1.0";"2";"1";"1";"2";"1";"1";"2014-09-29 19:27:38.254";"2014-09-29 19:43:30.014";"1";"0";"0";"43";"42";"module.training_block1.exec-4801.GoNoGo1";;;;;;;;;;;;;;;;;;;;;;;"1249";"2014-09-29 19:31:33.859";"NST_correctLoc";"1";"0";"FINISHED";"LEFT";"success";"420";"0";"2014-09-29 19:31:32.609";"1";;;;;;;;;;;;;;;;;;;;;;;;;;;;;;;;;;;;;;;;;;;;;;;;;;;;;;;;;
"AC2014";;;"Windows 7";"Rachel's Experiment (D.T.)";"1.0";"2";"1";"1";"2";"1";"1";"2014-09-29 19:27:38.254";"2014-09-29 19:43:30.014";"1";"0";"0";"44";"43";"module.training_block1.exec-4801.GoNoGo1";;;;;;;;;;;;;;;;;;;;;;;"1249";"2014-09-29 19:31:36.395";"NST_correctLoc";"8";"0";"FINISHED";"LEFT";"success";"372";"0";"2014-09-29 19:31:35.145";"1";;;;;;;;;;;;;;;;;;;;;;;;;;;;;;;;;;;;;;;;;;;;;;;;;;;;;;;;;
"AC2014";;;"Windows 7";"Rachel's Experiment (D.T.)";"1.0";"2";"1";"1";"2";"1";"1";"2014-09-29 19:27:38.254";"2014-09-29 19:43:30.014";"1";"0";"0";"45";"44";"module.training_block1.exec-4801.GoNoGo1";;;;;;;;;;;;;;;;;;;;;;;"1249";"2014-09-29 19:31:38.930";"NST_correctLoc";"20";"0";"FINISHED";"LEFT";"success";"364";"0";"2014-09-29 19:31:37.680";"3";;;;;;;;;;;;;;;;;;;;;;;;;;;;;;;;;;;;;;;;;;;;;;;;;;;;;;;;;
"AC2014";;;"Windows 7";"Rachel's Experiment (D.T.)";"1.0";"2";"1";"1";"2";"1";"1";"2014-09-29 19:27:38.254";"2014-09-29 19:43:30.014";"1";"0";"0";"46";"45";"module.training_block1.exec-4801.GoNoGo1";;;;;;;;;;;;;;;;;;;;;;;"1249";"2014-09-29 19:31:41.472";"NST_correctLoc";"25";"0";"FINISHED";"LEFT";"success";"401";"0";"2014-09-29 19:31:40.222";"3";;;;;;;;;;;;;;;;;;;;;;;;;;;;;;;;;;;;;;;;;;;;;;;;;;;;;;;;;
"AC2014";;;"Windows 7";"Rachel's Experiment (D.T.)";"1.0";"2";"1";"1";"2";"1";"1";"2014-09-29 19:27:38.254";"2014-09-29 19:43:30.014";"1";"0";"0";"47";"46";"module.training_block1.exec-4801.GoNoGo1";;;;;;;;;;;;;;;;;;;;;;;"1249";"2014-09-29 19:31:44.006";"NST_correctLoc";"33";"1";"FINISHED";"RIGHT";"success";"364";"0";"2014-09-29 19:31:42.756";"3";;;;;;;;;;;;;;;;;;;;;;;;;;;;;;;;;;;;;;;;;;;;;;;;;;;;;;;;;
"AC2014";;;"Windows 7";"Rachel's Experiment (D.T.)";"1.0";"2";"1";"1";"2";"1";"1";"2014-09-29 19:27:38.254";"2014-09-29 19:43:30.014";"1";"0";"0";"48";"47";"module.training_block1.exec-4801.GoNoGo1";;;;;;;;;;;;;;;;;;;;;;;"1249";"2014-09-29 19:31:46.549";"NST_correctLoc";"7";"0";"FINISHED";"LEFT";"success";"379";"0";"2014-09-29 19:31:45.299";"1";;;;;;;;;;;;;;;;;;;;;;;;;;;;;;;;;;;;;;;;;;;;;;;;;;;;;;;;;
"AC2014";;;"Windows 7";"Rachel's Experiment (D.T.)";"1.0";"2";"1";"1";"2";"1";"1";"2014-09-29 19:27:38.254";"2014-09-29 19:43:30.014";"1";"0";"0";"49";"48";"module.training_block1.exec-4801.GoNoGo1";;;;;;;;;;;;;;;;;;;;;;;"1250";"2014-09-29 19:31:49.087";"NST_correctLoc";"17";"0";"FINISHED";"LEFT";"success";"390";"0";"2014-09-29 19:31:47.837";"2";;;;;;;;;;;;;;;;;;;;;;;;;;;;;;;;;;;;;;;;;;;;;;;;;;;;;;;;;
"AC2014";;;"Windows 7";"Rachel's Experiment (D.T.)";"1.0";"2";"1";"1";"2";"1";"1";"2014-09-29 19:27:38.254";"2014-09-29 19:43:30.014";"1";"0";"0";"50";"49";"module.training_block1.exec-4801.GoNoGo1";;;;;;;;;;;;;;;;;;;;;;;"1249";"2014-09-29 19:31:51.621";"NST_correctLoc";"5";"0";"FINISHED";"LEFT";"success";"388";"0";"2014-09-29 19:31:50.371";"1";;;;;;;;;;;;;;;;;;;;;;;;;;;;;;;;;;;;;;;;;;;;;;;;;;;;;;;;;
"AC2014";;;"Windows 7";"Rachel's Experiment (D.T.)";"1.0";"2";"1";"1";"2";"1";"1";"2014-09-29 19:27:38.254";"2014-09-29 19:43:30.014";"1";"0";"0";"51";"50";"module.training_block1.exec-4801.GoNoGo1";;;;;;;;;;;;;;;;;;;;;;;"1249";"2014-09-29 19:31:54.152";"NST_correctLoc";"2";"1";"FINISHED";"RIGHT";"success";"380";"0";"2014-09-29 19:31:52.902";"1";;;;;;;;;;;;;;;;;;;;;;;;;;;;;;;;;;;;;;;;;;;;;;;;;;;;;;;;;
"AC2014";;;"Windows 7";"Rachel's Experiment (D.T.)";"1.0";"2";"1";"1";"2";"1";"1";"2014-09-29 19:27:38.254";"2014-09-29 19:43:30.014";"1";"0";"0";"52";"51";"module.training_block2.exec-4933.GoNoGo2";;;;;;;;;;;;;;;;;;;;;;;;;;;;;;;;;;;"1249";"2014-09-29 19:32:05.877";"NST_correctLoc";"27";"0";"FINISHED";"LEFT";"success";"360";"0";"2014-09-29 19:32:04.627";"3";;;;;;;;;;;;;;;;;;;;;;;;;;;;;;;;;;;;;;;;;;;;;
"AC2014";;;"Windows 7";"Rachel's Experiment (D.T.)";"1.0";"2";"1";"1";"2";"1";"1";"2014-09-29 19:27:38.254";"2014-09-29 19:43:30.014";"1";"0";"0";"53";"52";"module.training_block2.exec-4933.GoNoGo2";;;;;;;;;;;;;;;;;;;;;;;;;;;;;;;;;;;"1249";"2014-09-29 19:32:08.407";"NST_correctLoc";"10";"1";"FINISHED";"RIGHT";"success";"357";"0";"2014-09-29 19:32:07.157";"2";;;;;;;;;;;;;;;;;;;;;;;;;;;;;;;;;;;;;;;;;;;;;
"AC2014";;;"Windows 7";"Rachel's Experiment (D.T.)";"1.0";"2";"1";"1";"2";"1";"1";"2014-09-29 19:27:38.254";"2014-09-29 19:43:30.014";"1";"0";"0";"54";"53";"module.training_block2.exec-4933.GoNoGo2";;;;;;;;;;;;;;;;;;;;;;;;;;;;;;;;;;;"1250";"2014-09-29 19:32:10.935";"NST_correctLoc";"17";"0";"FINISHED";"LEFT";"success";"373";"0";"2014-09-29 19:32:09.684";"2";;;;;;;;;;;;;;;;;;;;;;;;;;;;;;;;;;;;;;;;;;;;;
"AC2014";;;"Windows 7";"Rachel's Experiment (D.T.)";"1.0";"2";"1";"1";"2";"1";"1";"2014-09-29 19:27:38.254";"2014-09-29 19:43:30.014";"1";"0";"0";"55";"54";"module.training_block2.exec-4933.GoNoGo2";;;;;;;;;;;;;;;;;;;;;;;;;;;;;;;;;;;"1249";"2014-09-29 19:32:13.463";"NST_correctLoc";"7";"1";"FINISHED";"RIGHT";"success";"357";"0";"2014-09-29 19:32:12.213";"1";;;;;;;;;;;;;;;;;;;;;;;;;;;;;;;;;;;;;;;;;;;;;
"AC2014";;;"Windows 7";"Rachel's Experiment (D.T.)";"1.0";"2";"1";"1";"2";"1";"1";"2014-09-29 19:27:38.254";"2014-09-29 19:43:30.014";"1";"0";"0";"56";"55";"module.training_block2.exec-4933.GoNoGo2";;;;;;;;;;;;;;;;;;;;;;;;;;;;;;;;;;;"1249";"2014-09-29 19:32:15.991";"NST_correctLoc";"20";"1";"FINISHED";"RIGHT";"success";"427";"0";"2014-09-29 19:32:14.741";"3";;;;;;;;;;;;;;;;;;;;;;;;;;;;;;;;;;;;;;;;;;;;;
"AC2014";;;"Windows 7";"Rachel's Experiment (D.T.)";"1.0";"2";"1";"1";"2";"1";"1";"2014-09-29 19:27:38.254";"2014-09-29 19:43:30.014";"1";"0";"0";"57";"56";"module.training_block2.exec-4933.GoNoGo2";;;;;;;;;;;;;;;;;;;;;;;;;;;;;;;;;;;"1249";"2014-09-29 19:32:18.520";"NST_correctLoc";"26";"0";"FINISHED";"LEFT";"success";"415";"0";"2014-09-29 19:32:17.270";"3";;;;;;;;;;;;;;;;;;;;;;;;;;;;;;;;;;;;;;;;;;;;;
"AC2014";;;"Windows 7";"Rachel's Experiment (D.T.)";"1.0";"2";"1";"1";"2";"1";"1";"2014-09-29 19:27:38.254";"2014-09-29 19:43:30.014";"1";"0";"0";"58";"57";"module.training_block2.exec-4933.GoNoGo2";;;;;;;;;;;;;;;;;;;;;;;;;;;;;;;;;;;"1250";"2014-09-29 19:32:21.050";"NST_correctLoc";"14";"1";"FINISHED";"RIGHT";"success";"369";"0";"2014-09-29 19:32:19.800";"2";;;;;;;;;;;;;;;;;;;;;;;;;;;;;;;;;;;;;;;;;;;;;
"AC2014";;;"Windows 7";"Rachel's Experiment (D.T.)";"1.0";"2";"1";"1";"2";"1";"1";"2014-09-29 19:27:38.254";"2014-09-29 19:43:30.014";"1";"0";"0";"59";"58";"module.training_block2.exec-4933.GoNoGo2";;;;;;;;;;;;;;;;;;;;;;;;;;;;;;;;;;;"1249";"2014-09-29 19:32:23.579";"NST_correctLoc";"11";"1";"FINISHED";"RIGHT";"success";"423";"0";"2014-09-29 19:32:22.329";"2";;;;;;;;;;;;;;;;;;;;;;;;;;;;;;;;;;;;;;;;;;;;;
"AC2014";;;"Windows 7";"Rachel's Experiment (D.T.)";"1.0";"2";"1";"1";"2";"1";"1";"2014-09-29 19:27:38.254";"2014-09-29 19:43:30.014";"1";"0";"0";"60";"59";"module.training_block2.exec-4933.GoNoGo2";;;;;;;;;;;;;;;;;;;;;;;;;;;;;;;;;;;"1249";"2014-09-29 19:32:26.108";"NST_correctLoc";"13";"1";"FINISHED";"RIGHT";"success";"421";"0";"2014-09-29 19:32:24.858";"2";;;;;;;;;;;;;;;;;;;;;;;;;;;;;;;;;;;;;;;;;;;;;
"AC2014";;;"Windows 7";"Rachel's Experiment (D.T.)";"1.0";"2";"1";"1";"2";"1";"1";"2014-09-29 19:27:38.254";"2014-09-29 19:43:30.014";"1";"0";"0";"61";"60";"module.training_block2.exec-4933.GoNoGo2";;;;;;;;;;;;;;;;;;;;;;;;;;;;;;;;;;;"1249";"2014-09-29 19:32:28.634";"NST_correctLoc";"30";"1";"FINISHED";"RIGHT";"success";"408";"0";"2014-09-29 19:32:27.384";"3";;;;;;;;;;;;;;;;;;;;;;;;;;;;;;;;;;;;;;;;;;;;;
"AC2014";;;"Windows 7";"Rachel's Experiment (D.T.)";"1.0";"2";"1";"1";"2";"1";"1";"2014-09-29 19:27:38.254";"2014-09-29 19:43:30.014";"1";"0";"0";"62";"61";"module.training_block2.exec-4933.GoNoGo2";;;;;;;;;;;;;;;;;;;;;;;;;;;;;;;;;;;"1250";"2014-09-29 19:32:31.165";"NST_correctLoc";"16";"0";"FINISHED";"LEFT";"success";"360";"0";"2014-09-29 19:32:29.915";"2";;;;;;;;;;;;;;;;;;;;;;;;;;;;;;;;;;;;;;;;;;;;;
"AC2014";;;"Windows 7";"Rachel's Experiment (D.T.)";"1.0";"2";"1";"1";"2";"1";"1";"2014-09-29 19:27:38.254";"2014-09-29 19:43:30.014";"1";"0";"0";"63";"62";"module.training_block2.exec-4933.GoNoGo2";;;;;;;;;;;;;;;;;;;;;;;;;;;;;;;;;;;"1249";"2014-09-29 19:32:33.693";"NST_correctLoc";"8";"0";"FINISHED";"LEFT";"success";"420";"0";"2014-09-29 19:32:32.443";"1";;;;;;;;;;;;;;;;;;;;;;;;;;;;;;;;;;;;;;;;;;;;;
"AC2014";;;"Windows 7";"Rachel's Experiment (D.T.)";"1.0";"2";"1";"1";"2";"1";"1";"2014-09-29 19:27:38.254";"2014-09-29 19:43:30.014";"1";"0";"0";"64";"63";"module.training_block2.exec-4933.GoNoGo2";;;;;;;;;;;;;;;;;;;;;;;;;;;;;;;;;;;"1249";"2014-09-29 19:32:36.223";"NST_correctLoc";"2";"1";"FINISHED";"RIGHT";"success";"427";"0";"2014-09-29 19:32:34.973";"1";;;;;;;;;;;;;;;;;;;;;;;;;;;;;;;;;;;;;;;;;;;;;
"AC2014";;;"Windows 7";"Rachel's Experiment (D.T.)";"1.0";"2";"1";"1";"2";"1";"1";"2014-09-29 19:27:38.254";"2014-09-29 19:43:30.014";"1";"0";"0";"65";"64";"module.training_block2.exec-4933.GoNoGo2";;;;;;;;;;;;;;;;;;;;;;;;;;;;;;;;;;;"1249";"2014-09-29 19:32:38.757";"NST_correctLoc";"3";"0";"FINISHED";"LEFT";"success";"361";"0";"2014-09-29 19:32:37.507";"1";;;;;;;;;;;;;;;;;;;;;;;;;;;;;;;;;;;;;;;;;;;;;
"AC2014";;;"Windows 7";"Rachel's Experiment (D.T.)";"1.0";"2";"1";"1";"2";"1";"1";"2014-09-29 19:27:38.254";"2014-09-29 19:43:30.014";"1";"0";"0";"66";"65";"module.training_block2.exec-4933.GoNoGo2";;;;;;;;;;;;;;;;;;;;;;;;;;;;;;;;;;;"1250";"2014-09-29 19:32:41.287";"NST_correctLoc";"0";"1";"FINISHED";"RIGHT";"success";"360";"0";"2014-09-29 19:32:40.037";"1";;;;;;;;;;;;;;;;;;;;;;;;;;;;;;;;;;;;;;;;;;;;;
"AC2014";;;"Windows 7";"Rachel's Experiment (D.T.)";"1.0";"2";"1";"1";"2";"1";"1";"2014-09-29 19:27:38.254";"2014-09-29 19:43:30.014";"1";"0";"0";"67";"66";"module.training_block2.exec-4933.GoNoGo2";;;;;;;;;;;;;;;;;;;;;;;;;;;;;;;;;;;"1250";"2014-09-29 19:32:43.815";"NST_correctLoc";"23";"0";"FINISHED";"LEFT";"success";"375";"0";"2014-09-29 19:32:42.564";"3";;;;;;;;;;;;;;;;;;;;;;;;;;;;;;;;;;;;;;;;;;;;;
"AC2014";;;"Windows 7";"Rachel's Experiment (D.T.)";"1.0";"2";"1";"1";"2";"1";"1";"2014-09-29 19:27:38.254";"2014-09-29 19:43:30.014";"1";"0";"0";"68";"67";"module.training_block2.exec-4933.GoNoGo2";;;;;;;;;;;;;;;;;;;;;;;;;;;;;;;;;;;"1250";"2014-09-29 19:32:46.350";"NST_correctLoc";"19";"1";"FINISHED";"RIGHT";"success";"428";"0";"2014-09-29 19:32:45.099";"3";;;;;;;;;;;;;;;;;;;;;;;;;;;;;;;;;;;;;;;;;;;;;
"AC2014";;;"Windows 7";"Rachel's Experiment (D.T.)";"1.0";"2";"1";"1";"2";"1";"1";"2014-09-29 19:27:38.254";"2014-09-29 19:43:30.014";"1";"0";"0";"69";"68";"module.training_block2.exec-4933.GoNoGo2";;;;;;;;;;;;;;;;;;;;;;;;;;;;;;;;;;;"1249";"2014-09-29 19:32:48.877";"NST_correctLoc";"6";"0";"FINISHED";"LEFT";"success";"383";"0";"2014-09-29 19:32:47.627";"1";;;;;;;;;;;;;;;;;;;;;;;;;;;;;;;;;;;;;;;;;;;;;
"AC2014";;;"Windows 7";"Rachel's Experiment (D.T.)";"1.0";"2";"1";"1";"2";"1";"1";"2014-09-29 19:27:38.254";"2014-09-29 19:43:30.014";"1";"0";"0";"70";"69";"module.training_block2.exec-4933.GoNoGo2";;;;;;;;;;;;;;;;;;;;;;;;;;;;;;;;;;;"1249";"2014-09-29 19:32:51.404";"NST_correctLoc";"5";"0";"FINISHED";"LEFT";"success";"454";"0";"2014-09-29 19:32:50.154";"1";;;;;;;;;;;;;;;;;;;;;;;;;;;;;;;;;;;;;;;;;;;;;
"AC2014";;;"Windows 7";"Rachel's Experiment (D.T.)";"1.0";"2";"1";"1";"2";"1";"1";"2014-09-29 19:27:38.254";"2014-09-29 19:43:30.014";"1";"0";"0";"71";"70";"module.training_block2.exec-4933.GoNoGo2";;;;;;;;;;;;;;;;;;;;;;;;;;;;;;;;;;;"1250";"2014-09-29 19:32:53.931";"NST_correctLoc";"24";"0";"FINISHED";"LEFT";"success";"445";"0";"2014-09-29 19:32:52.681";"3";;;;;;;;;;;;;;;;;;;;;;;;;;;;;;;;;;;;;;;;;;;;;
"AC2014";;;"Windows 7";"Rachel's Experiment (D.T.)";"1.0";"2";"1";"1";"2";"1";"1";"2014-09-29 19:27:38.254";"2014-09-29 19:43:30.014";"1";"0";"0";"72";"71";"module.training_block2.exec-4933.GoNoGo2";;;;;;;;;;;;;;;;;;;;;;;;;;;;;;;;;;;"1249";"2014-09-29 19:32:56.457";"NST_correctLoc";"4";"0";"FINISHED";"LEFT";"success";"371";"0";"2014-09-29 19:32:55.207";"1";;;;;;;;;;;;;;;;;;;;;;;;;;;;;;;;;;;;;;;;;;;;;
"AC2014";;;"Windows 7";"Rachel's Experiment (D.T.)";"1.0";"2";"1";"1";"2";"1";"1";"2014-09-29 19:27:38.254";"2014-09-29 19:43:30.014";"1";"0";"0";"73";"72";"module.training_block2.exec-4933.GoNoGo2";;;;;;;;;;;;;;;;;;;;;;;;;;;;;;;;;;;"1249";"2014-09-29 19:32:58.984";"NST_correctLoc";"12";"0";"FINISHED";"LEFT";"success";"382";"0";"2014-09-29 19:32:57.734";"2";;;;;;;;;;;;;;;;;;;;;;;;;;;;;;;;;;;;;;;;;;;;;
"AC2014";;;"Windows 7";"Rachel's Experiment (D.T.)";"1.0";"2";"1";"1";"2";"1";"1";"2014-09-29 19:27:38.254";"2014-09-29 19:43:30.014";"1";"0";"0";"74";"73";"module.training_block2.exec-4933.GoNoGo2";;;;;;;;;;;;;;;;;;;;;;;;;;;;;;;;;;;"1249";"2014-09-29 19:33:01.510";"NST_correctLoc";"21";"0";"FINISHED";"LEFT";"success";"384";"0";"2014-09-29 19:33:00.260";"3";;;;;;;;;;;;;;;;;;;;;;;;;;;;;;;;;;;;;;;;;;;;;
"AC2014";;;"Windows 7";"Rachel's Experiment (D.T.)";"1.0";"2";"1";"1";"2";"1";"1";"2014-09-29 19:27:38.254";"2014-09-29 19:43:30.014";"1";"0";"0";"75";"74";"module.training_block2.exec-4933.GoNoGo2";;;;;;;;;;;;;;;;;;;;;;;;;;;;;;;;;;;"1249";"2014-09-29 19:33:04.036";"NST_correctLoc";"33";"0";"FINISHED";"LEFT";"success";"366";"0";"2014-09-29 19:33:02.786";"3";;;;;;;;;;;;;;;;;;;;;;;;;;;;;;;;;;;;;;;;;;;;;
"AC2014";;;"Windows 7";"Rachel's Experiment (D.T.)";"1.0";"2";"1";"1";"2";"1";"1";"2014-09-29 19:27:38.254";"2014-09-29 19:43:30.014";"1";"0";"0";"76";"75";"module.training_block2.exec-4933.GoNoGo2";;;;;;;;;;;;;;;;;;;;;;;;;;;;;;;;;;;"1249";"2014-09-29 19:33:06.560";"NST_correctLoc";"1";"1";"FINISHED";"RIGHT";"success";"425";"0";"2014-09-29 19:33:05.310";"1";;;;;;;;;;;;;;;;;;;;;;;;;;;;;;;;;;;;;;;;;;;;;
"AC2014";;;"Windows 7";"Rachel's Experiment (D.T.)";"1.0";"2";"1";"1";"2";"1";"1";"2014-09-29 19:27:38.254";"2014-09-29 19:43:30.014";"1";"0";"0";"77";"76";"module.training_block2.exec-4933.GoNoGo2";;;;;;;;;;;;;;;;;;;;;;;;;;;;;;;;;;;"1249";"2014-09-29 19:33:09.086";"NST_correctLoc";"28";"1";"FINISHED";"RIGHT";"success";"427";"0";"2014-09-29 19:33:07.836";"3";;;;;;;;;;;;;;;;;;;;;;;;;;;;;;;;;;;;;;;;;;;;;
"AC2014";;;"Windows 7";"Rachel's Experiment (D.T.)";"1.0";"2";"1";"1";"2";"1";"1";"2014-09-29 19:27:38.254";"2014-09-29 19:43:30.014";"1";"0";"0";"78";"77";"module.training_block2.exec-4933.GoNoGo2";;;;;;;;;;;;;;;;;;;;;;;;;;;;;;;;;;;"1249";"2014-09-29 19:33:11.611";"NST_correctLoc";"29";"0";"FINISHED";"LEFT";"success";"348";"0";"2014-09-29 19:33:10.361";"3";;;;;;;;;;;;;;;;;;;;;;;;;;;;;;;;;;;;;;;;;;;;;
"AC2014";;;"Windows 7";"Rachel's Experiment (D.T.)";"1.0";"2";"1";"1";"2";"1";"1";"2014-09-29 19:27:38.254";"2014-09-29 19:43:30.014";"1";"0";"0";"79";"78";"module.training_block2.exec-4933.GoNoGo2";;;;;;;;;;;;;;;;;;;;;;;;;;;;;;;;;;;"1249";"2014-09-29 19:33:14.138";"NST_correctLoc";"15";"1";"FINISHED";"RIGHT";"success";"401";"0";"2014-09-29 19:33:12.887";"2";;;;;;;;;;;;;;;;;;;;;;;;;;;;;;;;;;;;;;;;;;;;;
"AC2014";;;"Windows 7";"Rachel's Experiment (D.T.)";"1.0";"2";"1";"1";"2";"1";"1";"2014-09-29 19:27:38.254";"2014-09-29 19:43:30.014";"1";"0";"0";"80";"79";"module.training_block2.exec-4933.GoNoGo2";;;;;;;;;;;;;;;;;;;;;;;;;;;;;;;;;;;"1249";"2014-09-29 19:33:16.663";"NST_correctLoc";"35";"0";"FINISHED";"LEFT";"success";"338";"0";"2014-09-29 19:33:15.413";"3";;;;;;;;;;;;;;;;;;;;;;;;;;;;;;;;;;;;;;;;;;;;;
"AC2014";;;"Windows 7";"Rachel's Experiment (D.T.)";"1.0";"2";"1";"1";"2";"1";"1";"2014-09-29 19:27:38.254";"2014-09-29 19:43:30.014";"1";"0";"0";"81";"80";"module.training_block2.exec-4933.GoNoGo2";;;;;;;;;;;;;;;;;;;;;;;;;;;;;;;;;;;"1249";"2014-09-29 19:33:19.195";"NST_correctLoc";"32";"0";"FINISHED";"LEFT";"success";"455";"0";"2014-09-29 19:33:17.945";"3";;;;;;;;;;;;;;;;;;;;;;;;;;;;;;;;;;;;;;;;;;;;;
"AC2014";;;"Windows 7";"Rachel's Experiment (D.T.)";"1.0";"2";"1";"1";"2";"1";"1";"2014-09-29 19:27:38.254";"2014-09-29 19:43:30.014";"1";"0";"0";"82";"81";"module.training_block2.exec-4933.GoNoGo2";;;;;;;;;;;;;;;;;;;;;;;;;;;;;;;;;;;"1249";"2014-09-29 19:33:21.719";"NST_correctLoc";"34";"1";"FINISHED";"RIGHT";"success";"443";"0";"2014-09-29 19:33:20.469";"3";;;;;;;;;;;;;;;;;;;;;;;;;;;;;;;;;;;;;;;;;;;;;
"AC2014";;;"Windows 7";"Rachel's Experiment (D.T.)";"1.0";"2";"1";"1";"2";"1";"1";"2014-09-29 19:27:38.254";"2014-09-29 19:43:30.014";"1";"0";"0";"83";"82";"module.training_block2.exec-4933.GoNoGo2";;;;;;;;;;;;;;;;;;;;;;;;;;;;;;;;;;;"1249";"2014-09-29 19:33:24.249";"NST_correctLoc";"18";"1";"FINISHED";"RIGHT";"success";"687";"0";"2014-09-29 19:33:22.999";"3";;;;;;;;;;;;;;;;;;;;;;;;;;;;;;;;;;;;;;;;;;;;;
"AC2014";;;"Windows 7";"Rachel's Experiment (D.T.)";"1.0";"2";"1";"1";"2";"1";"1";"2014-09-29 19:27:38.254";"2014-09-29 19:43:30.014";"1";"0";"0";"84";"83";"module.training_block2.exec-4933.GoNoGo2";;;;;;;;;;;;;;;;;;;;;;;;;;;;;;;;;;;"1249";"2014-09-29 19:33:26.774";"NST_correctLoc";"31";"0";"FINISHED";"LEFT";"success";"489";"0";"2014-09-29 19:33:25.524";"3";;;;;;;;;;;;;;;;;;;;;;;;;;;;;;;;;;;;;;;;;;;;;
"AC2014";;;"Windows 7";"Rachel's Experiment (D.T.)";"1.0";"2";"1";"1";"2";"1";"1";"2014-09-29 19:27:38.254";"2014-09-29 19:43:30.014";"1";"0";"0";"85";"84";"module.training_block2.exec-4933.GoNoGo2";;;;;;;;;;;;;;;;;;;;;;;;;;;;;;;;;;;"1249";"2014-09-29 19:33:29.298";"NST_correctLoc";"25";"1";"FINISHED";"RIGHT";"success";"458";"0";"2014-09-29 19:33:28.048";"3";;;;;;;;;;;;;;;;;;;;;;;;;;;;;;;;;;;;;;;;;;;;;
"AC2014";;;"Windows 7";"Rachel's Experiment (D.T.)";"1.0";"2";"1";"1";"2";"1";"1";"2014-09-29 19:27:38.254";"2014-09-29 19:43:30.014";"1";"0";"0";"86";"85";"module.training_block2.exec-4933.GoNoGo2";;;;;;;;;;;;;;;;;;;;;;;;;;;;;;;;;;;"1249";"2014-09-29 19:33:31.822";"NST_correctLoc";"22";"0";"FINISHED";"LEFT";"success";"392";"0";"2014-09-29 19:33:30.571";"3";;;;;;;;;;;;;;;;;;;;;;;;;;;;;;;;;;;;;;;;;;;;;
"AC2014";;;"Windows 7";"Rachel's Experiment (D.T.)";"1.0";"2";"1";"1";"2";"1";"1";"2014-09-29 19:27:38.254";"2014-09-29 19:43:30.014";"1";"0";"0";"87";"86";"module.training_block2.exec-4933.GoNoGo2";;;;;;;;;;;;;;;;;;;;;;;;;;;;;;;;;;;"1249";"2014-09-29 19:33:34.345";"NST_correctLoc";"9";"0";"FINISHED";"LEFT";"success";"426";"0";"2014-09-29 19:33:33.095";"2";;;;;;;;;;;;;;;;;;;;;;;;;;;;;;;;;;;;;;;;;;;;;
"AC2014";;;"Windows 7";"Rachel's Experiment (D.T.)";"1.0";"2";"1";"1";"2";"1";"1";"2014-09-29 19:27:38.254";"2014-09-29 19:43:30.014";"1";"0";"0";"88";"87";"module.training_block3.exec-2713.GoNoGo3";;;;;;;;;;;;;;;;;;;;;;;;;;;;;;;;;;;;;;;;;;;;;;;"1249";"2014-09-29 19:33:49.347";"NST_correctLoc";"24";"0";"FINISHED";"LEFT";"success";"466";"0";"2014-09-29 19:33:48.096";"3";;;;;;;;;;;;;;;;;;;;;;;;;;;;;;;;;
"AC2014";;;"Windows 7";"Rachel's Experiment (D.T.)";"1.0";"2";"1";"1";"2";"1";"1";"2014-09-29 19:27:38.254";"2014-09-29 19:43:30.014";"1";"0";"0";"89";"88";"module.training_block3.exec-2713.GoNoGo3";;;;;;;;;;;;;;;;;;;;;;;;;;;;;;;;;;;;;;;;;;;;;;;"1249";"2014-09-29 19:33:51.870";"NST_correctLoc";"4";"1";"FINISHED";"RIGHT";"success";"405";"0";"2014-09-29 19:33:50.620";"1";;;;;;;;;;;;;;;;;;;;;;;;;;;;;;;;;
"AC2014";;;"Windows 7";"Rachel's Experiment (D.T.)";"1.0";"2";"1";"1";"2";"1";"1";"2014-09-29 19:27:38.254";"2014-09-29 19:43:30.014";"1";"0";"0";"90";"89";"module.training_block3.exec-2713.GoNoGo3";;;;;;;;;;;;;;;;;;;;;;;;;;;;;;;;;;;;;;;;;;;;;;;"1249";"2014-09-29 19:33:54.400";"NST_correctLoc";"2";"1";"FINISHED";"RIGHT";"success";"464";"0";"2014-09-29 19:33:53.150";"1";;;;;;;;;;;;;;;;;;;;;;;;;;;;;;;;;
"AC2014";;;"Windows 7";"Rachel's Experiment (D.T.)";"1.0";"2";"1";"1";"2";"1";"1";"2014-09-29 19:27:38.254";"2014-09-29 19:43:30.014";"1";"0";"0";"91";"90";"module.training_block3.exec-2713.GoNoGo3";;;;;;;;;;;;;;;;;;;;;;;;;;;;;;;;;;;;;;;;;;;;;;;"1249";"2014-09-29 19:33:56.923";"NST_correctLoc";"9";"0";"FINISHED";"LEFT";"success";"367";"0";"2014-09-29 19:33:55.673";"2";;;;;;;;;;;;;;;;;;;;;;;;;;;;;;;;;
"AC2014";;;"Windows 7";"Rachel's Experiment (D.T.)";"1.0";"2";"1";"1";"2";"1";"1";"2014-09-29 19:27:38.254";"2014-09-29 19:43:30.014";"1";"0";"0";"92";"91";"module.training_block3.exec-2713.GoNoGo3";;;;;;;;;;;;;;;;;;;;;;;;;;;;;;;;;;;;;;;;;;;;;;;"1249";"2014-09-29 19:33:59.447";"NST_correctLoc";"7";"0";"FINISHED";"LEFT";"success";"441";"0";"2014-09-29 19:33:58.197";"1";;;;;;;;;;;;;;;;;;;;;;;;;;;;;;;;;
"AC2014";;;"Windows 7";"Rachel's Experiment (D.T.)";"1.0";"2";"1";"1";"2";"1";"1";"2014-09-29 19:27:38.254";"2014-09-29 19:43:30.014";"1";"0";"0";"93";"92";"module.training_block3.exec-2713.GoNoGo3";;;;;;;;;;;;;;;;;;;;;;;;;;;;;;;;;;;;;;;;;;;;;;;"1249";"2014-09-29 19:34:01.970";"NST_correctLoc";"30";"0";"FINISHED";"LEFT";"success";"466";"0";"2014-09-29 19:34:00.720";"3";;;;;;;;;;;;;;;;;;;;;;;;;;;;;;;;;
"AC2014";;;"Windows 7";"Rachel's Experiment (D.T.)";"1.0";"2";"1";"1";"2";"1";"1";"2014-09-29 19:27:38.254";"2014-09-29 19:43:30.014";"1";"0";"0";"94";"93";"module.training_block3.exec-2713.GoNoGo3";;;;;;;;;;;;;;;;;;;;;;;;;;;;;;;;;;;;;;;;;;;;;;;"1249";"2014-09-29 19:34:04.494";"NST_correctLoc";"21";"1";"FINISHED";"RIGHT";"success";"531";"0";"2014-09-29 19:34:03.244";"3";;;;;;;;;;;;;;;;;;;;;;;;;;;;;;;;;
"AC2014";;;"Windows 7";"Rachel's Experiment (D.T.)";"1.0";"2";"1";"1";"2";"1";"1";"2014-09-29 19:27:38.254";"2014-09-29 19:43:30.014";"1";"0";"0";"95";"94";"module.training_block3.exec-2713.GoNoGo3";;;;;;;;;;;;;;;;;;;;;;;;;;;;;;;;;;;;;;;;;;;;;;;"1249";"2014-09-29 19:34:07.018";"NST_correctLoc";"13";"1";"FINISHED";"RIGHT";"success";"550";"0";"2014-09-29 19:34:05.767";"2";;;;;;;;;;;;;;;;;;;;;;;;;;;;;;;;;
"AC2014";;;"Windows 7";"Rachel's Experiment (D.T.)";"1.0";"2";"1";"1";"2";"1";"1";"2014-09-29 19:27:38.254";"2014-09-29 19:43:30.014";"1";"0";"0";"96";"95";"module.training_block3.exec-2713.GoNoGo3";;;;;;;;;;;;;;;;;;;;;;;;;;;;;;;;;;;;;;;;;;;;;;;"1249";"2014-09-29 19:34:09.542";"NST_correctLoc";"31";"1";"FINISHED";"RIGHT";"success";"479";"0";"2014-09-29 19:34:08.292";"3";;;;;;;;;;;;;;;;;;;;;;;;;;;;;;;;;
"AC2014";;;"Windows 7";"Rachel's Experiment (D.T.)";"1.0";"2";"1";"1";"2";"1";"1";"2014-09-29 19:27:38.254";"2014-09-29 19:43:30.014";"1";"0";"0";"97";"96";"module.training_block3.exec-2713.GoNoGo3";;;;;;;;;;;;;;;;;;;;;;;;;;;;;;;;;;;;;;;;;;;;;;;"1249";"2014-09-29 19:34:12.065";"NST_correctLoc";"1";"1";"FINISHED";"RIGHT";"success";"534";"0";"2014-09-29 19:34:10.815";"1";;;;;;;;;;;;;;;;;;;;;;;;;;;;;;;;;
"AC2014";;;"Windows 7";"Rachel's Experiment (D.T.)";"1.0";"2";"1";"1";"2";"1";"1";"2014-09-29 19:27:38.254";"2014-09-29 19:43:30.014";"1";"0";"0";"98";"97";"module.training_block3.exec-2713.GoNoGo3";;;;;;;;;;;;;;;;;;;;;;;;;;;;;;;;;;;;;;;;;;;;;;;"1249";"2014-09-29 19:34:14.589";"NST_correctLoc";"23";"0";"FINISHED";"LEFT";"success";"447";"0";"2014-09-29 19:34:13.339";"3";;;;;;;;;;;;;;;;;;;;;;;;;;;;;;;;;
"AC2014";;;"Windows 7";"Rachel's Experiment (D.T.)";"1.0";"2";"1";"1";"2";"1";"1";"2014-09-29 19:27:38.254";"2014-09-29 19:43:30.014";"1";"0";"0";"99";"98";"module.training_block3.exec-2713.GoNoGo3";;;;;;;;;;;;;;;;;;;;;;;;;;;;;;;;;;;;;;;;;;;;;;;"1249";"2014-09-29 19:34:17.112";"NST_correctLoc";"29";"0";"FINISHED";"LEFT";"success";"432";"0";"2014-09-29 19:34:15.862";"3";;;;;;;;;;;;;;;;;;;;;;;;;;;;;;;;;
"AC2014";;;"Windows 7";"Rachel's Experiment (D.T.)";"1.0";"2";"1";"1";"2";"1";"1";"2014-09-29 19:27:38.254";"2014-09-29 19:43:30.014";"1";"0";"0";"100";"99";"module.training_block3.exec-2713.GoNoGo3";;;;;;;;;;;;;;;;;;;;;;;;;;;;;;;;;;;;;;;;;;;;;;;"1249";"2014-09-29 19:34:19.635";"NST_correctLoc";"20";"0";"FINISHED";"LEFT";"success";"522";"0";"2014-09-29 19:34:18.385";"3";;;;;;;;;;;;;;;;;;;;;;;;;;;;;;;;;
"AC2014";;;"Windows 7";"Rachel's Experiment (D.T.)";"1.0";"2";"1";"1";"2";"1";"1";"2014-09-29 19:27:38.254";"2014-09-29 19:43:30.014";"1";"0";"0";"101";"100";"module.training_block3.exec-2713.GoNoGo3";;;;;;;;;;;;;;;;;;;;;;;;;;;;;;;;;;;;;;;;;;;;;;;"1249";"2014-09-29 19:34:22.159";"NST_correctLoc";"16";"0";"FINISHED";"LEFT";"success";"506";"0";"2014-09-29 19:34:20.909";"2";;;;;;;;;;;;;;;;;;;;;;;;;;;;;;;;;
"AC2014";;;"Windows 7";"Rachel's Experiment (D.T.)";"1.0";"2";"1";"1";"2";"1";"1";"2014-09-29 19:27:38.254";"2014-09-29 19:43:30.014";"1";"0";"0";"102";"101";"module.training_block3.exec-2713.GoNoGo3";;;;;;;;;;;;;;;;;;;;;;;;;;;;;;;;;;;;;;;;;;;;;;;"1249";"2014-09-29 19:34:24.683";"NST_correctLoc";"3";"1";"FINISHED";"RIGHT";"success";"415";"0";"2014-09-29 19:34:23.432";"1";;;;;;;;;;;;;;;;;;;;;;;;;;;;;;;;;
"AC2014";;;"Windows 7";"Rachel's Experiment (D.T.)";"1.0";"2";"1";"1";"2";"1";"1";"2014-09-29 19:27:38.254";"2014-09-29 19:43:30.014";"1";"0";"0";"103";"102";"module.training_block3.exec-2713.GoNoGo3";;;;;;;;;;;;;;;;;;;;;;;;;;;;;;;;;;;;;;;;;;;;;;;"1250";"2014-09-29 19:34:27.206";"NST_correctLoc";"14";"0";"FINISHED";"LEFT";"success";"425";"0";"2014-09-29 19:34:25.956";"2";;;;;;;;;;;;;;;;;;;;;;;;;;;;;;;;;
"AC2014";;;"Windows 7";"Rachel's Experiment (D.T.)";"1.0";"2";"1";"1";"2";"1";"1";"2014-09-29 19:27:38.254";"2014-09-29 19:43:30.014";"1";"0";"0";"104";"103";"module.training_block3.exec-2713.GoNoGo3";;;;;;;;;;;;;;;;;;;;;;;;;;;;;;;;;;;;;;;;;;;;;;;"1249";"2014-09-29 19:34:29.729";"NST_correctLoc";"0";"0";"FINISHED";"LEFT";"success";"470";"0";"2014-09-29 19:34:28.479";"1";;;;;;;;;;;;;;;;;;;;;;;;;;;;;;;;;
"AC2014";;;"Windows 7";"Rachel's Experiment (D.T.)";"1.0";"2";"1";"1";"2";"1";"1";"2014-09-29 19:27:38.254";"2014-09-29 19:43:30.014";"1";"0";"0";"105";"104";"module.training_block3.exec-2713.GoNoGo3";;;;;;;;;;;;;;;;;;;;;;;;;;;;;;;;;;;;;;;;;;;;;;;"1249";"2014-09-29 19:34:32.251";"NST_correctLoc";"8";"0";"FINISHED";"LEFT";"success";"515";"0";"2014-09-29 19:34:31.001";"1";;;;;;;;;;;;;;;;;;;;;;;;;;;;;;;;;
"AC2014";;;"Windows 7";"Rachel's Experiment (D.T.)";"1.0";"2";"1";"1";"2";"1";"1";"2014-09-29 19:27:38.254";"2014-09-29 19:43:30.014";"1";"0";"0";"106";"105";"module.training_block3.exec-2713.GoNoGo3";;;;;;;;;;;;;;;;;;;;;;;;;;;;;;;;;;;;;;;;;;;;;;;"1249";"2014-09-29 19:34:34.775";"NST_correctLoc";"6";"1";"FINISHED";"RIGHT";"success";"428";"0";"2014-09-29 19:34:33.525";"1";;;;;;;;;;;;;;;;;;;;;;;;;;;;;;;;;
"AC2014";;;"Windows 7";"Rachel's Experiment (D.T.)";"1.0";"2";"1";"1";"2";"1";"1";"2014-09-29 19:27:38.254";"2014-09-29 19:43:30.014";"1";"0";"0";"107";"106";"module.training_block3.exec-2713.GoNoGo3";;;;;;;;;;;;;;;;;;;;;;;;;;;;;;;;;;;;;;;;;;;;;;;"1249";"2014-09-29 19:34:37.299";"NST_correctLoc";"18";"1";"FINISHED";"RIGHT";"success";"432";"0";"2014-09-29 19:34:36.049";"3";;;;;;;;;;;;;;;;;;;;;;;;;;;;;;;;;
"AC2014";;;"Windows 7";"Rachel's Experiment (D.T.)";"1.0";"2";"1";"1";"2";"1";"1";"2014-09-29 19:27:38.254";"2014-09-29 19:43:30.014";"1";"0";"0";"108";"107";"module.training_block3.exec-2713.GoNoGo3";;;;;;;;;;;;;;;;;;;;;;;;;;;;;;;;;;;;;;;;;;;;;;;"1249";"2014-09-29 19:34:39.823";"NST_correctLoc";"17";"0";"FINISHED";"LEFT";"success";"411";"0";"2014-09-29 19:34:38.573";"2";;;;;;;;;;;;;;;;;;;;;;;;;;;;;;;;;
"AC2014";;;"Windows 7";"Rachel's Experiment (D.T.)";"1.0";"2";"1";"1";"2";"1";"1";"2014-09-29 19:27:38.254";"2014-09-29 19:43:30.014";"1";"0";"0";"109";"108";"module.training_block3.exec-2713.GoNoGo3";;;;;;;;;;;;;;;;;;;;;;;;;;;;;;;;;;;;;;;;;;;;;;;"1249";"2014-09-29 19:34:42.347";"NST_correctLoc";"32";"1";"FINISHED";"RIGHT";"success";"425";"0";"2014-09-29 19:34:41.096";"3";;;;;;;;;;;;;;;;;;;;;;;;;;;;;;;;;
"AC2014";;;"Windows 7";"Rachel's Experiment (D.T.)";"1.0";"2";"1";"1";"2";"1";"1";"2014-09-29 19:27:38.254";"2014-09-29 19:43:30.014";"1";"0";"0";"110";"109";"module.training_block3.exec-2713.GoNoGo3";;;;;;;;;;;;;;;;;;;;;;;;;;;;;;;;;;;;;;;;;;;;;;;"1250";"2014-09-29 19:34:44.870";"NST_correctLoc";"15";"1";"FINISHED";"RIGHT";"success";"556";"0";"2014-09-29 19:34:43.620";"2";;;;;;;;;;;;;;;;;;;;;;;;;;;;;;;;;
"AC2014";;;"Windows 7";"Rachel's Experiment (D.T.)";"1.0";"2";"1";"1";"2";"1";"1";"2014-09-29 19:27:38.254";"2014-09-29 19:43:30.014";"1";"0";"0";"111";"110";"module.training_block3.exec-2713.GoNoGo3";;;;;;;;;;;;;;;;;;;;;;;;;;;;;;;;;;;;;;;;;;;;;;;"1249";"2014-09-29 19:34:47.394";"NST_correctLoc";"33";"0";"FINISHED";"LEFT";"success";"439";"0";"2014-09-29 19:34:46.144";"3";;;;;;;;;;;;;;;;;;;;;;;;;;;;;;;;;
"AC2014";;;"Windows 7";"Rachel's Experiment (D.T.)";"1.0";"2";"1";"1";"2";"1";"1";"2014-09-29 19:27:38.254";"2014-09-29 19:43:30.014";"1";"0";"0";"112";"111";"module.training_block3.exec-2713.GoNoGo3";;;;;;;;;;;;;;;;;;;;;;;;;;;;;;;;;;;;;;;;;;;;;;;"1249";"2014-09-29 19:34:49.917";"NST_correctLoc";"25";"1";"FINISHED";"RIGHT";"success";"424";"0";"2014-09-29 19:34:48.667";"3";;;;;;;;;;;;;;;;;;;;;;;;;;;;;;;;;
"AC2014";;;"Windows 7";"Rachel's Experiment (D.T.)";"1.0";"2";"1";"1";"2";"1";"1";"2014-09-29 19:27:38.254";"2014-09-29 19:43:30.014";"1";"0";"0";"113";"112";"module.training_block3.exec-2713.GoNoGo3";;;;;;;;;;;;;;;;;;;;;;;;;;;;;;;;;;;;;;;;;;;;;;;"1249";"2014-09-29 19:34:52.440";"NST_correctLoc";"5";"0";"FINISHED";"LEFT";"success";"433";"0";"2014-09-29 19:34:51.190";"1";;;;;;;;;;;;;;;;;;;;;;;;;;;;;;;;;
"AC2014";;;"Windows 7";"Rachel's Experiment (D.T.)";"1.0";"2";"1";"1";"2";"1";"1";"2014-09-29 19:27:38.254";"2014-09-29 19:43:30.014";"1";"0";"0";"114";"113";"module.training_block3.exec-2713.GoNoGo3";;;;;;;;;;;;;;;;;;;;;;;;;;;;;;;;;;;;;;;;;;;;;;;"1249";"2014-09-29 19:34:54.968";"NST_correctLoc";"19";"0";"FINISHED";"LEFT";"success";"503";"0";"2014-09-29 19:34:53.718";"3";;;;;;;;;;;;;;;;;;;;;;;;;;;;;;;;;
"AC2014";;;"Windows 7";"Rachel's Experiment (D.T.)";"1.0";"2";"1";"1";"2";"1";"1";"2014-09-29 19:27:38.254";"2014-09-29 19:43:30.014";"1";"0";"0";"115";"114";"module.training_block3.exec-2713.GoNoGo3";;;;;;;;;;;;;;;;;;;;;;;;;;;;;;;;;;;;;;;;;;;;;;;"1249";"2014-09-29 19:34:57.491";"NST_correctLoc";"27";"1";"FINISHED";"RIGHT";"success";"473";"0";"2014-09-29 19:34:56.241";"3";;;;;;;;;;;;;;;;;;;;;;;;;;;;;;;;;
"AC2014";;;"Windows 7";"Rachel's Experiment (D.T.)";"1.0";"2";"1";"1";"2";"1";"1";"2014-09-29 19:27:38.254";"2014-09-29 19:43:30.014";"1";"0";"0";"116";"115";"module.training_block3.exec-2713.GoNoGo3";;;;;;;;;;;;;;;;;;;;;;;;;;;;;;;;;;;;;;;;;;;;;;;"1249";"2014-09-29 19:35:00.015";"NST_correctLoc";"26";"0";"FINISHED";"LEFT";"success";"437";"0";"2014-09-29 19:34:58.764";"3";;;;;;;;;;;;;;;;;;;;;;;;;;;;;;;;;
"AC2014";;;"Windows 7";"Rachel's Experiment (D.T.)";"1.0";"2";"1";"1";"2";"1";"1";"2014-09-29 19:27:38.254";"2014-09-29 19:43:30.014";"1";"0";"0";"117";"116";"module.training_block3.exec-2713.GoNoGo3";;;;;;;;;;;;;;;;;;;;;;;;;;;;;;;;;;;;;;;;;;;;;;;"1249";"2014-09-29 19:35:02.538";"NST_correctLoc";"22";"1";"FINISHED";"RIGHT";"success";"352";"0";"2014-09-29 19:35:01.288";"3";;;;;;;;;;;;;;;;;;;;;;;;;;;;;;;;;
"AC2014";;;"Windows 7";"Rachel's Experiment (D.T.)";"1.0";"2";"1";"1";"2";"1";"1";"2014-09-29 19:27:38.254";"2014-09-29 19:43:30.014";"1";"0";"0";"118";"117";"module.training_block3.exec-2713.GoNoGo3";;;;;;;;;;;;;;;;;;;;;;;;;;;;;;;;;;;;;;;;;;;;;;;"1249";"2014-09-29 19:35:05.061";"NST_correctLoc";"35";"0";"FINISHED";"LEFT";"success";"381";"0";"2014-09-29 19:35:03.811";"3";;;;;;;;;;;;;;;;;;;;;;;;;;;;;;;;;
"AC2014";;;"Windows 7";"Rachel's Experiment (D.T.)";"1.0";"2";"1";"1";"2";"1";"1";"2014-09-29 19:27:38.254";"2014-09-29 19:43:30.014";"1";"0";"0";"119";"118";"module.training_block3.exec-2713.GoNoGo3";;;;;;;;;;;;;;;;;;;;;;;;;;;;;;;;;;;;;;;;;;;;;;;"1249";"2014-09-29 19:35:07.584";"NST_correctLoc";"11";"0";"FINISHED";"LEFT";"success";"462";"0";"2014-09-29 19:35:06.334";"2";;;;;;;;;;;;;;;;;;;;;;;;;;;;;;;;;
"AC2014";;;"Windows 7";"Rachel's Experiment (D.T.)";"1.0";"2";"1";"1";"2";"1";"1";"2014-09-29 19:27:38.254";"2014-09-29 19:43:30.014";"1";"0";"0";"120";"119";"module.training_block3.exec-2713.GoNoGo3";;;;;;;;;;;;;;;;;;;;;;;;;;;;;;;;;;;;;;;;;;;;;;;"1249";"2014-09-29 19:35:10.107";"NST_correctLoc";"12";"1";"FINISHED";"RIGHT";"success";"471";"0";"2014-09-29 19:35:08.857";"2";;;;;;;;;;;;;;;;;;;;;;;;;;;;;;;;;
"AC2014";;;"Windows 7";"Rachel's Experiment (D.T.)";"1.0";"2";"1";"1";"2";"1";"1";"2014-09-29 19:27:38.254";"2014-09-29 19:43:30.014";"1";"0";"0";"121";"120";"module.training_block3.exec-2713.GoNoGo3";;;;;;;;;;;;;;;;;;;;;;;;;;;;;;;;;;;;;;;;;;;;;;;"1249";"2014-09-29 19:35:12.629";"NST_correctLoc";"10";"1";"FINISHED";"RIGHT";"success";"507";"0";"2014-09-29 19:35:11.379";"2";;;;;;;;;;;;;;;;;;;;;;;;;;;;;;;;;
"AC2014";;;"Windows 7";"Rachel's Experiment (D.T.)";"1.0";"2";"1";"1";"2";"1";"1";"2014-09-29 19:27:38.254";"2014-09-29 19:43:30.014";"1";"0";"0";"122";"121";"module.training_block3.exec-2713.GoNoGo3";;;;;;;;;;;;;;;;;;;;;;;;;;;;;;;;;;;;;;;;;;;;;;;"1249";"2014-09-29 19:35:15.152";"NST_correctLoc";"28";"0";"FINISHED";"LEFT";"success";"406";"0";"2014-09-29 19:35:13.902";"3";;;;;;;;;;;;;;;;;;;;;;;;;;;;;;;;;
"AC2014";;;"Windows 7";"Rachel's Experiment (D.T.)";"1.0";"2";"1";"1";"2";"1";"1";"2014-09-29 19:27:38.254";"2014-09-29 19:43:30.014";"1";"0";"0";"123";"122";"module.training_block3.exec-2713.GoNoGo3";;;;;;;;;;;;;;;;;;;;;;;;;;;;;;;;;;;;;;;;;;;;;;;"1249";"2014-09-29 19:35:17.676";"NST_correctLoc";"34";"0";"FINISHED";"LEFT";"success";"466";"0";"2014-09-29 19:35:16.425";"3";;;;;;;;;;;;;;;;;;;;;;;;;;;;;;;;;
"AC2014";;;"Windows 7";"Rachel's Experiment (D.T.)";"1.0";"2";"1";"1";"2";"1";"1";"2014-09-29 19:27:38.254";"2014-09-29 19:43:30.014";"1";"0";"0";"124";"123";"module.training_block4.exec-4688.GoNoGo4";;;;;;;;;;;;;;;;;;;;;;;;;;;;;;;;;;;;;;;;;;;;;;;;;;;;;;;;;;;"1249";"2014-09-29 19:35:28.470";"NST_correctLoc";"6";"1";"FINISHED";"RIGHT";"success";"518";"0";"2014-09-29 19:35:27.220";"1";;;;;;;;;;;;;;;;;;;;;
"AC2014";;;"Windows 7";"Rachel's Experiment (D.T.)";"1.0";"2";"1";"1";"2";"1";"1";"2014-09-29 19:27:38.254";"2014-09-29 19:43:30.014";"1";"0";"0";"125";"124";"module.training_block4.exec-4688.GoNoGo4";;;;;;;;;;;;;;;;;;;;;;;;;;;;;;;;;;;;;;;;;;;;;;;;;;;;;;;;;;;"1249";"2014-09-29 19:35:30.991";"NST_correctLoc";"27";"1";"FINISHED";"RIGHT";"success";"494";"0";"2014-09-29 19:35:29.741";"3";;;;;;;;;;;;;;;;;;;;;
"AC2014";;;"Windows 7";"Rachel's Experiment (D.T.)";"1.0";"2";"1";"1";"2";"1";"1";"2014-09-29 19:27:38.254";"2014-09-29 19:43:30.014";"1";"0";"0";"126";"125";"module.training_block4.exec-4688.GoNoGo4";;;;;;;;;;;;;;;;;;;;;;;;;;;;;;;;;;;;;;;;;;;;;;;;;;;;;;;;;;;"1249";"2014-09-29 19:35:33.511";"NST_correctLoc";"26";"0";"FINISHED";"LEFT";"success";"367";"0";"2014-09-29 19:35:32.261";"3";;;;;;;;;;;;;;;;;;;;;
"AC2014";;;"Windows 7";"Rachel's Experiment (D.T.)";"1.0";"2";"1";"1";"2";"1";"1";"2014-09-29 19:27:38.254";"2014-09-29 19:43:30.014";"1";"0";"0";"127";"126";"module.training_block4.exec-4688.GoNoGo4";;;;;;;;;;;;;;;;;;;;;;;;;;;;;;;;;;;;;;;;;;;;;;;;;;;;;;;;;;;"1250";"2014-09-29 19:35:36.033";"NST_correctLoc";"9";"0";"FINISHED";"LEFT";"success";"420";"0";"2014-09-29 19:35:34.783";"2";;;;;;;;;;;;;;;;;;;;;
"AC2014";;;"Windows 7";"Rachel's Experiment (D.T.)";"1.0";"2";"1";"1";"2";"1";"1";"2014-09-29 19:27:38.254";"2014-09-29 19:43:30.014";"1";"0";"0";"128";"127";"module.training_block4.exec-4688.GoNoGo4";;;;;;;;;;;;;;;;;;;;;;;;;;;;;;;;;;;;;;;;;;;;;;;;;;;;;;;;;;;"1249";"2014-09-29 19:35:38.554";"NST_correctLoc";"12";"0";"FINISHED";"LEFT";"success";"482";"0";"2014-09-29 19:35:37.304";"2";;;;;;;;;;;;;;;;;;;;;
"AC2014";;;"Windows 7";"Rachel's Experiment (D.T.)";"1.0";"2";"1";"1";"2";"1";"1";"2014-09-29 19:27:38.254";"2014-09-29 19:43:30.014";"1";"0";"0";"129";"128";"module.training_block4.exec-4688.GoNoGo4";;;;;;;;;;;;;;;;;;;;;;;;;;;;;;;;;;;;;;;;;;;;;;;;;;;;;;;;;;;"1249";"2014-09-29 19:35:41.075";"NST_correctLoc";"35";"1";"FINISHED";"RIGHT";"success";"413";"0";"2014-09-29 19:35:39.825";"3";;;;;;;;;;;;;;;;;;;;;
"AC2014";;;"Windows 7";"Rachel's Experiment (D.T.)";"1.0";"2";"1";"1";"2";"1";"1";"2014-09-29 19:27:38.254";"2014-09-29 19:43:30.014";"1";"0";"0";"130";"129";"module.training_block4.exec-4688.GoNoGo4";;;;;;;;;;;;;;;;;;;;;;;;;;;;;;;;;;;;;;;;;;;;;;;;;;;;;;;;;;;"1250";"2014-09-29 19:35:43.595";"NST_correctLoc";"31";"0";"FINISHED";"LEFT";"success";"391";"0";"2014-09-29 19:35:42.345";"3";;;;;;;;;;;;;;;;;;;;;
"AC2014";;;"Windows 7";"Rachel's Experiment (D.T.)";"1.0";"2";"1";"1";"2";"1";"1";"2014-09-29 19:27:38.254";"2014-09-29 19:43:30.014";"1";"0";"0";"131";"130";"module.training_block4.exec-4688.GoNoGo4";;;;;;;;;;;;;;;;;;;;;;;;;;;;;;;;;;;;;;;;;;;;;;;;;;;;;;;;;;;"1249";"2014-09-29 19:35:46.115";"NST_correctLoc";"28";"1";"FINISHED";"RIGHT";"success";"404";"0";"2014-09-29 19:35:44.865";"3";;;;;;;;;;;;;;;;;;;;;
"AC2014";;;"Windows 7";"Rachel's Experiment (D.T.)";"1.0";"2";"1";"1";"2";"1";"1";"2014-09-29 19:27:38.254";"2014-09-29 19:43:30.014";"1";"0";"0";"132";"131";"module.training_block4.exec-4688.GoNoGo4";;;;;;;;;;;;;;;;;;;;;;;;;;;;;;;;;;;;;;;;;;;;;;;;;;;;;;;;;;;"1249";"2014-09-29 19:35:48.637";"NST_correctLoc";"29";"1";"FINISHED";"RIGHT";"success";"414";"0";"2014-09-29 19:35:47.387";"3";;;;;;;;;;;;;;;;;;;;;
"AC2014";;;"Windows 7";"Rachel's Experiment (D.T.)";"1.0";"2";"1";"1";"2";"1";"1";"2014-09-29 19:27:38.254";"2014-09-29 19:43:30.014";"1";"0";"0";"133";"132";"module.training_block4.exec-4688.GoNoGo4";;;;;;;;;;;;;;;;;;;;;;;;;;;;;;;;;;;;;;;;;;;;;;;;;;;;;;;;;;;"1250";"2014-09-29 19:35:51.159";"NST_correctLoc";"8";"0";"FINISHED";"LEFT";"success";"390";"0";"2014-09-29 19:35:49.909";"1";;;;;;;;;;;;;;;;;;;;;
"AC2014";;;"Windows 7";"Rachel's Experiment (D.T.)";"1.0";"2";"1";"1";"2";"1";"1";"2014-09-29 19:27:38.254";"2014-09-29 19:43:30.014";"1";"0";"0";"134";"133";"module.training_block4.exec-4688.GoNoGo4";;;;;;;;;;;;;;;;;;;;;;;;;;;;;;;;;;;;;;;;;;;;;;;;;;;;;;;;;;;"1250";"2014-09-29 19:35:53.681";"NST_correctLoc";"14";"1";"FINISHED";"RIGHT";"success";"402";"0";"2014-09-29 19:35:52.431";"2";;;;;;;;;;;;;;;;;;;;;
"AC2014";;;"Windows 7";"Rachel's Experiment (D.T.)";"1.0";"2";"1";"1";"2";"1";"1";"2014-09-29 19:27:38.254";"2014-09-29 19:43:30.014";"1";"0";"0";"135";"134";"module.training_block4.exec-4688.GoNoGo4";;;;;;;;;;;;;;;;;;;;;;;;;;;;;;;;;;;;;;;;;;;;;;;;;;;;;;;;;;;"1249";"2014-09-29 19:35:56.201";"NST_correctLoc";"4";"0";"FINISHED";"LEFT";"success";"354";"0";"2014-09-29 19:35:54.951";"1";;;;;;;;;;;;;;;;;;;;;
"AC2014";;;"Windows 7";"Rachel's Experiment (D.T.)";"1.0";"2";"1";"1";"2";"1";"1";"2014-09-29 19:27:38.254";"2014-09-29 19:43:30.014";"1";"0";"0";"136";"135";"module.training_block4.exec-4688.GoNoGo4";;;;;;;;;;;;;;;;;;;;;;;;;;;;;;;;;;;;;;;;;;;;;;;;;;;;;;;;;;;"1250";"2014-09-29 19:35:58.722";"NST_correctLoc";"17";"1";"FINISHED";"RIGHT";"success";"386";"0";"2014-09-29 19:35:57.472";"2";;;;;;;;;;;;;;;;;;;;;
"AC2014";;;"Windows 7";"Rachel's Experiment (D.T.)";"1.0";"2";"1";"1";"2";"1";"1";"2014-09-29 19:27:38.254";"2014-09-29 19:43:30.014";"1";"0";"0";"137";"136";"module.training_block4.exec-4688.GoNoGo4";;;;;;;;;;;;;;;;;;;;;;;;;;;;;;;;;;;;;;;;;;;;;;;;;;;;;;;;;;;"1250";"2014-09-29 19:36:01.247";"NST_correctLoc";"11";"0";"FINISHED";"LEFT";"success";"374";"0";"2014-09-29 19:35:59.997";"2";;;;;;;;;;;;;;;;;;;;;
"AC2014";;;"Windows 7";"Rachel's Experiment (D.T.)";"1.0";"2";"1";"1";"2";"1";"1";"2014-09-29 19:27:38.254";"2014-09-29 19:43:30.014";"1";"0";"0";"138";"137";"module.training_block4.exec-4688.GoNoGo4";;;;;;;;;;;;;;;;;;;;;;;;;;;;;;;;;;;;;;;;;;;;;;;;;;;;;;;;;;;"1250";"2014-09-29 19:36:03.767";"NST_correctLoc";"24";"1";"FINISHED";"RIGHT";"success";"427";"0";"2014-09-29 19:36:02.517";"3";;;;;;;;;;;;;;;;;;;;;
"AC2014";;;"Windows 7";"Rachel's Experiment (D.T.)";"1.0";"2";"1";"1";"2";"1";"1";"2014-09-29 19:27:38.254";"2014-09-29 19:43:30.014";"1";"0";"0";"139";"138";"module.training_block4.exec-4688.GoNoGo4";;;;;;;;;;;;;;;;;;;;;;;;;;;;;;;;;;;;;;;;;;;;;;;;;;;;;;;;;;;"1249";"2014-09-29 19:36:06.287";"NST_correctLoc";"0";"1";"FINISHED";"RIGHT";"success";"460";"0";"2014-09-29 19:36:05.037";"1";;;;;;;;;;;;;;;;;;;;;
"AC2014";;;"Windows 7";"Rachel's Experiment (D.T.)";"1.0";"2";"1";"1";"2";"1";"1";"2014-09-29 19:27:38.254";"2014-09-29 19:43:30.014";"1";"0";"0";"140";"139";"module.training_block4.exec-4688.GoNoGo4";;;;;;;;;;;;;;;;;;;;;;;;;;;;;;;;;;;;;;;;;;;;;;;;;;;;;;;;;;;"1249";"2014-09-29 19:36:08.814";"NST_correctLoc";"32";"0";"FINISHED";"LEFT";"success";"370";"0";"2014-09-29 19:36:07.564";"3";;;;;;;;;;;;;;;;;;;;;
"AC2014";;;"Windows 7";"Rachel's Experiment (D.T.)";"1.0";"2";"1";"1";"2";"1";"1";"2014-09-29 19:27:38.254";"2014-09-29 19:43:30.014";"1";"0";"0";"141";"140";"module.training_block4.exec-4688.GoNoGo4";;;;;;;;;;;;;;;;;;;;;;;;;;;;;;;;;;;;;;;;;;;;;;;;;;;;;;;;;;;"1250";"2014-09-29 19:36:11.335";"NST_correctLoc";"30";"0";"FINISHED";"LEFT";"success";"398";"0";"2014-09-29 19:36:10.085";"3";;;;;;;;;;;;;;;;;;;;;
"AC2014";;;"Windows 7";"Rachel's Experiment (D.T.)";"1.0";"2";"1";"1";"2";"1";"1";"2014-09-29 19:27:38.254";"2014-09-29 19:43:30.014";"1";"0";"0";"142";"141";"module.training_block4.exec-4688.GoNoGo4";;;;;;;;;;;;;;;;;;;;;;;;;;;;;;;;;;;;;;;;;;;;;;;;;;;;;;;;;;;"1250";"2014-09-29 19:36:13.855";"NST_correctLoc";"2";"0";"FINISHED";"LEFT";"success";"426";"0";"2014-09-29 19:36:12.605";"1";;;;;;;;;;;;;;;;;;;;;
"AC2014";;;"Windows 7";"Rachel's Experiment (D.T.)";"1.0";"2";"1";"1";"2";"1";"1";"2014-09-29 19:27:38.254";"2014-09-29 19:43:30.014";"1";"0";"0";"143";"142";"module.training_block4.exec-4688.GoNoGo4";;;;;;;;;;;;;;;;;;;;;;;;;;;;;;;;;;;;;;;;;;;;;;;;;;;;;;;;;;;"1250";"2014-09-29 19:36:16.374";"NST_correctLoc";"34";"1";"FINISHED";"RIGHT";"success";"400";"0";"2014-09-29 19:36:15.124";"3";;;;;;;;;;;;;;;;;;;;;
"AC2014";;;"Windows 7";"Rachel's Experiment (D.T.)";"1.0";"2";"1";"1";"2";"1";"1";"2014-09-29 19:27:38.254";"2014-09-29 19:43:30.014";"1";"0";"0";"144";"143";"module.training_block4.exec-4688.GoNoGo4";;;;;;;;;;;;;;;;;;;;;;;;;;;;;;;;;;;;;;;;;;;;;;;;;;;;;;;;;;;"1250";"2014-09-29 19:36:18.893";"NST_correctLoc";"25";"0";"FINISHED";"LEFT";"success";"398";"0";"2014-09-29 19:36:17.643";"3";;;;;;;;;;;;;;;;;;;;;
"AC2014";;;"Windows 7";"Rachel's Experiment (D.T.)";"1.0";"2";"1";"1";"2";"1";"1";"2014-09-29 19:27:38.254";"2014-09-29 19:43:30.014";"1";"0";"0";"145";"144";"module.training_block4.exec-4688.GoNoGo4";;;;;;;;;;;;;;;;;;;;;;;;;;;;;;;;;;;;;;;;;;;;;;;;;;;;;;;;;;;"1249";"2014-09-29 19:36:21.413";"NST_correctLoc";"7";"1";"FINISHED";"RIGHT";"success";"371";"0";"2014-09-29 19:36:20.163";"1";;;;;;;;;;;;;;;;;;;;;
"AC2014";;;"Windows 7";"Rachel's Experiment (D.T.)";"1.0";"2";"1";"1";"2";"1";"1";"2014-09-29 19:27:38.254";"2014-09-29 19:43:30.014";"1";"0";"0";"146";"145";"module.training_block4.exec-4688.GoNoGo4";;;;;;;;;;;;;;;;;;;;;;;;;;;;;;;;;;;;;;;;;;;;;;;;;;;;;;;;;;;"1249";"2014-09-29 19:36:23.933";"NST_correctLoc";"21";"0";"FINISHED";"LEFT";"success";"374";"0";"2014-09-29 19:36:22.683";"3";;;;;;;;;;;;;;;;;;;;;
"AC2014";;;"Windows 7";"Rachel's Experiment (D.T.)";"1.0";"2";"1";"1";"2";"1";"1";"2014-09-29 19:27:38.254";"2014-09-29 19:43:30.014";"1";"0";"0";"147";"146";"module.training_block4.exec-4688.GoNoGo4";;;;;;;;;;;;;;;;;;;;;;;;;;;;;;;;;;;;;;;;;;;;;;;;;;;;;;;;;;;"1250";"2014-09-29 19:36:26.454";"NST_correctLoc";"15";"1";"FINISHED";"RIGHT";"success";"372";"0";"2014-09-29 19:36:25.203";"2";;;;;;;;;;;;;;;;;;;;;
"AC2014";;;"Windows 7";"Rachel's Experiment (D.T.)";"1.0";"2";"1";"1";"2";"1";"1";"2014-09-29 19:27:38.254";"2014-09-29 19:43:30.014";"1";"0";"0";"148";"147";"module.training_block4.exec-4688.GoNoGo4";;;;;;;;;;;;;;;;;;;;;;;;;;;;;;;;;;;;;;;;;;;;;;;;;;;;;;;;;;;"1250";"2014-09-29 19:36:28.974";"NST_correctLoc";"1";"0";"FINISHED";"LEFT";"success";"460";"0";"2014-09-29 19:36:27.724";"1";;;;;;;;;;;;;;;;;;;;;
"AC2014";;;"Windows 7";"Rachel's Experiment (D.T.)";"1.0";"2";"1";"1";"2";"1";"1";"2014-09-29 19:27:38.254";"2014-09-29 19:43:30.014";"1";"0";"0";"149";"148";"module.training_block4.exec-4688.GoNoGo4";;;;;;;;;;;;;;;;;;;;;;;;;;;;;;;;;;;;;;;;;;;;;;;;;;;;;;;;;;;"1250";"2014-09-29 19:36:31.494";"NST_correctLoc";"13";"0";"FINISHED";"LEFT";"success";"407";"0";"2014-09-29 19:36:30.244";"2";;;;;;;;;;;;;;;;;;;;;
"AC2014";;;"Windows 7";"Rachel's Experiment (D.T.)";"1.0";"2";"1";"1";"2";"1";"1";"2014-09-29 19:27:38.254";"2014-09-29 19:43:30.014";"1";"0";"0";"150";"149";"module.training_block4.exec-4688.GoNoGo4";;;;;;;;;;;;;;;;;;;;;;;;;;;;;;;;;;;;;;;;;;;;;;;;;;;;;;;;;;;"1250";"2014-09-29 19:36:34.014";"NST_correctLoc";"20";"1";"FINISHED";"RIGHT";"success";"415";"0";"2014-09-29 19:36:32.764";"3";;;;;;;;;;;;;;;;;;;;;
"AC2014";;;"Windows 7";"Rachel's Experiment (D.T.)";"1.0";"2";"1";"1";"2";"1";"1";"2014-09-29 19:27:38.254";"2014-09-29 19:43:30.014";"1";"0";"0";"151";"150";"module.training_block4.exec-4688.GoNoGo4";;;;;;;;;;;;;;;;;;;;;;;;;;;;;;;;;;;;;;;;;;;;;;;;;;;;;;;;;;;"1250";"2014-09-29 19:36:36.533";"NST_correctLoc";"3";"0";"FINISHED";"LEFT";"success";"489";"0";"2014-09-29 19:36:35.283";"1";;;;;;;;;;;;;;;;;;;;;
"AC2014";;;"Windows 7";"Rachel's Experiment (D.T.)";"1.0";"2";"1";"1";"2";"1";"1";"2014-09-29 19:27:38.254";"2014-09-29 19:43:30.014";"1";"0";"0";"152";"151";"module.training_block4.exec-4688.GoNoGo4";;;;;;;;;;;;;;;;;;;;;;;;;;;;;;;;;;;;;;;;;;;;;;;;;;;;;;;;;;;"1249";"2014-09-29 19:36:39.052";"NST_correctLoc";"22";"0";"FINISHED";"LEFT";"success";"448";"0";"2014-09-29 19:36:37.802";"3";;;;;;;;;;;;;;;;;;;;;
"AC2014";;;"Windows 7";"Rachel's Experiment (D.T.)";"1.0";"2";"1";"1";"2";"1";"1";"2014-09-29 19:27:38.254";"2014-09-29 19:43:30.014";"1";"0";"0";"153";"152";"module.training_block4.exec-4688.GoNoGo4";;;;;;;;;;;;;;;;;;;;;;;;;;;;;;;;;;;;;;;;;;;;;;;;;;;;;;;;;;;"1249";"2014-09-29 19:36:41.577";"NST_correctLoc";"18";"1";"FINISHED";"RIGHT";"success";"395";"0";"2014-09-29 19:36:40.327";"3";;;;;;;;;;;;;;;;;;;;;
"AC2014";;;"Windows 7";"Rachel's Experiment (D.T.)";"1.0";"2";"1";"1";"2";"1";"1";"2014-09-29 19:27:38.254";"2014-09-29 19:43:30.014";"1";"0";"0";"154";"153";"module.training_block4.exec-4688.GoNoGo4";;;;;;;;;;;;;;;;;;;;;;;;;;;;;;;;;;;;;;;;;;;;;;;;;;;;;;;;;;;"1249";"2014-09-29 19:36:44.098";"NST_correctLoc";"10";"1";"FINISHED";"RIGHT";"success";"428";"0";"2014-09-29 19:36:42.847";"2";;;;;;;;;;;;;;;;;;;;;
"AC2014";;;"Windows 7";"Rachel's Experiment (D.T.)";"1.0";"2";"1";"1";"2";"1";"1";"2014-09-29 19:27:38.254";"2014-09-29 19:43:30.014";"1";"0";"0";"155";"154";"module.training_block4.exec-4688.GoNoGo4";;;;;;;;;;;;;;;;;;;;;;;;;;;;;;;;;;;;;;;;;;;;;;;;;;;;;;;;;;;"1250";"2014-09-29 19:36:46.617";"NST_correctLoc";"5";"0";"FINISHED";"LEFT";"success";"392";"0";"2014-09-29 19:36:45.367";"1";;;;;;;;;;;;;;;;;;;;;
"AC2014";;;"Windows 7";"Rachel's Experiment (D.T.)";"1.0";"2";"1";"1";"2";"1";"1";"2014-09-29 19:27:38.254";"2014-09-29 19:43:30.014";"1";"0";"0";"156";"155";"module.training_block4.exec-4688.GoNoGo4";;;;;;;;;;;;;;;;;;;;;;;;;;;;;;;;;;;;;;;;;;;;;;;;;;;;;;;;;;;"1250";"2014-09-29 19:36:49.137";"NST_correctLoc";"19";"1";"FINISHED";"RIGHT";"success";"374";"0";"2014-09-29 19:36:47.887";"3";;;;;;;;;;;;;;;;;;;;;
"AC2014";;;"Windows 7";"Rachel's Experiment (D.T.)";"1.0";"2";"1";"1";"2";"1";"1";"2014-09-29 19:27:38.254";"2014-09-29 19:43:30.014";"1";"0";"0";"157";"156";"module.training_block4.exec-4688.GoNoGo4";;;;;;;;;;;;;;;;;;;;;;;;;;;;;;;;;;;;;;;;;;;;;;;;;;;;;;;;;;;"1250";"2014-09-29 19:36:51.656";"NST_correctLoc";"33";"0";"FINISHED";"LEFT";"success";"343";"0";"2014-09-29 19:36:50.406";"3";;;;;;;;;;;;;;;;;;;;;
"AC2014";;;"Windows 7";"Rachel's Experiment (D.T.)";"1.0";"2";"1";"1";"2";"1";"1";"2014-09-29 19:27:38.254";"2014-09-29 19:43:30.014";"1";"0";"0";"158";"157";"module.training_block4.exec-4688.GoNoGo4";;;;;;;;;;;;;;;;;;;;;;;;;;;;;;;;;;;;;;;;;;;;;;;;;;;;;;;;;;;"1250";"2014-09-29 19:36:54.176";"NST_correctLoc";"16";"1";"FINISHED";"RIGHT";"success";"422";"0";"2014-09-29 19:36:52.926";"2";;;;;;;;;;;;;;;;;;;;;
"AC2014";;;"Windows 7";"Rachel's Experiment (D.T.)";"1.0";"2";"1";"1";"2";"1";"1";"2014-09-29 19:27:38.254";"2014-09-29 19:43:30.014";"1";"0";"0";"159";"158";"module.training_block4.exec-4688.GoNoGo4";;;;;;;;;;;;;;;;;;;;;;;;;;;;;;;;;;;;;;;;;;;;;;;;;;;;;;;;;;;"1250";"2014-09-29 19:36:56.695";"NST_correctLoc";"23";"0";"FINISHED";"LEFT";"success";"410";"0";"2014-09-29 19:36:55.445";"3";;;;;;;;;;;;;;;;;;;;;
"AC2014";;;"Windows 7";"Rachel's Experiment (D.T.)";"1.0";"2";"1";"1";"2";"1";"1";"2014-09-29 19:27:38.254";"2014-09-29 19:43:30.014";"1";"0";"0";"160";"159";"module.devaluation_practice.exec-1665.devalPractice";;;;;;;;;;;;"27103";"2014-09-29 19:38:00.105";"0";"4";"6";"6";"12471";"5663";"5926";"2014-09-29 19:37:33.001";;;;;;;;;;;;;;;;;;;;;;;;;;;;;;;;;;;;;;;;;;;;;;;;;;;;;;;;;;;;;;;;;;;;;;
"AC2014";;;"Windows 7";"Rachel's Experiment (D.T.)";"1.0";"2";"1";"1";"2";"1";"1";"2014-09-29 19:27:38.254";"2014-09-29 19:43:30.014";"1";"0";"0";"161";"160";"module.devaluation_practice.exec-1665.devalPractice";;;;;;;;;;;;"12866";"2014-09-29 19:38:12.997";"1";"4";"4";"5";"3842";"5672";"343";"2014-09-29 19:38:00.130";;;;;;;;;;;;;;;;;;;;;;;;;;;;;;;;;;;;;;;;;;;;;;;;;;;;;;;;;;;;;;;;;;;;;;
"AC2014";;;"Windows 7";"Rachel's Experiment (D.T.)";"1.0";"2";"1";"1";"2";"1";"1";"2014-09-29 19:27:38.254";"2014-09-29 19:43:30.014";"1";"0";"0";"162";"161";"module.devaluation_practice.exec-1665.devalPractice";;;;;;;;;;;;"19538";"2014-09-29 19:38:32.559";"2";"4";"6";"5";"9452";"3140";"3936";"2014-09-29 19:38:13.020";;;;;;;;;;;;;;;;;;;;;;;;;;;;;;;;;;;;;;;;;;;;;;;;;;;;;;;;;;;;;;;;;;;;;;
"AC2014";;;"Windows 7";"Rachel's Experiment (D.T.)";"1.0";"2";"1";"1";"2";"1";"1";"2014-09-29 19:27:38.254";"2014-09-29 19:43:30.014";"1";"0";"0";"163";"162";"module.devaluation_practice.exec-1665.devalPractice";;;;;;;;;;;;"11035";"2014-09-29 19:38:43.618";"3";"5";"4";"4";"1767";"3109";"3150";"2014-09-29 19:38:32.583";;;;;;;;;;;;;;;;;;;;;;;;;;;;;;;;;;;;;;;;;;;;;;;;;;;;;;;;;;;;;;;;;;;;;;
"AC2014";;;"Windows 7";"Rachel's Experiment (D.T.)";"1.0";"2";"1";"1";"2";"1";"1";"2014-09-29 19:27:38.254";"2014-09-29 19:43:30.014";"1";"0";"0";"164";"163";"module.devaluation_block1.exec-6699.deval1";"17337";"2014-09-29 19:39:09.467";"2";"4";"2";"6";"10246";"1767";"2309";"2014-09-29 19:38:52.129";"1";;;;;;;;;;;;;;;;;;;;;;;;;;;;;;;;;;;;;;;;;;;;;;;;;;;;;;;;;;;;;;;;;;;;;;;;;;;;;;;;
"AC2014";;;"Windows 7";"Rachel's Experiment (D.T.)";"1.0";"2";"1";"1";"2";"1";"1";"2014-09-29 19:27:38.254";"2014-09-29 19:43:30.014";"1";"0";"0";"165";"164";"module.devaluation_block1.exec-6699.deval1";"11544";"2014-09-29 19:39:21.035";"10";"5";"3";"4";"2052";"2973";"3506";"2014-09-29 19:39:09.492";"2";;;;;;;;;;;;;;;;;;;;;;;;;;;;;;;;;;;;;;;;;;;;;;;;;;;;;;;;;;;;;;;;;;;;;;;;;;;;;;;;
"AC2014";;;"Windows 7";"Rachel's Experiment (D.T.)";"1.0";"2";"1";"1";"2";"1";"1";"2014-09-29 19:27:38.254";"2014-09-29 19:43:30.014";"1";"0";"0";"166";"165";"module.devaluation_block1.exec-6699.deval1";"9216";"2014-09-29 19:39:30.278";"4";"6";"3";"6";"1459";"2471";"2275";"2014-09-29 19:39:21.061";"1";;;;;;;;;;;;;;;;;;;;;;;;;;;;;;;;;;;;;;;;;;;;;;;;;;;;;;;;;;;;;;;;;;;;;;;;;;;;;;;;
"AC2014";;;"Windows 7";"Rachel's Experiment (D.T.)";"1.0";"2";"1";"1";"2";"1";"1";"2014-09-29 19:27:38.254";"2014-09-29 19:43:30.014";"1";"0";"0";"167";"166";"module.devaluation_block1.exec-6699.deval1";"9565";"2014-09-29 19:39:39.868";"17";"3";"4";"6";"2430";"1260";"2864";"2014-09-29 19:39:30.302";"2";;;;;;;;;;;;;;;;;;;;;;;;;;;;;;;;;;;;;;;;;;;;;;;;;;;;;;;;;;;;;;;;;;;;;;;;;;;;;;;;
"AC2014";;;"Windows 7";"Rachel's Experiment (D.T.)";"1.0";"2";"1";"1";"2";"1";"1";"2014-09-29 19:27:38.254";"2014-09-29 19:43:30.014";"1";"0";"0";"168";"167";"module.devaluation_block1.exec-6699.deval1";"8800";"2014-09-29 19:39:48.693";"8";"6";"5";"6";"1108";"983";"3698";"2014-09-29 19:39:39.892";"1";;;;;;;;;;;;;;;;;;;;;;;;;;;;;;;;;;;;;;;;;;;;;;;;;;;;;;;;;;;;;;;;;;;;;;;;;;;;;;;;
"AC2014";;;"Windows 7";"Rachel's Experiment (D.T.)";"1.0";"2";"1";"1";"2";"1";"1";"2014-09-29 19:27:38.254";"2014-09-29 19:43:30.014";"1";"0";"0";"169";"168";"module.devaluation_block1.exec-6699.deval1";"11602";"2014-09-29 19:40:00.318";"1";"4";"2";"4";"3432";"1612";"3546";"2014-09-29 19:39:48.715";"1";;;;;;;;;;;;;;;;;;;;;;;;;;;;;;;;;;;;;;;;;;;;;;;;;;;;;;;;;;;;;;;;;;;;;;;;;;;;;;;;
"AC2014";;;"Windows 7";"Rachel's Experiment (D.T.)";"1.0";"2";"1";"1";"2";"1";"1";"2014-09-29 19:27:38.254";"2014-09-29 19:43:30.014";"1";"0";"0";"170";"169";"module.devaluation_block1.exec-6699.deval1";"13769";"2014-09-29 19:40:14.113";"26";"8";"9";"8";"4675";"2869";"3191";"2014-09-29 19:40:00.343";"3";;;;;;;;;;;;;;;;;;;;;;;;;;;;;;;;;;;;;;;;;;;;;;;;;;;;;;;;;;;;;;;;;;;;;;;;;;;;;;;;
"AC2014";;;"Windows 7";"Rachel's Experiment (D.T.)";"1.0";"2";"1";"1";"2";"1";"1";"2014-09-29 19:27:38.254";"2014-09-29 19:43:30.014";"1";"0";"0";"171";"170";"module.devaluation_block1.exec-6699.deval1";"8620";"2014-09-29 19:40:22.757";"0";"6";"3";"6";"2357";"993";"2250";"2014-09-29 19:40:14.136";"1";;;;;;;;;;;;;;;;;;;;;;;;;;;;;;;;;;;;;;;;;;;;;;;;;;;;;;;;;;;;;;;;;;;;;;;;;;;;;;;;
"AC2014";;;"Windows 7";"Rachel's Experiment (D.T.)";"1.0";"2";"1";"1";"2";"1";"1";"2014-09-29 19:27:38.254";"2014-09-29 19:43:30.014";"1";"0";"0";"172";"171";"module.devaluation_block1.exec-6699.deval1";"10083";"2014-09-29 19:40:32.865";"20";"5";"4";"5";"1933";"2471";"2667";"2014-09-29 19:40:22.781";"3";;;;;;;;;;;;;;;;;;;;;;;;;;;;;;;;;;;;;;;;;;;;;;;;;;;;;;;;;;;;;;;;;;;;;;;;;;;;;;;;
"AC2014";;;"Windows 7";"Rachel's Experiment (D.T.)";"1.0";"2";"1";"1";"2";"1";"1";"2014-09-29 19:27:38.254";"2014-09-29 19:43:30.014";"1";"0";"0";"173";"172";"module.devaluation_block1.exec-6699.deval1";"9820";"2014-09-29 19:40:42.710";"25";"4";"5";"6";"2747";"2958";"1104";"2014-09-29 19:40:32.889";"3";;;;;;;;;;;;;;;;;;;;;;;;;;;;;;;;;;;;;;;;;;;;;;;;;;;;;;;;;;;;;;;;;;;;;;;;;;;;;;;;
"AC2014";;;"Windows 7";"Rachel's Experiment (D.T.)";"1.0";"2";"1";"1";"2";"1";"1";"2014-09-29 19:27:38.254";"2014-09-29 19:43:30.014";"1";"0";"0";"174";"173";"module.devaluation_block1.exec-6699.deval1";"7966";"2014-09-29 19:40:50.701";"19";"4";"4";"5";"1093";"1371";"2491";"2014-09-29 19:40:42.734";"3";;;;;;;;;;;;;;;;;;;;;;;;;;;;;;;;;;;;;;;;;;;;;;;;;;;;;;;;;;;;;;;;;;;;;;;;;;;;;;;;
"AC2014";;;"Windows 7";"Rachel's Experiment (D.T.)";"1.0";"2";"1";"1";"2";"1";"1";"2014-09-29 19:27:38.254";"2014-09-29 19:43:30.014";"1";"0";"0";"175";"174";"module.devaluation_block1.exec-6699.deval1";"12309";"2014-09-29 19:41:03.033";"12";"6";"7";"6";"2752";"1039";"5507";"2014-09-29 19:40:50.725";"2";;;;;;;;;;;;;;;;;;;;;;;;;;;;;;;;;;;;;;;;;;;;;;;;;;;;;;;;;;;;;;;;;;;;;;;;;;;;;;;;
"AC2014";;;"Windows 7";"Rachel's Experiment (D.T.)";"1.0";"2";"1";"1";"2";"1";"1";"2014-09-29 19:27:38.254";"2014-09-29 19:43:30.014";"1";"0";"0";"176";"175";"module.devaluation_block1.exec-6699.deval1";"7693";"2014-09-29 19:41:10.754";"22";"4";"7";"5";"2610";"899";"1175";"2014-09-29 19:41:03.059";"3";;;;;;;;;;;;;;;;;;;;;;;;;;;;;;;;;;;;;;;;;;;;;;;;;;;;;;;;;;;;;;;;;;;;;;;;;;;;;;;;
"AC2014";;;"Windows 7";"Rachel's Experiment (D.T.)";"1.0";"2";"1";"1";"2";"1";"1";"2014-09-29 19:27:38.254";"2014-09-29 19:43:30.014";"1";"0";"0";"177";"176";"module.devaluation_block1.exec-6699.deval1";"9748";"2014-09-29 19:41:20.527";"11";"6";"8";"5";"2535";"2007";"2195";"2014-09-29 19:41:10.778";"2";;;;;;;;;;;;;;;;;;;;;;;;;;;;;;;;;;;;;;;;;;;;;;;;;;;;;;;;;;;;;;;;;;;;;;;;;;;;;;;;
"AC2014";;;"Windows 7";"Rachel's Experiment (D.T.)";"1.0";"2";"1";"1";"2";"1";"1";"2014-09-29 19:27:38.254";"2014-09-29 19:43:30.014";"1";"0";"0";"178";"177";"module.devaluation_block1.exec-6699.deval1";"8247";"2014-09-29 19:41:28.799";"15";"4";"3";"5";"1832";"2039";"1365";"2014-09-29 19:41:20.551";"2";;;;;;;;;;;;;;;;;;;;;;;;;;;;;;;;;;;;;;;;;;;;;;;;;;;;;;;;;;;;;;;;;;;;;;;;;;;;;;;;
"AC2014";;;"Windows 7";"Rachel's Experiment (D.T.)";"1.0";"2";"1";"1";"2";"1";"1";"2014-09-29 19:27:38.254";"2014-09-29 19:43:30.014";"1";"0";"0";"179";"178";"module.devaluation_block1.exec-6699.deval1";"7390";"2014-09-29 19:41:36.222";"23";"4";"5";"6";"1633";"913";"1833";"2014-09-29 19:41:28.832";"3";;;;;;;;;;;;;;;;;;;;;;;;;;;;;;;;;;;;;;;;;;;;;;;;;;;;;;;;;;;;;;;;;;;;;;;;;;;;;;;;
"AC2014";;;"Windows 7";"Rachel's Experiment (D.T.)";"1.0";"2";"1";"1";"2";"1";"1";"2014-09-29 19:27:38.254";"2014-09-29 19:43:30.014";"1";"0";"0";"180";"179";"module.devaluation_block1.exec-6699.deval1";"9995";"2014-09-29 19:41:46.243";"24";"4";"2";"4";"1997";"2190";"2798";"2014-09-29 19:41:36.247";"3";;;;;;;;;;;;;;;;;;;;;;;;;;;;;;;;;;;;;;;;;;;;;;;;;;;;;;;;;;;;;;;;;;;;;;;;;;;;;;;;
"AC2014";;;"Windows 7";"Rachel's Experiment (D.T.)";"1.0";"2";"1";"1";"2";"1";"1";"2014-09-29 19:27:38.254";"2014-09-29 19:43:30.014";"1";"0";"0";"181";"180";"module.devaluation_block1.exec-6699.deval1";"10376";"2014-09-29 19:41:56.641";"3";"5";"3";"7";"2433";"2567";"2367";"2014-09-29 19:41:46.265";"1";;;;;;;;;;;;;;;;;;;;;;;;;;;;;;;;;;;;;;;;;;;;;;;;;;;;;;;;;;;;;;;;;;;;;;;;;;;;;;;;
"AC2014";;;"Windows 7";"Rachel's Experiment (D.T.)";"1.0";"2";"1";"1";"2";"1";"1";"2014-09-29 19:27:38.254";"2014-09-29 19:43:30.014";"1";"0";"0";"182";"181";"module.devaluation_block1.exec-6699.deval1";"7305";"2014-09-29 19:42:03.972";"6";"4";"4";"5";"1646";"1396";"1253";"2014-09-29 19:41:56.665";"1";;;;;;;;;;;;;;;;;;;;;;;;;;;;;;;;;;;;;;;;;;;;;;;;;;;;;;;;;;;;;;;;;;;;;;;;;;;;;;;;
"AC2014";;;"Windows 7";"Rachel's Experiment (D.T.)";"1.0";"2";"1";"1";"2";"1";"1";"2014-09-29 19:27:38.254";"2014-09-29 19:43:30.014";"1";"0";"0";"183";"182";"module.devaluation_block1.exec-6699.deval1";"13051";"2014-09-29 19:42:17.048";"7";"4";"3";"5";"4023";"2692";"3326";"2014-09-29 19:42:03.996";"1";;;;;;;;;;;;;;;;;;;;;;;;;;;;;;;;;;;;;;;;;;;;;;;;;;;;;;;;;;;;;;;;;;;;;;;;;;;;;;;;
"AC2014";;;"Windows 7";"Rachel's Experiment (D.T.)";"1.0";"2";"1";"1";"2";"1";"1";"2014-09-29 19:27:38.254";"2014-09-29 19:43:30.014";"1";"0";"0";"184";"183";"module.devaluation_block1.exec-6699.deval1";"10197";"2014-09-29 19:42:27.270";"16";"3";"2";"3";"3183";"2235";"1769";"2014-09-29 19:42:17.073";"2";;;;;;;;;;;;;;;;;;;;;;;;;;;;;;;;;;;;;;;;;;;;;;;;;;;;;;;;;;;;;;;;;;;;;;;;;;;;;;;;
"AC2014";;;"Windows 7";"Rachel's Experiment (D.T.)";"1.0";"2";"1";"1";"2";"1";"1";"2014-09-29 19:27:38.254";"2014-09-29 19:43:30.014";"1";"0";"0";"185";"184";"module.devaluation_block1.exec-6699.deval1";"6289";"2014-09-29 19:42:33.583";"13";"5";"7";"6";"1210";"874";"1195";"2014-09-29 19:42:27.294";"2";;;;;;;;;;;;;;;;;;;;;;;;;;;;;;;;;;;;;;;;;;;;;;;;;;;;;;;;;;;;;;;;;;;;;;;;;;;;;;;;
"AC2014";;;"Windows 7";"Rachel's Experiment (D.T.)";"1.0";"2";"1";"1";"2";"1";"1";"2014-09-29 19:27:38.254";"2014-09-29 19:43:30.014";"1";"0";"0";"186";"185";"module.devaluation_block1.exec-6699.deval1";"10992";"2014-09-29 19:42:44.600";"14";"7";"7";"7";"2666";"919";"4397";"2014-09-29 19:42:33.608";"2";;;;;;;;;;;;;;;;;;;;;;;;;;;;;;;;;;;;;;;;;;;;;;;;;;;;;;;;;;;;;;;;;;;;;;;;;;;;;;;;
"AC2014";;;"Windows 7";"Rachel's Experiment (D.T.)";"1.0";"2";"1";"1";"2";"1";"1";"2014-09-29 19:27:38.254";"2014-09-29 19:43:30.014";"1";"0";"0";"187";"186";"module.devaluation_block1.exec-6699.deval1";"12659";"2014-09-29 19:42:57.280";"5";"5";"3";"6";"5299";"2628";"1723";"2014-09-29 19:42:44.620";"1";;;;;;;;;;;;;;;;;;;;;;;;;;;;;;;;;;;;;;;;;;;;;;;;;;;;;;;;;;;;;;;;;;;;;;;;;;;;;;;;
"AC2014";;;"Windows 7";"Rachel's Experiment (D.T.)";"1.0";"2";"1";"1";"2";"1";"1";"2014-09-29 19:27:38.254";"2014-09-29 19:43:30.014";"1";"0";"0";"188";"187";"module.devaluation_block1.exec-6699.deval1";"10959";"2014-09-29 19:43:08.265";"18";"6";"3";"6";"2986";"1963";"3000";"2014-09-29 19:42:57.306";"3";;;;;;;;;;;;;;;;;;;;;;;;;;;;;;;;;;;;;;;;;;;;;;;;;;;;;;;;;;;;;;;;;;;;;;;;;;;;;;;;
"AC2014";;;"Windows 7";"Rachel's Experiment (D.T.)";"1.0";"2";"1";"1";"2";"1";"1";"2014-09-29 19:27:38.254";"2014-09-29 19:43:30.014";"1";"0";"0";"189";"188";"module.devaluation_block1.exec-6699.deval1";"7445";"2014-09-29 19:43:15.735";"9";"5";"6";"5";"1823";"1668";"943";"2014-09-29 19:43:08.289";"2";;;;;;;;;;;;;;;;;;;;;;;;;;;;;;;;;;;;;;;;;;;;;;;;;;;;;;;;;;;;;;;;;;;;;;;;;;;;;;;;
"AC2014";;;"Windows 7";"Rachel's Experiment (D.T.)";"1.0";"2";"1";"1";"2";"1";"1";"2014-09-29 19:27:38.254";"2014-09-29 19:43:30.014";"1";"0";"0";"190";"189";"module.devaluation_block1.exec-6699.deval1";"11403";"2014-09-29 19:43:27.163";"21";"3";"2";"5";"4516";"2205";"1673";"2014-09-29 19:43:15.759";"3";;;;;;;;;;;;;;;;;;;;;;;;;;;;;;;;;;;;;;;;;;;;;;;;;;;;;;;;;;;;;;;;;;;;;;;;;;;;;;;;
