"user.name";"user.yearOfBirth";"user.sex";"user.osName";"module.name";"module.version";"module.online.subject.code";"module.online.study.id";"module.online.module.nr";"module.online.group.nr";"session.id";"session.index";"session.startTime";"session.endTime";"session.completed";"session.node-1544.conditionType";"session.node-4298.DevalQorder";"trial.id";"trial.index";"trial.name";"trial.deval1.durationTime";"trial.deval1.endTime";"trial.deval1.icon";"trial.deval1.Resp_Attractive";"trial.deval1.Resp_Eat";"trial.deval1.Resp_Taste";"trial.deval1.RT_Attractive";"trial.deval1.RT_Eat";"trial.deval1.RT_Taste";"trial.deval1.startTime";"trial.deval1.stimulus type";"trial.devalPractice.durationTime";"trial.devalPractice.endTime";"trial.devalPractice.icon";"trial.devalPractice.Resp_Attractive";"trial.devalPractice.Resp_Eat";"trial.devalPractice.Resp_Taste";"trial.devalPractice.RT_Attractive";"trial.devalPractice.RT_Eat";"trial.devalPractice.RT_Taste";"trial.devalPractice.startTime";"trial.devalPractice.stimulus type";"trial.GoNoGo1.durationTime";"trial.GoNoGo1.endTime";"trial.GoNoGo1.Error Type";"trial.GoNoGo1.icon";"trial.GoNoGo1.location";"trial.GoNoGo1.outcome";"trial.GoNoGo1.response";"trial.GoNoGo1.result";"trial.GoNoGo1.RT";"trial.GoNoGo1.signal";"trial.GoNoGo1.startTime";"trial.GoNoGo1.stimulus type";"trial.GoNoGo2.durationTime";"trial.GoNoGo2.endTime";"trial.GoNoGo2.Error Type";"trial.GoNoGo2.icon";"trial.GoNoGo2.location";"trial.GoNoGo2.outcome";"trial.GoNoGo2.response";"trial.GoNoGo2.result";"trial.GoNoGo2.RT";"trial.GoNoGo2.signal";"trial.GoNoGo2.startTime";"trial.GoNoGo2.stimulus type";"trial.GoNoGo3.durationTime";"trial.GoNoGo3.endTime";"trial.GoNoGo3.Error Type";"trial.GoNoGo3.icon";"trial.GoNoGo3.location";"trial.GoNoGo3.outcome";"trial.GoNoGo3.response";"trial.GoNoGo3.result";"trial.GoNoGo3.RT";"trial.GoNoGo3.signal";"trial.GoNoGo3.startTime";"trial.GoNoGo3.stimulus type";"trial.GoNoGo4.durationTime";"trial.GoNoGo4.endTime";"trial.GoNoGo4.Error Type";"trial.GoNoGo4.icon";"trial.GoNoGo4.location";"trial.GoNoGo4.outcome";"trial.GoNoGo4.response";"trial.GoNoGo4.result";"trial.GoNoGo4.RT";"trial.GoNoGo4.signal";"trial.GoNoGo4.startTime";"trial.GoNoGo4.stimulus type";"trial.GoNoGo_Practice.durationTime";"trial.GoNoGo_Practice.endTime";"trial.GoNoGo_Practice.icon";"trial.GoNoGo_Practice.location";"trial.GoNoGo_Practice.outcome";"trial.GoNoGo_Practice.response";"trial.GoNoGo_Practice.result";"trial.GoNoGo_Practice.RT";"trial.GoNoGo_Practice.signal";"trial.GoNoGo_Practice.startTime";"trial.GoNoGo_Practice.stimulus type";"trial.GoNoGo_Tutorial.durationTime";"trial.GoNoGo_Tutorial.endTime";"trial.GoNoGo_Tutorial.icon";"trial.GoNoGo_Tutorial.location";"trial.GoNoGo_Tutorial.outcome";"trial.GoNoGo_Tutorial.response";"trial.GoNoGo_Tutorial.result";"trial.GoNoGo_Tutorial.RT";"trial.GoNoGo_Tutorial.signal";"trial.GoNoGo_Tutorial.startTime"
"johnson43";"1991";;"Windows Vista";"Rachel's Experiment (D.T.)";"1.0";"2";"1";"1";"2";"1";"1";"2014-07-18 15:44:31.176";"2014-07-18 16:00:39.398";"1";"1";"0";"1";"0";"module.GoNoGotutorial.exec-9997.GoNoGo_Tutorial";;;;;;;;;;;;;;;;;;;;;;;;;;;;;;;;;;;;;;;;;;;;;;;;;;;;;;;;;;;;;;;;;;;;;;;;;;;;;;;;;;"3997";"2014-07-18 15:45:42.974";"leftResponse";"0";"FINISHED";"LEFT";"success";"2845";"0";"2014-07-18 15:45:38.965"
"johnson43";"1991";;"Windows Vista";"Rachel's Experiment (D.T.)";"1.0";"2";"1";"1";"2";"1";"1";"2014-07-18 15:44:31.176";"2014-07-18 16:00:39.398";"1";"1";"0";"2";"1";"module.GoNoGotutorial.exec-9997.GoNoGo_Tutorial";;;;;;;;;;;;;;;;;;;;;;;;;;;;;;;;;;;;;;;;;;;;;;;;;;;;;;;;;;;;;;;;;;;;;;;;;;;;;;;;;;"4002";"2014-07-18 15:45:48.278";"rightResponse";"1";"FINISHED";"RIGHT";"success";"1259";"0";"2014-07-18 15:45:44.269"
"johnson43";"1991";;"Windows Vista";"Rachel's Experiment (D.T.)";"1.0";"2";"1";"1";"2";"1";"1";"2014-07-18 15:44:31.176";"2014-07-18 16:00:39.398";"1";"1";"0";"3";"2";"module.GoNoGotutorial.exec-9997.GoNoGo_Tutorial";;;;;;;;;;;;;;;;;;;;;;;;;;;;;;;;;;;;;;;;;;;;;;;;;;;;;;;;;;;;;;;;;;;;;;;;;;;;;;;;;;"4002";"2014-07-18 15:45:53.582";"signalResponse";"0";"FINISHED";"NONE";"success";"0";"1";"2014-07-18 15:45:49.573"
"johnson43";"1991";;"Windows Vista";"Rachel's Experiment (D.T.)";"1.0";"2";"1";"1";"2";"1";"1";"2014-07-18 15:44:31.176";"2014-07-18 16:00:39.398";"1";"1";"0";"4";"3";"module.GoNoGopractice.exec-3437.GoNoGo_Practice";;;;;;;;;;;;;;;;;;;;;;;;;;;;;;;;;;;;;;;;;;;;;;;;;;;;;;;;;;;;;;;;;;;;;;;"2103";"2014-07-18 15:46:03.082";"18";"0";"FINISHED";"LEFT";"success";"535";"0";"2014-07-18 15:46:00.976";"3";;;;;;;;;;
"johnson43";"1991";;"Windows Vista";"Rachel's Experiment (D.T.)";"1.0";"2";"1";"1";"2";"1";"1";"2014-07-18 15:44:31.176";"2014-07-18 16:00:39.398";"1";"1";"0";"5";"4";"module.GoNoGopractice.exec-3437.GoNoGo_Practice";;;;;;;;;;;;;;;;;;;;;;;;;;;;;;;;;;;;;;;;;;;;;;;;;;;;;;;;;;;;;;;;;;;;;;;"1954";"2014-07-18 15:46:06.343";"21";"1";"FINISHED";"RIGHT";"success";"522";"0";"2014-07-18 15:46:04.377";"3";;;;;;;;;;
"johnson43";"1991";;"Windows Vista";"Rachel's Experiment (D.T.)";"1.0";"2";"1";"1";"2";"1";"1";"2014-07-18 15:44:31.176";"2014-07-18 16:00:39.398";"1";"1";"0";"6";"5";"module.GoNoGopractice.exec-3437.GoNoGo_Practice";;;;;;;;;;;;;;;;;;;;;;;;;;;;;;;;;;;;;;;;;;;;;;;;;;;;;;;;;;;;;;;;;;;;;;;"1959";"2014-07-18 15:46:09.603";"14";"1";"FINISHED";"RIGHT";"failure";"659";"1";"2014-07-18 15:46:07.638";"2";;;;;;;;;;
"johnson43";"1991";;"Windows Vista";"Rachel's Experiment (D.T.)";"1.0";"2";"1";"1";"2";"1";"1";"2014-07-18 15:44:31.176";"2014-07-18 16:00:39.398";"1";"1";"0";"7";"6";"module.GoNoGopractice.exec-3437.GoNoGo_Practice";;;;;;;;;;;;;;;;;;;;;;;;;;;;;;;;;;;;;;;;;;;;;;;;;;;;;;;;;;;;;;;;;;;;;;;"1959";"2014-07-18 15:46:12.864";"26";"0";"FINISHED";"LEFT";"success";"583";"0";"2014-07-18 15:46:10.898";"3";;;;;;;;;;
"johnson43";"1991";;"Windows Vista";"Rachel's Experiment (D.T.)";"1.0";"2";"1";"1";"2";"1";"1";"2014-07-18 15:44:31.176";"2014-07-18 16:00:39.398";"1";"1";"0";"8";"7";"module.GoNoGopractice.exec-3437.GoNoGo_Practice";;;;;;;;;;;;;;;;;;;;;;;;;;;;;;;;;;;;;;;;;;;;;;;;;;;;;;;;;;;;;;;;;;;;;;;"1959";"2014-07-18 15:46:16.124";"2";"0";"FINISHED";"LEFT";"success";"715";"0";"2014-07-18 15:46:14.158";"1";;;;;;;;;;
"johnson43";"1991";;"Windows Vista";"Rachel's Experiment (D.T.)";"1.0";"2";"1";"1";"2";"1";"1";"2014-07-18 15:44:31.176";"2014-07-18 16:00:39.398";"1";"1";"0";"9";"8";"module.GoNoGopractice.exec-3437.GoNoGo_Practice";;;;;;;;;;;;;;;;;;;;;;;;;;;;;;;;;;;;;;;;;;;;;;;;;;;;;;;;;;;;;;;;;;;;;;;"1960";"2014-07-18 15:46:19.384";"30";"0";"FINISHED";"NONE";"success";"0";"1";"2014-07-18 15:46:17.419";"3";;;;;;;;;;
"johnson43";"1991";;"Windows Vista";"Rachel's Experiment (D.T.)";"1.0";"2";"1";"1";"2";"1";"1";"2014-07-18 15:44:31.176";"2014-07-18 16:00:39.398";"1";"1";"0";"10";"9";"module.GoNoGopractice.exec-3437.GoNoGo_Practice";;;;;;;;;;;;;;;;;;;;;;;;;;;;;;;;;;;;;;;;;;;;;;;;;;;;;;;;;;;;;;;;;;;;;;;"1959";"2014-07-18 15:46:22.629";"6";"1";"FINISHED";"RIGHT";"failure";"689";"1";"2014-07-18 15:46:20.664";"1";;;;;;;;;;
"johnson43";"1991";;"Windows Vista";"Rachel's Experiment (D.T.)";"1.0";"2";"1";"1";"2";"1";"1";"2014-07-18 15:44:31.176";"2014-07-18 16:00:39.398";"1";"1";"0";"11";"10";"module.GoNoGopractice.exec-3437.GoNoGo_Practice";;;;;;;;;;;;;;;;;;;;;;;;;;;;;;;;;;;;;;;;;;;;;;;;;;;;;;;;;;;;;;;;;;;;;;;"1959";"2014-07-18 15:46:25.890";"34";"0";"FINISHED";"LEFT";"success";"708";"0";"2014-07-18 15:46:23.924";"3";;;;;;;;;;
"johnson43";"1991";;"Windows Vista";"Rachel's Experiment (D.T.)";"1.0";"2";"1";"1";"2";"1";"1";"2014-07-18 15:44:31.176";"2014-07-18 16:00:39.398";"1";"1";"0";"12";"11";"module.GoNoGopractice.exec-3437.GoNoGo_Practice";;;;;;;;;;;;;;;;;;;;;;;;;;;;;;;;;;;;;;;;;;;;;;;;;;;;;;;;;;;;;;;;;;;;;;;"1959";"2014-07-18 15:46:29.134";"23";"1";"FINISHED";"RIGHT";"success";"760";"0";"2014-07-18 15:46:27.169";"3";;;;;;;;;;
"johnson43";"1991";;"Windows Vista";"Rachel's Experiment (D.T.)";"1.0";"2";"1";"1";"2";"1";"1";"2014-07-18 15:44:31.176";"2014-07-18 16:00:39.398";"1";"1";"0";"13";"12";"module.GoNoGopractice.exec-3437.GoNoGo_Practice";;;;;;;;;;;;;;;;;;;;;;;;;;;;;;;;;;;;;;;;;;;;;;;;;;;;;;;;;;;;;;;;;;;;;;;"1959";"2014-07-18 15:46:32.379";"13";"0";"FINISHED";"NONE";"success";"0";"1";"2014-07-18 15:46:30.414";"2";;;;;;;;;;
"johnson43";"1991";;"Windows Vista";"Rachel's Experiment (D.T.)";"1.0";"2";"1";"1";"2";"1";"1";"2014-07-18 15:44:31.176";"2014-07-18 16:00:39.398";"1";"1";"0";"14";"13";"module.GoNoGopractice.exec-3437.GoNoGo_Practice";;;;;;;;;;;;;;;;;;;;;;;;;;;;;;;;;;;;;;;;;;;;;;;;;;;;;;;;;;;;;;;;;;;;;;;"1960";"2014-07-18 15:46:35.624";"3";"1";"FINISHED";"RIGHT";"success";"879";"0";"2014-07-18 15:46:33.658";"1";;;;;;;;;;
"johnson43";"1991";;"Windows Vista";"Rachel's Experiment (D.T.)";"1.0";"2";"1";"1";"2";"1";"1";"2014-07-18 15:44:31.176";"2014-07-18 16:00:39.398";"1";"1";"0";"15";"14";"module.GoNoGopractice.exec-3437.GoNoGo_Practice";;;;;;;;;;;;;;;;;;;;;;;;;;;;;;;;;;;;;;;;;;;;;;;;;;;;;;;;;;;;;;;;;;;;;;;"1957";"2014-07-18 15:46:38.869";"27";"1";"FINISHED";"NONE";"success";"0";"1";"2014-07-18 15:46:36.903";"3";;;;;;;;;;
"johnson43";"1991";;"Windows Vista";"Rachel's Experiment (D.T.)";"1.0";"2";"1";"1";"2";"1";"1";"2014-07-18 15:44:31.176";"2014-07-18 16:00:39.398";"1";"1";"0";"16";"15";"module.training_block1.exec-8751.GoNoGo1";;;;;;;;;;;;;;;;;;;;;;;"1255";"2014-07-18 15:46:55.842";"ST_failedStop";"32";"1";"FINISHED";"RIGHT";"failure";"468";"1";"2014-07-18 15:46:54.578";"3";;;;;;;;;;;;;;;;;;;;;;;;;;;;;;;;;;;;;;;;;;;;;;;;;;;;;;;;;
"johnson43";"1991";;"Windows Vista";"Rachel's Experiment (D.T.)";"1.0";"2";"1";"1";"2";"1";"1";"2014-07-18 15:44:31.176";"2014-07-18 16:00:39.398";"1";"1";"0";"17";"16";"module.training_block1.exec-8751.GoNoGo1";;;;;;;;;;;;;;;;;;;;;;;"1261";"2014-07-18 15:46:58.400";"ST_correctStop";"27";"1";"FINISHED";"NONE";"success";"0";"1";"2014-07-18 15:46:57.136";"3";;;;;;;;;;;;;;;;;;;;;;;;;;;;;;;;;;;;;;;;;;;;;;;;;;;;;;;;;
"johnson43";"1991";;"Windows Vista";"Rachel's Experiment (D.T.)";"1.0";"2";"1";"1";"2";"1";"1";"2014-07-18 15:44:31.176";"2014-07-18 16:00:39.398";"1";"1";"0";"18";"17";"module.training_block1.exec-8751.GoNoGo1";;;;;;;;;;;;;;;;;;;;;;;"1261";"2014-07-18 15:47:00.943";"ST_correctStop";"3";"1";"FINISHED";"NONE";"success";"0";"1";"2014-07-18 15:46:59.679";"1";;;;;;;;;;;;;;;;;;;;;;;;;;;;;;;;;;;;;;;;;;;;;;;;;;;;;;;;;
"johnson43";"1991";;"Windows Vista";"Rachel's Experiment (D.T.)";"1.0";"2";"1";"1";"2";"1";"1";"2014-07-18 15:44:31.176";"2014-07-18 16:00:39.398";"1";"1";"0";"19";"18";"module.training_block1.exec-8751.GoNoGo1";;;;;;;;;;;;;;;;;;;;;;;"1261";"2014-07-18 15:47:03.486";"ST_correctStop";"18";"1";"FINISHED";"NONE";"success";"0";"1";"2014-07-18 15:47:02.222";"3";;;;;;;;;;;;;;;;;;;;;;;;;;;;;;;;;;;;;;;;;;;;;;;;;;;;;;;;;
"johnson43";"1991";;"Windows Vista";"Rachel's Experiment (D.T.)";"1.0";"2";"1";"1";"2";"1";"1";"2014-07-18 15:44:31.176";"2014-07-18 16:00:39.398";"1";"1";"0";"20";"19";"module.training_block1.exec-8751.GoNoGo1";;;;;;;;;;;;;;;;;;;;;;;"1261";"2014-07-18 15:47:06.028";"ST_correctStop";"21";"0";"FINISHED";"NONE";"success";"0";"1";"2014-07-18 15:47:04.765";"3";;;;;;;;;;;;;;;;;;;;;;;;;;;;;;;;;;;;;;;;;;;;;;;;;;;;;;;;;
"johnson43";"1991";;"Windows Vista";"Rachel's Experiment (D.T.)";"1.0";"2";"1";"1";"2";"1";"1";"2014-07-18 15:44:31.176";"2014-07-18 16:00:39.398";"1";"1";"0";"21";"20";"module.training_block1.exec-8751.GoNoGo1";;;;;;;;;;;;;;;;;;;;;;;"1255";"2014-07-18 15:47:08.587";"NST_correctLoc";"12";"0";"FINISHED";"LEFT";"success";"619";"0";"2014-07-18 15:47:07.323";"2";;;;;;;;;;;;;;;;;;;;;;;;;;;;;;;;;;;;;;;;;;;;;;;;;;;;;;;;;
"johnson43";"1991";;"Windows Vista";"Rachel's Experiment (D.T.)";"1.0";"2";"1";"1";"2";"1";"1";"2014-07-18 15:44:31.176";"2014-07-18 16:00:39.398";"1";"1";"0";"22";"21";"module.training_block1.exec-8751.GoNoGo1";;;;;;;;;;;;;;;;;;;;;;;"1258";"2014-07-18 15:47:11.130";"NST_correctLoc";"24";"0";"FINISHED";"LEFT";"success";"591";"0";"2014-07-18 15:47:09.866";"3";;;;;;;;;;;;;;;;;;;;;;;;;;;;;;;;;;;;;;;;;;;;;;;;;;;;;;;;;
"johnson43";"1991";;"Windows Vista";"Rachel's Experiment (D.T.)";"1.0";"2";"1";"1";"2";"1";"1";"2014-07-18 15:44:31.176";"2014-07-18 16:00:39.398";"1";"1";"0";"23";"22";"module.training_block1.exec-8751.GoNoGo1";;;;;;;;;;;;;;;;;;;;;;;"1261";"2014-07-18 15:47:13.672";"NST_correctLoc";"13";"1";"FINISHED";"RIGHT";"success";"564";"0";"2014-07-18 15:47:12.409";"2";;;;;;;;;;;;;;;;;;;;;;;;;;;;;;;;;;;;;;;;;;;;;;;;;;;;;;;;;
"johnson43";"1991";;"Windows Vista";"Rachel's Experiment (D.T.)";"1.0";"2";"1";"1";"2";"1";"1";"2014-07-18 15:44:31.176";"2014-07-18 16:00:39.398";"1";"1";"0";"24";"23";"module.training_block1.exec-8751.GoNoGo1";;;;;;;;;;;;;;;;;;;;;;;"1257";"2014-07-18 15:47:16.215";"NST_correctLoc";"9";"0";"FINISHED";"LEFT";"success";"577";"0";"2014-07-18 15:47:14.952";"2";;;;;;;;;;;;;;;;;;;;;;;;;;;;;;;;;;;;;;;;;;;;;;;;;;;;;;;;;
"johnson43";"1991";;"Windows Vista";"Rachel's Experiment (D.T.)";"1.0";"2";"1";"1";"2";"1";"1";"2014-07-18 15:44:31.176";"2014-07-18 16:00:39.398";"1";"1";"0";"25";"24";"module.training_block1.exec-8751.GoNoGo1";;;;;;;;;;;;;;;;;;;;;;;"1258";"2014-07-18 15:47:18.758";"NST_correctLoc";"28";"1";"FINISHED";"RIGHT";"success";"579";"0";"2014-07-18 15:47:17.494";"3";;;;;;;;;;;;;;;;;;;;;;;;;;;;;;;;;;;;;;;;;;;;;;;;;;;;;;;;;
"johnson43";"1991";;"Windows Vista";"Rachel's Experiment (D.T.)";"1.0";"2";"1";"1";"2";"1";"1";"2014-07-18 15:44:31.176";"2014-07-18 16:00:39.398";"1";"1";"0";"26";"25";"module.training_block1.exec-8751.GoNoGo1";;;;;;;;;;;;;;;;;;;;;;;"1257";"2014-07-18 15:47:21.301";"ST_correctStop";"4";"1";"FINISHED";"NONE";"success";"0";"1";"2014-07-18 15:47:20.037";"1";;;;;;;;;;;;;;;;;;;;;;;;;;;;;;;;;;;;;;;;;;;;;;;;;;;;;;;;;
"johnson43";"1991";;"Windows Vista";"Rachel's Experiment (D.T.)";"1.0";"2";"1";"1";"2";"1";"1";"2014-07-18 15:44:31.176";"2014-07-18 16:00:39.398";"1";"1";"0";"27";"26";"module.training_block1.exec-8751.GoNoGo1";;;;;;;;;;;;;;;;;;;;;;;"1257";"2014-07-18 15:47:23.844";"NST_correctLoc";"31";"0";"FINISHED";"LEFT";"success";"565";"0";"2014-07-18 15:47:22.580";"3";;;;;;;;;;;;;;;;;;;;;;;;;;;;;;;;;;;;;;;;;;;;;;;;;;;;;;;;;
"johnson43";"1991";;"Windows Vista";"Rachel's Experiment (D.T.)";"1.0";"2";"1";"1";"2";"1";"1";"2014-07-18 15:44:31.176";"2014-07-18 16:00:39.398";"1";"1";"0";"28";"27";"module.training_block1.exec-8751.GoNoGo1";;;;;;;;;;;;;;;;;;;;;;;"1257";"2014-07-18 15:47:26.386";"NST_correctLoc";"17";"1";"FINISHED";"RIGHT";"success";"534";"0";"2014-07-18 15:47:25.123";"2";;;;;;;;;;;;;;;;;;;;;;;;;;;;;;;;;;;;;;;;;;;;;;;;;;;;;;;;;
"johnson43";"1991";;"Windows Vista";"Rachel's Experiment (D.T.)";"1.0";"2";"1";"1";"2";"1";"1";"2014-07-18 15:44:31.176";"2014-07-18 16:00:39.398";"1";"1";"0";"29";"28";"module.training_block1.exec-8751.GoNoGo1";;;;;;;;;;;;;;;;;;;;;;;"1258";"2014-07-18 15:47:28.929";"ST_correctStop";"29";"1";"FINISHED";"NONE";"success";"0";"1";"2014-07-18 15:47:27.666";"3";;;;;;;;;;;;;;;;;;;;;;;;;;;;;;;;;;;;;;;;;;;;;;;;;;;;;;;;;
"johnson43";"1991";;"Windows Vista";"Rachel's Experiment (D.T.)";"1.0";"2";"1";"1";"2";"1";"1";"2014-07-18 15:44:31.176";"2014-07-18 16:00:39.398";"1";"1";"0";"30";"29";"module.training_block1.exec-8751.GoNoGo1";;;;;;;;;;;;;;;;;;;;;;;"1257";"2014-07-18 15:47:31.472";"NST_correctLoc";"10";"0";"FINISHED";"LEFT";"success";"537";"0";"2014-07-18 15:47:30.208";"2";;;;;;;;;;;;;;;;;;;;;;;;;;;;;;;;;;;;;;;;;;;;;;;;;;;;;;;;;
"johnson43";"1991";;"Windows Vista";"Rachel's Experiment (D.T.)";"1.0";"2";"1";"1";"2";"1";"1";"2014-07-18 15:44:31.176";"2014-07-18 16:00:39.398";"1";"1";"0";"31";"30";"module.training_block1.exec-8751.GoNoGo1";;;;;;;;;;;;;;;;;;;;;;;"1258";"2014-07-18 15:47:34.015";"NST_correctLoc";"16";"1";"FINISHED";"RIGHT";"success";"602";"0";"2014-07-18 15:47:32.751";"2";;;;;;;;;;;;;;;;;;;;;;;;;;;;;;;;;;;;;;;;;;;;;;;;;;;;;;;;;
"johnson43";"1991";;"Windows Vista";"Rachel's Experiment (D.T.)";"1.0";"2";"1";"1";"2";"1";"1";"2014-07-18 15:44:31.176";"2014-07-18 16:00:39.398";"1";"1";"0";"32";"31";"module.training_block1.exec-8751.GoNoGo1";;;;;;;;;;;;;;;;;;;;;;;"1258";"2014-07-18 15:47:36.558";"ST_correctStop";"35";"0";"FINISHED";"NONE";"success";"0";"1";"2014-07-18 15:47:35.294";"3";;;;;;;;;;;;;;;;;;;;;;;;;;;;;;;;;;;;;;;;;;;;;;;;;;;;;;;;;
"johnson43";"1991";;"Windows Vista";"Rachel's Experiment (D.T.)";"1.0";"2";"1";"1";"2";"1";"1";"2014-07-18 15:44:31.176";"2014-07-18 16:00:39.398";"1";"1";"0";"33";"32";"module.training_block1.exec-8751.GoNoGo1";;;;;;;;;;;;;;;;;;;;;;;"1255";"2014-07-18 15:47:39.100";"ST_failedStop";"22";"0";"FINISHED";"LEFT";"failure";"650";"1";"2014-07-18 15:47:37.837";"3";;;;;;;;;;;;;;;;;;;;;;;;;;;;;;;;;;;;;;;;;;;;;;;;;;;;;;;;;
"johnson43";"1991";;"Windows Vista";"Rachel's Experiment (D.T.)";"1.0";"2";"1";"1";"2";"1";"1";"2014-07-18 15:44:31.176";"2014-07-18 16:00:39.398";"1";"1";"0";"34";"33";"module.training_block1.exec-8751.GoNoGo1";;;;;;;;;;;;;;;;;;;;;;;"1261";"2014-07-18 15:47:41.659";"NST_correctLoc";"14";"1";"FINISHED";"RIGHT";"success";"561";"0";"2014-07-18 15:47:40.395";"2";;;;;;;;;;;;;;;;;;;;;;;;;;;;;;;;;;;;;;;;;;;;;;;;;;;;;;;;;
"johnson43";"1991";;"Windows Vista";"Rachel's Experiment (D.T.)";"1.0";"2";"1";"1";"2";"1";"1";"2014-07-18 15:44:31.176";"2014-07-18 16:00:39.398";"1";"1";"0";"35";"34";"module.training_block1.exec-8751.GoNoGo1";;;;;;;;;;;;;;;;;;;;;;;"1257";"2014-07-18 15:47:44.202";"ST_correctStop";"20";"1";"FINISHED";"NONE";"success";"0";"1";"2014-07-18 15:47:42.938";"3";;;;;;;;;;;;;;;;;;;;;;;;;;;;;;;;;;;;;;;;;;;;;;;;;;;;;;;;;
"johnson43";"1991";;"Windows Vista";"Rachel's Experiment (D.T.)";"1.0";"2";"1";"1";"2";"1";"1";"2014-07-18 15:44:31.176";"2014-07-18 16:00:39.398";"1";"1";"0";"36";"35";"module.training_block1.exec-8751.GoNoGo1";;;;;;;;;;;;;;;;;;;;;;;"1261";"2014-07-18 15:47:46.744";"NST_correctLoc";"30";"0";"FINISHED";"LEFT";"success";"644";"0";"2014-07-18 15:47:45.481";"3";;;;;;;;;;;;;;;;;;;;;;;;;;;;;;;;;;;;;;;;;;;;;;;;;;;;;;;;;
"johnson43";"1991";;"Windows Vista";"Rachel's Experiment (D.T.)";"1.0";"2";"1";"1";"2";"1";"1";"2014-07-18 15:44:31.176";"2014-07-18 16:00:39.398";"1";"1";"0";"37";"36";"module.training_block1.exec-8751.GoNoGo1";;;;;;;;;;;;;;;;;;;;;;;"1257";"2014-07-18 15:47:49.287";"NST_correctLoc";"11";"1";"FINISHED";"RIGHT";"success";"625";"0";"2014-07-18 15:47:48.024";"2";;;;;;;;;;;;;;;;;;;;;;;;;;;;;;;;;;;;;;;;;;;;;;;;;;;;;;;;;
"johnson43";"1991";;"Windows Vista";"Rachel's Experiment (D.T.)";"1.0";"2";"1";"1";"2";"1";"1";"2014-07-18 15:44:31.176";"2014-07-18 16:00:39.398";"1";"1";"0";"38";"37";"module.training_block1.exec-8751.GoNoGo1";;;;;;;;;;;;;;;;;;;;;;;"1257";"2014-07-18 15:47:51.830";"NST_correctLoc";"15";"1";"FINISHED";"RIGHT";"success";"594";"0";"2014-07-18 15:47:50.566";"2";;;;;;;;;;;;;;;;;;;;;;;;;;;;;;;;;;;;;;;;;;;;;;;;;;;;;;;;;
"johnson43";"1991";;"Windows Vista";"Rachel's Experiment (D.T.)";"1.0";"2";"1";"1";"2";"1";"1";"2014-07-18 15:44:31.176";"2014-07-18 16:00:39.398";"1";"1";"0";"39";"38";"module.training_block1.exec-8751.GoNoGo1";;;;;;;;;;;;;;;;;;;;;;;"1258";"2014-07-18 15:47:54.373";"ST_correctStop";"1";"0";"FINISHED";"NONE";"success";"0";"1";"2014-07-18 15:47:53.109";"1";;;;;;;;;;;;;;;;;;;;;;;;;;;;;;;;;;;;;;;;;;;;;;;;;;;;;;;;;
"johnson43";"1991";;"Windows Vista";"Rachel's Experiment (D.T.)";"1.0";"2";"1";"1";"2";"1";"1";"2014-07-18 15:44:31.176";"2014-07-18 16:00:39.398";"1";"1";"0";"40";"39";"module.training_block1.exec-8751.GoNoGo1";;;;;;;;;;;;;;;;;;;;;;;"1261";"2014-07-18 15:47:56.916";"NST_correctLoc";"34";"0";"FINISHED";"LEFT";"success";"649";"0";"2014-07-18 15:47:55.652";"3";;;;;;;;;;;;;;;;;;;;;;;;;;;;;;;;;;;;;;;;;;;;;;;;;;;;;;;;;
"johnson43";"1991";;"Windows Vista";"Rachel's Experiment (D.T.)";"1.0";"2";"1";"1";"2";"1";"1";"2014-07-18 15:44:31.176";"2014-07-18 16:00:39.398";"1";"1";"0";"41";"40";"module.training_block1.exec-8751.GoNoGo1";;;;;;;;;;;;;;;;;;;;;;;"1257";"2014-07-18 15:47:59.458";"ST_correctStop";"8";"0";"FINISHED";"NONE";"success";"0";"1";"2014-07-18 15:47:58.195";"1";;;;;;;;;;;;;;;;;;;;;;;;;;;;;;;;;;;;;;;;;;;;;;;;;;;;;;;;;
"johnson43";"1991";;"Windows Vista";"Rachel's Experiment (D.T.)";"1.0";"2";"1";"1";"2";"1";"1";"2014-07-18 15:44:31.176";"2014-07-18 16:00:39.398";"1";"1";"0";"42";"41";"module.training_block1.exec-8751.GoNoGo1";;;;;;;;;;;;;;;;;;;;;;;"1261";"2014-07-18 15:48:02.001";"NST_correctLoc";"26";"1";"FINISHED";"RIGHT";"success";"587";"0";"2014-07-18 15:48:00.738";"3";;;;;;;;;;;;;;;;;;;;;;;;;;;;;;;;;;;;;;;;;;;;;;;;;;;;;;;;;
"johnson43";"1991";;"Windows Vista";"Rachel's Experiment (D.T.)";"1.0";"2";"1";"1";"2";"1";"1";"2014-07-18 15:44:31.176";"2014-07-18 16:00:39.398";"1";"1";"0";"43";"42";"module.training_block1.exec-8751.GoNoGo1";;;;;;;;;;;;;;;;;;;;;;;"1257";"2014-07-18 15:48:04.544";"ST_correctStop";"25";"0";"FINISHED";"NONE";"success";"0";"1";"2014-07-18 15:48:03.280";"3";;;;;;;;;;;;;;;;;;;;;;;;;;;;;;;;;;;;;;;;;;;;;;;;;;;;;;;;;
"johnson43";"1991";;"Windows Vista";"Rachel's Experiment (D.T.)";"1.0";"2";"1";"1";"2";"1";"1";"2014-07-18 15:44:31.176";"2014-07-18 16:00:39.398";"1";"1";"0";"44";"43";"module.training_block1.exec-8751.GoNoGo1";;;;;;;;;;;;;;;;;;;;;;;"1261";"2014-07-18 15:48:07.087";"ST_correctStop";"6";"0";"FINISHED";"NONE";"success";"0";"1";"2014-07-18 15:48:05.823";"1";;;;;;;;;;;;;;;;;;;;;;;;;;;;;;;;;;;;;;;;;;;;;;;;;;;;;;;;;
"johnson43";"1991";;"Windows Vista";"Rachel's Experiment (D.T.)";"1.0";"2";"1";"1";"2";"1";"1";"2014-07-18 15:44:31.176";"2014-07-18 16:00:39.398";"1";"1";"0";"45";"44";"module.training_block1.exec-8751.GoNoGo1";;;;;;;;;;;;;;;;;;;;;;;"1254";"2014-07-18 15:48:09.630";"ST_correctStop";"7";"1";"FINISHED";"NONE";"success";"0";"1";"2014-07-18 15:48:08.366";"1";;;;;;;;;;;;;;;;;;;;;;;;;;;;;;;;;;;;;;;;;;;;;;;;;;;;;;;;;
"johnson43";"1991";;"Windows Vista";"Rachel's Experiment (D.T.)";"1.0";"2";"1";"1";"2";"1";"1";"2014-07-18 15:44:31.176";"2014-07-18 16:00:39.398";"1";"1";"0";"46";"45";"module.training_block1.exec-8751.GoNoGo1";;;;;;;;;;;;;;;;;;;;;;;"1261";"2014-07-18 15:48:12.172";"ST_correctStop";"2";"0";"FINISHED";"NONE";"success";"0";"1";"2014-07-18 15:48:10.909";"1";;;;;;;;;;;;;;;;;;;;;;;;;;;;;;;;;;;;;;;;;;;;;;;;;;;;;;;;;
"johnson43";"1991";;"Windows Vista";"Rachel's Experiment (D.T.)";"1.0";"2";"1";"1";"2";"1";"1";"2014-07-18 15:44:31.176";"2014-07-18 16:00:39.398";"1";"1";"0";"47";"46";"module.training_block1.exec-8751.GoNoGo1";;;;;;;;;;;;;;;;;;;;;;;"1257";"2014-07-18 15:48:14.715";"NST_correctLoc";"33";"1";"FINISHED";"RIGHT";"success";"541";"0";"2014-07-18 15:48:13.452";"3";;;;;;;;;;;;;;;;;;;;;;;;;;;;;;;;;;;;;;;;;;;;;;;;;;;;;;;;;
"johnson43";"1991";;"Windows Vista";"Rachel's Experiment (D.T.)";"1.0";"2";"1";"1";"2";"1";"1";"2014-07-18 15:44:31.176";"2014-07-18 16:00:39.398";"1";"1";"0";"48";"47";"module.training_block1.exec-8751.GoNoGo1";;;;;;;;;;;;;;;;;;;;;;;"1258";"2014-07-18 15:48:17.258";"NST_correctLoc";"19";"0";"FINISHED";"LEFT";"success";"687";"0";"2014-07-18 15:48:15.994";"3";;;;;;;;;;;;;;;;;;;;;;;;;;;;;;;;;;;;;;;;;;;;;;;;;;;;;;;;;
"johnson43";"1991";;"Windows Vista";"Rachel's Experiment (D.T.)";"1.0";"2";"1";"1";"2";"1";"1";"2014-07-18 15:44:31.176";"2014-07-18 16:00:39.398";"1";"1";"0";"49";"48";"module.training_block1.exec-8751.GoNoGo1";;;;;;;;;;;;;;;;;;;;;;;"1258";"2014-07-18 15:48:19.801";"ST_correctStop";"5";"1";"FINISHED";"NONE";"success";"0";"1";"2014-07-18 15:48:18.537";"1";;;;;;;;;;;;;;;;;;;;;;;;;;;;;;;;;;;;;;;;;;;;;;;;;;;;;;;;;
"johnson43";"1991";;"Windows Vista";"Rachel's Experiment (D.T.)";"1.0";"2";"1";"1";"2";"1";"1";"2014-07-18 15:44:31.176";"2014-07-18 16:00:39.398";"1";"1";"0";"50";"49";"module.training_block1.exec-8751.GoNoGo1";;;;;;;;;;;;;;;;;;;;;;;"1258";"2014-07-18 15:48:22.344";"ST_correctStop";"0";"0";"FINISHED";"NONE";"success";"0";"1";"2014-07-18 15:48:21.080";"1";;;;;;;;;;;;;;;;;;;;;;;;;;;;;;;;;;;;;;;;;;;;;;;;;;;;;;;;;
"johnson43";"1991";;"Windows Vista";"Rachel's Experiment (D.T.)";"1.0";"2";"1";"1";"2";"1";"1";"2014-07-18 15:44:31.176";"2014-07-18 16:00:39.398";"1";"1";"0";"51";"50";"module.training_block1.exec-8751.GoNoGo1";;;;;;;;;;;;;;;;;;;;;;;"1261";"2014-07-18 15:48:24.886";"NST_correctLoc";"23";"1";"FINISHED";"RIGHT";"success";"598";"0";"2014-07-18 15:48:23.623";"3";;;;;;;;;;;;;;;;;;;;;;;;;;;;;;;;;;;;;;;;;;;;;;;;;;;;;;;;;
"johnson43";"1991";;"Windows Vista";"Rachel's Experiment (D.T.)";"1.0";"2";"1";"1";"2";"1";"1";"2014-07-18 15:44:31.176";"2014-07-18 16:00:39.398";"1";"1";"0";"52";"51";"module.training_block2.exec-1336.GoNoGo2";;;;;;;;;;;;;;;;;;;;;;;;;;;;;;;;;;;"1261";"2014-07-18 15:48:39.894";"NST_correctLoc";"14";"1";"FINISHED";"RIGHT";"success";"535";"0";"2014-07-18 15:48:38.630";"2";;;;;;;;;;;;;;;;;;;;;;;;;;;;;;;;;;;;;;;;;;;;;
"johnson43";"1991";;"Windows Vista";"Rachel's Experiment (D.T.)";"1.0";"2";"1";"1";"2";"1";"1";"2014-07-18 15:44:31.176";"2014-07-18 16:00:39.398";"1";"1";"0";"53";"52";"module.training_block2.exec-1336.GoNoGo2";;;;;;;;;;;;;;;;;;;;;;;;;;;;;;;;;;;"1261";"2014-07-18 15:48:42.436";"NST_correctLoc";"17";"0";"FINISHED";"LEFT";"success";"568";"0";"2014-07-18 15:48:41.173";"2";;;;;;;;;;;;;;;;;;;;;;;;;;;;;;;;;;;;;;;;;;;;;
"johnson43";"1991";;"Windows Vista";"Rachel's Experiment (D.T.)";"1.0";"2";"1";"1";"2";"1";"1";"2014-07-18 15:44:31.176";"2014-07-18 16:00:39.398";"1";"1";"0";"54";"53";"module.training_block2.exec-1336.GoNoGo2";;;;;;;;;;;;;;;;;;;;;;;;;;;;;;;;;;;"1261";"2014-07-18 15:48:44.979";"NST_correctLoc";"27";"0";"FINISHED";"LEFT";"success";"617";"0";"2014-07-18 15:48:43.716";"3";;;;;;;;;;;;;;;;;;;;;;;;;;;;;;;;;;;;;;;;;;;;;
"johnson43";"1991";;"Windows Vista";"Rachel's Experiment (D.T.)";"1.0";"2";"1";"1";"2";"1";"1";"2014-07-18 15:44:31.176";"2014-07-18 16:00:39.398";"1";"1";"0";"55";"54";"module.training_block2.exec-1336.GoNoGo2";;;;;;;;;;;;;;;;;;;;;;;;;;;;;;;;;;;"1261";"2014-07-18 15:48:47.522";"NST_correctLoc";"26";"1";"FINISHED";"RIGHT";"success";"506";"0";"2014-07-18 15:48:46.258";"3";;;;;;;;;;;;;;;;;;;;;;;;;;;;;;;;;;;;;;;;;;;;;
"johnson43";"1991";;"Windows Vista";"Rachel's Experiment (D.T.)";"1.0";"2";"1";"1";"2";"1";"1";"2014-07-18 15:44:31.176";"2014-07-18 16:00:39.398";"1";"1";"0";"56";"55";"module.training_block2.exec-1336.GoNoGo2";;;;;;;;;;;;;;;;;;;;;;;;;;;;;;;;;;;"1261";"2014-07-18 15:48:50.065";"ST_correctStop";"3";"1";"FINISHED";"NONE";"success";"0";"1";"2014-07-18 15:48:48.801";"1";;;;;;;;;;;;;;;;;;;;;;;;;;;;;;;;;;;;;;;;;;;;;
"johnson43";"1991";;"Windows Vista";"Rachel's Experiment (D.T.)";"1.0";"2";"1";"1";"2";"1";"1";"2014-07-18 15:44:31.176";"2014-07-18 16:00:39.398";"1";"1";"0";"57";"56";"module.training_block2.exec-1336.GoNoGo2";;;;;;;;;;;;;;;;;;;;;;;;;;;;;;;;;;;"1261";"2014-07-18 15:48:52.608";"ST_correctStop";"2";"0";"FINISHED";"NONE";"success";"0";"1";"2014-07-18 15:48:51.344";"1";;;;;;;;;;;;;;;;;;;;;;;;;;;;;;;;;;;;;;;;;;;;;
"johnson43";"1991";;"Windows Vista";"Rachel's Experiment (D.T.)";"1.0";"2";"1";"1";"2";"1";"1";"2014-07-18 15:44:31.176";"2014-07-18 16:00:39.398";"1";"1";"0";"58";"57";"module.training_block2.exec-1336.GoNoGo2";;;;;;;;;;;;;;;;;;;;;;;;;;;;;;;;;;;"1261";"2014-07-18 15:48:55.150";"NST_correctLoc";"9";"0";"FINISHED";"LEFT";"success";"510";"0";"2014-07-18 15:48:53.887";"2";;;;;;;;;;;;;;;;;;;;;;;;;;;;;;;;;;;;;;;;;;;;;
"johnson43";"1991";;"Windows Vista";"Rachel's Experiment (D.T.)";"1.0";"2";"1";"1";"2";"1";"1";"2014-07-18 15:44:31.176";"2014-07-18 16:00:39.398";"1";"1";"0";"59";"58";"module.training_block2.exec-1336.GoNoGo2";;;;;;;;;;;;;;;;;;;;;;;;;;;;;;;;;;;"1261";"2014-07-18 15:48:57.693";"NST_correctLoc";"24";"1";"FINISHED";"RIGHT";"success";"511";"0";"2014-07-18 15:48:56.430";"3";;;;;;;;;;;;;;;;;;;;;;;;;;;;;;;;;;;;;;;;;;;;;
"johnson43";"1991";;"Windows Vista";"Rachel's Experiment (D.T.)";"1.0";"2";"1";"1";"2";"1";"1";"2014-07-18 15:44:31.176";"2014-07-18 16:00:39.398";"1";"1";"0";"60";"59";"module.training_block2.exec-1336.GoNoGo2";;;;;;;;;;;;;;;;;;;;;;;;;;;;;;;;;;;"1261";"2014-07-18 15:49:00.236";"ST_correctStop";"4";"0";"FINISHED";"NONE";"success";"0";"1";"2014-07-18 15:48:58.972";"1";;;;;;;;;;;;;;;;;;;;;;;;;;;;;;;;;;;;;;;;;;;;;
"johnson43";"1991";;"Windows Vista";"Rachel's Experiment (D.T.)";"1.0";"2";"1";"1";"2";"1";"1";"2014-07-18 15:44:31.176";"2014-07-18 16:00:39.398";"1";"1";"0";"61";"60";"module.training_block2.exec-1336.GoNoGo2";;;;;;;;;;;;;;;;;;;;;;;;;;;;;;;;;;;"1261";"2014-07-18 15:49:02.779";"ST_correctStop";"20";"1";"FINISHED";"NONE";"success";"0";"1";"2014-07-18 15:49:01.515";"3";;;;;;;;;;;;;;;;;;;;;;;;;;;;;;;;;;;;;;;;;;;;;
"johnson43";"1991";;"Windows Vista";"Rachel's Experiment (D.T.)";"1.0";"2";"1";"1";"2";"1";"1";"2014-07-18 15:44:31.176";"2014-07-18 16:00:39.398";"1";"1";"0";"62";"61";"module.training_block2.exec-1336.GoNoGo2";;;;;;;;;;;;;;;;;;;;;;;;;;;;;;;;;;;"1261";"2014-07-18 15:49:05.322";"ST_correctStop";"8";"0";"FINISHED";"NONE";"success";"0";"1";"2014-07-18 15:49:04.058";"1";;;;;;;;;;;;;;;;;;;;;;;;;;;;;;;;;;;;;;;;;;;;;
"johnson43";"1991";;"Windows Vista";"Rachel's Experiment (D.T.)";"1.0";"2";"1";"1";"2";"1";"1";"2014-07-18 15:44:31.176";"2014-07-18 16:00:39.398";"1";"1";"0";"63";"62";"module.training_block2.exec-1336.GoNoGo2";;;;;;;;;;;;;;;;;;;;;;;;;;;;;;;;;;;"1261";"2014-07-18 15:49:07.864";"NST_correctLoc";"10";"0";"FINISHED";"LEFT";"success";"628";"0";"2014-07-18 15:49:06.601";"2";;;;;;;;;;;;;;;;;;;;;;;;;;;;;;;;;;;;;;;;;;;;;
"johnson43";"1991";;"Windows Vista";"Rachel's Experiment (D.T.)";"1.0";"2";"1";"1";"2";"1";"1";"2014-07-18 15:44:31.176";"2014-07-18 16:00:39.398";"1";"1";"0";"64";"63";"module.training_block2.exec-1336.GoNoGo2";;;;;;;;;;;;;;;;;;;;;;;;;;;;;;;;;;;"1261";"2014-07-18 15:49:10.407";"ST_correctStop";"29";"0";"FINISHED";"NONE";"success";"0";"1";"2014-07-18 15:49:09.144";"3";;;;;;;;;;;;;;;;;;;;;;;;;;;;;;;;;;;;;;;;;;;;;
"johnson43";"1991";;"Windows Vista";"Rachel's Experiment (D.T.)";"1.0";"2";"1";"1";"2";"1";"1";"2014-07-18 15:44:31.176";"2014-07-18 16:00:39.398";"1";"1";"0";"65";"64";"module.training_block2.exec-1336.GoNoGo2";;;;;;;;;;;;;;;;;;;;;;;;;;;;;;;;;;;"1262";"2014-07-18 15:49:12.950";"NST_correctLoc";"35";"0";"FINISHED";"LEFT";"success";"518";"0";"2014-07-18 15:49:11.686";"3";;;;;;;;;;;;;;;;;;;;;;;;;;;;;;;;;;;;;;;;;;;;;
"johnson43";"1991";;"Windows Vista";"Rachel's Experiment (D.T.)";"1.0";"2";"1";"1";"2";"1";"1";"2014-07-18 15:44:31.176";"2014-07-18 16:00:39.398";"1";"1";"0";"66";"65";"module.training_block2.exec-1336.GoNoGo2";;;;;;;;;;;;;;;;;;;;;;;;;;;;;;;;;;;"1261";"2014-07-18 15:49:15.493";"NST_correctLoc";"32";"1";"FINISHED";"RIGHT";"success";"567";"0";"2014-07-18 15:49:14.229";"3";;;;;;;;;;;;;;;;;;;;;;;;;;;;;;;;;;;;;;;;;;;;;
"johnson43";"1991";;"Windows Vista";"Rachel's Experiment (D.T.)";"1.0";"2";"1";"1";"2";"1";"1";"2014-07-18 15:44:31.176";"2014-07-18 16:00:39.398";"1";"1";"0";"67";"66";"module.training_block2.exec-1336.GoNoGo2";;;;;;;;;;;;;;;;;;;;;;;;;;;;;;;;;;;"1261";"2014-07-18 15:49:18.036";"NST_correctLoc";"28";"1";"FINISHED";"RIGHT";"success";"617";"0";"2014-07-18 15:49:16.772";"3";;;;;;;;;;;;;;;;;;;;;;;;;;;;;;;;;;;;;;;;;;;;;
"johnson43";"1991";;"Windows Vista";"Rachel's Experiment (D.T.)";"1.0";"2";"1";"1";"2";"1";"1";"2014-07-18 15:44:31.176";"2014-07-18 16:00:39.398";"1";"1";"0";"68";"67";"module.training_block2.exec-1336.GoNoGo2";;;;;;;;;;;;;;;;;;;;;;;;;;;;;;;;;;;"1261";"2014-07-18 15:49:20.578";"NST_correctLoc";"12";"0";"FINISHED";"LEFT";"success";"570";"0";"2014-07-18 15:49:19.315";"2";;;;;;;;;;;;;;;;;;;;;;;;;;;;;;;;;;;;;;;;;;;;;
"johnson43";"1991";;"Windows Vista";"Rachel's Experiment (D.T.)";"1.0";"2";"1";"1";"2";"1";"1";"2014-07-18 15:44:31.176";"2014-07-18 16:00:39.398";"1";"1";"0";"69";"68";"module.training_block2.exec-1336.GoNoGo2";;;;;;;;;;;;;;;;;;;;;;;;;;;;;;;;;;;"1261";"2014-07-18 15:49:23.121";"NST_correctLoc";"34";"1";"FINISHED";"RIGHT";"success";"539";"0";"2014-07-18 15:49:21.858";"3";;;;;;;;;;;;;;;;;;;;;;;;;;;;;;;;;;;;;;;;;;;;;
"johnson43";"1991";;"Windows Vista";"Rachel's Experiment (D.T.)";"1.0";"2";"1";"1";"2";"1";"1";"2014-07-18 15:44:31.176";"2014-07-18 16:00:39.398";"1";"1";"0";"70";"69";"module.training_block2.exec-1336.GoNoGo2";;;;;;;;;;;;;;;;;;;;;;;;;;;;;;;;;;;"1261";"2014-07-18 15:49:25.664";"ST_correctStop";"18";"0";"FINISHED";"NONE";"success";"0";"1";"2014-07-18 15:49:24.400";"3";;;;;;;;;;;;;;;;;;;;;;;;;;;;;;;;;;;;;;;;;;;;;
"johnson43";"1991";;"Windows Vista";"Rachel's Experiment (D.T.)";"1.0";"2";"1";"1";"2";"1";"1";"2014-07-18 15:44:31.176";"2014-07-18 16:00:39.398";"1";"1";"0";"71";"70";"module.training_block2.exec-1336.GoNoGo2";;;;;;;;;;;;;;;;;;;;;;;;;;;;;;;;;;;"1261";"2014-07-18 15:49:28.207";"NST_correctLoc";"11";"1";"FINISHED";"RIGHT";"success";"557";"0";"2014-07-18 15:49:26.943";"2";;;;;;;;;;;;;;;;;;;;;;;;;;;;;;;;;;;;;;;;;;;;;
"johnson43";"1991";;"Windows Vista";"Rachel's Experiment (D.T.)";"1.0";"2";"1";"1";"2";"1";"1";"2014-07-18 15:44:31.176";"2014-07-18 16:00:39.398";"1";"1";"0";"72";"71";"module.training_block2.exec-1336.GoNoGo2";;;;;;;;;;;;;;;;;;;;;;;;;;;;;;;;;;;"1261";"2014-07-18 15:49:30.751";"ST_failedStop";"25";"0";"FINISHED";"LEFT";"failure";"606";"1";"2014-07-18 15:49:29.487";"3";;;;;;;;;;;;;;;;;;;;;;;;;;;;;;;;;;;;;;;;;;;;;
"johnson43";"1991";;"Windows Vista";"Rachel's Experiment (D.T.)";"1.0";"2";"1";"1";"2";"1";"1";"2014-07-18 15:44:31.176";"2014-07-18 16:00:39.398";"1";"1";"0";"73";"72";"module.training_block2.exec-1336.GoNoGo2";;;;;;;;;;;;;;;;;;;;;;;;;;;;;;;;;;;"1256";"2014-07-18 15:49:33.293";"ST_correctStop";"6";"1";"FINISHED";"NONE";"success";"0";"1";"2014-07-18 15:49:32.030";"1";;;;;;;;;;;;;;;;;;;;;;;;;;;;;;;;;;;;;;;;;;;;;
"johnson43";"1991";;"Windows Vista";"Rachel's Experiment (D.T.)";"1.0";"2";"1";"1";"2";"1";"1";"2014-07-18 15:44:31.176";"2014-07-18 16:00:39.398";"1";"1";"0";"74";"73";"module.training_block2.exec-1336.GoNoGo2";;;;;;;;;;;;;;;;;;;;;;;;;;;;;;;;;;;"1261";"2014-07-18 15:49:35.836";"ST_correctStop";"21";"0";"FINISHED";"NONE";"success";"0";"1";"2014-07-18 15:49:34.573";"3";;;;;;;;;;;;;;;;;;;;;;;;;;;;;;;;;;;;;;;;;;;;;
"johnson43";"1991";;"Windows Vista";"Rachel's Experiment (D.T.)";"1.0";"2";"1";"1";"2";"1";"1";"2014-07-18 15:44:31.176";"2014-07-18 16:00:39.398";"1";"1";"0";"75";"74";"module.training_block2.exec-1336.GoNoGo2";;;;;;;;;;;;;;;;;;;;;;;;;;;;;;;;;;;"1261";"2014-07-18 15:49:38.379";"NST_correctLoc";"16";"0";"FINISHED";"LEFT";"success";"609";"0";"2014-07-18 15:49:37.115";"2";;;;;;;;;;;;;;;;;;;;;;;;;;;;;;;;;;;;;;;;;;;;;
"johnson43";"1991";;"Windows Vista";"Rachel's Experiment (D.T.)";"1.0";"2";"1";"1";"2";"1";"1";"2014-07-18 15:44:31.176";"2014-07-18 16:00:39.398";"1";"1";"0";"76";"75";"module.training_block2.exec-1336.GoNoGo2";;;;;;;;;;;;;;;;;;;;;;;;;;;;;;;;;;;"1261";"2014-07-18 15:49:40.922";"ST_correctStop";"22";"1";"FINISHED";"NONE";"success";"0";"1";"2014-07-18 15:49:39.658";"3";;;;;;;;;;;;;;;;;;;;;;;;;;;;;;;;;;;;;;;;;;;;;
"johnson43";"1991";;"Windows Vista";"Rachel's Experiment (D.T.)";"1.0";"2";"1";"1";"2";"1";"1";"2014-07-18 15:44:31.176";"2014-07-18 16:00:39.398";"1";"1";"0";"77";"76";"module.training_block2.exec-1336.GoNoGo2";;;;;;;;;;;;;;;;;;;;;;;;;;;;;;;;;;;"1261";"2014-07-18 15:49:43.465";"ST_correctStop";"33";"1";"FINISHED";"NONE";"success";"0";"1";"2014-07-18 15:49:42.201";"3";;;;;;;;;;;;;;;;;;;;;;;;;;;;;;;;;;;;;;;;;;;;;
"johnson43";"1991";;"Windows Vista";"Rachel's Experiment (D.T.)";"1.0";"2";"1";"1";"2";"1";"1";"2014-07-18 15:44:31.176";"2014-07-18 16:00:39.398";"1";"1";"0";"78";"77";"module.training_block2.exec-1336.GoNoGo2";;;;;;;;;;;;;;;;;;;;;;;;;;;;;;;;;;;"1261";"2014-07-18 15:49:46.007";"NST_correctLoc";"23";"1";"FINISHED";"RIGHT";"success";"677";"0";"2014-07-18 15:49:44.744";"3";;;;;;;;;;;;;;;;;;;;;;;;;;;;;;;;;;;;;;;;;;;;;
"johnson43";"1991";;"Windows Vista";"Rachel's Experiment (D.T.)";"1.0";"2";"1";"1";"2";"1";"1";"2014-07-18 15:44:31.176";"2014-07-18 16:00:39.398";"1";"1";"0";"79";"78";"module.training_block2.exec-1336.GoNoGo2";;;;;;;;;;;;;;;;;;;;;;;;;;;;;;;;;;;"1262";"2014-07-18 15:49:48.550";"ST_correctStop";"1";"0";"FINISHED";"NONE";"success";"0";"1";"2014-07-18 15:49:47.287";"1";;;;;;;;;;;;;;;;;;;;;;;;;;;;;;;;;;;;;;;;;;;;;
"johnson43";"1991";;"Windows Vista";"Rachel's Experiment (D.T.)";"1.0";"2";"1";"1";"2";"1";"1";"2014-07-18 15:44:31.176";"2014-07-18 16:00:39.398";"1";"1";"0";"80";"79";"module.training_block2.exec-1336.GoNoGo2";;;;;;;;;;;;;;;;;;;;;;;;;;;;;;;;;;;"1262";"2014-07-18 15:49:51.109";"NST_correctLoc";"30";"0";"FINISHED";"LEFT";"success";"600";"0";"2014-07-18 15:49:49.845";"3";;;;;;;;;;;;;;;;;;;;;;;;;;;;;;;;;;;;;;;;;;;;;
"johnson43";"1991";;"Windows Vista";"Rachel's Experiment (D.T.)";"1.0";"2";"1";"1";"2";"1";"1";"2014-07-18 15:44:31.176";"2014-07-18 16:00:39.398";"1";"1";"0";"81";"80";"module.training_block2.exec-1336.GoNoGo2";;;;;;;;;;;;;;;;;;;;;;;;;;;;;;;;;;;"1261";"2014-07-18 15:49:53.651";"NST_correctLoc";"13";"0";"FINISHED";"LEFT";"success";"617";"0";"2014-07-18 15:49:52.388";"2";;;;;;;;;;;;;;;;;;;;;;;;;;;;;;;;;;;;;;;;;;;;;
"johnson43";"1991";;"Windows Vista";"Rachel's Experiment (D.T.)";"1.0";"2";"1";"1";"2";"1";"1";"2014-07-18 15:44:31.176";"2014-07-18 16:00:39.398";"1";"1";"0";"82";"81";"module.training_block2.exec-1336.GoNoGo2";;;;;;;;;;;;;;;;;;;;;;;;;;;;;;;;;;;"1261";"2014-07-18 15:49:56.194";"NST_correctLoc";"15";"1";"FINISHED";"RIGHT";"success";"602";"0";"2014-07-18 15:49:54.931";"2";;;;;;;;;;;;;;;;;;;;;;;;;;;;;;;;;;;;;;;;;;;;;
"johnson43";"1991";;"Windows Vista";"Rachel's Experiment (D.T.)";"1.0";"2";"1";"1";"2";"1";"1";"2014-07-18 15:44:31.176";"2014-07-18 16:00:39.398";"1";"1";"0";"83";"82";"module.training_block2.exec-1336.GoNoGo2";;;;;;;;;;;;;;;;;;;;;;;;;;;;;;;;;;;"1261";"2014-07-18 15:49:58.737";"ST_correctStop";"19";"0";"FINISHED";"NONE";"success";"0";"1";"2014-07-18 15:49:57.473";"3";;;;;;;;;;;;;;;;;;;;;;;;;;;;;;;;;;;;;;;;;;;;;
"johnson43";"1991";;"Windows Vista";"Rachel's Experiment (D.T.)";"1.0";"2";"1";"1";"2";"1";"1";"2014-07-18 15:44:31.176";"2014-07-18 16:00:39.398";"1";"1";"0";"84";"83";"module.training_block2.exec-1336.GoNoGo2";;;;;;;;;;;;;;;;;;;;;;;;;;;;;;;;;;;"1261";"2014-07-18 15:50:01.280";"ST_correctStop";"0";"0";"FINISHED";"NONE";"success";"0";"1";"2014-07-18 15:50:00.016";"1";;;;;;;;;;;;;;;;;;;;;;;;;;;;;;;;;;;;;;;;;;;;;
"johnson43";"1991";;"Windows Vista";"Rachel's Experiment (D.T.)";"1.0";"2";"1";"1";"2";"1";"1";"2014-07-18 15:44:31.176";"2014-07-18 16:00:39.398";"1";"1";"0";"85";"84";"module.training_block2.exec-1336.GoNoGo2";;;;;;;;;;;;;;;;;;;;;;;;;;;;;;;;;;;"1261";"2014-07-18 15:50:03.823";"ST_correctStop";"31";"0";"FINISHED";"NONE";"success";"0";"1";"2014-07-18 15:50:02.559";"3";;;;;;;;;;;;;;;;;;;;;;;;;;;;;;;;;;;;;;;;;;;;;
"johnson43";"1991";;"Windows Vista";"Rachel's Experiment (D.T.)";"1.0";"2";"1";"1";"2";"1";"1";"2014-07-18 15:44:31.176";"2014-07-18 16:00:39.398";"1";"1";"0";"86";"85";"module.training_block2.exec-1336.GoNoGo2";;;;;;;;;;;;;;;;;;;;;;;;;;;;;;;;;;;"1261";"2014-07-18 15:50:06.365";"ST_correctStop";"5";"0";"FINISHED";"NONE";"success";"0";"1";"2014-07-18 15:50:05.102";"1";;;;;;;;;;;;;;;;;;;;;;;;;;;;;;;;;;;;;;;;;;;;;
"johnson43";"1991";;"Windows Vista";"Rachel's Experiment (D.T.)";"1.0";"2";"1";"1";"2";"1";"1";"2014-07-18 15:44:31.176";"2014-07-18 16:00:39.398";"1";"1";"0";"87";"86";"module.training_block2.exec-1336.GoNoGo2";;;;;;;;;;;;;;;;;;;;;;;;;;;;;;;;;;;"1261";"2014-07-18 15:50:08.908";"ST_correctStop";"7";"0";"FINISHED";"NONE";"success";"0";"1";"2014-07-18 15:50:07.645";"1";;;;;;;;;;;;;;;;;;;;;;;;;;;;;;;;;;;;;;;;;;;;;
"johnson43";"1991";;"Windows Vista";"Rachel's Experiment (D.T.)";"1.0";"2";"1";"1";"2";"1";"1";"2014-07-18 15:44:31.176";"2014-07-18 16:00:39.398";"1";"1";"0";"88";"87";"module.training_block3.exec-3644.GoNoGo3";;;;;;;;;;;;;;;;;;;;;;;;;;;;;;;;;;;;;;;;;;;;;;;"1261";"2014-07-18 15:50:20.998";"NST_correctLoc";"14";"0";"FINISHED";"LEFT";"success";"534";"0";"2014-07-18 15:50:19.735";"2";;;;;;;;;;;;;;;;;;;;;;;;;;;;;;;;;
"johnson43";"1991";;"Windows Vista";"Rachel's Experiment (D.T.)";"1.0";"2";"1";"1";"2";"1";"1";"2014-07-18 15:44:31.176";"2014-07-18 16:00:39.398";"1";"1";"0";"89";"88";"module.training_block3.exec-3644.GoNoGo3";;;;;;;;;;;;;;;;;;;;;;;;;;;;;;;;;;;;;;;;;;;;;;;"1261";"2014-07-18 15:50:23.541";"ST_correctStop";"8";"0";"FINISHED";"NONE";"success";"0";"1";"2014-07-18 15:50:22.277";"1";;;;;;;;;;;;;;;;;;;;;;;;;;;;;;;;;
"johnson43";"1991";;"Windows Vista";"Rachel's Experiment (D.T.)";"1.0";"2";"1";"1";"2";"1";"1";"2014-07-18 15:44:31.176";"2014-07-18 16:00:39.398";"1";"1";"0";"90";"89";"module.training_block3.exec-3644.GoNoGo3";;;;;;;;;;;;;;;;;;;;;;;;;;;;;;;;;;;;;;;;;;;;;;;"1261";"2014-07-18 15:50:26.084";"NST_correctLoc";"10";"0";"FINISHED";"LEFT";"success";"552";"0";"2014-07-18 15:50:24.820";"2";;;;;;;;;;;;;;;;;;;;;;;;;;;;;;;;;
"johnson43";"1991";;"Windows Vista";"Rachel's Experiment (D.T.)";"1.0";"2";"1";"1";"2";"1";"1";"2014-07-18 15:44:31.176";"2014-07-18 16:00:39.398";"1";"1";"0";"91";"90";"module.training_block3.exec-3644.GoNoGo3";;;;;;;;;;;;;;;;;;;;;;;;;;;;;;;;;;;;;;;;;;;;;;;"1261";"2014-07-18 15:50:28.627";"NST_correctLoc";"31";"0";"FINISHED";"LEFT";"success";"602";"0";"2014-07-18 15:50:27.363";"3";;;;;;;;;;;;;;;;;;;;;;;;;;;;;;;;;
"johnson43";"1991";;"Windows Vista";"Rachel's Experiment (D.T.)";"1.0";"2";"1";"1";"2";"1";"1";"2014-07-18 15:44:31.176";"2014-07-18 16:00:39.398";"1";"1";"0";"92";"91";"module.training_block3.exec-3644.GoNoGo3";;;;;;;;;;;;;;;;;;;;;;;;;;;;;;;;;;;;;;;;;;;;;;;"1261";"2014-07-18 15:50:31.169";"ST_correctStop";"21";"1";"FINISHED";"NONE";"success";"0";"1";"2014-07-18 15:50:29.906";"3";;;;;;;;;;;;;;;;;;;;;;;;;;;;;;;;;
"johnson43";"1991";;"Windows Vista";"Rachel's Experiment (D.T.)";"1.0";"2";"1";"1";"2";"1";"1";"2014-07-18 15:44:31.176";"2014-07-18 16:00:39.398";"1";"1";"0";"93";"92";"module.training_block3.exec-3644.GoNoGo3";;;;;;;;;;;;;;;;;;;;;;;;;;;;;;;;;;;;;;;;;;;;;;;"1261";"2014-07-18 15:50:33.712";"NST_correctLoc";"12";"1";"FINISHED";"RIGHT";"success";"572";"0";"2014-07-18 15:50:32.449";"2";;;;;;;;;;;;;;;;;;;;;;;;;;;;;;;;;
"johnson43";"1991";;"Windows Vista";"Rachel's Experiment (D.T.)";"1.0";"2";"1";"1";"2";"1";"1";"2014-07-18 15:44:31.176";"2014-07-18 16:00:39.398";"1";"1";"0";"94";"93";"module.training_block3.exec-3644.GoNoGo3";;;;;;;;;;;;;;;;;;;;;;;;;;;;;;;;;;;;;;;;;;;;;;;"1261";"2014-07-18 15:50:36.255";"ST_correctStop";"26";"1";"FINISHED";"NONE";"success";"0";"1";"2014-07-18 15:50:34.991";"3";;;;;;;;;;;;;;;;;;;;;;;;;;;;;;;;;
"johnson43";"1991";;"Windows Vista";"Rachel's Experiment (D.T.)";"1.0";"2";"1";"1";"2";"1";"1";"2014-07-18 15:44:31.176";"2014-07-18 16:00:39.398";"1";"1";"0";"95";"94";"module.training_block3.exec-3644.GoNoGo3";;;;;;;;;;;;;;;;;;;;;;;;;;;;;;;;;;;;;;;;;;;;;;;"1261";"2014-07-18 15:50:38.798";"NST_correctLoc";"16";"0";"FINISHED";"LEFT";"success";"526";"0";"2014-07-18 15:50:37.534";"2";;;;;;;;;;;;;;;;;;;;;;;;;;;;;;;;;
"johnson43";"1991";;"Windows Vista";"Rachel's Experiment (D.T.)";"1.0";"2";"1";"1";"2";"1";"1";"2014-07-18 15:44:31.176";"2014-07-18 16:00:39.398";"1";"1";"0";"96";"95";"module.training_block3.exec-3644.GoNoGo3";;;;;;;;;;;;;;;;;;;;;;;;;;;;;;;;;;;;;;;;;;;;;;;"1261";"2014-07-18 15:50:41.341";"ST_correctStop";"28";"1";"FINISHED";"NONE";"success";"0";"1";"2014-07-18 15:50:40.077";"3";;;;;;;;;;;;;;;;;;;;;;;;;;;;;;;;;
"johnson43";"1991";;"Windows Vista";"Rachel's Experiment (D.T.)";"1.0";"2";"1";"1";"2";"1";"1";"2014-07-18 15:44:31.176";"2014-07-18 16:00:39.398";"1";"1";"0";"97";"96";"module.training_block3.exec-3644.GoNoGo3";;;;;;;;;;;;;;;;;;;;;;;;;;;;;;;;;;;;;;;;;;;;;;;"1261";"2014-07-18 15:50:43.883";"ST_correctStop";"7";"0";"FINISHED";"NONE";"success";"0";"1";"2014-07-18 15:50:42.620";"1";;;;;;;;;;;;;;;;;;;;;;;;;;;;;;;;;
"johnson43";"1991";;"Windows Vista";"Rachel's Experiment (D.T.)";"1.0";"2";"1";"1";"2";"1";"1";"2014-07-18 15:44:31.176";"2014-07-18 16:00:39.398";"1";"1";"0";"98";"97";"module.training_block3.exec-3644.GoNoGo3";;;;;;;;;;;;;;;;;;;;;;;;;;;;;;;;;;;;;;;;;;;;;;;"1260";"2014-07-18 15:50:46.426";"NST_correctLoc";"32";"1";"FINISHED";"RIGHT";"success";"544";"0";"2014-07-18 15:50:45.163";"3";;;;;;;;;;;;;;;;;;;;;;;;;;;;;;;;;
"johnson43";"1991";;"Windows Vista";"Rachel's Experiment (D.T.)";"1.0";"2";"1";"1";"2";"1";"1";"2014-07-18 15:44:31.176";"2014-07-18 16:00:39.398";"1";"1";"0";"99";"98";"module.training_block3.exec-3644.GoNoGo3";;;;;;;;;;;;;;;;;;;;;;;;;;;;;;;;;;;;;;;;;;;;;;;"1261";"2014-07-18 15:50:48.969";"NST_correctLoc";"23";"0";"FINISHED";"LEFT";"success";"595";"0";"2014-07-18 15:50:47.705";"3";;;;;;;;;;;;;;;;;;;;;;;;;;;;;;;;;
"johnson43";"1991";;"Windows Vista";"Rachel's Experiment (D.T.)";"1.0";"2";"1";"1";"2";"1";"1";"2014-07-18 15:44:31.176";"2014-07-18 16:00:39.398";"1";"1";"0";"100";"99";"module.training_block3.exec-3644.GoNoGo3";;;;;;;;;;;;;;;;;;;;;;;;;;;;;;;;;;;;;;;;;;;;;;;"1261";"2014-07-18 15:50:51.512";"NST_correctLoc";"15";"1";"FINISHED";"RIGHT";"success";"580";"0";"2014-07-18 15:50:50.248";"2";;;;;;;;;;;;;;;;;;;;;;;;;;;;;;;;;
"johnson43";"1991";;"Windows Vista";"Rachel's Experiment (D.T.)";"1.0";"2";"1";"1";"2";"1";"1";"2014-07-18 15:44:31.176";"2014-07-18 16:00:39.398";"1";"1";"0";"101";"100";"module.training_block3.exec-3644.GoNoGo3";;;;;;;;;;;;;;;;;;;;;;;;;;;;;;;;;;;;;;;;;;;;;;;"1262";"2014-07-18 15:50:54.055";"NST_correctLoc";"13";"1";"FINISHED";"RIGHT";"success";"631";"0";"2014-07-18 15:50:52.791";"2";;;;;;;;;;;;;;;;;;;;;;;;;;;;;;;;;
"johnson43";"1991";;"Windows Vista";"Rachel's Experiment (D.T.)";"1.0";"2";"1";"1";"2";"1";"1";"2014-07-18 15:44:31.176";"2014-07-18 16:00:39.398";"1";"1";"0";"102";"101";"module.training_block3.exec-3644.GoNoGo3";;;;;;;;;;;;;;;;;;;;;;;;;;;;;;;;;;;;;;;;;;;;;;;"1261";"2014-07-18 15:50:56.597";"ST_correctStop";"1";"1";"FINISHED";"NONE";"success";"0";"1";"2014-07-18 15:50:55.334";"1";;;;;;;;;;;;;;;;;;;;;;;;;;;;;;;;;
"johnson43";"1991";;"Windows Vista";"Rachel's Experiment (D.T.)";"1.0";"2";"1";"1";"2";"1";"1";"2014-07-18 15:44:31.176";"2014-07-18 16:00:39.398";"1";"1";"0";"103";"102";"module.training_block3.exec-3644.GoNoGo3";;;;;;;;;;;;;;;;;;;;;;;;;;;;;;;;;;;;;;;;;;;;;;;"1261";"2014-07-18 15:50:59.140";"NST_correctLoc";"30";"1";"FINISHED";"RIGHT";"success";"568";"0";"2014-07-18 15:50:57.877";"3";;;;;;;;;;;;;;;;;;;;;;;;;;;;;;;;;
"johnson43";"1991";;"Windows Vista";"Rachel's Experiment (D.T.)";"1.0";"2";"1";"1";"2";"1";"1";"2014-07-18 15:44:31.176";"2014-07-18 16:00:39.398";"1";"1";"0";"104";"103";"module.training_block3.exec-3644.GoNoGo3";;;;;;;;;;;;;;;;;;;;;;;;;;;;;;;;;;;;;;;;;;;;;;;"1261";"2014-07-18 15:51:01.683";"ST_correctStop";"4";"1";"FINISHED";"NONE";"success";"0";"1";"2014-07-18 15:51:00.419";"1";;;;;;;;;;;;;;;;;;;;;;;;;;;;;;;;;
"johnson43";"1991";;"Windows Vista";"Rachel's Experiment (D.T.)";"1.0";"2";"1";"1";"2";"1";"1";"2014-07-18 15:44:31.176";"2014-07-18 16:00:39.398";"1";"1";"0";"105";"104";"module.training_block3.exec-3644.GoNoGo3";;;;;;;;;;;;;;;;;;;;;;;;;;;;;;;;;;;;;;;;;;;;;;;"1261";"2014-07-18 15:51:04.226";"ST_correctStop";"22";"0";"FINISHED";"NONE";"success";"0";"1";"2014-07-18 15:51:02.962";"3";;;;;;;;;;;;;;;;;;;;;;;;;;;;;;;;;
"johnson43";"1991";;"Windows Vista";"Rachel's Experiment (D.T.)";"1.0";"2";"1";"1";"2";"1";"1";"2014-07-18 15:44:31.176";"2014-07-18 16:00:39.398";"1";"1";"0";"106";"105";"module.training_block3.exec-3644.GoNoGo3";;;;;;;;;;;;;;;;;;;;;;;;;;;;;;;;;;;;;;;;;;;;;;;"1261";"2014-07-18 15:51:06.769";"ST_correctStop";"3";"0";"FINISHED";"NONE";"success";"0";"1";"2014-07-18 15:51:05.505";"1";;;;;;;;;;;;;;;;;;;;;;;;;;;;;;;;;
"johnson43";"1991";;"Windows Vista";"Rachel's Experiment (D.T.)";"1.0";"2";"1";"1";"2";"1";"1";"2014-07-18 15:44:31.176";"2014-07-18 16:00:39.398";"1";"1";"0";"107";"106";"module.training_block3.exec-3644.GoNoGo3";;;;;;;;;;;;;;;;;;;;;;;;;;;;;;;;;;;;;;;;;;;;;;;"1261";"2014-07-18 15:51:09.311";"NST_correctLoc";"9";"0";"FINISHED";"LEFT";"success";"701";"0";"2014-07-18 15:51:08.048";"2";;;;;;;;;;;;;;;;;;;;;;;;;;;;;;;;;
"johnson43";"1991";;"Windows Vista";"Rachel's Experiment (D.T.)";"1.0";"2";"1";"1";"2";"1";"1";"2014-07-18 15:44:31.176";"2014-07-18 16:00:39.398";"1";"1";"0";"108";"107";"module.training_block3.exec-3644.GoNoGo3";;;;;;;;;;;;;;;;;;;;;;;;;;;;;;;;;;;;;;;;;;;;;;;"1261";"2014-07-18 15:51:11.854";"ST_correctStop";"2";"0";"FINISHED";"NONE";"success";"0";"1";"2014-07-18 15:51:10.591";"1";;;;;;;;;;;;;;;;;;;;;;;;;;;;;;;;;
"johnson43";"1991";;"Windows Vista";"Rachel's Experiment (D.T.)";"1.0";"2";"1";"1";"2";"1";"1";"2014-07-18 15:44:31.176";"2014-07-18 16:00:39.398";"1";"1";"0";"109";"108";"module.training_block3.exec-3644.GoNoGo3";;;;;;;;;;;;;;;;;;;;;;;;;;;;;;;;;;;;;;;;;;;;;;;"1261";"2014-07-18 15:51:14.397";"NST_correctLoc";"27";"1";"FINISHED";"RIGHT";"success";"847";"0";"2014-07-18 15:51:13.133";"3";;;;;;;;;;;;;;;;;;;;;;;;;;;;;;;;;
"johnson43";"1991";;"Windows Vista";"Rachel's Experiment (D.T.)";"1.0";"2";"1";"1";"2";"1";"1";"2014-07-18 15:44:31.176";"2014-07-18 16:00:39.398";"1";"1";"0";"110";"109";"module.training_block3.exec-3644.GoNoGo3";;;;;;;;;;;;;;;;;;;;;;;;;;;;;;;;;;;;;;;;;;;;;;;"1260";"2014-07-18 15:51:16.940";"ST_correctStop";"6";"1";"FINISHED";"NONE";"success";"0";"1";"2014-07-18 15:51:15.676";"1";;;;;;;;;;;;;;;;;;;;;;;;;;;;;;;;;
"johnson43";"1991";;"Windows Vista";"Rachel's Experiment (D.T.)";"1.0";"2";"1";"1";"2";"1";"1";"2014-07-18 15:44:31.176";"2014-07-18 16:00:39.398";"1";"1";"0";"111";"110";"module.training_block3.exec-3644.GoNoGo3";;;;;;;;;;;;;;;;;;;;;;;;;;;;;;;;;;;;;;;;;;;;;;;"1261";"2014-07-18 15:51:19.483";"NST_correctLoc";"33";"0";"FINISHED";"LEFT";"success";"594";"0";"2014-07-18 15:51:18.219";"3";;;;;;;;;;;;;;;;;;;;;;;;;;;;;;;;;
"johnson43";"1991";;"Windows Vista";"Rachel's Experiment (D.T.)";"1.0";"2";"1";"1";"2";"1";"1";"2014-07-18 15:44:31.176";"2014-07-18 16:00:39.398";"1";"1";"0";"112";"111";"module.training_block3.exec-3644.GoNoGo3";;;;;;;;;;;;;;;;;;;;;;;;;;;;;;;;;;;;;;;;;;;;;;;"1261";"2014-07-18 15:51:22.025";"ST_correctStop";"24";"1";"FINISHED";"NONE";"success";"0";"1";"2014-07-18 15:51:20.762";"3";;;;;;;;;;;;;;;;;;;;;;;;;;;;;;;;;
"johnson43";"1991";;"Windows Vista";"Rachel's Experiment (D.T.)";"1.0";"2";"1";"1";"2";"1";"1";"2014-07-18 15:44:31.176";"2014-07-18 16:00:39.398";"1";"1";"0";"113";"112";"module.training_block3.exec-3644.GoNoGo3";;;;;;;;;;;;;;;;;;;;;;;;;;;;;;;;;;;;;;;;;;;;;;;"1261";"2014-07-18 15:51:24.568";"ST_correctStop";"0";"1";"FINISHED";"NONE";"success";"0";"1";"2014-07-18 15:51:23.305";"1";;;;;;;;;;;;;;;;;;;;;;;;;;;;;;;;;
"johnson43";"1991";;"Windows Vista";"Rachel's Experiment (D.T.)";"1.0";"2";"1";"1";"2";"1";"1";"2014-07-18 15:44:31.176";"2014-07-18 16:00:39.398";"1";"1";"0";"114";"113";"module.training_block3.exec-3644.GoNoGo3";;;;;;;;;;;;;;;;;;;;;;;;;;;;;;;;;;;;;;;;;;;;;;;"1261";"2014-07-18 15:51:27.111";"NST_correctLoc";"18";"0";"FINISHED";"LEFT";"success";"501";"0";"2014-07-18 15:51:25.847";"3";;;;;;;;;;;;;;;;;;;;;;;;;;;;;;;;;
"johnson43";"1991";;"Windows Vista";"Rachel's Experiment (D.T.)";"1.0";"2";"1";"1";"2";"1";"1";"2014-07-18 15:44:31.176";"2014-07-18 16:00:39.398";"1";"1";"0";"115";"114";"module.training_block3.exec-3644.GoNoGo3";;;;;;;;;;;;;;;;;;;;;;;;;;;;;;;;;;;;;;;;;;;;;;;"1261";"2014-07-18 15:51:29.654";"ST_correctStop";"5";"0";"FINISHED";"NONE";"success";"0";"1";"2014-07-18 15:51:28.390";"1";;;;;;;;;;;;;;;;;;;;;;;;;;;;;;;;;
"johnson43";"1991";;"Windows Vista";"Rachel's Experiment (D.T.)";"1.0";"2";"1";"1";"2";"1";"1";"2014-07-18 15:44:31.176";"2014-07-18 16:00:39.398";"1";"1";"0";"116";"115";"module.training_block3.exec-3644.GoNoGo3";;;;;;;;;;;;;;;;;;;;;;;;;;;;;;;;;;;;;;;;;;;;;;;"1261";"2014-07-18 15:51:32.197";"NST_correctLoc";"25";"0";"FINISHED";"LEFT";"success";"536";"0";"2014-07-18 15:51:30.933";"3";;;;;;;;;;;;;;;;;;;;;;;;;;;;;;;;;
"johnson43";"1991";;"Windows Vista";"Rachel's Experiment (D.T.)";"1.0";"2";"1";"1";"2";"1";"1";"2014-07-18 15:44:31.176";"2014-07-18 16:00:39.398";"1";"1";"0";"117";"116";"module.training_block3.exec-3644.GoNoGo3";;;;;;;;;;;;;;;;;;;;;;;;;;;;;;;;;;;;;;;;;;;;;;;"1261";"2014-07-18 15:51:34.739";"ST_correctStop";"20";"1";"FINISHED";"NONE";"success";"0";"1";"2014-07-18 15:51:33.476";"3";;;;;;;;;;;;;;;;;;;;;;;;;;;;;;;;;
"johnson43";"1991";;"Windows Vista";"Rachel's Experiment (D.T.)";"1.0";"2";"1";"1";"2";"1";"1";"2014-07-18 15:44:31.176";"2014-07-18 16:00:39.398";"1";"1";"0";"118";"117";"module.training_block3.exec-3644.GoNoGo3";;;;;;;;;;;;;;;;;;;;;;;;;;;;;;;;;;;;;;;;;;;;;;;"1261";"2014-07-18 15:51:37.282";"NST_correctLoc";"17";"0";"FINISHED";"LEFT";"success";"634";"0";"2014-07-18 15:51:36.019";"2";;;;;;;;;;;;;;;;;;;;;;;;;;;;;;;;;
"johnson43";"1991";;"Windows Vista";"Rachel's Experiment (D.T.)";"1.0";"2";"1";"1";"2";"1";"1";"2014-07-18 15:44:31.176";"2014-07-18 16:00:39.398";"1";"1";"0";"119";"118";"module.training_block3.exec-3644.GoNoGo3";;;;;;;;;;;;;;;;;;;;;;;;;;;;;;;;;;;;;;;;;;;;;;;"1261";"2014-07-18 15:51:39.825";"NST_correctLoc";"11";"1";"FINISHED";"RIGHT";"success";"459";"0";"2014-07-18 15:51:38.561";"2";;;;;;;;;;;;;;;;;;;;;;;;;;;;;;;;;
"johnson43";"1991";;"Windows Vista";"Rachel's Experiment (D.T.)";"1.0";"2";"1";"1";"2";"1";"1";"2014-07-18 15:44:31.176";"2014-07-18 16:00:39.398";"1";"1";"0";"120";"119";"module.training_block3.exec-3644.GoNoGo3";;;;;;;;;;;;;;;;;;;;;;;;;;;;;;;;;;;;;;;;;;;;;;;"1261";"2014-07-18 15:51:42.368";"ST_correctStop";"29";"0";"FINISHED";"NONE";"success";"0";"1";"2014-07-18 15:51:41.104";"3";;;;;;;;;;;;;;;;;;;;;;;;;;;;;;;;;
"johnson43";"1991";;"Windows Vista";"Rachel's Experiment (D.T.)";"1.0";"2";"1";"1";"2";"1";"1";"2014-07-18 15:44:31.176";"2014-07-18 16:00:39.398";"1";"1";"0";"121";"120";"module.training_block3.exec-3644.GoNoGo3";;;;;;;;;;;;;;;;;;;;;;;;;;;;;;;;;;;;;;;;;;;;;;;"1261";"2014-07-18 15:51:44.911";"NST_correctLoc";"35";"0";"FINISHED";"LEFT";"success";"734";"0";"2014-07-18 15:51:43.647";"3";;;;;;;;;;;;;;;;;;;;;;;;;;;;;;;;;
"johnson43";"1991";;"Windows Vista";"Rachel's Experiment (D.T.)";"1.0";"2";"1";"1";"2";"1";"1";"2014-07-18 15:44:31.176";"2014-07-18 16:00:39.398";"1";"1";"0";"122";"121";"module.training_block3.exec-3644.GoNoGo3";;;;;;;;;;;;;;;;;;;;;;;;;;;;;;;;;;;;;;;;;;;;;;;"1260";"2014-07-18 15:51:47.453";"ST_correctStop";"34";"0";"FINISHED";"NONE";"success";"0";"1";"2014-07-18 15:51:46.190";"3";;;;;;;;;;;;;;;;;;;;;;;;;;;;;;;;;
"johnson43";"1991";;"Windows Vista";"Rachel's Experiment (D.T.)";"1.0";"2";"1";"1";"2";"1";"1";"2014-07-18 15:44:31.176";"2014-07-18 16:00:39.398";"1";"1";"0";"123";"122";"module.training_block3.exec-3644.GoNoGo3";;;;;;;;;;;;;;;;;;;;;;;;;;;;;;;;;;;;;;;;;;;;;;;"1261";"2014-07-18 15:51:49.996";"ST_correctStop";"19";"1";"FINISHED";"NONE";"success";"0";"1";"2014-07-18 15:51:48.733";"3";;;;;;;;;;;;;;;;;;;;;;;;;;;;;;;;;
"johnson43";"1991";;"Windows Vista";"Rachel's Experiment (D.T.)";"1.0";"2";"1";"1";"2";"1";"1";"2014-07-18 15:44:31.176";"2014-07-18 16:00:39.398";"1";"1";"0";"124";"123";"module.training_block4.exec-1605.GoNoGo4";;;;;;;;;;;;;;;;;;;;;;;;;;;;;;;;;;;;;;;;;;;;;;;;;;;;;;;;;;;"1261";"2014-07-18 15:52:04.832";"NST_correctLoc";"15";"0";"FINISHED";"LEFT";"success";"508";"0";"2014-07-18 15:52:03.568";"2";;;;;;;;;;;;;;;;;;;;;
"johnson43";"1991";;"Windows Vista";"Rachel's Experiment (D.T.)";"1.0";"2";"1";"1";"2";"1";"1";"2014-07-18 15:44:31.176";"2014-07-18 16:00:39.398";"1";"1";"0";"125";"124";"module.training_block4.exec-1605.GoNoGo4";;;;;;;;;;;;;;;;;;;;;;;;;;;;;;;;;;;;;;;;;;;;;;;;;;;;;;;;;;;"1261";"2014-07-18 15:52:07.375";"ST_correctStop";"18";"0";"FINISHED";"NONE";"success";"0";"1";"2014-07-18 15:52:06.111";"3";;;;;;;;;;;;;;;;;;;;;
"johnson43";"1991";;"Windows Vista";"Rachel's Experiment (D.T.)";"1.0";"2";"1";"1";"2";"1";"1";"2014-07-18 15:44:31.176";"2014-07-18 16:00:39.398";"1";"1";"0";"126";"125";"module.training_block4.exec-1605.GoNoGo4";;;;;;;;;;;;;;;;;;;;;;;;;;;;;;;;;;;;;;;;;;;;;;;;;;;;;;;;;;;"1261";"2014-07-18 15:52:09.917";"NST_correctLoc";"32";"1";"FINISHED";"RIGHT";"success";"463";"0";"2014-07-18 15:52:08.654";"3";;;;;;;;;;;;;;;;;;;;;
"johnson43";"1991";;"Windows Vista";"Rachel's Experiment (D.T.)";"1.0";"2";"1";"1";"2";"1";"1";"2014-07-18 15:44:31.176";"2014-07-18 16:00:39.398";"1";"1";"0";"127";"126";"module.training_block4.exec-1605.GoNoGo4";;;;;;;;;;;;;;;;;;;;;;;;;;;;;;;;;;;;;;;;;;;;;;;;;;;;;;;;;;;"1261";"2014-07-18 15:52:12.460";"NST_correctLoc";"9";"0";"FINISHED";"LEFT";"success";"576";"0";"2014-07-18 15:52:11.197";"2";;;;;;;;;;;;;;;;;;;;;
"johnson43";"1991";;"Windows Vista";"Rachel's Experiment (D.T.)";"1.0";"2";"1";"1";"2";"1";"1";"2014-07-18 15:44:31.176";"2014-07-18 16:00:39.398";"1";"1";"0";"128";"127";"module.training_block4.exec-1605.GoNoGo4";;;;;;;;;;;;;;;;;;;;;;;;;;;;;;;;;;;;;;;;;;;;;;;;;;;;;;;;;;;"1261";"2014-07-18 15:52:15.003";"ST_correctStop";"2";"1";"FINISHED";"NONE";"success";"0";"1";"2014-07-18 15:52:13.739";"1";;;;;;;;;;;;;;;;;;;;;
"johnson43";"1991";;"Windows Vista";"Rachel's Experiment (D.T.)";"1.0";"2";"1";"1";"2";"1";"1";"2014-07-18 15:44:31.176";"2014-07-18 16:00:39.398";"1";"1";"0";"129";"128";"module.training_block4.exec-1605.GoNoGo4";;;;;;;;;;;;;;;;;;;;;;;;;;;;;;;;;;;;;;;;;;;;;;;;;;;;;;;;;;;"1260";"2014-07-18 15:52:17.546";"ST_correctStop";"23";"1";"FINISHED";"NONE";"success";"0";"1";"2014-07-18 15:52:16.282";"3";;;;;;;;;;;;;;;;;;;;;
"johnson43";"1991";;"Windows Vista";"Rachel's Experiment (D.T.)";"1.0";"2";"1";"1";"2";"1";"1";"2014-07-18 15:44:31.176";"2014-07-18 16:00:39.398";"1";"1";"0";"130";"129";"module.training_block4.exec-1605.GoNoGo4";;;;;;;;;;;;;;;;;;;;;;;;;;;;;;;;;;;;;;;;;;;;;;;;;;;;;;;;;;;"1261";"2014-07-18 15:52:20.089";"ST_correctStop";"27";"1";"FINISHED";"NONE";"success";"0";"1";"2014-07-18 15:52:18.825";"3";;;;;;;;;;;;;;;;;;;;;
"johnson43";"1991";;"Windows Vista";"Rachel's Experiment (D.T.)";"1.0";"2";"1";"1";"2";"1";"1";"2014-07-18 15:44:31.176";"2014-07-18 16:00:39.398";"1";"1";"0";"131";"130";"module.training_block4.exec-1605.GoNoGo4";;;;;;;;;;;;;;;;;;;;;;;;;;;;;;;;;;;;;;;;;;;;;;;;;;;;;;;;;;;"1261";"2014-07-18 15:52:22.631";"ST_correctStop";"25";"0";"FINISHED";"NONE";"success";"0";"1";"2014-07-18 15:52:21.368";"3";;;;;;;;;;;;;;;;;;;;;
"johnson43";"1991";;"Windows Vista";"Rachel's Experiment (D.T.)";"1.0";"2";"1";"1";"2";"1";"1";"2014-07-18 15:44:31.176";"2014-07-18 16:00:39.398";"1";"1";"0";"132";"131";"module.training_block4.exec-1605.GoNoGo4";;;;;;;;;;;;;;;;;;;;;;;;;;;;;;;;;;;;;;;;;;;;;;;;;;;;;;;;;;;"1261";"2014-07-18 15:52:25.174";"NST_correctLoc";"22";"1";"FINISHED";"RIGHT";"success";"470";"0";"2014-07-18 15:52:23.911";"3";;;;;;;;;;;;;;;;;;;;;
"johnson43";"1991";;"Windows Vista";"Rachel's Experiment (D.T.)";"1.0";"2";"1";"1";"2";"1";"1";"2014-07-18 15:44:31.176";"2014-07-18 16:00:39.398";"1";"1";"0";"133";"132";"module.training_block4.exec-1605.GoNoGo4";;;;;;;;;;;;;;;;;;;;;;;;;;;;;;;;;;;;;;;;;;;;;;;;;;;;;;;;;;;"1261";"2014-07-18 15:52:27.717";"NST_correctLoc";"14";"0";"FINISHED";"LEFT";"success";"535";"0";"2014-07-18 15:52:26.453";"2";;;;;;;;;;;;;;;;;;;;;
"johnson43";"1991";;"Windows Vista";"Rachel's Experiment (D.T.)";"1.0";"2";"1";"1";"2";"1";"1";"2014-07-18 15:44:31.176";"2014-07-18 16:00:39.398";"1";"1";"0";"134";"133";"module.training_block4.exec-1605.GoNoGo4";;;;;;;;;;;;;;;;;;;;;;;;;;;;;;;;;;;;;;;;;;;;;;;;;;;;;;;;;;;"1261";"2014-07-18 15:52:30.260";"NST_correctLoc";"33";"0";"FINISHED";"LEFT";"success";"552";"0";"2014-07-18 15:52:28.996";"3";;;;;;;;;;;;;;;;;;;;;
"johnson43";"1991";;"Windows Vista";"Rachel's Experiment (D.T.)";"1.0";"2";"1";"1";"2";"1";"1";"2014-07-18 15:44:31.176";"2014-07-18 16:00:39.398";"1";"1";"0";"135";"134";"module.training_block4.exec-1605.GoNoGo4";;;;;;;;;;;;;;;;;;;;;;;;;;;;;;;;;;;;;;;;;;;;;;;;;;;;;;;;;;;"1261";"2014-07-18 15:52:32.803";"ST_correctStop";"28";"0";"FINISHED";"NONE";"success";"0";"1";"2014-07-18 15:52:31.539";"3";;;;;;;;;;;;;;;;;;;;;
"johnson43";"1991";;"Windows Vista";"Rachel's Experiment (D.T.)";"1.0";"2";"1";"1";"2";"1";"1";"2014-07-18 15:44:31.176";"2014-07-18 16:00:39.398";"1";"1";"0";"136";"135";"module.training_block4.exec-1605.GoNoGo4";;;;;;;;;;;;;;;;;;;;;;;;;;;;;;;;;;;;;;;;;;;;;;;;;;;;;;;;;;;"1261";"2014-07-18 15:52:35.345";"NST_correctLoc";"24";"1";"FINISHED";"RIGHT";"success";"443";"0";"2014-07-18 15:52:34.082";"3";;;;;;;;;;;;;;;;;;;;;
"johnson43";"1991";;"Windows Vista";"Rachel's Experiment (D.T.)";"1.0";"2";"1";"1";"2";"1";"1";"2014-07-18 15:44:31.176";"2014-07-18 16:00:39.398";"1";"1";"0";"137";"136";"module.training_block4.exec-1605.GoNoGo4";;;;;;;;;;;;;;;;;;;;;;;;;;;;;;;;;;;;;;;;;;;;;;;;;;;;;;;;;;;"1261";"2014-07-18 15:52:37.888";"NST_correctLoc";"26";"1";"FINISHED";"RIGHT";"success";"540";"0";"2014-07-18 15:52:36.625";"3";;;;;;;;;;;;;;;;;;;;;
"johnson43";"1991";;"Windows Vista";"Rachel's Experiment (D.T.)";"1.0";"2";"1";"1";"2";"1";"1";"2014-07-18 15:44:31.176";"2014-07-18 16:00:39.398";"1";"1";"0";"138";"137";"module.training_block4.exec-1605.GoNoGo4";;;;;;;;;;;;;;;;;;;;;;;;;;;;;;;;;;;;;;;;;;;;;;;;;;;;;;;;;;;"1261";"2014-07-18 15:52:40.431";"NST_correctLoc";"20";"1";"FINISHED";"RIGHT";"success";"573";"0";"2014-07-18 15:52:39.167";"3";;;;;;;;;;;;;;;;;;;;;
"johnson43";"1991";;"Windows Vista";"Rachel's Experiment (D.T.)";"1.0";"2";"1";"1";"2";"1";"1";"2014-07-18 15:44:31.176";"2014-07-18 16:00:39.398";"1";"1";"0";"139";"138";"module.training_block4.exec-1605.GoNoGo4";;;;;;;;;;;;;;;;;;;;;;;;;;;;;;;;;;;;;;;;;;;;;;;;;;;;;;;;;;;"1261";"2014-07-18 15:52:42.974";"ST_correctStop";"4";"1";"FINISHED";"NONE";"success";"0";"1";"2014-07-18 15:52:41.710";"1";;;;;;;;;;;;;;;;;;;;;
"johnson43";"1991";;"Windows Vista";"Rachel's Experiment (D.T.)";"1.0";"2";"1";"1";"2";"1";"1";"2014-07-18 15:44:31.176";"2014-07-18 16:00:39.398";"1";"1";"0";"140";"139";"module.training_block4.exec-1605.GoNoGo4";;;;;;;;;;;;;;;;;;;;;;;;;;;;;;;;;;;;;;;;;;;;;;;;;;;;;;;;;;;"1261";"2014-07-18 15:52:45.517";"NST_correctLoc";"34";"0";"FINISHED";"LEFT";"success";"479";"0";"2014-07-18 15:52:44.253";"3";;;;;;;;;;;;;;;;;;;;;
"johnson43";"1991";;"Windows Vista";"Rachel's Experiment (D.T.)";"1.0";"2";"1";"1";"2";"1";"1";"2014-07-18 15:44:31.176";"2014-07-18 16:00:39.398";"1";"1";"0";"141";"140";"module.training_block4.exec-1605.GoNoGo4";;;;;;;;;;;;;;;;;;;;;;;;;;;;;;;;;;;;;;;;;;;;;;;;;;;;;;;;;;;"1260";"2014-07-18 15:52:48.059";"ST_correctStop";"5";"0";"FINISHED";"NONE";"success";"0";"1";"2014-07-18 15:52:46.796";"1";;;;;;;;;;;;;;;;;;;;;
"johnson43";"1991";;"Windows Vista";"Rachel's Experiment (D.T.)";"1.0";"2";"1";"1";"2";"1";"1";"2014-07-18 15:44:31.176";"2014-07-18 16:00:39.398";"1";"1";"0";"142";"141";"module.training_block4.exec-1605.GoNoGo4";;;;;;;;;;;;;;;;;;;;;;;;;;;;;;;;;;;;;;;;;;;;;;;;;;;;;;;;;;;"1261";"2014-07-18 15:52:50.602";"ST_correctStop";"1";"1";"FINISHED";"NONE";"success";"0";"1";"2014-07-18 15:52:49.339";"1";;;;;;;;;;;;;;;;;;;;;
"johnson43";"1991";;"Windows Vista";"Rachel's Experiment (D.T.)";"1.0";"2";"1";"1";"2";"1";"1";"2014-07-18 15:44:31.176";"2014-07-18 16:00:39.398";"1";"1";"0";"143";"142";"module.training_block4.exec-1605.GoNoGo4";;;;;;;;;;;;;;;;;;;;;;;;;;;;;;;;;;;;;;;;;;;;;;;;;;;;;;;;;;;"1261";"2014-07-18 15:52:53.145";"ST_correctStop";"31";"0";"FINISHED";"NONE";"success";"0";"1";"2014-07-18 15:52:51.881";"3";;;;;;;;;;;;;;;;;;;;;
"johnson43";"1991";;"Windows Vista";"Rachel's Experiment (D.T.)";"1.0";"2";"1";"1";"2";"1";"1";"2014-07-18 15:44:31.176";"2014-07-18 16:00:39.398";"1";"1";"0";"144";"143";"module.training_block4.exec-1605.GoNoGo4";;;;;;;;;;;;;;;;;;;;;;;;;;;;;;;;;;;;;;;;;;;;;;;;;;;;;;;;;;;"1261";"2014-07-18 15:52:55.688";"ST_correctStop";"0";"1";"FINISHED";"NONE";"success";"0";"1";"2014-07-18 15:52:54.424";"1";;;;;;;;;;;;;;;;;;;;;
"johnson43";"1991";;"Windows Vista";"Rachel's Experiment (D.T.)";"1.0";"2";"1";"1";"2";"1";"1";"2014-07-18 15:44:31.176";"2014-07-18 16:00:39.398";"1";"1";"0";"145";"144";"module.training_block4.exec-1605.GoNoGo4";;;;;;;;;;;;;;;;;;;;;;;;;;;;;;;;;;;;;;;;;;;;;;;;;;;;;;;;;;;"1261";"2014-07-18 15:52:58.231";"ST_correctStop";"8";"0";"FINISHED";"NONE";"success";"0";"1";"2014-07-18 15:52:56.967";"1";;;;;;;;;;;;;;;;;;;;;
"johnson43";"1991";;"Windows Vista";"Rachel's Experiment (D.T.)";"1.0";"2";"1";"1";"2";"1";"1";"2014-07-18 15:44:31.176";"2014-07-18 16:00:39.398";"1";"1";"0";"146";"145";"module.training_block4.exec-1605.GoNoGo4";;;;;;;;;;;;;;;;;;;;;;;;;;;;;;;;;;;;;;;;;;;;;;;;;;;;;;;;;;;"1261";"2014-07-18 15:53:00.773";"ST_correctStop";"6";"1";"FINISHED";"NONE";"success";"0";"1";"2014-07-18 15:52:59.510";"1";;;;;;;;;;;;;;;;;;;;;
"johnson43";"1991";;"Windows Vista";"Rachel's Experiment (D.T.)";"1.0";"2";"1";"1";"2";"1";"1";"2014-07-18 15:44:31.176";"2014-07-18 16:00:39.398";"1";"1";"0";"147";"146";"module.training_block4.exec-1605.GoNoGo4";;;;;;;;;;;;;;;;;;;;;;;;;;;;;;;;;;;;;;;;;;;;;;;;;;;;;;;;;;;"1261";"2014-07-18 15:53:03.316";"NST_correctLoc";"17";"1";"FINISHED";"RIGHT";"success";"824";"0";"2014-07-18 15:53:02.053";"2";;;;;;;;;;;;;;;;;;;;;
"johnson43";"1991";;"Windows Vista";"Rachel's Experiment (D.T.)";"1.0";"2";"1";"1";"2";"1";"1";"2014-07-18 15:44:31.176";"2014-07-18 16:00:39.398";"1";"1";"0";"148";"147";"module.training_block4.exec-1605.GoNoGo4";;;;;;;;;;;;;;;;;;;;;;;;;;;;;;;;;;;;;;;;;;;;;;;;;;;;;;;;;;;"1262";"2014-07-18 15:53:05.859";"NST_correctLoc";"16";"1";"FINISHED";"RIGHT";"success";"521";"0";"2014-07-18 15:53:04.595";"2";;;;;;;;;;;;;;;;;;;;;
"johnson43";"1991";;"Windows Vista";"Rachel's Experiment (D.T.)";"1.0";"2";"1";"1";"2";"1";"1";"2014-07-18 15:44:31.176";"2014-07-18 16:00:39.398";"1";"1";"0";"149";"148";"module.training_block4.exec-1605.GoNoGo4";;;;;;;;;;;;;;;;;;;;;;;;;;;;;;;;;;;;;;;;;;;;;;;;;;;;;;;;;;;"1261";"2014-07-18 15:53:08.402";"NST_correctLoc";"12";"0";"FINISHED";"LEFT";"success";"474";"0";"2014-07-18 15:53:07.138";"2";;;;;;;;;;;;;;;;;;;;;
"johnson43";"1991";;"Windows Vista";"Rachel's Experiment (D.T.)";"1.0";"2";"1";"1";"2";"1";"1";"2014-07-18 15:44:31.176";"2014-07-18 16:00:39.398";"1";"1";"0";"150";"149";"module.training_block4.exec-1605.GoNoGo4";;;;;;;;;;;;;;;;;;;;;;;;;;;;;;;;;;;;;;;;;;;;;;;;;;;;;;;;;;;"1261";"2014-07-18 15:53:10.945";"NST_correctLoc";"11";"1";"FINISHED";"RIGHT";"success";"475";"0";"2014-07-18 15:53:09.681";"2";;;;;;;;;;;;;;;;;;;;;
"johnson43";"1991";;"Windows Vista";"Rachel's Experiment (D.T.)";"1.0";"2";"1";"1";"2";"1";"1";"2014-07-18 15:44:31.176";"2014-07-18 16:00:39.398";"1";"1";"0";"151";"150";"module.training_block4.exec-1605.GoNoGo4";;;;;;;;;;;;;;;;;;;;;;;;;;;;;;;;;;;;;;;;;;;;;;;;;;;;;;;;;;;"1261";"2014-07-18 15:53:13.487";"NST_correctLoc";"10";"0";"FINISHED";"LEFT";"success";"477";"0";"2014-07-18 15:53:12.224";"2";;;;;;;;;;;;;;;;;;;;;
"johnson43";"1991";;"Windows Vista";"Rachel's Experiment (D.T.)";"1.0";"2";"1";"1";"2";"1";"1";"2014-07-18 15:44:31.176";"2014-07-18 16:00:39.398";"1";"1";"0";"152";"151";"module.training_block4.exec-1605.GoNoGo4";;;;;;;;;;;;;;;;;;;;;;;;;;;;;;;;;;;;;;;;;;;;;;;;;;;;;;;;;;;"1261";"2014-07-18 15:53:16.030";"NST_correctLoc";"21";"0";"FINISHED";"LEFT";"success";"526";"0";"2014-07-18 15:53:14.767";"3";;;;;;;;;;;;;;;;;;;;;
"johnson43";"1991";;"Windows Vista";"Rachel's Experiment (D.T.)";"1.0";"2";"1";"1";"2";"1";"1";"2014-07-18 15:44:31.176";"2014-07-18 16:00:39.398";"1";"1";"0";"153";"152";"module.training_block4.exec-1605.GoNoGo4";;;;;;;;;;;;;;;;;;;;;;;;;;;;;;;;;;;;;;;;;;;;;;;;;;;;;;;;;;;"1260";"2014-07-18 15:53:18.573";"NST_correctLoc";"13";"0";"FINISHED";"LEFT";"success";"557";"0";"2014-07-18 15:53:17.309";"2";;;;;;;;;;;;;;;;;;;;;
"johnson43";"1991";;"Windows Vista";"Rachel's Experiment (D.T.)";"1.0";"2";"1";"1";"2";"1";"1";"2014-07-18 15:44:31.176";"2014-07-18 16:00:39.398";"1";"1";"0";"154";"153";"module.training_block4.exec-1605.GoNoGo4";;;;;;;;;;;;;;;;;;;;;;;;;;;;;;;;;;;;;;;;;;;;;;;;;;;;;;;;;;;"1261";"2014-07-18 15:53:21.116";"NST_correctLoc";"29";"1";"FINISHED";"RIGHT";"success";"624";"0";"2014-07-18 15:53:19.852";"3";;;;;;;;;;;;;;;;;;;;;
"johnson43";"1991";;"Windows Vista";"Rachel's Experiment (D.T.)";"1.0";"2";"1";"1";"2";"1";"1";"2014-07-18 15:44:31.176";"2014-07-18 16:00:39.398";"1";"1";"0";"155";"154";"module.training_block4.exec-1605.GoNoGo4";;;;;;;;;;;;;;;;;;;;;;;;;;;;;;;;;;;;;;;;;;;;;;;;;;;;;;;;;;;"1261";"2014-07-18 15:53:23.659";"ST_correctStop";"30";"0";"FINISHED";"NONE";"success";"0";"1";"2014-07-18 15:53:22.395";"3";;;;;;;;;;;;;;;;;;;;;
"johnson43";"1991";;"Windows Vista";"Rachel's Experiment (D.T.)";"1.0";"2";"1";"1";"2";"1";"1";"2014-07-18 15:44:31.176";"2014-07-18 16:00:39.398";"1";"1";"0";"156";"155";"module.training_block4.exec-1605.GoNoGo4";;;;;;;;;;;;;;;;;;;;;;;;;;;;;;;;;;;;;;;;;;;;;;;;;;;;;;;;;;;"1261";"2014-07-18 15:53:26.201";"ST_correctStop";"3";"1";"FINISHED";"NONE";"success";"0";"1";"2014-07-18 15:53:24.938";"1";;;;;;;;;;;;;;;;;;;;;
"johnson43";"1991";;"Windows Vista";"Rachel's Experiment (D.T.)";"1.0";"2";"1";"1";"2";"1";"1";"2014-07-18 15:44:31.176";"2014-07-18 16:00:39.398";"1";"1";"0";"157";"156";"module.training_block4.exec-1605.GoNoGo4";;;;;;;;;;;;;;;;;;;;;;;;;;;;;;;;;;;;;;;;;;;;;;;;;;;;;;;;;;;"1261";"2014-07-18 15:53:28.744";"ST_correctStop";"35";"1";"FINISHED";"NONE";"success";"0";"1";"2014-07-18 15:53:27.481";"3";;;;;;;;;;;;;;;;;;;;;
"johnson43";"1991";;"Windows Vista";"Rachel's Experiment (D.T.)";"1.0";"2";"1";"1";"2";"1";"1";"2014-07-18 15:44:31.176";"2014-07-18 16:00:39.398";"1";"1";"0";"158";"157";"module.training_block4.exec-1605.GoNoGo4";;;;;;;;;;;;;;;;;;;;;;;;;;;;;;;;;;;;;;;;;;;;;;;;;;;;;;;;;;;"1261";"2014-07-18 15:53:31.287";"ST_correctStop";"19";"1";"FINISHED";"NONE";"success";"0";"1";"2014-07-18 15:53:30.023";"3";;;;;;;;;;;;;;;;;;;;;
"johnson43";"1991";;"Windows Vista";"Rachel's Experiment (D.T.)";"1.0";"2";"1";"1";"2";"1";"1";"2014-07-18 15:44:31.176";"2014-07-18 16:00:39.398";"1";"1";"0";"159";"158";"module.training_block4.exec-1605.GoNoGo4";;;;;;;;;;;;;;;;;;;;;;;;;;;;;;;;;;;;;;;;;;;;;;;;;;;;;;;;;;;"1261";"2014-07-18 15:53:33.830";"ST_correctStop";"7";"0";"FINISHED";"NONE";"success";"0";"1";"2014-07-18 15:53:32.566";"1";;;;;;;;;;;;;;;;;;;;;
"johnson43";"1991";;"Windows Vista";"Rachel's Experiment (D.T.)";"1.0";"2";"1";"1";"2";"1";"1";"2014-07-18 15:44:31.176";"2014-07-18 16:00:39.398";"1";"1";"0";"160";"159";"module.devaluation_practice.exec-2919.devalPractice";;;;;;;;;;;;"23033";"2014-07-18 15:54:27.946";"0";"7";"6";"5";"6666";"8839";"4473";"2014-07-18 15:54:04.905";;;;;;;;;;;;;;;;;;;;;;;;;;;;;;;;;;;;;;;;;;;;;;;;;;;;;;;;;;;;;;;;;;;;;;
"johnson43";"1991";;"Windows Vista";"Rachel's Experiment (D.T.)";"1.0";"2";"1";"1";"2";"1";"1";"2014-07-18 15:44:31.176";"2014-07-18 16:00:39.398";"1";"1";"0";"161";"160";"module.devaluation_practice.exec-2919.devalPractice";;;;;;;;;;;;"16344";"2014-07-18 15:54:44.311";"1";"6";"6";"7";"8053";"2033";"3235";"2014-07-18 15:54:27.962";;;;;;;;;;;;;;;;;;;;;;;;;;;;;;;;;;;;;;;;;;;;;;;;;;;;;;;;;;;;;;;;;;;;;;
"johnson43";"1991";;"Windows Vista";"Rachel's Experiment (D.T.)";"1.0";"2";"1";"1";"2";"1";"1";"2014-07-18 15:44:31.176";"2014-07-18 16:00:39.398";"1";"1";"0";"162";"161";"module.devaluation_practice.exec-2919.devalPractice";;;;;;;;;;;;"13224";"2014-07-18 15:54:57.555";"2";"6";"5";"7";"3512";"2660";"4034";"2014-07-18 15:54:44.326";;;;;;;;;;;;;;;;;;;;;;;;;;;;;;;;;;;;;;;;;;;;;;;;;;;;;;;;;;;;;;;;;;;;;;
"johnson43";"1991";;"Windows Vista";"Rachel's Experiment (D.T.)";"1.0";"2";"1";"1";"2";"1";"1";"2014-07-18 15:44:31.176";"2014-07-18 16:00:39.398";"1";"1";"0";"163";"162";"module.devaluation_practice.exec-2919.devalPractice";;;;;;;;;;;;"11175";"2014-07-18 15:55:08.756";"3";"4";"4";"6";"1869";"3938";"2332";"2014-07-18 15:54:57.586";;;;;;;;;;;;;;;;;;;;;;;;;;;;;;;;;;;;;;;;;;;;;;;;;;;;;;;;;;;;;;;;;;;;;;
"johnson43";"1991";;"Windows Vista";"Rachel's Experiment (D.T.)";"1.0";"2";"1";"1";"2";"1";"1";"2014-07-18 15:44:31.176";"2014-07-18 16:00:39.398";"1";"1";"0";"164";"163";"module.devaluation_block1.exec-8726.deval1";"11473";"2014-07-18 15:55:30.221";"14";"6";"7";"7";"2681";"3165";"2588";"2014-07-18 15:55:18.740";"2";;;;;;;;;;;;;;;;;;;;;;;;;;;;;;;;;;;;;;;;;;;;;;;;;;;;;;;;;;;;;;;;;;;;;;;;;;;;;;;;
"johnson43";"1991";;"Windows Vista";"Rachel's Experiment (D.T.)";"1.0";"2";"1";"1";"2";"1";"1";"2014-07-18 15:44:31.176";"2014-07-18 16:00:39.398";"1";"1";"0";"165";"164";"module.devaluation_block1.exec-8726.deval1";"14008";"2014-07-18 15:55:44.246";"26";"8";"7";"7";"6514";"1699";"2736";"2014-07-18 15:55:30.237";"3";;;;;;;;;;;;;;;;;;;;;;;;;;;;;;;;;;;;;;;;;;;;;;;;;;;;;;;;;;;;;;;;;;;;;;;;;;;;;;;;
"johnson43";"1991";;"Windows Vista";"Rachel's Experiment (D.T.)";"1.0";"2";"1";"1";"2";"1";"1";"2014-07-18 15:44:31.176";"2014-07-18 16:00:39.398";"1";"1";"0";"166";"165";"module.devaluation_block1.exec-8726.deval1";"13961";"2014-07-18 15:55:58.223";"5";"4";"4";"7";"4851";"3693";"2371";"2014-07-18 15:55:44.277";"1";;;;;;;;;;;;;;;;;;;;;;;;;;;;;;;;;;;;;;;;;;;;;;;;;;;;;;;;;;;;;;;;;;;;;;;;;;;;;;;;
"johnson43";"1991";;"Windows Vista";"Rachel's Experiment (D.T.)";"1.0";"2";"1";"1";"2";"1";"1";"2014-07-18 15:44:31.176";"2014-07-18 16:00:39.398";"1";"1";"0";"167";"166";"module.devaluation_block1.exec-8726.deval1";"12615";"2014-07-18 15:56:10.875";"20";"6";"3";"5";"2272";"1872";"5447";"2014-07-18 15:55:58.255";"3";;;;;;;;;;;;;;;;;;;;;;;;;;;;;;;;;;;;;;;;;;;;;;;;;;;;;;;;;;;;;;;;;;;;;;;;;;;;;;;;
"johnson43";"1991";;"Windows Vista";"Rachel's Experiment (D.T.)";"1.0";"2";"1";"1";"2";"1";"1";"2014-07-18 15:44:31.176";"2014-07-18 16:00:39.398";"1";"1";"0";"168";"167";"module.devaluation_block1.exec-8726.deval1";"13149";"2014-07-18 15:56:24.057";"25";"7";"7";"8";"1989";"3200";"4932";"2014-07-18 15:56:10.906";"3";;;;;;;;;;;;;;;;;;;;;;;;;;;;;;;;;;;;;;;;;;;;;;;;;;;;;;;;;;;;;;;;;;;;;;;;;;;;;;;;
"johnson43";"1991";;"Windows Vista";"Rachel's Experiment (D.T.)";"1.0";"2";"1";"1";"2";"1";"1";"2014-07-18 15:44:31.176";"2014-07-18 16:00:39.398";"1";"1";"0";"169";"168";"module.devaluation_block1.exec-8726.deval1";"13414";"2014-07-18 15:56:37.489";"23";"8";"6";"7";"2918";"2647";"4830";"2014-07-18 15:56:24.073";"3";;;;;;;;;;;;;;;;;;;;;;;;;;;;;;;;;;;;;;;;;;;;;;;;;;;;;;;;;;;;;;;;;;;;;;;;;;;;;;;;
"johnson43";"1991";;"Windows Vista";"Rachel's Experiment (D.T.)";"1.0";"2";"1";"1";"2";"1";"1";"2014-07-18 15:44:31.176";"2014-07-18 16:00:39.398";"1";"1";"0";"170";"169";"module.devaluation_block1.exec-8726.deval1";"12248";"2014-07-18 15:56:49.766";"24";"4";"3";"4";"3389";"2844";"2979";"2014-07-18 15:56:37.520";"3";;;;;;;;;;;;;;;;;;;;;;;;;;;;;;;;;;;;;;;;;;;;;;;;;;;;;;;;;;;;;;;;;;;;;;;;;;;;;;;;
"johnson43";"1991";;"Windows Vista";"Rachel's Experiment (D.T.)";"1.0";"2";"1";"1";"2";"1";"1";"2014-07-18 15:44:31.176";"2014-07-18 16:00:39.398";"1";"1";"0";"171";"170";"module.devaluation_block1.exec-8726.deval1";"10632";"2014-07-18 15:57:00.421";"21";"6";"4";"7";"2154";"2471";"2974";"2014-07-18 15:56:49.797";"3";;;;;;;;;;;;;;;;;;;;;;;;;;;;;;;;;;;;;;;;;;;;;;;;;;;;;;;;;;;;;;;;;;;;;;;;;;;;;;;;
"johnson43";"1991";;"Windows Vista";"Rachel's Experiment (D.T.)";"1.0";"2";"1";"1";"2";"1";"1";"2014-07-18 15:44:31.176";"2014-07-18 16:00:39.398";"1";"1";"0";"172";"171";"module.devaluation_block1.exec-8726.deval1";"10150";"2014-07-18 15:57:10.592";"9";"6";"7";"7";"3259";"2008";"1852";"2014-07-18 15:57:00.452";"2";;;;;;;;;;;;;;;;;;;;;;;;;;;;;;;;;;;;;;;;;;;;;;;;;;;;;;;;;;;;;;;;;;;;;;;;;;;;;;;;
"johnson43";"1991";;"Windows Vista";"Rachel's Experiment (D.T.)";"1.0";"2";"1";"1";"2";"1";"1";"2014-07-18 15:44:31.176";"2014-07-18 16:00:39.398";"1";"1";"0";"173";"172";"module.devaluation_block1.exec-8726.deval1";"8167";"2014-07-18 15:57:18.797";"17";"4";"4";"6";"1280";"2260";"1598";"2014-07-18 15:57:10.623";"2";;;;;;;;;;;;;;;;;;;;;;;;;;;;;;;;;;;;;;;;;;;;;;;;;;;;;;;;;;;;;;;;;;;;;;;;;;;;;;;;
"johnson43";"1991";;"Windows Vista";"Rachel's Experiment (D.T.)";"1.0";"2";"1";"1";"2";"1";"1";"2014-07-18 15:44:31.176";"2014-07-18 16:00:39.398";"1";"1";"0";"174";"173";"module.devaluation_block1.exec-8726.deval1";"12968";"2014-07-18 15:57:31.777";"12";"7";"7";"8";"3058";"3786";"3085";"2014-07-18 15:57:18.813";"2";;;;;;;;;;;;;;;;;;;;;;;;;;;;;;;;;;;;;;;;;;;;;;;;;;;;;;;;;;;;;;;;;;;;;;;;;;;;;;;;
"johnson43";"1991";;"Windows Vista";"Rachel's Experiment (D.T.)";"1.0";"2";"1";"1";"2";"1";"1";"2014-07-18 15:44:31.176";"2014-07-18 16:00:39.398";"1";"1";"0";"175";"174";"module.devaluation_block1.exec-8726.deval1";"8630";"2014-07-18 15:57:40.435";"4";"7";"4";"7";"1279";"2504";"1821";"2014-07-18 15:57:31.808";"1";;;;;;;;;;;;;;;;;;;;;;;;;;;;;;;;;;;;;;;;;;;;;;;;;;;;;;;;;;;;;;;;;;;;;;;;;;;;;;;;
"johnson43";"1991";;"Windows Vista";"Rachel's Experiment (D.T.)";"1.0";"2";"1";"1";"2";"1";"1";"2014-07-18 15:44:31.176";"2014-07-18 16:00:39.398";"1";"1";"0";"176";"175";"module.devaluation_block1.exec-8726.deval1";"12670";"2014-07-18 15:57:53.149";"7";"4";"4";"7";"1485";"6176";"1984";"2014-07-18 15:57:40.466";"1";;;;;;;;;;;;;;;;;;;;;;;;;;;;;;;;;;;;;;;;;;;;;;;;;;;;;;;;;;;;;;;;;;;;;;;;;;;;;;;;
"johnson43";"1991";;"Windows Vista";"Rachel's Experiment (D.T.)";"1.0";"2";"1";"1";"2";"1";"1";"2014-07-18 15:44:31.176";"2014-07-18 16:00:39.398";"1";"1";"0";"177";"176";"module.devaluation_block1.exec-8726.deval1";"9207";"2014-07-18 15:58:02.368";"18";"4";"3";"4";"1298";"2117";"2769";"2014-07-18 15:57:53.164";"3";;;;;;;;;;;;;;;;;;;;;;;;;;;;;;;;;;;;;;;;;;;;;;;;;;;;;;;;;;;;;;;;;;;;;;;;;;;;;;;;
"johnson43";"1991";;"Windows Vista";"Rachel's Experiment (D.T.)";"1.0";"2";"1";"1";"2";"1";"1";"2014-07-18 15:44:31.176";"2014-07-18 16:00:39.398";"1";"1";"0";"178";"177";"module.devaluation_block1.exec-8726.deval1";"10358";"2014-07-18 15:58:12.758";"1";"7";"6";"7";"1983";"2032";"3311";"2014-07-18 15:58:02.399";"1";;;;;;;;;;;;;;;;;;;;;;;;;;;;;;;;;;;;;;;;;;;;;;;;;;;;;;;;;;;;;;;;;;;;;;;;;;;;;;;;
"johnson43";"1991";;"Windows Vista";"Rachel's Experiment (D.T.)";"1.0";"2";"1";"1";"2";"1";"1";"2014-07-18 15:44:31.176";"2014-07-18 16:00:39.398";"1";"1";"0";"179";"178";"module.devaluation_block1.exec-8726.deval1";"12759";"2014-07-18 15:58:25.550";"19";"8";"5";"8";"2634";"3320";"3770";"2014-07-18 15:58:12.789";"3";;;;;;;;;;;;;;;;;;;;;;;;;;;;;;;;;;;;;;;;;;;;;;;;;;;;;;;;;;;;;;;;;;;;;;;;;;;;;;;;
"johnson43";"1991";;"Windows Vista";"Rachel's Experiment (D.T.)";"1.0";"2";"1";"1";"2";"1";"1";"2014-07-18 15:44:31.176";"2014-07-18 16:00:39.398";"1";"1";"0";"180";"179";"module.devaluation_block1.exec-8726.deval1";"10407";"2014-07-18 15:58:35.971";"8";"6";"4";"4";"1441";"2349";"3587";"2014-07-18 15:58:25.565";"1";;;;;;;;;;;;;;;;;;;;;;;;;;;;;;;;;;;;;;;;;;;;;;;;;;;;;;;;;;;;;;;;;;;;;;;;;;;;;;;;
"johnson43";"1991";;"Windows Vista";"Rachel's Experiment (D.T.)";"1.0";"2";"1";"1";"2";"1";"1";"2014-07-18 15:44:31.176";"2014-07-18 16:00:39.398";"1";"1";"0";"181";"180";"module.devaluation_block1.exec-8726.deval1";"13344";"2014-07-18 15:58:49.355";"15";"7";"6";"7";"3981";"4134";"2208";"2014-07-18 15:58:36.002";"2";;;;;;;;;;;;;;;;;;;;;;;;;;;;;;;;;;;;;;;;;;;;;;;;;;;;;;;;;;;;;;;;;;;;;;;;;;;;;;;;
"johnson43";"1991";;"Windows Vista";"Rachel's Experiment (D.T.)";"1.0";"2";"1";"1";"2";"1";"1";"2014-07-18 15:44:31.176";"2014-07-18 16:00:39.398";"1";"1";"0";"182";"181";"module.devaluation_block1.exec-8726.deval1";"11223";"2014-07-18 15:59:00.603";"6";"5";"3";"5";"1972";"2902";"3331";"2014-07-18 15:58:49.371";"1";;;;;;;;;;;;;;;;;;;;;;;;;;;;;;;;;;;;;;;;;;;;;;;;;;;;;;;;;;;;;;;;;;;;;;;;;;;;;;;;
"johnson43";"1991";;"Windows Vista";"Rachel's Experiment (D.T.)";"1.0";"2";"1";"1";"2";"1";"1";"2014-07-18 15:44:31.176";"2014-07-18 16:00:39.398";"1";"1";"0";"183";"182";"module.devaluation_block1.exec-8726.deval1";"9784";"2014-07-18 15:59:10.400";"13";"7";"8";"8";"1844";"2336";"2577";"2014-07-18 15:59:00.619";"2";;;;;;;;;;;;;;;;;;;;;;;;;;;;;;;;;;;;;;;;;;;;;;;;;;;;;;;;;;;;;;;;;;;;;;;;;;;;;;;;
"johnson43";"1991";;"Windows Vista";"Rachel's Experiment (D.T.)";"1.0";"2";"1";"1";"2";"1";"1";"2014-07-18 15:44:31.176";"2014-07-18 16:00:39.398";"1";"1";"0";"184";"183";"module.devaluation_block1.exec-8726.deval1";"11558";"2014-07-18 15:59:21.991";"16";"6";"6";"6";"2670";"1923";"3937";"2014-07-18 15:59:10.431";"2";;;;;;;;;;;;;;;;;;;;;;;;;;;;;;;;;;;;;;;;;;;;;;;;;;;;;;;;;;;;;;;;;;;;;;;;;;;;;;;;
"johnson43";"1991";;"Windows Vista";"Rachel's Experiment (D.T.)";"1.0";"2";"1";"1";"2";"1";"1";"2014-07-18 15:44:31.176";"2014-07-18 16:00:39.398";"1";"1";"0";"185";"184";"module.devaluation_block1.exec-8726.deval1";"10488";"2014-07-18 15:59:32.505";"0";"6";"4";"6";"1720";"2732";"3010";"2014-07-18 15:59:22.006";"1";;;;;;;;;;;;;;;;;;;;;;;;;;;;;;;;;;;;;;;;;;;;;;;;;;;;;;;;;;;;;;;;;;;;;;;;;;;;;;;;
"johnson43";"1991";;"Windows Vista";"Rachel's Experiment (D.T.)";"1.0";"2";"1";"1";"2";"1";"1";"2014-07-18 15:44:31.176";"2014-07-18 16:00:39.398";"1";"1";"0";"186";"185";"module.devaluation_block1.exec-8726.deval1";"13224";"2014-07-18 15:59:45.749";"3";"5";"6";"7";"2740";"4124";"3322";"2014-07-18 15:59:32.521";"1";;;;;;;;;;;;;;;;;;;;;;;;;;;;;;;;;;;;;;;;;;;;;;;;;;;;;;;;;;;;;;;;;;;;;;;;;;;;;;;;
"johnson43";"1991";;"Windows Vista";"Rachel's Experiment (D.T.)";"1.0";"2";"1";"1";"2";"1";"1";"2014-07-18 15:44:31.176";"2014-07-18 16:00:39.398";"1";"1";"0";"187";"186";"module.devaluation_block1.exec-8726.deval1";"10277";"2014-07-18 15:59:56.061";"2";"7";"7";"8";"1210";"1495";"4550";"2014-07-18 15:59:45.781";"1";;;;;;;;;;;;;;;;;;;;;;;;;;;;;;;;;;;;;;;;;;;;;;;;;;;;;;;;;;;;;;;;;;;;;;;;;;;;;;;;
"johnson43";"1991";;"Windows Vista";"Rachel's Experiment (D.T.)";"1.0";"2";"1";"1";"2";"1";"1";"2014-07-18 15:44:31.176";"2014-07-18 16:00:39.398";"1";"1";"0";"188";"187";"module.devaluation_block1.exec-8726.deval1";"12243";"2014-07-18 16:00:08.323";"10";"7";"3";"6";"3938";"2848";"2436";"2014-07-18 15:59:56.077";"2";;;;;;;;;;;;;;;;;;;;;;;;;;;;;;;;;;;;;;;;;;;;;;;;;;;;;;;;;;;;;;;;;;;;;;;;;;;;;;;;
"johnson43";"1991";;"Windows Vista";"Rachel's Experiment (D.T.)";"1.0";"2";"1";"1";"2";"1";"1";"2014-07-18 15:44:31.176";"2014-07-18 16:00:39.398";"1";"1";"0";"189";"188";"module.devaluation_block1.exec-8726.deval1";"10360";"2014-07-18 16:00:18.712";"11";"6";"6";"5";"1917";"2780";"2619";"2014-07-18 16:00:08.354";"2";;;;;;;;;;;;;;;;;;;;;;;;;;;;;;;;;;;;;;;;;;;;;;;;;;;;;;;;;;;;;;;;;;;;;;;;;;;;;;;;
"johnson43";"1991";;"Windows Vista";"Rachel's Experiment (D.T.)";"1.0";"2";"1";"1";"2";"1";"1";"2014-07-18 15:44:31.176";"2014-07-18 16:00:39.398";"1";"1";"0";"190";"189";"module.devaluation_block1.exec-8726.deval1";"18469";"2014-07-18 16:00:37.214";"22";"6";"5";"6";"10503";"2774";"2162";"2014-07-18 16:00:18.743";"3";;;;;;;;;;;;;;;;;;;;;;;;;;;;;;;;;;;;;;;;;;;;;;;;;;;;;;;;;;;;;;;;;;;;;;;;;;;;;;;;
