"user.name";"user.yearOfBirth";"user.sex";"user.osName";"module.name";"module.version";"module.online.subject.code";"module.online.study.id";"module.online.module.nr";"module.online.group.nr";"session.id";"session.index";"session.startTime";"session.endTime";"session.completed";"session.node-5695.conditionType";"session.node-9752.DevalQorder";"trial.id";"trial.index";"trial.name";"trial.deval1.durationTime";"trial.deval1.endTime";"trial.deval1.icon";"trial.deval1.Resp_Attractive";"trial.deval1.Resp_Eat";"trial.deval1.Resp_Taste";"trial.deval1.RT_Attractive";"trial.deval1.RT_Eat";"trial.deval1.RT_Taste";"trial.deval1.startTime";"trial.deval1.stimulus type";"trial.devalPractice.durationTime";"trial.devalPractice.endTime";"trial.devalPractice.icon";"trial.devalPractice.Resp_Attractive";"trial.devalPractice.Resp_Eat";"trial.devalPractice.Resp_Taste";"trial.devalPractice.RT_Attractive";"trial.devalPractice.RT_Eat";"trial.devalPractice.RT_Taste";"trial.devalPractice.startTime";"trial.devalPractice.stimulus type";"trial.GoNoGo1.durationTime";"trial.GoNoGo1.endTime";"trial.GoNoGo1.Error Type";"trial.GoNoGo1.icon";"trial.GoNoGo1.location";"trial.GoNoGo1.outcome";"trial.GoNoGo1.response";"trial.GoNoGo1.result";"trial.GoNoGo1.RT";"trial.GoNoGo1.signal";"trial.GoNoGo1.startTime";"trial.GoNoGo1.stimulus type";"trial.GoNoGo2.durationTime";"trial.GoNoGo2.endTime";"trial.GoNoGo2.Error Type";"trial.GoNoGo2.icon";"trial.GoNoGo2.location";"trial.GoNoGo2.outcome";"trial.GoNoGo2.response";"trial.GoNoGo2.result";"trial.GoNoGo2.RT";"trial.GoNoGo2.signal";"trial.GoNoGo2.startTime";"trial.GoNoGo2.stimulus type";"trial.GoNoGo3.durationTime";"trial.GoNoGo3.endTime";"trial.GoNoGo3.Error Type";"trial.GoNoGo3.icon";"trial.GoNoGo3.location";"trial.GoNoGo3.outcome";"trial.GoNoGo3.response";"trial.GoNoGo3.result";"trial.GoNoGo3.RT";"trial.GoNoGo3.signal";"trial.GoNoGo3.startTime";"trial.GoNoGo3.stimulus type";"trial.GoNoGo4.durationTime";"trial.GoNoGo4.endTime";"trial.GoNoGo4.Error Type";"trial.GoNoGo4.icon";"trial.GoNoGo4.location";"trial.GoNoGo4.outcome";"trial.GoNoGo4.response";"trial.GoNoGo4.result";"trial.GoNoGo4.RT";"trial.GoNoGo4.signal";"trial.GoNoGo4.startTime";"trial.GoNoGo4.stimulus type";"trial.GoNoGo_Practice.durationTime";"trial.GoNoGo_Practice.endTime";"trial.GoNoGo_Practice.icon";"trial.GoNoGo_Practice.location";"trial.GoNoGo_Practice.outcome";"trial.GoNoGo_Practice.response";"trial.GoNoGo_Practice.result";"trial.GoNoGo_Practice.RT";"trial.GoNoGo_Practice.signal";"trial.GoNoGo_Practice.startTime";"trial.GoNoGo_Practice.stimulus type";"trial.GoNoGo_Tutorial.durationTime";"trial.GoNoGo_Tutorial.endTime";"trial.GoNoGo_Tutorial.icon";"trial.GoNoGo_Tutorial.location";"trial.GoNoGo_Tutorial.outcome";"trial.GoNoGo_Tutorial.response";"trial.GoNoGo_Tutorial.result";"trial.GoNoGo_Tutorial.RT";"trial.GoNoGo_Tutorial.signal";"trial.GoNoGo_Tutorial.startTime"
"pbeach1";"1946";;"Windows 7";"Rachel's Experiment (D.T.)";"1.0";"2";"1";"1";"2";"1";"1";"2014-08-02 11:22:21.796";"2014-08-02 11:39:48.403";"1";"0";"1";"1";"0";"module.GoNoGotutorial.exec-3175.GoNoGo_Tutorial";;;;;;;;;;;;;;;;;;;;;;;;;;;;;;;;;;;;;;;;;;;;;;;;;;;;;;;;;;;;;;;;;;;;;;;;;;;;;;;;;;"4005";"2014-08-02 11:24:01.964";"leftResponse";"0";"FINISHED";"NONE";"failure";"0";"0";"2014-08-02 11:23:57.955"
"pbeach1";"1946";;"Windows 7";"Rachel's Experiment (D.T.)";"1.0";"2";"1";"1";"2";"1";"1";"2014-08-02 11:22:21.796";"2014-08-02 11:39:48.403";"1";"0";"1";"2";"1";"module.GoNoGotutorial.exec-3175.GoNoGo_Tutorial";;;;;;;;;;;;;;;;;;;;;;;;;;;;;;;;;;;;;;;;;;;;;;;;;;;;;;;;;;;;;;;;;;;;;;;;;;;;;;;;;;"4008";"2014-08-02 11:24:07.377";"rightResponse";"1";"FINISHED";"NONE";"failure";"0";"0";"2014-08-02 11:24:03.368"
"pbeach1";"1946";;"Windows 7";"Rachel's Experiment (D.T.)";"1.0";"2";"1";"1";"2";"1";"1";"2014-08-02 11:22:21.796";"2014-08-02 11:39:48.403";"1";"0";"1";"3";"2";"module.GoNoGotutorial.exec-3175.GoNoGo_Tutorial";;;;;;;;;;;;;;;;;;;;;;;;;;;;;;;;;;;;;;;;;;;;;;;;;;;;;;;;;;;;;;;;;;;;;;;;;;;;;;;;;;"4004";"2014-08-02 11:24:12.728";"quickResponse";"0";"FINISHED";"NONE";"failure";"0";"0";"2014-08-02 11:24:08.719"
"pbeach1";"1946";;"Windows 7";"Rachel's Experiment (D.T.)";"1.0";"2";"1";"1";"2";"1";"1";"2014-08-02 11:22:21.796";"2014-08-02 11:39:48.403";"1";"0";"1";"4";"3";"module.GoNoGopractice.exec-8921.GoNoGo_Practice";;;;;;;;;;;;;;;;;;;;;;;;;;;;;;;;;;;;;;;;;;;;;;;;;;;;;;;;;;;;;;;;;;;;;;;"1972";"2014-08-02 11:24:21.776";"18";"0";"FINISHED";"LEFT";"success";"1056";"0";"2014-08-02 11:24:19.795";"3";;;;;;;;;;
"pbeach1";"1946";;"Windows 7";"Rachel's Experiment (D.T.)";"1.0";"2";"1";"1";"2";"1";"1";"2014-08-02 11:22:21.796";"2014-08-02 11:39:48.403";"1";"0";"1";"5";"4";"module.GoNoGopractice.exec-8921.GoNoGo_Practice";;;;;;;;;;;;;;;;;;;;;;;;;;;;;;;;;;;;;;;;;;;;;;;;;;;;;;;;;;;;;;;;;;;;;;;"1961";"2014-08-02 11:24:25.083";"21";"1";"FINISHED";"RIGHT";"success";"458";"0";"2014-08-02 11:24:23.117";"3";;;;;;;;;;
"pbeach1";"1946";;"Windows 7";"Rachel's Experiment (D.T.)";"1.0";"2";"1";"1";"2";"1";"1";"2014-08-02 11:22:21.796";"2014-08-02 11:39:48.403";"1";"0";"1";"6";"5";"module.GoNoGopractice.exec-8921.GoNoGo_Practice";;;;;;;;;;;;;;;;;;;;;;;;;;;;;;;;;;;;;;;;;;;;;;;;;;;;;;;;;;;;;;;;;;;;;;;"1959";"2014-08-02 11:24:28.390";"14";"1";"FINISHED";"RIGHT";"success";"452";"0";"2014-08-02 11:24:26.425";"2";;;;;;;;;;
"pbeach1";"1946";;"Windows 7";"Rachel's Experiment (D.T.)";"1.0";"2";"1";"1";"2";"1";"1";"2014-08-02 11:22:21.796";"2014-08-02 11:39:48.403";"1";"0";"1";"7";"6";"module.GoNoGopractice.exec-8921.GoNoGo_Practice";;;;;;;;;;;;;;;;;;;;;;;;;;;;;;;;;;;;;;;;;;;;;;;;;;;;;;;;;;;;;;;;;;;;;;;"1958";"2014-08-02 11:24:31.807";"26";"0";"FINISHED";"LEFT";"success";"490";"0";"2014-08-02 11:24:29.841";"3";;;;;;;;;;
"pbeach1";"1946";;"Windows 7";"Rachel's Experiment (D.T.)";"1.0";"2";"1";"1";"2";"1";"1";"2014-08-02 11:22:21.796";"2014-08-02 11:39:48.403";"1";"0";"1";"8";"7";"module.GoNoGopractice.exec-8921.GoNoGo_Practice";;;;;;;;;;;;;;;;;;;;;;;;;;;;;;;;;;;;;;;;;;;;;;;;;;;;;;;;;;;;;;;;;;;;;;;"1962";"2014-08-02 11:24:35.114";"2";"0";"FINISHED";"LEFT";"success";"570";"0";"2014-08-02 11:24:33.148";"1";;;;;;;;;;
"pbeach1";"1946";;"Windows 7";"Rachel's Experiment (D.T.)";"1.0";"2";"1";"1";"2";"1";"1";"2014-08-02 11:22:21.796";"2014-08-02 11:39:48.403";"1";"0";"1";"9";"8";"module.GoNoGopractice.exec-8921.GoNoGo_Practice";;;;;;;;;;;;;;;;;;;;;;;;;;;;;;;;;;;;;;;;;;;;;;;;;;;;;;;;;;;;;;;;;;;;;;;"1952";"2014-08-02 11:24:38.390";"30";"0";"FINISHED";"LEFT";"success";"587";"0";"2014-08-02 11:24:36.424";"3";;;;;;;;;;
"pbeach1";"1946";;"Windows 7";"Rachel's Experiment (D.T.)";"1.0";"2";"1";"1";"2";"1";"1";"2014-08-02 11:22:21.796";"2014-08-02 11:39:48.403";"1";"0";"1";"10";"9";"module.GoNoGopractice.exec-8921.GoNoGo_Practice";;;;;;;;;;;;;;;;;;;;;;;;;;;;;;;;;;;;;;;;;;;;;;;;;;;;;;;;;;;;;;;;;;;;;;;"1950";"2014-08-02 11:24:41.697";"6";"1";"FINISHED";"RIGHT";"success";"525";"0";"2014-08-02 11:24:39.731";"1";;;;;;;;;;
"pbeach1";"1946";;"Windows 7";"Rachel's Experiment (D.T.)";"1.0";"2";"1";"1";"2";"1";"1";"2014-08-02 11:22:21.796";"2014-08-02 11:39:48.403";"1";"0";"1";"11";"10";"module.GoNoGopractice.exec-8921.GoNoGo_Practice";;;;;;;;;;;;;;;;;;;;;;;;;;;;;;;;;;;;;;;;;;;;;;;;;;;;;;;;;;;;;;;;;;;;;;;"1954";"2014-08-02 11:24:44.958";"34";"0";"FINISHED";"LEFT";"success";"502";"0";"2014-08-02 11:24:42.992";"3";;;;;;;;;;
"pbeach1";"1946";;"Windows 7";"Rachel's Experiment (D.T.)";"1.0";"2";"1";"1";"2";"1";"1";"2014-08-02 11:22:21.796";"2014-08-02 11:39:48.403";"1";"0";"1";"12";"11";"module.GoNoGopractice.exec-8921.GoNoGo_Practice";;;;;;;;;;;;;;;;;;;;;;;;;;;;;;;;;;;;;;;;;;;;;;;;;;;;;;;;;;;;;;;;;;;;;;;"1952";"2014-08-02 11:24:48.234";"23";"1";"FINISHED";"RIGHT";"success";"552";"0";"2014-08-02 11:24:46.268";"3";;;;;;;;;;
"pbeach1";"1946";;"Windows 7";"Rachel's Experiment (D.T.)";"1.0";"2";"1";"1";"2";"1";"1";"2014-08-02 11:22:21.796";"2014-08-02 11:39:48.403";"1";"0";"1";"13";"12";"module.GoNoGopractice.exec-8921.GoNoGo_Practice";;;;;;;;;;;;;;;;;;;;;;;;;;;;;;;;;;;;;;;;;;;;;;;;;;;;;;;;;;;;;;;;;;;;;;;"1962";"2014-08-02 11:24:51.541";"13";"0";"FINISHED";"LEFT";"success";"516";"0";"2014-08-02 11:24:49.575";"2";;;;;;;;;;
"pbeach1";"1946";;"Windows 7";"Rachel's Experiment (D.T.)";"1.0";"2";"1";"1";"2";"1";"1";"2014-08-02 11:22:21.796";"2014-08-02 11:39:48.403";"1";"0";"1";"14";"13";"module.GoNoGopractice.exec-8921.GoNoGo_Practice";;;;;;;;;;;;;;;;;;;;;;;;;;;;;;;;;;;;;;;;;;;;;;;;;;;;;;;;;;;;;;;;;;;;;;;"1952";"2014-08-02 11:24:54.801";"3";"1";"FINISHED";"RIGHT";"success";"452";"0";"2014-08-02 11:24:52.836";"1";;;;;;;;;;
"pbeach1";"1946";;"Windows 7";"Rachel's Experiment (D.T.)";"1.0";"2";"1";"1";"2";"1";"1";"2014-08-02 11:22:21.796";"2014-08-02 11:39:48.403";"1";"0";"1";"15";"14";"module.GoNoGopractice.exec-8921.GoNoGo_Practice";;;;;;;;;;;;;;;;;;;;;;;;;;;;;;;;;;;;;;;;;;;;;;;;;;;;;;;;;;;;;;;;;;;;;;;"1952";"2014-08-02 11:24:58.062";"27";"1";"FINISHED";"RIGHT";"success";"577";"0";"2014-08-02 11:24:56.096";"3";;;;;;;;;;
"pbeach1";"1946";;"Windows 7";"Rachel's Experiment (D.T.)";"1.0";"2";"1";"1";"2";"1";"1";"2014-08-02 11:22:21.796";"2014-08-02 11:39:48.403";"1";"0";"1";"16";"15";"module.training_block1.exec-4262.GoNoGo1";;;;;;;;;;;;;;;;;;;;;;;"1263";"2014-08-02 11:25:11.618";"NST_correctLoc";"8";"1";"FINISHED";"RIGHT";"success";"700";"0";"2014-08-02 11:25:10.354";"1";;;;;;;;;;;;;;;;;;;;;;;;;;;;;;;;;;;;;;;;;;;;;;;;;;;;;;;;;
"pbeach1";"1946";;"Windows 7";"Rachel's Experiment (D.T.)";"1.0";"2";"1";"1";"2";"1";"1";"2014-08-02 11:22:21.796";"2014-08-02 11:39:48.403";"1";"0";"1";"17";"16";"module.training_block1.exec-4262.GoNoGo1";;;;;;;;;;;;;;;;;;;;;;;"1251";"2014-08-02 11:25:14.239";"NST_correctLoc";"19";"0";"FINISHED";"LEFT";"success";"451";"0";"2014-08-02 11:25:12.975";"3";;;;;;;;;;;;;;;;;;;;;;;;;;;;;;;;;;;;;;;;;;;;;;;;;;;;;;;;;
"pbeach1";"1946";;"Windows 7";"Rachel's Experiment (D.T.)";"1.0";"2";"1";"1";"2";"1";"1";"2014-08-02 11:22:21.796";"2014-08-02 11:39:48.403";"1";"0";"1";"18";"17";"module.training_block1.exec-4262.GoNoGo1";;;;;;;;;;;;;;;;;;;;;;;"1248";"2014-08-02 11:25:16.844";"NST_correctLoc";"16";"1";"FINISHED";"RIGHT";"success";"477";"0";"2014-08-02 11:25:15.580";"2";;;;;;;;;;;;;;;;;;;;;;;;;;;;;;;;;;;;;;;;;;;;;;;;;;;;;;;;;
"pbeach1";"1946";;"Windows 7";"Rachel's Experiment (D.T.)";"1.0";"2";"1";"1";"2";"1";"1";"2014-08-02 11:22:21.796";"2014-08-02 11:39:48.403";"1";"0";"1";"19";"18";"module.training_block1.exec-4262.GoNoGo1";;;;;;;;;;;;;;;;;;;;;;;"1258";"2014-08-02 11:25:19.418";"NST_correctLoc";"27";"1";"FINISHED";"RIGHT";"success";"450";"0";"2014-08-02 11:25:18.154";"3";;;;;;;;;;;;;;;;;;;;;;;;;;;;;;;;;;;;;;;;;;;;;;;;;;;;;;;;;
"pbeach1";"1946";;"Windows 7";"Rachel's Experiment (D.T.)";"1.0";"2";"1";"1";"2";"1";"1";"2014-08-02 11:22:21.796";"2014-08-02 11:39:48.403";"1";"0";"1";"20";"19";"module.training_block1.exec-4262.GoNoGo1";;;;;;;;;;;;;;;;;;;;;;;"1258";"2014-08-02 11:25:22.054";"NST_correctLoc";"15";"1";"FINISHED";"RIGHT";"success";"451";"0";"2014-08-02 11:25:20.791";"2";;;;;;;;;;;;;;;;;;;;;;;;;;;;;;;;;;;;;;;;;;;;;;;;;;;;;;;;;
"pbeach1";"1946";;"Windows 7";"Rachel's Experiment (D.T.)";"1.0";"2";"1";"1";"2";"1";"1";"2014-08-02 11:22:21.796";"2014-08-02 11:39:48.403";"1";"0";"1";"21";"20";"module.training_block1.exec-4262.GoNoGo1";;;;;;;;;;;;;;;;;;;;;;;"1251";"2014-08-02 11:25:24.660";"NST_correctLoc";"0";"0";"FINISHED";"LEFT";"success";"567";"0";"2014-08-02 11:25:23.396";"1";;;;;;;;;;;;;;;;;;;;;;;;;;;;;;;;;;;;;;;;;;;;;;;;;;;;;;;;;
"pbeach1";"1946";;"Windows 7";"Rachel's Experiment (D.T.)";"1.0";"2";"1";"1";"2";"1";"1";"2014-08-02 11:22:21.796";"2014-08-02 11:39:48.403";"1";"0";"1";"22";"21";"module.training_block1.exec-4262.GoNoGo1";;;;;;;;;;;;;;;;;;;;;;;"1251";"2014-08-02 11:25:27.218";"NST_correctLoc";"33";"1";"FINISHED";"RIGHT";"success";"460";"0";"2014-08-02 11:25:25.954";"3";;;;;;;;;;;;;;;;;;;;;;;;;;;;;;;;;;;;;;;;;;;;;;;;;;;;;;;;;
"pbeach1";"1946";;"Windows 7";"Rachel's Experiment (D.T.)";"1.0";"2";"1";"1";"2";"1";"1";"2014-08-02 11:22:21.796";"2014-08-02 11:39:48.403";"1";"0";"1";"23";"22";"module.training_block1.exec-4262.GoNoGo1";;;;;;;;;;;;;;;;;;;;;;;"1250";"2014-08-02 11:25:29.792";"NST_correctLoc";"21";"1";"FINISHED";"RIGHT";"success";"451";"0";"2014-08-02 11:25:28.528";"3";;;;;;;;;;;;;;;;;;;;;;;;;;;;;;;;;;;;;;;;;;;;;;;;;;;;;;;;;
"pbeach1";"1946";;"Windows 7";"Rachel's Experiment (D.T.)";"1.0";"2";"1";"1";"2";"1";"1";"2014-08-02 11:22:21.796";"2014-08-02 11:39:48.403";"1";"0";"1";"24";"23";"module.training_block1.exec-4262.GoNoGo1";;;;;;;;;;;;;;;;;;;;;;;"1262";"2014-08-02 11:25:32.382";"NST_correctLoc";"11";"1";"FINISHED";"RIGHT";"success";"407";"0";"2014-08-02 11:25:31.118";"2";;;;;;;;;;;;;;;;;;;;;;;;;;;;;;;;;;;;;;;;;;;;;;;;;;;;;;;;;
"pbeach1";"1946";;"Windows 7";"Rachel's Experiment (D.T.)";"1.0";"2";"1";"1";"2";"1";"1";"2014-08-02 11:22:21.796";"2014-08-02 11:39:48.403";"1";"0";"1";"25";"24";"module.training_block1.exec-4262.GoNoGo1";;;;;;;;;;;;;;;;;;;;;;;"1259";"2014-08-02 11:25:34.956";"NST_correctLoc";"13";"1";"FINISHED";"RIGHT";"success";"474";"0";"2014-08-02 11:25:33.692";"2";;;;;;;;;;;;;;;;;;;;;;;;;;;;;;;;;;;;;;;;;;;;;;;;;;;;;;;;;
"pbeach1";"1946";;"Windows 7";"Rachel's Experiment (D.T.)";"1.0";"2";"1";"1";"2";"1";"1";"2014-08-02 11:22:21.796";"2014-08-02 11:39:48.403";"1";"0";"1";"26";"25";"module.training_block1.exec-4262.GoNoGo1";;;;;;;;;;;;;;;;;;;;;;;"1250";"2014-08-02 11:25:37.530";"NST_correctLoc";"22";"1";"FINISHED";"RIGHT";"success";"575";"0";"2014-08-02 11:25:36.266";"3";;;;;;;;;;;;;;;;;;;;;;;;;;;;;;;;;;;;;;;;;;;;;;;;;;;;;;;;;
"pbeach1";"1946";;"Windows 7";"Rachel's Experiment (D.T.)";"1.0";"2";"1";"1";"2";"1";"1";"2014-08-02 11:22:21.796";"2014-08-02 11:39:48.403";"1";"0";"1";"27";"26";"module.training_block1.exec-4262.GoNoGo1";;;;;;;;;;;;;;;;;;;;;;;"1259";"2014-08-02 11:25:40.088";"NST_correctLoc";"23";"1";"FINISHED";"RIGHT";"success";"424";"0";"2014-08-02 11:25:38.824";"3";;;;;;;;;;;;;;;;;;;;;;;;;;;;;;;;;;;;;;;;;;;;;;;;;;;;;;;;;
"pbeach1";"1946";;"Windows 7";"Rachel's Experiment (D.T.)";"1.0";"2";"1";"1";"2";"1";"1";"2014-08-02 11:22:21.796";"2014-08-02 11:39:48.403";"1";"0";"1";"28";"27";"module.training_block1.exec-4262.GoNoGo1";;;;;;;;;;;;;;;;;;;;;;;"1259";"2014-08-02 11:25:42.662";"NST_correctLoc";"3";"0";"FINISHED";"LEFT";"success";"467";"0";"2014-08-02 11:25:41.398";"1";;;;;;;;;;;;;;;;;;;;;;;;;;;;;;;;;;;;;;;;;;;;;;;;;;;;;;;;;
"pbeach1";"1946";;"Windows 7";"Rachel's Experiment (D.T.)";"1.0";"2";"1";"1";"2";"1";"1";"2014-08-02 11:22:21.796";"2014-08-02 11:39:48.403";"1";"0";"1";"29";"28";"module.training_block1.exec-4262.GoNoGo1";;;;;;;;;;;;;;;;;;;;;;;"1249";"2014-08-02 11:25:45.252";"NST_correctLoc";"12";"1";"FINISHED";"RIGHT";"success";"464";"0";"2014-08-02 11:25:43.988";"2";;;;;;;;;;;;;;;;;;;;;;;;;;;;;;;;;;;;;;;;;;;;;;;;;;;;;;;;;
"pbeach1";"1946";;"Windows 7";"Rachel's Experiment (D.T.)";"1.0";"2";"1";"1";"2";"1";"1";"2014-08-02 11:22:21.796";"2014-08-02 11:39:48.403";"1";"0";"1";"30";"29";"module.training_block1.exec-4262.GoNoGo1";;;;;;;;;;;;;;;;;;;;;;;"1262";"2014-08-02 11:25:47.857";"NST_correctLoc";"5";"1";"FINISHED";"RIGHT";"success";"473";"0";"2014-08-02 11:25:46.593";"1";;;;;;;;;;;;;;;;;;;;;;;;;;;;;;;;;;;;;;;;;;;;;;;;;;;;;;;;;
"pbeach1";"1946";;"Windows 7";"Rachel's Experiment (D.T.)";"1.0";"2";"1";"1";"2";"1";"1";"2014-08-02 11:22:21.796";"2014-08-02 11:39:48.403";"1";"0";"1";"31";"30";"module.training_block1.exec-4262.GoNoGo1";;;;;;;;;;;;;;;;;;;;;;;"1251";"2014-08-02 11:25:50.415";"NST_correctLoc";"18";"1";"FINISHED";"RIGHT";"success";"458";"0";"2014-08-02 11:25:49.152";"3";;;;;;;;;;;;;;;;;;;;;;;;;;;;;;;;;;;;;;;;;;;;;;;;;;;;;;;;;
"pbeach1";"1946";;"Windows 7";"Rachel's Experiment (D.T.)";"1.0";"2";"1";"1";"2";"1";"1";"2014-08-02 11:22:21.796";"2014-08-02 11:39:48.403";"1";"0";"1";"32";"31";"module.training_block1.exec-4262.GoNoGo1";;;;;;;;;;;;;;;;;;;;;;;"1248";"2014-08-02 11:25:52.974";"NST_correctLoc";"28";"0";"FINISHED";"LEFT";"success";"551";"0";"2014-08-02 11:25:51.710";"3";;;;;;;;;;;;;;;;;;;;;;;;;;;;;;;;;;;;;;;;;;;;;;;;;;;;;;;;;
"pbeach1";"1946";;"Windows 7";"Rachel's Experiment (D.T.)";"1.0";"2";"1";"1";"2";"1";"1";"2014-08-02 11:22:21.796";"2014-08-02 11:39:48.403";"1";"0";"1";"33";"32";"module.training_block1.exec-4262.GoNoGo1";;;;;;;;;;;;;;;;;;;;;;;"1248";"2014-08-02 11:25:55.532";"NST_correctLoc";"31";"0";"FINISHED";"LEFT";"success";"484";"0";"2014-08-02 11:25:54.268";"3";;;;;;;;;;;;;;;;;;;;;;;;;;;;;;;;;;;;;;;;;;;;;;;;;;;;;;;;;
"pbeach1";"1946";;"Windows 7";"Rachel's Experiment (D.T.)";"1.0";"2";"1";"1";"2";"1";"1";"2014-08-02 11:22:21.796";"2014-08-02 11:39:48.403";"1";"0";"1";"34";"33";"module.training_block1.exec-4262.GoNoGo1";;;;;;;;;;;;;;;;;;;;;;;"1251";"2014-08-02 11:25:58.122";"NST_correctLoc";"20";"1";"FINISHED";"RIGHT";"success";"417";"0";"2014-08-02 11:25:56.858";"3";;;;;;;;;;;;;;;;;;;;;;;;;;;;;;;;;;;;;;;;;;;;;;;;;;;;;;;;;
"pbeach1";"1946";;"Windows 7";"Rachel's Experiment (D.T.)";"1.0";"2";"1";"1";"2";"1";"1";"2014-08-02 11:22:21.796";"2014-08-02 11:39:48.403";"1";"0";"1";"35";"34";"module.training_block1.exec-4262.GoNoGo1";;;;;;;;;;;;;;;;;;;;;;;"1250";"2014-08-02 11:26:00.680";"NST_correctLoc";"9";"0";"FINISHED";"LEFT";"success";"436";"0";"2014-08-02 11:25:59.416";"2";;;;;;;;;;;;;;;;;;;;;;;;;;;;;;;;;;;;;;;;;;;;;;;;;;;;;;;;;
"pbeach1";"1946";;"Windows 7";"Rachel's Experiment (D.T.)";"1.0";"2";"1";"1";"2";"1";"1";"2014-08-02 11:22:21.796";"2014-08-02 11:39:48.403";"1";"0";"1";"36";"35";"module.training_block1.exec-4262.GoNoGo1";;;;;;;;;;;;;;;;;;;;;;;"1258";"2014-08-02 11:26:03.238";"NST_correctLoc";"26";"0";"FINISHED";"LEFT";"success";"578";"0";"2014-08-02 11:26:01.975";"3";;;;;;;;;;;;;;;;;;;;;;;;;;;;;;;;;;;;;;;;;;;;;;;;;;;;;;;;;
"pbeach1";"1946";;"Windows 7";"Rachel's Experiment (D.T.)";"1.0";"2";"1";"1";"2";"1";"1";"2014-08-02 11:22:21.796";"2014-08-02 11:39:48.403";"1";"0";"1";"37";"36";"module.training_block1.exec-4262.GoNoGo1";;;;;;;;;;;;;;;;;;;;;;;"1250";"2014-08-02 11:26:05.797";"NST_correctLoc";"25";"1";"FINISHED";"RIGHT";"success";"530";"0";"2014-08-02 11:26:04.533";"3";;;;;;;;;;;;;;;;;;;;;;;;;;;;;;;;;;;;;;;;;;;;;;;;;;;;;;;;;
"pbeach1";"1946";;"Windows 7";"Rachel's Experiment (D.T.)";"1.0";"2";"1";"1";"2";"1";"1";"2014-08-02 11:22:21.796";"2014-08-02 11:39:48.403";"1";"0";"1";"38";"37";"module.training_block1.exec-4262.GoNoGo1";;;;;;;;;;;;;;;;;;;;;;;"1259";"2014-08-02 11:26:08.355";"NST_correctLoc";"6";"1";"FINISHED";"RIGHT";"success";"504";"0";"2014-08-02 11:26:07.092";"1";;;;;;;;;;;;;;;;;;;;;;;;;;;;;;;;;;;;;;;;;;;;;;;;;;;;;;;;;
"pbeach1";"1946";;"Windows 7";"Rachel's Experiment (D.T.)";"1.0";"2";"1";"1";"2";"1";"1";"2014-08-02 11:22:21.796";"2014-08-02 11:39:48.403";"1";"0";"1";"39";"38";"module.training_block1.exec-4262.GoNoGo1";;;;;;;;;;;;;;;;;;;;;;;"1250";"2014-08-02 11:26:10.914";"NST_correctLoc";"35";"0";"FINISHED";"LEFT";"success";"444";"0";"2014-08-02 11:26:09.650";"3";;;;;;;;;;;;;;;;;;;;;;;;;;;;;;;;;;;;;;;;;;;;;;;;;;;;;;;;;
"pbeach1";"1946";;"Windows 7";"Rachel's Experiment (D.T.)";"1.0";"2";"1";"1";"2";"1";"1";"2014-08-02 11:22:21.796";"2014-08-02 11:39:48.403";"1";"0";"1";"40";"39";"module.training_block1.exec-4262.GoNoGo1";;;;;;;;;;;;;;;;;;;;;;;"1250";"2014-08-02 11:26:13.472";"NST_correctLoc";"14";"1";"FINISHED";"RIGHT";"success";"491";"0";"2014-08-02 11:26:12.208";"2";;;;;;;;;;;;;;;;;;;;;;;;;;;;;;;;;;;;;;;;;;;;;;;;;;;;;;;;;
"pbeach1";"1946";;"Windows 7";"Rachel's Experiment (D.T.)";"1.0";"2";"1";"1";"2";"1";"1";"2014-08-02 11:22:21.796";"2014-08-02 11:39:48.403";"1";"0";"1";"41";"40";"module.training_block1.exec-4262.GoNoGo1";;;;;;;;;;;;;;;;;;;;;;;"1263";"2014-08-02 11:26:16.077";"NST_correctLoc";"17";"1";"FINISHED";"RIGHT";"success";"520";"0";"2014-08-02 11:26:14.814";"2";;;;;;;;;;;;;;;;;;;;;;;;;;;;;;;;;;;;;;;;;;;;;;;;;;;;;;;;;
"pbeach1";"1946";;"Windows 7";"Rachel's Experiment (D.T.)";"1.0";"2";"1";"1";"2";"1";"1";"2014-08-02 11:22:21.796";"2014-08-02 11:39:48.403";"1";"0";"1";"42";"41";"module.training_block1.exec-4262.GoNoGo1";;;;;;;;;;;;;;;;;;;;;;;"1249";"2014-08-02 11:26:18.636";"NST_correctLoc";"7";"0";"FINISHED";"LEFT";"success";"441";"0";"2014-08-02 11:26:17.372";"1";;;;;;;;;;;;;;;;;;;;;;;;;;;;;;;;;;;;;;;;;;;;;;;;;;;;;;;;;
"pbeach1";"1946";;"Windows 7";"Rachel's Experiment (D.T.)";"1.0";"2";"1";"1";"2";"1";"1";"2014-08-02 11:22:21.796";"2014-08-02 11:39:48.403";"1";"0";"1";"43";"42";"module.training_block1.exec-4262.GoNoGo1";;;;;;;;;;;;;;;;;;;;;;;"1258";"2014-08-02 11:26:21.194";"NST_correctLoc";"34";"1";"FINISHED";"RIGHT";"success";"512";"0";"2014-08-02 11:26:19.930";"3";;;;;;;;;;;;;;;;;;;;;;;;;;;;;;;;;;;;;;;;;;;;;;;;;;;;;;;;;
"pbeach1";"1946";;"Windows 7";"Rachel's Experiment (D.T.)";"1.0";"2";"1";"1";"2";"1";"1";"2014-08-02 11:22:21.796";"2014-08-02 11:39:48.403";"1";"0";"1";"44";"43";"module.training_block1.exec-4262.GoNoGo1";;;;;;;;;;;;;;;;;;;;;;;"1262";"2014-08-02 11:26:23.768";"NST_correctLoc";"24";"1";"FINISHED";"RIGHT";"success";"500";"0";"2014-08-02 11:26:22.504";"3";;;;;;;;;;;;;;;;;;;;;;;;;;;;;;;;;;;;;;;;;;;;;;;;;;;;;;;;;
"pbeach1";"1946";;"Windows 7";"Rachel's Experiment (D.T.)";"1.0";"2";"1";"1";"2";"1";"1";"2014-08-02 11:22:21.796";"2014-08-02 11:39:48.403";"1";"0";"1";"45";"44";"module.training_block1.exec-4262.GoNoGo1";;;;;;;;;;;;;;;;;;;;;;;"1259";"2014-08-02 11:26:26.326";"NST_correctLoc";"30";"0";"FINISHED";"LEFT";"success";"569";"0";"2014-08-02 11:26:25.063";"3";;;;;;;;;;;;;;;;;;;;;;;;;;;;;;;;;;;;;;;;;;;;;;;;;;;;;;;;;
"pbeach1";"1946";;"Windows 7";"Rachel's Experiment (D.T.)";"1.0";"2";"1";"1";"2";"1";"1";"2014-08-02 11:22:21.796";"2014-08-02 11:39:48.403";"1";"0";"1";"46";"45";"module.training_block1.exec-4262.GoNoGo1";;;;;;;;;;;;;;;;;;;;;;;"1262";"2014-08-02 11:26:28.900";"NST_correctLoc";"32";"1";"FINISHED";"RIGHT";"success";"446";"0";"2014-08-02 11:26:27.637";"3";;;;;;;;;;;;;;;;;;;;;;;;;;;;;;;;;;;;;;;;;;;;;;;;;;;;;;;;;
"pbeach1";"1946";;"Windows 7";"Rachel's Experiment (D.T.)";"1.0";"2";"1";"1";"2";"1";"1";"2014-08-02 11:22:21.796";"2014-08-02 11:39:48.403";"1";"0";"1";"47";"46";"module.training_block1.exec-4262.GoNoGo1";;;;;;;;;;;;;;;;;;;;;;;"1257";"2014-08-02 11:26:31.506";"NST_correctLoc";"10";"1";"FINISHED";"RIGHT";"success";"549";"0";"2014-08-02 11:26:30.242";"2";;;;;;;;;;;;;;;;;;;;;;;;;;;;;;;;;;;;;;;;;;;;;;;;;;;;;;;;;
"pbeach1";"1946";;"Windows 7";"Rachel's Experiment (D.T.)";"1.0";"2";"1";"1";"2";"1";"1";"2014-08-02 11:22:21.796";"2014-08-02 11:39:48.403";"1";"0";"1";"48";"47";"module.training_block1.exec-4262.GoNoGo1";;;;;;;;;;;;;;;;;;;;;;;"1251";"2014-08-02 11:26:34.064";"NST_correctLoc";"29";"1";"FINISHED";"RIGHT";"success";"575";"0";"2014-08-02 11:26:32.800";"3";;;;;;;;;;;;;;;;;;;;;;;;;;;;;;;;;;;;;;;;;;;;;;;;;;;;;;;;;
"pbeach1";"1946";;"Windows 7";"Rachel's Experiment (D.T.)";"1.0";"2";"1";"1";"2";"1";"1";"2014-08-02 11:22:21.796";"2014-08-02 11:39:48.403";"1";"0";"1";"49";"48";"module.training_block1.exec-4262.GoNoGo1";;;;;;;;;;;;;;;;;;;;;;;"1250";"2014-08-02 11:26:36.654";"NST_correctLoc";"1";"1";"FINISHED";"RIGHT";"success";"566";"0";"2014-08-02 11:26:35.390";"1";;;;;;;;;;;;;;;;;;;;;;;;;;;;;;;;;;;;;;;;;;;;;;;;;;;;;;;;;
"pbeach1";"1946";;"Windows 7";"Rachel's Experiment (D.T.)";"1.0";"2";"1";"1";"2";"1";"1";"2014-08-02 11:22:21.796";"2014-08-02 11:39:48.403";"1";"0";"1";"50";"49";"module.training_block1.exec-4262.GoNoGo1";;;;;;;;;;;;;;;;;;;;;;;"1260";"2014-08-02 11:26:39.259";"NST_correctLoc";"4";"0";"FINISHED";"LEFT";"success";"451";"0";"2014-08-02 11:26:37.995";"1";;;;;;;;;;;;;;;;;;;;;;;;;;;;;;;;;;;;;;;;;;;;;;;;;;;;;;;;;
"pbeach1";"1946";;"Windows 7";"Rachel's Experiment (D.T.)";"1.0";"2";"1";"1";"2";"1";"1";"2014-08-02 11:22:21.796";"2014-08-02 11:39:48.403";"1";"0";"1";"51";"50";"module.training_block1.exec-4262.GoNoGo1";;;;;;;;;;;;;;;;;;;;;;;"1259";"2014-08-02 11:26:41.817";"NST_correctLoc";"2";"1";"FINISHED";"RIGHT";"success";"443";"0";"2014-08-02 11:26:40.554";"1";;;;;;;;;;;;;;;;;;;;;;;;;;;;;;;;;;;;;;;;;;;;;;;;;;;;;;;;;
"pbeach1";"1946";;"Windows 7";"Rachel's Experiment (D.T.)";"1.0";"2";"1";"1";"2";"1";"1";"2014-08-02 11:22:21.796";"2014-08-02 11:39:48.403";"1";"0";"1";"52";"51";"module.training_block2.exec-2122.GoNoGo2";;;;;;;;;;;;;;;;;;;;;;;;;;;;;;;;;;;"1258";"2014-08-02 11:26:56.840";"NST_correctLoc";"32";"1";"FINISHED";"RIGHT";"success";"694";"0";"2014-08-02 11:26:55.577";"3";;;;;;;;;;;;;;;;;;;;;;;;;;;;;;;;;;;;;;;;;;;;;
"pbeach1";"1946";;"Windows 7";"Rachel's Experiment (D.T.)";"1.0";"2";"1";"1";"2";"1";"1";"2014-08-02 11:22:21.796";"2014-08-02 11:39:48.403";"1";"0";"1";"53";"52";"module.training_block2.exec-2122.GoNoGo2";;;;;;;;;;;;;;;;;;;;;;;;;;;;;;;;;;;"1259";"2014-08-02 11:26:59.399";"NST_correctLoc";"8";"0";"FINISHED";"LEFT";"success";"490";"0";"2014-08-02 11:26:58.135";"1";;;;;;;;;;;;;;;;;;;;;;;;;;;;;;;;;;;;;;;;;;;;;
"pbeach1";"1946";;"Windows 7";"Rachel's Experiment (D.T.)";"1.0";"2";"1";"1";"2";"1";"1";"2014-08-02 11:22:21.796";"2014-08-02 11:39:48.403";"1";"0";"1";"54";"53";"module.training_block2.exec-2122.GoNoGo2";;;;;;;;;;;;;;;;;;;;;;;;;;;;;;;;;;;"1259";"2014-08-02 11:27:01.957";"NST_correctLoc";"4";"0";"FINISHED";"LEFT";"success";"503";"0";"2014-08-02 11:27:00.693";"1";;;;;;;;;;;;;;;;;;;;;;;;;;;;;;;;;;;;;;;;;;;;;
"pbeach1";"1946";;"Windows 7";"Rachel's Experiment (D.T.)";"1.0";"2";"1";"1";"2";"1";"1";"2014-08-02 11:22:21.796";"2014-08-02 11:39:48.403";"1";"0";"1";"55";"54";"module.training_block2.exec-2122.GoNoGo2";;;;;;;;;;;;;;;;;;;;;;;;;;;;;;;;;;;"1259";"2014-08-02 11:27:04.515";"NST_correctLoc";"9";"1";"FINISHED";"RIGHT";"success";"459";"0";"2014-08-02 11:27:03.252";"2";;;;;;;;;;;;;;;;;;;;;;;;;;;;;;;;;;;;;;;;;;;;;
"pbeach1";"1946";;"Windows 7";"Rachel's Experiment (D.T.)";"1.0";"2";"1";"1";"2";"1";"1";"2014-08-02 11:22:21.796";"2014-08-02 11:39:48.403";"1";"0";"1";"56";"55";"module.training_block2.exec-2122.GoNoGo2";;;;;;;;;;;;;;;;;;;;;;;;;;;;;;;;;;;"1259";"2014-08-02 11:27:07.074";"NST_correctLoc";"14";"0";"FINISHED";"LEFT";"success";"572";"0";"2014-08-02 11:27:05.810";"2";;;;;;;;;;;;;;;;;;;;;;;;;;;;;;;;;;;;;;;;;;;;;
"pbeach1";"1946";;"Windows 7";"Rachel's Experiment (D.T.)";"1.0";"2";"1";"1";"2";"1";"1";"2014-08-02 11:22:21.796";"2014-08-02 11:39:48.403";"1";"0";"1";"57";"56";"module.training_block2.exec-2122.GoNoGo2";;;;;;;;;;;;;;;;;;;;;;;;;;;;;;;;;;;"1259";"2014-08-02 11:27:09.632";"NST_correctLoc";"29";"1";"FINISHED";"RIGHT";"success";"483";"0";"2014-08-02 11:27:08.369";"3";;;;;;;;;;;;;;;;;;;;;;;;;;;;;;;;;;;;;;;;;;;;;
"pbeach1";"1946";;"Windows 7";"Rachel's Experiment (D.T.)";"1.0";"2";"1";"1";"2";"1";"1";"2014-08-02 11:22:21.796";"2014-08-02 11:39:48.403";"1";"0";"1";"58";"57";"module.training_block2.exec-2122.GoNoGo2";;;;;;;;;;;;;;;;;;;;;;;;;;;;;;;;;;;"1259";"2014-08-02 11:27:12.191";"NST_correctLoc";"26";"0";"FINISHED";"LEFT";"success";"483";"0";"2014-08-02 11:27:10.927";"3";;;;;;;;;;;;;;;;;;;;;;;;;;;;;;;;;;;;;;;;;;;;;
"pbeach1";"1946";;"Windows 7";"Rachel's Experiment (D.T.)";"1.0";"2";"1";"1";"2";"1";"1";"2014-08-02 11:22:21.796";"2014-08-02 11:39:48.403";"1";"0";"1";"59";"58";"module.training_block2.exec-2122.GoNoGo2";;;;;;;;;;;;;;;;;;;;;;;;;;;;;;;;;;;"1259";"2014-08-02 11:27:14.749";"NST_correctLoc";"27";"1";"FINISHED";"RIGHT";"success";"473";"0";"2014-08-02 11:27:13.485";"3";;;;;;;;;;;;;;;;;;;;;;;;;;;;;;;;;;;;;;;;;;;;;
"pbeach1";"1946";;"Windows 7";"Rachel's Experiment (D.T.)";"1.0";"2";"1";"1";"2";"1";"1";"2014-08-02 11:22:21.796";"2014-08-02 11:39:48.403";"1";"0";"1";"60";"59";"module.training_block2.exec-2122.GoNoGo2";;;;;;;;;;;;;;;;;;;;;;;;;;;;;;;;;;;"1259";"2014-08-02 11:27:17.307";"NST_correctLoc";"21";"1";"FINISHED";"RIGHT";"success";"1139";"0";"2014-08-02 11:27:16.044";"3";;;;;;;;;;;;;;;;;;;;;;;;;;;;;;;;;;;;;;;;;;;;;
"pbeach1";"1946";;"Windows 7";"Rachel's Experiment (D.T.)";"1.0";"2";"1";"1";"2";"1";"1";"2014-08-02 11:22:21.796";"2014-08-02 11:39:48.403";"1";"0";"1";"61";"60";"module.training_block2.exec-2122.GoNoGo2";;;;;;;;;;;;;;;;;;;;;;;;;;;;;;;;;;;"1259";"2014-08-02 11:27:19.866";"NST_correctLoc";"16";"0";"FINISHED";"LEFT";"success";"552";"0";"2014-08-02 11:27:18.602";"2";;;;;;;;;;;;;;;;;;;;;;;;;;;;;;;;;;;;;;;;;;;;;
"pbeach1";"1946";;"Windows 7";"Rachel's Experiment (D.T.)";"1.0";"2";"1";"1";"2";"1";"1";"2014-08-02 11:22:21.796";"2014-08-02 11:39:48.403";"1";"0";"1";"62";"61";"module.training_block2.exec-2122.GoNoGo2";;;;;;;;;;;;;;;;;;;;;;;;;;;;;;;;;;;"1259";"2014-08-02 11:27:22.424";"NST_correctLoc";"25";"0";"FINISHED";"LEFT";"success";"520";"0";"2014-08-02 11:27:21.161";"3";;;;;;;;;;;;;;;;;;;;;;;;;;;;;;;;;;;;;;;;;;;;;
"pbeach1";"1946";;"Windows 7";"Rachel's Experiment (D.T.)";"1.0";"2";"1";"1";"2";"1";"1";"2014-08-02 11:22:21.796";"2014-08-02 11:39:48.403";"1";"0";"1";"63";"62";"module.training_block2.exec-2122.GoNoGo2";;;;;;;;;;;;;;;;;;;;;;;;;;;;;;;;;;;"1259";"2014-08-02 11:27:24.983";"NST_correctLoc";"20";"1";"FINISHED";"RIGHT";"success";"428";"0";"2014-08-02 11:27:23.719";"3";;;;;;;;;;;;;;;;;;;;;;;;;;;;;;;;;;;;;;;;;;;;;
"pbeach1";"1946";;"Windows 7";"Rachel's Experiment (D.T.)";"1.0";"2";"1";"1";"2";"1";"1";"2014-08-02 11:22:21.796";"2014-08-02 11:39:48.403";"1";"0";"1";"64";"63";"module.training_block2.exec-2122.GoNoGo2";;;;;;;;;;;;;;;;;;;;;;;;;;;;;;;;;;;"1259";"2014-08-02 11:27:27.541";"NST_correctLoc";"22";"1";"FINISHED";"RIGHT";"success";"449";"0";"2014-08-02 11:27:26.277";"3";;;;;;;;;;;;;;;;;;;;;;;;;;;;;;;;;;;;;;;;;;;;;
"pbeach1";"1946";;"Windows 7";"Rachel's Experiment (D.T.)";"1.0";"2";"1";"1";"2";"1";"1";"2014-08-02 11:22:21.796";"2014-08-02 11:39:48.403";"1";"0";"1";"65";"64";"module.training_block2.exec-2122.GoNoGo2";;;;;;;;;;;;;;;;;;;;;;;;;;;;;;;;;;;"1259";"2014-08-02 11:27:30.099";"NST_correctLoc";"1";"1";"FINISHED";"RIGHT";"success";"466";"0";"2014-08-02 11:27:28.836";"1";;;;;;;;;;;;;;;;;;;;;;;;;;;;;;;;;;;;;;;;;;;;;
"pbeach1";"1946";;"Windows 7";"Rachel's Experiment (D.T.)";"1.0";"2";"1";"1";"2";"1";"1";"2014-08-02 11:22:21.796";"2014-08-02 11:39:48.403";"1";"0";"1";"66";"65";"module.training_block2.exec-2122.GoNoGo2";;;;;;;;;;;;;;;;;;;;;;;;;;;;;;;;;;;"1259";"2014-08-02 11:27:32.658";"NST_correctLoc";"7";"0";"FINISHED";"LEFT";"success";"429";"0";"2014-08-02 11:27:31.394";"1";;;;;;;;;;;;;;;;;;;;;;;;;;;;;;;;;;;;;;;;;;;;;
"pbeach1";"1946";;"Windows 7";"Rachel's Experiment (D.T.)";"1.0";"2";"1";"1";"2";"1";"1";"2014-08-02 11:22:21.796";"2014-08-02 11:39:48.403";"1";"0";"1";"67";"66";"module.training_block2.exec-2122.GoNoGo2";;;;;;;;;;;;;;;;;;;;;;;;;;;;;;;;;;;"1259";"2014-08-02 11:27:35.216";"NST_correctLoc";"30";"1";"FINISHED";"RIGHT";"success";"462";"0";"2014-08-02 11:27:33.953";"3";;;;;;;;;;;;;;;;;;;;;;;;;;;;;;;;;;;;;;;;;;;;;
"pbeach1";"1946";;"Windows 7";"Rachel's Experiment (D.T.)";"1.0";"2";"1";"1";"2";"1";"1";"2014-08-02 11:22:21.796";"2014-08-02 11:39:48.403";"1";"0";"1";"68";"67";"module.training_block2.exec-2122.GoNoGo2";;;;;;;;;;;;;;;;;;;;;;;;;;;;;;;;;;;"1259";"2014-08-02 11:27:37.775";"NST_correctLoc";"28";"1";"FINISHED";"RIGHT";"success";"476";"0";"2014-08-02 11:27:36.511";"3";;;;;;;;;;;;;;;;;;;;;;;;;;;;;;;;;;;;;;;;;;;;;
"pbeach1";"1946";;"Windows 7";"Rachel's Experiment (D.T.)";"1.0";"2";"1";"1";"2";"1";"1";"2014-08-02 11:22:21.796";"2014-08-02 11:39:48.403";"1";"0";"1";"69";"68";"module.training_block2.exec-2122.GoNoGo2";;;;;;;;;;;;;;;;;;;;;;;;;;;;;;;;;;;"1259";"2014-08-02 11:27:40.317";"NST_correctLoc";"17";"1";"FINISHED";"RIGHT";"success";"439";"0";"2014-08-02 11:27:39.054";"2";;;;;;;;;;;;;;;;;;;;;;;;;;;;;;;;;;;;;;;;;;;;;
"pbeach1";"1946";;"Windows 7";"Rachel's Experiment (D.T.)";"1.0";"2";"1";"1";"2";"1";"1";"2014-08-02 11:22:21.796";"2014-08-02 11:39:48.403";"1";"0";"1";"70";"69";"module.training_block2.exec-2122.GoNoGo2";;;;;;;;;;;;;;;;;;;;;;;;;;;;;;;;;;;"1259";"2014-08-02 11:27:42.876";"NST_correctLoc";"2";"1";"FINISHED";"RIGHT";"success";"450";"0";"2014-08-02 11:27:41.612";"1";;;;;;;;;;;;;;;;;;;;;;;;;;;;;;;;;;;;;;;;;;;;;
"pbeach1";"1946";;"Windows 7";"Rachel's Experiment (D.T.)";"1.0";"2";"1";"1";"2";"1";"1";"2014-08-02 11:22:21.796";"2014-08-02 11:39:48.403";"1";"0";"1";"71";"70";"module.training_block2.exec-2122.GoNoGo2";;;;;;;;;;;;;;;;;;;;;;;;;;;;;;;;;;;"1259";"2014-08-02 11:27:45.434";"NST_correctLoc";"6";"1";"FINISHED";"RIGHT";"success";"487";"0";"2014-08-02 11:27:44.171";"1";;;;;;;;;;;;;;;;;;;;;;;;;;;;;;;;;;;;;;;;;;;;;
"pbeach1";"1946";;"Windows 7";"Rachel's Experiment (D.T.)";"1.0";"2";"1";"1";"2";"1";"1";"2014-08-02 11:22:21.796";"2014-08-02 11:39:48.403";"1";"0";"1";"72";"71";"module.training_block2.exec-2122.GoNoGo2";;;;;;;;;;;;;;;;;;;;;;;;;;;;;;;;;;;"1259";"2014-08-02 11:27:47.993";"NST_correctLoc";"33";"1";"FINISHED";"RIGHT";"success";"598";"0";"2014-08-02 11:27:46.729";"3";;;;;;;;;;;;;;;;;;;;;;;;;;;;;;;;;;;;;;;;;;;;;
"pbeach1";"1946";;"Windows 7";"Rachel's Experiment (D.T.)";"1.0";"2";"1";"1";"2";"1";"1";"2014-08-02 11:22:21.796";"2014-08-02 11:39:48.403";"1";"0";"1";"73";"72";"module.training_block2.exec-2122.GoNoGo2";;;;;;;;;;;;;;;;;;;;;;;;;;;;;;;;;;;"1259";"2014-08-02 11:27:50.551";"NST_correctLoc";"19";"1";"FINISHED";"RIGHT";"success";"503";"0";"2014-08-02 11:27:49.287";"3";;;;;;;;;;;;;;;;;;;;;;;;;;;;;;;;;;;;;;;;;;;;;
"pbeach1";"1946";;"Windows 7";"Rachel's Experiment (D.T.)";"1.0";"2";"1";"1";"2";"1";"1";"2014-08-02 11:22:21.796";"2014-08-02 11:39:48.403";"1";"0";"1";"74";"73";"module.training_block2.exec-2122.GoNoGo2";;;;;;;;;;;;;;;;;;;;;;;;;;;;;;;;;;;"1259";"2014-08-02 11:27:53.109";"NST_correctLoc";"11";"0";"FINISHED";"LEFT";"success";"564";"0";"2014-08-02 11:27:51.846";"2";;;;;;;;;;;;;;;;;;;;;;;;;;;;;;;;;;;;;;;;;;;;;
"pbeach1";"1946";;"Windows 7";"Rachel's Experiment (D.T.)";"1.0";"2";"1";"1";"2";"1";"1";"2014-08-02 11:22:21.796";"2014-08-02 11:39:48.403";"1";"0";"1";"75";"74";"module.training_block2.exec-2122.GoNoGo2";;;;;;;;;;;;;;;;;;;;;;;;;;;;;;;;;;;"1259";"2014-08-02 11:27:55.652";"NST_correctLoc";"0";"1";"FINISHED";"RIGHT";"success";"486";"0";"2014-08-02 11:27:54.389";"1";;;;;;;;;;;;;;;;;;;;;;;;;;;;;;;;;;;;;;;;;;;;;
"pbeach1";"1946";;"Windows 7";"Rachel's Experiment (D.T.)";"1.0";"2";"1";"1";"2";"1";"1";"2014-08-02 11:22:21.796";"2014-08-02 11:39:48.403";"1";"0";"1";"76";"75";"module.training_block2.exec-2122.GoNoGo2";;;;;;;;;;;;;;;;;;;;;;;;;;;;;;;;;;;"1259";"2014-08-02 11:27:58.211";"NST_correctLoc";"34";"0";"FINISHED";"LEFT";"success";"485";"0";"2014-08-02 11:27:56.947";"3";;;;;;;;;;;;;;;;;;;;;;;;;;;;;;;;;;;;;;;;;;;;;
"pbeach1";"1946";;"Windows 7";"Rachel's Experiment (D.T.)";"1.0";"2";"1";"1";"2";"1";"1";"2014-08-02 11:22:21.796";"2014-08-02 11:39:48.403";"1";"0";"1";"77";"76";"module.training_block2.exec-2122.GoNoGo2";;;;;;;;;;;;;;;;;;;;;;;;;;;;;;;;;;;"1259";"2014-08-02 11:28:00.769";"NST_correctLoc";"15";"1";"FINISHED";"RIGHT";"success";"462";"0";"2014-08-02 11:27:59.505";"2";;;;;;;;;;;;;;;;;;;;;;;;;;;;;;;;;;;;;;;;;;;;;
"pbeach1";"1946";;"Windows 7";"Rachel's Experiment (D.T.)";"1.0";"2";"1";"1";"2";"1";"1";"2014-08-02 11:22:21.796";"2014-08-02 11:39:48.403";"1";"0";"1";"78";"77";"module.training_block2.exec-2122.GoNoGo2";;;;;;;;;;;;;;;;;;;;;;;;;;;;;;;;;;;"1259";"2014-08-02 11:28:03.327";"NST_correctLoc";"23";"1";"FINISHED";"RIGHT";"success";"465";"0";"2014-08-02 11:28:02.064";"3";;;;;;;;;;;;;;;;;;;;;;;;;;;;;;;;;;;;;;;;;;;;;
"pbeach1";"1946";;"Windows 7";"Rachel's Experiment (D.T.)";"1.0";"2";"1";"1";"2";"1";"1";"2014-08-02 11:22:21.796";"2014-08-02 11:39:48.403";"1";"0";"1";"79";"78";"module.training_block2.exec-2122.GoNoGo2";;;;;;;;;;;;;;;;;;;;;;;;;;;;;;;;;;;"1259";"2014-08-02 11:28:05.886";"NST_correctLoc";"18";"0";"FINISHED";"LEFT";"success";"381";"0";"2014-08-02 11:28:04.622";"3";;;;;;;;;;;;;;;;;;;;;;;;;;;;;;;;;;;;;;;;;;;;;
"pbeach1";"1946";;"Windows 7";"Rachel's Experiment (D.T.)";"1.0";"2";"1";"1";"2";"1";"1";"2014-08-02 11:22:21.796";"2014-08-02 11:39:48.403";"1";"0";"1";"80";"79";"module.training_block2.exec-2122.GoNoGo2";;;;;;;;;;;;;;;;;;;;;;;;;;;;;;;;;;;"1259";"2014-08-02 11:28:08.444";"NST_correctLoc";"3";"1";"FINISHED";"RIGHT";"success";"549";"0";"2014-08-02 11:28:07.181";"1";;;;;;;;;;;;;;;;;;;;;;;;;;;;;;;;;;;;;;;;;;;;;
"pbeach1";"1946";;"Windows 7";"Rachel's Experiment (D.T.)";"1.0";"2";"1";"1";"2";"1";"1";"2014-08-02 11:22:21.796";"2014-08-02 11:39:48.403";"1";"0";"1";"81";"80";"module.training_block2.exec-2122.GoNoGo2";;;;;;;;;;;;;;;;;;;;;;;;;;;;;;;;;;;"1259";"2014-08-02 11:28:11.003";"NST_correctLoc";"13";"0";"FINISHED";"LEFT";"success";"494";"0";"2014-08-02 11:28:09.739";"2";;;;;;;;;;;;;;;;;;;;;;;;;;;;;;;;;;;;;;;;;;;;;
"pbeach1";"1946";;"Windows 7";"Rachel's Experiment (D.T.)";"1.0";"2";"1";"1";"2";"1";"1";"2014-08-02 11:22:21.796";"2014-08-02 11:39:48.403";"1";"0";"1";"82";"81";"module.training_block2.exec-2122.GoNoGo2";;;;;;;;;;;;;;;;;;;;;;;;;;;;;;;;;;;"1259";"2014-08-02 11:28:13.561";"NST_correctLoc";"12";"0";"FINISHED";"LEFT";"success";"482";"0";"2014-08-02 11:28:12.297";"2";;;;;;;;;;;;;;;;;;;;;;;;;;;;;;;;;;;;;;;;;;;;;
"pbeach1";"1946";;"Windows 7";"Rachel's Experiment (D.T.)";"1.0";"2";"1";"1";"2";"1";"1";"2014-08-02 11:22:21.796";"2014-08-02 11:39:48.403";"1";"0";"1";"83";"82";"module.training_block2.exec-2122.GoNoGo2";;;;;;;;;;;;;;;;;;;;;;;;;;;;;;;;;;;"1259";"2014-08-02 11:28:16.119";"NST_correctLoc";"35";"1";"FINISHED";"RIGHT";"success";"500";"0";"2014-08-02 11:28:14.856";"3";;;;;;;;;;;;;;;;;;;;;;;;;;;;;;;;;;;;;;;;;;;;;
"pbeach1";"1946";;"Windows 7";"Rachel's Experiment (D.T.)";"1.0";"2";"1";"1";"2";"1";"1";"2014-08-02 11:22:21.796";"2014-08-02 11:39:48.403";"1";"0";"1";"84";"83";"module.training_block2.exec-2122.GoNoGo2";;;;;;;;;;;;;;;;;;;;;;;;;;;;;;;;;;;"1259";"2014-08-02 11:28:18.678";"NST_correctLoc";"31";"0";"FINISHED";"LEFT";"success";"564";"0";"2014-08-02 11:28:17.414";"3";;;;;;;;;;;;;;;;;;;;;;;;;;;;;;;;;;;;;;;;;;;;;
"pbeach1";"1946";;"Windows 7";"Rachel's Experiment (D.T.)";"1.0";"2";"1";"1";"2";"1";"1";"2014-08-02 11:22:21.796";"2014-08-02 11:39:48.403";"1";"0";"1";"85";"84";"module.training_block2.exec-2122.GoNoGo2";;;;;;;;;;;;;;;;;;;;;;;;;;;;;;;;;;;"1259";"2014-08-02 11:28:21.236";"NST_correctLoc";"5";"0";"FINISHED";"LEFT";"success";"649";"0";"2014-08-02 11:28:19.973";"1";;;;;;;;;;;;;;;;;;;;;;;;;;;;;;;;;;;;;;;;;;;;;
"pbeach1";"1946";;"Windows 7";"Rachel's Experiment (D.T.)";"1.0";"2";"1";"1";"2";"1";"1";"2014-08-02 11:22:21.796";"2014-08-02 11:39:48.403";"1";"0";"1";"86";"85";"module.training_block2.exec-2122.GoNoGo2";;;;;;;;;;;;;;;;;;;;;;;;;;;;;;;;;;;"1259";"2014-08-02 11:28:23.795";"NST_correctLoc";"10";"0";"FINISHED";"LEFT";"success";"436";"0";"2014-08-02 11:28:22.531";"2";;;;;;;;;;;;;;;;;;;;;;;;;;;;;;;;;;;;;;;;;;;;;
"pbeach1";"1946";;"Windows 7";"Rachel's Experiment (D.T.)";"1.0";"2";"1";"1";"2";"1";"1";"2014-08-02 11:22:21.796";"2014-08-02 11:39:48.403";"1";"0";"1";"87";"86";"module.training_block2.exec-2122.GoNoGo2";;;;;;;;;;;;;;;;;;;;;;;;;;;;;;;;;;;"1259";"2014-08-02 11:28:26.337";"NST_correctLoc";"24";"1";"FINISHED";"RIGHT";"success";"513";"0";"2014-08-02 11:28:25.074";"3";;;;;;;;;;;;;;;;;;;;;;;;;;;;;;;;;;;;;;;;;;;;;
"pbeach1";"1946";;"Windows 7";"Rachel's Experiment (D.T.)";"1.0";"2";"1";"1";"2";"1";"1";"2014-08-02 11:22:21.796";"2014-08-02 11:39:48.403";"1";"0";"1";"88";"87";"module.training_block3.exec-3707.GoNoGo3";;;;;;;;;;;;;;;;;;;;;;;;;;;;;;;;;;;;;;;;;;;;;;;"1259";"2014-08-02 11:28:38.552";"NST_correctLoc";"8";"1";"FINISHED";"RIGHT";"success";"557";"0";"2014-08-02 11:28:37.289";"1";;;;;;;;;;;;;;;;;;;;;;;;;;;;;;;;;
"pbeach1";"1946";;"Windows 7";"Rachel's Experiment (D.T.)";"1.0";"2";"1";"1";"2";"1";"1";"2014-08-02 11:22:21.796";"2014-08-02 11:39:48.403";"1";"0";"1";"89";"88";"module.training_block3.exec-3707.GoNoGo3";;;;;;;;;;;;;;;;;;;;;;;;;;;;;;;;;;;;;;;;;;;;;;;"1259";"2014-08-02 11:28:41.111";"NST_correctLoc";"32";"0";"FINISHED";"LEFT";"success";"420";"0";"2014-08-02 11:28:39.847";"3";;;;;;;;;;;;;;;;;;;;;;;;;;;;;;;;;
"pbeach1";"1946";;"Windows 7";"Rachel's Experiment (D.T.)";"1.0";"2";"1";"1";"2";"1";"1";"2014-08-02 11:22:21.796";"2014-08-02 11:39:48.403";"1";"0";"1";"90";"89";"module.training_block3.exec-3707.GoNoGo3";;;;;;;;;;;;;;;;;;;;;;;;;;;;;;;;;;;;;;;;;;;;;;;"1259";"2014-08-02 11:28:43.669";"NST_correctLoc";"17";"1";"FINISHED";"RIGHT";"success";"458";"0";"2014-08-02 11:28:42.406";"2";;;;;;;;;;;;;;;;;;;;;;;;;;;;;;;;;
"pbeach1";"1946";;"Windows 7";"Rachel's Experiment (D.T.)";"1.0";"2";"1";"1";"2";"1";"1";"2014-08-02 11:22:21.796";"2014-08-02 11:39:48.403";"1";"0";"1";"91";"90";"module.training_block3.exec-3707.GoNoGo3";;;;;;;;;;;;;;;;;;;;;;;;;;;;;;;;;;;;;;;;;;;;;;;"1259";"2014-08-02 11:28:46.228";"NST_correctLoc";"7";"1";"FINISHED";"RIGHT";"success";"515";"0";"2014-08-02 11:28:44.964";"1";;;;;;;;;;;;;;;;;;;;;;;;;;;;;;;;;
"pbeach1";"1946";;"Windows 7";"Rachel's Experiment (D.T.)";"1.0";"2";"1";"1";"2";"1";"1";"2014-08-02 11:22:21.796";"2014-08-02 11:39:48.403";"1";"0";"1";"92";"91";"module.training_block3.exec-3707.GoNoGo3";;;;;;;;;;;;;;;;;;;;;;;;;;;;;;;;;;;;;;;;;;;;;;;"1259";"2014-08-02 11:28:48.786";"NST_correctLoc";"29";"1";"FINISHED";"RIGHT";"success";"442";"0";"2014-08-02 11:28:47.522";"3";;;;;;;;;;;;;;;;;;;;;;;;;;;;;;;;;
"pbeach1";"1946";;"Windows 7";"Rachel's Experiment (D.T.)";"1.0";"2";"1";"1";"2";"1";"1";"2014-08-02 11:22:21.796";"2014-08-02 11:39:48.403";"1";"0";"1";"93";"92";"module.training_block3.exec-3707.GoNoGo3";;;;;;;;;;;;;;;;;;;;;;;;;;;;;;;;;;;;;;;;;;;;;;;"1259";"2014-08-02 11:28:51.344";"NST_correctLoc";"11";"1";"FINISHED";"RIGHT";"success";"516";"0";"2014-08-02 11:28:50.081";"2";;;;;;;;;;;;;;;;;;;;;;;;;;;;;;;;;
"pbeach1";"1946";;"Windows 7";"Rachel's Experiment (D.T.)";"1.0";"2";"1";"1";"2";"1";"1";"2014-08-02 11:22:21.796";"2014-08-02 11:39:48.403";"1";"0";"1";"94";"93";"module.training_block3.exec-3707.GoNoGo3";;;;;;;;;;;;;;;;;;;;;;;;;;;;;;;;;;;;;;;;;;;;;;;"1259";"2014-08-02 11:28:53.903";"NST_correctLoc";"25";"1";"FINISHED";"RIGHT";"success";"481";"0";"2014-08-02 11:28:52.639";"3";;;;;;;;;;;;;;;;;;;;;;;;;;;;;;;;;
"pbeach1";"1946";;"Windows 7";"Rachel's Experiment (D.T.)";"1.0";"2";"1";"1";"2";"1";"1";"2014-08-02 11:22:21.796";"2014-08-02 11:39:48.403";"1";"0";"1";"95";"94";"module.training_block3.exec-3707.GoNoGo3";;;;;;;;;;;;;;;;;;;;;;;;;;;;;;;;;;;;;;;;;;;;;;;"1259";"2014-08-02 11:28:56.461";"NST_correctLoc";"13";"0";"FINISHED";"LEFT";"success";"418";"0";"2014-08-02 11:28:55.198";"2";;;;;;;;;;;;;;;;;;;;;;;;;;;;;;;;;
"pbeach1";"1946";;"Windows 7";"Rachel's Experiment (D.T.)";"1.0";"2";"1";"1";"2";"1";"1";"2014-08-02 11:22:21.796";"2014-08-02 11:39:48.403";"1";"0";"1";"96";"95";"module.training_block3.exec-3707.GoNoGo3";;;;;;;;;;;;;;;;;;;;;;;;;;;;;;;;;;;;;;;;;;;;;;;"1259";"2014-08-02 11:28:59.020";"NST_correctLoc";"30";"0";"FINISHED";"LEFT";"success";"468";"0";"2014-08-02 11:28:57.756";"3";;;;;;;;;;;;;;;;;;;;;;;;;;;;;;;;;
"pbeach1";"1946";;"Windows 7";"Rachel's Experiment (D.T.)";"1.0";"2";"1";"1";"2";"1";"1";"2014-08-02 11:22:21.796";"2014-08-02 11:39:48.403";"1";"0";"1";"97";"96";"module.training_block3.exec-3707.GoNoGo3";;;;;;;;;;;;;;;;;;;;;;;;;;;;;;;;;;;;;;;;;;;;;;;"1259";"2014-08-02 11:29:01.578";"NST_correctLoc";"4";"1";"FINISHED";"RIGHT";"success";"448";"0";"2014-08-02 11:29:00.314";"1";;;;;;;;;;;;;;;;;;;;;;;;;;;;;;;;;
"pbeach1";"1946";;"Windows 7";"Rachel's Experiment (D.T.)";"1.0";"2";"1";"1";"2";"1";"1";"2014-08-02 11:22:21.796";"2014-08-02 11:39:48.403";"1";"0";"1";"98";"97";"module.training_block3.exec-3707.GoNoGo3";;;;;;;;;;;;;;;;;;;;;;;;;;;;;;;;;;;;;;;;;;;;;;;"1259";"2014-08-02 11:29:04.136";"NST_correctLoc";"28";"1";"FINISHED";"RIGHT";"success";"598";"0";"2014-08-02 11:29:02.873";"3";;;;;;;;;;;;;;;;;;;;;;;;;;;;;;;;;
"pbeach1";"1946";;"Windows 7";"Rachel's Experiment (D.T.)";"1.0";"2";"1";"1";"2";"1";"1";"2014-08-02 11:22:21.796";"2014-08-02 11:39:48.403";"1";"0";"1";"99";"98";"module.training_block3.exec-3707.GoNoGo3";;;;;;;;;;;;;;;;;;;;;;;;;;;;;;;;;;;;;;;;;;;;;;;"1259";"2014-08-02 11:29:06.695";"NST_correctLoc";"9";"0";"FINISHED";"LEFT";"success";"511";"0";"2014-08-02 11:29:05.431";"2";;;;;;;;;;;;;;;;;;;;;;;;;;;;;;;;;
"pbeach1";"1946";;"Windows 7";"Rachel's Experiment (D.T.)";"1.0";"2";"1";"1";"2";"1";"1";"2014-08-02 11:22:21.796";"2014-08-02 11:39:48.403";"1";"0";"1";"100";"99";"module.training_block3.exec-3707.GoNoGo3";;;;;;;;;;;;;;;;;;;;;;;;;;;;;;;;;;;;;;;;;;;;;;;"1259";"2014-08-02 11:29:09.253";"NST_correctLoc";"22";"1";"FINISHED";"RIGHT";"success";"470";"0";"2014-08-02 11:29:07.990";"3";;;;;;;;;;;;;;;;;;;;;;;;;;;;;;;;;
"pbeach1";"1946";;"Windows 7";"Rachel's Experiment (D.T.)";"1.0";"2";"1";"1";"2";"1";"1";"2014-08-02 11:22:21.796";"2014-08-02 11:39:48.403";"1";"0";"1";"101";"100";"module.training_block3.exec-3707.GoNoGo3";;;;;;;;;;;;;;;;;;;;;;;;;;;;;;;;;;;;;;;;;;;;;;;"1259";"2014-08-02 11:29:11.812";"NST_correctLoc";"14";"1";"FINISHED";"RIGHT";"success";"511";"0";"2014-08-02 11:29:10.548";"2";;;;;;;;;;;;;;;;;;;;;;;;;;;;;;;;;
"pbeach1";"1946";;"Windows 7";"Rachel's Experiment (D.T.)";"1.0";"2";"1";"1";"2";"1";"1";"2014-08-02 11:22:21.796";"2014-08-02 11:39:48.403";"1";"0";"1";"102";"101";"module.training_block3.exec-3707.GoNoGo3";;;;;;;;;;;;;;;;;;;;;;;;;;;;;;;;;;;;;;;;;;;;;;;"1259";"2014-08-02 11:29:14.370";"NST_correctLoc";"18";"0";"FINISHED";"LEFT";"success";"486";"0";"2014-08-02 11:29:13.106";"3";;;;;;;;;;;;;;;;;;;;;;;;;;;;;;;;;
"pbeach1";"1946";;"Windows 7";"Rachel's Experiment (D.T.)";"1.0";"2";"1";"1";"2";"1";"1";"2014-08-02 11:22:21.796";"2014-08-02 11:39:48.403";"1";"0";"1";"103";"102";"module.training_block3.exec-3707.GoNoGo3";;;;;;;;;;;;;;;;;;;;;;;;;;;;;;;;;;;;;;;;;;;;;;;"1259";"2014-08-02 11:29:16.928";"NST_correctLoc";"16";"0";"FINISHED";"LEFT";"success";"588";"0";"2014-08-02 11:29:15.665";"2";;;;;;;;;;;;;;;;;;;;;;;;;;;;;;;;;
"pbeach1";"1946";;"Windows 7";"Rachel's Experiment (D.T.)";"1.0";"2";"1";"1";"2";"1";"1";"2014-08-02 11:22:21.796";"2014-08-02 11:39:48.403";"1";"0";"1";"104";"103";"module.training_block3.exec-3707.GoNoGo3";;;;;;;;;;;;;;;;;;;;;;;;;;;;;;;;;;;;;;;;;;;;;;;"1259";"2014-08-02 11:29:19.487";"NST_correctLoc";"3";"1";"FINISHED";"RIGHT";"success";"468";"0";"2014-08-02 11:29:18.223";"1";;;;;;;;;;;;;;;;;;;;;;;;;;;;;;;;;
"pbeach1";"1946";;"Windows 7";"Rachel's Experiment (D.T.)";"1.0";"2";"1";"1";"2";"1";"1";"2014-08-02 11:22:21.796";"2014-08-02 11:39:48.403";"1";"0";"1";"105";"104";"module.training_block3.exec-3707.GoNoGo3";;;;;;;;;;;;;;;;;;;;;;;;;;;;;;;;;;;;;;;;;;;;;;;"1259";"2014-08-02 11:29:22.045";"NST_correctLoc";"19";"0";"FINISHED";"LEFT";"success";"438";"0";"2014-08-02 11:29:20.782";"3";;;;;;;;;;;;;;;;;;;;;;;;;;;;;;;;;
"pbeach1";"1946";;"Windows 7";"Rachel's Experiment (D.T.)";"1.0";"2";"1";"1";"2";"1";"1";"2014-08-02 11:22:21.796";"2014-08-02 11:39:48.403";"1";"0";"1";"106";"105";"module.training_block3.exec-3707.GoNoGo3";;;;;;;;;;;;;;;;;;;;;;;;;;;;;;;;;;;;;;;;;;;;;;;"1259";"2014-08-02 11:29:24.604";"NST_correctLoc";"5";"0";"FINISHED";"LEFT";"success";"449";"0";"2014-08-02 11:29:23.340";"1";;;;;;;;;;;;;;;;;;;;;;;;;;;;;;;;;
"pbeach1";"1946";;"Windows 7";"Rachel's Experiment (D.T.)";"1.0";"2";"1";"1";"2";"1";"1";"2014-08-02 11:22:21.796";"2014-08-02 11:39:48.403";"1";"0";"1";"107";"106";"module.training_block3.exec-3707.GoNoGo3";;;;;;;;;;;;;;;;;;;;;;;;;;;;;;;;;;;;;;;;;;;;;;;"1259";"2014-08-02 11:29:27.146";"NST_correctLoc";"33";"1";"FINISHED";"RIGHT";"success";"450";"0";"2014-08-02 11:29:25.883";"3";;;;;;;;;;;;;;;;;;;;;;;;;;;;;;;;;
"pbeach1";"1946";;"Windows 7";"Rachel's Experiment (D.T.)";"1.0";"2";"1";"1";"2";"1";"1";"2014-08-02 11:22:21.796";"2014-08-02 11:39:48.403";"1";"0";"1";"108";"107";"module.training_block3.exec-3707.GoNoGo3";;;;;;;;;;;;;;;;;;;;;;;;;;;;;;;;;;;;;;;;;;;;;;;"1259";"2014-08-02 11:29:29.705";"NST_correctLoc";"34";"1";"FINISHED";"RIGHT";"success";"514";"0";"2014-08-02 11:29:28.441";"3";;;;;;;;;;;;;;;;;;;;;;;;;;;;;;;;;
"pbeach1";"1946";;"Windows 7";"Rachel's Experiment (D.T.)";"1.0";"2";"1";"1";"2";"1";"1";"2014-08-02 11:22:21.796";"2014-08-02 11:39:48.403";"1";"0";"1";"109";"108";"module.training_block3.exec-3707.GoNoGo3";;;;;;;;;;;;;;;;;;;;;;;;;;;;;;;;;;;;;;;;;;;;;;;"1259";"2014-08-02 11:29:32.263";"NST_correctLoc";"35";"0";"FINISHED";"LEFT";"success";"541";"0";"2014-08-02 11:29:31.000";"3";;;;;;;;;;;;;;;;;;;;;;;;;;;;;;;;;
"pbeach1";"1946";;"Windows 7";"Rachel's Experiment (D.T.)";"1.0";"2";"1";"1";"2";"1";"1";"2014-08-02 11:22:21.796";"2014-08-02 11:39:48.403";"1";"0";"1";"110";"109";"module.training_block3.exec-3707.GoNoGo3";;;;;;;;;;;;;;;;;;;;;;;;;;;;;;;;;;;;;;;;;;;;;;;"1259";"2014-08-02 11:29:34.822";"NST_correctLoc";"20";"0";"FINISHED";"LEFT";"success";"470";"0";"2014-08-02 11:29:33.558";"3";;;;;;;;;;;;;;;;;;;;;;;;;;;;;;;;;
"pbeach1";"1946";;"Windows 7";"Rachel's Experiment (D.T.)";"1.0";"2";"1";"1";"2";"1";"1";"2014-08-02 11:22:21.796";"2014-08-02 11:39:48.403";"1";"0";"1";"111";"110";"module.training_block3.exec-3707.GoNoGo3";;;;;;;;;;;;;;;;;;;;;;;;;;;;;;;;;;;;;;;;;;;;;;;"1259";"2014-08-02 11:29:37.380";"NST_correctLoc";"23";"1";"FINISHED";"RIGHT";"success";"529";"0";"2014-08-02 11:29:36.116";"3";;;;;;;;;;;;;;;;;;;;;;;;;;;;;;;;;
"pbeach1";"1946";;"Windows 7";"Rachel's Experiment (D.T.)";"1.0";"2";"1";"1";"2";"1";"1";"2014-08-02 11:22:21.796";"2014-08-02 11:39:48.403";"1";"0";"1";"112";"111";"module.training_block3.exec-3707.GoNoGo3";;;;;;;;;;;;;;;;;;;;;;;;;;;;;;;;;;;;;;;;;;;;;;;"1259";"2014-08-02 11:29:39.938";"NST_correctLoc";"26";"0";"FINISHED";"LEFT";"success";"487";"0";"2014-08-02 11:29:38.675";"3";;;;;;;;;;;;;;;;;;;;;;;;;;;;;;;;;
"pbeach1";"1946";;"Windows 7";"Rachel's Experiment (D.T.)";"1.0";"2";"1";"1";"2";"1";"1";"2014-08-02 11:22:21.796";"2014-08-02 11:39:48.403";"1";"0";"1";"113";"112";"module.training_block3.exec-3707.GoNoGo3";;;;;;;;;;;;;;;;;;;;;;;;;;;;;;;;;;;;;;;;;;;;;;;"1259";"2014-08-02 11:29:42.497";"NST_correctLoc";"6";"0";"FINISHED";"LEFT";"success";"503";"0";"2014-08-02 11:29:41.233";"1";;;;;;;;;;;;;;;;;;;;;;;;;;;;;;;;;
"pbeach1";"1946";;"Windows 7";"Rachel's Experiment (D.T.)";"1.0";"2";"1";"1";"2";"1";"1";"2014-08-02 11:22:21.796";"2014-08-02 11:39:48.403";"1";"0";"1";"114";"113";"module.training_block3.exec-3707.GoNoGo3";;;;;;;;;;;;;;;;;;;;;;;;;;;;;;;;;;;;;;;;;;;;;;;"1259";"2014-08-02 11:29:45.055";"NST_correctLoc";"12";"0";"FINISHED";"LEFT";"success";"464";"0";"2014-08-02 11:29:43.792";"2";;;;;;;;;;;;;;;;;;;;;;;;;;;;;;;;;
"pbeach1";"1946";;"Windows 7";"Rachel's Experiment (D.T.)";"1.0";"2";"1";"1";"2";"1";"1";"2014-08-02 11:22:21.796";"2014-08-02 11:39:48.403";"1";"0";"1";"115";"114";"module.training_block3.exec-3707.GoNoGo3";;;;;;;;;;;;;;;;;;;;;;;;;;;;;;;;;;;;;;;;;;;;;;;"1259";"2014-08-02 11:29:47.598";"NST_correctLoc";"24";"0";"FINISHED";"LEFT";"success";"525";"0";"2014-08-02 11:29:46.334";"3";;;;;;;;;;;;;;;;;;;;;;;;;;;;;;;;;
"pbeach1";"1946";;"Windows 7";"Rachel's Experiment (D.T.)";"1.0";"2";"1";"1";"2";"1";"1";"2014-08-02 11:22:21.796";"2014-08-02 11:39:48.403";"1";"0";"1";"116";"115";"module.training_block3.exec-3707.GoNoGo3";;;;;;;;;;;;;;;;;;;;;;;;;;;;;;;;;;;;;;;;;;;;;;;"1259";"2014-08-02 11:29:50.156";"NST_correctLoc";"10";"0";"FINISHED";"LEFT";"success";"577";"0";"2014-08-02 11:29:48.893";"2";;;;;;;;;;;;;;;;;;;;;;;;;;;;;;;;;
"pbeach1";"1946";;"Windows 7";"Rachel's Experiment (D.T.)";"1.0";"2";"1";"1";"2";"1";"1";"2014-08-02 11:22:21.796";"2014-08-02 11:39:48.403";"1";"0";"1";"117";"116";"module.training_block3.exec-3707.GoNoGo3";;;;;;;;;;;;;;;;;;;;;;;;;;;;;;;;;;;;;;;;;;;;;;;"1259";"2014-08-02 11:29:52.715";"NST_miss";"21";"1";"FINISHED";"NONE";"failure";"0";"0";"2014-08-02 11:29:51.451";"3";;;;;;;;;;;;;;;;;;;;;;;;;;;;;;;;;
"pbeach1";"1946";;"Windows 7";"Rachel's Experiment (D.T.)";"1.0";"2";"1";"1";"2";"1";"1";"2014-08-02 11:22:21.796";"2014-08-02 11:39:48.403";"1";"0";"1";"118";"117";"module.training_block3.exec-3707.GoNoGo3";;;;;;;;;;;;;;;;;;;;;;;;;;;;;;;;;;;;;;;;;;;;;;;"1259";"2014-08-02 11:29:55.273";"NST_correctLoc";"1";"0";"FINISHED";"LEFT";"success";"571";"0";"2014-08-02 11:29:54.010";"1";;;;;;;;;;;;;;;;;;;;;;;;;;;;;;;;;
"pbeach1";"1946";;"Windows 7";"Rachel's Experiment (D.T.)";"1.0";"2";"1";"1";"2";"1";"1";"2014-08-02 11:22:21.796";"2014-08-02 11:39:48.403";"1";"0";"1";"119";"118";"module.training_block3.exec-3707.GoNoGo3";;;;;;;;;;;;;;;;;;;;;;;;;;;;;;;;;;;;;;;;;;;;;;;"1259";"2014-08-02 11:29:57.832";"NST_correctLoc";"0";"0";"FINISHED";"LEFT";"success";"603";"0";"2014-08-02 11:29:56.568";"1";;;;;;;;;;;;;;;;;;;;;;;;;;;;;;;;;
"pbeach1";"1946";;"Windows 7";"Rachel's Experiment (D.T.)";"1.0";"2";"1";"1";"2";"1";"1";"2014-08-02 11:22:21.796";"2014-08-02 11:39:48.403";"1";"0";"1";"120";"119";"module.training_block3.exec-3707.GoNoGo3";;;;;;;;;;;;;;;;;;;;;;;;;;;;;;;;;;;;;;;;;;;;;;;"1259";"2014-08-02 11:30:00.390";"NST_correctLoc";"15";"0";"FINISHED";"LEFT";"success";"477";"0";"2014-08-02 11:29:59.126";"2";;;;;;;;;;;;;;;;;;;;;;;;;;;;;;;;;
"pbeach1";"1946";;"Windows 7";"Rachel's Experiment (D.T.)";"1.0";"2";"1";"1";"2";"1";"1";"2014-08-02 11:22:21.796";"2014-08-02 11:39:48.403";"1";"0";"1";"121";"120";"module.training_block3.exec-3707.GoNoGo3";;;;;;;;;;;;;;;;;;;;;;;;;;;;;;;;;;;;;;;;;;;;;;;"1259";"2014-08-02 11:30:02.948";"NST_correctLoc";"31";"0";"FINISHED";"LEFT";"success";"625";"0";"2014-08-02 11:30:01.685";"3";;;;;;;;;;;;;;;;;;;;;;;;;;;;;;;;;
"pbeach1";"1946";;"Windows 7";"Rachel's Experiment (D.T.)";"1.0";"2";"1";"1";"2";"1";"1";"2014-08-02 11:22:21.796";"2014-08-02 11:39:48.403";"1";"0";"1";"122";"121";"module.training_block3.exec-3707.GoNoGo3";;;;;;;;;;;;;;;;;;;;;;;;;;;;;;;;;;;;;;;;;;;;;;;"1259";"2014-08-02 11:30:05.507";"NST_correctLoc";"2";"0";"FINISHED";"LEFT";"success";"502";"0";"2014-08-02 11:30:04.243";"1";;;;;;;;;;;;;;;;;;;;;;;;;;;;;;;;;
"pbeach1";"1946";;"Windows 7";"Rachel's Experiment (D.T.)";"1.0";"2";"1";"1";"2";"1";"1";"2014-08-02 11:22:21.796";"2014-08-02 11:39:48.403";"1";"0";"1";"123";"122";"module.training_block3.exec-3707.GoNoGo3";;;;;;;;;;;;;;;;;;;;;;;;;;;;;;;;;;;;;;;;;;;;;;;"1259";"2014-08-02 11:30:08.065";"NST_correctLoc";"27";"1";"FINISHED";"RIGHT";"success";"503";"0";"2014-08-02 11:30:06.802";"3";;;;;;;;;;;;;;;;;;;;;;;;;;;;;;;;;
"pbeach1";"1946";;"Windows 7";"Rachel's Experiment (D.T.)";"1.0";"2";"1";"1";"2";"1";"1";"2014-08-02 11:22:21.796";"2014-08-02 11:39:48.403";"1";"0";"1";"124";"123";"module.training_block4.exec-7472.GoNoGo4";;;;;;;;;;;;;;;;;;;;;;;;;;;;;;;;;;;;;;;;;;;;;;;;;;;;;;;;;;;"1259";"2014-08-02 11:30:20.998";"NST_correctLoc";"0";"0";"FINISHED";"LEFT";"success";"440";"0";"2014-08-02 11:30:19.734";"1";;;;;;;;;;;;;;;;;;;;;
"pbeach1";"1946";;"Windows 7";"Rachel's Experiment (D.T.)";"1.0";"2";"1";"1";"2";"1";"1";"2014-08-02 11:22:21.796";"2014-08-02 11:39:48.403";"1";"0";"1";"125";"124";"module.training_block4.exec-7472.GoNoGo4";;;;;;;;;;;;;;;;;;;;;;;;;;;;;;;;;;;;;;;;;;;;;;;;;;;;;;;;;;;"1259";"2014-08-02 11:30:23.540";"NST_correctLoc";"32";"0";"FINISHED";"LEFT";"success";"514";"0";"2014-08-02 11:30:22.277";"3";;;;;;;;;;;;;;;;;;;;;
"pbeach1";"1946";;"Windows 7";"Rachel's Experiment (D.T.)";"1.0";"2";"1";"1";"2";"1";"1";"2014-08-02 11:22:21.796";"2014-08-02 11:39:48.403";"1";"0";"1";"126";"125";"module.training_block4.exec-7472.GoNoGo4";;;;;;;;;;;;;;;;;;;;;;;;;;;;;;;;;;;;;;;;;;;;;;;;;;;;;;;;;;;"1259";"2014-08-02 11:30:26.083";"NST_correctLoc";"20";"0";"FINISHED";"LEFT";"success";"496";"0";"2014-08-02 11:30:24.820";"3";;;;;;;;;;;;;;;;;;;;;
"pbeach1";"1946";;"Windows 7";"Rachel's Experiment (D.T.)";"1.0";"2";"1";"1";"2";"1";"1";"2014-08-02 11:22:21.796";"2014-08-02 11:39:48.403";"1";"0";"1";"127";"126";"module.training_block4.exec-7472.GoNoGo4";;;;;;;;;;;;;;;;;;;;;;;;;;;;;;;;;;;;;;;;;;;;;;;;;;;;;;;;;;;"1259";"2014-08-02 11:30:28.626";"NST_correctLoc";"22";"0";"FINISHED";"LEFT";"success";"438";"0";"2014-08-02 11:30:27.363";"3";;;;;;;;;;;;;;;;;;;;;
"pbeach1";"1946";;"Windows 7";"Rachel's Experiment (D.T.)";"1.0";"2";"1";"1";"2";"1";"1";"2014-08-02 11:22:21.796";"2014-08-02 11:39:48.403";"1";"0";"1";"128";"127";"module.training_block4.exec-7472.GoNoGo4";;;;;;;;;;;;;;;;;;;;;;;;;;;;;;;;;;;;;;;;;;;;;;;;;;;;;;;;;;;"1259";"2014-08-02 11:30:31.169";"NST_correctLoc";"30";"1";"FINISHED";"RIGHT";"success";"523";"0";"2014-08-02 11:30:29.905";"3";;;;;;;;;;;;;;;;;;;;;
"pbeach1";"1946";;"Windows 7";"Rachel's Experiment (D.T.)";"1.0";"2";"1";"1";"2";"1";"1";"2014-08-02 11:22:21.796";"2014-08-02 11:39:48.403";"1";"0";"1";"129";"128";"module.training_block4.exec-7472.GoNoGo4";;;;;;;;;;;;;;;;;;;;;;;;;;;;;;;;;;;;;;;;;;;;;;;;;;;;;;;;;;;"1259";"2014-08-02 11:30:33.712";"NST_correctLoc";"29";"0";"FINISHED";"LEFT";"success";"452";"0";"2014-08-02 11:30:32.448";"3";;;;;;;;;;;;;;;;;;;;;
"pbeach1";"1946";;"Windows 7";"Rachel's Experiment (D.T.)";"1.0";"2";"1";"1";"2";"1";"1";"2014-08-02 11:22:21.796";"2014-08-02 11:39:48.403";"1";"0";"1";"130";"129";"module.training_block4.exec-7472.GoNoGo4";;;;;;;;;;;;;;;;;;;;;;;;;;;;;;;;;;;;;;;;;;;;;;;;;;;;;;;;;;;"1259";"2014-08-02 11:30:36.270";"NST_correctLoc";"28";"0";"FINISHED";"LEFT";"success";"488";"0";"2014-08-02 11:30:35.007";"3";;;;;;;;;;;;;;;;;;;;;
"pbeach1";"1946";;"Windows 7";"Rachel's Experiment (D.T.)";"1.0";"2";"1";"1";"2";"1";"1";"2014-08-02 11:22:21.796";"2014-08-02 11:39:48.403";"1";"0";"1";"131";"130";"module.training_block4.exec-7472.GoNoGo4";;;;;;;;;;;;;;;;;;;;;;;;;;;;;;;;;;;;;;;;;;;;;;;;;;;;;;;;;;;"1259";"2014-08-02 11:30:38.813";"NST_correctLoc";"7";"0";"FINISHED";"LEFT";"success";"441";"0";"2014-08-02 11:30:37.549";"1";;;;;;;;;;;;;;;;;;;;;
"pbeach1";"1946";;"Windows 7";"Rachel's Experiment (D.T.)";"1.0";"2";"1";"1";"2";"1";"1";"2014-08-02 11:22:21.796";"2014-08-02 11:39:48.403";"1";"0";"1";"132";"131";"module.training_block4.exec-7472.GoNoGo4";;;;;;;;;;;;;;;;;;;;;;;;;;;;;;;;;;;;;;;;;;;;;;;;;;;;;;;;;;;"1259";"2014-08-02 11:30:41.371";"NST_correctLoc";"2";"0";"FINISHED";"LEFT";"success";"507";"0";"2014-08-02 11:30:40.108";"1";;;;;;;;;;;;;;;;;;;;;
"pbeach1";"1946";;"Windows 7";"Rachel's Experiment (D.T.)";"1.0";"2";"1";"1";"2";"1";"1";"2014-08-02 11:22:21.796";"2014-08-02 11:39:48.403";"1";"0";"1";"133";"132";"module.training_block4.exec-7472.GoNoGo4";;;;;;;;;;;;;;;;;;;;;;;;;;;;;;;;;;;;;;;;;;;;;;;;;;;;;;;;;;;"1259";"2014-08-02 11:30:43.914";"NST_correctLoc";"14";"0";"FINISHED";"LEFT";"success";"485";"0";"2014-08-02 11:30:42.651";"2";;;;;;;;;;;;;;;;;;;;;
"pbeach1";"1946";;"Windows 7";"Rachel's Experiment (D.T.)";"1.0";"2";"1";"1";"2";"1";"1";"2014-08-02 11:22:21.796";"2014-08-02 11:39:48.403";"1";"0";"1";"134";"133";"module.training_block4.exec-7472.GoNoGo4";;;;;;;;;;;;;;;;;;;;;;;;;;;;;;;;;;;;;;;;;;;;;;;;;;;;;;;;;;;"1259";"2014-08-02 11:30:46.457";"NST_correctLoc";"11";"0";"FINISHED";"LEFT";"success";"534";"0";"2014-08-02 11:30:45.193";"2";;;;;;;;;;;;;;;;;;;;;
"pbeach1";"1946";;"Windows 7";"Rachel's Experiment (D.T.)";"1.0";"2";"1";"1";"2";"1";"1";"2014-08-02 11:22:21.796";"2014-08-02 11:39:48.403";"1";"0";"1";"135";"134";"module.training_block4.exec-7472.GoNoGo4";;;;;;;;;;;;;;;;;;;;;;;;;;;;;;;;;;;;;;;;;;;;;;;;;;;;;;;;;;;"1259";"2014-08-02 11:30:49.000";"NST_correctLoc";"21";"0";"FINISHED";"LEFT";"success";"464";"0";"2014-08-02 11:30:47.736";"3";;;;;;;;;;;;;;;;;;;;;
"pbeach1";"1946";;"Windows 7";"Rachel's Experiment (D.T.)";"1.0";"2";"1";"1";"2";"1";"1";"2014-08-02 11:22:21.796";"2014-08-02 11:39:48.403";"1";"0";"1";"136";"135";"module.training_block4.exec-7472.GoNoGo4";;;;;;;;;;;;;;;;;;;;;;;;;;;;;;;;;;;;;;;;;;;;;;;;;;;;;;;;;;;"1259";"2014-08-02 11:30:51.543";"NST_correctLoc";"8";"0";"FINISHED";"LEFT";"success";"500";"0";"2014-08-02 11:30:50.279";"1";;;;;;;;;;;;;;;;;;;;;
"pbeach1";"1946";;"Windows 7";"Rachel's Experiment (D.T.)";"1.0";"2";"1";"1";"2";"1";"1";"2014-08-02 11:22:21.796";"2014-08-02 11:39:48.403";"1";"0";"1";"137";"136";"module.training_block4.exec-7472.GoNoGo4";;;;;;;;;;;;;;;;;;;;;;;;;;;;;;;;;;;;;;;;;;;;;;;;;;;;;;;;;;;"1259";"2014-08-02 11:30:54.101";"NST_correctLoc";"24";"1";"FINISHED";"RIGHT";"success";"471";"0";"2014-08-02 11:30:52.837";"3";;;;;;;;;;;;;;;;;;;;;
"pbeach1";"1946";;"Windows 7";"Rachel's Experiment (D.T.)";"1.0";"2";"1";"1";"2";"1";"1";"2014-08-02 11:22:21.796";"2014-08-02 11:39:48.403";"1";"0";"1";"138";"137";"module.training_block4.exec-7472.GoNoGo4";;;;;;;;;;;;;;;;;;;;;;;;;;;;;;;;;;;;;;;;;;;;;;;;;;;;;;;;;;;"1259";"2014-08-02 11:30:56.644";"NST_correctLoc";"17";"0";"FINISHED";"LEFT";"success";"425";"0";"2014-08-02 11:30:55.380";"2";;;;;;;;;;;;;;;;;;;;;
"pbeach1";"1946";;"Windows 7";"Rachel's Experiment (D.T.)";"1.0";"2";"1";"1";"2";"1";"1";"2014-08-02 11:22:21.796";"2014-08-02 11:39:48.403";"1";"0";"1";"139";"138";"module.training_block4.exec-7472.GoNoGo4";;;;;;;;;;;;;;;;;;;;;;;;;;;;;;;;;;;;;;;;;;;;;;;;;;;;;;;;;;;"1259";"2014-08-02 11:30:59.187";"NST_correctLoc";"25";"1";"FINISHED";"RIGHT";"success";"445";"0";"2014-08-02 11:30:57.923";"3";;;;;;;;;;;;;;;;;;;;;
"pbeach1";"1946";;"Windows 7";"Rachel's Experiment (D.T.)";"1.0";"2";"1";"1";"2";"1";"1";"2014-08-02 11:22:21.796";"2014-08-02 11:39:48.403";"1";"0";"1";"140";"139";"module.training_block4.exec-7472.GoNoGo4";;;;;;;;;;;;;;;;;;;;;;;;;;;;;;;;;;;;;;;;;;;;;;;;;;;;;;;;;;;"1259";"2014-08-02 11:31:01.729";"NST_correctLoc";"1";"0";"FINISHED";"LEFT";"success";"628";"0";"2014-08-02 11:31:00.466";"1";;;;;;;;;;;;;;;;;;;;;
"pbeach1";"1946";;"Windows 7";"Rachel's Experiment (D.T.)";"1.0";"2";"1";"1";"2";"1";"1";"2014-08-02 11:22:21.796";"2014-08-02 11:39:48.403";"1";"0";"1";"141";"140";"module.training_block4.exec-7472.GoNoGo4";;;;;;;;;;;;;;;;;;;;;;;;;;;;;;;;;;;;;;;;;;;;;;;;;;;;;;;;;;;"1259";"2014-08-02 11:31:04.272";"NST_correctLoc";"23";"0";"FINISHED";"LEFT";"success";"504";"0";"2014-08-02 11:31:03.009";"3";;;;;;;;;;;;;;;;;;;;;
"pbeach1";"1946";;"Windows 7";"Rachel's Experiment (D.T.)";"1.0";"2";"1";"1";"2";"1";"1";"2014-08-02 11:22:21.796";"2014-08-02 11:39:48.403";"1";"0";"1";"142";"141";"module.training_block4.exec-7472.GoNoGo4";;;;;;;;;;;;;;;;;;;;;;;;;;;;;;;;;;;;;;;;;;;;;;;;;;;;;;;;;;;"1259";"2014-08-02 11:31:06.831";"NST_correctLoc";"33";"1";"FINISHED";"RIGHT";"success";"429";"0";"2014-08-02 11:31:05.567";"3";;;;;;;;;;;;;;;;;;;;;
"pbeach1";"1946";;"Windows 7";"Rachel's Experiment (D.T.)";"1.0";"2";"1";"1";"2";"1";"1";"2014-08-02 11:22:21.796";"2014-08-02 11:39:48.403";"1";"0";"1";"143";"142";"module.training_block4.exec-7472.GoNoGo4";;;;;;;;;;;;;;;;;;;;;;;;;;;;;;;;;;;;;;;;;;;;;;;;;;;;;;;;;;;"1259";"2014-08-02 11:31:09.373";"NST_correctLoc";"31";"0";"FINISHED";"LEFT";"success";"430";"0";"2014-08-02 11:31:08.110";"3";;;;;;;;;;;;;;;;;;;;;
"pbeach1";"1946";;"Windows 7";"Rachel's Experiment (D.T.)";"1.0";"2";"1";"1";"2";"1";"1";"2014-08-02 11:22:21.796";"2014-08-02 11:39:48.403";"1";"0";"1";"144";"143";"module.training_block4.exec-7472.GoNoGo4";;;;;;;;;;;;;;;;;;;;;;;;;;;;;;;;;;;;;;;;;;;;;;;;;;;;;;;;;;;"1259";"2014-08-02 11:31:11.916";"NST_correctLoc";"3";"1";"FINISHED";"RIGHT";"success";"555";"0";"2014-08-02 11:31:10.653";"1";;;;;;;;;;;;;;;;;;;;;
"pbeach1";"1946";;"Windows 7";"Rachel's Experiment (D.T.)";"1.0";"2";"1";"1";"2";"1";"1";"2014-08-02 11:22:21.796";"2014-08-02 11:39:48.403";"1";"0";"1";"145";"144";"module.training_block4.exec-7472.GoNoGo4";;;;;;;;;;;;;;;;;;;;;;;;;;;;;;;;;;;;;;;;;;;;;;;;;;;;;;;;;;;"1259";"2014-08-02 11:31:14.459";"NST_correctLoc";"26";"0";"FINISHED";"LEFT";"success";"513";"0";"2014-08-02 11:31:13.195";"3";;;;;;;;;;;;;;;;;;;;;
"pbeach1";"1946";;"Windows 7";"Rachel's Experiment (D.T.)";"1.0";"2";"1";"1";"2";"1";"1";"2014-08-02 11:22:21.796";"2014-08-02 11:39:48.403";"1";"0";"1";"146";"145";"module.training_block4.exec-7472.GoNoGo4";;;;;;;;;;;;;;;;;;;;;;;;;;;;;;;;;;;;;;;;;;;;;;;;;;;;;;;;;;;"1259";"2014-08-02 11:31:17.002";"NST_correctLoc";"13";"1";"FINISHED";"RIGHT";"success";"505";"0";"2014-08-02 11:31:15.738";"2";;;;;;;;;;;;;;;;;;;;;
"pbeach1";"1946";;"Windows 7";"Rachel's Experiment (D.T.)";"1.0";"2";"1";"1";"2";"1";"1";"2014-08-02 11:22:21.796";"2014-08-02 11:39:48.403";"1";"0";"1";"147";"146";"module.training_block4.exec-7472.GoNoGo4";;;;;;;;;;;;;;;;;;;;;;;;;;;;;;;;;;;;;;;;;;;;;;;;;;;;;;;;;;;"1259";"2014-08-02 11:31:19.545";"NST_correctLoc";"27";"1";"FINISHED";"RIGHT";"success";"550";"0";"2014-08-02 11:31:18.281";"3";;;;;;;;;;;;;;;;;;;;;
"pbeach1";"1946";;"Windows 7";"Rachel's Experiment (D.T.)";"1.0";"2";"1";"1";"2";"1";"1";"2014-08-02 11:22:21.796";"2014-08-02 11:39:48.403";"1";"0";"1";"148";"147";"module.training_block4.exec-7472.GoNoGo4";;;;;;;;;;;;;;;;;;;;;;;;;;;;;;;;;;;;;;;;;;;;;;;;;;;;;;;;;;;"1259";"2014-08-02 11:31:22.087";"NST_correctLoc";"4";"0";"FINISHED";"LEFT";"success";"516";"0";"2014-08-02 11:31:20.824";"1";;;;;;;;;;;;;;;;;;;;;
"pbeach1";"1946";;"Windows 7";"Rachel's Experiment (D.T.)";"1.0";"2";"1";"1";"2";"1";"1";"2014-08-02 11:22:21.796";"2014-08-02 11:39:48.403";"1";"0";"1";"149";"148";"module.training_block4.exec-7472.GoNoGo4";;;;;;;;;;;;;;;;;;;;;;;;;;;;;;;;;;;;;;;;;;;;;;;;;;;;;;;;;;;"1259";"2014-08-02 11:31:24.630";"NST_correctLoc";"16";"1";"FINISHED";"RIGHT";"success";"576";"0";"2014-08-02 11:31:23.367";"2";;;;;;;;;;;;;;;;;;;;;
"pbeach1";"1946";;"Windows 7";"Rachel's Experiment (D.T.)";"1.0";"2";"1";"1";"2";"1";"1";"2014-08-02 11:22:21.796";"2014-08-02 11:39:48.403";"1";"0";"1";"150";"149";"module.training_block4.exec-7472.GoNoGo4";;;;;;;;;;;;;;;;;;;;;;;;;;;;;;;;;;;;;;;;;;;;;;;;;;;;;;;;;;;"1259";"2014-08-02 11:31:27.173";"NST_correctLoc";"12";"0";"FINISHED";"LEFT";"success";"493";"0";"2014-08-02 11:31:25.909";"2";;;;;;;;;;;;;;;;;;;;;
"pbeach1";"1946";;"Windows 7";"Rachel's Experiment (D.T.)";"1.0";"2";"1";"1";"2";"1";"1";"2014-08-02 11:22:21.796";"2014-08-02 11:39:48.403";"1";"0";"1";"151";"150";"module.training_block4.exec-7472.GoNoGo4";;;;;;;;;;;;;;;;;;;;;;;;;;;;;;;;;;;;;;;;;;;;;;;;;;;;;;;;;;;"1259";"2014-08-02 11:31:29.716";"NST_correctLoc";"9";"0";"FINISHED";"LEFT";"success";"581";"0";"2014-08-02 11:31:28.452";"2";;;;;;;;;;;;;;;;;;;;;
"pbeach1";"1946";;"Windows 7";"Rachel's Experiment (D.T.)";"1.0";"2";"1";"1";"2";"1";"1";"2014-08-02 11:22:21.796";"2014-08-02 11:39:48.403";"1";"0";"1";"152";"151";"module.training_block4.exec-7472.GoNoGo4";;;;;;;;;;;;;;;;;;;;;;;;;;;;;;;;;;;;;;;;;;;;;;;;;;;;;;;;;;;"1259";"2014-08-02 11:31:32.259";"NST_correctLoc";"5";"1";"FINISHED";"RIGHT";"success";"478";"0";"2014-08-02 11:31:30.995";"1";;;;;;;;;;;;;;;;;;;;;
"pbeach1";"1946";;"Windows 7";"Rachel's Experiment (D.T.)";"1.0";"2";"1";"1";"2";"1";"1";"2014-08-02 11:22:21.796";"2014-08-02 11:39:48.403";"1";"0";"1";"153";"152";"module.training_block4.exec-7472.GoNoGo4";;;;;;;;;;;;;;;;;;;;;;;;;;;;;;;;;;;;;;;;;;;;;;;;;;;;;;;;;;;"1259";"2014-08-02 11:31:34.801";"NST_correctLoc";"35";"1";"FINISHED";"RIGHT";"success";"530";"0";"2014-08-02 11:31:33.538";"3";;;;;;;;;;;;;;;;;;;;;
"pbeach1";"1946";;"Windows 7";"Rachel's Experiment (D.T.)";"1.0";"2";"1";"1";"2";"1";"1";"2014-08-02 11:22:21.796";"2014-08-02 11:39:48.403";"1";"0";"1";"154";"153";"module.training_block4.exec-7472.GoNoGo4";;;;;;;;;;;;;;;;;;;;;;;;;;;;;;;;;;;;;;;;;;;;;;;;;;;;;;;;;;;"1259";"2014-08-02 11:31:37.360";"NST_correctLoc";"34";"0";"FINISHED";"LEFT";"success";"543";"0";"2014-08-02 11:31:36.096";"3";;;;;;;;;;;;;;;;;;;;;
"pbeach1";"1946";;"Windows 7";"Rachel's Experiment (D.T.)";"1.0";"2";"1";"1";"2";"1";"1";"2014-08-02 11:22:21.796";"2014-08-02 11:39:48.403";"1";"0";"1";"155";"154";"module.training_block4.exec-7472.GoNoGo4";;;;;;;;;;;;;;;;;;;;;;;;;;;;;;;;;;;;;;;;;;;;;;;;;;;;;;;;;;;"1259";"2014-08-02 11:31:39.903";"NST_correctLoc";"6";"1";"FINISHED";"RIGHT";"success";"450";"0";"2014-08-02 11:31:38.639";"1";;;;;;;;;;;;;;;;;;;;;
"pbeach1";"1946";;"Windows 7";"Rachel's Experiment (D.T.)";"1.0";"2";"1";"1";"2";"1";"1";"2014-08-02 11:22:21.796";"2014-08-02 11:39:48.403";"1";"0";"1";"156";"155";"module.training_block4.exec-7472.GoNoGo4";;;;;;;;;;;;;;;;;;;;;;;;;;;;;;;;;;;;;;;;;;;;;;;;;;;;;;;;;;;"1259";"2014-08-02 11:31:42.445";"NST_correctLoc";"18";"1";"FINISHED";"RIGHT";"success";"542";"0";"2014-08-02 11:31:41.182";"3";;;;;;;;;;;;;;;;;;;;;
"pbeach1";"1946";;"Windows 7";"Rachel's Experiment (D.T.)";"1.0";"2";"1";"1";"2";"1";"1";"2014-08-02 11:22:21.796";"2014-08-02 11:39:48.403";"1";"0";"1";"157";"156";"module.training_block4.exec-7472.GoNoGo4";;;;;;;;;;;;;;;;;;;;;;;;;;;;;;;;;;;;;;;;;;;;;;;;;;;;;;;;;;;"1259";"2014-08-02 11:31:44.988";"NST_correctLoc";"15";"0";"FINISHED";"LEFT";"success";"494";"0";"2014-08-02 11:31:43.725";"2";;;;;;;;;;;;;;;;;;;;;
"pbeach1";"1946";;"Windows 7";"Rachel's Experiment (D.T.)";"1.0";"2";"1";"1";"2";"1";"1";"2014-08-02 11:22:21.796";"2014-08-02 11:39:48.403";"1";"0";"1";"158";"157";"module.training_block4.exec-7472.GoNoGo4";;;;;;;;;;;;;;;;;;;;;;;;;;;;;;;;;;;;;;;;;;;;;;;;;;;;;;;;;;;"1259";"2014-08-02 11:31:47.531";"NST_correctLoc";"10";"1";"FINISHED";"RIGHT";"success";"585";"0";"2014-08-02 11:31:46.267";"2";;;;;;;;;;;;;;;;;;;;;
"pbeach1";"1946";;"Windows 7";"Rachel's Experiment (D.T.)";"1.0";"2";"1";"1";"2";"1";"1";"2014-08-02 11:22:21.796";"2014-08-02 11:39:48.403";"1";"0";"1";"159";"158";"module.training_block4.exec-7472.GoNoGo4";;;;;;;;;;;;;;;;;;;;;;;;;;;;;;;;;;;;;;;;;;;;;;;;;;;;;;;;;;;"1259";"2014-08-02 11:31:50.089";"NST_correctLoc";"19";"0";"FINISHED";"LEFT";"success";"465";"0";"2014-08-02 11:31:48.826";"3";;;;;;;;;;;;;;;;;;;;;
"pbeach1";"1946";;"Windows 7";"Rachel's Experiment (D.T.)";"1.0";"2";"1";"1";"2";"1";"1";"2014-08-02 11:22:21.796";"2014-08-02 11:39:48.403";"1";"0";"1";"160";"159";"module.devaluation_practice.exec-6057.devalPractice";;;;;;;;;;;;"50500";"2014-08-02 11:33:34.703";"0";"5";"3";"6";"12512";"8223";"26603";"2014-08-02 11:32:44.206";;;;;;;;;;;;;;;;;;;;;;;;;;;;;;;;;;;;;;;;;;;;;;;;;;;;;;;;;;;;;;;;;;;;;;
"pbeach1";"1946";;"Windows 7";"Rachel's Experiment (D.T.)";"1.0";"2";"1";"1";"2";"1";"1";"2014-08-02 11:22:21.796";"2014-08-02 11:39:48.403";"1";"0";"1";"161";"160";"module.devaluation_practice.exec-6057.devalPractice";;;;;;;;;;;;"18338";"2014-08-02 11:33:53.096";"1";"1";"2";"2";"5916";"3769";"5619";"2014-08-02 11:33:34.750";;;;;;;;;;;;;;;;;;;;;;;;;;;;;;;;;;;;;;;;;;;;;;;;;;;;;;;;;;;;;;;;;;;;;;
"pbeach1";"1946";;"Windows 7";"Rachel's Experiment (D.T.)";"1.0";"2";"1";"1";"2";"1";"1";"2014-08-02 11:22:21.796";"2014-08-02 11:39:48.403";"1";"0";"1";"162";"161";"module.devaluation_practice.exec-6057.devalPractice";;;;;;;;;;;;"16811";"2014-08-02 11:34:09.944";"2";"5";"2";"5";"3946";"4534";"5151";"2014-08-02 11:33:53.127";;;;;;;;;;;;;;;;;;;;;;;;;;;;;;;;;;;;;;;;;;;;;;;;;;;;;;;;;;;;;;;;;;;;;;
"pbeach1";"1946";;"Windows 7";"Rachel's Experiment (D.T.)";"1.0";"2";"1";"1";"2";"1";"1";"2014-08-02 11:22:21.796";"2014-08-02 11:39:48.403";"1";"0";"1";"163";"162";"module.devaluation_practice.exec-6057.devalPractice";;;;;;;;;;;;"21170";"2014-08-02 11:34:31.144";"3";"7";"5";"7";"9955";"1765";"6397";"2014-08-02 11:34:09.975";;;;;;;;;;;;;;;;;;;;;;;;;;;;;;;;;;;;;;;;;;;;;;;;;;;;;;;;;;;;;;;;;;;;;;
"pbeach1";"1946";;"Windows 7";"Rachel's Experiment (D.T.)";"1.0";"2";"1";"1";"2";"1";"1";"2014-08-02 11:22:21.796";"2014-08-02 11:39:48.403";"1";"0";"1";"164";"163";"module.devaluation_block1.exec-8186.deval1";"12180";"2014-08-02 11:34:57.243";"19";"7";"5";"7";"3037";"2039";"4051";"2014-08-02 11:34:45.059";"3";;;;;;;;;;;;;;;;;;;;;;;;;;;;;;;;;;;;;;;;;;;;;;;;;;;;;;;;;;;;;;;;;;;;;;;;;;;;;;;;
"pbeach1";"1946";;"Windows 7";"Rachel's Experiment (D.T.)";"1.0";"2";"1";"1";"2";"1";"1";"2014-08-02 11:22:21.796";"2014-08-02 11:39:48.403";"1";"0";"1";"165";"164";"module.devaluation_block1.exec-8186.deval1";"15557";"2014-08-02 11:35:12.844";"9";"3";"3";"3";"6373";"2346";"3796";"2014-08-02 11:34:57.290";"2";;;;;;;;;;;;;;;;;;;;;;;;;;;;;;;;;;;;;;;;;;;;;;;;;;;;;;;;;;;;;;;;;;;;;;;;;;;;;;;;
"pbeach1";"1946";;"Windows 7";"Rachel's Experiment (D.T.)";"1.0";"2";"1";"1";"2";"1";"1";"2014-08-02 11:22:21.796";"2014-08-02 11:39:48.403";"1";"0";"1";"166";"165";"module.devaluation_block1.exec-8186.deval1";"15223";"2014-08-02 11:35:28.148";"17";"2";"1";"2";"3797";"4241";"4154";"2014-08-02 11:35:12.922";"2";;;;;;;;;;;;;;;;;;;;;;;;;;;;;;;;;;;;;;;;;;;;;;;;;;;;;;;;;;;;;;;;;;;;;;;;;;;;;;;;
"pbeach1";"1946";;"Windows 7";"Rachel's Experiment (D.T.)";"1.0";"2";"1";"1";"2";"1";"1";"2014-08-02 11:22:21.796";"2014-08-02 11:39:48.403";"1";"0";"1";"167";"166";"module.devaluation_block1.exec-8186.deval1";"8415";"2014-08-02 11:35:36.634";"16";"2";"1";"2";"1789";"1907";"1673";"2014-08-02 11:35:28.226";"2";;;;;;;;;;;;;;;;;;;;;;;;;;;;;;;;;;;;;;;;;;;;;;;;;;;;;;;;;;;;;;;;;;;;;;;;;;;;;;;;
"pbeach1";"1946";;"Windows 7";"Rachel's Experiment (D.T.)";"1.0";"2";"1";"1";"2";"1";"1";"2014-08-02 11:22:21.796";"2014-08-02 11:39:48.403";"1";"0";"1";"168";"167";"module.devaluation_block1.exec-8186.deval1";"16769";"2014-08-02 11:35:53.482";"24";"7";"6";"7";"5318";"3883";"4521";"2014-08-02 11:35:36.712";"3";;;;;;;;;;;;;;;;;;;;;;;;;;;;;;;;;;;;;;;;;;;;;;;;;;;;;;;;;;;;;;;;;;;;;;;;;;;;;;;;
"pbeach1";"1946";;"Windows 7";"Rachel's Experiment (D.T.)";"1.0";"2";"1";"1";"2";"1";"1";"2014-08-02 11:22:21.796";"2014-08-02 11:39:48.403";"1";"0";"1";"169";"168";"module.devaluation_block1.exec-8186.deval1";"11691";"2014-08-02 11:36:05.244";"7";"5";"4";"5";"2290";"3918";"2431";"2014-08-02 11:35:53.560";"1";;;;;;;;;;;;;;;;;;;;;;;;;;;;;;;;;;;;;;;;;;;;;;;;;;;;;;;;;;;;;;;;;;;;;;;;;;;;;;;;
"pbeach1";"1946";;"Windows 7";"Rachel's Experiment (D.T.)";"1.0";"2";"1";"1";"2";"1";"1";"2014-08-02 11:22:21.796";"2014-08-02 11:39:48.403";"1";"0";"1";"170";"169";"module.devaluation_block1.exec-8186.deval1";"9186";"2014-08-02 11:36:14.495";"21";"5";"5";"5";"3769";"557";"1815";"2014-08-02 11:36:05.307";"3";;;;;;;;;;;;;;;;;;;;;;;;;;;;;;;;;;;;;;;;;;;;;;;;;;;;;;;;;;;;;;;;;;;;;;;;;;;;;;;;
"pbeach1";"1946";;"Windows 7";"Rachel's Experiment (D.T.)";"1.0";"2";"1";"1";"2";"1";"1";"2014-08-02 11:22:21.796";"2014-08-02 11:39:48.403";"1";"0";"1";"171";"170";"module.devaluation_block1.exec-8186.deval1";"13527";"2014-08-02 11:36:28.083";"14";"6";"5";"6";"5514";"567";"4398";"2014-08-02 11:36:14.558";"2";;;;;;;;;;;;;;;;;;;;;;;;;;;;;;;;;;;;;;;;;;;;;;;;;;;;;;;;;;;;;;;;;;;;;;;;;;;;;;;;
"pbeach1";"1946";;"Windows 7";"Rachel's Experiment (D.T.)";"1.0";"2";"1";"1";"2";"1";"1";"2014-08-02 11:22:21.796";"2014-08-02 11:39:48.403";"1";"0";"1";"172";"171";"module.devaluation_block1.exec-8186.deval1";"12915";"2014-08-02 11:36:41.093";"12";"7";"7";"7";"4021";"2146";"3692";"2014-08-02 11:36:28.177";"2";;;;;;;;;;;;;;;;;;;;;;;;;;;;;;;;;;;;;;;;;;;;;;;;;;;;;;;;;;;;;;;;;;;;;;;;;;;;;;;;
"pbeach1";"1946";;"Windows 7";"Rachel's Experiment (D.T.)";"1.0";"2";"1";"1";"2";"1";"1";"2014-08-02 11:22:21.796";"2014-08-02 11:39:48.403";"1";"0";"1";"173";"172";"module.devaluation_block1.exec-8186.deval1";"11911";"2014-08-02 11:36:53.059";"26";"6";"5";"7";"4332";"554";"3980";"2014-08-02 11:36:41.156";"3";;;;;;;;;;;;;;;;;;;;;;;;;;;;;;;;;;;;;;;;;;;;;;;;;;;;;;;;;;;;;;;;;;;;;;;;;;;;;;;;
"pbeach1";"1946";;"Windows 7";"Rachel's Experiment (D.T.)";"1.0";"2";"1";"1";"2";"1";"1";"2014-08-02 11:22:21.796";"2014-08-02 11:39:48.403";"1";"0";"1";"174";"173";"module.devaluation_block1.exec-8186.deval1";"10248";"2014-08-02 11:37:03.370";"23";"5";"4";"5";"1112";"5126";"967";"2014-08-02 11:36:53.121";"3";;;;;;;;;;;;;;;;;;;;;;;;;;;;;;;;;;;;;;;;;;;;;;;;;;;;;;;;;;;;;;;;;;;;;;;;;;;;;;;;
"pbeach1";"1946";;"Windows 7";"Rachel's Experiment (D.T.)";"1.0";"2";"1";"1";"2";"1";"1";"2014-08-02 11:22:21.796";"2014-08-02 11:39:48.403";"1";"0";"1";"175";"174";"module.devaluation_block1.exec-8186.deval1";"10870";"2014-08-02 11:37:14.306";"11";"4";"2";"4";"3151";"2408";"2273";"2014-08-02 11:37:03.433";"2";;;;;;;;;;;;;;;;;;;;;;;;;;;;;;;;;;;;;;;;;;;;;;;;;;;;;;;;;;;;;;;;;;;;;;;;;;;;;;;;
"pbeach1";"1946";;"Windows 7";"Rachel's Experiment (D.T.)";"1.0";"2";"1";"1";"2";"1";"1";"2014-08-02 11:22:21.796";"2014-08-02 11:39:48.403";"1";"0";"1";"176";"175";"module.devaluation_block1.exec-8186.deval1";"11698";"2014-08-02 11:37:26.084";"3";"7";"7";"7";"3142";"2494";"3003";"2014-08-02 11:37:14.384";"1";;;;;;;;;;;;;;;;;;;;;;;;;;;;;;;;;;;;;;;;;;;;;;;;;;;;;;;;;;;;;;;;;;;;;;;;;;;;;;;;
"pbeach1";"1946";;"Windows 7";"Rachel's Experiment (D.T.)";"1.0";"2";"1";"1";"2";"1";"1";"2014-08-02 11:22:21.796";"2014-08-02 11:39:48.403";"1";"0";"1";"177";"176";"module.devaluation_block1.exec-8186.deval1";"8225";"2014-08-02 11:37:34.367";"15";"3";"2";"3";"2305";"1486";"1386";"2014-08-02 11:37:26.146";"2";;;;;;;;;;;;;;;;;;;;;;;;;;;;;;;;;;;;;;;;;;;;;;;;;;;;;;;;;;;;;;;;;;;;;;;;;;;;;;;;
"pbeach1";"1946";;"Windows 7";"Rachel's Experiment (D.T.)";"1.0";"2";"1";"1";"2";"1";"1";"2014-08-02 11:22:21.796";"2014-08-02 11:39:48.403";"1";"0";"1";"178";"177";"module.devaluation_block1.exec-8186.deval1";"10408";"2014-08-02 11:37:44.851";"6";"4";"2";"3";"2371";"1468";"3527";"2014-08-02 11:37:34.445";"1";;;;;;;;;;;;;;;;;;;;;;;;;;;;;;;;;;;;;;;;;;;;;;;;;;;;;;;;;;;;;;;;;;;;;;;;;;;;;;;;
"pbeach1";"1946";;"Windows 7";"Rachel's Experiment (D.T.)";"1.0";"2";"1";"1";"2";"1";"1";"2014-08-02 11:22:21.796";"2014-08-02 11:39:48.403";"1";"0";"1";"179";"178";"module.devaluation_block1.exec-8186.deval1";"8098";"2014-08-02 11:37:53.025";"8";"3";"3";"3";"2179";"1302";"1581";"2014-08-02 11:37:44.929";"1";;;;;;;;;;;;;;;;;;;;;;;;;;;;;;;;;;;;;;;;;;;;;;;;;;;;;;;;;;;;;;;;;;;;;;;;;;;;;;;;
"pbeach1";"1946";;"Windows 7";"Rachel's Experiment (D.T.)";"1.0";"2";"1";"1";"2";"1";"1";"2014-08-02 11:22:21.796";"2014-08-02 11:39:48.403";"1";"0";"1";"180";"179";"module.devaluation_block1.exec-8186.deval1";"10880";"2014-08-02 11:38:03.992";"0";"5";"3";"4";"1893";"1054";"4897";"2014-08-02 11:37:53.119";"1";;;;;;;;;;;;;;;;;;;;;;;;;;;;;;;;;;;;;;;;;;;;;;;;;;;;;;;;;;;;;;;;;;;;;;;;;;;;;;;;
"pbeach1";"1946";;"Windows 7";"Rachel's Experiment (D.T.)";"1.0";"2";"1";"1";"2";"1";"1";"2014-08-02 11:22:21.796";"2014-08-02 11:39:48.403";"1";"0";"1";"181";"180";"module.devaluation_block1.exec-8186.deval1";"7761";"2014-08-02 11:38:11.823";"1";"5";"5";"5";"2162";"537";"2007";"2014-08-02 11:38:04.070";"1";;;;;;;;;;;;;;;;;;;;;;;;;;;;;;;;;;;;;;;;;;;;;;;;;;;;;;;;;;;;;;;;;;;;;;;;;;;;;;;;
"pbeach1";"1946";;"Windows 7";"Rachel's Experiment (D.T.)";"1.0";"2";"1";"1";"2";"1";"1";"2014-08-02 11:22:21.796";"2014-08-02 11:39:48.403";"1";"0";"1";"182";"181";"module.devaluation_block1.exec-8186.deval1";"11142";"2014-08-02 11:38:23.055";"20";"4";"4";"5";"3830";"1236";"3044";"2014-08-02 11:38:11.917";"3";;;;;;;;;;;;;;;;;;;;;;;;;;;;;;;;;;;;;;;;;;;;;;;;;;;;;;;;;;;;;;;;;;;;;;;;;;;;;;;;
"pbeach1";"1946";;"Windows 7";"Rachel's Experiment (D.T.)";"1.0";"2";"1";"1";"2";"1";"1";"2014-08-02 11:22:21.796";"2014-08-02 11:39:48.403";"1";"0";"1";"183";"182";"module.devaluation_block1.exec-8186.deval1";"9903";"2014-08-02 11:38:33.039";"22";"6";"5";"6";"3538";"1470";"1851";"2014-08-02 11:38:23.133";"3";;;;;;;;;;;;;;;;;;;;;;;;;;;;;;;;;;;;;;;;;;;;;;;;;;;;;;;;;;;;;;;;;;;;;;;;;;;;;;;;
"pbeach1";"1946";;"Windows 7";"Rachel's Experiment (D.T.)";"1.0";"2";"1";"1";"2";"1";"1";"2014-08-02 11:22:21.796";"2014-08-02 11:39:48.403";"1";"0";"1";"184";"183";"module.devaluation_block1.exec-8186.deval1";"10280";"2014-08-02 11:38:43.398";"25";"7";"5";"7";"2821";"1078";"3334";"2014-08-02 11:38:33.117";"3";;;;;;;;;;;;;;;;;;;;;;;;;;;;;;;;;;;;;;;;;;;;;;;;;;;;;;;;;;;;;;;;;;;;;;;;;;;;;;;;
"pbeach1";"1946";;"Windows 7";"Rachel's Experiment (D.T.)";"1.0";"2";"1";"1";"2";"1";"1";"2014-08-02 11:22:21.796";"2014-08-02 11:39:48.403";"1";"0";"1";"185";"184";"module.devaluation_block1.exec-8186.deval1";"5683";"2014-08-02 11:38:49.154";"4";"5";"5";"5";"665";"1204";"772";"2014-08-02 11:38:43.476";"1";;;;;;;;;;;;;;;;;;;;;;;;;;;;;;;;;;;;;;;;;;;;;;;;;;;;;;;;;;;;;;;;;;;;;;;;;;;;;;;;
"pbeach1";"1946";;"Windows 7";"Rachel's Experiment (D.T.)";"1.0";"2";"1";"1";"2";"1";"1";"2014-08-02 11:22:21.796";"2014-08-02 11:39:48.403";"1";"0";"1";"186";"185";"module.devaluation_block1.exec-8186.deval1";"12522";"2014-08-02 11:39:01.790";"18";"2";"2";"3";"4305";"1810";"3366";"2014-08-02 11:38:49.263";"3";;;;;;;;;;;;;;;;;;;;;;;;;;;;;;;;;;;;;;;;;;;;;;;;;;;;;;;;;;;;;;;;;;;;;;;;;;;;;;;;
"pbeach1";"1946";;"Windows 7";"Rachel's Experiment (D.T.)";"1.0";"2";"1";"1";"2";"1";"1";"2014-08-02 11:22:21.796";"2014-08-02 11:39:48.403";"1";"0";"1";"187";"186";"module.devaluation_block1.exec-8186.deval1";"12343";"2014-08-02 11:39:14.208";"5";"7";"6";"7";"4427";"2354";"2509";"2014-08-02 11:39:01.868";"1";;;;;;;;;;;;;;;;;;;;;;;;;;;;;;;;;;;;;;;;;;;;;;;;;;;;;;;;;;;;;;;;;;;;;;;;;;;;;;;;
"pbeach1";"1946";;"Windows 7";"Rachel's Experiment (D.T.)";"1.0";"2";"1";"1";"2";"1";"1";"2014-08-02 11:22:21.796";"2014-08-02 11:39:48.403";"1";"0";"1";"188";"187";"module.devaluation_block1.exec-8186.deval1";"6606";"2014-08-02 11:39:20.884";"10";"5";"4";"5";"1209";"1574";"787";"2014-08-02 11:39:14.270";"2";;;;;;;;;;;;;;;;;;;;;;;;;;;;;;;;;;;;;;;;;;;;;;;;;;;;;;;;;;;;;;;;;;;;;;;;;;;;;;;;
"pbeach1";"1946";;"Windows 7";"Rachel's Experiment (D.T.)";"1.0";"2";"1";"1";"2";"1";"1";"2014-08-02 11:22:21.796";"2014-08-02 11:39:48.403";"1";"0";"1";"189";"188";"module.devaluation_block1.exec-8186.deval1";"9287";"2014-08-02 11:39:30.244";"2";"4";"4";"4";"3819";"1269";"1154";"2014-08-02 11:39:20.962";"1";;;;;;;;;;;;;;;;;;;;;;;;;;;;;;;;;;;;;;;;;;;;;;;;;;;;;;;;;;;;;;;;;;;;;;;;;;;;;;;;
"pbeach1";"1946";;"Windows 7";"Rachel's Experiment (D.T.)";"1.0";"2";"1";"1";"2";"1";"1";"2014-08-02 11:22:21.796";"2014-08-02 11:39:48.403";"1";"0";"1";"190";"189";"module.devaluation_block1.exec-8186.deval1";"12540";"2014-08-02 11:39:42.865";"13";"5";"3";"5";"4273";"2387";"2832";"2014-08-02 11:39:30.322";"2";;;;;;;;;;;;;;;;;;;;;;;;;;;;;;;;;;;;;;;;;;;;;;;;;;;;;;;;;;;;;;;;;;;;;;;;;;;;;;;;
