"user.name";"user.yearOfBirth";"user.sex";"user.osName";"module.name";"module.version";"module.online.subject.code";"module.online.study.id";"module.online.module.nr";"module.online.group.nr";"session.id";"session.index";"session.startTime";"session.endTime";"session.completed";"session.node-6521.conditionType";"session.node-8412.DevalQorder";"trial.id";"trial.index";"trial.name";"trial.deval1.durationTime";"trial.deval1.endTime";"trial.deval1.icon";"trial.deval1.Resp_Attractive";"trial.deval1.Resp_Eat";"trial.deval1.Resp_Taste";"trial.deval1.RT_Attractive";"trial.deval1.RT_Eat";"trial.deval1.RT_Taste";"trial.deval1.startTime";"trial.deval1.stimulus type";"trial.devalPractice.durationTime";"trial.devalPractice.endTime";"trial.devalPractice.icon";"trial.devalPractice.Resp_Attractive";"trial.devalPractice.Resp_Eat";"trial.devalPractice.Resp_Taste";"trial.devalPractice.RT_Attractive";"trial.devalPractice.RT_Eat";"trial.devalPractice.RT_Taste";"trial.devalPractice.startTime";"trial.devalPractice.stimulus type";"trial.GoNoGo1.durationTime";"trial.GoNoGo1.endTime";"trial.GoNoGo1.Error Type";"trial.GoNoGo1.icon";"trial.GoNoGo1.location";"trial.GoNoGo1.outcome";"trial.GoNoGo1.response";"trial.GoNoGo1.result";"trial.GoNoGo1.RT";"trial.GoNoGo1.signal";"trial.GoNoGo1.startTime";"trial.GoNoGo1.stimulus type";"trial.GoNoGo2.durationTime";"trial.GoNoGo2.endTime";"trial.GoNoGo2.Error Type";"trial.GoNoGo2.icon";"trial.GoNoGo2.location";"trial.GoNoGo2.outcome";"trial.GoNoGo2.response";"trial.GoNoGo2.result";"trial.GoNoGo2.RT";"trial.GoNoGo2.signal";"trial.GoNoGo2.startTime";"trial.GoNoGo2.stimulus type";"trial.GoNoGo3.durationTime";"trial.GoNoGo3.endTime";"trial.GoNoGo3.Error Type";"trial.GoNoGo3.icon";"trial.GoNoGo3.location";"trial.GoNoGo3.outcome";"trial.GoNoGo3.response";"trial.GoNoGo3.result";"trial.GoNoGo3.RT";"trial.GoNoGo3.signal";"trial.GoNoGo3.startTime";"trial.GoNoGo3.stimulus type";"trial.GoNoGo4.durationTime";"trial.GoNoGo4.endTime";"trial.GoNoGo4.Error Type";"trial.GoNoGo4.icon";"trial.GoNoGo4.location";"trial.GoNoGo4.outcome";"trial.GoNoGo4.response";"trial.GoNoGo4.result";"trial.GoNoGo4.RT";"trial.GoNoGo4.signal";"trial.GoNoGo4.startTime";"trial.GoNoGo4.stimulus type";"trial.GoNoGo_Practice.durationTime";"trial.GoNoGo_Practice.endTime";"trial.GoNoGo_Practice.icon";"trial.GoNoGo_Practice.location";"trial.GoNoGo_Practice.outcome";"trial.GoNoGo_Practice.response";"trial.GoNoGo_Practice.result";"trial.GoNoGo_Practice.RT";"trial.GoNoGo_Practice.signal";"trial.GoNoGo_Practice.startTime";"trial.GoNoGo_Practice.stimulus type";"trial.GoNoGo_Tutorial.durationTime";"trial.GoNoGo_Tutorial.endTime";"trial.GoNoGo_Tutorial.icon";"trial.GoNoGo_Tutorial.location";"trial.GoNoGo_Tutorial.outcome";"trial.GoNoGo_Tutorial.response";"trial.GoNoGo_Tutorial.result";"trial.GoNoGo_Tutorial.RT";"trial.GoNoGo_Tutorial.signal";"trial.GoNoGo_Tutorial.startTime"
"HJB30GS";"1956";;"Windows 7";"Rachel's Experiment (D.T.)";"1.0";"2";"1";"1";"2";"1";"1";"2014-09-12 11:25:56.113";"2014-09-12 11:42:33.298";"1";"1";"0";"1";"0";"module.GoNoGotutorial.exec-5883.GoNoGo_Tutorial";;;;;;;;;;;;;;;;;;;;;;;;;;;;;;;;;;;;;;;;;;;;;;;;;;;;;;;;;;;;;;;;;;;;;;;;;;;;;;;;;;"3999";"2014-09-12 11:27:56.810";"leftResponse";"0";"FINISHED";"LEFT";"success";"2750";"0";"2014-09-12 11:27:52.801"
"HJB30GS";"1956";;"Windows 7";"Rachel's Experiment (D.T.)";"1.0";"2";"1";"1";"2";"1";"1";"2014-09-12 11:25:56.113";"2014-09-12 11:42:33.298";"1";"1";"0";"2";"1";"module.GoNoGotutorial.exec-5883.GoNoGo_Tutorial";;;;;;;;;;;;;;;;;;;;;;;;;;;;;;;;;;;;;;;;;;;;;;;;;;;;;;;;;;;;;;;;;;;;;;;;;;;;;;;;;;"3995";"2014-09-12 11:28:02.130";"rightResponse";"1";"FINISHED";"RIGHT";"success";"1998";"0";"2014-09-12 11:27:58.121"
"HJB30GS";"1956";;"Windows 7";"Rachel's Experiment (D.T.)";"1.0";"2";"1";"1";"2";"1";"1";"2014-09-12 11:25:56.113";"2014-09-12 11:42:33.298";"1";"1";"0";"3";"2";"module.GoNoGotutorial.exec-5883.GoNoGo_Tutorial";;;;;;;;;;;;;;;;;;;;;;;;;;;;;;;;;;;;;;;;;;;;;;;;;;;;;;;;;;;;;;;;;;;;;;;;;;;;;;;;;;"3998";"2014-09-12 11:28:07.449";"signalResponse";"0";"FINISHED";"NONE";"success";"0";"1";"2014-09-12 11:28:03.440"
"HJB30GS";"1956";;"Windows 7";"Rachel's Experiment (D.T.)";"1.0";"2";"1";"1";"2";"1";"1";"2014-09-12 11:25:56.113";"2014-09-12 11:42:33.298";"1";"1";"0";"4";"3";"module.GoNoGopractice.exec-3129.GoNoGo_Practice";;;;;;;;;;;;;;;;;;;;;;;;;;;;;;;;;;;;;;;;;;;;;;;;;;;;;;;;;;;;;;;;;;;;;;;"1965";"2014-09-12 11:28:17.543";"18";"0";"FINISHED";"NONE";"failure";"0";"0";"2014-09-12 11:28:15.577";"3";;;;;;;;;;
"HJB30GS";"1956";;"Windows 7";"Rachel's Experiment (D.T.)";"1.0";"2";"1";"1";"2";"1";"1";"2014-09-12 11:25:56.113";"2014-09-12 11:42:33.298";"1";"1";"0";"5";"4";"module.GoNoGopractice.exec-3129.GoNoGo_Practice";;;;;;;;;;;;;;;;;;;;;;;;;;;;;;;;;;;;;;;;;;;;;;;;;;;;;;;;;;;;;;;;;;;;;;;"1963";"2014-09-12 11:28:20.850";"21";"1";"FINISHED";"NONE";"failure";"0";"0";"2014-09-12 11:28:18.884";"3";;;;;;;;;;
"HJB30GS";"1956";;"Windows 7";"Rachel's Experiment (D.T.)";"1.0";"2";"1";"1";"2";"1";"1";"2014-09-12 11:25:56.113";"2014-09-12 11:42:33.298";"1";"1";"0";"6";"5";"module.GoNoGopractice.exec-3129.GoNoGo_Practice";;;;;;;;;;;;;;;;;;;;;;;;;;;;;;;;;;;;;;;;;;;;;;;;;;;;;;;;;;;;;;;;;;;;;;;"1952";"2014-09-12 11:28:24.110";"14";"1";"FINISHED";"RIGHT";"failure";"948";"1";"2014-09-12 11:28:22.145";"2";;;;;;;;;;
"HJB30GS";"1956";;"Windows 7";"Rachel's Experiment (D.T.)";"1.0";"2";"1";"1";"2";"1";"1";"2014-09-12 11:25:56.113";"2014-09-12 11:42:33.298";"1";"1";"0";"7";"6";"module.GoNoGopractice.exec-3129.GoNoGo_Practice";;;;;;;;;;;;;;;;;;;;;;;;;;;;;;;;;;;;;;;;;;;;;;;;;;;;;;;;;;;;;;;;;;;;;;;"1981";"2014-09-12 11:28:27.402";"26";"0";"FINISHED";"LEFT";"success";"601";"0";"2014-09-12 11:28:25.405";"3";;;;;;;;;;
"HJB30GS";"1956";;"Windows 7";"Rachel's Experiment (D.T.)";"1.0";"2";"1";"1";"2";"1";"1";"2014-09-12 11:25:56.113";"2014-09-12 11:42:33.298";"1";"1";"0";"8";"7";"module.GoNoGopractice.exec-3129.GoNoGo_Practice";;;;;;;;;;;;;;;;;;;;;;;;;;;;;;;;;;;;;;;;;;;;;;;;;;;;;;;;;;;;;;;;;;;;;;;"1954";"2014-09-12 11:28:30.693";"2";"0";"FINISHED";"LEFT";"success";"821";"0";"2014-09-12 11:28:28.728";"1";;;;;;;;;;
"HJB30GS";"1956";;"Windows 7";"Rachel's Experiment (D.T.)";"1.0";"2";"1";"1";"2";"1";"1";"2014-09-12 11:25:56.113";"2014-09-12 11:42:33.298";"1";"1";"0";"9";"8";"module.GoNoGopractice.exec-3129.GoNoGo_Practice";;;;;;;;;;;;;;;;;;;;;;;;;;;;;;;;;;;;;;;;;;;;;;;;;;;;;;;;;;;;;;;;;;;;;;;"1952";"2014-09-12 11:28:33.954";"30";"0";"FINISHED";"LEFT";"failure";"516";"1";"2014-09-12 11:28:31.988";"3";;;;;;;;;;
"HJB30GS";"1956";;"Windows 7";"Rachel's Experiment (D.T.)";"1.0";"2";"1";"1";"2";"1";"1";"2014-09-12 11:25:56.113";"2014-09-12 11:42:33.298";"1";"1";"0";"10";"9";"module.GoNoGopractice.exec-3129.GoNoGo_Practice";;;;;;;;;;;;;;;;;;;;;;;;;;;;;;;;;;;;;;;;;;;;;;;;;;;;;;;;;;;;;;;;;;;;;;;"1951";"2014-09-12 11:28:37.214";"6";"1";"FINISHED";"RIGHT";"failure";"847";"1";"2014-09-12 11:28:35.249";"1";;;;;;;;;;
"HJB30GS";"1956";;"Windows 7";"Rachel's Experiment (D.T.)";"1.0";"2";"1";"1";"2";"1";"1";"2014-09-12 11:25:56.113";"2014-09-12 11:42:33.298";"1";"1";"0";"11";"10";"module.GoNoGopractice.exec-3129.GoNoGo_Practice";;;;;;;;;;;;;;;;;;;;;;;;;;;;;;;;;;;;;;;;;;;;;;;;;;;;;;;;;;;;;;;;;;;;;;;"1952";"2014-09-12 11:28:40.506";"34";"0";"FINISHED";"LEFT";"success";"535";"0";"2014-09-12 11:28:38.540";"3";;;;;;;;;;
"HJB30GS";"1956";;"Windows 7";"Rachel's Experiment (D.T.)";"1.0";"2";"1";"1";"2";"1";"1";"2014-09-12 11:25:56.113";"2014-09-12 11:42:33.298";"1";"1";"0";"12";"11";"module.GoNoGopractice.exec-3129.GoNoGo_Practice";;;;;;;;;;;;;;;;;;;;;;;;;;;;;;;;;;;;;;;;;;;;;;;;;;;;;;;;;;;;;;;;;;;;;;;"1962";"2014-09-12 11:28:43.829";"23";"1";"FINISHED";"RIGHT";"success";"450";"0";"2014-09-12 11:28:41.863";"3";;;;;;;;;;
"HJB30GS";"1956";;"Windows 7";"Rachel's Experiment (D.T.)";"1.0";"2";"1";"1";"2";"1";"1";"2014-09-12 11:25:56.113";"2014-09-12 11:42:33.298";"1";"1";"0";"13";"12";"module.GoNoGopractice.exec-3129.GoNoGo_Practice";;;;;;;;;;;;;;;;;;;;;;;;;;;;;;;;;;;;;;;;;;;;;;;;;;;;;;;;;;;;;;;;;;;;;;;"1950";"2014-09-12 11:28:47.089";"13";"0";"FINISHED";"LEFT";"failure";"365";"1";"2014-09-12 11:28:45.123";"2";;;;;;;;;;
"HJB30GS";"1956";;"Windows 7";"Rachel's Experiment (D.T.)";"1.0";"2";"1";"1";"2";"1";"1";"2014-09-12 11:25:56.113";"2014-09-12 11:42:33.298";"1";"1";"0";"14";"13";"module.GoNoGopractice.exec-3129.GoNoGo_Practice";;;;;;;;;;;;;;;;;;;;;;;;;;;;;;;;;;;;;;;;;;;;;;;;;;;;;;;;;;;;;;;;;;;;;;;"1952";"2014-09-12 11:28:50.349";"3";"1";"FINISHED";"RIGHT";"success";"579";"0";"2014-09-12 11:28:48.384";"1";;;;;;;;;;
"HJB30GS";"1956";;"Windows 7";"Rachel's Experiment (D.T.)";"1.0";"2";"1";"1";"2";"1";"1";"2014-09-12 11:25:56.113";"2014-09-12 11:42:33.298";"1";"1";"0";"15";"14";"module.GoNoGopractice.exec-3129.GoNoGo_Practice";;;;;;;;;;;;;;;;;;;;;;;;;;;;;;;;;;;;;;;;;;;;;;;;;;;;;;;;;;;;;;;;;;;;;;;"1956";"2014-09-12 11:28:53.641";"27";"1";"FINISHED";"RIGHT";"failure";"538";"1";"2014-09-12 11:28:51.675";"3";;;;;;;;;;
"HJB30GS";"1956";;"Windows 7";"Rachel's Experiment (D.T.)";"1.0";"2";"1";"1";"2";"1";"1";"2014-09-12 11:25:56.113";"2014-09-12 11:42:33.298";"1";"1";"0";"16";"15";"module.training_block1.exec-5798.GoNoGo1";;;;;;;;;;;;;;;;;;;;;;;"1261";"2014-09-12 11:29:05.591";"NST_correctLoc";"16";"0";"FINISHED";"LEFT";"success";"493";"0";"2014-09-12 11:29:04.327";"2";;;;;;;;;;;;;;;;;;;;;;;;;;;;;;;;;;;;;;;;;;;;;;;;;;;;;;;;;
"HJB30GS";"1956";;"Windows 7";"Rachel's Experiment (D.T.)";"1.0";"2";"1";"1";"2";"1";"1";"2014-09-12 11:25:56.113";"2014-09-12 11:42:33.298";"1";"1";"0";"17";"16";"module.training_block1.exec-5798.GoNoGo1";;;;;;;;;;;;;;;;;;;;;;;"1253";"2014-09-12 11:29:08.149";"NST_correctLoc";"23";"1";"FINISHED";"RIGHT";"success";"485";"0";"2014-09-12 11:29:06.886";"3";;;;;;;;;;;;;;;;;;;;;;;;;;;;;;;;;;;;;;;;;;;;;;;;;;;;;;;;;
"HJB30GS";"1956";;"Windows 7";"Rachel's Experiment (D.T.)";"1.0";"2";"1";"1";"2";"1";"1";"2014-09-12 11:25:56.113";"2014-09-12 11:42:33.298";"1";"1";"0";"18";"17";"module.training_block1.exec-5798.GoNoGo1";;;;;;;;;;;;;;;;;;;;;;;"1251";"2014-09-12 11:29:10.708";"ST_failedStop";"4";"1";"FINISHED";"RIGHT";"failure";"651";"1";"2014-09-12 11:29:09.444";"1";;;;;;;;;;;;;;;;;;;;;;;;;;;;;;;;;;;;;;;;;;;;;;;;;;;;;;;;;
"HJB30GS";"1956";;"Windows 7";"Rachel's Experiment (D.T.)";"1.0";"2";"1";"1";"2";"1";"1";"2014-09-12 11:25:56.113";"2014-09-12 11:42:33.298";"1";"1";"0";"19";"18";"module.training_block1.exec-5798.GoNoGo1";;;;;;;;;;;;;;;;;;;;;;;"1260";"2014-09-12 11:29:13.313";"ST_failedStop";"0";"0";"FINISHED";"LEFT";"failure";"447";"1";"2014-09-12 11:29:12.049";"1";;;;;;;;;;;;;;;;;;;;;;;;;;;;;;;;;;;;;;;;;;;;;;;;;;;;;;;;;
"HJB30GS";"1956";;"Windows 7";"Rachel's Experiment (D.T.)";"1.0";"2";"1";"1";"2";"1";"1";"2014-09-12 11:25:56.113";"2014-09-12 11:42:33.298";"1";"1";"0";"20";"19";"module.training_block1.exec-5798.GoNoGo1";;;;;;;;;;;;;;;;;;;;;;;"1256";"2014-09-12 11:29:15.871";"NST_correctLoc";"14";"0";"FINISHED";"LEFT";"success";"412";"0";"2014-09-12 11:29:14.608";"2";;;;;;;;;;;;;;;;;;;;;;;;;;;;;;;;;;;;;;;;;;;;;;;;;;;;;;;;;
"HJB30GS";"1956";;"Windows 7";"Rachel's Experiment (D.T.)";"1.0";"2";"1";"1";"2";"1";"1";"2014-09-12 11:25:56.113";"2014-09-12 11:42:33.298";"1";"1";"0";"21";"20";"module.training_block1.exec-5798.GoNoGo1";;;;;;;;;;;;;;;;;;;;;;;"1256";"2014-09-12 11:29:18.414";"ST_failedStop";"21";"0";"FINISHED";"LEFT";"failure";"503";"1";"2014-09-12 11:29:17.150";"3";;;;;;;;;;;;;;;;;;;;;;;;;;;;;;;;;;;;;;;;;;;;;;;;;;;;;;;;;
"HJB30GS";"1956";;"Windows 7";"Rachel's Experiment (D.T.)";"1.0";"2";"1";"1";"2";"1";"1";"2014-09-12 11:25:56.113";"2014-09-12 11:42:33.298";"1";"1";"0";"22";"21";"module.training_block1.exec-5798.GoNoGo1";;;;;;;;;;;;;;;;;;;;;;;"1248";"2014-09-12 11:29:20.972";"NST_correctLoc";"33";"1";"FINISHED";"RIGHT";"success";"393";"0";"2014-09-12 11:29:19.709";"3";;;;;;;;;;;;;;;;;;;;;;;;;;;;;;;;;;;;;;;;;;;;;;;;;;;;;;;;;
"HJB30GS";"1956";;"Windows 7";"Rachel's Experiment (D.T.)";"1.0";"2";"1";"1";"2";"1";"1";"2014-09-12 11:25:56.113";"2014-09-12 11:42:33.298";"1";"1";"0";"23";"22";"module.training_block1.exec-5798.GoNoGo1";;;;;;;;;;;;;;;;;;;;;;;"1256";"2014-09-12 11:29:23.531";"ST_failedStop";"2";"1";"FINISHED";"RIGHT";"failure";"474";"1";"2014-09-12 11:29:22.267";"1";;;;;;;;;;;;;;;;;;;;;;;;;;;;;;;;;;;;;;;;;;;;;;;;;;;;;;;;;
"HJB30GS";"1956";;"Windows 7";"Rachel's Experiment (D.T.)";"1.0";"2";"1";"1";"2";"1";"1";"2014-09-12 11:25:56.113";"2014-09-12 11:42:33.298";"1";"1";"0";"24";"23";"module.training_block1.exec-5798.GoNoGo1";;;;;;;;;;;;;;;;;;;;;;;"1250";"2014-09-12 11:29:26.120";"ST_failedStop";"1";"1";"FINISHED";"RIGHT";"failure";"446";"1";"2014-09-12 11:29:24.857";"1";;;;;;;;;;;;;;;;;;;;;;;;;;;;;;;;;;;;;;;;;;;;;;;;;;;;;;;;;
"HJB30GS";"1956";;"Windows 7";"Rachel's Experiment (D.T.)";"1.0";"2";"1";"1";"2";"1";"1";"2014-09-12 11:25:56.113";"2014-09-12 11:42:33.298";"1";"1";"0";"25";"24";"module.training_block1.exec-5798.GoNoGo1";;;;;;;;;;;;;;;;;;;;;;;"1258";"2014-09-12 11:29:28.850";"NST_correctLoc";"10";"1";"FINISHED";"RIGHT";"success";"600";"0";"2014-09-12 11:29:27.587";"2";;;;;;;;;;;;;;;;;;;;;;;;;;;;;;;;;;;;;;;;;;;;;;;;;;;;;;;;;
"HJB30GS";"1956";;"Windows 7";"Rachel's Experiment (D.T.)";"1.0";"2";"1";"1";"2";"1";"1";"2014-09-12 11:25:56.113";"2014-09-12 11:42:33.298";"1";"1";"0";"26";"25";"module.training_block1.exec-5798.GoNoGo1";;;;;;;;;;;;;;;;;;;;;;;"1250";"2014-09-12 11:29:31.440";"NST_correctLoc";"25";"1";"FINISHED";"RIGHT";"success";"494";"0";"2014-09-12 11:29:30.176";"3";;;;;;;;;;;;;;;;;;;;;;;;;;;;;;;;;;;;;;;;;;;;;;;;;;;;;;;;;
"HJB30GS";"1956";;"Windows 7";"Rachel's Experiment (D.T.)";"1.0";"2";"1";"1";"2";"1";"1";"2014-09-12 11:25:56.113";"2014-09-12 11:42:33.298";"1";"1";"0";"27";"26";"module.training_block1.exec-5798.GoNoGo1";;;;;;;;;;;;;;;;;;;;;;;"1250";"2014-09-12 11:29:33.998";"ST_failedStop";"7";"0";"FINISHED";"LEFT";"failure";"523";"1";"2014-09-12 11:29:32.735";"1";;;;;;;;;;;;;;;;;;;;;;;;;;;;;;;;;;;;;;;;;;;;;;;;;;;;;;;;;
"HJB30GS";"1956";;"Windows 7";"Rachel's Experiment (D.T.)";"1.0";"2";"1";"1";"2";"1";"1";"2014-09-12 11:25:56.113";"2014-09-12 11:42:33.298";"1";"1";"0";"28";"27";"module.training_block1.exec-5798.GoNoGo1";;;;;;;;;;;;;;;;;;;;;;;"1250";"2014-09-12 11:29:36.541";"ST_failedStop";"20";"1";"FINISHED";"RIGHT";"failure";"524";"1";"2014-09-12 11:29:35.278";"3";;;;;;;;;;;;;;;;;;;;;;;;;;;;;;;;;;;;;;;;;;;;;;;;;;;;;;;;;
"HJB30GS";"1956";;"Windows 7";"Rachel's Experiment (D.T.)";"1.0";"2";"1";"1";"2";"1";"1";"2014-09-12 11:25:56.113";"2014-09-12 11:42:33.298";"1";"1";"0";"29";"28";"module.training_block1.exec-5798.GoNoGo1";;;;;;;;;;;;;;;;;;;;;;;"1251";"2014-09-12 11:29:39.084";"NST_correctLoc";"19";"1";"FINISHED";"RIGHT";"success";"920";"0";"2014-09-12 11:29:37.820";"3";;;;;;;;;;;;;;;;;;;;;;;;;;;;;;;;;;;;;;;;;;;;;;;;;;;;;;;;;
"HJB30GS";"1956";;"Windows 7";"Rachel's Experiment (D.T.)";"1.0";"2";"1";"1";"2";"1";"1";"2014-09-12 11:25:56.113";"2014-09-12 11:42:33.298";"1";"1";"0";"30";"29";"module.training_block1.exec-5798.GoNoGo1";;;;;;;;;;;;;;;;;;;;;;;"1250";"2014-09-12 11:29:41.627";"ST_correctStop";"31";"1";"FINISHED";"NONE";"success";"0";"1";"2014-09-12 11:29:40.363";"3";;;;;;;;;;;;;;;;;;;;;;;;;;;;;;;;;;;;;;;;;;;;;;;;;;;;;;;;;
"HJB30GS";"1956";;"Windows 7";"Rachel's Experiment (D.T.)";"1.0";"2";"1";"1";"2";"1";"1";"2014-09-12 11:25:56.113";"2014-09-12 11:42:33.298";"1";"1";"0";"31";"30";"module.training_block1.exec-5798.GoNoGo1";;;;;;;;;;;;;;;;;;;;;;;"1254";"2014-09-12 11:29:44.201";"NST_correctLoc";"9";"1";"FINISHED";"RIGHT";"success";"553";"0";"2014-09-12 11:29:42.937";"2";;;;;;;;;;;;;;;;;;;;;;;;;;;;;;;;;;;;;;;;;;;;;;;;;;;;;;;;;
"HJB30GS";"1956";;"Windows 7";"Rachel's Experiment (D.T.)";"1.0";"2";"1";"1";"2";"1";"1";"2014-09-12 11:25:56.113";"2014-09-12 11:42:33.298";"1";"1";"0";"32";"31";"module.training_block1.exec-5798.GoNoGo1";;;;;;;;;;;;;;;;;;;;;;;"1251";"2014-09-12 11:29:46.759";"NST_correctLoc";"12";"0";"FINISHED";"LEFT";"success";"649";"0";"2014-09-12 11:29:45.496";"2";;;;;;;;;;;;;;;;;;;;;;;;;;;;;;;;;;;;;;;;;;;;;;;;;;;;;;;;;
"HJB30GS";"1956";;"Windows 7";"Rachel's Experiment (D.T.)";"1.0";"2";"1";"1";"2";"1";"1";"2014-09-12 11:25:56.113";"2014-09-12 11:42:33.298";"1";"1";"0";"33";"32";"module.training_block1.exec-5798.GoNoGo1";;;;;;;;;;;;;;;;;;;;;;;"1260";"2014-09-12 11:29:49.318";"ST_correctStop";"8";"1";"FINISHED";"NONE";"success";"0";"1";"2014-09-12 11:29:48.054";"1";;;;;;;;;;;;;;;;;;;;;;;;;;;;;;;;;;;;;;;;;;;;;;;;;;;;;;;;;
"HJB30GS";"1956";;"Windows 7";"Rachel's Experiment (D.T.)";"1.0";"2";"1";"1";"2";"1";"1";"2014-09-12 11:25:56.113";"2014-09-12 11:42:33.298";"1";"1";"0";"34";"33";"module.training_block1.exec-5798.GoNoGo1";;;;;;;;;;;;;;;;;;;;;;;"1249";"2014-09-12 11:29:51.892";"ST_correctStop";"28";"0";"FINISHED";"NONE";"success";"0";"1";"2014-09-12 11:29:50.628";"3";;;;;;;;;;;;;;;;;;;;;;;;;;;;;;;;;;;;;;;;;;;;;;;;;;;;;;;;;
"HJB30GS";"1956";;"Windows 7";"Rachel's Experiment (D.T.)";"1.0";"2";"1";"1";"2";"1";"1";"2014-09-12 11:25:56.113";"2014-09-12 11:42:33.298";"1";"1";"0";"35";"34";"module.training_block1.exec-5798.GoNoGo1";;;;;;;;;;;;;;;;;;;;;;;"1263";"2014-09-12 11:29:54.481";"NST_correctLoc";"29";"1";"FINISHED";"RIGHT";"success";"581";"0";"2014-09-12 11:29:53.218";"3";;;;;;;;;;;;;;;;;;;;;;;;;;;;;;;;;;;;;;;;;;;;;;;;;;;;;;;;;
"HJB30GS";"1956";;"Windows 7";"Rachel's Experiment (D.T.)";"1.0";"2";"1";"1";"2";"1";"1";"2014-09-12 11:25:56.113";"2014-09-12 11:42:33.298";"1";"1";"0";"36";"35";"module.training_block1.exec-5798.GoNoGo1";;;;;;;;;;;;;;;;;;;;;;;"1249";"2014-09-12 11:29:57.024";"ST_correctStop";"3";"0";"FINISHED";"NONE";"success";"0";"1";"2014-09-12 11:29:55.760";"1";;;;;;;;;;;;;;;;;;;;;;;;;;;;;;;;;;;;;;;;;;;;;;;;;;;;;;;;;
"HJB30GS";"1956";;"Windows 7";"Rachel's Experiment (D.T.)";"1.0";"2";"1";"1";"2";"1";"1";"2014-09-12 11:25:56.113";"2014-09-12 11:42:33.298";"1";"1";"0";"37";"36";"module.training_block1.exec-5798.GoNoGo1";;;;;;;;;;;;;;;;;;;;;;;"1251";"2014-09-12 11:29:59.567";"ST_correctStop";"5";"1";"FINISHED";"NONE";"success";"0";"1";"2014-09-12 11:29:58.303";"1";;;;;;;;;;;;;;;;;;;;;;;;;;;;;;;;;;;;;;;;;;;;;;;;;;;;;;;;;
"HJB30GS";"1956";;"Windows 7";"Rachel's Experiment (D.T.)";"1.0";"2";"1";"1";"2";"1";"1";"2014-09-12 11:25:56.113";"2014-09-12 11:42:33.298";"1";"1";"0";"38";"37";"module.training_block1.exec-5798.GoNoGo1";;;;;;;;;;;;;;;;;;;;;;;"1251";"2014-09-12 11:30:02.110";"ST_failedStop";"34";"1";"FINISHED";"RIGHT";"failure";"976";"1";"2014-09-12 11:30:00.846";"3";;;;;;;;;;;;;;;;;;;;;;;;;;;;;;;;;;;;;;;;;;;;;;;;;;;;;;;;;
"HJB30GS";"1956";;"Windows 7";"Rachel's Experiment (D.T.)";"1.0";"2";"1";"1";"2";"1";"1";"2014-09-12 11:25:56.113";"2014-09-12 11:42:33.298";"1";"1";"0";"39";"38";"module.training_block1.exec-5798.GoNoGo1";;;;;;;;;;;;;;;;;;;;;;;"1249";"2014-09-12 11:30:04.652";"NST_correctLoc";"35";"0";"FINISHED";"LEFT";"success";"979";"0";"2014-09-12 11:30:03.389";"3";;;;;;;;;;;;;;;;;;;;;;;;;;;;;;;;;;;;;;;;;;;;;;;;;;;;;;;;;
"HJB30GS";"1956";;"Windows 7";"Rachel's Experiment (D.T.)";"1.0";"2";"1";"1";"2";"1";"1";"2014-09-12 11:25:56.113";"2014-09-12 11:42:33.298";"1";"1";"0";"40";"39";"module.training_block1.exec-5798.GoNoGo1";;;;;;;;;;;;;;;;;;;;;;;"1250";"2014-09-12 11:30:07.195";"NST_correctLoc";"13";"1";"FINISHED";"RIGHT";"success";"919";"0";"2014-09-12 11:30:05.932";"2";;;;;;;;;;;;;;;;;;;;;;;;;;;;;;;;;;;;;;;;;;;;;;;;;;;;;;;;;
"HJB30GS";"1956";;"Windows 7";"Rachel's Experiment (D.T.)";"1.0";"2";"1";"1";"2";"1";"1";"2014-09-12 11:25:56.113";"2014-09-12 11:42:33.298";"1";"1";"0";"41";"40";"module.training_block1.exec-5798.GoNoGo1";;;;;;;;;;;;;;;;;;;;;;;"1251";"2014-09-12 11:30:09.738";"ST_correctStop";"27";"0";"FINISHED";"NONE";"success";"0";"1";"2014-09-12 11:30:08.474";"3";;;;;;;;;;;;;;;;;;;;;;;;;;;;;;;;;;;;;;;;;;;;;;;;;;;;;;;;;
"HJB30GS";"1956";;"Windows 7";"Rachel's Experiment (D.T.)";"1.0";"2";"1";"1";"2";"1";"1";"2014-09-12 11:25:56.113";"2014-09-12 11:42:33.298";"1";"1";"0";"42";"41";"module.training_block1.exec-5798.GoNoGo1";;;;;;;;;;;;;;;;;;;;;;;"1261";"2014-09-12 11:30:12.296";"ST_correctStop";"30";"1";"FINISHED";"NONE";"success";"0";"1";"2014-09-12 11:30:11.033";"3";;;;;;;;;;;;;;;;;;;;;;;;;;;;;;;;;;;;;;;;;;;;;;;;;;;;;;;;;
"HJB30GS";"1956";;"Windows 7";"Rachel's Experiment (D.T.)";"1.0";"2";"1";"1";"2";"1";"1";"2014-09-12 11:25:56.113";"2014-09-12 11:42:33.298";"1";"1";"0";"43";"42";"module.training_block1.exec-5798.GoNoGo1";;;;;;;;;;;;;;;;;;;;;;;"1250";"2014-09-12 11:30:14.839";"ST_correctStop";"26";"1";"FINISHED";"NONE";"success";"0";"1";"2014-09-12 11:30:13.576";"3";;;;;;;;;;;;;;;;;;;;;;;;;;;;;;;;;;;;;;;;;;;;;;;;;;;;;;;;;
"HJB30GS";"1956";;"Windows 7";"Rachel's Experiment (D.T.)";"1.0";"2";"1";"1";"2";"1";"1";"2014-09-12 11:25:56.113";"2014-09-12 11:42:33.298";"1";"1";"0";"44";"43";"module.training_block1.exec-5798.GoNoGo1";;;;;;;;;;;;;;;;;;;;;;;"1259";"2014-09-12 11:30:17.398";"ST_correctStop";"6";"0";"FINISHED";"NONE";"success";"0";"1";"2014-09-12 11:30:16.134";"1";;;;;;;;;;;;;;;;;;;;;;;;;;;;;;;;;;;;;;;;;;;;;;;;;;;;;;;;;
"HJB30GS";"1956";;"Windows 7";"Rachel's Experiment (D.T.)";"1.0";"2";"1";"1";"2";"1";"1";"2014-09-12 11:25:56.113";"2014-09-12 11:42:33.298";"1";"1";"0";"45";"44";"module.training_block1.exec-5798.GoNoGo1";;;;;;;;;;;;;;;;;;;;;;;"1249";"2014-09-12 11:30:19.972";"NST_correctLoc";"22";"1";"FINISHED";"RIGHT";"success";"947";"0";"2014-09-12 11:30:18.708";"3";;;;;;;;;;;;;;;;;;;;;;;;;;;;;;;;;;;;;;;;;;;;;;;;;;;;;;;;;
"HJB30GS";"1956";;"Windows 7";"Rachel's Experiment (D.T.)";"1.0";"2";"1";"1";"2";"1";"1";"2014-09-12 11:25:56.113";"2014-09-12 11:42:33.298";"1";"1";"0";"46";"45";"module.training_block1.exec-5798.GoNoGo1";;;;;;;;;;;;;;;;;;;;;;;"1248";"2014-09-12 11:30:22.546";"NST_correctLoc";"15";"1";"FINISHED";"RIGHT";"success";"808";"0";"2014-09-12 11:30:21.282";"2";;;;;;;;;;;;;;;;;;;;;;;;;;;;;;;;;;;;;;;;;;;;;;;;;;;;;;;;;
"HJB30GS";"1956";;"Windows 7";"Rachel's Experiment (D.T.)";"1.0";"2";"1";"1";"2";"1";"1";"2014-09-12 11:25:56.113";"2014-09-12 11:42:33.298";"1";"1";"0";"47";"46";"module.training_block1.exec-5798.GoNoGo1";;;;;;;;;;;;;;;;;;;;;;;"1251";"2014-09-12 11:30:25.088";"ST_correctStop";"24";"0";"FINISHED";"NONE";"success";"0";"1";"2014-09-12 11:30:23.825";"3";;;;;;;;;;;;;;;;;;;;;;;;;;;;;;;;;;;;;;;;;;;;;;;;;;;;;;;;;
"HJB30GS";"1956";;"Windows 7";"Rachel's Experiment (D.T.)";"1.0";"2";"1";"1";"2";"1";"1";"2014-09-12 11:25:56.113";"2014-09-12 11:42:33.298";"1";"1";"0";"48";"47";"module.training_block1.exec-5798.GoNoGo1";;;;;;;;;;;;;;;;;;;;;;;"1250";"2014-09-12 11:30:27.647";"NST_correctLoc";"11";"1";"FINISHED";"RIGHT";"success";"664";"0";"2014-09-12 11:30:26.383";"2";;;;;;;;;;;;;;;;;;;;;;;;;;;;;;;;;;;;;;;;;;;;;;;;;;;;;;;;;
"HJB30GS";"1956";;"Windows 7";"Rachel's Experiment (D.T.)";"1.0";"2";"1";"1";"2";"1";"1";"2014-09-12 11:25:56.113";"2014-09-12 11:42:33.298";"1";"1";"0";"49";"48";"module.training_block1.exec-5798.GoNoGo1";;;;;;;;;;;;;;;;;;;;;;;"1252";"2014-09-12 11:30:30.221";"NST_correctLoc";"32";"0";"FINISHED";"LEFT";"success";"668";"0";"2014-09-12 11:30:28.957";"3";;;;;;;;;;;;;;;;;;;;;;;;;;;;;;;;;;;;;;;;;;;;;;;;;;;;;;;;;
"HJB30GS";"1956";;"Windows 7";"Rachel's Experiment (D.T.)";"1.0";"2";"1";"1";"2";"1";"1";"2014-09-12 11:25:56.113";"2014-09-12 11:42:33.298";"1";"1";"0";"50";"49";"module.training_block1.exec-5798.GoNoGo1";;;;;;;;;;;;;;;;;;;;;;;"1250";"2014-09-12 11:30:32.764";"NST_correctLoc";"18";"0";"FINISHED";"LEFT";"success";"600";"0";"2014-09-12 11:30:31.500";"3";;;;;;;;;;;;;;;;;;;;;;;;;;;;;;;;;;;;;;;;;;;;;;;;;;;;;;;;;
"HJB30GS";"1956";;"Windows 7";"Rachel's Experiment (D.T.)";"1.0";"2";"1";"1";"2";"1";"1";"2014-09-12 11:25:56.113";"2014-09-12 11:42:33.298";"1";"1";"0";"51";"50";"module.training_block1.exec-5798.GoNoGo1";;;;;;;;;;;;;;;;;;;;;;;"1257";"2014-09-12 11:30:35.353";"NST_correctLoc";"17";"0";"FINISHED";"LEFT";"success";"771";"0";"2014-09-12 11:30:34.090";"2";;;;;;;;;;;;;;;;;;;;;;;;;;;;;;;;;;;;;;;;;;;;;;;;;;;;;;;;;
"HJB30GS";"1956";;"Windows 7";"Rachel's Experiment (D.T.)";"1.0";"2";"1";"1";"2";"1";"1";"2014-09-12 11:25:56.113";"2014-09-12 11:42:33.298";"1";"1";"0";"52";"51";"module.training_block2.exec-7696.GoNoGo2";;;;;;;;;;;;;;;;;;;;;;;;;;;;;;;;;;;"1256";"2014-09-12 11:30:48.442";"NST_correctLoc";"28";"1";"FINISHED";"RIGHT";"success";"871";"0";"2014-09-12 11:30:47.178";"3";;;;;;;;;;;;;;;;;;;;;;;;;;;;;;;;;;;;;;;;;;;;;
"HJB30GS";"1956";;"Windows 7";"Rachel's Experiment (D.T.)";"1.0";"2";"1";"1";"2";"1";"1";"2014-09-12 11:25:56.113";"2014-09-12 11:42:33.298";"1";"1";"0";"53";"52";"module.training_block2.exec-7696.GoNoGo2";;;;;;;;;;;;;;;;;;;;;;;;;;;;;;;;;;;"1253";"2014-09-12 11:30:50.984";"NST_correctLoc";"9";"1";"FINISHED";"RIGHT";"success";"862";"0";"2014-09-12 11:30:49.721";"2";;;;;;;;;;;;;;;;;;;;;;;;;;;;;;;;;;;;;;;;;;;;;
"HJB30GS";"1956";;"Windows 7";"Rachel's Experiment (D.T.)";"1.0";"2";"1";"1";"2";"1";"1";"2014-09-12 11:25:56.113";"2014-09-12 11:42:33.298";"1";"1";"0";"54";"53";"module.training_block2.exec-7696.GoNoGo2";;;;;;;;;;;;;;;;;;;;;;;;;;;;;;;;;;;"1262";"2014-09-12 11:30:53.543";"NST_correctLoc";"16";"1";"FINISHED";"RIGHT";"success";"585";"0";"2014-09-12 11:30:52.279";"2";;;;;;;;;;;;;;;;;;;;;;;;;;;;;;;;;;;;;;;;;;;;;
"HJB30GS";"1956";;"Windows 7";"Rachel's Experiment (D.T.)";"1.0";"2";"1";"1";"2";"1";"1";"2014-09-12 11:25:56.113";"2014-09-12 11:42:33.298";"1";"1";"0";"55";"54";"module.training_block2.exec-7696.GoNoGo2";;;;;;;;;;;;;;;;;;;;;;;;;;;;;;;;;;;"1256";"2014-09-12 11:30:56.086";"ST_correctStop";"3";"0";"FINISHED";"NONE";"success";"0";"1";"2014-09-12 11:30:54.822";"1";;;;;;;;;;;;;;;;;;;;;;;;;;;;;;;;;;;;;;;;;;;;;
"HJB30GS";"1956";;"Windows 7";"Rachel's Experiment (D.T.)";"1.0";"2";"1";"1";"2";"1";"1";"2014-09-12 11:25:56.113";"2014-09-12 11:42:33.298";"1";"1";"0";"56";"55";"module.training_block2.exec-7696.GoNoGo2";;;;;;;;;;;;;;;;;;;;;;;;;;;;;;;;;;;"1256";"2014-09-12 11:30:58.629";"NST_correctLoc";"10";"0";"FINISHED";"LEFT";"success";"653";"0";"2014-09-12 11:30:57.365";"2";;;;;;;;;;;;;;;;;;;;;;;;;;;;;;;;;;;;;;;;;;;;;
"HJB30GS";"1956";;"Windows 7";"Rachel's Experiment (D.T.)";"1.0";"2";"1";"1";"2";"1";"1";"2014-09-12 11:25:56.113";"2014-09-12 11:42:33.298";"1";"1";"0";"57";"56";"module.training_block2.exec-7696.GoNoGo2";;;;;;;;;;;;;;;;;;;;;;;;;;;;;;;;;;;"1256";"2014-09-12 11:31:01.171";"ST_correctStop";"27";"0";"FINISHED";"NONE";"success";"0";"1";"2014-09-12 11:30:59.908";"3";;;;;;;;;;;;;;;;;;;;;;;;;;;;;;;;;;;;;;;;;;;;;
"HJB30GS";"1956";;"Windows 7";"Rachel's Experiment (D.T.)";"1.0";"2";"1";"1";"2";"1";"1";"2014-09-12 11:25:56.113";"2014-09-12 11:42:33.298";"1";"1";"0";"58";"57";"module.training_block2.exec-7696.GoNoGo2";;;;;;;;;;;;;;;;;;;;;;;;;;;;;;;;;;;"1255";"2014-09-12 11:31:03.714";"NST_correctLoc";"17";"1";"FINISHED";"RIGHT";"success";"585";"0";"2014-09-12 11:31:02.451";"2";;;;;;;;;;;;;;;;;;;;;;;;;;;;;;;;;;;;;;;;;;;;;
"HJB30GS";"1956";;"Windows 7";"Rachel's Experiment (D.T.)";"1.0";"2";"1";"1";"2";"1";"1";"2014-09-12 11:25:56.113";"2014-09-12 11:42:33.298";"1";"1";"0";"59";"58";"module.training_block2.exec-7696.GoNoGo2";;;;;;;;;;;;;;;;;;;;;;;;;;;;;;;;;;;"1251";"2014-09-12 11:31:06.257";"NST_correctLoc";"33";"0";"FINISHED";"LEFT";"success";"634";"0";"2014-09-12 11:31:04.993";"3";;;;;;;;;;;;;;;;;;;;;;;;;;;;;;;;;;;;;;;;;;;;;
"HJB30GS";"1956";;"Windows 7";"Rachel's Experiment (D.T.)";"1.0";"2";"1";"1";"2";"1";"1";"2014-09-12 11:25:56.113";"2014-09-12 11:42:33.298";"1";"1";"0";"60";"59";"module.training_block2.exec-7696.GoNoGo2";;;;;;;;;;;;;;;;;;;;;;;;;;;;;;;;;;;"1257";"2014-09-12 11:31:08.800";"NST_correctLoc";"15";"1";"FINISHED";"RIGHT";"success";"724";"0";"2014-09-12 11:31:07.536";"2";;;;;;;;;;;;;;;;;;;;;;;;;;;;;;;;;;;;;;;;;;;;;
"HJB30GS";"1956";;"Windows 7";"Rachel's Experiment (D.T.)";"1.0";"2";"1";"1";"2";"1";"1";"2014-09-12 11:25:56.113";"2014-09-12 11:42:33.298";"1";"1";"0";"61";"60";"module.training_block2.exec-7696.GoNoGo2";;;;;;;;;;;;;;;;;;;;;;;;;;;;;;;;;;;"1256";"2014-09-12 11:31:11.343";"ST_correctStop";"34";"1";"FINISHED";"NONE";"success";"0";"1";"2014-09-12 11:31:10.079";"3";;;;;;;;;;;;;;;;;;;;;;;;;;;;;;;;;;;;;;;;;;;;;
"HJB30GS";"1956";;"Windows 7";"Rachel's Experiment (D.T.)";"1.0";"2";"1";"1";"2";"1";"1";"2014-09-12 11:25:56.113";"2014-09-12 11:42:33.298";"1";"1";"0";"62";"61";"module.training_block2.exec-7696.GoNoGo2";;;;;;;;;;;;;;;;;;;;;;;;;;;;;;;;;;;"1256";"2014-09-12 11:31:13.885";"NST_correctLoc";"25";"1";"FINISHED";"RIGHT";"success";"587";"0";"2014-09-12 11:31:12.622";"3";;;;;;;;;;;;;;;;;;;;;;;;;;;;;;;;;;;;;;;;;;;;;
"HJB30GS";"1956";;"Windows 7";"Rachel's Experiment (D.T.)";"1.0";"2";"1";"1";"2";"1";"1";"2014-09-12 11:25:56.113";"2014-09-12 11:42:33.298";"1";"1";"0";"63";"62";"module.training_block2.exec-7696.GoNoGo2";;;;;;;;;;;;;;;;;;;;;;;;;;;;;;;;;;;"1255";"2014-09-12 11:31:16.428";"NST_correctLoc";"14";"1";"FINISHED";"RIGHT";"success";"556";"0";"2014-09-12 11:31:15.165";"2";;;;;;;;;;;;;;;;;;;;;;;;;;;;;;;;;;;;;;;;;;;;;
"HJB30GS";"1956";;"Windows 7";"Rachel's Experiment (D.T.)";"1.0";"2";"1";"1";"2";"1";"1";"2014-09-12 11:25:56.113";"2014-09-12 11:42:33.298";"1";"1";"0";"64";"63";"module.training_block2.exec-7696.GoNoGo2";;;;;;;;;;;;;;;;;;;;;;;;;;;;;;;;;;;"1251";"2014-09-12 11:31:18.971";"NST_correctLoc";"22";"0";"FINISHED";"LEFT";"success";"715";"0";"2014-09-12 11:31:17.707";"3";;;;;;;;;;;;;;;;;;;;;;;;;;;;;;;;;;;;;;;;;;;;;
"HJB30GS";"1956";;"Windows 7";"Rachel's Experiment (D.T.)";"1.0";"2";"1";"1";"2";"1";"1";"2014-09-12 11:25:56.113";"2014-09-12 11:42:33.298";"1";"1";"0";"65";"64";"module.training_block2.exec-7696.GoNoGo2";;;;;;;;;;;;;;;;;;;;;;;;;;;;;;;;;;;"1255";"2014-09-12 11:31:21.514";"ST_correctStop";"32";"1";"FINISHED";"NONE";"success";"0";"1";"2014-09-12 11:31:20.250";"3";;;;;;;;;;;;;;;;;;;;;;;;;;;;;;;;;;;;;;;;;;;;;
"HJB30GS";"1956";;"Windows 7";"Rachel's Experiment (D.T.)";"1.0";"2";"1";"1";"2";"1";"1";"2014-09-12 11:25:56.113";"2014-09-12 11:42:33.298";"1";"1";"0";"66";"65";"module.training_block2.exec-7696.GoNoGo2";;;;;;;;;;;;;;;;;;;;;;;;;;;;;;;;;;;"1255";"2014-09-12 11:31:24.057";"NST_correctLoc";"20";"0";"FINISHED";"LEFT";"success";"583";"0";"2014-09-12 11:31:22.793";"3";;;;;;;;;;;;;;;;;;;;;;;;;;;;;;;;;;;;;;;;;;;;;
"HJB30GS";"1956";;"Windows 7";"Rachel's Experiment (D.T.)";"1.0";"2";"1";"1";"2";"1";"1";"2014-09-12 11:25:56.113";"2014-09-12 11:42:33.298";"1";"1";"0";"67";"66";"module.training_block2.exec-7696.GoNoGo2";;;;;;;;;;;;;;;;;;;;;;;;;;;;;;;;;;;"1255";"2014-09-12 11:31:26.599";"NST_correctLoc";"26";"0";"FINISHED";"LEFT";"success";"642";"0";"2014-09-12 11:31:25.336";"3";;;;;;;;;;;;;;;;;;;;;;;;;;;;;;;;;;;;;;;;;;;;;
"HJB30GS";"1956";;"Windows 7";"Rachel's Experiment (D.T.)";"1.0";"2";"1";"1";"2";"1";"1";"2014-09-12 11:25:56.113";"2014-09-12 11:42:33.298";"1";"1";"0";"68";"67";"module.training_block2.exec-7696.GoNoGo2";;;;;;;;;;;;;;;;;;;;;;;;;;;;;;;;;;;"1251";"2014-09-12 11:31:29.142";"NST_correctLoc";"12";"1";"FINISHED";"RIGHT";"success";"683";"0";"2014-09-12 11:31:27.879";"2";;;;;;;;;;;;;;;;;;;;;;;;;;;;;;;;;;;;;;;;;;;;;
"HJB30GS";"1956";;"Windows 7";"Rachel's Experiment (D.T.)";"1.0";"2";"1";"1";"2";"1";"1";"2014-09-12 11:25:56.113";"2014-09-12 11:42:33.298";"1";"1";"0";"69";"68";"module.training_block2.exec-7696.GoNoGo2";;;;;;;;;;;;;;;;;;;;;;;;;;;;;;;;;;;"1256";"2014-09-12 11:31:31.685";"ST_correctStop";"18";"1";"FINISHED";"NONE";"success";"0";"1";"2014-09-12 11:31:30.421";"3";;;;;;;;;;;;;;;;;;;;;;;;;;;;;;;;;;;;;;;;;;;;;
"HJB30GS";"1956";;"Windows 7";"Rachel's Experiment (D.T.)";"1.0";"2";"1";"1";"2";"1";"1";"2014-09-12 11:25:56.113";"2014-09-12 11:42:33.298";"1";"1";"0";"70";"69";"module.training_block2.exec-7696.GoNoGo2";;;;;;;;;;;;;;;;;;;;;;;;;;;;;;;;;;;"1253";"2014-09-12 11:31:34.228";"ST_correctStop";"5";"0";"FINISHED";"NONE";"success";"0";"1";"2014-09-12 11:31:32.964";"1";;;;;;;;;;;;;;;;;;;;;;;;;;;;;;;;;;;;;;;;;;;;;
"HJB30GS";"1956";;"Windows 7";"Rachel's Experiment (D.T.)";"1.0";"2";"1";"1";"2";"1";"1";"2014-09-12 11:25:56.113";"2014-09-12 11:42:33.298";"1";"1";"0";"71";"70";"module.training_block2.exec-7696.GoNoGo2";;;;;;;;;;;;;;;;;;;;;;;;;;;;;;;;;;;"1262";"2014-09-12 11:31:36.786";"ST_correctStop";"2";"1";"FINISHED";"NONE";"success";"0";"1";"2014-09-12 11:31:35.523";"1";;;;;;;;;;;;;;;;;;;;;;;;;;;;;;;;;;;;;;;;;;;;;
"HJB30GS";"1956";;"Windows 7";"Rachel's Experiment (D.T.)";"1.0";"2";"1";"1";"2";"1";"1";"2014-09-12 11:25:56.113";"2014-09-12 11:42:33.298";"1";"1";"0";"72";"71";"module.training_block2.exec-7696.GoNoGo2";;;;;;;;;;;;;;;;;;;;;;;;;;;;;;;;;;;"1257";"2014-09-12 11:31:39.329";"ST_correctStop";"8";"0";"FINISHED";"NONE";"success";"0";"1";"2014-09-12 11:31:38.065";"1";;;;;;;;;;;;;;;;;;;;;;;;;;;;;;;;;;;;;;;;;;;;;
"HJB30GS";"1956";;"Windows 7";"Rachel's Experiment (D.T.)";"1.0";"2";"1";"1";"2";"1";"1";"2014-09-12 11:25:56.113";"2014-09-12 11:42:33.298";"1";"1";"0";"73";"72";"module.training_block2.exec-7696.GoNoGo2";;;;;;;;;;;;;;;;;;;;;;;;;;;;;;;;;;;"1257";"2014-09-12 11:31:41.872";"ST_correctStop";"24";"0";"FINISHED";"NONE";"success";"0";"1";"2014-09-12 11:31:40.608";"3";;;;;;;;;;;;;;;;;;;;;;;;;;;;;;;;;;;;;;;;;;;;;
"HJB30GS";"1956";;"Windows 7";"Rachel's Experiment (D.T.)";"1.0";"2";"1";"1";"2";"1";"1";"2014-09-12 11:25:56.113";"2014-09-12 11:42:33.298";"1";"1";"0";"74";"73";"module.training_block2.exec-7696.GoNoGo2";;;;;;;;;;;;;;;;;;;;;;;;;;;;;;;;;;;"1257";"2014-09-12 11:31:44.415";"NST_correctLoc";"19";"0";"FINISHED";"LEFT";"success";"733";"0";"2014-09-12 11:31:43.151";"3";;;;;;;;;;;;;;;;;;;;;;;;;;;;;;;;;;;;;;;;;;;;;
"HJB30GS";"1956";;"Windows 7";"Rachel's Experiment (D.T.)";"1.0";"2";"1";"1";"2";"1";"1";"2014-09-12 11:25:56.113";"2014-09-12 11:42:33.298";"1";"1";"0";"75";"74";"module.training_block2.exec-7696.GoNoGo2";;;;;;;;;;;;;;;;;;;;;;;;;;;;;;;;;;;"1249";"2014-09-12 11:31:46.957";"ST_correctStop";"4";"1";"FINISHED";"NONE";"success";"0";"1";"2014-09-12 11:31:45.694";"1";;;;;;;;;;;;;;;;;;;;;;;;;;;;;;;;;;;;;;;;;;;;;
"HJB30GS";"1956";;"Windows 7";"Rachel's Experiment (D.T.)";"1.0";"2";"1";"1";"2";"1";"1";"2014-09-12 11:25:56.113";"2014-09-12 11:42:33.298";"1";"1";"0";"76";"75";"module.training_block2.exec-7696.GoNoGo2";;;;;;;;;;;;;;;;;;;;;;;;;;;;;;;;;;;"1255";"2014-09-12 11:31:50.514";"ST_correctStop";"31";"0";"FINISHED";"NONE";"success";"0";"1";"2014-09-12 11:31:49.251";"3";;;;;;;;;;;;;;;;;;;;;;;;;;;;;;;;;;;;;;;;;;;;;
"HJB30GS";"1956";;"Windows 7";"Rachel's Experiment (D.T.)";"1.0";"2";"1";"1";"2";"1";"1";"2014-09-12 11:25:56.113";"2014-09-12 11:42:33.298";"1";"1";"0";"77";"76";"module.training_block2.exec-7696.GoNoGo2";;;;;;;;;;;;;;;;;;;;;;;;;;;;;;;;;;;"1256";"2014-09-12 11:31:53.057";"NST_correctLoc";"13";"0";"FINISHED";"LEFT";"success";"653";"0";"2014-09-12 11:31:51.793";"2";;;;;;;;;;;;;;;;;;;;;;;;;;;;;;;;;;;;;;;;;;;;;
"HJB30GS";"1956";;"Windows 7";"Rachel's Experiment (D.T.)";"1.0";"2";"1";"1";"2";"1";"1";"2014-09-12 11:25:56.113";"2014-09-12 11:42:33.298";"1";"1";"0";"78";"77";"module.training_block2.exec-7696.GoNoGo2";;;;;;;;;;;;;;;;;;;;;;;;;;;;;;;;;;;"1250";"2014-09-12 11:31:55.600";"ST_correctStop";"0";"0";"FINISHED";"NONE";"success";"0";"1";"2014-09-12 11:31:54.336";"1";;;;;;;;;;;;;;;;;;;;;;;;;;;;;;;;;;;;;;;;;;;;;
"HJB30GS";"1956";;"Windows 7";"Rachel's Experiment (D.T.)";"1.0";"2";"1";"1";"2";"1";"1";"2014-09-12 11:25:56.113";"2014-09-12 11:42:33.298";"1";"1";"0";"79";"78";"module.training_block2.exec-7696.GoNoGo2";;;;;;;;;;;;;;;;;;;;;;;;;;;;;;;;;;;"1252";"2014-09-12 11:31:58.143";"ST_correctStop";"7";"1";"FINISHED";"NONE";"success";"0";"1";"2014-09-12 11:31:56.879";"1";;;;;;;;;;;;;;;;;;;;;;;;;;;;;;;;;;;;;;;;;;;;;
"HJB30GS";"1956";;"Windows 7";"Rachel's Experiment (D.T.)";"1.0";"2";"1";"1";"2";"1";"1";"2014-09-12 11:25:56.113";"2014-09-12 11:42:33.298";"1";"1";"0";"80";"79";"module.training_block2.exec-7696.GoNoGo2";;;;;;;;;;;;;;;;;;;;;;;;;;;;;;;;;;;"1255";"2014-09-12 11:32:00.670";"ST_correctStop";"1";"0";"FINISHED";"NONE";"success";"0";"1";"2014-09-12 11:31:59.406";"1";;;;;;;;;;;;;;;;;;;;;;;;;;;;;;;;;;;;;;;;;;;;;
"HJB30GS";"1956";;"Windows 7";"Rachel's Experiment (D.T.)";"1.0";"2";"1";"1";"2";"1";"1";"2014-09-12 11:25:56.113";"2014-09-12 11:42:33.298";"1";"1";"0";"81";"80";"module.training_block2.exec-7696.GoNoGo2";;;;;;;;;;;;;;;;;;;;;;;;;;;;;;;;;;;"1250";"2014-09-12 11:32:03.213";"ST_correctStop";"23";"0";"FINISHED";"NONE";"success";"0";"1";"2014-09-12 11:32:01.949";"3";;;;;;;;;;;;;;;;;;;;;;;;;;;;;;;;;;;;;;;;;;;;;
"HJB30GS";"1956";;"Windows 7";"Rachel's Experiment (D.T.)";"1.0";"2";"1";"1";"2";"1";"1";"2014-09-12 11:25:56.113";"2014-09-12 11:42:33.298";"1";"1";"0";"82";"81";"module.training_block2.exec-7696.GoNoGo2";;;;;;;;;;;;;;;;;;;;;;;;;;;;;;;;;;;"1251";"2014-09-12 11:32:05.755";"NST_correctLoc";"21";"0";"FINISHED";"LEFT";"success";"1143";"0";"2014-09-12 11:32:04.492";"3";;;;;;;;;;;;;;;;;;;;;;;;;;;;;;;;;;;;;;;;;;;;;
"HJB30GS";"1956";;"Windows 7";"Rachel's Experiment (D.T.)";"1.0";"2";"1";"1";"2";"1";"1";"2014-09-12 11:25:56.113";"2014-09-12 11:42:33.298";"1";"1";"0";"83";"82";"module.training_block2.exec-7696.GoNoGo2";;;;;;;;;;;;;;;;;;;;;;;;;;;;;;;;;;;"1257";"2014-09-12 11:32:08.298";"ST_correctStop";"35";"1";"FINISHED";"NONE";"success";"0";"1";"2014-09-12 11:32:07.035";"3";;;;;;;;;;;;;;;;;;;;;;;;;;;;;;;;;;;;;;;;;;;;;
"HJB30GS";"1956";;"Windows 7";"Rachel's Experiment (D.T.)";"1.0";"2";"1";"1";"2";"1";"1";"2014-09-12 11:25:56.113";"2014-09-12 11:42:33.298";"1";"1";"0";"84";"83";"module.training_block2.exec-7696.GoNoGo2";;;;;;;;;;;;;;;;;;;;;;;;;;;;;;;;;;;"1257";"2014-09-12 11:32:10.841";"ST_correctStop";"6";"0";"FINISHED";"NONE";"success";"0";"1";"2014-09-12 11:32:09.577";"1";;;;;;;;;;;;;;;;;;;;;;;;;;;;;;;;;;;;;;;;;;;;;
"HJB30GS";"1956";;"Windows 7";"Rachel's Experiment (D.T.)";"1.0";"2";"1";"1";"2";"1";"1";"2014-09-12 11:25:56.113";"2014-09-12 11:42:33.298";"1";"1";"0";"85";"84";"module.training_block2.exec-7696.GoNoGo2";;;;;;;;;;;;;;;;;;;;;;;;;;;;;;;;;;;"1257";"2014-09-12 11:32:13.384";"NST_correctLoc";"29";"0";"FINISHED";"LEFT";"success";"1207";"0";"2014-09-12 11:32:12.120";"3";;;;;;;;;;;;;;;;;;;;;;;;;;;;;;;;;;;;;;;;;;;;;
"HJB30GS";"1956";;"Windows 7";"Rachel's Experiment (D.T.)";"1.0";"2";"1";"1";"2";"1";"1";"2014-09-12 11:25:56.113";"2014-09-12 11:42:33.298";"1";"1";"0";"86";"85";"module.training_block2.exec-7696.GoNoGo2";;;;;;;;;;;;;;;;;;;;;;;;;;;;;;;;;;;"1256";"2014-09-12 11:32:15.927";"NST_correctLoc";"11";"1";"FINISHED";"RIGHT";"success";"665";"0";"2014-09-12 11:32:14.663";"2";;;;;;;;;;;;;;;;;;;;;;;;;;;;;;;;;;;;;;;;;;;;;
"HJB30GS";"1956";;"Windows 7";"Rachel's Experiment (D.T.)";"1.0";"2";"1";"1";"2";"1";"1";"2014-09-12 11:25:56.113";"2014-09-12 11:42:33.298";"1";"1";"0";"87";"86";"module.training_block2.exec-7696.GoNoGo2";;;;;;;;;;;;;;;;;;;;;;;;;;;;;;;;;;;"1257";"2014-09-12 11:32:18.469";"ST_correctStop";"30";"1";"FINISHED";"NONE";"success";"0";"1";"2014-09-12 11:32:17.206";"3";;;;;;;;;;;;;;;;;;;;;;;;;;;;;;;;;;;;;;;;;;;;;
"HJB30GS";"1956";;"Windows 7";"Rachel's Experiment (D.T.)";"1.0";"2";"1";"1";"2";"1";"1";"2014-09-12 11:25:56.113";"2014-09-12 11:42:33.298";"1";"1";"0";"88";"87";"module.training_block3.exec-1941.GoNoGo3";;;;;;;;;;;;;;;;;;;;;;;;;;;;;;;;;;;;;;;;;;;;;;;"1251";"2014-09-12 11:32:29.733";"ST_correctStop";"22";"1";"FINISHED";"NONE";"success";"0";"1";"2014-09-12 11:32:28.469";"3";;;;;;;;;;;;;;;;;;;;;;;;;;;;;;;;;
"HJB30GS";"1956";;"Windows 7";"Rachel's Experiment (D.T.)";"1.0";"2";"1";"1";"2";"1";"1";"2014-09-12 11:25:56.113";"2014-09-12 11:42:33.298";"1";"1";"0";"89";"88";"module.training_block3.exec-1941.GoNoGo3";;;;;;;;;;;;;;;;;;;;;;;;;;;;;;;;;;;;;;;;;;;;;;;"1257";"2014-09-12 11:32:32.275";"NST_wrongLoc";"29";"1";"FINISHED";"LEFT";"failure";"942";"0";"2014-09-12 11:32:31.012";"3";;;;;;;;;;;;;;;;;;;;;;;;;;;;;;;;;
"HJB30GS";"1956";;"Windows 7";"Rachel's Experiment (D.T.)";"1.0";"2";"1";"1";"2";"1";"1";"2014-09-12 11:25:56.113";"2014-09-12 11:42:33.298";"1";"1";"0";"90";"89";"module.training_block3.exec-1941.GoNoGo3";;;;;;;;;;;;;;;;;;;;;;;;;;;;;;;;;;;;;;;;;;;;;;;"1257";"2014-09-12 11:32:34.818";"ST_correctStop";"25";"1";"FINISHED";"NONE";"success";"0";"1";"2014-09-12 11:32:33.555";"3";;;;;;;;;;;;;;;;;;;;;;;;;;;;;;;;;
"HJB30GS";"1956";;"Windows 7";"Rachel's Experiment (D.T.)";"1.0";"2";"1";"1";"2";"1";"1";"2014-09-12 11:25:56.113";"2014-09-12 11:42:33.298";"1";"1";"0";"91";"90";"module.training_block3.exec-1941.GoNoGo3";;;;;;;;;;;;;;;;;;;;;;;;;;;;;;;;;;;;;;;;;;;;;;;"1257";"2014-09-12 11:32:37.361";"ST_correctStop";"24";"0";"FINISHED";"NONE";"success";"0";"1";"2014-09-12 11:32:36.097";"3";;;;;;;;;;;;;;;;;;;;;;;;;;;;;;;;;
"HJB30GS";"1956";;"Windows 7";"Rachel's Experiment (D.T.)";"1.0";"2";"1";"1";"2";"1";"1";"2014-09-12 11:25:56.113";"2014-09-12 11:42:33.298";"1";"1";"0";"92";"91";"module.training_block3.exec-1941.GoNoGo3";;;;;;;;;;;;;;;;;;;;;;;;;;;;;;;;;;;;;;;;;;;;;;;"1257";"2014-09-12 11:32:39.904";"NST_correctLoc";"13";"1";"FINISHED";"RIGHT";"success";"707";"0";"2014-09-12 11:32:38.640";"2";;;;;;;;;;;;;;;;;;;;;;;;;;;;;;;;;
"HJB30GS";"1956";;"Windows 7";"Rachel's Experiment (D.T.)";"1.0";"2";"1";"1";"2";"1";"1";"2014-09-12 11:25:56.113";"2014-09-12 11:42:33.298";"1";"1";"0";"93";"92";"module.training_block3.exec-1941.GoNoGo3";;;;;;;;;;;;;;;;;;;;;;;;;;;;;;;;;;;;;;;;;;;;;;;"1257";"2014-09-12 11:32:42.447";"ST_correctStop";"21";"0";"FINISHED";"NONE";"success";"0";"1";"2014-09-12 11:32:41.183";"3";;;;;;;;;;;;;;;;;;;;;;;;;;;;;;;;;
"HJB30GS";"1956";;"Windows 7";"Rachel's Experiment (D.T.)";"1.0";"2";"1";"1";"2";"1";"1";"2014-09-12 11:25:56.113";"2014-09-12 11:42:33.298";"1";"1";"0";"94";"93";"module.training_block3.exec-1941.GoNoGo3";;;;;;;;;;;;;;;;;;;;;;;;;;;;;;;;;;;;;;;;;;;;;;;"1257";"2014-09-12 11:32:44.989";"ST_correctStop";"4";"0";"FINISHED";"NONE";"success";"0";"1";"2014-09-12 11:32:43.726";"1";;;;;;;;;;;;;;;;;;;;;;;;;;;;;;;;;
"HJB30GS";"1956";;"Windows 7";"Rachel's Experiment (D.T.)";"1.0";"2";"1";"1";"2";"1";"1";"2014-09-12 11:25:56.113";"2014-09-12 11:42:33.298";"1";"1";"0";"95";"94";"module.training_block3.exec-1941.GoNoGo3";;;;;;;;;;;;;;;;;;;;;;;;;;;;;;;;;;;;;;;;;;;;;;;"1257";"2014-09-12 11:32:47.532";"ST_correctStop";"32";"1";"FINISHED";"NONE";"success";"0";"1";"2014-09-12 11:32:46.269";"3";;;;;;;;;;;;;;;;;;;;;;;;;;;;;;;;;
"HJB30GS";"1956";;"Windows 7";"Rachel's Experiment (D.T.)";"1.0";"2";"1";"1";"2";"1";"1";"2014-09-12 11:25:56.113";"2014-09-12 11:42:33.298";"1";"1";"0";"96";"95";"module.training_block3.exec-1941.GoNoGo3";;;;;;;;;;;;;;;;;;;;;;;;;;;;;;;;;;;;;;;;;;;;;;;"1257";"2014-09-12 11:32:50.075";"NST_correctLoc";"27";"1";"FINISHED";"RIGHT";"success";"907";"0";"2014-09-12 11:32:48.812";"3";;;;;;;;;;;;;;;;;;;;;;;;;;;;;;;;;
"HJB30GS";"1956";;"Windows 7";"Rachel's Experiment (D.T.)";"1.0";"2";"1";"1";"2";"1";"1";"2014-09-12 11:25:56.113";"2014-09-12 11:42:33.298";"1";"1";"0";"97";"96";"module.training_block3.exec-1941.GoNoGo3";;;;;;;;;;;;;;;;;;;;;;;;;;;;;;;;;;;;;;;;;;;;;;;"1257";"2014-09-12 11:32:52.618";"NST_correctLoc";"9";"1";"FINISHED";"RIGHT";"success";"805";"0";"2014-09-12 11:32:51.354";"2";;;;;;;;;;;;;;;;;;;;;;;;;;;;;;;;;
"HJB30GS";"1956";;"Windows 7";"Rachel's Experiment (D.T.)";"1.0";"2";"1";"1";"2";"1";"1";"2014-09-12 11:25:56.113";"2014-09-12 11:42:33.298";"1";"1";"0";"98";"97";"module.training_block3.exec-1941.GoNoGo3";;;;;;;;;;;;;;;;;;;;;;;;;;;;;;;;;;;;;;;;;;;;;;;"1256";"2014-09-12 11:32:55.161";"ST_correctStop";"3";"0";"FINISHED";"NONE";"success";"0";"1";"2014-09-12 11:32:53.897";"1";;;;;;;;;;;;;;;;;;;;;;;;;;;;;;;;;
"HJB30GS";"1956";;"Windows 7";"Rachel's Experiment (D.T.)";"1.0";"2";"1";"1";"2";"1";"1";"2014-09-12 11:25:56.113";"2014-09-12 11:42:33.298";"1";"1";"0";"99";"98";"module.training_block3.exec-1941.GoNoGo3";;;;;;;;;;;;;;;;;;;;;;;;;;;;;;;;;;;;;;;;;;;;;;;"1257";"2014-09-12 11:32:57.704";"NST_correctLoc";"12";"1";"FINISHED";"RIGHT";"success";"600";"0";"2014-09-12 11:32:56.440";"2";;;;;;;;;;;;;;;;;;;;;;;;;;;;;;;;;
"HJB30GS";"1956";;"Windows 7";"Rachel's Experiment (D.T.)";"1.0";"2";"1";"1";"2";"1";"1";"2014-09-12 11:25:56.113";"2014-09-12 11:42:33.298";"1";"1";"0";"100";"99";"module.training_block3.exec-1941.GoNoGo3";;;;;;;;;;;;;;;;;;;;;;;;;;;;;;;;;;;;;;;;;;;;;;;"1256";"2014-09-12 11:33:00.246";"NST_correctLoc";"23";"0";"FINISHED";"LEFT";"success";"813";"0";"2014-09-12 11:32:58.983";"3";;;;;;;;;;;;;;;;;;;;;;;;;;;;;;;;;
"HJB30GS";"1956";;"Windows 7";"Rachel's Experiment (D.T.)";"1.0";"2";"1";"1";"2";"1";"1";"2014-09-12 11:25:56.113";"2014-09-12 11:42:33.298";"1";"1";"0";"101";"100";"module.training_block3.exec-1941.GoNoGo3";;;;;;;;;;;;;;;;;;;;;;;;;;;;;;;;;;;;;;;;;;;;;;;"1257";"2014-09-12 11:33:02.789";"NST_correctLoc";"31";"0";"FINISHED";"LEFT";"success";"634";"0";"2014-09-12 11:33:01.526";"3";;;;;;;;;;;;;;;;;;;;;;;;;;;;;;;;;
"HJB30GS";"1956";;"Windows 7";"Rachel's Experiment (D.T.)";"1.0";"2";"1";"1";"2";"1";"1";"2014-09-12 11:25:56.113";"2014-09-12 11:42:33.298";"1";"1";"0";"102";"101";"module.training_block3.exec-1941.GoNoGo3";;;;;;;;;;;;;;;;;;;;;;;;;;;;;;;;;;;;;;;;;;;;;;;"1257";"2014-09-12 11:33:05.332";"NST_correctLoc";"11";"0";"FINISHED";"LEFT";"success";"620";"0";"2014-09-12 11:33:04.068";"2";;;;;;;;;;;;;;;;;;;;;;;;;;;;;;;;;
"HJB30GS";"1956";;"Windows 7";"Rachel's Experiment (D.T.)";"1.0";"2";"1";"1";"2";"1";"1";"2014-09-12 11:25:56.113";"2014-09-12 11:42:33.298";"1";"1";"0";"103";"102";"module.training_block3.exec-1941.GoNoGo3";;;;;;;;;;;;;;;;;;;;;;;;;;;;;;;;;;;;;;;;;;;;;;;"1257";"2014-09-12 11:33:07.875";"ST_correctStop";"18";"1";"FINISHED";"NONE";"success";"0";"1";"2014-09-12 11:33:06.611";"3";;;;;;;;;;;;;;;;;;;;;;;;;;;;;;;;;
"HJB30GS";"1956";;"Windows 7";"Rachel's Experiment (D.T.)";"1.0";"2";"1";"1";"2";"1";"1";"2014-09-12 11:25:56.113";"2014-09-12 11:42:33.298";"1";"1";"0";"104";"103";"module.training_block3.exec-1941.GoNoGo3";;;;;;;;;;;;;;;;;;;;;;;;;;;;;;;;;;;;;;;;;;;;;;;"1257";"2014-09-12 11:33:10.418";"ST_correctStop";"6";"1";"FINISHED";"NONE";"success";"0";"1";"2014-09-12 11:33:09.154";"1";;;;;;;;;;;;;;;;;;;;;;;;;;;;;;;;;
"HJB30GS";"1956";;"Windows 7";"Rachel's Experiment (D.T.)";"1.0";"2";"1";"1";"2";"1";"1";"2014-09-12 11:25:56.113";"2014-09-12 11:42:33.298";"1";"1";"0";"105";"104";"module.training_block3.exec-1941.GoNoGo3";;;;;;;;;;;;;;;;;;;;;;;;;;;;;;;;;;;;;;;;;;;;;;;"1256";"2014-09-12 11:33:12.960";"ST_correctStop";"35";"1";"FINISHED";"NONE";"success";"0";"1";"2014-09-12 11:33:11.697";"3";;;;;;;;;;;;;;;;;;;;;;;;;;;;;;;;;
"HJB30GS";"1956";;"Windows 7";"Rachel's Experiment (D.T.)";"1.0";"2";"1";"1";"2";"1";"1";"2014-09-12 11:25:56.113";"2014-09-12 11:42:33.298";"1";"1";"0";"106";"105";"module.training_block3.exec-1941.GoNoGo3";;;;;;;;;;;;;;;;;;;;;;;;;;;;;;;;;;;;;;;;;;;;;;;"1256";"2014-09-12 11:33:15.503";"ST_correctStop";"5";"1";"FINISHED";"NONE";"success";"0";"1";"2014-09-12 11:33:14.240";"1";;;;;;;;;;;;;;;;;;;;;;;;;;;;;;;;;
"HJB30GS";"1956";;"Windows 7";"Rachel's Experiment (D.T.)";"1.0";"2";"1";"1";"2";"1";"1";"2014-09-12 11:25:56.113";"2014-09-12 11:42:33.298";"1";"1";"0";"107";"106";"module.training_block3.exec-1941.GoNoGo3";;;;;;;;;;;;;;;;;;;;;;;;;;;;;;;;;;;;;;;;;;;;;;;"1257";"2014-09-12 11:33:18.046";"NST_correctLoc";"17";"1";"FINISHED";"RIGHT";"success";"699";"0";"2014-09-12 11:33:16.782";"2";;;;;;;;;;;;;;;;;;;;;;;;;;;;;;;;;
"HJB30GS";"1956";;"Windows 7";"Rachel's Experiment (D.T.)";"1.0";"2";"1";"1";"2";"1";"1";"2014-09-12 11:25:56.113";"2014-09-12 11:42:33.298";"1";"1";"0";"108";"107";"module.training_block3.exec-1941.GoNoGo3";;;;;;;;;;;;;;;;;;;;;;;;;;;;;;;;;;;;;;;;;;;;;;;"1257";"2014-09-12 11:33:20.589";"ST_correctStop";"1";"1";"FINISHED";"NONE";"success";"0";"1";"2014-09-12 11:33:19.325";"1";;;;;;;;;;;;;;;;;;;;;;;;;;;;;;;;;
"HJB30GS";"1956";;"Windows 7";"Rachel's Experiment (D.T.)";"1.0";"2";"1";"1";"2";"1";"1";"2014-09-12 11:25:56.113";"2014-09-12 11:42:33.298";"1";"1";"0";"109";"108";"module.training_block3.exec-1941.GoNoGo3";;;;;;;;;;;;;;;;;;;;;;;;;;;;;;;;;;;;;;;;;;;;;;;"1256";"2014-09-12 11:33:23.132";"NST_correctLoc";"16";"0";"FINISHED";"LEFT";"success";"753";"0";"2014-09-12 11:33:21.868";"2";;;;;;;;;;;;;;;;;;;;;;;;;;;;;;;;;
"HJB30GS";"1956";;"Windows 7";"Rachel's Experiment (D.T.)";"1.0";"2";"1";"1";"2";"1";"1";"2014-09-12 11:25:56.113";"2014-09-12 11:42:33.298";"1";"1";"0";"110";"109";"module.training_block3.exec-1941.GoNoGo3";;;;;;;;;;;;;;;;;;;;;;;;;;;;;;;;;;;;;;;;;;;;;;;"1254";"2014-09-12 11:33:25.674";"NST_correctLoc";"10";"1";"FINISHED";"RIGHT";"success";"932";"0";"2014-09-12 11:33:24.411";"2";;;;;;;;;;;;;;;;;;;;;;;;;;;;;;;;;
"HJB30GS";"1956";;"Windows 7";"Rachel's Experiment (D.T.)";"1.0";"2";"1";"1";"2";"1";"1";"2014-09-12 11:25:56.113";"2014-09-12 11:42:33.298";"1";"1";"0";"111";"110";"module.training_block3.exec-1941.GoNoGo3";;;;;;;;;;;;;;;;;;;;;;;;;;;;;;;;;;;;;;;;;;;;;;;"1256";"2014-09-12 11:33:28.217";"ST_correctStop";"33";"0";"FINISHED";"NONE";"success";"0";"1";"2014-09-12 11:33:26.954";"3";;;;;;;;;;;;;;;;;;;;;;;;;;;;;;;;;
"HJB30GS";"1956";;"Windows 7";"Rachel's Experiment (D.T.)";"1.0";"2";"1";"1";"2";"1";"1";"2014-09-12 11:25:56.113";"2014-09-12 11:42:33.298";"1";"1";"0";"112";"111";"module.training_block3.exec-1941.GoNoGo3";;;;;;;;;;;;;;;;;;;;;;;;;;;;;;;;;;;;;;;;;;;;;;;"1256";"2014-09-12 11:33:30.760";"NST_correctLoc";"15";"1";"FINISHED";"RIGHT";"success";"525";"0";"2014-09-12 11:33:29.496";"2";;;;;;;;;;;;;;;;;;;;;;;;;;;;;;;;;
"HJB30GS";"1956";;"Windows 7";"Rachel's Experiment (D.T.)";"1.0";"2";"1";"1";"2";"1";"1";"2014-09-12 11:25:56.113";"2014-09-12 11:42:33.298";"1";"1";"0";"113";"112";"module.training_block3.exec-1941.GoNoGo3";;;;;;;;;;;;;;;;;;;;;;;;;;;;;;;;;;;;;;;;;;;;;;;"1249";"2014-09-12 11:33:33.303";"NST_correctLoc";"14";"0";"FINISHED";"LEFT";"success";"772";"0";"2014-09-12 11:33:32.039";"2";;;;;;;;;;;;;;;;;;;;;;;;;;;;;;;;;
"HJB30GS";"1956";;"Windows 7";"Rachel's Experiment (D.T.)";"1.0";"2";"1";"1";"2";"1";"1";"2014-09-12 11:25:56.113";"2014-09-12 11:42:33.298";"1";"1";"0";"114";"113";"module.training_block3.exec-1941.GoNoGo3";;;;;;;;;;;;;;;;;;;;;;;;;;;;;;;;;;;;;;;;;;;;;;;"1255";"2014-09-12 11:33:35.846";"ST_correctStop";"7";"0";"FINISHED";"NONE";"success";"0";"1";"2014-09-12 11:33:34.582";"1";;;;;;;;;;;;;;;;;;;;;;;;;;;;;;;;;
"HJB30GS";"1956";;"Windows 7";"Rachel's Experiment (D.T.)";"1.0";"2";"1";"1";"2";"1";"1";"2014-09-12 11:25:56.113";"2014-09-12 11:42:33.298";"1";"1";"0";"115";"114";"module.training_block3.exec-1941.GoNoGo3";;;;;;;;;;;;;;;;;;;;;;;;;;;;;;;;;;;;;;;;;;;;;;;"1257";"2014-09-12 11:33:38.388";"ST_correctStop";"28";"0";"FINISHED";"NONE";"success";"0";"1";"2014-09-12 11:33:37.125";"3";;;;;;;;;;;;;;;;;;;;;;;;;;;;;;;;;
"HJB30GS";"1956";;"Windows 7";"Rachel's Experiment (D.T.)";"1.0";"2";"1";"1";"2";"1";"1";"2014-09-12 11:25:56.113";"2014-09-12 11:42:33.298";"1";"1";"0";"116";"115";"module.training_block3.exec-1941.GoNoGo3";;;;;;;;;;;;;;;;;;;;;;;;;;;;;;;;;;;;;;;;;;;;;;;"1256";"2014-09-12 11:33:40.931";"ST_correctStop";"8";"0";"FINISHED";"NONE";"success";"0";"1";"2014-09-12 11:33:39.668";"1";;;;;;;;;;;;;;;;;;;;;;;;;;;;;;;;;
"HJB30GS";"1956";;"Windows 7";"Rachel's Experiment (D.T.)";"1.0";"2";"1";"1";"2";"1";"1";"2014-09-12 11:25:56.113";"2014-09-12 11:42:33.298";"1";"1";"0";"117";"116";"module.training_block3.exec-1941.GoNoGo3";;;;;;;;;;;;;;;;;;;;;;;;;;;;;;;;;;;;;;;;;;;;;;;"1257";"2014-09-12 11:33:43.474";"NST_correctLoc";"30";"1";"FINISHED";"RIGHT";"success";"507";"0";"2014-09-12 11:33:42.210";"3";;;;;;;;;;;;;;;;;;;;;;;;;;;;;;;;;
"HJB30GS";"1956";;"Windows 7";"Rachel's Experiment (D.T.)";"1.0";"2";"1";"1";"2";"1";"1";"2014-09-12 11:25:56.113";"2014-09-12 11:42:33.298";"1";"1";"0";"118";"117";"module.training_block3.exec-1941.GoNoGo3";;;;;;;;;;;;;;;;;;;;;;;;;;;;;;;;;;;;;;;;;;;;;;;"1255";"2014-09-12 11:33:46.017";"NST_correctLoc";"20";"1";"FINISHED";"RIGHT";"success";"779";"0";"2014-09-12 11:33:44.753";"3";;;;;;;;;;;;;;;;;;;;;;;;;;;;;;;;;
"HJB30GS";"1956";;"Windows 7";"Rachel's Experiment (D.T.)";"1.0";"2";"1";"1";"2";"1";"1";"2014-09-12 11:25:56.113";"2014-09-12 11:42:33.298";"1";"1";"0";"119";"118";"module.training_block3.exec-1941.GoNoGo3";;;;;;;;;;;;;;;;;;;;;;;;;;;;;;;;;;;;;;;;;;;;;;;"1257";"2014-09-12 11:33:48.560";"NST_correctLoc";"26";"1";"FINISHED";"RIGHT";"success";"660";"0";"2014-09-12 11:33:47.296";"3";;;;;;;;;;;;;;;;;;;;;;;;;;;;;;;;;
"HJB30GS";"1956";;"Windows 7";"Rachel's Experiment (D.T.)";"1.0";"2";"1";"1";"2";"1";"1";"2014-09-12 11:25:56.113";"2014-09-12 11:42:33.298";"1";"1";"0";"120";"119";"module.training_block3.exec-1941.GoNoGo3";;;;;;;;;;;;;;;;;;;;;;;;;;;;;;;;;;;;;;;;;;;;;;;"1253";"2014-09-12 11:33:51.102";"NST_correctLoc";"34";"0";"FINISHED";"LEFT";"success";"730";"0";"2014-09-12 11:33:49.839";"3";;;;;;;;;;;;;;;;;;;;;;;;;;;;;;;;;
"HJB30GS";"1956";;"Windows 7";"Rachel's Experiment (D.T.)";"1.0";"2";"1";"1";"2";"1";"1";"2014-09-12 11:25:56.113";"2014-09-12 11:42:33.298";"1";"1";"0";"121";"120";"module.training_block3.exec-1941.GoNoGo3";;;;;;;;;;;;;;;;;;;;;;;;;;;;;;;;;;;;;;;;;;;;;;;"1256";"2014-09-12 11:33:53.645";"ST_correctStop";"0";"0";"FINISHED";"NONE";"success";"0";"1";"2014-09-12 11:33:52.382";"1";;;;;;;;;;;;;;;;;;;;;;;;;;;;;;;;;
"HJB30GS";"1956";;"Windows 7";"Rachel's Experiment (D.T.)";"1.0";"2";"1";"1";"2";"1";"1";"2014-09-12 11:25:56.113";"2014-09-12 11:42:33.298";"1";"1";"0";"122";"121";"module.training_block3.exec-1941.GoNoGo3";;;;;;;;;;;;;;;;;;;;;;;;;;;;;;;;;;;;;;;;;;;;;;;"1256";"2014-09-12 11:33:56.188";"NST_correctLoc";"19";"0";"FINISHED";"LEFT";"success";"707";"0";"2014-09-12 11:33:54.924";"3";;;;;;;;;;;;;;;;;;;;;;;;;;;;;;;;;
"HJB30GS";"1956";;"Windows 7";"Rachel's Experiment (D.T.)";"1.0";"2";"1";"1";"2";"1";"1";"2014-09-12 11:25:56.113";"2014-09-12 11:42:33.298";"1";"1";"0";"123";"122";"module.training_block3.exec-1941.GoNoGo3";;;;;;;;;;;;;;;;;;;;;;;;;;;;;;;;;;;;;;;;;;;;;;;"1249";"2014-09-12 11:33:58.731";"ST_correctStop";"2";"1";"FINISHED";"NONE";"success";"0";"1";"2014-09-12 11:33:57.467";"1";;;;;;;;;;;;;;;;;;;;;;;;;;;;;;;;;
"HJB30GS";"1956";;"Windows 7";"Rachel's Experiment (D.T.)";"1.0";"2";"1";"1";"2";"1";"1";"2014-09-12 11:25:56.113";"2014-09-12 11:42:33.298";"1";"1";"0";"124";"123";"module.training_block4.exec-6315.GoNoGo4";;;;;;;;;;;;;;;;;;;;;;;;;;;;;;;;;;;;;;;;;;;;;;;;;;;;;;;;;;;"1256";"2014-09-12 11:34:12.381";"ST_correctStop";"28";"1";"FINISHED";"NONE";"success";"0";"1";"2014-09-12 11:34:11.117";"3";;;;;;;;;;;;;;;;;;;;;
"HJB30GS";"1956";;"Windows 7";"Rachel's Experiment (D.T.)";"1.0";"2";"1";"1";"2";"1";"1";"2014-09-12 11:25:56.113";"2014-09-12 11:42:33.298";"1";"1";"0";"125";"124";"module.training_block4.exec-6315.GoNoGo4";;;;;;;;;;;;;;;;;;;;;;;;;;;;;;;;;;;;;;;;;;;;;;;;;;;;;;;;;;;"1257";"2014-09-12 11:34:14.924";"NST_correctLoc";"10";"0";"FINISHED";"LEFT";"success";"569";"0";"2014-09-12 11:34:13.660";"2";;;;;;;;;;;;;;;;;;;;;
"HJB30GS";"1956";;"Windows 7";"Rachel's Experiment (D.T.)";"1.0";"2";"1";"1";"2";"1";"1";"2014-09-12 11:25:56.113";"2014-09-12 11:42:33.298";"1";"1";"0";"126";"125";"module.training_block4.exec-6315.GoNoGo4";;;;;;;;;;;;;;;;;;;;;;;;;;;;;;;;;;;;;;;;;;;;;;;;;;;;;;;;;;;"1253";"2014-09-12 11:34:17.466";"ST_correctStop";"31";"1";"FINISHED";"NONE";"success";"0";"1";"2014-09-12 11:34:16.203";"3";;;;;;;;;;;;;;;;;;;;;
"HJB30GS";"1956";;"Windows 7";"Rachel's Experiment (D.T.)";"1.0";"2";"1";"1";"2";"1";"1";"2014-09-12 11:25:56.113";"2014-09-12 11:42:33.298";"1";"1";"0";"127";"126";"module.training_block4.exec-6315.GoNoGo4";;;;;;;;;;;;;;;;;;;;;;;;;;;;;;;;;;;;;;;;;;;;;;;;;;;;;;;;;;;"1257";"2014-09-12 11:34:20.009";"NST_correctLoc";"30";"1";"FINISHED";"RIGHT";"success";"572";"0";"2014-09-12 11:34:18.746";"3";;;;;;;;;;;;;;;;;;;;;
"HJB30GS";"1956";;"Windows 7";"Rachel's Experiment (D.T.)";"1.0";"2";"1";"1";"2";"1";"1";"2014-09-12 11:25:56.113";"2014-09-12 11:42:33.298";"1";"1";"0";"128";"127";"module.training_block4.exec-6315.GoNoGo4";;;;;;;;;;;;;;;;;;;;;;;;;;;;;;;;;;;;;;;;;;;;;;;;;;;;;;;;;;;"1257";"2014-09-12 11:34:22.552";"ST_correctStop";"27";"1";"FINISHED";"NONE";"success";"0";"1";"2014-09-12 11:34:21.288";"3";;;;;;;;;;;;;;;;;;;;;
"HJB30GS";"1956";;"Windows 7";"Rachel's Experiment (D.T.)";"1.0";"2";"1";"1";"2";"1";"1";"2014-09-12 11:25:56.113";"2014-09-12 11:42:33.298";"1";"1";"0";"129";"128";"module.training_block4.exec-6315.GoNoGo4";;;;;;;;;;;;;;;;;;;;;;;;;;;;;;;;;;;;;;;;;;;;;;;;;;;;;;;;;;;"1256";"2014-09-12 11:34:25.095";"ST_correctStop";"32";"0";"FINISHED";"NONE";"success";"0";"1";"2014-09-12 11:34:23.831";"3";;;;;;;;;;;;;;;;;;;;;
"HJB30GS";"1956";;"Windows 7";"Rachel's Experiment (D.T.)";"1.0";"2";"1";"1";"2";"1";"1";"2014-09-12 11:25:56.113";"2014-09-12 11:42:33.298";"1";"1";"0";"130";"129";"module.training_block4.exec-6315.GoNoGo4";;;;;;;;;;;;;;;;;;;;;;;;;;;;;;;;;;;;;;;;;;;;;;;;;;;;;;;;;;;"1256";"2014-09-12 11:34:27.638";"NST_correctLoc";"13";"0";"FINISHED";"LEFT";"success";"619";"0";"2014-09-12 11:34:26.374";"2";;;;;;;;;;;;;;;;;;;;;
"HJB30GS";"1956";;"Windows 7";"Rachel's Experiment (D.T.)";"1.0";"2";"1";"1";"2";"1";"1";"2014-09-12 11:25:56.113";"2014-09-12 11:42:33.298";"1";"1";"0";"131";"130";"module.training_block4.exec-6315.GoNoGo4";;;;;;;;;;;;;;;;;;;;;;;;;;;;;;;;;;;;;;;;;;;;;;;;;;;;;;;;;;;"1256";"2014-09-12 11:34:30.180";"ST_correctStop";"1";"1";"FINISHED";"NONE";"success";"0";"1";"2014-09-12 11:34:28.917";"1";;;;;;;;;;;;;;;;;;;;;
"HJB30GS";"1956";;"Windows 7";"Rachel's Experiment (D.T.)";"1.0";"2";"1";"1";"2";"1";"1";"2014-09-12 11:25:56.113";"2014-09-12 11:42:33.298";"1";"1";"0";"132";"131";"module.training_block4.exec-6315.GoNoGo4";;;;;;;;;;;;;;;;;;;;;;;;;;;;;;;;;;;;;;;;;;;;;;;;;;;;;;;;;;;"1257";"2014-09-12 11:34:32.723";"ST_correctStop";"18";"1";"FINISHED";"NONE";"success";"0";"1";"2014-09-12 11:34:31.460";"3";;;;;;;;;;;;;;;;;;;;;
"HJB30GS";"1956";;"Windows 7";"Rachel's Experiment (D.T.)";"1.0";"2";"1";"1";"2";"1";"1";"2014-09-12 11:25:56.113";"2014-09-12 11:42:33.298";"1";"1";"0";"133";"132";"module.training_block4.exec-6315.GoNoGo4";;;;;;;;;;;;;;;;;;;;;;;;;;;;;;;;;;;;;;;;;;;;;;;;;;;;;;;;;;;"1256";"2014-09-12 11:34:35.266";"NST_correctLoc";"25";"1";"FINISHED";"RIGHT";"success";"616";"0";"2014-09-12 11:34:34.002";"3";;;;;;;;;;;;;;;;;;;;;
"HJB30GS";"1956";;"Windows 7";"Rachel's Experiment (D.T.)";"1.0";"2";"1";"1";"2";"1";"1";"2014-09-12 11:25:56.113";"2014-09-12 11:42:33.298";"1";"1";"0";"134";"133";"module.training_block4.exec-6315.GoNoGo4";;;;;;;;;;;;;;;;;;;;;;;;;;;;;;;;;;;;;;;;;;;;;;;;;;;;;;;;;;;"1256";"2014-09-12 11:34:37.809";"NST_correctLoc";"9";"0";"FINISHED";"LEFT";"success";"686";"0";"2014-09-12 11:34:36.545";"2";;;;;;;;;;;;;;;;;;;;;
"HJB30GS";"1956";;"Windows 7";"Rachel's Experiment (D.T.)";"1.0";"2";"1";"1";"2";"1";"1";"2014-09-12 11:25:56.113";"2014-09-12 11:42:33.298";"1";"1";"0";"135";"134";"module.training_block4.exec-6315.GoNoGo4";;;;;;;;;;;;;;;;;;;;;;;;;;;;;;;;;;;;;;;;;;;;;;;;;;;;;;;;;;;"1256";"2014-09-12 11:34:40.352";"ST_correctStop";"0";"1";"FINISHED";"NONE";"success";"0";"1";"2014-09-12 11:34:39.088";"1";;;;;;;;;;;;;;;;;;;;;
"HJB30GS";"1956";;"Windows 7";"Rachel's Experiment (D.T.)";"1.0";"2";"1";"1";"2";"1";"1";"2014-09-12 11:25:56.113";"2014-09-12 11:42:33.298";"1";"1";"0";"136";"135";"module.training_block4.exec-6315.GoNoGo4";;;;;;;;;;;;;;;;;;;;;;;;;;;;;;;;;;;;;;;;;;;;;;;;;;;;;;;;;;;"1252";"2014-09-12 11:34:42.895";"ST_correctStop";"24";"0";"FINISHED";"NONE";"success";"0";"1";"2014-09-12 11:34:41.631";"3";;;;;;;;;;;;;;;;;;;;;
"HJB30GS";"1956";;"Windows 7";"Rachel's Experiment (D.T.)";"1.0";"2";"1";"1";"2";"1";"1";"2014-09-12 11:25:56.113";"2014-09-12 11:42:33.298";"1";"1";"0";"137";"136";"module.training_block4.exec-6315.GoNoGo4";;;;;;;;;;;;;;;;;;;;;;;;;;;;;;;;;;;;;;;;;;;;;;;;;;;;;;;;;;;"1253";"2014-09-12 11:34:45.437";"NST_correctLoc";"26";"0";"FINISHED";"LEFT";"success";"770";"0";"2014-09-12 11:34:44.174";"3";;;;;;;;;;;;;;;;;;;;;
"HJB30GS";"1956";;"Windows 7";"Rachel's Experiment (D.T.)";"1.0";"2";"1";"1";"2";"1";"1";"2014-09-12 11:25:56.113";"2014-09-12 11:42:33.298";"1";"1";"0";"138";"137";"module.training_block4.exec-6315.GoNoGo4";;;;;;;;;;;;;;;;;;;;;;;;;;;;;;;;;;;;;;;;;;;;;;;;;;;;;;;;;;;"1253";"2014-09-12 11:34:47.980";"ST_correctStop";"21";"0";"FINISHED";"NONE";"success";"0";"1";"2014-09-12 11:34:46.717";"3";;;;;;;;;;;;;;;;;;;;;
"HJB30GS";"1956";;"Windows 7";"Rachel's Experiment (D.T.)";"1.0";"2";"1";"1";"2";"1";"1";"2014-09-12 11:25:56.113";"2014-09-12 11:42:33.298";"1";"1";"0";"139";"138";"module.training_block4.exec-6315.GoNoGo4";;;;;;;;;;;;;;;;;;;;;;;;;;;;;;;;;;;;;;;;;;;;;;;;;;;;;;;;;;;"1255";"2014-09-12 11:34:50.523";"ST_correctStop";"4";"1";"FINISHED";"NONE";"success";"0";"1";"2014-09-12 11:34:49.259";"1";;;;;;;;;;;;;;;;;;;;;
"HJB30GS";"1956";;"Windows 7";"Rachel's Experiment (D.T.)";"1.0";"2";"1";"1";"2";"1";"1";"2014-09-12 11:25:56.113";"2014-09-12 11:42:33.298";"1";"1";"0";"140";"139";"module.training_block4.exec-6315.GoNoGo4";;;;;;;;;;;;;;;;;;;;;;;;;;;;;;;;;;;;;;;;;;;;;;;;;;;;;;;;;;;"1255";"2014-09-12 11:34:53.066";"NST_correctLoc";"29";"0";"FINISHED";"LEFT";"success";"696";"0";"2014-09-12 11:34:51.802";"3";;;;;;;;;;;;;;;;;;;;;
"HJB30GS";"1956";;"Windows 7";"Rachel's Experiment (D.T.)";"1.0";"2";"1";"1";"2";"1";"1";"2014-09-12 11:25:56.113";"2014-09-12 11:42:33.298";"1";"1";"0";"141";"140";"module.training_block4.exec-6315.GoNoGo4";;;;;;;;;;;;;;;;;;;;;;;;;;;;;;;;;;;;;;;;;;;;;;;;;;;;;;;;;;;"1253";"2014-09-12 11:34:55.609";"NST_correctLoc";"11";"1";"FINISHED";"RIGHT";"success";"677";"0";"2014-09-12 11:34:54.345";"2";;;;;;;;;;;;;;;;;;;;;
"HJB30GS";"1956";;"Windows 7";"Rachel's Experiment (D.T.)";"1.0";"2";"1";"1";"2";"1";"1";"2014-09-12 11:25:56.113";"2014-09-12 11:42:33.298";"1";"1";"0";"142";"141";"module.training_block4.exec-6315.GoNoGo4";;;;;;;;;;;;;;;;;;;;;;;;;;;;;;;;;;;;;;;;;;;;;;;;;;;;;;;;;;;"1257";"2014-09-12 11:34:58.151";"ST_correctStop";"7";"1";"FINISHED";"NONE";"success";"0";"1";"2014-09-12 11:34:56.888";"1";;;;;;;;;;;;;;;;;;;;;
"HJB30GS";"1956";;"Windows 7";"Rachel's Experiment (D.T.)";"1.0";"2";"1";"1";"2";"1";"1";"2014-09-12 11:25:56.113";"2014-09-12 11:42:33.298";"1";"1";"0";"143";"142";"module.training_block4.exec-6315.GoNoGo4";;;;;;;;;;;;;;;;;;;;;;;;;;;;;;;;;;;;;;;;;;;;;;;;;;;;;;;;;;;"1256";"2014-09-12 11:35:00.679";"ST_correctStop";"6";"1";"FINISHED";"NONE";"success";"0";"1";"2014-09-12 11:34:59.415";"1";;;;;;;;;;;;;;;;;;;;;
"HJB30GS";"1956";;"Windows 7";"Rachel's Experiment (D.T.)";"1.0";"2";"1";"1";"2";"1";"1";"2014-09-12 11:25:56.113";"2014-09-12 11:42:33.298";"1";"1";"0";"144";"143";"module.training_block4.exec-6315.GoNoGo4";;;;;;;;;;;;;;;;;;;;;;;;;;;;;;;;;;;;;;;;;;;;;;;;;;;;;;;;;;;"1257";"2014-09-12 11:35:03.221";"NST_correctLoc";"23";"1";"FINISHED";"RIGHT";"success";"885";"0";"2014-09-12 11:35:01.958";"3";;;;;;;;;;;;;;;;;;;;;
"HJB30GS";"1956";;"Windows 7";"Rachel's Experiment (D.T.)";"1.0";"2";"1";"1";"2";"1";"1";"2014-09-12 11:25:56.113";"2014-09-12 11:42:33.298";"1";"1";"0";"145";"144";"module.training_block4.exec-6315.GoNoGo4";;;;;;;;;;;;;;;;;;;;;;;;;;;;;;;;;;;;;;;;;;;;;;;;;;;;;;;;;;;"1256";"2014-09-12 11:35:05.764";"NST_correctLoc";"19";"0";"FINISHED";"LEFT";"success";"542";"0";"2014-09-12 11:35:04.501";"3";;;;;;;;;;;;;;;;;;;;;
"HJB30GS";"1956";;"Windows 7";"Rachel's Experiment (D.T.)";"1.0";"2";"1";"1";"2";"1";"1";"2014-09-12 11:25:56.113";"2014-09-12 11:42:33.298";"1";"1";"0";"146";"145";"module.training_block4.exec-6315.GoNoGo4";;;;;;;;;;;;;;;;;;;;;;;;;;;;;;;;;;;;;;;;;;;;;;;;;;;;;;;;;;;"1251";"2014-09-12 11:35:08.307";"NST_correctLoc";"15";"1";"FINISHED";"RIGHT";"success";"551";"0";"2014-09-12 11:35:07.043";"2";;;;;;;;;;;;;;;;;;;;;
"HJB30GS";"1956";;"Windows 7";"Rachel's Experiment (D.T.)";"1.0";"2";"1";"1";"2";"1";"1";"2014-09-12 11:25:56.113";"2014-09-12 11:42:33.298";"1";"1";"0";"147";"146";"module.training_block4.exec-6315.GoNoGo4";;;;;;;;;;;;;;;;;;;;;;;;;;;;;;;;;;;;;;;;;;;;;;;;;;;;;;;;;;;"1256";"2014-09-12 11:35:10.850";"ST_correctStop";"2";"0";"FINISHED";"NONE";"success";"0";"1";"2014-09-12 11:35:09.586";"1";;;;;;;;;;;;;;;;;;;;;
"HJB30GS";"1956";;"Windows 7";"Rachel's Experiment (D.T.)";"1.0";"2";"1";"1";"2";"1";"1";"2014-09-12 11:25:56.113";"2014-09-12 11:42:33.298";"1";"1";"0";"148";"147";"module.training_block4.exec-6315.GoNoGo4";;;;;;;;;;;;;;;;;;;;;;;;;;;;;;;;;;;;;;;;;;;;;;;;;;;;;;;;;;;"1262";"2014-09-12 11:35:13.408";"NST_correctLoc";"14";"1";"FINISHED";"RIGHT";"success";"591";"0";"2014-09-12 11:35:12.145";"2";;;;;;;;;;;;;;;;;;;;;
"HJB30GS";"1956";;"Windows 7";"Rachel's Experiment (D.T.)";"1.0";"2";"1";"1";"2";"1";"1";"2014-09-12 11:25:56.113";"2014-09-12 11:42:33.298";"1";"1";"0";"149";"148";"module.training_block4.exec-6315.GoNoGo4";;;;;;;;;;;;;;;;;;;;;;;;;;;;;;;;;;;;;;;;;;;;;;;;;;;;;;;;;;;"1257";"2014-09-12 11:35:15.951";"ST_correctStop";"34";"0";"FINISHED";"NONE";"success";"0";"1";"2014-09-12 11:35:14.687";"3";;;;;;;;;;;;;;;;;;;;;
"HJB30GS";"1956";;"Windows 7";"Rachel's Experiment (D.T.)";"1.0";"2";"1";"1";"2";"1";"1";"2014-09-12 11:25:56.113";"2014-09-12 11:42:33.298";"1";"1";"0";"150";"149";"module.training_block4.exec-6315.GoNoGo4";;;;;;;;;;;;;;;;;;;;;;;;;;;;;;;;;;;;;;;;;;;;;;;;;;;;;;;;;;;"1257";"2014-09-12 11:35:18.494";"NST_correctLoc";"35";"0";"FINISHED";"LEFT";"success";"701";"0";"2014-09-12 11:35:17.230";"3";;;;;;;;;;;;;;;;;;;;;
"HJB30GS";"1956";;"Windows 7";"Rachel's Experiment (D.T.)";"1.0";"2";"1";"1";"2";"1";"1";"2014-09-12 11:25:56.113";"2014-09-12 11:42:33.298";"1";"1";"0";"151";"150";"module.training_block4.exec-6315.GoNoGo4";;;;;;;;;;;;;;;;;;;;;;;;;;;;;;;;;;;;;;;;;;;;;;;;;;;;;;;;;;;"1257";"2014-09-12 11:35:21.037";"ST_correctStop";"5";"0";"FINISHED";"NONE";"success";"0";"1";"2014-09-12 11:35:19.773";"1";;;;;;;;;;;;;;;;;;;;;
"HJB30GS";"1956";;"Windows 7";"Rachel's Experiment (D.T.)";"1.0";"2";"1";"1";"2";"1";"1";"2014-09-12 11:25:56.113";"2014-09-12 11:42:33.298";"1";"1";"0";"152";"151";"module.training_block4.exec-6315.GoNoGo4";;;;;;;;;;;;;;;;;;;;;;;;;;;;;;;;;;;;;;;;;;;;;;;;;;;;;;;;;;;"1257";"2014-09-12 11:35:23.579";"ST_correctStop";"8";"0";"FINISHED";"NONE";"success";"0";"1";"2014-09-12 11:35:22.316";"1";;;;;;;;;;;;;;;;;;;;;
"HJB30GS";"1956";;"Windows 7";"Rachel's Experiment (D.T.)";"1.0";"2";"1";"1";"2";"1";"1";"2014-09-12 11:25:56.113";"2014-09-12 11:42:33.298";"1";"1";"0";"153";"152";"module.training_block4.exec-6315.GoNoGo4";;;;;;;;;;;;;;;;;;;;;;;;;;;;;;;;;;;;;;;;;;;;;;;;;;;;;;;;;;;"1257";"2014-09-12 11:35:26.122";"ST_correctStop";"3";"1";"FINISHED";"NONE";"success";"0";"1";"2014-09-12 11:35:24.859";"1";;;;;;;;;;;;;;;;;;;;;
"HJB30GS";"1956";;"Windows 7";"Rachel's Experiment (D.T.)";"1.0";"2";"1";"1";"2";"1";"1";"2014-09-12 11:25:56.113";"2014-09-12 11:42:33.298";"1";"1";"0";"154";"153";"module.training_block4.exec-6315.GoNoGo4";;;;;;;;;;;;;;;;;;;;;;;;;;;;;;;;;;;;;;;;;;;;;;;;;;;;;;;;;;;"1253";"2014-09-12 11:35:28.665";"NST_correctLoc";"12";"0";"FINISHED";"LEFT";"success";"453";"0";"2014-09-12 11:35:27.401";"2";;;;;;;;;;;;;;;;;;;;;
"HJB30GS";"1956";;"Windows 7";"Rachel's Experiment (D.T.)";"1.0";"2";"1";"1";"2";"1";"1";"2014-09-12 11:25:56.113";"2014-09-12 11:42:33.298";"1";"1";"0";"155";"154";"module.training_block4.exec-6315.GoNoGo4";;;;;;;;;;;;;;;;;;;;;;;;;;;;;;;;;;;;;;;;;;;;;;;;;;;;;;;;;;;"1257";"2014-09-12 11:35:31.208";"NST_correctLoc";"33";"1";"FINISHED";"RIGHT";"success";"801";"0";"2014-09-12 11:35:29.944";"3";;;;;;;;;;;;;;;;;;;;;
"HJB30GS";"1956";;"Windows 7";"Rachel's Experiment (D.T.)";"1.0";"2";"1";"1";"2";"1";"1";"2014-09-12 11:25:56.113";"2014-09-12 11:42:33.298";"1";"1";"0";"156";"155";"module.training_block4.exec-6315.GoNoGo4";;;;;;;;;;;;;;;;;;;;;;;;;;;;;;;;;;;;;;;;;;;;;;;;;;;;;;;;;;;"1257";"2014-09-12 11:35:33.751";"NST_correctLoc";"16";"1";"FINISHED";"RIGHT";"success";"680";"0";"2014-09-12 11:35:32.487";"2";;;;;;;;;;;;;;;;;;;;;
"HJB30GS";"1956";;"Windows 7";"Rachel's Experiment (D.T.)";"1.0";"2";"1";"1";"2";"1";"1";"2014-09-12 11:25:56.113";"2014-09-12 11:42:33.298";"1";"1";"0";"157";"156";"module.training_block4.exec-6315.GoNoGo4";;;;;;;;;;;;;;;;;;;;;;;;;;;;;;;;;;;;;;;;;;;;;;;;;;;;;;;;;;;"1257";"2014-09-12 11:35:36.293";"NST_correctLoc";"17";"1";"FINISHED";"RIGHT";"success";"734";"0";"2014-09-12 11:35:35.030";"2";;;;;;;;;;;;;;;;;;;;;
"HJB30GS";"1956";;"Windows 7";"Rachel's Experiment (D.T.)";"1.0";"2";"1";"1";"2";"1";"1";"2014-09-12 11:25:56.113";"2014-09-12 11:42:33.298";"1";"1";"0";"158";"157";"module.training_block4.exec-6315.GoNoGo4";;;;;;;;;;;;;;;;;;;;;;;;;;;;;;;;;;;;;;;;;;;;;;;;;;;;;;;;;;;"1256";"2014-09-12 11:35:38.836";"ST_correctStop";"20";"1";"FINISHED";"NONE";"success";"0";"1";"2014-09-12 11:35:37.573";"3";;;;;;;;;;;;;;;;;;;;;
"HJB30GS";"1956";;"Windows 7";"Rachel's Experiment (D.T.)";"1.0";"2";"1";"1";"2";"1";"1";"2014-09-12 11:25:56.113";"2014-09-12 11:42:33.298";"1";"1";"0";"159";"158";"module.training_block4.exec-6315.GoNoGo4";;;;;;;;;;;;;;;;;;;;;;;;;;;;;;;;;;;;;;;;;;;;;;;;;;;;;;;;;;;"1257";"2014-09-12 11:35:41.379";"NST_correctLoc";"22";"0";"FINISHED";"LEFT";"success";"558";"0";"2014-09-12 11:35:40.115";"3";;;;;;;;;;;;;;;;;;;;;
"HJB30GS";"1956";;"Windows 7";"Rachel's Experiment (D.T.)";"1.0";"2";"1";"1";"2";"1";"1";"2014-09-12 11:25:56.113";"2014-09-12 11:42:33.298";"1";"1";"0";"160";"159";"module.devaluation_practice.exec-7159.devalPractice";;;;;;;;;;;;"18938";"2014-09-12 11:36:39.115";"0";"6";"4";"6";"8581";"4070";"3134";"2014-09-12 11:36:20.176";;;;;;;;;;;;;;;;;;;;;;;;;;;;;;;;;;;;;;;;;;;;;;;;;;;;;;;;;;;;;;;;;;;;;;
"HJB30GS";"1956";;"Windows 7";"Rachel's Experiment (D.T.)";"1.0";"2";"1";"1";"2";"1";"1";"2014-09-12 11:25:56.113";"2014-09-12 11:42:33.298";"1";"1";"0";"161";"160";"module.devaluation_practice.exec-7159.devalPractice";;;;;;;;;;;;"14067";"2014-09-12 11:36:53.202";"1";"5";"4";"4";"3718";"3263";"4033";"2014-09-12 11:36:39.146";;;;;;;;;;;;;;;;;;;;;;;;;;;;;;;;;;;;;;;;;;;;;;;;;;;;;;;;;;;;;;;;;;;;;;
"HJB30GS";"1956";;"Windows 7";"Rachel's Experiment (D.T.)";"1.0";"2";"1";"1";"2";"1";"1";"2014-09-12 11:25:56.113";"2014-09-12 11:42:33.298";"1";"1";"0";"162";"161";"module.devaluation_practice.exec-7159.devalPractice";;;;;;;;;;;;"12225";"2014-09-12 11:37:05.463";"2";"6";"4";"6";"3810";"2608";"2740";"2014-09-12 11:36:53.233";;;;;;;;;;;;;;;;;;;;;;;;;;;;;;;;;;;;;;;;;;;;;;;;;;;;;;;;;;;;;;;;;;;;;;
"HJB30GS";"1956";;"Windows 7";"Rachel's Experiment (D.T.)";"1.0";"2";"1";"1";"2";"1";"1";"2014-09-12 11:25:56.113";"2014-09-12 11:42:33.298";"1";"1";"0";"163";"162";"module.devaluation_practice.exec-7159.devalPractice";;;;;;;;;;;;"15203";"2014-09-12 11:37:20.689";"3";"4";"4";"4";"2887";"3464";"5791";"2014-09-12 11:37:05.494";;;;;;;;;;;;;;;;;;;;;;;;;;;;;;;;;;;;;;;;;;;;;;;;;;;;;;;;;;;;;;;;;;;;;;
"HJB30GS";"1956";;"Windows 7";"Rachel's Experiment (D.T.)";"1.0";"2";"1";"1";"2";"1";"1";"2014-09-12 11:25:56.113";"2014-09-12 11:42:33.298";"1";"1";"0";"164";"163";"module.devaluation_block1.exec-9507.deval1";"11686";"2014-09-12 11:37:43.683";"14";"7";"7";"7";"3880";"2080";"2674";"2014-09-12 11:37:31.983";"2";;;;;;;;;;;;;;;;;;;;;;;;;;;;;;;;;;;;;;;;;;;;;;;;;;;;;;;;;;;;;;;;;;;;;;;;;;;;;;;;
"HJB30GS";"1956";;"Windows 7";"Rachel's Experiment (D.T.)";"1.0";"2";"1";"1";"2";"1";"1";"2014-09-12 11:25:56.113";"2014-09-12 11:42:33.298";"1";"1";"0";"165";"164";"module.devaluation_block1.exec-9507.deval1";"12993";"2014-09-12 11:37:56.725";"4";"5";"4";"5";"3441";"2314";"4176";"2014-09-12 11:37:43.730";"1";;;;;;;;;;;;;;;;;;;;;;;;;;;;;;;;;;;;;;;;;;;;;;;;;;;;;;;;;;;;;;;;;;;;;;;;;;;;;;;;
"HJB30GS";"1956";;"Windows 7";"Rachel's Experiment (D.T.)";"1.0";"2";"1";"1";"2";"1";"1";"2014-09-12 11:25:56.113";"2014-09-12 11:42:33.298";"1";"1";"0";"166";"165";"module.devaluation_block1.exec-9507.deval1";"11802";"2014-09-12 11:38:08.581";"15";"3";"2";"3";"3475";"1997";"3263";"2014-09-12 11:37:56.787";"2";;;;;;;;;;;;;;;;;;;;;;;;;;;;;;;;;;;;;;;;;;;;;;;;;;;;;;;;;;;;;;;;;;;;;;;;;;;;;;;;
"HJB30GS";"1956";;"Windows 7";"Rachel's Experiment (D.T.)";"1.0";"2";"1";"1";"2";"1";"1";"2014-09-12 11:25:56.113";"2014-09-12 11:42:33.298";"1";"1";"0";"167";"166";"module.devaluation_block1.exec-9507.deval1";"13545";"2014-09-12 11:38:22.184";"16";"3";"2";"2";"5792";"1856";"2833";"2014-09-12 11:38:08.643";"2";;;;;;;;;;;;;;;;;;;;;;;;;;;;;;;;;;;;;;;;;;;;;;;;;;;;;;;;;;;;;;;;;;;;;;;;;;;;;;;;
"HJB30GS";"1956";;"Windows 7";"Rachel's Experiment (D.T.)";"1.0";"2";"1";"1";"2";"1";"1";"2014-09-12 11:25:56.113";"2014-09-12 11:42:33.298";"1";"1";"0";"168";"167";"module.devaluation_block1.exec-9507.deval1";"10340";"2014-09-12 11:38:32.589";"0";"4";"5";"5";"4099";"1165";"2015";"2014-09-12 11:38:22.246";"1";;;;;;;;;;;;;;;;;;;;;;;;;;;;;;;;;;;;;;;;;;;;;;;;;;;;;;;;;;;;;;;;;;;;;;;;;;;;;;;;
"HJB30GS";"1956";;"Windows 7";"Rachel's Experiment (D.T.)";"1.0";"2";"1";"1";"2";"1";"1";"2014-09-12 11:25:56.113";"2014-09-12 11:42:33.298";"1";"1";"0";"169";"168";"module.devaluation_block1.exec-9507.deval1";"11877";"2014-09-12 11:38:44.523";"20";"7";"6";"7";"5314";"1309";"2192";"2014-09-12 11:38:32.652";"3";;;;;;;;;;;;;;;;;;;;;;;;;;;;;;;;;;;;;;;;;;;;;;;;;;;;;;;;;;;;;;;;;;;;;;;;;;;;;;;;
"HJB30GS";"1956";;"Windows 7";"Rachel's Experiment (D.T.)";"1.0";"2";"1";"1";"2";"1";"1";"2014-09-12 11:25:56.113";"2014-09-12 11:42:33.298";"1";"1";"0";"170";"169";"module.devaluation_block1.exec-9507.deval1";"9620";"2014-09-12 11:38:54.289";"10";"7";"6";"8";"2581";"2546";"1434";"2014-09-12 11:38:44.664";"2";;;;;;;;;;;;;;;;;;;;;;;;;;;;;;;;;;;;;;;;;;;;;;;;;;;;;;;;;;;;;;;;;;;;;;;;;;;;;;;;
"HJB30GS";"1956";;"Windows 7";"Rachel's Experiment (D.T.)";"1.0";"2";"1";"1";"2";"1";"1";"2014-09-12 11:25:56.113";"2014-09-12 11:42:33.298";"1";"1";"0";"171";"170";"module.devaluation_block1.exec-9507.deval1";"10008";"2014-09-12 11:39:04.351";"24";"4";"1";"3";"1774";"2384";"2801";"2014-09-12 11:38:54.336";"3";;;;;;;;;;;;;;;;;;;;;;;;;;;;;;;;;;;;;;;;;;;;;;;;;;;;;;;;;;;;;;;;;;;;;;;;;;;;;;;;
"HJB30GS";"1956";;"Windows 7";"Rachel's Experiment (D.T.)";"1.0";"2";"1";"1";"2";"1";"1";"2014-09-12 11:25:56.113";"2014-09-12 11:42:33.298";"1";"1";"0";"172";"171";"module.devaluation_block1.exec-9507.deval1";"9712";"2014-09-12 11:39:14.117";"1";"5";"3";"5";"2807";"1528";"2294";"2014-09-12 11:39:04.413";"1";;;;;;;;;;;;;;;;;;;;;;;;;;;;;;;;;;;;;;;;;;;;;;;;;;;;;;;;;;;;;;;;;;;;;;;;;;;;;;;;
"HJB30GS";"1956";;"Windows 7";"Rachel's Experiment (D.T.)";"1.0";"2";"1";"1";"2";"1";"1";"2014-09-12 11:25:56.113";"2014-09-12 11:42:33.298";"1";"1";"0";"173";"172";"module.devaluation_block1.exec-9507.deval1";"9384";"2014-09-12 11:39:23.555";"12";"7";"7";"6";"2015";"1082";"3225";"2014-09-12 11:39:14.179";"2";;;;;;;;;;;;;;;;;;;;;;;;;;;;;;;;;;;;;;;;;;;;;;;;;;;;;;;;;;;;;;;;;;;;;;;;;;;;;;;;
"HJB30GS";"1956";;"Windows 7";"Rachel's Experiment (D.T.)";"1.0";"2";"1";"1";"2";"1";"1";"2014-09-12 11:25:56.113";"2014-09-12 11:42:33.298";"1";"1";"0";"174";"173";"module.devaluation_block1.exec-9507.deval1";"8282";"2014-09-12 11:39:31.869";"11";"6";"5";"5";"1457";"1168";"2586";"2014-09-12 11:39:23.586";"2";;;;;;;;;;;;;;;;;;;;;;;;;;;;;;;;;;;;;;;;;;;;;;;;;;;;;;;;;;;;;;;;;;;;;;;;;;;;;;;;
"HJB30GS";"1956";;"Windows 7";"Rachel's Experiment (D.T.)";"1.0";"2";"1";"1";"2";"1";"1";"2014-09-12 11:25:56.113";"2014-09-12 11:42:33.298";"1";"1";"0";"175";"174";"module.devaluation_block1.exec-9507.deval1";"9210";"2014-09-12 11:39:41.120";"8";"3";"1";"2";"2094";"2095";"1962";"2014-09-12 11:39:31.916";"1";;;;;;;;;;;;;;;;;;;;;;;;;;;;;;;;;;;;;;;;;;;;;;;;;;;;;;;;;;;;;;;;;;;;;;;;;;;;;;;;
"HJB30GS";"1956";;"Windows 7";"Rachel's Experiment (D.T.)";"1.0";"2";"1";"1";"2";"1";"1";"2014-09-12 11:25:56.113";"2014-09-12 11:42:33.298";"1";"1";"0";"176";"175";"module.devaluation_block1.exec-9507.deval1";"12421";"2014-09-12 11:39:53.616";"25";"5";"4";"5";"6182";"1256";"1936";"2014-09-12 11:39:41.183";"3";;;;;;;;;;;;;;;;;;;;;;;;;;;;;;;;;;;;;;;;;;;;;;;;;;;;;;;;;;;;;;;;;;;;;;;;;;;;;;;;
"HJB30GS";"1956";;"Windows 7";"Rachel's Experiment (D.T.)";"1.0";"2";"1";"1";"2";"1";"1";"2014-09-12 11:25:56.113";"2014-09-12 11:42:33.298";"1";"1";"0";"177";"176";"module.devaluation_block1.exec-9507.deval1";"10910";"2014-09-12 11:40:04.551";"17";"6";"6";"6";"4158";"1927";"1773";"2014-09-12 11:39:53.631";"2";;;;;;;;;;;;;;;;;;;;;;;;;;;;;;;;;;;;;;;;;;;;;;;;;;;;;;;;;;;;;;;;;;;;;;;;;;;;;;;;
"HJB30GS";"1956";;"Windows 7";"Rachel's Experiment (D.T.)";"1.0";"2";"1";"1";"2";"1";"1";"2014-09-12 11:25:56.113";"2014-09-12 11:42:33.298";"1";"1";"0";"178";"177";"module.devaluation_block1.exec-9507.deval1";"9716";"2014-09-12 11:40:14.317";"7";"1";"1";"1";"2620";"1906";"2147";"2014-09-12 11:40:04.598";"1";;;;;;;;;;;;;;;;;;;;;;;;;;;;;;;;;;;;;;;;;;;;;;;;;;;;;;;;;;;;;;;;;;;;;;;;;;;;;;;;
"HJB30GS";"1956";;"Windows 7";"Rachel's Experiment (D.T.)";"1.0";"2";"1";"1";"2";"1";"1";"2014-09-12 11:25:56.113";"2014-09-12 11:42:33.298";"1";"1";"0";"179";"178";"module.devaluation_block1.exec-9507.deval1";"14293";"2014-09-12 11:40:28.669";"21";"4";"2";"4";"4343";"3387";"3503";"2014-09-12 11:40:14.379";"3";;;;;;;;;;;;;;;;;;;;;;;;;;;;;;;;;;;;;;;;;;;;;;;;;;;;;;;;;;;;;;;;;;;;;;;;;;;;;;;;
"HJB30GS";"1956";;"Windows 7";"Rachel's Experiment (D.T.)";"1.0";"2";"1";"1";"2";"1";"1";"2014-09-12 11:25:56.113";"2014-09-12 11:42:33.298";"1";"1";"0";"180";"179";"module.devaluation_block1.exec-9507.deval1";"11879";"2014-09-12 11:40:40.603";"5";"5";"2";"6";"3016";"2306";"3488";"2014-09-12 11:40:28.732";"1";;;;;;;;;;;;;;;;;;;;;;;;;;;;;;;;;;;;;;;;;;;;;;;;;;;;;;;;;;;;;;;;;;;;;;;;;;;;;;;;
"HJB30GS";"1956";;"Windows 7";"Rachel's Experiment (D.T.)";"1.0";"2";"1";"1";"2";"1";"1";"2014-09-12 11:25:56.113";"2014-09-12 11:42:33.298";"1";"1";"0";"181";"180";"module.devaluation_block1.exec-9507.deval1";"11602";"2014-09-12 11:40:52.272";"2";"5";"2";"5";"3697";"2054";"2804";"2014-09-12 11:40:40.666";"1";;;;;;;;;;;;;;;;;;;;;;;;;;;;;;;;;;;;;;;;;;;;;;;;;;;;;;;;;;;;;;;;;;;;;;;;;;;;;;;;
"HJB30GS";"1956";;"Windows 7";"Rachel's Experiment (D.T.)";"1.0";"2";"1";"1";"2";"1";"1";"2014-09-12 11:25:56.113";"2014-09-12 11:42:33.298";"1";"1";"0";"182";"181";"module.devaluation_block1.exec-9507.deval1";"8604";"2014-09-12 11:41:00.930";"9";"6";"6";"6";"1346";"2904";"1268";"2014-09-12 11:40:52.334";"2";;;;;;;;;;;;;;;;;;;;;;;;;;;;;;;;;;;;;;;;;;;;;;;;;;;;;;;;;;;;;;;;;;;;;;;;;;;;;;;;
"HJB30GS";"1956";;"Windows 7";"Rachel's Experiment (D.T.)";"1.0";"2";"1";"1";"2";"1";"1";"2014-09-12 11:25:56.113";"2014-09-12 11:42:33.298";"1";"1";"0";"183";"182";"module.devaluation_block1.exec-9507.deval1";"11434";"2014-09-12 11:41:12.412";"22";"3";"2";"3";"3722";"1855";"2783";"2014-09-12 11:41:00.977";"3";;;;;;;;;;;;;;;;;;;;;;;;;;;;;;;;;;;;;;;;;;;;;;;;;;;;;;;;;;;;;;;;;;;;;;;;;;;;;;;;
"HJB30GS";"1956";;"Windows 7";"Rachel's Experiment (D.T.)";"1.0";"2";"1";"1";"2";"1";"1";"2014-09-12 11:25:56.113";"2014-09-12 11:42:33.298";"1";"1";"0";"184";"183";"module.devaluation_block1.exec-9507.deval1";"10177";"2014-09-12 11:41:22.645";"6";"7";"4";"6";"2413";"1888";"2811";"2014-09-12 11:41:12.474";"1";;;;;;;;;;;;;;;;;;;;;;;;;;;;;;;;;;;;;;;;;;;;;;;;;;;;;;;;;;;;;;;;;;;;;;;;;;;;;;;;
"HJB30GS";"1956";;"Windows 7";"Rachel's Experiment (D.T.)";"1.0";"2";"1";"1";"2";"1";"1";"2014-09-12 11:25:56.113";"2014-09-12 11:42:33.298";"1";"1";"0";"185";"184";"module.devaluation_block1.exec-9507.deval1";"11231";"2014-09-12 11:41:33.940";"23";"1";"1";"2";"3971";"1951";"2263";"2014-09-12 11:41:22.708";"3";;;;;;;;;;;;;;;;;;;;;;;;;;;;;;;;;;;;;;;;;;;;;;;;;;;;;;;;;;;;;;;;;;;;;;;;;;;;;;;;
"HJB30GS";"1956";;"Windows 7";"Rachel's Experiment (D.T.)";"1.0";"2";"1";"1";"2";"1";"1";"2014-09-12 11:25:56.113";"2014-09-12 11:42:33.298";"1";"1";"0";"186";"185";"module.devaluation_block1.exec-9507.deval1";"11254";"2014-09-12 11:41:45.250";"26";"4";"1";"4";"3221";"2809";"2154";"2014-09-12 11:41:34.002";"3";;;;;;;;;;;;;;;;;;;;;;;;;;;;;;;;;;;;;;;;;;;;;;;;;;;;;;;;;;;;;;;;;;;;;;;;;;;;;;;;
"HJB30GS";"1956";;"Windows 7";"Rachel's Experiment (D.T.)";"1.0";"2";"1";"1";"2";"1";"1";"2014-09-12 11:25:56.113";"2014-09-12 11:42:33.298";"1";"1";"0";"187";"186";"module.devaluation_block1.exec-9507.deval1";"8606";"2014-09-12 11:41:53.923";"13";"6";"3";"7";"1834";"1476";"2235";"2014-09-12 11:41:45.312";"2";;;;;;;;;;;;;;;;;;;;;;;;;;;;;;;;;;;;;;;;;;;;;;;;;;;;;;;;;;;;;;;;;;;;;;;;;;;;;;;;
"HJB30GS";"1956";;"Windows 7";"Rachel's Experiment (D.T.)";"1.0";"2";"1";"1";"2";"1";"1";"2014-09-12 11:25:56.113";"2014-09-12 11:42:33.298";"1";"1";"0";"188";"187";"module.devaluation_block1.exec-9507.deval1";"13637";"2014-09-12 11:42:07.604";"18";"6";"3";"7";"8064";"1184";"1334";"2014-09-12 11:41:53.970";"3";;;;;;;;;;;;;;;;;;;;;;;;;;;;;;;;;;;;;;;;;;;;;;;;;;;;;;;;;;;;;;;;;;;;;;;;;;;;;;;;
"HJB30GS";"1956";;"Windows 7";"Rachel's Experiment (D.T.)";"1.0";"2";"1";"1";"2";"1";"1";"2014-09-12 11:25:56.113";"2014-09-12 11:42:33.298";"1";"1";"0";"189";"188";"module.devaluation_block1.exec-9507.deval1";"11129";"2014-09-12 11:42:18.790";"19";"4";"2";"3";"2293";"2173";"3621";"2014-09-12 11:42:07.667";"3";;;;;;;;;;;;;;;;;;;;;;;;;;;;;;;;;;;;;;;;;;;;;;;;;;;;;;;;;;;;;;;;;;;;;;;;;;;;;;;;
"HJB30GS";"1956";;"Windows 7";"Rachel's Experiment (D.T.)";"1.0";"2";"1";"1";"2";"1";"1";"2014-09-12 11:25:56.113";"2014-09-12 11:42:33.298";"1";"1";"0";"190";"189";"module.devaluation_block1.exec-9507.deval1";"10146";"2014-09-12 11:42:28.992";"3";"5";"1";"4";"1882";"3340";"1869";"2014-09-12 11:42:18.852";"1";;;;;;;;;;;;;;;;;;;;;;;;;;;;;;;;;;;;;;;;;;;;;;;;;;;;;;;;;;;;;;;;;;;;;;;;;;;;;;;;
