"user.name";"user.yearOfBirth";"user.sex";"user.osName";"module.name";"module.version";"module.online.subject.code";"module.online.study.id";"module.online.module.nr";"module.online.group.nr";"session.id";"session.index";"session.startTime";"session.endTime";"session.completed";"session.node-1285.conditionType";"session.node-6117.DevalQorder";"trial.id";"trial.index";"trial.name";"trial.deval1.durationTime";"trial.deval1.endTime";"trial.deval1.icon";"trial.deval1.Resp_Attractive";"trial.deval1.Resp_Eat";"trial.deval1.Resp_Taste";"trial.deval1.RT_Attractive";"trial.deval1.RT_Eat";"trial.deval1.RT_Taste";"trial.deval1.startTime";"trial.deval1.stimulus type";"trial.devalPractice.durationTime";"trial.devalPractice.endTime";"trial.devalPractice.icon";"trial.devalPractice.Resp_Attractive";"trial.devalPractice.Resp_Eat";"trial.devalPractice.Resp_Taste";"trial.devalPractice.RT_Attractive";"trial.devalPractice.RT_Eat";"trial.devalPractice.RT_Taste";"trial.devalPractice.startTime";"trial.devalPractice.stimulus type";"trial.GoNoGo1.durationTime";"trial.GoNoGo1.endTime";"trial.GoNoGo1.Error Type";"trial.GoNoGo1.icon";"trial.GoNoGo1.location";"trial.GoNoGo1.outcome";"trial.GoNoGo1.response";"trial.GoNoGo1.result";"trial.GoNoGo1.RT";"trial.GoNoGo1.signal";"trial.GoNoGo1.startTime";"trial.GoNoGo1.stimulus type";"trial.GoNoGo2.durationTime";"trial.GoNoGo2.endTime";"trial.GoNoGo2.Error Type";"trial.GoNoGo2.icon";"trial.GoNoGo2.location";"trial.GoNoGo2.outcome";"trial.GoNoGo2.response";"trial.GoNoGo2.result";"trial.GoNoGo2.RT";"trial.GoNoGo2.signal";"trial.GoNoGo2.startTime";"trial.GoNoGo2.stimulus type";"trial.GoNoGo3.durationTime";"trial.GoNoGo3.endTime";"trial.GoNoGo3.Error Type";"trial.GoNoGo3.icon";"trial.GoNoGo3.location";"trial.GoNoGo3.outcome";"trial.GoNoGo3.response";"trial.GoNoGo3.result";"trial.GoNoGo3.RT";"trial.GoNoGo3.signal";"trial.GoNoGo3.startTime";"trial.GoNoGo3.stimulus type";"trial.GoNoGo4.durationTime";"trial.GoNoGo4.endTime";"trial.GoNoGo4.Error Type";"trial.GoNoGo4.icon";"trial.GoNoGo4.location";"trial.GoNoGo4.outcome";"trial.GoNoGo4.response";"trial.GoNoGo4.result";"trial.GoNoGo4.RT";"trial.GoNoGo4.signal";"trial.GoNoGo4.startTime";"trial.GoNoGo4.stimulus type";"trial.GoNoGo_Practice.durationTime";"trial.GoNoGo_Practice.endTime";"trial.GoNoGo_Practice.icon";"trial.GoNoGo_Practice.location";"trial.GoNoGo_Practice.outcome";"trial.GoNoGo_Practice.response";"trial.GoNoGo_Practice.result";"trial.GoNoGo_Practice.RT";"trial.GoNoGo_Practice.signal";"trial.GoNoGo_Practice.startTime";"trial.GoNoGo_Practice.stimulus type";"trial.GoNoGo_Tutorial.durationTime";"trial.GoNoGo_Tutorial.endTime";"trial.GoNoGo_Tutorial.icon";"trial.GoNoGo_Tutorial.location";"trial.GoNoGo_Tutorial.outcome";"trial.GoNoGo_Tutorial.response";"trial.GoNoGo_Tutorial.result";"trial.GoNoGo_Tutorial.RT";"trial.GoNoGo_Tutorial.signal";"trial.GoNoGo_Tutorial.startTime"
"shazza_nana";"19/06/1992";;"Windows 7";"Rachel's Experiment (D.T.)";"1.0";"2";"1";"1";"2";"1";"1";"2014-10-14 12:03:43.794";"2014-10-14 12:23:56.174";"1";"0";"0";"1";"0";"module.GoNoGotutorial.exec-5192.GoNoGo_Tutorial";;;;;;;;;;;;;;;;;;;;;;;;;;;;;;;;;;;;;;;;;;;;;;;;;;;;;;;;;;;;;;;;;;;;;;;;;;;;;;;;;;"3996";"2014-10-14 12:09:59.011";"leftResponse";"0";"FINISHED";"NONE";"failure";"0";"0";"2014-10-14 12:09:55.002"
"shazza_nana";"19/06/1992";;"Windows 7";"Rachel's Experiment (D.T.)";"1.0";"2";"1";"1";"2";"1";"1";"2014-10-14 12:03:43.794";"2014-10-14 12:23:56.174";"1";"0";"0";"2";"1";"module.GoNoGotutorial.exec-5192.GoNoGo_Tutorial";;;;;;;;;;;;;;;;;;;;;;;;;;;;;;;;;;;;;;;;;;;;;;;;;;;;;;;;;;;;;;;;;;;;;;;;;;;;;;;;;;"4003";"2014-10-14 12:10:04.316";"rightResponse";"1";"FINISHED";"NONE";"failure";"0";"0";"2014-10-14 12:10:00.306"
"shazza_nana";"19/06/1992";;"Windows 7";"Rachel's Experiment (D.T.)";"1.0";"2";"1";"1";"2";"1";"1";"2014-10-14 12:03:43.794";"2014-10-14 12:23:56.174";"1";"0";"0";"3";"2";"module.GoNoGotutorial.exec-5192.GoNoGo_Tutorial";;;;;;;;;;;;;;;;;;;;;;;;;;;;;;;;;;;;;;;;;;;;;;;;;;;;;;;;;;;;;;;;;;;;;;;;;;;;;;;;;;"4003";"2014-10-14 12:10:09.621";"quickResponse";"0";"FINISHED";"NONE";"failure";"0";"0";"2014-10-14 12:10:05.611"
"shazza_nana";"19/06/1992";;"Windows 7";"Rachel's Experiment (D.T.)";"1.0";"2";"1";"1";"2";"1";"1";"2014-10-14 12:03:43.794";"2014-10-14 12:23:56.174";"1";"0";"0";"4";"3";"module.GoNoGopractice.exec-6256.GoNoGo_Practice";;;;;;;;;;;;;;;;;;;;;;;;;;;;;;;;;;;;;;;;;;;;;;;;;;;;;;;;;;;;;;;;;;;;;;;"1951";"2014-10-14 12:10:20.199";"18";"0";"FINISHED";"NONE";"failure";"0";"0";"2014-10-14 12:10:18.233";"3";;;;;;;;;;
"shazza_nana";"19/06/1992";;"Windows 7";"Rachel's Experiment (D.T.)";"1.0";"2";"1";"1";"2";"1";"1";"2014-10-14 12:03:43.794";"2014-10-14 12:23:56.174";"1";"0";"0";"5";"4";"module.GoNoGopractice.exec-6256.GoNoGo_Practice";;;;;;;;;;;;;;;;;;;;;;;;;;;;;;;;;;;;;;;;;;;;;;;;;;;;;;;;;;;;;;;;;;;;;;;"1959";"2014-10-14 12:10:23.460";"21";"1";"FINISHED";"RIGHT";"success";"801";"0";"2014-10-14 12:10:21.494";"3";;;;;;;;;;
"shazza_nana";"19/06/1992";;"Windows 7";"Rachel's Experiment (D.T.)";"1.0";"2";"1";"1";"2";"1";"1";"2014-10-14 12:03:43.794";"2014-10-14 12:23:56.174";"1";"0";"0";"6";"5";"module.GoNoGopractice.exec-6256.GoNoGo_Practice";;;;;;;;;;;;;;;;;;;;;;;;;;;;;;;;;;;;;;;;;;;;;;;;;;;;;;;;;;;;;;;;;;;;;;;"1959";"2014-10-14 12:10:26.705";"14";"1";"FINISHED";"RIGHT";"success";"524";"0";"2014-10-14 12:10:24.739";"2";;;;;;;;;;
"shazza_nana";"19/06/1992";;"Windows 7";"Rachel's Experiment (D.T.)";"1.0";"2";"1";"1";"2";"1";"1";"2014-10-14 12:03:43.794";"2014-10-14 12:23:56.174";"1";"0";"0";"7";"6";"module.GoNoGopractice.exec-6256.GoNoGo_Practice";;;;;;;;;;;;;;;;;;;;;;;;;;;;;;;;;;;;;;;;;;;;;;;;;;;;;;;;;;;;;;;;;;;;;;;"1959";"2014-10-14 12:10:29.950";"26";"0";"FINISHED";"LEFT";"success";"455";"0";"2014-10-14 12:10:27.985";"3";;;;;;;;;;
"shazza_nana";"19/06/1992";;"Windows 7";"Rachel's Experiment (D.T.)";"1.0";"2";"1";"1";"2";"1";"1";"2014-10-14 12:03:43.794";"2014-10-14 12:23:56.174";"1";"0";"0";"8";"7";"module.GoNoGopractice.exec-6256.GoNoGo_Practice";;;;;;;;;;;;;;;;;;;;;;;;;;;;;;;;;;;;;;;;;;;;;;;;;;;;;;;;;;;;;;;;;;;;;;;"1959";"2014-10-14 12:10:33.196";"2";"0";"FINISHED";"LEFT";"success";"627";"0";"2014-10-14 12:10:31.230";"1";;;;;;;;;;
"shazza_nana";"19/06/1992";;"Windows 7";"Rachel's Experiment (D.T.)";"1.0";"2";"1";"1";"2";"1";"1";"2014-10-14 12:03:43.794";"2014-10-14 12:23:56.174";"1";"0";"0";"9";"8";"module.GoNoGopractice.exec-6256.GoNoGo_Practice";;;;;;;;;;;;;;;;;;;;;;;;;;;;;;;;;;;;;;;;;;;;;;;;;;;;;;;;;;;;;;;;;;;;;;;"1960";"2014-10-14 12:10:36.441";"30";"0";"FINISHED";"LEFT";"success";"446";"0";"2014-10-14 12:10:34.475";"3";;;;;;;;;;
"shazza_nana";"19/06/1992";;"Windows 7";"Rachel's Experiment (D.T.)";"1.0";"2";"1";"1";"2";"1";"1";"2014-10-14 12:03:43.794";"2014-10-14 12:23:56.174";"1";"0";"0";"10";"9";"module.GoNoGopractice.exec-6256.GoNoGo_Practice";;;;;;;;;;;;;;;;;;;;;;;;;;;;;;;;;;;;;;;;;;;;;;;;;;;;;;;;;;;;;;;;;;;;;;;"1959";"2014-10-14 12:10:39.686";"6";"1";"FINISHED";"RIGHT";"success";"473";"0";"2014-10-14 12:10:37.720";"1";;;;;;;;;;
"shazza_nana";"19/06/1992";;"Windows 7";"Rachel's Experiment (D.T.)";"1.0";"2";"1";"1";"2";"1";"1";"2014-10-14 12:03:43.794";"2014-10-14 12:23:56.174";"1";"0";"0";"11";"10";"module.GoNoGopractice.exec-6256.GoNoGo_Practice";;;;;;;;;;;;;;;;;;;;;;;;;;;;;;;;;;;;;;;;;;;;;;;;;;;;;;;;;;;;;;;;;;;;;;;"1960";"2014-10-14 12:10:42.931";"34";"0";"FINISHED";"LEFT";"success";"413";"0";"2014-10-14 12:10:40.966";"3";;;;;;;;;;
"shazza_nana";"19/06/1992";;"Windows 7";"Rachel's Experiment (D.T.)";"1.0";"2";"1";"1";"2";"1";"1";"2014-10-14 12:03:43.794";"2014-10-14 12:23:56.174";"1";"0";"0";"12";"11";"module.GoNoGopractice.exec-6256.GoNoGo_Practice";;;;;;;;;;;;;;;;;;;;;;;;;;;;;;;;;;;;;;;;;;;;;;;;;;;;;;;;;;;;;;;;;;;;;;;"1959";"2014-10-14 12:10:46.177";"23";"1";"FINISHED";"RIGHT";"success";"743";"0";"2014-10-14 12:10:44.211";"3";;;;;;;;;;
"shazza_nana";"19/06/1992";;"Windows 7";"Rachel's Experiment (D.T.)";"1.0";"2";"1";"1";"2";"1";"1";"2014-10-14 12:03:43.794";"2014-10-14 12:23:56.174";"1";"0";"0";"13";"12";"module.GoNoGopractice.exec-6256.GoNoGo_Practice";;;;;;;;;;;;;;;;;;;;;;;;;;;;;;;;;;;;;;;;;;;;;;;;;;;;;;;;;;;;;;;;;;;;;;;"1958";"2014-10-14 12:10:49.422";"13";"0";"FINISHED";"LEFT";"success";"370";"0";"2014-10-14 12:10:47.456";"2";;;;;;;;;;
"shazza_nana";"19/06/1992";;"Windows 7";"Rachel's Experiment (D.T.)";"1.0";"2";"1";"1";"2";"1";"1";"2014-10-14 12:03:43.794";"2014-10-14 12:23:56.174";"1";"0";"0";"14";"13";"module.GoNoGopractice.exec-6256.GoNoGo_Practice";;;;;;;;;;;;;;;;;;;;;;;;;;;;;;;;;;;;;;;;;;;;;;;;;;;;;;;;;;;;;;;;;;;;;;;"1960";"2014-10-14 12:10:52.667";"3";"1";"FINISHED";"RIGHT";"success";"335";"0";"2014-10-14 12:10:50.701";"1";;;;;;;;;;
"shazza_nana";"19/06/1992";;"Windows 7";"Rachel's Experiment (D.T.)";"1.0";"2";"1";"1";"2";"1";"1";"2014-10-14 12:03:43.794";"2014-10-14 12:23:56.174";"1";"0";"0";"15";"14";"module.GoNoGopractice.exec-6256.GoNoGo_Practice";;;;;;;;;;;;;;;;;;;;;;;;;;;;;;;;;;;;;;;;;;;;;;;;;;;;;;;;;;;;;;;;;;;;;;;"1959";"2014-10-14 12:10:55.913";"27";"1";"FINISHED";"RIGHT";"success";"417";"0";"2014-10-14 12:10:53.947";"3";;;;;;;;;;
"shazza_nana";"19/06/1992";;"Windows 7";"Rachel's Experiment (D.T.)";"1.0";"2";"1";"1";"2";"1";"1";"2014-10-14 12:03:43.794";"2014-10-14 12:23:56.174";"1";"0";"0";"16";"15";"module.training_block1.exec-6770.GoNoGo1";;;;;;;;;;;;;;;;;;;;;;;"1268";"2014-10-14 12:11:09.408";"NST_correctLoc";"9";"1";"FINISHED";"RIGHT";"success";"449";"0";"2014-10-14 12:11:08.145";"2";;;;;;;;;;;;;;;;;;;;;;;;;;;;;;;;;;;;;;;;;;;;;;;;;;;;;;;;;
"shazza_nana";"19/06/1992";;"Windows 7";"Rachel's Experiment (D.T.)";"1.0";"2";"1";"1";"2";"1";"1";"2014-10-14 12:03:43.794";"2014-10-14 12:23:56.174";"1";"0";"0";"17";"16";"module.training_block1.exec-6770.GoNoGo1";;;;;;;;;;;;;;;;;;;;;;;"1257";"2014-10-14 12:11:11.967";"NST_correctLoc";"29";"1";"FINISHED";"RIGHT";"success";"415";"0";"2014-10-14 12:11:10.703";"3";;;;;;;;;;;;;;;;;;;;;;;;;;;;;;;;;;;;;;;;;;;;;;;;;;;;;;;;;
"shazza_nana";"19/06/1992";;"Windows 7";"Rachel's Experiment (D.T.)";"1.0";"2";"1";"1";"2";"1";"1";"2014-10-14 12:03:43.794";"2014-10-14 12:23:56.174";"1";"0";"0";"18";"17";"module.training_block1.exec-6770.GoNoGo1";;;;;;;;;;;;;;;;;;;;;;;"1257";"2014-10-14 12:11:14.510";"NST_correctLoc";"11";"0";"FINISHED";"LEFT";"success";"368";"0";"2014-10-14 12:11:13.247";"2";;;;;;;;;;;;;;;;;;;;;;;;;;;;;;;;;;;;;;;;;;;;;;;;;;;;;;;;;
"shazza_nana";"19/06/1992";;"Windows 7";"Rachel's Experiment (D.T.)";"1.0";"2";"1";"1";"2";"1";"1";"2014-10-14 12:03:43.794";"2014-10-14 12:23:56.174";"1";"0";"0";"19";"18";"module.training_block1.exec-6770.GoNoGo1";;;;;;;;;;;;;;;;;;;;;;;"1257";"2014-10-14 12:11:17.053";"NST_correctLoc";"31";"1";"FINISHED";"RIGHT";"success";"337";"0";"2014-10-14 12:11:15.790";"3";;;;;;;;;;;;;;;;;;;;;;;;;;;;;;;;;;;;;;;;;;;;;;;;;;;;;;;;;
"shazza_nana";"19/06/1992";;"Windows 7";"Rachel's Experiment (D.T.)";"1.0";"2";"1";"1";"2";"1";"1";"2014-10-14 12:03:43.794";"2014-10-14 12:23:56.174";"1";"0";"0";"20";"19";"module.training_block1.exec-6770.GoNoGo1";;;;;;;;;;;;;;;;;;;;;;;"1256";"2014-10-14 12:11:19.597";"NST_correctLoc";"13";"1";"FINISHED";"RIGHT";"success";"337";"0";"2014-10-14 12:11:18.333";"2";;;;;;;;;;;;;;;;;;;;;;;;;;;;;;;;;;;;;;;;;;;;;;;;;;;;;;;;;
"shazza_nana";"19/06/1992";;"Windows 7";"Rachel's Experiment (D.T.)";"1.0";"2";"1";"1";"2";"1";"1";"2014-10-14 12:03:43.794";"2014-10-14 12:23:56.174";"1";"0";"0";"21";"20";"module.training_block1.exec-6770.GoNoGo1";;;;;;;;;;;;;;;;;;;;;;;"1257";"2014-10-14 12:11:22.140";"NST_correctLoc";"17";"1";"FINISHED";"RIGHT";"success";"331";"0";"2014-10-14 12:11:20.876";"2";;;;;;;;;;;;;;;;;;;;;;;;;;;;;;;;;;;;;;;;;;;;;;;;;;;;;;;;;
"shazza_nana";"19/06/1992";;"Windows 7";"Rachel's Experiment (D.T.)";"1.0";"2";"1";"1";"2";"1";"1";"2014-10-14 12:03:43.794";"2014-10-14 12:23:56.174";"1";"0";"0";"22";"21";"module.training_block1.exec-6770.GoNoGo1";;;;;;;;;;;;;;;;;;;;;;;"1257";"2014-10-14 12:11:24.683";"NST_correctLoc";"8";"0";"FINISHED";"LEFT";"success";"412";"0";"2014-10-14 12:11:23.419";"1";;;;;;;;;;;;;;;;;;;;;;;;;;;;;;;;;;;;;;;;;;;;;;;;;;;;;;;;;
"shazza_nana";"19/06/1992";;"Windows 7";"Rachel's Experiment (D.T.)";"1.0";"2";"1";"1";"2";"1";"1";"2014-10-14 12:03:43.794";"2014-10-14 12:23:56.174";"1";"0";"0";"23";"22";"module.training_block1.exec-6770.GoNoGo1";;;;;;;;;;;;;;;;;;;;;;;"1256";"2014-10-14 12:11:27.226";"NST_correctLoc";"23";"1";"FINISHED";"RIGHT";"success";"373";"0";"2014-10-14 12:11:25.962";"3";;;;;;;;;;;;;;;;;;;;;;;;;;;;;;;;;;;;;;;;;;;;;;;;;;;;;;;;;
"shazza_nana";"19/06/1992";;"Windows 7";"Rachel's Experiment (D.T.)";"1.0";"2";"1";"1";"2";"1";"1";"2014-10-14 12:03:43.794";"2014-10-14 12:23:56.174";"1";"0";"0";"24";"23";"module.training_block1.exec-6770.GoNoGo1";;;;;;;;;;;;;;;;;;;;;;;"1258";"2014-10-14 12:11:29.769";"NST_correctLoc";"19";"1";"FINISHED";"RIGHT";"success";"439";"0";"2014-10-14 12:11:28.506";"3";;;;;;;;;;;;;;;;;;;;;;;;;;;;;;;;;;;;;;;;;;;;;;;;;;;;;;;;;
"shazza_nana";"19/06/1992";;"Windows 7";"Rachel's Experiment (D.T.)";"1.0";"2";"1";"1";"2";"1";"1";"2014-10-14 12:03:43.794";"2014-10-14 12:23:56.174";"1";"0";"0";"25";"24";"module.training_block1.exec-6770.GoNoGo1";;;;;;;;;;;;;;;;;;;;;;;"1257";"2014-10-14 12:11:32.312";"NST_correctLoc";"4";"0";"FINISHED";"LEFT";"success";"448";"0";"2014-10-14 12:11:31.049";"1";;;;;;;;;;;;;;;;;;;;;;;;;;;;;;;;;;;;;;;;;;;;;;;;;;;;;;;;;
"shazza_nana";"19/06/1992";;"Windows 7";"Rachel's Experiment (D.T.)";"1.0";"2";"1";"1";"2";"1";"1";"2014-10-14 12:03:43.794";"2014-10-14 12:23:56.174";"1";"0";"0";"26";"25";"module.training_block1.exec-6770.GoNoGo1";;;;;;;;;;;;;;;;;;;;;;;"1258";"2014-10-14 12:11:34.856";"NST_correctLoc";"3";"0";"FINISHED";"LEFT";"success";"410";"0";"2014-10-14 12:11:33.592";"1";;;;;;;;;;;;;;;;;;;;;;;;;;;;;;;;;;;;;;;;;;;;;;;;;;;;;;;;;
"shazza_nana";"19/06/1992";;"Windows 7";"Rachel's Experiment (D.T.)";"1.0";"2";"1";"1";"2";"1";"1";"2014-10-14 12:03:43.794";"2014-10-14 12:23:56.174";"1";"0";"0";"27";"26";"module.training_block1.exec-6770.GoNoGo1";;;;;;;;;;;;;;;;;;;;;;;"1257";"2014-10-14 12:11:37.399";"NST_correctLoc";"6";"1";"FINISHED";"RIGHT";"success";"402";"0";"2014-10-14 12:11:36.135";"1";;;;;;;;;;;;;;;;;;;;;;;;;;;;;;;;;;;;;;;;;;;;;;;;;;;;;;;;;
"shazza_nana";"19/06/1992";;"Windows 7";"Rachel's Experiment (D.T.)";"1.0";"2";"1";"1";"2";"1";"1";"2014-10-14 12:03:43.794";"2014-10-14 12:23:56.174";"1";"0";"0";"28";"27";"module.training_block1.exec-6770.GoNoGo1";;;;;;;;;;;;;;;;;;;;;;;"1257";"2014-10-14 12:11:39.942";"NST_correctLoc";"14";"0";"FINISHED";"LEFT";"success";"331";"0";"2014-10-14 12:11:38.678";"2";;;;;;;;;;;;;;;;;;;;;;;;;;;;;;;;;;;;;;;;;;;;;;;;;;;;;;;;;
"shazza_nana";"19/06/1992";;"Windows 7";"Rachel's Experiment (D.T.)";"1.0";"2";"1";"1";"2";"1";"1";"2014-10-14 12:03:43.794";"2014-10-14 12:23:56.174";"1";"0";"0";"29";"28";"module.training_block1.exec-6770.GoNoGo1";;;;;;;;;;;;;;;;;;;;;;;"1257";"2014-10-14 12:11:42.485";"NST_correctLoc";"27";"0";"FINISHED";"LEFT";"success";"381";"0";"2014-10-14 12:11:41.221";"3";;;;;;;;;;;;;;;;;;;;;;;;;;;;;;;;;;;;;;;;;;;;;;;;;;;;;;;;;
"shazza_nana";"19/06/1992";;"Windows 7";"Rachel's Experiment (D.T.)";"1.0";"2";"1";"1";"2";"1";"1";"2014-10-14 12:03:43.794";"2014-10-14 12:23:56.174";"1";"0";"0";"30";"29";"module.training_block1.exec-6770.GoNoGo1";;;;;;;;;;;;;;;;;;;;;;;"1257";"2014-10-14 12:11:45.028";"NST_correctLoc";"24";"0";"FINISHED";"LEFT";"success";"422";"0";"2014-10-14 12:11:43.764";"3";;;;;;;;;;;;;;;;;;;;;;;;;;;;;;;;;;;;;;;;;;;;;;;;;;;;;;;;;
"shazza_nana";"19/06/1992";;"Windows 7";"Rachel's Experiment (D.T.)";"1.0";"2";"1";"1";"2";"1";"1";"2014-10-14 12:03:43.794";"2014-10-14 12:23:56.174";"1";"0";"0";"31";"30";"module.training_block1.exec-6770.GoNoGo1";;;;;;;;;;;;;;;;;;;;;;;"1257";"2014-10-14 12:11:47.571";"NST_correctLoc";"7";"0";"FINISHED";"LEFT";"success";"367";"0";"2014-10-14 12:11:46.308";"1";;;;;;;;;;;;;;;;;;;;;;;;;;;;;;;;;;;;;;;;;;;;;;;;;;;;;;;;;
"shazza_nana";"19/06/1992";;"Windows 7";"Rachel's Experiment (D.T.)";"1.0";"2";"1";"1";"2";"1";"1";"2014-10-14 12:03:43.794";"2014-10-14 12:23:56.174";"1";"0";"0";"32";"31";"module.training_block1.exec-6770.GoNoGo1";;;;;;;;;;;;;;;;;;;;;;;"1257";"2014-10-14 12:11:50.115";"NST_correctLoc";"25";"0";"FINISHED";"LEFT";"success";"328";"0";"2014-10-14 12:11:48.851";"3";;;;;;;;;;;;;;;;;;;;;;;;;;;;;;;;;;;;;;;;;;;;;;;;;;;;;;;;;
"shazza_nana";"19/06/1992";;"Windows 7";"Rachel's Experiment (D.T.)";"1.0";"2";"1";"1";"2";"1";"1";"2014-10-14 12:03:43.794";"2014-10-14 12:23:56.174";"1";"0";"0";"33";"32";"module.training_block1.exec-6770.GoNoGo1";;;;;;;;;;;;;;;;;;;;;;;"1257";"2014-10-14 12:11:52.658";"NST_correctLoc";"0";"0";"FINISHED";"LEFT";"success";"353";"0";"2014-10-14 12:11:51.394";"1";;;;;;;;;;;;;;;;;;;;;;;;;;;;;;;;;;;;;;;;;;;;;;;;;;;;;;;;;
"shazza_nana";"19/06/1992";;"Windows 7";"Rachel's Experiment (D.T.)";"1.0";"2";"1";"1";"2";"1";"1";"2014-10-14 12:03:43.794";"2014-10-14 12:23:56.174";"1";"0";"0";"34";"33";"module.training_block1.exec-6770.GoNoGo1";;;;;;;;;;;;;;;;;;;;;;;"1251";"2014-10-14 12:11:55.201";"NST_correctLoc";"32";"1";"FINISHED";"RIGHT";"success";"420";"0";"2014-10-14 12:11:53.937";"3";;;;;;;;;;;;;;;;;;;;;;;;;;;;;;;;;;;;;;;;;;;;;;;;;;;;;;;;;
"shazza_nana";"19/06/1992";;"Windows 7";"Rachel's Experiment (D.T.)";"1.0";"2";"1";"1";"2";"1";"1";"2014-10-14 12:03:43.794";"2014-10-14 12:23:56.174";"1";"0";"0";"35";"34";"module.training_block1.exec-6770.GoNoGo1";;;;;;;;;;;;;;;;;;;;;;;"1257";"2014-10-14 12:11:57.744";"NST_correctLoc";"2";"1";"FINISHED";"RIGHT";"success";"460";"0";"2014-10-14 12:11:56.480";"1";;;;;;;;;;;;;;;;;;;;;;;;;;;;;;;;;;;;;;;;;;;;;;;;;;;;;;;;;
"shazza_nana";"19/06/1992";;"Windows 7";"Rachel's Experiment (D.T.)";"1.0";"2";"1";"1";"2";"1";"1";"2014-10-14 12:03:43.794";"2014-10-14 12:23:56.174";"1";"0";"0";"36";"35";"module.training_block1.exec-6770.GoNoGo1";;;;;;;;;;;;;;;;;;;;;;;"1258";"2014-10-14 12:12:00.287";"NST_correctLoc";"1";"1";"FINISHED";"RIGHT";"success";"389";"0";"2014-10-14 12:11:59.023";"1";;;;;;;;;;;;;;;;;;;;;;;;;;;;;;;;;;;;;;;;;;;;;;;;;;;;;;;;;
"shazza_nana";"19/06/1992";;"Windows 7";"Rachel's Experiment (D.T.)";"1.0";"2";"1";"1";"2";"1";"1";"2014-10-14 12:03:43.794";"2014-10-14 12:23:56.174";"1";"0";"0";"37";"36";"module.training_block1.exec-6770.GoNoGo1";;;;;;;;;;;;;;;;;;;;;;;"1258";"2014-10-14 12:12:02.830";"NST_correctLoc";"5";"0";"FINISHED";"LEFT";"success";"382";"0";"2014-10-14 12:12:01.567";"1";;;;;;;;;;;;;;;;;;;;;;;;;;;;;;;;;;;;;;;;;;;;;;;;;;;;;;;;;
"shazza_nana";"19/06/1992";;"Windows 7";"Rachel's Experiment (D.T.)";"1.0";"2";"1";"1";"2";"1";"1";"2014-10-14 12:03:43.794";"2014-10-14 12:23:56.174";"1";"0";"0";"38";"37";"module.training_block1.exec-6770.GoNoGo1";;;;;;;;;;;;;;;;;;;;;;;"1258";"2014-10-14 12:12:05.374";"NST_correctLoc";"35";"1";"FINISHED";"RIGHT";"success";"416";"0";"2014-10-14 12:12:04.110";"3";;;;;;;;;;;;;;;;;;;;;;;;;;;;;;;;;;;;;;;;;;;;;;;;;;;;;;;;;
"shazza_nana";"19/06/1992";;"Windows 7";"Rachel's Experiment (D.T.)";"1.0";"2";"1";"1";"2";"1";"1";"2014-10-14 12:03:43.794";"2014-10-14 12:23:56.174";"1";"0";"0";"39";"38";"module.training_block1.exec-6770.GoNoGo1";;;;;;;;;;;;;;;;;;;;;;;"1257";"2014-10-14 12:12:07.917";"NST_correctLoc";"16";"0";"FINISHED";"LEFT";"success";"328";"0";"2014-10-14 12:12:06.653";"2";;;;;;;;;;;;;;;;;;;;;;;;;;;;;;;;;;;;;;;;;;;;;;;;;;;;;;;;;
"shazza_nana";"19/06/1992";;"Windows 7";"Rachel's Experiment (D.T.)";"1.0";"2";"1";"1";"2";"1";"1";"2014-10-14 12:03:43.794";"2014-10-14 12:23:56.174";"1";"0";"0";"40";"39";"module.training_block1.exec-6770.GoNoGo1";;;;;;;;;;;;;;;;;;;;;;;"1258";"2014-10-14 12:12:10.460";"NST_correctLoc";"34";"0";"FINISHED";"LEFT";"success";"378";"0";"2014-10-14 12:12:09.196";"3";;;;;;;;;;;;;;;;;;;;;;;;;;;;;;;;;;;;;;;;;;;;;;;;;;;;;;;;;
"shazza_nana";"19/06/1992";;"Windows 7";"Rachel's Experiment (D.T.)";"1.0";"2";"1";"1";"2";"1";"1";"2014-10-14 12:03:43.794";"2014-10-14 12:23:56.174";"1";"0";"0";"41";"40";"module.training_block1.exec-6770.GoNoGo1";;;;;;;;;;;;;;;;;;;;;;;"1258";"2014-10-14 12:12:13.003";"NST_correctLoc";"30";"0";"FINISHED";"LEFT";"success";"323";"0";"2014-10-14 12:12:11.739";"3";;;;;;;;;;;;;;;;;;;;;;;;;;;;;;;;;;;;;;;;;;;;;;;;;;;;;;;;;
"shazza_nana";"19/06/1992";;"Windows 7";"Rachel's Experiment (D.T.)";"1.0";"2";"1";"1";"2";"1";"1";"2014-10-14 12:03:43.794";"2014-10-14 12:23:56.174";"1";"0";"0";"42";"41";"module.training_block1.exec-6770.GoNoGo1";;;;;;;;;;;;;;;;;;;;;;;"1257";"2014-10-14 12:12:15.546";"NST_correctLoc";"22";"1";"FINISHED";"RIGHT";"success";"284";"0";"2014-10-14 12:12:14.282";"3";;;;;;;;;;;;;;;;;;;;;;;;;;;;;;;;;;;;;;;;;;;;;;;;;;;;;;;;;
"shazza_nana";"19/06/1992";;"Windows 7";"Rachel's Experiment (D.T.)";"1.0";"2";"1";"1";"2";"1";"1";"2014-10-14 12:03:43.794";"2014-10-14 12:23:56.174";"1";"0";"0";"43";"42";"module.training_block1.exec-6770.GoNoGo1";;;;;;;;;;;;;;;;;;;;;;;"1257";"2014-10-14 12:12:18.089";"NST_correctLoc";"26";"1";"FINISHED";"RIGHT";"success";"349";"0";"2014-10-14 12:12:16.826";"3";;;;;;;;;;;;;;;;;;;;;;;;;;;;;;;;;;;;;;;;;;;;;;;;;;;;;;;;;
"shazza_nana";"19/06/1992";;"Windows 7";"Rachel's Experiment (D.T.)";"1.0";"2";"1";"1";"2";"1";"1";"2014-10-14 12:03:43.794";"2014-10-14 12:23:56.174";"1";"0";"0";"44";"43";"module.training_block1.exec-6770.GoNoGo1";;;;;;;;;;;;;;;;;;;;;;;"1256";"2014-10-14 12:12:20.632";"NST_correctLoc";"10";"1";"FINISHED";"RIGHT";"success";"430";"0";"2014-10-14 12:12:19.369";"2";;;;;;;;;;;;;;;;;;;;;;;;;;;;;;;;;;;;;;;;;;;;;;;;;;;;;;;;;
"shazza_nana";"19/06/1992";;"Windows 7";"Rachel's Experiment (D.T.)";"1.0";"2";"1";"1";"2";"1";"1";"2014-10-14 12:03:43.794";"2014-10-14 12:23:56.174";"1";"0";"0";"45";"44";"module.training_block1.exec-6770.GoNoGo1";;;;;;;;;;;;;;;;;;;;;;;"1258";"2014-10-14 12:12:23.176";"NST_correctLoc";"28";"0";"FINISHED";"LEFT";"success";"320";"0";"2014-10-14 12:12:21.912";"3";;;;;;;;;;;;;;;;;;;;;;;;;;;;;;;;;;;;;;;;;;;;;;;;;;;;;;;;;
"shazza_nana";"19/06/1992";;"Windows 7";"Rachel's Experiment (D.T.)";"1.0";"2";"1";"1";"2";"1";"1";"2014-10-14 12:03:43.794";"2014-10-14 12:23:56.174";"1";"0";"0";"46";"45";"module.training_block1.exec-6770.GoNoGo1";;;;;;;;;;;;;;;;;;;;;;;"1258";"2014-10-14 12:12:25.719";"NST_correctLoc";"33";"0";"FINISHED";"LEFT";"success";"361";"0";"2014-10-14 12:12:24.455";"3";;;;;;;;;;;;;;;;;;;;;;;;;;;;;;;;;;;;;;;;;;;;;;;;;;;;;;;;;
"shazza_nana";"19/06/1992";;"Windows 7";"Rachel's Experiment (D.T.)";"1.0";"2";"1";"1";"2";"1";"1";"2014-10-14 12:03:43.794";"2014-10-14 12:23:56.174";"1";"0";"0";"47";"46";"module.training_block1.exec-6770.GoNoGo1";;;;;;;;;;;;;;;;;;;;;;;"1258";"2014-10-14 12:12:28.262";"NST_correctLoc";"20";"1";"FINISHED";"RIGHT";"success";"378";"0";"2014-10-14 12:12:26.998";"3";;;;;;;;;;;;;;;;;;;;;;;;;;;;;;;;;;;;;;;;;;;;;;;;;;;;;;;;;
"shazza_nana";"19/06/1992";;"Windows 7";"Rachel's Experiment (D.T.)";"1.0";"2";"1";"1";"2";"1";"1";"2014-10-14 12:03:43.794";"2014-10-14 12:23:56.174";"1";"0";"0";"48";"47";"module.training_block1.exec-6770.GoNoGo1";;;;;;;;;;;;;;;;;;;;;;;"1257";"2014-10-14 12:12:30.805";"NST_correctLoc";"15";"1";"FINISHED";"RIGHT";"success";"403";"0";"2014-10-14 12:12:29.541";"2";;;;;;;;;;;;;;;;;;;;;;;;;;;;;;;;;;;;;;;;;;;;;;;;;;;;;;;;;
"shazza_nana";"19/06/1992";;"Windows 7";"Rachel's Experiment (D.T.)";"1.0";"2";"1";"1";"2";"1";"1";"2014-10-14 12:03:43.794";"2014-10-14 12:23:56.174";"1";"0";"0";"49";"48";"module.training_block1.exec-6770.GoNoGo1";;;;;;;;;;;;;;;;;;;;;;;"1257";"2014-10-14 12:12:33.348";"NST_correctLoc";"21";"1";"FINISHED";"RIGHT";"success";"372";"0";"2014-10-14 12:12:32.084";"3";;;;;;;;;;;;;;;;;;;;;;;;;;;;;;;;;;;;;;;;;;;;;;;;;;;;;;;;;
"shazza_nana";"19/06/1992";;"Windows 7";"Rachel's Experiment (D.T.)";"1.0";"2";"1";"1";"2";"1";"1";"2014-10-14 12:03:43.794";"2014-10-14 12:23:56.174";"1";"0";"0";"50";"49";"module.training_block1.exec-6770.GoNoGo1";;;;;;;;;;;;;;;;;;;;;;;"1258";"2014-10-14 12:12:35.891";"NST_correctLoc";"12";"1";"FINISHED";"RIGHT";"success";"334";"0";"2014-10-14 12:12:34.628";"2";;;;;;;;;;;;;;;;;;;;;;;;;;;;;;;;;;;;;;;;;;;;;;;;;;;;;;;;;
"shazza_nana";"19/06/1992";;"Windows 7";"Rachel's Experiment (D.T.)";"1.0";"2";"1";"1";"2";"1";"1";"2014-10-14 12:03:43.794";"2014-10-14 12:23:56.174";"1";"0";"0";"51";"50";"module.training_block1.exec-6770.GoNoGo1";;;;;;;;;;;;;;;;;;;;;;;"1258";"2014-10-14 12:12:38.435";"NST_correctLoc";"18";"0";"FINISHED";"LEFT";"success";"311";"0";"2014-10-14 12:12:37.171";"3";;;;;;;;;;;;;;;;;;;;;;;;;;;;;;;;;;;;;;;;;;;;;;;;;;;;;;;;;
"shazza_nana";"19/06/1992";;"Windows 7";"Rachel's Experiment (D.T.)";"1.0";"2";"1";"1";"2";"1";"1";"2014-10-14 12:03:43.794";"2014-10-14 12:23:56.174";"1";"0";"0";"52";"51";"module.training_block2.exec-4397.GoNoGo2";;;;;;;;;;;;;;;;;;;;;;;;;;;;;;;;;;;"1261";"2014-10-14 12:12:50.401";"NST_correctLoc";"4";"0";"FINISHED";"LEFT";"success";"517";"0";"2014-10-14 12:12:49.138";"1";;;;;;;;;;;;;;;;;;;;;;;;;;;;;;;;;;;;;;;;;;;;;
"shazza_nana";"19/06/1992";;"Windows 7";"Rachel's Experiment (D.T.)";"1.0";"2";"1";"1";"2";"1";"1";"2014-10-14 12:03:43.794";"2014-10-14 12:23:56.174";"1";"0";"0";"53";"52";"module.training_block2.exec-4397.GoNoGo2";;;;;;;;;;;;;;;;;;;;;;;;;;;;;;;;;;;"1261";"2014-10-14 12:12:52.945";"NST_correctLoc";"25";"1";"FINISHED";"RIGHT";"success";"478";"0";"2014-10-14 12:12:51.681";"3";;;;;;;;;;;;;;;;;;;;;;;;;;;;;;;;;;;;;;;;;;;;;
"shazza_nana";"19/06/1992";;"Windows 7";"Rachel's Experiment (D.T.)";"1.0";"2";"1";"1";"2";"1";"1";"2014-10-14 12:03:43.794";"2014-10-14 12:23:56.174";"1";"0";"0";"54";"53";"module.training_block2.exec-4397.GoNoGo2";;;;;;;;;;;;;;;;;;;;;;;;;;;;;;;;;;;"1261";"2014-10-14 12:12:55.488";"NST_correctLoc";"31";"1";"FINISHED";"RIGHT";"success";"432";"0";"2014-10-14 12:12:54.224";"3";;;;;;;;;;;;;;;;;;;;;;;;;;;;;;;;;;;;;;;;;;;;;
"shazza_nana";"19/06/1992";;"Windows 7";"Rachel's Experiment (D.T.)";"1.0";"2";"1";"1";"2";"1";"1";"2014-10-14 12:03:43.794";"2014-10-14 12:23:56.174";"1";"0";"0";"55";"54";"module.training_block2.exec-4397.GoNoGo2";;;;;;;;;;;;;;;;;;;;;;;;;;;;;;;;;;;"1261";"2014-10-14 12:12:58.031";"NST_correctLoc";"34";"0";"FINISHED";"LEFT";"success";"297";"0";"2014-10-14 12:12:56.767";"3";;;;;;;;;;;;;;;;;;;;;;;;;;;;;;;;;;;;;;;;;;;;;
"shazza_nana";"19/06/1992";;"Windows 7";"Rachel's Experiment (D.T.)";"1.0";"2";"1";"1";"2";"1";"1";"2014-10-14 12:03:43.794";"2014-10-14 12:23:56.174";"1";"0";"0";"56";"55";"module.training_block2.exec-4397.GoNoGo2";;;;;;;;;;;;;;;;;;;;;;;;;;;;;;;;;;;"1261";"2014-10-14 12:13:00.574";"NST_correctLoc";"0";"1";"FINISHED";"RIGHT";"success";"322";"0";"2014-10-14 12:12:59.310";"1";;;;;;;;;;;;;;;;;;;;;;;;;;;;;;;;;;;;;;;;;;;;;
"shazza_nana";"19/06/1992";;"Windows 7";"Rachel's Experiment (D.T.)";"1.0";"2";"1";"1";"2";"1";"1";"2014-10-14 12:03:43.794";"2014-10-14 12:23:56.174";"1";"0";"0";"57";"56";"module.training_block2.exec-4397.GoNoGo2";;;;;;;;;;;;;;;;;;;;;;;;;;;;;;;;;;;"1261";"2014-10-14 12:13:03.117";"NST_correctLoc";"33";"1";"FINISHED";"RIGHT";"success";"387";"0";"2014-10-14 12:13:01.853";"3";;;;;;;;;;;;;;;;;;;;;;;;;;;;;;;;;;;;;;;;;;;;;
"shazza_nana";"19/06/1992";;"Windows 7";"Rachel's Experiment (D.T.)";"1.0";"2";"1";"1";"2";"1";"1";"2014-10-14 12:03:43.794";"2014-10-14 12:23:56.174";"1";"0";"0";"58";"57";"module.training_block2.exec-4397.GoNoGo2";;;;;;;;;;;;;;;;;;;;;;;;;;;;;;;;;;;"1261";"2014-10-14 12:13:05.660";"NST_correctLoc";"3";"0";"FINISHED";"LEFT";"success";"284";"0";"2014-10-14 12:13:04.397";"1";;;;;;;;;;;;;;;;;;;;;;;;;;;;;;;;;;;;;;;;;;;;;
"shazza_nana";"19/06/1992";;"Windows 7";"Rachel's Experiment (D.T.)";"1.0";"2";"1";"1";"2";"1";"1";"2014-10-14 12:03:43.794";"2014-10-14 12:23:56.174";"1";"0";"0";"59";"58";"module.training_block2.exec-4397.GoNoGo2";;;;;;;;;;;;;;;;;;;;;;;;;;;;;;;;;;;"1261";"2014-10-14 12:13:08.204";"NST_correctLoc";"24";"0";"FINISHED";"LEFT";"success";"366";"0";"2014-10-14 12:13:06.940";"3";;;;;;;;;;;;;;;;;;;;;;;;;;;;;;;;;;;;;;;;;;;;;
"shazza_nana";"19/06/1992";;"Windows 7";"Rachel's Experiment (D.T.)";"1.0";"2";"1";"1";"2";"1";"1";"2014-10-14 12:03:43.794";"2014-10-14 12:23:56.174";"1";"0";"0";"60";"59";"module.training_block2.exec-4397.GoNoGo2";;;;;;;;;;;;;;;;;;;;;;;;;;;;;;;;;;;"1261";"2014-10-14 12:13:10.747";"NST_correctLoc";"17";"1";"FINISHED";"RIGHT";"success";"295";"0";"2014-10-14 12:13:09.483";"2";;;;;;;;;;;;;;;;;;;;;;;;;;;;;;;;;;;;;;;;;;;;;
"shazza_nana";"19/06/1992";;"Windows 7";"Rachel's Experiment (D.T.)";"1.0";"2";"1";"1";"2";"1";"1";"2014-10-14 12:03:43.794";"2014-10-14 12:23:56.174";"1";"0";"0";"61";"60";"module.training_block2.exec-4397.GoNoGo2";;;;;;;;;;;;;;;;;;;;;;;;;;;;;;;;;;;"1261";"2014-10-14 12:13:13.290";"NST_correctLoc";"32";"0";"FINISHED";"LEFT";"success";"320";"0";"2014-10-14 12:13:12.026";"3";;;;;;;;;;;;;;;;;;;;;;;;;;;;;;;;;;;;;;;;;;;;;
"shazza_nana";"19/06/1992";;"Windows 7";"Rachel's Experiment (D.T.)";"1.0";"2";"1";"1";"2";"1";"1";"2014-10-14 12:03:43.794";"2014-10-14 12:23:56.174";"1";"0";"0";"62";"61";"module.training_block2.exec-4397.GoNoGo2";;;;;;;;;;;;;;;;;;;;;;;;;;;;;;;;;;;"1261";"2014-10-14 12:13:15.833";"NST_correctLoc";"26";"0";"FINISHED";"LEFT";"success";"353";"0";"2014-10-14 12:13:14.569";"3";;;;;;;;;;;;;;;;;;;;;;;;;;;;;;;;;;;;;;;;;;;;;
"shazza_nana";"19/06/1992";;"Windows 7";"Rachel's Experiment (D.T.)";"1.0";"2";"1";"1";"2";"1";"1";"2014-10-14 12:03:43.794";"2014-10-14 12:23:56.174";"1";"0";"0";"63";"62";"module.training_block2.exec-4397.GoNoGo2";;;;;;;;;;;;;;;;;;;;;;;;;;;;;;;;;;;"1261";"2014-10-14 12:13:18.376";"NST_correctLoc";"22";"1";"FINISHED";"RIGHT";"success";"362";"0";"2014-10-14 12:13:17.112";"3";;;;;;;;;;;;;;;;;;;;;;;;;;;;;;;;;;;;;;;;;;;;;
"shazza_nana";"19/06/1992";;"Windows 7";"Rachel's Experiment (D.T.)";"1.0";"2";"1";"1";"2";"1";"1";"2014-10-14 12:03:43.794";"2014-10-14 12:23:56.174";"1";"0";"0";"64";"63";"module.training_block2.exec-4397.GoNoGo2";;;;;;;;;;;;;;;;;;;;;;;;;;;;;;;;;;;"1261";"2014-10-14 12:13:20.919";"NST_correctLoc";"8";"0";"FINISHED";"LEFT";"success";"347";"0";"2014-10-14 12:13:19.656";"1";;;;;;;;;;;;;;;;;;;;;;;;;;;;;;;;;;;;;;;;;;;;;
"shazza_nana";"19/06/1992";;"Windows 7";"Rachel's Experiment (D.T.)";"1.0";"2";"1";"1";"2";"1";"1";"2014-10-14 12:03:43.794";"2014-10-14 12:23:56.174";"1";"0";"0";"65";"64";"module.training_block2.exec-4397.GoNoGo2";;;;;;;;;;;;;;;;;;;;;;;;;;;;;;;;;;;"1261";"2014-10-14 12:13:23.463";"NST_correctLoc";"28";"1";"FINISHED";"RIGHT";"success";"373";"0";"2014-10-14 12:13:22.199";"3";;;;;;;;;;;;;;;;;;;;;;;;;;;;;;;;;;;;;;;;;;;;;
"shazza_nana";"19/06/1992";;"Windows 7";"Rachel's Experiment (D.T.)";"1.0";"2";"1";"1";"2";"1";"1";"2014-10-14 12:03:43.794";"2014-10-14 12:23:56.174";"1";"0";"0";"66";"65";"module.training_block2.exec-4397.GoNoGo2";;;;;;;;;;;;;;;;;;;;;;;;;;;;;;;;;;;"1261";"2014-10-14 12:13:26.006";"NST_correctLoc";"18";"1";"FINISHED";"RIGHT";"success";"414";"0";"2014-10-14 12:13:24.742";"3";;;;;;;;;;;;;;;;;;;;;;;;;;;;;;;;;;;;;;;;;;;;;
"shazza_nana";"19/06/1992";;"Windows 7";"Rachel's Experiment (D.T.)";"1.0";"2";"1";"1";"2";"1";"1";"2014-10-14 12:03:43.794";"2014-10-14 12:23:56.174";"1";"0";"0";"67";"66";"module.training_block2.exec-4397.GoNoGo2";;;;;;;;;;;;;;;;;;;;;;;;;;;;;;;;;;;"1261";"2014-10-14 12:13:28.549";"NST_correctLoc";"30";"1";"FINISHED";"RIGHT";"success";"295";"0";"2014-10-14 12:13:27.285";"3";;;;;;;;;;;;;;;;;;;;;;;;;;;;;;;;;;;;;;;;;;;;;
"shazza_nana";"19/06/1992";;"Windows 7";"Rachel's Experiment (D.T.)";"1.0";"2";"1";"1";"2";"1";"1";"2014-10-14 12:03:43.794";"2014-10-14 12:23:56.174";"1";"0";"0";"68";"67";"module.training_block2.exec-4397.GoNoGo2";;;;;;;;;;;;;;;;;;;;;;;;;;;;;;;;;;;"1261";"2014-10-14 12:13:31.092";"NST_correctLoc";"6";"1";"FINISHED";"RIGHT";"success";"320";"0";"2014-10-14 12:13:29.828";"1";;;;;;;;;;;;;;;;;;;;;;;;;;;;;;;;;;;;;;;;;;;;;
"shazza_nana";"19/06/1992";;"Windows 7";"Rachel's Experiment (D.T.)";"1.0";"2";"1";"1";"2";"1";"1";"2014-10-14 12:03:43.794";"2014-10-14 12:23:56.174";"1";"0";"0";"69";"68";"module.training_block2.exec-4397.GoNoGo2";;;;;;;;;;;;;;;;;;;;;;;;;;;;;;;;;;;"1261";"2014-10-14 12:13:33.635";"NST_correctLoc";"27";"1";"FINISHED";"RIGHT";"success";"345";"0";"2014-10-14 12:13:32.371";"3";;;;;;;;;;;;;;;;;;;;;;;;;;;;;;;;;;;;;;;;;;;;;
"shazza_nana";"19/06/1992";;"Windows 7";"Rachel's Experiment (D.T.)";"1.0";"2";"1";"1";"2";"1";"1";"2014-10-14 12:03:43.794";"2014-10-14 12:23:56.174";"1";"0";"0";"70";"69";"module.training_block2.exec-4397.GoNoGo2";;;;;;;;;;;;;;;;;;;;;;;;;;;;;;;;;;;"1261";"2014-10-14 12:13:36.178";"NST_correctLoc";"20";"1";"FINISHED";"RIGHT";"success";"362";"0";"2014-10-14 12:13:34.915";"3";;;;;;;;;;;;;;;;;;;;;;;;;;;;;;;;;;;;;;;;;;;;;
"shazza_nana";"19/06/1992";;"Windows 7";"Rachel's Experiment (D.T.)";"1.0";"2";"1";"1";"2";"1";"1";"2014-10-14 12:03:43.794";"2014-10-14 12:23:56.174";"1";"0";"0";"71";"70";"module.training_block2.exec-4397.GoNoGo2";;;;;;;;;;;;;;;;;;;;;;;;;;;;;;;;;;;"1261";"2014-10-14 12:13:38.721";"NST_correctLoc";"7";"1";"FINISHED";"RIGHT";"success";"372";"0";"2014-10-14 12:13:37.458";"1";;;;;;;;;;;;;;;;;;;;;;;;;;;;;;;;;;;;;;;;;;;;;
"shazza_nana";"19/06/1992";;"Windows 7";"Rachel's Experiment (D.T.)";"1.0";"2";"1";"1";"2";"1";"1";"2014-10-14 12:03:43.794";"2014-10-14 12:23:56.174";"1";"0";"0";"72";"71";"module.training_block2.exec-4397.GoNoGo2";;;;;;;;;;;;;;;;;;;;;;;;;;;;;;;;;;;"1261";"2014-10-14 12:13:41.265";"NST_correctLoc";"23";"1";"FINISHED";"RIGHT";"success";"373";"0";"2014-10-14 12:13:40.001";"3";;;;;;;;;;;;;;;;;;;;;;;;;;;;;;;;;;;;;;;;;;;;;
"shazza_nana";"19/06/1992";;"Windows 7";"Rachel's Experiment (D.T.)";"1.0";"2";"1";"1";"2";"1";"1";"2014-10-14 12:03:43.794";"2014-10-14 12:23:56.174";"1";"0";"0";"73";"72";"module.training_block2.exec-4397.GoNoGo2";;;;;;;;;;;;;;;;;;;;;;;;;;;;;;;;;;;"1261";"2014-10-14 12:13:43.808";"NST_correctLoc";"14";"0";"FINISHED";"LEFT";"success";"414";"0";"2014-10-14 12:13:42.544";"2";;;;;;;;;;;;;;;;;;;;;;;;;;;;;;;;;;;;;;;;;;;;;
"shazza_nana";"19/06/1992";;"Windows 7";"Rachel's Experiment (D.T.)";"1.0";"2";"1";"1";"2";"1";"1";"2014-10-14 12:03:43.794";"2014-10-14 12:23:56.174";"1";"0";"0";"74";"73";"module.training_block2.exec-4397.GoNoGo2";;;;;;;;;;;;;;;;;;;;;;;;;;;;;;;;;;;"1261";"2014-10-14 12:13:46.351";"NST_correctLoc";"13";"1";"FINISHED";"RIGHT";"success";"431";"0";"2014-10-14 12:13:45.087";"2";;;;;;;;;;;;;;;;;;;;;;;;;;;;;;;;;;;;;;;;;;;;;
"shazza_nana";"19/06/1992";;"Windows 7";"Rachel's Experiment (D.T.)";"1.0";"2";"1";"1";"2";"1";"1";"2014-10-14 12:03:43.794";"2014-10-14 12:23:56.174";"1";"0";"0";"75";"74";"module.training_block2.exec-4397.GoNoGo2";;;;;;;;;;;;;;;;;;;;;;;;;;;;;;;;;;;"1261";"2014-10-14 12:13:48.894";"NST_correctLoc";"21";"1";"FINISHED";"RIGHT";"success";"376";"0";"2014-10-14 12:13:47.630";"3";;;;;;;;;;;;;;;;;;;;;;;;;;;;;;;;;;;;;;;;;;;;;
"shazza_nana";"19/06/1992";;"Windows 7";"Rachel's Experiment (D.T.)";"1.0";"2";"1";"1";"2";"1";"1";"2014-10-14 12:03:43.794";"2014-10-14 12:23:56.174";"1";"0";"0";"76";"75";"module.training_block2.exec-4397.GoNoGo2";;;;;;;;;;;;;;;;;;;;;;;;;;;;;;;;;;;"1261";"2014-10-14 12:13:51.437";"NST_correctLoc";"19";"1";"FINISHED";"RIGHT";"success";"394";"0";"2014-10-14 12:13:50.173";"3";;;;;;;;;;;;;;;;;;;;;;;;;;;;;;;;;;;;;;;;;;;;;
"shazza_nana";"19/06/1992";;"Windows 7";"Rachel's Experiment (D.T.)";"1.0";"2";"1";"1";"2";"1";"1";"2014-10-14 12:03:43.794";"2014-10-14 12:23:56.174";"1";"0";"0";"77";"76";"module.training_block2.exec-4397.GoNoGo2";;;;;;;;;;;;;;;;;;;;;;;;;;;;;;;;;;;"1261";"2014-10-14 12:13:53.980";"NST_correctLoc";"16";"1";"FINISHED";"RIGHT";"success";"347";"0";"2014-10-14 12:13:52.717";"2";;;;;;;;;;;;;;;;;;;;;;;;;;;;;;;;;;;;;;;;;;;;;
"shazza_nana";"19/06/1992";;"Windows 7";"Rachel's Experiment (D.T.)";"1.0";"2";"1";"1";"2";"1";"1";"2014-10-14 12:03:43.794";"2014-10-14 12:23:56.174";"1";"0";"0";"78";"77";"module.training_block2.exec-4397.GoNoGo2";;;;;;;;;;;;;;;;;;;;;;;;;;;;;;;;;;;"1261";"2014-10-14 12:13:56.524";"NST_correctLoc";"12";"0";"FINISHED";"LEFT";"success";"380";"0";"2014-10-14 12:13:55.260";"2";;;;;;;;;;;;;;;;;;;;;;;;;;;;;;;;;;;;;;;;;;;;;
"shazza_nana";"19/06/1992";;"Windows 7";"Rachel's Experiment (D.T.)";"1.0";"2";"1";"1";"2";"1";"1";"2014-10-14 12:03:43.794";"2014-10-14 12:23:56.174";"1";"0";"0";"79";"78";"module.training_block2.exec-4397.GoNoGo2";;;;;;;;;;;;;;;;;;;;;;;;;;;;;;;;;;;"1261";"2014-10-14 12:13:59.067";"NST_correctLoc";"10";"1";"FINISHED";"RIGHT";"success";"349";"0";"2014-10-14 12:13:57.803";"2";;;;;;;;;;;;;;;;;;;;;;;;;;;;;;;;;;;;;;;;;;;;;
"shazza_nana";"19/06/1992";;"Windows 7";"Rachel's Experiment (D.T.)";"1.0";"2";"1";"1";"2";"1";"1";"2014-10-14 12:03:43.794";"2014-10-14 12:23:56.174";"1";"0";"0";"80";"79";"module.training_block2.exec-4397.GoNoGo2";;;;;;;;;;;;;;;;;;;;;;;;;;;;;;;;;;;"1261";"2014-10-14 12:14:01.610";"NST_correctLoc";"11";"1";"FINISHED";"RIGHT";"success";"342";"0";"2014-10-14 12:14:00.346";"2";;;;;;;;;;;;;;;;;;;;;;;;;;;;;;;;;;;;;;;;;;;;;
"shazza_nana";"19/06/1992";;"Windows 7";"Rachel's Experiment (D.T.)";"1.0";"2";"1";"1";"2";"1";"1";"2014-10-14 12:03:43.794";"2014-10-14 12:23:56.174";"1";"0";"0";"81";"80";"module.training_block2.exec-4397.GoNoGo2";;;;;;;;;;;;;;;;;;;;;;;;;;;;;;;;;;;"1261";"2014-10-14 12:14:04.153";"NST_correctLoc";"1";"0";"FINISHED";"LEFT";"success";"335";"0";"2014-10-14 12:14:02.889";"1";;;;;;;;;;;;;;;;;;;;;;;;;;;;;;;;;;;;;;;;;;;;;
"shazza_nana";"19/06/1992";;"Windows 7";"Rachel's Experiment (D.T.)";"1.0";"2";"1";"1";"2";"1";"1";"2014-10-14 12:03:43.794";"2014-10-14 12:23:56.174";"1";"0";"0";"82";"81";"module.training_block2.exec-4397.GoNoGo2";;;;;;;;;;;;;;;;;;;;;;;;;;;;;;;;;;;"1261";"2014-10-14 12:14:06.696";"NST_correctLoc";"5";"0";"FINISHED";"LEFT";"success";"369";"0";"2014-10-14 12:14:05.432";"1";;;;;;;;;;;;;;;;;;;;;;;;;;;;;;;;;;;;;;;;;;;;;
"shazza_nana";"19/06/1992";;"Windows 7";"Rachel's Experiment (D.T.)";"1.0";"2";"1";"1";"2";"1";"1";"2014-10-14 12:03:43.794";"2014-10-14 12:23:56.174";"1";"0";"0";"83";"82";"module.training_block2.exec-4397.GoNoGo2";;;;;;;;;;;;;;;;;;;;;;;;;;;;;;;;;;;"1261";"2014-10-14 12:14:09.239";"NST_correctLoc";"15";"1";"FINISHED";"RIGHT";"success";"410";"0";"2014-10-14 12:14:07.976";"2";;;;;;;;;;;;;;;;;;;;;;;;;;;;;;;;;;;;;;;;;;;;;
"shazza_nana";"19/06/1992";;"Windows 7";"Rachel's Experiment (D.T.)";"1.0";"2";"1";"1";"2";"1";"1";"2014-10-14 12:03:43.794";"2014-10-14 12:23:56.174";"1";"0";"0";"84";"83";"module.training_block2.exec-4397.GoNoGo2";;;;;;;;;;;;;;;;;;;;;;;;;;;;;;;;;;;"1261";"2014-10-14 12:14:11.783";"NST_correctLoc";"2";"1";"FINISHED";"RIGHT";"success";"355";"0";"2014-10-14 12:14:10.519";"1";;;;;;;;;;;;;;;;;;;;;;;;;;;;;;;;;;;;;;;;;;;;;
"shazza_nana";"19/06/1992";;"Windows 7";"Rachel's Experiment (D.T.)";"1.0";"2";"1";"1";"2";"1";"1";"2014-10-14 12:03:43.794";"2014-10-14 12:23:56.174";"1";"0";"0";"85";"84";"module.training_block2.exec-4397.GoNoGo2";;;;;;;;;;;;;;;;;;;;;;;;;;;;;;;;;;;"1261";"2014-10-14 12:14:14.326";"NST_correctLoc";"9";"0";"FINISHED";"LEFT";"success";"332";"0";"2014-10-14 12:14:13.062";"2";;;;;;;;;;;;;;;;;;;;;;;;;;;;;;;;;;;;;;;;;;;;;
"shazza_nana";"19/06/1992";;"Windows 7";"Rachel's Experiment (D.T.)";"1.0";"2";"1";"1";"2";"1";"1";"2014-10-14 12:03:43.794";"2014-10-14 12:23:56.174";"1";"0";"0";"86";"85";"module.training_block2.exec-4397.GoNoGo2";;;;;;;;;;;;;;;;;;;;;;;;;;;;;;;;;;;"1262";"2014-10-14 12:14:16.869";"NST_correctLoc";"35";"0";"FINISHED";"LEFT";"success";"477";"0";"2014-10-14 12:14:15.605";"3";;;;;;;;;;;;;;;;;;;;;;;;;;;;;;;;;;;;;;;;;;;;;
"shazza_nana";"19/06/1992";;"Windows 7";"Rachel's Experiment (D.T.)";"1.0";"2";"1";"1";"2";"1";"1";"2014-10-14 12:03:43.794";"2014-10-14 12:23:56.174";"1";"0";"0";"87";"86";"module.training_block2.exec-4397.GoNoGo2";;;;;;;;;;;;;;;;;;;;;;;;;;;;;;;;;;;"1261";"2014-10-14 12:14:19.412";"NST_correctLoc";"29";"0";"FINISHED";"LEFT";"success";"463";"0";"2014-10-14 12:14:18.148";"3";;;;;;;;;;;;;;;;;;;;;;;;;;;;;;;;;;;;;;;;;;;;;
"shazza_nana";"19/06/1992";;"Windows 7";"Rachel's Experiment (D.T.)";"1.0";"2";"1";"1";"2";"1";"1";"2014-10-14 12:03:43.794";"2014-10-14 12:23:56.174";"1";"0";"0";"88";"87";"module.training_block3.exec-4554.GoNoGo3";;;;;;;;;;;;;;;;;;;;;;;;;;;;;;;;;;;;;;;;;;;;;;;"1261";"2014-10-14 12:14:30.443";"NST_miss";"2";"1";"FINISHED";"NONE";"failure";"0";"0";"2014-10-14 12:14:29.179";"1";;;;;;;;;;;;;;;;;;;;;;;;;;;;;;;;;
"shazza_nana";"19/06/1992";;"Windows 7";"Rachel's Experiment (D.T.)";"1.0";"2";"1";"1";"2";"1";"1";"2014-10-14 12:03:43.794";"2014-10-14 12:23:56.174";"1";"0";"0";"89";"88";"module.training_block3.exec-4554.GoNoGo3";;;;;;;;;;;;;;;;;;;;;;;;;;;;;;;;;;;;;;;;;;;;;;;"1262";"2014-10-14 12:14:32.986";"NST_correctLoc";"23";"1";"FINISHED";"RIGHT";"success";"579";"0";"2014-10-14 12:14:31.722";"3";;;;;;;;;;;;;;;;;;;;;;;;;;;;;;;;;
"shazza_nana";"19/06/1992";;"Windows 7";"Rachel's Experiment (D.T.)";"1.0";"2";"1";"1";"2";"1";"1";"2014-10-14 12:03:43.794";"2014-10-14 12:23:56.174";"1";"0";"0";"90";"89";"module.training_block3.exec-4554.GoNoGo3";;;;;;;;;;;;;;;;;;;;;;;;;;;;;;;;;;;;;;;;;;;;;;;"1262";"2014-10-14 12:14:35.529";"NST_correctLoc";"16";"1";"FINISHED";"RIGHT";"success";"380";"0";"2014-10-14 12:14:34.265";"2";;;;;;;;;;;;;;;;;;;;;;;;;;;;;;;;;
"shazza_nana";"19/06/1992";;"Windows 7";"Rachel's Experiment (D.T.)";"1.0";"2";"1";"1";"2";"1";"1";"2014-10-14 12:03:43.794";"2014-10-14 12:23:56.174";"1";"0";"0";"91";"90";"module.training_block3.exec-4554.GoNoGo3";;;;;;;;;;;;;;;;;;;;;;;;;;;;;;;;;;;;;;;;;;;;;;;"1261";"2014-10-14 12:14:38.072";"NST_correctLoc";"4";"0";"FINISHED";"LEFT";"success";"381";"0";"2014-10-14 12:14:36.808";"1";;;;;;;;;;;;;;;;;;;;;;;;;;;;;;;;;
"shazza_nana";"19/06/1992";;"Windows 7";"Rachel's Experiment (D.T.)";"1.0";"2";"1";"1";"2";"1";"1";"2014-10-14 12:03:43.794";"2014-10-14 12:23:56.174";"1";"0";"0";"92";"91";"module.training_block3.exec-4554.GoNoGo3";;;;;;;;;;;;;;;;;;;;;;;;;;;;;;;;;;;;;;;;;;;;;;;"1261";"2014-10-14 12:14:40.615";"NST_correctLoc";"6";"1";"FINISHED";"RIGHT";"success";"374";"0";"2014-10-14 12:14:39.352";"1";;;;;;;;;;;;;;;;;;;;;;;;;;;;;;;;;
"shazza_nana";"19/06/1992";;"Windows 7";"Rachel's Experiment (D.T.)";"1.0";"2";"1";"1";"2";"1";"1";"2014-10-14 12:03:43.794";"2014-10-14 12:23:56.174";"1";"0";"0";"93";"92";"module.training_block3.exec-4554.GoNoGo3";;;;;;;;;;;;;;;;;;;;;;;;;;;;;;;;;;;;;;;;;;;;;;;"1261";"2014-10-14 12:14:43.159";"NST_correctLoc";"5";"1";"FINISHED";"RIGHT";"success";"375";"0";"2014-10-14 12:14:41.895";"1";;;;;;;;;;;;;;;;;;;;;;;;;;;;;;;;;
"shazza_nana";"19/06/1992";;"Windows 7";"Rachel's Experiment (D.T.)";"1.0";"2";"1";"1";"2";"1";"1";"2014-10-14 12:03:43.794";"2014-10-14 12:23:56.174";"1";"0";"0";"94";"93";"module.training_block3.exec-4554.GoNoGo3";;;;;;;;;;;;;;;;;;;;;;;;;;;;;;;;;;;;;;;;;;;;;;;"1262";"2014-10-14 12:14:45.702";"NST_correctLoc";"10";"1";"FINISHED";"RIGHT";"success";"416";"0";"2014-10-14 12:14:44.438";"2";;;;;;;;;;;;;;;;;;;;;;;;;;;;;;;;;
"shazza_nana";"19/06/1992";;"Windows 7";"Rachel's Experiment (D.T.)";"1.0";"2";"1";"1";"2";"1";"1";"2014-10-14 12:03:43.794";"2014-10-14 12:23:56.174";"1";"0";"0";"95";"94";"module.training_block3.exec-4554.GoNoGo3";;;;;;;;;;;;;;;;;;;;;;;;;;;;;;;;;;;;;;;;;;;;;;;"1262";"2014-10-14 12:14:48.245";"NST_correctLoc";"21";"0";"FINISHED";"LEFT";"success";"434";"0";"2014-10-14 12:14:46.981";"3";;;;;;;;;;;;;;;;;;;;;;;;;;;;;;;;;
"shazza_nana";"19/06/1992";;"Windows 7";"Rachel's Experiment (D.T.)";"1.0";"2";"1";"1";"2";"1";"1";"2014-10-14 12:03:43.794";"2014-10-14 12:23:56.174";"1";"0";"0";"96";"95";"module.training_block3.exec-4554.GoNoGo3";;;;;;;;;;;;;;;;;;;;;;;;;;;;;;;;;;;;;;;;;;;;;;;"1262";"2014-10-14 12:14:50.788";"NST_correctLoc";"34";"0";"FINISHED";"LEFT";"success";"435";"0";"2014-10-14 12:14:49.524";"3";;;;;;;;;;;;;;;;;;;;;;;;;;;;;;;;;
"shazza_nana";"19/06/1992";;"Windows 7";"Rachel's Experiment (D.T.)";"1.0";"2";"1";"1";"2";"1";"1";"2014-10-14 12:03:43.794";"2014-10-14 12:23:56.174";"1";"0";"0";"97";"96";"module.training_block3.exec-4554.GoNoGo3";;;;;;;;;;;;;;;;;;;;;;;;;;;;;;;;;;;;;;;;;;;;;;;"1262";"2014-10-14 12:14:53.331";"NST_correctLoc";"18";"1";"FINISHED";"RIGHT";"success";"340";"0";"2014-10-14 12:14:52.067";"3";;;;;;;;;;;;;;;;;;;;;;;;;;;;;;;;;
"shazza_nana";"19/06/1992";;"Windows 7";"Rachel's Experiment (D.T.)";"1.0";"2";"1";"1";"2";"1";"1";"2014-10-14 12:03:43.794";"2014-10-14 12:23:56.174";"1";"0";"0";"98";"97";"module.training_block3.exec-4554.GoNoGo3";;;;;;;;;;;;;;;;;;;;;;;;;;;;;;;;;;;;;;;;;;;;;;;"1261";"2014-10-14 12:14:55.874";"NST_correctLoc";"17";"0";"FINISHED";"LEFT";"success";"301";"0";"2014-10-14 12:14:54.611";"2";;;;;;;;;;;;;;;;;;;;;;;;;;;;;;;;;
"shazza_nana";"19/06/1992";;"Windows 7";"Rachel's Experiment (D.T.)";"1.0";"2";"1";"1";"2";"1";"1";"2014-10-14 12:03:43.794";"2014-10-14 12:23:56.174";"1";"0";"0";"99";"98";"module.training_block3.exec-4554.GoNoGo3";;;;;;;;;;;;;;;;;;;;;;;;;;;;;;;;;;;;;;;;;;;;;;;"1261";"2014-10-14 12:14:58.418";"NST_correctLoc";"3";"0";"FINISHED";"LEFT";"success";"382";"0";"2014-10-14 12:14:57.154";"1";;;;;;;;;;;;;;;;;;;;;;;;;;;;;;;;;
"shazza_nana";"19/06/1992";;"Windows 7";"Rachel's Experiment (D.T.)";"1.0";"2";"1";"1";"2";"1";"1";"2014-10-14 12:03:43.794";"2014-10-14 12:23:56.174";"1";"0";"0";"100";"99";"module.training_block3.exec-4554.GoNoGo3";;;;;;;;;;;;;;;;;;;;;;;;;;;;;;;;;;;;;;;;;;;;;;;"1262";"2014-10-14 12:15:00.961";"NST_correctLoc";"20";"0";"FINISHED";"LEFT";"success";"336";"0";"2014-10-14 12:14:59.697";"3";;;;;;;;;;;;;;;;;;;;;;;;;;;;;;;;;
"shazza_nana";"19/06/1992";;"Windows 7";"Rachel's Experiment (D.T.)";"1.0";"2";"1";"1";"2";"1";"1";"2014-10-14 12:03:43.794";"2014-10-14 12:23:56.174";"1";"0";"0";"101";"100";"module.training_block3.exec-4554.GoNoGo3";;;;;;;;;;;;;;;;;;;;;;;;;;;;;;;;;;;;;;;;;;;;;;;"1262";"2014-10-14 12:15:03.504";"NST_correctLoc";"8";"1";"FINISHED";"RIGHT";"success";"409";"0";"2014-10-14 12:15:02.240";"1";;;;;;;;;;;;;;;;;;;;;;;;;;;;;;;;;
"shazza_nana";"19/06/1992";;"Windows 7";"Rachel's Experiment (D.T.)";"1.0";"2";"1";"1";"2";"1";"1";"2014-10-14 12:03:43.794";"2014-10-14 12:23:56.174";"1";"0";"0";"102";"101";"module.training_block3.exec-4554.GoNoGo3";;;;;;;;;;;;;;;;;;;;;;;;;;;;;;;;;;;;;;;;;;;;;;;"1262";"2014-10-14 12:15:06.047";"NST_correctLoc";"24";"0";"FINISHED";"LEFT";"success";"426";"0";"2014-10-14 12:15:04.783";"3";;;;;;;;;;;;;;;;;;;;;;;;;;;;;;;;;
"shazza_nana";"19/06/1992";;"Windows 7";"Rachel's Experiment (D.T.)";"1.0";"2";"1";"1";"2";"1";"1";"2014-10-14 12:03:43.794";"2014-10-14 12:23:56.174";"1";"0";"0";"103";"102";"module.training_block3.exec-4554.GoNoGo3";;;;;;;;;;;;;;;;;;;;;;;;;;;;;;;;;;;;;;;;;;;;;;;"1262";"2014-10-14 12:15:08.590";"NST_correctLoc";"25";"0";"FINISHED";"LEFT";"success";"467";"0";"2014-10-14 12:15:07.326";"3";;;;;;;;;;;;;;;;;;;;;;;;;;;;;;;;;
"shazza_nana";"19/06/1992";;"Windows 7";"Rachel's Experiment (D.T.)";"1.0";"2";"1";"1";"2";"1";"1";"2014-10-14 12:03:43.794";"2014-10-14 12:23:56.174";"1";"0";"0";"104";"103";"module.training_block3.exec-4554.GoNoGo3";;;;;;;;;;;;;;;;;;;;;;;;;;;;;;;;;;;;;;;;;;;;;;;"1261";"2014-10-14 12:15:11.133";"NST_correctLoc";"26";"1";"FINISHED";"RIGHT";"success";"396";"0";"2014-10-14 12:15:09.870";"3";;;;;;;;;;;;;;;;;;;;;;;;;;;;;;;;;
"shazza_nana";"19/06/1992";;"Windows 7";"Rachel's Experiment (D.T.)";"1.0";"2";"1";"1";"2";"1";"1";"2014-10-14 12:03:43.794";"2014-10-14 12:23:56.174";"1";"0";"0";"105";"104";"module.training_block3.exec-4554.GoNoGo3";;;;;;;;;;;;;;;;;;;;;;;;;;;;;;;;;;;;;;;;;;;;;;;"1262";"2014-10-14 12:15:13.676";"NST_correctLoc";"7";"1";"FINISHED";"RIGHT";"success";"853";"0";"2014-10-14 12:15:12.413";"1";;;;;;;;;;;;;;;;;;;;;;;;;;;;;;;;;
"shazza_nana";"19/06/1992";;"Windows 7";"Rachel's Experiment (D.T.)";"1.0";"2";"1";"1";"2";"1";"1";"2014-10-14 12:03:43.794";"2014-10-14 12:23:56.174";"1";"0";"0";"106";"105";"module.training_block3.exec-4554.GoNoGo3";;;;;;;;;;;;;;;;;;;;;;;;;;;;;;;;;;;;;;;;;;;;;;;"1262";"2014-10-14 12:15:16.220";"NST_correctLoc";"13";"1";"FINISHED";"RIGHT";"success";"511";"0";"2014-10-14 12:15:14.956";"2";;;;;;;;;;;;;;;;;;;;;;;;;;;;;;;;;
"shazza_nana";"19/06/1992";;"Windows 7";"Rachel's Experiment (D.T.)";"1.0";"2";"1";"1";"2";"1";"1";"2014-10-14 12:03:43.794";"2014-10-14 12:23:56.174";"1";"0";"0";"107";"106";"module.training_block3.exec-4554.GoNoGo3";;;;;;;;;;;;;;;;;;;;;;;;;;;;;;;;;;;;;;;;;;;;;;;"1261";"2014-10-14 12:15:18.763";"NST_correctLoc";"27";"0";"FINISHED";"LEFT";"success";"320";"0";"2014-10-14 12:15:17.499";"3";;;;;;;;;;;;;;;;;;;;;;;;;;;;;;;;;
"shazza_nana";"19/06/1992";;"Windows 7";"Rachel's Experiment (D.T.)";"1.0";"2";"1";"1";"2";"1";"1";"2014-10-14 12:03:43.794";"2014-10-14 12:23:56.174";"1";"0";"0";"108";"107";"module.training_block3.exec-4554.GoNoGo3";;;;;;;;;;;;;;;;;;;;;;;;;;;;;;;;;;;;;;;;;;;;;;;"1262";"2014-10-14 12:15:21.306";"NST_correctLoc";"22";"1";"FINISHED";"RIGHT";"success";"345";"0";"2014-10-14 12:15:20.042";"3";;;;;;;;;;;;;;;;;;;;;;;;;;;;;;;;;
"shazza_nana";"19/06/1992";;"Windows 7";"Rachel's Experiment (D.T.)";"1.0";"2";"1";"1";"2";"1";"1";"2014-10-14 12:03:43.794";"2014-10-14 12:23:56.174";"1";"0";"0";"109";"108";"module.training_block3.exec-4554.GoNoGo3";;;;;;;;;;;;;;;;;;;;;;;;;;;;;;;;;;;;;;;;;;;;;;;"1262";"2014-10-14 12:15:23.849";"NST_correctLoc";"32";"1";"FINISHED";"RIGHT";"success";"426";"0";"2014-10-14 12:15:22.585";"3";;;;;;;;;;;;;;;;;;;;;;;;;;;;;;;;;
"shazza_nana";"19/06/1992";;"Windows 7";"Rachel's Experiment (D.T.)";"1.0";"2";"1";"1";"2";"1";"1";"2014-10-14 12:03:43.794";"2014-10-14 12:23:56.174";"1";"0";"0";"110";"109";"module.training_block3.exec-4554.GoNoGo3";;;;;;;;;;;;;;;;;;;;;;;;;;;;;;;;;;;;;;;;;;;;;;;"1261";"2014-10-14 12:15:26.392";"NST_correctLoc";"33";"1";"FINISHED";"RIGHT";"success";"387";"0";"2014-10-14 12:15:25.128";"3";;;;;;;;;;;;;;;;;;;;;;;;;;;;;;;;;
"shazza_nana";"19/06/1992";;"Windows 7";"Rachel's Experiment (D.T.)";"1.0";"2";"1";"1";"2";"1";"1";"2014-10-14 12:03:43.794";"2014-10-14 12:23:56.174";"1";"0";"0";"111";"110";"module.training_block3.exec-4554.GoNoGo3";;;;;;;;;;;;;;;;;;;;;;;;;;;;;;;;;;;;;;;;;;;;;;;"1257";"2014-10-14 12:15:28.935";"NST_correctLoc";"15";"0";"FINISHED";"LEFT";"success";"320";"0";"2014-10-14 12:15:27.672";"2";;;;;;;;;;;;;;;;;;;;;;;;;;;;;;;;;
"shazza_nana";"19/06/1992";;"Windows 7";"Rachel's Experiment (D.T.)";"1.0";"2";"1";"1";"2";"1";"1";"2014-10-14 12:03:43.794";"2014-10-14 12:23:56.174";"1";"0";"0";"112";"111";"module.training_block3.exec-4554.GoNoGo3";;;;;;;;;;;;;;;;;;;;;;;;;;;;;;;;;;;;;;;;;;;;;;;"1261";"2014-10-14 12:15:31.479";"NST_correctLoc";"12";"1";"FINISHED";"RIGHT";"success";"278";"0";"2014-10-14 12:15:30.215";"2";;;;;;;;;;;;;;;;;;;;;;;;;;;;;;;;;
"shazza_nana";"19/06/1992";;"Windows 7";"Rachel's Experiment (D.T.)";"1.0";"2";"1";"1";"2";"1";"1";"2014-10-14 12:03:43.794";"2014-10-14 12:23:56.174";"1";"0";"0";"113";"112";"module.training_block3.exec-4554.GoNoGo3";;;;;;;;;;;;;;;;;;;;;;;;;;;;;;;;;;;;;;;;;;;;;;;"1262";"2014-10-14 12:15:34.022";"NST_correctLoc";"0";"0";"FINISHED";"LEFT";"success";"279";"0";"2014-10-14 12:15:32.758";"1";;;;;;;;;;;;;;;;;;;;;;;;;;;;;;;;;
"shazza_nana";"19/06/1992";;"Windows 7";"Rachel's Experiment (D.T.)";"1.0";"2";"1";"1";"2";"1";"1";"2014-10-14 12:03:43.794";"2014-10-14 12:23:56.174";"1";"0";"0";"114";"113";"module.training_block3.exec-4554.GoNoGo3";;;;;;;;;;;;;;;;;;;;;;;;;;;;;;;;;;;;;;;;;;;;;;;"1261";"2014-10-14 12:15:36.565";"NST_correctLoc";"29";"1";"FINISHED";"RIGHT";"success";"328";"0";"2014-10-14 12:15:35.301";"3";;;;;;;;;;;;;;;;;;;;;;;;;;;;;;;;;
"shazza_nana";"19/06/1992";;"Windows 7";"Rachel's Experiment (D.T.)";"1.0";"2";"1";"1";"2";"1";"1";"2014-10-14 12:03:43.794";"2014-10-14 12:23:56.174";"1";"0";"0";"115";"114";"module.training_block3.exec-4554.GoNoGo3";;;;;;;;;;;;;;;;;;;;;;;;;;;;;;;;;;;;;;;;;;;;;;;"1262";"2014-10-14 12:15:39.108";"NST_correctLoc";"31";"0";"FINISHED";"LEFT";"success";"305";"0";"2014-10-14 12:15:37.844";"3";;;;;;;;;;;;;;;;;;;;;;;;;;;;;;;;;
"shazza_nana";"19/06/1992";;"Windows 7";"Rachel's Experiment (D.T.)";"1.0";"2";"1";"1";"2";"1";"1";"2014-10-14 12:03:43.794";"2014-10-14 12:23:56.174";"1";"0";"0";"116";"115";"module.training_block3.exec-4554.GoNoGo3";;;;;;;;;;;;;;;;;;;;;;;;;;;;;;;;;;;;;;;;;;;;;;;"1262";"2014-10-14 12:15:41.651";"NST_correctLoc";"1";"0";"FINISHED";"LEFT";"success";"370";"0";"2014-10-14 12:15:40.387";"1";;;;;;;;;;;;;;;;;;;;;;;;;;;;;;;;;
"shazza_nana";"19/06/1992";;"Windows 7";"Rachel's Experiment (D.T.)";"1.0";"2";"1";"1";"2";"1";"1";"2014-10-14 12:03:43.794";"2014-10-14 12:23:56.174";"1";"0";"0";"117";"116";"module.training_block3.exec-4554.GoNoGo3";;;;;;;;;;;;;;;;;;;;;;;;;;;;;;;;;;;;;;;;;;;;;;;"1262";"2014-10-14 12:15:44.194";"NST_correctLoc";"9";"1";"FINISHED";"RIGHT";"success";"316";"0";"2014-10-14 12:15:42.931";"2";;;;;;;;;;;;;;;;;;;;;;;;;;;;;;;;;
"shazza_nana";"19/06/1992";;"Windows 7";"Rachel's Experiment (D.T.)";"1.0";"2";"1";"1";"2";"1";"1";"2014-10-14 12:03:43.794";"2014-10-14 12:23:56.174";"1";"0";"0";"118";"117";"module.training_block3.exec-4554.GoNoGo3";;;;;;;;;;;;;;;;;;;;;;;;;;;;;;;;;;;;;;;;;;;;;;;"1262";"2014-10-14 12:15:46.753";"NST_correctLoc";"19";"1";"FINISHED";"RIGHT";"success";"437";"0";"2014-10-14 12:15:45.489";"3";;;;;;;;;;;;;;;;;;;;;;;;;;;;;;;;;
"shazza_nana";"19/06/1992";;"Windows 7";"Rachel's Experiment (D.T.)";"1.0";"2";"1";"1";"2";"1";"1";"2014-10-14 12:03:43.794";"2014-10-14 12:23:56.174";"1";"0";"0";"119";"118";"module.training_block3.exec-4554.GoNoGo3";;;;;;;;;;;;;;;;;;;;;;;;;;;;;;;;;;;;;;;;;;;;;;;"1262";"2014-10-14 12:15:49.296";"NST_correctLoc";"14";"0";"FINISHED";"LEFT";"success";"342";"0";"2014-10-14 12:15:48.033";"2";;;;;;;;;;;;;;;;;;;;;;;;;;;;;;;;;
"shazza_nana";"19/06/1992";;"Windows 7";"Rachel's Experiment (D.T.)";"1.0";"2";"1";"1";"2";"1";"1";"2014-10-14 12:03:43.794";"2014-10-14 12:23:56.174";"1";"0";"0";"120";"119";"module.training_block3.exec-4554.GoNoGo3";;;;;;;;;;;;;;;;;;;;;;;;;;;;;;;;;;;;;;;;;;;;;;;"1262";"2014-10-14 12:15:51.839";"NST_correctLoc";"30";"0";"FINISHED";"LEFT";"success";"384";"0";"2014-10-14 12:15:50.576";"3";;;;;;;;;;;;;;;;;;;;;;;;;;;;;;;;;
"shazza_nana";"19/06/1992";;"Windows 7";"Rachel's Experiment (D.T.)";"1.0";"2";"1";"1";"2";"1";"1";"2014-10-14 12:03:43.794";"2014-10-14 12:23:56.174";"1";"0";"0";"121";"120";"module.training_block3.exec-4554.GoNoGo3";;;;;;;;;;;;;;;;;;;;;;;;;;;;;;;;;;;;;;;;;;;;;;;"1262";"2014-10-14 12:15:54.383";"NST_correctLoc";"28";"1";"FINISHED";"RIGHT";"success";"329";"0";"2014-10-14 12:15:53.119";"3";;;;;;;;;;;;;;;;;;;;;;;;;;;;;;;;;
"shazza_nana";"19/06/1992";;"Windows 7";"Rachel's Experiment (D.T.)";"1.0";"2";"1";"1";"2";"1";"1";"2014-10-14 12:03:43.794";"2014-10-14 12:23:56.174";"1";"0";"0";"122";"121";"module.training_block3.exec-4554.GoNoGo3";;;;;;;;;;;;;;;;;;;;;;;;;;;;;;;;;;;;;;;;;;;;;;;"1262";"2014-10-14 12:15:56.926";"NST_correctLoc";"11";"0";"FINISHED";"LEFT";"success";"322";"0";"2014-10-14 12:15:55.662";"2";;;;;;;;;;;;;;;;;;;;;;;;;;;;;;;;;
"shazza_nana";"19/06/1992";;"Windows 7";"Rachel's Experiment (D.T.)";"1.0";"2";"1";"1";"2";"1";"1";"2014-10-14 12:03:43.794";"2014-10-14 12:23:56.174";"1";"0";"0";"123";"122";"module.training_block3.exec-4554.GoNoGo3";;;;;;;;;;;;;;;;;;;;;;;;;;;;;;;;;;;;;;;;;;;;;;;"1261";"2014-10-14 12:15:59.469";"NST_correctLoc";"35";"1";"FINISHED";"RIGHT";"success";"347";"0";"2014-10-14 12:15:58.205";"3";;;;;;;;;;;;;;;;;;;;;;;;;;;;;;;;;
"shazza_nana";"19/06/1992";;"Windows 7";"Rachel's Experiment (D.T.)";"1.0";"2";"1";"1";"2";"1";"1";"2014-10-14 12:03:43.794";"2014-10-14 12:23:56.174";"1";"0";"0";"124";"123";"module.training_block4.exec-4405.GoNoGo4";;;;;;;;;;;;;;;;;;;;;;;;;;;;;;;;;;;;;;;;;;;;;;;;;;;;;;;;;;;"1261";"2014-10-14 12:16:16.460";"NST_correctLoc";"6";"0";"FINISHED";"LEFT";"success";"422";"0";"2014-10-14 12:16:15.196";"1";;;;;;;;;;;;;;;;;;;;;
"shazza_nana";"19/06/1992";;"Windows 7";"Rachel's Experiment (D.T.)";"1.0";"2";"1";"1";"2";"1";"1";"2014-10-14 12:03:43.794";"2014-10-14 12:23:56.174";"1";"0";"0";"125";"124";"module.training_block4.exec-4405.GoNoGo4";;;;;;;;;;;;;;;;;;;;;;;;;;;;;;;;;;;;;;;;;;;;;;;;;;;;;;;;;;;"1262";"2014-10-14 12:16:19.003";"NST_correctLoc";"30";"1";"FINISHED";"RIGHT";"success";"440";"0";"2014-10-14 12:16:17.739";"3";;;;;;;;;;;;;;;;;;;;;
"shazza_nana";"19/06/1992";;"Windows 7";"Rachel's Experiment (D.T.)";"1.0";"2";"1";"1";"2";"1";"1";"2014-10-14 12:03:43.794";"2014-10-14 12:23:56.174";"1";"0";"0";"126";"125";"module.training_block4.exec-4405.GoNoGo4";;;;;;;;;;;;;;;;;;;;;;;;;;;;;;;;;;;;;;;;;;;;;;;;;;;;;;;;;;;"1261";"2014-10-14 12:16:21.546";"NST_correctLoc";"9";"0";"FINISHED";"LEFT";"success";"441";"0";"2014-10-14 12:16:20.282";"2";;;;;;;;;;;;;;;;;;;;;
"shazza_nana";"19/06/1992";;"Windows 7";"Rachel's Experiment (D.T.)";"1.0";"2";"1";"1";"2";"1";"1";"2014-10-14 12:03:43.794";"2014-10-14 12:23:56.174";"1";"0";"0";"127";"126";"module.training_block4.exec-4405.GoNoGo4";;;;;;;;;;;;;;;;;;;;;;;;;;;;;;;;;;;;;;;;;;;;;;;;;;;;;;;;;;;"1262";"2014-10-14 12:16:24.074";"NST_correctLoc";"11";"1";"FINISHED";"RIGHT";"success";"362";"0";"2014-10-14 12:16:22.810";"2";;;;;;;;;;;;;;;;;;;;;
"shazza_nana";"19/06/1992";;"Windows 7";"Rachel's Experiment (D.T.)";"1.0";"2";"1";"1";"2";"1";"1";"2014-10-14 12:03:43.794";"2014-10-14 12:23:56.174";"1";"0";"0";"128";"127";"module.training_block4.exec-4405.GoNoGo4";;;;;;;;;;;;;;;;;;;;;;;;;;;;;;;;;;;;;;;;;;;;;;;;;;;;;;;;;;;"1261";"2014-10-14 12:16:26.617";"NST_correctLoc";"15";"1";"FINISHED";"RIGHT";"success";"419";"0";"2014-10-14 12:16:25.353";"2";;;;;;;;;;;;;;;;;;;;;
"shazza_nana";"19/06/1992";;"Windows 7";"Rachel's Experiment (D.T.)";"1.0";"2";"1";"1";"2";"1";"1";"2014-10-14 12:03:43.794";"2014-10-14 12:23:56.174";"1";"0";"0";"129";"128";"module.training_block4.exec-4405.GoNoGo4";;;;;;;;;;;;;;;;;;;;;;;;;;;;;;;;;;;;;;;;;;;;;;;;;;;;;;;;;;;"1261";"2014-10-14 12:16:29.176";"NST_correctLoc";"2";"0";"FINISHED";"LEFT";"success";"324";"0";"2014-10-14 12:16:27.912";"1";;;;;;;;;;;;;;;;;;;;;
"shazza_nana";"19/06/1992";;"Windows 7";"Rachel's Experiment (D.T.)";"1.0";"2";"1";"1";"2";"1";"1";"2014-10-14 12:03:43.794";"2014-10-14 12:23:56.174";"1";"0";"0";"130";"129";"module.training_block4.exec-4405.GoNoGo4";;;;;;;;;;;;;;;;;;;;;;;;;;;;;;;;;;;;;;;;;;;;;;;;;;;;;;;;;;;"1262";"2014-10-14 12:16:31.719";"NST_correctLoc";"23";"0";"FINISHED";"LEFT";"success";"414";"0";"2014-10-14 12:16:30.455";"3";;;;;;;;;;;;;;;;;;;;;
"shazza_nana";"19/06/1992";;"Windows 7";"Rachel's Experiment (D.T.)";"1.0";"2";"1";"1";"2";"1";"1";"2014-10-14 12:03:43.794";"2014-10-14 12:23:56.174";"1";"0";"0";"131";"130";"module.training_block4.exec-4405.GoNoGo4";;;;;;;;;;;;;;;;;;;;;;;;;;;;;;;;;;;;;;;;;;;;;;;;;;;;;;;;;;;"1262";"2014-10-14 12:16:34.262";"NST_correctLoc";"31";"1";"FINISHED";"RIGHT";"success";"343";"0";"2014-10-14 12:16:32.998";"3";;;;;;;;;;;;;;;;;;;;;
"shazza_nana";"19/06/1992";;"Windows 7";"Rachel's Experiment (D.T.)";"1.0";"2";"1";"1";"2";"1";"1";"2014-10-14 12:03:43.794";"2014-10-14 12:23:56.174";"1";"0";"0";"132";"131";"module.training_block4.exec-4405.GoNoGo4";;;;;;;;;;;;;;;;;;;;;;;;;;;;;;;;;;;;;;;;;;;;;;;;;;;;;;;;;;;"1262";"2014-10-14 12:16:36.789";"NST_correctLoc";"17";"1";"FINISHED";"RIGHT";"success";"375";"0";"2014-10-14 12:16:35.526";"2";;;;;;;;;;;;;;;;;;;;;
"shazza_nana";"19/06/1992";;"Windows 7";"Rachel's Experiment (D.T.)";"1.0";"2";"1";"1";"2";"1";"1";"2014-10-14 12:03:43.794";"2014-10-14 12:23:56.174";"1";"0";"0";"133";"132";"module.training_block4.exec-4405.GoNoGo4";;;;;;;;;;;;;;;;;;;;;;;;;;;;;;;;;;;;;;;;;;;;;;;;;;;;;;;;;;;"1262";"2014-10-14 12:16:39.333";"NST_correctLoc";"13";"1";"FINISHED";"RIGHT";"success";"329";"0";"2014-10-14 12:16:38.069";"2";;;;;;;;;;;;;;;;;;;;;
"shazza_nana";"19/06/1992";;"Windows 7";"Rachel's Experiment (D.T.)";"1.0";"2";"1";"1";"2";"1";"1";"2014-10-14 12:03:43.794";"2014-10-14 12:23:56.174";"1";"0";"0";"134";"133";"module.training_block4.exec-4405.GoNoGo4";;;;;;;;;;;;;;;;;;;;;;;;;;;;;;;;;;;;;;;;;;;;;;;;;;;;;;;;;;;"1261";"2014-10-14 12:16:41.860";"NST_correctLoc";"0";"1";"FINISHED";"RIGHT";"success";"369";"0";"2014-10-14 12:16:40.596";"1";;;;;;;;;;;;;;;;;;;;;
"shazza_nana";"19/06/1992";;"Windows 7";"Rachel's Experiment (D.T.)";"1.0";"2";"1";"1";"2";"1";"1";"2014-10-14 12:03:43.794";"2014-10-14 12:23:56.174";"1";"0";"0";"135";"134";"module.training_block4.exec-4405.GoNoGo4";;;;;;;;;;;;;;;;;;;;;;;;;;;;;;;;;;;;;;;;;;;;;;;;;;;;;;;;;;;"1262";"2014-10-14 12:16:44.403";"NST_correctLoc";"32";"1";"FINISHED";"RIGHT";"success";"371";"0";"2014-10-14 12:16:43.139";"3";;;;;;;;;;;;;;;;;;;;;
"shazza_nana";"19/06/1992";;"Windows 7";"Rachel's Experiment (D.T.)";"1.0";"2";"1";"1";"2";"1";"1";"2014-10-14 12:03:43.794";"2014-10-14 12:23:56.174";"1";"0";"0";"136";"135";"module.training_block4.exec-4405.GoNoGo4";;;;;;;;;;;;;;;;;;;;;;;;;;;;;;;;;;;;;;;;;;;;;;;;;;;;;;;;;;;"1262";"2014-10-14 12:16:46.946";"NST_correctLoc";"8";"0";"FINISHED";"LEFT";"success";"340";"0";"2014-10-14 12:16:45.683";"1";;;;;;;;;;;;;;;;;;;;;
"shazza_nana";"19/06/1992";;"Windows 7";"Rachel's Experiment (D.T.)";"1.0";"2";"1";"1";"2";"1";"1";"2014-10-14 12:03:43.794";"2014-10-14 12:23:56.174";"1";"0";"0";"137";"136";"module.training_block4.exec-4405.GoNoGo4";;;;;;;;;;;;;;;;;;;;;;;;;;;;;;;;;;;;;;;;;;;;;;;;;;;;;;;;;;;"1262";"2014-10-14 12:16:49.474";"NST_correctLoc";"18";"0";"FINISHED";"LEFT";"success";"389";"0";"2014-10-14 12:16:48.210";"3";;;;;;;;;;;;;;;;;;;;;
"shazza_nana";"19/06/1992";;"Windows 7";"Rachel's Experiment (D.T.)";"1.0";"2";"1";"1";"2";"1";"1";"2014-10-14 12:03:43.794";"2014-10-14 12:23:56.174";"1";"0";"0";"138";"137";"module.training_block4.exec-4405.GoNoGo4";;;;;;;;;;;;;;;;;;;;;;;;;;;;;;;;;;;;;;;;;;;;;;;;;;;;;;;;;;;"1262";"2014-10-14 12:16:52.002";"NST_correctLoc";"28";"1";"FINISHED";"RIGHT";"success";"365";"0";"2014-10-14 12:16:50.738";"3";;;;;;;;;;;;;;;;;;;;;
"shazza_nana";"19/06/1992";;"Windows 7";"Rachel's Experiment (D.T.)";"1.0";"2";"1";"1";"2";"1";"1";"2014-10-14 12:03:43.794";"2014-10-14 12:23:56.174";"1";"0";"0";"139";"138";"module.training_block4.exec-4405.GoNoGo4";;;;;;;;;;;;;;;;;;;;;;;;;;;;;;;;;;;;;;;;;;;;;;;;;;;;;;;;;;;"1262";"2014-10-14 12:16:54.545";"NST_correctLoc";"25";"0";"FINISHED";"LEFT";"success";"303";"0";"2014-10-14 12:16:53.281";"3";;;;;;;;;;;;;;;;;;;;;
"shazza_nana";"19/06/1992";;"Windows 7";"Rachel's Experiment (D.T.)";"1.0";"2";"1";"1";"2";"1";"1";"2014-10-14 12:03:43.794";"2014-10-14 12:23:56.174";"1";"0";"0";"140";"139";"module.training_block4.exec-4405.GoNoGo4";;;;;;;;;;;;;;;;;;;;;;;;;;;;;;;;;;;;;;;;;;;;;;;;;;;;;;;;;;;"1257";"2014-10-14 12:16:57.072";"NST_correctLoc";"21";"0";"FINISHED";"LEFT";"success";"379";"0";"2014-10-14 12:16:55.808";"3";;;;;;;;;;;;;;;;;;;;;
"shazza_nana";"19/06/1992";;"Windows 7";"Rachel's Experiment (D.T.)";"1.0";"2";"1";"1";"2";"1";"1";"2014-10-14 12:03:43.794";"2014-10-14 12:23:56.174";"1";"0";"0";"141";"140";"module.training_block4.exec-4405.GoNoGo4";;;;;;;;;;;;;;;;;;;;;;;;;;;;;;;;;;;;;;;;;;;;;;;;;;;;;;;;;;;"1262";"2014-10-14 12:16:59.600";"NST_correctLoc";"29";"1";"FINISHED";"RIGHT";"success";"368";"0";"2014-10-14 12:16:58.336";"3";;;;;;;;;;;;;;;;;;;;;
"shazza_nana";"19/06/1992";;"Windows 7";"Rachel's Experiment (D.T.)";"1.0";"2";"1";"1";"2";"1";"1";"2014-10-14 12:03:43.794";"2014-10-14 12:23:56.174";"1";"0";"0";"142";"141";"module.training_block4.exec-4405.GoNoGo4";;;;;;;;;;;;;;;;;;;;;;;;;;;;;;;;;;;;;;;;;;;;;;;;;;;;;;;;;;;"1261";"2014-10-14 12:17:02.127";"NST_correctLoc";"34";"1";"FINISHED";"RIGHT";"success";"377";"0";"2014-10-14 12:17:00.864";"3";;;;;;;;;;;;;;;;;;;;;
"shazza_nana";"19/06/1992";;"Windows 7";"Rachel's Experiment (D.T.)";"1.0";"2";"1";"1";"2";"1";"1";"2014-10-14 12:03:43.794";"2014-10-14 12:23:56.174";"1";"0";"0";"143";"142";"module.training_block4.exec-4405.GoNoGo4";;;;;;;;;;;;;;;;;;;;;;;;;;;;;;;;;;;;;;;;;;;;;;;;;;;;;;;;;;;"1262";"2014-10-14 12:17:04.655";"NST_correctLoc";"3";"1";"FINISHED";"RIGHT";"success";"402";"0";"2014-10-14 12:17:03.391";"1";;;;;;;;;;;;;;;;;;;;;
"shazza_nana";"19/06/1992";;"Windows 7";"Rachel's Experiment (D.T.)";"1.0";"2";"1";"1";"2";"1";"1";"2014-10-14 12:03:43.794";"2014-10-14 12:23:56.174";"1";"0";"0";"144";"143";"module.training_block4.exec-4405.GoNoGo4";;;;;;;;;;;;;;;;;;;;;;;;;;;;;;;;;;;;;;;;;;;;;;;;;;;;;;;;;;;"1262";"2014-10-14 12:17:07.214";"NST_correctLoc";"12";"0";"FINISHED";"LEFT";"success";"339";"0";"2014-10-14 12:17:05.950";"2";;;;;;;;;;;;;;;;;;;;;
"shazza_nana";"19/06/1992";;"Windows 7";"Rachel's Experiment (D.T.)";"1.0";"2";"1";"1";"2";"1";"1";"2014-10-14 12:03:43.794";"2014-10-14 12:23:56.174";"1";"0";"0";"145";"144";"module.training_block4.exec-4405.GoNoGo4";;;;;;;;;;;;;;;;;;;;;;;;;;;;;;;;;;;;;;;;;;;;;;;;;;;;;;;;;;;"1262";"2014-10-14 12:17:09.741";"NST_correctLoc";"16";"0";"FINISHED";"LEFT";"success";"388";"0";"2014-10-14 12:17:08.477";"2";;;;;;;;;;;;;;;;;;;;;
"shazza_nana";"19/06/1992";;"Windows 7";"Rachel's Experiment (D.T.)";"1.0";"2";"1";"1";"2";"1";"1";"2014-10-14 12:03:43.794";"2014-10-14 12:23:56.174";"1";"0";"0";"146";"145";"module.training_block4.exec-4405.GoNoGo4";;;;;;;;;;;;;;;;;;;;;;;;;;;;;;;;;;;;;;;;;;;;;;;;;;;;;;;;;;;"1262";"2014-10-14 12:17:12.269";"NST_correctLoc";"26";"1";"FINISHED";"RIGHT";"success";"445";"0";"2014-10-14 12:17:11.005";"3";;;;;;;;;;;;;;;;;;;;;
"shazza_nana";"19/06/1992";;"Windows 7";"Rachel's Experiment (D.T.)";"1.0";"2";"1";"1";"2";"1";"1";"2014-10-14 12:03:43.794";"2014-10-14 12:23:56.174";"1";"0";"0";"147";"146";"module.training_block4.exec-4405.GoNoGo4";;;;;;;;;;;;;;;;;;;;;;;;;;;;;;;;;;;;;;;;;;;;;;;;;;;;;;;;;;;"1262";"2014-10-14 12:17:14.796";"NST_correctLoc";"1";"1";"FINISHED";"RIGHT";"success";"430";"0";"2014-10-14 12:17:13.533";"1";;;;;;;;;;;;;;;;;;;;;
"shazza_nana";"19/06/1992";;"Windows 7";"Rachel's Experiment (D.T.)";"1.0";"2";"1";"1";"2";"1";"1";"2014-10-14 12:03:43.794";"2014-10-14 12:23:56.174";"1";"0";"0";"148";"147";"module.training_block4.exec-4405.GoNoGo4";;;;;;;;;;;;;;;;;;;;;;;;;;;;;;;;;;;;;;;;;;;;;;;;;;;;;;;;;;;"1262";"2014-10-14 12:17:17.339";"NST_correctLoc";"22";"1";"FINISHED";"RIGHT";"success";"367";"0";"2014-10-14 12:17:16.076";"3";;;;;;;;;;;;;;;;;;;;;
"shazza_nana";"19/06/1992";;"Windows 7";"Rachel's Experiment (D.T.)";"1.0";"2";"1";"1";"2";"1";"1";"2014-10-14 12:03:43.794";"2014-10-14 12:23:56.174";"1";"0";"0";"149";"148";"module.training_block4.exec-4405.GoNoGo4";;;;;;;;;;;;;;;;;;;;;;;;;;;;;;;;;;;;;;;;;;;;;;;;;;;;;;;;;;;"1262";"2014-10-14 12:17:19.898";"NST_correctLoc";"27";"0";"FINISHED";"LEFT";"success";"296";"0";"2014-10-14 12:17:18.634";"3";;;;;;;;;;;;;;;;;;;;;
"shazza_nana";"19/06/1992";;"Windows 7";"Rachel's Experiment (D.T.)";"1.0";"2";"1";"1";"2";"1";"1";"2014-10-14 12:03:43.794";"2014-10-14 12:23:56.174";"1";"0";"0";"150";"149";"module.training_block4.exec-4405.GoNoGo4";;;;;;;;;;;;;;;;;;;;;;;;;;;;;;;;;;;;;;;;;;;;;;;;;;;;;;;;;;;"1262";"2014-10-14 12:17:22.426";"NST_correctLoc";"14";"0";"FINISHED";"LEFT";"success";"393";"0";"2014-10-14 12:17:21.162";"2";;;;;;;;;;;;;;;;;;;;;
"shazza_nana";"19/06/1992";;"Windows 7";"Rachel's Experiment (D.T.)";"1.0";"2";"1";"1";"2";"1";"1";"2014-10-14 12:03:43.794";"2014-10-14 12:23:56.174";"1";"0";"0";"151";"150";"module.training_block4.exec-4405.GoNoGo4";;;;;;;;;;;;;;;;;;;;;;;;;;;;;;;;;;;;;;;;;;;;;;;;;;;;;;;;;;;"1262";"2014-10-14 12:17:24.953";"NST_correctLoc";"4";"1";"FINISHED";"RIGHT";"success";"354";"0";"2014-10-14 12:17:23.690";"1";;;;;;;;;;;;;;;;;;;;;
"shazza_nana";"19/06/1992";;"Windows 7";"Rachel's Experiment (D.T.)";"1.0";"2";"1";"1";"2";"1";"1";"2014-10-14 12:03:43.794";"2014-10-14 12:23:56.174";"1";"0";"0";"152";"151";"module.training_block4.exec-4405.GoNoGo4";;;;;;;;;;;;;;;;;;;;;;;;;;;;;;;;;;;;;;;;;;;;;;;;;;;;;;;;;;;"1262";"2014-10-14 12:17:27.481";"NST_correctLoc";"20";"0";"FINISHED";"LEFT";"success";"323";"0";"2014-10-14 12:17:26.217";"3";;;;;;;;;;;;;;;;;;;;;
"shazza_nana";"19/06/1992";;"Windows 7";"Rachel's Experiment (D.T.)";"1.0";"2";"1";"1";"2";"1";"1";"2014-10-14 12:03:43.794";"2014-10-14 12:23:56.174";"1";"0";"0";"153";"152";"module.training_block4.exec-4405.GoNoGo4";;;;;;;;;;;;;;;;;;;;;;;;;;;;;;;;;;;;;;;;;;;;;;;;;;;;;;;;;;;"1262";"2014-10-14 12:17:30.008";"NST_correctLoc";"24";"1";"FINISHED";"RIGHT";"success";"331";"0";"2014-10-14 12:17:28.745";"3";;;;;;;;;;;;;;;;;;;;;
"shazza_nana";"19/06/1992";;"Windows 7";"Rachel's Experiment (D.T.)";"1.0";"2";"1";"1";"2";"1";"1";"2014-10-14 12:03:43.794";"2014-10-14 12:23:56.174";"1";"0";"0";"154";"153";"module.training_block4.exec-4405.GoNoGo4";;;;;;;;;;;;;;;;;;;;;;;;;;;;;;;;;;;;;;;;;;;;;;;;;;;;;;;;;;;"1262";"2014-10-14 12:17:32.552";"NST_correctLoc";"33";"1";"FINISHED";"RIGHT";"success";"461";"0";"2014-10-14 12:17:31.288";"3";;;;;;;;;;;;;;;;;;;;;
"shazza_nana";"19/06/1992";;"Windows 7";"Rachel's Experiment (D.T.)";"1.0";"2";"1";"1";"2";"1";"1";"2014-10-14 12:03:43.794";"2014-10-14 12:23:56.174";"1";"0";"0";"155";"154";"module.training_block4.exec-4405.GoNoGo4";;;;;;;;;;;;;;;;;;;;;;;;;;;;;;;;;;;;;;;;;;;;;;;;;;;;;;;;;;;"1262";"2014-10-14 12:17:35.079";"NST_correctLoc";"10";"0";"FINISHED";"LEFT";"success";"333";"0";"2014-10-14 12:17:33.815";"2";;;;;;;;;;;;;;;;;;;;;
"shazza_nana";"19/06/1992";;"Windows 7";"Rachel's Experiment (D.T.)";"1.0";"2";"1";"1";"2";"1";"1";"2014-10-14 12:03:43.794";"2014-10-14 12:23:56.174";"1";"0";"0";"156";"155";"module.training_block4.exec-4405.GoNoGo4";;;;;;;;;;;;;;;;;;;;;;;;;;;;;;;;;;;;;;;;;;;;;;;;;;;;;;;;;;;"1262";"2014-10-14 12:17:37.622";"NST_correctLoc";"19";"0";"FINISHED";"LEFT";"success";"367";"0";"2014-10-14 12:17:36.359";"3";;;;;;;;;;;;;;;;;;;;;
"shazza_nana";"19/06/1992";;"Windows 7";"Rachel's Experiment (D.T.)";"1.0";"2";"1";"1";"2";"1";"1";"2014-10-14 12:03:43.794";"2014-10-14 12:23:56.174";"1";"0";"0";"157";"156";"module.training_block4.exec-4405.GoNoGo4";;;;;;;;;;;;;;;;;;;;;;;;;;;;;;;;;;;;;;;;;;;;;;;;;;;;;;;;;;;"1262";"2014-10-14 12:17:40.150";"NST_correctLoc";"5";"0";"FINISHED";"LEFT";"success";"375";"0";"2014-10-14 12:17:38.886";"1";;;;;;;;;;;;;;;;;;;;;
"shazza_nana";"19/06/1992";;"Windows 7";"Rachel's Experiment (D.T.)";"1.0";"2";"1";"1";"2";"1";"1";"2014-10-14 12:03:43.794";"2014-10-14 12:23:56.174";"1";"0";"0";"158";"157";"module.training_block4.exec-4405.GoNoGo4";;;;;;;;;;;;;;;;;;;;;;;;;;;;;;;;;;;;;;;;;;;;;;;;;;;;;;;;;;;"1262";"2014-10-14 12:17:42.693";"NST_correctLoc";"7";"1";"FINISHED";"RIGHT";"success";"377";"0";"2014-10-14 12:17:41.429";"1";;;;;;;;;;;;;;;;;;;;;
"shazza_nana";"19/06/1992";;"Windows 7";"Rachel's Experiment (D.T.)";"1.0";"2";"1";"1";"2";"1";"1";"2014-10-14 12:03:43.794";"2014-10-14 12:23:56.174";"1";"0";"0";"159";"158";"module.training_block4.exec-4405.GoNoGo4";;;;;;;;;;;;;;;;;;;;;;;;;;;;;;;;;;;;;;;;;;;;;;;;;;;;;;;;;;;"1262";"2014-10-14 12:17:45.252";"NST_correctLoc";"35";"0";"FINISHED";"LEFT";"success";"586";"0";"2014-10-14 12:17:43.988";"3";;;;;;;;;;;;;;;;;;;;;
"shazza_nana";"19/06/1992";;"Windows 7";"Rachel's Experiment (D.T.)";"1.0";"2";"1";"1";"2";"1";"1";"2014-10-14 12:03:43.794";"2014-10-14 12:23:56.174";"1";"0";"0";"160";"159";"module.devaluation_practice.exec-4187.devalPractice";;;;;;;;;;;;"35326";"2014-10-14 12:19:08.224";"0";"5";"4";"5";"12417";"13580";"6264";"2014-10-14 12:18:32.885";;;;;;;;;;;;;;;;;;;;;;;;;;;;;;;;;;;;;;;;;;;;;;;;;;;;;;;;;;;;;;;;;;;;;;
"shazza_nana";"19/06/1992";;"Windows 7";"Rachel's Experiment (D.T.)";"1.0";"2";"1";"1";"2";"1";"1";"2014-10-14 12:03:43.794";"2014-10-14 12:23:56.174";"1";"0";"0";"161";"160";"module.devaluation_practice.exec-4187.devalPractice";;;;;;;;;;;;"12145";"2014-10-14 12:19:20.394";"1";"4";"3";"4";"3812";"2683";"2629";"2014-10-14 12:19:08.240";;;;;;;;;;;;;;;;;;;;;;;;;;;;;;;;;;;;;;;;;;;;;;;;;;;;;;;;;;;;;;;;;;;;;;
"shazza_nana";"19/06/1992";;"Windows 7";"Rachel's Experiment (D.T.)";"1.0";"2";"1";"1";"2";"1";"1";"2014-10-14 12:03:43.794";"2014-10-14 12:23:56.174";"1";"0";"0";"162";"161";"module.devaluation_practice.exec-4187.devalPractice";;;;;;;;;;;;"12387";"2014-10-14 12:19:32.798";"2";"3";"1";"2";"5140";"2470";"1751";"2014-10-14 12:19:20.410";;;;;;;;;;;;;;;;;;;;;;;;;;;;;;;;;;;;;;;;;;;;;;;;;;;;;;;;;;;;;;;;;;;;;;
"shazza_nana";"19/06/1992";;"Windows 7";"Rachel's Experiment (D.T.)";"1.0";"2";"1";"1";"2";"1";"1";"2014-10-14 12:03:43.794";"2014-10-14 12:23:56.174";"1";"0";"0";"163";"162";"module.devaluation_practice.exec-4187.devalPractice";;;;;;;;;;;;"14484";"2014-10-14 12:19:47.308";"3";"6";"8";"6";"5458";"2178";"3813";"2014-10-14 12:19:32.829";;;;;;;;;;;;;;;;;;;;;;;;;;;;;;;;;;;;;;;;;;;;;;;;;;;;;;;;;;;;;;;;;;;;;;
"shazza_nana";"19/06/1992";;"Windows 7";"Rachel's Experiment (D.T.)";"1.0";"2";"1";"1";"2";"1";"1";"2014-10-14 12:03:43.794";"2014-10-14 12:23:56.174";"1";"0";"0";"164";"163";"module.devaluation_block1.exec-8858.deval1";"10823";"2014-10-14 12:20:06.592";"1";"4";"5";"5";"3421";"2277";"2098";"2014-10-14 12:19:55.764";"1";;;;;;;;;;;;;;;;;;;;;;;;;;;;;;;;;;;;;;;;;;;;;;;;;;;;;;;;;;;;;;;;;;;;;;;;;;;;;;;;
"shazza_nana";"19/06/1992";;"Windows 7";"Rachel's Experiment (D.T.)";"1.0";"2";"1";"1";"2";"1";"1";"2014-10-14 12:03:43.794";"2014-10-14 12:23:56.174";"1";"0";"0";"165";"164";"module.devaluation_block1.exec-8858.deval1";"12405";"2014-10-14 12:20:19.026";"14";"5";"2";"4";"1716";"2284";"5373";"2014-10-14 12:20:06.623";"2";;;;;;;;;;;;;;;;;;;;;;;;;;;;;;;;;;;;;;;;;;;;;;;;;;;;;;;;;;;;;;;;;;;;;;;;;;;;;;;;
"shazza_nana";"19/06/1992";;"Windows 7";"Rachel's Experiment (D.T.)";"1.0";"2";"1";"1";"2";"1";"1";"2014-10-14 12:03:43.794";"2014-10-14 12:23:56.174";"1";"0";"0";"166";"165";"module.devaluation_block1.exec-8858.deval1";"10211";"2014-10-14 12:20:29.261";"0";"7";"9";"8";"4227";"1222";"1725";"2014-10-14 12:20:19.042";"1";;;;;;;;;;;;;;;;;;;;;;;;;;;;;;;;;;;;;;;;;;;;;;;;;;;;;;;;;;;;;;;;;;;;;;;;;;;;;;;;
"shazza_nana";"19/06/1992";;"Windows 7";"Rachel's Experiment (D.T.)";"1.0";"2";"1";"1";"2";"1";"1";"2014-10-14 12:03:43.794";"2014-10-14 12:23:56.174";"1";"0";"0";"167";"166";"module.devaluation_block1.exec-8858.deval1";"8492";"2014-10-14 12:20:37.780";"25";"7";"8";"7";"1833";"2121";"1517";"2014-10-14 12:20:29.277";"3";;;;;;;;;;;;;;;;;;;;;;;;;;;;;;;;;;;;;;;;;;;;;;;;;;;;;;;;;;;;;;;;;;;;;;;;;;;;;;;;
"shazza_nana";"19/06/1992";;"Windows 7";"Rachel's Experiment (D.T.)";"1.0";"2";"1";"1";"2";"1";"1";"2014-10-14 12:03:43.794";"2014-10-14 12:23:56.174";"1";"0";"0";"168";"167";"module.devaluation_block1.exec-8858.deval1";"9045";"2014-10-14 12:20:46.860";"9";"1";"1";"1";"2428";"1373";"2215";"2014-10-14 12:20:37.811";"2";;;;;;;;;;;;;;;;;;;;;;;;;;;;;;;;;;;;;;;;;;;;;;;;;;;;;;;;;;;;;;;;;;;;;;;;;;;;;;;;
"shazza_nana";"19/06/1992";;"Windows 7";"Rachel's Experiment (D.T.)";"1.0";"2";"1";"1";"2";"1";"1";"2014-10-14 12:03:43.794";"2014-10-14 12:23:56.174";"1";"0";"0";"169";"168";"module.devaluation_block1.exec-8858.deval1";"10884";"2014-10-14 12:20:57.766";"16";"5";"3";"3";"3988";"1731";"2143";"2014-10-14 12:20:46.876";"2";;;;;;;;;;;;;;;;;;;;;;;;;;;;;;;;;;;;;;;;;;;;;;;;;;;;;;;;;;;;;;;;;;;;;;;;;;;;;;;;
"shazza_nana";"19/06/1992";;"Windows 7";"Rachel's Experiment (D.T.)";"1.0";"2";"1";"1";"2";"1";"1";"2014-10-14 12:03:43.794";"2014-10-14 12:23:56.174";"1";"0";"0";"170";"169";"module.devaluation_block1.exec-8858.deval1";"8748";"2014-10-14 12:21:06.550";"26";"9";"9";"9";"2092";"1585";"2032";"2014-10-14 12:20:57.797";"3";;;;;;;;;;;;;;;;;;;;;;;;;;;;;;;;;;;;;;;;;;;;;;;;;;;;;;;;;;;;;;;;;;;;;;;;;;;;;;;;
"shazza_nana";"19/06/1992";;"Windows 7";"Rachel's Experiment (D.T.)";"1.0";"2";"1";"1";"2";"1";"1";"2014-10-14 12:03:43.794";"2014-10-14 12:23:56.174";"1";"0";"0";"171";"170";"module.devaluation_block1.exec-8858.deval1";"9622";"2014-10-14 12:21:16.207";"4";"7";"7";"7";"2414";"2028";"2144";"2014-10-14 12:21:06.581";"1";;;;;;;;;;;;;;;;;;;;;;;;;;;;;;;;;;;;;;;;;;;;;;;;;;;;;;;;;;;;;;;;;;;;;;;;;;;;;;;;
"shazza_nana";"19/06/1992";;"Windows 7";"Rachel's Experiment (D.T.)";"1.0";"2";"1";"1";"2";"1";"1";"2014-10-14 12:03:43.794";"2014-10-14 12:23:56.174";"1";"0";"0";"172";"171";"module.devaluation_block1.exec-8858.deval1";"7613";"2014-10-14 12:21:23.837";"12";"4";"5";"6";"868";"1728";"1999";"2014-10-14 12:21:16.223";"2";;;;;;;;;;;;;;;;;;;;;;;;;;;;;;;;;;;;;;;;;;;;;;;;;;;;;;;;;;;;;;;;;;;;;;;;;;;;;;;;
"shazza_nana";"19/06/1992";;"Windows 7";"Rachel's Experiment (D.T.)";"1.0";"2";"1";"1";"2";"1";"1";"2014-10-14 12:03:43.794";"2014-10-14 12:23:56.174";"1";"0";"0";"173";"172";"module.devaluation_block1.exec-8858.deval1";"9948";"2014-10-14 12:21:33.806";"19";"7";"6";"6";"2856";"2164";"1895";"2014-10-14 12:21:23.868";"3";;;;;;;;;;;;;;;;;;;;;;;;;;;;;;;;;;;;;;;;;;;;;;;;;;;;;;;;;;;;;;;;;;;;;;;;;;;;;;;;
"shazza_nana";"19/06/1992";;"Windows 7";"Rachel's Experiment (D.T.)";"1.0";"2";"1";"1";"2";"1";"1";"2014-10-14 12:03:43.794";"2014-10-14 12:23:56.174";"1";"0";"0";"174";"173";"module.devaluation_block1.exec-8858.deval1";"8936";"2014-10-14 12:21:42.793";"22";"5";"5";"6";"2688";"1219";"1994";"2014-10-14 12:21:33.853";"3";;;;;;;;;;;;;;;;;;;;;;;;;;;;;;;;;;;;;;;;;;;;;;;;;;;;;;;;;;;;;;;;;;;;;;;;;;;;;;;;
"shazza_nana";"19/06/1992";;"Windows 7";"Rachel's Experiment (D.T.)";"1.0";"2";"1";"1";"2";"1";"1";"2014-10-14 12:03:43.794";"2014-10-14 12:23:56.174";"1";"0";"0";"175";"174";"module.devaluation_block1.exec-8858.deval1";"9036";"2014-10-14 12:21:51.842";"5";"7";"5";"6";"1958";"2459";"1589";"2014-10-14 12:21:42.809";"1";;;;;;;;;;;;;;;;;;;;;;;;;;;;;;;;;;;;;;;;;;;;;;;;;;;;;;;;;;;;;;;;;;;;;;;;;;;;;;;;
"shazza_nana";"19/06/1992";;"Windows 7";"Rachel's Experiment (D.T.)";"1.0";"2";"1";"1";"2";"1";"1";"2014-10-14 12:03:43.794";"2014-10-14 12:23:56.174";"1";"0";"0";"176";"175";"module.devaluation_block1.exec-8858.deval1";"7388";"2014-10-14 12:21:59.253";"17";"6";"4";"5";"1758";"928";"1680";"2014-10-14 12:21:51.873";"2";;;;;;;;;;;;;;;;;;;;;;;;;;;;;;;;;;;;;;;;;;;;;;;;;;;;;;;;;;;;;;;;;;;;;;;;;;;;;;;;
"shazza_nana";"19/06/1992";;"Windows 7";"Rachel's Experiment (D.T.)";"1.0";"2";"1";"1";"2";"1";"1";"2014-10-14 12:03:43.794";"2014-10-14 12:23:56.174";"1";"0";"0";"177";"176";"module.devaluation_block1.exec-8858.deval1";"7412";"2014-10-14 12:22:06.695";"21";"9";"9";"9";"1604";"1371";"1410";"2014-10-14 12:21:59.269";"3";;;;;;;;;;;;;;;;;;;;;;;;;;;;;;;;;;;;;;;;;;;;;;;;;;;;;;;;;;;;;;;;;;;;;;;;;;;;;;;;
"shazza_nana";"19/06/1992";;"Windows 7";"Rachel's Experiment (D.T.)";"1.0";"2";"1";"1";"2";"1";"1";"2014-10-14 12:03:43.794";"2014-10-14 12:23:56.174";"1";"0";"0";"178";"177";"module.devaluation_block1.exec-8858.deval1";"7387";"2014-10-14 12:22:14.090";"6";"3";"4";"4";"954";"1790";"1608";"2014-10-14 12:22:06.711";"1";;;;;;;;;;;;;;;;;;;;;;;;;;;;;;;;;;;;;;;;;;;;;;;;;;;;;;;;;;;;;;;;;;;;;;;;;;;;;;;;
"shazza_nana";"19/06/1992";;"Windows 7";"Rachel's Experiment (D.T.)";"1.0";"2";"1";"1";"2";"1";"1";"2014-10-14 12:03:43.794";"2014-10-14 12:23:56.174";"1";"0";"0";"179";"178";"module.devaluation_block1.exec-8858.deval1";"8134";"2014-10-14 12:22:22.266";"7";"2";"3";"3";"1960";"1667";"1488";"2014-10-14 12:22:14.122";"1";;;;;;;;;;;;;;;;;;;;;;;;;;;;;;;;;;;;;;;;;;;;;;;;;;;;;;;;;;;;;;;;;;;;;;;;;;;;;;;;
"shazza_nana";"19/06/1992";;"Windows 7";"Rachel's Experiment (D.T.)";"1.0";"2";"1";"1";"2";"1";"1";"2014-10-14 12:03:43.794";"2014-10-14 12:23:56.174";"1";"0";"0";"180";"179";"module.devaluation_block1.exec-8858.deval1";"8636";"2014-10-14 12:22:30.909";"24";"6";"6";"7";"1497";"1462";"2637";"2014-10-14 12:22:22.281";"3";;;;;;;;;;;;;;;;;;;;;;;;;;;;;;;;;;;;;;;;;;;;;;;;;;;;;;;;;;;;;;;;;;;;;;;;;;;;;;;;
"shazza_nana";"19/06/1992";;"Windows 7";"Rachel's Experiment (D.T.)";"1.0";"2";"1";"1";"2";"1";"1";"2014-10-14 12:03:43.794";"2014-10-14 12:23:56.174";"1";"0";"0";"181";"180";"module.devaluation_block1.exec-8858.deval1";"8372";"2014-10-14 12:22:39.303";"20";"8";"8";"7";"1351";"1399";"2591";"2014-10-14 12:22:30.941";"3";;;;;;;;;;;;;;;;;;;;;;;;;;;;;;;;;;;;;;;;;;;;;;;;;;;;;;;;;;;;;;;;;;;;;;;;;;;;;;;;
"shazza_nana";"19/06/1992";;"Windows 7";"Rachel's Experiment (D.T.)";"1.0";"2";"1";"1";"2";"1";"1";"2014-10-14 12:03:43.794";"2014-10-14 12:23:56.174";"1";"0";"0";"182";"181";"module.devaluation_block1.exec-8858.deval1";"9506";"2014-10-14 12:22:48.836";"15";"4";"6";"5";"1110";"2331";"3024";"2014-10-14 12:22:39.334";"2";;;;;;;;;;;;;;;;;;;;;;;;;;;;;;;;;;;;;;;;;;;;;;;;;;;;;;;;;;;;;;;;;;;;;;;;;;;;;;;;
"shazza_nana";"19/06/1992";;"Windows 7";"Rachel's Experiment (D.T.)";"1.0";"2";"1";"1";"2";"1";"1";"2014-10-14 12:03:43.794";"2014-10-14 12:23:56.174";"1";"0";"0";"183";"182";"module.devaluation_block1.exec-8858.deval1";"9859";"2014-10-14 12:22:58.712";"18";"7";"9";"9";"1978";"1712";"3146";"2014-10-14 12:22:48.851";"3";;;;;;;;;;;;;;;;;;;;;;;;;;;;;;;;;;;;;;;;;;;;;;;;;;;;;;;;;;;;;;;;;;;;;;;;;;;;;;;;
"shazza_nana";"19/06/1992";;"Windows 7";"Rachel's Experiment (D.T.)";"1.0";"2";"1";"1";"2";"1";"1";"2014-10-14 12:03:43.794";"2014-10-14 12:23:56.174";"1";"0";"0";"184";"183";"module.devaluation_block1.exec-8858.deval1";"7660";"2014-10-14 12:23:06.404";"11";"2";"1";"1";"1336";"1639";"1663";"2014-10-14 12:22:58.743";"2";;;;;;;;;;;;;;;;;;;;;;;;;;;;;;;;;;;;;;;;;;;;;;;;;;;;;;;;;;;;;;;;;;;;;;;;;;;;;;;;
"shazza_nana";"19/06/1992";;"Windows 7";"Rachel's Experiment (D.T.)";"1.0";"2";"1";"1";"2";"1";"1";"2014-10-14 12:03:43.794";"2014-10-14 12:23:56.174";"1";"0";"0";"185";"184";"module.devaluation_block1.exec-8858.deval1";"8461";"2014-10-14 12:23:14.875";"3";"3";"5";"7";"1469";"1804";"2151";"2014-10-14 12:23:06.419";"1";;;;;;;;;;;;;;;;;;;;;;;;;;;;;;;;;;;;;;;;;;;;;;;;;;;;;;;;;;;;;;;;;;;;;;;;;;;;;;;;
"shazza_nana";"19/06/1992";;"Windows 7";"Rachel's Experiment (D.T.)";"1.0";"2";"1";"1";"2";"1";"1";"2014-10-14 12:03:43.794";"2014-10-14 12:23:56.174";"1";"0";"0";"186";"185";"module.devaluation_block1.exec-8858.deval1";"8978";"2014-10-14 12:23:23.878";"10";"1";"3";"2";"1438";"2161";"2344";"2014-10-14 12:23:14.907";"2";;;;;;;;;;;;;;;;;;;;;;;;;;;;;;;;;;;;;;;;;;;;;;;;;;;;;;;;;;;;;;;;;;;;;;;;;;;;;;;;
"shazza_nana";"19/06/1992";;"Windows 7";"Rachel's Experiment (D.T.)";"1.0";"2";"1";"1";"2";"1";"1";"2014-10-14 12:03:43.794";"2014-10-14 12:23:56.174";"1";"0";"0";"187";"186";"module.devaluation_block1.exec-8858.deval1";"7483";"2014-10-14 12:23:31.382";"23";"9";"9";"9";"1469";"1273";"1704";"2014-10-14 12:23:23.909";"3";;;;;;;;;;;;;;;;;;;;;;;;;;;;;;;;;;;;;;;;;;;;;;;;;;;;;;;;;;;;;;;;;;;;;;;;;;;;;;;;
"shazza_nana";"19/06/1992";;"Windows 7";"Rachel's Experiment (D.T.)";"1.0";"2";"1";"1";"2";"1";"1";"2014-10-14 12:03:43.794";"2014-10-14 12:23:56.174";"1";"0";"0";"188";"187";"module.devaluation_block1.exec-8858.deval1";"6916";"2014-10-14 12:23:38.325";"8";"5";"7";"6";"1413";"1017";"1454";"2014-10-14 12:23:31.413";"1";;;;;;;;;;;;;;;;;;;;;;;;;;;;;;;;;;;;;;;;;;;;;;;;;;;;;;;;;;;;;;;;;;;;;;;;;;;;;;;;
"shazza_nana";"19/06/1992";;"Windows 7";"Rachel's Experiment (D.T.)";"1.0";"2";"1";"1";"2";"1";"1";"2014-10-14 12:03:43.794";"2014-10-14 12:23:56.174";"1";"0";"0";"189";"188";"module.devaluation_block1.exec-8858.deval1";"7732";"2014-10-14 12:23:46.079";"2";"6";"9";"8";"1527";"1156";"2019";"2014-10-14 12:23:38.341";"1";;;;;;;;;;;;;;;;;;;;;;;;;;;;;;;;;;;;;;;;;;;;;;;;;;;;;;;;;;;;;;;;;;;;;;;;;;;;;;;;
"shazza_nana";"19/06/1992";;"Windows 7";"Rachel's Experiment (D.T.)";"1.0";"2";"1";"1";"2";"1";"1";"2014-10-14 12:03:43.794";"2014-10-14 12:23:56.174";"1";"0";"0";"190";"189";"module.devaluation_block1.exec-8858.deval1";"6763";"2014-10-14 12:23:52.866";"13";"5";"5";"5";"462";"1528";"1758";"2014-10-14 12:23:46.095";"2";;;;;;;;;;;;;;;;;;;;;;;;;;;;;;;;;;;;;;;;;;;;;;;;;;;;;;;;;;;;;;;;;;;;;;;;;;;;;;;;
