"user.name";"user.yearOfBirth";"user.sex";"user.osName";"module.name";"module.version";"module.online.subject.code";"module.online.study.id";"module.online.module.nr";"module.online.group.nr";"session.id";"session.index";"session.startTime";"session.endTime";"session.completed";"session.node-4529.DevalQorder";"session.node-8110.conditionType";"trial.id";"trial.index";"trial.name";"trial.deval1.durationTime";"trial.deval1.endTime";"trial.deval1.icon";"trial.deval1.Resp_Attractive";"trial.deval1.Resp_Eat";"trial.deval1.Resp_Taste";"trial.deval1.RT_Attractive";"trial.deval1.RT_Eat";"trial.deval1.RT_Taste";"trial.deval1.startTime";"trial.deval1.stimulus type";"trial.devalPractice.durationTime";"trial.devalPractice.endTime";"trial.devalPractice.icon";"trial.devalPractice.Resp_Attractive";"trial.devalPractice.Resp_Eat";"trial.devalPractice.Resp_Taste";"trial.devalPractice.RT_Attractive";"trial.devalPractice.RT_Eat";"trial.devalPractice.RT_Taste";"trial.devalPractice.startTime";"trial.devalPractice.stimulus type";"trial.GoNoGo1.durationTime";"trial.GoNoGo1.endTime";"trial.GoNoGo1.Error Type";"trial.GoNoGo1.icon";"trial.GoNoGo1.location";"trial.GoNoGo1.outcome";"trial.GoNoGo1.response";"trial.GoNoGo1.result";"trial.GoNoGo1.RT";"trial.GoNoGo1.signal";"trial.GoNoGo1.startTime";"trial.GoNoGo1.stimulus type";"trial.GoNoGo2.durationTime";"trial.GoNoGo2.endTime";"trial.GoNoGo2.Error Type";"trial.GoNoGo2.icon";"trial.GoNoGo2.location";"trial.GoNoGo2.outcome";"trial.GoNoGo2.response";"trial.GoNoGo2.result";"trial.GoNoGo2.RT";"trial.GoNoGo2.signal";"trial.GoNoGo2.startTime";"trial.GoNoGo2.stimulus type";"trial.GoNoGo3.durationTime";"trial.GoNoGo3.endTime";"trial.GoNoGo3.Error Type";"trial.GoNoGo3.icon";"trial.GoNoGo3.location";"trial.GoNoGo3.outcome";"trial.GoNoGo3.response";"trial.GoNoGo3.result";"trial.GoNoGo3.RT";"trial.GoNoGo3.signal";"trial.GoNoGo3.startTime";"trial.GoNoGo3.stimulus type";"trial.GoNoGo4.durationTime";"trial.GoNoGo4.endTime";"trial.GoNoGo4.Error Type";"trial.GoNoGo4.icon";"trial.GoNoGo4.location";"trial.GoNoGo4.outcome";"trial.GoNoGo4.response";"trial.GoNoGo4.result";"trial.GoNoGo4.RT";"trial.GoNoGo4.signal";"trial.GoNoGo4.startTime";"trial.GoNoGo4.stimulus type";"trial.GoNoGo_Practice.durationTime";"trial.GoNoGo_Practice.endTime";"trial.GoNoGo_Practice.icon";"trial.GoNoGo_Practice.location";"trial.GoNoGo_Practice.outcome";"trial.GoNoGo_Practice.response";"trial.GoNoGo_Practice.result";"trial.GoNoGo_Practice.RT";"trial.GoNoGo_Practice.signal";"trial.GoNoGo_Practice.startTime";"trial.GoNoGo_Practice.stimulus type";"trial.GoNoGo_Tutorial.durationTime";"trial.GoNoGo_Tutorial.endTime";"trial.GoNoGo_Tutorial.icon";"trial.GoNoGo_Tutorial.location";"trial.GoNoGo_Tutorial.outcome";"trial.GoNoGo_Tutorial.response";"trial.GoNoGo_Tutorial.result";"trial.GoNoGo_Tutorial.RT";"trial.GoNoGo_Tutorial.signal";"trial.GoNoGo_Tutorial.startTime"
"tettenhall1";;;"Windows 7";"Rachel's Experiment (D.T.)";"1.0";"2";"1";"1";"2";"1";"1";"2014-10-16 12:24:23.188";"2014-10-16 12:36:14.527";"1";"1";"0";"1";"0";"module.GoNoGotutorial.exec-4734.GoNoGo_Tutorial";;;;;;;;;;;;;;;;;;;;;;;;;;;;;;;;;;;;;;;;;;;;;;;;;;;;;;;;;;;;;;;;;;;;;;;;;;;;;;;;;;"3999";"2014-10-16 12:24:42.129";"leftResponse";"0";"FINISHED";"NONE";"failure";"0";"0";"2014-10-16 12:24:38.119"
"tettenhall1";;;"Windows 7";"Rachel's Experiment (D.T.)";"1.0";"2";"1";"1";"2";"1";"1";"2014-10-16 12:24:23.188";"2014-10-16 12:36:14.527";"1";"1";"0";"2";"1";"module.GoNoGotutorial.exec-4734.GoNoGo_Tutorial";;;;;;;;;;;;;;;;;;;;;;;;;;;;;;;;;;;;;;;;;;;;;;;;;;;;;;;;;;;;;;;;;;;;;;;;;;;;;;;;;;"4003";"2014-10-16 12:24:47.433";"rightResponse";"1";"FINISHED";"NONE";"failure";"0";"0";"2014-10-16 12:24:43.423"
"tettenhall1";;;"Windows 7";"Rachel's Experiment (D.T.)";"1.0";"2";"1";"1";"2";"1";"1";"2014-10-16 12:24:23.188";"2014-10-16 12:36:14.527";"1";"1";"0";"3";"2";"module.GoNoGotutorial.exec-4734.GoNoGo_Tutorial";;;;;;;;;;;;;;;;;;;;;;;;;;;;;;;;;;;;;;;;;;;;;;;;;;;;;;;;;;;;;;;;;;;;;;;;;;;;;;;;;;"4003";"2014-10-16 12:24:52.738";"quickResponse";"0";"FINISHED";"NONE";"failure";"0";"0";"2014-10-16 12:24:48.728"
"tettenhall1";;;"Windows 7";"Rachel's Experiment (D.T.)";"1.0";"2";"1";"1";"2";"1";"1";"2014-10-16 12:24:23.188";"2014-10-16 12:36:14.527";"1";"1";"0";"4";"3";"module.GoNoGopractice.exec-5486.GoNoGo_Practice";;;;;;;;;;;;;;;;;;;;;;;;;;;;;;;;;;;;;;;;;;;;;;;;;;;;;;;;;;;;;;;;;;;;;;;"1959";"2014-10-16 12:24:59.696";"18";"0";"FINISHED";"LEFT";"success";"424";"0";"2014-10-16 12:24:57.730";"3";;;;;;;;;;
"tettenhall1";;;"Windows 7";"Rachel's Experiment (D.T.)";"1.0";"2";"1";"1";"2";"1";"1";"2014-10-16 12:24:23.188";"2014-10-16 12:36:14.527";"1";"1";"0";"5";"4";"module.GoNoGopractice.exec-5486.GoNoGo_Practice";;;;;;;;;;;;;;;;;;;;;;;;;;;;;;;;;;;;;;;;;;;;;;;;;;;;;;;;;;;;;;;;;;;;;;;"1954";"2014-10-16 12:25:02.941";"21";"1";"FINISHED";"RIGHT";"success";"374";"0";"2014-10-16 12:25:00.975";"3";;;;;;;;;;
"tettenhall1";;;"Windows 7";"Rachel's Experiment (D.T.)";"1.0";"2";"1";"1";"2";"1";"1";"2014-10-16 12:24:23.188";"2014-10-16 12:36:14.527";"1";"1";"0";"6";"5";"module.GoNoGopractice.exec-5486.GoNoGo_Practice";;;;;;;;;;;;;;;;;;;;;;;;;;;;;;;;;;;;;;;;;;;;;;;;;;;;;;;;;;;;;;;;;;;;;;;"1959";"2014-10-16 12:25:06.186";"14";"1";"FINISHED";"RIGHT";"success";"423";"0";"2014-10-16 12:25:04.220";"2";;;;;;;;;;
"tettenhall1";;;"Windows 7";"Rachel's Experiment (D.T.)";"1.0";"2";"1";"1";"2";"1";"1";"2014-10-16 12:24:23.188";"2014-10-16 12:36:14.527";"1";"1";"0";"7";"6";"module.GoNoGopractice.exec-5486.GoNoGo_Practice";;;;;;;;;;;;;;;;;;;;;;;;;;;;;;;;;;;;;;;;;;;;;;;;;;;;;;;;;;;;;;;;;;;;;;;"1959";"2014-10-16 12:25:09.431";"26";"0";"FINISHED";"LEFT";"success";"282";"0";"2014-10-16 12:25:07.465";"3";;;;;;;;;;
"tettenhall1";;;"Windows 7";"Rachel's Experiment (D.T.)";"1.0";"2";"1";"1";"2";"1";"1";"2014-10-16 12:24:23.188";"2014-10-16 12:36:14.527";"1";"1";"0";"8";"7";"module.GoNoGopractice.exec-5486.GoNoGo_Practice";;;;;;;;;;;;;;;;;;;;;;;;;;;;;;;;;;;;;;;;;;;;;;;;;;;;;;;;;;;;;;;;;;;;;;;"1959";"2014-10-16 12:25:12.676";"2";"0";"FINISHED";"LEFT";"success";"333";"0";"2014-10-16 12:25:10.710";"1";;;;;;;;;;
"tettenhall1";;;"Windows 7";"Rachel's Experiment (D.T.)";"1.0";"2";"1";"1";"2";"1";"1";"2014-10-16 12:24:23.188";"2014-10-16 12:36:14.527";"1";"1";"0";"9";"8";"module.GoNoGopractice.exec-5486.GoNoGo_Practice";;;;;;;;;;;;;;;;;;;;;;;;;;;;;;;;;;;;;;;;;;;;;;;;;;;;;;;;;;;;;;;;;;;;;;;"1960";"2014-10-16 12:25:15.921";"30";"0";"FINISHED";"LEFT";"success";"473";"0";"2014-10-16 12:25:13.956";"3";;;;;;;;;;
"tettenhall1";;;"Windows 7";"Rachel's Experiment (D.T.)";"1.0";"2";"1";"1";"2";"1";"1";"2014-10-16 12:24:23.188";"2014-10-16 12:36:14.527";"1";"1";"0";"10";"9";"module.GoNoGopractice.exec-5486.GoNoGo_Practice";;;;;;;;;;;;;;;;;;;;;;;;;;;;;;;;;;;;;;;;;;;;;;;;;;;;;;;;;;;;;;;;;;;;;;;"1959";"2014-10-16 12:25:19.167";"6";"1";"FINISHED";"RIGHT";"success";"388";"0";"2014-10-16 12:25:17.201";"1";;;;;;;;;;
"tettenhall1";;;"Windows 7";"Rachel's Experiment (D.T.)";"1.0";"2";"1";"1";"2";"1";"1";"2014-10-16 12:24:23.188";"2014-10-16 12:36:14.527";"1";"1";"0";"11";"10";"module.GoNoGopractice.exec-5486.GoNoGo_Practice";;;;;;;;;;;;;;;;;;;;;;;;;;;;;;;;;;;;;;;;;;;;;;;;;;;;;;;;;;;;;;;;;;;;;;;"1960";"2014-10-16 12:25:22.412";"34";"0";"FINISHED";"LEFT";"success";"328";"0";"2014-10-16 12:25:20.446";"3";;;;;;;;;;
"tettenhall1";;;"Windows 7";"Rachel's Experiment (D.T.)";"1.0";"2";"1";"1";"2";"1";"1";"2014-10-16 12:24:23.188";"2014-10-16 12:36:14.527";"1";"1";"0";"12";"11";"module.GoNoGopractice.exec-5486.GoNoGo_Practice";;;;;;;;;;;;;;;;;;;;;;;;;;;;;;;;;;;;;;;;;;;;;;;;;;;;;;;;;;;;;;;;;;;;;;;"1959";"2014-10-16 12:25:25.657";"23";"1";"FINISHED";"RIGHT";"success";"370";"0";"2014-10-16 12:25:23.691";"3";;;;;;;;;;
"tettenhall1";;;"Windows 7";"Rachel's Experiment (D.T.)";"1.0";"2";"1";"1";"2";"1";"1";"2014-10-16 12:24:23.188";"2014-10-16 12:36:14.527";"1";"1";"0";"13";"12";"module.GoNoGopractice.exec-5486.GoNoGo_Practice";;;;;;;;;;;;;;;;;;;;;;;;;;;;;;;;;;;;;;;;;;;;;;;;;;;;;;;;;;;;;;;;;;;;;;;"1958";"2014-10-16 12:25:28.902";"13";"0";"FINISHED";"LEFT";"success";"324";"0";"2014-10-16 12:25:26.936";"2";;;;;;;;;;
"tettenhall1";;;"Windows 7";"Rachel's Experiment (D.T.)";"1.0";"2";"1";"1";"2";"1";"1";"2014-10-16 12:24:23.188";"2014-10-16 12:36:14.527";"1";"1";"0";"14";"13";"module.GoNoGopractice.exec-5486.GoNoGo_Practice";;;;;;;;;;;;;;;;;;;;;;;;;;;;;;;;;;;;;;;;;;;;;;;;;;;;;;;;;;;;;;;;;;;;;;;"1960";"2014-10-16 12:25:32.147";"3";"1";"FINISHED";"RIGHT";"success";"625";"0";"2014-10-16 12:25:30.181";"1";;;;;;;;;;
"tettenhall1";;;"Windows 7";"Rachel's Experiment (D.T.)";"1.0";"2";"1";"1";"2";"1";"1";"2014-10-16 12:24:23.188";"2014-10-16 12:36:14.527";"1";"1";"0";"15";"14";"module.GoNoGopractice.exec-5486.GoNoGo_Practice";;;;;;;;;;;;;;;;;;;;;;;;;;;;;;;;;;;;;;;;;;;;;;;;;;;;;;;;;;;;;;;;;;;;;;;"1958";"2014-10-16 12:25:35.501";"27";"1";"FINISHED";"RIGHT";"success";"517";"0";"2014-10-16 12:25:33.535";"3";;;;;;;;;;
"tettenhall1";;;"Windows 7";"Rachel's Experiment (D.T.)";"1.0";"2";"1";"1";"2";"1";"1";"2014-10-16 12:24:23.188";"2014-10-16 12:36:14.527";"1";"1";"0";"16";"15";"module.training_block1.exec-6440.GoNoGo1";;;;;;;;;;;;;;;;;;;;;;;"1257";"2014-10-16 12:25:42.116";"NST_correctLoc";"29";"0";"FINISHED";"LEFT";"success";"529";"0";"2014-10-16 12:25:40.853";"3";;;;;;;;;;;;;;;;;;;;;;;;;;;;;;;;;;;;;;;;;;;;;;;;;;;;;;;;;
"tettenhall1";;;"Windows 7";"Rachel's Experiment (D.T.)";"1.0";"2";"1";"1";"2";"1";"1";"2014-10-16 12:24:23.188";"2014-10-16 12:36:14.527";"1";"1";"0";"17";"16";"module.training_block1.exec-6440.GoNoGo1";;;;;;;;;;;;;;;;;;;;;;;"1258";"2014-10-16 12:25:44.659";"NST_correctLoc";"35";"0";"FINISHED";"LEFT";"success";"316";"0";"2014-10-16 12:25:43.396";"3";;;;;;;;;;;;;;;;;;;;;;;;;;;;;;;;;;;;;;;;;;;;;;;;;;;;;;;;;
"tettenhall1";;;"Windows 7";"Rachel's Experiment (D.T.)";"1.0";"2";"1";"1";"2";"1";"1";"2014-10-16 12:24:23.188";"2014-10-16 12:36:14.527";"1";"1";"0";"18";"17";"module.training_block1.exec-6440.GoNoGo1";;;;;;;;;;;;;;;;;;;;;;;"1258";"2014-10-16 12:25:47.202";"NST_correctLoc";"25";"0";"FINISHED";"LEFT";"success";"325";"0";"2014-10-16 12:25:45.939";"3";;;;;;;;;;;;;;;;;;;;;;;;;;;;;;;;;;;;;;;;;;;;;;;;;;;;;;;;;
"tettenhall1";;;"Windows 7";"Rachel's Experiment (D.T.)";"1.0";"2";"1";"1";"2";"1";"1";"2014-10-16 12:24:23.188";"2014-10-16 12:36:14.527";"1";"1";"0";"19";"18";"module.training_block1.exec-6440.GoNoGo1";;;;;;;;;;;;;;;;;;;;;;;"1257";"2014-10-16 12:25:49.745";"NST_correctLoc";"13";"1";"FINISHED";"RIGHT";"success";"382";"0";"2014-10-16 12:25:48.482";"2";;;;;;;;;;;;;;;;;;;;;;;;;;;;;;;;;;;;;;;;;;;;;;;;;;;;;;;;;
"tettenhall1";;;"Windows 7";"Rachel's Experiment (D.T.)";"1.0";"2";"1";"1";"2";"1";"1";"2014-10-16 12:24:23.188";"2014-10-16 12:36:14.527";"1";"1";"0";"20";"19";"module.training_block1.exec-6440.GoNoGo1";;;;;;;;;;;;;;;;;;;;;;;"1258";"2014-10-16 12:25:52.288";"NST_correctLoc";"33";"1";"FINISHED";"RIGHT";"success";"343";"0";"2014-10-16 12:25:51.025";"3";;;;;;;;;;;;;;;;;;;;;;;;;;;;;;;;;;;;;;;;;;;;;;;;;;;;;;;;;
"tettenhall1";;;"Windows 7";"Rachel's Experiment (D.T.)";"1.0";"2";"1";"1";"2";"1";"1";"2014-10-16 12:24:23.188";"2014-10-16 12:36:14.527";"1";"1";"0";"21";"20";"module.training_block1.exec-6440.GoNoGo1";;;;;;;;;;;;;;;;;;;;;;;"1258";"2014-10-16 12:25:54.832";"NST_correctLoc";"20";"0";"FINISHED";"LEFT";"success";"312";"0";"2014-10-16 12:25:53.568";"3";;;;;;;;;;;;;;;;;;;;;;;;;;;;;;;;;;;;;;;;;;;;;;;;;;;;;;;;;
"tettenhall1";;;"Windows 7";"Rachel's Experiment (D.T.)";"1.0";"2";"1";"1";"2";"1";"1";"2014-10-16 12:24:23.188";"2014-10-16 12:36:14.527";"1";"1";"0";"22";"21";"module.training_block1.exec-6440.GoNoGo1";;;;;;;;;;;;;;;;;;;;;;;"1258";"2014-10-16 12:25:57.375";"NST_correctLoc";"31";"1";"FINISHED";"RIGHT";"success";"337";"0";"2014-10-16 12:25:56.111";"3";;;;;;;;;;;;;;;;;;;;;;;;;;;;;;;;;;;;;;;;;;;;;;;;;;;;;;;;;
"tettenhall1";;;"Windows 7";"Rachel's Experiment (D.T.)";"1.0";"2";"1";"1";"2";"1";"1";"2014-10-16 12:24:23.188";"2014-10-16 12:36:14.527";"1";"1";"0";"23";"22";"module.training_block1.exec-6440.GoNoGo1";;;;;;;;;;;;;;;;;;;;;;;"1257";"2014-10-16 12:25:59.918";"NST_correctLoc";"30";"1";"FINISHED";"RIGHT";"success";"338";"0";"2014-10-16 12:25:58.654";"3";;;;;;;;;;;;;;;;;;;;;;;;;;;;;;;;;;;;;;;;;;;;;;;;;;;;;;;;;
"tettenhall1";;;"Windows 7";"Rachel's Experiment (D.T.)";"1.0";"2";"1";"1";"2";"1";"1";"2014-10-16 12:24:23.188";"2014-10-16 12:36:14.527";"1";"1";"0";"24";"23";"module.training_block1.exec-6440.GoNoGo1";;;;;;;;;;;;;;;;;;;;;;;"1257";"2014-10-16 12:26:02.461";"NST_correctLoc";"17";"0";"FINISHED";"LEFT";"success";"315";"0";"2014-10-16 12:26:01.197";"2";;;;;;;;;;;;;;;;;;;;;;;;;;;;;;;;;;;;;;;;;;;;;;;;;;;;;;;;;
"tettenhall1";;;"Windows 7";"Rachel's Experiment (D.T.)";"1.0";"2";"1";"1";"2";"1";"1";"2014-10-16 12:24:23.188";"2014-10-16 12:36:14.527";"1";"1";"0";"25";"24";"module.training_block1.exec-6440.GoNoGo1";;;;;;;;;;;;;;;;;;;;;;;"1258";"2014-10-16 12:26:05.004";"NST_correctLoc";"5";"0";"FINISHED";"LEFT";"success";"357";"0";"2014-10-16 12:26:03.740";"1";;;;;;;;;;;;;;;;;;;;;;;;;;;;;;;;;;;;;;;;;;;;;;;;;;;;;;;;;
"tettenhall1";;;"Windows 7";"Rachel's Experiment (D.T.)";"1.0";"2";"1";"1";"2";"1";"1";"2014-10-16 12:24:23.188";"2014-10-16 12:36:14.527";"1";"1";"0";"26";"25";"module.training_block1.exec-6440.GoNoGo1";;;;;;;;;;;;;;;;;;;;;;;"1258";"2014-10-16 12:26:07.547";"NST_correctLoc";"28";"0";"FINISHED";"LEFT";"success";"310";"0";"2014-10-16 12:26:06.283";"3";;;;;;;;;;;;;;;;;;;;;;;;;;;;;;;;;;;;;;;;;;;;;;;;;;;;;;;;;
"tettenhall1";;;"Windows 7";"Rachel's Experiment (D.T.)";"1.0";"2";"1";"1";"2";"1";"1";"2014-10-16 12:24:23.188";"2014-10-16 12:36:14.527";"1";"1";"0";"27";"26";"module.training_block1.exec-6440.GoNoGo1";;;;;;;;;;;;;;;;;;;;;;;"1258";"2014-10-16 12:26:10.090";"NST_correctLoc";"18";"1";"FINISHED";"RIGHT";"success";"367";"0";"2014-10-16 12:26:08.826";"3";;;;;;;;;;;;;;;;;;;;;;;;;;;;;;;;;;;;;;;;;;;;;;;;;;;;;;;;;
"tettenhall1";;;"Windows 7";"Rachel's Experiment (D.T.)";"1.0";"2";"1";"1";"2";"1";"1";"2014-10-16 12:24:23.188";"2014-10-16 12:36:14.527";"1";"1";"0";"28";"27";"module.training_block1.exec-6440.GoNoGo1";;;;;;;;;;;;;;;;;;;;;;;"1257";"2014-10-16 12:26:12.633";"NST_correctLoc";"23";"0";"FINISHED";"LEFT";"success";"272";"0";"2014-10-16 12:26:11.369";"3";;;;;;;;;;;;;;;;;;;;;;;;;;;;;;;;;;;;;;;;;;;;;;;;;;;;;;;;;
"tettenhall1";;;"Windows 7";"Rachel's Experiment (D.T.)";"1.0";"2";"1";"1";"2";"1";"1";"2014-10-16 12:24:23.188";"2014-10-16 12:36:14.527";"1";"1";"0";"29";"28";"module.training_block1.exec-6440.GoNoGo1";;;;;;;;;;;;;;;;;;;;;;;"1253";"2014-10-16 12:26:15.176";"NST_correctLoc";"24";"0";"FINISHED";"LEFT";"success";"301";"0";"2014-10-16 12:26:13.912";"3";;;;;;;;;;;;;;;;;;;;;;;;;;;;;;;;;;;;;;;;;;;;;;;;;;;;;;;;;
"tettenhall1";;;"Windows 7";"Rachel's Experiment (D.T.)";"1.0";"2";"1";"1";"2";"1";"1";"2014-10-16 12:24:23.188";"2014-10-16 12:36:14.527";"1";"1";"0";"30";"29";"module.training_block1.exec-6440.GoNoGo1";;;;;;;;;;;;;;;;;;;;;;;"1258";"2014-10-16 12:26:17.719";"NST_correctLoc";"0";"0";"FINISHED";"LEFT";"success";"475";"0";"2014-10-16 12:26:16.455";"1";;;;;;;;;;;;;;;;;;;;;;;;;;;;;;;;;;;;;;;;;;;;;;;;;;;;;;;;;
"tettenhall1";;;"Windows 7";"Rachel's Experiment (D.T.)";"1.0";"2";"1";"1";"2";"1";"1";"2014-10-16 12:24:23.188";"2014-10-16 12:36:14.527";"1";"1";"0";"31";"30";"module.training_block1.exec-6440.GoNoGo1";;;;;;;;;;;;;;;;;;;;;;;"1257";"2014-10-16 12:26:20.262";"NST_correctLoc";"32";"1";"FINISHED";"RIGHT";"success";"604";"0";"2014-10-16 12:26:18.998";"3";;;;;;;;;;;;;;;;;;;;;;;;;;;;;;;;;;;;;;;;;;;;;;;;;;;;;;;;;
"tettenhall1";;;"Windows 7";"Rachel's Experiment (D.T.)";"1.0";"2";"1";"1";"2";"1";"1";"2014-10-16 12:24:23.188";"2014-10-16 12:36:14.527";"1";"1";"0";"32";"31";"module.training_block1.exec-6440.GoNoGo1";;;;;;;;;;;;;;;;;;;;;;;"1258";"2014-10-16 12:26:22.805";"NST_correctLoc";"3";"0";"FINISHED";"LEFT";"success";"350";"0";"2014-10-16 12:26:21.541";"1";;;;;;;;;;;;;;;;;;;;;;;;;;;;;;;;;;;;;;;;;;;;;;;;;;;;;;;;;
"tettenhall1";;;"Windows 7";"Rachel's Experiment (D.T.)";"1.0";"2";"1";"1";"2";"1";"1";"2014-10-16 12:24:23.188";"2014-10-16 12:36:14.527";"1";"1";"0";"33";"32";"module.training_block1.exec-6440.GoNoGo1";;;;;;;;;;;;;;;;;;;;;;;"1257";"2014-10-16 12:26:25.348";"NST_correctLoc";"21";"0";"FINISHED";"LEFT";"success";"334";"0";"2014-10-16 12:26:24.084";"3";;;;;;;;;;;;;;;;;;;;;;;;;;;;;;;;;;;;;;;;;;;;;;;;;;;;;;;;;
"tettenhall1";;;"Windows 7";"Rachel's Experiment (D.T.)";"1.0";"2";"1";"1";"2";"1";"1";"2014-10-16 12:24:23.188";"2014-10-16 12:36:14.527";"1";"1";"0";"34";"33";"module.training_block1.exec-6440.GoNoGo1";;;;;;;;;;;;;;;;;;;;;;;"1258";"2014-10-16 12:26:27.891";"NST_correctLoc";"19";"0";"FINISHED";"LEFT";"success";"368";"0";"2014-10-16 12:26:26.627";"3";;;;;;;;;;;;;;;;;;;;;;;;;;;;;;;;;;;;;;;;;;;;;;;;;;;;;;;;;
"tettenhall1";;;"Windows 7";"Rachel's Experiment (D.T.)";"1.0";"2";"1";"1";"2";"1";"1";"2014-10-16 12:24:23.188";"2014-10-16 12:36:14.527";"1";"1";"0";"35";"34";"module.training_block1.exec-6440.GoNoGo1";;;;;;;;;;;;;;;;;;;;;;;"1257";"2014-10-16 12:26:30.434";"NST_correctLoc";"6";"0";"FINISHED";"LEFT";"success";"336";"0";"2014-10-16 12:26:29.170";"1";;;;;;;;;;;;;;;;;;;;;;;;;;;;;;;;;;;;;;;;;;;;;;;;;;;;;;;;;
"tettenhall1";;;"Windows 7";"Rachel's Experiment (D.T.)";"1.0";"2";"1";"1";"2";"1";"1";"2014-10-16 12:24:23.188";"2014-10-16 12:36:14.527";"1";"1";"0";"36";"35";"module.training_block1.exec-6440.GoNoGo1";;;;;;;;;;;;;;;;;;;;;;;"1258";"2014-10-16 12:26:32.977";"NST_correctLoc";"16";"0";"FINISHED";"LEFT";"success";"362";"0";"2014-10-16 12:26:31.713";"2";;;;;;;;;;;;;;;;;;;;;;;;;;;;;;;;;;;;;;;;;;;;;;;;;;;;;;;;;
"tettenhall1";;;"Windows 7";"Rachel's Experiment (D.T.)";"1.0";"2";"1";"1";"2";"1";"1";"2014-10-16 12:24:23.188";"2014-10-16 12:36:14.527";"1";"1";"0";"37";"36";"module.training_block1.exec-6440.GoNoGo1";;;;;;;;;;;;;;;;;;;;;;;"1257";"2014-10-16 12:26:35.520";"NST_correctLoc";"10";"0";"FINISHED";"LEFT";"success";"363";"0";"2014-10-16 12:26:34.256";"2";;;;;;;;;;;;;;;;;;;;;;;;;;;;;;;;;;;;;;;;;;;;;;;;;;;;;;;;;
"tettenhall1";;;"Windows 7";"Rachel's Experiment (D.T.)";"1.0";"2";"1";"1";"2";"1";"1";"2014-10-16 12:24:23.188";"2014-10-16 12:36:14.527";"1";"1";"0";"38";"37";"module.training_block1.exec-6440.GoNoGo1";;;;;;;;;;;;;;;;;;;;;;;"1257";"2014-10-16 12:26:38.063";"NST_correctLoc";"7";"0";"FINISHED";"LEFT";"success";"332";"0";"2014-10-16 12:26:36.799";"1";;;;;;;;;;;;;;;;;;;;;;;;;;;;;;;;;;;;;;;;;;;;;;;;;;;;;;;;;
"tettenhall1";;;"Windows 7";"Rachel's Experiment (D.T.)";"1.0";"2";"1";"1";"2";"1";"1";"2014-10-16 12:24:23.188";"2014-10-16 12:36:14.527";"1";"1";"0";"39";"38";"module.training_block1.exec-6440.GoNoGo1";;;;;;;;;;;;;;;;;;;;;;;"1257";"2014-10-16 12:26:40.606";"NST_correctLoc";"2";"1";"FINISHED";"RIGHT";"success";"405";"0";"2014-10-16 12:26:39.342";"1";;;;;;;;;;;;;;;;;;;;;;;;;;;;;;;;;;;;;;;;;;;;;;;;;;;;;;;;;
"tettenhall1";;;"Windows 7";"Rachel's Experiment (D.T.)";"1.0";"2";"1";"1";"2";"1";"1";"2014-10-16 12:24:23.188";"2014-10-16 12:36:14.527";"1";"1";"0";"40";"39";"module.training_block1.exec-6440.GoNoGo1";;;;;;;;;;;;;;;;;;;;;;;"1258";"2014-10-16 12:26:43.149";"NST_correctLoc";"9";"0";"FINISHED";"LEFT";"success";"286";"0";"2014-10-16 12:26:41.885";"2";;;;;;;;;;;;;;;;;;;;;;;;;;;;;;;;;;;;;;;;;;;;;;;;;;;;;;;;;
"tettenhall1";;;"Windows 7";"Rachel's Experiment (D.T.)";"1.0";"2";"1";"1";"2";"1";"1";"2014-10-16 12:24:23.188";"2014-10-16 12:36:14.527";"1";"1";"0";"41";"40";"module.training_block1.exec-6440.GoNoGo1";;;;;;;;;;;;;;;;;;;;;;;"1257";"2014-10-16 12:26:45.692";"NST_correctLoc";"4";"1";"FINISHED";"RIGHT";"success";"375";"0";"2014-10-16 12:26:44.428";"1";;;;;;;;;;;;;;;;;;;;;;;;;;;;;;;;;;;;;;;;;;;;;;;;;;;;;;;;;
"tettenhall1";;;"Windows 7";"Rachel's Experiment (D.T.)";"1.0";"2";"1";"1";"2";"1";"1";"2014-10-16 12:24:23.188";"2014-10-16 12:36:14.527";"1";"1";"0";"42";"41";"module.training_block1.exec-6440.GoNoGo1";;;;;;;;;;;;;;;;;;;;;;;"1257";"2014-10-16 12:26:48.235";"NST_correctLoc";"15";"0";"FINISHED";"LEFT";"success";"297";"0";"2014-10-16 12:26:46.971";"2";;;;;;;;;;;;;;;;;;;;;;;;;;;;;;;;;;;;;;;;;;;;;;;;;;;;;;;;;
"tettenhall1";;;"Windows 7";"Rachel's Experiment (D.T.)";"1.0";"2";"1";"1";"2";"1";"1";"2014-10-16 12:24:23.188";"2014-10-16 12:36:14.527";"1";"1";"0";"43";"42";"module.training_block1.exec-6440.GoNoGo1";;;;;;;;;;;;;;;;;;;;;;;"1258";"2014-10-16 12:26:50.778";"NST_correctLoc";"34";"1";"FINISHED";"RIGHT";"success";"379";"0";"2014-10-16 12:26:49.514";"3";;;;;;;;;;;;;;;;;;;;;;;;;;;;;;;;;;;;;;;;;;;;;;;;;;;;;;;;;
"tettenhall1";;;"Windows 7";"Rachel's Experiment (D.T.)";"1.0";"2";"1";"1";"2";"1";"1";"2014-10-16 12:24:23.188";"2014-10-16 12:36:14.527";"1";"1";"0";"44";"43";"module.training_block1.exec-6440.GoNoGo1";;;;;;;;;;;;;;;;;;;;;;;"1253";"2014-10-16 12:26:53.321";"NST_correctLoc";"11";"1";"FINISHED";"RIGHT";"success";"319";"0";"2014-10-16 12:26:52.057";"2";;;;;;;;;;;;;;;;;;;;;;;;;;;;;;;;;;;;;;;;;;;;;;;;;;;;;;;;;
"tettenhall1";;;"Windows 7";"Rachel's Experiment (D.T.)";"1.0";"2";"1";"1";"2";"1";"1";"2014-10-16 12:24:23.188";"2014-10-16 12:36:14.527";"1";"1";"0";"45";"44";"module.training_block1.exec-6440.GoNoGo1";;;;;;;;;;;;;;;;;;;;;;;"1258";"2014-10-16 12:26:55.864";"NST_correctLoc";"12";"1";"FINISHED";"RIGHT";"success";"325";"0";"2014-10-16 12:26:54.600";"2";;;;;;;;;;;;;;;;;;;;;;;;;;;;;;;;;;;;;;;;;;;;;;;;;;;;;;;;;
"tettenhall1";;;"Windows 7";"Rachel's Experiment (D.T.)";"1.0";"2";"1";"1";"2";"1";"1";"2014-10-16 12:24:23.188";"2014-10-16 12:36:14.527";"1";"1";"0";"46";"45";"module.training_block1.exec-6440.GoNoGo1";;;;;;;;;;;;;;;;;;;;;;;"1258";"2014-10-16 12:26:58.407";"NST_correctLoc";"22";"0";"FINISHED";"LEFT";"success";"358";"0";"2014-10-16 12:26:57.143";"3";;;;;;;;;;;;;;;;;;;;;;;;;;;;;;;;;;;;;;;;;;;;;;;;;;;;;;;;;
"tettenhall1";;;"Windows 7";"Rachel's Experiment (D.T.)";"1.0";"2";"1";"1";"2";"1";"1";"2014-10-16 12:24:23.188";"2014-10-16 12:36:14.527";"1";"1";"0";"47";"46";"module.training_block1.exec-6440.GoNoGo1";;;;;;;;;;;;;;;;;;;;;;;"1257";"2014-10-16 12:27:00.950";"NST_correctLoc";"14";"0";"FINISHED";"LEFT";"success";"470";"0";"2014-10-16 12:26:59.686";"2";;;;;;;;;;;;;;;;;;;;;;;;;;;;;;;;;;;;;;;;;;;;;;;;;;;;;;;;;
"tettenhall1";;;"Windows 7";"Rachel's Experiment (D.T.)";"1.0";"2";"1";"1";"2";"1";"1";"2014-10-16 12:24:23.188";"2014-10-16 12:36:14.527";"1";"1";"0";"48";"47";"module.training_block1.exec-6440.GoNoGo1";;;;;;;;;;;;;;;;;;;;;;;"1257";"2014-10-16 12:27:03.493";"NST_correctLoc";"8";"0";"FINISHED";"LEFT";"success";"376";"0";"2014-10-16 12:27:02.229";"1";;;;;;;;;;;;;;;;;;;;;;;;;;;;;;;;;;;;;;;;;;;;;;;;;;;;;;;;;
"tettenhall1";;;"Windows 7";"Rachel's Experiment (D.T.)";"1.0";"2";"1";"1";"2";"1";"1";"2014-10-16 12:24:23.188";"2014-10-16 12:36:14.527";"1";"1";"0";"49";"48";"module.training_block1.exec-6440.GoNoGo1";;;;;;;;;;;;;;;;;;;;;;;"1261";"2014-10-16 12:27:06.036";"NST_correctLoc";"27";"0";"FINISHED";"LEFT";"success";"597";"0";"2014-10-16 12:27:04.772";"3";;;;;;;;;;;;;;;;;;;;;;;;;;;;;;;;;;;;;;;;;;;;;;;;;;;;;;;;;
"tettenhall1";;;"Windows 7";"Rachel's Experiment (D.T.)";"1.0";"2";"1";"1";"2";"1";"1";"2014-10-16 12:24:23.188";"2014-10-16 12:36:14.527";"1";"1";"0";"50";"49";"module.training_block1.exec-6440.GoNoGo1";;;;;;;;;;;;;;;;;;;;;;;"1258";"2014-10-16 12:27:08.579";"NST_correctLoc";"1";"1";"FINISHED";"RIGHT";"success";"763";"0";"2014-10-16 12:27:07.315";"1";;;;;;;;;;;;;;;;;;;;;;;;;;;;;;;;;;;;;;;;;;;;;;;;;;;;;;;;;
"tettenhall1";;;"Windows 7";"Rachel's Experiment (D.T.)";"1.0";"2";"1";"1";"2";"1";"1";"2014-10-16 12:24:23.188";"2014-10-16 12:36:14.527";"1";"1";"0";"51";"50";"module.training_block1.exec-6440.GoNoGo1";;;;;;;;;;;;;;;;;;;;;;;"1257";"2014-10-16 12:27:11.122";"NST_correctLoc";"26";"0";"FINISHED";"LEFT";"success";"347";"0";"2014-10-16 12:27:09.858";"3";;;;;;;;;;;;;;;;;;;;;;;;;;;;;;;;;;;;;;;;;;;;;;;;;;;;;;;;;
"tettenhall1";;;"Windows 7";"Rachel's Experiment (D.T.)";"1.0";"2";"1";"1";"2";"1";"1";"2014-10-16 12:24:23.188";"2014-10-16 12:36:14.527";"1";"1";"0";"52";"51";"module.training_block2.exec-6604.GoNoGo2";;;;;;;;;;;;;;;;;;;;;;;;;;;;;;;;;;;"1261";"2014-10-16 12:27:22.557";"NST_correctLoc";"19";"0";"FINISHED";"LEFT";"success";"436";"0";"2014-10-16 12:27:21.294";"3";;;;;;;;;;;;;;;;;;;;;;;;;;;;;;;;;;;;;;;;;;;;;
"tettenhall1";;;"Windows 7";"Rachel's Experiment (D.T.)";"1.0";"2";"1";"1";"2";"1";"1";"2014-10-16 12:24:23.188";"2014-10-16 12:36:14.527";"1";"1";"0";"53";"52";"module.training_block2.exec-6604.GoNoGo2";;;;;;;;;;;;;;;;;;;;;;;;;;;;;;;;;;;"1261";"2014-10-16 12:27:25.100";"NST_correctLoc";"6";"1";"FINISHED";"RIGHT";"success";"381";"0";"2014-10-16 12:27:23.837";"1";;;;;;;;;;;;;;;;;;;;;;;;;;;;;;;;;;;;;;;;;;;;;
"tettenhall1";;;"Windows 7";"Rachel's Experiment (D.T.)";"1.0";"2";"1";"1";"2";"1";"1";"2014-10-16 12:24:23.188";"2014-10-16 12:36:14.527";"1";"1";"0";"54";"53";"module.training_block2.exec-6604.GoNoGo2";;;;;;;;;;;;;;;;;;;;;;;;;;;;;;;;;;;"1261";"2014-10-16 12:27:27.643";"NST_correctLoc";"2";"0";"FINISHED";"LEFT";"success";"287";"0";"2014-10-16 12:27:26.380";"1";;;;;;;;;;;;;;;;;;;;;;;;;;;;;;;;;;;;;;;;;;;;;
"tettenhall1";;;"Windows 7";"Rachel's Experiment (D.T.)";"1.0";"2";"1";"1";"2";"1";"1";"2014-10-16 12:24:23.188";"2014-10-16 12:36:14.527";"1";"1";"0";"55";"54";"module.training_block2.exec-6604.GoNoGo2";;;;;;;;;;;;;;;;;;;;;;;;;;;;;;;;;;;"1261";"2014-10-16 12:27:30.186";"NST_correctLoc";"26";"1";"FINISHED";"RIGHT";"success";"368";"0";"2014-10-16 12:27:28.923";"3";;;;;;;;;;;;;;;;;;;;;;;;;;;;;;;;;;;;;;;;;;;;;
"tettenhall1";;;"Windows 7";"Rachel's Experiment (D.T.)";"1.0";"2";"1";"1";"2";"1";"1";"2014-10-16 12:24:23.188";"2014-10-16 12:36:14.527";"1";"1";"0";"56";"55";"module.training_block2.exec-6604.GoNoGo2";;;;;;;;;;;;;;;;;;;;;;;;;;;;;;;;;;;"1261";"2014-10-16 12:27:32.729";"NST_correctLoc";"13";"1";"FINISHED";"RIGHT";"success";"353";"0";"2014-10-16 12:27:31.466";"2";;;;;;;;;;;;;;;;;;;;;;;;;;;;;;;;;;;;;;;;;;;;;
"tettenhall1";;;"Windows 7";"Rachel's Experiment (D.T.)";"1.0";"2";"1";"1";"2";"1";"1";"2014-10-16 12:24:23.188";"2014-10-16 12:36:14.527";"1";"1";"0";"57";"56";"module.training_block2.exec-6604.GoNoGo2";;;;;;;;;;;;;;;;;;;;;;;;;;;;;;;;;;;"1261";"2014-10-16 12:27:35.272";"NST_correctLoc";"15";"1";"FINISHED";"RIGHT";"success";"378";"0";"2014-10-16 12:27:34.009";"2";;;;;;;;;;;;;;;;;;;;;;;;;;;;;;;;;;;;;;;;;;;;;
"tettenhall1";;;"Windows 7";"Rachel's Experiment (D.T.)";"1.0";"2";"1";"1";"2";"1";"1";"2014-10-16 12:24:23.188";"2014-10-16 12:36:14.527";"1";"1";"0";"58";"57";"module.training_block2.exec-6604.GoNoGo2";;;;;;;;;;;;;;;;;;;;;;;;;;;;;;;;;;;"1261";"2014-10-16 12:27:37.815";"NST_correctLoc";"20";"0";"FINISHED";"LEFT";"success";"275";"0";"2014-10-16 12:27:36.552";"3";;;;;;;;;;;;;;;;;;;;;;;;;;;;;;;;;;;;;;;;;;;;;
"tettenhall1";;;"Windows 7";"Rachel's Experiment (D.T.)";"1.0";"2";"1";"1";"2";"1";"1";"2014-10-16 12:24:23.188";"2014-10-16 12:36:14.527";"1";"1";"0";"59";"58";"module.training_block2.exec-6604.GoNoGo2";;;;;;;;;;;;;;;;;;;;;;;;;;;;;;;;;;;"1261";"2014-10-16 12:27:40.358";"NST_correctLoc";"17";"0";"FINISHED";"LEFT";"success";"309";"0";"2014-10-16 12:27:39.095";"2";;;;;;;;;;;;;;;;;;;;;;;;;;;;;;;;;;;;;;;;;;;;;
"tettenhall1";;;"Windows 7";"Rachel's Experiment (D.T.)";"1.0";"2";"1";"1";"2";"1";"1";"2014-10-16 12:24:23.188";"2014-10-16 12:36:14.527";"1";"1";"0";"60";"59";"module.training_block2.exec-6604.GoNoGo2";;;;;;;;;;;;;;;;;;;;;;;;;;;;;;;;;;;"1261";"2014-10-16 12:27:42.901";"NST_correctLoc";"34";"1";"FINISHED";"RIGHT";"success";"294";"0";"2014-10-16 12:27:41.638";"3";;;;;;;;;;;;;;;;;;;;;;;;;;;;;;;;;;;;;;;;;;;;;
"tettenhall1";;;"Windows 7";"Rachel's Experiment (D.T.)";"1.0";"2";"1";"1";"2";"1";"1";"2014-10-16 12:24:23.188";"2014-10-16 12:36:14.527";"1";"1";"0";"61";"60";"module.training_block2.exec-6604.GoNoGo2";;;;;;;;;;;;;;;;;;;;;;;;;;;;;;;;;;;"1261";"2014-10-16 12:27:45.444";"NST_correctLoc";"25";"0";"FINISHED";"LEFT";"success";"287";"0";"2014-10-16 12:27:44.181";"3";;;;;;;;;;;;;;;;;;;;;;;;;;;;;;;;;;;;;;;;;;;;;
"tettenhall1";;;"Windows 7";"Rachel's Experiment (D.T.)";"1.0";"2";"1";"1";"2";"1";"1";"2014-10-16 12:24:23.188";"2014-10-16 12:36:14.527";"1";"1";"0";"62";"61";"module.training_block2.exec-6604.GoNoGo2";;;;;;;;;;;;;;;;;;;;;;;;;;;;;;;;;;;"1261";"2014-10-16 12:27:47.987";"NST_correctLoc";"1";"1";"FINISHED";"RIGHT";"success";"312";"0";"2014-10-16 12:27:46.724";"1";;;;;;;;;;;;;;;;;;;;;;;;;;;;;;;;;;;;;;;;;;;;;
"tettenhall1";;;"Windows 7";"Rachel's Experiment (D.T.)";"1.0";"2";"1";"1";"2";"1";"1";"2014-10-16 12:24:23.188";"2014-10-16 12:36:14.527";"1";"1";"0";"63";"62";"module.training_block2.exec-6604.GoNoGo2";;;;;;;;;;;;;;;;;;;;;;;;;;;;;;;;;;;"1261";"2014-10-16 12:27:50.530";"NST_correctLoc";"22";"0";"FINISHED";"LEFT";"success";"305";"0";"2014-10-16 12:27:49.267";"3";;;;;;;;;;;;;;;;;;;;;;;;;;;;;;;;;;;;;;;;;;;;;
"tettenhall1";;;"Windows 7";"Rachel's Experiment (D.T.)";"1.0";"2";"1";"1";"2";"1";"1";"2014-10-16 12:24:23.188";"2014-10-16 12:36:14.527";"1";"1";"0";"64";"63";"module.training_block2.exec-6604.GoNoGo2";;;;;;;;;;;;;;;;;;;;;;;;;;;;;;;;;;;"1261";"2014-10-16 12:27:53.073";"NST_correctLoc";"35";"0";"FINISHED";"LEFT";"success";"290";"0";"2014-10-16 12:27:51.810";"3";;;;;;;;;;;;;;;;;;;;;;;;;;;;;;;;;;;;;;;;;;;;;
"tettenhall1";;;"Windows 7";"Rachel's Experiment (D.T.)";"1.0";"2";"1";"1";"2";"1";"1";"2014-10-16 12:24:23.188";"2014-10-16 12:36:14.527";"1";"1";"0";"65";"64";"module.training_block2.exec-6604.GoNoGo2";;;;;;;;;;;;;;;;;;;;;;;;;;;;;;;;;;;"1261";"2014-10-16 12:27:55.616";"NST_correctLoc";"29";"1";"FINISHED";"RIGHT";"success";"300";"0";"2014-10-16 12:27:54.353";"3";;;;;;;;;;;;;;;;;;;;;;;;;;;;;;;;;;;;;;;;;;;;;
"tettenhall1";;;"Windows 7";"Rachel's Experiment (D.T.)";"1.0";"2";"1";"1";"2";"1";"1";"2014-10-16 12:24:23.188";"2014-10-16 12:36:14.527";"1";"1";"0";"66";"65";"module.training_block2.exec-6604.GoNoGo2";;;;;;;;;;;;;;;;;;;;;;;;;;;;;;;;;;;"1261";"2014-10-16 12:27:58.159";"NST_correctLoc";"0";"1";"FINISHED";"RIGHT";"success";"349";"0";"2014-10-16 12:27:56.896";"1";;;;;;;;;;;;;;;;;;;;;;;;;;;;;;;;;;;;;;;;;;;;;
"tettenhall1";;;"Windows 7";"Rachel's Experiment (D.T.)";"1.0";"2";"1";"1";"2";"1";"1";"2014-10-16 12:24:23.188";"2014-10-16 12:36:14.527";"1";"1";"0";"67";"66";"module.training_block2.exec-6604.GoNoGo2";;;;;;;;;;;;;;;;;;;;;;;;;;;;;;;;;;;"1261";"2014-10-16 12:28:00.702";"NST_correctLoc";"11";"0";"FINISHED";"LEFT";"success";"350";"0";"2014-10-16 12:27:59.439";"2";;;;;;;;;;;;;;;;;;;;;;;;;;;;;;;;;;;;;;;;;;;;;
"tettenhall1";;;"Windows 7";"Rachel's Experiment (D.T.)";"1.0";"2";"1";"1";"2";"1";"1";"2014-10-16 12:24:23.188";"2014-10-16 12:36:14.527";"1";"1";"0";"68";"67";"module.training_block2.exec-6604.GoNoGo2";;;;;;;;;;;;;;;;;;;;;;;;;;;;;;;;;;;"1261";"2014-10-16 12:28:03.245";"NST_correctLoc";"33";"1";"FINISHED";"RIGHT";"success";"319";"0";"2014-10-16 12:28:01.981";"3";;;;;;;;;;;;;;;;;;;;;;;;;;;;;;;;;;;;;;;;;;;;;
"tettenhall1";;;"Windows 7";"Rachel's Experiment (D.T.)";"1.0";"2";"1";"1";"2";"1";"1";"2014-10-16 12:24:23.188";"2014-10-16 12:36:14.527";"1";"1";"0";"69";"68";"module.training_block2.exec-6604.GoNoGo2";;;;;;;;;;;;;;;;;;;;;;;;;;;;;;;;;;;"1261";"2014-10-16 12:28:05.788";"NST_correctLoc";"5";"0";"FINISHED";"LEFT";"success";"272";"0";"2014-10-16 12:28:04.524";"1";;;;;;;;;;;;;;;;;;;;;;;;;;;;;;;;;;;;;;;;;;;;;
"tettenhall1";;;"Windows 7";"Rachel's Experiment (D.T.)";"1.0";"2";"1";"1";"2";"1";"1";"2014-10-16 12:24:23.188";"2014-10-16 12:36:14.527";"1";"1";"0";"70";"69";"module.training_block2.exec-6604.GoNoGo2";;;;;;;;;;;;;;;;;;;;;;;;;;;;;;;;;;;"1261";"2014-10-16 12:28:08.331";"NST_correctLoc";"10";"1";"FINISHED";"RIGHT";"success";"394";"0";"2014-10-16 12:28:07.067";"2";;;;;;;;;;;;;;;;;;;;;;;;;;;;;;;;;;;;;;;;;;;;;
"tettenhall1";;;"Windows 7";"Rachel's Experiment (D.T.)";"1.0";"2";"1";"1";"2";"1";"1";"2014-10-16 12:24:23.188";"2014-10-16 12:36:14.527";"1";"1";"0";"71";"70";"module.training_block2.exec-6604.GoNoGo2";;;;;;;;;;;;;;;;;;;;;;;;;;;;;;;;;;;"1261";"2014-10-16 12:28:10.874";"NST_correctLoc";"21";"1";"FINISHED";"RIGHT";"success";"371";"0";"2014-10-16 12:28:09.610";"3";;;;;;;;;;;;;;;;;;;;;;;;;;;;;;;;;;;;;;;;;;;;;
"tettenhall1";;;"Windows 7";"Rachel's Experiment (D.T.)";"1.0";"2";"1";"1";"2";"1";"1";"2014-10-16 12:24:23.188";"2014-10-16 12:36:14.527";"1";"1";"0";"72";"71";"module.training_block2.exec-6604.GoNoGo2";;;;;;;;;;;;;;;;;;;;;;;;;;;;;;;;;;;"1261";"2014-10-16 12:28:13.417";"NST_correctLoc";"12";"0";"FINISHED";"LEFT";"success";"348";"0";"2014-10-16 12:28:12.153";"2";;;;;;;;;;;;;;;;;;;;;;;;;;;;;;;;;;;;;;;;;;;;;
"tettenhall1";;;"Windows 7";"Rachel's Experiment (D.T.)";"1.0";"2";"1";"1";"2";"1";"1";"2014-10-16 12:24:23.188";"2014-10-16 12:36:14.527";"1";"1";"0";"73";"72";"module.training_block2.exec-6604.GoNoGo2";;;;;;;;;;;;;;;;;;;;;;;;;;;;;;;;;;;"1261";"2014-10-16 12:28:15.960";"NST_correctLoc";"27";"0";"FINISHED";"LEFT";"success";"421";"0";"2014-10-16 12:28:14.696";"3";;;;;;;;;;;;;;;;;;;;;;;;;;;;;;;;;;;;;;;;;;;;;
"tettenhall1";;;"Windows 7";"Rachel's Experiment (D.T.)";"1.0";"2";"1";"1";"2";"1";"1";"2014-10-16 12:24:23.188";"2014-10-16 12:36:14.527";"1";"1";"0";"74";"73";"module.training_block2.exec-6604.GoNoGo2";;;;;;;;;;;;;;;;;;;;;;;;;;;;;;;;;;;"1261";"2014-10-16 12:28:18.503";"NST_correctLoc";"3";"0";"FINISHED";"LEFT";"success";"350";"0";"2014-10-16 12:28:17.239";"1";;;;;;;;;;;;;;;;;;;;;;;;;;;;;;;;;;;;;;;;;;;;;
"tettenhall1";;;"Windows 7";"Rachel's Experiment (D.T.)";"1.0";"2";"1";"1";"2";"1";"1";"2014-10-16 12:24:23.188";"2014-10-16 12:36:14.527";"1";"1";"0";"75";"74";"module.training_block2.exec-6604.GoNoGo2";;;;;;;;;;;;;;;;;;;;;;;;;;;;;;;;;;;"1261";"2014-10-16 12:28:21.046";"NST_correctLoc";"16";"1";"FINISHED";"RIGHT";"success";"351";"0";"2014-10-16 12:28:19.782";"2";;;;;;;;;;;;;;;;;;;;;;;;;;;;;;;;;;;;;;;;;;;;;
"tettenhall1";;;"Windows 7";"Rachel's Experiment (D.T.)";"1.0";"2";"1";"1";"2";"1";"1";"2014-10-16 12:24:23.188";"2014-10-16 12:36:14.527";"1";"1";"0";"76";"75";"module.training_block2.exec-6604.GoNoGo2";;;;;;;;;;;;;;;;;;;;;;;;;;;;;;;;;;;"1261";"2014-10-16 12:28:23.589";"NST_correctLoc";"32";"0";"FINISHED";"LEFT";"success";"329";"0";"2014-10-16 12:28:22.325";"3";;;;;;;;;;;;;;;;;;;;;;;;;;;;;;;;;;;;;;;;;;;;;
"tettenhall1";;;"Windows 7";"Rachel's Experiment (D.T.)";"1.0";"2";"1";"1";"2";"1";"1";"2014-10-16 12:24:23.188";"2014-10-16 12:36:14.527";"1";"1";"0";"77";"76";"module.training_block2.exec-6604.GoNoGo2";;;;;;;;;;;;;;;;;;;;;;;;;;;;;;;;;;;"1261";"2014-10-16 12:28:26.132";"NST_correctLoc";"9";"0";"FINISHED";"LEFT";"success";"466";"0";"2014-10-16 12:28:24.868";"2";;;;;;;;;;;;;;;;;;;;;;;;;;;;;;;;;;;;;;;;;;;;;
"tettenhall1";;;"Windows 7";"Rachel's Experiment (D.T.)";"1.0";"2";"1";"1";"2";"1";"1";"2014-10-16 12:24:23.188";"2014-10-16 12:36:14.527";"1";"1";"0";"78";"77";"module.training_block2.exec-6604.GoNoGo2";;;;;;;;;;;;;;;;;;;;;;;;;;;;;;;;;;;"1261";"2014-10-16 12:28:28.675";"NST_correctLoc";"23";"0";"FINISHED";"LEFT";"success";"547";"0";"2014-10-16 12:28:27.411";"3";;;;;;;;;;;;;;;;;;;;;;;;;;;;;;;;;;;;;;;;;;;;;
"tettenhall1";;;"Windows 7";"Rachel's Experiment (D.T.)";"1.0";"2";"1";"1";"2";"1";"1";"2014-10-16 12:24:23.188";"2014-10-16 12:36:14.527";"1";"1";"0";"79";"78";"module.training_block2.exec-6604.GoNoGo2";;;;;;;;;;;;;;;;;;;;;;;;;;;;;;;;;;;"1261";"2014-10-16 12:28:31.218";"NST_correctLoc";"24";"0";"FINISHED";"LEFT";"success";"428";"0";"2014-10-16 12:28:29.954";"3";;;;;;;;;;;;;;;;;;;;;;;;;;;;;;;;;;;;;;;;;;;;;
"tettenhall1";;;"Windows 7";"Rachel's Experiment (D.T.)";"1.0";"2";"1";"1";"2";"1";"1";"2014-10-16 12:24:23.188";"2014-10-16 12:36:14.527";"1";"1";"0";"80";"79";"module.training_block2.exec-6604.GoNoGo2";;;;;;;;;;;;;;;;;;;;;;;;;;;;;;;;;;;"1261";"2014-10-16 12:28:33.761";"NST_correctLoc";"8";"0";"FINISHED";"LEFT";"success";"365";"0";"2014-10-16 12:28:32.497";"1";;;;;;;;;;;;;;;;;;;;;;;;;;;;;;;;;;;;;;;;;;;;;
"tettenhall1";;;"Windows 7";"Rachel's Experiment (D.T.)";"1.0";"2";"1";"1";"2";"1";"1";"2014-10-16 12:24:23.188";"2014-10-16 12:36:14.527";"1";"1";"0";"81";"80";"module.training_block2.exec-6604.GoNoGo2";;;;;;;;;;;;;;;;;;;;;;;;;;;;;;;;;;;"1261";"2014-10-16 12:28:36.304";"NST_correctLoc";"28";"0";"FINISHED";"LEFT";"success";"471";"0";"2014-10-16 12:28:35.040";"3";;;;;;;;;;;;;;;;;;;;;;;;;;;;;;;;;;;;;;;;;;;;;
"tettenhall1";;;"Windows 7";"Rachel's Experiment (D.T.)";"1.0";"2";"1";"1";"2";"1";"1";"2014-10-16 12:24:23.188";"2014-10-16 12:36:14.527";"1";"1";"0";"82";"81";"module.training_block2.exec-6604.GoNoGo2";;;;;;;;;;;;;;;;;;;;;;;;;;;;;;;;;;;"1261";"2014-10-16 12:28:38.863";"NST_correctLoc";"18";"1";"FINISHED";"RIGHT";"success";"352";"0";"2014-10-16 12:28:37.599";"3";;;;;;;;;;;;;;;;;;;;;;;;;;;;;;;;;;;;;;;;;;;;;
"tettenhall1";;;"Windows 7";"Rachel's Experiment (D.T.)";"1.0";"2";"1";"1";"2";"1";"1";"2014-10-16 12:24:23.188";"2014-10-16 12:36:14.527";"1";"1";"0";"83";"82";"module.training_block2.exec-6604.GoNoGo2";;;;;;;;;;;;;;;;;;;;;;;;;;;;;;;;;;;"1261";"2014-10-16 12:28:41.406";"NST_correctLoc";"4";"0";"FINISHED";"LEFT";"success";"409";"0";"2014-10-16 12:28:40.142";"1";;;;;;;;;;;;;;;;;;;;;;;;;;;;;;;;;;;;;;;;;;;;;
"tettenhall1";;;"Windows 7";"Rachel's Experiment (D.T.)";"1.0";"2";"1";"1";"2";"1";"1";"2014-10-16 12:24:23.188";"2014-10-16 12:36:14.527";"1";"1";"0";"84";"83";"module.training_block2.exec-6604.GoNoGo2";;;;;;;;;;;;;;;;;;;;;;;;;;;;;;;;;;;"1261";"2014-10-16 12:28:43.949";"NST_correctLoc";"30";"0";"FINISHED";"LEFT";"success";"386";"0";"2014-10-16 12:28:42.685";"3";;;;;;;;;;;;;;;;;;;;;;;;;;;;;;;;;;;;;;;;;;;;;
"tettenhall1";;;"Windows 7";"Rachel's Experiment (D.T.)";"1.0";"2";"1";"1";"2";"1";"1";"2014-10-16 12:24:23.188";"2014-10-16 12:36:14.527";"1";"1";"0";"85";"84";"module.training_block2.exec-6604.GoNoGo2";;;;;;;;;;;;;;;;;;;;;;;;;;;;;;;;;;;"1261";"2014-10-16 12:28:46.492";"NST_correctLoc";"14";"0";"FINISHED";"LEFT";"success";"460";"0";"2014-10-16 12:28:45.228";"2";;;;;;;;;;;;;;;;;;;;;;;;;;;;;;;;;;;;;;;;;;;;;
"tettenhall1";;;"Windows 7";"Rachel's Experiment (D.T.)";"1.0";"2";"1";"1";"2";"1";"1";"2014-10-16 12:24:23.188";"2014-10-16 12:36:14.527";"1";"1";"0";"86";"85";"module.training_block2.exec-6604.GoNoGo2";;;;;;;;;;;;;;;;;;;;;;;;;;;;;;;;;;;"1261";"2014-10-16 12:28:49.035";"NST_correctLoc";"7";"0";"FINISHED";"LEFT";"success";"413";"0";"2014-10-16 12:28:47.771";"1";;;;;;;;;;;;;;;;;;;;;;;;;;;;;;;;;;;;;;;;;;;;;
"tettenhall1";;;"Windows 7";"Rachel's Experiment (D.T.)";"1.0";"2";"1";"1";"2";"1";"1";"2014-10-16 12:24:23.188";"2014-10-16 12:36:14.527";"1";"1";"0";"87";"86";"module.training_block2.exec-6604.GoNoGo2";;;;;;;;;;;;;;;;;;;;;;;;;;;;;;;;;;;"1261";"2014-10-16 12:28:51.578";"NST_correctLoc";"31";"1";"FINISHED";"RIGHT";"success";"342";"0";"2014-10-16 12:28:50.314";"3";;;;;;;;;;;;;;;;;;;;;;;;;;;;;;;;;;;;;;;;;;;;;
"tettenhall1";;;"Windows 7";"Rachel's Experiment (D.T.)";"1.0";"2";"1";"1";"2";"1";"1";"2014-10-16 12:24:23.188";"2014-10-16 12:36:14.527";"1";"1";"0";"88";"87";"module.training_block3.exec-7836.GoNoGo3";;;;;;;;;;;;;;;;;;;;;;;;;;;;;;;;;;;;;;;;;;;;;;;"1261";"2014-10-16 12:29:01.500";"NST_correctLoc";"17";"0";"FINISHED";"LEFT";"success";"332";"0";"2014-10-16 12:29:00.236";"2";;;;;;;;;;;;;;;;;;;;;;;;;;;;;;;;;
"tettenhall1";;;"Windows 7";"Rachel's Experiment (D.T.)";"1.0";"2";"1";"1";"2";"1";"1";"2014-10-16 12:24:23.188";"2014-10-16 12:36:14.527";"1";"1";"0";"89";"88";"module.training_block3.exec-7836.GoNoGo3";;;;;;;;;;;;;;;;;;;;;;;;;;;;;;;;;;;;;;;;;;;;;;;"1262";"2014-10-16 12:29:04.043";"NST_correctLoc";"33";"0";"FINISHED";"LEFT";"success";"342";"0";"2014-10-16 12:29:02.779";"3";;;;;;;;;;;;;;;;;;;;;;;;;;;;;;;;;
"tettenhall1";;;"Windows 7";"Rachel's Experiment (D.T.)";"1.0";"2";"1";"1";"2";"1";"1";"2014-10-16 12:24:23.188";"2014-10-16 12:36:14.527";"1";"1";"0";"90";"89";"module.training_block3.exec-7836.GoNoGo3";;;;;;;;;;;;;;;;;;;;;;;;;;;;;;;;;;;;;;;;;;;;;;;"1261";"2014-10-16 12:29:06.586";"NST_correctLoc";"31";"1";"FINISHED";"RIGHT";"success";"327";"0";"2014-10-16 12:29:05.322";"3";;;;;;;;;;;;;;;;;;;;;;;;;;;;;;;;;
"tettenhall1";;;"Windows 7";"Rachel's Experiment (D.T.)";"1.0";"2";"1";"1";"2";"1";"1";"2014-10-16 12:24:23.188";"2014-10-16 12:36:14.527";"1";"1";"0";"91";"90";"module.training_block3.exec-7836.GoNoGo3";;;;;;;;;;;;;;;;;;;;;;;;;;;;;;;;;;;;;;;;;;;;;;;"1261";"2014-10-16 12:29:09.129";"NST_correctLoc";"4";"1";"FINISHED";"RIGHT";"success";"320";"0";"2014-10-16 12:29:07.865";"1";;;;;;;;;;;;;;;;;;;;;;;;;;;;;;;;;
"tettenhall1";;;"Windows 7";"Rachel's Experiment (D.T.)";"1.0";"2";"1";"1";"2";"1";"1";"2014-10-16 12:24:23.188";"2014-10-16 12:36:14.527";"1";"1";"0";"92";"91";"module.training_block3.exec-7836.GoNoGo3";;;;;;;;;;;;;;;;;;;;;;;;;;;;;;;;;;;;;;;;;;;;;;;"1261";"2014-10-16 12:29:11.672";"NST_correctLoc";"15";"0";"FINISHED";"LEFT";"success";"297";"0";"2014-10-16 12:29:10.408";"2";;;;;;;;;;;;;;;;;;;;;;;;;;;;;;;;;
"tettenhall1";;;"Windows 7";"Rachel's Experiment (D.T.)";"1.0";"2";"1";"1";"2";"1";"1";"2014-10-16 12:24:23.188";"2014-10-16 12:36:14.527";"1";"1";"0";"93";"92";"module.training_block3.exec-7836.GoNoGo3";;;;;;;;;;;;;;;;;;;;;;;;;;;;;;;;;;;;;;;;;;;;;;;"1262";"2014-10-16 12:29:14.231";"NST_correctLoc";"27";"1";"FINISHED";"RIGHT";"success";"267";"0";"2014-10-16 12:29:12.967";"3";;;;;;;;;;;;;;;;;;;;;;;;;;;;;;;;;
"tettenhall1";;;"Windows 7";"Rachel's Experiment (D.T.)";"1.0";"2";"1";"1";"2";"1";"1";"2014-10-16 12:24:23.188";"2014-10-16 12:36:14.527";"1";"1";"0";"94";"93";"module.training_block3.exec-7836.GoNoGo3";;;;;;;;;;;;;;;;;;;;;;;;;;;;;;;;;;;;;;;;;;;;;;;"1261";"2014-10-16 12:29:16.774";"NST_correctLoc";"25";"0";"FINISHED";"LEFT";"success";"284";"0";"2014-10-16 12:29:15.510";"3";;;;;;;;;;;;;;;;;;;;;;;;;;;;;;;;;
"tettenhall1";;;"Windows 7";"Rachel's Experiment (D.T.)";"1.0";"2";"1";"1";"2";"1";"1";"2014-10-16 12:24:23.188";"2014-10-16 12:36:14.527";"1";"1";"0";"95";"94";"module.training_block3.exec-7836.GoNoGo3";;;;;;;;;;;;;;;;;;;;;;;;;;;;;;;;;;;;;;;;;;;;;;;"1261";"2014-10-16 12:29:19.332";"NST_correctLoc";"1";"0";"FINISHED";"LEFT";"success";"349";"0";"2014-10-16 12:29:18.069";"1";;;;;;;;;;;;;;;;;;;;;;;;;;;;;;;;;
"tettenhall1";;;"Windows 7";"Rachel's Experiment (D.T.)";"1.0";"2";"1";"1";"2";"1";"1";"2014-10-16 12:24:23.188";"2014-10-16 12:36:14.527";"1";"1";"0";"96";"95";"module.training_block3.exec-7836.GoNoGo3";;;;;;;;;;;;;;;;;;;;;;;;;;;;;;;;;;;;;;;;;;;;;;;"1261";"2014-10-16 12:29:21.875";"NST_correctLoc";"20";"0";"FINISHED";"LEFT";"success";"383";"0";"2014-10-16 12:29:20.612";"3";;;;;;;;;;;;;;;;;;;;;;;;;;;;;;;;;
"tettenhall1";;;"Windows 7";"Rachel's Experiment (D.T.)";"1.0";"2";"1";"1";"2";"1";"1";"2014-10-16 12:24:23.188";"2014-10-16 12:36:14.527";"1";"1";"0";"97";"96";"module.training_block3.exec-7836.GoNoGo3";;;;;;;;;;;;;;;;;;;;;;;;;;;;;;;;;;;;;;;;;;;;;;;"1261";"2014-10-16 12:29:24.418";"NST_correctLoc";"24";"0";"FINISHED";"LEFT";"success";"448";"0";"2014-10-16 12:29:23.155";"3";;;;;;;;;;;;;;;;;;;;;;;;;;;;;;;;;
"tettenhall1";;;"Windows 7";"Rachel's Experiment (D.T.)";"1.0";"2";"1";"1";"2";"1";"1";"2014-10-16 12:24:23.188";"2014-10-16 12:36:14.527";"1";"1";"0";"98";"97";"module.training_block3.exec-7836.GoNoGo3";;;;;;;;;;;;;;;;;;;;;;;;;;;;;;;;;;;;;;;;;;;;;;;"1261";"2014-10-16 12:29:26.961";"NST_correctLoc";"30";"0";"FINISHED";"LEFT";"success";"353";"0";"2014-10-16 12:29:25.698";"3";;;;;;;;;;;;;;;;;;;;;;;;;;;;;;;;;
"tettenhall1";;;"Windows 7";"Rachel's Experiment (D.T.)";"1.0";"2";"1";"1";"2";"1";"1";"2014-10-16 12:24:23.188";"2014-10-16 12:36:14.527";"1";"1";"0";"99";"98";"module.training_block3.exec-7836.GoNoGo3";;;;;;;;;;;;;;;;;;;;;;;;;;;;;;;;;;;;;;;;;;;;;;;"1261";"2014-10-16 12:29:29.504";"NST_correctLoc";"18";"0";"FINISHED";"LEFT";"success";"386";"0";"2014-10-16 12:29:28.241";"3";;;;;;;;;;;;;;;;;;;;;;;;;;;;;;;;;
"tettenhall1";;;"Windows 7";"Rachel's Experiment (D.T.)";"1.0";"2";"1";"1";"2";"1";"1";"2014-10-16 12:24:23.188";"2014-10-16 12:36:14.527";"1";"1";"0";"100";"99";"module.training_block3.exec-7836.GoNoGo3";;;;;;;;;;;;;;;;;;;;;;;;;;;;;;;;;;;;;;;;;;;;;;;"1261";"2014-10-16 12:29:32.032";"NST_correctLoc";"5";"1";"FINISHED";"RIGHT";"success";"443";"0";"2014-10-16 12:29:30.768";"1";;;;;;;;;;;;;;;;;;;;;;;;;;;;;;;;;
"tettenhall1";;;"Windows 7";"Rachel's Experiment (D.T.)";"1.0";"2";"1";"1";"2";"1";"1";"2014-10-16 12:24:23.188";"2014-10-16 12:36:14.527";"1";"1";"0";"101";"100";"module.training_block3.exec-7836.GoNoGo3";;;;;;;;;;;;;;;;;;;;;;;;;;;;;;;;;;;;;;;;;;;;;;;"1261";"2014-10-16 12:29:34.559";"NST_correctLoc";"19";"1";"FINISHED";"RIGHT";"success";"324";"0";"2014-10-16 12:29:33.295";"3";;;;;;;;;;;;;;;;;;;;;;;;;;;;;;;;;
"tettenhall1";;;"Windows 7";"Rachel's Experiment (D.T.)";"1.0";"2";"1";"1";"2";"1";"1";"2014-10-16 12:24:23.188";"2014-10-16 12:36:14.527";"1";"1";"0";"102";"101";"module.training_block3.exec-7836.GoNoGo3";;;;;;;;;;;;;;;;;;;;;;;;;;;;;;;;;;;;;;;;;;;;;;;"1261";"2014-10-16 12:29:37.102";"NST_correctLoc";"8";"0";"FINISHED";"LEFT";"success";"317";"0";"2014-10-16 12:29:35.838";"1";;;;;;;;;;;;;;;;;;;;;;;;;;;;;;;;;
"tettenhall1";;;"Windows 7";"Rachel's Experiment (D.T.)";"1.0";"2";"1";"1";"2";"1";"1";"2014-10-16 12:24:23.188";"2014-10-16 12:36:14.527";"1";"1";"0";"103";"102";"module.training_block3.exec-7836.GoNoGo3";;;;;;;;;;;;;;;;;;;;;;;;;;;;;;;;;;;;;;;;;;;;;;;"1261";"2014-10-16 12:29:39.645";"NST_correctLoc";"21";"1";"FINISHED";"RIGHT";"success";"374";"0";"2014-10-16 12:29:38.381";"3";;;;;;;;;;;;;;;;;;;;;;;;;;;;;;;;;
"tettenhall1";;;"Windows 7";"Rachel's Experiment (D.T.)";"1.0";"2";"1";"1";"2";"1";"1";"2014-10-16 12:24:23.188";"2014-10-16 12:36:14.527";"1";"1";"0";"104";"103";"module.training_block3.exec-7836.GoNoGo3";;;;;;;;;;;;;;;;;;;;;;;;;;;;;;;;;;;;;;;;;;;;;;;"1261";"2014-10-16 12:29:42.188";"NST_correctLoc";"9";"0";"FINISHED";"LEFT";"success";"423";"0";"2014-10-16 12:29:40.924";"2";;;;;;;;;;;;;;;;;;;;;;;;;;;;;;;;;
"tettenhall1";;;"Windows 7";"Rachel's Experiment (D.T.)";"1.0";"2";"1";"1";"2";"1";"1";"2014-10-16 12:24:23.188";"2014-10-16 12:36:14.527";"1";"1";"0";"105";"104";"module.training_block3.exec-7836.GoNoGo3";;;;;;;;;;;;;;;;;;;;;;;;;;;;;;;;;;;;;;;;;;;;;;;"1262";"2014-10-16 12:29:44.715";"NST_correctLoc";"34";"0";"FINISHED";"LEFT";"success";"520";"0";"2014-10-16 12:29:43.452";"3";;;;;;;;;;;;;;;;;;;;;;;;;;;;;;;;;
"tettenhall1";;;"Windows 7";"Rachel's Experiment (D.T.)";"1.0";"2";"1";"1";"2";"1";"1";"2014-10-16 12:24:23.188";"2014-10-16 12:36:14.527";"1";"1";"0";"106";"105";"module.training_block3.exec-7836.GoNoGo3";;;;;;;;;;;;;;;;;;;;;;;;;;;;;;;;;;;;;;;;;;;;;;;"1261";"2014-10-16 12:29:47.258";"NST_correctLoc";"11";"0";"FINISHED";"LEFT";"success";"585";"0";"2014-10-16 12:29:45.995";"2";;;;;;;;;;;;;;;;;;;;;;;;;;;;;;;;;
"tettenhall1";;;"Windows 7";"Rachel's Experiment (D.T.)";"1.0";"2";"1";"1";"2";"1";"1";"2014-10-16 12:24:23.188";"2014-10-16 12:36:14.527";"1";"1";"0";"107";"106";"module.training_block3.exec-7836.GoNoGo3";;;;;;;;;;;;;;;;;;;;;;;;;;;;;;;;;;;;;;;;;;;;;;;"1261";"2014-10-16 12:29:49.817";"NST_correctLoc";"28";"0";"FINISHED";"LEFT";"success";"651";"0";"2014-10-16 12:29:48.553";"3";;;;;;;;;;;;;;;;;;;;;;;;;;;;;;;;;
"tettenhall1";;;"Windows 7";"Rachel's Experiment (D.T.)";"1.0";"2";"1";"1";"2";"1";"1";"2014-10-16 12:24:23.188";"2014-10-16 12:36:14.527";"1";"1";"0";"108";"107";"module.training_block3.exec-7836.GoNoGo3";;;;;;;;;;;;;;;;;;;;;;;;;;;;;;;;;;;;;;;;;;;;;;;"1261";"2014-10-16 12:29:52.344";"NST_correctLoc";"29";"1";"FINISHED";"RIGHT";"success";"380";"0";"2014-10-16 12:29:51.081";"3";;;;;;;;;;;;;;;;;;;;;;;;;;;;;;;;;
"tettenhall1";;;"Windows 7";"Rachel's Experiment (D.T.)";"1.0";"2";"1";"1";"2";"1";"1";"2014-10-16 12:24:23.188";"2014-10-16 12:36:14.527";"1";"1";"0";"109";"108";"module.training_block3.exec-7836.GoNoGo3";;;;;;;;;;;;;;;;;;;;;;;;;;;;;;;;;;;;;;;;;;;;;;;"1261";"2014-10-16 12:29:54.872";"NST_correctLoc";"13";"0";"FINISHED";"LEFT";"success";"676";"0";"2014-10-16 12:29:53.608";"2";;;;;;;;;;;;;;;;;;;;;;;;;;;;;;;;;
"tettenhall1";;;"Windows 7";"Rachel's Experiment (D.T.)";"1.0";"2";"1";"1";"2";"1";"1";"2014-10-16 12:24:23.188";"2014-10-16 12:36:14.527";"1";"1";"0";"110";"109";"module.training_block3.exec-7836.GoNoGo3";;;;;;;;;;;;;;;;;;;;;;;;;;;;;;;;;;;;;;;;;;;;;;;"1261";"2014-10-16 12:29:57.415";"NST_correctLoc";"3";"1";"FINISHED";"RIGHT";"success";"557";"0";"2014-10-16 12:29:56.151";"1";;;;;;;;;;;;;;;;;;;;;;;;;;;;;;;;;
"tettenhall1";;;"Windows 7";"Rachel's Experiment (D.T.)";"1.0";"2";"1";"1";"2";"1";"1";"2014-10-16 12:24:23.188";"2014-10-16 12:36:14.527";"1";"1";"0";"111";"110";"module.training_block3.exec-7836.GoNoGo3";;;;;;;;;;;;;;;;;;;;;;;;;;;;;;;;;;;;;;;;;;;;;;;"1261";"2014-10-16 12:29:59.942";"NST_correctLoc";"22";"0";"FINISHED";"LEFT";"success";"318";"0";"2014-10-16 12:29:58.678";"3";;;;;;;;;;;;;;;;;;;;;;;;;;;;;;;;;
"tettenhall1";;;"Windows 7";"Rachel's Experiment (D.T.)";"1.0";"2";"1";"1";"2";"1";"1";"2014-10-16 12:24:23.188";"2014-10-16 12:36:14.527";"1";"1";"0";"112";"111";"module.training_block3.exec-7836.GoNoGo3";;;;;;;;;;;;;;;;;;;;;;;;;;;;;;;;;;;;;;;;;;;;;;;"1261";"2014-10-16 12:30:02.501";"NST_correctLoc";"10";"0";"FINISHED";"LEFT";"success";"344";"0";"2014-10-16 12:30:01.237";"2";;;;;;;;;;;;;;;;;;;;;;;;;;;;;;;;;
"tettenhall1";;;"Windows 7";"Rachel's Experiment (D.T.)";"1.0";"2";"1";"1";"2";"1";"1";"2014-10-16 12:24:23.188";"2014-10-16 12:36:14.527";"1";"1";"0";"113";"112";"module.training_block3.exec-7836.GoNoGo3";;;;;;;;;;;;;;;;;;;;;;;;;;;;;;;;;;;;;;;;;;;;;;;"1261";"2014-10-16 12:30:05.044";"NST_correctLoc";"6";"1";"FINISHED";"RIGHT";"success";"561";"0";"2014-10-16 12:30:03.780";"1";;;;;;;;;;;;;;;;;;;;;;;;;;;;;;;;;
"tettenhall1";;;"Windows 7";"Rachel's Experiment (D.T.)";"1.0";"2";"1";"1";"2";"1";"1";"2014-10-16 12:24:23.188";"2014-10-16 12:36:14.527";"1";"1";"0";"114";"113";"module.training_block3.exec-7836.GoNoGo3";;;;;;;;;;;;;;;;;;;;;;;;;;;;;;;;;;;;;;;;;;;;;;;"1261";"2014-10-16 12:30:07.587";"NST_correctLoc";"0";"1";"FINISHED";"RIGHT";"success";"498";"0";"2014-10-16 12:30:06.323";"1";;;;;;;;;;;;;;;;;;;;;;;;;;;;;;;;;
"tettenhall1";;;"Windows 7";"Rachel's Experiment (D.T.)";"1.0";"2";"1";"1";"2";"1";"1";"2014-10-16 12:24:23.188";"2014-10-16 12:36:14.527";"1";"1";"0";"115";"114";"module.training_block3.exec-7836.GoNoGo3";;;;;;;;;;;;;;;;;;;;;;;;;;;;;;;;;;;;;;;;;;;;;;;"1261";"2014-10-16 12:30:10.114";"NST_correctLoc";"7";"0";"FINISHED";"LEFT";"success";"539";"0";"2014-10-16 12:30:08.850";"1";;;;;;;;;;;;;;;;;;;;;;;;;;;;;;;;;
"tettenhall1";;;"Windows 7";"Rachel's Experiment (D.T.)";"1.0";"2";"1";"1";"2";"1";"1";"2014-10-16 12:24:23.188";"2014-10-16 12:36:14.527";"1";"1";"0";"116";"115";"module.training_block3.exec-7836.GoNoGo3";;;;;;;;;;;;;;;;;;;;;;;;;;;;;;;;;;;;;;;;;;;;;;;"1262";"2014-10-16 12:30:12.642";"NST_correctLoc";"12";"0";"FINISHED";"LEFT";"success";"348";"0";"2014-10-16 12:30:11.378";"2";;;;;;;;;;;;;;;;;;;;;;;;;;;;;;;;;
"tettenhall1";;;"Windows 7";"Rachel's Experiment (D.T.)";"1.0";"2";"1";"1";"2";"1";"1";"2014-10-16 12:24:23.188";"2014-10-16 12:36:14.527";"1";"1";"0";"117";"116";"module.training_block3.exec-7836.GoNoGo3";;;;;;;;;;;;;;;;;;;;;;;;;;;;;;;;;;;;;;;;;;;;;;;"1261";"2014-10-16 12:30:15.169";"NST_correctLoc";"23";"1";"FINISHED";"RIGHT";"success";"421";"0";"2014-10-16 12:30:13.905";"3";;;;;;;;;;;;;;;;;;;;;;;;;;;;;;;;;
"tettenhall1";;;"Windows 7";"Rachel's Experiment (D.T.)";"1.0";"2";"1";"1";"2";"1";"1";"2014-10-16 12:24:23.188";"2014-10-16 12:36:14.527";"1";"1";"0";"118";"117";"module.training_block3.exec-7836.GoNoGo3";;;;;;;;;;;;;;;;;;;;;;;;;;;;;;;;;;;;;;;;;;;;;;;"1261";"2014-10-16 12:30:17.696";"NST_correctLoc";"16";"0";"FINISHED";"LEFT";"success";"493";"0";"2014-10-16 12:30:16.433";"2";;;;;;;;;;;;;;;;;;;;;;;;;;;;;;;;;
"tettenhall1";;;"Windows 7";"Rachel's Experiment (D.T.)";"1.0";"2";"1";"1";"2";"1";"1";"2014-10-16 12:24:23.188";"2014-10-16 12:36:14.527";"1";"1";"0";"119";"118";"module.training_block3.exec-7836.GoNoGo3";;;;;;;;;;;;;;;;;;;;;;;;;;;;;;;;;;;;;;;;;;;;;;;"1262";"2014-10-16 12:30:20.224";"NST_correctLoc";"35";"0";"FINISHED";"LEFT";"success";"462";"0";"2014-10-16 12:30:18.960";"3";;;;;;;;;;;;;;;;;;;;;;;;;;;;;;;;;
"tettenhall1";;;"Windows 7";"Rachel's Experiment (D.T.)";"1.0";"2";"1";"1";"2";"1";"1";"2014-10-16 12:24:23.188";"2014-10-16 12:36:14.527";"1";"1";"0";"120";"119";"module.training_block3.exec-7836.GoNoGo3";;;;;;;;;;;;;;;;;;;;;;;;;;;;;;;;;;;;;;;;;;;;;;;"1261";"2014-10-16 12:30:22.751";"NST_correctLoc";"26";"0";"FINISHED";"LEFT";"success";"383";"0";"2014-10-16 12:30:21.487";"3";;;;;;;;;;;;;;;;;;;;;;;;;;;;;;;;;
"tettenhall1";;;"Windows 7";"Rachel's Experiment (D.T.)";"1.0";"2";"1";"1";"2";"1";"1";"2014-10-16 12:24:23.188";"2014-10-16 12:36:14.527";"1";"1";"0";"121";"120";"module.training_block3.exec-7836.GoNoGo3";;;;;;;;;;;;;;;;;;;;;;;;;;;;;;;;;;;;;;;;;;;;;;;"1261";"2014-10-16 12:30:25.279";"NST_correctLoc";"2";"0";"FINISHED";"LEFT";"success";"320";"0";"2014-10-16 12:30:24.015";"1";;;;;;;;;;;;;;;;;;;;;;;;;;;;;;;;;
"tettenhall1";;;"Windows 7";"Rachel's Experiment (D.T.)";"1.0";"2";"1";"1";"2";"1";"1";"2014-10-16 12:24:23.188";"2014-10-16 12:36:14.527";"1";"1";"0";"122";"121";"module.training_block3.exec-7836.GoNoGo3";;;;;;;;;;;;;;;;;;;;;;;;;;;;;;;;;;;;;;;;;;;;;;;"1261";"2014-10-16 12:30:27.822";"NST_correctLoc";"14";"1";"FINISHED";"RIGHT";"success";"353";"0";"2014-10-16 12:30:26.558";"2";;;;;;;;;;;;;;;;;;;;;;;;;;;;;;;;;
"tettenhall1";;;"Windows 7";"Rachel's Experiment (D.T.)";"1.0";"2";"1";"1";"2";"1";"1";"2014-10-16 12:24:23.188";"2014-10-16 12:36:14.527";"1";"1";"0";"123";"122";"module.training_block3.exec-7836.GoNoGo3";;;;;;;;;;;;;;;;;;;;;;;;;;;;;;;;;;;;;;;;;;;;;;;"1261";"2014-10-16 12:30:30.349";"NST_correctLoc";"32";"0";"FINISHED";"LEFT";"success";"354";"0";"2014-10-16 12:30:29.085";"3";;;;;;;;;;;;;;;;;;;;;;;;;;;;;;;;;
"tettenhall1";;;"Windows 7";"Rachel's Experiment (D.T.)";"1.0";"2";"1";"1";"2";"1";"1";"2014-10-16 12:24:23.188";"2014-10-16 12:36:14.527";"1";"1";"0";"124";"123";"module.training_block4.exec-6447.GoNoGo4";;;;;;;;;;;;;;;;;;;;;;;;;;;;;;;;;;;;;;;;;;;;;;;;;;;;;;;;;;;"1261";"2014-10-16 12:30:40.193";"NST_correctLoc";"0";"0";"FINISHED";"LEFT";"success";"382";"0";"2014-10-16 12:30:38.930";"1";;;;;;;;;;;;;;;;;;;;;
"tettenhall1";;;"Windows 7";"Rachel's Experiment (D.T.)";"1.0";"2";"1";"1";"2";"1";"1";"2014-10-16 12:24:23.188";"2014-10-16 12:36:14.527";"1";"1";"0";"125";"124";"module.training_block4.exec-6447.GoNoGo4";;;;;;;;;;;;;;;;;;;;;;;;;;;;;;;;;;;;;;;;;;;;;;;;;;;;;;;;;;;"1261";"2014-10-16 12:30:42.721";"NST_correctLoc";"3";"0";"FINISHED";"LEFT";"success";"367";"0";"2014-10-16 12:30:41.457";"1";;;;;;;;;;;;;;;;;;;;;
"tettenhall1";;;"Windows 7";"Rachel's Experiment (D.T.)";"1.0";"2";"1";"1";"2";"1";"1";"2014-10-16 12:24:23.188";"2014-10-16 12:36:14.527";"1";"1";"0";"126";"125";"module.training_block4.exec-6447.GoNoGo4";;;;;;;;;;;;;;;;;;;;;;;;;;;;;;;;;;;;;;;;;;;;;;;;;;;;;;;;;;;"1261";"2014-10-16 12:30:45.248";"NST_correctLoc";"32";"1";"FINISHED";"RIGHT";"success";"264";"0";"2014-10-16 12:30:43.984";"3";;;;;;;;;;;;;;;;;;;;;
"tettenhall1";;;"Windows 7";"Rachel's Experiment (D.T.)";"1.0";"2";"1";"1";"2";"1";"1";"2014-10-16 12:24:23.188";"2014-10-16 12:36:14.527";"1";"1";"0";"127";"126";"module.training_block4.exec-6447.GoNoGo4";;;;;;;;;;;;;;;;;;;;;;;;;;;;;;;;;;;;;;;;;;;;;;;;;;;;;;;;;;;"1261";"2014-10-16 12:30:47.791";"NST_correctLoc";"4";"0";"FINISHED";"LEFT";"success";"313";"0";"2014-10-16 12:30:46.527";"1";;;;;;;;;;;;;;;;;;;;;
"tettenhall1";;;"Windows 7";"Rachel's Experiment (D.T.)";"1.0";"2";"1";"1";"2";"1";"1";"2014-10-16 12:24:23.188";"2014-10-16 12:36:14.527";"1";"1";"0";"128";"127";"module.training_block4.exec-6447.GoNoGo4";;;;;;;;;;;;;;;;;;;;;;;;;;;;;;;;;;;;;;;;;;;;;;;;;;;;;;;;;;;"1261";"2014-10-16 12:30:50.318";"NST_correctLoc";"11";"0";"FINISHED";"LEFT";"success";"313";"0";"2014-10-16 12:30:49.055";"2";;;;;;;;;;;;;;;;;;;;;
"tettenhall1";;;"Windows 7";"Rachel's Experiment (D.T.)";"1.0";"2";"1";"1";"2";"1";"1";"2014-10-16 12:24:23.188";"2014-10-16 12:36:14.527";"1";"1";"0";"129";"128";"module.training_block4.exec-6447.GoNoGo4";;;;;;;;;;;;;;;;;;;;;;;;;;;;;;;;;;;;;;;;;;;;;;;;;;;;;;;;;;;"1261";"2014-10-16 12:30:52.846";"NST_correctLoc";"10";"0";"FINISHED";"LEFT";"success";"474";"0";"2014-10-16 12:30:51.582";"2";;;;;;;;;;;;;;;;;;;;;
"tettenhall1";;;"Windows 7";"Rachel's Experiment (D.T.)";"1.0";"2";"1";"1";"2";"1";"1";"2014-10-16 12:24:23.188";"2014-10-16 12:36:14.527";"1";"1";"0";"130";"129";"module.training_block4.exec-6447.GoNoGo4";;;;;;;;;;;;;;;;;;;;;;;;;;;;;;;;;;;;;;;;;;;;;;;;;;;;;;;;;;;"1261";"2014-10-16 12:30:55.404";"NST_correctLoc";"25";"1";"FINISHED";"RIGHT";"success";"268";"0";"2014-10-16 12:30:54.141";"3";;;;;;;;;;;;;;;;;;;;;
"tettenhall1";;;"Windows 7";"Rachel's Experiment (D.T.)";"1.0";"2";"1";"1";"2";"1";"1";"2014-10-16 12:24:23.188";"2014-10-16 12:36:14.527";"1";"1";"0";"131";"130";"module.training_block4.exec-6447.GoNoGo4";;;;;;;;;;;;;;;;;;;;;;;;;;;;;;;;;;;;;;;;;;;;;;;;;;;;;;;;;;;"1261";"2014-10-16 12:30:57.932";"NST_correctLoc";"16";"0";"FINISHED";"LEFT";"success";"277";"0";"2014-10-16 12:30:56.668";"2";;;;;;;;;;;;;;;;;;;;;
"tettenhall1";;;"Windows 7";"Rachel's Experiment (D.T.)";"1.0";"2";"1";"1";"2";"1";"1";"2014-10-16 12:24:23.188";"2014-10-16 12:36:14.527";"1";"1";"0";"132";"131";"module.training_block4.exec-6447.GoNoGo4";;;;;;;;;;;;;;;;;;;;;;;;;;;;;;;;;;;;;;;;;;;;;;;;;;;;;;;;;;;"1261";"2014-10-16 12:31:00.475";"NST_correctLoc";"17";"0";"FINISHED";"LEFT";"success";"366";"0";"2014-10-16 12:30:59.211";"2";;;;;;;;;;;;;;;;;;;;;
"tettenhall1";;;"Windows 7";"Rachel's Experiment (D.T.)";"1.0";"2";"1";"1";"2";"1";"1";"2014-10-16 12:24:23.188";"2014-10-16 12:36:14.527";"1";"1";"0";"133";"132";"module.training_block4.exec-6447.GoNoGo4";;;;;;;;;;;;;;;;;;;;;;;;;;;;;;;;;;;;;;;;;;;;;;;;;;;;;;;;;;;"1261";"2014-10-16 12:31:03.002";"NST_correctLoc";"30";"0";"FINISHED";"LEFT";"success";"327";"0";"2014-10-16 12:31:01.739";"3";;;;;;;;;;;;;;;;;;;;;
"tettenhall1";;;"Windows 7";"Rachel's Experiment (D.T.)";"1.0";"2";"1";"1";"2";"1";"1";"2014-10-16 12:24:23.188";"2014-10-16 12:36:14.527";"1";"1";"0";"134";"133";"module.training_block4.exec-6447.GoNoGo4";;;;;;;;;;;;;;;;;;;;;;;;;;;;;;;;;;;;;;;;;;;;;;;;;;;;;;;;;;;"1261";"2014-10-16 12:31:05.530";"NST_correctLoc";"35";"0";"FINISHED";"LEFT";"success";"447";"0";"2014-10-16 12:31:04.266";"3";;;;;;;;;;;;;;;;;;;;;
"tettenhall1";;;"Windows 7";"Rachel's Experiment (D.T.)";"1.0";"2";"1";"1";"2";"1";"1";"2014-10-16 12:24:23.188";"2014-10-16 12:36:14.527";"1";"1";"0";"135";"134";"module.training_block4.exec-6447.GoNoGo4";;;;;;;;;;;;;;;;;;;;;;;;;;;;;;;;;;;;;;;;;;;;;;;;;;;;;;;;;;;"1262";"2014-10-16 12:31:08.057";"NST_correctLoc";"13";"0";"FINISHED";"LEFT";"success";"368";"0";"2014-10-16 12:31:06.793";"2";;;;;;;;;;;;;;;;;;;;;
"tettenhall1";;;"Windows 7";"Rachel's Experiment (D.T.)";"1.0";"2";"1";"1";"2";"1";"1";"2014-10-16 12:24:23.188";"2014-10-16 12:36:14.527";"1";"1";"0";"136";"135";"module.training_block4.exec-6447.GoNoGo4";;;;;;;;;;;;;;;;;;;;;;;;;;;;;;;;;;;;;;;;;;;;;;;;;;;;;;;;;;;"1258";"2014-10-16 12:31:10.584";"NST_correctLoc";"6";"0";"FINISHED";"LEFT";"success";"277";"0";"2014-10-16 12:31:09.321";"1";;;;;;;;;;;;;;;;;;;;;
"tettenhall1";;;"Windows 7";"Rachel's Experiment (D.T.)";"1.0";"2";"1";"1";"2";"1";"1";"2014-10-16 12:24:23.188";"2014-10-16 12:36:14.527";"1";"1";"0";"137";"136";"module.training_block4.exec-6447.GoNoGo4";;;;;;;;;;;;;;;;;;;;;;;;;;;;;;;;;;;;;;;;;;;;;;;;;;;;;;;;;;;"1261";"2014-10-16 12:31:13.112";"NST_correctLoc";"15";"1";"FINISHED";"RIGHT";"success";"378";"0";"2014-10-16 12:31:11.848";"2";;;;;;;;;;;;;;;;;;;;;
"tettenhall1";;;"Windows 7";"Rachel's Experiment (D.T.)";"1.0";"2";"1";"1";"2";"1";"1";"2014-10-16 12:24:23.188";"2014-10-16 12:36:14.527";"1";"1";"0";"138";"137";"module.training_block4.exec-6447.GoNoGo4";;;;;;;;;;;;;;;;;;;;;;;;;;;;;;;;;;;;;;;;;;;;;;;;;;;;;;;;;;;"1261";"2014-10-16 12:31:15.639";"NST_correctLoc";"1";"1";"FINISHED";"RIGHT";"success";"306";"0";"2014-10-16 12:31:14.375";"1";;;;;;;;;;;;;;;;;;;;;
"tettenhall1";;;"Windows 7";"Rachel's Experiment (D.T.)";"1.0";"2";"1";"1";"2";"1";"1";"2014-10-16 12:24:23.188";"2014-10-16 12:36:14.527";"1";"1";"0";"139";"138";"module.training_block4.exec-6447.GoNoGo4";;;;;;;;;;;;;;;;;;;;;;;;;;;;;;;;;;;;;;;;;;;;;;;;;;;;;;;;;;;"1261";"2014-10-16 12:31:18.167";"NST_correctLoc";"12";"1";"FINISHED";"RIGHT";"success";"331";"0";"2014-10-16 12:31:16.903";"2";;;;;;;;;;;;;;;;;;;;;
"tettenhall1";;;"Windows 7";"Rachel's Experiment (D.T.)";"1.0";"2";"1";"1";"2";"1";"1";"2014-10-16 12:24:23.188";"2014-10-16 12:36:14.527";"1";"1";"0";"140";"139";"module.training_block4.exec-6447.GoNoGo4";;;;;;;;;;;;;;;;;;;;;;;;;;;;;;;;;;;;;;;;;;;;;;;;;;;;;;;;;;;"1261";"2014-10-16 12:31:20.710";"NST_correctLoc";"20";"1";"FINISHED";"RIGHT";"success";"356";"0";"2014-10-16 12:31:19.446";"3";;;;;;;;;;;;;;;;;;;;;
"tettenhall1";;;"Windows 7";"Rachel's Experiment (D.T.)";"1.0";"2";"1";"1";"2";"1";"1";"2014-10-16 12:24:23.188";"2014-10-16 12:36:14.527";"1";"1";"0";"141";"140";"module.training_block4.exec-6447.GoNoGo4";;;;;;;;;;;;;;;;;;;;;;;;;;;;;;;;;;;;;;;;;;;;;;;;;;;;;;;;;;;"1261";"2014-10-16 12:31:23.237";"NST_correctLoc";"2";"0";"FINISHED";"LEFT";"success";"365";"0";"2014-10-16 12:31:21.973";"1";;;;;;;;;;;;;;;;;;;;;
"tettenhall1";;;"Windows 7";"Rachel's Experiment (D.T.)";"1.0";"2";"1";"1";"2";"1";"1";"2014-10-16 12:24:23.188";"2014-10-16 12:36:14.527";"1";"1";"0";"142";"141";"module.training_block4.exec-6447.GoNoGo4";;;;;;;;;;;;;;;;;;;;;;;;;;;;;;;;;;;;;;;;;;;;;;;;;;;;;;;;;;;"1261";"2014-10-16 12:31:25.764";"NST_correctLoc";"14";"0";"FINISHED";"LEFT";"success";"718";"0";"2014-10-16 12:31:24.501";"2";;;;;;;;;;;;;;;;;;;;;
"tettenhall1";;;"Windows 7";"Rachel's Experiment (D.T.)";"1.0";"2";"1";"1";"2";"1";"1";"2014-10-16 12:24:23.188";"2014-10-16 12:36:14.527";"1";"1";"0";"143";"142";"module.training_block4.exec-6447.GoNoGo4";;;;;;;;;;;;;;;;;;;;;;;;;;;;;;;;;;;;;;;;;;;;;;;;;;;;;;;;;;;"1261";"2014-10-16 12:31:28.292";"NST_correctLoc";"22";"0";"FINISHED";"LEFT";"success";"399";"0";"2014-10-16 12:31:27.028";"3";;;;;;;;;;;;;;;;;;;;;
"tettenhall1";;;"Windows 7";"Rachel's Experiment (D.T.)";"1.0";"2";"1";"1";"2";"1";"1";"2014-10-16 12:24:23.188";"2014-10-16 12:36:14.527";"1";"1";"0";"144";"143";"module.training_block4.exec-6447.GoNoGo4";;;;;;;;;;;;;;;;;;;;;;;;;;;;;;;;;;;;;;;;;;;;;;;;;;;;;;;;;;;"1261";"2014-10-16 12:31:30.819";"NST_correctLoc";"31";"1";"FINISHED";"RIGHT";"success";"375";"0";"2014-10-16 12:31:29.555";"3";;;;;;;;;;;;;;;;;;;;;
"tettenhall1";;;"Windows 7";"Rachel's Experiment (D.T.)";"1.0";"2";"1";"1";"2";"1";"1";"2014-10-16 12:24:23.188";"2014-10-16 12:36:14.527";"1";"1";"0";"145";"144";"module.training_block4.exec-6447.GoNoGo4";;;;;;;;;;;;;;;;;;;;;;;;;;;;;;;;;;;;;;;;;;;;;;;;;;;;;;;;;;;"1261";"2014-10-16 12:31:33.347";"NST_correctLoc";"24";"0";"FINISHED";"LEFT";"success";"344";"0";"2014-10-16 12:31:32.083";"3";;;;;;;;;;;;;;;;;;;;;
"tettenhall1";;;"Windows 7";"Rachel's Experiment (D.T.)";"1.0";"2";"1";"1";"2";"1";"1";"2014-10-16 12:24:23.188";"2014-10-16 12:36:14.527";"1";"1";"0";"146";"145";"module.training_block4.exec-6447.GoNoGo4";;;;;;;;;;;;;;;;;;;;;;;;;;;;;;;;;;;;;;;;;;;;;;;;;;;;;;;;;;;"1261";"2014-10-16 12:31:35.874";"NST_correctLoc";"5";"0";"FINISHED";"LEFT";"success";"353";"0";"2014-10-16 12:31:34.610";"1";;;;;;;;;;;;;;;;;;;;;
"tettenhall1";;;"Windows 7";"Rachel's Experiment (D.T.)";"1.0";"2";"1";"1";"2";"1";"1";"2014-10-16 12:24:23.188";"2014-10-16 12:36:14.527";"1";"1";"0";"147";"146";"module.training_block4.exec-6447.GoNoGo4";;;;;;;;;;;;;;;;;;;;;;;;;;;;;;;;;;;;;;;;;;;;;;;;;;;;;;;;;;;"1261";"2014-10-16 12:31:38.401";"NST_correctLoc";"19";"1";"FINISHED";"RIGHT";"success";"346";"0";"2014-10-16 12:31:37.138";"3";;;;;;;;;;;;;;;;;;;;;
"tettenhall1";;;"Windows 7";"Rachel's Experiment (D.T.)";"1.0";"2";"1";"1";"2";"1";"1";"2014-10-16 12:24:23.188";"2014-10-16 12:36:14.527";"1";"1";"0";"148";"147";"module.training_block4.exec-6447.GoNoGo4";;;;;;;;;;;;;;;;;;;;;;;;;;;;;;;;;;;;;;;;;;;;;;;;;;;;;;;;;;;"1261";"2014-10-16 12:31:40.944";"NST_correctLoc";"27";"1";"FINISHED";"RIGHT";"success";"403";"0";"2014-10-16 12:31:39.681";"3";;;;;;;;;;;;;;;;;;;;;
"tettenhall1";;;"Windows 7";"Rachel's Experiment (D.T.)";"1.0";"2";"1";"1";"2";"1";"1";"2014-10-16 12:24:23.188";"2014-10-16 12:36:14.527";"1";"1";"0";"149";"148";"module.training_block4.exec-6447.GoNoGo4";;;;;;;;;;;;;;;;;;;;;;;;;;;;;;;;;;;;;;;;;;;;;;;;;;;;;;;;;;;"1261";"2014-10-16 12:31:43.472";"NST_correctLoc";"34";"0";"FINISHED";"LEFT";"success";"356";"0";"2014-10-16 12:31:42.208";"3";;;;;;;;;;;;;;;;;;;;;
"tettenhall1";;;"Windows 7";"Rachel's Experiment (D.T.)";"1.0";"2";"1";"1";"2";"1";"1";"2014-10-16 12:24:23.188";"2014-10-16 12:36:14.527";"1";"1";"0";"150";"149";"module.training_block4.exec-6447.GoNoGo4";;;;;;;;;;;;;;;;;;;;;;;;;;;;;;;;;;;;;;;;;;;;;;;;;;;;;;;;;;;"1261";"2014-10-16 12:31:45.999";"NST_correctLoc";"29";"0";"FINISHED";"LEFT";"success";"381";"0";"2014-10-16 12:31:44.735";"3";;;;;;;;;;;;;;;;;;;;;
"tettenhall1";;;"Windows 7";"Rachel's Experiment (D.T.)";"1.0";"2";"1";"1";"2";"1";"1";"2014-10-16 12:24:23.188";"2014-10-16 12:36:14.527";"1";"1";"0";"151";"150";"module.training_block4.exec-6447.GoNoGo4";;;;;;;;;;;;;;;;;;;;;;;;;;;;;;;;;;;;;;;;;;;;;;;;;;;;;;;;;;;"1261";"2014-10-16 12:31:48.558";"NST_correctLoc";"18";"1";"FINISHED";"RIGHT";"success";"374";"0";"2014-10-16 12:31:47.294";"3";;;;;;;;;;;;;;;;;;;;;
"tettenhall1";;;"Windows 7";"Rachel's Experiment (D.T.)";"1.0";"2";"1";"1";"2";"1";"1";"2014-10-16 12:24:23.188";"2014-10-16 12:36:14.527";"1";"1";"0";"152";"151";"module.training_block4.exec-6447.GoNoGo4";;;;;;;;;;;;;;;;;;;;;;;;;;;;;;;;;;;;;;;;;;;;;;;;;;;;;;;;;;;"1261";"2014-10-16 12:31:51.085";"NST_correctLoc";"21";"1";"FINISHED";"RIGHT";"success";"359";"0";"2014-10-16 12:31:49.821";"3";;;;;;;;;;;;;;;;;;;;;
"tettenhall1";;;"Windows 7";"Rachel's Experiment (D.T.)";"1.0";"2";"1";"1";"2";"1";"1";"2014-10-16 12:24:23.188";"2014-10-16 12:36:14.527";"1";"1";"0";"153";"152";"module.training_block4.exec-6447.GoNoGo4";;;;;;;;;;;;;;;;;;;;;;;;;;;;;;;;;;;;;;;;;;;;;;;;;;;;;;;;;;;"1262";"2014-10-16 12:31:53.628";"NST_correctLoc";"33";"0";"FINISHED";"LEFT";"success";"280";"0";"2014-10-16 12:31:52.364";"3";;;;;;;;;;;;;;;;;;;;;
"tettenhall1";;;"Windows 7";"Rachel's Experiment (D.T.)";"1.0";"2";"1";"1";"2";"1";"1";"2014-10-16 12:24:23.188";"2014-10-16 12:36:14.527";"1";"1";"0";"154";"153";"module.training_block4.exec-6447.GoNoGo4";;;;;;;;;;;;;;;;;;;;;;;;;;;;;;;;;;;;;;;;;;;;;;;;;;;;;;;;;;;"1262";"2014-10-16 12:31:56.156";"NST_correctLoc";"7";"1";"FINISHED";"RIGHT";"success";"313";"0";"2014-10-16 12:31:54.892";"1";;;;;;;;;;;;;;;;;;;;;
"tettenhall1";;;"Windows 7";"Rachel's Experiment (D.T.)";"1.0";"2";"1";"1";"2";"1";"1";"2014-10-16 12:24:23.188";"2014-10-16 12:36:14.527";"1";"1";"0";"155";"154";"module.training_block4.exec-6447.GoNoGo4";;;;;;;;;;;;;;;;;;;;;;;;;;;;;;;;;;;;;;;;;;;;;;;;;;;;;;;;;;;"1261";"2014-10-16 12:31:58.683";"NST_correctLoc";"26";"0";"FINISHED";"LEFT";"success";"338";"0";"2014-10-16 12:31:57.419";"3";;;;;;;;;;;;;;;;;;;;;
"tettenhall1";;;"Windows 7";"Rachel's Experiment (D.T.)";"1.0";"2";"1";"1";"2";"1";"1";"2014-10-16 12:24:23.188";"2014-10-16 12:36:14.527";"1";"1";"0";"156";"155";"module.training_block4.exec-6447.GoNoGo4";;;;;;;;;;;;;;;;;;;;;;;;;;;;;;;;;;;;;;;;;;;;;;;;;;;;;;;;;;;"1261";"2014-10-16 12:32:01.210";"NST_correctLoc";"9";"1";"FINISHED";"RIGHT";"success";"354";"0";"2014-10-16 12:31:59.947";"2";;;;;;;;;;;;;;;;;;;;;
"tettenhall1";;;"Windows 7";"Rachel's Experiment (D.T.)";"1.0";"2";"1";"1";"2";"1";"1";"2014-10-16 12:24:23.188";"2014-10-16 12:36:14.527";"1";"1";"0";"157";"156";"module.training_block4.exec-6447.GoNoGo4";;;;;;;;;;;;;;;;;;;;;;;;;;;;;;;;;;;;;;;;;;;;;;;;;;;;;;;;;;;"1262";"2014-10-16 12:32:03.738";"NST_correctLoc";"28";"1";"FINISHED";"RIGHT";"success";"307";"0";"2014-10-16 12:32:02.474";"3";;;;;;;;;;;;;;;;;;;;;
"tettenhall1";;;"Windows 7";"Rachel's Experiment (D.T.)";"1.0";"2";"1";"1";"2";"1";"1";"2014-10-16 12:24:23.188";"2014-10-16 12:36:14.527";"1";"1";"0";"158";"157";"module.training_block4.exec-6447.GoNoGo4";;;;;;;;;;;;;;;;;;;;;;;;;;;;;;;;;;;;;;;;;;;;;;;;;;;;;;;;;;;"1262";"2014-10-16 12:32:06.281";"NST_correctLoc";"23";"1";"FINISHED";"RIGHT";"success";"300";"0";"2014-10-16 12:32:05.017";"3";;;;;;;;;;;;;;;;;;;;;
"tettenhall1";;;"Windows 7";"Rachel's Experiment (D.T.)";"1.0";"2";"1";"1";"2";"1";"1";"2014-10-16 12:24:23.188";"2014-10-16 12:36:14.527";"1";"1";"0";"159";"158";"module.training_block4.exec-6447.GoNoGo4";;;;;;;;;;;;;;;;;;;;;;;;;;;;;;;;;;;;;;;;;;;;;;;;;;;;;;;;;;;"1262";"2014-10-16 12:32:08.808";"NST_correctLoc";"8";"1";"FINISHED";"RIGHT";"success";"349";"0";"2014-10-16 12:32:07.544";"1";;;;;;;;;;;;;;;;;;;;;
"tettenhall1";;;"Windows 7";"Rachel's Experiment (D.T.)";"1.0";"2";"1";"1";"2";"1";"1";"2014-10-16 12:24:23.188";"2014-10-16 12:36:14.527";"1";"1";"0";"160";"159";"module.devaluation_practice.exec-7145.devalPractice";;;;;;;;;;;;"9960";"2014-10-16 12:32:33.536";"0";"8";"9";"7";"2491";"2199";"2207";"2014-10-16 12:32:23.567";;;;;;;;;;;;;;;;;;;;;;;;;;;;;;;;;;;;;;;;;;;;;;;;;;;;;;;;;;;;;;;;;;;;;;
"tettenhall1";;;"Windows 7";"Rachel's Experiment (D.T.)";"1.0";"2";"1";"1";"2";"1";"1";"2014-10-16 12:24:23.188";"2014-10-16 12:36:14.527";"1";"1";"0";"161";"160";"module.devaluation_practice.exec-7145.devalPractice";;;;;;;;;;;;"8044";"2014-10-16 12:32:41.617";"1";"6";"2";"3";"2322";"1745";"955";"2014-10-16 12:32:33.567";;;;;;;;;;;;;;;;;;;;;;;;;;;;;;;;;;;;;;;;;;;;;;;;;;;;;;;;;;;;;;;;;;;;;;
"tettenhall1";;;"Windows 7";"Rachel's Experiment (D.T.)";"1.0";"2";"1";"1";"2";"1";"1";"2014-10-16 12:24:23.188";"2014-10-16 12:36:14.527";"1";"1";"0";"162";"161";"module.devaluation_practice.exec-7145.devalPractice";;;;;;;;;;;;"9405";"2014-10-16 12:32:51.041";"2";"3";"9";"7";"1875";"1606";"2897";"2014-10-16 12:32:41.633";;;;;;;;;;;;;;;;;;;;;;;;;;;;;;;;;;;;;;;;;;;;;;;;;;;;;;;;;;;;;;;;;;;;;;
"tettenhall1";;;"Windows 7";"Rachel's Experiment (D.T.)";"1.0";"2";"1";"1";"2";"1";"1";"2014-10-16 12:24:23.188";"2014-10-16 12:36:14.527";"1";"1";"0";"163";"162";"module.devaluation_practice.exec-7145.devalPractice";;;;;;;;;;;;"8205";"2014-10-16 12:32:59.262";"3";"6";"1";"3";"2436";"1390";"1339";"2014-10-16 12:32:51.056";;;;;;;;;;;;;;;;;;;;;;;;;;;;;;;;;;;;;;;;;;;;;;;;;;;;;;;;;;;;;;;;;;;;;;
"tettenhall1";;;"Windows 7";"Rachel's Experiment (D.T.)";"1.0";"2";"1";"1";"2";"1";"1";"2014-10-16 12:24:23.188";"2014-10-16 12:36:14.527";"1";"1";"0";"164";"163";"module.devaluation_block1.exec-1385.deval1";"7803";"2014-10-16 12:33:11.135";"26";"9";"2";"8";"1365";"1788";"1629";"2014-10-16 12:33:03.334";"3";;;;;;;;;;;;;;;;;;;;;;;;;;;;;;;;;;;;;;;;;;;;;;;;;;;;;;;;;;;;;;;;;;;;;;;;;;;;;;;;
"tettenhall1";;;"Windows 7";"Rachel's Experiment (D.T.)";"1.0";"2";"1";"1";"2";"1";"1";"2014-10-16 12:24:23.188";"2014-10-16 12:36:14.527";"1";"1";"0";"165";"164";"module.devaluation_block1.exec-1385.deval1";"8644";"2014-10-16 12:33:19.809";"13";"3";"7";"8";"1686";"2231";"1695";"2014-10-16 12:33:11.166";"2";;;;;;;;;;;;;;;;;;;;;;;;;;;;;;;;;;;;;;;;;;;;;;;;;;;;;;;;;;;;;;;;;;;;;;;;;;;;;;;;
"tettenhall1";;;"Windows 7";"Rachel's Experiment (D.T.)";"1.0";"2";"1";"1";"2";"1";"1";"2014-10-16 12:24:23.188";"2014-10-16 12:36:14.527";"1";"1";"0";"166";"165";"module.devaluation_block1.exec-1385.deval1";"8204";"2014-10-16 12:33:28.031";"24";"4";"9";"9";"2932";"1064";"1173";"2014-10-16 12:33:19.825";"3";;;;;;;;;;;;;;;;;;;;;;;;;;;;;;;;;;;;;;;;;;;;;;;;;;;;;;;;;;;;;;;;;;;;;;;;;;;;;;;;
"tettenhall1";;;"Windows 7";"Rachel's Experiment (D.T.)";"1.0";"2";"1";"1";"2";"1";"1";"2014-10-16 12:24:23.188";"2014-10-16 12:36:14.527";"1";"1";"0";"167";"166";"module.devaluation_block1.exec-1385.deval1";"7029";"2014-10-16 12:33:35.083";"8";"6";"2";"3";"863";"2012";"1131";"2014-10-16 12:33:28.047";"1";;;;;;;;;;;;;;;;;;;;;;;;;;;;;;;;;;;;;;;;;;;;;;;;;;;;;;;;;;;;;;;;;;;;;;;;;;;;;;;;
"tettenhall1";;;"Windows 7";"Rachel's Experiment (D.T.)";"1.0";"2";"1";"1";"2";"1";"1";"2014-10-16 12:24:23.188";"2014-10-16 12:36:14.527";"1";"1";"0";"168";"167";"module.devaluation_block1.exec-1385.deval1";"7132";"2014-10-16 12:33:42.228";"22";"4";"9";"8";"1404";"1583";"1109";"2014-10-16 12:33:35.098";"3";;;;;;;;;;;;;;;;;;;;;;;;;;;;;;;;;;;;;;;;;;;;;;;;;;;;;;;;;;;;;;;;;;;;;;;;;;;;;;;;
"tettenhall1";;;"Windows 7";"Rachel's Experiment (D.T.)";"1.0";"2";"1";"1";"2";"1";"1";"2014-10-16 12:24:23.188";"2014-10-16 12:36:14.527";"1";"1";"0";"169";"168";"module.devaluation_block1.exec-1385.deval1";"7093";"2014-10-16 12:33:49.342";"5";"6";"7";"8";"1731";"1410";"925";"2014-10-16 12:33:42.244";"1";;;;;;;;;;;;;;;;;;;;;;;;;;;;;;;;;;;;;;;;;;;;;;;;;;;;;;;;;;;;;;;;;;;;;;;;;;;;;;;;
"tettenhall1";;;"Windows 7";"Rachel's Experiment (D.T.)";"1.0";"2";"1";"1";"2";"1";"1";"2014-10-16 12:24:23.188";"2014-10-16 12:36:14.527";"1";"1";"0";"170";"169";"module.devaluation_block1.exec-1385.deval1";"7048";"2014-10-16 12:33:56.410";"11";"2";"1";"4";"1554";"1056";"1415";"2014-10-16 12:33:49.373";"2";;;;;;;;;;;;;;;;;;;;;;;;;;;;;;;;;;;;;;;;;;;;;;;;;;;;;;;;;;;;;;;;;;;;;;;;;;;;;;;;
"tettenhall1";;;"Windows 7";"Rachel's Experiment (D.T.)";"1.0";"2";"1";"1";"2";"1";"1";"2014-10-16 12:24:23.188";"2014-10-16 12:36:14.527";"1";"1";"0";"171";"170";"module.devaluation_block1.exec-1385.deval1";"6846";"2014-10-16 12:34:03.274";"16";"1";"1";"3";"1095";"978";"1752";"2014-10-16 12:33:56.425";"2";;;;;;;;;;;;;;;;;;;;;;;;;;;;;;;;;;;;;;;;;;;;;;;;;;;;;;;;;;;;;;;;;;;;;;;;;;;;;;;;
"tettenhall1";;;"Windows 7";"Rachel's Experiment (D.T.)";"1.0";"2";"1";"1";"2";"1";"1";"2014-10-16 12:24:23.188";"2014-10-16 12:36:14.527";"1";"1";"0";"172";"171";"module.devaluation_block1.exec-1385.deval1";"6966";"2014-10-16 12:34:10.263";"9";"6";"3";"7";"1071";"801";"2079";"2014-10-16 12:34:03.290";"2";;;;;;;;;;;;;;;;;;;;;;;;;;;;;;;;;;;;;;;;;;;;;;;;;;;;;;;;;;;;;;;;;;;;;;;;;;;;;;;;
"tettenhall1";;;"Windows 7";"Rachel's Experiment (D.T.)";"1.0";"2";"1";"1";"2";"1";"1";"2014-10-16 12:24:23.188";"2014-10-16 12:36:14.527";"1";"1";"0";"173";"172";"module.devaluation_block1.exec-1385.deval1";"6725";"2014-10-16 12:34:17.003";"15";"1";"1";"5";"802";"1368";"1539";"2014-10-16 12:34:10.279";"2";;;;;;;;;;;;;;;;;;;;;;;;;;;;;;;;;;;;;;;;;;;;;;;;;;;;;;;;;;;;;;;;;;;;;;;;;;;;;;;;
"tettenhall1";;;"Windows 7";"Rachel's Experiment (D.T.)";"1.0";"2";"1";"1";"2";"1";"1";"2014-10-16 12:24:23.188";"2014-10-16 12:36:14.527";"1";"1";"0";"174";"173";"module.devaluation_block1.exec-1385.deval1";"6324";"2014-10-16 12:34:23.353";"0";"4";"9";"8";"639";"1534";"1109";"2014-10-16 12:34:17.034";"1";;;;;;;;;;;;;;;;;;;;;;;;;;;;;;;;;;;;;;;;;;;;;;;;;;;;;;;;;;;;;;;;;;;;;;;;;;;;;;;;
"tettenhall1";;;"Windows 7";"Rachel's Experiment (D.T.)";"1.0";"2";"1";"1";"2";"1";"1";"2014-10-16 12:24:23.188";"2014-10-16 12:36:14.527";"1";"1";"0";"175";"174";"module.devaluation_block1.exec-1385.deval1";"6327";"2014-10-16 12:34:29.703";"4";"9";"6";"8";"1138";"851";"1300";"2014-10-16 12:34:23.384";"1";;;;;;;;;;;;;;;;;;;;;;;;;;;;;;;;;;;;;;;;;;;;;;;;;;;;;;;;;;;;;;;;;;;;;;;;;;;;;;;;
"tettenhall1";;;"Windows 7";"Rachel's Experiment (D.T.)";"1.0";"2";"1";"1";"2";"1";"1";"2014-10-16 12:24:23.188";"2014-10-16 12:36:14.527";"1";"1";"0";"176";"175";"module.devaluation_block1.exec-1385.deval1";"7054";"2014-10-16 12:34:36.785";"12";"8";"7";"7";"1189";"739";"2096";"2014-10-16 12:34:29.734";"2";;;;;;;;;;;;;;;;;;;;;;;;;;;;;;;;;;;;;;;;;;;;;;;;;;;;;;;;;;;;;;;;;;;;;;;;;;;;;;;;
"tettenhall1";;;"Windows 7";"Rachel's Experiment (D.T.)";"1.0";"2";"1";"1";"2";"1";"1";"2014-10-16 12:24:23.188";"2014-10-16 12:36:14.527";"1";"1";"0";"177";"176";"module.devaluation_block1.exec-1385.deval1";"7093";"2014-10-16 12:34:43.900";"6";"1";"3";"4";"1362";"987";"1722";"2014-10-16 12:34:36.801";"1";;;;;;;;;;;;;;;;;;;;;;;;;;;;;;;;;;;;;;;;;;;;;;;;;;;;;;;;;;;;;;;;;;;;;;;;;;;;;;;;
"tettenhall1";;;"Windows 7";"Rachel's Experiment (D.T.)";"1.0";"2";"1";"1";"2";"1";"1";"2014-10-16 12:24:23.188";"2014-10-16 12:36:14.527";"1";"1";"0";"178";"177";"module.devaluation_block1.exec-1385.deval1";"8173";"2014-10-16 12:34:52.090";"17";"1";"2";"5";"1064";"1098";"2984";"2014-10-16 12:34:43.915";"2";;;;;;;;;;;;;;;;;;;;;;;;;;;;;;;;;;;;;;;;;;;;;;;;;;;;;;;;;;;;;;;;;;;;;;;;;;;;;;;;
"tettenhall1";;;"Windows 7";"Rachel's Experiment (D.T.)";"1.0";"2";"1";"1";"2";"1";"1";"2014-10-16 12:24:23.188";"2014-10-16 12:36:14.527";"1";"1";"0";"179";"178";"module.devaluation_block1.exec-1385.deval1";"7164";"2014-10-16 12:34:59.282";"14";"7";"8";"9";"890";"989";"2254";"2014-10-16 12:34:52.121";"2";;;;;;;;;;;;;;;;;;;;;;;;;;;;;;;;;;;;;;;;;;;;;;;;;;;;;;;;;;;;;;;;;;;;;;;;;;;;;;;;
"tettenhall1";;;"Windows 7";"Rachel's Experiment (D.T.)";"1.0";"2";"1";"1";"2";"1";"1";"2014-10-16 12:24:23.188";"2014-10-16 12:36:14.527";"1";"1";"0";"180";"179";"module.devaluation_block1.exec-1385.deval1";"5946";"2014-10-16 12:35:05.258";"3";"5";"6";"8";"570";"545";"1814";"2014-10-16 12:34:59.298";"1";;;;;;;;;;;;;;;;;;;;;;;;;;;;;;;;;;;;;;;;;;;;;;;;;;;;;;;;;;;;;;;;;;;;;;;;;;;;;;;;
"tettenhall1";;;"Windows 7";"Rachel's Experiment (D.T.)";"1.0";"2";"1";"1";"2";"1";"1";"2014-10-16 12:24:23.188";"2014-10-16 12:36:14.527";"1";"1";"0";"181";"180";"module.devaluation_block1.exec-1385.deval1";"5805";"2014-10-16 12:35:11.077";"21";"4";"9";"9";"811";"925";"1029";"2014-10-16 12:35:05.273";"3";;;;;;;;;;;;;;;;;;;;;;;;;;;;;;;;;;;;;;;;;;;;;;;;;;;;;;;;;;;;;;;;;;;;;;;;;;;;;;;;
"tettenhall1";;;"Windows 7";"Rachel's Experiment (D.T.)";"1.0";"2";"1";"1";"2";"1";"1";"2014-10-16 12:24:23.188";"2014-10-16 12:36:14.527";"1";"1";"0";"182";"181";"module.devaluation_block1.exec-1385.deval1";"6613";"2014-10-16 12:35:17.707";"1";"4";"6";"7";"1217";"1348";"1021";"2014-10-16 12:35:11.093";"1";;;;;;;;;;;;;;;;;;;;;;;;;;;;;;;;;;;;;;;;;;;;;;;;;;;;;;;;;;;;;;;;;;;;;;;;;;;;;;;;
"tettenhall1";;;"Windows 7";"Rachel's Experiment (D.T.)";"1.0";"2";"1";"1";"2";"1";"1";"2014-10-16 12:24:23.188";"2014-10-16 12:36:14.527";"1";"1";"0";"183";"182";"module.devaluation_block1.exec-1385.deval1";"6740";"2014-10-16 12:35:24.478";"18";"4";"9";"9";"891";"1517";"1303";"2014-10-16 12:35:17.739";"3";;;;;;;;;;;;;;;;;;;;;;;;;;;;;;;;;;;;;;;;;;;;;;;;;;;;;;;;;;;;;;;;;;;;;;;;;;;;;;;;
"tettenhall1";;;"Windows 7";"Rachel's Experiment (D.T.)";"1.0";"2";"1";"1";"2";"1";"1";"2014-10-16 12:24:23.188";"2014-10-16 12:36:14.527";"1";"1";"0";"184";"183";"module.devaluation_block1.exec-1385.deval1";"7708";"2014-10-16 12:35:32.201";"20";"9";"9";"8";"1080";"2506";"1089";"2014-10-16 12:35:24.494";"3";;;;;;;;;;;;;;;;;;;;;;;;;;;;;;;;;;;;;;;;;;;;;;;;;;;;;;;;;;;;;;;;;;;;;;;;;;;;;;;;
"tettenhall1";;;"Windows 7";"Rachel's Experiment (D.T.)";"1.0";"2";"1";"1";"2";"1";"1";"2014-10-16 12:24:23.188";"2014-10-16 12:36:14.527";"1";"1";"0";"185";"184";"module.devaluation_block1.exec-1385.deval1";"6869";"2014-10-16 12:35:39.097";"25";"8";"8";"9";"1678";"1251";"910";"2014-10-16 12:35:32.232";"3";;;;;;;;;;;;;;;;;;;;;;;;;;;;;;;;;;;;;;;;;;;;;;;;;;;;;;;;;;;;;;;;;;;;;;;;;;;;;;;;
"tettenhall1";;;"Windows 7";"Rachel's Experiment (D.T.)";"1.0";"2";"1";"1";"2";"1";"1";"2014-10-16 12:24:23.188";"2014-10-16 12:36:14.527";"1";"1";"0";"186";"185";"module.devaluation_block1.exec-1385.deval1";"6168";"2014-10-16 12:35:45.290";"2";"6";"7";"7";"855";"1429";"850";"2014-10-16 12:35:39.128";"1";;;;;;;;;;;;;;;;;;;;;;;;;;;;;;;;;;;;;;;;;;;;;;;;;;;;;;;;;;;;;;;;;;;;;;;;;;;;;;;;
"tettenhall1";;;"Windows 7";"Rachel's Experiment (D.T.)";"1.0";"2";"1";"1";"2";"1";"1";"2014-10-16 12:24:23.188";"2014-10-16 12:36:14.527";"1";"1";"0";"187";"186";"module.devaluation_block1.exec-1385.deval1";"6711";"2014-10-16 12:35:52.030";"10";"8";"2";"7";"806";"1738";"1144";"2014-10-16 12:35:45.322";"2";;;;;;;;;;;;;;;;;;;;;;;;;;;;;;;;;;;;;;;;;;;;;;;;;;;;;;;;;;;;;;;;;;;;;;;;;;;;;;;;
"tettenhall1";;;"Windows 7";"Rachel's Experiment (D.T.)";"1.0";"2";"1";"1";"2";"1";"1";"2014-10-16 12:24:23.188";"2014-10-16 12:36:14.527";"1";"1";"0";"188";"187";"module.devaluation_block1.exec-1385.deval1";"6988";"2014-10-16 12:35:59.035";"19";"9";"9";"9";"1202";"993";"1766";"2014-10-16 12:35:52.046";"3";;;;;;;;;;;;;;;;;;;;;;;;;;;;;;;;;;;;;;;;;;;;;;;;;;;;;;;;;;;;;;;;;;;;;;;;;;;;;;;;
"tettenhall1";;;"Windows 7";"Rachel's Experiment (D.T.)";"1.0";"2";"1";"1";"2";"1";"1";"2014-10-16 12:24:23.188";"2014-10-16 12:36:14.527";"1";"1";"0";"189";"188";"module.devaluation_block1.exec-1385.deval1";"7212";"2014-10-16 12:36:06.274";"23";"8";"2";"8";"1110";"1408";"1656";"2014-10-16 12:35:59.066";"3";;;;;;;;;;;;;;;;;;;;;;;;;;;;;;;;;;;;;;;;;;;;;;;;;;;;;;;;;;;;;;;;;;;;;;;;;;;;;;;;
"tettenhall1";;;"Windows 7";"Rachel's Experiment (D.T.)";"1.0";"2";"1";"1";"2";"1";"1";"2014-10-16 12:24:23.188";"2014-10-16 12:36:14.527";"1";"1";"0";"190";"189";"module.devaluation_block1.exec-1385.deval1";"5949";"2014-10-16 12:36:12.234";"7";"6";"3";"7";"703";"730";"1487";"2014-10-16 12:36:06.290";"1";;;;;;;;;;;;;;;;;;;;;;;;;;;;;;;;;;;;;;;;;;;;;;;;;;;;;;;;;;;;;;;;;;;;;;;;;;;;;;;;
