"user.name";"user.yearOfBirth";"user.sex";"user.osName";"module.name";"module.version";"module.online.subject.code";"module.online.study.id";"module.online.module.nr";"module.online.group.nr";"session.id";"session.index";"session.startTime";"session.endTime";"session.completed";"session.node-2541.DevalQorder";"session.node-8487.conditionType";"trial.id";"trial.index";"trial.name";"trial.deval1.durationTime";"trial.deval1.endTime";"trial.deval1.icon";"trial.deval1.Resp_Attractive";"trial.deval1.Resp_Eat";"trial.deval1.Resp_Taste";"trial.deval1.RT_Attractive";"trial.deval1.RT_Eat";"trial.deval1.RT_Taste";"trial.deval1.startTime";"trial.deval1.stimulus type";"trial.devalPractice.durationTime";"trial.devalPractice.endTime";"trial.devalPractice.icon";"trial.devalPractice.Resp_Attractive";"trial.devalPractice.Resp_Eat";"trial.devalPractice.Resp_Taste";"trial.devalPractice.RT_Attractive";"trial.devalPractice.RT_Eat";"trial.devalPractice.RT_Taste";"trial.devalPractice.startTime";"trial.devalPractice.stimulus type";"trial.GoNoGo1.durationTime";"trial.GoNoGo1.endTime";"trial.GoNoGo1.Error Type";"trial.GoNoGo1.icon";"trial.GoNoGo1.location";"trial.GoNoGo1.outcome";"trial.GoNoGo1.response";"trial.GoNoGo1.result";"trial.GoNoGo1.RT";"trial.GoNoGo1.signal";"trial.GoNoGo1.startTime";"trial.GoNoGo1.stimulus type";"trial.GoNoGo2.durationTime";"trial.GoNoGo2.endTime";"trial.GoNoGo2.Error Type";"trial.GoNoGo2.icon";"trial.GoNoGo2.location";"trial.GoNoGo2.outcome";"trial.GoNoGo2.response";"trial.GoNoGo2.result";"trial.GoNoGo2.RT";"trial.GoNoGo2.signal";"trial.GoNoGo2.startTime";"trial.GoNoGo2.stimulus type";"trial.GoNoGo3.durationTime";"trial.GoNoGo3.endTime";"trial.GoNoGo3.Error Type";"trial.GoNoGo3.icon";"trial.GoNoGo3.location";"trial.GoNoGo3.outcome";"trial.GoNoGo3.response";"trial.GoNoGo3.result";"trial.GoNoGo3.RT";"trial.GoNoGo3.signal";"trial.GoNoGo3.startTime";"trial.GoNoGo3.stimulus type";"trial.GoNoGo4.durationTime";"trial.GoNoGo4.endTime";"trial.GoNoGo4.Error Type";"trial.GoNoGo4.icon";"trial.GoNoGo4.location";"trial.GoNoGo4.outcome";"trial.GoNoGo4.response";"trial.GoNoGo4.result";"trial.GoNoGo4.RT";"trial.GoNoGo4.signal";"trial.GoNoGo4.startTime";"trial.GoNoGo4.stimulus type";"trial.GoNoGo_Practice.durationTime";"trial.GoNoGo_Practice.endTime";"trial.GoNoGo_Practice.icon";"trial.GoNoGo_Practice.location";"trial.GoNoGo_Practice.outcome";"trial.GoNoGo_Practice.response";"trial.GoNoGo_Practice.result";"trial.GoNoGo_Practice.RT";"trial.GoNoGo_Practice.signal";"trial.GoNoGo_Practice.startTime";"trial.GoNoGo_Practice.stimulus type";"trial.GoNoGo_Tutorial.durationTime";"trial.GoNoGo_Tutorial.endTime";"trial.GoNoGo_Tutorial.icon";"trial.GoNoGo_Tutorial.location";"trial.GoNoGo_Tutorial.outcome";"trial.GoNoGo_Tutorial.response";"trial.GoNoGo_Tutorial.result";"trial.GoNoGo_Tutorial.RT";"trial.GoNoGo_Tutorial.signal";"trial.GoNoGo_Tutorial.startTime"
"c1320378";;;"Windows 7";"Rachel's Experiment (D.T.)";"1.0";"2";"1";"1";"2";"1";"1";"2014-10-16 12:59:44.134";"2014-10-16 13:15:22.400";"1";"0";"0";"1";"0";"module.GoNoGotutorial.exec-9611.GoNoGo_Tutorial";;;;;;;;;;;;;;;;;;;;;;;;;;;;;;;;;;;;;;;;;;;;;;;;;;;;;;;;;;;;;;;;;;;;;;;;;;;;;;;;;;"3998";"2014-10-16 13:01:45.663";"leftResponse";"0";"FINISHED";"LEFT";"success";"1569";"0";"2014-10-16 13:01:41.654"
"c1320378";;;"Windows 7";"Rachel's Experiment (D.T.)";"1.0";"2";"1";"1";"2";"1";"1";"2014-10-16 12:59:44.134";"2014-10-16 13:15:22.400";"1";"0";"0";"2";"1";"module.GoNoGotutorial.exec-9611.GoNoGo_Tutorial";;;;;;;;;;;;;;;;;;;;;;;;;;;;;;;;;;;;;;;;;;;;;;;;;;;;;;;;;;;;;;;;;;;;;;;;;;;;;;;;;;"4003";"2014-10-16 13:01:50.967";"rightResponse";"1";"FINISHED";"RIGHT";"success";"454";"0";"2014-10-16 13:01:46.958"
"c1320378";;;"Windows 7";"Rachel's Experiment (D.T.)";"1.0";"2";"1";"1";"2";"1";"1";"2014-10-16 12:59:44.134";"2014-10-16 13:15:22.400";"1";"0";"0";"3";"2";"module.GoNoGotutorial.exec-9611.GoNoGo_Tutorial";;;;;;;;;;;;;;;;;;;;;;;;;;;;;;;;;;;;;;;;;;;;;;;;;;;;;;;;;;;;;;;;;;;;;;;;;;;;;;;;;;"4003";"2014-10-16 13:01:56.256";"quickResponse";"0";"FINISHED";"NONE";"failure";"0";"0";"2014-10-16 13:01:52.247"
"c1320378";;;"Windows 7";"Rachel's Experiment (D.T.)";"1.0";"2";"1";"1";"2";"1";"1";"2014-10-16 12:59:44.134";"2014-10-16 13:15:22.400";"1";"0";"0";"4";"3";"module.GoNoGopractice.exec-6572.GoNoGo_Practice";;;;;;;;;;;;;;;;;;;;;;;;;;;;;;;;;;;;;;;;;;;;;;;;;;;;;;;;;;;;;;;;;;;;;;;"1959";"2014-10-16 13:02:06.381";"18";"0";"FINISHED";"LEFT";"success";"349";"0";"2014-10-16 13:02:04.415";"3";;;;;;;;;;
"c1320378";;;"Windows 7";"Rachel's Experiment (D.T.)";"1.0";"2";"1";"1";"2";"1";"1";"2014-10-16 12:59:44.134";"2014-10-16 13:15:22.400";"1";"0";"0";"5";"4";"module.GoNoGopractice.exec-6572.GoNoGo_Practice";;;;;;;;;;;;;;;;;;;;;;;;;;;;;;;;;;;;;;;;;;;;;;;;;;;;;;;;;;;;;;;;;;;;;;;"1959";"2014-10-16 13:02:09.626";"21";"1";"FINISHED";"RIGHT";"success";"305";"0";"2014-10-16 13:02:07.660";"3";;;;;;;;;;
"c1320378";;;"Windows 7";"Rachel's Experiment (D.T.)";"1.0";"2";"1";"1";"2";"1";"1";"2014-10-16 12:59:44.134";"2014-10-16 13:15:22.400";"1";"0";"0";"6";"5";"module.GoNoGopractice.exec-6572.GoNoGo_Practice";;;;;;;;;;;;;;;;;;;;;;;;;;;;;;;;;;;;;;;;;;;;;;;;;;;;;;;;;;;;;;;;;;;;;;;"1959";"2014-10-16 13:02:12.871";"14";"1";"FINISHED";"RIGHT";"success";"469";"0";"2014-10-16 13:02:10.905";"2";;;;;;;;;;
"c1320378";;;"Windows 7";"Rachel's Experiment (D.T.)";"1.0";"2";"1";"1";"2";"1";"1";"2014-10-16 12:59:44.134";"2014-10-16 13:15:22.400";"1";"0";"0";"7";"6";"module.GoNoGopractice.exec-6572.GoNoGo_Practice";;;;;;;;;;;;;;;;;;;;;;;;;;;;;;;;;;;;;;;;;;;;;;;;;;;;;;;;;;;;;;;;;;;;;;;"1959";"2014-10-16 13:02:16.115";"26";"0";"FINISHED";"LEFT";"success";"256";"0";"2014-10-16 13:02:14.150";"3";;;;;;;;;;
"c1320378";;;"Windows 7";"Rachel's Experiment (D.T.)";"1.0";"2";"1";"1";"2";"1";"1";"2014-10-16 12:59:44.134";"2014-10-16 13:15:22.400";"1";"0";"0";"8";"7";"module.GoNoGopractice.exec-6572.GoNoGo_Practice";;;;;;;;;;;;;;;;;;;;;;;;;;;;;;;;;;;;;;;;;;;;;;;;;;;;;;;;;;;;;;;;;;;;;;;"1959";"2014-10-16 13:02:19.360";"2";"0";"FINISHED";"LEFT";"success";"291";"0";"2014-10-16 13:02:17.395";"1";;;;;;;;;;
"c1320378";;;"Windows 7";"Rachel's Experiment (D.T.)";"1.0";"2";"1";"1";"2";"1";"1";"2014-10-16 12:59:44.134";"2014-10-16 13:15:22.400";"1";"0";"0";"9";"8";"module.GoNoGopractice.exec-6572.GoNoGo_Practice";;;;;;;;;;;;;;;;;;;;;;;;;;;;;;;;;;;;;;;;;;;;;;;;;;;;;;;;;;;;;;;;;;;;;;;"1960";"2014-10-16 13:02:22.605";"30";"0";"FINISHED";"LEFT";"success";"334";"0";"2014-10-16 13:02:20.640";"3";;;;;;;;;;
"c1320378";;;"Windows 7";"Rachel's Experiment (D.T.)";"1.0";"2";"1";"1";"2";"1";"1";"2014-10-16 12:59:44.134";"2014-10-16 13:15:22.400";"1";"0";"0";"10";"9";"module.GoNoGopractice.exec-6572.GoNoGo_Practice";;;;;;;;;;;;;;;;;;;;;;;;;;;;;;;;;;;;;;;;;;;;;;;;;;;;;;;;;;;;;;;;;;;;;;;"1959";"2014-10-16 13:02:25.850";"6";"1";"FINISHED";"RIGHT";"success";"337";"0";"2014-10-16 13:02:23.885";"1";;;;;;;;;;
"c1320378";;;"Windows 7";"Rachel's Experiment (D.T.)";"1.0";"2";"1";"1";"2";"1";"1";"2014-10-16 12:59:44.134";"2014-10-16 13:15:22.400";"1";"0";"0";"11";"10";"module.GoNoGopractice.exec-6572.GoNoGo_Practice";;;;;;;;;;;;;;;;;;;;;;;;;;;;;;;;;;;;;;;;;;;;;;;;;;;;;;;;;;;;;;;;;;;;;;;"1960";"2014-10-16 13:02:29.126";"34";"0";"FINISHED";"LEFT";"success";"302";"0";"2014-10-16 13:02:27.161";"3";;;;;;;;;;
"c1320378";;;"Windows 7";"Rachel's Experiment (D.T.)";"1.0";"2";"1";"1";"2";"1";"1";"2014-10-16 12:59:44.134";"2014-10-16 13:15:22.400";"1";"0";"0";"12";"11";"module.GoNoGopractice.exec-6572.GoNoGo_Practice";;;;;;;;;;;;;;;;;;;;;;;;;;;;;;;;;;;;;;;;;;;;;;;;;;;;;;;;;;;;;;;;;;;;;;;"1959";"2014-10-16 13:02:32.371";"23";"1";"FINISHED";"RIGHT";"success";"568";"0";"2014-10-16 13:02:30.406";"3";;;;;;;;;;
"c1320378";;;"Windows 7";"Rachel's Experiment (D.T.)";"1.0";"2";"1";"1";"2";"1";"1";"2014-10-16 12:59:44.134";"2014-10-16 13:15:22.400";"1";"0";"0";"13";"12";"module.GoNoGopractice.exec-6572.GoNoGo_Practice";;;;;;;;;;;;;;;;;;;;;;;;;;;;;;;;;;;;;;;;;;;;;;;;;;;;;;;;;;;;;;;;;;;;;;;"1957";"2014-10-16 13:02:35.710";"13";"0";"FINISHED";"LEFT";"success";"556";"0";"2014-10-16 13:02:33.744";"2";;;;;;;;;;
"c1320378";;;"Windows 7";"Rachel's Experiment (D.T.)";"1.0";"2";"1";"1";"2";"1";"1";"2014-10-16 12:59:44.134";"2014-10-16 13:15:22.400";"1";"0";"0";"14";"13";"module.GoNoGopractice.exec-6572.GoNoGo_Practice";;;;;;;;;;;;;;;;;;;;;;;;;;;;;;;;;;;;;;;;;;;;;;;;;;;;;;;;;;;;;;;;;;;;;;;"1959";"2014-10-16 13:02:38.955";"3";"1";"FINISHED";"RIGHT";"success";"857";"0";"2014-10-16 13:02:36.989";"1";;;;;;;;;;
"c1320378";;;"Windows 7";"Rachel's Experiment (D.T.)";"1.0";"2";"1";"1";"2";"1";"1";"2014-10-16 12:59:44.134";"2014-10-16 13:15:22.400";"1";"0";"0";"15";"14";"module.GoNoGopractice.exec-6572.GoNoGo_Practice";;;;;;;;;;;;;;;;;;;;;;;;;;;;;;;;;;;;;;;;;;;;;;;;;;;;;;;;;;;;;;;;;;;;;;;"1959";"2014-10-16 13:02:42.200";"27";"1";"FINISHED";"RIGHT";"success";"492";"0";"2014-10-16 13:02:40.234";"3";;;;;;;;;;
"c1320378";;;"Windows 7";"Rachel's Experiment (D.T.)";"1.0";"2";"1";"1";"2";"1";"1";"2014-10-16 12:59:44.134";"2014-10-16 13:15:22.400";"1";"0";"0";"16";"15";"module.training_block1.exec-1839.GoNoGo1";;;;;;;;;;;;;;;;;;;;;;;"1256";"2014-10-16 13:02:54.228";"NST_correctLoc";"11";"1";"FINISHED";"RIGHT";"success";"281";"0";"2014-10-16 13:02:52.964";"2";;;;;;;;;;;;;;;;;;;;;;;;;;;;;;;;;;;;;;;;;;;;;;;;;;;;;;;;;
"c1320378";;;"Windows 7";"Rachel's Experiment (D.T.)";"1.0";"2";"1";"1";"2";"1";"1";"2014-10-16 12:59:44.134";"2014-10-16 13:15:22.400";"1";"0";"0";"17";"16";"module.training_block1.exec-1839.GoNoGo1";;;;;;;;;;;;;;;;;;;;;;;"1257";"2014-10-16 13:02:56.771";"NST_correctLoc";"2";"0";"FINISHED";"LEFT";"success";"316";"0";"2014-10-16 13:02:55.507";"1";;;;;;;;;;;;;;;;;;;;;;;;;;;;;;;;;;;;;;;;;;;;;;;;;;;;;;;;;
"c1320378";;;"Windows 7";"Rachel's Experiment (D.T.)";"1.0";"2";"1";"1";"2";"1";"1";"2014-10-16 12:59:44.134";"2014-10-16 13:15:22.400";"1";"0";"0";"18";"17";"module.training_block1.exec-1839.GoNoGo1";;;;;;;;;;;;;;;;;;;;;;;"1257";"2014-10-16 13:02:59.314";"NST_correctLoc";"7";"0";"FINISHED";"LEFT";"success";"301";"0";"2014-10-16 13:02:58.050";"1";;;;;;;;;;;;;;;;;;;;;;;;;;;;;;;;;;;;;;;;;;;;;;;;;;;;;;;;;
"c1320378";;;"Windows 7";"Rachel's Experiment (D.T.)";"1.0";"2";"1";"1";"2";"1";"1";"2014-10-16 12:59:44.134";"2014-10-16 13:15:22.400";"1";"0";"0";"19";"18";"module.training_block1.exec-1839.GoNoGo1";;;;;;;;;;;;;;;;;;;;;;;"1258";"2014-10-16 13:03:01.856";"NST_correctLoc";"9";"1";"FINISHED";"RIGHT";"success";"318";"0";"2014-10-16 13:03:00.593";"2";;;;;;;;;;;;;;;;;;;;;;;;;;;;;;;;;;;;;;;;;;;;;;;;;;;;;;;;;
"c1320378";;;"Windows 7";"Rachel's Experiment (D.T.)";"1.0";"2";"1";"1";"2";"1";"1";"2014-10-16 12:59:44.134";"2014-10-16 13:15:22.400";"1";"0";"0";"20";"19";"module.training_block1.exec-1839.GoNoGo1";;;;;;;;;;;;;;;;;;;;;;;"1258";"2014-10-16 13:03:04.399";"NST_correctLoc";"12";"1";"FINISHED";"RIGHT";"success";"336";"0";"2014-10-16 13:03:03.136";"2";;;;;;;;;;;;;;;;;;;;;;;;;;;;;;;;;;;;;;;;;;;;;;;;;;;;;;;;;
"c1320378";;;"Windows 7";"Rachel's Experiment (D.T.)";"1.0";"2";"1";"1";"2";"1";"1";"2014-10-16 12:59:44.134";"2014-10-16 13:15:22.400";"1";"0";"0";"21";"20";"module.training_block1.exec-1839.GoNoGo1";;;;;;;;;;;;;;;;;;;;;;;"1258";"2014-10-16 13:03:06.942";"NST_correctLoc";"25";"0";"FINISHED";"LEFT";"success";"249";"0";"2014-10-16 13:03:05.679";"3";;;;;;;;;;;;;;;;;;;;;;;;;;;;;;;;;;;;;;;;;;;;;;;;;;;;;;;;;
"c1320378";;;"Windows 7";"Rachel's Experiment (D.T.)";"1.0";"2";"1";"1";"2";"1";"1";"2014-10-16 12:59:44.134";"2014-10-16 13:15:22.400";"1";"0";"0";"22";"21";"module.training_block1.exec-1839.GoNoGo1";;;;;;;;;;;;;;;;;;;;;;;"1257";"2014-10-16 13:03:09.485";"NST_correctLoc";"29";"1";"FINISHED";"RIGHT";"success";"297";"0";"2014-10-16 13:03:08.221";"3";;;;;;;;;;;;;;;;;;;;;;;;;;;;;;;;;;;;;;;;;;;;;;;;;;;;;;;;;
"c1320378";;;"Windows 7";"Rachel's Experiment (D.T.)";"1.0";"2";"1";"1";"2";"1";"1";"2014-10-16 12:59:44.134";"2014-10-16 13:15:22.400";"1";"0";"0";"23";"22";"module.training_block1.exec-1839.GoNoGo1";;;;;;;;;;;;;;;;;;;;;;;"1260";"2014-10-16 13:03:12.028";"NST_correctLoc";"14";"1";"FINISHED";"RIGHT";"success";"302";"0";"2014-10-16 13:03:10.764";"2";;;;;;;;;;;;;;;;;;;;;;;;;;;;;;;;;;;;;;;;;;;;;;;;;;;;;;;;;
"c1320378";;;"Windows 7";"Rachel's Experiment (D.T.)";"1.0";"2";"1";"1";"2";"1";"1";"2014-10-16 12:59:44.134";"2014-10-16 13:15:22.400";"1";"0";"0";"24";"23";"module.training_block1.exec-1839.GoNoGo1";;;;;;;;;;;;;;;;;;;;;;;"1258";"2014-10-16 13:03:14.571";"NST_correctLoc";"33";"0";"FINISHED";"LEFT";"success";"301";"0";"2014-10-16 13:03:13.307";"3";;;;;;;;;;;;;;;;;;;;;;;;;;;;;;;;;;;;;;;;;;;;;;;;;;;;;;;;;
"c1320378";;;"Windows 7";"Rachel's Experiment (D.T.)";"1.0";"2";"1";"1";"2";"1";"1";"2014-10-16 12:59:44.134";"2014-10-16 13:15:22.400";"1";"0";"0";"25";"24";"module.training_block1.exec-1839.GoNoGo1";;;;;;;;;;;;;;;;;;;;;;;"1257";"2014-10-16 13:03:17.114";"NST_correctLoc";"22";"1";"FINISHED";"RIGHT";"success";"261";"0";"2014-10-16 13:03:15.850";"3";;;;;;;;;;;;;;;;;;;;;;;;;;;;;;;;;;;;;;;;;;;;;;;;;;;;;;;;;
"c1320378";;;"Windows 7";"Rachel's Experiment (D.T.)";"1.0";"2";"1";"1";"2";"1";"1";"2014-10-16 12:59:44.134";"2014-10-16 13:15:22.400";"1";"0";"0";"26";"25";"module.training_block1.exec-1839.GoNoGo1";;;;;;;;;;;;;;;;;;;;;;;"1258";"2014-10-16 13:03:19.657";"NST_correctLoc";"35";"1";"FINISHED";"RIGHT";"success";"367";"0";"2014-10-16 13:03:18.393";"3";;;;;;;;;;;;;;;;;;;;;;;;;;;;;;;;;;;;;;;;;;;;;;;;;;;;;;;;;
"c1320378";;;"Windows 7";"Rachel's Experiment (D.T.)";"1.0";"2";"1";"1";"2";"1";"1";"2014-10-16 12:59:44.134";"2014-10-16 13:15:22.400";"1";"0";"0";"27";"26";"module.training_block1.exec-1839.GoNoGo1";;;;;;;;;;;;;;;;;;;;;;;"1252";"2014-10-16 13:03:22.200";"NST_correctLoc";"32";"1";"FINISHED";"RIGHT";"success";"354";"0";"2014-10-16 13:03:20.936";"3";;;;;;;;;;;;;;;;;;;;;;;;;;;;;;;;;;;;;;;;;;;;;;;;;;;;;;;;;
"c1320378";;;"Windows 7";"Rachel's Experiment (D.T.)";"1.0";"2";"1";"1";"2";"1";"1";"2014-10-16 12:59:44.134";"2014-10-16 13:15:22.400";"1";"0";"0";"28";"27";"module.training_block1.exec-1839.GoNoGo1";;;;;;;;;;;;;;;;;;;;;;;"1257";"2014-10-16 13:03:24.742";"NST_correctLoc";"31";"0";"FINISHED";"LEFT";"success";"273";"0";"2014-10-16 13:03:23.479";"3";;;;;;;;;;;;;;;;;;;;;;;;;;;;;;;;;;;;;;;;;;;;;;;;;;;;;;;;;
"c1320378";;;"Windows 7";"Rachel's Experiment (D.T.)";"1.0";"2";"1";"1";"2";"1";"1";"2014-10-16 12:59:44.134";"2014-10-16 13:15:22.400";"1";"0";"0";"29";"28";"module.training_block1.exec-1839.GoNoGo1";;;;;;;;;;;;;;;;;;;;;;;"1258";"2014-10-16 13:03:27.285";"NST_correctLoc";"1";"0";"FINISHED";"LEFT";"success";"418";"0";"2014-10-16 13:03:26.022";"1";;;;;;;;;;;;;;;;;;;;;;;;;;;;;;;;;;;;;;;;;;;;;;;;;;;;;;;;;
"c1320378";;;"Windows 7";"Rachel's Experiment (D.T.)";"1.0";"2";"1";"1";"2";"1";"1";"2014-10-16 12:59:44.134";"2014-10-16 13:15:22.400";"1";"0";"0";"30";"29";"module.training_block1.exec-1839.GoNoGo1";;;;;;;;;;;;;;;;;;;;;;;"1258";"2014-10-16 13:03:29.828";"NST_correctLoc";"0";"0";"FINISHED";"LEFT";"success";"339";"0";"2014-10-16 13:03:28.565";"1";;;;;;;;;;;;;;;;;;;;;;;;;;;;;;;;;;;;;;;;;;;;;;;;;;;;;;;;;
"c1320378";;;"Windows 7";"Rachel's Experiment (D.T.)";"1.0";"2";"1";"1";"2";"1";"1";"2014-10-16 12:59:44.134";"2014-10-16 13:15:22.400";"1";"0";"0";"31";"30";"module.training_block1.exec-1839.GoNoGo1";;;;;;;;;;;;;;;;;;;;;;;"1261";"2014-10-16 13:03:32.371";"NST_correctLoc";"27";"0";"FINISHED";"LEFT";"success";"344";"0";"2014-10-16 13:03:31.108";"3";;;;;;;;;;;;;;;;;;;;;;;;;;;;;;;;;;;;;;;;;;;;;;;;;;;;;;;;;
"c1320378";;;"Windows 7";"Rachel's Experiment (D.T.)";"1.0";"2";"1";"1";"2";"1";"1";"2014-10-16 12:59:44.134";"2014-10-16 13:15:22.400";"1";"0";"0";"32";"31";"module.training_block1.exec-1839.GoNoGo1";;;;;;;;;;;;;;;;;;;;;;;"1257";"2014-10-16 13:03:34.914";"NST_correctLoc";"4";"1";"FINISHED";"RIGHT";"success";"229";"0";"2014-10-16 13:03:33.650";"1";;;;;;;;;;;;;;;;;;;;;;;;;;;;;;;;;;;;;;;;;;;;;;;;;;;;;;;;;
"c1320378";;;"Windows 7";"Rachel's Experiment (D.T.)";"1.0";"2";"1";"1";"2";"1";"1";"2014-10-16 12:59:44.134";"2014-10-16 13:15:22.400";"1";"0";"0";"33";"32";"module.training_block1.exec-1839.GoNoGo1";;;;;;;;;;;;;;;;;;;;;;;"1258";"2014-10-16 13:03:37.457";"NST_correctLoc";"24";"1";"FINISHED";"RIGHT";"success";"335";"0";"2014-10-16 13:03:36.193";"3";;;;;;;;;;;;;;;;;;;;;;;;;;;;;;;;;;;;;;;;;;;;;;;;;;;;;;;;;
"c1320378";;;"Windows 7";"Rachel's Experiment (D.T.)";"1.0";"2";"1";"1";"2";"1";"1";"2014-10-16 12:59:44.134";"2014-10-16 13:15:22.400";"1";"0";"0";"34";"33";"module.training_block1.exec-1839.GoNoGo1";;;;;;;;;;;;;;;;;;;;;;;"1257";"2014-10-16 13:03:40.000";"NST_correctLoc";"10";"0";"FINISHED";"LEFT";"success";"287";"0";"2014-10-16 13:03:38.736";"2";;;;;;;;;;;;;;;;;;;;;;;;;;;;;;;;;;;;;;;;;;;;;;;;;;;;;;;;;
"c1320378";;;"Windows 7";"Rachel's Experiment (D.T.)";"1.0";"2";"1";"1";"2";"1";"1";"2014-10-16 12:59:44.134";"2014-10-16 13:15:22.400";"1";"0";"0";"35";"34";"module.training_block1.exec-1839.GoNoGo1";;;;;;;;;;;;;;;;;;;;;;;"1257";"2014-10-16 13:03:42.543";"NST_correctLoc";"21";"1";"FINISHED";"RIGHT";"success";"265";"0";"2014-10-16 13:03:41.279";"3";;;;;;;;;;;;;;;;;;;;;;;;;;;;;;;;;;;;;;;;;;;;;;;;;;;;;;;;;
"c1320378";;;"Windows 7";"Rachel's Experiment (D.T.)";"1.0";"2";"1";"1";"2";"1";"1";"2014-10-16 12:59:44.134";"2014-10-16 13:15:22.400";"1";"0";"0";"36";"35";"module.training_block1.exec-1839.GoNoGo1";;;;;;;;;;;;;;;;;;;;;;;"1257";"2014-10-16 13:03:45.086";"NST_correctLoc";"23";"0";"FINISHED";"LEFT";"success";"290";"0";"2014-10-16 13:03:43.822";"3";;;;;;;;;;;;;;;;;;;;;;;;;;;;;;;;;;;;;;;;;;;;;;;;;;;;;;;;;
"c1320378";;;"Windows 7";"Rachel's Experiment (D.T.)";"1.0";"2";"1";"1";"2";"1";"1";"2014-10-16 12:59:44.134";"2014-10-16 13:15:22.400";"1";"0";"0";"37";"36";"module.training_block1.exec-1839.GoNoGo1";;;;;;;;;;;;;;;;;;;;;;;"1258";"2014-10-16 13:03:47.629";"NST_correctLoc";"5";"0";"FINISHED";"LEFT";"success";"324";"0";"2014-10-16 13:03:46.365";"1";;;;;;;;;;;;;;;;;;;;;;;;;;;;;;;;;;;;;;;;;;;;;;;;;;;;;;;;;
"c1320378";;;"Windows 7";"Rachel's Experiment (D.T.)";"1.0";"2";"1";"1";"2";"1";"1";"2014-10-16 12:59:44.134";"2014-10-16 13:15:22.400";"1";"0";"0";"38";"37";"module.training_block1.exec-1839.GoNoGo1";;;;;;;;;;;;;;;;;;;;;;;"1257";"2014-10-16 13:03:50.171";"NST_correctLoc";"8";"1";"FINISHED";"RIGHT";"success";"364";"0";"2014-10-16 13:03:48.908";"1";;;;;;;;;;;;;;;;;;;;;;;;;;;;;;;;;;;;;;;;;;;;;;;;;;;;;;;;;
"c1320378";;;"Windows 7";"Rachel's Experiment (D.T.)";"1.0";"2";"1";"1";"2";"1";"1";"2014-10-16 12:59:44.134";"2014-10-16 13:15:22.400";"1";"0";"0";"39";"38";"module.training_block1.exec-1839.GoNoGo1";;;;;;;;;;;;;;;;;;;;;;;"1257";"2014-10-16 13:03:52.714";"NST_correctLoc";"15";"1";"FINISHED";"RIGHT";"success";"317";"0";"2014-10-16 13:03:51.451";"2";;;;;;;;;;;;;;;;;;;;;;;;;;;;;;;;;;;;;;;;;;;;;;;;;;;;;;;;;
"c1320378";;;"Windows 7";"Rachel's Experiment (D.T.)";"1.0";"2";"1";"1";"2";"1";"1";"2014-10-16 12:59:44.134";"2014-10-16 13:15:22.400";"1";"0";"0";"40";"39";"module.training_block1.exec-1839.GoNoGo1";;;;;;;;;;;;;;;;;;;;;;;"1258";"2014-10-16 13:03:55.257";"NST_correctLoc";"34";"1";"FINISHED";"RIGHT";"success";"352";"0";"2014-10-16 13:03:53.994";"3";;;;;;;;;;;;;;;;;;;;;;;;;;;;;;;;;;;;;;;;;;;;;;;;;;;;;;;;;
"c1320378";;;"Windows 7";"Rachel's Experiment (D.T.)";"1.0";"2";"1";"1";"2";"1";"1";"2014-10-16 12:59:44.134";"2014-10-16 13:15:22.400";"1";"0";"0";"41";"40";"module.training_block1.exec-1839.GoNoGo1";;;;;;;;;;;;;;;;;;;;;;;"1258";"2014-10-16 13:03:57.800";"NST_correctLoc";"20";"0";"FINISHED";"LEFT";"success";"296";"0";"2014-10-16 13:03:56.537";"3";;;;;;;;;;;;;;;;;;;;;;;;;;;;;;;;;;;;;;;;;;;;;;;;;;;;;;;;;
"c1320378";;;"Windows 7";"Rachel's Experiment (D.T.)";"1.0";"2";"1";"1";"2";"1";"1";"2014-10-16 12:59:44.134";"2014-10-16 13:15:22.400";"1";"0";"0";"42";"41";"module.training_block1.exec-1839.GoNoGo1";;;;;;;;;;;;;;;;;;;;;;;"1258";"2014-10-16 13:04:00.343";"NST_correctLoc";"19";"0";"FINISHED";"LEFT";"success";"402";"0";"2014-10-16 13:03:59.079";"3";;;;;;;;;;;;;;;;;;;;;;;;;;;;;;;;;;;;;;;;;;;;;;;;;;;;;;;;;
"c1320378";;;"Windows 7";"Rachel's Experiment (D.T.)";"1.0";"2";"1";"1";"2";"1";"1";"2014-10-16 12:59:44.134";"2014-10-16 13:15:22.400";"1";"0";"0";"43";"42";"module.training_block1.exec-1839.GoNoGo1";;;;;;;;;;;;;;;;;;;;;;;"1258";"2014-10-16 13:04:02.886";"NST_correctLoc";"16";"1";"FINISHED";"RIGHT";"success";"299";"0";"2014-10-16 13:04:01.622";"2";;;;;;;;;;;;;;;;;;;;;;;;;;;;;;;;;;;;;;;;;;;;;;;;;;;;;;;;;
"c1320378";;;"Windows 7";"Rachel's Experiment (D.T.)";"1.0";"2";"1";"1";"2";"1";"1";"2014-10-16 12:59:44.134";"2014-10-16 13:15:22.400";"1";"0";"0";"44";"43";"module.training_block1.exec-1839.GoNoGo1";;;;;;;;;;;;;;;;;;;;;;;"1258";"2014-10-16 13:04:05.429";"NST_correctLoc";"28";"1";"FINISHED";"RIGHT";"success";"356";"0";"2014-10-16 13:04:04.165";"3";;;;;;;;;;;;;;;;;;;;;;;;;;;;;;;;;;;;;;;;;;;;;;;;;;;;;;;;;
"c1320378";;;"Windows 7";"Rachel's Experiment (D.T.)";"1.0";"2";"1";"1";"2";"1";"1";"2014-10-16 12:59:44.134";"2014-10-16 13:15:22.400";"1";"0";"0";"45";"44";"module.training_block1.exec-1839.GoNoGo1";;;;;;;;;;;;;;;;;;;;;;;"1258";"2014-10-16 13:04:07.972";"NST_correctLoc";"18";"1";"FINISHED";"RIGHT";"success";"373";"0";"2014-10-16 13:04:06.708";"3";;;;;;;;;;;;;;;;;;;;;;;;;;;;;;;;;;;;;;;;;;;;;;;;;;;;;;;;;
"c1320378";;;"Windows 7";"Rachel's Experiment (D.T.)";"1.0";"2";"1";"1";"2";"1";"1";"2014-10-16 12:59:44.134";"2014-10-16 13:15:22.400";"1";"0";"0";"46";"45";"module.training_block1.exec-1839.GoNoGo1";;;;;;;;;;;;;;;;;;;;;;;"1257";"2014-10-16 13:04:10.515";"NST_correctLoc";"30";"0";"FINISHED";"LEFT";"success";"414";"0";"2014-10-16 13:04:09.251";"3";;;;;;;;;;;;;;;;;;;;;;;;;;;;;;;;;;;;;;;;;;;;;;;;;;;;;;;;;
"c1320378";;;"Windows 7";"Rachel's Experiment (D.T.)";"1.0";"2";"1";"1";"2";"1";"1";"2014-10-16 12:59:44.134";"2014-10-16 13:15:22.400";"1";"0";"0";"47";"46";"module.training_block1.exec-1839.GoNoGo1";;;;;;;;;;;;;;;;;;;;;;;"1261";"2014-10-16 13:04:13.058";"NST_correctLoc";"3";"1";"FINISHED";"RIGHT";"success";"291";"0";"2014-10-16 13:04:11.794";"1";;;;;;;;;;;;;;;;;;;;;;;;;;;;;;;;;;;;;;;;;;;;;;;;;;;;;;;;;
"c1320378";;;"Windows 7";"Rachel's Experiment (D.T.)";"1.0";"2";"1";"1";"2";"1";"1";"2014-10-16 12:59:44.134";"2014-10-16 13:15:22.400";"1";"0";"0";"48";"47";"module.training_block1.exec-1839.GoNoGo1";;;;;;;;;;;;;;;;;;;;;;;"1257";"2014-10-16 13:04:15.600";"NST_correctLoc";"6";"0";"FINISHED";"LEFT";"success";"256";"0";"2014-10-16 13:04:14.337";"1";;;;;;;;;;;;;;;;;;;;;;;;;;;;;;;;;;;;;;;;;;;;;;;;;;;;;;;;;
"c1320378";;;"Windows 7";"Rachel's Experiment (D.T.)";"1.0";"2";"1";"1";"2";"1";"1";"2014-10-16 12:59:44.134";"2014-10-16 13:15:22.400";"1";"0";"0";"49";"48";"module.training_block1.exec-1839.GoNoGo1";;;;;;;;;;;;;;;;;;;;;;;"1257";"2014-10-16 13:04:18.143";"NST_correctLoc";"17";"0";"FINISHED";"LEFT";"success";"393";"0";"2014-10-16 13:04:16.880";"2";;;;;;;;;;;;;;;;;;;;;;;;;;;;;;;;;;;;;;;;;;;;;;;;;;;;;;;;;
"c1320378";;;"Windows 7";"Rachel's Experiment (D.T.)";"1.0";"2";"1";"1";"2";"1";"1";"2014-10-16 12:59:44.134";"2014-10-16 13:15:22.400";"1";"0";"0";"50";"49";"module.training_block1.exec-1839.GoNoGo1";;;;;;;;;;;;;;;;;;;;;;;"1261";"2014-10-16 13:04:20.686";"NST_correctLoc";"13";"1";"FINISHED";"RIGHT";"success";"294";"0";"2014-10-16 13:04:19.423";"2";;;;;;;;;;;;;;;;;;;;;;;;;;;;;;;;;;;;;;;;;;;;;;;;;;;;;;;;;
"c1320378";;;"Windows 7";"Rachel's Experiment (D.T.)";"1.0";"2";"1";"1";"2";"1";"1";"2014-10-16 12:59:44.134";"2014-10-16 13:15:22.400";"1";"0";"0";"51";"50";"module.training_block1.exec-1839.GoNoGo1";;;;;;;;;;;;;;;;;;;;;;;"1257";"2014-10-16 13:04:23.229";"NST_correctLoc";"26";"0";"FINISHED";"LEFT";"success";"316";"0";"2014-10-16 13:04:21.965";"3";;;;;;;;;;;;;;;;;;;;;;;;;;;;;;;;;;;;;;;;;;;;;;;;;;;;;;;;;
"c1320378";;;"Windows 7";"Rachel's Experiment (D.T.)";"1.0";"2";"1";"1";"2";"1";"1";"2014-10-16 12:59:44.134";"2014-10-16 13:15:22.400";"1";"0";"0";"52";"51";"module.training_block2.exec-6816.GoNoGo2";;;;;;;;;;;;;;;;;;;;;;;;;;;;;;;;;;;"1261";"2014-10-16 13:04:35.086";"NST_correctLoc";"30";"0";"FINISHED";"LEFT";"success";"319";"0";"2014-10-16 13:04:33.822";"3";;;;;;;;;;;;;;;;;;;;;;;;;;;;;;;;;;;;;;;;;;;;;
"c1320378";;;"Windows 7";"Rachel's Experiment (D.T.)";"1.0";"2";"1";"1";"2";"1";"1";"2014-10-16 12:59:44.134";"2014-10-16 13:15:22.400";"1";"0";"0";"53";"52";"module.training_block2.exec-6816.GoNoGo2";;;;;;;;;;;;;;;;;;;;;;;;;;;;;;;;;;;"1261";"2014-10-16 13:04:37.629";"NST_correctLoc";"0";"0";"FINISHED";"LEFT";"success";"329";"0";"2014-10-16 13:04:36.365";"1";;;;;;;;;;;;;;;;;;;;;;;;;;;;;;;;;;;;;;;;;;;;;
"c1320378";;;"Windows 7";"Rachel's Experiment (D.T.)";"1.0";"2";"1";"1";"2";"1";"1";"2014-10-16 12:59:44.134";"2014-10-16 13:15:22.400";"1";"0";"0";"54";"53";"module.training_block2.exec-6816.GoNoGo2";;;;;;;;;;;;;;;;;;;;;;;;;;;;;;;;;;;"1261";"2014-10-16 13:04:40.171";"NST_correctLoc";"2";"0";"FINISHED";"LEFT";"success";"338";"0";"2014-10-16 13:04:38.908";"1";;;;;;;;;;;;;;;;;;;;;;;;;;;;;;;;;;;;;;;;;;;;;
"c1320378";;;"Windows 7";"Rachel's Experiment (D.T.)";"1.0";"2";"1";"1";"2";"1";"1";"2014-10-16 12:59:44.134";"2014-10-16 13:15:22.400";"1";"0";"0";"55";"54";"module.training_block2.exec-6816.GoNoGo2";;;;;;;;;;;;;;;;;;;;;;;;;;;;;;;;;;;"1261";"2014-10-16 13:04:42.714";"NST_correctLoc";"9";"0";"FINISHED";"LEFT";"success";"499";"0";"2014-10-16 13:04:41.451";"2";;;;;;;;;;;;;;;;;;;;;;;;;;;;;;;;;;;;;;;;;;;;;
"c1320378";;;"Windows 7";"Rachel's Experiment (D.T.)";"1.0";"2";"1";"1";"2";"1";"1";"2014-10-16 12:59:44.134";"2014-10-16 13:15:22.400";"1";"0";"0";"56";"55";"module.training_block2.exec-6816.GoNoGo2";;;;;;;;;;;;;;;;;;;;;;;;;;;;;;;;;;;"1261";"2014-10-16 13:04:45.257";"NST_correctLoc";"17";"0";"FINISHED";"LEFT";"success";"332";"0";"2014-10-16 13:04:43.994";"2";;;;;;;;;;;;;;;;;;;;;;;;;;;;;;;;;;;;;;;;;;;;;
"c1320378";;;"Windows 7";"Rachel's Experiment (D.T.)";"1.0";"2";"1";"1";"2";"1";"1";"2014-10-16 12:59:44.134";"2014-10-16 13:15:22.400";"1";"0";"0";"57";"56";"module.training_block2.exec-6816.GoNoGo2";;;;;;;;;;;;;;;;;;;;;;;;;;;;;;;;;;;"1261";"2014-10-16 13:04:47.800";"NST_correctLoc";"32";"1";"FINISHED";"RIGHT";"success";"277";"0";"2014-10-16 13:04:46.536";"3";;;;;;;;;;;;;;;;;;;;;;;;;;;;;;;;;;;;;;;;;;;;;
"c1320378";;;"Windows 7";"Rachel's Experiment (D.T.)";"1.0";"2";"1";"1";"2";"1";"1";"2014-10-16 12:59:44.134";"2014-10-16 13:15:22.400";"1";"0";"0";"58";"57";"module.training_block2.exec-6816.GoNoGo2";;;;;;;;;;;;;;;;;;;;;;;;;;;;;;;;;;;"1261";"2014-10-16 13:04:50.343";"NST_correctLoc";"18";"0";"FINISHED";"LEFT";"success";"311";"0";"2014-10-16 13:04:49.079";"3";;;;;;;;;;;;;;;;;;;;;;;;;;;;;;;;;;;;;;;;;;;;;
"c1320378";;;"Windows 7";"Rachel's Experiment (D.T.)";"1.0";"2";"1";"1";"2";"1";"1";"2014-10-16 12:59:44.134";"2014-10-16 13:15:22.400";"1";"0";"0";"59";"58";"module.training_block2.exec-6816.GoNoGo2";;;;;;;;;;;;;;;;;;;;;;;;;;;;;;;;;;;"1261";"2014-10-16 13:04:52.886";"NST_correctLoc";"33";"1";"FINISHED";"RIGHT";"success";"304";"0";"2014-10-16 13:04:51.622";"3";;;;;;;;;;;;;;;;;;;;;;;;;;;;;;;;;;;;;;;;;;;;;
"c1320378";;;"Windows 7";"Rachel's Experiment (D.T.)";"1.0";"2";"1";"1";"2";"1";"1";"2014-10-16 12:59:44.134";"2014-10-16 13:15:22.400";"1";"0";"0";"60";"59";"module.training_block2.exec-6816.GoNoGo2";;;;;;;;;;;;;;;;;;;;;;;;;;;;;;;;;;;"1261";"2014-10-16 13:04:55.429";"NST_correctLoc";"13";"1";"FINISHED";"RIGHT";"success";"329";"0";"2014-10-16 13:04:54.165";"2";;;;;;;;;;;;;;;;;;;;;;;;;;;;;;;;;;;;;;;;;;;;;
"c1320378";;;"Windows 7";"Rachel's Experiment (D.T.)";"1.0";"2";"1";"1";"2";"1";"1";"2014-10-16 12:59:44.134";"2014-10-16 13:15:22.400";"1";"0";"0";"61";"60";"module.training_block2.exec-6816.GoNoGo2";;;;;;;;;;;;;;;;;;;;;;;;;;;;;;;;;;;"1261";"2014-10-16 13:04:57.972";"NST_correctLoc";"8";"0";"FINISHED";"LEFT";"success";"290";"0";"2014-10-16 13:04:56.708";"1";;;;;;;;;;;;;;;;;;;;;;;;;;;;;;;;;;;;;;;;;;;;;
"c1320378";;;"Windows 7";"Rachel's Experiment (D.T.)";"1.0";"2";"1";"1";"2";"1";"1";"2014-10-16 12:59:44.134";"2014-10-16 13:15:22.400";"1";"0";"0";"62";"61";"module.training_block2.exec-6816.GoNoGo2";;;;;;;;;;;;;;;;;;;;;;;;;;;;;;;;;;;"1261";"2014-10-16 13:05:00.515";"NST_correctLoc";"14";"1";"FINISHED";"RIGHT";"success";"251";"0";"2014-10-16 13:04:59.251";"2";;;;;;;;;;;;;;;;;;;;;;;;;;;;;;;;;;;;;;;;;;;;;
"c1320378";;;"Windows 7";"Rachel's Experiment (D.T.)";"1.0";"2";"1";"1";"2";"1";"1";"2014-10-16 12:59:44.134";"2014-10-16 13:15:22.400";"1";"0";"0";"63";"62";"module.training_block2.exec-6816.GoNoGo2";;;;;;;;;;;;;;;;;;;;;;;;;;;;;;;;;;;"1261";"2014-10-16 13:05:03.057";"NST_correctLoc";"4";"0";"FINISHED";"LEFT";"success";"253";"0";"2014-10-16 13:05:01.794";"1";;;;;;;;;;;;;;;;;;;;;;;;;;;;;;;;;;;;;;;;;;;;;
"c1320378";;;"Windows 7";"Rachel's Experiment (D.T.)";"1.0";"2";"1";"1";"2";"1";"1";"2014-10-16 12:59:44.134";"2014-10-16 13:15:22.400";"1";"0";"0";"64";"63";"module.training_block2.exec-6816.GoNoGo2";;;;;;;;;;;;;;;;;;;;;;;;;;;;;;;;;;;"1261";"2014-10-16 13:05:05.600";"NST_correctLoc";"12";"1";"FINISHED";"RIGHT";"success";"326";"0";"2014-10-16 13:05:04.337";"2";;;;;;;;;;;;;;;;;;;;;;;;;;;;;;;;;;;;;;;;;;;;;
"c1320378";;;"Windows 7";"Rachel's Experiment (D.T.)";"1.0";"2";"1";"1";"2";"1";"1";"2014-10-16 12:59:44.134";"2014-10-16 13:15:22.400";"1";"0";"0";"65";"64";"module.training_block2.exec-6816.GoNoGo2";;;;;;;;;;;;;;;;;;;;;;;;;;;;;;;;;;;"1261";"2014-10-16 13:05:08.143";"NST_correctLoc";"29";"1";"FINISHED";"RIGHT";"success";"303";"0";"2014-10-16 13:05:06.880";"3";;;;;;;;;;;;;;;;;;;;;;;;;;;;;;;;;;;;;;;;;;;;;
"c1320378";;;"Windows 7";"Rachel's Experiment (D.T.)";"1.0";"2";"1";"1";"2";"1";"1";"2014-10-16 12:59:44.134";"2014-10-16 13:15:22.400";"1";"0";"0";"66";"65";"module.training_block2.exec-6816.GoNoGo2";;;;;;;;;;;;;;;;;;;;;;;;;;;;;;;;;;;"1261";"2014-10-16 13:05:10.686";"NST_correctLoc";"31";"1";"FINISHED";"RIGHT";"success";"336";"0";"2014-10-16 13:05:09.423";"3";;;;;;;;;;;;;;;;;;;;;;;;;;;;;;;;;;;;;;;;;;;;;
"c1320378";;;"Windows 7";"Rachel's Experiment (D.T.)";"1.0";"2";"1";"1";"2";"1";"1";"2014-10-16 12:59:44.134";"2014-10-16 13:15:22.400";"1";"0";"0";"67";"66";"module.training_block2.exec-6816.GoNoGo2";;;;;;;;;;;;;;;;;;;;;;;;;;;;;;;;;;;"1261";"2014-10-16 13:05:13.229";"NST_correctLoc";"21";"0";"FINISHED";"LEFT";"success";"265";"0";"2014-10-16 13:05:11.965";"3";;;;;;;;;;;;;;;;;;;;;;;;;;;;;;;;;;;;;;;;;;;;;
"c1320378";;;"Windows 7";"Rachel's Experiment (D.T.)";"1.0";"2";"1";"1";"2";"1";"1";"2014-10-16 12:59:44.134";"2014-10-16 13:15:22.400";"1";"0";"0";"68";"67";"module.training_block2.exec-6816.GoNoGo2";;;;;;;;;;;;;;;;;;;;;;;;;;;;;;;;;;;"1261";"2014-10-16 13:05:15.772";"NST_correctLoc";"7";"1";"FINISHED";"RIGHT";"success";"378";"0";"2014-10-16 13:05:14.508";"1";;;;;;;;;;;;;;;;;;;;;;;;;;;;;;;;;;;;;;;;;;;;;
"c1320378";;;"Windows 7";"Rachel's Experiment (D.T.)";"1.0";"2";"1";"1";"2";"1";"1";"2014-10-16 12:59:44.134";"2014-10-16 13:15:22.400";"1";"0";"0";"69";"68";"module.training_block2.exec-6816.GoNoGo2";;;;;;;;;;;;;;;;;;;;;;;;;;;;;;;;;;;"1261";"2014-10-16 13:05:18.315";"NST_correctLoc";"24";"1";"FINISHED";"RIGHT";"success";"419";"0";"2014-10-16 13:05:17.051";"3";;;;;;;;;;;;;;;;;;;;;;;;;;;;;;;;;;;;;;;;;;;;;
"c1320378";;;"Windows 7";"Rachel's Experiment (D.T.)";"1.0";"2";"1";"1";"2";"1";"1";"2014-10-16 12:59:44.134";"2014-10-16 13:15:22.400";"1";"0";"0";"70";"69";"module.training_block2.exec-6816.GoNoGo2";;;;;;;;;;;;;;;;;;;;;;;;;;;;;;;;;;;"1261";"2014-10-16 13:05:20.858";"NST_correctLoc";"10";"1";"FINISHED";"RIGHT";"success";"317";"0";"2014-10-16 13:05:19.594";"2";;;;;;;;;;;;;;;;;;;;;;;;;;;;;;;;;;;;;;;;;;;;;
"c1320378";;;"Windows 7";"Rachel's Experiment (D.T.)";"1.0";"2";"1";"1";"2";"1";"1";"2014-10-16 12:59:44.134";"2014-10-16 13:15:22.400";"1";"0";"0";"71";"70";"module.training_block2.exec-6816.GoNoGo2";;;;;;;;;;;;;;;;;;;;;;;;;;;;;;;;;;;"1261";"2014-10-16 13:05:23.401";"NST_correctLoc";"20";"0";"FINISHED";"LEFT";"success";"374";"0";"2014-10-16 13:05:22.137";"3";;;;;;;;;;;;;;;;;;;;;;;;;;;;;;;;;;;;;;;;;;;;;
"c1320378";;;"Windows 7";"Rachel's Experiment (D.T.)";"1.0";"2";"1";"1";"2";"1";"1";"2014-10-16 12:59:44.134";"2014-10-16 13:15:22.400";"1";"0";"0";"72";"71";"module.training_block2.exec-6816.GoNoGo2";;;;;;;;;;;;;;;;;;;;;;;;;;;;;;;;;;;"1261";"2014-10-16 13:05:25.944";"NST_correctLoc";"35";"1";"FINISHED";"RIGHT";"success";"311";"0";"2014-10-16 13:05:24.680";"3";;;;;;;;;;;;;;;;;;;;;;;;;;;;;;;;;;;;;;;;;;;;;
"c1320378";;;"Windows 7";"Rachel's Experiment (D.T.)";"1.0";"2";"1";"1";"2";"1";"1";"2014-10-16 12:59:44.134";"2014-10-16 13:15:22.400";"1";"0";"0";"73";"72";"module.training_block2.exec-6816.GoNoGo2";;;;;;;;;;;;;;;;;;;;;;;;;;;;;;;;;;;"1261";"2014-10-16 13:05:28.486";"NST_correctLoc";"3";"0";"FINISHED";"LEFT";"success";"280";"0";"2014-10-16 13:05:27.223";"1";;;;;;;;;;;;;;;;;;;;;;;;;;;;;;;;;;;;;;;;;;;;;
"c1320378";;;"Windows 7";"Rachel's Experiment (D.T.)";"1.0";"2";"1";"1";"2";"1";"1";"2014-10-16 12:59:44.134";"2014-10-16 13:15:22.400";"1";"0";"0";"74";"73";"module.training_block2.exec-6816.GoNoGo2";;;;;;;;;;;;;;;;;;;;;;;;;;;;;;;;;;;"1261";"2014-10-16 13:05:31.029";"NST_correctLoc";"1";"0";"FINISHED";"LEFT";"success";"578";"0";"2014-10-16 13:05:29.766";"1";;;;;;;;;;;;;;;;;;;;;;;;;;;;;;;;;;;;;;;;;;;;;
"c1320378";;;"Windows 7";"Rachel's Experiment (D.T.)";"1.0";"2";"1";"1";"2";"1";"1";"2014-10-16 12:59:44.134";"2014-10-16 13:15:22.400";"1";"0";"0";"75";"74";"module.training_block2.exec-6816.GoNoGo2";;;;;;;;;;;;;;;;;;;;;;;;;;;;;;;;;;;"1261";"2014-10-16 13:05:33.588";"NST_correctLoc";"27";"1";"FINISHED";"RIGHT";"success";"411";"0";"2014-10-16 13:05:32.324";"3";;;;;;;;;;;;;;;;;;;;;;;;;;;;;;;;;;;;;;;;;;;;;
"c1320378";;;"Windows 7";"Rachel's Experiment (D.T.)";"1.0";"2";"1";"1";"2";"1";"1";"2014-10-16 12:59:44.134";"2014-10-16 13:15:22.400";"1";"0";"0";"76";"75";"module.training_block2.exec-6816.GoNoGo2";;;;;;;;;;;;;;;;;;;;;;;;;;;;;;;;;;;"1261";"2014-10-16 13:05:36.131";"NST_correctLoc";"15";"1";"FINISHED";"RIGHT";"success";"276";"0";"2014-10-16 13:05:34.867";"2";;;;;;;;;;;;;;;;;;;;;;;;;;;;;;;;;;;;;;;;;;;;;
"c1320378";;;"Windows 7";"Rachel's Experiment (D.T.)";"1.0";"2";"1";"1";"2";"1";"1";"2014-10-16 12:59:44.134";"2014-10-16 13:15:22.400";"1";"0";"0";"77";"76";"module.training_block2.exec-6816.GoNoGo2";;;;;;;;;;;;;;;;;;;;;;;;;;;;;;;;;;;"1261";"2014-10-16 13:05:38.689";"NST_correctLoc";"5";"1";"FINISHED";"RIGHT";"success";"486";"0";"2014-10-16 13:05:37.426";"1";;;;;;;;;;;;;;;;;;;;;;;;;;;;;;;;;;;;;;;;;;;;;
"c1320378";;;"Windows 7";"Rachel's Experiment (D.T.)";"1.0";"2";"1";"1";"2";"1";"1";"2014-10-16 12:59:44.134";"2014-10-16 13:15:22.400";"1";"0";"0";"78";"77";"module.training_block2.exec-6816.GoNoGo2";;;;;;;;;;;;;;;;;;;;;;;;;;;;;;;;;;;"1261";"2014-10-16 13:05:41.232";"NST_correctLoc";"16";"0";"FINISHED";"LEFT";"success";"527";"0";"2014-10-16 13:05:39.968";"2";;;;;;;;;;;;;;;;;;;;;;;;;;;;;;;;;;;;;;;;;;;;;
"c1320378";;;"Windows 7";"Rachel's Experiment (D.T.)";"1.0";"2";"1";"1";"2";"1";"1";"2014-10-16 12:59:44.134";"2014-10-16 13:15:22.400";"1";"0";"0";"79";"78";"module.training_block2.exec-6816.GoNoGo2";;;;;;;;;;;;;;;;;;;;;;;;;;;;;;;;;;;"1261";"2014-10-16 13:05:43.775";"NST_correctLoc";"28";"1";"FINISHED";"RIGHT";"success";"552";"0";"2014-10-16 13:05:42.511";"3";;;;;;;;;;;;;;;;;;;;;;;;;;;;;;;;;;;;;;;;;;;;;
"c1320378";;;"Windows 7";"Rachel's Experiment (D.T.)";"1.0";"2";"1";"1";"2";"1";"1";"2014-10-16 12:59:44.134";"2014-10-16 13:15:22.400";"1";"0";"0";"80";"79";"module.training_block2.exec-6816.GoNoGo2";;;;;;;;;;;;;;;;;;;;;;;;;;;;;;;;;;;"1261";"2014-10-16 13:05:46.318";"NST_correctLoc";"6";"0";"FINISHED";"LEFT";"success";"273";"0";"2014-10-16 13:05:45.054";"1";;;;;;;;;;;;;;;;;;;;;;;;;;;;;;;;;;;;;;;;;;;;;
"c1320378";;;"Windows 7";"Rachel's Experiment (D.T.)";"1.0";"2";"1";"1";"2";"1";"1";"2014-10-16 12:59:44.134";"2014-10-16 13:15:22.400";"1";"0";"0";"81";"80";"module.training_block2.exec-6816.GoNoGo2";;;;;;;;;;;;;;;;;;;;;;;;;;;;;;;;;;;"1261";"2014-10-16 13:05:48.861";"NST_correctLoc";"26";"0";"FINISHED";"LEFT";"success";"443";"0";"2014-10-16 13:05:47.597";"3";;;;;;;;;;;;;;;;;;;;;;;;;;;;;;;;;;;;;;;;;;;;;
"c1320378";;;"Windows 7";"Rachel's Experiment (D.T.)";"1.0";"2";"1";"1";"2";"1";"1";"2014-10-16 12:59:44.134";"2014-10-16 13:15:22.400";"1";"0";"0";"82";"81";"module.training_block2.exec-6816.GoNoGo2";;;;;;;;;;;;;;;;;;;;;;;;;;;;;;;;;;;"1261";"2014-10-16 13:05:51.404";"NST_correctLoc";"23";"0";"FINISHED";"LEFT";"success";"316";"0";"2014-10-16 13:05:50.140";"3";;;;;;;;;;;;;;;;;;;;;;;;;;;;;;;;;;;;;;;;;;;;;
"c1320378";;;"Windows 7";"Rachel's Experiment (D.T.)";"1.0";"2";"1";"1";"2";"1";"1";"2014-10-16 12:59:44.134";"2014-10-16 13:15:22.400";"1";"0";"0";"83";"82";"module.training_block2.exec-6816.GoNoGo2";;;;;;;;;;;;;;;;;;;;;;;;;;;;;;;;;;;"1261";"2014-10-16 13:05:53.947";"NST_correctLoc";"19";"1";"FINISHED";"RIGHT";"success";"405";"0";"2014-10-16 13:05:52.683";"3";;;;;;;;;;;;;;;;;;;;;;;;;;;;;;;;;;;;;;;;;;;;;
"c1320378";;;"Windows 7";"Rachel's Experiment (D.T.)";"1.0";"2";"1";"1";"2";"1";"1";"2014-10-16 12:59:44.134";"2014-10-16 13:15:22.400";"1";"0";"0";"84";"83";"module.training_block2.exec-6816.GoNoGo2";;;;;;;;;;;;;;;;;;;;;;;;;;;;;;;;;;;"1261";"2014-10-16 13:05:56.505";"NST_correctLoc";"22";"1";"FINISHED";"RIGHT";"success";"295";"0";"2014-10-16 13:05:55.241";"3";;;;;;;;;;;;;;;;;;;;;;;;;;;;;;;;;;;;;;;;;;;;;
"c1320378";;;"Windows 7";"Rachel's Experiment (D.T.)";"1.0";"2";"1";"1";"2";"1";"1";"2014-10-16 12:59:44.134";"2014-10-16 13:15:22.400";"1";"0";"0";"85";"84";"module.training_block2.exec-6816.GoNoGo2";;;;;;;;;;;;;;;;;;;;;;;;;;;;;;;;;;;"1261";"2014-10-16 13:05:59.048";"NST_correctLoc";"11";"0";"FINISHED";"LEFT";"success";"488";"0";"2014-10-16 13:05:57.784";"2";;;;;;;;;;;;;;;;;;;;;;;;;;;;;;;;;;;;;;;;;;;;;
"c1320378";;;"Windows 7";"Rachel's Experiment (D.T.)";"1.0";"2";"1";"1";"2";"1";"1";"2014-10-16 12:59:44.134";"2014-10-16 13:15:22.400";"1";"0";"0";"86";"85";"module.training_block2.exec-6816.GoNoGo2";;;;;;;;;;;;;;;;;;;;;;;;;;;;;;;;;;;"1261";"2014-10-16 13:06:01.607";"NST_correctLoc";"25";"0";"FINISHED";"LEFT";"success";"449";"0";"2014-10-16 13:06:00.343";"3";;;;;;;;;;;;;;;;;;;;;;;;;;;;;;;;;;;;;;;;;;;;;
"c1320378";;;"Windows 7";"Rachel's Experiment (D.T.)";"1.0";"2";"1";"1";"2";"1";"1";"2014-10-16 12:59:44.134";"2014-10-16 13:15:22.400";"1";"0";"0";"87";"86";"module.training_block2.exec-6816.GoNoGo2";;;;;;;;;;;;;;;;;;;;;;;;;;;;;;;;;;;"1261";"2014-10-16 13:06:04.149";"NST_correctLoc";"34";"0";"FINISHED";"LEFT";"success";"626";"0";"2014-10-16 13:06:02.886";"3";;;;;;;;;;;;;;;;;;;;;;;;;;;;;;;;;;;;;;;;;;;;;
"c1320378";;;"Windows 7";"Rachel's Experiment (D.T.)";"1.0";"2";"1";"1";"2";"1";"1";"2014-10-16 12:59:44.134";"2014-10-16 13:15:22.400";"1";"0";"0";"88";"87";"module.training_block3.exec-6341.GoNoGo3";;;;;;;;;;;;;;;;;;;;;;;;;;;;;;;;;;;;;;;;;;;;;;;"1261";"2014-10-16 13:06:27.722";"NST_correctLoc";"10";"1";"FINISHED";"RIGHT";"success";"375";"0";"2014-10-16 13:06:26.458";"2";;;;;;;;;;;;;;;;;;;;;;;;;;;;;;;;;
"c1320378";;;"Windows 7";"Rachel's Experiment (D.T.)";"1.0";"2";"1";"1";"2";"1";"1";"2014-10-16 12:59:44.134";"2014-10-16 13:15:22.400";"1";"0";"0";"89";"88";"module.training_block3.exec-6341.GoNoGo3";;;;;;;;;;;;;;;;;;;;;;;;;;;;;;;;;;;;;;;;;;;;;;;"1261";"2014-10-16 13:06:30.265";"NST_correctLoc";"12";"1";"FINISHED";"RIGHT";"success";"416";"0";"2014-10-16 13:06:29.001";"2";;;;;;;;;;;;;;;;;;;;;;;;;;;;;;;;;
"c1320378";;;"Windows 7";"Rachel's Experiment (D.T.)";"1.0";"2";"1";"1";"2";"1";"1";"2014-10-16 12:59:44.134";"2014-10-16 13:15:22.400";"1";"0";"0";"90";"89";"module.training_block3.exec-6341.GoNoGo3";;;;;;;;;;;;;;;;;;;;;;;;;;;;;;;;;;;;;;;;;;;;;;;"1261";"2014-10-16 13:06:32.823";"NST_correctLoc";"31";"0";"FINISHED";"LEFT";"success";"314";"0";"2014-10-16 13:06:31.560";"3";;;;;;;;;;;;;;;;;;;;;;;;;;;;;;;;;
"c1320378";;;"Windows 7";"Rachel's Experiment (D.T.)";"1.0";"2";"1";"1";"2";"1";"1";"2014-10-16 12:59:44.134";"2014-10-16 13:15:22.400";"1";"0";"0";"91";"90";"module.training_block3.exec-6341.GoNoGo3";;;;;;;;;;;;;;;;;;;;;;;;;;;;;;;;;;;;;;;;;;;;;;;"1261";"2014-10-16 13:06:35.366";"NST_correctLoc";"27";"1";"FINISHED";"RIGHT";"success";"363";"0";"2014-10-16 13:06:34.103";"3";;;;;;;;;;;;;;;;;;;;;;;;;;;;;;;;;
"c1320378";;;"Windows 7";"Rachel's Experiment (D.T.)";"1.0";"2";"1";"1";"2";"1";"1";"2014-10-16 12:59:44.134";"2014-10-16 13:15:22.400";"1";"0";"0";"92";"91";"module.training_block3.exec-6341.GoNoGo3";;;;;;;;;;;;;;;;;;;;;;;;;;;;;;;;;;;;;;;;;;;;;;;"1262";"2014-10-16 13:06:37.909";"NST_correctLoc";"13";"1";"FINISHED";"RIGHT";"success";"468";"0";"2014-10-16 13:06:36.645";"2";;;;;;;;;;;;;;;;;;;;;;;;;;;;;;;;;
"c1320378";;;"Windows 7";"Rachel's Experiment (D.T.)";"1.0";"2";"1";"1";"2";"1";"1";"2014-10-16 12:59:44.134";"2014-10-16 13:15:22.400";"1";"0";"0";"93";"92";"module.training_block3.exec-6341.GoNoGo3";;;;;;;;;;;;;;;;;;;;;;;;;;;;;;;;;;;;;;;;;;;;;;;"1261";"2014-10-16 13:06:40.452";"NST_correctLoc";"15";"0";"FINISHED";"LEFT";"success";"469";"0";"2014-10-16 13:06:39.188";"2";;;;;;;;;;;;;;;;;;;;;;;;;;;;;;;;;
"c1320378";;;"Windows 7";"Rachel's Experiment (D.T.)";"1.0";"2";"1";"1";"2";"1";"1";"2014-10-16 12:59:44.134";"2014-10-16 13:15:22.400";"1";"0";"0";"94";"93";"module.training_block3.exec-6341.GoNoGo3";;;;;;;;;;;;;;;;;;;;;;;;;;;;;;;;;;;;;;;;;;;;;;;"1262";"2014-10-16 13:06:42.995";"NST_correctLoc";"29";"0";"FINISHED";"LEFT";"success";"374";"0";"2014-10-16 13:06:41.731";"3";;;;;;;;;;;;;;;;;;;;;;;;;;;;;;;;;
"c1320378";;;"Windows 7";"Rachel's Experiment (D.T.)";"1.0";"2";"1";"1";"2";"1";"1";"2014-10-16 12:59:44.134";"2014-10-16 13:15:22.400";"1";"0";"0";"95";"94";"module.training_block3.exec-6341.GoNoGo3";;;;;;;;;;;;;;;;;;;;;;;;;;;;;;;;;;;;;;;;;;;;;;;"1261";"2014-10-16 13:06:45.522";"NST_correctLoc";"8";"0";"FINISHED";"LEFT";"success";"311";"0";"2014-10-16 13:06:44.259";"1";;;;;;;;;;;;;;;;;;;;;;;;;;;;;;;;;
"c1320378";;;"Windows 7";"Rachel's Experiment (D.T.)";"1.0";"2";"1";"1";"2";"1";"1";"2014-10-16 12:59:44.134";"2014-10-16 13:15:22.400";"1";"0";"0";"96";"95";"module.training_block3.exec-6341.GoNoGo3";;;;;;;;;;;;;;;;;;;;;;;;;;;;;;;;;;;;;;;;;;;;;;;"1261";"2014-10-16 13:06:48.065";"NST_correctLoc";"21";"0";"FINISHED";"LEFT";"success";"312";"0";"2014-10-16 13:06:46.801";"3";;;;;;;;;;;;;;;;;;;;;;;;;;;;;;;;;
"c1320378";;;"Windows 7";"Rachel's Experiment (D.T.)";"1.0";"2";"1";"1";"2";"1";"1";"2014-10-16 12:59:44.134";"2014-10-16 13:15:22.400";"1";"0";"0";"97";"96";"module.training_block3.exec-6341.GoNoGo3";;;;;;;;;;;;;;;;;;;;;;;;;;;;;;;;;;;;;;;;;;;;;;;"1261";"2014-10-16 13:06:50.624";"NST_correctLoc";"6";"0";"FINISHED";"LEFT";"success";"378";"0";"2014-10-16 13:06:49.360";"1";;;;;;;;;;;;;;;;;;;;;;;;;;;;;;;;;
"c1320378";;;"Windows 7";"Rachel's Experiment (D.T.)";"1.0";"2";"1";"1";"2";"1";"1";"2014-10-16 12:59:44.134";"2014-10-16 13:15:22.400";"1";"0";"0";"98";"97";"module.training_block3.exec-6341.GoNoGo3";;;;;;;;;;;;;;;;;;;;;;;;;;;;;;;;;;;;;;;;;;;;;;;"1261";"2014-10-16 13:06:53.167";"NST_correctLoc";"17";"1";"FINISHED";"RIGHT";"success";"555";"0";"2014-10-16 13:06:51.903";"2";;;;;;;;;;;;;;;;;;;;;;;;;;;;;;;;;
"c1320378";;;"Windows 7";"Rachel's Experiment (D.T.)";"1.0";"2";"1";"1";"2";"1";"1";"2014-10-16 12:59:44.134";"2014-10-16 13:15:22.400";"1";"0";"0";"99";"98";"module.training_block3.exec-6341.GoNoGo3";;;;;;;;;;;;;;;;;;;;;;;;;;;;;;;;;;;;;;;;;;;;;;;"1261";"2014-10-16 13:06:55.709";"NST_correctLoc";"19";"1";"FINISHED";"RIGHT";"success";"420";"0";"2014-10-16 13:06:54.446";"3";;;;;;;;;;;;;;;;;;;;;;;;;;;;;;;;;
"c1320378";;;"Windows 7";"Rachel's Experiment (D.T.)";"1.0";"2";"1";"1";"2";"1";"1";"2014-10-16 12:59:44.134";"2014-10-16 13:15:22.400";"1";"0";"0";"100";"99";"module.training_block3.exec-6341.GoNoGo3";;;;;;;;;;;;;;;;;;;;;;;;;;;;;;;;;;;;;;;;;;;;;;;"1261";"2014-10-16 13:06:58.252";"NST_correctLoc";"2";"1";"FINISHED";"RIGHT";"success";"493";"0";"2014-10-16 13:06:56.989";"1";;;;;;;;;;;;;;;;;;;;;;;;;;;;;;;;;
"c1320378";;;"Windows 7";"Rachel's Experiment (D.T.)";"1.0";"2";"1";"1";"2";"1";"1";"2014-10-16 12:59:44.134";"2014-10-16 13:15:22.400";"1";"0";"0";"101";"100";"module.training_block3.exec-6341.GoNoGo3";;;;;;;;;;;;;;;;;;;;;;;;;;;;;;;;;;;;;;;;;;;;;;;"1261";"2014-10-16 13:07:00.795";"NST_correctLoc";"28";"0";"FINISHED";"LEFT";"success";"814";"0";"2014-10-16 13:06:59.532";"3";;;;;;;;;;;;;;;;;;;;;;;;;;;;;;;;;
"c1320378";;;"Windows 7";"Rachel's Experiment (D.T.)";"1.0";"2";"1";"1";"2";"1";"1";"2014-10-16 12:59:44.134";"2014-10-16 13:15:22.400";"1";"0";"0";"102";"101";"module.training_block3.exec-6341.GoNoGo3";;;;;;;;;;;;;;;;;;;;;;;;;;;;;;;;;;;;;;;;;;;;;;;"1261";"2014-10-16 13:07:03.338";"NST_correctLoc";"33";"0";"FINISHED";"LEFT";"success";"400";"0";"2014-10-16 13:07:02.074";"3";;;;;;;;;;;;;;;;;;;;;;;;;;;;;;;;;
"c1320378";;;"Windows 7";"Rachel's Experiment (D.T.)";"1.0";"2";"1";"1";"2";"1";"1";"2014-10-16 12:59:44.134";"2014-10-16 13:15:22.400";"1";"0";"0";"103";"102";"module.training_block3.exec-6341.GoNoGo3";;;;;;;;;;;;;;;;;;;;;;;;;;;;;;;;;;;;;;;;;;;;;;;"1261";"2014-10-16 13:07:05.881";"NST_correctLoc";"34";"0";"FINISHED";"LEFT";"success";"489";"0";"2014-10-16 13:07:04.617";"3";;;;;;;;;;;;;;;;;;;;;;;;;;;;;;;;;
"c1320378";;;"Windows 7";"Rachel's Experiment (D.T.)";"1.0";"2";"1";"1";"2";"1";"1";"2014-10-16 12:59:44.134";"2014-10-16 13:15:22.400";"1";"0";"0";"104";"103";"module.training_block3.exec-6341.GoNoGo3";;;;;;;;;;;;;;;;;;;;;;;;;;;;;;;;;;;;;;;;;;;;;;;"1261";"2014-10-16 13:07:08.424";"NST_correctLoc";"1";"0";"FINISHED";"LEFT";"success";"346";"0";"2014-10-16 13:07:07.160";"1";;;;;;;;;;;;;;;;;;;;;;;;;;;;;;;;;
"c1320378";;;"Windows 7";"Rachel's Experiment (D.T.)";"1.0";"2";"1";"1";"2";"1";"1";"2014-10-16 12:59:44.134";"2014-10-16 13:15:22.400";"1";"0";"0";"105";"104";"module.training_block3.exec-6341.GoNoGo3";;;;;;;;;;;;;;;;;;;;;;;;;;;;;;;;;;;;;;;;;;;;;;;"1262";"2014-10-16 13:07:10.967";"NST_correctLoc";"16";"0";"FINISHED";"LEFT";"success";"475";"0";"2014-10-16 13:07:09.703";"2";;;;;;;;;;;;;;;;;;;;;;;;;;;;;;;;;
"c1320378";;;"Windows 7";"Rachel's Experiment (D.T.)";"1.0";"2";"1";"1";"2";"1";"1";"2014-10-16 12:59:44.134";"2014-10-16 13:15:22.400";"1";"0";"0";"106";"105";"module.training_block3.exec-6341.GoNoGo3";;;;;;;;;;;;;;;;;;;;;;;;;;;;;;;;;;;;;;;;;;;;;;;"1261";"2014-10-16 13:07:13.525";"NST_correctLoc";"30";"1";"FINISHED";"RIGHT";"success";"461";"0";"2014-10-16 13:07:12.262";"3";;;;;;;;;;;;;;;;;;;;;;;;;;;;;;;;;
"c1320378";;;"Windows 7";"Rachel's Experiment (D.T.)";"1.0";"2";"1";"1";"2";"1";"1";"2014-10-16 12:59:44.134";"2014-10-16 13:15:22.400";"1";"0";"0";"107";"106";"module.training_block3.exec-6341.GoNoGo3";;;;;;;;;;;;;;;;;;;;;;;;;;;;;;;;;;;;;;;;;;;;;;;"1261";"2014-10-16 13:07:16.068";"NST_correctLoc";"32";"0";"FINISHED";"LEFT";"success";"358";"0";"2014-10-16 13:07:14.805";"3";;;;;;;;;;;;;;;;;;;;;;;;;;;;;;;;;
"c1320378";;;"Windows 7";"Rachel's Experiment (D.T.)";"1.0";"2";"1";"1";"2";"1";"1";"2014-10-16 12:59:44.134";"2014-10-16 13:15:22.400";"1";"0";"0";"108";"107";"module.training_block3.exec-6341.GoNoGo3";;;;;;;;;;;;;;;;;;;;;;;;;;;;;;;;;;;;;;;;;;;;;;;"1261";"2014-10-16 13:07:18.611";"NST_correctLoc";"26";"0";"FINISHED";"LEFT";"success";"487";"0";"2014-10-16 13:07:17.347";"3";;;;;;;;;;;;;;;;;;;;;;;;;;;;;;;;;
"c1320378";;;"Windows 7";"Rachel's Experiment (D.T.)";"1.0";"2";"1";"1";"2";"1";"1";"2014-10-16 12:59:44.134";"2014-10-16 13:15:22.400";"1";"0";"0";"109";"108";"module.training_block3.exec-6341.GoNoGo3";;;;;;;;;;;;;;;;;;;;;;;;;;;;;;;;;;;;;;;;;;;;;;;"1261";"2014-10-16 13:07:21.138";"NST_correctLoc";"24";"0";"FINISHED";"LEFT";"success";"480";"0";"2014-10-16 13:07:19.875";"3";;;;;;;;;;;;;;;;;;;;;;;;;;;;;;;;;
"c1320378";;;"Windows 7";"Rachel's Experiment (D.T.)";"1.0";"2";"1";"1";"2";"1";"1";"2014-10-16 12:59:44.134";"2014-10-16 13:15:22.400";"1";"0";"0";"110";"109";"module.training_block3.exec-6341.GoNoGo3";;;;;;;;;;;;;;;;;;;;;;;;;;;;;;;;;;;;;;;;;;;;;;;"1261";"2014-10-16 13:07:23.681";"NST_correctLoc";"23";"0";"FINISHED";"LEFT";"success";"697";"0";"2014-10-16 13:07:22.418";"3";;;;;;;;;;;;;;;;;;;;;;;;;;;;;;;;;
"c1320378";;;"Windows 7";"Rachel's Experiment (D.T.)";"1.0";"2";"1";"1";"2";"1";"1";"2014-10-16 12:59:44.134";"2014-10-16 13:15:22.400";"1";"0";"0";"111";"110";"module.training_block3.exec-6341.GoNoGo3";;;;;;;;;;;;;;;;;;;;;;;;;;;;;;;;;;;;;;;;;;;;;;;"1261";"2014-10-16 13:07:26.224";"NST_correctLoc";"7";"1";"FINISHED";"RIGHT";"success";"562";"0";"2014-10-16 13:07:24.961";"1";;;;;;;;;;;;;;;;;;;;;;;;;;;;;;;;;
"c1320378";;;"Windows 7";"Rachel's Experiment (D.T.)";"1.0";"2";"1";"1";"2";"1";"1";"2014-10-16 12:59:44.134";"2014-10-16 13:15:22.400";"1";"0";"0";"112";"111";"module.training_block3.exec-6341.GoNoGo3";;;;;;;;;;;;;;;;;;;;;;;;;;;;;;;;;;;;;;;;;;;;;;;"1262";"2014-10-16 13:07:28.767";"NST_correctLoc";"35";"1";"FINISHED";"RIGHT";"success";"515";"0";"2014-10-16 13:07:27.503";"3";;;;;;;;;;;;;;;;;;;;;;;;;;;;;;;;;
"c1320378";;;"Windows 7";"Rachel's Experiment (D.T.)";"1.0";"2";"1";"1";"2";"1";"1";"2014-10-16 12:59:44.134";"2014-10-16 13:15:22.400";"1";"0";"0";"113";"112";"module.training_block3.exec-6341.GoNoGo3";;;;;;;;;;;;;;;;;;;;;;;;;;;;;;;;;;;;;;;;;;;;;;;"1261";"2014-10-16 13:07:31.326";"NST_correctLoc";"4";"0";"FINISHED";"LEFT";"success";"581";"0";"2014-10-16 13:07:30.062";"1";;;;;;;;;;;;;;;;;;;;;;;;;;;;;;;;;
"c1320378";;;"Windows 7";"Rachel's Experiment (D.T.)";"1.0";"2";"1";"1";"2";"1";"1";"2014-10-16 12:59:44.134";"2014-10-16 13:15:22.400";"1";"0";"0";"114";"113";"module.training_block3.exec-6341.GoNoGo3";;;;;;;;;;;;;;;;;;;;;;;;;;;;;;;;;;;;;;;;;;;;;;;"1261";"2014-10-16 13:07:33.853";"NST_wrongLoc";"25";"0";"FINISHED";"RIGHT";"failure";"414";"0";"2014-10-16 13:07:32.589";"3";;;;;;;;;;;;;;;;;;;;;;;;;;;;;;;;;
"c1320378";;;"Windows 7";"Rachel's Experiment (D.T.)";"1.0";"2";"1";"1";"2";"1";"1";"2014-10-16 12:59:44.134";"2014-10-16 13:15:22.400";"1";"0";"0";"115";"114";"module.training_block3.exec-6341.GoNoGo3";;;;;;;;;;;;;;;;;;;;;;;;;;;;;;;;;;;;;;;;;;;;;;;"1262";"2014-10-16 13:07:36.380";"NST_correctLoc";"14";"0";"FINISHED";"LEFT";"success";"343";"0";"2014-10-16 13:07:35.117";"2";;;;;;;;;;;;;;;;;;;;;;;;;;;;;;;;;
"c1320378";;;"Windows 7";"Rachel's Experiment (D.T.)";"1.0";"2";"1";"1";"2";"1";"1";"2014-10-16 12:59:44.134";"2014-10-16 13:15:22.400";"1";"0";"0";"116";"115";"module.training_block3.exec-6341.GoNoGo3";;;;;;;;;;;;;;;;;;;;;;;;;;;;;;;;;;;;;;;;;;;;;;;"1261";"2014-10-16 13:07:38.907";"NST_correctLoc";"20";"0";"FINISHED";"LEFT";"success";"375";"0";"2014-10-16 13:07:37.644";"3";;;;;;;;;;;;;;;;;;;;;;;;;;;;;;;;;
"c1320378";;;"Windows 7";"Rachel's Experiment (D.T.)";"1.0";"2";"1";"1";"2";"1";"1";"2014-10-16 12:59:44.134";"2014-10-16 13:15:22.400";"1";"0";"0";"117";"116";"module.training_block3.exec-6341.GoNoGo3";;;;;;;;;;;;;;;;;;;;;;;;;;;;;;;;;;;;;;;;;;;;;;;"1261";"2014-10-16 13:07:41.435";"NST_correctLoc";"5";"1";"FINISHED";"RIGHT";"success";"272";"0";"2014-10-16 13:07:40.171";"1";;;;;;;;;;;;;;;;;;;;;;;;;;;;;;;;;
"c1320378";;;"Windows 7";"Rachel's Experiment (D.T.)";"1.0";"2";"1";"1";"2";"1";"1";"2014-10-16 12:59:44.134";"2014-10-16 13:15:22.400";"1";"0";"0";"118";"117";"module.training_block3.exec-6341.GoNoGo3";;;;;;;;;;;;;;;;;;;;;;;;;;;;;;;;;;;;;;;;;;;;;;;"1261";"2014-10-16 13:07:43.978";"NST_correctLoc";"22";"1";"FINISHED";"RIGHT";"success";"489";"0";"2014-10-16 13:07:42.714";"3";;;;;;;;;;;;;;;;;;;;;;;;;;;;;;;;;
"c1320378";;;"Windows 7";"Rachel's Experiment (D.T.)";"1.0";"2";"1";"1";"2";"1";"1";"2014-10-16 12:59:44.134";"2014-10-16 13:15:22.400";"1";"0";"0";"119";"118";"module.training_block3.exec-6341.GoNoGo3";;;;;;;;;;;;;;;;;;;;;;;;;;;;;;;;;;;;;;;;;;;;;;;"1261";"2014-10-16 13:07:46.505";"NST_correctLoc";"11";"1";"FINISHED";"RIGHT";"success";"298";"0";"2014-10-16 13:07:45.241";"2";;;;;;;;;;;;;;;;;;;;;;;;;;;;;;;;;
"c1320378";;;"Windows 7";"Rachel's Experiment (D.T.)";"1.0";"2";"1";"1";"2";"1";"1";"2014-10-16 12:59:44.134";"2014-10-16 13:15:22.400";"1";"0";"0";"120";"119";"module.training_block3.exec-6341.GoNoGo3";;;;;;;;;;;;;;;;;;;;;;;;;;;;;;;;;;;;;;;;;;;;;;;"1262";"2014-10-16 13:07:49.032";"NST_correctLoc";"0";"1";"FINISHED";"RIGHT";"success";"363";"0";"2014-10-16 13:07:47.769";"1";;;;;;;;;;;;;;;;;;;;;;;;;;;;;;;;;
"c1320378";;;"Windows 7";"Rachel's Experiment (D.T.)";"1.0";"2";"1";"1";"2";"1";"1";"2014-10-16 12:59:44.134";"2014-10-16 13:15:22.400";"1";"0";"0";"121";"120";"module.training_block3.exec-6341.GoNoGo3";;;;;;;;;;;;;;;;;;;;;;;;;;;;;;;;;;;;;;;;;;;;;;;"1261";"2014-10-16 13:07:51.560";"NST_correctLoc";"18";"1";"FINISHED";"RIGHT";"success";"276";"0";"2014-10-16 13:07:50.296";"3";;;;;;;;;;;;;;;;;;;;;;;;;;;;;;;;;
"c1320378";;;"Windows 7";"Rachel's Experiment (D.T.)";"1.0";"2";"1";"1";"2";"1";"1";"2014-10-16 12:59:44.134";"2014-10-16 13:15:22.400";"1";"0";"0";"122";"121";"module.training_block3.exec-6341.GoNoGo3";;;;;;;;;;;;;;;;;;;;;;;;;;;;;;;;;;;;;;;;;;;;;;;"1262";"2014-10-16 13:07:54.087";"NST_correctLoc";"9";"0";"FINISHED";"LEFT";"success";"356";"0";"2014-10-16 13:07:52.823";"2";;;;;;;;;;;;;;;;;;;;;;;;;;;;;;;;;
"c1320378";;;"Windows 7";"Rachel's Experiment (D.T.)";"1.0";"2";"1";"1";"2";"1";"1";"2014-10-16 12:59:44.134";"2014-10-16 13:15:22.400";"1";"0";"0";"123";"122";"module.training_block3.exec-6341.GoNoGo3";;;;;;;;;;;;;;;;;;;;;;;;;;;;;;;;;;;;;;;;;;;;;;;"1262";"2014-10-16 13:07:56.614";"NST_correctLoc";"3";"0";"FINISHED";"LEFT";"success";"357";"0";"2014-10-16 13:07:55.351";"1";;;;;;;;;;;;;;;;;;;;;;;;;;;;;;;;;
"c1320378";;;"Windows 7";"Rachel's Experiment (D.T.)";"1.0";"2";"1";"1";"2";"1";"1";"2014-10-16 12:59:44.134";"2014-10-16 13:15:22.400";"1";"0";"0";"124";"123";"module.training_block4.exec-4556.GoNoGo4";;;;;;;;;;;;;;;;;;;;;;;;;;;;;;;;;;;;;;;;;;;;;;;;;;;;;;;;;;;"1261";"2014-10-16 13:08:07.519";"NST_correctLoc";"22";"0";"FINISHED";"LEFT";"success";"309";"0";"2014-10-16 13:08:06.255";"3";;;;;;;;;;;;;;;;;;;;;
"c1320378";;;"Windows 7";"Rachel's Experiment (D.T.)";"1.0";"2";"1";"1";"2";"1";"1";"2014-10-16 12:59:44.134";"2014-10-16 13:15:22.400";"1";"0";"0";"125";"124";"module.training_block4.exec-4556.GoNoGo4";;;;;;;;;;;;;;;;;;;;;;;;;;;;;;;;;;;;;;;;;;;;;;;;;;;;;;;;;;;"1262";"2014-10-16 13:08:10.062";"NST_correctLoc";"31";"0";"FINISHED";"LEFT";"success";"382";"0";"2014-10-16 13:08:08.798";"3";;;;;;;;;;;;;;;;;;;;;
"c1320378";;;"Windows 7";"Rachel's Experiment (D.T.)";"1.0";"2";"1";"1";"2";"1";"1";"2014-10-16 12:59:44.134";"2014-10-16 13:15:22.400";"1";"0";"0";"126";"125";"module.training_block4.exec-4556.GoNoGo4";;;;;;;;;;;;;;;;;;;;;;;;;;;;;;;;;;;;;;;;;;;;;;;;;;;;;;;;;;;"1261";"2014-10-16 13:08:12.589";"NST_correctLoc";"6";"1";"FINISHED";"RIGHT";"success";"423";"0";"2014-10-16 13:08:11.326";"1";;;;;;;;;;;;;;;;;;;;;
"c1320378";;;"Windows 7";"Rachel's Experiment (D.T.)";"1.0";"2";"1";"1";"2";"1";"1";"2014-10-16 12:59:44.134";"2014-10-16 13:15:22.400";"1";"0";"0";"127";"126";"module.training_block4.exec-4556.GoNoGo4";;;;;;;;;;;;;;;;;;;;;;;;;;;;;;;;;;;;;;;;;;;;;;;;;;;;;;;;;;;"1261";"2014-10-16 13:08:15.116";"NST_correctLoc";"5";"1";"FINISHED";"RIGHT";"success";"447";"0";"2014-10-16 13:08:13.853";"1";;;;;;;;;;;;;;;;;;;;;
"c1320378";;;"Windows 7";"Rachel's Experiment (D.T.)";"1.0";"2";"1";"1";"2";"1";"1";"2014-10-16 12:59:44.134";"2014-10-16 13:15:22.400";"1";"0";"0";"128";"127";"module.training_block4.exec-4556.GoNoGo4";;;;;;;;;;;;;;;;;;;;;;;;;;;;;;;;;;;;;;;;;;;;;;;;;;;;;;;;;;;"1261";"2014-10-16 13:08:17.644";"NST_correctLoc";"2";"1";"FINISHED";"RIGHT";"success";"360";"0";"2014-10-16 13:08:16.380";"1";;;;;;;;;;;;;;;;;;;;;
"c1320378";;;"Windows 7";"Rachel's Experiment (D.T.)";"1.0";"2";"1";"1";"2";"1";"1";"2014-10-16 12:59:44.134";"2014-10-16 13:15:22.400";"1";"0";"0";"129";"128";"module.training_block4.exec-4556.GoNoGo4";;;;;;;;;;;;;;;;;;;;;;;;;;;;;;;;;;;;;;;;;;;;;;;;;;;;;;;;;;;"1261";"2014-10-16 13:08:20.171";"NST_correctLoc";"17";"1";"FINISHED";"RIGHT";"success";"385";"0";"2014-10-16 13:08:18.907";"2";;;;;;;;;;;;;;;;;;;;;
"c1320378";;;"Windows 7";"Rachel's Experiment (D.T.)";"1.0";"2";"1";"1";"2";"1";"1";"2014-10-16 12:59:44.134";"2014-10-16 13:15:22.400";"1";"0";"0";"130";"129";"module.training_block4.exec-4556.GoNoGo4";;;;;;;;;;;;;;;;;;;;;;;;;;;;;;;;;;;;;;;;;;;;;;;;;;;;;;;;;;;"1262";"2014-10-16 13:08:22.714";"NST_correctLoc";"7";"0";"FINISHED";"LEFT";"success";"362";"0";"2014-10-16 13:08:21.450";"1";;;;;;;;;;;;;;;;;;;;;
"c1320378";;;"Windows 7";"Rachel's Experiment (D.T.)";"1.0";"2";"1";"1";"2";"1";"1";"2014-10-16 12:59:44.134";"2014-10-16 13:15:22.400";"1";"0";"0";"131";"130";"module.training_block4.exec-4556.GoNoGo4";;;;;;;;;;;;;;;;;;;;;;;;;;;;;;;;;;;;;;;;;;;;;;;;;;;;;;;;;;;"1261";"2014-10-16 13:08:25.241";"NST_correctLoc";"33";"1";"FINISHED";"RIGHT";"success";"363";"0";"2014-10-16 13:08:23.978";"3";;;;;;;;;;;;;;;;;;;;;
"c1320378";;;"Windows 7";"Rachel's Experiment (D.T.)";"1.0";"2";"1";"1";"2";"1";"1";"2014-10-16 12:59:44.134";"2014-10-16 13:15:22.400";"1";"0";"0";"132";"131";"module.training_block4.exec-4556.GoNoGo4";;;;;;;;;;;;;;;;;;;;;;;;;;;;;;;;;;;;;;;;;;;;;;;;;;;;;;;;;;;"1262";"2014-10-16 13:08:27.769";"NST_correctLoc";"29";"0";"FINISHED";"LEFT";"success";"316";"0";"2014-10-16 13:08:26.505";"3";;;;;;;;;;;;;;;;;;;;;
"c1320378";;;"Windows 7";"Rachel's Experiment (D.T.)";"1.0";"2";"1";"1";"2";"1";"1";"2014-10-16 12:59:44.134";"2014-10-16 13:15:22.400";"1";"0";"0";"133";"132";"module.training_block4.exec-4556.GoNoGo4";;;;;;;;;;;;;;;;;;;;;;;;;;;;;;;;;;;;;;;;;;;;;;;;;;;;;;;;;;;"1261";"2014-10-16 13:08:30.327";"NST_correctLoc";"35";"0";"FINISHED";"LEFT";"success";"445";"0";"2014-10-16 13:08:29.063";"3";;;;;;;;;;;;;;;;;;;;;
"c1320378";;;"Windows 7";"Rachel's Experiment (D.T.)";"1.0";"2";"1";"1";"2";"1";"1";"2014-10-16 12:59:44.134";"2014-10-16 13:15:22.400";"1";"0";"0";"134";"133";"module.training_block4.exec-4556.GoNoGo4";;;;;;;;;;;;;;;;;;;;;;;;;;;;;;;;;;;;;;;;;;;;;;;;;;;;;;;;;;;"1262";"2014-10-16 13:08:32.854";"NST_correctLoc";"3";"0";"FINISHED";"LEFT";"success";"326";"0";"2014-10-16 13:08:31.591";"1";;;;;;;;;;;;;;;;;;;;;
"c1320378";;;"Windows 7";"Rachel's Experiment (D.T.)";"1.0";"2";"1";"1";"2";"1";"1";"2014-10-16 12:59:44.134";"2014-10-16 13:15:22.400";"1";"0";"0";"135";"134";"module.training_block4.exec-4556.GoNoGo4";;;;;;;;;;;;;;;;;;;;;;;;;;;;;;;;;;;;;;;;;;;;;;;;;;;;;;;;;;;"1261";"2014-10-16 13:08:35.397";"NST_correctLoc";"28";"1";"FINISHED";"RIGHT";"success";"375";"0";"2014-10-16 13:08:34.134";"3";;;;;;;;;;;;;;;;;;;;;
"c1320378";;;"Windows 7";"Rachel's Experiment (D.T.)";"1.0";"2";"1";"1";"2";"1";"1";"2014-10-16 12:59:44.134";"2014-10-16 13:15:22.400";"1";"0";"0";"136";"135";"module.training_block4.exec-4556.GoNoGo4";;;;;;;;;;;;;;;;;;;;;;;;;;;;;;;;;;;;;;;;;;;;;;;;;;;;;;;;;;;"1262";"2014-10-16 13:08:37.925";"NST_correctLoc";"30";"0";"FINISHED";"LEFT";"success";"328";"0";"2014-10-16 13:08:36.661";"3";;;;;;;;;;;;;;;;;;;;;
"c1320378";;;"Windows 7";"Rachel's Experiment (D.T.)";"1.0";"2";"1";"1";"2";"1";"1";"2014-10-16 12:59:44.134";"2014-10-16 13:15:22.400";"1";"0";"0";"137";"136";"module.training_block4.exec-4556.GoNoGo4";;;;;;;;;;;;;;;;;;;;;;;;;;;;;;;;;;;;;;;;;;;;;;;;;;;;;;;;;;;"1261";"2014-10-16 13:08:40.452";"NST_correctLoc";"24";"0";"FINISHED";"LEFT";"success";"345";"0";"2014-10-16 13:08:39.188";"3";;;;;;;;;;;;;;;;;;;;;
"c1320378";;;"Windows 7";"Rachel's Experiment (D.T.)";"1.0";"2";"1";"1";"2";"1";"1";"2014-10-16 12:59:44.134";"2014-10-16 13:15:22.400";"1";"0";"0";"138";"137";"module.training_block4.exec-4556.GoNoGo4";;;;;;;;;;;;;;;;;;;;;;;;;;;;;;;;;;;;;;;;;;;;;;;;;;;;;;;;;;;"1262";"2014-10-16 13:08:43.010";"NST_correctLoc";"15";"0";"FINISHED";"LEFT";"success";"322";"0";"2014-10-16 13:08:41.747";"2";;;;;;;;;;;;;;;;;;;;;
"c1320378";;;"Windows 7";"Rachel's Experiment (D.T.)";"1.0";"2";"1";"1";"2";"1";"1";"2014-10-16 12:59:44.134";"2014-10-16 13:15:22.400";"1";"0";"0";"139";"138";"module.training_block4.exec-4556.GoNoGo4";;;;;;;;;;;;;;;;;;;;;;;;;;;;;;;;;;;;;;;;;;;;;;;;;;;;;;;;;;;"1262";"2014-10-16 13:08:45.538";"NST_correctLoc";"4";"1";"FINISHED";"RIGHT";"success";"331";"0";"2014-10-16 13:08:44.274";"1";;;;;;;;;;;;;;;;;;;;;
"c1320378";;;"Windows 7";"Rachel's Experiment (D.T.)";"1.0";"2";"1";"1";"2";"1";"1";"2014-10-16 12:59:44.134";"2014-10-16 13:15:22.400";"1";"0";"0";"140";"139";"module.training_block4.exec-4556.GoNoGo4";;;;;;;;;;;;;;;;;;;;;;;;;;;;;;;;;;;;;;;;;;;;;;;;;;;;;;;;;;;"1262";"2014-10-16 13:08:48.081";"NST_correctLoc";"23";"0";"FINISHED";"LEFT";"success";"292";"0";"2014-10-16 13:08:46.817";"3";;;;;;;;;;;;;;;;;;;;;
"c1320378";;;"Windows 7";"Rachel's Experiment (D.T.)";"1.0";"2";"1";"1";"2";"1";"1";"2014-10-16 12:59:44.134";"2014-10-16 13:15:22.400";"1";"0";"0";"141";"140";"module.training_block4.exec-4556.GoNoGo4";;;;;;;;;;;;;;;;;;;;;;;;;;;;;;;;;;;;;;;;;;;;;;;;;;;;;;;;;;;"1261";"2014-10-16 13:08:50.608";"NST_correctLoc";"16";"0";"FINISHED";"LEFT";"success";"533";"0";"2014-10-16 13:08:49.344";"2";;;;;;;;;;;;;;;;;;;;;
"c1320378";;;"Windows 7";"Rachel's Experiment (D.T.)";"1.0";"2";"1";"1";"2";"1";"1";"2014-10-16 12:59:44.134";"2014-10-16 13:15:22.400";"1";"0";"0";"142";"141";"module.training_block4.exec-4556.GoNoGo4";;;;;;;;;;;;;;;;;;;;;;;;;;;;;;;;;;;;;;;;;;;;;;;;;;;;;;;;;;;"1261";"2014-10-16 13:08:53.135";"NST_correctLoc";"10";"0";"FINISHED";"LEFT";"success";"334";"0";"2014-10-16 13:08:51.871";"2";;;;;;;;;;;;;;;;;;;;;
"c1320378";;;"Windows 7";"Rachel's Experiment (D.T.)";"1.0";"2";"1";"1";"2";"1";"1";"2014-10-16 12:59:44.134";"2014-10-16 13:15:22.400";"1";"0";"0";"143";"142";"module.training_block4.exec-4556.GoNoGo4";;;;;;;;;;;;;;;;;;;;;;;;;;;;;;;;;;;;;;;;;;;;;;;;;;;;;;;;;;;"1261";"2014-10-16 13:08:55.662";"NST_correctLoc";"26";"0";"FINISHED";"LEFT";"success";"559";"0";"2014-10-16 13:08:54.399";"3";;;;;;;;;;;;;;;;;;;;;
"c1320378";;;"Windows 7";"Rachel's Experiment (D.T.)";"1.0";"2";"1";"1";"2";"1";"1";"2014-10-16 12:59:44.134";"2014-10-16 13:15:22.400";"1";"0";"0";"144";"143";"module.training_block4.exec-4556.GoNoGo4";;;;;;;;;;;;;;;;;;;;;;;;;;;;;;;;;;;;;;;;;;;;;;;;;;;;;;;;;;;"1262";"2014-10-16 13:08:58.190";"NST_correctLoc";"20";"1";"FINISHED";"RIGHT";"success";"704";"0";"2014-10-16 13:08:56.926";"3";;;;;;;;;;;;;;;;;;;;;
"c1320378";;;"Windows 7";"Rachel's Experiment (D.T.)";"1.0";"2";"1";"1";"2";"1";"1";"2014-10-16 12:59:44.134";"2014-10-16 13:15:22.400";"1";"0";"0";"145";"144";"module.training_block4.exec-4556.GoNoGo4";;;;;;;;;;;;;;;;;;;;;;;;;;;;;;;;;;;;;;;;;;;;;;;;;;;;;;;;;;;"1262";"2014-10-16 13:09:00.717";"NST_correctLoc";"34";"1";"FINISHED";"RIGHT";"success";"464";"0";"2014-10-16 13:08:59.453";"3";;;;;;;;;;;;;;;;;;;;;
"c1320378";;;"Windows 7";"Rachel's Experiment (D.T.)";"1.0";"2";"1";"1";"2";"1";"1";"2014-10-16 12:59:44.134";"2014-10-16 13:15:22.400";"1";"0";"0";"146";"145";"module.training_block4.exec-4556.GoNoGo4";;;;;;;;;;;;;;;;;;;;;;;;;;;;;;;;;;;;;;;;;;;;;;;;;;;;;;;;;;;"1262";"2014-10-16 13:09:03.244";"NST_correctLoc";"21";"0";"FINISHED";"LEFT";"success";"305";"0";"2014-10-16 13:09:01.981";"3";;;;;;;;;;;;;;;;;;;;;
"c1320378";;;"Windows 7";"Rachel's Experiment (D.T.)";"1.0";"2";"1";"1";"2";"1";"1";"2014-10-16 12:59:44.134";"2014-10-16 13:15:22.400";"1";"0";"0";"147";"146";"module.training_block4.exec-4556.GoNoGo4";;;;;;;;;;;;;;;;;;;;;;;;;;;;;;;;;;;;;;;;;;;;;;;;;;;;;;;;;;;"1262";"2014-10-16 13:09:05.772";"NST_correctLoc";"18";"0";"FINISHED";"LEFT";"success";"426";"0";"2014-10-16 13:09:04.508";"3";;;;;;;;;;;;;;;;;;;;;
"c1320378";;;"Windows 7";"Rachel's Experiment (D.T.)";"1.0";"2";"1";"1";"2";"1";"1";"2014-10-16 12:59:44.134";"2014-10-16 13:15:22.400";"1";"0";"0";"148";"147";"module.training_block4.exec-4556.GoNoGo4";;;;;;;;;;;;;;;;;;;;;;;;;;;;;;;;;;;;;;;;;;;;;;;;;;;;;;;;;;;"1262";"2014-10-16 13:09:08.315";"NST_correctLoc";"27";"1";"FINISHED";"RIGHT";"success";"555";"0";"2014-10-16 13:09:07.051";"3";;;;;;;;;;;;;;;;;;;;;
"c1320378";;;"Windows 7";"Rachel's Experiment (D.T.)";"1.0";"2";"1";"1";"2";"1";"1";"2014-10-16 12:59:44.134";"2014-10-16 13:15:22.400";"1";"0";"0";"149";"148";"module.training_block4.exec-4556.GoNoGo4";;;;;;;;;;;;;;;;;;;;;;;;;;;;;;;;;;;;;;;;;;;;;;;;;;;;;;;;;;;"1262";"2014-10-16 13:09:10.842";"NST_correctLoc";"32";"0";"FINISHED";"LEFT";"success";"516";"0";"2014-10-16 13:09:09.578";"3";;;;;;;;;;;;;;;;;;;;;
"c1320378";;;"Windows 7";"Rachel's Experiment (D.T.)";"1.0";"2";"1";"1";"2";"1";"1";"2014-10-16 12:59:44.134";"2014-10-16 13:15:22.400";"1";"0";"0";"150";"149";"module.training_block4.exec-4556.GoNoGo4";;;;;;;;;;;;;;;;;;;;;;;;;;;;;;;;;;;;;;;;;;;;;;;;;;;;;;;;;;;"1262";"2014-10-16 13:09:13.369";"NST_correctLoc";"0";"1";"FINISHED";"RIGHT";"success";"373";"0";"2014-10-16 13:09:12.105";"1";;;;;;;;;;;;;;;;;;;;;
"c1320378";;;"Windows 7";"Rachel's Experiment (D.T.)";"1.0";"2";"1";"1";"2";"1";"1";"2014-10-16 12:59:44.134";"2014-10-16 13:15:22.400";"1";"0";"0";"151";"150";"module.training_block4.exec-4556.GoNoGo4";;;;;;;;;;;;;;;;;;;;;;;;;;;;;;;;;;;;;;;;;;;;;;;;;;;;;;;;;;;"1262";"2014-10-16 13:09:15.896";"NST_correctLoc";"11";"0";"FINISHED";"LEFT";"success";"485";"0";"2014-10-16 13:09:14.633";"2";;;;;;;;;;;;;;;;;;;;;
"c1320378";;;"Windows 7";"Rachel's Experiment (D.T.)";"1.0";"2";"1";"1";"2";"1";"1";"2014-10-16 12:59:44.134";"2014-10-16 13:15:22.400";"1";"0";"0";"152";"151";"module.training_block4.exec-4556.GoNoGo4";;;;;;;;;;;;;;;;;;;;;;;;;;;;;;;;;;;;;;;;;;;;;;;;;;;;;;;;;;;"1262";"2014-10-16 13:09:18.424";"NST_correctLoc";"8";"0";"FINISHED";"LEFT";"success";"470";"0";"2014-10-16 13:09:17.160";"1";;;;;;;;;;;;;;;;;;;;;
"c1320378";;;"Windows 7";"Rachel's Experiment (D.T.)";"1.0";"2";"1";"1";"2";"1";"1";"2014-10-16 12:59:44.134";"2014-10-16 13:15:22.400";"1";"0";"0";"153";"152";"module.training_block4.exec-4556.GoNoGo4";;;;;;;;;;;;;;;;;;;;;;;;;;;;;;;;;;;;;;;;;;;;;;;;;;;;;;;;;;;"1262";"2014-10-16 13:09:20.951";"NST_correctLoc";"14";"0";"FINISHED";"LEFT";"success";"951";"0";"2014-10-16 13:09:19.687";"2";;;;;;;;;;;;;;;;;;;;;
"c1320378";;;"Windows 7";"Rachel's Experiment (D.T.)";"1.0";"2";"1";"1";"2";"1";"1";"2014-10-16 12:59:44.134";"2014-10-16 13:15:22.400";"1";"0";"0";"154";"153";"module.training_block4.exec-4556.GoNoGo4";;;;;;;;;;;;;;;;;;;;;;;;;;;;;;;;;;;;;;;;;;;;;;;;;;;;;;;;;;;"1262";"2014-10-16 13:09:23.478";"NST_correctLoc";"9";"0";"FINISHED";"LEFT";"success";"480";"0";"2014-10-16 13:09:22.215";"2";;;;;;;;;;;;;;;;;;;;;
"c1320378";;;"Windows 7";"Rachel's Experiment (D.T.)";"1.0";"2";"1";"1";"2";"1";"1";"2014-10-16 12:59:44.134";"2014-10-16 13:15:22.400";"1";"0";"0";"155";"154";"module.training_block4.exec-4556.GoNoGo4";;;;;;;;;;;;;;;;;;;;;;;;;;;;;;;;;;;;;;;;;;;;;;;;;;;;;;;;;;;"1262";"2014-10-16 13:09:26.006";"NST_correctLoc";"13";"0";"FINISHED";"LEFT";"success";"305";"0";"2014-10-16 13:09:24.742";"2";;;;;;;;;;;;;;;;;;;;;
"c1320378";;;"Windows 7";"Rachel's Experiment (D.T.)";"1.0";"2";"1";"1";"2";"1";"1";"2014-10-16 12:59:44.134";"2014-10-16 13:15:22.400";"1";"0";"0";"156";"155";"module.training_block4.exec-4556.GoNoGo4";;;;;;;;;;;;;;;;;;;;;;;;;;;;;;;;;;;;;;;;;;;;;;;;;;;;;;;;;;;"1262";"2014-10-16 13:09:28.548";"NST_correctLoc";"19";"1";"FINISHED";"RIGHT";"success";"402";"0";"2014-10-16 13:09:27.285";"3";;;;;;;;;;;;;;;;;;;;;
"c1320378";;;"Windows 7";"Rachel's Experiment (D.T.)";"1.0";"2";"1";"1";"2";"1";"1";"2014-10-16 12:59:44.134";"2014-10-16 13:15:22.400";"1";"0";"0";"157";"156";"module.training_block4.exec-4556.GoNoGo4";;;;;;;;;;;;;;;;;;;;;;;;;;;;;;;;;;;;;;;;;;;;;;;;;;;;;;;;;;;"1261";"2014-10-16 13:09:31.076";"NST_correctLoc";"12";"1";"FINISHED";"RIGHT";"success";"370";"0";"2014-10-16 13:09:29.812";"2";;;;;;;;;;;;;;;;;;;;;
"c1320378";;;"Windows 7";"Rachel's Experiment (D.T.)";"1.0";"2";"1";"1";"2";"1";"1";"2014-10-16 12:59:44.134";"2014-10-16 13:15:22.400";"1";"0";"0";"158";"157";"module.training_block4.exec-4556.GoNoGo4";;;;;;;;;;;;;;;;;;;;;;;;;;;;;;;;;;;;;;;;;;;;;;;;;;;;;;;;;;;"1261";"2014-10-16 13:09:33.603";"NST_correctLoc";"1";"1";"FINISHED";"RIGHT";"success";"427";"0";"2014-10-16 13:09:32.339";"1";;;;;;;;;;;;;;;;;;;;;
"c1320378";;;"Windows 7";"Rachel's Experiment (D.T.)";"1.0";"2";"1";"1";"2";"1";"1";"2014-10-16 12:59:44.134";"2014-10-16 13:15:22.400";"1";"0";"0";"159";"158";"module.training_block4.exec-4556.GoNoGo4";;;;;;;;;;;;;;;;;;;;;;;;;;;;;;;;;;;;;;;;;;;;;;;;;;;;;;;;;;;"1261";"2014-10-16 13:09:36.130";"NST_correctLoc";"25";"0";"FINISHED";"LEFT";"success";"292";"0";"2014-10-16 13:09:34.867";"3";;;;;;;;;;;;;;;;;;;;;
"c1320378";;;"Windows 7";"Rachel's Experiment (D.T.)";"1.0";"2";"1";"1";"2";"1";"1";"2014-10-16 12:59:44.134";"2014-10-16 13:15:22.400";"1";"0";"0";"160";"159";"module.devaluation_practice.exec-7406.devalPractice";;;;;;;;;;;;"20978";"2014-10-16 13:10:26.988";"0";"6";"8";"7";"6616";"5831";"5479";"2014-10-16 13:10:06.006";;;;;;;;;;;;;;;;;;;;;;;;;;;;;;;;;;;;;;;;;;;;;;;;;;;;;;;;;;;;;;;;;;;;;;
"c1320378";;;"Windows 7";"Rachel's Experiment (D.T.)";"1.0";"2";"1";"1";"2";"1";"1";"2014-10-16 12:59:44.134";"2014-10-16 13:15:22.400";"1";"0";"0";"161";"160";"module.devaluation_practice.exec-7406.devalPractice";;;;;;;;;;;;"11828";"2014-10-16 13:10:38.829";"1";"3";"4";"4";"2799";"2694";"3310";"2014-10-16 13:10:27.004";;;;;;;;;;;;;;;;;;;;;;;;;;;;;;;;;;;;;;;;;;;;;;;;;;;;;;;;;;;;;;;;;;;;;;
"c1320378";;;"Windows 7";"Rachel's Experiment (D.T.)";"1.0";"2";"1";"1";"2";"1";"1";"2014-10-16 12:59:44.134";"2014-10-16 13:15:22.400";"1";"0";"0";"162";"161";"module.devaluation_practice.exec-7406.devalPractice";;;;;;;;;;;;"11596";"2014-10-16 13:10:50.452";"2";"3";"6";"6";"4454";"971";"3136";"2014-10-16 13:10:38.860";;;;;;;;;;;;;;;;;;;;;;;;;;;;;;;;;;;;;;;;;;;;;;;;;;;;;;;;;;;;;;;;;;;;;;
"c1320378";;;"Windows 7";"Rachel's Experiment (D.T.)";"1.0";"2";"1";"1";"2";"1";"1";"2014-10-16 12:59:44.134";"2014-10-16 13:15:22.400";"1";"0";"0";"163";"162";"module.devaluation_practice.exec-7406.devalPractice";;;;;;;;;;;;"11762";"2014-10-16 13:11:02.246";"3";"2";"4";"5";"3057";"1999";"3670";"2014-10-16 13:10:50.483";;;;;;;;;;;;;;;;;;;;;;;;;;;;;;;;;;;;;;;;;;;;;;;;;;;;;;;;;;;;;;;;;;;;;;
"c1320378";;;"Windows 7";"Rachel's Experiment (D.T.)";"1.0";"2";"1";"1";"2";"1";"1";"2014-10-16 12:59:44.134";"2014-10-16 13:15:22.400";"1";"0";"0";"164";"163";"module.devaluation_block1.exec-2652.deval1";"14235";"2014-10-16 13:11:22.636";"21";"4";"7";"8";"2659";"4209";"4340";"2014-10-16 13:11:08.392";"3";;;;;;;;;;;;;;;;;;;;;;;;;;;;;;;;;;;;;;;;;;;;;;;;;;;;;;;;;;;;;;;;;;;;;;;;;;;;;;;;
"c1320378";;;"Windows 7";"Rachel's Experiment (D.T.)";"1.0";"2";"1";"1";"2";"1";"1";"2014-10-16 12:59:44.134";"2014-10-16 13:15:22.400";"1";"0";"0";"165";"164";"module.devaluation_block1.exec-2652.deval1";"9253";"2014-10-16 13:11:31.902";"18";"4";"5";"4";"2129";"1641";"2453";"2014-10-16 13:11:22.651";"3";;;;;;;;;;;;;;;;;;;;;;;;;;;;;;;;;;;;;;;;;;;;;;;;;;;;;;;;;;;;;;;;;;;;;;;;;;;;;;;;
"c1320378";;;"Windows 7";"Rachel's Experiment (D.T.)";"1.0";"2";"1";"1";"2";"1";"1";"2014-10-16 12:59:44.134";"2014-10-16 13:15:22.400";"1";"0";"0";"166";"165";"module.devaluation_block1.exec-2652.deval1";"9296";"2014-10-16 13:11:41.232";"2";"3";"3";"3";"3231";"1593";"1447";"2014-10-16 13:11:31.934";"1";;;;;;;;;;;;;;;;;;;;;;;;;;;;;;;;;;;;;;;;;;;;;;;;;;;;;;;;;;;;;;;;;;;;;;;;;;;;;;;;
"c1320378";;;"Windows 7";"Rachel's Experiment (D.T.)";"1.0";"2";"1";"1";"2";"1";"1";"2014-10-16 12:59:44.134";"2014-10-16 13:15:22.400";"1";"0";"0";"167";"166";"module.devaluation_block1.exec-2652.deval1";"11461";"2014-10-16 13:11:52.714";"0";"4";"3";"2";"3446";"3067";"1899";"2014-10-16 13:11:41.247";"1";;;;;;;;;;;;;;;;;;;;;;;;;;;;;;;;;;;;;;;;;;;;;;;;;;;;;;;;;;;;;;;;;;;;;;;;;;;;;;;;
"c1320378";;;"Windows 7";"Rachel's Experiment (D.T.)";"1.0";"2";"1";"1";"2";"1";"1";"2014-10-16 12:59:44.134";"2014-10-16 13:15:22.400";"1";"0";"0";"168";"167";"module.devaluation_block1.exec-2652.deval1";"8854";"2014-10-16 13:12:01.575";"5";"6";"6";"6";"3510";"900";"1405";"2014-10-16 13:11:52.729";"1";;;;;;;;;;;;;;;;;;;;;;;;;;;;;;;;;;;;;;;;;;;;;;;;;;;;;;;;;;;;;;;;;;;;;;;;;;;;;;;;
"c1320378";;;"Windows 7";"Rachel's Experiment (D.T.)";"1.0";"2";"1";"1";"2";"1";"1";"2014-10-16 12:59:44.134";"2014-10-16 13:15:22.400";"1";"0";"0";"169";"168";"module.devaluation_block1.exec-2652.deval1";"9774";"2014-10-16 13:12:11.372";"22";"7";"6";"6";"4488";"896";"1368";"2014-10-16 13:12:01.606";"3";;;;;;;;;;;;;;;;;;;;;;;;;;;;;;;;;;;;;;;;;;;;;;;;;;;;;;;;;;;;;;;;;;;;;;;;;;;;;;;;
"c1320378";;;"Windows 7";"Rachel's Experiment (D.T.)";"1.0";"2";"1";"1";"2";"1";"1";"2014-10-16 12:59:44.134";"2014-10-16 13:15:22.400";"1";"0";"0";"170";"169";"module.devaluation_block1.exec-2652.deval1";"7596";"2014-10-16 13:12:18.985";"24";"4";"3";"3";"1718";"930";"1916";"2014-10-16 13:12:11.388";"3";;;;;;;;;;;;;;;;;;;;;;;;;;;;;;;;;;;;;;;;;;;;;;;;;;;;;;;;;;;;;;;;;;;;;;;;;;;;;;;;
"c1320378";;;"Windows 7";"Rachel's Experiment (D.T.)";"1.0";"2";"1";"1";"2";"1";"1";"2014-10-16 12:59:44.134";"2014-10-16 13:15:22.400";"1";"0";"0";"171";"170";"module.devaluation_block1.exec-2652.deval1";"8237";"2014-10-16 13:12:27.253";"19";"5";"8";"8";"1206";"1074";"2937";"2014-10-16 13:12:19.001";"3";;;;;;;;;;;;;;;;;;;;;;;;;;;;;;;;;;;;;;;;;;;;;;;;;;;;;;;;;;;;;;;;;;;;;;;;;;;;;;;;
"c1320378";;;"Windows 7";"Rachel's Experiment (D.T.)";"1.0";"2";"1";"1";"2";"1";"1";"2014-10-16 12:59:44.134";"2014-10-16 13:15:22.400";"1";"0";"0";"172";"171";"module.devaluation_block1.exec-2652.deval1";"10301";"2014-10-16 13:12:37.565";"8";"6";"5";"4";"2993";"2580";"1683";"2014-10-16 13:12:27.269";"1";;;;;;;;;;;;;;;;;;;;;;;;;;;;;;;;;;;;;;;;;;;;;;;;;;;;;;;;;;;;;;;;;;;;;;;;;;;;;;;;
"c1320378";;;"Windows 7";"Rachel's Experiment (D.T.)";"1.0";"2";"1";"1";"2";"1";"1";"2014-10-16 12:59:44.134";"2014-10-16 13:15:22.400";"1";"0";"0";"173";"172";"module.devaluation_block1.exec-2652.deval1";"15492";"2014-10-16 13:12:53.072";"14";"4";"5";"4";"4162";"6095";"2210";"2014-10-16 13:12:37.581";"2";;;;;;;;;;;;;;;;;;;;;;;;;;;;;;;;;;;;;;;;;;;;;;;;;;;;;;;;;;;;;;;;;;;;;;;;;;;;;;;;
"c1320378";;;"Windows 7";"Rachel's Experiment (D.T.)";"1.0";"2";"1";"1";"2";"1";"1";"2014-10-16 12:59:44.134";"2014-10-16 13:15:22.400";"1";"0";"0";"174";"173";"module.devaluation_block1.exec-2652.deval1";"10091";"2014-10-16 13:13:03.197";"26";"8";"5";"6";"3640";"1231";"2194";"2014-10-16 13:12:53.104";"3";;;;;;;;;;;;;;;;;;;;;;;;;;;;;;;;;;;;;;;;;;;;;;;;;;;;;;;;;;;;;;;;;;;;;;;;;;;;;;;;
"c1320378";;;"Windows 7";"Rachel's Experiment (D.T.)";"1.0";"2";"1";"1";"2";"1";"1";"2014-10-16 12:59:44.134";"2014-10-16 13:15:22.400";"1";"0";"0";"175";"174";"module.devaluation_block1.exec-2652.deval1";"10604";"2014-10-16 13:13:13.821";"11";"4";"4";"4";"4395";"717";"2464";"2014-10-16 13:13:03.213";"2";;;;;;;;;;;;;;;;;;;;;;;;;;;;;;;;;;;;;;;;;;;;;;;;;;;;;;;;;;;;;;;;;;;;;;;;;;;;;;;;
"c1320378";;;"Windows 7";"Rachel's Experiment (D.T.)";"1.0";"2";"1";"1";"2";"1";"1";"2014-10-16 12:59:44.134";"2014-10-16 13:15:22.400";"1";"0";"0";"176";"175";"module.devaluation_block1.exec-2652.deval1";"8278";"2014-10-16 13:13:22.105";"1";"3";"3";"3";"2627";"807";"1820";"2014-10-16 13:13:13.837";"1";;;;;;;;;;;;;;;;;;;;;;;;;;;;;;;;;;;;;;;;;;;;;;;;;;;;;;;;;;;;;;;;;;;;;;;;;;;;;;;;
"c1320378";;;"Windows 7";"Rachel's Experiment (D.T.)";"1.0";"2";"1";"1";"2";"1";"1";"2014-10-16 12:59:44.134";"2014-10-16 13:15:22.400";"1";"0";"0";"177";"176";"module.devaluation_block1.exec-2652.deval1";"9989";"2014-10-16 13:13:32.120";"9";"3";"3";"4";"3056";"1705";"2188";"2014-10-16 13:13:22.136";"2";;;;;;;;;;;;;;;;;;;;;;;;;;;;;;;;;;;;;;;;;;;;;;;;;;;;;;;;;;;;;;;;;;;;;;;;;;;;;;;;
"c1320378";;;"Windows 7";"Rachel's Experiment (D.T.)";"1.0";"2";"1";"1";"2";"1";"1";"2014-10-16 12:59:44.134";"2014-10-16 13:15:22.400";"1";"0";"0";"178";"177";"module.devaluation_block1.exec-2652.deval1";"6250";"2014-10-16 13:13:38.407";"12";"7";"5";"7";"1657";"419";"1136";"2014-10-16 13:13:32.152";"2";;;;;;;;;;;;;;;;;;;;;;;;;;;;;;;;;;;;;;;;;;;;;;;;;;;;;;;;;;;;;;;;;;;;;;;;;;;;;;;;
"c1320378";;;"Windows 7";"Rachel's Experiment (D.T.)";"1.0";"2";"1";"1";"2";"1";"1";"2014-10-16 12:59:44.134";"2014-10-16 13:15:22.400";"1";"0";"0";"179";"178";"module.devaluation_block1.exec-2652.deval1";"9350";"2014-10-16 13:13:47.768";"3";"6";"6";"6";"3825";"863";"1633";"2014-10-16 13:13:38.423";"1";;;;;;;;;;;;;;;;;;;;;;;;;;;;;;;;;;;;;;;;;;;;;;;;;;;;;;;;;;;;;;;;;;;;;;;;;;;;;;;;
"c1320378";;;"Windows 7";"Rachel's Experiment (D.T.)";"1.0";"2";"1";"1";"2";"1";"1";"2014-10-16 12:59:44.134";"2014-10-16 13:15:22.400";"1";"0";"0";"180";"179";"module.devaluation_block1.exec-2652.deval1";"6693";"2014-10-16 13:13:54.476";"4";"7";"7";"7";"1705";"801";"1162";"2014-10-16 13:13:47.783";"1";;;;;;;;;;;;;;;;;;;;;;;;;;;;;;;;;;;;;;;;;;;;;;;;;;;;;;;;;;;;;;;;;;;;;;;;;;;;;;;;
"c1320378";;;"Windows 7";"Rachel's Experiment (D.T.)";"1.0";"2";"1";"1";"2";"1";"1";"2014-10-16 12:59:44.134";"2014-10-16 13:15:22.400";"1";"0";"0";"181";"180";"module.devaluation_block1.exec-2652.deval1";"9621";"2014-10-16 13:14:04.117";"25";"4";"6";"7";"3085";"2161";"1361";"2014-10-16 13:13:54.492";"3";;;;;;;;;;;;;;;;;;;;;;;;;;;;;;;;;;;;;;;;;;;;;;;;;;;;;;;;;;;;;;;;;;;;;;;;;;;;;;;;
"c1320378";;;"Windows 7";"Rachel's Experiment (D.T.)";"1.0";"2";"1";"1";"2";"1";"1";"2014-10-16 12:59:44.134";"2014-10-16 13:15:22.400";"1";"0";"0";"182";"181";"module.devaluation_block1.exec-2652.deval1";"14676";"2014-10-16 13:14:18.828";"23";"7";"3";"5";"5037";"2856";"3747";"2014-10-16 13:14:04.148";"3";;;;;;;;;;;;;;;;;;;;;;;;;;;;;;;;;;;;;;;;;;;;;;;;;;;;;;;;;;;;;;;;;;;;;;;;;;;;;;;;
"c1320378";;;"Windows 7";"Rachel's Experiment (D.T.)";"1.0";"2";"1";"1";"2";"1";"1";"2014-10-16 12:59:44.134";"2014-10-16 13:15:22.400";"1";"0";"0";"183";"182";"module.devaluation_block1.exec-2652.deval1";"6221";"2014-10-16 13:14:25.069";"10";"7";"7";"7";"750";"860";"1574";"2014-10-16 13:14:18.844";"2";;;;;;;;;;;;;;;;;;;;;;;;;;;;;;;;;;;;;;;;;;;;;;;;;;;;;;;;;;;;;;;;;;;;;;;;;;;;;;;;
"c1320378";;;"Windows 7";"Rachel's Experiment (D.T.)";"1.0";"2";"1";"1";"2";"1";"1";"2014-10-16 12:59:44.134";"2014-10-16 13:15:22.400";"1";"0";"0";"184";"183";"module.devaluation_block1.exec-2652.deval1";"6997";"2014-10-16 13:14:32.089";"20";"5";"3";"4";"1381";"1230";"1366";"2014-10-16 13:14:25.084";"3";;;;;;;;;;;;;;;;;;;;;;;;;;;;;;;;;;;;;;;;;;;;;;;;;;;;;;;;;;;;;;;;;;;;;;;;;;;;;;;;
"c1320378";;;"Windows 7";"Rachel's Experiment (D.T.)";"1.0";"2";"1";"1";"2";"1";"1";"2014-10-16 12:59:44.134";"2014-10-16 13:15:22.400";"1";"0";"0";"185";"184";"module.devaluation_block1.exec-2652.deval1";"8397";"2014-10-16 13:14:40.497";"16";"3";"3";"3";"1505";"910";"2949";"2014-10-16 13:14:32.104";"2";;;;;;;;;;;;;;;;;;;;;;;;;;;;;;;;;;;;;;;;;;;;;;;;;;;;;;;;;;;;;;;;;;;;;;;;;;;;;;;;
"c1320378";;;"Windows 7";"Rachel's Experiment (D.T.)";"1.0";"2";"1";"1";"2";"1";"1";"2014-10-16 12:59:44.134";"2014-10-16 13:15:22.400";"1";"0";"0";"186";"185";"module.devaluation_block1.exec-2652.deval1";"6884";"2014-10-16 13:14:47.408";"15";"3";"3";"3";"1713";"1309";"834";"2014-10-16 13:14:40.513";"2";;;;;;;;;;;;;;;;;;;;;;;;;;;;;;;;;;;;;;;;;;;;;;;;;;;;;;;;;;;;;;;;;;;;;;;;;;;;;;;;
"c1320378";;;"Windows 7";"Rachel's Experiment (D.T.)";"1.0";"2";"1";"1";"2";"1";"1";"2014-10-16 12:59:44.134";"2014-10-16 13:15:22.400";"1";"0";"0";"187";"186";"module.devaluation_block1.exec-2652.deval1";"7925";"2014-10-16 13:14:55.349";"6";"4";"5";"6";"818";"2841";"1236";"2014-10-16 13:14:47.424";"1";;;;;;;;;;;;;;;;;;;;;;;;;;;;;;;;;;;;;;;;;;;;;;;;;;;;;;;;;;;;;;;;;;;;;;;;;;;;;;;;
"c1320378";;;"Windows 7";"Rachel's Experiment (D.T.)";"1.0";"2";"1";"1";"2";"1";"1";"2014-10-16 12:59:44.134";"2014-10-16 13:15:22.400";"1";"0";"0";"188";"187";"module.devaluation_block1.exec-2652.deval1";"7500";"2014-10-16 13:15:02.869";"13";"4";"5";"6";"1006";"1063";"2404";"2014-10-16 13:14:55.365";"2";;;;;;;;;;;;;;;;;;;;;;;;;;;;;;;;;;;;;;;;;;;;;;;;;;;;;;;;;;;;;;;;;;;;;;;;;;;;;;;;
"c1320378";;;"Windows 7";"Rachel's Experiment (D.T.)";"1.0";"2";"1";"1";"2";"1";"1";"2014-10-16 12:59:44.134";"2014-10-16 13:15:22.400";"1";"0";"0";"189";"188";"module.devaluation_block1.exec-2652.deval1";"9397";"2014-10-16 13:15:12.276";"17";"4";"4";"5";"2934";"2118";"1319";"2014-10-16 13:15:02.884";"2";;;;;;;;;;;;;;;;;;;;;;;;;;;;;;;;;;;;;;;;;;;;;;;;;;;;;;;;;;;;;;;;;;;;;;;;;;;;;;;;
"c1320378";;;"Windows 7";"Rachel's Experiment (D.T.)";"1.0";"2";"1";"1";"2";"1";"1";"2014-10-16 12:59:44.134";"2014-10-16 13:15:22.400";"1";"0";"0";"190";"189";"module.devaluation_block1.exec-2652.deval1";"6795";"2014-10-16 13:15:19.093";"7";"5";"5";"5";"2424";"822";"515";"2014-10-16 13:15:12.307";"1";;;;;;;;;;;;;;;;;;;;;;;;;;;;;;;;;;;;;;;;;;;;;;;;;;;;;;;;;;;;;;;;;;;;;;;;;;;;;;;;
