"user.name";"user.yearOfBirth";"user.sex";"user.osName";"module.name";"module.version";"module.online.subject.code";"module.online.study.id";"module.online.module.nr";"module.online.group.nr";"session.id";"session.index";"session.startTime";"session.endTime";"session.completed";"session.node-1079.DevalQorder";"session.node-3747.conditionType";"trial.id";"trial.index";"trial.name";"trial.deval1.durationTime";"trial.deval1.endTime";"trial.deval1.icon";"trial.deval1.Resp_Attractive";"trial.deval1.Resp_Eat";"trial.deval1.Resp_Taste";"trial.deval1.RT_Attractive";"trial.deval1.RT_Eat";"trial.deval1.RT_Taste";"trial.deval1.startTime";"trial.deval1.stimulus type";"trial.devalPractice.durationTime";"trial.devalPractice.endTime";"trial.devalPractice.icon";"trial.devalPractice.Resp_Attractive";"trial.devalPractice.Resp_Eat";"trial.devalPractice.Resp_Taste";"trial.devalPractice.RT_Attractive";"trial.devalPractice.RT_Eat";"trial.devalPractice.RT_Taste";"trial.devalPractice.startTime";"trial.devalPractice.stimulus type";"trial.GoNoGo1.durationTime";"trial.GoNoGo1.endTime";"trial.GoNoGo1.Error Type";"trial.GoNoGo1.icon";"trial.GoNoGo1.location";"trial.GoNoGo1.outcome";"trial.GoNoGo1.response";"trial.GoNoGo1.result";"trial.GoNoGo1.RT";"trial.GoNoGo1.signal";"trial.GoNoGo1.startTime";"trial.GoNoGo1.stimulus type";"trial.GoNoGo2.durationTime";"trial.GoNoGo2.endTime";"trial.GoNoGo2.Error Type";"trial.GoNoGo2.icon";"trial.GoNoGo2.location";"trial.GoNoGo2.outcome";"trial.GoNoGo2.response";"trial.GoNoGo2.result";"trial.GoNoGo2.RT";"trial.GoNoGo2.signal";"trial.GoNoGo2.startTime";"trial.GoNoGo2.stimulus type";"trial.GoNoGo3.durationTime";"trial.GoNoGo3.endTime";"trial.GoNoGo3.Error Type";"trial.GoNoGo3.icon";"trial.GoNoGo3.location";"trial.GoNoGo3.outcome";"trial.GoNoGo3.response";"trial.GoNoGo3.result";"trial.GoNoGo3.RT";"trial.GoNoGo3.signal";"trial.GoNoGo3.startTime";"trial.GoNoGo3.stimulus type";"trial.GoNoGo4.durationTime";"trial.GoNoGo4.endTime";"trial.GoNoGo4.Error Type";"trial.GoNoGo4.icon";"trial.GoNoGo4.location";"trial.GoNoGo4.outcome";"trial.GoNoGo4.response";"trial.GoNoGo4.result";"trial.GoNoGo4.RT";"trial.GoNoGo4.signal";"trial.GoNoGo4.startTime";"trial.GoNoGo4.stimulus type";"trial.GoNoGo_Practice.durationTime";"trial.GoNoGo_Practice.endTime";"trial.GoNoGo_Practice.icon";"trial.GoNoGo_Practice.location";"trial.GoNoGo_Practice.outcome";"trial.GoNoGo_Practice.response";"trial.GoNoGo_Practice.result";"trial.GoNoGo_Practice.RT";"trial.GoNoGo_Practice.signal";"trial.GoNoGo_Practice.startTime";"trial.GoNoGo_Practice.stimulus type";"trial.GoNoGo_Tutorial.durationTime";"trial.GoNoGo_Tutorial.endTime";"trial.GoNoGo_Tutorial.icon";"trial.GoNoGo_Tutorial.location";"trial.GoNoGo_Tutorial.outcome";"trial.GoNoGo_Tutorial.response";"trial.GoNoGo_Tutorial.result";"trial.GoNoGo_Tutorial.RT";"trial.GoNoGo_Tutorial.signal";"trial.GoNoGo_Tutorial.startTime"
"kath131";;;"Windows 7";"Rachel's Experiment (D.T.)";"1.0";"2";"1";"1";"2";"1";"1";"2014-09-23 19:24:01.379";"2014-09-23 19:39:51.940";"1";"0";"0";"1";"0";"module.GoNoGotutorial.exec-5308.GoNoGo_Tutorial";;;;;;;;;;;;;;;;;;;;;;;;;;;;;;;;;;;;;;;;;;;;;;;;;;;;;;;;;;;;;;;;;;;;;;;;;;;;;;;;;;"4007";"2014-09-23 19:25:11.317";"leftResponse";"0";"FINISHED";"NONE";"failure";"0";"0";"2014-09-23 19:25:07.308"
"kath131";;;"Windows 7";"Rachel's Experiment (D.T.)";"1.0";"2";"1";"1";"2";"1";"1";"2014-09-23 19:24:01.379";"2014-09-23 19:39:51.940";"1";"0";"0";"2";"1";"module.GoNoGotutorial.exec-5308.GoNoGo_Tutorial";;;;;;;;;;;;;;;;;;;;;;;;;;;;;;;;;;;;;;;;;;;;;;;;;;;;;;;;;;;;;;;;;;;;;;;;;;;;;;;;;;"3995";"2014-09-23 19:25:16.731";"rightResponse";"1";"FINISHED";"NONE";"failure";"0";"0";"2014-09-23 19:25:12.721"
"kath131";;;"Windows 7";"Rachel's Experiment (D.T.)";"1.0";"2";"1";"1";"2";"1";"1";"2014-09-23 19:24:01.379";"2014-09-23 19:39:51.940";"1";"0";"0";"3";"2";"module.GoNoGotutorial.exec-5308.GoNoGo_Tutorial";;;;;;;;;;;;;;;;;;;;;;;;;;;;;;;;;;;;;;;;;;;;;;;;;;;;;;;;;;;;;;;;;;;;;;;;;;;;;;;;;;"3995";"2014-09-23 19:25:22.159";"quickResponse";"0";"FINISHED";"NONE";"failure";"0";"0";"2014-09-23 19:25:18.150"
"kath131";;;"Windows 7";"Rachel's Experiment (D.T.)";"1.0";"2";"1";"1";"2";"1";"1";"2014-09-23 19:24:01.379";"2014-09-23 19:39:51.940";"1";"0";"0";"4";"3";"module.GoNoGopractice.exec-2912.GoNoGo_Practice";;;;;;;;;;;;;;;;;;;;;;;;;;;;;;;;;;;;;;;;;;;;;;;;;;;;;;;;;;;;;;;;;;;;;;;"1969";"2014-09-23 19:25:31.083";"18";"0";"FINISHED";"LEFT";"success";"509";"0";"2014-09-23 19:25:29.101";"3";;;;;;;;;;
"kath131";;;"Windows 7";"Rachel's Experiment (D.T.)";"1.0";"2";"1";"1";"2";"1";"1";"2014-09-23 19:24:01.379";"2014-09-23 19:39:51.940";"1";"0";"0";"5";"4";"module.GoNoGopractice.exec-2912.GoNoGo_Practice";;;;;;;;;;;;;;;;;;;;;;;;;;;;;;;;;;;;;;;;;;;;;;;;;;;;;;;;;;;;;;;;;;;;;;;"1955";"2014-09-23 19:25:34.421";"21";"1";"FINISHED";"RIGHT";"success";"693";"0";"2014-09-23 19:25:32.455";"3";;;;;;;;;;
"kath131";;;"Windows 7";"Rachel's Experiment (D.T.)";"1.0";"2";"1";"1";"2";"1";"1";"2014-09-23 19:24:01.379";"2014-09-23 19:39:51.940";"1";"0";"0";"6";"5";"module.GoNoGopractice.exec-2912.GoNoGo_Practice";;;;;;;;;;;;;;;;;;;;;;;;;;;;;;;;;;;;;;;;;;;;;;;;;;;;;;;;;;;;;;;;;;;;;;;"1959";"2014-09-23 19:25:37.728";"14";"1";"FINISHED";"RIGHT";"success";"628";"0";"2014-09-23 19:25:35.763";"2";;;;;;;;;;
"kath131";;;"Windows 7";"Rachel's Experiment (D.T.)";"1.0";"2";"1";"1";"2";"1";"1";"2014-09-23 19:24:01.379";"2014-09-23 19:39:51.940";"1";"0";"0";"7";"6";"module.GoNoGopractice.exec-2912.GoNoGo_Practice";;;;;;;;;;;;;;;;;;;;;;;;;;;;;;;;;;;;;;;;;;;;;;;;;;;;;;;;;;;;;;;;;;;;;;;"1956";"2014-09-23 19:25:41.004";"26";"0";"FINISHED";"LEFT";"success";"446";"0";"2014-09-23 19:25:39.039";"3";;;;;;;;;;
"kath131";;;"Windows 7";"Rachel's Experiment (D.T.)";"1.0";"2";"1";"1";"2";"1";"1";"2014-09-23 19:24:01.379";"2014-09-23 19:39:51.940";"1";"0";"0";"8";"7";"module.GoNoGopractice.exec-2912.GoNoGo_Practice";;;;;;;;;;;;;;;;;;;;;;;;;;;;;;;;;;;;;;;;;;;;;;;;;;;;;;;;;;;;;;;;;;;;;;;"1953";"2014-09-23 19:25:44.327";"2";"0";"FINISHED";"LEFT";"success";"426";"0";"2014-09-23 19:25:42.361";"1";;;;;;;;;;
"kath131";;;"Windows 7";"Rachel's Experiment (D.T.)";"1.0";"2";"1";"1";"2";"1";"1";"2014-09-23 19:24:01.379";"2014-09-23 19:39:51.940";"1";"0";"0";"9";"8";"module.GoNoGopractice.exec-2912.GoNoGo_Practice";;;;;;;;;;;;;;;;;;;;;;;;;;;;;;;;;;;;;;;;;;;;;;;;;;;;;;;;;;;;;;;;;;;;;;;"1956";"2014-09-23 19:25:47.603";"30";"0";"FINISHED";"LEFT";"success";"353";"0";"2014-09-23 19:25:45.637";"3";;;;;;;;;;
"kath131";;;"Windows 7";"Rachel's Experiment (D.T.)";"1.0";"2";"1";"1";"2";"1";"1";"2014-09-23 19:24:01.379";"2014-09-23 19:39:51.940";"1";"0";"0";"10";"9";"module.GoNoGopractice.exec-2912.GoNoGo_Practice";;;;;;;;;;;;;;;;;;;;;;;;;;;;;;;;;;;;;;;;;;;;;;;;;;;;;;;;;;;;;;;;;;;;;;;"1959";"2014-09-23 19:25:50.910";"6";"1";"FINISHED";"RIGHT";"success";"345";"0";"2014-09-23 19:25:48.945";"1";;;;;;;;;;
"kath131";;;"Windows 7";"Rachel's Experiment (D.T.)";"1.0";"2";"1";"1";"2";"1";"1";"2014-09-23 19:24:01.379";"2014-09-23 19:39:51.940";"1";"0";"0";"11";"10";"module.GoNoGopractice.exec-2912.GoNoGo_Practice";;;;;;;;;;;;;;;;;;;;;;;;;;;;;;;;;;;;;;;;;;;;;;;;;;;;;;;;;;;;;;;;;;;;;;;"1956";"2014-09-23 19:25:54.186";"34";"0";"FINISHED";"LEFT";"success";"405";"0";"2014-09-23 19:25:52.221";"3";;;;;;;;;;
"kath131";;;"Windows 7";"Rachel's Experiment (D.T.)";"1.0";"2";"1";"1";"2";"1";"1";"2014-09-23 19:24:01.379";"2014-09-23 19:39:51.940";"1";"0";"0";"12";"11";"module.GoNoGopractice.exec-2912.GoNoGo_Practice";;;;;;;;;;;;;;;;;;;;;;;;;;;;;;;;;;;;;;;;;;;;;;;;;;;;;;;;;;;;;;;;;;;;;;;"1955";"2014-09-23 19:25:57.493";"23";"1";"FINISHED";"RIGHT";"success";"340";"0";"2014-09-23 19:25:55.528";"3";;;;;;;;;;
"kath131";;;"Windows 7";"Rachel's Experiment (D.T.)";"1.0";"2";"1";"1";"2";"1";"1";"2014-09-23 19:24:01.379";"2014-09-23 19:39:51.940";"1";"0";"0";"13";"12";"module.GoNoGopractice.exec-2912.GoNoGo_Practice";;;;;;;;;;;;;;;;;;;;;;;;;;;;;;;;;;;;;;;;;;;;;;;;;;;;;;;;;;;;;;;;;;;;;;;"1955";"2014-09-23 19:26:00.801";"13";"0";"FINISHED";"LEFT";"success";"431";"0";"2014-09-23 19:25:58.835";"2";;;;;;;;;;
"kath131";;;"Windows 7";"Rachel's Experiment (D.T.)";"1.0";"2";"1";"1";"2";"1";"1";"2014-09-23 19:24:01.379";"2014-09-23 19:39:51.940";"1";"0";"0";"14";"13";"module.GoNoGopractice.exec-2912.GoNoGo_Practice";;;;;;;;;;;;;;;;;;;;;;;;;;;;;;;;;;;;;;;;;;;;;;;;;;;;;;;;;;;;;;;;;;;;;;;"1956";"2014-09-23 19:26:04.077";"3";"1";"FINISHED";"RIGHT";"success";"410";"0";"2014-09-23 19:26:02.111";"1";;;;;;;;;;
"kath131";;;"Windows 7";"Rachel's Experiment (D.T.)";"1.0";"2";"1";"1";"2";"1";"1";"2014-09-23 19:24:01.379";"2014-09-23 19:39:51.940";"1";"0";"0";"15";"14";"module.GoNoGopractice.exec-2912.GoNoGo_Practice";;;;;;;;;;;;;;;;;;;;;;;;;;;;;;;;;;;;;;;;;;;;;;;;;;;;;;;;;;;;;;;;;;;;;;;"1958";"2014-09-23 19:26:07.353";"27";"1";"FINISHED";"RIGHT";"success";"533";"0";"2014-09-23 19:26:05.387";"3";;;;;;;;;;
"kath131";;;"Windows 7";"Rachel's Experiment (D.T.)";"1.0";"2";"1";"1";"2";"1";"1";"2014-09-23 19:24:01.379";"2014-09-23 19:39:51.940";"1";"0";"0";"16";"15";"module.training_block1.exec-2644.GoNoGo1";;;;;;;;;;;;;;;;;;;;;;;"1264";"2014-09-23 19:26:18.522";"NST_correctLoc";"24";"0";"FINISHED";"LEFT";"success";"407";"0";"2014-09-23 19:26:17.243";"3";;;;;;;;;;;;;;;;;;;;;;;;;;;;;;;;;;;;;;;;;;;;;;;;;;;;;;;;;
"kath131";;;"Windows 7";"Rachel's Experiment (D.T.)";"1.0";"2";"1";"1";"2";"1";"1";"2014-09-23 19:24:01.379";"2014-09-23 19:39:51.940";"1";"0";"0";"17";"16";"module.training_block1.exec-2644.GoNoGo1";;;;;;;;;;;;;;;;;;;;;;;"1261";"2014-09-23 19:26:21.112";"NST_correctLoc";"27";"0";"FINISHED";"LEFT";"success";"448";"0";"2014-09-23 19:26:19.848";"3";;;;;;;;;;;;;;;;;;;;;;;;;;;;;;;;;;;;;;;;;;;;;;;;;;;;;;;;;
"kath131";;;"Windows 7";"Rachel's Experiment (D.T.)";"1.0";"2";"1";"1";"2";"1";"1";"2014-09-23 19:24:01.379";"2014-09-23 19:39:51.940";"1";"0";"0";"18";"17";"module.training_block1.exec-2644.GoNoGo1";;;;;;;;;;;;;;;;;;;;;;;"1260";"2014-09-23 19:26:23.733";"NST_correctLoc";"15";"1";"FINISHED";"RIGHT";"success";"468";"0";"2014-09-23 19:26:22.469";"2";;;;;;;;;;;;;;;;;;;;;;;;;;;;;;;;;;;;;;;;;;;;;;;;;;;;;;;;;
"kath131";;;"Windows 7";"Rachel's Experiment (D.T.)";"1.0";"2";"1";"1";"2";"1";"1";"2014-09-23 19:24:01.379";"2014-09-23 19:39:51.940";"1";"0";"0";"19";"18";"module.training_block1.exec-2644.GoNoGo1";;;;;;;;;;;;;;;;;;;;;;;"1254";"2014-09-23 19:26:26.322";"NST_correctLoc";"8";"0";"FINISHED";"LEFT";"success";"526";"0";"2014-09-23 19:26:25.059";"1";;;;;;;;;;;;;;;;;;;;;;;;;;;;;;;;;;;;;;;;;;;;;;;;;;;;;;;;;
"kath131";;;"Windows 7";"Rachel's Experiment (D.T.)";"1.0";"2";"1";"1";"2";"1";"1";"2014-09-23 19:24:01.379";"2014-09-23 19:39:51.940";"1";"0";"0";"20";"19";"module.training_block1.exec-2644.GoNoGo1";;;;;;;;;;;;;;;;;;;;;;;"1261";"2014-09-23 19:26:28.896";"NST_correctLoc";"21";"0";"FINISHED";"LEFT";"success";"395";"0";"2014-09-23 19:26:27.633";"3";;;;;;;;;;;;;;;;;;;;;;;;;;;;;;;;;;;;;;;;;;;;;;;;;;;;;;;;;
"kath131";;;"Windows 7";"Rachel's Experiment (D.T.)";"1.0";"2";"1";"1";"2";"1";"1";"2014-09-23 19:24:01.379";"2014-09-23 19:39:51.940";"1";"0";"0";"21";"20";"module.training_block1.exec-2644.GoNoGo1";;;;;;;;;;;;;;;;;;;;;;;"1250";"2014-09-23 19:26:31.470";"NST_correctLoc";"25";"1";"FINISHED";"RIGHT";"success";"331";"0";"2014-09-23 19:26:30.207";"3";;;;;;;;;;;;;;;;;;;;;;;;;;;;;;;;;;;;;;;;;;;;;;;;;;;;;;;;;
"kath131";;;"Windows 7";"Rachel's Experiment (D.T.)";"1.0";"2";"1";"1";"2";"1";"1";"2014-09-23 19:24:01.379";"2014-09-23 19:39:51.940";"1";"0";"0";"22";"21";"module.training_block1.exec-2644.GoNoGo1";;;;;;;;;;;;;;;;;;;;;;;"1256";"2014-09-23 19:26:34.138";"NST_correctLoc";"0";"1";"FINISHED";"RIGHT";"success";"329";"0";"2014-09-23 19:26:32.874";"1";;;;;;;;;;;;;;;;;;;;;;;;;;;;;;;;;;;;;;;;;;;;;;;;;;;;;;;;;
"kath131";;;"Windows 7";"Rachel's Experiment (D.T.)";"1.0";"2";"1";"1";"2";"1";"1";"2014-09-23 19:24:01.379";"2014-09-23 19:39:51.940";"1";"0";"0";"23";"22";"module.training_block1.exec-2644.GoNoGo1";;;;;;;;;;;;;;;;;;;;;;;"1261";"2014-09-23 19:26:36.712";"NST_correctLoc";"30";"1";"FINISHED";"RIGHT";"success";"320";"0";"2014-09-23 19:26:35.448";"3";;;;;;;;;;;;;;;;;;;;;;;;;;;;;;;;;;;;;;;;;;;;;;;;;;;;;;;;;
"kath131";;;"Windows 7";"Rachel's Experiment (D.T.)";"1.0";"2";"1";"1";"2";"1";"1";"2014-09-23 19:24:01.379";"2014-09-23 19:39:51.940";"1";"0";"0";"24";"23";"module.training_block1.exec-2644.GoNoGo1";;;;;;;;;;;;;;;;;;;;;;;"1261";"2014-09-23 19:26:39.286";"NST_correctLoc";"14";"1";"FINISHED";"RIGHT";"success";"345";"0";"2014-09-23 19:26:38.022";"2";;;;;;;;;;;;;;;;;;;;;;;;;;;;;;;;;;;;;;;;;;;;;;;;;;;;;;;;;
"kath131";;;"Windows 7";"Rachel's Experiment (D.T.)";"1.0";"2";"1";"1";"2";"1";"1";"2014-09-23 19:24:01.379";"2014-09-23 19:39:51.940";"1";"0";"0";"25";"24";"module.training_block1.exec-2644.GoNoGo1";;;;;;;;;;;;;;;;;;;;;;;"1261";"2014-09-23 19:26:41.860";"NST_correctLoc";"6";"0";"FINISHED";"LEFT";"success";"320";"0";"2014-09-23 19:26:40.596";"1";;;;;;;;;;;;;;;;;;;;;;;;;;;;;;;;;;;;;;;;;;;;;;;;;;;;;;;;;
"kath131";;;"Windows 7";"Rachel's Experiment (D.T.)";"1.0";"2";"1";"1";"2";"1";"1";"2014-09-23 19:24:01.379";"2014-09-23 19:39:51.940";"1";"0";"0";"26";"25";"module.training_block1.exec-2644.GoNoGo1";;;;;;;;;;;;;;;;;;;;;;;"1261";"2014-09-23 19:26:44.449";"NST_correctLoc";"9";"0";"FINISHED";"LEFT";"success";"390";"0";"2014-09-23 19:26:43.186";"2";;;;;;;;;;;;;;;;;;;;;;;;;;;;;;;;;;;;;;;;;;;;;;;;;;;;;;;;;
"kath131";;;"Windows 7";"Rachel's Experiment (D.T.)";"1.0";"2";"1";"1";"2";"1";"1";"2014-09-23 19:24:01.379";"2014-09-23 19:39:51.940";"1";"0";"0";"27";"26";"module.training_block1.exec-2644.GoNoGo1";;;;;;;;;;;;;;;;;;;;;;;"1253";"2014-09-23 19:26:47.040";"NST_correctLoc";"16";"0";"FINISHED";"LEFT";"success";"660";"0";"2014-09-23 19:26:45.776";"2";;;;;;;;;;;;;;;;;;;;;;;;;;;;;;;;;;;;;;;;;;;;;;;;;;;;;;;;;
"kath131";;;"Windows 7";"Rachel's Experiment (D.T.)";"1.0";"2";"1";"1";"2";"1";"1";"2014-09-23 19:24:01.379";"2014-09-23 19:39:51.940";"1";"0";"0";"28";"27";"module.training_block1.exec-2644.GoNoGo1";;;;;;;;;;;;;;;;;;;;;;;"1261";"2014-09-23 19:26:49.614";"NST_correctLoc";"2";"0";"FINISHED";"LEFT";"success";"396";"0";"2014-09-23 19:26:48.350";"1";;;;;;;;;;;;;;;;;;;;;;;;;;;;;;;;;;;;;;;;;;;;;;;;;;;;;;;;;
"kath131";;;"Windows 7";"Rachel's Experiment (D.T.)";"1.0";"2";"1";"1";"2";"1";"1";"2014-09-23 19:24:01.379";"2014-09-23 19:39:51.940";"1";"0";"0";"29";"28";"module.training_block1.exec-2644.GoNoGo1";;;;;;;;;;;;;;;;;;;;;;;"1257";"2014-09-23 19:26:52.219";"NST_correctLoc";"20";"1";"FINISHED";"RIGHT";"success";"578";"0";"2014-09-23 19:26:50.956";"3";;;;;;;;;;;;;;;;;;;;;;;;;;;;;;;;;;;;;;;;;;;;;;;;;;;;;;;;;
"kath131";;;"Windows 7";"Rachel's Experiment (D.T.)";"1.0";"2";"1";"1";"2";"1";"1";"2014-09-23 19:24:01.379";"2014-09-23 19:39:51.940";"1";"0";"0";"30";"29";"module.training_block1.exec-2644.GoNoGo1";;;;;;;;;;;;;;;;;;;;;;;"1254";"2014-09-23 19:26:54.793";"NST_correctLoc";"22";"0";"FINISHED";"LEFT";"success";"305";"0";"2014-09-23 19:26:53.530";"3";;;;;;;;;;;;;;;;;;;;;;;;;;;;;;;;;;;;;;;;;;;;;;;;;;;;;;;;;
"kath131";;;"Windows 7";"Rachel's Experiment (D.T.)";"1.0";"2";"1";"1";"2";"1";"1";"2014-09-23 19:24:01.379";"2014-09-23 19:39:51.940";"1";"0";"0";"31";"30";"module.training_block1.exec-2644.GoNoGo1";;;;;;;;;;;;;;;;;;;;;;;"1261";"2014-09-23 19:26:57.383";"NST_correctLoc";"13";"0";"FINISHED";"LEFT";"success";"365";"0";"2014-09-23 19:26:56.119";"2";;;;;;;;;;;;;;;;;;;;;;;;;;;;;;;;;;;;;;;;;;;;;;;;;;;;;;;;;
"kath131";;;"Windows 7";"Rachel's Experiment (D.T.)";"1.0";"2";"1";"1";"2";"1";"1";"2014-09-23 19:24:01.379";"2014-09-23 19:39:51.940";"1";"0";"0";"32";"31";"module.training_block1.exec-2644.GoNoGo1";;;;;;;;;;;;;;;;;;;;;;;"1262";"2014-09-23 19:26:59.988";"NST_correctLoc";"19";"0";"FINISHED";"LEFT";"success";"327";"0";"2014-09-23 19:26:58.724";"3";;;;;;;;;;;;;;;;;;;;;;;;;;;;;;;;;;;;;;;;;;;;;;;;;;;;;;;;;
"kath131";;;"Windows 7";"Rachel's Experiment (D.T.)";"1.0";"2";"1";"1";"2";"1";"1";"2014-09-23 19:24:01.379";"2014-09-23 19:39:51.940";"1";"0";"0";"33";"32";"module.training_block1.exec-2644.GoNoGo1";;;;;;;;;;;;;;;;;;;;;;;"1255";"2014-09-23 19:27:02.562";"NST_correctLoc";"28";"1";"FINISHED";"RIGHT";"success";"305";"0";"2014-09-23 19:27:01.298";"3";;;;;;;;;;;;;;;;;;;;;;;;;;;;;;;;;;;;;;;;;;;;;;;;;;;;;;;;;
"kath131";;;"Windows 7";"Rachel's Experiment (D.T.)";"1.0";"2";"1";"1";"2";"1";"1";"2014-09-23 19:24:01.379";"2014-09-23 19:39:51.940";"1";"0";"0";"34";"33";"module.training_block1.exec-2644.GoNoGo1";;;;;;;;;;;;;;;;;;;;;;;"1261";"2014-09-23 19:27:05.120";"NST_correctLoc";"3";"0";"FINISHED";"LEFT";"success";"402";"0";"2014-09-23 19:27:03.857";"1";;;;;;;;;;;;;;;;;;;;;;;;;;;;;;;;;;;;;;;;;;;;;;;;;;;;;;;;;
"kath131";;;"Windows 7";"Rachel's Experiment (D.T.)";"1.0";"2";"1";"1";"2";"1";"1";"2014-09-23 19:24:01.379";"2014-09-23 19:39:51.940";"1";"0";"0";"35";"34";"module.training_block1.exec-2644.GoNoGo1";;;;;;;;;;;;;;;;;;;;;;;"1249";"2014-09-23 19:27:07.741";"NST_correctLoc";"10";"1";"FINISHED";"RIGHT";"success";"315";"0";"2014-09-23 19:27:06.478";"2";;;;;;;;;;;;;;;;;;;;;;;;;;;;;;;;;;;;;;;;;;;;;;;;;;;;;;;;;
"kath131";;;"Windows 7";"Rachel's Experiment (D.T.)";"1.0";"2";"1";"1";"2";"1";"1";"2014-09-23 19:24:01.379";"2014-09-23 19:39:51.940";"1";"0";"0";"36";"35";"module.training_block1.exec-2644.GoNoGo1";;;;;;;;;;;;;;;;;;;;;;;"1261";"2014-09-23 19:27:10.315";"NST_correctLoc";"26";"1";"FINISHED";"RIGHT";"success";"300";"0";"2014-09-23 19:27:09.052";"3";;;;;;;;;;;;;;;;;;;;;;;;;;;;;;;;;;;;;;;;;;;;;;;;;;;;;;;;;
"kath131";;;"Windows 7";"Rachel's Experiment (D.T.)";"1.0";"2";"1";"1";"2";"1";"1";"2014-09-23 19:24:01.379";"2014-09-23 19:39:51.940";"1";"0";"0";"37";"36";"module.training_block1.exec-2644.GoNoGo1";;;;;;;;;;;;;;;;;;;;;;;"1256";"2014-09-23 19:27:12.905";"NST_correctLoc";"17";"0";"FINISHED";"LEFT";"success";"329";"0";"2014-09-23 19:27:11.641";"2";;;;;;;;;;;;;;;;;;;;;;;;;;;;;;;;;;;;;;;;;;;;;;;;;;;;;;;;;
"kath131";;;"Windows 7";"Rachel's Experiment (D.T.)";"1.0";"2";"1";"1";"2";"1";"1";"2014-09-23 19:24:01.379";"2014-09-23 19:39:51.940";"1";"0";"0";"38";"37";"module.training_block1.exec-2644.GoNoGo1";;;;;;;;;;;;;;;;;;;;;;;"1261";"2014-09-23 19:27:15.479";"NST_correctLoc";"18";"0";"FINISHED";"LEFT";"success";"372";"0";"2014-09-23 19:27:14.215";"3";;;;;;;;;;;;;;;;;;;;;;;;;;;;;;;;;;;;;;;;;;;;;;;;;;;;;;;;;
"kath131";;;"Windows 7";"Rachel's Experiment (D.T.)";"1.0";"2";"1";"1";"2";"1";"1";"2014-09-23 19:24:01.379";"2014-09-23 19:39:51.940";"1";"0";"0";"39";"38";"module.training_block1.exec-2644.GoNoGo1";;;;;;;;;;;;;;;;;;;;;;;"1258";"2014-09-23 19:27:18.443";"NST_correctLoc";"11";"1";"FINISHED";"RIGHT";"success";"279";"0";"2014-09-23 19:27:17.179";"2";;;;;;;;;;;;;;;;;;;;;;;;;;;;;;;;;;;;;;;;;;;;;;;;;;;;;;;;;
"kath131";;;"Windows 7";"Rachel's Experiment (D.T.)";"1.0";"2";"1";"1";"2";"1";"1";"2014-09-23 19:24:01.379";"2014-09-23 19:39:51.940";"1";"0";"0";"40";"39";"module.training_block1.exec-2644.GoNoGo1";;;;;;;;;;;;;;;;;;;;;;;"1261";"2014-09-23 19:27:21.017";"NST_correctLoc";"34";"1";"FINISHED";"RIGHT";"success";"362";"0";"2014-09-23 19:27:19.753";"3";;;;;;;;;;;;;;;;;;;;;;;;;;;;;;;;;;;;;;;;;;;;;;;;;;;;;;;;;
"kath131";;;"Windows 7";"Rachel's Experiment (D.T.)";"1.0";"2";"1";"1";"2";"1";"1";"2014-09-23 19:24:01.379";"2014-09-23 19:39:51.940";"1";"0";"0";"41";"40";"module.training_block1.exec-2644.GoNoGo1";;;;;;;;;;;;;;;;;;;;;;;"1254";"2014-09-23 19:27:23.622";"NST_correctLoc";"4";"1";"FINISHED";"RIGHT";"success";"306";"0";"2014-09-23 19:27:22.359";"1";;;;;;;;;;;;;;;;;;;;;;;;;;;;;;;;;;;;;;;;;;;;;;;;;;;;;;;;;
"kath131";;;"Windows 7";"Rachel's Experiment (D.T.)";"1.0";"2";"1";"1";"2";"1";"1";"2014-09-23 19:24:01.379";"2014-09-23 19:39:51.940";"1";"0";"0";"42";"41";"module.training_block1.exec-2644.GoNoGo1";;;;;;;;;;;;;;;;;;;;;;;"1260";"2014-09-23 19:27:26.305";"NST_correctLoc";"5";"1";"FINISHED";"RIGHT";"success";"339";"0";"2014-09-23 19:27:25.042";"1";;;;;;;;;;;;;;;;;;;;;;;;;;;;;;;;;;;;;;;;;;;;;;;;;;;;;;;;;
"kath131";;;"Windows 7";"Rachel's Experiment (D.T.)";"1.0";"2";"1";"1";"2";"1";"1";"2014-09-23 19:24:01.379";"2014-09-23 19:39:51.940";"1";"0";"0";"43";"42";"module.training_block1.exec-2644.GoNoGo1";;;;;;;;;;;;;;;;;;;;;;;"1254";"2014-09-23 19:27:28.879";"NST_correctLoc";"35";"1";"FINISHED";"RIGHT";"success";"315";"0";"2014-09-23 19:27:27.616";"3";;;;;;;;;;;;;;;;;;;;;;;;;;;;;;;;;;;;;;;;;;;;;;;;;;;;;;;;;
"kath131";;;"Windows 7";"Rachel's Experiment (D.T.)";"1.0";"2";"1";"1";"2";"1";"1";"2014-09-23 19:24:01.379";"2014-09-23 19:39:51.940";"1";"0";"0";"44";"43";"module.training_block1.exec-2644.GoNoGo1";;;;;;;;;;;;;;;;;;;;;;;"1257";"2014-09-23 19:27:31.453";"NST_correctLoc";"29";"1";"FINISHED";"RIGHT";"success";"279";"0";"2014-09-23 19:27:30.190";"3";;;;;;;;;;;;;;;;;;;;;;;;;;;;;;;;;;;;;;;;;;;;;;;;;;;;;;;;;
"kath131";;;"Windows 7";"Rachel's Experiment (D.T.)";"1.0";"2";"1";"1";"2";"1";"1";"2014-09-23 19:24:01.379";"2014-09-23 19:39:51.940";"1";"0";"0";"45";"44";"module.training_block1.exec-2644.GoNoGo1";;;;;;;;;;;;;;;;;;;;;;;"1261";"2014-09-23 19:27:34.074";"NST_correctLoc";"1";"0";"FINISHED";"LEFT";"success";"301";"0";"2014-09-23 19:27:32.811";"1";;;;;;;;;;;;;;;;;;;;;;;;;;;;;;;;;;;;;;;;;;;;;;;;;;;;;;;;;
"kath131";;;"Windows 7";"Rachel's Experiment (D.T.)";"1.0";"2";"1";"1";"2";"1";"1";"2014-09-23 19:24:01.379";"2014-09-23 19:39:51.940";"1";"0";"0";"46";"45";"module.training_block1.exec-2644.GoNoGo1";;;;;;;;;;;;;;;;;;;;;;;"1261";"2014-09-23 19:27:36.648";"NST_correctLoc";"23";"1";"FINISHED";"RIGHT";"success";"550";"0";"2014-09-23 19:27:35.385";"3";;;;;;;;;;;;;;;;;;;;;;;;;;;;;;;;;;;;;;;;;;;;;;;;;;;;;;;;;
"kath131";;;"Windows 7";"Rachel's Experiment (D.T.)";"1.0";"2";"1";"1";"2";"1";"1";"2014-09-23 19:24:01.379";"2014-09-23 19:39:51.940";"1";"0";"0";"47";"46";"module.training_block1.exec-2644.GoNoGo1";;;;;;;;;;;;;;;;;;;;;;;"1250";"2014-09-23 19:27:39.207";"NST_correctLoc";"7";"1";"FINISHED";"RIGHT";"success";"306";"0";"2014-09-23 19:27:37.943";"1";;;;;;;;;;;;;;;;;;;;;;;;;;;;;;;;;;;;;;;;;;;;;;;;;;;;;;;;;
"kath131";;;"Windows 7";"Rachel's Experiment (D.T.)";"1.0";"2";"1";"1";"2";"1";"1";"2014-09-23 19:24:01.379";"2014-09-23 19:39:51.940";"1";"0";"0";"48";"47";"module.training_block1.exec-2644.GoNoGo1";;;;;;;;;;;;;;;;;;;;;;;"1253";"2014-09-23 19:27:41.812";"NST_correctLoc";"12";"0";"FINISHED";"LEFT";"success";"457";"0";"2014-09-23 19:27:40.548";"2";;;;;;;;;;;;;;;;;;;;;;;;;;;;;;;;;;;;;;;;;;;;;;;;;;;;;;;;;
"kath131";;;"Windows 7";"Rachel's Experiment (D.T.)";"1.0";"2";"1";"1";"2";"1";"1";"2014-09-23 19:24:01.379";"2014-09-23 19:39:51.940";"1";"0";"0";"49";"48";"module.training_block1.exec-2644.GoNoGo1";;;;;;;;;;;;;;;;;;;;;;;"1257";"2014-09-23 19:27:44.417";"NST_correctLoc";"33";"0";"FINISHED";"LEFT";"success";"544";"0";"2014-09-23 19:27:43.153";"3";;;;;;;;;;;;;;;;;;;;;;;;;;;;;;;;;;;;;;;;;;;;;;;;;;;;;;;;;
"kath131";;;"Windows 7";"Rachel's Experiment (D.T.)";"1.0";"2";"1";"1";"2";"1";"1";"2014-09-23 19:24:01.379";"2014-09-23 19:39:51.940";"1";"0";"0";"50";"49";"module.training_block1.exec-2644.GoNoGo1";;;;;;;;;;;;;;;;;;;;;;;"1259";"2014-09-23 19:27:47.007";"NST_correctLoc";"31";"1";"FINISHED";"RIGHT";"success";"292";"0";"2014-09-23 19:27:45.743";"3";;;;;;;;;;;;;;;;;;;;;;;;;;;;;;;;;;;;;;;;;;;;;;;;;;;;;;;;;
"kath131";;;"Windows 7";"Rachel's Experiment (D.T.)";"1.0";"2";"1";"1";"2";"1";"1";"2014-09-23 19:24:01.379";"2014-09-23 19:39:51.940";"1";"0";"0";"51";"50";"module.training_block1.exec-2644.GoNoGo1";;;;;;;;;;;;;;;;;;;;;;;"1315";"2014-09-23 19:27:49.643";"NST_correctLoc";"32";"1";"FINISHED";"RIGHT";"success";"335";"0";"2014-09-23 19:27:48.317";"3";;;;;;;;;;;;;;;;;;;;;;;;;;;;;;;;;;;;;;;;;;;;;;;;;;;;;;;;;
"kath131";;;"Windows 7";"Rachel's Experiment (D.T.)";"1.0";"2";"1";"1";"2";"1";"1";"2014-09-23 19:24:01.379";"2014-09-23 19:39:51.940";"1";"0";"0";"52";"51";"module.training_block2.exec-8487.GoNoGo2";;;;;;;;;;;;;;;;;;;;;;;;;;;;;;;;;;;"1260";"2014-09-23 19:28:01.235";"NST_correctLoc";"7";"1";"FINISHED";"RIGHT";"success";"346";"0";"2014-09-23 19:27:59.971";"1";;;;;;;;;;;;;;;;;;;;;;;;;;;;;;;;;;;;;;;;;;;;;
"kath131";;;"Windows 7";"Rachel's Experiment (D.T.)";"1.0";"2";"1";"1";"2";"1";"1";"2014-09-23 19:24:01.379";"2014-09-23 19:39:51.940";"1";"0";"0";"53";"52";"module.training_block2.exec-8487.GoNoGo2";;;;;;;;;;;;;;;;;;;;;;;;;;;;;;;;;;;"1261";"2014-09-23 19:28:03.812";"NST_correctLoc";"28";"1";"FINISHED";"RIGHT";"success";"328";"0";"2014-09-23 19:28:02.548";"3";;;;;;;;;;;;;;;;;;;;;;;;;;;;;;;;;;;;;;;;;;;;;
"kath131";;;"Windows 7";"Rachel's Experiment (D.T.)";"1.0";"2";"1";"1";"2";"1";"1";"2014-09-23 19:24:01.379";"2014-09-23 19:39:51.940";"1";"0";"0";"54";"53";"module.training_block2.exec-8487.GoNoGo2";;;;;;;;;;;;;;;;;;;;;;;;;;;;;;;;;;;"1261";"2014-09-23 19:28:06.433";"NST_correctLoc";"5";"1";"FINISHED";"RIGHT";"success";"371";"0";"2014-09-23 19:28:05.169";"1";;;;;;;;;;;;;;;;;;;;;;;;;;;;;;;;;;;;;;;;;;;;;
"kath131";;;"Windows 7";"Rachel's Experiment (D.T.)";"1.0";"2";"1";"1";"2";"1";"1";"2014-09-23 19:24:01.379";"2014-09-23 19:39:51.940";"1";"0";"0";"55";"54";"module.training_block2.exec-8487.GoNoGo2";;;;;;;;;;;;;;;;;;;;;;;;;;;;;;;;;;;"1260";"2014-09-23 19:28:09.022";"NST_correctLoc";"19";"1";"FINISHED";"RIGHT";"success";"327";"0";"2014-09-23 19:28:07.759";"3";;;;;;;;;;;;;;;;;;;;;;;;;;;;;;;;;;;;;;;;;;;;;
"kath131";;;"Windows 7";"Rachel's Experiment (D.T.)";"1.0";"2";"1";"1";"2";"1";"1";"2014-09-23 19:24:01.379";"2014-09-23 19:39:51.940";"1";"0";"0";"56";"55";"module.training_block2.exec-8487.GoNoGo2";;;;;;;;;;;;;;;;;;;;;;;;;;;;;;;;;;;"1261";"2014-09-23 19:28:11.627";"NST_correctLoc";"1";"1";"FINISHED";"RIGHT";"success";"345";"0";"2014-09-23 19:28:10.364";"1";;;;;;;;;;;;;;;;;;;;;;;;;;;;;;;;;;;;;;;;;;;;;
"kath131";;;"Windows 7";"Rachel's Experiment (D.T.)";"1.0";"2";"1";"1";"2";"1";"1";"2014-09-23 19:24:01.379";"2014-09-23 19:39:51.940";"1";"0";"0";"57";"56";"module.training_block2.exec-8487.GoNoGo2";;;;;;;;;;;;;;;;;;;;;;;;;;;;;;;;;;;"1262";"2014-09-23 19:28:14.201";"NST_correctLoc";"23";"0";"FINISHED";"LEFT";"success";"325";"0";"2014-09-23 19:28:12.938";"3";;;;;;;;;;;;;;;;;;;;;;;;;;;;;;;;;;;;;;;;;;;;;
"kath131";;;"Windows 7";"Rachel's Experiment (D.T.)";"1.0";"2";"1";"1";"2";"1";"1";"2014-09-23 19:24:01.379";"2014-09-23 19:39:51.940";"1";"0";"0";"58";"57";"module.training_block2.exec-8487.GoNoGo2";;;;;;;;;;;;;;;;;;;;;;;;;;;;;;;;;;;"1261";"2014-09-23 19:28:16.791";"NST_correctLoc";"21";"1";"FINISHED";"RIGHT";"success";"315";"0";"2014-09-23 19:28:15.527";"3";;;;;;;;;;;;;;;;;;;;;;;;;;;;;;;;;;;;;;;;;;;;;
"kath131";;;"Windows 7";"Rachel's Experiment (D.T.)";"1.0";"2";"1";"1";"2";"1";"1";"2014-09-23 19:24:01.379";"2014-09-23 19:39:51.940";"1";"0";"0";"59";"58";"module.training_block2.exec-8487.GoNoGo2";;;;;;;;;;;;;;;;;;;;;;;;;;;;;;;;;;;"1261";"2014-09-23 19:28:19.677";"NST_correctLoc";"11";"1";"FINISHED";"RIGHT";"success";"284";"0";"2014-09-23 19:28:18.413";"2";;;;;;;;;;;;;;;;;;;;;;;;;;;;;;;;;;;;;;;;;;;;;
"kath131";;;"Windows 7";"Rachel's Experiment (D.T.)";"1.0";"2";"1";"1";"2";"1";"1";"2014-09-23 19:24:01.379";"2014-09-23 19:39:51.940";"1";"0";"0";"60";"59";"module.training_block2.exec-8487.GoNoGo2";;;;;;;;;;;;;;;;;;;;;;;;;;;;;;;;;;;"1261";"2014-09-23 19:28:22.251";"NST_correctLoc";"9";"0";"FINISHED";"LEFT";"success";"378";"0";"2014-09-23 19:28:20.987";"2";;;;;;;;;;;;;;;;;;;;;;;;;;;;;;;;;;;;;;;;;;;;;
"kath131";;;"Windows 7";"Rachel's Experiment (D.T.)";"1.0";"2";"1";"1";"2";"1";"1";"2014-09-23 19:24:01.379";"2014-09-23 19:39:51.940";"1";"0";"0";"61";"60";"module.training_block2.exec-8487.GoNoGo2";;;;;;;;;;;;;;;;;;;;;;;;;;;;;;;;;;;"1262";"2014-09-23 19:28:24.856";"NST_correctLoc";"18";"0";"FINISHED";"LEFT";"success";"384";"0";"2014-09-23 19:28:23.593";"3";;;;;;;;;;;;;;;;;;;;;;;;;;;;;;;;;;;;;;;;;;;;;
"kath131";;;"Windows 7";"Rachel's Experiment (D.T.)";"1.0";"2";"1";"1";"2";"1";"1";"2014-09-23 19:24:01.379";"2014-09-23 19:39:51.940";"1";"0";"0";"62";"61";"module.training_block2.exec-8487.GoNoGo2";;;;;;;;;;;;;;;;;;;;;;;;;;;;;;;;;;;"1260";"2014-09-23 19:28:27.430";"NST_correctLoc";"0";"0";"FINISHED";"LEFT";"success";"368";"0";"2014-09-23 19:28:26.167";"1";;;;;;;;;;;;;;;;;;;;;;;;;;;;;;;;;;;;;;;;;;;;;
"kath131";;;"Windows 7";"Rachel's Experiment (D.T.)";"1.0";"2";"1";"1";"2";"1";"1";"2014-09-23 19:24:01.379";"2014-09-23 19:39:51.940";"1";"0";"0";"63";"62";"module.training_block2.exec-8487.GoNoGo2";;;;;;;;;;;;;;;;;;;;;;;;;;;;;;;;;;;"1262";"2014-09-23 19:28:30.067";"NST_correctLoc";"24";"1";"FINISHED";"RIGHT";"success";"281";"0";"2014-09-23 19:28:28.803";"3";;;;;;;;;;;;;;;;;;;;;;;;;;;;;;;;;;;;;;;;;;;;;
"kath131";;;"Windows 7";"Rachel's Experiment (D.T.)";"1.0";"2";"1";"1";"2";"1";"1";"2014-09-23 19:24:01.379";"2014-09-23 19:39:51.940";"1";"0";"0";"64";"63";"module.training_block2.exec-8487.GoNoGo2";;;;;;;;;;;;;;;;;;;;;;;;;;;;;;;;;;;"1261";"2014-09-23 19:28:32.641";"NST_correctLoc";"33";"0";"FINISHED";"LEFT";"success";"334";"0";"2014-09-23 19:28:31.377";"3";;;;;;;;;;;;;;;;;;;;;;;;;;;;;;;;;;;;;;;;;;;;;
"kath131";;;"Windows 7";"Rachel's Experiment (D.T.)";"1.0";"2";"1";"1";"2";"1";"1";"2014-09-23 19:24:01.379";"2014-09-23 19:39:51.940";"1";"0";"0";"65";"64";"module.training_block2.exec-8487.GoNoGo2";;;;;;;;;;;;;;;;;;;;;;;;;;;;;;;;;;;"1261";"2014-09-23 19:28:35.246";"NST_correctLoc";"22";"0";"FINISHED";"LEFT";"success";"433";"0";"2014-09-23 19:28:33.982";"3";;;;;;;;;;;;;;;;;;;;;;;;;;;;;;;;;;;;;;;;;;;;;
"kath131";;;"Windows 7";"Rachel's Experiment (D.T.)";"1.0";"2";"1";"1";"2";"1";"1";"2014-09-23 19:24:01.379";"2014-09-23 19:39:51.940";"1";"0";"0";"66";"65";"module.training_block2.exec-8487.GoNoGo2";;;;;;;;;;;;;;;;;;;;;;;;;;;;;;;;;;;"1262";"2014-09-23 19:28:37.820";"NST_correctLoc";"4";"1";"FINISHED";"RIGHT";"success";"344";"0";"2014-09-23 19:28:36.556";"1";;;;;;;;;;;;;;;;;;;;;;;;;;;;;;;;;;;;;;;;;;;;;
"kath131";;;"Windows 7";"Rachel's Experiment (D.T.)";"1.0";"2";"1";"1";"2";"1";"1";"2014-09-23 19:24:01.379";"2014-09-23 19:39:51.940";"1";"0";"0";"67";"66";"module.training_block2.exec-8487.GoNoGo2";;;;;;;;;;;;;;;;;;;;;;;;;;;;;;;;;;;"1262";"2014-09-23 19:28:40.394";"NST_correctLoc";"10";"0";"FINISHED";"LEFT";"success";"282";"0";"2014-09-23 19:28:39.130";"2";;;;;;;;;;;;;;;;;;;;;;;;;;;;;;;;;;;;;;;;;;;;;
"kath131";;;"Windows 7";"Rachel's Experiment (D.T.)";"1.0";"2";"1";"1";"2";"1";"1";"2014-09-23 19:24:01.379";"2014-09-23 19:39:51.940";"1";"0";"0";"68";"67";"module.training_block2.exec-8487.GoNoGo2";;;;;;;;;;;;;;;;;;;;;;;;;;;;;;;;;;;"1262";"2014-09-23 19:28:42.968";"NST_correctLoc";"17";"1";"FINISHED";"RIGHT";"success";"282";"0";"2014-09-23 19:28:41.704";"2";;;;;;;;;;;;;;;;;;;;;;;;;;;;;;;;;;;;;;;;;;;;;
"kath131";;;"Windows 7";"Rachel's Experiment (D.T.)";"1.0";"2";"1";"1";"2";"1";"1";"2014-09-23 19:24:01.379";"2014-09-23 19:39:51.940";"1";"0";"0";"69";"68";"module.training_block2.exec-8487.GoNoGo2";;;;;;;;;;;;;;;;;;;;;;;;;;;;;;;;;;;"1262";"2014-09-23 19:28:45.526";"NST_correctLoc";"15";"1";"FINISHED";"RIGHT";"success";"318";"0";"2014-09-23 19:28:44.263";"2";;;;;;;;;;;;;;;;;;;;;;;;;;;;;;;;;;;;;;;;;;;;;
"kath131";;;"Windows 7";"Rachel's Experiment (D.T.)";"1.0";"2";"1";"1";"2";"1";"1";"2014-09-23 19:24:01.379";"2014-09-23 19:39:51.940";"1";"0";"0";"70";"69";"module.training_block2.exec-8487.GoNoGo2";;;;;;;;;;;;;;;;;;;;;;;;;;;;;;;;;;;"1262";"2014-09-23 19:28:48.085";"NST_correctLoc";"30";"0";"FINISHED";"LEFT";"success";"304";"0";"2014-09-23 19:28:46.821";"3";;;;;;;;;;;;;;;;;;;;;;;;;;;;;;;;;;;;;;;;;;;;;
"kath131";;;"Windows 7";"Rachel's Experiment (D.T.)";"1.0";"2";"1";"1";"2";"1";"1";"2014-09-23 19:24:01.379";"2014-09-23 19:39:51.940";"1";"0";"0";"71";"70";"module.training_block2.exec-8487.GoNoGo2";;;;;;;;;;;;;;;;;;;;;;;;;;;;;;;;;;;"1262";"2014-09-23 19:28:50.658";"NST_correctLoc";"12";"1";"FINISHED";"RIGHT";"success";"242";"0";"2014-09-23 19:28:49.394";"2";;;;;;;;;;;;;;;;;;;;;;;;;;;;;;;;;;;;;;;;;;;;;
"kath131";;;"Windows 7";"Rachel's Experiment (D.T.)";"1.0";"2";"1";"1";"2";"1";"1";"2014-09-23 19:24:01.379";"2014-09-23 19:39:51.940";"1";"0";"0";"72";"71";"module.training_block2.exec-8487.GoNoGo2";;;;;;;;;;;;;;;;;;;;;;;;;;;;;;;;;;;"1261";"2014-09-23 19:28:53.248";"NST_correctLoc";"26";"1";"FINISHED";"RIGHT";"success";"358";"0";"2014-09-23 19:28:51.984";"3";;;;;;;;;;;;;;;;;;;;;;;;;;;;;;;;;;;;;;;;;;;;;
"kath131";;;"Windows 7";"Rachel's Experiment (D.T.)";"1.0";"2";"1";"1";"2";"1";"1";"2014-09-23 19:24:01.379";"2014-09-23 19:39:51.940";"1";"0";"0";"73";"72";"module.training_block2.exec-8487.GoNoGo2";;;;;;;;;;;;;;;;;;;;;;;;;;;;;;;;;;;"1252";"2014-09-23 19:28:56.260";"NST_correctLoc";"29";"0";"FINISHED";"LEFT";"success";"350";"0";"2014-09-23 19:28:54.995";"3";;;;;;;;;;;;;;;;;;;;;;;;;;;;;;;;;;;;;;;;;;;;;
"kath131";;;"Windows 7";"Rachel's Experiment (D.T.)";"1.0";"2";"1";"1";"2";"1";"1";"2014-09-23 19:24:01.379";"2014-09-23 19:39:51.940";"1";"0";"0";"74";"73";"module.training_block2.exec-8487.GoNoGo2";;;;;;;;;;;;;;;;;;;;;;;;;;;;;;;;;;;"1253";"2014-09-23 19:28:58.930";"NST_correctLoc";"14";"1";"FINISHED";"RIGHT";"success";"257";"0";"2014-09-23 19:28:57.665";"2";;;;;;;;;;;;;;;;;;;;;;;;;;;;;;;;;;;;;;;;;;;;;
"kath131";;;"Windows 7";"Rachel's Experiment (D.T.)";"1.0";"2";"1";"1";"2";"1";"1";"2014-09-23 19:24:01.379";"2014-09-23 19:39:51.940";"1";"0";"0";"75";"74";"module.training_block2.exec-8487.GoNoGo2";;;;;;;;;;;;;;;;;;;;;;;;;;;;;;;;;;;"1240";"2014-09-23 19:29:01.492";"NST_correctLoc";"13";"0";"FINISHED";"LEFT";"success";"257";"0";"2014-09-23 19:29:00.242";"2";;;;;;;;;;;;;;;;;;;;;;;;;;;;;;;;;;;;;;;;;;;;;
"kath131";;;"Windows 7";"Rachel's Experiment (D.T.)";"1.0";"2";"1";"1";"2";"1";"1";"2014-09-23 19:24:01.379";"2014-09-23 19:39:51.940";"1";"0";"0";"76";"75";"module.training_block2.exec-8487.GoNoGo2";;;;;;;;;;;;;;;;;;;;;;;;;;;;;;;;;;;"1253";"2014-09-23 19:29:04.066";"NST_correctLoc";"35";"1";"FINISHED";"RIGHT";"success";"278";"0";"2014-09-23 19:29:02.802";"3";;;;;;;;;;;;;;;;;;;;;;;;;;;;;;;;;;;;;;;;;;;;;
"kath131";;;"Windows 7";"Rachel's Experiment (D.T.)";"1.0";"2";"1";"1";"2";"1";"1";"2014-09-23 19:24:01.379";"2014-09-23 19:39:51.940";"1";"0";"0";"77";"76";"module.training_block2.exec-8487.GoNoGo2";;;;;;;;;;;;;;;;;;;;;;;;;;;;;;;;;;;"1252";"2014-09-23 19:29:06.640";"NST_correctLoc";"16";"0";"FINISHED";"LEFT";"success";"324";"0";"2014-09-23 19:29:05.376";"2";;;;;;;;;;;;;;;;;;;;;;;;;;;;;;;;;;;;;;;;;;;;;
"kath131";;;"Windows 7";"Rachel's Experiment (D.T.)";"1.0";"2";"1";"1";"2";"1";"1";"2014-09-23 19:24:01.379";"2014-09-23 19:39:51.940";"1";"0";"0";"78";"77";"module.training_block2.exec-8487.GoNoGo2";;;;;;;;;;;;;;;;;;;;;;;;;;;;;;;;;;;"1256";"2014-09-23 19:29:09.229";"NST_correctLoc";"20";"1";"FINISHED";"RIGHT";"success";"278";"0";"2014-09-23 19:29:07.966";"3";;;;;;;;;;;;;;;;;;;;;;;;;;;;;;;;;;;;;;;;;;;;;
"kath131";;;"Windows 7";"Rachel's Experiment (D.T.)";"1.0";"2";"1";"1";"2";"1";"1";"2014-09-23 19:24:01.379";"2014-09-23 19:39:51.940";"1";"0";"0";"79";"78";"module.training_block2.exec-8487.GoNoGo2";;;;;;;;;;;;;;;;;;;;;;;;;;;;;;;;;;;"1257";"2014-09-23 19:29:11.803";"NST_correctLoc";"6";"1";"FINISHED";"RIGHT";"success";"282";"0";"2014-09-23 19:29:10.540";"1";;;;;;;;;;;;;;;;;;;;;;;;;;;;;;;;;;;;;;;;;;;;;
"kath131";;;"Windows 7";"Rachel's Experiment (D.T.)";"1.0";"2";"1";"1";"2";"1";"1";"2014-09-23 19:24:01.379";"2014-09-23 19:39:51.940";"1";"0";"0";"80";"79";"module.training_block2.exec-8487.GoNoGo2";;;;;;;;;;;;;;;;;;;;;;;;;;;;;;;;;;;"1256";"2014-09-23 19:29:14.362";"NST_correctLoc";"27";"1";"FINISHED";"RIGHT";"success";"312";"0";"2014-09-23 19:29:13.098";"3";;;;;;;;;;;;;;;;;;;;;;;;;;;;;;;;;;;;;;;;;;;;;
"kath131";;;"Windows 7";"Rachel's Experiment (D.T.)";"1.0";"2";"1";"1";"2";"1";"1";"2014-09-23 19:24:01.379";"2014-09-23 19:39:51.940";"1";"0";"0";"81";"80";"module.training_block2.exec-8487.GoNoGo2";;;;;;;;;;;;;;;;;;;;;;;;;;;;;;;;;;;"1254";"2014-09-23 19:29:16.967";"NST_correctLoc";"31";"1";"FINISHED";"RIGHT";"success";"323";"0";"2014-09-23 19:29:15.703";"3";;;;;;;;;;;;;;;;;;;;;;;;;;;;;;;;;;;;;;;;;;;;;
"kath131";;;"Windows 7";"Rachel's Experiment (D.T.)";"1.0";"2";"1";"1";"2";"1";"1";"2014-09-23 19:24:01.379";"2014-09-23 19:39:51.940";"1";"0";"0";"82";"81";"module.training_block2.exec-8487.GoNoGo2";;;;;;;;;;;;;;;;;;;;;;;;;;;;;;;;;;;"1253";"2014-09-23 19:29:19.541";"NST_correctLoc";"3";"0";"FINISHED";"LEFT";"success";"356";"0";"2014-09-23 19:29:18.277";"1";;;;;;;;;;;;;;;;;;;;;;;;;;;;;;;;;;;;;;;;;;;;;
"kath131";;;"Windows 7";"Rachel's Experiment (D.T.)";"1.0";"2";"1";"1";"2";"1";"1";"2014-09-23 19:24:01.379";"2014-09-23 19:39:51.940";"1";"0";"0";"83";"82";"module.training_block2.exec-8487.GoNoGo2";;;;;;;;;;;;;;;;;;;;;;;;;;;;;;;;;;;"1257";"2014-09-23 19:29:22.115";"NST_correctLoc";"25";"1";"FINISHED";"RIGHT";"success";"282";"0";"2014-09-23 19:29:20.851";"3";;;;;;;;;;;;;;;;;;;;;;;;;;;;;;;;;;;;;;;;;;;;;
"kath131";;;"Windows 7";"Rachel's Experiment (D.T.)";"1.0";"2";"1";"1";"2";"1";"1";"2014-09-23 19:24:01.379";"2014-09-23 19:39:51.940";"1";"0";"0";"84";"83";"module.training_block2.exec-8487.GoNoGo2";;;;;;;;;;;;;;;;;;;;;;;;;;;;;;;;;;;"1254";"2014-09-23 19:29:24.689";"NST_correctLoc";"8";"1";"FINISHED";"RIGHT";"success";"293";"0";"2014-09-23 19:29:23.425";"1";;;;;;;;;;;;;;;;;;;;;;;;;;;;;;;;;;;;;;;;;;;;;
"kath131";;;"Windows 7";"Rachel's Experiment (D.T.)";"1.0";"2";"1";"1";"2";"1";"1";"2014-09-23 19:24:01.379";"2014-09-23 19:39:51.940";"1";"0";"0";"85";"84";"module.training_block2.exec-8487.GoNoGo2";;;;;;;;;;;;;;;;;;;;;;;;;;;;;;;;;;;"1255";"2014-09-23 19:29:27.247";"NST_correctLoc";"34";"0";"FINISHED";"LEFT";"success";"288";"0";"2014-09-23 19:29:25.984";"3";;;;;;;;;;;;;;;;;;;;;;;;;;;;;;;;;;;;;;;;;;;;;
"kath131";;;"Windows 7";"Rachel's Experiment (D.T.)";"1.0";"2";"1";"1";"2";"1";"1";"2014-09-23 19:24:01.379";"2014-09-23 19:39:51.940";"1";"0";"0";"86";"85";"module.training_block2.exec-8487.GoNoGo2";;;;;;;;;;;;;;;;;;;;;;;;;;;;;;;;;;;"1261";"2014-09-23 19:29:29.884";"NST_correctLoc";"32";"1";"FINISHED";"RIGHT";"success";"284";"0";"2014-09-23 19:29:28.620";"3";;;;;;;;;;;;;;;;;;;;;;;;;;;;;;;;;;;;;;;;;;;;;
"kath131";;;"Windows 7";"Rachel's Experiment (D.T.)";"1.0";"2";"1";"1";"2";"1";"1";"2014-09-23 19:24:01.379";"2014-09-23 19:39:51.940";"1";"0";"0";"87";"86";"module.training_block2.exec-8487.GoNoGo2";;;;;;;;;;;;;;;;;;;;;;;;;;;;;;;;;;;"1251";"2014-09-23 19:29:32.536";"NST_correctLoc";"2";"1";"FINISHED";"RIGHT";"success";"360";"0";"2014-09-23 19:29:31.272";"1";;;;;;;;;;;;;;;;;;;;;;;;;;;;;;;;;;;;;;;;;;;;;
"kath131";;;"Windows 7";"Rachel's Experiment (D.T.)";"1.0";"2";"1";"1";"2";"1";"1";"2014-09-23 19:24:01.379";"2014-09-23 19:39:51.940";"1";"0";"0";"88";"87";"module.training_block3.exec-6985.GoNoGo3";;;;;;;;;;;;;;;;;;;;;;;;;;;;;;;;;;;;;;;;;;;;;;;"1261";"2014-09-23 19:29:43.440";"NST_correctLoc";"1";"1";"FINISHED";"RIGHT";"success";"316";"0";"2014-09-23 19:29:42.176";"1";;;;;;;;;;;;;;;;;;;;;;;;;;;;;;;;;
"kath131";;;"Windows 7";"Rachel's Experiment (D.T.)";"1.0";"2";"1";"1";"2";"1";"1";"2014-09-23 19:24:01.379";"2014-09-23 19:39:51.940";"1";"0";"0";"89";"88";"module.training_block3.exec-6985.GoNoGo3";;;;;;;;;;;;;;;;;;;;;;;;;;;;;;;;;;;;;;;;;;;;;;;"1261";"2014-09-23 19:29:46.014";"NST_correctLoc";"27";"1";"FINISHED";"RIGHT";"success";"278";"0";"2014-09-23 19:29:44.750";"3";;;;;;;;;;;;;;;;;;;;;;;;;;;;;;;;;
"kath131";;;"Windows 7";"Rachel's Experiment (D.T.)";"1.0";"2";"1";"1";"2";"1";"1";"2014-09-23 19:24:01.379";"2014-09-23 19:39:51.940";"1";"0";"0";"90";"89";"module.training_block3.exec-6985.GoNoGo3";;;;;;;;;;;;;;;;;;;;;;;;;;;;;;;;;;;;;;;;;;;;;;;"1261";"2014-09-23 19:29:48.572";"NST_correctLoc";"14";"1";"FINISHED";"RIGHT";"success";"306";"0";"2014-09-23 19:29:47.309";"2";;;;;;;;;;;;;;;;;;;;;;;;;;;;;;;;;
"kath131";;;"Windows 7";"Rachel's Experiment (D.T.)";"1.0";"2";"1";"1";"2";"1";"1";"2014-09-23 19:24:01.379";"2014-09-23 19:39:51.940";"1";"0";"0";"91";"90";"module.training_block3.exec-6985.GoNoGo3";;;;;;;;;;;;;;;;;;;;;;;;;;;;;;;;;;;;;;;;;;;;;;;"1261";"2014-09-23 19:29:51.146";"NST_correctLoc";"12";"1";"FINISHED";"RIGHT";"success";"307";"0";"2014-09-23 19:29:49.883";"2";;;;;;;;;;;;;;;;;;;;;;;;;;;;;;;;;
"kath131";;;"Windows 7";"Rachel's Experiment (D.T.)";"1.0";"2";"1";"1";"2";"1";"1";"2014-09-23 19:24:01.379";"2014-09-23 19:39:51.940";"1";"0";"0";"92";"91";"module.training_block3.exec-6985.GoNoGo3";;;;;;;;;;;;;;;;;;;;;;;;;;;;;;;;;;;;;;;;;;;;;;;"1261";"2014-09-23 19:29:53.720";"NST_correctLoc";"35";"1";"FINISHED";"RIGHT";"success";"291";"0";"2014-09-23 19:29:52.457";"3";;;;;;;;;;;;;;;;;;;;;;;;;;;;;;;;;
"kath131";;;"Windows 7";"Rachel's Experiment (D.T.)";"1.0";"2";"1";"1";"2";"1";"1";"2014-09-23 19:24:01.379";"2014-09-23 19:39:51.940";"1";"0";"0";"93";"92";"module.training_block3.exec-6985.GoNoGo3";;;;;;;;;;;;;;;;;;;;;;;;;;;;;;;;;;;;;;;;;;;;;;;"1262";"2014-09-23 19:29:56.294";"NST_correctLoc";"16";"0";"FINISHED";"LEFT";"success";"359";"0";"2014-09-23 19:29:55.031";"2";;;;;;;;;;;;;;;;;;;;;;;;;;;;;;;;;
"kath131";;;"Windows 7";"Rachel's Experiment (D.T.)";"1.0";"2";"1";"1";"2";"1";"1";"2014-09-23 19:24:01.379";"2014-09-23 19:39:51.940";"1";"0";"0";"94";"93";"module.training_block3.exec-6985.GoNoGo3";;;;;;;;;;;;;;;;;;;;;;;;;;;;;;;;;;;;;;;;;;;;;;;"1260";"2014-09-23 19:29:58.868";"NST_correctLoc";"5";"0";"FINISHED";"LEFT";"success";"346";"0";"2014-09-23 19:29:57.605";"1";;;;;;;;;;;;;;;;;;;;;;;;;;;;;;;;;
"kath131";;;"Windows 7";"Rachel's Experiment (D.T.)";"1.0";"2";"1";"1";"2";"1";"1";"2014-09-23 19:24:01.379";"2014-09-23 19:39:51.940";"1";"0";"0";"95";"94";"module.training_block3.exec-6985.GoNoGo3";;;;;;;;;;;;;;;;;;;;;;;;;;;;;;;;;;;;;;;;;;;;;;;"1261";"2014-09-23 19:30:01.427";"NST_correctLoc";"11";"0";"FINISHED";"LEFT";"success";"339";"0";"2014-09-23 19:30:00.163";"2";;;;;;;;;;;;;;;;;;;;;;;;;;;;;;;;;
"kath131";;;"Windows 7";"Rachel's Experiment (D.T.)";"1.0";"2";"1";"1";"2";"1";"1";"2014-09-23 19:24:01.379";"2014-09-23 19:39:51.940";"1";"0";"0";"96";"95";"module.training_block3.exec-6985.GoNoGo3";;;;;;;;;;;;;;;;;;;;;;;;;;;;;;;;;;;;;;;;;;;;;;;"1261";"2014-09-23 19:30:04.016";"NST_correctLoc";"24";"0";"FINISHED";"LEFT";"success";"295";"0";"2014-09-23 19:30:02.753";"3";;;;;;;;;;;;;;;;;;;;;;;;;;;;;;;;;
"kath131";;;"Windows 7";"Rachel's Experiment (D.T.)";"1.0";"2";"1";"1";"2";"1";"1";"2014-09-23 19:24:01.379";"2014-09-23 19:39:51.940";"1";"0";"0";"97";"96";"module.training_block3.exec-6985.GoNoGo3";;;;;;;;;;;;;;;;;;;;;;;;;;;;;;;;;;;;;;;;;;;;;;;"1261";"2014-09-23 19:30:06.590";"NST_correctLoc";"23";"0";"FINISHED";"LEFT";"success";"324";"0";"2014-09-23 19:30:05.327";"3";;;;;;;;;;;;;;;;;;;;;;;;;;;;;;;;;
"kath131";;;"Windows 7";"Rachel's Experiment (D.T.)";"1.0";"2";"1";"1";"2";"1";"1";"2014-09-23 19:24:01.379";"2014-09-23 19:39:51.940";"1";"0";"0";"98";"97";"module.training_block3.exec-6985.GoNoGo3";;;;;;;;;;;;;;;;;;;;;;;;;;;;;;;;;;;;;;;;;;;;;;;"1261";"2014-09-23 19:30:09.164";"NST_correctLoc";"8";"0";"FINISHED";"LEFT";"success";"346";"0";"2014-09-23 19:30:07.901";"1";;;;;;;;;;;;;;;;;;;;;;;;;;;;;;;;;
"kath131";;;"Windows 7";"Rachel's Experiment (D.T.)";"1.0";"2";"1";"1";"2";"1";"1";"2014-09-23 19:24:01.379";"2014-09-23 19:39:51.940";"1";"0";"0";"99";"98";"module.training_block3.exec-6985.GoNoGo3";;;;;;;;;;;;;;;;;;;;;;;;;;;;;;;;;;;;;;;;;;;;;;;"1261";"2014-09-23 19:30:11.738";"NST_correctLoc";"6";"1";"FINISHED";"RIGHT";"success";"296";"0";"2014-09-23 19:30:10.475";"1";;;;;;;;;;;;;;;;;;;;;;;;;;;;;;;;;
"kath131";;;"Windows 7";"Rachel's Experiment (D.T.)";"1.0";"2";"1";"1";"2";"1";"1";"2014-09-23 19:24:01.379";"2014-09-23 19:39:51.940";"1";"0";"0";"100";"99";"module.training_block3.exec-6985.GoNoGo3";;;;;;;;;;;;;;;;;;;;;;;;;;;;;;;;;;;;;;;;;;;;;;;"1262";"2014-09-23 19:30:14.297";"NST_correctLoc";"31";"1";"FINISHED";"RIGHT";"success";"311";"0";"2014-09-23 19:30:13.033";"3";;;;;;;;;;;;;;;;;;;;;;;;;;;;;;;;;
"kath131";;;"Windows 7";"Rachel's Experiment (D.T.)";"1.0";"2";"1";"1";"2";"1";"1";"2014-09-23 19:24:01.379";"2014-09-23 19:39:51.940";"1";"0";"0";"101";"100";"module.training_block3.exec-6985.GoNoGo3";;;;;;;;;;;;;;;;;;;;;;;;;;;;;;;;;;;;;;;;;;;;;;;"1261";"2014-09-23 19:30:16.902";"NST_correctLoc";"30";"1";"FINISHED";"RIGHT";"success";"343";"0";"2014-09-23 19:30:15.638";"3";;;;;;;;;;;;;;;;;;;;;;;;;;;;;;;;;
"kath131";;;"Windows 7";"Rachel's Experiment (D.T.)";"1.0";"2";"1";"1";"2";"1";"1";"2014-09-23 19:24:01.379";"2014-09-23 19:39:51.940";"1";"0";"0";"102";"101";"module.training_block3.exec-6985.GoNoGo3";;;;;;;;;;;;;;;;;;;;;;;;;;;;;;;;;;;;;;;;;;;;;;;"1261";"2014-09-23 19:30:19.476";"NST_correctLoc";"28";"1";"FINISHED";"RIGHT";"success";"301";"0";"2014-09-23 19:30:18.212";"3";;;;;;;;;;;;;;;;;;;;;;;;;;;;;;;;;
"kath131";;;"Windows 7";"Rachel's Experiment (D.T.)";"1.0";"2";"1";"1";"2";"1";"1";"2014-09-23 19:24:01.379";"2014-09-23 19:39:51.940";"1";"0";"0";"103";"102";"module.training_block3.exec-6985.GoNoGo3";;;;;;;;;;;;;;;;;;;;;;;;;;;;;;;;;;;;;;;;;;;;;;;"1261";"2014-09-23 19:30:22.066";"NST_correctLoc";"26";"1";"FINISHED";"RIGHT";"success";"302";"0";"2014-09-23 19:30:20.802";"3";;;;;;;;;;;;;;;;;;;;;;;;;;;;;;;;;
"kath131";;;"Windows 7";"Rachel's Experiment (D.T.)";"1.0";"2";"1";"1";"2";"1";"1";"2014-09-23 19:24:01.379";"2014-09-23 19:39:51.940";"1";"0";"0";"104";"103";"module.training_block3.exec-6985.GoNoGo3";;;;;;;;;;;;;;;;;;;;;;;;;;;;;;;;;;;;;;;;;;;;;;;"1261";"2014-09-23 19:30:24.640";"NST_correctLoc";"22";"0";"FINISHED";"LEFT";"success";"287";"0";"2014-09-23 19:30:23.376";"3";;;;;;;;;;;;;;;;;;;;;;;;;;;;;;;;;
"kath131";;;"Windows 7";"Rachel's Experiment (D.T.)";"1.0";"2";"1";"1";"2";"1";"1";"2014-09-23 19:24:01.379";"2014-09-23 19:39:51.940";"1";"0";"0";"105";"104";"module.training_block3.exec-6985.GoNoGo3";;;;;;;;;;;;;;;;;;;;;;;;;;;;;;;;;;;;;;;;;;;;;;;"1262";"2014-09-23 19:30:27.214";"NST_correctLoc";"18";"1";"FINISHED";"RIGHT";"success";"241";"0";"2014-09-23 19:30:25.950";"3";;;;;;;;;;;;;;;;;;;;;;;;;;;;;;;;;
"kath131";;;"Windows 7";"Rachel's Experiment (D.T.)";"1.0";"2";"1";"1";"2";"1";"1";"2014-09-23 19:24:01.379";"2014-09-23 19:39:51.940";"1";"0";"0";"106";"105";"module.training_block3.exec-6985.GoNoGo3";;;;;;;;;;;;;;;;;;;;;;;;;;;;;;;;;;;;;;;;;;;;;;;"1261";"2014-09-23 19:30:29.788";"NST_correctLoc";"33";"0";"FINISHED";"LEFT";"success";"269";"0";"2014-09-23 19:30:28.524";"3";;;;;;;;;;;;;;;;;;;;;;;;;;;;;;;;;
"kath131";;;"Windows 7";"Rachel's Experiment (D.T.)";"1.0";"2";"1";"1";"2";"1";"1";"2014-09-23 19:24:01.379";"2014-09-23 19:39:51.940";"1";"0";"0";"107";"106";"module.training_block3.exec-6985.GoNoGo3";;;;;;;;;;;;;;;;;;;;;;;;;;;;;;;;;;;;;;;;;;;;;;;"1261";"2014-09-23 19:30:32.362";"NST_correctLoc";"0";"0";"FINISHED";"LEFT";"success";"423";"0";"2014-09-23 19:30:31.098";"1";;;;;;;;;;;;;;;;;;;;;;;;;;;;;;;;;
"kath131";;;"Windows 7";"Rachel's Experiment (D.T.)";"1.0";"2";"1";"1";"2";"1";"1";"2014-09-23 19:24:01.379";"2014-09-23 19:39:51.940";"1";"0";"0";"108";"107";"module.training_block3.exec-6985.GoNoGo3";;;;;;;;;;;;;;;;;;;;;;;;;;;;;;;;;;;;;;;;;;;;;;;"1260";"2014-09-23 19:30:34.936";"NST_correctLoc";"3";"0";"FINISHED";"LEFT";"success";"330";"0";"2014-09-23 19:30:33.672";"1";;;;;;;;;;;;;;;;;;;;;;;;;;;;;;;;;
"kath131";;;"Windows 7";"Rachel's Experiment (D.T.)";"1.0";"2";"1";"1";"2";"1";"1";"2014-09-23 19:24:01.379";"2014-09-23 19:39:51.940";"1";"0";"0";"109";"108";"module.training_block3.exec-6985.GoNoGo3";;;;;;;;;;;;;;;;;;;;;;;;;;;;;;;;;;;;;;;;;;;;;;;"1261";"2014-09-23 19:30:37.541";"NST_correctLoc";"19";"0";"FINISHED";"LEFT";"success";"360";"0";"2014-09-23 19:30:36.277";"3";;;;;;;;;;;;;;;;;;;;;;;;;;;;;;;;;
"kath131";;;"Windows 7";"Rachel's Experiment (D.T.)";"1.0";"2";"1";"1";"2";"1";"1";"2014-09-23 19:24:01.379";"2014-09-23 19:39:51.940";"1";"0";"0";"110";"109";"module.training_block3.exec-6985.GoNoGo3";;;;;;;;;;;;;;;;;;;;;;;;;;;;;;;;;;;;;;;;;;;;;;;"1260";"2014-09-23 19:30:40.115";"NST_correctLoc";"10";"0";"FINISHED";"LEFT";"success";"344";"0";"2014-09-23 19:30:38.851";"2";;;;;;;;;;;;;;;;;;;;;;;;;;;;;;;;;
"kath131";;;"Windows 7";"Rachel's Experiment (D.T.)";"1.0";"2";"1";"1";"2";"1";"1";"2014-09-23 19:24:01.379";"2014-09-23 19:39:51.940";"1";"0";"0";"111";"110";"module.training_block3.exec-6985.GoNoGo3";;;;;;;;;;;;;;;;;;;;;;;;;;;;;;;;;;;;;;;;;;;;;;;"1260";"2014-09-23 19:30:42.704";"NST_correctLoc";"20";"0";"FINISHED";"LEFT";"success";"322";"0";"2014-09-23 19:30:41.441";"3";;;;;;;;;;;;;;;;;;;;;;;;;;;;;;;;;
"kath131";;;"Windows 7";"Rachel's Experiment (D.T.)";"1.0";"2";"1";"1";"2";"1";"1";"2014-09-23 19:24:01.379";"2014-09-23 19:39:51.940";"1";"0";"0";"112";"111";"module.training_block3.exec-6985.GoNoGo3";;;;;;;;;;;;;;;;;;;;;;;;;;;;;;;;;;;;;;;;;;;;;;;"1260";"2014-09-23 19:30:45.294";"NST_correctLoc";"17";"0";"FINISHED";"LEFT";"success";"329";"0";"2014-09-23 19:30:44.030";"2";;;;;;;;;;;;;;;;;;;;;;;;;;;;;;;;;
"kath131";;;"Windows 7";"Rachel's Experiment (D.T.)";"1.0";"2";"1";"1";"2";"1";"1";"2014-09-23 19:24:01.379";"2014-09-23 19:39:51.940";"1";"0";"0";"113";"112";"module.training_block3.exec-6985.GoNoGo3";;;;;;;;;;;;;;;;;;;;;;;;;;;;;;;;;;;;;;;;;;;;;;;"1261";"2014-09-23 19:30:47.868";"NST_correctLoc";"21";"1";"FINISHED";"RIGHT";"success";"320";"0";"2014-09-23 19:30:46.604";"3";;;;;;;;;;;;;;;;;;;;;;;;;;;;;;;;;
"kath131";;;"Windows 7";"Rachel's Experiment (D.T.)";"1.0";"2";"1";"1";"2";"1";"1";"2014-09-23 19:24:01.379";"2014-09-23 19:39:51.940";"1";"0";"0";"114";"113";"module.training_block3.exec-6985.GoNoGo3";;;;;;;;;;;;;;;;;;;;;;;;;;;;;;;;;;;;;;;;;;;;;;;"1261";"2014-09-23 19:30:50.458";"NST_correctLoc";"13";"0";"FINISHED";"LEFT";"success";"268";"0";"2014-09-23 19:30:49.194";"2";;;;;;;;;;;;;;;;;;;;;;;;;;;;;;;;;
"kath131";;;"Windows 7";"Rachel's Experiment (D.T.)";"1.0";"2";"1";"1";"2";"1";"1";"2014-09-23 19:24:01.379";"2014-09-23 19:39:51.940";"1";"0";"0";"115";"114";"module.training_block3.exec-6985.GoNoGo3";;;;;;;;;;;;;;;;;;;;;;;;;;;;;;;;;;;;;;;;;;;;;;;"1260";"2014-09-23 19:30:53.063";"NST_correctLoc";"4";"1";"FINISHED";"RIGHT";"success";"342";"0";"2014-09-23 19:30:51.799";"1";;;;;;;;;;;;;;;;;;;;;;;;;;;;;;;;;
"kath131";;;"Windows 7";"Rachel's Experiment (D.T.)";"1.0";"2";"1";"1";"2";"1";"1";"2014-09-23 19:24:01.379";"2014-09-23 19:39:51.940";"1";"0";"0";"116";"115";"module.training_block3.exec-6985.GoNoGo3";;;;;;;;;;;;;;;;;;;;;;;;;;;;;;;;;;;;;;;;;;;;;;;"1259";"2014-09-23 19:30:55.653";"NST_correctLoc";"9";"1";"FINISHED";"RIGHT";"success";"293";"0";"2014-09-23 19:30:54.389";"2";;;;;;;;;;;;;;;;;;;;;;;;;;;;;;;;;
"kath131";;;"Windows 7";"Rachel's Experiment (D.T.)";"1.0";"2";"1";"1";"2";"1";"1";"2014-09-23 19:24:01.379";"2014-09-23 19:39:51.940";"1";"0";"0";"117";"116";"module.training_block3.exec-6985.GoNoGo3";;;;;;;;;;;;;;;;;;;;;;;;;;;;;;;;;;;;;;;;;;;;;;;"1259";"2014-09-23 19:30:58.242";"NST_correctLoc";"2";"1";"FINISHED";"RIGHT";"success";"343";"0";"2014-09-23 19:30:56.979";"1";;;;;;;;;;;;;;;;;;;;;;;;;;;;;;;;;
"kath131";;;"Windows 7";"Rachel's Experiment (D.T.)";"1.0";"2";"1";"1";"2";"1";"1";"2014-09-23 19:24:01.379";"2014-09-23 19:39:51.940";"1";"0";"0";"118";"117";"module.training_block3.exec-6985.GoNoGo3";;;;;;;;;;;;;;;;;;;;;;;;;;;;;;;;;;;;;;;;;;;;;;;"1261";"2014-09-23 19:31:00.863";"NST_correctLoc";"15";"1";"FINISHED";"RIGHT";"success";"347";"0";"2014-09-23 19:30:59.599";"2";;;;;;;;;;;;;;;;;;;;;;;;;;;;;;;;;
"kath131";;;"Windows 7";"Rachel's Experiment (D.T.)";"1.0";"2";"1";"1";"2";"1";"1";"2014-09-23 19:24:01.379";"2014-09-23 19:39:51.940";"1";"0";"0";"119";"118";"module.training_block3.exec-6985.GoNoGo3";;;;;;;;;;;;;;;;;;;;;;;;;;;;;;;;;;;;;;;;;;;;;;;"1258";"2014-09-23 19:31:03.421";"NST_correctLoc";"25";"1";"FINISHED";"RIGHT";"success";"349";"0";"2014-09-23 19:31:02.158";"3";;;;;;;;;;;;;;;;;;;;;;;;;;;;;;;;;
"kath131";;;"Windows 7";"Rachel's Experiment (D.T.)";"1.0";"2";"1";"1";"2";"1";"1";"2014-09-23 19:24:01.379";"2014-09-23 19:39:51.940";"1";"0";"0";"120";"119";"module.training_block3.exec-6985.GoNoGo3";;;;;;;;;;;;;;;;;;;;;;;;;;;;;;;;;;;;;;;;;;;;;;;"1261";"2014-09-23 19:31:05.980";"NST_correctLoc";"29";"1";"FINISHED";"RIGHT";"success";"325";"0";"2014-09-23 19:31:04.716";"3";;;;;;;;;;;;;;;;;;;;;;;;;;;;;;;;;
"kath131";;;"Windows 7";"Rachel's Experiment (D.T.)";"1.0";"2";"1";"1";"2";"1";"1";"2014-09-23 19:24:01.379";"2014-09-23 19:39:51.940";"1";"0";"0";"121";"120";"module.training_block3.exec-6985.GoNoGo3";;;;;;;;;;;;;;;;;;;;;;;;;;;;;;;;;;;;;;;;;;;;;;;"1262";"2014-09-23 19:31:08.554";"NST_correctLoc";"7";"1";"FINISHED";"RIGHT";"success";"330";"0";"2014-09-23 19:31:07.290";"1";;;;;;;;;;;;;;;;;;;;;;;;;;;;;;;;;
"kath131";;;"Windows 7";"Rachel's Experiment (D.T.)";"1.0";"2";"1";"1";"2";"1";"1";"2014-09-23 19:24:01.379";"2014-09-23 19:39:51.940";"1";"0";"0";"122";"121";"module.training_block3.exec-6985.GoNoGo3";;;;;;;;;;;;;;;;;;;;;;;;;;;;;;;;;;;;;;;;;;;;;;;"1261";"2014-09-23 19:31:11.159";"NST_correctLoc";"34";"1";"FINISHED";"RIGHT";"success";"296";"0";"2014-09-23 19:31:09.895";"3";;;;;;;;;;;;;;;;;;;;;;;;;;;;;;;;;
"kath131";;;"Windows 7";"Rachel's Experiment (D.T.)";"1.0";"2";"1";"1";"2";"1";"1";"2014-09-23 19:24:01.379";"2014-09-23 19:39:51.940";"1";"0";"0";"123";"122";"module.training_block3.exec-6985.GoNoGo3";;;;;;;;;;;;;;;;;;;;;;;;;;;;;;;;;;;;;;;;;;;;;;;"1261";"2014-09-23 19:31:13.749";"NST_correctLoc";"32";"1";"FINISHED";"RIGHT";"success";"336";"0";"2014-09-23 19:31:12.485";"3";;;;;;;;;;;;;;;;;;;;;;;;;;;;;;;;;
"kath131";;;"Windows 7";"Rachel's Experiment (D.T.)";"1.0";"2";"1";"1";"2";"1";"1";"2014-09-23 19:24:01.379";"2014-09-23 19:39:51.940";"1";"0";"0";"124";"123";"module.training_block4.exec-1676.GoNoGo4";;;;;;;;;;;;;;;;;;;;;;;;;;;;;;;;;;;;;;;;;;;;;;;;;;;;;;;;;;;"1262";"2014-09-23 19:31:31.860";"NST_correctLoc";"18";"0";"FINISHED";"LEFT";"success";"355";"0";"2014-09-23 19:31:30.597";"3";;;;;;;;;;;;;;;;;;;;;
"kath131";;;"Windows 7";"Rachel's Experiment (D.T.)";"1.0";"2";"1";"1";"2";"1";"1";"2014-09-23 19:24:01.379";"2014-09-23 19:39:51.940";"1";"0";"0";"125";"124";"module.training_block4.exec-1676.GoNoGo4";;;;;;;;;;;;;;;;;;;;;;;;;;;;;;;;;;;;;;;;;;;;;;;;;;;;;;;;;;;"1261";"2014-09-23 19:31:34.419";"NST_correctLoc";"26";"1";"FINISHED";"RIGHT";"success";"289";"0";"2014-09-23 19:31:33.155";"3";;;;;;;;;;;;;;;;;;;;;
"kath131";;;"Windows 7";"Rachel's Experiment (D.T.)";"1.0";"2";"1";"1";"2";"1";"1";"2014-09-23 19:24:01.379";"2014-09-23 19:39:51.940";"1";"0";"0";"126";"125";"module.training_block4.exec-1676.GoNoGo4";;;;;;;;;;;;;;;;;;;;;;;;;;;;;;;;;;;;;;;;;;;;;;;;;;;;;;;;;;;"1261";"2014-09-23 19:31:36.993";"NST_correctLoc";"25";"1";"FINISHED";"RIGHT";"success";"314";"0";"2014-09-23 19:31:35.729";"3";;;;;;;;;;;;;;;;;;;;;
"kath131";;;"Windows 7";"Rachel's Experiment (D.T.)";"1.0";"2";"1";"1";"2";"1";"1";"2014-09-23 19:24:01.379";"2014-09-23 19:39:51.940";"1";"0";"0";"127";"126";"module.training_block4.exec-1676.GoNoGo4";;;;;;;;;;;;;;;;;;;;;;;;;;;;;;;;;;;;;;;;;;;;;;;;;;;;;;;;;;;"1261";"2014-09-23 19:31:39.567";"NST_correctLoc";"3";"0";"FINISHED";"LEFT";"success";"323";"0";"2014-09-23 19:31:38.303";"1";;;;;;;;;;;;;;;;;;;;;
"kath131";;;"Windows 7";"Rachel's Experiment (D.T.)";"1.0";"2";"1";"1";"2";"1";"1";"2014-09-23 19:24:01.379";"2014-09-23 19:39:51.940";"1";"0";"0";"128";"127";"module.training_block4.exec-1676.GoNoGo4";;;;;;;;;;;;;;;;;;;;;;;;;;;;;;;;;;;;;;;;;;;;;;;;;;;;;;;;;;;"1261";"2014-09-23 19:31:42.141";"NST_correctLoc";"30";"0";"FINISHED";"LEFT";"success";"370";"0";"2014-09-23 19:31:40.877";"3";;;;;;;;;;;;;;;;;;;;;
"kath131";;;"Windows 7";"Rachel's Experiment (D.T.)";"1.0";"2";"1";"1";"2";"1";"1";"2014-09-23 19:24:01.379";"2014-09-23 19:39:51.940";"1";"0";"0";"129";"128";"module.training_block4.exec-1676.GoNoGo4";;;;;;;;;;;;;;;;;;;;;;;;;;;;;;;;;;;;;;;;;;;;;;;;;;;;;;;;;;;"1261";"2014-09-23 19:31:44.715";"NST_correctLoc";"23";"0";"FINISHED";"LEFT";"success";"334";"0";"2014-09-23 19:31:43.451";"3";;;;;;;;;;;;;;;;;;;;;
"kath131";;;"Windows 7";"Rachel's Experiment (D.T.)";"1.0";"2";"1";"1";"2";"1";"1";"2014-09-23 19:24:01.379";"2014-09-23 19:39:51.940";"1";"0";"0";"130";"129";"module.training_block4.exec-1676.GoNoGo4";;;;;;;;;;;;;;;;;;;;;;;;;;;;;;;;;;;;;;;;;;;;;;;;;;;;;;;;;;;"1261";"2014-09-23 19:31:47.273";"NST_correctLoc";"10";"1";"FINISHED";"RIGHT";"success";"308";"0";"2014-09-23 19:31:46.009";"2";;;;;;;;;;;;;;;;;;;;;
"kath131";;;"Windows 7";"Rachel's Experiment (D.T.)";"1.0";"2";"1";"1";"2";"1";"1";"2014-09-23 19:24:01.379";"2014-09-23 19:39:51.940";"1";"0";"0";"131";"130";"module.training_block4.exec-1676.GoNoGo4";;;;;;;;;;;;;;;;;;;;;;;;;;;;;;;;;;;;;;;;;;;;;;;;;;;;;;;;;;;"1262";"2014-09-23 19:31:49.847";"NST_correctLoc";"13";"1";"FINISHED";"RIGHT";"success";"306";"0";"2014-09-23 19:31:48.583";"2";;;;;;;;;;;;;;;;;;;;;
"kath131";;;"Windows 7";"Rachel's Experiment (D.T.)";"1.0";"2";"1";"1";"2";"1";"1";"2014-09-23 19:24:01.379";"2014-09-23 19:39:51.940";"1";"0";"0";"132";"131";"module.training_block4.exec-1676.GoNoGo4";;;;;;;;;;;;;;;;;;;;;;;;;;;;;;;;;;;;;;;;;;;;;;;;;;;;;;;;;;;"1261";"2014-09-23 19:31:52.421";"NST_correctLoc";"15";"0";"FINISHED";"LEFT";"success";"263";"0";"2014-09-23 19:31:51.157";"2";;;;;;;;;;;;;;;;;;;;;
"kath131";;;"Windows 7";"Rachel's Experiment (D.T.)";"1.0";"2";"1";"1";"2";"1";"1";"2014-09-23 19:24:01.379";"2014-09-23 19:39:51.940";"1";"0";"0";"133";"132";"module.training_block4.exec-1676.GoNoGo4";;;;;;;;;;;;;;;;;;;;;;;;;;;;;;;;;;;;;;;;;;;;;;;;;;;;;;;;;;;"1261";"2014-09-23 19:31:54.979";"NST_correctLoc";"0";"0";"FINISHED";"LEFT";"success";"271";"0";"2014-09-23 19:31:53.716";"1";;;;;;;;;;;;;;;;;;;;;
"kath131";;;"Windows 7";"Rachel's Experiment (D.T.)";"1.0";"2";"1";"1";"2";"1";"1";"2014-09-23 19:24:01.379";"2014-09-23 19:39:51.940";"1";"0";"0";"134";"133";"module.training_block4.exec-1676.GoNoGo4";;;;;;;;;;;;;;;;;;;;;;;;;;;;;;;;;;;;;;;;;;;;;;;;;;;;;;;;;;;"1261";"2014-09-23 19:31:57.538";"NST_correctLoc";"1";"1";"FINISHED";"RIGHT";"success";"277";"0";"2014-09-23 19:31:56.274";"1";;;;;;;;;;;;;;;;;;;;;
"kath131";;;"Windows 7";"Rachel's Experiment (D.T.)";"1.0";"2";"1";"1";"2";"1";"1";"2014-09-23 19:24:01.379";"2014-09-23 19:39:51.940";"1";"0";"0";"135";"134";"module.training_block4.exec-1676.GoNoGo4";;;;;;;;;;;;;;;;;;;;;;;;;;;;;;;;;;;;;;;;;;;;;;;;;;;;;;;;;;;"1262";"2014-09-23 19:32:00.096";"NST_correctLoc";"14";"1";"FINISHED";"RIGHT";"success";"299";"0";"2014-09-23 19:31:58.833";"2";;;;;;;;;;;;;;;;;;;;;
"kath131";;;"Windows 7";"Rachel's Experiment (D.T.)";"1.0";"2";"1";"1";"2";"1";"1";"2014-09-23 19:24:01.379";"2014-09-23 19:39:51.940";"1";"0";"0";"136";"135";"module.training_block4.exec-1676.GoNoGo4";;;;;;;;;;;;;;;;;;;;;;;;;;;;;;;;;;;;;;;;;;;;;;;;;;;;;;;;;;;"1261";"2014-09-23 19:32:02.686";"NST_correctLoc";"2";"1";"FINISHED";"RIGHT";"success";"279";"0";"2014-09-23 19:32:01.422";"1";;;;;;;;;;;;;;;;;;;;;
"kath131";;;"Windows 7";"Rachel's Experiment (D.T.)";"1.0";"2";"1";"1";"2";"1";"1";"2014-09-23 19:24:01.379";"2014-09-23 19:39:51.940";"1";"0";"0";"137";"136";"module.training_block4.exec-1676.GoNoGo4";;;;;;;;;;;;;;;;;;;;;;;;;;;;;;;;;;;;;;;;;;;;;;;;;;;;;;;;;;;"1261";"2014-09-23 19:32:05.244";"NST_correctLoc";"35";"0";"FINISHED";"LEFT";"success";"278";"0";"2014-09-23 19:32:03.981";"3";;;;;;;;;;;;;;;;;;;;;
"kath131";;;"Windows 7";"Rachel's Experiment (D.T.)";"1.0";"2";"1";"1";"2";"1";"1";"2014-09-23 19:24:01.379";"2014-09-23 19:39:51.940";"1";"0";"0";"138";"137";"module.training_block4.exec-1676.GoNoGo4";;;;;;;;;;;;;;;;;;;;;;;;;;;;;;;;;;;;;;;;;;;;;;;;;;;;;;;;;;;"1261";"2014-09-23 19:32:07.834";"NST_correctLoc";"21";"0";"FINISHED";"LEFT";"success";"344";"0";"2014-09-23 19:32:06.570";"3";;;;;;;;;;;;;;;;;;;;;
"kath131";;;"Windows 7";"Rachel's Experiment (D.T.)";"1.0";"2";"1";"1";"2";"1";"1";"2014-09-23 19:24:01.379";"2014-09-23 19:39:51.940";"1";"0";"0";"139";"138";"module.training_block4.exec-1676.GoNoGo4";;;;;;;;;;;;;;;;;;;;;;;;;;;;;;;;;;;;;;;;;;;;;;;;;;;;;;;;;;;"1261";"2014-09-23 19:32:10.408";"NST_correctLoc";"33";"0";"FINISHED";"LEFT";"success";"279";"0";"2014-09-23 19:32:09.144";"3";;;;;;;;;;;;;;;;;;;;;
"kath131";;;"Windows 7";"Rachel's Experiment (D.T.)";"1.0";"2";"1";"1";"2";"1";"1";"2014-09-23 19:24:01.379";"2014-09-23 19:39:51.940";"1";"0";"0";"140";"139";"module.training_block4.exec-1676.GoNoGo4";;;;;;;;;;;;;;;;;;;;;;;;;;;;;;;;;;;;;;;;;;;;;;;;;;;;;;;;;;;"1261";"2014-09-23 19:32:12.982";"NST_correctLoc";"22";"0";"FINISHED";"LEFT";"success";"328";"0";"2014-09-23 19:32:11.718";"3";;;;;;;;;;;;;;;;;;;;;
"kath131";;;"Windows 7";"Rachel's Experiment (D.T.)";"1.0";"2";"1";"1";"2";"1";"1";"2014-09-23 19:24:01.379";"2014-09-23 19:39:51.940";"1";"0";"0";"141";"140";"module.training_block4.exec-1676.GoNoGo4";;;;;;;;;;;;;;;;;;;;;;;;;;;;;;;;;;;;;;;;;;;;;;;;;;;;;;;;;;;"1261";"2014-09-23 19:32:15.540";"NST_correctLoc";"6";"1";"FINISHED";"RIGHT";"success";"333";"0";"2014-09-23 19:32:14.277";"1";;;;;;;;;;;;;;;;;;;;;
"kath131";;;"Windows 7";"Rachel's Experiment (D.T.)";"1.0";"2";"1";"1";"2";"1";"1";"2014-09-23 19:24:01.379";"2014-09-23 19:39:51.940";"1";"0";"0";"142";"141";"module.training_block4.exec-1676.GoNoGo4";;;;;;;;;;;;;;;;;;;;;;;;;;;;;;;;;;;;;;;;;;;;;;;;;;;;;;;;;;;"1262";"2014-09-23 19:32:18.114";"NST_correctLoc";"8";"0";"FINISHED";"LEFT";"success";"322";"0";"2014-09-23 19:32:16.851";"1";;;;;;;;;;;;;;;;;;;;;
"kath131";;;"Windows 7";"Rachel's Experiment (D.T.)";"1.0";"2";"1";"1";"2";"1";"1";"2014-09-23 19:24:01.379";"2014-09-23 19:39:51.940";"1";"0";"0";"143";"142";"module.training_block4.exec-1676.GoNoGo4";;;;;;;;;;;;;;;;;;;;;;;;;;;;;;;;;;;;;;;;;;;;;;;;;;;;;;;;;;;"1261";"2014-09-23 19:32:20.719";"NST_correctLoc";"24";"1";"FINISHED";"RIGHT";"success";"265";"0";"2014-09-23 19:32:19.456";"3";;;;;;;;;;;;;;;;;;;;;
"kath131";;;"Windows 7";"Rachel's Experiment (D.T.)";"1.0";"2";"1";"1";"2";"1";"1";"2014-09-23 19:24:01.379";"2014-09-23 19:39:51.940";"1";"0";"0";"144";"143";"module.training_block4.exec-1676.GoNoGo4";;;;;;;;;;;;;;;;;;;;;;;;;;;;;;;;;;;;;;;;;;;;;;;;;;;;;;;;;;;"1261";"2014-09-23 19:32:23.293";"NST_correctLoc";"12";"1";"FINISHED";"RIGHT";"success";"340";"0";"2014-09-23 19:32:22.030";"2";;;;;;;;;;;;;;;;;;;;;
"kath131";;;"Windows 7";"Rachel's Experiment (D.T.)";"1.0";"2";"1";"1";"2";"1";"1";"2014-09-23 19:24:01.379";"2014-09-23 19:39:51.940";"1";"0";"0";"145";"144";"module.training_block4.exec-1676.GoNoGo4";;;;;;;;;;;;;;;;;;;;;;;;;;;;;;;;;;;;;;;;;;;;;;;;;;;;;;;;;;;"1256";"2014-09-23 19:32:26.023";"NST_correctLoc";"28";"0";"FINISHED";"LEFT";"success";"271";"0";"2014-09-23 19:32:24.760";"3";;;;;;;;;;;;;;;;;;;;;
"kath131";;;"Windows 7";"Rachel's Experiment (D.T.)";"1.0";"2";"1";"1";"2";"1";"1";"2014-09-23 19:24:01.379";"2014-09-23 19:39:51.940";"1";"0";"0";"146";"145";"module.training_block4.exec-1676.GoNoGo4";;;;;;;;;;;;;;;;;;;;;;;;;;;;;;;;;;;;;;;;;;;;;;;;;;;;;;;;;;;"1261";"2014-09-23 19:32:28.582";"NST_correctLoc";"20";"1";"FINISHED";"RIGHT";"success";"283";"0";"2014-09-23 19:32:27.318";"3";;;;;;;;;;;;;;;;;;;;;
"kath131";;;"Windows 7";"Rachel's Experiment (D.T.)";"1.0";"2";"1";"1";"2";"1";"1";"2014-09-23 19:24:01.379";"2014-09-23 19:39:51.940";"1";"0";"0";"147";"146";"module.training_block4.exec-1676.GoNoGo4";;;;;;;;;;;;;;;;;;;;;;;;;;;;;;;;;;;;;;;;;;;;;;;;;;;;;;;;;;;"1252";"2014-09-23 19:32:31.156";"NST_correctLoc";"27";"0";"FINISHED";"LEFT";"success";"287";"0";"2014-09-23 19:32:29.892";"3";;;;;;;;;;;;;;;;;;;;;
"kath131";;;"Windows 7";"Rachel's Experiment (D.T.)";"1.0";"2";"1";"1";"2";"1";"1";"2014-09-23 19:24:01.379";"2014-09-23 19:39:51.940";"1";"0";"0";"148";"147";"module.training_block4.exec-1676.GoNoGo4";;;;;;;;;;;;;;;;;;;;;;;;;;;;;;;;;;;;;;;;;;;;;;;;;;;;;;;;;;;"1260";"2014-09-23 19:32:36.148";"NST_correctLoc";"32";"0";"FINISHED";"LEFT";"success";"325";"0";"2014-09-23 19:32:34.884";"3";;;;;;;;;;;;;;;;;;;;;
"kath131";;;"Windows 7";"Rachel's Experiment (D.T.)";"1.0";"2";"1";"1";"2";"1";"1";"2014-09-23 19:24:01.379";"2014-09-23 19:39:51.940";"1";"0";"0";"149";"148";"module.training_block4.exec-1676.GoNoGo4";;;;;;;;;;;;;;;;;;;;;;;;;;;;;;;;;;;;;;;;;;;;;;;;;;;;;;;;;;;"1259";"2014-09-23 19:32:38.800";"NST_correctLoc";"4";"0";"FINISHED";"LEFT";"success";"324";"0";"2014-09-23 19:32:37.536";"1";;;;;;;;;;;;;;;;;;;;;
"kath131";;;"Windows 7";"Rachel's Experiment (D.T.)";"1.0";"2";"1";"1";"2";"1";"1";"2014-09-23 19:24:01.379";"2014-09-23 19:39:51.940";"1";"0";"0";"150";"149";"module.training_block4.exec-1676.GoNoGo4";;;;;;;;;;;;;;;;;;;;;;;;;;;;;;;;;;;;;;;;;;;;;;;;;;;;;;;;;;;"1249";"2014-09-23 19:32:41.467";"NST_correctLoc";"16";"0";"FINISHED";"LEFT";"success";"346";"0";"2014-09-23 19:32:40.204";"2";;;;;;;;;;;;;;;;;;;;;
"kath131";;;"Windows 7";"Rachel's Experiment (D.T.)";"1.0";"2";"1";"1";"2";"1";"1";"2014-09-23 19:24:01.379";"2014-09-23 19:39:51.940";"1";"0";"0";"151";"150";"module.training_block4.exec-1676.GoNoGo4";;;;;;;;;;;;;;;;;;;;;;;;;;;;;;;;;;;;;;;;;;;;;;;;;;;;;;;;;;;"1261";"2014-09-23 19:32:44.119";"NST_correctLoc";"9";"0";"FINISHED";"LEFT";"success";"298";"0";"2014-09-23 19:32:42.856";"2";;;;;;;;;;;;;;;;;;;;;
"kath131";;;"Windows 7";"Rachel's Experiment (D.T.)";"1.0";"2";"1";"1";"2";"1";"1";"2014-09-23 19:24:01.379";"2014-09-23 19:39:51.940";"1";"0";"0";"152";"151";"module.training_block4.exec-1676.GoNoGo4";;;;;;;;;;;;;;;;;;;;;;;;;;;;;;;;;;;;;;;;;;;;;;;;;;;;;;;;;;;"1262";"2014-09-23 19:32:46.678";"NST_correctLoc";"34";"0";"FINISHED";"LEFT";"success";"261";"0";"2014-09-23 19:32:45.414";"3";;;;;;;;;;;;;;;;;;;;;
"kath131";;;"Windows 7";"Rachel's Experiment (D.T.)";"1.0";"2";"1";"1";"2";"1";"1";"2014-09-23 19:24:01.379";"2014-09-23 19:39:51.940";"1";"0";"0";"153";"152";"module.training_block4.exec-1676.GoNoGo4";;;;;;;;;;;;;;;;;;;;;;;;;;;;;;;;;;;;;;;;;;;;;;;;;;;;;;;;;;;"1262";"2014-09-23 19:32:49.252";"NST_correctLoc";"29";"1";"FINISHED";"RIGHT";"success";"319";"0";"2014-09-23 19:32:47.988";"3";;;;;;;;;;;;;;;;;;;;;
"kath131";;;"Windows 7";"Rachel's Experiment (D.T.)";"1.0";"2";"1";"1";"2";"1";"1";"2014-09-23 19:24:01.379";"2014-09-23 19:39:51.940";"1";"0";"0";"154";"153";"module.training_block4.exec-1676.GoNoGo4";;;;;;;;;;;;;;;;;;;;;;;;;;;;;;;;;;;;;;;;;;;;;;;;;;;;;;;;;;;"1261";"2014-09-23 19:32:51.810";"NST_correctLoc";"7";"1";"FINISHED";"RIGHT";"success";"359";"0";"2014-09-23 19:32:50.547";"1";;;;;;;;;;;;;;;;;;;;;
"kath131";;;"Windows 7";"Rachel's Experiment (D.T.)";"1.0";"2";"1";"1";"2";"1";"1";"2014-09-23 19:24:01.379";"2014-09-23 19:39:51.940";"1";"0";"0";"155";"154";"module.training_block4.exec-1676.GoNoGo4";;;;;;;;;;;;;;;;;;;;;;;;;;;;;;;;;;;;;;;;;;;;;;;;;;;;;;;;;;;"1253";"2014-09-23 19:32:54.369";"NST_correctLoc";"31";"1";"FINISHED";"RIGHT";"success";"324";"0";"2014-09-23 19:32:53.105";"3";;;;;;;;;;;;;;;;;;;;;
"kath131";;;"Windows 7";"Rachel's Experiment (D.T.)";"1.0";"2";"1";"1";"2";"1";"1";"2014-09-23 19:24:01.379";"2014-09-23 19:39:51.940";"1";"0";"0";"156";"155";"module.training_block4.exec-1676.GoNoGo4";;;;;;;;;;;;;;;;;;;;;;;;;;;;;;;;;;;;;;;;;;;;;;;;;;;;;;;;;;;"1262";"2014-09-23 19:32:56.943";"NST_correctLoc";"11";"0";"FINISHED";"LEFT";"success";"278";"0";"2014-09-23 19:32:55.679";"2";;;;;;;;;;;;;;;;;;;;;
"kath131";;;"Windows 7";"Rachel's Experiment (D.T.)";"1.0";"2";"1";"1";"2";"1";"1";"2014-09-23 19:24:01.379";"2014-09-23 19:39:51.940";"1";"0";"0";"157";"156";"module.training_block4.exec-1676.GoNoGo4";;;;;;;;;;;;;;;;;;;;;;;;;;;;;;;;;;;;;;;;;;;;;;;;;;;;;;;;;;;"1262";"2014-09-23 19:32:59.501";"NST_correctLoc";"19";"1";"FINISHED";"RIGHT";"success";"280";"0";"2014-09-23 19:32:58.238";"3";;;;;;;;;;;;;;;;;;;;;
"kath131";;;"Windows 7";"Rachel's Experiment (D.T.)";"1.0";"2";"1";"1";"2";"1";"1";"2014-09-23 19:24:01.379";"2014-09-23 19:39:51.940";"1";"0";"0";"158";"157";"module.training_block4.exec-1676.GoNoGo4";;;;;;;;;;;;;;;;;;;;;;;;;;;;;;;;;;;;;;;;;;;;;;;;;;;;;;;;;;;"1261";"2014-09-23 19:33:02.060";"NST_correctLoc";"17";"1";"FINISHED";"RIGHT";"success";"323";"0";"2014-09-23 19:33:00.796";"2";;;;;;;;;;;;;;;;;;;;;
"kath131";;;"Windows 7";"Rachel's Experiment (D.T.)";"1.0";"2";"1";"1";"2";"1";"1";"2014-09-23 19:24:01.379";"2014-09-23 19:39:51.940";"1";"0";"0";"159";"158";"module.training_block4.exec-1676.GoNoGo4";;;;;;;;;;;;;;;;;;;;;;;;;;;;;;;;;;;;;;;;;;;;;;;;;;;;;;;;;;;"1261";"2014-09-23 19:33:04.665";"NST_correctLoc";"5";"0";"FINISHED";"LEFT";"success";"435";"0";"2014-09-23 19:33:03.401";"1";;;;;;;;;;;;;;;;;;;;;
"kath131";;;"Windows 7";"Rachel's Experiment (D.T.)";"1.0";"2";"1";"1";"2";"1";"1";"2014-09-23 19:24:01.379";"2014-09-23 19:39:51.940";"1";"0";"0";"160";"159";"module.devaluation_practice.exec-7918.devalPractice";;;;;;;;;;;;"44278";"2014-09-23 19:34:12.935";"0";"6";"4";"5";"27144";"5097";"8790";"2014-09-23 19:33:28.658";;;;;;;;;;;;;;;;;;;;;;;;;;;;;;;;;;;;;;;;;;;;;;;;;;;;;;;;;;;;;;;;;;;;;;
"kath131";;;"Windows 7";"Rachel's Experiment (D.T.)";"1.0";"2";"1";"1";"2";"1";"1";"2014-09-23 19:24:01.379";"2014-09-23 19:39:51.940";"1";"0";"0";"161";"160";"module.devaluation_practice.exec-7918.devalPractice";;;;;;;;;;;;"20579";"2014-09-23 19:34:33.590";"1";"6";"6";"8";"8589";"4315";"4661";"2014-09-23 19:34:13.013";;;;;;;;;;;;;;;;;;;;;;;;;;;;;;;;;;;;;;;;;;;;;;;;;;;;;;;;;;;;;;;;;;;;;;
"kath131";;;"Windows 7";"Rachel's Experiment (D.T.)";"1.0";"2";"1";"1";"2";"1";"1";"2014-09-23 19:24:01.379";"2014-09-23 19:39:51.940";"1";"0";"0";"162";"161";"module.devaluation_practice.exec-7918.devalPractice";;;;;;;;;;;;"16043";"2014-09-23 19:34:49.752";"2";"3";"4";"5";"5646";"3421";"3936";"2014-09-23 19:34:33.715";;;;;;;;;;;;;;;;;;;;;;;;;;;;;;;;;;;;;;;;;;;;;;;;;;;;;;;;;;;;;;;;;;;;;;
"kath131";;;"Windows 7";"Rachel's Experiment (D.T.)";"1.0";"2";"1";"1";"2";"1";"1";"2014-09-23 19:24:01.379";"2014-09-23 19:39:51.940";"1";"0";"0";"163";"162";"module.devaluation_practice.exec-7918.devalPractice";;;;;;;;;;;;"21885";"2014-09-23 19:35:11.716";"3";"2";"7";"6";"4707";"6327";"7815";"2014-09-23 19:34:49.830";;;;;;;;;;;;;;;;;;;;;;;;;;;;;;;;;;;;;;;;;;;;;;;;;;;;;;;;;;;;;;;;;;;;;;
"kath131";;;"Windows 7";"Rachel's Experiment (D.T.)";"1.0";"2";"1";"1";"2";"1";"1";"2014-09-23 19:24:01.379";"2014-09-23 19:39:51.940";"1";"0";"0";"164";"163";"module.devaluation_block1.exec-6020.deval1";"11064";"2014-09-23 19:35:26.817";"12";"9";"9";"8";"3859";"1678";"2506";"2014-09-23 19:35:15.757";"2";;;;;;;;;;;;;;;;;;;;;;;;;;;;;;;;;;;;;;;;;;;;;;;;;;;;;;;;;;;;;;;;;;;;;;;;;;;;;;;;
"kath131";;;"Windows 7";"Rachel's Experiment (D.T.)";"1.0";"2";"1";"1";"2";"1";"1";"2014-09-23 19:24:01.379";"2014-09-23 19:39:51.940";"1";"0";"0";"165";"164";"module.devaluation_block1.exec-6020.deval1";"18966";"2014-09-23 19:35:45.834";"0";"2";"5";"8";"6435";"1102";"8393";"2014-09-23 19:35:26.880";"1";;;;;;;;;;;;;;;;;;;;;;;;;;;;;;;;;;;;;;;;;;;;;;;;;;;;;;;;;;;;;;;;;;;;;;;;;;;;;;;;
"kath131";;;"Windows 7";"Rachel's Experiment (D.T.)";"1.0";"2";"1";"1";"2";"1";"1";"2014-09-23 19:24:01.379";"2014-09-23 19:39:51.940";"1";"0";"0";"166";"165";"module.devaluation_block1.exec-6020.deval1";"12795";"2014-09-23 19:35:58.735";"8";"2";"5";"4";"4124";"1833";"3804";"2014-09-23 19:35:45.943";"1";;;;;;;;;;;;;;;;;;;;;;;;;;;;;;;;;;;;;;;;;;;;;;;;;;;;;;;;;;;;;;;;;;;;;;;;;;;;;;;;
"kath131";;;"Windows 7";"Rachel's Experiment (D.T.)";"1.0";"2";"1";"1";"2";"1";"1";"2014-09-23 19:24:01.379";"2014-09-23 19:39:51.940";"1";"0";"0";"167";"166";"module.devaluation_block1.exec-6020.deval1";"8905";"2014-09-23 19:36:07.752";"25";"5";"5";"8";"1126";"1252";"3283";"2014-09-23 19:35:58.844";"3";;;;;;;;;;;;;;;;;;;;;;;;;;;;;;;;;;;;;;;;;;;;;;;;;;;;;;;;;;;;;;;;;;;;;;;;;;;;;;;;
"kath131";;;"Windows 7";"Rachel's Experiment (D.T.)";"1.0";"2";"1";"1";"2";"1";"1";"2014-09-23 19:24:01.379";"2014-09-23 19:39:51.940";"1";"0";"0";"168";"167";"module.devaluation_block1.exec-6020.deval1";"16196";"2014-09-23 19:36:24.007";"13";"6";"6";"7";"2540";"3704";"6916";"2014-09-23 19:36:07.814";"2";;;;;;;;;;;;;;;;;;;;;;;;;;;;;;;;;;;;;;;;;;;;;;;;;;;;;;;;;;;;;;;;;;;;;;;;;;;;;;;;
"kath131";;;"Windows 7";"Rachel's Experiment (D.T.)";"1.0";"2";"1";"1";"2";"1";"1";"2014-09-23 19:24:01.379";"2014-09-23 19:39:51.940";"1";"0";"0";"169";"168";"module.devaluation_block1.exec-6020.deval1";"12749";"2014-09-23 19:36:36.861";"23";"6";"3";"6";"3505";"3849";"2363";"2014-09-23 19:36:24.100";"3";;;;;;;;;;;;;;;;;;;;;;;;;;;;;;;;;;;;;;;;;;;;;;;;;;;;;;;;;;;;;;;;;;;;;;;;;;;;;;;;
"kath131";;;"Windows 7";"Rachel's Experiment (D.T.)";"1.0";"2";"1";"1";"2";"1";"1";"2014-09-23 19:24:01.379";"2014-09-23 19:39:51.940";"1";"0";"0";"170";"169";"module.devaluation_block1.exec-6020.deval1";"24929";"2014-09-23 19:37:01.853";"10";"7";"5";"5";"3588";"1063";"17236";"2014-09-23 19:36:36.924";"2";;;;;;;;;;;;;;;;;;;;;;;;;;;;;;;;;;;;;;;;;;;;;;;;;;;;;;;;;;;;;;;;;;;;;;;;;;;;;;;;
"kath131";;;"Windows 7";"Rachel's Experiment (D.T.)";"1.0";"2";"1";"1";"2";"1";"1";"2014-09-23 19:24:01.379";"2014-09-23 19:39:51.940";"1";"0";"0";"171";"170";"module.devaluation_block1.exec-6020.deval1";"10074";"2014-09-23 19:37:12.039";"22";"3";"5";"8";"2929";"889";"3213";"2014-09-23 19:37:01.962";"3";;;;;;;;;;;;;;;;;;;;;;;;;;;;;;;;;;;;;;;;;;;;;;;;;;;;;;;;;;;;;;;;;;;;;;;;;;;;;;;;
"kath131";;;"Windows 7";"Rachel's Experiment (D.T.)";"1.0";"2";"1";"1";"2";"1";"1";"2014-09-23 19:24:01.379";"2014-09-23 19:39:51.940";"1";"0";"0";"172";"171";"module.devaluation_block1.exec-6020.deval1";"10040";"2014-09-23 19:37:22.179";"4";"5";"7";"9";"2158";"2066";"2774";"2014-09-23 19:37:12.149";"1";;;;;;;;;;;;;;;;;;;;;;;;;;;;;;;;;;;;;;;;;;;;;;;;;;;;;;;;;;;;;;;;;;;;;;;;;;;;;;;;
"kath131";;;"Windows 7";"Rachel's Experiment (D.T.)";"1.0";"2";"1";"1";"2";"1";"1";"2014-09-23 19:24:01.379";"2014-09-23 19:39:51.940";"1";"0";"0";"173";"172";"module.devaluation_block1.exec-6020.deval1";"8445";"2014-09-23 19:37:30.744";"17";"1";"2";"2";"1814";"1778";"1822";"2014-09-23 19:37:22.289";"2";;;;;;;;;;;;;;;;;;;;;;;;;;;;;;;;;;;;;;;;;;;;;;;;;;;;;;;;;;;;;;;;;;;;;;;;;;;;;;;;
"kath131";;;"Windows 7";"Rachel's Experiment (D.T.)";"1.0";"2";"1";"1";"2";"1";"1";"2014-09-23 19:24:01.379";"2014-09-23 19:39:51.940";"1";"0";"0";"174";"173";"module.devaluation_block1.exec-6020.deval1";"9937";"2014-09-23 19:37:40.743";"2";"2";"6";"7";"989";"3462";"2449";"2014-09-23 19:37:30.806";"1";;;;;;;;;;;;;;;;;;;;;;;;;;;;;;;;;;;;;;;;;;;;;;;;;;;;;;;;;;;;;;;;;;;;;;;;;;;;;;;;
"kath131";;;"Windows 7";"Rachel's Experiment (D.T.)";"1.0";"2";"1";"1";"2";"1";"1";"2014-09-23 19:24:01.379";"2014-09-23 19:39:51.940";"1";"0";"0";"175";"174";"module.devaluation_block1.exec-6020.deval1";"9528";"2014-09-23 19:37:50.353";"16";"4";"5";"6";"2239";"1162";"3113";"2014-09-23 19:37:40.821";"2";;;;;;;;;;;;;;;;;;;;;;;;;;;;;;;;;;;;;;;;;;;;;;;;;;;;;;;;;;;;;;;;;;;;;;;;;;;;;;;;
"kath131";;;"Windows 7";"Rachel's Experiment (D.T.)";"1.0";"2";"1";"1";"2";"1";"1";"2014-09-23 19:24:01.379";"2014-09-23 19:39:51.940";"1";"0";"0";"176";"175";"module.devaluation_block1.exec-6020.deval1";"10134";"2014-09-23 19:38:00.587";"5";"5";"8";"9";"1822";"2511";"2766";"2014-09-23 19:37:50.447";"1";;;;;;;;;;;;;;;;;;;;;;;;;;;;;;;;;;;;;;;;;;;;;;;;;;;;;;;;;;;;;;;;;;;;;;;;;;;;;;;;
"kath131";;;"Windows 7";"Rachel's Experiment (D.T.)";"1.0";"2";"1";"1";"2";"1";"1";"2014-09-23 19:24:01.379";"2014-09-23 19:39:51.940";"1";"0";"0";"177";"176";"module.devaluation_block1.exec-6020.deval1";"8572";"2014-09-23 19:38:09.276";"18";"2";"7";"8";"1390";"2025";"2127";"2014-09-23 19:38:00.696";"3";;;;;;;;;;;;;;;;;;;;;;;;;;;;;;;;;;;;;;;;;;;;;;;;;;;;;;;;;;;;;;;;;;;;;;;;;;;;;;;;
"kath131";;;"Windows 7";"Rachel's Experiment (D.T.)";"1.0";"2";"1";"1";"2";"1";"1";"2014-09-23 19:24:01.379";"2014-09-23 19:39:51.940";"1";"0";"0";"178";"177";"module.devaluation_block1.exec-6020.deval1";"7003";"2014-09-23 19:38:16.343";"9";"5";"5";"5";"1039";"862";"2074";"2014-09-23 19:38:09.338";"2";;;;;;;;;;;;;;;;;;;;;;;;;;;;;;;;;;;;;;;;;;;;;;;;;;;;;;;;;;;;;;;;;;;;;;;;;;;;;;;;
"kath131";;;"Windows 7";"Rachel's Experiment (D.T.)";"1.0";"2";"1";"1";"2";"1";"1";"2014-09-23 19:24:01.379";"2014-09-23 19:39:51.940";"1";"0";"0";"179";"178";"module.devaluation_block1.exec-6020.deval1";"9432";"2014-09-23 19:38:25.874";"21";"8";"7";"8";"4001";"959";"1438";"2014-09-23 19:38:16.452";"3";;;;;;;;;;;;;;;;;;;;;;;;;;;;;;;;;;;;;;;;;;;;;;;;;;;;;;;;;;;;;;;;;;;;;;;;;;;;;;;;
"kath131";;;"Windows 7";"Rachel's Experiment (D.T.)";"1.0";"2";"1";"1";"2";"1";"1";"2014-09-23 19:24:01.379";"2014-09-23 19:39:51.940";"1";"0";"0";"180";"179";"module.devaluation_block1.exec-6020.deval1";"6373";"2014-09-23 19:38:32.348";"20";"2";"4";"6";"1118";"735";"1495";"2014-09-23 19:38:25.968";"3";;;;;;;;;;;;;;;;;;;;;;;;;;;;;;;;;;;;;;;;;;;;;;;;;;;;;;;;;;;;;;;;;;;;;;;;;;;;;;;;
"kath131";;;"Windows 7";"Rachel's Experiment (D.T.)";"1.0";"2";"1";"1";"2";"1";"1";"2014-09-23 19:24:01.379";"2014-09-23 19:39:51.940";"1";"0";"0";"181";"180";"module.devaluation_block1.exec-6020.deval1";"8496";"2014-09-23 19:38:40.897";"24";"2";"3";"7";"1835";"1718";"1926";"2014-09-23 19:38:32.395";"3";;;;;;;;;;;;;;;;;;;;;;;;;;;;;;;;;;;;;;;;;;;;;;;;;;;;;;;;;;;;;;;;;;;;;;;;;;;;;;;;
"kath131";;;"Windows 7";"Rachel's Experiment (D.T.)";"1.0";"2";"1";"1";"2";"1";"1";"2014-09-23 19:24:01.379";"2014-09-23 19:39:51.940";"1";"0";"0";"182";"181";"module.devaluation_block1.exec-6020.deval1";"7351";"2014-09-23 19:38:48.354";"15";"2";"3";"3";"1045";"1482";"1775";"2014-09-23 19:38:41.006";"2";;;;;;;;;;;;;;;;;;;;;;;;;;;;;;;;;;;;;;;;;;;;;;;;;;;;;;;;;;;;;;;;;;;;;;;;;;;;;;;;
"kath131";;;"Windows 7";"Rachel's Experiment (D.T.)";"1.0";"2";"1";"1";"2";"1";"1";"2014-09-23 19:24:01.379";"2014-09-23 19:39:51.940";"1";"0";"0";"183";"182";"module.devaluation_block1.exec-6020.deval1";"7135";"2014-09-23 19:38:55.577";"7";"1";"1";"4";"1111";"1660";"1325";"2014-09-23 19:38:48.448";"1";;;;;;;;;;;;;;;;;;;;;;;;;;;;;;;;;;;;;;;;;;;;;;;;;;;;;;;;;;;;;;;;;;;;;;;;;;;;;;;;
"kath131";;;"Windows 7";"Rachel's Experiment (D.T.)";"1.0";"2";"1";"1";"2";"1";"1";"2014-09-23 19:24:01.379";"2014-09-23 19:39:51.940";"1";"0";"0";"184";"183";"module.devaluation_block1.exec-6020.deval1";"7609";"2014-09-23 19:39:03.283";"19";"6";"6";"9";"1943";"1123";"1524";"2014-09-23 19:38:55.670";"3";;;;;;;;;;;;;;;;;;;;;;;;;;;;;;;;;;;;;;;;;;;;;;;;;;;;;;;;;;;;;;;;;;;;;;;;;;;;;;;;
"kath131";;;"Windows 7";"Rachel's Experiment (D.T.)";"1.0";"2";"1";"1";"2";"1";"1";"2014-09-23 19:24:01.379";"2014-09-23 19:39:51.940";"1";"0";"0";"185";"184";"module.devaluation_block1.exec-6020.deval1";"5818";"2014-09-23 19:39:09.211";"26";"8";"5";"7";"1090";"487";"1207";"2014-09-23 19:39:03.392";"3";;;;;;;;;;;;;;;;;;;;;;;;;;;;;;;;;;;;;;;;;;;;;;;;;;;;;;;;;;;;;;;;;;;;;;;;;;;;;;;;
"kath131";;;"Windows 7";"Rachel's Experiment (D.T.)";"1.0";"2";"1";"1";"2";"1";"1";"2014-09-23 19:24:01.379";"2014-09-23 19:39:51.940";"1";"0";"0";"186";"185";"module.devaluation_block1.exec-6020.deval1";"7549";"2014-09-23 19:39:16.902";"6";"2";"4";"6";"1464";"1573";"1474";"2014-09-23 19:39:09.352";"1";;;;;;;;;;;;;;;;;;;;;;;;;;;;;;;;;;;;;;;;;;;;;;;;;;;;;;;;;;;;;;;;;;;;;;;;;;;;;;;;
"kath131";;;"Windows 7";"Rachel's Experiment (D.T.)";"1.0";"2";"1";"1";"2";"1";"1";"2014-09-23 19:24:01.379";"2014-09-23 19:39:51.940";"1";"0";"0";"187";"186";"module.devaluation_block1.exec-6020.deval1";"11770";"2014-09-23 19:39:28.711";"3";"3";"8";"9";"1975";"2350";"4420";"2014-09-23 19:39:16.949";"1";;;;;;;;;;;;;;;;;;;;;;;;;;;;;;;;;;;;;;;;;;;;;;;;;;;;;;;;;;;;;;;;;;;;;;;;;;;;;;;;
"kath131";;;"Windows 7";"Rachel's Experiment (D.T.)";"1.0";"2";"1";"1";"2";"1";"1";"2014-09-23 19:24:01.379";"2014-09-23 19:39:51.940";"1";"0";"0";"188";"187";"module.devaluation_block1.exec-6020.deval1";"8238";"2014-09-23 19:39:37.057";"11";"8";"7";"6";"2407";"1060";"1734";"2014-09-23 19:39:28.820";"2";;;;;;;;;;;;;;;;;;;;;;;;;;;;;;;;;;;;;;;;;;;;;;;;;;;;;;;;;;;;;;;;;;;;;;;;;;;;;;;;
"kath131";;;"Windows 7";"Rachel's Experiment (D.T.)";"1.0";"2";"1";"1";"2";"1";"1";"2014-09-23 19:24:01.379";"2014-09-23 19:39:51.940";"1";"0";"0";"189";"188";"module.devaluation_block1.exec-6020.deval1";"6507";"2014-09-23 19:39:43.656";"1";"2";"4";"7";"908";"865";"1699";"2014-09-23 19:39:37.151";"1";;;;;;;;;;;;;;;;;;;;;;;;;;;;;;;;;;;;;;;;;;;;;;;;;;;;;;;;;;;;;;;;;;;;;;;;;;;;;;;;
"kath131";;;"Windows 7";"Rachel's Experiment (D.T.)";"1.0";"2";"1";"1";"2";"1";"1";"2014-09-23 19:24:01.379";"2014-09-23 19:39:51.940";"1";"0";"0";"190";"189";"module.devaluation_block1.exec-6020.deval1";"6839";"2014-09-23 19:39:50.598";"14";"8";"7";"7";"1000";"1517";"1276";"2014-09-23 19:39:43.765";"2";;;;;;;;;;;;;;;;;;;;;;;;;;;;;;;;;;;;;;;;;;;;;;;;;;;;;;;;;;;;;;;;;;;;;;;;;;;;;;;;
