"user.name";"user.yearOfBirth";"user.sex";"user.osName";"module.name";"module.version";"module.online.subject.code";"module.online.study.id";"module.online.module.nr";"module.online.group.nr";"session.id";"session.index";"session.startTime";"session.endTime";"session.completed";"session.node-2002.conditionType";"session.node-5117.DevalQorder";"trial.id";"trial.index";"trial.name";"trial.deval1.durationTime";"trial.deval1.endTime";"trial.deval1.icon";"trial.deval1.Resp_Attractive";"trial.deval1.Resp_Eat";"trial.deval1.Resp_Taste";"trial.deval1.RT_Attractive";"trial.deval1.RT_Eat";"trial.deval1.RT_Taste";"trial.deval1.startTime";"trial.deval1.stimulus type";"trial.devalPractice.durationTime";"trial.devalPractice.endTime";"trial.devalPractice.icon";"trial.devalPractice.Resp_Attractive";"trial.devalPractice.Resp_Eat";"trial.devalPractice.Resp_Taste";"trial.devalPractice.RT_Attractive";"trial.devalPractice.RT_Eat";"trial.devalPractice.RT_Taste";"trial.devalPractice.startTime";"trial.devalPractice.stimulus type";"trial.GoNoGo1.durationTime";"trial.GoNoGo1.endTime";"trial.GoNoGo1.Error Type";"trial.GoNoGo1.icon";"trial.GoNoGo1.location";"trial.GoNoGo1.outcome";"trial.GoNoGo1.response";"trial.GoNoGo1.result";"trial.GoNoGo1.RT";"trial.GoNoGo1.signal";"trial.GoNoGo1.startTime";"trial.GoNoGo1.stimulus type";"trial.GoNoGo2.durationTime";"trial.GoNoGo2.endTime";"trial.GoNoGo2.Error Type";"trial.GoNoGo2.icon";"trial.GoNoGo2.location";"trial.GoNoGo2.outcome";"trial.GoNoGo2.response";"trial.GoNoGo2.result";"trial.GoNoGo2.RT";"trial.GoNoGo2.signal";"trial.GoNoGo2.startTime";"trial.GoNoGo2.stimulus type";"trial.GoNoGo3.durationTime";"trial.GoNoGo3.endTime";"trial.GoNoGo3.Error Type";"trial.GoNoGo3.icon";"trial.GoNoGo3.location";"trial.GoNoGo3.outcome";"trial.GoNoGo3.response";"trial.GoNoGo3.result";"trial.GoNoGo3.RT";"trial.GoNoGo3.signal";"trial.GoNoGo3.startTime";"trial.GoNoGo3.stimulus type";"trial.GoNoGo4.durationTime";"trial.GoNoGo4.endTime";"trial.GoNoGo4.Error Type";"trial.GoNoGo4.icon";"trial.GoNoGo4.location";"trial.GoNoGo4.outcome";"trial.GoNoGo4.response";"trial.GoNoGo4.result";"trial.GoNoGo4.RT";"trial.GoNoGo4.signal";"trial.GoNoGo4.startTime";"trial.GoNoGo4.stimulus type";"trial.GoNoGo_Practice.durationTime";"trial.GoNoGo_Practice.endTime";"trial.GoNoGo_Practice.icon";"trial.GoNoGo_Practice.location";"trial.GoNoGo_Practice.outcome";"trial.GoNoGo_Practice.response";"trial.GoNoGo_Practice.result";"trial.GoNoGo_Practice.RT";"trial.GoNoGo_Practice.signal";"trial.GoNoGo_Practice.startTime";"trial.GoNoGo_Practice.stimulus type";"trial.GoNoGo_Tutorial.durationTime";"trial.GoNoGo_Tutorial.endTime";"trial.GoNoGo_Tutorial.icon";"trial.GoNoGo_Tutorial.location";"trial.GoNoGo_Tutorial.outcome";"trial.GoNoGo_Tutorial.response";"trial.GoNoGo_Tutorial.result";"trial.GoNoGo_Tutorial.RT";"trial.GoNoGo_Tutorial.signal";"trial.GoNoGo_Tutorial.startTime"
"yolcapleb";"1993";;"Windows 8";"Rachel's Experiment (D.T.)";"1.0";"2";"1";"1";"2";"1";"1";"2014-10-12 10:25:36.132";"2014-10-12 10:37:58.176";"1";"0";"0";"1";"0";"module.GoNoGotutorial.exec-9111.GoNoGo_Tutorial";;;;;;;;;;;;;;;;;;;;;;;;;;;;;;;;;;;;;;;;;;;;;;;;;;;;;;;;;;;;;;;;;;;;;;;;;;;;;;;;;;"4003";"2014-10-12 10:26:36.795";"leftResponse";"0";"FINISHED";"LEFT";"success";"1098";"0";"2014-10-12 10:26:32.791"
"yolcapleb";"1993";;"Windows 8";"Rachel's Experiment (D.T.)";"1.0";"2";"1";"1";"2";"1";"1";"2014-10-12 10:25:36.132";"2014-10-12 10:37:58.176";"1";"0";"0";"2";"1";"module.GoNoGotutorial.exec-9111.GoNoGo_Tutorial";;;;;;;;;;;;;;;;;;;;;;;;;;;;;;;;;;;;;;;;;;;;;;;;;;;;;;;;;;;;;;;;;;;;;;;;;;;;;;;;;;"4000";"2014-10-12 10:26:42.160";"rightResponse";"1";"FINISHED";"RIGHT";"success";"543";"0";"2014-10-12 10:26:38.159"
"yolcapleb";"1993";;"Windows 8";"Rachel's Experiment (D.T.)";"1.0";"2";"1";"1";"2";"1";"1";"2014-10-12 10:25:36.132";"2014-10-12 10:37:58.176";"1";"0";"0";"3";"2";"module.GoNoGotutorial.exec-9111.GoNoGo_Tutorial";;;;;;;;;;;;;;;;;;;;;;;;;;;;;;;;;;;;;;;;;;;;;;;;;;;;;;;;;;;;;;;;;;;;;;;;;;;;;;;;;;"4000";"2014-10-12 10:26:47.505";"quickResponse";"0";"FINISHED";"NONE";"failure";"0";"0";"2014-10-12 10:26:43.505"
"yolcapleb";"1993";;"Windows 8";"Rachel's Experiment (D.T.)";"1.0";"2";"1";"1";"2";"1";"1";"2014-10-12 10:25:36.132";"2014-10-12 10:37:58.176";"1";"0";"0";"4";"3";"module.GoNoGopractice.exec-9745.GoNoGo_Practice";;;;;;;;;;;;;;;;;;;;;;;;;;;;;;;;;;;;;;;;;;;;;;;;;;;;;;;;;;;;;;;;;;;;;;;"1972";"2014-10-12 10:26:54.843";"18";"0";"FINISHED";"LEFT";"success";"408";"0";"2014-10-12 10:26:52.871";"3";;;;;;;;;;
"yolcapleb";"1993";;"Windows 8";"Rachel's Experiment (D.T.)";"1.0";"2";"1";"1";"2";"1";"1";"2014-10-12 10:25:36.132";"2014-10-12 10:37:58.176";"1";"0";"0";"5";"4";"module.GoNoGopractice.exec-9745.GoNoGo_Practice";;;;;;;;;;;;;;;;;;;;;;;;;;;;;;;;;;;;;;;;;;;;;;;;;;;;;;;;;;;;;;;;;;;;;;;"1955";"2014-10-12 10:26:58.382";"21";"1";"FINISHED";"RIGHT";"success";"412";"0";"2014-10-12 10:26:56.426";"3";;;;;;;;;;
"yolcapleb";"1993";;"Windows 8";"Rachel's Experiment (D.T.)";"1.0";"2";"1";"1";"2";"1";"1";"2014-10-12 10:25:36.132";"2014-10-12 10:37:58.176";"1";"0";"0";"6";"5";"module.GoNoGopractice.exec-9745.GoNoGo_Practice";;;;;;;;;;;;;;;;;;;;;;;;;;;;;;;;;;;;;;;;;;;;;;;;;;;;;;;;;;;;;;;;;;;;;;;"1955";"2014-10-12 10:27:01.672";"14";"1";"FINISHED";"RIGHT";"success";"545";"0";"2014-10-12 10:26:59.716";"2";;;;;;;;;;
"yolcapleb";"1993";;"Windows 8";"Rachel's Experiment (D.T.)";"1.0";"2";"1";"1";"2";"1";"1";"2014-10-12 10:25:36.132";"2014-10-12 10:37:58.176";"1";"0";"0";"7";"6";"module.GoNoGopractice.exec-9745.GoNoGo_Practice";;;;;;;;;;;;;;;;;;;;;;;;;;;;;;;;;;;;;;;;;;;;;;;;;;;;;;;;;;;;;;;;;;;;;;;"1955";"2014-10-12 10:27:04.975";"26";"0";"FINISHED";"LEFT";"success";"382";"0";"2014-10-12 10:27:03.019";"3";;;;;;;;;;
"yolcapleb";"1993";;"Windows 8";"Rachel's Experiment (D.T.)";"1.0";"2";"1";"1";"2";"1";"1";"2014-10-12 10:25:36.132";"2014-10-12 10:37:58.176";"1";"0";"0";"8";"7";"module.GoNoGopractice.exec-9745.GoNoGo_Practice";;;;;;;;;;;;;;;;;;;;;;;;;;;;;;;;;;;;;;;;;;;;;;;;;;;;;;;;;;;;;;;;;;;;;;;"1955";"2014-10-12 10:27:08.265";"2";"0";"FINISHED";"LEFT";"success";"469";"0";"2014-10-12 10:27:06.309";"1";;;;;;;;;;
"yolcapleb";"1993";;"Windows 8";"Rachel's Experiment (D.T.)";"1.0";"2";"1";"1";"2";"1";"1";"2014-10-12 10:25:36.132";"2014-10-12 10:37:58.176";"1";"0";"0";"9";"8";"module.GoNoGopractice.exec-9745.GoNoGo_Practice";;;;;;;;;;;;;;;;;;;;;;;;;;;;;;;;;;;;;;;;;;;;;;;;;;;;;;;;;;;;;;;;;;;;;;;"1957";"2014-10-12 10:27:11.561";"30";"0";"FINISHED";"LEFT";"success";"430";"0";"2014-10-12 10:27:09.604";"3";;;;;;;;;;
"yolcapleb";"1993";;"Windows 8";"Rachel's Experiment (D.T.)";"1.0";"2";"1";"1";"2";"1";"1";"2014-10-12 10:25:36.132";"2014-10-12 10:37:58.176";"1";"0";"0";"10";"9";"module.GoNoGopractice.exec-9745.GoNoGo_Practice";;;;;;;;;;;;;;;;;;;;;;;;;;;;;;;;;;;;;;;;;;;;;;;;;;;;;;;;;;;;;;;;;;;;;;;"1955";"2014-10-12 10:27:14.848";"6";"1";"FINISHED";"RIGHT";"success";"566";"0";"2014-10-12 10:27:12.892";"1";;;;;;;;;;
"yolcapleb";"1993";;"Windows 8";"Rachel's Experiment (D.T.)";"1.0";"2";"1";"1";"2";"1";"1";"2014-10-12 10:25:36.132";"2014-10-12 10:37:58.176";"1";"0";"0";"11";"10";"module.GoNoGopractice.exec-9745.GoNoGo_Practice";;;;;;;;;;;;;;;;;;;;;;;;;;;;;;;;;;;;;;;;;;;;;;;;;;;;;;;;;;;;;;;;;;;;;;;"1955";"2014-10-12 10:27:18.138";"34";"0";"FINISHED";"LEFT";"success";"539";"0";"2014-10-12 10:27:16.183";"3";;;;;;;;;;
"yolcapleb";"1993";;"Windows 8";"Rachel's Experiment (D.T.)";"1.0";"2";"1";"1";"2";"1";"1";"2014-10-12 10:25:36.132";"2014-10-12 10:37:58.176";"1";"0";"0";"12";"11";"module.GoNoGopractice.exec-9745.GoNoGo_Practice";;;;;;;;;;;;;;;;;;;;;;;;;;;;;;;;;;;;;;;;;;;;;;;;;;;;;;;;;;;;;;;;;;;;;;;"1955";"2014-10-12 10:27:21.425";"23";"1";"FINISHED";"RIGHT";"success";"545";"0";"2014-10-12 10:27:19.469";"3";;;;;;;;;;
"yolcapleb";"1993";;"Windows 8";"Rachel's Experiment (D.T.)";"1.0";"2";"1";"1";"2";"1";"1";"2014-10-12 10:25:36.132";"2014-10-12 10:37:58.176";"1";"0";"0";"13";"12";"module.GoNoGopractice.exec-9745.GoNoGo_Practice";;;;;;;;;;;;;;;;;;;;;;;;;;;;;;;;;;;;;;;;;;;;;;;;;;;;;;;;;;;;;;;;;;;;;;;"1956";"2014-10-12 10:27:24.708";"13";"0";"FINISHED";"LEFT";"success";"578";"0";"2014-10-12 10:27:22.752";"2";;;;;;;;;;
"yolcapleb";"1993";;"Windows 8";"Rachel's Experiment (D.T.)";"1.0";"2";"1";"1";"2";"1";"1";"2014-10-12 10:25:36.132";"2014-10-12 10:37:58.176";"1";"0";"0";"14";"13";"module.GoNoGopractice.exec-9745.GoNoGo_Practice";;;;;;;;;;;;;;;;;;;;;;;;;;;;;;;;;;;;;;;;;;;;;;;;;;;;;;;;;;;;;;;;;;;;;;;"1956";"2014-10-12 10:27:27.990";"3";"1";"FINISHED";"RIGHT";"success";"677";"0";"2014-10-12 10:27:26.034";"1";;;;;;;;;;
"yolcapleb";"1993";;"Windows 8";"Rachel's Experiment (D.T.)";"1.0";"2";"1";"1";"2";"1";"1";"2014-10-12 10:25:36.132";"2014-10-12 10:37:58.176";"1";"0";"0";"15";"14";"module.GoNoGopractice.exec-9745.GoNoGo_Practice";;;;;;;;;;;;;;;;;;;;;;;;;;;;;;;;;;;;;;;;;;;;;;;;;;;;;;;;;;;;;;;;;;;;;;;"1956";"2014-10-12 10:27:31.278";"27";"1";"FINISHED";"RIGHT";"success";"577";"0";"2014-10-12 10:27:29.322";"3";;;;;;;;;;
"yolcapleb";"1993";;"Windows 8";"Rachel's Experiment (D.T.)";"1.0";"2";"1";"1";"2";"1";"1";"2014-10-12 10:25:36.132";"2014-10-12 10:37:58.176";"1";"0";"0";"16";"15";"module.training_block1.exec-1916.GoNoGo1";;;;;;;;;;;;;;;;;;;;;;;"1254";"2014-10-12 10:27:39.291";"NST_correctLoc";"30";"1";"FINISHED";"RIGHT";"success";"476";"0";"2014-10-12 10:27:38.037";"3";;;;;;;;;;;;;;;;;;;;;;;;;;;;;;;;;;;;;;;;;;;;;;;;;;;;;;;;;
"yolcapleb";"1993";;"Windows 8";"Rachel's Experiment (D.T.)";"1.0";"2";"1";"1";"2";"1";"1";"2014-10-12 10:25:36.132";"2014-10-12 10:37:58.176";"1";"0";"0";"17";"16";"module.training_block1.exec-1916.GoNoGo1";;;;;;;;;;;;;;;;;;;;;;;"1249";"2014-10-12 10:27:41.864";"NST_correctLoc";"21";"1";"FINISHED";"RIGHT";"success";"517";"0";"2014-10-12 10:27:40.614";"3";;;;;;;;;;;;;;;;;;;;;;;;;;;;;;;;;;;;;;;;;;;;;;;;;;;;;;;;;
"yolcapleb";"1993";;"Windows 8";"Rachel's Experiment (D.T.)";"1.0";"2";"1";"1";"2";"1";"1";"2014-10-12 10:25:36.132";"2014-10-12 10:37:58.176";"1";"0";"0";"18";"17";"module.training_block1.exec-1916.GoNoGo1";;;;;;;;;;;;;;;;;;;;;;;"1249";"2014-10-12 10:27:44.480";"NST_correctLoc";"15";"0";"FINISHED";"LEFT";"success";"339";"0";"2014-10-12 10:27:43.230";"2";;;;;;;;;;;;;;;;;;;;;;;;;;;;;;;;;;;;;;;;;;;;;;;;;;;;;;;;;
"yolcapleb";"1993";;"Windows 8";"Rachel's Experiment (D.T.)";"1.0";"2";"1";"1";"2";"1";"1";"2014-10-12 10:25:36.132";"2014-10-12 10:37:58.176";"1";"0";"0";"19";"18";"module.training_block1.exec-1916.GoNoGo1";;;;;;;;;;;;;;;;;;;;;;;"1250";"2014-10-12 10:27:47.061";"NST_correctLoc";"35";"1";"FINISHED";"RIGHT";"success";"439";"0";"2014-10-12 10:27:45.810";"3";;;;;;;;;;;;;;;;;;;;;;;;;;;;;;;;;;;;;;;;;;;;;;;;;;;;;;;;;
"yolcapleb";"1993";;"Windows 8";"Rachel's Experiment (D.T.)";"1.0";"2";"1";"1";"2";"1";"1";"2014-10-12 10:25:36.132";"2014-10-12 10:37:58.176";"1";"0";"0";"20";"19";"module.training_block1.exec-1916.GoNoGo1";;;;;;;;;;;;;;;;;;;;;;;"1249";"2014-10-12 10:27:49.638";"NST_correctLoc";"9";"1";"FINISHED";"RIGHT";"success";"503";"0";"2014-10-12 10:27:48.388";"2";;;;;;;;;;;;;;;;;;;;;;;;;;;;;;;;;;;;;;;;;;;;;;;;;;;;;;;;;
"yolcapleb";"1993";;"Windows 8";"Rachel's Experiment (D.T.)";"1.0";"2";"1";"1";"2";"1";"1";"2014-10-12 10:25:36.132";"2014-10-12 10:37:58.176";"1";"0";"0";"21";"20";"module.training_block1.exec-1916.GoNoGo1";;;;;;;;;;;;;;;;;;;;;;;"1250";"2014-10-12 10:27:52.215";"NST_correctLoc";"4";"0";"FINISHED";"LEFT";"success";"437";"0";"2014-10-12 10:27:50.964";"1";;;;;;;;;;;;;;;;;;;;;;;;;;;;;;;;;;;;;;;;;;;;;;;;;;;;;;;;;
"yolcapleb";"1993";;"Windows 8";"Rachel's Experiment (D.T.)";"1.0";"2";"1";"1";"2";"1";"1";"2014-10-12 10:25:36.132";"2014-10-12 10:37:58.176";"1";"0";"0";"22";"21";"module.training_block1.exec-1916.GoNoGo1";;;;;;;;;;;;;;;;;;;;;;;"1250";"2014-10-12 10:27:54.782";"NST_correctLoc";"14";"1";"FINISHED";"RIGHT";"success";"370";"0";"2014-10-12 10:27:53.531";"2";;;;;;;;;;;;;;;;;;;;;;;;;;;;;;;;;;;;;;;;;;;;;;;;;;;;;;;;;
"yolcapleb";"1993";;"Windows 8";"Rachel's Experiment (D.T.)";"1.0";"2";"1";"1";"2";"1";"1";"2014-10-12 10:25:36.132";"2014-10-12 10:37:58.176";"1";"0";"0";"23";"22";"module.training_block1.exec-1916.GoNoGo1";;;;;;;;;;;;;;;;;;;;;;;"1250";"2014-10-12 10:27:57.355";"NST_correctLoc";"28";"1";"FINISHED";"RIGHT";"success";"403";"0";"2014-10-12 10:27:56.105";"3";;;;;;;;;;;;;;;;;;;;;;;;;;;;;;;;;;;;;;;;;;;;;;;;;;;;;;;;;
"yolcapleb";"1993";;"Windows 8";"Rachel's Experiment (D.T.)";"1.0";"2";"1";"1";"2";"1";"1";"2014-10-12 10:25:36.132";"2014-10-12 10:37:58.176";"1";"0";"0";"24";"23";"module.training_block1.exec-1916.GoNoGo1";;;;;;;;;;;;;;;;;;;;;;;"1249";"2014-10-12 10:27:59.929";"NST_correctLoc";"1";"0";"FINISHED";"LEFT";"success";"382";"0";"2014-10-12 10:27:58.679";"1";;;;;;;;;;;;;;;;;;;;;;;;;;;;;;;;;;;;;;;;;;;;;;;;;;;;;;;;;
"yolcapleb";"1993";;"Windows 8";"Rachel's Experiment (D.T.)";"1.0";"2";"1";"1";"2";"1";"1";"2014-10-12 10:25:36.132";"2014-10-12 10:37:58.176";"1";"0";"0";"25";"24";"module.training_block1.exec-1916.GoNoGo1";;;;;;;;;;;;;;;;;;;;;;;"1250";"2014-10-12 10:28:02.504";"NST_correctLoc";"32";"1";"FINISHED";"RIGHT";"success";"339";"0";"2014-10-12 10:28:01.253";"3";;;;;;;;;;;;;;;;;;;;;;;;;;;;;;;;;;;;;;;;;;;;;;;;;;;;;;;;;
"yolcapleb";"1993";;"Windows 8";"Rachel's Experiment (D.T.)";"1.0";"2";"1";"1";"2";"1";"1";"2014-10-12 10:25:36.132";"2014-10-12 10:37:58.176";"1";"0";"0";"26";"25";"module.training_block1.exec-1916.GoNoGo1";;;;;;;;;;;;;;;;;;;;;;;"1251";"2014-10-12 10:28:05.078";"NST_correctLoc";"10";"0";"FINISHED";"LEFT";"success";"401";"0";"2014-10-12 10:28:03.827";"2";;;;;;;;;;;;;;;;;;;;;;;;;;;;;;;;;;;;;;;;;;;;;;;;;;;;;;;;;
"yolcapleb";"1993";;"Windows 8";"Rachel's Experiment (D.T.)";"1.0";"2";"1";"1";"2";"1";"1";"2014-10-12 10:25:36.132";"2014-10-12 10:37:58.176";"1";"0";"0";"27";"26";"module.training_block1.exec-1916.GoNoGo1";;;;;;;;;;;;;;;;;;;;;;;"1250";"2014-10-12 10:28:07.663";"NST_correctLoc";"5";"1";"FINISHED";"RIGHT";"success";"403";"0";"2014-10-12 10:28:06.412";"1";;;;;;;;;;;;;;;;;;;;;;;;;;;;;;;;;;;;;;;;;;;;;;;;;;;;;;;;;
"yolcapleb";"1993";;"Windows 8";"Rachel's Experiment (D.T.)";"1.0";"2";"1";"1";"2";"1";"1";"2014-10-12 10:25:36.132";"2014-10-12 10:37:58.176";"1";"0";"0";"28";"27";"module.training_block1.exec-1916.GoNoGo1";;;;;;;;;;;;;;;;;;;;;;;"1250";"2014-10-12 10:28:10.239";"NST_correctLoc";"33";"1";"FINISHED";"RIGHT";"success";"408";"0";"2014-10-12 10:28:08.989";"3";;;;;;;;;;;;;;;;;;;;;;;;;;;;;;;;;;;;;;;;;;;;;;;;;;;;;;;;;
"yolcapleb";"1993";;"Windows 8";"Rachel's Experiment (D.T.)";"1.0";"2";"1";"1";"2";"1";"1";"2014-10-12 10:25:36.132";"2014-10-12 10:37:58.176";"1";"0";"0";"29";"28";"module.training_block1.exec-1916.GoNoGo1";;;;;;;;;;;;;;;;;;;;;;;"1250";"2014-10-12 10:28:12.801";"NST_correctLoc";"3";"1";"FINISHED";"RIGHT";"success";"393";"0";"2014-10-12 10:28:11.551";"1";;;;;;;;;;;;;;;;;;;;;;;;;;;;;;;;;;;;;;;;;;;;;;;;;;;;;;;;;
"yolcapleb";"1993";;"Windows 8";"Rachel's Experiment (D.T.)";"1.0";"2";"1";"1";"2";"1";"1";"2014-10-12 10:25:36.132";"2014-10-12 10:37:58.176";"1";"0";"0";"30";"29";"module.training_block1.exec-1916.GoNoGo1";;;;;;;;;;;;;;;;;;;;;;;"1250";"2014-10-12 10:28:15.374";"NST_correctLoc";"12";"1";"FINISHED";"RIGHT";"success";"466";"0";"2014-10-12 10:28:14.123";"2";;;;;;;;;;;;;;;;;;;;;;;;;;;;;;;;;;;;;;;;;;;;;;;;;;;;;;;;;
"yolcapleb";"1993";;"Windows 8";"Rachel's Experiment (D.T.)";"1.0";"2";"1";"1";"2";"1";"1";"2014-10-12 10:25:36.132";"2014-10-12 10:37:58.176";"1";"0";"0";"31";"30";"module.training_block1.exec-1916.GoNoGo1";;;;;;;;;;;;;;;;;;;;;;;"1250";"2014-10-12 10:28:17.955";"NST_correctLoc";"18";"1";"FINISHED";"RIGHT";"success";"348";"0";"2014-10-12 10:28:16.704";"3";;;;;;;;;;;;;;;;;;;;;;;;;;;;;;;;;;;;;;;;;;;;;;;;;;;;;;;;;
"yolcapleb";"1993";;"Windows 8";"Rachel's Experiment (D.T.)";"1.0";"2";"1";"1";"2";"1";"1";"2014-10-12 10:25:36.132";"2014-10-12 10:37:58.176";"1";"0";"0";"32";"31";"module.training_block1.exec-1916.GoNoGo1";;;;;;;;;;;;;;;;;;;;;;;"1250";"2014-10-12 10:28:20.517";"NST_correctLoc";"27";"0";"FINISHED";"LEFT";"success";"316";"0";"2014-10-12 10:28:19.266";"3";;;;;;;;;;;;;;;;;;;;;;;;;;;;;;;;;;;;;;;;;;;;;;;;;;;;;;;;;
"yolcapleb";"1993";;"Windows 8";"Rachel's Experiment (D.T.)";"1.0";"2";"1";"1";"2";"1";"1";"2014-10-12 10:25:36.132";"2014-10-12 10:37:58.176";"1";"0";"0";"33";"32";"module.training_block1.exec-1916.GoNoGo1";;;;;;;;;;;;;;;;;;;;;;;"1250";"2014-10-12 10:28:23.077";"NST_correctLoc";"6";"0";"FINISHED";"LEFT";"success";"374";"0";"2014-10-12 10:28:21.827";"1";;;;;;;;;;;;;;;;;;;;;;;;;;;;;;;;;;;;;;;;;;;;;;;;;;;;;;;;;
"yolcapleb";"1993";;"Windows 8";"Rachel's Experiment (D.T.)";"1.0";"2";"1";"1";"2";"1";"1";"2014-10-12 10:25:36.132";"2014-10-12 10:37:58.176";"1";"0";"0";"34";"33";"module.training_block1.exec-1916.GoNoGo1";;;;;;;;;;;;;;;;;;;;;;;"1250";"2014-10-12 10:28:25.649";"NST_correctLoc";"20";"1";"FINISHED";"RIGHT";"success";"384";"0";"2014-10-12 10:28:24.398";"3";;;;;;;;;;;;;;;;;;;;;;;;;;;;;;;;;;;;;;;;;;;;;;;;;;;;;;;;;
"yolcapleb";"1993";;"Windows 8";"Rachel's Experiment (D.T.)";"1.0";"2";"1";"1";"2";"1";"1";"2014-10-12 10:25:36.132";"2014-10-12 10:37:58.176";"1";"0";"0";"35";"34";"module.training_block1.exec-1916.GoNoGo1";;;;;;;;;;;;;;;;;;;;;;;"1250";"2014-10-12 10:28:28.208";"NST_correctLoc";"23";"0";"FINISHED";"LEFT";"success";"412";"0";"2014-10-12 10:28:26.957";"3";;;;;;;;;;;;;;;;;;;;;;;;;;;;;;;;;;;;;;;;;;;;;;;;;;;;;;;;;
"yolcapleb";"1993";;"Windows 8";"Rachel's Experiment (D.T.)";"1.0";"2";"1";"1";"2";"1";"1";"2014-10-12 10:25:36.132";"2014-10-12 10:37:58.176";"1";"0";"0";"36";"35";"module.training_block1.exec-1916.GoNoGo1";;;;;;;;;;;;;;;;;;;;;;;"1250";"2014-10-12 10:28:30.781";"NST_correctLoc";"16";"0";"FINISHED";"LEFT";"success";"430";"0";"2014-10-12 10:28:29.530";"2";;;;;;;;;;;;;;;;;;;;;;;;;;;;;;;;;;;;;;;;;;;;;;;;;;;;;;;;;
"yolcapleb";"1993";;"Windows 8";"Rachel's Experiment (D.T.)";"1.0";"2";"1";"1";"2";"1";"1";"2014-10-12 10:25:36.132";"2014-10-12 10:37:58.176";"1";"0";"0";"37";"36";"module.training_block1.exec-1916.GoNoGo1";;;;;;;;;;;;;;;;;;;;;;;"1250";"2014-10-12 10:28:33.353";"NST_correctLoc";"24";"1";"FINISHED";"RIGHT";"success";"350";"0";"2014-10-12 10:28:32.102";"3";;;;;;;;;;;;;;;;;;;;;;;;;;;;;;;;;;;;;;;;;;;;;;;;;;;;;;;;;
"yolcapleb";"1993";;"Windows 8";"Rachel's Experiment (D.T.)";"1.0";"2";"1";"1";"2";"1";"1";"2014-10-12 10:25:36.132";"2014-10-12 10:37:58.176";"1";"0";"0";"38";"37";"module.training_block1.exec-1916.GoNoGo1";;;;;;;;;;;;;;;;;;;;;;;"1251";"2014-10-12 10:28:35.914";"NST_correctLoc";"13";"1";"FINISHED";"RIGHT";"success";"447";"0";"2014-10-12 10:28:34.663";"2";;;;;;;;;;;;;;;;;;;;;;;;;;;;;;;;;;;;;;;;;;;;;;;;;;;;;;;;;
"yolcapleb";"1993";;"Windows 8";"Rachel's Experiment (D.T.)";"1.0";"2";"1";"1";"2";"1";"1";"2014-10-12 10:25:36.132";"2014-10-12 10:37:58.176";"1";"0";"0";"39";"38";"module.training_block1.exec-1916.GoNoGo1";;;;;;;;;;;;;;;;;;;;;;;"1250";"2014-10-12 10:28:38.518";"NST_correctLoc";"8";"1";"FINISHED";"RIGHT";"success";"447";"0";"2014-10-12 10:28:37.267";"1";;;;;;;;;;;;;;;;;;;;;;;;;;;;;;;;;;;;;;;;;;;;;;;;;;;;;;;;;
"yolcapleb";"1993";;"Windows 8";"Rachel's Experiment (D.T.)";"1.0";"2";"1";"1";"2";"1";"1";"2014-10-12 10:25:36.132";"2014-10-12 10:37:58.176";"1";"0";"0";"40";"39";"module.training_block1.exec-1916.GoNoGo1";;;;;;;;;;;;;;;;;;;;;;;"1250";"2014-10-12 10:28:41.094";"NST_correctLoc";"22";"0";"FINISHED";"LEFT";"success";"429";"0";"2014-10-12 10:28:39.843";"3";;;;;;;;;;;;;;;;;;;;;;;;;;;;;;;;;;;;;;;;;;;;;;;;;;;;;;;;;
"yolcapleb";"1993";;"Windows 8";"Rachel's Experiment (D.T.)";"1.0";"2";"1";"1";"2";"1";"1";"2014-10-12 10:25:36.132";"2014-10-12 10:37:58.176";"1";"0";"0";"41";"40";"module.training_block1.exec-1916.GoNoGo1";;;;;;;;;;;;;;;;;;;;;;;"1250";"2014-10-12 10:28:43.673";"NST_correctLoc";"0";"1";"FINISHED";"RIGHT";"success";"454";"0";"2014-10-12 10:28:42.422";"1";;;;;;;;;;;;;;;;;;;;;;;;;;;;;;;;;;;;;;;;;;;;;;;;;;;;;;;;;
"yolcapleb";"1993";;"Windows 8";"Rachel's Experiment (D.T.)";"1.0";"2";"1";"1";"2";"1";"1";"2014-10-12 10:25:36.132";"2014-10-12 10:37:58.176";"1";"0";"0";"42";"41";"module.training_block1.exec-1916.GoNoGo1";;;;;;;;;;;;;;;;;;;;;;;"1250";"2014-10-12 10:28:46.240";"NST_correctLoc";"19";"1";"FINISHED";"RIGHT";"success";"497";"0";"2014-10-12 10:28:44.990";"3";;;;;;;;;;;;;;;;;;;;;;;;;;;;;;;;;;;;;;;;;;;;;;;;;;;;;;;;;
"yolcapleb";"1993";;"Windows 8";"Rachel's Experiment (D.T.)";"1.0";"2";"1";"1";"2";"1";"1";"2014-10-12 10:25:36.132";"2014-10-12 10:37:58.176";"1";"0";"0";"43";"42";"module.training_block1.exec-1916.GoNoGo1";;;;;;;;;;;;;;;;;;;;;;;"1250";"2014-10-12 10:28:48.808";"NST_correctLoc";"25";"1";"FINISHED";"RIGHT";"success";"479";"0";"2014-10-12 10:28:47.557";"3";;;;;;;;;;;;;;;;;;;;;;;;;;;;;;;;;;;;;;;;;;;;;;;;;;;;;;;;;
"yolcapleb";"1993";;"Windows 8";"Rachel's Experiment (D.T.)";"1.0";"2";"1";"1";"2";"1";"1";"2014-10-12 10:25:36.132";"2014-10-12 10:37:58.176";"1";"0";"0";"44";"43";"module.training_block1.exec-1916.GoNoGo1";;;;;;;;;;;;;;;;;;;;;;;"1250";"2014-10-12 10:28:51.376";"NST_correctLoc";"7";"1";"FINISHED";"RIGHT";"success";"475";"0";"2014-10-12 10:28:50.125";"1";;;;;;;;;;;;;;;;;;;;;;;;;;;;;;;;;;;;;;;;;;;;;;;;;;;;;;;;;
"yolcapleb";"1993";;"Windows 8";"Rachel's Experiment (D.T.)";"1.0";"2";"1";"1";"2";"1";"1";"2014-10-12 10:25:36.132";"2014-10-12 10:37:58.176";"1";"0";"0";"45";"44";"module.training_block1.exec-1916.GoNoGo1";;;;;;;;;;;;;;;;;;;;;;;"1250";"2014-10-12 10:28:53.942";"NST_correctLoc";"29";"1";"FINISHED";"RIGHT";"success";"469";"0";"2014-10-12 10:28:52.692";"3";;;;;;;;;;;;;;;;;;;;;;;;;;;;;;;;;;;;;;;;;;;;;;;;;;;;;;;;;
"yolcapleb";"1993";;"Windows 8";"Rachel's Experiment (D.T.)";"1.0";"2";"1";"1";"2";"1";"1";"2014-10-12 10:25:36.132";"2014-10-12 10:37:58.176";"1";"0";"0";"46";"45";"module.training_block1.exec-1916.GoNoGo1";;;;;;;;;;;;;;;;;;;;;;;"1250";"2014-10-12 10:28:56.566";"NST_correctLoc";"31";"0";"FINISHED";"LEFT";"success";"595";"0";"2014-10-12 10:28:55.316";"3";;;;;;;;;;;;;;;;;;;;;;;;;;;;;;;;;;;;;;;;;;;;;;;;;;;;;;;;;
"yolcapleb";"1993";;"Windows 8";"Rachel's Experiment (D.T.)";"1.0";"2";"1";"1";"2";"1";"1";"2014-10-12 10:25:36.132";"2014-10-12 10:37:58.176";"1";"0";"0";"47";"46";"module.training_block1.exec-1916.GoNoGo1";;;;;;;;;;;;;;;;;;;;;;;"1251";"2014-10-12 10:28:59.124";"NST_correctLoc";"2";"0";"FINISHED";"LEFT";"success";"476";"0";"2014-10-12 10:28:57.872";"1";;;;;;;;;;;;;;;;;;;;;;;;;;;;;;;;;;;;;;;;;;;;;;;;;;;;;;;;;
"yolcapleb";"1993";;"Windows 8";"Rachel's Experiment (D.T.)";"1.0";"2";"1";"1";"2";"1";"1";"2014-10-12 10:25:36.132";"2014-10-12 10:37:58.176";"1";"0";"0";"48";"47";"module.training_block1.exec-1916.GoNoGo1";;;;;;;;;;;;;;;;;;;;;;;"1250";"2014-10-12 10:29:01.690";"NST_correctLoc";"11";"1";"FINISHED";"RIGHT";"success";"471";"0";"2014-10-12 10:29:00.439";"2";;;;;;;;;;;;;;;;;;;;;;;;;;;;;;;;;;;;;;;;;;;;;;;;;;;;;;;;;
"yolcapleb";"1993";;"Windows 8";"Rachel's Experiment (D.T.)";"1.0";"2";"1";"1";"2";"1";"1";"2014-10-12 10:25:36.132";"2014-10-12 10:37:58.176";"1";"0";"0";"49";"48";"module.training_block1.exec-1916.GoNoGo1";;;;;;;;;;;;;;;;;;;;;;;"1251";"2014-10-12 10:29:04.246";"NST_correctLoc";"26";"1";"FINISHED";"RIGHT";"success";"539";"0";"2014-10-12 10:29:02.995";"3";;;;;;;;;;;;;;;;;;;;;;;;;;;;;;;;;;;;;;;;;;;;;;;;;;;;;;;;;
"yolcapleb";"1993";;"Windows 8";"Rachel's Experiment (D.T.)";"1.0";"2";"1";"1";"2";"1";"1";"2014-10-12 10:25:36.132";"2014-10-12 10:37:58.176";"1";"0";"0";"50";"49";"module.training_block1.exec-1916.GoNoGo1";;;;;;;;;;;;;;;;;;;;;;;"1250";"2014-10-12 10:29:06.802";"NST_correctLoc";"34";"1";"FINISHED";"RIGHT";"success";"608";"0";"2014-10-12 10:29:05.551";"3";;;;;;;;;;;;;;;;;;;;;;;;;;;;;;;;;;;;;;;;;;;;;;;;;;;;;;;;;
"yolcapleb";"1993";;"Windows 8";"Rachel's Experiment (D.T.)";"1.0";"2";"1";"1";"2";"1";"1";"2014-10-12 10:25:36.132";"2014-10-12 10:37:58.176";"1";"0";"0";"51";"50";"module.training_block1.exec-1916.GoNoGo1";;;;;;;;;;;;;;;;;;;;;;;"1249";"2014-10-12 10:29:09.369";"NST_correctLoc";"17";"1";"FINISHED";"RIGHT";"success";"485";"0";"2014-10-12 10:29:08.119";"2";;;;;;;;;;;;;;;;;;;;;;;;;;;;;;;;;;;;;;;;;;;;;;;;;;;;;;;;;
"yolcapleb";"1993";;"Windows 8";"Rachel's Experiment (D.T.)";"1.0";"2";"1";"1";"2";"1";"1";"2014-10-12 10:25:36.132";"2014-10-12 10:37:58.176";"1";"0";"0";"52";"51";"module.training_block2.exec-4916.GoNoGo2";;;;;;;;;;;;;;;;;;;;;;;;;;;;;;;;;;;"1251";"2014-10-12 10:29:20.876";"NST_correctLoc";"26";"1";"FINISHED";"RIGHT";"success";"356";"0";"2014-10-12 10:29:19.625";"3";;;;;;;;;;;;;;;;;;;;;;;;;;;;;;;;;;;;;;;;;;;;;
"yolcapleb";"1993";;"Windows 8";"Rachel's Experiment (D.T.)";"1.0";"2";"1";"1";"2";"1";"1";"2014-10-12 10:25:36.132";"2014-10-12 10:37:58.176";"1";"0";"0";"53";"52";"module.training_block2.exec-4916.GoNoGo2";;;;;;;;;;;;;;;;;;;;;;;;;;;;;;;;;;;"1250";"2014-10-12 10:29:23.441";"NST_correctLoc";"25";"1";"FINISHED";"RIGHT";"success";"571";"0";"2014-10-12 10:29:22.191";"3";;;;;;;;;;;;;;;;;;;;;;;;;;;;;;;;;;;;;;;;;;;;;
"yolcapleb";"1993";;"Windows 8";"Rachel's Experiment (D.T.)";"1.0";"2";"1";"1";"2";"1";"1";"2014-10-12 10:25:36.132";"2014-10-12 10:37:58.176";"1";"0";"0";"54";"53";"module.training_block2.exec-4916.GoNoGo2";;;;;;;;;;;;;;;;;;;;;;;;;;;;;;;;;;;"1249";"2014-10-12 10:29:25.996";"NST_correctLoc";"19";"0";"FINISHED";"LEFT";"success";"449";"0";"2014-10-12 10:29:24.746";"3";;;;;;;;;;;;;;;;;;;;;;;;;;;;;;;;;;;;;;;;;;;;;
"yolcapleb";"1993";;"Windows 8";"Rachel's Experiment (D.T.)";"1.0";"2";"1";"1";"2";"1";"1";"2014-10-12 10:25:36.132";"2014-10-12 10:37:58.176";"1";"0";"0";"55";"54";"module.training_block2.exec-4916.GoNoGo2";;;;;;;;;;;;;;;;;;;;;;;;;;;;;;;;;;;"1249";"2014-10-12 10:29:28.551";"NST_correctLoc";"20";"1";"FINISHED";"RIGHT";"success";"474";"0";"2014-10-12 10:29:27.300";"3";;;;;;;;;;;;;;;;;;;;;;;;;;;;;;;;;;;;;;;;;;;;;
"yolcapleb";"1993";;"Windows 8";"Rachel's Experiment (D.T.)";"1.0";"2";"1";"1";"2";"1";"1";"2014-10-12 10:25:36.132";"2014-10-12 10:37:58.176";"1";"0";"0";"56";"55";"module.training_block2.exec-4916.GoNoGo2";;;;;;;;;;;;;;;;;;;;;;;;;;;;;;;;;;;"1250";"2014-10-12 10:29:31.105";"NST_correctLoc";"31";"0";"FINISHED";"LEFT";"success";"458";"0";"2014-10-12 10:29:29.854";"3";;;;;;;;;;;;;;;;;;;;;;;;;;;;;;;;;;;;;;;;;;;;;
"yolcapleb";"1993";;"Windows 8";"Rachel's Experiment (D.T.)";"1.0";"2";"1";"1";"2";"1";"1";"2014-10-12 10:25:36.132";"2014-10-12 10:37:58.176";"1";"0";"0";"57";"56";"module.training_block2.exec-4916.GoNoGo2";;;;;;;;;;;;;;;;;;;;;;;;;;;;;;;;;;;"1250";"2014-10-12 10:29:33.664";"NST_correctLoc";"10";"1";"FINISHED";"RIGHT";"success";"446";"0";"2014-10-12 10:29:32.414";"2";;;;;;;;;;;;;;;;;;;;;;;;;;;;;;;;;;;;;;;;;;;;;
"yolcapleb";"1993";;"Windows 8";"Rachel's Experiment (D.T.)";"1.0";"2";"1";"1";"2";"1";"1";"2014-10-12 10:25:36.132";"2014-10-12 10:37:58.176";"1";"0";"0";"58";"57";"module.training_block2.exec-4916.GoNoGo2";;;;;;;;;;;;;;;;;;;;;;;;;;;;;;;;;;;"1250";"2014-10-12 10:29:36.220";"NST_correctLoc";"8";"1";"FINISHED";"RIGHT";"success";"447";"0";"2014-10-12 10:29:34.969";"1";;;;;;;;;;;;;;;;;;;;;;;;;;;;;;;;;;;;;;;;;;;;;
"yolcapleb";"1993";;"Windows 8";"Rachel's Experiment (D.T.)";"1.0";"2";"1";"1";"2";"1";"1";"2014-10-12 10:25:36.132";"2014-10-12 10:37:58.176";"1";"0";"0";"59";"58";"module.training_block2.exec-4916.GoNoGo2";;;;;;;;;;;;;;;;;;;;;;;;;;;;;;;;;;;"1250";"2014-10-12 10:29:38.775";"NST_correctLoc";"6";"1";"FINISHED";"RIGHT";"success";"499";"0";"2014-10-12 10:29:37.525";"1";;;;;;;;;;;;;;;;;;;;;;;;;;;;;;;;;;;;;;;;;;;;;
"yolcapleb";"1993";;"Windows 8";"Rachel's Experiment (D.T.)";"1.0";"2";"1";"1";"2";"1";"1";"2014-10-12 10:25:36.132";"2014-10-12 10:37:58.176";"1";"0";"0";"60";"59";"module.training_block2.exec-4916.GoNoGo2";;;;;;;;;;;;;;;;;;;;;;;;;;;;;;;;;;;"1249";"2014-10-12 10:29:41.330";"NST_correctLoc";"34";"1";"FINISHED";"RIGHT";"success";"486";"0";"2014-10-12 10:29:40.080";"3";;;;;;;;;;;;;;;;;;;;;;;;;;;;;;;;;;;;;;;;;;;;;
"yolcapleb";"1993";;"Windows 8";"Rachel's Experiment (D.T.)";"1.0";"2";"1";"1";"2";"1";"1";"2014-10-12 10:25:36.132";"2014-10-12 10:37:58.176";"1";"0";"0";"61";"60";"module.training_block2.exec-4916.GoNoGo2";;;;;;;;;;;;;;;;;;;;;;;;;;;;;;;;;;;"1250";"2014-10-12 10:29:43.886";"NST_correctLoc";"22";"1";"FINISHED";"RIGHT";"success";"439";"0";"2014-10-12 10:29:42.636";"3";;;;;;;;;;;;;;;;;;;;;;;;;;;;;;;;;;;;;;;;;;;;;
"yolcapleb";"1993";;"Windows 8";"Rachel's Experiment (D.T.)";"1.0";"2";"1";"1";"2";"1";"1";"2014-10-12 10:25:36.132";"2014-10-12 10:37:58.176";"1";"0";"0";"62";"61";"module.training_block2.exec-4916.GoNoGo2";;;;;;;;;;;;;;;;;;;;;;;;;;;;;;;;;;;"1249";"2014-10-12 10:29:46.439";"NST_correctLoc";"24";"1";"FINISHED";"RIGHT";"success";"414";"0";"2014-10-12 10:29:45.189";"3";;;;;;;;;;;;;;;;;;;;;;;;;;;;;;;;;;;;;;;;;;;;;
"yolcapleb";"1993";;"Windows 8";"Rachel's Experiment (D.T.)";"1.0";"2";"1";"1";"2";"1";"1";"2014-10-12 10:25:36.132";"2014-10-12 10:37:58.176";"1";"0";"0";"63";"62";"module.training_block2.exec-4916.GoNoGo2";;;;;;;;;;;;;;;;;;;;;;;;;;;;;;;;;;;"1250";"2014-10-12 10:29:48.992";"NST_correctLoc";"30";"0";"FINISHED";"LEFT";"success";"387";"0";"2014-10-12 10:29:47.741";"3";;;;;;;;;;;;;;;;;;;;;;;;;;;;;;;;;;;;;;;;;;;;;
"yolcapleb";"1993";;"Windows 8";"Rachel's Experiment (D.T.)";"1.0";"2";"1";"1";"2";"1";"1";"2014-10-12 10:25:36.132";"2014-10-12 10:37:58.176";"1";"0";"0";"64";"63";"module.training_block2.exec-4916.GoNoGo2";;;;;;;;;;;;;;;;;;;;;;;;;;;;;;;;;;;"1250";"2014-10-12 10:29:51.588";"NST_correctLoc";"33";"1";"FINISHED";"RIGHT";"success";"405";"0";"2014-10-12 10:29:50.337";"3";;;;;;;;;;;;;;;;;;;;;;;;;;;;;;;;;;;;;;;;;;;;;
"yolcapleb";"1993";;"Windows 8";"Rachel's Experiment (D.T.)";"1.0";"2";"1";"1";"2";"1";"1";"2014-10-12 10:25:36.132";"2014-10-12 10:37:58.176";"1";"0";"0";"65";"64";"module.training_block2.exec-4916.GoNoGo2";;;;;;;;;;;;;;;;;;;;;;;;;;;;;;;;;;;"1250";"2014-10-12 10:29:54.139";"NST_correctLoc";"18";"0";"FINISHED";"LEFT";"success";"600";"0";"2014-10-12 10:29:52.889";"3";;;;;;;;;;;;;;;;;;;;;;;;;;;;;;;;;;;;;;;;;;;;;
"yolcapleb";"1993";;"Windows 8";"Rachel's Experiment (D.T.)";"1.0";"2";"1";"1";"2";"1";"1";"2014-10-12 10:25:36.132";"2014-10-12 10:37:58.176";"1";"0";"0";"66";"65";"module.training_block2.exec-4916.GoNoGo2";;;;;;;;;;;;;;;;;;;;;;;;;;;;;;;;;;;"1250";"2014-10-12 10:29:56.692";"NST_correctLoc";"12";"1";"FINISHED";"RIGHT";"success";"450";"0";"2014-10-12 10:29:55.441";"2";;;;;;;;;;;;;;;;;;;;;;;;;;;;;;;;;;;;;;;;;;;;;
"yolcapleb";"1993";;"Windows 8";"Rachel's Experiment (D.T.)";"1.0";"2";"1";"1";"2";"1";"1";"2014-10-12 10:25:36.132";"2014-10-12 10:37:58.176";"1";"0";"0";"67";"66";"module.training_block2.exec-4916.GoNoGo2";;;;;;;;;;;;;;;;;;;;;;;;;;;;;;;;;;;"1250";"2014-10-12 10:29:59.243";"NST_correctLoc";"35";"0";"FINISHED";"LEFT";"success";"356";"0";"2014-10-12 10:29:57.993";"3";;;;;;;;;;;;;;;;;;;;;;;;;;;;;;;;;;;;;;;;;;;;;
"yolcapleb";"1993";;"Windows 8";"Rachel's Experiment (D.T.)";"1.0";"2";"1";"1";"2";"1";"1";"2014-10-12 10:25:36.132";"2014-10-12 10:37:58.176";"1";"0";"0";"68";"67";"module.training_block2.exec-4916.GoNoGo2";;;;;;;;;;;;;;;;;;;;;;;;;;;;;;;;;;;"1250";"2014-10-12 10:30:01.797";"NST_correctLoc";"11";"0";"FINISHED";"LEFT";"success";"411";"0";"2014-10-12 10:30:00.546";"2";;;;;;;;;;;;;;;;;;;;;;;;;;;;;;;;;;;;;;;;;;;;;
"yolcapleb";"1993";;"Windows 8";"Rachel's Experiment (D.T.)";"1.0";"2";"1";"1";"2";"1";"1";"2014-10-12 10:25:36.132";"2014-10-12 10:37:58.176";"1";"0";"0";"69";"68";"module.training_block2.exec-4916.GoNoGo2";;;;;;;;;;;;;;;;;;;;;;;;;;;;;;;;;;;"1250";"2014-10-12 10:30:04.350";"NST_correctLoc";"23";"0";"FINISHED";"LEFT";"success";"464";"0";"2014-10-12 10:30:03.099";"3";;;;;;;;;;;;;;;;;;;;;;;;;;;;;;;;;;;;;;;;;;;;;
"yolcapleb";"1993";;"Windows 8";"Rachel's Experiment (D.T.)";"1.0";"2";"1";"1";"2";"1";"1";"2014-10-12 10:25:36.132";"2014-10-12 10:37:58.176";"1";"0";"0";"70";"69";"module.training_block2.exec-4916.GoNoGo2";;;;;;;;;;;;;;;;;;;;;;;;;;;;;;;;;;;"1250";"2014-10-12 10:30:06.913";"NST_correctLoc";"4";"1";"FINISHED";"RIGHT";"success";"412";"0";"2014-10-12 10:30:05.662";"1";;;;;;;;;;;;;;;;;;;;;;;;;;;;;;;;;;;;;;;;;;;;;
"yolcapleb";"1993";;"Windows 8";"Rachel's Experiment (D.T.)";"1.0";"2";"1";"1";"2";"1";"1";"2014-10-12 10:25:36.132";"2014-10-12 10:37:58.176";"1";"0";"0";"71";"70";"module.training_block2.exec-4916.GoNoGo2";;;;;;;;;;;;;;;;;;;;;;;;;;;;;;;;;;;"1250";"2014-10-12 10:30:09.465";"NST_correctLoc";"0";"0";"FINISHED";"LEFT";"success";"373";"0";"2014-10-12 10:30:08.214";"1";;;;;;;;;;;;;;;;;;;;;;;;;;;;;;;;;;;;;;;;;;;;;
"yolcapleb";"1993";;"Windows 8";"Rachel's Experiment (D.T.)";"1.0";"2";"1";"1";"2";"1";"1";"2014-10-12 10:25:36.132";"2014-10-12 10:37:58.176";"1";"0";"0";"72";"71";"module.training_block2.exec-4916.GoNoGo2";;;;;;;;;;;;;;;;;;;;;;;;;;;;;;;;;;;"1250";"2014-10-12 10:30:12.019";"NST_correctLoc";"29";"1";"FINISHED";"RIGHT";"success";"497";"0";"2014-10-12 10:30:10.768";"3";;;;;;;;;;;;;;;;;;;;;;;;;;;;;;;;;;;;;;;;;;;;;
"yolcapleb";"1993";;"Windows 8";"Rachel's Experiment (D.T.)";"1.0";"2";"1";"1";"2";"1";"1";"2014-10-12 10:25:36.132";"2014-10-12 10:37:58.176";"1";"0";"0";"73";"72";"module.training_block2.exec-4916.GoNoGo2";;;;;;;;;;;;;;;;;;;;;;;;;;;;;;;;;;;"1249";"2014-10-12 10:30:14.605";"NST_correctLoc";"7";"1";"FINISHED";"RIGHT";"success";"437";"0";"2014-10-12 10:30:13.355";"1";;;;;;;;;;;;;;;;;;;;;;;;;;;;;;;;;;;;;;;;;;;;;
"yolcapleb";"1993";;"Windows 8";"Rachel's Experiment (D.T.)";"1.0";"2";"1";"1";"2";"1";"1";"2014-10-12 10:25:36.132";"2014-10-12 10:37:58.176";"1";"0";"0";"74";"73";"module.training_block2.exec-4916.GoNoGo2";;;;;;;;;;;;;;;;;;;;;;;;;;;;;;;;;;;"1249";"2014-10-12 10:30:17.155";"NST_correctLoc";"13";"0";"FINISHED";"LEFT";"success";"488";"0";"2014-10-12 10:30:15.904";"2";;;;;;;;;;;;;;;;;;;;;;;;;;;;;;;;;;;;;;;;;;;;;
"yolcapleb";"1993";;"Windows 8";"Rachel's Experiment (D.T.)";"1.0";"2";"1";"1";"2";"1";"1";"2014-10-12 10:25:36.132";"2014-10-12 10:37:58.176";"1";"0";"0";"75";"74";"module.training_block2.exec-4916.GoNoGo2";;;;;;;;;;;;;;;;;;;;;;;;;;;;;;;;;;;"1250";"2014-10-12 10:30:19.706";"NST_correctLoc";"28";"0";"FINISHED";"LEFT";"success";"486";"0";"2014-10-12 10:30:18.456";"3";;;;;;;;;;;;;;;;;;;;;;;;;;;;;;;;;;;;;;;;;;;;;
"yolcapleb";"1993";;"Windows 8";"Rachel's Experiment (D.T.)";"1.0";"2";"1";"1";"2";"1";"1";"2014-10-12 10:25:36.132";"2014-10-12 10:37:58.176";"1";"0";"0";"76";"75";"module.training_block2.exec-4916.GoNoGo2";;;;;;;;;;;;;;;;;;;;;;;;;;;;;;;;;;;"1250";"2014-10-12 10:30:22.259";"NST_correctLoc";"3";"1";"FINISHED";"RIGHT";"success";"576";"0";"2014-10-12 10:30:21.009";"1";;;;;;;;;;;;;;;;;;;;;;;;;;;;;;;;;;;;;;;;;;;;;
"yolcapleb";"1993";;"Windows 8";"Rachel's Experiment (D.T.)";"1.0";"2";"1";"1";"2";"1";"1";"2014-10-12 10:25:36.132";"2014-10-12 10:37:58.176";"1";"0";"0";"77";"76";"module.training_block2.exec-4916.GoNoGo2";;;;;;;;;;;;;;;;;;;;;;;;;;;;;;;;;;;"1250";"2014-10-12 10:30:24.808";"NST_correctLoc";"27";"0";"FINISHED";"LEFT";"success";"588";"0";"2014-10-12 10:30:23.557";"3";;;;;;;;;;;;;;;;;;;;;;;;;;;;;;;;;;;;;;;;;;;;;
"yolcapleb";"1993";;"Windows 8";"Rachel's Experiment (D.T.)";"1.0";"2";"1";"1";"2";"1";"1";"2014-10-12 10:25:36.132";"2014-10-12 10:37:58.176";"1";"0";"0";"78";"77";"module.training_block2.exec-4916.GoNoGo2";;;;;;;;;;;;;;;;;;;;;;;;;;;;;;;;;;;"1251";"2014-10-12 10:30:27.357";"NST_correctLoc";"17";"0";"FINISHED";"LEFT";"success";"434";"0";"2014-10-12 10:30:26.106";"2";;;;;;;;;;;;;;;;;;;;;;;;;;;;;;;;;;;;;;;;;;;;;
"yolcapleb";"1993";;"Windows 8";"Rachel's Experiment (D.T.)";"1.0";"2";"1";"1";"2";"1";"1";"2014-10-12 10:25:36.132";"2014-10-12 10:37:58.176";"1";"0";"0";"79";"78";"module.training_block2.exec-4916.GoNoGo2";;;;;;;;;;;;;;;;;;;;;;;;;;;;;;;;;;;"1249";"2014-10-12 10:30:29.906";"NST_correctLoc";"15";"1";"FINISHED";"RIGHT";"success";"495";"0";"2014-10-12 10:30:28.655";"2";;;;;;;;;;;;;;;;;;;;;;;;;;;;;;;;;;;;;;;;;;;;;
"yolcapleb";"1993";;"Windows 8";"Rachel's Experiment (D.T.)";"1.0";"2";"1";"1";"2";"1";"1";"2014-10-12 10:25:36.132";"2014-10-12 10:37:58.176";"1";"0";"0";"80";"79";"module.training_block2.exec-4916.GoNoGo2";;;;;;;;;;;;;;;;;;;;;;;;;;;;;;;;;;;"1251";"2014-10-12 10:30:32.457";"NST_correctLoc";"2";"1";"FINISHED";"RIGHT";"success";"433";"0";"2014-10-12 10:30:31.206";"1";;;;;;;;;;;;;;;;;;;;;;;;;;;;;;;;;;;;;;;;;;;;;
"yolcapleb";"1993";;"Windows 8";"Rachel's Experiment (D.T.)";"1.0";"2";"1";"1";"2";"1";"1";"2014-10-12 10:25:36.132";"2014-10-12 10:37:58.176";"1";"0";"0";"81";"80";"module.training_block2.exec-4916.GoNoGo2";;;;;;;;;;;;;;;;;;;;;;;;;;;;;;;;;;;"1249";"2014-10-12 10:30:35.005";"NST_correctLoc";"14";"0";"FINISHED";"LEFT";"success";"419";"0";"2014-10-12 10:30:33.754";"2";;;;;;;;;;;;;;;;;;;;;;;;;;;;;;;;;;;;;;;;;;;;;
"yolcapleb";"1993";;"Windows 8";"Rachel's Experiment (D.T.)";"1.0";"2";"1";"1";"2";"1";"1";"2014-10-12 10:25:36.132";"2014-10-12 10:37:58.176";"1";"0";"0";"82";"81";"module.training_block2.exec-4916.GoNoGo2";;;;;;;;;;;;;;;;;;;;;;;;;;;;;;;;;;;"1251";"2014-10-12 10:30:37.552";"NST_correctLoc";"5";"1";"FINISHED";"RIGHT";"success";"529";"0";"2014-10-12 10:30:36.301";"1";;;;;;;;;;;;;;;;;;;;;;;;;;;;;;;;;;;;;;;;;;;;;
"yolcapleb";"1993";;"Windows 8";"Rachel's Experiment (D.T.)";"1.0";"2";"1";"1";"2";"1";"1";"2014-10-12 10:25:36.132";"2014-10-12 10:37:58.176";"1";"0";"0";"83";"82";"module.training_block2.exec-4916.GoNoGo2";;;;;;;;;;;;;;;;;;;;;;;;;;;;;;;;;;;"1250";"2014-10-12 10:30:40.148";"NST_correctLoc";"9";"0";"FINISHED";"LEFT";"success";"583";"0";"2014-10-12 10:30:38.898";"2";;;;;;;;;;;;;;;;;;;;;;;;;;;;;;;;;;;;;;;;;;;;;
"yolcapleb";"1993";;"Windows 8";"Rachel's Experiment (D.T.)";"1.0";"2";"1";"1";"2";"1";"1";"2014-10-12 10:25:36.132";"2014-10-12 10:37:58.176";"1";"0";"0";"84";"83";"module.training_block2.exec-4916.GoNoGo2";;;;;;;;;;;;;;;;;;;;;;;;;;;;;;;;;;;"1250";"2014-10-12 10:30:42.695";"NST_correctLoc";"16";"0";"FINISHED";"LEFT";"success";"629";"0";"2014-10-12 10:30:41.444";"2";;;;;;;;;;;;;;;;;;;;;;;;;;;;;;;;;;;;;;;;;;;;;
"yolcapleb";"1993";;"Windows 8";"Rachel's Experiment (D.T.)";"1.0";"2";"1";"1";"2";"1";"1";"2014-10-12 10:25:36.132";"2014-10-12 10:37:58.176";"1";"0";"0";"85";"84";"module.training_block2.exec-4916.GoNoGo2";;;;;;;;;;;;;;;;;;;;;;;;;;;;;;;;;;;"1250";"2014-10-12 10:30:45.243";"NST_correctLoc";"1";"0";"FINISHED";"LEFT";"success";"406";"0";"2014-10-12 10:30:43.992";"1";;;;;;;;;;;;;;;;;;;;;;;;;;;;;;;;;;;;;;;;;;;;;
"yolcapleb";"1993";;"Windows 8";"Rachel's Experiment (D.T.)";"1.0";"2";"1";"1";"2";"1";"1";"2014-10-12 10:25:36.132";"2014-10-12 10:37:58.176";"1";"0";"0";"86";"85";"module.training_block2.exec-4916.GoNoGo2";;;;;;;;;;;;;;;;;;;;;;;;;;;;;;;;;;;"1250";"2014-10-12 10:30:47.794";"NST_correctLoc";"32";"0";"FINISHED";"LEFT";"success";"577";"0";"2014-10-12 10:30:46.543";"3";;;;;;;;;;;;;;;;;;;;;;;;;;;;;;;;;;;;;;;;;;;;;
"yolcapleb";"1993";;"Windows 8";"Rachel's Experiment (D.T.)";"1.0";"2";"1";"1";"2";"1";"1";"2014-10-12 10:25:36.132";"2014-10-12 10:37:58.176";"1";"0";"0";"87";"86";"module.training_block2.exec-4916.GoNoGo2";;;;;;;;;;;;;;;;;;;;;;;;;;;;;;;;;;;"1249";"2014-10-12 10:30:50.348";"NST_correctLoc";"21";"0";"FINISHED";"LEFT";"success";"406";"0";"2014-10-12 10:30:49.098";"3";;;;;;;;;;;;;;;;;;;;;;;;;;;;;;;;;;;;;;;;;;;;;
"yolcapleb";"1993";;"Windows 8";"Rachel's Experiment (D.T.)";"1.0";"2";"1";"1";"2";"1";"1";"2014-10-12 10:25:36.132";"2014-10-12 10:37:58.176";"1";"0";"0";"88";"87";"module.training_block3.exec-6712.GoNoGo3";;;;;;;;;;;;;;;;;;;;;;;;;;;;;;;;;;;;;;;;;;;;;;;"1250";"2014-10-12 10:31:01.562";"NST_correctLoc";"24";"0";"FINISHED";"LEFT";"success";"454";"0";"2014-10-12 10:31:00.312";"3";;;;;;;;;;;;;;;;;;;;;;;;;;;;;;;;;
"yolcapleb";"1993";;"Windows 8";"Rachel's Experiment (D.T.)";"1.0";"2";"1";"1";"2";"1";"1";"2014-10-12 10:25:36.132";"2014-10-12 10:37:58.176";"1";"0";"0";"89";"88";"module.training_block3.exec-6712.GoNoGo3";;;;;;;;;;;;;;;;;;;;;;;;;;;;;;;;;;;;;;;;;;;;;;;"1250";"2014-10-12 10:31:04.108";"NST_correctLoc";"9";"0";"FINISHED";"LEFT";"success";"474";"0";"2014-10-12 10:31:02.858";"2";;;;;;;;;;;;;;;;;;;;;;;;;;;;;;;;;
"yolcapleb";"1993";;"Windows 8";"Rachel's Experiment (D.T.)";"1.0";"2";"1";"1";"2";"1";"1";"2014-10-12 10:25:36.132";"2014-10-12 10:37:58.176";"1";"0";"0";"90";"89";"module.training_block3.exec-6712.GoNoGo3";;;;;;;;;;;;;;;;;;;;;;;;;;;;;;;;;;;;;;;;;;;;;;;"1250";"2014-10-12 10:31:06.655";"NST_correctLoc";"2";"0";"FINISHED";"LEFT";"success";"385";"0";"2014-10-12 10:31:05.405";"1";;;;;;;;;;;;;;;;;;;;;;;;;;;;;;;;;
"yolcapleb";"1993";;"Windows 8";"Rachel's Experiment (D.T.)";"1.0";"2";"1";"1";"2";"1";"1";"2014-10-12 10:25:36.132";"2014-10-12 10:37:58.176";"1";"0";"0";"91";"90";"module.training_block3.exec-6712.GoNoGo3";;;;;;;;;;;;;;;;;;;;;;;;;;;;;;;;;;;;;;;;;;;;;;;"1250";"2014-10-12 10:31:09.202";"NST_correctLoc";"20";"1";"FINISHED";"RIGHT";"success";"408";"0";"2014-10-12 10:31:07.951";"3";;;;;;;;;;;;;;;;;;;;;;;;;;;;;;;;;
"yolcapleb";"1993";;"Windows 8";"Rachel's Experiment (D.T.)";"1.0";"2";"1";"1";"2";"1";"1";"2014-10-12 10:25:36.132";"2014-10-12 10:37:58.176";"1";"0";"0";"92";"91";"module.training_block3.exec-6712.GoNoGo3";;;;;;;;;;;;;;;;;;;;;;;;;;;;;;;;;;;;;;;;;;;;;;;"1250";"2014-10-12 10:31:11.750";"NST_correctLoc";"13";"1";"FINISHED";"RIGHT";"success";"520";"0";"2014-10-12 10:31:10.499";"2";;;;;;;;;;;;;;;;;;;;;;;;;;;;;;;;;
"yolcapleb";"1993";;"Windows 8";"Rachel's Experiment (D.T.)";"1.0";"2";"1";"1";"2";"1";"1";"2014-10-12 10:25:36.132";"2014-10-12 10:37:58.176";"1";"0";"0";"93";"92";"module.training_block3.exec-6712.GoNoGo3";;;;;;;;;;;;;;;;;;;;;;;;;;;;;;;;;;;;;;;;;;;;;;;"1249";"2014-10-12 10:31:14.296";"NST_correctLoc";"6";"0";"FINISHED";"LEFT";"success";"380";"0";"2014-10-12 10:31:13.045";"1";;;;;;;;;;;;;;;;;;;;;;;;;;;;;;;;;
"yolcapleb";"1993";;"Windows 8";"Rachel's Experiment (D.T.)";"1.0";"2";"1";"1";"2";"1";"1";"2014-10-12 10:25:36.132";"2014-10-12 10:37:58.176";"1";"0";"0";"94";"93";"module.training_block3.exec-6712.GoNoGo3";;;;;;;;;;;;;;;;;;;;;;;;;;;;;;;;;;;;;;;;;;;;;;;"1250";"2014-10-12 10:31:16.842";"NST_correctLoc";"23";"0";"FINISHED";"LEFT";"success";"423";"0";"2014-10-12 10:31:15.591";"3";;;;;;;;;;;;;;;;;;;;;;;;;;;;;;;;;
"yolcapleb";"1993";;"Windows 8";"Rachel's Experiment (D.T.)";"1.0";"2";"1";"1";"2";"1";"1";"2014-10-12 10:25:36.132";"2014-10-12 10:37:58.176";"1";"0";"0";"95";"94";"module.training_block3.exec-6712.GoNoGo3";;;;;;;;;;;;;;;;;;;;;;;;;;;;;;;;;;;;;;;;;;;;;;;"1250";"2014-10-12 10:31:19.389";"NST_correctLoc";"5";"0";"FINISHED";"LEFT";"success";"454";"0";"2014-10-12 10:31:18.138";"1";;;;;;;;;;;;;;;;;;;;;;;;;;;;;;;;;
"yolcapleb";"1993";;"Windows 8";"Rachel's Experiment (D.T.)";"1.0";"2";"1";"1";"2";"1";"1";"2014-10-12 10:25:36.132";"2014-10-12 10:37:58.176";"1";"0";"0";"96";"95";"module.training_block3.exec-6712.GoNoGo3";;;;;;;;;;;;;;;;;;;;;;;;;;;;;;;;;;;;;;;;;;;;;;;"1250";"2014-10-12 10:31:21.935";"NST_correctLoc";"16";"1";"FINISHED";"RIGHT";"success";"422";"0";"2014-10-12 10:31:20.685";"2";;;;;;;;;;;;;;;;;;;;;;;;;;;;;;;;;
"yolcapleb";"1993";;"Windows 8";"Rachel's Experiment (D.T.)";"1.0";"2";"1";"1";"2";"1";"1";"2014-10-12 10:25:36.132";"2014-10-12 10:37:58.176";"1";"0";"0";"97";"96";"module.training_block3.exec-6712.GoNoGo3";;;;;;;;;;;;;;;;;;;;;;;;;;;;;;;;;;;;;;;;;;;;;;;"1250";"2014-10-12 10:31:24.482";"NST_correctLoc";"30";"1";"FINISHED";"RIGHT";"success";"480";"0";"2014-10-12 10:31:23.232";"3";;;;;;;;;;;;;;;;;;;;;;;;;;;;;;;;;
"yolcapleb";"1993";;"Windows 8";"Rachel's Experiment (D.T.)";"1.0";"2";"1";"1";"2";"1";"1";"2014-10-12 10:25:36.132";"2014-10-12 10:37:58.176";"1";"0";"0";"98";"97";"module.training_block3.exec-6712.GoNoGo3";;;;;;;;;;;;;;;;;;;;;;;;;;;;;;;;;;;;;;;;;;;;;;;"1250";"2014-10-12 10:31:27.029";"NST_correctLoc";"19";"1";"FINISHED";"RIGHT";"success";"411";"0";"2014-10-12 10:31:25.778";"3";;;;;;;;;;;;;;;;;;;;;;;;;;;;;;;;;
"yolcapleb";"1993";;"Windows 8";"Rachel's Experiment (D.T.)";"1.0";"2";"1";"1";"2";"1";"1";"2014-10-12 10:25:36.132";"2014-10-12 10:37:58.176";"1";"0";"0";"99";"98";"module.training_block3.exec-6712.GoNoGo3";;;;;;;;;;;;;;;;;;;;;;;;;;;;;;;;;;;;;;;;;;;;;;;"1250";"2014-10-12 10:31:29.575";"NST_correctLoc";"1";"0";"FINISHED";"LEFT";"success";"542";"0";"2014-10-12 10:31:28.325";"1";;;;;;;;;;;;;;;;;;;;;;;;;;;;;;;;;
"yolcapleb";"1993";;"Windows 8";"Rachel's Experiment (D.T.)";"1.0";"2";"1";"1";"2";"1";"1";"2014-10-12 10:25:36.132";"2014-10-12 10:37:58.176";"1";"0";"0";"100";"99";"module.training_block3.exec-6712.GoNoGo3";;;;;;;;;;;;;;;;;;;;;;;;;;;;;;;;;;;;;;;;;;;;;;;"1249";"2014-10-12 10:31:32.124";"NST_correctLoc";"22";"0";"FINISHED";"LEFT";"success";"421";"0";"2014-10-12 10:31:30.874";"3";;;;;;;;;;;;;;;;;;;;;;;;;;;;;;;;;
"yolcapleb";"1993";;"Windows 8";"Rachel's Experiment (D.T.)";"1.0";"2";"1";"1";"2";"1";"1";"2014-10-12 10:25:36.132";"2014-10-12 10:37:58.176";"1";"0";"0";"101";"100";"module.training_block3.exec-6712.GoNoGo3";;;;;;;;;;;;;;;;;;;;;;;;;;;;;;;;;;;;;;;;;;;;;;;"1250";"2014-10-12 10:31:34.670";"NST_correctLoc";"27";"0";"FINISHED";"LEFT";"success";"352";"0";"2014-10-12 10:31:33.420";"3";;;;;;;;;;;;;;;;;;;;;;;;;;;;;;;;;
"yolcapleb";"1993";;"Windows 8";"Rachel's Experiment (D.T.)";"1.0";"2";"1";"1";"2";"1";"1";"2014-10-12 10:25:36.132";"2014-10-12 10:37:58.176";"1";"0";"0";"102";"101";"module.training_block3.exec-6712.GoNoGo3";;;;;;;;;;;;;;;;;;;;;;;;;;;;;;;;;;;;;;;;;;;;;;;"1250";"2014-10-12 10:31:37.216";"NST_correctLoc";"11";"1";"FINISHED";"RIGHT";"success";"375";"0";"2014-10-12 10:31:35.966";"2";;;;;;;;;;;;;;;;;;;;;;;;;;;;;;;;;
"yolcapleb";"1993";;"Windows 8";"Rachel's Experiment (D.T.)";"1.0";"2";"1";"1";"2";"1";"1";"2014-10-12 10:25:36.132";"2014-10-12 10:37:58.176";"1";"0";"0";"103";"102";"module.training_block3.exec-6712.GoNoGo3";;;;;;;;;;;;;;;;;;;;;;;;;;;;;;;;;;;;;;;;;;;;;;;"1250";"2014-10-12 10:31:39.772";"NST_correctLoc";"10";"1";"FINISHED";"RIGHT";"success";"530";"0";"2014-10-12 10:31:38.521";"2";;;;;;;;;;;;;;;;;;;;;;;;;;;;;;;;;
"yolcapleb";"1993";;"Windows 8";"Rachel's Experiment (D.T.)";"1.0";"2";"1";"1";"2";"1";"1";"2014-10-12 10:25:36.132";"2014-10-12 10:37:58.176";"1";"0";"0";"104";"103";"module.training_block3.exec-6712.GoNoGo3";;;;;;;;;;;;;;;;;;;;;;;;;;;;;;;;;;;;;;;;;;;;;;;"1250";"2014-10-12 10:31:42.319";"NST_correctLoc";"35";"0";"FINISHED";"LEFT";"success";"483";"0";"2014-10-12 10:31:41.068";"3";;;;;;;;;;;;;;;;;;;;;;;;;;;;;;;;;
"yolcapleb";"1993";;"Windows 8";"Rachel's Experiment (D.T.)";"1.0";"2";"1";"1";"2";"1";"1";"2014-10-12 10:25:36.132";"2014-10-12 10:37:58.176";"1";"0";"0";"105";"104";"module.training_block3.exec-6712.GoNoGo3";;;;;;;;;;;;;;;;;;;;;;;;;;;;;;;;;;;;;;;;;;;;;;;"1250";"2014-10-12 10:31:44.866";"NST_correctLoc";"21";"1";"FINISHED";"RIGHT";"success";"513";"0";"2014-10-12 10:31:43.616";"3";;;;;;;;;;;;;;;;;;;;;;;;;;;;;;;;;
"yolcapleb";"1993";;"Windows 8";"Rachel's Experiment (D.T.)";"1.0";"2";"1";"1";"2";"1";"1";"2014-10-12 10:25:36.132";"2014-10-12 10:37:58.176";"1";"0";"0";"106";"105";"module.training_block3.exec-6712.GoNoGo3";;;;;;;;;;;;;;;;;;;;;;;;;;;;;;;;;;;;;;;;;;;;;;;"1250";"2014-10-12 10:31:47.413";"NST_correctLoc";"18";"1";"FINISHED";"RIGHT";"success";"416";"0";"2014-10-12 10:31:46.162";"3";;;;;;;;;;;;;;;;;;;;;;;;;;;;;;;;;
"yolcapleb";"1993";;"Windows 8";"Rachel's Experiment (D.T.)";"1.0";"2";"1";"1";"2";"1";"1";"2014-10-12 10:25:36.132";"2014-10-12 10:37:58.176";"1";"0";"0";"107";"106";"module.training_block3.exec-6712.GoNoGo3";;;;;;;;;;;;;;;;;;;;;;;;;;;;;;;;;;;;;;;;;;;;;;;"1249";"2014-10-12 10:31:49.960";"NST_correctLoc";"8";"0";"FINISHED";"LEFT";"success";"514";"0";"2014-10-12 10:31:48.710";"1";;;;;;;;;;;;;;;;;;;;;;;;;;;;;;;;;
"yolcapleb";"1993";;"Windows 8";"Rachel's Experiment (D.T.)";"1.0";"2";"1";"1";"2";"1";"1";"2014-10-12 10:25:36.132";"2014-10-12 10:37:58.176";"1";"0";"0";"108";"107";"module.training_block3.exec-6712.GoNoGo3";;;;;;;;;;;;;;;;;;;;;;;;;;;;;;;;;;;;;;;;;;;;;;;"1250";"2014-10-12 10:31:52.506";"NST_correctLoc";"0";"1";"FINISHED";"RIGHT";"success";"435";"0";"2014-10-12 10:31:51.255";"1";;;;;;;;;;;;;;;;;;;;;;;;;;;;;;;;;
"yolcapleb";"1993";;"Windows 8";"Rachel's Experiment (D.T.)";"1.0";"2";"1";"1";"2";"1";"1";"2014-10-12 10:25:36.132";"2014-10-12 10:37:58.176";"1";"0";"0";"109";"108";"module.training_block3.exec-6712.GoNoGo3";;;;;;;;;;;;;;;;;;;;;;;;;;;;;;;;;;;;;;;;;;;;;;;"1250";"2014-10-12 10:31:55.053";"NST_correctLoc";"17";"0";"FINISHED";"LEFT";"success";"419";"0";"2014-10-12 10:31:53.802";"2";;;;;;;;;;;;;;;;;;;;;;;;;;;;;;;;;
"yolcapleb";"1993";;"Windows 8";"Rachel's Experiment (D.T.)";"1.0";"2";"1";"1";"2";"1";"1";"2014-10-12 10:25:36.132";"2014-10-12 10:37:58.176";"1";"0";"0";"110";"109";"module.training_block3.exec-6712.GoNoGo3";;;;;;;;;;;;;;;;;;;;;;;;;;;;;;;;;;;;;;;;;;;;;;;"1250";"2014-10-12 10:31:57.601";"NST_correctLoc";"28";"0";"FINISHED";"LEFT";"success";"407";"0";"2014-10-12 10:31:56.350";"3";;;;;;;;;;;;;;;;;;;;;;;;;;;;;;;;;
"yolcapleb";"1993";;"Windows 8";"Rachel's Experiment (D.T.)";"1.0";"2";"1";"1";"2";"1";"1";"2014-10-12 10:25:36.132";"2014-10-12 10:37:58.176";"1";"0";"0";"111";"110";"module.training_block3.exec-6712.GoNoGo3";;;;;;;;;;;;;;;;;;;;;;;;;;;;;;;;;;;;;;;;;;;;;;;"1249";"2014-10-12 10:32:00.145";"NST_correctLoc";"14";"0";"FINISHED";"LEFT";"success";"381";"0";"2014-10-12 10:31:58.895";"2";;;;;;;;;;;;;;;;;;;;;;;;;;;;;;;;;
"yolcapleb";"1993";;"Windows 8";"Rachel's Experiment (D.T.)";"1.0";"2";"1";"1";"2";"1";"1";"2014-10-12 10:25:36.132";"2014-10-12 10:37:58.176";"1";"0";"0";"112";"111";"module.training_block3.exec-6712.GoNoGo3";;;;;;;;;;;;;;;;;;;;;;;;;;;;;;;;;;;;;;;;;;;;;;;"1250";"2014-10-12 10:32:02.695";"NST_correctLoc";"34";"0";"FINISHED";"LEFT";"success";"524";"0";"2014-10-12 10:32:01.444";"3";;;;;;;;;;;;;;;;;;;;;;;;;;;;;;;;;
"yolcapleb";"1993";;"Windows 8";"Rachel's Experiment (D.T.)";"1.0";"2";"1";"1";"2";"1";"1";"2014-10-12 10:25:36.132";"2014-10-12 10:37:58.176";"1";"0";"0";"113";"112";"module.training_block3.exec-6712.GoNoGo3";;;;;;;;;;;;;;;;;;;;;;;;;;;;;;;;;;;;;;;;;;;;;;;"1249";"2014-10-12 10:32:05.241";"NST_correctLoc";"26";"1";"FINISHED";"RIGHT";"success";"498";"0";"2014-10-12 10:32:03.991";"3";;;;;;;;;;;;;;;;;;;;;;;;;;;;;;;;;
"yolcapleb";"1993";;"Windows 8";"Rachel's Experiment (D.T.)";"1.0";"2";"1";"1";"2";"1";"1";"2014-10-12 10:25:36.132";"2014-10-12 10:37:58.176";"1";"0";"0";"114";"113";"module.training_block3.exec-6712.GoNoGo3";;;;;;;;;;;;;;;;;;;;;;;;;;;;;;;;;;;;;;;;;;;;;;;"1249";"2014-10-12 10:32:07.795";"NST_correctLoc";"31";"1";"FINISHED";"RIGHT";"success";"536";"0";"2014-10-12 10:32:06.544";"3";;;;;;;;;;;;;;;;;;;;;;;;;;;;;;;;;
"yolcapleb";"1993";;"Windows 8";"Rachel's Experiment (D.T.)";"1.0";"2";"1";"1";"2";"1";"1";"2014-10-12 10:25:36.132";"2014-10-12 10:37:58.176";"1";"0";"0";"115";"114";"module.training_block3.exec-6712.GoNoGo3";;;;;;;;;;;;;;;;;;;;;;;;;;;;;;;;;;;;;;;;;;;;;;;"1250";"2014-10-12 10:32:10.342";"NST_correctLoc";"25";"1";"FINISHED";"RIGHT";"success";"510";"0";"2014-10-12 10:32:09.091";"3";;;;;;;;;;;;;;;;;;;;;;;;;;;;;;;;;
"yolcapleb";"1993";;"Windows 8";"Rachel's Experiment (D.T.)";"1.0";"2";"1";"1";"2";"1";"1";"2014-10-12 10:25:36.132";"2014-10-12 10:37:58.176";"1";"0";"0";"116";"115";"module.training_block3.exec-6712.GoNoGo3";;;;;;;;;;;;;;;;;;;;;;;;;;;;;;;;;;;;;;;;;;;;;;;"1249";"2014-10-12 10:32:12.888";"NST_correctLoc";"15";"0";"FINISHED";"LEFT";"success";"424";"0";"2014-10-12 10:32:11.638";"2";;;;;;;;;;;;;;;;;;;;;;;;;;;;;;;;;
"yolcapleb";"1993";;"Windows 8";"Rachel's Experiment (D.T.)";"1.0";"2";"1";"1";"2";"1";"1";"2014-10-12 10:25:36.132";"2014-10-12 10:37:58.176";"1";"0";"0";"117";"116";"module.training_block3.exec-6712.GoNoGo3";;;;;;;;;;;;;;;;;;;;;;;;;;;;;;;;;;;;;;;;;;;;;;;"1250";"2014-10-12 10:32:15.435";"NST_correctLoc";"7";"1";"FINISHED";"RIGHT";"success";"404";"0";"2014-10-12 10:32:14.184";"1";;;;;;;;;;;;;;;;;;;;;;;;;;;;;;;;;
"yolcapleb";"1993";;"Windows 8";"Rachel's Experiment (D.T.)";"1.0";"2";"1";"1";"2";"1";"1";"2014-10-12 10:25:36.132";"2014-10-12 10:37:58.176";"1";"0";"0";"118";"117";"module.training_block3.exec-6712.GoNoGo3";;;;;;;;;;;;;;;;;;;;;;;;;;;;;;;;;;;;;;;;;;;;;;;"1249";"2014-10-12 10:32:17.981";"NST_correctLoc";"12";"1";"FINISHED";"RIGHT";"success";"451";"0";"2014-10-12 10:32:16.731";"2";;;;;;;;;;;;;;;;;;;;;;;;;;;;;;;;;
"yolcapleb";"1993";;"Windows 8";"Rachel's Experiment (D.T.)";"1.0";"2";"1";"1";"2";"1";"1";"2014-10-12 10:25:36.132";"2014-10-12 10:37:58.176";"1";"0";"0";"119";"118";"module.training_block3.exec-6712.GoNoGo3";;;;;;;;;;;;;;;;;;;;;;;;;;;;;;;;;;;;;;;;;;;;;;;"1250";"2014-10-12 10:32:20.527";"NST_correctLoc";"4";"1";"FINISHED";"RIGHT";"success";"476";"0";"2014-10-12 10:32:19.277";"1";;;;;;;;;;;;;;;;;;;;;;;;;;;;;;;;;
"yolcapleb";"1993";;"Windows 8";"Rachel's Experiment (D.T.)";"1.0";"2";"1";"1";"2";"1";"1";"2014-10-12 10:25:36.132";"2014-10-12 10:37:58.176";"1";"0";"0";"120";"119";"module.training_block3.exec-6712.GoNoGo3";;;;;;;;;;;;;;;;;;;;;;;;;;;;;;;;;;;;;;;;;;;;;;;"1250";"2014-10-12 10:32:23.080";"NST_correctLoc";"3";"0";"FINISHED";"LEFT";"success";"434";"0";"2014-10-12 10:32:21.829";"1";;;;;;;;;;;;;;;;;;;;;;;;;;;;;;;;;
"yolcapleb";"1993";;"Windows 8";"Rachel's Experiment (D.T.)";"1.0";"2";"1";"1";"2";"1";"1";"2014-10-12 10:25:36.132";"2014-10-12 10:37:58.176";"1";"0";"0";"121";"120";"module.training_block3.exec-6712.GoNoGo3";;;;;;;;;;;;;;;;;;;;;;;;;;;;;;;;;;;;;;;;;;;;;;;"1250";"2014-10-12 10:32:25.625";"NST_correctLoc";"29";"1";"FINISHED";"RIGHT";"success";"430";"0";"2014-10-12 10:32:24.374";"3";;;;;;;;;;;;;;;;;;;;;;;;;;;;;;;;;
"yolcapleb";"1993";;"Windows 8";"Rachel's Experiment (D.T.)";"1.0";"2";"1";"1";"2";"1";"1";"2014-10-12 10:25:36.132";"2014-10-12 10:37:58.176";"1";"0";"0";"122";"121";"module.training_block3.exec-6712.GoNoGo3";;;;;;;;;;;;;;;;;;;;;;;;;;;;;;;;;;;;;;;;;;;;;;;"1250";"2014-10-12 10:32:28.171";"NST_correctLoc";"33";"0";"FINISHED";"LEFT";"success";"451";"0";"2014-10-12 10:32:26.920";"3";;;;;;;;;;;;;;;;;;;;;;;;;;;;;;;;;
"yolcapleb";"1993";;"Windows 8";"Rachel's Experiment (D.T.)";"1.0";"2";"1";"1";"2";"1";"1";"2014-10-12 10:25:36.132";"2014-10-12 10:37:58.176";"1";"0";"0";"123";"122";"module.training_block3.exec-6712.GoNoGo3";;;;;;;;;;;;;;;;;;;;;;;;;;;;;;;;;;;;;;;;;;;;;;;"1250";"2014-10-12 10:32:30.717";"NST_correctLoc";"32";"1";"FINISHED";"RIGHT";"success";"363";"0";"2014-10-12 10:32:29.467";"3";;;;;;;;;;;;;;;;;;;;;;;;;;;;;;;;;
"yolcapleb";"1993";;"Windows 8";"Rachel's Experiment (D.T.)";"1.0";"2";"1";"1";"2";"1";"1";"2014-10-12 10:25:36.132";"2014-10-12 10:37:58.176";"1";"0";"0";"124";"123";"module.training_block4.exec-7082.GoNoGo4";;;;;;;;;;;;;;;;;;;;;;;;;;;;;;;;;;;;;;;;;;;;;;;;;;;;;;;;;;;"1250";"2014-10-12 10:32:40.798";"NST_correctLoc";"35";"0";"FINISHED";"LEFT";"success";"457";"0";"2014-10-12 10:32:39.547";"3";;;;;;;;;;;;;;;;;;;;;
"yolcapleb";"1993";;"Windows 8";"Rachel's Experiment (D.T.)";"1.0";"2";"1";"1";"2";"1";"1";"2014-10-12 10:25:36.132";"2014-10-12 10:37:58.176";"1";"0";"0";"125";"124";"module.training_block4.exec-7082.GoNoGo4";;;;;;;;;;;;;;;;;;;;;;;;;;;;;;;;;;;;;;;;;;;;;;;;;;;;;;;;;;;"1249";"2014-10-12 10:32:43.344";"NST_correctLoc";"24";"1";"FINISHED";"RIGHT";"success";"436";"0";"2014-10-12 10:32:42.094";"3";;;;;;;;;;;;;;;;;;;;;
"yolcapleb";"1993";;"Windows 8";"Rachel's Experiment (D.T.)";"1.0";"2";"1";"1";"2";"1";"1";"2014-10-12 10:25:36.132";"2014-10-12 10:37:58.176";"1";"0";"0";"126";"125";"module.training_block4.exec-7082.GoNoGo4";;;;;;;;;;;;;;;;;;;;;;;;;;;;;;;;;;;;;;;;;;;;;;;;;;;;;;;;;;;"1250";"2014-10-12 10:32:45.889";"NST_correctLoc";"10";"0";"FINISHED";"LEFT";"success";"424";"0";"2014-10-12 10:32:44.638";"2";;;;;;;;;;;;;;;;;;;;;
"yolcapleb";"1993";;"Windows 8";"Rachel's Experiment (D.T.)";"1.0";"2";"1";"1";"2";"1";"1";"2014-10-12 10:25:36.132";"2014-10-12 10:37:58.176";"1";"0";"0";"127";"126";"module.training_block4.exec-7082.GoNoGo4";;;;;;;;;;;;;;;;;;;;;;;;;;;;;;;;;;;;;;;;;;;;;;;;;;;;;;;;;;;"1249";"2014-10-12 10:32:48.432";"NST_correctLoc";"30";"0";"FINISHED";"LEFT";"success";"403";"0";"2014-10-12 10:32:47.182";"3";;;;;;;;;;;;;;;;;;;;;
"yolcapleb";"1993";;"Windows 8";"Rachel's Experiment (D.T.)";"1.0";"2";"1";"1";"2";"1";"1";"2014-10-12 10:25:36.132";"2014-10-12 10:37:58.176";"1";"0";"0";"128";"127";"module.training_block4.exec-7082.GoNoGo4";;;;;;;;;;;;;;;;;;;;;;;;;;;;;;;;;;;;;;;;;;;;;;;;;;;;;;;;;;;"1250";"2014-10-12 10:32:50.978";"NST_correctLoc";"13";"1";"FINISHED";"RIGHT";"success";"381";"0";"2014-10-12 10:32:49.727";"2";;;;;;;;;;;;;;;;;;;;;
"yolcapleb";"1993";;"Windows 8";"Rachel's Experiment (D.T.)";"1.0";"2";"1";"1";"2";"1";"1";"2014-10-12 10:25:36.132";"2014-10-12 10:37:58.176";"1";"0";"0";"129";"128";"module.training_block4.exec-7082.GoNoGo4";;;;;;;;;;;;;;;;;;;;;;;;;;;;;;;;;;;;;;;;;;;;;;;;;;;;;;;;;;;"1250";"2014-10-12 10:32:53.523";"NST_correctLoc";"5";"1";"FINISHED";"RIGHT";"success";"433";"0";"2014-10-12 10:32:52.272";"1";;;;;;;;;;;;;;;;;;;;;
"yolcapleb";"1993";;"Windows 8";"Rachel's Experiment (D.T.)";"1.0";"2";"1";"1";"2";"1";"1";"2014-10-12 10:25:36.132";"2014-10-12 10:37:58.176";"1";"0";"0";"130";"129";"module.training_block4.exec-7082.GoNoGo4";;;;;;;;;;;;;;;;;;;;;;;;;;;;;;;;;;;;;;;;;;;;;;;;;;;;;;;;;;;"1250";"2014-10-12 10:32:56.068";"NST_correctLoc";"0";"0";"FINISHED";"LEFT";"success";"457";"0";"2014-10-12 10:32:54.817";"1";;;;;;;;;;;;;;;;;;;;;
"yolcapleb";"1993";;"Windows 8";"Rachel's Experiment (D.T.)";"1.0";"2";"1";"1";"2";"1";"1";"2014-10-12 10:25:36.132";"2014-10-12 10:37:58.176";"1";"0";"0";"131";"130";"module.training_block4.exec-7082.GoNoGo4";;;;;;;;;;;;;;;;;;;;;;;;;;;;;;;;;;;;;;;;;;;;;;;;;;;;;;;;;;;"1250";"2014-10-12 10:32:58.612";"NST_correctLoc";"29";"1";"FINISHED";"RIGHT";"success";"402";"0";"2014-10-12 10:32:57.362";"3";;;;;;;;;;;;;;;;;;;;;
"yolcapleb";"1993";;"Windows 8";"Rachel's Experiment (D.T.)";"1.0";"2";"1";"1";"2";"1";"1";"2014-10-12 10:25:36.132";"2014-10-12 10:37:58.176";"1";"0";"0";"132";"131";"module.training_block4.exec-7082.GoNoGo4";;;;;;;;;;;;;;;;;;;;;;;;;;;;;;;;;;;;;;;;;;;;;;;;;;;;;;;;;;;"1250";"2014-10-12 10:33:01.156";"NST_correctLoc";"23";"1";"FINISHED";"RIGHT";"success";"467";"0";"2014-10-12 10:32:59.906";"3";;;;;;;;;;;;;;;;;;;;;
"yolcapleb";"1993";;"Windows 8";"Rachel's Experiment (D.T.)";"1.0";"2";"1";"1";"2";"1";"1";"2014-10-12 10:25:36.132";"2014-10-12 10:37:58.176";"1";"0";"0";"133";"132";"module.training_block4.exec-7082.GoNoGo4";;;;;;;;;;;;;;;;;;;;;;;;;;;;;;;;;;;;;;;;;;;;;;;;;;;;;;;;;;;"1249";"2014-10-12 10:33:03.700";"NST_correctLoc";"11";"0";"FINISHED";"LEFT";"success";"446";"0";"2014-10-12 10:33:02.449";"2";;;;;;;;;;;;;;;;;;;;;
"yolcapleb";"1993";;"Windows 8";"Rachel's Experiment (D.T.)";"1.0";"2";"1";"1";"2";"1";"1";"2014-10-12 10:25:36.132";"2014-10-12 10:37:58.176";"1";"0";"0";"134";"133";"module.training_block4.exec-7082.GoNoGo4";;;;;;;;;;;;;;;;;;;;;;;;;;;;;;;;;;;;;;;;;;;;;;;;;;;;;;;;;;;"1250";"2014-10-12 10:33:06.245";"NST_correctLoc";"17";"1";"FINISHED";"RIGHT";"success";"407";"0";"2014-10-12 10:33:04.994";"2";;;;;;;;;;;;;;;;;;;;;
"yolcapleb";"1993";;"Windows 8";"Rachel's Experiment (D.T.)";"1.0";"2";"1";"1";"2";"1";"1";"2014-10-12 10:25:36.132";"2014-10-12 10:37:58.176";"1";"0";"0";"135";"134";"module.training_block4.exec-7082.GoNoGo4";;;;;;;;;;;;;;;;;;;;;;;;;;;;;;;;;;;;;;;;;;;;;;;;;;;;;;;;;;;"1250";"2014-10-12 10:33:08.789";"NST_correctLoc";"15";"1";"FINISHED";"RIGHT";"success";"486";"0";"2014-10-12 10:33:07.538";"2";;;;;;;;;;;;;;;;;;;;;
"yolcapleb";"1993";;"Windows 8";"Rachel's Experiment (D.T.)";"1.0";"2";"1";"1";"2";"1";"1";"2014-10-12 10:25:36.132";"2014-10-12 10:37:58.176";"1";"0";"0";"136";"135";"module.training_block4.exec-7082.GoNoGo4";;;;;;;;;;;;;;;;;;;;;;;;;;;;;;;;;;;;;;;;;;;;;;;;;;;;;;;;;;;"1249";"2014-10-12 10:33:11.345";"NST_correctLoc";"7";"1";"FINISHED";"RIGHT";"success";"409";"0";"2014-10-12 10:33:10.095";"1";;;;;;;;;;;;;;;;;;;;;
"yolcapleb";"1993";;"Windows 8";"Rachel's Experiment (D.T.)";"1.0";"2";"1";"1";"2";"1";"1";"2014-10-12 10:25:36.132";"2014-10-12 10:37:58.176";"1";"0";"0";"137";"136";"module.training_block4.exec-7082.GoNoGo4";;;;;;;;;;;;;;;;;;;;;;;;;;;;;;;;;;;;;;;;;;;;;;;;;;;;;;;;;;;"1249";"2014-10-12 10:33:13.889";"NST_correctLoc";"27";"1";"FINISHED";"RIGHT";"success";"352";"0";"2014-10-12 10:33:12.639";"3";;;;;;;;;;;;;;;;;;;;;
"yolcapleb";"1993";;"Windows 8";"Rachel's Experiment (D.T.)";"1.0";"2";"1";"1";"2";"1";"1";"2014-10-12 10:25:36.132";"2014-10-12 10:37:58.176";"1";"0";"0";"138";"137";"module.training_block4.exec-7082.GoNoGo4";;;;;;;;;;;;;;;;;;;;;;;;;;;;;;;;;;;;;;;;;;;;;;;;;;;;;;;;;;;"1250";"2014-10-12 10:33:16.433";"NST_correctLoc";"9";"0";"FINISHED";"LEFT";"success";"382";"0";"2014-10-12 10:33:15.182";"2";;;;;;;;;;;;;;;;;;;;;
"yolcapleb";"1993";;"Windows 8";"Rachel's Experiment (D.T.)";"1.0";"2";"1";"1";"2";"1";"1";"2014-10-12 10:25:36.132";"2014-10-12 10:37:58.176";"1";"0";"0";"139";"138";"module.training_block4.exec-7082.GoNoGo4";;;;;;;;;;;;;;;;;;;;;;;;;;;;;;;;;;;;;;;;;;;;;;;;;;;;;;;;;;;"1250";"2014-10-12 10:33:18.976";"NST_correctLoc";"2";"0";"FINISHED";"LEFT";"success";"383";"0";"2014-10-12 10:33:17.725";"1";;;;;;;;;;;;;;;;;;;;;
"yolcapleb";"1993";;"Windows 8";"Rachel's Experiment (D.T.)";"1.0";"2";"1";"1";"2";"1";"1";"2014-10-12 10:25:36.132";"2014-10-12 10:37:58.176";"1";"0";"0";"140";"139";"module.training_block4.exec-7082.GoNoGo4";;;;;;;;;;;;;;;;;;;;;;;;;;;;;;;;;;;;;;;;;;;;;;;;;;;;;;;;;;;"1250";"2014-10-12 10:33:21.517";"NST_correctLoc";"4";"0";"FINISHED";"LEFT";"success";"412";"0";"2014-10-12 10:33:20.267";"1";;;;;;;;;;;;;;;;;;;;;
"yolcapleb";"1993";;"Windows 8";"Rachel's Experiment (D.T.)";"1.0";"2";"1";"1";"2";"1";"1";"2014-10-12 10:25:36.132";"2014-10-12 10:37:58.176";"1";"0";"0";"141";"140";"module.training_block4.exec-7082.GoNoGo4";;;;;;;;;;;;;;;;;;;;;;;;;;;;;;;;;;;;;;;;;;;;;;;;;;;;;;;;;;;"1249";"2014-10-12 10:33:24.059";"NST_correctLoc";"21";"1";"FINISHED";"RIGHT";"success";"398";"0";"2014-10-12 10:33:22.809";"3";;;;;;;;;;;;;;;;;;;;;
"yolcapleb";"1993";;"Windows 8";"Rachel's Experiment (D.T.)";"1.0";"2";"1";"1";"2";"1";"1";"2014-10-12 10:25:36.132";"2014-10-12 10:37:58.176";"1";"0";"0";"142";"141";"module.training_block4.exec-7082.GoNoGo4";;;;;;;;;;;;;;;;;;;;;;;;;;;;;;;;;;;;;;;;;;;;;;;;;;;;;;;;;;;"1250";"2014-10-12 10:33:26.603";"NST_correctLoc";"16";"1";"FINISHED";"RIGHT";"success";"512";"0";"2014-10-12 10:33:25.353";"2";;;;;;;;;;;;;;;;;;;;;
"yolcapleb";"1993";;"Windows 8";"Rachel's Experiment (D.T.)";"1.0";"2";"1";"1";"2";"1";"1";"2014-10-12 10:25:36.132";"2014-10-12 10:37:58.176";"1";"0";"0";"143";"142";"module.training_block4.exec-7082.GoNoGo4";;;;;;;;;;;;;;;;;;;;;;;;;;;;;;;;;;;;;;;;;;;;;;;;;;;;;;;;;;;"1250";"2014-10-12 10:33:29.146";"NST_correctLoc";"22";"1";"FINISHED";"RIGHT";"success";"456";"0";"2014-10-12 10:33:27.895";"3";;;;;;;;;;;;;;;;;;;;;
"yolcapleb";"1993";;"Windows 8";"Rachel's Experiment (D.T.)";"1.0";"2";"1";"1";"2";"1";"1";"2014-10-12 10:25:36.132";"2014-10-12 10:37:58.176";"1";"0";"0";"144";"143";"module.training_block4.exec-7082.GoNoGo4";;;;;;;;;;;;;;;;;;;;;;;;;;;;;;;;;;;;;;;;;;;;;;;;;;;;;;;;;;;"1249";"2014-10-12 10:33:31.687";"NST_correctLoc";"14";"0";"FINISHED";"LEFT";"success";"588";"0";"2014-10-12 10:33:30.437";"2";;;;;;;;;;;;;;;;;;;;;
"yolcapleb";"1993";;"Windows 8";"Rachel's Experiment (D.T.)";"1.0";"2";"1";"1";"2";"1";"1";"2014-10-12 10:25:36.132";"2014-10-12 10:37:58.176";"1";"0";"0";"145";"144";"module.training_block4.exec-7082.GoNoGo4";;;;;;;;;;;;;;;;;;;;;;;;;;;;;;;;;;;;;;;;;;;;;;;;;;;;;;;;;;;"1249";"2014-10-12 10:33:34.229";"NST_correctLoc";"34";"0";"FINISHED";"LEFT";"success";"564";"0";"2014-10-12 10:33:32.979";"3";;;;;;;;;;;;;;;;;;;;;
"yolcapleb";"1993";;"Windows 8";"Rachel's Experiment (D.T.)";"1.0";"2";"1";"1";"2";"1";"1";"2014-10-12 10:25:36.132";"2014-10-12 10:37:58.176";"1";"0";"0";"146";"145";"module.training_block4.exec-7082.GoNoGo4";;;;;;;;;;;;;;;;;;;;;;;;;;;;;;;;;;;;;;;;;;;;;;;;;;;;;;;;;;;"1250";"2014-10-12 10:33:36.773";"NST_correctLoc";"19";"1";"FINISHED";"RIGHT";"success";"457";"0";"2014-10-12 10:33:35.522";"3";;;;;;;;;;;;;;;;;;;;;
"yolcapleb";"1993";;"Windows 8";"Rachel's Experiment (D.T.)";"1.0";"2";"1";"1";"2";"1";"1";"2014-10-12 10:25:36.132";"2014-10-12 10:37:58.176";"1";"0";"0";"147";"146";"module.training_block4.exec-7082.GoNoGo4";;;;;;;;;;;;;;;;;;;;;;;;;;;;;;;;;;;;;;;;;;;;;;;;;;;;;;;;;;;"1249";"2014-10-12 10:33:39.316";"NST_correctLoc";"28";"1";"FINISHED";"RIGHT";"success";"399";"0";"2014-10-12 10:33:38.065";"3";;;;;;;;;;;;;;;;;;;;;
"yolcapleb";"1993";;"Windows 8";"Rachel's Experiment (D.T.)";"1.0";"2";"1";"1";"2";"1";"1";"2014-10-12 10:25:36.132";"2014-10-12 10:37:58.176";"1";"0";"0";"148";"147";"module.training_block4.exec-7082.GoNoGo4";;;;;;;;;;;;;;;;;;;;;;;;;;;;;;;;;;;;;;;;;;;;;;;;;;;;;;;;;;;"1250";"2014-10-12 10:33:41.865";"NST_correctLoc";"32";"1";"FINISHED";"RIGHT";"success";"469";"0";"2014-10-12 10:33:40.614";"3";;;;;;;;;;;;;;;;;;;;;
"yolcapleb";"1993";;"Windows 8";"Rachel's Experiment (D.T.)";"1.0";"2";"1";"1";"2";"1";"1";"2014-10-12 10:25:36.132";"2014-10-12 10:37:58.176";"1";"0";"0";"149";"148";"module.training_block4.exec-7082.GoNoGo4";;;;;;;;;;;;;;;;;;;;;;;;;;;;;;;;;;;;;;;;;;;;;;;;;;;;;;;;;;;"1250";"2014-10-12 10:33:44.409";"NST_correctLoc";"18";"0";"FINISHED";"LEFT";"success";"390";"0";"2014-10-12 10:33:43.158";"3";;;;;;;;;;;;;;;;;;;;;
"yolcapleb";"1993";;"Windows 8";"Rachel's Experiment (D.T.)";"1.0";"2";"1";"1";"2";"1";"1";"2014-10-12 10:25:36.132";"2014-10-12 10:37:58.176";"1";"0";"0";"150";"149";"module.training_block4.exec-7082.GoNoGo4";;;;;;;;;;;;;;;;;;;;;;;;;;;;;;;;;;;;;;;;;;;;;;;;;;;;;;;;;;;"1250";"2014-10-12 10:33:46.951";"NST_correctLoc";"12";"1";"FINISHED";"RIGHT";"success";"359";"0";"2014-10-12 10:33:45.701";"2";;;;;;;;;;;;;;;;;;;;;
"yolcapleb";"1993";;"Windows 8";"Rachel's Experiment (D.T.)";"1.0";"2";"1";"1";"2";"1";"1";"2014-10-12 10:25:36.132";"2014-10-12 10:37:58.176";"1";"0";"0";"151";"150";"module.training_block4.exec-7082.GoNoGo4";;;;;;;;;;;;;;;;;;;;;;;;;;;;;;;;;;;;;;;;;;;;;;;;;;;;;;;;;;;"1250";"2014-10-12 10:33:49.494";"NST_correctLoc";"25";"1";"FINISHED";"RIGHT";"success";"449";"0";"2014-10-12 10:33:48.243";"3";;;;;;;;;;;;;;;;;;;;;
"yolcapleb";"1993";;"Windows 8";"Rachel's Experiment (D.T.)";"1.0";"2";"1";"1";"2";"1";"1";"2014-10-12 10:25:36.132";"2014-10-12 10:37:58.176";"1";"0";"0";"152";"151";"module.training_block4.exec-7082.GoNoGo4";;;;;;;;;;;;;;;;;;;;;;;;;;;;;;;;;;;;;;;;;;;;;;;;;;;;;;;;;;;"1250";"2014-10-12 10:33:52.035";"NST_correctLoc";"26";"1";"FINISHED";"RIGHT";"success";"476";"0";"2014-10-12 10:33:50.785";"3";;;;;;;;;;;;;;;;;;;;;
"yolcapleb";"1993";;"Windows 8";"Rachel's Experiment (D.T.)";"1.0";"2";"1";"1";"2";"1";"1";"2014-10-12 10:25:36.132";"2014-10-12 10:37:58.176";"1";"0";"0";"153";"152";"module.training_block4.exec-7082.GoNoGo4";;;;;;;;;;;;;;;;;;;;;;;;;;;;;;;;;;;;;;;;;;;;;;;;;;;;;;;;;;;"1250";"2014-10-12 10:33:54.579";"NST_correctLoc";"20";"0";"FINISHED";"LEFT";"success";"369";"0";"2014-10-12 10:33:53.328";"3";;;;;;;;;;;;;;;;;;;;;
"yolcapleb";"1993";;"Windows 8";"Rachel's Experiment (D.T.)";"1.0";"2";"1";"1";"2";"1";"1";"2014-10-12 10:25:36.132";"2014-10-12 10:37:58.176";"1";"0";"0";"154";"153";"module.training_block4.exec-7082.GoNoGo4";;;;;;;;;;;;;;;;;;;;;;;;;;;;;;;;;;;;;;;;;;;;;;;;;;;;;;;;;;;"1249";"2014-10-12 10:33:57.121";"NST_correctLoc";"33";"1";"FINISHED";"RIGHT";"success";"340";"0";"2014-10-12 10:33:55.871";"3";;;;;;;;;;;;;;;;;;;;;
"yolcapleb";"1993";;"Windows 8";"Rachel's Experiment (D.T.)";"1.0";"2";"1";"1";"2";"1";"1";"2014-10-12 10:25:36.132";"2014-10-12 10:37:58.176";"1";"0";"0";"155";"154";"module.training_block4.exec-7082.GoNoGo4";;;;;;;;;;;;;;;;;;;;;;;;;;;;;;;;;;;;;;;;;;;;;;;;;;;;;;;;;;;"1250";"2014-10-12 10:33:59.663";"NST_correctLoc";"31";"1";"FINISHED";"RIGHT";"success";"493";"0";"2014-10-12 10:33:58.412";"3";;;;;;;;;;;;;;;;;;;;;
"yolcapleb";"1993";;"Windows 8";"Rachel's Experiment (D.T.)";"1.0";"2";"1";"1";"2";"1";"1";"2014-10-12 10:25:36.132";"2014-10-12 10:37:58.176";"1";"0";"0";"156";"155";"module.training_block4.exec-7082.GoNoGo4";;;;;;;;;;;;;;;;;;;;;;;;;;;;;;;;;;;;;;;;;;;;;;;;;;;;;;;;;;;"1250";"2014-10-12 10:34:02.204";"NST_correctLoc";"3";"1";"FINISHED";"RIGHT";"success";"460";"0";"2014-10-12 10:34:00.954";"1";;;;;;;;;;;;;;;;;;;;;
"yolcapleb";"1993";;"Windows 8";"Rachel's Experiment (D.T.)";"1.0";"2";"1";"1";"2";"1";"1";"2014-10-12 10:25:36.132";"2014-10-12 10:37:58.176";"1";"0";"0";"157";"156";"module.training_block4.exec-7082.GoNoGo4";;;;;;;;;;;;;;;;;;;;;;;;;;;;;;;;;;;;;;;;;;;;;;;;;;;;;;;;;;;"1249";"2014-10-12 10:34:04.747";"NST_correctLoc";"6";"1";"FINISHED";"RIGHT";"success";"442";"0";"2014-10-12 10:34:03.497";"1";;;;;;;;;;;;;;;;;;;;;
"yolcapleb";"1993";;"Windows 8";"Rachel's Experiment (D.T.)";"1.0";"2";"1";"1";"2";"1";"1";"2014-10-12 10:25:36.132";"2014-10-12 10:37:58.176";"1";"0";"0";"158";"157";"module.training_block4.exec-7082.GoNoGo4";;;;;;;;;;;;;;;;;;;;;;;;;;;;;;;;;;;;;;;;;;;;;;;;;;;;;;;;;;;"1250";"2014-10-12 10:34:07.290";"NST_correctLoc";"8";"0";"FINISHED";"LEFT";"success";"481";"0";"2014-10-12 10:34:06.039";"1";;;;;;;;;;;;;;;;;;;;;
"yolcapleb";"1993";;"Windows 8";"Rachel's Experiment (D.T.)";"1.0";"2";"1";"1";"2";"1";"1";"2014-10-12 10:25:36.132";"2014-10-12 10:37:58.176";"1";"0";"0";"159";"158";"module.training_block4.exec-7082.GoNoGo4";;;;;;;;;;;;;;;;;;;;;;;;;;;;;;;;;;;;;;;;;;;;;;;;;;;;;;;;;;;"1249";"2014-10-12 10:34:09.832";"NST_correctLoc";"1";"0";"FINISHED";"LEFT";"success";"445";"0";"2014-10-12 10:34:08.582";"1";;;;;;;;;;;;;;;;;;;;;
"yolcapleb";"1993";;"Windows 8";"Rachel's Experiment (D.T.)";"1.0";"2";"1";"1";"2";"1";"1";"2014-10-12 10:25:36.132";"2014-10-12 10:37:58.176";"1";"0";"0";"160";"159";"module.devaluation_practice.exec-7679.devalPractice";;;;;;;;;;;;"18264";"2014-10-12 10:34:56.418";"0";"4";"5";"6";"7660";"2725";"4760";"2014-10-12 10:34:38.154";;;;;;;;;;;;;;;;;;;;;;;;;;;;;;;;;;;;;;;;;;;;;;;;;;;;;;;;;;;;;;;;;;;;;;
"yolcapleb";"1993";;"Windows 8";"Rachel's Experiment (D.T.)";"1.0";"2";"1";"1";"2";"1";"1";"2014-10-12 10:25:36.132";"2014-10-12 10:37:58.176";"1";"0";"0";"161";"160";"module.devaluation_practice.exec-7679.devalPractice";;;;;;;;;;;;"7591";"2014-10-12 10:35:04.055";"1";"5";"6";"6";"1178";"1807";"1562";"2014-10-12 10:34:56.463";;;;;;;;;;;;;;;;;;;;;;;;;;;;;;;;;;;;;;;;;;;;;;;;;;;;;;;;;;;;;;;;;;;;;;
"yolcapleb";"1993";;"Windows 8";"Rachel's Experiment (D.T.)";"1.0";"2";"1";"1";"2";"1";"1";"2014-10-12 10:25:36.132";"2014-10-12 10:37:58.176";"1";"0";"0";"162";"161";"module.devaluation_practice.exec-7679.devalPractice";;;;;;;;;;;;"7660";"2014-10-12 10:35:11.760";"2";"6";"6";"6";"2088";"1595";"931";"2014-10-12 10:35:04.099";;;;;;;;;;;;;;;;;;;;;;;;;;;;;;;;;;;;;;;;;;;;;;;;;;;;;;;;;;;;;;;;;;;;;;
"yolcapleb";"1993";;"Windows 8";"Rachel's Experiment (D.T.)";"1.0";"2";"1";"1";"2";"1";"1";"2014-10-12 10:25:36.132";"2014-10-12 10:37:58.176";"1";"0";"0";"163";"162";"module.devaluation_practice.exec-7679.devalPractice";;;;;;;;;;;;"8370";"2014-10-12 10:35:20.178";"3";"4";"4";"6";"983";"2403";"1938";"2014-10-12 10:35:11.807";;;;;;;;;;;;;;;;;;;;;;;;;;;;;;;;;;;;;;;;;;;;;;;;;;;;;;;;;;;;;;;;;;;;;;
"yolcapleb";"1993";;"Windows 8";"Rachel's Experiment (D.T.)";"1.0";"2";"1";"1";"2";"1";"1";"2014-10-12 10:25:36.132";"2014-10-12 10:37:58.176";"1";"0";"0";"164";"163";"module.devaluation_block1.exec-9100.deval1";"7724";"2014-10-12 10:35:31.549";"10";"5";"4";"6";"2221";"999";"1436";"2014-10-12 10:35:23.825";"2";;;;;;;;;;;;;;;;;;;;;;;;;;;;;;;;;;;;;;;;;;;;;;;;;;;;;;;;;;;;;;;;;;;;;;;;;;;;;;;;
"yolcapleb";"1993";;"Windows 8";"Rachel's Experiment (D.T.)";"1.0";"2";"1";"1";"2";"1";"1";"2014-10-12 10:25:36.132";"2014-10-12 10:37:58.176";"1";"0";"0";"165";"164";"module.devaluation_block1.exec-9100.deval1";"6915";"2014-10-12 10:35:38.510";"19";"4";"3";"4";"775";"1541";"1542";"2014-10-12 10:35:31.594";"3";;;;;;;;;;;;;;;;;;;;;;;;;;;;;;;;;;;;;;;;;;;;;;;;;;;;;;;;;;;;;;;;;;;;;;;;;;;;;;;;
"yolcapleb";"1993";;"Windows 8";"Rachel's Experiment (D.T.)";"1.0";"2";"1";"1";"2";"1";"1";"2014-10-12 10:25:36.132";"2014-10-12 10:37:58.176";"1";"0";"0";"166";"165";"module.devaluation_block1.exec-9100.deval1";"5625";"2014-10-12 10:35:44.180";"8";"6";"7";"6";"975";"894";"698";"2014-10-12 10:35:38.555";"1";;;;;;;;;;;;;;;;;;;;;;;;;;;;;;;;;;;;;;;;;;;;;;;;;;;;;;;;;;;;;;;;;;;;;;;;;;;;;;;;
"yolcapleb";"1993";;"Windows 8";"Rachel's Experiment (D.T.)";"1.0";"2";"1";"1";"2";"1";"1";"2014-10-12 10:25:36.132";"2014-10-12 10:37:58.176";"1";"0";"0";"167";"166";"module.devaluation_block1.exec-9100.deval1";"5452";"2014-10-12 10:35:49.674";"3";"6";"4";"6";"721";"983";"687";"2014-10-12 10:35:44.221";"1";;;;;;;;;;;;;;;;;;;;;;;;;;;;;;;;;;;;;;;;;;;;;;;;;;;;;;;;;;;;;;;;;;;;;;;;;;;;;;;;
"yolcapleb";"1993";;"Windows 8";"Rachel's Experiment (D.T.)";"1.0";"2";"1";"1";"2";"1";"1";"2014-10-12 10:25:36.132";"2014-10-12 10:37:58.176";"1";"0";"0";"168";"167";"module.devaluation_block1.exec-9100.deval1";"5542";"2014-10-12 10:35:55.261";"11";"4";"5";"6";"869";"393";"1223";"2014-10-12 10:35:49.719";"2";;;;;;;;;;;;;;;;;;;;;;;;;;;;;;;;;;;;;;;;;;;;;;;;;;;;;;;;;;;;;;;;;;;;;;;;;;;;;;;;
"yolcapleb";"1993";;"Windows 8";"Rachel's Experiment (D.T.)";"1.0";"2";"1";"1";"2";"1";"1";"2014-10-12 10:25:36.132";"2014-10-12 10:37:58.176";"1";"0";"0";"169";"168";"module.devaluation_block1.exec-9100.deval1";"6506";"2014-10-12 10:36:01.816";"9";"4";"5";"7";"1456";"576";"1416";"2014-10-12 10:35:55.309";"2";;;;;;;;;;;;;;;;;;;;;;;;;;;;;;;;;;;;;;;;;;;;;;;;;;;;;;;;;;;;;;;;;;;;;;;;;;;;;;;;
"yolcapleb";"1993";;"Windows 8";"Rachel's Experiment (D.T.)";"1.0";"2";"1";"1";"2";"1";"1";"2014-10-12 10:25:36.132";"2014-10-12 10:37:58.176";"1";"0";"0";"170";"169";"module.devaluation_block1.exec-9100.deval1";"6957";"2014-10-12 10:36:08.816";"21";"4";"5";"6";"2371";"855";"666";"2014-10-12 10:36:01.860";"3";;;;;;;;;;;;;;;;;;;;;;;;;;;;;;;;;;;;;;;;;;;;;;;;;;;;;;;;;;;;;;;;;;;;;;;;;;;;;;;;
"yolcapleb";"1993";;"Windows 8";"Rachel's Experiment (D.T.)";"1.0";"2";"1";"1";"2";"1";"1";"2014-10-12 10:25:36.132";"2014-10-12 10:37:58.176";"1";"0";"0";"171";"170";"module.devaluation_block1.exec-9100.deval1";"6055";"2014-10-12 10:36:14.919";"18";"7";"4";"6";"710";"662";"1623";"2014-10-12 10:36:08.863";"3";;;;;;;;;;;;;;;;;;;;;;;;;;;;;;;;;;;;;;;;;;;;;;;;;;;;;;;;;;;;;;;;;;;;;;;;;;;;;;;;
"yolcapleb";"1993";;"Windows 8";"Rachel's Experiment (D.T.)";"1.0";"2";"1";"1";"2";"1";"1";"2014-10-12 10:25:36.132";"2014-10-12 10:37:58.176";"1";"0";"0";"172";"171";"module.devaluation_block1.exec-9100.deval1";"4791";"2014-10-12 10:36:19.758";"16";"4";"4";"5";"611";"541";"582";"2014-10-12 10:36:14.966";"2";;;;;;;;;;;;;;;;;;;;;;;;;;;;;;;;;;;;;;;;;;;;;;;;;;;;;;;;;;;;;;;;;;;;;;;;;;;;;;;;
"yolcapleb";"1993";;"Windows 8";"Rachel's Experiment (D.T.)";"1.0";"2";"1";"1";"2";"1";"1";"2014-10-12 10:25:36.132";"2014-10-12 10:37:58.176";"1";"0";"0";"173";"172";"module.devaluation_block1.exec-9100.deval1";"5859";"2014-10-12 10:36:25.661";"15";"3";"4";"4";"1183";"768";"851";"2014-10-12 10:36:19.802";"2";;;;;;;;;;;;;;;;;;;;;;;;;;;;;;;;;;;;;;;;;;;;;;;;;;;;;;;;;;;;;;;;;;;;;;;;;;;;;;;;
"yolcapleb";"1993";;"Windows 8";"Rachel's Experiment (D.T.)";"1.0";"2";"1";"1";"2";"1";"1";"2014-10-12 10:25:36.132";"2014-10-12 10:37:58.176";"1";"0";"0";"174";"173";"module.devaluation_block1.exec-9100.deval1";"4188";"2014-10-12 10:36:29.894";"17";"5";"4";"5";"338";"486";"307";"2014-10-12 10:36:25.705";"2";;;;;;;;;;;;;;;;;;;;;;;;;;;;;;;;;;;;;;;;;;;;;;;;;;;;;;;;;;;;;;;;;;;;;;;;;;;;;;;;
"yolcapleb";"1993";;"Windows 8";"Rachel's Experiment (D.T.)";"1.0";"2";"1";"1";"2";"1";"1";"2014-10-12 10:25:36.132";"2014-10-12 10:37:58.176";"1";"0";"0";"175";"174";"module.devaluation_block1.exec-9100.deval1";"6254";"2014-10-12 10:36:36.193";"20";"6";"4";"7";"600";"868";"1730";"2014-10-12 10:36:29.940";"3";;;;;;;;;;;;;;;;;;;;;;;;;;;;;;;;;;;;;;;;;;;;;;;;;;;;;;;;;;;;;;;;;;;;;;;;;;;;;;;;
"yolcapleb";"1993";;"Windows 8";"Rachel's Experiment (D.T.)";"1.0";"2";"1";"1";"2";"1";"1";"2014-10-12 10:25:36.132";"2014-10-12 10:37:58.176";"1";"0";"0";"176";"175";"module.devaluation_block1.exec-9100.deval1";"5716";"2014-10-12 10:36:41.955";"14";"5";"5";"6";"332";"576";"1752";"2014-10-12 10:36:36.238";"2";;;;;;;;;;;;;;;;;;;;;;;;;;;;;;;;;;;;;;;;;;;;;;;;;;;;;;;;;;;;;;;;;;;;;;;;;;;;;;;;
"yolcapleb";"1993";;"Windows 8";"Rachel's Experiment (D.T.)";"1.0";"2";"1";"1";"2";"1";"1";"2014-10-12 10:25:36.132";"2014-10-12 10:37:58.176";"1";"0";"0";"177";"176";"module.devaluation_block1.exec-9100.deval1";"6183";"2014-10-12 10:36:48.184";"22";"4";"5";"6";"1974";"430";"720";"2014-10-12 10:36:42.000";"3";;;;;;;;;;;;;;;;;;;;;;;;;;;;;;;;;;;;;;;;;;;;;;;;;;;;;;;;;;;;;;;;;;;;;;;;;;;;;;;;
"yolcapleb";"1993";;"Windows 8";"Rachel's Experiment (D.T.)";"1.0";"2";"1";"1";"2";"1";"1";"2014-10-12 10:25:36.132";"2014-10-12 10:37:58.176";"1";"0";"0";"178";"177";"module.devaluation_block1.exec-9100.deval1";"5767";"2014-10-12 10:36:54.000";"24";"5";"5";"6";"917";"465";"1329";"2014-10-12 10:36:48.233";"3";;;;;;;;;;;;;;;;;;;;;;;;;;;;;;;;;;;;;;;;;;;;;;;;;;;;;;;;;;;;;;;;;;;;;;;;;;;;;;;;
"yolcapleb";"1993";;"Windows 8";"Rachel's Experiment (D.T.)";"1.0";"2";"1";"1";"2";"1";"1";"2014-10-12 10:25:36.132";"2014-10-12 10:37:58.176";"1";"0";"0";"179";"178";"module.devaluation_block1.exec-9100.deval1";"4530";"2014-10-12 10:36:58.574";"0";"5";"5";"6";"332";"401";"742";"2014-10-12 10:36:54.044";"1";;;;;;;;;;;;;;;;;;;;;;;;;;;;;;;;;;;;;;;;;;;;;;;;;;;;;;;;;;;;;;;;;;;;;;;;;;;;;;;;
"yolcapleb";"1993";;"Windows 8";"Rachel's Experiment (D.T.)";"1.0";"2";"1";"1";"2";"1";"1";"2014-10-12 10:25:36.132";"2014-10-12 10:37:58.176";"1";"0";"0";"180";"179";"module.devaluation_block1.exec-9100.deval1";"5419";"2014-10-12 10:37:04.037";"12";"6";"5";"6";"711";"649";"996";"2014-10-12 10:36:58.617";"2";;;;;;;;;;;;;;;;;;;;;;;;;;;;;;;;;;;;;;;;;;;;;;;;;;;;;;;;;;;;;;;;;;;;;;;;;;;;;;;;
"yolcapleb";"1993";;"Windows 8";"Rachel's Experiment (D.T.)";"1.0";"2";"1";"1";"2";"1";"1";"2014-10-12 10:25:36.132";"2014-10-12 10:37:58.176";"1";"0";"0";"181";"180";"module.devaluation_block1.exec-9100.deval1";"5267";"2014-10-12 10:37:09.349";"25";"7";"5";"6";"880";"500";"829";"2014-10-12 10:37:04.081";"3";;;;;;;;;;;;;;;;;;;;;;;;;;;;;;;;;;;;;;;;;;;;;;;;;;;;;;;;;;;;;;;;;;;;;;;;;;;;;;;;
"yolcapleb";"1993";;"Windows 8";"Rachel's Experiment (D.T.)";"1.0";"2";"1";"1";"2";"1";"1";"2014-10-12 10:25:36.132";"2014-10-12 10:37:58.176";"1";"0";"0";"182";"181";"module.devaluation_block1.exec-9100.deval1";"5127";"2014-10-12 10:37:14.520";"5";"6";"5";"6";"776";"509";"784";"2014-10-12 10:37:09.393";"1";;;;;;;;;;;;;;;;;;;;;;;;;;;;;;;;;;;;;;;;;;;;;;;;;;;;;;;;;;;;;;;;;;;;;;;;;;;;;;;;
"yolcapleb";"1993";;"Windows 8";"Rachel's Experiment (D.T.)";"1.0";"2";"1";"1";"2";"1";"1";"2014-10-12 10:25:36.132";"2014-10-12 10:37:58.176";"1";"0";"0";"183";"182";"module.devaluation_block1.exec-9100.deval1";"5608";"2014-10-12 10:37:20.172";"1";"4";"5";"5";"1541";"409";"604";"2014-10-12 10:37:14.563";"1";;;;;;;;;;;;;;;;;;;;;;;;;;;;;;;;;;;;;;;;;;;;;;;;;;;;;;;;;;;;;;;;;;;;;;;;;;;;;;;;
"yolcapleb";"1993";;"Windows 8";"Rachel's Experiment (D.T.)";"1.0";"2";"1";"1";"2";"1";"1";"2014-10-12 10:25:36.132";"2014-10-12 10:37:58.176";"1";"0";"0";"184";"183";"module.devaluation_block1.exec-9100.deval1";"5139";"2014-10-12 10:37:25.361";"4";"6";"4";"6";"659";"587";"838";"2014-10-12 10:37:20.221";"1";;;;;;;;;;;;;;;;;;;;;;;;;;;;;;;;;;;;;;;;;;;;;;;;;;;;;;;;;;;;;;;;;;;;;;;;;;;;;;;;
"yolcapleb";"1993";;"Windows 8";"Rachel's Experiment (D.T.)";"1.0";"2";"1";"1";"2";"1";"1";"2014-10-12 10:25:36.132";"2014-10-12 10:37:58.176";"1";"0";"0";"185";"184";"module.devaluation_block1.exec-9100.deval1";"5482";"2014-10-12 10:37:30.897";"23";"5";"5";"5";"1899";"200";"329";"2014-10-12 10:37:25.415";"3";;;;;;;;;;;;;;;;;;;;;;;;;;;;;;;;;;;;;;;;;;;;;;;;;;;;;;;;;;;;;;;;;;;;;;;;;;;;;;;;
"yolcapleb";"1993";;"Windows 8";"Rachel's Experiment (D.T.)";"1.0";"2";"1";"1";"2";"1";"1";"2014-10-12 10:25:36.132";"2014-10-12 10:37:58.176";"1";"0";"0";"186";"185";"module.devaluation_block1.exec-9100.deval1";"4620";"2014-10-12 10:37:35.562";"26";"6";"5";"6";"657";"291";"616";"2014-10-12 10:37:30.942";"3";;;;;;;;;;;;;;;;;;;;;;;;;;;;;;;;;;;;;;;;;;;;;;;;;;;;;;;;;;;;;;;;;;;;;;;;;;;;;;;;
"yolcapleb";"1993";;"Windows 8";"Rachel's Experiment (D.T.)";"1.0";"2";"1";"1";"2";"1";"1";"2014-10-12 10:25:36.132";"2014-10-12 10:37:58.176";"1";"0";"0";"187";"186";"module.devaluation_block1.exec-9100.deval1";"4941";"2014-10-12 10:37:40.549";"6";"6";"6";"6";"674";"608";"604";"2014-10-12 10:37:35.607";"1";;;;;;;;;;;;;;;;;;;;;;;;;;;;;;;;;;;;;;;;;;;;;;;;;;;;;;;;;;;;;;;;;;;;;;;;;;;;;;;;
"yolcapleb";"1993";;"Windows 8";"Rachel's Experiment (D.T.)";"1.0";"2";"1";"1";"2";"1";"1";"2014-10-12 10:25:36.132";"2014-10-12 10:37:58.176";"1";"0";"0";"188";"187";"module.devaluation_block1.exec-9100.deval1";"4810";"2014-10-12 10:37:45.403";"2";"6";"5";"6";"832";"297";"625";"2014-10-12 10:37:40.593";"1";;;;;;;;;;;;;;;;;;;;;;;;;;;;;;;;;;;;;;;;;;;;;;;;;;;;;;;;;;;;;;;;;;;;;;;;;;;;;;;;
"yolcapleb";"1993";;"Windows 8";"Rachel's Experiment (D.T.)";"1.0";"2";"1";"1";"2";"1";"1";"2014-10-12 10:25:36.132";"2014-10-12 10:37:58.176";"1";"0";"0";"189";"188";"module.devaluation_block1.exec-9100.deval1";"6298";"2014-10-12 10:37:51.746";"7";"6";"6";"6";"1821";"560";"863";"2014-10-12 10:37:45.447";"1";;;;;;;;;;;;;;;;;;;;;;;;;;;;;;;;;;;;;;;;;;;;;;;;;;;;;;;;;;;;;;;;;;;;;;;;;;;;;;;;
"yolcapleb";"1993";;"Windows 8";"Rachel's Experiment (D.T.)";"1.0";"2";"1";"1";"2";"1";"1";"2014-10-12 10:25:36.132";"2014-10-12 10:37:58.176";"1";"0";"0";"190";"189";"module.devaluation_block1.exec-9100.deval1";"4529";"2014-10-12 10:37:56.324";"13";"5";"6";"6";"314";"535";"617";"2014-10-12 10:37:51.795";"2";;;;;;;;;;;;;;;;;;;;;;;;;;;;;;;;;;;;;;;;;;;;;;;;;;;;;;;;;;;;;;;;;;;;;;;;;;;;;;;;
