"user.name";"user.yearOfBirth";"user.sex";"user.osName";"module.name";"module.version";"module.online.subject.code";"module.online.study.id";"module.online.module.nr";"module.online.group.nr";"session.id";"session.index";"session.startTime";"session.endTime";"session.completed";"session.node-4030.conditionType";"session.node-7460.DevalQorder";"trial.id";"trial.index";"trial.name";"trial.deval1.durationTime";"trial.deval1.endTime";"trial.deval1.icon";"trial.deval1.Resp_Attractive";"trial.deval1.Resp_Eat";"trial.deval1.Resp_Taste";"trial.deval1.RT_Attractive";"trial.deval1.RT_Eat";"trial.deval1.RT_Taste";"trial.deval1.startTime";"trial.deval1.stimulus type";"trial.devalPractice.durationTime";"trial.devalPractice.endTime";"trial.devalPractice.icon";"trial.devalPractice.Resp_Attractive";"trial.devalPractice.Resp_Eat";"trial.devalPractice.Resp_Taste";"trial.devalPractice.RT_Attractive";"trial.devalPractice.RT_Eat";"trial.devalPractice.RT_Taste";"trial.devalPractice.startTime";"trial.devalPractice.stimulus type";"trial.GoNoGo1.durationTime";"trial.GoNoGo1.endTime";"trial.GoNoGo1.Error Type";"trial.GoNoGo1.icon";"trial.GoNoGo1.location";"trial.GoNoGo1.outcome";"trial.GoNoGo1.response";"trial.GoNoGo1.result";"trial.GoNoGo1.RT";"trial.GoNoGo1.signal";"trial.GoNoGo1.startTime";"trial.GoNoGo1.stimulus type";"trial.GoNoGo2.durationTime";"trial.GoNoGo2.endTime";"trial.GoNoGo2.Error Type";"trial.GoNoGo2.icon";"trial.GoNoGo2.location";"trial.GoNoGo2.outcome";"trial.GoNoGo2.response";"trial.GoNoGo2.result";"trial.GoNoGo2.RT";"trial.GoNoGo2.signal";"trial.GoNoGo2.startTime";"trial.GoNoGo2.stimulus type";"trial.GoNoGo3.durationTime";"trial.GoNoGo3.endTime";"trial.GoNoGo3.Error Type";"trial.GoNoGo3.icon";"trial.GoNoGo3.location";"trial.GoNoGo3.outcome";"trial.GoNoGo3.response";"trial.GoNoGo3.result";"trial.GoNoGo3.RT";"trial.GoNoGo3.signal";"trial.GoNoGo3.startTime";"trial.GoNoGo3.stimulus type";"trial.GoNoGo4.durationTime";"trial.GoNoGo4.endTime";"trial.GoNoGo4.Error Type";"trial.GoNoGo4.icon";"trial.GoNoGo4.location";"trial.GoNoGo4.outcome";"trial.GoNoGo4.response";"trial.GoNoGo4.result";"trial.GoNoGo4.RT";"trial.GoNoGo4.signal";"trial.GoNoGo4.startTime";"trial.GoNoGo4.stimulus type";"trial.GoNoGo_Practice.durationTime";"trial.GoNoGo_Practice.endTime";"trial.GoNoGo_Practice.icon";"trial.GoNoGo_Practice.location";"trial.GoNoGo_Practice.outcome";"trial.GoNoGo_Practice.response";"trial.GoNoGo_Practice.result";"trial.GoNoGo_Practice.RT";"trial.GoNoGo_Practice.signal";"trial.GoNoGo_Practice.startTime";"trial.GoNoGo_Practice.stimulus type";"trial.GoNoGo_Tutorial.durationTime";"trial.GoNoGo_Tutorial.endTime";"trial.GoNoGo_Tutorial.icon";"trial.GoNoGo_Tutorial.location";"trial.GoNoGo_Tutorial.outcome";"trial.GoNoGo_Tutorial.response";"trial.GoNoGo_Tutorial.result";"trial.GoNoGo_Tutorial.RT";"trial.GoNoGo_Tutorial.signal";"trial.GoNoGo_Tutorial.startTime"
"saplmj22";"1985";;"Windows 7";"Rachel's Experiment (D.T.)";"1.0";"2";"1";"1";"2";"2";"1";"2014-09-08 13:26:12.129";"2014-09-08 13:47:01.314";"1";"0";"1";"496";"0";"module.GoNoGotutorial.exec-7984.GoNoGo_Tutorial";;;;;;;;;;;;;;;;;;;;;;;;;;;;;;;;;;;;;;;;;;;;;;;;;;;;;;;;;;;;;;;;;;;;;;;;;;;;;;;;;;"4000";"2014-09-08 13:35:09.514";"leftResponse";"0";"FINISHED";"LEFT";"success";"586";"0";"2014-09-08 13:35:05.513"
"saplmj22";"1985";;"Windows 7";"Rachel's Experiment (D.T.)";"1.0";"2";"1";"1";"2";"2";"1";"2014-09-08 13:26:12.129";"2014-09-08 13:47:01.314";"1";"0";"1";"497";"1";"module.GoNoGotutorial.exec-7984.GoNoGo_Tutorial";;;;;;;;;;;;;;;;;;;;;;;;;;;;;;;;;;;;;;;;;;;;;;;;;;;;;;;;;;;;;;;;;;;;;;;;;;;;;;;;;;"4000";"2014-09-08 13:35:14.841";"rightResponse";"1";"FINISHED";"NONE";"failure";"0";"0";"2014-09-08 13:35:10.841"
"saplmj22";"1985";;"Windows 7";"Rachel's Experiment (D.T.)";"1.0";"2";"1";"1";"2";"2";"1";"2014-09-08 13:26:12.129";"2014-09-08 13:47:01.314";"1";"0";"1";"498";"2";"module.GoNoGotutorial.exec-7984.GoNoGo_Tutorial";;;;;;;;;;;;;;;;;;;;;;;;;;;;;;;;;;;;;;;;;;;;;;;;;;;;;;;;;;;;;;;;;;;;;;;;;;;;;;;;;;"3999";"2014-09-08 13:35:20.155";"quickResponse";"0";"FINISHED";"NONE";"failure";"0";"0";"2014-09-08 13:35:16.154"
"saplmj22";"1985";;"Windows 7";"Rachel's Experiment (D.T.)";"1.0";"2";"1";"1";"2";"2";"1";"2014-09-08 13:26:12.129";"2014-09-08 13:47:01.314";"1";"0";"1";"499";"3";"module.GoNoGopractice.exec-2058.GoNoGo_Practice";;;;;;;;;;;;;;;;;;;;;;;;;;;;;;;;;;;;;;;;;;;;;;;;;;;;;;;;;;;;;;;;;;;;;;;"1961";"2014-09-08 13:35:29.449";"18";"0";"FINISHED";"LEFT";"success";"403";"0";"2014-09-08 13:35:27.487";"3";;;;;;;;;;
"saplmj22";"1985";;"Windows 7";"Rachel's Experiment (D.T.)";"1.0";"2";"1";"1";"2";"2";"1";"2014-09-08 13:26:12.129";"2014-09-08 13:47:01.314";"1";"0";"1";"500";"4";"module.GoNoGopractice.exec-2058.GoNoGo_Practice";;;;;;;;;;;;;;;;;;;;;;;;;;;;;;;;;;;;;;;;;;;;;;;;;;;;;;;;;;;;;;;;;;;;;;;"1951";"2014-09-08 13:35:32.710";"21";"1";"FINISHED";"RIGHT";"success";"362";"0";"2014-09-08 13:35:30.758";"3";;;;;;;;;;
"saplmj22";"1985";;"Windows 7";"Rachel's Experiment (D.T.)";"1.0";"2";"1";"1";"2";"2";"1";"2014-09-08 13:26:12.129";"2014-09-08 13:47:01.314";"1";"0";"1";"501";"5";"module.GoNoGopractice.exec-2058.GoNoGo_Practice";;;;;;;;;;;;;;;;;;;;;;;;;;;;;;;;;;;;;;;;;;;;;;;;;;;;;;;;;;;;;;;;;;;;;;;"1952";"2014-09-08 13:35:35.976";"14";"1";"FINISHED";"RIGHT";"success";"419";"0";"2014-09-08 13:35:34.024";"2";;;;;;;;;;
"saplmj22";"1985";;"Windows 7";"Rachel's Experiment (D.T.)";"1.0";"2";"1";"1";"2";"2";"1";"2014-09-08 13:26:12.129";"2014-09-08 13:47:01.314";"1";"0";"1";"502";"6";"module.GoNoGopractice.exec-2058.GoNoGo_Practice";;;;;;;;;;;;;;;;;;;;;;;;;;;;;;;;;;;;;;;;;;;;;;;;;;;;;;;;;;;;;;;;;;;;;;;"1952";"2014-09-08 13:35:39.252";"26";"0";"FINISHED";"LEFT";"success";"408";"0";"2014-09-08 13:35:37.300";"3";;;;;;;;;;
"saplmj22";"1985";;"Windows 7";"Rachel's Experiment (D.T.)";"1.0";"2";"1";"1";"2";"2";"1";"2014-09-08 13:26:12.129";"2014-09-08 13:47:01.314";"1";"0";"1";"503";"7";"module.GoNoGopractice.exec-2058.GoNoGo_Practice";;;;;;;;;;;;;;;;;;;;;;;;;;;;;;;;;;;;;;;;;;;;;;;;;;;;;;;;;;;;;;;;;;;;;;;"1952";"2014-09-08 13:35:42.517";"2";"0";"FINISHED";"LEFT";"success";"396";"0";"2014-09-08 13:35:40.565";"1";;;;;;;;;;
"saplmj22";"1985";;"Windows 7";"Rachel's Experiment (D.T.)";"1.0";"2";"1";"1";"2";"2";"1";"2014-09-08 13:26:12.129";"2014-09-08 13:47:01.314";"1";"0";"1";"504";"8";"module.GoNoGopractice.exec-2058.GoNoGo_Practice";;;;;;;;;;;;;;;;;;;;;;;;;;;;;;;;;;;;;;;;;;;;;;;;;;;;;;;;;;;;;;;;;;;;;;;"1951";"2014-09-08 13:35:45.772";"30";"0";"FINISHED";"LEFT";"success";"358";"0";"2014-09-08 13:35:43.820";"3";;;;;;;;;;
"saplmj22";"1985";;"Windows 7";"Rachel's Experiment (D.T.)";"1.0";"2";"1";"1";"2";"2";"1";"2014-09-08 13:26:12.129";"2014-09-08 13:47:01.314";"1";"0";"1";"505";"9";"module.GoNoGopractice.exec-2058.GoNoGo_Practice";;;;;;;;;;;;;;;;;;;;;;;;;;;;;;;;;;;;;;;;;;;;;;;;;;;;;;;;;;;;;;;;;;;;;;;"1952";"2014-09-08 13:35:49.031";"6";"1";"FINISHED";"RIGHT";"success";"397";"0";"2014-09-08 13:35:47.079";"1";;;;;;;;;;
"saplmj22";"1985";;"Windows 7";"Rachel's Experiment (D.T.)";"1.0";"2";"1";"1";"2";"2";"1";"2014-09-08 13:26:12.129";"2014-09-08 13:47:01.314";"1";"0";"1";"506";"10";"module.GoNoGopractice.exec-2058.GoNoGo_Practice";;;;;;;;;;;;;;;;;;;;;;;;;;;;;;;;;;;;;;;;;;;;;;;;;;;;;;;;;;;;;;;;;;;;;;;"1952";"2014-09-08 13:35:52.289";"34";"0";"FINISHED";"LEFT";"success";"534";"0";"2014-09-08 13:35:50.336";"3";;;;;;;;;;
"saplmj22";"1985";;"Windows 7";"Rachel's Experiment (D.T.)";"1.0";"2";"1";"1";"2";"2";"1";"2014-09-08 13:26:12.129";"2014-09-08 13:47:01.314";"1";"0";"1";"507";"11";"module.GoNoGopractice.exec-2058.GoNoGo_Practice";;;;;;;;;;;;;;;;;;;;;;;;;;;;;;;;;;;;;;;;;;;;;;;;;;;;;;;;;;;;;;;;;;;;;;;"1951";"2014-09-08 13:35:55.543";"23";"1";"FINISHED";"RIGHT";"success";"351";"0";"2014-09-08 13:35:53.591";"3";;;;;;;;;;
"saplmj22";"1985";;"Windows 7";"Rachel's Experiment (D.T.)";"1.0";"2";"1";"1";"2";"2";"1";"2014-09-08 13:26:12.129";"2014-09-08 13:47:01.314";"1";"0";"1";"508";"12";"module.GoNoGopractice.exec-2058.GoNoGo_Practice";;;;;;;;;;;;;;;;;;;;;;;;;;;;;;;;;;;;;;;;;;;;;;;;;;;;;;;;;;;;;;;;;;;;;;;"1952";"2014-09-08 13:35:58.803";"13";"0";"FINISHED";"LEFT";"success";"493";"0";"2014-09-08 13:35:56.851";"2";;;;;;;;;;
"saplmj22";"1985";;"Windows 7";"Rachel's Experiment (D.T.)";"1.0";"2";"1";"1";"2";"2";"1";"2014-09-08 13:26:12.129";"2014-09-08 13:47:01.314";"1";"0";"1";"509";"13";"module.GoNoGopractice.exec-2058.GoNoGo_Practice";;;;;;;;;;;;;;;;;;;;;;;;;;;;;;;;;;;;;;;;;;;;;;;;;;;;;;;;;;;;;;;;;;;;;;;"1951";"2014-09-08 13:36:02.054";"3";"1";"FINISHED";"RIGHT";"success";"384";"0";"2014-09-08 13:36:00.102";"1";;;;;;;;;;
"saplmj22";"1985";;"Windows 7";"Rachel's Experiment (D.T.)";"1.0";"2";"1";"1";"2";"2";"1";"2014-09-08 13:26:12.129";"2014-09-08 13:47:01.314";"1";"0";"1";"510";"14";"module.GoNoGopractice.exec-2058.GoNoGo_Practice";;;;;;;;;;;;;;;;;;;;;;;;;;;;;;;;;;;;;;;;;;;;;;;;;;;;;;;;;;;;;;;;;;;;;;;"1951";"2014-09-08 13:36:05.314";"27";"1";"FINISHED";"RIGHT";"success";"426";"0";"2014-09-08 13:36:03.362";"3";;;;;;;;;;
"saplmj22";"1985";;"Windows 7";"Rachel's Experiment (D.T.)";"1.0";"2";"1";"1";"2";"2";"1";"2014-09-08 13:26:12.129";"2014-09-08 13:47:01.314";"1";"0";"1";"511";"15";"module.training_block1.exec-1056.GoNoGo1";;;;;;;;;;;;;;;;;;;;;;;"1251";"2014-09-08 13:36:13.954";"NST_correctLoc";"23";"0";"FINISHED";"LEFT";"success";"313";"0";"2014-09-08 13:36:12.703";"3";;;;;;;;;;;;;;;;;;;;;;;;;;;;;;;;;;;;;;;;;;;;;;;;;;;;;;;;;
"saplmj22";"1985";;"Windows 7";"Rachel's Experiment (D.T.)";"1.0";"2";"1";"1";"2";"2";"1";"2014-09-08 13:26:12.129";"2014-09-08 13:47:01.314";"1";"0";"1";"512";"16";"module.training_block1.exec-1056.GoNoGo1";;;;;;;;;;;;;;;;;;;;;;;"1249";"2014-09-08 13:36:16.523";"NST_correctLoc";"35";"0";"FINISHED";"LEFT";"success";"297";"0";"2014-09-08 13:36:15.273";"3";;;;;;;;;;;;;;;;;;;;;;;;;;;;;;;;;;;;;;;;;;;;;;;;;;;;;;;;;
"saplmj22";"1985";;"Windows 7";"Rachel's Experiment (D.T.)";"1.0";"2";"1";"1";"2";"2";"1";"2014-09-08 13:26:12.129";"2014-09-08 13:47:01.314";"1";"0";"1";"513";"17";"module.training_block1.exec-1056.GoNoGo1";;;;;;;;;;;;;;;;;;;;;;;"1250";"2014-09-08 13:36:19.097";"NST_correctLoc";"25";"1";"FINISHED";"RIGHT";"success";"276";"0";"2014-09-08 13:36:17.847";"3";;;;;;;;;;;;;;;;;;;;;;;;;;;;;;;;;;;;;;;;;;;;;;;;;;;;;;;;;
"saplmj22";"1985";;"Windows 7";"Rachel's Experiment (D.T.)";"1.0";"2";"1";"1";"2";"2";"1";"2014-09-08 13:26:12.129";"2014-09-08 13:47:01.314";"1";"0";"1";"514";"18";"module.training_block1.exec-1056.GoNoGo1";;;;;;;;;;;;;;;;;;;;;;;"1249";"2014-09-08 13:36:21.646";"NST_correctLoc";"3";"1";"FINISHED";"RIGHT";"success";"372";"0";"2014-09-08 13:36:20.396";"1";;;;;;;;;;;;;;;;;;;;;;;;;;;;;;;;;;;;;;;;;;;;;;;;;;;;;;;;;
"saplmj22";"1985";;"Windows 7";"Rachel's Experiment (D.T.)";"1.0";"2";"1";"1";"2";"2";"1";"2014-09-08 13:26:12.129";"2014-09-08 13:47:01.314";"1";"0";"1";"515";"19";"module.training_block1.exec-1056.GoNoGo1";;;;;;;;;;;;;;;;;;;;;;;"1250";"2014-09-08 13:36:24.203";"NST_correctLoc";"24";"0";"FINISHED";"LEFT";"success";"372";"0";"2014-09-08 13:36:22.953";"3";;;;;;;;;;;;;;;;;;;;;;;;;;;;;;;;;;;;;;;;;;;;;;;;;;;;;;;;;
"saplmj22";"1985";;"Windows 7";"Rachel's Experiment (D.T.)";"1.0";"2";"1";"1";"2";"2";"1";"2014-09-08 13:26:12.129";"2014-09-08 13:47:01.314";"1";"0";"1";"516";"20";"module.training_block1.exec-1056.GoNoGo1";;;;;;;;;;;;;;;;;;;;;;;"1250";"2014-09-08 13:36:26.757";"NST_correctLoc";"19";"0";"FINISHED";"LEFT";"success";"298";"0";"2014-09-08 13:36:25.506";"3";;;;;;;;;;;;;;;;;;;;;;;;;;;;;;;;;;;;;;;;;;;;;;;;;;;;;;;;;
"saplmj22";"1985";;"Windows 7";"Rachel's Experiment (D.T.)";"1.0";"2";"1";"1";"2";"2";"1";"2014-09-08 13:26:12.129";"2014-09-08 13:47:01.314";"1";"0";"1";"517";"21";"module.training_block1.exec-1056.GoNoGo1";;;;;;;;;;;;;;;;;;;;;;;"1249";"2014-09-08 13:36:29.299";"NST_correctLoc";"6";"1";"FINISHED";"RIGHT";"success";"337";"0";"2014-09-08 13:36:28.049";"1";;;;;;;;;;;;;;;;;;;;;;;;;;;;;;;;;;;;;;;;;;;;;;;;;;;;;;;;;
"saplmj22";"1985";;"Windows 7";"Rachel's Experiment (D.T.)";"1.0";"2";"1";"1";"2";"2";"1";"2014-09-08 13:26:12.129";"2014-09-08 13:47:01.314";"1";"0";"1";"518";"22";"module.training_block1.exec-1056.GoNoGo1";;;;;;;;;;;;;;;;;;;;;;;"1250";"2014-09-08 13:36:31.855";"NST_correctLoc";"12";"1";"FINISHED";"RIGHT";"success";"358";"0";"2014-09-08 13:36:30.605";"2";;;;;;;;;;;;;;;;;;;;;;;;;;;;;;;;;;;;;;;;;;;;;;;;;;;;;;;;;
"saplmj22";"1985";;"Windows 7";"Rachel's Experiment (D.T.)";"1.0";"2";"1";"1";"2";"2";"1";"2014-09-08 13:26:12.129";"2014-09-08 13:47:01.314";"1";"0";"1";"519";"23";"module.training_block1.exec-1056.GoNoGo1";;;;;;;;;;;;;;;;;;;;;;;"1250";"2014-09-08 13:36:34.408";"NST_correctLoc";"7";"1";"FINISHED";"RIGHT";"success";"381";"0";"2014-09-08 13:36:33.158";"1";;;;;;;;;;;;;;;;;;;;;;;;;;;;;;;;;;;;;;;;;;;;;;;;;;;;;;;;;
"saplmj22";"1985";;"Windows 7";"Rachel's Experiment (D.T.)";"1.0";"2";"1";"1";"2";"2";"1";"2014-09-08 13:26:12.129";"2014-09-08 13:47:01.314";"1";"0";"1";"520";"24";"module.training_block1.exec-1056.GoNoGo1";;;;;;;;;;;;;;;;;;;;;;;"1249";"2014-09-08 13:36:36.947";"NST_correctLoc";"21";"0";"FINISHED";"LEFT";"success";"390";"0";"2014-09-08 13:36:35.697";"3";;;;;;;;;;;;;;;;;;;;;;;;;;;;;;;;;;;;;;;;;;;;;;;;;;;;;;;;;
"saplmj22";"1985";;"Windows 7";"Rachel's Experiment (D.T.)";"1.0";"2";"1";"1";"2";"2";"1";"2014-09-08 13:26:12.129";"2014-09-08 13:47:01.314";"1";"0";"1";"521";"25";"module.training_block1.exec-1056.GoNoGo1";;;;;;;;;;;;;;;;;;;;;;;"1249";"2014-09-08 13:36:39.503";"NST_correctLoc";"15";"1";"FINISHED";"RIGHT";"success";"359";"0";"2014-09-08 13:36:38.253";"2";;;;;;;;;;;;;;;;;;;;;;;;;;;;;;;;;;;;;;;;;;;;;;;;;;;;;;;;;
"saplmj22";"1985";;"Windows 7";"Rachel's Experiment (D.T.)";"1.0";"2";"1";"1";"2";"2";"1";"2014-09-08 13:26:12.129";"2014-09-08 13:47:01.314";"1";"0";"1";"522";"26";"module.training_block1.exec-1056.GoNoGo1";;;;;;;;;;;;;;;;;;;;;;;"1250";"2014-09-08 13:36:42.047";"NST_correctLoc";"18";"1";"FINISHED";"RIGHT";"success";"367";"0";"2014-09-08 13:36:40.796";"3";;;;;;;;;;;;;;;;;;;;;;;;;;;;;;;;;;;;;;;;;;;;;;;;;;;;;;;;;
"saplmj22";"1985";;"Windows 7";"Rachel's Experiment (D.T.)";"1.0";"2";"1";"1";"2";"2";"1";"2014-09-08 13:26:12.129";"2014-09-08 13:47:01.314";"1";"0";"1";"523";"27";"module.training_block1.exec-1056.GoNoGo1";;;;;;;;;;;;;;;;;;;;;;;"1250";"2014-09-08 13:36:44.605";"NST_correctLoc";"9";"0";"FINISHED";"LEFT";"success";"383";"0";"2014-09-08 13:36:43.354";"2";;;;;;;;;;;;;;;;;;;;;;;;;;;;;;;;;;;;;;;;;;;;;;;;;;;;;;;;;
"saplmj22";"1985";;"Windows 7";"Rachel's Experiment (D.T.)";"1.0";"2";"1";"1";"2";"2";"1";"2014-09-08 13:26:12.129";"2014-09-08 13:47:01.314";"1";"0";"1";"524";"28";"module.training_block1.exec-1056.GoNoGo1";;;;;;;;;;;;;;;;;;;;;;;"1249";"2014-09-08 13:36:47.155";"NST_correctLoc";"17";"1";"FINISHED";"RIGHT";"success";"308";"0";"2014-09-08 13:36:45.905";"2";;;;;;;;;;;;;;;;;;;;;;;;;;;;;;;;;;;;;;;;;;;;;;;;;;;;;;;;;
"saplmj22";"1985";;"Windows 7";"Rachel's Experiment (D.T.)";"1.0";"2";"1";"1";"2";"2";"1";"2014-09-08 13:26:12.129";"2014-09-08 13:47:01.314";"1";"0";"1";"525";"29";"module.training_block1.exec-1056.GoNoGo1";;;;;;;;;;;;;;;;;;;;;;;"1250";"2014-09-08 13:36:49.705";"NST_correctLoc";"33";"1";"FINISHED";"RIGHT";"success";"349";"0";"2014-09-08 13:36:48.455";"3";;;;;;;;;;;;;;;;;;;;;;;;;;;;;;;;;;;;;;;;;;;;;;;;;;;;;;;;;
"saplmj22";"1985";;"Windows 7";"Rachel's Experiment (D.T.)";"1.0";"2";"1";"1";"2";"2";"1";"2014-09-08 13:26:12.129";"2014-09-08 13:47:01.314";"1";"0";"1";"526";"30";"module.training_block1.exec-1056.GoNoGo1";;;;;;;;;;;;;;;;;;;;;;;"1249";"2014-09-08 13:36:52.254";"NST_correctLoc";"0";"1";"FINISHED";"RIGHT";"success";"320";"0";"2014-09-08 13:36:51.004";"1";;;;;;;;;;;;;;;;;;;;;;;;;;;;;;;;;;;;;;;;;;;;;;;;;;;;;;;;;
"saplmj22";"1985";;"Windows 7";"Rachel's Experiment (D.T.)";"1.0";"2";"1";"1";"2";"2";"1";"2014-09-08 13:26:12.129";"2014-09-08 13:47:01.314";"1";"0";"1";"527";"31";"module.training_block1.exec-1056.GoNoGo1";;;;;;;;;;;;;;;;;;;;;;;"1250";"2014-09-08 13:36:54.804";"NST_correctLoc";"5";"1";"FINISHED";"RIGHT";"success";"321";"0";"2014-09-08 13:36:53.554";"1";;;;;;;;;;;;;;;;;;;;;;;;;;;;;;;;;;;;;;;;;;;;;;;;;;;;;;;;;
"saplmj22";"1985";;"Windows 7";"Rachel's Experiment (D.T.)";"1.0";"2";"1";"1";"2";"2";"1";"2014-09-08 13:26:12.129";"2014-09-08 13:47:01.314";"1";"0";"1";"528";"32";"module.training_block1.exec-1056.GoNoGo1";;;;;;;;;;;;;;;;;;;;;;;"1249";"2014-09-08 13:36:57.352";"NST_correctLoc";"1";"0";"FINISHED";"LEFT";"success";"360";"0";"2014-09-08 13:36:56.102";"1";;;;;;;;;;;;;;;;;;;;;;;;;;;;;;;;;;;;;;;;;;;;;;;;;;;;;;;;;
"saplmj22";"1985";;"Windows 7";"Rachel's Experiment (D.T.)";"1.0";"2";"1";"1";"2";"2";"1";"2014-09-08 13:26:12.129";"2014-09-08 13:47:01.314";"1";"0";"1";"529";"33";"module.training_block1.exec-1056.GoNoGo1";;;;;;;;;;;;;;;;;;;;;;;"1250";"2014-09-08 13:36:59.901";"NST_correctLoc";"20";"0";"FINISHED";"LEFT";"success";"382";"0";"2014-09-08 13:36:58.651";"3";;;;;;;;;;;;;;;;;;;;;;;;;;;;;;;;;;;;;;;;;;;;;;;;;;;;;;;;;
"saplmj22";"1985";;"Windows 7";"Rachel's Experiment (D.T.)";"1.0";"2";"1";"1";"2";"2";"1";"2014-09-08 13:26:12.129";"2014-09-08 13:47:01.314";"1";"0";"1";"530";"34";"module.training_block1.exec-1056.GoNoGo1";;;;;;;;;;;;;;;;;;;;;;;"1250";"2014-09-08 13:37:02.455";"NST_correctLoc";"28";"1";"FINISHED";"RIGHT";"success";"338";"0";"2014-09-08 13:37:01.204";"3";;;;;;;;;;;;;;;;;;;;;;;;;;;;;;;;;;;;;;;;;;;;;;;;;;;;;;;;;
"saplmj22";"1985";;"Windows 7";"Rachel's Experiment (D.T.)";"1.0";"2";"1";"1";"2";"2";"1";"2014-09-08 13:26:12.129";"2014-09-08 13:47:01.314";"1";"0";"1";"531";"35";"module.training_block1.exec-1056.GoNoGo1";;;;;;;;;;;;;;;;;;;;;;;"1249";"2014-09-08 13:37:04.996";"NST_correctLoc";"26";"0";"FINISHED";"LEFT";"success";"572";"0";"2014-09-08 13:37:03.746";"3";;;;;;;;;;;;;;;;;;;;;;;;;;;;;;;;;;;;;;;;;;;;;;;;;;;;;;;;;
"saplmj22";"1985";;"Windows 7";"Rachel's Experiment (D.T.)";"1.0";"2";"1";"1";"2";"2";"1";"2014-09-08 13:26:12.129";"2014-09-08 13:47:01.314";"1";"0";"1";"532";"36";"module.training_block1.exec-1056.GoNoGo1";;;;;;;;;;;;;;;;;;;;;;;"1250";"2014-09-08 13:37:07.551";"NST_correctLoc";"22";"1";"FINISHED";"RIGHT";"success";"320";"0";"2014-09-08 13:37:06.301";"3";;;;;;;;;;;;;;;;;;;;;;;;;;;;;;;;;;;;;;;;;;;;;;;;;;;;;;;;;
"saplmj22";"1985";;"Windows 7";"Rachel's Experiment (D.T.)";"1.0";"2";"1";"1";"2";"2";"1";"2014-09-08 13:26:12.129";"2014-09-08 13:47:01.314";"1";"0";"1";"533";"37";"module.training_block1.exec-1056.GoNoGo1";;;;;;;;;;;;;;;;;;;;;;;"1249";"2014-09-08 13:37:10.101";"NST_correctLoc";"16";"1";"FINISHED";"RIGHT";"success";"358";"0";"2014-09-08 13:37:08.851";"2";;;;;;;;;;;;;;;;;;;;;;;;;;;;;;;;;;;;;;;;;;;;;;;;;;;;;;;;;
"saplmj22";"1985";;"Windows 7";"Rachel's Experiment (D.T.)";"1.0";"2";"1";"1";"2";"2";"1";"2014-09-08 13:26:12.129";"2014-09-08 13:47:01.314";"1";"0";"1";"534";"38";"module.training_block1.exec-1056.GoNoGo1";;;;;;;;;;;;;;;;;;;;;;;"1250";"2014-09-08 13:37:12.652";"NST_correctLoc";"4";"0";"FINISHED";"LEFT";"success";"282";"0";"2014-09-08 13:37:11.402";"1";;;;;;;;;;;;;;;;;;;;;;;;;;;;;;;;;;;;;;;;;;;;;;;;;;;;;;;;;
"saplmj22";"1985";;"Windows 7";"Rachel's Experiment (D.T.)";"1.0";"2";"1";"1";"2";"2";"1";"2014-09-08 13:26:12.129";"2014-09-08 13:47:01.314";"1";"0";"1";"535";"39";"module.training_block1.exec-1056.GoNoGo1";;;;;;;;;;;;;;;;;;;;;;;"1250";"2014-09-08 13:37:15.200";"NST_correctLoc";"32";"1";"FINISHED";"RIGHT";"success";"324";"0";"2014-09-08 13:37:13.950";"3";;;;;;;;;;;;;;;;;;;;;;;;;;;;;;;;;;;;;;;;;;;;;;;;;;;;;;;;;
"saplmj22";"1985";;"Windows 7";"Rachel's Experiment (D.T.)";"1.0";"2";"1";"1";"2";"2";"1";"2014-09-08 13:26:12.129";"2014-09-08 13:47:01.314";"1";"0";"1";"536";"40";"module.training_block1.exec-1056.GoNoGo1";;;;;;;;;;;;;;;;;;;;;;;"1249";"2014-09-08 13:37:17.741";"NST_correctLoc";"27";"0";"FINISHED";"LEFT";"success";"366";"0";"2014-09-08 13:37:16.491";"3";;;;;;;;;;;;;;;;;;;;;;;;;;;;;;;;;;;;;;;;;;;;;;;;;;;;;;;;;
"saplmj22";"1985";;"Windows 7";"Rachel's Experiment (D.T.)";"1.0";"2";"1";"1";"2";"2";"1";"2014-09-08 13:26:12.129";"2014-09-08 13:47:01.314";"1";"0";"1";"537";"41";"module.training_block1.exec-1056.GoNoGo1";;;;;;;;;;;;;;;;;;;;;;;"1249";"2014-09-08 13:37:20.273";"NST_correctLoc";"11";"0";"FINISHED";"LEFT";"success";"363";"0";"2014-09-08 13:37:19.023";"2";;;;;;;;;;;;;;;;;;;;;;;;;;;;;;;;;;;;;;;;;;;;;;;;;;;;;;;;;
"saplmj22";"1985";;"Windows 7";"Rachel's Experiment (D.T.)";"1.0";"2";"1";"1";"2";"2";"1";"2014-09-08 13:26:12.129";"2014-09-08 13:47:01.314";"1";"0";"1";"538";"42";"module.training_block1.exec-1056.GoNoGo1";;;;;;;;;;;;;;;;;;;;;;;"1249";"2014-09-08 13:37:22.815";"NST_correctLoc";"34";"1";"FINISHED";"RIGHT";"success";"322";"0";"2014-09-08 13:37:21.565";"3";;;;;;;;;;;;;;;;;;;;;;;;;;;;;;;;;;;;;;;;;;;;;;;;;;;;;;;;;
"saplmj22";"1985";;"Windows 7";"Rachel's Experiment (D.T.)";"1.0";"2";"1";"1";"2";"2";"1";"2014-09-08 13:26:12.129";"2014-09-08 13:47:01.314";"1";"0";"1";"539";"43";"module.training_block1.exec-1056.GoNoGo1";;;;;;;;;;;;;;;;;;;;;;;"1249";"2014-09-08 13:37:25.362";"NST_correctLoc";"8";"1";"FINISHED";"RIGHT";"success";"347";"0";"2014-09-08 13:37:24.112";"1";;;;;;;;;;;;;;;;;;;;;;;;;;;;;;;;;;;;;;;;;;;;;;;;;;;;;;;;;
"saplmj22";"1985";;"Windows 7";"Rachel's Experiment (D.T.)";"1.0";"2";"1";"1";"2";"2";"1";"2014-09-08 13:26:12.129";"2014-09-08 13:47:01.314";"1";"0";"1";"540";"44";"module.training_block1.exec-1056.GoNoGo1";;;;;;;;;;;;;;;;;;;;;;;"1250";"2014-09-08 13:37:27.915";"NST_correctLoc";"31";"1";"FINISHED";"RIGHT";"success";"303";"0";"2014-09-08 13:37:26.665";"3";;;;;;;;;;;;;;;;;;;;;;;;;;;;;;;;;;;;;;;;;;;;;;;;;;;;;;;;;
"saplmj22";"1985";;"Windows 7";"Rachel's Experiment (D.T.)";"1.0";"2";"1";"1";"2";"2";"1";"2014-09-08 13:26:12.129";"2014-09-08 13:47:01.314";"1";"0";"1";"541";"45";"module.training_block1.exec-1056.GoNoGo1";;;;;;;;;;;;;;;;;;;;;;;"1249";"2014-09-08 13:37:30.460";"NST_correctLoc";"13";"0";"FINISHED";"LEFT";"success";"310";"0";"2014-09-08 13:37:29.210";"2";;;;;;;;;;;;;;;;;;;;;;;;;;;;;;;;;;;;;;;;;;;;;;;;;;;;;;;;;
"saplmj22";"1985";;"Windows 7";"Rachel's Experiment (D.T.)";"1.0";"2";"1";"1";"2";"2";"1";"2014-09-08 13:26:12.129";"2014-09-08 13:47:01.314";"1";"0";"1";"542";"46";"module.training_block1.exec-1056.GoNoGo1";;;;;;;;;;;;;;;;;;;;;;;"1249";"2014-09-08 13:37:33.002";"NST_correctLoc";"30";"0";"FINISHED";"LEFT";"success";"373";"0";"2014-09-08 13:37:31.752";"3";;;;;;;;;;;;;;;;;;;;;;;;;;;;;;;;;;;;;;;;;;;;;;;;;;;;;;;;;
"saplmj22";"1985";;"Windows 7";"Rachel's Experiment (D.T.)";"1.0";"2";"1";"1";"2";"2";"1";"2014-09-08 13:26:12.129";"2014-09-08 13:47:01.314";"1";"0";"1";"543";"47";"module.training_block1.exec-1056.GoNoGo1";;;;;;;;;;;;;;;;;;;;;;;"1249";"2014-09-08 13:37:35.538";"NST_correctLoc";"2";"0";"FINISHED";"LEFT";"success";"391";"0";"2014-09-08 13:37:34.288";"1";;;;;;;;;;;;;;;;;;;;;;;;;;;;;;;;;;;;;;;;;;;;;;;;;;;;;;;;;
"saplmj22";"1985";;"Windows 7";"Rachel's Experiment (D.T.)";"1.0";"2";"1";"1";"2";"2";"1";"2014-09-08 13:26:12.129";"2014-09-08 13:47:01.314";"1";"0";"1";"544";"48";"module.training_block1.exec-1056.GoNoGo1";;;;;;;;;;;;;;;;;;;;;;;"1249";"2014-09-08 13:37:38.081";"NST_correctLoc";"14";"0";"FINISHED";"LEFT";"success";"313";"0";"2014-09-08 13:37:36.831";"2";;;;;;;;;;;;;;;;;;;;;;;;;;;;;;;;;;;;;;;;;;;;;;;;;;;;;;;;;
"saplmj22";"1985";;"Windows 7";"Rachel's Experiment (D.T.)";"1.0";"2";"1";"1";"2";"2";"1";"2014-09-08 13:26:12.129";"2014-09-08 13:47:01.314";"1";"0";"1";"545";"49";"module.training_block1.exec-1056.GoNoGo1";;;;;;;;;;;;;;;;;;;;;;;"1250";"2014-09-08 13:37:40.633";"NST_correctLoc";"10";"1";"FINISHED";"RIGHT";"success";"309";"0";"2014-09-08 13:37:39.383";"2";;;;;;;;;;;;;;;;;;;;;;;;;;;;;;;;;;;;;;;;;;;;;;;;;;;;;;;;;
"saplmj22";"1985";;"Windows 7";"Rachel's Experiment (D.T.)";"1.0";"2";"1";"1";"2";"2";"1";"2014-09-08 13:26:12.129";"2014-09-08 13:47:01.314";"1";"0";"1";"546";"50";"module.training_block1.exec-1056.GoNoGo1";;;;;;;;;;;;;;;;;;;;;;;"1250";"2014-09-08 13:37:43.190";"NST_correctLoc";"29";"1";"FINISHED";"RIGHT";"success";"366";"0";"2014-09-08 13:37:41.940";"3";;;;;;;;;;;;;;;;;;;;;;;;;;;;;;;;;;;;;;;;;;;;;;;;;;;;;;;;;
"saplmj22";"1985";;"Windows 7";"Rachel's Experiment (D.T.)";"1.0";"2";"1";"1";"2";"2";"1";"2014-09-08 13:26:12.129";"2014-09-08 13:47:01.314";"1";"0";"1";"547";"51";"module.training_block2.exec-8158.GoNoGo2";;;;;;;;;;;;;;;;;;;;;;;;;;;;;;;;;;;"1249";"2014-09-08 13:37:56.007";"NST_correctLoc";"7";"0";"FINISHED";"LEFT";"success";"365";"0";"2014-09-08 13:37:54.757";"1";;;;;;;;;;;;;;;;;;;;;;;;;;;;;;;;;;;;;;;;;;;;;
"saplmj22";"1985";;"Windows 7";"Rachel's Experiment (D.T.)";"1.0";"2";"1";"1";"2";"2";"1";"2014-09-08 13:26:12.129";"2014-09-08 13:47:01.314";"1";"0";"1";"548";"52";"module.training_block2.exec-8158.GoNoGo2";;;;;;;;;;;;;;;;;;;;;;;;;;;;;;;;;;;"1249";"2014-09-08 13:37:58.548";"NST_correctLoc";"28";"0";"FINISHED";"LEFT";"success";"340";"0";"2014-09-08 13:37:57.298";"3";;;;;;;;;;;;;;;;;;;;;;;;;;;;;;;;;;;;;;;;;;;;;
"saplmj22";"1985";;"Windows 7";"Rachel's Experiment (D.T.)";"1.0";"2";"1";"1";"2";"2";"1";"2014-09-08 13:26:12.129";"2014-09-08 13:47:01.314";"1";"0";"1";"549";"53";"module.training_block2.exec-8158.GoNoGo2";;;;;;;;;;;;;;;;;;;;;;;;;;;;;;;;;;;"1249";"2014-09-08 13:38:01.088";"NST_correctLoc";"8";"0";"FINISHED";"LEFT";"success";"327";"0";"2014-09-08 13:37:59.838";"1";;;;;;;;;;;;;;;;;;;;;;;;;;;;;;;;;;;;;;;;;;;;;
"saplmj22";"1985";;"Windows 7";"Rachel's Experiment (D.T.)";"1.0";"2";"1";"1";"2";"2";"1";"2014-09-08 13:26:12.129";"2014-09-08 13:47:01.314";"1";"0";"1";"550";"54";"module.training_block2.exec-8158.GoNoGo2";;;;;;;;;;;;;;;;;;;;;;;;;;;;;;;;;;;"1249";"2014-09-08 13:38:03.628";"NST_correctLoc";"19";"1";"FINISHED";"RIGHT";"success";"307";"0";"2014-09-08 13:38:02.378";"3";;;;;;;;;;;;;;;;;;;;;;;;;;;;;;;;;;;;;;;;;;;;;
"saplmj22";"1985";;"Windows 7";"Rachel's Experiment (D.T.)";"1.0";"2";"1";"1";"2";"2";"1";"2014-09-08 13:26:12.129";"2014-09-08 13:47:01.314";"1";"0";"1";"551";"55";"module.training_block2.exec-8158.GoNoGo2";;;;;;;;;;;;;;;;;;;;;;;;;;;;;;;;;;;"1249";"2014-09-08 13:38:06.165";"NST_correctLoc";"31";"1";"FINISHED";"RIGHT";"success";"327";"0";"2014-09-08 13:38:04.915";"3";;;;;;;;;;;;;;;;;;;;;;;;;;;;;;;;;;;;;;;;;;;;;
"saplmj22";"1985";;"Windows 7";"Rachel's Experiment (D.T.)";"1.0";"2";"1";"1";"2";"2";"1";"2014-09-08 13:26:12.129";"2014-09-08 13:47:01.314";"1";"0";"1";"552";"56";"module.training_block2.exec-8158.GoNoGo2";;;;;;;;;;;;;;;;;;;;;;;;;;;;;;;;;;;"1249";"2014-09-08 13:38:08.706";"NST_correctLoc";"20";"0";"FINISHED";"LEFT";"success";"369";"0";"2014-09-08 13:38:07.456";"3";;;;;;;;;;;;;;;;;;;;;;;;;;;;;;;;;;;;;;;;;;;;;
"saplmj22";"1985";;"Windows 7";"Rachel's Experiment (D.T.)";"1.0";"2";"1";"1";"2";"2";"1";"2014-09-08 13:26:12.129";"2014-09-08 13:47:01.314";"1";"0";"1";"553";"57";"module.training_block2.exec-8158.GoNoGo2";;;;;;;;;;;;;;;;;;;;;;;;;;;;;;;;;;;"1249";"2014-09-08 13:38:11.242";"NST_correctLoc";"15";"1";"FINISHED";"RIGHT";"success";"312";"0";"2014-09-08 13:38:09.991";"2";;;;;;;;;;;;;;;;;;;;;;;;;;;;;;;;;;;;;;;;;;;;;
"saplmj22";"1985";;"Windows 7";"Rachel's Experiment (D.T.)";"1.0";"2";"1";"1";"2";"2";"1";"2014-09-08 13:26:12.129";"2014-09-08 13:47:01.314";"1";"0";"1";"554";"58";"module.training_block2.exec-8158.GoNoGo2";;;;;;;;;;;;;;;;;;;;;;;;;;;;;;;;;;;"1249";"2014-09-08 13:38:13.783";"NST_correctLoc";"27";"1";"FINISHED";"RIGHT";"success";"388";"0";"2014-09-08 13:38:12.533";"3";;;;;;;;;;;;;;;;;;;;;;;;;;;;;;;;;;;;;;;;;;;;;
"saplmj22";"1985";;"Windows 7";"Rachel's Experiment (D.T.)";"1.0";"2";"1";"1";"2";"2";"1";"2014-09-08 13:26:12.129";"2014-09-08 13:47:01.314";"1";"0";"1";"555";"59";"module.training_block2.exec-8158.GoNoGo2";;;;;;;;;;;;;;;;;;;;;;;;;;;;;;;;;;;"1249";"2014-09-08 13:38:16.324";"NST_correctLoc";"29";"0";"FINISHED";"LEFT";"success";"527";"0";"2014-09-08 13:38:15.074";"3";;;;;;;;;;;;;;;;;;;;;;;;;;;;;;;;;;;;;;;;;;;;;
"saplmj22";"1985";;"Windows 7";"Rachel's Experiment (D.T.)";"1.0";"2";"1";"1";"2";"2";"1";"2014-09-08 13:26:12.129";"2014-09-08 13:47:01.314";"1";"0";"1";"556";"60";"module.training_block2.exec-8158.GoNoGo2";;;;;;;;;;;;;;;;;;;;;;;;;;;;;;;;;;;"1249";"2014-09-08 13:38:18.858";"NST_correctLoc";"18";"0";"FINISHED";"LEFT";"success";"749";"0";"2014-09-08 13:38:17.608";"3";;;;;;;;;;;;;;;;;;;;;;;;;;;;;;;;;;;;;;;;;;;;;
"saplmj22";"1985";;"Windows 7";"Rachel's Experiment (D.T.)";"1.0";"2";"1";"1";"2";"2";"1";"2014-09-08 13:26:12.129";"2014-09-08 13:47:01.314";"1";"0";"1";"557";"61";"module.training_block2.exec-8158.GoNoGo2";;;;;;;;;;;;;;;;;;;;;;;;;;;;;;;;;;;"1249";"2014-09-08 13:38:21.398";"NST_correctLoc";"35";"0";"FINISHED";"LEFT";"success";"468";"0";"2014-09-08 13:38:20.148";"3";;;;;;;;;;;;;;;;;;;;;;;;;;;;;;;;;;;;;;;;;;;;;
"saplmj22";"1985";;"Windows 7";"Rachel's Experiment (D.T.)";"1.0";"2";"1";"1";"2";"2";"1";"2014-09-08 13:26:12.129";"2014-09-08 13:47:01.314";"1";"0";"1";"558";"62";"module.training_block2.exec-8158.GoNoGo2";;;;;;;;;;;;;;;;;;;;;;;;;;;;;;;;;;;"1249";"2014-09-08 13:38:23.938";"NST_correctLoc";"24";"0";"FINISHED";"LEFT";"success";"432";"0";"2014-09-08 13:38:22.688";"3";;;;;;;;;;;;;;;;;;;;;;;;;;;;;;;;;;;;;;;;;;;;;
"saplmj22";"1985";;"Windows 7";"Rachel's Experiment (D.T.)";"1.0";"2";"1";"1";"2";"2";"1";"2014-09-08 13:26:12.129";"2014-09-08 13:47:01.314";"1";"0";"1";"559";"63";"module.training_block2.exec-8158.GoNoGo2";;;;;;;;;;;;;;;;;;;;;;;;;;;;;;;;;;;"1249";"2014-09-08 13:38:26.475";"NST_correctLoc";"0";"1";"FINISHED";"RIGHT";"success";"311";"0";"2014-09-08 13:38:25.225";"1";;;;;;;;;;;;;;;;;;;;;;;;;;;;;;;;;;;;;;;;;;;;;
"saplmj22";"1985";;"Windows 7";"Rachel's Experiment (D.T.)";"1.0";"2";"1";"1";"2";"2";"1";"2014-09-08 13:26:12.129";"2014-09-08 13:47:01.314";"1";"0";"1";"560";"64";"module.training_block2.exec-8158.GoNoGo2";;;;;;;;;;;;;;;;;;;;;;;;;;;;;;;;;;;"1249";"2014-09-08 13:38:29.016";"NST_correctLoc";"9";"0";"FINISHED";"LEFT";"success";"379";"0";"2014-09-08 13:38:27.765";"2";;;;;;;;;;;;;;;;;;;;;;;;;;;;;;;;;;;;;;;;;;;;;
"saplmj22";"1985";;"Windows 7";"Rachel's Experiment (D.T.)";"1.0";"2";"1";"1";"2";"2";"1";"2014-09-08 13:26:12.129";"2014-09-08 13:47:01.314";"1";"0";"1";"561";"65";"module.training_block2.exec-8158.GoNoGo2";;;;;;;;;;;;;;;;;;;;;;;;;;;;;;;;;;;"1249";"2014-09-08 13:38:31.681";"NST_correctLoc";"5";"0";"FINISHED";"LEFT";"success";"310";"0";"2014-09-08 13:38:30.431";"1";;;;;;;;;;;;;;;;;;;;;;;;;;;;;;;;;;;;;;;;;;;;;
"saplmj22";"1985";;"Windows 7";"Rachel's Experiment (D.T.)";"1.0";"2";"1";"1";"2";"2";"1";"2014-09-08 13:26:12.129";"2014-09-08 13:47:01.314";"1";"0";"1";"562";"66";"module.training_block2.exec-8158.GoNoGo2";;;;;;;;;;;;;;;;;;;;;;;;;;;;;;;;;;;"1249";"2014-09-08 13:38:34.229";"NST_correctLoc";"1";"0";"FINISHED";"LEFT";"success";"451";"0";"2014-09-08 13:38:32.979";"1";;;;;;;;;;;;;;;;;;;;;;;;;;;;;;;;;;;;;;;;;;;;;
"saplmj22";"1985";;"Windows 7";"Rachel's Experiment (D.T.)";"1.0";"2";"1";"1";"2";"2";"1";"2014-09-08 13:26:12.129";"2014-09-08 13:47:01.314";"1";"0";"1";"563";"67";"module.training_block2.exec-8158.GoNoGo2";;;;;;;;;;;;;;;;;;;;;;;;;;;;;;;;;;;"1249";"2014-09-08 13:38:36.773";"NST_correctLoc";"16";"0";"FINISHED";"LEFT";"success";"367";"0";"2014-09-08 13:38:35.523";"2";;;;;;;;;;;;;;;;;;;;;;;;;;;;;;;;;;;;;;;;;;;;;
"saplmj22";"1985";;"Windows 7";"Rachel's Experiment (D.T.)";"1.0";"2";"1";"1";"2";"2";"1";"2014-09-08 13:26:12.129";"2014-09-08 13:47:01.314";"1";"0";"1";"564";"68";"module.training_block2.exec-8158.GoNoGo2";;;;;;;;;;;;;;;;;;;;;;;;;;;;;;;;;;;"1249";"2014-09-08 13:38:39.322";"NST_correctLoc";"6";"1";"FINISHED";"RIGHT";"success";"377";"0";"2014-09-08 13:38:38.072";"1";;;;;;;;;;;;;;;;;;;;;;;;;;;;;;;;;;;;;;;;;;;;;
"saplmj22";"1985";;"Windows 7";"Rachel's Experiment (D.T.)";"1.0";"2";"1";"1";"2";"2";"1";"2014-09-08 13:26:12.129";"2014-09-08 13:47:01.314";"1";"0";"1";"565";"69";"module.training_block2.exec-8158.GoNoGo2";;;;;;;;;;;;;;;;;;;;;;;;;;;;;;;;;;;"1249";"2014-09-08 13:38:41.869";"NST_correctLoc";"11";"0";"FINISHED";"LEFT";"success";"375";"0";"2014-09-08 13:38:40.619";"2";;;;;;;;;;;;;;;;;;;;;;;;;;;;;;;;;;;;;;;;;;;;;
"saplmj22";"1985";;"Windows 7";"Rachel's Experiment (D.T.)";"1.0";"2";"1";"1";"2";"2";"1";"2014-09-08 13:26:12.129";"2014-09-08 13:47:01.314";"1";"0";"1";"566";"70";"module.training_block2.exec-8158.GoNoGo2";;;;;;;;;;;;;;;;;;;;;;;;;;;;;;;;;;;"1250";"2014-09-08 13:38:44.418";"NST_correctLoc";"32";"0";"FINISHED";"LEFT";"success";"380";"0";"2014-09-08 13:38:43.168";"3";;;;;;;;;;;;;;;;;;;;;;;;;;;;;;;;;;;;;;;;;;;;;
"saplmj22";"1985";;"Windows 7";"Rachel's Experiment (D.T.)";"1.0";"2";"1";"1";"2";"2";"1";"2014-09-08 13:26:12.129";"2014-09-08 13:47:01.314";"1";"0";"1";"567";"71";"module.training_block2.exec-8158.GoNoGo2";;;;;;;;;;;;;;;;;;;;;;;;;;;;;;;;;;;"1250";"2014-09-08 13:38:46.967";"NST_correctLoc";"26";"1";"FINISHED";"RIGHT";"success";"396";"0";"2014-09-08 13:38:45.716";"3";;;;;;;;;;;;;;;;;;;;;;;;;;;;;;;;;;;;;;;;;;;;;
"saplmj22";"1985";;"Windows 7";"Rachel's Experiment (D.T.)";"1.0";"2";"1";"1";"2";"2";"1";"2014-09-08 13:26:12.129";"2014-09-08 13:47:01.314";"1";"0";"1";"568";"72";"module.training_block2.exec-8158.GoNoGo2";;;;;;;;;;;;;;;;;;;;;;;;;;;;;;;;;;;"1250";"2014-09-08 13:38:49.516";"NST_correctLoc";"25";"0";"FINISHED";"LEFT";"success";"361";"0";"2014-09-08 13:38:48.266";"3";;;;;;;;;;;;;;;;;;;;;;;;;;;;;;;;;;;;;;;;;;;;;
"saplmj22";"1985";;"Windows 7";"Rachel's Experiment (D.T.)";"1.0";"2";"1";"1";"2";"2";"1";"2014-09-08 13:26:12.129";"2014-09-08 13:47:01.314";"1";"0";"1";"569";"73";"module.training_block2.exec-8158.GoNoGo2";;;;;;;;;;;;;;;;;;;;;;;;;;;;;;;;;;;"1250";"2014-09-08 13:38:52.062";"NST_correctLoc";"3";"0";"FINISHED";"LEFT";"success";"361";"0";"2014-09-08 13:38:50.812";"1";;;;;;;;;;;;;;;;;;;;;;;;;;;;;;;;;;;;;;;;;;;;;
"saplmj22";"1985";;"Windows 7";"Rachel's Experiment (D.T.)";"1.0";"2";"1";"1";"2";"2";"1";"2014-09-08 13:26:12.129";"2014-09-08 13:47:01.314";"1";"0";"1";"570";"74";"module.training_block2.exec-8158.GoNoGo2";;;;;;;;;;;;;;;;;;;;;;;;;;;;;;;;;;;"1250";"2014-09-08 13:38:54.610";"NST_correctLoc";"12";"1";"FINISHED";"RIGHT";"success";"322";"0";"2014-09-08 13:38:53.360";"2";;;;;;;;;;;;;;;;;;;;;;;;;;;;;;;;;;;;;;;;;;;;;
"saplmj22";"1985";;"Windows 7";"Rachel's Experiment (D.T.)";"1.0";"2";"1";"1";"2";"2";"1";"2014-09-08 13:26:12.129";"2014-09-08 13:47:01.314";"1";"0";"1";"571";"75";"module.training_block2.exec-8158.GoNoGo2";;;;;;;;;;;;;;;;;;;;;;;;;;;;;;;;;;;"1249";"2014-09-08 13:38:57.159";"NST_correctLoc";"21";"1";"FINISHED";"RIGHT";"success";"436";"0";"2014-09-08 13:38:55.909";"3";;;;;;;;;;;;;;;;;;;;;;;;;;;;;;;;;;;;;;;;;;;;;
"saplmj22";"1985";;"Windows 7";"Rachel's Experiment (D.T.)";"1.0";"2";"1";"1";"2";"2";"1";"2014-09-08 13:26:12.129";"2014-09-08 13:47:01.314";"1";"0";"1";"572";"76";"module.training_block2.exec-8158.GoNoGo2";;;;;;;;;;;;;;;;;;;;;;;;;;;;;;;;;;;"1249";"2014-09-08 13:38:59.713";"NST_correctLoc";"23";"1";"FINISHED";"RIGHT";"success";"367";"0";"2014-09-08 13:38:58.463";"3";;;;;;;;;;;;;;;;;;;;;;;;;;;;;;;;;;;;;;;;;;;;;
"saplmj22";"1985";;"Windows 7";"Rachel's Experiment (D.T.)";"1.0";"2";"1";"1";"2";"2";"1";"2014-09-08 13:26:12.129";"2014-09-08 13:47:01.314";"1";"0";"1";"573";"77";"module.training_block2.exec-8158.GoNoGo2";;;;;;;;;;;;;;;;;;;;;;;;;;;;;;;;;;;"1249";"2014-09-08 13:39:02.262";"NST_correctLoc";"14";"0";"FINISHED";"LEFT";"success";"303";"0";"2014-09-08 13:39:01.012";"2";;;;;;;;;;;;;;;;;;;;;;;;;;;;;;;;;;;;;;;;;;;;;
"saplmj22";"1985";;"Windows 7";"Rachel's Experiment (D.T.)";"1.0";"2";"1";"1";"2";"2";"1";"2014-09-08 13:26:12.129";"2014-09-08 13:47:01.314";"1";"0";"1";"574";"78";"module.training_block2.exec-8158.GoNoGo2";;;;;;;;;;;;;;;;;;;;;;;;;;;;;;;;;;;"1249";"2014-09-08 13:39:04.821";"NST_wrongLoc";"13";"0";"FINISHED";"RIGHT";"failure";"341";"0";"2014-09-08 13:39:03.570";"2";;;;;;;;;;;;;;;;;;;;;;;;;;;;;;;;;;;;;;;;;;;;;
"saplmj22";"1985";;"Windows 7";"Rachel's Experiment (D.T.)";"1.0";"2";"1";"1";"2";"2";"1";"2014-09-08 13:26:12.129";"2014-09-08 13:47:01.314";"1";"0";"1";"575";"79";"module.training_block2.exec-8158.GoNoGo2";;;;;;;;;;;;;;;;;;;;;;;;;;;;;;;;;;;"1249";"2014-09-08 13:39:07.359";"NST_correctLoc";"10";"0";"FINISHED";"LEFT";"success";"343";"0";"2014-09-08 13:39:06.109";"2";;;;;;;;;;;;;;;;;;;;;;;;;;;;;;;;;;;;;;;;;;;;;
"saplmj22";"1985";;"Windows 7";"Rachel's Experiment (D.T.)";"1.0";"2";"1";"1";"2";"2";"1";"2014-09-08 13:26:12.129";"2014-09-08 13:47:01.314";"1";"0";"1";"576";"80";"module.training_block2.exec-8158.GoNoGo2";;;;;;;;;;;;;;;;;;;;;;;;;;;;;;;;;;;"1249";"2014-09-08 13:39:09.891";"NST_correctLoc";"17";"0";"FINISHED";"LEFT";"success";"346";"0";"2014-09-08 13:39:08.641";"2";;;;;;;;;;;;;;;;;;;;;;;;;;;;;;;;;;;;;;;;;;;;;
"saplmj22";"1985";;"Windows 7";"Rachel's Experiment (D.T.)";"1.0";"2";"1";"1";"2";"2";"1";"2014-09-08 13:26:12.129";"2014-09-08 13:47:01.314";"1";"0";"1";"577";"81";"module.training_block2.exec-8158.GoNoGo2";;;;;;;;;;;;;;;;;;;;;;;;;;;;;;;;;;;"1249";"2014-09-08 13:39:12.438";"NST_correctLoc";"33";"1";"FINISHED";"RIGHT";"success";"361";"0";"2014-09-08 13:39:11.188";"3";;;;;;;;;;;;;;;;;;;;;;;;;;;;;;;;;;;;;;;;;;;;;
"saplmj22";"1985";;"Windows 7";"Rachel's Experiment (D.T.)";"1.0";"2";"1";"1";"2";"2";"1";"2014-09-08 13:26:12.129";"2014-09-08 13:47:01.314";"1";"0";"1";"578";"82";"module.training_block2.exec-8158.GoNoGo2";;;;;;;;;;;;;;;;;;;;;;;;;;;;;;;;;;;"1250";"2014-09-08 13:39:14.984";"NST_correctLoc";"30";"1";"FINISHED";"RIGHT";"success";"393";"0";"2014-09-08 13:39:13.734";"3";;;;;;;;;;;;;;;;;;;;;;;;;;;;;;;;;;;;;;;;;;;;;
"saplmj22";"1985";;"Windows 7";"Rachel's Experiment (D.T.)";"1.0";"2";"1";"1";"2";"2";"1";"2014-09-08 13:26:12.129";"2014-09-08 13:47:01.314";"1";"0";"1";"579";"83";"module.training_block2.exec-8158.GoNoGo2";;;;;;;;;;;;;;;;;;;;;;;;;;;;;;;;;;;"1249";"2014-09-08 13:39:17.529";"NST_correctLoc";"22";"1";"FINISHED";"RIGHT";"success";"412";"0";"2014-09-08 13:39:16.279";"3";;;;;;;;;;;;;;;;;;;;;;;;;;;;;;;;;;;;;;;;;;;;;
"saplmj22";"1985";;"Windows 7";"Rachel's Experiment (D.T.)";"1.0";"2";"1";"1";"2";"2";"1";"2014-09-08 13:26:12.129";"2014-09-08 13:47:01.314";"1";"0";"1";"580";"84";"module.training_block2.exec-8158.GoNoGo2";;;;;;;;;;;;;;;;;;;;;;;;;;;;;;;;;;;"1249";"2014-09-08 13:39:20.078";"NST_correctLoc";"2";"0";"FINISHED";"LEFT";"success";"435";"0";"2014-09-08 13:39:18.828";"1";;;;;;;;;;;;;;;;;;;;;;;;;;;;;;;;;;;;;;;;;;;;;
"saplmj22";"1985";;"Windows 7";"Rachel's Experiment (D.T.)";"1.0";"2";"1";"1";"2";"2";"1";"2014-09-08 13:26:12.129";"2014-09-08 13:47:01.314";"1";"0";"1";"581";"85";"module.training_block2.exec-8158.GoNoGo2";;;;;;;;;;;;;;;;;;;;;;;;;;;;;;;;;;;"1249";"2014-09-08 13:39:22.623";"NST_correctLoc";"34";"0";"FINISHED";"LEFT";"success";"369";"0";"2014-09-08 13:39:21.373";"3";;;;;;;;;;;;;;;;;;;;;;;;;;;;;;;;;;;;;;;;;;;;;
"saplmj22";"1985";;"Windows 7";"Rachel's Experiment (D.T.)";"1.0";"2";"1";"1";"2";"2";"1";"2014-09-08 13:26:12.129";"2014-09-08 13:47:01.314";"1";"0";"1";"582";"86";"module.training_block2.exec-8158.GoNoGo2";;;;;;;;;;;;;;;;;;;;;;;;;;;;;;;;;;;"1249";"2014-09-08 13:39:25.165";"NST_correctLoc";"4";"0";"FINISHED";"LEFT";"success";"435";"0";"2014-09-08 13:39:23.915";"1";;;;;;;;;;;;;;;;;;;;;;;;;;;;;;;;;;;;;;;;;;;;;
"saplmj22";"1985";;"Windows 7";"Rachel's Experiment (D.T.)";"1.0";"2";"1";"1";"2";"2";"1";"2014-09-08 13:26:12.129";"2014-09-08 13:47:01.314";"1";"0";"1";"583";"87";"module.training_block3.exec-6110.GoNoGo3";;;;;;;;;;;;;;;;;;;;;;;;;;;;;;;;;;;;;;;;;;;;;;;"1250";"2014-09-08 13:39:36.150";"NST_correctLoc";"4";"0";"FINISHED";"LEFT";"success";"269";"0";"2014-09-08 13:39:34.900";"1";;;;;;;;;;;;;;;;;;;;;;;;;;;;;;;;;
"saplmj22";"1985";;"Windows 7";"Rachel's Experiment (D.T.)";"1.0";"2";"1";"1";"2";"2";"1";"2014-09-08 13:26:12.129";"2014-09-08 13:47:01.314";"1";"0";"1";"584";"88";"module.training_block3.exec-6110.GoNoGo3";;;;;;;;;;;;;;;;;;;;;;;;;;;;;;;;;;;;;;;;;;;;;;;"1250";"2014-09-08 13:39:38.687";"NST_correctLoc";"10";"0";"FINISHED";"LEFT";"success";"292";"0";"2014-09-08 13:39:37.436";"2";;;;;;;;;;;;;;;;;;;;;;;;;;;;;;;;;
"saplmj22";"1985";;"Windows 7";"Rachel's Experiment (D.T.)";"1.0";"2";"1";"1";"2";"2";"1";"2014-09-08 13:26:12.129";"2014-09-08 13:47:01.314";"1";"0";"1";"585";"89";"module.training_block3.exec-6110.GoNoGo3";;;;;;;;;;;;;;;;;;;;;;;;;;;;;;;;;;;;;;;;;;;;;;;"1250";"2014-09-08 13:39:41.225";"NST_correctLoc";"22";"0";"FINISHED";"LEFT";"success";"352";"0";"2014-09-08 13:39:39.975";"3";;;;;;;;;;;;;;;;;;;;;;;;;;;;;;;;;
"saplmj22";"1985";;"Windows 7";"Rachel's Experiment (D.T.)";"1.0";"2";"1";"1";"2";"2";"1";"2014-09-08 13:26:12.129";"2014-09-08 13:47:01.314";"1";"0";"1";"586";"90";"module.training_block3.exec-6110.GoNoGo3";;;;;;;;;;;;;;;;;;;;;;;;;;;;;;;;;;;;;;;;;;;;;;;"1249";"2014-09-08 13:39:43.774";"NST_correctLoc";"7";"0";"FINISHED";"LEFT";"success";"407";"0";"2014-09-08 13:39:42.524";"1";;;;;;;;;;;;;;;;;;;;;;;;;;;;;;;;;
"saplmj22";"1985";;"Windows 7";"Rachel's Experiment (D.T.)";"1.0";"2";"1";"1";"2";"2";"1";"2014-09-08 13:26:12.129";"2014-09-08 13:47:01.314";"1";"0";"1";"587";"91";"module.training_block3.exec-6110.GoNoGo3";;;;;;;;;;;;;;;;;;;;;;;;;;;;;;;;;;;;;;;;;;;;;;;"1250";"2014-09-08 13:39:46.308";"NST_correctLoc";"25";"0";"FINISHED";"LEFT";"success";"352";"0";"2014-09-08 13:39:45.058";"3";;;;;;;;;;;;;;;;;;;;;;;;;;;;;;;;;
"saplmj22";"1985";;"Windows 7";"Rachel's Experiment (D.T.)";"1.0";"2";"1";"1";"2";"2";"1";"2014-09-08 13:26:12.129";"2014-09-08 13:47:01.314";"1";"0";"1";"588";"92";"module.training_block3.exec-6110.GoNoGo3";;;;;;;;;;;;;;;;;;;;;;;;;;;;;;;;;;;;;;;;;;;;;;;"1249";"2014-09-08 13:39:48.846";"NST_correctLoc";"5";"1";"FINISHED";"RIGHT";"success";"329";"0";"2014-09-08 13:39:47.596";"1";;;;;;;;;;;;;;;;;;;;;;;;;;;;;;;;;
"saplmj22";"1985";;"Windows 7";"Rachel's Experiment (D.T.)";"1.0";"2";"1";"1";"2";"2";"1";"2014-09-08 13:26:12.129";"2014-09-08 13:47:01.314";"1";"0";"1";"589";"93";"module.training_block3.exec-6110.GoNoGo3";;;;;;;;;;;;;;;;;;;;;;;;;;;;;;;;;;;;;;;;;;;;;;;"1249";"2014-09-08 13:39:51.383";"NST_correctLoc";"14";"0";"FINISHED";"LEFT";"success";"295";"0";"2014-09-08 13:39:50.133";"2";;;;;;;;;;;;;;;;;;;;;;;;;;;;;;;;;
"saplmj22";"1985";;"Windows 7";"Rachel's Experiment (D.T.)";"1.0";"2";"1";"1";"2";"2";"1";"2014-09-08 13:26:12.129";"2014-09-08 13:47:01.314";"1";"0";"1";"590";"94";"module.training_block3.exec-6110.GoNoGo3";;;;;;;;;;;;;;;;;;;;;;;;;;;;;;;;;;;;;;;;;;;;;;;"1250";"2014-09-08 13:39:53.927";"NST_correctLoc";"35";"0";"FINISHED";"LEFT";"success";"304";"0";"2014-09-08 13:39:52.677";"3";;;;;;;;;;;;;;;;;;;;;;;;;;;;;;;;;
"saplmj22";"1985";;"Windows 7";"Rachel's Experiment (D.T.)";"1.0";"2";"1";"1";"2";"2";"1";"2014-09-08 13:26:12.129";"2014-09-08 13:47:01.314";"1";"0";"1";"591";"95";"module.training_block3.exec-6110.GoNoGo3";;;;;;;;;;;;;;;;;;;;;;;;;;;;;;;;;;;;;;;;;;;;;;;"1249";"2014-09-08 13:39:56.466";"NST_correctLoc";"16";"1";"FINISHED";"RIGHT";"success";"415";"0";"2014-09-08 13:39:55.215";"2";;;;;;;;;;;;;;;;;;;;;;;;;;;;;;;;;
"saplmj22";"1985";;"Windows 7";"Rachel's Experiment (D.T.)";"1.0";"2";"1";"1";"2";"2";"1";"2014-09-08 13:26:12.129";"2014-09-08 13:47:01.314";"1";"0";"1";"592";"96";"module.training_block3.exec-6110.GoNoGo3";;;;;;;;;;;;;;;;;;;;;;;;;;;;;;;;;;;;;;;;;;;;;;;"1249";"2014-09-08 13:39:59.013";"NST_correctLoc";"32";"1";"FINISHED";"RIGHT";"success";"349";"0";"2014-09-08 13:39:57.763";"3";;;;;;;;;;;;;;;;;;;;;;;;;;;;;;;;;
"saplmj22";"1985";;"Windows 7";"Rachel's Experiment (D.T.)";"1.0";"2";"1";"1";"2";"2";"1";"2014-09-08 13:26:12.129";"2014-09-08 13:47:01.314";"1";"0";"1";"593";"97";"module.training_block3.exec-6110.GoNoGo3";;;;;;;;;;;;;;;;;;;;;;;;;;;;;;;;;;;;;;;;;;;;;;;"1249";"2014-09-08 13:40:01.548";"NST_correctLoc";"1";"0";"FINISHED";"LEFT";"success";"348";"0";"2014-09-08 13:40:00.298";"1";;;;;;;;;;;;;;;;;;;;;;;;;;;;;;;;;
"saplmj22";"1985";;"Windows 7";"Rachel's Experiment (D.T.)";"1.0";"2";"1";"1";"2";"2";"1";"2014-09-08 13:26:12.129";"2014-09-08 13:47:01.314";"1";"0";"1";"594";"98";"module.training_block3.exec-6110.GoNoGo3";;;;;;;;;;;;;;;;;;;;;;;;;;;;;;;;;;;;;;;;;;;;;;;"1249";"2014-09-08 13:40:04.083";"NST_correctLoc";"2";"0";"FINISHED";"LEFT";"success";"329";"0";"2014-09-08 13:40:02.833";"1";;;;;;;;;;;;;;;;;;;;;;;;;;;;;;;;;
"saplmj22";"1985";;"Windows 7";"Rachel's Experiment (D.T.)";"1.0";"2";"1";"1";"2";"2";"1";"2014-09-08 13:26:12.129";"2014-09-08 13:47:01.314";"1";"0";"1";"595";"99";"module.training_block3.exec-6110.GoNoGo3";;;;;;;;;;;;;;;;;;;;;;;;;;;;;;;;;;;;;;;;;;;;;;;"1249";"2014-09-08 13:40:06.616";"NST_correctLoc";"21";"0";"FINISHED";"LEFT";"success";"341";"0";"2014-09-08 13:40:05.366";"3";;;;;;;;;;;;;;;;;;;;;;;;;;;;;;;;;
"saplmj22";"1985";;"Windows 7";"Rachel's Experiment (D.T.)";"1.0";"2";"1";"1";"2";"2";"1";"2014-09-08 13:26:12.129";"2014-09-08 13:47:01.314";"1";"0";"1";"596";"100";"module.training_block3.exec-6110.GoNoGo3";;;;;;;;;;;;;;;;;;;;;;;;;;;;;;;;;;;;;;;;;;;;;;;"1250";"2014-09-08 13:40:09.160";"NST_correctLoc";"24";"0";"FINISHED";"LEFT";"success";"337";"0";"2014-09-08 13:40:07.910";"3";;;;;;;;;;;;;;;;;;;;;;;;;;;;;;;;;
"saplmj22";"1985";;"Windows 7";"Rachel's Experiment (D.T.)";"1.0";"2";"1";"1";"2";"2";"1";"2014-09-08 13:26:12.129";"2014-09-08 13:47:01.314";"1";"0";"1";"597";"101";"module.training_block3.exec-6110.GoNoGo3";;;;;;;;;;;;;;;;;;;;;;;;;;;;;;;;;;;;;;;;;;;;;;;"1250";"2014-09-08 13:40:11.702";"NST_correctLoc";"28";"1";"FINISHED";"RIGHT";"success";"316";"0";"2014-09-08 13:40:10.452";"3";;;;;;;;;;;;;;;;;;;;;;;;;;;;;;;;;
"saplmj22";"1985";;"Windows 7";"Rachel's Experiment (D.T.)";"1.0";"2";"1";"1";"2";"2";"1";"2014-09-08 13:26:12.129";"2014-09-08 13:47:01.314";"1";"0";"1";"598";"102";"module.training_block3.exec-6110.GoNoGo3";;;;;;;;;;;;;;;;;;;;;;;;;;;;;;;;;;;;;;;;;;;;;;;"1250";"2014-09-08 13:40:14.238";"NST_correctLoc";"23";"1";"FINISHED";"RIGHT";"success";"408";"0";"2014-09-08 13:40:12.987";"3";;;;;;;;;;;;;;;;;;;;;;;;;;;;;;;;;
"saplmj22";"1985";;"Windows 7";"Rachel's Experiment (D.T.)";"1.0";"2";"1";"1";"2";"2";"1";"2014-09-08 13:26:12.129";"2014-09-08 13:47:01.314";"1";"0";"1";"599";"103";"module.training_block3.exec-6110.GoNoGo3";;;;;;;;;;;;;;;;;;;;;;;;;;;;;;;;;;;;;;;;;;;;;;;"1250";"2014-09-08 13:40:16.788";"NST_correctLoc";"18";"1";"FINISHED";"RIGHT";"success";"333";"0";"2014-09-08 13:40:15.538";"3";;;;;;;;;;;;;;;;;;;;;;;;;;;;;;;;;
"saplmj22";"1985";;"Windows 7";"Rachel's Experiment (D.T.)";"1.0";"2";"1";"1";"2";"2";"1";"2014-09-08 13:26:12.129";"2014-09-08 13:47:01.314";"1";"0";"1";"600";"104";"module.training_block3.exec-6110.GoNoGo3";;;;;;;;;;;;;;;;;;;;;;;;;;;;;;;;;;;;;;;;;;;;;;;"1249";"2014-09-08 13:40:19.330";"NST_correctLoc";"19";"1";"FINISHED";"RIGHT";"success";"308";"0";"2014-09-08 13:40:18.080";"3";;;;;;;;;;;;;;;;;;;;;;;;;;;;;;;;;
"saplmj22";"1985";;"Windows 7";"Rachel's Experiment (D.T.)";"1.0";"2";"1";"1";"2";"2";"1";"2014-09-08 13:26:12.129";"2014-09-08 13:47:01.314";"1";"0";"1";"601";"105";"module.training_block3.exec-6110.GoNoGo3";;;;;;;;;;;;;;;;;;;;;;;;;;;;;;;;;;;;;;;;;;;;;;;"1249";"2014-09-08 13:40:21.873";"NST_correctLoc";"27";"1";"FINISHED";"RIGHT";"success";"479";"0";"2014-09-08 13:40:20.623";"3";;;;;;;;;;;;;;;;;;;;;;;;;;;;;;;;;
"saplmj22";"1985";;"Windows 7";"Rachel's Experiment (D.T.)";"1.0";"2";"1";"1";"2";"2";"1";"2014-09-08 13:26:12.129";"2014-09-08 13:47:01.314";"1";"0";"1";"602";"106";"module.training_block3.exec-6110.GoNoGo3";;;;;;;;;;;;;;;;;;;;;;;;;;;;;;;;;;;;;;;;;;;;;;;"1249";"2014-09-08 13:40:24.405";"NST_correctLoc";"33";"1";"FINISHED";"RIGHT";"success";"322";"0";"2014-09-08 13:40:23.155";"3";;;;;;;;;;;;;;;;;;;;;;;;;;;;;;;;;
"saplmj22";"1985";;"Windows 7";"Rachel's Experiment (D.T.)";"1.0";"2";"1";"1";"2";"2";"1";"2014-09-08 13:26:12.129";"2014-09-08 13:47:01.314";"1";"0";"1";"603";"107";"module.training_block3.exec-6110.GoNoGo3";;;;;;;;;;;;;;;;;;;;;;;;;;;;;;;;;;;;;;;;;;;;;;;"1249";"2014-09-08 13:40:26.940";"NST_correctLoc";"29";"0";"FINISHED";"LEFT";"success";"312";"0";"2014-09-08 13:40:25.690";"3";;;;;;;;;;;;;;;;;;;;;;;;;;;;;;;;;
"saplmj22";"1985";;"Windows 7";"Rachel's Experiment (D.T.)";"1.0";"2";"1";"1";"2";"2";"1";"2014-09-08 13:26:12.129";"2014-09-08 13:47:01.314";"1";"0";"1";"604";"108";"module.training_block3.exec-6110.GoNoGo3";;;;;;;;;;;;;;;;;;;;;;;;;;;;;;;;;;;;;;;;;;;;;;;"1250";"2014-09-08 13:40:29.482";"NST_correctLoc";"31";"0";"FINISHED";"LEFT";"success";"307";"0";"2014-09-08 13:40:28.232";"3";;;;;;;;;;;;;;;;;;;;;;;;;;;;;;;;;
"saplmj22";"1985";;"Windows 7";"Rachel's Experiment (D.T.)";"1.0";"2";"1";"1";"2";"2";"1";"2014-09-08 13:26:12.129";"2014-09-08 13:47:01.314";"1";"0";"1";"605";"109";"module.training_block3.exec-6110.GoNoGo3";;;;;;;;;;;;;;;;;;;;;;;;;;;;;;;;;;;;;;;;;;;;;;;"1249";"2014-09-08 13:40:32.017";"NST_correctLoc";"13";"0";"FINISHED";"LEFT";"success";"379";"0";"2014-09-08 13:40:30.766";"2";;;;;;;;;;;;;;;;;;;;;;;;;;;;;;;;;
"saplmj22";"1985";;"Windows 7";"Rachel's Experiment (D.T.)";"1.0";"2";"1";"1";"2";"2";"1";"2014-09-08 13:26:12.129";"2014-09-08 13:47:01.314";"1";"0";"1";"606";"110";"module.training_block3.exec-6110.GoNoGo3";;;;;;;;;;;;;;;;;;;;;;;;;;;;;;;;;;;;;;;;;;;;;;;"1250";"2014-09-08 13:40:34.561";"NST_correctLoc";"15";"1";"FINISHED";"RIGHT";"success";"334";"0";"2014-09-08 13:40:33.311";"2";;;;;;;;;;;;;;;;;;;;;;;;;;;;;;;;;
"saplmj22";"1985";;"Windows 7";"Rachel's Experiment (D.T.)";"1.0";"2";"1";"1";"2";"2";"1";"2014-09-08 13:26:12.129";"2014-09-08 13:47:01.314";"1";"0";"1";"607";"111";"module.training_block3.exec-6110.GoNoGo3";;;;;;;;;;;;;;;;;;;;;;;;;;;;;;;;;;;;;;;;;;;;;;;"1250";"2014-09-08 13:40:37.094";"NST_correctLoc";"11";"0";"FINISHED";"LEFT";"success";"387";"0";"2014-09-08 13:40:35.844";"2";;;;;;;;;;;;;;;;;;;;;;;;;;;;;;;;;
"saplmj22";"1985";;"Windows 7";"Rachel's Experiment (D.T.)";"1.0";"2";"1";"1";"2";"2";"1";"2014-09-08 13:26:12.129";"2014-09-08 13:47:01.314";"1";"0";"1";"608";"112";"module.training_block3.exec-6110.GoNoGo3";;;;;;;;;;;;;;;;;;;;;;;;;;;;;;;;;;;;;;;;;;;;;;;"1250";"2014-09-08 13:40:39.629";"NST_correctLoc";"3";"0";"FINISHED";"LEFT";"success";"338";"0";"2014-09-08 13:40:38.378";"1";;;;;;;;;;;;;;;;;;;;;;;;;;;;;;;;;
"saplmj22";"1985";;"Windows 7";"Rachel's Experiment (D.T.)";"1.0";"2";"1";"1";"2";"2";"1";"2014-09-08 13:26:12.129";"2014-09-08 13:47:01.314";"1";"0";"1";"609";"113";"module.training_block3.exec-6110.GoNoGo3";;;;;;;;;;;;;;;;;;;;;;;;;;;;;;;;;;;;;;;;;;;;;;;"1250";"2014-09-08 13:40:42.171";"NST_correctLoc";"20";"1";"FINISHED";"RIGHT";"success";"335";"0";"2014-09-08 13:40:40.921";"3";;;;;;;;;;;;;;;;;;;;;;;;;;;;;;;;;
"saplmj22";"1985";;"Windows 7";"Rachel's Experiment (D.T.)";"1.0";"2";"1";"1";"2";"2";"1";"2014-09-08 13:26:12.129";"2014-09-08 13:47:01.314";"1";"0";"1";"610";"114";"module.training_block3.exec-6110.GoNoGo3";;;;;;;;;;;;;;;;;;;;;;;;;;;;;;;;;;;;;;;;;;;;;;;"1249";"2014-09-08 13:40:44.706";"NST_correctLoc";"6";"0";"FINISHED";"LEFT";"success";"319";"0";"2014-09-08 13:40:43.456";"1";;;;;;;;;;;;;;;;;;;;;;;;;;;;;;;;;
"saplmj22";"1985";;"Windows 7";"Rachel's Experiment (D.T.)";"1.0";"2";"1";"1";"2";"2";"1";"2014-09-08 13:26:12.129";"2014-09-08 13:47:01.314";"1";"0";"1";"611";"115";"module.training_block3.exec-6110.GoNoGo3";;;;;;;;;;;;;;;;;;;;;;;;;;;;;;;;;;;;;;;;;;;;;;;"1250";"2014-09-08 13:40:47.240";"NST_correctLoc";"17";"0";"FINISHED";"LEFT";"success";"382";"0";"2014-09-08 13:40:45.990";"2";;;;;;;;;;;;;;;;;;;;;;;;;;;;;;;;;
"saplmj22";"1985";;"Windows 7";"Rachel's Experiment (D.T.)";"1.0";"2";"1";"1";"2";"2";"1";"2014-09-08 13:26:12.129";"2014-09-08 13:47:01.314";"1";"0";"1";"612";"116";"module.training_block3.exec-6110.GoNoGo3";;;;;;;;;;;;;;;;;;;;;;;;;;;;;;;;;;;;;;;;;;;;;;;"1250";"2014-09-08 13:40:49.786";"NST_correctLoc";"8";"1";"FINISHED";"RIGHT";"success";"296";"0";"2014-09-08 13:40:48.536";"1";;;;;;;;;;;;;;;;;;;;;;;;;;;;;;;;;
"saplmj22";"1985";;"Windows 7";"Rachel's Experiment (D.T.)";"1.0";"2";"1";"1";"2";"2";"1";"2014-09-08 13:26:12.129";"2014-09-08 13:47:01.314";"1";"0";"1";"613";"117";"module.training_block3.exec-6110.GoNoGo3";;;;;;;;;;;;;;;;;;;;;;;;;;;;;;;;;;;;;;;;;;;;;;;"1249";"2014-09-08 13:40:52.318";"NST_correctLoc";"12";"1";"FINISHED";"RIGHT";"success";"356";"0";"2014-09-08 13:40:51.068";"2";;;;;;;;;;;;;;;;;;;;;;;;;;;;;;;;;
"saplmj22";"1985";;"Windows 7";"Rachel's Experiment (D.T.)";"1.0";"2";"1";"1";"2";"2";"1";"2014-09-08 13:26:12.129";"2014-09-08 13:47:01.314";"1";"0";"1";"614";"118";"module.training_block3.exec-6110.GoNoGo3";;;;;;;;;;;;;;;;;;;;;;;;;;;;;;;;;;;;;;;;;;;;;;;"1249";"2014-09-08 13:40:54.855";"NST_correctLoc";"30";"0";"FINISHED";"LEFT";"success";"336";"0";"2014-09-08 13:40:53.605";"3";;;;;;;;;;;;;;;;;;;;;;;;;;;;;;;;;
"saplmj22";"1985";;"Windows 7";"Rachel's Experiment (D.T.)";"1.0";"2";"1";"1";"2";"2";"1";"2014-09-08 13:26:12.129";"2014-09-08 13:47:01.314";"1";"0";"1";"615";"119";"module.training_block3.exec-6110.GoNoGo3";;;;;;;;;;;;;;;;;;;;;;;;;;;;;;;;;;;;;;;;;;;;;;;"1250";"2014-09-08 13:40:57.390";"NST_correctLoc";"26";"0";"FINISHED";"LEFT";"success";"390";"0";"2014-09-08 13:40:56.140";"3";;;;;;;;;;;;;;;;;;;;;;;;;;;;;;;;;
"saplmj22";"1985";;"Windows 7";"Rachel's Experiment (D.T.)";"1.0";"2";"1";"1";"2";"2";"1";"2014-09-08 13:26:12.129";"2014-09-08 13:47:01.314";"1";"0";"1";"616";"120";"module.training_block3.exec-6110.GoNoGo3";;;;;;;;;;;;;;;;;;;;;;;;;;;;;;;;;;;;;;;;;;;;;;;"1250";"2014-09-08 13:40:59.923";"NST_correctLoc";"34";"0";"FINISHED";"LEFT";"success";"471";"0";"2014-09-08 13:40:58.673";"3";;;;;;;;;;;;;;;;;;;;;;;;;;;;;;;;;
"saplmj22";"1985";;"Windows 7";"Rachel's Experiment (D.T.)";"1.0";"2";"1";"1";"2";"2";"1";"2014-09-08 13:26:12.129";"2014-09-08 13:47:01.314";"1";"0";"1";"617";"121";"module.training_block3.exec-6110.GoNoGo3";;;;;;;;;;;;;;;;;;;;;;;;;;;;;;;;;;;;;;;;;;;;;;;"1249";"2014-09-08 13:41:02.467";"NST_correctLoc";"0";"0";"FINISHED";"LEFT";"success";"300";"0";"2014-09-08 13:41:01.217";"1";;;;;;;;;;;;;;;;;;;;;;;;;;;;;;;;;
"saplmj22";"1985";;"Windows 7";"Rachel's Experiment (D.T.)";"1.0";"2";"1";"1";"2";"2";"1";"2014-09-08 13:26:12.129";"2014-09-08 13:47:01.314";"1";"0";"1";"618";"122";"module.training_block3.exec-6110.GoNoGo3";;;;;;;;;;;;;;;;;;;;;;;;;;;;;;;;;;;;;;;;;;;;;;;"1250";"2014-09-08 13:41:05.002";"NST_correctLoc";"9";"1";"FINISHED";"RIGHT";"success";"322";"0";"2014-09-08 13:41:03.752";"2";;;;;;;;;;;;;;;;;;;;;;;;;;;;;;;;;
"saplmj22";"1985";;"Windows 7";"Rachel's Experiment (D.T.)";"1.0";"2";"1";"1";"2";"2";"1";"2014-09-08 13:26:12.129";"2014-09-08 13:47:01.314";"1";"0";"1";"619";"123";"module.training_block4.exec-6700.GoNoGo4";;;;;;;;;;;;;;;;;;;;;;;;;;;;;;;;;;;;;;;;;;;;;;;;;;;;;;;;;;;"1250";"2014-09-08 13:41:16.227";"NST_correctLoc";"33";"1";"FINISHED";"RIGHT";"success";"324";"0";"2014-09-08 13:41:14.977";"3";;;;;;;;;;;;;;;;;;;;;
"saplmj22";"1985";;"Windows 7";"Rachel's Experiment (D.T.)";"1.0";"2";"1";"1";"2";"2";"1";"2014-09-08 13:26:12.129";"2014-09-08 13:47:01.314";"1";"0";"1";"620";"124";"module.training_block4.exec-6700.GoNoGo4";;;;;;;;;;;;;;;;;;;;;;;;;;;;;;;;;;;;;;;;;;;;;;;;;;;;;;;;;;;"1250";"2014-09-08 13:41:18.762";"NST_correctLoc";"21";"1";"FINISHED";"RIGHT";"success";"407";"0";"2014-09-08 13:41:17.511";"3";;;;;;;;;;;;;;;;;;;;;
"saplmj22";"1985";;"Windows 7";"Rachel's Experiment (D.T.)";"1.0";"2";"1";"1";"2";"2";"1";"2014-09-08 13:26:12.129";"2014-09-08 13:47:01.314";"1";"0";"1";"621";"125";"module.training_block4.exec-6700.GoNoGo4";;;;;;;;;;;;;;;;;;;;;;;;;;;;;;;;;;;;;;;;;;;;;;;;;;;;;;;;;;;"1249";"2014-09-08 13:41:21.296";"NST_correctLoc";"22";"1";"FINISHED";"RIGHT";"success";"345";"0";"2014-09-08 13:41:20.046";"3";;;;;;;;;;;;;;;;;;;;;
"saplmj22";"1985";;"Windows 7";"Rachel's Experiment (D.T.)";"1.0";"2";"1";"1";"2";"2";"1";"2014-09-08 13:26:12.129";"2014-09-08 13:47:01.314";"1";"0";"1";"622";"126";"module.training_block4.exec-6700.GoNoGo4";;;;;;;;;;;;;;;;;;;;;;;;;;;;;;;;;;;;;;;;;;;;;;;;;;;;;;;;;;;"1249";"2014-09-08 13:41:23.831";"NST_correctLoc";"35";"0";"FINISHED";"LEFT";"success";"457";"0";"2014-09-08 13:41:22.580";"3";;;;;;;;;;;;;;;;;;;;;
"saplmj22";"1985";;"Windows 7";"Rachel's Experiment (D.T.)";"1.0";"2";"1";"1";"2";"2";"1";"2014-09-08 13:26:12.129";"2014-09-08 13:47:01.314";"1";"0";"1";"623";"127";"module.training_block4.exec-6700.GoNoGo4";;;;;;;;;;;;;;;;;;;;;;;;;;;;;;;;;;;;;;;;;;;;;;;;;;;;;;;;;;;"1250";"2014-09-08 13:41:26.367";"NST_correctLoc";"11";"0";"FINISHED";"LEFT";"success";"363";"0";"2014-09-08 13:41:25.117";"2";;;;;;;;;;;;;;;;;;;;;
"saplmj22";"1985";;"Windows 7";"Rachel's Experiment (D.T.)";"1.0";"2";"1";"1";"2";"2";"1";"2014-09-08 13:26:12.129";"2014-09-08 13:47:01.314";"1";"0";"1";"624";"128";"module.training_block4.exec-6700.GoNoGo4";;;;;;;;;;;;;;;;;;;;;;;;;;;;;;;;;;;;;;;;;;;;;;;;;;;;;;;;;;;"1249";"2014-09-08 13:41:28.901";"NST_correctLoc";"6";"1";"FINISHED";"RIGHT";"success";"361";"0";"2014-09-08 13:41:27.651";"1";;;;;;;;;;;;;;;;;;;;;
"saplmj22";"1985";;"Windows 7";"Rachel's Experiment (D.T.)";"1.0";"2";"1";"1";"2";"2";"1";"2014-09-08 13:26:12.129";"2014-09-08 13:47:01.314";"1";"0";"1";"625";"129";"module.training_block4.exec-6700.GoNoGo4";;;;;;;;;;;;;;;;;;;;;;;;;;;;;;;;;;;;;;;;;;;;;;;;;;;;;;;;;;;"1250";"2014-09-08 13:41:31.435";"NST_correctLoc";"9";"1";"FINISHED";"RIGHT";"success";"355";"0";"2014-09-08 13:41:30.184";"2";;;;;;;;;;;;;;;;;;;;;
"saplmj22";"1985";;"Windows 7";"Rachel's Experiment (D.T.)";"1.0";"2";"1";"1";"2";"2";"1";"2014-09-08 13:26:12.129";"2014-09-08 13:47:01.314";"1";"0";"1";"626";"130";"module.training_block4.exec-6700.GoNoGo4";;;;;;;;;;;;;;;;;;;;;;;;;;;;;;;;;;;;;;;;;;;;;;;;;;;;;;;;;;;"1250";"2014-09-08 13:41:33.970";"NST_correctLoc";"2";"0";"FINISHED";"LEFT";"success";"336";"0";"2014-09-08 13:41:32.719";"1";;;;;;;;;;;;;;;;;;;;;
"saplmj22";"1985";;"Windows 7";"Rachel's Experiment (D.T.)";"1.0";"2";"1";"1";"2";"2";"1";"2014-09-08 13:26:12.129";"2014-09-08 13:47:01.314";"1";"0";"1";"627";"131";"module.training_block4.exec-6700.GoNoGo4";;;;;;;;;;;;;;;;;;;;;;;;;;;;;;;;;;;;;;;;;;;;;;;;;;;;;;;;;;;"1250";"2014-09-08 13:41:36.505";"NST_correctLoc";"20";"1";"FINISHED";"RIGHT";"success";"361";"0";"2014-09-08 13:41:35.255";"3";;;;;;;;;;;;;;;;;;;;;
"saplmj22";"1985";;"Windows 7";"Rachel's Experiment (D.T.)";"1.0";"2";"1";"1";"2";"2";"1";"2014-09-08 13:26:12.129";"2014-09-08 13:47:01.314";"1";"0";"1";"628";"132";"module.training_block4.exec-6700.GoNoGo4";;;;;;;;;;;;;;;;;;;;;;;;;;;;;;;;;;;;;;;;;;;;;;;;;;;;;;;;;;;"1249";"2014-09-08 13:41:39.039";"NST_correctLoc";"7";"0";"FINISHED";"LEFT";"success";"351";"0";"2014-09-08 13:41:37.789";"1";;;;;;;;;;;;;;;;;;;;;
"saplmj22";"1985";;"Windows 7";"Rachel's Experiment (D.T.)";"1.0";"2";"1";"1";"2";"2";"1";"2014-09-08 13:26:12.129";"2014-09-08 13:47:01.314";"1";"0";"1";"629";"133";"module.training_block4.exec-6700.GoNoGo4";;;;;;;;;;;;;;;;;;;;;;;;;;;;;;;;;;;;;;;;;;;;;;;;;;;;;;;;;;;"1249";"2014-09-08 13:41:41.574";"NST_correctLoc";"0";"0";"FINISHED";"LEFT";"success";"368";"0";"2014-09-08 13:41:40.323";"1";;;;;;;;;;;;;;;;;;;;;
"saplmj22";"1985";;"Windows 7";"Rachel's Experiment (D.T.)";"1.0";"2";"1";"1";"2";"2";"1";"2014-09-08 13:26:12.129";"2014-09-08 13:47:01.314";"1";"0";"1";"630";"134";"module.training_block4.exec-6700.GoNoGo4";;;;;;;;;;;;;;;;;;;;;;;;;;;;;;;;;;;;;;;;;;;;;;;;;;;;;;;;;;;"1249";"2014-09-08 13:41:44.108";"NST_correctLoc";"10";"1";"FINISHED";"RIGHT";"success";"388";"0";"2014-09-08 13:41:42.858";"2";;;;;;;;;;;;;;;;;;;;;
"saplmj22";"1985";;"Windows 7";"Rachel's Experiment (D.T.)";"1.0";"2";"1";"1";"2";"2";"1";"2014-09-08 13:26:12.129";"2014-09-08 13:47:01.314";"1";"0";"1";"631";"135";"module.training_block4.exec-6700.GoNoGo4";;;;;;;;;;;;;;;;;;;;;;;;;;;;;;;;;;;;;;;;;;;;;;;;;;;;;;;;;;;"1249";"2014-09-08 13:41:46.649";"NST_correctLoc";"19";"1";"FINISHED";"RIGHT";"success";"376";"0";"2014-09-08 13:41:45.399";"3";;;;;;;;;;;;;;;;;;;;;
"saplmj22";"1985";;"Windows 7";"Rachel's Experiment (D.T.)";"1.0";"2";"1";"1";"2";"2";"1";"2014-09-08 13:26:12.129";"2014-09-08 13:47:01.314";"1";"0";"1";"632";"136";"module.training_block4.exec-6700.GoNoGo4";;;;;;;;;;;;;;;;;;;;;;;;;;;;;;;;;;;;;;;;;;;;;;;;;;;;;;;;;;;"1249";"2014-09-08 13:41:49.183";"NST_correctLoc";"24";"1";"FINISHED";"RIGHT";"success";"380";"0";"2014-09-08 13:41:47.933";"3";;;;;;;;;;;;;;;;;;;;;
"saplmj22";"1985";;"Windows 7";"Rachel's Experiment (D.T.)";"1.0";"2";"1";"1";"2";"2";"1";"2014-09-08 13:26:12.129";"2014-09-08 13:47:01.314";"1";"0";"1";"633";"137";"module.training_block4.exec-6700.GoNoGo4";;;;;;;;;;;;;;;;;;;;;;;;;;;;;;;;;;;;;;;;;;;;;;;;;;;;;;;;;;;"1249";"2014-09-08 13:41:51.717";"NST_correctLoc";"26";"1";"FINISHED";"RIGHT";"success";"409";"0";"2014-09-08 13:41:50.467";"3";;;;;;;;;;;;;;;;;;;;;
"saplmj22";"1985";;"Windows 7";"Rachel's Experiment (D.T.)";"1.0";"2";"1";"1";"2";"2";"1";"2014-09-08 13:26:12.129";"2014-09-08 13:47:01.314";"1";"0";"1";"634";"138";"module.training_block4.exec-6700.GoNoGo4";;;;;;;;;;;;;;;;;;;;;;;;;;;;;;;;;;;;;;;;;;;;;;;;;;;;;;;;;;;"1249";"2014-09-08 13:41:54.250";"NST_correctLoc";"29";"1";"FINISHED";"RIGHT";"success";"378";"0";"2014-09-08 13:41:53.000";"3";;;;;;;;;;;;;;;;;;;;;
"saplmj22";"1985";;"Windows 7";"Rachel's Experiment (D.T.)";"1.0";"2";"1";"1";"2";"2";"1";"2014-09-08 13:26:12.129";"2014-09-08 13:47:01.314";"1";"0";"1";"635";"139";"module.training_block4.exec-6700.GoNoGo4";;;;;;;;;;;;;;;;;;;;;;;;;;;;;;;;;;;;;;;;;;;;;;;;;;;;;;;;;;;"1249";"2014-09-08 13:41:56.784";"NST_correctLoc";"13";"0";"FINISHED";"LEFT";"success";"339";"0";"2014-09-08 13:41:55.534";"2";;;;;;;;;;;;;;;;;;;;;
"saplmj22";"1985";;"Windows 7";"Rachel's Experiment (D.T.)";"1.0";"2";"1";"1";"2";"2";"1";"2014-09-08 13:26:12.129";"2014-09-08 13:47:01.314";"1";"0";"1";"636";"140";"module.training_block4.exec-6700.GoNoGo4";;;;;;;;;;;;;;;;;;;;;;;;;;;;;;;;;;;;;;;;;;;;;;;;;;;;;;;;;;;"1249";"2014-09-08 13:41:59.320";"NST_correctLoc";"18";"0";"FINISHED";"LEFT";"success";"331";"0";"2014-09-08 13:41:58.069";"3";;;;;;;;;;;;;;;;;;;;;
"saplmj22";"1985";;"Windows 7";"Rachel's Experiment (D.T.)";"1.0";"2";"1";"1";"2";"2";"1";"2014-09-08 13:26:12.129";"2014-09-08 13:47:01.314";"1";"0";"1";"637";"141";"module.training_block4.exec-6700.GoNoGo4";;;;;;;;;;;;;;;;;;;;;;;;;;;;;;;;;;;;;;;;;;;;;;;;;;;;;;;;;;;"1249";"2014-09-08 13:42:01.853";"NST_correctLoc";"12";"0";"FINISHED";"LEFT";"success";"390";"0";"2014-09-08 13:42:00.603";"2";;;;;;;;;;;;;;;;;;;;;
"saplmj22";"1985";;"Windows 7";"Rachel's Experiment (D.T.)";"1.0";"2";"1";"1";"2";"2";"1";"2014-09-08 13:26:12.129";"2014-09-08 13:47:01.314";"1";"0";"1";"638";"142";"module.training_block4.exec-6700.GoNoGo4";;;;;;;;;;;;;;;;;;;;;;;;;;;;;;;;;;;;;;;;;;;;;;;;;;;;;;;;;;;"1249";"2014-09-08 13:42:04.387";"NST_correctLoc";"3";"0";"FINISHED";"LEFT";"success";"282";"0";"2014-09-08 13:42:03.137";"1";;;;;;;;;;;;;;;;;;;;;
"saplmj22";"1985";;"Windows 7";"Rachel's Experiment (D.T.)";"1.0";"2";"1";"1";"2";"2";"1";"2014-09-08 13:26:12.129";"2014-09-08 13:47:01.314";"1";"0";"1";"639";"143";"module.training_block4.exec-6700.GoNoGo4";;;;;;;;;;;;;;;;;;;;;;;;;;;;;;;;;;;;;;;;;;;;;;;;;;;;;;;;;;;"1249";"2014-09-08 13:42:06.922";"NST_correctLoc";"4";"0";"FINISHED";"LEFT";"success";"333";"0";"2014-09-08 13:42:05.672";"1";;;;;;;;;;;;;;;;;;;;;
"saplmj22";"1985";;"Windows 7";"Rachel's Experiment (D.T.)";"1.0";"2";"1";"1";"2";"2";"1";"2014-09-08 13:26:12.129";"2014-09-08 13:47:01.314";"1";"0";"1";"640";"144";"module.training_block4.exec-6700.GoNoGo4";;;;;;;;;;;;;;;;;;;;;;;;;;;;;;;;;;;;;;;;;;;;;;;;;;;;;;;;;;;"1249";"2014-09-08 13:42:09.456";"NST_correctLoc";"15";"1";"FINISHED";"RIGHT";"success";"318";"0";"2014-09-08 13:42:08.206";"2";;;;;;;;;;;;;;;;;;;;;
"saplmj22";"1985";;"Windows 7";"Rachel's Experiment (D.T.)";"1.0";"2";"1";"1";"2";"2";"1";"2014-09-08 13:26:12.129";"2014-09-08 13:47:01.314";"1";"0";"1";"641";"145";"module.training_block4.exec-6700.GoNoGo4";;;;;;;;;;;;;;;;;;;;;;;;;;;;;;;;;;;;;;;;;;;;;;;;;;;;;;;;;;;"1249";"2014-09-08 13:42:11.989";"NST_correctLoc";"17";"1";"FINISHED";"RIGHT";"success";"410";"0";"2014-09-08 13:42:10.739";"2";;;;;;;;;;;;;;;;;;;;;
"saplmj22";"1985";;"Windows 7";"Rachel's Experiment (D.T.)";"1.0";"2";"1";"1";"2";"2";"1";"2014-09-08 13:26:12.129";"2014-09-08 13:47:01.314";"1";"0";"1";"642";"146";"module.training_block4.exec-6700.GoNoGo4";;;;;;;;;;;;;;;;;;;;;;;;;;;;;;;;;;;;;;;;;;;;;;;;;;;;;;;;;;;"1249";"2014-09-08 13:42:14.524";"NST_correctLoc";"28";"0";"FINISHED";"LEFT";"success";"319";"0";"2014-09-08 13:42:13.274";"3";;;;;;;;;;;;;;;;;;;;;
"saplmj22";"1985";;"Windows 7";"Rachel's Experiment (D.T.)";"1.0";"2";"1";"1";"2";"2";"1";"2014-09-08 13:26:12.129";"2014-09-08 13:47:01.314";"1";"0";"1";"643";"147";"module.training_block4.exec-6700.GoNoGo4";;;;;;;;;;;;;;;;;;;;;;;;;;;;;;;;;;;;;;;;;;;;;;;;;;;;;;;;;;;"1250";"2014-09-08 13:42:17.060";"NST_correctLoc";"32";"1";"FINISHED";"RIGHT";"success";"375";"0";"2014-09-08 13:42:15.809";"3";;;;;;;;;;;;;;;;;;;;;
"saplmj22";"1985";;"Windows 7";"Rachel's Experiment (D.T.)";"1.0";"2";"1";"1";"2";"2";"1";"2014-09-08 13:26:12.129";"2014-09-08 13:47:01.314";"1";"0";"1";"644";"148";"module.training_block4.exec-6700.GoNoGo4";;;;;;;;;;;;;;;;;;;;;;;;;;;;;;;;;;;;;;;;;;;;;;;;;;;;;;;;;;;"1250";"2014-09-08 13:42:19.593";"NST_correctLoc";"1";"0";"FINISHED";"LEFT";"success";"321";"0";"2014-09-08 13:42:18.343";"1";;;;;;;;;;;;;;;;;;;;;
"saplmj22";"1985";;"Windows 7";"Rachel's Experiment (D.T.)";"1.0";"2";"1";"1";"2";"2";"1";"2014-09-08 13:26:12.129";"2014-09-08 13:47:01.314";"1";"0";"1";"645";"149";"module.training_block4.exec-6700.GoNoGo4";;;;;;;;;;;;;;;;;;;;;;;;;;;;;;;;;;;;;;;;;;;;;;;;;;;;;;;;;;;"1249";"2014-09-08 13:42:22.126";"NST_correctLoc";"27";"0";"FINISHED";"LEFT";"success";"292";"0";"2014-09-08 13:42:20.876";"3";;;;;;;;;;;;;;;;;;;;;
"saplmj22";"1985";;"Windows 7";"Rachel's Experiment (D.T.)";"1.0";"2";"1";"1";"2";"2";"1";"2014-09-08 13:26:12.129";"2014-09-08 13:47:01.314";"1";"0";"1";"646";"150";"module.training_block4.exec-6700.GoNoGo4";;;;;;;;;;;;;;;;;;;;;;;;;;;;;;;;;;;;;;;;;;;;;;;;;;;;;;;;;;;"1249";"2014-09-08 13:42:24.657";"NST_correctLoc";"16";"0";"FINISHED";"LEFT";"success";"317";"0";"2014-09-08 13:42:23.407";"2";;;;;;;;;;;;;;;;;;;;;
"saplmj22";"1985";;"Windows 7";"Rachel's Experiment (D.T.)";"1.0";"2";"1";"1";"2";"2";"1";"2014-09-08 13:26:12.129";"2014-09-08 13:47:01.314";"1";"0";"1";"647";"151";"module.training_block4.exec-6700.GoNoGo4";;;;;;;;;;;;;;;;;;;;;;;;;;;;;;;;;;;;;;;;;;;;;;;;;;;;;;;;;;;"1250";"2014-09-08 13:42:27.192";"NST_correctLoc";"31";"1";"FINISHED";"RIGHT";"success";"319";"0";"2014-09-08 13:42:25.942";"3";;;;;;;;;;;;;;;;;;;;;
"saplmj22";"1985";;"Windows 7";"Rachel's Experiment (D.T.)";"1.0";"2";"1";"1";"2";"2";"1";"2014-09-08 13:26:12.129";"2014-09-08 13:47:01.314";"1";"0";"1";"648";"152";"module.training_block4.exec-6700.GoNoGo4";;;;;;;;;;;;;;;;;;;;;;;;;;;;;;;;;;;;;;;;;;;;;;;;;;;;;;;;;;;"1249";"2014-09-08 13:42:29.726";"NST_correctLoc";"25";"0";"FINISHED";"LEFT";"success";"444";"0";"2014-09-08 13:42:28.476";"3";;;;;;;;;;;;;;;;;;;;;
"saplmj22";"1985";;"Windows 7";"Rachel's Experiment (D.T.)";"1.0";"2";"1";"1";"2";"2";"1";"2014-09-08 13:26:12.129";"2014-09-08 13:47:01.314";"1";"0";"1";"649";"153";"module.training_block4.exec-6700.GoNoGo4";;;;;;;;;;;;;;;;;;;;;;;;;;;;;;;;;;;;;;;;;;;;;;;;;;;;;;;;;;;"1250";"2014-09-08 13:42:32.258";"NST_wrongLoc";"30";"1";"FINISHED";"LEFT";"failure";"402";"0";"2014-09-08 13:42:31.008";"3";;;;;;;;;;;;;;;;;;;;;
"saplmj22";"1985";;"Windows 7";"Rachel's Experiment (D.T.)";"1.0";"2";"1";"1";"2";"2";"1";"2014-09-08 13:26:12.129";"2014-09-08 13:47:01.314";"1";"0";"1";"650";"154";"module.training_block4.exec-6700.GoNoGo4";;;;;;;;;;;;;;;;;;;;;;;;;;;;;;;;;;;;;;;;;;;;;;;;;;;;;;;;;;;"1249";"2014-09-08 13:42:34.792";"NST_correctLoc";"23";"0";"FINISHED";"LEFT";"success";"283";"0";"2014-09-08 13:42:33.542";"3";;;;;;;;;;;;;;;;;;;;;
"saplmj22";"1985";;"Windows 7";"Rachel's Experiment (D.T.)";"1.0";"2";"1";"1";"2";"2";"1";"2014-09-08 13:26:12.129";"2014-09-08 13:47:01.314";"1";"0";"1";"651";"155";"module.training_block4.exec-6700.GoNoGo4";;;;;;;;;;;;;;;;;;;;;;;;;;;;;;;;;;;;;;;;;;;;;;;;;;;;;;;;;;;"1249";"2014-09-08 13:42:37.332";"NST_correctLoc";"34";"0";"FINISHED";"LEFT";"success";"319";"0";"2014-09-08 13:42:36.082";"3";;;;;;;;;;;;;;;;;;;;;
"saplmj22";"1985";;"Windows 7";"Rachel's Experiment (D.T.)";"1.0";"2";"1";"1";"2";"2";"1";"2014-09-08 13:26:12.129";"2014-09-08 13:47:01.314";"1";"0";"1";"652";"156";"module.training_block4.exec-6700.GoNoGo4";;;;;;;;;;;;;;;;;;;;;;;;;;;;;;;;;;;;;;;;;;;;;;;;;;;;;;;;;;;"1249";"2014-09-08 13:42:39.866";"NST_correctLoc";"8";"1";"FINISHED";"RIGHT";"success";"369";"0";"2014-09-08 13:42:38.616";"1";;;;;;;;;;;;;;;;;;;;;
"saplmj22";"1985";;"Windows 7";"Rachel's Experiment (D.T.)";"1.0";"2";"1";"1";"2";"2";"1";"2014-09-08 13:26:12.129";"2014-09-08 13:47:01.314";"1";"0";"1";"653";"157";"module.training_block4.exec-6700.GoNoGo4";;;;;;;;;;;;;;;;;;;;;;;;;;;;;;;;;;;;;;;;;;;;;;;;;;;;;;;;;;;"1249";"2014-09-08 13:42:42.400";"NST_correctLoc";"14";"1";"FINISHED";"RIGHT";"success";"332";"0";"2014-09-08 13:42:41.150";"2";;;;;;;;;;;;;;;;;;;;;
"saplmj22";"1985";;"Windows 7";"Rachel's Experiment (D.T.)";"1.0";"2";"1";"1";"2";"2";"1";"2014-09-08 13:26:12.129";"2014-09-08 13:47:01.314";"1";"0";"1";"654";"158";"module.training_block4.exec-6700.GoNoGo4";;;;;;;;;;;;;;;;;;;;;;;;;;;;;;;;;;;;;;;;;;;;;;;;;;;;;;;;;;;"1249";"2014-09-08 13:42:44.934";"NST_wrongLoc";"5";"1";"FINISHED";"LEFT";"failure";"388";"0";"2014-09-08 13:42:43.684";"1";;;;;;;;;;;;;;;;;;;;;
"saplmj22";"1985";;"Windows 7";"Rachel's Experiment (D.T.)";"1.0";"2";"1";"1";"2";"2";"1";"2014-09-08 13:26:12.129";"2014-09-08 13:47:01.314";"1";"0";"1";"655";"159";"module.devaluation_practice.exec-2192.devalPractice";;;;;;;;;;;;"11602";"2014-09-08 13:43:30.228";"0";"5";"7";"8";"928";"4003";"3612";"2014-09-08 13:43:18.625";;;;;;;;;;;;;;;;;;;;;;;;;;;;;;;;;;;;;;;;;;;;;;;;;;;;;;;;;;;;;;;;;;;;;;
"saplmj22";"1985";;"Windows 7";"Rachel's Experiment (D.T.)";"1.0";"2";"1";"1";"2";"2";"1";"2014-09-08 13:26:12.129";"2014-09-08 13:47:01.314";"1";"0";"1";"656";"160";"module.devaluation_practice.exec-2192.devalPractice";;;;;;;;;;;;"7622";"2014-09-08 13:43:37.890";"1";"9";"9";"9";"1549";"1082";"1974";"2014-09-08 13:43:30.268";;;;;;;;;;;;;;;;;;;;;;;;;;;;;;;;;;;;;;;;;;;;;;;;;;;;;;;;;;;;;;;;;;;;;;
"saplmj22";"1985";;"Windows 7";"Rachel's Experiment (D.T.)";"1.0";"2";"1";"1";"2";"2";"1";"2014-09-08 13:26:12.129";"2014-09-08 13:47:01.314";"1";"0";"1";"657";"161";"module.devaluation_practice.exec-2192.devalPractice";;;;;;;;;;;;"9510";"2014-09-08 13:43:47.436";"2";"2";"2";"2";"2293";"1608";"2593";"2014-09-08 13:43:37.925";;;;;;;;;;;;;;;;;;;;;;;;;;;;;;;;;;;;;;;;;;;;;;;;;;;;;;;;;;;;;;;;;;;;;;
"saplmj22";"1985";;"Windows 7";"Rachel's Experiment (D.T.)";"1.0";"2";"1";"1";"2";"2";"1";"2014-09-08 13:26:12.129";"2014-09-08 13:47:01.314";"1";"0";"1";"658";"162";"module.devaluation_practice.exec-2192.devalPractice";;;;;;;;;;;;"4176";"2014-09-08 13:43:51.651";"3";"5";"5";"5";"355";"238";"568";"2014-09-08 13:43:47.474";;;;;;;;;;;;;;;;;;;;;;;;;;;;;;;;;;;;;;;;;;;;;;;;;;;;;;;;;;;;;;;;;;;;;;
"saplmj22";"1985";;"Windows 7";"Rachel's Experiment (D.T.)";"1.0";"2";"1";"1";"2";"2";"1";"2014-09-08 13:26:12.129";"2014-09-08 13:47:01.314";"1";"0";"1";"659";"163";"module.devaluation_block1.exec-6432.deval1";"9589";"2014-09-08 13:44:06.020";"8";"6";"7";"7";"2341";"2787";"1438";"2014-09-08 13:43:56.430";"1";;;;;;;;;;;;;;;;;;;;;;;;;;;;;;;;;;;;;;;;;;;;;;;;;;;;;;;;;;;;;;;;;;;;;;;;;;;;;;;;
"saplmj22";"1985";;"Windows 7";"Rachel's Experiment (D.T.)";"1.0";"2";"1";"1";"2";"2";"1";"2014-09-08 13:26:12.129";"2014-09-08 13:47:01.314";"1";"0";"1";"660";"164";"module.devaluation_block1.exec-6432.deval1";"7973";"2014-09-08 13:44:14.032";"21";"5";"4";"4";"1923";"1173";"1858";"2014-09-08 13:44:06.060";"3";;;;;;;;;;;;;;;;;;;;;;;;;;;;;;;;;;;;;;;;;;;;;;;;;;;;;;;;;;;;;;;;;;;;;;;;;;;;;;;;
"saplmj22";"1985";;"Windows 7";"Rachel's Experiment (D.T.)";"1.0";"2";"1";"1";"2";"2";"1";"2014-09-08 13:26:12.129";"2014-09-08 13:47:01.314";"1";"0";"1";"661";"165";"module.devaluation_block1.exec-6432.deval1";"9852";"2014-09-08 13:44:23.906";"24";"3";"3";"5";"3818";"1500";"1515";"2014-09-08 13:44:14.053";"3";;;;;;;;;;;;;;;;;;;;;;;;;;;;;;;;;;;;;;;;;;;;;;;;;;;;;;;;;;;;;;;;;;;;;;;;;;;;;;;;
"saplmj22";"1985";;"Windows 7";"Rachel's Experiment (D.T.)";"1.0";"2";"1";"1";"2";"2";"1";"2014-09-08 13:26:12.129";"2014-09-08 13:47:01.314";"1";"0";"1";"662";"166";"module.devaluation_block1.exec-6432.deval1";"8302";"2014-09-08 13:44:32.245";"15";"3";"6";"6";"1843";"1067";"2375";"2014-09-08 13:44:23.943";"2";;;;;;;;;;;;;;;;;;;;;;;;;;;;;;;;;;;;;;;;;;;;;;;;;;;;;;;;;;;;;;;;;;;;;;;;;;;;;;;;
"saplmj22";"1985";;"Windows 7";"Rachel's Experiment (D.T.)";"1.0";"2";"1";"1";"2";"2";"1";"2014-09-08 13:26:12.129";"2014-09-08 13:47:01.314";"1";"0";"1";"663";"167";"module.devaluation_block1.exec-6432.deval1";"7948";"2014-09-08 13:44:40.231";"0";"7";"8";"9";"1897";"1467";"1566";"2014-09-08 13:44:32.281";"1";;;;;;;;;;;;;;;;;;;;;;;;;;;;;;;;;;;;;;;;;;;;;;;;;;;;;;;;;;;;;;;;;;;;;;;;;;;;;;;;
"saplmj22";"1985";;"Windows 7";"Rachel's Experiment (D.T.)";"1.0";"2";"1";"1";"2";"2";"1";"2014-09-08 13:26:12.129";"2014-09-08 13:47:01.314";"1";"0";"1";"664";"168";"module.devaluation_block1.exec-6432.deval1";"9067";"2014-09-08 13:44:49.331";"17";"2";"3";"4";"2125";"2367";"1557";"2014-09-08 13:44:40.264";"2";;;;;;;;;;;;;;;;;;;;;;;;;;;;;;;;;;;;;;;;;;;;;;;;;;;;;;;;;;;;;;;;;;;;;;;;;;;;;;;;
"saplmj22";"1985";;"Windows 7";"Rachel's Experiment (D.T.)";"1.0";"2";"1";"1";"2";"2";"1";"2014-09-08 13:26:12.129";"2014-09-08 13:47:01.314";"1";"0";"1";"665";"169";"module.devaluation_block1.exec-6432.deval1";"6386";"2014-09-08 13:44:55.758";"20";"1";"1";"1";"1118";"1083";"1169";"2014-09-08 13:44:49.370";"3";;;;;;;;;;;;;;;;;;;;;;;;;;;;;;;;;;;;;;;;;;;;;;;;;;;;;;;;;;;;;;;;;;;;;;;;;;;;;;;;
"saplmj22";"1985";;"Windows 7";"Rachel's Experiment (D.T.)";"1.0";"2";"1";"1";"2";"2";"1";"2014-09-08 13:26:12.129";"2014-09-08 13:47:01.314";"1";"0";"1";"666";"170";"module.devaluation_block1.exec-6432.deval1";"8384";"2014-09-08 13:45:04.180";"26";"9";"6";"7";"2466";"497";"2404";"2014-09-08 13:44:55.796";"3";;;;;;;;;;;;;;;;;;;;;;;;;;;;;;;;;;;;;;;;;;;;;;;;;;;;;;;;;;;;;;;;;;;;;;;;;;;;;;;;
"saplmj22";"1985";;"Windows 7";"Rachel's Experiment (D.T.)";"1.0";"2";"1";"1";"2";"2";"1";"2014-09-08 13:26:12.129";"2014-09-08 13:47:01.314";"1";"0";"1";"667";"171";"module.devaluation_block1.exec-6432.deval1";"5766";"2014-09-08 13:45:09.986";"2";"5";"6";"6";"575";"541";"1633";"2014-09-08 13:45:04.220";"1";;;;;;;;;;;;;;;;;;;;;;;;;;;;;;;;;;;;;;;;;;;;;;;;;;;;;;;;;;;;;;;;;;;;;;;;;;;;;;;;
"saplmj22";"1985";;"Windows 7";"Rachel's Experiment (D.T.)";"1.0";"2";"1";"1";"2";"2";"1";"2014-09-08 13:26:12.129";"2014-09-08 13:47:01.314";"1";"0";"1";"668";"172";"module.devaluation_block1.exec-6432.deval1";"6260";"2014-09-08 13:45:16.282";"3";"7";"6";"7";"768";"1183";"1290";"2014-09-08 13:45:10.021";"1";;;;;;;;;;;;;;;;;;;;;;;;;;;;;;;;;;;;;;;;;;;;;;;;;;;;;;;;;;;;;;;;;;;;;;;;;;;;;;;;
"saplmj22";"1985";;"Windows 7";"Rachel's Experiment (D.T.)";"1.0";"2";"1";"1";"2";"2";"1";"2014-09-08 13:26:12.129";"2014-09-08 13:47:01.314";"1";"0";"1";"669";"173";"module.devaluation_block1.exec-6432.deval1";"6385";"2014-09-08 13:45:22.705";"9";"9";"9";"9";"1184";"1089";"1095";"2014-09-08 13:45:16.320";"2";;;;;;;;;;;;;;;;;;;;;;;;;;;;;;;;;;;;;;;;;;;;;;;;;;;;;;;;;;;;;;;;;;;;;;;;;;;;;;;;
"saplmj22";"1985";;"Windows 7";"Rachel's Experiment (D.T.)";"1.0";"2";"1";"1";"2";"2";"1";"2014-09-08 13:26:12.129";"2014-09-08 13:47:01.314";"1";"0";"1";"670";"174";"module.devaluation_block1.exec-6432.deval1";"6113";"2014-09-08 13:45:28.854";"12";"9";"9";"9";"1186";"784";"1126";"2014-09-08 13:45:22.740";"2";;;;;;;;;;;;;;;;;;;;;;;;;;;;;;;;;;;;;;;;;;;;;;;;;;;;;;;;;;;;;;;;;;;;;;;;;;;;;;;;
"saplmj22";"1985";;"Windows 7";"Rachel's Experiment (D.T.)";"1.0";"2";"1";"1";"2";"2";"1";"2014-09-08 13:26:12.129";"2014-09-08 13:47:01.314";"1";"0";"1";"671";"175";"module.devaluation_block1.exec-6432.deval1";"5153";"2014-09-08 13:45:34.044";"4";"3";"3";"3";"801";"549";"786";"2014-09-08 13:45:28.891";"1";;;;;;;;;;;;;;;;;;;;;;;;;;;;;;;;;;;;;;;;;;;;;;;;;;;;;;;;;;;;;;;;;;;;;;;;;;;;;;;;
"saplmj22";"1985";;"Windows 7";"Rachel's Experiment (D.T.)";"1.0";"2";"1";"1";"2";"2";"1";"2014-09-08 13:26:12.129";"2014-09-08 13:47:01.314";"1";"0";"1";"672";"176";"module.devaluation_block1.exec-6432.deval1";"7807";"2014-09-08 13:45:41.888";"1";"6";"7";"6";"3062";"901";"828";"2014-09-08 13:45:34.080";"1";;;;;;;;;;;;;;;;;;;;;;;;;;;;;;;;;;;;;;;;;;;;;;;;;;;;;;;;;;;;;;;;;;;;;;;;;;;;;;;;
"saplmj22";"1985";;"Windows 7";"Rachel's Experiment (D.T.)";"1.0";"2";"1";"1";"2";"2";"1";"2014-09-08 13:26:12.129";"2014-09-08 13:47:01.314";"1";"0";"1";"673";"177";"module.devaluation_block1.exec-6432.deval1";"5629";"2014-09-08 13:45:47.558";"18";"6";"5";"6";"1757";"413";"442";"2014-09-08 13:45:41.928";"3";;;;;;;;;;;;;;;;;;;;;;;;;;;;;;;;;;;;;;;;;;;;;;;;;;;;;;;;;;;;;;;;;;;;;;;;;;;;;;;;
"saplmj22";"1985";;"Windows 7";"Rachel's Experiment (D.T.)";"1.0";"2";"1";"1";"2";"2";"1";"2014-09-08 13:26:12.129";"2014-09-08 13:47:01.314";"1";"0";"1";"674";"178";"module.devaluation_block1.exec-6432.deval1";"5488";"2014-09-08 13:45:53.097";"25";"3";"3";"3";"1225";"528";"719";"2014-09-08 13:45:47.608";"3";;;;;;;;;;;;;;;;;;;;;;;;;;;;;;;;;;;;;;;;;;;;;;;;;;;;;;;;;;;;;;;;;;;;;;;;;;;;;;;;
"saplmj22";"1985";;"Windows 7";"Rachel's Experiment (D.T.)";"1.0";"2";"1";"1";"2";"2";"1";"2014-09-08 13:26:12.129";"2014-09-08 13:47:01.314";"1";"0";"1";"675";"179";"module.devaluation_block1.exec-6432.deval1";"6641";"2014-09-08 13:45:59.772";"16";"5";"4";"6";"801";"1011";"1812";"2014-09-08 13:45:53.131";"2";;;;;;;;;;;;;;;;;;;;;;;;;;;;;;;;;;;;;;;;;;;;;;;;;;;;;;;;;;;;;;;;;;;;;;;;;;;;;;;;
"saplmj22";"1985";;"Windows 7";"Rachel's Experiment (D.T.)";"1.0";"2";"1";"1";"2";"2";"1";"2014-09-08 13:26:12.129";"2014-09-08 13:47:01.314";"1";"0";"1";"676";"180";"module.devaluation_block1.exec-6432.deval1";"6434";"2014-09-08 13:46:06.248";"10";"7";"6";"8";"1641";"801";"977";"2014-09-08 13:45:59.812";"2";;;;;;;;;;;;;;;;;;;;;;;;;;;;;;;;;;;;;;;;;;;;;;;;;;;;;;;;;;;;;;;;;;;;;;;;;;;;;;;;
"saplmj22";"1985";;"Windows 7";"Rachel's Experiment (D.T.)";"1.0";"2";"1";"1";"2";"2";"1";"2014-09-08 13:26:12.129";"2014-09-08 13:47:01.314";"1";"0";"1";"677";"181";"module.devaluation_block1.exec-6432.deval1";"6586";"2014-09-08 13:46:12.867";"14";"7";"6";"7";"802";"823";"1944";"2014-09-08 13:46:06.281";"2";;;;;;;;;;;;;;;;;;;;;;;;;;;;;;;;;;;;;;;;;;;;;;;;;;;;;;;;;;;;;;;;;;;;;;;;;;;;;;;;
"saplmj22";"1985";;"Windows 7";"Rachel's Experiment (D.T.)";"1.0";"2";"1";"1";"2";"2";"1";"2014-09-08 13:26:12.129";"2014-09-08 13:47:01.314";"1";"0";"1";"678";"182";"module.devaluation_block1.exec-6432.deval1";"6447";"2014-09-08 13:46:19.349";"7";"7";"7";"7";"1694";"968";"770";"2014-09-08 13:46:12.901";"1";;;;;;;;;;;;;;;;;;;;;;;;;;;;;;;;;;;;;;;;;;;;;;;;;;;;;;;;;;;;;;;;;;;;;;;;;;;;;;;;
"saplmj22";"1985";;"Windows 7";"Rachel's Experiment (D.T.)";"1.0";"2";"1";"1";"2";"2";"1";"2014-09-08 13:26:12.129";"2014-09-08 13:47:01.314";"1";"0";"1";"679";"183";"module.devaluation_block1.exec-6432.deval1";"5227";"2014-09-08 13:46:24.612";"11";"4";"5";"6";"563";"974";"674";"2014-09-08 13:46:19.383";"2";;;;;;;;;;;;;;;;;;;;;;;;;;;;;;;;;;;;;;;;;;;;;;;;;;;;;;;;;;;;;;;;;;;;;;;;;;;;;;;;
"saplmj22";"1985";;"Windows 7";"Rachel's Experiment (D.T.)";"1.0";"2";"1";"1";"2";"2";"1";"2014-09-08 13:26:12.129";"2014-09-08 13:47:01.314";"1";"0";"1";"680";"184";"module.devaluation_block1.exec-6432.deval1";"6379";"2014-09-08 13:46:31.030";"22";"7";"6";"7";"1805";"628";"931";"2014-09-08 13:46:24.651";"3";;;;;;;;;;;;;;;;;;;;;;;;;;;;;;;;;;;;;;;;;;;;;;;;;;;;;;;;;;;;;;;;;;;;;;;;;;;;;;;;
"saplmj22";"1985";;"Windows 7";"Rachel's Experiment (D.T.)";"1.0";"2";"1";"1";"2";"2";"1";"2014-09-08 13:26:12.129";"2014-09-08 13:47:01.314";"1";"0";"1";"681";"185";"module.devaluation_block1.exec-6432.deval1";"5220";"2014-09-08 13:46:36.290";"5";"7";"6";"7";"917";"511";"777";"2014-09-08 13:46:31.069";"1";;;;;;;;;;;;;;;;;;;;;;;;;;;;;;;;;;;;;;;;;;;;;;;;;;;;;;;;;;;;;;;;;;;;;;;;;;;;;;;;
"saplmj22";"1985";;"Windows 7";"Rachel's Experiment (D.T.)";"1.0";"2";"1";"1";"2";"2";"1";"2014-09-08 13:26:12.129";"2014-09-08 13:47:01.314";"1";"0";"1";"682";"186";"module.devaluation_block1.exec-6432.deval1";"5365";"2014-09-08 13:46:41.678";"13";"7";"6";"8";"931";"404";"1014";"2014-09-08 13:46:36.312";"2";;;;;;;;;;;;;;;;;;;;;;;;;;;;;;;;;;;;;;;;;;;;;;;;;;;;;;;;;;;;;;;;;;;;;;;;;;;;;;;;
"saplmj22";"1985";;"Windows 7";"Rachel's Experiment (D.T.)";"1.0";"2";"1";"1";"2";"2";"1";"2014-09-08 13:26:12.129";"2014-09-08 13:47:01.314";"1";"0";"1";"683";"187";"module.devaluation_block1.exec-6432.deval1";"6162";"2014-09-08 13:46:47.868";"19";"6";"4";"6";"791";"730";"1625";"2014-09-08 13:46:41.706";"3";;;;;;;;;;;;;;;;;;;;;;;;;;;;;;;;;;;;;;;;;;;;;;;;;;;;;;;;;;;;;;;;;;;;;;;;;;;;;;;;
"saplmj22";"1985";;"Windows 7";"Rachel's Experiment (D.T.)";"1.0";"2";"1";"1";"2";"2";"1";"2014-09-08 13:26:12.129";"2014-09-08 13:47:01.314";"1";"0";"1";"684";"188";"module.devaluation_block1.exec-6432.deval1";"5329";"2014-09-08 13:46:53.238";"23";"7";"6";"8";"802";"724";"789";"2014-09-08 13:46:47.908";"3";;;;;;;;;;;;;;;;;;;;;;;;;;;;;;;;;;;;;;;;;;;;;;;;;;;;;;;;;;;;;;;;;;;;;;;;;;;;;;;;
"saplmj22";"1985";;"Windows 7";"Rachel's Experiment (D.T.)";"1.0";"2";"1";"1";"2";"2";"1";"2014-09-08 13:26:12.129";"2014-09-08 13:47:01.314";"1";"0";"1";"685";"189";"module.devaluation_block1.exec-6432.deval1";"6575";"2014-09-08 13:46:59.852";"6";"4";"5";"6";"685";"572";"2302";"2014-09-08 13:46:53.276";"1";;;;;;;;;;;;;;;;;;;;;;;;;;;;;;;;;;;;;;;;;;;;;;;;;;;;;;;;;;;;;;;;;;;;;;;;;;;;;;;;
