"user.name";"user.yearOfBirth";"user.sex";"user.osName";"module.name";"module.version";"module.online.subject.code";"module.online.study.id";"module.online.module.nr";"module.online.group.nr";"session.id";"session.index";"session.startTime";"session.endTime";"session.completed";"session.node-2972.conditionType";"session.node-8496.DevalQorder";"trial.id";"trial.index";"trial.name";"trial.deval1.durationTime";"trial.deval1.endTime";"trial.deval1.icon";"trial.deval1.Resp_Attractive";"trial.deval1.Resp_Eat";"trial.deval1.Resp_Taste";"trial.deval1.RT_Attractive";"trial.deval1.RT_Eat";"trial.deval1.RT_Taste";"trial.deval1.startTime";"trial.deval1.stimulus type";"trial.devalPractice.durationTime";"trial.devalPractice.endTime";"trial.devalPractice.icon";"trial.devalPractice.Resp_Attractive";"trial.devalPractice.Resp_Eat";"trial.devalPractice.Resp_Taste";"trial.devalPractice.RT_Attractive";"trial.devalPractice.RT_Eat";"trial.devalPractice.RT_Taste";"trial.devalPractice.startTime";"trial.devalPractice.stimulus type";"trial.GoNoGo1.durationTime";"trial.GoNoGo1.endTime";"trial.GoNoGo1.Error Type";"trial.GoNoGo1.icon";"trial.GoNoGo1.location";"trial.GoNoGo1.outcome";"trial.GoNoGo1.response";"trial.GoNoGo1.result";"trial.GoNoGo1.RT";"trial.GoNoGo1.signal";"trial.GoNoGo1.startTime";"trial.GoNoGo1.stimulus type";"trial.GoNoGo2.durationTime";"trial.GoNoGo2.endTime";"trial.GoNoGo2.Error Type";"trial.GoNoGo2.icon";"trial.GoNoGo2.location";"trial.GoNoGo2.outcome";"trial.GoNoGo2.response";"trial.GoNoGo2.result";"trial.GoNoGo2.RT";"trial.GoNoGo2.signal";"trial.GoNoGo2.startTime";"trial.GoNoGo2.stimulus type";"trial.GoNoGo3.durationTime";"trial.GoNoGo3.endTime";"trial.GoNoGo3.Error Type";"trial.GoNoGo3.icon";"trial.GoNoGo3.location";"trial.GoNoGo3.outcome";"trial.GoNoGo3.response";"trial.GoNoGo3.result";"trial.GoNoGo3.RT";"trial.GoNoGo3.signal";"trial.GoNoGo3.startTime";"trial.GoNoGo3.stimulus type";"trial.GoNoGo4.durationTime";"trial.GoNoGo4.endTime";"trial.GoNoGo4.Error Type";"trial.GoNoGo4.icon";"trial.GoNoGo4.location";"trial.GoNoGo4.outcome";"trial.GoNoGo4.response";"trial.GoNoGo4.result";"trial.GoNoGo4.RT";"trial.GoNoGo4.signal";"trial.GoNoGo4.startTime";"trial.GoNoGo4.stimulus type";"trial.GoNoGo_Practice.durationTime";"trial.GoNoGo_Practice.endTime";"trial.GoNoGo_Practice.icon";"trial.GoNoGo_Practice.location";"trial.GoNoGo_Practice.outcome";"trial.GoNoGo_Practice.response";"trial.GoNoGo_Practice.result";"trial.GoNoGo_Practice.RT";"trial.GoNoGo_Practice.signal";"trial.GoNoGo_Practice.startTime";"trial.GoNoGo_Practice.stimulus type";"trial.GoNoGo_Tutorial.durationTime";"trial.GoNoGo_Tutorial.endTime";"trial.GoNoGo_Tutorial.icon";"trial.GoNoGo_Tutorial.location";"trial.GoNoGo_Tutorial.outcome";"trial.GoNoGo_Tutorial.response";"trial.GoNoGo_Tutorial.result";"trial.GoNoGo_Tutorial.RT";"trial.GoNoGo_Tutorial.signal";"trial.GoNoGo_Tutorial.startTime"
"Ett414";"1995";;"Windows 7";"Rachel's Experiment (D.T.)";"1.0";"2";"1";"1";"2";"1";"1";"2014-10-14 11:25:02.475";"2014-10-14 11:42:59.062";"1";"0";"0";"1";"0";"module.GoNoGotutorial.exec-5560.GoNoGo_Tutorial";;;;;;;;;;;;;;;;;;;;;;;;;;;;;;;;;;;;;;;;;;;;;;;;;;;;;;;;;;;;;;;;;;;;;;;;;;;;;;;;;;"4001";"2014-10-14 11:27:53.902";"leftResponse";"0";"FINISHED";"LEFT";"success";"462";"0";"2014-10-14 11:27:49.900"
"Ett414";"1995";;"Windows 7";"Rachel's Experiment (D.T.)";"1.0";"2";"1";"1";"2";"1";"1";"2014-10-14 11:25:02.475";"2014-10-14 11:42:59.062";"1";"0";"0";"2";"1";"module.GoNoGotutorial.exec-5560.GoNoGo_Tutorial";;;;;;;;;;;;;;;;;;;;;;;;;;;;;;;;;;;;;;;;;;;;;;;;;;;;;;;;;;;;;;;;;;;;;;;;;;;;;;;;;;"4000";"2014-10-14 11:27:59.194";"rightResponse";"1";"FINISHED";"RIGHT";"success";"932";"0";"2014-10-14 11:27:55.194"
"Ett414";"1995";;"Windows 7";"Rachel's Experiment (D.T.)";"1.0";"2";"1";"1";"2";"1";"1";"2014-10-14 11:25:02.475";"2014-10-14 11:42:59.062";"1";"0";"0";"3";"2";"module.GoNoGotutorial.exec-5560.GoNoGo_Tutorial";;;;;;;;;;;;;;;;;;;;;;;;;;;;;;;;;;;;;;;;;;;;;;;;;;;;;;;;;;;;;;;;;;;;;;;;;;;;;;;;;;"4000";"2014-10-14 11:28:04.480";"quickResponse";"0";"FINISHED";"NONE";"failure";"0";"0";"2014-10-14 11:28:00.479"
"Ett414";"1995";;"Windows 7";"Rachel's Experiment (D.T.)";"1.0";"2";"1";"1";"2";"1";"1";"2014-10-14 11:25:02.475";"2014-10-14 11:42:59.062";"1";"0";"0";"4";"3";"module.GoNoGopractice.exec-7080.GoNoGo_Practice";;;;;;;;;;;;;;;;;;;;;;;;;;;;;;;;;;;;;;;;;;;;;;;;;;;;;;;;;;;;;;;;;;;;;;;"1965";"2014-10-14 11:28:12.563";"18";"0";"FINISHED";"LEFT";"success";"311";"0";"2014-10-14 11:28:10.598";"3";;;;;;;;;;
"Ett414";"1995";;"Windows 7";"Rachel's Experiment (D.T.)";"1.0";"2";"1";"1";"2";"1";"1";"2014-10-14 11:25:02.475";"2014-10-14 11:42:59.062";"1";"0";"0";"5";"4";"module.GoNoGopractice.exec-7080.GoNoGo_Practice";;;;;;;;;;;;;;;;;;;;;;;;;;;;;;;;;;;;;;;;;;;;;;;;;;;;;;;;;;;;;;;;;;;;;;;"1952";"2014-10-14 11:28:15.809";"21";"1";"FINISHED";"RIGHT";"success";"317";"0";"2014-10-14 11:28:13.856";"3";;;;;;;;;;
"Ett414";"1995";;"Windows 7";"Rachel's Experiment (D.T.)";"1.0";"2";"1";"1";"2";"1";"1";"2014-10-14 11:25:02.475";"2014-10-14 11:42:59.062";"1";"0";"0";"6";"5";"module.GoNoGopractice.exec-7080.GoNoGo_Practice";;;;;;;;;;;;;;;;;;;;;;;;;;;;;;;;;;;;;;;;;;;;;;;;;;;;;;;;;;;;;;;;;;;;;;;"1952";"2014-10-14 11:28:19.058";"14";"1";"FINISHED";"RIGHT";"success";"274";"0";"2014-10-14 11:28:17.105";"2";;;;;;;;;;
"Ett414";"1995";;"Windows 7";"Rachel's Experiment (D.T.)";"1.0";"2";"1";"1";"2";"1";"1";"2014-10-14 11:25:02.475";"2014-10-14 11:42:59.062";"1";"0";"0";"7";"6";"module.GoNoGopractice.exec-7080.GoNoGo_Practice";;;;;;;;;;;;;;;;;;;;;;;;;;;;;;;;;;;;;;;;;;;;;;;;;;;;;;;;;;;;;;;;;;;;;;;"1951";"2014-10-14 11:28:22.299";"26";"0";"FINISHED";"LEFT";"success";"254";"0";"2014-10-14 11:28:20.346";"3";;;;;;;;;;
"Ett414";"1995";;"Windows 7";"Rachel's Experiment (D.T.)";"1.0";"2";"1";"1";"2";"1";"1";"2014-10-14 11:25:02.475";"2014-10-14 11:42:59.062";"1";"0";"0";"8";"7";"module.GoNoGopractice.exec-7080.GoNoGo_Practice";;;;;;;;;;;;;;;;;;;;;;;;;;;;;;;;;;;;;;;;;;;;;;;;;;;;;;;;;;;;;;;;;;;;;;;"1952";"2014-10-14 11:28:25.534";"2";"0";"FINISHED";"LEFT";"success";"313";"0";"2014-10-14 11:28:23.581";"1";;;;;;;;;;
"Ett414";"1995";;"Windows 7";"Rachel's Experiment (D.T.)";"1.0";"2";"1";"1";"2";"1";"1";"2014-10-14 11:25:02.475";"2014-10-14 11:42:59.062";"1";"0";"0";"9";"8";"module.GoNoGopractice.exec-7080.GoNoGo_Practice";;;;;;;;;;;;;;;;;;;;;;;;;;;;;;;;;;;;;;;;;;;;;;;;;;;;;;;;;;;;;;;;;;;;;;;"1953";"2014-10-14 11:28:28.781";"30";"0";"FINISHED";"LEFT";"success";"318";"0";"2014-10-14 11:28:26.828";"3";;;;;;;;;;
"Ett414";"1995";;"Windows 7";"Rachel's Experiment (D.T.)";"1.0";"2";"1";"1";"2";"1";"1";"2014-10-14 11:25:02.475";"2014-10-14 11:42:59.062";"1";"0";"0";"10";"9";"module.GoNoGopractice.exec-7080.GoNoGo_Practice";;;;;;;;;;;;;;;;;;;;;;;;;;;;;;;;;;;;;;;;;;;;;;;;;;;;;;;;;;;;;;;;;;;;;;;"1952";"2014-10-14 11:28:32.019";"6";"1";"FINISHED";"RIGHT";"success";"265";"0";"2014-10-14 11:28:30.066";"1";;;;;;;;;;
"Ett414";"1995";;"Windows 7";"Rachel's Experiment (D.T.)";"1.0";"2";"1";"1";"2";"1";"1";"2014-10-14 11:25:02.475";"2014-10-14 11:42:59.062";"1";"0";"0";"11";"10";"module.GoNoGopractice.exec-7080.GoNoGo_Practice";;;;;;;;;;;;;;;;;;;;;;;;;;;;;;;;;;;;;;;;;;;;;;;;;;;;;;;;;;;;;;;;;;;;;;;"1953";"2014-10-14 11:28:35.259";"34";"0";"FINISHED";"LEFT";"success";"266";"0";"2014-10-14 11:28:33.306";"3";;;;;;;;;;
"Ett414";"1995";;"Windows 7";"Rachel's Experiment (D.T.)";"1.0";"2";"1";"1";"2";"1";"1";"2014-10-14 11:25:02.475";"2014-10-14 11:42:59.062";"1";"0";"0";"12";"11";"module.GoNoGopractice.exec-7080.GoNoGo_Practice";;;;;;;;;;;;;;;;;;;;;;;;;;;;;;;;;;;;;;;;;;;;;;;;;;;;;;;;;;;;;;;;;;;;;;;"1953";"2014-10-14 11:28:38.497";"23";"1";"FINISHED";"RIGHT";"success";"277";"0";"2014-10-14 11:28:36.544";"3";;;;;;;;;;
"Ett414";"1995";;"Windows 7";"Rachel's Experiment (D.T.)";"1.0";"2";"1";"1";"2";"1";"1";"2014-10-14 11:25:02.475";"2014-10-14 11:42:59.062";"1";"0";"0";"13";"12";"module.GoNoGopractice.exec-7080.GoNoGo_Practice";;;;;;;;;;;;;;;;;;;;;;;;;;;;;;;;;;;;;;;;;;;;;;;;;;;;;;;;;;;;;;;;;;;;;;;"1952";"2014-10-14 11:28:41.742";"13";"0";"FINISHED";"LEFT";"success";"292";"0";"2014-10-14 11:28:39.789";"2";;;;;;;;;;
"Ett414";"1995";;"Windows 7";"Rachel's Experiment (D.T.)";"1.0";"2";"1";"1";"2";"1";"1";"2014-10-14 11:25:02.475";"2014-10-14 11:42:59.062";"1";"0";"0";"14";"13";"module.GoNoGopractice.exec-7080.GoNoGo_Practice";;;;;;;;;;;;;;;;;;;;;;;;;;;;;;;;;;;;;;;;;;;;;;;;;;;;;;;;;;;;;;;;;;;;;;;"1953";"2014-10-14 11:28:44.993";"3";"1";"FINISHED";"RIGHT";"success";"288";"0";"2014-10-14 11:28:43.040";"1";;;;;;;;;;
"Ett414";"1995";;"Windows 7";"Rachel's Experiment (D.T.)";"1.0";"2";"1";"1";"2";"1";"1";"2014-10-14 11:25:02.475";"2014-10-14 11:42:59.062";"1";"0";"0";"15";"14";"module.GoNoGopractice.exec-7080.GoNoGo_Practice";;;;;;;;;;;;;;;;;;;;;;;;;;;;;;;;;;;;;;;;;;;;;;;;;;;;;;;;;;;;;;;;;;;;;;;"1953";"2014-10-14 11:28:48.238";"27";"1";"FINISHED";"RIGHT";"success";"317";"0";"2014-10-14 11:28:46.285";"3";;;;;;;;;;
"Ett414";"1995";;"Windows 7";"Rachel's Experiment (D.T.)";"1.0";"2";"1";"1";"2";"1";"1";"2014-10-14 11:25:02.475";"2014-10-14 11:42:59.062";"1";"0";"0";"16";"15";"module.training_block1.exec-4574.GoNoGo1";;;;;;;;;;;;;;;;;;;;;;;"1251";"2014-10-14 11:29:07.721";"NST_correctLoc";"8";"0";"FINISHED";"LEFT";"success";"299";"0";"2014-10-14 11:29:06.470";"1";;;;;;;;;;;;;;;;;;;;;;;;;;;;;;;;;;;;;;;;;;;;;;;;;;;;;;;;;
"Ett414";"1995";;"Windows 7";"Rachel's Experiment (D.T.)";"1.0";"2";"1";"1";"2";"1";"1";"2014-10-14 11:25:02.475";"2014-10-14 11:42:59.062";"1";"0";"0";"17";"16";"module.training_block1.exec-4574.GoNoGo1";;;;;;;;;;;;;;;;;;;;;;;"1249";"2014-10-14 11:29:10.262";"NST_correctLoc";"14";"1";"FINISHED";"RIGHT";"success";"258";"0";"2014-10-14 11:29:09.012";"2";;;;;;;;;;;;;;;;;;;;;;;;;;;;;;;;;;;;;;;;;;;;;;;;;;;;;;;;;
"Ett414";"1995";;"Windows 7";"Rachel's Experiment (D.T.)";"1.0";"2";"1";"1";"2";"1";"1";"2014-10-14 11:25:02.475";"2014-10-14 11:42:59.062";"1";"0";"0";"18";"17";"module.training_block1.exec-4574.GoNoGo1";;;;;;;;;;;;;;;;;;;;;;;"1249";"2014-10-14 11:29:12.790";"NST_correctLoc";"35";"1";"FINISHED";"RIGHT";"success";"208";"0";"2014-10-14 11:29:11.540";"3";;;;;;;;;;;;;;;;;;;;;;;;;;;;;;;;;;;;;;;;;;;;;;;;;;;;;;;;;
"Ett414";"1995";;"Windows 7";"Rachel's Experiment (D.T.)";"1.0";"2";"1";"1";"2";"1";"1";"2014-10-14 11:25:02.475";"2014-10-14 11:42:59.062";"1";"0";"0";"19";"18";"module.training_block1.exec-4574.GoNoGo1";;;;;;;;;;;;;;;;;;;;;;;"1249";"2014-10-14 11:29:15.321";"NST_correctLoc";"13";"0";"FINISHED";"LEFT";"success";"305";"0";"2014-10-14 11:29:14.071";"2";;;;;;;;;;;;;;;;;;;;;;;;;;;;;;;;;;;;;;;;;;;;;;;;;;;;;;;;;
"Ett414";"1995";;"Windows 7";"Rachel's Experiment (D.T.)";"1.0";"2";"1";"1";"2";"1";"1";"2014-10-14 11:25:02.475";"2014-10-14 11:42:59.062";"1";"0";"0";"20";"19";"module.training_block1.exec-4574.GoNoGo1";;;;;;;;;;;;;;;;;;;;;;;"1249";"2014-10-14 11:29:17.862";"NST_correctLoc";"24";"0";"FINISHED";"LEFT";"success";"356";"0";"2014-10-14 11:29:16.612";"3";;;;;;;;;;;;;;;;;;;;;;;;;;;;;;;;;;;;;;;;;;;;;;;;;;;;;;;;;
"Ett414";"1995";;"Windows 7";"Rachel's Experiment (D.T.)";"1.0";"2";"1";"1";"2";"1";"1";"2014-10-14 11:25:02.475";"2014-10-14 11:42:59.062";"1";"0";"0";"21";"20";"module.training_block1.exec-4574.GoNoGo1";;;;;;;;;;;;;;;;;;;;;;;"1249";"2014-10-14 11:29:20.408";"NST_correctLoc";"7";"0";"FINISHED";"LEFT";"success";"280";"0";"2014-10-14 11:29:19.158";"1";;;;;;;;;;;;;;;;;;;;;;;;;;;;;;;;;;;;;;;;;;;;;;;;;;;;;;;;;
"Ett414";"1995";;"Windows 7";"Rachel's Experiment (D.T.)";"1.0";"2";"1";"1";"2";"1";"1";"2014-10-14 11:25:02.475";"2014-10-14 11:42:59.062";"1";"0";"0";"22";"21";"module.training_block1.exec-4574.GoNoGo1";;;;;;;;;;;;;;;;;;;;;;;"1249";"2014-10-14 11:29:22.939";"NST_correctLoc";"22";"0";"FINISHED";"LEFT";"success";"339";"0";"2014-10-14 11:29:21.689";"3";;;;;;;;;;;;;;;;;;;;;;;;;;;;;;;;;;;;;;;;;;;;;;;;;;;;;;;;;
"Ett414";"1995";;"Windows 7";"Rachel's Experiment (D.T.)";"1.0";"2";"1";"1";"2";"1";"1";"2014-10-14 11:25:02.475";"2014-10-14 11:42:59.062";"1";"0";"0";"23";"22";"module.training_block1.exec-4574.GoNoGo1";;;;;;;;;;;;;;;;;;;;;;;"1249";"2014-10-14 11:29:25.467";"NST_correctLoc";"27";"0";"FINISHED";"LEFT";"success";"360";"0";"2014-10-14 11:29:24.217";"3";;;;;;;;;;;;;;;;;;;;;;;;;;;;;;;;;;;;;;;;;;;;;;;;;;;;;;;;;
"Ett414";"1995";;"Windows 7";"Rachel's Experiment (D.T.)";"1.0";"2";"1";"1";"2";"1";"1";"2014-10-14 11:25:02.475";"2014-10-14 11:42:59.062";"1";"0";"0";"24";"23";"module.training_block1.exec-4574.GoNoGo1";;;;;;;;;;;;;;;;;;;;;;;"1250";"2014-10-14 11:29:28.015";"NST_correctLoc";"33";"0";"FINISHED";"LEFT";"success";"337";"0";"2014-10-14 11:29:26.765";"3";;;;;;;;;;;;;;;;;;;;;;;;;;;;;;;;;;;;;;;;;;;;;;;;;;;;;;;;;
"Ett414";"1995";;"Windows 7";"Rachel's Experiment (D.T.)";"1.0";"2";"1";"1";"2";"1";"1";"2014-10-14 11:25:02.475";"2014-10-14 11:42:59.062";"1";"0";"0";"25";"24";"module.training_block1.exec-4574.GoNoGo1";;;;;;;;;;;;;;;;;;;;;;;"1249";"2014-10-14 11:29:30.560";"NST_correctLoc";"9";"0";"FINISHED";"LEFT";"success";"336";"0";"2014-10-14 11:29:29.310";"2";;;;;;;;;;;;;;;;;;;;;;;;;;;;;;;;;;;;;;;;;;;;;;;;;;;;;;;;;
"Ett414";"1995";;"Windows 7";"Rachel's Experiment (D.T.)";"1.0";"2";"1";"1";"2";"1";"1";"2014-10-14 11:25:02.475";"2014-10-14 11:42:59.062";"1";"0";"0";"26";"25";"module.training_block1.exec-4574.GoNoGo1";;;;;;;;;;;;;;;;;;;;;;;"1249";"2014-10-14 11:29:33.101";"NST_correctLoc";"5";"0";"FINISHED";"LEFT";"success";"332";"0";"2014-10-14 11:29:31.851";"1";;;;;;;;;;;;;;;;;;;;;;;;;;;;;;;;;;;;;;;;;;;;;;;;;;;;;;;;;
"Ett414";"1995";;"Windows 7";"Rachel's Experiment (D.T.)";"1.0";"2";"1";"1";"2";"1";"1";"2014-10-14 11:25:02.475";"2014-10-14 11:42:59.062";"1";"0";"0";"27";"26";"module.training_block1.exec-4574.GoNoGo1";;;;;;;;;;;;;;;;;;;;;;;"1249";"2014-10-14 11:29:35.643";"NST_correctLoc";"25";"1";"FINISHED";"RIGHT";"success";"329";"0";"2014-10-14 11:29:34.393";"3";;;;;;;;;;;;;;;;;;;;;;;;;;;;;;;;;;;;;;;;;;;;;;;;;;;;;;;;;
"Ett414";"1995";;"Windows 7";"Rachel's Experiment (D.T.)";"1.0";"2";"1";"1";"2";"1";"1";"2014-10-14 11:25:02.475";"2014-10-14 11:42:59.062";"1";"0";"0";"28";"27";"module.training_block1.exec-4574.GoNoGo1";;;;;;;;;;;;;;;;;;;;;;;"1249";"2014-10-14 11:29:38.178";"NST_correctLoc";"23";"0";"FINISHED";"LEFT";"success";"322";"0";"2014-10-14 11:29:36.928";"3";;;;;;;;;;;;;;;;;;;;;;;;;;;;;;;;;;;;;;;;;;;;;;;;;;;;;;;;;
"Ett414";"1995";;"Windows 7";"Rachel's Experiment (D.T.)";"1.0";"2";"1";"1";"2";"1";"1";"2014-10-14 11:25:02.475";"2014-10-14 11:42:59.062";"1";"0";"0";"29";"28";"module.training_block1.exec-4574.GoNoGo1";;;;;;;;;;;;;;;;;;;;;;;"1249";"2014-10-14 11:29:40.719";"NST_correctLoc";"28";"1";"FINISHED";"RIGHT";"success";"285";"0";"2014-10-14 11:29:39.469";"3";;;;;;;;;;;;;;;;;;;;;;;;;;;;;;;;;;;;;;;;;;;;;;;;;;;;;;;;;
"Ett414";"1995";;"Windows 7";"Rachel's Experiment (D.T.)";"1.0";"2";"1";"1";"2";"1";"1";"2014-10-14 11:25:02.475";"2014-10-14 11:42:59.062";"1";"0";"0";"30";"29";"module.training_block1.exec-4574.GoNoGo1";;;;;;;;;;;;;;;;;;;;;;;"1249";"2014-10-14 11:29:43.249";"NST_correctLoc";"26";"1";"FINISHED";"RIGHT";"success";"295";"0";"2014-10-14 11:29:41.999";"3";;;;;;;;;;;;;;;;;;;;;;;;;;;;;;;;;;;;;;;;;;;;;;;;;;;;;;;;;
"Ett414";"1995";;"Windows 7";"Rachel's Experiment (D.T.)";"1.0";"2";"1";"1";"2";"1";"1";"2014-10-14 11:25:02.475";"2014-10-14 11:42:59.062";"1";"0";"0";"31";"30";"module.training_block1.exec-4574.GoNoGo1";;;;;;;;;;;;;;;;;;;;;;;"1250";"2014-10-14 11:29:45.789";"NST_correctLoc";"31";"0";"FINISHED";"LEFT";"success";"340";"0";"2014-10-14 11:29:44.539";"3";;;;;;;;;;;;;;;;;;;;;;;;;;;;;;;;;;;;;;;;;;;;;;;;;;;;;;;;;
"Ett414";"1995";;"Windows 7";"Rachel's Experiment (D.T.)";"1.0";"2";"1";"1";"2";"1";"1";"2014-10-14 11:25:02.475";"2014-10-14 11:42:59.062";"1";"0";"0";"32";"31";"module.training_block1.exec-4574.GoNoGo1";;;;;;;;;;;;;;;;;;;;;;;"1250";"2014-10-14 11:29:48.325";"NST_correctLoc";"1";"1";"FINISHED";"RIGHT";"success";"345";"0";"2014-10-14 11:29:47.075";"1";;;;;;;;;;;;;;;;;;;;;;;;;;;;;;;;;;;;;;;;;;;;;;;;;;;;;;;;;
"Ett414";"1995";;"Windows 7";"Rachel's Experiment (D.T.)";"1.0";"2";"1";"1";"2";"1";"1";"2014-10-14 11:25:02.475";"2014-10-14 11:42:59.062";"1";"0";"0";"33";"32";"module.training_block1.exec-4574.GoNoGo1";;;;;;;;;;;;;;;;;;;;;;;"1249";"2014-10-14 11:29:50.850";"NST_correctLoc";"21";"1";"FINISHED";"RIGHT";"success";"329";"0";"2014-10-14 11:29:49.600";"3";;;;;;;;;;;;;;;;;;;;;;;;;;;;;;;;;;;;;;;;;;;;;;;;;;;;;;;;;
"Ett414";"1995";;"Windows 7";"Rachel's Experiment (D.T.)";"1.0";"2";"1";"1";"2";"1";"1";"2014-10-14 11:25:02.475";"2014-10-14 11:42:59.062";"1";"0";"0";"34";"33";"module.training_block1.exec-4574.GoNoGo1";;;;;;;;;;;;;;;;;;;;;;;"1249";"2014-10-14 11:29:53.395";"NST_correctLoc";"11";"1";"FINISHED";"RIGHT";"success";"319";"0";"2014-10-14 11:29:52.145";"2";;;;;;;;;;;;;;;;;;;;;;;;;;;;;;;;;;;;;;;;;;;;;;;;;;;;;;;;;
"Ett414";"1995";;"Windows 7";"Rachel's Experiment (D.T.)";"1.0";"2";"1";"1";"2";"1";"1";"2014-10-14 11:25:02.475";"2014-10-14 11:42:59.062";"1";"0";"0";"35";"34";"module.training_block1.exec-4574.GoNoGo1";;;;;;;;;;;;;;;;;;;;;;;"1249";"2014-10-14 11:29:55.922";"NST_correctLoc";"6";"0";"FINISHED";"LEFT";"success";"401";"0";"2014-10-14 11:29:54.672";"1";;;;;;;;;;;;;;;;;;;;;;;;;;;;;;;;;;;;;;;;;;;;;;;;;;;;;;;;;
"Ett414";"1995";;"Windows 7";"Rachel's Experiment (D.T.)";"1.0";"2";"1";"1";"2";"1";"1";"2014-10-14 11:25:02.475";"2014-10-14 11:42:59.062";"1";"0";"0";"36";"35";"module.training_block1.exec-4574.GoNoGo1";;;;;;;;;;;;;;;;;;;;;;;"1249";"2014-10-14 11:29:58.457";"NST_correctLoc";"2";"0";"FINISHED";"LEFT";"success";"300";"0";"2014-10-14 11:29:57.207";"1";;;;;;;;;;;;;;;;;;;;;;;;;;;;;;;;;;;;;;;;;;;;;;;;;;;;;;;;;
"Ett414";"1995";;"Windows 7";"Rachel's Experiment (D.T.)";"1.0";"2";"1";"1";"2";"1";"1";"2014-10-14 11:25:02.475";"2014-10-14 11:42:59.062";"1";"0";"0";"37";"36";"module.training_block1.exec-4574.GoNoGo1";;;;;;;;;;;;;;;;;;;;;;;"1249";"2014-10-14 11:30:00.990";"NST_correctLoc";"20";"0";"FINISHED";"LEFT";"success";"321";"0";"2014-10-14 11:29:59.740";"3";;;;;;;;;;;;;;;;;;;;;;;;;;;;;;;;;;;;;;;;;;;;;;;;;;;;;;;;;
"Ett414";"1995";;"Windows 7";"Rachel's Experiment (D.T.)";"1.0";"2";"1";"1";"2";"1";"1";"2014-10-14 11:25:02.475";"2014-10-14 11:42:59.062";"1";"0";"0";"38";"37";"module.training_block1.exec-4574.GoNoGo1";;;;;;;;;;;;;;;;;;;;;;;"1249";"2014-10-14 11:30:03.534";"NST_correctLoc";"32";"0";"FINISHED";"LEFT";"success";"325";"0";"2014-10-14 11:30:02.284";"3";;;;;;;;;;;;;;;;;;;;;;;;;;;;;;;;;;;;;;;;;;;;;;;;;;;;;;;;;
"Ett414";"1995";;"Windows 7";"Rachel's Experiment (D.T.)";"1.0";"2";"1";"1";"2";"1";"1";"2014-10-14 11:25:02.475";"2014-10-14 11:42:59.062";"1";"0";"0";"39";"38";"module.training_block1.exec-4574.GoNoGo1";;;;;;;;;;;;;;;;;;;;;;;"1250";"2014-10-14 11:30:06.070";"NST_correctLoc";"10";"1";"FINISHED";"RIGHT";"success";"312";"0";"2014-10-14 11:30:04.820";"2";;;;;;;;;;;;;;;;;;;;;;;;;;;;;;;;;;;;;;;;;;;;;;;;;;;;;;;;;
"Ett414";"1995";;"Windows 7";"Rachel's Experiment (D.T.)";"1.0";"2";"1";"1";"2";"1";"1";"2014-10-14 11:25:02.475";"2014-10-14 11:42:59.062";"1";"0";"0";"40";"39";"module.training_block1.exec-4574.GoNoGo1";;;;;;;;;;;;;;;;;;;;;;;"1249";"2014-10-14 11:30:08.609";"NST_correctLoc";"16";"1";"FINISHED";"RIGHT";"success";"303";"0";"2014-10-14 11:30:07.359";"2";;;;;;;;;;;;;;;;;;;;;;;;;;;;;;;;;;;;;;;;;;;;;;;;;;;;;;;;;
"Ett414";"1995";;"Windows 7";"Rachel's Experiment (D.T.)";"1.0";"2";"1";"1";"2";"1";"1";"2014-10-14 11:25:02.475";"2014-10-14 11:42:59.062";"1";"0";"0";"41";"40";"module.training_block1.exec-4574.GoNoGo1";;;;;;;;;;;;;;;;;;;;;;;"1250";"2014-10-14 11:30:11.153";"NST_correctLoc";"4";"0";"FINISHED";"LEFT";"success";"326";"0";"2014-10-14 11:30:09.903";"1";;;;;;;;;;;;;;;;;;;;;;;;;;;;;;;;;;;;;;;;;;;;;;;;;;;;;;;;;
"Ett414";"1995";;"Windows 7";"Rachel's Experiment (D.T.)";"1.0";"2";"1";"1";"2";"1";"1";"2014-10-14 11:25:02.475";"2014-10-14 11:42:59.062";"1";"0";"0";"42";"41";"module.training_block1.exec-4574.GoNoGo1";;;;;;;;;;;;;;;;;;;;;;;"1249";"2014-10-14 11:30:13.683";"NST_correctLoc";"30";"0";"FINISHED";"LEFT";"success";"314";"0";"2014-10-14 11:30:12.433";"3";;;;;;;;;;;;;;;;;;;;;;;;;;;;;;;;;;;;;;;;;;;;;;;;;;;;;;;;;
"Ett414";"1995";;"Windows 7";"Rachel's Experiment (D.T.)";"1.0";"2";"1";"1";"2";"1";"1";"2014-10-14 11:25:02.475";"2014-10-14 11:42:59.062";"1";"0";"0";"43";"42";"module.training_block1.exec-4574.GoNoGo1";;;;;;;;;;;;;;;;;;;;;;;"1249";"2014-10-14 11:30:16.222";"NST_correctLoc";"12";"1";"FINISHED";"RIGHT";"success";"315";"0";"2014-10-14 11:30:14.972";"2";;;;;;;;;;;;;;;;;;;;;;;;;;;;;;;;;;;;;;;;;;;;;;;;;;;;;;;;;
"Ett414";"1995";;"Windows 7";"Rachel's Experiment (D.T.)";"1.0";"2";"1";"1";"2";"1";"1";"2014-10-14 11:25:02.475";"2014-10-14 11:42:59.062";"1";"0";"0";"44";"43";"module.training_block1.exec-4574.GoNoGo1";;;;;;;;;;;;;;;;;;;;;;;"1249";"2014-10-14 11:30:18.751";"NST_correctLoc";"34";"0";"FINISHED";"LEFT";"success";"308";"0";"2014-10-14 11:30:17.501";"3";;;;;;;;;;;;;;;;;;;;;;;;;;;;;;;;;;;;;;;;;;;;;;;;;;;;;;;;;
"Ett414";"1995";;"Windows 7";"Rachel's Experiment (D.T.)";"1.0";"2";"1";"1";"2";"1";"1";"2014-10-14 11:25:02.475";"2014-10-14 11:42:59.062";"1";"0";"0";"45";"44";"module.training_block1.exec-4574.GoNoGo1";;;;;;;;;;;;;;;;;;;;;;;"1250";"2014-10-14 11:30:21.295";"NST_correctLoc";"19";"0";"FINISHED";"LEFT";"success";"251";"0";"2014-10-14 11:30:20.045";"3";;;;;;;;;;;;;;;;;;;;;;;;;;;;;;;;;;;;;;;;;;;;;;;;;;;;;;;;;
"Ett414";"1995";;"Windows 7";"Rachel's Experiment (D.T.)";"1.0";"2";"1";"1";"2";"1";"1";"2014-10-14 11:25:02.475";"2014-10-14 11:42:59.062";"1";"0";"0";"46";"45";"module.training_block1.exec-4574.GoNoGo1";;;;;;;;;;;;;;;;;;;;;;;"1250";"2014-10-14 11:30:23.827";"NST_correctLoc";"0";"1";"FINISHED";"RIGHT";"success";"306";"0";"2014-10-14 11:30:22.577";"1";;;;;;;;;;;;;;;;;;;;;;;;;;;;;;;;;;;;;;;;;;;;;;;;;;;;;;;;;
"Ett414";"1995";;"Windows 7";"Rachel's Experiment (D.T.)";"1.0";"2";"1";"1";"2";"1";"1";"2014-10-14 11:25:02.475";"2014-10-14 11:42:59.062";"1";"0";"0";"47";"46";"module.training_block1.exec-4574.GoNoGo1";;;;;;;;;;;;;;;;;;;;;;;"1249";"2014-10-14 11:30:26.358";"NST_correctLoc";"3";"0";"FINISHED";"LEFT";"success";"281";"0";"2014-10-14 11:30:25.108";"1";;;;;;;;;;;;;;;;;;;;;;;;;;;;;;;;;;;;;;;;;;;;;;;;;;;;;;;;;
"Ett414";"1995";;"Windows 7";"Rachel's Experiment (D.T.)";"1.0";"2";"1";"1";"2";"1";"1";"2014-10-14 11:25:02.475";"2014-10-14 11:42:59.062";"1";"0";"0";"48";"47";"module.training_block1.exec-4574.GoNoGo1";;;;;;;;;;;;;;;;;;;;;;;"1249";"2014-10-14 11:30:28.893";"NST_correctLoc";"18";"1";"FINISHED";"RIGHT";"success";"290";"0";"2014-10-14 11:30:27.643";"3";;;;;;;;;;;;;;;;;;;;;;;;;;;;;;;;;;;;;;;;;;;;;;;;;;;;;;;;;
"Ett414";"1995";;"Windows 7";"Rachel's Experiment (D.T.)";"1.0";"2";"1";"1";"2";"1";"1";"2014-10-14 11:25:02.475";"2014-10-14 11:42:59.062";"1";"0";"0";"49";"48";"module.training_block1.exec-4574.GoNoGo1";;;;;;;;;;;;;;;;;;;;;;;"1250";"2014-10-14 11:30:31.423";"NST_correctLoc";"15";"0";"FINISHED";"LEFT";"success";"284";"0";"2014-10-14 11:30:30.173";"2";;;;;;;;;;;;;;;;;;;;;;;;;;;;;;;;;;;;;;;;;;;;;;;;;;;;;;;;;
"Ett414";"1995";;"Windows 7";"Rachel's Experiment (D.T.)";"1.0";"2";"1";"1";"2";"1";"1";"2014-10-14 11:25:02.475";"2014-10-14 11:42:59.062";"1";"0";"0";"50";"49";"module.training_block1.exec-4574.GoNoGo1";;;;;;;;;;;;;;;;;;;;;;;"1249";"2014-10-14 11:30:33.965";"NST_correctLoc";"29";"1";"FINISHED";"RIGHT";"success";"263";"0";"2014-10-14 11:30:32.715";"3";;;;;;;;;;;;;;;;;;;;;;;;;;;;;;;;;;;;;;;;;;;;;;;;;;;;;;;;;
"Ett414";"1995";;"Windows 7";"Rachel's Experiment (D.T.)";"1.0";"2";"1";"1";"2";"1";"1";"2014-10-14 11:25:02.475";"2014-10-14 11:42:59.062";"1";"0";"0";"51";"50";"module.training_block1.exec-4574.GoNoGo1";;;;;;;;;;;;;;;;;;;;;;;"1250";"2014-10-14 11:30:36.504";"NST_correctLoc";"17";"1";"FINISHED";"RIGHT";"success";"307";"0";"2014-10-14 11:30:35.254";"2";;;;;;;;;;;;;;;;;;;;;;;;;;;;;;;;;;;;;;;;;;;;;;;;;;;;;;;;;
"Ett414";"1995";;"Windows 7";"Rachel's Experiment (D.T.)";"1.0";"2";"1";"1";"2";"1";"1";"2014-10-14 11:25:02.475";"2014-10-14 11:42:59.062";"1";"0";"0";"52";"51";"module.training_block2.exec-4353.GoNoGo2";;;;;;;;;;;;;;;;;;;;;;;;;;;;;;;;;;;"1250";"2014-10-14 11:30:50.201";"NST_correctLoc";"6";"0";"FINISHED";"LEFT";"success";"317";"0";"2014-10-14 11:30:48.951";"1";;;;;;;;;;;;;;;;;;;;;;;;;;;;;;;;;;;;;;;;;;;;;
"Ett414";"1995";;"Windows 7";"Rachel's Experiment (D.T.)";"1.0";"2";"1";"1";"2";"1";"1";"2014-10-14 11:25:02.475";"2014-10-14 11:42:59.062";"1";"0";"0";"53";"52";"module.training_block2.exec-4353.GoNoGo2";;;;;;;;;;;;;;;;;;;;;;;;;;;;;;;;;;;"1249";"2014-10-14 11:30:52.728";"NST_correctLoc";"17";"0";"FINISHED";"LEFT";"success";"316";"0";"2014-10-14 11:30:51.478";"2";;;;;;;;;;;;;;;;;;;;;;;;;;;;;;;;;;;;;;;;;;;;;
"Ett414";"1995";;"Windows 7";"Rachel's Experiment (D.T.)";"1.0";"2";"1";"1";"2";"1";"1";"2014-10-14 11:25:02.475";"2014-10-14 11:42:59.062";"1";"0";"0";"54";"53";"module.training_block2.exec-4353.GoNoGo2";;;;;;;;;;;;;;;;;;;;;;;;;;;;;;;;;;;"1249";"2014-10-14 11:30:55.262";"NST_correctLoc";"26";"1";"FINISHED";"RIGHT";"success";"290";"0";"2014-10-14 11:30:54.012";"3";;;;;;;;;;;;;;;;;;;;;;;;;;;;;;;;;;;;;;;;;;;;;
"Ett414";"1995";;"Windows 7";"Rachel's Experiment (D.T.)";"1.0";"2";"1";"1";"2";"1";"1";"2014-10-14 11:25:02.475";"2014-10-14 11:42:59.062";"1";"0";"0";"55";"54";"module.training_block2.exec-4353.GoNoGo2";;;;;;;;;;;;;;;;;;;;;;;;;;;;;;;;;;;"1249";"2014-10-14 11:30:57.788";"NST_correctLoc";"18";"1";"FINISHED";"RIGHT";"success";"317";"0";"2014-10-14 11:30:56.538";"3";;;;;;;;;;;;;;;;;;;;;;;;;;;;;;;;;;;;;;;;;;;;;
"Ett414";"1995";;"Windows 7";"Rachel's Experiment (D.T.)";"1.0";"2";"1";"1";"2";"1";"1";"2014-10-14 11:25:02.475";"2014-10-14 11:42:59.062";"1";"0";"0";"56";"55";"module.training_block2.exec-4353.GoNoGo2";;;;;;;;;;;;;;;;;;;;;;;;;;;;;;;;;;;"1250";"2014-10-14 11:31:00.317";"NST_correctLoc";"2";"1";"FINISHED";"RIGHT";"success";"298";"0";"2014-10-14 11:30:59.067";"1";;;;;;;;;;;;;;;;;;;;;;;;;;;;;;;;;;;;;;;;;;;;;
"Ett414";"1995";;"Windows 7";"Rachel's Experiment (D.T.)";"1.0";"2";"1";"1";"2";"1";"1";"2014-10-14 11:25:02.475";"2014-10-14 11:42:59.062";"1";"0";"0";"57";"56";"module.training_block2.exec-4353.GoNoGo2";;;;;;;;;;;;;;;;;;;;;;;;;;;;;;;;;;;"1249";"2014-10-14 11:31:02.852";"NST_correctLoc";"23";"1";"FINISHED";"RIGHT";"success";"290";"0";"2014-10-14 11:31:01.602";"3";;;;;;;;;;;;;;;;;;;;;;;;;;;;;;;;;;;;;;;;;;;;;
"Ett414";"1995";;"Windows 7";"Rachel's Experiment (D.T.)";"1.0";"2";"1";"1";"2";"1";"1";"2014-10-14 11:25:02.475";"2014-10-14 11:42:59.062";"1";"0";"0";"58";"57";"module.training_block2.exec-4353.GoNoGo2";;;;;;;;;;;;;;;;;;;;;;;;;;;;;;;;;;;"1249";"2014-10-14 11:31:05.387";"NST_correctLoc";"0";"1";"FINISHED";"RIGHT";"success";"300";"0";"2014-10-14 11:31:04.137";"1";;;;;;;;;;;;;;;;;;;;;;;;;;;;;;;;;;;;;;;;;;;;;
"Ett414";"1995";;"Windows 7";"Rachel's Experiment (D.T.)";"1.0";"2";"1";"1";"2";"1";"1";"2014-10-14 11:25:02.475";"2014-10-14 11:42:59.062";"1";"0";"0";"59";"58";"module.training_block2.exec-4353.GoNoGo2";;;;;;;;;;;;;;;;;;;;;;;;;;;;;;;;;;;"1249";"2014-10-14 11:31:07.919";"NST_correctLoc";"25";"0";"FINISHED";"LEFT";"success";"336";"0";"2014-10-14 11:31:06.669";"3";;;;;;;;;;;;;;;;;;;;;;;;;;;;;;;;;;;;;;;;;;;;;
"Ett414";"1995";;"Windows 7";"Rachel's Experiment (D.T.)";"1.0";"2";"1";"1";"2";"1";"1";"2014-10-14 11:25:02.475";"2014-10-14 11:42:59.062";"1";"0";"0";"60";"59";"module.training_block2.exec-4353.GoNoGo2";;;;;;;;;;;;;;;;;;;;;;;;;;;;;;;;;;;"1249";"2014-10-14 11:31:10.454";"NST_correctLoc";"12";"1";"FINISHED";"RIGHT";"success";"294";"0";"2014-10-14 11:31:09.204";"2";;;;;;;;;;;;;;;;;;;;;;;;;;;;;;;;;;;;;;;;;;;;;
"Ett414";"1995";;"Windows 7";"Rachel's Experiment (D.T.)";"1.0";"2";"1";"1";"2";"1";"1";"2014-10-14 11:25:02.475";"2014-10-14 11:42:59.062";"1";"0";"0";"61";"60";"module.training_block2.exec-4353.GoNoGo2";;;;;;;;;;;;;;;;;;;;;;;;;;;;;;;;;;;"1249";"2014-10-14 11:31:12.982";"NST_correctLoc";"14";"0";"FINISHED";"LEFT";"success";"275";"0";"2014-10-14 11:31:11.732";"2";;;;;;;;;;;;;;;;;;;;;;;;;;;;;;;;;;;;;;;;;;;;;
"Ett414";"1995";;"Windows 7";"Rachel's Experiment (D.T.)";"1.0";"2";"1";"1";"2";"1";"1";"2014-10-14 11:25:02.475";"2014-10-14 11:42:59.062";"1";"0";"0";"62";"61";"module.training_block2.exec-4353.GoNoGo2";;;;;;;;;;;;;;;;;;;;;;;;;;;;;;;;;;;"1249";"2014-10-14 11:31:15.513";"NST_correctLoc";"32";"0";"FINISHED";"LEFT";"success";"315";"0";"2014-10-14 11:31:14.263";"3";;;;;;;;;;;;;;;;;;;;;;;;;;;;;;;;;;;;;;;;;;;;;
"Ett414";"1995";;"Windows 7";"Rachel's Experiment (D.T.)";"1.0";"2";"1";"1";"2";"1";"1";"2014-10-14 11:25:02.475";"2014-10-14 11:42:59.062";"1";"0";"0";"63";"62";"module.training_block2.exec-4353.GoNoGo2";;;;;;;;;;;;;;;;;;;;;;;;;;;;;;;;;;;"1249";"2014-10-14 11:31:18.048";"NST_correctLoc";"1";"1";"FINISHED";"RIGHT";"success";"324";"0";"2014-10-14 11:31:16.798";"1";;;;;;;;;;;;;;;;;;;;;;;;;;;;;;;;;;;;;;;;;;;;;
"Ett414";"1995";;"Windows 7";"Rachel's Experiment (D.T.)";"1.0";"2";"1";"1";"2";"1";"1";"2014-10-14 11:25:02.475";"2014-10-14 11:42:59.062";"1";"0";"0";"64";"63";"module.training_block2.exec-4353.GoNoGo2";;;;;;;;;;;;;;;;;;;;;;;;;;;;;;;;;;;"1249";"2014-10-14 11:31:20.580";"NST_correctLoc";"21";"1";"FINISHED";"RIGHT";"success";"358";"0";"2014-10-14 11:31:19.330";"3";;;;;;;;;;;;;;;;;;;;;;;;;;;;;;;;;;;;;;;;;;;;;
"Ett414";"1995";;"Windows 7";"Rachel's Experiment (D.T.)";"1.0";"2";"1";"1";"2";"1";"1";"2014-10-14 11:25:02.475";"2014-10-14 11:42:59.062";"1";"0";"0";"65";"64";"module.training_block2.exec-4353.GoNoGo2";;;;;;;;;;;;;;;;;;;;;;;;;;;;;;;;;;;"1249";"2014-10-14 11:31:23.114";"NST_correctLoc";"8";"1";"FINISHED";"RIGHT";"success";"300";"0";"2014-10-14 11:31:21.864";"1";;;;;;;;;;;;;;;;;;;;;;;;;;;;;;;;;;;;;;;;;;;;;
"Ett414";"1995";;"Windows 7";"Rachel's Experiment (D.T.)";"1.0";"2";"1";"1";"2";"1";"1";"2014-10-14 11:25:02.475";"2014-10-14 11:42:59.062";"1";"0";"0";"66";"65";"module.training_block2.exec-4353.GoNoGo2";;;;;;;;;;;;;;;;;;;;;;;;;;;;;;;;;;;"1249";"2014-10-14 11:31:25.646";"NST_correctLoc";"15";"1";"FINISHED";"RIGHT";"success";"324";"0";"2014-10-14 11:31:24.396";"2";;;;;;;;;;;;;;;;;;;;;;;;;;;;;;;;;;;;;;;;;;;;;
"Ett414";"1995";;"Windows 7";"Rachel's Experiment (D.T.)";"1.0";"2";"1";"1";"2";"1";"1";"2014-10-14 11:25:02.475";"2014-10-14 11:42:59.062";"1";"0";"0";"67";"66";"module.training_block2.exec-4353.GoNoGo2";;;;;;;;;;;;;;;;;;;;;;;;;;;;;;;;;;;"1249";"2014-10-14 11:31:28.185";"NST_correctLoc";"29";"1";"FINISHED";"RIGHT";"success";"289";"0";"2014-10-14 11:31:26.935";"3";;;;;;;;;;;;;;;;;;;;;;;;;;;;;;;;;;;;;;;;;;;;;
"Ett414";"1995";;"Windows 7";"Rachel's Experiment (D.T.)";"1.0";"2";"1";"1";"2";"1";"1";"2014-10-14 11:25:02.475";"2014-10-14 11:42:59.062";"1";"0";"0";"68";"67";"module.training_block2.exec-4353.GoNoGo2";;;;;;;;;;;;;;;;;;;;;;;;;;;;;;;;;;;"1249";"2014-10-14 11:31:30.719";"NST_correctLoc";"5";"1";"FINISHED";"RIGHT";"success";"329";"0";"2014-10-14 11:31:29.469";"1";;;;;;;;;;;;;;;;;;;;;;;;;;;;;;;;;;;;;;;;;;;;;
"Ett414";"1995";;"Windows 7";"Rachel's Experiment (D.T.)";"1.0";"2";"1";"1";"2";"1";"1";"2014-10-14 11:25:02.475";"2014-10-14 11:42:59.062";"1";"0";"0";"69";"68";"module.training_block2.exec-4353.GoNoGo2";;;;;;;;;;;;;;;;;;;;;;;;;;;;;;;;;;;"1249";"2014-10-14 11:31:33.258";"NST_correctLoc";"7";"0";"FINISHED";"LEFT";"success";"312";"0";"2014-10-14 11:31:32.008";"1";;;;;;;;;;;;;;;;;;;;;;;;;;;;;;;;;;;;;;;;;;;;;
"Ett414";"1995";;"Windows 7";"Rachel's Experiment (D.T.)";"1.0";"2";"1";"1";"2";"1";"1";"2014-10-14 11:25:02.475";"2014-10-14 11:42:59.062";"1";"0";"0";"70";"69";"module.training_block2.exec-4353.GoNoGo2";;;;;;;;;;;;;;;;;;;;;;;;;;;;;;;;;;;"1250";"2014-10-14 11:31:35.790";"NST_correctLoc";"31";"0";"FINISHED";"LEFT";"success";"340";"0";"2014-10-14 11:31:34.540";"3";;;;;;;;;;;;;;;;;;;;;;;;;;;;;;;;;;;;;;;;;;;;;
"Ett414";"1995";;"Windows 7";"Rachel's Experiment (D.T.)";"1.0";"2";"1";"1";"2";"1";"1";"2014-10-14 11:25:02.475";"2014-10-14 11:42:59.062";"1";"0";"0";"71";"70";"module.training_block2.exec-4353.GoNoGo2";;;;;;;;;;;;;;;;;;;;;;;;;;;;;;;;;;;"1249";"2014-10-14 11:31:38.324";"NST_correctLoc";"24";"0";"FINISHED";"LEFT";"success";"328";"0";"2014-10-14 11:31:37.074";"3";;;;;;;;;;;;;;;;;;;;;;;;;;;;;;;;;;;;;;;;;;;;;
"Ett414";"1995";;"Windows 7";"Rachel's Experiment (D.T.)";"1.0";"2";"1";"1";"2";"1";"1";"2014-10-14 11:25:02.475";"2014-10-14 11:42:59.062";"1";"0";"0";"72";"71";"module.training_block2.exec-4353.GoNoGo2";;;;;;;;;;;;;;;;;;;;;;;;;;;;;;;;;;;"1249";"2014-10-14 11:31:40.858";"NST_correctLoc";"13";"0";"FINISHED";"LEFT";"success";"292";"0";"2014-10-14 11:31:39.608";"2";;;;;;;;;;;;;;;;;;;;;;;;;;;;;;;;;;;;;;;;;;;;;
"Ett414";"1995";;"Windows 7";"Rachel's Experiment (D.T.)";"1.0";"2";"1";"1";"2";"1";"1";"2014-10-14 11:25:02.475";"2014-10-14 11:42:59.062";"1";"0";"0";"73";"72";"module.training_block2.exec-4353.GoNoGo2";;;;;;;;;;;;;;;;;;;;;;;;;;;;;;;;;;;"1249";"2014-10-14 11:31:43.394";"NST_correctLoc";"27";"1";"FINISHED";"RIGHT";"success";"359";"0";"2014-10-14 11:31:42.144";"3";;;;;;;;;;;;;;;;;;;;;;;;;;;;;;;;;;;;;;;;;;;;;
"Ett414";"1995";;"Windows 7";"Rachel's Experiment (D.T.)";"1.0";"2";"1";"1";"2";"1";"1";"2014-10-14 11:25:02.475";"2014-10-14 11:42:59.062";"1";"0";"0";"74";"73";"module.training_block2.exec-4353.GoNoGo2";;;;;;;;;;;;;;;;;;;;;;;;;;;;;;;;;;;"1249";"2014-10-14 11:31:45.934";"NST_correctLoc";"11";"1";"FINISHED";"RIGHT";"success";"339";"0";"2014-10-14 11:31:44.684";"2";;;;;;;;;;;;;;;;;;;;;;;;;;;;;;;;;;;;;;;;;;;;;
"Ett414";"1995";;"Windows 7";"Rachel's Experiment (D.T.)";"1.0";"2";"1";"1";"2";"1";"1";"2014-10-14 11:25:02.475";"2014-10-14 11:42:59.062";"1";"0";"0";"75";"74";"module.training_block2.exec-4353.GoNoGo2";;;;;;;;;;;;;;;;;;;;;;;;;;;;;;;;;;;"1249";"2014-10-14 11:31:48.467";"NST_correctLoc";"3";"1";"FINISHED";"RIGHT";"success";"389";"0";"2014-10-14 11:31:47.217";"1";;;;;;;;;;;;;;;;;;;;;;;;;;;;;;;;;;;;;;;;;;;;;
"Ett414";"1995";;"Windows 7";"Rachel's Experiment (D.T.)";"1.0";"2";"1";"1";"2";"1";"1";"2014-10-14 11:25:02.475";"2014-10-14 11:42:59.062";"1";"0";"0";"76";"75";"module.training_block2.exec-4353.GoNoGo2";;;;;;;;;;;;;;;;;;;;;;;;;;;;;;;;;;;"1249";"2014-10-14 11:31:51.009";"NST_correctLoc";"28";"0";"FINISHED";"LEFT";"success";"319";"0";"2014-10-14 11:31:49.759";"3";;;;;;;;;;;;;;;;;;;;;;;;;;;;;;;;;;;;;;;;;;;;;
"Ett414";"1995";;"Windows 7";"Rachel's Experiment (D.T.)";"1.0";"2";"1";"1";"2";"1";"1";"2014-10-14 11:25:02.475";"2014-10-14 11:42:59.062";"1";"0";"0";"77";"76";"module.training_block2.exec-4353.GoNoGo2";;;;;;;;;;;;;;;;;;;;;;;;;;;;;;;;;;;"1249";"2014-10-14 11:31:53.544";"NST_correctLoc";"35";"0";"FINISHED";"LEFT";"success";"329";"0";"2014-10-14 11:31:52.294";"3";;;;;;;;;;;;;;;;;;;;;;;;;;;;;;;;;;;;;;;;;;;;;
"Ett414";"1995";;"Windows 7";"Rachel's Experiment (D.T.)";"1.0";"2";"1";"1";"2";"1";"1";"2014-10-14 11:25:02.475";"2014-10-14 11:42:59.062";"1";"0";"0";"78";"77";"module.training_block2.exec-4353.GoNoGo2";;;;;;;;;;;;;;;;;;;;;;;;;;;;;;;;;;;"1249";"2014-10-14 11:31:56.073";"NST_correctLoc";"9";"0";"FINISHED";"LEFT";"success";"363";"0";"2014-10-14 11:31:54.823";"2";;;;;;;;;;;;;;;;;;;;;;;;;;;;;;;;;;;;;;;;;;;;;
"Ett414";"1995";;"Windows 7";"Rachel's Experiment (D.T.)";"1.0";"2";"1";"1";"2";"1";"1";"2014-10-14 11:25:02.475";"2014-10-14 11:42:59.062";"1";"0";"0";"79";"78";"module.training_block2.exec-4353.GoNoGo2";;;;;;;;;;;;;;;;;;;;;;;;;;;;;;;;;;;"1250";"2014-10-14 11:31:58.602";"NST_correctLoc";"22";"0";"FINISHED";"LEFT";"success";"300";"0";"2014-10-14 11:31:57.352";"3";;;;;;;;;;;;;;;;;;;;;;;;;;;;;;;;;;;;;;;;;;;;;
"Ett414";"1995";;"Windows 7";"Rachel's Experiment (D.T.)";"1.0";"2";"1";"1";"2";"1";"1";"2014-10-14 11:25:02.475";"2014-10-14 11:42:59.062";"1";"0";"0";"80";"79";"module.training_block2.exec-4353.GoNoGo2";;;;;;;;;;;;;;;;;;;;;;;;;;;;;;;;;;;"1249";"2014-10-14 11:32:01.131";"NST_correctLoc";"30";"0";"FINISHED";"LEFT";"success";"297";"0";"2014-10-14 11:31:59.881";"3";;;;;;;;;;;;;;;;;;;;;;;;;;;;;;;;;;;;;;;;;;;;;
"Ett414";"1995";;"Windows 7";"Rachel's Experiment (D.T.)";"1.0";"2";"1";"1";"2";"1";"1";"2014-10-14 11:25:02.475";"2014-10-14 11:42:59.062";"1";"0";"0";"81";"80";"module.training_block2.exec-4353.GoNoGo2";;;;;;;;;;;;;;;;;;;;;;;;;;;;;;;;;;;"1249";"2014-10-14 11:32:03.658";"NST_correctLoc";"4";"0";"FINISHED";"LEFT";"success";"312";"0";"2014-10-14 11:32:02.408";"1";;;;;;;;;;;;;;;;;;;;;;;;;;;;;;;;;;;;;;;;;;;;;
"Ett414";"1995";;"Windows 7";"Rachel's Experiment (D.T.)";"1.0";"2";"1";"1";"2";"1";"1";"2014-10-14 11:25:02.475";"2014-10-14 11:42:59.062";"1";"0";"0";"82";"81";"module.training_block2.exec-4353.GoNoGo2";;;;;;;;;;;;;;;;;;;;;;;;;;;;;;;;;;;"1249";"2014-10-14 11:32:06.203";"NST_correctLoc";"20";"0";"FINISHED";"LEFT";"success";"291";"0";"2014-10-14 11:32:04.953";"3";;;;;;;;;;;;;;;;;;;;;;;;;;;;;;;;;;;;;;;;;;;;;
"Ett414";"1995";;"Windows 7";"Rachel's Experiment (D.T.)";"1.0";"2";"1";"1";"2";"1";"1";"2014-10-14 11:25:02.475";"2014-10-14 11:42:59.062";"1";"0";"0";"83";"82";"module.training_block2.exec-4353.GoNoGo2";;;;;;;;;;;;;;;;;;;;;;;;;;;;;;;;;;;"1250";"2014-10-14 11:32:08.728";"NST_correctLoc";"16";"0";"FINISHED";"LEFT";"success";"332";"0";"2014-10-14 11:32:07.478";"2";;;;;;;;;;;;;;;;;;;;;;;;;;;;;;;;;;;;;;;;;;;;;
"Ett414";"1995";;"Windows 7";"Rachel's Experiment (D.T.)";"1.0";"2";"1";"1";"2";"1";"1";"2014-10-14 11:25:02.475";"2014-10-14 11:42:59.062";"1";"0";"0";"84";"83";"module.training_block2.exec-4353.GoNoGo2";;;;;;;;;;;;;;;;;;;;;;;;;;;;;;;;;;;"1249";"2014-10-14 11:32:11.262";"NST_correctLoc";"33";"0";"FINISHED";"LEFT";"success";"292";"0";"2014-10-14 11:32:10.012";"3";;;;;;;;;;;;;;;;;;;;;;;;;;;;;;;;;;;;;;;;;;;;;
"Ett414";"1995";;"Windows 7";"Rachel's Experiment (D.T.)";"1.0";"2";"1";"1";"2";"1";"1";"2014-10-14 11:25:02.475";"2014-10-14 11:42:59.062";"1";"0";"0";"85";"84";"module.training_block2.exec-4353.GoNoGo2";;;;;;;;;;;;;;;;;;;;;;;;;;;;;;;;;;;"1249";"2014-10-14 11:32:13.796";"NST_correctLoc";"10";"1";"FINISHED";"RIGHT";"success";"334";"0";"2014-10-14 11:32:12.546";"2";;;;;;;;;;;;;;;;;;;;;;;;;;;;;;;;;;;;;;;;;;;;;
"Ett414";"1995";;"Windows 7";"Rachel's Experiment (D.T.)";"1.0";"2";"1";"1";"2";"1";"1";"2014-10-14 11:25:02.475";"2014-10-14 11:42:59.062";"1";"0";"0";"86";"85";"module.training_block2.exec-4353.GoNoGo2";;;;;;;;;;;;;;;;;;;;;;;;;;;;;;;;;;;"1249";"2014-10-14 11:32:16.324";"NST_correctLoc";"19";"0";"FINISHED";"LEFT";"success";"322";"0";"2014-10-14 11:32:15.074";"3";;;;;;;;;;;;;;;;;;;;;;;;;;;;;;;;;;;;;;;;;;;;;
"Ett414";"1995";;"Windows 7";"Rachel's Experiment (D.T.)";"1.0";"2";"1";"1";"2";"1";"1";"2014-10-14 11:25:02.475";"2014-10-14 11:42:59.062";"1";"0";"0";"87";"86";"module.training_block2.exec-4353.GoNoGo2";;;;;;;;;;;;;;;;;;;;;;;;;;;;;;;;;;;"1249";"2014-10-14 11:32:18.855";"NST_correctLoc";"34";"0";"FINISHED";"LEFT";"success";"268";"0";"2014-10-14 11:32:17.605";"3";;;;;;;;;;;;;;;;;;;;;;;;;;;;;;;;;;;;;;;;;;;;;
"Ett414";"1995";;"Windows 7";"Rachel's Experiment (D.T.)";"1.0";"2";"1";"1";"2";"1";"1";"2014-10-14 11:25:02.475";"2014-10-14 11:42:59.062";"1";"0";"0";"88";"87";"module.training_block3.exec-9866.GoNoGo3";;;;;;;;;;;;;;;;;;;;;;;;;;;;;;;;;;;;;;;;;;;;;;;"1249";"2014-10-14 11:32:29.184";"NST_correctLoc";"0";"1";"FINISHED";"RIGHT";"success";"308";"0";"2014-10-14 11:32:27.934";"1";;;;;;;;;;;;;;;;;;;;;;;;;;;;;;;;;
"Ett414";"1995";;"Windows 7";"Rachel's Experiment (D.T.)";"1.0";"2";"1";"1";"2";"1";"1";"2014-10-14 11:25:02.475";"2014-10-14 11:42:59.062";"1";"0";"0";"89";"88";"module.training_block3.exec-9866.GoNoGo3";;;;;;;;;;;;;;;;;;;;;;;;;;;;;;;;;;;;;;;;;;;;;;;"1249";"2014-10-14 11:32:31.708";"NST_correctLoc";"31";"0";"FINISHED";"LEFT";"success";"320";"0";"2014-10-14 11:32:30.458";"3";;;;;;;;;;;;;;;;;;;;;;;;;;;;;;;;;
"Ett414";"1995";;"Windows 7";"Rachel's Experiment (D.T.)";"1.0";"2";"1";"1";"2";"1";"1";"2014-10-14 11:25:02.475";"2014-10-14 11:42:59.062";"1";"0";"0";"90";"89";"module.training_block3.exec-9866.GoNoGo3";;;;;;;;;;;;;;;;;;;;;;;;;;;;;;;;;;;;;;;;;;;;;;;"1249";"2014-10-14 11:32:34.243";"NST_correctLoc";"29";"0";"FINISHED";"LEFT";"success";"337";"0";"2014-10-14 11:32:32.993";"3";;;;;;;;;;;;;;;;;;;;;;;;;;;;;;;;;
"Ett414";"1995";;"Windows 7";"Rachel's Experiment (D.T.)";"1.0";"2";"1";"1";"2";"1";"1";"2014-10-14 11:25:02.475";"2014-10-14 11:42:59.062";"1";"0";"0";"91";"90";"module.training_block3.exec-9866.GoNoGo3";;;;;;;;;;;;;;;;;;;;;;;;;;;;;;;;;;;;;;;;;;;;;;;"1249";"2014-10-14 11:32:36.773";"NST_correctLoc";"26";"1";"FINISHED";"RIGHT";"success";"274";"0";"2014-10-14 11:32:35.523";"3";;;;;;;;;;;;;;;;;;;;;;;;;;;;;;;;;
"Ett414";"1995";;"Windows 7";"Rachel's Experiment (D.T.)";"1.0";"2";"1";"1";"2";"1";"1";"2014-10-14 11:25:02.475";"2014-10-14 11:42:59.062";"1";"0";"0";"92";"91";"module.training_block3.exec-9866.GoNoGo3";;;;;;;;;;;;;;;;;;;;;;;;;;;;;;;;;;;;;;;;;;;;;;;"1249";"2014-10-14 11:32:39.298";"NST_correctLoc";"32";"0";"FINISHED";"LEFT";"success";"291";"0";"2014-10-14 11:32:38.048";"3";;;;;;;;;;;;;;;;;;;;;;;;;;;;;;;;;
"Ett414";"1995";;"Windows 7";"Rachel's Experiment (D.T.)";"1.0";"2";"1";"1";"2";"1";"1";"2014-10-14 11:25:02.475";"2014-10-14 11:42:59.062";"1";"0";"0";"93";"92";"module.training_block3.exec-9866.GoNoGo3";;;;;;;;;;;;;;;;;;;;;;;;;;;;;;;;;;;;;;;;;;;;;;;"1249";"2014-10-14 11:32:41.825";"NST_correctLoc";"22";"0";"FINISHED";"LEFT";"success";"308";"0";"2014-10-14 11:32:40.575";"3";;;;;;;;;;;;;;;;;;;;;;;;;;;;;;;;;
"Ett414";"1995";;"Windows 7";"Rachel's Experiment (D.T.)";"1.0";"2";"1";"1";"2";"1";"1";"2014-10-14 11:25:02.475";"2014-10-14 11:42:59.062";"1";"0";"0";"94";"93";"module.training_block3.exec-9866.GoNoGo3";;;;;;;;;;;;;;;;;;;;;;;;;;;;;;;;;;;;;;;;;;;;;;;"1249";"2014-10-14 11:32:44.347";"NST_correctLoc";"33";"0";"FINISHED";"LEFT";"success";"271";"0";"2014-10-14 11:32:43.096";"3";;;;;;;;;;;;;;;;;;;;;;;;;;;;;;;;;
"Ett414";"1995";;"Windows 7";"Rachel's Experiment (D.T.)";"1.0";"2";"1";"1";"2";"1";"1";"2014-10-14 11:25:02.475";"2014-10-14 11:42:59.062";"1";"0";"0";"95";"94";"module.training_block3.exec-9866.GoNoGo3";;;;;;;;;;;;;;;;;;;;;;;;;;;;;;;;;;;;;;;;;;;;;;;"1249";"2014-10-14 11:32:46.871";"NST_correctLoc";"8";"0";"FINISHED";"LEFT";"success";"268";"0";"2014-10-14 11:32:45.621";"1";;;;;;;;;;;;;;;;;;;;;;;;;;;;;;;;;
"Ett414";"1995";;"Windows 7";"Rachel's Experiment (D.T.)";"1.0";"2";"1";"1";"2";"1";"1";"2014-10-14 11:25:02.475";"2014-10-14 11:42:59.062";"1";"0";"0";"96";"95";"module.training_block3.exec-9866.GoNoGo3";;;;;;;;;;;;;;;;;;;;;;;;;;;;;;;;;;;;;;;;;;;;;;;"1250";"2014-10-14 11:32:49.394";"NST_correctLoc";"13";"0";"FINISHED";"LEFT";"success";"279";"0";"2014-10-14 11:32:48.144";"2";;;;;;;;;;;;;;;;;;;;;;;;;;;;;;;;;
"Ett414";"1995";;"Windows 7";"Rachel's Experiment (D.T.)";"1.0";"2";"1";"1";"2";"1";"1";"2014-10-14 11:25:02.475";"2014-10-14 11:42:59.062";"1";"0";"0";"97";"96";"module.training_block3.exec-9866.GoNoGo3";;;;;;;;;;;;;;;;;;;;;;;;;;;;;;;;;;;;;;;;;;;;;;;"1249";"2014-10-14 11:32:51.928";"NST_correctLoc";"25";"1";"FINISHED";"RIGHT";"success";"293";"0";"2014-10-14 11:32:50.678";"3";;;;;;;;;;;;;;;;;;;;;;;;;;;;;;;;;
"Ett414";"1995";;"Windows 7";"Rachel's Experiment (D.T.)";"1.0";"2";"1";"1";"2";"1";"1";"2014-10-14 11:25:02.475";"2014-10-14 11:42:59.062";"1";"0";"0";"98";"97";"module.training_block3.exec-9866.GoNoGo3";;;;;;;;;;;;;;;;;;;;;;;;;;;;;;;;;;;;;;;;;;;;;;;"1249";"2014-10-14 11:32:54.462";"NST_correctLoc";"7";"1";"FINISHED";"RIGHT";"success";"366";"0";"2014-10-14 11:32:53.212";"1";;;;;;;;;;;;;;;;;;;;;;;;;;;;;;;;;
"Ett414";"1995";;"Windows 7";"Rachel's Experiment (D.T.)";"1.0";"2";"1";"1";"2";"1";"1";"2014-10-14 11:25:02.475";"2014-10-14 11:42:59.062";"1";"0";"0";"99";"98";"module.training_block3.exec-9866.GoNoGo3";;;;;;;;;;;;;;;;;;;;;;;;;;;;;;;;;;;;;;;;;;;;;;;"1249";"2014-10-14 11:32:56.993";"NST_correctLoc";"17";"1";"FINISHED";"RIGHT";"success";"277";"0";"2014-10-14 11:32:55.743";"2";;;;;;;;;;;;;;;;;;;;;;;;;;;;;;;;;
"Ett414";"1995";;"Windows 7";"Rachel's Experiment (D.T.)";"1.0";"2";"1";"1";"2";"1";"1";"2014-10-14 11:25:02.475";"2014-10-14 11:42:59.062";"1";"0";"0";"100";"99";"module.training_block3.exec-9866.GoNoGo3";;;;;;;;;;;;;;;;;;;;;;;;;;;;;;;;;;;;;;;;;;;;;;;"1250";"2014-10-14 11:32:59.518";"NST_correctLoc";"24";"0";"FINISHED";"LEFT";"success";"307";"0";"2014-10-14 11:32:58.268";"3";;;;;;;;;;;;;;;;;;;;;;;;;;;;;;;;;
"Ett414";"1995";;"Windows 7";"Rachel's Experiment (D.T.)";"1.0";"2";"1";"1";"2";"1";"1";"2014-10-14 11:25:02.475";"2014-10-14 11:42:59.062";"1";"0";"0";"101";"100";"module.training_block3.exec-9866.GoNoGo3";;;;;;;;;;;;;;;;;;;;;;;;;;;;;;;;;;;;;;;;;;;;;;;"1250";"2014-10-14 11:33:02.053";"NST_correctLoc";"14";"0";"FINISHED";"LEFT";"success";"315";"0";"2014-10-14 11:33:00.802";"2";;;;;;;;;;;;;;;;;;;;;;;;;;;;;;;;;
"Ett414";"1995";;"Windows 7";"Rachel's Experiment (D.T.)";"1.0";"2";"1";"1";"2";"1";"1";"2014-10-14 11:25:02.475";"2014-10-14 11:42:59.062";"1";"0";"0";"102";"101";"module.training_block3.exec-9866.GoNoGo3";;;;;;;;;;;;;;;;;;;;;;;;;;;;;;;;;;;;;;;;;;;;;;;"1249";"2014-10-14 11:33:04.585";"NST_correctLoc";"12";"1";"FINISHED";"RIGHT";"success";"325";"0";"2014-10-14 11:33:03.335";"2";;;;;;;;;;;;;;;;;;;;;;;;;;;;;;;;;
"Ett414";"1995";;"Windows 7";"Rachel's Experiment (D.T.)";"1.0";"2";"1";"1";"2";"1";"1";"2014-10-14 11:25:02.475";"2014-10-14 11:42:59.062";"1";"0";"0";"103";"102";"module.training_block3.exec-9866.GoNoGo3";;;;;;;;;;;;;;;;;;;;;;;;;;;;;;;;;;;;;;;;;;;;;;;"1249";"2014-10-14 11:33:07.115";"NST_correctLoc";"4";"0";"FINISHED";"LEFT";"success";"300";"0";"2014-10-14 11:33:05.865";"1";;;;;;;;;;;;;;;;;;;;;;;;;;;;;;;;;
"Ett414";"1995";;"Windows 7";"Rachel's Experiment (D.T.)";"1.0";"2";"1";"1";"2";"1";"1";"2014-10-14 11:25:02.475";"2014-10-14 11:42:59.062";"1";"0";"0";"104";"103";"module.training_block3.exec-9866.GoNoGo3";;;;;;;;;;;;;;;;;;;;;;;;;;;;;;;;;;;;;;;;;;;;;;;"1250";"2014-10-14 11:33:09.649";"NST_correctLoc";"20";"1";"FINISHED";"RIGHT";"success";"270";"0";"2014-10-14 11:33:08.399";"3";;;;;;;;;;;;;;;;;;;;;;;;;;;;;;;;;
"Ett414";"1995";;"Windows 7";"Rachel's Experiment (D.T.)";"1.0";"2";"1";"1";"2";"1";"1";"2014-10-14 11:25:02.475";"2014-10-14 11:42:59.062";"1";"0";"0";"105";"104";"module.training_block3.exec-9866.GoNoGo3";;;;;;;;;;;;;;;;;;;;;;;;;;;;;;;;;;;;;;;;;;;;;;;"1249";"2014-10-14 11:33:12.183";"NST_correctLoc";"35";"1";"FINISHED";"RIGHT";"success";"361";"0";"2014-10-14 11:33:10.933";"3";;;;;;;;;;;;;;;;;;;;;;;;;;;;;;;;;
"Ett414";"1995";;"Windows 7";"Rachel's Experiment (D.T.)";"1.0";"2";"1";"1";"2";"1";"1";"2014-10-14 11:25:02.475";"2014-10-14 11:42:59.062";"1";"0";"0";"106";"105";"module.training_block3.exec-9866.GoNoGo3";;;;;;;;;;;;;;;;;;;;;;;;;;;;;;;;;;;;;;;;;;;;;;;"1249";"2014-10-14 11:33:14.703";"NST_correctLoc";"15";"1";"FINISHED";"RIGHT";"success";"410";"0";"2014-10-14 11:33:13.453";"2";;;;;;;;;;;;;;;;;;;;;;;;;;;;;;;;;
"Ett414";"1995";;"Windows 7";"Rachel's Experiment (D.T.)";"1.0";"2";"1";"1";"2";"1";"1";"2014-10-14 11:25:02.475";"2014-10-14 11:42:59.062";"1";"0";"0";"107";"106";"module.training_block3.exec-9866.GoNoGo3";;;;;;;;;;;;;;;;;;;;;;;;;;;;;;;;;;;;;;;;;;;;;;;"1249";"2014-10-14 11:33:17.224";"NST_correctLoc";"23";"0";"FINISHED";"LEFT";"success";"437";"0";"2014-10-14 11:33:15.974";"3";;;;;;;;;;;;;;;;;;;;;;;;;;;;;;;;;
"Ett414";"1995";;"Windows 7";"Rachel's Experiment (D.T.)";"1.0";"2";"1";"1";"2";"1";"1";"2014-10-14 11:25:02.475";"2014-10-14 11:42:59.062";"1";"0";"0";"108";"107";"module.training_block3.exec-9866.GoNoGo3";;;;;;;;;;;;;;;;;;;;;;;;;;;;;;;;;;;;;;;;;;;;;;;"1250";"2014-10-14 11:33:19.753";"NST_correctLoc";"21";"0";"FINISHED";"LEFT";"success";"355";"0";"2014-10-14 11:33:18.502";"3";;;;;;;;;;;;;;;;;;;;;;;;;;;;;;;;;
"Ett414";"1995";;"Windows 7";"Rachel's Experiment (D.T.)";"1.0";"2";"1";"1";"2";"1";"1";"2014-10-14 11:25:02.475";"2014-10-14 11:42:59.062";"1";"0";"0";"109";"108";"module.training_block3.exec-9866.GoNoGo3";;;;;;;;;;;;;;;;;;;;;;;;;;;;;;;;;;;;;;;;;;;;;;;"1249";"2014-10-14 11:33:22.285";"NST_correctLoc";"18";"1";"FINISHED";"RIGHT";"success";"299";"0";"2014-10-14 11:33:21.035";"3";;;;;;;;;;;;;;;;;;;;;;;;;;;;;;;;;
"Ett414";"1995";;"Windows 7";"Rachel's Experiment (D.T.)";"1.0";"2";"1";"1";"2";"1";"1";"2014-10-14 11:25:02.475";"2014-10-14 11:42:59.062";"1";"0";"0";"110";"109";"module.training_block3.exec-9866.GoNoGo3";;;;;;;;;;;;;;;;;;;;;;;;;;;;;;;;;;;;;;;;;;;;;;;"1250";"2014-10-14 11:33:24.809";"NST_correctLoc";"6";"0";"FINISHED";"LEFT";"success";"386";"0";"2014-10-14 11:33:23.559";"1";;;;;;;;;;;;;;;;;;;;;;;;;;;;;;;;;
"Ett414";"1995";;"Windows 7";"Rachel's Experiment (D.T.)";"1.0";"2";"1";"1";"2";"1";"1";"2014-10-14 11:25:02.475";"2014-10-14 11:42:59.062";"1";"0";"0";"111";"110";"module.training_block3.exec-9866.GoNoGo3";;;;;;;;;;;;;;;;;;;;;;;;;;;;;;;;;;;;;;;;;;;;;;;"1249";"2014-10-14 11:33:27.341";"NST_correctLoc";"2";"1";"FINISHED";"RIGHT";"success";"280";"0";"2014-10-14 11:33:26.091";"1";;;;;;;;;;;;;;;;;;;;;;;;;;;;;;;;;
"Ett414";"1995";;"Windows 7";"Rachel's Experiment (D.T.)";"1.0";"2";"1";"1";"2";"1";"1";"2014-10-14 11:25:02.475";"2014-10-14 11:42:59.062";"1";"0";"0";"112";"111";"module.training_block3.exec-9866.GoNoGo3";;;;;;;;;;;;;;;;;;;;;;;;;;;;;;;;;;;;;;;;;;;;;;;"1249";"2014-10-14 11:33:29.872";"NST_correctLoc";"19";"0";"FINISHED";"LEFT";"success";"329";"0";"2014-10-14 11:33:28.622";"3";;;;;;;;;;;;;;;;;;;;;;;;;;;;;;;;;
"Ett414";"1995";;"Windows 7";"Rachel's Experiment (D.T.)";"1.0";"2";"1";"1";"2";"1";"1";"2014-10-14 11:25:02.475";"2014-10-14 11:42:59.062";"1";"0";"0";"113";"112";"module.training_block3.exec-9866.GoNoGo3";;;;;;;;;;;;;;;;;;;;;;;;;;;;;;;;;;;;;;;;;;;;;;;"1250";"2014-10-14 11:33:32.397";"NST_correctLoc";"30";"1";"FINISHED";"RIGHT";"success";"312";"0";"2014-10-14 11:33:31.147";"3";;;;;;;;;;;;;;;;;;;;;;;;;;;;;;;;;
"Ett414";"1995";;"Windows 7";"Rachel's Experiment (D.T.)";"1.0";"2";"1";"1";"2";"1";"1";"2014-10-14 11:25:02.475";"2014-10-14 11:42:59.062";"1";"0";"0";"114";"113";"module.training_block3.exec-9866.GoNoGo3";;;;;;;;;;;;;;;;;;;;;;;;;;;;;;;;;;;;;;;;;;;;;;;"1249";"2014-10-14 11:33:34.932";"NST_correctLoc";"1";"1";"FINISHED";"RIGHT";"success";"308";"0";"2014-10-14 11:33:33.682";"1";;;;;;;;;;;;;;;;;;;;;;;;;;;;;;;;;
"Ett414";"1995";;"Windows 7";"Rachel's Experiment (D.T.)";"1.0";"2";"1";"1";"2";"1";"1";"2014-10-14 11:25:02.475";"2014-10-14 11:42:59.062";"1";"0";"0";"115";"114";"module.training_block3.exec-9866.GoNoGo3";;;;;;;;;;;;;;;;;;;;;;;;;;;;;;;;;;;;;;;;;;;;;;;"1249";"2014-10-14 11:33:37.467";"NST_correctLoc";"11";"0";"FINISHED";"LEFT";"success";"289";"0";"2014-10-14 11:33:36.216";"2";;;;;;;;;;;;;;;;;;;;;;;;;;;;;;;;;
"Ett414";"1995";;"Windows 7";"Rachel's Experiment (D.T.)";"1.0";"2";"1";"1";"2";"1";"1";"2014-10-14 11:25:02.475";"2014-10-14 11:42:59.062";"1";"0";"0";"116";"115";"module.training_block3.exec-9866.GoNoGo3";;;;;;;;;;;;;;;;;;;;;;;;;;;;;;;;;;;;;;;;;;;;;;;"1249";"2014-10-14 11:33:39.998";"NST_correctLoc";"34";"0";"FINISHED";"LEFT";"success";"345";"0";"2014-10-14 11:33:38.748";"3";;;;;;;;;;;;;;;;;;;;;;;;;;;;;;;;;
"Ett414";"1995";;"Windows 7";"Rachel's Experiment (D.T.)";"1.0";"2";"1";"1";"2";"1";"1";"2014-10-14 11:25:02.475";"2014-10-14 11:42:59.062";"1";"0";"0";"117";"116";"module.training_block3.exec-9866.GoNoGo3";;;;;;;;;;;;;;;;;;;;;;;;;;;;;;;;;;;;;;;;;;;;;;;"1249";"2014-10-14 11:33:42.518";"NST_correctLoc";"3";"1";"FINISHED";"RIGHT";"success";"289";"0";"2014-10-14 11:33:41.268";"1";;;;;;;;;;;;;;;;;;;;;;;;;;;;;;;;;
"Ett414";"1995";;"Windows 7";"Rachel's Experiment (D.T.)";"1.0";"2";"1";"1";"2";"1";"1";"2014-10-14 11:25:02.475";"2014-10-14 11:42:59.062";"1";"0";"0";"118";"117";"module.training_block3.exec-9866.GoNoGo3";;;;;;;;;;;;;;;;;;;;;;;;;;;;;;;;;;;;;;;;;;;;;;;"1249";"2014-10-14 11:33:45.047";"NST_correctLoc";"28";"0";"FINISHED";"LEFT";"success";"273";"0";"2014-10-14 11:33:43.797";"3";;;;;;;;;;;;;;;;;;;;;;;;;;;;;;;;;
"Ett414";"1995";;"Windows 7";"Rachel's Experiment (D.T.)";"1.0";"2";"1";"1";"2";"1";"1";"2014-10-14 11:25:02.475";"2014-10-14 11:42:59.062";"1";"0";"0";"119";"118";"module.training_block3.exec-9866.GoNoGo3";;;;;;;;;;;;;;;;;;;;;;;;;;;;;;;;;;;;;;;;;;;;;;;"1249";"2014-10-14 11:33:47.584";"NST_correctLoc";"27";"0";"FINISHED";"LEFT";"success";"316";"0";"2014-10-14 11:33:46.334";"3";;;;;;;;;;;;;;;;;;;;;;;;;;;;;;;;;
"Ett414";"1995";;"Windows 7";"Rachel's Experiment (D.T.)";"1.0";"2";"1";"1";"2";"1";"1";"2014-10-14 11:25:02.475";"2014-10-14 11:42:59.062";"1";"0";"0";"120";"119";"module.training_block3.exec-9866.GoNoGo3";;;;;;;;;;;;;;;;;;;;;;;;;;;;;;;;;;;;;;;;;;;;;;;"1250";"2014-10-14 11:33:50.113";"NST_correctLoc";"9";"0";"FINISHED";"LEFT";"success";"301";"0";"2014-10-14 11:33:48.863";"2";;;;;;;;;;;;;;;;;;;;;;;;;;;;;;;;;
"Ett414";"1995";;"Windows 7";"Rachel's Experiment (D.T.)";"1.0";"2";"1";"1";"2";"1";"1";"2014-10-14 11:25:02.475";"2014-10-14 11:42:59.062";"1";"0";"0";"121";"120";"module.training_block3.exec-9866.GoNoGo3";;;;;;;;;;;;;;;;;;;;;;;;;;;;;;;;;;;;;;;;;;;;;;;"1250";"2014-10-14 11:33:52.637";"NST_correctLoc";"16";"0";"FINISHED";"LEFT";"success";"241";"0";"2014-10-14 11:33:51.387";"2";;;;;;;;;;;;;;;;;;;;;;;;;;;;;;;;;
"Ett414";"1995";;"Windows 7";"Rachel's Experiment (D.T.)";"1.0";"2";"1";"1";"2";"1";"1";"2014-10-14 11:25:02.475";"2014-10-14 11:42:59.062";"1";"0";"0";"122";"121";"module.training_block3.exec-9866.GoNoGo3";;;;;;;;;;;;;;;;;;;;;;;;;;;;;;;;;;;;;;;;;;;;;;;"1250";"2014-10-14 11:33:55.164";"NST_correctLoc";"10";"1";"FINISHED";"RIGHT";"success";"333";"0";"2014-10-14 11:33:53.914";"2";;;;;;;;;;;;;;;;;;;;;;;;;;;;;;;;;
"Ett414";"1995";;"Windows 7";"Rachel's Experiment (D.T.)";"1.0";"2";"1";"1";"2";"1";"1";"2014-10-14 11:25:02.475";"2014-10-14 11:42:59.062";"1";"0";"0";"123";"122";"module.training_block3.exec-9866.GoNoGo3";;;;;;;;;;;;;;;;;;;;;;;;;;;;;;;;;;;;;;;;;;;;;;;"1250";"2014-10-14 11:33:57.690";"NST_correctLoc";"5";"1";"FINISHED";"RIGHT";"success";"322";"0";"2014-10-14 11:33:56.440";"1";;;;;;;;;;;;;;;;;;;;;;;;;;;;;;;;;
"Ett414";"1995";;"Windows 7";"Rachel's Experiment (D.T.)";"1.0";"2";"1";"1";"2";"1";"1";"2014-10-14 11:25:02.475";"2014-10-14 11:42:59.062";"1";"0";"0";"124";"123";"module.training_block4.exec-7287.GoNoGo4";;;;;;;;;;;;;;;;;;;;;;;;;;;;;;;;;;;;;;;;;;;;;;;;;;;;;;;;;;;"1249";"2014-10-14 11:34:07.555";"NST_correctLoc";"0";"1";"FINISHED";"RIGHT";"success";"314";"0";"2014-10-14 11:34:06.305";"1";;;;;;;;;;;;;;;;;;;;;
"Ett414";"1995";;"Windows 7";"Rachel's Experiment (D.T.)";"1.0";"2";"1";"1";"2";"1";"1";"2014-10-14 11:25:02.475";"2014-10-14 11:42:59.062";"1";"0";"0";"125";"124";"module.training_block4.exec-7287.GoNoGo4";;;;;;;;;;;;;;;;;;;;;;;;;;;;;;;;;;;;;;;;;;;;;;;;;;;;;;;;;;;"1249";"2014-10-14 11:34:10.087";"NST_correctLoc";"25";"0";"FINISHED";"LEFT";"success";"310";"0";"2014-10-14 11:34:08.837";"3";;;;;;;;;;;;;;;;;;;;;
"Ett414";"1995";;"Windows 7";"Rachel's Experiment (D.T.)";"1.0";"2";"1";"1";"2";"1";"1";"2014-10-14 11:25:02.475";"2014-10-14 11:42:59.062";"1";"0";"0";"126";"125";"module.training_block4.exec-7287.GoNoGo4";;;;;;;;;;;;;;;;;;;;;;;;;;;;;;;;;;;;;;;;;;;;;;;;;;;;;;;;;;;"1250";"2014-10-14 11:34:12.614";"NST_correctLoc";"23";"1";"FINISHED";"RIGHT";"success";"277";"0";"2014-10-14 11:34:11.364";"3";;;;;;;;;;;;;;;;;;;;;
"Ett414";"1995";;"Windows 7";"Rachel's Experiment (D.T.)";"1.0";"2";"1";"1";"2";"1";"1";"2014-10-14 11:25:02.475";"2014-10-14 11:42:59.062";"1";"0";"0";"127";"126";"module.training_block4.exec-7287.GoNoGo4";;;;;;;;;;;;;;;;;;;;;;;;;;;;;;;;;;;;;;;;;;;;;;;;;;;;;;;;;;;"1249";"2014-10-14 11:34:15.143";"NST_correctLoc";"8";"0";"FINISHED";"LEFT";"success";"245";"0";"2014-10-14 11:34:13.893";"1";;;;;;;;;;;;;;;;;;;;;
"Ett414";"1995";;"Windows 7";"Rachel's Experiment (D.T.)";"1.0";"2";"1";"1";"2";"1";"1";"2014-10-14 11:25:02.475";"2014-10-14 11:42:59.062";"1";"0";"0";"128";"127";"module.training_block4.exec-7287.GoNoGo4";;;;;;;;;;;;;;;;;;;;;;;;;;;;;;;;;;;;;;;;;;;;;;;;;;;;;;;;;;;"1250";"2014-10-14 11:34:17.669";"NST_correctLoc";"35";"0";"FINISHED";"LEFT";"success";"361";"0";"2014-10-14 11:34:16.419";"3";;;;;;;;;;;;;;;;;;;;;
"Ett414";"1995";;"Windows 7";"Rachel's Experiment (D.T.)";"1.0";"2";"1";"1";"2";"1";"1";"2014-10-14 11:25:02.475";"2014-10-14 11:42:59.062";"1";"0";"0";"129";"128";"module.training_block4.exec-7287.GoNoGo4";;;;;;;;;;;;;;;;;;;;;;;;;;;;;;;;;;;;;;;;;;;;;;;;;;;;;;;;;;;"1249";"2014-10-14 11:34:20.199";"NST_correctLoc";"17";"1";"FINISHED";"RIGHT";"success";"328";"0";"2014-10-14 11:34:18.949";"2";;;;;;;;;;;;;;;;;;;;;
"Ett414";"1995";;"Windows 7";"Rachel's Experiment (D.T.)";"1.0";"2";"1";"1";"2";"1";"1";"2014-10-14 11:25:02.475";"2014-10-14 11:42:59.062";"1";"0";"0";"130";"129";"module.training_block4.exec-7287.GoNoGo4";;;;;;;;;;;;;;;;;;;;;;;;;;;;;;;;;;;;;;;;;;;;;;;;;;;;;;;;;;;"1249";"2014-10-14 11:34:22.722";"NST_correctLoc";"3";"1";"FINISHED";"RIGHT";"success";"321";"0";"2014-10-14 11:34:21.472";"1";;;;;;;;;;;;;;;;;;;;;
"Ett414";"1995";;"Windows 7";"Rachel's Experiment (D.T.)";"1.0";"2";"1";"1";"2";"1";"1";"2014-10-14 11:25:02.475";"2014-10-14 11:42:59.062";"1";"0";"0";"131";"130";"module.training_block4.exec-7287.GoNoGo4";;;;;;;;;;;;;;;;;;;;;;;;;;;;;;;;;;;;;;;;;;;;;;;;;;;;;;;;;;;"1250";"2014-10-14 11:34:25.248";"NST_correctLoc";"5";"1";"FINISHED";"RIGHT";"success";"317";"0";"2014-10-14 11:34:23.998";"1";;;;;;;;;;;;;;;;;;;;;
"Ett414";"1995";;"Windows 7";"Rachel's Experiment (D.T.)";"1.0";"2";"1";"1";"2";"1";"1";"2014-10-14 11:25:02.475";"2014-10-14 11:42:59.062";"1";"0";"0";"132";"131";"module.training_block4.exec-7287.GoNoGo4";;;;;;;;;;;;;;;;;;;;;;;;;;;;;;;;;;;;;;;;;;;;;;;;;;;;;;;;;;;"1250";"2014-10-14 11:34:27.776";"NST_correctLoc";"13";"1";"FINISHED";"RIGHT";"success";"354";"0";"2014-10-14 11:34:26.525";"2";;;;;;;;;;;;;;;;;;;;;
"Ett414";"1995";;"Windows 7";"Rachel's Experiment (D.T.)";"1.0";"2";"1";"1";"2";"1";"1";"2014-10-14 11:25:02.475";"2014-10-14 11:42:59.062";"1";"0";"0";"133";"132";"module.training_block4.exec-7287.GoNoGo4";;;;;;;;;;;;;;;;;;;;;;;;;;;;;;;;;;;;;;;;;;;;;;;;;;;;;;;;;;;"1250";"2014-10-14 11:34:30.311";"NST_correctLoc";"22";"1";"FINISHED";"RIGHT";"success";"332";"0";"2014-10-14 11:34:29.061";"3";;;;;;;;;;;;;;;;;;;;;
"Ett414";"1995";;"Windows 7";"Rachel's Experiment (D.T.)";"1.0";"2";"1";"1";"2";"1";"1";"2014-10-14 11:25:02.475";"2014-10-14 11:42:59.062";"1";"0";"0";"134";"133";"module.training_block4.exec-7287.GoNoGo4";;;;;;;;;;;;;;;;;;;;;;;;;;;;;;;;;;;;;;;;;;;;;;;;;;;;;;;;;;;"1249";"2014-10-14 11:34:32.833";"NST_correctLoc";"30";"1";"FINISHED";"RIGHT";"success";"309";"0";"2014-10-14 11:34:31.583";"3";;;;;;;;;;;;;;;;;;;;;
"Ett414";"1995";;"Windows 7";"Rachel's Experiment (D.T.)";"1.0";"2";"1";"1";"2";"1";"1";"2014-10-14 11:25:02.475";"2014-10-14 11:42:59.062";"1";"0";"0";"135";"134";"module.training_block4.exec-7287.GoNoGo4";;;;;;;;;;;;;;;;;;;;;;;;;;;;;;;;;;;;;;;;;;;;;;;;;;;;;;;;;;;"1249";"2014-10-14 11:34:35.366";"NST_correctLoc";"1";"0";"FINISHED";"LEFT";"success";"370";"0";"2014-10-14 11:34:34.116";"1";;;;;;;;;;;;;;;;;;;;;
"Ett414";"1995";;"Windows 7";"Rachel's Experiment (D.T.)";"1.0";"2";"1";"1";"2";"1";"1";"2014-10-14 11:25:02.475";"2014-10-14 11:42:59.062";"1";"0";"0";"136";"135";"module.training_block4.exec-7287.GoNoGo4";;;;;;;;;;;;;;;;;;;;;;;;;;;;;;;;;;;;;;;;;;;;;;;;;;;;;;;;;;;"1249";"2014-10-14 11:34:37.887";"NST_correctLoc";"32";"1";"FINISHED";"RIGHT";"success";"285";"0";"2014-10-14 11:34:36.637";"3";;;;;;;;;;;;;;;;;;;;;
"Ett414";"1995";;"Windows 7";"Rachel's Experiment (D.T.)";"1.0";"2";"1";"1";"2";"1";"1";"2014-10-14 11:25:02.475";"2014-10-14 11:42:59.062";"1";"0";"0";"137";"136";"module.training_block4.exec-7287.GoNoGo4";;;;;;;;;;;;;;;;;;;;;;;;;;;;;;;;;;;;;;;;;;;;;;;;;;;;;;;;;;;"1250";"2014-10-14 11:34:40.421";"NST_correctLoc";"6";"1";"FINISHED";"RIGHT";"success";"320";"0";"2014-10-14 11:34:39.171";"1";;;;;;;;;;;;;;;;;;;;;
"Ett414";"1995";;"Windows 7";"Rachel's Experiment (D.T.)";"1.0";"2";"1";"1";"2";"1";"1";"2014-10-14 11:25:02.475";"2014-10-14 11:42:59.062";"1";"0";"0";"138";"137";"module.training_block4.exec-7287.GoNoGo4";;;;;;;;;;;;;;;;;;;;;;;;;;;;;;;;;;;;;;;;;;;;;;;;;;;;;;;;;;;"1249";"2014-10-14 11:34:42.944";"NST_correctLoc";"18";"0";"FINISHED";"LEFT";"success";"317";"0";"2014-10-14 11:34:41.694";"3";;;;;;;;;;;;;;;;;;;;;
"Ett414";"1995";;"Windows 7";"Rachel's Experiment (D.T.)";"1.0";"2";"1";"1";"2";"1";"1";"2014-10-14 11:25:02.475";"2014-10-14 11:42:59.062";"1";"0";"0";"139";"138";"module.training_block4.exec-7287.GoNoGo4";;;;;;;;;;;;;;;;;;;;;;;;;;;;;;;;;;;;;;;;;;;;;;;;;;;;;;;;;;;"1250";"2014-10-14 11:34:45.478";"NST_correctLoc";"4";"1";"FINISHED";"RIGHT";"success";"253";"0";"2014-10-14 11:34:44.228";"1";;;;;;;;;;;;;;;;;;;;;
"Ett414";"1995";;"Windows 7";"Rachel's Experiment (D.T.)";"1.0";"2";"1";"1";"2";"1";"1";"2014-10-14 11:25:02.475";"2014-10-14 11:42:59.062";"1";"0";"0";"140";"139";"module.training_block4.exec-7287.GoNoGo4";;;;;;;;;;;;;;;;;;;;;;;;;;;;;;;;;;;;;;;;;;;;;;;;;;;;;;;;;;;"1249";"2014-10-14 11:34:48.012";"NST_correctLoc";"12";"1";"FINISHED";"RIGHT";"success";"351";"0";"2014-10-14 11:34:46.762";"2";;;;;;;;;;;;;;;;;;;;;
"Ett414";"1995";;"Windows 7";"Rachel's Experiment (D.T.)";"1.0";"2";"1";"1";"2";"1";"1";"2014-10-14 11:25:02.475";"2014-10-14 11:42:59.062";"1";"0";"0";"141";"140";"module.training_block4.exec-7287.GoNoGo4";;;;;;;;;;;;;;;;;;;;;;;;;;;;;;;;;;;;;;;;;;;;;;;;;;;;;;;;;;;"1249";"2014-10-14 11:34:50.540";"NST_correctLoc";"33";"0";"FINISHED";"LEFT";"success";"313";"0";"2014-10-14 11:34:49.290";"3";;;;;;;;;;;;;;;;;;;;;
"Ett414";"1995";;"Windows 7";"Rachel's Experiment (D.T.)";"1.0";"2";"1";"1";"2";"1";"1";"2014-10-14 11:25:02.475";"2014-10-14 11:42:59.062";"1";"0";"0";"142";"141";"module.training_block4.exec-7287.GoNoGo4";;;;;;;;;;;;;;;;;;;;;;;;;;;;;;;;;;;;;;;;;;;;;;;;;;;;;;;;;;;"1249";"2014-10-14 11:34:53.071";"NST_correctLoc";"2";"1";"FINISHED";"RIGHT";"success";"251";"0";"2014-10-14 11:34:51.821";"1";;;;;;;;;;;;;;;;;;;;;
"Ett414";"1995";;"Windows 7";"Rachel's Experiment (D.T.)";"1.0";"2";"1";"1";"2";"1";"1";"2014-10-14 11:25:02.475";"2014-10-14 11:42:59.062";"1";"0";"0";"143";"142";"module.training_block4.exec-7287.GoNoGo4";;;;;;;;;;;;;;;;;;;;;;;;;;;;;;;;;;;;;;;;;;;;;;;;;;;;;;;;;;;"1250";"2014-10-14 11:34:55.606";"NST_correctLoc";"31";"1";"FINISHED";"RIGHT";"success";"295";"0";"2014-10-14 11:34:54.356";"3";;;;;;;;;;;;;;;;;;;;;
"Ett414";"1995";;"Windows 7";"Rachel's Experiment (D.T.)";"1.0";"2";"1";"1";"2";"1";"1";"2014-10-14 11:25:02.475";"2014-10-14 11:42:59.062";"1";"0";"0";"144";"143";"module.training_block4.exec-7287.GoNoGo4";;;;;;;;;;;;;;;;;;;;;;;;;;;;;;;;;;;;;;;;;;;;;;;;;;;;;;;;;;;"1250";"2014-10-14 11:34:58.141";"NST_correctLoc";"15";"0";"FINISHED";"LEFT";"success";"257";"0";"2014-10-14 11:34:56.891";"2";;;;;;;;;;;;;;;;;;;;;
"Ett414";"1995";;"Windows 7";"Rachel's Experiment (D.T.)";"1.0";"2";"1";"1";"2";"1";"1";"2014-10-14 11:25:02.475";"2014-10-14 11:42:59.062";"1";"0";"0";"145";"144";"module.training_block4.exec-7287.GoNoGo4";;;;;;;;;;;;;;;;;;;;;;;;;;;;;;;;;;;;;;;;;;;;;;;;;;;;;;;;;;;"1249";"2014-10-14 11:35:00.671";"NST_correctLoc";"19";"0";"FINISHED";"LEFT";"success";"317";"0";"2014-10-14 11:34:59.421";"3";;;;;;;;;;;;;;;;;;;;;
"Ett414";"1995";;"Windows 7";"Rachel's Experiment (D.T.)";"1.0";"2";"1";"1";"2";"1";"1";"2014-10-14 11:25:02.475";"2014-10-14 11:42:59.062";"1";"0";"0";"146";"145";"module.training_block4.exec-7287.GoNoGo4";;;;;;;;;;;;;;;;;;;;;;;;;;;;;;;;;;;;;;;;;;;;;;;;;;;;;;;;;;;"1249";"2014-10-14 11:35:03.192";"NST_correctLoc";"10";"0";"FINISHED";"LEFT";"success";"368";"0";"2014-10-14 11:35:01.942";"2";;;;;;;;;;;;;;;;;;;;;
"Ett414";"1995";;"Windows 7";"Rachel's Experiment (D.T.)";"1.0";"2";"1";"1";"2";"1";"1";"2014-10-14 11:25:02.475";"2014-10-14 11:42:59.062";"1";"0";"0";"147";"146";"module.training_block4.exec-7287.GoNoGo4";;;;;;;;;;;;;;;;;;;;;;;;;;;;;;;;;;;;;;;;;;;;;;;;;;;;;;;;;;;"1250";"2014-10-14 11:35:05.723";"NST_correctLoc";"20";"1";"FINISHED";"RIGHT";"success";"321";"0";"2014-10-14 11:35:04.473";"3";;;;;;;;;;;;;;;;;;;;;
"Ett414";"1995";;"Windows 7";"Rachel's Experiment (D.T.)";"1.0";"2";"1";"1";"2";"1";"1";"2014-10-14 11:25:02.475";"2014-10-14 11:42:59.062";"1";"0";"0";"148";"147";"module.training_block4.exec-7287.GoNoGo4";;;;;;;;;;;;;;;;;;;;;;;;;;;;;;;;;;;;;;;;;;;;;;;;;;;;;;;;;;;"1249";"2014-10-14 11:35:08.241";"NST_correctLoc";"34";"0";"FINISHED";"LEFT";"success";"299";"0";"2014-10-14 11:35:06.991";"3";;;;;;;;;;;;;;;;;;;;;
"Ett414";"1995";;"Windows 7";"Rachel's Experiment (D.T.)";"1.0";"2";"1";"1";"2";"1";"1";"2014-10-14 11:25:02.475";"2014-10-14 11:42:59.062";"1";"0";"0";"149";"148";"module.training_block4.exec-7287.GoNoGo4";;;;;;;;;;;;;;;;;;;;;;;;;;;;;;;;;;;;;;;;;;;;;;;;;;;;;;;;;;;"1249";"2014-10-14 11:35:10.767";"NST_correctLoc";"14";"0";"FINISHED";"LEFT";"success";"357";"0";"2014-10-14 11:35:09.517";"2";;;;;;;;;;;;;;;;;;;;;
"Ett414";"1995";;"Windows 7";"Rachel's Experiment (D.T.)";"1.0";"2";"1";"1";"2";"1";"1";"2014-10-14 11:25:02.475";"2014-10-14 11:42:59.062";"1";"0";"0";"150";"149";"module.training_block4.exec-7287.GoNoGo4";;;;;;;;;;;;;;;;;;;;;;;;;;;;;;;;;;;;;;;;;;;;;;;;;;;;;;;;;;;"1249";"2014-10-14 11:35:13.293";"NST_correctLoc";"24";"1";"FINISHED";"RIGHT";"success";"362";"0";"2014-10-14 11:35:12.043";"3";;;;;;;;;;;;;;;;;;;;;
"Ett414";"1995";;"Windows 7";"Rachel's Experiment (D.T.)";"1.0";"2";"1";"1";"2";"1";"1";"2014-10-14 11:25:02.475";"2014-10-14 11:42:59.062";"1";"0";"0";"151";"150";"module.training_block4.exec-7287.GoNoGo4";;;;;;;;;;;;;;;;;;;;;;;;;;;;;;;;;;;;;;;;;;;;;;;;;;;;;;;;;;;"1249";"2014-10-14 11:35:15.820";"NST_correctLoc";"26";"1";"FINISHED";"RIGHT";"success";"334";"0";"2014-10-14 11:35:14.570";"3";;;;;;;;;;;;;;;;;;;;;
"Ett414";"1995";;"Windows 7";"Rachel's Experiment (D.T.)";"1.0";"2";"1";"1";"2";"1";"1";"2014-10-14 11:25:02.475";"2014-10-14 11:42:59.062";"1";"0";"0";"152";"151";"module.training_block4.exec-7287.GoNoGo4";;;;;;;;;;;;;;;;;;;;;;;;;;;;;;;;;;;;;;;;;;;;;;;;;;;;;;;;;;;"1249";"2014-10-14 11:35:18.349";"NST_correctLoc";"29";"0";"FINISHED";"LEFT";"success";"360";"0";"2014-10-14 11:35:17.099";"3";;;;;;;;;;;;;;;;;;;;;
"Ett414";"1995";;"Windows 7";"Rachel's Experiment (D.T.)";"1.0";"2";"1";"1";"2";"1";"1";"2014-10-14 11:25:02.475";"2014-10-14 11:42:59.062";"1";"0";"0";"153";"152";"module.training_block4.exec-7287.GoNoGo4";;;;;;;;;;;;;;;;;;;;;;;;;;;;;;;;;;;;;;;;;;;;;;;;;;;;;;;;;;;"1249";"2014-10-14 11:35:20.876";"NST_correctLoc";"9";"0";"FINISHED";"LEFT";"success";"346";"0";"2014-10-14 11:35:19.626";"2";;;;;;;;;;;;;;;;;;;;;
"Ett414";"1995";;"Windows 7";"Rachel's Experiment (D.T.)";"1.0";"2";"1";"1";"2";"1";"1";"2014-10-14 11:25:02.475";"2014-10-14 11:42:59.062";"1";"0";"0";"154";"153";"module.training_block4.exec-7287.GoNoGo4";;;;;;;;;;;;;;;;;;;;;;;;;;;;;;;;;;;;;;;;;;;;;;;;;;;;;;;;;;;"1249";"2014-10-14 11:35:23.395";"NST_correctLoc";"27";"1";"FINISHED";"RIGHT";"success";"321";"0";"2014-10-14 11:35:22.145";"3";;;;;;;;;;;;;;;;;;;;;
"Ett414";"1995";;"Windows 7";"Rachel's Experiment (D.T.)";"1.0";"2";"1";"1";"2";"1";"1";"2014-10-14 11:25:02.475";"2014-10-14 11:42:59.062";"1";"0";"0";"155";"154";"module.training_block4.exec-7287.GoNoGo4";;;;;;;;;;;;;;;;;;;;;;;;;;;;;;;;;;;;;;;;;;;;;;;;;;;;;;;;;;;"1250";"2014-10-14 11:35:25.916";"NST_correctLoc";"11";"1";"FINISHED";"RIGHT";"success";"366";"0";"2014-10-14 11:35:24.666";"2";;;;;;;;;;;;;;;;;;;;;
"Ett414";"1995";;"Windows 7";"Rachel's Experiment (D.T.)";"1.0";"2";"1";"1";"2";"1";"1";"2014-10-14 11:25:02.475";"2014-10-14 11:42:59.062";"1";"0";"0";"156";"155";"module.training_block4.exec-7287.GoNoGo4";;;;;;;;;;;;;;;;;;;;;;;;;;;;;;;;;;;;;;;;;;;;;;;;;;;;;;;;;;;"1250";"2014-10-14 11:35:28.438";"NST_correctLoc";"7";"0";"FINISHED";"LEFT";"success";"337";"0";"2014-10-14 11:35:27.188";"1";;;;;;;;;;;;;;;;;;;;;
"Ett414";"1995";;"Windows 7";"Rachel's Experiment (D.T.)";"1.0";"2";"1";"1";"2";"1";"1";"2014-10-14 11:25:02.475";"2014-10-14 11:42:59.062";"1";"0";"0";"157";"156";"module.training_block4.exec-7287.GoNoGo4";;;;;;;;;;;;;;;;;;;;;;;;;;;;;;;;;;;;;;;;;;;;;;;;;;;;;;;;;;;"1249";"2014-10-14 11:35:30.961";"NST_correctLoc";"28";"0";"FINISHED";"LEFT";"success";"346";"0";"2014-10-14 11:35:29.711";"3";;;;;;;;;;;;;;;;;;;;;
"Ett414";"1995";;"Windows 7";"Rachel's Experiment (D.T.)";"1.0";"2";"1";"1";"2";"1";"1";"2014-10-14 11:25:02.475";"2014-10-14 11:42:59.062";"1";"0";"0";"158";"157";"module.training_block4.exec-7287.GoNoGo4";;;;;;;;;;;;;;;;;;;;;;;;;;;;;;;;;;;;;;;;;;;;;;;;;;;;;;;;;;;"1249";"2014-10-14 11:35:33.489";"NST_correctLoc";"16";"1";"FINISHED";"RIGHT";"success";"444";"0";"2014-10-14 11:35:32.239";"2";;;;;;;;;;;;;;;;;;;;;
"Ett414";"1995";;"Windows 7";"Rachel's Experiment (D.T.)";"1.0";"2";"1";"1";"2";"1";"1";"2014-10-14 11:25:02.475";"2014-10-14 11:42:59.062";"1";"0";"0";"159";"158";"module.training_block4.exec-7287.GoNoGo4";;;;;;;;;;;;;;;;;;;;;;;;;;;;;;;;;;;;;;;;;;;;;;;;;;;;;;;;;;;"1250";"2014-10-14 11:35:36.010";"NST_correctLoc";"21";"0";"FINISHED";"LEFT";"success";"325";"0";"2014-10-14 11:35:34.760";"3";;;;;;;;;;;;;;;;;;;;;
"Ett414";"1995";;"Windows 7";"Rachel's Experiment (D.T.)";"1.0";"2";"1";"1";"2";"1";"1";"2014-10-14 11:25:02.475";"2014-10-14 11:42:59.062";"1";"0";"0";"160";"159";"module.devaluation_practice.exec-7361.devalPractice";;;;;;;;;;;;"20905";"2014-10-14 11:36:55.230";"0";"6";"4";"6";"6272";"2983";"8606";"2014-10-14 11:36:34.325";;;;;;;;;;;;;;;;;;;;;;;;;;;;;;;;;;;;;;;;;;;;;;;;;;;;;;;;;;;;;;;;;;;;;;
"Ett414";"1995";;"Windows 7";"Rachel's Experiment (D.T.)";"1.0";"2";"1";"1";"2";"1";"1";"2014-10-14 11:25:02.475";"2014-10-14 11:42:59.062";"1";"0";"0";"161";"160";"module.devaluation_practice.exec-7361.devalPractice";;;;;;;;;;;;"12778";"2014-10-14 11:37:08.037";"1";"7";"4";"7";"5588";"2815";"1357";"2014-10-14 11:36:55.257";;;;;;;;;;;;;;;;;;;;;;;;;;;;;;;;;;;;;;;;;;;;;;;;;;;;;;;;;;;;;;;;;;;;;;
"Ett414";"1995";;"Windows 7";"Rachel's Experiment (D.T.)";"1.0";"2";"1";"1";"2";"1";"1";"2014-10-14 11:25:02.475";"2014-10-14 11:42:59.062";"1";"0";"0";"162";"161";"module.devaluation_practice.exec-7361.devalPractice";;;;;;;;;;;;"10416";"2014-10-14 11:37:18.477";"2";"7";"8";"7";"3208";"1839";"2355";"2014-10-14 11:37:08.061";;;;;;;;;;;;;;;;;;;;;;;;;;;;;;;;;;;;;;;;;;;;;;;;;;;;;;;;;;;;;;;;;;;;;;
"Ett414";"1995";;"Windows 7";"Rachel's Experiment (D.T.)";"1.0";"2";"1";"1";"2";"1";"1";"2014-10-14 11:25:02.475";"2014-10-14 11:42:59.062";"1";"0";"0";"163";"162";"module.devaluation_practice.exec-7361.devalPractice";;;;;;;;;;;;"14928";"2014-10-14 11:37:33.426";"3";"6";"7";"7";"5438";"1695";"4779";"2014-10-14 11:37:18.497";;;;;;;;;;;;;;;;;;;;;;;;;;;;;;;;;;;;;;;;;;;;;;;;;;;;;;;;;;;;;;;;;;;;;;
"Ett414";"1995";;"Windows 7";"Rachel's Experiment (D.T.)";"1.0";"2";"1";"1";"2";"1";"1";"2014-10-14 11:25:02.475";"2014-10-14 11:42:59.062";"1";"0";"0";"164";"163";"module.devaluation_block1.exec-9689.deval1";"8719";"2014-10-14 11:37:50.236";"3";"5";"4";"7";"1117";"1206";"3373";"2014-10-14 11:37:41.517";"1";;;;;;;;;;;;;;;;;;;;;;;;;;;;;;;;;;;;;;;;;;;;;;;;;;;;;;;;;;;;;;;;;;;;;;;;;;;;;;;;
"Ett414";"1995";;"Windows 7";"Rachel's Experiment (D.T.)";"1.0";"2";"1";"1";"2";"1";"1";"2014-10-14 11:25:02.475";"2014-10-14 11:42:59.062";"1";"0";"0";"165";"164";"module.devaluation_block1.exec-9689.deval1";"12975";"2014-10-14 11:38:03.242";"18";"6";"6";"8";"3923";"2732";"3305";"2014-10-14 11:37:50.266";"3";;;;;;;;;;;;;;;;;;;;;;;;;;;;;;;;;;;;;;;;;;;;;;;;;;;;;;;;;;;;;;;;;;;;;;;;;;;;;;;;
"Ett414";"1995";;"Windows 7";"Rachel's Experiment (D.T.)";"1.0";"2";"1";"1";"2";"1";"1";"2014-10-14 11:25:02.475";"2014-10-14 11:42:59.062";"1";"0";"0";"166";"165";"module.devaluation_block1.exec-9689.deval1";"11616";"2014-10-14 11:38:14.886";"23";"8";"6";"7";"1237";"4597";"2758";"2014-10-14 11:38:03.271";"3";;;;;;;;;;;;;;;;;;;;;;;;;;;;;;;;;;;;;;;;;;;;;;;;;;;;;;;;;;;;;;;;;;;;;;;;;;;;;;;;
"Ett414";"1995";;"Windows 7";"Rachel's Experiment (D.T.)";"1.0";"2";"1";"1";"2";"1";"1";"2014-10-14 11:25:02.475";"2014-10-14 11:42:59.062";"1";"0";"0";"167";"166";"module.devaluation_block1.exec-9689.deval1";"12811";"2014-10-14 11:38:27.726";"26";"9";"6";"8";"2352";"4931";"2509";"2014-10-14 11:38:14.913";"3";;;;;;;;;;;;;;;;;;;;;;;;;;;;;;;;;;;;;;;;;;;;;;;;;;;;;;;;;;;;;;;;;;;;;;;;;;;;;;;;
"Ett414";"1995";;"Windows 7";"Rachel's Experiment (D.T.)";"1.0";"2";"1";"1";"2";"1";"1";"2014-10-14 11:25:02.475";"2014-10-14 11:42:59.062";"1";"0";"0";"168";"167";"module.devaluation_block1.exec-9689.deval1";"13216";"2014-10-14 11:38:40.968";"11";"7";"6";"6";"3430";"3198";"3565";"2014-10-14 11:38:27.751";"2";;;;;;;;;;;;;;;;;;;;;;;;;;;;;;;;;;;;;;;;;;;;;;;;;;;;;;;;;;;;;;;;;;;;;;;;;;;;;;;;
"Ett414";"1995";;"Windows 7";"Rachel's Experiment (D.T.)";"1.0";"2";"1";"1";"2";"1";"1";"2014-10-14 11:25:02.475";"2014-10-14 11:42:59.062";"1";"0";"0";"169";"168";"module.devaluation_block1.exec-9689.deval1";"12400";"2014-10-14 11:38:53.404";"21";"7";"8";"7";"2642";"3310";"3424";"2014-10-14 11:38:41.003";"3";;;;;;;;;;;;;;;;;;;;;;;;;;;;;;;;;;;;;;;;;;;;;;;;;;;;;;;;;;;;;;;;;;;;;;;;;;;;;;;;
"Ett414";"1995";;"Windows 7";"Rachel's Experiment (D.T.)";"1.0";"2";"1";"1";"2";"1";"1";"2014-10-14 11:25:02.475";"2014-10-14 11:42:59.062";"1";"0";"0";"170";"169";"module.devaluation_block1.exec-9689.deval1";"12840";"2014-10-14 11:39:06.271";"16";"4";"3";"6";"2870";"3363";"3585";"2014-10-14 11:38:53.431";"2";;;;;;;;;;;;;;;;;;;;;;;;;;;;;;;;;;;;;;;;;;;;;;;;;;;;;;;;;;;;;;;;;;;;;;;;;;;;;;;;
"Ett414";"1995";;"Windows 7";"Rachel's Experiment (D.T.)";"1.0";"2";"1";"1";"2";"1";"1";"2014-10-14 11:25:02.475";"2014-10-14 11:42:59.062";"1";"0";"0";"171";"170";"module.devaluation_block1.exec-9689.deval1";"11739";"2014-10-14 11:39:18.039";"8";"4";"3";"6";"1797";"2448";"4473";"2014-10-14 11:39:06.299";"1";;;;;;;;;;;;;;;;;;;;;;;;;;;;;;;;;;;;;;;;;;;;;;;;;;;;;;;;;;;;;;;;;;;;;;;;;;;;;;;;
"Ett414";"1995";;"Windows 7";"Rachel's Experiment (D.T.)";"1.0";"2";"1";"1";"2";"1";"1";"2014-10-14 11:25:02.475";"2014-10-14 11:42:59.062";"1";"0";"0";"172";"171";"module.devaluation_block1.exec-9689.deval1";"11399";"2014-10-14 11:39:29.463";"13";"7";"5";"7";"984";"4606";"2787";"2014-10-14 11:39:18.063";"2";;;;;;;;;;;;;;;;;;;;;;;;;;;;;;;;;;;;;;;;;;;;;;;;;;;;;;;;;;;;;;;;;;;;;;;;;;;;;;;;
"Ett414";"1995";;"Windows 7";"Rachel's Experiment (D.T.)";"1.0";"2";"1";"1";"2";"1";"1";"2014-10-14 11:25:02.475";"2014-10-14 11:42:59.062";"1";"0";"0";"173";"172";"module.devaluation_block1.exec-9689.deval1";"14077";"2014-10-14 11:39:43.568";"5";"6";"5";"7";"3892";"3225";"3935";"2014-10-14 11:39:29.491";"1";;;;;;;;;;;;;;;;;;;;;;;;;;;;;;;;;;;;;;;;;;;;;;;;;;;;;;;;;;;;;;;;;;;;;;;;;;;;;;;;
"Ett414";"1995";;"Windows 7";"Rachel's Experiment (D.T.)";"1.0";"2";"1";"1";"2";"1";"1";"2014-10-14 11:25:02.475";"2014-10-14 11:42:59.062";"1";"0";"0";"174";"173";"module.devaluation_block1.exec-9689.deval1";"13345";"2014-10-14 11:39:56.936";"25";"9";"7";"9";"3981";"3674";"2674";"2014-10-14 11:39:43.591";"3";;;;;;;;;;;;;;;;;;;;;;;;;;;;;;;;;;;;;;;;;;;;;;;;;;;;;;;;;;;;;;;;;;;;;;;;;;;;;;;;
"Ett414";"1995";;"Windows 7";"Rachel's Experiment (D.T.)";"1.0";"2";"1";"1";"2";"1";"1";"2014-10-14 11:25:02.475";"2014-10-14 11:42:59.062";"1";"0";"0";"175";"174";"module.devaluation_block1.exec-9689.deval1";"11693";"2014-10-14 11:40:08.649";"0";"4";"4";"7";"3119";"3020";"2538";"2014-10-14 11:39:56.955";"1";;;;;;;;;;;;;;;;;;;;;;;;;;;;;;;;;;;;;;;;;;;;;;;;;;;;;;;;;;;;;;;;;;;;;;;;;;;;;;;;
"Ett414";"1995";;"Windows 7";"Rachel's Experiment (D.T.)";"1.0";"2";"1";"1";"2";"1";"1";"2014-10-14 11:25:02.475";"2014-10-14 11:42:59.062";"1";"0";"0";"176";"175";"module.devaluation_block1.exec-9689.deval1";"10674";"2014-10-14 11:40:19.349";"24";"4";"1";"3";"2835";"2482";"2331";"2014-10-14 11:40:08.674";"3";;;;;;;;;;;;;;;;;;;;;;;;;;;;;;;;;;;;;;;;;;;;;;;;;;;;;;;;;;;;;;;;;;;;;;;;;;;;;;;;
"Ett414";"1995";;"Windows 7";"Rachel's Experiment (D.T.)";"1.0";"2";"1";"1";"2";"1";"1";"2014-10-14 11:25:02.475";"2014-10-14 11:42:59.062";"1";"0";"0";"177";"176";"module.devaluation_block1.exec-9689.deval1";"10995";"2014-10-14 11:40:30.368";"22";"4";"3";"6";"2272";"2120";"3583";"2014-10-14 11:40:19.373";"3";;;;;;;;;;;;;;;;;;;;;;;;;;;;;;;;;;;;;;;;;;;;;;;;;;;;;;;;;;;;;;;;;;;;;;;;;;;;;;;;
"Ett414";"1995";;"Windows 7";"Rachel's Experiment (D.T.)";"1.0";"2";"1";"1";"2";"1";"1";"2014-10-14 11:25:02.475";"2014-10-14 11:42:59.062";"1";"0";"0";"178";"177";"module.devaluation_block1.exec-9689.deval1";"12633";"2014-10-14 11:40:43.025";"9";"7";"6";"7";"2000";"2472";"5134";"2014-10-14 11:40:30.391";"2";;;;;;;;;;;;;;;;;;;;;;;;;;;;;;;;;;;;;;;;;;;;;;;;;;;;;;;;;;;;;;;;;;;;;;;;;;;;;;;;
"Ett414";"1995";;"Windows 7";"Rachel's Experiment (D.T.)";"1.0";"2";"1";"1";"2";"1";"1";"2014-10-14 11:25:02.475";"2014-10-14 11:42:59.062";"1";"0";"0";"179";"178";"module.devaluation_block1.exec-9689.deval1";"13601";"2014-10-14 11:40:56.655";"4";"7";"5";"7";"4422";"1803";"4355";"2014-10-14 11:40:43.053";"1";;;;;;;;;;;;;;;;;;;;;;;;;;;;;;;;;;;;;;;;;;;;;;;;;;;;;;;;;;;;;;;;;;;;;;;;;;;;;;;;
"Ett414";"1995";;"Windows 7";"Rachel's Experiment (D.T.)";"1.0";"2";"1";"1";"2";"1";"1";"2014-10-14 11:25:02.475";"2014-10-14 11:42:59.062";"1";"0";"0";"180";"179";"module.devaluation_block1.exec-9689.deval1";"9990";"2014-10-14 11:41:06.671";"10";"7";"6";"7";"1893";"2409";"2673";"2014-10-14 11:40:56.680";"2";;;;;;;;;;;;;;;;;;;;;;;;;;;;;;;;;;;;;;;;;;;;;;;;;;;;;;;;;;;;;;;;;;;;;;;;;;;;;;;;
"Ett414";"1995";;"Windows 7";"Rachel's Experiment (D.T.)";"1.0";"2";"1";"1";"2";"1";"1";"2014-10-14 11:25:02.475";"2014-10-14 11:42:59.062";"1";"0";"0";"181";"180";"module.devaluation_block1.exec-9689.deval1";"10447";"2014-10-14 11:41:17.143";"17";"3";"1";"2";"2977";"1838";"2616";"2014-10-14 11:41:06.696";"2";;;;;;;;;;;;;;;;;;;;;;;;;;;;;;;;;;;;;;;;;;;;;;;;;;;;;;;;;;;;;;;;;;;;;;;;;;;;;;;;
"Ett414";"1995";;"Windows 7";"Rachel's Experiment (D.T.)";"1.0";"2";"1";"1";"2";"1";"1";"2014-10-14 11:25:02.475";"2014-10-14 11:42:59.062";"1";"0";"0";"182";"181";"module.devaluation_block1.exec-9689.deval1";"10706";"2014-10-14 11:41:27.868";"14";"6";"3";"4";"2233";"1037";"4414";"2014-10-14 11:41:17.162";"2";;;;;;;;;;;;;;;;;;;;;;;;;;;;;;;;;;;;;;;;;;;;;;;;;;;;;;;;;;;;;;;;;;;;;;;;;;;;;;;;
"Ett414";"1995";;"Windows 7";"Rachel's Experiment (D.T.)";"1.0";"2";"1";"1";"2";"1";"1";"2014-10-14 11:25:02.475";"2014-10-14 11:42:59.062";"1";"0";"0";"183";"182";"module.devaluation_block1.exec-9689.deval1";"9574";"2014-10-14 11:41:37.469";"6";"4";"4";"7";"1336";"3182";"2031";"2014-10-14 11:41:27.894";"1";;;;;;;;;;;;;;;;;;;;;;;;;;;;;;;;;;;;;;;;;;;;;;;;;;;;;;;;;;;;;;;;;;;;;;;;;;;;;;;;
"Ett414";"1995";;"Windows 7";"Rachel's Experiment (D.T.)";"1.0";"2";"1";"1";"2";"1";"1";"2014-10-14 11:25:02.475";"2014-10-14 11:42:59.062";"1";"0";"0";"184";"183";"module.devaluation_block1.exec-9689.deval1";"10041";"2014-10-14 11:41:47.540";"12";"6";"7";"8";"1054";"2596";"3366";"2014-10-14 11:41:37.499";"2";;;;;;;;;;;;;;;;;;;;;;;;;;;;;;;;;;;;;;;;;;;;;;;;;;;;;;;;;;;;;;;;;;;;;;;;;;;;;;;;
"Ett414";"1995";;"Windows 7";"Rachel's Experiment (D.T.)";"1.0";"2";"1";"1";"2";"1";"1";"2014-10-14 11:25:02.475";"2014-10-14 11:42:59.062";"1";"0";"0";"185";"184";"module.devaluation_block1.exec-9689.deval1";"11878";"2014-10-14 11:41:59.445";"20";"6";"6";"8";"2994";"1939";"3917";"2014-10-14 11:41:47.567";"3";;;;;;;;;;;;;;;;;;;;;;;;;;;;;;;;;;;;;;;;;;;;;;;;;;;;;;;;;;;;;;;;;;;;;;;;;;;;;;;;
"Ett414";"1995";;"Windows 7";"Rachel's Experiment (D.T.)";"1.0";"2";"1";"1";"2";"1";"1";"2014-10-14 11:25:02.475";"2014-10-14 11:42:59.062";"1";"0";"0";"186";"185";"module.devaluation_block1.exec-9689.deval1";"10790";"2014-10-14 11:42:10.258";"7";"4";"5";"7";"2334";"2558";"2878";"2014-10-14 11:41:59.467";"1";;;;;;;;;;;;;;;;;;;;;;;;;;;;;;;;;;;;;;;;;;;;;;;;;;;;;;;;;;;;;;;;;;;;;;;;;;;;;;;;
"Ett414";"1995";;"Windows 7";"Rachel's Experiment (D.T.)";"1.0";"2";"1";"1";"2";"1";"1";"2014-10-14 11:25:02.475";"2014-10-14 11:42:59.062";"1";"0";"0";"187";"186";"module.devaluation_block1.exec-9689.deval1";"15515";"2014-10-14 11:42:25.805";"19";"9";"5";"7";"1428";"2880";"8185";"2014-10-14 11:42:10.290";"3";;;;;;;;;;;;;;;;;;;;;;;;;;;;;;;;;;;;;;;;;;;;;;;;;;;;;;;;;;;;;;;;;;;;;;;;;;;;;;;;
"Ett414";"1995";;"Windows 7";"Rachel's Experiment (D.T.)";"1.0";"2";"1";"1";"2";"1";"1";"2014-10-14 11:25:02.475";"2014-10-14 11:42:59.062";"1";"0";"0";"188";"187";"module.devaluation_block1.exec-9689.deval1";"11019";"2014-10-14 11:42:36.849";"1";"4";"3";"5";"529";"3229";"4238";"2014-10-14 11:42:25.830";"1";;;;;;;;;;;;;;;;;;;;;;;;;;;;;;;;;;;;;;;;;;;;;;;;;;;;;;;;;;;;;;;;;;;;;;;;;;;;;;;;
"Ett414";"1995";;"Windows 7";"Rachel's Experiment (D.T.)";"1.0";"2";"1";"1";"2";"1";"1";"2014-10-14 11:25:02.475";"2014-10-14 11:42:59.062";"1";"0";"0";"189";"188";"module.devaluation_block1.exec-9689.deval1";"9295";"2014-10-14 11:42:46.164";"2";"5";"3";"6";"792";"812";"4664";"2014-10-14 11:42:36.868";"1";;;;;;;;;;;;;;;;;;;;;;;;;;;;;;;;;;;;;;;;;;;;;;;;;;;;;;;;;;;;;;;;;;;;;;;;;;;;;;;;
"Ett414";"1995";;"Windows 7";"Rachel's Experiment (D.T.)";"1.0";"2";"1";"1";"2";"1";"1";"2014-10-14 11:25:02.475";"2014-10-14 11:42:59.062";"1";"0";"0";"190";"189";"module.devaluation_block1.exec-9689.deval1";"10760";"2014-10-14 11:42:56.948";"15";"3";"4";"5";"1310";"2828";"3607";"2014-10-14 11:42:46.187";"2";;;;;;;;;;;;;;;;;;;;;;;;;;;;;;;;;;;;;;;;;;;;;;;;;;;;;;;;;;;;;;;;;;;;;;;;;;;;;;;;
