"user.name";"user.yearOfBirth";"user.sex";"user.osName";"module.name";"module.version";"module.online.subject.code";"module.online.study.id";"module.online.module.nr";"module.online.group.nr";"session.id";"session.index";"session.startTime";"session.endTime";"session.completed";"session.node-1058.DevalQorder";"session.node-7953.conditionType";"trial.id";"trial.index";"trial.name";"trial.deval1.durationTime";"trial.deval1.endTime";"trial.deval1.icon";"trial.deval1.Resp_Attractive";"trial.deval1.Resp_Eat";"trial.deval1.Resp_Taste";"trial.deval1.RT_Attractive";"trial.deval1.RT_Eat";"trial.deval1.RT_Taste";"trial.deval1.startTime";"trial.deval1.stimulus type";"trial.devalPractice.durationTime";"trial.devalPractice.endTime";"trial.devalPractice.icon";"trial.devalPractice.Resp_Attractive";"trial.devalPractice.Resp_Eat";"trial.devalPractice.Resp_Taste";"trial.devalPractice.RT_Attractive";"trial.devalPractice.RT_Eat";"trial.devalPractice.RT_Taste";"trial.devalPractice.startTime";"trial.devalPractice.stimulus type";"trial.GoNoGo1.durationTime";"trial.GoNoGo1.endTime";"trial.GoNoGo1.Error Type";"trial.GoNoGo1.icon";"trial.GoNoGo1.location";"trial.GoNoGo1.outcome";"trial.GoNoGo1.response";"trial.GoNoGo1.result";"trial.GoNoGo1.RT";"trial.GoNoGo1.signal";"trial.GoNoGo1.startTime";"trial.GoNoGo1.stimulus type";"trial.GoNoGo2.durationTime";"trial.GoNoGo2.endTime";"trial.GoNoGo2.Error Type";"trial.GoNoGo2.icon";"trial.GoNoGo2.location";"trial.GoNoGo2.outcome";"trial.GoNoGo2.response";"trial.GoNoGo2.result";"trial.GoNoGo2.RT";"trial.GoNoGo2.signal";"trial.GoNoGo2.startTime";"trial.GoNoGo2.stimulus type";"trial.GoNoGo3.durationTime";"trial.GoNoGo3.endTime";"trial.GoNoGo3.Error Type";"trial.GoNoGo3.icon";"trial.GoNoGo3.location";"trial.GoNoGo3.outcome";"trial.GoNoGo3.response";"trial.GoNoGo3.result";"trial.GoNoGo3.RT";"trial.GoNoGo3.signal";"trial.GoNoGo3.startTime";"trial.GoNoGo3.stimulus type";"trial.GoNoGo4.durationTime";"trial.GoNoGo4.endTime";"trial.GoNoGo4.Error Type";"trial.GoNoGo4.icon";"trial.GoNoGo4.location";"trial.GoNoGo4.outcome";"trial.GoNoGo4.response";"trial.GoNoGo4.result";"trial.GoNoGo4.RT";"trial.GoNoGo4.signal";"trial.GoNoGo4.startTime";"trial.GoNoGo4.stimulus type";"trial.GoNoGo_Practice.durationTime";"trial.GoNoGo_Practice.endTime";"trial.GoNoGo_Practice.icon";"trial.GoNoGo_Practice.location";"trial.GoNoGo_Practice.outcome";"trial.GoNoGo_Practice.response";"trial.GoNoGo_Practice.result";"trial.GoNoGo_Practice.RT";"trial.GoNoGo_Practice.signal";"trial.GoNoGo_Practice.startTime";"trial.GoNoGo_Practice.stimulus type";"trial.GoNoGo_Tutorial.durationTime";"trial.GoNoGo_Tutorial.endTime";"trial.GoNoGo_Tutorial.icon";"trial.GoNoGo_Tutorial.location";"trial.GoNoGo_Tutorial.outcome";"trial.GoNoGo_Tutorial.response";"trial.GoNoGo_Tutorial.result";"trial.GoNoGo_Tutorial.RT";"trial.GoNoGo_Tutorial.signal";"trial.GoNoGo_Tutorial.startTime"
"KLHR1";"1995";;"Windows 7";"Rachel's Experiment (D.T.)";"1.0";"2";"1";"1";"2";"1";"1";"2014-09-26 15:43:29.345";"2014-09-26 15:58:10.285";"1";"0";"1";"1";"0";"module.GoNoGotutorial.exec-4891.GoNoGo_Tutorial";;;;;;;;;;;;;;;;;;;;;;;;;;;;;;;;;;;;;;;;;;;;;;;;;;;;;;;;;;;;;;;;;;;;;;;;;;;;;;;;;;"4000";"2014-09-26 15:45:35.187";"leftResponse";"0";"FINISHED";"LEFT";"success";"1189";"0";"2014-09-26 15:45:31.187"
"KLHR1";"1995";;"Windows 7";"Rachel's Experiment (D.T.)";"1.0";"2";"1";"1";"2";"1";"1";"2014-09-26 15:43:29.345";"2014-09-26 15:58:10.285";"1";"0";"1";"2";"1";"module.GoNoGotutorial.exec-4891.GoNoGo_Tutorial";;;;;;;;;;;;;;;;;;;;;;;;;;;;;;;;;;;;;;;;;;;;;;;;;;;;;;;;;;;;;;;;;;;;;;;;;;;;;;;;;;"4000";"2014-09-26 15:45:40.486";"rightResponse";"1";"FINISHED";"RIGHT";"success";"1311";"0";"2014-09-26 15:45:36.486"
"KLHR1";"1995";;"Windows 7";"Rachel's Experiment (D.T.)";"1.0";"2";"1";"1";"2";"1";"1";"2014-09-26 15:43:29.345";"2014-09-26 15:58:10.285";"1";"0";"1";"3";"2";"module.GoNoGotutorial.exec-4891.GoNoGo_Tutorial";;;;;;;;;;;;;;;;;;;;;;;;;;;;;;;;;;;;;;;;;;;;;;;;;;;;;;;;;;;;;;;;;;;;;;;;;;;;;;;;;;"3999";"2014-09-26 15:45:45.792";"signalResponse";"0";"FINISHED";"NONE";"success";"0";"1";"2014-09-26 15:45:41.792"
"KLHR1";"1995";;"Windows 7";"Rachel's Experiment (D.T.)";"1.0";"2";"1";"1";"2";"1";"1";"2014-09-26 15:43:29.345";"2014-09-26 15:58:10.285";"1";"0";"1";"4";"3";"module.GoNoGopractice.exec-2315.GoNoGo_Practice";;;;;;;;;;;;;;;;;;;;;;;;;;;;;;;;;;;;;;;;;;;;;;;;;;;;;;;;;;;;;;;;;;;;;;;"1955";"2014-09-26 15:45:56.306";"18";"0";"FINISHED";"LEFT";"success";"509";"0";"2014-09-26 15:45:54.351";"3";;;;;;;;;;
"KLHR1";"1995";;"Windows 7";"Rachel's Experiment (D.T.)";"1.0";"2";"1";"1";"2";"1";"1";"2014-09-26 15:43:29.345";"2014-09-26 15:58:10.285";"1";"0";"1";"5";"4";"module.GoNoGopractice.exec-2315.GoNoGo_Practice";;;;;;;;;;;;;;;;;;;;;;;;;;;;;;;;;;;;;;;;;;;;;;;;;;;;;;;;;;;;;;;;;;;;;;;"1951";"2014-09-26 15:45:59.551";"21";"1";"FINISHED";"RIGHT";"success";"503";"0";"2014-09-26 15:45:57.599";"3";;;;;;;;;;
"KLHR1";"1995";;"Windows 7";"Rachel's Experiment (D.T.)";"1.0";"2";"1";"1";"2";"1";"1";"2014-09-26 15:43:29.345";"2014-09-26 15:58:10.285";"1";"0";"1";"6";"5";"module.GoNoGopractice.exec-2315.GoNoGo_Practice";;;;;;;;;;;;;;;;;;;;;;;;;;;;;;;;;;;;;;;;;;;;;;;;;;;;;;;;;;;;;;;;;;;;;;;"1954";"2014-09-26 15:46:02.795";"14";"1";"FINISHED";"NONE";"success";"0";"1";"2014-09-26 15:46:00.841";"2";;;;;;;;;;
"KLHR1";"1995";;"Windows 7";"Rachel's Experiment (D.T.)";"1.0";"2";"1";"1";"2";"1";"1";"2014-09-26 15:43:29.345";"2014-09-26 15:58:10.285";"1";"0";"1";"7";"6";"module.GoNoGopractice.exec-2315.GoNoGo_Practice";;;;;;;;;;;;;;;;;;;;;;;;;;;;;;;;;;;;;;;;;;;;;;;;;;;;;;;;;;;;;;;;;;;;;;;"1950";"2014-09-26 15:46:06.042";"26";"0";"FINISHED";"LEFT";"success";"499";"0";"2014-09-26 15:46:04.091";"3";;;;;;;;;;
"KLHR1";"1995";;"Windows 7";"Rachel's Experiment (D.T.)";"1.0";"2";"1";"1";"2";"1";"1";"2014-09-26 15:43:29.345";"2014-09-26 15:58:10.285";"1";"0";"1";"8";"7";"module.GoNoGopractice.exec-2315.GoNoGo_Practice";;;;;;;;;;;;;;;;;;;;;;;;;;;;;;;;;;;;;;;;;;;;;;;;;;;;;;;;;;;;;;;;;;;;;;;"1951";"2014-09-26 15:46:09.284";"2";"0";"FINISHED";"LEFT";"success";"507";"0";"2014-09-26 15:46:07.333";"1";;;;;;;;;;
"KLHR1";"1995";;"Windows 7";"Rachel's Experiment (D.T.)";"1.0";"2";"1";"1";"2";"1";"1";"2014-09-26 15:43:29.345";"2014-09-26 15:58:10.285";"1";"0";"1";"9";"8";"module.GoNoGopractice.exec-2315.GoNoGo_Practice";;;;;;;;;;;;;;;;;;;;;;;;;;;;;;;;;;;;;;;;;;;;;;;;;;;;;;;;;;;;;;;;;;;;;;;"1950";"2014-09-26 15:46:12.525";"30";"0";"FINISHED";"NONE";"success";"0";"1";"2014-09-26 15:46:10.574";"3";;;;;;;;;;
"KLHR1";"1995";;"Windows 7";"Rachel's Experiment (D.T.)";"1.0";"2";"1";"1";"2";"1";"1";"2014-09-26 15:43:29.345";"2014-09-26 15:58:10.285";"1";"0";"1";"10";"9";"module.GoNoGopractice.exec-2315.GoNoGo_Practice";;;;;;;;;;;;;;;;;;;;;;;;;;;;;;;;;;;;;;;;;;;;;;;;;;;;;;;;;;;;;;;;;;;;;;;"1959";"2014-09-26 15:46:15.773";"6";"1";"FINISHED";"NONE";"success";"0";"1";"2014-09-26 15:46:13.814";"1";;;;;;;;;;
"KLHR1";"1995";;"Windows 7";"Rachel's Experiment (D.T.)";"1.0";"2";"1";"1";"2";"1";"1";"2014-09-26 15:43:29.345";"2014-09-26 15:58:10.285";"1";"0";"1";"11";"10";"module.GoNoGopractice.exec-2315.GoNoGo_Practice";;;;;;;;;;;;;;;;;;;;;;;;;;;;;;;;;;;;;;;;;;;;;;;;;;;;;;;;;;;;;;;;;;;;;;;"1951";"2014-09-26 15:46:19.016";"34";"0";"FINISHED";"LEFT";"success";"499";"0";"2014-09-26 15:46:17.065";"3";;;;;;;;;;
"KLHR1";"1995";;"Windows 7";"Rachel's Experiment (D.T.)";"1.0";"2";"1";"1";"2";"1";"1";"2014-09-26 15:43:29.345";"2014-09-26 15:58:10.285";"1";"0";"1";"12";"11";"module.GoNoGopractice.exec-2315.GoNoGo_Practice";;;;;;;;;;;;;;;;;;;;;;;;;;;;;;;;;;;;;;;;;;;;;;;;;;;;;;;;;;;;;;;;;;;;;;;"1950";"2014-09-26 15:46:22.255";"23";"1";"FINISHED";"RIGHT";"success";"466";"0";"2014-09-26 15:46:20.304";"3";;;;;;;;;;
"KLHR1";"1995";;"Windows 7";"Rachel's Experiment (D.T.)";"1.0";"2";"1";"1";"2";"1";"1";"2014-09-26 15:43:29.345";"2014-09-26 15:58:10.285";"1";"0";"1";"13";"12";"module.GoNoGopractice.exec-2315.GoNoGo_Practice";;;;;;;;;;;;;;;;;;;;;;;;;;;;;;;;;;;;;;;;;;;;;;;;;;;;;;;;;;;;;;;;;;;;;;;"1951";"2014-09-26 15:46:25.495";"13";"0";"FINISHED";"NONE";"success";"0";"1";"2014-09-26 15:46:23.544";"2";;;;;;;;;;
"KLHR1";"1995";;"Windows 7";"Rachel's Experiment (D.T.)";"1.0";"2";"1";"1";"2";"1";"1";"2014-09-26 15:43:29.345";"2014-09-26 15:58:10.285";"1";"0";"1";"14";"13";"module.GoNoGopractice.exec-2315.GoNoGo_Practice";;;;;;;;;;;;;;;;;;;;;;;;;;;;;;;;;;;;;;;;;;;;;;;;;;;;;;;;;;;;;;;;;;;;;;;"1950";"2014-09-26 15:46:28.735";"3";"1";"FINISHED";"RIGHT";"success";"444";"0";"2014-09-26 15:46:26.784";"1";;;;;;;;;;
"KLHR1";"1995";;"Windows 7";"Rachel's Experiment (D.T.)";"1.0";"2";"1";"1";"2";"1";"1";"2014-09-26 15:43:29.345";"2014-09-26 15:58:10.285";"1";"0";"1";"15";"14";"module.GoNoGopractice.exec-2315.GoNoGo_Practice";;;;;;;;;;;;;;;;;;;;;;;;;;;;;;;;;;;;;;;;;;;;;;;;;;;;;;;;;;;;;;;;;;;;;;;"1950";"2014-09-26 15:46:31.973";"27";"1";"FINISHED";"NONE";"success";"0";"1";"2014-09-26 15:46:30.022";"3";;;;;;;;;;
"KLHR1";"1995";;"Windows 7";"Rachel's Experiment (D.T.)";"1.0";"2";"1";"1";"2";"1";"1";"2014-09-26 15:43:29.345";"2014-09-26 15:58:10.285";"1";"0";"1";"16";"15";"module.training_block1.exec-8440.GoNoGo1";;;;;;;;;;;;;;;;;;;;;;;"1250";"2014-09-26 15:46:44.891";"NST_correctLoc";"24";"1";"FINISHED";"RIGHT";"success";"497";"0";"2014-09-26 15:46:43.641";"3";;;;;;;;;;;;;;;;;;;;;;;;;;;;;;;;;;;;;;;;;;;;;;;;;;;;;;;;;
"KLHR1";"1995";;"Windows 7";"Rachel's Experiment (D.T.)";"1.0";"2";"1";"1";"2";"1";"1";"2014-09-26 15:43:29.345";"2014-09-26 15:58:10.285";"1";"0";"1";"17";"16";"module.training_block1.exec-8440.GoNoGo1";;;;;;;;;;;;;;;;;;;;;;;"1250";"2014-09-26 15:46:47.430";"NST_correctLoc";"18";"0";"FINISHED";"LEFT";"success";"437";"0";"2014-09-26 15:46:46.180";"3";;;;;;;;;;;;;;;;;;;;;;;;;;;;;;;;;;;;;;;;;;;;;;;;;;;;;;;;;
"KLHR1";"1995";;"Windows 7";"Rachel's Experiment (D.T.)";"1.0";"2";"1";"1";"2";"1";"1";"2014-09-26 15:43:29.345";"2014-09-26 15:58:10.285";"1";"0";"1";"18";"17";"module.training_block1.exec-8440.GoNoGo1";;;;;;;;;;;;;;;;;;;;;;;"1250";"2014-09-26 15:46:49.970";"NST_correctLoc";"20";"0";"FINISHED";"LEFT";"success";"414";"0";"2014-09-26 15:46:48.720";"3";;;;;;;;;;;;;;;;;;;;;;;;;;;;;;;;;;;;;;;;;;;;;;;;;;;;;;;;;
"KLHR1";"1995";;"Windows 7";"Rachel's Experiment (D.T.)";"1.0";"2";"1";"1";"2";"1";"1";"2014-09-26 15:43:29.345";"2014-09-26 15:58:10.285";"1";"0";"1";"19";"18";"module.training_block1.exec-8440.GoNoGo1";;;;;;;;;;;;;;;;;;;;;;;"1249";"2014-09-26 15:46:52.511";"NST_correctLoc";"15";"1";"FINISHED";"RIGHT";"success";"457";"0";"2014-09-26 15:46:51.260";"2";;;;;;;;;;;;;;;;;;;;;;;;;;;;;;;;;;;;;;;;;;;;;;;;;;;;;;;;;
"KLHR1";"1995";;"Windows 7";"Rachel's Experiment (D.T.)";"1.0";"2";"1";"1";"2";"1";"1";"2014-09-26 15:43:29.345";"2014-09-26 15:58:10.285";"1";"0";"1";"20";"19";"module.training_block1.exec-8440.GoNoGo1";;;;;;;;;;;;;;;;;;;;;;;"1249";"2014-09-26 15:46:55.045";"ST_correctStop";"34";"1";"FINISHED";"NONE";"success";"0";"1";"2014-09-26 15:46:53.795";"3";;;;;;;;;;;;;;;;;;;;;;;;;;;;;;;;;;;;;;;;;;;;;;;;;;;;;;;;;
"KLHR1";"1995";;"Windows 7";"Rachel's Experiment (D.T.)";"1.0";"2";"1";"1";"2";"1";"1";"2014-09-26 15:43:29.345";"2014-09-26 15:58:10.285";"1";"0";"1";"21";"20";"module.training_block1.exec-8440.GoNoGo1";;;;;;;;;;;;;;;;;;;;;;;"1249";"2014-09-26 15:46:57.580";"ST_correctStop";"3";"0";"FINISHED";"NONE";"success";"0";"1";"2014-09-26 15:46:56.330";"1";;;;;;;;;;;;;;;;;;;;;;;;;;;;;;;;;;;;;;;;;;;;;;;;;;;;;;;;;
"KLHR1";"1995";;"Windows 7";"Rachel's Experiment (D.T.)";"1.0";"2";"1";"1";"2";"1";"1";"2014-09-26 15:43:29.345";"2014-09-26 15:58:10.285";"1";"0";"1";"22";"21";"module.training_block1.exec-8440.GoNoGo1";;;;;;;;;;;;;;;;;;;;;;;"1250";"2014-09-26 15:47:00.119";"NST_correctLoc";"28";"0";"FINISHED";"LEFT";"success";"474";"0";"2014-09-26 15:46:58.868";"3";;;;;;;;;;;;;;;;;;;;;;;;;;;;;;;;;;;;;;;;;;;;;;;;;;;;;;;;;
"KLHR1";"1995";;"Windows 7";"Rachel's Experiment (D.T.)";"1.0";"2";"1";"1";"2";"1";"1";"2014-09-26 15:43:29.345";"2014-09-26 15:58:10.285";"1";"0";"1";"23";"22";"module.training_block1.exec-8440.GoNoGo1";;;;;;;;;;;;;;;;;;;;;;;"1249";"2014-09-26 15:47:02.660";"ST_correctStop";"6";"1";"FINISHED";"NONE";"success";"0";"1";"2014-09-26 15:47:01.410";"1";;;;;;;;;;;;;;;;;;;;;;;;;;;;;;;;;;;;;;;;;;;;;;;;;;;;;;;;;
"KLHR1";"1995";;"Windows 7";"Rachel's Experiment (D.T.)";"1.0";"2";"1";"1";"2";"1";"1";"2014-09-26 15:43:29.345";"2014-09-26 15:58:10.285";"1";"0";"1";"24";"23";"module.training_block1.exec-8440.GoNoGo1";;;;;;;;;;;;;;;;;;;;;;;"1250";"2014-09-26 15:47:05.194";"ST_correctStop";"27";"1";"FINISHED";"NONE";"success";"0";"1";"2014-09-26 15:47:03.944";"3";;;;;;;;;;;;;;;;;;;;;;;;;;;;;;;;;;;;;;;;;;;;;;;;;;;;;;;;;
"KLHR1";"1995";;"Windows 7";"Rachel's Experiment (D.T.)";"1.0";"2";"1";"1";"2";"1";"1";"2014-09-26 15:43:29.345";"2014-09-26 15:58:10.285";"1";"0";"1";"25";"24";"module.training_block1.exec-8440.GoNoGo1";;;;;;;;;;;;;;;;;;;;;;;"1249";"2014-09-26 15:47:07.732";"NST_correctLoc";"33";"0";"FINISHED";"LEFT";"success";"385";"0";"2014-09-26 15:47:06.482";"3";;;;;;;;;;;;;;;;;;;;;;;;;;;;;;;;;;;;;;;;;;;;;;;;;;;;;;;;;
"KLHR1";"1995";;"Windows 7";"Rachel's Experiment (D.T.)";"1.0";"2";"1";"1";"2";"1";"1";"2014-09-26 15:43:29.345";"2014-09-26 15:58:10.285";"1";"0";"1";"26";"25";"module.training_block1.exec-8440.GoNoGo1";;;;;;;;;;;;;;;;;;;;;;;"1249";"2014-09-26 15:47:10.269";"NST_correctLoc";"11";"0";"FINISHED";"LEFT";"success";"378";"0";"2014-09-26 15:47:09.018";"2";;;;;;;;;;;;;;;;;;;;;;;;;;;;;;;;;;;;;;;;;;;;;;;;;;;;;;;;;
"KLHR1";"1995";;"Windows 7";"Rachel's Experiment (D.T.)";"1.0";"2";"1";"1";"2";"1";"1";"2014-09-26 15:43:29.345";"2014-09-26 15:58:10.285";"1";"0";"1";"27";"26";"module.training_block1.exec-8440.GoNoGo1";;;;;;;;;;;;;;;;;;;;;;;"1249";"2014-09-26 15:47:12.806";"ST_correctStop";"25";"0";"FINISHED";"NONE";"success";"0";"1";"2014-09-26 15:47:11.556";"3";;;;;;;;;;;;;;;;;;;;;;;;;;;;;;;;;;;;;;;;;;;;;;;;;;;;;;;;;
"KLHR1";"1995";;"Windows 7";"Rachel's Experiment (D.T.)";"1.0";"2";"1";"1";"2";"1";"1";"2014-09-26 15:43:29.345";"2014-09-26 15:58:10.285";"1";"0";"1";"28";"27";"module.training_block1.exec-8440.GoNoGo1";;;;;;;;;;;;;;;;;;;;;;;"1249";"2014-09-26 15:47:15.342";"ST_correctStop";"1";"1";"FINISHED";"NONE";"success";"0";"1";"2014-09-26 15:47:14.092";"1";;;;;;;;;;;;;;;;;;;;;;;;;;;;;;;;;;;;;;;;;;;;;;;;;;;;;;;;;
"KLHR1";"1995";;"Windows 7";"Rachel's Experiment (D.T.)";"1.0";"2";"1";"1";"2";"1";"1";"2014-09-26 15:43:29.345";"2014-09-26 15:58:10.285";"1";"0";"1";"29";"28";"module.training_block1.exec-8440.GoNoGo1";;;;;;;;;;;;;;;;;;;;;;;"1249";"2014-09-26 15:47:17.873";"ST_correctStop";"21";"0";"FINISHED";"NONE";"success";"0";"1";"2014-09-26 15:47:16.623";"3";;;;;;;;;;;;;;;;;;;;;;;;;;;;;;;;;;;;;;;;;;;;;;;;;;;;;;;;;
"KLHR1";"1995";;"Windows 7";"Rachel's Experiment (D.T.)";"1.0";"2";"1";"1";"2";"1";"1";"2014-09-26 15:43:29.345";"2014-09-26 15:58:10.285";"1";"0";"1";"30";"29";"module.training_block1.exec-8440.GoNoGo1";;;;;;;;;;;;;;;;;;;;;;;"1249";"2014-09-26 15:47:20.406";"ST_correctStop";"26";"0";"FINISHED";"NONE";"success";"0";"1";"2014-09-26 15:47:19.156";"3";;;;;;;;;;;;;;;;;;;;;;;;;;;;;;;;;;;;;;;;;;;;;;;;;;;;;;;;;
"KLHR1";"1995";;"Windows 7";"Rachel's Experiment (D.T.)";"1.0";"2";"1";"1";"2";"1";"1";"2014-09-26 15:43:29.345";"2014-09-26 15:58:10.285";"1";"0";"1";"31";"30";"module.training_block1.exec-8440.GoNoGo1";;;;;;;;;;;;;;;;;;;;;;;"1249";"2014-09-26 15:47:22.942";"ST_failedStop";"0";"0";"FINISHED";"LEFT";"failure";"419";"1";"2014-09-26 15:47:21.692";"1";;;;;;;;;;;;;;;;;;;;;;;;;;;;;;;;;;;;;;;;;;;;;;;;;;;;;;;;;
"KLHR1";"1995";;"Windows 7";"Rachel's Experiment (D.T.)";"1.0";"2";"1";"1";"2";"1";"1";"2014-09-26 15:43:29.345";"2014-09-26 15:58:10.285";"1";"0";"1";"32";"31";"module.training_block1.exec-8440.GoNoGo1";;;;;;;;;;;;;;;;;;;;;;;"1249";"2014-09-26 15:47:25.478";"NST_correctLoc";"9";"0";"FINISHED";"LEFT";"success";"570";"0";"2014-09-26 15:47:24.228";"2";;;;;;;;;;;;;;;;;;;;;;;;;;;;;;;;;;;;;;;;;;;;;;;;;;;;;;;;;
"KLHR1";"1995";;"Windows 7";"Rachel's Experiment (D.T.)";"1.0";"2";"1";"1";"2";"1";"1";"2014-09-26 15:43:29.345";"2014-09-26 15:58:10.285";"1";"0";"1";"33";"32";"module.training_block1.exec-8440.GoNoGo1";;;;;;;;;;;;;;;;;;;;;;;"1249";"2014-09-26 15:47:28.013";"NST_correctLoc";"35";"0";"FINISHED";"LEFT";"success";"403";"0";"2014-09-26 15:47:26.763";"3";;;;;;;;;;;;;;;;;;;;;;;;;;;;;;;;;;;;;;;;;;;;;;;;;;;;;;;;;
"KLHR1";"1995";;"Windows 7";"Rachel's Experiment (D.T.)";"1.0";"2";"1";"1";"2";"1";"1";"2014-09-26 15:43:29.345";"2014-09-26 15:58:10.285";"1";"0";"1";"34";"33";"module.training_block1.exec-8440.GoNoGo1";;;;;;;;;;;;;;;;;;;;;;;"1249";"2014-09-26 15:47:30.547";"ST_correctStop";"8";"1";"FINISHED";"NONE";"success";"0";"1";"2014-09-26 15:47:29.297";"1";;;;;;;;;;;;;;;;;;;;;;;;;;;;;;;;;;;;;;;;;;;;;;;;;;;;;;;;;
"KLHR1";"1995";;"Windows 7";"Rachel's Experiment (D.T.)";"1.0";"2";"1";"1";"2";"1";"1";"2014-09-26 15:43:29.345";"2014-09-26 15:58:10.285";"1";"0";"1";"35";"34";"module.training_block1.exec-8440.GoNoGo1";;;;;;;;;;;;;;;;;;;;;;;"1249";"2014-09-26 15:47:33.081";"ST_correctStop";"5";"1";"FINISHED";"NONE";"success";"0";"1";"2014-09-26 15:47:31.831";"1";;;;;;;;;;;;;;;;;;;;;;;;;;;;;;;;;;;;;;;;;;;;;;;;;;;;;;;;;
"KLHR1";"1995";;"Windows 7";"Rachel's Experiment (D.T.)";"1.0";"2";"1";"1";"2";"1";"1";"2014-09-26 15:43:29.345";"2014-09-26 15:58:10.285";"1";"0";"1";"36";"35";"module.training_block1.exec-8440.GoNoGo1";;;;;;;;;;;;;;;;;;;;;;;"1249";"2014-09-26 15:47:35.802";"NST_correctLoc";"12";"1";"FINISHED";"RIGHT";"success";"467";"0";"2014-09-26 15:47:34.552";"2";;;;;;;;;;;;;;;;;;;;;;;;;;;;;;;;;;;;;;;;;;;;;;;;;;;;;;;;;
"KLHR1";"1995";;"Windows 7";"Rachel's Experiment (D.T.)";"1.0";"2";"1";"1";"2";"1";"1";"2014-09-26 15:43:29.345";"2014-09-26 15:58:10.285";"1";"0";"1";"37";"36";"module.training_block1.exec-8440.GoNoGo1";;;;;;;;;;;;;;;;;;;;;;;"1250";"2014-09-26 15:47:38.338";"NST_correctLoc";"14";"0";"FINISHED";"LEFT";"success";"446";"0";"2014-09-26 15:47:37.088";"2";;;;;;;;;;;;;;;;;;;;;;;;;;;;;;;;;;;;;;;;;;;;;;;;;;;;;;;;;
"KLHR1";"1995";;"Windows 7";"Rachel's Experiment (D.T.)";"1.0";"2";"1";"1";"2";"1";"1";"2014-09-26 15:43:29.345";"2014-09-26 15:58:10.285";"1";"0";"1";"38";"37";"module.training_block1.exec-8440.GoNoGo1";;;;;;;;;;;;;;;;;;;;;;;"1249";"2014-09-26 15:47:40.873";"ST_correctStop";"29";"1";"FINISHED";"NONE";"success";"0";"1";"2014-09-26 15:47:39.623";"3";;;;;;;;;;;;;;;;;;;;;;;;;;;;;;;;;;;;;;;;;;;;;;;;;;;;;;;;;
"KLHR1";"1995";;"Windows 7";"Rachel's Experiment (D.T.)";"1.0";"2";"1";"1";"2";"1";"1";"2014-09-26 15:43:29.345";"2014-09-26 15:58:10.285";"1";"0";"1";"39";"38";"module.training_block1.exec-8440.GoNoGo1";;;;;;;;;;;;;;;;;;;;;;;"1249";"2014-09-26 15:47:43.408";"NST_correctLoc";"13";"0";"FINISHED";"LEFT";"success";"399";"0";"2014-09-26 15:47:42.158";"2";;;;;;;;;;;;;;;;;;;;;;;;;;;;;;;;;;;;;;;;;;;;;;;;;;;;;;;;;
"KLHR1";"1995";;"Windows 7";"Rachel's Experiment (D.T.)";"1.0";"2";"1";"1";"2";"1";"1";"2014-09-26 15:43:29.345";"2014-09-26 15:58:10.285";"1";"0";"1";"40";"39";"module.training_block1.exec-8440.GoNoGo1";;;;;;;;;;;;;;;;;;;;;;;"1250";"2014-09-26 15:47:45.945";"NST_correctLoc";"16";"0";"FINISHED";"LEFT";"success";"462";"0";"2014-09-26 15:47:44.695";"2";;;;;;;;;;;;;;;;;;;;;;;;;;;;;;;;;;;;;;;;;;;;;;;;;;;;;;;;;
"KLHR1";"1995";;"Windows 7";"Rachel's Experiment (D.T.)";"1.0";"2";"1";"1";"2";"1";"1";"2014-09-26 15:43:29.345";"2014-09-26 15:58:10.285";"1";"0";"1";"41";"40";"module.training_block1.exec-8440.GoNoGo1";;;;;;;;;;;;;;;;;;;;;;;"1249";"2014-09-26 15:47:48.479";"NST_correctLoc";"17";"1";"FINISHED";"RIGHT";"success";"440";"0";"2014-09-26 15:47:47.229";"2";;;;;;;;;;;;;;;;;;;;;;;;;;;;;;;;;;;;;;;;;;;;;;;;;;;;;;;;;
"KLHR1";"1995";;"Windows 7";"Rachel's Experiment (D.T.)";"1.0";"2";"1";"1";"2";"1";"1";"2014-09-26 15:43:29.345";"2014-09-26 15:58:10.285";"1";"0";"1";"42";"41";"module.training_block1.exec-8440.GoNoGo1";;;;;;;;;;;;;;;;;;;;;;;"1250";"2014-09-26 15:47:51.013";"NST_correctLoc";"10";"1";"FINISHED";"RIGHT";"success";"507";"0";"2014-09-26 15:47:49.763";"2";;;;;;;;;;;;;;;;;;;;;;;;;;;;;;;;;;;;;;;;;;;;;;;;;;;;;;;;;
"KLHR1";"1995";;"Windows 7";"Rachel's Experiment (D.T.)";"1.0";"2";"1";"1";"2";"1";"1";"2014-09-26 15:43:29.345";"2014-09-26 15:58:10.285";"1";"0";"1";"43";"42";"module.training_block1.exec-8440.GoNoGo1";;;;;;;;;;;;;;;;;;;;;;;"1250";"2014-09-26 15:47:53.547";"ST_correctStop";"2";"0";"FINISHED";"NONE";"success";"0";"1";"2014-09-26 15:47:52.297";"1";;;;;;;;;;;;;;;;;;;;;;;;;;;;;;;;;;;;;;;;;;;;;;;;;;;;;;;;;
"KLHR1";"1995";;"Windows 7";"Rachel's Experiment (D.T.)";"1.0";"2";"1";"1";"2";"1";"1";"2014-09-26 15:43:29.345";"2014-09-26 15:58:10.285";"1";"0";"1";"44";"43";"module.training_block1.exec-8440.GoNoGo1";;;;;;;;;;;;;;;;;;;;;;;"1250";"2014-09-26 15:47:56.080";"ST_correctStop";"7";"1";"FINISHED";"NONE";"success";"0";"1";"2014-09-26 15:47:54.830";"1";;;;;;;;;;;;;;;;;;;;;;;;;;;;;;;;;;;;;;;;;;;;;;;;;;;;;;;;;
"KLHR1";"1995";;"Windows 7";"Rachel's Experiment (D.T.)";"1.0";"2";"1";"1";"2";"1";"1";"2014-09-26 15:43:29.345";"2014-09-26 15:58:10.285";"1";"0";"1";"45";"44";"module.training_block1.exec-8440.GoNoGo1";;;;;;;;;;;;;;;;;;;;;;;"1249";"2014-09-26 15:47:58.612";"NST_correctLoc";"30";"0";"FINISHED";"LEFT";"success";"468";"0";"2014-09-26 15:47:57.362";"3";;;;;;;;;;;;;;;;;;;;;;;;;;;;;;;;;;;;;;;;;;;;;;;;;;;;;;;;;
"KLHR1";"1995";;"Windows 7";"Rachel's Experiment (D.T.)";"1.0";"2";"1";"1";"2";"1";"1";"2014-09-26 15:43:29.345";"2014-09-26 15:58:10.285";"1";"0";"1";"46";"45";"module.training_block1.exec-8440.GoNoGo1";;;;;;;;;;;;;;;;;;;;;;;"1249";"2014-09-26 15:48:01.146";"ST_correctStop";"31";"0";"FINISHED";"NONE";"success";"0";"1";"2014-09-26 15:47:59.896";"3";;;;;;;;;;;;;;;;;;;;;;;;;;;;;;;;;;;;;;;;;;;;;;;;;;;;;;;;;
"KLHR1";"1995";;"Windows 7";"Rachel's Experiment (D.T.)";"1.0";"2";"1";"1";"2";"1";"1";"2014-09-26 15:43:29.345";"2014-09-26 15:58:10.285";"1";"0";"1";"47";"46";"module.training_block1.exec-8440.GoNoGo1";;;;;;;;;;;;;;;;;;;;;;;"1249";"2014-09-26 15:48:03.680";"NST_correctLoc";"32";"0";"FINISHED";"LEFT";"success";"442";"0";"2014-09-26 15:48:02.430";"3";;;;;;;;;;;;;;;;;;;;;;;;;;;;;;;;;;;;;;;;;;;;;;;;;;;;;;;;;
"KLHR1";"1995";;"Windows 7";"Rachel's Experiment (D.T.)";"1.0";"2";"1";"1";"2";"1";"1";"2014-09-26 15:43:29.345";"2014-09-26 15:58:10.285";"1";"0";"1";"48";"47";"module.training_block1.exec-8440.GoNoGo1";;;;;;;;;;;;;;;;;;;;;;;"1250";"2014-09-26 15:48:06.215";"NST_correctLoc";"23";"1";"FINISHED";"RIGHT";"success";"500";"0";"2014-09-26 15:48:04.965";"3";;;;;;;;;;;;;;;;;;;;;;;;;;;;;;;;;;;;;;;;;;;;;;;;;;;;;;;;;
"KLHR1";"1995";;"Windows 7";"Rachel's Experiment (D.T.)";"1.0";"2";"1";"1";"2";"1";"1";"2014-09-26 15:43:29.345";"2014-09-26 15:58:10.285";"1";"0";"1";"49";"48";"module.training_block1.exec-8440.GoNoGo1";;;;;;;;;;;;;;;;;;;;;;;"1249";"2014-09-26 15:48:08.747";"ST_correctStop";"22";"1";"FINISHED";"NONE";"success";"0";"1";"2014-09-26 15:48:07.497";"3";;;;;;;;;;;;;;;;;;;;;;;;;;;;;;;;;;;;;;;;;;;;;;;;;;;;;;;;;
"KLHR1";"1995";;"Windows 7";"Rachel's Experiment (D.T.)";"1.0";"2";"1";"1";"2";"1";"1";"2014-09-26 15:43:29.345";"2014-09-26 15:58:10.285";"1";"0";"1";"50";"49";"module.training_block1.exec-8440.GoNoGo1";;;;;;;;;;;;;;;;;;;;;;;"1250";"2014-09-26 15:48:11.286";"ST_correctStop";"4";"1";"FINISHED";"NONE";"success";"0";"1";"2014-09-26 15:48:10.036";"1";;;;;;;;;;;;;;;;;;;;;;;;;;;;;;;;;;;;;;;;;;;;;;;;;;;;;;;;;
"KLHR1";"1995";;"Windows 7";"Rachel's Experiment (D.T.)";"1.0";"2";"1";"1";"2";"1";"1";"2014-09-26 15:43:29.345";"2014-09-26 15:58:10.285";"1";"0";"1";"51";"50";"module.training_block1.exec-8440.GoNoGo1";;;;;;;;;;;;;;;;;;;;;;;"1249";"2014-09-26 15:48:13.818";"ST_correctStop";"19";"0";"FINISHED";"NONE";"success";"0";"1";"2014-09-26 15:48:12.568";"3";;;;;;;;;;;;;;;;;;;;;;;;;;;;;;;;;;;;;;;;;;;;;;;;;;;;;;;;;
"KLHR1";"1995";;"Windows 7";"Rachel's Experiment (D.T.)";"1.0";"2";"1";"1";"2";"1";"1";"2014-09-26 15:43:29.345";"2014-09-26 15:58:10.285";"1";"0";"1";"52";"51";"module.training_block2.exec-7590.GoNoGo2";;;;;;;;;;;;;;;;;;;;;;;;;;;;;;;;;;;"1249";"2014-09-26 15:48:25.714";"ST_correctStop";"34";"0";"FINISHED";"NONE";"success";"0";"1";"2014-09-26 15:48:24.464";"3";;;;;;;;;;;;;;;;;;;;;;;;;;;;;;;;;;;;;;;;;;;;;
"KLHR1";"1995";;"Windows 7";"Rachel's Experiment (D.T.)";"1.0";"2";"1";"1";"2";"1";"1";"2014-09-26 15:43:29.345";"2014-09-26 15:58:10.285";"1";"0";"1";"53";"52";"module.training_block2.exec-7590.GoNoGo2";;;;;;;;;;;;;;;;;;;;;;;;;;;;;;;;;;;"1249";"2014-09-26 15:48:28.245";"NST_correctLoc";"25";"0";"FINISHED";"LEFT";"success";"479";"0";"2014-09-26 15:48:26.995";"3";;;;;;;;;;;;;;;;;;;;;;;;;;;;;;;;;;;;;;;;;;;;;
"KLHR1";"1995";;"Windows 7";"Rachel's Experiment (D.T.)";"1.0";"2";"1";"1";"2";"1";"1";"2014-09-26 15:43:29.345";"2014-09-26 15:58:10.285";"1";"0";"1";"54";"53";"module.training_block2.exec-7590.GoNoGo2";;;;;;;;;;;;;;;;;;;;;;;;;;;;;;;;;;;"1250";"2014-09-26 15:48:30.773";"NST_correctLoc";"22";"1";"FINISHED";"RIGHT";"success";"445";"0";"2014-09-26 15:48:29.523";"3";;;;;;;;;;;;;;;;;;;;;;;;;;;;;;;;;;;;;;;;;;;;;
"KLHR1";"1995";;"Windows 7";"Rachel's Experiment (D.T.)";"1.0";"2";"1";"1";"2";"1";"1";"2014-09-26 15:43:29.345";"2014-09-26 15:58:10.285";"1";"0";"1";"55";"54";"module.training_block2.exec-7590.GoNoGo2";;;;;;;;;;;;;;;;;;;;;;;;;;;;;;;;;;;"1249";"2014-09-26 15:48:33.306";"NST_correctLoc";"21";"0";"FINISHED";"LEFT";"success";"417";"0";"2014-09-26 15:48:32.056";"3";;;;;;;;;;;;;;;;;;;;;;;;;;;;;;;;;;;;;;;;;;;;;
"KLHR1";"1995";;"Windows 7";"Rachel's Experiment (D.T.)";"1.0";"2";"1";"1";"2";"1";"1";"2014-09-26 15:43:29.345";"2014-09-26 15:58:10.285";"1";"0";"1";"56";"55";"module.training_block2.exec-7590.GoNoGo2";;;;;;;;;;;;;;;;;;;;;;;;;;;;;;;;;;;"1249";"2014-09-26 15:48:35.837";"NST_correctLoc";"18";"0";"FINISHED";"LEFT";"success";"387";"0";"2014-09-26 15:48:34.587";"3";;;;;;;;;;;;;;;;;;;;;;;;;;;;;;;;;;;;;;;;;;;;;
"KLHR1";"1995";;"Windows 7";"Rachel's Experiment (D.T.)";"1.0";"2";"1";"1";"2";"1";"1";"2014-09-26 15:43:29.345";"2014-09-26 15:58:10.285";"1";"0";"1";"57";"56";"module.training_block2.exec-7590.GoNoGo2";;;;;;;;;;;;;;;;;;;;;;;;;;;;;;;;;;;"1249";"2014-09-26 15:48:38.369";"ST_correctStop";"28";"0";"FINISHED";"NONE";"success";"0";"1";"2014-09-26 15:48:37.119";"3";;;;;;;;;;;;;;;;;;;;;;;;;;;;;;;;;;;;;;;;;;;;;
"KLHR1";"1995";;"Windows 7";"Rachel's Experiment (D.T.)";"1.0";"2";"1";"1";"2";"1";"1";"2014-09-26 15:43:29.345";"2014-09-26 15:58:10.285";"1";"0";"1";"58";"57";"module.training_block2.exec-7590.GoNoGo2";;;;;;;;;;;;;;;;;;;;;;;;;;;;;;;;;;;"1249";"2014-09-26 15:48:40.900";"ST_correctStop";"3";"1";"FINISHED";"NONE";"success";"0";"1";"2014-09-26 15:48:39.650";"1";;;;;;;;;;;;;;;;;;;;;;;;;;;;;;;;;;;;;;;;;;;;;
"KLHR1";"1995";;"Windows 7";"Rachel's Experiment (D.T.)";"1.0";"2";"1";"1";"2";"1";"1";"2014-09-26 15:43:29.345";"2014-09-26 15:58:10.285";"1";"0";"1";"59";"58";"module.training_block2.exec-7590.GoNoGo2";;;;;;;;;;;;;;;;;;;;;;;;;;;;;;;;;;;"1249";"2014-09-26 15:48:43.432";"NST_correctLoc";"15";"1";"FINISHED";"RIGHT";"success";"518";"0";"2014-09-26 15:48:42.182";"2";;;;;;;;;;;;;;;;;;;;;;;;;;;;;;;;;;;;;;;;;;;;;
"KLHR1";"1995";;"Windows 7";"Rachel's Experiment (D.T.)";"1.0";"2";"1";"1";"2";"1";"1";"2014-09-26 15:43:29.345";"2014-09-26 15:58:10.285";"1";"0";"1";"60";"59";"module.training_block2.exec-7590.GoNoGo2";;;;;;;;;;;;;;;;;;;;;;;;;;;;;;;;;;;"1249";"2014-09-26 15:48:45.964";"NST_correctLoc";"9";"0";"FINISHED";"LEFT";"success";"430";"0";"2014-09-26 15:48:44.714";"2";;;;;;;;;;;;;;;;;;;;;;;;;;;;;;;;;;;;;;;;;;;;;
"KLHR1";"1995";;"Windows 7";"Rachel's Experiment (D.T.)";"1.0";"2";"1";"1";"2";"1";"1";"2014-09-26 15:43:29.345";"2014-09-26 15:58:10.285";"1";"0";"1";"61";"60";"module.training_block2.exec-7590.GoNoGo2";;;;;;;;;;;;;;;;;;;;;;;;;;;;;;;;;;;"1250";"2014-09-26 15:48:48.497";"ST_correctStop";"0";"1";"FINISHED";"NONE";"success";"0";"1";"2014-09-26 15:48:47.247";"1";;;;;;;;;;;;;;;;;;;;;;;;;;;;;;;;;;;;;;;;;;;;;
"KLHR1";"1995";;"Windows 7";"Rachel's Experiment (D.T.)";"1.0";"2";"1";"1";"2";"1";"1";"2014-09-26 15:43:29.345";"2014-09-26 15:58:10.285";"1";"0";"1";"62";"61";"module.training_block2.exec-7590.GoNoGo2";;;;;;;;;;;;;;;;;;;;;;;;;;;;;;;;;;;"1250";"2014-09-26 15:48:51.025";"ST_correctStop";"7";"1";"FINISHED";"NONE";"success";"0";"1";"2014-09-26 15:48:49.775";"1";;;;;;;;;;;;;;;;;;;;;;;;;;;;;;;;;;;;;;;;;;;;;
"KLHR1";"1995";;"Windows 7";"Rachel's Experiment (D.T.)";"1.0";"2";"1";"1";"2";"1";"1";"2014-09-26 15:43:29.345";"2014-09-26 15:58:10.285";"1";"0";"1";"63";"62";"module.training_block2.exec-7590.GoNoGo2";;;;;;;;;;;;;;;;;;;;;;;;;;;;;;;;;;;"1250";"2014-09-26 15:48:53.555";"NST_correctLoc";"32";"0";"FINISHED";"LEFT";"success";"413";"0";"2014-09-26 15:48:52.305";"3";;;;;;;;;;;;;;;;;;;;;;;;;;;;;;;;;;;;;;;;;;;;;
"KLHR1";"1995";;"Windows 7";"Rachel's Experiment (D.T.)";"1.0";"2";"1";"1";"2";"1";"1";"2014-09-26 15:43:29.345";"2014-09-26 15:58:10.285";"1";"0";"1";"64";"63";"module.training_block2.exec-7590.GoNoGo2";;;;;;;;;;;;;;;;;;;;;;;;;;;;;;;;;;;"1250";"2014-09-26 15:48:56.085";"NST_correctLoc";"13";"0";"FINISHED";"LEFT";"success";"393";"0";"2014-09-26 15:48:54.834";"2";;;;;;;;;;;;;;;;;;;;;;;;;;;;;;;;;;;;;;;;;;;;;
"KLHR1";"1995";;"Windows 7";"Rachel's Experiment (D.T.)";"1.0";"2";"1";"1";"2";"1";"1";"2014-09-26 15:43:29.345";"2014-09-26 15:58:10.285";"1";"0";"1";"65";"64";"module.training_block2.exec-7590.GoNoGo2";;;;;;;;;;;;;;;;;;;;;;;;;;;;;;;;;;;"1250";"2014-09-26 15:48:58.615";"ST_correctStop";"2";"1";"FINISHED";"NONE";"success";"0";"1";"2014-09-26 15:48:57.364";"1";;;;;;;;;;;;;;;;;;;;;;;;;;;;;;;;;;;;;;;;;;;;;
"KLHR1";"1995";;"Windows 7";"Rachel's Experiment (D.T.)";"1.0";"2";"1";"1";"2";"1";"1";"2014-09-26 15:43:29.345";"2014-09-26 15:58:10.285";"1";"0";"1";"66";"65";"module.training_block2.exec-7590.GoNoGo2";;;;;;;;;;;;;;;;;;;;;;;;;;;;;;;;;;;"1250";"2014-09-26 15:49:01.145";"ST_correctStop";"23";"1";"FINISHED";"NONE";"success";"0";"1";"2014-09-26 15:48:59.895";"3";;;;;;;;;;;;;;;;;;;;;;;;;;;;;;;;;;;;;;;;;;;;;
"KLHR1";"1995";;"Windows 7";"Rachel's Experiment (D.T.)";"1.0";"2";"1";"1";"2";"1";"1";"2014-09-26 15:43:29.345";"2014-09-26 15:58:10.285";"1";"0";"1";"67";"66";"module.training_block2.exec-7590.GoNoGo2";;;;;;;;;;;;;;;;;;;;;;;;;;;;;;;;;;;"1250";"2014-09-26 15:49:03.681";"ST_correctStop";"31";"0";"FINISHED";"NONE";"success";"0";"1";"2014-09-26 15:49:02.431";"3";;;;;;;;;;;;;;;;;;;;;;;;;;;;;;;;;;;;;;;;;;;;;
"KLHR1";"1995";;"Windows 7";"Rachel's Experiment (D.T.)";"1.0";"2";"1";"1";"2";"1";"1";"2014-09-26 15:43:29.345";"2014-09-26 15:58:10.285";"1";"0";"1";"68";"67";"module.training_block2.exec-7590.GoNoGo2";;;;;;;;;;;;;;;;;;;;;;;;;;;;;;;;;;;"1250";"2014-09-26 15:49:06.214";"ST_correctStop";"24";"0";"FINISHED";"NONE";"success";"0";"1";"2014-09-26 15:49:04.964";"3";;;;;;;;;;;;;;;;;;;;;;;;;;;;;;;;;;;;;;;;;;;;;
"KLHR1";"1995";;"Windows 7";"Rachel's Experiment (D.T.)";"1.0";"2";"1";"1";"2";"1";"1";"2014-09-26 15:43:29.345";"2014-09-26 15:58:10.285";"1";"0";"1";"69";"68";"module.training_block2.exec-7590.GoNoGo2";;;;;;;;;;;;;;;;;;;;;;;;;;;;;;;;;;;"1250";"2014-09-26 15:49:08.746";"ST_correctStop";"8";"1";"FINISHED";"NONE";"success";"0";"1";"2014-09-26 15:49:07.496";"1";;;;;;;;;;;;;;;;;;;;;;;;;;;;;;;;;;;;;;;;;;;;;
"KLHR1";"1995";;"Windows 7";"Rachel's Experiment (D.T.)";"1.0";"2";"1";"1";"2";"1";"1";"2014-09-26 15:43:29.345";"2014-09-26 15:58:10.285";"1";"0";"1";"70";"69";"module.training_block2.exec-7590.GoNoGo2";;;;;;;;;;;;;;;;;;;;;;;;;;;;;;;;;;;"1249";"2014-09-26 15:49:11.275";"NST_correctLoc";"14";"1";"FINISHED";"RIGHT";"success";"451";"0";"2014-09-26 15:49:10.025";"2";;;;;;;;;;;;;;;;;;;;;;;;;;;;;;;;;;;;;;;;;;;;;
"KLHR1";"1995";;"Windows 7";"Rachel's Experiment (D.T.)";"1.0";"2";"1";"1";"2";"1";"1";"2014-09-26 15:43:29.345";"2014-09-26 15:58:10.285";"1";"0";"1";"71";"70";"module.training_block2.exec-7590.GoNoGo2";;;;;;;;;;;;;;;;;;;;;;;;;;;;;;;;;;;"1250";"2014-09-26 15:49:13.803";"ST_correctStop";"4";"0";"FINISHED";"NONE";"success";"0";"1";"2014-09-26 15:49:12.553";"1";;;;;;;;;;;;;;;;;;;;;;;;;;;;;;;;;;;;;;;;;;;;;
"KLHR1";"1995";;"Windows 7";"Rachel's Experiment (D.T.)";"1.0";"2";"1";"1";"2";"1";"1";"2014-09-26 15:43:29.345";"2014-09-26 15:58:10.285";"1";"0";"1";"72";"71";"module.training_block2.exec-7590.GoNoGo2";;;;;;;;;;;;;;;;;;;;;;;;;;;;;;;;;;;"1249";"2014-09-26 15:49:16.335";"NST_correctLoc";"11";"0";"FINISHED";"LEFT";"success";"594";"0";"2014-09-26 15:49:15.085";"2";;;;;;;;;;;;;;;;;;;;;;;;;;;;;;;;;;;;;;;;;;;;;
"KLHR1";"1995";;"Windows 7";"Rachel's Experiment (D.T.)";"1.0";"2";"1";"1";"2";"1";"1";"2014-09-26 15:43:29.345";"2014-09-26 15:58:10.285";"1";"0";"1";"73";"72";"module.training_block2.exec-7590.GoNoGo2";;;;;;;;;;;;;;;;;;;;;;;;;;;;;;;;;;;"1249";"2014-09-26 15:49:18.868";"ST_correctStop";"27";"0";"FINISHED";"NONE";"success";"0";"1";"2014-09-26 15:49:17.618";"3";;;;;;;;;;;;;;;;;;;;;;;;;;;;;;;;;;;;;;;;;;;;;
"KLHR1";"1995";;"Windows 7";"Rachel's Experiment (D.T.)";"1.0";"2";"1";"1";"2";"1";"1";"2014-09-26 15:43:29.345";"2014-09-26 15:58:10.285";"1";"0";"1";"74";"73";"module.training_block2.exec-7590.GoNoGo2";;;;;;;;;;;;;;;;;;;;;;;;;;;;;;;;;;;"1249";"2014-09-26 15:49:21.398";"ST_correctStop";"1";"0";"FINISHED";"NONE";"success";"0";"1";"2014-09-26 15:49:20.148";"1";;;;;;;;;;;;;;;;;;;;;;;;;;;;;;;;;;;;;;;;;;;;;
"KLHR1";"1995";;"Windows 7";"Rachel's Experiment (D.T.)";"1.0";"2";"1";"1";"2";"1";"1";"2014-09-26 15:43:29.345";"2014-09-26 15:58:10.285";"1";"0";"1";"75";"74";"module.training_block2.exec-7590.GoNoGo2";;;;;;;;;;;;;;;;;;;;;;;;;;;;;;;;;;;"1249";"2014-09-26 15:49:23.929";"ST_correctStop";"35";"0";"FINISHED";"NONE";"success";"0";"1";"2014-09-26 15:49:22.679";"3";;;;;;;;;;;;;;;;;;;;;;;;;;;;;;;;;;;;;;;;;;;;;
"KLHR1";"1995";;"Windows 7";"Rachel's Experiment (D.T.)";"1.0";"2";"1";"1";"2";"1";"1";"2014-09-26 15:43:29.345";"2014-09-26 15:58:10.285";"1";"0";"1";"76";"75";"module.training_block2.exec-7590.GoNoGo2";;;;;;;;;;;;;;;;;;;;;;;;;;;;;;;;;;;"1250";"2014-09-26 15:49:26.455";"NST_correctLoc";"17";"1";"FINISHED";"RIGHT";"success";"517";"0";"2014-09-26 15:49:25.205";"2";;;;;;;;;;;;;;;;;;;;;;;;;;;;;;;;;;;;;;;;;;;;;
"KLHR1";"1995";;"Windows 7";"Rachel's Experiment (D.T.)";"1.0";"2";"1";"1";"2";"1";"1";"2014-09-26 15:43:29.345";"2014-09-26 15:58:10.285";"1";"0";"1";"77";"76";"module.training_block2.exec-7590.GoNoGo2";;;;;;;;;;;;;;;;;;;;;;;;;;;;;;;;;;;"1249";"2014-09-26 15:49:28.986";"ST_correctStop";"6";"1";"FINISHED";"NONE";"success";"0";"1";"2014-09-26 15:49:27.735";"1";;;;;;;;;;;;;;;;;;;;;;;;;;;;;;;;;;;;;;;;;;;;;
"KLHR1";"1995";;"Windows 7";"Rachel's Experiment (D.T.)";"1.0";"2";"1";"1";"2";"1";"1";"2014-09-26 15:43:29.345";"2014-09-26 15:58:10.285";"1";"0";"1";"78";"77";"module.training_block2.exec-7590.GoNoGo2";;;;;;;;;;;;;;;;;;;;;;;;;;;;;;;;;;;"1249";"2014-09-26 15:49:31.512";"ST_correctStop";"29";"0";"FINISHED";"NONE";"success";"0";"1";"2014-09-26 15:49:30.262";"3";;;;;;;;;;;;;;;;;;;;;;;;;;;;;;;;;;;;;;;;;;;;;
"KLHR1";"1995";;"Windows 7";"Rachel's Experiment (D.T.)";"1.0";"2";"1";"1";"2";"1";"1";"2014-09-26 15:43:29.345";"2014-09-26 15:58:10.285";"1";"0";"1";"79";"78";"module.training_block2.exec-7590.GoNoGo2";;;;;;;;;;;;;;;;;;;;;;;;;;;;;;;;;;;"1250";"2014-09-26 15:49:34.040";"NST_correctLoc";"19";"1";"FINISHED";"RIGHT";"success";"409";"0";"2014-09-26 15:49:32.790";"3";;;;;;;;;;;;;;;;;;;;;;;;;;;;;;;;;;;;;;;;;;;;;
"KLHR1";"1995";;"Windows 7";"Rachel's Experiment (D.T.)";"1.0";"2";"1";"1";"2";"1";"1";"2014-09-26 15:43:29.345";"2014-09-26 15:58:10.285";"1";"0";"1";"80";"79";"module.training_block2.exec-7590.GoNoGo2";;;;;;;;;;;;;;;;;;;;;;;;;;;;;;;;;;;"1250";"2014-09-26 15:49:36.566";"NST_correctLoc";"30";"1";"FINISHED";"RIGHT";"success";"495";"0";"2014-09-26 15:49:35.315";"3";;;;;;;;;;;;;;;;;;;;;;;;;;;;;;;;;;;;;;;;;;;;;
"KLHR1";"1995";;"Windows 7";"Rachel's Experiment (D.T.)";"1.0";"2";"1";"1";"2";"1";"1";"2014-09-26 15:43:29.345";"2014-09-26 15:58:10.285";"1";"0";"1";"81";"80";"module.training_block2.exec-7590.GoNoGo2";;;;;;;;;;;;;;;;;;;;;;;;;;;;;;;;;;;"1249";"2014-09-26 15:49:39.092";"NST_correctLoc";"16";"1";"FINISHED";"RIGHT";"success";"450";"0";"2014-09-26 15:49:37.842";"2";;;;;;;;;;;;;;;;;;;;;;;;;;;;;;;;;;;;;;;;;;;;;
"KLHR1";"1995";;"Windows 7";"Rachel's Experiment (D.T.)";"1.0";"2";"1";"1";"2";"1";"1";"2014-09-26 15:43:29.345";"2014-09-26 15:58:10.285";"1";"0";"1";"82";"81";"module.training_block2.exec-7590.GoNoGo2";;;;;;;;;;;;;;;;;;;;;;;;;;;;;;;;;;;"1250";"2014-09-26 15:49:41.623";"NST_correctLoc";"33";"1";"FINISHED";"RIGHT";"success";"425";"0";"2014-09-26 15:49:40.373";"3";;;;;;;;;;;;;;;;;;;;;;;;;;;;;;;;;;;;;;;;;;;;;
"KLHR1";"1995";;"Windows 7";"Rachel's Experiment (D.T.)";"1.0";"2";"1";"1";"2";"1";"1";"2014-09-26 15:43:29.345";"2014-09-26 15:58:10.285";"1";"0";"1";"83";"82";"module.training_block2.exec-7590.GoNoGo2";;;;;;;;;;;;;;;;;;;;;;;;;;;;;;;;;;;"1250";"2014-09-26 15:49:44.149";"NST_correctLoc";"12";"1";"FINISHED";"RIGHT";"success";"433";"0";"2014-09-26 15:49:42.899";"2";;;;;;;;;;;;;;;;;;;;;;;;;;;;;;;;;;;;;;;;;;;;;
"KLHR1";"1995";;"Windows 7";"Rachel's Experiment (D.T.)";"1.0";"2";"1";"1";"2";"1";"1";"2014-09-26 15:43:29.345";"2014-09-26 15:58:10.285";"1";"0";"1";"84";"83";"module.training_block2.exec-7590.GoNoGo2";;;;;;;;;;;;;;;;;;;;;;;;;;;;;;;;;;;"1249";"2014-09-26 15:49:46.693";"ST_correctStop";"5";"1";"FINISHED";"NONE";"success";"0";"1";"2014-09-26 15:49:45.442";"1";;;;;;;;;;;;;;;;;;;;;;;;;;;;;;;;;;;;;;;;;;;;;
"KLHR1";"1995";;"Windows 7";"Rachel's Experiment (D.T.)";"1.0";"2";"1";"1";"2";"1";"1";"2014-09-26 15:43:29.345";"2014-09-26 15:58:10.285";"1";"0";"1";"85";"84";"module.training_block2.exec-7590.GoNoGo2";;;;;;;;;;;;;;;;;;;;;;;;;;;;;;;;;;;"1250";"2014-09-26 15:49:49.224";"NST_correctLoc";"20";"1";"FINISHED";"RIGHT";"success";"467";"0";"2014-09-26 15:49:47.974";"3";;;;;;;;;;;;;;;;;;;;;;;;;;;;;;;;;;;;;;;;;;;;;
"KLHR1";"1995";;"Windows 7";"Rachel's Experiment (D.T.)";"1.0";"2";"1";"1";"2";"1";"1";"2014-09-26 15:43:29.345";"2014-09-26 15:58:10.285";"1";"0";"1";"86";"85";"module.training_block2.exec-7590.GoNoGo2";;;;;;;;;;;;;;;;;;;;;;;;;;;;;;;;;;;"1250";"2014-09-26 15:49:51.753";"ST_correctStop";"26";"0";"FINISHED";"NONE";"success";"0";"1";"2014-09-26 15:49:50.503";"3";;;;;;;;;;;;;;;;;;;;;;;;;;;;;;;;;;;;;;;;;;;;;
"KLHR1";"1995";;"Windows 7";"Rachel's Experiment (D.T.)";"1.0";"2";"1";"1";"2";"1";"1";"2014-09-26 15:43:29.345";"2014-09-26 15:58:10.285";"1";"0";"1";"87";"86";"module.training_block2.exec-7590.GoNoGo2";;;;;;;;;;;;;;;;;;;;;;;;;;;;;;;;;;;"1249";"2014-09-26 15:49:54.276";"NST_correctLoc";"10";"1";"FINISHED";"RIGHT";"success";"473";"0";"2014-09-26 15:49:53.026";"2";;;;;;;;;;;;;;;;;;;;;;;;;;;;;;;;;;;;;;;;;;;;;
"KLHR1";"1995";;"Windows 7";"Rachel's Experiment (D.T.)";"1.0";"2";"1";"1";"2";"1";"1";"2014-09-26 15:43:29.345";"2014-09-26 15:58:10.285";"1";"0";"1";"88";"87";"module.training_block3.exec-5314.GoNoGo3";;;;;;;;;;;;;;;;;;;;;;;;;;;;;;;;;;;;;;;;;;;;;;;"1249";"2014-09-26 15:50:07.079";"NST_correctLoc";"35";"0";"FINISHED";"LEFT";"success";"408";"0";"2014-09-26 15:50:05.829";"3";;;;;;;;;;;;;;;;;;;;;;;;;;;;;;;;;
"KLHR1";"1995";;"Windows 7";"Rachel's Experiment (D.T.)";"1.0";"2";"1";"1";"2";"1";"1";"2014-09-26 15:43:29.345";"2014-09-26 15:58:10.285";"1";"0";"1";"89";"88";"module.training_block3.exec-5314.GoNoGo3";;;;;;;;;;;;;;;;;;;;;;;;;;;;;;;;;;;;;;;;;;;;;;;"1249";"2014-09-26 15:50:09.602";"NST_correctLoc";"9";"1";"FINISHED";"RIGHT";"success";"410";"0";"2014-09-26 15:50:08.352";"2";;;;;;;;;;;;;;;;;;;;;;;;;;;;;;;;;
"KLHR1";"1995";;"Windows 7";"Rachel's Experiment (D.T.)";"1.0";"2";"1";"1";"2";"1";"1";"2014-09-26 15:43:29.345";"2014-09-26 15:58:10.285";"1";"0";"1";"90";"89";"module.training_block3.exec-5314.GoNoGo3";;;;;;;;;;;;;;;;;;;;;;;;;;;;;;;;;;;;;;;;;;;;;;;"1250";"2014-09-26 15:50:12.126";"ST_correctStop";"21";"0";"FINISHED";"NONE";"success";"0";"1";"2014-09-26 15:50:10.876";"3";;;;;;;;;;;;;;;;;;;;;;;;;;;;;;;;;
"KLHR1";"1995";;"Windows 7";"Rachel's Experiment (D.T.)";"1.0";"2";"1";"1";"2";"1";"1";"2014-09-26 15:43:29.345";"2014-09-26 15:58:10.285";"1";"0";"1";"91";"90";"module.training_block3.exec-5314.GoNoGo3";;;;;;;;;;;;;;;;;;;;;;;;;;;;;;;;;;;;;;;;;;;;;;;"1249";"2014-09-26 15:50:14.648";"NST_correctLoc";"11";"0";"FINISHED";"LEFT";"success";"440";"0";"2014-09-26 15:50:13.398";"2";;;;;;;;;;;;;;;;;;;;;;;;;;;;;;;;;
"KLHR1";"1995";;"Windows 7";"Rachel's Experiment (D.T.)";"1.0";"2";"1";"1";"2";"1";"1";"2014-09-26 15:43:29.345";"2014-09-26 15:58:10.285";"1";"0";"1";"92";"91";"module.training_block3.exec-5314.GoNoGo3";;;;;;;;;;;;;;;;;;;;;;;;;;;;;;;;;;;;;;;;;;;;;;;"1249";"2014-09-26 15:50:17.170";"NST_correctLoc";"32";"0";"FINISHED";"LEFT";"success";"410";"0";"2014-09-26 15:50:15.920";"3";;;;;;;;;;;;;;;;;;;;;;;;;;;;;;;;;
"KLHR1";"1995";;"Windows 7";"Rachel's Experiment (D.T.)";"1.0";"2";"1";"1";"2";"1";"1";"2014-09-26 15:43:29.345";"2014-09-26 15:58:10.285";"1";"0";"1";"93";"92";"module.training_block3.exec-5314.GoNoGo3";;;;;;;;;;;;;;;;;;;;;;;;;;;;;;;;;;;;;;;;;;;;;;;"1249";"2014-09-26 15:50:19.692";"NST_correctLoc";"15";"1";"FINISHED";"RIGHT";"success";"431";"0";"2014-09-26 15:50:18.442";"2";;;;;;;;;;;;;;;;;;;;;;;;;;;;;;;;;
"KLHR1";"1995";;"Windows 7";"Rachel's Experiment (D.T.)";"1.0";"2";"1";"1";"2";"1";"1";"2014-09-26 15:43:29.345";"2014-09-26 15:58:10.285";"1";"0";"1";"94";"93";"module.training_block3.exec-5314.GoNoGo3";;;;;;;;;;;;;;;;;;;;;;;;;;;;;;;;;;;;;;;;;;;;;;;"1249";"2014-09-26 15:50:22.215";"ST_correctStop";"5";"1";"FINISHED";"NONE";"success";"0";"1";"2014-09-26 15:50:20.964";"1";;;;;;;;;;;;;;;;;;;;;;;;;;;;;;;;;
"KLHR1";"1995";;"Windows 7";"Rachel's Experiment (D.T.)";"1.0";"2";"1";"1";"2";"1";"1";"2014-09-26 15:43:29.345";"2014-09-26 15:58:10.285";"1";"0";"1";"95";"94";"module.training_block3.exec-5314.GoNoGo3";;;;;;;;;;;;;;;;;;;;;;;;;;;;;;;;;;;;;;;;;;;;;;;"1249";"2014-09-26 15:50:24.738";"ST_correctStop";"3";"1";"FINISHED";"NONE";"success";"0";"1";"2014-09-26 15:50:23.488";"1";;;;;;;;;;;;;;;;;;;;;;;;;;;;;;;;;
"KLHR1";"1995";;"Windows 7";"Rachel's Experiment (D.T.)";"1.0";"2";"1";"1";"2";"1";"1";"2014-09-26 15:43:29.345";"2014-09-26 15:58:10.285";"1";"0";"1";"96";"95";"module.training_block3.exec-5314.GoNoGo3";;;;;;;;;;;;;;;;;;;;;;;;;;;;;;;;;;;;;;;;;;;;;;;"1249";"2014-09-26 15:50:27.259";"NST_correctLoc";"30";"1";"FINISHED";"RIGHT";"success";"471";"0";"2014-09-26 15:50:26.009";"3";;;;;;;;;;;;;;;;;;;;;;;;;;;;;;;;;
"KLHR1";"1995";;"Windows 7";"Rachel's Experiment (D.T.)";"1.0";"2";"1";"1";"2";"1";"1";"2014-09-26 15:43:29.345";"2014-09-26 15:58:10.285";"1";"0";"1";"97";"96";"module.training_block3.exec-5314.GoNoGo3";;;;;;;;;;;;;;;;;;;;;;;;;;;;;;;;;;;;;;;;;;;;;;;"1249";"2014-09-26 15:50:29.782";"ST_correctStop";"1";"0";"FINISHED";"NONE";"success";"0";"1";"2014-09-26 15:50:28.532";"1";;;;;;;;;;;;;;;;;;;;;;;;;;;;;;;;;
"KLHR1";"1995";;"Windows 7";"Rachel's Experiment (D.T.)";"1.0";"2";"1";"1";"2";"1";"1";"2014-09-26 15:43:29.345";"2014-09-26 15:58:10.285";"1";"0";"1";"98";"97";"module.training_block3.exec-5314.GoNoGo3";;;;;;;;;;;;;;;;;;;;;;;;;;;;;;;;;;;;;;;;;;;;;;;"1249";"2014-09-26 15:50:32.305";"ST_correctStop";"26";"0";"FINISHED";"NONE";"success";"0";"1";"2014-09-26 15:50:31.055";"3";;;;;;;;;;;;;;;;;;;;;;;;;;;;;;;;;
"KLHR1";"1995";;"Windows 7";"Rachel's Experiment (D.T.)";"1.0";"2";"1";"1";"2";"1";"1";"2014-09-26 15:43:29.345";"2014-09-26 15:58:10.285";"1";"0";"1";"99";"98";"module.training_block3.exec-5314.GoNoGo3";;;;;;;;;;;;;;;;;;;;;;;;;;;;;;;;;;;;;;;;;;;;;;;"1249";"2014-09-26 15:50:34.828";"NST_correctLoc";"17";"1";"FINISHED";"RIGHT";"success";"491";"0";"2014-09-26 15:50:33.578";"2";;;;;;;;;;;;;;;;;;;;;;;;;;;;;;;;;
"KLHR1";"1995";;"Windows 7";"Rachel's Experiment (D.T.)";"1.0";"2";"1";"1";"2";"1";"1";"2014-09-26 15:43:29.345";"2014-09-26 15:58:10.285";"1";"0";"1";"100";"99";"module.training_block3.exec-5314.GoNoGo3";;;;;;;;;;;;;;;;;;;;;;;;;;;;;;;;;;;;;;;;;;;;;;;"1249";"2014-09-26 15:50:37.351";"ST_correctStop";"18";"0";"FINISHED";"NONE";"success";"0";"1";"2014-09-26 15:50:36.101";"3";;;;;;;;;;;;;;;;;;;;;;;;;;;;;;;;;
"KLHR1";"1995";;"Windows 7";"Rachel's Experiment (D.T.)";"1.0";"2";"1";"1";"2";"1";"1";"2014-09-26 15:43:29.345";"2014-09-26 15:58:10.285";"1";"0";"1";"101";"100";"module.training_block3.exec-5314.GoNoGo3";;;;;;;;;;;;;;;;;;;;;;;;;;;;;;;;;;;;;;;;;;;;;;;"1249";"2014-09-26 15:50:39.873";"ST_correctStop";"22";"1";"FINISHED";"NONE";"success";"0";"1";"2014-09-26 15:50:38.622";"3";;;;;;;;;;;;;;;;;;;;;;;;;;;;;;;;;
"KLHR1";"1995";;"Windows 7";"Rachel's Experiment (D.T.)";"1.0";"2";"1";"1";"2";"1";"1";"2014-09-26 15:43:29.345";"2014-09-26 15:58:10.285";"1";"0";"1";"102";"101";"module.training_block3.exec-5314.GoNoGo3";;;;;;;;;;;;;;;;;;;;;;;;;;;;;;;;;;;;;;;;;;;;;;;"1249";"2014-09-26 15:50:42.396";"ST_correctStop";"23";"1";"FINISHED";"NONE";"success";"0";"1";"2014-09-26 15:50:41.146";"3";;;;;;;;;;;;;;;;;;;;;;;;;;;;;;;;;
"KLHR1";"1995";;"Windows 7";"Rachel's Experiment (D.T.)";"1.0";"2";"1";"1";"2";"1";"1";"2014-09-26 15:43:29.345";"2014-09-26 15:58:10.285";"1";"0";"1";"103";"102";"module.training_block3.exec-5314.GoNoGo3";;;;;;;;;;;;;;;;;;;;;;;;;;;;;;;;;;;;;;;;;;;;;;;"1250";"2014-09-26 15:50:44.920";"ST_correctStop";"19";"1";"FINISHED";"NONE";"success";"0";"1";"2014-09-26 15:50:43.670";"3";;;;;;;;;;;;;;;;;;;;;;;;;;;;;;;;;
"KLHR1";"1995";;"Windows 7";"Rachel's Experiment (D.T.)";"1.0";"2";"1";"1";"2";"1";"1";"2014-09-26 15:43:29.345";"2014-09-26 15:58:10.285";"1";"0";"1";"104";"103";"module.training_block3.exec-5314.GoNoGo3";;;;;;;;;;;;;;;;;;;;;;;;;;;;;;;;;;;;;;;;;;;;;;;"1249";"2014-09-26 15:50:47.444";"ST_correctStop";"4";"1";"FINISHED";"NONE";"success";"0";"1";"2014-09-26 15:50:46.194";"1";;;;;;;;;;;;;;;;;;;;;;;;;;;;;;;;;
"KLHR1";"1995";;"Windows 7";"Rachel's Experiment (D.T.)";"1.0";"2";"1";"1";"2";"1";"1";"2014-09-26 15:43:29.345";"2014-09-26 15:58:10.285";"1";"0";"1";"105";"104";"module.training_block3.exec-5314.GoNoGo3";;;;;;;;;;;;;;;;;;;;;;;;;;;;;;;;;;;;;;;;;;;;;;;"1249";"2014-09-26 15:50:49.966";"NST_correctLoc";"28";"1";"FINISHED";"RIGHT";"success";"465";"0";"2014-09-26 15:50:48.716";"3";;;;;;;;;;;;;;;;;;;;;;;;;;;;;;;;;
"KLHR1";"1995";;"Windows 7";"Rachel's Experiment (D.T.)";"1.0";"2";"1";"1";"2";"1";"1";"2014-09-26 15:43:29.345";"2014-09-26 15:58:10.285";"1";"0";"1";"106";"105";"module.training_block3.exec-5314.GoNoGo3";;;;;;;;;;;;;;;;;;;;;;;;;;;;;;;;;;;;;;;;;;;;;;;"1249";"2014-09-26 15:50:52.493";"ST_correctStop";"31";"0";"FINISHED";"NONE";"success";"0";"1";"2014-09-26 15:50:51.243";"3";;;;;;;;;;;;;;;;;;;;;;;;;;;;;;;;;
"KLHR1";"1995";;"Windows 7";"Rachel's Experiment (D.T.)";"1.0";"2";"1";"1";"2";"1";"1";"2014-09-26 15:43:29.345";"2014-09-26 15:58:10.285";"1";"0";"1";"107";"106";"module.training_block3.exec-5314.GoNoGo3";;;;;;;;;;;;;;;;;;;;;;;;;;;;;;;;;;;;;;;;;;;;;;;"1249";"2014-09-26 15:50:55.014";"ST_correctStop";"20";"1";"FINISHED";"NONE";"success";"0";"1";"2014-09-26 15:50:53.764";"3";;;;;;;;;;;;;;;;;;;;;;;;;;;;;;;;;
"KLHR1";"1995";;"Windows 7";"Rachel's Experiment (D.T.)";"1.0";"2";"1";"1";"2";"1";"1";"2014-09-26 15:43:29.345";"2014-09-26 15:58:10.285";"1";"0";"1";"108";"107";"module.training_block3.exec-5314.GoNoGo3";;;;;;;;;;;;;;;;;;;;;;;;;;;;;;;;;;;;;;;;;;;;;;;"1249";"2014-09-26 15:50:57.537";"ST_correctStop";"2";"1";"FINISHED";"NONE";"success";"0";"1";"2014-09-26 15:50:56.286";"1";;;;;;;;;;;;;;;;;;;;;;;;;;;;;;;;;
"KLHR1";"1995";;"Windows 7";"Rachel's Experiment (D.T.)";"1.0";"2";"1";"1";"2";"1";"1";"2014-09-26 15:43:29.345";"2014-09-26 15:58:10.285";"1";"0";"1";"109";"108";"module.training_block3.exec-5314.GoNoGo3";;;;;;;;;;;;;;;;;;;;;;;;;;;;;;;;;;;;;;;;;;;;;;;"1249";"2014-09-26 15:51:00.059";"NST_correctLoc";"34";"0";"FINISHED";"LEFT";"success";"405";"0";"2014-09-26 15:50:58.809";"3";;;;;;;;;;;;;;;;;;;;;;;;;;;;;;;;;
"KLHR1";"1995";;"Windows 7";"Rachel's Experiment (D.T.)";"1.0";"2";"1";"1";"2";"1";"1";"2014-09-26 15:43:29.345";"2014-09-26 15:58:10.285";"1";"0";"1";"110";"109";"module.training_block3.exec-5314.GoNoGo3";;;;;;;;;;;;;;;;;;;;;;;;;;;;;;;;;;;;;;;;;;;;;;;"1249";"2014-09-26 15:51:02.581";"NST_correctLoc";"16";"1";"FINISHED";"RIGHT";"success";"464";"0";"2014-09-26 15:51:01.331";"2";;;;;;;;;;;;;;;;;;;;;;;;;;;;;;;;;
"KLHR1";"1995";;"Windows 7";"Rachel's Experiment (D.T.)";"1.0";"2";"1";"1";"2";"1";"1";"2014-09-26 15:43:29.345";"2014-09-26 15:58:10.285";"1";"0";"1";"111";"110";"module.training_block3.exec-5314.GoNoGo3";;;;;;;;;;;;;;;;;;;;;;;;;;;;;;;;;;;;;;;;;;;;;;;"1249";"2014-09-26 15:51:05.103";"ST_correctStop";"8";"0";"FINISHED";"NONE";"success";"0";"1";"2014-09-26 15:51:03.853";"1";;;;;;;;;;;;;;;;;;;;;;;;;;;;;;;;;
"KLHR1";"1995";;"Windows 7";"Rachel's Experiment (D.T.)";"1.0";"2";"1";"1";"2";"1";"1";"2014-09-26 15:43:29.345";"2014-09-26 15:58:10.285";"1";"0";"1";"112";"111";"module.training_block3.exec-5314.GoNoGo3";;;;;;;;;;;;;;;;;;;;;;;;;;;;;;;;;;;;;;;;;;;;;;;"1249";"2014-09-26 15:51:07.625";"NST_correctLoc";"29";"1";"FINISHED";"RIGHT";"success";"486";"0";"2014-09-26 15:51:06.375";"3";;;;;;;;;;;;;;;;;;;;;;;;;;;;;;;;;
"KLHR1";"1995";;"Windows 7";"Rachel's Experiment (D.T.)";"1.0";"2";"1";"1";"2";"1";"1";"2014-09-26 15:43:29.345";"2014-09-26 15:58:10.285";"1";"0";"1";"113";"112";"module.training_block3.exec-5314.GoNoGo3";;;;;;;;;;;;;;;;;;;;;;;;;;;;;;;;;;;;;;;;;;;;;;;"1249";"2014-09-26 15:51:10.147";"ST_correctStop";"6";"0";"FINISHED";"NONE";"success";"0";"1";"2014-09-26 15:51:08.897";"1";;;;;;;;;;;;;;;;;;;;;;;;;;;;;;;;;
"KLHR1";"1995";;"Windows 7";"Rachel's Experiment (D.T.)";"1.0";"2";"1";"1";"2";"1";"1";"2014-09-26 15:43:29.345";"2014-09-26 15:58:10.285";"1";"0";"1";"114";"113";"module.training_block3.exec-5314.GoNoGo3";;;;;;;;;;;;;;;;;;;;;;;;;;;;;;;;;;;;;;;;;;;;;;;"1249";"2014-09-26 15:51:12.670";"NST_correctLoc";"14";"1";"FINISHED";"RIGHT";"success";"471";"0";"2014-09-26 15:51:11.420";"2";;;;;;;;;;;;;;;;;;;;;;;;;;;;;;;;;
"KLHR1";"1995";;"Windows 7";"Rachel's Experiment (D.T.)";"1.0";"2";"1";"1";"2";"1";"1";"2014-09-26 15:43:29.345";"2014-09-26 15:58:10.285";"1";"0";"1";"115";"114";"module.training_block3.exec-5314.GoNoGo3";;;;;;;;;;;;;;;;;;;;;;;;;;;;;;;;;;;;;;;;;;;;;;;"1249";"2014-09-26 15:51:15.194";"NST_correctLoc";"33";"0";"FINISHED";"LEFT";"success";"521";"0";"2014-09-26 15:51:13.944";"3";;;;;;;;;;;;;;;;;;;;;;;;;;;;;;;;;
"KLHR1";"1995";;"Windows 7";"Rachel's Experiment (D.T.)";"1.0";"2";"1";"1";"2";"1";"1";"2014-09-26 15:43:29.345";"2014-09-26 15:58:10.285";"1";"0";"1";"116";"115";"module.training_block3.exec-5314.GoNoGo3";;;;;;;;;;;;;;;;;;;;;;;;;;;;;;;;;;;;;;;;;;;;;;;"1249";"2014-09-26 15:51:17.716";"ST_correctStop";"24";"0";"FINISHED";"NONE";"success";"0";"1";"2014-09-26 15:51:16.466";"3";;;;;;;;;;;;;;;;;;;;;;;;;;;;;;;;;
"KLHR1";"1995";;"Windows 7";"Rachel's Experiment (D.T.)";"1.0";"2";"1";"1";"2";"1";"1";"2014-09-26 15:43:29.345";"2014-09-26 15:58:10.285";"1";"0";"1";"117";"116";"module.training_block3.exec-5314.GoNoGo3";;;;;;;;;;;;;;;;;;;;;;;;;;;;;;;;;;;;;;;;;;;;;;;"1249";"2014-09-26 15:51:20.240";"NST_correctLoc";"25";"1";"FINISHED";"RIGHT";"success";"438";"0";"2014-09-26 15:51:18.990";"3";;;;;;;;;;;;;;;;;;;;;;;;;;;;;;;;;
"KLHR1";"1995";;"Windows 7";"Rachel's Experiment (D.T.)";"1.0";"2";"1";"1";"2";"1";"1";"2014-09-26 15:43:29.345";"2014-09-26 15:58:10.285";"1";"0";"1";"118";"117";"module.training_block3.exec-5314.GoNoGo3";;;;;;;;;;;;;;;;;;;;;;;;;;;;;;;;;;;;;;;;;;;;;;;"1249";"2014-09-26 15:51:22.763";"NST_correctLoc";"13";"0";"FINISHED";"LEFT";"success";"469";"0";"2014-09-26 15:51:21.513";"2";;;;;;;;;;;;;;;;;;;;;;;;;;;;;;;;;
"KLHR1";"1995";;"Windows 7";"Rachel's Experiment (D.T.)";"1.0";"2";"1";"1";"2";"1";"1";"2014-09-26 15:43:29.345";"2014-09-26 15:58:10.285";"1";"0";"1";"119";"118";"module.training_block3.exec-5314.GoNoGo3";;;;;;;;;;;;;;;;;;;;;;;;;;;;;;;;;;;;;;;;;;;;;;;"1249";"2014-09-26 15:51:25.287";"NST_correctLoc";"10";"1";"FINISHED";"RIGHT";"success";"369";"0";"2014-09-26 15:51:24.037";"2";;;;;;;;;;;;;;;;;;;;;;;;;;;;;;;;;
"KLHR1";"1995";;"Windows 7";"Rachel's Experiment (D.T.)";"1.0";"2";"1";"1";"2";"1";"1";"2014-09-26 15:43:29.345";"2014-09-26 15:58:10.285";"1";"0";"1";"120";"119";"module.training_block3.exec-5314.GoNoGo3";;;;;;;;;;;;;;;;;;;;;;;;;;;;;;;;;;;;;;;;;;;;;;;"1249";"2014-09-26 15:51:27.810";"NST_correctLoc";"27";"1";"FINISHED";"RIGHT";"success";"425";"0";"2014-09-26 15:51:26.560";"3";;;;;;;;;;;;;;;;;;;;;;;;;;;;;;;;;
"KLHR1";"1995";;"Windows 7";"Rachel's Experiment (D.T.)";"1.0";"2";"1";"1";"2";"1";"1";"2014-09-26 15:43:29.345";"2014-09-26 15:58:10.285";"1";"0";"1";"121";"120";"module.training_block3.exec-5314.GoNoGo3";;;;;;;;;;;;;;;;;;;;;;;;;;;;;;;;;;;;;;;;;;;;;;;"1249";"2014-09-26 15:51:30.335";"ST_correctStop";"7";"1";"FINISHED";"NONE";"success";"0";"1";"2014-09-26 15:51:29.085";"1";;;;;;;;;;;;;;;;;;;;;;;;;;;;;;;;;
"KLHR1";"1995";;"Windows 7";"Rachel's Experiment (D.T.)";"1.0";"2";"1";"1";"2";"1";"1";"2014-09-26 15:43:29.345";"2014-09-26 15:58:10.285";"1";"0";"1";"122";"121";"module.training_block3.exec-5314.GoNoGo3";;;;;;;;;;;;;;;;;;;;;;;;;;;;;;;;;;;;;;;;;;;;;;;"1249";"2014-09-26 15:51:32.862";"NST_correctLoc";"12";"0";"FINISHED";"LEFT";"success";"422";"0";"2014-09-26 15:51:31.612";"2";;;;;;;;;;;;;;;;;;;;;;;;;;;;;;;;;
"KLHR1";"1995";;"Windows 7";"Rachel's Experiment (D.T.)";"1.0";"2";"1";"1";"2";"1";"1";"2014-09-26 15:43:29.345";"2014-09-26 15:58:10.285";"1";"0";"1";"123";"122";"module.training_block3.exec-5314.GoNoGo3";;;;;;;;;;;;;;;;;;;;;;;;;;;;;;;;;;;;;;;;;;;;;;;"1249";"2014-09-26 15:51:35.385";"ST_correctStop";"0";"0";"FINISHED";"NONE";"success";"0";"1";"2014-09-26 15:51:34.135";"1";;;;;;;;;;;;;;;;;;;;;;;;;;;;;;;;;
"KLHR1";"1995";;"Windows 7";"Rachel's Experiment (D.T.)";"1.0";"2";"1";"1";"2";"1";"1";"2014-09-26 15:43:29.345";"2014-09-26 15:58:10.285";"1";"0";"1";"124";"123";"module.training_block4.exec-3919.GoNoGo4";;;;;;;;;;;;;;;;;;;;;;;;;;;;;;;;;;;;;;;;;;;;;;;;;;;;;;;;;;;"1249";"2014-09-26 15:51:46.275";"ST_correctStop";"25";"0";"FINISHED";"NONE";"success";"0";"1";"2014-09-26 15:51:45.025";"3";;;;;;;;;;;;;;;;;;;;;
"KLHR1";"1995";;"Windows 7";"Rachel's Experiment (D.T.)";"1.0";"2";"1";"1";"2";"1";"1";"2014-09-26 15:43:29.345";"2014-09-26 15:58:10.285";"1";"0";"1";"125";"124";"module.training_block4.exec-3919.GoNoGo4";;;;;;;;;;;;;;;;;;;;;;;;;;;;;;;;;;;;;;;;;;;;;;;;;;;;;;;;;;;"1249";"2014-09-26 15:51:48.798";"NST_correctLoc";"33";"0";"FINISHED";"LEFT";"success";"464";"0";"2014-09-26 15:51:47.548";"3";;;;;;;;;;;;;;;;;;;;;
"KLHR1";"1995";;"Windows 7";"Rachel's Experiment (D.T.)";"1.0";"2";"1";"1";"2";"1";"1";"2014-09-26 15:43:29.345";"2014-09-26 15:58:10.285";"1";"0";"1";"126";"125";"module.training_block4.exec-3919.GoNoGo4";;;;;;;;;;;;;;;;;;;;;;;;;;;;;;;;;;;;;;;;;;;;;;;;;;;;;;;;;;;"1249";"2014-09-26 15:51:51.321";"ST_correctStop";"30";"1";"FINISHED";"NONE";"success";"0";"1";"2014-09-26 15:51:50.071";"3";;;;;;;;;;;;;;;;;;;;;
"KLHR1";"1995";;"Windows 7";"Rachel's Experiment (D.T.)";"1.0";"2";"1";"1";"2";"1";"1";"2014-09-26 15:43:29.345";"2014-09-26 15:58:10.285";"1";"0";"1";"127";"126";"module.training_block4.exec-3919.GoNoGo4";;;;;;;;;;;;;;;;;;;;;;;;;;;;;;;;;;;;;;;;;;;;;;;;;;;;;;;;;;;"1249";"2014-09-26 15:51:53.843";"NST_correctLoc";"11";"0";"FINISHED";"LEFT";"success";"412";"0";"2014-09-26 15:51:52.593";"2";;;;;;;;;;;;;;;;;;;;;
"KLHR1";"1995";;"Windows 7";"Rachel's Experiment (D.T.)";"1.0";"2";"1";"1";"2";"1";"1";"2014-09-26 15:43:29.345";"2014-09-26 15:58:10.285";"1";"0";"1";"128";"127";"module.training_block4.exec-3919.GoNoGo4";;;;;;;;;;;;;;;;;;;;;;;;;;;;;;;;;;;;;;;;;;;;;;;;;;;;;;;;;;;"1249";"2014-09-26 15:51:56.364";"NST_correctLoc";"19";"0";"FINISHED";"LEFT";"success";"516";"0";"2014-09-26 15:51:55.114";"3";;;;;;;;;;;;;;;;;;;;;
"KLHR1";"1995";;"Windows 7";"Rachel's Experiment (D.T.)";"1.0";"2";"1";"1";"2";"1";"1";"2014-09-26 15:43:29.345";"2014-09-26 15:58:10.285";"1";"0";"1";"129";"128";"module.training_block4.exec-3919.GoNoGo4";;;;;;;;;;;;;;;;;;;;;;;;;;;;;;;;;;;;;;;;;;;;;;;;;;;;;;;;;;;"1249";"2014-09-26 15:51:58.889";"NST_correctLoc";"23";"1";"FINISHED";"RIGHT";"success";"508";"0";"2014-09-26 15:51:57.639";"3";;;;;;;;;;;;;;;;;;;;;
"KLHR1";"1995";;"Windows 7";"Rachel's Experiment (D.T.)";"1.0";"2";"1";"1";"2";"1";"1";"2014-09-26 15:43:29.345";"2014-09-26 15:58:10.285";"1";"0";"1";"130";"129";"module.training_block4.exec-3919.GoNoGo4";;;;;;;;;;;;;;;;;;;;;;;;;;;;;;;;;;;;;;;;;;;;;;;;;;;;;;;;;;;"1249";"2014-09-26 15:52:01.410";"ST_correctStop";"2";"1";"FINISHED";"NONE";"success";"0";"1";"2014-09-26 15:52:00.160";"1";;;;;;;;;;;;;;;;;;;;;
"KLHR1";"1995";;"Windows 7";"Rachel's Experiment (D.T.)";"1.0";"2";"1";"1";"2";"1";"1";"2014-09-26 15:43:29.345";"2014-09-26 15:58:10.285";"1";"0";"1";"131";"130";"module.training_block4.exec-3919.GoNoGo4";;;;;;;;;;;;;;;;;;;;;;;;;;;;;;;;;;;;;;;;;;;;;;;;;;;;;;;;;;;"1249";"2014-09-26 15:52:03.931";"ST_correctStop";"21";"0";"FINISHED";"NONE";"success";"0";"1";"2014-09-26 15:52:02.681";"3";;;;;;;;;;;;;;;;;;;;;
"KLHR1";"1995";;"Windows 7";"Rachel's Experiment (D.T.)";"1.0";"2";"1";"1";"2";"1";"1";"2014-09-26 15:43:29.345";"2014-09-26 15:58:10.285";"1";"0";"1";"132";"131";"module.training_block4.exec-3919.GoNoGo4";;;;;;;;;;;;;;;;;;;;;;;;;;;;;;;;;;;;;;;;;;;;;;;;;;;;;;;;;;;"1249";"2014-09-26 15:52:06.454";"ST_correctStop";"28";"1";"FINISHED";"NONE";"success";"0";"1";"2014-09-26 15:52:05.203";"3";;;;;;;;;;;;;;;;;;;;;
"KLHR1";"1995";;"Windows 7";"Rachel's Experiment (D.T.)";"1.0";"2";"1";"1";"2";"1";"1";"2014-09-26 15:43:29.345";"2014-09-26 15:58:10.285";"1";"0";"1";"133";"132";"module.training_block4.exec-3919.GoNoGo4";;;;;;;;;;;;;;;;;;;;;;;;;;;;;;;;;;;;;;;;;;;;;;;;;;;;;;;;;;;"1249";"2014-09-26 15:52:08.977";"NST_correctLoc";"22";"0";"FINISHED";"LEFT";"success";"408";"0";"2014-09-26 15:52:07.727";"3";;;;;;;;;;;;;;;;;;;;;
"KLHR1";"1995";;"Windows 7";"Rachel's Experiment (D.T.)";"1.0";"2";"1";"1";"2";"1";"1";"2014-09-26 15:43:29.345";"2014-09-26 15:58:10.285";"1";"0";"1";"134";"133";"module.training_block4.exec-3919.GoNoGo4";;;;;;;;;;;;;;;;;;;;;;;;;;;;;;;;;;;;;;;;;;;;;;;;;;;;;;;;;;;"1249";"2014-09-26 15:52:11.500";"NST_correctLoc";"16";"1";"FINISHED";"RIGHT";"success";"483";"0";"2014-09-26 15:52:10.250";"2";;;;;;;;;;;;;;;;;;;;;
"KLHR1";"1995";;"Windows 7";"Rachel's Experiment (D.T.)";"1.0";"2";"1";"1";"2";"1";"1";"2014-09-26 15:43:29.345";"2014-09-26 15:58:10.285";"1";"0";"1";"135";"134";"module.training_block4.exec-3919.GoNoGo4";;;;;;;;;;;;;;;;;;;;;;;;;;;;;;;;;;;;;;;;;;;;;;;;;;;;;;;;;;;"1249";"2014-09-26 15:52:14.021";"NST_correctLoc";"17";"1";"FINISHED";"RIGHT";"success";"550";"0";"2014-09-26 15:52:12.771";"2";;;;;;;;;;;;;;;;;;;;;
"KLHR1";"1995";;"Windows 7";"Rachel's Experiment (D.T.)";"1.0";"2";"1";"1";"2";"1";"1";"2014-09-26 15:43:29.345";"2014-09-26 15:58:10.285";"1";"0";"1";"136";"135";"module.training_block4.exec-3919.GoNoGo4";;;;;;;;;;;;;;;;;;;;;;;;;;;;;;;;;;;;;;;;;;;;;;;;;;;;;;;;;;;"1249";"2014-09-26 15:52:16.542";"ST_correctStop";"1";"0";"FINISHED";"NONE";"success";"0";"1";"2014-09-26 15:52:15.292";"1";;;;;;;;;;;;;;;;;;;;;
"KLHR1";"1995";;"Windows 7";"Rachel's Experiment (D.T.)";"1.0";"2";"1";"1";"2";"1";"1";"2014-09-26 15:43:29.345";"2014-09-26 15:58:10.285";"1";"0";"1";"137";"136";"module.training_block4.exec-3919.GoNoGo4";;;;;;;;;;;;;;;;;;;;;;;;;;;;;;;;;;;;;;;;;;;;;;;;;;;;;;;;;;;"1249";"2014-09-26 15:52:19.064";"ST_correctStop";"7";"0";"FINISHED";"NONE";"success";"0";"1";"2014-09-26 15:52:17.814";"1";;;;;;;;;;;;;;;;;;;;;
"KLHR1";"1995";;"Windows 7";"Rachel's Experiment (D.T.)";"1.0";"2";"1";"1";"2";"1";"1";"2014-09-26 15:43:29.345";"2014-09-26 15:58:10.285";"1";"0";"1";"138";"137";"module.training_block4.exec-3919.GoNoGo4";;;;;;;;;;;;;;;;;;;;;;;;;;;;;;;;;;;;;;;;;;;;;;;;;;;;;;;;;;;"1249";"2014-09-26 15:52:21.585";"ST_correctStop";"0";"1";"FINISHED";"NONE";"success";"0";"1";"2014-09-26 15:52:20.335";"1";;;;;;;;;;;;;;;;;;;;;
"KLHR1";"1995";;"Windows 7";"Rachel's Experiment (D.T.)";"1.0";"2";"1";"1";"2";"1";"1";"2014-09-26 15:43:29.345";"2014-09-26 15:58:10.285";"1";"0";"1";"139";"138";"module.training_block4.exec-3919.GoNoGo4";;;;;;;;;;;;;;;;;;;;;;;;;;;;;;;;;;;;;;;;;;;;;;;;;;;;;;;;;;;"1249";"2014-09-26 15:52:24.107";"ST_correctStop";"18";"0";"FINISHED";"NONE";"success";"0";"1";"2014-09-26 15:52:22.856";"3";;;;;;;;;;;;;;;;;;;;;
"KLHR1";"1995";;"Windows 7";"Rachel's Experiment (D.T.)";"1.0";"2";"1";"1";"2";"1";"1";"2014-09-26 15:43:29.345";"2014-09-26 15:58:10.285";"1";"0";"1";"140";"139";"module.training_block4.exec-3919.GoNoGo4";;;;;;;;;;;;;;;;;;;;;;;;;;;;;;;;;;;;;;;;;;;;;;;;;;;;;;;;;;;"1249";"2014-09-26 15:52:26.628";"NST_correctLoc";"34";"0";"FINISHED";"LEFT";"success";"442";"0";"2014-09-26 15:52:25.378";"3";;;;;;;;;;;;;;;;;;;;;
"KLHR1";"1995";;"Windows 7";"Rachel's Experiment (D.T.)";"1.0";"2";"1";"1";"2";"1";"1";"2014-09-26 15:43:29.345";"2014-09-26 15:58:10.285";"1";"0";"1";"141";"140";"module.training_block4.exec-3919.GoNoGo4";;;;;;;;;;;;;;;;;;;;;;;;;;;;;;;;;;;;;;;;;;;;;;;;;;;;;;;;;;;"1249";"2014-09-26 15:52:29.148";"ST_correctStop";"31";"0";"FINISHED";"NONE";"success";"0";"1";"2014-09-26 15:52:27.898";"3";;;;;;;;;;;;;;;;;;;;;
"KLHR1";"1995";;"Windows 7";"Rachel's Experiment (D.T.)";"1.0";"2";"1";"1";"2";"1";"1";"2014-09-26 15:43:29.345";"2014-09-26 15:58:10.285";"1";"0";"1";"142";"141";"module.training_block4.exec-3919.GoNoGo4";;;;;;;;;;;;;;;;;;;;;;;;;;;;;;;;;;;;;;;;;;;;;;;;;;;;;;;;;;;"1249";"2014-09-26 15:52:31.669";"NST_correctLoc";"24";"1";"FINISHED";"RIGHT";"success";"472";"0";"2014-09-26 15:52:30.419";"3";;;;;;;;;;;;;;;;;;;;;
"KLHR1";"1995";;"Windows 7";"Rachel's Experiment (D.T.)";"1.0";"2";"1";"1";"2";"1";"1";"2014-09-26 15:43:29.345";"2014-09-26 15:58:10.285";"1";"0";"1";"143";"142";"module.training_block4.exec-3919.GoNoGo4";;;;;;;;;;;;;;;;;;;;;;;;;;;;;;;;;;;;;;;;;;;;;;;;;;;;;;;;;;;"1249";"2014-09-26 15:52:34.190";"ST_correctStop";"6";"1";"FINISHED";"NONE";"success";"0";"1";"2014-09-26 15:52:32.940";"1";;;;;;;;;;;;;;;;;;;;;
"KLHR1";"1995";;"Windows 7";"Rachel's Experiment (D.T.)";"1.0";"2";"1";"1";"2";"1";"1";"2014-09-26 15:43:29.345";"2014-09-26 15:58:10.285";"1";"0";"1";"144";"143";"module.training_block4.exec-3919.GoNoGo4";;;;;;;;;;;;;;;;;;;;;;;;;;;;;;;;;;;;;;;;;;;;;;;;;;;;;;;;;;;"1249";"2014-09-26 15:52:36.710";"NST_correctLoc";"13";"1";"FINISHED";"RIGHT";"success";"540";"0";"2014-09-26 15:52:35.460";"2";;;;;;;;;;;;;;;;;;;;;
"KLHR1";"1995";;"Windows 7";"Rachel's Experiment (D.T.)";"1.0";"2";"1";"1";"2";"1";"1";"2014-09-26 15:43:29.345";"2014-09-26 15:58:10.285";"1";"0";"1";"145";"144";"module.training_block4.exec-3919.GoNoGo4";;;;;;;;;;;;;;;;;;;;;;;;;;;;;;;;;;;;;;;;;;;;;;;;;;;;;;;;;;;"1249";"2014-09-26 15:52:39.231";"NST_correctLoc";"9";"1";"FINISHED";"RIGHT";"success";"492";"0";"2014-09-26 15:52:37.981";"2";;;;;;;;;;;;;;;;;;;;;
"KLHR1";"1995";;"Windows 7";"Rachel's Experiment (D.T.)";"1.0";"2";"1";"1";"2";"1";"1";"2014-09-26 15:43:29.345";"2014-09-26 15:58:10.285";"1";"0";"1";"146";"145";"module.training_block4.exec-3919.GoNoGo4";;;;;;;;;;;;;;;;;;;;;;;;;;;;;;;;;;;;;;;;;;;;;;;;;;;;;;;;;;;"1249";"2014-09-26 15:52:41.753";"ST_correctStop";"8";"0";"FINISHED";"NONE";"success";"0";"1";"2014-09-26 15:52:40.502";"1";;;;;;;;;;;;;;;;;;;;;
"KLHR1";"1995";;"Windows 7";"Rachel's Experiment (D.T.)";"1.0";"2";"1";"1";"2";"1";"1";"2014-09-26 15:43:29.345";"2014-09-26 15:58:10.285";"1";"0";"1";"147";"146";"module.training_block4.exec-3919.GoNoGo4";;;;;;;;;;;;;;;;;;;;;;;;;;;;;;;;;;;;;;;;;;;;;;;;;;;;;;;;;;;"1249";"2014-09-26 15:52:44.281";"ST_correctStop";"26";"1";"FINISHED";"NONE";"success";"0";"1";"2014-09-26 15:52:43.031";"3";;;;;;;;;;;;;;;;;;;;;
"KLHR1";"1995";;"Windows 7";"Rachel's Experiment (D.T.)";"1.0";"2";"1";"1";"2";"1";"1";"2014-09-26 15:43:29.345";"2014-09-26 15:58:10.285";"1";"0";"1";"148";"147";"module.training_block4.exec-3919.GoNoGo4";;;;;;;;;;;;;;;;;;;;;;;;;;;;;;;;;;;;;;;;;;;;;;;;;;;;;;;;;;;"1249";"2014-09-26 15:52:46.803";"NST_correctLoc";"20";"0";"FINISHED";"LEFT";"success";"482";"0";"2014-09-26 15:52:45.553";"3";;;;;;;;;;;;;;;;;;;;;
"KLHR1";"1995";;"Windows 7";"Rachel's Experiment (D.T.)";"1.0";"2";"1";"1";"2";"1";"1";"2014-09-26 15:43:29.345";"2014-09-26 15:58:10.285";"1";"0";"1";"149";"148";"module.training_block4.exec-3919.GoNoGo4";;;;;;;;;;;;;;;;;;;;;;;;;;;;;;;;;;;;;;;;;;;;;;;;;;;;;;;;;;;"1249";"2014-09-26 15:52:49.323";"NST_correctLoc";"10";"1";"FINISHED";"RIGHT";"success";"490";"0";"2014-09-26 15:52:48.073";"2";;;;;;;;;;;;;;;;;;;;;
"KLHR1";"1995";;"Windows 7";"Rachel's Experiment (D.T.)";"1.0";"2";"1";"1";"2";"1";"1";"2014-09-26 15:43:29.345";"2014-09-26 15:58:10.285";"1";"0";"1";"150";"149";"module.training_block4.exec-3919.GoNoGo4";;;;;;;;;;;;;;;;;;;;;;;;;;;;;;;;;;;;;;;;;;;;;;;;;;;;;;;;;;;"1249";"2014-09-26 15:52:51.847";"NST_correctLoc";"15";"0";"FINISHED";"LEFT";"success";"490";"0";"2014-09-26 15:52:50.597";"2";;;;;;;;;;;;;;;;;;;;;
"KLHR1";"1995";;"Windows 7";"Rachel's Experiment (D.T.)";"1.0";"2";"1";"1";"2";"1";"1";"2014-09-26 15:43:29.345";"2014-09-26 15:58:10.285";"1";"0";"1";"151";"150";"module.training_block4.exec-3919.GoNoGo4";;;;;;;;;;;;;;;;;;;;;;;;;;;;;;;;;;;;;;;;;;;;;;;;;;;;;;;;;;;"1249";"2014-09-26 15:52:54.367";"ST_correctStop";"4";"0";"FINISHED";"NONE";"success";"0";"1";"2014-09-26 15:52:53.117";"1";;;;;;;;;;;;;;;;;;;;;
"KLHR1";"1995";;"Windows 7";"Rachel's Experiment (D.T.)";"1.0";"2";"1";"1";"2";"1";"1";"2014-09-26 15:43:29.345";"2014-09-26 15:58:10.285";"1";"0";"1";"152";"151";"module.training_block4.exec-3919.GoNoGo4";;;;;;;;;;;;;;;;;;;;;;;;;;;;;;;;;;;;;;;;;;;;;;;;;;;;;;;;;;;"1250";"2014-09-26 15:52:56.892";"NST_correctLoc";"12";"0";"FINISHED";"LEFT";"success";"463";"0";"2014-09-26 15:52:55.641";"2";;;;;;;;;;;;;;;;;;;;;
"KLHR1";"1995";;"Windows 7";"Rachel's Experiment (D.T.)";"1.0";"2";"1";"1";"2";"1";"1";"2014-09-26 15:43:29.345";"2014-09-26 15:58:10.285";"1";"0";"1";"153";"152";"module.training_block4.exec-3919.GoNoGo4";;;;;;;;;;;;;;;;;;;;;;;;;;;;;;;;;;;;;;;;;;;;;;;;;;;;;;;;;;;"1249";"2014-09-26 15:52:59.413";"ST_correctStop";"35";"0";"FINISHED";"NONE";"success";"0";"1";"2014-09-26 15:52:58.162";"3";;;;;;;;;;;;;;;;;;;;;
"KLHR1";"1995";;"Windows 7";"Rachel's Experiment (D.T.)";"1.0";"2";"1";"1";"2";"1";"1";"2014-09-26 15:43:29.345";"2014-09-26 15:58:10.285";"1";"0";"1";"154";"153";"module.training_block4.exec-3919.GoNoGo4";;;;;;;;;;;;;;;;;;;;;;;;;;;;;;;;;;;;;;;;;;;;;;;;;;;;;;;;;;;"1249";"2014-09-26 15:53:01.933";"ST_correctStop";"3";"0";"FINISHED";"NONE";"success";"0";"1";"2014-09-26 15:53:00.683";"1";;;;;;;;;;;;;;;;;;;;;
"KLHR1";"1995";;"Windows 7";"Rachel's Experiment (D.T.)";"1.0";"2";"1";"1";"2";"1";"1";"2014-09-26 15:43:29.345";"2014-09-26 15:58:10.285";"1";"0";"1";"155";"154";"module.training_block4.exec-3919.GoNoGo4";;;;;;;;;;;;;;;;;;;;;;;;;;;;;;;;;;;;;;;;;;;;;;;;;;;;;;;;;;;"1249";"2014-09-26 15:53:04.453";"ST_correctStop";"29";"1";"FINISHED";"NONE";"success";"0";"1";"2014-09-26 15:53:03.203";"3";;;;;;;;;;;;;;;;;;;;;
"KLHR1";"1995";;"Windows 7";"Rachel's Experiment (D.T.)";"1.0";"2";"1";"1";"2";"1";"1";"2014-09-26 15:43:29.345";"2014-09-26 15:58:10.285";"1";"0";"1";"156";"155";"module.training_block4.exec-3919.GoNoGo4";;;;;;;;;;;;;;;;;;;;;;;;;;;;;;;;;;;;;;;;;;;;;;;;;;;;;;;;;;;"1249";"2014-09-26 15:53:06.973";"NST_correctLoc";"32";"1";"FINISHED";"RIGHT";"success";"486";"0";"2014-09-26 15:53:05.723";"3";;;;;;;;;;;;;;;;;;;;;
"KLHR1";"1995";;"Windows 7";"Rachel's Experiment (D.T.)";"1.0";"2";"1";"1";"2";"1";"1";"2014-09-26 15:43:29.345";"2014-09-26 15:58:10.285";"1";"0";"1";"157";"156";"module.training_block4.exec-3919.GoNoGo4";;;;;;;;;;;;;;;;;;;;;;;;;;;;;;;;;;;;;;;;;;;;;;;;;;;;;;;;;;;"1249";"2014-09-26 15:53:09.493";"NST_correctLoc";"27";"0";"FINISHED";"LEFT";"success";"513";"0";"2014-09-26 15:53:08.243";"3";;;;;;;;;;;;;;;;;;;;;
"KLHR1";"1995";;"Windows 7";"Rachel's Experiment (D.T.)";"1.0";"2";"1";"1";"2";"1";"1";"2014-09-26 15:43:29.345";"2014-09-26 15:58:10.285";"1";"0";"1";"158";"157";"module.training_block4.exec-3919.GoNoGo4";;;;;;;;;;;;;;;;;;;;;;;;;;;;;;;;;;;;;;;;;;;;;;;;;;;;;;;;;;;"1249";"2014-09-26 15:53:12.013";"NST_correctLoc";"14";"0";"FINISHED";"LEFT";"success";"446";"0";"2014-09-26 15:53:10.763";"2";;;;;;;;;;;;;;;;;;;;;
"KLHR1";"1995";;"Windows 7";"Rachel's Experiment (D.T.)";"1.0";"2";"1";"1";"2";"1";"1";"2014-09-26 15:43:29.345";"2014-09-26 15:58:10.285";"1";"0";"1";"159";"158";"module.training_block4.exec-3919.GoNoGo4";;;;;;;;;;;;;;;;;;;;;;;;;;;;;;;;;;;;;;;;;;;;;;;;;;;;;;;;;;;"1249";"2014-09-26 15:53:14.532";"ST_correctStop";"5";"0";"FINISHED";"NONE";"success";"0";"1";"2014-09-26 15:53:13.282";"1";;;;;;;;;;;;;;;;;;;;;
"KLHR1";"1995";;"Windows 7";"Rachel's Experiment (D.T.)";"1.0";"2";"1";"1";"2";"1";"1";"2014-09-26 15:43:29.345";"2014-09-26 15:58:10.285";"1";"0";"1";"160";"159";"module.devaluation_practice.exec-8597.devalPractice";;;;;;;;;;;;"22900";"2014-09-26 15:54:06.616";"0";"7";"4";"6";"6741";"8039";"5086";"2014-09-26 15:53:43.716";;;;;;;;;;;;;;;;;;;;;;;;;;;;;;;;;;;;;;;;;;;;;;;;;;;;;;;;;;;;;;;;;;;;;;
"KLHR1";"1995";;"Windows 7";"Rachel's Experiment (D.T.)";"1.0";"2";"1";"1";"2";"1";"1";"2014-09-26 15:43:29.345";"2014-09-26 15:58:10.285";"1";"0";"1";"161";"160";"module.devaluation_practice.exec-8597.devalPractice";;;;;;;;;;;;"10812";"2014-09-26 15:54:17.452";"1";"4";"8";"8";"4561";"1314";"1929";"2014-09-26 15:54:06.640";;;;;;;;;;;;;;;;;;;;;;;;;;;;;;;;;;;;;;;;;;;;;;;;;;;;;;;;;;;;;;;;;;;;;;
"KLHR1";"1995";;"Windows 7";"Rachel's Experiment (D.T.)";"1.0";"2";"1";"1";"2";"1";"1";"2014-09-26 15:43:29.345";"2014-09-26 15:58:10.285";"1";"0";"1";"162";"161";"module.devaluation_practice.exec-8597.devalPractice";;;;;;;;;;;;"7405";"2014-09-26 15:54:24.882";"2";"2";"1";"3";"1204";"1614";"1581";"2014-09-26 15:54:17.476";;;;;;;;;;;;;;;;;;;;;;;;;;;;;;;;;;;;;;;;;;;;;;;;;;;;;;;;;;;;;;;;;;;;;;
"KLHR1";"1995";;"Windows 7";"Rachel's Experiment (D.T.)";"1.0";"2";"1";"1";"2";"1";"1";"2014-09-26 15:43:29.345";"2014-09-26 15:58:10.285";"1";"0";"1";"163";"162";"module.devaluation_practice.exec-8597.devalPractice";;;;;;;;;;;;"7735";"2014-09-26 15:54:32.641";"3";"7";"9";"9";"2052";"1275";"1401";"2014-09-26 15:54:24.905";;;;;;;;;;;;;;;;;;;;;;;;;;;;;;;;;;;;;;;;;;;;;;;;;;;;;;;;;;;;;;;;;;;;;;
"KLHR1";"1995";;"Windows 7";"Rachel's Experiment (D.T.)";"1.0";"2";"1";"1";"2";"1";"1";"2014-09-26 15:43:29.345";"2014-09-26 15:58:10.285";"1";"0";"1";"164";"163";"module.devaluation_block1.exec-4828.deval1";"11417";"2014-09-26 15:54:47.924";"6";"4";"6";"7";"2392";"1833";"4179";"2014-09-26 15:54:36.507";"1";;;;;;;;;;;;;;;;;;;;;;;;;;;;;;;;;;;;;;;;;;;;;;;;;;;;;;;;;;;;;;;;;;;;;;;;;;;;;;;;
"KLHR1";"1995";;"Windows 7";"Rachel's Experiment (D.T.)";"1.0";"2";"1";"1";"2";"1";"1";"2014-09-26 15:43:29.345";"2014-09-26 15:58:10.285";"1";"0";"1";"165";"164";"module.devaluation_block1.exec-4828.deval1";"8791";"2014-09-26 15:54:56.741";"7";"7";"2";"3";"1642";"2687";"1453";"2014-09-26 15:54:47.950";"1";;;;;;;;;;;;;;;;;;;;;;;;;;;;;;;;;;;;;;;;;;;;;;;;;;;;;;;;;;;;;;;;;;;;;;;;;;;;;;;;
"KLHR1";"1995";;"Windows 7";"Rachel's Experiment (D.T.)";"1.0";"2";"1";"1";"2";"1";"1";"2014-09-26 15:43:29.345";"2014-09-26 15:58:10.285";"1";"0";"1";"166";"165";"module.devaluation_block1.exec-4828.deval1";"7665";"2014-09-26 15:55:04.431";"8";"8";"8";"8";"1498";"1136";"2021";"2014-09-26 15:54:56.765";"1";;;;;;;;;;;;;;;;;;;;;;;;;;;;;;;;;;;;;;;;;;;;;;;;;;;;;;;;;;;;;;;;;;;;;;;;;;;;;;;;
"KLHR1";"1995";;"Windows 7";"Rachel's Experiment (D.T.)";"1.0";"2";"1";"1";"2";"1";"1";"2014-09-26 15:43:29.345";"2014-09-26 15:58:10.285";"1";"0";"1";"167";"166";"module.devaluation_block1.exec-4828.deval1";"8071";"2014-09-26 15:55:12.526";"15";"3";"8";"6";"1183";"2095";"1783";"2014-09-26 15:55:04.455";"2";;;;;;;;;;;;;;;;;;;;;;;;;;;;;;;;;;;;;;;;;;;;;;;;;;;;;;;;;;;;;;;;;;;;;;;;;;;;;;;;
"KLHR1";"1995";;"Windows 7";"Rachel's Experiment (D.T.)";"1.0";"2";"1";"1";"2";"1";"1";"2014-09-26 15:43:29.345";"2014-09-26 15:58:10.285";"1";"0";"1";"168";"167";"module.devaluation_block1.exec-4828.deval1";"7030";"2014-09-26 15:55:19.580";"0";"6";"9";"9";"2039";"962";"1019";"2014-09-26 15:55:12.549";"1";;;;;;;;;;;;;;;;;;;;;;;;;;;;;;;;;;;;;;;;;;;;;;;;;;;;;;;;;;;;;;;;;;;;;;;;;;;;;;;;
"KLHR1";"1995";;"Windows 7";"Rachel's Experiment (D.T.)";"1.0";"2";"1";"1";"2";"1";"1";"2014-09-26 15:43:29.345";"2014-09-26 15:58:10.285";"1";"0";"1";"169";"168";"module.devaluation_block1.exec-4828.deval1";"8058";"2014-09-26 15:55:27.665";"25";"8";"5";"6";"2466";"1143";"1441";"2014-09-26 15:55:19.607";"3";;;;;;;;;;;;;;;;;;;;;;;;;;;;;;;;;;;;;;;;;;;;;;;;;;;;;;;;;;;;;;;;;;;;;;;;;;;;;;;;
"KLHR1";"1995";;"Windows 7";"Rachel's Experiment (D.T.)";"1.0";"2";"1";"1";"2";"1";"1";"2014-09-26 15:43:29.345";"2014-09-26 15:58:10.285";"1";"0";"1";"170";"169";"module.devaluation_block1.exec-4828.deval1";"6854";"2014-09-26 15:55:34.543";"4";"9";"9";"9";"1671";"935";"1239";"2014-09-26 15:55:27.689";"1";;;;;;;;;;;;;;;;;;;;;;;;;;;;;;;;;;;;;;;;;;;;;;;;;;;;;;;;;;;;;;;;;;;;;;;;;;;;;;;;
"KLHR1";"1995";;"Windows 7";"Rachel's Experiment (D.T.)";"1.0";"2";"1";"1";"2";"1";"1";"2014-09-26 15:43:29.345";"2014-09-26 15:58:10.285";"1";"0";"1";"171";"170";"module.devaluation_block1.exec-4828.deval1";"7163";"2014-09-26 15:55:41.732";"26";"9";"9";"8";"1200";"908";"2047";"2014-09-26 15:55:34.567";"3";;;;;;;;;;;;;;;;;;;;;;;;;;;;;;;;;;;;;;;;;;;;;;;;;;;;;;;;;;;;;;;;;;;;;;;;;;;;;;;;
"KLHR1";"1995";;"Windows 7";"Rachel's Experiment (D.T.)";"1.0";"2";"1";"1";"2";"1";"1";"2014-09-26 15:43:29.345";"2014-09-26 15:58:10.285";"1";"0";"1";"172";"171";"module.devaluation_block1.exec-4828.deval1";"9254";"2014-09-26 15:55:51.009";"21";"3";"7";"7";"1925";"2287";"2033";"2014-09-26 15:55:41.755";"3";;;;;;;;;;;;;;;;;;;;;;;;;;;;;;;;;;;;;;;;;;;;;;;;;;;;;;;;;;;;;;;;;;;;;;;;;;;;;;;;
"KLHR1";"1995";;"Windows 7";"Rachel's Experiment (D.T.)";"1.0";"2";"1";"1";"2";"1";"1";"2014-09-26 15:43:29.345";"2014-09-26 15:58:10.285";"1";"0";"1";"173";"172";"module.devaluation_block1.exec-4828.deval1";"7302";"2014-09-26 15:55:58.337";"22";"7";"9";"8";"1726";"1023";"1545";"2014-09-26 15:55:51.034";"3";;;;;;;;;;;;;;;;;;;;;;;;;;;;;;;;;;;;;;;;;;;;;;;;;;;;;;;;;;;;;;;;;;;;;;;;;;;;;;;;
"KLHR1";"1995";;"Windows 7";"Rachel's Experiment (D.T.)";"1.0";"2";"1";"1";"2";"1";"1";"2014-09-26 15:43:29.345";"2014-09-26 15:58:10.285";"1";"0";"1";"174";"173";"module.devaluation_block1.exec-4828.deval1";"6202";"2014-09-26 15:56:04.563";"1";"3";"5";"6";"969";"944";"1280";"2014-09-26 15:55:58.360";"1";;;;;;;;;;;;;;;;;;;;;;;;;;;;;;;;;;;;;;;;;;;;;;;;;;;;;;;;;;;;;;;;;;;;;;;;;;;;;;;;
"KLHR1";"1995";;"Windows 7";"Rachel's Experiment (D.T.)";"1.0";"2";"1";"1";"2";"1";"1";"2014-09-26 15:43:29.345";"2014-09-26 15:58:10.285";"1";"0";"1";"175";"174";"module.devaluation_block1.exec-4828.deval1";"6763";"2014-09-26 15:56:11.349";"5";"7";"8";"8";"2009";"833";"913";"2014-09-26 15:56:04.585";"1";;;;;;;;;;;;;;;;;;;;;;;;;;;;;;;;;;;;;;;;;;;;;;;;;;;;;;;;;;;;;;;;;;;;;;;;;;;;;;;;
"KLHR1";"1995";;"Windows 7";"Rachel's Experiment (D.T.)";"1.0";"2";"1";"1";"2";"1";"1";"2014-09-26 15:43:29.345";"2014-09-26 15:58:10.285";"1";"0";"1";"176";"175";"module.devaluation_block1.exec-4828.deval1";"8905";"2014-09-26 15:56:20.278";"9";"6";"7";"6";"2443";"1793";"1660";"2014-09-26 15:56:11.373";"2";;;;;;;;;;;;;;;;;;;;;;;;;;;;;;;;;;;;;;;;;;;;;;;;;;;;;;;;;;;;;;;;;;;;;;;;;;;;;;;;
"KLHR1";"1995";;"Windows 7";"Rachel's Experiment (D.T.)";"1.0";"2";"1";"1";"2";"1";"1";"2014-09-26 15:43:29.345";"2014-09-26 15:58:10.285";"1";"0";"1";"177";"176";"module.devaluation_block1.exec-4828.deval1";"10359";"2014-09-26 15:56:30.661";"2";"5";"2";"5";"3369";"1034";"2948";"2014-09-26 15:56:20.301";"1";;;;;;;;;;;;;;;;;;;;;;;;;;;;;;;;;;;;;;;;;;;;;;;;;;;;;;;;;;;;;;;;;;;;;;;;;;;;;;;;
"KLHR1";"1995";;"Windows 7";"Rachel's Experiment (D.T.)";"1.0";"2";"1";"1";"2";"1";"1";"2014-09-26 15:43:29.345";"2014-09-26 15:58:10.285";"1";"0";"1";"178";"177";"module.devaluation_block1.exec-4828.deval1";"7278";"2014-09-26 15:56:37.964";"24";"5";"8";"8";"1335";"720";"2215";"2014-09-26 15:56:30.687";"3";;;;;;;;;;;;;;;;;;;;;;;;;;;;;;;;;;;;;;;;;;;;;;;;;;;;;;;;;;;;;;;;;;;;;;;;;;;;;;;;
"KLHR1";"1995";;"Windows 7";"Rachel's Experiment (D.T.)";"1.0";"2";"1";"1";"2";"1";"1";"2014-09-26 15:43:29.345";"2014-09-26 15:58:10.285";"1";"0";"1";"179";"178";"module.devaluation_block1.exec-4828.deval1";"5902";"2014-09-26 15:56:43.890";"13";"7";"7";"7";"1536";"683";"677";"2014-09-26 15:56:37.988";"2";;;;;;;;;;;;;;;;;;;;;;;;;;;;;;;;;;;;;;;;;;;;;;;;;;;;;;;;;;;;;;;;;;;;;;;;;;;;;;;;
"KLHR1";"1995";;"Windows 7";"Rachel's Experiment (D.T.)";"1.0";"2";"1";"1";"2";"1";"1";"2014-09-26 15:43:29.345";"2014-09-26 15:58:10.285";"1";"0";"1";"180";"179";"module.devaluation_block1.exec-4828.deval1";"9035";"2014-09-26 15:56:52.948";"3";"9";"8";"8";"3504";"937";"1586";"2014-09-26 15:56:43.913";"1";;;;;;;;;;;;;;;;;;;;;;;;;;;;;;;;;;;;;;;;;;;;;;;;;;;;;;;;;;;;;;;;;;;;;;;;;;;;;;;;
"KLHR1";"1995";;"Windows 7";"Rachel's Experiment (D.T.)";"1.0";"2";"1";"1";"2";"1";"1";"2014-09-26 15:43:29.345";"2014-09-26 15:58:10.285";"1";"0";"1";"181";"180";"module.devaluation_block1.exec-4828.deval1";"7626";"2014-09-26 15:57:00.600";"11";"6";"2";"2";"698";"1924";"1996";"2014-09-26 15:56:52.973";"2";;;;;;;;;;;;;;;;;;;;;;;;;;;;;;;;;;;;;;;;;;;;;;;;;;;;;;;;;;;;;;;;;;;;;;;;;;;;;;;;
"KLHR1";"1995";;"Windows 7";"Rachel's Experiment (D.T.)";"1.0";"2";"1";"1";"2";"1";"1";"2014-09-26 15:43:29.345";"2014-09-26 15:58:10.285";"1";"0";"1";"182";"181";"module.devaluation_block1.exec-4828.deval1";"6579";"2014-09-26 15:57:07.203";"19";"7";"8";"8";"1968";"693";"911";"2014-09-26 15:57:00.623";"3";;;;;;;;;;;;;;;;;;;;;;;;;;;;;;;;;;;;;;;;;;;;;;;;;;;;;;;;;;;;;;;;;;;;;;;;;;;;;;;;
"KLHR1";"1995";;"Windows 7";"Rachel's Experiment (D.T.)";"1.0";"2";"1";"1";"2";"1";"1";"2014-09-26 15:43:29.345";"2014-09-26 15:58:10.285";"1";"0";"1";"183";"182";"module.devaluation_block1.exec-4828.deval1";"5848";"2014-09-26 15:57:13.076";"20";"6";"6";"6";"742";"689";"1409";"2014-09-26 15:57:07.228";"3";;;;;;;;;;;;;;;;;;;;;;;;;;;;;;;;;;;;;;;;;;;;;;;;;;;;;;;;;;;;;;;;;;;;;;;;;;;;;;;;
"KLHR1";"1995";;"Windows 7";"Rachel's Experiment (D.T.)";"1.0";"2";"1";"1";"2";"1";"1";"2014-09-26 15:43:29.345";"2014-09-26 15:58:10.285";"1";"0";"1";"184";"183";"module.devaluation_block1.exec-4828.deval1";"6067";"2014-09-26 15:57:19.168";"17";"3";"6";"6";"901";"783";"1376";"2014-09-26 15:57:13.100";"2";;;;;;;;;;;;;;;;;;;;;;;;;;;;;;;;;;;;;;;;;;;;;;;;;;;;;;;;;;;;;;;;;;;;;;;;;;;;;;;;
"KLHR1";"1995";;"Windows 7";"Rachel's Experiment (D.T.)";"1.0";"2";"1";"1";"2";"1";"1";"2014-09-26 15:43:29.345";"2014-09-26 15:58:10.285";"1";"0";"1";"185";"184";"module.devaluation_block1.exec-4828.deval1";"6740";"2014-09-26 15:57:25.933";"12";"7";"7";"7";"1169";"690";"1872";"2014-09-26 15:57:19.192";"2";;;;;;;;;;;;;;;;;;;;;;;;;;;;;;;;;;;;;;;;;;;;;;;;;;;;;;;;;;;;;;;;;;;;;;;;;;;;;;;;
"KLHR1";"1995";;"Windows 7";"Rachel's Experiment (D.T.)";"1.0";"2";"1";"1";"2";"1";"1";"2014-09-26 15:43:29.345";"2014-09-26 15:58:10.285";"1";"0";"1";"186";"185";"module.devaluation_block1.exec-4828.deval1";"7266";"2014-09-26 15:57:33.222";"10";"8";"7";"7";"1553";"847";"1858";"2014-09-26 15:57:25.956";"2";;;;;;;;;;;;;;;;;;;;;;;;;;;;;;;;;;;;;;;;;;;;;;;;;;;;;;;;;;;;;;;;;;;;;;;;;;;;;;;;
"KLHR1";"1995";;"Windows 7";"Rachel's Experiment (D.T.)";"1.0";"2";"1";"1";"2";"1";"1";"2014-09-26 15:43:29.345";"2014-09-26 15:58:10.285";"1";"0";"1";"187";"186";"module.devaluation_block1.exec-4828.deval1";"7968";"2014-09-26 15:57:41.215";"14";"6";"5";"4";"666";"1115";"3178";"2014-09-26 15:57:33.246";"2";;;;;;;;;;;;;;;;;;;;;;;;;;;;;;;;;;;;;;;;;;;;;;;;;;;;;;;;;;;;;;;;;;;;;;;;;;;;;;;;
"KLHR1";"1995";;"Windows 7";"Rachel's Experiment (D.T.)";"1.0";"2";"1";"1";"2";"1";"1";"2014-09-26 15:43:29.345";"2014-09-26 15:58:10.285";"1";"0";"1";"188";"187";"module.devaluation_block1.exec-4828.deval1";"9156";"2014-09-26 15:57:50.395";"16";"5";"7";"7";"3814";"1133";"1201";"2014-09-26 15:57:41.240";"2";;;;;;;;;;;;;;;;;;;;;;;;;;;;;;;;;;;;;;;;;;;;;;;;;;;;;;;;;;;;;;;;;;;;;;;;;;;;;;;;
"KLHR1";"1995";;"Windows 7";"Rachel's Experiment (D.T.)";"1.0";"2";"1";"1";"2";"1";"1";"2014-09-26 15:43:29.345";"2014-09-26 15:58:10.285";"1";"0";"1";"189";"188";"module.devaluation_block1.exec-4828.deval1";"9594";"2014-09-26 15:58:00.015";"18";"5";"8";"8";"2076";"2854";"1656";"2014-09-26 15:57:50.420";"3";;;;;;;;;;;;;;;;;;;;;;;;;;;;;;;;;;;;;;;;;;;;;;;;;;;;;;;;;;;;;;;;;;;;;;;;;;;;;;;;
"KLHR1";"1995";;"Windows 7";"Rachel's Experiment (D.T.)";"1.0";"2";"1";"1";"2";"1";"1";"2014-09-26 15:43:29.345";"2014-09-26 15:58:10.285";"1";"0";"1";"190";"189";"module.devaluation_block1.exec-4828.deval1";"8607";"2014-09-26 15:58:08.647";"23";"7";"6";"6";"3195";"890";"1513";"2014-09-26 15:58:00.040";"3";;;;;;;;;;;;;;;;;;;;;;;;;;;;;;;;;;;;;;;;;;;;;;;;;;;;;;;;;;;;;;;;;;;;;;;;;;;;;;;;
