"user.name";"user.yearOfBirth";"user.sex";"user.osName";"module.name";"module.version";"module.online.subject.code";"module.online.study.id";"module.online.module.nr";"module.online.group.nr";"session.id";"session.index";"session.startTime";"session.endTime";"session.completed";"session.node-1682.conditionType";"session.node-8104.DevalQorder";"session.node-9084.conditionType";"session.node-9413.DevalQorder";"trial.id";"trial.index";"trial.name";"trial.deval1.durationTime";"trial.deval1.endTime";"trial.deval1.icon";"trial.deval1.Resp_Attractive";"trial.deval1.Resp_Eat";"trial.deval1.Resp_Taste";"trial.deval1.RT_Attractive";"trial.deval1.RT_Eat";"trial.deval1.RT_Taste";"trial.deval1.startTime";"trial.deval1.stimulus type";"trial.devalPractice.durationTime";"trial.devalPractice.endTime";"trial.devalPractice.icon";"trial.devalPractice.Resp_Attractive";"trial.devalPractice.Resp_Eat";"trial.devalPractice.Resp_Taste";"trial.devalPractice.RT_Attractive";"trial.devalPractice.RT_Eat";"trial.devalPractice.RT_Taste";"trial.devalPractice.startTime";"trial.devalPractice.stimulus type";"trial.GoNoGo1.durationTime";"trial.GoNoGo1.endTime";"trial.GoNoGo1.Error Type";"trial.GoNoGo1.icon";"trial.GoNoGo1.location";"trial.GoNoGo1.outcome";"trial.GoNoGo1.response";"trial.GoNoGo1.result";"trial.GoNoGo1.RT";"trial.GoNoGo1.signal";"trial.GoNoGo1.startTime";"trial.GoNoGo1.stimulus type";"trial.GoNoGo2.durationTime";"trial.GoNoGo2.endTime";"trial.GoNoGo2.Error Type";"trial.GoNoGo2.icon";"trial.GoNoGo2.location";"trial.GoNoGo2.outcome";"trial.GoNoGo2.response";"trial.GoNoGo2.result";"trial.GoNoGo2.RT";"trial.GoNoGo2.signal";"trial.GoNoGo2.startTime";"trial.GoNoGo2.stimulus type";"trial.GoNoGo3.durationTime";"trial.GoNoGo3.endTime";"trial.GoNoGo3.Error Type";"trial.GoNoGo3.icon";"trial.GoNoGo3.location";"trial.GoNoGo3.outcome";"trial.GoNoGo3.response";"trial.GoNoGo3.result";"trial.GoNoGo3.RT";"trial.GoNoGo3.signal";"trial.GoNoGo3.startTime";"trial.GoNoGo3.stimulus type";"trial.GoNoGo4.durationTime";"trial.GoNoGo4.endTime";"trial.GoNoGo4.Error Type";"trial.GoNoGo4.icon";"trial.GoNoGo4.location";"trial.GoNoGo4.outcome";"trial.GoNoGo4.response";"trial.GoNoGo4.result";"trial.GoNoGo4.RT";"trial.GoNoGo4.signal";"trial.GoNoGo4.startTime";"trial.GoNoGo4.stimulus type";"trial.GoNoGo_Practice.durationTime";"trial.GoNoGo_Practice.endTime";"trial.GoNoGo_Practice.icon";"trial.GoNoGo_Practice.location";"trial.GoNoGo_Practice.outcome";"trial.GoNoGo_Practice.response";"trial.GoNoGo_Practice.result";"trial.GoNoGo_Practice.RT";"trial.GoNoGo_Practice.signal";"trial.GoNoGo_Practice.startTime";"trial.GoNoGo_Practice.stimulus type";"trial.GoNoGo_Tutorial.durationTime";"trial.GoNoGo_Tutorial.endTime";"trial.GoNoGo_Tutorial.icon";"trial.GoNoGo_Tutorial.location";"trial.GoNoGo_Tutorial.outcome";"trial.GoNoGo_Tutorial.response";"trial.GoNoGo_Tutorial.result";"trial.GoNoGo_Tutorial.RT";"trial.GoNoGo_Tutorial.signal";"trial.GoNoGo_Tutorial.startTime"
"e1r2m3";"1995";;"Windows 7";"Rachel's Experiment (D.T.)";"1.0";"2";"1";"1";"2";"2";"2";"2014-09-29 14:38:04.726";"2014-09-29 14:54:01.008";"1";"0";;;"1";"1";"0";"module.GoNoGotutorial.exec-6001.GoNoGo_Tutorial";;;;;;;;;;;;;;;;;;;;;;;;;;;;;;;;;;;;;;;;;;;;;;;;;;;;;;;;;;;;;;;;;;;;;;;;;;;;;;;;;;"3995";"2014-09-29 14:38:40.918";"leftResponse";"0";"FINISHED";"LEFT";"success";"690";"0";"2014-09-29 14:38:36.909"
"e1r2m3";"1995";;"Windows 7";"Rachel's Experiment (D.T.)";"1.0";"2";"1";"1";"2";"2";"2";"2014-09-29 14:38:04.726";"2014-09-29 14:54:01.008";"1";"0";;;"1";"2";"1";"module.GoNoGotutorial.exec-6001.GoNoGo_Tutorial";;;;;;;;;;;;;;;;;;;;;;;;;;;;;;;;;;;;;;;;;;;;;;;;;;;;;;;;;;;;;;;;;;;;;;;;;;;;;;;;;;"4003";"2014-09-29 14:38:46.222";"rightResponse";"1";"FINISHED";"RIGHT";"success";"658";"0";"2014-09-29 14:38:42.213"
"e1r2m3";"1995";;"Windows 7";"Rachel's Experiment (D.T.)";"1.0";"2";"1";"1";"2";"2";"2";"2014-09-29 14:38:04.726";"2014-09-29 14:54:01.008";"1";"0";;;"1";"3";"2";"module.GoNoGotutorial.exec-6001.GoNoGo_Tutorial";;;;;;;;;;;;;;;;;;;;;;;;;;;;;;;;;;;;;;;;;;;;;;;;;;;;;;;;;;;;;;;;;;;;;;;;;;;;;;;;;;"4003";"2014-09-29 14:38:51.511";"quickResponse";"0";"FINISHED";"NONE";"failure";"0";"0";"2014-09-29 14:38:47.501"
"e1r2m3";"1995";;"Windows 7";"Rachel's Experiment (D.T.)";"1.0";"2";"1";"1";"2";"2";"2";"2014-09-29 14:38:04.726";"2014-09-29 14:54:01.008";"1";"0";;;"1";"4";"3";"module.GoNoGopractice.exec-2911.GoNoGo_Practice";;;;;;;;;;;;;;;;;;;;;;;;;;;;;;;;;;;;;;;;;;;;;;;;;;;;;;;;;;;;;;;;;;;;;;;"1959";"2014-09-29 14:38:59.357";"18";"0";"FINISHED";"LEFT";"success";"415";"0";"2014-09-29 14:38:57.392";"3";;;;;;;;;;
"e1r2m3";"1995";;"Windows 7";"Rachel's Experiment (D.T.)";"1.0";"2";"1";"1";"2";"2";"2";"2014-09-29 14:38:04.726";"2014-09-29 14:54:01.008";"1";"0";;;"1";"5";"4";"module.GoNoGopractice.exec-2911.GoNoGo_Practice";;;;;;;;;;;;;;;;;;;;;;;;;;;;;;;;;;;;;;;;;;;;;;;;;;;;;;;;;;;;;;;;;;;;;;;"1955";"2014-09-29 14:39:02.711";"21";"1";"FINISHED";"RIGHT";"success";"401";"0";"2014-09-29 14:39:00.746";"3";;;;;;;;;;
"e1r2m3";"1995";;"Windows 7";"Rachel's Experiment (D.T.)";"1.0";"2";"1";"1";"2";"2";"2";"2014-09-29 14:38:04.726";"2014-09-29 14:54:01.008";"1";"0";;;"1";"6";"5";"module.GoNoGopractice.exec-2911.GoNoGo_Practice";;;;;;;;;;;;;;;;;;;;;;;;;;;;;;;;;;;;;;;;;;;;;;;;;;;;;;;;;;;;;;;;;;;;;;;"1959";"2014-09-29 14:39:05.956";"14";"1";"FINISHED";"RIGHT";"success";"369";"0";"2014-09-29 14:39:03.991";"2";;;;;;;;;;
"e1r2m3";"1995";;"Windows 7";"Rachel's Experiment (D.T.)";"1.0";"2";"1";"1";"2";"2";"2";"2014-09-29 14:38:04.726";"2014-09-29 14:54:01.008";"1";"0";;;"1";"7";"6";"module.GoNoGopractice.exec-2911.GoNoGo_Practice";;;;;;;;;;;;;;;;;;;;;;;;;;;;;;;;;;;;;;;;;;;;;;;;;;;;;;;;;;;;;;;;;;;;;;;"1958";"2014-09-29 14:39:09.201";"26";"0";"FINISHED";"LEFT";"success";"307";"0";"2014-09-29 14:39:07.235";"3";;;;;;;;;;
"e1r2m3";"1995";;"Windows 7";"Rachel's Experiment (D.T.)";"1.0";"2";"1";"1";"2";"2";"2";"2014-09-29 14:38:04.726";"2014-09-29 14:54:01.008";"1";"0";;;"1";"8";"7";"module.GoNoGopractice.exec-2911.GoNoGo_Practice";;;;;;;;;;;;;;;;;;;;;;;;;;;;;;;;;;;;;;;;;;;;;;;;;;;;;;;;;;;;;;;;;;;;;;;"1959";"2014-09-29 14:39:12.446";"2";"0";"FINISHED";"LEFT";"success";"375";"0";"2014-09-29 14:39:10.480";"1";;;;;;;;;;
"e1r2m3";"1995";;"Windows 7";"Rachel's Experiment (D.T.)";"1.0";"2";"1";"1";"2";"2";"2";"2014-09-29 14:38:04.726";"2014-09-29 14:54:01.008";"1";"0";;;"1";"9";"8";"module.GoNoGopractice.exec-2911.GoNoGo_Practice";;;;;;;;;;;;;;;;;;;;;;;;;;;;;;;;;;;;;;;;;;;;;;;;;;;;;;;;;;;;;;;;;;;;;;;"1959";"2014-09-29 14:39:15.691";"30";"0";"FINISHED";"LEFT";"success";"362";"0";"2014-09-29 14:39:13.725";"3";;;;;;;;;;
"e1r2m3";"1995";;"Windows 7";"Rachel's Experiment (D.T.)";"1.0";"2";"1";"1";"2";"2";"2";"2014-09-29 14:38:04.726";"2014-09-29 14:54:01.008";"1";"0";;;"1";"10";"9";"module.GoNoGopractice.exec-2911.GoNoGo_Practice";;;;;;;;;;;;;;;;;;;;;;;;;;;;;;;;;;;;;;;;;;;;;;;;;;;;;;;;;;;;;;;;;;;;;;;"1959";"2014-09-29 14:39:18.935";"6";"1";"FINISHED";"RIGHT";"success";"317";"0";"2014-09-29 14:39:16.970";"1";;;;;;;;;;
"e1r2m3";"1995";;"Windows 7";"Rachel's Experiment (D.T.)";"1.0";"2";"1";"1";"2";"2";"2";"2014-09-29 14:38:04.726";"2014-09-29 14:54:01.008";"1";"0";;;"1";"11";"10";"module.GoNoGopractice.exec-2911.GoNoGo_Practice";;;;;;;;;;;;;;;;;;;;;;;;;;;;;;;;;;;;;;;;;;;;;;;;;;;;;;;;;;;;;;;;;;;;;;;"1960";"2014-09-29 14:39:22.180";"34";"0";"FINISHED";"LEFT";"success";"369";"0";"2014-09-29 14:39:20.215";"3";;;;;;;;;;
"e1r2m3";"1995";;"Windows 7";"Rachel's Experiment (D.T.)";"1.0";"2";"1";"1";"2";"2";"2";"2014-09-29 14:38:04.726";"2014-09-29 14:54:01.008";"1";"0";;;"1";"12";"11";"module.GoNoGopractice.exec-2911.GoNoGo_Practice";;;;;;;;;;;;;;;;;;;;;;;;;;;;;;;;;;;;;;;;;;;;;;;;;;;;;;;;;;;;;;;;;;;;;;;"1959";"2014-09-29 14:39:25.425";"23";"1";"FINISHED";"RIGHT";"success";"363";"0";"2014-09-29 14:39:23.459";"3";;;;;;;;;;
"e1r2m3";"1995";;"Windows 7";"Rachel's Experiment (D.T.)";"1.0";"2";"1";"1";"2";"2";"2";"2014-09-29 14:38:04.726";"2014-09-29 14:54:01.008";"1";"0";;;"1";"13";"12";"module.GoNoGopractice.exec-2911.GoNoGo_Practice";;;;;;;;;;;;;;;;;;;;;;;;;;;;;;;;;;;;;;;;;;;;;;;;;;;;;;;;;;;;;;;;;;;;;;;"1959";"2014-09-29 14:39:28.670";"13";"0";"FINISHED";"LEFT";"success";"343";"0";"2014-09-29 14:39:26.704";"2";;;;;;;;;;
"e1r2m3";"1995";;"Windows 7";"Rachel's Experiment (D.T.)";"1.0";"2";"1";"1";"2";"2";"2";"2014-09-29 14:38:04.726";"2014-09-29 14:54:01.008";"1";"0";;;"1";"14";"13";"module.GoNoGopractice.exec-2911.GoNoGo_Practice";;;;;;;;;;;;;;;;;;;;;;;;;;;;;;;;;;;;;;;;;;;;;;;;;;;;;;;;;;;;;;;;;;;;;;;"1960";"2014-09-29 14:39:31.915";"3";"1";"FINISHED";"RIGHT";"success";"331";"0";"2014-09-29 14:39:29.949";"1";;;;;;;;;;
"e1r2m3";"1995";;"Windows 7";"Rachel's Experiment (D.T.)";"1.0";"2";"1";"1";"2";"2";"2";"2014-09-29 14:38:04.726";"2014-09-29 14:54:01.008";"1";"0";;;"1";"15";"14";"module.GoNoGopractice.exec-2911.GoNoGo_Practice";;;;;;;;;;;;;;;;;;;;;;;;;;;;;;;;;;;;;;;;;;;;;;;;;;;;;;;;;;;;;;;;;;;;;;;"1959";"2014-09-29 14:39:35.159";"27";"1";"FINISHED";"RIGHT";"success";"421";"0";"2014-09-29 14:39:33.194";"3";;;;;;;;;;
"e1r2m3";"1995";;"Windows 7";"Rachel's Experiment (D.T.)";"1.0";"2";"1";"1";"2";"2";"2";"2014-09-29 14:38:04.726";"2014-09-29 14:54:01.008";"1";"0";;;"1";"16";"15";"module.training_block1.exec-6432.GoNoGo1";;;;;;;;;;;;;;;;;;;;;;;"1261";"2014-09-29 14:39:42.226";"NST_correctLoc";"27";"1";"FINISHED";"RIGHT";"success";"367";"0";"2014-09-29 14:39:40.963";"3";;;;;;;;;;;;;;;;;;;;;;;;;;;;;;;;;;;;;;;;;;;;;;;;;;;;;;;;;
"e1r2m3";"1995";;"Windows 7";"Rachel's Experiment (D.T.)";"1.0";"2";"1";"1";"2";"2";"2";"2014-09-29 14:38:04.726";"2014-09-29 14:54:01.008";"1";"0";;;"1";"17";"16";"module.training_block1.exec-6432.GoNoGo1";;;;;;;;;;;;;;;;;;;;;;;"1256";"2014-09-29 14:39:44.769";"NST_correctLoc";"4";"0";"FINISHED";"LEFT";"success";"381";"0";"2014-09-29 14:39:43.505";"1";;;;;;;;;;;;;;;;;;;;;;;;;;;;;;;;;;;;;;;;;;;;;;;;;;;;;;;;;
"e1r2m3";"1995";;"Windows 7";"Rachel's Experiment (D.T.)";"1.0";"2";"1";"1";"2";"2";"2";"2014-09-29 14:38:04.726";"2014-09-29 14:54:01.008";"1";"0";;;"1";"18";"17";"module.training_block1.exec-6432.GoNoGo1";;;;;;;;;;;;;;;;;;;;;;;"1261";"2014-09-29 14:39:47.312";"NST_correctLoc";"13";"1";"FINISHED";"RIGHT";"success";"419";"0";"2014-09-29 14:39:46.048";"2";;;;;;;;;;;;;;;;;;;;;;;;;;;;;;;;;;;;;;;;;;;;;;;;;;;;;;;;;
"e1r2m3";"1995";;"Windows 7";"Rachel's Experiment (D.T.)";"1.0";"2";"1";"1";"2";"2";"2";"2014-09-29 14:38:04.726";"2014-09-29 14:54:01.008";"1";"0";;;"1";"19";"18";"module.training_block1.exec-6432.GoNoGo1";;;;;;;;;;;;;;;;;;;;;;;"1257";"2014-09-29 14:39:49.855";"NST_correctLoc";"24";"0";"FINISHED";"LEFT";"success";"352";"0";"2014-09-29 14:39:48.591";"3";;;;;;;;;;;;;;;;;;;;;;;;;;;;;;;;;;;;;;;;;;;;;;;;;;;;;;;;;
"e1r2m3";"1995";;"Windows 7";"Rachel's Experiment (D.T.)";"1.0";"2";"1";"1";"2";"2";"2";"2014-09-29 14:38:04.726";"2014-09-29 14:54:01.008";"1";"0";;;"1";"20";"19";"module.training_block1.exec-6432.GoNoGo1";;;;;;;;;;;;;;;;;;;;;;;"1261";"2014-09-29 14:39:52.398";"NST_correctLoc";"26";"0";"FINISHED";"LEFT";"success";"549";"0";"2014-09-29 14:39:51.134";"3";;;;;;;;;;;;;;;;;;;;;;;;;;;;;;;;;;;;;;;;;;;;;;;;;;;;;;;;;
"e1r2m3";"1995";;"Windows 7";"Rachel's Experiment (D.T.)";"1.0";"2";"1";"1";"2";"2";"2";"2014-09-29 14:38:04.726";"2014-09-29 14:54:01.008";"1";"0";;;"1";"21";"20";"module.training_block1.exec-6432.GoNoGo1";;;;;;;;;;;;;;;;;;;;;;;"1257";"2014-09-29 14:39:54.940";"NST_correctLoc";"7";"0";"FINISHED";"LEFT";"success";"378";"0";"2014-09-29 14:39:53.677";"1";;;;;;;;;;;;;;;;;;;;;;;;;;;;;;;;;;;;;;;;;;;;;;;;;;;;;;;;;
"e1r2m3";"1995";;"Windows 7";"Rachel's Experiment (D.T.)";"1.0";"2";"1";"1";"2";"2";"2";"2014-09-29 14:38:04.726";"2014-09-29 14:54:01.008";"1";"0";;;"1";"22";"21";"module.training_block1.exec-6432.GoNoGo1";;;;;;;;;;;;;;;;;;;;;;;"1257";"2014-09-29 14:39:57.483";"NST_correctLoc";"28";"1";"FINISHED";"RIGHT";"success";"436";"0";"2014-09-29 14:39:56.220";"3";;;;;;;;;;;;;;;;;;;;;;;;;;;;;;;;;;;;;;;;;;;;;;;;;;;;;;;;;
"e1r2m3";"1995";;"Windows 7";"Rachel's Experiment (D.T.)";"1.0";"2";"1";"1";"2";"2";"2";"2014-09-29 14:38:04.726";"2014-09-29 14:54:01.008";"1";"0";;;"1";"23";"22";"module.training_block1.exec-6432.GoNoGo1";;;;;;;;;;;;;;;;;;;;;;;"1261";"2014-09-29 14:40:00.026";"NST_correctLoc";"23";"0";"FINISHED";"LEFT";"success";"345";"0";"2014-09-29 14:39:58.762";"3";;;;;;;;;;;;;;;;;;;;;;;;;;;;;;;;;;;;;;;;;;;;;;;;;;;;;;;;;
"e1r2m3";"1995";;"Windows 7";"Rachel's Experiment (D.T.)";"1.0";"2";"1";"1";"2";"2";"2";"2014-09-29 14:38:04.726";"2014-09-29 14:54:01.008";"1";"0";;;"1";"24";"23";"module.training_block1.exec-6432.GoNoGo1";;;;;;;;;;;;;;;;;;;;;;;"1257";"2014-09-29 14:40:02.584";"NST_correctLoc";"15";"1";"FINISHED";"RIGHT";"success";"422";"0";"2014-09-29 14:40:01.321";"2";;;;;;;;;;;;;;;;;;;;;;;;;;;;;;;;;;;;;;;;;;;;;;;;;;;;;;;;;
"e1r2m3";"1995";;"Windows 7";"Rachel's Experiment (D.T.)";"1.0";"2";"1";"1";"2";"2";"2";"2014-09-29 14:38:04.726";"2014-09-29 14:54:01.008";"1";"0";;;"1";"25";"24";"module.training_block1.exec-6432.GoNoGo1";;;;;;;;;;;;;;;;;;;;;;;"1257";"2014-09-29 14:40:05.127";"NST_correctLoc";"8";"0";"FINISHED";"LEFT";"success";"367";"0";"2014-09-29 14:40:03.864";"1";;;;;;;;;;;;;;;;;;;;;;;;;;;;;;;;;;;;;;;;;;;;;;;;;;;;;;;;;
"e1r2m3";"1995";;"Windows 7";"Rachel's Experiment (D.T.)";"1.0";"2";"1";"1";"2";"2";"2";"2014-09-29 14:38:04.726";"2014-09-29 14:54:01.008";"1";"0";;;"1";"26";"25";"module.training_block1.exec-6432.GoNoGo1";;;;;;;;;;;;;;;;;;;;;;;"1257";"2014-09-29 14:40:07.670";"NST_correctLoc";"29";"1";"FINISHED";"RIGHT";"success";"377";"0";"2014-09-29 14:40:06.406";"3";;;;;;;;;;;;;;;;;;;;;;;;;;;;;;;;;;;;;;;;;;;;;;;;;;;;;;;;;
"e1r2m3";"1995";;"Windows 7";"Rachel's Experiment (D.T.)";"1.0";"2";"1";"1";"2";"2";"2";"2014-09-29 14:38:04.726";"2014-09-29 14:54:01.008";"1";"0";;;"1";"27";"26";"module.training_block1.exec-6432.GoNoGo1";;;;;;;;;;;;;;;;;;;;;;;"1257";"2014-09-29 14:40:10.213";"NST_correctLoc";"20";"1";"FINISHED";"RIGHT";"success";"354";"0";"2014-09-29 14:40:08.949";"3";;;;;;;;;;;;;;;;;;;;;;;;;;;;;;;;;;;;;;;;;;;;;;;;;;;;;;;;;
"e1r2m3";"1995";;"Windows 7";"Rachel's Experiment (D.T.)";"1.0";"2";"1";"1";"2";"2";"2";"2014-09-29 14:38:04.726";"2014-09-29 14:54:01.008";"1";"0";;;"1";"28";"27";"module.training_block1.exec-6432.GoNoGo1";;;;;;;;;;;;;;;;;;;;;;;"1258";"2014-09-29 14:40:12.756";"NST_correctLoc";"25";"1";"FINISHED";"RIGHT";"success";"443";"0";"2014-09-29 14:40:11.492";"3";;;;;;;;;;;;;;;;;;;;;;;;;;;;;;;;;;;;;;;;;;;;;;;;;;;;;;;;;
"e1r2m3";"1995";;"Windows 7";"Rachel's Experiment (D.T.)";"1.0";"2";"1";"1";"2";"2";"2";"2014-09-29 14:38:04.726";"2014-09-29 14:54:01.008";"1";"0";;;"1";"29";"28";"module.training_block1.exec-6432.GoNoGo1";;;;;;;;;;;;;;;;;;;;;;;"1261";"2014-09-29 14:40:15.298";"NST_correctLoc";"2";"0";"FINISHED";"LEFT";"success";"592";"0";"2014-09-29 14:40:14.035";"1";;;;;;;;;;;;;;;;;;;;;;;;;;;;;;;;;;;;;;;;;;;;;;;;;;;;;;;;;
"e1r2m3";"1995";;"Windows 7";"Rachel's Experiment (D.T.)";"1.0";"2";"1";"1";"2";"2";"2";"2014-09-29 14:38:04.726";"2014-09-29 14:54:01.008";"1";"0";;;"1";"30";"29";"module.training_block1.exec-6432.GoNoGo1";;;;;;;;;;;;;;;;;;;;;;;"1256";"2014-09-29 14:40:17.841";"NST_correctLoc";"17";"1";"FINISHED";"RIGHT";"success";"460";"0";"2014-09-29 14:40:16.578";"2";;;;;;;;;;;;;;;;;;;;;;;;;;;;;;;;;;;;;;;;;;;;;;;;;;;;;;;;;
"e1r2m3";"1995";;"Windows 7";"Rachel's Experiment (D.T.)";"1.0";"2";"1";"1";"2";"2";"2";"2014-09-29 14:38:04.726";"2014-09-29 14:54:01.008";"1";"0";;;"1";"31";"30";"module.training_block1.exec-6432.GoNoGo1";;;;;;;;;;;;;;;;;;;;;;;"1259";"2014-09-29 14:40:20.384";"NST_correctLoc";"10";"1";"FINISHED";"RIGHT";"success";"344";"0";"2014-09-29 14:40:19.120";"2";;;;;;;;;;;;;;;;;;;;;;;;;;;;;;;;;;;;;;;;;;;;;;;;;;;;;;;;;
"e1r2m3";"1995";;"Windows 7";"Rachel's Experiment (D.T.)";"1.0";"2";"1";"1";"2";"2";"2";"2014-09-29 14:38:04.726";"2014-09-29 14:54:01.008";"1";"0";;;"1";"32";"31";"module.training_block1.exec-6432.GoNoGo1";;;;;;;;;;;;;;;;;;;;;;;"1257";"2014-09-29 14:40:22.927";"NST_correctLoc";"11";"1";"FINISHED";"RIGHT";"success";"368";"0";"2014-09-29 14:40:21.663";"2";;;;;;;;;;;;;;;;;;;;;;;;;;;;;;;;;;;;;;;;;;;;;;;;;;;;;;;;;
"e1r2m3";"1995";;"Windows 7";"Rachel's Experiment (D.T.)";"1.0";"2";"1";"1";"2";"2";"2";"2014-09-29 14:38:04.726";"2014-09-29 14:54:01.008";"1";"0";;;"1";"33";"32";"module.training_block1.exec-6432.GoNoGo1";;;;;;;;;;;;;;;;;;;;;;;"1258";"2014-09-29 14:40:25.470";"NST_correctLoc";"33";"1";"FINISHED";"RIGHT";"success";"401";"0";"2014-09-29 14:40:24.206";"3";;;;;;;;;;;;;;;;;;;;;;;;;;;;;;;;;;;;;;;;;;;;;;;;;;;;;;;;;
"e1r2m3";"1995";;"Windows 7";"Rachel's Experiment (D.T.)";"1.0";"2";"1";"1";"2";"2";"2";"2014-09-29 14:38:04.726";"2014-09-29 14:54:01.008";"1";"0";;;"1";"34";"33";"module.training_block1.exec-6432.GoNoGo1";;;;;;;;;;;;;;;;;;;;;;;"1258";"2014-09-29 14:40:28.012";"NST_wrongLoc";"18";"0";"FINISHED";"RIGHT";"failure";"426";"0";"2014-09-29 14:40:26.749";"3";;;;;;;;;;;;;;;;;;;;;;;;;;;;;;;;;;;;;;;;;;;;;;;;;;;;;;;;;
"e1r2m3";"1995";;"Windows 7";"Rachel's Experiment (D.T.)";"1.0";"2";"1";"1";"2";"2";"2";"2014-09-29 14:38:04.726";"2014-09-29 14:54:01.008";"1";"0";;;"1";"35";"34";"module.training_block1.exec-6432.GoNoGo1";;;;;;;;;;;;;;;;;;;;;;;"1261";"2014-09-29 14:40:30.555";"NST_correctLoc";"3";"0";"FINISHED";"LEFT";"success";"439";"0";"2014-09-29 14:40:29.292";"1";;;;;;;;;;;;;;;;;;;;;;;;;;;;;;;;;;;;;;;;;;;;;;;;;;;;;;;;;
"e1r2m3";"1995";;"Windows 7";"Rachel's Experiment (D.T.)";"1.0";"2";"1";"1";"2";"2";"2";"2014-09-29 14:38:04.726";"2014-09-29 14:54:01.008";"1";"0";;;"1";"36";"35";"module.training_block1.exec-6432.GoNoGo1";;;;;;;;;;;;;;;;;;;;;;;"1257";"2014-09-29 14:40:33.098";"NST_miss";"12";"1";"FINISHED";"NONE";"failure";"0";"0";"2014-09-29 14:40:31.834";"2";;;;;;;;;;;;;;;;;;;;;;;;;;;;;;;;;;;;;;;;;;;;;;;;;;;;;;;;;
"e1r2m3";"1995";;"Windows 7";"Rachel's Experiment (D.T.)";"1.0";"2";"1";"1";"2";"2";"2";"2014-09-29 14:38:04.726";"2014-09-29 14:54:01.008";"1";"0";;;"1";"37";"36";"module.training_block1.exec-6432.GoNoGo1";;;;;;;;;;;;;;;;;;;;;;;"1257";"2014-09-29 14:40:35.641";"NST_correctLoc";"0";"0";"FINISHED";"LEFT";"success";"581";"0";"2014-09-29 14:40:34.377";"1";;;;;;;;;;;;;;;;;;;;;;;;;;;;;;;;;;;;;;;;;;;;;;;;;;;;;;;;;
"e1r2m3";"1995";;"Windows 7";"Rachel's Experiment (D.T.)";"1.0";"2";"1";"1";"2";"2";"2";"2014-09-29 14:38:04.726";"2014-09-29 14:54:01.008";"1";"0";;;"1";"38";"37";"module.training_block1.exec-6432.GoNoGo1";;;;;;;;;;;;;;;;;;;;;;;"1257";"2014-09-29 14:40:38.184";"NST_correctLoc";"31";"0";"FINISHED";"LEFT";"success";"750";"0";"2014-09-29 14:40:36.920";"3";;;;;;;;;;;;;;;;;;;;;;;;;;;;;;;;;;;;;;;;;;;;;;;;;;;;;;;;;
"e1r2m3";"1995";;"Windows 7";"Rachel's Experiment (D.T.)";"1.0";"2";"1";"1";"2";"2";"2";"2014-09-29 14:38:04.726";"2014-09-29 14:54:01.008";"1";"0";;;"1";"39";"38";"module.training_block1.exec-6432.GoNoGo1";;;;;;;;;;;;;;;;;;;;;;;"1261";"2014-09-29 14:40:40.726";"NST_correctLoc";"6";"0";"FINISHED";"LEFT";"success";"684";"0";"2014-09-29 14:40:39.463";"1";;;;;;;;;;;;;;;;;;;;;;;;;;;;;;;;;;;;;;;;;;;;;;;;;;;;;;;;;
"e1r2m3";"1995";;"Windows 7";"Rachel's Experiment (D.T.)";"1.0";"2";"1";"1";"2";"2";"2";"2014-09-29 14:38:04.726";"2014-09-29 14:54:01.008";"1";"0";;;"1";"40";"39";"module.training_block1.exec-6432.GoNoGo1";;;;;;;;;;;;;;;;;;;;;;;"1257";"2014-09-29 14:40:43.269";"NST_correctLoc";"5";"0";"FINISHED";"LEFT";"success";"497";"0";"2014-09-29 14:40:42.006";"1";;;;;;;;;;;;;;;;;;;;;;;;;;;;;;;;;;;;;;;;;;;;;;;;;;;;;;;;;
"e1r2m3";"1995";;"Windows 7";"Rachel's Experiment (D.T.)";"1.0";"2";"1";"1";"2";"2";"2";"2014-09-29 14:38:04.726";"2014-09-29 14:54:01.008";"1";"0";;;"1";"41";"40";"module.training_block1.exec-6432.GoNoGo1";;;;;;;;;;;;;;;;;;;;;;;"1261";"2014-09-29 14:40:45.812";"NST_correctLoc";"14";"0";"FINISHED";"LEFT";"success";"606";"0";"2014-09-29 14:40:44.548";"2";;;;;;;;;;;;;;;;;;;;;;;;;;;;;;;;;;;;;;;;;;;;;;;;;;;;;;;;;
"e1r2m3";"1995";;"Windows 7";"Rachel's Experiment (D.T.)";"1.0";"2";"1";"1";"2";"2";"2";"2014-09-29 14:38:04.726";"2014-09-29 14:54:01.008";"1";"0";;;"1";"42";"41";"module.training_block1.exec-6432.GoNoGo1";;;;;;;;;;;;;;;;;;;;;;;"1257";"2014-09-29 14:40:48.355";"NST_correctLoc";"1";"0";"FINISHED";"LEFT";"success";"459";"0";"2014-09-29 14:40:47.091";"1";;;;;;;;;;;;;;;;;;;;;;;;;;;;;;;;;;;;;;;;;;;;;;;;;;;;;;;;;
"e1r2m3";"1995";;"Windows 7";"Rachel's Experiment (D.T.)";"1.0";"2";"1";"1";"2";"2";"2";"2014-09-29 14:38:04.726";"2014-09-29 14:54:01.008";"1";"0";;;"1";"43";"42";"module.training_block1.exec-6432.GoNoGo1";;;;;;;;;;;;;;;;;;;;;;;"1257";"2014-09-29 14:40:50.898";"NST_correctLoc";"9";"1";"FINISHED";"RIGHT";"success";"413";"0";"2014-09-29 14:40:49.634";"2";;;;;;;;;;;;;;;;;;;;;;;;;;;;;;;;;;;;;;;;;;;;;;;;;;;;;;;;;
"e1r2m3";"1995";;"Windows 7";"Rachel's Experiment (D.T.)";"1.0";"2";"1";"1";"2";"2";"2";"2014-09-29 14:38:04.726";"2014-09-29 14:54:01.008";"1";"0";;;"1";"44";"43";"module.training_block1.exec-6432.GoNoGo1";;;;;;;;;;;;;;;;;;;;;;;"1257";"2014-09-29 14:40:53.440";"NST_correctLoc";"32";"1";"FINISHED";"RIGHT";"success";"422";"0";"2014-09-29 14:40:52.177";"3";;;;;;;;;;;;;;;;;;;;;;;;;;;;;;;;;;;;;;;;;;;;;;;;;;;;;;;;;
"e1r2m3";"1995";;"Windows 7";"Rachel's Experiment (D.T.)";"1.0";"2";"1";"1";"2";"2";"2";"2014-09-29 14:38:04.726";"2014-09-29 14:54:01.008";"1";"0";;;"1";"45";"44";"module.training_block1.exec-6432.GoNoGo1";;;;;;;;;;;;;;;;;;;;;;;"1257";"2014-09-29 14:40:55.983";"NST_correctLoc";"16";"1";"FINISHED";"RIGHT";"success";"487";"0";"2014-09-29 14:40:54.720";"2";;;;;;;;;;;;;;;;;;;;;;;;;;;;;;;;;;;;;;;;;;;;;;;;;;;;;;;;;
"e1r2m3";"1995";;"Windows 7";"Rachel's Experiment (D.T.)";"1.0";"2";"1";"1";"2";"2";"2";"2014-09-29 14:38:04.726";"2014-09-29 14:54:01.008";"1";"0";;;"1";"46";"45";"module.training_block1.exec-6432.GoNoGo1";;;;;;;;;;;;;;;;;;;;;;;"1257";"2014-09-29 14:40:58.526";"NST_correctLoc";"22";"0";"FINISHED";"LEFT";"success";"440";"0";"2014-09-29 14:40:57.262";"3";;;;;;;;;;;;;;;;;;;;;;;;;;;;;;;;;;;;;;;;;;;;;;;;;;;;;;;;;
"e1r2m3";"1995";;"Windows 7";"Rachel's Experiment (D.T.)";"1.0";"2";"1";"1";"2";"2";"2";"2014-09-29 14:38:04.726";"2014-09-29 14:54:01.008";"1";"0";;;"1";"47";"46";"module.training_block1.exec-6432.GoNoGo1";;;;;;;;;;;;;;;;;;;;;;;"1258";"2014-09-29 14:41:01.069";"NST_correctLoc";"35";"1";"FINISHED";"RIGHT";"success";"394";"0";"2014-09-29 14:40:59.805";"3";;;;;;;;;;;;;;;;;;;;;;;;;;;;;;;;;;;;;;;;;;;;;;;;;;;;;;;;;
"e1r2m3";"1995";;"Windows 7";"Rachel's Experiment (D.T.)";"1.0";"2";"1";"1";"2";"2";"2";"2014-09-29 14:38:04.726";"2014-09-29 14:54:01.008";"1";"0";;;"1";"48";"47";"module.training_block1.exec-6432.GoNoGo1";;;;;;;;;;;;;;;;;;;;;;;"1261";"2014-09-29 14:41:03.612";"NST_correctLoc";"34";"1";"FINISHED";"RIGHT";"success";"398";"0";"2014-09-29 14:41:02.348";"3";;;;;;;;;;;;;;;;;;;;;;;;;;;;;;;;;;;;;;;;;;;;;;;;;;;;;;;;;
"e1r2m3";"1995";;"Windows 7";"Rachel's Experiment (D.T.)";"1.0";"2";"1";"1";"2";"2";"2";"2014-09-29 14:38:04.726";"2014-09-29 14:54:01.008";"1";"0";;;"1";"49";"48";"module.training_block1.exec-6432.GoNoGo1";;;;;;;;;;;;;;;;;;;;;;;"1261";"2014-09-29 14:41:06.154";"NST_correctLoc";"21";"0";"FINISHED";"LEFT";"success";"384";"0";"2014-09-29 14:41:04.891";"3";;;;;;;;;;;;;;;;;;;;;;;;;;;;;;;;;;;;;;;;;;;;;;;;;;;;;;;;;
"e1r2m3";"1995";;"Windows 7";"Rachel's Experiment (D.T.)";"1.0";"2";"1";"1";"2";"2";"2";"2014-09-29 14:38:04.726";"2014-09-29 14:54:01.008";"1";"0";;;"1";"50";"49";"module.training_block1.exec-6432.GoNoGo1";;;;;;;;;;;;;;;;;;;;;;;"1261";"2014-09-29 14:41:08.697";"NST_correctLoc";"30";"1";"FINISHED";"RIGHT";"success";"385";"0";"2014-09-29 14:41:07.434";"3";;;;;;;;;;;;;;;;;;;;;;;;;;;;;;;;;;;;;;;;;;;;;;;;;;;;;;;;;
"e1r2m3";"1995";;"Windows 7";"Rachel's Experiment (D.T.)";"1.0";"2";"1";"1";"2";"2";"2";"2014-09-29 14:38:04.726";"2014-09-29 14:54:01.008";"1";"0";;;"1";"51";"50";"module.training_block1.exec-6432.GoNoGo1";;;;;;;;;;;;;;;;;;;;;;;"1257";"2014-09-29 14:41:11.240";"NST_correctLoc";"19";"1";"FINISHED";"RIGHT";"success";"566";"0";"2014-09-29 14:41:09.976";"3";;;;;;;;;;;;;;;;;;;;;;;;;;;;;;;;;;;;;;;;;;;;;;;;;;;;;;;;;
"e1r2m3";"1995";;"Windows 7";"Rachel's Experiment (D.T.)";"1.0";"2";"1";"1";"2";"2";"2";"2014-09-29 14:38:04.726";"2014-09-29 14:54:01.008";"1";"0";;;"1";"52";"51";"module.training_block2.exec-7647.GoNoGo2";;;;;;;;;;;;;;;;;;;;;;;;;;;;;;;;;;;"1261";"2014-09-29 14:42:13.203";"NST_correctLoc";"0";"0";"FINISHED";"LEFT";"success";"398";"0";"2014-09-29 14:42:11.940";"1";;;;;;;;;;;;;;;;;;;;;;;;;;;;;;;;;;;;;;;;;;;;;
"e1r2m3";"1995";;"Windows 7";"Rachel's Experiment (D.T.)";"1.0";"2";"1";"1";"2";"2";"2";"2014-09-29 14:38:04.726";"2014-09-29 14:54:01.008";"1";"0";;;"1";"53";"52";"module.training_block2.exec-7647.GoNoGo2";;;;;;;;;;;;;;;;;;;;;;;;;;;;;;;;;;;"1261";"2014-09-29 14:42:15.746";"NST_correctLoc";"19";"0";"FINISHED";"LEFT";"success";"399";"0";"2014-09-29 14:42:14.483";"3";;;;;;;;;;;;;;;;;;;;;;;;;;;;;;;;;;;;;;;;;;;;;
"e1r2m3";"1995";;"Windows 7";"Rachel's Experiment (D.T.)";"1.0";"2";"1";"1";"2";"2";"2";"2014-09-29 14:38:04.726";"2014-09-29 14:54:01.008";"1";"0";;;"1";"54";"53";"module.training_block2.exec-7647.GoNoGo2";;;;;;;;;;;;;;;;;;;;;;;;;;;;;;;;;;;"1261";"2014-09-29 14:42:18.289";"NST_correctLoc";"22";"1";"FINISHED";"RIGHT";"success";"425";"0";"2014-09-29 14:42:17.025";"3";;;;;;;;;;;;;;;;;;;;;;;;;;;;;;;;;;;;;;;;;;;;;
"e1r2m3";"1995";;"Windows 7";"Rachel's Experiment (D.T.)";"1.0";"2";"1";"1";"2";"2";"2";"2014-09-29 14:38:04.726";"2014-09-29 14:54:01.008";"1";"0";;;"1";"55";"54";"module.training_block2.exec-7647.GoNoGo2";;;;;;;;;;;;;;;;;;;;;;;;;;;;;;;;;;;"1261";"2014-09-29 14:42:20.832";"NST_correctLoc";"35";"0";"FINISHED";"LEFT";"success";"354";"0";"2014-09-29 14:42:19.568";"3";;;;;;;;;;;;;;;;;;;;;;;;;;;;;;;;;;;;;;;;;;;;;
"e1r2m3";"1995";;"Windows 7";"Rachel's Experiment (D.T.)";"1.0";"2";"1";"1";"2";"2";"2";"2014-09-29 14:38:04.726";"2014-09-29 14:54:01.008";"1";"0";;;"1";"56";"55";"module.training_block2.exec-7647.GoNoGo2";;;;;;;;;;;;;;;;;;;;;;;;;;;;;;;;;;;"1261";"2014-09-29 14:42:23.375";"NST_correctLoc";"7";"1";"FINISHED";"RIGHT";"success";"387";"0";"2014-09-29 14:42:22.111";"1";;;;;;;;;;;;;;;;;;;;;;;;;;;;;;;;;;;;;;;;;;;;;
"e1r2m3";"1995";;"Windows 7";"Rachel's Experiment (D.T.)";"1.0";"2";"1";"1";"2";"2";"2";"2014-09-29 14:38:04.726";"2014-09-29 14:54:01.008";"1";"0";;;"1";"57";"56";"module.training_block2.exec-7647.GoNoGo2";;;;;;;;;;;;;;;;;;;;;;;;;;;;;;;;;;;"1261";"2014-09-29 14:42:25.917";"NST_wrongLoc";"23";"0";"FINISHED";"RIGHT";"failure";"484";"0";"2014-09-29 14:42:24.654";"3";;;;;;;;;;;;;;;;;;;;;;;;;;;;;;;;;;;;;;;;;;;;;
"e1r2m3";"1995";;"Windows 7";"Rachel's Experiment (D.T.)";"1.0";"2";"1";"1";"2";"2";"2";"2014-09-29 14:38:04.726";"2014-09-29 14:54:01.008";"1";"0";;;"1";"58";"57";"module.training_block2.exec-7647.GoNoGo2";;;;;;;;;;;;;;;;;;;;;;;;;;;;;;;;;;;"1261";"2014-09-29 14:42:28.460";"NST_correctLoc";"29";"1";"FINISHED";"RIGHT";"success";"413";"0";"2014-09-29 14:42:27.197";"3";;;;;;;;;;;;;;;;;;;;;;;;;;;;;;;;;;;;;;;;;;;;;
"e1r2m3";"1995";;"Windows 7";"Rachel's Experiment (D.T.)";"1.0";"2";"1";"1";"2";"2";"2";"2014-09-29 14:38:04.726";"2014-09-29 14:54:01.008";"1";"0";;;"1";"59";"58";"module.training_block2.exec-7647.GoNoGo2";;;;;;;;;;;;;;;;;;;;;;;;;;;;;;;;;;;"1261";"2014-09-29 14:42:31.003";"NST_correctLoc";"14";"0";"FINISHED";"LEFT";"success";"382";"0";"2014-09-29 14:42:29.739";"2";;;;;;;;;;;;;;;;;;;;;;;;;;;;;;;;;;;;;;;;;;;;;
"e1r2m3";"1995";;"Windows 7";"Rachel's Experiment (D.T.)";"1.0";"2";"1";"1";"2";"2";"2";"2014-09-29 14:38:04.726";"2014-09-29 14:54:01.008";"1";"0";;;"1";"60";"59";"module.training_block2.exec-7647.GoNoGo2";;;;;;;;;;;;;;;;;;;;;;;;;;;;;;;;;;;"1261";"2014-09-29 14:42:33.546";"NST_correctLoc";"21";"1";"FINISHED";"RIGHT";"success";"376";"0";"2014-09-29 14:42:32.282";"3";;;;;;;;;;;;;;;;;;;;;;;;;;;;;;;;;;;;;;;;;;;;;
"e1r2m3";"1995";;"Windows 7";"Rachel's Experiment (D.T.)";"1.0";"2";"1";"1";"2";"2";"2";"2014-09-29 14:38:04.726";"2014-09-29 14:54:01.008";"1";"0";;;"1";"61";"60";"module.training_block2.exec-7647.GoNoGo2";;;;;;;;;;;;;;;;;;;;;;;;;;;;;;;;;;;"1261";"2014-09-29 14:42:36.089";"NST_correctLoc";"15";"0";"FINISHED";"LEFT";"success";"497";"0";"2014-09-29 14:42:34.825";"2";;;;;;;;;;;;;;;;;;;;;;;;;;;;;;;;;;;;;;;;;;;;;
"e1r2m3";"1995";;"Windows 7";"Rachel's Experiment (D.T.)";"1.0";"2";"1";"1";"2";"2";"2";"2014-09-29 14:38:04.726";"2014-09-29 14:54:01.008";"1";"0";;;"1";"62";"61";"module.training_block2.exec-7647.GoNoGo2";;;;;;;;;;;;;;;;;;;;;;;;;;;;;;;;;;;"1261";"2014-09-29 14:42:38.631";"NST_correctLoc";"11";"0";"FINISHED";"LEFT";"success";"354";"0";"2014-09-29 14:42:37.368";"2";;;;;;;;;;;;;;;;;;;;;;;;;;;;;;;;;;;;;;;;;;;;;
"e1r2m3";"1995";;"Windows 7";"Rachel's Experiment (D.T.)";"1.0";"2";"1";"1";"2";"2";"2";"2014-09-29 14:38:04.726";"2014-09-29 14:54:01.008";"1";"0";;;"1";"63";"62";"module.training_block2.exec-7647.GoNoGo2";;;;;;;;;;;;;;;;;;;;;;;;;;;;;;;;;;;"1261";"2014-09-29 14:42:41.174";"NST_correctLoc";"10";"0";"FINISHED";"LEFT";"success";"371";"0";"2014-09-29 14:42:39.911";"2";;;;;;;;;;;;;;;;;;;;;;;;;;;;;;;;;;;;;;;;;;;;;
"e1r2m3";"1995";;"Windows 7";"Rachel's Experiment (D.T.)";"1.0";"2";"1";"1";"2";"2";"2";"2014-09-29 14:38:04.726";"2014-09-29 14:54:01.008";"1";"0";;;"1";"64";"63";"module.training_block2.exec-7647.GoNoGo2";;;;;;;;;;;;;;;;;;;;;;;;;;;;;;;;;;;"1261";"2014-09-29 14:42:43.717";"NST_correctLoc";"8";"1";"FINISHED";"RIGHT";"success";"428";"0";"2014-09-29 14:42:42.453";"1";;;;;;;;;;;;;;;;;;;;;;;;;;;;;;;;;;;;;;;;;;;;;
"e1r2m3";"1995";;"Windows 7";"Rachel's Experiment (D.T.)";"1.0";"2";"1";"1";"2";"2";"2";"2014-09-29 14:38:04.726";"2014-09-29 14:54:01.008";"1";"0";;;"1";"65";"64";"module.training_block2.exec-7647.GoNoGo2";;;;;;;;;;;;;;;;;;;;;;;;;;;;;;;;;;;"1261";"2014-09-29 14:42:46.260";"NST_correctLoc";"26";"0";"FINISHED";"LEFT";"success";"342";"0";"2014-09-29 14:42:44.996";"3";;;;;;;;;;;;;;;;;;;;;;;;;;;;;;;;;;;;;;;;;;;;;
"e1r2m3";"1995";;"Windows 7";"Rachel's Experiment (D.T.)";"1.0";"2";"1";"1";"2";"2";"2";"2014-09-29 14:38:04.726";"2014-09-29 14:54:01.008";"1";"0";;;"1";"66";"65";"module.training_block2.exec-7647.GoNoGo2";;;;;;;;;;;;;;;;;;;;;;;;;;;;;;;;;;;"1261";"2014-09-29 14:42:48.865";"NST_correctLoc";"18";"0";"FINISHED";"LEFT";"success";"376";"0";"2014-09-29 14:42:47.601";"3";;;;;;;;;;;;;;;;;;;;;;;;;;;;;;;;;;;;;;;;;;;;;
"e1r2m3";"1995";;"Windows 7";"Rachel's Experiment (D.T.)";"1.0";"2";"1";"1";"2";"2";"2";"2014-09-29 14:38:04.726";"2014-09-29 14:54:01.008";"1";"0";;;"1";"67";"66";"module.training_block2.exec-7647.GoNoGo2";;;;;;;;;;;;;;;;;;;;;;;;;;;;;;;;;;;"1261";"2014-09-29 14:42:51.408";"NST_correctLoc";"17";"0";"FINISHED";"LEFT";"success";"481";"0";"2014-09-29 14:42:50.144";"2";;;;;;;;;;;;;;;;;;;;;;;;;;;;;;;;;;;;;;;;;;;;;
"e1r2m3";"1995";;"Windows 7";"Rachel's Experiment (D.T.)";"1.0";"2";"1";"1";"2";"2";"2";"2014-09-29 14:38:04.726";"2014-09-29 14:54:01.008";"1";"0";;;"1";"68";"67";"module.training_block2.exec-7647.GoNoGo2";;;;;;;;;;;;;;;;;;;;;;;;;;;;;;;;;;;"1261";"2014-09-29 14:42:54.029";"NST_correctLoc";"33";"0";"FINISHED";"LEFT";"success";"629";"0";"2014-09-29 14:42:52.765";"3";;;;;;;;;;;;;;;;;;;;;;;;;;;;;;;;;;;;;;;;;;;;;
"e1r2m3";"1995";;"Windows 7";"Rachel's Experiment (D.T.)";"1.0";"2";"1";"1";"2";"2";"2";"2014-09-29 14:38:04.726";"2014-09-29 14:54:01.008";"1";"0";;;"1";"69";"68";"module.training_block2.exec-7647.GoNoGo2";;;;;;;;;;;;;;;;;;;;;;;;;;;;;;;;;;;"1261";"2014-09-29 14:42:56.571";"NST_correctLoc";"25";"1";"FINISHED";"RIGHT";"success";"510";"0";"2014-09-29 14:42:55.308";"3";;;;;;;;;;;;;;;;;;;;;;;;;;;;;;;;;;;;;;;;;;;;;
"e1r2m3";"1995";;"Windows 7";"Rachel's Experiment (D.T.)";"1.0";"2";"1";"1";"2";"2";"2";"2014-09-29 14:38:04.726";"2014-09-29 14:54:01.008";"1";"0";;;"1";"70";"69";"module.training_block2.exec-7647.GoNoGo2";;;;;;;;;;;;;;;;;;;;;;;;;;;;;;;;;;;"1261";"2014-09-29 14:42:59.114";"NST_correctLoc";"3";"0";"FINISHED";"LEFT";"success";"423";"0";"2014-09-29 14:42:57.851";"1";;;;;;;;;;;;;;;;;;;;;;;;;;;;;;;;;;;;;;;;;;;;;
"e1r2m3";"1995";;"Windows 7";"Rachel's Experiment (D.T.)";"1.0";"2";"1";"1";"2";"2";"2";"2014-09-29 14:38:04.726";"2014-09-29 14:54:01.008";"1";"0";;;"1";"71";"70";"module.training_block2.exec-7647.GoNoGo2";;;;;;;;;;;;;;;;;;;;;;;;;;;;;;;;;;;"1261";"2014-09-29 14:43:01.657";"NST_correctLoc";"5";"1";"FINISHED";"RIGHT";"success";"656";"0";"2014-09-29 14:43:00.393";"1";;;;;;;;;;;;;;;;;;;;;;;;;;;;;;;;;;;;;;;;;;;;;
"e1r2m3";"1995";;"Windows 7";"Rachel's Experiment (D.T.)";"1.0";"2";"1";"1";"2";"2";"2";"2014-09-29 14:38:04.726";"2014-09-29 14:54:01.008";"1";"0";;;"1";"72";"71";"module.training_block2.exec-7647.GoNoGo2";;;;;;;;;;;;;;;;;;;;;;;;;;;;;;;;;;;"1261";"2014-09-29 14:43:04.200";"NST_correctLoc";"20";"0";"FINISHED";"LEFT";"success";"257";"0";"2014-09-29 14:43:02.936";"3";;;;;;;;;;;;;;;;;;;;;;;;;;;;;;;;;;;;;;;;;;;;;
"e1r2m3";"1995";;"Windows 7";"Rachel's Experiment (D.T.)";"1.0";"2";"1";"1";"2";"2";"2";"2014-09-29 14:38:04.726";"2014-09-29 14:54:01.008";"1";"0";;;"1";"73";"72";"module.training_block2.exec-7647.GoNoGo2";;;;;;;;;;;;;;;;;;;;;;;;;;;;;;;;;;;"1261";"2014-09-29 14:43:06.743";"NST_correctLoc";"13";"0";"FINISHED";"LEFT";"success";"514";"0";"2014-09-29 14:43:05.479";"2";;;;;;;;;;;;;;;;;;;;;;;;;;;;;;;;;;;;;;;;;;;;;
"e1r2m3";"1995";;"Windows 7";"Rachel's Experiment (D.T.)";"1.0";"2";"1";"1";"2";"2";"2";"2014-09-29 14:38:04.726";"2014-09-29 14:54:01.008";"1";"0";;;"1";"74";"73";"module.training_block2.exec-7647.GoNoGo2";;;;;;;;;;;;;;;;;;;;;;;;;;;;;;;;;;;"1261";"2014-09-29 14:43:09.285";"NST_correctLoc";"32";"1";"FINISHED";"RIGHT";"success";"628";"0";"2014-09-29 14:43:08.022";"3";;;;;;;;;;;;;;;;;;;;;;;;;;;;;;;;;;;;;;;;;;;;;
"e1r2m3";"1995";;"Windows 7";"Rachel's Experiment (D.T.)";"1.0";"2";"1";"1";"2";"2";"2";"2014-09-29 14:38:04.726";"2014-09-29 14:54:01.008";"1";"0";;;"1";"75";"74";"module.training_block2.exec-7647.GoNoGo2";;;;;;;;;;;;;;;;;;;;;;;;;;;;;;;;;;;"1261";"2014-09-29 14:43:11.828";"NST_correctLoc";"1";"0";"FINISHED";"LEFT";"success";"333";"0";"2014-09-29 14:43:10.565";"1";;;;;;;;;;;;;;;;;;;;;;;;;;;;;;;;;;;;;;;;;;;;;
"e1r2m3";"1995";;"Windows 7";"Rachel's Experiment (D.T.)";"1.0";"2";"1";"1";"2";"2";"2";"2014-09-29 14:38:04.726";"2014-09-29 14:54:01.008";"1";"0";;;"1";"76";"75";"module.training_block2.exec-7647.GoNoGo2";;;;;;;;;;;;;;;;;;;;;;;;;;;;;;;;;;;"1261";"2014-09-29 14:43:14.371";"NST_correctLoc";"30";"1";"FINISHED";"RIGHT";"success";"630";"0";"2014-09-29 14:43:13.107";"3";;;;;;;;;;;;;;;;;;;;;;;;;;;;;;;;;;;;;;;;;;;;;
"e1r2m3";"1995";;"Windows 7";"Rachel's Experiment (D.T.)";"1.0";"2";"1";"1";"2";"2";"2";"2014-09-29 14:38:04.726";"2014-09-29 14:54:01.008";"1";"0";;;"1";"77";"76";"module.training_block2.exec-7647.GoNoGo2";;;;;;;;;;;;;;;;;;;;;;;;;;;;;;;;;;;"1261";"2014-09-29 14:43:16.914";"NST_correctLoc";"6";"1";"FINISHED";"RIGHT";"success";"775";"0";"2014-09-29 14:43:15.650";"1";;;;;;;;;;;;;;;;;;;;;;;;;;;;;;;;;;;;;;;;;;;;;
"e1r2m3";"1995";;"Windows 7";"Rachel's Experiment (D.T.)";"1.0";"2";"1";"1";"2";"2";"2";"2014-09-29 14:38:04.726";"2014-09-29 14:54:01.008";"1";"0";;;"1";"78";"77";"module.training_block2.exec-7647.GoNoGo2";;;;;;;;;;;;;;;;;;;;;;;;;;;;;;;;;;;"1261";"2014-09-29 14:43:19.457";"NST_correctLoc";"2";"0";"FINISHED";"LEFT";"success";"944";"0";"2014-09-29 14:43:18.193";"1";;;;;;;;;;;;;;;;;;;;;;;;;;;;;;;;;;;;;;;;;;;;;
"e1r2m3";"1995";;"Windows 7";"Rachel's Experiment (D.T.)";"1.0";"2";"1";"1";"2";"2";"2";"2014-09-29 14:38:04.726";"2014-09-29 14:54:01.008";"1";"0";;;"1";"79";"78";"module.training_block2.exec-7647.GoNoGo2";;;;;;;;;;;;;;;;;;;;;;;;;;;;;;;;;;;"1261";"2014-09-29 14:43:21.999";"NST_correctLoc";"27";"1";"FINISHED";"RIGHT";"success";"482";"0";"2014-09-29 14:43:20.736";"3";;;;;;;;;;;;;;;;;;;;;;;;;;;;;;;;;;;;;;;;;;;;;
"e1r2m3";"1995";;"Windows 7";"Rachel's Experiment (D.T.)";"1.0";"2";"1";"1";"2";"2";"2";"2014-09-29 14:38:04.726";"2014-09-29 14:54:01.008";"1";"0";;;"1";"80";"79";"module.training_block2.exec-7647.GoNoGo2";;;;;;;;;;;;;;;;;;;;;;;;;;;;;;;;;;;"1261";"2014-09-29 14:43:24.542";"NST_correctLoc";"9";"0";"FINISHED";"LEFT";"success";"379";"0";"2014-09-29 14:43:23.279";"2";;;;;;;;;;;;;;;;;;;;;;;;;;;;;;;;;;;;;;;;;;;;;
"e1r2m3";"1995";;"Windows 7";"Rachel's Experiment (D.T.)";"1.0";"2";"1";"1";"2";"2";"2";"2014-09-29 14:38:04.726";"2014-09-29 14:54:01.008";"1";"0";;;"1";"81";"80";"module.training_block2.exec-7647.GoNoGo2";;;;;;;;;;;;;;;;;;;;;;;;;;;;;;;;;;;"1261";"2014-09-29 14:43:27.101";"NST_correctLoc";"12";"0";"FINISHED";"LEFT";"success";"1004";"0";"2014-09-29 14:43:25.837";"2";;;;;;;;;;;;;;;;;;;;;;;;;;;;;;;;;;;;;;;;;;;;;
"e1r2m3";"1995";;"Windows 7";"Rachel's Experiment (D.T.)";"1.0";"2";"1";"1";"2";"2";"2";"2014-09-29 14:38:04.726";"2014-09-29 14:54:01.008";"1";"0";;;"1";"82";"81";"module.training_block2.exec-7647.GoNoGo2";;;;;;;;;;;;;;;;;;;;;;;;;;;;;;;;;;;"1261";"2014-09-29 14:43:29.643";"NST_correctLoc";"34";"0";"FINISHED";"LEFT";"success";"734";"0";"2014-09-29 14:43:28.380";"3";;;;;;;;;;;;;;;;;;;;;;;;;;;;;;;;;;;;;;;;;;;;;
"e1r2m3";"1995";;"Windows 7";"Rachel's Experiment (D.T.)";"1.0";"2";"1";"1";"2";"2";"2";"2014-09-29 14:38:04.726";"2014-09-29 14:54:01.008";"1";"0";;;"1";"83";"82";"module.training_block2.exec-7647.GoNoGo2";;;;;;;;;;;;;;;;;;;;;;;;;;;;;;;;;;;"1261";"2014-09-29 14:43:32.186";"NST_correctLoc";"31";"1";"FINISHED";"RIGHT";"success";"655";"0";"2014-09-29 14:43:30.923";"3";;;;;;;;;;;;;;;;;;;;;;;;;;;;;;;;;;;;;;;;;;;;;
"e1r2m3";"1995";;"Windows 7";"Rachel's Experiment (D.T.)";"1.0";"2";"1";"1";"2";"2";"2";"2014-09-29 14:38:04.726";"2014-09-29 14:54:01.008";"1";"0";;;"1";"84";"83";"module.training_block2.exec-7647.GoNoGo2";;;;;;;;;;;;;;;;;;;;;;;;;;;;;;;;;;;"1261";"2014-09-29 14:43:34.729";"NST_correctLoc";"16";"1";"FINISHED";"RIGHT";"success";"544";"0";"2014-09-29 14:43:33.465";"2";;;;;;;;;;;;;;;;;;;;;;;;;;;;;;;;;;;;;;;;;;;;;
"e1r2m3";"1995";;"Windows 7";"Rachel's Experiment (D.T.)";"1.0";"2";"1";"1";"2";"2";"2";"2014-09-29 14:38:04.726";"2014-09-29 14:54:01.008";"1";"0";;;"1";"85";"84";"module.training_block2.exec-7647.GoNoGo2";;;;;;;;;;;;;;;;;;;;;;;;;;;;;;;;;;;"1261";"2014-09-29 14:43:37.272";"NST_correctLoc";"28";"0";"FINISHED";"LEFT";"success";"457";"0";"2014-09-29 14:43:36.008";"3";;;;;;;;;;;;;;;;;;;;;;;;;;;;;;;;;;;;;;;;;;;;;
"e1r2m3";"1995";;"Windows 7";"Rachel's Experiment (D.T.)";"1.0";"2";"1";"1";"2";"2";"2";"2014-09-29 14:38:04.726";"2014-09-29 14:54:01.008";"1";"0";;;"1";"86";"85";"module.training_block2.exec-7647.GoNoGo2";;;;;;;;;;;;;;;;;;;;;;;;;;;;;;;;;;;"1261";"2014-09-29 14:43:39.815";"NST_correctLoc";"24";"0";"FINISHED";"LEFT";"success";"571";"0";"2014-09-29 14:43:38.551";"3";;;;;;;;;;;;;;;;;;;;;;;;;;;;;;;;;;;;;;;;;;;;;
"e1r2m3";"1995";;"Windows 7";"Rachel's Experiment (D.T.)";"1.0";"2";"1";"1";"2";"2";"2";"2014-09-29 14:38:04.726";"2014-09-29 14:54:01.008";"1";"0";;;"1";"87";"86";"module.training_block2.exec-7647.GoNoGo2";;;;;;;;;;;;;;;;;;;;;;;;;;;;;;;;;;;"1261";"2014-09-29 14:43:42.358";"NST_correctLoc";"4";"1";"FINISHED";"RIGHT";"success";"1020";"0";"2014-09-29 14:43:41.094";"1";;;;;;;;;;;;;;;;;;;;;;;;;;;;;;;;;;;;;;;;;;;;;
"e1r2m3";"1995";;"Windows 7";"Rachel's Experiment (D.T.)";"1.0";"2";"1";"1";"2";"2";"2";"2014-09-29 14:38:04.726";"2014-09-29 14:54:01.008";"1";"0";;;"1";"88";"87";"module.training_block3.exec-2885.GoNoGo3";;;;;;;;;;;;;;;;;;;;;;;;;;;;;;;;;;;;;;;;;;;;;;;"1261";"2014-09-29 14:44:18.050";"NST_correctLoc";"27";"1";"FINISHED";"RIGHT";"success";"415";"0";"2014-09-29 14:44:16.787";"3";;;;;;;;;;;;;;;;;;;;;;;;;;;;;;;;;
"e1r2m3";"1995";;"Windows 7";"Rachel's Experiment (D.T.)";"1.0";"2";"1";"1";"2";"2";"2";"2014-09-29 14:38:04.726";"2014-09-29 14:54:01.008";"1";"0";;;"1";"89";"88";"module.training_block3.exec-2885.GoNoGo3";;;;;;;;;;;;;;;;;;;;;;;;;;;;;;;;;;;;;;;;;;;;;;;"1261";"2014-09-29 14:44:20.593";"NST_correctLoc";"18";"0";"FINISHED";"LEFT";"success";"416";"0";"2014-09-29 14:44:19.330";"3";;;;;;;;;;;;;;;;;;;;;;;;;;;;;;;;;
"e1r2m3";"1995";;"Windows 7";"Rachel's Experiment (D.T.)";"1.0";"2";"1";"1";"2";"2";"2";"2014-09-29 14:38:04.726";"2014-09-29 14:54:01.008";"1";"0";;;"1";"90";"89";"module.training_block3.exec-2885.GoNoGo3";;;;;;;;;;;;;;;;;;;;;;;;;;;;;;;;;;;;;;;;;;;;;;;"1261";"2014-09-29 14:44:23.136";"NST_correctLoc";"16";"1";"FINISHED";"RIGHT";"success";"393";"0";"2014-09-29 14:44:21.872";"2";;;;;;;;;;;;;;;;;;;;;;;;;;;;;;;;;
"e1r2m3";"1995";;"Windows 7";"Rachel's Experiment (D.T.)";"1.0";"2";"1";"1";"2";"2";"2";"2014-09-29 14:38:04.726";"2014-09-29 14:54:01.008";"1";"0";;;"1";"91";"90";"module.training_block3.exec-2885.GoNoGo3";;;;;;;;;;;;;;;;;;;;;;;;;;;;;;;;;;;;;;;;;;;;;;;"1261";"2014-09-29 14:44:25.663";"NST_correctLoc";"15";"0";"FINISHED";"LEFT";"success";"306";"0";"2014-09-29 14:44:24.400";"2";;;;;;;;;;;;;;;;;;;;;;;;;;;;;;;;;
"e1r2m3";"1995";;"Windows 7";"Rachel's Experiment (D.T.)";"1.0";"2";"1";"1";"2";"2";"2";"2014-09-29 14:38:04.726";"2014-09-29 14:54:01.008";"1";"0";;;"1";"92";"91";"module.training_block3.exec-2885.GoNoGo3";;;;;;;;;;;;;;;;;;;;;;;;;;;;;;;;;;;;;;;;;;;;;;;"1261";"2014-09-29 14:44:28.206";"NST_correctLoc";"2";"0";"FINISHED";"LEFT";"success";"379";"0";"2014-09-29 14:44:26.942";"1";;;;;;;;;;;;;;;;;;;;;;;;;;;;;;;;;
"e1r2m3";"1995";;"Windows 7";"Rachel's Experiment (D.T.)";"1.0";"2";"1";"1";"2";"2";"2";"2014-09-29 14:38:04.726";"2014-09-29 14:54:01.008";"1";"0";;;"1";"93";"92";"module.training_block3.exec-2885.GoNoGo3";;;;;;;;;;;;;;;;;;;;;;;;;;;;;;;;;;;;;;;;;;;;;;;"1261";"2014-09-29 14:44:30.749";"NST_correctLoc";"22";"0";"FINISHED";"LEFT";"success";"436";"0";"2014-09-29 14:44:29.485";"3";;;;;;;;;;;;;;;;;;;;;;;;;;;;;;;;;
"e1r2m3";"1995";;"Windows 7";"Rachel's Experiment (D.T.)";"1.0";"2";"1";"1";"2";"2";"2";"2014-09-29 14:38:04.726";"2014-09-29 14:54:01.008";"1";"0";;;"1";"94";"93";"module.training_block3.exec-2885.GoNoGo3";;;;;;;;;;;;;;;;;;;;;;;;;;;;;;;;;;;;;;;;;;;;;;;"1261";"2014-09-29 14:44:33.292";"NST_correctLoc";"21";"1";"FINISHED";"RIGHT";"success";"565";"0";"2014-09-29 14:44:32.028";"3";;;;;;;;;;;;;;;;;;;;;;;;;;;;;;;;;
"e1r2m3";"1995";;"Windows 7";"Rachel's Experiment (D.T.)";"1.0";"2";"1";"1";"2";"2";"2";"2014-09-29 14:38:04.726";"2014-09-29 14:54:01.008";"1";"0";;;"1";"95";"94";"module.training_block3.exec-2885.GoNoGo3";;;;;;;;;;;;;;;;;;;;;;;;;;;;;;;;;;;;;;;;;;;;;;;"1261";"2014-09-29 14:44:35.850";"NST_correctLoc";"9";"1";"FINISHED";"RIGHT";"success";"423";"0";"2014-09-29 14:44:34.586";"2";;;;;;;;;;;;;;;;;;;;;;;;;;;;;;;;;
"e1r2m3";"1995";;"Windows 7";"Rachel's Experiment (D.T.)";"1.0";"2";"1";"1";"2";"2";"2";"2014-09-29 14:38:04.726";"2014-09-29 14:54:01.008";"1";"0";;;"1";"96";"95";"module.training_block3.exec-2885.GoNoGo3";;;;;;;;;;;;;;;;;;;;;;;;;;;;;;;;;;;;;;;;;;;;;;;"1261";"2014-09-29 14:44:38.393";"NST_correctLoc";"35";"0";"FINISHED";"LEFT";"success";"344";"0";"2014-09-29 14:44:37.129";"3";;;;;;;;;;;;;;;;;;;;;;;;;;;;;;;;;
"e1r2m3";"1995";;"Windows 7";"Rachel's Experiment (D.T.)";"1.0";"2";"1";"1";"2";"2";"2";"2014-09-29 14:38:04.726";"2014-09-29 14:54:01.008";"1";"0";;;"1";"97";"96";"module.training_block3.exec-2885.GoNoGo3";;;;;;;;;;;;;;;;;;;;;;;;;;;;;;;;;;;;;;;;;;;;;;;"1261";"2014-09-29 14:44:40.936";"NST_correctLoc";"6";"0";"FINISHED";"LEFT";"success";"425";"0";"2014-09-29 14:44:39.672";"1";;;;;;;;;;;;;;;;;;;;;;;;;;;;;;;;;
"e1r2m3";"1995";;"Windows 7";"Rachel's Experiment (D.T.)";"1.0";"2";"1";"1";"2";"2";"2";"2014-09-29 14:38:04.726";"2014-09-29 14:54:01.008";"1";"0";;;"1";"98";"97";"module.training_block3.exec-2885.GoNoGo3";;;;;;;;;;;;;;;;;;;;;;;;;;;;;;;;;;;;;;;;;;;;;;;"1261";"2014-09-29 14:44:43.478";"NST_correctLoc";"28";"0";"FINISHED";"LEFT";"success";"514";"0";"2014-09-29 14:44:42.215";"3";;;;;;;;;;;;;;;;;;;;;;;;;;;;;;;;;
"e1r2m3";"1995";;"Windows 7";"Rachel's Experiment (D.T.)";"1.0";"2";"1";"1";"2";"2";"2";"2014-09-29 14:38:04.726";"2014-09-29 14:54:01.008";"1";"0";;;"1";"99";"98";"module.training_block3.exec-2885.GoNoGo3";;;;;;;;;;;;;;;;;;;;;;;;;;;;;;;;;;;;;;;;;;;;;;;"1261";"2014-09-29 14:44:46.021";"NST_correctLoc";"8";"0";"FINISHED";"LEFT";"success";"396";"0";"2014-09-29 14:44:44.758";"1";;;;;;;;;;;;;;;;;;;;;;;;;;;;;;;;;
"e1r2m3";"1995";;"Windows 7";"Rachel's Experiment (D.T.)";"1.0";"2";"1";"1";"2";"2";"2";"2014-09-29 14:38:04.726";"2014-09-29 14:54:01.008";"1";"0";;;"1";"100";"99";"module.training_block3.exec-2885.GoNoGo3";;;;;;;;;;;;;;;;;;;;;;;;;;;;;;;;;;;;;;;;;;;;;;;"1261";"2014-09-29 14:44:48.564";"NST_correctLoc";"4";"0";"FINISHED";"LEFT";"success";"421";"0";"2014-09-29 14:44:47.300";"1";;;;;;;;;;;;;;;;;;;;;;;;;;;;;;;;;
"e1r2m3";"1995";;"Windows 7";"Rachel's Experiment (D.T.)";"1.0";"2";"1";"1";"2";"2";"2";"2014-09-29 14:38:04.726";"2014-09-29 14:54:01.008";"1";"0";;;"1";"101";"100";"module.training_block3.exec-2885.GoNoGo3";;;;;;;;;;;;;;;;;;;;;;;;;;;;;;;;;;;;;;;;;;;;;;;"1261";"2014-09-29 14:44:51.107";"NST_correctLoc";"33";"1";"FINISHED";"RIGHT";"success";"510";"0";"2014-09-29 14:44:49.843";"3";;;;;;;;;;;;;;;;;;;;;;;;;;;;;;;;;
"e1r2m3";"1995";;"Windows 7";"Rachel's Experiment (D.T.)";"1.0";"2";"1";"1";"2";"2";"2";"2014-09-29 14:38:04.726";"2014-09-29 14:54:01.008";"1";"0";;;"1";"102";"101";"module.training_block3.exec-2885.GoNoGo3";;;;;;;;;;;;;;;;;;;;;;;;;;;;;;;;;;;;;;;;;;;;;;;"1261";"2014-09-29 14:44:53.650";"NST_correctLoc";"7";"1";"FINISHED";"RIGHT";"success";"527";"0";"2014-09-29 14:44:52.386";"1";;;;;;;;;;;;;;;;;;;;;;;;;;;;;;;;;
"e1r2m3";"1995";;"Windows 7";"Rachel's Experiment (D.T.)";"1.0";"2";"1";"1";"2";"2";"2";"2014-09-29 14:38:04.726";"2014-09-29 14:54:01.008";"1";"0";;;"1";"103";"102";"module.training_block3.exec-2885.GoNoGo3";;;;;;;;;;;;;;;;;;;;;;;;;;;;;;;;;;;;;;;;;;;;;;;"1261";"2014-09-29 14:44:56.192";"NST_correctLoc";"32";"1";"FINISHED";"RIGHT";"success";"400";"0";"2014-09-29 14:44:54.929";"3";;;;;;;;;;;;;;;;;;;;;;;;;;;;;;;;;
"e1r2m3";"1995";;"Windows 7";"Rachel's Experiment (D.T.)";"1.0";"2";"1";"1";"2";"2";"2";"2014-09-29 14:38:04.726";"2014-09-29 14:54:01.008";"1";"0";;;"1";"104";"103";"module.training_block3.exec-2885.GoNoGo3";;;;;;;;;;;;;;;;;;;;;;;;;;;;;;;;;;;;;;;;;;;;;;;"1261";"2014-09-29 14:44:58.735";"NST_correctLoc";"34";"0";"FINISHED";"LEFT";"success";"321";"0";"2014-09-29 14:44:57.472";"3";;;;;;;;;;;;;;;;;;;;;;;;;;;;;;;;;
"e1r2m3";"1995";;"Windows 7";"Rachel's Experiment (D.T.)";"1.0";"2";"1";"1";"2";"2";"2";"2014-09-29 14:38:04.726";"2014-09-29 14:54:01.008";"1";"0";;;"1";"105";"104";"module.training_block3.exec-2885.GoNoGo3";;;;;;;;;;;;;;;;;;;;;;;;;;;;;;;;;;;;;;;;;;;;;;;"1261";"2014-09-29 14:45:01.278";"NST_correctLoc";"29";"1";"FINISHED";"RIGHT";"success";"387";"0";"2014-09-29 14:45:00.014";"3";;;;;;;;;;;;;;;;;;;;;;;;;;;;;;;;;
"e1r2m3";"1995";;"Windows 7";"Rachel's Experiment (D.T.)";"1.0";"2";"1";"1";"2";"2";"2";"2014-09-29 14:38:04.726";"2014-09-29 14:54:01.008";"1";"0";;;"1";"106";"105";"module.training_block3.exec-2885.GoNoGo3";;;;;;;;;;;;;;;;;;;;;;;;;;;;;;;;;;;;;;;;;;;;;;;"1261";"2014-09-29 14:45:03.821";"NST_correctLoc";"19";"0";"FINISHED";"LEFT";"success";"340";"0";"2014-09-29 14:45:02.557";"3";;;;;;;;;;;;;;;;;;;;;;;;;;;;;;;;;
"e1r2m3";"1995";;"Windows 7";"Rachel's Experiment (D.T.)";"1.0";"2";"1";"1";"2";"2";"2";"2014-09-29 14:38:04.726";"2014-09-29 14:54:01.008";"1";"0";;;"1";"107";"106";"module.training_block3.exec-2885.GoNoGo3";;;;;;;;;;;;;;;;;;;;;;;;;;;;;;;;;;;;;;;;;;;;;;;"1261";"2014-09-29 14:45:06.364";"NST_correctLoc";"20";"1";"FINISHED";"RIGHT";"success";"589";"0";"2014-09-29 14:45:05.100";"3";;;;;;;;;;;;;;;;;;;;;;;;;;;;;;;;;
"e1r2m3";"1995";;"Windows 7";"Rachel's Experiment (D.T.)";"1.0";"2";"1";"1";"2";"2";"2";"2014-09-29 14:38:04.726";"2014-09-29 14:54:01.008";"1";"0";;;"1";"108";"107";"module.training_block3.exec-2885.GoNoGo3";;;;;;;;;;;;;;;;;;;;;;;;;;;;;;;;;;;;;;;;;;;;;;;"1261";"2014-09-29 14:45:08.906";"NST_correctLoc";"17";"0";"FINISHED";"LEFT";"success";"462";"0";"2014-09-29 14:45:07.643";"2";;;;;;;;;;;;;;;;;;;;;;;;;;;;;;;;;
"e1r2m3";"1995";;"Windows 7";"Rachel's Experiment (D.T.)";"1.0";"2";"1";"1";"2";"2";"2";"2014-09-29 14:38:04.726";"2014-09-29 14:54:01.008";"1";"0";;;"1";"109";"108";"module.training_block3.exec-2885.GoNoGo3";;;;;;;;;;;;;;;;;;;;;;;;;;;;;;;;;;;;;;;;;;;;;;;"1261";"2014-09-29 14:45:11.449";"NST_correctLoc";"12";"1";"FINISHED";"RIGHT";"success";"359";"0";"2014-09-29 14:45:10.186";"2";;;;;;;;;;;;;;;;;;;;;;;;;;;;;;;;;
"e1r2m3";"1995";;"Windows 7";"Rachel's Experiment (D.T.)";"1.0";"2";"1";"1";"2";"2";"2";"2014-09-29 14:38:04.726";"2014-09-29 14:54:01.008";"1";"0";;;"1";"110";"109";"module.training_block3.exec-2885.GoNoGo3";;;;;;;;;;;;;;;;;;;;;;;;;;;;;;;;;;;;;;;;;;;;;;;"1261";"2014-09-29 14:45:13.992";"NST_correctLoc";"14";"1";"FINISHED";"RIGHT";"success";"345";"0";"2014-09-29 14:45:12.728";"2";;;;;;;;;;;;;;;;;;;;;;;;;;;;;;;;;
"e1r2m3";"1995";;"Windows 7";"Rachel's Experiment (D.T.)";"1.0";"2";"1";"1";"2";"2";"2";"2014-09-29 14:38:04.726";"2014-09-29 14:54:01.008";"1";"0";;;"1";"111";"110";"module.training_block3.exec-2885.GoNoGo3";;;;;;;;;;;;;;;;;;;;;;;;;;;;;;;;;;;;;;;;;;;;;;;"1262";"2014-09-29 14:45:16.535";"NST_correctLoc";"31";"1";"FINISHED";"RIGHT";"success";"386";"0";"2014-09-29 14:45:15.271";"3";;;;;;;;;;;;;;;;;;;;;;;;;;;;;;;;;
"e1r2m3";"1995";;"Windows 7";"Rachel's Experiment (D.T.)";"1.0";"2";"1";"1";"2";"2";"2";"2014-09-29 14:38:04.726";"2014-09-29 14:54:01.008";"1";"0";;;"1";"112";"111";"module.training_block3.exec-2885.GoNoGo3";;;;;;;;;;;;;;;;;;;;;;;;;;;;;;;;;;;;;;;;;;;;;;;"1261";"2014-09-29 14:45:19.078";"NST_correctLoc";"25";"1";"FINISHED";"RIGHT";"success";"395";"0";"2014-09-29 14:45:17.814";"3";;;;;;;;;;;;;;;;;;;;;;;;;;;;;;;;;
"e1r2m3";"1995";;"Windows 7";"Rachel's Experiment (D.T.)";"1.0";"2";"1";"1";"2";"2";"2";"2014-09-29 14:38:04.726";"2014-09-29 14:54:01.008";"1";"0";;;"1";"113";"112";"module.training_block3.exec-2885.GoNoGo3";;;;;;;;;;;;;;;;;;;;;;;;;;;;;;;;;;;;;;;;;;;;;;;"1262";"2014-09-29 14:45:21.620";"NST_correctLoc";"1";"1";"FINISHED";"RIGHT";"success";"397";"0";"2014-09-29 14:45:20.357";"1";;;;;;;;;;;;;;;;;;;;;;;;;;;;;;;;;
"e1r2m3";"1995";;"Windows 7";"Rachel's Experiment (D.T.)";"1.0";"2";"1";"1";"2";"2";"2";"2014-09-29 14:38:04.726";"2014-09-29 14:54:01.008";"1";"0";;;"1";"114";"113";"module.training_block3.exec-2885.GoNoGo3";;;;;;;;;;;;;;;;;;;;;;;;;;;;;;;;;;;;;;;;;;;;;;;"1261";"2014-09-29 14:45:24.163";"NST_correctLoc";"30";"0";"FINISHED";"LEFT";"success";"349";"0";"2014-09-29 14:45:22.900";"3";;;;;;;;;;;;;;;;;;;;;;;;;;;;;;;;;
"e1r2m3";"1995";;"Windows 7";"Rachel's Experiment (D.T.)";"1.0";"2";"1";"1";"2";"2";"2";"2014-09-29 14:38:04.726";"2014-09-29 14:54:01.008";"1";"0";;;"1";"115";"114";"module.training_block3.exec-2885.GoNoGo3";;;;;;;;;;;;;;;;;;;;;;;;;;;;;;;;;;;;;;;;;;;;;;;"1261";"2014-09-29 14:45:26.706";"NST_correctLoc";"0";"0";"FINISHED";"LEFT";"success";"478";"0";"2014-09-29 14:45:25.442";"1";;;;;;;;;;;;;;;;;;;;;;;;;;;;;;;;;
"e1r2m3";"1995";;"Windows 7";"Rachel's Experiment (D.T.)";"1.0";"2";"1";"1";"2";"2";"2";"2014-09-29 14:38:04.726";"2014-09-29 14:54:01.008";"1";"0";;;"1";"116";"115";"module.training_block3.exec-2885.GoNoGo3";;;;;;;;;;;;;;;;;;;;;;;;;;;;;;;;;;;;;;;;;;;;;;;"1261";"2014-09-29 14:45:29.249";"NST_correctLoc";"3";"0";"FINISHED";"LEFT";"success";"448";"0";"2014-09-29 14:45:27.985";"1";;;;;;;;;;;;;;;;;;;;;;;;;;;;;;;;;
"e1r2m3";"1995";;"Windows 7";"Rachel's Experiment (D.T.)";"1.0";"2";"1";"1";"2";"2";"2";"2014-09-29 14:38:04.726";"2014-09-29 14:54:01.008";"1";"0";;;"1";"117";"116";"module.training_block3.exec-2885.GoNoGo3";;;;;;;;;;;;;;;;;;;;;;;;;;;;;;;;;;;;;;;;;;;;;;;"1261";"2014-09-29 14:45:31.792";"NST_correctLoc";"23";"1";"FINISHED";"RIGHT";"success";"409";"0";"2014-09-29 14:45:30.528";"3";;;;;;;;;;;;;;;;;;;;;;;;;;;;;;;;;
"e1r2m3";"1995";;"Windows 7";"Rachel's Experiment (D.T.)";"1.0";"2";"1";"1";"2";"2";"2";"2014-09-29 14:38:04.726";"2014-09-29 14:54:01.008";"1";"0";;;"1";"118";"117";"module.training_block3.exec-2885.GoNoGo3";;;;;;;;;;;;;;;;;;;;;;;;;;;;;;;;;;;;;;;;;;;;;;;"1261";"2014-09-29 14:45:34.350";"NST_correctLoc";"13";"0";"FINISHED";"LEFT";"success";"370";"0";"2014-09-29 14:45:33.087";"2";;;;;;;;;;;;;;;;;;;;;;;;;;;;;;;;;
"e1r2m3";"1995";;"Windows 7";"Rachel's Experiment (D.T.)";"1.0";"2";"1";"1";"2";"2";"2";"2014-09-29 14:38:04.726";"2014-09-29 14:54:01.008";"1";"0";;;"1";"119";"118";"module.training_block3.exec-2885.GoNoGo3";;;;;;;;;;;;;;;;;;;;;;;;;;;;;;;;;;;;;;;;;;;;;;;"1262";"2014-09-29 14:45:36.893";"NST_correctLoc";"11";"1";"FINISHED";"RIGHT";"success";"364";"0";"2014-09-29 14:45:35.629";"2";;;;;;;;;;;;;;;;;;;;;;;;;;;;;;;;;
"e1r2m3";"1995";;"Windows 7";"Rachel's Experiment (D.T.)";"1.0";"2";"1";"1";"2";"2";"2";"2014-09-29 14:38:04.726";"2014-09-29 14:54:01.008";"1";"0";;;"1";"120";"119";"module.training_block3.exec-2885.GoNoGo3";;;;;;;;;;;;;;;;;;;;;;;;;;;;;;;;;;;;;;;;;;;;;;;"1261";"2014-09-29 14:45:39.436";"NST_correctLoc";"10";"1";"FINISHED";"RIGHT";"success";"373";"0";"2014-09-29 14:45:38.172";"2";;;;;;;;;;;;;;;;;;;;;;;;;;;;;;;;;
"e1r2m3";"1995";;"Windows 7";"Rachel's Experiment (D.T.)";"1.0";"2";"1";"1";"2";"2";"2";"2014-09-29 14:38:04.726";"2014-09-29 14:54:01.008";"1";"0";;;"1";"121";"120";"module.training_block3.exec-2885.GoNoGo3";;;;;;;;;;;;;;;;;;;;;;;;;;;;;;;;;;;;;;;;;;;;;;;"1261";"2014-09-29 14:45:41.979";"NST_correctLoc";"26";"1";"FINISHED";"RIGHT";"success";"358";"0";"2014-09-29 14:45:40.715";"3";;;;;;;;;;;;;;;;;;;;;;;;;;;;;;;;;
"e1r2m3";"1995";;"Windows 7";"Rachel's Experiment (D.T.)";"1.0";"2";"1";"1";"2";"2";"2";"2014-09-29 14:38:04.726";"2014-09-29 14:54:01.008";"1";"0";;;"1";"122";"121";"module.training_block3.exec-2885.GoNoGo3";;;;;;;;;;;;;;;;;;;;;;;;;;;;;;;;;;;;;;;;;;;;;;;"1262";"2014-09-29 14:45:44.521";"NST_correctLoc";"5";"1";"FINISHED";"RIGHT";"success";"383";"0";"2014-09-29 14:45:43.258";"1";;;;;;;;;;;;;;;;;;;;;;;;;;;;;;;;;
"e1r2m3";"1995";;"Windows 7";"Rachel's Experiment (D.T.)";"1.0";"2";"1";"1";"2";"2";"2";"2014-09-29 14:38:04.726";"2014-09-29 14:54:01.008";"1";"0";;;"1";"123";"122";"module.training_block3.exec-2885.GoNoGo3";;;;;;;;;;;;;;;;;;;;;;;;;;;;;;;;;;;;;;;;;;;;;;;"1261";"2014-09-29 14:45:47.064";"NST_correctLoc";"24";"1";"FINISHED";"RIGHT";"success";"376";"0";"2014-09-29 14:45:45.801";"3";;;;;;;;;;;;;;;;;;;;;;;;;;;;;;;;;
"e1r2m3";"1995";;"Windows 7";"Rachel's Experiment (D.T.)";"1.0";"2";"1";"1";"2";"2";"2";"2014-09-29 14:38:04.726";"2014-09-29 14:54:01.008";"1";"0";;;"1";"124";"123";"module.training_block4.exec-7541.GoNoGo4";;;;;;;;;;;;;;;;;;;;;;;;;;;;;;;;;;;;;;;;;;;;;;;;;;;;;;;;;;;"1261";"2014-09-29 14:45:58.624";"NST_correctLoc";"6";"0";"FINISHED";"LEFT";"success";"464";"0";"2014-09-29 14:45:57.360";"1";;;;;;;;;;;;;;;;;;;;;
"e1r2m3";"1995";;"Windows 7";"Rachel's Experiment (D.T.)";"1.0";"2";"1";"1";"2";"2";"2";"2014-09-29 14:38:04.726";"2014-09-29 14:54:01.008";"1";"0";;;"1";"125";"124";"module.training_block4.exec-7541.GoNoGo4";;;;;;;;;;;;;;;;;;;;;;;;;;;;;;;;;;;;;;;;;;;;;;;;;;;;;;;;;;;"1262";"2014-09-29 14:46:01.182";"NST_correctLoc";"1";"1";"FINISHED";"RIGHT";"success";"394";"0";"2014-09-29 14:45:59.919";"1";;;;;;;;;;;;;;;;;;;;;
"e1r2m3";"1995";;"Windows 7";"Rachel's Experiment (D.T.)";"1.0";"2";"1";"1";"2";"2";"2";"2014-09-29 14:38:04.726";"2014-09-29 14:54:01.008";"1";"0";;;"1";"126";"125";"module.training_block4.exec-7541.GoNoGo4";;;;;;;;;;;;;;;;;;;;;;;;;;;;;;;;;;;;;;;;;;;;;;;;;;;;;;;;;;;"1262";"2014-09-29 14:46:03.725";"NST_correctLoc";"5";"0";"FINISHED";"LEFT";"success";"339";"0";"2014-09-29 14:46:02.461";"1";;;;;;;;;;;;;;;;;;;;;
"e1r2m3";"1995";;"Windows 7";"Rachel's Experiment (D.T.)";"1.0";"2";"1";"1";"2";"2";"2";"2014-09-29 14:38:04.726";"2014-09-29 14:54:01.008";"1";"0";;;"1";"127";"126";"module.training_block4.exec-7541.GoNoGo4";;;;;;;;;;;;;;;;;;;;;;;;;;;;;;;;;;;;;;;;;;;;;;;;;;;;;;;;;;;"1261";"2014-09-29 14:46:06.283";"NST_correctLoc";"20";"0";"FINISHED";"LEFT";"success";"349";"0";"2014-09-29 14:46:05.020";"3";;;;;;;;;;;;;;;;;;;;;
"e1r2m3";"1995";;"Windows 7";"Rachel's Experiment (D.T.)";"1.0";"2";"1";"1";"2";"2";"2";"2014-09-29 14:38:04.726";"2014-09-29 14:54:01.008";"1";"0";;;"1";"128";"127";"module.training_block4.exec-7541.GoNoGo4";;;;;;;;;;;;;;;;;;;;;;;;;;;;;;;;;;;;;;;;;;;;;;;;;;;;;;;;;;;"1261";"2014-09-29 14:46:08.826";"NST_correctLoc";"24";"0";"FINISHED";"LEFT";"success";"446";"0";"2014-09-29 14:46:07.563";"3";;;;;;;;;;;;;;;;;;;;;
"e1r2m3";"1995";;"Windows 7";"Rachel's Experiment (D.T.)";"1.0";"2";"1";"1";"2";"2";"2";"2014-09-29 14:38:04.726";"2014-09-29 14:54:01.008";"1";"0";;;"1";"129";"128";"module.training_block4.exec-7541.GoNoGo4";;;;;;;;;;;;;;;;;;;;;;;;;;;;;;;;;;;;;;;;;;;;;;;;;;;;;;;;;;;"1262";"2014-09-29 14:46:11.369";"NST_wrongLoc";"28";"1";"FINISHED";"LEFT";"failure";"487";"0";"2014-09-29 14:46:10.105";"3";;;;;;;;;;;;;;;;;;;;;
"e1r2m3";"1995";;"Windows 7";"Rachel's Experiment (D.T.)";"1.0";"2";"1";"1";"2";"2";"2";"2014-09-29 14:38:04.726";"2014-09-29 14:54:01.008";"1";"0";;;"1";"130";"129";"module.training_block4.exec-7541.GoNoGo4";;;;;;;;;;;;;;;;;;;;;;;;;;;;;;;;;;;;;;;;;;;;;;;;;;;;;;;;;;;"1262";"2014-09-29 14:46:13.912";"NST_correctLoc";"32";"0";"FINISHED";"LEFT";"success";"440";"0";"2014-09-29 14:46:12.648";"3";;;;;;;;;;;;;;;;;;;;;
"e1r2m3";"1995";;"Windows 7";"Rachel's Experiment (D.T.)";"1.0";"2";"1";"1";"2";"2";"2";"2014-09-29 14:38:04.726";"2014-09-29 14:54:01.008";"1";"0";;;"1";"131";"130";"module.training_block4.exec-7541.GoNoGo4";;;;;;;;;;;;;;;;;;;;;;;;;;;;;;;;;;;;;;;;;;;;;;;;;;;;;;;;;;;"1262";"2014-09-29 14:46:16.455";"NST_correctLoc";"0";"0";"FINISHED";"LEFT";"success";"450";"0";"2014-09-29 14:46:15.191";"1";;;;;;;;;;;;;;;;;;;;;
"e1r2m3";"1995";;"Windows 7";"Rachel's Experiment (D.T.)";"1.0";"2";"1";"1";"2";"2";"2";"2014-09-29 14:38:04.726";"2014-09-29 14:54:01.008";"1";"0";;;"1";"132";"131";"module.training_block4.exec-7541.GoNoGo4";;;;;;;;;;;;;;;;;;;;;;;;;;;;;;;;;;;;;;;;;;;;;;;;;;;;;;;;;;;"1262";"2014-09-29 14:46:18.982";"NST_correctLoc";"16";"1";"FINISHED";"RIGHT";"success";"450";"0";"2014-09-29 14:46:17.718";"2";;;;;;;;;;;;;;;;;;;;;
"e1r2m3";"1995";;"Windows 7";"Rachel's Experiment (D.T.)";"1.0";"2";"1";"1";"2";"2";"2";"2014-09-29 14:38:04.726";"2014-09-29 14:54:01.008";"1";"0";;;"1";"133";"132";"module.training_block4.exec-7541.GoNoGo4";;;;;;;;;;;;;;;;;;;;;;;;;;;;;;;;;;;;;;;;;;;;;;;;;;;;;;;;;;;"1261";"2014-09-29 14:46:21.509";"NST_correctLoc";"27";"1";"FINISHED";"RIGHT";"success";"443";"0";"2014-09-29 14:46:20.245";"3";;;;;;;;;;;;;;;;;;;;;
"e1r2m3";"1995";;"Windows 7";"Rachel's Experiment (D.T.)";"1.0";"2";"1";"1";"2";"2";"2";"2014-09-29 14:38:04.726";"2014-09-29 14:54:01.008";"1";"0";;;"1";"134";"133";"module.training_block4.exec-7541.GoNoGo4";;;;;;;;;;;;;;;;;;;;;;;;;;;;;;;;;;;;;;;;;;;;;;;;;;;;;;;;;;;"1261";"2014-09-29 14:46:24.052";"NST_correctLoc";"34";"1";"FINISHED";"RIGHT";"success";"412";"0";"2014-09-29 14:46:22.788";"3";;;;;;;;;;;;;;;;;;;;;
"e1r2m3";"1995";;"Windows 7";"Rachel's Experiment (D.T.)";"1.0";"2";"1";"1";"2";"2";"2";"2014-09-29 14:38:04.726";"2014-09-29 14:54:01.008";"1";"0";;;"1";"135";"134";"module.training_block4.exec-7541.GoNoGo4";;;;;;;;;;;;;;;;;;;;;;;;;;;;;;;;;;;;;;;;;;;;;;;;;;;;;;;;;;;"1261";"2014-09-29 14:46:26.579";"NST_correctLoc";"22";"1";"FINISHED";"RIGHT";"success";"365";"0";"2014-09-29 14:46:25.315";"3";;;;;;;;;;;;;;;;;;;;;
"e1r2m3";"1995";;"Windows 7";"Rachel's Experiment (D.T.)";"1.0";"2";"1";"1";"2";"2";"2";"2014-09-29 14:38:04.726";"2014-09-29 14:54:01.008";"1";"0";;;"1";"136";"135";"module.training_block4.exec-7541.GoNoGo4";;;;;;;;;;;;;;;;;;;;;;;;;;;;;;;;;;;;;;;;;;;;;;;;;;;;;;;;;;;"1261";"2014-09-29 14:46:29.122";"NST_correctLoc";"19";"1";"FINISHED";"RIGHT";"success";"462";"0";"2014-09-29 14:46:27.858";"3";;;;;;;;;;;;;;;;;;;;;
"e1r2m3";"1995";;"Windows 7";"Rachel's Experiment (D.T.)";"1.0";"2";"1";"1";"2";"2";"2";"2014-09-29 14:38:04.726";"2014-09-29 14:54:01.008";"1";"0";;;"1";"137";"136";"module.training_block4.exec-7541.GoNoGo4";;;;;;;;;;;;;;;;;;;;;;;;;;;;;;;;;;;;;;;;;;;;;;;;;;;;;;;;;;;"1261";"2014-09-29 14:46:31.649";"NST_correctLoc";"29";"0";"FINISHED";"LEFT";"success";"375";"0";"2014-09-29 14:46:30.385";"3";;;;;;;;;;;;;;;;;;;;;
"e1r2m3";"1995";;"Windows 7";"Rachel's Experiment (D.T.)";"1.0";"2";"1";"1";"2";"2";"2";"2014-09-29 14:38:04.726";"2014-09-29 14:54:01.008";"1";"0";;;"1";"138";"137";"module.training_block4.exec-7541.GoNoGo4";;;;;;;;;;;;;;;;;;;;;;;;;;;;;;;;;;;;;;;;;;;;;;;;;;;;;;;;;;;"1261";"2014-09-29 14:46:34.192";"NST_correctLoc";"30";"1";"FINISHED";"RIGHT";"success";"416";"0";"2014-09-29 14:46:32.928";"3";;;;;;;;;;;;;;;;;;;;;
"e1r2m3";"1995";;"Windows 7";"Rachel's Experiment (D.T.)";"1.0";"2";"1";"1";"2";"2";"2";"2014-09-29 14:38:04.726";"2014-09-29 14:54:01.008";"1";"0";;;"1";"139";"138";"module.training_block4.exec-7541.GoNoGo4";;;;;;;;;;;;;;;;;;;;;;;;;;;;;;;;;;;;;;;;;;;;;;;;;;;;;;;;;;;"1261";"2014-09-29 14:46:36.735";"NST_correctLoc";"7";"1";"FINISHED";"RIGHT";"success";"393";"0";"2014-09-29 14:46:35.471";"1";;;;;;;;;;;;;;;;;;;;;
"e1r2m3";"1995";;"Windows 7";"Rachel's Experiment (D.T.)";"1.0";"2";"1";"1";"2";"2";"2";"2014-09-29 14:38:04.726";"2014-09-29 14:54:01.008";"1";"0";;;"1";"140";"139";"module.training_block4.exec-7541.GoNoGo4";;;;;;;;;;;;;;;;;;;;;;;;;;;;;;;;;;;;;;;;;;;;;;;;;;;;;;;;;;;"1262";"2014-09-29 14:46:39.262";"NST_correctLoc";"10";"1";"FINISHED";"RIGHT";"success";"362";"0";"2014-09-29 14:46:37.998";"2";;;;;;;;;;;;;;;;;;;;;
"e1r2m3";"1995";;"Windows 7";"Rachel's Experiment (D.T.)";"1.0";"2";"1";"1";"2";"2";"2";"2014-09-29 14:38:04.726";"2014-09-29 14:54:01.008";"1";"0";;;"1";"141";"140";"module.training_block4.exec-7541.GoNoGo4";;;;;;;;;;;;;;;;;;;;;;;;;;;;;;;;;;;;;;;;;;;;;;;;;;;;;;;;;;;"1261";"2014-09-29 14:46:41.805";"NST_correctLoc";"31";"0";"FINISHED";"LEFT";"success";"451";"0";"2014-09-29 14:46:40.541";"3";;;;;;;;;;;;;;;;;;;;;
"e1r2m3";"1995";;"Windows 7";"Rachel's Experiment (D.T.)";"1.0";"2";"1";"1";"2";"2";"2";"2014-09-29 14:38:04.726";"2014-09-29 14:54:01.008";"1";"0";;;"1";"142";"141";"module.training_block4.exec-7541.GoNoGo4";;;;;;;;;;;;;;;;;;;;;;;;;;;;;;;;;;;;;;;;;;;;;;;;;;;;;;;;;;;"1262";"2014-09-29 14:46:44.332";"NST_correctLoc";"26";"1";"FINISHED";"RIGHT";"success";"388";"0";"2014-09-29 14:46:43.068";"3";;;;;;;;;;;;;;;;;;;;;
"e1r2m3";"1995";;"Windows 7";"Rachel's Experiment (D.T.)";"1.0";"2";"1";"1";"2";"2";"2";"2014-09-29 14:38:04.726";"2014-09-29 14:54:01.008";"1";"0";;;"1";"143";"142";"module.training_block4.exec-7541.GoNoGo4";;;;;;;;;;;;;;;;;;;;;;;;;;;;;;;;;;;;;;;;;;;;;;;;;;;;;;;;;;;"1262";"2014-09-29 14:46:46.875";"NST_correctLoc";"18";"0";"FINISHED";"LEFT";"success";"453";"0";"2014-09-29 14:46:45.611";"3";;;;;;;;;;;;;;;;;;;;;
"e1r2m3";"1995";;"Windows 7";"Rachel's Experiment (D.T.)";"1.0";"2";"1";"1";"2";"2";"2";"2014-09-29 14:38:04.726";"2014-09-29 14:54:01.008";"1";"0";;;"1";"144";"143";"module.training_block4.exec-7541.GoNoGo4";;;;;;;;;;;;;;;;;;;;;;;;;;;;;;;;;;;;;;;;;;;;;;;;;;;;;;;;;;;"1261";"2014-09-29 14:46:49.433";"NST_correctLoc";"13";"1";"FINISHED";"RIGHT";"success";"335";"0";"2014-09-29 14:46:48.169";"2";;;;;;;;;;;;;;;;;;;;;
"e1r2m3";"1995";;"Windows 7";"Rachel's Experiment (D.T.)";"1.0";"2";"1";"1";"2";"2";"2";"2014-09-29 14:38:04.726";"2014-09-29 14:54:01.008";"1";"0";;;"1";"145";"144";"module.training_block4.exec-7541.GoNoGo4";;;;;;;;;;;;;;;;;;;;;;;;;;;;;;;;;;;;;;;;;;;;;;;;;;;;;;;;;;;"1262";"2014-09-29 14:46:51.960";"NST_correctLoc";"12";"1";"FINISHED";"RIGHT";"success";"464";"0";"2014-09-29 14:46:50.697";"2";;;;;;;;;;;;;;;;;;;;;
"e1r2m3";"1995";;"Windows 7";"Rachel's Experiment (D.T.)";"1.0";"2";"1";"1";"2";"2";"2";"2014-09-29 14:38:04.726";"2014-09-29 14:54:01.008";"1";"0";;;"1";"146";"145";"module.training_block4.exec-7541.GoNoGo4";;;;;;;;;;;;;;;;;;;;;;;;;;;;;;;;;;;;;;;;;;;;;;;;;;;;;;;;;;;"1262";"2014-09-29 14:46:54.503";"NST_correctLoc";"14";"0";"FINISHED";"LEFT";"success";"361";"0";"2014-09-29 14:46:53.239";"2";;;;;;;;;;;;;;;;;;;;;
"e1r2m3";"1995";;"Windows 7";"Rachel's Experiment (D.T.)";"1.0";"2";"1";"1";"2";"2";"2";"2014-09-29 14:38:04.726";"2014-09-29 14:54:01.008";"1";"0";;;"1";"147";"146";"module.training_block4.exec-7541.GoNoGo4";;;;;;;;;;;;;;;;;;;;;;;;;;;;;;;;;;;;;;;;;;;;;;;;;;;;;;;;;;;"1262";"2014-09-29 14:46:57.046";"NST_correctLoc";"21";"1";"FINISHED";"RIGHT";"success";"386";"0";"2014-09-29 14:46:55.782";"3";;;;;;;;;;;;;;;;;;;;;
"e1r2m3";"1995";;"Windows 7";"Rachel's Experiment (D.T.)";"1.0";"2";"1";"1";"2";"2";"2";"2014-09-29 14:38:04.726";"2014-09-29 14:54:01.008";"1";"0";;;"1";"148";"147";"module.training_block4.exec-7541.GoNoGo4";;;;;;;;;;;;;;;;;;;;;;;;;;;;;;;;;;;;;;;;;;;;;;;;;;;;;;;;;;;"1262";"2014-09-29 14:46:59.589";"NST_correctLoc";"23";"0";"FINISHED";"LEFT";"success";"411";"0";"2014-09-29 14:46:58.325";"3";;;;;;;;;;;;;;;;;;;;;
"e1r2m3";"1995";;"Windows 7";"Rachel's Experiment (D.T.)";"1.0";"2";"1";"1";"2";"2";"2";"2014-09-29 14:38:04.726";"2014-09-29 14:54:01.008";"1";"0";;;"1";"149";"148";"module.training_block4.exec-7541.GoNoGo4";;;;;;;;;;;;;;;;;;;;;;;;;;;;;;;;;;;;;;;;;;;;;;;;;;;;;;;;;;;"1261";"2014-09-29 14:47:02.116";"NST_correctLoc";"35";"0";"FINISHED";"LEFT";"success";"436";"0";"2014-09-29 14:47:00.852";"3";;;;;;;;;;;;;;;;;;;;;
"e1r2m3";"1995";;"Windows 7";"Rachel's Experiment (D.T.)";"1.0";"2";"1";"1";"2";"2";"2";"2014-09-29 14:38:04.726";"2014-09-29 14:54:01.008";"1";"0";;;"1";"150";"149";"module.training_block4.exec-7541.GoNoGo4";;;;;;;;;;;;;;;;;;;;;;;;;;;;;;;;;;;;;;;;;;;;;;;;;;;;;;;;;;;"1262";"2014-09-29 14:47:04.659";"NST_correctLoc";"25";"1";"FINISHED";"RIGHT";"success";"517";"0";"2014-09-29 14:47:03.395";"3";;;;;;;;;;;;;;;;;;;;;
"e1r2m3";"1995";;"Windows 7";"Rachel's Experiment (D.T.)";"1.0";"2";"1";"1";"2";"2";"2";"2014-09-29 14:38:04.726";"2014-09-29 14:54:01.008";"1";"0";;;"1";"151";"150";"module.training_block4.exec-7541.GoNoGo4";;;;;;;;;;;;;;;;;;;;;;;;;;;;;;;;;;;;;;;;;;;;;;;;;;;;;;;;;;;"1262";"2014-09-29 14:47:07.201";"NST_correctLoc";"33";"0";"FINISHED";"LEFT";"success";"398";"0";"2014-09-29 14:47:05.938";"3";;;;;;;;;;;;;;;;;;;;;
"e1r2m3";"1995";;"Windows 7";"Rachel's Experiment (D.T.)";"1.0";"2";"1";"1";"2";"2";"2";"2014-09-29 14:38:04.726";"2014-09-29 14:54:01.008";"1";"0";;;"1";"152";"151";"module.training_block4.exec-7541.GoNoGo4";;;;;;;;;;;;;;;;;;;;;;;;;;;;;;;;;;;;;;;;;;;;;;;;;;;;;;;;;;;"1261";"2014-09-29 14:47:09.729";"NST_correctLoc";"8";"0";"FINISHED";"LEFT";"success";"367";"0";"2014-09-29 14:47:08.465";"1";;;;;;;;;;;;;;;;;;;;;
"e1r2m3";"1995";;"Windows 7";"Rachel's Experiment (D.T.)";"1.0";"2";"1";"1";"2";"2";"2";"2014-09-29 14:38:04.726";"2014-09-29 14:54:01.008";"1";"0";;;"1";"153";"152";"module.training_block4.exec-7541.GoNoGo4";;;;;;;;;;;;;;;;;;;;;;;;;;;;;;;;;;;;;;;;;;;;;;;;;;;;;;;;;;;"1262";"2014-09-29 14:47:12.271";"NST_correctLoc";"11";"0";"FINISHED";"LEFT";"success";"392";"0";"2014-09-29 14:47:11.008";"2";;;;;;;;;;;;;;;;;;;;;
"e1r2m3";"1995";;"Windows 7";"Rachel's Experiment (D.T.)";"1.0";"2";"1";"1";"2";"2";"2";"2014-09-29 14:38:04.726";"2014-09-29 14:54:01.008";"1";"0";;;"1";"154";"153";"module.training_block4.exec-7541.GoNoGo4";;;;;;;;;;;;;;;;;;;;;;;;;;;;;;;;;;;;;;;;;;;;;;;;;;;;;;;;;;;"1262";"2014-09-29 14:47:14.799";"NST_correctLoc";"15";"1";"FINISHED";"RIGHT";"success";"353";"0";"2014-09-29 14:47:13.535";"2";;;;;;;;;;;;;;;;;;;;;
"e1r2m3";"1995";;"Windows 7";"Rachel's Experiment (D.T.)";"1.0";"2";"1";"1";"2";"2";"2";"2014-09-29 14:38:04.726";"2014-09-29 14:54:01.008";"1";"0";;;"1";"155";"154";"module.training_block4.exec-7541.GoNoGo4";;;;;;;;;;;;;;;;;;;;;;;;;;;;;;;;;;;;;;;;;;;;;;;;;;;;;;;;;;;"1262";"2014-09-29 14:47:17.326";"NST_correctLoc";"17";"0";"FINISHED";"LEFT";"success";"322";"0";"2014-09-29 14:47:16.062";"2";;;;;;;;;;;;;;;;;;;;;
"e1r2m3";"1995";;"Windows 7";"Rachel's Experiment (D.T.)";"1.0";"2";"1";"1";"2";"2";"2";"2014-09-29 14:38:04.726";"2014-09-29 14:54:01.008";"1";"0";;;"1";"156";"155";"module.training_block4.exec-7541.GoNoGo4";;;;;;;;;;;;;;;;;;;;;;;;;;;;;;;;;;;;;;;;;;;;;;;;;;;;;;;;;;;"1261";"2014-09-29 14:47:19.869";"NST_correctLoc";"3";"1";"FINISHED";"RIGHT";"success";"363";"0";"2014-09-29 14:47:18.605";"1";;;;;;;;;;;;;;;;;;;;;
"e1r2m3";"1995";;"Windows 7";"Rachel's Experiment (D.T.)";"1.0";"2";"1";"1";"2";"2";"2";"2014-09-29 14:38:04.726";"2014-09-29 14:54:01.008";"1";"0";;;"1";"157";"156";"module.training_block4.exec-7541.GoNoGo4";;;;;;;;;;;;;;;;;;;;;;;;;;;;;;;;;;;;;;;;;;;;;;;;;;;;;;;;;;;"1262";"2014-09-29 14:47:22.396";"NST_correctLoc";"9";"1";"FINISHED";"RIGHT";"success";"356";"0";"2014-09-29 14:47:21.132";"2";;;;;;;;;;;;;;;;;;;;;
"e1r2m3";"1995";;"Windows 7";"Rachel's Experiment (D.T.)";"1.0";"2";"1";"1";"2";"2";"2";"2014-09-29 14:38:04.726";"2014-09-29 14:54:01.008";"1";"0";;;"1";"158";"157";"module.training_block4.exec-7541.GoNoGo4";;;;;;;;;;;;;;;;;;;;;;;;;;;;;;;;;;;;;;;;;;;;;;;;;;;;;;;;;;;"1262";"2014-09-29 14:47:24.939";"NST_correctLoc";"4";"1";"FINISHED";"RIGHT";"success";"357";"0";"2014-09-29 14:47:23.675";"1";;;;;;;;;;;;;;;;;;;;;
"e1r2m3";"1995";;"Windows 7";"Rachel's Experiment (D.T.)";"1.0";"2";"1";"1";"2";"2";"2";"2014-09-29 14:38:04.726";"2014-09-29 14:54:01.008";"1";"0";;;"1";"159";"158";"module.training_block4.exec-7541.GoNoGo4";;;;;;;;;;;;;;;;;;;;;;;;;;;;;;;;;;;;;;;;;;;;;;;;;;;;;;;;;;;"1262";"2014-09-29 14:47:27.466";"NST_correctLoc";"2";"1";"FINISHED";"RIGHT";"success";"342";"0";"2014-09-29 14:47:26.202";"1";;;;;;;;;;;;;;;;;;;;;
"e1r2m3";"1995";;"Windows 7";"Rachel's Experiment (D.T.)";"1.0";"2";"1";"1";"2";"2";"2";"2014-09-29 14:38:04.726";"2014-09-29 14:54:01.008";"1";"0";;;"1";"160";"159";"module.devaluation_practice.exec-8397.devalPractice";;;;;;;;;;;;"19354";"2014-09-29 14:48:21.317";"0";"9";"8";"9";"3097";"3652";"9546";"2014-09-29 14:48:01.958";;;;;;;;;;;;;;;;;;;;;;;;;;;;;;;;;;;;;;;;;;;;;;;;;;;;;;;;;;;;;;;;;;;;;;
"e1r2m3";"1995";;"Windows 7";"Rachel's Experiment (D.T.)";"1.0";"2";"1";"1";"2";"2";"2";"2014-09-29 14:38:04.726";"2014-09-29 14:54:01.008";"1";"0";;;"1";"161";"160";"module.devaluation_practice.exec-8397.devalPractice";;;;;;;;;;;;"10811";"2014-09-29 14:48:32.144";"1";"4";"4";"4";"2346";"1161";"4277";"2014-09-29 14:48:21.333";;;;;;;;;;;;;;;;;;;;;;;;;;;;;;;;;;;;;;;;;;;;;;;;;;;;;;;;;;;;;;;;;;;;;;
"e1r2m3";"1995";;"Windows 7";"Rachel's Experiment (D.T.)";"1.0";"2";"1";"1";"2";"2";"2";"2014-09-29 14:38:04.726";"2014-09-29 14:54:01.008";"1";"0";;;"1";"162";"161";"module.devaluation_practice.exec-8397.devalPractice";;;;;;;;;;;;"10836";"2014-09-29 14:48:43.001";"2";"7";"5";"8";"2346";"2673";"2803";"2014-09-29 14:48:32.159";;;;;;;;;;;;;;;;;;;;;;;;;;;;;;;;;;;;;;;;;;;;;;;;;;;;;;;;;;;;;;;;;;;;;;
"e1r2m3";"1995";;"Windows 7";"Rachel's Experiment (D.T.)";"1.0";"2";"1";"1";"2";"2";"2";"2014-09-29 14:38:04.726";"2014-09-29 14:54:01.008";"1";"0";;;"1";"163";"162";"module.devaluation_practice.exec-8397.devalPractice";;;;;;;;;;;;"11467";"2014-09-29 14:48:54.483";"3";"4";"4";"5";"2888";"2445";"3105";"2014-09-29 14:48:43.017";;;;;;;;;;;;;;;;;;;;;;;;;;;;;;;;;;;;;;;;;;;;;;;;;;;;;;;;;;;;;;;;;;;;;;
"e1r2m3";"1995";;"Windows 7";"Rachel's Experiment (D.T.)";"1.0";"2";"1";"1";"2";"2";"2";"2014-09-29 14:38:04.726";"2014-09-29 14:54:01.008";"1";"0";;;"1";"164";"163";"module.devaluation_block1.exec-2314.deval1";"15432";"2014-09-29 14:49:16.167";"8";"7";"5";"7";"5462";"2238";"4696";"2014-09-29 14:49:00.738";"1";;;;;;;;;;;;;;;;;;;;;;;;;;;;;;;;;;;;;;;;;;;;;;;;;;;;;;;;;;;;;;;;;;;;;;;;;;;;;;;;
"e1r2m3";"1995";;"Windows 7";"Rachel's Experiment (D.T.)";"1.0";"2";"1";"1";"2";"2";"2";"2014-09-29 14:38:04.726";"2014-09-29 14:54:01.008";"1";"0";;;"1";"165";"164";"module.devaluation_block1.exec-2314.deval1";"12002";"2014-09-29 14:49:28.195";"4";"7";"5";"8";"3492";"1868";"3610";"2014-09-29 14:49:16.198";"1";;;;;;;;;;;;;;;;;;;;;;;;;;;;;;;;;;;;;;;;;;;;;;;;;;;;;;;;;;;;;;;;;;;;;;;;;;;;;;;;
"e1r2m3";"1995";;"Windows 7";"Rachel's Experiment (D.T.)";"1.0";"2";"1";"1";"2";"2";"2";"2014-09-29 14:38:04.726";"2014-09-29 14:54:01.008";"1";"0";;;"1";"166";"165";"module.devaluation_block1.exec-2314.deval1";"12035";"2014-09-29 14:49:40.253";"9";"8";"6";"6";"2336";"3004";"3673";"2014-09-29 14:49:28.226";"2";;;;;;;;;;;;;;;;;;;;;;;;;;;;;;;;;;;;;;;;;;;;;;;;;;;;;;;;;;;;;;;;;;;;;;;;;;;;;;;;
"e1r2m3";"1995";;"Windows 7";"Rachel's Experiment (D.T.)";"1.0";"2";"1";"1";"2";"2";"2";"2014-09-29 14:38:04.726";"2014-09-29 14:54:01.008";"1";"0";;;"1";"167";"166";"module.devaluation_block1.exec-2314.deval1";"11436";"2014-09-29 14:49:51.719";"1";"3";"3";"5";"2949";"2729";"2718";"2014-09-29 14:49:40.285";"1";;;;;;;;;;;;;;;;;;;;;;;;;;;;;;;;;;;;;;;;;;;;;;;;;;;;;;;;;;;;;;;;;;;;;;;;;;;;;;;;
"e1r2m3";"1995";;"Windows 7";"Rachel's Experiment (D.T.)";"1.0";"2";"1";"1";"2";"2";"2";"2014-09-29 14:38:04.726";"2014-09-29 14:54:01.008";"1";"0";;;"1";"168";"167";"module.devaluation_block1.exec-2314.deval1";"10348";"2014-09-29 14:50:02.078";"21";"5";"6";"7";"2667";"1677";"2964";"2014-09-29 14:49:51.735";"3";;;;;;;;;;;;;;;;;;;;;;;;;;;;;;;;;;;;;;;;;;;;;;;;;;;;;;;;;;;;;;;;;;;;;;;;;;;;;;;;
"e1r2m3";"1995";;"Windows 7";"Rachel's Experiment (D.T.)";"1.0";"2";"1";"1";"2";"2";"2";"2014-09-29 14:38:04.726";"2014-09-29 14:54:01.008";"1";"0";;;"1";"169";"168";"module.devaluation_block1.exec-2314.deval1";"20965";"2014-09-29 14:50:23.075";"14";"7";"4";"5";"14244";"1547";"2135";"2014-09-29 14:50:02.109";"2";;;;;;;;;;;;;;;;;;;;;;;;;;;;;;;;;;;;;;;;;;;;;;;;;;;;;;;;;;;;;;;;;;;;;;;;;;;;;;;;
"e1r2m3";"1995";;"Windows 7";"Rachel's Experiment (D.T.)";"1.0";"2";"1";"1";"2";"2";"2";"2014-09-29 14:38:04.726";"2014-09-29 14:54:01.008";"1";"0";;;"1";"170";"169";"module.devaluation_block1.exec-2314.deval1";"8786";"2014-09-29 14:50:31.874";"25";"6";"6";"7";"2110";"1478";"2170";"2014-09-29 14:50:23.091";"3";;;;;;;;;;;;;;;;;;;;;;;;;;;;;;;;;;;;;;;;;;;;;;;;;;;;;;;;;;;;;;;;;;;;;;;;;;;;;;;;
"e1r2m3";"1995";;"Windows 7";"Rachel's Experiment (D.T.)";"1.0";"2";"1";"1";"2";"2";"2";"2014-09-29 14:38:04.726";"2014-09-29 14:54:01.008";"1";"0";;;"1";"171";"170";"module.devaluation_block1.exec-2314.deval1";"9577";"2014-09-29 14:50:41.499";"18";"5";"3";"6";"1289";"2405";"2863";"2014-09-29 14:50:31.921";"3";;;;;;;;;;;;;;;;;;;;;;;;;;;;;;;;;;;;;;;;;;;;;;;;;;;;;;;;;;;;;;;;;;;;;;;;;;;;;;;;
"e1r2m3";"1995";;"Windows 7";"Rachel's Experiment (D.T.)";"1.0";"2";"1";"1";"2";"2";"2";"2014-09-29 14:38:04.726";"2014-09-29 14:54:01.008";"1";"0";;;"1";"172";"171";"module.devaluation_block1.exec-2314.deval1";"10218";"2014-09-29 14:50:51.842";"15";"1";"1";"1";"2777";"1705";"2695";"2014-09-29 14:50:41.624";"2";;;;;;;;;;;;;;;;;;;;;;;;;;;;;;;;;;;;;;;;;;;;;;;;;;;;;;;;;;;;;;;;;;;;;;;;;;;;;;;;
"e1r2m3";"1995";;"Windows 7";"Rachel's Experiment (D.T.)";"1.0";"2";"1";"1";"2";"2";"2";"2014-09-29 14:38:04.726";"2014-09-29 14:54:01.008";"1";"0";;;"1";"173";"172";"module.devaluation_block1.exec-2314.deval1";"9241";"2014-09-29 14:51:01.108";"0";"7";"4";"8";"1888";"2240";"2086";"2014-09-29 14:50:51.873";"1";;;;;;;;;;;;;;;;;;;;;;;;;;;;;;;;;;;;;;;;;;;;;;;;;;;;;;;;;;;;;;;;;;;;;;;;;;;;;;;;
"e1r2m3";"1995";;"Windows 7";"Rachel's Experiment (D.T.)";"1.0";"2";"1";"1";"2";"2";"2";"2014-09-29 14:38:04.726";"2014-09-29 14:54:01.008";"1";"0";;;"1";"174";"173";"module.devaluation_block1.exec-2314.deval1";"8156";"2014-09-29 14:51:09.283";"17";"1";"1";"1";"1558";"1633";"1923";"2014-09-29 14:51:01.139";"2";;;;;;;;;;;;;;;;;;;;;;;;;;;;;;;;;;;;;;;;;;;;;;;;;;;;;;;;;;;;;;;;;;;;;;;;;;;;;;;;
"e1r2m3";"1995";;"Windows 7";"Rachel's Experiment (D.T.)";"1.0";"2";"1";"1";"2";"2";"2";"2014-09-29 14:38:04.726";"2014-09-29 14:54:01.008";"1";"0";;;"1";"175";"174";"module.devaluation_block1.exec-2314.deval1";"9314";"2014-09-29 14:51:18.627";"23";"7";"4";"6";"2903";"2077";"1295";"2014-09-29 14:51:09.314";"3";;;;;;;;;;;;;;;;;;;;;;;;;;;;;;;;;;;;;;;;;;;;;;;;;;;;;;;;;;;;;;;;;;;;;;;;;;;;;;;;
"e1r2m3";"1995";;"Windows 7";"Rachel's Experiment (D.T.)";"1.0";"2";"1";"1";"2";"2";"2";"2014-09-29 14:38:04.726";"2014-09-29 14:54:01.008";"1";"0";;;"1";"176";"175";"module.devaluation_block1.exec-2314.deval1";"12587";"2014-09-29 14:51:31.232";"11";"8";"3";"3";"2583";"2330";"4654";"2014-09-29 14:51:18.643";"2";;;;;;;;;;;;;;;;;;;;;;;;;;;;;;;;;;;;;;;;;;;;;;;;;;;;;;;;;;;;;;;;;;;;;;;;;;;;;;;;
"e1r2m3";"1995";;"Windows 7";"Rachel's Experiment (D.T.)";"1.0";"2";"1";"1";"2";"2";"2";"2014-09-29 14:38:04.726";"2014-09-29 14:54:01.008";"1";"0";;;"1";"177";"176";"module.devaluation_block1.exec-2314.deval1";"8210";"2014-09-29 14:51:39.469";"13";"8";"4";"7";"1842";"1740";"1590";"2014-09-29 14:51:31.263";"2";;;;;;;;;;;;;;;;;;;;;;;;;;;;;;;;;;;;;;;;;;;;;;;;;;;;;;;;;;;;;;;;;;;;;;;;;;;;;;;;
"e1r2m3";"1995";;"Windows 7";"Rachel's Experiment (D.T.)";"1.0";"2";"1";"1";"2";"2";"2";"2014-09-29 14:38:04.726";"2014-09-29 14:54:01.008";"1";"0";;;"1";"178";"177";"module.devaluation_block1.exec-2314.deval1";"9795";"2014-09-29 14:51:49.281";"26";"8";"2";"5";"2909";"1697";"2157";"2014-09-29 14:51:39.500";"3";;;;;;;;;;;;;;;;;;;;;;;;;;;;;;;;;;;;;;;;;;;;;;;;;;;;;;;;;;;;;;;;;;;;;;;;;;;;;;;;
"e1r2m3";"1995";;"Windows 7";"Rachel's Experiment (D.T.)";"1.0";"2";"1";"1";"2";"2";"2";"2014-09-29 14:38:04.726";"2014-09-29 14:54:01.008";"1";"0";;;"1";"179";"178";"module.devaluation_block1.exec-2314.deval1";"15667";"2014-09-29 14:52:04.975";"19";"4";"1";"5";"2889";"4593";"5160";"2014-09-29 14:51:49.312";"3";;;;;;;;;;;;;;;;;;;;;;;;;;;;;;;;;;;;;;;;;;;;;;;;;;;;;;;;;;;;;;;;;;;;;;;;;;;;;;;;
"e1r2m3";"1995";;"Windows 7";"Rachel's Experiment (D.T.)";"1.0";"2";"1";"1";"2";"2";"2";"2014-09-29 14:38:04.726";"2014-09-29 14:54:01.008";"1";"0";;;"1";"180";"179";"module.devaluation_block1.exec-2314.deval1";"8051";"2014-09-29 14:52:13.056";"22";"4";"2";"5";"1698";"1183";"2147";"2014-09-29 14:52:04.990";"3";;;;;;;;;;;;;;;;;;;;;;;;;;;;;;;;;;;;;;;;;;;;;;;;;;;;;;;;;;;;;;;;;;;;;;;;;;;;;;;;
"e1r2m3";"1995";;"Windows 7";"Rachel's Experiment (D.T.)";"1.0";"2";"1";"1";"2";"2";"2";"2014-09-29 14:38:04.726";"2014-09-29 14:54:01.008";"1";"0";;;"1";"181";"180";"module.devaluation_block1.exec-2314.deval1";"11765";"2014-09-29 14:52:24.849";"2";"5";"3";"6";"4042";"1891";"2791";"2014-09-29 14:52:13.087";"1";;;;;;;;;;;;;;;;;;;;;;;;;;;;;;;;;;;;;;;;;;;;;;;;;;;;;;;;;;;;;;;;;;;;;;;;;;;;;;;;
"e1r2m3";"1995";;"Windows 7";"Rachel's Experiment (D.T.)";"1.0";"2";"1";"1";"2";"2";"2";"2014-09-29 14:38:04.726";"2014-09-29 14:54:01.008";"1";"0";;;"1";"182";"181";"module.devaluation_block1.exec-2314.deval1";"9729";"2014-09-29 14:52:34.615";"20";"2";"1";"3";"3088";"1683";"1925";"2014-09-29 14:52:24.880";"3";;;;;;;;;;;;;;;;;;;;;;;;;;;;;;;;;;;;;;;;;;;;;;;;;;;;;;;;;;;;;;;;;;;;;;;;;;;;;;;;
"e1r2m3";"1995";;"Windows 7";"Rachel's Experiment (D.T.)";"1.0";"2";"1";"1";"2";"2";"2";"2014-09-29 14:38:04.726";"2014-09-29 14:54:01.008";"1";"0";;;"1";"183";"182";"module.devaluation_block1.exec-2314.deval1";"8012";"2014-09-29 14:52:42.633";"16";"1";"1";"1";"2146";"1432";"1414";"2014-09-29 14:52:34.630";"2";;;;;;;;;;;;;;;;;;;;;;;;;;;;;;;;;;;;;;;;;;;;;;;;;;;;;;;;;;;;;;;;;;;;;;;;;;;;;;;;
"e1r2m3";"1995";;"Windows 7";"Rachel's Experiment (D.T.)";"1.0";"2";"1";"1";"2";"2";"2";"2014-09-29 14:38:04.726";"2014-09-29 14:54:01.008";"1";"0";;;"1";"184";"183";"module.devaluation_block1.exec-2314.deval1";"8715";"2014-09-29 14:52:51.369";"24";"8";"3";"7";"2456";"1681";"1548";"2014-09-29 14:52:42.664";"3";;;;;;;;;;;;;;;;;;;;;;;;;;;;;;;;;;;;;;;;;;;;;;;;;;;;;;;;;;;;;;;;;;;;;;;;;;;;;;;;
"e1r2m3";"1995";;"Windows 7";"Rachel's Experiment (D.T.)";"1.0";"2";"1";"1";"2";"2";"2";"2014-09-29 14:38:04.726";"2014-09-29 14:54:01.008";"1";"0";;;"1";"185";"184";"module.devaluation_block1.exec-2314.deval1";"11388";"2014-09-29 14:53:02.788";"12";"8";"1";"6";"1984";"1758";"4608";"2014-09-29 14:52:51.400";"2";;;;;;;;;;;;;;;;;;;;;;;;;;;;;;;;;;;;;;;;;;;;;;;;;;;;;;;;;;;;;;;;;;;;;;;;;;;;;;;;
"e1r2m3";"1995";;"Windows 7";"Rachel's Experiment (D.T.)";"1.0";"2";"1";"1";"2";"2";"2";"2014-09-29 14:38:04.726";"2014-09-29 14:54:01.008";"1";"0";;;"1";"186";"185";"module.devaluation_block1.exec-2314.deval1";"8787";"2014-09-29 14:53:11.587";"6";"7";"3";"7";"1948";"2210";"1596";"2014-09-29 14:53:02.804";"1";;;;;;;;;;;;;;;;;;;;;;;;;;;;;;;;;;;;;;;;;;;;;;;;;;;;;;;;;;;;;;;;;;;;;;;;;;;;;;;;
"e1r2m3";"1995";;"Windows 7";"Rachel's Experiment (D.T.)";"1.0";"2";"1";"1";"2";"2";"2";"2014-09-29 14:38:04.726";"2014-09-29 14:54:01.008";"1";"0";;;"1";"187";"186";"module.devaluation_block1.exec-2314.deval1";"8780";"2014-09-29 14:53:20.385";"3";"7";"1";"7";"3262";"1150";"1335";"2014-09-29 14:53:11.618";"1";;;;;;;;;;;;;;;;;;;;;;;;;;;;;;;;;;;;;;;;;;;;;;;;;;;;;;;;;;;;;;;;;;;;;;;;;;;;;;;;
"e1r2m3";"1995";;"Windows 7";"Rachel's Experiment (D.T.)";"1.0";"2";"1";"1";"2";"2";"2";"2014-09-29 14:38:04.726";"2014-09-29 14:54:01.008";"1";"0";;;"1";"188";"187";"module.devaluation_block1.exec-2314.deval1";"17099";"2014-09-29 14:53:37.514";"7";"7";"2";"7";"9760";"3045";"1263";"2014-09-29 14:53:20.417";"1";;;;;;;;;;;;;;;;;;;;;;;;;;;;;;;;;;;;;;;;;;;;;;;;;;;;;;;;;;;;;;;;;;;;;;;;;;;;;;;;
"e1r2m3";"1995";;"Windows 7";"Rachel's Experiment (D.T.)";"1.0";"2";"1";"1";"2";"2";"2";"2014-09-29 14:38:04.726";"2014-09-29 14:54:01.008";"1";"0";;;"1";"189";"188";"module.devaluation_block1.exec-2314.deval1";"6844";"2014-09-29 14:53:44.378";"5";"7";"2";"7";"1495";"1297";"1018";"2014-09-29 14:53:37.530";"1";;;;;;;;;;;;;;;;;;;;;;;;;;;;;;;;;;;;;;;;;;;;;;;;;;;;;;;;;;;;;;;;;;;;;;;;;;;;;;;;
"e1r2m3";"1995";;"Windows 7";"Rachel's Experiment (D.T.)";"1.0";"2";"1";"1";"2";"2";"2";"2014-09-29 14:38:04.726";"2014-09-29 14:54:01.008";"1";"0";;;"1";"190";"189";"module.devaluation_block1.exec-2314.deval1";"13540";"2014-09-29 14:53:57.935";"10";"8";"2";"8";"2390";"6449";"1681";"2014-09-29 14:53:44.394";"2";;;;;;;;;;;;;;;;;;;;;;;;;;;;;;;;;;;;;;;;;;;;;;;;;;;;;;;;;;;;;;;;;;;;;;;;;;;;;;;;
