"user.name";"user.yearOfBirth";"user.sex";"user.osName";"module.name";"module.version";"module.online.subject.code";"module.online.study.id";"module.online.module.nr";"module.online.group.nr";"session.id";"session.index";"session.startTime";"session.endTime";"session.completed";"session.node-1638.conditionType";"session.node-5919.DevalQorder";"trial.id";"trial.index";"trial.name";"trial.deval1.durationTime";"trial.deval1.endTime";"trial.deval1.icon";"trial.deval1.Resp_Attractive";"trial.deval1.Resp_Eat";"trial.deval1.Resp_Taste";"trial.deval1.RT_Attractive";"trial.deval1.RT_Eat";"trial.deval1.RT_Taste";"trial.deval1.startTime";"trial.deval1.stimulus type";"trial.devalPractice.durationTime";"trial.devalPractice.endTime";"trial.devalPractice.icon";"trial.devalPractice.Resp_Attractive";"trial.devalPractice.Resp_Eat";"trial.devalPractice.Resp_Taste";"trial.devalPractice.RT_Attractive";"trial.devalPractice.RT_Eat";"trial.devalPractice.RT_Taste";"trial.devalPractice.startTime";"trial.devalPractice.stimulus type";"trial.GoNoGo1.durationTime";"trial.GoNoGo1.endTime";"trial.GoNoGo1.Error Type";"trial.GoNoGo1.icon";"trial.GoNoGo1.location";"trial.GoNoGo1.outcome";"trial.GoNoGo1.response";"trial.GoNoGo1.result";"trial.GoNoGo1.RT";"trial.GoNoGo1.signal";"trial.GoNoGo1.startTime";"trial.GoNoGo1.stimulus type";"trial.GoNoGo2.durationTime";"trial.GoNoGo2.endTime";"trial.GoNoGo2.Error Type";"trial.GoNoGo2.icon";"trial.GoNoGo2.location";"trial.GoNoGo2.outcome";"trial.GoNoGo2.response";"trial.GoNoGo2.result";"trial.GoNoGo2.RT";"trial.GoNoGo2.signal";"trial.GoNoGo2.startTime";"trial.GoNoGo2.stimulus type";"trial.GoNoGo3.durationTime";"trial.GoNoGo3.endTime";"trial.GoNoGo3.Error Type";"trial.GoNoGo3.icon";"trial.GoNoGo3.location";"trial.GoNoGo3.outcome";"trial.GoNoGo3.response";"trial.GoNoGo3.result";"trial.GoNoGo3.RT";"trial.GoNoGo3.signal";"trial.GoNoGo3.startTime";"trial.GoNoGo3.stimulus type";"trial.GoNoGo4.durationTime";"trial.GoNoGo4.endTime";"trial.GoNoGo4.Error Type";"trial.GoNoGo4.icon";"trial.GoNoGo4.location";"trial.GoNoGo4.outcome";"trial.GoNoGo4.response";"trial.GoNoGo4.result";"trial.GoNoGo4.RT";"trial.GoNoGo4.signal";"trial.GoNoGo4.startTime";"trial.GoNoGo4.stimulus type";"trial.GoNoGo_Practice.durationTime";"trial.GoNoGo_Practice.endTime";"trial.GoNoGo_Practice.icon";"trial.GoNoGo_Practice.location";"trial.GoNoGo_Practice.outcome";"trial.GoNoGo_Practice.response";"trial.GoNoGo_Practice.result";"trial.GoNoGo_Practice.RT";"trial.GoNoGo_Practice.signal";"trial.GoNoGo_Practice.startTime";"trial.GoNoGo_Practice.stimulus type";"trial.GoNoGo_Tutorial.durationTime";"trial.GoNoGo_Tutorial.endTime";"trial.GoNoGo_Tutorial.icon";"trial.GoNoGo_Tutorial.location";"trial.GoNoGo_Tutorial.outcome";"trial.GoNoGo_Tutorial.response";"trial.GoNoGo_Tutorial.result";"trial.GoNoGo_Tutorial.RT";"trial.GoNoGo_Tutorial.signal";"trial.GoNoGo_Tutorial.startTime"
"c1316369";"1995";;"Windows 7";"Rachel's Experiment (D.T.)";"1.0";"2";"1";"1";"2";"1";"1";"2014-10-07 11:00:18.739";"2014-10-07 11:12:47.212";"1";"0";"0";"1";"0";"module.GoNoGotutorial.exec-9824.GoNoGo_Tutorial";;;;;;;;;;;;;;;;;;;;;;;;;;;;;;;;;;;;;;;;;;;;;;;;;;;;;;;;;;;;;;;;;;;;;;;;;;;;;;;;;;"3998";"2014-10-07 11:01:08.362";"leftResponse";"0";"FINISHED";"LEFT";"success";"1873";"0";"2014-10-07 11:01:04.353"
"c1316369";"1995";;"Windows 7";"Rachel's Experiment (D.T.)";"1.0";"2";"1";"1";"2";"1";"1";"2014-10-07 11:00:18.739";"2014-10-07 11:12:47.212";"1";"0";"0";"2";"1";"module.GoNoGotutorial.exec-9824.GoNoGo_Tutorial";;;;;;;;;;;;;;;;;;;;;;;;;;;;;;;;;;;;;;;;;;;;;;;;;;;;;;;;;;;;;;;;;;;;;;;;;;;;;;;;;;"4003";"2014-10-07 11:01:13.666";"rightResponse";"1";"FINISHED";"RIGHT";"success";"870";"0";"2014-10-07 11:01:09.657"
"c1316369";"1995";;"Windows 7";"Rachel's Experiment (D.T.)";"1.0";"2";"1";"1";"2";"1";"1";"2014-10-07 11:00:18.739";"2014-10-07 11:12:47.212";"1";"0";"0";"3";"2";"module.GoNoGotutorial.exec-9824.GoNoGo_Tutorial";;;;;;;;;;;;;;;;;;;;;;;;;;;;;;;;;;;;;;;;;;;;;;;;;;;;;;;;;;;;;;;;;;;;;;;;;;;;;;;;;;"4003";"2014-10-07 11:01:18.970";"quickResponse";"0";"FINISHED";"NONE";"failure";"0";"0";"2014-10-07 11:01:14.961"
"c1316369";"1995";;"Windows 7";"Rachel's Experiment (D.T.)";"1.0";"2";"1";"1";"2";"1";"1";"2014-10-07 11:00:18.739";"2014-10-07 11:12:47.212";"1";"0";"0";"4";"3";"module.GoNoGopractice.exec-7137.GoNoGo_Practice";;;;;;;;;;;;;;;;;;;;;;;;;;;;;;;;;;;;;;;;;;;;;;;;;;;;;;;;;;;;;;;;;;;;;;;"1959";"2014-10-07 11:01:26.287";"18";"0";"FINISHED";"LEFT";"success";"606";"0";"2014-10-07 11:01:24.321";"3";;;;;;;;;;
"c1316369";"1995";;"Windows 7";"Rachel's Experiment (D.T.)";"1.0";"2";"1";"1";"2";"1";"1";"2014-10-07 11:00:18.739";"2014-10-07 11:12:47.212";"1";"0";"0";"5";"4";"module.GoNoGopractice.exec-7137.GoNoGo_Practice";;;;;;;;;;;;;;;;;;;;;;;;;;;;;;;;;;;;;;;;;;;;;;;;;;;;;;;;;;;;;;;;;;;;;;;"1959";"2014-10-07 11:01:29.532";"21";"1";"FINISHED";"RIGHT";"success";"369";"0";"2014-10-07 11:01:27.566";"3";;;;;;;;;;
"c1316369";"1995";;"Windows 7";"Rachel's Experiment (D.T.)";"1.0";"2";"1";"1";"2";"1";"1";"2014-10-07 11:00:18.739";"2014-10-07 11:12:47.212";"1";"0";"0";"6";"5";"module.GoNoGopractice.exec-7137.GoNoGo_Practice";;;;;;;;;;;;;;;;;;;;;;;;;;;;;;;;;;;;;;;;;;;;;;;;;;;;;;;;;;;;;;;;;;;;;;;"1959";"2014-10-07 11:01:32.777";"14";"1";"FINISHED";"RIGHT";"success";"532";"0";"2014-10-07 11:01:30.811";"2";;;;;;;;;;
"c1316369";"1995";;"Windows 7";"Rachel's Experiment (D.T.)";"1.0";"2";"1";"1";"2";"1";"1";"2014-10-07 11:00:18.739";"2014-10-07 11:12:47.212";"1";"0";"0";"7";"6";"module.GoNoGopractice.exec-7137.GoNoGo_Practice";;;;;;;;;;;;;;;;;;;;;;;;;;;;;;;;;;;;;;;;;;;;;;;;;;;;;;;;;;;;;;;;;;;;;;;"1959";"2014-10-07 11:01:36.021";"26";"0";"FINISHED";"LEFT";"success";"384";"0";"2014-10-07 11:01:34.056";"3";;;;;;;;;;
"c1316369";"1995";;"Windows 7";"Rachel's Experiment (D.T.)";"1.0";"2";"1";"1";"2";"1";"1";"2014-10-07 11:00:18.739";"2014-10-07 11:12:47.212";"1";"0";"0";"8";"7";"module.GoNoGopractice.exec-7137.GoNoGo_Practice";;;;;;;;;;;;;;;;;;;;;;;;;;;;;;;;;;;;;;;;;;;;;;;;;;;;;;;;;;;;;;;;;;;;;;;"1959";"2014-10-07 11:01:39.266";"2";"0";"FINISHED";"LEFT";"success";"459";"0";"2014-10-07 11:01:37.301";"1";;;;;;;;;;
"c1316369";"1995";;"Windows 7";"Rachel's Experiment (D.T.)";"1.0";"2";"1";"1";"2";"1";"1";"2014-10-07 11:00:18.739";"2014-10-07 11:12:47.212";"1";"0";"0";"9";"8";"module.GoNoGopractice.exec-7137.GoNoGo_Practice";;;;;;;;;;;;;;;;;;;;;;;;;;;;;;;;;;;;;;;;;;;;;;;;;;;;;;;;;;;;;;;;;;;;;;;"1960";"2014-10-07 11:01:42.511";"30";"0";"FINISHED";"LEFT";"success";"511";"0";"2014-10-07 11:01:40.545";"3";;;;;;;;;;
"c1316369";"1995";;"Windows 7";"Rachel's Experiment (D.T.)";"1.0";"2";"1";"1";"2";"1";"1";"2014-10-07 11:00:18.739";"2014-10-07 11:12:47.212";"1";"0";"0";"10";"9";"module.GoNoGopractice.exec-7137.GoNoGo_Practice";;;;;;;;;;;;;;;;;;;;;;;;;;;;;;;;;;;;;;;;;;;;;;;;;;;;;;;;;;;;;;;;;;;;;;;"1959";"2014-10-07 11:01:45.756";"6";"1";"FINISHED";"RIGHT";"success";"433";"0";"2014-10-07 11:01:43.790";"1";;;;;;;;;;
"c1316369";"1995";;"Windows 7";"Rachel's Experiment (D.T.)";"1.0";"2";"1";"1";"2";"1";"1";"2014-10-07 11:00:18.739";"2014-10-07 11:12:47.212";"1";"0";"0";"11";"10";"module.GoNoGopractice.exec-7137.GoNoGo_Practice";;;;;;;;;;;;;;;;;;;;;;;;;;;;;;;;;;;;;;;;;;;;;;;;;;;;;;;;;;;;;;;;;;;;;;;"1960";"2014-10-07 11:01:49.001";"34";"0";"FINISHED";"LEFT";"success";"501";"0";"2014-10-07 11:01:47.035";"3";;;;;;;;;;
"c1316369";"1995";;"Windows 7";"Rachel's Experiment (D.T.)";"1.0";"2";"1";"1";"2";"1";"1";"2014-10-07 11:00:18.739";"2014-10-07 11:12:47.212";"1";"0";"0";"12";"11";"module.GoNoGopractice.exec-7137.GoNoGo_Practice";;;;;;;;;;;;;;;;;;;;;;;;;;;;;;;;;;;;;;;;;;;;;;;;;;;;;;;;;;;;;;;;;;;;;;;"1959";"2014-10-07 11:01:52.245";"23";"1";"FINISHED";"RIGHT";"success";"344";"0";"2014-10-07 11:01:50.280";"3";;;;;;;;;;
"c1316369";"1995";;"Windows 7";"Rachel's Experiment (D.T.)";"1.0";"2";"1";"1";"2";"1";"1";"2014-10-07 11:00:18.739";"2014-10-07 11:12:47.212";"1";"0";"0";"13";"12";"module.GoNoGopractice.exec-7137.GoNoGo_Practice";;;;;;;;;;;;;;;;;;;;;;;;;;;;;;;;;;;;;;;;;;;;;;;;;;;;;;;;;;;;;;;;;;;;;;;"1959";"2014-10-07 11:01:55.490";"13";"0";"FINISHED";"LEFT";"success";"419";"0";"2014-10-07 11:01:53.525";"2";;;;;;;;;;
"c1316369";"1995";;"Windows 7";"Rachel's Experiment (D.T.)";"1.0";"2";"1";"1";"2";"1";"1";"2014-10-07 11:00:18.739";"2014-10-07 11:12:47.212";"1";"0";"0";"14";"13";"module.GoNoGopractice.exec-7137.GoNoGo_Practice";;;;;;;;;;;;;;;;;;;;;;;;;;;;;;;;;;;;;;;;;;;;;;;;;;;;;;;;;;;;;;;;;;;;;;;"1953";"2014-10-07 11:01:58.829";"3";"1";"FINISHED";"RIGHT";"success";"346";"0";"2014-10-07 11:01:56.863";"1";;;;;;;;;;
"c1316369";"1995";;"Windows 7";"Rachel's Experiment (D.T.)";"1.0";"2";"1";"1";"2";"1";"1";"2014-10-07 11:00:18.739";"2014-10-07 11:12:47.212";"1";"0";"0";"15";"14";"module.GoNoGopractice.exec-7137.GoNoGo_Practice";;;;;;;;;;;;;;;;;;;;;;;;;;;;;;;;;;;;;;;;;;;;;;;;;;;;;;;;;;;;;;;;;;;;;;;"1959";"2014-10-07 11:02:02.073";"27";"1";"FINISHED";"RIGHT";"success";"404";"0";"2014-10-07 11:02:00.108";"3";;;;;;;;;;
"c1316369";"1995";;"Windows 7";"Rachel's Experiment (D.T.)";"1.0";"2";"1";"1";"2";"1";"1";"2014-10-07 11:00:18.739";"2014-10-07 11:12:47.212";"1";"0";"0";"16";"15";"module.training_block1.exec-3037.GoNoGo1";;;;;;;;;;;;;;;;;;;;;;;"1261";"2014-10-07 11:02:09.343";"NST_correctLoc";"27";"0";"FINISHED";"LEFT";"success";"323";"0";"2014-10-07 11:02:08.079";"3";;;;;;;;;;;;;;;;;;;;;;;;;;;;;;;;;;;;;;;;;;;;;;;;;;;;;;;;;
"c1316369";"1995";;"Windows 7";"Rachel's Experiment (D.T.)";"1.0";"2";"1";"1";"2";"1";"1";"2014-10-07 11:00:18.739";"2014-10-07 11:12:47.212";"1";"0";"0";"17";"16";"module.training_block1.exec-3037.GoNoGo1";;;;;;;;;;;;;;;;;;;;;;;"1258";"2014-10-07 11:02:11.886";"NST_correctLoc";"34";"0";"FINISHED";"LEFT";"success";"385";"0";"2014-10-07 11:02:10.622";"3";;;;;;;;;;;;;;;;;;;;;;;;;;;;;;;;;;;;;;;;;;;;;;;;;;;;;;;;;
"c1316369";"1995";;"Windows 7";"Rachel's Experiment (D.T.)";"1.0";"2";"1";"1";"2";"1";"1";"2014-10-07 11:00:18.739";"2014-10-07 11:12:47.212";"1";"0";"0";"18";"17";"module.training_block1.exec-3037.GoNoGo1";;;;;;;;;;;;;;;;;;;;;;;"1257";"2014-10-07 11:02:14.429";"NST_correctLoc";"31";"1";"FINISHED";"RIGHT";"success";"410";"0";"2014-10-07 11:02:13.165";"3";;;;;;;;;;;;;;;;;;;;;;;;;;;;;;;;;;;;;;;;;;;;;;;;;;;;;;;;;
"c1316369";"1995";;"Windows 7";"Rachel's Experiment (D.T.)";"1.0";"2";"1";"1";"2";"1";"1";"2014-10-07 11:00:18.739";"2014-10-07 11:12:47.212";"1";"0";"0";"19";"18";"module.training_block1.exec-3037.GoNoGo1";;;;;;;;;;;;;;;;;;;;;;;"1258";"2014-10-07 11:02:16.971";"NST_correctLoc";"5";"0";"FINISHED";"LEFT";"success";"396";"0";"2014-10-07 11:02:15.708";"1";;;;;;;;;;;;;;;;;;;;;;;;;;;;;;;;;;;;;;;;;;;;;;;;;;;;;;;;;
"c1316369";"1995";;"Windows 7";"Rachel's Experiment (D.T.)";"1.0";"2";"1";"1";"2";"1";"1";"2014-10-07 11:00:18.739";"2014-10-07 11:12:47.212";"1";"0";"0";"20";"19";"module.training_block1.exec-3037.GoNoGo1";;;;;;;;;;;;;;;;;;;;;;;"1257";"2014-10-07 11:02:19.514";"NST_correctLoc";"32";"0";"FINISHED";"LEFT";"success";"365";"0";"2014-10-07 11:02:18.251";"3";;;;;;;;;;;;;;;;;;;;;;;;;;;;;;;;;;;;;;;;;;;;;;;;;;;;;;;;;
"c1316369";"1995";;"Windows 7";"Rachel's Experiment (D.T.)";"1.0";"2";"1";"1";"2";"1";"1";"2014-10-07 11:00:18.739";"2014-10-07 11:12:47.212";"1";"0";"0";"21";"20";"module.training_block1.exec-3037.GoNoGo1";;;;;;;;;;;;;;;;;;;;;;;"1257";"2014-10-07 11:02:22.057";"NST_correctLoc";"21";"1";"FINISHED";"RIGHT";"success";"374";"0";"2014-10-07 11:02:20.793";"3";;;;;;;;;;;;;;;;;;;;;;;;;;;;;;;;;;;;;;;;;;;;;;;;;;;;;;;;;
"c1316369";"1995";;"Windows 7";"Rachel's Experiment (D.T.)";"1.0";"2";"1";"1";"2";"1";"1";"2014-10-07 11:00:18.739";"2014-10-07 11:12:47.212";"1";"0";"0";"22";"21";"module.training_block1.exec-3037.GoNoGo1";;;;;;;;;;;;;;;;;;;;;;;"1257";"2014-10-07 11:02:24.600";"NST_correctLoc";"13";"0";"FINISHED";"LEFT";"success";"439";"0";"2014-10-07 11:02:23.336";"2";;;;;;;;;;;;;;;;;;;;;;;;;;;;;;;;;;;;;;;;;;;;;;;;;;;;;;;;;
"c1316369";"1995";;"Windows 7";"Rachel's Experiment (D.T.)";"1.0";"2";"1";"1";"2";"1";"1";"2014-10-07 11:00:18.739";"2014-10-07 11:12:47.212";"1";"0";"0";"23";"22";"module.training_block1.exec-3037.GoNoGo1";;;;;;;;;;;;;;;;;;;;;;;"1258";"2014-10-07 11:02:27.143";"NST_correctLoc";"30";"0";"FINISHED";"LEFT";"success";"465";"0";"2014-10-07 11:02:25.879";"3";;;;;;;;;;;;;;;;;;;;;;;;;;;;;;;;;;;;;;;;;;;;;;;;;;;;;;;;;
"c1316369";"1995";;"Windows 7";"Rachel's Experiment (D.T.)";"1.0";"2";"1";"1";"2";"1";"1";"2014-10-07 11:00:18.739";"2014-10-07 11:12:47.212";"1";"0";"0";"24";"23";"module.training_block1.exec-3037.GoNoGo1";;;;;;;;;;;;;;;;;;;;;;;"1257";"2014-10-07 11:02:29.685";"NST_correctLoc";"14";"0";"FINISHED";"LEFT";"success";"353";"0";"2014-10-07 11:02:28.422";"2";;;;;;;;;;;;;;;;;;;;;;;;;;;;;;;;;;;;;;;;;;;;;;;;;;;;;;;;;
"c1316369";"1995";;"Windows 7";"Rachel's Experiment (D.T.)";"1.0";"2";"1";"1";"2";"1";"1";"2014-10-07 11:00:18.739";"2014-10-07 11:12:47.212";"1";"0";"0";"25";"24";"module.training_block1.exec-3037.GoNoGo1";;;;;;;;;;;;;;;;;;;;;;;"1258";"2014-10-07 11:02:32.228";"NST_correctLoc";"25";"0";"FINISHED";"LEFT";"success";"363";"0";"2014-10-07 11:02:30.965";"3";;;;;;;;;;;;;;;;;;;;;;;;;;;;;;;;;;;;;;;;;;;;;;;;;;;;;;;;;
"c1316369";"1995";;"Windows 7";"Rachel's Experiment (D.T.)";"1.0";"2";"1";"1";"2";"1";"1";"2014-10-07 11:00:18.739";"2014-10-07 11:12:47.212";"1";"0";"0";"26";"25";"module.training_block1.exec-3037.GoNoGo1";;;;;;;;;;;;;;;;;;;;;;;"1257";"2014-10-07 11:02:34.771";"NST_correctLoc";"33";"1";"FINISHED";"RIGHT";"success";"571";"0";"2014-10-07 11:02:33.507";"3";;;;;;;;;;;;;;;;;;;;;;;;;;;;;;;;;;;;;;;;;;;;;;;;;;;;;;;;;
"c1316369";"1995";;"Windows 7";"Rachel's Experiment (D.T.)";"1.0";"2";"1";"1";"2";"1";"1";"2014-10-07 11:00:18.739";"2014-10-07 11:12:47.212";"1";"0";"0";"27";"26";"module.training_block1.exec-3037.GoNoGo1";;;;;;;;;;;;;;;;;;;;;;;"1258";"2014-10-07 11:02:37.314";"NST_correctLoc";"12";"0";"FINISHED";"LEFT";"success";"485";"0";"2014-10-07 11:02:36.050";"2";;;;;;;;;;;;;;;;;;;;;;;;;;;;;;;;;;;;;;;;;;;;;;;;;;;;;;;;;
"c1316369";"1995";;"Windows 7";"Rachel's Experiment (D.T.)";"1.0";"2";"1";"1";"2";"1";"1";"2014-10-07 11:00:18.739";"2014-10-07 11:12:47.212";"1";"0";"0";"28";"27";"module.training_block1.exec-3037.GoNoGo1";;;;;;;;;;;;;;;;;;;;;;;"1253";"2014-10-07 11:02:39.857";"NST_correctLoc";"15";"0";"FINISHED";"LEFT";"success";"457";"0";"2014-10-07 11:02:38.593";"2";;;;;;;;;;;;;;;;;;;;;;;;;;;;;;;;;;;;;;;;;;;;;;;;;;;;;;;;;
"c1316369";"1995";;"Windows 7";"Rachel's Experiment (D.T.)";"1.0";"2";"1";"1";"2";"1";"1";"2014-10-07 11:00:18.739";"2014-10-07 11:12:47.212";"1";"0";"0";"29";"28";"module.training_block1.exec-3037.GoNoGo1";;;;;;;;;;;;;;;;;;;;;;;"1258";"2014-10-07 11:02:42.399";"NST_correctLoc";"28";"0";"FINISHED";"LEFT";"success";"408";"0";"2014-10-07 11:02:41.136";"3";;;;;;;;;;;;;;;;;;;;;;;;;;;;;;;;;;;;;;;;;;;;;;;;;;;;;;;;;
"c1316369";"1995";;"Windows 7";"Rachel's Experiment (D.T.)";"1.0";"2";"1";"1";"2";"1";"1";"2014-10-07 11:00:18.739";"2014-10-07 11:12:47.212";"1";"0";"0";"30";"29";"module.training_block1.exec-3037.GoNoGo1";;;;;;;;;;;;;;;;;;;;;;;"1258";"2014-10-07 11:02:44.942";"NST_correctLoc";"35";"1";"FINISHED";"RIGHT";"success";"497";"0";"2014-10-07 11:02:43.679";"3";;;;;;;;;;;;;;;;;;;;;;;;;;;;;;;;;;;;;;;;;;;;;;;;;;;;;;;;;
"c1316369";"1995";;"Windows 7";"Rachel's Experiment (D.T.)";"1.0";"2";"1";"1";"2";"1";"1";"2014-10-07 11:00:18.739";"2014-10-07 11:12:47.212";"1";"0";"0";"31";"30";"module.training_block1.exec-3037.GoNoGo1";;;;;;;;;;;;;;;;;;;;;;;"1257";"2014-10-07 11:02:47.485";"NST_correctLoc";"2";"0";"FINISHED";"LEFT";"success";"346";"0";"2014-10-07 11:02:46.221";"1";;;;;;;;;;;;;;;;;;;;;;;;;;;;;;;;;;;;;;;;;;;;;;;;;;;;;;;;;
"c1316369";"1995";;"Windows 7";"Rachel's Experiment (D.T.)";"1.0";"2";"1";"1";"2";"1";"1";"2014-10-07 11:00:18.739";"2014-10-07 11:12:47.212";"1";"0";"0";"32";"31";"module.training_block1.exec-3037.GoNoGo1";;;;;;;;;;;;;;;;;;;;;;;"1257";"2014-10-07 11:02:50.028";"NST_correctLoc";"8";"0";"FINISHED";"LEFT";"success";"347";"0";"2014-10-07 11:02:48.764";"1";;;;;;;;;;;;;;;;;;;;;;;;;;;;;;;;;;;;;;;;;;;;;;;;;;;;;;;;;
"c1316369";"1995";;"Windows 7";"Rachel's Experiment (D.T.)";"1.0";"2";"1";"1";"2";"1";"1";"2014-10-07 11:00:18.739";"2014-10-07 11:12:47.212";"1";"0";"0";"33";"32";"module.training_block1.exec-3037.GoNoGo1";;;;;;;;;;;;;;;;;;;;;;;"1257";"2014-10-07 11:02:52.571";"NST_correctLoc";"10";"1";"FINISHED";"RIGHT";"success";"500";"0";"2014-10-07 11:02:51.307";"2";;;;;;;;;;;;;;;;;;;;;;;;;;;;;;;;;;;;;;;;;;;;;;;;;;;;;;;;;
"c1316369";"1995";;"Windows 7";"Rachel's Experiment (D.T.)";"1.0";"2";"1";"1";"2";"1";"1";"2014-10-07 11:00:18.739";"2014-10-07 11:12:47.212";"1";"0";"0";"34";"33";"module.training_block1.exec-3037.GoNoGo1";;;;;;;;;;;;;;;;;;;;;;;"1257";"2014-10-07 11:02:55.113";"NST_correctLoc";"4";"1";"FINISHED";"RIGHT";"success";"421";"0";"2014-10-07 11:02:53.850";"1";;;;;;;;;;;;;;;;;;;;;;;;;;;;;;;;;;;;;;;;;;;;;;;;;;;;;;;;;
"c1316369";"1995";;"Windows 7";"Rachel's Experiment (D.T.)";"1.0";"2";"1";"1";"2";"1";"1";"2014-10-07 11:00:18.739";"2014-10-07 11:12:47.212";"1";"0";"0";"35";"34";"module.training_block1.exec-3037.GoNoGo1";;;;;;;;;;;;;;;;;;;;;;;"1257";"2014-10-07 11:02:57.656";"NST_correctLoc";"26";"1";"FINISHED";"RIGHT";"success";"462";"0";"2014-10-07 11:02:56.393";"3";;;;;;;;;;;;;;;;;;;;;;;;;;;;;;;;;;;;;;;;;;;;;;;;;;;;;;;;;
"c1316369";"1995";;"Windows 7";"Rachel's Experiment (D.T.)";"1.0";"2";"1";"1";"2";"1";"1";"2014-10-07 11:00:18.739";"2014-10-07 11:12:47.212";"1";"0";"0";"36";"35";"module.training_block1.exec-3037.GoNoGo1";;;;;;;;;;;;;;;;;;;;;;;"1258";"2014-10-07 11:03:00.199";"NST_correctLoc";"11";"1";"FINISHED";"RIGHT";"success";"560";"0";"2014-10-07 11:02:58.935";"2";;;;;;;;;;;;;;;;;;;;;;;;;;;;;;;;;;;;;;;;;;;;;;;;;;;;;;;;;
"c1316369";"1995";;"Windows 7";"Rachel's Experiment (D.T.)";"1.0";"2";"1";"1";"2";"1";"1";"2014-10-07 11:00:18.739";"2014-10-07 11:12:47.212";"1";"0";"0";"37";"36";"module.training_block1.exec-3037.GoNoGo1";;;;;;;;;;;;;;;;;;;;;;;"1258";"2014-10-07 11:03:02.742";"NST_correctLoc";"19";"1";"FINISHED";"RIGHT";"success";"361";"0";"2014-10-07 11:03:01.478";"3";;;;;;;;;;;;;;;;;;;;;;;;;;;;;;;;;;;;;;;;;;;;;;;;;;;;;;;;;
"c1316369";"1995";;"Windows 7";"Rachel's Experiment (D.T.)";"1.0";"2";"1";"1";"2";"1";"1";"2014-10-07 11:00:18.739";"2014-10-07 11:12:47.212";"1";"0";"0";"38";"37";"module.training_block1.exec-3037.GoNoGo1";;;;;;;;;;;;;;;;;;;;;;;"1257";"2014-10-07 11:03:05.285";"NST_correctLoc";"29";"1";"FINISHED";"RIGHT";"success";"442";"0";"2014-10-07 11:03:04.021";"3";;;;;;;;;;;;;;;;;;;;;;;;;;;;;;;;;;;;;;;;;;;;;;;;;;;;;;;;;
"c1316369";"1995";;"Windows 7";"Rachel's Experiment (D.T.)";"1.0";"2";"1";"1";"2";"1";"1";"2014-10-07 11:00:18.739";"2014-10-07 11:12:47.212";"1";"0";"0";"39";"38";"module.training_block1.exec-3037.GoNoGo1";;;;;;;;;;;;;;;;;;;;;;;"1257";"2014-10-07 11:03:07.827";"NST_correctLoc";"6";"0";"FINISHED";"LEFT";"success";"371";"0";"2014-10-07 11:03:06.564";"1";;;;;;;;;;;;;;;;;;;;;;;;;;;;;;;;;;;;;;;;;;;;;;;;;;;;;;;;;
"c1316369";"1995";;"Windows 7";"Rachel's Experiment (D.T.)";"1.0";"2";"1";"1";"2";"1";"1";"2014-10-07 11:00:18.739";"2014-10-07 11:12:47.212";"1";"0";"0";"40";"39";"module.training_block1.exec-3037.GoNoGo1";;;;;;;;;;;;;;;;;;;;;;;"1261";"2014-10-07 11:03:10.370";"NST_correctLoc";"3";"0";"FINISHED";"LEFT";"success";"384";"0";"2014-10-07 11:03:09.107";"1";;;;;;;;;;;;;;;;;;;;;;;;;;;;;;;;;;;;;;;;;;;;;;;;;;;;;;;;;
"c1316369";"1995";;"Windows 7";"Rachel's Experiment (D.T.)";"1.0";"2";"1";"1";"2";"1";"1";"2014-10-07 11:00:18.739";"2014-10-07 11:12:47.212";"1";"0";"0";"41";"40";"module.training_block1.exec-3037.GoNoGo1";;;;;;;;;;;;;;;;;;;;;;;"1257";"2014-10-07 11:03:12.913";"NST_correctLoc";"22";"1";"FINISHED";"RIGHT";"success";"389";"0";"2014-10-07 11:03:11.649";"3";;;;;;;;;;;;;;;;;;;;;;;;;;;;;;;;;;;;;;;;;;;;;;;;;;;;;;;;;
"c1316369";"1995";;"Windows 7";"Rachel's Experiment (D.T.)";"1.0";"2";"1";"1";"2";"1";"1";"2014-10-07 11:00:18.739";"2014-10-07 11:12:47.212";"1";"0";"0";"42";"41";"module.training_block1.exec-3037.GoNoGo1";;;;;;;;;;;;;;;;;;;;;;;"1258";"2014-10-07 11:03:15.456";"NST_correctLoc";"9";"0";"FINISHED";"LEFT";"success";"439";"0";"2014-10-07 11:03:14.192";"2";;;;;;;;;;;;;;;;;;;;;;;;;;;;;;;;;;;;;;;;;;;;;;;;;;;;;;;;;
"c1316369";"1995";;"Windows 7";"Rachel's Experiment (D.T.)";"1.0";"2";"1";"1";"2";"1";"1";"2014-10-07 11:00:18.739";"2014-10-07 11:12:47.212";"1";"0";"0";"43";"42";"module.training_block1.exec-3037.GoNoGo1";;;;;;;;;;;;;;;;;;;;;;;"1258";"2014-10-07 11:03:17.999";"NST_correctLoc";"24";"1";"FINISHED";"RIGHT";"success";"312";"0";"2014-10-07 11:03:16.735";"3";;;;;;;;;;;;;;;;;;;;;;;;;;;;;;;;;;;;;;;;;;;;;;;;;;;;;;;;;
"c1316369";"1995";;"Windows 7";"Rachel's Experiment (D.T.)";"1.0";"2";"1";"1";"2";"1";"1";"2014-10-07 11:00:18.739";"2014-10-07 11:12:47.212";"1";"0";"0";"44";"43";"module.training_block1.exec-3037.GoNoGo1";;;;;;;;;;;;;;;;;;;;;;;"1258";"2014-10-07 11:03:20.541";"NST_correctLoc";"18";"1";"FINISHED";"RIGHT";"success";"426";"0";"2014-10-07 11:03:19.278";"3";;;;;;;;;;;;;;;;;;;;;;;;;;;;;;;;;;;;;;;;;;;;;;;;;;;;;;;;;
"c1316369";"1995";;"Windows 7";"Rachel's Experiment (D.T.)";"1.0";"2";"1";"1";"2";"1";"1";"2014-10-07 11:00:18.739";"2014-10-07 11:12:47.212";"1";"0";"0";"45";"44";"module.training_block1.exec-3037.GoNoGo1";;;;;;;;;;;;;;;;;;;;;;;"1257";"2014-10-07 11:03:23.084";"NST_correctLoc";"7";"1";"FINISHED";"RIGHT";"success";"458";"0";"2014-10-07 11:03:21.821";"1";;;;;;;;;;;;;;;;;;;;;;;;;;;;;;;;;;;;;;;;;;;;;;;;;;;;;;;;;
"c1316369";"1995";;"Windows 7";"Rachel's Experiment (D.T.)";"1.0";"2";"1";"1";"2";"1";"1";"2014-10-07 11:00:18.739";"2014-10-07 11:12:47.212";"1";"0";"0";"46";"45";"module.training_block1.exec-3037.GoNoGo1";;;;;;;;;;;;;;;;;;;;;;;"1257";"2014-10-07 11:03:25.627";"NST_correctLoc";"23";"1";"FINISHED";"RIGHT";"success";"387";"0";"2014-10-07 11:03:24.363";"3";;;;;;;;;;;;;;;;;;;;;;;;;;;;;;;;;;;;;;;;;;;;;;;;;;;;;;;;;
"c1316369";"1995";;"Windows 7";"Rachel's Experiment (D.T.)";"1.0";"2";"1";"1";"2";"1";"1";"2014-10-07 11:00:18.739";"2014-10-07 11:12:47.212";"1";"0";"0";"47";"46";"module.training_block1.exec-3037.GoNoGo1";;;;;;;;;;;;;;;;;;;;;;;"1258";"2014-10-07 11:03:28.170";"NST_correctLoc";"16";"1";"FINISHED";"RIGHT";"success";"365";"0";"2014-10-07 11:03:26.906";"2";;;;;;;;;;;;;;;;;;;;;;;;;;;;;;;;;;;;;;;;;;;;;;;;;;;;;;;;;
"c1316369";"1995";;"Windows 7";"Rachel's Experiment (D.T.)";"1.0";"2";"1";"1";"2";"1";"1";"2014-10-07 11:00:18.739";"2014-10-07 11:12:47.212";"1";"0";"0";"48";"47";"module.training_block1.exec-3037.GoNoGo1";;;;;;;;;;;;;;;;;;;;;;;"1258";"2014-10-07 11:03:30.713";"NST_correctLoc";"20";"0";"FINISHED";"LEFT";"success";"334";"0";"2014-10-07 11:03:29.449";"3";;;;;;;;;;;;;;;;;;;;;;;;;;;;;;;;;;;;;;;;;;;;;;;;;;;;;;;;;
"c1316369";"1995";;"Windows 7";"Rachel's Experiment (D.T.)";"1.0";"2";"1";"1";"2";"1";"1";"2014-10-07 11:00:18.739";"2014-10-07 11:12:47.212";"1";"0";"0";"49";"48";"module.training_block1.exec-3037.GoNoGo1";;;;;;;;;;;;;;;;;;;;;;;"1257";"2014-10-07 11:03:33.256";"NST_correctLoc";"0";"0";"FINISHED";"LEFT";"success";"391";"0";"2014-10-07 11:03:31.992";"1";;;;;;;;;;;;;;;;;;;;;;;;;;;;;;;;;;;;;;;;;;;;;;;;;;;;;;;;;
"c1316369";"1995";;"Windows 7";"Rachel's Experiment (D.T.)";"1.0";"2";"1";"1";"2";"1";"1";"2014-10-07 11:00:18.739";"2014-10-07 11:12:47.212";"1";"0";"0";"50";"49";"module.training_block1.exec-3037.GoNoGo1";;;;;;;;;;;;;;;;;;;;;;;"1257";"2014-10-07 11:03:35.798";"NST_correctLoc";"17";"0";"FINISHED";"LEFT";"success";"399";"0";"2014-10-07 11:03:34.535";"2";;;;;;;;;;;;;;;;;;;;;;;;;;;;;;;;;;;;;;;;;;;;;;;;;;;;;;;;;
"c1316369";"1995";;"Windows 7";"Rachel's Experiment (D.T.)";"1.0";"2";"1";"1";"2";"1";"1";"2014-10-07 11:00:18.739";"2014-10-07 11:12:47.212";"1";"0";"0";"51";"50";"module.training_block1.exec-3037.GoNoGo1";;;;;;;;;;;;;;;;;;;;;;;"1258";"2014-10-07 11:03:38.341";"NST_correctLoc";"1";"1";"FINISHED";"RIGHT";"success";"354";"0";"2014-10-07 11:03:37.078";"1";;;;;;;;;;;;;;;;;;;;;;;;;;;;;;;;;;;;;;;;;;;;;;;;;;;;;;;;;
"c1316369";"1995";;"Windows 7";"Rachel's Experiment (D.T.)";"1.0";"2";"1";"1";"2";"1";"1";"2014-10-07 11:00:18.739";"2014-10-07 11:12:47.212";"1";"0";"0";"52";"51";"module.training_block2.exec-9603.GoNoGo2";;;;;;;;;;;;;;;;;;;;;;;;;;;;;;;;;;;"1261";"2014-10-07 11:03:49.012";"NST_correctLoc";"33";"0";"FINISHED";"LEFT";"success";"287";"0";"2014-10-07 11:03:47.748";"3";;;;;;;;;;;;;;;;;;;;;;;;;;;;;;;;;;;;;;;;;;;;;
"c1316369";"1995";;"Windows 7";"Rachel's Experiment (D.T.)";"1.0";"2";"1";"1";"2";"1";"1";"2014-10-07 11:00:18.739";"2014-10-07 11:12:47.212";"1";"0";"0";"53";"52";"module.training_block2.exec-9603.GoNoGo2";;;;;;;;;;;;;;;;;;;;;;;;;;;;;;;;;;;"1261";"2014-10-07 11:03:51.554";"NST_correctLoc";"19";"0";"FINISHED";"LEFT";"success";"344";"0";"2014-10-07 11:03:50.291";"3";;;;;;;;;;;;;;;;;;;;;;;;;;;;;;;;;;;;;;;;;;;;;
"c1316369";"1995";;"Windows 7";"Rachel's Experiment (D.T.)";"1.0";"2";"1";"1";"2";"1";"1";"2014-10-07 11:00:18.739";"2014-10-07 11:12:47.212";"1";"0";"0";"54";"53";"module.training_block2.exec-9603.GoNoGo2";;;;;;;;;;;;;;;;;;;;;;;;;;;;;;;;;;;"1261";"2014-10-07 11:03:54.097";"NST_correctLoc";"34";"1";"FINISHED";"RIGHT";"success";"321";"0";"2014-10-07 11:03:52.834";"3";;;;;;;;;;;;;;;;;;;;;;;;;;;;;;;;;;;;;;;;;;;;;
"c1316369";"1995";;"Windows 7";"Rachel's Experiment (D.T.)";"1.0";"2";"1";"1";"2";"1";"1";"2014-10-07 11:00:18.739";"2014-10-07 11:12:47.212";"1";"0";"0";"55";"54";"module.training_block2.exec-9603.GoNoGo2";;;;;;;;;;;;;;;;;;;;;;;;;;;;;;;;;;;"1261";"2014-10-07 11:03:56.640";"NST_correctLoc";"35";"1";"FINISHED";"RIGHT";"success";"426";"0";"2014-10-07 11:03:55.376";"3";;;;;;;;;;;;;;;;;;;;;;;;;;;;;;;;;;;;;;;;;;;;;
"c1316369";"1995";;"Windows 7";"Rachel's Experiment (D.T.)";"1.0";"2";"1";"1";"2";"1";"1";"2014-10-07 11:00:18.739";"2014-10-07 11:12:47.212";"1";"0";"0";"56";"55";"module.training_block2.exec-9603.GoNoGo2";;;;;;;;;;;;;;;;;;;;;;;;;;;;;;;;;;;"1261";"2014-10-07 11:03:59.183";"NST_correctLoc";"6";"1";"FINISHED";"RIGHT";"success";"387";"0";"2014-10-07 11:03:57.919";"1";;;;;;;;;;;;;;;;;;;;;;;;;;;;;;;;;;;;;;;;;;;;;
"c1316369";"1995";;"Windows 7";"Rachel's Experiment (D.T.)";"1.0";"2";"1";"1";"2";"1";"1";"2014-10-07 11:00:18.739";"2014-10-07 11:12:47.212";"1";"0";"0";"57";"56";"module.training_block2.exec-9603.GoNoGo2";;;;;;;;;;;;;;;;;;;;;;;;;;;;;;;;;;;"1261";"2014-10-07 11:04:01.726";"NST_correctLoc";"5";"1";"FINISHED";"RIGHT";"success";"373";"0";"2014-10-07 11:04:00.462";"1";;;;;;;;;;;;;;;;;;;;;;;;;;;;;;;;;;;;;;;;;;;;;
"c1316369";"1995";;"Windows 7";"Rachel's Experiment (D.T.)";"1.0";"2";"1";"1";"2";"1";"1";"2014-10-07 11:00:18.739";"2014-10-07 11:12:47.212";"1";"0";"0";"58";"57";"module.training_block2.exec-9603.GoNoGo2";;;;;;;;;;;;;;;;;;;;;;;;;;;;;;;;;;;"1261";"2014-10-07 11:04:04.268";"NST_correctLoc";"32";"1";"FINISHED";"RIGHT";"success";"406";"0";"2014-10-07 11:04:03.005";"3";;;;;;;;;;;;;;;;;;;;;;;;;;;;;;;;;;;;;;;;;;;;;
"c1316369";"1995";;"Windows 7";"Rachel's Experiment (D.T.)";"1.0";"2";"1";"1";"2";"1";"1";"2014-10-07 11:00:18.739";"2014-10-07 11:12:47.212";"1";"0";"0";"59";"58";"module.training_block2.exec-9603.GoNoGo2";;;;;;;;;;;;;;;;;;;;;;;;;;;;;;;;;;;"1261";"2014-10-07 11:04:06.811";"NST_correctLoc";"11";"1";"FINISHED";"RIGHT";"success";"463";"0";"2014-10-07 11:04:05.548";"2";;;;;;;;;;;;;;;;;;;;;;;;;;;;;;;;;;;;;;;;;;;;;
"c1316369";"1995";;"Windows 7";"Rachel's Experiment (D.T.)";"1.0";"2";"1";"1";"2";"1";"1";"2014-10-07 11:00:18.739";"2014-10-07 11:12:47.212";"1";"0";"0";"60";"59";"module.training_block2.exec-9603.GoNoGo2";;;;;;;;;;;;;;;;;;;;;;;;;;;;;;;;;;;"1261";"2014-10-07 11:04:09.354";"NST_correctLoc";"26";"0";"FINISHED";"LEFT";"success";"336";"0";"2014-10-07 11:04:08.090";"3";;;;;;;;;;;;;;;;;;;;;;;;;;;;;;;;;;;;;;;;;;;;;
"c1316369";"1995";;"Windows 7";"Rachel's Experiment (D.T.)";"1.0";"2";"1";"1";"2";"1";"1";"2014-10-07 11:00:18.739";"2014-10-07 11:12:47.212";"1";"0";"0";"61";"60";"module.training_block2.exec-9603.GoNoGo2";;;;;;;;;;;;;;;;;;;;;;;;;;;;;;;;;;;"1261";"2014-10-07 11:04:11.897";"NST_correctLoc";"10";"1";"FINISHED";"RIGHT";"success";"393";"0";"2014-10-07 11:04:10.633";"2";;;;;;;;;;;;;;;;;;;;;;;;;;;;;;;;;;;;;;;;;;;;;
"c1316369";"1995";;"Windows 7";"Rachel's Experiment (D.T.)";"1.0";"2";"1";"1";"2";"1";"1";"2014-10-07 11:00:18.739";"2014-10-07 11:12:47.212";"1";"0";"0";"62";"61";"module.training_block2.exec-9603.GoNoGo2";;;;;;;;;;;;;;;;;;;;;;;;;;;;;;;;;;;"1261";"2014-10-07 11:04:14.440";"NST_correctLoc";"22";"1";"FINISHED";"RIGHT";"success";"394";"0";"2014-10-07 11:04:13.176";"3";;;;;;;;;;;;;;;;;;;;;;;;;;;;;;;;;;;;;;;;;;;;;
"c1316369";"1995";;"Windows 7";"Rachel's Experiment (D.T.)";"1.0";"2";"1";"1";"2";"1";"1";"2014-10-07 11:00:18.739";"2014-10-07 11:12:47.212";"1";"0";"0";"63";"62";"module.training_block2.exec-9603.GoNoGo2";;;;;;;;;;;;;;;;;;;;;;;;;;;;;;;;;;;"1261";"2014-10-07 11:04:16.982";"NST_correctLoc";"2";"0";"FINISHED";"LEFT";"success";"356";"0";"2014-10-07 11:04:15.719";"1";;;;;;;;;;;;;;;;;;;;;;;;;;;;;;;;;;;;;;;;;;;;;
"c1316369";"1995";;"Windows 7";"Rachel's Experiment (D.T.)";"1.0";"2";"1";"1";"2";"1";"1";"2014-10-07 11:00:18.739";"2014-10-07 11:12:47.212";"1";"0";"0";"64";"63";"module.training_block2.exec-9603.GoNoGo2";;;;;;;;;;;;;;;;;;;;;;;;;;;;;;;;;;;"1261";"2014-10-07 11:04:19.525";"NST_correctLoc";"30";"0";"FINISHED";"LEFT";"success";"365";"0";"2014-10-07 11:04:18.262";"3";;;;;;;;;;;;;;;;;;;;;;;;;;;;;;;;;;;;;;;;;;;;;
"c1316369";"1995";;"Windows 7";"Rachel's Experiment (D.T.)";"1.0";"2";"1";"1";"2";"1";"1";"2014-10-07 11:00:18.739";"2014-10-07 11:12:47.212";"1";"0";"0";"65";"64";"module.training_block2.exec-9603.GoNoGo2";;;;;;;;;;;;;;;;;;;;;;;;;;;;;;;;;;;"1261";"2014-10-07 11:04:22.068";"NST_correctLoc";"0";"1";"FINISHED";"RIGHT";"success";"334";"0";"2014-10-07 11:04:20.804";"1";;;;;;;;;;;;;;;;;;;;;;;;;;;;;;;;;;;;;;;;;;;;;
"c1316369";"1995";;"Windows 7";"Rachel's Experiment (D.T.)";"1.0";"2";"1";"1";"2";"1";"1";"2014-10-07 11:00:18.739";"2014-10-07 11:12:47.212";"1";"0";"0";"66";"65";"module.training_block2.exec-9603.GoNoGo2";;;;;;;;;;;;;;;;;;;;;;;;;;;;;;;;;;;"1261";"2014-10-07 11:04:24.611";"NST_correctLoc";"29";"1";"FINISHED";"RIGHT";"success";"511";"0";"2014-10-07 11:04:23.347";"3";;;;;;;;;;;;;;;;;;;;;;;;;;;;;;;;;;;;;;;;;;;;;
"c1316369";"1995";;"Windows 7";"Rachel's Experiment (D.T.)";"1.0";"2";"1";"1";"2";"1";"1";"2014-10-07 11:00:18.739";"2014-10-07 11:12:47.212";"1";"0";"0";"67";"66";"module.training_block2.exec-9603.GoNoGo2";;;;;;;;;;;;;;;;;;;;;;;;;;;;;;;;;;;"1261";"2014-10-07 11:04:27.154";"NST_correctLoc";"18";"1";"FINISHED";"RIGHT";"success";"400";"0";"2014-10-07 11:04:25.890";"3";;;;;;;;;;;;;;;;;;;;;;;;;;;;;;;;;;;;;;;;;;;;;
"c1316369";"1995";;"Windows 7";"Rachel's Experiment (D.T.)";"1.0";"2";"1";"1";"2";"1";"1";"2014-10-07 11:00:18.739";"2014-10-07 11:12:47.212";"1";"0";"0";"68";"67";"module.training_block2.exec-9603.GoNoGo2";;;;;;;;;;;;;;;;;;;;;;;;;;;;;;;;;;;"1261";"2014-10-07 11:04:29.696";"NST_correctLoc";"15";"0";"FINISHED";"LEFT";"success";"465";"0";"2014-10-07 11:04:28.433";"2";;;;;;;;;;;;;;;;;;;;;;;;;;;;;;;;;;;;;;;;;;;;;
"c1316369";"1995";;"Windows 7";"Rachel's Experiment (D.T.)";"1.0";"2";"1";"1";"2";"1";"1";"2014-10-07 11:00:18.739";"2014-10-07 11:12:47.212";"1";"0";"0";"69";"68";"module.training_block2.exec-9603.GoNoGo2";;;;;;;;;;;;;;;;;;;;;;;;;;;;;;;;;;;"1261";"2014-10-07 11:04:32.239";"NST_correctLoc";"23";"1";"FINISHED";"RIGHT";"success";"379";"0";"2014-10-07 11:04:30.976";"3";;;;;;;;;;;;;;;;;;;;;;;;;;;;;;;;;;;;;;;;;;;;;
"c1316369";"1995";;"Windows 7";"Rachel's Experiment (D.T.)";"1.0";"2";"1";"1";"2";"1";"1";"2014-10-07 11:00:18.739";"2014-10-07 11:12:47.212";"1";"0";"0";"70";"69";"module.training_block2.exec-9603.GoNoGo2";;;;;;;;;;;;;;;;;;;;;;;;;;;;;;;;;;;"1261";"2014-10-07 11:04:34.782";"NST_correctLoc";"16";"1";"FINISHED";"RIGHT";"success";"428";"0";"2014-10-07 11:04:33.518";"2";;;;;;;;;;;;;;;;;;;;;;;;;;;;;;;;;;;;;;;;;;;;;
"c1316369";"1995";;"Windows 7";"Rachel's Experiment (D.T.)";"1.0";"2";"1";"1";"2";"1";"1";"2014-10-07 11:00:18.739";"2014-10-07 11:12:47.212";"1";"0";"0";"71";"70";"module.training_block2.exec-9603.GoNoGo2";;;;;;;;;;;;;;;;;;;;;;;;;;;;;;;;;;;"1261";"2014-10-07 11:04:37.325";"NST_correctLoc";"17";"0";"FINISHED";"LEFT";"success";"349";"0";"2014-10-07 11:04:36.061";"2";;;;;;;;;;;;;;;;;;;;;;;;;;;;;;;;;;;;;;;;;;;;;
"c1316369";"1995";;"Windows 7";"Rachel's Experiment (D.T.)";"1.0";"2";"1";"1";"2";"1";"1";"2014-10-07 11:00:18.739";"2014-10-07 11:12:47.212";"1";"0";"0";"72";"71";"module.training_block2.exec-9603.GoNoGo2";;;;;;;;;;;;;;;;;;;;;;;;;;;;;;;;;;;"1261";"2014-10-07 11:04:39.868";"NST_correctLoc";"7";"1";"FINISHED";"RIGHT";"success";"814";"0";"2014-10-07 11:04:38.604";"1";;;;;;;;;;;;;;;;;;;;;;;;;;;;;;;;;;;;;;;;;;;;;
"c1316369";"1995";;"Windows 7";"Rachel's Experiment (D.T.)";"1.0";"2";"1";"1";"2";"1";"1";"2014-10-07 11:00:18.739";"2014-10-07 11:12:47.212";"1";"0";"0";"73";"72";"module.training_block2.exec-9603.GoNoGo2";;;;;;;;;;;;;;;;;;;;;;;;;;;;;;;;;;;"1261";"2014-10-07 11:04:42.410";"NST_correctLoc";"8";"1";"FINISHED";"RIGHT";"success";"407";"0";"2014-10-07 11:04:41.147";"1";;;;;;;;;;;;;;;;;;;;;;;;;;;;;;;;;;;;;;;;;;;;;
"c1316369";"1995";;"Windows 7";"Rachel's Experiment (D.T.)";"1.0";"2";"1";"1";"2";"1";"1";"2014-10-07 11:00:18.739";"2014-10-07 11:12:47.212";"1";"0";"0";"74";"73";"module.training_block2.exec-9603.GoNoGo2";;;;;;;;;;;;;;;;;;;;;;;;;;;;;;;;;;;"1261";"2014-10-07 11:04:44.953";"NST_correctLoc";"31";"1";"FINISHED";"RIGHT";"success";"385";"0";"2014-10-07 11:04:43.690";"3";;;;;;;;;;;;;;;;;;;;;;;;;;;;;;;;;;;;;;;;;;;;;
"c1316369";"1995";;"Windows 7";"Rachel's Experiment (D.T.)";"1.0";"2";"1";"1";"2";"1";"1";"2014-10-07 11:00:18.739";"2014-10-07 11:12:47.212";"1";"0";"0";"75";"74";"module.training_block2.exec-9603.GoNoGo2";;;;;;;;;;;;;;;;;;;;;;;;;;;;;;;;;;;"1261";"2014-10-07 11:04:47.496";"NST_correctLoc";"1";"0";"FINISHED";"LEFT";"success";"618";"0";"2014-10-07 11:04:46.232";"1";;;;;;;;;;;;;;;;;;;;;;;;;;;;;;;;;;;;;;;;;;;;;
"c1316369";"1995";;"Windows 7";"Rachel's Experiment (D.T.)";"1.0";"2";"1";"1";"2";"1";"1";"2014-10-07 11:00:18.739";"2014-10-07 11:12:47.212";"1";"0";"0";"76";"75";"module.training_block2.exec-9603.GoNoGo2";;;;;;;;;;;;;;;;;;;;;;;;;;;;;;;;;;;"1261";"2014-10-07 11:04:50.039";"NST_correctLoc";"28";"1";"FINISHED";"RIGHT";"success";"579";"0";"2014-10-07 11:04:48.775";"3";;;;;;;;;;;;;;;;;;;;;;;;;;;;;;;;;;;;;;;;;;;;;
"c1316369";"1995";;"Windows 7";"Rachel's Experiment (D.T.)";"1.0";"2";"1";"1";"2";"1";"1";"2014-10-07 11:00:18.739";"2014-10-07 11:12:47.212";"1";"0";"0";"77";"76";"module.training_block2.exec-9603.GoNoGo2";;;;;;;;;;;;;;;;;;;;;;;;;;;;;;;;;;;"1261";"2014-10-07 11:04:52.582";"NST_correctLoc";"12";"1";"FINISHED";"RIGHT";"success";"420";"0";"2014-10-07 11:04:51.318";"2";;;;;;;;;;;;;;;;;;;;;;;;;;;;;;;;;;;;;;;;;;;;;
"c1316369";"1995";;"Windows 7";"Rachel's Experiment (D.T.)";"1.0";"2";"1";"1";"2";"1";"1";"2014-10-07 11:00:18.739";"2014-10-07 11:12:47.212";"1";"0";"0";"78";"77";"module.training_block2.exec-9603.GoNoGo2";;;;;;;;;;;;;;;;;;;;;;;;;;;;;;;;;;;"1261";"2014-10-07 11:04:55.124";"NST_correctLoc";"25";"1";"FINISHED";"RIGHT";"success";"389";"0";"2014-10-07 11:04:53.861";"3";;;;;;;;;;;;;;;;;;;;;;;;;;;;;;;;;;;;;;;;;;;;;
"c1316369";"1995";;"Windows 7";"Rachel's Experiment (D.T.)";"1.0";"2";"1";"1";"2";"1";"1";"2014-10-07 11:00:18.739";"2014-10-07 11:12:47.212";"1";"0";"0";"79";"78";"module.training_block2.exec-9603.GoNoGo2";;;;;;;;;;;;;;;;;;;;;;;;;;;;;;;;;;;"1262";"2014-10-07 11:04:57.667";"NST_correctLoc";"4";"1";"FINISHED";"RIGHT";"success";"326";"0";"2014-10-07 11:04:56.404";"1";;;;;;;;;;;;;;;;;;;;;;;;;;;;;;;;;;;;;;;;;;;;;
"c1316369";"1995";;"Windows 7";"Rachel's Experiment (D.T.)";"1.0";"2";"1";"1";"2";"1";"1";"2014-10-07 11:00:18.739";"2014-10-07 11:12:47.212";"1";"0";"0";"80";"79";"module.training_block2.exec-9603.GoNoGo2";;;;;;;;;;;;;;;;;;;;;;;;;;;;;;;;;;;"1261";"2014-10-07 11:05:00.210";"NST_correctLoc";"21";"1";"FINISHED";"RIGHT";"success";"344";"0";"2014-10-07 11:04:58.946";"3";;;;;;;;;;;;;;;;;;;;;;;;;;;;;;;;;;;;;;;;;;;;;
"c1316369";"1995";;"Windows 7";"Rachel's Experiment (D.T.)";"1.0";"2";"1";"1";"2";"1";"1";"2014-10-07 11:00:18.739";"2014-10-07 11:12:47.212";"1";"0";"0";"81";"80";"module.training_block2.exec-9603.GoNoGo2";;;;;;;;;;;;;;;;;;;;;;;;;;;;;;;;;;;"1261";"2014-10-07 11:05:02.753";"NST_correctLoc";"13";"1";"FINISHED";"RIGHT";"success";"321";"0";"2014-10-07 11:05:01.489";"2";;;;;;;;;;;;;;;;;;;;;;;;;;;;;;;;;;;;;;;;;;;;;
"c1316369";"1995";;"Windows 7";"Rachel's Experiment (D.T.)";"1.0";"2";"1";"1";"2";"1";"1";"2014-10-07 11:00:18.739";"2014-10-07 11:12:47.212";"1";"0";"0";"82";"81";"module.training_block2.exec-9603.GoNoGo2";;;;;;;;;;;;;;;;;;;;;;;;;;;;;;;;;;;"1261";"2014-10-07 11:05:05.296";"NST_correctLoc";"9";"1";"FINISHED";"RIGHT";"success";"298";"0";"2014-10-07 11:05:04.032";"2";;;;;;;;;;;;;;;;;;;;;;;;;;;;;;;;;;;;;;;;;;;;;
"c1316369";"1995";;"Windows 7";"Rachel's Experiment (D.T.)";"1.0";"2";"1";"1";"2";"1";"1";"2014-10-07 11:00:18.739";"2014-10-07 11:12:47.212";"1";"0";"0";"83";"82";"module.training_block2.exec-9603.GoNoGo2";;;;;;;;;;;;;;;;;;;;;;;;;;;;;;;;;;;"1261";"2014-10-07 11:05:07.838";"NST_correctLoc";"20";"1";"FINISHED";"RIGHT";"success";"307";"0";"2014-10-07 11:05:06.575";"3";;;;;;;;;;;;;;;;;;;;;;;;;;;;;;;;;;;;;;;;;;;;;
"c1316369";"1995";;"Windows 7";"Rachel's Experiment (D.T.)";"1.0";"2";"1";"1";"2";"1";"1";"2014-10-07 11:00:18.739";"2014-10-07 11:12:47.212";"1";"0";"0";"84";"83";"module.training_block2.exec-9603.GoNoGo2";;;;;;;;;;;;;;;;;;;;;;;;;;;;;;;;;;;"1261";"2014-10-07 11:05:10.381";"NST_correctLoc";"3";"0";"FINISHED";"LEFT";"success";"428";"0";"2014-10-07 11:05:09.118";"1";;;;;;;;;;;;;;;;;;;;;;;;;;;;;;;;;;;;;;;;;;;;;
"c1316369";"1995";;"Windows 7";"Rachel's Experiment (D.T.)";"1.0";"2";"1";"1";"2";"1";"1";"2014-10-07 11:00:18.739";"2014-10-07 11:12:47.212";"1";"0";"0";"85";"84";"module.training_block2.exec-9603.GoNoGo2";;;;;;;;;;;;;;;;;;;;;;;;;;;;;;;;;;;"1261";"2014-10-07 11:05:12.924";"NST_correctLoc";"14";"1";"FINISHED";"RIGHT";"success";"397";"0";"2014-10-07 11:05:11.660";"2";;;;;;;;;;;;;;;;;;;;;;;;;;;;;;;;;;;;;;;;;;;;;
"c1316369";"1995";;"Windows 7";"Rachel's Experiment (D.T.)";"1.0";"2";"1";"1";"2";"1";"1";"2014-10-07 11:00:18.739";"2014-10-07 11:12:47.212";"1";"0";"0";"86";"85";"module.training_block2.exec-9603.GoNoGo2";;;;;;;;;;;;;;;;;;;;;;;;;;;;;;;;;;;"1261";"2014-10-07 11:05:15.467";"NST_correctLoc";"24";"1";"FINISHED";"RIGHT";"success";"391";"0";"2014-10-07 11:05:14.203";"3";;;;;;;;;;;;;;;;;;;;;;;;;;;;;;;;;;;;;;;;;;;;;
"c1316369";"1995";;"Windows 7";"Rachel's Experiment (D.T.)";"1.0";"2";"1";"1";"2";"1";"1";"2014-10-07 11:00:18.739";"2014-10-07 11:12:47.212";"1";"0";"0";"87";"86";"module.training_block2.exec-9603.GoNoGo2";;;;;;;;;;;;;;;;;;;;;;;;;;;;;;;;;;;"1261";"2014-10-07 11:05:18.010";"NST_correctLoc";"27";"0";"FINISHED";"LEFT";"success";"496";"0";"2014-10-07 11:05:16.746";"3";;;;;;;;;;;;;;;;;;;;;;;;;;;;;;;;;;;;;;;;;;;;;
"c1316369";"1995";;"Windows 7";"Rachel's Experiment (D.T.)";"1.0";"2";"1";"1";"2";"1";"1";"2014-10-07 11:00:18.739";"2014-10-07 11:12:47.212";"1";"0";"0";"88";"87";"module.training_block3.exec-4294.GoNoGo3";;;;;;;;;;;;;;;;;;;;;;;;;;;;;;;;;;;;;;;;;;;;;;;"1261";"2014-10-07 11:05:27.978";"NST_correctLoc";"6";"1";"FINISHED";"RIGHT";"success";"335";"0";"2014-10-07 11:05:26.715";"1";;;;;;;;;;;;;;;;;;;;;;;;;;;;;;;;;
"c1316369";"1995";;"Windows 7";"Rachel's Experiment (D.T.)";"1.0";"2";"1";"1";"2";"1";"1";"2014-10-07 11:00:18.739";"2014-10-07 11:12:47.212";"1";"0";"0";"89";"88";"module.training_block3.exec-4294.GoNoGo3";;;;;;;;;;;;;;;;;;;;;;;;;;;;;;;;;;;;;;;;;;;;;;;"1261";"2014-10-07 11:05:30.521";"NST_correctLoc";"3";"1";"FINISHED";"RIGHT";"success";"353";"0";"2014-10-07 11:05:29.257";"1";;;;;;;;;;;;;;;;;;;;;;;;;;;;;;;;;
"c1316369";"1995";;"Windows 7";"Rachel's Experiment (D.T.)";"1.0";"2";"1";"1";"2";"1";"1";"2014-10-07 11:00:18.739";"2014-10-07 11:12:47.212";"1";"0";"0";"90";"89";"module.training_block3.exec-4294.GoNoGo3";;;;;;;;;;;;;;;;;;;;;;;;;;;;;;;;;;;;;;;;;;;;;;;"1261";"2014-10-07 11:05:33.079";"NST_correctLoc";"5";"0";"FINISHED";"LEFT";"success";"290";"0";"2014-10-07 11:05:31.816";"1";;;;;;;;;;;;;;;;;;;;;;;;;;;;;;;;;
"c1316369";"1995";;"Windows 7";"Rachel's Experiment (D.T.)";"1.0";"2";"1";"1";"2";"1";"1";"2014-10-07 11:00:18.739";"2014-10-07 11:12:47.212";"1";"0";"0";"91";"90";"module.training_block3.exec-4294.GoNoGo3";;;;;;;;;;;;;;;;;;;;;;;;;;;;;;;;;;;;;;;;;;;;;;;"1261";"2014-10-07 11:05:35.622";"NST_correctLoc";"26";"0";"FINISHED";"LEFT";"success";"475";"0";"2014-10-07 11:05:34.359";"3";;;;;;;;;;;;;;;;;;;;;;;;;;;;;;;;;
"c1316369";"1995";;"Windows 7";"Rachel's Experiment (D.T.)";"1.0";"2";"1";"1";"2";"1";"1";"2014-10-07 11:00:18.739";"2014-10-07 11:12:47.212";"1";"0";"0";"92";"91";"module.training_block3.exec-4294.GoNoGo3";;;;;;;;;;;;;;;;;;;;;;;;;;;;;;;;;;;;;;;;;;;;;;;"1261";"2014-10-07 11:05:38.165";"NST_correctLoc";"0";"0";"FINISHED";"LEFT";"success";"380";"0";"2014-10-07 11:05:36.901";"1";;;;;;;;;;;;;;;;;;;;;;;;;;;;;;;;;
"c1316369";"1995";;"Windows 7";"Rachel's Experiment (D.T.)";"1.0";"2";"1";"1";"2";"1";"1";"2014-10-07 11:00:18.739";"2014-10-07 11:12:47.212";"1";"0";"0";"93";"92";"module.training_block3.exec-4294.GoNoGo3";;;;;;;;;;;;;;;;;;;;;;;;;;;;;;;;;;;;;;;;;;;;;;;"1261";"2014-10-07 11:05:40.708";"NST_correctLoc";"7";"1";"FINISHED";"RIGHT";"success";"318";"0";"2014-10-07 11:05:39.444";"1";;;;;;;;;;;;;;;;;;;;;;;;;;;;;;;;;
"c1316369";"1995";;"Windows 7";"Rachel's Experiment (D.T.)";"1.0";"2";"1";"1";"2";"1";"1";"2014-10-07 11:00:18.739";"2014-10-07 11:12:47.212";"1";"0";"0";"94";"93";"module.training_block3.exec-4294.GoNoGo3";;;;;;;;;;;;;;;;;;;;;;;;;;;;;;;;;;;;;;;;;;;;;;;"1261";"2014-10-07 11:05:43.251";"NST_correctLoc";"2";"0";"FINISHED";"LEFT";"success";"335";"0";"2014-10-07 11:05:41.987";"1";;;;;;;;;;;;;;;;;;;;;;;;;;;;;;;;;
"c1316369";"1995";;"Windows 7";"Rachel's Experiment (D.T.)";"1.0";"2";"1";"1";"2";"1";"1";"2014-10-07 11:00:18.739";"2014-10-07 11:12:47.212";"1";"0";"0";"95";"94";"module.training_block3.exec-4294.GoNoGo3";;;;;;;;;;;;;;;;;;;;;;;;;;;;;;;;;;;;;;;;;;;;;;;"1261";"2014-10-07 11:05:45.793";"NST_correctLoc";"32";"0";"FINISHED";"LEFT";"success";"432";"0";"2014-10-07 11:05:44.530";"3";;;;;;;;;;;;;;;;;;;;;;;;;;;;;;;;;
"c1316369";"1995";;"Windows 7";"Rachel's Experiment (D.T.)";"1.0";"2";"1";"1";"2";"1";"1";"2014-10-07 11:00:18.739";"2014-10-07 11:12:47.212";"1";"0";"0";"96";"95";"module.training_block3.exec-4294.GoNoGo3";;;;;;;;;;;;;;;;;;;;;;;;;;;;;;;;;;;;;;;;;;;;;;;"1261";"2014-10-07 11:05:48.336";"NST_correctLoc";"34";"0";"FINISHED";"LEFT";"success";"457";"0";"2014-10-07 11:05:47.073";"3";;;;;;;;;;;;;;;;;;;;;;;;;;;;;;;;;
"c1316369";"1995";;"Windows 7";"Rachel's Experiment (D.T.)";"1.0";"2";"1";"1";"2";"1";"1";"2014-10-07 11:00:18.739";"2014-10-07 11:12:47.212";"1";"0";"0";"97";"96";"module.training_block3.exec-4294.GoNoGo3";;;;;;;;;;;;;;;;;;;;;;;;;;;;;;;;;;;;;;;;;;;;;;;"1261";"2014-10-07 11:05:50.879";"NST_correctLoc";"35";"0";"FINISHED";"LEFT";"success";"434";"0";"2014-10-07 11:05:49.615";"3";;;;;;;;;;;;;;;;;;;;;;;;;;;;;;;;;
"c1316369";"1995";;"Windows 7";"Rachel's Experiment (D.T.)";"1.0";"2";"1";"1";"2";"1";"1";"2014-10-07 11:00:18.739";"2014-10-07 11:12:47.212";"1";"0";"0";"98";"97";"module.training_block3.exec-4294.GoNoGo3";;;;;;;;;;;;;;;;;;;;;;;;;;;;;;;;;;;;;;;;;;;;;;;"1261";"2014-10-07 11:05:53.422";"NST_correctLoc";"25";"0";"FINISHED";"LEFT";"success";"396";"0";"2014-10-07 11:05:52.158";"3";;;;;;;;;;;;;;;;;;;;;;;;;;;;;;;;;
"c1316369";"1995";;"Windows 7";"Rachel's Experiment (D.T.)";"1.0";"2";"1";"1";"2";"1";"1";"2014-10-07 11:00:18.739";"2014-10-07 11:12:47.212";"1";"0";"0";"99";"98";"module.training_block3.exec-4294.GoNoGo3";;;;;;;;;;;;;;;;;;;;;;;;;;;;;;;;;;;;;;;;;;;;;;;"1261";"2014-10-07 11:05:55.965";"NST_correctLoc";"16";"1";"FINISHED";"RIGHT";"success";"469";"0";"2014-10-07 11:05:54.701";"2";;;;;;;;;;;;;;;;;;;;;;;;;;;;;;;;;
"c1316369";"1995";;"Windows 7";"Rachel's Experiment (D.T.)";"1.0";"2";"1";"1";"2";"1";"1";"2014-10-07 11:00:18.739";"2014-10-07 11:12:47.212";"1";"0";"0";"100";"99";"module.training_block3.exec-4294.GoNoGo3";;;;;;;;;;;;;;;;;;;;;;;;;;;;;;;;;;;;;;;;;;;;;;;"1261";"2014-10-07 11:05:58.507";"NST_correctLoc";"33";"1";"FINISHED";"RIGHT";"success";"398";"0";"2014-10-07 11:05:57.244";"3";;;;;;;;;;;;;;;;;;;;;;;;;;;;;;;;;
"c1316369";"1995";;"Windows 7";"Rachel's Experiment (D.T.)";"1.0";"2";"1";"1";"2";"1";"1";"2014-10-07 11:00:18.739";"2014-10-07 11:12:47.212";"1";"0";"0";"101";"100";"module.training_block3.exec-4294.GoNoGo3";;;;;;;;;;;;;;;;;;;;;;;;;;;;;;;;;;;;;;;;;;;;;;;"1261";"2014-10-07 11:06:01.050";"NST_correctLoc";"30";"1";"FINISHED";"RIGHT";"success";"375";"0";"2014-10-07 11:05:59.787";"3";;;;;;;;;;;;;;;;;;;;;;;;;;;;;;;;;
"c1316369";"1995";;"Windows 7";"Rachel's Experiment (D.T.)";"1.0";"2";"1";"1";"2";"1";"1";"2014-10-07 11:00:18.739";"2014-10-07 11:12:47.212";"1";"0";"0";"102";"101";"module.training_block3.exec-4294.GoNoGo3";;;;;;;;;;;;;;;;;;;;;;;;;;;;;;;;;;;;;;;;;;;;;;;"1261";"2014-10-07 11:06:03.593";"NST_correctLoc";"21";"0";"FINISHED";"LEFT";"success";"344";"0";"2014-10-07 11:06:02.329";"3";;;;;;;;;;;;;;;;;;;;;;;;;;;;;;;;;
"c1316369";"1995";;"Windows 7";"Rachel's Experiment (D.T.)";"1.0";"2";"1";"1";"2";"1";"1";"2014-10-07 11:00:18.739";"2014-10-07 11:12:47.212";"1";"0";"0";"103";"102";"module.training_block3.exec-4294.GoNoGo3";;;;;;;;;;;;;;;;;;;;;;;;;;;;;;;;;;;;;;;;;;;;;;;"1261";"2014-10-07 11:06:06.136";"NST_correctLoc";"23";"1";"FINISHED";"RIGHT";"success";"321";"0";"2014-10-07 11:06:04.872";"3";;;;;;;;;;;;;;;;;;;;;;;;;;;;;;;;;
"c1316369";"1995";;"Windows 7";"Rachel's Experiment (D.T.)";"1.0";"2";"1";"1";"2";"1";"1";"2014-10-07 11:00:18.739";"2014-10-07 11:12:47.212";"1";"0";"0";"104";"103";"module.training_block3.exec-4294.GoNoGo3";;;;;;;;;;;;;;;;;;;;;;;;;;;;;;;;;;;;;;;;;;;;;;;"1261";"2014-10-07 11:06:08.679";"NST_correctLoc";"18";"1";"FINISHED";"RIGHT";"success";"475";"0";"2014-10-07 11:06:07.415";"3";;;;;;;;;;;;;;;;;;;;;;;;;;;;;;;;;
"c1316369";"1995";;"Windows 7";"Rachel's Experiment (D.T.)";"1.0";"2";"1";"1";"2";"1";"1";"2014-10-07 11:00:18.739";"2014-10-07 11:12:47.212";"1";"0";"0";"105";"104";"module.training_block3.exec-4294.GoNoGo3";;;;;;;;;;;;;;;;;;;;;;;;;;;;;;;;;;;;;;;;;;;;;;;"1261";"2014-10-07 11:06:11.221";"NST_correctLoc";"20";"0";"FINISHED";"LEFT";"success";"324";"0";"2014-10-07 11:06:09.958";"3";;;;;;;;;;;;;;;;;;;;;;;;;;;;;;;;;
"c1316369";"1995";;"Windows 7";"Rachel's Experiment (D.T.)";"1.0";"2";"1";"1";"2";"1";"1";"2014-10-07 11:00:18.739";"2014-10-07 11:12:47.212";"1";"0";"0";"106";"105";"module.training_block3.exec-4294.GoNoGo3";;;;;;;;;;;;;;;;;;;;;;;;;;;;;;;;;;;;;;;;;;;;;;;"1261";"2014-10-07 11:06:13.780";"NST_correctLoc";"14";"0";"FINISHED";"LEFT";"success";"413";"0";"2014-10-07 11:06:12.516";"2";;;;;;;;;;;;;;;;;;;;;;;;;;;;;;;;;
"c1316369";"1995";;"Windows 7";"Rachel's Experiment (D.T.)";"1.0";"2";"1";"1";"2";"1";"1";"2014-10-07 11:00:18.739";"2014-10-07 11:12:47.212";"1";"0";"0";"107";"106";"module.training_block3.exec-4294.GoNoGo3";;;;;;;;;;;;;;;;;;;;;;;;;;;;;;;;;;;;;;;;;;;;;;;"1261";"2014-10-07 11:06:16.323";"NST_correctLoc";"8";"1";"FINISHED";"RIGHT";"success";"327";"0";"2014-10-07 11:06:15.059";"1";;;;;;;;;;;;;;;;;;;;;;;;;;;;;;;;;
"c1316369";"1995";;"Windows 7";"Rachel's Experiment (D.T.)";"1.0";"2";"1";"1";"2";"1";"1";"2014-10-07 11:00:18.739";"2014-10-07 11:12:47.212";"1";"0";"0";"108";"107";"module.training_block3.exec-4294.GoNoGo3";;;;;;;;;;;;;;;;;;;;;;;;;;;;;;;;;;;;;;;;;;;;;;;"1261";"2014-10-07 11:06:18.865";"NST_correctLoc";"28";"1";"FINISHED";"RIGHT";"success";"408";"0";"2014-10-07 11:06:17.602";"3";;;;;;;;;;;;;;;;;;;;;;;;;;;;;;;;;
"c1316369";"1995";;"Windows 7";"Rachel's Experiment (D.T.)";"1.0";"2";"1";"1";"2";"1";"1";"2014-10-07 11:00:18.739";"2014-10-07 11:12:47.212";"1";"0";"0";"109";"108";"module.training_block3.exec-4294.GoNoGo3";;;;;;;;;;;;;;;;;;;;;;;;;;;;;;;;;;;;;;;;;;;;;;;"1261";"2014-10-07 11:06:21.408";"NST_correctLoc";"24";"0";"FINISHED";"LEFT";"success";"329";"0";"2014-10-07 11:06:20.145";"3";;;;;;;;;;;;;;;;;;;;;;;;;;;;;;;;;
"c1316369";"1995";;"Windows 7";"Rachel's Experiment (D.T.)";"1.0";"2";"1";"1";"2";"1";"1";"2014-10-07 11:00:18.739";"2014-10-07 11:12:47.212";"1";"0";"0";"110";"109";"module.training_block3.exec-4294.GoNoGo3";;;;;;;;;;;;;;;;;;;;;;;;;;;;;;;;;;;;;;;;;;;;;;;"1261";"2014-10-07 11:06:23.951";"NST_correctLoc";"13";"1";"FINISHED";"RIGHT";"success";"602";"0";"2014-10-07 11:06:22.687";"2";;;;;;;;;;;;;;;;;;;;;;;;;;;;;;;;;
"c1316369";"1995";;"Windows 7";"Rachel's Experiment (D.T.)";"1.0";"2";"1";"1";"2";"1";"1";"2014-10-07 11:00:18.739";"2014-10-07 11:12:47.212";"1";"0";"0";"111";"110";"module.training_block3.exec-4294.GoNoGo3";;;;;;;;;;;;;;;;;;;;;;;;;;;;;;;;;;;;;;;;;;;;;;;"1261";"2014-10-07 11:06:26.494";"NST_correctLoc";"4";"1";"FINISHED";"RIGHT";"success";"339";"0";"2014-10-07 11:06:25.230";"1";;;;;;;;;;;;;;;;;;;;;;;;;;;;;;;;;
"c1316369";"1995";;"Windows 7";"Rachel's Experiment (D.T.)";"1.0";"2";"1";"1";"2";"1";"1";"2014-10-07 11:00:18.739";"2014-10-07 11:12:47.212";"1";"0";"0";"112";"111";"module.training_block3.exec-4294.GoNoGo3";;;;;;;;;;;;;;;;;;;;;;;;;;;;;;;;;;;;;;;;;;;;;;;"1261";"2014-10-07 11:06:29.037";"NST_correctLoc";"22";"1";"FINISHED";"RIGHT";"success";"412";"0";"2014-10-07 11:06:27.773";"3";;;;;;;;;;;;;;;;;;;;;;;;;;;;;;;;;
"c1316369";"1995";;"Windows 7";"Rachel's Experiment (D.T.)";"1.0";"2";"1";"1";"2";"1";"1";"2014-10-07 11:00:18.739";"2014-10-07 11:12:47.212";"1";"0";"0";"113";"112";"module.training_block3.exec-4294.GoNoGo3";;;;;;;;;;;;;;;;;;;;;;;;;;;;;;;;;;;;;;;;;;;;;;;"1261";"2014-10-07 11:06:31.595";"NST_correctLoc";"12";"1";"FINISHED";"RIGHT";"success";"366";"0";"2014-10-07 11:06:30.331";"2";;;;;;;;;;;;;;;;;;;;;;;;;;;;;;;;;
"c1316369";"1995";;"Windows 7";"Rachel's Experiment (D.T.)";"1.0";"2";"1";"1";"2";"1";"1";"2014-10-07 11:00:18.739";"2014-10-07 11:12:47.212";"1";"0";"0";"114";"113";"module.training_block3.exec-4294.GoNoGo3";;;;;;;;;;;;;;;;;;;;;;;;;;;;;;;;;;;;;;;;;;;;;;;"1261";"2014-10-07 11:06:34.138";"NST_correctLoc";"15";"1";"FINISHED";"RIGHT";"success";"359";"0";"2014-10-07 11:06:32.874";"2";;;;;;;;;;;;;;;;;;;;;;;;;;;;;;;;;
"c1316369";"1995";;"Windows 7";"Rachel's Experiment (D.T.)";"1.0";"2";"1";"1";"2";"1";"1";"2014-10-07 11:00:18.739";"2014-10-07 11:12:47.212";"1";"0";"0";"115";"114";"module.training_block3.exec-4294.GoNoGo3";;;;;;;;;;;;;;;;;;;;;;;;;;;;;;;;;;;;;;;;;;;;;;;"1261";"2014-10-07 11:06:36.696";"NST_correctLoc";"9";"0";"FINISHED";"LEFT";"success";"489";"0";"2014-10-07 11:06:35.433";"2";;;;;;;;;;;;;;;;;;;;;;;;;;;;;;;;;
"c1316369";"1995";;"Windows 7";"Rachel's Experiment (D.T.)";"1.0";"2";"1";"1";"2";"1";"1";"2014-10-07 11:00:18.739";"2014-10-07 11:12:47.212";"1";"0";"0";"116";"115";"module.training_block3.exec-4294.GoNoGo3";;;;;;;;;;;;;;;;;;;;;;;;;;;;;;;;;;;;;;;;;;;;;;;"1261";"2014-10-07 11:06:39.239";"NST_correctLoc";"17";"0";"FINISHED";"LEFT";"success";"418";"0";"2014-10-07 11:06:37.975";"2";;;;;;;;;;;;;;;;;;;;;;;;;;;;;;;;;
"c1316369";"1995";;"Windows 7";"Rachel's Experiment (D.T.)";"1.0";"2";"1";"1";"2";"1";"1";"2014-10-07 11:00:18.739";"2014-10-07 11:12:47.212";"1";"0";"0";"117";"116";"module.training_block3.exec-4294.GoNoGo3";;;;;;;;;;;;;;;;;;;;;;;;;;;;;;;;;;;;;;;;;;;;;;;"1261";"2014-10-07 11:06:41.782";"NST_correctLoc";"10";"0";"FINISHED";"LEFT";"success";"595";"0";"2014-10-07 11:06:40.518";"2";;;;;;;;;;;;;;;;;;;;;;;;;;;;;;;;;
"c1316369";"1995";;"Windows 7";"Rachel's Experiment (D.T.)";"1.0";"2";"1";"1";"2";"1";"1";"2014-10-07 11:00:18.739";"2014-10-07 11:12:47.212";"1";"0";"0";"118";"117";"module.training_block3.exec-4294.GoNoGo3";;;;;;;;;;;;;;;;;;;;;;;;;;;;;;;;;;;;;;;;;;;;;;;"1261";"2014-10-07 11:06:44.325";"NST_correctLoc";"19";"1";"FINISHED";"RIGHT";"success";"596";"0";"2014-10-07 11:06:43.061";"3";;;;;;;;;;;;;;;;;;;;;;;;;;;;;;;;;
"c1316369";"1995";;"Windows 7";"Rachel's Experiment (D.T.)";"1.0";"2";"1";"1";"2";"1";"1";"2014-10-07 11:00:18.739";"2014-10-07 11:12:47.212";"1";"0";"0";"119";"118";"module.training_block3.exec-4294.GoNoGo3";;;;;;;;;;;;;;;;;;;;;;;;;;;;;;;;;;;;;;;;;;;;;;;"1261";"2014-10-07 11:06:46.867";"NST_correctLoc";"29";"1";"FINISHED";"RIGHT";"success";"677";"0";"2014-10-07 11:06:45.604";"3";;;;;;;;;;;;;;;;;;;;;;;;;;;;;;;;;
"c1316369";"1995";;"Windows 7";"Rachel's Experiment (D.T.)";"1.0";"2";"1";"1";"2";"1";"1";"2014-10-07 11:00:18.739";"2014-10-07 11:12:47.212";"1";"0";"0";"120";"119";"module.training_block3.exec-4294.GoNoGo3";;;;;;;;;;;;;;;;;;;;;;;;;;;;;;;;;;;;;;;;;;;;;;;"1261";"2014-10-07 11:06:49.410";"NST_correctLoc";"11";"0";"FINISHED";"LEFT";"success";"327";"0";"2014-10-07 11:06:48.147";"2";;;;;;;;;;;;;;;;;;;;;;;;;;;;;;;;;
"c1316369";"1995";;"Windows 7";"Rachel's Experiment (D.T.)";"1.0";"2";"1";"1";"2";"1";"1";"2014-10-07 11:00:18.739";"2014-10-07 11:12:47.212";"1";"0";"0";"121";"120";"module.training_block3.exec-4294.GoNoGo3";;;;;;;;;;;;;;;;;;;;;;;;;;;;;;;;;;;;;;;;;;;;;;;"1261";"2014-10-07 11:06:51.953";"NST_correctLoc";"27";"1";"FINISHED";"RIGHT";"success";"528";"0";"2014-10-07 11:06:50.689";"3";;;;;;;;;;;;;;;;;;;;;;;;;;;;;;;;;
"c1316369";"1995";;"Windows 7";"Rachel's Experiment (D.T.)";"1.0";"2";"1";"1";"2";"1";"1";"2014-10-07 11:00:18.739";"2014-10-07 11:12:47.212";"1";"0";"0";"122";"121";"module.training_block3.exec-4294.GoNoGo3";;;;;;;;;;;;;;;;;;;;;;;;;;;;;;;;;;;;;;;;;;;;;;;"1261";"2014-10-07 11:06:54.511";"NST_correctLoc";"31";"1";"FINISHED";"RIGHT";"success";"401";"0";"2014-10-07 11:06:53.248";"3";;;;;;;;;;;;;;;;;;;;;;;;;;;;;;;;;
"c1316369";"1995";;"Windows 7";"Rachel's Experiment (D.T.)";"1.0";"2";"1";"1";"2";"1";"1";"2014-10-07 11:00:18.739";"2014-10-07 11:12:47.212";"1";"0";"0";"123";"122";"module.training_block3.exec-4294.GoNoGo3";;;;;;;;;;;;;;;;;;;;;;;;;;;;;;;;;;;;;;;;;;;;;;;"1261";"2014-10-07 11:06:57.054";"NST_correctLoc";"1";"0";"FINISHED";"LEFT";"success";"347";"0";"2014-10-07 11:06:55.791";"1";;;;;;;;;;;;;;;;;;;;;;;;;;;;;;;;;
"c1316369";"1995";;"Windows 7";"Rachel's Experiment (D.T.)";"1.0";"2";"1";"1";"2";"1";"1";"2014-10-07 11:00:18.739";"2014-10-07 11:12:47.212";"1";"0";"0";"124";"123";"module.training_block4.exec-7189.GoNoGo4";;;;;;;;;;;;;;;;;;;;;;;;;;;;;;;;;;;;;;;;;;;;;;;;;;;;;;;;;;;"1261";"2014-10-07 11:07:07.007";"NST_correctLoc";"8";"0";"FINISHED";"LEFT";"success";"282";"0";"2014-10-07 11:07:05.743";"1";;;;;;;;;;;;;;;;;;;;;
"c1316369";"1995";;"Windows 7";"Rachel's Experiment (D.T.)";"1.0";"2";"1";"1";"2";"1";"1";"2014-10-07 11:00:18.739";"2014-10-07 11:12:47.212";"1";"0";"0";"125";"124";"module.training_block4.exec-7189.GoNoGo4";;;;;;;;;;;;;;;;;;;;;;;;;;;;;;;;;;;;;;;;;;;;;;;;;;;;;;;;;;;"1261";"2014-10-07 11:07:09.550";"NST_correctLoc";"20";"1";"FINISHED";"RIGHT";"success";"379";"0";"2014-10-07 11:07:08.286";"3";;;;;;;;;;;;;;;;;;;;;
"c1316369";"1995";;"Windows 7";"Rachel's Experiment (D.T.)";"1.0";"2";"1";"1";"2";"1";"1";"2014-10-07 11:00:18.739";"2014-10-07 11:12:47.212";"1";"0";"0";"126";"125";"module.training_block4.exec-7189.GoNoGo4";;;;;;;;;;;;;;;;;;;;;;;;;;;;;;;;;;;;;;;;;;;;;;;;;;;;;;;;;;;"1261";"2014-10-07 11:07:12.093";"NST_correctLoc";"5";"0";"FINISHED";"LEFT";"success";"308";"0";"2014-10-07 11:07:10.829";"1";;;;;;;;;;;;;;;;;;;;;
"c1316369";"1995";;"Windows 7";"Rachel's Experiment (D.T.)";"1.0";"2";"1";"1";"2";"1";"1";"2014-10-07 11:00:18.739";"2014-10-07 11:12:47.212";"1";"0";"0";"127";"126";"module.training_block4.exec-7189.GoNoGo4";;;;;;;;;;;;;;;;;;;;;;;;;;;;;;;;;;;;;;;;;;;;;;;;;;;;;;;;;;;"1261";"2014-10-07 11:07:14.636";"NST_correctLoc";"31";"0";"FINISHED";"LEFT";"success";"341";"0";"2014-10-07 11:07:13.372";"3";;;;;;;;;;;;;;;;;;;;;
"c1316369";"1995";;"Windows 7";"Rachel's Experiment (D.T.)";"1.0";"2";"1";"1";"2";"1";"1";"2014-10-07 11:00:18.739";"2014-10-07 11:12:47.212";"1";"0";"0";"128";"127";"module.training_block4.exec-7189.GoNoGo4";;;;;;;;;;;;;;;;;;;;;;;;;;;;;;;;;;;;;;;;;;;;;;;;;;;;;;;;;;;"1261";"2014-10-07 11:07:17.178";"NST_correctLoc";"29";"1";"FINISHED";"RIGHT";"success";"286";"0";"2014-10-07 11:07:15.915";"3";;;;;;;;;;;;;;;;;;;;;
"c1316369";"1995";;"Windows 7";"Rachel's Experiment (D.T.)";"1.0";"2";"1";"1";"2";"1";"1";"2014-10-07 11:00:18.739";"2014-10-07 11:12:47.212";"1";"0";"0";"129";"128";"module.training_block4.exec-7189.GoNoGo4";;;;;;;;;;;;;;;;;;;;;;;;;;;;;;;;;;;;;;;;;;;;;;;;;;;;;;;;;;;"1261";"2014-10-07 11:07:19.721";"NST_correctLoc";"4";"1";"FINISHED";"RIGHT";"success";"320";"0";"2014-10-07 11:07:18.458";"1";;;;;;;;;;;;;;;;;;;;;
"c1316369";"1995";;"Windows 7";"Rachel's Experiment (D.T.)";"1.0";"2";"1";"1";"2";"1";"1";"2014-10-07 11:00:18.739";"2014-10-07 11:12:47.212";"1";"0";"0";"130";"129";"module.training_block4.exec-7189.GoNoGo4";;;;;;;;;;;;;;;;;;;;;;;;;;;;;;;;;;;;;;;;;;;;;;;;;;;;;;;;;;;"1261";"2014-10-07 11:07:22.264";"NST_correctLoc";"16";"1";"FINISHED";"RIGHT";"success";"409";"0";"2014-10-07 11:07:21.000";"2";;;;;;;;;;;;;;;;;;;;;
"c1316369";"1995";;"Windows 7";"Rachel's Experiment (D.T.)";"1.0";"2";"1";"1";"2";"1";"1";"2014-10-07 11:00:18.739";"2014-10-07 11:12:47.212";"1";"0";"0";"131";"130";"module.training_block4.exec-7189.GoNoGo4";;;;;;;;;;;;;;;;;;;;;;;;;;;;;;;;;;;;;;;;;;;;;;;;;;;;;;;;;;;"1261";"2014-10-07 11:07:24.807";"NST_correctLoc";"27";"0";"FINISHED";"LEFT";"success";"298";"0";"2014-10-07 11:07:23.543";"3";;;;;;;;;;;;;;;;;;;;;
"c1316369";"1995";;"Windows 7";"Rachel's Experiment (D.T.)";"1.0";"2";"1";"1";"2";"1";"1";"2014-10-07 11:00:18.739";"2014-10-07 11:12:47.212";"1";"0";"0";"132";"131";"module.training_block4.exec-7189.GoNoGo4";;;;;;;;;;;;;;;;;;;;;;;;;;;;;;;;;;;;;;;;;;;;;;;;;;;;;;;;;;;"1261";"2014-10-07 11:07:27.350";"NST_correctLoc";"22";"0";"FINISHED";"LEFT";"success";"323";"0";"2014-10-07 11:07:26.086";"3";;;;;;;;;;;;;;;;;;;;;
"c1316369";"1995";;"Windows 7";"Rachel's Experiment (D.T.)";"1.0";"2";"1";"1";"2";"1";"1";"2014-10-07 11:00:18.739";"2014-10-07 11:12:47.212";"1";"0";"0";"133";"132";"module.training_block4.exec-7189.GoNoGo4";;;;;;;;;;;;;;;;;;;;;;;;;;;;;;;;;;;;;;;;;;;;;;;;;;;;;;;;;;;"1261";"2014-10-07 11:07:29.892";"NST_correctLoc";"0";"1";"FINISHED";"RIGHT";"success";"460";"0";"2014-10-07 11:07:28.629";"1";;;;;;;;;;;;;;;;;;;;;
"c1316369";"1995";;"Windows 7";"Rachel's Experiment (D.T.)";"1.0";"2";"1";"1";"2";"1";"1";"2014-10-07 11:00:18.739";"2014-10-07 11:12:47.212";"1";"0";"0";"134";"133";"module.training_block4.exec-7189.GoNoGo4";;;;;;;;;;;;;;;;;;;;;;;;;;;;;;;;;;;;;;;;;;;;;;;;;;;;;;;;;;;"1261";"2014-10-07 11:07:32.435";"NST_correctLoc";"10";"1";"FINISHED";"RIGHT";"success";"421";"0";"2014-10-07 11:07:31.172";"2";;;;;;;;;;;;;;;;;;;;;
"c1316369";"1995";;"Windows 7";"Rachel's Experiment (D.T.)";"1.0";"2";"1";"1";"2";"1";"1";"2014-10-07 11:00:18.739";"2014-10-07 11:12:47.212";"1";"0";"0";"135";"134";"module.training_block4.exec-7189.GoNoGo4";;;;;;;;;;;;;;;;;;;;;;;;;;;;;;;;;;;;;;;;;;;;;;;;;;;;;;;;;;;"1261";"2014-10-07 11:07:34.978";"NST_correctLoc";"33";"0";"FINISHED";"LEFT";"success";"327";"0";"2014-10-07 11:07:33.714";"3";;;;;;;;;;;;;;;;;;;;;
"c1316369";"1995";;"Windows 7";"Rachel's Experiment (D.T.)";"1.0";"2";"1";"1";"2";"1";"1";"2014-10-07 11:00:18.739";"2014-10-07 11:12:47.212";"1";"0";"0";"136";"135";"module.training_block4.exec-7189.GoNoGo4";;;;;;;;;;;;;;;;;;;;;;;;;;;;;;;;;;;;;;;;;;;;;;;;;;;;;;;;;;;"1261";"2014-10-07 11:07:37.521";"NST_correctLoc";"6";"1";"FINISHED";"RIGHT";"success";"584";"0";"2014-10-07 11:07:36.257";"1";;;;;;;;;;;;;;;;;;;;;
"c1316369";"1995";;"Windows 7";"Rachel's Experiment (D.T.)";"1.0";"2";"1";"1";"2";"1";"1";"2014-10-07 11:00:18.739";"2014-10-07 11:12:47.212";"1";"0";"0";"137";"136";"module.training_block4.exec-7189.GoNoGo4";;;;;;;;;;;;;;;;;;;;;;;;;;;;;;;;;;;;;;;;;;;;;;;;;;;;;;;;;;;"1261";"2014-10-07 11:07:40.079";"NST_correctLoc";"7";"0";"FINISHED";"LEFT";"success";"321";"0";"2014-10-07 11:07:38.816";"1";;;;;;;;;;;;;;;;;;;;;
"c1316369";"1995";;"Windows 7";"Rachel's Experiment (D.T.)";"1.0";"2";"1";"1";"2";"1";"1";"2014-10-07 11:00:18.739";"2014-10-07 11:12:47.212";"1";"0";"0";"138";"137";"module.training_block4.exec-7189.GoNoGo4";;;;;;;;;;;;;;;;;;;;;;;;;;;;;;;;;;;;;;;;;;;;;;;;;;;;;;;;;;;"1261";"2014-10-07 11:07:42.622";"NST_correctLoc";"11";"0";"FINISHED";"LEFT";"success";"387";"0";"2014-10-07 11:07:41.358";"2";;;;;;;;;;;;;;;;;;;;;
"c1316369";"1995";;"Windows 7";"Rachel's Experiment (D.T.)";"1.0";"2";"1";"1";"2";"1";"1";"2014-10-07 11:00:18.739";"2014-10-07 11:12:47.212";"1";"0";"0";"139";"138";"module.training_block4.exec-7189.GoNoGo4";;;;;;;;;;;;;;;;;;;;;;;;;;;;;;;;;;;;;;;;;;;;;;;;;;;;;;;;;;;"1261";"2014-10-07 11:07:45.165";"NST_correctLoc";"24";"1";"FINISHED";"RIGHT";"success";"404";"0";"2014-10-07 11:07:43.901";"3";;;;;;;;;;;;;;;;;;;;;
"c1316369";"1995";;"Windows 7";"Rachel's Experiment (D.T.)";"1.0";"2";"1";"1";"2";"1";"1";"2014-10-07 11:00:18.739";"2014-10-07 11:12:47.212";"1";"0";"0";"140";"139";"module.training_block4.exec-7189.GoNoGo4";;;;;;;;;;;;;;;;;;;;;;;;;;;;;;;;;;;;;;;;;;;;;;;;;;;;;;;;;;;"1261";"2014-10-07 11:07:47.708";"NST_correctLoc";"18";"0";"FINISHED";"LEFT";"success";"421";"0";"2014-10-07 11:07:46.444";"3";;;;;;;;;;;;;;;;;;;;;
"c1316369";"1995";;"Windows 7";"Rachel's Experiment (D.T.)";"1.0";"2";"1";"1";"2";"1";"1";"2014-10-07 11:00:18.739";"2014-10-07 11:12:47.212";"1";"0";"0";"141";"140";"module.training_block4.exec-7189.GoNoGo4";;;;;;;;;;;;;;;;;;;;;;;;;;;;;;;;;;;;;;;;;;;;;;;;;;;;;;;;;;;"1261";"2014-10-07 11:07:50.250";"NST_correctLoc";"25";"0";"FINISHED";"LEFT";"success";"334";"0";"2014-10-07 11:07:48.987";"3";;;;;;;;;;;;;;;;;;;;;
"c1316369";"1995";;"Windows 7";"Rachel's Experiment (D.T.)";"1.0";"2";"1";"1";"2";"1";"1";"2014-10-07 11:00:18.739";"2014-10-07 11:12:47.212";"1";"0";"0";"142";"141";"module.training_block4.exec-7189.GoNoGo4";;;;;;;;;;;;;;;;;;;;;;;;;;;;;;;;;;;;;;;;;;;;;;;;;;;;;;;;;;;"1261";"2014-10-07 11:07:52.793";"NST_correctLoc";"9";"1";"FINISHED";"RIGHT";"success";"383";"0";"2014-10-07 11:07:51.530";"2";;;;;;;;;;;;;;;;;;;;;
"c1316369";"1995";;"Windows 7";"Rachel's Experiment (D.T.)";"1.0";"2";"1";"1";"2";"1";"1";"2014-10-07 11:00:18.739";"2014-10-07 11:12:47.212";"1";"0";"0";"143";"142";"module.training_block4.exec-7189.GoNoGo4";;;;;;;;;;;;;;;;;;;;;;;;;;;;;;;;;;;;;;;;;;;;;;;;;;;;;;;;;;;"1261";"2014-10-07 11:07:55.336";"NST_correctLoc";"34";"0";"FINISHED";"LEFT";"success";"417";"0";"2014-10-07 11:07:54.072";"3";;;;;;;;;;;;;;;;;;;;;
"c1316369";"1995";;"Windows 7";"Rachel's Experiment (D.T.)";"1.0";"2";"1";"1";"2";"1";"1";"2014-10-07 11:00:18.739";"2014-10-07 11:12:47.212";"1";"0";"0";"144";"143";"module.training_block4.exec-7189.GoNoGo4";;;;;;;;;;;;;;;;;;;;;;;;;;;;;;;;;;;;;;;;;;;;;;;;;;;;;;;;;;;"1261";"2014-10-07 11:07:57.894";"NST_correctLoc";"21";"1";"FINISHED";"RIGHT";"success";"322";"0";"2014-10-07 11:07:56.631";"3";;;;;;;;;;;;;;;;;;;;;
"c1316369";"1995";;"Windows 7";"Rachel's Experiment (D.T.)";"1.0";"2";"1";"1";"2";"1";"1";"2014-10-07 11:00:18.739";"2014-10-07 11:12:47.212";"1";"0";"0";"145";"144";"module.training_block4.exec-7189.GoNoGo4";;;;;;;;;;;;;;;;;;;;;;;;;;;;;;;;;;;;;;;;;;;;;;;;;;;;;;;;;;;"1261";"2014-10-07 11:08:00.437";"NST_correctLoc";"15";"0";"FINISHED";"LEFT";"success";"363";"0";"2014-10-07 11:07:59.174";"2";;;;;;;;;;;;;;;;;;;;;
"c1316369";"1995";;"Windows 7";"Rachel's Experiment (D.T.)";"1.0";"2";"1";"1";"2";"1";"1";"2014-10-07 11:00:18.739";"2014-10-07 11:12:47.212";"1";"0";"0";"146";"145";"module.training_block4.exec-7189.GoNoGo4";;;;;;;;;;;;;;;;;;;;;;;;;;;;;;;;;;;;;;;;;;;;;;;;;;;;;;;;;;;"1261";"2014-10-07 11:08:02.996";"NST_correctLoc";"2";"0";"FINISHED";"LEFT";"success";"309";"0";"2014-10-07 11:08:01.732";"1";;;;;;;;;;;;;;;;;;;;;
"c1316369";"1995";;"Windows 7";"Rachel's Experiment (D.T.)";"1.0";"2";"1";"1";"2";"1";"1";"2014-10-07 11:00:18.739";"2014-10-07 11:12:47.212";"1";"0";"0";"147";"146";"module.training_block4.exec-7189.GoNoGo4";;;;;;;;;;;;;;;;;;;;;;;;;;;;;;;;;;;;;;;;;;;;;;;;;;;;;;;;;;;"1261";"2014-10-07 11:08:05.538";"NST_correctLoc";"13";"0";"FINISHED";"LEFT";"success";"326";"0";"2014-10-07 11:08:04.275";"2";;;;;;;;;;;;;;;;;;;;;
"c1316369";"1995";;"Windows 7";"Rachel's Experiment (D.T.)";"1.0";"2";"1";"1";"2";"1";"1";"2014-10-07 11:00:18.739";"2014-10-07 11:12:47.212";"1";"0";"0";"148";"147";"module.training_block4.exec-7189.GoNoGo4";;;;;;;;;;;;;;;;;;;;;;;;;;;;;;;;;;;;;;;;;;;;;;;;;;;;;;;;;;;"1261";"2014-10-07 11:08:08.081";"NST_correctLoc";"3";"0";"FINISHED";"LEFT";"success";"327";"0";"2014-10-07 11:08:06.818";"1";;;;;;;;;;;;;;;;;;;;;
"c1316369";"1995";;"Windows 7";"Rachel's Experiment (D.T.)";"1.0";"2";"1";"1";"2";"1";"1";"2014-10-07 11:00:18.739";"2014-10-07 11:12:47.212";"1";"0";"0";"149";"148";"module.training_block4.exec-7189.GoNoGo4";;;;;;;;;;;;;;;;;;;;;;;;;;;;;;;;;;;;;;;;;;;;;;;;;;;;;;;;;;;"1261";"2014-10-07 11:08:10.624";"NST_correctLoc";"14";"1";"FINISHED";"RIGHT";"success";"328";"0";"2014-10-07 11:08:09.360";"2";;;;;;;;;;;;;;;;;;;;;
"c1316369";"1995";;"Windows 7";"Rachel's Experiment (D.T.)";"1.0";"2";"1";"1";"2";"1";"1";"2014-10-07 11:00:18.739";"2014-10-07 11:12:47.212";"1";"0";"0";"150";"149";"module.training_block4.exec-7189.GoNoGo4";;;;;;;;;;;;;;;;;;;;;;;;;;;;;;;;;;;;;;;;;;;;;;;;;;;;;;;;;;;"1261";"2014-10-07 11:08:13.167";"NST_correctLoc";"35";"0";"FINISHED";"LEFT";"success";"338";"0";"2014-10-07 11:08:11.903";"3";;;;;;;;;;;;;;;;;;;;;
"c1316369";"1995";;"Windows 7";"Rachel's Experiment (D.T.)";"1.0";"2";"1";"1";"2";"1";"1";"2014-10-07 11:00:18.739";"2014-10-07 11:12:47.212";"1";"0";"0";"151";"150";"module.training_block4.exec-7189.GoNoGo4";;;;;;;;;;;;;;;;;;;;;;;;;;;;;;;;;;;;;;;;;;;;;;;;;;;;;;;;;;;"1261";"2014-10-07 11:08:15.710";"NST_correctLoc";"23";"1";"FINISHED";"RIGHT";"success";"363";"0";"2014-10-07 11:08:14.446";"3";;;;;;;;;;;;;;;;;;;;;
"c1316369";"1995";;"Windows 7";"Rachel's Experiment (D.T.)";"1.0";"2";"1";"1";"2";"1";"1";"2014-10-07 11:00:18.739";"2014-10-07 11:12:47.212";"1";"0";"0";"152";"151";"module.training_block4.exec-7189.GoNoGo4";;;;;;;;;;;;;;;;;;;;;;;;;;;;;;;;;;;;;;;;;;;;;;;;;;;;;;;;;;;"1261";"2014-10-07 11:08:18.252";"NST_correctLoc";"28";"0";"FINISHED";"LEFT";"success";"548";"0";"2014-10-07 11:08:16.989";"3";;;;;;;;;;;;;;;;;;;;;
"c1316369";"1995";;"Windows 7";"Rachel's Experiment (D.T.)";"1.0";"2";"1";"1";"2";"1";"1";"2014-10-07 11:00:18.739";"2014-10-07 11:12:47.212";"1";"0";"0";"153";"152";"module.training_block4.exec-7189.GoNoGo4";;;;;;;;;;;;;;;;;;;;;;;;;;;;;;;;;;;;;;;;;;;;;;;;;;;;;;;;;;;"1261";"2014-10-07 11:08:20.795";"NST_correctLoc";"12";"1";"FINISHED";"RIGHT";"success";"365";"0";"2014-10-07 11:08:19.532";"2";;;;;;;;;;;;;;;;;;;;;
"c1316369";"1995";;"Windows 7";"Rachel's Experiment (D.T.)";"1.0";"2";"1";"1";"2";"1";"1";"2014-10-07 11:00:18.739";"2014-10-07 11:12:47.212";"1";"0";"0";"154";"153";"module.training_block4.exec-7189.GoNoGo4";;;;;;;;;;;;;;;;;;;;;;;;;;;;;;;;;;;;;;;;;;;;;;;;;;;;;;;;;;;"1261";"2014-10-07 11:08:23.338";"NST_correctLoc";"30";"1";"FINISHED";"RIGHT";"success";"414";"0";"2014-10-07 11:08:22.074";"3";;;;;;;;;;;;;;;;;;;;;
"c1316369";"1995";;"Windows 7";"Rachel's Experiment (D.T.)";"1.0";"2";"1";"1";"2";"1";"1";"2014-10-07 11:00:18.739";"2014-10-07 11:12:47.212";"1";"0";"0";"155";"154";"module.training_block4.exec-7189.GoNoGo4";;;;;;;;;;;;;;;;;;;;;;;;;;;;;;;;;;;;;;;;;;;;;;;;;;;;;;;;;;;"1261";"2014-10-07 11:08:25.881";"NST_correctLoc";"32";"0";"FINISHED";"LEFT";"success";"319";"0";"2014-10-07 11:08:24.617";"3";;;;;;;;;;;;;;;;;;;;;
"c1316369";"1995";;"Windows 7";"Rachel's Experiment (D.T.)";"1.0";"2";"1";"1";"2";"1";"1";"2014-10-07 11:00:18.739";"2014-10-07 11:12:47.212";"1";"0";"0";"156";"155";"module.training_block4.exec-7189.GoNoGo4";;;;;;;;;;;;;;;;;;;;;;;;;;;;;;;;;;;;;;;;;;;;;;;;;;;;;;;;;;;"1261";"2014-10-07 11:08:28.408";"NST_correctLoc";"19";"1";"FINISHED";"RIGHT";"success";"360";"0";"2014-10-07 11:08:27.144";"3";;;;;;;;;;;;;;;;;;;;;
"c1316369";"1995";;"Windows 7";"Rachel's Experiment (D.T.)";"1.0";"2";"1";"1";"2";"1";"1";"2014-10-07 11:00:18.739";"2014-10-07 11:12:47.212";"1";"0";"0";"157";"156";"module.training_block4.exec-7189.GoNoGo4";;;;;;;;;;;;;;;;;;;;;;;;;;;;;;;;;;;;;;;;;;;;;;;;;;;;;;;;;;;"1261";"2014-10-07 11:08:30.951";"NST_correctLoc";"17";"1";"FINISHED";"RIGHT";"success";"385";"0";"2014-10-07 11:08:29.687";"2";;;;;;;;;;;;;;;;;;;;;
"c1316369";"1995";;"Windows 7";"Rachel's Experiment (D.T.)";"1.0";"2";"1";"1";"2";"1";"1";"2014-10-07 11:00:18.739";"2014-10-07 11:12:47.212";"1";"0";"0";"158";"157";"module.training_block4.exec-7189.GoNoGo4";;;;;;;;;;;;;;;;;;;;;;;;;;;;;;;;;;;;;;;;;;;;;;;;;;;;;;;;;;;"1261";"2014-10-07 11:08:33.494";"NST_correctLoc";"26";"0";"FINISHED";"LEFT";"success";"347";"0";"2014-10-07 11:08:32.230";"3";;;;;;;;;;;;;;;;;;;;;
"c1316369";"1995";;"Windows 7";"Rachel's Experiment (D.T.)";"1.0";"2";"1";"1";"2";"1";"1";"2014-10-07 11:00:18.739";"2014-10-07 11:12:47.212";"1";"0";"0";"159";"158";"module.training_block4.exec-7189.GoNoGo4";;;;;;;;;;;;;;;;;;;;;;;;;;;;;;;;;;;;;;;;;;;;;;;;;;;;;;;;;;;"1261";"2014-10-07 11:08:36.036";"NST_correctLoc";"1";"1";"FINISHED";"RIGHT";"success";"308";"0";"2014-10-07 11:08:34.773";"1";;;;;;;;;;;;;;;;;;;;;
"c1316369";"1995";;"Windows 7";"Rachel's Experiment (D.T.)";"1.0";"2";"1";"1";"2";"1";"1";"2014-10-07 11:00:18.739";"2014-10-07 11:12:47.212";"1";"0";"0";"160";"159";"module.devaluation_practice.exec-9441.devalPractice";;;;;;;;;;;;"20686";"2014-10-07 11:09:21.152";"0";"3";"1";"2";"9733";"2918";"4986";"2014-10-07 11:09:00.466";;;;;;;;;;;;;;;;;;;;;;;;;;;;;;;;;;;;;;;;;;;;;;;;;;;;;;;;;;;;;;;;;;;;;;
"c1316369";"1995";;"Windows 7";"Rachel's Experiment (D.T.)";"1.0";"2";"1";"1";"2";"1";"1";"2014-10-07 11:00:18.739";"2014-10-07 11:12:47.212";"1";"0";"0";"161";"160";"module.devaluation_practice.exec-9441.devalPractice";;;;;;;;;;;;"8322";"2014-10-07 11:09:29.498";"1";"5";"5";"4";"2420";"1019";"1841";"2014-10-07 11:09:21.183";;;;;;;;;;;;;;;;;;;;;;;;;;;;;;;;;;;;;;;;;;;;;;;;;;;;;;;;;;;;;;;;;;;;;;
"c1316369";"1995";;"Windows 7";"Rachel's Experiment (D.T.)";"1.0";"2";"1";"1";"2";"1";"1";"2014-10-07 11:00:18.739";"2014-10-07 11:12:47.212";"1";"0";"0";"162";"161";"module.devaluation_practice.exec-9441.devalPractice";;;;;;;;;;;;"9202";"2014-10-07 11:09:38.717";"2";"3";"2";"5";"1377";"1741";"3060";"2014-10-07 11:09:29.513";;;;;;;;;;;;;;;;;;;;;;;;;;;;;;;;;;;;;;;;;;;;;;;;;;;;;;;;;;;;;;;;;;;;;;
"c1316369";"1995";;"Windows 7";"Rachel's Experiment (D.T.)";"1.0";"2";"1";"1";"2";"1";"1";"2014-10-07 11:00:18.739";"2014-10-07 11:12:47.212";"1";"0";"0";"163";"162";"module.devaluation_practice.exec-9441.devalPractice";;;;;;;;;;;;"6882";"2014-10-07 11:09:45.628";"3";"6";"6";"6";"1414";"752";"1697";"2014-10-07 11:09:38.749";;;;;;;;;;;;;;;;;;;;;;;;;;;;;;;;;;;;;;;;;;;;;;;;;;;;;;;;;;;;;;;;;;;;;;
"c1316369";"1995";;"Windows 7";"Rachel's Experiment (D.T.)";"1.0";"2";"1";"1";"2";"1";"1";"2014-10-07 11:00:18.739";"2014-10-07 11:12:47.212";"1";"0";"0";"164";"163";"module.devaluation_block1.exec-8135.deval1";"11045";"2014-10-07 11:10:00.277";"1";"6";"7";"7";"3850";"2140";"2010";"2014-10-07 11:09:49.232";"1";;;;;;;;;;;;;;;;;;;;;;;;;;;;;;;;;;;;;;;;;;;;;;;;;;;;;;;;;;;;;;;;;;;;;;;;;;;;;;;;
"c1316369";"1995";;"Windows 7";"Rachel's Experiment (D.T.)";"1.0";"2";"1";"1";"2";"1";"1";"2014-10-07 11:00:18.739";"2014-10-07 11:12:47.212";"1";"0";"0";"165";"164";"module.devaluation_block1.exec-8135.deval1";"6819";"2014-10-07 11:10:07.109";"26";"8";"5";"8";"1558";"509";"1724";"2014-10-07 11:10:00.292";"3";;;;;;;;;;;;;;;;;;;;;;;;;;;;;;;;;;;;;;;;;;;;;;;;;;;;;;;;;;;;;;;;;;;;;;;;;;;;;;;;
"c1316369";"1995";;"Windows 7";"Rachel's Experiment (D.T.)";"1.0";"2";"1";"1";"2";"1";"1";"2014-10-07 11:00:18.739";"2014-10-07 11:12:47.212";"1";"0";"0";"166";"165";"module.devaluation_block1.exec-8135.deval1";"6547";"2014-10-07 11:10:13.677";"16";"3";"3";"3";"1038";"1579";"872";"2014-10-07 11:10:07.141";"2";;;;;;;;;;;;;;;;;;;;;;;;;;;;;;;;;;;;;;;;;;;;;;;;;;;;;;;;;;;;;;;;;;;;;;;;;;;;;;;;
"c1316369";"1995";;"Windows 7";"Rachel's Experiment (D.T.)";"1.0";"2";"1";"1";"2";"1";"1";"2014-10-07 11:00:18.739";"2014-10-07 11:12:47.212";"1";"0";"0";"167";"166";"module.devaluation_block1.exec-8135.deval1";"5507";"2014-10-07 11:10:19.215";"20";"6";"6";"6";"799";"1201";"472";"2014-10-07 11:10:13.708";"3";;;;;;;;;;;;;;;;;;;;;;;;;;;;;;;;;;;;;;;;;;;;;;;;;;;;;;;;;;;;;;;;;;;;;;;;;;;;;;;;
"c1316369";"1995";;"Windows 7";"Rachel's Experiment (D.T.)";"1.0";"2";"1";"1";"2";"1";"1";"2014-10-07 11:00:18.739";"2014-10-07 11:12:47.212";"1";"0";"0";"168";"167";"module.devaluation_block1.exec-8135.deval1";"5805";"2014-10-07 11:10:25.065";"2";"7";"6";"6";"925";"1067";"778";"2014-10-07 11:10:19.262";"1";;;;;;;;;;;;;;;;;;;;;;;;;;;;;;;;;;;;;;;;;;;;;;;;;;;;;;;;;;;;;;;;;;;;;;;;;;;;;;;;
"c1316369";"1995";;"Windows 7";"Rachel's Experiment (D.T.)";"1.0";"2";"1";"1";"2";"1";"1";"2014-10-07 11:00:18.739";"2014-10-07 11:12:47.212";"1";"0";"0";"169";"168";"module.devaluation_block1.exec-8135.deval1";"5956";"2014-10-07 11:10:31.040";"12";"7";"8";"7";"962";"1006";"976";"2014-10-07 11:10:25.081";"2";;;;;;;;;;;;;;;;;;;;;;;;;;;;;;;;;;;;;;;;;;;;;;;;;;;;;;;;;;;;;;;;;;;;;;;;;;;;;;;;
"c1316369";"1995";;"Windows 7";"Rachel's Experiment (D.T.)";"1.0";"2";"1";"1";"2";"1";"1";"2014-10-07 11:00:18.739";"2014-10-07 11:12:47.212";"1";"0";"0";"170";"169";"module.devaluation_block1.exec-8135.deval1";"5948";"2014-10-07 11:10:37.015";"10";"4";"7";"6";"779";"702";"1444";"2014-10-07 11:10:31.055";"2";;;;;;;;;;;;;;;;;;;;;;;;;;;;;;;;;;;;;;;;;;;;;;;;;;;;;;;;;;;;;;;;;;;;;;;;;;;;;;;;
"c1316369";"1995";;"Windows 7";"Rachel's Experiment (D.T.)";"1.0";"2";"1";"1";"2";"1";"1";"2014-10-07 11:00:18.739";"2014-10-07 11:12:47.212";"1";"0";"0";"171";"170";"module.devaluation_block1.exec-8135.deval1";"6467";"2014-10-07 11:10:43.504";"8";"8";"7";"6";"1292";"732";"1411";"2014-10-07 11:10:37.030";"1";;;;;;;;;;;;;;;;;;;;;;;;;;;;;;;;;;;;;;;;;;;;;;;;;;;;;;;;;;;;;;;;;;;;;;;;;;;;;;;;
"c1316369";"1995";;"Windows 7";"Rachel's Experiment (D.T.)";"1.0";"2";"1";"1";"2";"1";"1";"2014-10-07 11:00:18.739";"2014-10-07 11:12:47.212";"1";"0";"0";"172";"171";"module.devaluation_block1.exec-8135.deval1";"6795";"2014-10-07 11:10:50.321";"24";"6";"7";"7";"1387";"1308";"1067";"2014-10-07 11:10:43.520";"3";;;;;;;;;;;;;;;;;;;;;;;;;;;;;;;;;;;;;;;;;;;;;;;;;;;;;;;;;;;;;;;;;;;;;;;;;;;;;;;;
"c1316369";"1995";;"Windows 7";"Rachel's Experiment (D.T.)";"1.0";"2";"1";"1";"2";"1";"1";"2014-10-07 11:00:18.739";"2014-10-07 11:12:47.212";"1";"0";"0";"173";"172";"module.devaluation_block1.exec-8135.deval1";"6623";"2014-10-07 11:10:56.967";"25";"6";"6";"8";"1881";"889";"839";"2014-10-07 11:10:50.337";"3";;;;;;;;;;;;;;;;;;;;;;;;;;;;;;;;;;;;;;;;;;;;;;;;;;;;;;;;;;;;;;;;;;;;;;;;;;;;;;;;
"c1316369";"1995";;"Windows 7";"Rachel's Experiment (D.T.)";"1.0";"2";"1";"1";"2";"1";"1";"2014-10-07 11:00:18.739";"2014-10-07 11:12:47.212";"1";"0";"0";"174";"173";"module.devaluation_block1.exec-8135.deval1";"7133";"2014-10-07 11:11:04.128";"23";"7";"7";"8";"1284";"943";"1882";"2014-10-07 11:10:56.998";"3";;;;;;;;;;;;;;;;;;;;;;;;;;;;;;;;;;;;;;;;;;;;;;;;;;;;;;;;;;;;;;;;;;;;;;;;;;;;;;;;
"c1316369";"1995";;"Windows 7";"Rachel's Experiment (D.T.)";"1.0";"2";"1";"1";"2";"1";"1";"2014-10-07 11:00:18.739";"2014-10-07 11:12:47.212";"1";"0";"0";"175";"174";"module.devaluation_block1.exec-8135.deval1";"6363";"2014-10-07 11:11:10.508";"18";"6";"6";"8";"891";"1243";"1199";"2014-10-07 11:11:04.143";"3";;;;;;;;;;;;;;;;;;;;;;;;;;;;;;;;;;;;;;;;;;;;;;;;;;;;;;;;;;;;;;;;;;;;;;;;;;;;;;;;
"c1316369";"1995";;"Windows 7";"Rachel's Experiment (D.T.)";"1.0";"2";"1";"1";"2";"1";"1";"2014-10-07 11:00:18.739";"2014-10-07 11:12:47.212";"1";"0";"0";"176";"175";"module.devaluation_block1.exec-8135.deval1";"7339";"2014-10-07 11:11:17.871";"0";"7";"7";"7";"1911";"725";"1669";"2014-10-07 11:11:10.539";"1";;;;;;;;;;;;;;;;;;;;;;;;;;;;;;;;;;;;;;;;;;;;;;;;;;;;;;;;;;;;;;;;;;;;;;;;;;;;;;;;
"c1316369";"1995";;"Windows 7";"Rachel's Experiment (D.T.)";"1.0";"2";"1";"1";"2";"1";"1";"2014-10-07 11:00:18.739";"2014-10-07 11:12:47.212";"1";"0";"0";"177";"176";"module.devaluation_block1.exec-8135.deval1";"5972";"2014-10-07 11:11:23.862";"3";"6";"8";"8";"1164";"867";"918";"2014-10-07 11:11:17.887";"1";;;;;;;;;;;;;;;;;;;;;;;;;;;;;;;;;;;;;;;;;;;;;;;;;;;;;;;;;;;;;;;;;;;;;;;;;;;;;;;;
"c1316369";"1995";;"Windows 7";"Rachel's Experiment (D.T.)";"1.0";"2";"1";"1";"2";"1";"1";"2014-10-07 11:00:18.739";"2014-10-07 11:12:47.212";"1";"0";"0";"178";"177";"module.devaluation_block1.exec-8135.deval1";"4954";"2014-10-07 11:11:28.838";"7";"6";"5";"6";"654";"758";"500";"2014-10-07 11:11:23.893";"1";;;;;;;;;;;;;;;;;;;;;;;;;;;;;;;;;;;;;;;;;;;;;;;;;;;;;;;;;;;;;;;;;;;;;;;;;;;;;;;;
"c1316369";"1995";;"Windows 7";"Rachel's Experiment (D.T.)";"1.0";"2";"1";"1";"2";"1";"1";"2014-10-07 11:00:18.739";"2014-10-07 11:12:47.212";"1";"0";"0";"179";"178";"module.devaluation_block1.exec-8135.deval1";"5827";"2014-10-07 11:11:34.688";"19";"4";"6";"6";"1069";"896";"830";"2014-10-07 11:11:28.869";"3";;;;;;;;;;;;;;;;;;;;;;;;;;;;;;;;;;;;;;;;;;;;;;;;;;;;;;;;;;;;;;;;;;;;;;;;;;;;;;;;
"c1316369";"1995";;"Windows 7";"Rachel's Experiment (D.T.)";"1.0";"2";"1";"1";"2";"1";"1";"2014-10-07 11:00:18.739";"2014-10-07 11:12:47.212";"1";"0";"0";"180";"179";"module.devaluation_block1.exec-8135.deval1";"5675";"2014-10-07 11:11:40.382";"15";"3";"2";"3";"875";"1054";"718";"2014-10-07 11:11:34.704";"2";;;;;;;;;;;;;;;;;;;;;;;;;;;;;;;;;;;;;;;;;;;;;;;;;;;;;;;;;;;;;;;;;;;;;;;;;;;;;;;;
"c1316369";"1995";;"Windows 7";"Rachel's Experiment (D.T.)";"1.0";"2";"1";"1";"2";"1";"1";"2014-10-07 11:00:18.739";"2014-10-07 11:12:47.212";"1";"0";"0";"181";"180";"module.devaluation_block1.exec-8135.deval1";"6883";"2014-10-07 11:11:47.293";"14";"5";"5";"5";"1981";"1234";"629";"2014-10-07 11:11:40.413";"2";;;;;;;;;;;;;;;;;;;;;;;;;;;;;;;;;;;;;;;;;;;;;;;;;;;;;;;;;;;;;;;;;;;;;;;;;;;;;;;;
"c1316369";"1995";;"Windows 7";"Rachel's Experiment (D.T.)";"1.0";"2";"1";"1";"2";"1";"1";"2014-10-07 11:00:18.739";"2014-10-07 11:12:47.212";"1";"0";"0";"182";"181";"module.devaluation_block1.exec-8135.deval1";"5924";"2014-10-07 11:11:53.236";"9";"4";"5";"6";"806";"1500";"599";"2014-10-07 11:11:47.308";"2";;;;;;;;;;;;;;;;;;;;;;;;;;;;;;;;;;;;;;;;;;;;;;;;;;;;;;;;;;;;;;;;;;;;;;;;;;;;;;;;
"c1316369";"1995";;"Windows 7";"Rachel's Experiment (D.T.)";"1.0";"2";"1";"1";"2";"1";"1";"2014-10-07 11:00:18.739";"2014-10-07 11:12:47.212";"1";"0";"0";"183";"182";"module.devaluation_block1.exec-8135.deval1";"7147";"2014-10-07 11:12:00.397";"13";"4";"3";"4";"702";"1008";"2405";"2014-10-07 11:11:53.252";"2";;;;;;;;;;;;;;;;;;;;;;;;;;;;;;;;;;;;;;;;;;;;;;;;;;;;;;;;;;;;;;;;;;;;;;;;;;;;;;;;
"c1316369";"1995";;"Windows 7";"Rachel's Experiment (D.T.)";"1.0";"2";"1";"1";"2";"1";"1";"2014-10-07 11:00:18.739";"2014-10-07 11:12:47.212";"1";"0";"0";"184";"183";"module.devaluation_block1.exec-8135.deval1";"9410";"2014-10-07 11:12:09.835";"21";"3";"4";"4";"3390";"799";"2194";"2014-10-07 11:12:00.428";"3";;;;;;;;;;;;;;;;;;;;;;;;;;;;;;;;;;;;;;;;;;;;;;;;;;;;;;;;;;;;;;;;;;;;;;;;;;;;;;;;
"c1316369";"1995";;"Windows 7";"Rachel's Experiment (D.T.)";"1.0";"2";"1";"1";"2";"1";"1";"2014-10-07 11:00:18.739";"2014-10-07 11:12:47.212";"1";"0";"0";"185";"184";"module.devaluation_block1.exec-8135.deval1";"7011";"2014-10-07 11:12:16.870";"11";"4";"6";"4";"1672";"531";"1784";"2014-10-07 11:12:09.850";"2";;;;;;;;;;;;;;;;;;;;;;;;;;;;;;;;;;;;;;;;;;;;;;;;;;;;;;;;;;;;;;;;;;;;;;;;;;;;;;;;
"c1316369";"1995";;"Windows 7";"Rachel's Experiment (D.T.)";"1.0";"2";"1";"1";"2";"1";"1";"2014-10-07 11:00:18.739";"2014-10-07 11:12:47.212";"1";"0";"0";"186";"185";"module.devaluation_block1.exec-8135.deval1";"4619";"2014-10-07 11:12:21.504";"22";"5";"5";"5";"1260";"225";"121";"2014-10-07 11:12:16.886";"3";;;;;;;;;;;;;;;;;;;;;;;;;;;;;;;;;;;;;;;;;;;;;;;;;;;;;;;;;;;;;;;;;;;;;;;;;;;;;;;;
"c1316369";"1995";;"Windows 7";"Rachel's Experiment (D.T.)";"1.0";"2";"1";"1";"2";"1";"1";"2014-10-07 11:00:18.739";"2014-10-07 11:12:47.212";"1";"0";"0";"187";"186";"module.devaluation_block1.exec-8135.deval1";"6265";"2014-10-07 11:12:27.790";"5";"6";"6";"7";"1195";"726";"1311";"2014-10-07 11:12:21.535";"1";;;;;;;;;;;;;;;;;;;;;;;;;;;;;;;;;;;;;;;;;;;;;;;;;;;;;;;;;;;;;;;;;;;;;;;;;;;;;;;;
"c1316369";"1995";;"Windows 7";"Rachel's Experiment (D.T.)";"1.0";"2";"1";"1";"2";"1";"1";"2014-10-07 11:00:18.739";"2014-10-07 11:12:47.212";"1";"0";"0";"188";"187";"module.devaluation_block1.exec-8135.deval1";"5581";"2014-10-07 11:12:33.406";"17";"4";"3";"4";"1052";"842";"660";"2014-10-07 11:12:27.822";"2";;;;;;;;;;;;;;;;;;;;;;;;;;;;;;;;;;;;;;;;;;;;;;;;;;;;;;;;;;;;;;;;;;;;;;;;;;;;;;;;
"c1316369";"1995";;"Windows 7";"Rachel's Experiment (D.T.)";"1.0";"2";"1";"1";"2";"1";"1";"2014-10-07 11:00:18.739";"2014-10-07 11:12:47.212";"1";"0";"0";"189";"188";"module.devaluation_block1.exec-8135.deval1";"5938";"2014-10-07 11:12:39.366";"4";"7";"6";"7";"812";"640";"1462";"2014-10-07 11:12:33.422";"1";;;;;;;;;;;;;;;;;;;;;;;;;;;;;;;;;;;;;;;;;;;;;;;;;;;;;;;;;;;;;;;;;;;;;;;;;;;;;;;;
"c1316369";"1995";;"Windows 7";"Rachel's Experiment (D.T.)";"1.0";"2";"1";"1";"2";"1";"1";"2014-10-07 11:00:18.739";"2014-10-07 11:12:47.212";"1";"0";"0";"190";"189";"module.devaluation_block1.exec-8135.deval1";"5878";"2014-10-07 11:12:45.278";"6";"7";"6";"7";"661";"515";"1667";"2014-10-07 11:12:39.397";"1";;;;;;;;;;;;;;;;;;;;;;;;;;;;;;;;;;;;;;;;;;;;;;;;;;;;;;;;;;;;;;;;;;;;;;;;;;;;;;;;
