"user.name";"user.yearOfBirth";"user.sex";"user.osName";"module.name";"module.version";"module.online.subject.code";"module.online.study.id";"module.online.module.nr";"module.online.group.nr";"session.id";"session.index";"session.startTime";"session.endTime";"session.completed";"session.node-2918.conditionType";"session.node-8050.DevalQorder";"trial.id";"trial.index";"trial.name";"trial.deval1.durationTime";"trial.deval1.endTime";"trial.deval1.icon";"trial.deval1.Resp_Attractive";"trial.deval1.Resp_Eat";"trial.deval1.Resp_Taste";"trial.deval1.RT_Attractive";"trial.deval1.RT_Eat";"trial.deval1.RT_Taste";"trial.deval1.startTime";"trial.deval1.stimulus type";"trial.devalPractice.durationTime";"trial.devalPractice.endTime";"trial.devalPractice.icon";"trial.devalPractice.Resp_Attractive";"trial.devalPractice.Resp_Eat";"trial.devalPractice.Resp_Taste";"trial.devalPractice.RT_Attractive";"trial.devalPractice.RT_Eat";"trial.devalPractice.RT_Taste";"trial.devalPractice.startTime";"trial.devalPractice.stimulus type";"trial.GoNoGo1.durationTime";"trial.GoNoGo1.endTime";"trial.GoNoGo1.Error Type";"trial.GoNoGo1.icon";"trial.GoNoGo1.location";"trial.GoNoGo1.outcome";"trial.GoNoGo1.response";"trial.GoNoGo1.result";"trial.GoNoGo1.RT";"trial.GoNoGo1.signal";"trial.GoNoGo1.startTime";"trial.GoNoGo1.stimulus type";"trial.GoNoGo2.durationTime";"trial.GoNoGo2.endTime";"trial.GoNoGo2.Error Type";"trial.GoNoGo2.icon";"trial.GoNoGo2.location";"trial.GoNoGo2.outcome";"trial.GoNoGo2.response";"trial.GoNoGo2.result";"trial.GoNoGo2.RT";"trial.GoNoGo2.signal";"trial.GoNoGo2.startTime";"trial.GoNoGo2.stimulus type";"trial.GoNoGo3.durationTime";"trial.GoNoGo3.endTime";"trial.GoNoGo3.Error Type";"trial.GoNoGo3.icon";"trial.GoNoGo3.location";"trial.GoNoGo3.outcome";"trial.GoNoGo3.response";"trial.GoNoGo3.result";"trial.GoNoGo3.RT";"trial.GoNoGo3.signal";"trial.GoNoGo3.startTime";"trial.GoNoGo3.stimulus type";"trial.GoNoGo4.durationTime";"trial.GoNoGo4.endTime";"trial.GoNoGo4.Error Type";"trial.GoNoGo4.icon";"trial.GoNoGo4.location";"trial.GoNoGo4.outcome";"trial.GoNoGo4.response";"trial.GoNoGo4.result";"trial.GoNoGo4.RT";"trial.GoNoGo4.signal";"trial.GoNoGo4.startTime";"trial.GoNoGo4.stimulus type";"trial.GoNoGo_Practice.durationTime";"trial.GoNoGo_Practice.endTime";"trial.GoNoGo_Practice.icon";"trial.GoNoGo_Practice.location";"trial.GoNoGo_Practice.outcome";"trial.GoNoGo_Practice.response";"trial.GoNoGo_Practice.result";"trial.GoNoGo_Practice.RT";"trial.GoNoGo_Practice.signal";"trial.GoNoGo_Practice.startTime";"trial.GoNoGo_Practice.stimulus type";"trial.GoNoGo_Tutorial.durationTime";"trial.GoNoGo_Tutorial.endTime";"trial.GoNoGo_Tutorial.icon";"trial.GoNoGo_Tutorial.location";"trial.GoNoGo_Tutorial.outcome";"trial.GoNoGo_Tutorial.response";"trial.GoNoGo_Tutorial.result";"trial.GoNoGo_Tutorial.RT";"trial.GoNoGo_Tutorial.signal";"trial.GoNoGo_Tutorial.startTime"
"8320450";;;"Windows 7";"Rachel's Experiment (D.T.)";"1.0";"2";"1";"1";"2";"1";"1";"2014-10-16 12:57:35.577";"2014-10-16 13:10:52.832";"1";"0";"1";"1";"0";"module.GoNoGotutorial.exec-6890.GoNoGo_Tutorial";;;;;;;;;;;;;;;;;;;;;;;;;;;;;;;;;;;;;;;;;;;;;;;;;;;;;;;;;;;;;;;;;;;;;;;;;;;;;;;;;;"3998";"2014-10-16 12:58:37.525";"leftResponse";"0";"FINISHED";"LEFT";"success";"1056";"0";"2014-10-16 12:58:33.516"
"8320450";;;"Windows 7";"Rachel's Experiment (D.T.)";"1.0";"2";"1";"1";"2";"1";"1";"2014-10-16 12:57:35.577";"2014-10-16 13:10:52.832";"1";"0";"1";"2";"1";"module.GoNoGotutorial.exec-6890.GoNoGo_Tutorial";;;;;;;;;;;;;;;;;;;;;;;;;;;;;;;;;;;;;;;;;;;;;;;;;;;;;;;;;;;;;;;;;;;;;;;;;;;;;;;;;;"4003";"2014-10-16 12:58:42.829";"rightResponse";"1";"FINISHED";"RIGHT";"success";"574";"0";"2014-10-16 12:58:38.820"
"8320450";;;"Windows 7";"Rachel's Experiment (D.T.)";"1.0";"2";"1";"1";"2";"1";"1";"2014-10-16 12:57:35.577";"2014-10-16 13:10:52.832";"1";"0";"1";"3";"2";"module.GoNoGotutorial.exec-6890.GoNoGo_Tutorial";;;;;;;;;;;;;;;;;;;;;;;;;;;;;;;;;;;;;;;;;;;;;;;;;;;;;;;;;;;;;;;;;;;;;;;;;;;;;;;;;;"4003";"2014-10-16 12:58:48.133";"quickResponse";"0";"FINISHED";"NONE";"failure";"0";"0";"2014-10-16 12:58:44.124"
"8320450";;;"Windows 7";"Rachel's Experiment (D.T.)";"1.0";"2";"1";"1";"2";"1";"1";"2014-10-16 12:57:35.577";"2014-10-16 13:10:52.832";"1";"0";"1";"4";"3";"module.GoNoGopractice.exec-8752.GoNoGo_Practice";;;;;;;;;;;;;;;;;;;;;;;;;;;;;;;;;;;;;;;;;;;;;;;;;;;;;;;;;;;;;;;;;;;;;;;"1959";"2014-10-16 12:58:56.962";"18";"0";"FINISHED";"LEFT";"success";"332";"0";"2014-10-16 12:58:54.997";"3";;;;;;;;;;
"8320450";;;"Windows 7";"Rachel's Experiment (D.T.)";"1.0";"2";"1";"1";"2";"1";"1";"2014-10-16 12:57:35.577";"2014-10-16 13:10:52.832";"1";"0";"1";"5";"4";"module.GoNoGopractice.exec-8752.GoNoGo_Practice";;;;;;;;;;;;;;;;;;;;;;;;;;;;;;;;;;;;;;;;;;;;;;;;;;;;;;;;;;;;;;;;;;;;;;;"1954";"2014-10-16 12:59:00.207";"21";"1";"FINISHED";"RIGHT";"success";"283";"0";"2014-10-16 12:58:58.242";"3";;;;;;;;;;
"8320450";;;"Windows 7";"Rachel's Experiment (D.T.)";"1.0";"2";"1";"1";"2";"1";"1";"2014-10-16 12:57:35.577";"2014-10-16 13:10:52.832";"1";"0";"1";"6";"5";"module.GoNoGopractice.exec-8752.GoNoGo_Practice";;;;;;;;;;;;;;;;;;;;;;;;;;;;;;;;;;;;;;;;;;;;;;;;;;;;;;;;;;;;;;;;;;;;;;;"1959";"2014-10-16 12:59:03.452";"14";"1";"FINISHED";"RIGHT";"success";"322";"0";"2014-10-16 12:59:01.486";"2";;;;;;;;;;
"8320450";;;"Windows 7";"Rachel's Experiment (D.T.)";"1.0";"2";"1";"1";"2";"1";"1";"2014-10-16 12:57:35.577";"2014-10-16 13:10:52.832";"1";"0";"1";"7";"6";"module.GoNoGopractice.exec-8752.GoNoGo_Practice";;;;;;;;;;;;;;;;;;;;;;;;;;;;;;;;;;;;;;;;;;;;;;;;;;;;;;;;;;;;;;;;;;;;;;;"1959";"2014-10-16 12:59:06.697";"26";"0";"FINISHED";"LEFT";"success";"350";"0";"2014-10-16 12:59:04.731";"3";;;;;;;;;;
"8320450";;;"Windows 7";"Rachel's Experiment (D.T.)";"1.0";"2";"1";"1";"2";"1";"1";"2014-10-16 12:57:35.577";"2014-10-16 13:10:52.832";"1";"0";"1";"8";"7";"module.GoNoGopractice.exec-8752.GoNoGo_Practice";;;;;;;;;;;;;;;;;;;;;;;;;;;;;;;;;;;;;;;;;;;;;;;;;;;;;;;;;;;;;;;;;;;;;;;"1959";"2014-10-16 12:59:09.942";"2";"0";"FINISHED";"LEFT";"success";"322";"0";"2014-10-16 12:59:07.976";"1";;;;;;;;;;
"8320450";;;"Windows 7";"Rachel's Experiment (D.T.)";"1.0";"2";"1";"1";"2";"1";"1";"2014-10-16 12:57:35.577";"2014-10-16 13:10:52.832";"1";"0";"1";"9";"8";"module.GoNoGopractice.exec-8752.GoNoGo_Practice";;;;;;;;;;;;;;;;;;;;;;;;;;;;;;;;;;;;;;;;;;;;;;;;;;;;;;;;;;;;;;;;;;;;;;;"1960";"2014-10-16 12:59:13.186";"30";"0";"FINISHED";"LEFT";"success";"365";"0";"2014-10-16 12:59:11.221";"3";;;;;;;;;;
"8320450";;;"Windows 7";"Rachel's Experiment (D.T.)";"1.0";"2";"1";"1";"2";"1";"1";"2014-10-16 12:57:35.577";"2014-10-16 13:10:52.832";"1";"0";"1";"10";"9";"module.GoNoGopractice.exec-8752.GoNoGo_Practice";;;;;;;;;;;;;;;;;;;;;;;;;;;;;;;;;;;;;;;;;;;;;;;;;;;;;;;;;;;;;;;;;;;;;;;"1959";"2014-10-16 12:59:16.431";"6";"1";"FINISHED";"RIGHT";"success";"352";"0";"2014-10-16 12:59:14.466";"1";;;;;;;;;;
"8320450";;;"Windows 7";"Rachel's Experiment (D.T.)";"1.0";"2";"1";"1";"2";"1";"1";"2014-10-16 12:57:35.577";"2014-10-16 13:10:52.832";"1";"0";"1";"11";"10";"module.GoNoGopractice.exec-8752.GoNoGo_Practice";;;;;;;;;;;;;;;;;;;;;;;;;;;;;;;;;;;;;;;;;;;;;;;;;;;;;;;;;;;;;;;;;;;;;;;"1960";"2014-10-16 12:59:19.676";"34";"0";"FINISHED";"LEFT";"success";"308";"0";"2014-10-16 12:59:17.710";"3";;;;;;;;;;
"8320450";;;"Windows 7";"Rachel's Experiment (D.T.)";"1.0";"2";"1";"1";"2";"1";"1";"2014-10-16 12:57:35.577";"2014-10-16 13:10:52.832";"1";"0";"1";"12";"11";"module.GoNoGopractice.exec-8752.GoNoGo_Practice";;;;;;;;;;;;;;;;;;;;;;;;;;;;;;;;;;;;;;;;;;;;;;;;;;;;;;;;;;;;;;;;;;;;;;;"1959";"2014-10-16 12:59:22.921";"23";"1";"FINISHED";"RIGHT";"success";"294";"0";"2014-10-16 12:59:20.955";"3";;;;;;;;;;
"8320450";;;"Windows 7";"Rachel's Experiment (D.T.)";"1.0";"2";"1";"1";"2";"1";"1";"2014-10-16 12:57:35.577";"2014-10-16 13:10:52.832";"1";"0";"1";"13";"12";"module.GoNoGopractice.exec-8752.GoNoGo_Practice";;;;;;;;;;;;;;;;;;;;;;;;;;;;;;;;;;;;;;;;;;;;;;;;;;;;;;;;;;;;;;;;;;;;;;;"1959";"2014-10-16 12:59:26.181";"13";"0";"FINISHED";"LEFT";"success";"305";"0";"2014-10-16 12:59:24.216";"2";;;;;;;;;;
"8320450";;;"Windows 7";"Rachel's Experiment (D.T.)";"1.0";"2";"1";"1";"2";"1";"1";"2014-10-16 12:57:35.577";"2014-10-16 13:10:52.832";"1";"0";"1";"14";"13";"module.GoNoGopractice.exec-8752.GoNoGo_Practice";;;;;;;;;;;;;;;;;;;;;;;;;;;;;;;;;;;;;;;;;;;;;;;;;;;;;;;;;;;;;;;;;;;;;;;"1960";"2014-10-16 12:59:29.426";"3";"1";"FINISHED";"RIGHT";"success";"342";"0";"2014-10-16 12:59:27.460";"1";;;;;;;;;;
"8320450";;;"Windows 7";"Rachel's Experiment (D.T.)";"1.0";"2";"1";"1";"2";"1";"1";"2014-10-16 12:57:35.577";"2014-10-16 13:10:52.832";"1";"0";"1";"15";"14";"module.GoNoGopractice.exec-8752.GoNoGo_Practice";;;;;;;;;;;;;;;;;;;;;;;;;;;;;;;;;;;;;;;;;;;;;;;;;;;;;;;;;;;;;;;;;;;;;;;"1958";"2014-10-16 12:59:32.764";"27";"1";"FINISHED";"RIGHT";"success";"593";"0";"2014-10-16 12:59:30.799";"3";;;;;;;;;;
"8320450";;;"Windows 7";"Rachel's Experiment (D.T.)";"1.0";"2";"1";"1";"2";"1";"1";"2014-10-16 12:57:35.577";"2014-10-16 13:10:52.832";"1";"0";"1";"16";"15";"module.training_block1.exec-4076.GoNoGo1";;;;;;;;;;;;;;;;;;;;;;;"1257";"2014-10-16 12:59:40.705";"NST_correctLoc";"22";"0";"FINISHED";"LEFT";"success";"391";"0";"2014-10-16 12:59:39.441";"3";;;;;;;;;;;;;;;;;;;;;;;;;;;;;;;;;;;;;;;;;;;;;;;;;;;;;;;;;
"8320450";;;"Windows 7";"Rachel's Experiment (D.T.)";"1.0";"2";"1";"1";"2";"1";"1";"2014-10-16 12:57:35.577";"2014-10-16 13:10:52.832";"1";"0";"1";"17";"16";"module.training_block1.exec-4076.GoNoGo1";;;;;;;;;;;;;;;;;;;;;;;"1257";"2014-10-16 12:59:43.248";"NST_correctLoc";"6";"0";"FINISHED";"LEFT";"success";"337";"0";"2014-10-16 12:59:41.984";"1";;;;;;;;;;;;;;;;;;;;;;;;;;;;;;;;;;;;;;;;;;;;;;;;;;;;;;;;;
"8320450";;;"Windows 7";"Rachel's Experiment (D.T.)";"1.0";"2";"1";"1";"2";"1";"1";"2014-10-16 12:57:35.577";"2014-10-16 13:10:52.832";"1";"0";"1";"18";"17";"module.training_block1.exec-4076.GoNoGo1";;;;;;;;;;;;;;;;;;;;;;;"1257";"2014-10-16 12:59:45.790";"NST_correctLoc";"2";"0";"FINISHED";"LEFT";"success";"306";"0";"2014-10-16 12:59:44.527";"1";;;;;;;;;;;;;;;;;;;;;;;;;;;;;;;;;;;;;;;;;;;;;;;;;;;;;;;;;
"8320450";;;"Windows 7";"Rachel's Experiment (D.T.)";"1.0";"2";"1";"1";"2";"1";"1";"2014-10-16 12:57:35.577";"2014-10-16 13:10:52.832";"1";"0";"1";"19";"18";"module.training_block1.exec-4076.GoNoGo1";;;;;;;;;;;;;;;;;;;;;;;"1257";"2014-10-16 12:59:48.333";"NST_correctLoc";"21";"0";"FINISHED";"LEFT";"success";"395";"0";"2014-10-16 12:59:47.070";"3";;;;;;;;;;;;;;;;;;;;;;;;;;;;;;;;;;;;;;;;;;;;;;;;;;;;;;;;;
"8320450";;;"Windows 7";"Rachel's Experiment (D.T.)";"1.0";"2";"1";"1";"2";"1";"1";"2014-10-16 12:57:35.577";"2014-10-16 13:10:52.832";"1";"0";"1";"20";"19";"module.training_block1.exec-4076.GoNoGo1";;;;;;;;;;;;;;;;;;;;;;;"1258";"2014-10-16 12:59:50.876";"NST_correctLoc";"33";"0";"FINISHED";"LEFT";"success";"341";"0";"2014-10-16 12:59:49.612";"3";;;;;;;;;;;;;;;;;;;;;;;;;;;;;;;;;;;;;;;;;;;;;;;;;;;;;;;;;
"8320450";;;"Windows 7";"Rachel's Experiment (D.T.)";"1.0";"2";"1";"1";"2";"1";"1";"2014-10-16 12:57:35.577";"2014-10-16 13:10:52.832";"1";"0";"1";"21";"20";"module.training_block1.exec-4076.GoNoGo1";;;;;;;;;;;;;;;;;;;;;;;"1258";"2014-10-16 12:59:53.419";"NST_correctLoc";"5";"1";"FINISHED";"RIGHT";"success";"286";"0";"2014-10-16 12:59:52.155";"1";;;;;;;;;;;;;;;;;;;;;;;;;;;;;;;;;;;;;;;;;;;;;;;;;;;;;;;;;
"8320450";;;"Windows 7";"Rachel's Experiment (D.T.)";"1.0";"2";"1";"1";"2";"1";"1";"2014-10-16 12:57:35.577";"2014-10-16 13:10:52.832";"1";"0";"1";"22";"21";"module.training_block1.exec-4076.GoNoGo1";;;;;;;;;;;;;;;;;;;;;;;"1257";"2014-10-16 12:59:55.962";"NST_correctLoc";"8";"0";"FINISHED";"LEFT";"success";"327";"0";"2014-10-16 12:59:54.698";"1";;;;;;;;;;;;;;;;;;;;;;;;;;;;;;;;;;;;;;;;;;;;;;;;;;;;;;;;;
"8320450";;;"Windows 7";"Rachel's Experiment (D.T.)";"1.0";"2";"1";"1";"2";"1";"1";"2014-10-16 12:57:35.577";"2014-10-16 13:10:52.832";"1";"0";"1";"23";"22";"module.training_block1.exec-4076.GoNoGo1";;;;;;;;;;;;;;;;;;;;;;;"1258";"2014-10-16 12:59:58.505";"NST_correctLoc";"24";"0";"FINISHED";"LEFT";"success";"345";"0";"2014-10-16 12:59:57.241";"3";;;;;;;;;;;;;;;;;;;;;;;;;;;;;;;;;;;;;;;;;;;;;;;;;;;;;;;;;
"8320450";;;"Windows 7";"Rachel's Experiment (D.T.)";"1.0";"2";"1";"1";"2";"1";"1";"2014-10-16 12:57:35.577";"2014-10-16 13:10:52.832";"1";"0";"1";"24";"23";"module.training_block1.exec-4076.GoNoGo1";;;;;;;;;;;;;;;;;;;;;;;"1258";"2014-10-16 13:00:01.047";"NST_correctLoc";"25";"0";"FINISHED";"LEFT";"success";"314";"0";"2014-10-16 12:59:59.784";"3";;;;;;;;;;;;;;;;;;;;;;;;;;;;;;;;;;;;;;;;;;;;;;;;;;;;;;;;;
"8320450";;;"Windows 7";"Rachel's Experiment (D.T.)";"1.0";"2";"1";"1";"2";"1";"1";"2014-10-16 12:57:35.577";"2014-10-16 13:10:52.832";"1";"0";"1";"25";"24";"module.training_block1.exec-4076.GoNoGo1";;;;;;;;;;;;;;;;;;;;;;;"1257";"2014-10-16 13:00:03.590";"NST_correctLoc";"31";"1";"FINISHED";"RIGHT";"success";"291";"0";"2014-10-16 13:00:02.327";"3";;;;;;;;;;;;;;;;;;;;;;;;;;;;;;;;;;;;;;;;;;;;;;;;;;;;;;;;;
"8320450";;;"Windows 7";"Rachel's Experiment (D.T.)";"1.0";"2";"1";"1";"2";"1";"1";"2014-10-16 12:57:35.577";"2014-10-16 13:10:52.832";"1";"0";"1";"26";"25";"module.training_block1.exec-4076.GoNoGo1";;;;;;;;;;;;;;;;;;;;;;;"1256";"2014-10-16 13:00:06.133";"NST_correctLoc";"14";"1";"FINISHED";"RIGHT";"success";"331";"0";"2014-10-16 13:00:04.869";"2";;;;;;;;;;;;;;;;;;;;;;;;;;;;;;;;;;;;;;;;;;;;;;;;;;;;;;;;;
"8320450";;;"Windows 7";"Rachel's Experiment (D.T.)";"1.0";"2";"1";"1";"2";"1";"1";"2014-10-16 12:57:35.577";"2014-10-16 13:10:52.832";"1";"0";"1";"27";"26";"module.training_block1.exec-4076.GoNoGo1";;;;;;;;;;;;;;;;;;;;;;;"1257";"2014-10-16 13:00:08.676";"NST_correctLoc";"26";"1";"FINISHED";"RIGHT";"success";"277";"0";"2014-10-16 13:00:07.412";"3";;;;;;;;;;;;;;;;;;;;;;;;;;;;;;;;;;;;;;;;;;;;;;;;;;;;;;;;;
"8320450";;;"Windows 7";"Rachel's Experiment (D.T.)";"1.0";"2";"1";"1";"2";"1";"1";"2014-10-16 12:57:35.577";"2014-10-16 13:10:52.832";"1";"0";"1";"28";"27";"module.training_block1.exec-4076.GoNoGo1";;;;;;;;;;;;;;;;;;;;;;;"1258";"2014-10-16 13:00:11.219";"NST_correctLoc";"9";"1";"FINISHED";"RIGHT";"success";"326";"0";"2014-10-16 13:00:09.955";"2";;;;;;;;;;;;;;;;;;;;;;;;;;;;;;;;;;;;;;;;;;;;;;;;;;;;;;;;;
"8320450";;;"Windows 7";"Rachel's Experiment (D.T.)";"1.0";"2";"1";"1";"2";"1";"1";"2014-10-16 12:57:35.577";"2014-10-16 13:10:52.832";"1";"0";"1";"29";"28";"module.training_block1.exec-4076.GoNoGo1";;;;;;;;;;;;;;;;;;;;;;;"1258";"2014-10-16 13:00:13.761";"NST_correctLoc";"18";"0";"FINISHED";"LEFT";"success";"320";"0";"2014-10-16 13:00:12.498";"3";;;;;;;;;;;;;;;;;;;;;;;;;;;;;;;;;;;;;;;;;;;;;;;;;;;;;;;;;
"8320450";;;"Windows 7";"Rachel's Experiment (D.T.)";"1.0";"2";"1";"1";"2";"1";"1";"2014-10-16 12:57:35.577";"2014-10-16 13:10:52.832";"1";"0";"1";"30";"29";"module.training_block1.exec-4076.GoNoGo1";;;;;;;;;;;;;;;;;;;;;;;"1258";"2014-10-16 13:00:16.304";"NST_correctLoc";"30";"1";"FINISHED";"RIGHT";"success";"353";"0";"2014-10-16 13:00:15.041";"3";;;;;;;;;;;;;;;;;;;;;;;;;;;;;;;;;;;;;;;;;;;;;;;;;;;;;;;;;
"8320450";;;"Windows 7";"Rachel's Experiment (D.T.)";"1.0";"2";"1";"1";"2";"1";"1";"2014-10-16 12:57:35.577";"2014-10-16 13:10:52.832";"1";"0";"1";"31";"30";"module.training_block1.exec-4076.GoNoGo1";;;;;;;;;;;;;;;;;;;;;;;"1258";"2014-10-16 13:00:18.847";"NST_correctLoc";"29";"0";"FINISHED";"LEFT";"success";"330";"0";"2014-10-16 13:00:17.583";"3";;;;;;;;;;;;;;;;;;;;;;;;;;;;;;;;;;;;;;;;;;;;;;;;;;;;;;;;;
"8320450";;;"Windows 7";"Rachel's Experiment (D.T.)";"1.0";"2";"1";"1";"2";"1";"1";"2014-10-16 12:57:35.577";"2014-10-16 13:10:52.832";"1";"0";"1";"32";"31";"module.training_block1.exec-4076.GoNoGo1";;;;;;;;;;;;;;;;;;;;;;;"1258";"2014-10-16 13:00:21.390";"NST_correctLoc";"12";"1";"FINISHED";"RIGHT";"success";"475";"0";"2014-10-16 13:00:20.126";"2";;;;;;;;;;;;;;;;;;;;;;;;;;;;;;;;;;;;;;;;;;;;;;;;;;;;;;;;;
"8320450";;;"Windows 7";"Rachel's Experiment (D.T.)";"1.0";"2";"1";"1";"2";"1";"1";"2014-10-16 12:57:35.577";"2014-10-16 13:10:52.832";"1";"0";"1";"33";"32";"module.training_block1.exec-4076.GoNoGo1";;;;;;;;;;;;;;;;;;;;;;;"1258";"2014-10-16 13:00:23.933";"NST_correctLoc";"16";"1";"FINISHED";"RIGHT";"success";"500";"0";"2014-10-16 13:00:22.669";"2";;;;;;;;;;;;;;;;;;;;;;;;;;;;;;;;;;;;;;;;;;;;;;;;;;;;;;;;;
"8320450";;;"Windows 7";"Rachel's Experiment (D.T.)";"1.0";"2";"1";"1";"2";"1";"1";"2014-10-16 12:57:35.577";"2014-10-16 13:10:52.832";"1";"0";"1";"34";"33";"module.training_block1.exec-4076.GoNoGo1";;;;;;;;;;;;;;;;;;;;;;;"1258";"2014-10-16 13:00:26.475";"NST_correctLoc";"34";"0";"FINISHED";"LEFT";"success";"342";"0";"2014-10-16 13:00:25.212";"3";;;;;;;;;;;;;;;;;;;;;;;;;;;;;;;;;;;;;;;;;;;;;;;;;;;;;;;;;
"8320450";;;"Windows 7";"Rachel's Experiment (D.T.)";"1.0";"2";"1";"1";"2";"1";"1";"2014-10-16 12:57:35.577";"2014-10-16 13:10:52.832";"1";"0";"1";"35";"34";"module.training_block1.exec-4076.GoNoGo1";;;;;;;;;;;;;;;;;;;;;;;"1257";"2014-10-16 13:00:29.018";"NST_correctLoc";"23";"1";"FINISHED";"RIGHT";"success";"310";"0";"2014-10-16 13:00:27.755";"3";;;;;;;;;;;;;;;;;;;;;;;;;;;;;;;;;;;;;;;;;;;;;;;;;;;;;;;;;
"8320450";;;"Windows 7";"Rachel's Experiment (D.T.)";"1.0";"2";"1";"1";"2";"1";"1";"2014-10-16 12:57:35.577";"2014-10-16 13:10:52.832";"1";"0";"1";"36";"35";"module.training_block1.exec-4076.GoNoGo1";;;;;;;;;;;;;;;;;;;;;;;"1256";"2014-10-16 13:00:31.561";"NST_correctLoc";"4";"1";"FINISHED";"RIGHT";"success";"286";"0";"2014-10-16 13:00:30.297";"1";;;;;;;;;;;;;;;;;;;;;;;;;;;;;;;;;;;;;;;;;;;;;;;;;;;;;;;;;
"8320450";;;"Windows 7";"Rachel's Experiment (D.T.)";"1.0";"2";"1";"1";"2";"1";"1";"2014-10-16 12:57:35.577";"2014-10-16 13:10:52.832";"1";"0";"1";"37";"36";"module.training_block1.exec-4076.GoNoGo1";;;;;;;;;;;;;;;;;;;;;;;"1257";"2014-10-16 13:00:34.104";"NST_correctLoc";"7";"1";"FINISHED";"RIGHT";"success";"329";"0";"2014-10-16 13:00:32.840";"1";;;;;;;;;;;;;;;;;;;;;;;;;;;;;;;;;;;;;;;;;;;;;;;;;;;;;;;;;
"8320450";;;"Windows 7";"Rachel's Experiment (D.T.)";"1.0";"2";"1";"1";"2";"1";"1";"2014-10-16 12:57:35.577";"2014-10-16 13:10:52.832";"1";"0";"1";"38";"37";"module.training_block1.exec-4076.GoNoGo1";;;;;;;;;;;;;;;;;;;;;;;"1257";"2014-10-16 13:00:36.647";"NST_correctLoc";"1";"0";"FINISHED";"LEFT";"success";"314";"0";"2014-10-16 13:00:35.383";"1";;;;;;;;;;;;;;;;;;;;;;;;;;;;;;;;;;;;;;;;;;;;;;;;;;;;;;;;;
"8320450";;;"Windows 7";"Rachel's Experiment (D.T.)";"1.0";"2";"1";"1";"2";"1";"1";"2014-10-16 12:57:35.577";"2014-10-16 13:10:52.832";"1";"0";"1";"39";"38";"module.training_block1.exec-4076.GoNoGo1";;;;;;;;;;;;;;;;;;;;;;;"1257";"2014-10-16 13:00:39.189";"NST_correctLoc";"17";"1";"FINISHED";"RIGHT";"success";"299";"0";"2014-10-16 13:00:37.926";"2";;;;;;;;;;;;;;;;;;;;;;;;;;;;;;;;;;;;;;;;;;;;;;;;;;;;;;;;;
"8320450";;;"Windows 7";"Rachel's Experiment (D.T.)";"1.0";"2";"1";"1";"2";"1";"1";"2014-10-16 12:57:35.577";"2014-10-16 13:10:52.832";"1";"0";"1";"40";"39";"module.training_block1.exec-4076.GoNoGo1";;;;;;;;;;;;;;;;;;;;;;;"1258";"2014-10-16 13:00:41.732";"NST_correctLoc";"3";"1";"FINISHED";"RIGHT";"success";"309";"0";"2014-10-16 13:00:40.469";"1";;;;;;;;;;;;;;;;;;;;;;;;;;;;;;;;;;;;;;;;;;;;;;;;;;;;;;;;;
"8320450";;;"Windows 7";"Rachel's Experiment (D.T.)";"1.0";"2";"1";"1";"2";"1";"1";"2014-10-16 12:57:35.577";"2014-10-16 13:10:52.832";"1";"0";"1";"41";"40";"module.training_block1.exec-4076.GoNoGo1";;;;;;;;;;;;;;;;;;;;;;;"1258";"2014-10-16 13:00:44.275";"NST_correctLoc";"28";"0";"FINISHED";"LEFT";"success";"302";"0";"2014-10-16 13:00:43.011";"3";;;;;;;;;;;;;;;;;;;;;;;;;;;;;;;;;;;;;;;;;;;;;;;;;;;;;;;;;
"8320450";;;"Windows 7";"Rachel's Experiment (D.T.)";"1.0";"2";"1";"1";"2";"1";"1";"2014-10-16 12:57:35.577";"2014-10-16 13:10:52.832";"1";"0";"1";"42";"41";"module.training_block1.exec-4076.GoNoGo1";;;;;;;;;;;;;;;;;;;;;;;"1258";"2014-10-16 13:00:46.818";"NST_correctLoc";"35";"0";"FINISHED";"LEFT";"success";"327";"0";"2014-10-16 13:00:45.554";"3";;;;;;;;;;;;;;;;;;;;;;;;;;;;;;;;;;;;;;;;;;;;;;;;;;;;;;;;;
"8320450";;;"Windows 7";"Rachel's Experiment (D.T.)";"1.0";"2";"1";"1";"2";"1";"1";"2014-10-16 12:57:35.577";"2014-10-16 13:10:52.832";"1";"0";"1";"43";"42";"module.training_block1.exec-4076.GoNoGo1";;;;;;;;;;;;;;;;;;;;;;;"1261";"2014-10-16 13:00:49.361";"NST_correctLoc";"27";"0";"FINISHED";"LEFT";"success";"308";"0";"2014-10-16 13:00:48.097";"3";;;;;;;;;;;;;;;;;;;;;;;;;;;;;;;;;;;;;;;;;;;;;;;;;;;;;;;;;
"8320450";;;"Windows 7";"Rachel's Experiment (D.T.)";"1.0";"2";"1";"1";"2";"1";"1";"2014-10-16 12:57:35.577";"2014-10-16 13:10:52.832";"1";"0";"1";"44";"43";"module.training_block1.exec-4076.GoNoGo1";;;;;;;;;;;;;;;;;;;;;;;"1252";"2014-10-16 13:00:51.903";"NST_correctLoc";"19";"0";"FINISHED";"LEFT";"success";"276";"0";"2014-10-16 13:00:50.640";"3";;;;;;;;;;;;;;;;;;;;;;;;;;;;;;;;;;;;;;;;;;;;;;;;;;;;;;;;;
"8320450";;;"Windows 7";"Rachel's Experiment (D.T.)";"1.0";"2";"1";"1";"2";"1";"1";"2014-10-16 12:57:35.577";"2014-10-16 13:10:52.832";"1";"0";"1";"45";"44";"module.training_block1.exec-4076.GoNoGo1";;;;;;;;;;;;;;;;;;;;;;;"1258";"2014-10-16 13:00:54.446";"NST_correctLoc";"20";"0";"FINISHED";"LEFT";"success";"363";"0";"2014-10-16 13:00:53.183";"3";;;;;;;;;;;;;;;;;;;;;;;;;;;;;;;;;;;;;;;;;;;;;;;;;;;;;;;;;
"8320450";;;"Windows 7";"Rachel's Experiment (D.T.)";"1.0";"2";"1";"1";"2";"1";"1";"2014-10-16 12:57:35.577";"2014-10-16 13:10:52.832";"1";"0";"1";"46";"45";"module.training_block1.exec-4076.GoNoGo1";;;;;;;;;;;;;;;;;;;;;;;"1258";"2014-10-16 13:00:56.989";"NST_correctLoc";"11";"0";"FINISHED";"LEFT";"success";"283";"0";"2014-10-16 13:00:55.725";"2";;;;;;;;;;;;;;;;;;;;;;;;;;;;;;;;;;;;;;;;;;;;;;;;;;;;;;;;;
"8320450";;;"Windows 7";"Rachel's Experiment (D.T.)";"1.0";"2";"1";"1";"2";"1";"1";"2014-10-16 12:57:35.577";"2014-10-16 13:10:52.832";"1";"0";"1";"47";"46";"module.training_block1.exec-4076.GoNoGo1";;;;;;;;;;;;;;;;;;;;;;;"1257";"2014-10-16 13:00:59.532";"NST_correctLoc";"10";"1";"FINISHED";"RIGHT";"success";"301";"0";"2014-10-16 13:00:58.268";"2";;;;;;;;;;;;;;;;;;;;;;;;;;;;;;;;;;;;;;;;;;;;;;;;;;;;;;;;;
"8320450";;;"Windows 7";"Rachel's Experiment (D.T.)";"1.0";"2";"1";"1";"2";"1";"1";"2014-10-16 12:57:35.577";"2014-10-16 13:10:52.832";"1";"0";"1";"48";"47";"module.training_block1.exec-4076.GoNoGo1";;;;;;;;;;;;;;;;;;;;;;;"1257";"2014-10-16 13:01:02.075";"NST_correctLoc";"32";"1";"FINISHED";"RIGHT";"success";"326";"0";"2014-10-16 13:01:00.811";"3";;;;;;;;;;;;;;;;;;;;;;;;;;;;;;;;;;;;;;;;;;;;;;;;;;;;;;;;;
"8320450";;;"Windows 7";"Rachel's Experiment (D.T.)";"1.0";"2";"1";"1";"2";"1";"1";"2014-10-16 12:57:35.577";"2014-10-16 13:10:52.832";"1";"0";"1";"49";"48";"module.training_block1.exec-4076.GoNoGo1";;;;;;;;;;;;;;;;;;;;;;;"1257";"2014-10-16 13:01:04.617";"NST_correctLoc";"13";"1";"FINISHED";"RIGHT";"success";"303";"0";"2014-10-16 13:01:03.354";"2";;;;;;;;;;;;;;;;;;;;;;;;;;;;;;;;;;;;;;;;;;;;;;;;;;;;;;;;;
"8320450";;;"Windows 7";"Rachel's Experiment (D.T.)";"1.0";"2";"1";"1";"2";"1";"1";"2014-10-16 12:57:35.577";"2014-10-16 13:10:52.832";"1";"0";"1";"50";"49";"module.training_block1.exec-4076.GoNoGo1";;;;;;;;;;;;;;;;;;;;;;;"1256";"2014-10-16 13:01:07.160";"NST_correctLoc";"15";"0";"FINISHED";"LEFT";"success";"375";"0";"2014-10-16 13:01:05.897";"2";;;;;;;;;;;;;;;;;;;;;;;;;;;;;;;;;;;;;;;;;;;;;;;;;;;;;;;;;
"8320450";;;"Windows 7";"Rachel's Experiment (D.T.)";"1.0";"2";"1";"1";"2";"1";"1";"2014-10-16 12:57:35.577";"2014-10-16 13:10:52.832";"1";"0";"1";"51";"50";"module.training_block1.exec-4076.GoNoGo1";;;;;;;;;;;;;;;;;;;;;;;"1258";"2014-10-16 13:01:09.703";"NST_correctLoc";"0";"1";"FINISHED";"RIGHT";"success";"289";"0";"2014-10-16 13:01:08.439";"1";;;;;;;;;;;;;;;;;;;;;;;;;;;;;;;;;;;;;;;;;;;;;;;;;;;;;;;;;
"8320450";;;"Windows 7";"Rachel's Experiment (D.T.)";"1.0";"2";"1";"1";"2";"1";"1";"2014-10-16 12:57:35.577";"2014-10-16 13:10:52.832";"1";"0";"1";"52";"51";"module.training_block2.exec-8095.GoNoGo2";;;;;;;;;;;;;;;;;;;;;;;;;;;;;;;;;;;"1261";"2014-10-16 13:01:20.919";"NST_correctLoc";"30";"0";"FINISHED";"LEFT";"success";"293";"0";"2014-10-16 13:01:19.656";"3";;;;;;;;;;;;;;;;;;;;;;;;;;;;;;;;;;;;;;;;;;;;;
"8320450";;;"Windows 7";"Rachel's Experiment (D.T.)";"1.0";"2";"1";"1";"2";"1";"1";"2014-10-16 12:57:35.577";"2014-10-16 13:10:52.832";"1";"0";"1";"53";"52";"module.training_block2.exec-8095.GoNoGo2";;;;;;;;;;;;;;;;;;;;;;;;;;;;;;;;;;;"1261";"2014-10-16 13:01:23.462";"NST_correctLoc";"14";"0";"FINISHED";"LEFT";"success";"278";"0";"2014-10-16 13:01:22.199";"2";;;;;;;;;;;;;;;;;;;;;;;;;;;;;;;;;;;;;;;;;;;;;
"8320450";;;"Windows 7";"Rachel's Experiment (D.T.)";"1.0";"2";"1";"1";"2";"1";"1";"2014-10-16 12:57:35.577";"2014-10-16 13:10:52.832";"1";"0";"1";"54";"53";"module.training_block2.exec-8095.GoNoGo2";;;;;;;;;;;;;;;;;;;;;;;;;;;;;;;;;;;"1261";"2014-10-16 13:01:26.005";"NST_correctLoc";"29";"0";"FINISHED";"LEFT";"success";"271";"0";"2014-10-16 13:01:24.741";"3";;;;;;;;;;;;;;;;;;;;;;;;;;;;;;;;;;;;;;;;;;;;;
"8320450";;;"Windows 7";"Rachel's Experiment (D.T.)";"1.0";"2";"1";"1";"2";"1";"1";"2014-10-16 12:57:35.577";"2014-10-16 13:10:52.832";"1";"0";"1";"55";"54";"module.training_block2.exec-8095.GoNoGo2";;;;;;;;;;;;;;;;;;;;;;;;;;;;;;;;;;;"1261";"2014-10-16 13:01:28.548";"NST_correctLoc";"16";"0";"FINISHED";"LEFT";"success";"336";"0";"2014-10-16 13:01:27.284";"2";;;;;;;;;;;;;;;;;;;;;;;;;;;;;;;;;;;;;;;;;;;;;
"8320450";;;"Windows 7";"Rachel's Experiment (D.T.)";"1.0";"2";"1";"1";"2";"1";"1";"2014-10-16 12:57:35.577";"2014-10-16 13:10:52.832";"1";"0";"1";"56";"55";"module.training_block2.exec-8095.GoNoGo2";;;;;;;;;;;;;;;;;;;;;;;;;;;;;;;;;;;"1261";"2014-10-16 13:01:31.091";"NST_correctLoc";"6";"0";"FINISHED";"LEFT";"success";"313";"0";"2014-10-16 13:01:29.827";"1";;;;;;;;;;;;;;;;;;;;;;;;;;;;;;;;;;;;;;;;;;;;;
"8320450";;;"Windows 7";"Rachel's Experiment (D.T.)";"1.0";"2";"1";"1";"2";"1";"1";"2014-10-16 12:57:35.577";"2014-10-16 13:10:52.832";"1";"0";"1";"57";"56";"module.training_block2.exec-8095.GoNoGo2";;;;;;;;;;;;;;;;;;;;;;;;;;;;;;;;;;;"1261";"2014-10-16 13:01:33.633";"NST_correctLoc";"7";"1";"FINISHED";"RIGHT";"success";"314";"0";"2014-10-16 13:01:32.370";"1";;;;;;;;;;;;;;;;;;;;;;;;;;;;;;;;;;;;;;;;;;;;;
"8320450";;;"Windows 7";"Rachel's Experiment (D.T.)";"1.0";"2";"1";"1";"2";"1";"1";"2014-10-16 12:57:35.577";"2014-10-16 13:10:52.832";"1";"0";"1";"58";"57";"module.training_block2.exec-8095.GoNoGo2";;;;;;;;;;;;;;;;;;;;;;;;;;;;;;;;;;;"1261";"2014-10-16 13:01:36.192";"NST_correctLoc";"4";"0";"FINISHED";"LEFT";"success";"316";"0";"2014-10-16 13:01:34.928";"1";;;;;;;;;;;;;;;;;;;;;;;;;;;;;;;;;;;;;;;;;;;;;
"8320450";;;"Windows 7";"Rachel's Experiment (D.T.)";"1.0";"2";"1";"1";"2";"1";"1";"2014-10-16 12:57:35.577";"2014-10-16 13:10:52.832";"1";"0";"1";"59";"58";"module.training_block2.exec-8095.GoNoGo2";;;;;;;;;;;;;;;;;;;;;;;;;;;;;;;;;;;"1261";"2014-10-16 13:01:38.735";"NST_correctLoc";"27";"0";"FINISHED";"LEFT";"success";"325";"0";"2014-10-16 13:01:37.471";"3";;;;;;;;;;;;;;;;;;;;;;;;;;;;;;;;;;;;;;;;;;;;;
"8320450";;;"Windows 7";"Rachel's Experiment (D.T.)";"1.0";"2";"1";"1";"2";"1";"1";"2014-10-16 12:57:35.577";"2014-10-16 13:10:52.832";"1";"0";"1";"60";"59";"module.training_block2.exec-8095.GoNoGo2";;;;;;;;;;;;;;;;;;;;;;;;;;;;;;;;;;;"1261";"2014-10-16 13:01:41.277";"NST_correctLoc";"10";"1";"FINISHED";"RIGHT";"success";"278";"0";"2014-10-16 13:01:40.014";"2";;;;;;;;;;;;;;;;;;;;;;;;;;;;;;;;;;;;;;;;;;;;;
"8320450";;;"Windows 7";"Rachel's Experiment (D.T.)";"1.0";"2";"1";"1";"2";"1";"1";"2014-10-16 12:57:35.577";"2014-10-16 13:10:52.832";"1";"0";"1";"61";"60";"module.training_block2.exec-8095.GoNoGo2";;;;;;;;;;;;;;;;;;;;;;;;;;;;;;;;;;;"1261";"2014-10-16 13:01:43.820";"NST_correctLoc";"23";"0";"FINISHED";"LEFT";"success";"312";"0";"2014-10-16 13:01:42.557";"3";;;;;;;;;;;;;;;;;;;;;;;;;;;;;;;;;;;;;;;;;;;;;
"8320450";;;"Windows 7";"Rachel's Experiment (D.T.)";"1.0";"2";"1";"1";"2";"1";"1";"2014-10-16 12:57:35.577";"2014-10-16 13:10:52.832";"1";"0";"1";"62";"61";"module.training_block2.exec-8095.GoNoGo2";;;;;;;;;;;;;;;;;;;;;;;;;;;;;;;;;;;"1261";"2014-10-16 13:01:46.363";"NST_correctLoc";"24";"0";"FINISHED";"LEFT";"success";"369";"0";"2014-10-16 13:01:45.099";"3";;;;;;;;;;;;;;;;;;;;;;;;;;;;;;;;;;;;;;;;;;;;;
"8320450";;;"Windows 7";"Rachel's Experiment (D.T.)";"1.0";"2";"1";"1";"2";"1";"1";"2014-10-16 12:57:35.577";"2014-10-16 13:10:52.832";"1";"0";"1";"63";"62";"module.training_block2.exec-8095.GoNoGo2";;;;;;;;;;;;;;;;;;;;;;;;;;;;;;;;;;;"1261";"2014-10-16 13:01:48.906";"NST_correctLoc";"18";"0";"FINISHED";"LEFT";"success";"330";"0";"2014-10-16 13:01:47.642";"3";;;;;;;;;;;;;;;;;;;;;;;;;;;;;;;;;;;;;;;;;;;;;
"8320450";;;"Windows 7";"Rachel's Experiment (D.T.)";"1.0";"2";"1";"1";"2";"1";"1";"2014-10-16 12:57:35.577";"2014-10-16 13:10:52.832";"1";"0";"1";"64";"63";"module.training_block2.exec-8095.GoNoGo2";;;;;;;;;;;;;;;;;;;;;;;;;;;;;;;;;;;"1261";"2014-10-16 13:01:51.449";"NST_correctLoc";"33";"0";"FINISHED";"LEFT";"success";"299";"0";"2014-10-16 13:01:50.185";"3";;;;;;;;;;;;;;;;;;;;;;;;;;;;;;;;;;;;;;;;;;;;;
"8320450";;;"Windows 7";"Rachel's Experiment (D.T.)";"1.0";"2";"1";"1";"2";"1";"1";"2014-10-16 12:57:35.577";"2014-10-16 13:10:52.832";"1";"0";"1";"65";"64";"module.training_block2.exec-8095.GoNoGo2";;;;;;;;;;;;;;;;;;;;;;;;;;;;;;;;;;;"1261";"2014-10-16 13:01:53.992";"NST_correctLoc";"8";"1";"FINISHED";"RIGHT";"success";"284";"0";"2014-10-16 13:01:52.728";"1";;;;;;;;;;;;;;;;;;;;;;;;;;;;;;;;;;;;;;;;;;;;;
"8320450";;;"Windows 7";"Rachel's Experiment (D.T.)";"1.0";"2";"1";"1";"2";"1";"1";"2014-10-16 12:57:35.577";"2014-10-16 13:10:52.832";"1";"0";"1";"66";"65";"module.training_block2.exec-8095.GoNoGo2";;;;;;;;;;;;;;;;;;;;;;;;;;;;;;;;;;;"1261";"2014-10-16 13:01:56.534";"NST_correctLoc";"32";"1";"FINISHED";"RIGHT";"success";"341";"0";"2014-10-16 13:01:55.271";"3";;;;;;;;;;;;;;;;;;;;;;;;;;;;;;;;;;;;;;;;;;;;;
"8320450";;;"Windows 7";"Rachel's Experiment (D.T.)";"1.0";"2";"1";"1";"2";"1";"1";"2014-10-16 12:57:35.577";"2014-10-16 13:10:52.832";"1";"0";"1";"67";"66";"module.training_block2.exec-8095.GoNoGo2";;;;;;;;;;;;;;;;;;;;;;;;;;;;;;;;;;;"1261";"2014-10-16 13:01:59.077";"NST_correctLoc";"11";"1";"FINISHED";"RIGHT";"success";"367";"0";"2014-10-16 13:01:57.814";"2";;;;;;;;;;;;;;;;;;;;;;;;;;;;;;;;;;;;;;;;;;;;;
"8320450";;;"Windows 7";"Rachel's Experiment (D.T.)";"1.0";"2";"1";"1";"2";"1";"1";"2014-10-16 12:57:35.577";"2014-10-16 13:10:52.832";"1";"0";"1";"68";"67";"module.training_block2.exec-8095.GoNoGo2";;;;;;;;;;;;;;;;;;;;;;;;;;;;;;;;;;;"1261";"2014-10-16 13:02:01.620";"NST_correctLoc";"17";"0";"FINISHED";"LEFT";"success";"304";"0";"2014-10-16 13:02:00.356";"2";;;;;;;;;;;;;;;;;;;;;;;;;;;;;;;;;;;;;;;;;;;;;
"8320450";;;"Windows 7";"Rachel's Experiment (D.T.)";"1.0";"2";"1";"1";"2";"1";"1";"2014-10-16 12:57:35.577";"2014-10-16 13:10:52.832";"1";"0";"1";"69";"68";"module.training_block2.exec-8095.GoNoGo2";;;;;;;;;;;;;;;;;;;;;;;;;;;;;;;;;;;"1261";"2014-10-16 13:02:04.163";"NST_correctLoc";"22";"1";"FINISHED";"RIGHT";"success";"297";"0";"2014-10-16 13:02:02.899";"3";;;;;;;;;;;;;;;;;;;;;;;;;;;;;;;;;;;;;;;;;;;;;
"8320450";;;"Windows 7";"Rachel's Experiment (D.T.)";"1.0";"2";"1";"1";"2";"1";"1";"2014-10-16 12:57:35.577";"2014-10-16 13:10:52.832";"1";"0";"1";"70";"69";"module.training_block2.exec-8095.GoNoGo2";;;;;;;;;;;;;;;;;;;;;;;;;;;;;;;;;;;"1261";"2014-10-16 13:02:06.706";"NST_correctLoc";"25";"1";"FINISHED";"RIGHT";"success";"362";"0";"2014-10-16 13:02:05.442";"3";;;;;;;;;;;;;;;;;;;;;;;;;;;;;;;;;;;;;;;;;;;;;
"8320450";;;"Windows 7";"Rachel's Experiment (D.T.)";"1.0";"2";"1";"1";"2";"1";"1";"2014-10-16 12:57:35.577";"2014-10-16 13:10:52.832";"1";"0";"1";"71";"70";"module.training_block2.exec-8095.GoNoGo2";;;;;;;;;;;;;;;;;;;;;;;;;;;;;;;;;;;"1261";"2014-10-16 13:02:09.248";"NST_correctLoc";"0";"0";"FINISHED";"LEFT";"success";"275";"0";"2014-10-16 13:02:07.985";"1";;;;;;;;;;;;;;;;;;;;;;;;;;;;;;;;;;;;;;;;;;;;;
"8320450";;;"Windows 7";"Rachel's Experiment (D.T.)";"1.0";"2";"1";"1";"2";"1";"1";"2014-10-16 12:57:35.577";"2014-10-16 13:10:52.832";"1";"0";"1";"72";"71";"module.training_block2.exec-8095.GoNoGo2";;;;;;;;;;;;;;;;;;;;;;;;;;;;;;;;;;;"1261";"2014-10-16 13:02:11.791";"NST_correctLoc";"3";"1";"FINISHED";"RIGHT";"success";"325";"0";"2014-10-16 13:02:10.528";"1";;;;;;;;;;;;;;;;;;;;;;;;;;;;;;;;;;;;;;;;;;;;;
"8320450";;;"Windows 7";"Rachel's Experiment (D.T.)";"1.0";"2";"1";"1";"2";"1";"1";"2014-10-16 12:57:35.577";"2014-10-16 13:10:52.832";"1";"0";"1";"73";"72";"module.training_block2.exec-8095.GoNoGo2";;;;;;;;;;;;;;;;;;;;;;;;;;;;;;;;;;;"1261";"2014-10-16 13:02:14.334";"NST_correctLoc";"12";"1";"FINISHED";"RIGHT";"success";"350";"0";"2014-10-16 13:02:13.070";"2";;;;;;;;;;;;;;;;;;;;;;;;;;;;;;;;;;;;;;;;;;;;;
"8320450";;;"Windows 7";"Rachel's Experiment (D.T.)";"1.0";"2";"1";"1";"2";"1";"1";"2014-10-16 12:57:35.577";"2014-10-16 13:10:52.832";"1";"0";"1";"74";"73";"module.training_block2.exec-8095.GoNoGo2";;;;;;;;;;;;;;;;;;;;;;;;;;;;;;;;;;;"1261";"2014-10-16 13:02:16.877";"NST_correctLoc";"35";"0";"FINISHED";"LEFT";"success";"271";"0";"2014-10-16 13:02:15.613";"3";;;;;;;;;;;;;;;;;;;;;;;;;;;;;;;;;;;;;;;;;;;;;
"8320450";;;"Windows 7";"Rachel's Experiment (D.T.)";"1.0";"2";"1";"1";"2";"1";"1";"2014-10-16 12:57:35.577";"2014-10-16 13:10:52.832";"1";"0";"1";"75";"74";"module.training_block2.exec-8095.GoNoGo2";;;;;;;;;;;;;;;;;;;;;;;;;;;;;;;;;;;"1261";"2014-10-16 13:02:19.420";"NST_correctLoc";"2";"1";"FINISHED";"RIGHT";"success";"312";"0";"2014-10-16 13:02:18.156";"1";;;;;;;;;;;;;;;;;;;;;;;;;;;;;;;;;;;;;;;;;;;;;
"8320450";;;"Windows 7";"Rachel's Experiment (D.T.)";"1.0";"2";"1";"1";"2";"1";"1";"2014-10-16 12:57:35.577";"2014-10-16 13:10:52.832";"1";"0";"1";"76";"75";"module.training_block2.exec-8095.GoNoGo2";;;;;;;;;;;;;;;;;;;;;;;;;;;;;;;;;;;"1261";"2014-10-16 13:02:21.962";"NST_correctLoc";"5";"0";"FINISHED";"LEFT";"success";"289";"0";"2014-10-16 13:02:20.699";"1";;;;;;;;;;;;;;;;;;;;;;;;;;;;;;;;;;;;;;;;;;;;;
"8320450";;;"Windows 7";"Rachel's Experiment (D.T.)";"1.0";"2";"1";"1";"2";"1";"1";"2014-10-16 12:57:35.577";"2014-10-16 13:10:52.832";"1";"0";"1";"77";"76";"module.training_block2.exec-8095.GoNoGo2";;;;;;;;;;;;;;;;;;;;;;;;;;;;;;;;;;;"1261";"2014-10-16 13:02:24.505";"NST_correctLoc";"19";"0";"FINISHED";"LEFT";"success";"299";"0";"2014-10-16 13:02:23.242";"3";;;;;;;;;;;;;;;;;;;;;;;;;;;;;;;;;;;;;;;;;;;;;
"8320450";;;"Windows 7";"Rachel's Experiment (D.T.)";"1.0";"2";"1";"1";"2";"1";"1";"2014-10-16 12:57:35.577";"2014-10-16 13:10:52.832";"1";"0";"1";"78";"77";"module.training_block2.exec-8095.GoNoGo2";;;;;;;;;;;;;;;;;;;;;;;;;;;;;;;;;;;"1261";"2014-10-16 13:02:27.048";"NST_correctLoc";"20";"1";"FINISHED";"RIGHT";"success";"340";"0";"2014-10-16 13:02:25.784";"3";;;;;;;;;;;;;;;;;;;;;;;;;;;;;;;;;;;;;;;;;;;;;
"8320450";;;"Windows 7";"Rachel's Experiment (D.T.)";"1.0";"2";"1";"1";"2";"1";"1";"2014-10-16 12:57:35.577";"2014-10-16 13:10:52.832";"1";"0";"1";"79";"78";"module.training_block2.exec-8095.GoNoGo2";;;;;;;;;;;;;;;;;;;;;;;;;;;;;;;;;;;"1261";"2014-10-16 13:02:29.591";"NST_correctLoc";"26";"1";"FINISHED";"RIGHT";"success";"421";"0";"2014-10-16 13:02:28.327";"3";;;;;;;;;;;;;;;;;;;;;;;;;;;;;;;;;;;;;;;;;;;;;
"8320450";;;"Windows 7";"Rachel's Experiment (D.T.)";"1.0";"2";"1";"1";"2";"1";"1";"2014-10-16 12:57:35.577";"2014-10-16 13:10:52.832";"1";"0";"1";"80";"79";"module.training_block2.exec-8095.GoNoGo2";;;;;;;;;;;;;;;;;;;;;;;;;;;;;;;;;;;"1261";"2014-10-16 13:02:32.149";"NST_correctLoc";"28";"0";"FINISHED";"LEFT";"success";"486";"0";"2014-10-16 13:02:30.886";"3";;;;;;;;;;;;;;;;;;;;;;;;;;;;;;;;;;;;;;;;;;;;;
"8320450";;;"Windows 7";"Rachel's Experiment (D.T.)";"1.0";"2";"1";"1";"2";"1";"1";"2014-10-16 12:57:35.577";"2014-10-16 13:10:52.832";"1";"0";"1";"81";"80";"module.training_block2.exec-8095.GoNoGo2";;;;;;;;;;;;;;;;;;;;;;;;;;;;;;;;;;;"1261";"2014-10-16 13:02:34.692";"NST_correctLoc";"1";"1";"FINISHED";"RIGHT";"success";"320";"0";"2014-10-16 13:02:33.428";"1";;;;;;;;;;;;;;;;;;;;;;;;;;;;;;;;;;;;;;;;;;;;;
"8320450";;;"Windows 7";"Rachel's Experiment (D.T.)";"1.0";"2";"1";"1";"2";"1";"1";"2014-10-16 12:57:35.577";"2014-10-16 13:10:52.832";"1";"0";"1";"82";"81";"module.training_block2.exec-8095.GoNoGo2";;;;;;;;;;;;;;;;;;;;;;;;;;;;;;;;;;;"1261";"2014-10-16 13:02:37.235";"NST_correctLoc";"13";"1";"FINISHED";"RIGHT";"success";"361";"0";"2014-10-16 13:02:35.971";"2";;;;;;;;;;;;;;;;;;;;;;;;;;;;;;;;;;;;;;;;;;;;;
"8320450";;;"Windows 7";"Rachel's Experiment (D.T.)";"1.0";"2";"1";"1";"2";"1";"1";"2014-10-16 12:57:35.577";"2014-10-16 13:10:52.832";"1";"0";"1";"83";"82";"module.training_block2.exec-8095.GoNoGo2";;;;;;;;;;;;;;;;;;;;;;;;;;;;;;;;;;;"1261";"2014-10-16 13:02:39.778";"NST_correctLoc";"31";"0";"FINISHED";"LEFT";"success";"314";"0";"2014-10-16 13:02:38.514";"3";;;;;;;;;;;;;;;;;;;;;;;;;;;;;;;;;;;;;;;;;;;;;
"8320450";;;"Windows 7";"Rachel's Experiment (D.T.)";"1.0";"2";"1";"1";"2";"1";"1";"2014-10-16 12:57:35.577";"2014-10-16 13:10:52.832";"1";"0";"1";"84";"83";"module.training_block2.exec-8095.GoNoGo2";;;;;;;;;;;;;;;;;;;;;;;;;;;;;;;;;;;"1261";"2014-10-16 13:02:42.320";"NST_correctLoc";"9";"1";"FINISHED";"RIGHT";"success";"283";"0";"2014-10-16 13:02:41.057";"2";;;;;;;;;;;;;;;;;;;;;;;;;;;;;;;;;;;;;;;;;;;;;
"8320450";;;"Windows 7";"Rachel's Experiment (D.T.)";"1.0";"2";"1";"1";"2";"1";"1";"2014-10-16 12:57:35.577";"2014-10-16 13:10:52.832";"1";"0";"1";"85";"84";"module.training_block2.exec-8095.GoNoGo2";;;;;;;;;;;;;;;;;;;;;;;;;;;;;;;;;;;"1261";"2014-10-16 13:02:44.863";"NST_correctLoc";"21";"0";"FINISHED";"LEFT";"success";"300";"0";"2014-10-16 13:02:43.600";"3";;;;;;;;;;;;;;;;;;;;;;;;;;;;;;;;;;;;;;;;;;;;;
"8320450";;;"Windows 7";"Rachel's Experiment (D.T.)";"1.0";"2";"1";"1";"2";"1";"1";"2014-10-16 12:57:35.577";"2014-10-16 13:10:52.832";"1";"0";"1";"86";"85";"module.training_block2.exec-8095.GoNoGo2";;;;;;;;;;;;;;;;;;;;;;;;;;;;;;;;;;;"1261";"2014-10-16 13:02:47.406";"NST_correctLoc";"15";"1";"FINISHED";"RIGHT";"success";"302";"0";"2014-10-16 13:02:46.142";"2";;;;;;;;;;;;;;;;;;;;;;;;;;;;;;;;;;;;;;;;;;;;;
"8320450";;;"Windows 7";"Rachel's Experiment (D.T.)";"1.0";"2";"1";"1";"2";"1";"1";"2014-10-16 12:57:35.577";"2014-10-16 13:10:52.832";"1";"0";"1";"87";"86";"module.training_block2.exec-8095.GoNoGo2";;;;;;;;;;;;;;;;;;;;;;;;;;;;;;;;;;;"1261";"2014-10-16 13:02:49.949";"NST_correctLoc";"34";"1";"FINISHED";"RIGHT";"success";"343";"0";"2014-10-16 13:02:48.685";"3";;;;;;;;;;;;;;;;;;;;;;;;;;;;;;;;;;;;;;;;;;;;;
"8320450";;;"Windows 7";"Rachel's Experiment (D.T.)";"1.0";"2";"1";"1";"2";"1";"1";"2014-10-16 12:57:35.577";"2014-10-16 13:10:52.832";"1";"0";"1";"88";"87";"module.training_block3.exec-9936.GoNoGo3";;;;;;;;;;;;;;;;;;;;;;;;;;;;;;;;;;;;;;;;;;;;;;;"1261";"2014-10-16 13:02:59.995";"NST_correctLoc";"27";"0";"FINISHED";"LEFT";"success";"320";"0";"2014-10-16 13:02:58.732";"3";;;;;;;;;;;;;;;;;;;;;;;;;;;;;;;;;
"8320450";;;"Windows 7";"Rachel's Experiment (D.T.)";"1.0";"2";"1";"1";"2";"1";"1";"2014-10-16 12:57:35.577";"2014-10-16 13:10:52.832";"1";"0";"1";"89";"88";"module.training_block3.exec-9936.GoNoGo3";;;;;;;;;;;;;;;;;;;;;;;;;;;;;;;;;;;;;;;;;;;;;;;"1261";"2014-10-16 13:03:02.538";"NST_correctLoc";"8";"0";"FINISHED";"LEFT";"success";"353";"0";"2014-10-16 13:03:01.274";"1";;;;;;;;;;;;;;;;;;;;;;;;;;;;;;;;;
"8320450";;;"Windows 7";"Rachel's Experiment (D.T.)";"1.0";"2";"1";"1";"2";"1";"1";"2014-10-16 12:57:35.577";"2014-10-16 13:10:52.832";"1";"0";"1";"90";"89";"module.training_block3.exec-9936.GoNoGo3";;;;;;;;;;;;;;;;;;;;;;;;;;;;;;;;;;;;;;;;;;;;;;;"1261";"2014-10-16 13:03:05.081";"NST_correctLoc";"0";"1";"FINISHED";"RIGHT";"success";"299";"0";"2014-10-16 13:03:03.817";"1";;;;;;;;;;;;;;;;;;;;;;;;;;;;;;;;;
"8320450";;;"Windows 7";"Rachel's Experiment (D.T.)";"1.0";"2";"1";"1";"2";"1";"1";"2014-10-16 12:57:35.577";"2014-10-16 13:10:52.832";"1";"0";"1";"91";"90";"module.training_block3.exec-9936.GoNoGo3";;;;;;;;;;;;;;;;;;;;;;;;;;;;;;;;;;;;;;;;;;;;;;;"1261";"2014-10-16 13:03:07.624";"NST_correctLoc";"11";"1";"FINISHED";"RIGHT";"success";"324";"0";"2014-10-16 13:03:06.360";"2";;;;;;;;;;;;;;;;;;;;;;;;;;;;;;;;;
"8320450";;;"Windows 7";"Rachel's Experiment (D.T.)";"1.0";"2";"1";"1";"2";"1";"1";"2014-10-16 12:57:35.577";"2014-10-16 13:10:52.832";"1";"0";"1";"92";"91";"module.training_block3.exec-9936.GoNoGo3";;;;;;;;;;;;;;;;;;;;;;;;;;;;;;;;;;;;;;;;;;;;;;;"1261";"2014-10-16 13:03:10.182";"NST_correctLoc";"30";"0";"FINISHED";"LEFT";"success";"397";"0";"2014-10-16 13:03:08.918";"3";;;;;;;;;;;;;;;;;;;;;;;;;;;;;;;;;
"8320450";;;"Windows 7";"Rachel's Experiment (D.T.)";"1.0";"2";"1";"1";"2";"1";"1";"2014-10-16 12:57:35.577";"2014-10-16 13:10:52.832";"1";"0";"1";"93";"92";"module.training_block3.exec-9936.GoNoGo3";;;;;;;;;;;;;;;;;;;;;;;;;;;;;;;;;;;;;;;;;;;;;;;"1261";"2014-10-16 13:03:12.725";"NST_correctLoc";"14";"1";"FINISHED";"RIGHT";"success";"287";"0";"2014-10-16 13:03:11.461";"2";;;;;;;;;;;;;;;;;;;;;;;;;;;;;;;;;
"8320450";;;"Windows 7";"Rachel's Experiment (D.T.)";"1.0";"2";"1";"1";"2";"1";"1";"2014-10-16 12:57:35.577";"2014-10-16 13:10:52.832";"1";"0";"1";"94";"93";"module.training_block3.exec-9936.GoNoGo3";;;;;;;;;;;;;;;;;;;;;;;;;;;;;;;;;;;;;;;;;;;;;;;"1261";"2014-10-16 13:03:15.268";"NST_correctLoc";"29";"1";"FINISHED";"RIGHT";"success";"352";"0";"2014-10-16 13:03:14.004";"3";;;;;;;;;;;;;;;;;;;;;;;;;;;;;;;;;
"8320450";;;"Windows 7";"Rachel's Experiment (D.T.)";"1.0";"2";"1";"1";"2";"1";"1";"2014-10-16 12:57:35.577";"2014-10-16 13:10:52.832";"1";"0";"1";"95";"94";"module.training_block3.exec-9936.GoNoGo3";;;;;;;;;;;;;;;;;;;;;;;;;;;;;;;;;;;;;;;;;;;;;;;"1261";"2014-10-16 13:03:17.810";"NST_correctLoc";"3";"0";"FINISHED";"LEFT";"success";"321";"0";"2014-10-16 13:03:16.547";"1";;;;;;;;;;;;;;;;;;;;;;;;;;;;;;;;;
"8320450";;;"Windows 7";"Rachel's Experiment (D.T.)";"1.0";"2";"1";"1";"2";"1";"1";"2014-10-16 12:57:35.577";"2014-10-16 13:10:52.832";"1";"0";"1";"96";"95";"module.training_block3.exec-9936.GoNoGo3";;;;;;;;;;;;;;;;;;;;;;;;;;;;;;;;;;;;;;;;;;;;;;;"1262";"2014-10-16 13:03:20.353";"NST_correctLoc";"16";"1";"FINISHED";"RIGHT";"success";"298";"0";"2014-10-16 13:03:19.090";"2";;;;;;;;;;;;;;;;;;;;;;;;;;;;;;;;;
"8320450";;;"Windows 7";"Rachel's Experiment (D.T.)";"1.0";"2";"1";"1";"2";"1";"1";"2014-10-16 12:57:35.577";"2014-10-16 13:10:52.832";"1";"0";"1";"97";"96";"module.training_block3.exec-9936.GoNoGo3";;;;;;;;;;;;;;;;;;;;;;;;;;;;;;;;;;;;;;;;;;;;;;;"1261";"2014-10-16 13:03:22.896";"NST_correctLoc";"10";"1";"FINISHED";"RIGHT";"success";"315";"0";"2014-10-16 13:03:21.632";"2";;;;;;;;;;;;;;;;;;;;;;;;;;;;;;;;;
"8320450";;;"Windows 7";"Rachel's Experiment (D.T.)";"1.0";"2";"1";"1";"2";"1";"1";"2014-10-16 12:57:35.577";"2014-10-16 13:10:52.832";"1";"0";"1";"98";"97";"module.training_block3.exec-9936.GoNoGo3";;;;;;;;;;;;;;;;;;;;;;;;;;;;;;;;;;;;;;;;;;;;;;;"1261";"2014-10-16 13:03:25.439";"NST_correctLoc";"2";"0";"FINISHED";"LEFT";"success";"357";"0";"2014-10-16 13:03:24.175";"1";;;;;;;;;;;;;;;;;;;;;;;;;;;;;;;;;
"8320450";;;"Windows 7";"Rachel's Experiment (D.T.)";"1.0";"2";"1";"1";"2";"1";"1";"2014-10-16 12:57:35.577";"2014-10-16 13:10:52.832";"1";"0";"1";"99";"98";"module.training_block3.exec-9936.GoNoGo3";;;;;;;;;;;;;;;;;;;;;;;;;;;;;;;;;;;;;;;;;;;;;;;"1262";"2014-10-16 13:03:27.982";"NST_correctLoc";"9";"0";"FINISHED";"LEFT";"success";"326";"0";"2014-10-16 13:03:26.718";"2";;;;;;;;;;;;;;;;;;;;;;;;;;;;;;;;;
"8320450";;;"Windows 7";"Rachel's Experiment (D.T.)";"1.0";"2";"1";"1";"2";"1";"1";"2014-10-16 12:57:35.577";"2014-10-16 13:10:52.832";"1";"0";"1";"100";"99";"module.training_block3.exec-9936.GoNoGo3";;;;;;;;;;;;;;;;;;;;;;;;;;;;;;;;;;;;;;;;;;;;;;;"1261";"2014-10-16 13:03:30.524";"NST_correctLoc";"6";"1";"FINISHED";"RIGHT";"success";"287";"0";"2014-10-16 13:03:29.261";"1";;;;;;;;;;;;;;;;;;;;;;;;;;;;;;;;;
"8320450";;;"Windows 7";"Rachel's Experiment (D.T.)";"1.0";"2";"1";"1";"2";"1";"1";"2014-10-16 12:57:35.577";"2014-10-16 13:10:52.832";"1";"0";"1";"101";"100";"module.training_block3.exec-9936.GoNoGo3";;;;;;;;;;;;;;;;;;;;;;;;;;;;;;;;;;;;;;;;;;;;;;;"1261";"2014-10-16 13:03:33.067";"NST_correctLoc";"26";"0";"FINISHED";"LEFT";"success";"304";"0";"2014-10-16 13:03:31.804";"3";;;;;;;;;;;;;;;;;;;;;;;;;;;;;;;;;
"8320450";;;"Windows 7";"Rachel's Experiment (D.T.)";"1.0";"2";"1";"1";"2";"1";"1";"2014-10-16 12:57:35.577";"2014-10-16 13:10:52.832";"1";"0";"1";"102";"101";"module.training_block3.exec-9936.GoNoGo3";;;;;;;;;;;;;;;;;;;;;;;;;;;;;;;;;;;;;;;;;;;;;;;"1261";"2014-10-16 13:03:35.594";"NST_correctLoc";"32";"1";"FINISHED";"RIGHT";"success";"289";"0";"2014-10-16 13:03:34.331";"3";;;;;;;;;;;;;;;;;;;;;;;;;;;;;;;;;
"8320450";;;"Windows 7";"Rachel's Experiment (D.T.)";"1.0";"2";"1";"1";"2";"1";"1";"2014-10-16 12:57:35.577";"2014-10-16 13:10:52.832";"1";"0";"1";"103";"102";"module.training_block3.exec-9936.GoNoGo3";;;;;;;;;;;;;;;;;;;;;;;;;;;;;;;;;;;;;;;;;;;;;;;"1261";"2014-10-16 13:03:38.137";"NST_correctLoc";"5";"1";"FINISHED";"RIGHT";"success";"426";"0";"2014-10-16 13:03:36.874";"1";;;;;;;;;;;;;;;;;;;;;;;;;;;;;;;;;
"8320450";;;"Windows 7";"Rachel's Experiment (D.T.)";"1.0";"2";"1";"1";"2";"1";"1";"2014-10-16 12:57:35.577";"2014-10-16 13:10:52.832";"1";"0";"1";"104";"103";"module.training_block3.exec-9936.GoNoGo3";;;;;;;;;;;;;;;;;;;;;;;;;;;;;;;;;;;;;;;;;;;;;;;"1262";"2014-10-16 13:03:40.664";"NST_correctLoc";"15";"1";"FINISHED";"RIGHT";"success";"331";"0";"2014-10-16 13:03:39.401";"2";;;;;;;;;;;;;;;;;;;;;;;;;;;;;;;;;
"8320450";;;"Windows 7";"Rachel's Experiment (D.T.)";"1.0";"2";"1";"1";"2";"1";"1";"2014-10-16 12:57:35.577";"2014-10-16 13:10:52.832";"1";"0";"1";"105";"104";"module.training_block3.exec-9936.GoNoGo3";;;;;;;;;;;;;;;;;;;;;;;;;;;;;;;;;;;;;;;;;;;;;;;"1261";"2014-10-16 13:03:43.207";"NST_correctLoc";"19";"1";"FINISHED";"RIGHT";"success";"308";"0";"2014-10-16 13:03:41.944";"3";;;;;;;;;;;;;;;;;;;;;;;;;;;;;;;;;
"8320450";;;"Windows 7";"Rachel's Experiment (D.T.)";"1.0";"2";"1";"1";"2";"1";"1";"2014-10-16 12:57:35.577";"2014-10-16 13:10:52.832";"1";"0";"1";"106";"105";"module.training_block3.exec-9936.GoNoGo3";;;;;;;;;;;;;;;;;;;;;;;;;;;;;;;;;;;;;;;;;;;;;;;"1261";"2014-10-16 13:03:45.750";"NST_correctLoc";"21";"1";"FINISHED";"RIGHT";"success";"293";"0";"2014-10-16 13:03:44.487";"3";;;;;;;;;;;;;;;;;;;;;;;;;;;;;;;;;
"8320450";;;"Windows 7";"Rachel's Experiment (D.T.)";"1.0";"2";"1";"1";"2";"1";"1";"2014-10-16 12:57:35.577";"2014-10-16 13:10:52.832";"1";"0";"1";"107";"106";"module.training_block3.exec-9936.GoNoGo3";;;;;;;;;;;;;;;;;;;;;;;;;;;;;;;;;;;;;;;;;;;;;;;"1262";"2014-10-16 13:03:48.293";"NST_correctLoc";"18";"1";"FINISHED";"RIGHT";"success";"486";"0";"2014-10-16 13:03:47.029";"3";;;;;;;;;;;;;;;;;;;;;;;;;;;;;;;;;
"8320450";;;"Windows 7";"Rachel's Experiment (D.T.)";"1.0";"2";"1";"1";"2";"1";"1";"2014-10-16 12:57:35.577";"2014-10-16 13:10:52.832";"1";"0";"1";"108";"107";"module.training_block3.exec-9936.GoNoGo3";;;;;;;;;;;;;;;;;;;;;;;;;;;;;;;;;;;;;;;;;;;;;;;"1262";"2014-10-16 13:03:50.820";"NST_correctLoc";"1";"0";"FINISHED";"LEFT";"success";"343";"0";"2014-10-16 13:03:49.557";"1";;;;;;;;;;;;;;;;;;;;;;;;;;;;;;;;;
"8320450";;;"Windows 7";"Rachel's Experiment (D.T.)";"1.0";"2";"1";"1";"2";"1";"1";"2014-10-16 12:57:35.577";"2014-10-16 13:10:52.832";"1";"0";"1";"109";"108";"module.training_block3.exec-9936.GoNoGo3";;;;;;;;;;;;;;;;;;;;;;;;;;;;;;;;;;;;;;;;;;;;;;;"1261";"2014-10-16 13:03:53.347";"NST_correctLoc";"4";"0";"FINISHED";"LEFT";"success";"352";"0";"2014-10-16 13:03:52.084";"1";;;;;;;;;;;;;;;;;;;;;;;;;;;;;;;;;
"8320450";;;"Windows 7";"Rachel's Experiment (D.T.)";"1.0";"2";"1";"1";"2";"1";"1";"2014-10-16 12:57:35.577";"2014-10-16 13:10:52.832";"1";"0";"1";"110";"109";"module.training_block3.exec-9936.GoNoGo3";;;;;;;;;;;;;;;;;;;;;;;;;;;;;;;;;;;;;;;;;;;;;;;"1261";"2014-10-16 13:03:55.875";"NST_correctLoc";"31";"1";"FINISHED";"RIGHT";"success";"313";"0";"2014-10-16 13:03:54.611";"3";;;;;;;;;;;;;;;;;;;;;;;;;;;;;;;;;
"8320450";;;"Windows 7";"Rachel's Experiment (D.T.)";"1.0";"2";"1";"1";"2";"1";"1";"2014-10-16 12:57:35.577";"2014-10-16 13:10:52.832";"1";"0";"1";"111";"110";"module.training_block3.exec-9936.GoNoGo3";;;;;;;;;;;;;;;;;;;;;;;;;;;;;;;;;;;;;;;;;;;;;;;"1261";"2014-10-16 13:03:58.417";"NST_correctLoc";"35";"0";"FINISHED";"LEFT";"success";"402";"0";"2014-10-16 13:03:57.154";"3";;;;;;;;;;;;;;;;;;;;;;;;;;;;;;;;;
"8320450";;;"Windows 7";"Rachel's Experiment (D.T.)";"1.0";"2";"1";"1";"2";"1";"1";"2014-10-16 12:57:35.577";"2014-10-16 13:10:52.832";"1";"0";"1";"112";"111";"module.training_block3.exec-9936.GoNoGo3";;;;;;;;;;;;;;;;;;;;;;;;;;;;;;;;;;;;;;;;;;;;;;;"1262";"2014-10-16 13:04:00.960";"NST_correctLoc";"28";"1";"FINISHED";"RIGHT";"success";"299";"0";"2014-10-16 13:03:59.697";"3";;;;;;;;;;;;;;;;;;;;;;;;;;;;;;;;;
"8320450";;;"Windows 7";"Rachel's Experiment (D.T.)";"1.0";"2";"1";"1";"2";"1";"1";"2014-10-16 12:57:35.577";"2014-10-16 13:10:52.832";"1";"0";"1";"113";"112";"module.training_block3.exec-9936.GoNoGo3";;;;;;;;;;;;;;;;;;;;;;;;;;;;;;;;;;;;;;;;;;;;;;;"1262";"2014-10-16 13:04:03.487";"NST_correctLoc";"20";"1";"FINISHED";"RIGHT";"success";"332";"0";"2014-10-16 13:04:02.224";"3";;;;;;;;;;;;;;;;;;;;;;;;;;;;;;;;;
"8320450";;;"Windows 7";"Rachel's Experiment (D.T.)";"1.0";"2";"1";"1";"2";"1";"1";"2014-10-16 12:57:35.577";"2014-10-16 13:10:52.832";"1";"0";"1";"114";"113";"module.training_block3.exec-9936.GoNoGo3";;;;;;;;;;;;;;;;;;;;;;;;;;;;;;;;;;;;;;;;;;;;;;;"1261";"2014-10-16 13:04:06.015";"NST_correctLoc";"24";"1";"FINISHED";"RIGHT";"success";"309";"0";"2014-10-16 13:04:04.751";"3";;;;;;;;;;;;;;;;;;;;;;;;;;;;;;;;;
"8320450";;;"Windows 7";"Rachel's Experiment (D.T.)";"1.0";"2";"1";"1";"2";"1";"1";"2014-10-16 12:57:35.577";"2014-10-16 13:10:52.832";"1";"0";"1";"115";"114";"module.training_block3.exec-9936.GoNoGo3";;;;;;;;;;;;;;;;;;;;;;;;;;;;;;;;;;;;;;;;;;;;;;;"1261";"2014-10-16 13:04:08.557";"NST_correctLoc";"34";"1";"FINISHED";"RIGHT";"success";"302";"0";"2014-10-16 13:04:07.294";"3";;;;;;;;;;;;;;;;;;;;;;;;;;;;;;;;;
"8320450";;;"Windows 7";"Rachel's Experiment (D.T.)";"1.0";"2";"1";"1";"2";"1";"1";"2014-10-16 12:57:35.577";"2014-10-16 13:10:52.832";"1";"0";"1";"116";"115";"module.training_block3.exec-9936.GoNoGo3";;;;;;;;;;;;;;;;;;;;;;;;;;;;;;;;;;;;;;;;;;;;;;;"1262";"2014-10-16 13:04:11.100";"NST_correctLoc";"25";"0";"FINISHED";"LEFT";"success";"399";"0";"2014-10-16 13:04:09.837";"3";;;;;;;;;;;;;;;;;;;;;;;;;;;;;;;;;
"8320450";;;"Windows 7";"Rachel's Experiment (D.T.)";"1.0";"2";"1";"1";"2";"1";"1";"2014-10-16 12:57:35.577";"2014-10-16 13:10:52.832";"1";"0";"1";"117";"116";"module.training_block3.exec-9936.GoNoGo3";;;;;;;;;;;;;;;;;;;;;;;;;;;;;;;;;;;;;;;;;;;;;;;"1261";"2014-10-16 13:04:13.627";"NST_correctLoc";"12";"1";"FINISHED";"RIGHT";"success";"288";"0";"2014-10-16 13:04:12.364";"2";;;;;;;;;;;;;;;;;;;;;;;;;;;;;;;;;
"8320450";;;"Windows 7";"Rachel's Experiment (D.T.)";"1.0";"2";"1";"1";"2";"1";"1";"2014-10-16 12:57:35.577";"2014-10-16 13:10:52.832";"1";"0";"1";"118";"117";"module.training_block3.exec-9936.GoNoGo3";;;;;;;;;;;;;;;;;;;;;;;;;;;;;;;;;;;;;;;;;;;;;;;"1261";"2014-10-16 13:04:16.170";"NST_correctLoc";"22";"1";"FINISHED";"RIGHT";"success";"329";"0";"2014-10-16 13:04:14.907";"3";;;;;;;;;;;;;;;;;;;;;;;;;;;;;;;;;
"8320450";;;"Windows 7";"Rachel's Experiment (D.T.)";"1.0";"2";"1";"1";"2";"1";"1";"2014-10-16 12:57:35.577";"2014-10-16 13:10:52.832";"1";"0";"1";"119";"118";"module.training_block3.exec-9936.GoNoGo3";;;;;;;;;;;;;;;;;;;;;;;;;;;;;;;;;;;;;;;;;;;;;;;"1261";"2014-10-16 13:04:18.697";"NST_correctLoc";"33";"1";"FINISHED";"RIGHT";"success";"322";"0";"2014-10-16 13:04:17.434";"3";;;;;;;;;;;;;;;;;;;;;;;;;;;;;;;;;
"8320450";;;"Windows 7";"Rachel's Experiment (D.T.)";"1.0";"2";"1";"1";"2";"1";"1";"2014-10-16 12:57:35.577";"2014-10-16 13:10:52.832";"1";"0";"1";"120";"119";"module.training_block3.exec-9936.GoNoGo3";;;;;;;;;;;;;;;;;;;;;;;;;;;;;;;;;;;;;;;;;;;;;;;"1262";"2014-10-16 13:04:21.240";"NST_correctLoc";"17";"0";"FINISHED";"LEFT";"success";"347";"0";"2014-10-16 13:04:19.977";"2";;;;;;;;;;;;;;;;;;;;;;;;;;;;;;;;;
"8320450";;;"Windows 7";"Rachel's Experiment (D.T.)";"1.0";"2";"1";"1";"2";"1";"1";"2014-10-16 12:57:35.577";"2014-10-16 13:10:52.832";"1";"0";"1";"121";"120";"module.training_block3.exec-9936.GoNoGo3";;;;;;;;;;;;;;;;;;;;;;;;;;;;;;;;;;;;;;;;;;;;;;;"1261";"2014-10-16 13:04:23.783";"NST_correctLoc";"23";"1";"FINISHED";"RIGHT";"success";"268";"0";"2014-10-16 13:04:22.519";"3";;;;;;;;;;;;;;;;;;;;;;;;;;;;;;;;;
"8320450";;;"Windows 7";"Rachel's Experiment (D.T.)";"1.0";"2";"1";"1";"2";"1";"1";"2014-10-16 12:57:35.577";"2014-10-16 13:10:52.832";"1";"0";"1";"122";"121";"module.training_block3.exec-9936.GoNoGo3";;;;;;;;;;;;;;;;;;;;;;;;;;;;;;;;;;;;;;;;;;;;;;;"1262";"2014-10-16 13:04:26.310";"NST_correctLoc";"13";"0";"FINISHED";"LEFT";"success";"309";"0";"2014-10-16 13:04:25.047";"2";;;;;;;;;;;;;;;;;;;;;;;;;;;;;;;;;
"8320450";;;"Windows 7";"Rachel's Experiment (D.T.)";"1.0";"2";"1";"1";"2";"1";"1";"2014-10-16 12:57:35.577";"2014-10-16 13:10:52.832";"1";"0";"1";"123";"122";"module.training_block3.exec-9936.GoNoGo3";;;;;;;;;;;;;;;;;;;;;;;;;;;;;;;;;;;;;;;;;;;;;;;"1261";"2014-10-16 13:04:28.853";"NST_correctLoc";"7";"0";"FINISHED";"LEFT";"success";"334";"0";"2014-10-16 13:04:27.589";"1";;;;;;;;;;;;;;;;;;;;;;;;;;;;;;;;;
"8320450";;;"Windows 7";"Rachel's Experiment (D.T.)";"1.0";"2";"1";"1";"2";"1";"1";"2014-10-16 12:57:35.577";"2014-10-16 13:10:52.832";"1";"0";"1";"124";"123";"module.training_block4.exec-8920.GoNoGo4";;;;;;;;;;;;;;;;;;;;;;;;;;;;;;;;;;;;;;;;;;;;;;;;;;;;;;;;;;;"1261";"2014-10-16 13:04:39.087";"NST_correctLoc";"1";"1";"FINISHED";"RIGHT";"success";"300";"0";"2014-10-16 13:04:37.823";"1";;;;;;;;;;;;;;;;;;;;;
"8320450";;;"Windows 7";"Rachel's Experiment (D.T.)";"1.0";"2";"1";"1";"2";"1";"1";"2014-10-16 12:57:35.577";"2014-10-16 13:10:52.832";"1";"0";"1";"125";"124";"module.training_block4.exec-8920.GoNoGo4";;;;;;;;;;;;;;;;;;;;;;;;;;;;;;;;;;;;;;;;;;;;;;;;;;;;;;;;;;;"1261";"2014-10-16 13:04:41.614";"NST_correctLoc";"7";"1";"FINISHED";"RIGHT";"success";"325";"0";"2014-10-16 13:04:40.350";"1";;;;;;;;;;;;;;;;;;;;;
"8320450";;;"Windows 7";"Rachel's Experiment (D.T.)";"1.0";"2";"1";"1";"2";"1";"1";"2014-10-16 12:57:35.577";"2014-10-16 13:10:52.832";"1";"0";"1";"126";"125";"module.training_block4.exec-8920.GoNoGo4";;;;;;;;;;;;;;;;;;;;;;;;;;;;;;;;;;;;;;;;;;;;;;;;;;;;;;;;;;;"1261";"2014-10-16 13:04:44.141";"NST_correctLoc";"6";"0";"FINISHED";"LEFT";"success";"310";"0";"2014-10-16 13:04:42.877";"1";;;;;;;;;;;;;;;;;;;;;
"8320450";;;"Windows 7";"Rachel's Experiment (D.T.)";"1.0";"2";"1";"1";"2";"1";"1";"2014-10-16 12:57:35.577";"2014-10-16 13:10:52.832";"1";"0";"1";"127";"126";"module.training_block4.exec-8920.GoNoGo4";;;;;;;;;;;;;;;;;;;;;;;;;;;;;;;;;;;;;;;;;;;;;;;;;;;;;;;;;;;"1262";"2014-10-16 13:04:46.684";"NST_correctLoc";"0";"0";"FINISHED";"LEFT";"success";"327";"0";"2014-10-16 13:04:45.420";"1";;;;;;;;;;;;;;;;;;;;;
"8320450";;;"Windows 7";"Rachel's Experiment (D.T.)";"1.0";"2";"1";"1";"2";"1";"1";"2014-10-16 12:57:35.577";"2014-10-16 13:10:52.832";"1";"0";"1";"128";"127";"module.training_block4.exec-8920.GoNoGo4";;;;;;;;;;;;;;;;;;;;;;;;;;;;;;;;;;;;;;;;;;;;;;;;;;;;;;;;;;;"1261";"2014-10-16 13:04:49.211";"NST_correctLoc";"31";"1";"FINISHED";"RIGHT";"success";"272";"0";"2014-10-16 13:04:47.947";"3";;;;;;;;;;;;;;;;;;;;;
"8320450";;;"Windows 7";"Rachel's Experiment (D.T.)";"1.0";"2";"1";"1";"2";"1";"1";"2014-10-16 12:57:35.577";"2014-10-16 13:10:52.832";"1";"0";"1";"129";"128";"module.training_block4.exec-8920.GoNoGo4";;;;;;;;;;;;;;;;;;;;;;;;;;;;;;;;;;;;;;;;;;;;;;;;;;;;;;;;;;;"1262";"2014-10-16 13:04:51.738";"NST_correctLoc";"13";"0";"FINISHED";"LEFT";"success";"321";"0";"2014-10-16 13:04:50.475";"2";;;;;;;;;;;;;;;;;;;;;
"8320450";;;"Windows 7";"Rachel's Experiment (D.T.)";"1.0";"2";"1";"1";"2";"1";"1";"2014-10-16 12:57:35.577";"2014-10-16 13:10:52.832";"1";"0";"1";"130";"129";"module.training_block4.exec-8920.GoNoGo4";;;;;;;;;;;;;;;;;;;;;;;;;;;;;;;;;;;;;;;;;;;;;;;;;;;;;;;;;;;"1262";"2014-10-16 13:04:54.265";"NST_correctLoc";"21";"0";"FINISHED";"LEFT";"success";"289";"0";"2014-10-16 13:04:53.002";"3";;;;;;;;;;;;;;;;;;;;;
"8320450";;;"Windows 7";"Rachel's Experiment (D.T.)";"1.0";"2";"1";"1";"2";"1";"1";"2014-10-16 12:57:35.577";"2014-10-16 13:10:52.832";"1";"0";"1";"131";"130";"module.training_block4.exec-8920.GoNoGo4";;;;;;;;;;;;;;;;;;;;;;;;;;;;;;;;;;;;;;;;;;;;;;;;;;;;;;;;;;;"1261";"2014-10-16 13:04:56.793";"NST_correctLoc";"17";"0";"FINISHED";"LEFT";"success";"282";"0";"2014-10-16 13:04:55.529";"2";;;;;;;;;;;;;;;;;;;;;
"8320450";;;"Windows 7";"Rachel's Experiment (D.T.)";"1.0";"2";"1";"1";"2";"1";"1";"2014-10-16 12:57:35.577";"2014-10-16 13:10:52.832";"1";"0";"1";"132";"131";"module.training_block4.exec-8920.GoNoGo4";;;;;;;;;;;;;;;;;;;;;;;;;;;;;;;;;;;;;;;;;;;;;;;;;;;;;;;;;;;"1262";"2014-10-16 13:04:59.320";"NST_correctLoc";"33";"1";"FINISHED";"RIGHT";"success";"363";"0";"2014-10-16 13:04:58.056";"3";;;;;;;;;;;;;;;;;;;;;
"8320450";;;"Windows 7";"Rachel's Experiment (D.T.)";"1.0";"2";"1";"1";"2";"1";"1";"2014-10-16 12:57:35.577";"2014-10-16 13:10:52.832";"1";"0";"1";"133";"132";"module.training_block4.exec-8920.GoNoGo4";;;;;;;;;;;;;;;;;;;;;;;;;;;;;;;;;;;;;;;;;;;;;;;;;;;;;;;;;;;"1262";"2014-10-16 13:05:01.847";"NST_correctLoc";"30";"0";"FINISHED";"LEFT";"success";"324";"0";"2014-10-16 13:05:00.583";"3";;;;;;;;;;;;;;;;;;;;;
"8320450";;;"Windows 7";"Rachel's Experiment (D.T.)";"1.0";"2";"1";"1";"2";"1";"1";"2014-10-16 12:57:35.577";"2014-10-16 13:10:52.832";"1";"0";"1";"134";"133";"module.training_block4.exec-8920.GoNoGo4";;;;;;;;;;;;;;;;;;;;;;;;;;;;;;;;;;;;;;;;;;;;;;;;;;;;;;;;;;;"1261";"2014-10-16 13:05:04.374";"NST_correctLoc";"18";"0";"FINISHED";"LEFT";"success";"340";"0";"2014-10-16 13:05:03.111";"3";;;;;;;;;;;;;;;;;;;;;
"8320450";;;"Windows 7";"Rachel's Experiment (D.T.)";"1.0";"2";"1";"1";"2";"1";"1";"2014-10-16 12:57:35.577";"2014-10-16 13:10:52.832";"1";"0";"1";"135";"134";"module.training_block4.exec-8920.GoNoGo4";;;;;;;;;;;;;;;;;;;;;;;;;;;;;;;;;;;;;;;;;;;;;;;;;;;;;;;;;;;"1261";"2014-10-16 13:05:06.917";"NST_correctLoc";"4";"0";"FINISHED";"LEFT";"success";"310";"0";"2014-10-16 13:05:05.653";"1";;;;;;;;;;;;;;;;;;;;;
"8320450";;;"Windows 7";"Rachel's Experiment (D.T.)";"1.0";"2";"1";"1";"2";"1";"1";"2014-10-16 12:57:35.577";"2014-10-16 13:10:52.832";"1";"0";"1";"136";"135";"module.training_block4.exec-8920.GoNoGo4";;;;;;;;;;;;;;;;;;;;;;;;;;;;;;;;;;;;;;;;;;;;;;;;;;;;;;;;;;;"1262";"2014-10-16 13:05:09.460";"NST_correctLoc";"25";"0";"FINISHED";"LEFT";"success";"311";"0";"2014-10-16 13:05:08.196";"3";;;;;;;;;;;;;;;;;;;;;
"8320450";;;"Windows 7";"Rachel's Experiment (D.T.)";"1.0";"2";"1";"1";"2";"1";"1";"2014-10-16 12:57:35.577";"2014-10-16 13:10:52.832";"1";"0";"1";"137";"136";"module.training_block4.exec-8920.GoNoGo4";;;;;;;;;;;;;;;;;;;;;;;;;;;;;;;;;;;;;;;;;;;;;;;;;;;;;;;;;;;"1262";"2014-10-16 13:05:11.987";"NST_correctLoc";"20";"1";"FINISHED";"RIGHT";"success";"312";"0";"2014-10-16 13:05:10.723";"3";;;;;;;;;;;;;;;;;;;;;
"8320450";;;"Windows 7";"Rachel's Experiment (D.T.)";"1.0";"2";"1";"1";"2";"1";"1";"2014-10-16 12:57:35.577";"2014-10-16 13:10:52.832";"1";"0";"1";"138";"137";"module.training_block4.exec-8920.GoNoGo4";;;;;;;;;;;;;;;;;;;;;;;;;;;;;;;;;;;;;;;;;;;;;;;;;;;;;;;;;;;"1261";"2014-10-16 13:05:14.514";"NST_correctLoc";"35";"0";"FINISHED";"LEFT";"success";"344";"0";"2014-10-16 13:05:13.251";"3";;;;;;;;;;;;;;;;;;;;;
"8320450";;;"Windows 7";"Rachel's Experiment (D.T.)";"1.0";"2";"1";"1";"2";"1";"1";"2014-10-16 12:57:35.577";"2014-10-16 13:10:52.832";"1";"0";"1";"139";"138";"module.training_block4.exec-8920.GoNoGo4";;;;;;;;;;;;;;;;;;;;;;;;;;;;;;;;;;;;;;;;;;;;;;;;;;;;;;;;;;;"1262";"2014-10-16 13:05:17.041";"NST_correctLoc";"10";"0";"FINISHED";"LEFT";"success";"345";"0";"2014-10-16 13:05:15.778";"2";;;;;;;;;;;;;;;;;;;;;
"8320450";;;"Windows 7";"Rachel's Experiment (D.T.)";"1.0";"2";"1";"1";"2";"1";"1";"2014-10-16 12:57:35.577";"2014-10-16 13:10:52.832";"1";"0";"1";"140";"139";"module.training_block4.exec-8920.GoNoGo4";;;;;;;;;;;;;;;;;;;;;;;;;;;;;;;;;;;;;;;;;;;;;;;;;;;;;;;;;;;"1261";"2014-10-16 13:05:19.584";"NST_correctLoc";"26";"0";"FINISHED";"LEFT";"success";"306";"0";"2014-10-16 13:05:18.321";"3";;;;;;;;;;;;;;;;;;;;;
"8320450";;;"Windows 7";"Rachel's Experiment (D.T.)";"1.0";"2";"1";"1";"2";"1";"1";"2014-10-16 12:57:35.577";"2014-10-16 13:10:52.832";"1";"0";"1";"141";"140";"module.training_block4.exec-8920.GoNoGo4";;;;;;;;;;;;;;;;;;;;;;;;;;;;;;;;;;;;;;;;;;;;;;;;;;;;;;;;;;;"1262";"2014-10-16 13:05:22.111";"NST_correctLoc";"32";"1";"FINISHED";"RIGHT";"success";"315";"0";"2014-10-16 13:05:20.848";"3";;;;;;;;;;;;;;;;;;;;;
"8320450";;;"Windows 7";"Rachel's Experiment (D.T.)";"1.0";"2";"1";"1";"2";"1";"1";"2014-10-16 12:57:35.577";"2014-10-16 13:10:52.832";"1";"0";"1";"142";"141";"module.training_block4.exec-8920.GoNoGo4";;;;;;;;;;;;;;;;;;;;;;;;;;;;;;;;;;;;;;;;;;;;;;;;;;;;;;;;;;;"1262";"2014-10-16 13:05:24.639";"NST_correctLoc";"9";"0";"FINISHED";"LEFT";"success";"316";"0";"2014-10-16 13:05:23.375";"2";;;;;;;;;;;;;;;;;;;;;
"8320450";;;"Windows 7";"Rachel's Experiment (D.T.)";"1.0";"2";"1";"1";"2";"1";"1";"2014-10-16 12:57:35.577";"2014-10-16 13:10:52.832";"1";"0";"1";"143";"142";"module.training_block4.exec-8920.GoNoGo4";;;;;;;;;;;;;;;;;;;;;;;;;;;;;;;;;;;;;;;;;;;;;;;;;;;;;;;;;;;"1262";"2014-10-16 13:05:27.197";"NST_correctLoc";"23";"1";"FINISHED";"RIGHT";"success";"286";"0";"2014-10-16 13:05:25.933";"3";;;;;;;;;;;;;;;;;;;;;
"8320450";;;"Windows 7";"Rachel's Experiment (D.T.)";"1.0";"2";"1";"1";"2";"1";"1";"2014-10-16 12:57:35.577";"2014-10-16 13:10:52.832";"1";"0";"1";"144";"143";"module.training_block4.exec-8920.GoNoGo4";;;;;;;;;;;;;;;;;;;;;;;;;;;;;;;;;;;;;;;;;;;;;;;;;;;;;;;;;;;"1262";"2014-10-16 13:05:29.724";"NST_correctLoc";"12";"1";"FINISHED";"RIGHT";"success";"478";"0";"2014-10-16 13:05:28.461";"2";;;;;;;;;;;;;;;;;;;;;
"8320450";;;"Windows 7";"Rachel's Experiment (D.T.)";"1.0";"2";"1";"1";"2";"1";"1";"2014-10-16 12:57:35.577";"2014-10-16 13:10:52.832";"1";"0";"1";"145";"144";"module.training_block4.exec-8920.GoNoGo4";;;;;;;;;;;;;;;;;;;;;;;;;;;;;;;;;;;;;;;;;;;;;;;;;;;;;;;;;;;"1262";"2014-10-16 13:05:32.267";"NST_correctLoc";"29";"1";"FINISHED";"RIGHT";"success";"319";"0";"2014-10-16 13:05:31.003";"3";;;;;;;;;;;;;;;;;;;;;
"8320450";;;"Windows 7";"Rachel's Experiment (D.T.)";"1.0";"2";"1";"1";"2";"1";"1";"2014-10-16 12:57:35.577";"2014-10-16 13:10:52.832";"1";"0";"1";"146";"145";"module.training_block4.exec-8920.GoNoGo4";;;;;;;;;;;;;;;;;;;;;;;;;;;;;;;;;;;;;;;;;;;;;;;;;;;;;;;;;;;"1262";"2014-10-16 13:05:34.794";"NST_correctLoc";"3";"1";"FINISHED";"RIGHT";"success";"368";"0";"2014-10-16 13:05:33.531";"1";;;;;;;;;;;;;;;;;;;;;
"8320450";;;"Windows 7";"Rachel's Experiment (D.T.)";"1.0";"2";"1";"1";"2";"1";"1";"2014-10-16 12:57:35.577";"2014-10-16 13:10:52.832";"1";"0";"1";"147";"146";"module.training_block4.exec-8920.GoNoGo4";;;;;;;;;;;;;;;;;;;;;;;;;;;;;;;;;;;;;;;;;;;;;;;;;;;;;;;;;;;"1262";"2014-10-16 13:05:37.322";"NST_correctLoc";"8";"0";"FINISHED";"LEFT";"success";"361";"0";"2014-10-16 13:05:36.058";"1";;;;;;;;;;;;;;;;;;;;;
"8320450";;;"Windows 7";"Rachel's Experiment (D.T.)";"1.0";"2";"1";"1";"2";"1";"1";"2014-10-16 12:57:35.577";"2014-10-16 13:10:52.832";"1";"0";"1";"148";"147";"module.training_block4.exec-8920.GoNoGo4";;;;;;;;;;;;;;;;;;;;;;;;;;;;;;;;;;;;;;;;;;;;;;;;;;;;;;;;;;;"1262";"2014-10-16 13:05:39.880";"NST_correctLoc";"22";"1";"FINISHED";"RIGHT";"success";"307";"0";"2014-10-16 13:05:38.616";"3";;;;;;;;;;;;;;;;;;;;;
"8320450";;;"Windows 7";"Rachel's Experiment (D.T.)";"1.0";"2";"1";"1";"2";"1";"1";"2014-10-16 12:57:35.577";"2014-10-16 13:10:52.832";"1";"0";"1";"149";"148";"module.training_block4.exec-8920.GoNoGo4";;;;;;;;;;;;;;;;;;;;;;;;;;;;;;;;;;;;;;;;;;;;;;;;;;;;;;;;;;;"1262";"2014-10-16 13:05:42.407";"NST_correctLoc";"15";"0";"FINISHED";"LEFT";"success";"307";"0";"2014-10-16 13:05:41.144";"2";;;;;;;;;;;;;;;;;;;;;
"8320450";;;"Windows 7";"Rachel's Experiment (D.T.)";"1.0";"2";"1";"1";"2";"1";"1";"2014-10-16 12:57:35.577";"2014-10-16 13:10:52.832";"1";"0";"1";"150";"149";"module.training_block4.exec-8920.GoNoGo4";;;;;;;;;;;;;;;;;;;;;;;;;;;;;;;;;;;;;;;;;;;;;;;;;;;;;;;;;;;"1262";"2014-10-16 13:05:44.950";"NST_correctLoc";"16";"0";"FINISHED";"LEFT";"success";"365";"0";"2014-10-16 13:05:43.686";"2";;;;;;;;;;;;;;;;;;;;;
"8320450";;;"Windows 7";"Rachel's Experiment (D.T.)";"1.0";"2";"1";"1";"2";"1";"1";"2014-10-16 12:57:35.577";"2014-10-16 13:10:52.832";"1";"0";"1";"151";"150";"module.training_block4.exec-8920.GoNoGo4";;;;;;;;;;;;;;;;;;;;;;;;;;;;;;;;;;;;;;;;;;;;;;;;;;;;;;;;;;;"1262";"2014-10-16 13:05:47.477";"NST_correctLoc";"11";"0";"FINISHED";"LEFT";"success";"285";"0";"2014-10-16 13:05:46.214";"2";;;;;;;;;;;;;;;;;;;;;
"8320450";;;"Windows 7";"Rachel's Experiment (D.T.)";"1.0";"2";"1";"1";"2";"1";"1";"2014-10-16 12:57:35.577";"2014-10-16 13:10:52.832";"1";"0";"1";"152";"151";"module.training_block4.exec-8920.GoNoGo4";;;;;;;;;;;;;;;;;;;;;;;;;;;;;;;;;;;;;;;;;;;;;;;;;;;;;;;;;;;"1262";"2014-10-16 13:05:50.004";"NST_correctLoc";"28";"1";"FINISHED";"RIGHT";"success";"334";"0";"2014-10-16 13:05:48.741";"3";;;;;;;;;;;;;;;;;;;;;
"8320450";;;"Windows 7";"Rachel's Experiment (D.T.)";"1.0";"2";"1";"1";"2";"1";"1";"2014-10-16 12:57:35.577";"2014-10-16 13:10:52.832";"1";"0";"1";"153";"152";"module.training_block4.exec-8920.GoNoGo4";;;;;;;;;;;;;;;;;;;;;;;;;;;;;;;;;;;;;;;;;;;;;;;;;;;;;;;;;;;"1261";"2014-10-16 13:05:52.532";"NST_correctLoc";"19";"1";"FINISHED";"RIGHT";"success";"319";"0";"2014-10-16 13:05:51.268";"3";;;;;;;;;;;;;;;;;;;;;
"8320450";;;"Windows 7";"Rachel's Experiment (D.T.)";"1.0";"2";"1";"1";"2";"1";"1";"2014-10-16 12:57:35.577";"2014-10-16 13:10:52.832";"1";"0";"1";"154";"153";"module.training_block4.exec-8920.GoNoGo4";;;;;;;;;;;;;;;;;;;;;;;;;;;;;;;;;;;;;;;;;;;;;;;;;;;;;;;;;;;"1261";"2014-10-16 13:05:55.059";"NST_correctLoc";"14";"1";"FINISHED";"RIGHT";"success";"328";"0";"2014-10-16 13:05:53.795";"2";;;;;;;;;;;;;;;;;;;;;
"8320450";;;"Windows 7";"Rachel's Experiment (D.T.)";"1.0";"2";"1";"1";"2";"1";"1";"2014-10-16 12:57:35.577";"2014-10-16 13:10:52.832";"1";"0";"1";"155";"154";"module.training_block4.exec-8920.GoNoGo4";;;;;;;;;;;;;;;;;;;;;;;;;;;;;;;;;;;;;;;;;;;;;;;;;;;;;;;;;;;"1261";"2014-10-16 13:05:57.586";"NST_correctLoc";"2";"0";"FINISHED";"LEFT";"success";"320";"0";"2014-10-16 13:05:56.322";"1";;;;;;;;;;;;;;;;;;;;;
"8320450";;;"Windows 7";"Rachel's Experiment (D.T.)";"1.0";"2";"1";"1";"2";"1";"1";"2014-10-16 12:57:35.577";"2014-10-16 13:10:52.832";"1";"0";"1";"156";"155";"module.training_block4.exec-8920.GoNoGo4";;;;;;;;;;;;;;;;;;;;;;;;;;;;;;;;;;;;;;;;;;;;;;;;;;;;;;;;;;;"1262";"2014-10-16 13:06:00.113";"NST_correctLoc";"34";"0";"FINISHED";"LEFT";"success";"289";"0";"2014-10-16 13:05:58.850";"3";;;;;;;;;;;;;;;;;;;;;
"8320450";;;"Windows 7";"Rachel's Experiment (D.T.)";"1.0";"2";"1";"1";"2";"1";"1";"2014-10-16 12:57:35.577";"2014-10-16 13:10:52.832";"1";"0";"1";"157";"156";"module.training_block4.exec-8920.GoNoGo4";;;;;;;;;;;;;;;;;;;;;;;;;;;;;;;;;;;;;;;;;;;;;;;;;;;;;;;;;;;"1261";"2014-10-16 13:06:02.640";"NST_correctLoc";"24";"0";"FINISHED";"LEFT";"success";"362";"0";"2014-10-16 13:06:01.377";"3";;;;;;;;;;;;;;;;;;;;;
"8320450";;;"Windows 7";"Rachel's Experiment (D.T.)";"1.0";"2";"1";"1";"2";"1";"1";"2014-10-16 12:57:35.577";"2014-10-16 13:10:52.832";"1";"0";"1";"158";"157";"module.training_block4.exec-8920.GoNoGo4";;;;;;;;;;;;;;;;;;;;;;;;;;;;;;;;;;;;;;;;;;;;;;;;;;;;;;;;;;;"1262";"2014-10-16 13:06:05.183";"NST_correctLoc";"5";"0";"FINISHED";"LEFT";"success";"331";"0";"2014-10-16 13:06:03.920";"1";;;;;;;;;;;;;;;;;;;;;
"8320450";;;"Windows 7";"Rachel's Experiment (D.T.)";"1.0";"2";"1";"1";"2";"1";"1";"2014-10-16 12:57:35.577";"2014-10-16 13:10:52.832";"1";"0";"1";"159";"158";"module.training_block4.exec-8920.GoNoGo4";;;;;;;;;;;;;;;;;;;;;;;;;;;;;;;;;;;;;;;;;;;;;;;;;;;;;;;;;;;"1262";"2014-10-16 13:06:07.710";"NST_correctLoc";"27";"1";"FINISHED";"RIGHT";"success";"452";"0";"2014-10-16 13:06:06.447";"3";;;;;;;;;;;;;;;;;;;;;
"8320450";;;"Windows 7";"Rachel's Experiment (D.T.)";"1.0";"2";"1";"1";"2";"1";"1";"2014-10-16 12:57:35.577";"2014-10-16 13:10:52.832";"1";"0";"1";"160";"159";"module.devaluation_practice.exec-4692.devalPractice";;;;;;;;;;;;"22013";"2014-10-16 13:06:59.409";"0";"6";"7";"6";"4870";"3886";"10203";"2014-10-16 13:06:37.397";;;;;;;;;;;;;;;;;;;;;;;;;;;;;;;;;;;;;;;;;;;;;;;;;;;;;;;;;;;;;;;;;;;;;;
"8320450";;;"Windows 7";"Rachel's Experiment (D.T.)";"1.0";"2";"1";"1";"2";"1";"1";"2014-10-16 12:57:35.577";"2014-10-16 13:10:52.832";"1";"0";"1";"161";"160";"module.devaluation_practice.exec-4692.devalPractice";;;;;;;;;;;;"10476";"2014-10-16 13:07:09.908";"1";"3";"2";"4";"1525";"2143";"3796";"2014-10-16 13:06:59.424";;;;;;;;;;;;;;;;;;;;;;;;;;;;;;;;;;;;;;;;;;;;;;;;;;;;;;;;;;;;;;;;;;;;;;
"8320450";;;"Windows 7";"Rachel's Experiment (D.T.)";"1.0";"2";"1";"1";"2";"1";"1";"2014-10-16 12:57:35.577";"2014-10-16 13:10:52.832";"1";"0";"1";"162";"161";"module.devaluation_practice.exec-4692.devalPractice";;;;;;;;;;;;"10021";"2014-10-16 13:07:19.954";"2";"3";"1";"4";"1278";"3674";"2025";"2014-10-16 13:07:09.923";;;;;;;;;;;;;;;;;;;;;;;;;;;;;;;;;;;;;;;;;;;;;;;;;;;;;;;;;;;;;;;;;;;;;;
"8320450";;;"Windows 7";"Rachel's Experiment (D.T.)";"1.0";"2";"1";"1";"2";"1";"1";"2014-10-16 12:57:35.577";"2014-10-16 13:10:52.832";"1";"0";"1";"163";"162";"module.devaluation_practice.exec-4692.devalPractice";;;;;;;;;;;;"10077";"2014-10-16 13:07:30.063";"3";"8";"9";"9";"2292";"1250";"3499";"2014-10-16 13:07:19.985";;;;;;;;;;;;;;;;;;;;;;;;;;;;;;;;;;;;;;;;;;;;;;;;;;;;;;;;;;;;;;;;;;;;;;
"8320450";;;"Windows 7";"Rachel's Experiment (D.T.)";"1.0";"2";"1";"1";"2";"1";"1";"2014-10-16 12:57:35.577";"2014-10-16 13:10:52.832";"1";"0";"1";"164";"163";"module.devaluation_block1.exec-5238.deval1";"10214";"2014-10-16 13:07:44.977";"19";"7";"5";"7";"4141";"1233";"1813";"2014-10-16 13:07:34.759";"3";;;;;;;;;;;;;;;;;;;;;;;;;;;;;;;;;;;;;;;;;;;;;;;;;;;;;;;;;;;;;;;;;;;;;;;;;;;;;;;;
"8320450";;;"Windows 7";"Rachel's Experiment (D.T.)";"1.0";"2";"1";"1";"2";"1";"1";"2014-10-16 12:57:35.577";"2014-10-16 13:10:52.832";"1";"0";"1";"165";"164";"module.devaluation_block1.exec-5238.deval1";"12935";"2014-10-16 13:07:57.925";"16";"2";"8";"7";"4228";"3444";"2230";"2014-10-16 13:07:44.992";"2";;;;;;;;;;;;;;;;;;;;;;;;;;;;;;;;;;;;;;;;;;;;;;;;;;;;;;;;;;;;;;;;;;;;;;;;;;;;;;;;
"8320450";;;"Windows 7";"Rachel's Experiment (D.T.)";"1.0";"2";"1";"1";"2";"1";"1";"2014-10-16 12:57:35.577";"2014-10-16 13:10:52.832";"1";"0";"1";"166";"165";"module.devaluation_block1.exec-5238.deval1";"9027";"2014-10-16 13:08:06.973";"1";"3";"9";"7";"2561";"1104";"2327";"2014-10-16 13:07:57.956";"1";;;;;;;;;;;;;;;;;;;;;;;;;;;;;;;;;;;;;;;;;;;;;;;;;;;;;;;;;;;;;;;;;;;;;;;;;;;;;;;;
"8320450";;;"Windows 7";"Rachel's Experiment (D.T.)";"1.0";"2";"1";"1";"2";"1";"1";"2014-10-16 12:57:35.577";"2014-10-16 13:10:52.832";"1";"0";"1";"167";"166";"module.devaluation_block1.exec-5238.deval1";"7162";"2014-10-16 13:08:14.180";"18";"8";"9";"9";"1849";"1113";"1182";"2014-10-16 13:08:07.019";"3";;;;;;;;;;;;;;;;;;;;;;;;;;;;;;;;;;;;;;;;;;;;;;;;;;;;;;;;;;;;;;;;;;;;;;;;;;;;;;;;
"8320450";;;"Windows 7";"Rachel's Experiment (D.T.)";"1.0";"2";"1";"1";"2";"1";"1";"2014-10-16 12:57:35.577";"2014-10-16 13:10:52.832";"1";"0";"1";"168";"167";"module.devaluation_block1.exec-5238.deval1";"6443";"2014-10-16 13:08:20.654";"10";"7";"8";"8";"858";"939";"1605";"2014-10-16 13:08:14.211";"2";;;;;;;;;;;;;;;;;;;;;;;;;;;;;;;;;;;;;;;;;;;;;;;;;;;;;;;;;;;;;;;;;;;;;;;;;;;;;;;;
"8320450";;;"Windows 7";"Rachel's Experiment (D.T.)";"1.0";"2";"1";"1";"2";"1";"1";"2014-10-16 12:57:35.577";"2014-10-16 13:10:52.832";"1";"0";"1";"169";"168";"module.devaluation_block1.exec-5238.deval1";"8389";"2014-10-16 13:08:29.062";"6";"6";"7";"7";"2087";"611";"2646";"2014-10-16 13:08:20.669";"1";;;;;;;;;;;;;;;;;;;;;;;;;;;;;;;;;;;;;;;;;;;;;;;;;;;;;;;;;;;;;;;;;;;;;;;;;;;;;;;;
"8320450";;;"Windows 7";"Rachel's Experiment (D.T.)";"1.0";"2";"1";"1";"2";"1";"1";"2014-10-16 12:57:35.577";"2014-10-16 13:10:52.832";"1";"0";"1";"170";"169";"module.devaluation_block1.exec-5238.deval1";"6437";"2014-10-16 13:08:35.521";"24";"8";"8";"9";"934";"967";"1500";"2014-10-16 13:08:29.078";"3";;;;;;;;;;;;;;;;;;;;;;;;;;;;;;;;;;;;;;;;;;;;;;;;;;;;;;;;;;;;;;;;;;;;;;;;;;;;;;;;
"8320450";;;"Windows 7";"Rachel's Experiment (D.T.)";"1.0";"2";"1";"1";"2";"1";"1";"2014-10-16 12:57:35.577";"2014-10-16 13:10:52.832";"1";"0";"1";"171";"170";"module.devaluation_block1.exec-5238.deval1";"8822";"2014-10-16 13:08:44.366";"25";"6";"2";"6";"2373";"2632";"783";"2014-10-16 13:08:35.552";"3";;;;;;;;;;;;;;;;;;;;;;;;;;;;;;;;;;;;;;;;;;;;;;;;;;;;;;;;;;;;;;;;;;;;;;;;;;;;;;;;
"8320450";;;"Windows 7";"Rachel's Experiment (D.T.)";"1.0";"2";"1";"1";"2";"1";"1";"2014-10-16 12:57:35.577";"2014-10-16 13:10:52.832";"1";"0";"1";"172";"171";"module.devaluation_block1.exec-5238.deval1";"7933";"2014-10-16 13:08:52.322";"17";"3";"7";"7";"2359";"678";"1865";"2014-10-16 13:08:44.397";"2";;;;;;;;;;;;;;;;;;;;;;;;;;;;;;;;;;;;;;;;;;;;;;;;;;;;;;;;;;;;;;;;;;;;;;;;;;;;;;;;
"8320450";;;"Windows 7";"Rachel's Experiment (D.T.)";"1.0";"2";"1";"1";"2";"1";"1";"2014-10-16 12:57:35.577";"2014-10-16 13:10:52.832";"1";"0";"1";"173";"172";"module.devaluation_block1.exec-5238.deval1";"6988";"2014-10-16 13:08:59.326";"14";"7";"8";"8";"1595";"869";"1505";"2014-10-16 13:08:52.337";"2";;;;;;;;;;;;;;;;;;;;;;;;;;;;;;;;;;;;;;;;;;;;;;;;;;;;;;;;;;;;;;;;;;;;;;;;;;;;;;;;
"8320450";;;"Windows 7";"Rachel's Experiment (D.T.)";"1.0";"2";"1";"1";"2";"1";"1";"2014-10-16 12:57:35.577";"2014-10-16 13:10:52.832";"1";"0";"1";"174";"173";"module.devaluation_block1.exec-5238.deval1";"6296";"2014-10-16 13:09:05.644";"21";"8";"8";"8";"1087";"808";"1376";"2014-10-16 13:08:59.357";"3";;;;;;;;;;;;;;;;;;;;;;;;;;;;;;;;;;;;;;;;;;;;;;;;;;;;;;;;;;;;;;;;;;;;;;;;;;;;;;;;
"8320450";;;"Windows 7";"Rachel's Experiment (D.T.)";"1.0";"2";"1";"1";"2";"1";"1";"2014-10-16 12:57:35.577";"2014-10-16 13:10:52.832";"1";"0";"1";"175";"174";"module.devaluation_block1.exec-5238.deval1";"5358";"2014-10-16 13:09:11.026";"12";"7";"7";"7";"681";"974";"671";"2014-10-16 13:09:05.675";"2";;;;;;;;;;;;;;;;;;;;;;;;;;;;;;;;;;;;;;;;;;;;;;;;;;;;;;;;;;;;;;;;;;;;;;;;;;;;;;;;
"8320450";;;"Windows 7";"Rachel's Experiment (D.T.)";"1.0";"2";"1";"1";"2";"1";"1";"2014-10-16 12:57:35.577";"2014-10-16 13:10:52.832";"1";"0";"1";"176";"175";"module.devaluation_block1.exec-5238.deval1";"7230";"2014-10-16 13:09:18.280";"0";"9";"9";"9";"2034";"1046";"1132";"2014-10-16 13:09:11.042";"1";;;;;;;;;;;;;;;;;;;;;;;;;;;;;;;;;;;;;;;;;;;;;;;;;;;;;;;;;;;;;;;;;;;;;;;;;;;;;;;;
"8320450";;;"Windows 7";"Rachel's Experiment (D.T.)";"1.0";"2";"1";"1";"2";"1";"1";"2014-10-16 12:57:35.577";"2014-10-16 13:10:52.832";"1";"0";"1";"177";"176";"module.devaluation_block1.exec-5238.deval1";"6327";"2014-10-16 13:09:24.614";"5";"9";"9";"9";"1212";"1040";"1048";"2014-10-16 13:09:18.296";"1";;;;;;;;;;;;;;;;;;;;;;;;;;;;;;;;;;;;;;;;;;;;;;;;;;;;;;;;;;;;;;;;;;;;;;;;;;;;;;;;
"8320450";;;"Windows 7";"Rachel's Experiment (D.T.)";"1.0";"2";"1";"1";"2";"1";"1";"2014-10-16 12:57:35.577";"2014-10-16 13:10:52.832";"1";"0";"1";"178";"177";"module.devaluation_block1.exec-5238.deval1";"7917";"2014-10-16 13:09:32.554";"15";"3";"8";"7";"807";"2393";"1689";"2014-10-16 13:09:24.645";"2";;;;;;;;;;;;;;;;;;;;;;;;;;;;;;;;;;;;;;;;;;;;;;;;;;;;;;;;;;;;;;;;;;;;;;;;;;;;;;;;
"8320450";;;"Windows 7";"Rachel's Experiment (D.T.)";"1.0";"2";"1";"1";"2";"1";"1";"2014-10-16 12:57:35.577";"2014-10-16 13:10:52.832";"1";"0";"1";"179";"178";"module.devaluation_block1.exec-5238.deval1";"6334";"2014-10-16 13:09:38.904";"11";"4";"8";"7";"690";"836";"1777";"2014-10-16 13:09:32.570";"2";;;;;;;;;;;;;;;;;;;;;;;;;;;;;;;;;;;;;;;;;;;;;;;;;;;;;;;;;;;;;;;;;;;;;;;;;;;;;;;;
"8320450";;;"Windows 7";"Rachel's Experiment (D.T.)";"1.0";"2";"1";"1";"2";"1";"1";"2014-10-16 12:57:35.577";"2014-10-16 13:10:52.832";"1";"0";"1";"180";"179";"module.devaluation_block1.exec-5238.deval1";"6920";"2014-10-16 13:09:45.846";"20";"8";"9";"9";"1845";"1056";"986";"2014-10-16 13:09:38.935";"3";;;;;;;;;;;;;;;;;;;;;;;;;;;;;;;;;;;;;;;;;;;;;;;;;;;;;;;;;;;;;;;;;;;;;;;;;;;;;;;;
"8320450";;;"Windows 7";"Rachel's Experiment (D.T.)";"1.0";"2";"1";"1";"2";"1";"1";"2014-10-16 12:57:35.577";"2014-10-16 13:10:52.832";"1";"0";"1";"181";"180";"module.devaluation_block1.exec-5238.deval1";"8765";"2014-10-16 13:09:54.628";"26";"9";"9";"9";"3743";"995";"989";"2014-10-16 13:09:45.877";"3";;;;;;;;;;;;;;;;;;;;;;;;;;;;;;;;;;;;;;;;;;;;;;;;;;;;;;;;;;;;;;;;;;;;;;;;;;;;;;;;
"8320450";;;"Windows 7";"Rachel's Experiment (D.T.)";"1.0";"2";"1";"1";"2";"1";"1";"2014-10-16 12:57:35.577";"2014-10-16 13:10:52.832";"1";"0";"1";"182";"181";"module.devaluation_block1.exec-5238.deval1";"5701";"2014-10-16 13:10:00.354";"8";"7";"8";"7";"1216";"771";"669";"2014-10-16 13:09:54.660";"1";;;;;;;;;;;;;;;;;;;;;;;;;;;;;;;;;;;;;;;;;;;;;;;;;;;;;;;;;;;;;;;;;;;;;;;;;;;;;;;;
"8320450";;;"Windows 7";"Rachel's Experiment (D.T.)";"1.0";"2";"1";"1";"2";"1";"1";"2014-10-16 12:57:35.577";"2014-10-16 13:10:52.832";"1";"0";"1";"183";"182";"module.devaluation_block1.exec-5238.deval1";"6733";"2014-10-16 13:10:07.108";"9";"3";"8";"7";"683";"800";"2241";"2014-10-16 13:10:00.369";"2";;;;;;;;;;;;;;;;;;;;;;;;;;;;;;;;;;;;;;;;;;;;;;;;;;;;;;;;;;;;;;;;;;;;;;;;;;;;;;;;
"8320450";;;"Windows 7";"Rachel's Experiment (D.T.)";"1.0";"2";"1";"1";"2";"1";"1";"2014-10-16 12:57:35.577";"2014-10-16 13:10:52.832";"1";"0";"1";"184";"183";"module.devaluation_block1.exec-5238.deval1";"6231";"2014-10-16 13:10:13.348";"3";"9";"9";"9";"1184";"948";"1060";"2014-10-16 13:10:07.124";"1";;;;;;;;;;;;;;;;;;;;;;;;;;;;;;;;;;;;;;;;;;;;;;;;;;;;;;;;;;;;;;;;;;;;;;;;;;;;;;;;
"8320450";;;"Windows 7";"Rachel's Experiment (D.T.)";"1.0";"2";"1";"1";"2";"1";"1";"2014-10-16 12:57:35.577";"2014-10-16 13:10:52.832";"1";"0";"1";"185";"184";"module.devaluation_block1.exec-5238.deval1";"6205";"2014-10-16 13:10:19.573";"23";"9";"9";"9";"1144";"1072";"955";"2014-10-16 13:10:13.380";"3";;;;;;;;;;;;;;;;;;;;;;;;;;;;;;;;;;;;;;;;;;;;;;;;;;;;;;;;;;;;;;;;;;;;;;;;;;;;;;;;
"8320450";;;"Windows 7";"Rachel's Experiment (D.T.)";"1.0";"2";"1";"1";"2";"1";"1";"2014-10-16 12:57:35.577";"2014-10-16 13:10:52.832";"1";"0";"1";"186";"185";"module.devaluation_block1.exec-5238.deval1";"4785";"2014-10-16 13:10:24.393";"13";"6";"7";"7";"736";"467";"544";"2014-10-16 13:10:19.604";"2";;;;;;;;;;;;;;;;;;;;;;;;;;;;;;;;;;;;;;;;;;;;;;;;;;;;;;;;;;;;;;;;;;;;;;;;;;;;;;;;
"8320450";;;"Windows 7";"Rachel's Experiment (D.T.)";"1.0";"2";"1";"1";"2";"1";"1";"2014-10-16 12:57:35.577";"2014-10-16 13:10:52.832";"1";"0";"1";"187";"186";"module.devaluation_block1.exec-5238.deval1";"6101";"2014-10-16 13:10:30.508";"4";"9";"9";"9";"1115";"940";"1021";"2014-10-16 13:10:24.409";"1";;;;;;;;;;;;;;;;;;;;;;;;;;;;;;;;;;;;;;;;;;;;;;;;;;;;;;;;;;;;;;;;;;;;;;;;;;;;;;;;
"8320450";;;"Windows 7";"Rachel's Experiment (D.T.)";"1.0";"2";"1";"1";"2";"1";"1";"2014-10-16 12:57:35.577";"2014-10-16 13:10:52.832";"1";"0";"1";"188";"187";"module.devaluation_block1.exec-5238.deval1";"7045";"2014-10-16 13:10:37.575";"22";"8";"9";"9";"904";"812";"2300";"2014-10-16 13:10:30.524";"3";;;;;;;;;;;;;;;;;;;;;;;;;;;;;;;;;;;;;;;;;;;;;;;;;;;;;;;;;;;;;;;;;;;;;;;;;;;;;;;;
"8320450";;;"Windows 7";"Rachel's Experiment (D.T.)";"1.0";"2";"1";"1";"2";"1";"1";"2014-10-16 12:57:35.577";"2014-10-16 13:10:52.832";"1";"0";"1";"189";"188";"module.devaluation_block1.exec-5238.deval1";"5509";"2014-10-16 13:10:43.098";"7";"7";"7";"8";"637";"689";"1147";"2014-10-16 13:10:37.591";"1";;;;;;;;;;;;;;;;;;;;;;;;;;;;;;;;;;;;;;;;;;;;;;;;;;;;;;;;;;;;;;;;;;;;;;;;;;;;;;;;
"8320450";;;"Windows 7";"Rachel's Experiment (D.T.)";"1.0";"2";"1";"1";"2";"1";"1";"2014-10-16 12:57:35.577";"2014-10-16 13:10:52.832";"1";"0";"1";"190";"189";"module.devaluation_block1.exec-5238.deval1";"6645";"2014-10-16 13:10:49.774";"2";"8";"9";"9";"1563";"1109";"936";"2014-10-16 13:10:43.129";"1";;;;;;;;;;;;;;;;;;;;;;;;;;;;;;;;;;;;;;;;;;;;;;;;;;;;;;;;;;;;;;;;;;;;;;;;;;;;;;;;
