"user.name";"user.yearOfBirth";"user.sex";"user.osName";"module.name";"module.version";"module.online.subject.code";"module.online.study.id";"module.online.module.nr";"module.online.group.nr";"session.id";"session.index";"session.startTime";"session.endTime";"session.completed";"session.node-2242.DevalQorder";"session.node-6089.conditionType";"trial.id";"trial.index";"trial.name";"trial.deval1.durationTime";"trial.deval1.endTime";"trial.deval1.icon";"trial.deval1.Resp_Attractive";"trial.deval1.Resp_Eat";"trial.deval1.Resp_Taste";"trial.deval1.RT_Attractive";"trial.deval1.RT_Eat";"trial.deval1.RT_Taste";"trial.deval1.startTime";"trial.deval1.stimulus type";"trial.devalPractice.durationTime";"trial.devalPractice.endTime";"trial.devalPractice.icon";"trial.devalPractice.Resp_Attractive";"trial.devalPractice.Resp_Eat";"trial.devalPractice.Resp_Taste";"trial.devalPractice.RT_Attractive";"trial.devalPractice.RT_Eat";"trial.devalPractice.RT_Taste";"trial.devalPractice.startTime";"trial.devalPractice.stimulus type";"trial.GoNoGo1.durationTime";"trial.GoNoGo1.endTime";"trial.GoNoGo1.Error Type";"trial.GoNoGo1.icon";"trial.GoNoGo1.location";"trial.GoNoGo1.outcome";"trial.GoNoGo1.response";"trial.GoNoGo1.result";"trial.GoNoGo1.RT";"trial.GoNoGo1.signal";"trial.GoNoGo1.startTime";"trial.GoNoGo1.stimulus type";"trial.GoNoGo2.durationTime";"trial.GoNoGo2.endTime";"trial.GoNoGo2.Error Type";"trial.GoNoGo2.icon";"trial.GoNoGo2.location";"trial.GoNoGo2.outcome";"trial.GoNoGo2.response";"trial.GoNoGo2.result";"trial.GoNoGo2.RT";"trial.GoNoGo2.signal";"trial.GoNoGo2.startTime";"trial.GoNoGo2.stimulus type";"trial.GoNoGo3.durationTime";"trial.GoNoGo3.endTime";"trial.GoNoGo3.Error Type";"trial.GoNoGo3.icon";"trial.GoNoGo3.location";"trial.GoNoGo3.outcome";"trial.GoNoGo3.response";"trial.GoNoGo3.result";"trial.GoNoGo3.RT";"trial.GoNoGo3.signal";"trial.GoNoGo3.startTime";"trial.GoNoGo3.stimulus type";"trial.GoNoGo4.durationTime";"trial.GoNoGo4.endTime";"trial.GoNoGo4.Error Type";"trial.GoNoGo4.icon";"trial.GoNoGo4.location";"trial.GoNoGo4.outcome";"trial.GoNoGo4.response";"trial.GoNoGo4.result";"trial.GoNoGo4.RT";"trial.GoNoGo4.signal";"trial.GoNoGo4.startTime";"trial.GoNoGo4.stimulus type";"trial.GoNoGo_Practice.durationTime";"trial.GoNoGo_Practice.endTime";"trial.GoNoGo_Practice.icon";"trial.GoNoGo_Practice.location";"trial.GoNoGo_Practice.outcome";"trial.GoNoGo_Practice.response";"trial.GoNoGo_Practice.result";"trial.GoNoGo_Practice.RT";"trial.GoNoGo_Practice.signal";"trial.GoNoGo_Practice.startTime";"trial.GoNoGo_Practice.stimulus type";"trial.GoNoGo_Tutorial.durationTime";"trial.GoNoGo_Tutorial.endTime";"trial.GoNoGo_Tutorial.icon";"trial.GoNoGo_Tutorial.location";"trial.GoNoGo_Tutorial.outcome";"trial.GoNoGo_Tutorial.response";"trial.GoNoGo_Tutorial.result";"trial.GoNoGo_Tutorial.RT";"trial.GoNoGo_Tutorial.signal";"trial.GoNoGo_Tutorial.startTime"
"quartonjf";"1194";;"Windows 7";"Rachel's Experiment (D.T.)";"1.0";"2";"1";"1";"2";"1";"1";"2014-10-02 14:59:44.453";"2014-10-02 15:12:55.187";"1";"1";"1";"1";"0";"module.GoNoGotutorial.exec-2773.GoNoGo_Tutorial";;;;;;;;;;;;;;;;;;;;;;;;;;;;;;;;;;;;;;;;;;;;;;;;;;;;;;;;;;;;;;;;;;;;;;;;;;;;;;;;;;"3991";"2014-10-02 15:00:57.984";"leftResponse";"0";"FINISHED";"NONE";"failure";"0";"0";"2014-10-02 15:00:53.984"
"quartonjf";"1194";;"Windows 7";"Rachel's Experiment (D.T.)";"1.0";"2";"1";"1";"2";"1";"1";"2014-10-02 14:59:44.453";"2014-10-02 15:12:55.187";"1";"1";"1";"2";"1";"module.GoNoGotutorial.exec-2773.GoNoGo_Tutorial";;;;;;;;;;;;;;;;;;;;;;;;;;;;;;;;;;;;;;;;;;;;;;;;;;;;;;;;;;;;;;;;;;;;;;;;;;;;;;;;;;"3995";"2014-10-02 15:01:03.265";"rightResponse";"1";"FINISHED";"NONE";"failure";"0";"0";"2014-10-02 15:00:59.265"
"quartonjf";"1194";;"Windows 7";"Rachel's Experiment (D.T.)";"1.0";"2";"1";"1";"2";"1";"1";"2014-10-02 14:59:44.453";"2014-10-02 15:12:55.187";"1";"1";"1";"3";"2";"module.GoNoGotutorial.exec-2773.GoNoGo_Tutorial";;;;;;;;;;;;;;;;;;;;;;;;;;;;;;;;;;;;;;;;;;;;;;;;;;;;;;;;;;;;;;;;;;;;;;;;;;;;;;;;;;"3994";"2014-10-02 15:01:08.531";"signalResponse";"0";"FINISHED";"NONE";"success";"0";"1";"2014-10-02 15:01:04.531"
"quartonjf";"1194";;"Windows 7";"Rachel's Experiment (D.T.)";"1.0";"2";"1";"1";"2";"1";"1";"2014-10-02 14:59:44.453";"2014-10-02 15:12:55.187";"1";"1";"1";"4";"3";"module.GoNoGopractice.exec-9279.GoNoGo_Practice";;;;;;;;;;;;;;;;;;;;;;;;;;;;;;;;;;;;;;;;;;;;;;;;;;;;;;;;;;;;;;;;;;;;;;;"1947";"2014-10-02 15:01:19.125";"18";"0";"FINISHED";"LEFT";"success";"676";"0";"2014-10-02 15:01:17.171";"3";;;;;;;;;;
"quartonjf";"1194";;"Windows 7";"Rachel's Experiment (D.T.)";"1.0";"2";"1";"1";"2";"1";"1";"2014-10-02 14:59:44.453";"2014-10-02 15:12:55.187";"1";"1";"1";"5";"4";"module.GoNoGopractice.exec-9279.GoNoGo_Practice";;;;;;;;;;;;;;;;;;;;;;;;;;;;;;;;;;;;;;;;;;;;;;;;;;;;;;;;;;;;;;;;;;;;;;;"1947";"2014-10-02 15:01:22.343";"21";"1";"FINISHED";"RIGHT";"success";"545";"0";"2014-10-02 15:01:20.390";"3";;;;;;;;;;
"quartonjf";"1194";;"Windows 7";"Rachel's Experiment (D.T.)";"1.0";"2";"1";"1";"2";"1";"1";"2014-10-02 14:59:44.453";"2014-10-02 15:12:55.187";"1";"1";"1";"6";"5";"module.GoNoGopractice.exec-9279.GoNoGo_Practice";;;;;;;;;;;;;;;;;;;;;;;;;;;;;;;;;;;;;;;;;;;;;;;;;;;;;;;;;;;;;;;;;;;;;;;"1947";"2014-10-02 15:01:25.562";"14";"1";"FINISHED";"RIGHT";"failure";"718";"1";"2014-10-02 15:01:23.609";"2";;;;;;;;;;
"quartonjf";"1194";;"Windows 7";"Rachel's Experiment (D.T.)";"1.0";"2";"1";"1";"2";"1";"1";"2014-10-02 14:59:44.453";"2014-10-02 15:12:55.187";"1";"1";"1";"7";"6";"module.GoNoGopractice.exec-9279.GoNoGo_Practice";;;;;;;;;;;;;;;;;;;;;;;;;;;;;;;;;;;;;;;;;;;;;;;;;;;;;;;;;;;;;;;;;;;;;;;"1946";"2014-10-02 15:01:28.781";"26";"0";"FINISHED";"LEFT";"success";"523";"0";"2014-10-02 15:01:26.828";"3";;;;;;;;;;
"quartonjf";"1194";;"Windows 7";"Rachel's Experiment (D.T.)";"1.0";"2";"1";"1";"2";"1";"1";"2014-10-02 14:59:44.453";"2014-10-02 15:12:55.187";"1";"1";"1";"8";"7";"module.GoNoGopractice.exec-9279.GoNoGo_Practice";;;;;;;;;;;;;;;;;;;;;;;;;;;;;;;;;;;;;;;;;;;;;;;;;;;;;;;;;;;;;;;;;;;;;;;"1948";"2014-10-02 15:01:32.000";"2";"0";"FINISHED";"LEFT";"success";"745";"0";"2014-10-02 15:01:30.046";"1";;;;;;;;;;
"quartonjf";"1194";;"Windows 7";"Rachel's Experiment (D.T.)";"1.0";"2";"1";"1";"2";"1";"1";"2014-10-02 14:59:44.453";"2014-10-02 15:12:55.187";"1";"1";"1";"9";"8";"module.GoNoGopractice.exec-9279.GoNoGo_Practice";;;;;;;;;;;;;;;;;;;;;;;;;;;;;;;;;;;;;;;;;;;;;;;;;;;;;;;;;;;;;;;;;;;;;;;"1948";"2014-10-02 15:01:35.218";"30";"0";"FINISHED";"NONE";"success";"0";"1";"2014-10-02 15:01:33.265";"3";;;;;;;;;;
"quartonjf";"1194";;"Windows 7";"Rachel's Experiment (D.T.)";"1.0";"2";"1";"1";"2";"1";"1";"2014-10-02 14:59:44.453";"2014-10-02 15:12:55.187";"1";"1";"1";"10";"9";"module.GoNoGopractice.exec-9279.GoNoGo_Practice";;;;;;;;;;;;;;;;;;;;;;;;;;;;;;;;;;;;;;;;;;;;;;;;;;;;;;;;;;;;;;;;;;;;;;;"1947";"2014-10-02 15:01:38.437";"6";"1";"FINISHED";"RIGHT";"failure";"563";"1";"2014-10-02 15:01:36.484";"1";;;;;;;;;;
"quartonjf";"1194";;"Windows 7";"Rachel's Experiment (D.T.)";"1.0";"2";"1";"1";"2";"1";"1";"2014-10-02 14:59:44.453";"2014-10-02 15:12:55.187";"1";"1";"1";"11";"10";"module.GoNoGopractice.exec-9279.GoNoGo_Practice";;;;;;;;;;;;;;;;;;;;;;;;;;;;;;;;;;;;;;;;;;;;;;;;;;;;;;;;;;;;;;;;;;;;;;;"1948";"2014-10-02 15:01:41.656";"34";"0";"FINISHED";"LEFT";"success";"946";"0";"2014-10-02 15:01:39.703";"3";;;;;;;;;;
"quartonjf";"1194";;"Windows 7";"Rachel's Experiment (D.T.)";"1.0";"2";"1";"1";"2";"1";"1";"2014-10-02 14:59:44.453";"2014-10-02 15:12:55.187";"1";"1";"1";"12";"11";"module.GoNoGopractice.exec-9279.GoNoGo_Practice";;;;;;;;;;;;;;;;;;;;;;;;;;;;;;;;;;;;;;;;;;;;;;;;;;;;;;;;;;;;;;;;;;;;;;;"1948";"2014-10-02 15:01:44.875";"23";"1";"FINISHED";"RIGHT";"success";"1094";"0";"2014-10-02 15:01:42.921";"3";;;;;;;;;;
"quartonjf";"1194";;"Windows 7";"Rachel's Experiment (D.T.)";"1.0";"2";"1";"1";"2";"1";"1";"2014-10-02 14:59:44.453";"2014-10-02 15:12:55.187";"1";"1";"1";"13";"12";"module.GoNoGopractice.exec-9279.GoNoGo_Practice";;;;;;;;;;;;;;;;;;;;;;;;;;;;;;;;;;;;;;;;;;;;;;;;;;;;;;;;;;;;;;;;;;;;;;;"1942";"2014-10-02 15:01:48.218";"13";"0";"FINISHED";"NONE";"success";"0";"1";"2014-10-02 15:01:46.265";"2";;;;;;;;;;
"quartonjf";"1194";;"Windows 7";"Rachel's Experiment (D.T.)";"1.0";"2";"1";"1";"2";"1";"1";"2014-10-02 14:59:44.453";"2014-10-02 15:12:55.187";"1";"1";"1";"14";"13";"module.GoNoGopractice.exec-9279.GoNoGo_Practice";;;;;;;;;;;;;;;;;;;;;;;;;;;;;;;;;;;;;;;;;;;;;;;;;;;;;;;;;;;;;;;;;;;;;;;"1948";"2014-10-02 15:01:51.437";"3";"1";"FINISHED";"RIGHT";"success";"588";"0";"2014-10-02 15:01:49.484";"1";;;;;;;;;;
"quartonjf";"1194";;"Windows 7";"Rachel's Experiment (D.T.)";"1.0";"2";"1";"1";"2";"1";"1";"2014-10-02 14:59:44.453";"2014-10-02 15:12:55.187";"1";"1";"1";"15";"14";"module.GoNoGopractice.exec-9279.GoNoGo_Practice";;;;;;;;;;;;;;;;;;;;;;;;;;;;;;;;;;;;;;;;;;;;;;;;;;;;;;;;;;;;;;;;;;;;;;;"1948";"2014-10-02 15:01:54.656";"27";"1";"FINISHED";"NONE";"success";"0";"1";"2014-10-02 15:01:52.703";"3";;;;;;;;;;
"quartonjf";"1194";;"Windows 7";"Rachel's Experiment (D.T.)";"1.0";"2";"1";"1";"2";"1";"1";"2014-10-02 14:59:44.453";"2014-10-02 15:12:55.187";"1";"1";"1";"16";"15";"module.training_block1.exec-4942.GoNoGo1";;;;;;;;;;;;;;;;;;;;;;;"1244";"2014-10-02 15:02:04.781";"ST_correctStop";"5";"0";"FINISHED";"NONE";"success";"0";"1";"2014-10-02 15:02:03.531";"1";;;;;;;;;;;;;;;;;;;;;;;;;;;;;;;;;;;;;;;;;;;;;;;;;;;;;;;;;
"quartonjf";"1194";;"Windows 7";"Rachel's Experiment (D.T.)";"1.0";"2";"1";"1";"2";"1";"1";"2014-10-02 14:59:44.453";"2014-10-02 15:12:55.187";"1";"1";"1";"17";"16";"module.training_block1.exec-4942.GoNoGo1";;;;;;;;;;;;;;;;;;;;;;;"1245";"2014-10-02 15:02:07.296";"NST_correctLoc";"30";"1";"FINISHED";"RIGHT";"success";"657";"0";"2014-10-02 15:02:06.046";"3";;;;;;;;;;;;;;;;;;;;;;;;;;;;;;;;;;;;;;;;;;;;;;;;;;;;;;;;;
"quartonjf";"1194";;"Windows 7";"Rachel's Experiment (D.T.)";"1.0";"2";"1";"1";"2";"1";"1";"2014-10-02 14:59:44.453";"2014-10-02 15:12:55.187";"1";"1";"1";"18";"17";"module.training_block1.exec-4942.GoNoGo1";;;;;;;;;;;;;;;;;;;;;;;"1245";"2014-10-02 15:02:09.812";"NST_correctLoc";"28";"0";"FINISHED";"LEFT";"success";"469";"0";"2014-10-02 15:02:08.562";"3";;;;;;;;;;;;;;;;;;;;;;;;;;;;;;;;;;;;;;;;;;;;;;;;;;;;;;;;;
"quartonjf";"1194";;"Windows 7";"Rachel's Experiment (D.T.)";"1.0";"2";"1";"1";"2";"1";"1";"2014-10-02 14:59:44.453";"2014-10-02 15:12:55.187";"1";"1";"1";"19";"18";"module.training_block1.exec-4942.GoNoGo1";;;;;;;;;;;;;;;;;;;;;;;"1244";"2014-10-02 15:02:12.328";"NST_correctLoc";"17";"1";"FINISHED";"RIGHT";"success";"497";"0";"2014-10-02 15:02:11.078";"2";;;;;;;;;;;;;;;;;;;;;;;;;;;;;;;;;;;;;;;;;;;;;;;;;;;;;;;;;
"quartonjf";"1194";;"Windows 7";"Rachel's Experiment (D.T.)";"1.0";"2";"1";"1";"2";"1";"1";"2014-10-02 14:59:44.453";"2014-10-02 15:12:55.187";"1";"1";"1";"20";"19";"module.training_block1.exec-4942.GoNoGo1";;;;;;;;;;;;;;;;;;;;;;;"1245";"2014-10-02 15:02:14.843";"ST_correctStop";"35";"1";"FINISHED";"NONE";"success";"0";"1";"2014-10-02 15:02:13.593";"3";;;;;;;;;;;;;;;;;;;;;;;;;;;;;;;;;;;;;;;;;;;;;;;;;;;;;;;;;
"quartonjf";"1194";;"Windows 7";"Rachel's Experiment (D.T.)";"1.0";"2";"1";"1";"2";"1";"1";"2014-10-02 14:59:44.453";"2014-10-02 15:12:55.187";"1";"1";"1";"21";"20";"module.training_block1.exec-4942.GoNoGo1";;;;;;;;;;;;;;;;;;;;;;;"1248";"2014-10-02 15:02:17.359";"NST_correctLoc";"13";"0";"FINISHED";"LEFT";"success";"454";"0";"2014-10-02 15:02:16.109";"2";;;;;;;;;;;;;;;;;;;;;;;;;;;;;;;;;;;;;;;;;;;;;;;;;;;;;;;;;
"quartonjf";"1194";;"Windows 7";"Rachel's Experiment (D.T.)";"1.0";"2";"1";"1";"2";"1";"1";"2014-10-02 14:59:44.453";"2014-10-02 15:12:55.187";"1";"1";"1";"22";"21";"module.training_block1.exec-4942.GoNoGo1";;;;;;;;;;;;;;;;;;;;;;;"1248";"2014-10-02 15:02:19.875";"ST_correctStop";"3";"1";"FINISHED";"NONE";"success";"0";"1";"2014-10-02 15:02:18.625";"1";;;;;;;;;;;;;;;;;;;;;;;;;;;;;;;;;;;;;;;;;;;;;;;;;;;;;;;;;
"quartonjf";"1194";;"Windows 7";"Rachel's Experiment (D.T.)";"1.0";"2";"1";"1";"2";"1";"1";"2014-10-02 14:59:44.453";"2014-10-02 15:12:55.187";"1";"1";"1";"23";"22";"module.training_block1.exec-4942.GoNoGo1";;;;;;;;;;;;;;;;;;;;;;;"1244";"2014-10-02 15:02:22.390";"NST_correctLoc";"20";"0";"FINISHED";"LEFT";"success";"674";"0";"2014-10-02 15:02:21.140";"3";;;;;;;;;;;;;;;;;;;;;;;;;;;;;;;;;;;;;;;;;;;;;;;;;;;;;;;;;
"quartonjf";"1194";;"Windows 7";"Rachel's Experiment (D.T.)";"1.0";"2";"1";"1";"2";"1";"1";"2014-10-02 14:59:44.453";"2014-10-02 15:12:55.187";"1";"1";"1";"24";"23";"module.training_block1.exec-4942.GoNoGo1";;;;;;;;;;;;;;;;;;;;;;;"1244";"2014-10-02 15:02:24.906";"ST_correctStop";"31";"0";"FINISHED";"NONE";"success";"0";"1";"2014-10-02 15:02:23.656";"3";;;;;;;;;;;;;;;;;;;;;;;;;;;;;;;;;;;;;;;;;;;;;;;;;;;;;;;;;
"quartonjf";"1194";;"Windows 7";"Rachel's Experiment (D.T.)";"1.0";"2";"1";"1";"2";"1";"1";"2014-10-02 14:59:44.453";"2014-10-02 15:12:55.187";"1";"1";"1";"25";"24";"module.training_block1.exec-4942.GoNoGo1";;;;;;;;;;;;;;;;;;;;;;;"1245";"2014-10-02 15:02:27.421";"NST_correctLoc";"34";"1";"FINISHED";"RIGHT";"success";"652";"0";"2014-10-02 15:02:26.171";"3";;;;;;;;;;;;;;;;;;;;;;;;;;;;;;;;;;;;;;;;;;;;;;;;;;;;;;;;;
"quartonjf";"1194";;"Windows 7";"Rachel's Experiment (D.T.)";"1.0";"2";"1";"1";"2";"1";"1";"2014-10-02 14:59:44.453";"2014-10-02 15:12:55.187";"1";"1";"1";"26";"25";"module.training_block1.exec-4942.GoNoGo1";;;;;;;;;;;;;;;;;;;;;;;"1245";"2014-10-02 15:02:29.937";"NST_correctLoc";"29";"0";"FINISHED";"LEFT";"success";"552";"0";"2014-10-02 15:02:28.687";"3";;;;;;;;;;;;;;;;;;;;;;;;;;;;;;;;;;;;;;;;;;;;;;;;;;;;;;;;;
"quartonjf";"1194";;"Windows 7";"Rachel's Experiment (D.T.)";"1.0";"2";"1";"1";"2";"1";"1";"2014-10-02 14:59:44.453";"2014-10-02 15:12:55.187";"1";"1";"1";"27";"26";"module.training_block1.exec-4942.GoNoGo1";;;;;;;;;;;;;;;;;;;;;;;"1240";"2014-10-02 15:02:32.453";"NST_correctLoc";"12";"1";"FINISHED";"RIGHT";"success";"536";"0";"2014-10-02 15:02:31.203";"2";;;;;;;;;;;;;;;;;;;;;;;;;;;;;;;;;;;;;;;;;;;;;;;;;;;;;;;;;
"quartonjf";"1194";;"Windows 7";"Rachel's Experiment (D.T.)";"1.0";"2";"1";"1";"2";"1";"1";"2014-10-02 14:59:44.453";"2014-10-02 15:12:55.187";"1";"1";"1";"28";"27";"module.training_block1.exec-4942.GoNoGo1";;;;;;;;;;;;;;;;;;;;;;;"1244";"2014-10-02 15:02:34.968";"ST_correctStop";"4";"0";"FINISHED";"NONE";"success";"0";"1";"2014-10-02 15:02:33.718";"1";;;;;;;;;;;;;;;;;;;;;;;;;;;;;;;;;;;;;;;;;;;;;;;;;;;;;;;;;
"quartonjf";"1194";;"Windows 7";"Rachel's Experiment (D.T.)";"1.0";"2";"1";"1";"2";"1";"1";"2014-10-02 14:59:44.453";"2014-10-02 15:12:55.187";"1";"1";"1";"29";"28";"module.training_block1.exec-4942.GoNoGo1";;;;;;;;;;;;;;;;;;;;;;;"1245";"2014-10-02 15:02:37.484";"ST_correctStop";"1";"0";"FINISHED";"NONE";"success";"0";"1";"2014-10-02 15:02:36.234";"1";;;;;;;;;;;;;;;;;;;;;;;;;;;;;;;;;;;;;;;;;;;;;;;;;;;;;;;;;
"quartonjf";"1194";;"Windows 7";"Rachel's Experiment (D.T.)";"1.0";"2";"1";"1";"2";"1";"1";"2014-10-02 14:59:44.453";"2014-10-02 15:12:55.187";"1";"1";"1";"30";"29";"module.training_block1.exec-4942.GoNoGo1";;;;;;;;;;;;;;;;;;;;;;;"1244";"2014-10-02 15:02:40.000";"NST_correctLoc";"14";"0";"FINISHED";"LEFT";"success";"809";"0";"2014-10-02 15:02:38.750";"2";;;;;;;;;;;;;;;;;;;;;;;;;;;;;;;;;;;;;;;;;;;;;;;;;;;;;;;;;
"quartonjf";"1194";;"Windows 7";"Rachel's Experiment (D.T.)";"1.0";"2";"1";"1";"2";"1";"1";"2014-10-02 14:59:44.453";"2014-10-02 15:12:55.187";"1";"1";"1";"31";"30";"module.training_block1.exec-4942.GoNoGo1";;;;;;;;;;;;;;;;;;;;;;;"1245";"2014-10-02 15:02:42.515";"ST_correctStop";"22";"0";"FINISHED";"NONE";"success";"0";"1";"2014-10-02 15:02:41.265";"3";;;;;;;;;;;;;;;;;;;;;;;;;;;;;;;;;;;;;;;;;;;;;;;;;;;;;;;;;
"quartonjf";"1194";;"Windows 7";"Rachel's Experiment (D.T.)";"1.0";"2";"1";"1";"2";"1";"1";"2014-10-02 14:59:44.453";"2014-10-02 15:12:55.187";"1";"1";"1";"32";"31";"module.training_block1.exec-4942.GoNoGo1";;;;;;;;;;;;;;;;;;;;;;;"1244";"2014-10-02 15:02:45.031";"NST_correctLoc";"15";"1";"FINISHED";"RIGHT";"success";"466";"0";"2014-10-02 15:02:43.781";"2";;;;;;;;;;;;;;;;;;;;;;;;;;;;;;;;;;;;;;;;;;;;;;;;;;;;;;;;;
"quartonjf";"1194";;"Windows 7";"Rachel's Experiment (D.T.)";"1.0";"2";"1";"1";"2";"1";"1";"2014-10-02 14:59:44.453";"2014-10-02 15:12:55.187";"1";"1";"1";"33";"32";"module.training_block1.exec-4942.GoNoGo1";;;;;;;;;;;;;;;;;;;;;;;"1245";"2014-10-02 15:02:47.546";"ST_correctStop";"24";"1";"FINISHED";"NONE";"success";"0";"1";"2014-10-02 15:02:46.296";"3";;;;;;;;;;;;;;;;;;;;;;;;;;;;;;;;;;;;;;;;;;;;;;;;;;;;;;;;;
"quartonjf";"1194";;"Windows 7";"Rachel's Experiment (D.T.)";"1.0";"2";"1";"1";"2";"1";"1";"2014-10-02 14:59:44.453";"2014-10-02 15:12:55.187";"1";"1";"1";"34";"33";"module.training_block1.exec-4942.GoNoGo1";;;;;;;;;;;;;;;;;;;;;;;"1244";"2014-10-02 15:02:50.062";"ST_correctStop";"7";"1";"FINISHED";"NONE";"success";"0";"1";"2014-10-02 15:02:48.812";"1";;;;;;;;;;;;;;;;;;;;;;;;;;;;;;;;;;;;;;;;;;;;;;;;;;;;;;;;;
"quartonjf";"1194";;"Windows 7";"Rachel's Experiment (D.T.)";"1.0";"2";"1";"1";"2";"1";"1";"2014-10-02 14:59:44.453";"2014-10-02 15:12:55.187";"1";"1";"1";"35";"34";"module.training_block1.exec-4942.GoNoGo1";;;;;;;;;;;;;;;;;;;;;;;"1244";"2014-10-02 15:02:52.578";"NST_correctLoc";"11";"0";"FINISHED";"LEFT";"success";"494";"0";"2014-10-02 15:02:51.328";"2";;;;;;;;;;;;;;;;;;;;;;;;;;;;;;;;;;;;;;;;;;;;;;;;;;;;;;;;;
"quartonjf";"1194";;"Windows 7";"Rachel's Experiment (D.T.)";"1.0";"2";"1";"1";"2";"1";"1";"2014-10-02 14:59:44.453";"2014-10-02 15:12:55.187";"1";"1";"1";"36";"35";"module.training_block1.exec-4942.GoNoGo1";;;;;;;;;;;;;;;;;;;;;;;"1244";"2014-10-02 15:02:55.093";"ST_correctStop";"21";"0";"FINISHED";"NONE";"success";"0";"1";"2014-10-02 15:02:53.843";"3";;;;;;;;;;;;;;;;;;;;;;;;;;;;;;;;;;;;;;;;;;;;;;;;;;;;;;;;;
"quartonjf";"1194";;"Windows 7";"Rachel's Experiment (D.T.)";"1.0";"2";"1";"1";"2";"1";"1";"2014-10-02 14:59:44.453";"2014-10-02 15:12:55.187";"1";"1";"1";"37";"36";"module.training_block1.exec-4942.GoNoGo1";;;;;;;;;;;;;;;;;;;;;;;"1244";"2014-10-02 15:02:57.609";"ST_failedStop";"8";"0";"FINISHED";"LEFT";"failure";"471";"1";"2014-10-02 15:02:56.359";"1";;;;;;;;;;;;;;;;;;;;;;;;;;;;;;;;;;;;;;;;;;;;;;;;;;;;;;;;;
"quartonjf";"1194";;"Windows 7";"Rachel's Experiment (D.T.)";"1.0";"2";"1";"1";"2";"1";"1";"2014-10-02 14:59:44.453";"2014-10-02 15:12:55.187";"1";"1";"1";"38";"37";"module.training_block1.exec-4942.GoNoGo1";;;;;;;;;;;;;;;;;;;;;;;"1244";"2014-10-02 15:03:00.125";"ST_correctStop";"26";"1";"FINISHED";"NONE";"success";"0";"1";"2014-10-02 15:02:58.875";"3";;;;;;;;;;;;;;;;;;;;;;;;;;;;;;;;;;;;;;;;;;;;;;;;;;;;;;;;;
"quartonjf";"1194";;"Windows 7";"Rachel's Experiment (D.T.)";"1.0";"2";"1";"1";"2";"1";"1";"2014-10-02 14:59:44.453";"2014-10-02 15:12:55.187";"1";"1";"1";"39";"38";"module.training_block1.exec-4942.GoNoGo1";;;;;;;;;;;;;;;;;;;;;;;"1244";"2014-10-02 15:03:02.640";"ST_correctStop";"0";"1";"FINISHED";"NONE";"success";"0";"1";"2014-10-02 15:03:01.390";"1";;;;;;;;;;;;;;;;;;;;;;;;;;;;;;;;;;;;;;;;;;;;;;;;;;;;;;;;;
"quartonjf";"1194";;"Windows 7";"Rachel's Experiment (D.T.)";"1.0";"2";"1";"1";"2";"1";"1";"2014-10-02 14:59:44.453";"2014-10-02 15:12:55.187";"1";"1";"1";"40";"39";"module.training_block1.exec-4942.GoNoGo1";;;;;;;;;;;;;;;;;;;;;;;"1245";"2014-10-02 15:03:05.156";"NST_correctLoc";"16";"1";"FINISHED";"RIGHT";"success";"565";"0";"2014-10-02 15:03:03.906";"2";;;;;;;;;;;;;;;;;;;;;;;;;;;;;;;;;;;;;;;;;;;;;;;;;;;;;;;;;
"quartonjf";"1194";;"Windows 7";"Rachel's Experiment (D.T.)";"1.0";"2";"1";"1";"2";"1";"1";"2014-10-02 14:59:44.453";"2014-10-02 15:12:55.187";"1";"1";"1";"41";"40";"module.training_block1.exec-4942.GoNoGo1";;;;;;;;;;;;;;;;;;;;;;;"1245";"2014-10-02 15:03:07.671";"NST_correctLoc";"10";"1";"FINISHED";"RIGHT";"success";"961";"0";"2014-10-02 15:03:06.421";"2";;;;;;;;;;;;;;;;;;;;;;;;;;;;;;;;;;;;;;;;;;;;;;;;;;;;;;;;;
"quartonjf";"1194";;"Windows 7";"Rachel's Experiment (D.T.)";"1.0";"2";"1";"1";"2";"1";"1";"2014-10-02 14:59:44.453";"2014-10-02 15:12:55.187";"1";"1";"1";"42";"41";"module.training_block1.exec-4942.GoNoGo1";;;;;;;;;;;;;;;;;;;;;;;"1240";"2014-10-02 15:03:10.187";"NST_correctLoc";"33";"1";"FINISHED";"RIGHT";"success";"649";"0";"2014-10-02 15:03:08.937";"3";;;;;;;;;;;;;;;;;;;;;;;;;;;;;;;;;;;;;;;;;;;;;;;;;;;;;;;;;
"quartonjf";"1194";;"Windows 7";"Rachel's Experiment (D.T.)";"1.0";"2";"1";"1";"2";"1";"1";"2014-10-02 14:59:44.453";"2014-10-02 15:12:55.187";"1";"1";"1";"43";"42";"module.training_block1.exec-4942.GoNoGo1";;;;;;;;;;;;;;;;;;;;;;;"1245";"2014-10-02 15:03:12.703";"ST_correctStop";"2";"1";"FINISHED";"NONE";"success";"0";"1";"2014-10-02 15:03:11.453";"1";;;;;;;;;;;;;;;;;;;;;;;;;;;;;;;;;;;;;;;;;;;;;;;;;;;;;;;;;
"quartonjf";"1194";;"Windows 7";"Rachel's Experiment (D.T.)";"1.0";"2";"1";"1";"2";"1";"1";"2014-10-02 14:59:44.453";"2014-10-02 15:12:55.187";"1";"1";"1";"44";"43";"module.training_block1.exec-4942.GoNoGo1";;;;;;;;;;;;;;;;;;;;;;;"1248";"2014-10-02 15:03:15.218";"ST_correctStop";"27";"1";"FINISHED";"NONE";"success";"0";"1";"2014-10-02 15:03:13.968";"3";;;;;;;;;;;;;;;;;;;;;;;;;;;;;;;;;;;;;;;;;;;;;;;;;;;;;;;;;
"quartonjf";"1194";;"Windows 7";"Rachel's Experiment (D.T.)";"1.0";"2";"1";"1";"2";"1";"1";"2014-10-02 14:59:44.453";"2014-10-02 15:12:55.187";"1";"1";"1";"45";"44";"module.training_block1.exec-4942.GoNoGo1";;;;;;;;;;;;;;;;;;;;;;;"1245";"2014-10-02 15:03:17.734";"ST_correctStop";"25";"0";"FINISHED";"NONE";"success";"0";"1";"2014-10-02 15:03:16.484";"3";;;;;;;;;;;;;;;;;;;;;;;;;;;;;;;;;;;;;;;;;;;;;;;;;;;;;;;;;
"quartonjf";"1194";;"Windows 7";"Rachel's Experiment (D.T.)";"1.0";"2";"1";"1";"2";"1";"1";"2014-10-02 14:59:44.453";"2014-10-02 15:12:55.187";"1";"1";"1";"46";"45";"module.training_block1.exec-4942.GoNoGo1";;;;;;;;;;;;;;;;;;;;;;;"1245";"2014-10-02 15:03:20.250";"NST_correctLoc";"9";"0";"FINISHED";"LEFT";"success";"479";"0";"2014-10-02 15:03:19.000";"2";;;;;;;;;;;;;;;;;;;;;;;;;;;;;;;;;;;;;;;;;;;;;;;;;;;;;;;;;
"quartonjf";"1194";;"Windows 7";"Rachel's Experiment (D.T.)";"1.0";"2";"1";"1";"2";"1";"1";"2014-10-02 14:59:44.453";"2014-10-02 15:12:55.187";"1";"1";"1";"47";"46";"module.training_block1.exec-4942.GoNoGo1";;;;;;;;;;;;;;;;;;;;;;;"1244";"2014-10-02 15:03:22.765";"NST_correctLoc";"32";"1";"FINISHED";"RIGHT";"success";"538";"0";"2014-10-02 15:03:21.515";"3";;;;;;;;;;;;;;;;;;;;;;;;;;;;;;;;;;;;;;;;;;;;;;;;;;;;;;;;;
"quartonjf";"1194";;"Windows 7";"Rachel's Experiment (D.T.)";"1.0";"2";"1";"1";"2";"1";"1";"2014-10-02 14:59:44.453";"2014-10-02 15:12:55.187";"1";"1";"1";"48";"47";"module.training_block1.exec-4942.GoNoGo1";;;;;;;;;;;;;;;;;;;;;;;"1244";"2014-10-02 15:03:25.281";"ST_correctStop";"23";"1";"FINISHED";"NONE";"success";"0";"1";"2014-10-02 15:03:24.031";"3";;;;;;;;;;;;;;;;;;;;;;;;;;;;;;;;;;;;;;;;;;;;;;;;;;;;;;;;;
"quartonjf";"1194";;"Windows 7";"Rachel's Experiment (D.T.)";"1.0";"2";"1";"1";"2";"1";"1";"2014-10-02 14:59:44.453";"2014-10-02 15:12:55.187";"1";"1";"1";"49";"48";"module.training_block1.exec-4942.GoNoGo1";;;;;;;;;;;;;;;;;;;;;;;"1245";"2014-10-02 15:03:27.828";"NST_correctLoc";"18";"0";"FINISHED";"LEFT";"success";"589";"0";"2014-10-02 15:03:26.578";"3";;;;;;;;;;;;;;;;;;;;;;;;;;;;;;;;;;;;;;;;;;;;;;;;;;;;;;;;;
"quartonjf";"1194";;"Windows 7";"Rachel's Experiment (D.T.)";"1.0";"2";"1";"1";"2";"1";"1";"2014-10-02 14:59:44.453";"2014-10-02 15:12:55.187";"1";"1";"1";"50";"49";"module.training_block1.exec-4942.GoNoGo1";;;;;;;;;;;;;;;;;;;;;;;"1244";"2014-10-02 15:03:30.343";"ST_correctStop";"6";"1";"FINISHED";"NONE";"success";"0";"1";"2014-10-02 15:03:29.093";"1";;;;;;;;;;;;;;;;;;;;;;;;;;;;;;;;;;;;;;;;;;;;;;;;;;;;;;;;;
"quartonjf";"1194";;"Windows 7";"Rachel's Experiment (D.T.)";"1.0";"2";"1";"1";"2";"1";"1";"2014-10-02 14:59:44.453";"2014-10-02 15:12:55.187";"1";"1";"1";"51";"50";"module.training_block1.exec-4942.GoNoGo1";;;;;;;;;;;;;;;;;;;;;;;"1245";"2014-10-02 15:03:32.859";"NST_correctLoc";"19";"0";"FINISHED";"LEFT";"success";"629";"0";"2014-10-02 15:03:31.609";"3";;;;;;;;;;;;;;;;;;;;;;;;;;;;;;;;;;;;;;;;;;;;;;;;;;;;;;;;;
"quartonjf";"1194";;"Windows 7";"Rachel's Experiment (D.T.)";"1.0";"2";"1";"1";"2";"1";"1";"2014-10-02 14:59:44.453";"2014-10-02 15:12:55.187";"1";"1";"1";"52";"51";"module.training_block2.exec-9322.GoNoGo2";;;;;;;;;;;;;;;;;;;;;;;;;;;;;;;;;;;"1248";"2014-10-02 15:03:43.984";"ST_correctStop";"2";"1";"FINISHED";"NONE";"success";"0";"1";"2014-10-02 15:03:42.734";"1";;;;;;;;;;;;;;;;;;;;;;;;;;;;;;;;;;;;;;;;;;;;;
"quartonjf";"1194";;"Windows 7";"Rachel's Experiment (D.T.)";"1.0";"2";"1";"1";"2";"1";"1";"2014-10-02 14:59:44.453";"2014-10-02 15:12:55.187";"1";"1";"1";"53";"52";"module.training_block2.exec-9322.GoNoGo2";;;;;;;;;;;;;;;;;;;;;;;;;;;;;;;;;;;"1248";"2014-10-02 15:03:46.500";"ST_correctStop";"26";"0";"FINISHED";"NONE";"success";"0";"1";"2014-10-02 15:03:45.250";"3";;;;;;;;;;;;;;;;;;;;;;;;;;;;;;;;;;;;;;;;;;;;;
"quartonjf";"1194";;"Windows 7";"Rachel's Experiment (D.T.)";"1.0";"2";"1";"1";"2";"1";"1";"2014-10-02 14:59:44.453";"2014-10-02 15:12:55.187";"1";"1";"1";"54";"53";"module.training_block2.exec-9322.GoNoGo2";;;;;;;;;;;;;;;;;;;;;;;;;;;;;;;;;;;"1248";"2014-10-02 15:03:49.015";"ST_correctStop";"22";"0";"FINISHED";"NONE";"success";"0";"1";"2014-10-02 15:03:47.765";"3";;;;;;;;;;;;;;;;;;;;;;;;;;;;;;;;;;;;;;;;;;;;;
"quartonjf";"1194";;"Windows 7";"Rachel's Experiment (D.T.)";"1.0";"2";"1";"1";"2";"1";"1";"2014-10-02 14:59:44.453";"2014-10-02 15:12:55.187";"1";"1";"1";"55";"54";"module.training_block2.exec-9322.GoNoGo2";;;;;;;;;;;;;;;;;;;;;;;;;;;;;;;;;;;"1248";"2014-10-02 15:03:51.531";"ST_correctStop";"5";"0";"FINISHED";"NONE";"success";"0";"1";"2014-10-02 15:03:50.281";"1";;;;;;;;;;;;;;;;;;;;;;;;;;;;;;;;;;;;;;;;;;;;;
"quartonjf";"1194";;"Windows 7";"Rachel's Experiment (D.T.)";"1.0";"2";"1";"1";"2";"1";"1";"2014-10-02 14:59:44.453";"2014-10-02 15:12:55.187";"1";"1";"1";"56";"55";"module.training_block2.exec-9322.GoNoGo2";;;;;;;;;;;;;;;;;;;;;;;;;;;;;;;;;;;"1248";"2014-10-02 15:03:54.046";"ST_correctStop";"8";"0";"FINISHED";"NONE";"success";"0";"1";"2014-10-02 15:03:52.796";"1";;;;;;;;;;;;;;;;;;;;;;;;;;;;;;;;;;;;;;;;;;;;;
"quartonjf";"1194";;"Windows 7";"Rachel's Experiment (D.T.)";"1.0";"2";"1";"1";"2";"1";"1";"2014-10-02 14:59:44.453";"2014-10-02 15:12:55.187";"1";"1";"1";"57";"56";"module.training_block2.exec-9322.GoNoGo2";;;;;;;;;;;;;;;;;;;;;;;;;;;;;;;;;;;"1248";"2014-10-02 15:03:56.562";"NST_correctLoc";"13";"1";"FINISHED";"RIGHT";"success";"489";"0";"2014-10-02 15:03:55.312";"2";;;;;;;;;;;;;;;;;;;;;;;;;;;;;;;;;;;;;;;;;;;;;
"quartonjf";"1194";;"Windows 7";"Rachel's Experiment (D.T.)";"1.0";"2";"1";"1";"2";"1";"1";"2014-10-02 14:59:44.453";"2014-10-02 15:12:55.187";"1";"1";"1";"58";"57";"module.training_block2.exec-9322.GoNoGo2";;;;;;;;;;;;;;;;;;;;;;;;;;;;;;;;;;;"1248";"2014-10-02 15:03:59.078";"NST_correctLoc";"35";"1";"FINISHED";"RIGHT";"success";"565";"0";"2014-10-02 15:03:57.828";"3";;;;;;;;;;;;;;;;;;;;;;;;;;;;;;;;;;;;;;;;;;;;;
"quartonjf";"1194";;"Windows 7";"Rachel's Experiment (D.T.)";"1.0";"2";"1";"1";"2";"1";"1";"2014-10-02 14:59:44.453";"2014-10-02 15:12:55.187";"1";"1";"1";"59";"58";"module.training_block2.exec-9322.GoNoGo2";;;;;;;;;;;;;;;;;;;;;;;;;;;;;;;;;;;"1248";"2014-10-02 15:04:01.593";"ST_correctStop";"27";"0";"FINISHED";"NONE";"success";"0";"1";"2014-10-02 15:04:00.343";"3";;;;;;;;;;;;;;;;;;;;;;;;;;;;;;;;;;;;;;;;;;;;;
"quartonjf";"1194";;"Windows 7";"Rachel's Experiment (D.T.)";"1.0";"2";"1";"1";"2";"1";"1";"2014-10-02 14:59:44.453";"2014-10-02 15:12:55.187";"1";"1";"1";"60";"59";"module.training_block2.exec-9322.GoNoGo2";;;;;;;;;;;;;;;;;;;;;;;;;;;;;;;;;;;"1248";"2014-10-02 15:04:04.109";"ST_correctStop";"0";"0";"FINISHED";"NONE";"success";"0";"1";"2014-10-02 15:04:02.859";"1";;;;;;;;;;;;;;;;;;;;;;;;;;;;;;;;;;;;;;;;;;;;;
"quartonjf";"1194";;"Windows 7";"Rachel's Experiment (D.T.)";"1.0";"2";"1";"1";"2";"1";"1";"2014-10-02 14:59:44.453";"2014-10-02 15:12:55.187";"1";"1";"1";"61";"60";"module.training_block2.exec-9322.GoNoGo2";;;;;;;;;;;;;;;;;;;;;;;;;;;;;;;;;;;"1248";"2014-10-02 15:04:06.625";"NST_correctLoc";"34";"1";"FINISHED";"RIGHT";"success";"554";"0";"2014-10-02 15:04:05.375";"3";;;;;;;;;;;;;;;;;;;;;;;;;;;;;;;;;;;;;;;;;;;;;
"quartonjf";"1194";;"Windows 7";"Rachel's Experiment (D.T.)";"1.0";"2";"1";"1";"2";"1";"1";"2014-10-02 14:59:44.453";"2014-10-02 15:12:55.187";"1";"1";"1";"62";"61";"module.training_block2.exec-9322.GoNoGo2";;;;;;;;;;;;;;;;;;;;;;;;;;;;;;;;;;;"1248";"2014-10-02 15:04:09.140";"NST_correctLoc";"16";"1";"FINISHED";"RIGHT";"success";"494";"0";"2014-10-02 15:04:07.890";"2";;;;;;;;;;;;;;;;;;;;;;;;;;;;;;;;;;;;;;;;;;;;;
"quartonjf";"1194";;"Windows 7";"Rachel's Experiment (D.T.)";"1.0";"2";"1";"1";"2";"1";"1";"2014-10-02 14:59:44.453";"2014-10-02 15:12:55.187";"1";"1";"1";"63";"62";"module.training_block2.exec-9322.GoNoGo2";;;;;;;;;;;;;;;;;;;;;;;;;;;;;;;;;;;"1248";"2014-10-02 15:04:11.656";"ST_correctStop";"19";"1";"FINISHED";"NONE";"success";"0";"1";"2014-10-02 15:04:10.406";"3";;;;;;;;;;;;;;;;;;;;;;;;;;;;;;;;;;;;;;;;;;;;;
"quartonjf";"1194";;"Windows 7";"Rachel's Experiment (D.T.)";"1.0";"2";"1";"1";"2";"1";"1";"2014-10-02 14:59:44.453";"2014-10-02 15:12:55.187";"1";"1";"1";"64";"63";"module.training_block2.exec-9322.GoNoGo2";;;;;;;;;;;;;;;;;;;;;;;;;;;;;;;;;;;"1248";"2014-10-02 15:04:14.171";"NST_correctLoc";"10";"1";"FINISHED";"RIGHT";"success";"407";"0";"2014-10-02 15:04:12.921";"2";;;;;;;;;;;;;;;;;;;;;;;;;;;;;;;;;;;;;;;;;;;;;
"quartonjf";"1194";;"Windows 7";"Rachel's Experiment (D.T.)";"1.0";"2";"1";"1";"2";"1";"1";"2014-10-02 14:59:44.453";"2014-10-02 15:12:55.187";"1";"1";"1";"65";"64";"module.training_block2.exec-9322.GoNoGo2";;;;;;;;;;;;;;;;;;;;;;;;;;;;;;;;;;;"1248";"2014-10-02 15:04:16.687";"NST_correctLoc";"17";"1";"FINISHED";"RIGHT";"success";"507";"0";"2014-10-02 15:04:15.437";"2";;;;;;;;;;;;;;;;;;;;;;;;;;;;;;;;;;;;;;;;;;;;;
"quartonjf";"1194";;"Windows 7";"Rachel's Experiment (D.T.)";"1.0";"2";"1";"1";"2";"1";"1";"2014-10-02 14:59:44.453";"2014-10-02 15:12:55.187";"1";"1";"1";"66";"65";"module.training_block2.exec-9322.GoNoGo2";;;;;;;;;;;;;;;;;;;;;;;;;;;;;;;;;;;"1248";"2014-10-02 15:04:19.203";"ST_correctStop";"32";"0";"FINISHED";"NONE";"success";"0";"1";"2014-10-02 15:04:17.953";"3";;;;;;;;;;;;;;;;;;;;;;;;;;;;;;;;;;;;;;;;;;;;;
"quartonjf";"1194";;"Windows 7";"Rachel's Experiment (D.T.)";"1.0";"2";"1";"1";"2";"1";"1";"2014-10-02 14:59:44.453";"2014-10-02 15:12:55.187";"1";"1";"1";"67";"66";"module.training_block2.exec-9322.GoNoGo2";;;;;;;;;;;;;;;;;;;;;;;;;;;;;;;;;;;"1248";"2014-10-02 15:04:21.718";"ST_correctStop";"7";"1";"FINISHED";"NONE";"success";"0";"1";"2014-10-02 15:04:20.468";"1";;;;;;;;;;;;;;;;;;;;;;;;;;;;;;;;;;;;;;;;;;;;;
"quartonjf";"1194";;"Windows 7";"Rachel's Experiment (D.T.)";"1.0";"2";"1";"1";"2";"1";"1";"2014-10-02 14:59:44.453";"2014-10-02 15:12:55.187";"1";"1";"1";"68";"67";"module.training_block2.exec-9322.GoNoGo2";;;;;;;;;;;;;;;;;;;;;;;;;;;;;;;;;;;"1248";"2014-10-02 15:04:24.234";"NST_correctLoc";"15";"0";"FINISHED";"LEFT";"success";"552";"0";"2014-10-02 15:04:22.984";"2";;;;;;;;;;;;;;;;;;;;;;;;;;;;;;;;;;;;;;;;;;;;;
"quartonjf";"1194";;"Windows 7";"Rachel's Experiment (D.T.)";"1.0";"2";"1";"1";"2";"1";"1";"2014-10-02 14:59:44.453";"2014-10-02 15:12:55.187";"1";"1";"1";"69";"68";"module.training_block2.exec-9322.GoNoGo2";;;;;;;;;;;;;;;;;;;;;;;;;;;;;;;;;;;"1248";"2014-10-02 15:04:26.750";"NST_correctLoc";"18";"1";"FINISHED";"RIGHT";"success";"581";"0";"2014-10-02 15:04:25.500";"3";;;;;;;;;;;;;;;;;;;;;;;;;;;;;;;;;;;;;;;;;;;;;
"quartonjf";"1194";;"Windows 7";"Rachel's Experiment (D.T.)";"1.0";"2";"1";"1";"2";"1";"1";"2014-10-02 14:59:44.453";"2014-10-02 15:12:55.187";"1";"1";"1";"70";"69";"module.training_block2.exec-9322.GoNoGo2";;;;;;;;;;;;;;;;;;;;;;;;;;;;;;;;;;;"1248";"2014-10-02 15:04:29.265";"ST_correctStop";"3";"0";"FINISHED";"NONE";"success";"0";"1";"2014-10-02 15:04:28.015";"1";;;;;;;;;;;;;;;;;;;;;;;;;;;;;;;;;;;;;;;;;;;;;
"quartonjf";"1194";;"Windows 7";"Rachel's Experiment (D.T.)";"1.0";"2";"1";"1";"2";"1";"1";"2014-10-02 14:59:44.453";"2014-10-02 15:12:55.187";"1";"1";"1";"71";"70";"module.training_block2.exec-9322.GoNoGo2";;;;;;;;;;;;;;;;;;;;;;;;;;;;;;;;;;;"1248";"2014-10-02 15:04:31.781";"ST_correctStop";"20";"1";"FINISHED";"NONE";"success";"0";"1";"2014-10-02 15:04:30.531";"3";;;;;;;;;;;;;;;;;;;;;;;;;;;;;;;;;;;;;;;;;;;;;
"quartonjf";"1194";;"Windows 7";"Rachel's Experiment (D.T.)";"1.0";"2";"1";"1";"2";"1";"1";"2014-10-02 14:59:44.453";"2014-10-02 15:12:55.187";"1";"1";"1";"72";"71";"module.training_block2.exec-9322.GoNoGo2";;;;;;;;;;;;;;;;;;;;;;;;;;;;;;;;;;;"1248";"2014-10-02 15:04:34.296";"NST_correctLoc";"9";"1";"FINISHED";"RIGHT";"success";"762";"0";"2014-10-02 15:04:33.046";"2";;;;;;;;;;;;;;;;;;;;;;;;;;;;;;;;;;;;;;;;;;;;;
"quartonjf";"1194";;"Windows 7";"Rachel's Experiment (D.T.)";"1.0";"2";"1";"1";"2";"1";"1";"2014-10-02 14:59:44.453";"2014-10-02 15:12:55.187";"1";"1";"1";"73";"72";"module.training_block2.exec-9322.GoNoGo2";;;;;;;;;;;;;;;;;;;;;;;;;;;;;;;;;;;"1248";"2014-10-02 15:04:36.812";"NST_correctLoc";"33";"1";"FINISHED";"RIGHT";"success";"462";"0";"2014-10-02 15:04:35.562";"3";;;;;;;;;;;;;;;;;;;;;;;;;;;;;;;;;;;;;;;;;;;;;
"quartonjf";"1194";;"Windows 7";"Rachel's Experiment (D.T.)";"1.0";"2";"1";"1";"2";"1";"1";"2014-10-02 14:59:44.453";"2014-10-02 15:12:55.187";"1";"1";"1";"74";"73";"module.training_block2.exec-9322.GoNoGo2";;;;;;;;;;;;;;;;;;;;;;;;;;;;;;;;;;;"1248";"2014-10-02 15:04:39.328";"NST_correctLoc";"31";"0";"FINISHED";"LEFT";"success";"554";"0";"2014-10-02 15:04:38.078";"3";;;;;;;;;;;;;;;;;;;;;;;;;;;;;;;;;;;;;;;;;;;;;
"quartonjf";"1194";;"Windows 7";"Rachel's Experiment (D.T.)";"1.0";"2";"1";"1";"2";"1";"1";"2014-10-02 14:59:44.453";"2014-10-02 15:12:55.187";"1";"1";"1";"75";"74";"module.training_block2.exec-9322.GoNoGo2";;;;;;;;;;;;;;;;;;;;;;;;;;;;;;;;;;;"1248";"2014-10-02 15:04:41.843";"ST_correctStop";"4";"1";"FINISHED";"NONE";"success";"0";"1";"2014-10-02 15:04:40.593";"1";;;;;;;;;;;;;;;;;;;;;;;;;;;;;;;;;;;;;;;;;;;;;
"quartonjf";"1194";;"Windows 7";"Rachel's Experiment (D.T.)";"1.0";"2";"1";"1";"2";"1";"1";"2014-10-02 14:59:44.453";"2014-10-02 15:12:55.187";"1";"1";"1";"76";"75";"module.training_block2.exec-9322.GoNoGo2";;;;;;;;;;;;;;;;;;;;;;;;;;;;;;;;;;;"1248";"2014-10-02 15:04:44.359";"ST_correctStop";"6";"1";"FINISHED";"NONE";"success";"0";"1";"2014-10-02 15:04:43.109";"1";;;;;;;;;;;;;;;;;;;;;;;;;;;;;;;;;;;;;;;;;;;;;
"quartonjf";"1194";;"Windows 7";"Rachel's Experiment (D.T.)";"1.0";"2";"1";"1";"2";"1";"1";"2014-10-02 14:59:44.453";"2014-10-02 15:12:55.187";"1";"1";"1";"77";"76";"module.training_block2.exec-9322.GoNoGo2";;;;;;;;;;;;;;;;;;;;;;;;;;;;;;;;;;;"1248";"2014-10-02 15:04:46.875";"ST_correctStop";"1";"0";"FINISHED";"NONE";"success";"0";"1";"2014-10-02 15:04:45.625";"1";;;;;;;;;;;;;;;;;;;;;;;;;;;;;;;;;;;;;;;;;;;;;
"quartonjf";"1194";;"Windows 7";"Rachel's Experiment (D.T.)";"1.0";"2";"1";"1";"2";"1";"1";"2014-10-02 14:59:44.453";"2014-10-02 15:12:55.187";"1";"1";"1";"78";"77";"module.training_block2.exec-9322.GoNoGo2";;;;;;;;;;;;;;;;;;;;;;;;;;;;;;;;;;;"1248";"2014-10-02 15:04:49.390";"ST_correctStop";"24";"1";"FINISHED";"NONE";"success";"0";"1";"2014-10-02 15:04:48.140";"3";;;;;;;;;;;;;;;;;;;;;;;;;;;;;;;;;;;;;;;;;;;;;
"quartonjf";"1194";;"Windows 7";"Rachel's Experiment (D.T.)";"1.0";"2";"1";"1";"2";"1";"1";"2014-10-02 14:59:44.453";"2014-10-02 15:12:55.187";"1";"1";"1";"79";"78";"module.training_block2.exec-9322.GoNoGo2";;;;;;;;;;;;;;;;;;;;;;;;;;;;;;;;;;;"1248";"2014-10-02 15:04:51.906";"NST_correctLoc";"11";"1";"FINISHED";"RIGHT";"success";"520";"0";"2014-10-02 15:04:50.656";"2";;;;;;;;;;;;;;;;;;;;;;;;;;;;;;;;;;;;;;;;;;;;;
"quartonjf";"1194";;"Windows 7";"Rachel's Experiment (D.T.)";"1.0";"2";"1";"1";"2";"1";"1";"2014-10-02 14:59:44.453";"2014-10-02 15:12:55.187";"1";"1";"1";"80";"79";"module.training_block2.exec-9322.GoNoGo2";;;;;;;;;;;;;;;;;;;;;;;;;;;;;;;;;;;"1248";"2014-10-02 15:04:54.421";"NST_correctLoc";"12";"1";"FINISHED";"RIGHT";"success";"500";"0";"2014-10-02 15:04:53.171";"2";;;;;;;;;;;;;;;;;;;;;;;;;;;;;;;;;;;;;;;;;;;;;
"quartonjf";"1194";;"Windows 7";"Rachel's Experiment (D.T.)";"1.0";"2";"1";"1";"2";"1";"1";"2014-10-02 14:59:44.453";"2014-10-02 15:12:55.187";"1";"1";"1";"81";"80";"module.training_block2.exec-9322.GoNoGo2";;;;;;;;;;;;;;;;;;;;;;;;;;;;;;;;;;;"1248";"2014-10-02 15:04:56.937";"ST_correctStop";"30";"1";"FINISHED";"NONE";"success";"0";"1";"2014-10-02 15:04:55.687";"3";;;;;;;;;;;;;;;;;;;;;;;;;;;;;;;;;;;;;;;;;;;;;
"quartonjf";"1194";;"Windows 7";"Rachel's Experiment (D.T.)";"1.0";"2";"1";"1";"2";"1";"1";"2014-10-02 14:59:44.453";"2014-10-02 15:12:55.187";"1";"1";"1";"82";"81";"module.training_block2.exec-9322.GoNoGo2";;;;;;;;;;;;;;;;;;;;;;;;;;;;;;;;;;;"1248";"2014-10-02 15:04:59.453";"NST_correctLoc";"21";"1";"FINISHED";"RIGHT";"success";"717";"0";"2014-10-02 15:04:58.203";"3";;;;;;;;;;;;;;;;;;;;;;;;;;;;;;;;;;;;;;;;;;;;;
"quartonjf";"1194";;"Windows 7";"Rachel's Experiment (D.T.)";"1.0";"2";"1";"1";"2";"1";"1";"2014-10-02 14:59:44.453";"2014-10-02 15:12:55.187";"1";"1";"1";"83";"82";"module.training_block2.exec-9322.GoNoGo2";;;;;;;;;;;;;;;;;;;;;;;;;;;;;;;;;;;"1248";"2014-10-02 15:05:01.968";"ST_correctStop";"23";"1";"FINISHED";"NONE";"success";"0";"1";"2014-10-02 15:05:00.718";"3";;;;;;;;;;;;;;;;;;;;;;;;;;;;;;;;;;;;;;;;;;;;;
"quartonjf";"1194";;"Windows 7";"Rachel's Experiment (D.T.)";"1.0";"2";"1";"1";"2";"1";"1";"2014-10-02 14:59:44.453";"2014-10-02 15:12:55.187";"1";"1";"1";"84";"83";"module.training_block2.exec-9322.GoNoGo2";;;;;;;;;;;;;;;;;;;;;;;;;;;;;;;;;;;"1248";"2014-10-02 15:05:04.484";"NST_correctLoc";"14";"0";"FINISHED";"LEFT";"success";"678";"0";"2014-10-02 15:05:03.234";"2";;;;;;;;;;;;;;;;;;;;;;;;;;;;;;;;;;;;;;;;;;;;;
"quartonjf";"1194";;"Windows 7";"Rachel's Experiment (D.T.)";"1.0";"2";"1";"1";"2";"1";"1";"2014-10-02 14:59:44.453";"2014-10-02 15:12:55.187";"1";"1";"1";"85";"84";"module.training_block2.exec-9322.GoNoGo2";;;;;;;;;;;;;;;;;;;;;;;;;;;;;;;;;;;"1248";"2014-10-02 15:05:07.000";"NST_correctLoc";"25";"0";"FINISHED";"LEFT";"success";"682";"0";"2014-10-02 15:05:05.750";"3";;;;;;;;;;;;;;;;;;;;;;;;;;;;;;;;;;;;;;;;;;;;;
"quartonjf";"1194";;"Windows 7";"Rachel's Experiment (D.T.)";"1.0";"2";"1";"1";"2";"1";"1";"2014-10-02 14:59:44.453";"2014-10-02 15:12:55.187";"1";"1";"1";"86";"85";"module.training_block2.exec-9322.GoNoGo2";;;;;;;;;;;;;;;;;;;;;;;;;;;;;;;;;;;"1248";"2014-10-02 15:05:09.515";"NST_correctLoc";"28";"1";"FINISHED";"RIGHT";"success";"662";"0";"2014-10-02 15:05:08.265";"3";;;;;;;;;;;;;;;;;;;;;;;;;;;;;;;;;;;;;;;;;;;;;
"quartonjf";"1194";;"Windows 7";"Rachel's Experiment (D.T.)";"1.0";"2";"1";"1";"2";"1";"1";"2014-10-02 14:59:44.453";"2014-10-02 15:12:55.187";"1";"1";"1";"87";"86";"module.training_block2.exec-9322.GoNoGo2";;;;;;;;;;;;;;;;;;;;;;;;;;;;;;;;;;;"1248";"2014-10-02 15:05:12.031";"NST_correctLoc";"29";"1";"FINISHED";"RIGHT";"success";"523";"0";"2014-10-02 15:05:10.781";"3";;;;;;;;;;;;;;;;;;;;;;;;;;;;;;;;;;;;;;;;;;;;;
"quartonjf";"1194";;"Windows 7";"Rachel's Experiment (D.T.)";"1.0";"2";"1";"1";"2";"1";"1";"2014-10-02 14:59:44.453";"2014-10-02 15:12:55.187";"1";"1";"1";"88";"87";"module.training_block3.exec-6441.GoNoGo3";;;;;;;;;;;;;;;;;;;;;;;;;;;;;;;;;;;;;;;;;;;;;;;"1248";"2014-10-02 15:05:23.718";"NST_correctLoc";"35";"0";"FINISHED";"LEFT";"success";"811";"0";"2014-10-02 15:05:22.468";"3";;;;;;;;;;;;;;;;;;;;;;;;;;;;;;;;;
"quartonjf";"1194";;"Windows 7";"Rachel's Experiment (D.T.)";"1.0";"2";"1";"1";"2";"1";"1";"2014-10-02 14:59:44.453";"2014-10-02 15:12:55.187";"1";"1";"1";"89";"88";"module.training_block3.exec-6441.GoNoGo3";;;;;;;;;;;;;;;;;;;;;;;;;;;;;;;;;;;;;;;;;;;;;;;"1248";"2014-10-02 15:05:26.234";"NST_correctLoc";"11";"1";"FINISHED";"RIGHT";"success";"487";"0";"2014-10-02 15:05:24.984";"2";;;;;;;;;;;;;;;;;;;;;;;;;;;;;;;;;
"quartonjf";"1194";;"Windows 7";"Rachel's Experiment (D.T.)";"1.0";"2";"1";"1";"2";"1";"1";"2014-10-02 14:59:44.453";"2014-10-02 15:12:55.187";"1";"1";"1";"90";"89";"module.training_block3.exec-6441.GoNoGo3";;;;;;;;;;;;;;;;;;;;;;;;;;;;;;;;;;;;;;;;;;;;;;;"1248";"2014-10-02 15:05:28.750";"ST_correctStop";"30";"1";"FINISHED";"NONE";"success";"0";"1";"2014-10-02 15:05:27.500";"3";;;;;;;;;;;;;;;;;;;;;;;;;;;;;;;;;
"quartonjf";"1194";;"Windows 7";"Rachel's Experiment (D.T.)";"1.0";"2";"1";"1";"2";"1";"1";"2014-10-02 14:59:44.453";"2014-10-02 15:12:55.187";"1";"1";"1";"91";"90";"module.training_block3.exec-6441.GoNoGo3";;;;;;;;;;;;;;;;;;;;;;;;;;;;;;;;;;;;;;;;;;;;;;;"1248";"2014-10-02 15:05:31.265";"NST_correctLoc";"25";"1";"FINISHED";"RIGHT";"success";"472";"0";"2014-10-02 15:05:30.015";"3";;;;;;;;;;;;;;;;;;;;;;;;;;;;;;;;;
"quartonjf";"1194";;"Windows 7";"Rachel's Experiment (D.T.)";"1.0";"2";"1";"1";"2";"1";"1";"2014-10-02 14:59:44.453";"2014-10-02 15:12:55.187";"1";"1";"1";"92";"91";"module.training_block3.exec-6441.GoNoGo3";;;;;;;;;;;;;;;;;;;;;;;;;;;;;;;;;;;;;;;;;;;;;;;"1248";"2014-10-02 15:05:33.781";"ST_failedStop";"22";"0";"FINISHED";"LEFT";"failure";"516";"1";"2014-10-02 15:05:32.531";"3";;;;;;;;;;;;;;;;;;;;;;;;;;;;;;;;;
"quartonjf";"1194";;"Windows 7";"Rachel's Experiment (D.T.)";"1.0";"2";"1";"1";"2";"1";"1";"2014-10-02 14:59:44.453";"2014-10-02 15:12:55.187";"1";"1";"1";"93";"92";"module.training_block3.exec-6441.GoNoGo3";;;;;;;;;;;;;;;;;;;;;;;;;;;;;;;;;;;;;;;;;;;;;;;"1248";"2014-10-02 15:05:36.296";"ST_correctStop";"26";"0";"FINISHED";"NONE";"success";"0";"1";"2014-10-02 15:05:35.046";"3";;;;;;;;;;;;;;;;;;;;;;;;;;;;;;;;;
"quartonjf";"1194";;"Windows 7";"Rachel's Experiment (D.T.)";"1.0";"2";"1";"1";"2";"1";"1";"2014-10-02 14:59:44.453";"2014-10-02 15:12:55.187";"1";"1";"1";"94";"93";"module.training_block3.exec-6441.GoNoGo3";;;;;;;;;;;;;;;;;;;;;;;;;;;;;;;;;;;;;;;;;;;;;;;"1248";"2014-10-02 15:05:38.796";"ST_correctStop";"2";"0";"FINISHED";"NONE";"success";"0";"1";"2014-10-02 15:05:37.546";"1";;;;;;;;;;;;;;;;;;;;;;;;;;;;;;;;;
"quartonjf";"1194";;"Windows 7";"Rachel's Experiment (D.T.)";"1.0";"2";"1";"1";"2";"1";"1";"2014-10-02 14:59:44.453";"2014-10-02 15:12:55.187";"1";"1";"1";"95";"94";"module.training_block3.exec-6441.GoNoGo3";;;;;;;;;;;;;;;;;;;;;;;;;;;;;;;;;;;;;;;;;;;;;;;"1248";"2014-10-02 15:05:41.312";"ST_correctStop";"5";"1";"FINISHED";"NONE";"success";"0";"1";"2014-10-02 15:05:40.062";"1";;;;;;;;;;;;;;;;;;;;;;;;;;;;;;;;;
"quartonjf";"1194";;"Windows 7";"Rachel's Experiment (D.T.)";"1.0";"2";"1";"1";"2";"1";"1";"2014-10-02 14:59:44.453";"2014-10-02 15:12:55.187";"1";"1";"1";"96";"95";"module.training_block3.exec-6441.GoNoGo3";;;;;;;;;;;;;;;;;;;;;;;;;;;;;;;;;;;;;;;;;;;;;;;"1248";"2014-10-02 15:05:43.828";"ST_correctStop";"7";"0";"FINISHED";"NONE";"success";"0";"1";"2014-10-02 15:05:42.578";"1";;;;;;;;;;;;;;;;;;;;;;;;;;;;;;;;;
"quartonjf";"1194";;"Windows 7";"Rachel's Experiment (D.T.)";"1.0";"2";"1";"1";"2";"1";"1";"2014-10-02 14:59:44.453";"2014-10-02 15:12:55.187";"1";"1";"1";"97";"96";"module.training_block3.exec-6441.GoNoGo3";;;;;;;;;;;;;;;;;;;;;;;;;;;;;;;;;;;;;;;;;;;;;;;"1248";"2014-10-02 15:05:46.343";"ST_correctStop";"1";"1";"FINISHED";"NONE";"success";"0";"1";"2014-10-02 15:05:45.093";"1";;;;;;;;;;;;;;;;;;;;;;;;;;;;;;;;;
"quartonjf";"1194";;"Windows 7";"Rachel's Experiment (D.T.)";"1.0";"2";"1";"1";"2";"1";"1";"2014-10-02 14:59:44.453";"2014-10-02 15:12:55.187";"1";"1";"1";"98";"97";"module.training_block3.exec-6441.GoNoGo3";;;;;;;;;;;;;;;;;;;;;;;;;;;;;;;;;;;;;;;;;;;;;;;"1248";"2014-10-02 15:05:48.843";"ST_correctStop";"29";"1";"FINISHED";"NONE";"success";"0";"1";"2014-10-02 15:05:47.593";"3";;;;;;;;;;;;;;;;;;;;;;;;;;;;;;;;;
"quartonjf";"1194";;"Windows 7";"Rachel's Experiment (D.T.)";"1.0";"2";"1";"1";"2";"1";"1";"2014-10-02 14:59:44.453";"2014-10-02 15:12:55.187";"1";"1";"1";"99";"98";"module.training_block3.exec-6441.GoNoGo3";;;;;;;;;;;;;;;;;;;;;;;;;;;;;;;;;;;;;;;;;;;;;;;"1248";"2014-10-02 15:05:51.343";"ST_correctStop";"27";"0";"FINISHED";"NONE";"success";"0";"1";"2014-10-02 15:05:50.093";"3";;;;;;;;;;;;;;;;;;;;;;;;;;;;;;;;;
"quartonjf";"1194";;"Windows 7";"Rachel's Experiment (D.T.)";"1.0";"2";"1";"1";"2";"1";"1";"2014-10-02 14:59:44.453";"2014-10-02 15:12:55.187";"1";"1";"1";"100";"99";"module.training_block3.exec-6441.GoNoGo3";;;;;;;;;;;;;;;;;;;;;;;;;;;;;;;;;;;;;;;;;;;;;;;"1248";"2014-10-02 15:05:53.843";"NST_correctLoc";"16";"1";"FINISHED";"RIGHT";"success";"462";"0";"2014-10-02 15:05:52.593";"2";;;;;;;;;;;;;;;;;;;;;;;;;;;;;;;;;
"quartonjf";"1194";;"Windows 7";"Rachel's Experiment (D.T.)";"1.0";"2";"1";"1";"2";"1";"1";"2014-10-02 14:59:44.453";"2014-10-02 15:12:55.187";"1";"1";"1";"101";"100";"module.training_block3.exec-6441.GoNoGo3";;;;;;;;;;;;;;;;;;;;;;;;;;;;;;;;;;;;;;;;;;;;;;;"1248";"2014-10-02 15:05:56.359";"NST_correctLoc";"13";"1";"FINISHED";"RIGHT";"success";"490";"0";"2014-10-02 15:05:55.109";"2";;;;;;;;;;;;;;;;;;;;;;;;;;;;;;;;;
"quartonjf";"1194";;"Windows 7";"Rachel's Experiment (D.T.)";"1.0";"2";"1";"1";"2";"1";"1";"2014-10-02 14:59:44.453";"2014-10-02 15:12:55.187";"1";"1";"1";"102";"101";"module.training_block3.exec-6441.GoNoGo3";;;;;;;;;;;;;;;;;;;;;;;;;;;;;;;;;;;;;;;;;;;;;;;"1248";"2014-10-02 15:05:58.859";"ST_correctStop";"3";"0";"FINISHED";"NONE";"success";"0";"1";"2014-10-02 15:05:57.609";"1";;;;;;;;;;;;;;;;;;;;;;;;;;;;;;;;;
"quartonjf";"1194";;"Windows 7";"Rachel's Experiment (D.T.)";"1.0";"2";"1";"1";"2";"1";"1";"2014-10-02 14:59:44.453";"2014-10-02 15:12:55.187";"1";"1";"1";"103";"102";"module.training_block3.exec-6441.GoNoGo3";;;;;;;;;;;;;;;;;;;;;;;;;;;;;;;;;;;;;;;;;;;;;;;"1248";"2014-10-02 15:06:01.375";"NST_correctLoc";"14";"0";"FINISHED";"LEFT";"success";"674";"0";"2014-10-02 15:06:00.125";"2";;;;;;;;;;;;;;;;;;;;;;;;;;;;;;;;;
"quartonjf";"1194";;"Windows 7";"Rachel's Experiment (D.T.)";"1.0";"2";"1";"1";"2";"1";"1";"2014-10-02 14:59:44.453";"2014-10-02 15:12:55.187";"1";"1";"1";"104";"103";"module.training_block3.exec-6441.GoNoGo3";;;;;;;;;;;;;;;;;;;;;;;;;;;;;;;;;;;;;;;;;;;;;;;"1248";"2014-10-02 15:06:03.875";"NST_correctLoc";"15";"0";"FINISHED";"LEFT";"success";"614";"0";"2014-10-02 15:06:02.625";"2";;;;;;;;;;;;;;;;;;;;;;;;;;;;;;;;;
"quartonjf";"1194";;"Windows 7";"Rachel's Experiment (D.T.)";"1.0";"2";"1";"1";"2";"1";"1";"2014-10-02 14:59:44.453";"2014-10-02 15:12:55.187";"1";"1";"1";"105";"104";"module.training_block3.exec-6441.GoNoGo3";;;;;;;;;;;;;;;;;;;;;;;;;;;;;;;;;;;;;;;;;;;;;;;"1248";"2014-10-02 15:06:06.375";"ST_correctStop";"34";"1";"FINISHED";"NONE";"success";"0";"1";"2014-10-02 15:06:05.125";"3";;;;;;;;;;;;;;;;;;;;;;;;;;;;;;;;;
"quartonjf";"1194";;"Windows 7";"Rachel's Experiment (D.T.)";"1.0";"2";"1";"1";"2";"1";"1";"2014-10-02 14:59:44.453";"2014-10-02 15:12:55.187";"1";"1";"1";"106";"105";"module.training_block3.exec-6441.GoNoGo3";;;;;;;;;;;;;;;;;;;;;;;;;;;;;;;;;;;;;;;;;;;;;;;"1248";"2014-10-02 15:06:08.875";"NST_correctLoc";"33";"1";"FINISHED";"RIGHT";"success";"854";"0";"2014-10-02 15:06:07.625";"3";;;;;;;;;;;;;;;;;;;;;;;;;;;;;;;;;
"quartonjf";"1194";;"Windows 7";"Rachel's Experiment (D.T.)";"1.0";"2";"1";"1";"2";"1";"1";"2014-10-02 14:59:44.453";"2014-10-02 15:12:55.187";"1";"1";"1";"107";"106";"module.training_block3.exec-6441.GoNoGo3";;;;;;;;;;;;;;;;;;;;;;;;;;;;;;;;;;;;;;;;;;;;;;;"1248";"2014-10-02 15:06:11.390";"NST_correctLoc";"21";"1";"FINISHED";"RIGHT";"success";"626";"0";"2014-10-02 15:06:10.140";"3";;;;;;;;;;;;;;;;;;;;;;;;;;;;;;;;;
"quartonjf";"1194";;"Windows 7";"Rachel's Experiment (D.T.)";"1.0";"2";"1";"1";"2";"1";"1";"2014-10-02 14:59:44.453";"2014-10-02 15:12:55.187";"1";"1";"1";"108";"107";"module.training_block3.exec-6441.GoNoGo3";;;;;;;;;;;;;;;;;;;;;;;;;;;;;;;;;;;;;;;;;;;;;;;"1248";"2014-10-02 15:06:13.890";"ST_correctStop";"6";"0";"FINISHED";"NONE";"success";"0";"1";"2014-10-02 15:06:12.640";"1";;;;;;;;;;;;;;;;;;;;;;;;;;;;;;;;;
"quartonjf";"1194";;"Windows 7";"Rachel's Experiment (D.T.)";"1.0";"2";"1";"1";"2";"1";"1";"2014-10-02 14:59:44.453";"2014-10-02 15:12:55.187";"1";"1";"1";"109";"108";"module.training_block3.exec-6441.GoNoGo3";;;;;;;;;;;;;;;;;;;;;;;;;;;;;;;;;;;;;;;;;;;;;;;"1248";"2014-10-02 15:06:16.390";"ST_correctStop";"23";"1";"FINISHED";"NONE";"success";"0";"1";"2014-10-02 15:06:15.140";"3";;;;;;;;;;;;;;;;;;;;;;;;;;;;;;;;;
"quartonjf";"1194";;"Windows 7";"Rachel's Experiment (D.T.)";"1.0";"2";"1";"1";"2";"1";"1";"2014-10-02 14:59:44.453";"2014-10-02 15:12:55.187";"1";"1";"1";"110";"109";"module.training_block3.exec-6441.GoNoGo3";;;;;;;;;;;;;;;;;;;;;;;;;;;;;;;;;;;;;;;;;;;;;;;"1248";"2014-10-02 15:06:18.906";"ST_correctStop";"0";"1";"FINISHED";"NONE";"success";"0";"1";"2014-10-02 15:06:17.656";"1";;;;;;;;;;;;;;;;;;;;;;;;;;;;;;;;;
"quartonjf";"1194";;"Windows 7";"Rachel's Experiment (D.T.)";"1.0";"2";"1";"1";"2";"1";"1";"2014-10-02 14:59:44.453";"2014-10-02 15:12:55.187";"1";"1";"1";"111";"110";"module.training_block3.exec-6441.GoNoGo3";;;;;;;;;;;;;;;;;;;;;;;;;;;;;;;;;;;;;;;;;;;;;;;"1248";"2014-10-02 15:06:21.421";"NST_correctLoc";"10";"0";"FINISHED";"LEFT";"success";"699";"0";"2014-10-02 15:06:20.171";"2";;;;;;;;;;;;;;;;;;;;;;;;;;;;;;;;;
"quartonjf";"1194";;"Windows 7";"Rachel's Experiment (D.T.)";"1.0";"2";"1";"1";"2";"1";"1";"2014-10-02 14:59:44.453";"2014-10-02 15:12:55.187";"1";"1";"1";"112";"111";"module.training_block3.exec-6441.GoNoGo3";;;;;;;;;;;;;;;;;;;;;;;;;;;;;;;;;;;;;;;;;;;;;;;"1248";"2014-10-02 15:06:23.921";"ST_correctStop";"19";"1";"FINISHED";"NONE";"success";"0";"1";"2014-10-02 15:06:22.671";"3";;;;;;;;;;;;;;;;;;;;;;;;;;;;;;;;;
"quartonjf";"1194";;"Windows 7";"Rachel's Experiment (D.T.)";"1.0";"2";"1";"1";"2";"1";"1";"2014-10-02 14:59:44.453";"2014-10-02 15:12:55.187";"1";"1";"1";"113";"112";"module.training_block3.exec-6441.GoNoGo3";;;;;;;;;;;;;;;;;;;;;;;;;;;;;;;;;;;;;;;;;;;;;;;"1248";"2014-10-02 15:06:26.421";"NST_correctLoc";"9";"0";"FINISHED";"LEFT";"success";"747";"0";"2014-10-02 15:06:25.171";"2";;;;;;;;;;;;;;;;;;;;;;;;;;;;;;;;;
"quartonjf";"1194";;"Windows 7";"Rachel's Experiment (D.T.)";"1.0";"2";"1";"1";"2";"1";"1";"2014-10-02 14:59:44.453";"2014-10-02 15:12:55.187";"1";"1";"1";"114";"113";"module.training_block3.exec-6441.GoNoGo3";;;;;;;;;;;;;;;;;;;;;;;;;;;;;;;;;;;;;;;;;;;;;;;"1248";"2014-10-02 15:06:28.921";"NST_correctLoc";"28";"0";"FINISHED";"LEFT";"success";"663";"0";"2014-10-02 15:06:27.671";"3";;;;;;;;;;;;;;;;;;;;;;;;;;;;;;;;;
"quartonjf";"1194";;"Windows 7";"Rachel's Experiment (D.T.)";"1.0";"2";"1";"1";"2";"1";"1";"2014-10-02 14:59:44.453";"2014-10-02 15:12:55.187";"1";"1";"1";"115";"114";"module.training_block3.exec-6441.GoNoGo3";;;;;;;;;;;;;;;;;;;;;;;;;;;;;;;;;;;;;;;;;;;;;;;"1248";"2014-10-02 15:06:31.421";"NST_correctLoc";"20";"0";"FINISHED";"LEFT";"success";"619";"0";"2014-10-02 15:06:30.171";"3";;;;;;;;;;;;;;;;;;;;;;;;;;;;;;;;;
"quartonjf";"1194";;"Windows 7";"Rachel's Experiment (D.T.)";"1.0";"2";"1";"1";"2";"1";"1";"2014-10-02 14:59:44.453";"2014-10-02 15:12:55.187";"1";"1";"1";"116";"115";"module.training_block3.exec-6441.GoNoGo3";;;;;;;;;;;;;;;;;;;;;;;;;;;;;;;;;;;;;;;;;;;;;;;"1248";"2014-10-02 15:06:33.921";"ST_correctStop";"32";"0";"FINISHED";"NONE";"success";"0";"1";"2014-10-02 15:06:32.671";"3";;;;;;;;;;;;;;;;;;;;;;;;;;;;;;;;;
"quartonjf";"1194";;"Windows 7";"Rachel's Experiment (D.T.)";"1.0";"2";"1";"1";"2";"1";"1";"2014-10-02 14:59:44.453";"2014-10-02 15:12:55.187";"1";"1";"1";"117";"116";"module.training_block3.exec-6441.GoNoGo3";;;;;;;;;;;;;;;;;;;;;;;;;;;;;;;;;;;;;;;;;;;;;;;"1248";"2014-10-02 15:06:36.421";"NST_correctLoc";"24";"1";"FINISHED";"RIGHT";"success";"563";"0";"2014-10-02 15:06:35.171";"3";;;;;;;;;;;;;;;;;;;;;;;;;;;;;;;;;
"quartonjf";"1194";;"Windows 7";"Rachel's Experiment (D.T.)";"1.0";"2";"1";"1";"2";"1";"1";"2014-10-02 14:59:44.453";"2014-10-02 15:12:55.187";"1";"1";"1";"118";"117";"module.training_block3.exec-6441.GoNoGo3";;;;;;;;;;;;;;;;;;;;;;;;;;;;;;;;;;;;;;;;;;;;;;;"1248";"2014-10-02 15:06:38.921";"NST_correctLoc";"31";"1";"FINISHED";"RIGHT";"success";"647";"0";"2014-10-02 15:06:37.671";"3";;;;;;;;;;;;;;;;;;;;;;;;;;;;;;;;;
"quartonjf";"1194";;"Windows 7";"Rachel's Experiment (D.T.)";"1.0";"2";"1";"1";"2";"1";"1";"2014-10-02 14:59:44.453";"2014-10-02 15:12:55.187";"1";"1";"1";"119";"118";"module.training_block3.exec-6441.GoNoGo3";;;;;;;;;;;;;;;;;;;;;;;;;;;;;;;;;;;;;;;;;;;;;;;"1248";"2014-10-02 15:06:41.421";"ST_correctStop";"4";"1";"FINISHED";"NONE";"success";"0";"1";"2014-10-02 15:06:40.171";"1";;;;;;;;;;;;;;;;;;;;;;;;;;;;;;;;;
"quartonjf";"1194";;"Windows 7";"Rachel's Experiment (D.T.)";"1.0";"2";"1";"1";"2";"1";"1";"2014-10-02 14:59:44.453";"2014-10-02 15:12:55.187";"1";"1";"1";"120";"119";"module.training_block3.exec-6441.GoNoGo3";;;;;;;;;;;;;;;;;;;;;;;;;;;;;;;;;;;;;;;;;;;;;;;"1248";"2014-10-02 15:06:43.921";"ST_correctStop";"8";"1";"FINISHED";"NONE";"success";"0";"1";"2014-10-02 15:06:42.671";"1";;;;;;;;;;;;;;;;;;;;;;;;;;;;;;;;;
"quartonjf";"1194";;"Windows 7";"Rachel's Experiment (D.T.)";"1.0";"2";"1";"1";"2";"1";"1";"2014-10-02 14:59:44.453";"2014-10-02 15:12:55.187";"1";"1";"1";"121";"120";"module.training_block3.exec-6441.GoNoGo3";;;;;;;;;;;;;;;;;;;;;;;;;;;;;;;;;;;;;;;;;;;;;;;"1248";"2014-10-02 15:06:46.421";"NST_correctLoc";"12";"1";"FINISHED";"RIGHT";"success";"506";"0";"2014-10-02 15:06:45.171";"2";;;;;;;;;;;;;;;;;;;;;;;;;;;;;;;;;
"quartonjf";"1194";;"Windows 7";"Rachel's Experiment (D.T.)";"1.0";"2";"1";"1";"2";"1";"1";"2014-10-02 14:59:44.453";"2014-10-02 15:12:55.187";"1";"1";"1";"122";"121";"module.training_block3.exec-6441.GoNoGo3";;;;;;;;;;;;;;;;;;;;;;;;;;;;;;;;;;;;;;;;;;;;;;;"1248";"2014-10-02 15:06:48.921";"NST_correctLoc";"17";"0";"FINISHED";"LEFT";"success";"534";"0";"2014-10-02 15:06:47.671";"2";;;;;;;;;;;;;;;;;;;;;;;;;;;;;;;;;
"quartonjf";"1194";;"Windows 7";"Rachel's Experiment (D.T.)";"1.0";"2";"1";"1";"2";"1";"1";"2014-10-02 14:59:44.453";"2014-10-02 15:12:55.187";"1";"1";"1";"123";"122";"module.training_block3.exec-6441.GoNoGo3";;;;;;;;;;;;;;;;;;;;;;;;;;;;;;;;;;;;;;;;;;;;;;;"1248";"2014-10-02 15:06:51.421";"NST_correctLoc";"18";"0";"FINISHED";"LEFT";"success";"490";"0";"2014-10-02 15:06:50.171";"3";;;;;;;;;;;;;;;;;;;;;;;;;;;;;;;;;
"quartonjf";"1194";;"Windows 7";"Rachel's Experiment (D.T.)";"1.0";"2";"1";"1";"2";"1";"1";"2014-10-02 14:59:44.453";"2014-10-02 15:12:55.187";"1";"1";"1";"124";"123";"module.training_block4.exec-1817.GoNoGo4";;;;;;;;;;;;;;;;;;;;;;;;;;;;;;;;;;;;;;;;;;;;;;;;;;;;;;;;;;;"1248";"2014-10-02 15:07:02.203";"NST_correctLoc";"26";"1";"FINISHED";"RIGHT";"success";"445";"0";"2014-10-02 15:07:00.953";"3";;;;;;;;;;;;;;;;;;;;;
"quartonjf";"1194";;"Windows 7";"Rachel's Experiment (D.T.)";"1.0";"2";"1";"1";"2";"1";"1";"2014-10-02 14:59:44.453";"2014-10-02 15:12:55.187";"1";"1";"1";"125";"124";"module.training_block4.exec-1817.GoNoGo4";;;;;;;;;;;;;;;;;;;;;;;;;;;;;;;;;;;;;;;;;;;;;;;;;;;;;;;;;;;"1248";"2014-10-02 15:07:04.703";"NST_correctLoc";"10";"1";"FINISHED";"RIGHT";"success";"681";"0";"2014-10-02 15:07:03.453";"2";;;;;;;;;;;;;;;;;;;;;
"quartonjf";"1194";;"Windows 7";"Rachel's Experiment (D.T.)";"1.0";"2";"1";"1";"2";"1";"1";"2014-10-02 14:59:44.453";"2014-10-02 15:12:55.187";"1";"1";"1";"126";"125";"module.training_block4.exec-1817.GoNoGo4";;;;;;;;;;;;;;;;;;;;;;;;;;;;;;;;;;;;;;;;;;;;;;;;;;;;;;;;;;;"1248";"2014-10-02 15:07:07.203";"ST_correctStop";"25";"0";"FINISHED";"NONE";"success";"0";"1";"2014-10-02 15:07:05.953";"3";;;;;;;;;;;;;;;;;;;;;
"quartonjf";"1194";;"Windows 7";"Rachel's Experiment (D.T.)";"1.0";"2";"1";"1";"2";"1";"1";"2014-10-02 14:59:44.453";"2014-10-02 15:12:55.187";"1";"1";"1";"127";"126";"module.training_block4.exec-1817.GoNoGo4";;;;;;;;;;;;;;;;;;;;;;;;;;;;;;;;;;;;;;;;;;;;;;;;;;;;;;;;;;;"1248";"2014-10-02 15:07:09.703";"ST_correctStop";"4";"1";"FINISHED";"NONE";"success";"0";"1";"2014-10-02 15:07:08.453";"1";;;;;;;;;;;;;;;;;;;;;
"quartonjf";"1194";;"Windows 7";"Rachel's Experiment (D.T.)";"1.0";"2";"1";"1";"2";"1";"1";"2014-10-02 14:59:44.453";"2014-10-02 15:12:55.187";"1";"1";"1";"128";"127";"module.training_block4.exec-1817.GoNoGo4";;;;;;;;;;;;;;;;;;;;;;;;;;;;;;;;;;;;;;;;;;;;;;;;;;;;;;;;;;;"1248";"2014-10-02 15:07:12.203";"ST_correctStop";"32";"1";"FINISHED";"NONE";"success";"0";"1";"2014-10-02 15:07:10.953";"3";;;;;;;;;;;;;;;;;;;;;
"quartonjf";"1194";;"Windows 7";"Rachel's Experiment (D.T.)";"1.0";"2";"1";"1";"2";"1";"1";"2014-10-02 14:59:44.453";"2014-10-02 15:12:55.187";"1";"1";"1";"129";"128";"module.training_block4.exec-1817.GoNoGo4";;;;;;;;;;;;;;;;;;;;;;;;;;;;;;;;;;;;;;;;;;;;;;;;;;;;;;;;;;;"1248";"2014-10-02 15:07:14.703";"ST_correctStop";"19";"1";"FINISHED";"NONE";"success";"0";"1";"2014-10-02 15:07:13.453";"3";;;;;;;;;;;;;;;;;;;;;
"quartonjf";"1194";;"Windows 7";"Rachel's Experiment (D.T.)";"1.0";"2";"1";"1";"2";"1";"1";"2014-10-02 14:59:44.453";"2014-10-02 15:12:55.187";"1";"1";"1";"130";"129";"module.training_block4.exec-1817.GoNoGo4";;;;;;;;;;;;;;;;;;;;;;;;;;;;;;;;;;;;;;;;;;;;;;;;;;;;;;;;;;;"1248";"2014-10-02 15:07:17.218";"NST_correctLoc";"21";"0";"FINISHED";"LEFT";"success";"573";"0";"2014-10-02 15:07:15.968";"3";;;;;;;;;;;;;;;;;;;;;
"quartonjf";"1194";;"Windows 7";"Rachel's Experiment (D.T.)";"1.0";"2";"1";"1";"2";"1";"1";"2014-10-02 14:59:44.453";"2014-10-02 15:12:55.187";"1";"1";"1";"131";"130";"module.training_block4.exec-1817.GoNoGo4";;;;;;;;;;;;;;;;;;;;;;;;;;;;;;;;;;;;;;;;;;;;;;;;;;;;;;;;;;;"1248";"2014-10-02 15:07:19.718";"ST_correctStop";"1";"1";"FINISHED";"NONE";"success";"0";"1";"2014-10-02 15:07:18.468";"1";;;;;;;;;;;;;;;;;;;;;
"quartonjf";"1194";;"Windows 7";"Rachel's Experiment (D.T.)";"1.0";"2";"1";"1";"2";"1";"1";"2014-10-02 14:59:44.453";"2014-10-02 15:12:55.187";"1";"1";"1";"132";"131";"module.training_block4.exec-1817.GoNoGo4";;;;;;;;;;;;;;;;;;;;;;;;;;;;;;;;;;;;;;;;;;;;;;;;;;;;;;;;;;;"1248";"2014-10-02 15:07:22.218";"ST_correctStop";"28";"1";"FINISHED";"NONE";"success";"0";"1";"2014-10-02 15:07:20.968";"3";;;;;;;;;;;;;;;;;;;;;
"quartonjf";"1194";;"Windows 7";"Rachel's Experiment (D.T.)";"1.0";"2";"1";"1";"2";"1";"1";"2014-10-02 14:59:44.453";"2014-10-02 15:12:55.187";"1";"1";"1";"133";"132";"module.training_block4.exec-1817.GoNoGo4";;;;;;;;;;;;;;;;;;;;;;;;;;;;;;;;;;;;;;;;;;;;;;;;;;;;;;;;;;;"1248";"2014-10-02 15:07:24.718";"NST_correctLoc";"15";"1";"FINISHED";"RIGHT";"success";"745";"0";"2014-10-02 15:07:23.468";"2";;;;;;;;;;;;;;;;;;;;;
"quartonjf";"1194";;"Windows 7";"Rachel's Experiment (D.T.)";"1.0";"2";"1";"1";"2";"1";"1";"2014-10-02 14:59:44.453";"2014-10-02 15:12:55.187";"1";"1";"1";"134";"133";"module.training_block4.exec-1817.GoNoGo4";;;;;;;;;;;;;;;;;;;;;;;;;;;;;;;;;;;;;;;;;;;;;;;;;;;;;;;;;;;"1248";"2014-10-02 15:07:27.234";"NST_correctLoc";"14";"1";"FINISHED";"RIGHT";"success";"941";"0";"2014-10-02 15:07:25.984";"2";;;;;;;;;;;;;;;;;;;;;
"quartonjf";"1194";;"Windows 7";"Rachel's Experiment (D.T.)";"1.0";"2";"1";"1";"2";"1";"1";"2014-10-02 14:59:44.453";"2014-10-02 15:12:55.187";"1";"1";"1";"135";"134";"module.training_block4.exec-1817.GoNoGo4";;;;;;;;;;;;;;;;;;;;;;;;;;;;;;;;;;;;;;;;;;;;;;;;;;;;;;;;;;;"1248";"2014-10-02 15:07:29.734";"NST_correctLoc";"29";"0";"FINISHED";"LEFT";"success";"617";"0";"2014-10-02 15:07:28.484";"3";;;;;;;;;;;;;;;;;;;;;
"quartonjf";"1194";;"Windows 7";"Rachel's Experiment (D.T.)";"1.0";"2";"1";"1";"2";"1";"1";"2014-10-02 14:59:44.453";"2014-10-02 15:12:55.187";"1";"1";"1";"136";"135";"module.training_block4.exec-1817.GoNoGo4";;;;;;;;;;;;;;;;;;;;;;;;;;;;;;;;;;;;;;;;;;;;;;;;;;;;;;;;;;;"1248";"2014-10-02 15:07:32.234";"NST_correctLoc";"17";"1";"FINISHED";"RIGHT";"success";"765";"0";"2014-10-02 15:07:30.984";"2";;;;;;;;;;;;;;;;;;;;;
"quartonjf";"1194";;"Windows 7";"Rachel's Experiment (D.T.)";"1.0";"2";"1";"1";"2";"1";"1";"2014-10-02 14:59:44.453";"2014-10-02 15:12:55.187";"1";"1";"1";"137";"136";"module.training_block4.exec-1817.GoNoGo4";;;;;;;;;;;;;;;;;;;;;;;;;;;;;;;;;;;;;;;;;;;;;;;;;;;;;;;;;;;"1248";"2014-10-02 15:07:34.734";"ST_correctStop";"27";"1";"FINISHED";"NONE";"success";"0";"1";"2014-10-02 15:07:33.484";"3";;;;;;;;;;;;;;;;;;;;;
"quartonjf";"1194";;"Windows 7";"Rachel's Experiment (D.T.)";"1.0";"2";"1";"1";"2";"1";"1";"2014-10-02 14:59:44.453";"2014-10-02 15:12:55.187";"1";"1";"1";"138";"137";"module.training_block4.exec-1817.GoNoGo4";;;;;;;;;;;;;;;;;;;;;;;;;;;;;;;;;;;;;;;;;;;;;;;;;;;;;;;;;;;"1248";"2014-10-02 15:07:37.234";"ST_failedStop";"35";"0";"FINISHED";"LEFT";"failure";"533";"1";"2014-10-02 15:07:35.984";"3";;;;;;;;;;;;;;;;;;;;;
"quartonjf";"1194";;"Windows 7";"Rachel's Experiment (D.T.)";"1.0";"2";"1";"1";"2";"1";"1";"2014-10-02 14:59:44.453";"2014-10-02 15:12:55.187";"1";"1";"1";"139";"138";"module.training_block4.exec-1817.GoNoGo4";;;;;;;;;;;;;;;;;;;;;;;;;;;;;;;;;;;;;;;;;;;;;;;;;;;;;;;;;;;"1248";"2014-10-02 15:07:39.734";"NST_correctLoc";"22";"0";"FINISHED";"LEFT";"success";"529";"0";"2014-10-02 15:07:38.484";"3";;;;;;;;;;;;;;;;;;;;;
"quartonjf";"1194";;"Windows 7";"Rachel's Experiment (D.T.)";"1.0";"2";"1";"1";"2";"1";"1";"2014-10-02 14:59:44.453";"2014-10-02 15:12:55.187";"1";"1";"1";"140";"139";"module.training_block4.exec-1817.GoNoGo4";;;;;;;;;;;;;;;;;;;;;;;;;;;;;;;;;;;;;;;;;;;;;;;;;;;;;;;;;;;"1248";"2014-10-02 15:07:42.234";"ST_failedStop";"6";"0";"FINISHED";"LEFT";"failure";"509";"1";"2014-10-02 15:07:40.984";"1";;;;;;;;;;;;;;;;;;;;;
"quartonjf";"1194";;"Windows 7";"Rachel's Experiment (D.T.)";"1.0";"2";"1";"1";"2";"1";"1";"2014-10-02 14:59:44.453";"2014-10-02 15:12:55.187";"1";"1";"1";"141";"140";"module.training_block4.exec-1817.GoNoGo4";;;;;;;;;;;;;;;;;;;;;;;;;;;;;;;;;;;;;;;;;;;;;;;;;;;;;;;;;;;"1248";"2014-10-02 15:07:44.734";"ST_correctStop";"2";"1";"FINISHED";"NONE";"success";"0";"1";"2014-10-02 15:07:43.484";"1";;;;;;;;;;;;;;;;;;;;;
"quartonjf";"1194";;"Windows 7";"Rachel's Experiment (D.T.)";"1.0";"2";"1";"1";"2";"1";"1";"2014-10-02 14:59:44.453";"2014-10-02 15:12:55.187";"1";"1";"1";"142";"141";"module.training_block4.exec-1817.GoNoGo4";;;;;;;;;;;;;;;;;;;;;;;;;;;;;;;;;;;;;;;;;;;;;;;;;;;;;;;;;;;"1248";"2014-10-02 15:07:47.234";"ST_correctStop";"20";"1";"FINISHED";"NONE";"success";"0";"1";"2014-10-02 15:07:45.984";"3";;;;;;;;;;;;;;;;;;;;;
"quartonjf";"1194";;"Windows 7";"Rachel's Experiment (D.T.)";"1.0";"2";"1";"1";"2";"1";"1";"2014-10-02 14:59:44.453";"2014-10-02 15:12:55.187";"1";"1";"1";"143";"142";"module.training_block4.exec-1817.GoNoGo4";;;;;;;;;;;;;;;;;;;;;;;;;;;;;;;;;;;;;;;;;;;;;;;;;;;;;;;;;;;"1248";"2014-10-02 15:07:49.734";"ST_correctStop";"8";"0";"FINISHED";"NONE";"success";"0";"1";"2014-10-02 15:07:48.484";"1";;;;;;;;;;;;;;;;;;;;;
"quartonjf";"1194";;"Windows 7";"Rachel's Experiment (D.T.)";"1.0";"2";"1";"1";"2";"1";"1";"2014-10-02 14:59:44.453";"2014-10-02 15:12:55.187";"1";"1";"1";"144";"143";"module.training_block4.exec-1817.GoNoGo4";;;;;;;;;;;;;;;;;;;;;;;;;;;;;;;;;;;;;;;;;;;;;;;;;;;;;;;;;;;"1248";"2014-10-02 15:07:52.234";"ST_correctStop";"0";"0";"FINISHED";"NONE";"success";"0";"1";"2014-10-02 15:07:50.984";"1";;;;;;;;;;;;;;;;;;;;;
"quartonjf";"1194";;"Windows 7";"Rachel's Experiment (D.T.)";"1.0";"2";"1";"1";"2";"1";"1";"2014-10-02 14:59:44.453";"2014-10-02 15:12:55.187";"1";"1";"1";"145";"144";"module.training_block4.exec-1817.GoNoGo4";;;;;;;;;;;;;;;;;;;;;;;;;;;;;;;;;;;;;;;;;;;;;;;;;;;;;;;;;;;"1248";"2014-10-02 15:07:54.734";"ST_correctStop";"5";"1";"FINISHED";"NONE";"success";"0";"1";"2014-10-02 15:07:53.484";"1";;;;;;;;;;;;;;;;;;;;;
"quartonjf";"1194";;"Windows 7";"Rachel's Experiment (D.T.)";"1.0";"2";"1";"1";"2";"1";"1";"2014-10-02 14:59:44.453";"2014-10-02 15:12:55.187";"1";"1";"1";"146";"145";"module.training_block4.exec-1817.GoNoGo4";;;;;;;;;;;;;;;;;;;;;;;;;;;;;;;;;;;;;;;;;;;;;;;;;;;;;;;;;;;"1248";"2014-10-02 15:07:57.234";"NST_correctLoc";"30";"0";"FINISHED";"LEFT";"success";"669";"0";"2014-10-02 15:07:55.984";"3";;;;;;;;;;;;;;;;;;;;;
"quartonjf";"1194";;"Windows 7";"Rachel's Experiment (D.T.)";"1.0";"2";"1";"1";"2";"1";"1";"2014-10-02 14:59:44.453";"2014-10-02 15:12:55.187";"1";"1";"1";"147";"146";"module.training_block4.exec-1817.GoNoGo4";;;;;;;;;;;;;;;;;;;;;;;;;;;;;;;;;;;;;;;;;;;;;;;;;;;;;;;;;;;"1248";"2014-10-02 15:07:59.734";"ST_correctStop";"7";"0";"FINISHED";"NONE";"success";"0";"1";"2014-10-02 15:07:58.484";"1";;;;;;;;;;;;;;;;;;;;;
"quartonjf";"1194";;"Windows 7";"Rachel's Experiment (D.T.)";"1.0";"2";"1";"1";"2";"1";"1";"2014-10-02 14:59:44.453";"2014-10-02 15:12:55.187";"1";"1";"1";"148";"147";"module.training_block4.exec-1817.GoNoGo4";;;;;;;;;;;;;;;;;;;;;;;;;;;;;;;;;;;;;;;;;;;;;;;;;;;;;;;;;;;"1248";"2014-10-02 15:08:02.234";"NST_correctLoc";"23";"1";"FINISHED";"RIGHT";"success";"724";"0";"2014-10-02 15:08:00.984";"3";;;;;;;;;;;;;;;;;;;;;
"quartonjf";"1194";;"Windows 7";"Rachel's Experiment (D.T.)";"1.0";"2";"1";"1";"2";"1";"1";"2014-10-02 14:59:44.453";"2014-10-02 15:12:55.187";"1";"1";"1";"149";"148";"module.training_block4.exec-1817.GoNoGo4";;;;;;;;;;;;;;;;;;;;;;;;;;;;;;;;;;;;;;;;;;;;;;;;;;;;;;;;;;;"1248";"2014-10-02 15:08:04.734";"NST_correctLoc";"33";"0";"FINISHED";"LEFT";"success";"640";"0";"2014-10-02 15:08:03.484";"3";;;;;;;;;;;;;;;;;;;;;
"quartonjf";"1194";;"Windows 7";"Rachel's Experiment (D.T.)";"1.0";"2";"1";"1";"2";"1";"1";"2014-10-02 14:59:44.453";"2014-10-02 15:12:55.187";"1";"1";"1";"150";"149";"module.training_block4.exec-1817.GoNoGo4";;;;;;;;;;;;;;;;;;;;;;;;;;;;;;;;;;;;;;;;;;;;;;;;;;;;;;;;;;;"1248";"2014-10-02 15:08:07.234";"NST_correctLoc";"12";"0";"FINISHED";"LEFT";"success";"676";"0";"2014-10-02 15:08:05.984";"2";;;;;;;;;;;;;;;;;;;;;
"quartonjf";"1194";;"Windows 7";"Rachel's Experiment (D.T.)";"1.0";"2";"1";"1";"2";"1";"1";"2014-10-02 14:59:44.453";"2014-10-02 15:12:55.187";"1";"1";"1";"151";"150";"module.training_block4.exec-1817.GoNoGo4";;;;;;;;;;;;;;;;;;;;;;;;;;;;;;;;;;;;;;;;;;;;;;;;;;;;;;;;;;;"1248";"2014-10-02 15:08:09.734";"ST_correctStop";"31";"1";"FINISHED";"NONE";"success";"0";"1";"2014-10-02 15:08:08.484";"3";;;;;;;;;;;;;;;;;;;;;
"quartonjf";"1194";;"Windows 7";"Rachel's Experiment (D.T.)";"1.0";"2";"1";"1";"2";"1";"1";"2014-10-02 14:59:44.453";"2014-10-02 15:12:55.187";"1";"1";"1";"152";"151";"module.training_block4.exec-1817.GoNoGo4";;;;;;;;;;;;;;;;;;;;;;;;;;;;;;;;;;;;;;;;;;;;;;;;;;;;;;;;;;;"1248";"2014-10-02 15:08:12.234";"NST_correctLoc";"9";"0";"FINISHED";"LEFT";"success";"804";"0";"2014-10-02 15:08:10.984";"2";;;;;;;;;;;;;;;;;;;;;
"quartonjf";"1194";;"Windows 7";"Rachel's Experiment (D.T.)";"1.0";"2";"1";"1";"2";"1";"1";"2014-10-02 14:59:44.453";"2014-10-02 15:12:55.187";"1";"1";"1";"153";"152";"module.training_block4.exec-1817.GoNoGo4";;;;;;;;;;;;;;;;;;;;;;;;;;;;;;;;;;;;;;;;;;;;;;;;;;;;;;;;;;;"1248";"2014-10-02 15:08:14.734";"NST_correctLoc";"34";"1";"FINISHED";"RIGHT";"success";"808";"0";"2014-10-02 15:08:13.484";"3";;;;;;;;;;;;;;;;;;;;;
"quartonjf";"1194";;"Windows 7";"Rachel's Experiment (D.T.)";"1.0";"2";"1";"1";"2";"1";"1";"2014-10-02 14:59:44.453";"2014-10-02 15:12:55.187";"1";"1";"1";"154";"153";"module.training_block4.exec-1817.GoNoGo4";;;;;;;;;;;;;;;;;;;;;;;;;;;;;;;;;;;;;;;;;;;;;;;;;;;;;;;;;;;"1248";"2014-10-02 15:08:17.234";"NST_correctLoc";"13";"1";"FINISHED";"RIGHT";"success";"548";"0";"2014-10-02 15:08:15.984";"2";;;;;;;;;;;;;;;;;;;;;
"quartonjf";"1194";;"Windows 7";"Rachel's Experiment (D.T.)";"1.0";"2";"1";"1";"2";"1";"1";"2014-10-02 14:59:44.453";"2014-10-02 15:12:55.187";"1";"1";"1";"155";"154";"module.training_block4.exec-1817.GoNoGo4";;;;;;;;;;;;;;;;;;;;;;;;;;;;;;;;;;;;;;;;;;;;;;;;;;;;;;;;;;;"1248";"2014-10-02 15:08:19.734";"ST_correctStop";"24";"0";"FINISHED";"NONE";"success";"0";"1";"2014-10-02 15:08:18.484";"3";;;;;;;;;;;;;;;;;;;;;
"quartonjf";"1194";;"Windows 7";"Rachel's Experiment (D.T.)";"1.0";"2";"1";"1";"2";"1";"1";"2014-10-02 14:59:44.453";"2014-10-02 15:12:55.187";"1";"1";"1";"156";"155";"module.training_block4.exec-1817.GoNoGo4";;;;;;;;;;;;;;;;;;;;;;;;;;;;;;;;;;;;;;;;;;;;;;;;;;;;;;;;;;;"1248";"2014-10-02 15:08:22.234";"NST_correctLoc";"18";"1";"FINISHED";"RIGHT";"success";"572";"0";"2014-10-02 15:08:20.984";"3";;;;;;;;;;;;;;;;;;;;;
"quartonjf";"1194";;"Windows 7";"Rachel's Experiment (D.T.)";"1.0";"2";"1";"1";"2";"1";"1";"2014-10-02 14:59:44.453";"2014-10-02 15:12:55.187";"1";"1";"1";"157";"156";"module.training_block4.exec-1817.GoNoGo4";;;;;;;;;;;;;;;;;;;;;;;;;;;;;;;;;;;;;;;;;;;;;;;;;;;;;;;;;;;"1248";"2014-10-02 15:08:24.734";"ST_correctStop";"3";"1";"FINISHED";"NONE";"success";"0";"1";"2014-10-02 15:08:23.484";"1";;;;;;;;;;;;;;;;;;;;;
"quartonjf";"1194";;"Windows 7";"Rachel's Experiment (D.T.)";"1.0";"2";"1";"1";"2";"1";"1";"2014-10-02 14:59:44.453";"2014-10-02 15:12:55.187";"1";"1";"1";"158";"157";"module.training_block4.exec-1817.GoNoGo4";;;;;;;;;;;;;;;;;;;;;;;;;;;;;;;;;;;;;;;;;;;;;;;;;;;;;;;;;;;"1248";"2014-10-02 15:08:27.234";"NST_correctLoc";"16";"0";"FINISHED";"LEFT";"success";"628";"0";"2014-10-02 15:08:25.984";"2";;;;;;;;;;;;;;;;;;;;;
"quartonjf";"1194";;"Windows 7";"Rachel's Experiment (D.T.)";"1.0";"2";"1";"1";"2";"1";"1";"2014-10-02 14:59:44.453";"2014-10-02 15:12:55.187";"1";"1";"1";"159";"158";"module.training_block4.exec-1817.GoNoGo4";;;;;;;;;;;;;;;;;;;;;;;;;;;;;;;;;;;;;;;;;;;;;;;;;;;;;;;;;;;"1248";"2014-10-02 15:08:29.750";"NST_correctLoc";"11";"1";"FINISHED";"RIGHT";"success";"776";"0";"2014-10-02 15:08:28.500";"2";;;;;;;;;;;;;;;;;;;;;
"quartonjf";"1194";;"Windows 7";"Rachel's Experiment (D.T.)";"1.0";"2";"1";"1";"2";"1";"1";"2014-10-02 14:59:44.453";"2014-10-02 15:12:55.187";"1";"1";"1";"160";"159";"module.devaluation_practice.exec-8244.devalPractice";;;;;;;;;;;;"29125";"2014-10-02 15:09:20.484";"0";"5";"5";"5";"14764";"3578";"7769";"2014-10-02 15:08:51.359";;;;;;;;;;;;;;;;;;;;;;;;;;;;;;;;;;;;;;;;;;;;;;;;;;;;;;;;;;;;;;;;;;;;;;
"quartonjf";"1194";;"Windows 7";"Rachel's Experiment (D.T.)";"1.0";"2";"1";"1";"2";"1";"1";"2014-10-02 14:59:44.453";"2014-10-02 15:12:55.187";"1";"1";"1";"161";"160";"module.devaluation_practice.exec-8244.devalPractice";;;;;;;;;;;;"12229";"2014-10-02 15:09:32.734";"1";"5";"5";"6";"933";"3285";"5031";"2014-10-02 15:09:20.500";;;;;;;;;;;;;;;;;;;;;;;;;;;;;;;;;;;;;;;;;;;;;;;;;;;;;;;;;;;;;;;;;;;;;;
"quartonjf";"1194";;"Windows 7";"Rachel's Experiment (D.T.)";"1.0";"2";"1";"1";"2";"1";"1";"2014-10-02 14:59:44.453";"2014-10-02 15:12:55.187";"1";"1";"1";"162";"161";"module.devaluation_practice.exec-8244.devalPractice";;;;;;;;;;;;"13844";"2014-10-02 15:09:46.593";"2";"5";"5";"5";"409";"2492";"7964";"2014-10-02 15:09:32.750";;;;;;;;;;;;;;;;;;;;;;;;;;;;;;;;;;;;;;;;;;;;;;;;;;;;;;;;;;;;;;;;;;;;;;
"quartonjf";"1194";;"Windows 7";"Rachel's Experiment (D.T.)";"1.0";"2";"1";"1";"2";"1";"1";"2014-10-02 14:59:44.453";"2014-10-02 15:12:55.187";"1";"1";"1";"163";"162";"module.devaluation_practice.exec-8244.devalPractice";;;;;;;;;;;;"4463";"2014-10-02 15:09:51.078";"3";"5";"5";"5";"393";"637";"449";"2014-10-02 15:09:46.625";;;;;;;;;;;;;;;;;;;;;;;;;;;;;;;;;;;;;;;;;;;;;;;;;;;;;;;;;;;;;;;;;;;;;;
"quartonjf";"1194";;"Windows 7";"Rachel's Experiment (D.T.)";"1.0";"2";"1";"1";"2";"1";"1";"2014-10-02 14:59:44.453";"2014-10-02 15:12:55.187";"1";"1";"1";"164";"163";"module.devaluation_block1.exec-2365.deval1";"9938";"2014-10-02 15:10:14.437";"16";"3";"2";"3";"2397";"2332";"2218";"2014-10-02 15:10:04.500";"2";;;;;;;;;;;;;;;;;;;;;;;;;;;;;;;;;;;;;;;;;;;;;;;;;;;;;;;;;;;;;;;;;;;;;;;;;;;;;;;;
"quartonjf";"1194";;"Windows 7";"Rachel's Experiment (D.T.)";"1.0";"2";"1";"1";"2";"1";"1";"2014-10-02 14:59:44.453";"2014-10-02 15:12:55.187";"1";"1";"1";"165";"164";"module.devaluation_block1.exec-2365.deval1";"9246";"2014-10-02 15:10:23.703";"22";"7";"3";"8";"2420";"2221";"1605";"2014-10-02 15:10:14.453";"3";;;;;;;;;;;;;;;;;;;;;;;;;;;;;;;;;;;;;;;;;;;;;;;;;;;;;;;;;;;;;;;;;;;;;;;;;;;;;;;;
"quartonjf";"1194";;"Windows 7";"Rachel's Experiment (D.T.)";"1.0";"2";"1";"1";"2";"1";"1";"2014-10-02 14:59:44.453";"2014-10-02 15:12:55.187";"1";"1";"1";"166";"165";"module.devaluation_block1.exec-2365.deval1";"7806";"2014-10-02 15:10:31.531";"10";"9";"8";"9";"2106";"1357";"1353";"2014-10-02 15:10:23.718";"2";;;;;;;;;;;;;;;;;;;;;;;;;;;;;;;;;;;;;;;;;;;;;;;;;;;;;;;;;;;;;;;;;;;;;;;;;;;;;;;;
"quartonjf";"1194";;"Windows 7";"Rachel's Experiment (D.T.)";"1.0";"2";"1";"1";"2";"1";"1";"2014-10-02 14:59:44.453";"2014-10-02 15:12:55.187";"1";"1";"1";"167";"166";"module.devaluation_block1.exec-2365.deval1";"6630";"2014-10-02 15:10:38.171";"14";"7";"8";"7";"966";"1114";"1545";"2014-10-02 15:10:31.546";"2";;;;;;;;;;;;;;;;;;;;;;;;;;;;;;;;;;;;;;;;;;;;;;;;;;;;;;;;;;;;;;;;;;;;;;;;;;;;;;;;
"quartonjf";"1194";;"Windows 7";"Rachel's Experiment (D.T.)";"1.0";"2";"1";"1";"2";"1";"1";"2014-10-02 14:59:44.453";"2014-10-02 15:12:55.187";"1";"1";"1";"168";"167";"module.devaluation_block1.exec-2365.deval1";"6517";"2014-10-02 15:10:44.703";"4";"9";"9";"9";"1261";"1244";"1031";"2014-10-02 15:10:38.187";"1";;;;;;;;;;;;;;;;;;;;;;;;;;;;;;;;;;;;;;;;;;;;;;;;;;;;;;;;;;;;;;;;;;;;;;;;;;;;;;;;
"quartonjf";"1194";;"Windows 7";"Rachel's Experiment (D.T.)";"1.0";"2";"1";"1";"2";"1";"1";"2014-10-02 14:59:44.453";"2014-10-02 15:12:55.187";"1";"1";"1";"169";"168";"module.devaluation_block1.exec-2365.deval1";"5230";"2014-10-02 15:10:49.953";"20";"6";"6";"6";"954";"586";"709";"2014-10-02 15:10:44.718";"3";;;;;;;;;;;;;;;;;;;;;;;;;;;;;;;;;;;;;;;;;;;;;;;;;;;;;;;;;;;;;;;;;;;;;;;;;;;;;;;;
"quartonjf";"1194";;"Windows 7";"Rachel's Experiment (D.T.)";"1.0";"2";"1";"1";"2";"1";"1";"2014-10-02 14:59:44.453";"2014-10-02 15:12:55.187";"1";"1";"1";"170";"169";"module.devaluation_block1.exec-2365.deval1";"5254";"2014-10-02 15:10:55.234";"7";"7";"7";"7";"808";"686";"791";"2014-10-02 15:10:49.968";"1";;;;;;;;;;;;;;;;;;;;;;;;;;;;;;;;;;;;;;;;;;;;;;;;;;;;;;;;;;;;;;;;;;;;;;;;;;;;;;;;
"quartonjf";"1194";;"Windows 7";"Rachel's Experiment (D.T.)";"1.0";"2";"1";"1";"2";"1";"1";"2014-10-02 14:59:44.453";"2014-10-02 15:12:55.187";"1";"1";"1";"171";"170";"module.devaluation_block1.exec-2365.deval1";"6175";"2014-10-02 15:11:01.421";"5";"9";"9";"9";"1023";"1097";"1067";"2014-10-02 15:10:55.250";"1";;;;;;;;;;;;;;;;;;;;;;;;;;;;;;;;;;;;;;;;;;;;;;;;;;;;;;;;;;;;;;;;;;;;;;;;;;;;;;;;
"quartonjf";"1194";;"Windows 7";"Rachel's Experiment (D.T.)";"1.0";"2";"1";"1";"2";"1";"1";"2014-10-02 14:59:44.453";"2014-10-02 15:12:55.187";"1";"1";"1";"172";"171";"module.devaluation_block1.exec-2365.deval1";"5637";"2014-10-02 15:11:07.078";"21";"9";"7";"9";"1035";"705";"912";"2014-10-02 15:11:01.437";"3";;;;;;;;;;;;;;;;;;;;;;;;;;;;;;;;;;;;;;;;;;;;;;;;;;;;;;;;;;;;;;;;;;;;;;;;;;;;;;;;
"quartonjf";"1194";;"Windows 7";"Rachel's Experiment (D.T.)";"1.0";"2";"1";"1";"2";"1";"1";"2014-10-02 14:59:44.453";"2014-10-02 15:12:55.187";"1";"1";"1";"173";"172";"module.devaluation_block1.exec-2365.deval1";"8542";"2014-10-02 15:11:15.640";"11";"9";"8";"6";"1683";"1937";"1935";"2014-10-02 15:11:07.093";"2";;;;;;;;;;;;;;;;;;;;;;;;;;;;;;;;;;;;;;;;;;;;;;;;;;;;;;;;;;;;;;;;;;;;;;;;;;;;;;;;
"quartonjf";"1194";;"Windows 7";"Rachel's Experiment (D.T.)";"1.0";"2";"1";"1";"2";"1";"1";"2014-10-02 14:59:44.453";"2014-10-02 15:12:55.187";"1";"1";"1";"174";"173";"module.devaluation_block1.exec-2365.deval1";"5301";"2014-10-02 15:11:20.953";"9";"7";"7";"5";"720";"773";"813";"2014-10-02 15:11:15.656";"2";;;;;;;;;;;;;;;;;;;;;;;;;;;;;;;;;;;;;;;;;;;;;;;;;;;;;;;;;;;;;;;;;;;;;;;;;;;;;;;;
"quartonjf";"1194";;"Windows 7";"Rachel's Experiment (D.T.)";"1.0";"2";"1";"1";"2";"1";"1";"2014-10-02 14:59:44.453";"2014-10-02 15:12:55.187";"1";"1";"1";"175";"174";"module.devaluation_block1.exec-2365.deval1";"6231";"2014-10-02 15:11:27.203";"3";"9";"9";"9";"1240";"974";"1033";"2014-10-02 15:11:20.968";"1";;;;;;;;;;;;;;;;;;;;;;;;;;;;;;;;;;;;;;;;;;;;;;;;;;;;;;;;;;;;;;;;;;;;;;;;;;;;;;;;
"quartonjf";"1194";;"Windows 7";"Rachel's Experiment (D.T.)";"1.0";"2";"1";"1";"2";"1";"1";"2014-10-02 14:59:44.453";"2014-10-02 15:12:55.187";"1";"1";"1";"176";"175";"module.devaluation_block1.exec-2365.deval1";"5838";"2014-10-02 15:11:33.062";"17";"2";"1";"2";"949";"1080";"840";"2014-10-02 15:11:27.218";"2";;;;;;;;;;;;;;;;;;;;;;;;;;;;;;;;;;;;;;;;;;;;;;;;;;;;;;;;;;;;;;;;;;;;;;;;;;;;;;;;
"quartonjf";"1194";;"Windows 7";"Rachel's Experiment (D.T.)";"1.0";"2";"1";"1";"2";"1";"1";"2014-10-02 14:59:44.453";"2014-10-02 15:12:55.187";"1";"1";"1";"177";"176";"module.devaluation_block1.exec-2365.deval1";"5286";"2014-10-02 15:11:38.359";"8";"7";"5";"8";"698";"727";"886";"2014-10-02 15:11:33.078";"1";;;;;;;;;;;;;;;;;;;;;;;;;;;;;;;;;;;;;;;;;;;;;;;;;;;;;;;;;;;;;;;;;;;;;;;;;;;;;;;;
"quartonjf";"1194";;"Windows 7";"Rachel's Experiment (D.T.)";"1.0";"2";"1";"1";"2";"1";"1";"2014-10-02 14:59:44.453";"2014-10-02 15:12:55.187";"1";"1";"1";"178";"177";"module.devaluation_block1.exec-2365.deval1";"5845";"2014-10-02 15:11:44.234";"18";"7";"5";"6";"777";"717";"1375";"2014-10-02 15:11:38.375";"3";;;;;;;;;;;;;;;;;;;;;;;;;;;;;;;;;;;;;;;;;;;;;;;;;;;;;;;;;;;;;;;;;;;;;;;;;;;;;;;;
"quartonjf";"1194";;"Windows 7";"Rachel's Experiment (D.T.)";"1.0";"2";"1";"1";"2";"1";"1";"2014-10-02 14:59:44.453";"2014-10-02 15:12:55.187";"1";"1";"1";"179";"178";"module.devaluation_block1.exec-2365.deval1";"6910";"2014-10-02 15:11:51.156";"19";"3";"3";"7";"1550";"1644";"719";"2014-10-02 15:11:44.250";"3";;;;;;;;;;;;;;;;;;;;;;;;;;;;;;;;;;;;;;;;;;;;;;;;;;;;;;;;;;;;;;;;;;;;;;;;;;;;;;;;
"quartonjf";"1194";;"Windows 7";"Rachel's Experiment (D.T.)";"1.0";"2";"1";"1";"2";"1";"1";"2014-10-02 14:59:44.453";"2014-10-02 15:12:55.187";"1";"1";"1";"180";"179";"module.devaluation_block1.exec-2365.deval1";"7181";"2014-10-02 15:11:58.359";"13";"8";"8";"9";"956";"1219";"2015";"2014-10-02 15:11:51.171";"2";;;;;;;;;;;;;;;;;;;;;;;;;;;;;;;;;;;;;;;;;;;;;;;;;;;;;;;;;;;;;;;;;;;;;;;;;;;;;;;;
"quartonjf";"1194";;"Windows 7";"Rachel's Experiment (D.T.)";"1.0";"2";"1";"1";"2";"1";"1";"2014-10-02 14:59:44.453";"2014-10-02 15:12:55.187";"1";"1";"1";"181";"180";"module.devaluation_block1.exec-2365.deval1";"8342";"2014-10-02 15:12:06.718";"26";"8";"2";"6";"1993";"1392";"1972";"2014-10-02 15:11:58.375";"3";;;;;;;;;;;;;;;;;;;;;;;;;;;;;;;;;;;;;;;;;;;;;;;;;;;;;;;;;;;;;;;;;;;;;;;;;;;;;;;;
"quartonjf";"1194";;"Windows 7";"Rachel's Experiment (D.T.)";"1.0";"2";"1";"1";"2";"1";"1";"2014-10-02 14:59:44.453";"2014-10-02 15:12:55.187";"1";"1";"1";"182";"181";"module.devaluation_block1.exec-2365.deval1";"6046";"2014-10-02 15:12:12.781";"15";"2";"2";"2";"1057";"893";"1110";"2014-10-02 15:12:06.734";"2";;;;;;;;;;;;;;;;;;;;;;;;;;;;;;;;;;;;;;;;;;;;;;;;;;;;;;;;;;;;;;;;;;;;;;;;;;;;;;;;
"quartonjf";"1194";;"Windows 7";"Rachel's Experiment (D.T.)";"1.0";"2";"1";"1";"2";"1";"1";"2014-10-02 14:59:44.453";"2014-10-02 15:12:55.187";"1";"1";"1";"183";"182";"module.devaluation_block1.exec-2365.deval1";"4398";"2014-10-02 15:12:17.187";"2";"6";"6";"6";"570";"402";"436";"2014-10-02 15:12:12.796";"1";;;;;;;;;;;;;;;;;;;;;;;;;;;;;;;;;;;;;;;;;;;;;;;;;;;;;;;;;;;;;;;;;;;;;;;;;;;;;;;;
"quartonjf";"1194";;"Windows 7";"Rachel's Experiment (D.T.)";"1.0";"2";"1";"1";"2";"1";"1";"2014-10-02 14:59:44.453";"2014-10-02 15:12:55.187";"1";"1";"1";"184";"183";"module.devaluation_block1.exec-2365.deval1";"5238";"2014-10-02 15:12:22.453";"0";"7";"7";"7";"797";"690";"756";"2014-10-02 15:12:17.218";"1";;;;;;;;;;;;;;;;;;;;;;;;;;;;;;;;;;;;;;;;;;;;;;;;;;;;;;;;;;;;;;;;;;;;;;;;;;;;;;;;
"quartonjf";"1194";;"Windows 7";"Rachel's Experiment (D.T.)";"1.0";"2";"1";"1";"2";"1";"1";"2014-10-02 14:59:44.453";"2014-10-02 15:12:55.187";"1";"1";"1";"185";"184";"module.devaluation_block1.exec-2365.deval1";"5789";"2014-10-02 15:12:28.265";"24";"7";"4";"7";"698";"1404";"703";"2014-10-02 15:12:22.468";"3";;;;;;;;;;;;;;;;;;;;;;;;;;;;;;;;;;;;;;;;;;;;;;;;;;;;;;;;;;;;;;;;;;;;;;;;;;;;;;;;
"quartonjf";"1194";;"Windows 7";"Rachel's Experiment (D.T.)";"1.0";"2";"1";"1";"2";"1";"1";"2014-10-02 14:59:44.453";"2014-10-02 15:12:55.187";"1";"1";"1";"186";"185";"module.devaluation_block1.exec-2365.deval1";"5798";"2014-10-02 15:12:34.078";"12";"9";"9";"9";"910";"1063";"840";"2014-10-02 15:12:28.281";"2";;;;;;;;;;;;;;;;;;;;;;;;;;;;;;;;;;;;;;;;;;;;;;;;;;;;;;;;;;;;;;;;;;;;;;;;;;;;;;;;
"quartonjf";"1194";;"Windows 7";"Rachel's Experiment (D.T.)";"1.0";"2";"1";"1";"2";"1";"1";"2014-10-02 14:59:44.453";"2014-10-02 15:12:55.187";"1";"1";"1";"187";"186";"module.devaluation_block1.exec-2365.deval1";"5050";"2014-10-02 15:12:39.140";"1";"6";"6";"6";"1185";"370";"498";"2014-10-02 15:12:34.093";"1";;;;;;;;;;;;;;;;;;;;;;;;;;;;;;;;;;;;;;;;;;;;;;;;;;;;;;;;;;;;;;;;;;;;;;;;;;;;;;;;
"quartonjf";"1194";;"Windows 7";"Rachel's Experiment (D.T.)";"1.0";"2";"1";"1";"2";"1";"1";"2014-10-02 14:59:44.453";"2014-10-02 15:12:55.187";"1";"1";"1";"188";"187";"module.devaluation_block1.exec-2365.deval1";"5533";"2014-10-02 15:12:44.703";"23";"8";"8";"8";"915";"875";"772";"2014-10-02 15:12:39.156";"3";;;;;;;;;;;;;;;;;;;;;;;;;;;;;;;;;;;;;;;;;;;;;;;;;;;;;;;;;;;;;;;;;;;;;;;;;;;;;;;;
"quartonjf";"1194";;"Windows 7";"Rachel's Experiment (D.T.)";"1.0";"2";"1";"1";"2";"1";"1";"2014-10-02 14:59:44.453";"2014-10-02 15:12:55.187";"1";"1";"1";"189";"188";"module.devaluation_block1.exec-2365.deval1";"4046";"2014-10-02 15:12:48.765";"25";"5";"5";"5";"528";"267";"272";"2014-10-02 15:12:44.718";"3";;;;;;;;;;;;;;;;;;;;;;;;;;;;;;;;;;;;;;;;;;;;;;;;;;;;;;;;;;;;;;;;;;;;;;;;;;;;;;;;
"quartonjf";"1194";;"Windows 7";"Rachel's Experiment (D.T.)";"1.0";"2";"1";"1";"2";"1";"1";"2014-10-02 14:59:44.453";"2014-10-02 15:12:55.187";"1";"1";"1";"190";"189";"module.devaluation_block1.exec-2365.deval1";"4086";"2014-10-02 15:12:52.859";"6";"5";"5";"5";"665";"215";"221";"2014-10-02 15:12:48.781";"1";;;;;;;;;;;;;;;;;;;;;;;;;;;;;;;;;;;;;;;;;;;;;;;;;;;;;;;;;;;;;;;;;;;;;;;;;;;;;;;;
