"user.name";"user.yearOfBirth";"user.sex";"user.osName";"module.name";"module.version";"module.online.subject.code";"module.online.study.id";"module.online.module.nr";"module.online.group.nr";"session.id";"session.index";"session.startTime";"session.endTime";"session.completed";"session.node-4530.DevalQorder";"session.node-5357.conditionType";"session.node-6190.DevalQorder";"session.node-9235.conditionType";"trial.id";"trial.index";"trial.name";"trial.deval1.durationTime";"trial.deval1.endTime";"trial.deval1.icon";"trial.deval1.Resp_Attractive";"trial.deval1.Resp_Eat";"trial.deval1.Resp_Taste";"trial.deval1.RT_Attractive";"trial.deval1.RT_Eat";"trial.deval1.RT_Taste";"trial.deval1.startTime";"trial.deval1.stimulus type";"trial.devalPractice.durationTime";"trial.devalPractice.endTime";"trial.devalPractice.icon";"trial.devalPractice.Resp_Attractive";"trial.devalPractice.Resp_Eat";"trial.devalPractice.Resp_Taste";"trial.devalPractice.RT_Attractive";"trial.devalPractice.RT_Eat";"trial.devalPractice.RT_Taste";"trial.devalPractice.startTime";"trial.devalPractice.stimulus type";"trial.GoNoGo1.durationTime";"trial.GoNoGo1.endTime";"trial.GoNoGo1.Error Type";"trial.GoNoGo1.icon";"trial.GoNoGo1.location";"trial.GoNoGo1.outcome";"trial.GoNoGo1.response";"trial.GoNoGo1.result";"trial.GoNoGo1.RT";"trial.GoNoGo1.signal";"trial.GoNoGo1.startTime";"trial.GoNoGo1.stimulus type";"trial.GoNoGo2.durationTime";"trial.GoNoGo2.endTime";"trial.GoNoGo2.Error Type";"trial.GoNoGo2.icon";"trial.GoNoGo2.location";"trial.GoNoGo2.outcome";"trial.GoNoGo2.response";"trial.GoNoGo2.result";"trial.GoNoGo2.RT";"trial.GoNoGo2.signal";"trial.GoNoGo2.startTime";"trial.GoNoGo2.stimulus type";"trial.GoNoGo3.durationTime";"trial.GoNoGo3.endTime";"trial.GoNoGo3.Error Type";"trial.GoNoGo3.icon";"trial.GoNoGo3.location";"trial.GoNoGo3.outcome";"trial.GoNoGo3.response";"trial.GoNoGo3.result";"trial.GoNoGo3.RT";"trial.GoNoGo3.signal";"trial.GoNoGo3.startTime";"trial.GoNoGo3.stimulus type";"trial.GoNoGo4.durationTime";"trial.GoNoGo4.endTime";"trial.GoNoGo4.Error Type";"trial.GoNoGo4.icon";"trial.GoNoGo4.location";"trial.GoNoGo4.outcome";"trial.GoNoGo4.response";"trial.GoNoGo4.result";"trial.GoNoGo4.RT";"trial.GoNoGo4.signal";"trial.GoNoGo4.startTime";"trial.GoNoGo4.stimulus type";"trial.GoNoGo_Practice.durationTime";"trial.GoNoGo_Practice.endTime";"trial.GoNoGo_Practice.icon";"trial.GoNoGo_Practice.location";"trial.GoNoGo_Practice.outcome";"trial.GoNoGo_Practice.response";"trial.GoNoGo_Practice.result";"trial.GoNoGo_Practice.RT";"trial.GoNoGo_Practice.signal";"trial.GoNoGo_Practice.startTime";"trial.GoNoGo_Practice.stimulus type";"trial.GoNoGo_Tutorial.durationTime";"trial.GoNoGo_Tutorial.endTime";"trial.GoNoGo_Tutorial.icon";"trial.GoNoGo_Tutorial.location";"trial.GoNoGo_Tutorial.outcome";"trial.GoNoGo_Tutorial.response";"trial.GoNoGo_Tutorial.result";"trial.GoNoGo_Tutorial.RT";"trial.GoNoGo_Tutorial.signal";"trial.GoNoGo_Tutorial.startTime"
"C1412569";"1996";;"Windows 7";"Rachel's Experiment (D.T.)";"1.0";"2";"1";"1";"2";"2";"2";"2014-10-16 11:03:27.139";"2014-10-16 11:16:21.946";"1";;"0";"1";;"1";"0";"module.GoNoGotutorial.exec-5318.GoNoGo_Tutorial";;;;;;;;;;;;;;;;;;;;;;;;;;;;;;;;;;;;;;;;;;;;;;;;;;;;;;;;;;;;;;;;;;;;;;;;;;;;;;;;;;"3995";"2014-10-16 11:04:19.524";"leftResponse";"0";"FINISHED";"LEFT";"success";"981";"0";"2014-10-16 11:04:15.515"
"C1412569";"1996";;"Windows 7";"Rachel's Experiment (D.T.)";"1.0";"2";"1";"1";"2";"2";"2";"2014-10-16 11:03:27.139";"2014-10-16 11:16:21.946";"1";;"0";"1";;"2";"1";"module.GoNoGotutorial.exec-5318.GoNoGo_Tutorial";;;;;;;;;;;;;;;;;;;;;;;;;;;;;;;;;;;;;;;;;;;;;;;;;;;;;;;;;;;;;;;;;;;;;;;;;;;;;;;;;;"3994";"2014-10-16 11:04:24.828";"rightResponse";"1";"FINISHED";"RIGHT";"success";"1460";"0";"2014-10-16 11:04:20.819"
"C1412569";"1996";;"Windows 7";"Rachel's Experiment (D.T.)";"1.0";"2";"1";"1";"2";"2";"2";"2014-10-16 11:03:27.139";"2014-10-16 11:16:21.946";"1";;"0";"1";;"3";"2";"module.GoNoGotutorial.exec-5318.GoNoGo_Tutorial";;;;;;;;;;;;;;;;;;;;;;;;;;;;;;;;;;;;;;;;;;;;;;;;;;;;;;;;;;;;;;;;;;;;;;;;;;;;;;;;;;"4003";"2014-10-16 11:04:30.116";"quickResponse";"0";"FINISHED";"LEFT";"success";"341";"0";"2014-10-16 11:04:26.107"
"C1412569";"1996";;"Windows 7";"Rachel's Experiment (D.T.)";"1.0";"2";"1";"1";"2";"2";"2";"2014-10-16 11:03:27.139";"2014-10-16 11:16:21.946";"1";;"0";"1";;"4";"3";"module.GoNoGopractice.exec-7153.GoNoGo_Practice";;;;;;;;;;;;;;;;;;;;;;;;;;;;;;;;;;;;;;;;;;;;;;;;;;;;;;;;;;;;;;;;;;;;;;;"1959";"2014-10-16 11:04:47.464";"18";"0";"FINISHED";"LEFT";"success";"525";"0";"2014-10-16 11:04:45.498";"3";;;;;;;;;;
"C1412569";"1996";;"Windows 7";"Rachel's Experiment (D.T.)";"1.0";"2";"1";"1";"2";"2";"2";"2014-10-16 11:03:27.139";"2014-10-16 11:16:21.946";"1";;"0";"1";;"5";"4";"module.GoNoGopractice.exec-7153.GoNoGo_Practice";;;;;;;;;;;;;;;;;;;;;;;;;;;;;;;;;;;;;;;;;;;;;;;;;;;;;;;;;;;;;;;;;;;;;;;"1959";"2014-10-16 11:04:50.724";"21";"1";"FINISHED";"RIGHT";"success";"425";"0";"2014-10-16 11:04:48.758";"3";;;;;;;;;;
"C1412569";"1996";;"Windows 7";"Rachel's Experiment (D.T.)";"1.0";"2";"1";"1";"2";"2";"2";"2014-10-16 11:03:27.139";"2014-10-16 11:16:21.946";"1";;"0";"1";;"6";"5";"module.GoNoGopractice.exec-7153.GoNoGo_Practice";;;;;;;;;;;;;;;;;;;;;;;;;;;;;;;;;;;;;;;;;;;;;;;;;;;;;;;;;;;;;;;;;;;;;;;"1959";"2014-10-16 11:04:53.969";"14";"1";"FINISHED";"RIGHT";"success";"388";"0";"2014-10-16 11:04:52.003";"2";;;;;;;;;;
"C1412569";"1996";;"Windows 7";"Rachel's Experiment (D.T.)";"1.0";"2";"1";"1";"2";"2";"2";"2014-10-16 11:03:27.139";"2014-10-16 11:16:21.946";"1";;"0";"1";;"7";"6";"module.GoNoGopractice.exec-7153.GoNoGo_Practice";;;;;;;;;;;;;;;;;;;;;;;;;;;;;;;;;;;;;;;;;;;;;;;;;;;;;;;;;;;;;;;;;;;;;;;"1959";"2014-10-16 11:04:57.214";"26";"0";"FINISHED";"LEFT";"success";"519";"0";"2014-10-16 11:04:55.248";"3";;;;;;;;;;
"C1412569";"1996";;"Windows 7";"Rachel's Experiment (D.T.)";"1.0";"2";"1";"1";"2";"2";"2";"2014-10-16 11:03:27.139";"2014-10-16 11:16:21.946";"1";;"0";"1";;"8";"7";"module.GoNoGopractice.exec-7153.GoNoGo_Practice";;;;;;;;;;;;;;;;;;;;;;;;;;;;;;;;;;;;;;;;;;;;;;;;;;;;;;;;;;;;;;;;;;;;;;;"1959";"2014-10-16 11:05:00.458";"2";"0";"FINISHED";"LEFT";"success";"442";"0";"2014-10-16 11:04:58.493";"1";;;;;;;;;;
"C1412569";"1996";;"Windows 7";"Rachel's Experiment (D.T.)";"1.0";"2";"1";"1";"2";"2";"2";"2014-10-16 11:03:27.139";"2014-10-16 11:16:21.946";"1";;"0";"1";;"9";"8";"module.GoNoGopractice.exec-7153.GoNoGo_Practice";;;;;;;;;;;;;;;;;;;;;;;;;;;;;;;;;;;;;;;;;;;;;;;;;;;;;;;;;;;;;;;;;;;;;;;"1959";"2014-10-16 11:05:03.703";"30";"0";"FINISHED";"LEFT";"success";"422";"0";"2014-10-16 11:05:01.738";"3";;;;;;;;;;
"C1412569";"1996";;"Windows 7";"Rachel's Experiment (D.T.)";"1.0";"2";"1";"1";"2";"2";"2";"2014-10-16 11:03:27.139";"2014-10-16 11:16:21.946";"1";;"0";"1";;"10";"9";"module.GoNoGopractice.exec-7153.GoNoGo_Practice";;;;;;;;;;;;;;;;;;;;;;;;;;;;;;;;;;;;;;;;;;;;;;;;;;;;;;;;;;;;;;;;;;;;;;;"1959";"2014-10-16 11:05:06.948";"6";"1";"FINISHED";"RIGHT";"success";"353";"0";"2014-10-16 11:05:04.982";"1";;;;;;;;;;
"C1412569";"1996";;"Windows 7";"Rachel's Experiment (D.T.)";"1.0";"2";"1";"1";"2";"2";"2";"2014-10-16 11:03:27.139";"2014-10-16 11:16:21.946";"1";;"0";"1";;"11";"10";"module.GoNoGopractice.exec-7153.GoNoGo_Practice";;;;;;;;;;;;;;;;;;;;;;;;;;;;;;;;;;;;;;;;;;;;;;;;;;;;;;;;;;;;;;;;;;;;;;;"1960";"2014-10-16 11:05:10.193";"34";"0";"FINISHED";"LEFT";"success";"485";"0";"2014-10-16 11:05:08.227";"3";;;;;;;;;;
"C1412569";"1996";;"Windows 7";"Rachel's Experiment (D.T.)";"1.0";"2";"1";"1";"2";"2";"2";"2014-10-16 11:03:27.139";"2014-10-16 11:16:21.946";"1";;"0";"1";;"12";"11";"module.GoNoGopractice.exec-7153.GoNoGo_Practice";;;;;;;;;;;;;;;;;;;;;;;;;;;;;;;;;;;;;;;;;;;;;;;;;;;;;;;;;;;;;;;;;;;;;;;"1957";"2014-10-16 11:05:13.547";"23";"1";"FINISHED";"RIGHT";"success";"448";"0";"2014-10-16 11:05:11.581";"3";;;;;;;;;;
"C1412569";"1996";;"Windows 7";"Rachel's Experiment (D.T.)";"1.0";"2";"1";"1";"2";"2";"2";"2014-10-16 11:03:27.139";"2014-10-16 11:16:21.946";"1";;"0";"1";;"13";"12";"module.GoNoGopractice.exec-7153.GoNoGo_Practice";;;;;;;;;;;;;;;;;;;;;;;;;;;;;;;;;;;;;;;;;;;;;;;;;;;;;;;;;;;;;;;;;;;;;;;"1958";"2014-10-16 11:05:16.792";"13";"0";"FINISHED";"LEFT";"success";"412";"0";"2014-10-16 11:05:14.826";"2";;;;;;;;;;
"C1412569";"1996";;"Windows 7";"Rachel's Experiment (D.T.)";"1.0";"2";"1";"1";"2";"2";"2";"2014-10-16 11:03:27.139";"2014-10-16 11:16:21.946";"1";;"0";"1";;"14";"13";"module.GoNoGopractice.exec-7153.GoNoGo_Practice";;;;;;;;;;;;;;;;;;;;;;;;;;;;;;;;;;;;;;;;;;;;;;;;;;;;;;;;;;;;;;;;;;;;;;;"1960";"2014-10-16 11:05:20.036";"3";"1";"FINISHED";"RIGHT";"success";"393";"0";"2014-10-16 11:05:18.071";"1";;;;;;;;;;
"C1412569";"1996";;"Windows 7";"Rachel's Experiment (D.T.)";"1.0";"2";"1";"1";"2";"2";"2";"2014-10-16 11:03:27.139";"2014-10-16 11:16:21.946";"1";;"0";"1";;"15";"14";"module.GoNoGopractice.exec-7153.GoNoGo_Practice";;;;;;;;;;;;;;;;;;;;;;;;;;;;;;;;;;;;;;;;;;;;;;;;;;;;;;;;;;;;;;;;;;;;;;;"1959";"2014-10-16 11:05:23.281";"27";"1";"FINISHED";"RIGHT";"success";"420";"0";"2014-10-16 11:05:21.316";"3";;;;;;;;;;
"C1412569";"1996";;"Windows 7";"Rachel's Experiment (D.T.)";"1.0";"2";"1";"1";"2";"2";"2";"2014-10-16 11:03:27.139";"2014-10-16 11:16:21.946";"1";;"0";"1";;"16";"15";"module.training_block1.exec-7657.GoNoGo1";;;;;;;;;;;;;;;;;;;;;;;"1256";"2014-10-16 11:05:33.406";"NST_correctLoc";"30";"1";"FINISHED";"RIGHT";"success";"376";"0";"2014-10-16 11:05:32.142";"3";;;;;;;;;;;;;;;;;;;;;;;;;;;;;;;;;;;;;;;;;;;;;;;;;;;;;;;;;
"C1412569";"1996";;"Windows 7";"Rachel's Experiment (D.T.)";"1.0";"2";"1";"1";"2";"2";"2";"2014-10-16 11:03:27.139";"2014-10-16 11:16:21.946";"1";;"0";"1";;"17";"16";"module.training_block1.exec-7657.GoNoGo1";;;;;;;;;;;;;;;;;;;;;;;"1257";"2014-10-16 11:05:35.948";"NST_correctLoc";"26";"1";"FINISHED";"RIGHT";"success";"362";"0";"2014-10-16 11:05:34.685";"3";;;;;;;;;;;;;;;;;;;;;;;;;;;;;;;;;;;;;;;;;;;;;;;;;;;;;;;;;
"C1412569";"1996";;"Windows 7";"Rachel's Experiment (D.T.)";"1.0";"2";"1";"1";"2";"2";"2";"2014-10-16 11:03:27.139";"2014-10-16 11:16:21.946";"1";;"0";"1";;"18";"17";"module.training_block1.exec-7657.GoNoGo1";;;;;;;;;;;;;;;;;;;;;;;"1257";"2014-10-16 11:05:38.491";"NST_correctLoc";"24";"1";"FINISHED";"RIGHT";"success";"388";"0";"2014-10-16 11:05:37.228";"3";;;;;;;;;;;;;;;;;;;;;;;;;;;;;;;;;;;;;;;;;;;;;;;;;;;;;;;;;
"C1412569";"1996";;"Windows 7";"Rachel's Experiment (D.T.)";"1.0";"2";"1";"1";"2";"2";"2";"2014-10-16 11:03:27.139";"2014-10-16 11:16:21.946";"1";;"0";"1";;"19";"18";"module.training_block1.exec-7657.GoNoGo1";;;;;;;;;;;;;;;;;;;;;;;"1258";"2014-10-16 11:05:41.034";"NST_correctLoc";"5";"1";"FINISHED";"RIGHT";"success";"389";"0";"2014-10-16 11:05:39.770";"1";;;;;;;;;;;;;;;;;;;;;;;;;;;;;;;;;;;;;;;;;;;;;;;;;;;;;;;;;
"C1412569";"1996";;"Windows 7";"Rachel's Experiment (D.T.)";"1.0";"2";"1";"1";"2";"2";"2";"2014-10-16 11:03:27.139";"2014-10-16 11:16:21.946";"1";;"0";"1";;"20";"19";"module.training_block1.exec-7657.GoNoGo1";;;;;;;;;;;;;;;;;;;;;;;"1258";"2014-10-16 11:05:43.577";"NST_correctLoc";"25";"1";"FINISHED";"RIGHT";"success";"438";"0";"2014-10-16 11:05:42.313";"3";;;;;;;;;;;;;;;;;;;;;;;;;;;;;;;;;;;;;;;;;;;;;;;;;;;;;;;;;
"C1412569";"1996";;"Windows 7";"Rachel's Experiment (D.T.)";"1.0";"2";"1";"1";"2";"2";"2";"2014-10-16 11:03:27.139";"2014-10-16 11:16:21.946";"1";;"0";"1";;"21";"20";"module.training_block1.exec-7657.GoNoGo1";;;;;;;;;;;;;;;;;;;;;;;"1256";"2014-10-16 11:05:46.120";"NST_correctLoc";"14";"1";"FINISHED";"RIGHT";"success";"358";"0";"2014-10-16 11:05:44.856";"2";;;;;;;;;;;;;;;;;;;;;;;;;;;;;;;;;;;;;;;;;;;;;;;;;;;;;;;;;
"C1412569";"1996";;"Windows 7";"Rachel's Experiment (D.T.)";"1.0";"2";"1";"1";"2";"2";"2";"2014-10-16 11:03:27.139";"2014-10-16 11:16:21.946";"1";;"0";"1";;"22";"21";"module.training_block1.exec-7657.GoNoGo1";;;;;;;;;;;;;;;;;;;;;;;"1258";"2014-10-16 11:05:48.662";"NST_correctLoc";"28";"0";"FINISHED";"LEFT";"success";"368";"0";"2014-10-16 11:05:47.399";"3";;;;;;;;;;;;;;;;;;;;;;;;;;;;;;;;;;;;;;;;;;;;;;;;;;;;;;;;;
"C1412569";"1996";;"Windows 7";"Rachel's Experiment (D.T.)";"1.0";"2";"1";"1";"2";"2";"2";"2014-10-16 11:03:27.139";"2014-10-16 11:16:21.946";"1";;"0";"1";;"23";"22";"module.training_block1.exec-7657.GoNoGo1";;;;;;;;;;;;;;;;;;;;;;;"1257";"2014-10-16 11:05:51.205";"NST_correctLoc";"20";"0";"FINISHED";"LEFT";"success";"322";"0";"2014-10-16 11:05:49.942";"3";;;;;;;;;;;;;;;;;;;;;;;;;;;;;;;;;;;;;;;;;;;;;;;;;;;;;;;;;
"C1412569";"1996";;"Windows 7";"Rachel's Experiment (D.T.)";"1.0";"2";"1";"1";"2";"2";"2";"2014-10-16 11:03:27.139";"2014-10-16 11:16:21.946";"1";;"0";"1";;"24";"23";"module.training_block1.exec-7657.GoNoGo1";;;;;;;;;;;;;;;;;;;;;;;"1261";"2014-10-16 11:05:53.748";"NST_correctLoc";"3";"1";"FINISHED";"RIGHT";"success";"359";"0";"2014-10-16 11:05:52.484";"1";;;;;;;;;;;;;;;;;;;;;;;;;;;;;;;;;;;;;;;;;;;;;;;;;;;;;;;;;
"C1412569";"1996";;"Windows 7";"Rachel's Experiment (D.T.)";"1.0";"2";"1";"1";"2";"2";"2";"2014-10-16 11:03:27.139";"2014-10-16 11:16:21.946";"1";;"0";"1";;"25";"24";"module.training_block1.exec-7657.GoNoGo1";;;;;;;;;;;;;;;;;;;;;;;"1257";"2014-10-16 11:05:56.291";"NST_correctLoc";"2";"0";"FINISHED";"LEFT";"success";"347";"0";"2014-10-16 11:05:55.027";"1";;;;;;;;;;;;;;;;;;;;;;;;;;;;;;;;;;;;;;;;;;;;;;;;;;;;;;;;;
"C1412569";"1996";;"Windows 7";"Rachel's Experiment (D.T.)";"1.0";"2";"1";"1";"2";"2";"2";"2014-10-16 11:03:27.139";"2014-10-16 11:16:21.946";"1";;"0";"1";;"26";"25";"module.training_block1.exec-7657.GoNoGo1";;;;;;;;;;;;;;;;;;;;;;;"1258";"2014-10-16 11:05:58.834";"NST_correctLoc";"34";"1";"FINISHED";"RIGHT";"success";"406";"0";"2014-10-16 11:05:57.570";"3";;;;;;;;;;;;;;;;;;;;;;;;;;;;;;;;;;;;;;;;;;;;;;;;;;;;;;;;;
"C1412569";"1996";;"Windows 7";"Rachel's Experiment (D.T.)";"1.0";"2";"1";"1";"2";"2";"2";"2014-10-16 11:03:27.139";"2014-10-16 11:16:21.946";"1";;"0";"1";;"27";"26";"module.training_block1.exec-7657.GoNoGo1";;;;;;;;;;;;;;;;;;;;;;;"1257";"2014-10-16 11:06:01.376";"NST_correctLoc";"6";"0";"FINISHED";"LEFT";"success";"342";"0";"2014-10-16 11:06:00.113";"1";;;;;;;;;;;;;;;;;;;;;;;;;;;;;;;;;;;;;;;;;;;;;;;;;;;;;;;;;
"C1412569";"1996";;"Windows 7";"Rachel's Experiment (D.T.)";"1.0";"2";"1";"1";"2";"2";"2";"2014-10-16 11:03:27.139";"2014-10-16 11:16:21.946";"1";;"0";"1";;"28";"27";"module.training_block1.exec-7657.GoNoGo1";;;;;;;;;;;;;;;;;;;;;;;"1261";"2014-10-16 11:06:03.919";"NST_correctLoc";"23";"0";"FINISHED";"LEFT";"success";"435";"0";"2014-10-16 11:06:02.656";"3";;;;;;;;;;;;;;;;;;;;;;;;;;;;;;;;;;;;;;;;;;;;;;;;;;;;;;;;;
"C1412569";"1996";;"Windows 7";"Rachel's Experiment (D.T.)";"1.0";"2";"1";"1";"2";"2";"2";"2014-10-16 11:03:27.139";"2014-10-16 11:16:21.946";"1";;"0";"1";;"29";"28";"module.training_block1.exec-7657.GoNoGo1";;;;;;;;;;;;;;;;;;;;;;;"1257";"2014-10-16 11:06:06.462";"NST_correctLoc";"9";"0";"FINISHED";"LEFT";"success";"376";"0";"2014-10-16 11:06:05.198";"2";;;;;;;;;;;;;;;;;;;;;;;;;;;;;;;;;;;;;;;;;;;;;;;;;;;;;;;;;
"C1412569";"1996";;"Windows 7";"Rachel's Experiment (D.T.)";"1.0";"2";"1";"1";"2";"2";"2";"2014-10-16 11:03:27.139";"2014-10-16 11:16:21.946";"1";;"0";"1";;"30";"29";"module.training_block1.exec-7657.GoNoGo1";;;;;;;;;;;;;;;;;;;;;;;"1250";"2014-10-16 11:06:09.005";"NST_correctLoc";"21";"1";"FINISHED";"RIGHT";"success";"506";"0";"2014-10-16 11:06:07.741";"3";;;;;;;;;;;;;;;;;;;;;;;;;;;;;;;;;;;;;;;;;;;;;;;;;;;;;;;;;
"C1412569";"1996";;"Windows 7";"Rachel's Experiment (D.T.)";"1.0";"2";"1";"1";"2";"2";"2";"2014-10-16 11:03:27.139";"2014-10-16 11:16:21.946";"1";;"0";"1";;"31";"30";"module.training_block1.exec-7657.GoNoGo1";;;;;;;;;;;;;;;;;;;;;;;"1261";"2014-10-16 11:06:11.548";"NST_correctLoc";"13";"0";"FINISHED";"LEFT";"success";"351";"0";"2014-10-16 11:06:10.284";"2";;;;;;;;;;;;;;;;;;;;;;;;;;;;;;;;;;;;;;;;;;;;;;;;;;;;;;;;;
"C1412569";"1996";;"Windows 7";"Rachel's Experiment (D.T.)";"1.0";"2";"1";"1";"2";"2";"2";"2014-10-16 11:03:27.139";"2014-10-16 11:16:21.946";"1";;"0";"1";;"32";"31";"module.training_block1.exec-7657.GoNoGo1";;;;;;;;;;;;;;;;;;;;;;;"1257";"2014-10-16 11:06:14.090";"NST_correctLoc";"33";"1";"FINISHED";"RIGHT";"success";"484";"0";"2014-10-16 11:06:12.827";"3";;;;;;;;;;;;;;;;;;;;;;;;;;;;;;;;;;;;;;;;;;;;;;;;;;;;;;;;;
"C1412569";"1996";;"Windows 7";"Rachel's Experiment (D.T.)";"1.0";"2";"1";"1";"2";"2";"2";"2014-10-16 11:03:27.139";"2014-10-16 11:16:21.946";"1";;"0";"1";;"33";"32";"module.training_block1.exec-7657.GoNoGo1";;;;;;;;;;;;;;;;;;;;;;;"1256";"2014-10-16 11:06:16.633";"NST_correctLoc";"8";"0";"FINISHED";"LEFT";"success";"372";"0";"2014-10-16 11:06:15.370";"1";;;;;;;;;;;;;;;;;;;;;;;;;;;;;;;;;;;;;;;;;;;;;;;;;;;;;;;;;
"C1412569";"1996";;"Windows 7";"Rachel's Experiment (D.T.)";"1.0";"2";"1";"1";"2";"2";"2";"2014-10-16 11:03:27.139";"2014-10-16 11:16:21.946";"1";;"0";"1";;"34";"33";"module.training_block1.exec-7657.GoNoGo1";;;;;;;;;;;;;;;;;;;;;;;"1258";"2014-10-16 11:06:19.176";"NST_correctLoc";"1";"0";"FINISHED";"LEFT";"success";"551";"0";"2014-10-16 11:06:17.912";"1";;;;;;;;;;;;;;;;;;;;;;;;;;;;;;;;;;;;;;;;;;;;;;;;;;;;;;;;;
"C1412569";"1996";;"Windows 7";"Rachel's Experiment (D.T.)";"1.0";"2";"1";"1";"2";"2";"2";"2014-10-16 11:03:27.139";"2014-10-16 11:16:21.946";"1";;"0";"1";;"35";"34";"module.training_block1.exec-7657.GoNoGo1";;;;;;;;;;;;;;;;;;;;;;;"1257";"2014-10-16 11:06:21.719";"NST_correctLoc";"16";"1";"FINISHED";"RIGHT";"success";"407";"0";"2014-10-16 11:06:20.455";"2";;;;;;;;;;;;;;;;;;;;;;;;;;;;;;;;;;;;;;;;;;;;;;;;;;;;;;;;;
"C1412569";"1996";;"Windows 7";"Rachel's Experiment (D.T.)";"1.0";"2";"1";"1";"2";"2";"2";"2014-10-16 11:03:27.139";"2014-10-16 11:16:21.946";"1";;"0";"1";;"36";"35";"module.training_block1.exec-7657.GoNoGo1";;;;;;;;;;;;;;;;;;;;;;;"1258";"2014-10-16 11:06:24.262";"NST_correctLoc";"12";"0";"FINISHED";"LEFT";"success";"441";"0";"2014-10-16 11:06:22.998";"2";;;;;;;;;;;;;;;;;;;;;;;;;;;;;;;;;;;;;;;;;;;;;;;;;;;;;;;;;
"C1412569";"1996";;"Windows 7";"Rachel's Experiment (D.T.)";"1.0";"2";"1";"1";"2";"2";"2";"2014-10-16 11:03:27.139";"2014-10-16 11:16:21.946";"1";;"0";"1";;"37";"36";"module.training_block1.exec-7657.GoNoGo1";;;;;;;;;;;;;;;;;;;;;;;"1257";"2014-10-16 11:06:26.805";"NST_correctLoc";"22";"1";"FINISHED";"RIGHT";"success";"394";"0";"2014-10-16 11:06:25.541";"3";;;;;;;;;;;;;;;;;;;;;;;;;;;;;;;;;;;;;;;;;;;;;;;;;;;;;;;;;
"C1412569";"1996";;"Windows 7";"Rachel's Experiment (D.T.)";"1.0";"2";"1";"1";"2";"2";"2";"2014-10-16 11:03:27.139";"2014-10-16 11:16:21.946";"1";;"0";"1";;"38";"37";"module.training_block1.exec-7657.GoNoGo1";;;;;;;;;;;;;;;;;;;;;;;"1257";"2014-10-16 11:06:29.347";"NST_correctLoc";"15";"0";"FINISHED";"LEFT";"success";"339";"0";"2014-10-16 11:06:28.084";"2";;;;;;;;;;;;;;;;;;;;;;;;;;;;;;;;;;;;;;;;;;;;;;;;;;;;;;;;;
"C1412569";"1996";;"Windows 7";"Rachel's Experiment (D.T.)";"1.0";"2";"1";"1";"2";"2";"2";"2014-10-16 11:03:27.139";"2014-10-16 11:16:21.946";"1";;"0";"1";;"39";"38";"module.training_block1.exec-7657.GoNoGo1";;;;;;;;;;;;;;;;;;;;;;;"1258";"2014-10-16 11:06:31.890";"NST_correctLoc";"35";"0";"FINISHED";"LEFT";"success";"341";"0";"2014-10-16 11:06:30.627";"3";;;;;;;;;;;;;;;;;;;;;;;;;;;;;;;;;;;;;;;;;;;;;;;;;;;;;;;;;
"C1412569";"1996";;"Windows 7";"Rachel's Experiment (D.T.)";"1.0";"2";"1";"1";"2";"2";"2";"2014-10-16 11:03:27.139";"2014-10-16 11:16:21.946";"1";;"0";"1";;"40";"39";"module.training_block1.exec-7657.GoNoGo1";;;;;;;;;;;;;;;;;;;;;;;"1258";"2014-10-16 11:06:34.433";"NST_correctLoc";"18";"1";"FINISHED";"RIGHT";"success";"382";"0";"2014-10-16 11:06:33.169";"3";;;;;;;;;;;;;;;;;;;;;;;;;;;;;;;;;;;;;;;;;;;;;;;;;;;;;;;;;
"C1412569";"1996";;"Windows 7";"Rachel's Experiment (D.T.)";"1.0";"2";"1";"1";"2";"2";"2";"2014-10-16 11:03:27.139";"2014-10-16 11:16:21.946";"1";;"0";"1";;"41";"40";"module.training_block1.exec-7657.GoNoGo1";;;;;;;;;;;;;;;;;;;;;;;"1261";"2014-10-16 11:06:36.976";"NST_correctLoc";"27";"1";"FINISHED";"RIGHT";"success";"371";"0";"2014-10-16 11:06:35.712";"3";;;;;;;;;;;;;;;;;;;;;;;;;;;;;;;;;;;;;;;;;;;;;;;;;;;;;;;;;
"C1412569";"1996";;"Windows 7";"Rachel's Experiment (D.T.)";"1.0";"2";"1";"1";"2";"2";"2";"2014-10-16 11:03:27.139";"2014-10-16 11:16:21.946";"1";;"0";"1";;"42";"41";"module.training_block1.exec-7657.GoNoGo1";;;;;;;;;;;;;;;;;;;;;;;"1257";"2014-10-16 11:06:39.519";"NST_correctLoc";"11";"1";"FINISHED";"RIGHT";"success";"488";"0";"2014-10-16 11:06:38.255";"2";;;;;;;;;;;;;;;;;;;;;;;;;;;;;;;;;;;;;;;;;;;;;;;;;;;;;;;;;
"C1412569";"1996";;"Windows 7";"Rachel's Experiment (D.T.)";"1.0";"2";"1";"1";"2";"2";"2";"2014-10-16 11:03:27.139";"2014-10-16 11:16:21.946";"1";;"0";"1";;"43";"42";"module.training_block1.exec-7657.GoNoGo1";;;;;;;;;;;;;;;;;;;;;;;"1257";"2014-10-16 11:06:42.061";"NST_correctLoc";"0";"1";"FINISHED";"RIGHT";"success";"393";"0";"2014-10-16 11:06:40.798";"1";;;;;;;;;;;;;;;;;;;;;;;;;;;;;;;;;;;;;;;;;;;;;;;;;;;;;;;;;
"C1412569";"1996";;"Windows 7";"Rachel's Experiment (D.T.)";"1.0";"2";"1";"1";"2";"2";"2";"2014-10-16 11:03:27.139";"2014-10-16 11:16:21.946";"1";;"0";"1";;"44";"43";"module.training_block1.exec-7657.GoNoGo1";;;;;;;;;;;;;;;;;;;;;;;"1257";"2014-10-16 11:06:44.604";"NST_correctLoc";"17";"0";"FINISHED";"LEFT";"success";"426";"0";"2014-10-16 11:06:43.341";"2";;;;;;;;;;;;;;;;;;;;;;;;;;;;;;;;;;;;;;;;;;;;;;;;;;;;;;;;;
"C1412569";"1996";;"Windows 7";"Rachel's Experiment (D.T.)";"1.0";"2";"1";"1";"2";"2";"2";"2014-10-16 11:03:27.139";"2014-10-16 11:16:21.946";"1";;"0";"1";;"45";"44";"module.training_block1.exec-7657.GoNoGo1";;;;;;;;;;;;;;;;;;;;;;;"1257";"2014-10-16 11:06:47.147";"NST_correctLoc";"10";"0";"FINISHED";"LEFT";"success";"339";"0";"2014-10-16 11:06:45.883";"2";;;;;;;;;;;;;;;;;;;;;;;;;;;;;;;;;;;;;;;;;;;;;;;;;;;;;;;;;
"C1412569";"1996";;"Windows 7";"Rachel's Experiment (D.T.)";"1.0";"2";"1";"1";"2";"2";"2";"2014-10-16 11:03:27.139";"2014-10-16 11:16:21.946";"1";;"0";"1";;"46";"45";"module.training_block1.exec-7657.GoNoGo1";;;;;;;;;;;;;;;;;;;;;;;"1258";"2014-10-16 11:06:49.690";"NST_correctLoc";"19";"0";"FINISHED";"LEFT";"success";"333";"0";"2014-10-16 11:06:48.426";"3";;;;;;;;;;;;;;;;;;;;;;;;;;;;;;;;;;;;;;;;;;;;;;;;;;;;;;;;;
"C1412569";"1996";;"Windows 7";"Rachel's Experiment (D.T.)";"1.0";"2";"1";"1";"2";"2";"2";"2014-10-16 11:03:27.139";"2014-10-16 11:16:21.946";"1";;"0";"1";;"47";"46";"module.training_block1.exec-7657.GoNoGo1";;;;;;;;;;;;;;;;;;;;;;;"1257";"2014-10-16 11:06:52.233";"NST_correctLoc";"32";"1";"FINISHED";"RIGHT";"success";"405";"0";"2014-10-16 11:06:50.969";"3";;;;;;;;;;;;;;;;;;;;;;;;;;;;;;;;;;;;;;;;;;;;;;;;;;;;;;;;;
"C1412569";"1996";;"Windows 7";"Rachel's Experiment (D.T.)";"1.0";"2";"1";"1";"2";"2";"2";"2014-10-16 11:03:27.139";"2014-10-16 11:16:21.946";"1";;"0";"1";;"48";"47";"module.training_block1.exec-7657.GoNoGo1";;;;;;;;;;;;;;;;;;;;;;;"1257";"2014-10-16 11:06:54.775";"NST_correctLoc";"31";"0";"FINISHED";"LEFT";"success";"367";"0";"2014-10-16 11:06:53.512";"3";;;;;;;;;;;;;;;;;;;;;;;;;;;;;;;;;;;;;;;;;;;;;;;;;;;;;;;;;
"C1412569";"1996";;"Windows 7";"Rachel's Experiment (D.T.)";"1.0";"2";"1";"1";"2";"2";"2";"2014-10-16 11:03:27.139";"2014-10-16 11:16:21.946";"1";;"0";"1";;"49";"48";"module.training_block1.exec-7657.GoNoGo1";;;;;;;;;;;;;;;;;;;;;;;"1257";"2014-10-16 11:06:57.318";"NST_correctLoc";"4";"1";"FINISHED";"RIGHT";"success";"360";"0";"2014-10-16 11:06:56.055";"1";;;;;;;;;;;;;;;;;;;;;;;;;;;;;;;;;;;;;;;;;;;;;;;;;;;;;;;;;
"C1412569";"1996";;"Windows 7";"Rachel's Experiment (D.T.)";"1.0";"2";"1";"1";"2";"2";"2";"2014-10-16 11:03:27.139";"2014-10-16 11:16:21.946";"1";;"0";"1";;"50";"49";"module.training_block1.exec-7657.GoNoGo1";;;;;;;;;;;;;;;;;;;;;;;"1252";"2014-10-16 11:06:59.861";"NST_correctLoc";"7";"1";"FINISHED";"RIGHT";"success";"388";"0";"2014-10-16 11:06:58.597";"1";;;;;;;;;;;;;;;;;;;;;;;;;;;;;;;;;;;;;;;;;;;;;;;;;;;;;;;;;
"C1412569";"1996";;"Windows 7";"Rachel's Experiment (D.T.)";"1.0";"2";"1";"1";"2";"2";"2";"2014-10-16 11:03:27.139";"2014-10-16 11:16:21.946";"1";;"0";"1";;"51";"50";"module.training_block1.exec-7657.GoNoGo1";;;;;;;;;;;;;;;;;;;;;;;"1257";"2014-10-16 11:07:02.404";"NST_correctLoc";"29";"1";"FINISHED";"RIGHT";"success";"363";"0";"2014-10-16 11:07:01.140";"3";;;;;;;;;;;;;;;;;;;;;;;;;;;;;;;;;;;;;;;;;;;;;;;;;;;;;;;;;
"C1412569";"1996";;"Windows 7";"Rachel's Experiment (D.T.)";"1.0";"2";"1";"1";"2";"2";"2";"2014-10-16 11:03:27.139";"2014-10-16 11:16:21.946";"1";;"0";"1";;"52";"51";"module.training_block2.exec-1318.GoNoGo2";;;;;;;;;;;;;;;;;;;;;;;;;;;;;;;;;;;"1261";"2014-10-16 11:07:13.651";"NST_correctLoc";"1";"1";"FINISHED";"RIGHT";"success";"446";"0";"2014-10-16 11:07:12.388";"1";;;;;;;;;;;;;;;;;;;;;;;;;;;;;;;;;;;;;;;;;;;;;
"C1412569";"1996";;"Windows 7";"Rachel's Experiment (D.T.)";"1.0";"2";"1";"1";"2";"2";"2";"2014-10-16 11:03:27.139";"2014-10-16 11:16:21.946";"1";;"0";"1";;"53";"52";"module.training_block2.exec-1318.GoNoGo2";;;;;;;;;;;;;;;;;;;;;;;;;;;;;;;;;;;"1261";"2014-10-16 11:07:16.194";"NST_correctLoc";"7";"0";"FINISHED";"LEFT";"success";"320";"0";"2014-10-16 11:07:14.931";"1";;;;;;;;;;;;;;;;;;;;;;;;;;;;;;;;;;;;;;;;;;;;;
"C1412569";"1996";;"Windows 7";"Rachel's Experiment (D.T.)";"1.0";"2";"1";"1";"2";"2";"2";"2014-10-16 11:03:27.139";"2014-10-16 11:16:21.946";"1";;"0";"1";;"54";"53";"module.training_block2.exec-1318.GoNoGo2";;;;;;;;;;;;;;;;;;;;;;;;;;;;;;;;;;;"1261";"2014-10-16 11:07:18.737";"NST_correctLoc";"19";"0";"FINISHED";"LEFT";"success";"313";"0";"2014-10-16 11:07:17.473";"3";;;;;;;;;;;;;;;;;;;;;;;;;;;;;;;;;;;;;;;;;;;;;
"C1412569";"1996";;"Windows 7";"Rachel's Experiment (D.T.)";"1.0";"2";"1";"1";"2";"2";"2";"2014-10-16 11:03:27.139";"2014-10-16 11:16:21.946";"1";;"0";"1";;"55";"54";"module.training_block2.exec-1318.GoNoGo2";;;;;;;;;;;;;;;;;;;;;;;;;;;;;;;;;;;"1261";"2014-10-16 11:07:21.280";"NST_correctLoc";"10";"0";"FINISHED";"LEFT";"success";"354";"0";"2014-10-16 11:07:20.016";"2";;;;;;;;;;;;;;;;;;;;;;;;;;;;;;;;;;;;;;;;;;;;;
"C1412569";"1996";;"Windows 7";"Rachel's Experiment (D.T.)";"1.0";"2";"1";"1";"2";"2";"2";"2014-10-16 11:03:27.139";"2014-10-16 11:16:21.946";"1";;"0";"1";;"56";"55";"module.training_block2.exec-1318.GoNoGo2";;;;;;;;;;;;;;;;;;;;;;;;;;;;;;;;;;;"1261";"2014-10-16 11:07:23.823";"NST_correctLoc";"12";"1";"FINISHED";"RIGHT";"success";"371";"0";"2014-10-16 11:07:22.559";"2";;;;;;;;;;;;;;;;;;;;;;;;;;;;;;;;;;;;;;;;;;;;;
"C1412569";"1996";;"Windows 7";"Rachel's Experiment (D.T.)";"1.0";"2";"1";"1";"2";"2";"2";"2014-10-16 11:03:27.139";"2014-10-16 11:16:21.946";"1";;"0";"1";;"57";"56";"module.training_block2.exec-1318.GoNoGo2";;;;;;;;;;;;;;;;;;;;;;;;;;;;;;;;;;;"1261";"2014-10-16 11:07:26.365";"NST_correctLoc";"28";"1";"FINISHED";"RIGHT";"success";"357";"0";"2014-10-16 11:07:25.102";"3";;;;;;;;;;;;;;;;;;;;;;;;;;;;;;;;;;;;;;;;;;;;;
"C1412569";"1996";;"Windows 7";"Rachel's Experiment (D.T.)";"1.0";"2";"1";"1";"2";"2";"2";"2014-10-16 11:03:27.139";"2014-10-16 11:16:21.946";"1";;"0";"1";;"58";"57";"module.training_block2.exec-1318.GoNoGo2";;;;;;;;;;;;;;;;;;;;;;;;;;;;;;;;;;;"1261";"2014-10-16 11:07:28.908";"NST_correctLoc";"31";"0";"FINISHED";"LEFT";"success";"310";"0";"2014-10-16 11:07:27.645";"3";;;;;;;;;;;;;;;;;;;;;;;;;;;;;;;;;;;;;;;;;;;;;
"C1412569";"1996";;"Windows 7";"Rachel's Experiment (D.T.)";"1.0";"2";"1";"1";"2";"2";"2";"2014-10-16 11:03:27.139";"2014-10-16 11:16:21.946";"1";;"0";"1";;"59";"58";"module.training_block2.exec-1318.GoNoGo2";;;;;;;;;;;;;;;;;;;;;;;;;;;;;;;;;;;"1261";"2014-10-16 11:07:31.451";"NST_correctLoc";"30";"0";"FINISHED";"LEFT";"success";"351";"0";"2014-10-16 11:07:30.187";"3";;;;;;;;;;;;;;;;;;;;;;;;;;;;;;;;;;;;;;;;;;;;;
"C1412569";"1996";;"Windows 7";"Rachel's Experiment (D.T.)";"1.0";"2";"1";"1";"2";"2";"2";"2014-10-16 11:03:27.139";"2014-10-16 11:16:21.946";"1";;"0";"1";;"60";"59";"module.training_block2.exec-1318.GoNoGo2";;;;;;;;;;;;;;;;;;;;;;;;;;;;;;;;;;;"1261";"2014-10-16 11:07:33.994";"NST_correctLoc";"17";"1";"FINISHED";"RIGHT";"success";"416";"0";"2014-10-16 11:07:32.730";"2";;;;;;;;;;;;;;;;;;;;;;;;;;;;;;;;;;;;;;;;;;;;;
"C1412569";"1996";;"Windows 7";"Rachel's Experiment (D.T.)";"1.0";"2";"1";"1";"2";"2";"2";"2014-10-16 11:03:27.139";"2014-10-16 11:16:21.946";"1";;"0";"1";;"61";"60";"module.training_block2.exec-1318.GoNoGo2";;;;;;;;;;;;;;;;;;;;;;;;;;;;;;;;;;;"1261";"2014-10-16 11:07:36.537";"NST_correctLoc";"18";"1";"FINISHED";"RIGHT";"success";"385";"0";"2014-10-16 11:07:35.273";"3";;;;;;;;;;;;;;;;;;;;;;;;;;;;;;;;;;;;;;;;;;;;;
"C1412569";"1996";;"Windows 7";"Rachel's Experiment (D.T.)";"1.0";"2";"1";"1";"2";"2";"2";"2014-10-16 11:03:27.139";"2014-10-16 11:16:21.946";"1";;"0";"1";;"62";"61";"module.training_block2.exec-1318.GoNoGo2";;;;;;;;;;;;;;;;;;;;;;;;;;;;;;;;;;;"1261";"2014-10-16 11:07:39.157";"NST_correctLoc";"33";"1";"FINISHED";"RIGHT";"success";"333";"0";"2014-10-16 11:07:37.894";"3";;;;;;;;;;;;;;;;;;;;;;;;;;;;;;;;;;;;;;;;;;;;;
"C1412569";"1996";;"Windows 7";"Rachel's Experiment (D.T.)";"1.0";"2";"1";"1";"2";"2";"2";"2014-10-16 11:03:27.139";"2014-10-16 11:16:21.946";"1";;"0";"1";;"63";"62";"module.training_block2.exec-1318.GoNoGo2";;;;;;;;;;;;;;;;;;;;;;;;;;;;;;;;;;;"1261";"2014-10-16 11:07:41.700";"NST_correctLoc";"16";"1";"FINISHED";"RIGHT";"success";"382";"0";"2014-10-16 11:07:40.437";"2";;;;;;;;;;;;;;;;;;;;;;;;;;;;;;;;;;;;;;;;;;;;;
"C1412569";"1996";;"Windows 7";"Rachel's Experiment (D.T.)";"1.0";"2";"1";"1";"2";"2";"2";"2014-10-16 11:03:27.139";"2014-10-16 11:16:21.946";"1";;"0";"1";;"64";"63";"module.training_block2.exec-1318.GoNoGo2";;;;;;;;;;;;;;;;;;;;;;;;;;;;;;;;;;;"1261";"2014-10-16 11:07:44.243";"NST_correctLoc";"27";"0";"FINISHED";"LEFT";"success";"319";"0";"2014-10-16 11:07:42.979";"3";;;;;;;;;;;;;;;;;;;;;;;;;;;;;;;;;;;;;;;;;;;;;
"C1412569";"1996";;"Windows 7";"Rachel's Experiment (D.T.)";"1.0";"2";"1";"1";"2";"2";"2";"2014-10-16 11:03:27.139";"2014-10-16 11:16:21.946";"1";;"0";"1";;"65";"64";"module.training_block2.exec-1318.GoNoGo2";;;;;;;;;;;;;;;;;;;;;;;;;;;;;;;;;;;"1261";"2014-10-16 11:07:46.786";"NST_correctLoc";"0";"0";"FINISHED";"LEFT";"success";"432";"0";"2014-10-16 11:07:45.522";"1";;;;;;;;;;;;;;;;;;;;;;;;;;;;;;;;;;;;;;;;;;;;;
"C1412569";"1996";;"Windows 7";"Rachel's Experiment (D.T.)";"1.0";"2";"1";"1";"2";"2";"2";"2014-10-16 11:03:27.139";"2014-10-16 11:16:21.946";"1";;"0";"1";;"66";"65";"module.training_block2.exec-1318.GoNoGo2";;;;;;;;;;;;;;;;;;;;;;;;;;;;;;;;;;;"1261";"2014-10-16 11:07:49.329";"NST_correctLoc";"34";"1";"FINISHED";"RIGHT";"success";"433";"0";"2014-10-16 11:07:48.065";"3";;;;;;;;;;;;;;;;;;;;;;;;;;;;;;;;;;;;;;;;;;;;;
"C1412569";"1996";;"Windows 7";"Rachel's Experiment (D.T.)";"1.0";"2";"1";"1";"2";"2";"2";"2014-10-16 11:03:27.139";"2014-10-16 11:16:21.946";"1";;"0";"1";;"67";"66";"module.training_block2.exec-1318.GoNoGo2";;;;;;;;;;;;;;;;;;;;;;;;;;;;;;;;;;;"1261";"2014-10-16 11:07:51.871";"NST_correctLoc";"6";"0";"FINISHED";"LEFT";"success";"379";"0";"2014-10-16 11:07:50.608";"1";;;;;;;;;;;;;;;;;;;;;;;;;;;;;;;;;;;;;;;;;;;;;
"C1412569";"1996";;"Windows 7";"Rachel's Experiment (D.T.)";"1.0";"2";"1";"1";"2";"2";"2";"2014-10-16 11:03:27.139";"2014-10-16 11:16:21.946";"1";;"0";"1";;"68";"67";"module.training_block2.exec-1318.GoNoGo2";;;;;;;;;;;;;;;;;;;;;;;;;;;;;;;;;;;"1261";"2014-10-16 11:07:54.414";"NST_correctLoc";"22";"1";"FINISHED";"RIGHT";"success";"364";"0";"2014-10-16 11:07:53.151";"3";;;;;;;;;;;;;;;;;;;;;;;;;;;;;;;;;;;;;;;;;;;;;
"C1412569";"1996";;"Windows 7";"Rachel's Experiment (D.T.)";"1.0";"2";"1";"1";"2";"2";"2";"2014-10-16 11:03:27.139";"2014-10-16 11:16:21.946";"1";;"0";"1";;"69";"68";"module.training_block2.exec-1318.GoNoGo2";;;;;;;;;;;;;;;;;;;;;;;;;;;;;;;;;;;"1261";"2014-10-16 11:07:56.957";"NST_correctLoc";"9";"0";"FINISHED";"LEFT";"success";"349";"0";"2014-10-16 11:07:55.693";"2";;;;;;;;;;;;;;;;;;;;;;;;;;;;;;;;;;;;;;;;;;;;;
"C1412569";"1996";;"Windows 7";"Rachel's Experiment (D.T.)";"1.0";"2";"1";"1";"2";"2";"2";"2014-10-16 11:03:27.139";"2014-10-16 11:16:21.946";"1";;"0";"1";;"70";"69";"module.training_block2.exec-1318.GoNoGo2";;;;;;;;;;;;;;;;;;;;;;;;;;;;;;;;;;;"1261";"2014-10-16 11:07:59.500";"NST_correctLoc";"13";"1";"FINISHED";"RIGHT";"success";"342";"0";"2014-10-16 11:07:58.236";"2";;;;;;;;;;;;;;;;;;;;;;;;;;;;;;;;;;;;;;;;;;;;;
"C1412569";"1996";;"Windows 7";"Rachel's Experiment (D.T.)";"1.0";"2";"1";"1";"2";"2";"2";"2014-10-16 11:03:27.139";"2014-10-16 11:16:21.946";"1";;"0";"1";;"71";"70";"module.training_block2.exec-1318.GoNoGo2";;;;;;;;;;;;;;;;;;;;;;;;;;;;;;;;;;;"1261";"2014-10-16 11:08:02.043";"NST_correctLoc";"8";"1";"FINISHED";"RIGHT";"success";"383";"0";"2014-10-16 11:08:00.779";"1";;;;;;;;;;;;;;;;;;;;;;;;;;;;;;;;;;;;;;;;;;;;;
"C1412569";"1996";;"Windows 7";"Rachel's Experiment (D.T.)";"1.0";"2";"1";"1";"2";"2";"2";"2014-10-16 11:03:27.139";"2014-10-16 11:16:21.946";"1";;"0";"1";;"72";"71";"module.training_block2.exec-1318.GoNoGo2";;;;;;;;;;;;;;;;;;;;;;;;;;;;;;;;;;;"1261";"2014-10-16 11:08:04.585";"NST_correctLoc";"35";"1";"FINISHED";"RIGHT";"success";"360";"0";"2014-10-16 11:08:03.322";"3";;;;;;;;;;;;;;;;;;;;;;;;;;;;;;;;;;;;;;;;;;;;;
"C1412569";"1996";;"Windows 7";"Rachel's Experiment (D.T.)";"1.0";"2";"1";"1";"2";"2";"2";"2014-10-16 11:03:27.139";"2014-10-16 11:16:21.946";"1";;"0";"1";;"73";"72";"module.training_block2.exec-1318.GoNoGo2";;;;;;;;;;;;;;;;;;;;;;;;;;;;;;;;;;;"1261";"2014-10-16 11:08:07.128";"NST_correctLoc";"26";"1";"FINISHED";"RIGHT";"success";"354";"0";"2014-10-16 11:08:05.865";"3";;;;;;;;;;;;;;;;;;;;;;;;;;;;;;;;;;;;;;;;;;;;;
"C1412569";"1996";;"Windows 7";"Rachel's Experiment (D.T.)";"1.0";"2";"1";"1";"2";"2";"2";"2014-10-16 11:03:27.139";"2014-10-16 11:16:21.946";"1";;"0";"1";;"74";"73";"module.training_block2.exec-1318.GoNoGo2";;;;;;;;;;;;;;;;;;;;;;;;;;;;;;;;;;;"1261";"2014-10-16 11:08:09.671";"NST_correctLoc";"29";"1";"FINISHED";"RIGHT";"success";"371";"0";"2014-10-16 11:08:08.407";"3";;;;;;;;;;;;;;;;;;;;;;;;;;;;;;;;;;;;;;;;;;;;;
"C1412569";"1996";;"Windows 7";"Rachel's Experiment (D.T.)";"1.0";"2";"1";"1";"2";"2";"2";"2014-10-16 11:03:27.139";"2014-10-16 11:16:21.946";"1";;"0";"1";;"75";"74";"module.training_block2.exec-1318.GoNoGo2";;;;;;;;;;;;;;;;;;;;;;;;;;;;;;;;;;;"1261";"2014-10-16 11:08:12.214";"NST_correctLoc";"15";"0";"FINISHED";"LEFT";"success";"372";"0";"2014-10-16 11:08:10.950";"2";;;;;;;;;;;;;;;;;;;;;;;;;;;;;;;;;;;;;;;;;;;;;
"C1412569";"1996";;"Windows 7";"Rachel's Experiment (D.T.)";"1.0";"2";"1";"1";"2";"2";"2";"2014-10-16 11:03:27.139";"2014-10-16 11:16:21.946";"1";;"0";"1";;"76";"75";"module.training_block2.exec-1318.GoNoGo2";;;;;;;;;;;;;;;;;;;;;;;;;;;;;;;;;;;"1261";"2014-10-16 11:08:14.757";"NST_correctLoc";"11";"1";"FINISHED";"RIGHT";"success";"389";"0";"2014-10-16 11:08:13.493";"2";;;;;;;;;;;;;;;;;;;;;;;;;;;;;;;;;;;;;;;;;;;;;
"C1412569";"1996";;"Windows 7";"Rachel's Experiment (D.T.)";"1.0";"2";"1";"1";"2";"2";"2";"2014-10-16 11:03:27.139";"2014-10-16 11:16:21.946";"1";;"0";"1";;"77";"76";"module.training_block2.exec-1318.GoNoGo2";;;;;;;;;;;;;;;;;;;;;;;;;;;;;;;;;;;"1261";"2014-10-16 11:08:17.299";"NST_correctLoc";"23";"0";"FINISHED";"LEFT";"success";"326";"0";"2014-10-16 11:08:16.036";"3";;;;;;;;;;;;;;;;;;;;;;;;;;;;;;;;;;;;;;;;;;;;;
"C1412569";"1996";;"Windows 7";"Rachel's Experiment (D.T.)";"1.0";"2";"1";"1";"2";"2";"2";"2014-10-16 11:03:27.139";"2014-10-16 11:16:21.946";"1";;"0";"1";;"78";"77";"module.training_block2.exec-1318.GoNoGo2";;;;;;;;;;;;;;;;;;;;;;;;;;;;;;;;;;;"1261";"2014-10-16 11:08:19.842";"NST_correctLoc";"25";"1";"FINISHED";"RIGHT";"success";"343";"0";"2014-10-16 11:08:18.579";"3";;;;;;;;;;;;;;;;;;;;;;;;;;;;;;;;;;;;;;;;;;;;;
"C1412569";"1996";;"Windows 7";"Rachel's Experiment (D.T.)";"1.0";"2";"1";"1";"2";"2";"2";"2014-10-16 11:03:27.139";"2014-10-16 11:16:21.946";"1";;"0";"1";;"79";"78";"module.training_block2.exec-1318.GoNoGo2";;;;;;;;;;;;;;;;;;;;;;;;;;;;;;;;;;;"1261";"2014-10-16 11:08:22.385";"NST_correctLoc";"5";"1";"FINISHED";"RIGHT";"success";"393";"0";"2014-10-16 11:08:21.122";"1";;;;;;;;;;;;;;;;;;;;;;;;;;;;;;;;;;;;;;;;;;;;;
"C1412569";"1996";;"Windows 7";"Rachel's Experiment (D.T.)";"1.0";"2";"1";"1";"2";"2";"2";"2014-10-16 11:03:27.139";"2014-10-16 11:16:21.946";"1";;"0";"1";;"80";"79";"module.training_block2.exec-1318.GoNoGo2";;;;;;;;;;;;;;;;;;;;;;;;;;;;;;;;;;;"1261";"2014-10-16 11:08:24.928";"NST_correctLoc";"2";"0";"FINISHED";"LEFT";"success";"370";"0";"2014-10-16 11:08:23.664";"1";;;;;;;;;;;;;;;;;;;;;;;;;;;;;;;;;;;;;;;;;;;;;
"C1412569";"1996";;"Windows 7";"Rachel's Experiment (D.T.)";"1.0";"2";"1";"1";"2";"2";"2";"2014-10-16 11:03:27.139";"2014-10-16 11:16:21.946";"1";;"0";"1";;"81";"80";"module.training_block2.exec-1318.GoNoGo2";;;;;;;;;;;;;;;;;;;;;;;;;;;;;;;;;;;"1261";"2014-10-16 11:08:27.564";"NST_correctLoc";"4";"1";"FINISHED";"RIGHT";"success";"349";"0";"2014-10-16 11:08:26.301";"1";;;;;;;;;;;;;;;;;;;;;;;;;;;;;;;;;;;;;;;;;;;;;
"C1412569";"1996";;"Windows 7";"Rachel's Experiment (D.T.)";"1.0";"2";"1";"1";"2";"2";"2";"2014-10-16 11:03:27.139";"2014-10-16 11:16:21.946";"1";;"0";"1";;"82";"81";"module.training_block2.exec-1318.GoNoGo2";;;;;;;;;;;;;;;;;;;;;;;;;;;;;;;;;;;"1262";"2014-10-16 11:08:30.107";"NST_correctLoc";"32";"0";"FINISHED";"LEFT";"success";"351";"0";"2014-10-16 11:08:28.844";"3";;;;;;;;;;;;;;;;;;;;;;;;;;;;;;;;;;;;;;;;;;;;;
"C1412569";"1996";;"Windows 7";"Rachel's Experiment (D.T.)";"1.0";"2";"1";"1";"2";"2";"2";"2014-10-16 11:03:27.139";"2014-10-16 11:16:21.946";"1";;"0";"1";;"83";"82";"module.training_block2.exec-1318.GoNoGo2";;;;;;;;;;;;;;;;;;;;;;;;;;;;;;;;;;;"1261";"2014-10-16 11:08:32.650";"NST_correctLoc";"24";"1";"FINISHED";"RIGHT";"success";"416";"0";"2014-10-16 11:08:31.386";"3";;;;;;;;;;;;;;;;;;;;;;;;;;;;;;;;;;;;;;;;;;;;;
"C1412569";"1996";;"Windows 7";"Rachel's Experiment (D.T.)";"1.0";"2";"1";"1";"2";"2";"2";"2014-10-16 11:03:27.139";"2014-10-16 11:16:21.946";"1";;"0";"1";;"84";"83";"module.training_block2.exec-1318.GoNoGo2";;;;;;;;;;;;;;;;;;;;;;;;;;;;;;;;;;;"1261";"2014-10-16 11:08:35.193";"NST_correctLoc";"14";"0";"FINISHED";"LEFT";"success";"353";"0";"2014-10-16 11:08:33.929";"2";;;;;;;;;;;;;;;;;;;;;;;;;;;;;;;;;;;;;;;;;;;;;
"C1412569";"1996";;"Windows 7";"Rachel's Experiment (D.T.)";"1.0";"2";"1";"1";"2";"2";"2";"2014-10-16 11:03:27.139";"2014-10-16 11:16:21.946";"1";;"0";"1";;"85";"84";"module.training_block2.exec-1318.GoNoGo2";;;;;;;;;;;;;;;;;;;;;;;;;;;;;;;;;;;"1261";"2014-10-16 11:08:37.736";"NST_correctLoc";"20";"1";"FINISHED";"RIGHT";"success";"370";"0";"2014-10-16 11:08:36.472";"3";;;;;;;;;;;;;;;;;;;;;;;;;;;;;;;;;;;;;;;;;;;;;
"C1412569";"1996";;"Windows 7";"Rachel's Experiment (D.T.)";"1.0";"2";"1";"1";"2";"2";"2";"2014-10-16 11:03:27.139";"2014-10-16 11:16:21.946";"1";;"0";"1";;"86";"85";"module.training_block2.exec-1318.GoNoGo2";;;;;;;;;;;;;;;;;;;;;;;;;;;;;;;;;;;"1261";"2014-10-16 11:08:40.278";"NST_correctLoc";"3";"0";"FINISHED";"LEFT";"success";"363";"0";"2014-10-16 11:08:39.015";"1";;;;;;;;;;;;;;;;;;;;;;;;;;;;;;;;;;;;;;;;;;;;;
"C1412569";"1996";;"Windows 7";"Rachel's Experiment (D.T.)";"1.0";"2";"1";"1";"2";"2";"2";"2014-10-16 11:03:27.139";"2014-10-16 11:16:21.946";"1";;"0";"1";;"87";"86";"module.training_block2.exec-1318.GoNoGo2";;;;;;;;;;;;;;;;;;;;;;;;;;;;;;;;;;;"1262";"2014-10-16 11:08:42.821";"NST_correctLoc";"21";"0";"FINISHED";"LEFT";"success";"397";"0";"2014-10-16 11:08:41.558";"3";;;;;;;;;;;;;;;;;;;;;;;;;;;;;;;;;;;;;;;;;;;;;
"C1412569";"1996";;"Windows 7";"Rachel's Experiment (D.T.)";"1.0";"2";"1";"1";"2";"2";"2";"2014-10-16 11:03:27.139";"2014-10-16 11:16:21.946";"1";;"0";"1";;"88";"87";"module.training_block3.exec-2844.GoNoGo3";;;;;;;;;;;;;;;;;;;;;;;;;;;;;;;;;;;;;;;;;;;;;;;"1261";"2014-10-16 11:08:53.866";"NST_correctLoc";"13";"1";"FINISHED";"RIGHT";"success";"456";"0";"2014-10-16 11:08:52.602";"2";;;;;;;;;;;;;;;;;;;;;;;;;;;;;;;;;
"C1412569";"1996";;"Windows 7";"Rachel's Experiment (D.T.)";"1.0";"2";"1";"1";"2";"2";"2";"2014-10-16 11:03:27.139";"2014-10-16 11:16:21.946";"1";;"0";"1";;"89";"88";"module.training_block3.exec-2844.GoNoGo3";;;;;;;;;;;;;;;;;;;;;;;;;;;;;;;;;;;;;;;;;;;;;;;"1261";"2014-10-16 11:08:56.409";"NST_correctLoc";"29";"0";"FINISHED";"LEFT";"success";"425";"0";"2014-10-16 11:08:55.145";"3";;;;;;;;;;;;;;;;;;;;;;;;;;;;;;;;;
"C1412569";"1996";;"Windows 7";"Rachel's Experiment (D.T.)";"1.0";"2";"1";"1";"2";"2";"2";"2014-10-16 11:03:27.139";"2014-10-16 11:16:21.946";"1";;"0";"1";;"90";"89";"module.training_block3.exec-2844.GoNoGo3";;;;;;;;;;;;;;;;;;;;;;;;;;;;;;;;;;;;;;;;;;;;;;;"1261";"2014-10-16 11:08:58.952";"NST_correctLoc";"28";"0";"FINISHED";"LEFT";"success";"410";"0";"2014-10-16 11:08:57.688";"3";;;;;;;;;;;;;;;;;;;;;;;;;;;;;;;;;
"C1412569";"1996";;"Windows 7";"Rachel's Experiment (D.T.)";"1.0";"2";"1";"1";"2";"2";"2";"2014-10-16 11:03:27.139";"2014-10-16 11:16:21.946";"1";;"0";"1";;"91";"90";"module.training_block3.exec-2844.GoNoGo3";;;;;;;;;;;;;;;;;;;;;;;;;;;;;;;;;;;;;;;;;;;;;;;"1261";"2014-10-16 11:09:01.494";"NST_correctLoc";"10";"0";"FINISHED";"LEFT";"success";"371";"0";"2014-10-16 11:09:00.231";"2";;;;;;;;;;;;;;;;;;;;;;;;;;;;;;;;;
"C1412569";"1996";;"Windows 7";"Rachel's Experiment (D.T.)";"1.0";"2";"1";"1";"2";"2";"2";"2014-10-16 11:03:27.139";"2014-10-16 11:16:21.946";"1";;"0";"1";;"92";"91";"module.training_block3.exec-2844.GoNoGo3";;;;;;;;;;;;;;;;;;;;;;;;;;;;;;;;;;;;;;;;;;;;;;;"1261";"2014-10-16 11:09:04.037";"NST_correctLoc";"0";"1";"FINISHED";"RIGHT";"success";"460";"0";"2014-10-16 11:09:02.774";"1";;;;;;;;;;;;;;;;;;;;;;;;;;;;;;;;;
"C1412569";"1996";;"Windows 7";"Rachel's Experiment (D.T.)";"1.0";"2";"1";"1";"2";"2";"2";"2014-10-16 11:03:27.139";"2014-10-16 11:16:21.946";"1";;"0";"1";;"93";"92";"module.training_block3.exec-2844.GoNoGo3";;;;;;;;;;;;;;;;;;;;;;;;;;;;;;;;;;;;;;;;;;;;;;;"1261";"2014-10-16 11:09:06.596";"NST_correctLoc";"25";"1";"FINISHED";"RIGHT";"success";"430";"0";"2014-10-16 11:09:05.332";"3";;;;;;;;;;;;;;;;;;;;;;;;;;;;;;;;;
"C1412569";"1996";;"Windows 7";"Rachel's Experiment (D.T.)";"1.0";"2";"1";"1";"2";"2";"2";"2014-10-16 11:03:27.139";"2014-10-16 11:16:21.946";"1";;"0";"1";;"94";"93";"module.training_block3.exec-2844.GoNoGo3";;;;;;;;;;;;;;;;;;;;;;;;;;;;;;;;;;;;;;;;;;;;;;;"1261";"2014-10-16 11:09:09.138";"NST_correctLoc";"30";"1";"FINISHED";"RIGHT";"success";"431";"0";"2014-10-16 11:09:07.875";"3";;;;;;;;;;;;;;;;;;;;;;;;;;;;;;;;;
"C1412569";"1996";;"Windows 7";"Rachel's Experiment (D.T.)";"1.0";"2";"1";"1";"2";"2";"2";"2014-10-16 11:03:27.139";"2014-10-16 11:16:21.946";"1";;"0";"1";;"95";"94";"module.training_block3.exec-2844.GoNoGo3";;;;;;;;;;;;;;;;;;;;;;;;;;;;;;;;;;;;;;;;;;;;;;;"1261";"2014-10-16 11:09:11.681";"NST_correctLoc";"9";"1";"FINISHED";"RIGHT";"success";"368";"0";"2014-10-16 11:09:10.418";"2";;;;;;;;;;;;;;;;;;;;;;;;;;;;;;;;;
"C1412569";"1996";;"Windows 7";"Rachel's Experiment (D.T.)";"1.0";"2";"1";"1";"2";"2";"2";"2014-10-16 11:03:27.139";"2014-10-16 11:16:21.946";"1";;"0";"1";;"96";"95";"module.training_block3.exec-2844.GoNoGo3";;;;;;;;;;;;;;;;;;;;;;;;;;;;;;;;;;;;;;;;;;;;;;;"1261";"2014-10-16 11:09:14.224";"NST_correctLoc";"16";"1";"FINISHED";"RIGHT";"success";"345";"0";"2014-10-16 11:09:12.960";"2";;;;;;;;;;;;;;;;;;;;;;;;;;;;;;;;;
"C1412569";"1996";;"Windows 7";"Rachel's Experiment (D.T.)";"1.0";"2";"1";"1";"2";"2";"2";"2014-10-16 11:03:27.139";"2014-10-16 11:16:21.946";"1";;"0";"1";;"97";"96";"module.training_block3.exec-2844.GoNoGo3";;;;;;;;;;;;;;;;;;;;;;;;;;;;;;;;;;;;;;;;;;;;;;;"1262";"2014-10-16 11:09:16.767";"NST_correctLoc";"14";"1";"FINISHED";"RIGHT";"success";"395";"0";"2014-10-16 11:09:15.503";"2";;;;;;;;;;;;;;;;;;;;;;;;;;;;;;;;;
"C1412569";"1996";;"Windows 7";"Rachel's Experiment (D.T.)";"1.0";"2";"1";"1";"2";"2";"2";"2014-10-16 11:03:27.139";"2014-10-16 11:16:21.946";"1";;"0";"1";;"98";"97";"module.training_block3.exec-2844.GoNoGo3";;;;;;;;;;;;;;;;;;;;;;;;;;;;;;;;;;;;;;;;;;;;;;;"1261";"2014-10-16 11:09:19.310";"NST_correctLoc";"17";"1";"FINISHED";"RIGHT";"success";"412";"0";"2014-10-16 11:09:18.046";"2";;;;;;;;;;;;;;;;;;;;;;;;;;;;;;;;;
"C1412569";"1996";;"Windows 7";"Rachel's Experiment (D.T.)";"1.0";"2";"1";"1";"2";"2";"2";"2014-10-16 11:03:27.139";"2014-10-16 11:16:21.946";"1";;"0";"1";;"99";"98";"module.training_block3.exec-2844.GoNoGo3";;;;;;;;;;;;;;;;;;;;;;;;;;;;;;;;;;;;;;;;;;;;;;;"1261";"2014-10-16 11:09:21.852";"NST_correctLoc";"12";"0";"FINISHED";"LEFT";"success";"325";"0";"2014-10-16 11:09:20.589";"2";;;;;;;;;;;;;;;;;;;;;;;;;;;;;;;;;
"C1412569";"1996";;"Windows 7";"Rachel's Experiment (D.T.)";"1.0";"2";"1";"1";"2";"2";"2";"2014-10-16 11:03:27.139";"2014-10-16 11:16:21.946";"1";;"0";"1";;"100";"99";"module.training_block3.exec-2844.GoNoGo3";;;;;;;;;;;;;;;;;;;;;;;;;;;;;;;;;;;;;;;;;;;;;;;"1261";"2014-10-16 11:09:24.395";"NST_correctLoc";"21";"0";"FINISHED";"LEFT";"success";"326";"0";"2014-10-16 11:09:23.132";"3";;;;;;;;;;;;;;;;;;;;;;;;;;;;;;;;;
"C1412569";"1996";;"Windows 7";"Rachel's Experiment (D.T.)";"1.0";"2";"1";"1";"2";"2";"2";"2014-10-16 11:03:27.139";"2014-10-16 11:16:21.946";"1";;"0";"1";;"101";"100";"module.training_block3.exec-2844.GoNoGo3";;;;;;;;;;;;;;;;;;;;;;;;;;;;;;;;;;;;;;;;;;;;;;;"1261";"2014-10-16 11:09:26.938";"NST_correctLoc";"20";"1";"FINISHED";"RIGHT";"success";"471";"0";"2014-10-16 11:09:25.674";"3";;;;;;;;;;;;;;;;;;;;;;;;;;;;;;;;;
"C1412569";"1996";;"Windows 7";"Rachel's Experiment (D.T.)";"1.0";"2";"1";"1";"2";"2";"2";"2014-10-16 11:03:27.139";"2014-10-16 11:16:21.946";"1";;"0";"1";;"102";"101";"module.training_block3.exec-2844.GoNoGo3";;;;;;;;;;;;;;;;;;;;;;;;;;;;;;;;;;;;;;;;;;;;;;;"1261";"2014-10-16 11:09:29.481";"NST_correctLoc";"15";"1";"FINISHED";"RIGHT";"success";"369";"0";"2014-10-16 11:09:28.217";"2";;;;;;;;;;;;;;;;;;;;;;;;;;;;;;;;;
"C1412569";"1996";;"Windows 7";"Rachel's Experiment (D.T.)";"1.0";"2";"1";"1";"2";"2";"2";"2014-10-16 11:03:27.139";"2014-10-16 11:16:21.946";"1";;"0";"1";;"103";"102";"module.training_block3.exec-2844.GoNoGo3";;;;;;;;;;;;;;;;;;;;;;;;;;;;;;;;;;;;;;;;;;;;;;;"1261";"2014-10-16 11:09:32.024";"NST_correctLoc";"7";"0";"FINISHED";"LEFT";"success";"354";"0";"2014-10-16 11:09:30.760";"1";;;;;;;;;;;;;;;;;;;;;;;;;;;;;;;;;
"C1412569";"1996";;"Windows 7";"Rachel's Experiment (D.T.)";"1.0";"2";"1";"1";"2";"2";"2";"2014-10-16 11:03:27.139";"2014-10-16 11:16:21.946";"1";;"0";"1";;"104";"103";"module.training_block3.exec-2844.GoNoGo3";;;;;;;;;;;;;;;;;;;;;;;;;;;;;;;;;;;;;;;;;;;;;;;"1261";"2014-10-16 11:09:34.566";"NST_correctLoc";"5";"0";"FINISHED";"LEFT";"success";"363";"0";"2014-10-16 11:09:33.303";"1";;;;;;;;;;;;;;;;;;;;;;;;;;;;;;;;;
"C1412569";"1996";;"Windows 7";"Rachel's Experiment (D.T.)";"1.0";"2";"1";"1";"2";"2";"2";"2014-10-16 11:03:27.139";"2014-10-16 11:16:21.946";"1";;"0";"1";;"105";"104";"module.training_block3.exec-2844.GoNoGo3";;;;;;;;;;;;;;;;;;;;;;;;;;;;;;;;;;;;;;;;;;;;;;;"1262";"2014-10-16 11:09:37.109";"NST_correctLoc";"11";"1";"FINISHED";"RIGHT";"success";"460";"0";"2014-10-16 11:09:35.846";"2";;;;;;;;;;;;;;;;;;;;;;;;;;;;;;;;;
"C1412569";"1996";;"Windows 7";"Rachel's Experiment (D.T.)";"1.0";"2";"1";"1";"2";"2";"2";"2014-10-16 11:03:27.139";"2014-10-16 11:16:21.946";"1";;"0";"1";;"106";"105";"module.training_block3.exec-2844.GoNoGo3";;;;;;;;;;;;;;;;;;;;;;;;;;;;;;;;;;;;;;;;;;;;;;;"1261";"2014-10-16 11:09:39.652";"NST_correctLoc";"34";"0";"FINISHED";"LEFT";"success";"341";"0";"2014-10-16 11:09:38.388";"3";;;;;;;;;;;;;;;;;;;;;;;;;;;;;;;;;
"C1412569";"1996";;"Windows 7";"Rachel's Experiment (D.T.)";"1.0";"2";"1";"1";"2";"2";"2";"2014-10-16 11:03:27.139";"2014-10-16 11:16:21.946";"1";;"0";"1";;"107";"106";"module.training_block3.exec-2844.GoNoGo3";;;;;;;;;;;;;;;;;;;;;;;;;;;;;;;;;;;;;;;;;;;;;;;"1261";"2014-10-16 11:09:42.195";"NST_correctLoc";"2";"0";"FINISHED";"LEFT";"success";"342";"0";"2014-10-16 11:09:40.931";"1";;;;;;;;;;;;;;;;;;;;;;;;;;;;;;;;;
"C1412569";"1996";;"Windows 7";"Rachel's Experiment (D.T.)";"1.0";"2";"1";"1";"2";"2";"2";"2014-10-16 11:03:27.139";"2014-10-16 11:16:21.946";"1";;"0";"1";;"108";"107";"module.training_block3.exec-2844.GoNoGo3";;;;;;;;;;;;;;;;;;;;;;;;;;;;;;;;;;;;;;;;;;;;;;;"1261";"2014-10-16 11:09:44.738";"NST_correctLoc";"24";"0";"FINISHED";"LEFT";"success";"359";"0";"2014-10-16 11:09:43.474";"3";;;;;;;;;;;;;;;;;;;;;;;;;;;;;;;;;
"C1412569";"1996";;"Windows 7";"Rachel's Experiment (D.T.)";"1.0";"2";"1";"1";"2";"2";"2";"2014-10-16 11:03:27.139";"2014-10-16 11:16:21.946";"1";;"0";"1";;"109";"108";"module.training_block3.exec-2844.GoNoGo3";;;;;;;;;;;;;;;;;;;;;;;;;;;;;;;;;;;;;;;;;;;;;;;"1261";"2014-10-16 11:09:47.296";"NST_correctLoc";"3";"1";"FINISHED";"RIGHT";"success";"569";"0";"2014-10-16 11:09:46.032";"1";;;;;;;;;;;;;;;;;;;;;;;;;;;;;;;;;
"C1412569";"1996";;"Windows 7";"Rachel's Experiment (D.T.)";"1.0";"2";"1";"1";"2";"2";"2";"2014-10-16 11:03:27.139";"2014-10-16 11:16:21.946";"1";;"0";"1";;"110";"109";"module.training_block3.exec-2844.GoNoGo3";;;;;;;;;;;;;;;;;;;;;;;;;;;;;;;;;;;;;;;;;;;;;;;"1261";"2014-10-16 11:09:49.839";"NST_correctLoc";"6";"0";"FINISHED";"LEFT";"success";"362";"0";"2014-10-16 11:09:48.575";"1";;;;;;;;;;;;;;;;;;;;;;;;;;;;;;;;;
"C1412569";"1996";;"Windows 7";"Rachel's Experiment (D.T.)";"1.0";"2";"1";"1";"2";"2";"2";"2014-10-16 11:03:27.139";"2014-10-16 11:16:21.946";"1";;"0";"1";;"111";"110";"module.training_block3.exec-2844.GoNoGo3";;;;;;;;;;;;;;;;;;;;;;;;;;;;;;;;;;;;;;;;;;;;;;;"1261";"2014-10-16 11:09:52.382";"NST_correctLoc";"23";"0";"FINISHED";"LEFT";"success";"412";"0";"2014-10-16 11:09:51.118";"3";;;;;;;;;;;;;;;;;;;;;;;;;;;;;;;;;
"C1412569";"1996";;"Windows 7";"Rachel's Experiment (D.T.)";"1.0";"2";"1";"1";"2";"2";"2";"2014-10-16 11:03:27.139";"2014-10-16 11:16:21.946";"1";;"0";"1";;"112";"111";"module.training_block3.exec-2844.GoNoGo3";;;;;;;;;;;;;;;;;;;;;;;;;;;;;;;;;;;;;;;;;;;;;;;"1261";"2014-10-16 11:09:54.924";"NST_correctLoc";"33";"0";"FINISHED";"LEFT";"success";"373";"0";"2014-10-16 11:09:53.661";"3";;;;;;;;;;;;;;;;;;;;;;;;;;;;;;;;;
"C1412569";"1996";;"Windows 7";"Rachel's Experiment (D.T.)";"1.0";"2";"1";"1";"2";"2";"2";"2014-10-16 11:03:27.139";"2014-10-16 11:16:21.946";"1";;"0";"1";;"113";"112";"module.training_block3.exec-2844.GoNoGo3";;;;;;;;;;;;;;;;;;;;;;;;;;;;;;;;;;;;;;;;;;;;;;;"1261";"2014-10-16 11:09:57.467";"NST_correctLoc";"35";"0";"FINISHED";"LEFT";"success";"382";"0";"2014-10-16 11:09:56.204";"3";;;;;;;;;;;;;;;;;;;;;;;;;;;;;;;;;
"C1412569";"1996";;"Windows 7";"Rachel's Experiment (D.T.)";"1.0";"2";"1";"1";"2";"2";"2";"2014-10-16 11:03:27.139";"2014-10-16 11:16:21.946";"1";;"0";"1";;"114";"113";"module.training_block3.exec-2844.GoNoGo3";;;;;;;;;;;;;;;;;;;;;;;;;;;;;;;;;;;;;;;;;;;;;;;"1261";"2014-10-16 11:10:00.010";"NST_correctLoc";"4";"1";"FINISHED";"RIGHT";"success";"327";"0";"2014-10-16 11:09:58.746";"1";;;;;;;;;;;;;;;;;;;;;;;;;;;;;;;;;
"C1412569";"1996";;"Windows 7";"Rachel's Experiment (D.T.)";"1.0";"2";"1";"1";"2";"2";"2";"2014-10-16 11:03:27.139";"2014-10-16 11:16:21.946";"1";;"0";"1";;"115";"114";"module.training_block3.exec-2844.GoNoGo3";;;;;;;;;;;;;;;;;;;;;;;;;;;;;;;;;;;;;;;;;;;;;;;"1261";"2014-10-16 11:10:02.553";"NST_correctLoc";"8";"1";"FINISHED";"RIGHT";"success";"424";"0";"2014-10-16 11:10:01.289";"1";;;;;;;;;;;;;;;;;;;;;;;;;;;;;;;;;
"C1412569";"1996";;"Windows 7";"Rachel's Experiment (D.T.)";"1.0";"2";"1";"1";"2";"2";"2";"2014-10-16 11:03:27.139";"2014-10-16 11:16:21.946";"1";;"0";"1";;"116";"115";"module.training_block3.exec-2844.GoNoGo3";;;;;;;;;;;;;;;;;;;;;;;;;;;;;;;;;;;;;;;;;;;;;;;"1262";"2014-10-16 11:10:05.096";"NST_correctLoc";"19";"0";"FINISHED";"LEFT";"success";"337";"0";"2014-10-16 11:10:03.832";"3";;;;;;;;;;;;;;;;;;;;;;;;;;;;;;;;;
"C1412569";"1996";;"Windows 7";"Rachel's Experiment (D.T.)";"1.0";"2";"1";"1";"2";"2";"2";"2014-10-16 11:03:27.139";"2014-10-16 11:16:21.946";"1";;"0";"1";;"117";"116";"module.training_block3.exec-2844.GoNoGo3";;;;;;;;;;;;;;;;;;;;;;;;;;;;;;;;;;;;;;;;;;;;;;;"1261";"2014-10-16 11:10:07.638";"NST_correctLoc";"32";"0";"FINISHED";"LEFT";"success";"339";"0";"2014-10-16 11:10:06.375";"3";;;;;;;;;;;;;;;;;;;;;;;;;;;;;;;;;
"C1412569";"1996";;"Windows 7";"Rachel's Experiment (D.T.)";"1.0";"2";"1";"1";"2";"2";"2";"2014-10-16 11:03:27.139";"2014-10-16 11:16:21.946";"1";;"0";"1";;"118";"117";"module.training_block3.exec-2844.GoNoGo3";;;;;;;;;;;;;;;;;;;;;;;;;;;;;;;;;;;;;;;;;;;;;;;"1261";"2014-10-16 11:10:10.181";"NST_correctLoc";"18";"0";"FINISHED";"LEFT";"success";"388";"0";"2014-10-16 11:10:08.918";"3";;;;;;;;;;;;;;;;;;;;;;;;;;;;;;;;;
"C1412569";"1996";;"Windows 7";"Rachel's Experiment (D.T.)";"1.0";"2";"1";"1";"2";"2";"2";"2014-10-16 11:03:27.139";"2014-10-16 11:16:21.946";"1";;"0";"1";;"119";"118";"module.training_block3.exec-2844.GoNoGo3";;;;;;;;;;;;;;;;;;;;;;;;;;;;;;;;;;;;;;;;;;;;;;;"1261";"2014-10-16 11:10:12.724";"NST_correctLoc";"31";"0";"FINISHED";"LEFT";"success";"349";"0";"2014-10-16 11:10:11.460";"3";;;;;;;;;;;;;;;;;;;;;;;;;;;;;;;;;
"C1412569";"1996";;"Windows 7";"Rachel's Experiment (D.T.)";"1.0";"2";"1";"1";"2";"2";"2";"2014-10-16 11:03:27.139";"2014-10-16 11:16:21.946";"1";;"0";"1";;"120";"119";"module.training_block3.exec-2844.GoNoGo3";;;;;;;;;;;;;;;;;;;;;;;;;;;;;;;;;;;;;;;;;;;;;;;"1261";"2014-10-16 11:10:15.267";"NST_correctLoc";"26";"0";"FINISHED";"LEFT";"success";"326";"0";"2014-10-16 11:10:14.003";"3";;;;;;;;;;;;;;;;;;;;;;;;;;;;;;;;;
"C1412569";"1996";;"Windows 7";"Rachel's Experiment (D.T.)";"1.0";"2";"1";"1";"2";"2";"2";"2014-10-16 11:03:27.139";"2014-10-16 11:16:21.946";"1";;"0";"1";;"121";"120";"module.training_block3.exec-2844.GoNoGo3";;;;;;;;;;;;;;;;;;;;;;;;;;;;;;;;;;;;;;;;;;;;;;;"1262";"2014-10-16 11:10:17.810";"NST_correctLoc";"22";"0";"FINISHED";"LEFT";"success";"343";"0";"2014-10-16 11:10:16.546";"3";;;;;;;;;;;;;;;;;;;;;;;;;;;;;;;;;
"C1412569";"1996";;"Windows 7";"Rachel's Experiment (D.T.)";"1.0";"2";"1";"1";"2";"2";"2";"2014-10-16 11:03:27.139";"2014-10-16 11:16:21.946";"1";;"0";"1";;"122";"121";"module.training_block3.exec-2844.GoNoGo3";;;;;;;;;;;;;;;;;;;;;;;;;;;;;;;;;;;;;;;;;;;;;;;"1261";"2014-10-16 11:10:20.353";"NST_correctLoc";"27";"1";"FINISHED";"RIGHT";"success";"352";"0";"2014-10-16 11:10:19.089";"3";;;;;;;;;;;;;;;;;;;;;;;;;;;;;;;;;
"C1412569";"1996";;"Windows 7";"Rachel's Experiment (D.T.)";"1.0";"2";"1";"1";"2";"2";"2";"2014-10-16 11:03:27.139";"2014-10-16 11:16:21.946";"1";;"0";"1";;"123";"122";"module.training_block3.exec-2844.GoNoGo3";;;;;;;;;;;;;;;;;;;;;;;;;;;;;;;;;;;;;;;;;;;;;;;"1262";"2014-10-16 11:10:22.895";"NST_correctLoc";"1";"0";"FINISHED";"LEFT";"success";"290";"0";"2014-10-16 11:10:21.632";"1";;;;;;;;;;;;;;;;;;;;;;;;;;;;;;;;;
"C1412569";"1996";;"Windows 7";"Rachel's Experiment (D.T.)";"1.0";"2";"1";"1";"2";"2";"2";"2014-10-16 11:03:27.139";"2014-10-16 11:16:21.946";"1";;"0";"1";;"124";"123";"module.training_block4.exec-2443.GoNoGo4";;;;;;;;;;;;;;;;;;;;;;;;;;;;;;;;;;;;;;;;;;;;;;;;;;;;;;;;;;;"1261";"2014-10-16 11:10:33.691";"NST_correctLoc";"8";"1";"FINISHED";"RIGHT";"success";"342";"0";"2014-10-16 11:10:32.427";"1";;;;;;;;;;;;;;;;;;;;;
"C1412569";"1996";;"Windows 7";"Rachel's Experiment (D.T.)";"1.0";"2";"1";"1";"2";"2";"2";"2014-10-16 11:03:27.139";"2014-10-16 11:16:21.946";"1";;"0";"1";;"125";"124";"module.training_block4.exec-2443.GoNoGo4";;;;;;;;;;;;;;;;;;;;;;;;;;;;;;;;;;;;;;;;;;;;;;;;;;;;;;;;;;;"1262";"2014-10-16 11:10:36.233";"NST_correctLoc";"9";"1";"FINISHED";"RIGHT";"success";"360";"0";"2014-10-16 11:10:34.970";"2";;;;;;;;;;;;;;;;;;;;;
"C1412569";"1996";;"Windows 7";"Rachel's Experiment (D.T.)";"1.0";"2";"1";"1";"2";"2";"2";"2014-10-16 11:03:27.139";"2014-10-16 11:16:21.946";"1";;"0";"1";;"126";"125";"module.training_block4.exec-2443.GoNoGo4";;;;;;;;;;;;;;;;;;;;;;;;;;;;;;;;;;;;;;;;;;;;;;;;;;;;;;;;;;;"1262";"2014-10-16 11:10:38.776";"NST_correctLoc";"1";"1";"FINISHED";"RIGHT";"success";"385";"0";"2014-10-16 11:10:37.513";"1";;;;;;;;;;;;;;;;;;;;;
"C1412569";"1996";;"Windows 7";"Rachel's Experiment (D.T.)";"1.0";"2";"1";"1";"2";"2";"2";"2014-10-16 11:03:27.139";"2014-10-16 11:16:21.946";"1";;"0";"1";;"127";"126";"module.training_block4.exec-2443.GoNoGo4";;;;;;;;;;;;;;;;;;;;;;;;;;;;;;;;;;;;;;;;;;;;;;;;;;;;;;;;;;;"1261";"2014-10-16 11:10:41.319";"NST_correctLoc";"6";"0";"FINISHED";"LEFT";"success";"298";"0";"2014-10-16 11:10:40.055";"1";;;;;;;;;;;;;;;;;;;;;
"C1412569";"1996";;"Windows 7";"Rachel's Experiment (D.T.)";"1.0";"2";"1";"1";"2";"2";"2";"2014-10-16 11:03:27.139";"2014-10-16 11:16:21.946";"1";;"0";"1";;"128";"127";"module.training_block4.exec-2443.GoNoGo4";;;;;;;;;;;;;;;;;;;;;;;;;;;;;;;;;;;;;;;;;;;;;;;;;;;;;;;;;;;"1261";"2014-10-16 11:10:43.862";"NST_correctLoc";"27";"1";"FINISHED";"RIGHT";"success";"307";"0";"2014-10-16 11:10:42.598";"3";;;;;;;;;;;;;;;;;;;;;
"C1412569";"1996";;"Windows 7";"Rachel's Experiment (D.T.)";"1.0";"2";"1";"1";"2";"2";"2";"2014-10-16 11:03:27.139";"2014-10-16 11:16:21.946";"1";;"0";"1";;"129";"128";"module.training_block4.exec-2443.GoNoGo4";;;;;;;;;;;;;;;;;;;;;;;;;;;;;;;;;;;;;;;;;;;;;;;;;;;;;;;;;;;"1262";"2014-10-16 11:10:46.405";"NST_correctLoc";"19";"1";"FINISHED";"RIGHT";"success";"356";"0";"2014-10-16 11:10:45.141";"3";;;;;;;;;;;;;;;;;;;;;
"C1412569";"1996";;"Windows 7";"Rachel's Experiment (D.T.)";"1.0";"2";"1";"1";"2";"2";"2";"2014-10-16 11:03:27.139";"2014-10-16 11:16:21.946";"1";;"0";"1";;"130";"129";"module.training_block4.exec-2443.GoNoGo4";;;;;;;;;;;;;;;;;;;;;;;;;;;;;;;;;;;;;;;;;;;;;;;;;;;;;;;;;;;"1261";"2014-10-16 11:10:48.947";"NST_correctLoc";"13";"0";"FINISHED";"LEFT";"success";"437";"0";"2014-10-16 11:10:47.684";"2";;;;;;;;;;;;;;;;;;;;;
"C1412569";"1996";;"Windows 7";"Rachel's Experiment (D.T.)";"1.0";"2";"1";"1";"2";"2";"2";"2014-10-16 11:03:27.139";"2014-10-16 11:16:21.946";"1";;"0";"1";;"131";"130";"module.training_block4.exec-2443.GoNoGo4";;;;;;;;;;;;;;;;;;;;;;;;;;;;;;;;;;;;;;;;;;;;;;;;;;;;;;;;;;;"1261";"2014-10-16 11:10:51.490";"NST_correctLoc";"14";"0";"FINISHED";"LEFT";"success";"351";"0";"2014-10-16 11:10:50.227";"2";;;;;;;;;;;;;;;;;;;;;
"C1412569";"1996";;"Windows 7";"Rachel's Experiment (D.T.)";"1.0";"2";"1";"1";"2";"2";"2";"2014-10-16 11:03:27.139";"2014-10-16 11:16:21.946";"1";;"0";"1";;"132";"131";"module.training_block4.exec-2443.GoNoGo4";;;;;;;;;;;;;;;;;;;;;;;;;;;;;;;;;;;;;;;;;;;;;;;;;;;;;;;;;;;"1262";"2014-10-16 11:10:54.033";"NST_correctLoc";"30";"0";"FINISHED";"LEFT";"success";"368";"0";"2014-10-16 11:10:52.769";"3";;;;;;;;;;;;;;;;;;;;;
"C1412569";"1996";;"Windows 7";"Rachel's Experiment (D.T.)";"1.0";"2";"1";"1";"2";"2";"2";"2014-10-16 11:03:27.139";"2014-10-16 11:16:21.946";"1";;"0";"1";;"133";"132";"module.training_block4.exec-2443.GoNoGo4";;;;;;;;;;;;;;;;;;;;;;;;;;;;;;;;;;;;;;;;;;;;;;;;;;;;;;;;;;;"1261";"2014-10-16 11:10:56.576";"NST_correctLoc";"2";"1";"FINISHED";"RIGHT";"success";"353";"0";"2014-10-16 11:10:55.312";"1";;;;;;;;;;;;;;;;;;;;;
"C1412569";"1996";;"Windows 7";"Rachel's Experiment (D.T.)";"1.0";"2";"1";"1";"2";"2";"2";"2014-10-16 11:03:27.139";"2014-10-16 11:16:21.946";"1";;"0";"1";;"134";"133";"module.training_block4.exec-2443.GoNoGo4";;;;;;;;;;;;;;;;;;;;;;;;;;;;;;;;;;;;;;;;;;;;;;;;;;;;;;;;;;;"1261";"2014-10-16 11:10:59.119";"NST_correctLoc";"18";"0";"FINISHED";"LEFT";"success";"338";"0";"2014-10-16 11:10:57.855";"3";;;;;;;;;;;;;;;;;;;;;
"C1412569";"1996";;"Windows 7";"Rachel's Experiment (D.T.)";"1.0";"2";"1";"1";"2";"2";"2";"2014-10-16 11:03:27.139";"2014-10-16 11:16:21.946";"1";;"0";"1";;"135";"134";"module.training_block4.exec-2443.GoNoGo4";;;;;;;;;;;;;;;;;;;;;;;;;;;;;;;;;;;;;;;;;;;;;;;;;;;;;;;;;;;"1261";"2014-10-16 11:11:01.646";"NST_correctLoc";"20";"1";"FINISHED";"RIGHT";"success";"323";"0";"2014-10-16 11:11:00.382";"3";;;;;;;;;;;;;;;;;;;;;
"C1412569";"1996";;"Windows 7";"Rachel's Experiment (D.T.)";"1.0";"2";"1";"1";"2";"2";"2";"2014-10-16 11:03:27.139";"2014-10-16 11:16:21.946";"1";;"0";"1";;"136";"135";"module.training_block4.exec-2443.GoNoGo4";;;;;;;;;;;;;;;;;;;;;;;;;;;;;;;;;;;;;;;;;;;;;;;;;;;;;;;;;;;"1262";"2014-10-16 11:11:04.189";"NST_correctLoc";"35";"1";"FINISHED";"RIGHT";"success";"372";"0";"2014-10-16 11:11:02.925";"3";;;;;;;;;;;;;;;;;;;;;
"C1412569";"1996";;"Windows 7";"Rachel's Experiment (D.T.)";"1.0";"2";"1";"1";"2";"2";"2";"2014-10-16 11:03:27.139";"2014-10-16 11:16:21.946";"1";;"0";"1";;"137";"136";"module.training_block4.exec-2443.GoNoGo4";;;;;;;;;;;;;;;;;;;;;;;;;;;;;;;;;;;;;;;;;;;;;;;;;;;;;;;;;;;"1262";"2014-10-16 11:11:06.731";"NST_correctLoc";"33";"1";"FINISHED";"RIGHT";"success";"317";"0";"2014-10-16 11:11:05.468";"3";;;;;;;;;;;;;;;;;;;;;
"C1412569";"1996";;"Windows 7";"Rachel's Experiment (D.T.)";"1.0";"2";"1";"1";"2";"2";"2";"2014-10-16 11:03:27.139";"2014-10-16 11:16:21.946";"1";;"0";"1";;"138";"137";"module.training_block4.exec-2443.GoNoGo4";;;;;;;;;;;;;;;;;;;;;;;;;;;;;;;;;;;;;;;;;;;;;;;;;;;;;;;;;;;"1261";"2014-10-16 11:11:09.259";"NST_correctLoc";"31";"1";"FINISHED";"RIGHT";"success";"574";"0";"2014-10-16 11:11:07.995";"3";;;;;;;;;;;;;;;;;;;;;
"C1412569";"1996";;"Windows 7";"Rachel's Experiment (D.T.)";"1.0";"2";"1";"1";"2";"2";"2";"2014-10-16 11:03:27.139";"2014-10-16 11:16:21.946";"1";;"0";"1";;"139";"138";"module.training_block4.exec-2443.GoNoGo4";;;;;;;;;;;;;;;;;;;;;;;;;;;;;;;;;;;;;;;;;;;;;;;;;;;;;;;;;;;"1262";"2014-10-16 11:11:11.801";"NST_correctLoc";"21";"1";"FINISHED";"RIGHT";"success";"327";"0";"2014-10-16 11:11:10.538";"3";;;;;;;;;;;;;;;;;;;;;
"C1412569";"1996";;"Windows 7";"Rachel's Experiment (D.T.)";"1.0";"2";"1";"1";"2";"2";"2";"2014-10-16 11:03:27.139";"2014-10-16 11:16:21.946";"1";;"0";"1";;"140";"139";"module.training_block4.exec-2443.GoNoGo4";;;;;;;;;;;;;;;;;;;;;;;;;;;;;;;;;;;;;;;;;;;;;;;;;;;;;;;;;;;"1262";"2014-10-16 11:11:14.329";"NST_correctLoc";"34";"1";"FINISHED";"RIGHT";"success";"384";"0";"2014-10-16 11:11:13.065";"3";;;;;;;;;;;;;;;;;;;;;
"C1412569";"1996";;"Windows 7";"Rachel's Experiment (D.T.)";"1.0";"2";"1";"1";"2";"2";"2";"2014-10-16 11:03:27.139";"2014-10-16 11:16:21.946";"1";;"0";"1";;"141";"140";"module.training_block4.exec-2443.GoNoGo4";;;;;;;;;;;;;;;;;;;;;;;;;;;;;;;;;;;;;;;;;;;;;;;;;;;;;;;;;;;"1261";"2014-10-16 11:11:16.871";"NST_correctLoc";"7";"1";"FINISHED";"RIGHT";"success";"369";"0";"2014-10-16 11:11:15.608";"1";;;;;;;;;;;;;;;;;;;;;
"C1412569";"1996";;"Windows 7";"Rachel's Experiment (D.T.)";"1.0";"2";"1";"1";"2";"2";"2";"2014-10-16 11:03:27.139";"2014-10-16 11:16:21.946";"1";;"0";"1";;"142";"141";"module.training_block4.exec-2443.GoNoGo4";;;;;;;;;;;;;;;;;;;;;;;;;;;;;;;;;;;;;;;;;;;;;;;;;;;;;;;;;;;"1262";"2014-10-16 11:11:19.414";"NST_correctLoc";"4";"1";"FINISHED";"RIGHT";"success";"418";"0";"2014-10-16 11:11:18.151";"1";;;;;;;;;;;;;;;;;;;;;
"C1412569";"1996";;"Windows 7";"Rachel's Experiment (D.T.)";"1.0";"2";"1";"1";"2";"2";"2";"2014-10-16 11:03:27.139";"2014-10-16 11:16:21.946";"1";;"0";"1";;"143";"142";"module.training_block4.exec-2443.GoNoGo4";;;;;;;;;;;;;;;;;;;;;;;;;;;;;;;;;;;;;;;;;;;;;;;;;;;;;;;;;;;"1261";"2014-10-16 11:11:21.957";"NST_correctLoc";"11";"1";"FINISHED";"RIGHT";"success";"516";"0";"2014-10-16 11:11:20.693";"2";;;;;;;;;;;;;;;;;;;;;
"C1412569";"1996";;"Windows 7";"Rachel's Experiment (D.T.)";"1.0";"2";"1";"1";"2";"2";"2";"2014-10-16 11:03:27.139";"2014-10-16 11:16:21.946";"1";;"0";"1";;"144";"143";"module.training_block4.exec-2443.GoNoGo4";;;;;;;;;;;;;;;;;;;;;;;;;;;;;;;;;;;;;;;;;;;;;;;;;;;;;;;;;;;"1262";"2014-10-16 11:11:24.500";"NST_correctLoc";"25";"0";"FINISHED";"LEFT";"success";"485";"0";"2014-10-16 11:11:23.236";"3";;;;;;;;;;;;;;;;;;;;;
"C1412569";"1996";;"Windows 7";"Rachel's Experiment (D.T.)";"1.0";"2";"1";"1";"2";"2";"2";"2014-10-16 11:03:27.139";"2014-10-16 11:16:21.946";"1";;"0";"1";;"145";"144";"module.training_block4.exec-2443.GoNoGo4";;;;;;;;;;;;;;;;;;;;;;;;;;;;;;;;;;;;;;;;;;;;;;;;;;;;;;;;;;;"1262";"2014-10-16 11:11:27.027";"NST_correctLoc";"28";"0";"FINISHED";"LEFT";"success";"389";"0";"2014-10-16 11:11:25.763";"3";;;;;;;;;;;;;;;;;;;;;
"C1412569";"1996";;"Windows 7";"Rachel's Experiment (D.T.)";"1.0";"2";"1";"1";"2";"2";"2";"2014-10-16 11:03:27.139";"2014-10-16 11:16:21.946";"1";;"0";"1";;"146";"145";"module.training_block4.exec-2443.GoNoGo4";;;;;;;;;;;;;;;;;;;;;;;;;;;;;;;;;;;;;;;;;;;;;;;;;;;;;;;;;;;"1261";"2014-10-16 11:11:29.570";"NST_correctLoc";"10";"0";"FINISHED";"LEFT";"success";"447";"0";"2014-10-16 11:11:28.306";"2";;;;;;;;;;;;;;;;;;;;;
"C1412569";"1996";;"Windows 7";"Rachel's Experiment (D.T.)";"1.0";"2";"1";"1";"2";"2";"2";"2014-10-16 11:03:27.139";"2014-10-16 11:16:21.946";"1";;"0";"1";;"147";"146";"module.training_block4.exec-2443.GoNoGo4";;;;;;;;;;;;;;;;;;;;;;;;;;;;;;;;;;;;;;;;;;;;;;;;;;;;;;;;;;;"1262";"2014-10-16 11:11:32.128";"NST_correctLoc";"0";"0";"FINISHED";"LEFT";"success";"384";"0";"2014-10-16 11:11:30.865";"1";;;;;;;;;;;;;;;;;;;;;
"C1412569";"1996";;"Windows 7";"Rachel's Experiment (D.T.)";"1.0";"2";"1";"1";"2";"2";"2";"2014-10-16 11:03:27.139";"2014-10-16 11:16:21.946";"1";;"0";"1";;"148";"147";"module.training_block4.exec-2443.GoNoGo4";;;;;;;;;;;;;;;;;;;;;;;;;;;;;;;;;;;;;;;;;;;;;;;;;;;;;;;;;;;"1261";"2014-10-16 11:11:34.671";"NST_correctLoc";"5";"1";"FINISHED";"RIGHT";"success";"481";"0";"2014-10-16 11:11:33.407";"1";;;;;;;;;;;;;;;;;;;;;
"C1412569";"1996";;"Windows 7";"Rachel's Experiment (D.T.)";"1.0";"2";"1";"1";"2";"2";"2";"2014-10-16 11:03:27.139";"2014-10-16 11:16:21.946";"1";;"0";"1";;"149";"148";"module.training_block4.exec-2443.GoNoGo4";;;;;;;;;;;;;;;;;;;;;;;;;;;;;;;;;;;;;;;;;;;;;;;;;;;;;;;;;;;"1261";"2014-10-16 11:11:37.214";"NST_correctLoc";"26";"1";"FINISHED";"RIGHT";"success";"459";"0";"2014-10-16 11:11:35.950";"3";;;;;;;;;;;;;;;;;;;;;
"C1412569";"1996";;"Windows 7";"Rachel's Experiment (D.T.)";"1.0";"2";"1";"1";"2";"2";"2";"2014-10-16 11:03:27.139";"2014-10-16 11:16:21.946";"1";;"0";"1";;"150";"149";"module.training_block4.exec-2443.GoNoGo4";;;;;;;;;;;;;;;;;;;;;;;;;;;;;;;;;;;;;;;;;;;;;;;;;;;;;;;;;;;"1262";"2014-10-16 11:11:39.757";"NST_correctLoc";"3";"0";"FINISHED";"LEFT";"success";"476";"0";"2014-10-16 11:11:38.493";"1";;;;;;;;;;;;;;;;;;;;;
"C1412569";"1996";;"Windows 7";"Rachel's Experiment (D.T.)";"1.0";"2";"1";"1";"2";"2";"2";"2014-10-16 11:03:27.139";"2014-10-16 11:16:21.946";"1";;"0";"1";;"151";"150";"module.training_block4.exec-2443.GoNoGo4";;;;;;;;;;;;;;;;;;;;;;;;;;;;;;;;;;;;;;;;;;;;;;;;;;;;;;;;;;;"1262";"2014-10-16 11:11:42.299";"NST_correctLoc";"24";"0";"FINISHED";"LEFT";"success";"373";"0";"2014-10-16 11:11:41.036";"3";;;;;;;;;;;;;;;;;;;;;
"C1412569";"1996";;"Windows 7";"Rachel's Experiment (D.T.)";"1.0";"2";"1";"1";"2";"2";"2";"2014-10-16 11:03:27.139";"2014-10-16 11:16:21.946";"1";;"0";"1";;"152";"151";"module.training_block4.exec-2443.GoNoGo4";;;;;;;;;;;;;;;;;;;;;;;;;;;;;;;;;;;;;;;;;;;;;;;;;;;;;;;;;;;"1262";"2014-10-16 11:11:44.827";"NST_correctLoc";"17";"1";"FINISHED";"RIGHT";"success";"446";"0";"2014-10-16 11:11:43.563";"2";;;;;;;;;;;;;;;;;;;;;
"C1412569";"1996";;"Windows 7";"Rachel's Experiment (D.T.)";"1.0";"2";"1";"1";"2";"2";"2";"2014-10-16 11:03:27.139";"2014-10-16 11:16:21.946";"1";;"0";"1";;"153";"152";"module.training_block4.exec-2443.GoNoGo4";;;;;;;;;;;;;;;;;;;;;;;;;;;;;;;;;;;;;;;;;;;;;;;;;;;;;;;;;;;"1261";"2014-10-16 11:11:47.369";"NST_correctLoc";"32";"1";"FINISHED";"RIGHT";"success";"335";"0";"2014-10-16 11:11:46.106";"3";;;;;;;;;;;;;;;;;;;;;
"C1412569";"1996";;"Windows 7";"Rachel's Experiment (D.T.)";"1.0";"2";"1";"1";"2";"2";"2";"2014-10-16 11:03:27.139";"2014-10-16 11:16:21.946";"1";;"0";"1";;"154";"153";"module.training_block4.exec-2443.GoNoGo4";;;;;;;;;;;;;;;;;;;;;;;;;;;;;;;;;;;;;;;;;;;;;;;;;;;;;;;;;;;"1261";"2014-10-16 11:11:49.928";"NST_correctLoc";"29";"0";"FINISHED";"LEFT";"success";"344";"0";"2014-10-16 11:11:48.664";"3";;;;;;;;;;;;;;;;;;;;;
"C1412569";"1996";;"Windows 7";"Rachel's Experiment (D.T.)";"1.0";"2";"1";"1";"2";"2";"2";"2014-10-16 11:03:27.139";"2014-10-16 11:16:21.946";"1";;"0";"1";;"155";"154";"module.training_block4.exec-2443.GoNoGo4";;;;;;;;;;;;;;;;;;;;;;;;;;;;;;;;;;;;;;;;;;;;;;;;;;;;;;;;;;;"1262";"2014-10-16 11:11:52.455";"NST_correctLoc";"23";"1";"FINISHED";"RIGHT";"success";"345";"0";"2014-10-16 11:11:51.191";"3";;;;;;;;;;;;;;;;;;;;;
"C1412569";"1996";;"Windows 7";"Rachel's Experiment (D.T.)";"1.0";"2";"1";"1";"2";"2";"2";"2014-10-16 11:03:27.139";"2014-10-16 11:16:21.946";"1";;"0";"1";;"156";"155";"module.training_block4.exec-2443.GoNoGo4";;;;;;;;;;;;;;;;;;;;;;;;;;;;;;;;;;;;;;;;;;;;;;;;;;;;;;;;;;;"1262";"2014-10-16 11:11:54.982";"NST_correctLoc";"16";"1";"FINISHED";"RIGHT";"success";"362";"0";"2014-10-16 11:11:53.719";"2";;;;;;;;;;;;;;;;;;;;;
"C1412569";"1996";;"Windows 7";"Rachel's Experiment (D.T.)";"1.0";"2";"1";"1";"2";"2";"2";"2014-10-16 11:03:27.139";"2014-10-16 11:16:21.946";"1";;"0";"1";;"157";"156";"module.training_block4.exec-2443.GoNoGo4";;;;;;;;;;;;;;;;;;;;;;;;;;;;;;;;;;;;;;;;;;;;;;;;;;;;;;;;;;;"1262";"2014-10-16 11:11:57.509";"NST_correctLoc";"22";"0";"FINISHED";"LEFT";"success";"291";"0";"2014-10-16 11:11:56.246";"3";;;;;;;;;;;;;;;;;;;;;
"C1412569";"1996";;"Windows 7";"Rachel's Experiment (D.T.)";"1.0";"2";"1";"1";"2";"2";"2";"2014-10-16 11:03:27.139";"2014-10-16 11:16:21.946";"1";;"0";"1";;"158";"157";"module.training_block4.exec-2443.GoNoGo4";;;;;;;;;;;;;;;;;;;;;;;;;;;;;;;;;;;;;;;;;;;;;;;;;;;;;;;;;;;"1262";"2014-10-16 11:12:00.037";"NST_correctLoc";"12";"1";"FINISHED";"RIGHT";"success";"340";"0";"2014-10-16 11:11:58.773";"2";;;;;;;;;;;;;;;;;;;;;
"C1412569";"1996";;"Windows 7";"Rachel's Experiment (D.T.)";"1.0";"2";"1";"1";"2";"2";"2";"2014-10-16 11:03:27.139";"2014-10-16 11:16:21.946";"1";;"0";"1";;"159";"158";"module.training_block4.exec-2443.GoNoGo4";;;;;;;;;;;;;;;;;;;;;;;;;;;;;;;;;;;;;;;;;;;;;;;;;;;;;;;;;;;"1262";"2014-10-16 11:12:02.595";"NST_correctLoc";"15";"0";"FINISHED";"LEFT";"success";"341";"0";"2014-10-16 11:12:01.331";"2";;;;;;;;;;;;;;;;;;;;;
"C1412569";"1996";;"Windows 7";"Rachel's Experiment (D.T.)";"1.0";"2";"1";"1";"2";"2";"2";"2014-10-16 11:03:27.139";"2014-10-16 11:16:21.946";"1";;"0";"1";;"160";"159";"module.devaluation_practice.exec-7884.devalPractice";;;;;;;;;;;;"11810";"2014-10-16 11:12:34.575";"0";"7";"9";"8";"2857";"2326";"3578";"2014-10-16 11:12:22.766";;;;;;;;;;;;;;;;;;;;;;;;;;;;;;;;;;;;;;;;;;;;;;;;;;;;;;;;;;;;;;;;;;;;;;
"C1412569";"1996";;"Windows 7";"Rachel's Experiment (D.T.)";"1.0";"2";"1";"1";"2";"2";"2";"2014-10-16 11:03:27.139";"2014-10-16 11:16:21.946";"1";;"0";"1";;"161";"160";"module.devaluation_practice.exec-7884.devalPractice";;;;;;;;;;;;"8950";"2014-10-16 11:12:43.561";"1";"3";"3";"8";"1386";"2432";"2109";"2014-10-16 11:12:34.606";;;;;;;;;;;;;;;;;;;;;;;;;;;;;;;;;;;;;;;;;;;;;;;;;;;;;;;;;;;;;;;;;;;;;;
"C1412569";"1996";;"Windows 7";"Rachel's Experiment (D.T.)";"1.0";"2";"1";"1";"2";"2";"2";"2014-10-16 11:03:27.139";"2014-10-16 11:16:21.946";"1";;"0";"1";;"162";"161";"module.devaluation_practice.exec-7884.devalPractice";;;;;;;;;;;;"8204";"2014-10-16 11:12:51.782";"2";"2";"3";"7";"1410";"1265";"2499";"2014-10-16 11:12:43.576";;;;;;;;;;;;;;;;;;;;;;;;;;;;;;;;;;;;;;;;;;;;;;;;;;;;;;;;;;;;;;;;;;;;;;
"C1412569";"1996";;"Windows 7";"Rachel's Experiment (D.T.)";"1.0";"2";"1";"1";"2";"2";"2";"2014-10-16 11:03:27.139";"2014-10-16 11:16:21.946";"1";;"0";"1";;"163";"162";"module.devaluation_practice.exec-7884.devalPractice";;;;;;;;;;;;"7431";"2014-10-16 11:12:59.239";"3";"9";"9";"9";"1420";"1740";"1230";"2014-10-16 11:12:51.813";;;;;;;;;;;;;;;;;;;;;;;;;;;;;;;;;;;;;;;;;;;;;;;;;;;;;;;;;;;;;;;;;;;;;;
"C1412569";"1996";;"Windows 7";"Rachel's Experiment (D.T.)";"1.0";"2";"1";"1";"2";"2";"2";"2014-10-16 11:03:27.139";"2014-10-16 11:16:21.946";"1";;"0";"1";;"164";"163";"module.devaluation_block1.exec-1352.deval1";"8009";"2014-10-16 11:13:13.684";"4";"9";"9";"8";"1584";"1898";"1502";"2014-10-16 11:13:05.682";"1";;;;;;;;;;;;;;;;;;;;;;;;;;;;;;;;;;;;;;;;;;;;;;;;;;;;;;;;;;;;;;;;;;;;;;;;;;;;;;;;
"C1412569";"1996";;"Windows 7";"Rachel's Experiment (D.T.)";"1.0";"2";"1";"1";"2";"2";"2";"2014-10-16 11:03:27.139";"2014-10-16 11:16:21.946";"1";;"0";"1";;"165";"164";"module.devaluation_block1.exec-1352.deval1";"8611";"2014-10-16 11:13:22.327";"9";"3";"4";"9";"2391";"1982";"1202";"2014-10-16 11:13:13.716";"2";;;;;;;;;;;;;;;;;;;;;;;;;;;;;;;;;;;;;;;;;;;;;;;;;;;;;;;;;;;;;;;;;;;;;;;;;;;;;;;;
"C1412569";"1996";;"Windows 7";"Rachel's Experiment (D.T.)";"1.0";"2";"1";"1";"2";"2";"2";"2014-10-16 11:03:27.139";"2014-10-16 11:16:21.946";"1";;"0";"1";;"166";"165";"module.devaluation_block1.exec-1352.deval1";"7478";"2014-10-16 11:13:29.815";"0";"3";"7";"8";"1228";"1678";"1553";"2014-10-16 11:13:22.342";"1";;;;;;;;;;;;;;;;;;;;;;;;;;;;;;;;;;;;;;;;;;;;;;;;;;;;;;;;;;;;;;;;;;;;;;;;;;;;;;;;
"C1412569";"1996";;"Windows 7";"Rachel's Experiment (D.T.)";"1.0";"2";"1";"1";"2";"2";"2";"2014-10-16 11:03:27.139";"2014-10-16 11:16:21.946";"1";;"0";"1";;"167";"166";"module.devaluation_block1.exec-1352.deval1";"6931";"2014-10-16 11:13:36.772";"14";"9";"7";"7";"1053";"1453";"1397";"2014-10-16 11:13:29.846";"2";;;;;;;;;;;;;;;;;;;;;;;;;;;;;;;;;;;;;;;;;;;;;;;;;;;;;;;;;;;;;;;;;;;;;;;;;;;;;;;;
"C1412569";"1996";;"Windows 7";"Rachel's Experiment (D.T.)";"1.0";"2";"1";"1";"2";"2";"2";"2014-10-16 11:03:27.139";"2014-10-16 11:16:21.946";"1";;"0";"1";;"168";"167";"module.devaluation_block1.exec-1352.deval1";"8579";"2014-10-16 11:13:45.368";"1";"9";"3";"7";"1303";"1661";"2589";"2014-10-16 11:13:36.788";"1";;;;;;;;;;;;;;;;;;;;;;;;;;;;;;;;;;;;;;;;;;;;;;;;;;;;;;;;;;;;;;;;;;;;;;;;;;;;;;;;
"C1412569";"1996";;"Windows 7";"Rachel's Experiment (D.T.)";"1.0";"2";"1";"1";"2";"2";"2";"2014-10-16 11:03:27.139";"2014-10-16 11:16:21.946";"1";;"0";"1";;"169";"168";"module.devaluation_block1.exec-1352.deval1";"9067";"2014-10-16 11:13:54.463";"2";"3";"3";"6";"2571";"1420";"2042";"2014-10-16 11:13:45.384";"1";;;;;;;;;;;;;;;;;;;;;;;;;;;;;;;;;;;;;;;;;;;;;;;;;;;;;;;;;;;;;;;;;;;;;;;;;;;;;;;;
"C1412569";"1996";;"Windows 7";"Rachel's Experiment (D.T.)";"1.0";"2";"1";"1";"2";"2";"2";"2014-10-16 11:03:27.139";"2014-10-16 11:16:21.946";"1";;"0";"1";;"170";"169";"module.devaluation_block1.exec-1352.deval1";"6380";"2014-10-16 11:14:00.859";"24";"8";"8";"7";"1116";"1268";"966";"2014-10-16 11:13:54.478";"3";;;;;;;;;;;;;;;;;;;;;;;;;;;;;;;;;;;;;;;;;;;;;;;;;;;;;;;;;;;;;;;;;;;;;;;;;;;;;;;;
"C1412569";"1996";;"Windows 7";"Rachel's Experiment (D.T.)";"1.0";"2";"1";"1";"2";"2";"2";"2014-10-16 11:03:27.139";"2014-10-16 11:16:21.946";"1";;"0";"1";;"171";"170";"module.devaluation_block1.exec-1352.deval1";"7940";"2014-10-16 11:14:08.815";"13";"9";"3";"4";"1624";"1093";"2184";"2014-10-16 11:14:00.875";"2";;;;;;;;;;;;;;;;;;;;;;;;;;;;;;;;;;;;;;;;;;;;;;;;;;;;;;;;;;;;;;;;;;;;;;;;;;;;;;;;
"C1412569";"1996";;"Windows 7";"Rachel's Experiment (D.T.)";"1.0";"2";"1";"1";"2";"2";"2";"2014-10-16 11:03:27.139";"2014-10-16 11:16:21.946";"1";;"0";"1";;"172";"171";"module.devaluation_block1.exec-1352.deval1";"8139";"2014-10-16 11:14:16.974";"7";"6";"3";"2";"2165";"1803";"1137";"2014-10-16 11:14:08.831";"1";;;;;;;;;;;;;;;;;;;;;;;;;;;;;;;;;;;;;;;;;;;;;;;;;;;;;;;;;;;;;;;;;;;;;;;;;;;;;;;;
"C1412569";"1996";;"Windows 7";"Rachel's Experiment (D.T.)";"1.0";"2";"1";"1";"2";"2";"2";"2014-10-16 11:03:27.139";"2014-10-16 11:16:21.946";"1";;"0";"1";;"173";"172";"module.devaluation_block1.exec-1352.deval1";"6927";"2014-10-16 11:14:23.931";"18";"9";"7";"8";"1069";"1423";"1406";"2014-10-16 11:14:17.005";"3";;;;;;;;;;;;;;;;;;;;;;;;;;;;;;;;;;;;;;;;;;;;;;;;;;;;;;;;;;;;;;;;;;;;;;;;;;;;;;;;
"C1412569";"1996";;"Windows 7";"Rachel's Experiment (D.T.)";"1.0";"2";"1";"1";"2";"2";"2";"2014-10-16 11:03:27.139";"2014-10-16 11:16:21.946";"1";;"0";"1";;"174";"173";"module.devaluation_block1.exec-1352.deval1";"6940";"2014-10-16 11:14:30.889";"17";"9";"3";"1";"1151";"1504";"1250";"2014-10-16 11:14:23.947";"2";;;;;;;;;;;;;;;;;;;;;;;;;;;;;;;;;;;;;;;;;;;;;;;;;;;;;;;;;;;;;;;;;;;;;;;;;;;;;;;;
"C1412569";"1996";;"Windows 7";"Rachel's Experiment (D.T.)";"1.0";"2";"1";"1";"2";"2";"2";"2014-10-16 11:03:27.139";"2014-10-16 11:16:21.946";"1";;"0";"1";;"175";"174";"module.devaluation_block1.exec-1352.deval1";"6276";"2014-10-16 11:14:37.191";"16";"9";"2";"1";"986";"1170";"1096";"2014-10-16 11:14:30.905";"2";;;;;;;;;;;;;;;;;;;;;;;;;;;;;;;;;;;;;;;;;;;;;;;;;;;;;;;;;;;;;;;;;;;;;;;;;;;;;;;;
"C1412569";"1996";;"Windows 7";"Rachel's Experiment (D.T.)";"1.0";"2";"1";"1";"2";"2";"2";"2014-10-16 11:03:27.139";"2014-10-16 11:16:21.946";"1";;"0";"1";;"176";"175";"module.devaluation_block1.exec-1352.deval1";"5844";"2014-10-16 11:14:43.057";"12";"9";"9";"9";"987";"887";"938";"2014-10-16 11:14:37.207";"2";;;;;;;;;;;;;;;;;;;;;;;;;;;;;;;;;;;;;;;;;;;;;;;;;;;;;;;;;;;;;;;;;;;;;;;;;;;;;;;;
"C1412569";"1996";;"Windows 7";"Rachel's Experiment (D.T.)";"1.0";"2";"1";"1";"2";"2";"2";"2014-10-16 11:03:27.139";"2014-10-16 11:16:21.946";"1";;"0";"1";;"177";"176";"module.devaluation_block1.exec-1352.deval1";"8253";"2014-10-16 11:14:51.325";"20";"3";"1";"1";"2146";"1874";"1198";"2014-10-16 11:14:43.073";"3";;;;;;;;;;;;;;;;;;;;;;;;;;;;;;;;;;;;;;;;;;;;;;;;;;;;;;;;;;;;;;;;;;;;;;;;;;;;;;;;
"C1412569";"1996";;"Windows 7";"Rachel's Experiment (D.T.)";"1.0";"2";"1";"1";"2";"2";"2";"2014-10-16 11:03:27.139";"2014-10-16 11:16:21.946";"1";;"0";"1";;"178";"177";"module.devaluation_block1.exec-1352.deval1";"7412";"2014-10-16 11:14:58.751";"6";"9";"6";"7";"1574";"991";"1819";"2014-10-16 11:14:51.341";"1";;;;;;;;;;;;;;;;;;;;;;;;;;;;;;;;;;;;;;;;;;;;;;;;;;;;;;;;;;;;;;;;;;;;;;;;;;;;;;;;
"C1412569";"1996";;"Windows 7";"Rachel's Experiment (D.T.)";"1.0";"2";"1";"1";"2";"2";"2";"2014-10-16 11:03:27.139";"2014-10-16 11:16:21.946";"1";;"0";"1";;"179";"178";"module.devaluation_block1.exec-1352.deval1";"6523";"2014-10-16 11:15:05.303";"25";"9";"5";"5";"1508";"1326";"672";"2014-10-16 11:14:58.766";"3";;;;;;;;;;;;;;;;;;;;;;;;;;;;;;;;;;;;;;;;;;;;;;;;;;;;;;;;;;;;;;;;;;;;;;;;;;;;;;;;
"C1412569";"1996";;"Windows 7";"Rachel's Experiment (D.T.)";"1.0";"2";"1";"1";"2";"2";"2";"2014-10-16 11:03:27.139";"2014-10-16 11:16:21.946";"1";;"0";"1";;"180";"179";"module.devaluation_block1.exec-1352.deval1";"7787";"2014-10-16 11:15:13.103";"11";"2";"3";"7";"1572";"2099";"1089";"2014-10-16 11:15:05.318";"2";;;;;;;;;;;;;;;;;;;;;;;;;;;;;;;;;;;;;;;;;;;;;;;;;;;;;;;;;;;;;;;;;;;;;;;;;;;;;;;;
"C1412569";"1996";;"Windows 7";"Rachel's Experiment (D.T.)";"1.0";"2";"1";"1";"2";"2";"2";"2014-10-16 11:03:27.139";"2014-10-16 11:16:21.946";"1";;"0";"1";;"181";"180";"module.devaluation_block1.exec-1352.deval1";"6371";"2014-10-16 11:15:19.499";"21";"9";"8";"7";"1076";"971";"1285";"2014-10-16 11:15:13.134";"3";;;;;;;;;;;;;;;;;;;;;;;;;;;;;;;;;;;;;;;;;;;;;;;;;;;;;;;;;;;;;;;;;;;;;;;;;;;;;;;;
"C1412569";"1996";;"Windows 7";"Rachel's Experiment (D.T.)";"1.0";"2";"1";"1";"2";"2";"2";"2014-10-16 11:03:27.139";"2014-10-16 11:16:21.946";"1";;"0";"1";;"182";"181";"module.devaluation_block1.exec-1352.deval1";"5883";"2014-10-16 11:15:25.395";"8";"9";"7";"8";"1008";"884";"975";"2014-10-16 11:15:19.514";"1";;;;;;;;;;;;;;;;;;;;;;;;;;;;;;;;;;;;;;;;;;;;;;;;;;;;;;;;;;;;;;;;;;;;;;;;;;;;;;;;
"C1412569";"1996";;"Windows 7";"Rachel's Experiment (D.T.)";"1.0";"2";"1";"1";"2";"2";"2";"2014-10-16 11:03:27.139";"2014-10-16 11:16:21.946";"1";;"0";"1";;"183";"182";"module.devaluation_block1.exec-1352.deval1";"6692";"2014-10-16 11:15:32.119";"3";"9";"8";"9";"1159";"1232";"1274";"2014-10-16 11:15:25.427";"1";;;;;;;;;;;;;;;;;;;;;;;;;;;;;;;;;;;;;;;;;;;;;;;;;;;;;;;;;;;;;;;;;;;;;;;;;;;;;;;;
"C1412569";"1996";;"Windows 7";"Rachel's Experiment (D.T.)";"1.0";"2";"1";"1";"2";"2";"2";"2014-10-16 11:03:27.139";"2014-10-16 11:16:21.946";"1";;"0";"1";;"184";"183";"module.devaluation_block1.exec-1352.deval1";"6691";"2014-10-16 11:15:38.827";"19";"3";"9";"9";"868";"1532";"1263";"2014-10-16 11:15:32.135";"3";;;;;;;;;;;;;;;;;;;;;;;;;;;;;;;;;;;;;;;;;;;;;;;;;;;;;;;;;;;;;;;;;;;;;;;;;;;;;;;;
"C1412569";"1996";;"Windows 7";"Rachel's Experiment (D.T.)";"1.0";"2";"1";"1";"2";"2";"2";"2014-10-16 11:03:27.139";"2014-10-16 11:16:21.946";"1";;"0";"1";;"185";"184";"module.devaluation_block1.exec-1352.deval1";"6443";"2014-10-16 11:15:45.285";"23";"9";"9";"7";"1383";"1148";"888";"2014-10-16 11:15:38.843";"3";;;;;;;;;;;;;;;;;;;;;;;;;;;;;;;;;;;;;;;;;;;;;;;;;;;;;;;;;;;;;;;;;;;;;;;;;;;;;;;;
"C1412569";"1996";;"Windows 7";"Rachel's Experiment (D.T.)";"1.0";"2";"1";"1";"2";"2";"2";"2014-10-16 11:03:27.139";"2014-10-16 11:16:21.946";"1";;"0";"1";;"186";"185";"module.devaluation_block1.exec-1352.deval1";"8435";"2014-10-16 11:15:53.741";"15";"2";"1";"1";"1949";"1960";"1485";"2014-10-16 11:15:45.317";"2";;;;;;;;;;;;;;;;;;;;;;;;;;;;;;;;;;;;;;;;;;;;;;;;;;;;;;;;;;;;;;;;;;;;;;;;;;;;;;;;
"C1412569";"1996";;"Windows 7";"Rachel's Experiment (D.T.)";"1.0";"2";"1";"1";"2";"2";"2";"2014-10-16 11:03:27.139";"2014-10-16 11:16:21.946";"1";;"0";"1";;"187";"186";"module.devaluation_block1.exec-1352.deval1";"6623";"2014-10-16 11:16:00.386";"22";"7";"7";"8";"1078";"979";"1535";"2014-10-16 11:15:53.772";"3";;;;;;;;;;;;;;;;;;;;;;;;;;;;;;;;;;;;;;;;;;;;;;;;;;;;;;;;;;;;;;;;;;;;;;;;;;;;;;;;
"C1412569";"1996";;"Windows 7";"Rachel's Experiment (D.T.)";"1.0";"2";"1";"1";"2";"2";"2";"2014-10-16 11:03:27.139";"2014-10-16 11:16:21.946";"1";;"0";"1";;"188";"187";"module.devaluation_block1.exec-1352.deval1";"6121";"2014-10-16 11:16:06.533";"10";"9";"8";"7";"1144";"1086";"855";"2014-10-16 11:16:00.418";"2";;;;;;;;;;;;;;;;;;;;;;;;;;;;;;;;;;;;;;;;;;;;;;;;;;;;;;;;;;;;;;;;;;;;;;;;;;;;;;;;
"C1412569";"1996";;"Windows 7";"Rachel's Experiment (D.T.)";"1.0";"2";"1";"1";"2";"2";"2";"2014-10-16 11:03:27.139";"2014-10-16 11:16:21.946";"1";;"0";"1";;"189";"188";"module.devaluation_block1.exec-1352.deval1";"5971";"2014-10-16 11:16:12.523";"26";"9";"7";"6";"1310";"978";"645";"2014-10-16 11:16:06.564";"3";;;;;;;;;;;;;;;;;;;;;;;;;;;;;;;;;;;;;;;;;;;;;;;;;;;;;;;;;;;;;;;;;;;;;;;;;;;;;;;;
"C1412569";"1996";;"Windows 7";"Rachel's Experiment (D.T.)";"1.0";"2";"1";"1";"2";"2";"2";"2014-10-16 11:03:27.139";"2014-10-16 11:16:21.946";"1";;"0";"1";;"190";"189";"module.devaluation_block1.exec-1352.deval1";"7987";"2014-10-16 11:16:20.542";"5";"8";"3";"7";"2008";"1857";"1104";"2014-10-16 11:16:12.554";"1";;;;;;;;;;;;;;;;;;;;;;;;;;;;;;;;;;;;;;;;;;;;;;;;;;;;;;;;;;;;;;;;;;;;;;;;;;;;;;;;
