"user.name";"user.yearOfBirth";"user.sex";"user.osName";"module.name";"module.version";"module.online.subject.code";"module.online.study.id";"module.online.module.nr";"module.online.group.nr";"session.id";"session.index";"session.startTime";"session.endTime";"session.completed";"session.node-3901.DevalQorder";"session.node-4999.conditionType";"trial.id";"trial.index";"trial.name";"trial.deval1.durationTime";"trial.deval1.endTime";"trial.deval1.icon";"trial.deval1.Resp_Attractive";"trial.deval1.Resp_Eat";"trial.deval1.Resp_Taste";"trial.deval1.RT_Attractive";"trial.deval1.RT_Eat";"trial.deval1.RT_Taste";"trial.deval1.startTime";"trial.deval1.stimulus type";"trial.devalPractice.durationTime";"trial.devalPractice.endTime";"trial.devalPractice.icon";"trial.devalPractice.Resp_Attractive";"trial.devalPractice.Resp_Eat";"trial.devalPractice.Resp_Taste";"trial.devalPractice.RT_Attractive";"trial.devalPractice.RT_Eat";"trial.devalPractice.RT_Taste";"trial.devalPractice.startTime";"trial.devalPractice.stimulus type";"trial.GoNoGo1.durationTime";"trial.GoNoGo1.endTime";"trial.GoNoGo1.Error Type";"trial.GoNoGo1.icon";"trial.GoNoGo1.location";"trial.GoNoGo1.outcome";"trial.GoNoGo1.response";"trial.GoNoGo1.result";"trial.GoNoGo1.RT";"trial.GoNoGo1.signal";"trial.GoNoGo1.startTime";"trial.GoNoGo1.stimulus type";"trial.GoNoGo2.durationTime";"trial.GoNoGo2.endTime";"trial.GoNoGo2.Error Type";"trial.GoNoGo2.icon";"trial.GoNoGo2.location";"trial.GoNoGo2.outcome";"trial.GoNoGo2.response";"trial.GoNoGo2.result";"trial.GoNoGo2.RT";"trial.GoNoGo2.signal";"trial.GoNoGo2.startTime";"trial.GoNoGo2.stimulus type";"trial.GoNoGo3.durationTime";"trial.GoNoGo3.endTime";"trial.GoNoGo3.Error Type";"trial.GoNoGo3.icon";"trial.GoNoGo3.location";"trial.GoNoGo3.outcome";"trial.GoNoGo3.response";"trial.GoNoGo3.result";"trial.GoNoGo3.RT";"trial.GoNoGo3.signal";"trial.GoNoGo3.startTime";"trial.GoNoGo3.stimulus type";"trial.GoNoGo4.durationTime";"trial.GoNoGo4.endTime";"trial.GoNoGo4.Error Type";"trial.GoNoGo4.icon";"trial.GoNoGo4.location";"trial.GoNoGo4.outcome";"trial.GoNoGo4.response";"trial.GoNoGo4.result";"trial.GoNoGo4.RT";"trial.GoNoGo4.signal";"trial.GoNoGo4.startTime";"trial.GoNoGo4.stimulus type";"trial.GoNoGo_Practice.durationTime";"trial.GoNoGo_Practice.endTime";"trial.GoNoGo_Practice.icon";"trial.GoNoGo_Practice.location";"trial.GoNoGo_Practice.outcome";"trial.GoNoGo_Practice.response";"trial.GoNoGo_Practice.result";"trial.GoNoGo_Practice.RT";"trial.GoNoGo_Practice.signal";"trial.GoNoGo_Practice.startTime";"trial.GoNoGo_Practice.stimulus type";"trial.GoNoGo_Tutorial.durationTime";"trial.GoNoGo_Tutorial.endTime";"trial.GoNoGo_Tutorial.icon";"trial.GoNoGo_Tutorial.location";"trial.GoNoGo_Tutorial.outcome";"trial.GoNoGo_Tutorial.response";"trial.GoNoGo_Tutorial.result";"trial.GoNoGo_Tutorial.RT";"trial.GoNoGo_Tutorial.signal";"trial.GoNoGo_Tutorial.startTime"
"brody1995";;;"Windows 7";"Rachel's Experiment (D.T.)";"1.0";"2";"1";"1";"2";"1";"1";"2014-10-16 11:24:22.962";"2014-10-16 11:37:28.127";"1";"0";"0";"1";"0";"module.GoNoGotutorial.exec-2340.GoNoGo_Tutorial";;;;;;;;;;;;;;;;;;;;;;;;;;;;;;;;;;;;;;;;;;;;;;;;;;;;;;;;;;;;;;;;;;;;;;;;;;;;;;;;;;"3995";"2014-10-16 11:25:11.712";"leftResponse";"0";"FINISHED";"LEFT";"success";"632";"0";"2014-10-16 11:25:07.702"
"brody1995";;;"Windows 7";"Rachel's Experiment (D.T.)";"1.0";"2";"1";"1";"2";"1";"1";"2014-10-16 11:24:22.962";"2014-10-16 11:37:28.127";"1";"0";"0";"2";"1";"module.GoNoGotutorial.exec-2340.GoNoGo_Tutorial";;;;;;;;;;;;;;;;;;;;;;;;;;;;;;;;;;;;;;;;;;;;;;;;;;;;;;;;;;;;;;;;;;;;;;;;;;;;;;;;;;"4008";"2014-10-16 11:25:17.031";"rightResponse";"1";"FINISHED";"RIGHT";"success";"1237";"0";"2014-10-16 11:25:13.022"
"brody1995";;;"Windows 7";"Rachel's Experiment (D.T.)";"1.0";"2";"1";"1";"2";"1";"1";"2014-10-16 11:24:22.962";"2014-10-16 11:37:28.127";"1";"0";"0";"3";"2";"module.GoNoGotutorial.exec-2340.GoNoGo_Tutorial";;;;;;;;;;;;;;;;;;;;;;;;;;;;;;;;;;;;;;;;;;;;;;;;;;;;;;;;;;;;;;;;;;;;;;;;;;;;;;;;;;"4003";"2014-10-16 11:25:22.335";"quickResponse";"0";"FINISHED";"RIGHT";"failure";"1976";"0";"2014-10-16 11:25:18.326"
"brody1995";;;"Windows 7";"Rachel's Experiment (D.T.)";"1.0";"2";"1";"1";"2";"1";"1";"2014-10-16 11:24:22.962";"2014-10-16 11:37:28.127";"1";"0";"0";"4";"3";"module.GoNoGopractice.exec-7898.GoNoGo_Practice";;;;;;;;;;;;;;;;;;;;;;;;;;;;;;;;;;;;;;;;;;;;;;;;;;;;;;;;;;;;;;;;;;;;;;;"1959";"2014-10-16 11:25:31.024";"18";"0";"FINISHED";"LEFT";"success";"314";"0";"2014-10-16 11:25:29.059";"3";;;;;;;;;;
"brody1995";;;"Windows 7";"Rachel's Experiment (D.T.)";"1.0";"2";"1";"1";"2";"1";"1";"2014-10-16 11:24:22.962";"2014-10-16 11:37:28.127";"1";"0";"0";"5";"4";"module.GoNoGopractice.exec-7898.GoNoGo_Practice";;;;;;;;;;;;;;;;;;;;;;;;;;;;;;;;;;;;;;;;;;;;;;;;;;;;;;;;;;;;;;;;;;;;;;;"1959";"2014-10-16 11:25:34.269";"21";"1";"FINISHED";"RIGHT";"success";"334";"0";"2014-10-16 11:25:32.304";"3";;;;;;;;;;
"brody1995";;;"Windows 7";"Rachel's Experiment (D.T.)";"1.0";"2";"1";"1";"2";"1";"1";"2014-10-16 11:24:22.962";"2014-10-16 11:37:28.127";"1";"0";"0";"6";"5";"module.GoNoGopractice.exec-7898.GoNoGo_Practice";;;;;;;;;;;;;;;;;;;;;;;;;;;;;;;;;;;;;;;;;;;;;;;;;;;;;;;;;;;;;;;;;;;;;;;"1959";"2014-10-16 11:25:37.514";"14";"1";"FINISHED";"RIGHT";"success";"305";"0";"2014-10-16 11:25:35.548";"2";;;;;;;;;;
"brody1995";;;"Windows 7";"Rachel's Experiment (D.T.)";"1.0";"2";"1";"1";"2";"1";"1";"2014-10-16 11:24:22.962";"2014-10-16 11:37:28.127";"1";"0";"0";"7";"6";"module.GoNoGopractice.exec-7898.GoNoGo_Practice";;;;;;;;;;;;;;;;;;;;;;;;;;;;;;;;;;;;;;;;;;;;;;;;;;;;;;;;;;;;;;;;;;;;;;;"1959";"2014-10-16 11:25:40.759";"26";"0";"FINISHED";"LEFT";"success";"316";"0";"2014-10-16 11:25:38.793";"3";;;;;;;;;;
"brody1995";;;"Windows 7";"Rachel's Experiment (D.T.)";"1.0";"2";"1";"1";"2";"1";"1";"2014-10-16 11:24:22.962";"2014-10-16 11:37:28.127";"1";"0";"0";"8";"7";"module.GoNoGopractice.exec-7898.GoNoGo_Practice";;;;;;;;;;;;;;;;;;;;;;;;;;;;;;;;;;;;;;;;;;;;;;;;;;;;;;;;;;;;;;;;;;;;;;;"1959";"2014-10-16 11:25:44.004";"2";"0";"FINISHED";"LEFT";"success";"400";"0";"2014-10-16 11:25:42.038";"1";;;;;;;;;;
"brody1995";;;"Windows 7";"Rachel's Experiment (D.T.)";"1.0";"2";"1";"1";"2";"1";"1";"2014-10-16 11:24:22.962";"2014-10-16 11:37:28.127";"1";"0";"0";"9";"8";"module.GoNoGopractice.exec-7898.GoNoGo_Practice";;;;;;;;;;;;;;;;;;;;;;;;;;;;;;;;;;;;;;;;;;;;;;;;;;;;;;;;;;;;;;;;;;;;;;;"1960";"2014-10-16 11:25:47.248";"30";"0";"FINISHED";"LEFT";"success";"323";"0";"2014-10-16 11:25:45.283";"3";;;;;;;;;;
"brody1995";;;"Windows 7";"Rachel's Experiment (D.T.)";"1.0";"2";"1";"1";"2";"1";"1";"2014-10-16 11:24:22.962";"2014-10-16 11:37:28.127";"1";"0";"0";"10";"9";"module.GoNoGopractice.exec-7898.GoNoGo_Practice";;;;;;;;;;;;;;;;;;;;;;;;;;;;;;;;;;;;;;;;;;;;;;;;;;;;;;;;;;;;;;;;;;;;;;;"1959";"2014-10-16 11:25:50.493";"6";"1";"FINISHED";"RIGHT";"success";"318";"0";"2014-10-16 11:25:48.528";"1";;;;;;;;;;
"brody1995";;;"Windows 7";"Rachel's Experiment (D.T.)";"1.0";"2";"1";"1";"2";"1";"1";"2014-10-16 11:24:22.962";"2014-10-16 11:37:28.127";"1";"0";"0";"11";"10";"module.GoNoGopractice.exec-7898.GoNoGo_Practice";;;;;;;;;;;;;;;;;;;;;;;;;;;;;;;;;;;;;;;;;;;;;;;;;;;;;;;;;;;;;;;;;;;;;;;"1960";"2014-10-16 11:25:53.754";"34";"0";"FINISHED";"LEFT";"success";"331";"0";"2014-10-16 11:25:51.788";"3";;;;;;;;;;
"brody1995";;;"Windows 7";"Rachel's Experiment (D.T.)";"1.0";"2";"1";"1";"2";"1";"1";"2014-10-16 11:24:22.962";"2014-10-16 11:37:28.127";"1";"0";"0";"12";"11";"module.GoNoGopractice.exec-7898.GoNoGo_Practice";;;;;;;;;;;;;;;;;;;;;;;;;;;;;;;;;;;;;;;;;;;;;;;;;;;;;;;;;;;;;;;;;;;;;;;"1959";"2014-10-16 11:25:56.999";"23";"1";"FINISHED";"RIGHT";"success";"269";"0";"2014-10-16 11:25:55.033";"3";;;;;;;;;;
"brody1995";;;"Windows 7";"Rachel's Experiment (D.T.)";"1.0";"2";"1";"1";"2";"1";"1";"2014-10-16 11:24:22.962";"2014-10-16 11:37:28.127";"1";"0";"0";"13";"12";"module.GoNoGopractice.exec-7898.GoNoGo_Practice";;;;;;;;;;;;;;;;;;;;;;;;;;;;;;;;;;;;;;;;;;;;;;;;;;;;;;;;;;;;;;;;;;;;;;;"1959";"2014-10-16 11:26:00.243";"13";"0";"FINISHED";"LEFT";"success";"304";"0";"2014-10-16 11:25:58.278";"2";;;;;;;;;;
"brody1995";;;"Windows 7";"Rachel's Experiment (D.T.)";"1.0";"2";"1";"1";"2";"1";"1";"2014-10-16 11:24:22.962";"2014-10-16 11:37:28.127";"1";"0";"0";"14";"13";"module.GoNoGopractice.exec-7898.GoNoGo_Practice";;;;;;;;;;;;;;;;;;;;;;;;;;;;;;;;;;;;;;;;;;;;;;;;;;;;;;;;;;;;;;;;;;;;;;;"1959";"2014-10-16 11:26:03.488";"3";"1";"FINISHED";"RIGHT";"success";"315";"0";"2014-10-16 11:26:01.523";"1";;;;;;;;;;
"brody1995";;;"Windows 7";"Rachel's Experiment (D.T.)";"1.0";"2";"1";"1";"2";"1";"1";"2014-10-16 11:24:22.962";"2014-10-16 11:37:28.127";"1";"0";"0";"15";"14";"module.GoNoGopractice.exec-7898.GoNoGo_Practice";;;;;;;;;;;;;;;;;;;;;;;;;;;;;;;;;;;;;;;;;;;;;;;;;;;;;;;;;;;;;;;;;;;;;;;"1959";"2014-10-16 11:26:06.733";"27";"1";"FINISHED";"RIGHT";"success";"375";"0";"2014-10-16 11:26:04.767";"3";;;;;;;;;;
"brody1995";;;"Windows 7";"Rachel's Experiment (D.T.)";"1.0";"2";"1";"1";"2";"1";"1";"2014-10-16 11:24:22.962";"2014-10-16 11:37:28.127";"1";"0";"0";"16";"15";"module.training_block1.exec-7759.GoNoGo1";;;;;;;;;;;;;;;;;;;;;;;"1256";"2014-10-16 11:26:14.174";"NST_correctLoc";"17";"0";"FINISHED";"LEFT";"success";"318";"0";"2014-10-16 11:26:12.911";"2";;;;;;;;;;;;;;;;;;;;;;;;;;;;;;;;;;;;;;;;;;;;;;;;;;;;;;;;;
"brody1995";;;"Windows 7";"Rachel's Experiment (D.T.)";"1.0";"2";"1";"1";"2";"1";"1";"2014-10-16 11:24:22.962";"2014-10-16 11:37:28.127";"1";"0";"0";"17";"16";"module.training_block1.exec-7759.GoNoGo1";;;;;;;;;;;;;;;;;;;;;;;"1261";"2014-10-16 11:26:16.717";"NST_correctLoc";"13";"0";"FINISHED";"LEFT";"success";"332";"0";"2014-10-16 11:26:15.453";"2";;;;;;;;;;;;;;;;;;;;;;;;;;;;;;;;;;;;;;;;;;;;;;;;;;;;;;;;;
"brody1995";;;"Windows 7";"Rachel's Experiment (D.T.)";"1.0";"2";"1";"1";"2";"1";"1";"2014-10-16 11:24:22.962";"2014-10-16 11:37:28.127";"1";"0";"0";"18";"17";"module.training_block1.exec-7759.GoNoGo1";;;;;;;;;;;;;;;;;;;;;;;"1257";"2014-10-16 11:26:19.260";"NST_correctLoc";"16";"1";"FINISHED";"RIGHT";"success";"353";"0";"2014-10-16 11:26:17.996";"2";;;;;;;;;;;;;;;;;;;;;;;;;;;;;;;;;;;;;;;;;;;;;;;;;;;;;;;;;
"brody1995";;;"Windows 7";"Rachel's Experiment (D.T.)";"1.0";"2";"1";"1";"2";"1";"1";"2014-10-16 11:24:22.962";"2014-10-16 11:37:28.127";"1";"0";"0";"19";"18";"module.training_block1.exec-7759.GoNoGo1";;;;;;;;;;;;;;;;;;;;;;;"1258";"2014-10-16 11:26:21.803";"NST_correctLoc";"9";"1";"FINISHED";"RIGHT";"success";"363";"0";"2014-10-16 11:26:20.539";"2";;;;;;;;;;;;;;;;;;;;;;;;;;;;;;;;;;;;;;;;;;;;;;;;;;;;;;;;;
"brody1995";;;"Windows 7";"Rachel's Experiment (D.T.)";"1.0";"2";"1";"1";"2";"1";"1";"2014-10-16 11:24:22.962";"2014-10-16 11:37:28.127";"1";"0";"0";"20";"19";"module.training_block1.exec-7759.GoNoGo1";;;;;;;;;;;;;;;;;;;;;;;"1258";"2014-10-16 11:26:24.345";"NST_correctLoc";"5";"0";"FINISHED";"LEFT";"success";"316";"0";"2014-10-16 11:26:23.082";"1";;;;;;;;;;;;;;;;;;;;;;;;;;;;;;;;;;;;;;;;;;;;;;;;;;;;;;;;;
"brody1995";;;"Windows 7";"Rachel's Experiment (D.T.)";"1.0";"2";"1";"1";"2";"1";"1";"2014-10-16 11:24:22.962";"2014-10-16 11:37:28.127";"1";"0";"0";"21";"20";"module.training_block1.exec-7759.GoNoGo1";;;;;;;;;;;;;;;;;;;;;;;"1257";"2014-10-16 11:26:26.888";"NST_correctLoc";"4";"0";"FINISHED";"LEFT";"success";"341";"0";"2014-10-16 11:26:25.625";"1";;;;;;;;;;;;;;;;;;;;;;;;;;;;;;;;;;;;;;;;;;;;;;;;;;;;;;;;;
"brody1995";;;"Windows 7";"Rachel's Experiment (D.T.)";"1.0";"2";"1";"1";"2";"1";"1";"2014-10-16 11:24:22.962";"2014-10-16 11:37:28.127";"1";"0";"0";"22";"21";"module.training_block1.exec-7759.GoNoGo1";;;;;;;;;;;;;;;;;;;;;;;"1261";"2014-10-16 11:26:29.431";"NST_correctLoc";"21";"0";"FINISHED";"LEFT";"success";"346";"0";"2014-10-16 11:26:28.167";"3";;;;;;;;;;;;;;;;;;;;;;;;;;;;;;;;;;;;;;;;;;;;;;;;;;;;;;;;;
"brody1995";;;"Windows 7";"Rachel's Experiment (D.T.)";"1.0";"2";"1";"1";"2";"1";"1";"2014-10-16 11:24:22.962";"2014-10-16 11:37:28.127";"1";"0";"0";"23";"22";"module.training_block1.exec-7759.GoNoGo1";;;;;;;;;;;;;;;;;;;;;;;"1257";"2014-10-16 11:26:31.974";"NST_correctLoc";"0";"1";"FINISHED";"RIGHT";"success";"311";"0";"2014-10-16 11:26:30.710";"1";;;;;;;;;;;;;;;;;;;;;;;;;;;;;;;;;;;;;;;;;;;;;;;;;;;;;;;;;
"brody1995";;;"Windows 7";"Rachel's Experiment (D.T.)";"1.0";"2";"1";"1";"2";"1";"1";"2014-10-16 11:24:22.962";"2014-10-16 11:37:28.127";"1";"0";"0";"24";"23";"module.training_block1.exec-7759.GoNoGo1";;;;;;;;;;;;;;;;;;;;;;;"1256";"2014-10-16 11:26:34.610";"NST_correctLoc";"20";"0";"FINISHED";"LEFT";"success";"289";"0";"2014-10-16 11:26:33.347";"3";;;;;;;;;;;;;;;;;;;;;;;;;;;;;;;;;;;;;;;;;;;;;;;;;;;;;;;;;
"brody1995";;;"Windows 7";"Rachel's Experiment (D.T.)";"1.0";"2";"1";"1";"2";"1";"1";"2014-10-16 11:24:22.962";"2014-10-16 11:37:28.127";"1";"0";"0";"25";"24";"module.training_block1.exec-7759.GoNoGo1";;;;;;;;;;;;;;;;;;;;;;;"1258";"2014-10-16 11:26:37.153";"NST_correctLoc";"2";"1";"FINISHED";"RIGHT";"success";"316";"0";"2014-10-16 11:26:35.889";"1";;;;;;;;;;;;;;;;;;;;;;;;;;;;;;;;;;;;;;;;;;;;;;;;;;;;;;;;;
"brody1995";;;"Windows 7";"Rachel's Experiment (D.T.)";"1.0";"2";"1";"1";"2";"1";"1";"2014-10-16 11:24:22.962";"2014-10-16 11:37:28.127";"1";"0";"0";"26";"25";"module.training_block1.exec-7759.GoNoGo1";;;;;;;;;;;;;;;;;;;;;;;"1258";"2014-10-16 11:26:39.696";"NST_correctLoc";"25";"0";"FINISHED";"LEFT";"success";"350";"0";"2014-10-16 11:26:38.432";"3";;;;;;;;;;;;;;;;;;;;;;;;;;;;;;;;;;;;;;;;;;;;;;;;;;;;;;;;;
"brody1995";;;"Windows 7";"Rachel's Experiment (D.T.)";"1.0";"2";"1";"1";"2";"1";"1";"2014-10-16 11:24:22.962";"2014-10-16 11:37:28.127";"1";"0";"0";"27";"26";"module.training_block1.exec-7759.GoNoGo1";;;;;;;;;;;;;;;;;;;;;;;"1257";"2014-10-16 11:26:42.239";"NST_correctLoc";"31";"1";"FINISHED";"RIGHT";"success";"327";"0";"2014-10-16 11:26:40.975";"3";;;;;;;;;;;;;;;;;;;;;;;;;;;;;;;;;;;;;;;;;;;;;;;;;;;;;;;;;
"brody1995";;;"Windows 7";"Rachel's Experiment (D.T.)";"1.0";"2";"1";"1";"2";"1";"1";"2014-10-16 11:24:22.962";"2014-10-16 11:37:28.127";"1";"0";"0";"28";"27";"module.training_block1.exec-7759.GoNoGo1";;;;;;;;;;;;;;;;;;;;;;;"1258";"2014-10-16 11:26:44.781";"NST_correctLoc";"19";"0";"FINISHED";"LEFT";"success";"336";"0";"2014-10-16 11:26:43.518";"3";;;;;;;;;;;;;;;;;;;;;;;;;;;;;;;;;;;;;;;;;;;;;;;;;;;;;;;;;
"brody1995";;;"Windows 7";"Rachel's Experiment (D.T.)";"1.0";"2";"1";"1";"2";"1";"1";"2014-10-16 11:24:22.962";"2014-10-16 11:37:28.127";"1";"0";"0";"29";"28";"module.training_block1.exec-7759.GoNoGo1";;;;;;;;;;;;;;;;;;;;;;;"1258";"2014-10-16 11:26:47.324";"NST_correctLoc";"12";"1";"FINISHED";"RIGHT";"success";"377";"0";"2014-10-16 11:26:46.061";"2";;;;;;;;;;;;;;;;;;;;;;;;;;;;;;;;;;;;;;;;;;;;;;;;;;;;;;;;;
"brody1995";;;"Windows 7";"Rachel's Experiment (D.T.)";"1.0";"2";"1";"1";"2";"1";"1";"2014-10-16 11:24:22.962";"2014-10-16 11:37:28.127";"1";"0";"0";"30";"29";"module.training_block1.exec-7759.GoNoGo1";;;;;;;;;;;;;;;;;;;;;;;"1257";"2014-10-16 11:26:49.867";"NST_correctLoc";"27";"0";"FINISHED";"LEFT";"success";"298";"0";"2014-10-16 11:26:48.603";"3";;;;;;;;;;;;;;;;;;;;;;;;;;;;;;;;;;;;;;;;;;;;;;;;;;;;;;;;;
"brody1995";;;"Windows 7";"Rachel's Experiment (D.T.)";"1.0";"2";"1";"1";"2";"1";"1";"2014-10-16 11:24:22.962";"2014-10-16 11:37:28.127";"1";"0";"0";"31";"30";"module.training_block1.exec-7759.GoNoGo1";;;;;;;;;;;;;;;;;;;;;;;"1258";"2014-10-16 11:26:52.410";"NST_correctLoc";"33";"0";"FINISHED";"LEFT";"success";"348";"0";"2014-10-16 11:26:51.146";"3";;;;;;;;;;;;;;;;;;;;;;;;;;;;;;;;;;;;;;;;;;;;;;;;;;;;;;;;;
"brody1995";;;"Windows 7";"Rachel's Experiment (D.T.)";"1.0";"2";"1";"1";"2";"1";"1";"2014-10-16 11:24:22.962";"2014-10-16 11:37:28.127";"1";"0";"0";"32";"31";"module.training_block1.exec-7759.GoNoGo1";;;;;;;;;;;;;;;;;;;;;;;"1257";"2014-10-16 11:26:54.953";"NST_correctLoc";"23";"0";"FINISHED";"LEFT";"success";"308";"0";"2014-10-16 11:26:53.689";"3";;;;;;;;;;;;;;;;;;;;;;;;;;;;;;;;;;;;;;;;;;;;;;;;;;;;;;;;;
"brody1995";;;"Windows 7";"Rachel's Experiment (D.T.)";"1.0";"2";"1";"1";"2";"1";"1";"2014-10-16 11:24:22.962";"2014-10-16 11:37:28.127";"1";"0";"0";"33";"32";"module.training_block1.exec-7759.GoNoGo1";;;;;;;;;;;;;;;;;;;;;;;"1257";"2014-10-16 11:26:57.495";"NST_correctLoc";"10";"1";"FINISHED";"RIGHT";"success";"278";"0";"2014-10-16 11:26:56.232";"2";;;;;;;;;;;;;;;;;;;;;;;;;;;;;;;;;;;;;;;;;;;;;;;;;;;;;;;;;
"brody1995";;;"Windows 7";"Rachel's Experiment (D.T.)";"1.0";"2";"1";"1";"2";"1";"1";"2014-10-16 11:24:22.962";"2014-10-16 11:37:28.127";"1";"0";"0";"34";"33";"module.training_block1.exec-7759.GoNoGo1";;;;;;;;;;;;;;;;;;;;;;;"1258";"2014-10-16 11:27:00.038";"NST_correctLoc";"3";"0";"FINISHED";"LEFT";"success";"320";"0";"2014-10-16 11:26:58.775";"1";;;;;;;;;;;;;;;;;;;;;;;;;;;;;;;;;;;;;;;;;;;;;;;;;;;;;;;;;
"brody1995";;;"Windows 7";"Rachel's Experiment (D.T.)";"1.0";"2";"1";"1";"2";"1";"1";"2014-10-16 11:24:22.962";"2014-10-16 11:37:28.127";"1";"0";"0";"35";"34";"module.training_block1.exec-7759.GoNoGo1";;;;;;;;;;;;;;;;;;;;;;;"1257";"2014-10-16 11:27:02.581";"NST_correctLoc";"32";"1";"FINISHED";"RIGHT";"success";"328";"0";"2014-10-16 11:27:01.317";"3";;;;;;;;;;;;;;;;;;;;;;;;;;;;;;;;;;;;;;;;;;;;;;;;;;;;;;;;;
"brody1995";;;"Windows 7";"Rachel's Experiment (D.T.)";"1.0";"2";"1";"1";"2";"1";"1";"2014-10-16 11:24:22.962";"2014-10-16 11:37:28.127";"1";"0";"0";"36";"35";"module.training_block1.exec-7759.GoNoGo1";;;;;;;;;;;;;;;;;;;;;;;"1256";"2014-10-16 11:27:05.124";"NST_correctLoc";"6";"1";"FINISHED";"RIGHT";"success";"344";"0";"2014-10-16 11:27:03.860";"1";;;;;;;;;;;;;;;;;;;;;;;;;;;;;;;;;;;;;;;;;;;;;;;;;;;;;;;;;
"brody1995";;;"Windows 7";"Rachel's Experiment (D.T.)";"1.0";"2";"1";"1";"2";"1";"1";"2014-10-16 11:24:22.962";"2014-10-16 11:37:28.127";"1";"0";"0";"37";"36";"module.training_block1.exec-7759.GoNoGo1";;;;;;;;;;;;;;;;;;;;;;;"1258";"2014-10-16 11:27:07.667";"NST_correctLoc";"30";"0";"FINISHED";"LEFT";"success";"331";"0";"2014-10-16 11:27:06.403";"3";;;;;;;;;;;;;;;;;;;;;;;;;;;;;;;;;;;;;;;;;;;;;;;;;;;;;;;;;
"brody1995";;;"Windows 7";"Rachel's Experiment (D.T.)";"1.0";"2";"1";"1";"2";"1";"1";"2014-10-16 11:24:22.962";"2014-10-16 11:37:28.127";"1";"0";"0";"38";"37";"module.training_block1.exec-7759.GoNoGo1";;;;;;;;;;;;;;;;;;;;;;;"1258";"2014-10-16 11:27:10.209";"NST_correctLoc";"35";"1";"FINISHED";"RIGHT";"success";"316";"0";"2014-10-16 11:27:08.946";"3";;;;;;;;;;;;;;;;;;;;;;;;;;;;;;;;;;;;;;;;;;;;;;;;;;;;;;;;;
"brody1995";;;"Windows 7";"Rachel's Experiment (D.T.)";"1.0";"2";"1";"1";"2";"1";"1";"2014-10-16 11:24:22.962";"2014-10-16 11:37:28.127";"1";"0";"0";"39";"38";"module.training_block1.exec-7759.GoNoGo1";;;;;;;;;;;;;;;;;;;;;;;"1258";"2014-10-16 11:27:12.752";"NST_correctLoc";"28";"0";"FINISHED";"LEFT";"success";"293";"0";"2014-10-16 11:27:11.489";"3";;;;;;;;;;;;;;;;;;;;;;;;;;;;;;;;;;;;;;;;;;;;;;;;;;;;;;;;;
"brody1995";;;"Windows 7";"Rachel's Experiment (D.T.)";"1.0";"2";"1";"1";"2";"1";"1";"2014-10-16 11:24:22.962";"2014-10-16 11:37:28.127";"1";"0";"0";"40";"39";"module.training_block1.exec-7759.GoNoGo1";;;;;;;;;;;;;;;;;;;;;;;"1258";"2014-10-16 11:27:15.295";"NST_correctLoc";"29";"1";"FINISHED";"RIGHT";"success";"334";"0";"2014-10-16 11:27:14.031";"3";;;;;;;;;;;;;;;;;;;;;;;;;;;;;;;;;;;;;;;;;;;;;;;;;;;;;;;;;
"brody1995";;;"Windows 7";"Rachel's Experiment (D.T.)";"1.0";"2";"1";"1";"2";"1";"1";"2014-10-16 11:24:22.962";"2014-10-16 11:37:28.127";"1";"0";"0";"41";"40";"module.training_block1.exec-7759.GoNoGo1";;;;;;;;;;;;;;;;;;;;;;;"1253";"2014-10-16 11:27:17.838";"NST_correctLoc";"34";"0";"FINISHED";"LEFT";"success";"315";"0";"2014-10-16 11:27:16.574";"3";;;;;;;;;;;;;;;;;;;;;;;;;;;;;;;;;;;;;;;;;;;;;;;;;;;;;;;;;
"brody1995";;;"Windows 7";"Rachel's Experiment (D.T.)";"1.0";"2";"1";"1";"2";"1";"1";"2014-10-16 11:24:22.962";"2014-10-16 11:37:28.127";"1";"0";"0";"42";"41";"module.training_block1.exec-7759.GoNoGo1";;;;;;;;;;;;;;;;;;;;;;;"1258";"2014-10-16 11:27:20.381";"NST_correctLoc";"18";"1";"FINISHED";"RIGHT";"success";"289";"0";"2014-10-16 11:27:19.117";"3";;;;;;;;;;;;;;;;;;;;;;;;;;;;;;;;;;;;;;;;;;;;;;;;;;;;;;;;;
"brody1995";;;"Windows 7";"Rachel's Experiment (D.T.)";"1.0";"2";"1";"1";"2";"1";"1";"2014-10-16 11:24:22.962";"2014-10-16 11:37:28.127";"1";"0";"0";"43";"42";"module.training_block1.exec-7759.GoNoGo1";;;;;;;;;;;;;;;;;;;;;;;"1257";"2014-10-16 11:27:22.923";"NST_correctLoc";"8";"0";"FINISHED";"LEFT";"success";"321";"0";"2014-10-16 11:27:21.660";"1";;;;;;;;;;;;;;;;;;;;;;;;;;;;;;;;;;;;;;;;;;;;;;;;;;;;;;;;;
"brody1995";;;"Windows 7";"Rachel's Experiment (D.T.)";"1.0";"2";"1";"1";"2";"1";"1";"2014-10-16 11:24:22.962";"2014-10-16 11:37:28.127";"1";"0";"0";"44";"43";"module.training_block1.exec-7759.GoNoGo1";;;;;;;;;;;;;;;;;;;;;;;"1257";"2014-10-16 11:27:25.466";"NST_correctLoc";"7";"0";"FINISHED";"LEFT";"success";"362";"0";"2014-10-16 11:27:24.203";"1";;;;;;;;;;;;;;;;;;;;;;;;;;;;;;;;;;;;;;;;;;;;;;;;;;;;;;;;;
"brody1995";;;"Windows 7";"Rachel's Experiment (D.T.)";"1.0";"2";"1";"1";"2";"1";"1";"2014-10-16 11:24:22.962";"2014-10-16 11:37:28.127";"1";"0";"0";"45";"44";"module.training_block1.exec-7759.GoNoGo1";;;;;;;;;;;;;;;;;;;;;;;"1258";"2014-10-16 11:27:28.009";"NST_correctLoc";"22";"0";"FINISHED";"LEFT";"success";"372";"0";"2014-10-16 11:27:26.745";"3";;;;;;;;;;;;;;;;;;;;;;;;;;;;;;;;;;;;;;;;;;;;;;;;;;;;;;;;;
"brody1995";;;"Windows 7";"Rachel's Experiment (D.T.)";"1.0";"2";"1";"1";"2";"1";"1";"2014-10-16 11:24:22.962";"2014-10-16 11:37:28.127";"1";"0";"0";"46";"45";"module.training_block1.exec-7759.GoNoGo1";;;;;;;;;;;;;;;;;;;;;;;"1260";"2014-10-16 11:27:30.552";"NST_correctLoc";"1";"1";"FINISHED";"RIGHT";"success";"320";"0";"2014-10-16 11:27:29.288";"1";;;;;;;;;;;;;;;;;;;;;;;;;;;;;;;;;;;;;;;;;;;;;;;;;;;;;;;;;
"brody1995";;;"Windows 7";"Rachel's Experiment (D.T.)";"1.0";"2";"1";"1";"2";"1";"1";"2014-10-16 11:24:22.962";"2014-10-16 11:37:28.127";"1";"0";"0";"47";"46";"module.training_block1.exec-7759.GoNoGo1";;;;;;;;;;;;;;;;;;;;;;;"1257";"2014-10-16 11:27:33.095";"NST_correctLoc";"26";"1";"FINISHED";"RIGHT";"success";"350";"0";"2014-10-16 11:27:31.831";"3";;;;;;;;;;;;;;;;;;;;;;;;;;;;;;;;;;;;;;;;;;;;;;;;;;;;;;;;;
"brody1995";;;"Windows 7";"Rachel's Experiment (D.T.)";"1.0";"2";"1";"1";"2";"1";"1";"2014-10-16 11:24:22.962";"2014-10-16 11:37:28.127";"1";"0";"0";"48";"47";"module.training_block1.exec-7759.GoNoGo1";;;;;;;;;;;;;;;;;;;;;;;"1256";"2014-10-16 11:27:35.637";"NST_correctLoc";"15";"0";"FINISHED";"LEFT";"success";"294";"0";"2014-10-16 11:27:34.374";"2";;;;;;;;;;;;;;;;;;;;;;;;;;;;;;;;;;;;;;;;;;;;;;;;;;;;;;;;;
"brody1995";;;"Windows 7";"Rachel's Experiment (D.T.)";"1.0";"2";"1";"1";"2";"1";"1";"2014-10-16 11:24:22.962";"2014-10-16 11:37:28.127";"1";"0";"0";"49";"48";"module.training_block1.exec-7759.GoNoGo1";;;;;;;;;;;;;;;;;;;;;;;"1257";"2014-10-16 11:27:38.180";"NST_correctLoc";"14";"0";"FINISHED";"LEFT";"success";"353";"0";"2014-10-16 11:27:36.917";"2";;;;;;;;;;;;;;;;;;;;;;;;;;;;;;;;;;;;;;;;;;;;;;;;;;;;;;;;;
"brody1995";;;"Windows 7";"Rachel's Experiment (D.T.)";"1.0";"2";"1";"1";"2";"1";"1";"2014-10-16 11:24:22.962";"2014-10-16 11:37:28.127";"1";"0";"0";"50";"49";"module.training_block1.exec-7759.GoNoGo1";;;;;;;;;;;;;;;;;;;;;;;"1257";"2014-10-16 11:27:40.723";"NST_correctLoc";"11";"1";"FINISHED";"RIGHT";"success";"330";"0";"2014-10-16 11:27:39.459";"2";;;;;;;;;;;;;;;;;;;;;;;;;;;;;;;;;;;;;;;;;;;;;;;;;;;;;;;;;
"brody1995";;;"Windows 7";"Rachel's Experiment (D.T.)";"1.0";"2";"1";"1";"2";"1";"1";"2014-10-16 11:24:22.962";"2014-10-16 11:37:28.127";"1";"0";"0";"51";"50";"module.training_block1.exec-7759.GoNoGo1";;;;;;;;;;;;;;;;;;;;;;;"1258";"2014-10-16 11:27:43.266";"NST_correctLoc";"24";"0";"FINISHED";"LEFT";"success";"363";"0";"2014-10-16 11:27:42.002";"3";;;;;;;;;;;;;;;;;;;;;;;;;;;;;;;;;;;;;;;;;;;;;;;;;;;;;;;;;
"brody1995";;;"Windows 7";"Rachel's Experiment (D.T.)";"1.0";"2";"1";"1";"2";"1";"1";"2014-10-16 11:24:22.962";"2014-10-16 11:37:28.127";"1";"0";"0";"52";"51";"module.training_block2.exec-7921.GoNoGo2";;;;;;;;;;;;;;;;;;;;;;;;;;;;;;;;;;;"1261";"2014-10-16 11:27:55.200";"NST_correctLoc";"12";"0";"FINISHED";"LEFT";"success";"336";"0";"2014-10-16 11:27:53.936";"2";;;;;;;;;;;;;;;;;;;;;;;;;;;;;;;;;;;;;;;;;;;;;
"brody1995";;;"Windows 7";"Rachel's Experiment (D.T.)";"1.0";"2";"1";"1";"2";"1";"1";"2014-10-16 11:24:22.962";"2014-10-16 11:37:28.127";"1";"0";"0";"53";"52";"module.training_block2.exec-7921.GoNoGo2";;;;;;;;;;;;;;;;;;;;;;;;;;;;;;;;;;;"1261";"2014-10-16 11:27:57.743";"NST_correctLoc";"32";"0";"FINISHED";"LEFT";"success";"322";"0";"2014-10-16 11:27:56.479";"3";;;;;;;;;;;;;;;;;;;;;;;;;;;;;;;;;;;;;;;;;;;;;
"brody1995";;;"Windows 7";"Rachel's Experiment (D.T.)";"1.0";"2";"1";"1";"2";"1";"1";"2014-10-16 11:24:22.962";"2014-10-16 11:37:28.127";"1";"0";"0";"54";"53";"module.training_block2.exec-7921.GoNoGo2";;;;;;;;;;;;;;;;;;;;;;;;;;;;;;;;;;;"1261";"2014-10-16 11:28:00.286";"NST_correctLoc";"20";"0";"FINISHED";"LEFT";"success";"347";"0";"2014-10-16 11:27:59.022";"3";;;;;;;;;;;;;;;;;;;;;;;;;;;;;;;;;;;;;;;;;;;;;
"brody1995";;;"Windows 7";"Rachel's Experiment (D.T.)";"1.0";"2";"1";"1";"2";"1";"1";"2014-10-16 11:24:22.962";"2014-10-16 11:37:28.127";"1";"0";"0";"55";"54";"module.training_block2.exec-7921.GoNoGo2";;;;;;;;;;;;;;;;;;;;;;;;;;;;;;;;;;;"1257";"2014-10-16 11:28:02.828";"NST_correctLoc";"13";"0";"FINISHED";"LEFT";"success";"336";"0";"2014-10-16 11:28:01.565";"2";;;;;;;;;;;;;;;;;;;;;;;;;;;;;;;;;;;;;;;;;;;;;
"brody1995";;;"Windows 7";"Rachel's Experiment (D.T.)";"1.0";"2";"1";"1";"2";"1";"1";"2014-10-16 11:24:22.962";"2014-10-16 11:37:28.127";"1";"0";"0";"56";"55";"module.training_block2.exec-7921.GoNoGo2";;;;;;;;;;;;;;;;;;;;;;;;;;;;;;;;;;;"1257";"2014-10-16 11:28:05.371";"NST_correctLoc";"21";"1";"FINISHED";"RIGHT";"success";"273";"0";"2014-10-16 11:28:04.108";"3";;;;;;;;;;;;;;;;;;;;;;;;;;;;;;;;;;;;;;;;;;;;;
"brody1995";;;"Windows 7";"Rachel's Experiment (D.T.)";"1.0";"2";"1";"1";"2";"1";"1";"2014-10-16 11:24:22.962";"2014-10-16 11:37:28.127";"1";"0";"0";"57";"56";"module.training_block2.exec-7921.GoNoGo2";;;;;;;;;;;;;;;;;;;;;;;;;;;;;;;;;;;"1261";"2014-10-16 11:28:07.914";"NST_correctLoc";"35";"1";"FINISHED";"RIGHT";"success";"318";"0";"2014-10-16 11:28:06.650";"3";;;;;;;;;;;;;;;;;;;;;;;;;;;;;;;;;;;;;;;;;;;;;
"brody1995";;;"Windows 7";"Rachel's Experiment (D.T.)";"1.0";"2";"1";"1";"2";"1";"1";"2014-10-16 11:24:22.962";"2014-10-16 11:37:28.127";"1";"0";"0";"58";"57";"module.training_block2.exec-7921.GoNoGo2";;;;;;;;;;;;;;;;;;;;;;;;;;;;;;;;;;;"1257";"2014-10-16 11:28:10.457";"NST_correctLoc";"5";"1";"FINISHED";"RIGHT";"success";"307";"0";"2014-10-16 11:28:09.193";"1";;;;;;;;;;;;;;;;;;;;;;;;;;;;;;;;;;;;;;;;;;;;;
"brody1995";;;"Windows 7";"Rachel's Experiment (D.T.)";"1.0";"2";"1";"1";"2";"1";"1";"2014-10-16 11:24:22.962";"2014-10-16 11:37:28.127";"1";"0";"0";"59";"58";"module.training_block2.exec-7921.GoNoGo2";;;;;;;;;;;;;;;;;;;;;;;;;;;;;;;;;;;"1257";"2014-10-16 11:28:13.000";"NST_correctLoc";"16";"0";"FINISHED";"LEFT";"success";"333";"0";"2014-10-16 11:28:11.736";"2";;;;;;;;;;;;;;;;;;;;;;;;;;;;;;;;;;;;;;;;;;;;;
"brody1995";;;"Windows 7";"Rachel's Experiment (D.T.)";"1.0";"2";"1";"1";"2";"1";"1";"2014-10-16 11:24:22.962";"2014-10-16 11:37:28.127";"1";"0";"0";"60";"59";"module.training_block2.exec-7921.GoNoGo2";;;;;;;;;;;;;;;;;;;;;;;;;;;;;;;;;;;"1261";"2014-10-16 11:28:15.542";"NST_correctLoc";"18";"1";"FINISHED";"RIGHT";"success";"354";"0";"2014-10-16 11:28:14.279";"3";;;;;;;;;;;;;;;;;;;;;;;;;;;;;;;;;;;;;;;;;;;;;
"brody1995";;;"Windows 7";"Rachel's Experiment (D.T.)";"1.0";"2";"1";"1";"2";"1";"1";"2014-10-16 11:24:22.962";"2014-10-16 11:37:28.127";"1";"0";"0";"61";"60";"module.training_block2.exec-7921.GoNoGo2";;;;;;;;;;;;;;;;;;;;;;;;;;;;;;;;;;;"1261";"2014-10-16 11:28:18.085";"NST_correctLoc";"11";"1";"FINISHED";"RIGHT";"success";"323";"0";"2014-10-16 11:28:16.822";"2";;;;;;;;;;;;;;;;;;;;;;;;;;;;;;;;;;;;;;;;;;;;;
"brody1995";;;"Windows 7";"Rachel's Experiment (D.T.)";"1.0";"2";"1";"1";"2";"1";"1";"2014-10-16 11:24:22.962";"2014-10-16 11:37:28.127";"1";"0";"0";"62";"61";"module.training_block2.exec-7921.GoNoGo2";;;;;;;;;;;;;;;;;;;;;;;;;;;;;;;;;;;"1261";"2014-10-16 11:28:20.628";"NST_correctLoc";"34";"1";"FINISHED";"RIGHT";"success";"388";"0";"2014-10-16 11:28:19.364";"3";;;;;;;;;;;;;;;;;;;;;;;;;;;;;;;;;;;;;;;;;;;;;
"brody1995";;;"Windows 7";"Rachel's Experiment (D.T.)";"1.0";"2";"1";"1";"2";"1";"1";"2014-10-16 11:24:22.962";"2014-10-16 11:37:28.127";"1";"0";"0";"63";"62";"module.training_block2.exec-7921.GoNoGo2";;;;;;;;;;;;;;;;;;;;;;;;;;;;;;;;;;;"1261";"2014-10-16 11:28:23.171";"NST_correctLoc";"33";"1";"FINISHED";"RIGHT";"success";"373";"0";"2014-10-16 11:28:21.907";"3";;;;;;;;;;;;;;;;;;;;;;;;;;;;;;;;;;;;;;;;;;;;;
"brody1995";;;"Windows 7";"Rachel's Experiment (D.T.)";"1.0";"2";"1";"1";"2";"1";"1";"2014-10-16 11:24:22.962";"2014-10-16 11:37:28.127";"1";"0";"0";"64";"63";"module.training_block2.exec-7921.GoNoGo2";;;;;;;;;;;;;;;;;;;;;;;;;;;;;;;;;;;"1261";"2014-10-16 11:28:25.714";"NST_correctLoc";"0";"1";"FINISHED";"RIGHT";"success";"327";"0";"2014-10-16 11:28:24.450";"1";;;;;;;;;;;;;;;;;;;;;;;;;;;;;;;;;;;;;;;;;;;;;
"brody1995";;;"Windows 7";"Rachel's Experiment (D.T.)";"1.0";"2";"1";"1";"2";"1";"1";"2014-10-16 11:24:22.962";"2014-10-16 11:37:28.127";"1";"0";"0";"65";"64";"module.training_block2.exec-7921.GoNoGo2";;;;;;;;;;;;;;;;;;;;;;;;;;;;;;;;;;;"1261";"2014-10-16 11:28:28.256";"NST_correctLoc";"23";"0";"FINISHED";"LEFT";"success";"256";"0";"2014-10-16 11:28:26.993";"3";;;;;;;;;;;;;;;;;;;;;;;;;;;;;;;;;;;;;;;;;;;;;
"brody1995";;;"Windows 7";"Rachel's Experiment (D.T.)";"1.0";"2";"1";"1";"2";"1";"1";"2014-10-16 11:24:22.962";"2014-10-16 11:37:28.127";"1";"0";"0";"66";"65";"module.training_block2.exec-7921.GoNoGo2";;;;;;;;;;;;;;;;;;;;;;;;;;;;;;;;;;;"1261";"2014-10-16 11:28:30.799";"NST_correctLoc";"30";"1";"FINISHED";"RIGHT";"success";"313";"0";"2014-10-16 11:28:29.536";"3";;;;;;;;;;;;;;;;;;;;;;;;;;;;;;;;;;;;;;;;;;;;;
"brody1995";;;"Windows 7";"Rachel's Experiment (D.T.)";"1.0";"2";"1";"1";"2";"1";"1";"2014-10-16 11:24:22.962";"2014-10-16 11:37:28.127";"1";"0";"0";"67";"66";"module.training_block2.exec-7921.GoNoGo2";;;;;;;;;;;;;;;;;;;;;;;;;;;;;;;;;;;"1261";"2014-10-16 11:28:33.342";"NST_correctLoc";"27";"1";"FINISHED";"RIGHT";"success";"330";"0";"2014-10-16 11:28:32.078";"3";;;;;;;;;;;;;;;;;;;;;;;;;;;;;;;;;;;;;;;;;;;;;
"brody1995";;;"Windows 7";"Rachel's Experiment (D.T.)";"1.0";"2";"1";"1";"2";"1";"1";"2014-10-16 11:24:22.962";"2014-10-16 11:37:28.127";"1";"0";"0";"68";"67";"module.training_block2.exec-7921.GoNoGo2";;;;;;;;;;;;;;;;;;;;;;;;;;;;;;;;;;;"1261";"2014-10-16 11:28:35.885";"NST_correctLoc";"6";"0";"FINISHED";"LEFT";"success";"307";"0";"2014-10-16 11:28:34.621";"1";;;;;;;;;;;;;;;;;;;;;;;;;;;;;;;;;;;;;;;;;;;;;
"brody1995";;;"Windows 7";"Rachel's Experiment (D.T.)";"1.0";"2";"1";"1";"2";"1";"1";"2014-10-16 11:24:22.962";"2014-10-16 11:37:28.127";"1";"0";"0";"69";"68";"module.training_block2.exec-7921.GoNoGo2";;;;;;;;;;;;;;;;;;;;;;;;;;;;;;;;;;;"1261";"2014-10-16 11:28:38.428";"NST_correctLoc";"7";"1";"FINISHED";"RIGHT";"success";"316";"0";"2014-10-16 11:28:37.164";"1";;;;;;;;;;;;;;;;;;;;;;;;;;;;;;;;;;;;;;;;;;;;;
"brody1995";;;"Windows 7";"Rachel's Experiment (D.T.)";"1.0";"2";"1";"1";"2";"1";"1";"2014-10-16 11:24:22.962";"2014-10-16 11:37:28.127";"1";"0";"0";"70";"69";"module.training_block2.exec-7921.GoNoGo2";;;;;;;;;;;;;;;;;;;;;;;;;;;;;;;;;;;"1261";"2014-10-16 11:28:40.970";"NST_correctLoc";"31";"0";"FINISHED";"LEFT";"success";"374";"0";"2014-10-16 11:28:39.707";"3";;;;;;;;;;;;;;;;;;;;;;;;;;;;;;;;;;;;;;;;;;;;;
"brody1995";;;"Windows 7";"Rachel's Experiment (D.T.)";"1.0";"2";"1";"1";"2";"1";"1";"2014-10-16 11:24:22.962";"2014-10-16 11:37:28.127";"1";"0";"0";"71";"70";"module.training_block2.exec-7921.GoNoGo2";;;;;;;;;;;;;;;;;;;;;;;;;;;;;;;;;;;"1261";"2014-10-16 11:28:43.513";"NST_correctLoc";"24";"0";"FINISHED";"LEFT";"success";"335";"0";"2014-10-16 11:28:42.250";"3";;;;;;;;;;;;;;;;;;;;;;;;;;;;;;;;;;;;;;;;;;;;;
"brody1995";;;"Windows 7";"Rachel's Experiment (D.T.)";"1.0";"2";"1";"1";"2";"1";"1";"2014-10-16 11:24:22.962";"2014-10-16 11:37:28.127";"1";"0";"0";"72";"71";"module.training_block2.exec-7921.GoNoGo2";;;;;;;;;;;;;;;;;;;;;;;;;;;;;;;;;;;"1256";"2014-10-16 11:28:46.056";"NST_correctLoc";"17";"1";"FINISHED";"RIGHT";"success";"371";"0";"2014-10-16 11:28:44.792";"2";;;;;;;;;;;;;;;;;;;;;;;;;;;;;;;;;;;;;;;;;;;;;
"brody1995";;;"Windows 7";"Rachel's Experiment (D.T.)";"1.0";"2";"1";"1";"2";"1";"1";"2014-10-16 11:24:22.962";"2014-10-16 11:37:28.127";"1";"0";"0";"73";"72";"module.training_block2.exec-7921.GoNoGo2";;;;;;;;;;;;;;;;;;;;;;;;;;;;;;;;;;;"1257";"2014-10-16 11:28:48.599";"NST_correctLoc";"4";"0";"FINISHED";"LEFT";"success";"373";"0";"2014-10-16 11:28:47.335";"1";;;;;;;;;;;;;;;;;;;;;;;;;;;;;;;;;;;;;;;;;;;;;
"brody1995";;;"Windows 7";"Rachel's Experiment (D.T.)";"1.0";"2";"1";"1";"2";"1";"1";"2014-10-16 11:24:22.962";"2014-10-16 11:37:28.127";"1";"0";"0";"74";"73";"module.training_block2.exec-7921.GoNoGo2";;;;;;;;;;;;;;;;;;;;;;;;;;;;;;;;;;;"1261";"2014-10-16 11:28:51.142";"NST_correctLoc";"22";"0";"FINISHED";"LEFT";"success";"682";"0";"2014-10-16 11:28:49.878";"3";;;;;;;;;;;;;;;;;;;;;;;;;;;;;;;;;;;;;;;;;;;;;
"brody1995";;;"Windows 7";"Rachel's Experiment (D.T.)";"1.0";"2";"1";"1";"2";"1";"1";"2014-10-16 11:24:22.962";"2014-10-16 11:37:28.127";"1";"0";"0";"75";"74";"module.training_block2.exec-7921.GoNoGo2";;;;;;;;;;;;;;;;;;;;;;;;;;;;;;;;;;;"1261";"2014-10-16 11:28:53.684";"NST_correctLoc";"28";"1";"FINISHED";"RIGHT";"success";"307";"0";"2014-10-16 11:28:52.421";"3";;;;;;;;;;;;;;;;;;;;;;;;;;;;;;;;;;;;;;;;;;;;;
"brody1995";;;"Windows 7";"Rachel's Experiment (D.T.)";"1.0";"2";"1";"1";"2";"1";"1";"2014-10-16 11:24:22.962";"2014-10-16 11:37:28.127";"1";"0";"0";"76";"75";"module.training_block2.exec-7921.GoNoGo2";;;;;;;;;;;;;;;;;;;;;;;;;;;;;;;;;;;"1261";"2014-10-16 11:28:56.227";"NST_correctLoc";"10";"0";"FINISHED";"LEFT";"success";"309";"0";"2014-10-16 11:28:54.964";"2";;;;;;;;;;;;;;;;;;;;;;;;;;;;;;;;;;;;;;;;;;;;;
"brody1995";;;"Windows 7";"Rachel's Experiment (D.T.)";"1.0";"2";"1";"1";"2";"1";"1";"2014-10-16 11:24:22.962";"2014-10-16 11:37:28.127";"1";"0";"0";"77";"76";"module.training_block2.exec-7921.GoNoGo2";;;;;;;;;;;;;;;;;;;;;;;;;;;;;;;;;;;"1261";"2014-10-16 11:28:58.770";"NST_correctLoc";"14";"0";"FINISHED";"LEFT";"success";"334";"0";"2014-10-16 11:28:57.506";"2";;;;;;;;;;;;;;;;;;;;;;;;;;;;;;;;;;;;;;;;;;;;;
"brody1995";;;"Windows 7";"Rachel's Experiment (D.T.)";"1.0";"2";"1";"1";"2";"1";"1";"2014-10-16 11:24:22.962";"2014-10-16 11:37:28.127";"1";"0";"0";"78";"77";"module.training_block2.exec-7921.GoNoGo2";;;;;;;;;;;;;;;;;;;;;;;;;;;;;;;;;;;"1261";"2014-10-16 11:29:01.313";"NST_correctLoc";"19";"1";"FINISHED";"RIGHT";"success";"343";"0";"2014-10-16 11:29:00.049";"3";;;;;;;;;;;;;;;;;;;;;;;;;;;;;;;;;;;;;;;;;;;;;
"brody1995";;;"Windows 7";"Rachel's Experiment (D.T.)";"1.0";"2";"1";"1";"2";"1";"1";"2014-10-16 11:24:22.962";"2014-10-16 11:37:28.127";"1";"0";"0";"79";"78";"module.training_block2.exec-7921.GoNoGo2";;;;;;;;;;;;;;;;;;;;;;;;;;;;;;;;;;;"1261";"2014-10-16 11:29:03.856";"NST_correctLoc";"1";"1";"FINISHED";"RIGHT";"success";"336";"0";"2014-10-16 11:29:02.592";"1";;;;;;;;;;;;;;;;;;;;;;;;;;;;;;;;;;;;;;;;;;;;;
"brody1995";;;"Windows 7";"Rachel's Experiment (D.T.)";"1.0";"2";"1";"1";"2";"1";"1";"2014-10-16 11:24:22.962";"2014-10-16 11:37:28.127";"1";"0";"0";"80";"79";"module.training_block2.exec-7921.GoNoGo2";;;;;;;;;;;;;;;;;;;;;;;;;;;;;;;;;;;"1261";"2014-10-16 11:29:06.398";"NST_correctLoc";"2";"0";"FINISHED";"LEFT";"success";"418";"0";"2014-10-16 11:29:05.135";"1";;;;;;;;;;;;;;;;;;;;;;;;;;;;;;;;;;;;;;;;;;;;;
"brody1995";;;"Windows 7";"Rachel's Experiment (D.T.)";"1.0";"2";"1";"1";"2";"1";"1";"2014-10-16 11:24:22.962";"2014-10-16 11:37:28.127";"1";"0";"0";"81";"80";"module.training_block2.exec-7921.GoNoGo2";;;;;;;;;;;;;;;;;;;;;;;;;;;;;;;;;;;"1261";"2014-10-16 11:29:08.941";"NST_correctLoc";"26";"0";"FINISHED";"LEFT";"success";"291";"0";"2014-10-16 11:29:07.678";"3";;;;;;;;;;;;;;;;;;;;;;;;;;;;;;;;;;;;;;;;;;;;;
"brody1995";;;"Windows 7";"Rachel's Experiment (D.T.)";"1.0";"2";"1";"1";"2";"1";"1";"2014-10-16 11:24:22.962";"2014-10-16 11:37:28.127";"1";"0";"0";"82";"81";"module.training_block2.exec-7921.GoNoGo2";;;;;;;;;;;;;;;;;;;;;;;;;;;;;;;;;;;"1257";"2014-10-16 11:29:11.484";"NST_correctLoc";"9";"1";"FINISHED";"RIGHT";"success";"288";"0";"2014-10-16 11:29:10.220";"2";;;;;;;;;;;;;;;;;;;;;;;;;;;;;;;;;;;;;;;;;;;;;
"brody1995";;;"Windows 7";"Rachel's Experiment (D.T.)";"1.0";"2";"1";"1";"2";"1";"1";"2014-10-16 11:24:22.962";"2014-10-16 11:37:28.127";"1";"0";"0";"83";"82";"module.training_block2.exec-7921.GoNoGo2";;;;;;;;;;;;;;;;;;;;;;;;;;;;;;;;;;;"1261";"2014-10-16 11:29:14.027";"NST_correctLoc";"29";"0";"FINISHED";"LEFT";"success";"421";"0";"2014-10-16 11:29:12.763";"3";;;;;;;;;;;;;;;;;;;;;;;;;;;;;;;;;;;;;;;;;;;;;
"brody1995";;;"Windows 7";"Rachel's Experiment (D.T.)";"1.0";"2";"1";"1";"2";"1";"1";"2014-10-16 11:24:22.962";"2014-10-16 11:37:28.127";"1";"0";"0";"84";"83";"module.training_block2.exec-7921.GoNoGo2";;;;;;;;;;;;;;;;;;;;;;;;;;;;;;;;;;;"1261";"2014-10-16 11:29:16.570";"NST_correctLoc";"15";"0";"FINISHED";"LEFT";"success";"382";"0";"2014-10-16 11:29:15.306";"2";;;;;;;;;;;;;;;;;;;;;;;;;;;;;;;;;;;;;;;;;;;;;
"brody1995";;;"Windows 7";"Rachel's Experiment (D.T.)";"1.0";"2";"1";"1";"2";"1";"1";"2014-10-16 11:24:22.962";"2014-10-16 11:37:28.127";"1";"0";"0";"85";"84";"module.training_block2.exec-7921.GoNoGo2";;;;;;;;;;;;;;;;;;;;;;;;;;;;;;;;;;;"1261";"2014-10-16 11:29:19.112";"NST_correctLoc";"3";"0";"FINISHED";"LEFT";"success";"336";"0";"2014-10-16 11:29:17.849";"1";;;;;;;;;;;;;;;;;;;;;;;;;;;;;;;;;;;;;;;;;;;;;
"brody1995";;;"Windows 7";"Rachel's Experiment (D.T.)";"1.0";"2";"1";"1";"2";"1";"1";"2014-10-16 11:24:22.962";"2014-10-16 11:37:28.127";"1";"0";"0";"86";"85";"module.training_block2.exec-7921.GoNoGo2";;;;;;;;;;;;;;;;;;;;;;;;;;;;;;;;;;;"1261";"2014-10-16 11:29:21.655";"NST_correctLoc";"25";"0";"FINISHED";"LEFT";"success";"353";"0";"2014-10-16 11:29:20.392";"3";;;;;;;;;;;;;;;;;;;;;;;;;;;;;;;;;;;;;;;;;;;;;
"brody1995";;;"Windows 7";"Rachel's Experiment (D.T.)";"1.0";"2";"1";"1";"2";"1";"1";"2014-10-16 11:24:22.962";"2014-10-16 11:37:28.127";"1";"0";"0";"87";"86";"module.training_block2.exec-7921.GoNoGo2";;;;;;;;;;;;;;;;;;;;;;;;;;;;;;;;;;;"1261";"2014-10-16 11:29:24.198";"NST_correctLoc";"8";"0";"FINISHED";"LEFT";"success";"346";"0";"2014-10-16 11:29:22.934";"1";;;;;;;;;;;;;;;;;;;;;;;;;;;;;;;;;;;;;;;;;;;;;
"brody1995";;;"Windows 7";"Rachel's Experiment (D.T.)";"1.0";"2";"1";"1";"2";"1";"1";"2014-10-16 11:24:22.962";"2014-10-16 11:37:28.127";"1";"0";"0";"88";"87";"module.training_block3.exec-7042.GoNoGo3";;;;;;;;;;;;;;;;;;;;;;;;;;;;;;;;;;;;;;;;;;;;;;;"1261";"2014-10-16 11:29:35.243";"NST_correctLoc";"24";"0";"FINISHED";"LEFT";"success";"429";"0";"2014-10-16 11:29:33.979";"3";;;;;;;;;;;;;;;;;;;;;;;;;;;;;;;;;
"brody1995";;;"Windows 7";"Rachel's Experiment (D.T.)";"1.0";"2";"1";"1";"2";"1";"1";"2014-10-16 11:24:22.962";"2014-10-16 11:37:28.127";"1";"0";"0";"89";"88";"module.training_block3.exec-7042.GoNoGo3";;;;;;;;;;;;;;;;;;;;;;;;;;;;;;;;;;;;;;;;;;;;;;;"1261";"2014-10-16 11:29:37.786";"NST_correctLoc";"16";"1";"FINISHED";"RIGHT";"success";"366";"0";"2014-10-16 11:29:36.522";"2";;;;;;;;;;;;;;;;;;;;;;;;;;;;;;;;;
"brody1995";;;"Windows 7";"Rachel's Experiment (D.T.)";"1.0";"2";"1";"1";"2";"1";"1";"2014-10-16 11:24:22.962";"2014-10-16 11:37:28.127";"1";"0";"0";"90";"89";"module.training_block3.exec-7042.GoNoGo3";;;;;;;;;;;;;;;;;;;;;;;;;;;;;;;;;;;;;;;;;;;;;;;"1261";"2014-10-16 11:29:40.328";"NST_correctLoc";"26";"1";"FINISHED";"RIGHT";"success";"335";"0";"2014-10-16 11:29:39.065";"3";;;;;;;;;;;;;;;;;;;;;;;;;;;;;;;;;
"brody1995";;;"Windows 7";"Rachel's Experiment (D.T.)";"1.0";"2";"1";"1";"2";"1";"1";"2014-10-16 11:24:22.962";"2014-10-16 11:37:28.127";"1";"0";"0";"91";"90";"module.training_block3.exec-7042.GoNoGo3";;;;;;;;;;;;;;;;;;;;;;;;;;;;;;;;;;;;;;;;;;;;;;;"1261";"2014-10-16 11:29:42.871";"NST_correctLoc";"18";"1";"FINISHED";"RIGHT";"success";"297";"0";"2014-10-16 11:29:41.608";"3";;;;;;;;;;;;;;;;;;;;;;;;;;;;;;;;;
"brody1995";;;"Windows 7";"Rachel's Experiment (D.T.)";"1.0";"2";"1";"1";"2";"1";"1";"2014-10-16 11:24:22.962";"2014-10-16 11:37:28.127";"1";"0";"0";"92";"91";"module.training_block3.exec-7042.GoNoGo3";;;;;;;;;;;;;;;;;;;;;;;;;;;;;;;;;;;;;;;;;;;;;;;"1261";"2014-10-16 11:29:45.414";"NST_correctLoc";"15";"0";"FINISHED";"LEFT";"success";"346";"0";"2014-10-16 11:29:44.151";"2";;;;;;;;;;;;;;;;;;;;;;;;;;;;;;;;;
"brody1995";;;"Windows 7";"Rachel's Experiment (D.T.)";"1.0";"2";"1";"1";"2";"1";"1";"2014-10-16 11:24:22.962";"2014-10-16 11:37:28.127";"1";"0";"0";"93";"92";"module.training_block3.exec-7042.GoNoGo3";;;;;;;;;;;;;;;;;;;;;;;;;;;;;;;;;;;;;;;;;;;;;;;"1261";"2014-10-16 11:29:47.957";"NST_correctLoc";"17";"1";"FINISHED";"RIGHT";"success";"347";"0";"2014-10-16 11:29:46.693";"2";;;;;;;;;;;;;;;;;;;;;;;;;;;;;;;;;
"brody1995";;;"Windows 7";"Rachel's Experiment (D.T.)";"1.0";"2";"1";"1";"2";"1";"1";"2014-10-16 11:24:22.962";"2014-10-16 11:37:28.127";"1";"0";"0";"94";"93";"module.training_block3.exec-7042.GoNoGo3";;;;;;;;;;;;;;;;;;;;;;;;;;;;;;;;;;;;;;;;;;;;;;;"1261";"2014-10-16 11:29:50.515";"NST_correctLoc";"5";"1";"FINISHED";"RIGHT";"success";"332";"0";"2014-10-16 11:29:49.252";"1";;;;;;;;;;;;;;;;;;;;;;;;;;;;;;;;;
"brody1995";;;"Windows 7";"Rachel's Experiment (D.T.)";"1.0";"2";"1";"1";"2";"1";"1";"2014-10-16 11:24:22.962";"2014-10-16 11:37:28.127";"1";"0";"0";"95";"94";"module.training_block3.exec-7042.GoNoGo3";;;;;;;;;;;;;;;;;;;;;;;;;;;;;;;;;;;;;;;;;;;;;;;"1261";"2014-10-16 11:29:53.058";"NST_correctLoc";"0";"1";"FINISHED";"RIGHT";"success";"342";"0";"2014-10-16 11:29:51.795";"1";;;;;;;;;;;;;;;;;;;;;;;;;;;;;;;;;
"brody1995";;;"Windows 7";"Rachel's Experiment (D.T.)";"1.0";"2";"1";"1";"2";"1";"1";"2014-10-16 11:24:22.962";"2014-10-16 11:37:28.127";"1";"0";"0";"96";"95";"module.training_block3.exec-7042.GoNoGo3";;;;;;;;;;;;;;;;;;;;;;;;;;;;;;;;;;;;;;;;;;;;;;;"1261";"2014-10-16 11:29:55.601";"NST_correctLoc";"35";"0";"FINISHED";"LEFT";"success";"311";"0";"2014-10-16 11:29:54.337";"3";;;;;;;;;;;;;;;;;;;;;;;;;;;;;;;;;
"brody1995";;;"Windows 7";"Rachel's Experiment (D.T.)";"1.0";"2";"1";"1";"2";"1";"1";"2014-10-16 11:24:22.962";"2014-10-16 11:37:28.127";"1";"0";"0";"97";"96";"module.training_block3.exec-7042.GoNoGo3";;;;;;;;;;;;;;;;;;;;;;;;;;;;;;;;;;;;;;;;;;;;;;;"1261";"2014-10-16 11:29:58.144";"NST_correctLoc";"29";"0";"FINISHED";"LEFT";"success";"320";"0";"2014-10-16 11:29:56.880";"3";;;;;;;;;;;;;;;;;;;;;;;;;;;;;;;;;
"brody1995";;;"Windows 7";"Rachel's Experiment (D.T.)";"1.0";"2";"1";"1";"2";"1";"1";"2014-10-16 11:24:22.962";"2014-10-16 11:37:28.127";"1";"0";"0";"98";"97";"module.training_block3.exec-7042.GoNoGo3";;;;;;;;;;;;;;;;;;;;;;;;;;;;;;;;;;;;;;;;;;;;;;;"1261";"2014-10-16 11:30:00.687";"NST_correctLoc";"6";"0";"FINISHED";"LEFT";"success";"361";"0";"2014-10-16 11:29:59.423";"1";;;;;;;;;;;;;;;;;;;;;;;;;;;;;;;;;
"brody1995";;;"Windows 7";"Rachel's Experiment (D.T.)";"1.0";"2";"1";"1";"2";"1";"1";"2014-10-16 11:24:22.962";"2014-10-16 11:37:28.127";"1";"0";"0";"99";"98";"module.training_block3.exec-7042.GoNoGo3";;;;;;;;;;;;;;;;;;;;;;;;;;;;;;;;;;;;;;;;;;;;;;;"1261";"2014-10-16 11:30:03.229";"NST_correctLoc";"22";"0";"FINISHED";"LEFT";"success";"330";"0";"2014-10-16 11:30:01.966";"3";;;;;;;;;;;;;;;;;;;;;;;;;;;;;;;;;
"brody1995";;;"Windows 7";"Rachel's Experiment (D.T.)";"1.0";"2";"1";"1";"2";"1";"1";"2014-10-16 11:24:22.962";"2014-10-16 11:37:28.127";"1";"0";"0";"100";"99";"module.training_block3.exec-7042.GoNoGo3";;;;;;;;;;;;;;;;;;;;;;;;;;;;;;;;;;;;;;;;;;;;;;;"1261";"2014-10-16 11:30:05.772";"NST_correctLoc";"1";"1";"FINISHED";"RIGHT";"success";"307";"0";"2014-10-16 11:30:04.509";"1";;;;;;;;;;;;;;;;;;;;;;;;;;;;;;;;;
"brody1995";;;"Windows 7";"Rachel's Experiment (D.T.)";"1.0";"2";"1";"1";"2";"1";"1";"2014-10-16 11:24:22.962";"2014-10-16 11:37:28.127";"1";"0";"0";"101";"100";"module.training_block3.exec-7042.GoNoGo3";;;;;;;;;;;;;;;;;;;;;;;;;;;;;;;;;;;;;;;;;;;;;;;"1261";"2014-10-16 11:30:08.315";"NST_correctLoc";"14";"1";"FINISHED";"RIGHT";"success";"301";"0";"2014-10-16 11:30:07.051";"2";;;;;;;;;;;;;;;;;;;;;;;;;;;;;;;;;
"brody1995";;;"Windows 7";"Rachel's Experiment (D.T.)";"1.0";"2";"1";"1";"2";"1";"1";"2014-10-16 11:24:22.962";"2014-10-16 11:37:28.127";"1";"0";"0";"102";"101";"module.training_block3.exec-7042.GoNoGo3";;;;;;;;;;;;;;;;;;;;;;;;;;;;;;;;;;;;;;;;;;;;;;;"1261";"2014-10-16 11:30:10.858";"NST_correctLoc";"34";"0";"FINISHED";"LEFT";"success";"286";"0";"2014-10-16 11:30:09.594";"3";;;;;;;;;;;;;;;;;;;;;;;;;;;;;;;;;
"brody1995";;;"Windows 7";"Rachel's Experiment (D.T.)";"1.0";"2";"1";"1";"2";"1";"1";"2014-10-16 11:24:22.962";"2014-10-16 11:37:28.127";"1";"0";"0";"103";"102";"module.training_block3.exec-7042.GoNoGo3";;;;;;;;;;;;;;;;;;;;;;;;;;;;;;;;;;;;;;;;;;;;;;;"1261";"2014-10-16 11:30:13.401";"NST_correctLoc";"32";"1";"FINISHED";"RIGHT";"success";"311";"0";"2014-10-16 11:30:12.137";"3";;;;;;;;;;;;;;;;;;;;;;;;;;;;;;;;;
"brody1995";;;"Windows 7";"Rachel's Experiment (D.T.)";"1.0";"2";"1";"1";"2";"1";"1";"2014-10-16 11:24:22.962";"2014-10-16 11:37:28.127";"1";"0";"0";"104";"103";"module.training_block3.exec-7042.GoNoGo3";;;;;;;;;;;;;;;;;;;;;;;;;;;;;;;;;;;;;;;;;;;;;;;"1261";"2014-10-16 11:30:15.943";"NST_correctLoc";"20";"0";"FINISHED";"LEFT";"success";"320";"0";"2014-10-16 11:30:14.680";"3";;;;;;;;;;;;;;;;;;;;;;;;;;;;;;;;;
"brody1995";;;"Windows 7";"Rachel's Experiment (D.T.)";"1.0";"2";"1";"1";"2";"1";"1";"2014-10-16 11:24:22.962";"2014-10-16 11:37:28.127";"1";"0";"0";"105";"104";"module.training_block3.exec-7042.GoNoGo3";;;;;;;;;;;;;;;;;;;;;;;;;;;;;;;;;;;;;;;;;;;;;;;"1261";"2014-10-16 11:30:18.486";"NST_correctLoc";"12";"0";"FINISHED";"LEFT";"success";"345";"0";"2014-10-16 11:30:17.223";"2";;;;;;;;;;;;;;;;;;;;;;;;;;;;;;;;;
"brody1995";;;"Windows 7";"Rachel's Experiment (D.T.)";"1.0";"2";"1";"1";"2";"1";"1";"2014-10-16 11:24:22.962";"2014-10-16 11:37:28.127";"1";"0";"0";"106";"105";"module.training_block3.exec-7042.GoNoGo3";;;;;;;;;;;;;;;;;;;;;;;;;;;;;;;;;;;;;;;;;;;;;;;"1261";"2014-10-16 11:30:21.013";"NST_correctLoc";"33";"1";"FINISHED";"RIGHT";"success";"386";"0";"2014-10-16 11:30:19.750";"3";;;;;;;;;;;;;;;;;;;;;;;;;;;;;;;;;
"brody1995";;;"Windows 7";"Rachel's Experiment (D.T.)";"1.0";"2";"1";"1";"2";"1";"1";"2014-10-16 11:24:22.962";"2014-10-16 11:37:28.127";"1";"0";"0";"107";"106";"module.training_block3.exec-7042.GoNoGo3";;;;;;;;;;;;;;;;;;;;;;;;;;;;;;;;;;;;;;;;;;;;;;;"1261";"2014-10-16 11:30:23.556";"NST_correctLoc";"4";"1";"FINISHED";"RIGHT";"success";"427";"0";"2014-10-16 11:30:22.293";"1";;;;;;;;;;;;;;;;;;;;;;;;;;;;;;;;;
"brody1995";;;"Windows 7";"Rachel's Experiment (D.T.)";"1.0";"2";"1";"1";"2";"1";"1";"2014-10-16 11:24:22.962";"2014-10-16 11:37:28.127";"1";"0";"0";"108";"107";"module.training_block3.exec-7042.GoNoGo3";;;;;;;;;;;;;;;;;;;;;;;;;;;;;;;;;;;;;;;;;;;;;;;"1261";"2014-10-16 11:30:26.115";"NST_correctLoc";"21";"0";"FINISHED";"LEFT";"success";"397";"0";"2014-10-16 11:30:24.851";"3";;;;;;;;;;;;;;;;;;;;;;;;;;;;;;;;;
"brody1995";;;"Windows 7";"Rachel's Experiment (D.T.)";"1.0";"2";"1";"1";"2";"1";"1";"2014-10-16 11:24:22.962";"2014-10-16 11:37:28.127";"1";"0";"0";"109";"108";"module.training_block3.exec-7042.GoNoGo3";;;;;;;;;;;;;;;;;;;;;;;;;;;;;;;;;;;;;;;;;;;;;;;"1261";"2014-10-16 11:30:28.657";"NST_correctLoc";"9";"1";"FINISHED";"RIGHT";"success";"446";"0";"2014-10-16 11:30:27.394";"2";;;;;;;;;;;;;;;;;;;;;;;;;;;;;;;;;
"brody1995";;;"Windows 7";"Rachel's Experiment (D.T.)";"1.0";"2";"1";"1";"2";"1";"1";"2014-10-16 11:24:22.962";"2014-10-16 11:37:28.127";"1";"0";"0";"110";"109";"module.training_block3.exec-7042.GoNoGo3";;;;;;;;;;;;;;;;;;;;;;;;;;;;;;;;;;;;;;;;;;;;;;;"1261";"2014-10-16 11:30:31.200";"NST_correctLoc";"30";"1";"FINISHED";"RIGHT";"success";"503";"0";"2014-10-16 11:30:29.937";"3";;;;;;;;;;;;;;;;;;;;;;;;;;;;;;;;;
"brody1995";;;"Windows 7";"Rachel's Experiment (D.T.)";"1.0";"2";"1";"1";"2";"1";"1";"2014-10-16 11:24:22.962";"2014-10-16 11:37:28.127";"1";"0";"0";"111";"110";"module.training_block3.exec-7042.GoNoGo3";;;;;;;;;;;;;;;;;;;;;;;;;;;;;;;;;;;;;;;;;;;;;;;"1261";"2014-10-16 11:30:33.743";"NST_correctLoc";"10";"0";"FINISHED";"LEFT";"success";"377";"0";"2014-10-16 11:30:32.479";"2";;;;;;;;;;;;;;;;;;;;;;;;;;;;;;;;;
"brody1995";;;"Windows 7";"Rachel's Experiment (D.T.)";"1.0";"2";"1";"1";"2";"1";"1";"2014-10-16 11:24:22.962";"2014-10-16 11:37:28.127";"1";"0";"0";"112";"111";"module.training_block3.exec-7042.GoNoGo3";;;;;;;;;;;;;;;;;;;;;;;;;;;;;;;;;;;;;;;;;;;;;;;"1261";"2014-10-16 11:30:36.286";"NST_correctLoc";"23";"1";"FINISHED";"RIGHT";"success";"378";"0";"2014-10-16 11:30:35.022";"3";;;;;;;;;;;;;;;;;;;;;;;;;;;;;;;;;
"brody1995";;;"Windows 7";"Rachel's Experiment (D.T.)";"1.0";"2";"1";"1";"2";"1";"1";"2014-10-16 11:24:22.962";"2014-10-16 11:37:28.127";"1";"0";"0";"113";"112";"module.training_block3.exec-7042.GoNoGo3";;;;;;;;;;;;;;;;;;;;;;;;;;;;;;;;;;;;;;;;;;;;;;;"1261";"2014-10-16 11:30:38.813";"NST_correctLoc";"27";"0";"FINISHED";"LEFT";"success";"307";"0";"2014-10-16 11:30:37.549";"3";;;;;;;;;;;;;;;;;;;;;;;;;;;;;;;;;
"brody1995";;;"Windows 7";"Rachel's Experiment (D.T.)";"1.0";"2";"1";"1";"2";"1";"1";"2014-10-16 11:24:22.962";"2014-10-16 11:37:28.127";"1";"0";"0";"114";"113";"module.training_block3.exec-7042.GoNoGo3";;;;;;;;;;;;;;;;;;;;;;;;;;;;;;;;;;;;;;;;;;;;;;;"1261";"2014-10-16 11:30:41.356";"NST_correctLoc";"3";"0";"FINISHED";"LEFT";"success";"396";"0";"2014-10-16 11:30:40.092";"1";;;;;;;;;;;;;;;;;;;;;;;;;;;;;;;;;
"brody1995";;;"Windows 7";"Rachel's Experiment (D.T.)";"1.0";"2";"1";"1";"2";"1";"1";"2014-10-16 11:24:22.962";"2014-10-16 11:37:28.127";"1";"0";"0";"115";"114";"module.training_block3.exec-7042.GoNoGo3";;;;;;;;;;;;;;;;;;;;;;;;;;;;;;;;;;;;;;;;;;;;;;;"1261";"2014-10-16 11:30:43.899";"NST_correctLoc";"31";"0";"FINISHED";"LEFT";"success";"373";"0";"2014-10-16 11:30:42.635";"3";;;;;;;;;;;;;;;;;;;;;;;;;;;;;;;;;
"brody1995";;;"Windows 7";"Rachel's Experiment (D.T.)";"1.0";"2";"1";"1";"2";"1";"1";"2014-10-16 11:24:22.962";"2014-10-16 11:37:28.127";"1";"0";"0";"116";"115";"module.training_block3.exec-7042.GoNoGo3";;;;;;;;;;;;;;;;;;;;;;;;;;;;;;;;;;;;;;;;;;;;;;;"1261";"2014-10-16 11:30:46.441";"NST_correctLoc";"7";"1";"FINISHED";"RIGHT";"success";"494";"0";"2014-10-16 11:30:45.178";"1";;;;;;;;;;;;;;;;;;;;;;;;;;;;;;;;;
"brody1995";;;"Windows 7";"Rachel's Experiment (D.T.)";"1.0";"2";"1";"1";"2";"1";"1";"2014-10-16 11:24:22.962";"2014-10-16 11:37:28.127";"1";"0";"0";"117";"116";"module.training_block3.exec-7042.GoNoGo3";;;;;;;;;;;;;;;;;;;;;;;;;;;;;;;;;;;;;;;;;;;;;;;"1261";"2014-10-16 11:30:48.969";"NST_correctLoc";"2";"1";"FINISHED";"RIGHT";"success";"623";"0";"2014-10-16 11:30:47.705";"1";;;;;;;;;;;;;;;;;;;;;;;;;;;;;;;;;
"brody1995";;;"Windows 7";"Rachel's Experiment (D.T.)";"1.0";"2";"1";"1";"2";"1";"1";"2014-10-16 11:24:22.962";"2014-10-16 11:37:28.127";"1";"0";"0";"118";"117";"module.training_block3.exec-7042.GoNoGo3";;;;;;;;;;;;;;;;;;;;;;;;;;;;;;;;;;;;;;;;;;;;;;;"1261";"2014-10-16 11:30:51.496";"NST_correctLoc";"19";"0";"FINISHED";"LEFT";"success";"368";"0";"2014-10-16 11:30:50.232";"3";;;;;;;;;;;;;;;;;;;;;;;;;;;;;;;;;
"brody1995";;;"Windows 7";"Rachel's Experiment (D.T.)";"1.0";"2";"1";"1";"2";"1";"1";"2014-10-16 11:24:22.962";"2014-10-16 11:37:28.127";"1";"0";"0";"119";"118";"module.training_block3.exec-7042.GoNoGo3";;;;;;;;;;;;;;;;;;;;;;;;;;;;;;;;;;;;;;;;;;;;;;;"1261";"2014-10-16 11:30:54.023";"NST_correctLoc";"8";"1";"FINISHED";"RIGHT";"success";"360";"0";"2014-10-16 11:30:52.759";"1";;;;;;;;;;;;;;;;;;;;;;;;;;;;;;;;;
"brody1995";;;"Windows 7";"Rachel's Experiment (D.T.)";"1.0";"2";"1";"1";"2";"1";"1";"2014-10-16 11:24:22.962";"2014-10-16 11:37:28.127";"1";"0";"0";"120";"119";"module.training_block3.exec-7042.GoNoGo3";;;;;;;;;;;;;;;;;;;;;;;;;;;;;;;;;;;;;;;;;;;;;;;"1261";"2014-10-16 11:30:56.581";"NST_correctLoc";"28";"1";"FINISHED";"RIGHT";"success";"370";"0";"2014-10-16 11:30:55.318";"3";;;;;;;;;;;;;;;;;;;;;;;;;;;;;;;;;
"brody1995";;;"Windows 7";"Rachel's Experiment (D.T.)";"1.0";"2";"1";"1";"2";"1";"1";"2014-10-16 11:24:22.962";"2014-10-16 11:37:28.127";"1";"0";"0";"121";"120";"module.training_block3.exec-7042.GoNoGo3";;;;;;;;;;;;;;;;;;;;;;;;;;;;;;;;;;;;;;;;;;;;;;;"1261";"2014-10-16 11:30:59.109";"NST_correctLoc";"11";"1";"FINISHED";"RIGHT";"success";"395";"0";"2014-10-16 11:30:57.845";"2";;;;;;;;;;;;;;;;;;;;;;;;;;;;;;;;;
"brody1995";;;"Windows 7";"Rachel's Experiment (D.T.)";"1.0";"2";"1";"1";"2";"1";"1";"2014-10-16 11:24:22.962";"2014-10-16 11:37:28.127";"1";"0";"0";"122";"121";"module.training_block3.exec-7042.GoNoGo3";;;;;;;;;;;;;;;;;;;;;;;;;;;;;;;;;;;;;;;;;;;;;;;"1261";"2014-10-16 11:31:01.651";"NST_correctLoc";"25";"1";"FINISHED";"RIGHT";"success";"444";"0";"2014-10-16 11:31:00.388";"3";;;;;;;;;;;;;;;;;;;;;;;;;;;;;;;;;
"brody1995";;;"Windows 7";"Rachel's Experiment (D.T.)";"1.0";"2";"1";"1";"2";"1";"1";"2014-10-16 11:24:22.962";"2014-10-16 11:37:28.127";"1";"0";"0";"123";"122";"module.training_block3.exec-7042.GoNoGo3";;;;;;;;;;;;;;;;;;;;;;;;;;;;;;;;;;;;;;;;;;;;;;;"1261";"2014-10-16 11:31:04.179";"NST_correctLoc";"13";"1";"FINISHED";"RIGHT";"success";"413";"0";"2014-10-16 11:31:02.915";"2";;;;;;;;;;;;;;;;;;;;;;;;;;;;;;;;;
"brody1995";;;"Windows 7";"Rachel's Experiment (D.T.)";"1.0";"2";"1";"1";"2";"1";"1";"2014-10-16 11:24:22.962";"2014-10-16 11:37:28.127";"1";"0";"0";"124";"123";"module.training_block4.exec-2928.GoNoGo4";;;;;;;;;;;;;;;;;;;;;;;;;;;;;;;;;;;;;;;;;;;;;;;;;;;;;;;;;;;"1261";"2014-10-16 11:31:15.520";"NST_correctLoc";"16";"1";"FINISHED";"RIGHT";"success";"383";"0";"2014-10-16 11:31:14.256";"2";;;;;;;;;;;;;;;;;;;;;
"brody1995";;;"Windows 7";"Rachel's Experiment (D.T.)";"1.0";"2";"1";"1";"2";"1";"1";"2014-10-16 11:24:22.962";"2014-10-16 11:37:28.127";"1";"0";"0";"125";"124";"module.training_block4.exec-2928.GoNoGo4";;;;;;;;;;;;;;;;;;;;;;;;;;;;;;;;;;;;;;;;;;;;;;;;;;;;;;;;;;;"1261";"2014-10-16 11:31:18.047";"NST_correctLoc";"17";"1";"FINISHED";"RIGHT";"success";"312";"0";"2014-10-16 11:31:16.783";"2";;;;;;;;;;;;;;;;;;;;;
"brody1995";;;"Windows 7";"Rachel's Experiment (D.T.)";"1.0";"2";"1";"1";"2";"1";"1";"2014-10-16 11:24:22.962";"2014-10-16 11:37:28.127";"1";"0";"0";"126";"125";"module.training_block4.exec-2928.GoNoGo4";;;;;;;;;;;;;;;;;;;;;;;;;;;;;;;;;;;;;;;;;;;;;;;;;;;;;;;;;;;"1261";"2014-10-16 11:31:20.590";"NST_correctLoc";"34";"0";"FINISHED";"LEFT";"success";"329";"0";"2014-10-16 11:31:19.326";"3";;;;;;;;;;;;;;;;;;;;;
"brody1995";;;"Windows 7";"Rachel's Experiment (D.T.)";"1.0";"2";"1";"1";"2";"1";"1";"2014-10-16 11:24:22.962";"2014-10-16 11:37:28.127";"1";"0";"0";"127";"126";"module.training_block4.exec-2928.GoNoGo4";;;;;;;;;;;;;;;;;;;;;;;;;;;;;;;;;;;;;;;;;;;;;;;;;;;;;;;;;;;"1261";"2014-10-16 11:31:23.148";"NST_correctLoc";"23";"0";"FINISHED";"LEFT";"success";"331";"0";"2014-10-16 11:31:21.885";"3";;;;;;;;;;;;;;;;;;;;;
"brody1995";;;"Windows 7";"Rachel's Experiment (D.T.)";"1.0";"2";"1";"1";"2";"1";"1";"2014-10-16 11:24:22.962";"2014-10-16 11:37:28.127";"1";"0";"0";"128";"127";"module.training_block4.exec-2928.GoNoGo4";;;;;;;;;;;;;;;;;;;;;;;;;;;;;;;;;;;;;;;;;;;;;;;;;;;;;;;;;;;"1261";"2014-10-16 11:31:25.675";"NST_correctLoc";"15";"1";"FINISHED";"RIGHT";"success";"348";"0";"2014-10-16 11:31:24.412";"2";;;;;;;;;;;;;;;;;;;;;
"brody1995";;;"Windows 7";"Rachel's Experiment (D.T.)";"1.0";"2";"1";"1";"2";"1";"1";"2014-10-16 11:24:22.962";"2014-10-16 11:37:28.127";"1";"0";"0";"129";"128";"module.training_block4.exec-2928.GoNoGo4";;;;;;;;;;;;;;;;;;;;;;;;;;;;;;;;;;;;;;;;;;;;;;;;;;;;;;;;;;;"1261";"2014-10-16 11:31:28.203";"NST_correctLoc";"19";"1";"FINISHED";"RIGHT";"success";"429";"0";"2014-10-16 11:31:26.939";"3";;;;;;;;;;;;;;;;;;;;;
"brody1995";;;"Windows 7";"Rachel's Experiment (D.T.)";"1.0";"2";"1";"1";"2";"1";"1";"2014-10-16 11:24:22.962";"2014-10-16 11:37:28.127";"1";"0";"0";"130";"129";"module.training_block4.exec-2928.GoNoGo4";;;;;;;;;;;;;;;;;;;;;;;;;;;;;;;;;;;;;;;;;;;;;;;;;;;;;;;;;;;"1261";"2014-10-16 11:31:30.730";"NST_correctLoc";"7";"1";"FINISHED";"RIGHT";"success";"357";"0";"2014-10-16 11:31:29.466";"1";;;;;;;;;;;;;;;;;;;;;
"brody1995";;;"Windows 7";"Rachel's Experiment (D.T.)";"1.0";"2";"1";"1";"2";"1";"1";"2014-10-16 11:24:22.962";"2014-10-16 11:37:28.127";"1";"0";"0";"131";"130";"module.training_block4.exec-2928.GoNoGo4";;;;;;;;;;;;;;;;;;;;;;;;;;;;;;;;;;;;;;;;;;;;;;;;;;;;;;;;;;;"1261";"2014-10-16 11:31:33.257";"NST_correctLoc";"18";"0";"FINISHED";"LEFT";"success";"366";"0";"2014-10-16 11:31:31.993";"3";;;;;;;;;;;;;;;;;;;;;
"brody1995";;;"Windows 7";"Rachel's Experiment (D.T.)";"1.0";"2";"1";"1";"2";"1";"1";"2014-10-16 11:24:22.962";"2014-10-16 11:37:28.127";"1";"0";"0";"132";"131";"module.training_block4.exec-2928.GoNoGo4";;;;;;;;;;;;;;;;;;;;;;;;;;;;;;;;;;;;;;;;;;;;;;;;;;;;;;;;;;;"1261";"2014-10-16 11:31:35.800";"NST_correctLoc";"2";"1";"FINISHED";"RIGHT";"success";"311";"0";"2014-10-16 11:31:34.536";"1";;;;;;;;;;;;;;;;;;;;;
"brody1995";;;"Windows 7";"Rachel's Experiment (D.T.)";"1.0";"2";"1";"1";"2";"1";"1";"2014-10-16 11:24:22.962";"2014-10-16 11:37:28.127";"1";"0";"0";"133";"132";"module.training_block4.exec-2928.GoNoGo4";;;;;;;;;;;;;;;;;;;;;;;;;;;;;;;;;;;;;;;;;;;;;;;;;;;;;;;;;;;"1261";"2014-10-16 11:31:38.327";"NST_correctLoc";"12";"1";"FINISHED";"RIGHT";"success";"368";"0";"2014-10-16 11:31:37.064";"2";;;;;;;;;;;;;;;;;;;;;
"brody1995";;;"Windows 7";"Rachel's Experiment (D.T.)";"1.0";"2";"1";"1";"2";"1";"1";"2014-10-16 11:24:22.962";"2014-10-16 11:37:28.127";"1";"0";"0";"134";"133";"module.training_block4.exec-2928.GoNoGo4";;;;;;;;;;;;;;;;;;;;;;;;;;;;;;;;;;;;;;;;;;;;;;;;;;;;;;;;;;;"1261";"2014-10-16 11:31:40.854";"NST_correctLoc";"14";"0";"FINISHED";"LEFT";"success";"353";"0";"2014-10-16 11:31:39.591";"2";;;;;;;;;;;;;;;;;;;;;
"brody1995";;;"Windows 7";"Rachel's Experiment (D.T.)";"1.0";"2";"1";"1";"2";"1";"1";"2014-10-16 11:24:22.962";"2014-10-16 11:37:28.127";"1";"0";"0";"135";"134";"module.training_block4.exec-2928.GoNoGo4";;;;;;;;;;;;;;;;;;;;;;;;;;;;;;;;;;;;;;;;;;;;;;;;;;;;;;;;;;;"1262";"2014-10-16 11:31:43.382";"NST_correctLoc";"21";"1";"FINISHED";"RIGHT";"success";"314";"0";"2014-10-16 11:31:42.118";"3";;;;;;;;;;;;;;;;;;;;;
"brody1995";;;"Windows 7";"Rachel's Experiment (D.T.)";"1.0";"2";"1";"1";"2";"1";"1";"2014-10-16 11:24:22.962";"2014-10-16 11:37:28.127";"1";"0";"0";"136";"135";"module.training_block4.exec-2928.GoNoGo4";;;;;;;;;;;;;;;;;;;;;;;;;;;;;;;;;;;;;;;;;;;;;;;;;;;;;;;;;;;"1262";"2014-10-16 11:31:45.909";"NST_correctLoc";"31";"1";"FINISHED";"RIGHT";"success";"394";"0";"2014-10-16 11:31:44.645";"3";;;;;;;;;;;;;;;;;;;;;
"brody1995";;;"Windows 7";"Rachel's Experiment (D.T.)";"1.0";"2";"1";"1";"2";"1";"1";"2014-10-16 11:24:22.962";"2014-10-16 11:37:28.127";"1";"0";"0";"137";"136";"module.training_block4.exec-2928.GoNoGo4";;;;;;;;;;;;;;;;;;;;;;;;;;;;;;;;;;;;;;;;;;;;;;;;;;;;;;;;;;;"1261";"2014-10-16 11:31:48.436";"NST_correctLoc";"25";"0";"FINISHED";"LEFT";"success";"355";"0";"2014-10-16 11:31:47.172";"3";;;;;;;;;;;;;;;;;;;;;
"brody1995";;;"Windows 7";"Rachel's Experiment (D.T.)";"1.0";"2";"1";"1";"2";"1";"1";"2014-10-16 11:24:22.962";"2014-10-16 11:37:28.127";"1";"0";"0";"138";"137";"module.training_block4.exec-2928.GoNoGo4";;;;;;;;;;;;;;;;;;;;;;;;;;;;;;;;;;;;;;;;;;;;;;;;;;;;;;;;;;;"1261";"2014-10-16 11:31:50.963";"NST_correctLoc";"29";"0";"FINISHED";"LEFT";"success";"340";"0";"2014-10-16 11:31:49.700";"3";;;;;;;;;;;;;;;;;;;;;
"brody1995";;;"Windows 7";"Rachel's Experiment (D.T.)";"1.0";"2";"1";"1";"2";"1";"1";"2014-10-16 11:24:22.962";"2014-10-16 11:37:28.127";"1";"0";"0";"139";"138";"module.training_block4.exec-2928.GoNoGo4";;;;;;;;;;;;;;;;;;;;;;;;;;;;;;;;;;;;;;;;;;;;;;;;;;;;;;;;;;;"1261";"2014-10-16 11:31:53.490";"NST_correctLoc";"27";"1";"FINISHED";"RIGHT";"success";"389";"0";"2014-10-16 11:31:52.227";"3";;;;;;;;;;;;;;;;;;;;;
"brody1995";;;"Windows 7";"Rachel's Experiment (D.T.)";"1.0";"2";"1";"1";"2";"1";"1";"2014-10-16 11:24:22.962";"2014-10-16 11:37:28.127";"1";"0";"0";"140";"139";"module.training_block4.exec-2928.GoNoGo4";;;;;;;;;;;;;;;;;;;;;;;;;;;;;;;;;;;;;;;;;;;;;;;;;;;;;;;;;;;"1261";"2014-10-16 11:31:56.033";"NST_correctLoc";"13";"0";"FINISHED";"LEFT";"success";"366";"0";"2014-10-16 11:31:54.770";"2";;;;;;;;;;;;;;;;;;;;;
"brody1995";;;"Windows 7";"Rachel's Experiment (D.T.)";"1.0";"2";"1";"1";"2";"1";"1";"2014-10-16 11:24:22.962";"2014-10-16 11:37:28.127";"1";"0";"0";"141";"140";"module.training_block4.exec-2928.GoNoGo4";;;;;;;;;;;;;;;;;;;;;;;;;;;;;;;;;;;;;;;;;;;;;;;;;;;;;;;;;;;"1262";"2014-10-16 11:31:58.560";"NST_correctLoc";"26";"0";"FINISHED";"LEFT";"success";"335";"0";"2014-10-16 11:31:57.297";"3";;;;;;;;;;;;;;;;;;;;;
"brody1995";;;"Windows 7";"Rachel's Experiment (D.T.)";"1.0";"2";"1";"1";"2";"1";"1";"2014-10-16 11:24:22.962";"2014-10-16 11:37:28.127";"1";"0";"0";"142";"141";"module.training_block4.exec-2928.GoNoGo4";;;;;;;;;;;;;;;;;;;;;;;;;;;;;;;;;;;;;;;;;;;;;;;;;;;;;;;;;;;"1261";"2014-10-16 11:32:01.088";"NST_correctLoc";"24";"0";"FINISHED";"LEFT";"success";"391";"0";"2014-10-16 11:31:59.824";"3";;;;;;;;;;;;;;;;;;;;;
"brody1995";;;"Windows 7";"Rachel's Experiment (D.T.)";"1.0";"2";"1";"1";"2";"1";"1";"2014-10-16 11:24:22.962";"2014-10-16 11:37:28.127";"1";"0";"0";"143";"142";"module.training_block4.exec-2928.GoNoGo4";;;;;;;;;;;;;;;;;;;;;;;;;;;;;;;;;;;;;;;;;;;;;;;;;;;;;;;;;;;"1261";"2014-10-16 11:32:03.630";"NST_correctLoc";"11";"0";"FINISHED";"LEFT";"success";"305";"0";"2014-10-16 11:32:02.367";"2";;;;;;;;;;;;;;;;;;;;;
"brody1995";;;"Windows 7";"Rachel's Experiment (D.T.)";"1.0";"2";"1";"1";"2";"1";"1";"2014-10-16 11:24:22.962";"2014-10-16 11:37:28.127";"1";"0";"0";"144";"143";"module.training_block4.exec-2928.GoNoGo4";;;;;;;;;;;;;;;;;;;;;;;;;;;;;;;;;;;;;;;;;;;;;;;;;;;;;;;;;;;"1262";"2014-10-16 11:32:06.158";"NST_correctLoc";"5";"0";"FINISHED";"LEFT";"success";"329";"0";"2014-10-16 11:32:04.894";"1";;;;;;;;;;;;;;;;;;;;;
"brody1995";;;"Windows 7";"Rachel's Experiment (D.T.)";"1.0";"2";"1";"1";"2";"1";"1";"2014-10-16 11:24:22.962";"2014-10-16 11:37:28.127";"1";"0";"0";"145";"144";"module.training_block4.exec-2928.GoNoGo4";;;;;;;;;;;;;;;;;;;;;;;;;;;;;;;;;;;;;;;;;;;;;;;;;;;;;;;;;;;"1261";"2014-10-16 11:32:08.685";"NST_correctLoc";"30";"0";"FINISHED";"LEFT";"success";"322";"0";"2014-10-16 11:32:07.421";"3";;;;;;;;;;;;;;;;;;;;;
"brody1995";;;"Windows 7";"Rachel's Experiment (D.T.)";"1.0";"2";"1";"1";"2";"1";"1";"2014-10-16 11:24:22.962";"2014-10-16 11:37:28.127";"1";"0";"0";"146";"145";"module.training_block4.exec-2928.GoNoGo4";;;;;;;;;;;;;;;;;;;;;;;;;;;;;;;;;;;;;;;;;;;;;;;;;;;;;;;;;;;"1261";"2014-10-16 11:32:11.212";"NST_correctLoc";"35";"1";"FINISHED";"RIGHT";"success";"315";"0";"2014-10-16 11:32:09.948";"3";;;;;;;;;;;;;;;;;;;;;
"brody1995";;;"Windows 7";"Rachel's Experiment (D.T.)";"1.0";"2";"1";"1";"2";"1";"1";"2014-10-16 11:24:22.962";"2014-10-16 11:37:28.127";"1";"0";"0";"147";"146";"module.training_block4.exec-2928.GoNoGo4";;;;;;;;;;;;;;;;;;;;;;;;;;;;;;;;;;;;;;;;;;;;;;;;;;;;;;;;;;;"1261";"2014-10-16 11:32:13.739";"NST_correctLoc";"0";"1";"FINISHED";"RIGHT";"success";"340";"0";"2014-10-16 11:32:12.476";"1";;;;;;;;;;;;;;;;;;;;;
"brody1995";;;"Windows 7";"Rachel's Experiment (D.T.)";"1.0";"2";"1";"1";"2";"1";"1";"2014-10-16 11:24:22.962";"2014-10-16 11:37:28.127";"1";"0";"0";"148";"147";"module.training_block4.exec-2928.GoNoGo4";;;;;;;;;;;;;;;;;;;;;;;;;;;;;;;;;;;;;;;;;;;;;;;;;;;;;;;;;;;"1261";"2014-10-16 11:32:16.298";"NST_correctLoc";"6";"1";"FINISHED";"RIGHT";"success";"325";"0";"2014-10-16 11:32:15.034";"1";;;;;;;;;;;;;;;;;;;;;
"brody1995";;;"Windows 7";"Rachel's Experiment (D.T.)";"1.0";"2";"1";"1";"2";"1";"1";"2014-10-16 11:24:22.962";"2014-10-16 11:37:28.127";"1";"0";"0";"149";"148";"module.training_block4.exec-2928.GoNoGo4";;;;;;;;;;;;;;;;;;;;;;;;;;;;;;;;;;;;;;;;;;;;;;;;;;;;;;;;;;;"1261";"2014-10-16 11:32:18.825";"NST_correctLoc";"8";"0";"FINISHED";"LEFT";"success";"302";"0";"2014-10-16 11:32:17.561";"1";;;;;;;;;;;;;;;;;;;;;
"brody1995";;;"Windows 7";"Rachel's Experiment (D.T.)";"1.0";"2";"1";"1";"2";"1";"1";"2014-10-16 11:24:22.962";"2014-10-16 11:37:28.127";"1";"0";"0";"150";"149";"module.training_block4.exec-2928.GoNoGo4";;;;;;;;;;;;;;;;;;;;;;;;;;;;;;;;;;;;;;;;;;;;;;;;;;;;;;;;;;;"1261";"2014-10-16 11:32:21.368";"NST_correctLoc";"3";"0";"FINISHED";"LEFT";"success";"327";"0";"2014-10-16 11:32:20.104";"1";;;;;;;;;;;;;;;;;;;;;
"brody1995";;;"Windows 7";"Rachel's Experiment (D.T.)";"1.0";"2";"1";"1";"2";"1";"1";"2014-10-16 11:24:22.962";"2014-10-16 11:37:28.127";"1";"0";"0";"151";"150";"module.training_block4.exec-2928.GoNoGo4";;;;;;;;;;;;;;;;;;;;;;;;;;;;;;;;;;;;;;;;;;;;;;;;;;;;;;;;;;;"1261";"2014-10-16 11:32:23.895";"NST_correctLoc";"22";"0";"FINISHED";"LEFT";"success";"328";"0";"2014-10-16 11:32:22.631";"3";;;;;;;;;;;;;;;;;;;;;
"brody1995";;;"Windows 7";"Rachel's Experiment (D.T.)";"1.0";"2";"1";"1";"2";"1";"1";"2014-10-16 11:24:22.962";"2014-10-16 11:37:28.127";"1";"0";"0";"152";"151";"module.training_block4.exec-2928.GoNoGo4";;;;;;;;;;;;;;;;;;;;;;;;;;;;;;;;;;;;;;;;;;;;;;;;;;;;;;;;;;;"1261";"2014-10-16 11:32:26.422";"NST_correctLoc";"10";"0";"FINISHED";"LEFT";"success";"329";"0";"2014-10-16 11:32:25.158";"2";;;;;;;;;;;;;;;;;;;;;
"brody1995";;;"Windows 7";"Rachel's Experiment (D.T.)";"1.0";"2";"1";"1";"2";"1";"1";"2014-10-16 11:24:22.962";"2014-10-16 11:37:28.127";"1";"0";"0";"153";"152";"module.training_block4.exec-2928.GoNoGo4";;;;;;;;;;;;;;;;;;;;;;;;;;;;;;;;;;;;;;;;;;;;;;;;;;;;;;;;;;;"1261";"2014-10-16 11:32:28.980";"NST_correctLoc";"32";"0";"FINISHED";"LEFT";"success";"354";"0";"2014-10-16 11:32:27.717";"3";;;;;;;;;;;;;;;;;;;;;
"brody1995";;;"Windows 7";"Rachel's Experiment (D.T.)";"1.0";"2";"1";"1";"2";"1";"1";"2014-10-16 11:24:22.962";"2014-10-16 11:37:28.127";"1";"0";"0";"154";"153";"module.training_block4.exec-2928.GoNoGo4";;;;;;;;;;;;;;;;;;;;;;;;;;;;;;;;;;;;;;;;;;;;;;;;;;;;;;;;;;;"1257";"2014-10-16 11:32:31.508";"NST_correctLoc";"9";"0";"FINISHED";"LEFT";"success";"358";"0";"2014-10-16 11:32:30.244";"2";;;;;;;;;;;;;;;;;;;;;
"brody1995";;;"Windows 7";"Rachel's Experiment (D.T.)";"1.0";"2";"1";"1";"2";"1";"1";"2014-10-16 11:24:22.962";"2014-10-16 11:37:28.127";"1";"0";"0";"155";"154";"module.training_block4.exec-2928.GoNoGo4";;;;;;;;;;;;;;;;;;;;;;;;;;;;;;;;;;;;;;;;;;;;;;;;;;;;;;;;;;;"1261";"2014-10-16 11:32:34.050";"NST_correctLoc";"33";"1";"FINISHED";"RIGHT";"success";"324";"0";"2014-10-16 11:32:32.787";"3";;;;;;;;;;;;;;;;;;;;;
"brody1995";;;"Windows 7";"Rachel's Experiment (D.T.)";"1.0";"2";"1";"1";"2";"1";"1";"2014-10-16 11:24:22.962";"2014-10-16 11:37:28.127";"1";"0";"0";"156";"155";"module.training_block4.exec-2928.GoNoGo4";;;;;;;;;;;;;;;;;;;;;;;;;;;;;;;;;;;;;;;;;;;;;;;;;;;;;;;;;;;"1261";"2014-10-16 11:32:36.578";"NST_correctLoc";"1";"0";"FINISHED";"LEFT";"success";"365";"0";"2014-10-16 11:32:35.314";"1";;;;;;;;;;;;;;;;;;;;;
"brody1995";;;"Windows 7";"Rachel's Experiment (D.T.)";"1.0";"2";"1";"1";"2";"1";"1";"2014-10-16 11:24:22.962";"2014-10-16 11:37:28.127";"1";"0";"0";"157";"156";"module.training_block4.exec-2928.GoNoGo4";;;;;;;;;;;;;;;;;;;;;;;;;;;;;;;;;;;;;;;;;;;;;;;;;;;;;;;;;;;"1257";"2014-10-16 11:32:39.105";"NST_correctLoc";"4";"1";"FINISHED";"RIGHT";"success";"338";"0";"2014-10-16 11:32:37.841";"1";;;;;;;;;;;;;;;;;;;;;
"brody1995";;;"Windows 7";"Rachel's Experiment (D.T.)";"1.0";"2";"1";"1";"2";"1";"1";"2014-10-16 11:24:22.962";"2014-10-16 11:37:28.127";"1";"0";"0";"158";"157";"module.training_block4.exec-2928.GoNoGo4";;;;;;;;;;;;;;;;;;;;;;;;;;;;;;;;;;;;;;;;;;;;;;;;;;;;;;;;;;;"1261";"2014-10-16 11:32:41.663";"NST_correctLoc";"20";"1";"FINISHED";"RIGHT";"success";"359";"0";"2014-10-16 11:32:40.400";"3";;;;;;;;;;;;;;;;;;;;;
"brody1995";;;"Windows 7";"Rachel's Experiment (D.T.)";"1.0";"2";"1";"1";"2";"1";"1";"2014-10-16 11:24:22.962";"2014-10-16 11:37:28.127";"1";"0";"0";"159";"158";"module.training_block4.exec-2928.GoNoGo4";;;;;;;;;;;;;;;;;;;;;;;;;;;;;;;;;;;;;;;;;;;;;;;;;;;;;;;;;;;"1261";"2014-10-16 11:32:44.190";"NST_correctLoc";"28";"0";"FINISHED";"LEFT";"success";"296";"0";"2014-10-16 11:32:42.927";"3";;;;;;;;;;;;;;;;;;;;;
"brody1995";;;"Windows 7";"Rachel's Experiment (D.T.)";"1.0";"2";"1";"1";"2";"1";"1";"2014-10-16 11:24:22.962";"2014-10-16 11:37:28.127";"1";"0";"0";"160";"159";"module.devaluation_practice.exec-5111.devalPractice";;;;;;;;;;;;"14919";"2014-10-16 11:33:30.289";"0";"8";"6";"7";"3290";"3563";"5007";"2014-10-16 11:33:15.359";;;;;;;;;;;;;;;;;;;;;;;;;;;;;;;;;;;;;;;;;;;;;;;;;;;;;;;;;;;;;;;;;;;;;;
"brody1995";;;"Windows 7";"Rachel's Experiment (D.T.)";"1.0";"2";"1";"1";"2";"1";"1";"2014-10-16 11:24:22.962";"2014-10-16 11:37:28.127";"1";"0";"0";"161";"160";"module.devaluation_practice.exec-5111.devalPractice";;;;;;;;;;;;"10595";"2014-10-16 11:33:40.912";"1";"5";"4";"6";"2561";"1285";"3722";"2014-10-16 11:33:30.320";;;;;;;;;;;;;;;;;;;;;;;;;;;;;;;;;;;;;;;;;;;;;;;;;;;;;;;;;;;;;;;;;;;;;;
"brody1995";;;"Windows 7";"Rachel's Experiment (D.T.)";"1.0";"2";"1";"1";"2";"1";"1";"2014-10-16 11:24:22.962";"2014-10-16 11:37:28.127";"1";"0";"0";"162";"161";"module.devaluation_practice.exec-5111.devalPractice";;;;;;;;;;;;"9411";"2014-10-16 11:33:50.350";"2";"6";"6";"8";"1658";"1856";"2859";"2014-10-16 11:33:40.943";;;;;;;;;;;;;;;;;;;;;;;;;;;;;;;;;;;;;;;;;;;;;;;;;;;;;;;;;;;;;;;;;;;;;;
"brody1995";;;"Windows 7";"Rachel's Experiment (D.T.)";"1.0";"2";"1";"1";"2";"1";"1";"2014-10-16 11:24:22.962";"2014-10-16 11:37:28.127";"1";"0";"0";"163";"162";"module.devaluation_practice.exec-5111.devalPractice";;;;;;;;;;;;"7477";"2014-10-16 11:33:57.854";"3";"4";"5";"6";"1619";"1560";"1276";"2014-10-16 11:33:50.366";;;;;;;;;;;;;;;;;;;;;;;;;;;;;;;;;;;;;;;;;;;;;;;;;;;;;;;;;;;;;;;;;;;;;;
"brody1995";;;"Windows 7";"Rachel's Experiment (D.T.)";"1.0";"2";"1";"1";"2";"1";"1";"2014-10-16 11:24:22.962";"2014-10-16 11:37:28.127";"1";"0";"0";"164";"163";"module.devaluation_block1.exec-4260.deval1";"9434";"2014-10-16 11:34:14.078";"16";"3";"2";"4";"2336";"2106";"1954";"2014-10-16 11:34:04.640";"2";;;;;;;;;;;;;;;;;;;;;;;;;;;;;;;;;;;;;;;;;;;;;;;;;;;;;;;;;;;;;;;;;;;;;;;;;;;;;;;;
"brody1995";;;"Windows 7";"Rachel's Experiment (D.T.)";"1.0";"2";"1";"1";"2";"1";"1";"2014-10-16 11:24:22.962";"2014-10-16 11:37:28.127";"1";"0";"0";"165";"164";"module.devaluation_block1.exec-4260.deval1";"9141";"2014-10-16 11:34:23.235";"14";"6";"7";"8";"1452";"1781";"2878";"2014-10-16 11:34:14.093";"2";;;;;;;;;;;;;;;;;;;;;;;;;;;;;;;;;;;;;;;;;;;;;;;;;;;;;;;;;;;;;;;;;;;;;;;;;;;;;;;;
"brody1995";;;"Windows 7";"Rachel's Experiment (D.T.)";"1.0";"2";"1";"1";"2";"1";"1";"2014-10-16 11:24:22.962";"2014-10-16 11:37:28.127";"1";"0";"0";"166";"165";"module.devaluation_block1.exec-4260.deval1";"7664";"2014-10-16 11:34:30.926";"6";"7";"7";"7";"2639";"850";"1136";"2014-10-16 11:34:23.266";"1";;;;;;;;;;;;;;;;;;;;;;;;;;;;;;;;;;;;;;;;;;;;;;;;;;;;;;;;;;;;;;;;;;;;;;;;;;;;;;;;
"brody1995";;;"Windows 7";"Rachel's Experiment (D.T.)";"1.0";"2";"1";"1";"2";"1";"1";"2014-10-16 11:24:22.962";"2014-10-16 11:37:28.127";"1";"0";"0";"167";"166";"module.devaluation_block1.exec-4260.deval1";"8007";"2014-10-16 11:34:38.960";"21";"8";"9";"9";"1660";"1253";"2059";"2014-10-16 11:34:30.957";"3";;;;;;;;;;;;;;;;;;;;;;;;;;;;;;;;;;;;;;;;;;;;;;;;;;;;;;;;;;;;;;;;;;;;;;;;;;;;;;;;
"brody1995";;;"Windows 7";"Rachel's Experiment (D.T.)";"1.0";"2";"1";"1";"2";"1";"1";"2014-10-16 11:24:22.962";"2014-10-16 11:37:28.127";"1";"0";"0";"168";"167";"module.devaluation_block1.exec-4260.deval1";"8437";"2014-10-16 11:34:47.415";"19";"7";"8";"7";"969";"2112";"2335";"2014-10-16 11:34:38.975";"3";;;;;;;;;;;;;;;;;;;;;;;;;;;;;;;;;;;;;;;;;;;;;;;;;;;;;;;;;;;;;;;;;;;;;;;;;;;;;;;;
"brody1995";;;"Windows 7";"Rachel's Experiment (D.T.)";"1.0";"2";"1";"1";"2";"1";"1";"2014-10-16 11:24:22.962";"2014-10-16 11:37:28.127";"1";"0";"0";"169";"168";"module.devaluation_block1.exec-4260.deval1";"8380";"2014-10-16 11:34:55.823";"7";"4";"3";"4";"2986";"1183";"1196";"2014-10-16 11:34:47.431";"1";;;;;;;;;;;;;;;;;;;;;;;;;;;;;;;;;;;;;;;;;;;;;;;;;;;;;;;;;;;;;;;;;;;;;;;;;;;;;;;;
"brody1995";;;"Windows 7";"Rachel's Experiment (D.T.)";"1.0";"2";"1";"1";"2";"1";"1";"2014-10-16 11:24:22.962";"2014-10-16 11:37:28.127";"1";"0";"0";"170";"169";"module.devaluation_block1.exec-4260.deval1";"9019";"2014-10-16 11:35:04.856";"17";"2";"3";"4";"2114";"1191";"2693";"2014-10-16 11:34:55.839";"2";;;;;;;;;;;;;;;;;;;;;;;;;;;;;;;;;;;;;;;;;;;;;;;;;;;;;;;;;;;;;;;;;;;;;;;;;;;;;;;;
"brody1995";;;"Windows 7";"Rachel's Experiment (D.T.)";"1.0";"2";"1";"1";"2";"1";"1";"2014-10-16 11:24:22.962";"2014-10-16 11:37:28.127";"1";"0";"0";"171";"170";"module.devaluation_block1.exec-4260.deval1";"7380";"2014-10-16 11:35:12.250";"26";"7";"7";"8";"1193";"1399";"1765";"2014-10-16 11:35:04.871";"3";;;;;;;;;;;;;;;;;;;;;;;;;;;;;;;;;;;;;;;;;;;;;;;;;;;;;;;;;;;;;;;;;;;;;;;;;;;;;;;;
"brody1995";;;"Windows 7";"Rachel's Experiment (D.T.)";"1.0";"2";"1";"1";"2";"1";"1";"2014-10-16 11:24:22.962";"2014-10-16 11:37:28.127";"1";"0";"0";"172";"171";"module.devaluation_block1.exec-4260.deval1";"6461";"2014-10-16 11:35:18.740";"0";"7";"6";"7";"1657";"766";"993";"2014-10-16 11:35:12.281";"1";;;;;;;;;;;;;;;;;;;;;;;;;;;;;;;;;;;;;;;;;;;;;;;;;;;;;;;;;;;;;;;;;;;;;;;;;;;;;;;;
"brody1995";;;"Windows 7";"Rachel's Experiment (D.T.)";"1.0";"2";"1";"1";"2";"1";"1";"2014-10-16 11:24:22.962";"2014-10-16 11:37:28.127";"1";"0";"0";"173";"172";"module.devaluation_block1.exec-4260.deval1";"7133";"2014-10-16 11:35:25.885";"12";"6";"7";"7";"1917";"960";"1228";"2014-10-16 11:35:18.755";"2";;;;;;;;;;;;;;;;;;;;;;;;;;;;;;;;;;;;;;;;;;;;;;;;;;;;;;;;;;;;;;;;;;;;;;;;;;;;;;;;
"brody1995";;;"Windows 7";"Rachel's Experiment (D.T.)";"1.0";"2";"1";"1";"2";"1";"1";"2014-10-16 11:24:22.962";"2014-10-16 11:37:28.127";"1";"0";"0";"174";"173";"module.devaluation_block1.exec-4260.deval1";"6788";"2014-10-16 11:35:32.702";"10";"7";"7";"7";"1308";"1465";"987";"2014-10-16 11:35:25.900";"2";;;;;;;;;;;;;;;;;;;;;;;;;;;;;;;;;;;;;;;;;;;;;;;;;;;;;;;;;;;;;;;;;;;;;;;;;;;;;;;;
"brody1995";;;"Windows 7";"Rachel's Experiment (D.T.)";"1.0";"2";"1";"1";"2";"1";"1";"2014-10-16 11:24:22.962";"2014-10-16 11:37:28.127";"1";"0";"0";"175";"174";"module.devaluation_block1.exec-4260.deval1";"8492";"2014-10-16 11:35:41.220";"23";"6";"3";"4";"2643";"1023";"1804";"2014-10-16 11:35:32.733";"3";;;;;;;;;;;;;;;;;;;;;;;;;;;;;;;;;;;;;;;;;;;;;;;;;;;;;;;;;;;;;;;;;;;;;;;;;;;;;;;;
"brody1995";;;"Windows 7";"Rachel's Experiment (D.T.)";"1.0";"2";"1";"1";"2";"1";"1";"2014-10-16 11:24:22.962";"2014-10-16 11:37:28.127";"1";"0";"0";"176";"175";"module.devaluation_block1.exec-4260.deval1";"6365";"2014-10-16 11:35:47.616";"25";"8";"8";"8";"1333";"996";"1021";"2014-10-16 11:35:41.235";"3";;;;;;;;;;;;;;;;;;;;;;;;;;;;;;;;;;;;;;;;;;;;;;;;;;;;;;;;;;;;;;;;;;;;;;;;;;;;;;;;
"brody1995";;;"Windows 7";"Rachel's Experiment (D.T.)";"1.0";"2";"1";"1";"2";"1";"1";"2014-10-16 11:24:22.962";"2014-10-16 11:37:28.127";"1";"0";"0";"177";"176";"module.devaluation_block1.exec-4260.deval1";"7013";"2014-10-16 11:35:54.636";"4";"9";"9";"9";"1281";"1491";"1199";"2014-10-16 11:35:47.631";"1";;;;;;;;;;;;;;;;;;;;;;;;;;;;;;;;;;;;;;;;;;;;;;;;;;;;;;;;;;;;;;;;;;;;;;;;;;;;;;;;
"brody1995";;;"Windows 7";"Rachel's Experiment (D.T.)";"1.0";"2";"1";"1";"2";"1";"1";"2014-10-16 11:24:22.962";"2014-10-16 11:37:28.127";"1";"0";"0";"178";"177";"module.devaluation_block1.exec-4260.deval1";"7621";"2014-10-16 11:36:02.280";"15";"3";"3";"2";"1109";"2283";"1207";"2014-10-16 11:35:54.651";"2";;;;;;;;;;;;;;;;;;;;;;;;;;;;;;;;;;;;;;;;;;;;;;;;;;;;;;;;;;;;;;;;;;;;;;;;;;;;;;;;
"brody1995";;;"Windows 7";"Rachel's Experiment (D.T.)";"1.0";"2";"1";"1";"2";"1";"1";"2014-10-16 11:24:22.962";"2014-10-16 11:37:28.127";"1";"0";"0";"179";"178";"module.devaluation_block1.exec-4260.deval1";"5571";"2014-10-16 11:36:07.880";"20";"6";"6";"6";"1178";"551";"813";"2014-10-16 11:36:02.311";"3";;;;;;;;;;;;;;;;;;;;;;;;;;;;;;;;;;;;;;;;;;;;;;;;;;;;;;;;;;;;;;;;;;;;;;;;;;;;;;;;
"brody1995";;;"Windows 7";"Rachel's Experiment (D.T.)";"1.0";"2";"1";"1";"2";"1";"1";"2014-10-16 11:24:22.962";"2014-10-16 11:37:28.127";"1";"0";"0";"180";"179";"module.devaluation_block1.exec-4260.deval1";"8147";"2014-10-16 11:36:16.054";"5";"8";"7";"5";"1417";"2643";"1043";"2014-10-16 11:36:07.911";"1";;;;;;;;;;;;;;;;;;;;;;;;;;;;;;;;;;;;;;;;;;;;;;;;;;;;;;;;;;;;;;;;;;;;;;;;;;;;;;;;
"brody1995";;;"Windows 7";"Rachel's Experiment (D.T.)";"1.0";"2";"1";"1";"2";"1";"1";"2014-10-16 11:24:22.962";"2014-10-16 11:37:28.127";"1";"0";"0";"181";"180";"module.devaluation_block1.exec-4260.deval1";"7757";"2014-10-16 11:36:23.839";"2";"7";"7";"5";"1050";"1745";"1938";"2014-10-16 11:36:16.070";"1";;;;;;;;;;;;;;;;;;;;;;;;;;;;;;;;;;;;;;;;;;;;;;;;;;;;;;;;;;;;;;;;;;;;;;;;;;;;;;;;
"brody1995";;;"Windows 7";"Rachel's Experiment (D.T.)";"1.0";"2";"1";"1";"2";"1";"1";"2014-10-16 11:24:22.962";"2014-10-16 11:37:28.127";"1";"0";"0";"182";"181";"module.devaluation_block1.exec-4260.deval1";"5235";"2014-10-16 11:36:29.080";"8";"6";"6";"6";"922";"512";"775";"2014-10-16 11:36:23.854";"1";;;;;;;;;;;;;;;;;;;;;;;;;;;;;;;;;;;;;;;;;;;;;;;;;;;;;;;;;;;;;;;;;;;;;;;;;;;;;;;;
"brody1995";;;"Windows 7";"Rachel's Experiment (D.T.)";"1.0";"2";"1";"1";"2";"1";"1";"2014-10-16 11:24:22.962";"2014-10-16 11:37:28.127";"1";"0";"0";"183";"182";"module.devaluation_block1.exec-4260.deval1";"7012";"2014-10-16 11:36:36.116";"18";"4";"4";"5";"889";"1881";"1213";"2014-10-16 11:36:29.112";"3";;;;;;;;;;;;;;;;;;;;;;;;;;;;;;;;;;;;;;;;;;;;;;;;;;;;;;;;;;;;;;;;;;;;;;;;;;;;;;;;
"brody1995";;;"Windows 7";"Rachel's Experiment (D.T.)";"1.0";"2";"1";"1";"2";"1";"1";"2014-10-16 11:24:22.962";"2014-10-16 11:37:28.127";"1";"0";"0";"184";"183";"module.devaluation_block1.exec-4260.deval1";"7205";"2014-10-16 11:36:43.339";"13";"7";"6";"8";"1181";"2022";"984";"2014-10-16 11:36:36.132";"2";;;;;;;;;;;;;;;;;;;;;;;;;;;;;;;;;;;;;;;;;;;;;;;;;;;;;;;;;;;;;;;;;;;;;;;;;;;;;;;;
"brody1995";;;"Windows 7";"Rachel's Experiment (D.T.)";"1.0";"2";"1";"1";"2";"1";"1";"2014-10-16 11:24:22.962";"2014-10-16 11:37:28.127";"1";"0";"0";"185";"184";"module.devaluation_block1.exec-4260.deval1";"6281";"2014-10-16 11:36:49.641";"9";"8";"8";"8";"1198";"1041";"1010";"2014-10-16 11:36:43.370";"2";;;;;;;;;;;;;;;;;;;;;;;;;;;;;;;;;;;;;;;;;;;;;;;;;;;;;;;;;;;;;;;;;;;;;;;;;;;;;;;;
"brody1995";;;"Windows 7";"Rachel's Experiment (D.T.)";"1.0";"2";"1";"1";"2";"1";"1";"2014-10-16 11:24:22.962";"2014-10-16 11:37:28.127";"1";"0";"0";"186";"185";"module.devaluation_block1.exec-4260.deval1";"7193";"2014-10-16 11:36:56.864";"24";"9";"9";"9";"1208";"1549";"1412";"2014-10-16 11:36:49.672";"3";;;;;;;;;;;;;;;;;;;;;;;;;;;;;;;;;;;;;;;;;;;;;;;;;;;;;;;;;;;;;;;;;;;;;;;;;;;;;;;;
"brody1995";;;"Windows 7";"Rachel's Experiment (D.T.)";"1.0";"2";"1";"1";"2";"1";"1";"2014-10-16 11:24:22.962";"2014-10-16 11:37:28.127";"1";"0";"0";"187";"186";"module.devaluation_block1.exec-4260.deval1";"6674";"2014-10-16 11:37:03.572";"22";"7";"6";"7";"1537";"983";"1133";"2014-10-16 11:36:56.895";"3";;;;;;;;;;;;;;;;;;;;;;;;;;;;;;;;;;;;;;;;;;;;;;;;;;;;;;;;;;;;;;;;;;;;;;;;;;;;;;;;
"brody1995";;;"Windows 7";"Rachel's Experiment (D.T.)";"1.0";"2";"1";"1";"2";"1";"1";"2014-10-16 11:24:22.962";"2014-10-16 11:37:28.127";"1";"0";"0";"188";"187";"module.devaluation_block1.exec-4260.deval1";"6668";"2014-10-16 11:37:10.249";"11";"3";"4";"3";"1508";"1104";"1040";"2014-10-16 11:37:03.588";"2";;;;;;;;;;;;;;;;;;;;;;;;;;;;;;;;;;;;;;;;;;;;;;;;;;;;;;;;;;;;;;;;;;;;;;;;;;;;;;;;
"brody1995";;;"Windows 7";"Rachel's Experiment (D.T.)";"1.0";"2";"1";"1";"2";"1";"1";"2014-10-16 11:24:22.962";"2014-10-16 11:37:28.127";"1";"0";"0";"189";"188";"module.devaluation_block1.exec-4260.deval1";"6054";"2014-10-16 11:37:16.333";"3";"8";"5";"8";"1176";"717";"1131";"2014-10-16 11:37:10.280";"1";;;;;;;;;;;;;;;;;;;;;;;;;;;;;;;;;;;;;;;;;;;;;;;;;;;;;;;;;;;;;;;;;;;;;;;;;;;;;;;;
"brody1995";;;"Windows 7";"Rachel's Experiment (D.T.)";"1.0";"2";"1";"1";"2";"1";"1";"2014-10-16 11:24:22.962";"2014-10-16 11:37:28.127";"1";"0";"0";"190";"189";"module.devaluation_block1.exec-4260.deval1";"8869";"2014-10-16 11:37:25.209";"1";"6";"5";"6";"2491";"885";"2472";"2014-10-16 11:37:16.348";"1";;;;;;;;;;;;;;;;;;;;;;;;;;;;;;;;;;;;;;;;;;;;;;;;;;;;;;;;;;;;;;;;;;;;;;;;;;;;;;;;
