"user.name";"user.yearOfBirth";"user.sex";"user.osName";"module.name";"module.version";"module.online.subject.code";"module.online.study.id";"module.online.module.nr";"module.online.group.nr";"session.id";"session.index";"session.startTime";"session.endTime";"session.completed";"session.node-1274.DevalQorder";"session.node-9180.conditionType";"trial.id";"trial.index";"trial.name";"trial.deval1.durationTime";"trial.deval1.endTime";"trial.deval1.icon";"trial.deval1.Resp_Attractive";"trial.deval1.Resp_Eat";"trial.deval1.Resp_Taste";"trial.deval1.RT_Attractive";"trial.deval1.RT_Eat";"trial.deval1.RT_Taste";"trial.deval1.startTime";"trial.deval1.stimulus type";"trial.devalPractice.durationTime";"trial.devalPractice.endTime";"trial.devalPractice.icon";"trial.devalPractice.Resp_Attractive";"trial.devalPractice.Resp_Eat";"trial.devalPractice.Resp_Taste";"trial.devalPractice.RT_Attractive";"trial.devalPractice.RT_Eat";"trial.devalPractice.RT_Taste";"trial.devalPractice.startTime";"trial.devalPractice.stimulus type";"trial.GoNoGo1.durationTime";"trial.GoNoGo1.endTime";"trial.GoNoGo1.Error Type";"trial.GoNoGo1.icon";"trial.GoNoGo1.location";"trial.GoNoGo1.outcome";"trial.GoNoGo1.response";"trial.GoNoGo1.result";"trial.GoNoGo1.RT";"trial.GoNoGo1.signal";"trial.GoNoGo1.startTime";"trial.GoNoGo1.stimulus type";"trial.GoNoGo2.durationTime";"trial.GoNoGo2.endTime";"trial.GoNoGo2.Error Type";"trial.GoNoGo2.icon";"trial.GoNoGo2.location";"trial.GoNoGo2.outcome";"trial.GoNoGo2.response";"trial.GoNoGo2.result";"trial.GoNoGo2.RT";"trial.GoNoGo2.signal";"trial.GoNoGo2.startTime";"trial.GoNoGo2.stimulus type";"trial.GoNoGo3.durationTime";"trial.GoNoGo3.endTime";"trial.GoNoGo3.Error Type";"trial.GoNoGo3.icon";"trial.GoNoGo3.location";"trial.GoNoGo3.outcome";"trial.GoNoGo3.response";"trial.GoNoGo3.result";"trial.GoNoGo3.RT";"trial.GoNoGo3.signal";"trial.GoNoGo3.startTime";"trial.GoNoGo3.stimulus type";"trial.GoNoGo4.durationTime";"trial.GoNoGo4.endTime";"trial.GoNoGo4.Error Type";"trial.GoNoGo4.icon";"trial.GoNoGo4.location";"trial.GoNoGo4.outcome";"trial.GoNoGo4.response";"trial.GoNoGo4.result";"trial.GoNoGo4.RT";"trial.GoNoGo4.signal";"trial.GoNoGo4.startTime";"trial.GoNoGo4.stimulus type";"trial.GoNoGo_Practice.durationTime";"trial.GoNoGo_Practice.endTime";"trial.GoNoGo_Practice.icon";"trial.GoNoGo_Practice.location";"trial.GoNoGo_Practice.outcome";"trial.GoNoGo_Practice.response";"trial.GoNoGo_Practice.result";"trial.GoNoGo_Practice.RT";"trial.GoNoGo_Practice.signal";"trial.GoNoGo_Practice.startTime";"trial.GoNoGo_Practice.stimulus type";"trial.GoNoGo_Tutorial.durationTime";"trial.GoNoGo_Tutorial.endTime";"trial.GoNoGo_Tutorial.icon";"trial.GoNoGo_Tutorial.location";"trial.GoNoGo_Tutorial.outcome";"trial.GoNoGo_Tutorial.response";"trial.GoNoGo_Tutorial.result";"trial.GoNoGo_Tutorial.RT";"trial.GoNoGo_Tutorial.signal";"trial.GoNoGo_Tutorial.startTime"
"M21";;;"Windows 8";"Rachel's Experiment (D.T.)";"1.0";"2";"1";"1";"2";"1";"1";"2014-10-16 22:25:05.457";"2014-10-16 22:39:15.974";"1";"1";"0";"1";"0";"module.GoNoGotutorial.exec-4528.GoNoGo_Tutorial";;;;;;;;;;;;;;;;;;;;;;;;;;;;;;;;;;;;;;;;;;;;;;;;;;;;;;;;;;;;;;;;;;;;;;;;;;;;;;;;;;"4002";"2014-10-16 22:26:35.293";"leftResponse";"0";"FINISHED";"LEFT";"success";"1637";"0";"2014-10-16 22:26:31.292"
"M21";;;"Windows 8";"Rachel's Experiment (D.T.)";"1.0";"2";"1";"1";"2";"1";"1";"2014-10-16 22:25:05.457";"2014-10-16 22:39:15.974";"1";"1";"0";"2";"1";"module.GoNoGotutorial.exec-4528.GoNoGo_Tutorial";;;;;;;;;;;;;;;;;;;;;;;;;;;;;;;;;;;;;;;;;;;;;;;;;;;;;;;;;;;;;;;;;;;;;;;;;;;;;;;;;;"3999";"2014-10-16 22:26:40.617";"rightResponse";"1";"FINISHED";"NONE";"failure";"0";"0";"2014-10-16 22:26:36.617"
"M21";;;"Windows 8";"Rachel's Experiment (D.T.)";"1.0";"2";"1";"1";"2";"1";"1";"2014-10-16 22:25:05.457";"2014-10-16 22:39:15.974";"1";"1";"0";"3";"2";"module.GoNoGotutorial.exec-4528.GoNoGo_Tutorial";;;;;;;;;;;;;;;;;;;;;;;;;;;;;;;;;;;;;;;;;;;;;;;;;;;;;;;;;;;;;;;;;;;;;;;;;;;;;;;;;;"4000";"2014-10-16 22:26:45.901";"quickResponse";"0";"FINISHED";"NONE";"failure";"0";"0";"2014-10-16 22:26:41.900"
"M21";;;"Windows 8";"Rachel's Experiment (D.T.)";"1.0";"2";"1";"1";"2";"1";"1";"2014-10-16 22:25:05.457";"2014-10-16 22:39:15.974";"1";"1";"0";"4";"3";"module.GoNoGopractice.exec-4677.GoNoGo_Practice";;;;;;;;;;;;;;;;;;;;;;;;;;;;;;;;;;;;;;;;;;;;;;;;;;;;;;;;;;;;;;;;;;;;;;;"1961";"2014-10-16 22:26:59.726";"18";"0";"FINISHED";"LEFT";"success";"423";"0";"2014-10-16 22:26:57.764";"3";;;;;;;;;;
"M21";;;"Windows 8";"Rachel's Experiment (D.T.)";"1.0";"2";"1";"1";"2";"1";"1";"2014-10-16 22:25:05.457";"2014-10-16 22:39:15.974";"1";"1";"0";"5";"4";"module.GoNoGopractice.exec-4677.GoNoGo_Practice";;;;;;;;;;;;;;;;;;;;;;;;;;;;;;;;;;;;;;;;;;;;;;;;;;;;;;;;;;;;;;;;;;;;;;;"1951";"2014-10-16 22:27:02.968";"21";"1";"FINISHED";"RIGHT";"success";"343";"0";"2014-10-16 22:27:01.016";"3";;;;;;;;;;
"M21";;;"Windows 8";"Rachel's Experiment (D.T.)";"1.0";"2";"1";"1";"2";"1";"1";"2014-10-16 22:25:05.457";"2014-10-16 22:39:15.974";"1";"1";"0";"6";"5";"module.GoNoGopractice.exec-4677.GoNoGo_Practice";;;;;;;;;;;;;;;;;;;;;;;;;;;;;;;;;;;;;;;;;;;;;;;;;;;;;;;;;;;;;;;;;;;;;;;"1954";"2014-10-16 22:27:06.323";"14";"1";"FINISHED";"RIGHT";"success";"337";"0";"2014-10-16 22:27:04.367";"2";;;;;;;;;;
"M21";;;"Windows 8";"Rachel's Experiment (D.T.)";"1.0";"2";"1";"1";"2";"1";"1";"2014-10-16 22:25:05.457";"2014-10-16 22:39:15.974";"1";"1";"0";"7";"6";"module.GoNoGopractice.exec-4677.GoNoGo_Practice";;;;;;;;;;;;;;;;;;;;;;;;;;;;;;;;;;;;;;;;;;;;;;;;;;;;;;;;;;;;;;;;;;;;;;;"1952";"2014-10-16 22:27:09.555";"26";"0";"FINISHED";"LEFT";"success";"289";"0";"2014-10-16 22:27:07.602";"3";;;;;;;;;;
"M21";;;"Windows 8";"Rachel's Experiment (D.T.)";"1.0";"2";"1";"1";"2";"1";"1";"2014-10-16 22:25:05.457";"2014-10-16 22:39:15.974";"1";"1";"0";"8";"7";"module.GoNoGopractice.exec-4677.GoNoGo_Practice";;;;;;;;;;;;;;;;;;;;;;;;;;;;;;;;;;;;;;;;;;;;;;;;;;;;;;;;;;;;;;;;;;;;;;;"1954";"2014-10-16 22:27:12.795";"2";"0";"FINISHED";"LEFT";"success";"311";"0";"2014-10-16 22:27:10.841";"1";;;;;;;;;;
"M21";;;"Windows 8";"Rachel's Experiment (D.T.)";"1.0";"2";"1";"1";"2";"1";"1";"2014-10-16 22:25:05.457";"2014-10-16 22:39:15.974";"1";"1";"0";"9";"8";"module.GoNoGopractice.exec-4677.GoNoGo_Practice";;;;;;;;;;;;;;;;;;;;;;;;;;;;;;;;;;;;;;;;;;;;;;;;;;;;;;;;;;;;;;;;;;;;;;;"1952";"2014-10-16 22:27:16.049";"30";"0";"FINISHED";"LEFT";"success";"311";"0";"2014-10-16 22:27:14.096";"3";;;;;;;;;;
"M21";;;"Windows 8";"Rachel's Experiment (D.T.)";"1.0";"2";"1";"1";"2";"1";"1";"2014-10-16 22:25:05.457";"2014-10-16 22:39:15.974";"1";"1";"0";"10";"9";"module.GoNoGopractice.exec-4677.GoNoGo_Practice";;;;;;;;;;;;;;;;;;;;;;;;;;;;;;;;;;;;;;;;;;;;;;;;;;;;;;;;;;;;;;;;;;;;;;;"1952";"2014-10-16 22:27:19.288";"6";"1";"FINISHED";"RIGHT";"success";"316";"0";"2014-10-16 22:27:17.334";"1";;;;;;;;;;
"M21";;;"Windows 8";"Rachel's Experiment (D.T.)";"1.0";"2";"1";"1";"2";"1";"1";"2014-10-16 22:25:05.457";"2014-10-16 22:39:15.974";"1";"1";"0";"11";"10";"module.GoNoGopractice.exec-4677.GoNoGo_Practice";;;;;;;;;;;;;;;;;;;;;;;;;;;;;;;;;;;;;;;;;;;;;;;;;;;;;;;;;;;;;;;;;;;;;;;"1951";"2014-10-16 22:27:22.524";"34";"0";"FINISHED";"LEFT";"success";"336";"0";"2014-10-16 22:27:20.572";"3";;;;;;;;;;
"M21";;;"Windows 8";"Rachel's Experiment (D.T.)";"1.0";"2";"1";"1";"2";"1";"1";"2014-10-16 22:25:05.457";"2014-10-16 22:39:15.974";"1";"1";"0";"12";"11";"module.GoNoGopractice.exec-4677.GoNoGo_Practice";;;;;;;;;;;;;;;;;;;;;;;;;;;;;;;;;;;;;;;;;;;;;;;;;;;;;;;;;;;;;;;;;;;;;;;"1952";"2014-10-16 22:27:25.760";"23";"1";"FINISHED";"RIGHT";"success";"342";"0";"2014-10-16 22:27:23.807";"3";;;;;;;;;;
"M21";;;"Windows 8";"Rachel's Experiment (D.T.)";"1.0";"2";"1";"1";"2";"1";"1";"2014-10-16 22:25:05.457";"2014-10-16 22:39:15.974";"1";"1";"0";"13";"12";"module.GoNoGopractice.exec-4677.GoNoGo_Practice";;;;;;;;;;;;;;;;;;;;;;;;;;;;;;;;;;;;;;;;;;;;;;;;;;;;;;;;;;;;;;;;;;;;;;;"1951";"2014-10-16 22:27:29.012";"13";"0";"FINISHED";"LEFT";"success";"299";"0";"2014-10-16 22:27:27.059";"2";;;;;;;;;;
"M21";;;"Windows 8";"Rachel's Experiment (D.T.)";"1.0";"2";"1";"1";"2";"1";"1";"2014-10-16 22:25:05.457";"2014-10-16 22:39:15.974";"1";"1";"0";"14";"13";"module.GoNoGopractice.exec-4677.GoNoGo_Practice";;;;;;;;;;;;;;;;;;;;;;;;;;;;;;;;;;;;;;;;;;;;;;;;;;;;;;;;;;;;;;;;;;;;;;;"1952";"2014-10-16 22:27:32.260";"3";"1";"FINISHED";"RIGHT";"success";"425";"0";"2014-10-16 22:27:30.307";"1";;;;;;;;;;
"M21";;;"Windows 8";"Rachel's Experiment (D.T.)";"1.0";"2";"1";"1";"2";"1";"1";"2014-10-16 22:25:05.457";"2014-10-16 22:39:15.974";"1";"1";"0";"15";"14";"module.GoNoGopractice.exec-4677.GoNoGo_Practice";;;;;;;;;;;;;;;;;;;;;;;;;;;;;;;;;;;;;;;;;;;;;;;;;;;;;;;;;;;;;;;;;;;;;;;"1951";"2014-10-16 22:27:35.519";"27";"1";"FINISHED";"RIGHT";"success";"517";"0";"2014-10-16 22:27:33.567";"3";;;;;;;;;;
"M21";;;"Windows 8";"Rachel's Experiment (D.T.)";"1.0";"2";"1";"1";"2";"1";"1";"2014-10-16 22:25:05.457";"2014-10-16 22:39:15.974";"1";"1";"0";"16";"15";"module.training_block1.exec-2606.GoNoGo1";;;;;;;;;;;;;;;;;;;;;;;"1251";"2014-10-16 22:27:45.406";"NST_correctLoc";"26";"1";"FINISHED";"RIGHT";"success";"371";"0";"2014-10-16 22:27:44.155";"3";;;;;;;;;;;;;;;;;;;;;;;;;;;;;;;;;;;;;;;;;;;;;;;;;;;;;;;;;
"M21";;;"Windows 8";"Rachel's Experiment (D.T.)";"1.0";"2";"1";"1";"2";"1";"1";"2014-10-16 22:25:05.457";"2014-10-16 22:39:15.974";"1";"1";"0";"17";"16";"module.training_block1.exec-2606.GoNoGo1";;;;;;;;;;;;;;;;;;;;;;;"1250";"2014-10-16 22:27:47.948";"NST_correctLoc";"15";"0";"FINISHED";"LEFT";"success";"314";"0";"2014-10-16 22:27:46.697";"2";;;;;;;;;;;;;;;;;;;;;;;;;;;;;;;;;;;;;;;;;;;;;;;;;;;;;;;;;
"M21";;;"Windows 8";"Rachel's Experiment (D.T.)";"1.0";"2";"1";"1";"2";"1";"1";"2014-10-16 22:25:05.457";"2014-10-16 22:39:15.974";"1";"1";"0";"18";"17";"module.training_block1.exec-2606.GoNoGo1";;;;;;;;;;;;;;;;;;;;;;;"1250";"2014-10-16 22:27:50.473";"NST_correctLoc";"31";"1";"FINISHED";"RIGHT";"success";"271";"0";"2014-10-16 22:27:49.223";"3";;;;;;;;;;;;;;;;;;;;;;;;;;;;;;;;;;;;;;;;;;;;;;;;;;;;;;;;;
"M21";;;"Windows 8";"Rachel's Experiment (D.T.)";"1.0";"2";"1";"1";"2";"1";"1";"2014-10-16 22:25:05.457";"2014-10-16 22:39:15.974";"1";"1";"0";"19";"18";"module.training_block1.exec-2606.GoNoGo1";;;;;;;;;;;;;;;;;;;;;;;"1249";"2014-10-16 22:27:53.012";"NST_correctLoc";"25";"0";"FINISHED";"LEFT";"success";"333";"0";"2014-10-16 22:27:51.762";"3";;;;;;;;;;;;;;;;;;;;;;;;;;;;;;;;;;;;;;;;;;;;;;;;;;;;;;;;;
"M21";;;"Windows 8";"Rachel's Experiment (D.T.)";"1.0";"2";"1";"1";"2";"1";"1";"2014-10-16 22:25:05.457";"2014-10-16 22:39:15.974";"1";"1";"0";"20";"19";"module.training_block1.exec-2606.GoNoGo1";;;;;;;;;;;;;;;;;;;;;;;"1250";"2014-10-16 22:27:55.552";"NST_correctLoc";"19";"1";"FINISHED";"RIGHT";"success";"311";"0";"2014-10-16 22:27:54.301";"3";;;;;;;;;;;;;;;;;;;;;;;;;;;;;;;;;;;;;;;;;;;;;;;;;;;;;;;;;
"M21";;;"Windows 8";"Rachel's Experiment (D.T.)";"1.0";"2";"1";"1";"2";"1";"1";"2014-10-16 22:25:05.457";"2014-10-16 22:39:15.974";"1";"1";"0";"21";"20";"module.training_block1.exec-2606.GoNoGo1";;;;;;;;;;;;;;;;;;;;;;;"1250";"2014-10-16 22:27:58.100";"NST_correctLoc";"9";"0";"FINISHED";"LEFT";"success";"279";"0";"2014-10-16 22:27:56.849";"2";;;;;;;;;;;;;;;;;;;;;;;;;;;;;;;;;;;;;;;;;;;;;;;;;;;;;;;;;
"M21";;;"Windows 8";"Rachel's Experiment (D.T.)";"1.0";"2";"1";"1";"2";"1";"1";"2014-10-16 22:25:05.457";"2014-10-16 22:39:15.974";"1";"1";"0";"22";"21";"module.training_block1.exec-2606.GoNoGo1";;;;;;;;;;;;;;;;;;;;;;;"1250";"2014-10-16 22:28:00.643";"NST_correctLoc";"27";"0";"FINISHED";"LEFT";"success";"336";"0";"2014-10-16 22:27:59.393";"3";;;;;;;;;;;;;;;;;;;;;;;;;;;;;;;;;;;;;;;;;;;;;;;;;;;;;;;;;
"M21";;;"Windows 8";"Rachel's Experiment (D.T.)";"1.0";"2";"1";"1";"2";"1";"1";"2014-10-16 22:25:05.457";"2014-10-16 22:39:15.974";"1";"1";"0";"23";"22";"module.training_block1.exec-2606.GoNoGo1";;;;;;;;;;;;;;;;;;;;;;;"1250";"2014-10-16 22:28:03.169";"NST_correctLoc";"13";"0";"FINISHED";"LEFT";"success";"357";"0";"2014-10-16 22:28:01.918";"2";;;;;;;;;;;;;;;;;;;;;;;;;;;;;;;;;;;;;;;;;;;;;;;;;;;;;;;;;
"M21";;;"Windows 8";"Rachel's Experiment (D.T.)";"1.0";"2";"1";"1";"2";"1";"1";"2014-10-16 22:25:05.457";"2014-10-16 22:39:15.974";"1";"1";"0";"24";"23";"module.training_block1.exec-2606.GoNoGo1";;;;;;;;;;;;;;;;;;;;;;;"1250";"2014-10-16 22:28:05.699";"NST_correctLoc";"20";"0";"FINISHED";"LEFT";"success";"332";"0";"2014-10-16 22:28:04.449";"3";;;;;;;;;;;;;;;;;;;;;;;;;;;;;;;;;;;;;;;;;;;;;;;;;;;;;;;;;
"M21";;;"Windows 8";"Rachel's Experiment (D.T.)";"1.0";"2";"1";"1";"2";"1";"1";"2014-10-16 22:25:05.457";"2014-10-16 22:39:15.974";"1";"1";"0";"25";"24";"module.training_block1.exec-2606.GoNoGo1";;;;;;;;;;;;;;;;;;;;;;;"1249";"2014-10-16 22:28:08.236";"NST_correctLoc";"30";"1";"FINISHED";"RIGHT";"success";"318";"0";"2014-10-16 22:28:06.986";"3";;;;;;;;;;;;;;;;;;;;;;;;;;;;;;;;;;;;;;;;;;;;;;;;;;;;;;;;;
"M21";;;"Windows 8";"Rachel's Experiment (D.T.)";"1.0";"2";"1";"1";"2";"1";"1";"2014-10-16 22:25:05.457";"2014-10-16 22:39:15.974";"1";"1";"0";"26";"25";"module.training_block1.exec-2606.GoNoGo1";;;;;;;;;;;;;;;;;;;;;;;"1250";"2014-10-16 22:28:10.768";"NST_correctLoc";"16";"0";"FINISHED";"LEFT";"success";"308";"0";"2014-10-16 22:28:09.518";"2";;;;;;;;;;;;;;;;;;;;;;;;;;;;;;;;;;;;;;;;;;;;;;;;;;;;;;;;;
"M21";;;"Windows 8";"Rachel's Experiment (D.T.)";"1.0";"2";"1";"1";"2";"1";"1";"2014-10-16 22:25:05.457";"2014-10-16 22:39:15.974";"1";"1";"0";"27";"26";"module.training_block1.exec-2606.GoNoGo1";;;;;;;;;;;;;;;;;;;;;;;"1250";"2014-10-16 22:28:13.305";"NST_correctLoc";"28";"0";"FINISHED";"LEFT";"success";"375";"0";"2014-10-16 22:28:12.054";"3";;;;;;;;;;;;;;;;;;;;;;;;;;;;;;;;;;;;;;;;;;;;;;;;;;;;;;;;;
"M21";;;"Windows 8";"Rachel's Experiment (D.T.)";"1.0";"2";"1";"1";"2";"1";"1";"2014-10-16 22:25:05.457";"2014-10-16 22:39:15.974";"1";"1";"0";"28";"27";"module.training_block1.exec-2606.GoNoGo1";;;;;;;;;;;;;;;;;;;;;;;"1250";"2014-10-16 22:28:15.835";"NST_correctLoc";"33";"0";"FINISHED";"LEFT";"success";"298";"0";"2014-10-16 22:28:14.584";"3";;;;;;;;;;;;;;;;;;;;;;;;;;;;;;;;;;;;;;;;;;;;;;;;;;;;;;;;;
"M21";;;"Windows 8";"Rachel's Experiment (D.T.)";"1.0";"2";"1";"1";"2";"1";"1";"2014-10-16 22:25:05.457";"2014-10-16 22:39:15.974";"1";"1";"0";"29";"28";"module.training_block1.exec-2606.GoNoGo1";;;;;;;;;;;;;;;;;;;;;;;"1250";"2014-10-16 22:28:18.360";"NST_correctLoc";"24";"1";"FINISHED";"RIGHT";"success";"342";"0";"2014-10-16 22:28:17.110";"3";;;;;;;;;;;;;;;;;;;;;;;;;;;;;;;;;;;;;;;;;;;;;;;;;;;;;;;;;
"M21";;;"Windows 8";"Rachel's Experiment (D.T.)";"1.0";"2";"1";"1";"2";"1";"1";"2014-10-16 22:25:05.457";"2014-10-16 22:39:15.974";"1";"1";"0";"30";"29";"module.training_block1.exec-2606.GoNoGo1";;;;;;;;;;;;;;;;;;;;;;;"1250";"2014-10-16 22:28:20.885";"NST_correctLoc";"21";"0";"FINISHED";"LEFT";"success";"300";"0";"2014-10-16 22:28:19.635";"3";;;;;;;;;;;;;;;;;;;;;;;;;;;;;;;;;;;;;;;;;;;;;;;;;;;;;;;;;
"M21";;;"Windows 8";"Rachel's Experiment (D.T.)";"1.0";"2";"1";"1";"2";"1";"1";"2014-10-16 22:25:05.457";"2014-10-16 22:39:15.974";"1";"1";"0";"31";"30";"module.training_block1.exec-2606.GoNoGo1";;;;;;;;;;;;;;;;;;;;;;;"1249";"2014-10-16 22:28:23.432";"NST_correctLoc";"35";"1";"FINISHED";"RIGHT";"success";"283";"0";"2014-10-16 22:28:22.182";"3";;;;;;;;;;;;;;;;;;;;;;;;;;;;;;;;;;;;;;;;;;;;;;;;;;;;;;;;;
"M21";;;"Windows 8";"Rachel's Experiment (D.T.)";"1.0";"2";"1";"1";"2";"1";"1";"2014-10-16 22:25:05.457";"2014-10-16 22:39:15.974";"1";"1";"0";"32";"31";"module.training_block1.exec-2606.GoNoGo1";;;;;;;;;;;;;;;;;;;;;;;"1249";"2014-10-16 22:28:25.968";"NST_correctLoc";"17";"1";"FINISHED";"RIGHT";"success";"336";"0";"2014-10-16 22:28:24.718";"2";;;;;;;;;;;;;;;;;;;;;;;;;;;;;;;;;;;;;;;;;;;;;;;;;;;;;;;;;
"M21";;;"Windows 8";"Rachel's Experiment (D.T.)";"1.0";"2";"1";"1";"2";"1";"1";"2014-10-16 22:25:05.457";"2014-10-16 22:39:15.974";"1";"1";"0";"33";"32";"module.training_block1.exec-2606.GoNoGo1";;;;;;;;;;;;;;;;;;;;;;;"1249";"2014-10-16 22:28:28.514";"NST_correctLoc";"8";"0";"FINISHED";"LEFT";"success";"304";"0";"2014-10-16 22:28:27.264";"1";;;;;;;;;;;;;;;;;;;;;;;;;;;;;;;;;;;;;;;;;;;;;;;;;;;;;;;;;
"M21";;;"Windows 8";"Rachel's Experiment (D.T.)";"1.0";"2";"1";"1";"2";"1";"1";"2014-10-16 22:25:05.457";"2014-10-16 22:39:15.974";"1";"1";"0";"34";"33";"module.training_block1.exec-2606.GoNoGo1";;;;;;;;;;;;;;;;;;;;;;;"1250";"2014-10-16 22:28:31.043";"NST_correctLoc";"12";"0";"FINISHED";"LEFT";"success";"384";"0";"2014-10-16 22:28:29.793";"2";;;;;;;;;;;;;;;;;;;;;;;;;;;;;;;;;;;;;;;;;;;;;;;;;;;;;;;;;
"M21";;;"Windows 8";"Rachel's Experiment (D.T.)";"1.0";"2";"1";"1";"2";"1";"1";"2014-10-16 22:25:05.457";"2014-10-16 22:39:15.974";"1";"1";"0";"35";"34";"module.training_block1.exec-2606.GoNoGo1";;;;;;;;;;;;;;;;;;;;;;;"1249";"2014-10-16 22:28:33.565";"NST_correctLoc";"34";"0";"FINISHED";"LEFT";"success";"305";"0";"2014-10-16 22:28:32.315";"3";;;;;;;;;;;;;;;;;;;;;;;;;;;;;;;;;;;;;;;;;;;;;;;;;;;;;;;;;
"M21";;;"Windows 8";"Rachel's Experiment (D.T.)";"1.0";"2";"1";"1";"2";"1";"1";"2014-10-16 22:25:05.457";"2014-10-16 22:39:15.974";"1";"1";"0";"36";"35";"module.training_block1.exec-2606.GoNoGo1";;;;;;;;;;;;;;;;;;;;;;;"1249";"2014-10-16 22:28:36.102";"NST_correctLoc";"3";"1";"FINISHED";"RIGHT";"success";"451";"0";"2014-10-16 22:28:34.852";"1";;;;;;;;;;;;;;;;;;;;;;;;;;;;;;;;;;;;;;;;;;;;;;;;;;;;;;;;;
"M21";;;"Windows 8";"Rachel's Experiment (D.T.)";"1.0";"2";"1";"1";"2";"1";"1";"2014-10-16 22:25:05.457";"2014-10-16 22:39:15.974";"1";"1";"0";"37";"36";"module.training_block1.exec-2606.GoNoGo1";;;;;;;;;;;;;;;;;;;;;;;"1249";"2014-10-16 22:28:38.634";"NST_correctLoc";"29";"0";"FINISHED";"LEFT";"success";"329";"0";"2014-10-16 22:28:37.384";"3";;;;;;;;;;;;;;;;;;;;;;;;;;;;;;;;;;;;;;;;;;;;;;;;;;;;;;;;;
"M21";;;"Windows 8";"Rachel's Experiment (D.T.)";"1.0";"2";"1";"1";"2";"1";"1";"2014-10-16 22:25:05.457";"2014-10-16 22:39:15.974";"1";"1";"0";"38";"37";"module.training_block1.exec-2606.GoNoGo1";;;;;;;;;;;;;;;;;;;;;;;"1250";"2014-10-16 22:28:41.157";"NST_correctLoc";"0";"1";"FINISHED";"RIGHT";"success";"371";"0";"2014-10-16 22:28:39.907";"1";;;;;;;;;;;;;;;;;;;;;;;;;;;;;;;;;;;;;;;;;;;;;;;;;;;;;;;;;
"M21";;;"Windows 8";"Rachel's Experiment (D.T.)";"1.0";"2";"1";"1";"2";"1";"1";"2014-10-16 22:25:05.457";"2014-10-16 22:39:15.974";"1";"1";"0";"39";"38";"module.training_block1.exec-2606.GoNoGo1";;;;;;;;;;;;;;;;;;;;;;;"1249";"2014-10-16 22:28:43.694";"NST_correctLoc";"23";"1";"FINISHED";"RIGHT";"success";"354";"0";"2014-10-16 22:28:42.443";"3";;;;;;;;;;;;;;;;;;;;;;;;;;;;;;;;;;;;;;;;;;;;;;;;;;;;;;;;;
"M21";;;"Windows 8";"Rachel's Experiment (D.T.)";"1.0";"2";"1";"1";"2";"1";"1";"2014-10-16 22:25:05.457";"2014-10-16 22:39:15.974";"1";"1";"0";"40";"39";"module.training_block1.exec-2606.GoNoGo1";;;;;;;;;;;;;;;;;;;;;;;"1250";"2014-10-16 22:28:46.220";"NST_correctLoc";"10";"0";"FINISHED";"LEFT";"success";"336";"0";"2014-10-16 22:28:44.969";"2";;;;;;;;;;;;;;;;;;;;;;;;;;;;;;;;;;;;;;;;;;;;;;;;;;;;;;;;;
"M21";;;"Windows 8";"Rachel's Experiment (D.T.)";"1.0";"2";"1";"1";"2";"1";"1";"2014-10-16 22:25:05.457";"2014-10-16 22:39:15.974";"1";"1";"0";"41";"40";"module.training_block1.exec-2606.GoNoGo1";;;;;;;;;;;;;;;;;;;;;;;"1249";"2014-10-16 22:28:48.741";"NST_correctLoc";"5";"0";"FINISHED";"LEFT";"success";"331";"0";"2014-10-16 22:28:47.490";"1";;;;;;;;;;;;;;;;;;;;;;;;;;;;;;;;;;;;;;;;;;;;;;;;;;;;;;;;;
"M21";;;"Windows 8";"Rachel's Experiment (D.T.)";"1.0";"2";"1";"1";"2";"1";"1";"2014-10-16 22:25:05.457";"2014-10-16 22:39:15.974";"1";"1";"0";"42";"41";"module.training_block1.exec-2606.GoNoGo1";;;;;;;;;;;;;;;;;;;;;;;"1249";"2014-10-16 22:28:51.270";"NST_correctLoc";"22";"1";"FINISHED";"RIGHT";"success";"320";"0";"2014-10-16 22:28:50.020";"3";;;;;;;;;;;;;;;;;;;;;;;;;;;;;;;;;;;;;;;;;;;;;;;;;;;;;;;;;
"M21";;;"Windows 8";"Rachel's Experiment (D.T.)";"1.0";"2";"1";"1";"2";"1";"1";"2014-10-16 22:25:05.457";"2014-10-16 22:39:15.974";"1";"1";"0";"43";"42";"module.training_block1.exec-2606.GoNoGo1";;;;;;;;;;;;;;;;;;;;;;;"1250";"2014-10-16 22:28:53.811";"NST_correctLoc";"18";"0";"FINISHED";"LEFT";"success";"321";"0";"2014-10-16 22:28:52.560";"3";;;;;;;;;;;;;;;;;;;;;;;;;;;;;;;;;;;;;;;;;;;;;;;;;;;;;;;;;
"M21";;;"Windows 8";"Rachel's Experiment (D.T.)";"1.0";"2";"1";"1";"2";"1";"1";"2014-10-16 22:25:05.457";"2014-10-16 22:39:15.974";"1";"1";"0";"44";"43";"module.training_block1.exec-2606.GoNoGo1";;;;;;;;;;;;;;;;;;;;;;;"1250";"2014-10-16 22:28:56.354";"NST_correctLoc";"32";"1";"FINISHED";"RIGHT";"success";"366";"0";"2014-10-16 22:28:55.104";"3";;;;;;;;;;;;;;;;;;;;;;;;;;;;;;;;;;;;;;;;;;;;;;;;;;;;;;;;;
"M21";;;"Windows 8";"Rachel's Experiment (D.T.)";"1.0";"2";"1";"1";"2";"1";"1";"2014-10-16 22:25:05.457";"2014-10-16 22:39:15.974";"1";"1";"0";"45";"44";"module.training_block1.exec-2606.GoNoGo1";;;;;;;;;;;;;;;;;;;;;;;"1249";"2014-10-16 22:28:58.890";"NST_correctLoc";"2";"0";"FINISHED";"LEFT";"success";"351";"0";"2014-10-16 22:28:57.640";"1";;;;;;;;;;;;;;;;;;;;;;;;;;;;;;;;;;;;;;;;;;;;;;;;;;;;;;;;;
"M21";;;"Windows 8";"Rachel's Experiment (D.T.)";"1.0";"2";"1";"1";"2";"1";"1";"2014-10-16 22:25:05.457";"2014-10-16 22:39:15.974";"1";"1";"0";"46";"45";"module.training_block1.exec-2606.GoNoGo1";;;;;;;;;;;;;;;;;;;;;;;"1250";"2014-10-16 22:29:01.426";"NST_correctLoc";"14";"1";"FINISHED";"RIGHT";"success";"544";"0";"2014-10-16 22:29:00.176";"2";;;;;;;;;;;;;;;;;;;;;;;;;;;;;;;;;;;;;;;;;;;;;;;;;;;;;;;;;
"M21";;;"Windows 8";"Rachel's Experiment (D.T.)";"1.0";"2";"1";"1";"2";"1";"1";"2014-10-16 22:25:05.457";"2014-10-16 22:39:15.974";"1";"1";"0";"47";"46";"module.training_block1.exec-2606.GoNoGo1";;;;;;;;;;;;;;;;;;;;;;;"1250";"2014-10-16 22:29:03.946";"NST_correctLoc";"6";"0";"FINISHED";"LEFT";"success";"329";"0";"2014-10-16 22:29:02.695";"1";;;;;;;;;;;;;;;;;;;;;;;;;;;;;;;;;;;;;;;;;;;;;;;;;;;;;;;;;
"M21";;;"Windows 8";"Rachel's Experiment (D.T.)";"1.0";"2";"1";"1";"2";"1";"1";"2014-10-16 22:25:05.457";"2014-10-16 22:39:15.974";"1";"1";"0";"48";"47";"module.training_block1.exec-2606.GoNoGo1";;;;;;;;;;;;;;;;;;;;;;;"1249";"2014-10-16 22:29:06.475";"NST_correctLoc";"1";"0";"FINISHED";"LEFT";"success";"319";"0";"2014-10-16 22:29:05.224";"1";;;;;;;;;;;;;;;;;;;;;;;;;;;;;;;;;;;;;;;;;;;;;;;;;;;;;;;;;
"M21";;;"Windows 8";"Rachel's Experiment (D.T.)";"1.0";"2";"1";"1";"2";"1";"1";"2014-10-16 22:25:05.457";"2014-10-16 22:39:15.974";"1";"1";"0";"49";"48";"module.training_block1.exec-2606.GoNoGo1";;;;;;;;;;;;;;;;;;;;;;;"1250";"2014-10-16 22:29:09.018";"NST_correctLoc";"4";"1";"FINISHED";"RIGHT";"success";"321";"0";"2014-10-16 22:29:07.767";"1";;;;;;;;;;;;;;;;;;;;;;;;;;;;;;;;;;;;;;;;;;;;;;;;;;;;;;;;;
"M21";;;"Windows 8";"Rachel's Experiment (D.T.)";"1.0";"2";"1";"1";"2";"1";"1";"2014-10-16 22:25:05.457";"2014-10-16 22:39:15.974";"1";"1";"0";"50";"49";"module.training_block1.exec-2606.GoNoGo1";;;;;;;;;;;;;;;;;;;;;;;"1250";"2014-10-16 22:29:11.541";"NST_correctLoc";"7";"0";"FINISHED";"LEFT";"success";"327";"0";"2014-10-16 22:29:10.291";"1";;;;;;;;;;;;;;;;;;;;;;;;;;;;;;;;;;;;;;;;;;;;;;;;;;;;;;;;;
"M21";;;"Windows 8";"Rachel's Experiment (D.T.)";"1.0";"2";"1";"1";"2";"1";"1";"2014-10-16 22:25:05.457";"2014-10-16 22:39:15.974";"1";"1";"0";"51";"50";"module.training_block1.exec-2606.GoNoGo1";;;;;;;;;;;;;;;;;;;;;;;"1250";"2014-10-16 22:29:14.079";"NST_correctLoc";"11";"1";"FINISHED";"RIGHT";"success";"329";"0";"2014-10-16 22:29:12.828";"2";;;;;;;;;;;;;;;;;;;;;;;;;;;;;;;;;;;;;;;;;;;;;;;;;;;;;;;;;
"M21";;;"Windows 8";"Rachel's Experiment (D.T.)";"1.0";"2";"1";"1";"2";"1";"1";"2014-10-16 22:25:05.457";"2014-10-16 22:39:15.974";"1";"1";"0";"52";"51";"module.training_block2.exec-9811.GoNoGo2";;;;;;;;;;;;;;;;;;;;;;;;;;;;;;;;;;;"1250";"2014-10-16 22:29:25.011";"NST_correctLoc";"21";"0";"FINISHED";"LEFT";"success";"345";"0";"2014-10-16 22:29:23.761";"3";;;;;;;;;;;;;;;;;;;;;;;;;;;;;;;;;;;;;;;;;;;;;
"M21";;;"Windows 8";"Rachel's Experiment (D.T.)";"1.0";"2";"1";"1";"2";"1";"1";"2014-10-16 22:25:05.457";"2014-10-16 22:39:15.974";"1";"1";"0";"53";"52";"module.training_block2.exec-9811.GoNoGo2";;;;;;;;;;;;;;;;;;;;;;;;;;;;;;;;;;;"1249";"2014-10-16 22:29:27.545";"NST_correctLoc";"6";"0";"FINISHED";"LEFT";"success";"299";"0";"2014-10-16 22:29:26.295";"1";;;;;;;;;;;;;;;;;;;;;;;;;;;;;;;;;;;;;;;;;;;;;
"M21";;;"Windows 8";"Rachel's Experiment (D.T.)";"1.0";"2";"1";"1";"2";"1";"1";"2014-10-16 22:25:05.457";"2014-10-16 22:39:15.974";"1";"1";"0";"54";"53";"module.training_block2.exec-9811.GoNoGo2";;;;;;;;;;;;;;;;;;;;;;;;;;;;;;;;;;;"1251";"2014-10-16 22:29:30.068";"NST_correctLoc";"11";"1";"FINISHED";"RIGHT";"success";"281";"0";"2014-10-16 22:29:28.817";"2";;;;;;;;;;;;;;;;;;;;;;;;;;;;;;;;;;;;;;;;;;;;;
"M21";;;"Windows 8";"Rachel's Experiment (D.T.)";"1.0";"2";"1";"1";"2";"1";"1";"2014-10-16 22:25:05.457";"2014-10-16 22:39:15.974";"1";"1";"0";"55";"54";"module.training_block2.exec-9811.GoNoGo2";;;;;;;;;;;;;;;;;;;;;;;;;;;;;;;;;;;"1250";"2014-10-16 22:29:32.586";"NST_correctLoc";"25";"1";"FINISHED";"RIGHT";"success";"346";"0";"2014-10-16 22:29:31.336";"3";;;;;;;;;;;;;;;;;;;;;;;;;;;;;;;;;;;;;;;;;;;;;
"M21";;;"Windows 8";"Rachel's Experiment (D.T.)";"1.0";"2";"1";"1";"2";"1";"1";"2014-10-16 22:25:05.457";"2014-10-16 22:39:15.974";"1";"1";"0";"56";"55";"module.training_block2.exec-9811.GoNoGo2";;;;;;;;;;;;;;;;;;;;;;;;;;;;;;;;;;;"1250";"2014-10-16 22:29:35.130";"NST_correctLoc";"22";"0";"FINISHED";"LEFT";"success";"282";"0";"2014-10-16 22:29:33.880";"3";;;;;;;;;;;;;;;;;;;;;;;;;;;;;;;;;;;;;;;;;;;;;
"M21";;;"Windows 8";"Rachel's Experiment (D.T.)";"1.0";"2";"1";"1";"2";"1";"1";"2014-10-16 22:25:05.457";"2014-10-16 22:39:15.974";"1";"1";"0";"57";"56";"module.training_block2.exec-9811.GoNoGo2";;;;;;;;;;;;;;;;;;;;;;;;;;;;;;;;;;;"1250";"2014-10-16 22:29:37.660";"NST_correctLoc";"7";"1";"FINISHED";"RIGHT";"success";"296";"0";"2014-10-16 22:29:36.409";"1";;;;;;;;;;;;;;;;;;;;;;;;;;;;;;;;;;;;;;;;;;;;;
"M21";;;"Windows 8";"Rachel's Experiment (D.T.)";"1.0";"2";"1";"1";"2";"1";"1";"2014-10-16 22:25:05.457";"2014-10-16 22:39:15.974";"1";"1";"0";"58";"57";"module.training_block2.exec-9811.GoNoGo2";;;;;;;;;;;;;;;;;;;;;;;;;;;;;;;;;;;"1250";"2014-10-16 22:29:40.180";"NST_correctLoc";"20";"1";"FINISHED";"RIGHT";"success";"336";"0";"2014-10-16 22:29:38.929";"3";;;;;;;;;;;;;;;;;;;;;;;;;;;;;;;;;;;;;;;;;;;;;
"M21";;;"Windows 8";"Rachel's Experiment (D.T.)";"1.0";"2";"1";"1";"2";"1";"1";"2014-10-16 22:25:05.457";"2014-10-16 22:39:15.974";"1";"1";"0";"59";"58";"module.training_block2.exec-9811.GoNoGo2";;;;;;;;;;;;;;;;;;;;;;;;;;;;;;;;;;;"1250";"2014-10-16 22:29:42.696";"NST_correctLoc";"3";"0";"FINISHED";"LEFT";"success";"293";"0";"2014-10-16 22:29:41.446";"1";;;;;;;;;;;;;;;;;;;;;;;;;;;;;;;;;;;;;;;;;;;;;
"M21";;;"Windows 8";"Rachel's Experiment (D.T.)";"1.0";"2";"1";"1";"2";"1";"1";"2014-10-16 22:25:05.457";"2014-10-16 22:39:15.974";"1";"1";"0";"60";"59";"module.training_block2.exec-9811.GoNoGo2";;;;;;;;;;;;;;;;;;;;;;;;;;;;;;;;;;;"1250";"2014-10-16 22:29:45.216";"NST_correctLoc";"13";"1";"FINISHED";"RIGHT";"success";"259";"0";"2014-10-16 22:29:43.966";"2";;;;;;;;;;;;;;;;;;;;;;;;;;;;;;;;;;;;;;;;;;;;;
"M21";;;"Windows 8";"Rachel's Experiment (D.T.)";"1.0";"2";"1";"1";"2";"1";"1";"2014-10-16 22:25:05.457";"2014-10-16 22:39:15.974";"1";"1";"0";"61";"60";"module.training_block2.exec-9811.GoNoGo2";;;;;;;;;;;;;;;;;;;;;;;;;;;;;;;;;;;"1250";"2014-10-16 22:29:47.754";"NST_correctLoc";"23";"1";"FINISHED";"RIGHT";"success";"318";"0";"2014-10-16 22:29:46.503";"3";;;;;;;;;;;;;;;;;;;;;;;;;;;;;;;;;;;;;;;;;;;;;
"M21";;;"Windows 8";"Rachel's Experiment (D.T.)";"1.0";"2";"1";"1";"2";"1";"1";"2014-10-16 22:25:05.457";"2014-10-16 22:39:15.974";"1";"1";"0";"62";"61";"module.training_block2.exec-9811.GoNoGo2";;;;;;;;;;;;;;;;;;;;;;;;;;;;;;;;;;;"1250";"2014-10-16 22:29:50.274";"NST_correctLoc";"24";"0";"FINISHED";"LEFT";"success";"294";"0";"2014-10-16 22:29:49.024";"3";;;;;;;;;;;;;;;;;;;;;;;;;;;;;;;;;;;;;;;;;;;;;
"M21";;;"Windows 8";"Rachel's Experiment (D.T.)";"1.0";"2";"1";"1";"2";"1";"1";"2014-10-16 22:25:05.457";"2014-10-16 22:39:15.974";"1";"1";"0";"63";"62";"module.training_block2.exec-9811.GoNoGo2";;;;;;;;;;;;;;;;;;;;;;;;;;;;;;;;;;;"1250";"2014-10-16 22:29:52.794";"NST_correctLoc";"8";"0";"FINISHED";"LEFT";"success";"358";"0";"2014-10-16 22:29:51.544";"1";;;;;;;;;;;;;;;;;;;;;;;;;;;;;;;;;;;;;;;;;;;;;
"M21";;;"Windows 8";"Rachel's Experiment (D.T.)";"1.0";"2";"1";"1";"2";"1";"1";"2014-10-16 22:25:05.457";"2014-10-16 22:39:15.974";"1";"1";"0";"64";"63";"module.training_block2.exec-9811.GoNoGo2";;;;;;;;;;;;;;;;;;;;;;;;;;;;;;;;;;;"1250";"2014-10-16 22:29:55.319";"NST_correctLoc";"0";"1";"FINISHED";"RIGHT";"success";"307";"0";"2014-10-16 22:29:54.068";"1";;;;;;;;;;;;;;;;;;;;;;;;;;;;;;;;;;;;;;;;;;;;;
"M21";;;"Windows 8";"Rachel's Experiment (D.T.)";"1.0";"2";"1";"1";"2";"1";"1";"2014-10-16 22:25:05.457";"2014-10-16 22:39:15.974";"1";"1";"0";"65";"64";"module.training_block2.exec-9811.GoNoGo2";;;;;;;;;;;;;;;;;;;;;;;;;;;;;;;;;;;"1250";"2014-10-16 22:29:57.848";"NST_correctLoc";"34";"0";"FINISHED";"LEFT";"success";"282";"0";"2014-10-16 22:29:56.598";"3";;;;;;;;;;;;;;;;;;;;;;;;;;;;;;;;;;;;;;;;;;;;;
"M21";;;"Windows 8";"Rachel's Experiment (D.T.)";"1.0";"2";"1";"1";"2";"1";"1";"2014-10-16 22:25:05.457";"2014-10-16 22:39:15.974";"1";"1";"0";"66";"65";"module.training_block2.exec-9811.GoNoGo2";;;;;;;;;;;;;;;;;;;;;;;;;;;;;;;;;;;"1250";"2014-10-16 22:30:00.371";"NST_correctLoc";"30";"0";"FINISHED";"LEFT";"success";"320";"0";"2014-10-16 22:29:59.120";"3";;;;;;;;;;;;;;;;;;;;;;;;;;;;;;;;;;;;;;;;;;;;;
"M21";;;"Windows 8";"Rachel's Experiment (D.T.)";"1.0";"2";"1";"1";"2";"1";"1";"2014-10-16 22:25:05.457";"2014-10-16 22:39:15.974";"1";"1";"0";"67";"66";"module.training_block2.exec-9811.GoNoGo2";;;;;;;;;;;;;;;;;;;;;;;;;;;;;;;;;;;"1250";"2014-10-16 22:30:02.887";"NST_correctLoc";"35";"1";"FINISHED";"RIGHT";"success";"345";"0";"2014-10-16 22:30:01.637";"3";;;;;;;;;;;;;;;;;;;;;;;;;;;;;;;;;;;;;;;;;;;;;
"M21";;;"Windows 8";"Rachel's Experiment (D.T.)";"1.0";"2";"1";"1";"2";"1";"1";"2014-10-16 22:25:05.457";"2014-10-16 22:39:15.974";"1";"1";"0";"68";"67";"module.training_block2.exec-9811.GoNoGo2";;;;;;;;;;;;;;;;;;;;;;;;;;;;;;;;;;;"1250";"2014-10-16 22:30:05.405";"NST_correctLoc";"14";"0";"FINISHED";"LEFT";"success";"323";"0";"2014-10-16 22:30:04.154";"2";;;;;;;;;;;;;;;;;;;;;;;;;;;;;;;;;;;;;;;;;;;;;
"M21";;;"Windows 8";"Rachel's Experiment (D.T.)";"1.0";"2";"1";"1";"2";"1";"1";"2014-10-16 22:25:05.457";"2014-10-16 22:39:15.974";"1";"1";"0";"69";"68";"module.training_block2.exec-9811.GoNoGo2";;;;;;;;;;;;;;;;;;;;;;;;;;;;;;;;;;;"1249";"2014-10-16 22:30:07.941";"NST_correctLoc";"32";"1";"FINISHED";"RIGHT";"success";"337";"0";"2014-10-16 22:30:06.691";"3";;;;;;;;;;;;;;;;;;;;;;;;;;;;;;;;;;;;;;;;;;;;;
"M21";;;"Windows 8";"Rachel's Experiment (D.T.)";"1.0";"2";"1";"1";"2";"1";"1";"2014-10-16 22:25:05.457";"2014-10-16 22:39:15.974";"1";"1";"0";"70";"69";"module.training_block2.exec-9811.GoNoGo2";;;;;;;;;;;;;;;;;;;;;;;;;;;;;;;;;;;"1250";"2014-10-16 22:30:10.462";"NST_correctLoc";"9";"1";"FINISHED";"RIGHT";"success";"361";"0";"2014-10-16 22:30:09.211";"2";;;;;;;;;;;;;;;;;;;;;;;;;;;;;;;;;;;;;;;;;;;;;
"M21";;;"Windows 8";"Rachel's Experiment (D.T.)";"1.0";"2";"1";"1";"2";"1";"1";"2014-10-16 22:25:05.457";"2014-10-16 22:39:15.974";"1";"1";"0";"71";"70";"module.training_block2.exec-9811.GoNoGo2";;;;;;;;;;;;;;;;;;;;;;;;;;;;;;;;;;;"1250";"2014-10-16 22:30:12.985";"NST_correctLoc";"1";"1";"FINISHED";"RIGHT";"success";"399";"0";"2014-10-16 22:30:11.734";"1";;;;;;;;;;;;;;;;;;;;;;;;;;;;;;;;;;;;;;;;;;;;;
"M21";;;"Windows 8";"Rachel's Experiment (D.T.)";"1.0";"2";"1";"1";"2";"1";"1";"2014-10-16 22:25:05.457";"2014-10-16 22:39:15.974";"1";"1";"0";"72";"71";"module.training_block2.exec-9811.GoNoGo2";;;;;;;;;;;;;;;;;;;;;;;;;;;;;;;;;;;"1250";"2014-10-16 22:30:15.503";"NST_correctLoc";"31";"1";"FINISHED";"RIGHT";"success";"328";"0";"2014-10-16 22:30:14.253";"3";;;;;;;;;;;;;;;;;;;;;;;;;;;;;;;;;;;;;;;;;;;;;
"M21";;;"Windows 8";"Rachel's Experiment (D.T.)";"1.0";"2";"1";"1";"2";"1";"1";"2014-10-16 22:25:05.457";"2014-10-16 22:39:15.974";"1";"1";"0";"73";"72";"module.training_block2.exec-9811.GoNoGo2";;;;;;;;;;;;;;;;;;;;;;;;;;;;;;;;;;;"1250";"2014-10-16 22:30:18.044";"NST_correctLoc";"18";"1";"FINISHED";"RIGHT";"success";"505";"0";"2014-10-16 22:30:16.793";"3";;;;;;;;;;;;;;;;;;;;;;;;;;;;;;;;;;;;;;;;;;;;;
"M21";;;"Windows 8";"Rachel's Experiment (D.T.)";"1.0";"2";"1";"1";"2";"1";"1";"2014-10-16 22:25:05.457";"2014-10-16 22:39:15.974";"1";"1";"0";"74";"73";"module.training_block2.exec-9811.GoNoGo2";;;;;;;;;;;;;;;;;;;;;;;;;;;;;;;;;;;"1250";"2014-10-16 22:30:20.572";"NST_correctLoc";"27";"0";"FINISHED";"LEFT";"success";"322";"0";"2014-10-16 22:30:19.321";"3";;;;;;;;;;;;;;;;;;;;;;;;;;;;;;;;;;;;;;;;;;;;;
"M21";;;"Windows 8";"Rachel's Experiment (D.T.)";"1.0";"2";"1";"1";"2";"1";"1";"2014-10-16 22:25:05.457";"2014-10-16 22:39:15.974";"1";"1";"0";"75";"74";"module.training_block2.exec-9811.GoNoGo2";;;;;;;;;;;;;;;;;;;;;;;;;;;;;;;;;;;"1250";"2014-10-16 22:30:23.093";"NST_correctLoc";"26";"0";"FINISHED";"LEFT";"success";"327";"0";"2014-10-16 22:30:21.842";"3";;;;;;;;;;;;;;;;;;;;;;;;;;;;;;;;;;;;;;;;;;;;;
"M21";;;"Windows 8";"Rachel's Experiment (D.T.)";"1.0";"2";"1";"1";"2";"1";"1";"2014-10-16 22:25:05.457";"2014-10-16 22:39:15.974";"1";"1";"0";"76";"75";"module.training_block2.exec-9811.GoNoGo2";;;;;;;;;;;;;;;;;;;;;;;;;;;;;;;;;;;"1249";"2014-10-16 22:30:25.614";"NST_correctLoc";"29";"1";"FINISHED";"RIGHT";"success";"408";"0";"2014-10-16 22:30:24.364";"3";;;;;;;;;;;;;;;;;;;;;;;;;;;;;;;;;;;;;;;;;;;;;
"M21";;;"Windows 8";"Rachel's Experiment (D.T.)";"1.0";"2";"1";"1";"2";"1";"1";"2014-10-16 22:25:05.457";"2014-10-16 22:39:15.974";"1";"1";"0";"77";"76";"module.training_block2.exec-9811.GoNoGo2";;;;;;;;;;;;;;;;;;;;;;;;;;;;;;;;;;;"1249";"2014-10-16 22:30:28.144";"NST_correctLoc";"16";"0";"FINISHED";"LEFT";"success";"298";"0";"2014-10-16 22:30:26.894";"2";;;;;;;;;;;;;;;;;;;;;;;;;;;;;;;;;;;;;;;;;;;;;
"M21";;;"Windows 8";"Rachel's Experiment (D.T.)";"1.0";"2";"1";"1";"2";"1";"1";"2014-10-16 22:25:05.457";"2014-10-16 22:39:15.974";"1";"1";"0";"78";"77";"module.training_block2.exec-9811.GoNoGo2";;;;;;;;;;;;;;;;;;;;;;;;;;;;;;;;;;;"1249";"2014-10-16 22:30:30.665";"NST_correctLoc";"10";"1";"FINISHED";"RIGHT";"success";"325";"0";"2014-10-16 22:30:29.415";"2";;;;;;;;;;;;;;;;;;;;;;;;;;;;;;;;;;;;;;;;;;;;;
"M21";;;"Windows 8";"Rachel's Experiment (D.T.)";"1.0";"2";"1";"1";"2";"1";"1";"2014-10-16 22:25:05.457";"2014-10-16 22:39:15.974";"1";"1";"0";"79";"78";"module.training_block2.exec-9811.GoNoGo2";;;;;;;;;;;;;;;;;;;;;;;;;;;;;;;;;;;"1249";"2014-10-16 22:30:33.182";"NST_correctLoc";"12";"1";"FINISHED";"RIGHT";"success";"368";"0";"2014-10-16 22:30:31.931";"2";;;;;;;;;;;;;;;;;;;;;;;;;;;;;;;;;;;;;;;;;;;;;
"M21";;;"Windows 8";"Rachel's Experiment (D.T.)";"1.0";"2";"1";"1";"2";"1";"1";"2014-10-16 22:25:05.457";"2014-10-16 22:39:15.974";"1";"1";"0";"80";"79";"module.training_block2.exec-9811.GoNoGo2";;;;;;;;;;;;;;;;;;;;;;;;;;;;;;;;;;;"1250";"2014-10-16 22:30:35.703";"NST_correctLoc";"19";"1";"FINISHED";"RIGHT";"success";"396";"0";"2014-10-16 22:30:34.452";"3";;;;;;;;;;;;;;;;;;;;;;;;;;;;;;;;;;;;;;;;;;;;;
"M21";;;"Windows 8";"Rachel's Experiment (D.T.)";"1.0";"2";"1";"1";"2";"1";"1";"2014-10-16 22:25:05.457";"2014-10-16 22:39:15.974";"1";"1";"0";"81";"80";"module.training_block2.exec-9811.GoNoGo2";;;;;;;;;;;;;;;;;;;;;;;;;;;;;;;;;;;"1250";"2014-10-16 22:30:38.235";"NST_correctLoc";"33";"1";"FINISHED";"RIGHT";"success";"349";"0";"2014-10-16 22:30:36.985";"3";;;;;;;;;;;;;;;;;;;;;;;;;;;;;;;;;;;;;;;;;;;;;
"M21";;;"Windows 8";"Rachel's Experiment (D.T.)";"1.0";"2";"1";"1";"2";"1";"1";"2014-10-16 22:25:05.457";"2014-10-16 22:39:15.974";"1";"1";"0";"82";"81";"module.training_block2.exec-9811.GoNoGo2";;;;;;;;;;;;;;;;;;;;;;;;;;;;;;;;;;;"1250";"2014-10-16 22:30:40.756";"NST_correctLoc";"2";"1";"FINISHED";"RIGHT";"success";"305";"0";"2014-10-16 22:30:39.505";"1";;;;;;;;;;;;;;;;;;;;;;;;;;;;;;;;;;;;;;;;;;;;;
"M21";;;"Windows 8";"Rachel's Experiment (D.T.)";"1.0";"2";"1";"1";"2";"1";"1";"2014-10-16 22:25:05.457";"2014-10-16 22:39:15.974";"1";"1";"0";"83";"82";"module.training_block2.exec-9811.GoNoGo2";;;;;;;;;;;;;;;;;;;;;;;;;;;;;;;;;;;"1249";"2014-10-16 22:30:43.277";"NST_correctLoc";"5";"1";"FINISHED";"RIGHT";"success";"366";"0";"2014-10-16 22:30:42.027";"1";;;;;;;;;;;;;;;;;;;;;;;;;;;;;;;;;;;;;;;;;;;;;
"M21";;;"Windows 8";"Rachel's Experiment (D.T.)";"1.0";"2";"1";"1";"2";"1";"1";"2014-10-16 22:25:05.457";"2014-10-16 22:39:15.974";"1";"1";"0";"84";"83";"module.training_block2.exec-9811.GoNoGo2";;;;;;;;;;;;;;;;;;;;;;;;;;;;;;;;;;;"1250";"2014-10-16 22:30:45.792";"NST_correctLoc";"17";"1";"FINISHED";"RIGHT";"success";"342";"0";"2014-10-16 22:30:44.541";"2";;;;;;;;;;;;;;;;;;;;;;;;;;;;;;;;;;;;;;;;;;;;;
"M21";;;"Windows 8";"Rachel's Experiment (D.T.)";"1.0";"2";"1";"1";"2";"1";"1";"2014-10-16 22:25:05.457";"2014-10-16 22:39:15.974";"1";"1";"0";"85";"84";"module.training_block2.exec-9811.GoNoGo2";;;;;;;;;;;;;;;;;;;;;;;;;;;;;;;;;;;"1249";"2014-10-16 22:30:48.320";"NST_correctLoc";"28";"0";"FINISHED";"LEFT";"success";"315";"0";"2014-10-16 22:30:47.070";"3";;;;;;;;;;;;;;;;;;;;;;;;;;;;;;;;;;;;;;;;;;;;;
"M21";;;"Windows 8";"Rachel's Experiment (D.T.)";"1.0";"2";"1";"1";"2";"1";"1";"2014-10-16 22:25:05.457";"2014-10-16 22:39:15.974";"1";"1";"0";"86";"85";"module.training_block2.exec-9811.GoNoGo2";;;;;;;;;;;;;;;;;;;;;;;;;;;;;;;;;;;"1249";"2014-10-16 22:30:50.841";"NST_correctLoc";"15";"0";"FINISHED";"LEFT";"success";"360";"0";"2014-10-16 22:30:49.591";"2";;;;;;;;;;;;;;;;;;;;;;;;;;;;;;;;;;;;;;;;;;;;;
"M21";;;"Windows 8";"Rachel's Experiment (D.T.)";"1.0";"2";"1";"1";"2";"1";"1";"2014-10-16 22:25:05.457";"2014-10-16 22:39:15.974";"1";"1";"0";"87";"86";"module.training_block2.exec-9811.GoNoGo2";;;;;;;;;;;;;;;;;;;;;;;;;;;;;;;;;;;"1250";"2014-10-16 22:30:53.361";"NST_correctLoc";"4";"1";"FINISHED";"RIGHT";"success";"334";"0";"2014-10-16 22:30:52.110";"1";;;;;;;;;;;;;;;;;;;;;;;;;;;;;;;;;;;;;;;;;;;;;
"M21";;;"Windows 8";"Rachel's Experiment (D.T.)";"1.0";"2";"1";"1";"2";"1";"1";"2014-10-16 22:25:05.457";"2014-10-16 22:39:15.974";"1";"1";"0";"88";"87";"module.training_block3.exec-3503.GoNoGo3";;;;;;;;;;;;;;;;;;;;;;;;;;;;;;;;;;;;;;;;;;;;;;;"1250";"2014-10-16 22:31:04.186";"NST_correctLoc";"27";"0";"FINISHED";"LEFT";"success";"318";"0";"2014-10-16 22:31:02.936";"3";;;;;;;;;;;;;;;;;;;;;;;;;;;;;;;;;
"M21";;;"Windows 8";"Rachel's Experiment (D.T.)";"1.0";"2";"1";"1";"2";"1";"1";"2014-10-16 22:25:05.457";"2014-10-16 22:39:15.974";"1";"1";"0";"89";"88";"module.training_block3.exec-3503.GoNoGo3";;;;;;;;;;;;;;;;;;;;;;;;;;;;;;;;;;;;;;;;;;;;;;;"1250";"2014-10-16 22:31:06.703";"NST_correctLoc";"3";"0";"FINISHED";"LEFT";"success";"354";"0";"2014-10-16 22:31:05.453";"1";;;;;;;;;;;;;;;;;;;;;;;;;;;;;;;;;
"M21";;;"Windows 8";"Rachel's Experiment (D.T.)";"1.0";"2";"1";"1";"2";"1";"1";"2014-10-16 22:25:05.457";"2014-10-16 22:39:15.974";"1";"1";"0";"90";"89";"module.training_block3.exec-3503.GoNoGo3";;;;;;;;;;;;;;;;;;;;;;;;;;;;;;;;;;;;;;;;;;;;;;;"1250";"2014-10-16 22:31:09.277";"NST_correctLoc";"26";"1";"FINISHED";"RIGHT";"success";"317";"0";"2014-10-16 22:31:08.027";"3";;;;;;;;;;;;;;;;;;;;;;;;;;;;;;;;;
"M21";;;"Windows 8";"Rachel's Experiment (D.T.)";"1.0";"2";"1";"1";"2";"1";"1";"2014-10-16 22:25:05.457";"2014-10-16 22:39:15.974";"1";"1";"0";"91";"90";"module.training_block3.exec-3503.GoNoGo3";;;;;;;;;;;;;;;;;;;;;;;;;;;;;;;;;;;;;;;;;;;;;;;"1250";"2014-10-16 22:31:11.793";"NST_correctLoc";"35";"1";"FINISHED";"RIGHT";"success";"359";"0";"2014-10-16 22:31:10.543";"3";;;;;;;;;;;;;;;;;;;;;;;;;;;;;;;;;
"M21";;;"Windows 8";"Rachel's Experiment (D.T.)";"1.0";"2";"1";"1";"2";"1";"1";"2014-10-16 22:25:05.457";"2014-10-16 22:39:15.974";"1";"1";"0";"92";"91";"module.training_block3.exec-3503.GoNoGo3";;;;;;;;;;;;;;;;;;;;;;;;;;;;;;;;;;;;;;;;;;;;;;;"1250";"2014-10-16 22:31:14.310";"NST_correctLoc";"11";"0";"FINISHED";"LEFT";"success";"366";"0";"2014-10-16 22:31:13.060";"2";;;;;;;;;;;;;;;;;;;;;;;;;;;;;;;;;
"M21";;;"Windows 8";"Rachel's Experiment (D.T.)";"1.0";"2";"1";"1";"2";"1";"1";"2014-10-16 22:25:05.457";"2014-10-16 22:39:15.974";"1";"1";"0";"93";"92";"module.training_block3.exec-3503.GoNoGo3";;;;;;;;;;;;;;;;;;;;;;;;;;;;;;;;;;;;;;;;;;;;;;;"1250";"2014-10-16 22:31:16.842";"NST_correctLoc";"30";"1";"FINISHED";"RIGHT";"success";"475";"0";"2014-10-16 22:31:15.591";"3";;;;;;;;;;;;;;;;;;;;;;;;;;;;;;;;;
"M21";;;"Windows 8";"Rachel's Experiment (D.T.)";"1.0";"2";"1";"1";"2";"1";"1";"2014-10-16 22:25:05.457";"2014-10-16 22:39:15.974";"1";"1";"0";"94";"93";"module.training_block3.exec-3503.GoNoGo3";;;;;;;;;;;;;;;;;;;;;;;;;;;;;;;;;;;;;;;;;;;;;;;"1250";"2014-10-16 22:31:19.363";"NST_correctLoc";"31";"1";"FINISHED";"RIGHT";"success";"543";"0";"2014-10-16 22:31:18.112";"3";;;;;;;;;;;;;;;;;;;;;;;;;;;;;;;;;
"M21";;;"Windows 8";"Rachel's Experiment (D.T.)";"1.0";"2";"1";"1";"2";"1";"1";"2014-10-16 22:25:05.457";"2014-10-16 22:39:15.974";"1";"1";"0";"95";"94";"module.training_block3.exec-3503.GoNoGo3";;;;;;;;;;;;;;;;;;;;;;;;;;;;;;;;;;;;;;;;;;;;;;;"1250";"2014-10-16 22:31:21.893";"NST_correctLoc";"25";"1";"FINISHED";"RIGHT";"success";"400";"0";"2014-10-16 22:31:20.643";"3";;;;;;;;;;;;;;;;;;;;;;;;;;;;;;;;;
"M21";;;"Windows 8";"Rachel's Experiment (D.T.)";"1.0";"2";"1";"1";"2";"1";"1";"2014-10-16 22:25:05.457";"2014-10-16 22:39:15.974";"1";"1";"0";"96";"95";"module.training_block3.exec-3503.GoNoGo3";;;;;;;;;;;;;;;;;;;;;;;;;;;;;;;;;;;;;;;;;;;;;;;"1250";"2014-10-16 22:31:24.415";"NST_correctLoc";"19";"1";"FINISHED";"RIGHT";"success";"378";"0";"2014-10-16 22:31:23.165";"3";;;;;;;;;;;;;;;;;;;;;;;;;;;;;;;;;
"M21";;;"Windows 8";"Rachel's Experiment (D.T.)";"1.0";"2";"1";"1";"2";"1";"1";"2014-10-16 22:25:05.457";"2014-10-16 22:39:15.974";"1";"1";"0";"97";"96";"module.training_block3.exec-3503.GoNoGo3";;;;;;;;;;;;;;;;;;;;;;;;;;;;;;;;;;;;;;;;;;;;;;;"1249";"2014-10-16 22:31:26.944";"NST_correctLoc";"14";"1";"FINISHED";"RIGHT";"success";"342";"0";"2014-10-16 22:31:25.693";"2";;;;;;;;;;;;;;;;;;;;;;;;;;;;;;;;;
"M21";;;"Windows 8";"Rachel's Experiment (D.T.)";"1.0";"2";"1";"1";"2";"1";"1";"2014-10-16 22:25:05.457";"2014-10-16 22:39:15.974";"1";"1";"0";"98";"97";"module.training_block3.exec-3503.GoNoGo3";;;;;;;;;;;;;;;;;;;;;;;;;;;;;;;;;;;;;;;;;;;;;;;"1249";"2014-10-16 22:31:29.472";"NST_correctLoc";"17";"0";"FINISHED";"LEFT";"success";"313";"0";"2014-10-16 22:31:28.222";"2";;;;;;;;;;;;;;;;;;;;;;;;;;;;;;;;;
"M21";;;"Windows 8";"Rachel's Experiment (D.T.)";"1.0";"2";"1";"1";"2";"1";"1";"2014-10-16 22:25:05.457";"2014-10-16 22:39:15.974";"1";"1";"0";"99";"98";"module.training_block3.exec-3503.GoNoGo3";;;;;;;;;;;;;;;;;;;;;;;;;;;;;;;;;;;;;;;;;;;;;;;"1249";"2014-10-16 22:31:31.996";"NST_correctLoc";"32";"1";"FINISHED";"RIGHT";"success";"496";"0";"2014-10-16 22:31:30.746";"3";;;;;;;;;;;;;;;;;;;;;;;;;;;;;;;;;
"M21";;;"Windows 8";"Rachel's Experiment (D.T.)";"1.0";"2";"1";"1";"2";"1";"1";"2014-10-16 22:25:05.457";"2014-10-16 22:39:15.974";"1";"1";"0";"100";"99";"module.training_block3.exec-3503.GoNoGo3";;;;;;;;;;;;;;;;;;;;;;;;;;;;;;;;;;;;;;;;;;;;;;;"1249";"2014-10-16 22:31:34.520";"NST_correctLoc";"10";"1";"FINISHED";"RIGHT";"success";"338";"0";"2014-10-16 22:31:33.270";"2";;;;;;;;;;;;;;;;;;;;;;;;;;;;;;;;;
"M21";;;"Windows 8";"Rachel's Experiment (D.T.)";"1.0";"2";"1";"1";"2";"1";"1";"2014-10-16 22:25:05.457";"2014-10-16 22:39:15.974";"1";"1";"0";"101";"100";"module.training_block3.exec-3503.GoNoGo3";;;;;;;;;;;;;;;;;;;;;;;;;;;;;;;;;;;;;;;;;;;;;;;"1250";"2014-10-16 22:31:37.036";"NST_correctLoc";"0";"0";"FINISHED";"LEFT";"success";"263";"0";"2014-10-16 22:31:35.785";"1";;;;;;;;;;;;;;;;;;;;;;;;;;;;;;;;;
"M21";;;"Windows 8";"Rachel's Experiment (D.T.)";"1.0";"2";"1";"1";"2";"1";"1";"2014-10-16 22:25:05.457";"2014-10-16 22:39:15.974";"1";"1";"0";"102";"101";"module.training_block3.exec-3503.GoNoGo3";;;;;;;;;;;;;;;;;;;;;;;;;;;;;;;;;;;;;;;;;;;;;;;"1250";"2014-10-16 22:31:39.556";"NST_correctLoc";"29";"1";"FINISHED";"RIGHT";"success";"361";"0";"2014-10-16 22:31:38.306";"3";;;;;;;;;;;;;;;;;;;;;;;;;;;;;;;;;
"M21";;;"Windows 8";"Rachel's Experiment (D.T.)";"1.0";"2";"1";"1";"2";"1";"1";"2014-10-16 22:25:05.457";"2014-10-16 22:39:15.974";"1";"1";"0";"103";"102";"module.training_block3.exec-3503.GoNoGo3";;;;;;;;;;;;;;;;;;;;;;;;;;;;;;;;;;;;;;;;;;;;;;;"1249";"2014-10-16 22:31:42.074";"NST_correctLoc";"8";"1";"FINISHED";"RIGHT";"success";"354";"0";"2014-10-16 22:31:40.824";"1";;;;;;;;;;;;;;;;;;;;;;;;;;;;;;;;;
"M21";;;"Windows 8";"Rachel's Experiment (D.T.)";"1.0";"2";"1";"1";"2";"1";"1";"2014-10-16 22:25:05.457";"2014-10-16 22:39:15.974";"1";"1";"0";"104";"103";"module.training_block3.exec-3503.GoNoGo3";;;;;;;;;;;;;;;;;;;;;;;;;;;;;;;;;;;;;;;;;;;;;;;"1250";"2014-10-16 22:31:44.598";"NST_correctLoc";"21";"1";"FINISHED";"RIGHT";"success";"340";"0";"2014-10-16 22:31:43.347";"3";;;;;;;;;;;;;;;;;;;;;;;;;;;;;;;;;
"M21";;;"Windows 8";"Rachel's Experiment (D.T.)";"1.0";"2";"1";"1";"2";"1";"1";"2014-10-16 22:25:05.457";"2014-10-16 22:39:15.974";"1";"1";"0";"105";"104";"module.training_block3.exec-3503.GoNoGo3";;;;;;;;;;;;;;;;;;;;;;;;;;;;;;;;;;;;;;;;;;;;;;;"1250";"2014-10-16 22:31:47.118";"NST_correctLoc";"33";"1";"FINISHED";"RIGHT";"success";"346";"0";"2014-10-16 22:31:45.867";"3";;;;;;;;;;;;;;;;;;;;;;;;;;;;;;;;;
"M21";;;"Windows 8";"Rachel's Experiment (D.T.)";"1.0";"2";"1";"1";"2";"1";"1";"2014-10-16 22:25:05.457";"2014-10-16 22:39:15.974";"1";"1";"0";"106";"105";"module.training_block3.exec-3503.GoNoGo3";;;;;;;;;;;;;;;;;;;;;;;;;;;;;;;;;;;;;;;;;;;;;;;"1250";"2014-10-16 22:31:49.633";"NST_correctLoc";"24";"0";"FINISHED";"LEFT";"success";"494";"0";"2014-10-16 22:31:48.382";"3";;;;;;;;;;;;;;;;;;;;;;;;;;;;;;;;;
"M21";;;"Windows 8";"Rachel's Experiment (D.T.)";"1.0";"2";"1";"1";"2";"1";"1";"2014-10-16 22:25:05.457";"2014-10-16 22:39:15.974";"1";"1";"0";"107";"106";"module.training_block3.exec-3503.GoNoGo3";;;;;;;;;;;;;;;;;;;;;;;;;;;;;;;;;;;;;;;;;;;;;;;"1250";"2014-10-16 22:31:52.152";"NST_correctLoc";"6";"1";"FINISHED";"RIGHT";"success";"335";"0";"2014-10-16 22:31:50.901";"1";;;;;;;;;;;;;;;;;;;;;;;;;;;;;;;;;
"M21";;;"Windows 8";"Rachel's Experiment (D.T.)";"1.0";"2";"1";"1";"2";"1";"1";"2014-10-16 22:25:05.457";"2014-10-16 22:39:15.974";"1";"1";"0";"108";"107";"module.training_block3.exec-3503.GoNoGo3";;;;;;;;;;;;;;;;;;;;;;;;;;;;;;;;;;;;;;;;;;;;;;;"1250";"2014-10-16 22:31:54.669";"NST_correctLoc";"5";"1";"FINISHED";"RIGHT";"success";"377";"0";"2014-10-16 22:31:53.419";"1";;;;;;;;;;;;;;;;;;;;;;;;;;;;;;;;;
"M21";;;"Windows 8";"Rachel's Experiment (D.T.)";"1.0";"2";"1";"1";"2";"1";"1";"2014-10-16 22:25:05.457";"2014-10-16 22:39:15.974";"1";"1";"0";"109";"108";"module.training_block3.exec-3503.GoNoGo3";;;;;;;;;;;;;;;;;;;;;;;;;;;;;;;;;;;;;;;;;;;;;;;"1250";"2014-10-16 22:31:57.196";"NST_correctLoc";"2";"0";"FINISHED";"LEFT";"success";"369";"0";"2014-10-16 22:31:55.946";"1";;;;;;;;;;;;;;;;;;;;;;;;;;;;;;;;;
"M21";;;"Windows 8";"Rachel's Experiment (D.T.)";"1.0";"2";"1";"1";"2";"1";"1";"2014-10-16 22:25:05.457";"2014-10-16 22:39:15.974";"1";"1";"0";"110";"109";"module.training_block3.exec-3503.GoNoGo3";;;;;;;;;;;;;;;;;;;;;;;;;;;;;;;;;;;;;;;;;;;;;;;"1250";"2014-10-16 22:31:59.714";"NST_correctLoc";"13";"1";"FINISHED";"RIGHT";"success";"408";"0";"2014-10-16 22:31:58.464";"2";;;;;;;;;;;;;;;;;;;;;;;;;;;;;;;;;
"M21";;;"Windows 8";"Rachel's Experiment (D.T.)";"1.0";"2";"1";"1";"2";"1";"1";"2014-10-16 22:25:05.457";"2014-10-16 22:39:15.974";"1";"1";"0";"111";"110";"module.training_block3.exec-3503.GoNoGo3";;;;;;;;;;;;;;;;;;;;;;;;;;;;;;;;;;;;;;;;;;;;;;;"1249";"2014-10-16 22:32:02.246";"NST_correctLoc";"23";"0";"FINISHED";"LEFT";"success";"358";"0";"2014-10-16 22:32:00.995";"3";;;;;;;;;;;;;;;;;;;;;;;;;;;;;;;;;
"M21";;;"Windows 8";"Rachel's Experiment (D.T.)";"1.0";"2";"1";"1";"2";"1";"1";"2014-10-16 22:25:05.457";"2014-10-16 22:39:15.974";"1";"1";"0";"112";"111";"module.training_block3.exec-3503.GoNoGo3";;;;;;;;;;;;;;;;;;;;;;;;;;;;;;;;;;;;;;;;;;;;;;;"1249";"2014-10-16 22:32:04.781";"NST_correctLoc";"28";"1";"FINISHED";"RIGHT";"success";"339";"0";"2014-10-16 22:32:03.530";"3";;;;;;;;;;;;;;;;;;;;;;;;;;;;;;;;;
"M21";;;"Windows 8";"Rachel's Experiment (D.T.)";"1.0";"2";"1";"1";"2";"1";"1";"2014-10-16 22:25:05.457";"2014-10-16 22:39:15.974";"1";"1";"0";"113";"112";"module.training_block3.exec-3503.GoNoGo3";;;;;;;;;;;;;;;;;;;;;;;;;;;;;;;;;;;;;;;;;;;;;;;"1250";"2014-10-16 22:32:07.297";"NST_correctLoc";"1";"0";"FINISHED";"LEFT";"success";"366";"0";"2014-10-16 22:32:06.046";"1";;;;;;;;;;;;;;;;;;;;;;;;;;;;;;;;;
"M21";;;"Windows 8";"Rachel's Experiment (D.T.)";"1.0";"2";"1";"1";"2";"1";"1";"2014-10-16 22:25:05.457";"2014-10-16 22:39:15.974";"1";"1";"0";"114";"113";"module.training_block3.exec-3503.GoNoGo3";;;;;;;;;;;;;;;;;;;;;;;;;;;;;;;;;;;;;;;;;;;;;;;"1250";"2014-10-16 22:32:09.817";"NST_correctLoc";"22";"1";"FINISHED";"RIGHT";"success";"527";"0";"2014-10-16 22:32:08.566";"3";;;;;;;;;;;;;;;;;;;;;;;;;;;;;;;;;
"M21";;;"Windows 8";"Rachel's Experiment (D.T.)";"1.0";"2";"1";"1";"2";"1";"1";"2014-10-16 22:25:05.457";"2014-10-16 22:39:15.974";"1";"1";"0";"115";"114";"module.training_block3.exec-3503.GoNoGo3";;;;;;;;;;;;;;;;;;;;;;;;;;;;;;;;;;;;;;;;;;;;;;;"1249";"2014-10-16 22:32:12.335";"NST_correctLoc";"12";"0";"FINISHED";"LEFT";"success";"285";"0";"2014-10-16 22:32:11.084";"2";;;;;;;;;;;;;;;;;;;;;;;;;;;;;;;;;
"M21";;;"Windows 8";"Rachel's Experiment (D.T.)";"1.0";"2";"1";"1";"2";"1";"1";"2014-10-16 22:25:05.457";"2014-10-16 22:39:15.974";"1";"1";"0";"116";"115";"module.training_block3.exec-3503.GoNoGo3";;;;;;;;;;;;;;;;;;;;;;;;;;;;;;;;;;;;;;;;;;;;;;;"1250";"2014-10-16 22:32:14.866";"NST_correctLoc";"34";"1";"FINISHED";"RIGHT";"success";"285";"0";"2014-10-16 22:32:13.615";"3";;;;;;;;;;;;;;;;;;;;;;;;;;;;;;;;;
"M21";;;"Windows 8";"Rachel's Experiment (D.T.)";"1.0";"2";"1";"1";"2";"1";"1";"2014-10-16 22:25:05.457";"2014-10-16 22:39:15.974";"1";"1";"0";"117";"116";"module.training_block3.exec-3503.GoNoGo3";;;;;;;;;;;;;;;;;;;;;;;;;;;;;;;;;;;;;;;;;;;;;;;"1250";"2014-10-16 22:32:17.386";"NST_correctLoc";"15";"0";"FINISHED";"LEFT";"success";"278";"0";"2014-10-16 22:32:16.136";"2";;;;;;;;;;;;;;;;;;;;;;;;;;;;;;;;;
"M21";;;"Windows 8";"Rachel's Experiment (D.T.)";"1.0";"2";"1";"1";"2";"1";"1";"2014-10-16 22:25:05.457";"2014-10-16 22:39:15.974";"1";"1";"0";"118";"117";"module.training_block3.exec-3503.GoNoGo3";;;;;;;;;;;;;;;;;;;;;;;;;;;;;;;;;;;;;;;;;;;;;;;"1250";"2014-10-16 22:32:19.906";"NST_correctLoc";"20";"0";"FINISHED";"LEFT";"success";"308";"0";"2014-10-16 22:32:18.656";"3";;;;;;;;;;;;;;;;;;;;;;;;;;;;;;;;;
"M21";;;"Windows 8";"Rachel's Experiment (D.T.)";"1.0";"2";"1";"1";"2";"1";"1";"2014-10-16 22:25:05.457";"2014-10-16 22:39:15.974";"1";"1";"0";"119";"118";"module.training_block3.exec-3503.GoNoGo3";;;;;;;;;;;;;;;;;;;;;;;;;;;;;;;;;;;;;;;;;;;;;;;"1250";"2014-10-16 22:32:22.421";"NST_correctLoc";"18";"1";"FINISHED";"RIGHT";"success";"310";"0";"2014-10-16 22:32:21.171";"3";;;;;;;;;;;;;;;;;;;;;;;;;;;;;;;;;
"M21";;;"Windows 8";"Rachel's Experiment (D.T.)";"1.0";"2";"1";"1";"2";"1";"1";"2014-10-16 22:25:05.457";"2014-10-16 22:39:15.974";"1";"1";"0";"120";"119";"module.training_block3.exec-3503.GoNoGo3";;;;;;;;;;;;;;;;;;;;;;;;;;;;;;;;;;;;;;;;;;;;;;;"1250";"2014-10-16 22:32:24.941";"NST_correctLoc";"16";"1";"FINISHED";"RIGHT";"success";"362";"0";"2014-10-16 22:32:23.690";"2";;;;;;;;;;;;;;;;;;;;;;;;;;;;;;;;;
"M21";;;"Windows 8";"Rachel's Experiment (D.T.)";"1.0";"2";"1";"1";"2";"1";"1";"2014-10-16 22:25:05.457";"2014-10-16 22:39:15.974";"1";"1";"0";"121";"120";"module.training_block3.exec-3503.GoNoGo3";;;;;;;;;;;;;;;;;;;;;;;;;;;;;;;;;;;;;;;;;;;;;;;"1249";"2014-10-16 22:32:27.467";"NST_correctLoc";"4";"0";"FINISHED";"LEFT";"success";"311";"0";"2014-10-16 22:32:26.217";"1";;;;;;;;;;;;;;;;;;;;;;;;;;;;;;;;;
"M21";;;"Windows 8";"Rachel's Experiment (D.T.)";"1.0";"2";"1";"1";"2";"1";"1";"2014-10-16 22:25:05.457";"2014-10-16 22:39:15.974";"1";"1";"0";"122";"121";"module.training_block3.exec-3503.GoNoGo3";;;;;;;;;;;;;;;;;;;;;;;;;;;;;;;;;;;;;;;;;;;;;;;"1250";"2014-10-16 22:32:29.988";"NST_correctLoc";"7";"1";"FINISHED";"RIGHT";"success";"314";"0";"2014-10-16 22:32:28.737";"1";;;;;;;;;;;;;;;;;;;;;;;;;;;;;;;;;
"M21";;;"Windows 8";"Rachel's Experiment (D.T.)";"1.0";"2";"1";"1";"2";"1";"1";"2014-10-16 22:25:05.457";"2014-10-16 22:39:15.974";"1";"1";"0";"123";"122";"module.training_block3.exec-3503.GoNoGo3";;;;;;;;;;;;;;;;;;;;;;;;;;;;;;;;;;;;;;;;;;;;;;;"1250";"2014-10-16 22:32:32.503";"NST_correctLoc";"9";"0";"FINISHED";"LEFT";"success";"295";"0";"2014-10-16 22:32:31.252";"2";;;;;;;;;;;;;;;;;;;;;;;;;;;;;;;;;
"M21";;;"Windows 8";"Rachel's Experiment (D.T.)";"1.0";"2";"1";"1";"2";"1";"1";"2014-10-16 22:25:05.457";"2014-10-16 22:39:15.974";"1";"1";"0";"124";"123";"module.training_block4.exec-2747.GoNoGo4";;;;;;;;;;;;;;;;;;;;;;;;;;;;;;;;;;;;;;;;;;;;;;;;;;;;;;;;;;;"1250";"2014-10-16 22:32:43.016";"NST_correctLoc";"13";"1";"FINISHED";"RIGHT";"success";"367";"0";"2014-10-16 22:32:41.765";"2";;;;;;;;;;;;;;;;;;;;;
"M21";;;"Windows 8";"Rachel's Experiment (D.T.)";"1.0";"2";"1";"1";"2";"1";"1";"2014-10-16 22:25:05.457";"2014-10-16 22:39:15.974";"1";"1";"0";"125";"124";"module.training_block4.exec-2747.GoNoGo4";;;;;;;;;;;;;;;;;;;;;;;;;;;;;;;;;;;;;;;;;;;;;;;;;;;;;;;;;;;"1249";"2014-10-16 22:32:45.545";"NST_correctLoc";"15";"1";"FINISHED";"RIGHT";"success";"351";"0";"2014-10-16 22:32:44.295";"2";;;;;;;;;;;;;;;;;;;;;
"M21";;;"Windows 8";"Rachel's Experiment (D.T.)";"1.0";"2";"1";"1";"2";"1";"1";"2014-10-16 22:25:05.457";"2014-10-16 22:39:15.974";"1";"1";"0";"126";"125";"module.training_block4.exec-2747.GoNoGo4";;;;;;;;;;;;;;;;;;;;;;;;;;;;;;;;;;;;;;;;;;;;;;;;;;;;;;;;;;;"1250";"2014-10-16 22:32:48.062";"NST_correctLoc";"0";"0";"FINISHED";"LEFT";"success";"310";"0";"2014-10-16 22:32:46.811";"1";;;;;;;;;;;;;;;;;;;;;
"M21";;;"Windows 8";"Rachel's Experiment (D.T.)";"1.0";"2";"1";"1";"2";"1";"1";"2014-10-16 22:25:05.457";"2014-10-16 22:39:15.974";"1";"1";"0";"127";"126";"module.training_block4.exec-2747.GoNoGo4";;;;;;;;;;;;;;;;;;;;;;;;;;;;;;;;;;;;;;;;;;;;;;;;;;;;;;;;;;;"1250";"2014-10-16 22:32:50.590";"NST_correctLoc";"1";"0";"FINISHED";"LEFT";"success";"345";"0";"2014-10-16 22:32:49.339";"1";;;;;;;;;;;;;;;;;;;;;
"M21";;;"Windows 8";"Rachel's Experiment (D.T.)";"1.0";"2";"1";"1";"2";"1";"1";"2014-10-16 22:25:05.457";"2014-10-16 22:39:15.974";"1";"1";"0";"128";"127";"module.training_block4.exec-2747.GoNoGo4";;;;;;;;;;;;;;;;;;;;;;;;;;;;;;;;;;;;;;;;;;;;;;;;;;;;;;;;;;;"1250";"2014-10-16 22:32:53.113";"NST_correctLoc";"25";"1";"FINISHED";"RIGHT";"success";"307";"0";"2014-10-16 22:32:51.862";"3";;;;;;;;;;;;;;;;;;;;;
"M21";;;"Windows 8";"Rachel's Experiment (D.T.)";"1.0";"2";"1";"1";"2";"1";"1";"2014-10-16 22:25:05.457";"2014-10-16 22:39:15.974";"1";"1";"0";"129";"128";"module.training_block4.exec-2747.GoNoGo4";;;;;;;;;;;;;;;;;;;;;;;;;;;;;;;;;;;;;;;;;;;;;;;;;;;;;;;;;;;"1250";"2014-10-16 22:32:55.631";"NST_correctLoc";"21";"0";"FINISHED";"LEFT";"success";"303";"0";"2014-10-16 22:32:54.380";"3";;;;;;;;;;;;;;;;;;;;;
"M21";;;"Windows 8";"Rachel's Experiment (D.T.)";"1.0";"2";"1";"1";"2";"1";"1";"2014-10-16 22:25:05.457";"2014-10-16 22:39:15.974";"1";"1";"0";"130";"129";"module.training_block4.exec-2747.GoNoGo4";;;;;;;;;;;;;;;;;;;;;;;;;;;;;;;;;;;;;;;;;;;;;;;;;;;;;;;;;;;"1250";"2014-10-16 22:32:58.155";"NST_correctLoc";"24";"0";"FINISHED";"LEFT";"success";"282";"0";"2014-10-16 22:32:56.905";"3";;;;;;;;;;;;;;;;;;;;;
"M21";;;"Windows 8";"Rachel's Experiment (D.T.)";"1.0";"2";"1";"1";"2";"1";"1";"2014-10-16 22:25:05.457";"2014-10-16 22:39:15.974";"1";"1";"0";"131";"130";"module.training_block4.exec-2747.GoNoGo4";;;;;;;;;;;;;;;;;;;;;;;;;;;;;;;;;;;;;;;;;;;;;;;;;;;;;;;;;;;"1250";"2014-10-16 22:33:00.676";"NST_correctLoc";"20";"1";"FINISHED";"RIGHT";"success";"283";"0";"2014-10-16 22:32:59.425";"3";;;;;;;;;;;;;;;;;;;;;
"M21";;;"Windows 8";"Rachel's Experiment (D.T.)";"1.0";"2";"1";"1";"2";"1";"1";"2014-10-16 22:25:05.457";"2014-10-16 22:39:15.974";"1";"1";"0";"132";"131";"module.training_block4.exec-2747.GoNoGo4";;;;;;;;;;;;;;;;;;;;;;;;;;;;;;;;;;;;;;;;;;;;;;;;;;;;;;;;;;;"1250";"2014-10-16 22:33:03.200";"NST_correctLoc";"26";"0";"FINISHED";"LEFT";"success";"293";"0";"2014-10-16 22:33:01.949";"3";;;;;;;;;;;;;;;;;;;;;
"M21";;;"Windows 8";"Rachel's Experiment (D.T.)";"1.0";"2";"1";"1";"2";"1";"1";"2014-10-16 22:25:05.457";"2014-10-16 22:39:15.974";"1";"1";"0";"133";"132";"module.training_block4.exec-2747.GoNoGo4";;;;;;;;;;;;;;;;;;;;;;;;;;;;;;;;;;;;;;;;;;;;;;;;;;;;;;;;;;;"1250";"2014-10-16 22:33:05.714";"NST_correctLoc";"6";"0";"FINISHED";"LEFT";"success";"328";"0";"2014-10-16 22:33:04.463";"1";;;;;;;;;;;;;;;;;;;;;
"M21";;;"Windows 8";"Rachel's Experiment (D.T.)";"1.0";"2";"1";"1";"2";"1";"1";"2014-10-16 22:25:05.457";"2014-10-16 22:39:15.974";"1";"1";"0";"134";"133";"module.training_block4.exec-2747.GoNoGo4";;;;;;;;;;;;;;;;;;;;;;;;;;;;;;;;;;;;;;;;;;;;;;;;;;;;;;;;;;;"1249";"2014-10-16 22:33:08.236";"NST_correctLoc";"8";"0";"FINISHED";"LEFT";"success";"305";"0";"2014-10-16 22:33:06.986";"1";;;;;;;;;;;;;;;;;;;;;
"M21";;;"Windows 8";"Rachel's Experiment (D.T.)";"1.0";"2";"1";"1";"2";"1";"1";"2014-10-16 22:25:05.457";"2014-10-16 22:39:15.974";"1";"1";"0";"135";"134";"module.training_block4.exec-2747.GoNoGo4";;;;;;;;;;;;;;;;;;;;;;;;;;;;;;;;;;;;;;;;;;;;;;;;;;;;;;;;;;;"1250";"2014-10-16 22:33:10.758";"NST_correctLoc";"17";"1";"FINISHED";"RIGHT";"success";"304";"0";"2014-10-16 22:33:09.508";"2";;;;;;;;;;;;;;;;;;;;;
"M21";;;"Windows 8";"Rachel's Experiment (D.T.)";"1.0";"2";"1";"1";"2";"1";"1";"2014-10-16 22:25:05.457";"2014-10-16 22:39:15.974";"1";"1";"0";"136";"135";"module.training_block4.exec-2747.GoNoGo4";;;;;;;;;;;;;;;;;;;;;;;;;;;;;;;;;;;;;;;;;;;;;;;;;;;;;;;;;;;"1250";"2014-10-16 22:33:13.277";"NST_correctLoc";"9";"0";"FINISHED";"LEFT";"success";"402";"0";"2014-10-16 22:33:12.027";"2";;;;;;;;;;;;;;;;;;;;;
"M21";;;"Windows 8";"Rachel's Experiment (D.T.)";"1.0";"2";"1";"1";"2";"1";"1";"2014-10-16 22:25:05.457";"2014-10-16 22:39:15.974";"1";"1";"0";"137";"136";"module.training_block4.exec-2747.GoNoGo4";;;;;;;;;;;;;;;;;;;;;;;;;;;;;;;;;;;;;;;;;;;;;;;;;;;;;;;;;;;"1249";"2014-10-16 22:33:15.795";"NST_correctLoc";"22";"0";"FINISHED";"LEFT";"success";"304";"0";"2014-10-16 22:33:14.545";"3";;;;;;;;;;;;;;;;;;;;;
"M21";;;"Windows 8";"Rachel's Experiment (D.T.)";"1.0";"2";"1";"1";"2";"1";"1";"2014-10-16 22:25:05.457";"2014-10-16 22:39:15.974";"1";"1";"0";"138";"137";"module.training_block4.exec-2747.GoNoGo4";;;;;;;;;;;;;;;;;;;;;;;;;;;;;;;;;;;;;;;;;;;;;;;;;;;;;;;;;;;"1250";"2014-10-16 22:33:18.309";"NST_correctLoc";"35";"1";"FINISHED";"RIGHT";"success";"460";"0";"2014-10-16 22:33:17.059";"3";;;;;;;;;;;;;;;;;;;;;
"M21";;;"Windows 8";"Rachel's Experiment (D.T.)";"1.0";"2";"1";"1";"2";"1";"1";"2014-10-16 22:25:05.457";"2014-10-16 22:39:15.974";"1";"1";"0";"139";"138";"module.training_block4.exec-2747.GoNoGo4";;;;;;;;;;;;;;;;;;;;;;;;;;;;;;;;;;;;;;;;;;;;;;;;;;;;;;;;;;;"1250";"2014-10-16 22:33:20.833";"NST_correctLoc";"33";"0";"FINISHED";"LEFT";"success";"318";"0";"2014-10-16 22:33:19.582";"3";;;;;;;;;;;;;;;;;;;;;
"M21";;;"Windows 8";"Rachel's Experiment (D.T.)";"1.0";"2";"1";"1";"2";"1";"1";"2014-10-16 22:25:05.457";"2014-10-16 22:39:15.974";"1";"1";"0";"140";"139";"module.training_block4.exec-2747.GoNoGo4";;;;;;;;;;;;;;;;;;;;;;;;;;;;;;;;;;;;;;;;;;;;;;;;;;;;;;;;;;;"1250";"2014-10-16 22:33:23.417";"NST_correctLoc";"5";"0";"FINISHED";"LEFT";"success";"276";"0";"2014-10-16 22:33:22.166";"1";;;;;;;;;;;;;;;;;;;;;
"M21";;;"Windows 8";"Rachel's Experiment (D.T.)";"1.0";"2";"1";"1";"2";"1";"1";"2014-10-16 22:25:05.457";"2014-10-16 22:39:15.974";"1";"1";"0";"141";"140";"module.training_block4.exec-2747.GoNoGo4";;;;;;;;;;;;;;;;;;;;;;;;;;;;;;;;;;;;;;;;;;;;;;;;;;;;;;;;;;;"1250";"2014-10-16 22:33:25.944";"NST_correctLoc";"30";"0";"FINISHED";"LEFT";"success";"305";"0";"2014-10-16 22:33:24.693";"3";;;;;;;;;;;;;;;;;;;;;
"M21";;;"Windows 8";"Rachel's Experiment (D.T.)";"1.0";"2";"1";"1";"2";"1";"1";"2014-10-16 22:25:05.457";"2014-10-16 22:39:15.974";"1";"1";"0";"142";"141";"module.training_block4.exec-2747.GoNoGo4";;;;;;;;;;;;;;;;;;;;;;;;;;;;;;;;;;;;;;;;;;;;;;;;;;;;;;;;;;;"1250";"2014-10-16 22:33:28.463";"NST_correctLoc";"11";"1";"FINISHED";"RIGHT";"success";"394";"0";"2014-10-16 22:33:27.212";"2";;;;;;;;;;;;;;;;;;;;;
"M21";;;"Windows 8";"Rachel's Experiment (D.T.)";"1.0";"2";"1";"1";"2";"1";"1";"2014-10-16 22:25:05.457";"2014-10-16 22:39:15.974";"1";"1";"0";"143";"142";"module.training_block4.exec-2747.GoNoGo4";;;;;;;;;;;;;;;;;;;;;;;;;;;;;;;;;;;;;;;;;;;;;;;;;;;;;;;;;;;"1250";"2014-10-16 22:33:30.986";"NST_correctLoc";"32";"0";"FINISHED";"LEFT";"success";"315";"0";"2014-10-16 22:33:29.736";"3";;;;;;;;;;;;;;;;;;;;;
"M21";;;"Windows 8";"Rachel's Experiment (D.T.)";"1.0";"2";"1";"1";"2";"1";"1";"2014-10-16 22:25:05.457";"2014-10-16 22:39:15.974";"1";"1";"0";"144";"143";"module.training_block4.exec-2747.GoNoGo4";;;;;;;;;;;;;;;;;;;;;;;;;;;;;;;;;;;;;;;;;;;;;;;;;;;;;;;;;;;"1250";"2014-10-16 22:33:33.501";"NST_correctLoc";"27";"0";"FINISHED";"LEFT";"success";"327";"0";"2014-10-16 22:33:32.250";"3";;;;;;;;;;;;;;;;;;;;;
"M21";;;"Windows 8";"Rachel's Experiment (D.T.)";"1.0";"2";"1";"1";"2";"1";"1";"2014-10-16 22:25:05.457";"2014-10-16 22:39:15.974";"1";"1";"0";"145";"144";"module.training_block4.exec-2747.GoNoGo4";;;;;;;;;;;;;;;;;;;;;;;;;;;;;;;;;;;;;;;;;;;;;;;;;;;;;;;;;;;"1250";"2014-10-16 22:33:36.024";"NST_correctLoc";"12";"0";"FINISHED";"LEFT";"success";"378";"0";"2014-10-16 22:33:34.773";"2";;;;;;;;;;;;;;;;;;;;;
"M21";;;"Windows 8";"Rachel's Experiment (D.T.)";"1.0";"2";"1";"1";"2";"1";"1";"2014-10-16 22:25:05.457";"2014-10-16 22:39:15.974";"1";"1";"0";"146";"145";"module.training_block4.exec-2747.GoNoGo4";;;;;;;;;;;;;;;;;;;;;;;;;;;;;;;;;;;;;;;;;;;;;;;;;;;;;;;;;;;"1250";"2014-10-16 22:33:38.550";"NST_correctLoc";"7";"0";"FINISHED";"LEFT";"success";"318";"0";"2014-10-16 22:33:37.300";"1";;;;;;;;;;;;;;;;;;;;;
"M21";;;"Windows 8";"Rachel's Experiment (D.T.)";"1.0";"2";"1";"1";"2";"1";"1";"2014-10-16 22:25:05.457";"2014-10-16 22:39:15.974";"1";"1";"0";"147";"146";"module.training_block4.exec-2747.GoNoGo4";;;;;;;;;;;;;;;;;;;;;;;;;;;;;;;;;;;;;;;;;;;;;;;;;;;;;;;;;;;"1250";"2014-10-16 22:33:41.075";"NST_correctLoc";"34";"0";"FINISHED";"LEFT";"success";"270";"0";"2014-10-16 22:33:39.824";"3";;;;;;;;;;;;;;;;;;;;;
"M21";;;"Windows 8";"Rachel's Experiment (D.T.)";"1.0";"2";"1";"1";"2";"1";"1";"2014-10-16 22:25:05.457";"2014-10-16 22:39:15.974";"1";"1";"0";"148";"147";"module.training_block4.exec-2747.GoNoGo4";;;;;;;;;;;;;;;;;;;;;;;;;;;;;;;;;;;;;;;;;;;;;;;;;;;;;;;;;;;"1250";"2014-10-16 22:33:43.590";"NST_correctLoc";"2";"0";"FINISHED";"LEFT";"success";"305";"0";"2014-10-16 22:33:42.340";"1";;;;;;;;;;;;;;;;;;;;;
"M21";;;"Windows 8";"Rachel's Experiment (D.T.)";"1.0";"2";"1";"1";"2";"1";"1";"2014-10-16 22:25:05.457";"2014-10-16 22:39:15.974";"1";"1";"0";"149";"148";"module.training_block4.exec-2747.GoNoGo4";;;;;;;;;;;;;;;;;;;;;;;;;;;;;;;;;;;;;;;;;;;;;;;;;;;;;;;;;;;"1250";"2014-10-16 22:33:46.113";"NST_correctLoc";"31";"0";"FINISHED";"LEFT";"success";"316";"0";"2014-10-16 22:33:44.862";"3";;;;;;;;;;;;;;;;;;;;;
"M21";;;"Windows 8";"Rachel's Experiment (D.T.)";"1.0";"2";"1";"1";"2";"1";"1";"2014-10-16 22:25:05.457";"2014-10-16 22:39:15.974";"1";"1";"0";"150";"149";"module.training_block4.exec-2747.GoNoGo4";;;;;;;;;;;;;;;;;;;;;;;;;;;;;;;;;;;;;;;;;;;;;;;;;;;;;;;;;;;"1249";"2014-10-16 22:33:48.639";"NST_correctLoc";"3";"1";"FINISHED";"RIGHT";"success";"355";"0";"2014-10-16 22:33:47.389";"1";;;;;;;;;;;;;;;;;;;;;
"M21";;;"Windows 8";"Rachel's Experiment (D.T.)";"1.0";"2";"1";"1";"2";"1";"1";"2014-10-16 22:25:05.457";"2014-10-16 22:39:15.974";"1";"1";"0";"151";"150";"module.training_block4.exec-2747.GoNoGo4";;;;;;;;;;;;;;;;;;;;;;;;;;;;;;;;;;;;;;;;;;;;;;;;;;;;;;;;;;;"1249";"2014-10-16 22:33:51.168";"NST_correctLoc";"4";"0";"FINISHED";"LEFT";"success";"298";"0";"2014-10-16 22:33:49.918";"1";;;;;;;;;;;;;;;;;;;;;
"M21";;;"Windows 8";"Rachel's Experiment (D.T.)";"1.0";"2";"1";"1";"2";"1";"1";"2014-10-16 22:25:05.457";"2014-10-16 22:39:15.974";"1";"1";"0";"152";"151";"module.training_block4.exec-2747.GoNoGo4";;;;;;;;;;;;;;;;;;;;;;;;;;;;;;;;;;;;;;;;;;;;;;;;;;;;;;;;;;;"1250";"2014-10-16 22:33:53.697";"NST_correctLoc";"16";"0";"FINISHED";"LEFT";"success";"321";"0";"2014-10-16 22:33:52.446";"2";;;;;;;;;;;;;;;;;;;;;
"M21";;;"Windows 8";"Rachel's Experiment (D.T.)";"1.0";"2";"1";"1";"2";"1";"1";"2014-10-16 22:25:05.457";"2014-10-16 22:39:15.974";"1";"1";"0";"153";"152";"module.training_block4.exec-2747.GoNoGo4";;;;;;;;;;;;;;;;;;;;;;;;;;;;;;;;;;;;;;;;;;;;;;;;;;;;;;;;;;;"1250";"2014-10-16 22:33:56.220";"NST_correctLoc";"18";"1";"FINISHED";"RIGHT";"success";"357";"0";"2014-10-16 22:33:54.969";"3";;;;;;;;;;;;;;;;;;;;;
"M21";;;"Windows 8";"Rachel's Experiment (D.T.)";"1.0";"2";"1";"1";"2";"1";"1";"2014-10-16 22:25:05.457";"2014-10-16 22:39:15.974";"1";"1";"0";"154";"153";"module.training_block4.exec-2747.GoNoGo4";;;;;;;;;;;;;;;;;;;;;;;;;;;;;;;;;;;;;;;;;;;;;;;;;;;;;;;;;;;"1249";"2014-10-16 22:33:58.751";"NST_correctLoc";"28";"1";"FINISHED";"RIGHT";"success";"351";"0";"2014-10-16 22:33:57.500";"3";;;;;;;;;;;;;;;;;;;;;
"M21";;;"Windows 8";"Rachel's Experiment (D.T.)";"1.0";"2";"1";"1";"2";"1";"1";"2014-10-16 22:25:05.457";"2014-10-16 22:39:15.974";"1";"1";"0";"155";"154";"module.training_block4.exec-2747.GoNoGo4";;;;;;;;;;;;;;;;;;;;;;;;;;;;;;;;;;;;;;;;;;;;;;;;;;;;;;;;;;;"1250";"2014-10-16 22:34:01.272";"NST_correctLoc";"29";"0";"FINISHED";"LEFT";"success";"444";"0";"2014-10-16 22:34:00.022";"3";;;;;;;;;;;;;;;;;;;;;
"M21";;;"Windows 8";"Rachel's Experiment (D.T.)";"1.0";"2";"1";"1";"2";"1";"1";"2014-10-16 22:25:05.457";"2014-10-16 22:39:15.974";"1";"1";"0";"156";"155";"module.training_block4.exec-2747.GoNoGo4";;;;;;;;;;;;;;;;;;;;;;;;;;;;;;;;;;;;;;;;;;;;;;;;;;;;;;;;;;;"1250";"2014-10-16 22:34:03.794";"NST_correctLoc";"19";"0";"FINISHED";"LEFT";"success";"372";"0";"2014-10-16 22:34:02.543";"3";;;;;;;;;;;;;;;;;;;;;
"M21";;;"Windows 8";"Rachel's Experiment (D.T.)";"1.0";"2";"1";"1";"2";"1";"1";"2014-10-16 22:25:05.457";"2014-10-16 22:39:15.974";"1";"1";"0";"157";"156";"module.training_block4.exec-2747.GoNoGo4";;;;;;;;;;;;;;;;;;;;;;;;;;;;;;;;;;;;;;;;;;;;;;;;;;;;;;;;;;;"1250";"2014-10-16 22:34:06.319";"NST_correctLoc";"10";"1";"FINISHED";"RIGHT";"success";"332";"0";"2014-10-16 22:34:05.068";"2";;;;;;;;;;;;;;;;;;;;;
"M21";;;"Windows 8";"Rachel's Experiment (D.T.)";"1.0";"2";"1";"1";"2";"1";"1";"2014-10-16 22:25:05.457";"2014-10-16 22:39:15.974";"1";"1";"0";"158";"157";"module.training_block4.exec-2747.GoNoGo4";;;;;;;;;;;;;;;;;;;;;;;;;;;;;;;;;;;;;;;;;;;;;;;;;;;;;;;;;;;"1250";"2014-10-16 22:34:08.849";"NST_correctLoc";"23";"0";"FINISHED";"LEFT";"success";"285";"0";"2014-10-16 22:34:07.598";"3";;;;;;;;;;;;;;;;;;;;;
"M21";;;"Windows 8";"Rachel's Experiment (D.T.)";"1.0";"2";"1";"1";"2";"1";"1";"2014-10-16 22:25:05.457";"2014-10-16 22:39:15.974";"1";"1";"0";"159";"158";"module.training_block4.exec-2747.GoNoGo4";;;;;;;;;;;;;;;;;;;;;;;;;;;;;;;;;;;;;;;;;;;;;;;;;;;;;;;;;;;"1250";"2014-10-16 22:34:11.379";"NST_correctLoc";"14";"1";"FINISHED";"RIGHT";"success";"323";"0";"2014-10-16 22:34:10.128";"2";;;;;;;;;;;;;;;;;;;;;
"M21";;;"Windows 8";"Rachel's Experiment (D.T.)";"1.0";"2";"1";"1";"2";"1";"1";"2014-10-16 22:25:05.457";"2014-10-16 22:39:15.974";"1";"1";"0";"160";"159";"module.devaluation_practice.exec-9295.devalPractice";;;;;;;;;;;;"24186";"2014-10-16 22:35:24.698";"0";"4";"3";"7";"5463";"5184";"10493";"2014-10-16 22:35:00.511";;;;;;;;;;;;;;;;;;;;;;;;;;;;;;;;;;;;;;;;;;;;;;;;;;;;;;;;;;;;;;;;;;;;;;
"M21";;;"Windows 8";"Rachel's Experiment (D.T.)";"1.0";"2";"1";"1";"2";"1";"1";"2014-10-16 22:25:05.457";"2014-10-16 22:39:15.974";"1";"1";"0";"161";"160";"module.devaluation_practice.exec-9295.devalPractice";;;;;;;;;;;;"9766";"2014-10-16 22:35:34.484";"1";"1";"1";"1";"2533";"1154";"3052";"2014-10-16 22:35:24.717";;;;;;;;;;;;;;;;;;;;;;;;;;;;;;;;;;;;;;;;;;;;;;;;;;;;;;;;;;;;;;;;;;;;;;
"M21";;;"Windows 8";"Rachel's Experiment (D.T.)";"1.0";"2";"1";"1";"2";"1";"1";"2014-10-16 22:25:05.457";"2014-10-16 22:39:15.974";"1";"1";"0";"162";"161";"module.devaluation_practice.exec-9295.devalPractice";;;;;;;;;;;;"8953";"2014-10-16 22:35:43.457";"2";"4";"3";"6";"2818";"2185";"930";"2014-10-16 22:35:34.504";;;;;;;;;;;;;;;;;;;;;;;;;;;;;;;;;;;;;;;;;;;;;;;;;;;;;;;;;;;;;;;;;;;;;;
"M21";;;"Windows 8";"Rachel's Experiment (D.T.)";"1.0";"2";"1";"1";"2";"1";"1";"2014-10-16 22:25:05.457";"2014-10-16 22:39:15.974";"1";"1";"0";"163";"162";"module.devaluation_practice.exec-9295.devalPractice";;;;;;;;;;;;"8450";"2014-10-16 22:35:51.922";"3";"2";"1";"1";"2433";"1257";"1734";"2014-10-16 22:35:43.472";;;;;;;;;;;;;;;;;;;;;;;;;;;;;;;;;;;;;;;;;;;;;;;;;;;;;;;;;;;;;;;;;;;;;;
"M21";;;"Windows 8";"Rachel's Experiment (D.T.)";"1.0";"2";"1";"1";"2";"1";"1";"2014-10-16 22:25:05.457";"2014-10-16 22:39:15.974";"1";"1";"0";"164";"163";"module.devaluation_block1.exec-2875.deval1";"9529";"2014-10-16 22:36:05.191";"17";"1";"1";"1";"3050";"1547";"1890";"2014-10-16 22:35:55.660";"2";;;;;;;;;;;;;;;;;;;;;;;;;;;;;;;;;;;;;;;;;;;;;;;;;;;;;;;;;;;;;;;;;;;;;;;;;;;;;;;;
"M21";;;"Windows 8";"Rachel's Experiment (D.T.)";"1.0";"2";"1";"1";"2";"1";"1";"2014-10-16 22:25:05.457";"2014-10-16 22:39:15.974";"1";"1";"0";"165";"164";"module.devaluation_block1.exec-2875.deval1";"11034";"2014-10-16 22:36:16.253";"20";"3";"3";"6";"3328";"989";"3695";"2014-10-16 22:36:05.219";"3";;;;;;;;;;;;;;;;;;;;;;;;;;;;;;;;;;;;;;;;;;;;;;;;;;;;;;;;;;;;;;;;;;;;;;;;;;;;;;;;
"M21";;;"Windows 8";"Rachel's Experiment (D.T.)";"1.0";"2";"1";"1";"2";"1";"1";"2014-10-16 22:25:05.457";"2014-10-16 22:39:15.974";"1";"1";"0";"166";"165";"module.devaluation_block1.exec-2875.deval1";"9724";"2014-10-16 22:36:26.001";"22";"6";"6";"8";"3030";"2761";"910";"2014-10-16 22:36:16.276";"3";;;;;;;;;;;;;;;;;;;;;;;;;;;;;;;;;;;;;;;;;;;;;;;;;;;;;;;;;;;;;;;;;;;;;;;;;;;;;;;;
"M21";;;"Windows 8";"Rachel's Experiment (D.T.)";"1.0";"2";"1";"1";"2";"1";"1";"2014-10-16 22:25:05.457";"2014-10-16 22:39:15.974";"1";"1";"0";"167";"166";"module.devaluation_block1.exec-2875.deval1";"5662";"2014-10-16 22:36:31.680";"13";"6";"6";"7";"753";"733";"1161";"2014-10-16 22:36:26.017";"2";;;;;;;;;;;;;;;;;;;;;;;;;;;;;;;;;;;;;;;;;;;;;;;;;;;;;;;;;;;;;;;;;;;;;;;;;;;;;;;;
"M21";;;"Windows 8";"Rachel's Experiment (D.T.)";"1.0";"2";"1";"1";"2";"1";"1";"2014-10-16 22:25:05.457";"2014-10-16 22:39:15.974";"1";"1";"0";"168";"167";"module.devaluation_block1.exec-2875.deval1";"7278";"2014-10-16 22:36:38.978";"24";"8";"7";"9";"1777";"1065";"1410";"2014-10-16 22:36:31.699";"3";;;;;;;;;;;;;;;;;;;;;;;;;;;;;;;;;;;;;;;;;;;;;;;;;;;;;;;;;;;;;;;;;;;;;;;;;;;;;;;;
"M21";;;"Windows 8";"Rachel's Experiment (D.T.)";"1.0";"2";"1";"1";"2";"1";"1";"2014-10-16 22:25:05.457";"2014-10-16 22:39:15.974";"1";"1";"0";"169";"168";"module.devaluation_block1.exec-2875.deval1";"5983";"2014-10-16 22:36:44.985";"0";"6";"6";"7";"1252";"539";"1169";"2014-10-16 22:36:39.001";"1";;;;;;;;;;;;;;;;;;;;;;;;;;;;;;;;;;;;;;;;;;;;;;;;;;;;;;;;;;;;;;;;;;;;;;;;;;;;;;;;
"M21";;;"Windows 8";"Rachel's Experiment (D.T.)";"1.0";"2";"1";"1";"2";"1";"1";"2014-10-16 22:25:05.457";"2014-10-16 22:39:15.974";"1";"1";"0";"170";"169";"module.devaluation_block1.exec-2875.deval1";"6208";"2014-10-16 22:36:51.206";"23";"4";"5";"6";"977";"1529";"676";"2014-10-16 22:36:44.999";"3";;;;;;;;;;;;;;;;;;;;;;;;;;;;;;;;;;;;;;;;;;;;;;;;;;;;;;;;;;;;;;;;;;;;;;;;;;;;;;;;
"M21";;;"Windows 8";"Rachel's Experiment (D.T.)";"1.0";"2";"1";"1";"2";"1";"1";"2014-10-16 22:25:05.457";"2014-10-16 22:39:15.974";"1";"1";"0";"171";"170";"module.devaluation_block1.exec-2875.deval1";"7555";"2014-10-16 22:36:58.777";"15";"3";"2";"3";"1883";"1112";"1536";"2014-10-16 22:36:51.222";"2";;;;;;;;;;;;;;;;;;;;;;;;;;;;;;;;;;;;;;;;;;;;;;;;;;;;;;;;;;;;;;;;;;;;;;;;;;;;;;;;
"M21";;;"Windows 8";"Rachel's Experiment (D.T.)";"1.0";"2";"1";"1";"2";"1";"1";"2014-10-16 22:25:05.457";"2014-10-16 22:39:15.974";"1";"1";"0";"172";"171";"module.devaluation_block1.exec-2875.deval1";"9065";"2014-10-16 22:37:07.869";"9";"5";"3";"4";"2486";"2193";"1359";"2014-10-16 22:36:58.803";"2";;;;;;;;;;;;;;;;;;;;;;;;;;;;;;;;;;;;;;;;;;;;;;;;;;;;;;;;;;;;;;;;;;;;;;;;;;;;;;;;
"M21";;;"Windows 8";"Rachel's Experiment (D.T.)";"1.0";"2";"1";"1";"2";"1";"1";"2014-10-16 22:25:05.457";"2014-10-16 22:39:15.974";"1";"1";"0";"173";"172";"module.devaluation_block1.exec-2875.deval1";"6881";"2014-10-16 22:37:14.773";"2";"6";"7";"7";"2383";"710";"765";"2014-10-16 22:37:07.892";"1";;;;;;;;;;;;;;;;;;;;;;;;;;;;;;;;;;;;;;;;;;;;;;;;;;;;;;;;;;;;;;;;;;;;;;;;;;;;;;;;
"M21";;;"Windows 8";"Rachel's Experiment (D.T.)";"1.0";"2";"1";"1";"2";"1";"1";"2014-10-16 22:25:05.457";"2014-10-16 22:39:15.974";"1";"1";"0";"174";"173";"module.devaluation_block1.exec-2875.deval1";"5658";"2014-10-16 22:37:20.451";"5";"6";"8";"8";"883";"806";"939";"2014-10-16 22:37:14.792";"1";;;;;;;;;;;;;;;;;;;;;;;;;;;;;;;;;;;;;;;;;;;;;;;;;;;;;;;;;;;;;;;;;;;;;;;;;;;;;;;;
"M21";;;"Windows 8";"Rachel's Experiment (D.T.)";"1.0";"2";"1";"1";"2";"1";"1";"2014-10-16 22:25:05.457";"2014-10-16 22:39:15.974";"1";"1";"0";"175";"174";"module.devaluation_block1.exec-2875.deval1";"6595";"2014-10-16 22:37:27.075";"18";"4";"5";"7";"2155";"526";"892";"2014-10-16 22:37:20.479";"3";;;;;;;;;;;;;;;;;;;;;;;;;;;;;;;;;;;;;;;;;;;;;;;;;;;;;;;;;;;;;;;;;;;;;;;;;;;;;;;;
"M21";;;"Windows 8";"Rachel's Experiment (D.T.)";"1.0";"2";"1";"1";"2";"1";"1";"2014-10-16 22:25:05.457";"2014-10-16 22:39:15.974";"1";"1";"0";"176";"175";"module.devaluation_block1.exec-2875.deval1";"8578";"2014-10-16 22:37:35.683";"25";"4";"2";"3";"1494";"2375";"1691";"2014-10-16 22:37:27.106";"3";;;;;;;;;;;;;;;;;;;;;;;;;;;;;;;;;;;;;;;;;;;;;;;;;;;;;;;;;;;;;;;;;;;;;;;;;;;;;;;;
"M21";;;"Windows 8";"Rachel's Experiment (D.T.)";"1.0";"2";"1";"1";"2";"1";"1";"2014-10-16 22:25:05.457";"2014-10-16 22:39:15.974";"1";"1";"0";"177";"176";"module.devaluation_block1.exec-2875.deval1";"6410";"2014-10-16 22:37:42.114";"1";"3";"4";"6";"1456";"1054";"869";"2014-10-16 22:37:35.703";"1";;;;;;;;;;;;;;;;;;;;;;;;;;;;;;;;;;;;;;;;;;;;;;;;;;;;;;;;;;;;;;;;;;;;;;;;;;;;;;;;
"M21";;;"Windows 8";"Rachel's Experiment (D.T.)";"1.0";"2";"1";"1";"2";"1";"1";"2014-10-16 22:25:05.457";"2014-10-16 22:39:15.974";"1";"1";"0";"178";"177";"module.devaluation_block1.exec-2875.deval1";"8881";"2014-10-16 22:37:51.012";"26";"8";"6";"7";"3518";"721";"1620";"2014-10-16 22:37:42.130";"3";;;;;;;;;;;;;;;;;;;;;;;;;;;;;;;;;;;;;;;;;;;;;;;;;;;;;;;;;;;;;;;;;;;;;;;;;;;;;;;;
"M21";;;"Windows 8";"Rachel's Experiment (D.T.)";"1.0";"2";"1";"1";"2";"1";"1";"2014-10-16 22:25:05.457";"2014-10-16 22:39:15.974";"1";"1";"0";"179";"178";"module.devaluation_block1.exec-2875.deval1";"4532";"2014-10-16 22:37:55.559";"7";"4";"5";"6";"596";"312";"593";"2014-10-16 22:37:51.027";"1";;;;;;;;;;;;;;;;;;;;;;;;;;;;;;;;;;;;;;;;;;;;;;;;;;;;;;;;;;;;;;;;;;;;;;;;;;;;;;;;
"M21";;;"Windows 8";"Rachel's Experiment (D.T.)";"1.0";"2";"1";"1";"2";"1";"1";"2014-10-16 22:25:05.457";"2014-10-16 22:39:15.974";"1";"1";"0";"180";"179";"module.devaluation_block1.exec-2875.deval1";"8527";"2014-10-16 22:38:04.115";"10";"7";"1";"1";"1002";"1346";"3158";"2014-10-16 22:37:55.586";"2";;;;;;;;;;;;;;;;;;;;;;;;;;;;;;;;;;;;;;;;;;;;;;;;;;;;;;;;;;;;;;;;;;;;;;;;;;;;;;;;
"M21";;;"Windows 8";"Rachel's Experiment (D.T.)";"1.0";"2";"1";"1";"2";"1";"1";"2014-10-16 22:25:05.457";"2014-10-16 22:39:15.974";"1";"1";"0";"181";"180";"module.devaluation_block1.exec-2875.deval1";"6879";"2014-10-16 22:38:11.008";"6";"6";"6";"7";"2179";"1183";"487";"2014-10-16 22:38:04.128";"1";;;;;;;;;;;;;;;;;;;;;;;;;;;;;;;;;;;;;;;;;;;;;;;;;;;;;;;;;;;;;;;;;;;;;;;;;;;;;;;;
"M21";;;"Windows 8";"Rachel's Experiment (D.T.)";"1.0";"2";"1";"1";"2";"1";"1";"2014-10-16 22:25:05.457";"2014-10-16 22:39:15.974";"1";"1";"0";"182";"181";"module.devaluation_block1.exec-2875.deval1";"7226";"2014-10-16 22:38:18.263";"8";"6";"5";"7";"859";"1373";"1976";"2014-10-16 22:38:11.036";"1";;;;;;;;;;;;;;;;;;;;;;;;;;;;;;;;;;;;;;;;;;;;;;;;;;;;;;;;;;;;;;;;;;;;;;;;;;;;;;;;
"M21";;;"Windows 8";"Rachel's Experiment (D.T.)";"1.0";"2";"1";"1";"2";"1";"1";"2014-10-16 22:25:05.457";"2014-10-16 22:39:15.974";"1";"1";"0";"183";"182";"module.devaluation_block1.exec-2875.deval1";"6670";"2014-10-16 22:38:24.950";"4";"6";"5";"7";"2484";"511";"651";"2014-10-16 22:38:18.279";"1";;;;;;;;;;;;;;;;;;;;;;;;;;;;;;;;;;;;;;;;;;;;;;;;;;;;;;;;;;;;;;;;;;;;;;;;;;;;;;;;
"M21";;;"Windows 8";"Rachel's Experiment (D.T.)";"1.0";"2";"1";"1";"2";"1";"1";"2014-10-16 22:25:05.457";"2014-10-16 22:39:15.974";"1";"1";"0";"184";"183";"module.devaluation_block1.exec-2875.deval1";"8507";"2014-10-16 22:38:33.490";"11";"5";"4";"6";"1536";"1306";"2642";"2014-10-16 22:38:24.982";"2";;;;;;;;;;;;;;;;;;;;;;;;;;;;;;;;;;;;;;;;;;;;;;;;;;;;;;;;;;;;;;;;;;;;;;;;;;;;;;;;
"M21";;;"Windows 8";"Rachel's Experiment (D.T.)";"1.0";"2";"1";"1";"2";"1";"1";"2014-10-16 22:25:05.457";"2014-10-16 22:39:15.974";"1";"1";"0";"185";"184";"module.devaluation_block1.exec-2875.deval1";"7305";"2014-10-16 22:38:40.822";"3";"7";"7";"7";"1018";"2428";"835";"2014-10-16 22:38:33.516";"1";;;;;;;;;;;;;;;;;;;;;;;;;;;;;;;;;;;;;;;;;;;;;;;;;;;;;;;;;;;;;;;;;;;;;;;;;;;;;;;;
"M21";;;"Windows 8";"Rachel's Experiment (D.T.)";"1.0";"2";"1";"1";"2";"1";"1";"2014-10-16 22:25:05.457";"2014-10-16 22:39:15.974";"1";"1";"0";"186";"185";"module.devaluation_block1.exec-2875.deval1";"6536";"2014-10-16 22:38:47.382";"19";"8";"7";"9";"1299";"1089";"1126";"2014-10-16 22:38:40.845";"3";;;;;;;;;;;;;;;;;;;;;;;;;;;;;;;;;;;;;;;;;;;;;;;;;;;;;;;;;;;;;;;;;;;;;;;;;;;;;;;;
"M21";;;"Windows 8";"Rachel's Experiment (D.T.)";"1.0";"2";"1";"1";"2";"1";"1";"2014-10-16 22:25:05.457";"2014-10-16 22:39:15.974";"1";"1";"0";"187";"186";"module.devaluation_block1.exec-2875.deval1";"7037";"2014-10-16 22:38:54.441";"14";"7";"4";"6";"655";"1553";"1803";"2014-10-16 22:38:47.403";"2";;;;;;;;;;;;;;;;;;;;;;;;;;;;;;;;;;;;;;;;;;;;;;;;;;;;;;;;;;;;;;;;;;;;;;;;;;;;;;;;
"M21";;;"Windows 8";"Rachel's Experiment (D.T.)";"1.0";"2";"1";"1";"2";"1";"1";"2014-10-16 22:25:05.457";"2014-10-16 22:39:15.974";"1";"1";"0";"188";"187";"module.devaluation_block1.exec-2875.deval1";"7793";"2014-10-16 22:39:02.257";"21";"6";"2";"4";"629";"2720";"1418";"2014-10-16 22:38:54.464";"3";;;;;;;;;;;;;;;;;;;;;;;;;;;;;;;;;;;;;;;;;;;;;;;;;;;;;;;;;;;;;;;;;;;;;;;;;;;;;;;;
"M21";;;"Windows 8";"Rachel's Experiment (D.T.)";"1.0";"2";"1";"1";"2";"1";"1";"2014-10-16 22:25:05.457";"2014-10-16 22:39:15.974";"1";"1";"0";"189";"188";"module.devaluation_block1.exec-2875.deval1";"6577";"2014-10-16 22:39:08.853";"16";"1";"1";"1";"1072";"1294";"1189";"2014-10-16 22:39:02.276";"2";;;;;;;;;;;;;;;;;;;;;;;;;;;;;;;;;;;;;;;;;;;;;;;;;;;;;;;;;;;;;;;;;;;;;;;;;;;;;;;;
"M21";;;"Windows 8";"Rachel's Experiment (D.T.)";"1.0";"2";"1";"1";"2";"1";"1";"2014-10-16 22:25:05.457";"2014-10-16 22:39:15.974";"1";"1";"0";"190";"189";"module.devaluation_block1.exec-2875.deval1";"5293";"2014-10-16 22:39:14.174";"12";"7";"7";"7";"921";"691";"666";"2014-10-16 22:39:08.880";"2";;;;;;;;;;;;;;;;;;;;;;;;;;;;;;;;;;;;;;;;;;;;;;;;;;;;;;;;;;;;;;;;;;;;;;;;;;;;;;;;
