"user.name";"user.yearOfBirth";"user.sex";"user.osName";"module.name";"module.version";"module.online.subject.code";"module.online.study.id";"module.online.module.nr";"module.online.group.nr";"session.id";"session.index";"session.startTime";"session.endTime";"session.completed";"session.node-1519.conditionType";"session.node-8566.DevalQorder";"trial.id";"trial.index";"trial.name";"trial.deval1.durationTime";"trial.deval1.endTime";"trial.deval1.icon";"trial.deval1.Resp_Attractive";"trial.deval1.Resp_Eat";"trial.deval1.Resp_Taste";"trial.deval1.RT_Attractive";"trial.deval1.RT_Eat";"trial.deval1.RT_Taste";"trial.deval1.startTime";"trial.deval1.stimulus type";"trial.devalPractice.durationTime";"trial.devalPractice.endTime";"trial.devalPractice.icon";"trial.devalPractice.Resp_Attractive";"trial.devalPractice.Resp_Eat";"trial.devalPractice.Resp_Taste";"trial.devalPractice.RT_Attractive";"trial.devalPractice.RT_Eat";"trial.devalPractice.RT_Taste";"trial.devalPractice.startTime";"trial.devalPractice.stimulus type";"trial.GoNoGo1.durationTime";"trial.GoNoGo1.endTime";"trial.GoNoGo1.Error Type";"trial.GoNoGo1.icon";"trial.GoNoGo1.location";"trial.GoNoGo1.outcome";"trial.GoNoGo1.response";"trial.GoNoGo1.result";"trial.GoNoGo1.RT";"trial.GoNoGo1.signal";"trial.GoNoGo1.startTime";"trial.GoNoGo1.stimulus type";"trial.GoNoGo2.durationTime";"trial.GoNoGo2.endTime";"trial.GoNoGo2.Error Type";"trial.GoNoGo2.icon";"trial.GoNoGo2.location";"trial.GoNoGo2.outcome";"trial.GoNoGo2.response";"trial.GoNoGo2.result";"trial.GoNoGo2.RT";"trial.GoNoGo2.signal";"trial.GoNoGo2.startTime";"trial.GoNoGo2.stimulus type";"trial.GoNoGo3.durationTime";"trial.GoNoGo3.endTime";"trial.GoNoGo3.Error Type";"trial.GoNoGo3.icon";"trial.GoNoGo3.location";"trial.GoNoGo3.outcome";"trial.GoNoGo3.response";"trial.GoNoGo3.result";"trial.GoNoGo3.RT";"trial.GoNoGo3.signal";"trial.GoNoGo3.startTime";"trial.GoNoGo3.stimulus type";"trial.GoNoGo4.durationTime";"trial.GoNoGo4.endTime";"trial.GoNoGo4.Error Type";"trial.GoNoGo4.icon";"trial.GoNoGo4.location";"trial.GoNoGo4.outcome";"trial.GoNoGo4.response";"trial.GoNoGo4.result";"trial.GoNoGo4.RT";"trial.GoNoGo4.signal";"trial.GoNoGo4.startTime";"trial.GoNoGo4.stimulus type";"trial.GoNoGo_Practice.durationTime";"trial.GoNoGo_Practice.endTime";"trial.GoNoGo_Practice.icon";"trial.GoNoGo_Practice.location";"trial.GoNoGo_Practice.outcome";"trial.GoNoGo_Practice.response";"trial.GoNoGo_Practice.result";"trial.GoNoGo_Practice.RT";"trial.GoNoGo_Practice.signal";"trial.GoNoGo_Practice.startTime";"trial.GoNoGo_Practice.stimulus type";"trial.GoNoGo_Tutorial.durationTime";"trial.GoNoGo_Tutorial.endTime";"trial.GoNoGo_Tutorial.icon";"trial.GoNoGo_Tutorial.location";"trial.GoNoGo_Tutorial.outcome";"trial.GoNoGo_Tutorial.response";"trial.GoNoGo_Tutorial.result";"trial.GoNoGo_Tutorial.RT";"trial.GoNoGo_Tutorial.signal";"trial.GoNoGo_Tutorial.startTime"
"8darragrace";;;"Windows 7";"Rachel's Experiment (D.T.)";"1.0";"2";"1";"1";"2";"1";"1";"2014-09-08 09:18:12.179";"2014-09-08 09:30:51.636";"1";"1";"0";"1";"0";"module.GoNoGotutorial.exec-5529.GoNoGo_Tutorial";;;;;;;;;;;;;;;;;;;;;;;;;;;;;;;;;;;;;;;;;;;;;;;;;;;;;;;;;;;;;;;;;;;;;;;;;;;;;;;;;;"4001";"2014-09-08 09:18:58.469";"leftResponse";"0";"FINISHED";"LEFT";"success";"1030";"0";"2014-09-08 09:18:54.468"
"8darragrace";;;"Windows 7";"Rachel's Experiment (D.T.)";"1.0";"2";"1";"1";"2";"1";"1";"2014-09-08 09:18:12.179";"2014-09-08 09:30:51.636";"1";"1";"0";"2";"1";"module.GoNoGotutorial.exec-5529.GoNoGo_Tutorial";;;;;;;;;;;;;;;;;;;;;;;;;;;;;;;;;;;;;;;;;;;;;;;;;;;;;;;;;;;;;;;;;;;;;;;;;;;;;;;;;;"3999";"2014-09-08 09:19:03.807";"rightResponse";"1";"FINISHED";"RIGHT";"success";"658";"0";"2014-09-08 09:18:59.807"
"8darragrace";;;"Windows 7";"Rachel's Experiment (D.T.)";"1.0";"2";"1";"1";"2";"1";"1";"2014-09-08 09:18:12.179";"2014-09-08 09:30:51.636";"1";"1";"0";"3";"2";"module.GoNoGotutorial.exec-5529.GoNoGo_Tutorial";;;;;;;;;;;;;;;;;;;;;;;;;;;;;;;;;;;;;;;;;;;;;;;;;;;;;;;;;;;;;;;;;;;;;;;;;;;;;;;;;;"3999";"2014-09-08 09:19:09.134";"signalResponse";"0";"FINISHED";"NONE";"success";"0";"1";"2014-09-08 09:19:05.134"
"8darragrace";;;"Windows 7";"Rachel's Experiment (D.T.)";"1.0";"2";"1";"1";"2";"1";"1";"2014-09-08 09:18:12.179";"2014-09-08 09:30:51.636";"1";"1";"0";"4";"3";"module.GoNoGopractice.exec-6447.GoNoGo_Practice";;;;;;;;;;;;;;;;;;;;;;;;;;;;;;;;;;;;;;;;;;;;;;;;;;;;;;;;;;;;;;;;;;;;;;;"2131";"2014-09-08 09:19:17.126";"18";"0";"FINISHED";"LEFT";"success";"454";"0";"2014-09-08 09:19:14.995";"3";;;;;;;;;;
"8darragrace";;;"Windows 7";"Rachel's Experiment (D.T.)";"1.0";"2";"1";"1";"2";"1";"1";"2014-09-08 09:18:12.179";"2014-09-08 09:30:51.636";"1";"1";"0";"5";"4";"module.GoNoGopractice.exec-6447.GoNoGo_Practice";;;;;;;;;;;;;;;;;;;;;;;;;;;;;;;;;;;;;;;;;;;;;;;;;;;;;;;;;;;;;;;;;;;;;;;"1952";"2014-09-08 09:19:20.397";"21";"1";"FINISHED";"RIGHT";"success";"413";"0";"2014-09-08 09:19:18.445";"3";;;;;;;;;;
"8darragrace";;;"Windows 7";"Rachel's Experiment (D.T.)";"1.0";"2";"1";"1";"2";"1";"1";"2014-09-08 09:18:12.179";"2014-09-08 09:30:51.636";"1";"1";"0";"6";"5";"module.GoNoGopractice.exec-6447.GoNoGo_Practice";;;;;;;;;;;;;;;;;;;;;;;;;;;;;;;;;;;;;;;;;;;;;;;;;;;;;;;;;;;;;;;;;;;;;;;"1959";"2014-09-08 09:19:23.687";"14";"1";"FINISHED";"NONE";"success";"0";"1";"2014-09-08 09:19:21.727";"2";;;;;;;;;;
"8darragrace";;;"Windows 7";"Rachel's Experiment (D.T.)";"1.0";"2";"1";"1";"2";"1";"1";"2014-09-08 09:18:12.179";"2014-09-08 09:30:51.636";"1";"1";"0";"7";"6";"module.GoNoGopractice.exec-6447.GoNoGo_Practice";;;;;;;;;;;;;;;;;;;;;;;;;;;;;;;;;;;;;;;;;;;;;;;;;;;;;;;;;;;;;;;;;;;;;;;"1951";"2014-09-08 09:19:26.957";"26";"0";"FINISHED";"LEFT";"success";"620";"0";"2014-09-08 09:19:25.005";"3";;;;;;;;;;
"8darragrace";;;"Windows 7";"Rachel's Experiment (D.T.)";"1.0";"2";"1";"1";"2";"1";"1";"2014-09-08 09:18:12.179";"2014-09-08 09:30:51.636";"1";"1";"0";"8";"7";"module.GoNoGopractice.exec-6447.GoNoGo_Practice";;;;;;;;;;;;;;;;;;;;;;;;;;;;;;;;;;;;;;;;;;;;;;;;;;;;;;;;;;;;;;;;;;;;;;;"1953";"2014-09-08 09:19:30.243";"2";"0";"FINISHED";"LEFT";"success";"392";"0";"2014-09-08 09:19:28.290";"1";;;;;;;;;;
"8darragrace";;;"Windows 7";"Rachel's Experiment (D.T.)";"1.0";"2";"1";"1";"2";"1";"1";"2014-09-08 09:18:12.179";"2014-09-08 09:30:51.636";"1";"1";"0";"9";"8";"module.GoNoGopractice.exec-6447.GoNoGo_Practice";;;;;;;;;;;;;;;;;;;;;;;;;;;;;;;;;;;;;;;;;;;;;;;;;;;;;;;;;;;;;;;;;;;;;;;"1960";"2014-09-08 09:19:33.516";"30";"0";"FINISHED";"LEFT";"failure";"934";"1";"2014-09-08 09:19:31.555";"3";;;;;;;;;;
"8darragrace";;;"Windows 7";"Rachel's Experiment (D.T.)";"1.0";"2";"1";"1";"2";"1";"1";"2014-09-08 09:18:12.179";"2014-09-08 09:30:51.636";"1";"1";"0";"10";"9";"module.GoNoGopractice.exec-6447.GoNoGo_Practice";;;;;;;;;;;;;;;;;;;;;;;;;;;;;;;;;;;;;;;;;;;;;;;;;;;;;;;;;;;;;;;;;;;;;;;"1951";"2014-09-08 09:19:36.789";"6";"1";"FINISHED";"RIGHT";"failure";"869";"1";"2014-09-08 09:19:34.837";"1";;;;;;;;;;
"8darragrace";;;"Windows 7";"Rachel's Experiment (D.T.)";"1.0";"2";"1";"1";"2";"1";"1";"2014-09-08 09:18:12.179";"2014-09-08 09:30:51.636";"1";"1";"0";"11";"10";"module.GoNoGopractice.exec-6447.GoNoGo_Practice";;;;;;;;;;;;;;;;;;;;;;;;;;;;;;;;;;;;;;;;;;;;;;;;;;;;;;;;;;;;;;;;;;;;;;;"1951";"2014-09-08 09:19:40.054";"34";"0";"FINISHED";"LEFT";"success";"612";"0";"2014-09-08 09:19:38.102";"3";;;;;;;;;;
"8darragrace";;;"Windows 7";"Rachel's Experiment (D.T.)";"1.0";"2";"1";"1";"2";"1";"1";"2014-09-08 09:18:12.179";"2014-09-08 09:30:51.636";"1";"1";"0";"12";"11";"module.GoNoGopractice.exec-6447.GoNoGo_Practice";;;;;;;;;;;;;;;;;;;;;;;;;;;;;;;;;;;;;;;;;;;;;;;;;;;;;;;;;;;;;;;;;;;;;;;"1951";"2014-09-08 09:19:43.322";"23";"1";"FINISHED";"RIGHT";"success";"464";"0";"2014-09-08 09:19:41.370";"3";;;;;;;;;;
"8darragrace";;;"Windows 7";"Rachel's Experiment (D.T.)";"1.0";"2";"1";"1";"2";"1";"1";"2014-09-08 09:18:12.179";"2014-09-08 09:30:51.636";"1";"1";"0";"13";"12";"module.GoNoGopractice.exec-6447.GoNoGo_Practice";;;;;;;;;;;;;;;;;;;;;;;;;;;;;;;;;;;;;;;;;;;;;;;;;;;;;;;;;;;;;;;;;;;;;;;"1953";"2014-09-08 09:19:46.595";"13";"0";"FINISHED";"NONE";"success";"0";"1";"2014-09-08 09:19:44.642";"2";;;;;;;;;;
"8darragrace";;;"Windows 7";"Rachel's Experiment (D.T.)";"1.0";"2";"1";"1";"2";"1";"1";"2014-09-08 09:18:12.179";"2014-09-08 09:30:51.636";"1";"1";"0";"14";"13";"module.GoNoGopractice.exec-6447.GoNoGo_Practice";;;;;;;;;;;;;;;;;;;;;;;;;;;;;;;;;;;;;;;;;;;;;;;;;;;;;;;;;;;;;;;;;;;;;;;"1952";"2014-09-08 09:19:49.851";"3";"1";"FINISHED";"RIGHT";"success";"551";"0";"2014-09-08 09:19:47.899";"1";;;;;;;;;;
"8darragrace";;;"Windows 7";"Rachel's Experiment (D.T.)";"1.0";"2";"1";"1";"2";"1";"1";"2014-09-08 09:18:12.179";"2014-09-08 09:30:51.636";"1";"1";"0";"15";"14";"module.GoNoGopractice.exec-6447.GoNoGo_Practice";;;;;;;;;;;;;;;;;;;;;;;;;;;;;;;;;;;;;;;;;;;;;;;;;;;;;;;;;;;;;;;;;;;;;;;"1954";"2014-09-08 09:19:53.130";"27";"1";"FINISHED";"NONE";"success";"0";"1";"2014-09-08 09:19:51.175";"3";;;;;;;;;;
"8darragrace";;;"Windows 7";"Rachel's Experiment (D.T.)";"1.0";"2";"1";"1";"2";"1";"1";"2014-09-08 09:18:12.179";"2014-09-08 09:30:51.636";"1";"1";"0";"16";"15";"module.training_block1.exec-3983.GoNoGo1";;;;;;;;;;;;;;;;;;;;;;;"1251";"2014-09-08 09:19:59.872";"NST_correctLoc";"23";"1";"FINISHED";"RIGHT";"success";"501";"0";"2014-09-08 09:19:58.621";"3";;;;;;;;;;;;;;;;;;;;;;;;;;;;;;;;;;;;;;;;;;;;;;;;;;;;;;;;;
"8darragrace";;;"Windows 7";"Rachel's Experiment (D.T.)";"1.0";"2";"1";"1";"2";"1";"1";"2014-09-08 09:18:12.179";"2014-09-08 09:30:51.636";"1";"1";"0";"17";"16";"module.training_block1.exec-3983.GoNoGo1";;;;;;;;;;;;;;;;;;;;;;;"1250";"2014-09-08 09:20:02.460";"NST_correctLoc";"11";"0";"FINISHED";"LEFT";"success";"568";"0";"2014-09-08 09:20:01.210";"2";;;;;;;;;;;;;;;;;;;;;;;;;;;;;;;;;;;;;;;;;;;;;;;;;;;;;;;;;
"8darragrace";;;"Windows 7";"Rachel's Experiment (D.T.)";"1.0";"2";"1";"1";"2";"1";"1";"2014-09-08 09:18:12.179";"2014-09-08 09:30:51.636";"1";"1";"0";"18";"17";"module.training_block1.exec-3983.GoNoGo1";;;;;;;;;;;;;;;;;;;;;;;"1249";"2014-09-08 09:20:05.026";"NST_correctLoc";"9";"1";"FINISHED";"RIGHT";"success";"601";"0";"2014-09-08 09:20:03.776";"2";;;;;;;;;;;;;;;;;;;;;;;;;;;;;;;;;;;;;;;;;;;;;;;;;;;;;;;;;
"8darragrace";;;"Windows 7";"Rachel's Experiment (D.T.)";"1.0";"2";"1";"1";"2";"1";"1";"2014-09-08 09:18:12.179";"2014-09-08 09:30:51.636";"1";"1";"0";"19";"18";"module.training_block1.exec-3983.GoNoGo1";;;;;;;;;;;;;;;;;;;;;;;"1250";"2014-09-08 09:20:07.590";"ST_correctStop";"20";"0";"FINISHED";"NONE";"success";"0";"1";"2014-09-08 09:20:06.340";"3";;;;;;;;;;;;;;;;;;;;;;;;;;;;;;;;;;;;;;;;;;;;;;;;;;;;;;;;;
"8darragrace";;;"Windows 7";"Rachel's Experiment (D.T.)";"1.0";"2";"1";"1";"2";"1";"1";"2014-09-08 09:18:12.179";"2014-09-08 09:30:51.636";"1";"1";"0";"20";"19";"module.training_block1.exec-3983.GoNoGo1";;;;;;;;;;;;;;;;;;;;;;;"1250";"2014-09-08 09:20:10.160";"NST_correctLoc";"19";"0";"FINISHED";"LEFT";"success";"636";"0";"2014-09-08 09:20:08.909";"3";;;;;;;;;;;;;;;;;;;;;;;;;;;;;;;;;;;;;;;;;;;;;;;;;;;;;;;;;
"8darragrace";;;"Windows 7";"Rachel's Experiment (D.T.)";"1.0";"2";"1";"1";"2";"1";"1";"2014-09-08 09:18:12.179";"2014-09-08 09:30:51.636";"1";"1";"0";"21";"20";"module.training_block1.exec-3983.GoNoGo1";;;;;;;;;;;;;;;;;;;;;;;"1250";"2014-09-08 09:20:12.731";"NST_correctLoc";"12";"1";"FINISHED";"RIGHT";"success";"513";"0";"2014-09-08 09:20:11.481";"2";;;;;;;;;;;;;;;;;;;;;;;;;;;;;;;;;;;;;;;;;;;;;;;;;;;;;;;;;
"8darragrace";;;"Windows 7";"Rachel's Experiment (D.T.)";"1.0";"2";"1";"1";"2";"1";"1";"2014-09-08 09:18:12.179";"2014-09-08 09:30:51.636";"1";"1";"0";"22";"21";"module.training_block1.exec-3983.GoNoGo1";;;;;;;;;;;;;;;;;;;;;;;"1249";"2014-09-08 09:20:15.286";"NST_correctLoc";"30";"1";"FINISHED";"RIGHT";"success";"509";"0";"2014-09-08 09:20:14.036";"3";;;;;;;;;;;;;;;;;;;;;;;;;;;;;;;;;;;;;;;;;;;;;;;;;;;;;;;;;
"8darragrace";;;"Windows 7";"Rachel's Experiment (D.T.)";"1.0";"2";"1";"1";"2";"1";"1";"2014-09-08 09:18:12.179";"2014-09-08 09:30:51.636";"1";"1";"0";"23";"22";"module.training_block1.exec-3983.GoNoGo1";;;;;;;;;;;;;;;;;;;;;;;"1250";"2014-09-08 09:20:17.849";"NST_correctLoc";"31";"0";"FINISHED";"LEFT";"success";"538";"0";"2014-09-08 09:20:16.599";"3";;;;;;;;;;;;;;;;;;;;;;;;;;;;;;;;;;;;;;;;;;;;;;;;;;;;;;;;;
"8darragrace";;;"Windows 7";"Rachel's Experiment (D.T.)";"1.0";"2";"1";"1";"2";"1";"1";"2014-09-08 09:18:12.179";"2014-09-08 09:30:51.636";"1";"1";"0";"24";"23";"module.training_block1.exec-3983.GoNoGo1";;;;;;;;;;;;;;;;;;;;;;;"1249";"2014-09-08 09:20:20.414";"NST_correctLoc";"16";"0";"FINISHED";"LEFT";"success";"502";"0";"2014-09-08 09:20:19.164";"2";;;;;;;;;;;;;;;;;;;;;;;;;;;;;;;;;;;;;;;;;;;;;;;;;;;;;;;;;
"8darragrace";;;"Windows 7";"Rachel's Experiment (D.T.)";"1.0";"2";"1";"1";"2";"1";"1";"2014-09-08 09:18:12.179";"2014-09-08 09:30:51.636";"1";"1";"0";"25";"24";"module.training_block1.exec-3983.GoNoGo1";;;;;;;;;;;;;;;;;;;;;;;"1250";"2014-09-08 09:20:22.976";"NST_correctLoc";"17";"0";"FINISHED";"LEFT";"success";"444";"0";"2014-09-08 09:20:21.726";"2";;;;;;;;;;;;;;;;;;;;;;;;;;;;;;;;;;;;;;;;;;;;;;;;;;;;;;;;;
"8darragrace";;;"Windows 7";"Rachel's Experiment (D.T.)";"1.0";"2";"1";"1";"2";"1";"1";"2014-09-08 09:18:12.179";"2014-09-08 09:30:51.636";"1";"1";"0";"26";"25";"module.training_block1.exec-3983.GoNoGo1";;;;;;;;;;;;;;;;;;;;;;;"1249";"2014-09-08 09:20:25.552";"ST_correctStop";"4";"0";"FINISHED";"NONE";"success";"0";"1";"2014-09-08 09:20:24.302";"1";;;;;;;;;;;;;;;;;;;;;;;;;;;;;;;;;;;;;;;;;;;;;;;;;;;;;;;;;
"8darragrace";;;"Windows 7";"Rachel's Experiment (D.T.)";"1.0";"2";"1";"1";"2";"1";"1";"2014-09-08 09:18:12.179";"2014-09-08 09:30:51.636";"1";"1";"0";"27";"26";"module.training_block1.exec-3983.GoNoGo1";;;;;;;;;;;;;;;;;;;;;;;"1249";"2014-09-08 09:20:28.111";"NST_correctLoc";"13";"1";"FINISHED";"RIGHT";"success";"596";"0";"2014-09-08 09:20:26.861";"2";;;;;;;;;;;;;;;;;;;;;;;;;;;;;;;;;;;;;;;;;;;;;;;;;;;;;;;;;
"8darragrace";;;"Windows 7";"Rachel's Experiment (D.T.)";"1.0";"2";"1";"1";"2";"1";"1";"2014-09-08 09:18:12.179";"2014-09-08 09:30:51.636";"1";"1";"0";"28";"27";"module.training_block1.exec-3983.GoNoGo1";;;;;;;;;;;;;;;;;;;;;;;"1249";"2014-09-08 09:20:30.677";"ST_failedStop";"7";"0";"FINISHED";"LEFT";"failure";"471";"1";"2014-09-08 09:20:29.427";"1";;;;;;;;;;;;;;;;;;;;;;;;;;;;;;;;;;;;;;;;;;;;;;;;;;;;;;;;;
"8darragrace";;;"Windows 7";"Rachel's Experiment (D.T.)";"1.0";"2";"1";"1";"2";"1";"1";"2014-09-08 09:18:12.179";"2014-09-08 09:30:51.636";"1";"1";"0";"29";"28";"module.training_block1.exec-3983.GoNoGo1";;;;;;;;;;;;;;;;;;;;;;;"1250";"2014-09-08 09:20:33.236";"ST_correctStop";"3";"0";"FINISHED";"NONE";"success";"0";"1";"2014-09-08 09:20:31.986";"1";;;;;;;;;;;;;;;;;;;;;;;;;;;;;;;;;;;;;;;;;;;;;;;;;;;;;;;;;
"8darragrace";;;"Windows 7";"Rachel's Experiment (D.T.)";"1.0";"2";"1";"1";"2";"1";"1";"2014-09-08 09:18:12.179";"2014-09-08 09:30:51.636";"1";"1";"0";"30";"29";"module.training_block1.exec-3983.GoNoGo1";;;;;;;;;;;;;;;;;;;;;;;"1249";"2014-09-08 09:20:35.792";"ST_correctStop";"26";"0";"FINISHED";"NONE";"success";"0";"1";"2014-09-08 09:20:34.542";"3";;;;;;;;;;;;;;;;;;;;;;;;;;;;;;;;;;;;;;;;;;;;;;;;;;;;;;;;;
"8darragrace";;;"Windows 7";"Rachel's Experiment (D.T.)";"1.0";"2";"1";"1";"2";"1";"1";"2014-09-08 09:18:12.179";"2014-09-08 09:30:51.636";"1";"1";"0";"31";"30";"module.training_block1.exec-3983.GoNoGo1";;;;;;;;;;;;;;;;;;;;;;;"1249";"2014-09-08 09:20:38.354";"NST_correctLoc";"29";"1";"FINISHED";"RIGHT";"success";"522";"0";"2014-09-08 09:20:37.104";"3";;;;;;;;;;;;;;;;;;;;;;;;;;;;;;;;;;;;;;;;;;;;;;;;;;;;;;;;;
"8darragrace";;;"Windows 7";"Rachel's Experiment (D.T.)";"1.0";"2";"1";"1";"2";"1";"1";"2014-09-08 09:18:12.179";"2014-09-08 09:30:51.636";"1";"1";"0";"32";"31";"module.training_block1.exec-3983.GoNoGo1";;;;;;;;;;;;;;;;;;;;;;;"1249";"2014-09-08 09:20:40.912";"ST_correctStop";"1";"0";"FINISHED";"NONE";"success";"0";"1";"2014-09-08 09:20:39.662";"1";;;;;;;;;;;;;;;;;;;;;;;;;;;;;;;;;;;;;;;;;;;;;;;;;;;;;;;;;
"8darragrace";;;"Windows 7";"Rachel's Experiment (D.T.)";"1.0";"2";"1";"1";"2";"1";"1";"2014-09-08 09:18:12.179";"2014-09-08 09:30:51.636";"1";"1";"0";"33";"32";"module.training_block1.exec-3983.GoNoGo1";;;;;;;;;;;;;;;;;;;;;;;"1249";"2014-09-08 09:20:43.488";"NST_correctLoc";"25";"1";"FINISHED";"RIGHT";"success";"628";"0";"2014-09-08 09:20:42.238";"3";;;;;;;;;;;;;;;;;;;;;;;;;;;;;;;;;;;;;;;;;;;;;;;;;;;;;;;;;
"8darragrace";;;"Windows 7";"Rachel's Experiment (D.T.)";"1.0";"2";"1";"1";"2";"1";"1";"2014-09-08 09:18:12.179";"2014-09-08 09:30:51.636";"1";"1";"0";"34";"33";"module.training_block1.exec-3983.GoNoGo1";;;;;;;;;;;;;;;;;;;;;;;"1249";"2014-09-08 09:20:46.057";"ST_correctStop";"35";"1";"FINISHED";"NONE";"success";"0";"1";"2014-09-08 09:20:44.807";"3";;;;;;;;;;;;;;;;;;;;;;;;;;;;;;;;;;;;;;;;;;;;;;;;;;;;;;;;;
"8darragrace";;;"Windows 7";"Rachel's Experiment (D.T.)";"1.0";"2";"1";"1";"2";"1";"1";"2014-09-08 09:18:12.179";"2014-09-08 09:30:51.636";"1";"1";"0";"35";"34";"module.training_block1.exec-3983.GoNoGo1";;;;;;;;;;;;;;;;;;;;;;;"1250";"2014-09-08 09:20:48.604";"ST_failedStop";"21";"0";"FINISHED";"LEFT";"failure";"448";"1";"2014-09-08 09:20:47.354";"3";;;;;;;;;;;;;;;;;;;;;;;;;;;;;;;;;;;;;;;;;;;;;;;;;;;;;;;;;
"8darragrace";;;"Windows 7";"Rachel's Experiment (D.T.)";"1.0";"2";"1";"1";"2";"1";"1";"2014-09-08 09:18:12.179";"2014-09-08 09:30:51.636";"1";"1";"0";"36";"35";"module.training_block1.exec-3983.GoNoGo1";;;;;;;;;;;;;;;;;;;;;;;"1250";"2014-09-08 09:20:51.166";"ST_correctStop";"28";"0";"FINISHED";"NONE";"success";"0";"1";"2014-09-08 09:20:49.916";"3";;;;;;;;;;;;;;;;;;;;;;;;;;;;;;;;;;;;;;;;;;;;;;;;;;;;;;;;;
"8darragrace";;;"Windows 7";"Rachel's Experiment (D.T.)";"1.0";"2";"1";"1";"2";"1";"1";"2014-09-08 09:18:12.179";"2014-09-08 09:30:51.636";"1";"1";"0";"37";"36";"module.training_block1.exec-3983.GoNoGo1";;;;;;;;;;;;;;;;;;;;;;;"1249";"2014-09-08 09:20:53.713";"ST_correctStop";"2";"0";"FINISHED";"NONE";"success";"0";"1";"2014-09-08 09:20:52.463";"1";;;;;;;;;;;;;;;;;;;;;;;;;;;;;;;;;;;;;;;;;;;;;;;;;;;;;;;;;
"8darragrace";;;"Windows 7";"Rachel's Experiment (D.T.)";"1.0";"2";"1";"1";"2";"1";"1";"2014-09-08 09:18:12.179";"2014-09-08 09:30:51.636";"1";"1";"0";"38";"37";"module.training_block1.exec-3983.GoNoGo1";;;;;;;;;;;;;;;;;;;;;;;"1249";"2014-09-08 09:20:56.281";"NST_correctLoc";"32";"0";"FINISHED";"LEFT";"success";"746";"0";"2014-09-08 09:20:55.031";"3";;;;;;;;;;;;;;;;;;;;;;;;;;;;;;;;;;;;;;;;;;;;;;;;;;;;;;;;;
"8darragrace";;;"Windows 7";"Rachel's Experiment (D.T.)";"1.0";"2";"1";"1";"2";"1";"1";"2014-09-08 09:18:12.179";"2014-09-08 09:30:51.636";"1";"1";"0";"39";"38";"module.training_block1.exec-3983.GoNoGo1";;;;;;;;;;;;;;;;;;;;;;;"1249";"2014-09-08 09:20:58.835";"ST_correctStop";"34";"0";"FINISHED";"NONE";"success";"0";"1";"2014-09-08 09:20:57.585";"3";;;;;;;;;;;;;;;;;;;;;;;;;;;;;;;;;;;;;;;;;;;;;;;;;;;;;;;;;
"8darragrace";;;"Windows 7";"Rachel's Experiment (D.T.)";"1.0";"2";"1";"1";"2";"1";"1";"2014-09-08 09:18:12.179";"2014-09-08 09:30:51.636";"1";"1";"0";"40";"39";"module.training_block1.exec-3983.GoNoGo1";;;;;;;;;;;;;;;;;;;;;;;"1249";"2014-09-08 09:21:01.397";"ST_correctStop";"5";"0";"FINISHED";"NONE";"success";"0";"1";"2014-09-08 09:21:00.147";"1";;;;;;;;;;;;;;;;;;;;;;;;;;;;;;;;;;;;;;;;;;;;;;;;;;;;;;;;;
"8darragrace";;;"Windows 7";"Rachel's Experiment (D.T.)";"1.0";"2";"1";"1";"2";"1";"1";"2014-09-08 09:18:12.179";"2014-09-08 09:30:51.636";"1";"1";"0";"41";"40";"module.training_block1.exec-3983.GoNoGo1";;;;;;;;;;;;;;;;;;;;;;;"1249";"2014-09-08 09:21:03.955";"ST_correctStop";"18";"0";"FINISHED";"NONE";"success";"0";"1";"2014-09-08 09:21:02.705";"3";;;;;;;;;;;;;;;;;;;;;;;;;;;;;;;;;;;;;;;;;;;;;;;;;;;;;;;;;
"8darragrace";;;"Windows 7";"Rachel's Experiment (D.T.)";"1.0";"2";"1";"1";"2";"1";"1";"2014-09-08 09:18:12.179";"2014-09-08 09:30:51.636";"1";"1";"0";"42";"41";"module.training_block1.exec-3983.GoNoGo1";;;;;;;;;;;;;;;;;;;;;;;"1249";"2014-09-08 09:21:06.521";"NST_correctLoc";"24";"0";"FINISHED";"LEFT";"success";"610";"0";"2014-09-08 09:21:05.271";"3";;;;;;;;;;;;;;;;;;;;;;;;;;;;;;;;;;;;;;;;;;;;;;;;;;;;;;;;;
"8darragrace";;;"Windows 7";"Rachel's Experiment (D.T.)";"1.0";"2";"1";"1";"2";"1";"1";"2014-09-08 09:18:12.179";"2014-09-08 09:30:51.636";"1";"1";"0";"43";"42";"module.training_block1.exec-3983.GoNoGo1";;;;;;;;;;;;;;;;;;;;;;;"1249";"2014-09-08 09:21:09.070";"NST_correctLoc";"27";"0";"FINISHED";"LEFT";"success";"926";"0";"2014-09-08 09:21:07.820";"3";;;;;;;;;;;;;;;;;;;;;;;;;;;;;;;;;;;;;;;;;;;;;;;;;;;;;;;;;
"8darragrace";;;"Windows 7";"Rachel's Experiment (D.T.)";"1.0";"2";"1";"1";"2";"1";"1";"2014-09-08 09:18:12.179";"2014-09-08 09:30:51.636";"1";"1";"0";"44";"43";"module.training_block1.exec-3983.GoNoGo1";;;;;;;;;;;;;;;;;;;;;;;"1249";"2014-09-08 09:21:11.619";"NST_correctLoc";"14";"1";"FINISHED";"RIGHT";"success";"489";"0";"2014-09-08 09:21:10.369";"2";;;;;;;;;;;;;;;;;;;;;;;;;;;;;;;;;;;;;;;;;;;;;;;;;;;;;;;;;
"8darragrace";;;"Windows 7";"Rachel's Experiment (D.T.)";"1.0";"2";"1";"1";"2";"1";"1";"2014-09-08 09:18:12.179";"2014-09-08 09:30:51.636";"1";"1";"0";"45";"44";"module.training_block1.exec-3983.GoNoGo1";;;;;;;;;;;;;;;;;;;;;;;"1249";"2014-09-08 09:21:14.180";"NST_correctLoc";"10";"0";"FINISHED";"LEFT";"success";"672";"0";"2014-09-08 09:21:12.930";"2";;;;;;;;;;;;;;;;;;;;;;;;;;;;;;;;;;;;;;;;;;;;;;;;;;;;;;;;;
"8darragrace";;;"Windows 7";"Rachel's Experiment (D.T.)";"1.0";"2";"1";"1";"2";"1";"1";"2014-09-08 09:18:12.179";"2014-09-08 09:30:51.636";"1";"1";"0";"46";"45";"module.training_block1.exec-3983.GoNoGo1";;;;;;;;;;;;;;;;;;;;;;;"1249";"2014-09-08 09:21:16.748";"NST_correctLoc";"15";"0";"FINISHED";"LEFT";"success";"439";"0";"2014-09-08 09:21:15.498";"2";;;;;;;;;;;;;;;;;;;;;;;;;;;;;;;;;;;;;;;;;;;;;;;;;;;;;;;;;
"8darragrace";;;"Windows 7";"Rachel's Experiment (D.T.)";"1.0";"2";"1";"1";"2";"1";"1";"2014-09-08 09:18:12.179";"2014-09-08 09:30:51.636";"1";"1";"0";"47";"46";"module.training_block1.exec-3983.GoNoGo1";;;;;;;;;;;;;;;;;;;;;;;"1249";"2014-09-08 09:21:19.306";"ST_correctStop";"0";"1";"FINISHED";"NONE";"success";"0";"1";"2014-09-08 09:21:18.056";"1";;;;;;;;;;;;;;;;;;;;;;;;;;;;;;;;;;;;;;;;;;;;;;;;;;;;;;;;;
"8darragrace";;;"Windows 7";"Rachel's Experiment (D.T.)";"1.0";"2";"1";"1";"2";"1";"1";"2014-09-08 09:18:12.179";"2014-09-08 09:30:51.636";"1";"1";"0";"48";"47";"module.training_block1.exec-3983.GoNoGo1";;;;;;;;;;;;;;;;;;;;;;;"1249";"2014-09-08 09:21:21.852";"ST_correctStop";"6";"1";"FINISHED";"NONE";"success";"0";"1";"2014-09-08 09:21:20.602";"1";;;;;;;;;;;;;;;;;;;;;;;;;;;;;;;;;;;;;;;;;;;;;;;;;;;;;;;;;
"8darragrace";;;"Windows 7";"Rachel's Experiment (D.T.)";"1.0";"2";"1";"1";"2";"1";"1";"2014-09-08 09:18:12.179";"2014-09-08 09:30:51.636";"1";"1";"0";"49";"48";"module.training_block1.exec-3983.GoNoGo1";;;;;;;;;;;;;;;;;;;;;;;"1249";"2014-09-08 09:21:24.423";"ST_correctStop";"22";"1";"FINISHED";"NONE";"success";"0";"1";"2014-09-08 09:21:23.173";"3";;;;;;;;;;;;;;;;;;;;;;;;;;;;;;;;;;;;;;;;;;;;;;;;;;;;;;;;;
"8darragrace";;;"Windows 7";"Rachel's Experiment (D.T.)";"1.0";"2";"1";"1";"2";"1";"1";"2014-09-08 09:18:12.179";"2014-09-08 09:30:51.636";"1";"1";"0";"50";"49";"module.training_block1.exec-3983.GoNoGo1";;;;;;;;;;;;;;;;;;;;;;;"1249";"2014-09-08 09:21:26.989";"ST_correctStop";"33";"0";"FINISHED";"NONE";"success";"0";"1";"2014-09-08 09:21:25.739";"3";;;;;;;;;;;;;;;;;;;;;;;;;;;;;;;;;;;;;;;;;;;;;;;;;;;;;;;;;
"8darragrace";;;"Windows 7";"Rachel's Experiment (D.T.)";"1.0";"2";"1";"1";"2";"1";"1";"2014-09-08 09:18:12.179";"2014-09-08 09:30:51.636";"1";"1";"0";"51";"50";"module.training_block1.exec-3983.GoNoGo1";;;;;;;;;;;;;;;;;;;;;;;"1249";"2014-09-08 09:21:29.555";"ST_correctStop";"8";"0";"FINISHED";"NONE";"success";"0";"1";"2014-09-08 09:21:28.305";"1";;;;;;;;;;;;;;;;;;;;;;;;;;;;;;;;;;;;;;;;;;;;;;;;;;;;;;;;;
"8darragrace";;;"Windows 7";"Rachel's Experiment (D.T.)";"1.0";"2";"1";"1";"2";"1";"1";"2014-09-08 09:18:12.179";"2014-09-08 09:30:51.636";"1";"1";"0";"52";"51";"module.training_block2.exec-5766.GoNoGo2";;;;;;;;;;;;;;;;;;;;;;;;;;;;;;;;;;;"1249";"2014-09-08 09:21:40.406";"ST_failedStop";"1";"0";"FINISHED";"LEFT";"failure";"421";"1";"2014-09-08 09:21:39.156";"1";;;;;;;;;;;;;;;;;;;;;;;;;;;;;;;;;;;;;;;;;;;;;
"8darragrace";;;"Windows 7";"Rachel's Experiment (D.T.)";"1.0";"2";"1";"1";"2";"1";"1";"2014-09-08 09:18:12.179";"2014-09-08 09:30:51.636";"1";"1";"0";"53";"52";"module.training_block2.exec-5766.GoNoGo2";;;;;;;;;;;;;;;;;;;;;;;;;;;;;;;;;;;"1249";"2014-09-08 09:21:42.960";"ST_correctStop";"34";"0";"FINISHED";"NONE";"success";"0";"1";"2014-09-08 09:21:41.710";"3";;;;;;;;;;;;;;;;;;;;;;;;;;;;;;;;;;;;;;;;;;;;;
"8darragrace";;;"Windows 7";"Rachel's Experiment (D.T.)";"1.0";"2";"1";"1";"2";"1";"1";"2014-09-08 09:18:12.179";"2014-09-08 09:30:51.636";"1";"1";"0";"54";"53";"module.training_block2.exec-5766.GoNoGo2";;;;;;;;;;;;;;;;;;;;;;;;;;;;;;;;;;;"1249";"2014-09-08 09:21:45.511";"ST_correctStop";"25";"0";"FINISHED";"NONE";"success";"0";"1";"2014-09-08 09:21:44.261";"3";;;;;;;;;;;;;;;;;;;;;;;;;;;;;;;;;;;;;;;;;;;;;
"8darragrace";;;"Windows 7";"Rachel's Experiment (D.T.)";"1.0";"2";"1";"1";"2";"1";"1";"2014-09-08 09:18:12.179";"2014-09-08 09:30:51.636";"1";"1";"0";"55";"54";"module.training_block2.exec-5766.GoNoGo2";;;;;;;;;;;;;;;;;;;;;;;;;;;;;;;;;;;"1249";"2014-09-08 09:21:48.061";"NST_correctLoc";"12";"1";"FINISHED";"RIGHT";"success";"471";"0";"2014-09-08 09:21:46.811";"2";;;;;;;;;;;;;;;;;;;;;;;;;;;;;;;;;;;;;;;;;;;;;
"8darragrace";;;"Windows 7";"Rachel's Experiment (D.T.)";"1.0";"2";"1";"1";"2";"1";"1";"2014-09-08 09:18:12.179";"2014-09-08 09:30:51.636";"1";"1";"0";"56";"55";"module.training_block2.exec-5766.GoNoGo2";;;;;;;;;;;;;;;;;;;;;;;;;;;;;;;;;;;"1249";"2014-09-08 09:21:50.600";"ST_correctStop";"20";"1";"FINISHED";"NONE";"success";"0";"1";"2014-09-08 09:21:49.350";"3";;;;;;;;;;;;;;;;;;;;;;;;;;;;;;;;;;;;;;;;;;;;;
"8darragrace";;;"Windows 7";"Rachel's Experiment (D.T.)";"1.0";"2";"1";"1";"2";"1";"1";"2014-09-08 09:18:12.179";"2014-09-08 09:30:51.636";"1";"1";"0";"57";"56";"module.training_block2.exec-5766.GoNoGo2";;;;;;;;;;;;;;;;;;;;;;;;;;;;;;;;;;;"1249";"2014-09-08 09:21:53.155";"NST_correctLoc";"23";"0";"FINISHED";"LEFT";"success";"561";"0";"2014-09-08 09:21:51.905";"3";;;;;;;;;;;;;;;;;;;;;;;;;;;;;;;;;;;;;;;;;;;;;
"8darragrace";;;"Windows 7";"Rachel's Experiment (D.T.)";"1.0";"2";"1";"1";"2";"1";"1";"2014-09-08 09:18:12.179";"2014-09-08 09:30:51.636";"1";"1";"0";"58";"57";"module.training_block2.exec-5766.GoNoGo2";;;;;;;;;;;;;;;;;;;;;;;;;;;;;;;;;;;"1249";"2014-09-08 09:21:55.709";"ST_correctStop";"7";"0";"FINISHED";"NONE";"success";"0";"1";"2014-09-08 09:21:54.459";"1";;;;;;;;;;;;;;;;;;;;;;;;;;;;;;;;;;;;;;;;;;;;;
"8darragrace";;;"Windows 7";"Rachel's Experiment (D.T.)";"1.0";"2";"1";"1";"2";"1";"1";"2014-09-08 09:18:12.179";"2014-09-08 09:30:51.636";"1";"1";"0";"59";"58";"module.training_block2.exec-5766.GoNoGo2";;;;;;;;;;;;;;;;;;;;;;;;;;;;;;;;;;;"1249";"2014-09-08 09:21:58.260";"NST_correctLoc";"29";"0";"FINISHED";"LEFT";"success";"599";"0";"2014-09-08 09:21:57.010";"3";;;;;;;;;;;;;;;;;;;;;;;;;;;;;;;;;;;;;;;;;;;;;
"8darragrace";;;"Windows 7";"Rachel's Experiment (D.T.)";"1.0";"2";"1";"1";"2";"1";"1";"2014-09-08 09:18:12.179";"2014-09-08 09:30:51.636";"1";"1";"0";"60";"59";"module.training_block2.exec-5766.GoNoGo2";;;;;;;;;;;;;;;;;;;;;;;;;;;;;;;;;;;"1249";"2014-09-08 09:22:00.788";"NST_correctLoc";"9";"1";"FINISHED";"RIGHT";"success";"624";"0";"2014-09-08 09:21:59.538";"2";;;;;;;;;;;;;;;;;;;;;;;;;;;;;;;;;;;;;;;;;;;;;
"8darragrace";;;"Windows 7";"Rachel's Experiment (D.T.)";"1.0";"2";"1";"1";"2";"1";"1";"2014-09-08 09:18:12.179";"2014-09-08 09:30:51.636";"1";"1";"0";"61";"60";"module.training_block2.exec-5766.GoNoGo2";;;;;;;;;;;;;;;;;;;;;;;;;;;;;;;;;;;"1249";"2014-09-08 09:22:03.347";"NST_correctLoc";"15";"1";"FINISHED";"RIGHT";"success";"505";"0";"2014-09-08 09:22:02.097";"2";;;;;;;;;;;;;;;;;;;;;;;;;;;;;;;;;;;;;;;;;;;;;
"8darragrace";;;"Windows 7";"Rachel's Experiment (D.T.)";"1.0";"2";"1";"1";"2";"1";"1";"2014-09-08 09:18:12.179";"2014-09-08 09:30:51.636";"1";"1";"0";"62";"61";"module.training_block2.exec-5766.GoNoGo2";;;;;;;;;;;;;;;;;;;;;;;;;;;;;;;;;;;"1249";"2014-09-08 09:22:05.879";"ST_correctStop";"33";"0";"FINISHED";"NONE";"success";"0";"1";"2014-09-08 09:22:04.629";"3";;;;;;;;;;;;;;;;;;;;;;;;;;;;;;;;;;;;;;;;;;;;;
"8darragrace";;;"Windows 7";"Rachel's Experiment (D.T.)";"1.0";"2";"1";"1";"2";"1";"1";"2014-09-08 09:18:12.179";"2014-09-08 09:30:51.636";"1";"1";"0";"63";"62";"module.training_block2.exec-5766.GoNoGo2";;;;;;;;;;;;;;;;;;;;;;;;;;;;;;;;;;;"1249";"2014-09-08 09:22:08.430";"ST_correctStop";"2";"0";"FINISHED";"NONE";"success";"0";"1";"2014-09-08 09:22:07.180";"1";;;;;;;;;;;;;;;;;;;;;;;;;;;;;;;;;;;;;;;;;;;;;
"8darragrace";;;"Windows 7";"Rachel's Experiment (D.T.)";"1.0";"2";"1";"1";"2";"1";"1";"2014-09-08 09:18:12.179";"2014-09-08 09:30:51.636";"1";"1";"0";"64";"63";"module.training_block2.exec-5766.GoNoGo2";;;;;;;;;;;;;;;;;;;;;;;;;;;;;;;;;;;"1249";"2014-09-08 09:22:10.978";"ST_correctStop";"0";"0";"FINISHED";"NONE";"success";"0";"1";"2014-09-08 09:22:09.728";"1";;;;;;;;;;;;;;;;;;;;;;;;;;;;;;;;;;;;;;;;;;;;;
"8darragrace";;;"Windows 7";"Rachel's Experiment (D.T.)";"1.0";"2";"1";"1";"2";"1";"1";"2014-09-08 09:18:12.179";"2014-09-08 09:30:51.636";"1";"1";"0";"65";"64";"module.training_block2.exec-5766.GoNoGo2";;;;;;;;;;;;;;;;;;;;;;;;;;;;;;;;;;;"1250";"2014-09-08 09:22:13.528";"ST_correctStop";"18";"0";"FINISHED";"NONE";"success";"0";"1";"2014-09-08 09:22:12.278";"3";;;;;;;;;;;;;;;;;;;;;;;;;;;;;;;;;;;;;;;;;;;;;
"8darragrace";;;"Windows 7";"Rachel's Experiment (D.T.)";"1.0";"2";"1";"1";"2";"1";"1";"2014-09-08 09:18:12.179";"2014-09-08 09:30:51.636";"1";"1";"0";"66";"65";"module.training_block2.exec-5766.GoNoGo2";;;;;;;;;;;;;;;;;;;;;;;;;;;;;;;;;;;"1249";"2014-09-08 09:22:16.078";"NST_correctLoc";"11";"1";"FINISHED";"RIGHT";"success";"518";"0";"2014-09-08 09:22:14.828";"2";;;;;;;;;;;;;;;;;;;;;;;;;;;;;;;;;;;;;;;;;;;;;
"8darragrace";;;"Windows 7";"Rachel's Experiment (D.T.)";"1.0";"2";"1";"1";"2";"1";"1";"2014-09-08 09:18:12.179";"2014-09-08 09:30:51.636";"1";"1";"0";"67";"66";"module.training_block2.exec-5766.GoNoGo2";;;;;;;;;;;;;;;;;;;;;;;;;;;;;;;;;;;"1249";"2014-09-08 09:22:18.630";"NST_correctLoc";"13";"1";"FINISHED";"RIGHT";"success";"534";"0";"2014-09-08 09:22:17.380";"2";;;;;;;;;;;;;;;;;;;;;;;;;;;;;;;;;;;;;;;;;;;;;
"8darragrace";;;"Windows 7";"Rachel's Experiment (D.T.)";"1.0";"2";"1";"1";"2";"1";"1";"2014-09-08 09:18:12.179";"2014-09-08 09:30:51.636";"1";"1";"0";"68";"67";"module.training_block2.exec-5766.GoNoGo2";;;;;;;;;;;;;;;;;;;;;;;;;;;;;;;;;;;"1249";"2014-09-08 09:22:21.178";"ST_correctStop";"21";"1";"FINISHED";"NONE";"success";"0";"1";"2014-09-08 09:22:19.928";"3";;;;;;;;;;;;;;;;;;;;;;;;;;;;;;;;;;;;;;;;;;;;;
"8darragrace";;;"Windows 7";"Rachel's Experiment (D.T.)";"1.0";"2";"1";"1";"2";"1";"1";"2014-09-08 09:18:12.179";"2014-09-08 09:30:51.636";"1";"1";"0";"69";"68";"module.training_block2.exec-5766.GoNoGo2";;;;;;;;;;;;;;;;;;;;;;;;;;;;;;;;;;;"1249";"2014-09-08 09:22:23.715";"ST_correctStop";"27";"1";"FINISHED";"NONE";"success";"0";"1";"2014-09-08 09:22:22.465";"3";;;;;;;;;;;;;;;;;;;;;;;;;;;;;;;;;;;;;;;;;;;;;
"8darragrace";;;"Windows 7";"Rachel's Experiment (D.T.)";"1.0";"2";"1";"1";"2";"1";"1";"2014-09-08 09:18:12.179";"2014-09-08 09:30:51.636";"1";"1";"0";"70";"69";"module.training_block2.exec-5766.GoNoGo2";;;;;;;;;;;;;;;;;;;;;;;;;;;;;;;;;;;"1249";"2014-09-08 09:22:26.264";"NST_correctLoc";"22";"0";"FINISHED";"LEFT";"success";"580";"0";"2014-09-08 09:22:25.014";"3";;;;;;;;;;;;;;;;;;;;;;;;;;;;;;;;;;;;;;;;;;;;;
"8darragrace";;;"Windows 7";"Rachel's Experiment (D.T.)";"1.0";"2";"1";"1";"2";"1";"1";"2014-09-08 09:18:12.179";"2014-09-08 09:30:51.636";"1";"1";"0";"71";"70";"module.training_block2.exec-5766.GoNoGo2";;;;;;;;;;;;;;;;;;;;;;;;;;;;;;;;;;;"1249";"2014-09-08 09:22:28.808";"ST_correctStop";"6";"1";"FINISHED";"NONE";"success";"0";"1";"2014-09-08 09:22:27.558";"1";;;;;;;;;;;;;;;;;;;;;;;;;;;;;;;;;;;;;;;;;;;;;
"8darragrace";;;"Windows 7";"Rachel's Experiment (D.T.)";"1.0";"2";"1";"1";"2";"1";"1";"2014-09-08 09:18:12.179";"2014-09-08 09:30:51.636";"1";"1";"0";"72";"71";"module.training_block2.exec-5766.GoNoGo2";;;;;;;;;;;;;;;;;;;;;;;;;;;;;;;;;;;"1249";"2014-09-08 09:22:31.358";"NST_correctLoc";"30";"0";"FINISHED";"LEFT";"success";"470";"0";"2014-09-08 09:22:30.108";"3";;;;;;;;;;;;;;;;;;;;;;;;;;;;;;;;;;;;;;;;;;;;;
"8darragrace";;;"Windows 7";"Rachel's Experiment (D.T.)";"1.0";"2";"1";"1";"2";"1";"1";"2014-09-08 09:18:12.179";"2014-09-08 09:30:51.636";"1";"1";"0";"73";"72";"module.training_block2.exec-5766.GoNoGo2";;;;;;;;;;;;;;;;;;;;;;;;;;;;;;;;;;;"1249";"2014-09-08 09:22:33.900";"NST_correctLoc";"14";"1";"FINISHED";"RIGHT";"success";"512";"0";"2014-09-08 09:22:32.650";"2";;;;;;;;;;;;;;;;;;;;;;;;;;;;;;;;;;;;;;;;;;;;;
"8darragrace";;;"Windows 7";"Rachel's Experiment (D.T.)";"1.0";"2";"1";"1";"2";"1";"1";"2014-09-08 09:18:12.179";"2014-09-08 09:30:51.636";"1";"1";"0";"74";"73";"module.training_block2.exec-5766.GoNoGo2";;;;;;;;;;;;;;;;;;;;;;;;;;;;;;;;;;;"1249";"2014-09-08 09:22:36.449";"NST_correctLoc";"16";"1";"FINISHED";"RIGHT";"success";"522";"0";"2014-09-08 09:22:35.199";"2";;;;;;;;;;;;;;;;;;;;;;;;;;;;;;;;;;;;;;;;;;;;;
"8darragrace";;;"Windows 7";"Rachel's Experiment (D.T.)";"1.0";"2";"1";"1";"2";"1";"1";"2014-09-08 09:18:12.179";"2014-09-08 09:30:51.636";"1";"1";"0";"75";"74";"module.training_block2.exec-5766.GoNoGo2";;;;;;;;;;;;;;;;;;;;;;;;;;;;;;;;;;;"1249";"2014-09-08 09:22:38.977";"ST_correctStop";"19";"1";"FINISHED";"NONE";"success";"0";"1";"2014-09-08 09:22:37.727";"3";;;;;;;;;;;;;;;;;;;;;;;;;;;;;;;;;;;;;;;;;;;;;
"8darragrace";;;"Windows 7";"Rachel's Experiment (D.T.)";"1.0";"2";"1";"1";"2";"1";"1";"2014-09-08 09:18:12.179";"2014-09-08 09:30:51.636";"1";"1";"0";"76";"75";"module.training_block2.exec-5766.GoNoGo2";;;;;;;;;;;;;;;;;;;;;;;;;;;;;;;;;;;"1249";"2014-09-08 09:22:41.520";"NST_correctLoc";"35";"1";"FINISHED";"RIGHT";"success";"444";"0";"2014-09-08 09:22:40.270";"3";;;;;;;;;;;;;;;;;;;;;;;;;;;;;;;;;;;;;;;;;;;;;
"8darragrace";;;"Windows 7";"Rachel's Experiment (D.T.)";"1.0";"2";"1";"1";"2";"1";"1";"2014-09-08 09:18:12.179";"2014-09-08 09:30:51.636";"1";"1";"0";"77";"76";"module.training_block2.exec-5766.GoNoGo2";;;;;;;;;;;;;;;;;;;;;;;;;;;;;;;;;;;"1249";"2014-09-08 09:22:44.067";"ST_correctStop";"4";"0";"FINISHED";"NONE";"success";"0";"1";"2014-09-08 09:22:42.817";"1";;;;;;;;;;;;;;;;;;;;;;;;;;;;;;;;;;;;;;;;;;;;;
"8darragrace";;;"Windows 7";"Rachel's Experiment (D.T.)";"1.0";"2";"1";"1";"2";"1";"1";"2014-09-08 09:18:12.179";"2014-09-08 09:30:51.636";"1";"1";"0";"78";"77";"module.training_block2.exec-5766.GoNoGo2";;;;;;;;;;;;;;;;;;;;;;;;;;;;;;;;;;;"1250";"2014-09-08 09:22:46.614";"NST_correctLoc";"28";"1";"FINISHED";"RIGHT";"success";"510";"0";"2014-09-08 09:22:45.364";"3";;;;;;;;;;;;;;;;;;;;;;;;;;;;;;;;;;;;;;;;;;;;;
"8darragrace";;;"Windows 7";"Rachel's Experiment (D.T.)";"1.0";"2";"1";"1";"2";"1";"1";"2014-09-08 09:18:12.179";"2014-09-08 09:30:51.636";"1";"1";"0";"79";"78";"module.training_block2.exec-5766.GoNoGo2";;;;;;;;;;;;;;;;;;;;;;;;;;;;;;;;;;;"1250";"2014-09-08 09:22:49.161";"NST_correctLoc";"17";"1";"FINISHED";"RIGHT";"success";"610";"0";"2014-09-08 09:22:47.911";"2";;;;;;;;;;;;;;;;;;;;;;;;;;;;;;;;;;;;;;;;;;;;;
"8darragrace";;;"Windows 7";"Rachel's Experiment (D.T.)";"1.0";"2";"1";"1";"2";"1";"1";"2014-09-08 09:18:12.179";"2014-09-08 09:30:51.636";"1";"1";"0";"80";"79";"module.training_block2.exec-5766.GoNoGo2";;;;;;;;;;;;;;;;;;;;;;;;;;;;;;;;;;;"1250";"2014-09-08 09:22:51.709";"NST_correctLoc";"32";"0";"FINISHED";"LEFT";"success";"479";"0";"2014-09-08 09:22:50.459";"3";;;;;;;;;;;;;;;;;;;;;;;;;;;;;;;;;;;;;;;;;;;;;
"8darragrace";;;"Windows 7";"Rachel's Experiment (D.T.)";"1.0";"2";"1";"1";"2";"1";"1";"2014-09-08 09:18:12.179";"2014-09-08 09:30:51.636";"1";"1";"0";"81";"80";"module.training_block2.exec-5766.GoNoGo2";;;;;;;;;;;;;;;;;;;;;;;;;;;;;;;;;;;"1250";"2014-09-08 09:22:54.256";"NST_correctLoc";"10";"1";"FINISHED";"RIGHT";"success";"444";"0";"2014-09-08 09:22:53.006";"2";;;;;;;;;;;;;;;;;;;;;;;;;;;;;;;;;;;;;;;;;;;;;
"8darragrace";;;"Windows 7";"Rachel's Experiment (D.T.)";"1.0";"2";"1";"1";"2";"1";"1";"2014-09-08 09:18:12.179";"2014-09-08 09:30:51.636";"1";"1";"0";"82";"81";"module.training_block2.exec-5766.GoNoGo2";;;;;;;;;;;;;;;;;;;;;;;;;;;;;;;;;;;"1250";"2014-09-08 09:22:56.796";"ST_correctStop";"26";"0";"FINISHED";"NONE";"success";"0";"1";"2014-09-08 09:22:55.546";"3";;;;;;;;;;;;;;;;;;;;;;;;;;;;;;;;;;;;;;;;;;;;;
"8darragrace";;;"Windows 7";"Rachel's Experiment (D.T.)";"1.0";"2";"1";"1";"2";"1";"1";"2014-09-08 09:18:12.179";"2014-09-08 09:30:51.636";"1";"1";"0";"83";"82";"module.training_block2.exec-5766.GoNoGo2";;;;;;;;;;;;;;;;;;;;;;;;;;;;;;;;;;;"1249";"2014-09-08 09:22:59.342";"ST_correctStop";"5";"0";"FINISHED";"NONE";"success";"0";"1";"2014-09-08 09:22:58.092";"1";;;;;;;;;;;;;;;;;;;;;;;;;;;;;;;;;;;;;;;;;;;;;
"8darragrace";;;"Windows 7";"Rachel's Experiment (D.T.)";"1.0";"2";"1";"1";"2";"1";"1";"2014-09-08 09:18:12.179";"2014-09-08 09:30:51.636";"1";"1";"0";"84";"83";"module.training_block2.exec-5766.GoNoGo2";;;;;;;;;;;;;;;;;;;;;;;;;;;;;;;;;;;"1250";"2014-09-08 09:23:01.887";"NST_correctLoc";"31";"0";"FINISHED";"LEFT";"success";"493";"0";"2014-09-08 09:23:00.637";"3";;;;;;;;;;;;;;;;;;;;;;;;;;;;;;;;;;;;;;;;;;;;;
"8darragrace";;;"Windows 7";"Rachel's Experiment (D.T.)";"1.0";"2";"1";"1";"2";"1";"1";"2014-09-08 09:18:12.179";"2014-09-08 09:30:51.636";"1";"1";"0";"85";"84";"module.training_block2.exec-5766.GoNoGo2";;;;;;;;;;;;;;;;;;;;;;;;;;;;;;;;;;;"1250";"2014-09-08 09:23:04.432";"ST_correctStop";"3";"1";"FINISHED";"NONE";"success";"0";"1";"2014-09-08 09:23:03.182";"1";;;;;;;;;;;;;;;;;;;;;;;;;;;;;;;;;;;;;;;;;;;;;
"8darragrace";;;"Windows 7";"Rachel's Experiment (D.T.)";"1.0";"2";"1";"1";"2";"1";"1";"2014-09-08 09:18:12.179";"2014-09-08 09:30:51.636";"1";"1";"0";"86";"85";"module.training_block2.exec-5766.GoNoGo2";;;;;;;;;;;;;;;;;;;;;;;;;;;;;;;;;;;"1249";"2014-09-08 09:23:06.978";"NST_correctLoc";"24";"0";"FINISHED";"LEFT";"success";"498";"0";"2014-09-08 09:23:05.728";"3";;;;;;;;;;;;;;;;;;;;;;;;;;;;;;;;;;;;;;;;;;;;;
"8darragrace";;;"Windows 7";"Rachel's Experiment (D.T.)";"1.0";"2";"1";"1";"2";"1";"1";"2014-09-08 09:18:12.179";"2014-09-08 09:30:51.636";"1";"1";"0";"87";"86";"module.training_block2.exec-5766.GoNoGo2";;;;;;;;;;;;;;;;;;;;;;;;;;;;;;;;;;;"1249";"2014-09-08 09:23:09.525";"ST_correctStop";"8";"0";"FINISHED";"NONE";"success";"0";"1";"2014-09-08 09:23:08.275";"1";;;;;;;;;;;;;;;;;;;;;;;;;;;;;;;;;;;;;;;;;;;;;
"8darragrace";;;"Windows 7";"Rachel's Experiment (D.T.)";"1.0";"2";"1";"1";"2";"1";"1";"2014-09-08 09:18:12.179";"2014-09-08 09:30:51.636";"1";"1";"0";"88";"87";"module.training_block3.exec-3847.GoNoGo3";;;;;;;;;;;;;;;;;;;;;;;;;;;;;;;;;;;;;;;;;;;;;;;"1249";"2014-09-08 09:23:20.245";"NST_correctLoc";"28";"0";"FINISHED";"LEFT";"success";"607";"0";"2014-09-08 09:23:18.995";"3";;;;;;;;;;;;;;;;;;;;;;;;;;;;;;;;;
"8darragrace";;;"Windows 7";"Rachel's Experiment (D.T.)";"1.0";"2";"1";"1";"2";"1";"1";"2014-09-08 09:18:12.179";"2014-09-08 09:30:51.636";"1";"1";"0";"89";"88";"module.training_block3.exec-3847.GoNoGo3";;;;;;;;;;;;;;;;;;;;;;;;;;;;;;;;;;;;;;;;;;;;;;;"1249";"2014-09-08 09:23:22.793";"NST_correctLoc";"34";"0";"FINISHED";"LEFT";"success";"635";"0";"2014-09-08 09:23:21.543";"3";;;;;;;;;;;;;;;;;;;;;;;;;;;;;;;;;
"8darragrace";;;"Windows 7";"Rachel's Experiment (D.T.)";"1.0";"2";"1";"1";"2";"1";"1";"2014-09-08 09:18:12.179";"2014-09-08 09:30:51.636";"1";"1";"0";"90";"89";"module.training_block3.exec-3847.GoNoGo3";;;;;;;;;;;;;;;;;;;;;;;;;;;;;;;;;;;;;;;;;;;;;;;"1250";"2014-09-08 09:23:25.339";"NST_correctLoc";"11";"1";"FINISHED";"RIGHT";"success";"473";"0";"2014-09-08 09:23:24.089";"2";;;;;;;;;;;;;;;;;;;;;;;;;;;;;;;;;
"8darragrace";;;"Windows 7";"Rachel's Experiment (D.T.)";"1.0";"2";"1";"1";"2";"1";"1";"2014-09-08 09:18:12.179";"2014-09-08 09:30:51.636";"1";"1";"0";"91";"90";"module.training_block3.exec-3847.GoNoGo3";;;;;;;;;;;;;;;;;;;;;;;;;;;;;;;;;;;;;;;;;;;;;;;"1249";"2014-09-08 09:23:27.883";"ST_failedStop";"3";"0";"FINISHED";"LEFT";"failure";"345";"1";"2014-09-08 09:23:26.633";"1";;;;;;;;;;;;;;;;;;;;;;;;;;;;;;;;;
"8darragrace";;;"Windows 7";"Rachel's Experiment (D.T.)";"1.0";"2";"1";"1";"2";"1";"1";"2014-09-08 09:18:12.179";"2014-09-08 09:30:51.636";"1";"1";"0";"92";"91";"module.training_block3.exec-3847.GoNoGo3";;;;;;;;;;;;;;;;;;;;;;;;;;;;;;;;;;;;;;;;;;;;;;;"1249";"2014-09-08 09:23:30.431";"ST_correctStop";"1";"1";"FINISHED";"NONE";"success";"0";"1";"2014-09-08 09:23:29.181";"1";;;;;;;;;;;;;;;;;;;;;;;;;;;;;;;;;
"8darragrace";;;"Windows 7";"Rachel's Experiment (D.T.)";"1.0";"2";"1";"1";"2";"1";"1";"2014-09-08 09:18:12.179";"2014-09-08 09:30:51.636";"1";"1";"0";"93";"92";"module.training_block3.exec-3847.GoNoGo3";;;;;;;;;;;;;;;;;;;;;;;;;;;;;;;;;;;;;;;;;;;;;;;"1250";"2014-09-08 09:23:32.972";"NST_correctLoc";"35";"1";"FINISHED";"RIGHT";"success";"464";"0";"2014-09-08 09:23:31.722";"3";;;;;;;;;;;;;;;;;;;;;;;;;;;;;;;;;
"8darragrace";;;"Windows 7";"Rachel's Experiment (D.T.)";"1.0";"2";"1";"1";"2";"1";"1";"2014-09-08 09:18:12.179";"2014-09-08 09:30:51.636";"1";"1";"0";"94";"93";"module.training_block3.exec-3847.GoNoGo3";;;;;;;;;;;;;;;;;;;;;;;;;;;;;;;;;;;;;;;;;;;;;;;"1250";"2014-09-08 09:23:35.516";"ST_correctStop";"24";"0";"FINISHED";"NONE";"success";"0";"1";"2014-09-08 09:23:34.266";"3";;;;;;;;;;;;;;;;;;;;;;;;;;;;;;;;;
"8darragrace";;;"Windows 7";"Rachel's Experiment (D.T.)";"1.0";"2";"1";"1";"2";"1";"1";"2014-09-08 09:18:12.179";"2014-09-08 09:30:51.636";"1";"1";"0";"95";"94";"module.training_block3.exec-3847.GoNoGo3";;;;;;;;;;;;;;;;;;;;;;;;;;;;;;;;;;;;;;;;;;;;;;;"1250";"2014-09-08 09:23:38.062";"ST_correctStop";"0";"1";"FINISHED";"NONE";"success";"0";"1";"2014-09-08 09:23:36.812";"1";;;;;;;;;;;;;;;;;;;;;;;;;;;;;;;;;
"8darragrace";;;"Windows 7";"Rachel's Experiment (D.T.)";"1.0";"2";"1";"1";"2";"1";"1";"2014-09-08 09:18:12.179";"2014-09-08 09:30:51.636";"1";"1";"0";"96";"95";"module.training_block3.exec-3847.GoNoGo3";;;;;;;;;;;;;;;;;;;;;;;;;;;;;;;;;;;;;;;;;;;;;;;"1250";"2014-09-08 09:23:40.608";"NST_correctLoc";"21";"1";"FINISHED";"RIGHT";"success";"420";"0";"2014-09-08 09:23:39.358";"3";;;;;;;;;;;;;;;;;;;;;;;;;;;;;;;;;
"8darragrace";;;"Windows 7";"Rachel's Experiment (D.T.)";"1.0";"2";"1";"1";"2";"1";"1";"2014-09-08 09:18:12.179";"2014-09-08 09:30:51.636";"1";"1";"0";"97";"96";"module.training_block3.exec-3847.GoNoGo3";;;;;;;;;;;;;;;;;;;;;;;;;;;;;;;;;;;;;;;;;;;;;;;"1249";"2014-09-08 09:23:43.154";"NST_correctLoc";"23";"0";"FINISHED";"LEFT";"success";"610";"0";"2014-09-08 09:23:41.904";"3";;;;;;;;;;;;;;;;;;;;;;;;;;;;;;;;;
"8darragrace";;;"Windows 7";"Rachel's Experiment (D.T.)";"1.0";"2";"1";"1";"2";"1";"1";"2014-09-08 09:18:12.179";"2014-09-08 09:30:51.636";"1";"1";"0";"98";"97";"module.training_block3.exec-3847.GoNoGo3";;;;;;;;;;;;;;;;;;;;;;;;;;;;;;;;;;;;;;;;;;;;;;;"1250";"2014-09-08 09:23:45.694";"ST_correctStop";"27";"1";"FINISHED";"NONE";"success";"0";"1";"2014-09-08 09:23:44.444";"3";;;;;;;;;;;;;;;;;;;;;;;;;;;;;;;;;
"8darragrace";;;"Windows 7";"Rachel's Experiment (D.T.)";"1.0";"2";"1";"1";"2";"1";"1";"2014-09-08 09:18:12.179";"2014-09-08 09:30:51.636";"1";"1";"0";"99";"98";"module.training_block3.exec-3847.GoNoGo3";;;;;;;;;;;;;;;;;;;;;;;;;;;;;;;;;;;;;;;;;;;;;;;"1249";"2014-09-08 09:23:48.237";"ST_correctStop";"8";"1";"FINISHED";"NONE";"success";"0";"1";"2014-09-08 09:23:46.987";"1";;;;;;;;;;;;;;;;;;;;;;;;;;;;;;;;;
"8darragrace";;;"Windows 7";"Rachel's Experiment (D.T.)";"1.0";"2";"1";"1";"2";"1";"1";"2014-09-08 09:18:12.179";"2014-09-08 09:30:51.636";"1";"1";"0";"100";"99";"module.training_block3.exec-3847.GoNoGo3";;;;;;;;;;;;;;;;;;;;;;;;;;;;;;;;;;;;;;;;;;;;;;;"1249";"2014-09-08 09:23:50.784";"NST_correctLoc";"32";"0";"FINISHED";"LEFT";"success";"508";"0";"2014-09-08 09:23:49.534";"3";;;;;;;;;;;;;;;;;;;;;;;;;;;;;;;;;
"8darragrace";;;"Windows 7";"Rachel's Experiment (D.T.)";"1.0";"2";"1";"1";"2";"1";"1";"2014-09-08 09:18:12.179";"2014-09-08 09:30:51.636";"1";"1";"0";"101";"100";"module.training_block3.exec-3847.GoNoGo3";;;;;;;;;;;;;;;;;;;;;;;;;;;;;;;;;;;;;;;;;;;;;;;"1250";"2014-09-08 09:23:53.330";"ST_correctStop";"5";"0";"FINISHED";"NONE";"success";"0";"1";"2014-09-08 09:23:52.080";"1";;;;;;;;;;;;;;;;;;;;;;;;;;;;;;;;;
"8darragrace";;;"Windows 7";"Rachel's Experiment (D.T.)";"1.0";"2";"1";"1";"2";"1";"1";"2014-09-08 09:18:12.179";"2014-09-08 09:30:51.636";"1";"1";"0";"102";"101";"module.training_block3.exec-3847.GoNoGo3";;;;;;;;;;;;;;;;;;;;;;;;;;;;;;;;;;;;;;;;;;;;;;;"1249";"2014-09-08 09:23:55.875";"NST_correctLoc";"9";"1";"FINISHED";"RIGHT";"success";"465";"0";"2014-09-08 09:23:54.625";"2";;;;;;;;;;;;;;;;;;;;;;;;;;;;;;;;;
"8darragrace";;;"Windows 7";"Rachel's Experiment (D.T.)";"1.0";"2";"1";"1";"2";"1";"1";"2014-09-08 09:18:12.179";"2014-09-08 09:30:51.636";"1";"1";"0";"103";"102";"module.training_block3.exec-3847.GoNoGo3";;;;;;;;;;;;;;;;;;;;;;;;;;;;;;;;;;;;;;;;;;;;;;;"1250";"2014-09-08 09:23:58.421";"ST_correctStop";"22";"0";"FINISHED";"NONE";"success";"0";"1";"2014-09-08 09:23:57.171";"3";;;;;;;;;;;;;;;;;;;;;;;;;;;;;;;;;
"8darragrace";;;"Windows 7";"Rachel's Experiment (D.T.)";"1.0";"2";"1";"1";"2";"1";"1";"2014-09-08 09:18:12.179";"2014-09-08 09:30:51.636";"1";"1";"0";"104";"103";"module.training_block3.exec-3847.GoNoGo3";;;;;;;;;;;;;;;;;;;;;;;;;;;;;;;;;;;;;;;;;;;;;;;"1250";"2014-09-08 09:24:00.963";"ST_correctStop";"2";"0";"FINISHED";"NONE";"success";"0";"1";"2014-09-08 09:23:59.713";"1";;;;;;;;;;;;;;;;;;;;;;;;;;;;;;;;;
"8darragrace";;;"Windows 7";"Rachel's Experiment (D.T.)";"1.0";"2";"1";"1";"2";"1";"1";"2014-09-08 09:18:12.179";"2014-09-08 09:30:51.636";"1";"1";"0";"105";"104";"module.training_block3.exec-3847.GoNoGo3";;;;;;;;;;;;;;;;;;;;;;;;;;;;;;;;;;;;;;;;;;;;;;;"1250";"2014-09-08 09:24:03.508";"ST_correctStop";"4";"0";"FINISHED";"NONE";"success";"0";"1";"2014-09-08 09:24:02.258";"1";;;;;;;;;;;;;;;;;;;;;;;;;;;;;;;;;
"8darragrace";;;"Windows 7";"Rachel's Experiment (D.T.)";"1.0";"2";"1";"1";"2";"1";"1";"2014-09-08 09:18:12.179";"2014-09-08 09:30:51.636";"1";"1";"0";"106";"105";"module.training_block3.exec-3847.GoNoGo3";;;;;;;;;;;;;;;;;;;;;;;;;;;;;;;;;;;;;;;;;;;;;;;"1249";"2014-09-08 09:24:06.051";"ST_correctStop";"20";"0";"FINISHED";"NONE";"success";"0";"1";"2014-09-08 09:24:04.801";"3";;;;;;;;;;;;;;;;;;;;;;;;;;;;;;;;;
"8darragrace";;;"Windows 7";"Rachel's Experiment (D.T.)";"1.0";"2";"1";"1";"2";"1";"1";"2014-09-08 09:18:12.179";"2014-09-08 09:30:51.636";"1";"1";"0";"107";"106";"module.training_block3.exec-3847.GoNoGo3";;;;;;;;;;;;;;;;;;;;;;;;;;;;;;;;;;;;;;;;;;;;;;;"1250";"2014-09-08 09:24:08.597";"ST_correctStop";"7";"0";"FINISHED";"NONE";"success";"0";"1";"2014-09-08 09:24:07.347";"1";;;;;;;;;;;;;;;;;;;;;;;;;;;;;;;;;
"8darragrace";;;"Windows 7";"Rachel's Experiment (D.T.)";"1.0";"2";"1";"1";"2";"1";"1";"2014-09-08 09:18:12.179";"2014-09-08 09:30:51.636";"1";"1";"0";"108";"107";"module.training_block3.exec-3847.GoNoGo3";;;;;;;;;;;;;;;;;;;;;;;;;;;;;;;;;;;;;;;;;;;;;;;"1250";"2014-09-08 09:24:11.144";"ST_correctStop";"31";"0";"FINISHED";"NONE";"success";"0";"1";"2014-09-08 09:24:09.894";"3";;;;;;;;;;;;;;;;;;;;;;;;;;;;;;;;;
"8darragrace";;;"Windows 7";"Rachel's Experiment (D.T.)";"1.0";"2";"1";"1";"2";"1";"1";"2014-09-08 09:18:12.179";"2014-09-08 09:30:51.636";"1";"1";"0";"109";"108";"module.training_block3.exec-3847.GoNoGo3";;;;;;;;;;;;;;;;;;;;;;;;;;;;;;;;;;;;;;;;;;;;;;;"1250";"2014-09-08 09:24:13.683";"ST_correctStop";"25";"0";"FINISHED";"NONE";"success";"0";"1";"2014-09-08 09:24:12.433";"3";;;;;;;;;;;;;;;;;;;;;;;;;;;;;;;;;
"8darragrace";;;"Windows 7";"Rachel's Experiment (D.T.)";"1.0";"2";"1";"1";"2";"1";"1";"2014-09-08 09:18:12.179";"2014-09-08 09:30:51.636";"1";"1";"0";"110";"109";"module.training_block3.exec-3847.GoNoGo3";;;;;;;;;;;;;;;;;;;;;;;;;;;;;;;;;;;;;;;;;;;;;;;"1250";"2014-09-08 09:24:16.227";"ST_correctStop";"26";"0";"FINISHED";"NONE";"success";"0";"1";"2014-09-08 09:24:14.977";"3";;;;;;;;;;;;;;;;;;;;;;;;;;;;;;;;;
"8darragrace";;;"Windows 7";"Rachel's Experiment (D.T.)";"1.0";"2";"1";"1";"2";"1";"1";"2014-09-08 09:18:12.179";"2014-09-08 09:30:51.636";"1";"1";"0";"111";"110";"module.training_block3.exec-3847.GoNoGo3";;;;;;;;;;;;;;;;;;;;;;;;;;;;;;;;;;;;;;;;;;;;;;;"1250";"2014-09-08 09:24:18.773";"NST_correctLoc";"18";"0";"FINISHED";"LEFT";"success";"479";"0";"2014-09-08 09:24:17.523";"3";;;;;;;;;;;;;;;;;;;;;;;;;;;;;;;;;
"8darragrace";;;"Windows 7";"Rachel's Experiment (D.T.)";"1.0";"2";"1";"1";"2";"1";"1";"2014-09-08 09:18:12.179";"2014-09-08 09:30:51.636";"1";"1";"0";"112";"111";"module.training_block3.exec-3847.GoNoGo3";;;;;;;;;;;;;;;;;;;;;;;;;;;;;;;;;;;;;;;;;;;;;;;"1250";"2014-09-08 09:24:21.316";"ST_correctStop";"30";"0";"FINISHED";"NONE";"success";"0";"1";"2014-09-08 09:24:20.066";"3";;;;;;;;;;;;;;;;;;;;;;;;;;;;;;;;;
"8darragrace";;;"Windows 7";"Rachel's Experiment (D.T.)";"1.0";"2";"1";"1";"2";"1";"1";"2014-09-08 09:18:12.179";"2014-09-08 09:30:51.636";"1";"1";"0";"113";"112";"module.training_block3.exec-3847.GoNoGo3";;;;;;;;;;;;;;;;;;;;;;;;;;;;;;;;;;;;;;;;;;;;;;;"1250";"2014-09-08 09:24:23.861";"ST_correctStop";"6";"1";"FINISHED";"NONE";"success";"0";"1";"2014-09-08 09:24:22.611";"1";;;;;;;;;;;;;;;;;;;;;;;;;;;;;;;;;
"8darragrace";;;"Windows 7";"Rachel's Experiment (D.T.)";"1.0";"2";"1";"1";"2";"1";"1";"2014-09-08 09:18:12.179";"2014-09-08 09:30:51.636";"1";"1";"0";"114";"113";"module.training_block3.exec-3847.GoNoGo3";;;;;;;;;;;;;;;;;;;;;;;;;;;;;;;;;;;;;;;;;;;;;;;"1249";"2014-09-08 09:24:26.417";"ST_correctStop";"33";"0";"FINISHED";"NONE";"success";"0";"1";"2014-09-08 09:24:25.167";"3";;;;;;;;;;;;;;;;;;;;;;;;;;;;;;;;;
"8darragrace";;;"Windows 7";"Rachel's Experiment (D.T.)";"1.0";"2";"1";"1";"2";"1";"1";"2014-09-08 09:18:12.179";"2014-09-08 09:30:51.636";"1";"1";"0";"115";"114";"module.training_block3.exec-3847.GoNoGo3";;;;;;;;;;;;;;;;;;;;;;;;;;;;;;;;;;;;;;;;;;;;;;;"1250";"2014-09-08 09:24:28.972";"NST_correctLoc";"19";"1";"FINISHED";"RIGHT";"success";"608";"0";"2014-09-08 09:24:27.722";"3";;;;;;;;;;;;;;;;;;;;;;;;;;;;;;;;;
"8darragrace";;;"Windows 7";"Rachel's Experiment (D.T.)";"1.0";"2";"1";"1";"2";"1";"1";"2014-09-08 09:18:12.179";"2014-09-08 09:30:51.636";"1";"1";"0";"116";"115";"module.training_block3.exec-3847.GoNoGo3";;;;;;;;;;;;;;;;;;;;;;;;;;;;;;;;;;;;;;;;;;;;;;;"1250";"2014-09-08 09:24:31.519";"NST_correctLoc";"13";"0";"FINISHED";"LEFT";"success";"757";"0";"2014-09-08 09:24:30.269";"2";;;;;;;;;;;;;;;;;;;;;;;;;;;;;;;;;
"8darragrace";;;"Windows 7";"Rachel's Experiment (D.T.)";"1.0";"2";"1";"1";"2";"1";"1";"2014-09-08 09:18:12.179";"2014-09-08 09:30:51.636";"1";"1";"0";"117";"116";"module.training_block3.exec-3847.GoNoGo3";;;;;;;;;;;;;;;;;;;;;;;;;;;;;;;;;;;;;;;;;;;;;;;"1250";"2014-09-08 09:24:34.062";"NST_correctLoc";"14";"0";"FINISHED";"LEFT";"success";"462";"0";"2014-09-08 09:24:32.812";"2";;;;;;;;;;;;;;;;;;;;;;;;;;;;;;;;;
"8darragrace";;;"Windows 7";"Rachel's Experiment (D.T.)";"1.0";"2";"1";"1";"2";"1";"1";"2014-09-08 09:18:12.179";"2014-09-08 09:30:51.636";"1";"1";"0";"118";"117";"module.training_block3.exec-3847.GoNoGo3";;;;;;;;;;;;;;;;;;;;;;;;;;;;;;;;;;;;;;;;;;;;;;;"1250";"2014-09-08 09:24:36.601";"NST_correctLoc";"29";"0";"FINISHED";"LEFT";"success";"483";"0";"2014-09-08 09:24:35.351";"3";;;;;;;;;;;;;;;;;;;;;;;;;;;;;;;;;
"8darragrace";;;"Windows 7";"Rachel's Experiment (D.T.)";"1.0";"2";"1";"1";"2";"1";"1";"2014-09-08 09:18:12.179";"2014-09-08 09:30:51.636";"1";"1";"0";"119";"118";"module.training_block3.exec-3847.GoNoGo3";;;;;;;;;;;;;;;;;;;;;;;;;;;;;;;;;;;;;;;;;;;;;;;"1250";"2014-09-08 09:24:39.144";"NST_correctLoc";"10";"1";"FINISHED";"RIGHT";"success";"428";"0";"2014-09-08 09:24:37.894";"2";;;;;;;;;;;;;;;;;;;;;;;;;;;;;;;;;
"8darragrace";;;"Windows 7";"Rachel's Experiment (D.T.)";"1.0";"2";"1";"1";"2";"1";"1";"2014-09-08 09:18:12.179";"2014-09-08 09:30:51.636";"1";"1";"0";"120";"119";"module.training_block3.exec-3847.GoNoGo3";;;;;;;;;;;;;;;;;;;;;;;;;;;;;;;;;;;;;;;;;;;;;;;"1250";"2014-09-08 09:24:41.688";"NST_correctLoc";"15";"0";"FINISHED";"LEFT";"success";"292";"0";"2014-09-08 09:24:40.438";"2";;;;;;;;;;;;;;;;;;;;;;;;;;;;;;;;;
"8darragrace";;;"Windows 7";"Rachel's Experiment (D.T.)";"1.0";"2";"1";"1";"2";"1";"1";"2014-09-08 09:18:12.179";"2014-09-08 09:30:51.636";"1";"1";"0";"121";"120";"module.training_block3.exec-3847.GoNoGo3";;;;;;;;;;;;;;;;;;;;;;;;;;;;;;;;;;;;;;;;;;;;;;;"1250";"2014-09-08 09:24:44.231";"NST_correctLoc";"17";"0";"FINISHED";"LEFT";"success";"413";"0";"2014-09-08 09:24:42.981";"2";;;;;;;;;;;;;;;;;;;;;;;;;;;;;;;;;
"8darragrace";;;"Windows 7";"Rachel's Experiment (D.T.)";"1.0";"2";"1";"1";"2";"1";"1";"2014-09-08 09:18:12.179";"2014-09-08 09:30:51.636";"1";"1";"0";"122";"121";"module.training_block3.exec-3847.GoNoGo3";;;;;;;;;;;;;;;;;;;;;;;;;;;;;;;;;;;;;;;;;;;;;;;"1250";"2014-09-08 09:24:46.769";"NST_correctLoc";"12";"1";"FINISHED";"RIGHT";"success";"371";"0";"2014-09-08 09:24:45.519";"2";;;;;;;;;;;;;;;;;;;;;;;;;;;;;;;;;
"8darragrace";;;"Windows 7";"Rachel's Experiment (D.T.)";"1.0";"2";"1";"1";"2";"1";"1";"2014-09-08 09:18:12.179";"2014-09-08 09:30:51.636";"1";"1";"0";"123";"122";"module.training_block3.exec-3847.GoNoGo3";;;;;;;;;;;;;;;;;;;;;;;;;;;;;;;;;;;;;;;;;;;;;;;"1250";"2014-09-08 09:24:49.313";"NST_correctLoc";"16";"1";"FINISHED";"RIGHT";"success";"451";"0";"2014-09-08 09:24:48.063";"2";;;;;;;;;;;;;;;;;;;;;;;;;;;;;;;;;
"8darragrace";;;"Windows 7";"Rachel's Experiment (D.T.)";"1.0";"2";"1";"1";"2";"1";"1";"2014-09-08 09:18:12.179";"2014-09-08 09:30:51.636";"1";"1";"0";"124";"123";"module.training_block4.exec-2716.GoNoGo4";;;;;;;;;;;;;;;;;;;;;;;;;;;;;;;;;;;;;;;;;;;;;;;;;;;;;;;;;;;"1249";"2014-09-08 09:24:59.620";"ST_correctStop";"0";"0";"FINISHED";"NONE";"success";"0";"1";"2014-09-08 09:24:58.370";"1";;;;;;;;;;;;;;;;;;;;;
"8darragrace";;;"Windows 7";"Rachel's Experiment (D.T.)";"1.0";"2";"1";"1";"2";"1";"1";"2014-09-08 09:18:12.179";"2014-09-08 09:30:51.636";"1";"1";"0";"125";"124";"module.training_block4.exec-2716.GoNoGo4";;;;;;;;;;;;;;;;;;;;;;;;;;;;;;;;;;;;;;;;;;;;;;;;;;;;;;;;;;;"1250";"2014-09-08 09:25:02.161";"ST_correctStop";"30";"1";"FINISHED";"NONE";"success";"0";"1";"2014-09-08 09:25:00.911";"3";;;;;;;;;;;;;;;;;;;;;
"8darragrace";;;"Windows 7";"Rachel's Experiment (D.T.)";"1.0";"2";"1";"1";"2";"1";"1";"2014-09-08 09:18:12.179";"2014-09-08 09:30:51.636";"1";"1";"0";"126";"125";"module.training_block4.exec-2716.GoNoGo4";;;;;;;;;;;;;;;;;;;;;;;;;;;;;;;;;;;;;;;;;;;;;;;;;;;;;;;;;;;"1250";"2014-09-08 09:25:04.704";"ST_correctStop";"19";"1";"FINISHED";"NONE";"success";"0";"1";"2014-09-08 09:25:03.454";"3";;;;;;;;;;;;;;;;;;;;;
"8darragrace";;;"Windows 7";"Rachel's Experiment (D.T.)";"1.0";"2";"1";"1";"2";"1";"1";"2014-09-08 09:18:12.179";"2014-09-08 09:30:51.636";"1";"1";"0";"127";"126";"module.training_block4.exec-2716.GoNoGo4";;;;;;;;;;;;;;;;;;;;;;;;;;;;;;;;;;;;;;;;;;;;;;;;;;;;;;;;;;;"1250";"2014-09-08 09:25:07.248";"NST_correctLoc";"27";"1";"FINISHED";"RIGHT";"success";"676";"0";"2014-09-08 09:25:05.998";"3";;;;;;;;;;;;;;;;;;;;;
"8darragrace";;;"Windows 7";"Rachel's Experiment (D.T.)";"1.0";"2";"1";"1";"2";"1";"1";"2014-09-08 09:18:12.179";"2014-09-08 09:30:51.636";"1";"1";"0";"128";"127";"module.training_block4.exec-2716.GoNoGo4";;;;;;;;;;;;;;;;;;;;;;;;;;;;;;;;;;;;;;;;;;;;;;;;;;;;;;;;;;;"1250";"2014-09-08 09:25:09.791";"NST_correctLoc";"10";"0";"FINISHED";"LEFT";"success";"781";"0";"2014-09-08 09:25:08.541";"2";;;;;;;;;;;;;;;;;;;;;
"8darragrace";;;"Windows 7";"Rachel's Experiment (D.T.)";"1.0";"2";"1";"1";"2";"1";"1";"2014-09-08 09:18:12.179";"2014-09-08 09:30:51.636";"1";"1";"0";"129";"128";"module.training_block4.exec-2716.GoNoGo4";;;;;;;;;;;;;;;;;;;;;;;;;;;;;;;;;;;;;;;;;;;;;;;;;;;;;;;;;;;"1250";"2014-09-08 09:25:12.331";"NST_correctLoc";"29";"1";"FINISHED";"RIGHT";"success";"425";"0";"2014-09-08 09:25:11.081";"3";;;;;;;;;;;;;;;;;;;;;
"8darragrace";;;"Windows 7";"Rachel's Experiment (D.T.)";"1.0";"2";"1";"1";"2";"1";"1";"2014-09-08 09:18:12.179";"2014-09-08 09:30:51.636";"1";"1";"0";"130";"129";"module.training_block4.exec-2716.GoNoGo4";;;;;;;;;;;;;;;;;;;;;;;;;;;;;;;;;;;;;;;;;;;;;;;;;;;;;;;;;;;"1250";"2014-09-08 09:25:14.873";"NST_correctLoc";"16";"1";"FINISHED";"RIGHT";"success";"379";"0";"2014-09-08 09:25:13.623";"2";;;;;;;;;;;;;;;;;;;;;
"8darragrace";;;"Windows 7";"Rachel's Experiment (D.T.)";"1.0";"2";"1";"1";"2";"1";"1";"2014-09-08 09:18:12.179";"2014-09-08 09:30:51.636";"1";"1";"0";"131";"130";"module.training_block4.exec-2716.GoNoGo4";;;;;;;;;;;;;;;;;;;;;;;;;;;;;;;;;;;;;;;;;;;;;;;;;;;;;;;;;;;"1250";"2014-09-08 09:25:17.414";"ST_failedStop";"1";"0";"FINISHED";"LEFT";"failure";"430";"1";"2014-09-08 09:25:16.164";"1";;;;;;;;;;;;;;;;;;;;;
"8darragrace";;;"Windows 7";"Rachel's Experiment (D.T.)";"1.0";"2";"1";"1";"2";"1";"1";"2014-09-08 09:18:12.179";"2014-09-08 09:30:51.636";"1";"1";"0";"132";"131";"module.training_block4.exec-2716.GoNoGo4";;;;;;;;;;;;;;;;;;;;;;;;;;;;;;;;;;;;;;;;;;;;;;;;;;;;;;;;;;;"1250";"2014-09-08 09:25:19.952";"ST_correctStop";"31";"0";"FINISHED";"NONE";"success";"0";"1";"2014-09-08 09:25:18.702";"3";;;;;;;;;;;;;;;;;;;;;
"8darragrace";;;"Windows 7";"Rachel's Experiment (D.T.)";"1.0";"2";"1";"1";"2";"1";"1";"2014-09-08 09:18:12.179";"2014-09-08 09:30:51.636";"1";"1";"0";"133";"132";"module.training_block4.exec-2716.GoNoGo4";;;;;;;;;;;;;;;;;;;;;;;;;;;;;;;;;;;;;;;;;;;;;;;;;;;;;;;;;;;"1250";"2014-09-08 09:25:22.495";"NST_correctLoc";"34";"1";"FINISHED";"RIGHT";"success";"621";"0";"2014-09-08 09:25:21.245";"3";;;;;;;;;;;;;;;;;;;;;
"8darragrace";;;"Windows 7";"Rachel's Experiment (D.T.)";"1.0";"2";"1";"1";"2";"1";"1";"2014-09-08 09:18:12.179";"2014-09-08 09:30:51.636";"1";"1";"0";"134";"133";"module.training_block4.exec-2716.GoNoGo4";;;;;;;;;;;;;;;;;;;;;;;;;;;;;;;;;;;;;;;;;;;;;;;;;;;;;;;;;;;"1250";"2014-09-08 09:25:25.037";"NST_correctLoc";"33";"1";"FINISHED";"RIGHT";"success";"479";"0";"2014-09-08 09:25:23.787";"3";;;;;;;;;;;;;;;;;;;;;
"8darragrace";;;"Windows 7";"Rachel's Experiment (D.T.)";"1.0";"2";"1";"1";"2";"1";"1";"2014-09-08 09:18:12.179";"2014-09-08 09:30:51.636";"1";"1";"0";"135";"134";"module.training_block4.exec-2716.GoNoGo4";;;;;;;;;;;;;;;;;;;;;;;;;;;;;;;;;;;;;;;;;;;;;;;;;;;;;;;;;;;"1250";"2014-09-08 09:25:27.579";"ST_correctStop";"18";"0";"FINISHED";"NONE";"success";"0";"1";"2014-09-08 09:25:26.329";"3";;;;;;;;;;;;;;;;;;;;;
"8darragrace";;;"Windows 7";"Rachel's Experiment (D.T.)";"1.0";"2";"1";"1";"2";"1";"1";"2014-09-08 09:18:12.179";"2014-09-08 09:30:51.636";"1";"1";"0";"136";"135";"module.training_block4.exec-2716.GoNoGo4";;;;;;;;;;;;;;;;;;;;;;;;;;;;;;;;;;;;;;;;;;;;;;;;;;;;;;;;;;;"1250";"2014-09-08 09:25:30.118";"NST_correctLoc";"15";"1";"FINISHED";"RIGHT";"success";"426";"0";"2014-09-08 09:25:28.868";"2";;;;;;;;;;;;;;;;;;;;;
"8darragrace";;;"Windows 7";"Rachel's Experiment (D.T.)";"1.0";"2";"1";"1";"2";"1";"1";"2014-09-08 09:18:12.179";"2014-09-08 09:30:51.636";"1";"1";"0";"137";"136";"module.training_block4.exec-2716.GoNoGo4";;;;;;;;;;;;;;;;;;;;;;;;;;;;;;;;;;;;;;;;;;;;;;;;;;;;;;;;;;;"1250";"2014-09-08 09:25:32.662";"NST_correctLoc";"13";"0";"FINISHED";"LEFT";"success";"542";"0";"2014-09-08 09:25:31.412";"2";;;;;;;;;;;;;;;;;;;;;
"8darragrace";;;"Windows 7";"Rachel's Experiment (D.T.)";"1.0";"2";"1";"1";"2";"1";"1";"2014-09-08 09:18:12.179";"2014-09-08 09:30:51.636";"1";"1";"0";"138";"137";"module.training_block4.exec-2716.GoNoGo4";;;;;;;;;;;;;;;;;;;;;;;;;;;;;;;;;;;;;;;;;;;;;;;;;;;;;;;;;;;"1250";"2014-09-08 09:25:35.204";"ST_correctStop";"6";"0";"FINISHED";"NONE";"success";"0";"1";"2014-09-08 09:25:33.954";"1";;;;;;;;;;;;;;;;;;;;;
"8darragrace";;;"Windows 7";"Rachel's Experiment (D.T.)";"1.0";"2";"1";"1";"2";"1";"1";"2014-09-08 09:18:12.179";"2014-09-08 09:30:51.636";"1";"1";"0";"139";"138";"module.training_block4.exec-2716.GoNoGo4";;;;;;;;;;;;;;;;;;;;;;;;;;;;;;;;;;;;;;;;;;;;;;;;;;;;;;;;;;;"1250";"2014-09-08 09:25:37.741";"ST_correctStop";"2";"0";"FINISHED";"NONE";"success";"0";"1";"2014-09-08 09:25:36.491";"1";;;;;;;;;;;;;;;;;;;;;
"8darragrace";;;"Windows 7";"Rachel's Experiment (D.T.)";"1.0";"2";"1";"1";"2";"1";"1";"2014-09-08 09:18:12.179";"2014-09-08 09:30:51.636";"1";"1";"0";"140";"139";"module.training_block4.exec-2716.GoNoGo4";;;;;;;;;;;;;;;;;;;;;;;;;;;;;;;;;;;;;;;;;;;;;;;;;;;;;;;;;;;"1250";"2014-09-08 09:25:40.284";"ST_correctStop";"7";"1";"FINISHED";"NONE";"success";"0";"1";"2014-09-08 09:25:39.034";"1";;;;;;;;;;;;;;;;;;;;;
"8darragrace";;;"Windows 7";"Rachel's Experiment (D.T.)";"1.0";"2";"1";"1";"2";"1";"1";"2014-09-08 09:18:12.179";"2014-09-08 09:30:51.636";"1";"1";"0";"141";"140";"module.training_block4.exec-2716.GoNoGo4";;;;;;;;;;;;;;;;;;;;;;;;;;;;;;;;;;;;;;;;;;;;;;;;;;;;;;;;;;;"1250";"2014-09-08 09:25:42.826";"ST_correctStop";"4";"1";"FINISHED";"NONE";"success";"0";"1";"2014-09-08 09:25:41.576";"1";;;;;;;;;;;;;;;;;;;;;
"8darragrace";;;"Windows 7";"Rachel's Experiment (D.T.)";"1.0";"2";"1";"1";"2";"1";"1";"2014-09-08 09:18:12.179";"2014-09-08 09:30:51.636";"1";"1";"0";"142";"141";"module.training_block4.exec-2716.GoNoGo4";;;;;;;;;;;;;;;;;;;;;;;;;;;;;;;;;;;;;;;;;;;;;;;;;;;;;;;;;;;"1250";"2014-09-08 09:25:45.363";"NST_correctLoc";"32";"1";"FINISHED";"RIGHT";"success";"513";"0";"2014-09-08 09:25:44.113";"3";;;;;;;;;;;;;;;;;;;;;
"8darragrace";;;"Windows 7";"Rachel's Experiment (D.T.)";"1.0";"2";"1";"1";"2";"1";"1";"2014-09-08 09:18:12.179";"2014-09-08 09:30:51.636";"1";"1";"0";"143";"142";"module.training_block4.exec-2716.GoNoGo4";;;;;;;;;;;;;;;;;;;;;;;;;;;;;;;;;;;;;;;;;;;;;;;;;;;;;;;;;;;"1250";"2014-09-08 09:25:47.905";"NST_correctLoc";"17";"1";"FINISHED";"RIGHT";"success";"467";"0";"2014-09-08 09:25:46.655";"2";;;;;;;;;;;;;;;;;;;;;
"8darragrace";;;"Windows 7";"Rachel's Experiment (D.T.)";"1.0";"2";"1";"1";"2";"1";"1";"2014-09-08 09:18:12.179";"2014-09-08 09:30:51.636";"1";"1";"0";"144";"143";"module.training_block4.exec-2716.GoNoGo4";;;;;;;;;;;;;;;;;;;;;;;;;;;;;;;;;;;;;;;;;;;;;;;;;;;;;;;;;;;"1250";"2014-09-08 09:25:50.447";"ST_correctStop";"8";"1";"FINISHED";"NONE";"success";"0";"1";"2014-09-08 09:25:49.197";"1";;;;;;;;;;;;;;;;;;;;;
"8darragrace";;;"Windows 7";"Rachel's Experiment (D.T.)";"1.0";"2";"1";"1";"2";"1";"1";"2014-09-08 09:18:12.179";"2014-09-08 09:30:51.636";"1";"1";"0";"145";"144";"module.training_block4.exec-2716.GoNoGo4";;;;;;;;;;;;;;;;;;;;;;;;;;;;;;;;;;;;;;;;;;;;;;;;;;;;;;;;;;;"1250";"2014-09-08 09:25:52.988";"ST_correctStop";"26";"1";"FINISHED";"NONE";"success";"0";"1";"2014-09-08 09:25:51.738";"3";;;;;;;;;;;;;;;;;;;;;
"8darragrace";;;"Windows 7";"Rachel's Experiment (D.T.)";"1.0";"2";"1";"1";"2";"1";"1";"2014-09-08 09:18:12.179";"2014-09-08 09:30:51.636";"1";"1";"0";"146";"145";"module.training_block4.exec-2716.GoNoGo4";;;;;;;;;;;;;;;;;;;;;;;;;;;;;;;;;;;;;;;;;;;;;;;;;;;;;;;;;;;"1250";"2014-09-08 09:25:55.527";"NST_correctLoc";"28";"0";"FINISHED";"LEFT";"success";"525";"0";"2014-09-08 09:25:54.277";"3";;;;;;;;;;;;;;;;;;;;;
"8darragrace";;;"Windows 7";"Rachel's Experiment (D.T.)";"1.0";"2";"1";"1";"2";"1";"1";"2014-09-08 09:18:12.179";"2014-09-08 09:30:51.636";"1";"1";"0";"147";"146";"module.training_block4.exec-2716.GoNoGo4";;;;;;;;;;;;;;;;;;;;;;;;;;;;;;;;;;;;;;;;;;;;;;;;;;;;;;;;;;;"1250";"2014-09-08 09:25:58.069";"ST_correctStop";"24";"0";"FINISHED";"NONE";"success";"0";"1";"2014-09-08 09:25:56.819";"3";;;;;;;;;;;;;;;;;;;;;
"8darragrace";;;"Windows 7";"Rachel's Experiment (D.T.)";"1.0";"2";"1";"1";"2";"1";"1";"2014-09-08 09:18:12.179";"2014-09-08 09:30:51.636";"1";"1";"0";"148";"147";"module.training_block4.exec-2716.GoNoGo4";;;;;;;;;;;;;;;;;;;;;;;;;;;;;;;;;;;;;;;;;;;;;;;;;;;;;;;;;;;"1250";"2014-09-08 09:26:00.622";"ST_correctStop";"20";"1";"FINISHED";"NONE";"success";"0";"1";"2014-09-08 09:25:59.372";"3";;;;;;;;;;;;;;;;;;;;;
"8darragrace";;;"Windows 7";"Rachel's Experiment (D.T.)";"1.0";"2";"1";"1";"2";"1";"1";"2014-09-08 09:18:12.179";"2014-09-08 09:30:51.636";"1";"1";"0";"149";"148";"module.training_block4.exec-2716.GoNoGo4";;;;;;;;;;;;;;;;;;;;;;;;;;;;;;;;;;;;;;;;;;;;;;;;;;;;;;;;;;;"1249";"2014-09-08 09:26:03.165";"ST_correctStop";"3";"0";"FINISHED";"NONE";"success";"0";"1";"2014-09-08 09:26:01.915";"1";;;;;;;;;;;;;;;;;;;;;
"8darragrace";;;"Windows 7";"Rachel's Experiment (D.T.)";"1.0";"2";"1";"1";"2";"1";"1";"2014-09-08 09:18:12.179";"2014-09-08 09:30:51.636";"1";"1";"0";"150";"149";"module.training_block4.exec-2716.GoNoGo4";;;;;;;;;;;;;;;;;;;;;;;;;;;;;;;;;;;;;;;;;;;;;;;;;;;;;;;;;;;"1250";"2014-09-08 09:26:05.702";"ST_correctStop";"5";"0";"FINISHED";"NONE";"success";"0";"1";"2014-09-08 09:26:04.452";"1";;;;;;;;;;;;;;;;;;;;;
"8darragrace";;;"Windows 7";"Rachel's Experiment (D.T.)";"1.0";"2";"1";"1";"2";"1";"1";"2014-09-08 09:18:12.179";"2014-09-08 09:30:51.636";"1";"1";"0";"151";"150";"module.training_block4.exec-2716.GoNoGo4";;;;;;;;;;;;;;;;;;;;;;;;;;;;;;;;;;;;;;;;;;;;;;;;;;;;;;;;;;;"1250";"2014-09-08 09:26:08.243";"ST_correctStop";"25";"0";"FINISHED";"NONE";"success";"0";"1";"2014-09-08 09:26:06.993";"3";;;;;;;;;;;;;;;;;;;;;
"8darragrace";;;"Windows 7";"Rachel's Experiment (D.T.)";"1.0";"2";"1";"1";"2";"1";"1";"2014-09-08 09:18:12.179";"2014-09-08 09:30:51.636";"1";"1";"0";"152";"151";"module.training_block4.exec-2716.GoNoGo4";;;;;;;;;;;;;;;;;;;;;;;;;;;;;;;;;;;;;;;;;;;;;;;;;;;;;;;;;;;"1250";"2014-09-08 09:26:10.785";"NST_correctLoc";"21";"1";"FINISHED";"RIGHT";"success";"507";"0";"2014-09-08 09:26:09.535";"3";;;;;;;;;;;;;;;;;;;;;
"8darragrace";;;"Windows 7";"Rachel's Experiment (D.T.)";"1.0";"2";"1";"1";"2";"1";"1";"2014-09-08 09:18:12.179";"2014-09-08 09:30:51.636";"1";"1";"0";"153";"152";"module.training_block4.exec-2716.GoNoGo4";;;;;;;;;;;;;;;;;;;;;;;;;;;;;;;;;;;;;;;;;;;;;;;;;;;;;;;;;;;"1250";"2014-09-08 09:26:13.322";"NST_correctLoc";"22";"1";"FINISHED";"RIGHT";"success";"618";"0";"2014-09-08 09:26:12.072";"3";;;;;;;;;;;;;;;;;;;;;
"8darragrace";;;"Windows 7";"Rachel's Experiment (D.T.)";"1.0";"2";"1";"1";"2";"1";"1";"2014-09-08 09:18:12.179";"2014-09-08 09:30:51.636";"1";"1";"0";"154";"153";"module.training_block4.exec-2716.GoNoGo4";;;;;;;;;;;;;;;;;;;;;;;;;;;;;;;;;;;;;;;;;;;;;;;;;;;;;;;;;;;"1249";"2014-09-08 09:26:15.862";"NST_correctLoc";"9";"1";"FINISHED";"RIGHT";"success";"493";"0";"2014-09-08 09:26:14.612";"2";;;;;;;;;;;;;;;;;;;;;
"8darragrace";;;"Windows 7";"Rachel's Experiment (D.T.)";"1.0";"2";"1";"1";"2";"1";"1";"2014-09-08 09:18:12.179";"2014-09-08 09:30:51.636";"1";"1";"0";"155";"154";"module.training_block4.exec-2716.GoNoGo4";;;;;;;;;;;;;;;;;;;;;;;;;;;;;;;;;;;;;;;;;;;;;;;;;;;;;;;;;;;"1250";"2014-09-08 09:26:18.405";"NST_correctLoc";"11";"1";"FINISHED";"RIGHT";"success";"407";"0";"2014-09-08 09:26:17.155";"2";;;;;;;;;;;;;;;;;;;;;
"8darragrace";;;"Windows 7";"Rachel's Experiment (D.T.)";"1.0";"2";"1";"1";"2";"1";"1";"2014-09-08 09:18:12.179";"2014-09-08 09:30:51.636";"1";"1";"0";"156";"155";"module.training_block4.exec-2716.GoNoGo4";;;;;;;;;;;;;;;;;;;;;;;;;;;;;;;;;;;;;;;;;;;;;;;;;;;;;;;;;;;"1250";"2014-09-08 09:26:20.942";"NST_correctLoc";"12";"0";"FINISHED";"LEFT";"success";"382";"0";"2014-09-08 09:26:19.692";"2";;;;;;;;;;;;;;;;;;;;;
"8darragrace";;;"Windows 7";"Rachel's Experiment (D.T.)";"1.0";"2";"1";"1";"2";"1";"1";"2014-09-08 09:18:12.179";"2014-09-08 09:30:51.636";"1";"1";"0";"157";"156";"module.training_block4.exec-2716.GoNoGo4";;;;;;;;;;;;;;;;;;;;;;;;;;;;;;;;;;;;;;;;;;;;;;;;;;;;;;;;;;;"1250";"2014-09-08 09:26:23.483";"NST_correctLoc";"23";"1";"FINISHED";"RIGHT";"success";"377";"0";"2014-09-08 09:26:22.233";"3";;;;;;;;;;;;;;;;;;;;;
"8darragrace";;;"Windows 7";"Rachel's Experiment (D.T.)";"1.0";"2";"1";"1";"2";"1";"1";"2014-09-08 09:18:12.179";"2014-09-08 09:30:51.636";"1";"1";"0";"158";"157";"module.training_block4.exec-2716.GoNoGo4";;;;;;;;;;;;;;;;;;;;;;;;;;;;;;;;;;;;;;;;;;;;;;;;;;;;;;;;;;;"1250";"2014-09-08 09:26:26.024";"NST_correctLoc";"14";"0";"FINISHED";"LEFT";"success";"292";"0";"2014-09-08 09:26:24.774";"2";;;;;;;;;;;;;;;;;;;;;
"8darragrace";;;"Windows 7";"Rachel's Experiment (D.T.)";"1.0";"2";"1";"1";"2";"1";"1";"2014-09-08 09:18:12.179";"2014-09-08 09:30:51.636";"1";"1";"0";"159";"158";"module.training_block4.exec-2716.GoNoGo4";;;;;;;;;;;;;;;;;;;;;;;;;;;;;;;;;;;;;;;;;;;;;;;;;;;;;;;;;;;"1249";"2014-09-08 09:26:28.568";"ST_failedStop";"35";"0";"FINISHED";"LEFT";"failure";"531";"1";"2014-09-08 09:26:27.318";"3";;;;;;;;;;;;;;;;;;;;;
"8darragrace";;;"Windows 7";"Rachel's Experiment (D.T.)";"1.0";"2";"1";"1";"2";"1";"1";"2014-09-08 09:18:12.179";"2014-09-08 09:30:51.636";"1";"1";"0";"160";"159";"module.devaluation_practice.exec-7027.devalPractice";;;;;;;;;;;;"16125";"2014-09-08 09:27:01.730";"0";"5";"1";"5";"6440";"3441";"3149";"2014-09-08 09:26:45.605";;;;;;;;;;;;;;;;;;;;;;;;;;;;;;;;;;;;;;;;;;;;;;;;;;;;;;;;;;;;;;;;;;;;;;
"8darragrace";;;"Windows 7";"Rachel's Experiment (D.T.)";"1.0";"2";"1";"1";"2";"1";"1";"2014-09-08 09:18:12.179";"2014-09-08 09:30:51.636";"1";"1";"0";"161";"160";"module.devaluation_practice.exec-7027.devalPractice";;;;;;;;;;;;"8638";"2014-09-08 09:27:10.418";"1";"1";"5";"1";"2775";"947";"1897";"2014-09-08 09:27:01.780";;;;;;;;;;;;;;;;;;;;;;;;;;;;;;;;;;;;;;;;;;;;;;;;;;;;;;;;;;;;;;;;;;;;;;
"8darragrace";;;"Windows 7";"Rachel's Experiment (D.T.)";"1.0";"2";"1";"1";"2";"1";"1";"2014-09-08 09:18:12.179";"2014-09-08 09:30:51.636";"1";"1";"0";"162";"161";"module.devaluation_practice.exec-7027.devalPractice";;;;;;;;;;;;"7911";"2014-09-08 09:27:18.370";"2";"5";"1";"5";"2113";"1524";"1254";"2014-09-08 09:27:10.458";;;;;;;;;;;;;;;;;;;;;;;;;;;;;;;;;;;;;;;;;;;;;;;;;;;;;;;;;;;;;;;;;;;;;;
"8darragrace";;;"Windows 7";"Rachel's Experiment (D.T.)";"1.0";"2";"1";"1";"2";"1";"1";"2014-09-08 09:18:12.179";"2014-09-08 09:30:51.636";"1";"1";"0";"163";"162";"module.devaluation_practice.exec-7027.devalPractice";;;;;;;;;;;;"11720";"2014-09-08 09:27:30.130";"3";"5";"1";"6";"2785";"2164";"3753";"2014-09-08 09:27:18.409";;;;;;;;;;;;;;;;;;;;;;;;;;;;;;;;;;;;;;;;;;;;;;;;;;;;;;;;;;;;;;;;;;;;;;
"8darragrace";;;"Windows 7";"Rachel's Experiment (D.T.)";"1.0";"2";"1";"1";"2";"1";"1";"2014-09-08 09:18:12.179";"2014-09-08 09:30:51.636";"1";"1";"0";"164";"163";"module.devaluation_block1.exec-5424.deval1";"10208";"2014-09-08 09:27:44.482";"11";"5";"1";"3";"1813";"2036";"3330";"2014-09-08 09:27:34.274";"2";;;;;;;;;;;;;;;;;;;;;;;;;;;;;;;;;;;;;;;;;;;;;;;;;;;;;;;;;;;;;;;;;;;;;;;;;;;;;;;;
"8darragrace";;;"Windows 7";"Rachel's Experiment (D.T.)";"1.0";"2";"1";"1";"2";"1";"1";"2014-09-08 09:18:12.179";"2014-09-08 09:30:51.636";"1";"1";"0";"165";"164";"module.devaluation_block1.exec-5424.deval1";"9647";"2014-09-08 09:27:54.162";"9";"2";"1";"3";"3557";"1491";"1572";"2014-09-08 09:27:44.515";"2";;;;;;;;;;;;;;;;;;;;;;;;;;;;;;;;;;;;;;;;;;;;;;;;;;;;;;;;;;;;;;;;;;;;;;;;;;;;;;;;
"8darragrace";;;"Windows 7";"Rachel's Experiment (D.T.)";"1.0";"2";"1";"1";"2";"1";"1";"2014-09-08 09:18:12.179";"2014-09-08 09:30:51.636";"1";"1";"0";"166";"165";"module.devaluation_block1.exec-5424.deval1";"8990";"2014-09-08 09:28:03.194";"23";"3";"1";"2";"3095";"1413";"1461";"2014-09-08 09:27:54.204";"3";;;;;;;;;;;;;;;;;;;;;;;;;;;;;;;;;;;;;;;;;;;;;;;;;;;;;;;;;;;;;;;;;;;;;;;;;;;;;;;;
"8darragrace";;;"Windows 7";"Rachel's Experiment (D.T.)";"1.0";"2";"1";"1";"2";"1";"1";"2014-09-08 09:18:12.179";"2014-09-08 09:30:51.636";"1";"1";"0";"167";"166";"module.devaluation_block1.exec-5424.deval1";"7191";"2014-09-08 09:28:10.426";"14";"4";"1";"5";"1456";"1829";"884";"2014-09-08 09:28:03.235";"2";;;;;;;;;;;;;;;;;;;;;;;;;;;;;;;;;;;;;;;;;;;;;;;;;;;;;;;;;;;;;;;;;;;;;;;;;;;;;;;;
"8darragrace";;;"Windows 7";"Rachel's Experiment (D.T.)";"1.0";"2";"1";"1";"2";"1";"1";"2014-09-08 09:18:12.179";"2014-09-08 09:30:51.636";"1";"1";"0";"168";"167";"module.devaluation_block1.exec-5424.deval1";"8381";"2014-09-08 09:28:18.850";"4";"6";"1";"6";"2664";"1373";"1325";"2014-09-08 09:28:10.468";"1";;;;;;;;;;;;;;;;;;;;;;;;;;;;;;;;;;;;;;;;;;;;;;;;;;;;;;;;;;;;;;;;;;;;;;;;;;;;;;;;
"8darragrace";;;"Windows 7";"Rachel's Experiment (D.T.)";"1.0";"2";"1";"1";"2";"1";"1";"2014-09-08 09:18:12.179";"2014-09-08 09:30:51.636";"1";"1";"0";"169";"168";"module.devaluation_block1.exec-5424.deval1";"7678";"2014-09-08 09:28:26.570";"18";"5";"1";"7";"832";"1597";"2229";"2014-09-08 09:28:18.892";"3";;;;;;;;;;;;;;;;;;;;;;;;;;;;;;;;;;;;;;;;;;;;;;;;;;;;;;;;;;;;;;;;;;;;;;;;;;;;;;;;
"8darragrace";;;"Windows 7";"Rachel's Experiment (D.T.)";"1.0";"2";"1";"1";"2";"1";"1";"2014-09-08 09:18:12.179";"2014-09-08 09:30:51.636";"1";"1";"0";"170";"169";"module.devaluation_block1.exec-5424.deval1";"5112";"2014-09-08 09:28:31.730";"1";"5";"5";"3";"242";"493";"1357";"2014-09-08 09:28:26.618";"1";;;;;;;;;;;;;;;;;;;;;;;;;;;;;;;;;;;;;;;;;;;;;;;;;;;;;;;;;;;;;;;;;;;;;;;;;;;;;;;;
"8darragrace";;;"Windows 7";"Rachel's Experiment (D.T.)";"1.0";"2";"1";"1";"2";"1";"1";"2014-09-08 09:18:12.179";"2014-09-08 09:30:51.636";"1";"1";"0";"171";"170";"module.devaluation_block1.exec-5424.deval1";"7479";"2014-09-08 09:28:39.258";"12";"7";"1";"8";"1330";"1190";"1940";"2014-09-08 09:28:31.778";"2";;;;;;;;;;;;;;;;;;;;;;;;;;;;;;;;;;;;;;;;;;;;;;;;;;;;;;;;;;;;;;;;;;;;;;;;;;;;;;;;
"8darragrace";;;"Windows 7";"Rachel's Experiment (D.T.)";"1.0";"2";"1";"1";"2";"1";"1";"2014-09-08 09:18:12.179";"2014-09-08 09:30:51.636";"1";"1";"0";"172";"171";"module.devaluation_block1.exec-5424.deval1";"8469";"2014-09-08 09:28:47.778";"21";"1";"1";"3";"2015";"1613";"1821";"2014-09-08 09:28:39.309";"3";;;;;;;;;;;;;;;;;;;;;;;;;;;;;;;;;;;;;;;;;;;;;;;;;;;;;;;;;;;;;;;;;;;;;;;;;;;;;;;;
"8darragrace";;;"Windows 7";"Rachel's Experiment (D.T.)";"1.0";"2";"1";"1";"2";"1";"1";"2014-09-08 09:18:12.179";"2014-09-08 09:30:51.636";"1";"1";"0";"173";"172";"module.devaluation_block1.exec-5424.deval1";"6710";"2014-09-08 09:28:54.530";"17";"1";"1";"1";"1424";"1141";"1125";"2014-09-08 09:28:47.819";"2";;;;;;;;;;;;;;;;;;;;;;;;;;;;;;;;;;;;;;;;;;;;;;;;;;;;;;;;;;;;;;;;;;;;;;;;;;;;;;;;
"8darragrace";;;"Windows 7";"Rachel's Experiment (D.T.)";"1.0";"2";"1";"1";"2";"1";"1";"2014-09-08 09:18:12.179";"2014-09-08 09:30:51.636";"1";"1";"0";"174";"173";"module.devaluation_block1.exec-5424.deval1";"6909";"2014-09-08 09:29:01.490";"22";"2";"1";"1";"1416";"1177";"1301";"2014-09-08 09:28:54.580";"3";;;;;;;;;;;;;;;;;;;;;;;;;;;;;;;;;;;;;;;;;;;;;;;;;;;;;;;;;;;;;;;;;;;;;;;;;;;;;;;;
"8darragrace";;;"Windows 7";"Rachel's Experiment (D.T.)";"1.0";"2";"1";"1";"2";"1";"1";"2014-09-08 09:18:12.179";"2014-09-08 09:30:51.636";"1";"1";"0";"175";"174";"module.devaluation_block1.exec-5424.deval1";"6629";"2014-09-08 09:29:08.170";"25";"4";"1";"4";"1359";"1116";"1133";"2014-09-08 09:29:01.541";"3";;;;;;;;;;;;;;;;;;;;;;;;;;;;;;;;;;;;;;;;;;;;;;;;;;;;;;;;;;;;;;;;;;;;;;;;;;;;;;;;
"8darragrace";;;"Windows 7";"Rachel's Experiment (D.T.)";"1.0";"2";"1";"1";"2";"1";"1";"2014-09-08 09:18:12.179";"2014-09-08 09:30:51.636";"1";"1";"0";"176";"175";"module.devaluation_block1.exec-5424.deval1";"10006";"2014-09-08 09:29:18.218";"5";"8";"3";"8";"1824";"2341";"2821";"2014-09-08 09:29:08.212";"1";;;;;;;;;;;;;;;;;;;;;;;;;;;;;;;;;;;;;;;;;;;;;;;;;;;;;;;;;;;;;;;;;;;;;;;;;;;;;;;;
"8darragrace";;;"Windows 7";"Rachel's Experiment (D.T.)";"1.0";"2";"1";"1";"2";"1";"1";"2014-09-08 09:18:12.179";"2014-09-08 09:30:51.636";"1";"1";"0";"177";"176";"module.devaluation_block1.exec-5424.deval1";"6922";"2014-09-08 09:29:25.186";"16";"1";"1";"1";"1509";"1141";"1253";"2014-09-08 09:29:18.263";"2";;;;;;;;;;;;;;;;;;;;;;;;;;;;;;;;;;;;;;;;;;;;;;;;;;;;;;;;;;;;;;;;;;;;;;;;;;;;;;;;
"8darragrace";;;"Windows 7";"Rachel's Experiment (D.T.)";"1.0";"2";"1";"1";"2";"1";"1";"2014-09-08 09:18:12.179";"2014-09-08 09:30:51.636";"1";"1";"0";"178";"177";"module.devaluation_block1.exec-5424.deval1";"5932";"2014-09-08 09:29:31.170";"19";"3";"1";"3";"872";"1069";"974";"2014-09-08 09:29:25.237";"3";;;;;;;;;;;;;;;;;;;;;;;;;;;;;;;;;;;;;;;;;;;;;;;;;;;;;;;;;;;;;;;;;;;;;;;;;;;;;;;;
"8darragrace";;;"Windows 7";"Rachel's Experiment (D.T.)";"1.0";"2";"1";"1";"2";"1";"1";"2014-09-08 09:18:12.179";"2014-09-08 09:30:51.636";"1";"1";"0";"179";"178";"module.devaluation_block1.exec-5424.deval1";"5706";"2014-09-08 09:29:36.898";"15";"1";"1";"1";"1096";"798";"798";"2014-09-08 09:29:31.191";"2";;;;;;;;;;;;;;;;;;;;;;;;;;;;;;;;;;;;;;;;;;;;;;;;;;;;;;;;;;;;;;;;;;;;;;;;;;;;;;;;
"8darragrace";;;"Windows 7";"Rachel's Experiment (D.T.)";"1.0";"2";"1";"1";"2";"1";"1";"2014-09-08 09:18:12.179";"2014-09-08 09:30:51.636";"1";"1";"0";"180";"179";"module.devaluation_block1.exec-5424.deval1";"7080";"2014-09-08 09:29:44.026";"2";"3";"1";"3";"1052";"862";"2150";"2014-09-08 09:29:36.945";"1";;;;;;;;;;;;;;;;;;;;;;;;;;;;;;;;;;;;;;;;;;;;;;;;;;;;;;;;;;;;;;;;;;;;;;;;;;;;;;;;
"8darragrace";;;"Windows 7";"Rachel's Experiment (D.T.)";"1.0";"2";"1";"1";"2";"1";"1";"2014-09-08 09:18:12.179";"2014-09-08 09:30:51.636";"1";"1";"0";"181";"180";"module.devaluation_block1.exec-5424.deval1";"5685";"2014-09-08 09:29:49.762";"6";"3";"1";"3";"908";"821";"942";"2014-09-08 09:29:44.076";"1";;;;;;;;;;;;;;;;;;;;;;;;;;;;;;;;;;;;;;;;;;;;;;;;;;;;;;;;;;;;;;;;;;;;;;;;;;;;;;;;
"8darragrace";;;"Windows 7";"Rachel's Experiment (D.T.)";"1.0";"2";"1";"1";"2";"1";"1";"2014-09-08 09:18:12.179";"2014-09-08 09:30:51.636";"1";"1";"0";"182";"181";"module.devaluation_block1.exec-5424.deval1";"6372";"2014-09-08 09:29:56.186";"3";"5";"1";"6";"1536";"1142";"678";"2014-09-08 09:29:49.813";"1";;;;;;;;;;;;;;;;;;;;;;;;;;;;;;;;;;;;;;;;;;;;;;;;;;;;;;;;;;;;;;;;;;;;;;;;;;;;;;;;
"8darragrace";;;"Windows 7";"Rachel's Experiment (D.T.)";"1.0";"2";"1";"1";"2";"1";"1";"2014-09-08 09:18:12.179";"2014-09-08 09:30:51.636";"1";"1";"0";"183";"182";"module.devaluation_block1.exec-5424.deval1";"6943";"2014-09-08 09:30:03.178";"20";"4";"1";"1";"994";"1398";"1534";"2014-09-08 09:29:56.234";"3";;;;;;;;;;;;;;;;;;;;;;;;;;;;;;;;;;;;;;;;;;;;;;;;;;;;;;;;;;;;;;;;;;;;;;;;;;;;;;;;
"8darragrace";;;"Windows 7";"Rachel's Experiment (D.T.)";"1.0";"2";"1";"1";"2";"1";"1";"2014-09-08 09:18:12.179";"2014-09-08 09:30:51.636";"1";"1";"0";"184";"183";"module.devaluation_block1.exec-5424.deval1";"6064";"2014-09-08 09:30:09.290";"7";"3";"1";"1";"1299";"782";"969";"2014-09-08 09:30:03.226";"1";;;;;;;;;;;;;;;;;;;;;;;;;;;;;;;;;;;;;;;;;;;;;;;;;;;;;;;;;;;;;;;;;;;;;;;;;;;;;;;;
"8darragrace";;;"Windows 7";"Rachel's Experiment (D.T.)";"1.0";"2";"1";"1";"2";"1";"1";"2014-09-08 09:18:12.179";"2014-09-08 09:30:51.636";"1";"1";"0";"185";"184";"module.devaluation_block1.exec-5424.deval1";"6465";"2014-09-08 09:30:15.794";"13";"5";"1";"5";"1341";"1062";"1046";"2014-09-08 09:30:09.328";"2";;;;;;;;;;;;;;;;;;;;;;;;;;;;;;;;;;;;;;;;;;;;;;;;;;;;;;;;;;;;;;;;;;;;;;;;;;;;;;;;
"8darragrace";;;"Windows 7";"Rachel's Experiment (D.T.)";"1.0";"2";"1";"1";"2";"1";"1";"2014-09-08 09:18:12.179";"2014-09-08 09:30:51.636";"1";"1";"0";"186";"185";"module.devaluation_block1.exec-5424.deval1";"6115";"2014-09-08 09:30:21.962";"24";"4";"1";"4";"1148";"909";"1038";"2014-09-08 09:30:15.846";"3";;;;;;;;;;;;;;;;;;;;;;;;;;;;;;;;;;;;;;;;;;;;;;;;;;;;;;;;;;;;;;;;;;;;;;;;;;;;;;;;
"8darragrace";;;"Windows 7";"Rachel's Experiment (D.T.)";"1.0";"2";"1";"1";"2";"1";"1";"2014-09-08 09:18:12.179";"2014-09-08 09:30:51.636";"1";"1";"0";"187";"186";"module.devaluation_block1.exec-5424.deval1";"6736";"2014-09-08 09:30:28.746";"26";"6";"1";"5";"1252";"2109";"357";"2014-09-08 09:30:22.009";"3";;;;;;;;;;;;;;;;;;;;;;;;;;;;;;;;;;;;;;;;;;;;;;;;;;;;;;;;;;;;;;;;;;;;;;;;;;;;;;;;
"8darragrace";;;"Windows 7";"Rachel's Experiment (D.T.)";"1.0";"2";"1";"1";"2";"1";"1";"2014-09-08 09:18:12.179";"2014-09-08 09:30:51.636";"1";"1";"0";"188";"187";"module.devaluation_block1.exec-5424.deval1";"6340";"2014-09-08 09:30:35.130";"0";"3";"1";"1";"1007";"1366";"950";"2014-09-08 09:30:28.789";"1";;;;;;;;;;;;;;;;;;;;;;;;;;;;;;;;;;;;;;;;;;;;;;;;;;;;;;;;;;;;;;;;;;;;;;;;;;;;;;;;
"8darragrace";;;"Windows 7";"Rachel's Experiment (D.T.)";"1.0";"2";"1";"1";"2";"1";"1";"2014-09-08 09:18:12.179";"2014-09-08 09:30:51.636";"1";"1";"0";"189";"188";"module.devaluation_block1.exec-5424.deval1";"8082";"2014-09-08 09:30:43.258";"8";"3";"1";"4";"3413";"854";"798";"2014-09-08 09:30:35.176";"1";;;;;;;;;;;;;;;;;;;;;;;;;;;;;;;;;;;;;;;;;;;;;;;;;;;;;;;;;;;;;;;;;;;;;;;;;;;;;;;;
"8darragrace";;;"Windows 7";"Rachel's Experiment (D.T.)";"1.0";"2";"1";"1";"2";"1";"1";"2014-09-08 09:18:12.179";"2014-09-08 09:30:51.636";"1";"1";"0";"190";"189";"module.devaluation_block1.exec-5424.deval1";"6554";"2014-09-08 09:30:49.858";"10";"5";"1";"5";"821";"1522";"1190";"2014-09-08 09:30:43.304";"2";;;;;;;;;;;;;;;;;;;;;;;;;;;;;;;;;;;;;;;;;;;;;;;;;;;;;;;;;;;;;;;;;;;;;;;;;;;;;;;;
