"user.name";"user.yearOfBirth";"user.sex";"user.osName";"module.name";"module.version";"module.online.subject.code";"module.online.study.id";"module.online.module.nr";"module.online.group.nr";"session.id";"session.index";"session.startTime";"session.endTime";"session.completed";"session.node-5473.conditionType";"session.node-6741.DevalQorder";"trial.id";"trial.index";"trial.name";"trial.deval1.durationTime";"trial.deval1.endTime";"trial.deval1.icon";"trial.deval1.Resp_Attractive";"trial.deval1.Resp_Eat";"trial.deval1.Resp_Taste";"trial.deval1.RT_Attractive";"trial.deval1.RT_Eat";"trial.deval1.RT_Taste";"trial.deval1.startTime";"trial.deval1.stimulus type";"trial.devalPractice.durationTime";"trial.devalPractice.endTime";"trial.devalPractice.icon";"trial.devalPractice.Resp_Attractive";"trial.devalPractice.Resp_Eat";"trial.devalPractice.Resp_Taste";"trial.devalPractice.RT_Attractive";"trial.devalPractice.RT_Eat";"trial.devalPractice.RT_Taste";"trial.devalPractice.startTime";"trial.devalPractice.stimulus type";"trial.GoNoGo1.durationTime";"trial.GoNoGo1.endTime";"trial.GoNoGo1.Error Type";"trial.GoNoGo1.icon";"trial.GoNoGo1.location";"trial.GoNoGo1.outcome";"trial.GoNoGo1.response";"trial.GoNoGo1.result";"trial.GoNoGo1.RT";"trial.GoNoGo1.signal";"trial.GoNoGo1.startTime";"trial.GoNoGo1.stimulus type";"trial.GoNoGo2.durationTime";"trial.GoNoGo2.endTime";"trial.GoNoGo2.Error Type";"trial.GoNoGo2.icon";"trial.GoNoGo2.location";"trial.GoNoGo2.outcome";"trial.GoNoGo2.response";"trial.GoNoGo2.result";"trial.GoNoGo2.RT";"trial.GoNoGo2.signal";"trial.GoNoGo2.startTime";"trial.GoNoGo2.stimulus type";"trial.GoNoGo3.durationTime";"trial.GoNoGo3.endTime";"trial.GoNoGo3.Error Type";"trial.GoNoGo3.icon";"trial.GoNoGo3.location";"trial.GoNoGo3.outcome";"trial.GoNoGo3.response";"trial.GoNoGo3.result";"trial.GoNoGo3.RT";"trial.GoNoGo3.signal";"trial.GoNoGo3.startTime";"trial.GoNoGo3.stimulus type";"trial.GoNoGo4.durationTime";"trial.GoNoGo4.endTime";"trial.GoNoGo4.Error Type";"trial.GoNoGo4.icon";"trial.GoNoGo4.location";"trial.GoNoGo4.outcome";"trial.GoNoGo4.response";"trial.GoNoGo4.result";"trial.GoNoGo4.RT";"trial.GoNoGo4.signal";"trial.GoNoGo4.startTime";"trial.GoNoGo4.stimulus type";"trial.GoNoGo_Practice.durationTime";"trial.GoNoGo_Practice.endTime";"trial.GoNoGo_Practice.icon";"trial.GoNoGo_Practice.location";"trial.GoNoGo_Practice.outcome";"trial.GoNoGo_Practice.response";"trial.GoNoGo_Practice.result";"trial.GoNoGo_Practice.RT";"trial.GoNoGo_Practice.signal";"trial.GoNoGo_Practice.startTime";"trial.GoNoGo_Practice.stimulus type";"trial.GoNoGo_Tutorial.durationTime";"trial.GoNoGo_Tutorial.endTime";"trial.GoNoGo_Tutorial.icon";"trial.GoNoGo_Tutorial.location";"trial.GoNoGo_Tutorial.outcome";"trial.GoNoGo_Tutorial.response";"trial.GoNoGo_Tutorial.result";"trial.GoNoGo_Tutorial.RT";"trial.GoNoGo_Tutorial.signal";"trial.GoNoGo_Tutorial.startTime"
"ljcw1";"1996";;"Windows 7";"Rachel's Experiment (D.T.)";"1.0";"2";"1";"1";"2";"1";"1";"2014-10-07 09:18:43.484";"2014-10-07 09:33:52.092";"1";"0";"0";"1";"0";"module.GoNoGotutorial.exec-3586.GoNoGo_Tutorial";;;;;;;;;;;;;;;;;;;;;;;;;;;;;;;;;;;;;;;;;;;;;;;;;;;;;;;;;;;;;;;;;;;;;;;;;;;;;;;;;;"3996";"2014-10-07 09:19:48.599";"leftResponse";"0";"FINISHED";"LEFT";"success";"2116";"0";"2014-10-07 09:19:44.590"
"ljcw1";"1996";;"Windows 7";"Rachel's Experiment (D.T.)";"1.0";"2";"1";"1";"2";"1";"1";"2014-10-07 09:18:43.484";"2014-10-07 09:33:52.092";"1";"0";"0";"2";"1";"module.GoNoGotutorial.exec-3586.GoNoGo_Tutorial";;;;;;;;;;;;;;;;;;;;;;;;;;;;;;;;;;;;;;;;;;;;;;;;;;;;;;;;;;;;;;;;;;;;;;;;;;;;;;;;;;"4003";"2014-10-07 09:19:53.903";"rightResponse";"1";"FINISHED";"NONE";"failure";"0";"0";"2014-10-07 09:19:49.894"
"ljcw1";"1996";;"Windows 7";"Rachel's Experiment (D.T.)";"1.0";"2";"1";"1";"2";"1";"1";"2014-10-07 09:18:43.484";"2014-10-07 09:33:52.092";"1";"0";"0";"3";"2";"module.GoNoGotutorial.exec-3586.GoNoGo_Tutorial";;;;;;;;;;;;;;;;;;;;;;;;;;;;;;;;;;;;;;;;;;;;;;;;;;;;;;;;;;;;;;;;;;;;;;;;;;;;;;;;;;"4003";"2014-10-07 09:19:59.207";"quickResponse";"0";"FINISHED";"NONE";"failure";"0";"0";"2014-10-07 09:19:55.198"
"ljcw1";"1996";;"Windows 7";"Rachel's Experiment (D.T.)";"1.0";"2";"1";"1";"2";"1";"1";"2014-10-07 09:18:43.484";"2014-10-07 09:33:52.092";"1";"0";"0";"4";"3";"module.GoNoGopractice.exec-9683.GoNoGo_Practice";;;;;;;;;;;;;;;;;;;;;;;;;;;;;;;;;;;;;;;;;;;;;;;;;;;;;;;;;;;;;;;;;;;;;;;"1959";"2014-10-07 09:20:07.132";"18";"0";"FINISHED";"LEFT";"success";"346";"0";"2014-10-07 09:20:05.166";"3";;;;;;;;;;
"ljcw1";"1996";;"Windows 7";"Rachel's Experiment (D.T.)";"1.0";"2";"1";"1";"2";"1";"1";"2014-10-07 09:18:43.484";"2014-10-07 09:33:52.092";"1";"0";"0";"5";"4";"module.GoNoGopractice.exec-9683.GoNoGo_Practice";;;;;;;;;;;;;;;;;;;;;;;;;;;;;;;;;;;;;;;;;;;;;;;;;;;;;;;;;;;;;;;;;;;;;;;"1959";"2014-10-07 09:20:10.377";"21";"1";"FINISHED";"RIGHT";"success";"286";"0";"2014-10-07 09:20:08.411";"3";;;;;;;;;;
"ljcw1";"1996";;"Windows 7";"Rachel's Experiment (D.T.)";"1.0";"2";"1";"1";"2";"1";"1";"2014-10-07 09:18:43.484";"2014-10-07 09:33:52.092";"1";"0";"0";"6";"5";"module.GoNoGopractice.exec-9683.GoNoGo_Practice";;;;;;;;;;;;;;;;;;;;;;;;;;;;;;;;;;;;;;;;;;;;;;;;;;;;;;;;;;;;;;;;;;;;;;;"1958";"2014-10-07 09:20:13.621";"14";"1";"FINISHED";"RIGHT";"success";"528";"0";"2014-10-07 09:20:11.656";"2";;;;;;;;;;
"ljcw1";"1996";;"Windows 7";"Rachel's Experiment (D.T.)";"1.0";"2";"1";"1";"2";"1";"1";"2014-10-07 09:18:43.484";"2014-10-07 09:33:52.092";"1";"0";"0";"7";"6";"module.GoNoGopractice.exec-9683.GoNoGo_Practice";;;;;;;;;;;;;;;;;;;;;;;;;;;;;;;;;;;;;;;;;;;;;;;;;;;;;;;;;;;;;;;;;;;;;;;"1959";"2014-10-07 09:20:16.866";"26";"0";"FINISHED";"LEFT";"success";"316";"0";"2014-10-07 09:20:14.901";"3";;;;;;;;;;
"ljcw1";"1996";;"Windows 7";"Rachel's Experiment (D.T.)";"1.0";"2";"1";"1";"2";"1";"1";"2014-10-07 09:18:43.484";"2014-10-07 09:33:52.092";"1";"0";"0";"8";"7";"module.GoNoGopractice.exec-9683.GoNoGo_Practice";;;;;;;;;;;;;;;;;;;;;;;;;;;;;;;;;;;;;;;;;;;;;;;;;;;;;;;;;;;;;;;;;;;;;;;"1959";"2014-10-07 09:20:20.111";"2";"0";"FINISHED";"LEFT";"success";"384";"0";"2014-10-07 09:20:18.145";"1";;;;;;;;;;
"ljcw1";"1996";;"Windows 7";"Rachel's Experiment (D.T.)";"1.0";"2";"1";"1";"2";"1";"1";"2014-10-07 09:18:43.484";"2014-10-07 09:33:52.092";"1";"0";"0";"9";"8";"module.GoNoGopractice.exec-9683.GoNoGo_Practice";;;;;;;;;;;;;;;;;;;;;;;;;;;;;;;;;;;;;;;;;;;;;;;;;;;;;;;;;;;;;;;;;;;;;;;"1960";"2014-10-07 09:20:23.356";"30";"0";"FINISHED";"LEFT";"success";"443";"0";"2014-10-07 09:20:21.390";"3";;;;;;;;;;
"ljcw1";"1996";;"Windows 7";"Rachel's Experiment (D.T.)";"1.0";"2";"1";"1";"2";"1";"1";"2014-10-07 09:18:43.484";"2014-10-07 09:33:52.092";"1";"0";"0";"10";"9";"module.GoNoGopractice.exec-9683.GoNoGo_Practice";;;;;;;;;;;;;;;;;;;;;;;;;;;;;;;;;;;;;;;;;;;;;;;;;;;;;;;;;;;;;;;;;;;;;;;"1959";"2014-10-07 09:20:26.616";"6";"1";"FINISHED";"RIGHT";"success";"302";"0";"2014-10-07 09:20:24.651";"1";;;;;;;;;;
"ljcw1";"1996";;"Windows 7";"Rachel's Experiment (D.T.)";"1.0";"2";"1";"1";"2";"1";"1";"2014-10-07 09:18:43.484";"2014-10-07 09:33:52.092";"1";"0";"0";"11";"10";"module.GoNoGopractice.exec-9683.GoNoGo_Practice";;;;;;;;;;;;;;;;;;;;;;;;;;;;;;;;;;;;;;;;;;;;;;;;;;;;;;;;;;;;;;;;;;;;;;;"1960";"2014-10-07 09:20:29.861";"34";"0";"FINISHED";"LEFT";"success";"274";"0";"2014-10-07 09:20:27.895";"3";;;;;;;;;;
"ljcw1";"1996";;"Windows 7";"Rachel's Experiment (D.T.)";"1.0";"2";"1";"1";"2";"1";"1";"2014-10-07 09:18:43.484";"2014-10-07 09:33:52.092";"1";"0";"0";"12";"11";"module.GoNoGopractice.exec-9683.GoNoGo_Practice";;;;;;;;;;;;;;;;;;;;;;;;;;;;;;;;;;;;;;;;;;;;;;;;;;;;;;;;;;;;;;;;;;;;;;;"1959";"2014-10-07 09:20:33.106";"23";"1";"FINISHED";"RIGHT";"success";"357";"0";"2014-10-07 09:20:31.140";"3";;;;;;;;;;
"ljcw1";"1996";;"Windows 7";"Rachel's Experiment (D.T.)";"1.0";"2";"1";"1";"2";"1";"1";"2014-10-07 09:18:43.484";"2014-10-07 09:33:52.092";"1";"0";"0";"13";"12";"module.GoNoGopractice.exec-9683.GoNoGo_Practice";;;;;;;;;;;;;;;;;;;;;;;;;;;;;;;;;;;;;;;;;;;;;;;;;;;;;;;;;;;;;;;;;;;;;;;"1959";"2014-10-07 09:20:36.351";"13";"0";"FINISHED";"LEFT";"success";"480";"0";"2014-10-07 09:20:34.385";"2";;;;;;;;;;
"ljcw1";"1996";;"Windows 7";"Rachel's Experiment (D.T.)";"1.0";"2";"1";"1";"2";"1";"1";"2014-10-07 09:18:43.484";"2014-10-07 09:33:52.092";"1";"0";"0";"14";"13";"module.GoNoGopractice.exec-9683.GoNoGo_Practice";;;;;;;;;;;;;;;;;;;;;;;;;;;;;;;;;;;;;;;;;;;;;;;;;;;;;;;;;;;;;;;;;;;;;;;"1960";"2014-10-07 09:20:39.595";"3";"1";"FINISHED";"RIGHT";"success";"316";"0";"2014-10-07 09:20:37.630";"1";;;;;;;;;;
"ljcw1";"1996";;"Windows 7";"Rachel's Experiment (D.T.)";"1.0";"2";"1";"1";"2";"1";"1";"2014-10-07 09:18:43.484";"2014-10-07 09:33:52.092";"1";"0";"0";"15";"14";"module.GoNoGopractice.exec-9683.GoNoGo_Practice";;;;;;;;;;;;;;;;;;;;;;;;;;;;;;;;;;;;;;;;;;;;;;;;;;;;;;;;;;;;;;;;;;;;;;;"1959";"2014-10-07 09:20:42.840";"27";"1";"FINISHED";"RIGHT";"success";"566";"0";"2014-10-07 09:20:40.875";"3";;;;;;;;;;
"ljcw1";"1996";;"Windows 7";"Rachel's Experiment (D.T.)";"1.0";"2";"1";"1";"2";"1";"1";"2014-10-07 09:18:43.484";"2014-10-07 09:33:52.092";"1";"0";"0";"16";"15";"module.training_block1.exec-1244.GoNoGo1";;;;;;;;;;;;;;;;;;;;;;;"1257";"2014-10-07 09:20:51.857";"NST_correctLoc";"28";"0";"FINISHED";"LEFT";"success";"502";"0";"2014-10-07 09:20:50.593";"3";;;;;;;;;;;;;;;;;;;;;;;;;;;;;;;;;;;;;;;;;;;;;;;;;;;;;;;;;
"ljcw1";"1996";;"Windows 7";"Rachel's Experiment (D.T.)";"1.0";"2";"1";"1";"2";"1";"1";"2014-10-07 09:18:43.484";"2014-10-07 09:33:52.092";"1";"0";"0";"17";"16";"module.training_block1.exec-1244.GoNoGo1";;;;;;;;;;;;;;;;;;;;;;;"1257";"2014-10-07 09:20:54.400";"NST_correctLoc";"32";"0";"FINISHED";"LEFT";"success";"384";"0";"2014-10-07 09:20:53.136";"3";;;;;;;;;;;;;;;;;;;;;;;;;;;;;;;;;;;;;;;;;;;;;;;;;;;;;;;;;
"ljcw1";"1996";;"Windows 7";"Rachel's Experiment (D.T.)";"1.0";"2";"1";"1";"2";"1";"1";"2014-10-07 09:18:43.484";"2014-10-07 09:33:52.092";"1";"0";"0";"18";"17";"module.training_block1.exec-1244.GoNoGo1";;;;;;;;;;;;;;;;;;;;;;;"1261";"2014-10-07 09:20:56.943";"NST_correctLoc";"6";"0";"FINISHED";"LEFT";"success";"453";"0";"2014-10-07 09:20:55.679";"1";;;;;;;;;;;;;;;;;;;;;;;;;;;;;;;;;;;;;;;;;;;;;;;;;;;;;;;;;
"ljcw1";"1996";;"Windows 7";"Rachel's Experiment (D.T.)";"1.0";"2";"1";"1";"2";"1";"1";"2014-10-07 09:18:43.484";"2014-10-07 09:33:52.092";"1";"0";"0";"19";"18";"module.training_block1.exec-1244.GoNoGo1";;;;;;;;;;;;;;;;;;;;;;;"1257";"2014-10-07 09:20:59.485";"NST_correctLoc";"9";"1";"FINISHED";"RIGHT";"success";"395";"0";"2014-10-07 09:20:58.222";"2";;;;;;;;;;;;;;;;;;;;;;;;;;;;;;;;;;;;;;;;;;;;;;;;;;;;;;;;;
"ljcw1";"1996";;"Windows 7";"Rachel's Experiment (D.T.)";"1.0";"2";"1";"1";"2";"1";"1";"2014-10-07 09:18:43.484";"2014-10-07 09:33:52.092";"1";"0";"0";"20";"19";"module.training_block1.exec-1244.GoNoGo1";;;;;;;;;;;;;;;;;;;;;;;"1257";"2014-10-07 09:21:02.028";"NST_correctLoc";"8";"0";"FINISHED";"LEFT";"success";"396";"0";"2014-10-07 09:21:00.765";"1";;;;;;;;;;;;;;;;;;;;;;;;;;;;;;;;;;;;;;;;;;;;;;;;;;;;;;;;;
"ljcw1";"1996";;"Windows 7";"Rachel's Experiment (D.T.)";"1.0";"2";"1";"1";"2";"1";"1";"2014-10-07 09:18:43.484";"2014-10-07 09:33:52.092";"1";"0";"0";"21";"20";"module.training_block1.exec-1244.GoNoGo1";;;;;;;;;;;;;;;;;;;;;;;"1261";"2014-10-07 09:21:04.571";"NST_correctLoc";"2";"1";"FINISHED";"RIGHT";"success";"361";"0";"2014-10-07 09:21:03.307";"1";;;;;;;;;;;;;;;;;;;;;;;;;;;;;;;;;;;;;;;;;;;;;;;;;;;;;;;;;
"ljcw1";"1996";;"Windows 7";"Rachel's Experiment (D.T.)";"1.0";"2";"1";"1";"2";"1";"1";"2014-10-07 09:18:43.484";"2014-10-07 09:33:52.092";"1";"0";"0";"22";"21";"module.training_block1.exec-1244.GoNoGo1";;;;;;;;;;;;;;;;;;;;;;;"1261";"2014-10-07 09:21:07.114";"NST_correctLoc";"14";"1";"FINISHED";"RIGHT";"success";"402";"0";"2014-10-07 09:21:05.850";"2";;;;;;;;;;;;;;;;;;;;;;;;;;;;;;;;;;;;;;;;;;;;;;;;;;;;;;;;;
"ljcw1";"1996";;"Windows 7";"Rachel's Experiment (D.T.)";"1.0";"2";"1";"1";"2";"1";"1";"2014-10-07 09:18:43.484";"2014-10-07 09:33:52.092";"1";"0";"0";"23";"22";"module.training_block1.exec-1244.GoNoGo1";;;;;;;;;;;;;;;;;;;;;;;"1261";"2014-10-07 09:21:09.657";"NST_correctLoc";"18";"1";"FINISHED";"RIGHT";"success";"443";"0";"2014-10-07 09:21:08.393";"3";;;;;;;;;;;;;;;;;;;;;;;;;;;;;;;;;;;;;;;;;;;;;;;;;;;;;;;;;
"ljcw1";"1996";;"Windows 7";"Rachel's Experiment (D.T.)";"1.0";"2";"1";"1";"2";"1";"1";"2014-10-07 09:18:43.484";"2014-10-07 09:33:52.092";"1";"0";"0";"24";"23";"module.training_block1.exec-1244.GoNoGo1";;;;;;;;;;;;;;;;;;;;;;;"1257";"2014-10-07 09:21:12.199";"NST_correctLoc";"16";"1";"FINISHED";"RIGHT";"success";"449";"0";"2014-10-07 09:21:10.936";"2";;;;;;;;;;;;;;;;;;;;;;;;;;;;;;;;;;;;;;;;;;;;;;;;;;;;;;;;;
"ljcw1";"1996";;"Windows 7";"Rachel's Experiment (D.T.)";"1.0";"2";"1";"1";"2";"1";"1";"2014-10-07 09:18:43.484";"2014-10-07 09:33:52.092";"1";"0";"0";"25";"24";"module.training_block1.exec-1244.GoNoGo1";;;;;;;;;;;;;;;;;;;;;;;"1257";"2014-10-07 09:21:14.742";"NST_correctLoc";"12";"1";"FINISHED";"RIGHT";"success";"402";"0";"2014-10-07 09:21:13.479";"2";;;;;;;;;;;;;;;;;;;;;;;;;;;;;;;;;;;;;;;;;;;;;;;;;;;;;;;;;
"ljcw1";"1996";;"Windows 7";"Rachel's Experiment (D.T.)";"1.0";"2";"1";"1";"2";"1";"1";"2014-10-07 09:18:43.484";"2014-10-07 09:33:52.092";"1";"0";"0";"26";"25";"module.training_block1.exec-1244.GoNoGo1";;;;;;;;;;;;;;;;;;;;;;;"1261";"2014-10-07 09:21:17.285";"NST_correctLoc";"13";"1";"FINISHED";"RIGHT";"success";"439";"0";"2014-10-07 09:21:16.021";"2";;;;;;;;;;;;;;;;;;;;;;;;;;;;;;;;;;;;;;;;;;;;;;;;;;;;;;;;;
"ljcw1";"1996";;"Windows 7";"Rachel's Experiment (D.T.)";"1.0";"2";"1";"1";"2";"1";"1";"2014-10-07 09:18:43.484";"2014-10-07 09:33:52.092";"1";"0";"0";"27";"26";"module.training_block1.exec-1244.GoNoGo1";;;;;;;;;;;;;;;;;;;;;;;"1257";"2014-10-07 09:21:19.828";"NST_correctLoc";"22";"0";"FINISHED";"LEFT";"success";"444";"0";"2014-10-07 09:21:18.564";"3";;;;;;;;;;;;;;;;;;;;;;;;;;;;;;;;;;;;;;;;;;;;;;;;;;;;;;;;;
"ljcw1";"1996";;"Windows 7";"Rachel's Experiment (D.T.)";"1.0";"2";"1";"1";"2";"1";"1";"2014-10-07 09:18:43.484";"2014-10-07 09:33:52.092";"1";"0";"0";"28";"27";"module.training_block1.exec-1244.GoNoGo1";;;;;;;;;;;;;;;;;;;;;;;"1257";"2014-10-07 09:21:22.371";"NST_correctLoc";"31";"1";"FINISHED";"RIGHT";"success";"389";"0";"2014-10-07 09:21:21.107";"3";;;;;;;;;;;;;;;;;;;;;;;;;;;;;;;;;;;;;;;;;;;;;;;;;;;;;;;;;
"ljcw1";"1996";;"Windows 7";"Rachel's Experiment (D.T.)";"1.0";"2";"1";"1";"2";"1";"1";"2014-10-07 09:18:43.484";"2014-10-07 09:33:52.092";"1";"0";"0";"29";"28";"module.training_block1.exec-1244.GoNoGo1";;;;;;;;;;;;;;;;;;;;;;;"1261";"2014-10-07 09:21:24.913";"NST_correctLoc";"26";"1";"FINISHED";"RIGHT";"success";"410";"0";"2014-10-07 09:21:23.650";"3";;;;;;;;;;;;;;;;;;;;;;;;;;;;;;;;;;;;;;;;;;;;;;;;;;;;;;;;;
"ljcw1";"1996";;"Windows 7";"Rachel's Experiment (D.T.)";"1.0";"2";"1";"1";"2";"1";"1";"2014-10-07 09:18:43.484";"2014-10-07 09:33:52.092";"1";"0";"0";"30";"29";"module.training_block1.exec-1244.GoNoGo1";;;;;;;;;;;;;;;;;;;;;;;"1258";"2014-10-07 09:21:27.456";"NST_correctLoc";"33";"1";"FINISHED";"RIGHT";"success";"376";"0";"2014-10-07 09:21:26.193";"3";;;;;;;;;;;;;;;;;;;;;;;;;;;;;;;;;;;;;;;;;;;;;;;;;;;;;;;;;
"ljcw1";"1996";;"Windows 7";"Rachel's Experiment (D.T.)";"1.0";"2";"1";"1";"2";"1";"1";"2014-10-07 09:18:43.484";"2014-10-07 09:33:52.092";"1";"0";"0";"31";"30";"module.training_block1.exec-1244.GoNoGo1";;;;;;;;;;;;;;;;;;;;;;;"1258";"2014-10-07 09:21:29.999";"NST_correctLoc";"35";"0";"FINISHED";"LEFT";"success";"402";"0";"2014-10-07 09:21:28.735";"3";;;;;;;;;;;;;;;;;;;;;;;;;;;;;;;;;;;;;;;;;;;;;;;;;;;;;;;;;
"ljcw1";"1996";;"Windows 7";"Rachel's Experiment (D.T.)";"1.0";"2";"1";"1";"2";"1";"1";"2014-10-07 09:18:43.484";"2014-10-07 09:33:52.092";"1";"0";"0";"32";"31";"module.training_block1.exec-1244.GoNoGo1";;;;;;;;;;;;;;;;;;;;;;;"1257";"2014-10-07 09:21:32.542";"NST_correctLoc";"11";"1";"FINISHED";"RIGHT";"success";"338";"0";"2014-10-07 09:21:31.278";"2";;;;;;;;;;;;;;;;;;;;;;;;;;;;;;;;;;;;;;;;;;;;;;;;;;;;;;;;;
"ljcw1";"1996";;"Windows 7";"Rachel's Experiment (D.T.)";"1.0";"2";"1";"1";"2";"1";"1";"2014-10-07 09:18:43.484";"2014-10-07 09:33:52.092";"1";"0";"0";"33";"32";"module.training_block1.exec-1244.GoNoGo1";;;;;;;;;;;;;;;;;;;;;;;"1261";"2014-10-07 09:21:35.085";"NST_correctLoc";"3";"0";"FINISHED";"LEFT";"success";"279";"0";"2014-10-07 09:21:33.821";"1";;;;;;;;;;;;;;;;;;;;;;;;;;;;;;;;;;;;;;;;;;;;;;;;;;;;;;;;;
"ljcw1";"1996";;"Windows 7";"Rachel's Experiment (D.T.)";"1.0";"2";"1";"1";"2";"1";"1";"2014-10-07 09:18:43.484";"2014-10-07 09:33:52.092";"1";"0";"0";"34";"33";"module.training_block1.exec-1244.GoNoGo1";;;;;;;;;;;;;;;;;;;;;;;"1258";"2014-10-07 09:21:37.627";"NST_correctLoc";"20";"0";"FINISHED";"LEFT";"success";"397";"0";"2014-10-07 09:21:36.364";"3";;;;;;;;;;;;;;;;;;;;;;;;;;;;;;;;;;;;;;;;;;;;;;;;;;;;;;;;;
"ljcw1";"1996";;"Windows 7";"Rachel's Experiment (D.T.)";"1.0";"2";"1";"1";"2";"1";"1";"2014-10-07 09:18:43.484";"2014-10-07 09:33:52.092";"1";"0";"0";"35";"34";"module.training_block1.exec-1244.GoNoGo1";;;;;;;;;;;;;;;;;;;;;;;"1261";"2014-10-07 09:21:40.170";"NST_correctLoc";"34";"1";"FINISHED";"RIGHT";"success";"314";"0";"2014-10-07 09:21:38.907";"3";;;;;;;;;;;;;;;;;;;;;;;;;;;;;;;;;;;;;;;;;;;;;;;;;;;;;;;;;
"ljcw1";"1996";;"Windows 7";"Rachel's Experiment (D.T.)";"1.0";"2";"1";"1";"2";"1";"1";"2014-10-07 09:18:43.484";"2014-10-07 09:33:52.092";"1";"0";"0";"36";"35";"module.training_block1.exec-1244.GoNoGo1";;;;;;;;;;;;;;;;;;;;;;;"1261";"2014-10-07 09:21:42.713";"NST_correctLoc";"23";"0";"FINISHED";"LEFT";"success";"307";"0";"2014-10-07 09:21:41.449";"3";;;;;;;;;;;;;;;;;;;;;;;;;;;;;;;;;;;;;;;;;;;;;;;;;;;;;;;;;
"ljcw1";"1996";;"Windows 7";"Rachel's Experiment (D.T.)";"1.0";"2";"1";"1";"2";"1";"1";"2014-10-07 09:18:43.484";"2014-10-07 09:33:52.092";"1";"0";"0";"37";"36";"module.training_block1.exec-1244.GoNoGo1";;;;;;;;;;;;;;;;;;;;;;;"1256";"2014-10-07 09:21:45.256";"NST_correctLoc";"15";"1";"FINISHED";"RIGHT";"success";"319";"0";"2014-10-07 09:21:43.992";"2";;;;;;;;;;;;;;;;;;;;;;;;;;;;;;;;;;;;;;;;;;;;;;;;;;;;;;;;;
"ljcw1";"1996";;"Windows 7";"Rachel's Experiment (D.T.)";"1.0";"2";"1";"1";"2";"1";"1";"2014-10-07 09:18:43.484";"2014-10-07 09:33:52.092";"1";"0";"0";"38";"37";"module.training_block1.exec-1244.GoNoGo1";;;;;;;;;;;;;;;;;;;;;;;"1261";"2014-10-07 09:21:47.799";"NST_correctLoc";"21";"0";"FINISHED";"LEFT";"success";"357";"0";"2014-10-07 09:21:46.535";"3";;;;;;;;;;;;;;;;;;;;;;;;;;;;;;;;;;;;;;;;;;;;;;;;;;;;;;;;;
"ljcw1";"1996";;"Windows 7";"Rachel's Experiment (D.T.)";"1.0";"2";"1";"1";"2";"1";"1";"2014-10-07 09:18:43.484";"2014-10-07 09:33:52.092";"1";"0";"0";"39";"38";"module.training_block1.exec-1244.GoNoGo1";;;;;;;;;;;;;;;;;;;;;;;"1258";"2014-10-07 09:21:50.342";"NST_correctLoc";"5";"1";"FINISHED";"RIGHT";"success";"443";"0";"2014-10-07 09:21:49.078";"1";;;;;;;;;;;;;;;;;;;;;;;;;;;;;;;;;;;;;;;;;;;;;;;;;;;;;;;;;
"ljcw1";"1996";;"Windows 7";"Rachel's Experiment (D.T.)";"1.0";"2";"1";"1";"2";"1";"1";"2014-10-07 09:18:43.484";"2014-10-07 09:33:52.092";"1";"0";"0";"40";"39";"module.training_block1.exec-1244.GoNoGo1";;;;;;;;;;;;;;;;;;;;;;;"1258";"2014-10-07 09:21:52.884";"NST_correctLoc";"19";"1";"FINISHED";"RIGHT";"success";"524";"0";"2014-10-07 09:21:51.621";"3";;;;;;;;;;;;;;;;;;;;;;;;;;;;;;;;;;;;;;;;;;;;;;;;;;;;;;;;;
"ljcw1";"1996";;"Windows 7";"Rachel's Experiment (D.T.)";"1.0";"2";"1";"1";"2";"1";"1";"2014-10-07 09:18:43.484";"2014-10-07 09:33:52.092";"1";"0";"0";"41";"40";"module.training_block1.exec-1244.GoNoGo1";;;;;;;;;;;;;;;;;;;;;;;"1258";"2014-10-07 09:21:55.427";"NST_correctLoc";"1";"1";"FINISHED";"RIGHT";"success";"453";"0";"2014-10-07 09:21:54.164";"1";;;;;;;;;;;;;;;;;;;;;;;;;;;;;;;;;;;;;;;;;;;;;;;;;;;;;;;;;
"ljcw1";"1996";;"Windows 7";"Rachel's Experiment (D.T.)";"1.0";"2";"1";"1";"2";"1";"1";"2014-10-07 09:18:43.484";"2014-10-07 09:33:52.092";"1";"0";"0";"42";"41";"module.training_block1.exec-1244.GoNoGo1";;;;;;;;;;;;;;;;;;;;;;;"1257";"2014-10-07 09:21:57.970";"NST_correctLoc";"10";"1";"FINISHED";"RIGHT";"success";"398";"0";"2014-10-07 09:21:56.706";"2";;;;;;;;;;;;;;;;;;;;;;;;;;;;;;;;;;;;;;;;;;;;;;;;;;;;;;;;;
"ljcw1";"1996";;"Windows 7";"Rachel's Experiment (D.T.)";"1.0";"2";"1";"1";"2";"1";"1";"2014-10-07 09:18:43.484";"2014-10-07 09:33:52.092";"1";"0";"0";"43";"42";"module.training_block1.exec-1244.GoNoGo1";;;;;;;;;;;;;;;;;;;;;;;"1261";"2014-10-07 09:22:00.513";"NST_correctLoc";"27";"0";"FINISHED";"LEFT";"success";"395";"0";"2014-10-07 09:21:59.249";"3";;;;;;;;;;;;;;;;;;;;;;;;;;;;;;;;;;;;;;;;;;;;;;;;;;;;;;;;;
"ljcw1";"1996";;"Windows 7";"Rachel's Experiment (D.T.)";"1.0";"2";"1";"1";"2";"1";"1";"2014-10-07 09:18:43.484";"2014-10-07 09:33:52.092";"1";"0";"0";"44";"43";"module.training_block1.exec-1244.GoNoGo1";;;;;;;;;;;;;;;;;;;;;;;"1257";"2014-10-07 09:22:03.056";"NST_correctLoc";"29";"1";"FINISHED";"RIGHT";"success";"344";"0";"2014-10-07 09:22:01.792";"3";;;;;;;;;;;;;;;;;;;;;;;;;;;;;;;;;;;;;;;;;;;;;;;;;;;;;;;;;
"ljcw1";"1996";;"Windows 7";"Rachel's Experiment (D.T.)";"1.0";"2";"1";"1";"2";"1";"1";"2014-10-07 09:18:43.484";"2014-10-07 09:33:52.092";"1";"0";"0";"45";"44";"module.training_block1.exec-1244.GoNoGo1";;;;;;;;;;;;;;;;;;;;;;;"1257";"2014-10-07 09:22:05.598";"NST_correctLoc";"7";"0";"FINISHED";"LEFT";"success";"337";"0";"2014-10-07 09:22:04.335";"1";;;;;;;;;;;;;;;;;;;;;;;;;;;;;;;;;;;;;;;;;;;;;;;;;;;;;;;;;
"ljcw1";"1996";;"Windows 7";"Rachel's Experiment (D.T.)";"1.0";"2";"1";"1";"2";"1";"1";"2014-10-07 09:18:43.484";"2014-10-07 09:33:52.092";"1";"0";"0";"46";"45";"module.training_block1.exec-1244.GoNoGo1";;;;;;;;;;;;;;;;;;;;;;;"1261";"2014-10-07 09:22:08.141";"NST_correctLoc";"30";"1";"FINISHED";"RIGHT";"success";"375";"0";"2014-10-07 09:22:06.878";"3";;;;;;;;;;;;;;;;;;;;;;;;;;;;;;;;;;;;;;;;;;;;;;;;;;;;;;;;;
"ljcw1";"1996";;"Windows 7";"Rachel's Experiment (D.T.)";"1.0";"2";"1";"1";"2";"1";"1";"2014-10-07 09:18:43.484";"2014-10-07 09:33:52.092";"1";"0";"0";"47";"46";"module.training_block1.exec-1244.GoNoGo1";;;;;;;;;;;;;;;;;;;;;;;"1257";"2014-10-07 09:22:10.715";"NST_correctLoc";"24";"0";"FINISHED";"LEFT";"success";"317";"0";"2014-10-07 09:22:09.452";"3";;;;;;;;;;;;;;;;;;;;;;;;;;;;;;;;;;;;;;;;;;;;;;;;;;;;;;;;;
"ljcw1";"1996";;"Windows 7";"Rachel's Experiment (D.T.)";"1.0";"2";"1";"1";"2";"1";"1";"2014-10-07 09:18:43.484";"2014-10-07 09:33:52.092";"1";"0";"0";"48";"47";"module.training_block1.exec-1244.GoNoGo1";;;;;;;;;;;;;;;;;;;;;;;"1257";"2014-10-07 09:22:13.289";"NST_correctLoc";"4";"0";"FINISHED";"LEFT";"success";"446";"0";"2014-10-07 09:22:12.026";"1";;;;;;;;;;;;;;;;;;;;;;;;;;;;;;;;;;;;;;;;;;;;;;;;;;;;;;;;;
"ljcw1";"1996";;"Windows 7";"Rachel's Experiment (D.T.)";"1.0";"2";"1";"1";"2";"1";"1";"2014-10-07 09:18:43.484";"2014-10-07 09:33:52.092";"1";"0";"0";"49";"48";"module.training_block1.exec-1244.GoNoGo1";;;;;;;;;;;;;;;;;;;;;;;"1257";"2014-10-07 09:22:15.863";"NST_correctLoc";"25";"1";"FINISHED";"RIGHT";"success";"384";"0";"2014-10-07 09:22:14.600";"3";;;;;;;;;;;;;;;;;;;;;;;;;;;;;;;;;;;;;;;;;;;;;;;;;;;;;;;;;
"ljcw1";"1996";;"Windows 7";"Rachel's Experiment (D.T.)";"1.0";"2";"1";"1";"2";"1";"1";"2014-10-07 09:18:43.484";"2014-10-07 09:33:52.092";"1";"0";"0";"50";"49";"module.training_block1.exec-1244.GoNoGo1";;;;;;;;;;;;;;;;;;;;;;;"1257";"2014-10-07 09:22:18.422";"NST_correctLoc";"17";"0";"FINISHED";"LEFT";"success";"362";"0";"2014-10-07 09:22:17.158";"2";;;;;;;;;;;;;;;;;;;;;;;;;;;;;;;;;;;;;;;;;;;;;;;;;;;;;;;;;
"ljcw1";"1996";;"Windows 7";"Rachel's Experiment (D.T.)";"1.0";"2";"1";"1";"2";"1";"1";"2014-10-07 09:18:43.484";"2014-10-07 09:33:52.092";"1";"0";"0";"51";"50";"module.training_block1.exec-1244.GoNoGo1";;;;;;;;;;;;;;;;;;;;;;;"1258";"2014-10-07 09:22:20.964";"NST_correctLoc";"0";"0";"FINISHED";"LEFT";"success";"427";"0";"2014-10-07 09:22:19.701";"1";;;;;;;;;;;;;;;;;;;;;;;;;;;;;;;;;;;;;;;;;;;;;;;;;;;;;;;;;
"ljcw1";"1996";;"Windows 7";"Rachel's Experiment (D.T.)";"1.0";"2";"1";"1";"2";"1";"1";"2014-10-07 09:18:43.484";"2014-10-07 09:33:52.092";"1";"0";"0";"52";"51";"module.training_block2.exec-4486.GoNoGo2";;;;;;;;;;;;;;;;;;;;;;;;;;;;;;;;;;;"1261";"2014-10-07 09:22:32.228";"NST_correctLoc";"8";"1";"FINISHED";"RIGHT";"success";"416";"0";"2014-10-07 09:22:30.964";"1";;;;;;;;;;;;;;;;;;;;;;;;;;;;;;;;;;;;;;;;;;;;;
"ljcw1";"1996";;"Windows 7";"Rachel's Experiment (D.T.)";"1.0";"2";"1";"1";"2";"1";"1";"2014-10-07 09:18:43.484";"2014-10-07 09:33:52.092";"1";"0";"0";"53";"52";"module.training_block2.exec-4486.GoNoGo2";;;;;;;;;;;;;;;;;;;;;;;;;;;;;;;;;;;"1261";"2014-10-07 09:22:34.770";"NST_correctLoc";"30";"0";"FINISHED";"LEFT";"success";"369";"0";"2014-10-07 09:22:33.507";"3";;;;;;;;;;;;;;;;;;;;;;;;;;;;;;;;;;;;;;;;;;;;;
"ljcw1";"1996";;"Windows 7";"Rachel's Experiment (D.T.)";"1.0";"2";"1";"1";"2";"1";"1";"2014-10-07 09:18:43.484";"2014-10-07 09:33:52.092";"1";"0";"0";"54";"53";"module.training_block2.exec-4486.GoNoGo2";;;;;;;;;;;;;;;;;;;;;;;;;;;;;;;;;;;"1261";"2014-10-07 09:22:37.313";"NST_correctLoc";"29";"1";"FINISHED";"RIGHT";"success";"330";"0";"2014-10-07 09:22:36.050";"3";;;;;;;;;;;;;;;;;;;;;;;;;;;;;;;;;;;;;;;;;;;;;
"ljcw1";"1996";;"Windows 7";"Rachel's Experiment (D.T.)";"1.0";"2";"1";"1";"2";"1";"1";"2014-10-07 09:18:43.484";"2014-10-07 09:33:52.092";"1";"0";"0";"55";"54";"module.training_block2.exec-4486.GoNoGo2";;;;;;;;;;;;;;;;;;;;;;;;;;;;;;;;;;;"1261";"2014-10-07 09:22:39.856";"NST_correctLoc";"18";"1";"FINISHED";"RIGHT";"success";"371";"0";"2014-10-07 09:22:38.592";"3";;;;;;;;;;;;;;;;;;;;;;;;;;;;;;;;;;;;;;;;;;;;;
"ljcw1";"1996";;"Windows 7";"Rachel's Experiment (D.T.)";"1.0";"2";"1";"1";"2";"1";"1";"2014-10-07 09:18:43.484";"2014-10-07 09:33:52.092";"1";"0";"0";"56";"55";"module.training_block2.exec-4486.GoNoGo2";;;;;;;;;;;;;;;;;;;;;;;;;;;;;;;;;;;"1261";"2014-10-07 09:22:42.399";"NST_correctLoc";"11";"0";"FINISHED";"LEFT";"success";"381";"0";"2014-10-07 09:22:41.135";"2";;;;;;;;;;;;;;;;;;;;;;;;;;;;;;;;;;;;;;;;;;;;;
"ljcw1";"1996";;"Windows 7";"Rachel's Experiment (D.T.)";"1.0";"2";"1";"1";"2";"1";"1";"2014-10-07 09:18:43.484";"2014-10-07 09:33:52.092";"1";"0";"0";"57";"56";"module.training_block2.exec-4486.GoNoGo2";;;;;;;;;;;;;;;;;;;;;;;;;;;;;;;;;;;"1261";"2014-10-07 09:22:44.942";"NST_correctLoc";"3";"1";"FINISHED";"RIGHT";"success";"334";"0";"2014-10-07 09:22:43.678";"1";;;;;;;;;;;;;;;;;;;;;;;;;;;;;;;;;;;;;;;;;;;;;
"ljcw1";"1996";;"Windows 7";"Rachel's Experiment (D.T.)";"1.0";"2";"1";"1";"2";"1";"1";"2014-10-07 09:18:43.484";"2014-10-07 09:33:52.092";"1";"0";"0";"58";"57";"module.training_block2.exec-4486.GoNoGo2";;;;;;;;;;;;;;;;;;;;;;;;;;;;;;;;;;;"1261";"2014-10-07 09:22:47.484";"NST_correctLoc";"9";"1";"FINISHED";"RIGHT";"success";"439";"0";"2014-10-07 09:22:46.221";"2";;;;;;;;;;;;;;;;;;;;;;;;;;;;;;;;;;;;;;;;;;;;;
"ljcw1";"1996";;"Windows 7";"Rachel's Experiment (D.T.)";"1.0";"2";"1";"1";"2";"1";"1";"2014-10-07 09:18:43.484";"2014-10-07 09:33:52.092";"1";"0";"0";"59";"58";"module.training_block2.exec-4486.GoNoGo2";;;;;;;;;;;;;;;;;;;;;;;;;;;;;;;;;;;"1261";"2014-10-07 09:22:50.027";"NST_correctLoc";"17";"0";"FINISHED";"LEFT";"success";"376";"0";"2014-10-07 09:22:48.764";"2";;;;;;;;;;;;;;;;;;;;;;;;;;;;;;;;;;;;;;;;;;;;;
"ljcw1";"1996";;"Windows 7";"Rachel's Experiment (D.T.)";"1.0";"2";"1";"1";"2";"1";"1";"2014-10-07 09:18:43.484";"2014-10-07 09:33:52.092";"1";"0";"0";"60";"59";"module.training_block2.exec-4486.GoNoGo2";;;;;;;;;;;;;;;;;;;;;;;;;;;;;;;;;;;"1261";"2014-10-07 09:22:52.570";"NST_correctLoc";"24";"0";"FINISHED";"LEFT";"success";"473";"0";"2014-10-07 09:22:51.306";"3";;;;;;;;;;;;;;;;;;;;;;;;;;;;;;;;;;;;;;;;;;;;;
"ljcw1";"1996";;"Windows 7";"Rachel's Experiment (D.T.)";"1.0";"2";"1";"1";"2";"1";"1";"2014-10-07 09:18:43.484";"2014-10-07 09:33:52.092";"1";"0";"0";"61";"60";"module.training_block2.exec-4486.GoNoGo2";;;;;;;;;;;;;;;;;;;;;;;;;;;;;;;;;;;"1261";"2014-10-07 09:22:55.113";"NST_correctLoc";"1";"0";"FINISHED";"LEFT";"success";"379";"0";"2014-10-07 09:22:53.849";"1";;;;;;;;;;;;;;;;;;;;;;;;;;;;;;;;;;;;;;;;;;;;;
"ljcw1";"1996";;"Windows 7";"Rachel's Experiment (D.T.)";"1.0";"2";"1";"1";"2";"1";"1";"2014-10-07 09:18:43.484";"2014-10-07 09:33:52.092";"1";"0";"0";"62";"61";"module.training_block2.exec-4486.GoNoGo2";;;;;;;;;;;;;;;;;;;;;;;;;;;;;;;;;;;"1261";"2014-10-07 09:22:57.656";"NST_correctLoc";"5";"1";"FINISHED";"RIGHT";"success";"396";"0";"2014-10-07 09:22:56.392";"1";;;;;;;;;;;;;;;;;;;;;;;;;;;;;;;;;;;;;;;;;;;;;
"ljcw1";"1996";;"Windows 7";"Rachel's Experiment (D.T.)";"1.0";"2";"1";"1";"2";"1";"1";"2014-10-07 09:18:43.484";"2014-10-07 09:33:52.092";"1";"0";"0";"63";"62";"module.training_block2.exec-4486.GoNoGo2";;;;;;;;;;;;;;;;;;;;;;;;;;;;;;;;;;;"1261";"2014-10-07 09:23:00.198";"NST_correctLoc";"7";"1";"FINISHED";"RIGHT";"success";"405";"0";"2014-10-07 09:22:58.935";"1";;;;;;;;;;;;;;;;;;;;;;;;;;;;;;;;;;;;;;;;;;;;;
"ljcw1";"1996";;"Windows 7";"Rachel's Experiment (D.T.)";"1.0";"2";"1";"1";"2";"1";"1";"2014-10-07 09:18:43.484";"2014-10-07 09:33:52.092";"1";"0";"0";"64";"63";"module.training_block2.exec-4486.GoNoGo2";;;;;;;;;;;;;;;;;;;;;;;;;;;;;;;;;;;"1261";"2014-10-07 09:23:02.741";"NST_correctLoc";"26";"0";"FINISHED";"LEFT";"success";"406";"0";"2014-10-07 09:23:01.478";"3";;;;;;;;;;;;;;;;;;;;;;;;;;;;;;;;;;;;;;;;;;;;;
"ljcw1";"1996";;"Windows 7";"Rachel's Experiment (D.T.)";"1.0";"2";"1";"1";"2";"1";"1";"2014-10-07 09:18:43.484";"2014-10-07 09:33:52.092";"1";"0";"0";"65";"64";"module.training_block2.exec-4486.GoNoGo2";;;;;;;;;;;;;;;;;;;;;;;;;;;;;;;;;;;"1261";"2014-10-07 09:23:05.284";"NST_correctLoc";"31";"0";"FINISHED";"LEFT";"success";"407";"0";"2014-10-07 09:23:04.020";"3";;;;;;;;;;;;;;;;;;;;;;;;;;;;;;;;;;;;;;;;;;;;;
"ljcw1";"1996";;"Windows 7";"Rachel's Experiment (D.T.)";"1.0";"2";"1";"1";"2";"1";"1";"2014-10-07 09:18:43.484";"2014-10-07 09:33:52.092";"1";"0";"0";"66";"65";"module.training_block2.exec-4486.GoNoGo2";;;;;;;;;;;;;;;;;;;;;;;;;;;;;;;;;;;"1261";"2014-10-07 09:23:07.827";"NST_correctLoc";"4";"1";"FINISHED";"RIGHT";"success";"352";"0";"2014-10-07 09:23:06.563";"1";;;;;;;;;;;;;;;;;;;;;;;;;;;;;;;;;;;;;;;;;;;;;
"ljcw1";"1996";;"Windows 7";"Rachel's Experiment (D.T.)";"1.0";"2";"1";"1";"2";"1";"1";"2014-10-07 09:18:43.484";"2014-10-07 09:33:52.092";"1";"0";"0";"67";"66";"module.training_block2.exec-4486.GoNoGo2";;;;;;;;;;;;;;;;;;;;;;;;;;;;;;;;;;;"1261";"2014-10-07 09:23:10.370";"NST_correctLoc";"28";"1";"FINISHED";"RIGHT";"success";"442";"0";"2014-10-07 09:23:09.106";"3";;;;;;;;;;;;;;;;;;;;;;;;;;;;;;;;;;;;;;;;;;;;;
"ljcw1";"1996";;"Windows 7";"Rachel's Experiment (D.T.)";"1.0";"2";"1";"1";"2";"1";"1";"2014-10-07 09:18:43.484";"2014-10-07 09:33:52.092";"1";"0";"0";"68";"67";"module.training_block2.exec-4486.GoNoGo2";;;;;;;;;;;;;;;;;;;;;;;;;;;;;;;;;;;"1261";"2014-10-07 09:23:12.912";"NST_correctLoc";"22";"1";"FINISHED";"RIGHT";"success";"355";"0";"2014-10-07 09:23:11.649";"3";;;;;;;;;;;;;;;;;;;;;;;;;;;;;;;;;;;;;;;;;;;;;
"ljcw1";"1996";;"Windows 7";"Rachel's Experiment (D.T.)";"1.0";"2";"1";"1";"2";"1";"1";"2014-10-07 09:18:43.484";"2014-10-07 09:33:52.092";"1";"0";"0";"69";"68";"module.training_block2.exec-4486.GoNoGo2";;;;;;;;;;;;;;;;;;;;;;;;;;;;;;;;;;;"1261";"2014-10-07 09:23:15.455";"NST_correctLoc";"34";"1";"FINISHED";"RIGHT";"success";"396";"0";"2014-10-07 09:23:14.192";"3";;;;;;;;;;;;;;;;;;;;;;;;;;;;;;;;;;;;;;;;;;;;;
"ljcw1";"1996";;"Windows 7";"Rachel's Experiment (D.T.)";"1.0";"2";"1";"1";"2";"1";"1";"2014-10-07 09:18:43.484";"2014-10-07 09:33:52.092";"1";"0";"0";"70";"69";"module.training_block2.exec-4486.GoNoGo2";;;;;;;;;;;;;;;;;;;;;;;;;;;;;;;;;;;"1261";"2014-10-07 09:23:18.014";"NST_correctLoc";"15";"1";"FINISHED";"RIGHT";"success";"438";"0";"2014-10-07 09:23:16.750";"2";;;;;;;;;;;;;;;;;;;;;;;;;;;;;;;;;;;;;;;;;;;;;
"ljcw1";"1996";;"Windows 7";"Rachel's Experiment (D.T.)";"1.0";"2";"1";"1";"2";"1";"1";"2014-10-07 09:18:43.484";"2014-10-07 09:33:52.092";"1";"0";"0";"71";"70";"module.training_block2.exec-4486.GoNoGo2";;;;;;;;;;;;;;;;;;;;;;;;;;;;;;;;;;;"1261";"2014-10-07 09:23:20.556";"NST_correctLoc";"6";"1";"FINISHED";"RIGHT";"success";"375";"0";"2014-10-07 09:23:19.293";"1";;;;;;;;;;;;;;;;;;;;;;;;;;;;;;;;;;;;;;;;;;;;;
"ljcw1";"1996";;"Windows 7";"Rachel's Experiment (D.T.)";"1.0";"2";"1";"1";"2";"1";"1";"2014-10-07 09:18:43.484";"2014-10-07 09:33:52.092";"1";"0";"0";"72";"71";"module.training_block2.exec-4486.GoNoGo2";;;;;;;;;;;;;;;;;;;;;;;;;;;;;;;;;;;"1261";"2014-10-07 09:23:23.099";"NST_correctLoc";"12";"0";"FINISHED";"LEFT";"success";"408";"0";"2014-10-07 09:23:21.836";"2";;;;;;;;;;;;;;;;;;;;;;;;;;;;;;;;;;;;;;;;;;;;;
"ljcw1";"1996";;"Windows 7";"Rachel's Experiment (D.T.)";"1.0";"2";"1";"1";"2";"1";"1";"2014-10-07 09:18:43.484";"2014-10-07 09:33:52.092";"1";"0";"0";"73";"72";"module.training_block2.exec-4486.GoNoGo2";;;;;;;;;;;;;;;;;;;;;;;;;;;;;;;;;;;"1261";"2014-10-07 09:23:25.642";"NST_correctLoc";"35";"0";"FINISHED";"LEFT";"success";"481";"0";"2014-10-07 09:23:24.378";"3";;;;;;;;;;;;;;;;;;;;;;;;;;;;;;;;;;;;;;;;;;;;;
"ljcw1";"1996";;"Windows 7";"Rachel's Experiment (D.T.)";"1.0";"2";"1";"1";"2";"1";"1";"2014-10-07 09:18:43.484";"2014-10-07 09:33:52.092";"1";"0";"0";"74";"73";"module.training_block2.exec-4486.GoNoGo2";;;;;;;;;;;;;;;;;;;;;;;;;;;;;;;;;;;"1261";"2014-10-07 09:23:28.185";"NST_correctLoc";"23";"1";"FINISHED";"RIGHT";"success";"458";"0";"2014-10-07 09:23:26.921";"3";;;;;;;;;;;;;;;;;;;;;;;;;;;;;;;;;;;;;;;;;;;;;
"ljcw1";"1996";;"Windows 7";"Rachel's Experiment (D.T.)";"1.0";"2";"1";"1";"2";"1";"1";"2014-10-07 09:18:43.484";"2014-10-07 09:33:52.092";"1";"0";"0";"75";"74";"module.training_block2.exec-4486.GoNoGo2";;;;;;;;;;;;;;;;;;;;;;;;;;;;;;;;;;;"1261";"2014-10-07 09:23:30.728";"NST_correctLoc";"13";"0";"FINISHED";"LEFT";"success";"324";"0";"2014-10-07 09:23:29.464";"2";;;;;;;;;;;;;;;;;;;;;;;;;;;;;;;;;;;;;;;;;;;;;
"ljcw1";"1996";;"Windows 7";"Rachel's Experiment (D.T.)";"1.0";"2";"1";"1";"2";"1";"1";"2014-10-07 09:18:43.484";"2014-10-07 09:33:52.092";"1";"0";"0";"76";"75";"module.training_block2.exec-4486.GoNoGo2";;;;;;;;;;;;;;;;;;;;;;;;;;;;;;;;;;;"1261";"2014-10-07 09:23:33.270";"NST_correctLoc";"25";"1";"FINISHED";"RIGHT";"success";"397";"0";"2014-10-07 09:23:32.007";"3";;;;;;;;;;;;;;;;;;;;;;;;;;;;;;;;;;;;;;;;;;;;;
"ljcw1";"1996";;"Windows 7";"Rachel's Experiment (D.T.)";"1.0";"2";"1";"1";"2";"1";"1";"2014-10-07 09:18:43.484";"2014-10-07 09:33:52.092";"1";"0";"0";"77";"76";"module.training_block2.exec-4486.GoNoGo2";;;;;;;;;;;;;;;;;;;;;;;;;;;;;;;;;;;"1261";"2014-10-07 09:23:35.813";"NST_correctLoc";"20";"1";"FINISHED";"RIGHT";"success";"414";"0";"2014-10-07 09:23:34.550";"3";;;;;;;;;;;;;;;;;;;;;;;;;;;;;;;;;;;;;;;;;;;;;
"ljcw1";"1996";;"Windows 7";"Rachel's Experiment (D.T.)";"1.0";"2";"1";"1";"2";"1";"1";"2014-10-07 09:18:43.484";"2014-10-07 09:33:52.092";"1";"0";"0";"78";"77";"module.training_block2.exec-4486.GoNoGo2";;;;;;;;;;;;;;;;;;;;;;;;;;;;;;;;;;;"1261";"2014-10-07 09:23:38.356";"NST_correctLoc";"16";"0";"FINISHED";"LEFT";"success";"359";"0";"2014-10-07 09:23:37.093";"2";;;;;;;;;;;;;;;;;;;;;;;;;;;;;;;;;;;;;;;;;;;;;
"ljcw1";"1996";;"Windows 7";"Rachel's Experiment (D.T.)";"1.0";"2";"1";"1";"2";"1";"1";"2014-10-07 09:18:43.484";"2014-10-07 09:33:52.092";"1";"0";"0";"79";"78";"module.training_block2.exec-4486.GoNoGo2";;;;;;;;;;;;;;;;;;;;;;;;;;;;;;;;;;;"1261";"2014-10-07 09:23:40.899";"NST_correctLoc";"33";"0";"FINISHED";"LEFT";"success";"384";"0";"2014-10-07 09:23:39.635";"3";;;;;;;;;;;;;;;;;;;;;;;;;;;;;;;;;;;;;;;;;;;;;
"ljcw1";"1996";;"Windows 7";"Rachel's Experiment (D.T.)";"1.0";"2";"1";"1";"2";"1";"1";"2014-10-07 09:18:43.484";"2014-10-07 09:33:52.092";"1";"0";"0";"80";"79";"module.training_block2.exec-4486.GoNoGo2";;;;;;;;;;;;;;;;;;;;;;;;;;;;;;;;;;;"1261";"2014-10-07 09:23:43.442";"NST_correctLoc";"32";"0";"FINISHED";"LEFT";"success";"377";"0";"2014-10-07 09:23:42.178";"3";;;;;;;;;;;;;;;;;;;;;;;;;;;;;;;;;;;;;;;;;;;;;
"ljcw1";"1996";;"Windows 7";"Rachel's Experiment (D.T.)";"1.0";"2";"1";"1";"2";"1";"1";"2014-10-07 09:18:43.484";"2014-10-07 09:33:52.092";"1";"0";"0";"81";"80";"module.training_block2.exec-4486.GoNoGo2";;;;;;;;;;;;;;;;;;;;;;;;;;;;;;;;;;;"1261";"2014-10-07 09:23:45.985";"NST_correctLoc";"27";"0";"FINISHED";"LEFT";"success";"371";"0";"2014-10-07 09:23:44.721";"3";;;;;;;;;;;;;;;;;;;;;;;;;;;;;;;;;;;;;;;;;;;;;
"ljcw1";"1996";;"Windows 7";"Rachel's Experiment (D.T.)";"1.0";"2";"1";"1";"2";"1";"1";"2014-10-07 09:18:43.484";"2014-10-07 09:33:52.092";"1";"0";"0";"82";"81";"module.training_block2.exec-4486.GoNoGo2";;;;;;;;;;;;;;;;;;;;;;;;;;;;;;;;;;;"1261";"2014-10-07 09:23:48.527";"NST_correctLoc";"14";"0";"FINISHED";"LEFT";"success";"364";"0";"2014-10-07 09:23:47.264";"2";;;;;;;;;;;;;;;;;;;;;;;;;;;;;;;;;;;;;;;;;;;;;
"ljcw1";"1996";;"Windows 7";"Rachel's Experiment (D.T.)";"1.0";"2";"1";"1";"2";"1";"1";"2014-10-07 09:18:43.484";"2014-10-07 09:33:52.092";"1";"0";"0";"83";"82";"module.training_block2.exec-4486.GoNoGo2";;;;;;;;;;;;;;;;;;;;;;;;;;;;;;;;;;;"1261";"2014-10-07 09:23:51.070";"NST_correctLoc";"21";"1";"FINISHED";"RIGHT";"success";"365";"0";"2014-10-07 09:23:49.807";"3";;;;;;;;;;;;;;;;;;;;;;;;;;;;;;;;;;;;;;;;;;;;;
"ljcw1";"1996";;"Windows 7";"Rachel's Experiment (D.T.)";"1.0";"2";"1";"1";"2";"1";"1";"2014-10-07 09:18:43.484";"2014-10-07 09:33:52.092";"1";"0";"0";"84";"83";"module.training_block2.exec-4486.GoNoGo2";;;;;;;;;;;;;;;;;;;;;;;;;;;;;;;;;;;"1261";"2014-10-07 09:23:53.613";"NST_correctLoc";"10";"0";"FINISHED";"LEFT";"success";"406";"0";"2014-10-07 09:23:52.349";"2";;;;;;;;;;;;;;;;;;;;;;;;;;;;;;;;;;;;;;;;;;;;;
"ljcw1";"1996";;"Windows 7";"Rachel's Experiment (D.T.)";"1.0";"2";"1";"1";"2";"1";"1";"2014-10-07 09:18:43.484";"2014-10-07 09:33:52.092";"1";"0";"0";"85";"84";"module.training_block2.exec-4486.GoNoGo2";;;;;;;;;;;;;;;;;;;;;;;;;;;;;;;;;;;"1261";"2014-10-07 09:23:56.156";"NST_correctLoc";"19";"1";"FINISHED";"RIGHT";"success";"327";"0";"2014-10-07 09:23:54.892";"3";;;;;;;;;;;;;;;;;;;;;;;;;;;;;;;;;;;;;;;;;;;;;
"ljcw1";"1996";;"Windows 7";"Rachel's Experiment (D.T.)";"1.0";"2";"1";"1";"2";"1";"1";"2014-10-07 09:18:43.484";"2014-10-07 09:33:52.092";"1";"0";"0";"86";"85";"module.training_block2.exec-4486.GoNoGo2";;;;;;;;;;;;;;;;;;;;;;;;;;;;;;;;;;;"1261";"2014-10-07 09:23:58.714";"NST_correctLoc";"0";"1";"FINISHED";"RIGHT";"success";"353";"0";"2014-10-07 09:23:57.451";"1";;;;;;;;;;;;;;;;;;;;;;;;;;;;;;;;;;;;;;;;;;;;;
"ljcw1";"1996";;"Windows 7";"Rachel's Experiment (D.T.)";"1.0";"2";"1";"1";"2";"1";"1";"2014-10-07 09:18:43.484";"2014-10-07 09:33:52.092";"1";"0";"0";"87";"86";"module.training_block2.exec-4486.GoNoGo2";;;;;;;;;;;;;;;;;;;;;;;;;;;;;;;;;;;"1261";"2014-10-07 09:24:01.257";"NST_correctLoc";"2";"0";"FINISHED";"LEFT";"success";"402";"0";"2014-10-07 09:23:59.993";"1";;;;;;;;;;;;;;;;;;;;;;;;;;;;;;;;;;;;;;;;;;;;;
"ljcw1";"1996";;"Windows 7";"Rachel's Experiment (D.T.)";"1.0";"2";"1";"1";"2";"1";"1";"2014-10-07 09:18:43.484";"2014-10-07 09:33:52.092";"1";"0";"0";"88";"87";"module.training_block3.exec-2288.GoNoGo3";;;;;;;;;;;;;;;;;;;;;;;;;;;;;;;;;;;;;;;;;;;;;;;"1261";"2014-10-07 09:24:12.224";"NST_correctLoc";"8";"0";"FINISHED";"LEFT";"success";"963";"0";"2014-10-07 09:24:10.960";"1";;;;;;;;;;;;;;;;;;;;;;;;;;;;;;;;;
"ljcw1";"1996";;"Windows 7";"Rachel's Experiment (D.T.)";"1.0";"2";"1";"1";"2";"1";"1";"2014-10-07 09:18:43.484";"2014-10-07 09:33:52.092";"1";"0";"0";"89";"88";"module.training_block3.exec-2288.GoNoGo3";;;;;;;;;;;;;;;;;;;;;;;;;;;;;;;;;;;;;;;;;;;;;;;"1261";"2014-10-07 09:24:14.767";"NST_correctLoc";"33";"1";"FINISHED";"RIGHT";"success";"300";"0";"2014-10-07 09:24:13.503";"3";;;;;;;;;;;;;;;;;;;;;;;;;;;;;;;;;
"ljcw1";"1996";;"Windows 7";"Rachel's Experiment (D.T.)";"1.0";"2";"1";"1";"2";"1";"1";"2014-10-07 09:18:43.484";"2014-10-07 09:33:52.092";"1";"0";"0";"90";"89";"module.training_block3.exec-2288.GoNoGo3";;;;;;;;;;;;;;;;;;;;;;;;;;;;;;;;;;;;;;;;;;;;;;;"1261";"2014-10-07 09:24:17.309";"NST_correctLoc";"32";"0";"FINISHED";"LEFT";"success";"406";"0";"2014-10-07 09:24:16.046";"3";;;;;;;;;;;;;;;;;;;;;;;;;;;;;;;;;
"ljcw1";"1996";;"Windows 7";"Rachel's Experiment (D.T.)";"1.0";"2";"1";"1";"2";"1";"1";"2014-10-07 09:18:43.484";"2014-10-07 09:33:52.092";"1";"0";"0";"91";"90";"module.training_block3.exec-2288.GoNoGo3";;;;;;;;;;;;;;;;;;;;;;;;;;;;;;;;;;;;;;;;;;;;;;;"1258";"2014-10-07 09:24:19.852";"NST_correctLoc";"19";"1";"FINISHED";"RIGHT";"success";"339";"0";"2014-10-07 09:24:18.589";"3";;;;;;;;;;;;;;;;;;;;;;;;;;;;;;;;;
"ljcw1";"1996";;"Windows 7";"Rachel's Experiment (D.T.)";"1.0";"2";"1";"1";"2";"1";"1";"2014-10-07 09:18:43.484";"2014-10-07 09:33:52.092";"1";"0";"0";"92";"91";"module.training_block3.exec-2288.GoNoGo3";;;;;;;;;;;;;;;;;;;;;;;;;;;;;;;;;;;;;;;;;;;;;;;"1262";"2014-10-07 09:24:22.395";"NST_correctLoc";"13";"0";"FINISHED";"LEFT";"success";"312";"0";"2014-10-07 09:24:21.131";"2";;;;;;;;;;;;;;;;;;;;;;;;;;;;;;;;;
"ljcw1";"1996";;"Windows 7";"Rachel's Experiment (D.T.)";"1.0";"2";"1";"1";"2";"1";"1";"2014-10-07 09:18:43.484";"2014-10-07 09:33:52.092";"1";"0";"0";"93";"92";"module.training_block3.exec-2288.GoNoGo3";;;;;;;;;;;;;;;;;;;;;;;;;;;;;;;;;;;;;;;;;;;;;;;"1261";"2014-10-07 09:24:24.938";"NST_correctLoc";"9";"0";"FINISHED";"LEFT";"success";"425";"0";"2014-10-07 09:24:23.674";"2";;;;;;;;;;;;;;;;;;;;;;;;;;;;;;;;;
"ljcw1";"1996";;"Windows 7";"Rachel's Experiment (D.T.)";"1.0";"2";"1";"1";"2";"1";"1";"2014-10-07 09:18:43.484";"2014-10-07 09:33:52.092";"1";"0";"0";"94";"93";"module.training_block3.exec-2288.GoNoGo3";;;;;;;;;;;;;;;;;;;;;;;;;;;;;;;;;;;;;;;;;;;;;;;"1261";"2014-10-07 09:24:27.496";"NST_correctLoc";"14";"0";"FINISHED";"LEFT";"success";"323";"0";"2014-10-07 09:24:26.233";"2";;;;;;;;;;;;;;;;;;;;;;;;;;;;;;;;;
"ljcw1";"1996";;"Windows 7";"Rachel's Experiment (D.T.)";"1.0";"2";"1";"1";"2";"1";"1";"2014-10-07 09:18:43.484";"2014-10-07 09:33:52.092";"1";"0";"0";"95";"94";"module.training_block3.exec-2288.GoNoGo3";;;;;;;;;;;;;;;;;;;;;;;;;;;;;;;;;;;;;;;;;;;;;;;"1261";"2014-10-07 09:24:30.039";"NST_correctLoc";"29";"1";"FINISHED";"RIGHT";"success";"404";"0";"2014-10-07 09:24:28.775";"3";;;;;;;;;;;;;;;;;;;;;;;;;;;;;;;;;
"ljcw1";"1996";;"Windows 7";"Rachel's Experiment (D.T.)";"1.0";"2";"1";"1";"2";"1";"1";"2014-10-07 09:18:43.484";"2014-10-07 09:33:52.092";"1";"0";"0";"96";"95";"module.training_block3.exec-2288.GoNoGo3";;;;;;;;;;;;;;;;;;;;;;;;;;;;;;;;;;;;;;;;;;;;;;;"1261";"2014-10-07 09:24:32.582";"NST_correctLoc";"12";"1";"FINISHED";"RIGHT";"success";"341";"0";"2014-10-07 09:24:31.318";"2";;;;;;;;;;;;;;;;;;;;;;;;;;;;;;;;;
"ljcw1";"1996";;"Windows 7";"Rachel's Experiment (D.T.)";"1.0";"2";"1";"1";"2";"1";"1";"2014-10-07 09:18:43.484";"2014-10-07 09:33:52.092";"1";"0";"0";"97";"96";"module.training_block3.exec-2288.GoNoGo3";;;;;;;;;;;;;;;;;;;;;;;;;;;;;;;;;;;;;;;;;;;;;;;"1261";"2014-10-07 09:24:35.125";"NST_correctLoc";"2";"1";"FINISHED";"RIGHT";"success";"374";"0";"2014-10-07 09:24:33.861";"1";;;;;;;;;;;;;;;;;;;;;;;;;;;;;;;;;
"ljcw1";"1996";;"Windows 7";"Rachel's Experiment (D.T.)";"1.0";"2";"1";"1";"2";"1";"1";"2014-10-07 09:18:43.484";"2014-10-07 09:33:52.092";"1";"0";"0";"98";"97";"module.training_block3.exec-2288.GoNoGo3";;;;;;;;;;;;;;;;;;;;;;;;;;;;;;;;;;;;;;;;;;;;;;;"1262";"2014-10-07 09:24:37.667";"NST_correctLoc";"0";"0";"FINISHED";"LEFT";"success";"415";"0";"2014-10-07 09:24:36.404";"1";;;;;;;;;;;;;;;;;;;;;;;;;;;;;;;;;
"ljcw1";"1996";;"Windows 7";"Rachel's Experiment (D.T.)";"1.0";"2";"1";"1";"2";"1";"1";"2014-10-07 09:18:43.484";"2014-10-07 09:33:52.092";"1";"0";"0";"99";"98";"module.training_block3.exec-2288.GoNoGo3";;;;;;;;;;;;;;;;;;;;;;;;;;;;;;;;;;;;;;;;;;;;;;;"1261";"2014-10-07 09:24:40.210";"NST_correctLoc";"35";"1";"FINISHED";"RIGHT";"success";"369";"0";"2014-10-07 09:24:38.947";"3";;;;;;;;;;;;;;;;;;;;;;;;;;;;;;;;;
"ljcw1";"1996";;"Windows 7";"Rachel's Experiment (D.T.)";"1.0";"2";"1";"1";"2";"1";"1";"2014-10-07 09:18:43.484";"2014-10-07 09:33:52.092";"1";"0";"0";"100";"99";"module.training_block3.exec-2288.GoNoGo3";;;;;;;;;;;;;;;;;;;;;;;;;;;;;;;;;;;;;;;;;;;;;;;"1261";"2014-10-07 09:24:42.753";"NST_correctLoc";"1";"1";"FINISHED";"RIGHT";"success";"378";"0";"2014-10-07 09:24:41.489";"1";;;;;;;;;;;;;;;;;;;;;;;;;;;;;;;;;
"ljcw1";"1996";;"Windows 7";"Rachel's Experiment (D.T.)";"1.0";"2";"1";"1";"2";"1";"1";"2014-10-07 09:18:43.484";"2014-10-07 09:33:52.092";"1";"0";"0";"101";"100";"module.training_block3.exec-2288.GoNoGo3";;;;;;;;;;;;;;;;;;;;;;;;;;;;;;;;;;;;;;;;;;;;;;;"1261";"2014-10-07 09:24:45.280";"NST_correctLoc";"15";"0";"FINISHED";"LEFT";"success";"363";"0";"2014-10-07 09:24:44.017";"2";;;;;;;;;;;;;;;;;;;;;;;;;;;;;;;;;
"ljcw1";"1996";;"Windows 7";"Rachel's Experiment (D.T.)";"1.0";"2";"1";"1";"2";"1";"1";"2014-10-07 09:18:43.484";"2014-10-07 09:33:52.092";"1";"0";"0";"102";"101";"module.training_block3.exec-2288.GoNoGo3";;;;;;;;;;;;;;;;;;;;;;;;;;;;;;;;;;;;;;;;;;;;;;;"1261";"2014-10-07 09:24:47.823";"NST_correctLoc";"7";"0";"FINISHED";"LEFT";"success";"388";"0";"2014-10-07 09:24:46.559";"1";;;;;;;;;;;;;;;;;;;;;;;;;;;;;;;;;
"ljcw1";"1996";;"Windows 7";"Rachel's Experiment (D.T.)";"1.0";"2";"1";"1";"2";"1";"1";"2014-10-07 09:18:43.484";"2014-10-07 09:33:52.092";"1";"0";"0";"103";"102";"module.training_block3.exec-2288.GoNoGo3";;;;;;;;;;;;;;;;;;;;;;;;;;;;;;;;;;;;;;;;;;;;;;;"1261";"2014-10-07 09:24:50.366";"NST_correctLoc";"23";"0";"FINISHED";"LEFT";"success";"389";"0";"2014-10-07 09:24:49.102";"3";;;;;;;;;;;;;;;;;;;;;;;;;;;;;;;;;
"ljcw1";"1996";;"Windows 7";"Rachel's Experiment (D.T.)";"1.0";"2";"1";"1";"2";"1";"1";"2014-10-07 09:18:43.484";"2014-10-07 09:33:52.092";"1";"0";"0";"104";"103";"module.training_block3.exec-2288.GoNoGo3";;;;;;;;;;;;;;;;;;;;;;;;;;;;;;;;;;;;;;;;;;;;;;;"1261";"2014-10-07 09:24:52.909";"NST_correctLoc";"18";"1";"FINISHED";"RIGHT";"success";"350";"0";"2014-10-07 09:24:51.645";"3";;;;;;;;;;;;;;;;;;;;;;;;;;;;;;;;;
"ljcw1";"1996";;"Windows 7";"Rachel's Experiment (D.T.)";"1.0";"2";"1";"1";"2";"1";"1";"2014-10-07 09:18:43.484";"2014-10-07 09:33:52.092";"1";"0";"0";"105";"104";"module.training_block3.exec-2288.GoNoGo3";;;;;;;;;;;;;;;;;;;;;;;;;;;;;;;;;;;;;;;;;;;;;;;"1262";"2014-10-07 09:24:55.451";"NST_correctLoc";"10";"0";"FINISHED";"LEFT";"success";"343";"0";"2014-10-07 09:24:54.188";"2";;;;;;;;;;;;;;;;;;;;;;;;;;;;;;;;;
"ljcw1";"1996";;"Windows 7";"Rachel's Experiment (D.T.)";"1.0";"2";"1";"1";"2";"1";"1";"2014-10-07 09:18:43.484";"2014-10-07 09:33:52.092";"1";"0";"0";"106";"105";"module.training_block3.exec-2288.GoNoGo3";;;;;;;;;;;;;;;;;;;;;;;;;;;;;;;;;;;;;;;;;;;;;;;"1261";"2014-10-07 09:24:57.979";"NST_correctLoc";"28";"0";"FINISHED";"LEFT";"success";"440";"0";"2014-10-07 09:24:56.715";"3";;;;;;;;;;;;;;;;;;;;;;;;;;;;;;;;;
"ljcw1";"1996";;"Windows 7";"Rachel's Experiment (D.T.)";"1.0";"2";"1";"1";"2";"1";"1";"2014-10-07 09:18:43.484";"2014-10-07 09:33:52.092";"1";"0";"0";"107";"106";"module.training_block3.exec-2288.GoNoGo3";;;;;;;;;;;;;;;;;;;;;;;;;;;;;;;;;;;;;;;;;;;;;;;"1261";"2014-10-07 09:25:00.506";"NST_correctLoc";"24";"1";"FINISHED";"RIGHT";"success";"353";"0";"2014-10-07 09:24:59.242";"3";;;;;;;;;;;;;;;;;;;;;;;;;;;;;;;;;
"ljcw1";"1996";;"Windows 7";"Rachel's Experiment (D.T.)";"1.0";"2";"1";"1";"2";"1";"1";"2014-10-07 09:18:43.484";"2014-10-07 09:33:52.092";"1";"0";"0";"108";"107";"module.training_block3.exec-2288.GoNoGo3";;;;;;;;;;;;;;;;;;;;;;;;;;;;;;;;;;;;;;;;;;;;;;;"1261";"2014-10-07 09:25:03.049";"NST_correctLoc";"6";"0";"FINISHED";"LEFT";"success";"378";"0";"2014-10-07 09:25:01.785";"1";;;;;;;;;;;;;;;;;;;;;;;;;;;;;;;;;
"ljcw1";"1996";;"Windows 7";"Rachel's Experiment (D.T.)";"1.0";"2";"1";"1";"2";"1";"1";"2014-10-07 09:18:43.484";"2014-10-07 09:33:52.092";"1";"0";"0";"109";"108";"module.training_block3.exec-2288.GoNoGo3";;;;;;;;;;;;;;;;;;;;;;;;;;;;;;;;;;;;;;;;;;;;;;;"1261";"2014-10-07 09:25:05.591";"NST_correctLoc";"25";"0";"FINISHED";"LEFT";"success";"395";"0";"2014-10-07 09:25:04.328";"3";;;;;;;;;;;;;;;;;;;;;;;;;;;;;;;;;
"ljcw1";"1996";;"Windows 7";"Rachel's Experiment (D.T.)";"1.0";"2";"1";"1";"2";"1";"1";"2014-10-07 09:18:43.484";"2014-10-07 09:33:52.092";"1";"0";"0";"110";"109";"module.training_block3.exec-2288.GoNoGo3";;;;;;;;;;;;;;;;;;;;;;;;;;;;;;;;;;;;;;;;;;;;;;;"1261";"2014-10-07 09:25:08.119";"NST_correctLoc";"21";"0";"FINISHED";"LEFT";"success";"348";"0";"2014-10-07 09:25:06.855";"3";;;;;;;;;;;;;;;;;;;;;;;;;;;;;;;;;
"ljcw1";"1996";;"Windows 7";"Rachel's Experiment (D.T.)";"1.0";"2";"1";"1";"2";"1";"1";"2014-10-07 09:18:43.484";"2014-10-07 09:33:52.092";"1";"0";"0";"111";"110";"module.training_block3.exec-2288.GoNoGo3";;;;;;;;;;;;;;;;;;;;;;;;;;;;;;;;;;;;;;;;;;;;;;;"1261";"2014-10-07 09:25:10.646";"NST_correctLoc";"34";"0";"FINISHED";"LEFT";"success";"413";"0";"2014-10-07 09:25:09.382";"3";;;;;;;;;;;;;;;;;;;;;;;;;;;;;;;;;
"ljcw1";"1996";;"Windows 7";"Rachel's Experiment (D.T.)";"1.0";"2";"1";"1";"2";"1";"1";"2014-10-07 09:18:43.484";"2014-10-07 09:33:52.092";"1";"0";"0";"112";"111";"module.training_block3.exec-2288.GoNoGo3";;;;;;;;;;;;;;;;;;;;;;;;;;;;;;;;;;;;;;;;;;;;;;;"1261";"2014-10-07 09:25:13.173";"NST_correctLoc";"20";"0";"FINISHED";"LEFT";"success";"390";"0";"2014-10-07 09:25:11.909";"3";;;;;;;;;;;;;;;;;;;;;;;;;;;;;;;;;
"ljcw1";"1996";;"Windows 7";"Rachel's Experiment (D.T.)";"1.0";"2";"1";"1";"2";"1";"1";"2014-10-07 09:18:43.484";"2014-10-07 09:33:52.092";"1";"0";"0";"113";"112";"module.training_block3.exec-2288.GoNoGo3";;;;;;;;;;;;;;;;;;;;;;;;;;;;;;;;;;;;;;;;;;;;;;;"1261";"2014-10-07 09:25:15.716";"NST_correctLoc";"22";"0";"FINISHED";"LEFT";"success";"415";"0";"2014-10-07 09:25:14.452";"3";;;;;;;;;;;;;;;;;;;;;;;;;;;;;;;;;
"ljcw1";"1996";;"Windows 7";"Rachel's Experiment (D.T.)";"1.0";"2";"1";"1";"2";"1";"1";"2014-10-07 09:18:43.484";"2014-10-07 09:33:52.092";"1";"0";"0";"114";"113";"module.training_block3.exec-2288.GoNoGo3";;;;;;;;;;;;;;;;;;;;;;;;;;;;;;;;;;;;;;;;;;;;;;;"1261";"2014-10-07 09:25:18.243";"NST_correctLoc";"3";"0";"FINISHED";"LEFT";"success";"504";"0";"2014-10-07 09:25:16.979";"1";;;;;;;;;;;;;;;;;;;;;;;;;;;;;;;;;
"ljcw1";"1996";;"Windows 7";"Rachel's Experiment (D.T.)";"1.0";"2";"1";"1";"2";"1";"1";"2014-10-07 09:18:43.484";"2014-10-07 09:33:52.092";"1";"0";"0";"115";"114";"module.training_block3.exec-2288.GoNoGo3";;;;;;;;;;;;;;;;;;;;;;;;;;;;;;;;;;;;;;;;;;;;;;;"1261";"2014-10-07 09:25:20.770";"NST_correctLoc";"17";"0";"FINISHED";"LEFT";"success";"352";"0";"2014-10-07 09:25:19.507";"2";;;;;;;;;;;;;;;;;;;;;;;;;;;;;;;;;
"ljcw1";"1996";;"Windows 7";"Rachel's Experiment (D.T.)";"1.0";"2";"1";"1";"2";"1";"1";"2014-10-07 09:18:43.484";"2014-10-07 09:33:52.092";"1";"0";"0";"116";"115";"module.training_block3.exec-2288.GoNoGo3";;;;;;;;;;;;;;;;;;;;;;;;;;;;;;;;;;;;;;;;;;;;;;;"1261";"2014-10-07 09:25:23.297";"NST_correctLoc";"27";"0";"FINISHED";"LEFT";"success";"321";"0";"2014-10-07 09:25:22.034";"3";;;;;;;;;;;;;;;;;;;;;;;;;;;;;;;;;
"ljcw1";"1996";;"Windows 7";"Rachel's Experiment (D.T.)";"1.0";"2";"1";"1";"2";"1";"1";"2014-10-07 09:18:43.484";"2014-10-07 09:33:52.092";"1";"0";"0";"117";"116";"module.training_block3.exec-2288.GoNoGo3";;;;;;;;;;;;;;;;;;;;;;;;;;;;;;;;;;;;;;;;;;;;;;;"1262";"2014-10-07 09:25:25.825";"NST_correctLoc";"16";"1";"FINISHED";"RIGHT";"success";"482";"0";"2014-10-07 09:25:24.561";"2";;;;;;;;;;;;;;;;;;;;;;;;;;;;;;;;;
"ljcw1";"1996";;"Windows 7";"Rachel's Experiment (D.T.)";"1.0";"2";"1";"1";"2";"1";"1";"2014-10-07 09:18:43.484";"2014-10-07 09:33:52.092";"1";"0";"0";"118";"117";"module.training_block3.exec-2288.GoNoGo3";;;;;;;;;;;;;;;;;;;;;;;;;;;;;;;;;;;;;;;;;;;;;;;"1262";"2014-10-07 09:25:28.367";"NST_correctLoc";"5";"1";"FINISHED";"RIGHT";"success";"347";"0";"2014-10-07 09:25:27.104";"1";;;;;;;;;;;;;;;;;;;;;;;;;;;;;;;;;
"ljcw1";"1996";;"Windows 7";"Rachel's Experiment (D.T.)";"1.0";"2";"1";"1";"2";"1";"1";"2014-10-07 09:18:43.484";"2014-10-07 09:33:52.092";"1";"0";"0";"119";"118";"module.training_block3.exec-2288.GoNoGo3";;;;;;;;;;;;;;;;;;;;;;;;;;;;;;;;;;;;;;;;;;;;;;;"1262";"2014-10-07 09:25:30.895";"NST_correctLoc";"30";"1";"FINISHED";"RIGHT";"success";"364";"0";"2014-10-07 09:25:29.631";"3";;;;;;;;;;;;;;;;;;;;;;;;;;;;;;;;;
"ljcw1";"1996";;"Windows 7";"Rachel's Experiment (D.T.)";"1.0";"2";"1";"1";"2";"1";"1";"2014-10-07 09:18:43.484";"2014-10-07 09:33:52.092";"1";"0";"0";"120";"119";"module.training_block3.exec-2288.GoNoGo3";;;;;;;;;;;;;;;;;;;;;;;;;;;;;;;;;;;;;;;;;;;;;;;"1261";"2014-10-07 09:25:33.422";"NST_correctLoc";"11";"1";"FINISHED";"RIGHT";"success";"420";"0";"2014-10-07 09:25:32.158";"2";;;;;;;;;;;;;;;;;;;;;;;;;;;;;;;;;
"ljcw1";"1996";;"Windows 7";"Rachel's Experiment (D.T.)";"1.0";"2";"1";"1";"2";"1";"1";"2014-10-07 09:18:43.484";"2014-10-07 09:33:52.092";"1";"0";"0";"121";"120";"module.training_block3.exec-2288.GoNoGo3";;;;;;;;;;;;;;;;;;;;;;;;;;;;;;;;;;;;;;;;;;;;;;;"1262";"2014-10-07 09:25:35.965";"NST_correctLoc";"26";"0";"FINISHED";"LEFT";"success";"326";"0";"2014-10-07 09:25:34.701";"3";;;;;;;;;;;;;;;;;;;;;;;;;;;;;;;;;
"ljcw1";"1996";;"Windows 7";"Rachel's Experiment (D.T.)";"1.0";"2";"1";"1";"2";"1";"1";"2014-10-07 09:18:43.484";"2014-10-07 09:33:52.092";"1";"0";"0";"122";"121";"module.training_block3.exec-2288.GoNoGo3";;;;;;;;;;;;;;;;;;;;;;;;;;;;;;;;;;;;;;;;;;;;;;;"1262";"2014-10-07 09:25:38.492";"NST_correctLoc";"4";"1";"FINISHED";"RIGHT";"success";"303";"0";"2014-10-07 09:25:37.228";"1";;;;;;;;;;;;;;;;;;;;;;;;;;;;;;;;;
"ljcw1";"1996";;"Windows 7";"Rachel's Experiment (D.T.)";"1.0";"2";"1";"1";"2";"1";"1";"2014-10-07 09:18:43.484";"2014-10-07 09:33:52.092";"1";"0";"0";"123";"122";"module.training_block3.exec-2288.GoNoGo3";;;;;;;;;;;;;;;;;;;;;;;;;;;;;;;;;;;;;;;;;;;;;;;"1261";"2014-10-07 09:25:41.035";"NST_correctLoc";"31";"1";"FINISHED";"RIGHT";"success";"312";"0";"2014-10-07 09:25:39.771";"3";;;;;;;;;;;;;;;;;;;;;;;;;;;;;;;;;
"ljcw1";"1996";;"Windows 7";"Rachel's Experiment (D.T.)";"1.0";"2";"1";"1";"2";"1";"1";"2014-10-07 09:18:43.484";"2014-10-07 09:33:52.092";"1";"0";"0";"124";"123";"module.training_block4.exec-6859.GoNoGo4";;;;;;;;;;;;;;;;;;;;;;;;;;;;;;;;;;;;;;;;;;;;;;;;;;;;;;;;;;;"1261";"2014-10-07 09:25:53.109";"NST_correctLoc";"20";"0";"FINISHED";"LEFT";"success";"613";"0";"2014-10-07 09:25:51.846";"3";;;;;;;;;;;;;;;;;;;;;
"ljcw1";"1996";;"Windows 7";"Rachel's Experiment (D.T.)";"1.0";"2";"1";"1";"2";"1";"1";"2014-10-07 09:18:43.484";"2014-10-07 09:33:52.092";"1";"0";"0";"125";"124";"module.training_block4.exec-6859.GoNoGo4";;;;;;;;;;;;;;;;;;;;;;;;;;;;;;;;;;;;;;;;;;;;;;;;;;;;;;;;;;;"1262";"2014-10-07 09:25:55.652";"NST_correctLoc";"3";"0";"FINISHED";"LEFT";"success";"398";"0";"2014-10-07 09:25:54.388";"1";;;;;;;;;;;;;;;;;;;;;
"ljcw1";"1996";;"Windows 7";"Rachel's Experiment (D.T.)";"1.0";"2";"1";"1";"2";"1";"1";"2014-10-07 09:18:43.484";"2014-10-07 09:33:52.092";"1";"0";"0";"126";"125";"module.training_block4.exec-6859.GoNoGo4";;;;;;;;;;;;;;;;;;;;;;;;;;;;;;;;;;;;;;;;;;;;;;;;;;;;;;;;;;;"1261";"2014-10-07 09:25:58.179";"NST_correctLoc";"26";"0";"FINISHED";"LEFT";"success";"359";"0";"2014-10-07 09:25:56.916";"3";;;;;;;;;;;;;;;;;;;;;
"ljcw1";"1996";;"Windows 7";"Rachel's Experiment (D.T.)";"1.0";"2";"1";"1";"2";"1";"1";"2014-10-07 09:18:43.484";"2014-10-07 09:33:52.092";"1";"0";"0";"127";"126";"module.training_block4.exec-6859.GoNoGo4";;;;;;;;;;;;;;;;;;;;;;;;;;;;;;;;;;;;;;;;;;;;;;;;;;;;;;;;;;;"1261";"2014-10-07 09:26:00.706";"NST_correctLoc";"12";"1";"FINISHED";"RIGHT";"success";"384";"0";"2014-10-07 09:25:59.443";"2";;;;;;;;;;;;;;;;;;;;;
"ljcw1";"1996";;"Windows 7";"Rachel's Experiment (D.T.)";"1.0";"2";"1";"1";"2";"1";"1";"2014-10-07 09:18:43.484";"2014-10-07 09:33:52.092";"1";"0";"0";"128";"127";"module.training_block4.exec-6859.GoNoGo4";;;;;;;;;;;;;;;;;;;;;;;;;;;;;;;;;;;;;;;;;;;;;;;;;;;;;;;;;;;"1261";"2014-10-07 09:26:03.249";"NST_correctLoc";"18";"1";"FINISHED";"RIGHT";"success";"393";"0";"2014-10-07 09:26:01.986";"3";;;;;;;;;;;;;;;;;;;;;
"ljcw1";"1996";;"Windows 7";"Rachel's Experiment (D.T.)";"1.0";"2";"1";"1";"2";"1";"1";"2014-10-07 09:18:43.484";"2014-10-07 09:33:52.092";"1";"0";"0";"129";"128";"module.training_block4.exec-6859.GoNoGo4";;;;;;;;;;;;;;;;;;;;;;;;;;;;;;;;;;;;;;;;;;;;;;;;;;;;;;;;;;;"1261";"2014-10-07 09:26:05.776";"NST_correctLoc";"4";"1";"FINISHED";"RIGHT";"success";"362";"0";"2014-10-07 09:26:04.513";"1";;;;;;;;;;;;;;;;;;;;;
"ljcw1";"1996";;"Windows 7";"Rachel's Experiment (D.T.)";"1.0";"2";"1";"1";"2";"1";"1";"2014-10-07 09:18:43.484";"2014-10-07 09:33:52.092";"1";"0";"0";"130";"129";"module.training_block4.exec-6859.GoNoGo4";;;;;;;;;;;;;;;;;;;;;;;;;;;;;;;;;;;;;;;;;;;;;;;;;;;;;;;;;;;"1261";"2014-10-07 09:26:08.304";"NST_correctLoc";"32";"1";"FINISHED";"RIGHT";"success";"347";"0";"2014-10-07 09:26:07.040";"3";;;;;;;;;;;;;;;;;;;;;
"ljcw1";"1996";;"Windows 7";"Rachel's Experiment (D.T.)";"1.0";"2";"1";"1";"2";"1";"1";"2014-10-07 09:18:43.484";"2014-10-07 09:33:52.092";"1";"0";"0";"131";"130";"module.training_block4.exec-6859.GoNoGo4";;;;;;;;;;;;;;;;;;;;;;;;;;;;;;;;;;;;;;;;;;;;;;;;;;;;;;;;;;;"1262";"2014-10-07 09:26:10.862";"NST_correctLoc";"6";"0";"FINISHED";"LEFT";"success";"348";"0";"2014-10-07 09:26:09.598";"1";;;;;;;;;;;;;;;;;;;;;
"ljcw1";"1996";;"Windows 7";"Rachel's Experiment (D.T.)";"1.0";"2";"1";"1";"2";"1";"1";"2014-10-07 09:18:43.484";"2014-10-07 09:33:52.092";"1";"0";"0";"132";"131";"module.training_block4.exec-6859.GoNoGo4";;;;;;;;;;;;;;;;;;;;;;;;;;;;;;;;;;;;;;;;;;;;;;;;;;;;;;;;;;;"1262";"2014-10-07 09:26:13.389";"NST_correctLoc";"16";"1";"FINISHED";"RIGHT";"success";"317";"0";"2014-10-07 09:26:12.126";"2";;;;;;;;;;;;;;;;;;;;;
"ljcw1";"1996";;"Windows 7";"Rachel's Experiment (D.T.)";"1.0";"2";"1";"1";"2";"1";"1";"2014-10-07 09:18:43.484";"2014-10-07 09:33:52.092";"1";"0";"0";"133";"132";"module.training_block4.exec-6859.GoNoGo4";;;;;;;;;;;;;;;;;;;;;;;;;;;;;;;;;;;;;;;;;;;;;;;;;;;;;;;;;;;"1261";"2014-10-07 09:26:15.932";"NST_correctLoc";"23";"1";"FINISHED";"RIGHT";"success";"406";"0";"2014-10-07 09:26:14.668";"3";;;;;;;;;;;;;;;;;;;;;
"ljcw1";"1996";;"Windows 7";"Rachel's Experiment (D.T.)";"1.0";"2";"1";"1";"2";"1";"1";"2014-10-07 09:18:43.484";"2014-10-07 09:33:52.092";"1";"0";"0";"134";"133";"module.training_block4.exec-6859.GoNoGo4";;;;;;;;;;;;;;;;;;;;;;;;;;;;;;;;;;;;;;;;;;;;;;;;;;;;;;;;;;;"1261";"2014-10-07 09:26:18.459";"NST_correctLoc";"28";"1";"FINISHED";"RIGHT";"success";"343";"0";"2014-10-07 09:26:17.196";"3";;;;;;;;;;;;;;;;;;;;;
"ljcw1";"1996";;"Windows 7";"Rachel's Experiment (D.T.)";"1.0";"2";"1";"1";"2";"1";"1";"2014-10-07 09:18:43.484";"2014-10-07 09:33:52.092";"1";"0";"0";"135";"134";"module.training_block4.exec-6859.GoNoGo4";;;;;;;;;;;;;;;;;;;;;;;;;;;;;;;;;;;;;;;;;;;;;;;;;;;;;;;;;;;"1261";"2014-10-07 09:26:20.986";"NST_correctLoc";"24";"1";"FINISHED";"RIGHT";"success";"328";"0";"2014-10-07 09:26:19.723";"3";;;;;;;;;;;;;;;;;;;;;
"ljcw1";"1996";;"Windows 7";"Rachel's Experiment (D.T.)";"1.0";"2";"1";"1";"2";"1";"1";"2014-10-07 09:18:43.484";"2014-10-07 09:33:52.092";"1";"0";"0";"136";"135";"module.training_block4.exec-6859.GoNoGo4";;;;;;;;;;;;;;;;;;;;;;;;;;;;;;;;;;;;;;;;;;;;;;;;;;;;;;;;;;;"1261";"2014-10-07 09:26:23.514";"NST_correctLoc";"5";"1";"FINISHED";"RIGHT";"success";"329";"0";"2014-10-07 09:26:22.250";"1";;;;;;;;;;;;;;;;;;;;;
"ljcw1";"1996";;"Windows 7";"Rachel's Experiment (D.T.)";"1.0";"2";"1";"1";"2";"1";"1";"2014-10-07 09:18:43.484";"2014-10-07 09:33:52.092";"1";"0";"0";"137";"136";"module.training_block4.exec-6859.GoNoGo4";;;;;;;;;;;;;;;;;;;;;;;;;;;;;;;;;;;;;;;;;;;;;;;;;;;;;;;;;;;"1261";"2014-10-07 09:26:26.041";"NST_correctLoc";"15";"0";"FINISHED";"LEFT";"success";"329";"0";"2014-10-07 09:26:24.777";"2";;;;;;;;;;;;;;;;;;;;;
"ljcw1";"1996";;"Windows 7";"Rachel's Experiment (D.T.)";"1.0";"2";"1";"1";"2";"1";"1";"2014-10-07 09:18:43.484";"2014-10-07 09:33:52.092";"1";"0";"0";"138";"137";"module.training_block4.exec-6859.GoNoGo4";;;;;;;;;;;;;;;;;;;;;;;;;;;;;;;;;;;;;;;;;;;;;;;;;;;;;;;;;;;"1261";"2014-10-07 09:26:28.568";"NST_correctLoc";"29";"0";"FINISHED";"LEFT";"success";"354";"0";"2014-10-07 09:26:27.304";"3";;;;;;;;;;;;;;;;;;;;;
"ljcw1";"1996";;"Windows 7";"Rachel's Experiment (D.T.)";"1.0";"2";"1";"1";"2";"1";"1";"2014-10-07 09:18:43.484";"2014-10-07 09:33:52.092";"1";"0";"0";"139";"138";"module.training_block4.exec-6859.GoNoGo4";;;;;;;;;;;;;;;;;;;;;;;;;;;;;;;;;;;;;;;;;;;;;;;;;;;;;;;;;;;"1262";"2014-10-07 09:26:31.095";"NST_correctLoc";"0";"1";"FINISHED";"RIGHT";"success";"355";"0";"2014-10-07 09:26:29.832";"1";;;;;;;;;;;;;;;;;;;;;
"ljcw1";"1996";;"Windows 7";"Rachel's Experiment (D.T.)";"1.0";"2";"1";"1";"2";"1";"1";"2014-10-07 09:18:43.484";"2014-10-07 09:33:52.092";"1";"0";"0";"140";"139";"module.training_block4.exec-6859.GoNoGo4";;;;;;;;;;;;;;;;;;;;;;;;;;;;;;;;;;;;;;;;;;;;;;;;;;;;;;;;;;;"1262";"2014-10-07 09:26:33.622";"NST_correctLoc";"7";"1";"FINISHED";"RIGHT";"success";"412";"0";"2014-10-07 09:26:32.359";"1";;;;;;;;;;;;;;;;;;;;;
"ljcw1";"1996";;"Windows 7";"Rachel's Experiment (D.T.)";"1.0";"2";"1";"1";"2";"1";"1";"2014-10-07 09:18:43.484";"2014-10-07 09:33:52.092";"1";"0";"0";"141";"140";"module.training_block4.exec-6859.GoNoGo4";;;;;;;;;;;;;;;;;;;;;;;;;;;;;;;;;;;;;;;;;;;;;;;;;;;;;;;;;;;"1262";"2014-10-07 09:26:36.165";"NST_correctLoc";"27";"0";"FINISHED";"LEFT";"success";"421";"0";"2014-10-07 09:26:34.902";"3";;;;;;;;;;;;;;;;;;;;;
"ljcw1";"1996";;"Windows 7";"Rachel's Experiment (D.T.)";"1.0";"2";"1";"1";"2";"1";"1";"2014-10-07 09:18:43.484";"2014-10-07 09:33:52.092";"1";"0";"0";"142";"141";"module.training_block4.exec-6859.GoNoGo4";;;;;;;;;;;;;;;;;;;;;;;;;;;;;;;;;;;;;;;;;;;;;;;;;;;;;;;;;;;"1262";"2014-10-07 09:26:38.692";"NST_correctLoc";"1";"0";"FINISHED";"LEFT";"success";"470";"0";"2014-10-07 09:26:37.429";"1";;;;;;;;;;;;;;;;;;;;;
"ljcw1";"1996";;"Windows 7";"Rachel's Experiment (D.T.)";"1.0";"2";"1";"1";"2";"1";"1";"2014-10-07 09:18:43.484";"2014-10-07 09:33:52.092";"1";"0";"0";"143";"142";"module.training_block4.exec-6859.GoNoGo4";;;;;;;;;;;;;;;;;;;;;;;;;;;;;;;;;;;;;;;;;;;;;;;;;;;;;;;;;;;"1262";"2014-10-07 09:26:41.235";"NST_correctLoc";"13";"1";"FINISHED";"RIGHT";"success";"399";"0";"2014-10-07 09:26:39.972";"2";;;;;;;;;;;;;;;;;;;;;
"ljcw1";"1996";;"Windows 7";"Rachel's Experiment (D.T.)";"1.0";"2";"1";"1";"2";"1";"1";"2014-10-07 09:18:43.484";"2014-10-07 09:33:52.092";"1";"0";"0";"144";"143";"module.training_block4.exec-6859.GoNoGo4";;;;;;;;;;;;;;;;;;;;;;;;;;;;;;;;;;;;;;;;;;;;;;;;;;;;;;;;;;;"1261";"2014-10-07 09:26:43.762";"NST_correctLoc";"8";"0";"FINISHED";"LEFT";"success";"392";"0";"2014-10-07 09:26:42.499";"1";;;;;;;;;;;;;;;;;;;;;
"ljcw1";"1996";;"Windows 7";"Rachel's Experiment (D.T.)";"1.0";"2";"1";"1";"2";"1";"1";"2014-10-07 09:18:43.484";"2014-10-07 09:33:52.092";"1";"0";"0";"145";"144";"module.training_block4.exec-6859.GoNoGo4";;;;;;;;;;;;;;;;;;;;;;;;;;;;;;;;;;;;;;;;;;;;;;;;;;;;;;;;;;;"1262";"2014-10-07 09:26:46.290";"NST_correctLoc";"22";"1";"FINISHED";"RIGHT";"success";"312";"0";"2014-10-07 09:26:45.026";"3";;;;;;;;;;;;;;;;;;;;;
"ljcw1";"1996";;"Windows 7";"Rachel's Experiment (D.T.)";"1.0";"2";"1";"1";"2";"1";"1";"2014-10-07 09:18:43.484";"2014-10-07 09:33:52.092";"1";"0";"0";"146";"145";"module.training_block4.exec-6859.GoNoGo4";;;;;;;;;;;;;;;;;;;;;;;;;;;;;;;;;;;;;;;;;;;;;;;;;;;;;;;;;;;"1262";"2014-10-07 09:26:48.832";"NST_correctLoc";"34";"1";"FINISHED";"RIGHT";"success";"362";"0";"2014-10-07 09:26:47.569";"3";;;;;;;;;;;;;;;;;;;;;
"ljcw1";"1996";;"Windows 7";"Rachel's Experiment (D.T.)";"1.0";"2";"1";"1";"2";"1";"1";"2014-10-07 09:18:43.484";"2014-10-07 09:33:52.092";"1";"0";"0";"147";"146";"module.training_block4.exec-6859.GoNoGo4";;;;;;;;;;;;;;;;;;;;;;;;;;;;;;;;;;;;;;;;;;;;;;;;;;;;;;;;;;;"1262";"2014-10-07 09:26:51.360";"NST_correctLoc";"10";"1";"FINISHED";"RIGHT";"success";"354";"0";"2014-10-07 09:26:50.096";"2";;;;;;;;;;;;;;;;;;;;;
"ljcw1";"1996";;"Windows 7";"Rachel's Experiment (D.T.)";"1.0";"2";"1";"1";"2";"1";"1";"2014-10-07 09:18:43.484";"2014-10-07 09:33:52.092";"1";"0";"0";"148";"147";"module.training_block4.exec-6859.GoNoGo4";;;;;;;;;;;;;;;;;;;;;;;;;;;;;;;;;;;;;;;;;;;;;;;;;;;;;;;;;;;"1262";"2014-10-07 09:26:53.887";"NST_correctLoc";"31";"0";"FINISHED";"LEFT";"success";"331";"0";"2014-10-07 09:26:52.623";"3";;;;;;;;;;;;;;;;;;;;;
"ljcw1";"1996";;"Windows 7";"Rachel's Experiment (D.T.)";"1.0";"2";"1";"1";"2";"1";"1";"2014-10-07 09:18:43.484";"2014-10-07 09:33:52.092";"1";"0";"0";"149";"148";"module.training_block4.exec-6859.GoNoGo4";;;;;;;;;;;;;;;;;;;;;;;;;;;;;;;;;;;;;;;;;;;;;;;;;;;;;;;;;;;"1262";"2014-10-07 09:26:56.445";"NST_correctLoc";"9";"0";"FINISHED";"LEFT";"success";"405";"0";"2014-10-07 09:26:55.182";"2";;;;;;;;;;;;;;;;;;;;;
"ljcw1";"1996";;"Windows 7";"Rachel's Experiment (D.T.)";"1.0";"2";"1";"1";"2";"1";"1";"2014-10-07 09:18:43.484";"2014-10-07 09:33:52.092";"1";"0";"0";"150";"149";"module.training_block4.exec-6859.GoNoGo4";;;;;;;;;;;;;;;;;;;;;;;;;;;;;;;;;;;;;;;;;;;;;;;;;;;;;;;;;;;"1262";"2014-10-07 09:26:58.972";"NST_correctLoc";"19";"1";"FINISHED";"RIGHT";"success";"317";"0";"2014-10-07 09:26:57.709";"3";;;;;;;;;;;;;;;;;;;;;
"ljcw1";"1996";;"Windows 7";"Rachel's Experiment (D.T.)";"1.0";"2";"1";"1";"2";"1";"1";"2014-10-07 09:18:43.484";"2014-10-07 09:33:52.092";"1";"0";"0";"151";"150";"module.training_block4.exec-6859.GoNoGo4";;;;;;;;;;;;;;;;;;;;;;;;;;;;;;;;;;;;;;;;;;;;;;;;;;;;;;;;;;;"1261";"2014-10-07 09:27:01.515";"NST_correctLoc";"17";"0";"FINISHED";"LEFT";"success";"343";"0";"2014-10-07 09:27:00.252";"2";;;;;;;;;;;;;;;;;;;;;
"ljcw1";"1996";;"Windows 7";"Rachel's Experiment (D.T.)";"1.0";"2";"1";"1";"2";"1";"1";"2014-10-07 09:18:43.484";"2014-10-07 09:33:52.092";"1";"0";"0";"152";"151";"module.training_block4.exec-6859.GoNoGo4";;;;;;;;;;;;;;;;;;;;;;;;;;;;;;;;;;;;;;;;;;;;;;;;;;;;;;;;;;;"1261";"2014-10-07 09:27:04.042";"NST_correctLoc";"35";"0";"FINISHED";"LEFT";"success";"375";"0";"2014-10-07 09:27:02.779";"3";;;;;;;;;;;;;;;;;;;;;
"ljcw1";"1996";;"Windows 7";"Rachel's Experiment (D.T.)";"1.0";"2";"1";"1";"2";"1";"1";"2014-10-07 09:18:43.484";"2014-10-07 09:33:52.092";"1";"0";"0";"153";"152";"module.training_block4.exec-6859.GoNoGo4";;;;;;;;;;;;;;;;;;;;;;;;;;;;;;;;;;;;;;;;;;;;;;;;;;;;;;;;;;;"1262";"2014-10-07 09:27:06.570";"NST_correctLoc";"11";"1";"FINISHED";"RIGHT";"success";"328";"0";"2014-10-07 09:27:05.306";"2";;;;;;;;;;;;;;;;;;;;;
"ljcw1";"1996";;"Windows 7";"Rachel's Experiment (D.T.)";"1.0";"2";"1";"1";"2";"1";"1";"2014-10-07 09:18:43.484";"2014-10-07 09:33:52.092";"1";"0";"0";"154";"153";"module.training_block4.exec-6859.GoNoGo4";;;;;;;;;;;;;;;;;;;;;;;;;;;;;;;;;;;;;;;;;;;;;;;;;;;;;;;;;;;"1262";"2014-10-07 09:27:09.128";"NST_correctLoc";"25";"0";"FINISHED";"LEFT";"success";"346";"0";"2014-10-07 09:27:07.864";"3";;;;;;;;;;;;;;;;;;;;;
"ljcw1";"1996";;"Windows 7";"Rachel's Experiment (D.T.)";"1.0";"2";"1";"1";"2";"1";"1";"2014-10-07 09:18:43.484";"2014-10-07 09:33:52.092";"1";"0";"0";"155";"154";"module.training_block4.exec-6859.GoNoGo4";;;;;;;;;;;;;;;;;;;;;;;;;;;;;;;;;;;;;;;;;;;;;;;;;;;;;;;;;;;"1262";"2014-10-07 09:27:11.655";"NST_correctLoc";"33";"0";"FINISHED";"LEFT";"success";"459";"0";"2014-10-07 09:27:10.392";"3";;;;;;;;;;;;;;;;;;;;;
"ljcw1";"1996";;"Windows 7";"Rachel's Experiment (D.T.)";"1.0";"2";"1";"1";"2";"1";"1";"2014-10-07 09:18:43.484";"2014-10-07 09:33:52.092";"1";"0";"0";"156";"155";"module.training_block4.exec-6859.GoNoGo4";;;;;;;;;;;;;;;;;;;;;;;;;;;;;;;;;;;;;;;;;;;;;;;;;;;;;;;;;;;"1261";"2014-10-07 09:27:14.198";"NST_correctLoc";"2";"1";"FINISHED";"RIGHT";"success";"308";"0";"2014-10-07 09:27:12.934";"1";;;;;;;;;;;;;;;;;;;;;
"ljcw1";"1996";;"Windows 7";"Rachel's Experiment (D.T.)";"1.0";"2";"1";"1";"2";"1";"1";"2014-10-07 09:18:43.484";"2014-10-07 09:33:52.092";"1";"0";"0";"157";"156";"module.training_block4.exec-6859.GoNoGo4";;;;;;;;;;;;;;;;;;;;;;;;;;;;;;;;;;;;;;;;;;;;;;;;;;;;;;;;;;;"1262";"2014-10-07 09:27:16.725";"NST_correctLoc";"30";"1";"FINISHED";"RIGHT";"success";"412";"0";"2014-10-07 09:27:15.462";"3";;;;;;;;;;;;;;;;;;;;;
"ljcw1";"1996";;"Windows 7";"Rachel's Experiment (D.T.)";"1.0";"2";"1";"1";"2";"1";"1";"2014-10-07 09:18:43.484";"2014-10-07 09:33:52.092";"1";"0";"0";"158";"157";"module.training_block4.exec-6859.GoNoGo4";;;;;;;;;;;;;;;;;;;;;;;;;;;;;;;;;;;;;;;;;;;;;;;;;;;;;;;;;;;"1261";"2014-10-07 09:27:19.252";"NST_correctLoc";"21";"1";"FINISHED";"RIGHT";"success";"357";"0";"2014-10-07 09:27:17.989";"3";;;;;;;;;;;;;;;;;;;;;
"ljcw1";"1996";;"Windows 7";"Rachel's Experiment (D.T.)";"1.0";"2";"1";"1";"2";"1";"1";"2014-10-07 09:18:43.484";"2014-10-07 09:33:52.092";"1";"0";"0";"159";"158";"module.training_block4.exec-6859.GoNoGo4";;;;;;;;;;;;;;;;;;;;;;;;;;;;;;;;;;;;;;;;;;;;;;;;;;;;;;;;;;;"1262";"2014-10-07 09:27:21.780";"NST_correctLoc";"14";"0";"FINISHED";"LEFT";"success";"398";"0";"2014-10-07 09:27:20.516";"2";;;;;;;;;;;;;;;;;;;;;
"ljcw1";"1996";;"Windows 7";"Rachel's Experiment (D.T.)";"1.0";"2";"1";"1";"2";"1";"1";"2014-10-07 09:18:43.484";"2014-10-07 09:33:52.092";"1";"0";"0";"160";"159";"module.devaluation_practice.exec-2272.devalPractice";;;;;;;;;;;;"16455";"2014-10-07 09:28:06.599";"0";"6";"4";"6";"6075";"3279";"4076";"2014-10-07 09:27:50.141";;;;;;;;;;;;;;;;;;;;;;;;;;;;;;;;;;;;;;;;;;;;;;;;;;;;;;;;;;;;;;;;;;;;;;
"ljcw1";"1996";;"Windows 7";"Rachel's Experiment (D.T.)";"1.0";"2";"1";"1";"2";"1";"1";"2014-10-07 09:18:43.484";"2014-10-07 09:33:52.092";"1";"0";"0";"161";"160";"module.devaluation_practice.exec-2272.devalPractice";;;;;;;;;;;;"13203";"2014-10-07 09:28:19.827";"1";"5";"6";"5";"4190";"4825";"1153";"2014-10-07 09:28:06.630";;;;;;;;;;;;;;;;;;;;;;;;;;;;;;;;;;;;;;;;;;;;;;;;;;;;;;;;;;;;;;;;;;;;;;
"ljcw1";"1996";;"Windows 7";"Rachel's Experiment (D.T.)";"1.0";"2";"1";"1";"2";"1";"1";"2014-10-07 09:18:43.484";"2014-10-07 09:33:52.092";"1";"0";"0";"162";"161";"module.devaluation_practice.exec-2272.devalPractice";;;;;;;;;;;;"27140";"2014-10-07 09:28:46.987";"2";"4";"6";"8";"15400";"5075";"3635";"2014-10-07 09:28:19.843";;;;;;;;;;;;;;;;;;;;;;;;;;;;;;;;;;;;;;;;;;;;;;;;;;;;;;;;;;;;;;;;;;;;;;
"ljcw1";"1996";;"Windows 7";"Rachel's Experiment (D.T.)";"1.0";"2";"1";"1";"2";"1";"1";"2014-10-07 09:18:43.484";"2014-10-07 09:33:52.092";"1";"0";"0";"163";"162";"module.devaluation_practice.exec-2272.devalPractice";;;;;;;;;;;;"12220";"2014-10-07 09:28:59.233";"3";"6";"6";"7";"4353";"2183";"2656";"2014-10-07 09:28:47.003";;;;;;;;;;;;;;;;;;;;;;;;;;;;;;;;;;;;;;;;;;;;;;;;;;;;;;;;;;;;;;;;;;;;;;
"ljcw1";"1996";;"Windows 7";"Rachel's Experiment (D.T.)";"1.0";"2";"1";"1";"2";"1";"1";"2014-10-07 09:18:43.484";"2014-10-07 09:33:52.092";"1";"0";"0";"164";"163";"module.devaluation_block1.exec-7917.deval1";"10144";"2014-10-07 09:29:18.296";"20";"7";"6";"7";"2286";"2239";"2591";"2014-10-07 09:29:08.156";"3";;;;;;;;;;;;;;;;;;;;;;;;;;;;;;;;;;;;;;;;;;;;;;;;;;;;;;;;;;;;;;;;;;;;;;;;;;;;;;;;
"ljcw1";"1996";;"Windows 7";"Rachel's Experiment (D.T.)";"1.0";"2";"1";"1";"2";"1";"1";"2014-10-07 09:18:43.484";"2014-10-07 09:33:52.092";"1";"0";"0";"165";"164";"module.devaluation_block1.exec-7917.deval1";"11804";"2014-10-07 09:29:30.121";"0";"6";"4";"6";"1788";"4484";"2519";"2014-10-07 09:29:18.312";"1";;;;;;;;;;;;;;;;;;;;;;;;;;;;;;;;;;;;;;;;;;;;;;;;;;;;;;;;;;;;;;;;;;;;;;;;;;;;;;;;
"ljcw1";"1996";;"Windows 7";"Rachel's Experiment (D.T.)";"1.0";"2";"1";"1";"2";"1";"1";"2014-10-07 09:18:43.484";"2014-10-07 09:33:52.092";"1";"0";"0";"166";"165";"module.devaluation_block1.exec-7917.deval1";"10884";"2014-10-07 09:29:41.026";"21";"3";"3";"6";"2258";"2144";"3458";"2014-10-07 09:29:30.137";"3";;;;;;;;;;;;;;;;;;;;;;;;;;;;;;;;;;;;;;;;;;;;;;;;;;;;;;;;;;;;;;;;;;;;;;;;;;;;;;;;
"ljcw1";"1996";;"Windows 7";"Rachel's Experiment (D.T.)";"1.0";"2";"1";"1";"2";"1";"1";"2014-10-07 09:18:43.484";"2014-10-07 09:33:52.092";"1";"0";"0";"167";"166";"module.devaluation_block1.exec-7917.deval1";"11608";"2014-10-07 09:29:52.663";"9";"5";"6";"5";"1556";"4814";"2186";"2014-10-07 09:29:41.057";"2";;;;;;;;;;;;;;;;;;;;;;;;;;;;;;;;;;;;;;;;;;;;;;;;;;;;;;;;;;;;;;;;;;;;;;;;;;;;;;;;
"ljcw1";"1996";;"Windows 7";"Rachel's Experiment (D.T.)";"1.0";"2";"1";"1";"2";"1";"1";"2014-10-07 09:18:43.484";"2014-10-07 09:33:52.092";"1";"0";"0";"168";"167";"module.devaluation_block1.exec-7917.deval1";"11238";"2014-10-07 09:30:03.911";"5";"7";"9";"9";"3261";"2833";"2109";"2014-10-07 09:29:52.679";"1";;;;;;;;;;;;;;;;;;;;;;;;;;;;;;;;;;;;;;;;;;;;;;;;;;;;;;;;;;;;;;;;;;;;;;;;;;;;;;;;
"ljcw1";"1996";;"Windows 7";"Rachel's Experiment (D.T.)";"1.0";"2";"1";"1";"2";"1";"1";"2014-10-07 09:18:43.484";"2014-10-07 09:33:52.092";"1";"0";"0";"169";"168";"module.devaluation_block1.exec-7917.deval1";"11997";"2014-10-07 09:30:15.938";"10";"9";"3";"6";"4645";"1760";"2561";"2014-10-07 09:30:03.926";"2";;;;;;;;;;;;;;;;;;;;;;;;;;;;;;;;;;;;;;;;;;;;;;;;;;;;;;;;;;;;;;;;;;;;;;;;;;;;;;;;
"ljcw1";"1996";;"Windows 7";"Rachel's Experiment (D.T.)";"1.0";"2";"1";"1";"2";"1";"1";"2014-10-07 09:18:43.484";"2014-10-07 09:33:52.092";"1";"0";"0";"170";"169";"module.devaluation_block1.exec-7917.deval1";"10554";"2014-10-07 09:30:26.500";"15";"2";"3";"3";"2329";"1354";"3842";"2014-10-07 09:30:15.954";"2";;;;;;;;;;;;;;;;;;;;;;;;;;;;;;;;;;;;;;;;;;;;;;;;;;;;;;;;;;;;;;;;;;;;;;;;;;;;;;;;
"ljcw1";"1996";;"Windows 7";"Rachel's Experiment (D.T.)";"1.0";"2";"1";"1";"2";"1";"1";"2014-10-07 09:18:43.484";"2014-10-07 09:33:52.092";"1";"0";"0";"171";"170";"module.devaluation_block1.exec-7917.deval1";"11197";"2014-10-07 09:30:37.716";"13";"5";"4";"4";"5232";"1026";"1908";"2014-10-07 09:30:26.531";"2";;;;;;;;;;;;;;;;;;;;;;;;;;;;;;;;;;;;;;;;;;;;;;;;;;;;;;;;;;;;;;;;;;;;;;;;;;;;;;;;
"ljcw1";"1996";;"Windows 7";"Rachel's Experiment (D.T.)";"1.0";"2";"1";"1";"2";"1";"1";"2014-10-07 09:18:43.484";"2014-10-07 09:33:52.092";"1";"0";"0";"172";"171";"module.devaluation_block1.exec-7917.deval1";"12180";"2014-10-07 09:30:49.931";"25";"6";"6";"7";"2624";"3366";"3160";"2014-10-07 09:30:37.747";"3";;;;;;;;;;;;;;;;;;;;;;;;;;;;;;;;;;;;;;;;;;;;;;;;;;;;;;;;;;;;;;;;;;;;;;;;;;;;;;;;
"ljcw1";"1996";;"Windows 7";"Rachel's Experiment (D.T.)";"1.0";"2";"1";"1";"2";"1";"1";"2014-10-07 09:18:43.484";"2014-10-07 09:33:52.092";"1";"0";"0";"173";"172";"module.devaluation_block1.exec-7917.deval1";"8725";"2014-10-07 09:30:58.667";"8";"8";"3";"4";"2281";"1066";"2336";"2014-10-07 09:30:49.946";"1";;;;;;;;;;;;;;;;;;;;;;;;;;;;;;;;;;;;;;;;;;;;;;;;;;;;;;;;;;;;;;;;;;;;;;;;;;;;;;;;
"ljcw1";"1996";;"Windows 7";"Rachel's Experiment (D.T.)";"1.0";"2";"1";"1";"2";"1";"1";"2014-10-07 09:18:43.484";"2014-10-07 09:33:52.092";"1";"0";"0";"174";"173";"module.devaluation_block1.exec-7917.deval1";"6845";"2014-10-07 09:31:05.531";"17";"3";"1";"3";"1049";"1549";"1225";"2014-10-07 09:30:58.682";"2";;;;;;;;;;;;;;;;;;;;;;;;;;;;;;;;;;;;;;;;;;;;;;;;;;;;;;;;;;;;;;;;;;;;;;;;;;;;;;;;
"ljcw1";"1996";;"Windows 7";"Rachel's Experiment (D.T.)";"1.0";"2";"1";"1";"2";"1";"1";"2014-10-07 09:18:43.484";"2014-10-07 09:33:52.092";"1";"0";"0";"175";"174";"module.devaluation_block1.exec-7917.deval1";"9099";"2014-10-07 09:31:14.657";"11";"5";"1";"3";"2617";"1972";"1481";"2014-10-07 09:31:05.562";"2";;;;;;;;;;;;;;;;;;;;;;;;;;;;;;;;;;;;;;;;;;;;;;;;;;;;;;;;;;;;;;;;;;;;;;;;;;;;;;;;
"ljcw1";"1996";;"Windows 7";"Rachel's Experiment (D.T.)";"1.0";"2";"1";"1";"2";"1";"1";"2014-10-07 09:18:43.484";"2014-10-07 09:33:52.092";"1";"0";"0";"176";"175";"module.devaluation_block1.exec-7917.deval1";"8460";"2014-10-07 09:31:23.143";"6";"4";"2";"3";"2611";"1295";"1531";"2014-10-07 09:31:14.673";"1";;;;;;;;;;;;;;;;;;;;;;;;;;;;;;;;;;;;;;;;;;;;;;;;;;;;;;;;;;;;;;;;;;;;;;;;;;;;;;;;
"ljcw1";"1996";;"Windows 7";"Rachel's Experiment (D.T.)";"1.0";"2";"1";"1";"2";"1";"1";"2014-10-07 09:18:43.484";"2014-10-07 09:33:52.092";"1";"0";"0";"177";"176";"module.devaluation_block1.exec-7917.deval1";"7317";"2014-10-07 09:31:30.475";"16";"3";"5";"4";"2116";"784";"1400";"2014-10-07 09:31:23.159";"2";;;;;;;;;;;;;;;;;;;;;;;;;;;;;;;;;;;;;;;;;;;;;;;;;;;;;;;;;;;;;;;;;;;;;;;;;;;;;;;;
"ljcw1";"1996";;"Windows 7";"Rachel's Experiment (D.T.)";"1.0";"2";"1";"1";"2";"1";"1";"2014-10-07 09:18:43.484";"2014-10-07 09:33:52.092";"1";"0";"0";"178";"177";"module.devaluation_block1.exec-7917.deval1";"11325";"2014-10-07 09:31:41.817";"24";"8";"9";"8";"3072";"3298";"1924";"2014-10-07 09:31:30.491";"3";;;;;;;;;;;;;;;;;;;;;;;;;;;;;;;;;;;;;;;;;;;;;;;;;;;;;;;;;;;;;;;;;;;;;;;;;;;;;;;;
"ljcw1";"1996";;"Windows 7";"Rachel's Experiment (D.T.)";"1.0";"2";"1";"1";"2";"1";"1";"2014-10-07 09:18:43.484";"2014-10-07 09:33:52.092";"1";"0";"0";"179";"178";"module.devaluation_block1.exec-7917.deval1";"11726";"2014-10-07 09:31:53.563";"3";"7";"9";"9";"3291";"2500";"2908";"2014-10-07 09:31:41.832";"1";;;;;;;;;;;;;;;;;;;;;;;;;;;;;;;;;;;;;;;;;;;;;;;;;;;;;;;;;;;;;;;;;;;;;;;;;;;;;;;;
"ljcw1";"1996";;"Windows 7";"Rachel's Experiment (D.T.)";"1.0";"2";"1";"1";"2";"1";"1";"2014-10-07 09:18:43.484";"2014-10-07 09:33:52.092";"1";"0";"0";"180";"179";"module.devaluation_block1.exec-7917.deval1";"15400";"2014-10-07 09:32:08.992";"19";"6";"7";"7";"3280";"1958";"7129";"2014-10-07 09:31:53.595";"3";;;;;;;;;;;;;;;;;;;;;;;;;;;;;;;;;;;;;;;;;;;;;;;;;;;;;;;;;;;;;;;;;;;;;;;;;;;;;;;;
"ljcw1";"1996";;"Windows 7";"Rachel's Experiment (D.T.)";"1.0";"2";"1";"1";"2";"1";"1";"2014-10-07 09:18:43.484";"2014-10-07 09:33:52.092";"1";"0";"0";"181";"180";"module.devaluation_block1.exec-7917.deval1";"12492";"2014-10-07 09:32:21.519";"26";"7";"6";"7";"2156";"4556";"2744";"2014-10-07 09:32:09.023";"3";;;;;;;;;;;;;;;;;;;;;;;;;;;;;;;;;;;;;;;;;;;;;;;;;;;;;;;;;;;;;;;;;;;;;;;;;;;;;;;;
"ljcw1";"1996";;"Windows 7";"Rachel's Experiment (D.T.)";"1.0";"2";"1";"1";"2";"1";"1";"2014-10-07 09:18:43.484";"2014-10-07 09:33:52.092";"1";"0";"0";"182";"181";"module.devaluation_block1.exec-7917.deval1";"9509";"2014-10-07 09:32:31.035";"12";"7";"9";"7";"2221";"1931";"2331";"2014-10-07 09:32:21.534";"2";;;;;;;;;;;;;;;;;;;;;;;;;;;;;;;;;;;;;;;;;;;;;;;;;;;;;;;;;;;;;;;;;;;;;;;;;;;;;;;;
"ljcw1";"1996";;"Windows 7";"Rachel's Experiment (D.T.)";"1.0";"2";"1";"1";"2";"1";"1";"2014-10-07 09:18:43.484";"2014-10-07 09:33:52.092";"1";"0";"0";"183";"182";"module.devaluation_block1.exec-7917.deval1";"15028";"2014-10-07 09:32:46.089";"22";"9";"8";"8";"5089";"2752";"4160";"2014-10-07 09:32:31.066";"3";;;;;;;;;;;;;;;;;;;;;;;;;;;;;;;;;;;;;;;;;;;;;;;;;;;;;;;;;;;;;;;;;;;;;;;;;;;;;;;;
"ljcw1";"1996";;"Windows 7";"Rachel's Experiment (D.T.)";"1.0";"2";"1";"1";"2";"1";"1";"2014-10-07 09:18:43.484";"2014-10-07 09:33:52.092";"1";"0";"0";"184";"183";"module.devaluation_block1.exec-7917.deval1";"10614";"2014-10-07 09:32:56.728";"23";"7";"3";"4";"2099";"1754";"3734";"2014-10-07 09:32:46.120";"3";;;;;;;;;;;;;;;;;;;;;;;;;;;;;;;;;;;;;;;;;;;;;;;;;;;;;;;;;;;;;;;;;;;;;;;;;;;;;;;;
"ljcw1";"1996";;"Windows 7";"Rachel's Experiment (D.T.)";"1.0";"2";"1";"1";"2";"1";"1";"2014-10-07 09:18:43.484";"2014-10-07 09:33:52.092";"1";"0";"0";"185";"184";"module.devaluation_block1.exec-7917.deval1";"8061";"2014-10-07 09:33:04.824";"14";"7";"6";"6";"1924";"1340";"1770";"2014-10-07 09:32:56.759";"2";;;;;;;;;;;;;;;;;;;;;;;;;;;;;;;;;;;;;;;;;;;;;;;;;;;;;;;;;;;;;;;;;;;;;;;;;;;;;;;;
"ljcw1";"1996";;"Windows 7";"Rachel's Experiment (D.T.)";"1.0";"2";"1";"1";"2";"1";"1";"2014-10-07 09:18:43.484";"2014-10-07 09:33:52.092";"1";"0";"0";"186";"185";"module.devaluation_block1.exec-7917.deval1";"9277";"2014-10-07 09:33:14.106";"1";"4";"6";"6";"2275";"1947";"2018";"2014-10-07 09:33:04.840";"1";;;;;;;;;;;;;;;;;;;;;;;;;;;;;;;;;;;;;;;;;;;;;;;;;;;;;;;;;;;;;;;;;;;;;;;;;;;;;;;;
"ljcw1";"1996";;"Windows 7";"Rachel's Experiment (D.T.)";"1.0";"2";"1";"1";"2";"1";"1";"2014-10-07 09:18:43.484";"2014-10-07 09:33:52.092";"1";"0";"0";"187";"186";"module.devaluation_block1.exec-7917.deval1";"11740";"2014-10-07 09:33:25.869";"18";"4";"8";"8";"2921";"1492";"4297";"2014-10-07 09:33:14.138";"3";;;;;;;;;;;;;;;;;;;;;;;;;;;;;;;;;;;;;;;;;;;;;;;;;;;;;;;;;;;;;;;;;;;;;;;;;;;;;;;;
"ljcw1";"1996";;"Windows 7";"Rachel's Experiment (D.T.)";"1.0";"2";"1";"1";"2";"1";"1";"2014-10-07 09:18:43.484";"2014-10-07 09:33:52.092";"1";"0";"0";"188";"187";"module.devaluation_block1.exec-7917.deval1";"7413";"2014-10-07 09:33:33.310";"2";"7";"9";"8";"1182";"1686";"1537";"2014-10-07 09:33:25.884";"1";;;;;;;;;;;;;;;;;;;;;;;;;;;;;;;;;;;;;;;;;;;;;;;;;;;;;;;;;;;;;;;;;;;;;;;;;;;;;;;;
"ljcw1";"1996";;"Windows 7";"Rachel's Experiment (D.T.)";"1.0";"2";"1";"1";"2";"1";"1";"2014-10-07 09:18:43.484";"2014-10-07 09:33:52.092";"1";"0";"0";"189";"188";"module.devaluation_block1.exec-7917.deval1";"7637";"2014-10-07 09:33:40.970";"7";"6";"6";"5";"2301";"1651";"653";"2014-10-07 09:33:33.326";"1";;;;;;;;;;;;;;;;;;;;;;;;;;;;;;;;;;;;;;;;;;;;;;;;;;;;;;;;;;;;;;;;;;;;;;;;;;;;;;;;
"ljcw1";"1996";;"Windows 7";"Rachel's Experiment (D.T.)";"1.0";"2";"1";"1";"2";"1";"1";"2014-10-07 09:18:43.484";"2014-10-07 09:33:52.092";"1";"0";"0";"190";"189";"module.devaluation_block1.exec-7917.deval1";"7920";"2014-10-07 09:33:48.910";"4";"6";"9";"9";"1425";"1951";"1515";"2014-10-07 09:33:40.985";"1";;;;;;;;;;;;;;;;;;;;;;;;;;;;;;;;;;;;;;;;;;;;;;;;;;;;;;;;;;;;;;;;;;;;;;;;;;;;;;;;
