"user.name";"user.yearOfBirth";"user.sex";"user.osName";"module.name";"module.version";"module.online.subject.code";"module.online.study.id";"module.online.module.nr";"module.online.group.nr";"session.id";"session.index";"session.startTime";"session.endTime";"session.completed";"session.node-6678.conditionType";"session.node-9493.DevalQorder";"trial.id";"trial.index";"trial.name";"trial.GoNoGo1.durationTime";"trial.GoNoGo1.endTime";"trial.GoNoGo1.Error Type";"trial.GoNoGo1.icon";"trial.GoNoGo1.location";"trial.GoNoGo1.outcome";"trial.GoNoGo1.response";"trial.GoNoGo1.result";"trial.GoNoGo1.RT";"trial.GoNoGo1.signal";"trial.GoNoGo1.startTime";"trial.GoNoGo1.stimulus type";"trial.GoNoGo2.durationTime";"trial.GoNoGo2.endTime";"trial.GoNoGo2.Error Type";"trial.GoNoGo2.icon";"trial.GoNoGo2.location";"trial.GoNoGo2.outcome";"trial.GoNoGo2.response";"trial.GoNoGo2.result";"trial.GoNoGo2.RT";"trial.GoNoGo2.signal";"trial.GoNoGo2.startTime";"trial.GoNoGo2.stimulus type";"trial.GoNoGo3.durationTime";"trial.GoNoGo3.endTime";"trial.GoNoGo3.Error Type";"trial.GoNoGo3.icon";"trial.GoNoGo3.location";"trial.GoNoGo3.outcome";"trial.GoNoGo3.response";"trial.GoNoGo3.result";"trial.GoNoGo3.RT";"trial.GoNoGo3.signal";"trial.GoNoGo3.startTime";"trial.GoNoGo3.stimulus type";"trial.GoNoGo4.durationTime";"trial.GoNoGo4.endTime";"trial.GoNoGo4.Error Type";"trial.GoNoGo4.icon";"trial.GoNoGo4.location";"trial.GoNoGo4.outcome";"trial.GoNoGo4.response";"trial.GoNoGo4.result";"trial.GoNoGo4.RT";"trial.GoNoGo4.signal";"trial.GoNoGo4.startTime";"trial.GoNoGo4.stimulus type";"trial.GoNoGo_Practice.durationTime";"trial.GoNoGo_Practice.endTime";"trial.GoNoGo_Practice.icon";"trial.GoNoGo_Practice.location";"trial.GoNoGo_Practice.outcome";"trial.GoNoGo_Practice.response";"trial.GoNoGo_Practice.result";"trial.GoNoGo_Practice.RT";"trial.GoNoGo_Practice.signal";"trial.GoNoGo_Practice.startTime";"trial.GoNoGo_Practice.stimulus type";"trial.GoNoGo_Tutorial.durationTime";"trial.GoNoGo_Tutorial.endTime";"trial.GoNoGo_Tutorial.icon";"trial.GoNoGo_Tutorial.location";"trial.GoNoGo_Tutorial.outcome";"trial.GoNoGo_Tutorial.response";"trial.GoNoGo_Tutorial.result";"trial.GoNoGo_Tutorial.RT";"trial.GoNoGo_Tutorial.signal";"trial.GoNoGo_Tutorial.startTime"
"EWEST16";"1995";;"Windows 7";"Rachel's Experiment (D.T.)";"1.0";"2";"1";"1";"2";"1";"1";"2014-10-01 10:40:54.950";"2014-10-01 10:49:29.580";"1";"0";"1";"1";"0";"module.GoNoGotutorial.exec-2374.GoNoGo_Tutorial";;;;;;;;;;;;;;;;;;;;;;;;;;;;;;;;;;;;;;;;;;;;;;;;;;;;;;;;;;;;"3998";"2014-10-01 10:41:37.694";"leftResponse";"0";"FINISHED";"LEFT";"success";"494";"0";"2014-10-01 10:41:33.685"
"EWEST16";"1995";;"Windows 7";"Rachel's Experiment (D.T.)";"1.0";"2";"1";"1";"2";"1";"1";"2014-10-01 10:40:54.950";"2014-10-01 10:49:29.580";"1";"0";"1";"2";"1";"module.GoNoGotutorial.exec-2374.GoNoGo_Tutorial";;;;;;;;;;;;;;;;;;;;;;;;;;;;;;;;;;;;;;;;;;;;;;;;;;;;;;;;;;;;"4003";"2014-10-01 10:41:42.998";"rightResponse";"1";"FINISHED";"RIGHT";"success";"819";"0";"2014-10-01 10:41:38.989"
"EWEST16";"1995";;"Windows 7";"Rachel's Experiment (D.T.)";"1.0";"2";"1";"1";"2";"1";"1";"2014-10-01 10:40:54.950";"2014-10-01 10:49:29.580";"1";"0";"1";"3";"2";"module.GoNoGotutorial.exec-2374.GoNoGo_Tutorial";;;;;;;;;;;;;;;;;;;;;;;;;;;;;;;;;;;;;;;;;;;;;;;;;;;;;;;;;;;;"4003";"2014-10-01 10:41:48.302";"quickResponse";"0";"FINISHED";"LEFT";"success";"795";"0";"2014-10-01 10:41:44.293"
"EWEST16";"1995";;"Windows 7";"Rachel's Experiment (D.T.)";"1.0";"2";"1";"1";"2";"1";"1";"2014-10-01 10:40:54.950";"2014-10-01 10:49:29.580";"1";"0";"1";"4";"3";"module.GoNoGopractice.exec-1167.GoNoGo_Practice";;;;;;;;;;;;;;;;;;;;;;;;;;;;;;;;;;;;;;;;;;;;;;;;;"1959";"2014-10-01 10:41:57.023";"18";"0";"FINISHED";"LEFT";"success";"350";"0";"2014-10-01 10:41:55.057";"3";;;;;;;;;;
"EWEST16";"1995";;"Windows 7";"Rachel's Experiment (D.T.)";"1.0";"2";"1";"1";"2";"1";"1";"2014-10-01 10:40:54.950";"2014-10-01 10:49:29.580";"1";"0";"1";"5";"4";"module.GoNoGopractice.exec-1167.GoNoGo_Practice";;;;;;;;;;;;;;;;;;;;;;;;;;;;;;;;;;;;;;;;;;;;;;;;;"1959";"2014-10-01 10:42:00.268";"21";"1";"FINISHED";"RIGHT";"success";"314";"0";"2014-10-01 10:41:58.302";"3";;;;;;;;;;
"EWEST16";"1995";;"Windows 7";"Rachel's Experiment (D.T.)";"1.0";"2";"1";"1";"2";"1";"1";"2014-10-01 10:40:54.950";"2014-10-01 10:49:29.580";"1";"0";"1";"6";"5";"module.GoNoGopractice.exec-1167.GoNoGo_Practice";;;;;;;;;;;;;;;;;;;;;;;;;;;;;;;;;;;;;;;;;;;;;;;;;"1958";"2014-10-01 10:42:03.512";"14";"1";"FINISHED";"RIGHT";"success";"404";"0";"2014-10-01 10:42:01.547";"2";;;;;;;;;;
"EWEST16";"1995";;"Windows 7";"Rachel's Experiment (D.T.)";"1.0";"2";"1";"1";"2";"1";"1";"2014-10-01 10:40:54.950";"2014-10-01 10:49:29.580";"1";"0";"1";"7";"6";"module.GoNoGopractice.exec-1167.GoNoGo_Practice";;;;;;;;;;;;;;;;;;;;;;;;;;;;;;;;;;;;;;;;;;;;;;;;;"1959";"2014-10-01 10:42:06.757";"26";"0";"FINISHED";"LEFT";"success";"488";"0";"2014-10-01 10:42:04.792";"3";;;;;;;;;;
"EWEST16";"1995";;"Windows 7";"Rachel's Experiment (D.T.)";"1.0";"2";"1";"1";"2";"1";"1";"2014-10-01 10:40:54.950";"2014-10-01 10:49:29.580";"1";"0";"1";"8";"7";"module.GoNoGopractice.exec-1167.GoNoGo_Practice";;;;;;;;;;;;;;;;;;;;;;;;;;;;;;;;;;;;;;;;;;;;;;;;;"1959";"2014-10-01 10:42:10.002";"2";"0";"FINISHED";"LEFT";"success";"435";"0";"2014-10-01 10:42:08.036";"1";;;;;;;;;;
"EWEST16";"1995";;"Windows 7";"Rachel's Experiment (D.T.)";"1.0";"2";"1";"1";"2";"1";"1";"2014-10-01 10:40:54.950";"2014-10-01 10:49:29.580";"1";"0";"1";"9";"8";"module.GoNoGopractice.exec-1167.GoNoGo_Practice";;;;;;;;;;;;;;;;;;;;;;;;;;;;;;;;;;;;;;;;;;;;;;;;;"1960";"2014-10-01 10:42:13.262";"30";"0";"FINISHED";"LEFT";"success";"383";"0";"2014-10-01 10:42:11.297";"3";;;;;;;;;;
"EWEST16";"1995";;"Windows 7";"Rachel's Experiment (D.T.)";"1.0";"2";"1";"1";"2";"1";"1";"2014-10-01 10:40:54.950";"2014-10-01 10:49:29.580";"1";"0";"1";"10";"9";"module.GoNoGopractice.exec-1167.GoNoGo_Practice";;;;;;;;;;;;;;;;;;;;;;;;;;;;;;;;;;;;;;;;;;;;;;;;;"1959";"2014-10-01 10:42:16.507";"6";"1";"FINISHED";"RIGHT";"success";"394";"0";"2014-10-01 10:42:14.542";"1";;;;;;;;;;
"EWEST16";"1995";;"Windows 7";"Rachel's Experiment (D.T.)";"1.0";"2";"1";"1";"2";"1";"1";"2014-10-01 10:40:54.950";"2014-10-01 10:49:29.580";"1";"0";"1";"11";"10";"module.GoNoGopractice.exec-1167.GoNoGo_Practice";;;;;;;;;;;;;;;;;;;;;;;;;;;;;;;;;;;;;;;;;;;;;;;;;"1960";"2014-10-01 10:42:19.752";"34";"0";"FINISHED";"LEFT";"success";"406";"0";"2014-10-01 10:42:17.786";"3";;;;;;;;;;
"EWEST16";"1995";;"Windows 7";"Rachel's Experiment (D.T.)";"1.0";"2";"1";"1";"2";"1";"1";"2014-10-01 10:40:54.950";"2014-10-01 10:49:29.580";"1";"0";"1";"12";"11";"module.GoNoGopractice.exec-1167.GoNoGo_Practice";;;;;;;;;;;;;;;;;;;;;;;;;;;;;;;;;;;;;;;;;;;;;;;;;"1959";"2014-10-01 10:42:22.997";"23";"1";"FINISHED";"RIGHT";"success";"352";"0";"2014-10-01 10:42:21.031";"3";;;;;;;;;;
"EWEST16";"1995";;"Windows 7";"Rachel's Experiment (D.T.)";"1.0";"2";"1";"1";"2";"1";"1";"2014-10-01 10:40:54.950";"2014-10-01 10:49:29.580";"1";"0";"1";"13";"12";"module.GoNoGopractice.exec-1167.GoNoGo_Practice";;;;;;;;;;;;;;;;;;;;;;;;;;;;;;;;;;;;;;;;;;;;;;;;;"1959";"2014-10-01 10:42:26.242";"13";"0";"FINISHED";"LEFT";"success";"411";"0";"2014-10-01 10:42:24.276";"2";;;;;;;;;;
"EWEST16";"1995";;"Windows 7";"Rachel's Experiment (D.T.)";"1.0";"2";"1";"1";"2";"1";"1";"2014-10-01 10:40:54.950";"2014-10-01 10:49:29.580";"1";"0";"1";"14";"13";"module.GoNoGopractice.exec-1167.GoNoGo_Practice";;;;;;;;;;;;;;;;;;;;;;;;;;;;;;;;;;;;;;;;;;;;;;;;;"1960";"2014-10-01 10:42:29.486";"3";"1";"FINISHED";"RIGHT";"success";"335";"0";"2014-10-01 10:42:27.521";"1";;;;;;;;;;
"EWEST16";"1995";;"Windows 7";"Rachel's Experiment (D.T.)";"1.0";"2";"1";"1";"2";"1";"1";"2014-10-01 10:40:54.950";"2014-10-01 10:49:29.580";"1";"0";"1";"15";"14";"module.GoNoGopractice.exec-1167.GoNoGo_Practice";;;;;;;;;;;;;;;;;;;;;;;;;;;;;;;;;;;;;;;;;;;;;;;;;"1959";"2014-10-01 10:42:32.731";"27";"1";"FINISHED";"RIGHT";"success";"410";"0";"2014-10-01 10:42:30.766";"3";;;;;;;;;;
"EWEST16";"1995";;"Windows 7";"Rachel's Experiment (D.T.)";"1.0";"2";"1";"1";"2";"1";"1";"2014-10-01 10:40:54.950";"2014-10-01 10:49:29.580";"1";"0";"1";"16";"15";"module.training_block1.exec-5626.GoNoGo1";"1257";"2014-10-01 10:42:39.611";"NST_correctLoc";"28";"0";"FINISHED";"LEFT";"success";"363";"0";"2014-10-01 10:42:38.347";"3";;;;;;;;;;;;;;;;;;;;;;;;;;;;;;;;;;;;;;;;;;;;;;;;;;;;;;;;;
"EWEST16";"1995";;"Windows 7";"Rachel's Experiment (D.T.)";"1.0";"2";"1";"1";"2";"1";"1";"2014-10-01 10:40:54.950";"2014-10-01 10:49:29.580";"1";"0";"1";"17";"16";"module.training_block1.exec-5626.GoNoGo1";"1257";"2014-10-01 10:42:42.154";"NST_correctLoc";"17";"1";"FINISHED";"RIGHT";"success";"317";"0";"2014-10-01 10:42:40.890";"2";;;;;;;;;;;;;;;;;;;;;;;;;;;;;;;;;;;;;;;;;;;;;;;;;;;;;;;;;
"EWEST16";"1995";;"Windows 7";"Rachel's Experiment (D.T.)";"1.0";"2";"1";"1";"2";"1";"1";"2014-10-01 10:40:54.950";"2014-10-01 10:49:29.580";"1";"0";"1";"18";"17";"module.training_block1.exec-5626.GoNoGo1";"1261";"2014-10-01 10:42:44.696";"NST_correctLoc";"2";"0";"FINISHED";"LEFT";"success";"339";"0";"2014-10-01 10:42:43.433";"1";;;;;;;;;;;;;;;;;;;;;;;;;;;;;;;;;;;;;;;;;;;;;;;;;;;;;;;;;
"EWEST16";"1995";;"Windows 7";"Rachel's Experiment (D.T.)";"1.0";"2";"1";"1";"2";"1";"1";"2014-10-01 10:40:54.950";"2014-10-01 10:49:29.580";"1";"0";"1";"19";"18";"module.training_block1.exec-5626.GoNoGo1";"1257";"2014-10-01 10:42:47.239";"NST_correctLoc";"5";"0";"FINISHED";"LEFT";"success";"496";"0";"2014-10-01 10:42:45.976";"1";;;;;;;;;;;;;;;;;;;;;;;;;;;;;;;;;;;;;;;;;;;;;;;;;;;;;;;;;
"EWEST16";"1995";;"Windows 7";"Rachel's Experiment (D.T.)";"1.0";"2";"1";"1";"2";"1";"1";"2014-10-01 10:40:54.950";"2014-10-01 10:49:29.580";"1";"0";"1";"20";"19";"module.training_block1.exec-5626.GoNoGo1";"1261";"2014-10-01 10:42:49.782";"NST_correctLoc";"27";"1";"FINISHED";"RIGHT";"success";"333";"0";"2014-10-01 10:42:48.519";"3";;;;;;;;;;;;;;;;;;;;;;;;;;;;;;;;;;;;;;;;;;;;;;;;;;;;;;;;;
"EWEST16";"1995";;"Windows 7";"Rachel's Experiment (D.T.)";"1.0";"2";"1";"1";"2";"1";"1";"2014-10-01 10:40:54.950";"2014-10-01 10:49:29.580";"1";"0";"1";"21";"20";"module.training_block1.exec-5626.GoNoGo1";"1257";"2014-10-01 10:42:52.325";"NST_correctLoc";"4";"0";"FINISHED";"LEFT";"success";"338";"0";"2014-10-01 10:42:51.061";"1";;;;;;;;;;;;;;;;;;;;;;;;;;;;;;;;;;;;;;;;;;;;;;;;;;;;;;;;;
"EWEST16";"1995";;"Windows 7";"Rachel's Experiment (D.T.)";"1.0";"2";"1";"1";"2";"1";"1";"2014-10-01 10:40:54.950";"2014-10-01 10:49:29.580";"1";"0";"1";"22";"21";"module.training_block1.exec-5626.GoNoGo1";"1261";"2014-10-01 10:42:54.868";"NST_correctLoc";"23";"1";"FINISHED";"RIGHT";"success";"319";"0";"2014-10-01 10:42:53.604";"3";;;;;;;;;;;;;;;;;;;;;;;;;;;;;;;;;;;;;;;;;;;;;;;;;;;;;;;;;
"EWEST16";"1995";;"Windows 7";"Rachel's Experiment (D.T.)";"1.0";"2";"1";"1";"2";"1";"1";"2014-10-01 10:40:54.950";"2014-10-01 10:49:29.580";"1";"0";"1";"23";"22";"module.training_block1.exec-5626.GoNoGo1";"1257";"2014-10-01 10:42:57.411";"NST_correctLoc";"9";"0";"FINISHED";"LEFT";"success";"332";"0";"2014-10-01 10:42:56.147";"2";;;;;;;;;;;;;;;;;;;;;;;;;;;;;;;;;;;;;;;;;;;;;;;;;;;;;;;;;
"EWEST16";"1995";;"Windows 7";"Rachel's Experiment (D.T.)";"1.0";"2";"1";"1";"2";"1";"1";"2014-10-01 10:40:54.950";"2014-10-01 10:49:29.580";"1";"0";"1";"24";"23";"module.training_block1.exec-5626.GoNoGo1";"1261";"2014-10-01 10:42:59.953";"NST_correctLoc";"3";"1";"FINISHED";"RIGHT";"success";"330";"0";"2014-10-01 10:42:58.690";"1";;;;;;;;;;;;;;;;;;;;;;;;;;;;;;;;;;;;;;;;;;;;;;;;;;;;;;;;;
"EWEST16";"1995";;"Windows 7";"Rachel's Experiment (D.T.)";"1.0";"2";"1";"1";"2";"1";"1";"2014-10-01 10:40:54.950";"2014-10-01 10:49:29.580";"1";"0";"1";"25";"24";"module.training_block1.exec-5626.GoNoGo1";"1249";"2014-10-01 10:43:02.496";"NST_correctLoc";"29";"0";"FINISHED";"LEFT";"success";"367";"0";"2014-10-01 10:43:01.233";"3";;;;;;;;;;;;;;;;;;;;;;;;;;;;;;;;;;;;;;;;;;;;;;;;;;;;;;;;;
"EWEST16";"1995";;"Windows 7";"Rachel's Experiment (D.T.)";"1.0";"2";"1";"1";"2";"1";"1";"2014-10-01 10:40:54.950";"2014-10-01 10:49:29.580";"1";"0";"1";"26";"25";"module.training_block1.exec-5626.GoNoGo1";"1257";"2014-10-01 10:43:05.039";"NST_correctLoc";"31";"1";"FINISHED";"RIGHT";"success";"311";"0";"2014-10-01 10:43:03.775";"3";;;;;;;;;;;;;;;;;;;;;;;;;;;;;;;;;;;;;;;;;;;;;;;;;;;;;;;;;
"EWEST16";"1995";;"Windows 7";"Rachel's Experiment (D.T.)";"1.0";"2";"1";"1";"2";"1";"1";"2014-10-01 10:40:54.950";"2014-10-01 10:49:29.580";"1";"0";"1";"27";"26";"module.training_block1.exec-5626.GoNoGo1";"1261";"2014-10-01 10:43:07.582";"NST_correctLoc";"14";"1";"FINISHED";"RIGHT";"success";"373";"0";"2014-10-01 10:43:06.318";"2";;;;;;;;;;;;;;;;;;;;;;;;;;;;;;;;;;;;;;;;;;;;;;;;;;;;;;;;;
"EWEST16";"1995";;"Windows 7";"Rachel's Experiment (D.T.)";"1.0";"2";"1";"1";"2";"1";"1";"2014-10-01 10:40:54.950";"2014-10-01 10:49:29.580";"1";"0";"1";"28";"27";"module.training_block1.exec-5626.GoNoGo1";"1257";"2014-10-01 10:43:10.125";"NST_correctLoc";"15";"1";"FINISHED";"RIGHT";"success";"418";"0";"2014-10-01 10:43:08.861";"2";;;;;;;;;;;;;;;;;;;;;;;;;;;;;;;;;;;;;;;;;;;;;;;;;;;;;;;;;
"EWEST16";"1995";;"Windows 7";"Rachel's Experiment (D.T.)";"1.0";"2";"1";"1";"2";"1";"1";"2014-10-01 10:40:54.950";"2014-10-01 10:49:29.580";"1";"0";"1";"29";"28";"module.training_block1.exec-5626.GoNoGo1";"1258";"2014-10-01 10:43:12.667";"NST_correctLoc";"25";"1";"FINISHED";"RIGHT";"success";"372";"0";"2014-10-01 10:43:11.404";"3";;;;;;;;;;;;;;;;;;;;;;;;;;;;;;;;;;;;;;;;;;;;;;;;;;;;;;;;;
"EWEST16";"1995";;"Windows 7";"Rachel's Experiment (D.T.)";"1.0";"2";"1";"1";"2";"1";"1";"2014-10-01 10:40:54.950";"2014-10-01 10:49:29.580";"1";"0";"1";"30";"29";"module.training_block1.exec-5626.GoNoGo1";"1258";"2014-10-01 10:43:15.210";"NST_correctLoc";"1";"0";"FINISHED";"LEFT";"success";"341";"0";"2014-10-01 10:43:13.947";"1";;;;;;;;;;;;;;;;;;;;;;;;;;;;;;;;;;;;;;;;;;;;;;;;;;;;;;;;;
"EWEST16";"1995";;"Windows 7";"Rachel's Experiment (D.T.)";"1.0";"2";"1";"1";"2";"1";"1";"2014-10-01 10:40:54.950";"2014-10-01 10:49:29.580";"1";"0";"1";"31";"30";"module.training_block1.exec-5626.GoNoGo1";"1258";"2014-10-01 10:43:17.753";"NST_correctLoc";"35";"1";"FINISHED";"RIGHT";"success";"374";"0";"2014-10-01 10:43:16.489";"3";;;;;;;;;;;;;;;;;;;;;;;;;;;;;;;;;;;;;;;;;;;;;;;;;;;;;;;;;
"EWEST16";"1995";;"Windows 7";"Rachel's Experiment (D.T.)";"1.0";"2";"1";"1";"2";"1";"1";"2014-10-01 10:40:54.950";"2014-10-01 10:49:29.580";"1";"0";"1";"32";"31";"module.training_block1.exec-5626.GoNoGo1";"1261";"2014-10-01 10:43:20.296";"NST_correctLoc";"30";"0";"FINISHED";"LEFT";"success";"291";"0";"2014-10-01 10:43:19.032";"3";;;;;;;;;;;;;;;;;;;;;;;;;;;;;;;;;;;;;;;;;;;;;;;;;;;;;;;;;
"EWEST16";"1995";;"Windows 7";"Rachel's Experiment (D.T.)";"1.0";"2";"1";"1";"2";"1";"1";"2014-10-01 10:40:54.950";"2014-10-01 10:49:29.580";"1";"0";"1";"33";"32";"module.training_block1.exec-5626.GoNoGo1";"1261";"2014-10-01 10:43:22.839";"NST_correctLoc";"21";"1";"FINISHED";"RIGHT";"success";"316";"0";"2014-10-01 10:43:21.575";"3";;;;;;;;;;;;;;;;;;;;;;;;;;;;;;;;;;;;;;;;;;;;;;;;;;;;;;;;;
"EWEST16";"1995";;"Windows 7";"Rachel's Experiment (D.T.)";"1.0";"2";"1";"1";"2";"1";"1";"2014-10-01 10:40:54.950";"2014-10-01 10:49:29.580";"1";"0";"1";"34";"33";"module.training_block1.exec-5626.GoNoGo1";"1257";"2014-10-01 10:43:25.381";"NST_correctLoc";"0";"1";"FINISHED";"RIGHT";"success";"377";"0";"2014-10-01 10:43:24.118";"1";;;;;;;;;;;;;;;;;;;;;;;;;;;;;;;;;;;;;;;;;;;;;;;;;;;;;;;;;
"EWEST16";"1995";;"Windows 7";"Rachel's Experiment (D.T.)";"1.0";"2";"1";"1";"2";"1";"1";"2014-10-01 10:40:54.950";"2014-10-01 10:49:29.580";"1";"0";"1";"35";"34";"module.training_block1.exec-5626.GoNoGo1";"1257";"2014-10-01 10:43:27.924";"NST_correctLoc";"20";"1";"FINISHED";"RIGHT";"success";"347";"0";"2014-10-01 10:43:26.661";"3";;;;;;;;;;;;;;;;;;;;;;;;;;;;;;;;;;;;;;;;;;;;;;;;;;;;;;;;;
"EWEST16";"1995";;"Windows 7";"Rachel's Experiment (D.T.)";"1.0";"2";"1";"1";"2";"1";"1";"2014-10-01 10:40:54.950";"2014-10-01 10:49:29.580";"1";"0";"1";"36";"35";"module.training_block1.exec-5626.GoNoGo1";"1258";"2014-10-01 10:43:30.467";"NST_correctLoc";"19";"0";"FINISHED";"LEFT";"success";"388";"0";"2014-10-01 10:43:29.203";"3";;;;;;;;;;;;;;;;;;;;;;;;;;;;;;;;;;;;;;;;;;;;;;;;;;;;;;;;;
"EWEST16";"1995";;"Windows 7";"Rachel's Experiment (D.T.)";"1.0";"2";"1";"1";"2";"1";"1";"2014-10-01 10:40:54.950";"2014-10-01 10:49:29.580";"1";"0";"1";"37";"36";"module.training_block1.exec-5626.GoNoGo1";"1257";"2014-10-01 10:43:33.010";"NST_correctLoc";"32";"1";"FINISHED";"RIGHT";"success";"325";"0";"2014-10-01 10:43:31.746";"3";;;;;;;;;;;;;;;;;;;;;;;;;;;;;;;;;;;;;;;;;;;;;;;;;;;;;;;;;
"EWEST16";"1995";;"Windows 7";"Rachel's Experiment (D.T.)";"1.0";"2";"1";"1";"2";"1";"1";"2014-10-01 10:40:54.950";"2014-10-01 10:49:29.580";"1";"0";"1";"38";"37";"module.training_block1.exec-5626.GoNoGo1";"1261";"2014-10-01 10:43:35.553";"NST_correctLoc";"34";"0";"FINISHED";"LEFT";"success";"362";"0";"2014-10-01 10:43:34.289";"3";;;;;;;;;;;;;;;;;;;;;;;;;;;;;;;;;;;;;;;;;;;;;;;;;;;;;;;;;
"EWEST16";"1995";;"Windows 7";"Rachel's Experiment (D.T.)";"1.0";"2";"1";"1";"2";"1";"1";"2014-10-01 10:40:54.950";"2014-10-01 10:49:29.580";"1";"0";"1";"39";"38";"module.training_block1.exec-5626.GoNoGo1";"1261";"2014-10-01 10:43:38.095";"NST_correctLoc";"18";"1";"FINISHED";"RIGHT";"success";"339";"0";"2014-10-01 10:43:36.832";"3";;;;;;;;;;;;;;;;;;;;;;;;;;;;;;;;;;;;;;;;;;;;;;;;;;;;;;;;;
"EWEST16";"1995";;"Windows 7";"Rachel's Experiment (D.T.)";"1.0";"2";"1";"1";"2";"1";"1";"2014-10-01 10:40:54.950";"2014-10-01 10:49:29.580";"1";"0";"1";"40";"39";"module.training_block1.exec-5626.GoNoGo1";"1261";"2014-10-01 10:43:40.638";"NST_correctLoc";"6";"0";"FINISHED";"LEFT";"success";"341";"0";"2014-10-01 10:43:39.375";"1";;;;;;;;;;;;;;;;;;;;;;;;;;;;;;;;;;;;;;;;;;;;;;;;;;;;;;;;;
"EWEST16";"1995";;"Windows 7";"Rachel's Experiment (D.T.)";"1.0";"2";"1";"1";"2";"1";"1";"2014-10-01 10:40:54.950";"2014-10-01 10:49:29.580";"1";"0";"1";"41";"40";"module.training_block1.exec-5626.GoNoGo1";"1256";"2014-10-01 10:43:43.181";"NST_correctLoc";"24";"1";"FINISHED";"RIGHT";"success";"457";"0";"2014-10-01 10:43:41.917";"3";;;;;;;;;;;;;;;;;;;;;;;;;;;;;;;;;;;;;;;;;;;;;;;;;;;;;;;;;
"EWEST16";"1995";;"Windows 7";"Rachel's Experiment (D.T.)";"1.0";"2";"1";"1";"2";"1";"1";"2014-10-01 10:40:54.950";"2014-10-01 10:49:29.580";"1";"0";"1";"42";"41";"module.training_block1.exec-5626.GoNoGo1";"1261";"2014-10-01 10:43:45.724";"NST_correctLoc";"13";"1";"FINISHED";"RIGHT";"success";"407";"0";"2014-10-01 10:43:44.460";"2";;;;;;;;;;;;;;;;;;;;;;;;;;;;;;;;;;;;;;;;;;;;;;;;;;;;;;;;;
"EWEST16";"1995";;"Windows 7";"Rachel's Experiment (D.T.)";"1.0";"2";"1";"1";"2";"1";"1";"2014-10-01 10:40:54.950";"2014-10-01 10:49:29.580";"1";"0";"1";"43";"42";"module.training_block1.exec-5626.GoNoGo1";"1252";"2014-10-01 10:43:48.267";"NST_correctLoc";"12";"0";"FINISHED";"LEFT";"success";"366";"0";"2014-10-01 10:43:47.003";"2";;;;;;;;;;;;;;;;;;;;;;;;;;;;;;;;;;;;;;;;;;;;;;;;;;;;;;;;;
"EWEST16";"1995";;"Windows 7";"Rachel's Experiment (D.T.)";"1.0";"2";"1";"1";"2";"1";"1";"2014-10-01 10:40:54.950";"2014-10-01 10:49:29.580";"1";"0";"1";"44";"43";"module.training_block1.exec-5626.GoNoGo1";"1257";"2014-10-01 10:43:50.809";"NST_correctLoc";"10";"0";"FINISHED";"LEFT";"success";"429";"0";"2014-10-01 10:43:49.546";"2";;;;;;;;;;;;;;;;;;;;;;;;;;;;;;;;;;;;;;;;;;;;;;;;;;;;;;;;;
"EWEST16";"1995";;"Windows 7";"Rachel's Experiment (D.T.)";"1.0";"2";"1";"1";"2";"1";"1";"2014-10-01 10:40:54.950";"2014-10-01 10:49:29.580";"1";"0";"1";"45";"44";"module.training_block1.exec-5626.GoNoGo1";"1257";"2014-10-01 10:43:53.352";"NST_correctLoc";"16";"1";"FINISHED";"RIGHT";"success";"455";"0";"2014-10-01 10:43:52.089";"2";;;;;;;;;;;;;;;;;;;;;;;;;;;;;;;;;;;;;;;;;;;;;;;;;;;;;;;;;
"EWEST16";"1995";;"Windows 7";"Rachel's Experiment (D.T.)";"1.0";"2";"1";"1";"2";"1";"1";"2014-10-01 10:40:54.950";"2014-10-01 10:49:29.580";"1";"0";"1";"46";"45";"module.training_block1.exec-5626.GoNoGo1";"1257";"2014-10-01 10:43:55.895";"NST_correctLoc";"7";"0";"FINISHED";"LEFT";"success";"288";"0";"2014-10-01 10:43:54.631";"1";;;;;;;;;;;;;;;;;;;;;;;;;;;;;;;;;;;;;;;;;;;;;;;;;;;;;;;;;
"EWEST16";"1995";;"Windows 7";"Rachel's Experiment (D.T.)";"1.0";"2";"1";"1";"2";"1";"1";"2014-10-01 10:40:54.950";"2014-10-01 10:49:29.580";"1";"0";"1";"47";"46";"module.training_block1.exec-5626.GoNoGo1";"1257";"2014-10-01 10:43:58.438";"NST_correctLoc";"8";"1";"FINISHED";"RIGHT";"success";"377";"0";"2014-10-01 10:43:57.174";"1";;;;;;;;;;;;;;;;;;;;;;;;;;;;;;;;;;;;;;;;;;;;;;;;;;;;;;;;;
"EWEST16";"1995";;"Windows 7";"Rachel's Experiment (D.T.)";"1.0";"2";"1";"1";"2";"1";"1";"2014-10-01 10:40:54.950";"2014-10-01 10:49:29.580";"1";"0";"1";"48";"47";"module.training_block1.exec-5626.GoNoGo1";"1257";"2014-10-01 10:44:00.981";"NST_correctLoc";"11";"0";"FINISHED";"LEFT";"success";"386";"0";"2014-10-01 10:43:59.717";"2";;;;;;;;;;;;;;;;;;;;;;;;;;;;;;;;;;;;;;;;;;;;;;;;;;;;;;;;;
"EWEST16";"1995";;"Windows 7";"Rachel's Experiment (D.T.)";"1.0";"2";"1";"1";"2";"1";"1";"2014-10-01 10:40:54.950";"2014-10-01 10:49:29.580";"1";"0";"1";"49";"48";"module.training_block1.exec-5626.GoNoGo1";"1258";"2014-10-01 10:44:03.523";"NST_correctLoc";"33";"0";"FINISHED";"LEFT";"success";"444";"0";"2014-10-01 10:44:02.260";"3";;;;;;;;;;;;;;;;;;;;;;;;;;;;;;;;;;;;;;;;;;;;;;;;;;;;;;;;;
"EWEST16";"1995";;"Windows 7";"Rachel's Experiment (D.T.)";"1.0";"2";"1";"1";"2";"1";"1";"2014-10-01 10:40:54.950";"2014-10-01 10:49:29.580";"1";"0";"1";"50";"49";"module.training_block1.exec-5626.GoNoGo1";"1261";"2014-10-01 10:44:06.066";"NST_correctLoc";"26";"0";"FINISHED";"LEFT";"success";"392";"0";"2014-10-01 10:44:04.803";"3";;;;;;;;;;;;;;;;;;;;;;;;;;;;;;;;;;;;;;;;;;;;;;;;;;;;;;;;;
"EWEST16";"1995";;"Windows 7";"Rachel's Experiment (D.T.)";"1.0";"2";"1";"1";"2";"1";"1";"2014-10-01 10:40:54.950";"2014-10-01 10:49:29.580";"1";"0";"1";"51";"50";"module.training_block1.exec-5626.GoNoGo1";"1257";"2014-10-01 10:44:08.609";"NST_correctLoc";"22";"1";"FINISHED";"RIGHT";"success";"365";"0";"2014-10-01 10:44:07.345";"3";;;;;;;;;;;;;;;;;;;;;;;;;;;;;;;;;;;;;;;;;;;;;;;;;;;;;;;;;
"EWEST16";"1995";;"Windows 7";"Rachel's Experiment (D.T.)";"1.0";"2";"1";"1";"2";"1";"1";"2014-10-01 10:40:54.950";"2014-10-01 10:49:29.580";"1";"0";"1";"52";"51";"module.training_block2.exec-2033.GoNoGo2";;;;;;;;;;;;;"1261";"2014-10-01 10:44:19.888";"NST_correctLoc";"12";"1";"FINISHED";"RIGHT";"success";"451";"0";"2014-10-01 10:44:18.624";"2";;;;;;;;;;;;;;;;;;;;;;;;;;;;;;;;;;;;;;;;;;;;;
"EWEST16";"1995";;"Windows 7";"Rachel's Experiment (D.T.)";"1.0";"2";"1";"1";"2";"1";"1";"2014-10-01 10:40:54.950";"2014-10-01 10:49:29.580";"1";"0";"1";"53";"52";"module.training_block2.exec-2033.GoNoGo2";;;;;;;;;;;;;"1261";"2014-10-01 10:44:22.431";"NST_correctLoc";"8";"0";"FINISHED";"LEFT";"success";"468";"0";"2014-10-01 10:44:21.167";"1";;;;;;;;;;;;;;;;;;;;;;;;;;;;;;;;;;;;;;;;;;;;;
"EWEST16";"1995";;"Windows 7";"Rachel's Experiment (D.T.)";"1.0";"2";"1";"1";"2";"1";"1";"2014-10-01 10:40:54.950";"2014-10-01 10:49:29.580";"1";"0";"1";"54";"53";"module.training_block2.exec-2033.GoNoGo2";;;;;;;;;;;;;"1261";"2014-10-01 10:44:24.973";"NST_correctLoc";"27";"1";"FINISHED";"RIGHT";"success";"445";"0";"2014-10-01 10:44:23.710";"3";;;;;;;;;;;;;;;;;;;;;;;;;;;;;;;;;;;;;;;;;;;;;
"EWEST16";"1995";;"Windows 7";"Rachel's Experiment (D.T.)";"1.0";"2";"1";"1";"2";"1";"1";"2014-10-01 10:40:54.950";"2014-10-01 10:49:29.580";"1";"0";"1";"55";"54";"module.training_block2.exec-2033.GoNoGo2";;;;;;;;;;;;;"1261";"2014-10-01 10:44:27.516";"NST_wrongLoc";"18";"1";"FINISHED";"LEFT";"failure";"430";"0";"2014-10-01 10:44:26.253";"3";;;;;;;;;;;;;;;;;;;;;;;;;;;;;;;;;;;;;;;;;;;;;
"EWEST16";"1995";;"Windows 7";"Rachel's Experiment (D.T.)";"1.0";"2";"1";"1";"2";"1";"1";"2014-10-01 10:40:54.950";"2014-10-01 10:49:29.580";"1";"0";"1";"56";"55";"module.training_block2.exec-2033.GoNoGo2";;;;;;;;;;;;;"1261";"2014-10-01 10:44:30.059";"NST_correctLoc";"1";"0";"FINISHED";"LEFT";"success";"375";"0";"2014-10-01 10:44:28.795";"1";;;;;;;;;;;;;;;;;;;;;;;;;;;;;;;;;;;;;;;;;;;;;
"EWEST16";"1995";;"Windows 7";"Rachel's Experiment (D.T.)";"1.0";"2";"1";"1";"2";"1";"1";"2014-10-01 10:40:54.950";"2014-10-01 10:49:29.580";"1";"0";"1";"57";"56";"module.training_block2.exec-2033.GoNoGo2";;;;;;;;;;;;;"1261";"2014-10-01 10:44:32.602";"NST_correctLoc";"30";"0";"FINISHED";"LEFT";"success";"361";"0";"2014-10-01 10:44:31.338";"3";;;;;;;;;;;;;;;;;;;;;;;;;;;;;;;;;;;;;;;;;;;;;
"EWEST16";"1995";;"Windows 7";"Rachel's Experiment (D.T.)";"1.0";"2";"1";"1";"2";"1";"1";"2014-10-01 10:40:54.950";"2014-10-01 10:49:29.580";"1";"0";"1";"58";"57";"module.training_block2.exec-2033.GoNoGo2";;;;;;;;;;;;;"1261";"2014-10-01 10:44:35.145";"NST_correctLoc";"2";"0";"FINISHED";"LEFT";"success";"402";"0";"2014-10-01 10:44:33.881";"1";;;;;;;;;;;;;;;;;;;;;;;;;;;;;;;;;;;;;;;;;;;;;
"EWEST16";"1995";;"Windows 7";"Rachel's Experiment (D.T.)";"1.0";"2";"1";"1";"2";"1";"1";"2014-10-01 10:40:54.950";"2014-10-01 10:49:29.580";"1";"0";"1";"59";"58";"module.training_block2.exec-2033.GoNoGo2";;;;;;;;;;;;;"1261";"2014-10-01 10:44:37.687";"NST_correctLoc";"33";"1";"FINISHED";"RIGHT";"success";"387";"0";"2014-10-01 10:44:36.424";"3";;;;;;;;;;;;;;;;;;;;;;;;;;;;;;;;;;;;;;;;;;;;;
"EWEST16";"1995";;"Windows 7";"Rachel's Experiment (D.T.)";"1.0";"2";"1";"1";"2";"1";"1";"2014-10-01 10:40:54.950";"2014-10-01 10:49:29.580";"1";"0";"1";"60";"59";"module.training_block2.exec-2033.GoNoGo2";;;;;;;;;;;;;"1261";"2014-10-01 10:44:40.230";"NST_correctLoc";"29";"0";"FINISHED";"LEFT";"success";"420";"0";"2014-10-01 10:44:38.967";"3";;;;;;;;;;;;;;;;;;;;;;;;;;;;;;;;;;;;;;;;;;;;;
"EWEST16";"1995";;"Windows 7";"Rachel's Experiment (D.T.)";"1.0";"2";"1";"1";"2";"1";"1";"2014-10-01 10:40:54.950";"2014-10-01 10:49:29.580";"1";"0";"1";"61";"60";"module.training_block2.exec-2033.GoNoGo2";;;;;;;;;;;;;"1261";"2014-10-01 10:44:42.773";"NST_correctLoc";"15";"1";"FINISHED";"RIGHT";"success";"373";"0";"2014-10-01 10:44:41.510";"2";;;;;;;;;;;;;;;;;;;;;;;;;;;;;;;;;;;;;;;;;;;;;
"EWEST16";"1995";;"Windows 7";"Rachel's Experiment (D.T.)";"1.0";"2";"1";"1";"2";"1";"1";"2014-10-01 10:40:54.950";"2014-10-01 10:49:29.580";"1";"0";"1";"62";"61";"module.training_block2.exec-2033.GoNoGo2";;;;;;;;;;;;;"1261";"2014-10-01 10:44:45.316";"NST_correctLoc";"19";"1";"FINISHED";"RIGHT";"success";"407";"0";"2014-10-01 10:44:44.052";"3";;;;;;;;;;;;;;;;;;;;;;;;;;;;;;;;;;;;;;;;;;;;;
"EWEST16";"1995";;"Windows 7";"Rachel's Experiment (D.T.)";"1.0";"2";"1";"1";"2";"1";"1";"2014-10-01 10:40:54.950";"2014-10-01 10:49:29.580";"1";"0";"1";"63";"62";"module.training_block2.exec-2033.GoNoGo2";;;;;;;;;;;;;"1261";"2014-10-01 10:44:47.859";"NST_correctLoc";"11";"0";"FINISHED";"LEFT";"success";"328";"0";"2014-10-01 10:44:46.595";"2";;;;;;;;;;;;;;;;;;;;;;;;;;;;;;;;;;;;;;;;;;;;;
"EWEST16";"1995";;"Windows 7";"Rachel's Experiment (D.T.)";"1.0";"2";"1";"1";"2";"1";"1";"2014-10-01 10:40:54.950";"2014-10-01 10:49:29.580";"1";"0";"1";"64";"63";"module.training_block2.exec-2033.GoNoGo2";;;;;;;;;;;;;"1261";"2014-10-01 10:44:50.402";"NST_correctLoc";"34";"1";"FINISHED";"RIGHT";"success";"361";"0";"2014-10-01 10:44:49.138";"3";;;;;;;;;;;;;;;;;;;;;;;;;;;;;;;;;;;;;;;;;;;;;
"EWEST16";"1995";;"Windows 7";"Rachel's Experiment (D.T.)";"1.0";"2";"1";"1";"2";"1";"1";"2014-10-01 10:40:54.950";"2014-10-01 10:49:29.580";"1";"0";"1";"65";"64";"module.training_block2.exec-2033.GoNoGo2";;;;;;;;;;;;;"1261";"2014-10-01 10:44:52.944";"NST_correctLoc";"26";"1";"FINISHED";"RIGHT";"success";"402";"0";"2014-10-01 10:44:51.681";"3";;;;;;;;;;;;;;;;;;;;;;;;;;;;;;;;;;;;;;;;;;;;;
"EWEST16";"1995";;"Windows 7";"Rachel's Experiment (D.T.)";"1.0";"2";"1";"1";"2";"1";"1";"2014-10-01 10:40:54.950";"2014-10-01 10:49:29.580";"1";"0";"1";"66";"65";"module.training_block2.exec-2033.GoNoGo2";;;;;;;;;;;;;"1261";"2014-10-01 10:44:55.487";"NST_correctLoc";"32";"1";"FINISHED";"RIGHT";"success";"451";"0";"2014-10-01 10:44:54.224";"3";;;;;;;;;;;;;;;;;;;;;;;;;;;;;;;;;;;;;;;;;;;;;
"EWEST16";"1995";;"Windows 7";"Rachel's Experiment (D.T.)";"1.0";"2";"1";"1";"2";"1";"1";"2014-10-01 10:40:54.950";"2014-10-01 10:49:29.580";"1";"0";"1";"67";"66";"module.training_block2.exec-2033.GoNoGo2";;;;;;;;;;;;;"1261";"2014-10-01 10:44:58.030";"NST_correctLoc";"14";"0";"FINISHED";"LEFT";"success";"388";"0";"2014-10-01 10:44:56.766";"2";;;;;;;;;;;;;;;;;;;;;;;;;;;;;;;;;;;;;;;;;;;;;
"EWEST16";"1995";;"Windows 7";"Rachel's Experiment (D.T.)";"1.0";"2";"1";"1";"2";"1";"1";"2014-10-01 10:40:54.950";"2014-10-01 10:49:29.580";"1";"0";"1";"68";"67";"module.training_block2.exec-2033.GoNoGo2";;;;;;;;;;;;;"1261";"2014-10-01 10:45:00.573";"NST_correctLoc";"16";"1";"FINISHED";"RIGHT";"success";"366";"0";"2014-10-01 10:44:59.309";"2";;;;;;;;;;;;;;;;;;;;;;;;;;;;;;;;;;;;;;;;;;;;;
"EWEST16";"1995";;"Windows 7";"Rachel's Experiment (D.T.)";"1.0";"2";"1";"1";"2";"1";"1";"2014-10-01 10:40:54.950";"2014-10-01 10:49:29.580";"1";"0";"1";"69";"68";"module.training_block2.exec-2033.GoNoGo2";;;;;;;;;;;;;"1261";"2014-10-01 10:45:03.116";"NST_correctLoc";"3";"1";"FINISHED";"RIGHT";"success";"391";"0";"2014-10-01 10:45:01.852";"1";;;;;;;;;;;;;;;;;;;;;;;;;;;;;;;;;;;;;;;;;;;;;
"EWEST16";"1995";;"Windows 7";"Rachel's Experiment (D.T.)";"1.0";"2";"1";"1";"2";"1";"1";"2014-10-01 10:40:54.950";"2014-10-01 10:49:29.580";"1";"0";"1";"70";"69";"module.training_block2.exec-2033.GoNoGo2";;;;;;;;;;;;;"1261";"2014-10-01 10:45:05.658";"NST_correctLoc";"10";"1";"FINISHED";"RIGHT";"success";"424";"0";"2014-10-01 10:45:04.395";"2";;;;;;;;;;;;;;;;;;;;;;;;;;;;;;;;;;;;;;;;;;;;;
"EWEST16";"1995";;"Windows 7";"Rachel's Experiment (D.T.)";"1.0";"2";"1";"1";"2";"1";"1";"2014-10-01 10:40:54.950";"2014-10-01 10:49:29.580";"1";"0";"1";"71";"70";"module.training_block2.exec-2033.GoNoGo2";;;;;;;;;;;;;"1261";"2014-10-01 10:45:08.201";"NST_correctLoc";"22";"1";"FINISHED";"RIGHT";"success";"489";"0";"2014-10-01 10:45:06.938";"3";;;;;;;;;;;;;;;;;;;;;;;;;;;;;;;;;;;;;;;;;;;;;
"EWEST16";"1995";;"Windows 7";"Rachel's Experiment (D.T.)";"1.0";"2";"1";"1";"2";"1";"1";"2014-10-01 10:40:54.950";"2014-10-01 10:49:29.580";"1";"0";"1";"72";"71";"module.training_block2.exec-2033.GoNoGo2";;;;;;;;;;;;;"1261";"2014-10-01 10:45:10.744";"NST_correctLoc";"17";"1";"FINISHED";"RIGHT";"success";"346";"0";"2014-10-01 10:45:09.480";"2";;;;;;;;;;;;;;;;;;;;;;;;;;;;;;;;;;;;;;;;;;;;;
"EWEST16";"1995";;"Windows 7";"Rachel's Experiment (D.T.)";"1.0";"2";"1";"1";"2";"1";"1";"2014-10-01 10:40:54.950";"2014-10-01 10:49:29.580";"1";"0";"1";"73";"72";"module.training_block2.exec-2033.GoNoGo2";;;;;;;;;;;;;"1261";"2014-10-01 10:45:13.287";"NST_correctLoc";"35";"0";"FINISHED";"LEFT";"success";"419";"0";"2014-10-01 10:45:12.023";"3";;;;;;;;;;;;;;;;;;;;;;;;;;;;;;;;;;;;;;;;;;;;;
"EWEST16";"1995";;"Windows 7";"Rachel's Experiment (D.T.)";"1.0";"2";"1";"1";"2";"1";"1";"2014-10-01 10:40:54.950";"2014-10-01 10:49:29.580";"1";"0";"1";"74";"73";"module.training_block2.exec-2033.GoNoGo2";;;;;;;;;;;;;"1261";"2014-10-01 10:45:15.830";"NST_correctLoc";"31";"1";"FINISHED";"RIGHT";"success";"317";"0";"2014-10-01 10:45:14.566";"3";;;;;;;;;;;;;;;;;;;;;;;;;;;;;;;;;;;;;;;;;;;;;
"EWEST16";"1995";;"Windows 7";"Rachel's Experiment (D.T.)";"1.0";"2";"1";"1";"2";"1";"1";"2014-10-01 10:40:54.950";"2014-10-01 10:49:29.580";"1";"0";"1";"75";"74";"module.training_block2.exec-2033.GoNoGo2";;;;;;;;;;;;;"1261";"2014-10-01 10:45:18.372";"NST_correctLoc";"9";"0";"FINISHED";"LEFT";"success";"382";"0";"2014-10-01 10:45:17.109";"2";;;;;;;;;;;;;;;;;;;;;;;;;;;;;;;;;;;;;;;;;;;;;
"EWEST16";"1995";;"Windows 7";"Rachel's Experiment (D.T.)";"1.0";"2";"1";"1";"2";"1";"1";"2014-10-01 10:40:54.950";"2014-10-01 10:49:29.580";"1";"0";"1";"76";"75";"module.training_block2.exec-2033.GoNoGo2";;;;;;;;;;;;;"1261";"2014-10-01 10:45:20.915";"NST_correctLoc";"5";"1";"FINISHED";"RIGHT";"success";"399";"0";"2014-10-01 10:45:19.652";"1";;;;;;;;;;;;;;;;;;;;;;;;;;;;;;;;;;;;;;;;;;;;;
"EWEST16";"1995";;"Windows 7";"Rachel's Experiment (D.T.)";"1.0";"2";"1";"1";"2";"1";"1";"2014-10-01 10:40:54.950";"2014-10-01 10:49:29.580";"1";"0";"1";"77";"76";"module.training_block2.exec-2033.GoNoGo2";;;;;;;;;;;;;"1261";"2014-10-01 10:45:23.458";"NST_correctLoc";"4";"1";"FINISHED";"RIGHT";"success";"368";"0";"2014-10-01 10:45:22.194";"1";;;;;;;;;;;;;;;;;;;;;;;;;;;;;;;;;;;;;;;;;;;;;
"EWEST16";"1995";;"Windows 7";"Rachel's Experiment (D.T.)";"1.0";"2";"1";"1";"2";"1";"1";"2014-10-01 10:40:54.950";"2014-10-01 10:49:29.580";"1";"0";"1";"78";"77";"module.training_block2.exec-2033.GoNoGo2";;;;;;;;;;;;;"1261";"2014-10-01 10:45:26.001";"NST_correctLoc";"7";"0";"FINISHED";"LEFT";"success";"361";"0";"2014-10-01 10:45:24.737";"1";;;;;;;;;;;;;;;;;;;;;;;;;;;;;;;;;;;;;;;;;;;;;
"EWEST16";"1995";;"Windows 7";"Rachel's Experiment (D.T.)";"1.0";"2";"1";"1";"2";"1";"1";"2014-10-01 10:40:54.950";"2014-10-01 10:49:29.580";"1";"0";"1";"79";"78";"module.training_block2.exec-2033.GoNoGo2";;;;;;;;;;;;;"1261";"2014-10-01 10:45:28.544";"NST_correctLoc";"20";"0";"FINISHED";"LEFT";"success";"419";"0";"2014-10-01 10:45:27.280";"3";;;;;;;;;;;;;;;;;;;;;;;;;;;;;;;;;;;;;;;;;;;;;
"EWEST16";"1995";;"Windows 7";"Rachel's Experiment (D.T.)";"1.0";"2";"1";"1";"2";"1";"1";"2014-10-01 10:40:54.950";"2014-10-01 10:49:29.580";"1";"0";"1";"80";"79";"module.training_block2.exec-2033.GoNoGo2";;;;;;;;;;;;;"1261";"2014-10-01 10:45:31.086";"NST_correctLoc";"28";"0";"FINISHED";"LEFT";"success";"428";"0";"2014-10-01 10:45:29.823";"3";;;;;;;;;;;;;;;;;;;;;;;;;;;;;;;;;;;;;;;;;;;;;
"EWEST16";"1995";;"Windows 7";"Rachel's Experiment (D.T.)";"1.0";"2";"1";"1";"2";"1";"1";"2014-10-01 10:40:54.950";"2014-10-01 10:49:29.580";"1";"0";"1";"81";"80";"module.training_block2.exec-2033.GoNoGo2";;;;;;;;;;;;;"1261";"2014-10-01 10:45:33.629";"NST_correctLoc";"13";"1";"FINISHED";"RIGHT";"success";"357";"0";"2014-10-01 10:45:32.366";"2";;;;;;;;;;;;;;;;;;;;;;;;;;;;;;;;;;;;;;;;;;;;;
"EWEST16";"1995";;"Windows 7";"Rachel's Experiment (D.T.)";"1.0";"2";"1";"1";"2";"1";"1";"2014-10-01 10:40:54.950";"2014-10-01 10:49:29.580";"1";"0";"1";"82";"81";"module.training_block2.exec-2033.GoNoGo2";;;;;;;;;;;;;"1261";"2014-10-01 10:45:36.172";"NST_correctLoc";"23";"1";"FINISHED";"RIGHT";"success";"558";"0";"2014-10-01 10:45:34.908";"3";;;;;;;;;;;;;;;;;;;;;;;;;;;;;;;;;;;;;;;;;;;;;
"EWEST16";"1995";;"Windows 7";"Rachel's Experiment (D.T.)";"1.0";"2";"1";"1";"2";"1";"1";"2014-10-01 10:40:54.950";"2014-10-01 10:49:29.580";"1";"0";"1";"83";"82";"module.training_block2.exec-2033.GoNoGo2";;;;;;;;;;;;;"1261";"2014-10-01 10:45:38.715";"NST_correctLoc";"0";"1";"FINISHED";"RIGHT";"success";"431";"0";"2014-10-01 10:45:37.451";"1";;;;;;;;;;;;;;;;;;;;;;;;;;;;;;;;;;;;;;;;;;;;;
"EWEST16";"1995";;"Windows 7";"Rachel's Experiment (D.T.)";"1.0";"2";"1";"1";"2";"1";"1";"2014-10-01 10:40:54.950";"2014-10-01 10:49:29.580";"1";"0";"1";"84";"83";"module.training_block2.exec-2033.GoNoGo2";;;;;;;;;;;;;"1261";"2014-10-01 10:45:41.258";"NST_correctLoc";"24";"0";"FINISHED";"LEFT";"success";"560";"0";"2014-10-01 10:45:39.994";"3";;;;;;;;;;;;;;;;;;;;;;;;;;;;;;;;;;;;;;;;;;;;;
"EWEST16";"1995";;"Windows 7";"Rachel's Experiment (D.T.)";"1.0";"2";"1";"1";"2";"1";"1";"2014-10-01 10:40:54.950";"2014-10-01 10:49:29.580";"1";"0";"1";"85";"84";"module.training_block2.exec-2033.GoNoGo2";;;;;;;;;;;;;"1261";"2014-10-01 10:45:43.800";"NST_correctLoc";"25";"0";"FINISHED";"LEFT";"success";"426";"0";"2014-10-01 10:45:42.537";"3";;;;;;;;;;;;;;;;;;;;;;;;;;;;;;;;;;;;;;;;;;;;;
"EWEST16";"1995";;"Windows 7";"Rachel's Experiment (D.T.)";"1.0";"2";"1";"1";"2";"1";"1";"2014-10-01 10:40:54.950";"2014-10-01 10:49:29.580";"1";"0";"1";"86";"85";"module.training_block2.exec-2033.GoNoGo2";;;;;;;;;;;;;"1261";"2014-10-01 10:45:46.343";"NST_correctLoc";"21";"0";"FINISHED";"LEFT";"success";"395";"0";"2014-10-01 10:45:45.080";"3";;;;;;;;;;;;;;;;;;;;;;;;;;;;;;;;;;;;;;;;;;;;;
"EWEST16";"1995";;"Windows 7";"Rachel's Experiment (D.T.)";"1.0";"2";"1";"1";"2";"1";"1";"2014-10-01 10:40:54.950";"2014-10-01 10:49:29.580";"1";"0";"1";"87";"86";"module.training_block2.exec-2033.GoNoGo2";;;;;;;;;;;;;"1261";"2014-10-01 10:45:48.886";"NST_correctLoc";"6";"1";"FINISHED";"RIGHT";"success";"300";"0";"2014-10-01 10:45:47.622";"1";;;;;;;;;;;;;;;;;;;;;;;;;;;;;;;;;;;;;;;;;;;;;
"EWEST16";"1995";;"Windows 7";"Rachel's Experiment (D.T.)";"1.0";"2";"1";"1";"2";"1";"1";"2014-10-01 10:40:54.950";"2014-10-01 10:49:29.580";"1";"0";"1";"88";"87";"module.training_block3.exec-1277.GoNoGo3";;;;;;;;;;;;;;;;;;;;;;;;;"1261";"2014-10-01 10:45:59.681";"NST_correctLoc";"0";"0";"FINISHED";"LEFT";"success";"409";"0";"2014-10-01 10:45:58.418";"1";;;;;;;;;;;;;;;;;;;;;;;;;;;;;;;;;
"EWEST16";"1995";;"Windows 7";"Rachel's Experiment (D.T.)";"1.0";"2";"1";"1";"2";"1";"1";"2014-10-01 10:40:54.950";"2014-10-01 10:49:29.580";"1";"0";"1";"89";"88";"module.training_block3.exec-1277.GoNoGo3";;;;;;;;;;;;;;;;;;;;;;;;;"1261";"2014-10-01 10:46:02.224";"NST_correctLoc";"32";"0";"FINISHED";"LEFT";"success";"450";"0";"2014-10-01 10:46:00.960";"3";;;;;;;;;;;;;;;;;;;;;;;;;;;;;;;;;
"EWEST16";"1995";;"Windows 7";"Rachel's Experiment (D.T.)";"1.0";"2";"1";"1";"2";"1";"1";"2014-10-01 10:40:54.950";"2014-10-01 10:49:29.580";"1";"0";"1";"90";"89";"module.training_block3.exec-1277.GoNoGo3";;;;;;;;;;;;;;;;;;;;;;;;;"1261";"2014-10-01 10:46:04.767";"NST_correctLoc";"12";"0";"FINISHED";"LEFT";"success";"411";"0";"2014-10-01 10:46:03.503";"2";;;;;;;;;;;;;;;;;;;;;;;;;;;;;;;;;
"EWEST16";"1995";;"Windows 7";"Rachel's Experiment (D.T.)";"1.0";"2";"1";"1";"2";"1";"1";"2014-10-01 10:40:54.950";"2014-10-01 10:49:29.580";"1";"0";"1";"91";"90";"module.training_block3.exec-1277.GoNoGo3";;;;;;;;;;;;;;;;;;;;;;;;;"1262";"2014-10-01 10:46:07.310";"NST_correctLoc";"25";"1";"FINISHED";"RIGHT";"success";"364";"0";"2014-10-01 10:46:06.046";"3";;;;;;;;;;;;;;;;;;;;;;;;;;;;;;;;;
"EWEST16";"1995";;"Windows 7";"Rachel's Experiment (D.T.)";"1.0";"2";"1";"1";"2";"1";"1";"2014-10-01 10:40:54.950";"2014-10-01 10:49:29.580";"1";"0";"1";"92";"91";"module.training_block3.exec-1277.GoNoGo3";;;;;;;;;;;;;;;;;;;;;;;;;"1261";"2014-10-01 10:46:09.852";"NST_correctLoc";"29";"0";"FINISHED";"LEFT";"success";"325";"0";"2014-10-01 10:46:08.589";"3";;;;;;;;;;;;;;;;;;;;;;;;;;;;;;;;;
"EWEST16";"1995";;"Windows 7";"Rachel's Experiment (D.T.)";"1.0";"2";"1";"1";"2";"1";"1";"2014-10-01 10:40:54.950";"2014-10-01 10:49:29.580";"1";"0";"1";"93";"92";"module.training_block3.exec-1277.GoNoGo3";;;;;;;;;;;;;;;;;;;;;;;;;"1262";"2014-10-01 10:46:12.395";"NST_correctLoc";"7";"1";"FINISHED";"RIGHT";"success";"367";"0";"2014-10-01 10:46:11.132";"1";;;;;;;;;;;;;;;;;;;;;;;;;;;;;;;;;
"EWEST16";"1995";;"Windows 7";"Rachel's Experiment (D.T.)";"1.0";"2";"1";"1";"2";"1";"1";"2014-10-01 10:40:54.950";"2014-10-01 10:49:29.580";"1";"0";"1";"94";"93";"module.training_block3.exec-1277.GoNoGo3";;;;;;;;;;;;;;;;;;;;;;;;;"1261";"2014-10-01 10:46:14.938";"NST_correctLoc";"30";"1";"FINISHED";"RIGHT";"success";"384";"0";"2014-10-01 10:46:13.674";"3";;;;;;;;;;;;;;;;;;;;;;;;;;;;;;;;;
"EWEST16";"1995";;"Windows 7";"Rachel's Experiment (D.T.)";"1.0";"2";"1";"1";"2";"1";"1";"2014-10-01 10:40:54.950";"2014-10-01 10:49:29.580";"1";"0";"1";"95";"94";"module.training_block3.exec-1277.GoNoGo3";;;;;;;;;;;;;;;;;;;;;;;;;"1262";"2014-10-01 10:46:17.481";"NST_correctLoc";"9";"0";"FINISHED";"LEFT";"success";"409";"0";"2014-10-01 10:46:16.217";"2";;;;;;;;;;;;;;;;;;;;;;;;;;;;;;;;;
"EWEST16";"1995";;"Windows 7";"Rachel's Experiment (D.T.)";"1.0";"2";"1";"1";"2";"1";"1";"2014-10-01 10:40:54.950";"2014-10-01 10:49:29.580";"1";"0";"1";"96";"95";"module.training_block3.exec-1277.GoNoGo3";;;;;;;;;;;;;;;;;;;;;;;;;"1262";"2014-10-01 10:46:20.024";"NST_correctLoc";"19";"1";"FINISHED";"RIGHT";"success";"402";"0";"2014-10-01 10:46:18.760";"3";;;;;;;;;;;;;;;;;;;;;;;;;;;;;;;;;
"EWEST16";"1995";;"Windows 7";"Rachel's Experiment (D.T.)";"1.0";"2";"1";"1";"2";"1";"1";"2014-10-01 10:40:54.950";"2014-10-01 10:49:29.580";"1";"0";"1";"97";"96";"module.training_block3.exec-1277.GoNoGo3";;;;;;;;;;;;;;;;;;;;;;;;;"1261";"2014-10-01 10:46:22.566";"NST_correctLoc";"4";"0";"FINISHED";"LEFT";"success";"347";"0";"2014-10-01 10:46:21.303";"1";;;;;;;;;;;;;;;;;;;;;;;;;;;;;;;;;
"EWEST16";"1995";;"Windows 7";"Rachel's Experiment (D.T.)";"1.0";"2";"1";"1";"2";"1";"1";"2014-10-01 10:40:54.950";"2014-10-01 10:49:29.580";"1";"0";"1";"98";"97";"module.training_block3.exec-1277.GoNoGo3";;;;;;;;;;;;;;;;;;;;;;;;;"1262";"2014-10-01 10:46:25.109";"NST_correctLoc";"3";"0";"FINISHED";"LEFT";"success";"437";"0";"2014-10-01 10:46:23.846";"1";;;;;;;;;;;;;;;;;;;;;;;;;;;;;;;;;
"EWEST16";"1995";;"Windows 7";"Rachel's Experiment (D.T.)";"1.0";"2";"1";"1";"2";"1";"1";"2014-10-01 10:40:54.950";"2014-10-01 10:49:29.580";"1";"0";"1";"99";"98";"module.training_block3.exec-1277.GoNoGo3";;;;;;;;;;;;;;;;;;;;;;;;;"1261";"2014-10-01 10:46:27.652";"NST_correctLoc";"15";"0";"FINISHED";"LEFT";"success";"438";"0";"2014-10-01 10:46:26.388";"2";;;;;;;;;;;;;;;;;;;;;;;;;;;;;;;;;
"EWEST16";"1995";;"Windows 7";"Rachel's Experiment (D.T.)";"1.0";"2";"1";"1";"2";"1";"1";"2014-10-01 10:40:54.950";"2014-10-01 10:49:29.580";"1";"0";"1";"100";"99";"module.training_block3.exec-1277.GoNoGo3";;;;;;;;;;;;;;;;;;;;;;;;;"1262";"2014-10-01 10:46:30.195";"NST_correctLoc";"33";"1";"FINISHED";"RIGHT";"success";"423";"0";"2014-10-01 10:46:28.931";"3";;;;;;;;;;;;;;;;;;;;;;;;;;;;;;;;;
"EWEST16";"1995";;"Windows 7";"Rachel's Experiment (D.T.)";"1.0";"2";"1";"1";"2";"1";"1";"2014-10-01 10:40:54.950";"2014-10-01 10:49:29.580";"1";"0";"1";"101";"100";"module.training_block3.exec-1277.GoNoGo3";;;;;;;;;;;;;;;;;;;;;;;;;"1262";"2014-10-01 10:46:32.738";"NST_correctLoc";"16";"0";"FINISHED";"LEFT";"success";"392";"0";"2014-10-01 10:46:31.474";"2";;;;;;;;;;;;;;;;;;;;;;;;;;;;;;;;;
"EWEST16";"1995";;"Windows 7";"Rachel's Experiment (D.T.)";"1.0";"2";"1";"1";"2";"1";"1";"2014-10-01 10:40:54.950";"2014-10-01 10:49:29.580";"1";"0";"1";"102";"101";"module.training_block3.exec-1277.GoNoGo3";;;;;;;;;;;;;;;;;;;;;;;;;"1262";"2014-10-01 10:46:35.281";"NST_correctLoc";"28";"0";"FINISHED";"LEFT";"success";"393";"0";"2014-10-01 10:46:34.017";"3";;;;;;;;;;;;;;;;;;;;;;;;;;;;;;;;;
"EWEST16";"1995";;"Windows 7";"Rachel's Experiment (D.T.)";"1.0";"2";"1";"1";"2";"1";"1";"2014-10-01 10:40:54.950";"2014-10-01 10:49:29.580";"1";"0";"1";"103";"102";"module.training_block3.exec-1277.GoNoGo3";;;;;;;;;;;;;;;;;;;;;;;;;"1261";"2014-10-01 10:46:37.823";"NST_correctLoc";"31";"1";"FINISHED";"RIGHT";"success";"418";"0";"2014-10-01 10:46:36.560";"3";;;;;;;;;;;;;;;;;;;;;;;;;;;;;;;;;
"EWEST16";"1995";;"Windows 7";"Rachel's Experiment (D.T.)";"1.0";"2";"1";"1";"2";"1";"1";"2014-10-01 10:40:54.950";"2014-10-01 10:49:29.580";"1";"0";"1";"104";"103";"module.training_block3.exec-1277.GoNoGo3";;;;;;;;;;;;;;;;;;;;;;;;;"1261";"2014-10-01 10:46:40.366";"NST_correctLoc";"17";"1";"FINISHED";"RIGHT";"success";"380";"0";"2014-10-01 10:46:39.103";"2";;;;;;;;;;;;;;;;;;;;;;;;;;;;;;;;;
"EWEST16";"1995";;"Windows 7";"Rachel's Experiment (D.T.)";"1.0";"2";"1";"1";"2";"1";"1";"2014-10-01 10:40:54.950";"2014-10-01 10:49:29.580";"1";"0";"1";"105";"104";"module.training_block3.exec-1277.GoNoGo3";;;;;;;;;;;;;;;;;;;;;;;;;"1262";"2014-10-01 10:46:42.909";"NST_correctLoc";"2";"0";"FINISHED";"LEFT";"success";"669";"0";"2014-10-01 10:46:41.645";"1";;;;;;;;;;;;;;;;;;;;;;;;;;;;;;;;;
"EWEST16";"1995";;"Windows 7";"Rachel's Experiment (D.T.)";"1.0";"2";"1";"1";"2";"1";"1";"2014-10-01 10:40:54.950";"2014-10-01 10:49:29.580";"1";"0";"1";"106";"105";"module.training_block3.exec-1277.GoNoGo3";;;;;;;;;;;;;;;;;;;;;;;;;"1261";"2014-10-01 10:46:45.452";"NST_correctLoc";"18";"1";"FINISHED";"RIGHT";"success";"790";"0";"2014-10-01 10:46:44.188";"3";;;;;;;;;;;;;;;;;;;;;;;;;;;;;;;;;
"EWEST16";"1995";;"Windows 7";"Rachel's Experiment (D.T.)";"1.0";"2";"1";"1";"2";"1";"1";"2014-10-01 10:40:54.950";"2014-10-01 10:49:29.580";"1";"0";"1";"107";"106";"module.training_block3.exec-1277.GoNoGo3";;;;;;;;;;;;;;;;;;;;;;;;;"1262";"2014-10-01 10:46:47.995";"NST_correctLoc";"8";"0";"FINISHED";"LEFT";"success";"367";"0";"2014-10-01 10:46:46.731";"1";;;;;;;;;;;;;;;;;;;;;;;;;;;;;;;;;
"EWEST16";"1995";;"Windows 7";"Rachel's Experiment (D.T.)";"1.0";"2";"1";"1";"2";"1";"1";"2014-10-01 10:40:54.950";"2014-10-01 10:49:29.580";"1";"0";"1";"108";"107";"module.training_block3.exec-1277.GoNoGo3";;;;;;;;;;;;;;;;;;;;;;;;;"1261";"2014-10-01 10:46:50.553";"NST_correctLoc";"26";"0";"FINISHED";"LEFT";"success";"425";"0";"2014-10-01 10:46:49.289";"3";;;;;;;;;;;;;;;;;;;;;;;;;;;;;;;;;
"EWEST16";"1995";;"Windows 7";"Rachel's Experiment (D.T.)";"1.0";"2";"1";"1";"2";"1";"1";"2014-10-01 10:40:54.950";"2014-10-01 10:49:29.580";"1";"0";"1";"109";"108";"module.training_block3.exec-1277.GoNoGo3";;;;;;;;;;;;;;;;;;;;;;;;;"1262";"2014-10-01 10:46:53.096";"NST_correctLoc";"23";"1";"FINISHED";"RIGHT";"success";"410";"0";"2014-10-01 10:46:51.832";"3";;;;;;;;;;;;;;;;;;;;;;;;;;;;;;;;;
"EWEST16";"1995";;"Windows 7";"Rachel's Experiment (D.T.)";"1.0";"2";"1";"1";"2";"1";"1";"2014-10-01 10:40:54.950";"2014-10-01 10:49:29.580";"1";"0";"1";"110";"109";"module.training_block3.exec-1277.GoNoGo3";;;;;;;;;;;;;;;;;;;;;;;;;"1262";"2014-10-01 10:46:55.639";"NST_correctLoc";"34";"0";"FINISHED";"LEFT";"success";"323";"0";"2014-10-01 10:46:54.375";"3";;;;;;;;;;;;;;;;;;;;;;;;;;;;;;;;;
"EWEST16";"1995";;"Windows 7";"Rachel's Experiment (D.T.)";"1.0";"2";"1";"1";"2";"1";"1";"2014-10-01 10:40:54.950";"2014-10-01 10:49:29.580";"1";"0";"1";"111";"110";"module.training_block3.exec-1277.GoNoGo3";;;;;;;;;;;;;;;;;;;;;;;;;"1262";"2014-10-01 10:46:58.181";"NST_correctLoc";"24";"0";"FINISHED";"LEFT";"success";"380";"0";"2014-10-01 10:46:56.918";"3";;;;;;;;;;;;;;;;;;;;;;;;;;;;;;;;;
"EWEST16";"1995";;"Windows 7";"Rachel's Experiment (D.T.)";"1.0";"2";"1";"1";"2";"1";"1";"2014-10-01 10:40:54.950";"2014-10-01 10:49:29.580";"1";"0";"1";"112";"111";"module.training_block3.exec-1277.GoNoGo3";;;;;;;;;;;;;;;;;;;;;;;;;"1261";"2014-10-01 10:47:00.724";"NST_correctLoc";"27";"1";"FINISHED";"RIGHT";"success";"285";"0";"2014-10-01 10:46:59.461";"3";;;;;;;;;;;;;;;;;;;;;;;;;;;;;;;;;
"EWEST16";"1995";;"Windows 7";"Rachel's Experiment (D.T.)";"1.0";"2";"1";"1";"2";"1";"1";"2014-10-01 10:40:54.950";"2014-10-01 10:49:29.580";"1";"0";"1";"113";"112";"module.training_block3.exec-1277.GoNoGo3";;;;;;;;;;;;;;;;;;;;;;;;;"1261";"2014-10-01 10:47:03.267";"NST_correctLoc";"35";"1";"FINISHED";"RIGHT";"success";"399";"0";"2014-10-01 10:47:02.003";"3";;;;;;;;;;;;;;;;;;;;;;;;;;;;;;;;;
"EWEST16";"1995";;"Windows 7";"Rachel's Experiment (D.T.)";"1.0";"2";"1";"1";"2";"1";"1";"2014-10-01 10:40:54.950";"2014-10-01 10:49:29.580";"1";"0";"1";"114";"113";"module.training_block3.exec-1277.GoNoGo3";;;;;;;;;;;;;;;;;;;;;;;;;"1262";"2014-10-01 10:47:05.810";"NST_correctLoc";"22";"1";"FINISHED";"RIGHT";"success";"432";"0";"2014-10-01 10:47:04.546";"3";;;;;;;;;;;;;;;;;;;;;;;;;;;;;;;;;
"EWEST16";"1995";;"Windows 7";"Rachel's Experiment (D.T.)";"1.0";"2";"1";"1";"2";"1";"1";"2014-10-01 10:40:54.950";"2014-10-01 10:49:29.580";"1";"0";"1";"115";"114";"module.training_block3.exec-1277.GoNoGo3";;;;;;;;;;;;;;;;;;;;;;;;;"1262";"2014-10-01 10:47:08.353";"NST_correctLoc";"10";"0";"FINISHED";"LEFT";"success";"353";"0";"2014-10-01 10:47:07.089";"2";;;;;;;;;;;;;;;;;;;;;;;;;;;;;;;;;
"EWEST16";"1995";;"Windows 7";"Rachel's Experiment (D.T.)";"1.0";"2";"1";"1";"2";"1";"1";"2014-10-01 10:40:54.950";"2014-10-01 10:49:29.580";"1";"0";"1";"116";"115";"module.training_block3.exec-1277.GoNoGo3";;;;;;;;;;;;;;;;;;;;;;;;;"1262";"2014-10-01 10:47:10.895";"NST_correctLoc";"21";"1";"FINISHED";"RIGHT";"success";"338";"0";"2014-10-01 10:47:09.632";"3";;;;;;;;;;;;;;;;;;;;;;;;;;;;;;;;;
"EWEST16";"1995";;"Windows 7";"Rachel's Experiment (D.T.)";"1.0";"2";"1";"1";"2";"1";"1";"2014-10-01 10:40:54.950";"2014-10-01 10:49:29.580";"1";"0";"1";"117";"116";"module.training_block3.exec-1277.GoNoGo3";;;;;;;;;;;;;;;;;;;;;;;;;"1261";"2014-10-01 10:47:13.438";"NST_correctLoc";"5";"0";"FINISHED";"LEFT";"success";"443";"0";"2014-10-01 10:47:12.175";"1";;;;;;;;;;;;;;;;;;;;;;;;;;;;;;;;;
"EWEST16";"1995";;"Windows 7";"Rachel's Experiment (D.T.)";"1.0";"2";"1";"1";"2";"1";"1";"2014-10-01 10:40:54.950";"2014-10-01 10:49:29.580";"1";"0";"1";"118";"117";"module.training_block3.exec-1277.GoNoGo3";;;;;;;;;;;;;;;;;;;;;;;;;"1262";"2014-10-01 10:47:15.981";"NST_correctLoc";"20";"0";"FINISHED";"LEFT";"success";"413";"0";"2014-10-01 10:47:14.717";"3";;;;;;;;;;;;;;;;;;;;;;;;;;;;;;;;;
"EWEST16";"1995";;"Windows 7";"Rachel's Experiment (D.T.)";"1.0";"2";"1";"1";"2";"1";"1";"2014-10-01 10:40:54.950";"2014-10-01 10:49:29.580";"1";"0";"1";"119";"118";"module.training_block3.exec-1277.GoNoGo3";;;;;;;;;;;;;;;;;;;;;;;;;"1262";"2014-10-01 10:47:18.524";"NST_correctLoc";"1";"1";"FINISHED";"RIGHT";"success";"374";"0";"2014-10-01 10:47:17.260";"1";;;;;;;;;;;;;;;;;;;;;;;;;;;;;;;;;
"EWEST16";"1995";;"Windows 7";"Rachel's Experiment (D.T.)";"1.0";"2";"1";"1";"2";"1";"1";"2014-10-01 10:40:54.950";"2014-10-01 10:49:29.580";"1";"0";"1";"120";"119";"module.training_block3.exec-1277.GoNoGo3";;;;;;;;;;;;;;;;;;;;;;;;;"1261";"2014-10-01 10:47:21.067";"NST_correctLoc";"6";"0";"FINISHED";"LEFT";"success";"343";"0";"2014-10-01 10:47:19.803";"1";;;;;;;;;;;;;;;;;;;;;;;;;;;;;;;;;
"EWEST16";"1995";;"Windows 7";"Rachel's Experiment (D.T.)";"1.0";"2";"1";"1";"2";"1";"1";"2014-10-01 10:40:54.950";"2014-10-01 10:49:29.580";"1";"0";"1";"121";"120";"module.training_block3.exec-1277.GoNoGo3";;;;;;;;;;;;;;;;;;;;;;;;;"1262";"2014-10-01 10:47:23.609";"NST_correctLoc";"14";"1";"FINISHED";"RIGHT";"success";"320";"0";"2014-10-01 10:47:22.346";"2";;;;;;;;;;;;;;;;;;;;;;;;;;;;;;;;;
"EWEST16";"1995";;"Windows 7";"Rachel's Experiment (D.T.)";"1.0";"2";"1";"1";"2";"1";"1";"2014-10-01 10:40:54.950";"2014-10-01 10:49:29.580";"1";"0";"1";"122";"121";"module.training_block3.exec-1277.GoNoGo3";;;;;;;;;;;;;;;;;;;;;;;;;"1261";"2014-10-01 10:47:26.152";"NST_correctLoc";"11";"0";"FINISHED";"LEFT";"success";"385";"0";"2014-10-01 10:47:24.889";"2";;;;;;;;;;;;;;;;;;;;;;;;;;;;;;;;;
"EWEST16";"1995";;"Windows 7";"Rachel's Experiment (D.T.)";"1.0";"2";"1";"1";"2";"1";"1";"2014-10-01 10:40:54.950";"2014-10-01 10:49:29.580";"1";"0";"1";"123";"122";"module.training_block3.exec-1277.GoNoGo3";;;;;;;;;;;;;;;;;;;;;;;;;"1261";"2014-10-01 10:47:28.695";"NST_correctLoc";"13";"0";"FINISHED";"LEFT";"success";"450";"0";"2014-10-01 10:47:27.431";"2";;;;;;;;;;;;;;;;;;;;;;;;;;;;;;;;;
"EWEST16";"1995";;"Windows 7";"Rachel's Experiment (D.T.)";"1.0";"2";"1";"1";"2";"1";"1";"2014-10-01 10:40:54.950";"2014-10-01 10:49:29.580";"1";"0";"1";"124";"123";"module.training_block4.exec-4372.GoNoGo4";;;;;;;;;;;;;;;;;;;;;;;;;;;;;;;;;;;;;"1261";"2014-10-01 10:47:39.490";"NST_correctLoc";"18";"1";"FINISHED";"RIGHT";"success";"487";"0";"2014-10-01 10:47:38.227";"3";;;;;;;;;;;;;;;;;;;;;
"EWEST16";"1995";;"Windows 7";"Rachel's Experiment (D.T.)";"1.0";"2";"1";"1";"2";"1";"1";"2014-10-01 10:40:54.950";"2014-10-01 10:49:29.580";"1";"0";"1";"125";"124";"module.training_block4.exec-4372.GoNoGo4";;;;;;;;;;;;;;;;;;;;;;;;;;;;;;;;;;;;;"1262";"2014-10-01 10:47:42.033";"NST_correctLoc";"4";"1";"FINISHED";"RIGHT";"success";"568";"0";"2014-10-01 10:47:40.769";"1";;;;;;;;;;;;;;;;;;;;;
"EWEST16";"1995";;"Windows 7";"Rachel's Experiment (D.T.)";"1.0";"2";"1";"1";"2";"1";"1";"2014-10-01 10:40:54.950";"2014-10-01 10:49:29.580";"1";"0";"1";"126";"125";"module.training_block4.exec-4372.GoNoGo4";;;;;;;;;;;;;;;;;;;;;;;;;;;;;;;;;;;;;"1262";"2014-10-01 10:47:44.576";"NST_correctLoc";"30";"0";"FINISHED";"LEFT";"success";"610";"0";"2014-10-01 10:47:43.312";"3";;;;;;;;;;;;;;;;;;;;;
"EWEST16";"1995";;"Windows 7";"Rachel's Experiment (D.T.)";"1.0";"2";"1";"1";"2";"1";"1";"2014-10-01 10:40:54.950";"2014-10-01 10:49:29.580";"1";"0";"1";"127";"126";"module.training_block4.exec-4372.GoNoGo4";;;;;;;;;;;;;;;;;;;;;;;;;;;;;;;;;;;;;"1262";"2014-10-01 10:47:47.119";"NST_correctLoc";"0";"1";"FINISHED";"RIGHT";"success";"387";"0";"2014-10-01 10:47:45.855";"1";;;;;;;;;;;;;;;;;;;;;
"EWEST16";"1995";;"Windows 7";"Rachel's Experiment (D.T.)";"1.0";"2";"1";"1";"2";"1";"1";"2014-10-01 10:40:54.950";"2014-10-01 10:49:29.580";"1";"0";"1";"128";"127";"module.training_block4.exec-4372.GoNoGo4";;;;;;;;;;;;;;;;;;;;;;;;;;;;;;;;;;;;;"1262";"2014-10-01 10:47:49.661";"NST_correctLoc";"14";"1";"FINISHED";"RIGHT";"success";"428";"0";"2014-10-01 10:47:48.398";"2";;;;;;;;;;;;;;;;;;;;;
"EWEST16";"1995";;"Windows 7";"Rachel's Experiment (D.T.)";"1.0";"2";"1";"1";"2";"1";"1";"2014-10-01 10:40:54.950";"2014-10-01 10:49:29.580";"1";"0";"1";"129";"128";"module.training_block4.exec-4372.GoNoGo4";;;;;;;;;;;;;;;;;;;;;;;;;;;;;;;;;;;;;"1262";"2014-10-01 10:47:52.204";"NST_correctLoc";"5";"0";"FINISHED";"LEFT";"success";"365";"0";"2014-10-01 10:47:50.941";"1";;;;;;;;;;;;;;;;;;;;;
"EWEST16";"1995";;"Windows 7";"Rachel's Experiment (D.T.)";"1.0";"2";"1";"1";"2";"1";"1";"2014-10-01 10:40:54.950";"2014-10-01 10:49:29.580";"1";"0";"1";"130";"129";"module.training_block4.exec-4372.GoNoGo4";;;;;;;;;;;;;;;;;;;;;;;;;;;;;;;;;;;;;"1262";"2014-10-01 10:47:54.747";"NST_correctLoc";"24";"0";"FINISHED";"LEFT";"success";"398";"0";"2014-10-01 10:47:53.483";"3";;;;;;;;;;;;;;;;;;;;;
"EWEST16";"1995";;"Windows 7";"Rachel's Experiment (D.T.)";"1.0";"2";"1";"1";"2";"1";"1";"2014-10-01 10:40:54.950";"2014-10-01 10:49:29.580";"1";"0";"1";"131";"130";"module.training_block4.exec-4372.GoNoGo4";;;;;;;;;;;;;;;;;;;;;;;;;;;;;;;;;;;;;"1261";"2014-10-01 10:47:57.290";"NST_correctLoc";"20";"0";"FINISHED";"LEFT";"success";"367";"0";"2014-10-01 10:47:56.026";"3";;;;;;;;;;;;;;;;;;;;;
"EWEST16";"1995";;"Windows 7";"Rachel's Experiment (D.T.)";"1.0";"2";"1";"1";"2";"1";"1";"2014-10-01 10:40:54.950";"2014-10-01 10:49:29.580";"1";"0";"1";"132";"131";"module.training_block4.exec-4372.GoNoGo4";;;;;;;;;;;;;;;;;;;;;;;;;;;;;;;;;;;;;"1262";"2014-10-01 10:47:59.833";"NST_correctLoc";"9";"1";"FINISHED";"RIGHT";"success";"369";"0";"2014-10-01 10:47:58.569";"2";;;;;;;;;;;;;;;;;;;;;
"EWEST16";"1995";;"Windows 7";"Rachel's Experiment (D.T.)";"1.0";"2";"1";"1";"2";"1";"1";"2014-10-01 10:40:54.950";"2014-10-01 10:49:29.580";"1";"0";"1";"133";"132";"module.training_block4.exec-4372.GoNoGo4";;;;;;;;;;;;;;;;;;;;;;;;;;;;;;;;;;;;;"1262";"2014-10-01 10:48:02.375";"NST_correctLoc";"7";"1";"FINISHED";"RIGHT";"success";"618";"0";"2014-10-01 10:48:01.112";"1";;;;;;;;;;;;;;;;;;;;;
"EWEST16";"1995";;"Windows 7";"Rachel's Experiment (D.T.)";"1.0";"2";"1";"1";"2";"1";"1";"2014-10-01 10:40:54.950";"2014-10-01 10:49:29.580";"1";"0";"1";"134";"133";"module.training_block4.exec-4372.GoNoGo4";;;;;;;;;;;;;;;;;;;;;;;;;;;;;;;;;;;;;"1262";"2014-10-01 10:48:04.918";"NST_correctLoc";"8";"0";"FINISHED";"LEFT";"success";"459";"0";"2014-10-01 10:48:03.655";"1";;;;;;;;;;;;;;;;;;;;;
"EWEST16";"1995";;"Windows 7";"Rachel's Experiment (D.T.)";"1.0";"2";"1";"1";"2";"1";"1";"2014-10-01 10:40:54.950";"2014-10-01 10:49:29.580";"1";"0";"1";"135";"134";"module.training_block4.exec-4372.GoNoGo4";;;;;;;;;;;;;;;;;;;;;;;;;;;;;;;;;;;;;"1262";"2014-10-01 10:48:07.461";"NST_correctLoc";"17";"1";"FINISHED";"RIGHT";"success";"340";"0";"2014-10-01 10:48:06.197";"2";;;;;;;;;;;;;;;;;;;;;
"EWEST16";"1995";;"Windows 7";"Rachel's Experiment (D.T.)";"1.0";"2";"1";"1";"2";"1";"1";"2014-10-01 10:40:54.950";"2014-10-01 10:49:29.580";"1";"0";"1";"136";"135";"module.training_block4.exec-4372.GoNoGo4";;;;;;;;;;;;;;;;;;;;;;;;;;;;;;;;;;;;;"1262";"2014-10-01 10:48:10.019";"NST_correctLoc";"16";"0";"FINISHED";"LEFT";"success";"326";"0";"2014-10-01 10:48:08.756";"2";;;;;;;;;;;;;;;;;;;;;
"EWEST16";"1995";;"Windows 7";"Rachel's Experiment (D.T.)";"1.0";"2";"1";"1";"2";"1";"1";"2014-10-01 10:40:54.950";"2014-10-01 10:49:29.580";"1";"0";"1";"137";"136";"module.training_block4.exec-4372.GoNoGo4";;;;;;;;;;;;;;;;;;;;;;;;;;;;;;;;;;;;;"1262";"2014-10-01 10:48:12.562";"NST_correctLoc";"10";"0";"FINISHED";"LEFT";"success";"463";"0";"2014-10-01 10:48:11.299";"2";;;;;;;;;;;;;;;;;;;;;
"EWEST16";"1995";;"Windows 7";"Rachel's Experiment (D.T.)";"1.0";"2";"1";"1";"2";"1";"1";"2014-10-01 10:40:54.950";"2014-10-01 10:49:29.580";"1";"0";"1";"138";"137";"module.training_block4.exec-4372.GoNoGo4";;;;;;;;;;;;;;;;;;;;;;;;;;;;;;;;;;;;;"1262";"2014-10-01 10:48:15.105";"NST_correctLoc";"2";"0";"FINISHED";"LEFT";"success";"416";"0";"2014-10-01 10:48:13.841";"1";;;;;;;;;;;;;;;;;;;;;
"EWEST16";"1995";;"Windows 7";"Rachel's Experiment (D.T.)";"1.0";"2";"1";"1";"2";"1";"1";"2014-10-01 10:40:54.950";"2014-10-01 10:49:29.580";"1";"0";"1";"139";"138";"module.training_block4.exec-4372.GoNoGo4";;;;;;;;;;;;;;;;;;;;;;;;;;;;;;;;;;;;;"1261";"2014-10-01 10:48:17.648";"NST_correctLoc";"19";"1";"FINISHED";"RIGHT";"success";"353";"0";"2014-10-01 10:48:16.384";"3";;;;;;;;;;;;;;;;;;;;;
"EWEST16";"1995";;"Windows 7";"Rachel's Experiment (D.T.)";"1.0";"2";"1";"1";"2";"1";"1";"2014-10-01 10:40:54.950";"2014-10-01 10:49:29.580";"1";"0";"1";"140";"139";"module.training_block4.exec-4372.GoNoGo4";;;;;;;;;;;;;;;;;;;;;;;;;;;;;;;;;;;;;"1262";"2014-10-01 10:48:20.175";"NST_correctLoc";"21";"0";"FINISHED";"LEFT";"success";"402";"0";"2014-10-01 10:48:18.911";"3";;;;;;;;;;;;;;;;;;;;;
"EWEST16";"1995";;"Windows 7";"Rachel's Experiment (D.T.)";"1.0";"2";"1";"1";"2";"1";"1";"2014-10-01 10:40:54.950";"2014-10-01 10:49:29.580";"1";"0";"1";"141";"140";"module.training_block4.exec-4372.GoNoGo4";;;;;;;;;;;;;;;;;;;;;;;;;;;;;;;;;;;;;"1262";"2014-10-01 10:48:22.702";"NST_correctLoc";"34";"0";"FINISHED";"LEFT";"success";"411";"0";"2014-10-01 10:48:21.439";"3";;;;;;;;;;;;;;;;;;;;;
"EWEST16";"1995";;"Windows 7";"Rachel's Experiment (D.T.)";"1.0";"2";"1";"1";"2";"1";"1";"2014-10-01 10:40:54.950";"2014-10-01 10:49:29.580";"1";"0";"1";"142";"141";"module.training_block4.exec-4372.GoNoGo4";;;;;;;;;;;;;;;;;;;;;;;;;;;;;;;;;;;;;"1262";"2014-10-01 10:48:25.245";"NST_correctLoc";"15";"0";"FINISHED";"LEFT";"success";"348";"0";"2014-10-01 10:48:23.981";"2";;;;;;;;;;;;;;;;;;;;;
"EWEST16";"1995";;"Windows 7";"Rachel's Experiment (D.T.)";"1.0";"2";"1";"1";"2";"1";"1";"2014-10-01 10:40:54.950";"2014-10-01 10:49:29.580";"1";"0";"1";"143";"142";"module.training_block4.exec-4372.GoNoGo4";;;;;;;;;;;;;;;;;;;;;;;;;;;;;;;;;;;;;"1262";"2014-10-01 10:48:27.788";"NST_correctLoc";"23";"1";"FINISHED";"RIGHT";"success";"365";"0";"2014-10-01 10:48:26.524";"3";;;;;;;;;;;;;;;;;;;;;
"EWEST16";"1995";;"Windows 7";"Rachel's Experiment (D.T.)";"1.0";"2";"1";"1";"2";"1";"1";"2014-10-01 10:40:54.950";"2014-10-01 10:49:29.580";"1";"0";"1";"144";"143";"module.training_block4.exec-4372.GoNoGo4";;;;;;;;;;;;;;;;;;;;;;;;;;;;;;;;;;;;;"1262";"2014-10-01 10:48:30.315";"NST_correctLoc";"22";"1";"FINISHED";"RIGHT";"success";"358";"0";"2014-10-01 10:48:29.052";"3";;;;;;;;;;;;;;;;;;;;;
"EWEST16";"1995";;"Windows 7";"Rachel's Experiment (D.T.)";"1.0";"2";"1";"1";"2";"1";"1";"2014-10-01 10:40:54.950";"2014-10-01 10:49:29.580";"1";"0";"1";"145";"144";"module.training_block4.exec-4372.GoNoGo4";;;;;;;;;;;;;;;;;;;;;;;;;;;;;;;;;;;;;"1262";"2014-10-01 10:48:32.858";"NST_correctLoc";"1";"1";"FINISHED";"RIGHT";"success";"463";"0";"2014-10-01 10:48:31.594";"1";;;;;;;;;;;;;;;;;;;;;
"EWEST16";"1995";;"Windows 7";"Rachel's Experiment (D.T.)";"1.0";"2";"1";"1";"2";"1";"1";"2014-10-01 10:40:54.950";"2014-10-01 10:49:29.580";"1";"0";"1";"146";"145";"module.training_block4.exec-4372.GoNoGo4";;;;;;;;;;;;;;;;;;;;;;;;;;;;;;;;;;;;;"1262";"2014-10-01 10:48:35.385";"NST_correctLoc";"12";"0";"FINISHED";"LEFT";"success";"432";"0";"2014-10-01 10:48:34.122";"2";;;;;;;;;;;;;;;;;;;;;
"EWEST16";"1995";;"Windows 7";"Rachel's Experiment (D.T.)";"1.0";"2";"1";"1";"2";"1";"1";"2014-10-01 10:40:54.950";"2014-10-01 10:49:29.580";"1";"0";"1";"147";"146";"module.training_block4.exec-4372.GoNoGo4";;;;;;;;;;;;;;;;;;;;;;;;;;;;;;;;;;;;;"1262";"2014-10-01 10:48:37.912";"NST_correctLoc";"11";"0";"FINISHED";"LEFT";"success";"433";"0";"2014-10-01 10:48:36.649";"2";;;;;;;;;;;;;;;;;;;;;
"EWEST16";"1995";;"Windows 7";"Rachel's Experiment (D.T.)";"1.0";"2";"1";"1";"2";"1";"1";"2014-10-01 10:40:54.950";"2014-10-01 10:49:29.580";"1";"0";"1";"148";"147";"module.training_block4.exec-4372.GoNoGo4";;;;;;;;;;;;;;;;;;;;;;;;;;;;;;;;;;;;;"1262";"2014-10-01 10:48:40.455";"NST_correctLoc";"33";"1";"FINISHED";"RIGHT";"success";"530";"0";"2014-10-01 10:48:39.192";"3";;;;;;;;;;;;;;;;;;;;;
"EWEST16";"1995";;"Windows 7";"Rachel's Experiment (D.T.)";"1.0";"2";"1";"1";"2";"1";"1";"2014-10-01 10:40:54.950";"2014-10-01 10:49:29.580";"1";"0";"1";"149";"148";"module.training_block4.exec-4372.GoNoGo4";;;;;;;;;;;;;;;;;;;;;;;;;;;;;;;;;;;;;"1262";"2014-10-01 10:48:42.982";"NST_correctLoc";"13";"1";"FINISHED";"RIGHT";"success";"427";"0";"2014-10-01 10:48:41.719";"2";;;;;;;;;;;;;;;;;;;;;
"EWEST16";"1995";;"Windows 7";"Rachel's Experiment (D.T.)";"1.0";"2";"1";"1";"2";"1";"1";"2014-10-01 10:40:54.950";"2014-10-01 10:49:29.580";"1";"0";"1";"150";"149";"module.training_block4.exec-4372.GoNoGo4";;;;;;;;;;;;;;;;;;;;;;;;;;;;;;;;;;;;;"1262";"2014-10-01 10:48:45.525";"NST_correctLoc";"6";"0";"FINISHED";"LEFT";"success";"652";"0";"2014-10-01 10:48:44.262";"1";;;;;;;;;;;;;;;;;;;;;
"EWEST16";"1995";;"Windows 7";"Rachel's Experiment (D.T.)";"1.0";"2";"1";"1";"2";"1";"1";"2014-10-01 10:40:54.950";"2014-10-01 10:49:29.580";"1";"0";"1";"151";"150";"module.training_block4.exec-4372.GoNoGo4";;;;;;;;;;;;;;;;;;;;;;;;;;;;;;;;;;;;;"1262";"2014-10-01 10:48:48.052";"NST_correctLoc";"27";"0";"FINISHED";"LEFT";"success";"373";"0";"2014-10-01 10:48:46.789";"3";;;;;;;;;;;;;;;;;;;;;
"EWEST16";"1995";;"Windows 7";"Rachel's Experiment (D.T.)";"1.0";"2";"1";"1";"2";"1";"1";"2014-10-01 10:40:54.950";"2014-10-01 10:49:29.580";"1";"0";"1";"152";"151";"module.training_block4.exec-4372.GoNoGo4";;;;;;;;;;;;;;;;;;;;;;;;;;;;;;;;;;;;;"1262";"2014-10-01 10:48:50.595";"NST_correctLoc";"32";"0";"FINISHED";"LEFT";"success";"374";"0";"2014-10-01 10:48:49.332";"3";;;;;;;;;;;;;;;;;;;;;
"EWEST16";"1995";;"Windows 7";"Rachel's Experiment (D.T.)";"1.0";"2";"1";"1";"2";"1";"1";"2014-10-01 10:40:54.950";"2014-10-01 10:49:29.580";"1";"0";"1";"153";"152";"module.training_block4.exec-4372.GoNoGo4";;;;;;;;;;;;;;;;;;;;;;;;;;;;;;;;;;;;;"1262";"2014-10-01 10:48:53.138";"NST_correctLoc";"29";"1";"FINISHED";"RIGHT";"success";"383";"0";"2014-10-01 10:48:51.874";"3";;;;;;;;;;;;;;;;;;;;;
"EWEST16";"1995";;"Windows 7";"Rachel's Experiment (D.T.)";"1.0";"2";"1";"1";"2";"1";"1";"2014-10-01 10:40:54.950";"2014-10-01 10:49:29.580";"1";"0";"1";"154";"153";"module.training_block4.exec-4372.GoNoGo4";;;;;;;;;;;;;;;;;;;;;;;;;;;;;;;;;;;;;"1262";"2014-10-01 10:48:55.665";"NST_correctLoc";"26";"0";"FINISHED";"LEFT";"success";"440";"0";"2014-10-01 10:48:54.402";"3";;;;;;;;;;;;;;;;;;;;;
"EWEST16";"1995";;"Windows 7";"Rachel's Experiment (D.T.)";"1.0";"2";"1";"1";"2";"1";"1";"2014-10-01 10:40:54.950";"2014-10-01 10:49:29.580";"1";"0";"1";"155";"154";"module.training_block4.exec-4372.GoNoGo4";;;;;;;;;;;;;;;;;;;;;;;;;;;;;;;;;;;;;"1262";"2014-10-01 10:48:58.208";"NST_correctLoc";"35";"0";"FINISHED";"LEFT";"success";"497";"0";"2014-10-01 10:48:56.944";"3";;;;;;;;;;;;;;;;;;;;;
"EWEST16";"1995";;"Windows 7";"Rachel's Experiment (D.T.)";"1.0";"2";"1";"1";"2";"1";"1";"2014-10-01 10:40:54.950";"2014-10-01 10:49:29.580";"1";"0";"1";"156";"155";"module.training_block4.exec-4372.GoNoGo4";;;;;;;;;;;;;;;;;;;;;;;;;;;;;;;;;;;;;"1262";"2014-10-01 10:49:00.735";"NST_correctLoc";"28";"1";"FINISHED";"RIGHT";"success";"426";"0";"2014-10-01 10:48:59.472";"3";;;;;;;;;;;;;;;;;;;;;
"EWEST16";"1995";;"Windows 7";"Rachel's Experiment (D.T.)";"1.0";"2";"1";"1";"2";"1";"1";"2014-10-01 10:40:54.950";"2014-10-01 10:49:29.580";"1";"0";"1";"157";"156";"module.training_block4.exec-4372.GoNoGo4";;;;;;;;;;;;;;;;;;;;;;;;;;;;;;;;;;;;;"1262";"2014-10-01 10:49:03.278";"NST_correctLoc";"31";"1";"FINISHED";"RIGHT";"success";"443";"0";"2014-10-01 10:49:02.014";"3";;;;;;;;;;;;;;;;;;;;;
"EWEST16";"1995";;"Windows 7";"Rachel's Experiment (D.T.)";"1.0";"2";"1";"1";"2";"1";"1";"2014-10-01 10:40:54.950";"2014-10-01 10:49:29.580";"1";"0";"1";"158";"157";"module.training_block4.exec-4372.GoNoGo4";;;;;;;;;;;;;;;;;;;;;;;;;;;;;;;;;;;;;"1262";"2014-10-01 10:49:05.821";"NST_correctLoc";"25";"0";"FINISHED";"LEFT";"success";"396";"0";"2014-10-01 10:49:04.557";"3";;;;;;;;;;;;;;;;;;;;;
"EWEST16";"1995";;"Windows 7";"Rachel's Experiment (D.T.)";"1.0";"2";"1";"1";"2";"1";"1";"2014-10-01 10:40:54.950";"2014-10-01 10:49:29.580";"1";"0";"1";"159";"158";"module.training_block4.exec-4372.GoNoGo4";;;;;;;;;;;;;;;;;;;;;;;;;;;;;;;;;;;;;"1262";"2014-10-01 10:49:08.348";"NST_correctLoc";"3";"0";"FINISHED";"LEFT";"success";"525";"0";"2014-10-01 10:49:07.084";"1";;;;;;;;;;;;;;;;;;;;;
