"user.name";"user.yearOfBirth";"user.sex";"user.osName";"module.name";"module.version";"module.online.subject.code";"module.online.study.id";"module.online.module.nr";"module.online.group.nr";"session.id";"session.index";"session.startTime";"session.endTime";"session.completed";"session.node-6493.conditionType";"session.node-7667.DevalQorder";"trial.id";"trial.index";"trial.name";"trial.deval1.durationTime";"trial.deval1.endTime";"trial.deval1.icon";"trial.deval1.Resp_Attractive";"trial.deval1.Resp_Eat";"trial.deval1.Resp_Taste";"trial.deval1.RT_Attractive";"trial.deval1.RT_Eat";"trial.deval1.RT_Taste";"trial.deval1.startTime";"trial.deval1.stimulus type";"trial.devalPractice.durationTime";"trial.devalPractice.endTime";"trial.devalPractice.icon";"trial.devalPractice.Resp_Attractive";"trial.devalPractice.Resp_Eat";"trial.devalPractice.Resp_Taste";"trial.devalPractice.RT_Attractive";"trial.devalPractice.RT_Eat";"trial.devalPractice.RT_Taste";"trial.devalPractice.startTime";"trial.devalPractice.stimulus type";"trial.GoNoGo1.durationTime";"trial.GoNoGo1.endTime";"trial.GoNoGo1.Error Type";"trial.GoNoGo1.icon";"trial.GoNoGo1.location";"trial.GoNoGo1.outcome";"trial.GoNoGo1.response";"trial.GoNoGo1.result";"trial.GoNoGo1.RT";"trial.GoNoGo1.signal";"trial.GoNoGo1.startTime";"trial.GoNoGo1.stimulus type";"trial.GoNoGo2.durationTime";"trial.GoNoGo2.endTime";"trial.GoNoGo2.Error Type";"trial.GoNoGo2.icon";"trial.GoNoGo2.location";"trial.GoNoGo2.outcome";"trial.GoNoGo2.response";"trial.GoNoGo2.result";"trial.GoNoGo2.RT";"trial.GoNoGo2.signal";"trial.GoNoGo2.startTime";"trial.GoNoGo2.stimulus type";"trial.GoNoGo3.durationTime";"trial.GoNoGo3.endTime";"trial.GoNoGo3.Error Type";"trial.GoNoGo3.icon";"trial.GoNoGo3.location";"trial.GoNoGo3.outcome";"trial.GoNoGo3.response";"trial.GoNoGo3.result";"trial.GoNoGo3.RT";"trial.GoNoGo3.signal";"trial.GoNoGo3.startTime";"trial.GoNoGo3.stimulus type";"trial.GoNoGo4.durationTime";"trial.GoNoGo4.endTime";"trial.GoNoGo4.Error Type";"trial.GoNoGo4.icon";"trial.GoNoGo4.location";"trial.GoNoGo4.outcome";"trial.GoNoGo4.response";"trial.GoNoGo4.result";"trial.GoNoGo4.RT";"trial.GoNoGo4.signal";"trial.GoNoGo4.startTime";"trial.GoNoGo4.stimulus type";"trial.GoNoGo_Practice.durationTime";"trial.GoNoGo_Practice.endTime";"trial.GoNoGo_Practice.icon";"trial.GoNoGo_Practice.location";"trial.GoNoGo_Practice.outcome";"trial.GoNoGo_Practice.response";"trial.GoNoGo_Practice.result";"trial.GoNoGo_Practice.RT";"trial.GoNoGo_Practice.signal";"trial.GoNoGo_Practice.startTime";"trial.GoNoGo_Practice.stimulus type";"trial.GoNoGo_Tutorial.durationTime";"trial.GoNoGo_Tutorial.endTime";"trial.GoNoGo_Tutorial.icon";"trial.GoNoGo_Tutorial.location";"trial.GoNoGo_Tutorial.outcome";"trial.GoNoGo_Tutorial.response";"trial.GoNoGo_Tutorial.result";"trial.GoNoGo_Tutorial.RT";"trial.GoNoGo_Tutorial.signal";"trial.GoNoGo_Tutorial.startTime"
"patronum123";"1986";;"Windows 7";"Rachel's Experiment (D.T.)";"1.0";"2";"1";"1";"2";"1";"1";"2014-10-11 12:27:01.492";"2014-10-11 12:43:07.176";"1";"0";"0";"1";"0";"module.GoNoGotutorial.exec-6185.GoNoGo_Tutorial";;;;;;;;;;;;;;;;;;;;;;;;;;;;;;;;;;;;;;;;;;;;;;;;;;;;;;;;;;;;;;;;;;;;;;;;;;;;;;;;;;"4002";"2014-10-11 12:29:35.203";"leftResponse";"0";"FINISHED";"LEFT";"success";"3903";"0";"2014-10-11 12:29:31.200"
"patronum123";"1986";;"Windows 7";"Rachel's Experiment (D.T.)";"1.0";"2";"1";"1";"2";"1";"1";"2014-10-11 12:27:01.492";"2014-10-11 12:43:07.176";"1";"0";"0";"2";"1";"module.GoNoGotutorial.exec-6185.GoNoGo_Tutorial";;;;;;;;;;;;;;;;;;;;;;;;;;;;;;;;;;;;;;;;;;;;;;;;;;;;;;;;;;;;;;;;;;;;;;;;;;;;;;;;;;"3999";"2014-10-11 12:29:40.545";"rightResponse";"1";"FINISHED";"RIGHT";"success";"645";"0";"2014-10-11 12:29:36.544"
"patronum123";"1986";;"Windows 7";"Rachel's Experiment (D.T.)";"1.0";"2";"1";"1";"2";"1";"1";"2014-10-11 12:27:01.492";"2014-10-11 12:43:07.176";"1";"0";"0";"3";"2";"module.GoNoGotutorial.exec-6185.GoNoGo_Tutorial";;;;;;;;;;;;;;;;;;;;;;;;;;;;;;;;;;;;;;;;;;;;;;;;;;;;;;;;;;;;;;;;;;;;;;;;;;;;;;;;;;"4000";"2014-10-11 12:29:45.860";"quickResponse";"0";"FINISHED";"NONE";"failure";"0";"0";"2014-10-11 12:29:41.860"
"patronum123";"1986";;"Windows 7";"Rachel's Experiment (D.T.)";"1.0";"2";"1";"1";"2";"1";"1";"2014-10-11 12:27:01.492";"2014-10-11 12:43:07.176";"1";"0";"0";"4";"3";"module.GoNoGopractice.exec-1845.GoNoGo_Practice";;;;;;;;;;;;;;;;;;;;;;;;;;;;;;;;;;;;;;;;;;;;;;;;;;;;;;;;;;;;;;;;;;;;;;;"1966";"2014-10-11 12:29:56.150";"18";"0";"FINISHED";"LEFT";"success";"376";"0";"2014-10-11 12:29:54.182";"3";;;;;;;;;;
"patronum123";"1986";;"Windows 7";"Rachel's Experiment (D.T.)";"1.0";"2";"1";"1";"2";"1";"1";"2014-10-11 12:27:01.492";"2014-10-11 12:43:07.176";"1";"0";"0";"5";"4";"module.GoNoGopractice.exec-1845.GoNoGo_Practice";;;;;;;;;;;;;;;;;;;;;;;;;;;;;;;;;;;;;;;;;;;;;;;;;;;;;;;;;;;;;;;;;;;;;;;"1953";"2014-10-11 12:29:59.414";"21";"1";"FINISHED";"RIGHT";"success";"488";"0";"2014-10-11 12:29:57.460";"3";;;;;;;;;;
"patronum123";"1986";;"Windows 7";"Rachel's Experiment (D.T.)";"1.0";"2";"1";"1";"2";"1";"1";"2014-10-11 12:27:01.492";"2014-10-11 12:43:07.176";"1";"0";"0";"6";"5";"module.GoNoGopractice.exec-1845.GoNoGo_Practice";;;;;;;;;;;;;;;;;;;;;;;;;;;;;;;;;;;;;;;;;;;;;;;;;;;;;;;;;;;;;;;;;;;;;;;"1954";"2014-10-11 12:30:02.681";"14";"1";"FINISHED";"RIGHT";"success";"480";"0";"2014-10-11 12:30:00.727";"2";;;;;;;;;;
"patronum123";"1986";;"Windows 7";"Rachel's Experiment (D.T.)";"1.0";"2";"1";"1";"2";"1";"1";"2014-10-11 12:27:01.492";"2014-10-11 12:43:07.176";"1";"0";"0";"7";"6";"module.GoNoGopractice.exec-1845.GoNoGo_Practice";;;;;;;;;;;;;;;;;;;;;;;;;;;;;;;;;;;;;;;;;;;;;;;;;;;;;;;;;;;;;;;;;;;;;;;"1953";"2014-10-11 12:30:05.957";"26";"0";"FINISHED";"LEFT";"success";"383";"0";"2014-10-11 12:30:04.003";"3";;;;;;;;;;
"patronum123";"1986";;"Windows 7";"Rachel's Experiment (D.T.)";"1.0";"2";"1";"1";"2";"1";"1";"2014-10-11 12:27:01.492";"2014-10-11 12:43:07.176";"1";"0";"0";"8";"7";"module.GoNoGopractice.exec-1845.GoNoGo_Practice";;;;;;;;;;;;;;;;;;;;;;;;;;;;;;;;;;;;;;;;;;;;;;;;;;;;;;;;;;;;;;;;;;;;;;;"1954";"2014-10-11 12:30:09.221";"2";"0";"FINISHED";"LEFT";"success";"458";"0";"2014-10-11 12:30:07.267";"1";;;;;;;;;;
"patronum123";"1986";;"Windows 7";"Rachel's Experiment (D.T.)";"1.0";"2";"1";"1";"2";"1";"1";"2014-10-11 12:27:01.492";"2014-10-11 12:43:07.176";"1";"0";"0";"9";"8";"module.GoNoGopractice.exec-1845.GoNoGo_Practice";;;;;;;;;;;;;;;;;;;;;;;;;;;;;;;;;;;;;;;;;;;;;;;;;;;;;;;;;;;;;;;;;;;;;;;"1953";"2014-10-11 12:30:12.490";"30";"0";"FINISHED";"LEFT";"success";"409";"0";"2014-10-11 12:30:10.535";"3";;;;;;;;;;
"patronum123";"1986";;"Windows 7";"Rachel's Experiment (D.T.)";"1.0";"2";"1";"1";"2";"1";"1";"2014-10-11 12:27:01.492";"2014-10-11 12:43:07.176";"1";"0";"0";"10";"9";"module.GoNoGopractice.exec-1845.GoNoGo_Practice";;;;;;;;;;;;;;;;;;;;;;;;;;;;;;;;;;;;;;;;;;;;;;;;;;;;;;;;;;;;;;;;;;;;;;;"1954";"2014-10-11 12:30:15.759";"6";"1";"FINISHED";"RIGHT";"success";"350";"0";"2014-10-11 12:30:13.804";"1";;;;;;;;;;
"patronum123";"1986";;"Windows 7";"Rachel's Experiment (D.T.)";"1.0";"2";"1";"1";"2";"1";"1";"2014-10-11 12:27:01.492";"2014-10-11 12:43:07.176";"1";"0";"0";"11";"10";"module.GoNoGopractice.exec-1845.GoNoGo_Practice";;;;;;;;;;;;;;;;;;;;;;;;;;;;;;;;;;;;;;;;;;;;;;;;;;;;;;;;;;;;;;;;;;;;;;;"1954";"2014-10-11 12:30:19.021";"34";"0";"FINISHED";"LEFT";"success";"376";"0";"2014-10-11 12:30:17.067";"3";;;;;;;;;;
"patronum123";"1986";;"Windows 7";"Rachel's Experiment (D.T.)";"1.0";"2";"1";"1";"2";"1";"1";"2014-10-11 12:27:01.492";"2014-10-11 12:43:07.176";"1";"0";"0";"12";"11";"module.GoNoGopractice.exec-1845.GoNoGo_Practice";;;;;;;;;;;;;;;;;;;;;;;;;;;;;;;;;;;;;;;;;;;;;;;;;;;;;;;;;;;;;;;;;;;;;;;"1955";"2014-10-11 12:30:22.297";"23";"1";"FINISHED";"RIGHT";"success";"415";"0";"2014-10-11 12:30:20.341";"3";;;;;;;;;;
"patronum123";"1986";;"Windows 7";"Rachel's Experiment (D.T.)";"1.0";"2";"1";"1";"2";"1";"1";"2014-10-11 12:27:01.492";"2014-10-11 12:43:07.176";"1";"0";"0";"13";"12";"module.GoNoGopractice.exec-1845.GoNoGo_Practice";;;;;;;;;;;;;;;;;;;;;;;;;;;;;;;;;;;;;;;;;;;;;;;;;;;;;;;;;;;;;;;;;;;;;;;"1953";"2014-10-11 12:30:25.568";"13";"0";"FINISHED";"LEFT";"success";"356";"0";"2014-10-11 12:30:23.614";"2";;;;;;;;;;
"patronum123";"1986";;"Windows 7";"Rachel's Experiment (D.T.)";"1.0";"2";"1";"1";"2";"1";"1";"2014-10-11 12:27:01.492";"2014-10-11 12:43:07.176";"1";"0";"0";"14";"13";"module.GoNoGopractice.exec-1845.GoNoGo_Practice";;;;;;;;;;;;;;;;;;;;;;;;;;;;;;;;;;;;;;;;;;;;;;;;;;;;;;;;;;;;;;;;;;;;;;;"1955";"2014-10-11 12:30:28.836";"3";"1";"FINISHED";"RIGHT";"success";"369";"0";"2014-10-11 12:30:26.881";"1";;;;;;;;;;
"patronum123";"1986";;"Windows 7";"Rachel's Experiment (D.T.)";"1.0";"2";"1";"1";"2";"1";"1";"2014-10-11 12:27:01.492";"2014-10-11 12:43:07.176";"1";"0";"0";"15";"14";"module.GoNoGopractice.exec-1845.GoNoGo_Practice";;;;;;;;;;;;;;;;;;;;;;;;;;;;;;;;;;;;;;;;;;;;;;;;;;;;;;;;;;;;;;;;;;;;;;;"1953";"2014-10-11 12:30:32.106";"27";"1";"FINISHED";"RIGHT";"success";"367";"0";"2014-10-11 12:30:30.152";"3";;;;;;;;;;
"patronum123";"1986";;"Windows 7";"Rachel's Experiment (D.T.)";"1.0";"2";"1";"1";"2";"1";"1";"2014-10-11 12:27:01.492";"2014-10-11 12:43:07.176";"1";"0";"0";"16";"15";"module.training_block1.exec-8006.GoNoGo1";;;;;;;;;;;;;;;;;;;;;;;"1253";"2014-10-11 12:30:43.582";"NST_correctLoc";"33";"0";"FINISHED";"LEFT";"success";"363";"0";"2014-10-11 12:30:42.328";"3";;;;;;;;;;;;;;;;;;;;;;;;;;;;;;;;;;;;;;;;;;;;;;;;;;;;;;;;;
"patronum123";"1986";;"Windows 7";"Rachel's Experiment (D.T.)";"1.0";"2";"1";"1";"2";"1";"1";"2014-10-11 12:27:01.492";"2014-10-11 12:43:07.176";"1";"0";"0";"17";"16";"module.training_block1.exec-8006.GoNoGo1";;;;;;;;;;;;;;;;;;;;;;;"1249";"2014-10-11 12:30:46.134";"NST_correctLoc";"23";"0";"FINISHED";"LEFT";"success";"391";"0";"2014-10-11 12:30:44.884";"3";;;;;;;;;;;;;;;;;;;;;;;;;;;;;;;;;;;;;;;;;;;;;;;;;;;;;;;;;
"patronum123";"1986";;"Windows 7";"Rachel's Experiment (D.T.)";"1.0";"2";"1";"1";"2";"1";"1";"2014-10-11 12:27:01.492";"2014-10-11 12:43:07.176";"1";"0";"0";"18";"17";"module.training_block1.exec-8006.GoNoGo1";;;;;;;;;;;;;;;;;;;;;;;"1250";"2014-10-11 12:30:48.680";"NST_correctLoc";"18";"1";"FINISHED";"RIGHT";"success";"400";"0";"2014-10-11 12:30:47.430";"3";;;;;;;;;;;;;;;;;;;;;;;;;;;;;;;;;;;;;;;;;;;;;;;;;;;;;;;;;
"patronum123";"1986";;"Windows 7";"Rachel's Experiment (D.T.)";"1.0";"2";"1";"1";"2";"1";"1";"2014-10-11 12:27:01.492";"2014-10-11 12:43:07.176";"1";"0";"0";"19";"18";"module.training_block1.exec-8006.GoNoGo1";;;;;;;;;;;;;;;;;;;;;;;"1250";"2014-10-11 12:30:51.237";"NST_correctLoc";"32";"1";"FINISHED";"RIGHT";"success";"387";"0";"2014-10-11 12:30:49.987";"3";;;;;;;;;;;;;;;;;;;;;;;;;;;;;;;;;;;;;;;;;;;;;;;;;;;;;;;;;
"patronum123";"1986";;"Windows 7";"Rachel's Experiment (D.T.)";"1.0";"2";"1";"1";"2";"1";"1";"2014-10-11 12:27:01.492";"2014-10-11 12:43:07.176";"1";"0";"0";"20";"19";"module.training_block1.exec-8006.GoNoGo1";;;;;;;;;;;;;;;;;;;;;;;"1249";"2014-10-11 12:30:53.802";"NST_correctLoc";"9";"0";"FINISHED";"LEFT";"success";"325";"0";"2014-10-11 12:30:52.552";"2";;;;;;;;;;;;;;;;;;;;;;;;;;;;;;;;;;;;;;;;;;;;;;;;;;;;;;;;;
"patronum123";"1986";;"Windows 7";"Rachel's Experiment (D.T.)";"1.0";"2";"1";"1";"2";"1";"1";"2014-10-11 12:27:01.492";"2014-10-11 12:43:07.176";"1";"0";"0";"21";"20";"module.training_block1.exec-8006.GoNoGo1";;;;;;;;;;;;;;;;;;;;;;;"1249";"2014-10-11 12:30:56.364";"NST_correctLoc";"20";"0";"FINISHED";"LEFT";"success";"376";"0";"2014-10-11 12:30:55.114";"3";;;;;;;;;;;;;;;;;;;;;;;;;;;;;;;;;;;;;;;;;;;;;;;;;;;;;;;;;
"patronum123";"1986";;"Windows 7";"Rachel's Experiment (D.T.)";"1.0";"2";"1";"1";"2";"1";"1";"2014-10-11 12:27:01.492";"2014-10-11 12:43:07.176";"1";"0";"0";"22";"21";"module.training_block1.exec-8006.GoNoGo1";;;;;;;;;;;;;;;;;;;;;;;"1249";"2014-10-11 12:30:58.916";"NST_correctLoc";"8";"1";"FINISHED";"RIGHT";"success";"289";"0";"2014-10-11 12:30:57.666";"1";;;;;;;;;;;;;;;;;;;;;;;;;;;;;;;;;;;;;;;;;;;;;;;;;;;;;;;;;
"patronum123";"1986";;"Windows 7";"Rachel's Experiment (D.T.)";"1.0";"2";"1";"1";"2";"1";"1";"2014-10-11 12:27:01.492";"2014-10-11 12:43:07.176";"1";"0";"0";"23";"22";"module.training_block1.exec-8006.GoNoGo1";;;;;;;;;;;;;;;;;;;;;;;"1249";"2014-10-11 12:31:01.458";"NST_correctLoc";"21";"0";"FINISHED";"LEFT";"success";"300";"0";"2014-10-11 12:31:00.208";"3";;;;;;;;;;;;;;;;;;;;;;;;;;;;;;;;;;;;;;;;;;;;;;;;;;;;;;;;;
"patronum123";"1986";;"Windows 7";"Rachel's Experiment (D.T.)";"1.0";"2";"1";"1";"2";"1";"1";"2014-10-11 12:27:01.492";"2014-10-11 12:43:07.176";"1";"0";"0";"24";"23";"module.training_block1.exec-8006.GoNoGo1";;;;;;;;;;;;;;;;;;;;;;;"1249";"2014-10-11 12:31:04.014";"NST_correctLoc";"16";"0";"FINISHED";"LEFT";"success";"417";"0";"2014-10-11 12:31:02.764";"2";;;;;;;;;;;;;;;;;;;;;;;;;;;;;;;;;;;;;;;;;;;;;;;;;;;;;;;;;
"patronum123";"1986";;"Windows 7";"Rachel's Experiment (D.T.)";"1.0";"2";"1";"1";"2";"1";"1";"2014-10-11 12:27:01.492";"2014-10-11 12:43:07.176";"1";"0";"0";"25";"24";"module.training_block1.exec-8006.GoNoGo1";;;;;;;;;;;;;;;;;;;;;;;"1250";"2014-10-11 12:31:06.567";"NST_correctLoc";"12";"0";"FINISHED";"LEFT";"success";"360";"0";"2014-10-11 12:31:05.317";"2";;;;;;;;;;;;;;;;;;;;;;;;;;;;;;;;;;;;;;;;;;;;;;;;;;;;;;;;;
"patronum123";"1986";;"Windows 7";"Rachel's Experiment (D.T.)";"1.0";"2";"1";"1";"2";"1";"1";"2014-10-11 12:27:01.492";"2014-10-11 12:43:07.176";"1";"0";"0";"26";"25";"module.training_block1.exec-8006.GoNoGo1";;;;;;;;;;;;;;;;;;;;;;;"1250";"2014-10-11 12:31:09.133";"NST_correctLoc";"29";"0";"FINISHED";"LEFT";"success";"397";"0";"2014-10-11 12:31:07.883";"3";;;;;;;;;;;;;;;;;;;;;;;;;;;;;;;;;;;;;;;;;;;;;;;;;;;;;;;;;
"patronum123";"1986";;"Windows 7";"Rachel's Experiment (D.T.)";"1.0";"2";"1";"1";"2";"1";"1";"2014-10-11 12:27:01.492";"2014-10-11 12:43:07.176";"1";"0";"0";"27";"26";"module.training_block1.exec-8006.GoNoGo1";;;;;;;;;;;;;;;;;;;;;;;"1249";"2014-10-11 12:31:11.691";"NST_correctLoc";"1";"0";"FINISHED";"LEFT";"success";"322";"0";"2014-10-11 12:31:10.441";"1";;;;;;;;;;;;;;;;;;;;;;;;;;;;;;;;;;;;;;;;;;;;;;;;;;;;;;;;;
"patronum123";"1986";;"Windows 7";"Rachel's Experiment (D.T.)";"1.0";"2";"1";"1";"2";"1";"1";"2014-10-11 12:27:01.492";"2014-10-11 12:43:07.176";"1";"0";"0";"28";"27";"module.training_block1.exec-8006.GoNoGo1";;;;;;;;;;;;;;;;;;;;;;;"1249";"2014-10-11 12:31:14.237";"NST_correctLoc";"13";"1";"FINISHED";"RIGHT";"success";"330";"0";"2014-10-11 12:31:12.987";"2";;;;;;;;;;;;;;;;;;;;;;;;;;;;;;;;;;;;;;;;;;;;;;;;;;;;;;;;;
"patronum123";"1986";;"Windows 7";"Rachel's Experiment (D.T.)";"1.0";"2";"1";"1";"2";"1";"1";"2014-10-11 12:27:01.492";"2014-10-11 12:43:07.176";"1";"0";"0";"29";"28";"module.training_block1.exec-8006.GoNoGo1";;;;;;;;;;;;;;;;;;;;;;;"1249";"2014-10-11 12:31:16.912";"NST_correctLoc";"11";"1";"FINISHED";"RIGHT";"success";"416";"0";"2014-10-11 12:31:15.662";"2";;;;;;;;;;;;;;;;;;;;;;;;;;;;;;;;;;;;;;;;;;;;;;;;;;;;;;;;;
"patronum123";"1986";;"Windows 7";"Rachel's Experiment (D.T.)";"1.0";"2";"1";"1";"2";"1";"1";"2014-10-11 12:27:01.492";"2014-10-11 12:43:07.176";"1";"0";"0";"30";"29";"module.training_block1.exec-8006.GoNoGo1";;;;;;;;;;;;;;;;;;;;;;;"1250";"2014-10-11 12:31:19.469";"NST_correctLoc";"3";"0";"FINISHED";"LEFT";"success";"335";"0";"2014-10-11 12:31:18.219";"1";;;;;;;;;;;;;;;;;;;;;;;;;;;;;;;;;;;;;;;;;;;;;;;;;;;;;;;;;
"patronum123";"1986";;"Windows 7";"Rachel's Experiment (D.T.)";"1.0";"2";"1";"1";"2";"1";"1";"2014-10-11 12:27:01.492";"2014-10-11 12:43:07.176";"1";"0";"0";"31";"30";"module.training_block1.exec-8006.GoNoGo1";;;;;;;;;;;;;;;;;;;;;;;"1250";"2014-10-11 12:31:22.032";"NST_correctLoc";"26";"0";"FINISHED";"LEFT";"success";"385";"0";"2014-10-11 12:31:20.782";"3";;;;;;;;;;;;;;;;;;;;;;;;;;;;;;;;;;;;;;;;;;;;;;;;;;;;;;;;;
"patronum123";"1986";;"Windows 7";"Rachel's Experiment (D.T.)";"1.0";"2";"1";"1";"2";"1";"1";"2014-10-11 12:27:01.492";"2014-10-11 12:43:07.176";"1";"0";"0";"32";"31";"module.training_block1.exec-8006.GoNoGo1";;;;;;;;;;;;;;;;;;;;;;;"1249";"2014-10-11 12:31:24.594";"NST_correctLoc";"15";"0";"FINISHED";"LEFT";"success";"337";"0";"2014-10-11 12:31:23.344";"2";;;;;;;;;;;;;;;;;;;;;;;;;;;;;;;;;;;;;;;;;;;;;;;;;;;;;;;;;
"patronum123";"1986";;"Windows 7";"Rachel's Experiment (D.T.)";"1.0";"2";"1";"1";"2";"1";"1";"2014-10-11 12:27:01.492";"2014-10-11 12:43:07.176";"1";"0";"0";"33";"32";"module.training_block1.exec-8006.GoNoGo1";;;;;;;;;;;;;;;;;;;;;;;"1249";"2014-10-11 12:31:27.147";"NST_correctLoc";"17";"1";"FINISHED";"RIGHT";"success";"358";"0";"2014-10-11 12:31:25.897";"2";;;;;;;;;;;;;;;;;;;;;;;;;;;;;;;;;;;;;;;;;;;;;;;;;;;;;;;;;
"patronum123";"1986";;"Windows 7";"Rachel's Experiment (D.T.)";"1.0";"2";"1";"1";"2";"1";"1";"2014-10-11 12:27:01.492";"2014-10-11 12:43:07.176";"1";"0";"0";"34";"33";"module.training_block1.exec-8006.GoNoGo1";;;;;;;;;;;;;;;;;;;;;;;"1249";"2014-10-11 12:31:29.694";"NST_correctLoc";"35";"0";"FINISHED";"LEFT";"success";"354";"0";"2014-10-11 12:31:28.444";"3";;;;;;;;;;;;;;;;;;;;;;;;;;;;;;;;;;;;;;;;;;;;;;;;;;;;;;;;;
"patronum123";"1986";;"Windows 7";"Rachel's Experiment (D.T.)";"1.0";"2";"1";"1";"2";"1";"1";"2014-10-11 12:27:01.492";"2014-10-11 12:43:07.176";"1";"0";"0";"35";"34";"module.training_block1.exec-8006.GoNoGo1";;;;;;;;;;;;;;;;;;;;;;;"1249";"2014-10-11 12:31:32.256";"NST_correctLoc";"19";"0";"FINISHED";"LEFT";"success";"346";"0";"2014-10-11 12:31:31.006";"3";;;;;;;;;;;;;;;;;;;;;;;;;;;;;;;;;;;;;;;;;;;;;;;;;;;;;;;;;
"patronum123";"1986";;"Windows 7";"Rachel's Experiment (D.T.)";"1.0";"2";"1";"1";"2";"1";"1";"2014-10-11 12:27:01.492";"2014-10-11 12:43:07.176";"1";"0";"0";"36";"35";"module.training_block1.exec-8006.GoNoGo1";;;;;;;;;;;;;;;;;;;;;;;"1249";"2014-10-11 12:31:34.818";"NST_correctLoc";"5";"0";"FINISHED";"LEFT";"success";"309";"0";"2014-10-11 12:31:33.568";"1";;;;;;;;;;;;;;;;;;;;;;;;;;;;;;;;;;;;;;;;;;;;;;;;;;;;;;;;;
"patronum123";"1986";;"Windows 7";"Rachel's Experiment (D.T.)";"1.0";"2";"1";"1";"2";"1";"1";"2014-10-11 12:27:01.492";"2014-10-11 12:43:07.176";"1";"0";"0";"37";"36";"module.training_block1.exec-8006.GoNoGo1";;;;;;;;;;;;;;;;;;;;;;;"1250";"2014-10-11 12:31:37.372";"NST_correctLoc";"24";"1";"FINISHED";"RIGHT";"success";"318";"0";"2014-10-11 12:31:36.122";"3";;;;;;;;;;;;;;;;;;;;;;;;;;;;;;;;;;;;;;;;;;;;;;;;;;;;;;;;;
"patronum123";"1986";;"Windows 7";"Rachel's Experiment (D.T.)";"1.0";"2";"1";"1";"2";"1";"1";"2014-10-11 12:27:01.492";"2014-10-11 12:43:07.176";"1";"0";"0";"38";"37";"module.training_block1.exec-8006.GoNoGo1";;;;;;;;;;;;;;;;;;;;;;;"1249";"2014-10-11 12:31:39.924";"NST_correctLoc";"27";"1";"FINISHED";"RIGHT";"success";"311";"0";"2014-10-11 12:31:38.673";"3";;;;;;;;;;;;;;;;;;;;;;;;;;;;;;;;;;;;;;;;;;;;;;;;;;;;;;;;;
"patronum123";"1986";;"Windows 7";"Rachel's Experiment (D.T.)";"1.0";"2";"1";"1";"2";"1";"1";"2014-10-11 12:27:01.492";"2014-10-11 12:43:07.176";"1";"0";"0";"39";"38";"module.training_block1.exec-8006.GoNoGo1";;;;;;;;;;;;;;;;;;;;;;;"1250";"2014-10-11 12:31:42.475";"NST_correctLoc";"4";"0";"FINISHED";"LEFT";"success";"344";"0";"2014-10-11 12:31:41.225";"1";;;;;;;;;;;;;;;;;;;;;;;;;;;;;;;;;;;;;;;;;;;;;;;;;;;;;;;;;
"patronum123";"1986";;"Windows 7";"Rachel's Experiment (D.T.)";"1.0";"2";"1";"1";"2";"1";"1";"2014-10-11 12:27:01.492";"2014-10-11 12:43:07.176";"1";"0";"0";"40";"39";"module.training_block1.exec-8006.GoNoGo1";;;;;;;;;;;;;;;;;;;;;;;"1249";"2014-10-11 12:31:45.026";"NST_correctLoc";"2";"1";"FINISHED";"RIGHT";"success";"357";"0";"2014-10-11 12:31:43.776";"1";;;;;;;;;;;;;;;;;;;;;;;;;;;;;;;;;;;;;;;;;;;;;;;;;;;;;;;;;
"patronum123";"1986";;"Windows 7";"Rachel's Experiment (D.T.)";"1.0";"2";"1";"1";"2";"1";"1";"2014-10-11 12:27:01.492";"2014-10-11 12:43:07.176";"1";"0";"0";"41";"40";"module.training_block1.exec-8006.GoNoGo1";;;;;;;;;;;;;;;;;;;;;;;"1250";"2014-10-11 12:31:47.585";"NST_correctLoc";"34";"1";"FINISHED";"RIGHT";"success";"352";"0";"2014-10-11 12:31:46.335";"3";;;;;;;;;;;;;;;;;;;;;;;;;;;;;;;;;;;;;;;;;;;;;;;;;;;;;;;;;
"patronum123";"1986";;"Windows 7";"Rachel's Experiment (D.T.)";"1.0";"2";"1";"1";"2";"1";"1";"2014-10-11 12:27:01.492";"2014-10-11 12:43:07.176";"1";"0";"0";"42";"41";"module.training_block1.exec-8006.GoNoGo1";;;;;;;;;;;;;;;;;;;;;;;"1250";"2014-10-11 12:31:50.153";"NST_correctLoc";"28";"0";"FINISHED";"LEFT";"success";"358";"0";"2014-10-11 12:31:48.903";"3";;;;;;;;;;;;;;;;;;;;;;;;;;;;;;;;;;;;;;;;;;;;;;;;;;;;;;;;;
"patronum123";"1986";;"Windows 7";"Rachel's Experiment (D.T.)";"1.0";"2";"1";"1";"2";"1";"1";"2014-10-11 12:27:01.492";"2014-10-11 12:43:07.176";"1";"0";"0";"43";"42";"module.training_block1.exec-8006.GoNoGo1";;;;;;;;;;;;;;;;;;;;;;;"1249";"2014-10-11 12:31:52.703";"NST_correctLoc";"22";"0";"FINISHED";"LEFT";"success";"331";"0";"2014-10-11 12:31:51.453";"3";;;;;;;;;;;;;;;;;;;;;;;;;;;;;;;;;;;;;;;;;;;;;;;;;;;;;;;;;
"patronum123";"1986";;"Windows 7";"Rachel's Experiment (D.T.)";"1.0";"2";"1";"1";"2";"1";"1";"2014-10-11 12:27:01.492";"2014-10-11 12:43:07.176";"1";"0";"0";"44";"43";"module.training_block1.exec-8006.GoNoGo1";;;;;;;;;;;;;;;;;;;;;;;"1249";"2014-10-11 12:31:55.253";"NST_correctLoc";"25";"1";"FINISHED";"RIGHT";"success";"336";"0";"2014-10-11 12:31:54.003";"3";;;;;;;;;;;;;;;;;;;;;;;;;;;;;;;;;;;;;;;;;;;;;;;;;;;;;;;;;
"patronum123";"1986";;"Windows 7";"Rachel's Experiment (D.T.)";"1.0";"2";"1";"1";"2";"1";"1";"2014-10-11 12:27:01.492";"2014-10-11 12:43:07.176";"1";"0";"0";"45";"44";"module.training_block1.exec-8006.GoNoGo1";;;;;;;;;;;;;;;;;;;;;;;"1250";"2014-10-11 12:31:57.816";"NST_correctLoc";"6";"1";"FINISHED";"RIGHT";"success";"348";"0";"2014-10-11 12:31:56.565";"1";;;;;;;;;;;;;;;;;;;;;;;;;;;;;;;;;;;;;;;;;;;;;;;;;;;;;;;;;
"patronum123";"1986";;"Windows 7";"Rachel's Experiment (D.T.)";"1.0";"2";"1";"1";"2";"1";"1";"2014-10-11 12:27:01.492";"2014-10-11 12:43:07.176";"1";"0";"0";"46";"45";"module.training_block1.exec-8006.GoNoGo1";;;;;;;;;;;;;;;;;;;;;;;"1249";"2014-10-11 12:32:00.376";"NST_correctLoc";"30";"0";"FINISHED";"LEFT";"success";"331";"0";"2014-10-11 12:31:59.126";"3";;;;;;;;;;;;;;;;;;;;;;;;;;;;;;;;;;;;;;;;;;;;;;;;;;;;;;;;;
"patronum123";"1986";;"Windows 7";"Rachel's Experiment (D.T.)";"1.0";"2";"1";"1";"2";"1";"1";"2014-10-11 12:27:01.492";"2014-10-11 12:43:07.176";"1";"0";"0";"47";"46";"module.training_block1.exec-8006.GoNoGo1";;;;;;;;;;;;;;;;;;;;;;;"1250";"2014-10-11 12:32:02.932";"NST_correctLoc";"10";"0";"FINISHED";"LEFT";"success";"329";"0";"2014-10-11 12:32:01.682";"2";;;;;;;;;;;;;;;;;;;;;;;;;;;;;;;;;;;;;;;;;;;;;;;;;;;;;;;;;
"patronum123";"1986";;"Windows 7";"Rachel's Experiment (D.T.)";"1.0";"2";"1";"1";"2";"1";"1";"2014-10-11 12:27:01.492";"2014-10-11 12:43:07.176";"1";"0";"0";"48";"47";"module.training_block1.exec-8006.GoNoGo1";;;;;;;;;;;;;;;;;;;;;;;"1249";"2014-10-11 12:32:05.484";"NST_correctLoc";"0";"1";"FINISHED";"RIGHT";"success";"331";"0";"2014-10-11 12:32:04.234";"1";;;;;;;;;;;;;;;;;;;;;;;;;;;;;;;;;;;;;;;;;;;;;;;;;;;;;;;;;
"patronum123";"1986";;"Windows 7";"Rachel's Experiment (D.T.)";"1.0";"2";"1";"1";"2";"1";"1";"2014-10-11 12:27:01.492";"2014-10-11 12:43:07.176";"1";"0";"0";"49";"48";"module.training_block1.exec-8006.GoNoGo1";;;;;;;;;;;;;;;;;;;;;;;"1250";"2014-10-11 12:32:08.034";"NST_correctLoc";"7";"1";"FINISHED";"RIGHT";"success";"345";"0";"2014-10-11 12:32:06.784";"1";;;;;;;;;;;;;;;;;;;;;;;;;;;;;;;;;;;;;;;;;;;;;;;;;;;;;;;;;
"patronum123";"1986";;"Windows 7";"Rachel's Experiment (D.T.)";"1.0";"2";"1";"1";"2";"1";"1";"2014-10-11 12:27:01.492";"2014-10-11 12:43:07.176";"1";"0";"0";"50";"49";"module.training_block1.exec-8006.GoNoGo1";;;;;;;;;;;;;;;;;;;;;;;"1250";"2014-10-11 12:32:10.583";"NST_correctLoc";"31";"0";"FINISHED";"LEFT";"success";"349";"0";"2014-10-11 12:32:09.333";"3";;;;;;;;;;;;;;;;;;;;;;;;;;;;;;;;;;;;;;;;;;;;;;;;;;;;;;;;;
"patronum123";"1986";;"Windows 7";"Rachel's Experiment (D.T.)";"1.0";"2";"1";"1";"2";"1";"1";"2014-10-11 12:27:01.492";"2014-10-11 12:43:07.176";"1";"0";"0";"51";"50";"module.training_block1.exec-8006.GoNoGo1";;;;;;;;;;;;;;;;;;;;;;;"1249";"2014-10-11 12:32:13.132";"NST_correctLoc";"14";"1";"FINISHED";"RIGHT";"success";"304";"0";"2014-10-11 12:32:11.882";"2";;;;;;;;;;;;;;;;;;;;;;;;;;;;;;;;;;;;;;;;;;;;;;;;;;;;;;;;;
"patronum123";"1986";;"Windows 7";"Rachel's Experiment (D.T.)";"1.0";"2";"1";"1";"2";"1";"1";"2014-10-11 12:27:01.492";"2014-10-11 12:43:07.176";"1";"0";"0";"52";"51";"module.training_block2.exec-8566.GoNoGo2";;;;;;;;;;;;;;;;;;;;;;;;;;;;;;;;;;;"1249";"2014-10-11 12:32:25.196";"NST_correctLoc";"0";"1";"FINISHED";"RIGHT";"success";"364";"0";"2014-10-11 12:32:23.946";"1";;;;;;;;;;;;;;;;;;;;;;;;;;;;;;;;;;;;;;;;;;;;;
"patronum123";"1986";;"Windows 7";"Rachel's Experiment (D.T.)";"1.0";"2";"1";"1";"2";"1";"1";"2014-10-11 12:27:01.492";"2014-10-11 12:43:07.176";"1";"0";"0";"53";"52";"module.training_block2.exec-8566.GoNoGo2";;;;;;;;;;;;;;;;;;;;;;;;;;;;;;;;;;;"1249";"2014-10-11 12:32:27.748";"NST_correctLoc";"4";"1";"FINISHED";"RIGHT";"success";"316";"0";"2014-10-11 12:32:26.498";"1";;;;;;;;;;;;;;;;;;;;;;;;;;;;;;;;;;;;;;;;;;;;;
"patronum123";"1986";;"Windows 7";"Rachel's Experiment (D.T.)";"1.0";"2";"1";"1";"2";"1";"1";"2014-10-11 12:27:01.492";"2014-10-11 12:43:07.176";"1";"0";"0";"54";"53";"module.training_block2.exec-8566.GoNoGo2";;;;;;;;;;;;;;;;;;;;;;;;;;;;;;;;;;;"1249";"2014-10-11 12:32:30.310";"NST_correctLoc";"8";"0";"FINISHED";"LEFT";"success";"387";"0";"2014-10-11 12:32:29.060";"1";;;;;;;;;;;;;;;;;;;;;;;;;;;;;;;;;;;;;;;;;;;;;
"patronum123";"1986";;"Windows 7";"Rachel's Experiment (D.T.)";"1.0";"2";"1";"1";"2";"1";"1";"2014-10-11 12:27:01.492";"2014-10-11 12:43:07.176";"1";"0";"0";"55";"54";"module.training_block2.exec-8566.GoNoGo2";;;;;;;;;;;;;;;;;;;;;;;;;;;;;;;;;;;"1250";"2014-10-11 12:32:32.865";"NST_correctLoc";"28";"1";"FINISHED";"RIGHT";"success";"338";"0";"2014-10-11 12:32:31.614";"3";;;;;;;;;;;;;;;;;;;;;;;;;;;;;;;;;;;;;;;;;;;;;
"patronum123";"1986";;"Windows 7";"Rachel's Experiment (D.T.)";"1.0";"2";"1";"1";"2";"1";"1";"2014-10-11 12:27:01.492";"2014-10-11 12:43:07.176";"1";"0";"0";"56";"55";"module.training_block2.exec-8566.GoNoGo2";;;;;;;;;;;;;;;;;;;;;;;;;;;;;;;;;;;"1249";"2014-10-11 12:32:35.411";"NST_correctLoc";"10";"0";"FINISHED";"LEFT";"success";"335";"0";"2014-10-11 12:32:34.161";"2";;;;;;;;;;;;;;;;;;;;;;;;;;;;;;;;;;;;;;;;;;;;;
"patronum123";"1986";;"Windows 7";"Rachel's Experiment (D.T.)";"1.0";"2";"1";"1";"2";"1";"1";"2014-10-11 12:27:01.492";"2014-10-11 12:43:07.176";"1";"0";"0";"57";"56";"module.training_block2.exec-8566.GoNoGo2";;;;;;;;;;;;;;;;;;;;;;;;;;;;;;;;;;;"1249";"2014-10-11 12:32:37.960";"NST_correctLoc";"19";"0";"FINISHED";"LEFT";"success";"389";"0";"2014-10-11 12:32:36.710";"3";;;;;;;;;;;;;;;;;;;;;;;;;;;;;;;;;;;;;;;;;;;;;
"patronum123";"1986";;"Windows 7";"Rachel's Experiment (D.T.)";"1.0";"2";"1";"1";"2";"1";"1";"2014-10-11 12:27:01.492";"2014-10-11 12:43:07.176";"1";"0";"0";"58";"57";"module.training_block2.exec-8566.GoNoGo2";;;;;;;;;;;;;;;;;;;;;;;;;;;;;;;;;;;"1249";"2014-10-11 12:32:40.518";"NST_correctLoc";"20";"0";"FINISHED";"LEFT";"success";"365";"0";"2014-10-11 12:32:39.268";"3";;;;;;;;;;;;;;;;;;;;;;;;;;;;;;;;;;;;;;;;;;;;;
"patronum123";"1986";;"Windows 7";"Rachel's Experiment (D.T.)";"1.0";"2";"1";"1";"2";"1";"1";"2014-10-11 12:27:01.492";"2014-10-11 12:43:07.176";"1";"0";"0";"59";"58";"module.training_block2.exec-8566.GoNoGo2";;;;;;;;;;;;;;;;;;;;;;;;;;;;;;;;;;;"1249";"2014-10-11 12:32:43.062";"NST_correctLoc";"26";"1";"FINISHED";"RIGHT";"success";"335";"0";"2014-10-11 12:32:41.812";"3";;;;;;;;;;;;;;;;;;;;;;;;;;;;;;;;;;;;;;;;;;;;;
"patronum123";"1986";;"Windows 7";"Rachel's Experiment (D.T.)";"1.0";"2";"1";"1";"2";"1";"1";"2014-10-11 12:27:01.492";"2014-10-11 12:43:07.176";"1";"0";"0";"60";"59";"module.training_block2.exec-8566.GoNoGo2";;;;;;;;;;;;;;;;;;;;;;;;;;;;;;;;;;;"1249";"2014-10-11 12:32:45.609";"NST_correctLoc";"15";"0";"FINISHED";"LEFT";"success";"332";"0";"2014-10-11 12:32:44.359";"2";;;;;;;;;;;;;;;;;;;;;;;;;;;;;;;;;;;;;;;;;;;;;
"patronum123";"1986";;"Windows 7";"Rachel's Experiment (D.T.)";"1.0";"2";"1";"1";"2";"1";"1";"2014-10-11 12:27:01.492";"2014-10-11 12:43:07.176";"1";"0";"0";"61";"60";"module.training_block2.exec-8566.GoNoGo2";;;;;;;;;;;;;;;;;;;;;;;;;;;;;;;;;;;"1250";"2014-10-11 12:32:48.168";"NST_correctLoc";"33";"0";"FINISHED";"LEFT";"success";"396";"0";"2014-10-11 12:32:46.918";"3";;;;;;;;;;;;;;;;;;;;;;;;;;;;;;;;;;;;;;;;;;;;;
"patronum123";"1986";;"Windows 7";"Rachel's Experiment (D.T.)";"1.0";"2";"1";"1";"2";"1";"1";"2014-10-11 12:27:01.492";"2014-10-11 12:43:07.176";"1";"0";"0";"62";"61";"module.training_block2.exec-8566.GoNoGo2";;;;;;;;;;;;;;;;;;;;;;;;;;;;;;;;;;;"1249";"2014-10-11 12:32:50.714";"NST_correctLoc";"31";"1";"FINISHED";"RIGHT";"success";"350";"0";"2014-10-11 12:32:49.463";"3";;;;;;;;;;;;;;;;;;;;;;;;;;;;;;;;;;;;;;;;;;;;;
"patronum123";"1986";;"Windows 7";"Rachel's Experiment (D.T.)";"1.0";"2";"1";"1";"2";"1";"1";"2014-10-11 12:27:01.492";"2014-10-11 12:43:07.176";"1";"0";"0";"63";"62";"module.training_block2.exec-8566.GoNoGo2";;;;;;;;;;;;;;;;;;;;;;;;;;;;;;;;;;;"1249";"2014-10-11 12:32:53.261";"NST_correctLoc";"17";"1";"FINISHED";"RIGHT";"success";"361";"0";"2014-10-11 12:32:52.011";"2";;;;;;;;;;;;;;;;;;;;;;;;;;;;;;;;;;;;;;;;;;;;;
"patronum123";"1986";;"Windows 7";"Rachel's Experiment (D.T.)";"1.0";"2";"1";"1";"2";"1";"1";"2014-10-11 12:27:01.492";"2014-10-11 12:43:07.176";"1";"0";"0";"64";"63";"module.training_block2.exec-8566.GoNoGo2";;;;;;;;;;;;;;;;;;;;;;;;;;;;;;;;;;;"1249";"2014-10-11 12:32:55.811";"NST_correctLoc";"11";"0";"FINISHED";"LEFT";"success";"365";"0";"2014-10-11 12:32:54.561";"2";;;;;;;;;;;;;;;;;;;;;;;;;;;;;;;;;;;;;;;;;;;;;
"patronum123";"1986";;"Windows 7";"Rachel's Experiment (D.T.)";"1.0";"2";"1";"1";"2";"1";"1";"2014-10-11 12:27:01.492";"2014-10-11 12:43:07.176";"1";"0";"0";"65";"64";"module.training_block2.exec-8566.GoNoGo2";;;;;;;;;;;;;;;;;;;;;;;;;;;;;;;;;;;"1250";"2014-10-11 12:32:58.361";"NST_correctLoc";"22";"0";"FINISHED";"LEFT";"success";"379";"0";"2014-10-11 12:32:57.111";"3";;;;;;;;;;;;;;;;;;;;;;;;;;;;;;;;;;;;;;;;;;;;;
"patronum123";"1986";;"Windows 7";"Rachel's Experiment (D.T.)";"1.0";"2";"1";"1";"2";"1";"1";"2014-10-11 12:27:01.492";"2014-10-11 12:43:07.176";"1";"0";"0";"66";"65";"module.training_block2.exec-8566.GoNoGo2";;;;;;;;;;;;;;;;;;;;;;;;;;;;;;;;;;;"1250";"2014-10-11 12:33:00.920";"NST_correctLoc";"21";"0";"FINISHED";"LEFT";"success";"344";"0";"2014-10-11 12:32:59.670";"3";;;;;;;;;;;;;;;;;;;;;;;;;;;;;;;;;;;;;;;;;;;;;
"patronum123";"1986";;"Windows 7";"Rachel's Experiment (D.T.)";"1.0";"2";"1";"1";"2";"1";"1";"2014-10-11 12:27:01.492";"2014-10-11 12:43:07.176";"1";"0";"0";"67";"66";"module.training_block2.exec-8566.GoNoGo2";;;;;;;;;;;;;;;;;;;;;;;;;;;;;;;;;;;"1249";"2014-10-11 12:33:03.462";"NST_correctLoc";"7";"1";"FINISHED";"RIGHT";"success";"345";"0";"2014-10-11 12:33:02.212";"1";;;;;;;;;;;;;;;;;;;;;;;;;;;;;;;;;;;;;;;;;;;;;
"patronum123";"1986";;"Windows 7";"Rachel's Experiment (D.T.)";"1.0";"2";"1";"1";"2";"1";"1";"2014-10-11 12:27:01.492";"2014-10-11 12:43:07.176";"1";"0";"0";"68";"67";"module.training_block2.exec-8566.GoNoGo2";;;;;;;;;;;;;;;;;;;;;;;;;;;;;;;;;;;"1249";"2014-10-11 12:33:06.018";"NST_correctLoc";"12";"0";"FINISHED";"LEFT";"success";"352";"0";"2014-10-11 12:33:04.768";"2";;;;;;;;;;;;;;;;;;;;;;;;;;;;;;;;;;;;;;;;;;;;;
"patronum123";"1986";;"Windows 7";"Rachel's Experiment (D.T.)";"1.0";"2";"1";"1";"2";"1";"1";"2014-10-11 12:27:01.492";"2014-10-11 12:43:07.176";"1";"0";"0";"69";"68";"module.training_block2.exec-8566.GoNoGo2";;;;;;;;;;;;;;;;;;;;;;;;;;;;;;;;;;;"1249";"2014-10-11 12:33:08.562";"NST_correctLoc";"3";"1";"FINISHED";"RIGHT";"success";"388";"0";"2014-10-11 12:33:07.312";"1";;;;;;;;;;;;;;;;;;;;;;;;;;;;;;;;;;;;;;;;;;;;;
"patronum123";"1986";;"Windows 7";"Rachel's Experiment (D.T.)";"1.0";"2";"1";"1";"2";"1";"1";"2014-10-11 12:27:01.492";"2014-10-11 12:43:07.176";"1";"0";"0";"70";"69";"module.training_block2.exec-8566.GoNoGo2";;;;;;;;;;;;;;;;;;;;;;;;;;;;;;;;;;;"1249";"2014-10-11 12:33:11.117";"NST_correctLoc";"16";"1";"FINISHED";"RIGHT";"success";"382";"0";"2014-10-11 12:33:09.867";"2";;;;;;;;;;;;;;;;;;;;;;;;;;;;;;;;;;;;;;;;;;;;;
"patronum123";"1986";;"Windows 7";"Rachel's Experiment (D.T.)";"1.0";"2";"1";"1";"2";"1";"1";"2014-10-11 12:27:01.492";"2014-10-11 12:43:07.176";"1";"0";"0";"71";"70";"module.training_block2.exec-8566.GoNoGo2";;;;;;;;;;;;;;;;;;;;;;;;;;;;;;;;;;;"1250";"2014-10-11 12:33:13.672";"NST_correctLoc";"18";"0";"FINISHED";"LEFT";"success";"361";"0";"2014-10-11 12:33:12.422";"3";;;;;;;;;;;;;;;;;;;;;;;;;;;;;;;;;;;;;;;;;;;;;
"patronum123";"1986";;"Windows 7";"Rachel's Experiment (D.T.)";"1.0";"2";"1";"1";"2";"1";"1";"2014-10-11 12:27:01.492";"2014-10-11 12:43:07.176";"1";"0";"0";"72";"71";"module.training_block2.exec-8566.GoNoGo2";;;;;;;;;;;;;;;;;;;;;;;;;;;;;;;;;;;"1249";"2014-10-11 12:33:16.214";"NST_correctLoc";"25";"0";"FINISHED";"LEFT";"success";"372";"0";"2014-10-11 12:33:14.964";"3";;;;;;;;;;;;;;;;;;;;;;;;;;;;;;;;;;;;;;;;;;;;;
"patronum123";"1986";;"Windows 7";"Rachel's Experiment (D.T.)";"1.0";"2";"1";"1";"2";"1";"1";"2014-10-11 12:27:01.492";"2014-10-11 12:43:07.176";"1";"0";"0";"73";"72";"module.training_block2.exec-8566.GoNoGo2";;;;;;;;;;;;;;;;;;;;;;;;;;;;;;;;;;;"1249";"2014-10-11 12:33:18.769";"NST_correctLoc";"23";"0";"FINISHED";"LEFT";"success";"362";"0";"2014-10-11 12:33:17.519";"3";;;;;;;;;;;;;;;;;;;;;;;;;;;;;;;;;;;;;;;;;;;;;
"patronum123";"1986";;"Windows 7";"Rachel's Experiment (D.T.)";"1.0";"2";"1";"1";"2";"1";"1";"2014-10-11 12:27:01.492";"2014-10-11 12:43:07.176";"1";"0";"0";"74";"73";"module.training_block2.exec-8566.GoNoGo2";;;;;;;;;;;;;;;;;;;;;;;;;;;;;;;;;;;"1249";"2014-10-11 12:33:21.310";"NST_correctLoc";"14";"0";"FINISHED";"LEFT";"success";"345";"0";"2014-10-11 12:33:20.060";"2";;;;;;;;;;;;;;;;;;;;;;;;;;;;;;;;;;;;;;;;;;;;;
"patronum123";"1986";;"Windows 7";"Rachel's Experiment (D.T.)";"1.0";"2";"1";"1";"2";"1";"1";"2014-10-11 12:27:01.492";"2014-10-11 12:43:07.176";"1";"0";"0";"75";"74";"module.training_block2.exec-8566.GoNoGo2";;;;;;;;;;;;;;;;;;;;;;;;;;;;;;;;;;;"1249";"2014-10-11 12:33:23.855";"NST_correctLoc";"2";"0";"FINISHED";"LEFT";"success";"373";"0";"2014-10-11 12:33:22.605";"1";;;;;;;;;;;;;;;;;;;;;;;;;;;;;;;;;;;;;;;;;;;;;
"patronum123";"1986";;"Windows 7";"Rachel's Experiment (D.T.)";"1.0";"2";"1";"1";"2";"1";"1";"2014-10-11 12:27:01.492";"2014-10-11 12:43:07.176";"1";"0";"0";"76";"75";"module.training_block2.exec-8566.GoNoGo2";;;;;;;;;;;;;;;;;;;;;;;;;;;;;;;;;;;"1250";"2014-10-11 12:33:26.403";"NST_correctLoc";"6";"1";"FINISHED";"RIGHT";"success";"381";"0";"2014-10-11 12:33:25.153";"1";;;;;;;;;;;;;;;;;;;;;;;;;;;;;;;;;;;;;;;;;;;;;
"patronum123";"1986";;"Windows 7";"Rachel's Experiment (D.T.)";"1.0";"2";"1";"1";"2";"1";"1";"2014-10-11 12:27:01.492";"2014-10-11 12:43:07.176";"1";"0";"0";"77";"76";"module.training_block2.exec-8566.GoNoGo2";;;;;;;;;;;;;;;;;;;;;;;;;;;;;;;;;;;"1249";"2014-10-11 12:33:28.950";"NST_correctLoc";"35";"0";"FINISHED";"LEFT";"success";"367";"0";"2014-10-11 12:33:27.700";"3";;;;;;;;;;;;;;;;;;;;;;;;;;;;;;;;;;;;;;;;;;;;;
"patronum123";"1986";;"Windows 7";"Rachel's Experiment (D.T.)";"1.0";"2";"1";"1";"2";"1";"1";"2014-10-11 12:27:01.492";"2014-10-11 12:43:07.176";"1";"0";"0";"78";"77";"module.training_block2.exec-8566.GoNoGo2";;;;;;;;;;;;;;;;;;;;;;;;;;;;;;;;;;;"1249";"2014-10-11 12:33:31.494";"NST_correctLoc";"30";"0";"FINISHED";"LEFT";"success";"318";"0";"2014-10-11 12:33:30.244";"3";;;;;;;;;;;;;;;;;;;;;;;;;;;;;;;;;;;;;;;;;;;;;
"patronum123";"1986";;"Windows 7";"Rachel's Experiment (D.T.)";"1.0";"2";"1";"1";"2";"1";"1";"2014-10-11 12:27:01.492";"2014-10-11 12:43:07.176";"1";"0";"0";"79";"78";"module.training_block2.exec-8566.GoNoGo2";;;;;;;;;;;;;;;;;;;;;;;;;;;;;;;;;;;"1250";"2014-10-11 12:33:34.043";"NST_correctLoc";"9";"1";"FINISHED";"RIGHT";"success";"313";"0";"2014-10-11 12:33:32.793";"2";;;;;;;;;;;;;;;;;;;;;;;;;;;;;;;;;;;;;;;;;;;;;
"patronum123";"1986";;"Windows 7";"Rachel's Experiment (D.T.)";"1.0";"2";"1";"1";"2";"1";"1";"2014-10-11 12:27:01.492";"2014-10-11 12:43:07.176";"1";"0";"0";"80";"79";"module.training_block2.exec-8566.GoNoGo2";;;;;;;;;;;;;;;;;;;;;;;;;;;;;;;;;;;"1249";"2014-10-11 12:33:36.591";"NST_correctLoc";"1";"0";"FINISHED";"LEFT";"success";"349";"0";"2014-10-11 12:33:35.341";"1";;;;;;;;;;;;;;;;;;;;;;;;;;;;;;;;;;;;;;;;;;;;;
"patronum123";"1986";;"Windows 7";"Rachel's Experiment (D.T.)";"1.0";"2";"1";"1";"2";"1";"1";"2014-10-11 12:27:01.492";"2014-10-11 12:43:07.176";"1";"0";"0";"81";"80";"module.training_block2.exec-8566.GoNoGo2";;;;;;;;;;;;;;;;;;;;;;;;;;;;;;;;;;;"1249";"2014-10-11 12:33:39.139";"NST_correctLoc";"32";"1";"FINISHED";"RIGHT";"success";"374";"0";"2014-10-11 12:33:37.889";"3";;;;;;;;;;;;;;;;;;;;;;;;;;;;;;;;;;;;;;;;;;;;;
"patronum123";"1986";;"Windows 7";"Rachel's Experiment (D.T.)";"1.0";"2";"1";"1";"2";"1";"1";"2014-10-11 12:27:01.492";"2014-10-11 12:43:07.176";"1";"0";"0";"82";"81";"module.training_block2.exec-8566.GoNoGo2";;;;;;;;;;;;;;;;;;;;;;;;;;;;;;;;;;;"1249";"2014-10-11 12:33:41.680";"NST_correctLoc";"24";"1";"FINISHED";"RIGHT";"success";"377";"0";"2014-10-11 12:33:40.430";"3";;;;;;;;;;;;;;;;;;;;;;;;;;;;;;;;;;;;;;;;;;;;;
"patronum123";"1986";;"Windows 7";"Rachel's Experiment (D.T.)";"1.0";"2";"1";"1";"2";"1";"1";"2014-10-11 12:27:01.492";"2014-10-11 12:43:07.176";"1";"0";"0";"83";"82";"module.training_block2.exec-8566.GoNoGo2";;;;;;;;;;;;;;;;;;;;;;;;;;;;;;;;;;;"1250";"2014-10-11 12:33:44.235";"NST_correctLoc";"13";"0";"FINISHED";"LEFT";"success";"347";"0";"2014-10-11 12:33:42.985";"2";;;;;;;;;;;;;;;;;;;;;;;;;;;;;;;;;;;;;;;;;;;;;
"patronum123";"1986";;"Windows 7";"Rachel's Experiment (D.T.)";"1.0";"2";"1";"1";"2";"1";"1";"2014-10-11 12:27:01.492";"2014-10-11 12:43:07.176";"1";"0";"0";"84";"83";"module.training_block2.exec-8566.GoNoGo2";;;;;;;;;;;;;;;;;;;;;;;;;;;;;;;;;;;"1250";"2014-10-11 12:33:46.786";"NST_correctLoc";"29";"0";"FINISHED";"LEFT";"success";"351";"0";"2014-10-11 12:33:45.536";"3";;;;;;;;;;;;;;;;;;;;;;;;;;;;;;;;;;;;;;;;;;;;;
"patronum123";"1986";;"Windows 7";"Rachel's Experiment (D.T.)";"1.0";"2";"1";"1";"2";"1";"1";"2014-10-11 12:27:01.492";"2014-10-11 12:43:07.176";"1";"0";"0";"85";"84";"module.training_block2.exec-8566.GoNoGo2";;;;;;;;;;;;;;;;;;;;;;;;;;;;;;;;;;;"1249";"2014-10-11 12:33:49.328";"NST_correctLoc";"27";"0";"FINISHED";"LEFT";"success";"353";"0";"2014-10-11 12:33:48.078";"3";;;;;;;;;;;;;;;;;;;;;;;;;;;;;;;;;;;;;;;;;;;;;
"patronum123";"1986";;"Windows 7";"Rachel's Experiment (D.T.)";"1.0";"2";"1";"1";"2";"1";"1";"2014-10-11 12:27:01.492";"2014-10-11 12:43:07.176";"1";"0";"0";"86";"85";"module.training_block2.exec-8566.GoNoGo2";;;;;;;;;;;;;;;;;;;;;;;;;;;;;;;;;;;"1250";"2014-10-11 12:33:51.879";"NST_correctLoc";"5";"0";"FINISHED";"LEFT";"success";"367";"0";"2014-10-11 12:33:50.628";"1";;;;;;;;;;;;;;;;;;;;;;;;;;;;;;;;;;;;;;;;;;;;;
"patronum123";"1986";;"Windows 7";"Rachel's Experiment (D.T.)";"1.0";"2";"1";"1";"2";"1";"1";"2014-10-11 12:27:01.492";"2014-10-11 12:43:07.176";"1";"0";"0";"87";"86";"module.training_block2.exec-8566.GoNoGo2";;;;;;;;;;;;;;;;;;;;;;;;;;;;;;;;;;;"1249";"2014-10-11 12:33:54.421";"NST_correctLoc";"34";"1";"FINISHED";"RIGHT";"success";"368";"0";"2014-10-11 12:33:53.171";"3";;;;;;;;;;;;;;;;;;;;;;;;;;;;;;;;;;;;;;;;;;;;;
"patronum123";"1986";;"Windows 7";"Rachel's Experiment (D.T.)";"1.0";"2";"1";"1";"2";"1";"1";"2014-10-11 12:27:01.492";"2014-10-11 12:43:07.176";"1";"0";"0";"88";"87";"module.training_block3.exec-8729.GoNoGo3";;;;;;;;;;;;;;;;;;;;;;;;;;;;;;;;;;;;;;;;;;;;;;;"1249";"2014-10-11 12:34:05.466";"NST_correctLoc";"6";"0";"FINISHED";"LEFT";"success";"546";"0";"2014-10-11 12:34:04.216";"1";;;;;;;;;;;;;;;;;;;;;;;;;;;;;;;;;
"patronum123";"1986";;"Windows 7";"Rachel's Experiment (D.T.)";"1.0";"2";"1";"1";"2";"1";"1";"2014-10-11 12:27:01.492";"2014-10-11 12:43:07.176";"1";"0";"0";"89";"88";"module.training_block3.exec-8729.GoNoGo3";;;;;;;;;;;;;;;;;;;;;;;;;;;;;;;;;;;;;;;;;;;;;;;"1249";"2014-10-11 12:34:08.008";"NST_correctLoc";"11";"1";"FINISHED";"RIGHT";"success";"349";"0";"2014-10-11 12:34:06.758";"2";;;;;;;;;;;;;;;;;;;;;;;;;;;;;;;;;
"patronum123";"1986";;"Windows 7";"Rachel's Experiment (D.T.)";"1.0";"2";"1";"1";"2";"1";"1";"2014-10-11 12:27:01.492";"2014-10-11 12:43:07.176";"1";"0";"0";"90";"89";"module.training_block3.exec-8729.GoNoGo3";;;;;;;;;;;;;;;;;;;;;;;;;;;;;;;;;;;;;;;;;;;;;;;"1249";"2014-10-11 12:34:10.550";"NST_correctLoc";"18";"1";"FINISHED";"RIGHT";"success";"461";"0";"2014-10-11 12:34:09.300";"3";;;;;;;;;;;;;;;;;;;;;;;;;;;;;;;;;
"patronum123";"1986";;"Windows 7";"Rachel's Experiment (D.T.)";"1.0";"2";"1";"1";"2";"1";"1";"2014-10-11 12:27:01.492";"2014-10-11 12:43:07.176";"1";"0";"0";"91";"90";"module.training_block3.exec-8729.GoNoGo3";;;;;;;;;;;;;;;;;;;;;;;;;;;;;;;;;;;;;;;;;;;;;;;"1249";"2014-10-11 12:34:13.090";"NST_correctLoc";"30";"1";"FINISHED";"RIGHT";"success";"475";"0";"2014-10-11 12:34:11.840";"3";;;;;;;;;;;;;;;;;;;;;;;;;;;;;;;;;
"patronum123";"1986";;"Windows 7";"Rachel's Experiment (D.T.)";"1.0";"2";"1";"1";"2";"1";"1";"2014-10-11 12:27:01.492";"2014-10-11 12:43:07.176";"1";"0";"0";"92";"91";"module.training_block3.exec-8729.GoNoGo3";;;;;;;;;;;;;;;;;;;;;;;;;;;;;;;;;;;;;;;;;;;;;;;"1249";"2014-10-11 12:34:15.632";"NST_correctLoc";"0";"0";"FINISHED";"LEFT";"success";"378";"0";"2014-10-11 12:34:14.382";"1";;;;;;;;;;;;;;;;;;;;;;;;;;;;;;;;;
"patronum123";"1986";;"Windows 7";"Rachel's Experiment (D.T.)";"1.0";"2";"1";"1";"2";"1";"1";"2014-10-11 12:27:01.492";"2014-10-11 12:43:07.176";"1";"0";"0";"93";"92";"module.training_block3.exec-8729.GoNoGo3";;;;;;;;;;;;;;;;;;;;;;;;;;;;;;;;;;;;;;;;;;;;;;;"1249";"2014-10-11 12:34:18.175";"NST_correctLoc";"7";"1";"FINISHED";"RIGHT";"success";"345";"0";"2014-10-11 12:34:16.924";"1";;;;;;;;;;;;;;;;;;;;;;;;;;;;;;;;;
"patronum123";"1986";;"Windows 7";"Rachel's Experiment (D.T.)";"1.0";"2";"1";"1";"2";"1";"1";"2014-10-11 12:27:01.492";"2014-10-11 12:43:07.176";"1";"0";"0";"94";"93";"module.training_block3.exec-8729.GoNoGo3";;;;;;;;;;;;;;;;;;;;;;;;;;;;;;;;;;;;;;;;;;;;;;;"1250";"2014-10-11 12:34:20.713";"NST_correctLoc";"26";"0";"FINISHED";"LEFT";"success";"327";"0";"2014-10-11 12:34:19.462";"3";;;;;;;;;;;;;;;;;;;;;;;;;;;;;;;;;
"patronum123";"1986";;"Windows 7";"Rachel's Experiment (D.T.)";"1.0";"2";"1";"1";"2";"1";"1";"2014-10-11 12:27:01.492";"2014-10-11 12:43:07.176";"1";"0";"0";"95";"94";"module.training_block3.exec-8729.GoNoGo3";;;;;;;;;;;;;;;;;;;;;;;;;;;;;;;;;;;;;;;;;;;;;;;"1250";"2014-10-11 12:34:23.256";"NST_correctLoc";"16";"0";"FINISHED";"LEFT";"success";"398";"0";"2014-10-11 12:34:22.005";"2";;;;;;;;;;;;;;;;;;;;;;;;;;;;;;;;;
"patronum123";"1986";;"Windows 7";"Rachel's Experiment (D.T.)";"1.0";"2";"1";"1";"2";"1";"1";"2014-10-11 12:27:01.492";"2014-10-11 12:43:07.176";"1";"0";"0";"96";"95";"module.training_block3.exec-8729.GoNoGo3";;;;;;;;;;;;;;;;;;;;;;;;;;;;;;;;;;;;;;;;;;;;;;;"1249";"2014-10-11 12:34:25.797";"NST_correctLoc";"10";"1";"FINISHED";"RIGHT";"success";"360";"0";"2014-10-11 12:34:24.547";"2";;;;;;;;;;;;;;;;;;;;;;;;;;;;;;;;;
"patronum123";"1986";;"Windows 7";"Rachel's Experiment (D.T.)";"1.0";"2";"1";"1";"2";"1";"1";"2014-10-11 12:27:01.492";"2014-10-11 12:43:07.176";"1";"0";"0";"97";"96";"module.training_block3.exec-8729.GoNoGo3";;;;;;;;;;;;;;;;;;;;;;;;;;;;;;;;;;;;;;;;;;;;;;;"1249";"2014-10-11 12:34:28.339";"NST_correctLoc";"2";"0";"FINISHED";"LEFT";"success";"333";"0";"2014-10-11 12:34:27.089";"1";;;;;;;;;;;;;;;;;;;;;;;;;;;;;;;;;
"patronum123";"1986";;"Windows 7";"Rachel's Experiment (D.T.)";"1.0";"2";"1";"1";"2";"1";"1";"2014-10-11 12:27:01.492";"2014-10-11 12:43:07.176";"1";"0";"0";"98";"97";"module.training_block3.exec-8729.GoNoGo3";;;;;;;;;;;;;;;;;;;;;;;;;;;;;;;;;;;;;;;;;;;;;;;"1249";"2014-10-11 12:34:30.881";"NST_correctLoc";"12";"1";"FINISHED";"RIGHT";"success";"326";"0";"2014-10-11 12:34:29.631";"2";;;;;;;;;;;;;;;;;;;;;;;;;;;;;;;;;
"patronum123";"1986";;"Windows 7";"Rachel's Experiment (D.T.)";"1.0";"2";"1";"1";"2";"1";"1";"2014-10-11 12:27:01.492";"2014-10-11 12:43:07.176";"1";"0";"0";"99";"98";"module.training_block3.exec-8729.GoNoGo3";;;;;;;;;;;;;;;;;;;;;;;;;;;;;;;;;;;;;;;;;;;;;;;"1249";"2014-10-11 12:34:33.423";"NST_correctLoc";"23";"1";"FINISHED";"RIGHT";"success";"368";"0";"2014-10-11 12:34:32.173";"3";;;;;;;;;;;;;;;;;;;;;;;;;;;;;;;;;
"patronum123";"1986";;"Windows 7";"Rachel's Experiment (D.T.)";"1.0";"2";"1";"1";"2";"1";"1";"2014-10-11 12:27:01.492";"2014-10-11 12:43:07.176";"1";"0";"0";"100";"99";"module.training_block3.exec-8729.GoNoGo3";;;;;;;;;;;;;;;;;;;;;;;;;;;;;;;;;;;;;;;;;;;;;;;"1250";"2014-10-11 12:34:35.967";"NST_correctLoc";"3";"1";"FINISHED";"RIGHT";"success";"360";"0";"2014-10-11 12:34:34.717";"1";;;;;;;;;;;;;;;;;;;;;;;;;;;;;;;;;
"patronum123";"1986";;"Windows 7";"Rachel's Experiment (D.T.)";"1.0";"2";"1";"1";"2";"1";"1";"2014-10-11 12:27:01.492";"2014-10-11 12:43:07.176";"1";"0";"0";"101";"100";"module.training_block3.exec-8729.GoNoGo3";;;;;;;;;;;;;;;;;;;;;;;;;;;;;;;;;;;;;;;;;;;;;;;"1249";"2014-10-11 12:34:38.509";"NST_correctLoc";"5";"0";"FINISHED";"LEFT";"success";"361";"0";"2014-10-11 12:34:37.259";"1";;;;;;;;;;;;;;;;;;;;;;;;;;;;;;;;;
"patronum123";"1986";;"Windows 7";"Rachel's Experiment (D.T.)";"1.0";"2";"1";"1";"2";"1";"1";"2014-10-11 12:27:01.492";"2014-10-11 12:43:07.176";"1";"0";"0";"102";"101";"module.training_block3.exec-8729.GoNoGo3";;;;;;;;;;;;;;;;;;;;;;;;;;;;;;;;;;;;;;;;;;;;;;;"1249";"2014-10-11 12:34:41.050";"NST_correctLoc";"14";"1";"FINISHED";"RIGHT";"success";"364";"0";"2014-10-11 12:34:39.800";"2";;;;;;;;;;;;;;;;;;;;;;;;;;;;;;;;;
"patronum123";"1986";;"Windows 7";"Rachel's Experiment (D.T.)";"1.0";"2";"1";"1";"2";"1";"1";"2014-10-11 12:27:01.492";"2014-10-11 12:43:07.176";"1";"0";"0";"103";"102";"module.training_block3.exec-8729.GoNoGo3";;;;;;;;;;;;;;;;;;;;;;;;;;;;;;;;;;;;;;;;;;;;;;;"1250";"2014-10-11 12:34:43.599";"NST_correctLoc";"25";"1";"FINISHED";"RIGHT";"success";"399";"0";"2014-10-11 12:34:42.349";"3";;;;;;;;;;;;;;;;;;;;;;;;;;;;;;;;;
"patronum123";"1986";;"Windows 7";"Rachel's Experiment (D.T.)";"1.0";"2";"1";"1";"2";"1";"1";"2014-10-11 12:27:01.492";"2014-10-11 12:43:07.176";"1";"0";"0";"104";"103";"module.training_block3.exec-8729.GoNoGo3";;;;;;;;;;;;;;;;;;;;;;;;;;;;;;;;;;;;;;;;;;;;;;;"1249";"2014-10-11 12:34:46.141";"NST_correctLoc";"34";"0";"FINISHED";"LEFT";"success";"410";"0";"2014-10-11 12:34:44.891";"3";;;;;;;;;;;;;;;;;;;;;;;;;;;;;;;;;
"patronum123";"1986";;"Windows 7";"Rachel's Experiment (D.T.)";"1.0";"2";"1";"1";"2";"1";"1";"2014-10-11 12:27:01.492";"2014-10-11 12:43:07.176";"1";"0";"0";"105";"104";"module.training_block3.exec-8729.GoNoGo3";;;;;;;;;;;;;;;;;;;;;;;;;;;;;;;;;;;;;;;;;;;;;;;"1249";"2014-10-11 12:34:48.683";"NST_correctLoc";"31";"1";"FINISHED";"RIGHT";"success";"353";"0";"2014-10-11 12:34:47.433";"3";;;;;;;;;;;;;;;;;;;;;;;;;;;;;;;;;
"patronum123";"1986";;"Windows 7";"Rachel's Experiment (D.T.)";"1.0";"2";"1";"1";"2";"1";"1";"2014-10-11 12:27:01.492";"2014-10-11 12:43:07.176";"1";"0";"0";"106";"105";"module.training_block3.exec-8729.GoNoGo3";;;;;;;;;;;;;;;;;;;;;;;;;;;;;;;;;;;;;;;;;;;;;;;"1249";"2014-10-11 12:34:51.225";"NST_correctLoc";"8";"0";"FINISHED";"LEFT";"success";"344";"0";"2014-10-11 12:34:49.975";"1";;;;;;;;;;;;;;;;;;;;;;;;;;;;;;;;;
"patronum123";"1986";;"Windows 7";"Rachel's Experiment (D.T.)";"1.0";"2";"1";"1";"2";"1";"1";"2014-10-11 12:27:01.492";"2014-10-11 12:43:07.176";"1";"0";"0";"107";"106";"module.training_block3.exec-8729.GoNoGo3";;;;;;;;;;;;;;;;;;;;;;;;;;;;;;;;;;;;;;;;;;;;;;;"1250";"2014-10-11 12:34:53.767";"NST_correctLoc";"24";"0";"FINISHED";"LEFT";"success";"447";"0";"2014-10-11 12:34:52.517";"3";;;;;;;;;;;;;;;;;;;;;;;;;;;;;;;;;
"patronum123";"1986";;"Windows 7";"Rachel's Experiment (D.T.)";"1.0";"2";"1";"1";"2";"1";"1";"2014-10-11 12:27:01.492";"2014-10-11 12:43:07.176";"1";"0";"0";"108";"107";"module.training_block3.exec-8729.GoNoGo3";;;;;;;;;;;;;;;;;;;;;;;;;;;;;;;;;;;;;;;;;;;;;;;"1249";"2014-10-11 12:34:56.310";"NST_correctLoc";"9";"1";"FINISHED";"RIGHT";"success";"339";"0";"2014-10-11 12:34:55.060";"2";;;;;;;;;;;;;;;;;;;;;;;;;;;;;;;;;
"patronum123";"1986";;"Windows 7";"Rachel's Experiment (D.T.)";"1.0";"2";"1";"1";"2";"1";"1";"2014-10-11 12:27:01.492";"2014-10-11 12:43:07.176";"1";"0";"0";"109";"108";"module.training_block3.exec-8729.GoNoGo3";;;;;;;;;;;;;;;;;;;;;;;;;;;;;;;;;;;;;;;;;;;;;;;"1249";"2014-10-11 12:34:58.853";"NST_correctLoc";"19";"1";"FINISHED";"RIGHT";"success";"379";"0";"2014-10-11 12:34:57.603";"3";;;;;;;;;;;;;;;;;;;;;;;;;;;;;;;;;
"patronum123";"1986";;"Windows 7";"Rachel's Experiment (D.T.)";"1.0";"2";"1";"1";"2";"1";"1";"2014-10-11 12:27:01.492";"2014-10-11 12:43:07.176";"1";"0";"0";"110";"109";"module.training_block3.exec-8729.GoNoGo3";;;;;;;;;;;;;;;;;;;;;;;;;;;;;;;;;;;;;;;;;;;;;;;"1249";"2014-10-11 12:35:01.393";"NST_correctLoc";"1";"1";"FINISHED";"RIGHT";"success";"362";"0";"2014-10-11 12:35:00.143";"1";;;;;;;;;;;;;;;;;;;;;;;;;;;;;;;;;
"patronum123";"1986";;"Windows 7";"Rachel's Experiment (D.T.)";"1.0";"2";"1";"1";"2";"1";"1";"2014-10-11 12:27:01.492";"2014-10-11 12:43:07.176";"1";"0";"0";"111";"110";"module.training_block3.exec-8729.GoNoGo3";;;;;;;;;;;;;;;;;;;;;;;;;;;;;;;;;;;;;;;;;;;;;;;"1250";"2014-10-11 12:35:03.935";"NST_correctLoc";"35";"1";"FINISHED";"RIGHT";"success";"375";"0";"2014-10-11 12:35:02.685";"3";;;;;;;;;;;;;;;;;;;;;;;;;;;;;;;;;
"patronum123";"1986";;"Windows 7";"Rachel's Experiment (D.T.)";"1.0";"2";"1";"1";"2";"1";"1";"2014-10-11 12:27:01.492";"2014-10-11 12:43:07.176";"1";"0";"0";"112";"111";"module.training_block3.exec-8729.GoNoGo3";;;;;;;;;;;;;;;;;;;;;;;;;;;;;;;;;;;;;;;;;;;;;;;"1250";"2014-10-11 12:35:06.479";"NST_correctLoc";"22";"1";"FINISHED";"RIGHT";"success";"345";"0";"2014-10-11 12:35:05.229";"3";;;;;;;;;;;;;;;;;;;;;;;;;;;;;;;;;
"patronum123";"1986";;"Windows 7";"Rachel's Experiment (D.T.)";"1.0";"2";"1";"1";"2";"1";"1";"2014-10-11 12:27:01.492";"2014-10-11 12:43:07.176";"1";"0";"0";"113";"112";"module.training_block3.exec-8729.GoNoGo3";;;;;;;;;;;;;;;;;;;;;;;;;;;;;;;;;;;;;;;;;;;;;;;"1249";"2014-10-11 12:35:09.013";"NST_correctLoc";"29";"1";"FINISHED";"RIGHT";"success";"335";"0";"2014-10-11 12:35:07.763";"3";;;;;;;;;;;;;;;;;;;;;;;;;;;;;;;;;
"patronum123";"1986";;"Windows 7";"Rachel's Experiment (D.T.)";"1.0";"2";"1";"1";"2";"1";"1";"2014-10-11 12:27:01.492";"2014-10-11 12:43:07.176";"1";"0";"0";"114";"113";"module.training_block3.exec-8729.GoNoGo3";;;;;;;;;;;;;;;;;;;;;;;;;;;;;;;;;;;;;;;;;;;;;;;"1249";"2014-10-11 12:35:11.555";"NST_correctLoc";"20";"0";"FINISHED";"LEFT";"success";"357";"0";"2014-10-11 12:35:10.305";"3";;;;;;;;;;;;;;;;;;;;;;;;;;;;;;;;;
"patronum123";"1986";;"Windows 7";"Rachel's Experiment (D.T.)";"1.0";"2";"1";"1";"2";"1";"1";"2014-10-11 12:27:01.492";"2014-10-11 12:43:07.176";"1";"0";"0";"115";"114";"module.training_block3.exec-8729.GoNoGo3";;;;;;;;;;;;;;;;;;;;;;;;;;;;;;;;;;;;;;;;;;;;;;;"1249";"2014-10-11 12:35:14.095";"NST_correctLoc";"17";"0";"FINISHED";"LEFT";"success";"352";"0";"2014-10-11 12:35:12.845";"2";;;;;;;;;;;;;;;;;;;;;;;;;;;;;;;;;
"patronum123";"1986";;"Windows 7";"Rachel's Experiment (D.T.)";"1.0";"2";"1";"1";"2";"1";"1";"2014-10-11 12:27:01.492";"2014-10-11 12:43:07.176";"1";"0";"0";"116";"115";"module.training_block3.exec-8729.GoNoGo3";;;;;;;;;;;;;;;;;;;;;;;;;;;;;;;;;;;;;;;;;;;;;;;"1250";"2014-10-11 12:35:16.632";"NST_correctLoc";"33";"1";"FINISHED";"RIGHT";"success";"339";"0";"2014-10-11 12:35:15.382";"3";;;;;;;;;;;;;;;;;;;;;;;;;;;;;;;;;
"patronum123";"1986";;"Windows 7";"Rachel's Experiment (D.T.)";"1.0";"2";"1";"1";"2";"1";"1";"2014-10-11 12:27:01.492";"2014-10-11 12:43:07.176";"1";"0";"0";"117";"116";"module.training_block3.exec-8729.GoNoGo3";;;;;;;;;;;;;;;;;;;;;;;;;;;;;;;;;;;;;;;;;;;;;;;"1249";"2014-10-11 12:35:19.174";"NST_correctLoc";"15";"0";"FINISHED";"LEFT";"success";"321";"0";"2014-10-11 12:35:17.924";"2";;;;;;;;;;;;;;;;;;;;;;;;;;;;;;;;;
"patronum123";"1986";;"Windows 7";"Rachel's Experiment (D.T.)";"1.0";"2";"1";"1";"2";"1";"1";"2014-10-11 12:27:01.492";"2014-10-11 12:43:07.176";"1";"0";"0";"118";"117";"module.training_block3.exec-8729.GoNoGo3";;;;;;;;;;;;;;;;;;;;;;;;;;;;;;;;;;;;;;;;;;;;;;;"1249";"2014-10-11 12:35:21.715";"NST_correctLoc";"27";"0";"FINISHED";"LEFT";"success";"344";"0";"2014-10-11 12:35:20.465";"3";;;;;;;;;;;;;;;;;;;;;;;;;;;;;;;;;
"patronum123";"1986";;"Windows 7";"Rachel's Experiment (D.T.)";"1.0";"2";"1";"1";"2";"1";"1";"2014-10-11 12:27:01.492";"2014-10-11 12:43:07.176";"1";"0";"0";"119";"118";"module.training_block3.exec-8729.GoNoGo3";;;;;;;;;;;;;;;;;;;;;;;;;;;;;;;;;;;;;;;;;;;;;;;"1249";"2014-10-11 12:35:24.257";"NST_correctLoc";"21";"0";"FINISHED";"LEFT";"success";"336";"0";"2014-10-11 12:35:23.007";"3";;;;;;;;;;;;;;;;;;;;;;;;;;;;;;;;;
"patronum123";"1986";;"Windows 7";"Rachel's Experiment (D.T.)";"1.0";"2";"1";"1";"2";"1";"1";"2014-10-11 12:27:01.492";"2014-10-11 12:43:07.176";"1";"0";"0";"120";"119";"module.training_block3.exec-8729.GoNoGo3";;;;;;;;;;;;;;;;;;;;;;;;;;;;;;;;;;;;;;;;;;;;;;;"1249";"2014-10-11 12:35:26.798";"NST_correctLoc";"4";"0";"FINISHED";"LEFT";"success";"339";"0";"2014-10-11 12:35:25.548";"1";;;;;;;;;;;;;;;;;;;;;;;;;;;;;;;;;
"patronum123";"1986";;"Windows 7";"Rachel's Experiment (D.T.)";"1.0";"2";"1";"1";"2";"1";"1";"2014-10-11 12:27:01.492";"2014-10-11 12:43:07.176";"1";"0";"0";"121";"120";"module.training_block3.exec-8729.GoNoGo3";;;;;;;;;;;;;;;;;;;;;;;;;;;;;;;;;;;;;;;;;;;;;;;"1249";"2014-10-11 12:35:29.340";"NST_correctLoc";"13";"0";"FINISHED";"LEFT";"success";"333";"0";"2014-10-11 12:35:28.090";"2";;;;;;;;;;;;;;;;;;;;;;;;;;;;;;;;;
"patronum123";"1986";;"Windows 7";"Rachel's Experiment (D.T.)";"1.0";"2";"1";"1";"2";"1";"1";"2014-10-11 12:27:01.492";"2014-10-11 12:43:07.176";"1";"0";"0";"122";"121";"module.training_block3.exec-8729.GoNoGo3";;;;;;;;;;;;;;;;;;;;;;;;;;;;;;;;;;;;;;;;;;;;;;;"1250";"2014-10-11 12:35:31.890";"NST_correctLoc";"28";"0";"FINISHED";"LEFT";"success";"366";"0";"2014-10-11 12:35:30.640";"3";;;;;;;;;;;;;;;;;;;;;;;;;;;;;;;;;
"patronum123";"1986";;"Windows 7";"Rachel's Experiment (D.T.)";"1.0";"2";"1";"1";"2";"1";"1";"2014-10-11 12:27:01.492";"2014-10-11 12:43:07.176";"1";"0";"0";"123";"122";"module.training_block3.exec-8729.GoNoGo3";;;;;;;;;;;;;;;;;;;;;;;;;;;;;;;;;;;;;;;;;;;;;;;"1249";"2014-10-11 12:35:34.431";"NST_correctLoc";"32";"1";"FINISHED";"RIGHT";"success";"359";"0";"2014-10-11 12:35:33.181";"3";;;;;;;;;;;;;;;;;;;;;;;;;;;;;;;;;
"patronum123";"1986";;"Windows 7";"Rachel's Experiment (D.T.)";"1.0";"2";"1";"1";"2";"1";"1";"2014-10-11 12:27:01.492";"2014-10-11 12:43:07.176";"1";"0";"0";"124";"123";"module.training_block4.exec-6120.GoNoGo4";;;;;;;;;;;;;;;;;;;;;;;;;;;;;;;;;;;;;;;;;;;;;;;;;;;;;;;;;;;"1250";"2014-10-11 12:35:44.998";"NST_correctLoc";"25";"1";"FINISHED";"RIGHT";"success";"476";"0";"2014-10-11 12:35:43.747";"3";;;;;;;;;;;;;;;;;;;;;
"patronum123";"1986";;"Windows 7";"Rachel's Experiment (D.T.)";"1.0";"2";"1";"1";"2";"1";"1";"2014-10-11 12:27:01.492";"2014-10-11 12:43:07.176";"1";"0";"0";"125";"124";"module.training_block4.exec-6120.GoNoGo4";;;;;;;;;;;;;;;;;;;;;;;;;;;;;;;;;;;;;;;;;;;;;;;;;;;;;;;;;;;"1249";"2014-10-11 12:35:47.533";"NST_correctLoc";"34";"1";"FINISHED";"RIGHT";"success";"355";"0";"2014-10-11 12:35:46.283";"3";;;;;;;;;;;;;;;;;;;;;
"patronum123";"1986";;"Windows 7";"Rachel's Experiment (D.T.)";"1.0";"2";"1";"1";"2";"1";"1";"2014-10-11 12:27:01.492";"2014-10-11 12:43:07.176";"1";"0";"0";"126";"125";"module.training_block4.exec-6120.GoNoGo4";;;;;;;;;;;;;;;;;;;;;;;;;;;;;;;;;;;;;;;;;;;;;;;;;;;;;;;;;;;"1249";"2014-10-11 12:35:50.074";"NST_correctLoc";"16";"0";"FINISHED";"LEFT";"success";"339";"0";"2014-10-11 12:35:48.824";"2";;;;;;;;;;;;;;;;;;;;;
"patronum123";"1986";;"Windows 7";"Rachel's Experiment (D.T.)";"1.0";"2";"1";"1";"2";"1";"1";"2014-10-11 12:27:01.492";"2014-10-11 12:43:07.176";"1";"0";"0";"127";"126";"module.training_block4.exec-6120.GoNoGo4";;;;;;;;;;;;;;;;;;;;;;;;;;;;;;;;;;;;;;;;;;;;;;;;;;;;;;;;;;;"1249";"2014-10-11 12:35:52.615";"NST_correctLoc";"29";"1";"FINISHED";"RIGHT";"success";"361";"0";"2014-10-11 12:35:51.365";"3";;;;;;;;;;;;;;;;;;;;;
"patronum123";"1986";;"Windows 7";"Rachel's Experiment (D.T.)";"1.0";"2";"1";"1";"2";"1";"1";"2014-10-11 12:27:01.492";"2014-10-11 12:43:07.176";"1";"0";"0";"128";"127";"module.training_block4.exec-6120.GoNoGo4";;;;;;;;;;;;;;;;;;;;;;;;;;;;;;;;;;;;;;;;;;;;;;;;;;;;;;;;;;;"1250";"2014-10-11 12:35:55.152";"NST_correctLoc";"11";"1";"FINISHED";"RIGHT";"success";"359";"0";"2014-10-11 12:35:53.902";"2";;;;;;;;;;;;;;;;;;;;;
"patronum123";"1986";;"Windows 7";"Rachel's Experiment (D.T.)";"1.0";"2";"1";"1";"2";"1";"1";"2014-10-11 12:27:01.492";"2014-10-11 12:43:07.176";"1";"0";"0";"129";"128";"module.training_block4.exec-6120.GoNoGo4";;;;;;;;;;;;;;;;;;;;;;;;;;;;;;;;;;;;;;;;;;;;;;;;;;;;;;;;;;;"1249";"2014-10-11 12:35:57.692";"NST_correctLoc";"17";"1";"FINISHED";"RIGHT";"success";"353";"0";"2014-10-11 12:35:56.442";"2";;;;;;;;;;;;;;;;;;;;;
"patronum123";"1986";;"Windows 7";"Rachel's Experiment (D.T.)";"1.0";"2";"1";"1";"2";"1";"1";"2014-10-11 12:27:01.492";"2014-10-11 12:43:07.176";"1";"0";"0";"130";"129";"module.training_block4.exec-6120.GoNoGo4";;;;;;;;;;;;;;;;;;;;;;;;;;;;;;;;;;;;;;;;;;;;;;;;;;;;;;;;;;;"1250";"2014-10-11 12:36:00.232";"NST_correctLoc";"31";"1";"FINISHED";"RIGHT";"success";"377";"0";"2014-10-11 12:35:58.982";"3";;;;;;;;;;;;;;;;;;;;;
"patronum123";"1986";;"Windows 7";"Rachel's Experiment (D.T.)";"1.0";"2";"1";"1";"2";"1";"1";"2014-10-11 12:27:01.492";"2014-10-11 12:43:07.176";"1";"0";"0";"131";"130";"module.training_block4.exec-6120.GoNoGo4";;;;;;;;;;;;;;;;;;;;;;;;;;;;;;;;;;;;;;;;;;;;;;;;;;;;;;;;;;;"1250";"2014-10-11 12:36:02.773";"NST_correctLoc";"5";"0";"FINISHED";"LEFT";"success";"292";"0";"2014-10-11 12:36:01.522";"1";;;;;;;;;;;;;;;;;;;;;
"patronum123";"1986";;"Windows 7";"Rachel's Experiment (D.T.)";"1.0";"2";"1";"1";"2";"1";"1";"2014-10-11 12:27:01.492";"2014-10-11 12:43:07.176";"1";"0";"0";"132";"131";"module.training_block4.exec-6120.GoNoGo4";;;;;;;;;;;;;;;;;;;;;;;;;;;;;;;;;;;;;;;;;;;;;;;;;;;;;;;;;;;"1250";"2014-10-11 12:36:05.312";"NST_correctLoc";"30";"0";"FINISHED";"LEFT";"success";"357";"0";"2014-10-11 12:36:04.062";"3";;;;;;;;;;;;;;;;;;;;;
"patronum123";"1986";;"Windows 7";"Rachel's Experiment (D.T.)";"1.0";"2";"1";"1";"2";"1";"1";"2014-10-11 12:27:01.492";"2014-10-11 12:43:07.176";"1";"0";"0";"133";"132";"module.training_block4.exec-6120.GoNoGo4";;;;;;;;;;;;;;;;;;;;;;;;;;;;;;;;;;;;;;;;;;;;;;;;;;;;;;;;;;;"1249";"2014-10-11 12:36:07.850";"NST_correctLoc";"13";"1";"FINISHED";"RIGHT";"success";"373";"0";"2014-10-11 12:36:06.600";"2";;;;;;;;;;;;;;;;;;;;;
"patronum123";"1986";;"Windows 7";"Rachel's Experiment (D.T.)";"1.0";"2";"1";"1";"2";"1";"1";"2014-10-11 12:27:01.492";"2014-10-11 12:43:07.176";"1";"0";"0";"134";"133";"module.training_block4.exec-6120.GoNoGo4";;;;;;;;;;;;;;;;;;;;;;;;;;;;;;;;;;;;;;;;;;;;;;;;;;;;;;;;;;;"1249";"2014-10-11 12:36:10.389";"NST_correctLoc";"3";"1";"FINISHED";"RIGHT";"success";"369";"0";"2014-10-11 12:36:09.139";"1";;;;;;;;;;;;;;;;;;;;;
"patronum123";"1986";;"Windows 7";"Rachel's Experiment (D.T.)";"1.0";"2";"1";"1";"2";"1";"1";"2014-10-11 12:27:01.492";"2014-10-11 12:43:07.176";"1";"0";"0";"135";"134";"module.training_block4.exec-6120.GoNoGo4";;;;;;;;;;;;;;;;;;;;;;;;;;;;;;;;;;;;;;;;;;;;;;;;;;;;;;;;;;;"1250";"2014-10-11 12:36:12.928";"NST_correctLoc";"19";"1";"FINISHED";"RIGHT";"success";"375";"0";"2014-10-11 12:36:11.678";"3";;;;;;;;;;;;;;;;;;;;;
"patronum123";"1986";;"Windows 7";"Rachel's Experiment (D.T.)";"1.0";"2";"1";"1";"2";"1";"1";"2014-10-11 12:27:01.492";"2014-10-11 12:43:07.176";"1";"0";"0";"136";"135";"module.training_block4.exec-6120.GoNoGo4";;;;;;;;;;;;;;;;;;;;;;;;;;;;;;;;;;;;;;;;;;;;;;;;;;;;;;;;;;;"1250";"2014-10-11 12:36:15.467";"NST_correctLoc";"2";"0";"FINISHED";"LEFT";"success";"291";"0";"2014-10-11 12:36:14.216";"1";;;;;;;;;;;;;;;;;;;;;
"patronum123";"1986";;"Windows 7";"Rachel's Experiment (D.T.)";"1.0";"2";"1";"1";"2";"1";"1";"2014-10-11 12:27:01.492";"2014-10-11 12:43:07.176";"1";"0";"0";"137";"136";"module.training_block4.exec-6120.GoNoGo4";;;;;;;;;;;;;;;;;;;;;;;;;;;;;;;;;;;;;;;;;;;;;;;;;;;;;;;;;;;"1250";"2014-10-11 12:36:18.005";"NST_correctLoc";"26";"1";"FINISHED";"RIGHT";"success";"326";"0";"2014-10-11 12:36:16.755";"3";;;;;;;;;;;;;;;;;;;;;
"patronum123";"1986";;"Windows 7";"Rachel's Experiment (D.T.)";"1.0";"2";"1";"1";"2";"1";"1";"2014-10-11 12:27:01.492";"2014-10-11 12:43:07.176";"1";"0";"0";"138";"137";"module.training_block4.exec-6120.GoNoGo4";;;;;;;;;;;;;;;;;;;;;;;;;;;;;;;;;;;;;;;;;;;;;;;;;;;;;;;;;;;"1249";"2014-10-11 12:36:20.545";"NST_correctLoc";"27";"0";"FINISHED";"LEFT";"success";"312";"0";"2014-10-11 12:36:19.294";"3";;;;;;;;;;;;;;;;;;;;;
"patronum123";"1986";;"Windows 7";"Rachel's Experiment (D.T.)";"1.0";"2";"1";"1";"2";"1";"1";"2014-10-11 12:27:01.492";"2014-10-11 12:43:07.176";"1";"0";"0";"139";"138";"module.training_block4.exec-6120.GoNoGo4";;;;;;;;;;;;;;;;;;;;;;;;;;;;;;;;;;;;;;;;;;;;;;;;;;;;;;;;;;;"1249";"2014-10-11 12:36:23.088";"NST_correctLoc";"32";"0";"FINISHED";"LEFT";"success";"363";"0";"2014-10-11 12:36:21.838";"3";;;;;;;;;;;;;;;;;;;;;
"patronum123";"1986";;"Windows 7";"Rachel's Experiment (D.T.)";"1.0";"2";"1";"1";"2";"1";"1";"2014-10-11 12:27:01.492";"2014-10-11 12:43:07.176";"1";"0";"0";"140";"139";"module.training_block4.exec-6120.GoNoGo4";;;;;;;;;;;;;;;;;;;;;;;;;;;;;;;;;;;;;;;;;;;;;;;;;;;;;;;;;;;"1250";"2014-10-11 12:36:25.627";"NST_correctLoc";"15";"0";"FINISHED";"LEFT";"success";"359";"0";"2014-10-11 12:36:24.377";"2";;;;;;;;;;;;;;;;;;;;;
"patronum123";"1986";;"Windows 7";"Rachel's Experiment (D.T.)";"1.0";"2";"1";"1";"2";"1";"1";"2014-10-11 12:27:01.492";"2014-10-11 12:43:07.176";"1";"0";"0";"141";"140";"module.training_block4.exec-6120.GoNoGo4";;;;;;;;;;;;;;;;;;;;;;;;;;;;;;;;;;;;;;;;;;;;;;;;;;;;;;;;;;;"1249";"2014-10-11 12:36:28.165";"NST_correctLoc";"9";"1";"FINISHED";"RIGHT";"success";"434";"0";"2014-10-11 12:36:26.915";"2";;;;;;;;;;;;;;;;;;;;;
"patronum123";"1986";;"Windows 7";"Rachel's Experiment (D.T.)";"1.0";"2";"1";"1";"2";"1";"1";"2014-10-11 12:27:01.492";"2014-10-11 12:43:07.176";"1";"0";"0";"142";"141";"module.training_block4.exec-6120.GoNoGo4";;;;;;;;;;;;;;;;;;;;;;;;;;;;;;;;;;;;;;;;;;;;;;;;;;;;;;;;;;;"1250";"2014-10-11 12:36:30.704";"NST_correctLoc";"23";"0";"FINISHED";"LEFT";"success";"310";"0";"2014-10-11 12:36:29.454";"3";;;;;;;;;;;;;;;;;;;;;
"patronum123";"1986";;"Windows 7";"Rachel's Experiment (D.T.)";"1.0";"2";"1";"1";"2";"1";"1";"2014-10-11 12:27:01.492";"2014-10-11 12:43:07.176";"1";"0";"0";"143";"142";"module.training_block4.exec-6120.GoNoGo4";;;;;;;;;;;;;;;;;;;;;;;;;;;;;;;;;;;;;;;;;;;;;;;;;;;;;;;;;;;"1249";"2014-10-11 12:36:33.244";"NST_correctLoc";"20";"1";"FINISHED";"RIGHT";"success";"314";"0";"2014-10-11 12:36:31.994";"3";;;;;;;;;;;;;;;;;;;;;
"patronum123";"1986";;"Windows 7";"Rachel's Experiment (D.T.)";"1.0";"2";"1";"1";"2";"1";"1";"2014-10-11 12:27:01.492";"2014-10-11 12:43:07.176";"1";"0";"0";"144";"143";"module.training_block4.exec-6120.GoNoGo4";;;;;;;;;;;;;;;;;;;;;;;;;;;;;;;;;;;;;;;;;;;;;;;;;;;;;;;;;;;"1249";"2014-10-11 12:36:35.782";"NST_correctLoc";"6";"0";"FINISHED";"LEFT";"success";"321";"0";"2014-10-11 12:36:34.532";"1";;;;;;;;;;;;;;;;;;;;;
"patronum123";"1986";;"Windows 7";"Rachel's Experiment (D.T.)";"1.0";"2";"1";"1";"2";"1";"1";"2014-10-11 12:27:01.492";"2014-10-11 12:43:07.176";"1";"0";"0";"145";"144";"module.training_block4.exec-6120.GoNoGo4";;;;;;;;;;;;;;;;;;;;;;;;;;;;;;;;;;;;;;;;;;;;;;;;;;;;;;;;;;;"1249";"2014-10-11 12:36:38.321";"NST_correctLoc";"21";"1";"FINISHED";"RIGHT";"success";"347";"0";"2014-10-11 12:36:37.071";"3";;;;;;;;;;;;;;;;;;;;;
"patronum123";"1986";;"Windows 7";"Rachel's Experiment (D.T.)";"1.0";"2";"1";"1";"2";"1";"1";"2014-10-11 12:27:01.492";"2014-10-11 12:43:07.176";"1";"0";"0";"146";"145";"module.training_block4.exec-6120.GoNoGo4";;;;;;;;;;;;;;;;;;;;;;;;;;;;;;;;;;;;;;;;;;;;;;;;;;;;;;;;;;;"1250";"2014-10-11 12:36:40.859";"NST_correctLoc";"14";"1";"FINISHED";"RIGHT";"success";"364";"0";"2014-10-11 12:36:39.609";"2";;;;;;;;;;;;;;;;;;;;;
"patronum123";"1986";;"Windows 7";"Rachel's Experiment (D.T.)";"1.0";"2";"1";"1";"2";"1";"1";"2014-10-11 12:27:01.492";"2014-10-11 12:43:07.176";"1";"0";"0";"147";"146";"module.training_block4.exec-6120.GoNoGo4";;;;;;;;;;;;;;;;;;;;;;;;;;;;;;;;;;;;;;;;;;;;;;;;;;;;;;;;;;;"1250";"2014-10-11 12:36:43.398";"NST_correctLoc";"10";"0";"FINISHED";"LEFT";"success";"379";"0";"2014-10-11 12:36:42.148";"2";;;;;;;;;;;;;;;;;;;;;
"patronum123";"1986";;"Windows 7";"Rachel's Experiment (D.T.)";"1.0";"2";"1";"1";"2";"1";"1";"2014-10-11 12:27:01.492";"2014-10-11 12:43:07.176";"1";"0";"0";"148";"147";"module.training_block4.exec-6120.GoNoGo4";;;;;;;;;;;;;;;;;;;;;;;;;;;;;;;;;;;;;;;;;;;;;;;;;;;;;;;;;;;"1250";"2014-10-11 12:36:45.938";"NST_correctLoc";"1";"0";"FINISHED";"LEFT";"success";"364";"0";"2014-10-11 12:36:44.688";"1";;;;;;;;;;;;;;;;;;;;;
"patronum123";"1986";;"Windows 7";"Rachel's Experiment (D.T.)";"1.0";"2";"1";"1";"2";"1";"1";"2014-10-11 12:27:01.492";"2014-10-11 12:43:07.176";"1";"0";"0";"149";"148";"module.training_block4.exec-6120.GoNoGo4";;;;;;;;;;;;;;;;;;;;;;;;;;;;;;;;;;;;;;;;;;;;;;;;;;;;;;;;;;;"1249";"2014-10-11 12:36:48.475";"NST_correctLoc";"35";"1";"FINISHED";"RIGHT";"success";"312";"0";"2014-10-11 12:36:47.225";"3";;;;;;;;;;;;;;;;;;;;;
"patronum123";"1986";;"Windows 7";"Rachel's Experiment (D.T.)";"1.0";"2";"1";"1";"2";"1";"1";"2014-10-11 12:27:01.492";"2014-10-11 12:43:07.176";"1";"0";"0";"150";"149";"module.training_block4.exec-6120.GoNoGo4";;;;;;;;;;;;;;;;;;;;;;;;;;;;;;;;;;;;;;;;;;;;;;;;;;;;;;;;;;;"1250";"2014-10-11 12:36:51.010";"NST_correctLoc";"24";"1";"FINISHED";"RIGHT";"success";"401";"0";"2014-10-11 12:36:49.760";"3";;;;;;;;;;;;;;;;;;;;;
"patronum123";"1986";;"Windows 7";"Rachel's Experiment (D.T.)";"1.0";"2";"1";"1";"2";"1";"1";"2014-10-11 12:27:01.492";"2014-10-11 12:43:07.176";"1";"0";"0";"151";"150";"module.training_block4.exec-6120.GoNoGo4";;;;;;;;;;;;;;;;;;;;;;;;;;;;;;;;;;;;;;;;;;;;;;;;;;;;;;;;;;;"1249";"2014-10-11 12:36:53.548";"NST_correctLoc";"28";"1";"FINISHED";"RIGHT";"success";"378";"0";"2014-10-11 12:36:52.298";"3";;;;;;;;;;;;;;;;;;;;;
"patronum123";"1986";;"Windows 7";"Rachel's Experiment (D.T.)";"1.0";"2";"1";"1";"2";"1";"1";"2014-10-11 12:27:01.492";"2014-10-11 12:43:07.176";"1";"0";"0";"152";"151";"module.training_block4.exec-6120.GoNoGo4";;;;;;;;;;;;;;;;;;;;;;;;;;;;;;;;;;;;;;;;;;;;;;;;;;;;;;;;;;;"1250";"2014-10-11 12:36:56.068";"NST_correctLoc";"0";"1";"FINISHED";"RIGHT";"success";"354";"0";"2014-10-11 12:36:54.818";"1";;;;;;;;;;;;;;;;;;;;;
"patronum123";"1986";;"Windows 7";"Rachel's Experiment (D.T.)";"1.0";"2";"1";"1";"2";"1";"1";"2014-10-11 12:27:01.492";"2014-10-11 12:43:07.176";"1";"0";"0";"153";"152";"module.training_block4.exec-6120.GoNoGo4";;;;;;;;;;;;;;;;;;;;;;;;;;;;;;;;;;;;;;;;;;;;;;;;;;;;;;;;;;;"1249";"2014-10-11 12:36:58.607";"NST_correctLoc";"33";"0";"FINISHED";"LEFT";"success";"329";"0";"2014-10-11 12:36:57.357";"3";;;;;;;;;;;;;;;;;;;;;
"patronum123";"1986";;"Windows 7";"Rachel's Experiment (D.T.)";"1.0";"2";"1";"1";"2";"1";"1";"2014-10-11 12:27:01.492";"2014-10-11 12:43:07.176";"1";"0";"0";"154";"153";"module.training_block4.exec-6120.GoNoGo4";;;;;;;;;;;;;;;;;;;;;;;;;;;;;;;;;;;;;;;;;;;;;;;;;;;;;;;;;;;"1249";"2014-10-11 12:37:01.145";"NST_correctLoc";"18";"0";"FINISHED";"LEFT";"success";"371";"0";"2014-10-11 12:36:59.895";"3";;;;;;;;;;;;;;;;;;;;;
"patronum123";"1986";;"Windows 7";"Rachel's Experiment (D.T.)";"1.0";"2";"1";"1";"2";"1";"1";"2014-10-11 12:27:01.492";"2014-10-11 12:43:07.176";"1";"0";"0";"155";"154";"module.training_block4.exec-6120.GoNoGo4";;;;;;;;;;;;;;;;;;;;;;;;;;;;;;;;;;;;;;;;;;;;;;;;;;;;;;;;;;;"1249";"2014-10-11 12:37:03.685";"NST_correctLoc";"12";"0";"FINISHED";"LEFT";"success";"340";"0";"2014-10-11 12:37:02.435";"2";;;;;;;;;;;;;;;;;;;;;
"patronum123";"1986";;"Windows 7";"Rachel's Experiment (D.T.)";"1.0";"2";"1";"1";"2";"1";"1";"2014-10-11 12:27:01.492";"2014-10-11 12:43:07.176";"1";"0";"0";"156";"155";"module.training_block4.exec-6120.GoNoGo4";;;;;;;;;;;;;;;;;;;;;;;;;;;;;;;;;;;;;;;;;;;;;;;;;;;;;;;;;;;"1249";"2014-10-11 12:37:06.221";"NST_correctLoc";"7";"1";"FINISHED";"RIGHT";"success";"319";"0";"2014-10-11 12:37:04.971";"1";;;;;;;;;;;;;;;;;;;;;
"patronum123";"1986";;"Windows 7";"Rachel's Experiment (D.T.)";"1.0";"2";"1";"1";"2";"1";"1";"2014-10-11 12:27:01.492";"2014-10-11 12:43:07.176";"1";"0";"0";"157";"156";"module.training_block4.exec-6120.GoNoGo4";;;;;;;;;;;;;;;;;;;;;;;;;;;;;;;;;;;;;;;;;;;;;;;;;;;;;;;;;;;"1249";"2014-10-11 12:37:08.759";"NST_correctLoc";"8";"1";"FINISHED";"RIGHT";"success";"346";"0";"2014-10-11 12:37:07.509";"1";;;;;;;;;;;;;;;;;;;;;
"patronum123";"1986";;"Windows 7";"Rachel's Experiment (D.T.)";"1.0";"2";"1";"1";"2";"1";"1";"2014-10-11 12:27:01.492";"2014-10-11 12:43:07.176";"1";"0";"0";"158";"157";"module.training_block4.exec-6120.GoNoGo4";;;;;;;;;;;;;;;;;;;;;;;;;;;;;;;;;;;;;;;;;;;;;;;;;;;;;;;;;;;"1249";"2014-10-11 12:37:11.306";"NST_correctLoc";"4";"1";"FINISHED";"RIGHT";"success";"343";"0";"2014-10-11 12:37:10.056";"1";;;;;;;;;;;;;;;;;;;;;
"patronum123";"1986";;"Windows 7";"Rachel's Experiment (D.T.)";"1.0";"2";"1";"1";"2";"1";"1";"2014-10-11 12:27:01.492";"2014-10-11 12:43:07.176";"1";"0";"0";"159";"158";"module.training_block4.exec-6120.GoNoGo4";;;;;;;;;;;;;;;;;;;;;;;;;;;;;;;;;;;;;;;;;;;;;;;;;;;;;;;;;;;"1249";"2014-10-11 12:37:13.842";"NST_correctLoc";"22";"0";"FINISHED";"LEFT";"success";"363";"0";"2014-10-11 12:37:12.592";"3";;;;;;;;;;;;;;;;;;;;;
"patronum123";"1986";;"Windows 7";"Rachel's Experiment (D.T.)";"1.0";"2";"1";"1";"2";"1";"1";"2014-10-11 12:27:01.492";"2014-10-11 12:43:07.176";"1";"0";"0";"160";"159";"module.devaluation_practice.exec-8731.devalPractice";;;;;;;;;;;;"18211";"2014-10-11 12:38:22.149";"0";"6";"7";"7";"8584";"3365";"3166";"2014-10-11 12:38:03.935";;;;;;;;;;;;;;;;;;;;;;;;;;;;;;;;;;;;;;;;;;;;;;;;;;;;;;;;;;;;;;;;;;;;;;
"patronum123";"1986";;"Windows 7";"Rachel's Experiment (D.T.)";"1.0";"2";"1";"1";"2";"1";"1";"2014-10-11 12:27:01.492";"2014-10-11 12:43:07.176";"1";"0";"0";"161";"160";"module.devaluation_practice.exec-8731.devalPractice";;;;;;;;;;;;"12673";"2014-10-11 12:38:34.862";"1";"3";"3";"5";"4735";"3290";"1611";"2014-10-11 12:38:22.189";;;;;;;;;;;;;;;;;;;;;;;;;;;;;;;;;;;;;;;;;;;;;;;;;;;;;;;;;;;;;;;;;;;;;;
"patronum123";"1986";;"Windows 7";"Rachel's Experiment (D.T.)";"1.0";"2";"1";"1";"2";"1";"1";"2014-10-11 12:27:01.492";"2014-10-11 12:43:07.176";"1";"0";"0";"162";"161";"module.devaluation_practice.exec-8731.devalPractice";;;;;;;;;;;;"12010";"2014-10-11 12:38:46.912";"2";"3";"2";"2";"4000";"2068";"2903";"2014-10-11 12:38:34.901";;;;;;;;;;;;;;;;;;;;;;;;;;;;;;;;;;;;;;;;;;;;;;;;;;;;;;;;;;;;;;;;;;;;;;
"patronum123";"1986";;"Windows 7";"Rachel's Experiment (D.T.)";"1.0";"2";"1";"1";"2";"1";"1";"2014-10-11 12:27:01.492";"2014-10-11 12:43:07.176";"1";"0";"0";"163";"162";"module.devaluation_practice.exec-8731.devalPractice";;;;;;;;;;;;"12234";"2014-10-11 12:38:59.180";"3";"6";"6";"6";"4853";"1880";"2346";"2014-10-11 12:38:46.945";;;;;;;;;;;;;;;;;;;;;;;;;;;;;;;;;;;;;;;;;;;;;;;;;;;;;;;;;;;;;;;;;;;;;;
"patronum123";"1986";;"Windows 7";"Rachel's Experiment (D.T.)";"1.0";"2";"1";"1";"2";"1";"1";"2014-10-11 12:27:01.492";"2014-10-11 12:43:07.176";"1";"0";"0";"164";"163";"module.devaluation_block1.exec-1630.deval1";"10056";"2014-10-11 12:39:16.563";"14";"7";"6";"6";"2967";"1224";"2810";"2014-10-11 12:39:06.506";"2";;;;;;;;;;;;;;;;;;;;;;;;;;;;;;;;;;;;;;;;;;;;;;;;;;;;;;;;;;;;;;;;;;;;;;;;;;;;;;;;
"patronum123";"1986";;"Windows 7";"Rachel's Experiment (D.T.)";"1.0";"2";"1";"1";"2";"1";"1";"2014-10-11 12:27:01.492";"2014-10-11 12:43:07.176";"1";"0";"0";"165";"164";"module.devaluation_block1.exec-1630.deval1";"10178";"2014-10-11 12:39:26.782";"5";"8";"9";"9";"3185";"1113";"2833";"2014-10-11 12:39:16.604";"1";;;;;;;;;;;;;;;;;;;;;;;;;;;;;;;;;;;;;;;;;;;;;;;;;;;;;;;;;;;;;;;;;;;;;;;;;;;;;;;;
"patronum123";"1986";;"Windows 7";"Rachel's Experiment (D.T.)";"1.0";"2";"1";"1";"2";"1";"1";"2014-10-11 12:27:01.492";"2014-10-11 12:43:07.176";"1";"0";"0";"166";"165";"module.devaluation_block1.exec-1630.deval1";"9420";"2014-10-11 12:39:36.236";"9";"4";"3";"3";"3221";"1032";"2117";"2014-10-11 12:39:26.815";"2";;;;;;;;;;;;;;;;;;;;;;;;;;;;;;;;;;;;;;;;;;;;;;;;;;;;;;;;;;;;;;;;;;;;;;;;;;;;;;;;
"patronum123";"1986";;"Windows 7";"Rachel's Experiment (D.T.)";"1.0";"2";"1";"1";"2";"1";"1";"2014-10-11 12:27:01.492";"2014-10-11 12:43:07.176";"1";"0";"0";"167";"166";"module.devaluation_block1.exec-1630.deval1";"10575";"2014-10-11 12:39:46.841";"8";"7";"7";"8";"2966";"2415";"2147";"2014-10-11 12:39:36.266";"1";;;;;;;;;;;;;;;;;;;;;;;;;;;;;;;;;;;;;;;;;;;;;;;;;;;;;;;;;;;;;;;;;;;;;;;;;;;;;;;;
"patronum123";"1986";;"Windows 7";"Rachel's Experiment (D.T.)";"1.0";"2";"1";"1";"2";"1";"1";"2014-10-11 12:27:01.492";"2014-10-11 12:43:07.176";"1";"0";"0";"168";"167";"module.devaluation_block1.exec-1630.deval1";"9014";"2014-10-11 12:39:55.897";"7";"6";"3";"6";"607";"3042";"2316";"2014-10-11 12:39:46.881";"1";;;;;;;;;;;;;;;;;;;;;;;;;;;;;;;;;;;;;;;;;;;;;;;;;;;;;;;;;;;;;;;;;;;;;;;;;;;;;;;;
"patronum123";"1986";;"Windows 7";"Rachel's Experiment (D.T.)";"1.0";"2";"1";"1";"2";"1";"1";"2014-10-11 12:27:01.492";"2014-10-11 12:43:07.176";"1";"0";"0";"169";"168";"module.devaluation_block1.exec-1630.deval1";"10971";"2014-10-11 12:40:06.911";"20";"7";"8";"8";"2228";"1227";"4469";"2014-10-11 12:39:55.938";"3";;;;;;;;;;;;;;;;;;;;;;;;;;;;;;;;;;;;;;;;;;;;;;;;;;;;;;;;;;;;;;;;;;;;;;;;;;;;;;;;
"patronum123";"1986";;"Windows 7";"Rachel's Experiment (D.T.)";"1.0";"2";"1";"1";"2";"1";"1";"2014-10-11 12:27:01.492";"2014-10-11 12:43:07.176";"1";"0";"0";"170";"169";"module.devaluation_block1.exec-1630.deval1";"10574";"2014-10-11 12:40:17.526";"17";"3";"2";"2";"3938";"1829";"1759";"2014-10-11 12:40:06.951";"2";;;;;;;;;;;;;;;;;;;;;;;;;;;;;;;;;;;;;;;;;;;;;;;;;;;;;;;;;;;;;;;;;;;;;;;;;;;;;;;;
"patronum123";"1986";;"Windows 7";"Rachel's Experiment (D.T.)";"1.0";"2";"1";"1";"2";"1";"1";"2014-10-11 12:27:01.492";"2014-10-11 12:43:07.176";"1";"0";"0";"171";"170";"module.devaluation_block1.exec-1630.deval1";"9867";"2014-10-11 12:40:27.436";"2";"6";"8";"6";"2337";"1283";"3201";"2014-10-11 12:40:17.568";"1";;;;;;;;;;;;;;;;;;;;;;;;;;;;;;;;;;;;;;;;;;;;;;;;;;;;;;;;;;;;;;;;;;;;;;;;;;;;;;;;
"patronum123";"1986";;"Windows 7";"Rachel's Experiment (D.T.)";"1.0";"2";"1";"1";"2";"1";"1";"2014-10-11 12:27:01.492";"2014-10-11 12:43:07.176";"1";"0";"0";"172";"171";"module.devaluation_block1.exec-1630.deval1";"7647";"2014-10-11 12:40:35.120";"18";"8";"8";"8";"1896";"1045";"1656";"2014-10-11 12:40:27.473";"3";;;;;;;;;;;;;;;;;;;;;;;;;;;;;;;;;;;;;;;;;;;;;;;;;;;;;;;;;;;;;;;;;;;;;;;;;;;;;;;;
"patronum123";"1986";;"Windows 7";"Rachel's Experiment (D.T.)";"1.0";"2";"1";"1";"2";"1";"1";"2014-10-11 12:27:01.492";"2014-10-11 12:43:07.176";"1";"0";"0";"173";"172";"module.devaluation_block1.exec-1630.deval1";"6755";"2014-10-11 12:40:41.911";"4";"9";"9";"9";"1194";"1293";"1224";"2014-10-11 12:40:35.154";"1";;;;;;;;;;;;;;;;;;;;;;;;;;;;;;;;;;;;;;;;;;;;;;;;;;;;;;;;;;;;;;;;;;;;;;;;;;;;;;;;
"patronum123";"1986";;"Windows 7";"Rachel's Experiment (D.T.)";"1.0";"2";"1";"1";"2";"1";"1";"2014-10-11 12:27:01.492";"2014-10-11 12:43:07.176";"1";"0";"0";"174";"173";"module.devaluation_block1.exec-1630.deval1";"6245";"2014-10-11 12:40:48.183";"23";"9";"9";"9";"1031";"1105";"1064";"2014-10-11 12:40:41.938";"3";;;;;;;;;;;;;;;;;;;;;;;;;;;;;;;;;;;;;;;;;;;;;;;;;;;;;;;;;;;;;;;;;;;;;;;;;;;;;;;;
"patronum123";"1986";;"Windows 7";"Rachel's Experiment (D.T.)";"1.0";"2";"1";"1";"2";"1";"1";"2014-10-11 12:27:01.492";"2014-10-11 12:43:07.176";"1";"0";"0";"175";"174";"module.devaluation_block1.exec-1630.deval1";"9363";"2014-10-11 12:40:57.588";"1";"6";"3";"4";"907";"1304";"4107";"2014-10-11 12:40:48.224";"1";;;;;;;;;;;;;;;;;;;;;;;;;;;;;;;;;;;;;;;;;;;;;;;;;;;;;;;;;;;;;;;;;;;;;;;;;;;;;;;;
"patronum123";"1986";;"Windows 7";"Rachel's Experiment (D.T.)";"1.0";"2";"1";"1";"2";"1";"1";"2014-10-11 12:27:01.492";"2014-10-11 12:43:07.176";"1";"0";"0";"176";"175";"module.devaluation_block1.exec-1630.deval1";"7571";"2014-10-11 12:41:05.196";"13";"6";"3";"6";"667";"1085";"2776";"2014-10-11 12:40:57.623";"2";;;;;;;;;;;;;;;;;;;;;;;;;;;;;;;;;;;;;;;;;;;;;;;;;;;;;;;;;;;;;;;;;;;;;;;;;;;;;;;;
"patronum123";"1986";;"Windows 7";"Rachel's Experiment (D.T.)";"1.0";"2";"1";"1";"2";"1";"1";"2014-10-11 12:27:01.492";"2014-10-11 12:43:07.176";"1";"0";"0";"177";"176";"module.devaluation_block1.exec-1630.deval1";"7446";"2014-10-11 12:41:12.683";"12";"6";"5";"6";"1167";"906";"2328";"2014-10-11 12:41:05.237";"2";;;;;;;;;;;;;;;;;;;;;;;;;;;;;;;;;;;;;;;;;;;;;;;;;;;;;;;;;;;;;;;;;;;;;;;;;;;;;;;;
"patronum123";"1986";;"Windows 7";"Rachel's Experiment (D.T.)";"1.0";"2";"1";"1";"2";"1";"1";"2014-10-11 12:27:01.492";"2014-10-11 12:43:07.176";"1";"0";"0";"178";"177";"module.devaluation_block1.exec-1630.deval1";"11999";"2014-10-11 12:41:24.714";"0";"6";"6";"7";"5283";"1970";"1700";"2014-10-11 12:41:12.714";"1";;;;;;;;;;;;;;;;;;;;;;;;;;;;;;;;;;;;;;;;;;;;;;;;;;;;;;;;;;;;;;;;;;;;;;;;;;;;;;;;
"patronum123";"1986";;"Windows 7";"Rachel's Experiment (D.T.)";"1.0";"2";"1";"1";"2";"1";"1";"2014-10-11 12:27:01.492";"2014-10-11 12:43:07.176";"1";"0";"0";"179";"178";"module.devaluation_block1.exec-1630.deval1";"6680";"2014-10-11 12:41:31.436";"25";"8";"9";"9";"877";"1065";"1692";"2014-10-11 12:41:24.757";"3";;;;;;;;;;;;;;;;;;;;;;;;;;;;;;;;;;;;;;;;;;;;;;;;;;;;;;;;;;;;;;;;;;;;;;;;;;;;;;;;
"patronum123";"1986";;"Windows 7";"Rachel's Experiment (D.T.)";"1.0";"2";"1";"1";"2";"1";"1";"2014-10-11 12:27:01.492";"2014-10-11 12:43:07.176";"1";"0";"0";"180";"179";"module.devaluation_block1.exec-1630.deval1";"7436";"2014-10-11 12:41:38.916";"21";"8";"9";"9";"1227";"1136";"2029";"2014-10-11 12:41:31.478";"3";;;;;;;;;;;;;;;;;;;;;;;;;;;;;;;;;;;;;;;;;;;;;;;;;;;;;;;;;;;;;;;;;;;;;;;;;;;;;;;;
"patronum123";"1986";;"Windows 7";"Rachel's Experiment (D.T.)";"1.0";"2";"1";"1";"2";"1";"1";"2014-10-11 12:27:01.492";"2014-10-11 12:43:07.176";"1";"0";"0";"181";"180";"module.devaluation_block1.exec-1630.deval1";"8511";"2014-10-11 12:41:47.468";"16";"3";"2";"2";"1396";"1473";"2596";"2014-10-11 12:41:38.956";"2";;;;;;;;;;;;;;;;;;;;;;;;;;;;;;;;;;;;;;;;;;;;;;;;;;;;;;;;;;;;;;;;;;;;;;;;;;;;;;;;
"patronum123";"1986";;"Windows 7";"Rachel's Experiment (D.T.)";"1.0";"2";"1";"1";"2";"1";"1";"2014-10-11 12:27:01.492";"2014-10-11 12:43:07.176";"1";"0";"0";"182";"181";"module.devaluation_block1.exec-1630.deval1";"7983";"2014-10-11 12:41:55.493";"19";"9";"9";"9";"1208";"1056";"2675";"2014-10-11 12:41:47.508";"3";;;;;;;;;;;;;;;;;;;;;;;;;;;;;;;;;;;;;;;;;;;;;;;;;;;;;;;;;;;;;;;;;;;;;;;;;;;;;;;;
"patronum123";"1986";;"Windows 7";"Rachel's Experiment (D.T.)";"1.0";"2";"1";"1";"2";"1";"1";"2014-10-11 12:27:01.492";"2014-10-11 12:43:07.176";"1";"0";"0";"183";"182";"module.devaluation_block1.exec-1630.deval1";"7425";"2014-10-11 12:42:02.951";"3";"8";"7";"8";"1563";"1593";"1225";"2014-10-11 12:41:55.526";"1";;;;;;;;;;;;;;;;;;;;;;;;;;;;;;;;;;;;;;;;;;;;;;;;;;;;;;;;;;;;;;;;;;;;;;;;;;;;;;;;
"patronum123";"1986";;"Windows 7";"Rachel's Experiment (D.T.)";"1.0";"2";"1";"1";"2";"1";"1";"2014-10-11 12:27:01.492";"2014-10-11 12:43:07.176";"1";"0";"0";"184";"183";"module.devaluation_block1.exec-1630.deval1";"9236";"2014-10-11 12:42:12.229";"15";"4";"2";"3";"3262";"1543";"1384";"2014-10-11 12:42:02.992";"2";;;;;;;;;;;;;;;;;;;;;;;;;;;;;;;;;;;;;;;;;;;;;;;;;;;;;;;;;;;;;;;;;;;;;;;;;;;;;;;;
"patronum123";"1986";;"Windows 7";"Rachel's Experiment (D.T.)";"1.0";"2";"1";"1";"2";"1";"1";"2014-10-11 12:27:01.492";"2014-10-11 12:43:07.176";"1";"0";"0";"185";"184";"module.devaluation_block1.exec-1630.deval1";"12603";"2014-10-11 12:42:24.867";"10";"7";"3";"6";"4057";"4068";"1434";"2014-10-11 12:42:12.264";"2";;;;;;;;;;;;;;;;;;;;;;;;;;;;;;;;;;;;;;;;;;;;;;;;;;;;;;;;;;;;;;;;;;;;;;;;;;;;;;;;
"patronum123";"1986";;"Windows 7";"Rachel's Experiment (D.T.)";"1.0";"2";"1";"1";"2";"1";"1";"2014-10-11 12:27:01.492";"2014-10-11 12:43:07.176";"1";"0";"0";"186";"185";"module.devaluation_block1.exec-1630.deval1";"7836";"2014-10-11 12:42:32.734";"24";"7";"8";"8";"902";"1086";"2805";"2014-10-11 12:42:24.896";"3";;;;;;;;;;;;;;;;;;;;;;;;;;;;;;;;;;;;;;;;;;;;;;;;;;;;;;;;;;;;;;;;;;;;;;;;;;;;;;;;
"patronum123";"1986";;"Windows 7";"Rachel's Experiment (D.T.)";"1.0";"2";"1";"1";"2";"1";"1";"2014-10-11 12:27:01.492";"2014-10-11 12:43:07.176";"1";"0";"0";"187";"186";"module.devaluation_block1.exec-1630.deval1";"11163";"2014-10-11 12:42:43.940";"11";"3";"1";"2";"3154";"2736";"2229";"2014-10-11 12:42:32.777";"2";;;;;;;;;;;;;;;;;;;;;;;;;;;;;;;;;;;;;;;;;;;;;;;;;;;;;;;;;;;;;;;;;;;;;;;;;;;;;;;;
"patronum123";"1986";;"Windows 7";"Rachel's Experiment (D.T.)";"1.0";"2";"1";"1";"2";"1";"1";"2014-10-11 12:27:01.492";"2014-10-11 12:43:07.176";"1";"0";"0";"188";"187";"module.devaluation_block1.exec-1630.deval1";"7662";"2014-10-11 12:42:51.637";"6";"7";"4";"6";"1035";"1454";"2129";"2014-10-11 12:42:43.974";"1";;;;;;;;;;;;;;;;;;;;;;;;;;;;;;;;;;;;;;;;;;;;;;;;;;;;;;;;;;;;;;;;;;;;;;;;;;;;;;;;
"patronum123";"1986";;"Windows 7";"Rachel's Experiment (D.T.)";"1.0";"2";"1";"1";"2";"1";"1";"2014-10-11 12:27:01.492";"2014-10-11 12:43:07.176";"1";"0";"0";"189";"188";"module.devaluation_block1.exec-1630.deval1";"7138";"2014-10-11 12:42:58.817";"26";"9";"9";"9";"1774";"1175";"1145";"2014-10-11 12:42:51.679";"3";;;;;;;;;;;;;;;;;;;;;;;;;;;;;;;;;;;;;;;;;;;;;;;;;;;;;;;;;;;;;;;;;;;;;;;;;;;;;;;;
"patronum123";"1986";;"Windows 7";"Rachel's Experiment (D.T.)";"1.0";"2";"1";"1";"2";"1";"1";"2014-10-11 12:27:01.492";"2014-10-11 12:43:07.176";"1";"0";"0";"190";"189";"module.devaluation_block1.exec-1630.deval1";"6697";"2014-10-11 12:43:05.551";"22";"8";"9";"9";"1054";"1156";"1443";"2014-10-11 12:42:58.852";"3";;;;;;;;;;;;;;;;;;;;;;;;;;;;;;;;;;;;;;;;;;;;;;;;;;;;;;;;;;;;;;;;;;;;;;;;;;;;;;;;
