"user.name";"user.yearOfBirth";"user.sex";"user.osName";"module.name";"module.version";"module.online.subject.code";"module.online.study.id";"module.online.module.nr";"module.online.group.nr";"session.id";"session.index";"session.startTime";"session.endTime";"session.completed";"session.node-4816.conditionType";"session.node-6400.DevalQorder";"trial.id";"trial.index";"trial.name";"trial.deval1.durationTime";"trial.deval1.endTime";"trial.deval1.icon";"trial.deval1.Resp_Attractive";"trial.deval1.Resp_Eat";"trial.deval1.Resp_Taste";"trial.deval1.RT_Attractive";"trial.deval1.RT_Eat";"trial.deval1.RT_Taste";"trial.deval1.startTime";"trial.deval1.stimulus type";"trial.devalPractice.durationTime";"trial.devalPractice.endTime";"trial.devalPractice.icon";"trial.devalPractice.Resp_Attractive";"trial.devalPractice.Resp_Eat";"trial.devalPractice.Resp_Taste";"trial.devalPractice.RT_Attractive";"trial.devalPractice.RT_Eat";"trial.devalPractice.RT_Taste";"trial.devalPractice.startTime";"trial.devalPractice.stimulus type";"trial.GoNoGo1.durationTime";"trial.GoNoGo1.endTime";"trial.GoNoGo1.Error Type";"trial.GoNoGo1.icon";"trial.GoNoGo1.location";"trial.GoNoGo1.outcome";"trial.GoNoGo1.response";"trial.GoNoGo1.result";"trial.GoNoGo1.RT";"trial.GoNoGo1.signal";"trial.GoNoGo1.startTime";"trial.GoNoGo1.stimulus type";"trial.GoNoGo2.durationTime";"trial.GoNoGo2.endTime";"trial.GoNoGo2.Error Type";"trial.GoNoGo2.icon";"trial.GoNoGo2.location";"trial.GoNoGo2.outcome";"trial.GoNoGo2.response";"trial.GoNoGo2.result";"trial.GoNoGo2.RT";"trial.GoNoGo2.signal";"trial.GoNoGo2.startTime";"trial.GoNoGo2.stimulus type";"trial.GoNoGo3.durationTime";"trial.GoNoGo3.endTime";"trial.GoNoGo3.Error Type";"trial.GoNoGo3.icon";"trial.GoNoGo3.location";"trial.GoNoGo3.outcome";"trial.GoNoGo3.response";"trial.GoNoGo3.result";"trial.GoNoGo3.RT";"trial.GoNoGo3.signal";"trial.GoNoGo3.startTime";"trial.GoNoGo3.stimulus type";"trial.GoNoGo4.durationTime";"trial.GoNoGo4.endTime";"trial.GoNoGo4.Error Type";"trial.GoNoGo4.icon";"trial.GoNoGo4.location";"trial.GoNoGo4.outcome";"trial.GoNoGo4.response";"trial.GoNoGo4.result";"trial.GoNoGo4.RT";"trial.GoNoGo4.signal";"trial.GoNoGo4.startTime";"trial.GoNoGo4.stimulus type";"trial.GoNoGo_Practice.durationTime";"trial.GoNoGo_Practice.endTime";"trial.GoNoGo_Practice.icon";"trial.GoNoGo_Practice.location";"trial.GoNoGo_Practice.outcome";"trial.GoNoGo_Practice.response";"trial.GoNoGo_Practice.result";"trial.GoNoGo_Practice.RT";"trial.GoNoGo_Practice.signal";"trial.GoNoGo_Practice.startTime";"trial.GoNoGo_Practice.stimulus type";"trial.GoNoGo_Tutorial.durationTime";"trial.GoNoGo_Tutorial.endTime";"trial.GoNoGo_Tutorial.icon";"trial.GoNoGo_Tutorial.location";"trial.GoNoGo_Tutorial.outcome";"trial.GoNoGo_Tutorial.response";"trial.GoNoGo_Tutorial.result";"trial.GoNoGo_Tutorial.RT";"trial.GoNoGo_Tutorial.signal";"trial.GoNoGo_Tutorial.startTime"
"1318923";;;"Windows 7";"Rachel's Experiment (D.T.)";"1.0";"2";"1";"1";"2";"1";"1";"2014-10-16 13:37:13.638";"2014-10-16 13:50:17.086";"1";"0";"1";"1";"0";"module.GoNoGotutorial.exec-2436.GoNoGo_Tutorial";;;;;;;;;;;;;;;;;;;;;;;;;;;;;;;;;;;;;;;;;;;;;;;;;;;;;;;;;;;;;;;;;;;;;;;;;;;;;;;;;;"3998";"2014-10-16 13:38:00.204";"leftResponse";"0";"FINISHED";"LEFT";"success";"1410";"0";"2014-10-16 13:37:56.194"
"1318923";;;"Windows 7";"Rachel's Experiment (D.T.)";"1.0";"2";"1";"1";"2";"1";"1";"2014-10-16 13:37:13.638";"2014-10-16 13:50:17.086";"1";"0";"1";"2";"1";"module.GoNoGotutorial.exec-2436.GoNoGo_Tutorial";;;;;;;;;;;;;;;;;;;;;;;;;;;;;;;;;;;;;;;;;;;;;;;;;;;;;;;;;;;;;;;;;;;;;;;;;;;;;;;;;;"4002";"2014-10-16 13:38:05.508";"rightResponse";"1";"FINISHED";"NONE";"failure";"0";"0";"2014-10-16 13:38:01.498"
"1318923";;;"Windows 7";"Rachel's Experiment (D.T.)";"1.0";"2";"1";"1";"2";"1";"1";"2014-10-16 13:37:13.638";"2014-10-16 13:50:17.086";"1";"0";"1";"3";"2";"module.GoNoGotutorial.exec-2436.GoNoGo_Tutorial";;;;;;;;;;;;;;;;;;;;;;;;;;;;;;;;;;;;;;;;;;;;;;;;;;;;;;;;;;;;;;;;;;;;;;;;;;;;;;;;;;"4003";"2014-10-16 13:38:10.812";"quickResponse";"0";"FINISHED";"NONE";"failure";"0";"0";"2014-10-16 13:38:06.802"
"1318923";;;"Windows 7";"Rachel's Experiment (D.T.)";"1.0";"2";"1";"1";"2";"1";"1";"2014-10-16 13:37:13.638";"2014-10-16 13:50:17.086";"1";"0";"1";"4";"3";"module.GoNoGopractice.exec-6386.GoNoGo_Practice";;;;;;;;;;;;;;;;;;;;;;;;;;;;;;;;;;;;;;;;;;;;;;;;;;;;;;;;;;;;;;;;;;;;;;;"1959";"2014-10-16 13:38:18.034";"18";"0";"FINISHED";"LEFT";"success";"291";"0";"2014-10-16 13:38:16.069";"3";;;;;;;;;;
"1318923";;;"Windows 7";"Rachel's Experiment (D.T.)";"1.0";"2";"1";"1";"2";"1";"1";"2014-10-16 13:37:13.638";"2014-10-16 13:50:17.086";"1";"0";"1";"5";"4";"module.GoNoGopractice.exec-6386.GoNoGo_Practice";;;;;;;;;;;;;;;;;;;;;;;;;;;;;;;;;;;;;;;;;;;;;;;;;;;;;;;;;;;;;;;;;;;;;;;"1959";"2014-10-16 13:38:21.295";"21";"1";"FINISHED";"RIGHT";"success";"360";"0";"2014-10-16 13:38:19.329";"3";;;;;;;;;;
"1318923";;;"Windows 7";"Rachel's Experiment (D.T.)";"1.0";"2";"1";"1";"2";"1";"1";"2014-10-16 13:37:13.638";"2014-10-16 13:50:17.086";"1";"0";"1";"6";"5";"module.GoNoGopractice.exec-6386.GoNoGo_Practice";;;;;;;;;;;;;;;;;;;;;;;;;;;;;;;;;;;;;;;;;;;;;;;;;;;;;;;;;;;;;;;;;;;;;;;"1958";"2014-10-16 13:38:24.540";"14";"1";"FINISHED";"RIGHT";"success";"410";"0";"2014-10-16 13:38:22.574";"2";;;;;;;;;;
"1318923";;;"Windows 7";"Rachel's Experiment (D.T.)";"1.0";"2";"1";"1";"2";"1";"1";"2014-10-16 13:37:13.638";"2014-10-16 13:50:17.086";"1";"0";"1";"7";"6";"module.GoNoGopractice.exec-6386.GoNoGo_Practice";;;;;;;;;;;;;;;;;;;;;;;;;;;;;;;;;;;;;;;;;;;;;;;;;;;;;;;;;;;;;;;;;;;;;;;"1959";"2014-10-16 13:38:27.784";"26";"0";"FINISHED";"LEFT";"success";"438";"0";"2014-10-16 13:38:25.819";"3";;;;;;;;;;
"1318923";;;"Windows 7";"Rachel's Experiment (D.T.)";"1.0";"2";"1";"1";"2";"1";"1";"2014-10-16 13:37:13.638";"2014-10-16 13:50:17.086";"1";"0";"1";"8";"7";"module.GoNoGopractice.exec-6386.GoNoGo_Practice";;;;;;;;;;;;;;;;;;;;;;;;;;;;;;;;;;;;;;;;;;;;;;;;;;;;;;;;;;;;;;;;;;;;;;;"1959";"2014-10-16 13:38:31.029";"2";"0";"FINISHED";"LEFT";"success";"465";"0";"2014-10-16 13:38:29.064";"1";;;;;;;;;;
"1318923";;;"Windows 7";"Rachel's Experiment (D.T.)";"1.0";"2";"1";"1";"2";"1";"1";"2014-10-16 13:37:13.638";"2014-10-16 13:50:17.086";"1";"0";"1";"9";"8";"module.GoNoGopractice.exec-6386.GoNoGo_Practice";;;;;;;;;;;;;;;;;;;;;;;;;;;;;;;;;;;;;;;;;;;;;;;;;;;;;;;;;;;;;;;;;;;;;;;"1960";"2014-10-16 13:38:34.274";"30";"0";"FINISHED";"LEFT";"success";"405";"0";"2014-10-16 13:38:32.308";"3";;;;;;;;;;
"1318923";;;"Windows 7";"Rachel's Experiment (D.T.)";"1.0";"2";"1";"1";"2";"1";"1";"2014-10-16 13:37:13.638";"2014-10-16 13:50:17.086";"1";"0";"1";"10";"9";"module.GoNoGopractice.exec-6386.GoNoGo_Practice";;;;;;;;;;;;;;;;;;;;;;;;;;;;;;;;;;;;;;;;;;;;;;;;;;;;;;;;;;;;;;;;;;;;;;;"1959";"2014-10-16 13:38:37.519";"6";"1";"FINISHED";"RIGHT";"success";"272";"0";"2014-10-16 13:38:35.553";"1";;;;;;;;;;
"1318923";;;"Windows 7";"Rachel's Experiment (D.T.)";"1.0";"2";"1";"1";"2";"1";"1";"2014-10-16 13:37:13.638";"2014-10-16 13:50:17.086";"1";"0";"1";"11";"10";"module.GoNoGopractice.exec-6386.GoNoGo_Practice";;;;;;;;;;;;;;;;;;;;;;;;;;;;;;;;;;;;;;;;;;;;;;;;;;;;;;;;;;;;;;;;;;;;;;;"1960";"2014-10-16 13:38:40.764";"34";"0";"FINISHED";"LEFT";"success";"316";"0";"2014-10-16 13:38:38.798";"3";;;;;;;;;;
"1318923";;;"Windows 7";"Rachel's Experiment (D.T.)";"1.0";"2";"1";"1";"2";"1";"1";"2014-10-16 13:37:13.638";"2014-10-16 13:50:17.086";"1";"0";"1";"12";"11";"module.GoNoGopractice.exec-6386.GoNoGo_Practice";;;;;;;;;;;;;;;;;;;;;;;;;;;;;;;;;;;;;;;;;;;;;;;;;;;;;;;;;;;;;;;;;;;;;;;"1959";"2014-10-16 13:38:44.008";"23";"1";"FINISHED";"RIGHT";"success";"326";"0";"2014-10-16 13:38:42.043";"3";;;;;;;;;;
"1318923";;;"Windows 7";"Rachel's Experiment (D.T.)";"1.0";"2";"1";"1";"2";"1";"1";"2014-10-16 13:37:13.638";"2014-10-16 13:50:17.086";"1";"0";"1";"13";"12";"module.GoNoGopractice.exec-6386.GoNoGo_Practice";;;;;;;;;;;;;;;;;;;;;;;;;;;;;;;;;;;;;;;;;;;;;;;;;;;;;;;;;;;;;;;;;;;;;;;"1959";"2014-10-16 13:38:47.253";"13";"0";"FINISHED";"LEFT";"success";"329";"0";"2014-10-16 13:38:45.288";"2";;;;;;;;;;
"1318923";;;"Windows 7";"Rachel's Experiment (D.T.)";"1.0";"2";"1";"1";"2";"1";"1";"2014-10-16 13:37:13.638";"2014-10-16 13:50:17.086";"1";"0";"1";"14";"13";"module.GoNoGopractice.exec-6386.GoNoGo_Practice";;;;;;;;;;;;;;;;;;;;;;;;;;;;;;;;;;;;;;;;;;;;;;;;;;;;;;;;;;;;;;;;;;;;;;;"1960";"2014-10-16 13:38:50.498";"3";"1";"FINISHED";"RIGHT";"success";"317";"0";"2014-10-16 13:38:48.532";"1";;;;;;;;;;
"1318923";;;"Windows 7";"Rachel's Experiment (D.T.)";"1.0";"2";"1";"1";"2";"1";"1";"2014-10-16 13:37:13.638";"2014-10-16 13:50:17.086";"1";"0";"1";"15";"14";"module.GoNoGopractice.exec-6386.GoNoGo_Practice";;;;;;;;;;;;;;;;;;;;;;;;;;;;;;;;;;;;;;;;;;;;;;;;;;;;;;;;;;;;;;;;;;;;;;;"1958";"2014-10-16 13:38:53.836";"27";"1";"FINISHED";"RIGHT";"success";"385";"0";"2014-10-16 13:38:51.871";"3";;;;;;;;;;
"1318923";;;"Windows 7";"Rachel's Experiment (D.T.)";"1.0";"2";"1";"1";"2";"1";"1";"2014-10-16 13:37:13.638";"2014-10-16 13:50:17.086";"1";"0";"1";"16";"15";"module.training_block1.exec-8506.GoNoGo1";;;;;;;;;;;;;;;;;;;;;;;"1257";"2014-10-16 13:39:00.872";"NST_correctLoc";"29";"0";"FINISHED";"LEFT";"success";"415";"0";"2014-10-16 13:38:59.608";"3";;;;;;;;;;;;;;;;;;;;;;;;;;;;;;;;;;;;;;;;;;;;;;;;;;;;;;;;;
"1318923";;;"Windows 7";"Rachel's Experiment (D.T.)";"1.0";"2";"1";"1";"2";"1";"1";"2014-10-16 13:37:13.638";"2014-10-16 13:50:17.086";"1";"0";"1";"17";"16";"module.training_block1.exec-8506.GoNoGo1";;;;;;;;;;;;;;;;;;;;;;;"1257";"2014-10-16 13:39:03.415";"NST_correctLoc";"26";"0";"FINISHED";"LEFT";"success";"322";"0";"2014-10-16 13:39:02.151";"3";;;;;;;;;;;;;;;;;;;;;;;;;;;;;;;;;;;;;;;;;;;;;;;;;;;;;;;;;
"1318923";;;"Windows 7";"Rachel's Experiment (D.T.)";"1.0";"2";"1";"1";"2";"1";"1";"2014-10-16 13:37:13.638";"2014-10-16 13:50:17.086";"1";"0";"1";"18";"17";"module.training_block1.exec-8506.GoNoGo1";;;;;;;;;;;;;;;;;;;;;;;"1257";"2014-10-16 13:39:05.958";"NST_correctLoc";"21";"0";"FINISHED";"LEFT";"success";"315";"0";"2014-10-16 13:39:04.694";"3";;;;;;;;;;;;;;;;;;;;;;;;;;;;;;;;;;;;;;;;;;;;;;;;;;;;;;;;;
"1318923";;;"Windows 7";"Rachel's Experiment (D.T.)";"1.0";"2";"1";"1";"2";"1";"1";"2014-10-16 13:37:13.638";"2014-10-16 13:50:17.086";"1";"0";"1";"19";"18";"module.training_block1.exec-8506.GoNoGo1";;;;;;;;;;;;;;;;;;;;;;;"1258";"2014-10-16 13:39:08.501";"NST_correctLoc";"34";"1";"FINISHED";"RIGHT";"success";"357";"0";"2014-10-16 13:39:07.237";"3";;;;;;;;;;;;;;;;;;;;;;;;;;;;;;;;;;;;;;;;;;;;;;;;;;;;;;;;;
"1318923";;;"Windows 7";"Rachel's Experiment (D.T.)";"1.0";"2";"1";"1";"2";"1";"1";"2014-10-16 13:37:13.638";"2014-10-16 13:50:17.086";"1";"0";"1";"20";"19";"module.training_block1.exec-8506.GoNoGo1";;;;;;;;;;;;;;;;;;;;;;;"1258";"2014-10-16 13:39:11.043";"NST_correctLoc";"12";"0";"FINISHED";"LEFT";"success";"358";"0";"2014-10-16 13:39:09.780";"2";;;;;;;;;;;;;;;;;;;;;;;;;;;;;;;;;;;;;;;;;;;;;;;;;;;;;;;;;
"1318923";;;"Windows 7";"Rachel's Experiment (D.T.)";"1.0";"2";"1";"1";"2";"1";"1";"2014-10-16 13:37:13.638";"2014-10-16 13:50:17.086";"1";"0";"1";"21";"20";"module.training_block1.exec-8506.GoNoGo1";;;;;;;;;;;;;;;;;;;;;;;"1257";"2014-10-16 13:39:13.586";"NST_correctLoc";"8";"1";"FINISHED";"RIGHT";"success";"286";"0";"2014-10-16 13:39:12.323";"1";;;;;;;;;;;;;;;;;;;;;;;;;;;;;;;;;;;;;;;;;;;;;;;;;;;;;;;;;
"1318923";;;"Windows 7";"Rachel's Experiment (D.T.)";"1.0";"2";"1";"1";"2";"1";"1";"2014-10-16 13:37:13.638";"2014-10-16 13:50:17.086";"1";"0";"1";"22";"21";"module.training_block1.exec-8506.GoNoGo1";;;;;;;;;;;;;;;;;;;;;;;"1258";"2014-10-16 13:39:16.129";"NST_correctLoc";"9";"0";"FINISHED";"LEFT";"success";"288";"0";"2014-10-16 13:39:14.865";"2";;;;;;;;;;;;;;;;;;;;;;;;;;;;;;;;;;;;;;;;;;;;;;;;;;;;;;;;;
"1318923";;;"Windows 7";"Rachel's Experiment (D.T.)";"1.0";"2";"1";"1";"2";"1";"1";"2014-10-16 13:37:13.638";"2014-10-16 13:50:17.086";"1";"0";"1";"23";"22";"module.training_block1.exec-8506.GoNoGo1";;;;;;;;;;;;;;;;;;;;;;;"1258";"2014-10-16 13:39:18.672";"NST_correctLoc";"18";"0";"FINISHED";"LEFT";"success";"513";"0";"2014-10-16 13:39:17.408";"3";;;;;;;;;;;;;;;;;;;;;;;;;;;;;;;;;;;;;;;;;;;;;;;;;;;;;;;;;
"1318923";;;"Windows 7";"Rachel's Experiment (D.T.)";"1.0";"2";"1";"1";"2";"1";"1";"2014-10-16 13:37:13.638";"2014-10-16 13:50:17.086";"1";"0";"1";"24";"23";"module.training_block1.exec-8506.GoNoGo1";;;;;;;;;;;;;;;;;;;;;;;"1261";"2014-10-16 13:39:21.215";"NST_correctLoc";"27";"1";"FINISHED";"RIGHT";"success";"478";"0";"2014-10-16 13:39:19.951";"3";;;;;;;;;;;;;;;;;;;;;;;;;;;;;;;;;;;;;;;;;;;;;;;;;;;;;;;;;
"1318923";;;"Windows 7";"Rachel's Experiment (D.T.)";"1.0";"2";"1";"1";"2";"1";"1";"2014-10-16 13:37:13.638";"2014-10-16 13:50:17.086";"1";"0";"1";"25";"24";"module.training_block1.exec-8506.GoNoGo1";;;;;;;;;;;;;;;;;;;;;;;"1257";"2014-10-16 13:39:23.757";"NST_correctLoc";"10";"1";"FINISHED";"RIGHT";"success";"339";"0";"2014-10-16 13:39:22.494";"2";;;;;;;;;;;;;;;;;;;;;;;;;;;;;;;;;;;;;;;;;;;;;;;;;;;;;;;;;
"1318923";;;"Windows 7";"Rachel's Experiment (D.T.)";"1.0";"2";"1";"1";"2";"1";"1";"2014-10-16 13:37:13.638";"2014-10-16 13:50:17.086";"1";"0";"1";"26";"25";"module.training_block1.exec-8506.GoNoGo1";;;;;;;;;;;;;;;;;;;;;;;"1256";"2014-10-16 13:39:26.300";"NST_correctLoc";"31";"1";"FINISHED";"RIGHT";"success";"339";"0";"2014-10-16 13:39:25.037";"3";;;;;;;;;;;;;;;;;;;;;;;;;;;;;;;;;;;;;;;;;;;;;;;;;;;;;;;;;
"1318923";;;"Windows 7";"Rachel's Experiment (D.T.)";"1.0";"2";"1";"1";"2";"1";"1";"2014-10-16 13:37:13.638";"2014-10-16 13:50:17.086";"1";"0";"1";"27";"26";"module.training_block1.exec-8506.GoNoGo1";;;;;;;;;;;;;;;;;;;;;;;"1258";"2014-10-16 13:39:28.843";"NST_correctLoc";"30";"0";"FINISHED";"LEFT";"success";"502";"0";"2014-10-16 13:39:27.579";"3";;;;;;;;;;;;;;;;;;;;;;;;;;;;;;;;;;;;;;;;;;;;;;;;;;;;;;;;;
"1318923";;;"Windows 7";"Rachel's Experiment (D.T.)";"1.0";"2";"1";"1";"2";"1";"1";"2014-10-16 13:37:13.638";"2014-10-16 13:50:17.086";"1";"0";"1";"28";"27";"module.training_block1.exec-8506.GoNoGo1";;;;;;;;;;;;;;;;;;;;;;;"1258";"2014-10-16 13:39:31.386";"NST_correctLoc";"35";"0";"FINISHED";"LEFT";"success";"311";"0";"2014-10-16 13:39:30.122";"3";;;;;;;;;;;;;;;;;;;;;;;;;;;;;;;;;;;;;;;;;;;;;;;;;;;;;;;;;
"1318923";;;"Windows 7";"Rachel's Experiment (D.T.)";"1.0";"2";"1";"1";"2";"1";"1";"2014-10-16 13:37:13.638";"2014-10-16 13:50:17.086";"1";"0";"1";"29";"28";"module.training_block1.exec-8506.GoNoGo1";;;;;;;;;;;;;;;;;;;;;;;"1253";"2014-10-16 13:39:33.929";"NST_correctLoc";"4";"0";"FINISHED";"LEFT";"success";"299";"0";"2014-10-16 13:39:32.665";"1";;;;;;;;;;;;;;;;;;;;;;;;;;;;;;;;;;;;;;;;;;;;;;;;;;;;;;;;;
"1318923";;;"Windows 7";"Rachel's Experiment (D.T.)";"1.0";"2";"1";"1";"2";"1";"1";"2014-10-16 13:37:13.638";"2014-10-16 13:50:17.086";"1";"0";"1";"30";"29";"module.training_block1.exec-8506.GoNoGo1";;;;;;;;;;;;;;;;;;;;;;;"1258";"2014-10-16 13:39:36.471";"NST_correctLoc";"33";"0";"FINISHED";"LEFT";"success";"313";"0";"2014-10-16 13:39:35.208";"3";;;;;;;;;;;;;;;;;;;;;;;;;;;;;;;;;;;;;;;;;;;;;;;;;;;;;;;;;
"1318923";;;"Windows 7";"Rachel's Experiment (D.T.)";"1.0";"2";"1";"1";"2";"1";"1";"2014-10-16 13:37:13.638";"2014-10-16 13:50:17.086";"1";"0";"1";"31";"30";"module.training_block1.exec-8506.GoNoGo1";;;;;;;;;;;;;;;;;;;;;;;"1258";"2014-10-16 13:39:39.014";"NST_correctLoc";"1";"1";"FINISHED";"RIGHT";"success";"411";"0";"2014-10-16 13:39:37.751";"1";;;;;;;;;;;;;;;;;;;;;;;;;;;;;;;;;;;;;;;;;;;;;;;;;;;;;;;;;
"1318923";;;"Windows 7";"Rachel's Experiment (D.T.)";"1.0";"2";"1";"1";"2";"1";"1";"2014-10-16 13:37:13.638";"2014-10-16 13:50:17.086";"1";"0";"1";"32";"31";"module.training_block1.exec-8506.GoNoGo1";;;;;;;;;;;;;;;;;;;;;;;"1258";"2014-10-16 13:39:41.557";"NST_correctLoc";"3";"0";"FINISHED";"LEFT";"success";"276";"0";"2014-10-16 13:39:40.293";"1";;;;;;;;;;;;;;;;;;;;;;;;;;;;;;;;;;;;;;;;;;;;;;;;;;;;;;;;;
"1318923";;;"Windows 7";"Rachel's Experiment (D.T.)";"1.0";"2";"1";"1";"2";"1";"1";"2014-10-16 13:37:13.638";"2014-10-16 13:50:17.086";"1";"0";"1";"33";"32";"module.training_block1.exec-8506.GoNoGo1";;;;;;;;;;;;;;;;;;;;;;;"1258";"2014-10-16 13:39:44.100";"NST_correctLoc";"16";"0";"FINISHED";"LEFT";"success";"373";"0";"2014-10-16 13:39:42.836";"2";;;;;;;;;;;;;;;;;;;;;;;;;;;;;;;;;;;;;;;;;;;;;;;;;;;;;;;;;
"1318923";;;"Windows 7";"Rachel's Experiment (D.T.)";"1.0";"2";"1";"1";"2";"1";"1";"2014-10-16 13:37:13.638";"2014-10-16 13:50:17.086";"1";"0";"1";"34";"33";"module.training_block1.exec-8506.GoNoGo1";;;;;;;;;;;;;;;;;;;;;;;"1257";"2014-10-16 13:39:46.643";"NST_correctLoc";"6";"1";"FINISHED";"RIGHT";"success";"358";"0";"2014-10-16 13:39:45.379";"1";;;;;;;;;;;;;;;;;;;;;;;;;;;;;;;;;;;;;;;;;;;;;;;;;;;;;;;;;
"1318923";;;"Windows 7";"Rachel's Experiment (D.T.)";"1.0";"2";"1";"1";"2";"1";"1";"2014-10-16 13:37:13.638";"2014-10-16 13:50:17.086";"1";"0";"1";"35";"34";"module.training_block1.exec-8506.GoNoGo1";;;;;;;;;;;;;;;;;;;;;;;"1258";"2014-10-16 13:39:49.185";"NST_correctLoc";"20";"1";"FINISHED";"RIGHT";"success";"359";"0";"2014-10-16 13:39:47.922";"3";;;;;;;;;;;;;;;;;;;;;;;;;;;;;;;;;;;;;;;;;;;;;;;;;;;;;;;;;
"1318923";;;"Windows 7";"Rachel's Experiment (D.T.)";"1.0";"2";"1";"1";"2";"1";"1";"2014-10-16 13:37:13.638";"2014-10-16 13:50:17.086";"1";"0";"1";"36";"35";"module.training_block1.exec-8506.GoNoGo1";;;;;;;;;;;;;;;;;;;;;;;"1257";"2014-10-16 13:39:51.728";"NST_correctLoc";"7";"1";"FINISHED";"RIGHT";"success";"416";"0";"2014-10-16 13:39:50.465";"1";;;;;;;;;;;;;;;;;;;;;;;;;;;;;;;;;;;;;;;;;;;;;;;;;;;;;;;;;
"1318923";;;"Windows 7";"Rachel's Experiment (D.T.)";"1.0";"2";"1";"1";"2";"1";"1";"2014-10-16 13:37:13.638";"2014-10-16 13:50:17.086";"1";"0";"1";"37";"36";"module.training_block1.exec-8506.GoNoGo1";;;;;;;;;;;;;;;;;;;;;;;"1257";"2014-10-16 13:39:54.271";"NST_correctLoc";"32";"0";"FINISHED";"LEFT";"success";"313";"0";"2014-10-16 13:39:53.007";"3";;;;;;;;;;;;;;;;;;;;;;;;;;;;;;;;;;;;;;;;;;;;;;;;;;;;;;;;;
"1318923";;;"Windows 7";"Rachel's Experiment (D.T.)";"1.0";"2";"1";"1";"2";"1";"1";"2014-10-16 13:37:13.638";"2014-10-16 13:50:17.086";"1";"0";"1";"38";"37";"module.training_block1.exec-8506.GoNoGo1";;;;;;;;;;;;;;;;;;;;;;;"1257";"2014-10-16 13:39:56.814";"NST_correctLoc";"23";"0";"FINISHED";"LEFT";"success";"362";"0";"2014-10-16 13:39:55.550";"3";;;;;;;;;;;;;;;;;;;;;;;;;;;;;;;;;;;;;;;;;;;;;;;;;;;;;;;;;
"1318923";;;"Windows 7";"Rachel's Experiment (D.T.)";"1.0";"2";"1";"1";"2";"1";"1";"2014-10-16 13:37:13.638";"2014-10-16 13:50:17.086";"1";"0";"1";"39";"38";"module.training_block1.exec-8506.GoNoGo1";;;;;;;;;;;;;;;;;;;;;;;"1257";"2014-10-16 13:39:59.357";"NST_correctLoc";"14";"0";"FINISHED";"LEFT";"success";"524";"0";"2014-10-16 13:39:58.093";"2";;;;;;;;;;;;;;;;;;;;;;;;;;;;;;;;;;;;;;;;;;;;;;;;;;;;;;;;;
"1318923";;;"Windows 7";"Rachel's Experiment (D.T.)";"1.0";"2";"1";"1";"2";"1";"1";"2014-10-16 13:37:13.638";"2014-10-16 13:50:17.086";"1";"0";"1";"40";"39";"module.training_block1.exec-8506.GoNoGo1";;;;;;;;;;;;;;;;;;;;;;;"1257";"2014-10-16 13:40:01.899";"NST_correctLoc";"19";"0";"FINISHED";"LEFT";"success";"325";"0";"2014-10-16 13:40:00.636";"3";;;;;;;;;;;;;;;;;;;;;;;;;;;;;;;;;;;;;;;;;;;;;;;;;;;;;;;;;
"1318923";;;"Windows 7";"Rachel's Experiment (D.T.)";"1.0";"2";"1";"1";"2";"1";"1";"2014-10-16 13:37:13.638";"2014-10-16 13:50:17.086";"1";"0";"1";"41";"40";"module.training_block1.exec-8506.GoNoGo1";;;;;;;;;;;;;;;;;;;;;;;"1257";"2014-10-16 13:40:04.442";"NST_wrongLoc";"2";"1";"FINISHED";"LEFT";"failure";"382";"0";"2014-10-16 13:40:03.179";"1";;;;;;;;;;;;;;;;;;;;;;;;;;;;;;;;;;;;;;;;;;;;;;;;;;;;;;;;;
"1318923";;;"Windows 7";"Rachel's Experiment (D.T.)";"1.0";"2";"1";"1";"2";"1";"1";"2014-10-16 13:37:13.638";"2014-10-16 13:50:17.086";"1";"0";"1";"42";"41";"module.training_block1.exec-8506.GoNoGo1";;;;;;;;;;;;;;;;;;;;;;;"1257";"2014-10-16 13:40:06.985";"NST_correctLoc";"11";"1";"FINISHED";"RIGHT";"success";"351";"0";"2014-10-16 13:40:05.721";"2";;;;;;;;;;;;;;;;;;;;;;;;;;;;;;;;;;;;;;;;;;;;;;;;;;;;;;;;;
"1318923";;;"Windows 7";"Rachel's Experiment (D.T.)";"1.0";"2";"1";"1";"2";"1";"1";"2014-10-16 13:37:13.638";"2014-10-16 13:50:17.086";"1";"0";"1";"43";"42";"module.training_block1.exec-8506.GoNoGo1";;;;;;;;;;;;;;;;;;;;;;;"1257";"2014-10-16 13:40:09.528";"NST_correctLoc";"13";"0";"FINISHED";"LEFT";"success";"304";"0";"2014-10-16 13:40:08.264";"2";;;;;;;;;;;;;;;;;;;;;;;;;;;;;;;;;;;;;;;;;;;;;;;;;;;;;;;;;
"1318923";;;"Windows 7";"Rachel's Experiment (D.T.)";"1.0";"2";"1";"1";"2";"1";"1";"2014-10-16 13:37:13.638";"2014-10-16 13:50:17.086";"1";"0";"1";"44";"43";"module.training_block1.exec-8506.GoNoGo1";;;;;;;;;;;;;;;;;;;;;;;"1253";"2014-10-16 13:40:12.071";"NST_correctLoc";"17";"0";"FINISHED";"LEFT";"success";"581";"0";"2014-10-16 13:40:10.807";"2";;;;;;;;;;;;;;;;;;;;;;;;;;;;;;;;;;;;;;;;;;;;;;;;;;;;;;;;;
"1318923";;;"Windows 7";"Rachel's Experiment (D.T.)";"1.0";"2";"1";"1";"2";"1";"1";"2014-10-16 13:37:13.638";"2014-10-16 13:50:17.086";"1";"0";"1";"45";"44";"module.training_block1.exec-8506.GoNoGo1";;;;;;;;;;;;;;;;;;;;;;;"1258";"2014-10-16 13:40:14.613";"NST_correctLoc";"25";"0";"FINISHED";"LEFT";"success";"483";"0";"2014-10-16 13:40:13.350";"3";;;;;;;;;;;;;;;;;;;;;;;;;;;;;;;;;;;;;;;;;;;;;;;;;;;;;;;;;
"1318923";;;"Windows 7";"Rachel's Experiment (D.T.)";"1.0";"2";"1";"1";"2";"1";"1";"2014-10-16 13:37:13.638";"2014-10-16 13:50:17.086";"1";"0";"1";"46";"45";"module.training_block1.exec-8506.GoNoGo1";;;;;;;;;;;;;;;;;;;;;;;"1258";"2014-10-16 13:40:17.156";"NST_correctLoc";"22";"1";"FINISHED";"RIGHT";"success";"324";"0";"2014-10-16 13:40:15.893";"3";;;;;;;;;;;;;;;;;;;;;;;;;;;;;;;;;;;;;;;;;;;;;;;;;;;;;;;;;
"1318923";;;"Windows 7";"Rachel's Experiment (D.T.)";"1.0";"2";"1";"1";"2";"1";"1";"2014-10-16 13:37:13.638";"2014-10-16 13:50:17.086";"1";"0";"1";"47";"46";"module.training_block1.exec-8506.GoNoGo1";;;;;;;;;;;;;;;;;;;;;;;"1258";"2014-10-16 13:40:19.699";"NST_correctLoc";"28";"0";"FINISHED";"LEFT";"success";"277";"0";"2014-10-16 13:40:18.435";"3";;;;;;;;;;;;;;;;;;;;;;;;;;;;;;;;;;;;;;;;;;;;;;;;;;;;;;;;;
"1318923";;;"Windows 7";"Rachel's Experiment (D.T.)";"1.0";"2";"1";"1";"2";"1";"1";"2014-10-16 13:37:13.638";"2014-10-16 13:50:17.086";"1";"0";"1";"48";"47";"module.training_block1.exec-8506.GoNoGo1";;;;;;;;;;;;;;;;;;;;;;;"1258";"2014-10-16 13:40:22.242";"NST_correctLoc";"5";"1";"FINISHED";"RIGHT";"success";"343";"0";"2014-10-16 13:40:20.978";"1";;;;;;;;;;;;;;;;;;;;;;;;;;;;;;;;;;;;;;;;;;;;;;;;;;;;;;;;;
"1318923";;;"Windows 7";"Rachel's Experiment (D.T.)";"1.0";"2";"1";"1";"2";"1";"1";"2014-10-16 13:37:13.638";"2014-10-16 13:50:17.086";"1";"0";"1";"49";"48";"module.training_block1.exec-8506.GoNoGo1";;;;;;;;;;;;;;;;;;;;;;;"1257";"2014-10-16 13:40:24.785";"NST_correctLoc";"15";"1";"FINISHED";"RIGHT";"success";"375";"0";"2014-10-16 13:40:23.521";"2";;;;;;;;;;;;;;;;;;;;;;;;;;;;;;;;;;;;;;;;;;;;;;;;;;;;;;;;;
"1318923";;;"Windows 7";"Rachel's Experiment (D.T.)";"1.0";"2";"1";"1";"2";"1";"1";"2014-10-16 13:37:13.638";"2014-10-16 13:50:17.086";"1";"0";"1";"50";"49";"module.training_block1.exec-8506.GoNoGo1";;;;;;;;;;;;;;;;;;;;;;;"1257";"2014-10-16 13:40:27.327";"NST_correctLoc";"24";"0";"FINISHED";"LEFT";"success";"336";"0";"2014-10-16 13:40:26.064";"3";;;;;;;;;;;;;;;;;;;;;;;;;;;;;;;;;;;;;;;;;;;;;;;;;;;;;;;;;
"1318923";;;"Windows 7";"Rachel's Experiment (D.T.)";"1.0";"2";"1";"1";"2";"1";"1";"2014-10-16 13:37:13.638";"2014-10-16 13:50:17.086";"1";"0";"1";"51";"50";"module.training_block1.exec-8506.GoNoGo1";;;;;;;;;;;;;;;;;;;;;;;"1257";"2014-10-16 13:40:29.901";"NST_correctLoc";"0";"0";"FINISHED";"LEFT";"success";"347";"0";"2014-10-16 13:40:28.638";"1";;;;;;;;;;;;;;;;;;;;;;;;;;;;;;;;;;;;;;;;;;;;;;;;;;;;;;;;;
"1318923";;;"Windows 7";"Rachel's Experiment (D.T.)";"1.0";"2";"1";"1";"2";"1";"1";"2014-10-16 13:37:13.638";"2014-10-16 13:50:17.086";"1";"0";"1";"52";"51";"module.training_block2.exec-8277.GoNoGo2";;;;;;;;;;;;;;;;;;;;;;;;;;;;;;;;;;;"1261";"2014-10-16 13:40:41.055";"NST_correctLoc";"17";"1";"FINISHED";"RIGHT";"success";"292";"0";"2014-10-16 13:40:39.792";"2";;;;;;;;;;;;;;;;;;;;;;;;;;;;;;;;;;;;;;;;;;;;;
"1318923";;;"Windows 7";"Rachel's Experiment (D.T.)";"1.0";"2";"1";"1";"2";"1";"1";"2014-10-16 13:37:13.638";"2014-10-16 13:50:17.086";"1";"0";"1";"53";"52";"module.training_block2.exec-8277.GoNoGo2";;;;;;;;;;;;;;;;;;;;;;;;;;;;;;;;;;;"1261";"2014-10-16 13:40:43.598";"NST_correctLoc";"31";"1";"FINISHED";"RIGHT";"success";"373";"0";"2014-10-16 13:40:42.335";"3";;;;;;;;;;;;;;;;;;;;;;;;;;;;;;;;;;;;;;;;;;;;;
"1318923";;;"Windows 7";"Rachel's Experiment (D.T.)";"1.0";"2";"1";"1";"2";"1";"1";"2014-10-16 13:37:13.638";"2014-10-16 13:50:17.086";"1";"0";"1";"54";"53";"module.training_block2.exec-8277.GoNoGo2";;;;;;;;;;;;;;;;;;;;;;;;;;;;;;;;;;;"1261";"2014-10-16 13:40:46.141";"NST_correctLoc";"30";"0";"FINISHED";"LEFT";"success";"359";"0";"2014-10-16 13:40:44.877";"3";;;;;;;;;;;;;;;;;;;;;;;;;;;;;;;;;;;;;;;;;;;;;
"1318923";;;"Windows 7";"Rachel's Experiment (D.T.)";"1.0";"2";"1";"1";"2";"1";"1";"2014-10-16 13:37:13.638";"2014-10-16 13:50:17.086";"1";"0";"1";"55";"54";"module.training_block2.exec-8277.GoNoGo2";;;;;;;;;;;;;;;;;;;;;;;;;;;;;;;;;;;"1261";"2014-10-16 13:40:48.684";"NST_correctLoc";"7";"0";"FINISHED";"LEFT";"success";"360";"0";"2014-10-16 13:40:47.420";"1";;;;;;;;;;;;;;;;;;;;;;;;;;;;;;;;;;;;;;;;;;;;;
"1318923";;;"Windows 7";"Rachel's Experiment (D.T.)";"1.0";"2";"1";"1";"2";"1";"1";"2014-10-16 13:37:13.638";"2014-10-16 13:50:17.086";"1";"0";"1";"56";"55";"module.training_block2.exec-8277.GoNoGo2";;;;;;;;;;;;;;;;;;;;;;;;;;;;;;;;;;;"1261";"2014-10-16 13:40:51.227";"NST_correctLoc";"9";"0";"FINISHED";"LEFT";"success";"673";"0";"2014-10-16 13:40:49.963";"2";;;;;;;;;;;;;;;;;;;;;;;;;;;;;;;;;;;;;;;;;;;;;
"1318923";;;"Windows 7";"Rachel's Experiment (D.T.)";"1.0";"2";"1";"1";"2";"1";"1";"2014-10-16 13:37:13.638";"2014-10-16 13:50:17.086";"1";"0";"1";"57";"56";"module.training_block2.exec-8277.GoNoGo2";;;;;;;;;;;;;;;;;;;;;;;;;;;;;;;;;;;"1261";"2014-10-16 13:40:53.769";"NST_correctLoc";"28";"1";"FINISHED";"RIGHT";"success";"266";"0";"2014-10-16 13:40:52.506";"3";;;;;;;;;;;;;;;;;;;;;;;;;;;;;;;;;;;;;;;;;;;;;
"1318923";;;"Windows 7";"Rachel's Experiment (D.T.)";"1.0";"2";"1";"1";"2";"1";"1";"2014-10-16 13:37:13.638";"2014-10-16 13:50:17.086";"1";"0";"1";"58";"57";"module.training_block2.exec-8277.GoNoGo2";;;;;;;;;;;;;;;;;;;;;;;;;;;;;;;;;;;"1261";"2014-10-16 13:40:56.312";"NST_correctLoc";"21";"0";"FINISHED";"LEFT";"success";"347";"0";"2014-10-16 13:40:55.049";"3";;;;;;;;;;;;;;;;;;;;;;;;;;;;;;;;;;;;;;;;;;;;;
"1318923";;;"Windows 7";"Rachel's Experiment (D.T.)";"1.0";"2";"1";"1";"2";"1";"1";"2014-10-16 13:37:13.638";"2014-10-16 13:50:17.086";"1";"0";"1";"59";"58";"module.training_block2.exec-8277.GoNoGo2";;;;;;;;;;;;;;;;;;;;;;;;;;;;;;;;;;;"1261";"2014-10-16 13:40:58.855";"NST_correctLoc";"24";"1";"FINISHED";"RIGHT";"success";"413";"0";"2014-10-16 13:40:57.591";"3";;;;;;;;;;;;;;;;;;;;;;;;;;;;;;;;;;;;;;;;;;;;;
"1318923";;;"Windows 7";"Rachel's Experiment (D.T.)";"1.0";"2";"1";"1";"2";"1";"1";"2014-10-16 13:37:13.638";"2014-10-16 13:50:17.086";"1";"0";"1";"60";"59";"module.training_block2.exec-8277.GoNoGo2";;;;;;;;;;;;;;;;;;;;;;;;;;;;;;;;;;;"1261";"2014-10-16 13:41:01.398";"NST_miss";"26";"1";"FINISHED";"NONE";"failure";"0";"0";"2014-10-16 13:41:00.134";"3";;;;;;;;;;;;;;;;;;;;;;;;;;;;;;;;;;;;;;;;;;;;;
"1318923";;;"Windows 7";"Rachel's Experiment (D.T.)";"1.0";"2";"1";"1";"2";"1";"1";"2014-10-16 13:37:13.638";"2014-10-16 13:50:17.086";"1";"0";"1";"61";"60";"module.training_block2.exec-8277.GoNoGo2";;;;;;;;;;;;;;;;;;;;;;;;;;;;;;;;;;;"1261";"2014-10-16 13:41:03.941";"NST_correctLoc";"8";"0";"FINISHED";"LEFT";"success";"319";"0";"2014-10-16 13:41:02.677";"1";;;;;;;;;;;;;;;;;;;;;;;;;;;;;;;;;;;;;;;;;;;;;
"1318923";;;"Windows 7";"Rachel's Experiment (D.T.)";"1.0";"2";"1";"1";"2";"1";"1";"2014-10-16 13:37:13.638";"2014-10-16 13:50:17.086";"1";"0";"1";"62";"61";"module.training_block2.exec-8277.GoNoGo2";;;;;;;;;;;;;;;;;;;;;;;;;;;;;;;;;;;"1261";"2014-10-16 13:41:06.484";"NST_correctLoc";"33";"1";"FINISHED";"RIGHT";"success";"336";"0";"2014-10-16 13:41:05.220";"3";;;;;;;;;;;;;;;;;;;;;;;;;;;;;;;;;;;;;;;;;;;;;
"1318923";;;"Windows 7";"Rachel's Experiment (D.T.)";"1.0";"2";"1";"1";"2";"1";"1";"2014-10-16 13:37:13.638";"2014-10-16 13:50:17.086";"1";"0";"1";"63";"62";"module.training_block2.exec-8277.GoNoGo2";;;;;;;;;;;;;;;;;;;;;;;;;;;;;;;;;;;"1261";"2014-10-16 13:41:09.026";"NST_correctLoc";"16";"1";"FINISHED";"RIGHT";"success";"361";"0";"2014-10-16 13:41:07.763";"2";;;;;;;;;;;;;;;;;;;;;;;;;;;;;;;;;;;;;;;;;;;;;
"1318923";;;"Windows 7";"Rachel's Experiment (D.T.)";"1.0";"2";"1";"1";"2";"1";"1";"2014-10-16 13:37:13.638";"2014-10-16 13:50:17.086";"1";"0";"1";"64";"63";"module.training_block2.exec-8277.GoNoGo2";;;;;;;;;;;;;;;;;;;;;;;;;;;;;;;;;;;"1261";"2014-10-16 13:41:11.600";"NST_correctLoc";"3";"1";"FINISHED";"RIGHT";"success";"491";"0";"2014-10-16 13:41:10.337";"1";;;;;;;;;;;;;;;;;;;;;;;;;;;;;;;;;;;;;;;;;;;;;
"1318923";;;"Windows 7";"Rachel's Experiment (D.T.)";"1.0";"2";"1";"1";"2";"1";"1";"2014-10-16 13:37:13.638";"2014-10-16 13:50:17.086";"1";"0";"1";"65";"64";"module.training_block2.exec-8277.GoNoGo2";;;;;;;;;;;;;;;;;;;;;;;;;;;;;;;;;;;"1261";"2014-10-16 13:41:14.159";"NST_wrongLoc";"14";"0";"FINISHED";"RIGHT";"failure";"525";"0";"2014-10-16 13:41:12.895";"2";;;;;;;;;;;;;;;;;;;;;;;;;;;;;;;;;;;;;;;;;;;;;
"1318923";;;"Windows 7";"Rachel's Experiment (D.T.)";"1.0";"2";"1";"1";"2";"1";"1";"2014-10-16 13:37:13.638";"2014-10-16 13:50:17.086";"1";"0";"1";"66";"65";"module.training_block2.exec-8277.GoNoGo2";;;;;;;;;;;;;;;;;;;;;;;;;;;;;;;;;;;"1261";"2014-10-16 13:41:16.702";"NST_correctLoc";"20";"0";"FINISHED";"LEFT";"success";"350";"0";"2014-10-16 13:41:15.438";"3";;;;;;;;;;;;;;;;;;;;;;;;;;;;;;;;;;;;;;;;;;;;;
"1318923";;;"Windows 7";"Rachel's Experiment (D.T.)";"1.0";"2";"1";"1";"2";"1";"1";"2014-10-16 13:37:13.638";"2014-10-16 13:50:17.086";"1";"0";"1";"67";"66";"module.training_block2.exec-8277.GoNoGo2";;;;;;;;;;;;;;;;;;;;;;;;;;;;;;;;;;;"1261";"2014-10-16 13:41:19.244";"NST_correctLoc";"4";"0";"FINISHED";"LEFT";"success";"351";"0";"2014-10-16 13:41:17.981";"1";;;;;;;;;;;;;;;;;;;;;;;;;;;;;;;;;;;;;;;;;;;;;
"1318923";;;"Windows 7";"Rachel's Experiment (D.T.)";"1.0";"2";"1";"1";"2";"1";"1";"2014-10-16 13:37:13.638";"2014-10-16 13:50:17.086";"1";"0";"1";"68";"67";"module.training_block2.exec-8277.GoNoGo2";;;;;;;;;;;;;;;;;;;;;;;;;;;;;;;;;;;"1261";"2014-10-16 13:41:21.787";"NST_correctLoc";"5";"0";"FINISHED";"LEFT";"success";"392";"0";"2014-10-16 13:41:20.524";"1";;;;;;;;;;;;;;;;;;;;;;;;;;;;;;;;;;;;;;;;;;;;;
"1318923";;;"Windows 7";"Rachel's Experiment (D.T.)";"1.0";"2";"1";"1";"2";"1";"1";"2014-10-16 13:37:13.638";"2014-10-16 13:50:17.086";"1";"0";"1";"69";"68";"module.training_block2.exec-8277.GoNoGo2";;;;;;;;;;;;;;;;;;;;;;;;;;;;;;;;;;;"1261";"2014-10-16 13:41:24.330";"NST_correctLoc";"13";"0";"FINISHED";"LEFT";"success";"449";"0";"2014-10-16 13:41:23.066";"2";;;;;;;;;;;;;;;;;;;;;;;;;;;;;;;;;;;;;;;;;;;;;
"1318923";;;"Windows 7";"Rachel's Experiment (D.T.)";"1.0";"2";"1";"1";"2";"1";"1";"2014-10-16 13:37:13.638";"2014-10-16 13:50:17.086";"1";"0";"1";"70";"69";"module.training_block2.exec-8277.GoNoGo2";;;;;;;;;;;;;;;;;;;;;;;;;;;;;;;;;;;"1261";"2014-10-16 13:41:26.873";"NST_correctLoc";"29";"1";"FINISHED";"RIGHT";"success";"371";"0";"2014-10-16 13:41:25.609";"3";;;;;;;;;;;;;;;;;;;;;;;;;;;;;;;;;;;;;;;;;;;;;
"1318923";;;"Windows 7";"Rachel's Experiment (D.T.)";"1.0";"2";"1";"1";"2";"1";"1";"2014-10-16 13:37:13.638";"2014-10-16 13:50:17.086";"1";"0";"1";"71";"70";"module.training_block2.exec-8277.GoNoGo2";;;;;;;;;;;;;;;;;;;;;;;;;;;;;;;;;;;"1261";"2014-10-16 13:41:29.416";"NST_correctLoc";"18";"0";"FINISHED";"LEFT";"success";"452";"0";"2014-10-16 13:41:28.152";"3";;;;;;;;;;;;;;;;;;;;;;;;;;;;;;;;;;;;;;;;;;;;;
"1318923";;;"Windows 7";"Rachel's Experiment (D.T.)";"1.0";"2";"1";"1";"2";"1";"1";"2014-10-16 13:37:13.638";"2014-10-16 13:50:17.086";"1";"0";"1";"72";"71";"module.training_block2.exec-8277.GoNoGo2";;;;;;;;;;;;;;;;;;;;;;;;;;;;;;;;;;;"1261";"2014-10-16 13:41:31.958";"NST_correctLoc";"19";"1";"FINISHED";"RIGHT";"success";"445";"0";"2014-10-16 13:41:30.695";"3";;;;;;;;;;;;;;;;;;;;;;;;;;;;;;;;;;;;;;;;;;;;;
"1318923";;;"Windows 7";"Rachel's Experiment (D.T.)";"1.0";"2";"1";"1";"2";"1";"1";"2014-10-16 13:37:13.638";"2014-10-16 13:50:17.086";"1";"0";"1";"73";"72";"module.training_block2.exec-8277.GoNoGo2";;;;;;;;;;;;;;;;;;;;;;;;;;;;;;;;;;;"1261";"2014-10-16 13:41:34.501";"NST_correctLoc";"0";"0";"FINISHED";"LEFT";"success";"430";"0";"2014-10-16 13:41:33.238";"1";;;;;;;;;;;;;;;;;;;;;;;;;;;;;;;;;;;;;;;;;;;;;
"1318923";;;"Windows 7";"Rachel's Experiment (D.T.)";"1.0";"2";"1";"1";"2";"1";"1";"2014-10-16 13:37:13.638";"2014-10-16 13:50:17.086";"1";"0";"1";"74";"73";"module.training_block2.exec-8277.GoNoGo2";;;;;;;;;;;;;;;;;;;;;;;;;;;;;;;;;;;"1261";"2014-10-16 13:41:37.060";"NST_correctLoc";"1";"0";"FINISHED";"LEFT";"success";"368";"0";"2014-10-16 13:41:35.796";"1";;;;;;;;;;;;;;;;;;;;;;;;;;;;;;;;;;;;;;;;;;;;;
"1318923";;;"Windows 7";"Rachel's Experiment (D.T.)";"1.0";"2";"1";"1";"2";"1";"1";"2014-10-16 13:37:13.638";"2014-10-16 13:50:17.086";"1";"0";"1";"75";"74";"module.training_block2.exec-8277.GoNoGo2";;;;;;;;;;;;;;;;;;;;;;;;;;;;;;;;;;;"1261";"2014-10-16 13:41:39.602";"NST_correctLoc";"10";"0";"FINISHED";"LEFT";"success";"641";"0";"2014-10-16 13:41:38.339";"2";;;;;;;;;;;;;;;;;;;;;;;;;;;;;;;;;;;;;;;;;;;;;
"1318923";;;"Windows 7";"Rachel's Experiment (D.T.)";"1.0";"2";"1";"1";"2";"1";"1";"2014-10-16 13:37:13.638";"2014-10-16 13:50:17.086";"1";"0";"1";"76";"75";"module.training_block2.exec-8277.GoNoGo2";;;;;;;;;;;;;;;;;;;;;;;;;;;;;;;;;;;"1261";"2014-10-16 13:41:42.145";"NST_correctLoc";"25";"1";"FINISHED";"RIGHT";"success";"794";"0";"2014-10-16 13:41:40.882";"3";;;;;;;;;;;;;;;;;;;;;;;;;;;;;;;;;;;;;;;;;;;;;
"1318923";;;"Windows 7";"Rachel's Experiment (D.T.)";"1.0";"2";"1";"1";"2";"1";"1";"2014-10-16 13:37:13.638";"2014-10-16 13:50:17.086";"1";"0";"1";"77";"76";"module.training_block2.exec-8277.GoNoGo2";;;;;;;;;;;;;;;;;;;;;;;;;;;;;;;;;;;"1261";"2014-10-16 13:41:44.688";"NST_correctLoc";"34";"1";"FINISHED";"RIGHT";"success";"771";"0";"2014-10-16 13:41:43.424";"3";;;;;;;;;;;;;;;;;;;;;;;;;;;;;;;;;;;;;;;;;;;;;
"1318923";;;"Windows 7";"Rachel's Experiment (D.T.)";"1.0";"2";"1";"1";"2";"1";"1";"2014-10-16 13:37:13.638";"2014-10-16 13:50:17.086";"1";"0";"1";"78";"77";"module.training_block2.exec-8277.GoNoGo2";;;;;;;;;;;;;;;;;;;;;;;;;;;;;;;;;;;"1261";"2014-10-16 13:41:47.231";"NST_correctLoc";"12";"1";"FINISHED";"RIGHT";"success";"461";"0";"2014-10-16 13:41:45.967";"2";;;;;;;;;;;;;;;;;;;;;;;;;;;;;;;;;;;;;;;;;;;;;
"1318923";;;"Windows 7";"Rachel's Experiment (D.T.)";"1.0";"2";"1";"1";"2";"1";"1";"2014-10-16 13:37:13.638";"2014-10-16 13:50:17.086";"1";"0";"1";"79";"78";"module.training_block2.exec-8277.GoNoGo2";;;;;;;;;;;;;;;;;;;;;;;;;;;;;;;;;;;"1261";"2014-10-16 13:41:49.774";"NST_correctLoc";"6";"1";"FINISHED";"RIGHT";"success";"350";"0";"2014-10-16 13:41:48.510";"1";;;;;;;;;;;;;;;;;;;;;;;;;;;;;;;;;;;;;;;;;;;;;
"1318923";;;"Windows 7";"Rachel's Experiment (D.T.)";"1.0";"2";"1";"1";"2";"1";"1";"2014-10-16 13:37:13.638";"2014-10-16 13:50:17.086";"1";"0";"1";"80";"79";"module.training_block2.exec-8277.GoNoGo2";;;;;;;;;;;;;;;;;;;;;;;;;;;;;;;;;;;"1261";"2014-10-16 13:41:52.316";"NST_correctLoc";"2";"0";"FINISHED";"LEFT";"success";"519";"0";"2014-10-16 13:41:51.053";"1";;;;;;;;;;;;;;;;;;;;;;;;;;;;;;;;;;;;;;;;;;;;;
"1318923";;;"Windows 7";"Rachel's Experiment (D.T.)";"1.0";"2";"1";"1";"2";"1";"1";"2014-10-16 13:37:13.638";"2014-10-16 13:50:17.086";"1";"0";"1";"81";"80";"module.training_block2.exec-8277.GoNoGo2";;;;;;;;;;;;;;;;;;;;;;;;;;;;;;;;;;;"1261";"2014-10-16 13:41:54.859";"NST_correctLoc";"15";"1";"FINISHED";"RIGHT";"success";"464";"0";"2014-10-16 13:41:53.596";"2";;;;;;;;;;;;;;;;;;;;;;;;;;;;;;;;;;;;;;;;;;;;;
"1318923";;;"Windows 7";"Rachel's Experiment (D.T.)";"1.0";"2";"1";"1";"2";"1";"1";"2014-10-16 13:37:13.638";"2014-10-16 13:50:17.086";"1";"0";"1";"82";"81";"module.training_block2.exec-8277.GoNoGo2";;;;;;;;;;;;;;;;;;;;;;;;;;;;;;;;;;;"1261";"2014-10-16 13:41:57.402";"NST_correctLoc";"11";"0";"FINISHED";"LEFT";"success";"353";"0";"2014-10-16 13:41:56.138";"2";;;;;;;;;;;;;;;;;;;;;;;;;;;;;;;;;;;;;;;;;;;;;
"1318923";;;"Windows 7";"Rachel's Experiment (D.T.)";"1.0";"2";"1";"1";"2";"1";"1";"2014-10-16 13:37:13.638";"2014-10-16 13:50:17.086";"1";"0";"1";"83";"82";"module.training_block2.exec-8277.GoNoGo2";;;;;;;;;;;;;;;;;;;;;;;;;;;;;;;;;;;"1261";"2014-10-16 13:41:59.960";"NST_correctLoc";"32";"1";"FINISHED";"RIGHT";"success";"299";"0";"2014-10-16 13:41:58.697";"3";;;;;;;;;;;;;;;;;;;;;;;;;;;;;;;;;;;;;;;;;;;;;
"1318923";;;"Windows 7";"Rachel's Experiment (D.T.)";"1.0";"2";"1";"1";"2";"1";"1";"2014-10-16 13:37:13.638";"2014-10-16 13:50:17.086";"1";"0";"1";"84";"83";"module.training_block2.exec-8277.GoNoGo2";;;;;;;;;;;;;;;;;;;;;;;;;;;;;;;;;;;"1261";"2014-10-16 13:42:02.503";"NST_miss";"22";"0";"FINISHED";"NONE";"failure";"0";"0";"2014-10-16 13:42:01.240";"3";;;;;;;;;;;;;;;;;;;;;;;;;;;;;;;;;;;;;;;;;;;;;
"1318923";;;"Windows 7";"Rachel's Experiment (D.T.)";"1.0";"2";"1";"1";"2";"1";"1";"2014-10-16 13:37:13.638";"2014-10-16 13:50:17.086";"1";"0";"1";"85";"84";"module.training_block2.exec-8277.GoNoGo2";;;;;;;;;;;;;;;;;;;;;;;;;;;;;;;;;;;"1262";"2014-10-16 13:42:05.046";"NST_correctLoc";"27";"0";"FINISHED";"LEFT";"success";"349";"0";"2014-10-16 13:42:03.782";"3";;;;;;;;;;;;;;;;;;;;;;;;;;;;;;;;;;;;;;;;;;;;;
"1318923";;;"Windows 7";"Rachel's Experiment (D.T.)";"1.0";"2";"1";"1";"2";"1";"1";"2014-10-16 13:37:13.638";"2014-10-16 13:50:17.086";"1";"0";"1";"86";"85";"module.training_block2.exec-8277.GoNoGo2";;;;;;;;;;;;;;;;;;;;;;;;;;;;;;;;;;;"1261";"2014-10-16 13:42:07.589";"NST_correctLoc";"35";"1";"FINISHED";"RIGHT";"success";"271";"0";"2014-10-16 13:42:06.325";"3";;;;;;;;;;;;;;;;;;;;;;;;;;;;;;;;;;;;;;;;;;;;;
"1318923";;;"Windows 7";"Rachel's Experiment (D.T.)";"1.0";"2";"1";"1";"2";"1";"1";"2014-10-16 13:37:13.638";"2014-10-16 13:50:17.086";"1";"0";"1";"87";"86";"module.training_block2.exec-8277.GoNoGo2";;;;;;;;;;;;;;;;;;;;;;;;;;;;;;;;;;;"1261";"2014-10-16 13:42:10.132";"NST_correctLoc";"23";"0";"FINISHED";"LEFT";"success";"328";"0";"2014-10-16 13:42:08.868";"3";;;;;;;;;;;;;;;;;;;;;;;;;;;;;;;;;;;;;;;;;;;;;
"1318923";;;"Windows 7";"Rachel's Experiment (D.T.)";"1.0";"2";"1";"1";"2";"1";"1";"2014-10-16 13:37:13.638";"2014-10-16 13:50:17.086";"1";"0";"1";"88";"87";"module.training_block3.exec-2475.GoNoGo3";;;;;;;;;;;;;;;;;;;;;;;;;;;;;;;;;;;;;;;;;;;;;;;"1261";"2014-10-16 13:42:20.864";"NST_correctLoc";"35";"1";"FINISHED";"RIGHT";"success";"371";"0";"2014-10-16 13:42:19.601";"3";;;;;;;;;;;;;;;;;;;;;;;;;;;;;;;;;
"1318923";;;"Windows 7";"Rachel's Experiment (D.T.)";"1.0";"2";"1";"1";"2";"1";"1";"2014-10-16 13:37:13.638";"2014-10-16 13:50:17.086";"1";"0";"1";"89";"88";"module.training_block3.exec-2475.GoNoGo3";;;;;;;;;;;;;;;;;;;;;;;;;;;;;;;;;;;;;;;;;;;;;;;"1261";"2014-10-16 13:42:23.407";"NST_correctLoc";"8";"1";"FINISHED";"RIGHT";"success";"388";"0";"2014-10-16 13:42:22.144";"1";;;;;;;;;;;;;;;;;;;;;;;;;;;;;;;;;
"1318923";;;"Windows 7";"Rachel's Experiment (D.T.)";"1.0";"2";"1";"1";"2";"1";"1";"2014-10-16 13:37:13.638";"2014-10-16 13:50:17.086";"1";"0";"1";"90";"89";"module.training_block3.exec-2475.GoNoGo3";;;;;;;;;;;;;;;;;;;;;;;;;;;;;;;;;;;;;;;;;;;;;;;"1261";"2014-10-16 13:42:25.950";"NST_correctLoc";"19";"0";"FINISHED";"LEFT";"success";"405";"0";"2014-10-16 13:42:24.686";"3";;;;;;;;;;;;;;;;;;;;;;;;;;;;;;;;;
"1318923";;;"Windows 7";"Rachel's Experiment (D.T.)";"1.0";"2";"1";"1";"2";"1";"1";"2014-10-16 13:37:13.638";"2014-10-16 13:50:17.086";"1";"0";"1";"91";"90";"module.training_block3.exec-2475.GoNoGo3";;;;;;;;;;;;;;;;;;;;;;;;;;;;;;;;;;;;;;;;;;;;;;;"1261";"2014-10-16 13:42:28.493";"NST_correctLoc";"20";"1";"FINISHED";"RIGHT";"success";"454";"0";"2014-10-16 13:42:27.229";"3";;;;;;;;;;;;;;;;;;;;;;;;;;;;;;;;;
"1318923";;;"Windows 7";"Rachel's Experiment (D.T.)";"1.0";"2";"1";"1";"2";"1";"1";"2014-10-16 13:37:13.638";"2014-10-16 13:50:17.086";"1";"0";"1";"92";"91";"module.training_block3.exec-2475.GoNoGo3";;;;;;;;;;;;;;;;;;;;;;;;;;;;;;;;;;;;;;;;;;;;;;;"1261";"2014-10-16 13:42:31.036";"NST_correctLoc";"13";"0";"FINISHED";"LEFT";"success";"319";"0";"2014-10-16 13:42:29.772";"2";;;;;;;;;;;;;;;;;;;;;;;;;;;;;;;;;
"1318923";;;"Windows 7";"Rachel's Experiment (D.T.)";"1.0";"2";"1";"1";"2";"1";"1";"2014-10-16 13:37:13.638";"2014-10-16 13:50:17.086";"1";"0";"1";"93";"92";"module.training_block3.exec-2475.GoNoGo3";;;;;;;;;;;;;;;;;;;;;;;;;;;;;;;;;;;;;;;;;;;;;;;"1261";"2014-10-16 13:42:33.578";"NST_correctLoc";"33";"0";"FINISHED";"LEFT";"success";"369";"0";"2014-10-16 13:42:32.315";"3";;;;;;;;;;;;;;;;;;;;;;;;;;;;;;;;;
"1318923";;;"Windows 7";"Rachel's Experiment (D.T.)";"1.0";"2";"1";"1";"2";"1";"1";"2014-10-16 13:37:13.638";"2014-10-16 13:50:17.086";"1";"0";"1";"94";"93";"module.training_block3.exec-2475.GoNoGo3";;;;;;;;;;;;;;;;;;;;;;;;;;;;;;;;;;;;;;;;;;;;;;;"1261";"2014-10-16 13:42:36.121";"NST_correctLoc";"26";"0";"FINISHED";"LEFT";"success";"354";"0";"2014-10-16 13:42:34.858";"3";;;;;;;;;;;;;;;;;;;;;;;;;;;;;;;;;
"1318923";;;"Windows 7";"Rachel's Experiment (D.T.)";"1.0";"2";"1";"1";"2";"1";"1";"2014-10-16 13:37:13.638";"2014-10-16 13:50:17.086";"1";"0";"1";"95";"94";"module.training_block3.exec-2475.GoNoGo3";;;;;;;;;;;;;;;;;;;;;;;;;;;;;;;;;;;;;;;;;;;;;;;"1261";"2014-10-16 13:42:38.664";"NST_correctLoc";"22";"0";"FINISHED";"LEFT";"success";"363";"0";"2014-10-16 13:42:37.400";"3";;;;;;;;;;;;;;;;;;;;;;;;;;;;;;;;;
"1318923";;;"Windows 7";"Rachel's Experiment (D.T.)";"1.0";"2";"1";"1";"2";"1";"1";"2014-10-16 13:37:13.638";"2014-10-16 13:50:17.086";"1";"0";"1";"96";"95";"module.training_block3.exec-2475.GoNoGo3";;;;;;;;;;;;;;;;;;;;;;;;;;;;;;;;;;;;;;;;;;;;;;;"1261";"2014-10-16 13:42:41.207";"NST_correctLoc";"4";"0";"FINISHED";"LEFT";"success";"340";"0";"2014-10-16 13:42:39.943";"1";;;;;;;;;;;;;;;;;;;;;;;;;;;;;;;;;
"1318923";;;"Windows 7";"Rachel's Experiment (D.T.)";"1.0";"2";"1";"1";"2";"1";"1";"2014-10-16 13:37:13.638";"2014-10-16 13:50:17.086";"1";"0";"1";"97";"96";"module.training_block3.exec-2475.GoNoGo3";;;;;;;;;;;;;;;;;;;;;;;;;;;;;;;;;;;;;;;;;;;;;;;"1261";"2014-10-16 13:42:43.750";"NST_correctLoc";"23";"1";"FINISHED";"RIGHT";"success";"933";"0";"2014-10-16 13:42:42.486";"3";;;;;;;;;;;;;;;;;;;;;;;;;;;;;;;;;
"1318923";;;"Windows 7";"Rachel's Experiment (D.T.)";"1.0";"2";"1";"1";"2";"1";"1";"2014-10-16 13:37:13.638";"2014-10-16 13:50:17.086";"1";"0";"1";"98";"97";"module.training_block3.exec-2475.GoNoGo3";;;;;;;;;;;;;;;;;;;;;;;;;;;;;;;;;;;;;;;;;;;;;;;"1261";"2014-10-16 13:42:46.292";"NST_correctLoc";"16";"0";"FINISHED";"LEFT";"success";"327";"0";"2014-10-16 13:42:45.029";"2";;;;;;;;;;;;;;;;;;;;;;;;;;;;;;;;;
"1318923";;;"Windows 7";"Rachel's Experiment (D.T.)";"1.0";"2";"1";"1";"2";"1";"1";"2014-10-16 13:37:13.638";"2014-10-16 13:50:17.086";"1";"0";"1";"99";"98";"module.training_block3.exec-2475.GoNoGo3";;;;;;;;;;;;;;;;;;;;;;;;;;;;;;;;;;;;;;;;;;;;;;;"1261";"2014-10-16 13:42:48.835";"NST_correctLoc";"31";"0";"FINISHED";"LEFT";"success";"448";"0";"2014-10-16 13:42:47.572";"3";;;;;;;;;;;;;;;;;;;;;;;;;;;;;;;;;
"1318923";;;"Windows 7";"Rachel's Experiment (D.T.)";"1.0";"2";"1";"1";"2";"1";"1";"2014-10-16 13:37:13.638";"2014-10-16 13:50:17.086";"1";"0";"1";"100";"99";"module.training_block3.exec-2475.GoNoGo3";;;;;;;;;;;;;;;;;;;;;;;;;;;;;;;;;;;;;;;;;;;;;;;"1261";"2014-10-16 13:42:51.378";"NST_correctLoc";"0";"0";"FINISHED";"LEFT";"success";"329";"0";"2014-10-16 13:42:50.114";"1";;;;;;;;;;;;;;;;;;;;;;;;;;;;;;;;;
"1318923";;;"Windows 7";"Rachel's Experiment (D.T.)";"1.0";"2";"1";"1";"2";"1";"1";"2014-10-16 13:37:13.638";"2014-10-16 13:50:17.086";"1";"0";"1";"101";"100";"module.training_block3.exec-2475.GoNoGo3";;;;;;;;;;;;;;;;;;;;;;;;;;;;;;;;;;;;;;;;;;;;;;;"1261";"2014-10-16 13:42:53.921";"NST_correctLoc";"27";"0";"FINISHED";"LEFT";"success";"354";"0";"2014-10-16 13:42:52.657";"3";;;;;;;;;;;;;;;;;;;;;;;;;;;;;;;;;
"1318923";;;"Windows 7";"Rachel's Experiment (D.T.)";"1.0";"2";"1";"1";"2";"1";"1";"2014-10-16 13:37:13.638";"2014-10-16 13:50:17.086";"1";"0";"1";"102";"101";"module.training_block3.exec-2475.GoNoGo3";;;;;;;;;;;;;;;;;;;;;;;;;;;;;;;;;;;;;;;;;;;;;;;"1261";"2014-10-16 13:42:56.464";"NST_correctLoc";"18";"0";"FINISHED";"LEFT";"success";"427";"0";"2014-10-16 13:42:55.200";"3";;;;;;;;;;;;;;;;;;;;;;;;;;;;;;;;;
"1318923";;;"Windows 7";"Rachel's Experiment (D.T.)";"1.0";"2";"1";"1";"2";"1";"1";"2014-10-16 13:37:13.638";"2014-10-16 13:50:17.086";"1";"0";"1";"103";"102";"module.training_block3.exec-2475.GoNoGo3";;;;;;;;;;;;;;;;;;;;;;;;;;;;;;;;;;;;;;;;;;;;;;;"1261";"2014-10-16 13:42:59.007";"NST_correctLoc";"9";"1";"FINISHED";"RIGHT";"success";"420";"0";"2014-10-16 13:42:57.743";"2";;;;;;;;;;;;;;;;;;;;;;;;;;;;;;;;;
"1318923";;;"Windows 7";"Rachel's Experiment (D.T.)";"1.0";"2";"1";"1";"2";"1";"1";"2014-10-16 13:37:13.638";"2014-10-16 13:50:17.086";"1";"0";"1";"104";"103";"module.training_block3.exec-2475.GoNoGo3";;;;;;;;;;;;;;;;;;;;;;;;;;;;;;;;;;;;;;;;;;;;;;;"1261";"2014-10-16 13:43:01.549";"NST_correctLoc";"34";"0";"FINISHED";"LEFT";"success";"326";"0";"2014-10-16 13:43:00.286";"3";;;;;;;;;;;;;;;;;;;;;;;;;;;;;;;;;
"1318923";;;"Windows 7";"Rachel's Experiment (D.T.)";"1.0";"2";"1";"1";"2";"1";"1";"2014-10-16 13:37:13.638";"2014-10-16 13:50:17.086";"1";"0";"1";"105";"104";"module.training_block3.exec-2475.GoNoGo3";;;;;;;;;;;;;;;;;;;;;;;;;;;;;;;;;;;;;;;;;;;;;;;"1261";"2014-10-16 13:43:04.092";"NST_correctLoc";"30";"0";"FINISHED";"LEFT";"success";"343";"0";"2014-10-16 13:43:02.829";"3";;;;;;;;;;;;;;;;;;;;;;;;;;;;;;;;;
"1318923";;;"Windows 7";"Rachel's Experiment (D.T.)";"1.0";"2";"1";"1";"2";"1";"1";"2014-10-16 13:37:13.638";"2014-10-16 13:50:17.086";"1";"0";"1";"106";"105";"module.training_block3.exec-2475.GoNoGo3";;;;;;;;;;;;;;;;;;;;;;;;;;;;;;;;;;;;;;;;;;;;;;;"1262";"2014-10-16 13:43:06.635";"NST_correctLoc";"11";"0";"FINISHED";"LEFT";"success";"360";"0";"2014-10-16 13:43:05.371";"2";;;;;;;;;;;;;;;;;;;;;;;;;;;;;;;;;
"1318923";;;"Windows 7";"Rachel's Experiment (D.T.)";"1.0";"2";"1";"1";"2";"1";"1";"2014-10-16 13:37:13.638";"2014-10-16 13:50:17.086";"1";"0";"1";"107";"106";"module.training_block3.exec-2475.GoNoGo3";;;;;;;;;;;;;;;;;;;;;;;;;;;;;;;;;;;;;;;;;;;;;;;"1261";"2014-10-16 13:43:09.178";"NST_correctLoc";"24";"0";"FINISHED";"LEFT";"success";"313";"0";"2014-10-16 13:43:07.914";"3";;;;;;;;;;;;;;;;;;;;;;;;;;;;;;;;;
"1318923";;;"Windows 7";"Rachel's Experiment (D.T.)";"1.0";"2";"1";"1";"2";"1";"1";"2014-10-16 13:37:13.638";"2014-10-16 13:50:17.086";"1";"0";"1";"108";"107";"module.training_block3.exec-2475.GoNoGo3";;;;;;;;;;;;;;;;;;;;;;;;;;;;;;;;;;;;;;;;;;;;;;;"1262";"2014-10-16 13:43:11.721";"NST_correctLoc";"1";"1";"FINISHED";"RIGHT";"success";"362";"0";"2014-10-16 13:43:10.457";"1";;;;;;;;;;;;;;;;;;;;;;;;;;;;;;;;;
"1318923";;;"Windows 7";"Rachel's Experiment (D.T.)";"1.0";"2";"1";"1";"2";"1";"1";"2014-10-16 13:37:13.638";"2014-10-16 13:50:17.086";"1";"0";"1";"109";"108";"module.training_block3.exec-2475.GoNoGo3";;;;;;;;;;;;;;;;;;;;;;;;;;;;;;;;;;;;;;;;;;;;;;;"1261";"2014-10-16 13:43:14.263";"NST_correctLoc";"17";"0";"FINISHED";"LEFT";"success";"571";"0";"2014-10-16 13:43:13.000";"2";;;;;;;;;;;;;;;;;;;;;;;;;;;;;;;;;
"1318923";;;"Windows 7";"Rachel's Experiment (D.T.)";"1.0";"2";"1";"1";"2";"1";"1";"2014-10-16 13:37:13.638";"2014-10-16 13:50:17.086";"1";"0";"1";"110";"109";"module.training_block3.exec-2475.GoNoGo3";;;;;;;;;;;;;;;;;;;;;;;;;;;;;;;;;;;;;;;;;;;;;;;"1261";"2014-10-16 13:43:16.791";"NST_correctLoc";"29";"0";"FINISHED";"LEFT";"success";"340";"0";"2014-10-16 13:43:15.527";"3";;;;;;;;;;;;;;;;;;;;;;;;;;;;;;;;;
"1318923";;;"Windows 7";"Rachel's Experiment (D.T.)";"1.0";"2";"1";"1";"2";"1";"1";"2014-10-16 13:37:13.638";"2014-10-16 13:50:17.086";"1";"0";"1";"111";"110";"module.training_block3.exec-2475.GoNoGo3";;;;;;;;;;;;;;;;;;;;;;;;;;;;;;;;;;;;;;;;;;;;;;;"1261";"2014-10-16 13:43:19.333";"NST_correctLoc";"10";"0";"FINISHED";"LEFT";"success";"318";"0";"2014-10-16 13:43:18.070";"2";;;;;;;;;;;;;;;;;;;;;;;;;;;;;;;;;
"1318923";;;"Windows 7";"Rachel's Experiment (D.T.)";"1.0";"2";"1";"1";"2";"1";"1";"2014-10-16 13:37:13.638";"2014-10-16 13:50:17.086";"1";"0";"1";"112";"111";"module.training_block3.exec-2475.GoNoGo3";;;;;;;;;;;;;;;;;;;;;;;;;;;;;;;;;;;;;;;;;;;;;;;"1261";"2014-10-16 13:43:21.876";"NST_correctLoc";"2";"1";"FINISHED";"RIGHT";"success";"367";"0";"2014-10-16 13:43:20.613";"1";;;;;;;;;;;;;;;;;;;;;;;;;;;;;;;;;
"1318923";;;"Windows 7";"Rachel's Experiment (D.T.)";"1.0";"2";"1";"1";"2";"1";"1";"2014-10-16 13:37:13.638";"2014-10-16 13:50:17.086";"1";"0";"1";"113";"112";"module.training_block3.exec-2475.GoNoGo3";;;;;;;;;;;;;;;;;;;;;;;;;;;;;;;;;;;;;;;;;;;;;;;"1261";"2014-10-16 13:43:24.419";"NST_correctLoc";"25";"1";"FINISHED";"RIGHT";"success";"360";"0";"2014-10-16 13:43:23.155";"3";;;;;;;;;;;;;;;;;;;;;;;;;;;;;;;;;
"1318923";;;"Windows 7";"Rachel's Experiment (D.T.)";"1.0";"2";"1";"1";"2";"1";"1";"2014-10-16 13:37:13.638";"2014-10-16 13:50:17.086";"1";"0";"1";"114";"113";"module.training_block3.exec-2475.GoNoGo3";;;;;;;;;;;;;;;;;;;;;;;;;;;;;;;;;;;;;;;;;;;;;;;"1261";"2014-10-16 13:43:26.962";"NST_correctLoc";"14";"0";"FINISHED";"LEFT";"success";"281";"0";"2014-10-16 13:43:25.698";"2";;;;;;;;;;;;;;;;;;;;;;;;;;;;;;;;;
"1318923";;;"Windows 7";"Rachel's Experiment (D.T.)";"1.0";"2";"1";"1";"2";"1";"1";"2014-10-16 13:37:13.638";"2014-10-16 13:50:17.086";"1";"0";"1";"115";"114";"module.training_block3.exec-2475.GoNoGo3";;;;;;;;;;;;;;;;;;;;;;;;;;;;;;;;;;;;;;;;;;;;;;;"1261";"2014-10-16 13:43:29.489";"NST_correctLoc";"28";"1";"FINISHED";"RIGHT";"success";"394";"0";"2014-10-16 13:43:28.225";"3";;;;;;;;;;;;;;;;;;;;;;;;;;;;;;;;;
"1318923";;;"Windows 7";"Rachel's Experiment (D.T.)";"1.0";"2";"1";"1";"2";"1";"1";"2014-10-16 13:37:13.638";"2014-10-16 13:50:17.086";"1";"0";"1";"116";"115";"module.training_block3.exec-2475.GoNoGo3";;;;;;;;;;;;;;;;;;;;;;;;;;;;;;;;;;;;;;;;;;;;;;;"1261";"2014-10-16 13:43:32.016";"NST_correctLoc";"3";"1";"FINISHED";"RIGHT";"success";"483";"0";"2014-10-16 13:43:30.753";"1";;;;;;;;;;;;;;;;;;;;;;;;;;;;;;;;;
"1318923";;;"Windows 7";"Rachel's Experiment (D.T.)";"1.0";"2";"1";"1";"2";"1";"1";"2014-10-16 13:37:13.638";"2014-10-16 13:50:17.086";"1";"0";"1";"117";"116";"module.training_block3.exec-2475.GoNoGo3";;;;;;;;;;;;;;;;;;;;;;;;;;;;;;;;;;;;;;;;;;;;;;;"1261";"2014-10-16 13:43:34.543";"NST_correctLoc";"21";"0";"FINISHED";"LEFT";"success";"611";"0";"2014-10-16 13:43:33.280";"3";;;;;;;;;;;;;;;;;;;;;;;;;;;;;;;;;
"1318923";;;"Windows 7";"Rachel's Experiment (D.T.)";"1.0";"2";"1";"1";"2";"1";"1";"2014-10-16 13:37:13.638";"2014-10-16 13:50:17.086";"1";"0";"1";"118";"117";"module.training_block3.exec-2475.GoNoGo3";;;;;;;;;;;;;;;;;;;;;;;;;;;;;;;;;;;;;;;;;;;;;;;"1262";"2014-10-16 13:43:37.071";"NST_correctLoc";"7";"1";"FINISHED";"RIGHT";"success";"468";"0";"2014-10-16 13:43:35.807";"1";;;;;;;;;;;;;;;;;;;;;;;;;;;;;;;;;
"1318923";;;"Windows 7";"Rachel's Experiment (D.T.)";"1.0";"2";"1";"1";"2";"1";"1";"2014-10-16 13:37:13.638";"2014-10-16 13:50:17.086";"1";"0";"1";"119";"118";"module.training_block3.exec-2475.GoNoGo3";;;;;;;;;;;;;;;;;;;;;;;;;;;;;;;;;;;;;;;;;;;;;;;"1261";"2014-10-16 13:43:39.598";"NST_correctLoc";"15";"1";"FINISHED";"RIGHT";"success";"725";"0";"2014-10-16 13:43:38.334";"2";;;;;;;;;;;;;;;;;;;;;;;;;;;;;;;;;
"1318923";;;"Windows 7";"Rachel's Experiment (D.T.)";"1.0";"2";"1";"1";"2";"1";"1";"2014-10-16 13:37:13.638";"2014-10-16 13:50:17.086";"1";"0";"1";"120";"119";"module.training_block3.exec-2475.GoNoGo3";;;;;;;;;;;;;;;;;;;;;;;;;;;;;;;;;;;;;;;;;;;;;;;"1261";"2014-10-16 13:43:42.125";"NST_correctLoc";"12";"0";"FINISHED";"LEFT";"success";"534";"0";"2014-10-16 13:43:40.861";"2";;;;;;;;;;;;;;;;;;;;;;;;;;;;;;;;;
"1318923";;;"Windows 7";"Rachel's Experiment (D.T.)";"1.0";"2";"1";"1";"2";"1";"1";"2014-10-16 13:37:13.638";"2014-10-16 13:50:17.086";"1";"0";"1";"121";"120";"module.training_block3.exec-2475.GoNoGo3";;;;;;;;;;;;;;;;;;;;;;;;;;;;;;;;;;;;;;;;;;;;;;;"1262";"2014-10-16 13:43:44.652";"NST_correctLoc";"32";"0";"FINISHED";"LEFT";"success";"375";"0";"2014-10-16 13:43:43.389";"3";;;;;;;;;;;;;;;;;;;;;;;;;;;;;;;;;
"1318923";;;"Windows 7";"Rachel's Experiment (D.T.)";"1.0";"2";"1";"1";"2";"1";"1";"2014-10-16 13:37:13.638";"2014-10-16 13:50:17.086";"1";"0";"1";"122";"121";"module.training_block3.exec-2475.GoNoGo3";;;;;;;;;;;;;;;;;;;;;;;;;;;;;;;;;;;;;;;;;;;;;;;"1261";"2014-10-16 13:43:47.195";"NST_correctLoc";"6";"0";"FINISHED";"LEFT";"success";"376";"0";"2014-10-16 13:43:45.931";"1";;;;;;;;;;;;;;;;;;;;;;;;;;;;;;;;;
"1318923";;;"Windows 7";"Rachel's Experiment (D.T.)";"1.0";"2";"1";"1";"2";"1";"1";"2014-10-16 13:37:13.638";"2014-10-16 13:50:17.086";"1";"0";"1";"123";"122";"module.training_block3.exec-2475.GoNoGo3";;;;;;;;;;;;;;;;;;;;;;;;;;;;;;;;;;;;;;;;;;;;;;;"1261";"2014-10-16 13:43:49.738";"NST_correctLoc";"5";"0";"FINISHED";"LEFT";"success";"321";"0";"2014-10-16 13:43:48.474";"1";;;;;;;;;;;;;;;;;;;;;;;;;;;;;;;;;
"1318923";;;"Windows 7";"Rachel's Experiment (D.T.)";"1.0";"2";"1";"1";"2";"1";"1";"2014-10-16 13:37:13.638";"2014-10-16 13:50:17.086";"1";"0";"1";"124";"123";"module.training_block4.exec-6249.GoNoGo4";;;;;;;;;;;;;;;;;;;;;;;;;;;;;;;;;;;;;;;;;;;;;;;;;;;;;;;;;;;"1261";"2014-10-16 13:43:59.769";"NST_correctLoc";"35";"1";"FINISHED";"RIGHT";"success";"370";"0";"2014-10-16 13:43:58.505";"3";;;;;;;;;;;;;;;;;;;;;
"1318923";;;"Windows 7";"Rachel's Experiment (D.T.)";"1.0";"2";"1";"1";"2";"1";"1";"2014-10-16 13:37:13.638";"2014-10-16 13:50:17.086";"1";"0";"1";"125";"124";"module.training_block4.exec-6249.GoNoGo4";;;;;;;;;;;;;;;;;;;;;;;;;;;;;;;;;;;;;;;;;;;;;;;;;;;;;;;;;;;"1262";"2014-10-16 13:44:02.311";"NST_correctLoc";"34";"1";"FINISHED";"RIGHT";"success";"379";"0";"2014-10-16 13:44:01.048";"3";;;;;;;;;;;;;;;;;;;;;
"1318923";;;"Windows 7";"Rachel's Experiment (D.T.)";"1.0";"2";"1";"1";"2";"1";"1";"2014-10-16 13:37:13.638";"2014-10-16 13:50:17.086";"1";"0";"1";"126";"125";"module.training_block4.exec-6249.GoNoGo4";;;;;;;;;;;;;;;;;;;;;;;;;;;;;;;;;;;;;;;;;;;;;;;;;;;;;;;;;;;"1262";"2014-10-16 13:44:04.839";"NST_correctLoc";"29";"1";"FINISHED";"RIGHT";"success";"364";"0";"2014-10-16 13:44:03.575";"3";;;;;;;;;;;;;;;;;;;;;
"1318923";;;"Windows 7";"Rachel's Experiment (D.T.)";"1.0";"2";"1";"1";"2";"1";"1";"2014-10-16 13:37:13.638";"2014-10-16 13:50:17.086";"1";"0";"1";"127";"126";"module.training_block4.exec-6249.GoNoGo4";;;;;;;;;;;;;;;;;;;;;;;;;;;;;;;;;;;;;;;;;;;;;;;;;;;;;;;;;;;"1262";"2014-10-16 13:44:07.366";"NST_correctLoc";"15";"1";"FINISHED";"RIGHT";"success";"357";"0";"2014-10-16 13:44:06.102";"2";;;;;;;;;;;;;;;;;;;;;
"1318923";;;"Windows 7";"Rachel's Experiment (D.T.)";"1.0";"2";"1";"1";"2";"1";"1";"2014-10-16 13:37:13.638";"2014-10-16 13:50:17.086";"1";"0";"1";"128";"127";"module.training_block4.exec-6249.GoNoGo4";;;;;;;;;;;;;;;;;;;;;;;;;;;;;;;;;;;;;;;;;;;;;;;;;;;;;;;;;;;"1262";"2014-10-16 13:44:09.893";"NST_correctLoc";"12";"1";"FINISHED";"RIGHT";"success";"302";"0";"2014-10-16 13:44:08.629";"2";;;;;;;;;;;;;;;;;;;;;
"1318923";;;"Windows 7";"Rachel's Experiment (D.T.)";"1.0";"2";"1";"1";"2";"1";"1";"2014-10-16 13:37:13.638";"2014-10-16 13:50:17.086";"1";"0";"1";"129";"128";"module.training_block4.exec-6249.GoNoGo4";;;;;;;;;;;;;;;;;;;;;;;;;;;;;;;;;;;;;;;;;;;;;;;;;;;;;;;;;;;"1262";"2014-10-16 13:44:12.420";"NST_correctLoc";"20";"0";"FINISHED";"LEFT";"success";"382";"0";"2014-10-16 13:44:11.157";"3";;;;;;;;;;;;;;;;;;;;;
"1318923";;;"Windows 7";"Rachel's Experiment (D.T.)";"1.0";"2";"1";"1";"2";"1";"1";"2014-10-16 13:37:13.638";"2014-10-16 13:50:17.086";"1";"0";"1";"130";"129";"module.training_block4.exec-6249.GoNoGo4";;;;;;;;;;;;;;;;;;;;;;;;;;;;;;;;;;;;;;;;;;;;;;;;;;;;;;;;;;;"1262";"2014-10-16 13:44:14.947";"NST_correctLoc";"10";"0";"FINISHED";"LEFT";"success";"479";"0";"2014-10-16 13:44:13.684";"2";;;;;;;;;;;;;;;;;;;;;
"1318923";;;"Windows 7";"Rachel's Experiment (D.T.)";"1.0";"2";"1";"1";"2";"1";"1";"2014-10-16 13:37:13.638";"2014-10-16 13:50:17.086";"1";"0";"1";"131";"130";"module.training_block4.exec-6249.GoNoGo4";;;;;;;;;;;;;;;;;;;;;;;;;;;;;;;;;;;;;;;;;;;;;;;;;;;;;;;;;;;"1261";"2014-10-16 13:44:17.475";"NST_correctLoc";"1";"0";"FINISHED";"LEFT";"success";"504";"0";"2014-10-16 13:44:16.211";"1";;;;;;;;;;;;;;;;;;;;;
"1318923";;;"Windows 7";"Rachel's Experiment (D.T.)";"1.0";"2";"1";"1";"2";"1";"1";"2014-10-16 13:37:13.638";"2014-10-16 13:50:17.086";"1";"0";"1";"132";"131";"module.training_block4.exec-6249.GoNoGo4";;;;;;;;;;;;;;;;;;;;;;;;;;;;;;;;;;;;;;;;;;;;;;;;;;;;;;;;;;;"1261";"2014-10-16 13:44:20.002";"NST_correctLoc";"18";"1";"FINISHED";"RIGHT";"success";"473";"0";"2014-10-16 13:44:18.738";"3";;;;;;;;;;;;;;;;;;;;;
"1318923";;;"Windows 7";"Rachel's Experiment (D.T.)";"1.0";"2";"1";"1";"2";"1";"1";"2014-10-16 13:37:13.638";"2014-10-16 13:50:17.086";"1";"0";"1";"133";"132";"module.training_block4.exec-6249.GoNoGo4";;;;;;;;;;;;;;;;;;;;;;;;;;;;;;;;;;;;;;;;;;;;;;;;;;;;;;;;;;;"1261";"2014-10-16 13:44:22.545";"NST_correctLoc";"32";"1";"FINISHED";"RIGHT";"success";"522";"0";"2014-10-16 13:44:21.281";"3";;;;;;;;;;;;;;;;;;;;;
"1318923";;;"Windows 7";"Rachel's Experiment (D.T.)";"1.0";"2";"1";"1";"2";"1";"1";"2014-10-16 13:37:13.638";"2014-10-16 13:50:17.086";"1";"0";"1";"134";"133";"module.training_block4.exec-6249.GoNoGo4";;;;;;;;;;;;;;;;;;;;;;;;;;;;;;;;;;;;;;;;;;;;;;;;;;;;;;;;;;;"1262";"2014-10-16 13:44:25.072";"NST_correctLoc";"25";"0";"FINISHED";"LEFT";"success";"467";"0";"2014-10-16 13:44:23.808";"3";;;;;;;;;;;;;;;;;;;;;
"1318923";;;"Windows 7";"Rachel's Experiment (D.T.)";"1.0";"2";"1";"1";"2";"1";"1";"2014-10-16 13:37:13.638";"2014-10-16 13:50:17.086";"1";"0";"1";"135";"134";"module.training_block4.exec-6249.GoNoGo4";;;;;;;;;;;;;;;;;;;;;;;;;;;;;;;;;;;;;;;;;;;;;;;;;;;;;;;;;;;"1261";"2014-10-16 13:44:27.599";"NST_correctLoc";"13";"1";"FINISHED";"RIGHT";"success";"523";"0";"2014-10-16 13:44:26.335";"2";;;;;;;;;;;;;;;;;;;;;
"1318923";;;"Windows 7";"Rachel's Experiment (D.T.)";"1.0";"2";"1";"1";"2";"1";"1";"2014-10-16 13:37:13.638";"2014-10-16 13:50:17.086";"1";"0";"1";"136";"135";"module.training_block4.exec-6249.GoNoGo4";;;;;;;;;;;;;;;;;;;;;;;;;;;;;;;;;;;;;;;;;;;;;;;;;;;;;;;;;;;"1261";"2014-10-16 13:44:30.142";"NST_correctLoc";"21";"0";"FINISHED";"LEFT";"success";"581";"0";"2014-10-16 13:44:28.878";"3";;;;;;;;;;;;;;;;;;;;;
"1318923";;;"Windows 7";"Rachel's Experiment (D.T.)";"1.0";"2";"1";"1";"2";"1";"1";"2014-10-16 13:37:13.638";"2014-10-16 13:50:17.086";"1";"0";"1";"137";"136";"module.training_block4.exec-6249.GoNoGo4";;;;;;;;;;;;;;;;;;;;;;;;;;;;;;;;;;;;;;;;;;;;;;;;;;;;;;;;;;;"1261";"2014-10-16 13:44:32.669";"NST_correctLoc";"5";"0";"FINISHED";"LEFT";"success";"501";"0";"2014-10-16 13:44:31.405";"1";;;;;;;;;;;;;;;;;;;;;
"1318923";;;"Windows 7";"Rachel's Experiment (D.T.)";"1.0";"2";"1";"1";"2";"1";"1";"2014-10-16 13:37:13.638";"2014-10-16 13:50:17.086";"1";"0";"1";"138";"137";"module.training_block4.exec-6249.GoNoGo4";;;;;;;;;;;;;;;;;;;;;;;;;;;;;;;;;;;;;;;;;;;;;;;;;;;;;;;;;;;"1261";"2014-10-16 13:44:35.212";"NST_correctLoc";"9";"1";"FINISHED";"RIGHT";"success";"391";"0";"2014-10-16 13:44:33.948";"2";;;;;;;;;;;;;;;;;;;;;
"1318923";;;"Windows 7";"Rachel's Experiment (D.T.)";"1.0";"2";"1";"1";"2";"1";"1";"2014-10-16 13:37:13.638";"2014-10-16 13:50:17.086";"1";"0";"1";"139";"138";"module.training_block4.exec-6249.GoNoGo4";;;;;;;;;;;;;;;;;;;;;;;;;;;;;;;;;;;;;;;;;;;;;;;;;;;;;;;;;;;"1262";"2014-10-16 13:44:37.739";"NST_correctLoc";"31";"0";"FINISHED";"LEFT";"success";"279";"0";"2014-10-16 13:44:36.475";"3";;;;;;;;;;;;;;;;;;;;;
"1318923";;;"Windows 7";"Rachel's Experiment (D.T.)";"1.0";"2";"1";"1";"2";"1";"1";"2014-10-16 13:37:13.638";"2014-10-16 13:50:17.086";"1";"0";"1";"140";"139";"module.training_block4.exec-6249.GoNoGo4";;;;;;;;;;;;;;;;;;;;;;;;;;;;;;;;;;;;;;;;;;;;;;;;;;;;;;;;;;;"1261";"2014-10-16 13:44:40.266";"NST_correctLoc";"0";"1";"FINISHED";"RIGHT";"success";"328";"0";"2014-10-16 13:44:39.003";"1";;;;;;;;;;;;;;;;;;;;;
"1318923";;;"Windows 7";"Rachel's Experiment (D.T.)";"1.0";"2";"1";"1";"2";"1";"1";"2014-10-16 13:37:13.638";"2014-10-16 13:50:17.086";"1";"0";"1";"141";"140";"module.training_block4.exec-6249.GoNoGo4";;;;;;;;;;;;;;;;;;;;;;;;;;;;;;;;;;;;;;;;;;;;;;;;;;;;;;;;;;;"1261";"2014-10-16 13:44:42.825";"NST_correctLoc";"22";"0";"FINISHED";"LEFT";"success";"450";"0";"2014-10-16 13:44:41.561";"3";;;;;;;;;;;;;;;;;;;;;
"1318923";;;"Windows 7";"Rachel's Experiment (D.T.)";"1.0";"2";"1";"1";"2";"1";"1";"2014-10-16 13:37:13.638";"2014-10-16 13:50:17.086";"1";"0";"1";"142";"141";"module.training_block4.exec-6249.GoNoGo4";;;;;;;;;;;;;;;;;;;;;;;;;;;;;;;;;;;;;;;;;;;;;;;;;;;;;;;;;;;"1261";"2014-10-16 13:44:45.352";"NST_correctLoc";"30";"1";"FINISHED";"RIGHT";"success";"306";"0";"2014-10-16 13:44:44.088";"3";;;;;;;;;;;;;;;;;;;;;
"1318923";;;"Windows 7";"Rachel's Experiment (D.T.)";"1.0";"2";"1";"1";"2";"1";"1";"2014-10-16 13:37:13.638";"2014-10-16 13:50:17.086";"1";"0";"1";"143";"142";"module.training_block4.exec-6249.GoNoGo4";;;;;;;;;;;;;;;;;;;;;;;;;;;;;;;;;;;;;;;;;;;;;;;;;;;;;;;;;;;"1261";"2014-10-16 13:44:47.895";"NST_correctLoc";"4";"0";"FINISHED";"LEFT";"success";"468";"0";"2014-10-16 13:44:46.631";"1";;;;;;;;;;;;;;;;;;;;;
"1318923";;;"Windows 7";"Rachel's Experiment (D.T.)";"1.0";"2";"1";"1";"2";"1";"1";"2014-10-16 13:37:13.638";"2014-10-16 13:50:17.086";"1";"0";"1";"144";"143";"module.training_block4.exec-6249.GoNoGo4";;;;;;;;;;;;;;;;;;;;;;;;;;;;;;;;;;;;;;;;;;;;;;;;;;;;;;;;;;;"1261";"2014-10-16 13:44:50.422";"NST_correctLoc";"16";"0";"FINISHED";"LEFT";"success";"452";"0";"2014-10-16 13:44:49.158";"2";;;;;;;;;;;;;;;;;;;;;
"1318923";;;"Windows 7";"Rachel's Experiment (D.T.)";"1.0";"2";"1";"1";"2";"1";"1";"2014-10-16 13:37:13.638";"2014-10-16 13:50:17.086";"1";"0";"1";"145";"144";"module.training_block4.exec-6249.GoNoGo4";;;;;;;;;;;;;;;;;;;;;;;;;;;;;;;;;;;;;;;;;;;;;;;;;;;;;;;;;;;"1261";"2014-10-16 13:44:52.949";"NST_correctLoc";"14";"1";"FINISHED";"RIGHT";"success";"461";"0";"2014-10-16 13:44:51.686";"2";;;;;;;;;;;;;;;;;;;;;
"1318923";;;"Windows 7";"Rachel's Experiment (D.T.)";"1.0";"2";"1";"1";"2";"1";"1";"2014-10-16 13:37:13.638";"2014-10-16 13:50:17.086";"1";"0";"1";"146";"145";"module.training_block4.exec-6249.GoNoGo4";;;;;;;;;;;;;;;;;;;;;;;;;;;;;;;;;;;;;;;;;;;;;;;;;;;;;;;;;;;"1261";"2014-10-16 13:44:55.476";"NST_correctLoc";"17";"1";"FINISHED";"RIGHT";"success";"422";"0";"2014-10-16 13:44:54.213";"2";;;;;;;;;;;;;;;;;;;;;
"1318923";;;"Windows 7";"Rachel's Experiment (D.T.)";"1.0";"2";"1";"1";"2";"1";"1";"2014-10-16 13:37:13.638";"2014-10-16 13:50:17.086";"1";"0";"1";"147";"146";"module.training_block4.exec-6249.GoNoGo4";;;;;;;;;;;;;;;;;;;;;;;;;;;;;;;;;;;;;;;;;;;;;;;;;;;;;;;;;;;"1262";"2014-10-16 13:44:58.004";"NST_correctLoc";"33";"0";"FINISHED";"LEFT";"success";"559";"0";"2014-10-16 13:44:56.740";"3";;;;;;;;;;;;;;;;;;;;;
"1318923";;;"Windows 7";"Rachel's Experiment (D.T.)";"1.0";"2";"1";"1";"2";"1";"1";"2014-10-16 13:37:13.638";"2014-10-16 13:50:17.086";"1";"0";"1";"148";"147";"module.training_block4.exec-6249.GoNoGo4";;;;;;;;;;;;;;;;;;;;;;;;;;;;;;;;;;;;;;;;;;;;;;;;;;;;;;;;;;;"1262";"2014-10-16 13:45:00.531";"NST_correctLoc";"3";"1";"FINISHED";"RIGHT";"success";"415";"0";"2014-10-16 13:44:59.267";"1";;;;;;;;;;;;;;;;;;;;;
"1318923";;;"Windows 7";"Rachel's Experiment (D.T.)";"1.0";"2";"1";"1";"2";"1";"1";"2014-10-16 13:37:13.638";"2014-10-16 13:50:17.086";"1";"0";"1";"149";"148";"module.training_block4.exec-6249.GoNoGo4";;;;;;;;;;;;;;;;;;;;;;;;;;;;;;;;;;;;;;;;;;;;;;;;;;;;;;;;;;;"1262";"2014-10-16 13:45:03.058";"NST_correctLoc";"28";"0";"FINISHED";"LEFT";"success";"408";"0";"2014-10-16 13:45:01.794";"3";;;;;;;;;;;;;;;;;;;;;
"1318923";;;"Windows 7";"Rachel's Experiment (D.T.)";"1.0";"2";"1";"1";"2";"1";"1";"2014-10-16 13:37:13.638";"2014-10-16 13:50:17.086";"1";"0";"1";"150";"149";"module.training_block4.exec-6249.GoNoGo4";;;;;;;;;;;;;;;;;;;;;;;;;;;;;;;;;;;;;;;;;;;;;;;;;;;;;;;;;;;"1262";"2014-10-16 13:45:05.585";"NST_correctLoc";"6";"1";"FINISHED";"RIGHT";"success";"361";"0";"2014-10-16 13:45:04.322";"1";;;;;;;;;;;;;;;;;;;;;
"1318923";;;"Windows 7";"Rachel's Experiment (D.T.)";"1.0";"2";"1";"1";"2";"1";"1";"2014-10-16 13:37:13.638";"2014-10-16 13:50:17.086";"1";"0";"1";"151";"150";"module.training_block4.exec-6249.GoNoGo4";;;;;;;;;;;;;;;;;;;;;;;;;;;;;;;;;;;;;;;;;;;;;;;;;;;;;;;;;;;"1262";"2014-10-16 13:45:08.128";"NST_correctLoc";"24";"1";"FINISHED";"RIGHT";"success";"354";"0";"2014-10-16 13:45:06.864";"3";;;;;;;;;;;;;;;;;;;;;
"1318923";;;"Windows 7";"Rachel's Experiment (D.T.)";"1.0";"2";"1";"1";"2";"1";"1";"2014-10-16 13:37:13.638";"2014-10-16 13:50:17.086";"1";"0";"1";"152";"151";"module.training_block4.exec-6249.GoNoGo4";;;;;;;;;;;;;;;;;;;;;;;;;;;;;;;;;;;;;;;;;;;;;;;;;;;;;;;;;;;"1261";"2014-10-16 13:45:10.655";"NST_correctLoc";"7";"1";"FINISHED";"RIGHT";"success";"667";"0";"2014-10-16 13:45:09.392";"1";;;;;;;;;;;;;;;;;;;;;
"1318923";;;"Windows 7";"Rachel's Experiment (D.T.)";"1.0";"2";"1";"1";"2";"1";"1";"2014-10-16 13:37:13.638";"2014-10-16 13:50:17.086";"1";"0";"1";"153";"152";"module.training_block4.exec-6249.GoNoGo4";;;;;;;;;;;;;;;;;;;;;;;;;;;;;;;;;;;;;;;;;;;;;;;;;;;;;;;;;;;"1262";"2014-10-16 13:45:13.182";"NST_correctLoc";"11";"0";"FINISHED";"LEFT";"success";"340";"0";"2014-10-16 13:45:11.919";"2";;;;;;;;;;;;;;;;;;;;;
"1318923";;;"Windows 7";"Rachel's Experiment (D.T.)";"1.0";"2";"1";"1";"2";"1";"1";"2014-10-16 13:37:13.638";"2014-10-16 13:50:17.086";"1";"0";"1";"154";"153";"module.training_block4.exec-6249.GoNoGo4";;;;;;;;;;;;;;;;;;;;;;;;;;;;;;;;;;;;;;;;;;;;;;;;;;;;;;;;;;;"1261";"2014-10-16 13:45:15.710";"NST_correctLoc";"8";"0";"FINISHED";"LEFT";"success";"340";"0";"2014-10-16 13:45:14.446";"1";;;;;;;;;;;;;;;;;;;;;
"1318923";;;"Windows 7";"Rachel's Experiment (D.T.)";"1.0";"2";"1";"1";"2";"1";"1";"2014-10-16 13:37:13.638";"2014-10-16 13:50:17.086";"1";"0";"1";"155";"154";"module.training_block4.exec-6249.GoNoGo4";;;;;;;;;;;;;;;;;;;;;;;;;;;;;;;;;;;;;;;;;;;;;;;;;;;;;;;;;;;"1262";"2014-10-16 13:45:18.237";"NST_correctLoc";"19";"0";"FINISHED";"LEFT";"success";"421";"0";"2014-10-16 13:45:16.973";"3";;;;;;;;;;;;;;;;;;;;;
"1318923";;;"Windows 7";"Rachel's Experiment (D.T.)";"1.0";"2";"1";"1";"2";"1";"1";"2014-10-16 13:37:13.638";"2014-10-16 13:50:17.086";"1";"0";"1";"156";"155";"module.training_block4.exec-6249.GoNoGo4";;;;;;;;;;;;;;;;;;;;;;;;;;;;;;;;;;;;;;;;;;;;;;;;;;;;;;;;;;;"1262";"2014-10-16 13:45:20.764";"NST_correctLoc";"23";"1";"FINISHED";"RIGHT";"success";"366";"0";"2014-10-16 13:45:19.500";"3";;;;;;;;;;;;;;;;;;;;;
"1318923";;;"Windows 7";"Rachel's Experiment (D.T.)";"1.0";"2";"1";"1";"2";"1";"1";"2014-10-16 13:37:13.638";"2014-10-16 13:50:17.086";"1";"0";"1";"157";"156";"module.training_block4.exec-6249.GoNoGo4";;;;;;;;;;;;;;;;;;;;;;;;;;;;;;;;;;;;;;;;;;;;;;;;;;;;;;;;;;;"1262";"2014-10-16 13:45:23.291";"NST_correctLoc";"27";"0";"FINISHED";"LEFT";"success";"279";"0";"2014-10-16 13:45:22.028";"3";;;;;;;;;;;;;;;;;;;;;
"1318923";;;"Windows 7";"Rachel's Experiment (D.T.)";"1.0";"2";"1";"1";"2";"1";"1";"2014-10-16 13:37:13.638";"2014-10-16 13:50:17.086";"1";"0";"1";"158";"157";"module.training_block4.exec-6249.GoNoGo4";;;;;;;;;;;;;;;;;;;;;;;;;;;;;;;;;;;;;;;;;;;;;;;;;;;;;;;;;;;"1262";"2014-10-16 13:45:25.818";"NST_correctLoc";"26";"0";"FINISHED";"LEFT";"success";"344";"0";"2014-10-16 13:45:24.555";"3";;;;;;;;;;;;;;;;;;;;;
"1318923";;;"Windows 7";"Rachel's Experiment (D.T.)";"1.0";"2";"1";"1";"2";"1";"1";"2014-10-16 13:37:13.638";"2014-10-16 13:50:17.086";"1";"0";"1";"159";"158";"module.training_block4.exec-6249.GoNoGo4";;;;;;;;;;;;;;;;;;;;;;;;;;;;;;;;;;;;;;;;;;;;;;;;;;;;;;;;;;;"1261";"2014-10-16 13:45:28.361";"NST_correctLoc";"2";"1";"FINISHED";"RIGHT";"success";"321";"0";"2014-10-16 13:45:27.098";"1";;;;;;;;;;;;;;;;;;;;;
"1318923";;;"Windows 7";"Rachel's Experiment (D.T.)";"1.0";"2";"1";"1";"2";"1";"1";"2014-10-16 13:37:13.638";"2014-10-16 13:50:17.086";"1";"0";"1";"160";"159";"module.devaluation_practice.exec-3716.devalPractice";;;;;;;;;;;;"14909";"2014-10-16 13:46:11.214";"0";"7";"9";"7";"4370";"2429";"5060";"2014-10-16 13:45:56.301";;;;;;;;;;;;;;;;;;;;;;;;;;;;;;;;;;;;;;;;;;;;;;;;;;;;;;;;;;;;;;;;;;;;;;
"1318923";;;"Windows 7";"Rachel's Experiment (D.T.)";"1.0";"2";"1";"1";"2";"1";"1";"2014-10-16 13:37:13.638";"2014-10-16 13:50:17.086";"1";"0";"1";"161";"160";"module.devaluation_practice.exec-3716.devalPractice";;;;;;;;;;;;"9780";"2014-10-16 13:46:21.011";"1";"3";"1";"6";"1968";"2517";"2262";"2014-10-16 13:46:11.230";;;;;;;;;;;;;;;;;;;;;;;;;;;;;;;;;;;;;;;;;;;;;;;;;;;;;;;;;;;;;;;;;;;;;;
"1318923";;;"Windows 7";"Rachel's Experiment (D.T.)";"1.0";"2";"1";"1";"2";"1";"1";"2014-10-16 13:37:13.638";"2014-10-16 13:50:17.086";"1";"0";"1";"162";"161";"module.devaluation_practice.exec-3716.devalPractice";;;;;;;;;;;;"9157";"2014-10-16 13:46:30.184";"2";"3";"1";"3";"993";"1709";"3433";"2014-10-16 13:46:21.027";;;;;;;;;;;;;;;;;;;;;;;;;;;;;;;;;;;;;;;;;;;;;;;;;;;;;;;;;;;;;;;;;;;;;;
"1318923";;;"Windows 7";"Rachel's Experiment (D.T.)";"1.0";"2";"1";"1";"2";"1";"1";"2014-10-16 13:37:13.638";"2014-10-16 13:50:17.086";"1";"0";"1";"163";"162";"module.devaluation_practice.exec-3716.devalPractice";;;;;;;;;;;;"8724";"2014-10-16 13:46:38.936";"3";"6";"9";"8";"2061";"1421";"2213";"2014-10-16 13:46:30.200";;;;;;;;;;;;;;;;;;;;;;;;;;;;;;;;;;;;;;;;;;;;;;;;;;;;;;;;;;;;;;;;;;;;;;
"1318923";;;"Windows 7";"Rachel's Experiment (D.T.)";"1.0";"2";"1";"1";"2";"1";"1";"2014-10-16 13:37:13.638";"2014-10-16 13:50:17.086";"1";"0";"1";"164";"163";"module.devaluation_block1.exec-8671.deval1";"9448";"2014-10-16 13:46:53.506";"5";"8";"1";"8";"3518";"1295";"1585";"2014-10-16 13:46:44.053";"1";;;;;;;;;;;;;;;;;;;;;;;;;;;;;;;;;;;;;;;;;;;;;;;;;;;;;;;;;;;;;;;;;;;;;;;;;;;;;;;;
"1318923";;;"Windows 7";"Rachel's Experiment (D.T.)";"1.0";"2";"1";"1";"2";"1";"1";"2014-10-16 13:37:13.638";"2014-10-16 13:50:17.086";"1";"0";"1";"165";"164";"module.devaluation_block1.exec-8671.deval1";"9764";"2014-10-16 13:47:03.303";"23";"9";"6";"9";"2331";"2934";"1468";"2014-10-16 13:46:53.537";"3";;;;;;;;;;;;;;;;;;;;;;;;;;;;;;;;;;;;;;;;;;;;;;;;;;;;;;;;;;;;;;;;;;;;;;;;;;;;;;;;
"1318923";;;"Windows 7";"Rachel's Experiment (D.T.)";"1.0";"2";"1";"1";"2";"1";"1";"2014-10-16 13:37:13.638";"2014-10-16 13:50:17.086";"1";"0";"1";"166";"165";"module.devaluation_block1.exec-8671.deval1";"8629";"2014-10-16 13:47:11.945";"0";"7";"9";"9";"1966";"1614";"2013";"2014-10-16 13:47:03.319";"1";;;;;;;;;;;;;;;;;;;;;;;;;;;;;;;;;;;;;;;;;;;;;;;;;;;;;;;;;;;;;;;;;;;;;;;;;;;;;;;;
"1318923";;;"Windows 7";"Rachel's Experiment (D.T.)";"1.0";"2";"1";"1";"2";"1";"1";"2014-10-16 13:37:13.638";"2014-10-16 13:50:17.086";"1";"0";"1";"167";"166";"module.devaluation_block1.exec-8671.deval1";"7445";"2014-10-16 13:47:19.418";"22";"8";"1";"7";"1691";"1575";"1160";"2014-10-16 13:47:11.961";"3";;;;;;;;;;;;;;;;;;;;;;;;;;;;;;;;;;;;;;;;;;;;;;;;;;;;;;;;;;;;;;;;;;;;;;;;;;;;;;;;
"1318923";;;"Windows 7";"Rachel's Experiment (D.T.)";"1.0";"2";"1";"1";"2";"1";"1";"2014-10-16 13:37:13.638";"2014-10-16 13:50:17.086";"1";"0";"1";"168";"167";"module.devaluation_block1.exec-8671.deval1";"6572";"2014-10-16 13:47:26.001";"4";"9";"8";"9";"875";"1505";"1158";"2014-10-16 13:47:19.433";"1";;;;;;;;;;;;;;;;;;;;;;;;;;;;;;;;;;;;;;;;;;;;;;;;;;;;;;;;;;;;;;;;;;;;;;;;;;;;;;;;
"1318923";;;"Windows 7";"Rachel's Experiment (D.T.)";"1.0";"2";"1";"1";"2";"1";"1";"2014-10-16 13:37:13.638";"2014-10-16 13:50:17.086";"1";"0";"1";"169";"168";"module.devaluation_block1.exec-8671.deval1";"7957";"2014-10-16 13:47:33.973";"24";"8";"3";"6";"1924";"1931";"1074";"2014-10-16 13:47:26.017";"3";;;;;;;;;;;;;;;;;;;;;;;;;;;;;;;;;;;;;;;;;;;;;;;;;;;;;;;;;;;;;;;;;;;;;;;;;;;;;;;;
"1318923";;;"Windows 7";"Rachel's Experiment (D.T.)";"1.0";"2";"1";"1";"2";"1";"1";"2014-10-16 13:37:13.638";"2014-10-16 13:50:17.086";"1";"0";"1";"170";"169";"module.devaluation_block1.exec-8671.deval1";"8284";"2014-10-16 13:47:42.287";"20";"7";"7";"8";"2392";"1062";"1795";"2014-10-16 13:47:34.004";"3";;;;;;;;;;;;;;;;;;;;;;;;;;;;;;;;;;;;;;;;;;;;;;;;;;;;;;;;;;;;;;;;;;;;;;;;;;;;;;;;
"1318923";;;"Windows 7";"Rachel's Experiment (D.T.)";"1.0";"2";"1";"1";"2";"1";"1";"2014-10-16 13:37:13.638";"2014-10-16 13:50:17.086";"1";"0";"1";"171";"170";"module.devaluation_block1.exec-8671.deval1";"8300";"2014-10-16 13:47:50.602";"18";"8";"6";"8";"1269";"2736";"1267";"2014-10-16 13:47:42.303";"3";;;;;;;;;;;;;;;;;;;;;;;;;;;;;;;;;;;;;;;;;;;;;;;;;;;;;;;;;;;;;;;;;;;;;;;;;;;;;;;;
"1318923";;;"Windows 7";"Rachel's Experiment (D.T.)";"1.0";"2";"1";"1";"2";"1";"1";"2014-10-16 13:37:13.638";"2014-10-16 13:50:17.086";"1";"0";"1";"172";"171";"module.devaluation_block1.exec-8671.deval1";"6725";"2014-10-16 13:47:57.341";"19";"9";"6";"8";"1202";"1275";"1214";"2014-10-16 13:47:50.618";"3";;;;;;;;;;;;;;;;;;;;;;;;;;;;;;;;;;;;;;;;;;;;;;;;;;;;;;;;;;;;;;;;;;;;;;;;;;;;;;;;
"1318923";;;"Windows 7";"Rachel's Experiment (D.T.)";"1.0";"2";"1";"1";"2";"1";"1";"2014-10-16 13:37:13.638";"2014-10-16 13:50:17.086";"1";"0";"1";"173";"172";"module.devaluation_block1.exec-8671.deval1";"7762";"2014-10-16 13:48:05.126";"11";"9";"9";"7";"1527";"1118";"2076";"2014-10-16 13:47:57.373";"2";;;;;;;;;;;;;;;;;;;;;;;;;;;;;;;;;;;;;;;;;;;;;;;;;;;;;;;;;;;;;;;;;;;;;;;;;;;;;;;;
"1318923";;;"Windows 7";"Rachel's Experiment (D.T.)";"1.0";"2";"1";"1";"2";"1";"1";"2014-10-16 13:37:13.638";"2014-10-16 13:50:17.086";"1";"0";"1";"174";"173";"module.devaluation_block1.exec-8671.deval1";"6236";"2014-10-16 13:48:11.381";"2";"7";"4";"7";"719";"1259";"1215";"2014-10-16 13:48:05.157";"1";;;;;;;;;;;;;;;;;;;;;;;;;;;;;;;;;;;;;;;;;;;;;;;;;;;;;;;;;;;;;;;;;;;;;;;;;;;;;;;;
"1318923";;;"Windows 7";"Rachel's Experiment (D.T.)";"1.0";"2";"1";"1";"2";"1";"1";"2014-10-16 13:37:13.638";"2014-10-16 13:50:17.086";"1";"0";"1";"175";"174";"module.devaluation_block1.exec-8671.deval1";"7134";"2014-10-16 13:48:18.542";"1";"7";"2";"6";"1183";"1422";"1491";"2014-10-16 13:48:11.413";"1";;;;;;;;;;;;;;;;;;;;;;;;;;;;;;;;;;;;;;;;;;;;;;;;;;;;;;;;;;;;;;;;;;;;;;;;;;;;;;;;
"1318923";;;"Windows 7";"Rachel's Experiment (D.T.)";"1.0";"2";"1";"1";"2";"1";"1";"2014-10-16 13:37:13.638";"2014-10-16 13:50:17.086";"1";"0";"1";"176";"175";"module.devaluation_block1.exec-8671.deval1";"6797";"2014-10-16 13:48:25.359";"9";"7";"9";"6";"1103";"1187";"1488";"2014-10-16 13:48:18.557";"2";;;;;;;;;;;;;;;;;;;;;;;;;;;;;;;;;;;;;;;;;;;;;;;;;;;;;;;;;;;;;;;;;;;;;;;;;;;;;;;;
"1318923";;;"Windows 7";"Rachel's Experiment (D.T.)";"1.0";"2";"1";"1";"2";"1";"1";"2014-10-16 13:37:13.638";"2014-10-16 13:50:17.086";"1";"0";"1";"177";"176";"module.devaluation_block1.exec-8671.deval1";"9061";"2014-10-16 13:48:34.438";"21";"9";"9";"9";"1997";"2685";"1342";"2014-10-16 13:48:25.375";"3";;;;;;;;;;;;;;;;;;;;;;;;;;;;;;;;;;;;;;;;;;;;;;;;;;;;;;;;;;;;;;;;;;;;;;;;;;;;;;;;
"1318923";;;"Windows 7";"Rachel's Experiment (D.T.)";"1.0";"2";"1";"1";"2";"1";"1";"2014-10-16 13:37:13.638";"2014-10-16 13:50:17.086";"1";"0";"1";"178";"177";"module.devaluation_block1.exec-8671.deval1";"6469";"2014-10-16 13:48:40.928";"6";"4";"1";"4";"862";"1217";"1369";"2014-10-16 13:48:34.454";"1";;;;;;;;;;;;;;;;;;;;;;;;;;;;;;;;;;;;;;;;;;;;;;;;;;;;;;;;;;;;;;;;;;;;;;;;;;;;;;;;
"1318923";;;"Windows 7";"Rachel's Experiment (D.T.)";"1.0";"2";"1";"1";"2";"1";"1";"2014-10-16 13:37:13.638";"2014-10-16 13:50:17.086";"1";"0";"1";"179";"178";"module.devaluation_block1.exec-8671.deval1";"6774";"2014-10-16 13:48:47.714";"8";"4";"4";"3";"620";"2284";"841";"2014-10-16 13:48:40.944";"1";;;;;;;;;;;;;;;;;;;;;;;;;;;;;;;;;;;;;;;;;;;;;;;;;;;;;;;;;;;;;;;;;;;;;;;;;;;;;;;;
"1318923";;;"Windows 7";"Rachel's Experiment (D.T.)";"1.0";"2";"1";"1";"2";"1";"1";"2014-10-16 13:37:13.638";"2014-10-16 13:50:17.086";"1";"0";"1";"180";"179";"module.devaluation_block1.exec-8671.deval1";"6933";"2014-10-16 13:48:54.672";"16";"2";"1";"2";"1386";"1030";"1491";"2014-10-16 13:48:47.730";"2";;;;;;;;;;;;;;;;;;;;;;;;;;;;;;;;;;;;;;;;;;;;;;;;;;;;;;;;;;;;;;;;;;;;;;;;;;;;;;;;
"1318923";;;"Windows 7";"Rachel's Experiment (D.T.)";"1.0";"2";"1";"1";"2";"1";"1";"2014-10-16 13:37:13.638";"2014-10-16 13:50:17.086";"1";"0";"1";"181";"180";"module.devaluation_block1.exec-8671.deval1";"6854";"2014-10-16 13:49:01.536";"3";"8";"6";"7";"1797";"1007";"1016";"2014-10-16 13:48:54.687";"1";;;;;;;;;;;;;;;;;;;;;;;;;;;;;;;;;;;;;;;;;;;;;;;;;;;;;;;;;;;;;;;;;;;;;;;;;;;;;;;;
"1318923";;;"Windows 7";"Rachel's Experiment (D.T.)";"1.0";"2";"1";"1";"2";"1";"1";"2014-10-16 13:37:13.638";"2014-10-16 13:50:17.086";"1";"0";"1";"182";"181";"module.devaluation_block1.exec-8671.deval1";"7781";"2014-10-16 13:49:09.336";"13";"8";"9";"9";"1189";"1678";"1888";"2014-10-16 13:49:01.551";"2";;;;;;;;;;;;;;;;;;;;;;;;;;;;;;;;;;;;;;;;;;;;;;;;;;;;;;;;;;;;;;;;;;;;;;;;;;;;;;;;
"1318923";;;"Windows 7";"Rachel's Experiment (D.T.)";"1.0";"2";"1";"1";"2";"1";"1";"2014-10-16 13:37:13.638";"2014-10-16 13:50:17.086";"1";"0";"1";"183";"182";"module.devaluation_block1.exec-8671.deval1";"8411";"2014-10-16 13:49:17.775";"25";"7";"6";"9";"1220";"1374";"2793";"2014-10-16 13:49:09.351";"3";;;;;;;;;;;;;;;;;;;;;;;;;;;;;;;;;;;;;;;;;;;;;;;;;;;;;;;;;;;;;;;;;;;;;;;;;;;;;;;;
"1318923";;;"Windows 7";"Rachel's Experiment (D.T.)";"1.0";"2";"1";"1";"2";"1";"1";"2014-10-16 13:37:13.638";"2014-10-16 13:50:17.086";"1";"0";"1";"184";"183";"module.devaluation_block1.exec-8671.deval1";"9525";"2014-10-16 13:49:27.322";"10";"8";"9";"9";"2293";"2213";"1989";"2014-10-16 13:49:17.791";"2";;;;;;;;;;;;;;;;;;;;;;;;;;;;;;;;;;;;;;;;;;;;;;;;;;;;;;;;;;;;;;;;;;;;;;;;;;;;;;;;
"1318923";;;"Windows 7";"Rachel's Experiment (D.T.)";"1.0";"2";"1";"1";"2";"1";"1";"2014-10-16 13:37:13.638";"2014-10-16 13:50:17.086";"1";"0";"1";"185";"184";"module.devaluation_block1.exec-8671.deval1";"7381";"2014-10-16 13:49:34.717";"17";"1";"1";"1";"1538";"1236";"1574";"2014-10-16 13:49:27.338";"2";;;;;;;;;;;;;;;;;;;;;;;;;;;;;;;;;;;;;;;;;;;;;;;;;;;;;;;;;;;;;;;;;;;;;;;;;;;;;;;;
"1318923";;;"Windows 7";"Rachel's Experiment (D.T.)";"1.0";"2";"1";"1";"2";"1";"1";"2014-10-16 13:37:13.638";"2014-10-16 13:50:17.086";"1";"0";"1";"186";"185";"module.devaluation_block1.exec-8671.deval1";"7325";"2014-10-16 13:49:42.064";"26";"9";"7";"9";"1559";"1201";"1532";"2014-10-16 13:49:34.732";"3";;;;;;;;;;;;;;;;;;;;;;;;;;;;;;;;;;;;;;;;;;;;;;;;;;;;;;;;;;;;;;;;;;;;;;;;;;;;;;;;
"1318923";;;"Windows 7";"Rachel's Experiment (D.T.)";"1.0";"2";"1";"1";"2";"1";"1";"2014-10-16 13:37:13.638";"2014-10-16 13:50:17.086";"1";"0";"1";"187";"186";"module.devaluation_block1.exec-8671.deval1";"7316";"2014-10-16 13:49:49.412";"12";"8";"6";"8";"1980";"1158";"1148";"2014-10-16 13:49:42.096";"2";;;;;;;;;;;;;;;;;;;;;;;;;;;;;;;;;;;;;;;;;;;;;;;;;;;;;;;;;;;;;;;;;;;;;;;;;;;;;;;;
"1318923";;;"Windows 7";"Rachel's Experiment (D.T.)";"1.0";"2";"1";"1";"2";"1";"1";"2014-10-16 13:37:13.638";"2014-10-16 13:50:17.086";"1";"0";"1";"188";"187";"module.devaluation_block1.exec-8671.deval1";"8021";"2014-10-16 13:49:57.446";"7";"7";"3";"4";"912";"1367";"2724";"2014-10-16 13:49:49.428";"1";;;;;;;;;;;;;;;;;;;;;;;;;;;;;;;;;;;;;;;;;;;;;;;;;;;;;;;;;;;;;;;;;;;;;;;;;;;;;;;;
"1318923";;;"Windows 7";"Rachel's Experiment (D.T.)";"1.0";"2";"1";"1";"2";"1";"1";"2014-10-16 13:37:13.638";"2014-10-16 13:50:17.086";"1";"0";"1";"189";"188";"module.devaluation_block1.exec-8671.deval1";"9164";"2014-10-16 13:50:06.634";"15";"3";"1";"1";"1878";"1238";"3035";"2014-10-16 13:49:57.462";"2";;;;;;;;;;;;;;;;;;;;;;;;;;;;;;;;;;;;;;;;;;;;;;;;;;;;;;;;;;;;;;;;;;;;;;;;;;;;;;;;
"1318923";;;"Windows 7";"Rachel's Experiment (D.T.)";"1.0";"2";"1";"1";"2";"1";"1";"2014-10-16 13:37:13.638";"2014-10-16 13:50:17.086";"1";"0";"1";"190";"189";"module.devaluation_block1.exec-8671.deval1";"7749";"2014-10-16 13:50:14.403";"14";"7";"8";"8";"2369";"972";"1379";"2014-10-16 13:50:06.650";"2";;;;;;;;;;;;;;;;;;;;;;;;;;;;;;;;;;;;;;;;;;;;;;;;;;;;;;;;;;;;;;;;;;;;;;;;;;;;;;;;
