"user.name";"user.yearOfBirth";"user.sex";"user.osName";"module.name";"module.version";"module.online.subject.code";"module.online.study.id";"module.online.module.nr";"module.online.group.nr";"session.id";"session.index";"session.startTime";"session.endTime";"session.completed";"session.node-8033.DevalQorder";"session.node-8538.conditionType";"trial.id";"trial.index";"trial.name";"trial.deval1.durationTime";"trial.deval1.endTime";"trial.deval1.icon";"trial.deval1.Resp_Attractive";"trial.deval1.Resp_Eat";"trial.deval1.Resp_Taste";"trial.deval1.RT_Attractive";"trial.deval1.RT_Eat";"trial.deval1.RT_Taste";"trial.deval1.startTime";"trial.deval1.stimulus type";"trial.devalPractice.durationTime";"trial.devalPractice.endTime";"trial.devalPractice.icon";"trial.devalPractice.Resp_Attractive";"trial.devalPractice.Resp_Eat";"trial.devalPractice.Resp_Taste";"trial.devalPractice.RT_Attractive";"trial.devalPractice.RT_Eat";"trial.devalPractice.RT_Taste";"trial.devalPractice.startTime";"trial.devalPractice.stimulus type";"trial.GoNoGo1.durationTime";"trial.GoNoGo1.endTime";"trial.GoNoGo1.Error Type";"trial.GoNoGo1.icon";"trial.GoNoGo1.location";"trial.GoNoGo1.outcome";"trial.GoNoGo1.response";"trial.GoNoGo1.result";"trial.GoNoGo1.RT";"trial.GoNoGo1.signal";"trial.GoNoGo1.startTime";"trial.GoNoGo1.stimulus type";"trial.GoNoGo2.durationTime";"trial.GoNoGo2.endTime";"trial.GoNoGo2.Error Type";"trial.GoNoGo2.icon";"trial.GoNoGo2.location";"trial.GoNoGo2.outcome";"trial.GoNoGo2.response";"trial.GoNoGo2.result";"trial.GoNoGo2.RT";"trial.GoNoGo2.signal";"trial.GoNoGo2.startTime";"trial.GoNoGo2.stimulus type";"trial.GoNoGo3.durationTime";"trial.GoNoGo3.endTime";"trial.GoNoGo3.Error Type";"trial.GoNoGo3.icon";"trial.GoNoGo3.location";"trial.GoNoGo3.outcome";"trial.GoNoGo3.response";"trial.GoNoGo3.result";"trial.GoNoGo3.RT";"trial.GoNoGo3.signal";"trial.GoNoGo3.startTime";"trial.GoNoGo3.stimulus type";"trial.GoNoGo4.durationTime";"trial.GoNoGo4.endTime";"trial.GoNoGo4.Error Type";"trial.GoNoGo4.icon";"trial.GoNoGo4.location";"trial.GoNoGo4.outcome";"trial.GoNoGo4.response";"trial.GoNoGo4.result";"trial.GoNoGo4.RT";"trial.GoNoGo4.signal";"trial.GoNoGo4.startTime";"trial.GoNoGo4.stimulus type";"trial.GoNoGo_Practice.durationTime";"trial.GoNoGo_Practice.endTime";"trial.GoNoGo_Practice.icon";"trial.GoNoGo_Practice.location";"trial.GoNoGo_Practice.outcome";"trial.GoNoGo_Practice.response";"trial.GoNoGo_Practice.result";"trial.GoNoGo_Practice.RT";"trial.GoNoGo_Practice.signal";"trial.GoNoGo_Practice.startTime";"trial.GoNoGo_Practice.stimulus type";"trial.GoNoGo_Tutorial.durationTime";"trial.GoNoGo_Tutorial.endTime";"trial.GoNoGo_Tutorial.icon";"trial.GoNoGo_Tutorial.location";"trial.GoNoGo_Tutorial.outcome";"trial.GoNoGo_Tutorial.response";"trial.GoNoGo_Tutorial.result";"trial.GoNoGo_Tutorial.RT";"trial.GoNoGo_Tutorial.signal";"trial.GoNoGo_Tutorial.startTime"
"louise3004";;;"Windows 8";"Rachel's Experiment (D.T.)";"1.0";"2";"1";"1";"2";"1";"1";"2014-10-13 20:20:07.744";"2014-10-13 20:33:09.894";"1";"0";"1";"1";"0";"module.GoNoGotutorial.exec-5354.GoNoGo_Tutorial";;;;;;;;;;;;;;;;;;;;;;;;;;;;;;;;;;;;;;;;;;;;;;;;;;;;;;;;;;;;;;;;;;;;;;;;;;;;;;;;;;"4003";"2014-10-13 20:21:34.966";"leftResponse";"0";"FINISHED";"LEFT";"success";"2384";"0";"2014-10-13 20:21:30.963"
"louise3004";;;"Windows 8";"Rachel's Experiment (D.T.)";"1.0";"2";"1";"1";"2";"1";"1";"2014-10-13 20:20:07.744";"2014-10-13 20:33:09.894";"1";"0";"1";"2";"1";"module.GoNoGotutorial.exec-5354.GoNoGo_Tutorial";;;;;;;;;;;;;;;;;;;;;;;;;;;;;;;;;;;;;;;;;;;;;;;;;;;;;;;;;;;;;;;;;;;;;;;;;;;;;;;;;;"4000";"2014-10-13 20:21:40.311";"rightResponse";"1";"FINISHED";"RIGHT";"success";"747";"0";"2014-10-13 20:21:36.310"
"louise3004";;;"Windows 8";"Rachel's Experiment (D.T.)";"1.0";"2";"1";"1";"2";"1";"1";"2014-10-13 20:20:07.744";"2014-10-13 20:33:09.894";"1";"0";"1";"3";"2";"module.GoNoGotutorial.exec-5354.GoNoGo_Tutorial";;;;;;;;;;;;;;;;;;;;;;;;;;;;;;;;;;;;;;;;;;;;;;;;;;;;;;;;;;;;;;;;;;;;;;;;;;;;;;;;;;"4000";"2014-10-13 20:21:45.628";"signalResponse";"0";"FINISHED";"NONE";"success";"0";"1";"2014-10-13 20:21:41.627"
"louise3004";;;"Windows 8";"Rachel's Experiment (D.T.)";"1.0";"2";"1";"1";"2";"1";"1";"2014-10-13 20:20:07.744";"2014-10-13 20:33:09.894";"1";"0";"1";"4";"3";"module.GoNoGopractice.exec-7016.GoNoGo_Practice";;;;;;;;;;;;;;;;;;;;;;;;;;;;;;;;;;;;;;;;;;;;;;;;;;;;;;;;;;;;;;;;;;;;;;;"1966";"2014-10-13 20:21:52.850";"18";"0";"FINISHED";"LEFT";"success";"421";"0";"2014-10-13 20:21:50.883";"3";;;;;;;;;;
"louise3004";;;"Windows 8";"Rachel's Experiment (D.T.)";"1.0";"2";"1";"1";"2";"1";"1";"2014-10-13 20:20:07.744";"2014-10-13 20:33:09.894";"1";"0";"1";"5";"4";"module.GoNoGopractice.exec-7016.GoNoGo_Practice";;;;;;;;;;;;;;;;;;;;;;;;;;;;;;;;;;;;;;;;;;;;;;;;;;;;;;;;;;;;;;;;;;;;;;;"1954";"2014-10-13 20:21:56.125";"21";"1";"FINISHED";"RIGHT";"success";"304";"0";"2014-10-13 20:21:54.170";"3";;;;;;;;;;
"louise3004";;;"Windows 8";"Rachel's Experiment (D.T.)";"1.0";"2";"1";"1";"2";"1";"1";"2014-10-13 20:20:07.744";"2014-10-13 20:33:09.894";"1";"0";"1";"6";"5";"module.GoNoGopractice.exec-7016.GoNoGo_Practice";;;;;;;;;;;;;;;;;;;;;;;;;;;;;;;;;;;;;;;;;;;;;;;;;;;;;;;;;;;;;;;;;;;;;;;"1960";"2014-10-13 20:21:59.399";"14";"1";"FINISHED";"RIGHT";"failure";"663";"1";"2014-10-13 20:21:57.438";"2";;;;;;;;;;
"louise3004";;;"Windows 8";"Rachel's Experiment (D.T.)";"1.0";"2";"1";"1";"2";"1";"1";"2014-10-13 20:20:07.744";"2014-10-13 20:33:09.894";"1";"0";"1";"7";"6";"module.GoNoGopractice.exec-7016.GoNoGo_Practice";;;;;;;;;;;;;;;;;;;;;;;;;;;;;;;;;;;;;;;;;;;;;;;;;;;;;;;;;;;;;;;;;;;;;;;"1958";"2014-10-13 20:22:02.891";"26";"0";"FINISHED";"LEFT";"success";"548";"0";"2014-10-13 20:22:00.933";"3";;;;;;;;;;
"louise3004";;;"Windows 8";"Rachel's Experiment (D.T.)";"1.0";"2";"1";"1";"2";"1";"1";"2014-10-13 20:20:07.744";"2014-10-13 20:33:09.894";"1";"0";"1";"8";"7";"module.GoNoGopractice.exec-7016.GoNoGo_Practice";;;;;;;;;;;;;;;;;;;;;;;;;;;;;;;;;;;;;;;;;;;;;;;;;;;;;;;;;;;;;;;;;;;;;;;"1954";"2014-10-13 20:22:06.154";"2";"0";"FINISHED";"LEFT";"success";"492";"0";"2014-10-13 20:22:04.200";"1";;;;;;;;;;
"louise3004";;;"Windows 8";"Rachel's Experiment (D.T.)";"1.0";"2";"1";"1";"2";"1";"1";"2014-10-13 20:20:07.744";"2014-10-13 20:33:09.894";"1";"0";"1";"9";"8";"module.GoNoGopractice.exec-7016.GoNoGo_Practice";;;;;;;;;;;;;;;;;;;;;;;;;;;;;;;;;;;;;;;;;;;;;;;;;;;;;;;;;;;;;;;;;;;;;;;"1960";"2014-10-13 20:22:09.430";"30";"0";"FINISHED";"NONE";"success";"0";"1";"2014-10-13 20:22:07.470";"3";;;;;;;;;;
"louise3004";;;"Windows 8";"Rachel's Experiment (D.T.)";"1.0";"2";"1";"1";"2";"1";"1";"2014-10-13 20:20:07.744";"2014-10-13 20:33:09.894";"1";"0";"1";"10";"9";"module.GoNoGopractice.exec-7016.GoNoGo_Practice";;;;;;;;;;;;;;;;;;;;;;;;;;;;;;;;;;;;;;;;;;;;;;;;;;;;;;;;;;;;;;;;;;;;;;;"1953";"2014-10-13 20:22:12.695";"6";"1";"FINISHED";"NONE";"success";"0";"1";"2014-10-13 20:22:10.742";"1";;;;;;;;;;
"louise3004";;;"Windows 8";"Rachel's Experiment (D.T.)";"1.0";"2";"1";"1";"2";"1";"1";"2014-10-13 20:20:07.744";"2014-10-13 20:33:09.894";"1";"0";"1";"11";"10";"module.GoNoGopractice.exec-7016.GoNoGo_Practice";;;;;;;;;;;;;;;;;;;;;;;;;;;;;;;;;;;;;;;;;;;;;;;;;;;;;;;;;;;;;;;;;;;;;;;"1954";"2014-10-13 20:22:15.957";"34";"0";"FINISHED";"LEFT";"success";"578";"0";"2014-10-13 20:22:14.002";"3";;;;;;;;;;
"louise3004";;;"Windows 8";"Rachel's Experiment (D.T.)";"1.0";"2";"1";"1";"2";"1";"1";"2014-10-13 20:20:07.744";"2014-10-13 20:33:09.894";"1";"0";"1";"12";"11";"module.GoNoGopractice.exec-7016.GoNoGo_Practice";;;;;;;;;;;;;;;;;;;;;;;;;;;;;;;;;;;;;;;;;;;;;;;;;;;;;;;;;;;;;;;;;;;;;;;"1954";"2014-10-13 20:22:19.225";"23";"1";"FINISHED";"RIGHT";"success";"460";"0";"2014-10-13 20:22:17.270";"3";;;;;;;;;;
"louise3004";;;"Windows 8";"Rachel's Experiment (D.T.)";"1.0";"2";"1";"1";"2";"1";"1";"2014-10-13 20:20:07.744";"2014-10-13 20:33:09.894";"1";"0";"1";"13";"12";"module.GoNoGopractice.exec-7016.GoNoGo_Practice";;;;;;;;;;;;;;;;;;;;;;;;;;;;;;;;;;;;;;;;;;;;;;;;;;;;;;;;;;;;;;;;;;;;;;;"1954";"2014-10-13 20:22:22.482";"13";"0";"FINISHED";"NONE";"success";"0";"1";"2014-10-13 20:22:20.528";"2";;;;;;;;;;
"louise3004";;;"Windows 8";"Rachel's Experiment (D.T.)";"1.0";"2";"1";"1";"2";"1";"1";"2014-10-13 20:20:07.744";"2014-10-13 20:33:09.894";"1";"0";"1";"14";"13";"module.GoNoGopractice.exec-7016.GoNoGo_Practice";;;;;;;;;;;;;;;;;;;;;;;;;;;;;;;;;;;;;;;;;;;;;;;;;;;;;;;;;;;;;;;;;;;;;;;"1954";"2014-10-13 20:22:25.745";"3";"1";"FINISHED";"RIGHT";"success";"545";"0";"2014-10-13 20:22:23.790";"1";;;;;;;;;;
"louise3004";;;"Windows 8";"Rachel's Experiment (D.T.)";"1.0";"2";"1";"1";"2";"1";"1";"2014-10-13 20:20:07.744";"2014-10-13 20:33:09.894";"1";"0";"1";"15";"14";"module.GoNoGopractice.exec-7016.GoNoGo_Practice";;;;;;;;;;;;;;;;;;;;;;;;;;;;;;;;;;;;;;;;;;;;;;;;;;;;;;;;;;;;;;;;;;;;;;;"1953";"2014-10-13 20:22:29.016";"27";"1";"FINISHED";"NONE";"success";"0";"1";"2014-10-13 20:22:27.061";"3";;;;;;;;;;
"louise3004";;;"Windows 8";"Rachel's Experiment (D.T.)";"1.0";"2";"1";"1";"2";"1";"1";"2014-10-13 20:20:07.744";"2014-10-13 20:33:09.894";"1";"0";"1";"16";"15";"module.training_block1.exec-5493.GoNoGo1";;;;;;;;;;;;;;;;;;;;;;;"1253";"2014-10-13 20:22:36.165";"NST_correctLoc";"15";"1";"FINISHED";"RIGHT";"success";"448";"0";"2014-10-13 20:22:34.912";"2";;;;;;;;;;;;;;;;;;;;;;;;;;;;;;;;;;;;;;;;;;;;;;;;;;;;;;;;;
"louise3004";;;"Windows 8";"Rachel's Experiment (D.T.)";"1.0";"2";"1";"1";"2";"1";"1";"2014-10-13 20:20:07.744";"2014-10-13 20:33:09.894";"1";"0";"1";"17";"16";"module.training_block1.exec-5493.GoNoGo1";;;;;;;;;;;;;;;;;;;;;;;"1249";"2014-10-13 20:22:38.722";"NST_correctLoc";"16";"0";"FINISHED";"LEFT";"success";"464";"0";"2014-10-13 20:22:37.472";"2";;;;;;;;;;;;;;;;;;;;;;;;;;;;;;;;;;;;;;;;;;;;;;;;;;;;;;;;;
"louise3004";;;"Windows 8";"Rachel's Experiment (D.T.)";"1.0";"2";"1";"1";"2";"1";"1";"2014-10-13 20:20:07.744";"2014-10-13 20:33:09.894";"1";"0";"1";"18";"17";"module.training_block1.exec-5493.GoNoGo1";;;;;;;;;;;;;;;;;;;;;;;"1250";"2014-10-13 20:22:41.271";"NST_correctLoc";"34";"0";"FINISHED";"LEFT";"success";"483";"0";"2014-10-13 20:22:40.021";"3";;;;;;;;;;;;;;;;;;;;;;;;;;;;;;;;;;;;;;;;;;;;;;;;;;;;;;;;;
"louise3004";;;"Windows 8";"Rachel's Experiment (D.T.)";"1.0";"2";"1";"1";"2";"1";"1";"2014-10-13 20:20:07.744";"2014-10-13 20:33:09.894";"1";"0";"1";"19";"18";"module.training_block1.exec-5493.GoNoGo1";;;;;;;;;;;;;;;;;;;;;;;"1250";"2014-10-13 20:22:43.829";"NST_correctLoc";"11";"0";"FINISHED";"LEFT";"success";"464";"0";"2014-10-13 20:22:42.578";"2";;;;;;;;;;;;;;;;;;;;;;;;;;;;;;;;;;;;;;;;;;;;;;;;;;;;;;;;;
"louise3004";;;"Windows 8";"Rachel's Experiment (D.T.)";"1.0";"2";"1";"1";"2";"1";"1";"2014-10-13 20:20:07.744";"2014-10-13 20:33:09.894";"1";"0";"1";"20";"19";"module.training_block1.exec-5493.GoNoGo1";;;;;;;;;;;;;;;;;;;;;;;"1250";"2014-10-13 20:22:46.389";"NST_correctLoc";"9";"1";"FINISHED";"RIGHT";"success";"460";"0";"2014-10-13 20:22:45.138";"2";;;;;;;;;;;;;;;;;;;;;;;;;;;;;;;;;;;;;;;;;;;;;;;;;;;;;;;;;
"louise3004";;;"Windows 8";"Rachel's Experiment (D.T.)";"1.0";"2";"1";"1";"2";"1";"1";"2014-10-13 20:20:07.744";"2014-10-13 20:33:09.894";"1";"0";"1";"21";"20";"module.training_block1.exec-5493.GoNoGo1";;;;;;;;;;;;;;;;;;;;;;;"1250";"2014-10-13 20:22:48.934";"NST_correctLoc";"27";"0";"FINISHED";"LEFT";"success";"389";"0";"2014-10-13 20:22:47.683";"3";;;;;;;;;;;;;;;;;;;;;;;;;;;;;;;;;;;;;;;;;;;;;;;;;;;;;;;;;
"louise3004";;;"Windows 8";"Rachel's Experiment (D.T.)";"1.0";"2";"1";"1";"2";"1";"1";"2014-10-13 20:20:07.744";"2014-10-13 20:33:09.894";"1";"0";"1";"22";"21";"module.training_block1.exec-5493.GoNoGo1";;;;;;;;;;;;;;;;;;;;;;;"1249";"2014-10-13 20:22:51.493";"ST_failedStop";"31";"1";"FINISHED";"RIGHT";"failure";"425";"1";"2014-10-13 20:22:50.243";"3";;;;;;;;;;;;;;;;;;;;;;;;;;;;;;;;;;;;;;;;;;;;;;;;;;;;;;;;;
"louise3004";;;"Windows 8";"Rachel's Experiment (D.T.)";"1.0";"2";"1";"1";"2";"1";"1";"2014-10-13 20:20:07.744";"2014-10-13 20:33:09.894";"1";"0";"1";"23";"22";"module.training_block1.exec-5493.GoNoGo1";;;;;;;;;;;;;;;;;;;;;;;"1250";"2014-10-13 20:22:54.049";"ST_correctStop";"0";"1";"FINISHED";"NONE";"success";"0";"1";"2014-10-13 20:22:52.798";"1";;;;;;;;;;;;;;;;;;;;;;;;;;;;;;;;;;;;;;;;;;;;;;;;;;;;;;;;;
"louise3004";;;"Windows 8";"Rachel's Experiment (D.T.)";"1.0";"2";"1";"1";"2";"1";"1";"2014-10-13 20:20:07.744";"2014-10-13 20:33:09.894";"1";"0";"1";"24";"23";"module.training_block1.exec-5493.GoNoGo1";;;;;;;;;;;;;;;;;;;;;;;"1249";"2014-10-13 20:22:56.606";"ST_correctStop";"5";"1";"FINISHED";"NONE";"success";"0";"1";"2014-10-13 20:22:55.356";"1";;;;;;;;;;;;;;;;;;;;;;;;;;;;;;;;;;;;;;;;;;;;;;;;;;;;;;;;;
"louise3004";;;"Windows 8";"Rachel's Experiment (D.T.)";"1.0";"2";"1";"1";"2";"1";"1";"2014-10-13 20:20:07.744";"2014-10-13 20:33:09.894";"1";"0";"1";"25";"24";"module.training_block1.exec-5493.GoNoGo1";;;;;;;;;;;;;;;;;;;;;;;"1249";"2014-10-13 20:22:59.149";"ST_correctStop";"3";"1";"FINISHED";"NONE";"success";"0";"1";"2014-10-13 20:22:57.899";"1";;;;;;;;;;;;;;;;;;;;;;;;;;;;;;;;;;;;;;;;;;;;;;;;;;;;;;;;;
"louise3004";;;"Windows 8";"Rachel's Experiment (D.T.)";"1.0";"2";"1";"1";"2";"1";"1";"2014-10-13 20:20:07.744";"2014-10-13 20:33:09.894";"1";"0";"1";"26";"25";"module.training_block1.exec-5493.GoNoGo1";;;;;;;;;;;;;;;;;;;;;;;"1250";"2014-10-13 20:23:01.709";"ST_correctStop";"22";"0";"FINISHED";"NONE";"success";"0";"1";"2014-10-13 20:23:00.458";"3";;;;;;;;;;;;;;;;;;;;;;;;;;;;;;;;;;;;;;;;;;;;;;;;;;;;;;;;;
"louise3004";;;"Windows 8";"Rachel's Experiment (D.T.)";"1.0";"2";"1";"1";"2";"1";"1";"2014-10-13 20:20:07.744";"2014-10-13 20:33:09.894";"1";"0";"1";"27";"26";"module.training_block1.exec-5493.GoNoGo1";;;;;;;;;;;;;;;;;;;;;;;"1250";"2014-10-13 20:23:04.260";"ST_correctStop";"20";"1";"FINISHED";"NONE";"success";"0";"1";"2014-10-13 20:23:03.009";"3";;;;;;;;;;;;;;;;;;;;;;;;;;;;;;;;;;;;;;;;;;;;;;;;;;;;;;;;;
"louise3004";;;"Windows 8";"Rachel's Experiment (D.T.)";"1.0";"2";"1";"1";"2";"1";"1";"2014-10-13 20:20:07.744";"2014-10-13 20:33:09.894";"1";"0";"1";"28";"27";"module.training_block1.exec-5493.GoNoGo1";;;;;;;;;;;;;;;;;;;;;;;"1250";"2014-10-13 20:23:06.819";"ST_correctStop";"2";"0";"FINISHED";"NONE";"success";"0";"1";"2014-10-13 20:23:05.569";"1";;;;;;;;;;;;;;;;;;;;;;;;;;;;;;;;;;;;;;;;;;;;;;;;;;;;;;;;;
"louise3004";;;"Windows 8";"Rachel's Experiment (D.T.)";"1.0";"2";"1";"1";"2";"1";"1";"2014-10-13 20:20:07.744";"2014-10-13 20:33:09.894";"1";"0";"1";"29";"28";"module.training_block1.exec-5493.GoNoGo1";;;;;;;;;;;;;;;;;;;;;;;"1250";"2014-10-13 20:23:09.366";"ST_correctStop";"23";"0";"FINISHED";"NONE";"success";"0";"1";"2014-10-13 20:23:08.115";"3";;;;;;;;;;;;;;;;;;;;;;;;;;;;;;;;;;;;;;;;;;;;;;;;;;;;;;;;;
"louise3004";;;"Windows 8";"Rachel's Experiment (D.T.)";"1.0";"2";"1";"1";"2";"1";"1";"2014-10-13 20:20:07.744";"2014-10-13 20:33:09.894";"1";"0";"1";"30";"29";"module.training_block1.exec-5493.GoNoGo1";;;;;;;;;;;;;;;;;;;;;;;"1249";"2014-10-13 20:23:11.920";"NST_correctLoc";"21";"0";"FINISHED";"LEFT";"success";"531";"0";"2014-10-13 20:23:10.670";"3";;;;;;;;;;;;;;;;;;;;;;;;;;;;;;;;;;;;;;;;;;;;;;;;;;;;;;;;;
"louise3004";;;"Windows 8";"Rachel's Experiment (D.T.)";"1.0";"2";"1";"1";"2";"1";"1";"2014-10-13 20:20:07.744";"2014-10-13 20:33:09.894";"1";"0";"1";"31";"30";"module.training_block1.exec-5493.GoNoGo1";;;;;;;;;;;;;;;;;;;;;;;"1250";"2014-10-13 20:23:14.476";"NST_correctLoc";"28";"0";"FINISHED";"LEFT";"success";"457";"0";"2014-10-13 20:23:13.225";"3";;;;;;;;;;;;;;;;;;;;;;;;;;;;;;;;;;;;;;;;;;;;;;;;;;;;;;;;;
"louise3004";;;"Windows 8";"Rachel's Experiment (D.T.)";"1.0";"2";"1";"1";"2";"1";"1";"2014-10-13 20:20:07.744";"2014-10-13 20:33:09.894";"1";"0";"1";"32";"31";"module.training_block1.exec-5493.GoNoGo1";;;;;;;;;;;;;;;;;;;;;;;"1250";"2014-10-13 20:23:17.021";"ST_correctStop";"6";"0";"FINISHED";"NONE";"success";"0";"1";"2014-10-13 20:23:15.770";"1";;;;;;;;;;;;;;;;;;;;;;;;;;;;;;;;;;;;;;;;;;;;;;;;;;;;;;;;;
"louise3004";;;"Windows 8";"Rachel's Experiment (D.T.)";"1.0";"2";"1";"1";"2";"1";"1";"2014-10-13 20:20:07.744";"2014-10-13 20:33:09.894";"1";"0";"1";"33";"32";"module.training_block1.exec-5493.GoNoGo1";;;;;;;;;;;;;;;;;;;;;;;"1249";"2014-10-13 20:23:19.569";"NST_correctLoc";"19";"1";"FINISHED";"RIGHT";"success";"552";"0";"2014-10-13 20:23:18.319";"3";;;;;;;;;;;;;;;;;;;;;;;;;;;;;;;;;;;;;;;;;;;;;;;;;;;;;;;;;
"louise3004";;;"Windows 8";"Rachel's Experiment (D.T.)";"1.0";"2";"1";"1";"2";"1";"1";"2014-10-13 20:20:07.744";"2014-10-13 20:33:09.894";"1";"0";"1";"34";"33";"module.training_block1.exec-5493.GoNoGo1";;;;;;;;;;;;;;;;;;;;;;;"1250";"2014-10-13 20:23:22.120";"ST_correctStop";"35";"0";"FINISHED";"NONE";"success";"0";"1";"2014-10-13 20:23:20.869";"3";;;;;;;;;;;;;;;;;;;;;;;;;;;;;;;;;;;;;;;;;;;;;;;;;;;;;;;;;
"louise3004";;;"Windows 8";"Rachel's Experiment (D.T.)";"1.0";"2";"1";"1";"2";"1";"1";"2014-10-13 20:20:07.744";"2014-10-13 20:33:09.894";"1";"0";"1";"35";"34";"module.training_block1.exec-5493.GoNoGo1";;;;;;;;;;;;;;;;;;;;;;;"1249";"2014-10-13 20:23:24.669";"ST_correctStop";"32";"0";"FINISHED";"NONE";"success";"0";"1";"2014-10-13 20:23:23.419";"3";;;;;;;;;;;;;;;;;;;;;;;;;;;;;;;;;;;;;;;;;;;;;;;;;;;;;;;;;
"louise3004";;;"Windows 8";"Rachel's Experiment (D.T.)";"1.0";"2";"1";"1";"2";"1";"1";"2014-10-13 20:20:07.744";"2014-10-13 20:33:09.894";"1";"0";"1";"36";"35";"module.training_block1.exec-5493.GoNoGo1";;;;;;;;;;;;;;;;;;;;;;;"1250";"2014-10-13 20:23:27.219";"NST_correctLoc";"29";"1";"FINISHED";"RIGHT";"success";"524";"0";"2014-10-13 20:23:25.968";"3";;;;;;;;;;;;;;;;;;;;;;;;;;;;;;;;;;;;;;;;;;;;;;;;;;;;;;;;;
"louise3004";;;"Windows 8";"Rachel's Experiment (D.T.)";"1.0";"2";"1";"1";"2";"1";"1";"2014-10-13 20:20:07.744";"2014-10-13 20:33:09.894";"1";"0";"1";"37";"36";"module.training_block1.exec-5493.GoNoGo1";;;;;;;;;;;;;;;;;;;;;;;"1250";"2014-10-13 20:23:29.767";"ST_correctStop";"25";"1";"FINISHED";"NONE";"success";"0";"1";"2014-10-13 20:23:28.516";"3";;;;;;;;;;;;;;;;;;;;;;;;;;;;;;;;;;;;;;;;;;;;;;;;;;;;;;;;;
"louise3004";;;"Windows 8";"Rachel's Experiment (D.T.)";"1.0";"2";"1";"1";"2";"1";"1";"2014-10-13 20:20:07.744";"2014-10-13 20:33:09.894";"1";"0";"1";"38";"37";"module.training_block1.exec-5493.GoNoGo1";;;;;;;;;;;;;;;;;;;;;;;"1250";"2014-10-13 20:23:32.317";"ST_correctStop";"1";"0";"FINISHED";"NONE";"success";"0";"1";"2014-10-13 20:23:31.066";"1";;;;;;;;;;;;;;;;;;;;;;;;;;;;;;;;;;;;;;;;;;;;;;;;;;;;;;;;;
"louise3004";;;"Windows 8";"Rachel's Experiment (D.T.)";"1.0";"2";"1";"1";"2";"1";"1";"2014-10-13 20:20:07.744";"2014-10-13 20:33:09.894";"1";"0";"1";"39";"38";"module.training_block1.exec-5493.GoNoGo1";;;;;;;;;;;;;;;;;;;;;;;"1249";"2014-10-13 20:23:34.863";"NST_correctLoc";"12";"0";"FINISHED";"LEFT";"success";"505";"0";"2014-10-13 20:23:33.613";"2";;;;;;;;;;;;;;;;;;;;;;;;;;;;;;;;;;;;;;;;;;;;;;;;;;;;;;;;;
"louise3004";;;"Windows 8";"Rachel's Experiment (D.T.)";"1.0";"2";"1";"1";"2";"1";"1";"2014-10-13 20:20:07.744";"2014-10-13 20:33:09.894";"1";"0";"1";"40";"39";"module.training_block1.exec-5493.GoNoGo1";;;;;;;;;;;;;;;;;;;;;;;"1250";"2014-10-13 20:23:37.420";"NST_correctLoc";"33";"1";"FINISHED";"RIGHT";"success";"467";"0";"2014-10-13 20:23:36.170";"3";;;;;;;;;;;;;;;;;;;;;;;;;;;;;;;;;;;;;;;;;;;;;;;;;;;;;;;;;
"louise3004";;;"Windows 8";"Rachel's Experiment (D.T.)";"1.0";"2";"1";"1";"2";"1";"1";"2014-10-13 20:20:07.744";"2014-10-13 20:33:09.894";"1";"0";"1";"41";"40";"module.training_block1.exec-5493.GoNoGo1";;;;;;;;;;;;;;;;;;;;;;;"1250";"2014-10-13 20:23:39.971";"ST_correctStop";"8";"0";"FINISHED";"NONE";"success";"0";"1";"2014-10-13 20:23:38.720";"1";;;;;;;;;;;;;;;;;;;;;;;;;;;;;;;;;;;;;;;;;;;;;;;;;;;;;;;;;
"louise3004";;;"Windows 8";"Rachel's Experiment (D.T.)";"1.0";"2";"1";"1";"2";"1";"1";"2014-10-13 20:20:07.744";"2014-10-13 20:33:09.894";"1";"0";"1";"42";"41";"module.training_block1.exec-5493.GoNoGo1";;;;;;;;;;;;;;;;;;;;;;;"1249";"2014-10-13 20:23:42.519";"ST_correctStop";"4";"0";"FINISHED";"NONE";"success";"0";"1";"2014-10-13 20:23:41.269";"1";;;;;;;;;;;;;;;;;;;;;;;;;;;;;;;;;;;;;;;;;;;;;;;;;;;;;;;;;
"louise3004";;;"Windows 8";"Rachel's Experiment (D.T.)";"1.0";"2";"1";"1";"2";"1";"1";"2014-10-13 20:20:07.744";"2014-10-13 20:33:09.894";"1";"0";"1";"43";"42";"module.training_block1.exec-5493.GoNoGo1";;;;;;;;;;;;;;;;;;;;;;;"1250";"2014-10-13 20:23:45.068";"NST_correctLoc";"17";"1";"FINISHED";"RIGHT";"success";"441";"0";"2014-10-13 20:23:43.817";"2";;;;;;;;;;;;;;;;;;;;;;;;;;;;;;;;;;;;;;;;;;;;;;;;;;;;;;;;;
"louise3004";;;"Windows 8";"Rachel's Experiment (D.T.)";"1.0";"2";"1";"1";"2";"1";"1";"2014-10-13 20:20:07.744";"2014-10-13 20:33:09.894";"1";"0";"1";"44";"43";"module.training_block1.exec-5493.GoNoGo1";;;;;;;;;;;;;;;;;;;;;;;"1250";"2014-10-13 20:23:47.619";"NST_correctLoc";"14";"1";"FINISHED";"RIGHT";"success";"629";"0";"2014-10-13 20:23:46.368";"2";;;;;;;;;;;;;;;;;;;;;;;;;;;;;;;;;;;;;;;;;;;;;;;;;;;;;;;;;
"louise3004";;;"Windows 8";"Rachel's Experiment (D.T.)";"1.0";"2";"1";"1";"2";"1";"1";"2014-10-13 20:20:07.744";"2014-10-13 20:33:09.894";"1";"0";"1";"45";"44";"module.training_block1.exec-5493.GoNoGo1";;;;;;;;;;;;;;;;;;;;;;;"1250";"2014-10-13 20:23:50.172";"NST_correctLoc";"18";"1";"FINISHED";"RIGHT";"success";"642";"0";"2014-10-13 20:23:48.922";"3";;;;;;;;;;;;;;;;;;;;;;;;;;;;;;;;;;;;;;;;;;;;;;;;;;;;;;;;;
"louise3004";;;"Windows 8";"Rachel's Experiment (D.T.)";"1.0";"2";"1";"1";"2";"1";"1";"2014-10-13 20:20:07.744";"2014-10-13 20:33:09.894";"1";"0";"1";"46";"45";"module.training_block1.exec-5493.GoNoGo1";;;;;;;;;;;;;;;;;;;;;;;"1250";"2014-10-13 20:23:52.718";"NST_correctLoc";"10";"0";"FINISHED";"LEFT";"success";"670";"0";"2014-10-13 20:23:51.468";"2";;;;;;;;;;;;;;;;;;;;;;;;;;;;;;;;;;;;;;;;;;;;;;;;;;;;;;;;;
"louise3004";;;"Windows 8";"Rachel's Experiment (D.T.)";"1.0";"2";"1";"1";"2";"1";"1";"2014-10-13 20:20:07.744";"2014-10-13 20:33:09.894";"1";"0";"1";"47";"46";"module.training_block1.exec-5493.GoNoGo1";;;;;;;;;;;;;;;;;;;;;;;"1250";"2014-10-13 20:23:55.259";"NST_correctLoc";"30";"0";"FINISHED";"LEFT";"success";"659";"0";"2014-10-13 20:23:54.008";"3";;;;;;;;;;;;;;;;;;;;;;;;;;;;;;;;;;;;;;;;;;;;;;;;;;;;;;;;;
"louise3004";;;"Windows 8";"Rachel's Experiment (D.T.)";"1.0";"2";"1";"1";"2";"1";"1";"2014-10-13 20:20:07.744";"2014-10-13 20:33:09.894";"1";"0";"1";"48";"47";"module.training_block1.exec-5493.GoNoGo1";;;;;;;;;;;;;;;;;;;;;;;"1250";"2014-10-13 20:23:57.802";"ST_correctStop";"26";"0";"FINISHED";"NONE";"success";"0";"1";"2014-10-13 20:23:56.551";"3";;;;;;;;;;;;;;;;;;;;;;;;;;;;;;;;;;;;;;;;;;;;;;;;;;;;;;;;;
"louise3004";;;"Windows 8";"Rachel's Experiment (D.T.)";"1.0";"2";"1";"1";"2";"1";"1";"2014-10-13 20:20:07.744";"2014-10-13 20:33:09.894";"1";"0";"1";"49";"48";"module.training_block1.exec-5493.GoNoGo1";;;;;;;;;;;;;;;;;;;;;;;"1250";"2014-10-13 20:24:00.351";"ST_correctStop";"7";"0";"FINISHED";"NONE";"success";"0";"1";"2014-10-13 20:23:59.100";"1";;;;;;;;;;;;;;;;;;;;;;;;;;;;;;;;;;;;;;;;;;;;;;;;;;;;;;;;;
"louise3004";;;"Windows 8";"Rachel's Experiment (D.T.)";"1.0";"2";"1";"1";"2";"1";"1";"2014-10-13 20:20:07.744";"2014-10-13 20:33:09.894";"1";"0";"1";"50";"49";"module.training_block1.exec-5493.GoNoGo1";;;;;;;;;;;;;;;;;;;;;;;"1249";"2014-10-13 20:24:02.894";"NST_correctLoc";"13";"1";"FINISHED";"RIGHT";"success";"609";"0";"2014-10-13 20:24:01.644";"2";;;;;;;;;;;;;;;;;;;;;;;;;;;;;;;;;;;;;;;;;;;;;;;;;;;;;;;;;
"louise3004";;;"Windows 8";"Rachel's Experiment (D.T.)";"1.0";"2";"1";"1";"2";"1";"1";"2014-10-13 20:20:07.744";"2014-10-13 20:33:09.894";"1";"0";"1";"51";"50";"module.training_block1.exec-5493.GoNoGo1";;;;;;;;;;;;;;;;;;;;;;;"1250";"2014-10-13 20:24:05.445";"ST_correctStop";"24";"1";"FINISHED";"NONE";"success";"0";"1";"2014-10-13 20:24:04.195";"3";;;;;;;;;;;;;;;;;;;;;;;;;;;;;;;;;;;;;;;;;;;;;;;;;;;;;;;;;
"louise3004";;;"Windows 8";"Rachel's Experiment (D.T.)";"1.0";"2";"1";"1";"2";"1";"1";"2014-10-13 20:20:07.744";"2014-10-13 20:33:09.894";"1";"0";"1";"52";"51";"module.training_block2.exec-2219.GoNoGo2";;;;;;;;;;;;;;;;;;;;;;;;;;;;;;;;;;;"1249";"2014-10-13 20:24:16.396";"NST_correctLoc";"15";"0";"FINISHED";"LEFT";"success";"571";"0";"2014-10-13 20:24:15.145";"2";;;;;;;;;;;;;;;;;;;;;;;;;;;;;;;;;;;;;;;;;;;;;
"louise3004";;;"Windows 8";"Rachel's Experiment (D.T.)";"1.0";"2";"1";"1";"2";"1";"1";"2014-10-13 20:20:07.744";"2014-10-13 20:33:09.894";"1";"0";"1";"53";"52";"module.training_block2.exec-2219.GoNoGo2";;;;;;;;;;;;;;;;;;;;;;;;;;;;;;;;;;;"1251";"2014-10-13 20:24:18.938";"ST_correctStop";"19";"0";"FINISHED";"NONE";"success";"0";"1";"2014-10-13 20:24:17.687";"3";;;;;;;;;;;;;;;;;;;;;;;;;;;;;;;;;;;;;;;;;;;;;
"louise3004";;;"Windows 8";"Rachel's Experiment (D.T.)";"1.0";"2";"1";"1";"2";"1";"1";"2014-10-13 20:20:07.744";"2014-10-13 20:33:09.894";"1";"0";"1";"54";"53";"module.training_block2.exec-2219.GoNoGo2";;;;;;;;;;;;;;;;;;;;;;;;;;;;;;;;;;;"1250";"2014-10-13 20:24:21.478";"ST_correctStop";"5";"0";"FINISHED";"NONE";"success";"0";"1";"2014-10-13 20:24:20.228";"1";;;;;;;;;;;;;;;;;;;;;;;;;;;;;;;;;;;;;;;;;;;;;
"louise3004";;;"Windows 8";"Rachel's Experiment (D.T.)";"1.0";"2";"1";"1";"2";"1";"1";"2014-10-13 20:20:07.744";"2014-10-13 20:33:09.894";"1";"0";"1";"55";"54";"module.training_block2.exec-2219.GoNoGo2";;;;;;;;;;;;;;;;;;;;;;;;;;;;;;;;;;;"1250";"2014-10-13 20:24:24.018";"ST_correctStop";"7";"0";"FINISHED";"NONE";"success";"0";"1";"2014-10-13 20:24:22.767";"1";;;;;;;;;;;;;;;;;;;;;;;;;;;;;;;;;;;;;;;;;;;;;
"louise3004";;;"Windows 8";"Rachel's Experiment (D.T.)";"1.0";"2";"1";"1";"2";"1";"1";"2014-10-13 20:20:07.744";"2014-10-13 20:33:09.894";"1";"0";"1";"56";"55";"module.training_block2.exec-2219.GoNoGo2";;;;;;;;;;;;;;;;;;;;;;;;;;;;;;;;;;;"1249";"2014-10-13 20:24:26.556";"NST_correctLoc";"18";"0";"FINISHED";"LEFT";"success";"504";"0";"2014-10-13 20:24:25.306";"3";;;;;;;;;;;;;;;;;;;;;;;;;;;;;;;;;;;;;;;;;;;;;
"louise3004";;;"Windows 8";"Rachel's Experiment (D.T.)";"1.0";"2";"1";"1";"2";"1";"1";"2014-10-13 20:20:07.744";"2014-10-13 20:33:09.894";"1";"0";"1";"57";"56";"module.training_block2.exec-2219.GoNoGo2";;;;;;;;;;;;;;;;;;;;;;;;;;;;;;;;;;;"1250";"2014-10-13 20:24:29.102";"ST_correctStop";"3";"0";"FINISHED";"NONE";"success";"0";"1";"2014-10-13 20:24:27.851";"1";;;;;;;;;;;;;;;;;;;;;;;;;;;;;;;;;;;;;;;;;;;;;
"louise3004";;;"Windows 8";"Rachel's Experiment (D.T.)";"1.0";"2";"1";"1";"2";"1";"1";"2014-10-13 20:20:07.744";"2014-10-13 20:33:09.894";"1";"0";"1";"58";"57";"module.training_block2.exec-2219.GoNoGo2";;;;;;;;;;;;;;;;;;;;;;;;;;;;;;;;;;;"1250";"2014-10-13 20:24:31.640";"NST_correctLoc";"13";"1";"FINISHED";"RIGHT";"success";"505";"0";"2014-10-13 20:24:30.389";"2";;;;;;;;;;;;;;;;;;;;;;;;;;;;;;;;;;;;;;;;;;;;;
"louise3004";;;"Windows 8";"Rachel's Experiment (D.T.)";"1.0";"2";"1";"1";"2";"1";"1";"2014-10-13 20:20:07.744";"2014-10-13 20:33:09.894";"1";"0";"1";"59";"58";"module.training_block2.exec-2219.GoNoGo2";;;;;;;;;;;;;;;;;;;;;;;;;;;;;;;;;;;"1249";"2014-10-13 20:24:34.188";"ST_correctStop";"33";"0";"FINISHED";"NONE";"success";"0";"1";"2014-10-13 20:24:32.938";"3";;;;;;;;;;;;;;;;;;;;;;;;;;;;;;;;;;;;;;;;;;;;;
"louise3004";;;"Windows 8";"Rachel's Experiment (D.T.)";"1.0";"2";"1";"1";"2";"1";"1";"2014-10-13 20:20:07.744";"2014-10-13 20:33:09.894";"1";"0";"1";"60";"59";"module.training_block2.exec-2219.GoNoGo2";;;;;;;;;;;;;;;;;;;;;;;;;;;;;;;;;;;"1250";"2014-10-13 20:24:36.729";"ST_correctStop";"26";"1";"FINISHED";"NONE";"success";"0";"1";"2014-10-13 20:24:35.478";"3";;;;;;;;;;;;;;;;;;;;;;;;;;;;;;;;;;;;;;;;;;;;;
"louise3004";;;"Windows 8";"Rachel's Experiment (D.T.)";"1.0";"2";"1";"1";"2";"1";"1";"2014-10-13 20:20:07.744";"2014-10-13 20:33:09.894";"1";"0";"1";"61";"60";"module.training_block2.exec-2219.GoNoGo2";;;;;;;;;;;;;;;;;;;;;;;;;;;;;;;;;;;"1250";"2014-10-13 20:24:39.269";"ST_correctStop";"21";"1";"FINISHED";"NONE";"success";"0";"1";"2014-10-13 20:24:38.018";"3";;;;;;;;;;;;;;;;;;;;;;;;;;;;;;;;;;;;;;;;;;;;;
"louise3004";;;"Windows 8";"Rachel's Experiment (D.T.)";"1.0";"2";"1";"1";"2";"1";"1";"2014-10-13 20:20:07.744";"2014-10-13 20:33:09.894";"1";"0";"1";"62";"61";"module.training_block2.exec-2219.GoNoGo2";;;;;;;;;;;;;;;;;;;;;;;;;;;;;;;;;;;"1250";"2014-10-13 20:24:41.806";"NST_correctLoc";"9";"1";"FINISHED";"RIGHT";"success";"469";"0";"2014-10-13 20:24:40.556";"2";;;;;;;;;;;;;;;;;;;;;;;;;;;;;;;;;;;;;;;;;;;;;
"louise3004";;;"Windows 8";"Rachel's Experiment (D.T.)";"1.0";"2";"1";"1";"2";"1";"1";"2014-10-13 20:20:07.744";"2014-10-13 20:33:09.894";"1";"0";"1";"63";"62";"module.training_block2.exec-2219.GoNoGo2";;;;;;;;;;;;;;;;;;;;;;;;;;;;;;;;;;;"1250";"2014-10-13 20:24:44.346";"ST_failedStop";"31";"0";"FINISHED";"LEFT";"failure";"538";"1";"2014-10-13 20:24:43.096";"3";;;;;;;;;;;;;;;;;;;;;;;;;;;;;;;;;;;;;;;;;;;;;
"louise3004";;;"Windows 8";"Rachel's Experiment (D.T.)";"1.0";"2";"1";"1";"2";"1";"1";"2014-10-13 20:20:07.744";"2014-10-13 20:33:09.894";"1";"0";"1";"64";"63";"module.training_block2.exec-2219.GoNoGo2";;;;;;;;;;;;;;;;;;;;;;;;;;;;;;;;;;;"1249";"2014-10-13 20:24:46.891";"ST_correctStop";"2";"1";"FINISHED";"NONE";"success";"0";"1";"2014-10-13 20:24:45.641";"1";;;;;;;;;;;;;;;;;;;;;;;;;;;;;;;;;;;;;;;;;;;;;
"louise3004";;;"Windows 8";"Rachel's Experiment (D.T.)";"1.0";"2";"1";"1";"2";"1";"1";"2014-10-13 20:20:07.744";"2014-10-13 20:33:09.894";"1";"0";"1";"65";"64";"module.training_block2.exec-2219.GoNoGo2";;;;;;;;;;;;;;;;;;;;;;;;;;;;;;;;;;;"1251";"2014-10-13 20:24:49.428";"ST_correctStop";"28";"1";"FINISHED";"NONE";"success";"0";"1";"2014-10-13 20:24:48.177";"3";;;;;;;;;;;;;;;;;;;;;;;;;;;;;;;;;;;;;;;;;;;;;
"louise3004";;;"Windows 8";"Rachel's Experiment (D.T.)";"1.0";"2";"1";"1";"2";"1";"1";"2014-10-13 20:20:07.744";"2014-10-13 20:33:09.894";"1";"0";"1";"66";"65";"module.training_block2.exec-2219.GoNoGo2";;;;;;;;;;;;;;;;;;;;;;;;;;;;;;;;;;;"1250";"2014-10-13 20:24:51.966";"NST_correctLoc";"17";"1";"FINISHED";"RIGHT";"success";"692";"0";"2014-10-13 20:24:50.716";"2";;;;;;;;;;;;;;;;;;;;;;;;;;;;;;;;;;;;;;;;;;;;;
"louise3004";;;"Windows 8";"Rachel's Experiment (D.T.)";"1.0";"2";"1";"1";"2";"1";"1";"2014-10-13 20:20:07.744";"2014-10-13 20:33:09.894";"1";"0";"1";"67";"66";"module.training_block2.exec-2219.GoNoGo2";;;;;;;;;;;;;;;;;;;;;;;;;;;;;;;;;;;"1250";"2014-10-13 20:24:54.513";"NST_correctLoc";"32";"1";"FINISHED";"RIGHT";"success";"593";"0";"2014-10-13 20:24:53.262";"3";;;;;;;;;;;;;;;;;;;;;;;;;;;;;;;;;;;;;;;;;;;;;
"louise3004";;;"Windows 8";"Rachel's Experiment (D.T.)";"1.0";"2";"1";"1";"2";"1";"1";"2014-10-13 20:20:07.744";"2014-10-13 20:33:09.894";"1";"0";"1";"68";"67";"module.training_block2.exec-2219.GoNoGo2";;;;;;;;;;;;;;;;;;;;;;;;;;;;;;;;;;;"1250";"2014-10-13 20:24:57.058";"ST_correctStop";"4";"1";"FINISHED";"NONE";"success";"0";"1";"2014-10-13 20:24:55.807";"1";;;;;;;;;;;;;;;;;;;;;;;;;;;;;;;;;;;;;;;;;;;;;
"louise3004";;;"Windows 8";"Rachel's Experiment (D.T.)";"1.0";"2";"1";"1";"2";"1";"1";"2014-10-13 20:20:07.744";"2014-10-13 20:33:09.894";"1";"0";"1";"69";"68";"module.training_block2.exec-2219.GoNoGo2";;;;;;;;;;;;;;;;;;;;;;;;;;;;;;;;;;;"1250";"2014-10-13 20:24:59.594";"NST_correctLoc";"34";"1";"FINISHED";"RIGHT";"success";"463";"0";"2014-10-13 20:24:58.344";"3";;;;;;;;;;;;;;;;;;;;;;;;;;;;;;;;;;;;;;;;;;;;;
"louise3004";;;"Windows 8";"Rachel's Experiment (D.T.)";"1.0";"2";"1";"1";"2";"1";"1";"2014-10-13 20:20:07.744";"2014-10-13 20:33:09.894";"1";"0";"1";"70";"69";"module.training_block2.exec-2219.GoNoGo2";;;;;;;;;;;;;;;;;;;;;;;;;;;;;;;;;;;"1250";"2014-10-13 20:25:02.131";"ST_correctStop";"30";"0";"FINISHED";"NONE";"success";"0";"1";"2014-10-13 20:25:00.880";"3";;;;;;;;;;;;;;;;;;;;;;;;;;;;;;;;;;;;;;;;;;;;;
"louise3004";;;"Windows 8";"Rachel's Experiment (D.T.)";"1.0";"2";"1";"1";"2";"1";"1";"2014-10-13 20:20:07.744";"2014-10-13 20:33:09.894";"1";"0";"1";"71";"70";"module.training_block2.exec-2219.GoNoGo2";;;;;;;;;;;;;;;;;;;;;;;;;;;;;;;;;;;"1251";"2014-10-13 20:25:04.672";"NST_correctLoc";"22";"0";"FINISHED";"LEFT";"success";"600";"0";"2014-10-13 20:25:03.420";"3";;;;;;;;;;;;;;;;;;;;;;;;;;;;;;;;;;;;;;;;;;;;;
"louise3004";;;"Windows 8";"Rachel's Experiment (D.T.)";"1.0";"2";"1";"1";"2";"1";"1";"2014-10-13 20:20:07.744";"2014-10-13 20:33:09.894";"1";"0";"1";"72";"71";"module.training_block2.exec-2219.GoNoGo2";;;;;;;;;;;;;;;;;;;;;;;;;;;;;;;;;;;"1250";"2014-10-13 20:25:07.209";"NST_correctLoc";"10";"0";"FINISHED";"LEFT";"success";"613";"0";"2014-10-13 20:25:05.959";"2";;;;;;;;;;;;;;;;;;;;;;;;;;;;;;;;;;;;;;;;;;;;;
"louise3004";;;"Windows 8";"Rachel's Experiment (D.T.)";"1.0";"2";"1";"1";"2";"1";"1";"2014-10-13 20:20:07.744";"2014-10-13 20:33:09.894";"1";"0";"1";"73";"72";"module.training_block2.exec-2219.GoNoGo2";;;;;;;;;;;;;;;;;;;;;;;;;;;;;;;;;;;"1250";"2014-10-13 20:25:09.744";"NST_correctLoc";"35";"0";"FINISHED";"LEFT";"success";"796";"0";"2014-10-13 20:25:08.494";"3";;;;;;;;;;;;;;;;;;;;;;;;;;;;;;;;;;;;;;;;;;;;;
"louise3004";;;"Windows 8";"Rachel's Experiment (D.T.)";"1.0";"2";"1";"1";"2";"1";"1";"2014-10-13 20:20:07.744";"2014-10-13 20:33:09.894";"1";"0";"1";"74";"73";"module.training_block2.exec-2219.GoNoGo2";;;;;;;;;;;;;;;;;;;;;;;;;;;;;;;;;;;"1250";"2014-10-13 20:25:12.285";"ST_correctStop";"20";"0";"FINISHED";"NONE";"success";"0";"1";"2014-10-13 20:25:11.034";"3";;;;;;;;;;;;;;;;;;;;;;;;;;;;;;;;;;;;;;;;;;;;;
"louise3004";;;"Windows 8";"Rachel's Experiment (D.T.)";"1.0";"2";"1";"1";"2";"1";"1";"2014-10-13 20:20:07.744";"2014-10-13 20:33:09.894";"1";"0";"1";"75";"74";"module.training_block2.exec-2219.GoNoGo2";;;;;;;;;;;;;;;;;;;;;;;;;;;;;;;;;;;"1250";"2014-10-13 20:25:14.821";"NST_correctLoc";"29";"0";"FINISHED";"LEFT";"success";"426";"0";"2014-10-13 20:25:13.570";"3";;;;;;;;;;;;;;;;;;;;;;;;;;;;;;;;;;;;;;;;;;;;;
"louise3004";;;"Windows 8";"Rachel's Experiment (D.T.)";"1.0";"2";"1";"1";"2";"1";"1";"2014-10-13 20:20:07.744";"2014-10-13 20:33:09.894";"1";"0";"1";"76";"75";"module.training_block2.exec-2219.GoNoGo2";;;;;;;;;;;;;;;;;;;;;;;;;;;;;;;;;;;"1250";"2014-10-13 20:25:17.359";"NST_correctLoc";"11";"1";"FINISHED";"RIGHT";"success";"531";"0";"2014-10-13 20:25:16.109";"2";;;;;;;;;;;;;;;;;;;;;;;;;;;;;;;;;;;;;;;;;;;;;
"louise3004";;;"Windows 8";"Rachel's Experiment (D.T.)";"1.0";"2";"1";"1";"2";"1";"1";"2014-10-13 20:20:07.744";"2014-10-13 20:33:09.894";"1";"0";"1";"77";"76";"module.training_block2.exec-2219.GoNoGo2";;;;;;;;;;;;;;;;;;;;;;;;;;;;;;;;;;;"1250";"2014-10-13 20:25:19.896";"NST_correctLoc";"23";"1";"FINISHED";"RIGHT";"success";"699";"0";"2014-10-13 20:25:18.646";"3";;;;;;;;;;;;;;;;;;;;;;;;;;;;;;;;;;;;;;;;;;;;;
"louise3004";;;"Windows 8";"Rachel's Experiment (D.T.)";"1.0";"2";"1";"1";"2";"1";"1";"2014-10-13 20:20:07.744";"2014-10-13 20:33:09.894";"1";"0";"1";"78";"77";"module.training_block2.exec-2219.GoNoGo2";;;;;;;;;;;;;;;;;;;;;;;;;;;;;;;;;;;"1250";"2014-10-13 20:25:22.431";"NST_correctLoc";"14";"0";"FINISHED";"LEFT";"success";"501";"0";"2014-10-13 20:25:21.181";"2";;;;;;;;;;;;;;;;;;;;;;;;;;;;;;;;;;;;;;;;;;;;;
"louise3004";;;"Windows 8";"Rachel's Experiment (D.T.)";"1.0";"2";"1";"1";"2";"1";"1";"2014-10-13 20:20:07.744";"2014-10-13 20:33:09.894";"1";"0";"1";"79";"78";"module.training_block2.exec-2219.GoNoGo2";;;;;;;;;;;;;;;;;;;;;;;;;;;;;;;;;;;"1250";"2014-10-13 20:25:24.966";"ST_correctStop";"24";"1";"FINISHED";"NONE";"success";"0";"1";"2014-10-13 20:25:23.715";"3";;;;;;;;;;;;;;;;;;;;;;;;;;;;;;;;;;;;;;;;;;;;;
"louise3004";;;"Windows 8";"Rachel's Experiment (D.T.)";"1.0";"2";"1";"1";"2";"1";"1";"2014-10-13 20:20:07.744";"2014-10-13 20:33:09.894";"1";"0";"1";"80";"79";"module.training_block2.exec-2219.GoNoGo2";;;;;;;;;;;;;;;;;;;;;;;;;;;;;;;;;;;"1250";"2014-10-13 20:25:27.499";"NST_correctLoc";"16";"1";"FINISHED";"RIGHT";"success";"529";"0";"2014-10-13 20:25:26.248";"2";;;;;;;;;;;;;;;;;;;;;;;;;;;;;;;;;;;;;;;;;;;;;
"louise3004";;;"Windows 8";"Rachel's Experiment (D.T.)";"1.0";"2";"1";"1";"2";"1";"1";"2014-10-13 20:20:07.744";"2014-10-13 20:33:09.894";"1";"0";"1";"81";"80";"module.training_block2.exec-2219.GoNoGo2";;;;;;;;;;;;;;;;;;;;;;;;;;;;;;;;;;;"1251";"2014-10-13 20:25:30.033";"ST_correctStop";"8";"1";"FINISHED";"NONE";"success";"0";"1";"2014-10-13 20:25:28.782";"1";;;;;;;;;;;;;;;;;;;;;;;;;;;;;;;;;;;;;;;;;;;;;
"louise3004";;;"Windows 8";"Rachel's Experiment (D.T.)";"1.0";"2";"1";"1";"2";"1";"1";"2014-10-13 20:20:07.744";"2014-10-13 20:33:09.894";"1";"0";"1";"82";"81";"module.training_block2.exec-2219.GoNoGo2";;;;;;;;;;;;;;;;;;;;;;;;;;;;;;;;;;;"1250";"2014-10-13 20:25:32.567";"ST_correctStop";"0";"1";"FINISHED";"NONE";"success";"0";"1";"2014-10-13 20:25:31.317";"1";;;;;;;;;;;;;;;;;;;;;;;;;;;;;;;;;;;;;;;;;;;;;
"louise3004";;;"Windows 8";"Rachel's Experiment (D.T.)";"1.0";"2";"1";"1";"2";"1";"1";"2014-10-13 20:20:07.744";"2014-10-13 20:33:09.894";"1";"0";"1";"83";"82";"module.training_block2.exec-2219.GoNoGo2";;;;;;;;;;;;;;;;;;;;;;;;;;;;;;;;;;;"1249";"2014-10-13 20:25:35.100";"ST_correctStop";"6";"1";"FINISHED";"NONE";"success";"0";"1";"2014-10-13 20:25:33.850";"1";;;;;;;;;;;;;;;;;;;;;;;;;;;;;;;;;;;;;;;;;;;;;
"louise3004";;;"Windows 8";"Rachel's Experiment (D.T.)";"1.0";"2";"1";"1";"2";"1";"1";"2014-10-13 20:20:07.744";"2014-10-13 20:33:09.894";"1";"0";"1";"84";"83";"module.training_block2.exec-2219.GoNoGo2";;;;;;;;;;;;;;;;;;;;;;;;;;;;;;;;;;;"1250";"2014-10-13 20:25:37.636";"NST_correctLoc";"12";"1";"FINISHED";"RIGHT";"success";"562";"0";"2014-10-13 20:25:36.386";"2";;;;;;;;;;;;;;;;;;;;;;;;;;;;;;;;;;;;;;;;;;;;;
"louise3004";;;"Windows 8";"Rachel's Experiment (D.T.)";"1.0";"2";"1";"1";"2";"1";"1";"2014-10-13 20:20:07.744";"2014-10-13 20:33:09.894";"1";"0";"1";"85";"84";"module.training_block2.exec-2219.GoNoGo2";;;;;;;;;;;;;;;;;;;;;;;;;;;;;;;;;;;"1252";"2014-10-13 20:25:40.171";"NST_correctLoc";"25";"0";"FINISHED";"LEFT";"success";"729";"0";"2014-10-13 20:25:38.920";"3";;;;;;;;;;;;;;;;;;;;;;;;;;;;;;;;;;;;;;;;;;;;;
"louise3004";;;"Windows 8";"Rachel's Experiment (D.T.)";"1.0";"2";"1";"1";"2";"1";"1";"2014-10-13 20:20:07.744";"2014-10-13 20:33:09.894";"1";"0";"1";"86";"85";"module.training_block2.exec-2219.GoNoGo2";;;;;;;;;;;;;;;;;;;;;;;;;;;;;;;;;;;"1250";"2014-10-13 20:25:42.708";"NST_correctLoc";"27";"0";"FINISHED";"LEFT";"success";"649";"0";"2014-10-13 20:25:41.458";"3";;;;;;;;;;;;;;;;;;;;;;;;;;;;;;;;;;;;;;;;;;;;;
"louise3004";;;"Windows 8";"Rachel's Experiment (D.T.)";"1.0";"2";"1";"1";"2";"1";"1";"2014-10-13 20:20:07.744";"2014-10-13 20:33:09.894";"1";"0";"1";"87";"86";"module.training_block2.exec-2219.GoNoGo2";;;;;;;;;;;;;;;;;;;;;;;;;;;;;;;;;;;"1250";"2014-10-13 20:25:45.242";"ST_correctStop";"1";"1";"FINISHED";"NONE";"success";"0";"1";"2014-10-13 20:25:43.991";"1";;;;;;;;;;;;;;;;;;;;;;;;;;;;;;;;;;;;;;;;;;;;;
"louise3004";;;"Windows 8";"Rachel's Experiment (D.T.)";"1.0";"2";"1";"1";"2";"1";"1";"2014-10-13 20:20:07.744";"2014-10-13 20:33:09.894";"1";"0";"1";"88";"87";"module.training_block3.exec-1433.GoNoGo3";;;;;;;;;;;;;;;;;;;;;;;;;;;;;;;;;;;;;;;;;;;;;;;"1249";"2014-10-13 20:25:56.227";"NST_correctLoc";"23";"0";"FINISHED";"LEFT";"success";"473";"0";"2014-10-13 20:25:54.977";"3";;;;;;;;;;;;;;;;;;;;;;;;;;;;;;;;;
"louise3004";;;"Windows 8";"Rachel's Experiment (D.T.)";"1.0";"2";"1";"1";"2";"1";"1";"2014-10-13 20:20:07.744";"2014-10-13 20:33:09.894";"1";"0";"1";"89";"88";"module.training_block3.exec-1433.GoNoGo3";;;;;;;;;;;;;;;;;;;;;;;;;;;;;;;;;;;;;;;;;;;;;;;"1251";"2014-10-13 20:25:58.762";"ST_correctStop";"30";"0";"FINISHED";"NONE";"success";"0";"1";"2014-10-13 20:25:57.511";"3";;;;;;;;;;;;;;;;;;;;;;;;;;;;;;;;;
"louise3004";;;"Windows 8";"Rachel's Experiment (D.T.)";"1.0";"2";"1";"1";"2";"1";"1";"2014-10-13 20:20:07.744";"2014-10-13 20:33:09.894";"1";"0";"1";"90";"89";"module.training_block3.exec-1433.GoNoGo3";;;;;;;;;;;;;;;;;;;;;;;;;;;;;;;;;;;;;;;;;;;;;;;"1250";"2014-10-13 20:26:01.295";"ST_correctStop";"28";"1";"FINISHED";"NONE";"success";"0";"1";"2014-10-13 20:26:00.045";"3";;;;;;;;;;;;;;;;;;;;;;;;;;;;;;;;;
"louise3004";;;"Windows 8";"Rachel's Experiment (D.T.)";"1.0";"2";"1";"1";"2";"1";"1";"2014-10-13 20:20:07.744";"2014-10-13 20:33:09.894";"1";"0";"1";"91";"90";"module.training_block3.exec-1433.GoNoGo3";;;;;;;;;;;;;;;;;;;;;;;;;;;;;;;;;;;;;;;;;;;;;;;"1249";"2014-10-13 20:26:03.826";"ST_correctStop";"3";"1";"FINISHED";"NONE";"success";"0";"1";"2014-10-13 20:26:02.576";"1";;;;;;;;;;;;;;;;;;;;;;;;;;;;;;;;;
"louise3004";;;"Windows 8";"Rachel's Experiment (D.T.)";"1.0";"2";"1";"1";"2";"1";"1";"2014-10-13 20:20:07.744";"2014-10-13 20:33:09.894";"1";"0";"1";"92";"91";"module.training_block3.exec-1433.GoNoGo3";;;;;;;;;;;;;;;;;;;;;;;;;;;;;;;;;;;;;;;;;;;;;;;"1250";"2014-10-13 20:26:06.360";"NST_correctLoc";"27";"1";"FINISHED";"RIGHT";"success";"943";"0";"2014-10-13 20:26:05.109";"3";;;;;;;;;;;;;;;;;;;;;;;;;;;;;;;;;
"louise3004";;;"Windows 8";"Rachel's Experiment (D.T.)";"1.0";"2";"1";"1";"2";"1";"1";"2014-10-13 20:20:07.744";"2014-10-13 20:33:09.894";"1";"0";"1";"93";"92";"module.training_block3.exec-1433.GoNoGo3";;;;;;;;;;;;;;;;;;;;;;;;;;;;;;;;;;;;;;;;;;;;;;;"1250";"2014-10-13 20:26:08.896";"ST_correctStop";"8";"1";"FINISHED";"NONE";"success";"0";"1";"2014-10-13 20:26:07.646";"1";;;;;;;;;;;;;;;;;;;;;;;;;;;;;;;;;
"louise3004";;;"Windows 8";"Rachel's Experiment (D.T.)";"1.0";"2";"1";"1";"2";"1";"1";"2014-10-13 20:20:07.744";"2014-10-13 20:33:09.894";"1";"0";"1";"94";"93";"module.training_block3.exec-1433.GoNoGo3";;;;;;;;;;;;;;;;;;;;;;;;;;;;;;;;;;;;;;;;;;;;;;;"1250";"2014-10-13 20:26:11.431";"ST_correctStop";"33";"1";"FINISHED";"NONE";"success";"0";"1";"2014-10-13 20:26:10.180";"3";;;;;;;;;;;;;;;;;;;;;;;;;;;;;;;;;
"louise3004";;;"Windows 8";"Rachel's Experiment (D.T.)";"1.0";"2";"1";"1";"2";"1";"1";"2014-10-13 20:20:07.744";"2014-10-13 20:33:09.894";"1";"0";"1";"95";"94";"module.training_block3.exec-1433.GoNoGo3";;;;;;;;;;;;;;;;;;;;;;;;;;;;;;;;;;;;;;;;;;;;;;;"1250";"2014-10-13 20:26:13.964";"ST_correctStop";"25";"1";"FINISHED";"NONE";"success";"0";"1";"2014-10-13 20:26:12.714";"3";;;;;;;;;;;;;;;;;;;;;;;;;;;;;;;;;
"louise3004";;;"Windows 8";"Rachel's Experiment (D.T.)";"1.0";"2";"1";"1";"2";"1";"1";"2014-10-13 20:20:07.744";"2014-10-13 20:33:09.894";"1";"0";"1";"96";"95";"module.training_block3.exec-1433.GoNoGo3";;;;;;;;;;;;;;;;;;;;;;;;;;;;;;;;;;;;;;;;;;;;;;;"1249";"2014-10-13 20:26:16.498";"NST_correctLoc";"18";"0";"FINISHED";"LEFT";"success";"359";"0";"2014-10-13 20:26:15.248";"3";;;;;;;;;;;;;;;;;;;;;;;;;;;;;;;;;
"louise3004";;;"Windows 8";"Rachel's Experiment (D.T.)";"1.0";"2";"1";"1";"2";"1";"1";"2014-10-13 20:20:07.744";"2014-10-13 20:33:09.894";"1";"0";"1";"97";"96";"module.training_block3.exec-1433.GoNoGo3";;;;;;;;;;;;;;;;;;;;;;;;;;;;;;;;;;;;;;;;;;;;;;;"1249";"2014-10-13 20:26:19.029";"NST_correctLoc";"9";"1";"FINISHED";"RIGHT";"success";"558";"0";"2014-10-13 20:26:17.778";"2";;;;;;;;;;;;;;;;;;;;;;;;;;;;;;;;;
"louise3004";;;"Windows 8";"Rachel's Experiment (D.T.)";"1.0";"2";"1";"1";"2";"1";"1";"2014-10-13 20:20:07.744";"2014-10-13 20:33:09.894";"1";"0";"1";"98";"97";"module.training_block3.exec-1433.GoNoGo3";;;;;;;;;;;;;;;;;;;;;;;;;;;;;;;;;;;;;;;;;;;;;;;"1251";"2014-10-13 20:26:21.564";"NST_correctLoc";"19";"1";"FINISHED";"RIGHT";"success";"520";"0";"2014-10-13 20:26:20.313";"3";;;;;;;;;;;;;;;;;;;;;;;;;;;;;;;;;
"louise3004";;;"Windows 8";"Rachel's Experiment (D.T.)";"1.0";"2";"1";"1";"2";"1";"1";"2014-10-13 20:20:07.744";"2014-10-13 20:33:09.894";"1";"0";"1";"99";"98";"module.training_block3.exec-1433.GoNoGo3";;;;;;;;;;;;;;;;;;;;;;;;;;;;;;;;;;;;;;;;;;;;;;;"1250";"2014-10-13 20:26:24.099";"ST_correctStop";"6";"0";"FINISHED";"NONE";"success";"0";"1";"2014-10-13 20:26:22.849";"1";;;;;;;;;;;;;;;;;;;;;;;;;;;;;;;;;
"louise3004";;;"Windows 8";"Rachel's Experiment (D.T.)";"1.0";"2";"1";"1";"2";"1";"1";"2014-10-13 20:20:07.744";"2014-10-13 20:33:09.894";"1";"0";"1";"100";"99";"module.training_block3.exec-1433.GoNoGo3";;;;;;;;;;;;;;;;;;;;;;;;;;;;;;;;;;;;;;;;;;;;;;;"1249";"2014-10-13 20:26:26.637";"ST_failedStop";"4";"1";"FINISHED";"RIGHT";"failure";"413";"1";"2014-10-13 20:26:25.387";"1";;;;;;;;;;;;;;;;;;;;;;;;;;;;;;;;;
"louise3004";;;"Windows 8";"Rachel's Experiment (D.T.)";"1.0";"2";"1";"1";"2";"1";"1";"2014-10-13 20:20:07.744";"2014-10-13 20:33:09.894";"1";"0";"1";"101";"100";"module.training_block3.exec-1433.GoNoGo3";;;;;;;;;;;;;;;;;;;;;;;;;;;;;;;;;;;;;;;;;;;;;;;"1249";"2014-10-13 20:26:29.173";"NST_correctLoc";"10";"1";"FINISHED";"RIGHT";"success";"527";"0";"2014-10-13 20:26:27.922";"2";;;;;;;;;;;;;;;;;;;;;;;;;;;;;;;;;
"louise3004";;;"Windows 8";"Rachel's Experiment (D.T.)";"1.0";"2";"1";"1";"2";"1";"1";"2014-10-13 20:20:07.744";"2014-10-13 20:33:09.894";"1";"0";"1";"102";"101";"module.training_block3.exec-1433.GoNoGo3";;;;;;;;;;;;;;;;;;;;;;;;;;;;;;;;;;;;;;;;;;;;;;;"1250";"2014-10-13 20:26:31.705";"ST_failedStop";"2";"0";"FINISHED";"LEFT";"failure";"413";"1";"2014-10-13 20:26:30.455";"1";;;;;;;;;;;;;;;;;;;;;;;;;;;;;;;;;
"louise3004";;;"Windows 8";"Rachel's Experiment (D.T.)";"1.0";"2";"1";"1";"2";"1";"1";"2014-10-13 20:20:07.744";"2014-10-13 20:33:09.894";"1";"0";"1";"103";"102";"module.training_block3.exec-1433.GoNoGo3";;;;;;;;;;;;;;;;;;;;;;;;;;;;;;;;;;;;;;;;;;;;;;;"1250";"2014-10-13 20:26:34.240";"NST_correctLoc";"34";"1";"FINISHED";"RIGHT";"success";"616";"0";"2014-10-13 20:26:32.990";"3";;;;;;;;;;;;;;;;;;;;;;;;;;;;;;;;;
"louise3004";;;"Windows 8";"Rachel's Experiment (D.T.)";"1.0";"2";"1";"1";"2";"1";"1";"2014-10-13 20:20:07.744";"2014-10-13 20:33:09.894";"1";"0";"1";"104";"103";"module.training_block3.exec-1433.GoNoGo3";;;;;;;;;;;;;;;;;;;;;;;;;;;;;;;;;;;;;;;;;;;;;;;"1249";"2014-10-13 20:26:36.775";"NST_correctLoc";"14";"0";"FINISHED";"LEFT";"success";"501";"0";"2014-10-13 20:26:35.524";"2";;;;;;;;;;;;;;;;;;;;;;;;;;;;;;;;;
"louise3004";;;"Windows 8";"Rachel's Experiment (D.T.)";"1.0";"2";"1";"1";"2";"1";"1";"2014-10-13 20:20:07.744";"2014-10-13 20:33:09.894";"1";"0";"1";"105";"104";"module.training_block3.exec-1433.GoNoGo3";;;;;;;;;;;;;;;;;;;;;;;;;;;;;;;;;;;;;;;;;;;;;;;"1250";"2014-10-13 20:26:39.307";"ST_correctStop";"24";"1";"FINISHED";"NONE";"success";"0";"1";"2014-10-13 20:26:38.056";"3";;;;;;;;;;;;;;;;;;;;;;;;;;;;;;;;;
"louise3004";;;"Windows 8";"Rachel's Experiment (D.T.)";"1.0";"2";"1";"1";"2";"1";"1";"2014-10-13 20:20:07.744";"2014-10-13 20:33:09.894";"1";"0";"1";"106";"105";"module.training_block3.exec-1433.GoNoGo3";;;;;;;;;;;;;;;;;;;;;;;;;;;;;;;;;;;;;;;;;;;;;;;"1251";"2014-10-13 20:26:41.838";"NST_correctLoc";"16";"0";"FINISHED";"LEFT";"success";"590";"0";"2014-10-13 20:26:40.588";"2";;;;;;;;;;;;;;;;;;;;;;;;;;;;;;;;;
"louise3004";;;"Windows 8";"Rachel's Experiment (D.T.)";"1.0";"2";"1";"1";"2";"1";"1";"2014-10-13 20:20:07.744";"2014-10-13 20:33:09.894";"1";"0";"1";"107";"106";"module.training_block3.exec-1433.GoNoGo3";;;;;;;;;;;;;;;;;;;;;;;;;;;;;;;;;;;;;;;;;;;;;;;"1250";"2014-10-13 20:26:44.386";"NST_correctLoc";"15";"0";"FINISHED";"LEFT";"success";"562";"0";"2014-10-13 20:26:43.135";"2";;;;;;;;;;;;;;;;;;;;;;;;;;;;;;;;;
"louise3004";;;"Windows 8";"Rachel's Experiment (D.T.)";"1.0";"2";"1";"1";"2";"1";"1";"2014-10-13 20:20:07.744";"2014-10-13 20:33:09.894";"1";"0";"1";"108";"107";"module.training_block3.exec-1433.GoNoGo3";;;;;;;;;;;;;;;;;;;;;;;;;;;;;;;;;;;;;;;;;;;;;;;"1250";"2014-10-13 20:26:46.921";"ST_correctStop";"0";"0";"FINISHED";"NONE";"success";"0";"1";"2014-10-13 20:26:45.670";"1";;;;;;;;;;;;;;;;;;;;;;;;;;;;;;;;;
"louise3004";;;"Windows 8";"Rachel's Experiment (D.T.)";"1.0";"2";"1";"1";"2";"1";"1";"2014-10-13 20:20:07.744";"2014-10-13 20:33:09.894";"1";"0";"1";"109";"108";"module.training_block3.exec-1433.GoNoGo3";;;;;;;;;;;;;;;;;;;;;;;;;;;;;;;;;;;;;;;;;;;;;;;"1249";"2014-10-13 20:26:49.452";"ST_correctStop";"1";"1";"FINISHED";"NONE";"success";"0";"1";"2014-10-13 20:26:48.201";"1";;;;;;;;;;;;;;;;;;;;;;;;;;;;;;;;;
"louise3004";;;"Windows 8";"Rachel's Experiment (D.T.)";"1.0";"2";"1";"1";"2";"1";"1";"2014-10-13 20:20:07.744";"2014-10-13 20:33:09.894";"1";"0";"1";"110";"109";"module.training_block3.exec-1433.GoNoGo3";;;;;;;;;;;;;;;;;;;;;;;;;;;;;;;;;;;;;;;;;;;;;;;"1250";"2014-10-13 20:26:51.988";"NST_correctLoc";"11";"1";"FINISHED";"RIGHT";"success";"564";"0";"2014-10-13 20:26:50.738";"2";;;;;;;;;;;;;;;;;;;;;;;;;;;;;;;;;
"louise3004";;;"Windows 8";"Rachel's Experiment (D.T.)";"1.0";"2";"1";"1";"2";"1";"1";"2014-10-13 20:20:07.744";"2014-10-13 20:33:09.894";"1";"0";"1";"111";"110";"module.training_block3.exec-1433.GoNoGo3";;;;;;;;;;;;;;;;;;;;;;;;;;;;;;;;;;;;;;;;;;;;;;;"1249";"2014-10-13 20:26:54.520";"ST_correctStop";"7";"0";"FINISHED";"NONE";"success";"0";"1";"2014-10-13 20:26:53.270";"1";;;;;;;;;;;;;;;;;;;;;;;;;;;;;;;;;
"louise3004";;;"Windows 8";"Rachel's Experiment (D.T.)";"1.0";"2";"1";"1";"2";"1";"1";"2014-10-13 20:20:07.744";"2014-10-13 20:33:09.894";"1";"0";"1";"112";"111";"module.training_block3.exec-1433.GoNoGo3";;;;;;;;;;;;;;;;;;;;;;;;;;;;;;;;;;;;;;;;;;;;;;;"1250";"2014-10-13 20:26:57.058";"ST_correctStop";"21";"0";"FINISHED";"NONE";"success";"0";"1";"2014-10-13 20:26:55.807";"3";;;;;;;;;;;;;;;;;;;;;;;;;;;;;;;;;
"louise3004";;;"Windows 8";"Rachel's Experiment (D.T.)";"1.0";"2";"1";"1";"2";"1";"1";"2014-10-13 20:20:07.744";"2014-10-13 20:33:09.894";"1";"0";"1";"113";"112";"module.training_block3.exec-1433.GoNoGo3";;;;;;;;;;;;;;;;;;;;;;;;;;;;;;;;;;;;;;;;;;;;;;;"1250";"2014-10-13 20:26:59.593";"NST_correctLoc";"35";"0";"FINISHED";"LEFT";"success";"731";"0";"2014-10-13 20:26:58.343";"3";;;;;;;;;;;;;;;;;;;;;;;;;;;;;;;;;
"louise3004";;;"Windows 8";"Rachel's Experiment (D.T.)";"1.0";"2";"1";"1";"2";"1";"1";"2014-10-13 20:20:07.744";"2014-10-13 20:33:09.894";"1";"0";"1";"114";"113";"module.training_block3.exec-1433.GoNoGo3";;;;;;;;;;;;;;;;;;;;;;;;;;;;;;;;;;;;;;;;;;;;;;;"1250";"2014-10-13 20:27:02.127";"NST_correctLoc";"12";"0";"FINISHED";"LEFT";"success";"666";"0";"2014-10-13 20:27:00.877";"2";;;;;;;;;;;;;;;;;;;;;;;;;;;;;;;;;
"louise3004";;;"Windows 8";"Rachel's Experiment (D.T.)";"1.0";"2";"1";"1";"2";"1";"1";"2014-10-13 20:20:07.744";"2014-10-13 20:33:09.894";"1";"0";"1";"115";"114";"module.training_block3.exec-1433.GoNoGo3";;;;;;;;;;;;;;;;;;;;;;;;;;;;;;;;;;;;;;;;;;;;;;;"1249";"2014-10-13 20:27:04.659";"NST_correctLoc";"26";"1";"FINISHED";"RIGHT";"success";"697";"0";"2014-10-13 20:27:03.408";"3";;;;;;;;;;;;;;;;;;;;;;;;;;;;;;;;;
"louise3004";;;"Windows 8";"Rachel's Experiment (D.T.)";"1.0";"2";"1";"1";"2";"1";"1";"2014-10-13 20:20:07.744";"2014-10-13 20:33:09.894";"1";"0";"1";"116";"115";"module.training_block3.exec-1433.GoNoGo3";;;;;;;;;;;;;;;;;;;;;;;;;;;;;;;;;;;;;;;;;;;;;;;"1249";"2014-10-13 20:27:07.189";"NST_correctLoc";"13";"1";"FINISHED";"RIGHT";"success";"715";"0";"2014-10-13 20:27:05.939";"2";;;;;;;;;;;;;;;;;;;;;;;;;;;;;;;;;
"louise3004";;;"Windows 8";"Rachel's Experiment (D.T.)";"1.0";"2";"1";"1";"2";"1";"1";"2014-10-13 20:20:07.744";"2014-10-13 20:33:09.894";"1";"0";"1";"117";"116";"module.training_block3.exec-1433.GoNoGo3";;;;;;;;;;;;;;;;;;;;;;;;;;;;;;;;;;;;;;;;;;;;;;;"1249";"2014-10-13 20:27:09.720";"NST_correctLoc";"17";"0";"FINISHED";"LEFT";"success";"875";"0";"2014-10-13 20:27:08.470";"2";;;;;;;;;;;;;;;;;;;;;;;;;;;;;;;;;
"louise3004";;;"Windows 8";"Rachel's Experiment (D.T.)";"1.0";"2";"1";"1";"2";"1";"1";"2014-10-13 20:20:07.744";"2014-10-13 20:33:09.894";"1";"0";"1";"118";"117";"module.training_block3.exec-1433.GoNoGo3";;;;;;;;;;;;;;;;;;;;;;;;;;;;;;;;;;;;;;;;;;;;;;;"1249";"2014-10-13 20:27:12.253";"ST_correctStop";"32";"0";"FINISHED";"NONE";"success";"0";"1";"2014-10-13 20:27:11.003";"3";;;;;;;;;;;;;;;;;;;;;;;;;;;;;;;;;
"louise3004";;;"Windows 8";"Rachel's Experiment (D.T.)";"1.0";"2";"1";"1";"2";"1";"1";"2014-10-13 20:20:07.744";"2014-10-13 20:33:09.894";"1";"0";"1";"119";"118";"module.training_block3.exec-1433.GoNoGo3";;;;;;;;;;;;;;;;;;;;;;;;;;;;;;;;;;;;;;;;;;;;;;;"1249";"2014-10-13 20:27:14.786";"ST_correctStop";"20";"0";"FINISHED";"NONE";"success";"0";"1";"2014-10-13 20:27:13.536";"3";;;;;;;;;;;;;;;;;;;;;;;;;;;;;;;;;
"louise3004";;;"Windows 8";"Rachel's Experiment (D.T.)";"1.0";"2";"1";"1";"2";"1";"1";"2014-10-13 20:20:07.744";"2014-10-13 20:33:09.894";"1";"0";"1";"120";"119";"module.training_block3.exec-1433.GoNoGo3";;;;;;;;;;;;;;;;;;;;;;;;;;;;;;;;;;;;;;;;;;;;;;;"1250";"2014-10-13 20:27:17.320";"ST_correctStop";"5";"0";"FINISHED";"NONE";"success";"0";"1";"2014-10-13 20:27:16.069";"1";;;;;;;;;;;;;;;;;;;;;;;;;;;;;;;;;
"louise3004";;;"Windows 8";"Rachel's Experiment (D.T.)";"1.0";"2";"1";"1";"2";"1";"1";"2014-10-13 20:20:07.744";"2014-10-13 20:33:09.894";"1";"0";"1";"121";"120";"module.training_block3.exec-1433.GoNoGo3";;;;;;;;;;;;;;;;;;;;;;;;;;;;;;;;;;;;;;;;;;;;;;;"1249";"2014-10-13 20:27:19.850";"NST_correctLoc";"22";"0";"FINISHED";"LEFT";"success";"776";"0";"2014-10-13 20:27:18.600";"3";;;;;;;;;;;;;;;;;;;;;;;;;;;;;;;;;
"louise3004";;;"Windows 8";"Rachel's Experiment (D.T.)";"1.0";"2";"1";"1";"2";"1";"1";"2014-10-13 20:20:07.744";"2014-10-13 20:33:09.894";"1";"0";"1";"122";"121";"module.training_block3.exec-1433.GoNoGo3";;;;;;;;;;;;;;;;;;;;;;;;;;;;;;;;;;;;;;;;;;;;;;;"1250";"2014-10-13 20:27:22.392";"ST_correctStop";"29";"1";"FINISHED";"NONE";"success";"0";"1";"2014-10-13 20:27:21.141";"3";;;;;;;;;;;;;;;;;;;;;;;;;;;;;;;;;
"louise3004";;;"Windows 8";"Rachel's Experiment (D.T.)";"1.0";"2";"1";"1";"2";"1";"1";"2014-10-13 20:20:07.744";"2014-10-13 20:33:09.894";"1";"0";"1";"123";"122";"module.training_block3.exec-1433.GoNoGo3";;;;;;;;;;;;;;;;;;;;;;;;;;;;;;;;;;;;;;;;;;;;;;;"1249";"2014-10-13 20:27:24.924";"NST_correctLoc";"31";"1";"FINISHED";"RIGHT";"success";"686";"0";"2014-10-13 20:27:23.674";"3";;;;;;;;;;;;;;;;;;;;;;;;;;;;;;;;;
"louise3004";;;"Windows 8";"Rachel's Experiment (D.T.)";"1.0";"2";"1";"1";"2";"1";"1";"2014-10-13 20:20:07.744";"2014-10-13 20:33:09.894";"1";"0";"1";"124";"123";"module.training_block4.exec-7469.GoNoGo4";;;;;;;;;;;;;;;;;;;;;;;;;;;;;;;;;;;;;;;;;;;;;;;;;;;;;;;;;;;"1251";"2014-10-13 20:27:34.992";"NST_correctLoc";"20";"1";"FINISHED";"RIGHT";"success";"606";"0";"2014-10-13 20:27:33.741";"3";;;;;;;;;;;;;;;;;;;;;
"louise3004";;;"Windows 8";"Rachel's Experiment (D.T.)";"1.0";"2";"1";"1";"2";"1";"1";"2014-10-13 20:20:07.744";"2014-10-13 20:33:09.894";"1";"0";"1";"125";"124";"module.training_block4.exec-7469.GoNoGo4";;;;;;;;;;;;;;;;;;;;;;;;;;;;;;;;;;;;;;;;;;;;;;;;;;;;;;;;;;;"1249";"2014-10-13 20:27:37.523";"NST_correctLoc";"9";"1";"FINISHED";"RIGHT";"success";"456";"0";"2014-10-13 20:27:36.273";"2";;;;;;;;;;;;;;;;;;;;;
"louise3004";;;"Windows 8";"Rachel's Experiment (D.T.)";"1.0";"2";"1";"1";"2";"1";"1";"2014-10-13 20:20:07.744";"2014-10-13 20:33:09.894";"1";"0";"1";"126";"125";"module.training_block4.exec-7469.GoNoGo4";;;;;;;;;;;;;;;;;;;;;;;;;;;;;;;;;;;;;;;;;;;;;;;;;;;;;;;;;;;"1249";"2014-10-13 20:27:40.054";"NST_correctLoc";"16";"0";"FINISHED";"LEFT";"success";"467";"0";"2014-10-13 20:27:38.804";"2";;;;;;;;;;;;;;;;;;;;;
"louise3004";;;"Windows 8";"Rachel's Experiment (D.T.)";"1.0";"2";"1";"1";"2";"1";"1";"2014-10-13 20:20:07.744";"2014-10-13 20:33:09.894";"1";"0";"1";"127";"126";"module.training_block4.exec-7469.GoNoGo4";;;;;;;;;;;;;;;;;;;;;;;;;;;;;;;;;;;;;;;;;;;;;;;;;;;;;;;;;;;"1250";"2014-10-13 20:27:42.586";"ST_correctStop";"32";"1";"FINISHED";"NONE";"success";"0";"1";"2014-10-13 20:27:41.335";"3";;;;;;;;;;;;;;;;;;;;;
"louise3004";;;"Windows 8";"Rachel's Experiment (D.T.)";"1.0";"2";"1";"1";"2";"1";"1";"2014-10-13 20:20:07.744";"2014-10-13 20:33:09.894";"1";"0";"1";"128";"127";"module.training_block4.exec-7469.GoNoGo4";;;;;;;;;;;;;;;;;;;;;;;;;;;;;;;;;;;;;;;;;;;;;;;;;;;;;;;;;;;"1249";"2014-10-13 20:27:45.122";"NST_correctLoc";"26";"0";"FINISHED";"LEFT";"success";"479";"0";"2014-10-13 20:27:43.872";"3";;;;;;;;;;;;;;;;;;;;;
"louise3004";;;"Windows 8";"Rachel's Experiment (D.T.)";"1.0";"2";"1";"1";"2";"1";"1";"2014-10-13 20:20:07.744";"2014-10-13 20:33:09.894";"1";"0";"1";"129";"128";"module.training_block4.exec-7469.GoNoGo4";;;;;;;;;;;;;;;;;;;;;;;;;;;;;;;;;;;;;;;;;;;;;;;;;;;;;;;;;;;"1250";"2014-10-13 20:27:47.655";"NST_correctLoc";"24";"1";"FINISHED";"RIGHT";"success";"538";"0";"2014-10-13 20:27:46.405";"3";;;;;;;;;;;;;;;;;;;;;
"louise3004";;;"Windows 8";"Rachel's Experiment (D.T.)";"1.0";"2";"1";"1";"2";"1";"1";"2014-10-13 20:20:07.744";"2014-10-13 20:33:09.894";"1";"0";"1";"130";"129";"module.training_block4.exec-7469.GoNoGo4";;;;;;;;;;;;;;;;;;;;;;;;;;;;;;;;;;;;;;;;;;;;;;;;;;;;;;;;;;;"1250";"2014-10-13 20:27:50.191";"NST_correctLoc";"22";"0";"FINISHED";"LEFT";"success";"440";"0";"2014-10-13 20:27:48.941";"3";;;;;;;;;;;;;;;;;;;;;
"louise3004";;;"Windows 8";"Rachel's Experiment (D.T.)";"1.0";"2";"1";"1";"2";"1";"1";"2014-10-13 20:20:07.744";"2014-10-13 20:33:09.894";"1";"0";"1";"131";"130";"module.training_block4.exec-7469.GoNoGo4";;;;;;;;;;;;;;;;;;;;;;;;;;;;;;;;;;;;;;;;;;;;;;;;;;;;;;;;;;;"1249";"2014-10-13 20:27:52.724";"NST_correctLoc";"13";"1";"FINISHED";"RIGHT";"success";"475";"0";"2014-10-13 20:27:51.474";"2";;;;;;;;;;;;;;;;;;;;;
"louise3004";;;"Windows 8";"Rachel's Experiment (D.T.)";"1.0";"2";"1";"1";"2";"1";"1";"2014-10-13 20:20:07.744";"2014-10-13 20:33:09.894";"1";"0";"1";"132";"131";"module.training_block4.exec-7469.GoNoGo4";;;;;;;;;;;;;;;;;;;;;;;;;;;;;;;;;;;;;;;;;;;;;;;;;;;;;;;;;;;"1250";"2014-10-13 20:27:55.262";"ST_correctStop";"7";"1";"FINISHED";"NONE";"success";"0";"1";"2014-10-13 20:27:54.011";"1";;;;;;;;;;;;;;;;;;;;;
"louise3004";;;"Windows 8";"Rachel's Experiment (D.T.)";"1.0";"2";"1";"1";"2";"1";"1";"2014-10-13 20:20:07.744";"2014-10-13 20:33:09.894";"1";"0";"1";"133";"132";"module.training_block4.exec-7469.GoNoGo4";;;;;;;;;;;;;;;;;;;;;;;;;;;;;;;;;;;;;;;;;;;;;;;;;;;;;;;;;;;"1250";"2014-10-13 20:27:57.792";"ST_correctStop";"23";"1";"FINISHED";"NONE";"success";"0";"1";"2014-10-13 20:27:56.541";"3";;;;;;;;;;;;;;;;;;;;;
"louise3004";;;"Windows 8";"Rachel's Experiment (D.T.)";"1.0";"2";"1";"1";"2";"1";"1";"2014-10-13 20:20:07.744";"2014-10-13 20:33:09.894";"1";"0";"1";"134";"133";"module.training_block4.exec-7469.GoNoGo4";;;;;;;;;;;;;;;;;;;;;;;;;;;;;;;;;;;;;;;;;;;;;;;;;;;;;;;;;;;"1249";"2014-10-13 20:28:00.322";"NST_correctLoc";"34";"1";"FINISHED";"RIGHT";"success";"684";"0";"2014-10-13 20:27:59.072";"3";;;;;;;;;;;;;;;;;;;;;
"louise3004";;;"Windows 8";"Rachel's Experiment (D.T.)";"1.0";"2";"1";"1";"2";"1";"1";"2014-10-13 20:20:07.744";"2014-10-13 20:33:09.894";"1";"0";"1";"135";"134";"module.training_block4.exec-7469.GoNoGo4";;;;;;;;;;;;;;;;;;;;;;;;;;;;;;;;;;;;;;;;;;;;;;;;;;;;;;;;;;;"1250";"2014-10-13 20:28:02.853";"NST_miss";"17";"0";"FINISHED";"NONE";"failure";"0";"0";"2014-10-13 20:28:01.603";"2";;;;;;;;;;;;;;;;;;;;;
"louise3004";;;"Windows 8";"Rachel's Experiment (D.T.)";"1.0";"2";"1";"1";"2";"1";"1";"2014-10-13 20:20:07.744";"2014-10-13 20:33:09.894";"1";"0";"1";"136";"135";"module.training_block4.exec-7469.GoNoGo4";;;;;;;;;;;;;;;;;;;;;;;;;;;;;;;;;;;;;;;;;;;;;;;;;;;;;;;;;;;"1250";"2014-10-13 20:28:05.392";"ST_correctStop";"28";"0";"FINISHED";"NONE";"success";"0";"1";"2014-10-13 20:28:04.141";"3";;;;;;;;;;;;;;;;;;;;;
"louise3004";;;"Windows 8";"Rachel's Experiment (D.T.)";"1.0";"2";"1";"1";"2";"1";"1";"2014-10-13 20:20:07.744";"2014-10-13 20:33:09.894";"1";"0";"1";"137";"136";"module.training_block4.exec-7469.GoNoGo4";;;;;;;;;;;;;;;;;;;;;;;;;;;;;;;;;;;;;;;;;;;;;;;;;;;;;;;;;;;"1250";"2014-10-13 20:28:07.921";"NST_correctLoc";"12";"0";"FINISHED";"LEFT";"success";"552";"0";"2014-10-13 20:28:06.671";"2";;;;;;;;;;;;;;;;;;;;;
"louise3004";;;"Windows 8";"Rachel's Experiment (D.T.)";"1.0";"2";"1";"1";"2";"1";"1";"2014-10-13 20:20:07.744";"2014-10-13 20:33:09.894";"1";"0";"1";"138";"137";"module.training_block4.exec-7469.GoNoGo4";;;;;;;;;;;;;;;;;;;;;;;;;;;;;;;;;;;;;;;;;;;;;;;;;;;;;;;;;;;"1249";"2014-10-13 20:28:10.450";"ST_correctStop";"1";"0";"FINISHED";"NONE";"success";"0";"1";"2014-10-13 20:28:09.199";"1";;;;;;;;;;;;;;;;;;;;;
"louise3004";;;"Windows 8";"Rachel's Experiment (D.T.)";"1.0";"2";"1";"1";"2";"1";"1";"2014-10-13 20:20:07.744";"2014-10-13 20:33:09.894";"1";"0";"1";"139";"138";"module.training_block4.exec-7469.GoNoGo4";;;;;;;;;;;;;;;;;;;;;;;;;;;;;;;;;;;;;;;;;;;;;;;;;;;;;;;;;;;"1249";"2014-10-13 20:28:12.983";"NST_correctLoc";"25";"1";"FINISHED";"RIGHT";"success";"524";"0";"2014-10-13 20:28:11.733";"3";;;;;;;;;;;;;;;;;;;;;
"louise3004";;;"Windows 8";"Rachel's Experiment (D.T.)";"1.0";"2";"1";"1";"2";"1";"1";"2014-10-13 20:20:07.744";"2014-10-13 20:33:09.894";"1";"0";"1";"140";"139";"module.training_block4.exec-7469.GoNoGo4";;;;;;;;;;;;;;;;;;;;;;;;;;;;;;;;;;;;;;;;;;;;;;;;;;;;;;;;;;;"1250";"2014-10-13 20:28:15.516";"ST_correctStop";"0";"0";"FINISHED";"NONE";"success";"0";"1";"2014-10-13 20:28:14.265";"1";;;;;;;;;;;;;;;;;;;;;
"louise3004";;;"Windows 8";"Rachel's Experiment (D.T.)";"1.0";"2";"1";"1";"2";"1";"1";"2014-10-13 20:20:07.744";"2014-10-13 20:33:09.894";"1";"0";"1";"141";"140";"module.training_block4.exec-7469.GoNoGo4";;;;;;;;;;;;;;;;;;;;;;;;;;;;;;;;;;;;;;;;;;;;;;;;;;;;;;;;;;;"1249";"2014-10-13 20:28:18.045";"ST_correctStop";"2";"0";"FINISHED";"NONE";"success";"0";"1";"2014-10-13 20:28:16.795";"1";;;;;;;;;;;;;;;;;;;;;
"louise3004";;;"Windows 8";"Rachel's Experiment (D.T.)";"1.0";"2";"1";"1";"2";"1";"1";"2014-10-13 20:20:07.744";"2014-10-13 20:33:09.894";"1";"0";"1";"142";"141";"module.training_block4.exec-7469.GoNoGo4";;;;;;;;;;;;;;;;;;;;;;;;;;;;;;;;;;;;;;;;;;;;;;;;;;;;;;;;;;;"1249";"2014-10-13 20:28:20.574";"NST_correctLoc";"29";"1";"FINISHED";"RIGHT";"success";"663";"0";"2014-10-13 20:28:19.323";"3";;;;;;;;;;;;;;;;;;;;;
"louise3004";;;"Windows 8";"Rachel's Experiment (D.T.)";"1.0";"2";"1";"1";"2";"1";"1";"2014-10-13 20:20:07.744";"2014-10-13 20:33:09.894";"1";"0";"1";"143";"142";"module.training_block4.exec-7469.GoNoGo4";;;;;;;;;;;;;;;;;;;;;;;;;;;;;;;;;;;;;;;;;;;;;;;;;;;;;;;;;;;"1250";"2014-10-13 20:28:23.105";"ST_correctStop";"27";"0";"FINISHED";"NONE";"success";"0";"1";"2014-10-13 20:28:21.854";"3";;;;;;;;;;;;;;;;;;;;;
"louise3004";;;"Windows 8";"Rachel's Experiment (D.T.)";"1.0";"2";"1";"1";"2";"1";"1";"2014-10-13 20:20:07.744";"2014-10-13 20:33:09.894";"1";"0";"1";"144";"143";"module.training_block4.exec-7469.GoNoGo4";;;;;;;;;;;;;;;;;;;;;;;;;;;;;;;;;;;;;;;;;;;;;;;;;;;;;;;;;;;"1249";"2014-10-13 20:28:25.634";"ST_correctStop";"3";"0";"FINISHED";"NONE";"success";"0";"1";"2014-10-13 20:28:24.384";"1";;;;;;;;;;;;;;;;;;;;;
"louise3004";;;"Windows 8";"Rachel's Experiment (D.T.)";"1.0";"2";"1";"1";"2";"1";"1";"2014-10-13 20:20:07.744";"2014-10-13 20:33:09.894";"1";"0";"1";"145";"144";"module.training_block4.exec-7469.GoNoGo4";;;;;;;;;;;;;;;;;;;;;;;;;;;;;;;;;;;;;;;;;;;;;;;;;;;;;;;;;;;"1250";"2014-10-13 20:28:28.208";"ST_correctStop";"4";"0";"FINISHED";"NONE";"success";"0";"1";"2014-10-13 20:28:26.957";"1";;;;;;;;;;;;;;;;;;;;;
"louise3004";;;"Windows 8";"Rachel's Experiment (D.T.)";"1.0";"2";"1";"1";"2";"1";"1";"2014-10-13 20:20:07.744";"2014-10-13 20:33:09.894";"1";"0";"1";"146";"145";"module.training_block4.exec-7469.GoNoGo4";;;;;;;;;;;;;;;;;;;;;;;;;;;;;;;;;;;;;;;;;;;;;;;;;;;;;;;;;;;"1249";"2014-10-13 20:28:30.737";"ST_correctStop";"19";"0";"FINISHED";"NONE";"success";"0";"1";"2014-10-13 20:28:29.486";"3";;;;;;;;;;;;;;;;;;;;;
"louise3004";;;"Windows 8";"Rachel's Experiment (D.T.)";"1.0";"2";"1";"1";"2";"1";"1";"2014-10-13 20:20:07.744";"2014-10-13 20:33:09.894";"1";"0";"1";"147";"146";"module.training_block4.exec-7469.GoNoGo4";;;;;;;;;;;;;;;;;;;;;;;;;;;;;;;;;;;;;;;;;;;;;;;;;;;;;;;;;;;"1250";"2014-10-13 20:28:33.270";"ST_correctStop";"6";"1";"FINISHED";"NONE";"success";"0";"1";"2014-10-13 20:28:32.019";"1";;;;;;;;;;;;;;;;;;;;;
"louise3004";;;"Windows 8";"Rachel's Experiment (D.T.)";"1.0";"2";"1";"1";"2";"1";"1";"2014-10-13 20:20:07.744";"2014-10-13 20:33:09.894";"1";"0";"1";"148";"147";"module.training_block4.exec-7469.GoNoGo4";;;;;;;;;;;;;;;;;;;;;;;;;;;;;;;;;;;;;;;;;;;;;;;;;;;;;;;;;;;"1250";"2014-10-13 20:28:35.816";"NST_correctLoc";"31";"1";"FINISHED";"RIGHT";"success";"613";"0";"2014-10-13 20:28:34.565";"3";;;;;;;;;;;;;;;;;;;;;
"louise3004";;;"Windows 8";"Rachel's Experiment (D.T.)";"1.0";"2";"1";"1";"2";"1";"1";"2014-10-13 20:20:07.744";"2014-10-13 20:33:09.894";"1";"0";"1";"149";"148";"module.training_block4.exec-7469.GoNoGo4";;;;;;;;;;;;;;;;;;;;;;;;;;;;;;;;;;;;;;;;;;;;;;;;;;;;;;;;;;;"1250";"2014-10-13 20:28:38.346";"ST_correctStop";"35";"1";"FINISHED";"NONE";"success";"0";"1";"2014-10-13 20:28:37.096";"3";;;;;;;;;;;;;;;;;;;;;
"louise3004";;;"Windows 8";"Rachel's Experiment (D.T.)";"1.0";"2";"1";"1";"2";"1";"1";"2014-10-13 20:20:07.744";"2014-10-13 20:33:09.894";"1";"0";"1";"150";"149";"module.training_block4.exec-7469.GoNoGo4";;;;;;;;;;;;;;;;;;;;;;;;;;;;;;;;;;;;;;;;;;;;;;;;;;;;;;;;;;;"1250";"2014-10-13 20:28:40.877";"ST_correctStop";"18";"1";"FINISHED";"NONE";"success";"0";"1";"2014-10-13 20:28:39.627";"3";;;;;;;;;;;;;;;;;;;;;
"louise3004";;;"Windows 8";"Rachel's Experiment (D.T.)";"1.0";"2";"1";"1";"2";"1";"1";"2014-10-13 20:20:07.744";"2014-10-13 20:33:09.894";"1";"0";"1";"151";"150";"module.training_block4.exec-7469.GoNoGo4";;;;;;;;;;;;;;;;;;;;;;;;;;;;;;;;;;;;;;;;;;;;;;;;;;;;;;;;;;;"1250";"2014-10-13 20:28:43.407";"NST_correctLoc";"33";"0";"FINISHED";"LEFT";"success";"668";"0";"2014-10-13 20:28:42.156";"3";;;;;;;;;;;;;;;;;;;;;
"louise3004";;;"Windows 8";"Rachel's Experiment (D.T.)";"1.0";"2";"1";"1";"2";"1";"1";"2014-10-13 20:20:07.744";"2014-10-13 20:33:09.894";"1";"0";"1";"152";"151";"module.training_block4.exec-7469.GoNoGo4";;;;;;;;;;;;;;;;;;;;;;;;;;;;;;;;;;;;;;;;;;;;;;;;;;;;;;;;;;;"1249";"2014-10-13 20:28:45.936";"ST_correctStop";"8";"0";"FINISHED";"NONE";"success";"0";"1";"2014-10-13 20:28:44.686";"1";;;;;;;;;;;;;;;;;;;;;
"louise3004";;;"Windows 8";"Rachel's Experiment (D.T.)";"1.0";"2";"1";"1";"2";"1";"1";"2014-10-13 20:20:07.744";"2014-10-13 20:33:09.894";"1";"0";"1";"153";"152";"module.training_block4.exec-7469.GoNoGo4";;;;;;;;;;;;;;;;;;;;;;;;;;;;;;;;;;;;;;;;;;;;;;;;;;;;;;;;;;;"1250";"2014-10-13 20:28:48.466";"NST_correctLoc";"15";"0";"FINISHED";"LEFT";"success";"614";"0";"2014-10-13 20:28:47.216";"2";;;;;;;;;;;;;;;;;;;;;
"louise3004";;;"Windows 8";"Rachel's Experiment (D.T.)";"1.0";"2";"1";"1";"2";"1";"1";"2014-10-13 20:20:07.744";"2014-10-13 20:33:09.894";"1";"0";"1";"154";"153";"module.training_block4.exec-7469.GoNoGo4";;;;;;;;;;;;;;;;;;;;;;;;;;;;;;;;;;;;;;;;;;;;;;;;;;;;;;;;;;;"1249";"2014-10-13 20:28:50.999";"ST_correctStop";"21";"0";"FINISHED";"NONE";"success";"0";"1";"2014-10-13 20:28:49.749";"3";;;;;;;;;;;;;;;;;;;;;
"louise3004";;;"Windows 8";"Rachel's Experiment (D.T.)";"1.0";"2";"1";"1";"2";"1";"1";"2014-10-13 20:20:07.744";"2014-10-13 20:33:09.894";"1";"0";"1";"155";"154";"module.training_block4.exec-7469.GoNoGo4";;;;;;;;;;;;;;;;;;;;;;;;;;;;;;;;;;;;;;;;;;;;;;;;;;;;;;;;;;;"1250";"2014-10-13 20:28:53.531";"NST_correctLoc";"14";"0";"FINISHED";"LEFT";"success";"412";"0";"2014-10-13 20:28:52.281";"2";;;;;;;;;;;;;;;;;;;;;
"louise3004";;;"Windows 8";"Rachel's Experiment (D.T.)";"1.0";"2";"1";"1";"2";"1";"1";"2014-10-13 20:20:07.744";"2014-10-13 20:33:09.894";"1";"0";"1";"156";"155";"module.training_block4.exec-7469.GoNoGo4";;;;;;;;;;;;;;;;;;;;;;;;;;;;;;;;;;;;;;;;;;;;;;;;;;;;;;;;;;;"1250";"2014-10-13 20:28:56.068";"NST_correctLoc";"10";"1";"FINISHED";"RIGHT";"success";"654";"0";"2014-10-13 20:28:54.817";"2";;;;;;;;;;;;;;;;;;;;;
"louise3004";;;"Windows 8";"Rachel's Experiment (D.T.)";"1.0";"2";"1";"1";"2";"1";"1";"2014-10-13 20:20:07.744";"2014-10-13 20:33:09.894";"1";"0";"1";"157";"156";"module.training_block4.exec-7469.GoNoGo4";;;;;;;;;;;;;;;;;;;;;;;;;;;;;;;;;;;;;;;;;;;;;;;;;;;;;;;;;;;"1251";"2014-10-13 20:28:58.598";"ST_correctStop";"5";"1";"FINISHED";"NONE";"success";"0";"1";"2014-10-13 20:28:57.346";"1";;;;;;;;;;;;;;;;;;;;;
"louise3004";;;"Windows 8";"Rachel's Experiment (D.T.)";"1.0";"2";"1";"1";"2";"1";"1";"2014-10-13 20:20:07.744";"2014-10-13 20:33:09.894";"1";"0";"1";"158";"157";"module.training_block4.exec-7469.GoNoGo4";;;;;;;;;;;;;;;;;;;;;;;;;;;;;;;;;;;;;;;;;;;;;;;;;;;;;;;;;;;"1249";"2014-10-13 20:29:01.130";"NST_correctLoc";"11";"0";"FINISHED";"LEFT";"success";"556";"0";"2014-10-13 20:28:59.879";"2";;;;;;;;;;;;;;;;;;;;;
"louise3004";;;"Windows 8";"Rachel's Experiment (D.T.)";"1.0";"2";"1";"1";"2";"1";"1";"2014-10-13 20:20:07.744";"2014-10-13 20:33:09.894";"1";"0";"1";"159";"158";"module.training_block4.exec-7469.GoNoGo4";;;;;;;;;;;;;;;;;;;;;;;;;;;;;;;;;;;;;;;;;;;;;;;;;;;;;;;;;;;"1250";"2014-10-13 20:29:03.661";"ST_correctStop";"30";"1";"FINISHED";"NONE";"success";"0";"1";"2014-10-13 20:29:02.410";"3";;;;;;;;;;;;;;;;;;;;;
"louise3004";;;"Windows 8";"Rachel's Experiment (D.T.)";"1.0";"2";"1";"1";"2";"1";"1";"2014-10-13 20:20:07.744";"2014-10-13 20:33:09.894";"1";"0";"1";"160";"159";"module.devaluation_practice.exec-2251.devalPractice";;;;;;;;;;;;"11510";"2014-10-13 20:29:40.101";"0";"6";"3";"5";"4164";"1725";"2539";"2014-10-13 20:29:28.591";;;;;;;;;;;;;;;;;;;;;;;;;;;;;;;;;;;;;;;;;;;;;;;;;;;;;;;;;;;;;;;;;;;;;;
"louise3004";;;"Windows 8";"Rachel's Experiment (D.T.)";"1.0";"2";"1";"1";"2";"1";"1";"2014-10-13 20:20:07.744";"2014-10-13 20:33:09.894";"1";"0";"1";"161";"160";"module.devaluation_practice.exec-2251.devalPractice";;;;;;;;;;;;"7219";"2014-10-13 20:29:47.350";"1";"7";"6";"7";"1749";"764";"1660";"2014-10-13 20:29:40.131";;;;;;;;;;;;;;;;;;;;;;;;;;;;;;;;;;;;;;;;;;;;;;;;;;;;;;;;;;;;;;;;;;;;;;
"louise3004";;;"Windows 8";"Rachel's Experiment (D.T.)";"1.0";"2";"1";"1";"2";"1";"1";"2014-10-13 20:20:07.744";"2014-10-13 20:33:09.894";"1";"0";"1";"162";"161";"module.devaluation_practice.exec-2251.devalPractice";;;;;;;;;;;;"6277";"2014-10-13 20:29:53.663";"2";"3";"3";"6";"1367";"1103";"758";"2014-10-13 20:29:47.385";;;;;;;;;;;;;;;;;;;;;;;;;;;;;;;;;;;;;;;;;;;;;;;;;;;;;;;;;;;;;;;;;;;;;;
"louise3004";;;"Windows 8";"Rachel's Experiment (D.T.)";"1.0";"2";"1";"1";"2";"1";"1";"2014-10-13 20:20:07.744";"2014-10-13 20:33:09.894";"1";"0";"1";"163";"162";"module.devaluation_practice.exec-2251.devalPractice";;;;;;;;;;;;"7178";"2014-10-13 20:30:00.873";"3";"3";"1";"3";"814";"1782";"1550";"2014-10-13 20:29:53.694";;;;;;;;;;;;;;;;;;;;;;;;;;;;;;;;;;;;;;;;;;;;;;;;;;;;;;;;;;;;;;;;;;;;;;
"louise3004";;;"Windows 8";"Rachel's Experiment (D.T.)";"1.0";"2";"1";"1";"2";"1";"1";"2014-10-13 20:20:07.744";"2014-10-13 20:33:09.894";"1";"0";"1";"164";"163";"module.devaluation_block1.exec-6397.deval1";"6166";"2014-10-13 20:30:10.550";"10";"4";"2";"6";"966";"1026";"1123";"2014-10-13 20:30:04.384";"2";;;;;;;;;;;;;;;;;;;;;;;;;;;;;;;;;;;;;;;;;;;;;;;;;;;;;;;;;;;;;;;;;;;;;;;;;;;;;;;;
"louise3004";;;"Windows 8";"Rachel's Experiment (D.T.)";"1.0";"2";"1";"1";"2";"1";"1";"2014-10-13 20:20:07.744";"2014-10-13 20:33:09.894";"1";"0";"1";"165";"164";"module.devaluation_block1.exec-6397.deval1";"7329";"2014-10-13 20:30:17.912";"5";"6";"7";"8";"1537";"1400";"1351";"2014-10-13 20:30:10.583";"1";;;;;;;;;;;;;;;;;;;;;;;;;;;;;;;;;;;;;;;;;;;;;;;;;;;;;;;;;;;;;;;;;;;;;;;;;;;;;;;;
"louise3004";;;"Windows 8";"Rachel's Experiment (D.T.)";"1.0";"2";"1";"1";"2";"1";"1";"2014-10-13 20:20:07.744";"2014-10-13 20:33:09.894";"1";"0";"1";"166";"165";"module.devaluation_block1.exec-6397.deval1";"6159";"2014-10-13 20:30:24.100";"21";"6";"4";"7";"672";"1635";"811";"2014-10-13 20:30:17.941";"3";;;;;;;;;;;;;;;;;;;;;;;;;;;;;;;;;;;;;;;;;;;;;;;;;;;;;;;;;;;;;;;;;;;;;;;;;;;;;;;;
"louise3004";;;"Windows 8";"Rachel's Experiment (D.T.)";"1.0";"2";"1";"1";"2";"1";"1";"2014-10-13 20:20:07.744";"2014-10-13 20:33:09.894";"1";"0";"1";"167";"166";"module.devaluation_block1.exec-6397.deval1";"7440";"2014-10-13 20:30:31.572";"20";"3";"1";"4";"789";"1174";"2430";"2014-10-13 20:30:24.132";"3";;;;;;;;;;;;;;;;;;;;;;;;;;;;;;;;;;;;;;;;;;;;;;;;;;;;;;;;;;;;;;;;;;;;;;;;;;;;;;;;
"louise3004";;;"Windows 8";"Rachel's Experiment (D.T.)";"1.0";"2";"1";"1";"2";"1";"1";"2014-10-13 20:20:07.744";"2014-10-13 20:33:09.894";"1";"0";"1";"168";"167";"module.devaluation_block1.exec-6397.deval1";"7540";"2014-10-13 20:30:39.142";"14";"8";"6";"7";"1362";"1065";"2057";"2014-10-13 20:30:31.602";"2";;;;;;;;;;;;;;;;;;;;;;;;;;;;;;;;;;;;;;;;;;;;;;;;;;;;;;;;;;;;;;;;;;;;;;;;;;;;;;;;
"louise3004";;;"Windows 8";"Rachel's Experiment (D.T.)";"1.0";"2";"1";"1";"2";"1";"1";"2014-10-13 20:20:07.744";"2014-10-13 20:33:09.894";"1";"0";"1";"169";"168";"module.devaluation_block1.exec-6397.deval1";"7443";"2014-10-13 20:30:46.618";"3";"8";"7";"7";"1396";"1182";"1824";"2014-10-13 20:30:39.174";"1";;;;;;;;;;;;;;;;;;;;;;;;;;;;;;;;;;;;;;;;;;;;;;;;;;;;;;;;;;;;;;;;;;;;;;;;;;;;;;;;
"louise3004";;;"Windows 8";"Rachel's Experiment (D.T.)";"1.0";"2";"1";"1";"2";"1";"1";"2014-10-13 20:20:07.744";"2014-10-13 20:33:09.894";"1";"0";"1";"170";"169";"module.devaluation_block1.exec-6397.deval1";"6360";"2014-10-13 20:30:53.010";"19";"4";"2";"5";"1080";"975";"1256";"2014-10-13 20:30:46.648";"3";;;;;;;;;;;;;;;;;;;;;;;;;;;;;;;;;;;;;;;;;;;;;;;;;;;;;;;;;;;;;;;;;;;;;;;;;;;;;;;;
"louise3004";;;"Windows 8";"Rachel's Experiment (D.T.)";"1.0";"2";"1";"1";"2";"1";"1";"2014-10-13 20:20:07.744";"2014-10-13 20:33:09.894";"1";"0";"1";"171";"170";"module.devaluation_block1.exec-6397.deval1";"6307";"2014-10-13 20:30:59.348";"8";"3";"1";"6";"934";"969";"1361";"2014-10-13 20:30:53.040";"1";;;;;;;;;;;;;;;;;;;;;;;;;;;;;;;;;;;;;;;;;;;;;;;;;;;;;;;;;;;;;;;;;;;;;;;;;;;;;;;;
"louise3004";;;"Windows 8";"Rachel's Experiment (D.T.)";"1.0";"2";"1";"1";"2";"1";"1";"2014-10-13 20:20:07.744";"2014-10-13 20:33:09.894";"1";"0";"1";"172";"171";"module.devaluation_block1.exec-6397.deval1";"9372";"2014-10-13 20:31:08.754";"17";"5";"1";"2";"4305";"976";"1047";"2014-10-13 20:30:59.382";"2";;;;;;;;;;;;;;;;;;;;;;;;;;;;;;;;;;;;;;;;;;;;;;;;;;;;;;;;;;;;;;;;;;;;;;;;;;;;;;;;
"louise3004";;;"Windows 8";"Rachel's Experiment (D.T.)";"1.0";"2";"1";"1";"2";"1";"1";"2014-10-13 20:20:07.744";"2014-10-13 20:33:09.894";"1";"0";"1";"173";"172";"module.devaluation_block1.exec-6397.deval1";"11514";"2014-10-13 20:31:20.306";"9";"6";"2";"5";"4189";"3026";"1256";"2014-10-13 20:31:08.791";"2";;;;;;;;;;;;;;;;;;;;;;;;;;;;;;;;;;;;;;;;;;;;;;;;;;;;;;;;;;;;;;;;;;;;;;;;;;;;;;;;
"louise3004";;;"Windows 8";"Rachel's Experiment (D.T.)";"1.0";"2";"1";"1";"2";"1";"1";"2014-10-13 20:20:07.744";"2014-10-13 20:33:09.894";"1";"0";"1";"174";"173";"module.devaluation_block1.exec-6397.deval1";"7577";"2014-10-13 20:31:27.913";"12";"8";"9";"7";"1344";"2352";"838";"2014-10-13 20:31:20.336";"2";;;;;;;;;;;;;;;;;;;;;;;;;;;;;;;;;;;;;;;;;;;;;;;;;;;;;;;;;;;;;;;;;;;;;;;;;;;;;;;;
"louise3004";;;"Windows 8";"Rachel's Experiment (D.T.)";"1.0";"2";"1";"1";"2";"1";"1";"2014-10-13 20:20:07.744";"2014-10-13 20:33:09.894";"1";"0";"1";"175";"174";"module.devaluation_block1.exec-6397.deval1";"8209";"2014-10-13 20:31:36.155";"0";"6";"1";"6";"2188";"1079";"1891";"2014-10-13 20:31:27.945";"1";;;;;;;;;;;;;;;;;;;;;;;;;;;;;;;;;;;;;;;;;;;;;;;;;;;;;;;;;;;;;;;;;;;;;;;;;;;;;;;;
"louise3004";;;"Windows 8";"Rachel's Experiment (D.T.)";"1.0";"2";"1";"1";"2";"1";"1";"2014-10-13 20:20:07.744";"2014-10-13 20:33:09.894";"1";"0";"1";"176";"175";"module.devaluation_block1.exec-6397.deval1";"5683";"2014-10-13 20:31:41.872";"23";"7";"7";"8";"993";"821";"830";"2014-10-13 20:31:36.189";"3";;;;;;;;;;;;;;;;;;;;;;;;;;;;;;;;;;;;;;;;;;;;;;;;;;;;;;;;;;;;;;;;;;;;;;;;;;;;;;;;
"louise3004";;;"Windows 8";"Rachel's Experiment (D.T.)";"1.0";"2";"1";"1";"2";"1";"1";"2014-10-13 20:20:07.744";"2014-10-13 20:33:09.894";"1";"0";"1";"177";"176";"module.devaluation_block1.exec-6397.deval1";"5599";"2014-10-13 20:31:47.507";"22";"6";"3";"6";"555";"1355";"650";"2014-10-13 20:31:41.908";"3";;;;;;;;;;;;;;;;;;;;;;;;;;;;;;;;;;;;;;;;;;;;;;;;;;;;;;;;;;;;;;;;;;;;;;;;;;;;;;;;
"louise3004";;;"Windows 8";"Rachel's Experiment (D.T.)";"1.0";"2";"1";"1";"2";"1";"1";"2014-10-13 20:20:07.744";"2014-10-13 20:33:09.894";"1";"0";"1";"178";"177";"module.devaluation_block1.exec-6397.deval1";"6932";"2014-10-13 20:31:54.474";"6";"5";"1";"2";"650";"1223";"2018";"2014-10-13 20:31:47.542";"1";;;;;;;;;;;;;;;;;;;;;;;;;;;;;;;;;;;;;;;;;;;;;;;;;;;;;;;;;;;;;;;;;;;;;;;;;;;;;;;;
"louise3004";;;"Windows 8";"Rachel's Experiment (D.T.)";"1.0";"2";"1";"1";"2";"1";"1";"2014-10-13 20:20:07.744";"2014-10-13 20:33:09.894";"1";"0";"1";"179";"178";"module.devaluation_block1.exec-6397.deval1";"5863";"2014-10-13 20:32:00.368";"2";"6";"2";"7";"599";"1280";"946";"2014-10-13 20:31:54.505";"1";;;;;;;;;;;;;;;;;;;;;;;;;;;;;;;;;;;;;;;;;;;;;;;;;;;;;;;;;;;;;;;;;;;;;;;;;;;;;;;;
"louise3004";;;"Windows 8";"Rachel's Experiment (D.T.)";"1.0";"2";"1";"1";"2";"1";"1";"2014-10-13 20:20:07.744";"2014-10-13 20:33:09.894";"1";"0";"1";"180";"179";"module.devaluation_block1.exec-6397.deval1";"5795";"2014-10-13 20:32:06.194";"18";"3";"7";"8";"867";"973";"915";"2014-10-13 20:32:00.399";"3";;;;;;;;;;;;;;;;;;;;;;;;;;;;;;;;;;;;;;;;;;;;;;;;;;;;;;;;;;;;;;;;;;;;;;;;;;;;;;;;
"louise3004";;;"Windows 8";"Rachel's Experiment (D.T.)";"1.0";"2";"1";"1";"2";"1";"1";"2014-10-13 20:20:07.744";"2014-10-13 20:33:09.894";"1";"0";"1";"181";"180";"module.devaluation_block1.exec-6397.deval1";"5282";"2014-10-13 20:32:11.508";"25";"7";"8";"8";"709";"823";"715";"2014-10-13 20:32:06.225";"3";;;;;;;;;;;;;;;;;;;;;;;;;;;;;;;;;;;;;;;;;;;;;;;;;;;;;;;;;;;;;;;;;;;;;;;;;;;;;;;;
"louise3004";;;"Windows 8";"Rachel's Experiment (D.T.)";"1.0";"2";"1";"1";"2";"1";"1";"2014-10-13 20:20:07.744";"2014-10-13 20:33:09.894";"1";"0";"1";"182";"181";"module.devaluation_block1.exec-6397.deval1";"6269";"2014-10-13 20:32:17.807";"16";"3";"1";"2";"717";"676";"1834";"2014-10-13 20:32:11.538";"2";;;;;;;;;;;;;;;;;;;;;;;;;;;;;;;;;;;;;;;;;;;;;;;;;;;;;;;;;;;;;;;;;;;;;;;;;;;;;;;;
"louise3004";;;"Windows 8";"Rachel's Experiment (D.T.)";"1.0";"2";"1";"1";"2";"1";"1";"2014-10-13 20:20:07.744";"2014-10-13 20:33:09.894";"1";"0";"1";"183";"182";"module.devaluation_block1.exec-6397.deval1";"5288";"2014-10-13 20:32:23.125";"11";"6";"1";"3";"638";"947";"662";"2014-10-13 20:32:17.837";"2";;;;;;;;;;;;;;;;;;;;;;;;;;;;;;;;;;;;;;;;;;;;;;;;;;;;;;;;;;;;;;;;;;;;;;;;;;;;;;;;
"louise3004";;;"Windows 8";"Rachel's Experiment (D.T.)";"1.0";"2";"1";"1";"2";"1";"1";"2014-10-13 20:20:07.744";"2014-10-13 20:33:09.894";"1";"0";"1";"184";"183";"module.devaluation_block1.exec-6397.deval1";"6697";"2014-10-13 20:32:29.852";"26";"7";"2";"7";"942";"1006";"1706";"2014-10-13 20:32:23.155";"3";;;;;;;;;;;;;;;;;;;;;;;;;;;;;;;;;;;;;;;;;;;;;;;;;;;;;;;;;;;;;;;;;;;;;;;;;;;;;;;;
"louise3004";;;"Windows 8";"Rachel's Experiment (D.T.)";"1.0";"2";"1";"1";"2";"1";"1";"2014-10-13 20:20:07.744";"2014-10-13 20:33:09.894";"1";"0";"1";"185";"184";"module.devaluation_block1.exec-6397.deval1";"6260";"2014-10-13 20:32:36.149";"7";"3";"1";"2";"1292";"876";"1049";"2014-10-13 20:32:29.888";"1";;;;;;;;;;;;;;;;;;;;;;;;;;;;;;;;;;;;;;;;;;;;;;;;;;;;;;;;;;;;;;;;;;;;;;;;;;;;;;;;
"louise3004";;;"Windows 8";"Rachel's Experiment (D.T.)";"1.0";"2";"1";"1";"2";"1";"1";"2014-10-13 20:20:07.744";"2014-10-13 20:33:09.894";"1";"0";"1";"186";"185";"module.devaluation_block1.exec-6397.deval1";"6919";"2014-10-13 20:32:43.100";"4";"7";"8";"8";"713";"864";"2297";"2014-10-13 20:32:36.181";"1";;;;;;;;;;;;;;;;;;;;;;;;;;;;;;;;;;;;;;;;;;;;;;;;;;;;;;;;;;;;;;;;;;;;;;;;;;;;;;;;
"louise3004";;;"Windows 8";"Rachel's Experiment (D.T.)";"1.0";"2";"1";"1";"2";"1";"1";"2014-10-13 20:20:07.744";"2014-10-13 20:33:09.894";"1";"0";"1";"187";"186";"module.devaluation_block1.exec-6397.deval1";"7925";"2014-10-13 20:32:51.057";"13";"6";"3";"3";"607";"2558";"1720";"2014-10-13 20:32:43.132";"2";;;;;;;;;;;;;;;;;;;;;;;;;;;;;;;;;;;;;;;;;;;;;;;;;;;;;;;;;;;;;;;;;;;;;;;;;;;;;;;;
"louise3004";;;"Windows 8";"Rachel's Experiment (D.T.)";"1.0";"2";"1";"1";"2";"1";"1";"2014-10-13 20:20:07.744";"2014-10-13 20:33:09.894";"1";"0";"1";"188";"187";"module.devaluation_block1.exec-6397.deval1";"4788";"2014-10-13 20:32:55.876";"1";"5";"4";"5";"938";"413";"397";"2014-10-13 20:32:51.088";"1";;;;;;;;;;;;;;;;;;;;;;;;;;;;;;;;;;;;;;;;;;;;;;;;;;;;;;;;;;;;;;;;;;;;;;;;;;;;;;;;
"louise3004";;;"Windows 8";"Rachel's Experiment (D.T.)";"1.0";"2";"1";"1";"2";"1";"1";"2014-10-13 20:20:07.744";"2014-10-13 20:33:09.894";"1";"0";"1";"189";"188";"module.devaluation_block1.exec-6397.deval1";"5972";"2014-10-13 20:33:01.880";"24";"8";"8";"9";"642";"994";"1298";"2014-10-13 20:32:55.906";"3";;;;;;;;;;;;;;;;;;;;;;;;;;;;;;;;;;;;;;;;;;;;;;;;;;;;;;;;;;;;;;;;;;;;;;;;;;;;;;;;
"louise3004";;;"Windows 8";"Rachel's Experiment (D.T.)";"1.0";"2";"1";"1";"2";"1";"1";"2014-10-13 20:20:07.744";"2014-10-13 20:33:09.894";"1";"0";"1";"190";"189";"module.devaluation_block1.exec-6397.deval1";"6124";"2014-10-13 20:33:08.034";"15";"1";"1";"2";"1378";"825";"881";"2014-10-13 20:33:01.909";"2";;;;;;;;;;;;;;;;;;;;;;;;;;;;;;;;;;;;;;;;;;;;;;;;;;;;;;;;;;;;;;;;;;;;;;;;;;;;;;;;
