"user.name";"user.yearOfBirth";"user.sex";"user.osName";"module.name";"module.version";"module.online.subject.code";"module.online.study.id";"module.online.module.nr";"module.online.group.nr";"session.id";"session.index";"session.startTime";"session.endTime";"session.completed";"session.node-2006.DevalQorder";"session.node-5427.conditionType";"trial.id";"trial.index";"trial.name";"trial.deval1.durationTime";"trial.deval1.endTime";"trial.deval1.icon";"trial.deval1.Resp_Attractive";"trial.deval1.Resp_Eat";"trial.deval1.Resp_Taste";"trial.deval1.RT_Attractive";"trial.deval1.RT_Eat";"trial.deval1.RT_Taste";"trial.deval1.startTime";"trial.deval1.stimulus type";"trial.devalPractice.durationTime";"trial.devalPractice.endTime";"trial.devalPractice.icon";"trial.devalPractice.Resp_Attractive";"trial.devalPractice.Resp_Eat";"trial.devalPractice.Resp_Taste";"trial.devalPractice.RT_Attractive";"trial.devalPractice.RT_Eat";"trial.devalPractice.RT_Taste";"trial.devalPractice.startTime";"trial.devalPractice.stimulus type";"trial.GoNoGo1.durationTime";"trial.GoNoGo1.endTime";"trial.GoNoGo1.Error Type";"trial.GoNoGo1.icon";"trial.GoNoGo1.location";"trial.GoNoGo1.outcome";"trial.GoNoGo1.response";"trial.GoNoGo1.result";"trial.GoNoGo1.RT";"trial.GoNoGo1.signal";"trial.GoNoGo1.startTime";"trial.GoNoGo1.stimulus type";"trial.GoNoGo2.durationTime";"trial.GoNoGo2.endTime";"trial.GoNoGo2.Error Type";"trial.GoNoGo2.icon";"trial.GoNoGo2.location";"trial.GoNoGo2.outcome";"trial.GoNoGo2.response";"trial.GoNoGo2.result";"trial.GoNoGo2.RT";"trial.GoNoGo2.signal";"trial.GoNoGo2.startTime";"trial.GoNoGo2.stimulus type";"trial.GoNoGo3.durationTime";"trial.GoNoGo3.endTime";"trial.GoNoGo3.Error Type";"trial.GoNoGo3.icon";"trial.GoNoGo3.location";"trial.GoNoGo3.outcome";"trial.GoNoGo3.response";"trial.GoNoGo3.result";"trial.GoNoGo3.RT";"trial.GoNoGo3.signal";"trial.GoNoGo3.startTime";"trial.GoNoGo3.stimulus type";"trial.GoNoGo4.durationTime";"trial.GoNoGo4.endTime";"trial.GoNoGo4.Error Type";"trial.GoNoGo4.icon";"trial.GoNoGo4.location";"trial.GoNoGo4.outcome";"trial.GoNoGo4.response";"trial.GoNoGo4.result";"trial.GoNoGo4.RT";"trial.GoNoGo4.signal";"trial.GoNoGo4.startTime";"trial.GoNoGo4.stimulus type";"trial.GoNoGo_Practice.durationTime";"trial.GoNoGo_Practice.endTime";"trial.GoNoGo_Practice.icon";"trial.GoNoGo_Practice.location";"trial.GoNoGo_Practice.outcome";"trial.GoNoGo_Practice.response";"trial.GoNoGo_Practice.result";"trial.GoNoGo_Practice.RT";"trial.GoNoGo_Practice.signal";"trial.GoNoGo_Practice.startTime";"trial.GoNoGo_Practice.stimulus type";"trial.GoNoGo_Tutorial.durationTime";"trial.GoNoGo_Tutorial.endTime";"trial.GoNoGo_Tutorial.icon";"trial.GoNoGo_Tutorial.location";"trial.GoNoGo_Tutorial.outcome";"trial.GoNoGo_Tutorial.response";"trial.GoNoGo_Tutorial.result";"trial.GoNoGo_Tutorial.RT";"trial.GoNoGo_Tutorial.signal";"trial.GoNoGo_Tutorial.startTime"
"C1410978";"1995";;"Windows 7";"Rachel's Experiment (D.T.)";"1.0";"2";"1";"1";"2";"1";"1";"2014-10-13 14:26:16.425";"2014-10-13 14:39:16.846";"1";"0";"0";"1";"0";"module.GoNoGotutorial.exec-2510.GoNoGo_Tutorial";;;;;;;;;;;;;;;;;;;;;;;;;;;;;;;;;;;;;;;;;;;;;;;;;;;;;;;;;;;;;;;;;;;;;;;;;;;;;;;;;;"3997";"2014-10-13 14:26:56.690";"leftResponse";"0";"FINISHED";"LEFT";"success";"796";"0";"2014-10-13 14:26:52.680"
"C1410978";"1995";;"Windows 7";"Rachel's Experiment (D.T.)";"1.0";"2";"1";"1";"2";"1";"1";"2014-10-13 14:26:16.425";"2014-10-13 14:39:16.846";"1";"0";"0";"2";"1";"module.GoNoGotutorial.exec-2510.GoNoGo_Tutorial";;;;;;;;;;;;;;;;;;;;;;;;;;;;;;;;;;;;;;;;;;;;;;;;;;;;;;;;;;;;;;;;;;;;;;;;;;;;;;;;;;"4002";"2014-10-13 14:27:01.978";"rightResponse";"1";"FINISHED";"RIGHT";"success";"362";"0";"2014-10-13 14:26:57.969"
"C1410978";"1995";;"Windows 7";"Rachel's Experiment (D.T.)";"1.0";"2";"1";"1";"2";"1";"1";"2014-10-13 14:26:16.425";"2014-10-13 14:39:16.846";"1";"0";"0";"3";"2";"module.GoNoGotutorial.exec-2510.GoNoGo_Tutorial";;;;;;;;;;;;;;;;;;;;;;;;;;;;;;;;;;;;;;;;;;;;;;;;;;;;;;;;;;;;;;;;;;;;;;;;;;;;;;;;;;"4003";"2014-10-13 14:27:07.282";"quickResponse";"0";"FINISHED";"NONE";"failure";"0";"0";"2014-10-13 14:27:03.273"
"C1410978";"1995";;"Windows 7";"Rachel's Experiment (D.T.)";"1.0";"2";"1";"1";"2";"1";"1";"2014-10-13 14:26:16.425";"2014-10-13 14:39:16.846";"1";"0";"0";"4";"3";"module.GoNoGopractice.exec-5940.GoNoGo_Practice";;;;;;;;;;;;;;;;;;;;;;;;;;;;;;;;;;;;;;;;;;;;;;;;;;;;;;;;;;;;;;;;;;;;;;;"1959";"2014-10-13 14:27:14.146";"18";"0";"FINISHED";"LEFT";"success";"285";"0";"2014-10-13 14:27:12.181";"3";;;;;;;;;;
"C1410978";"1995";;"Windows 7";"Rachel's Experiment (D.T.)";"1.0";"2";"1";"1";"2";"1";"1";"2014-10-13 14:26:16.425";"2014-10-13 14:39:16.846";"1";"0";"0";"5";"4";"module.GoNoGopractice.exec-5940.GoNoGo_Practice";;;;;;;;;;;;;;;;;;;;;;;;;;;;;;;;;;;;;;;;;;;;;;;;;;;;;;;;;;;;;;;;;;;;;;;"1959";"2014-10-13 14:27:17.391";"21";"1";"FINISHED";"RIGHT";"success";"265";"0";"2014-10-13 14:27:15.426";"3";;;;;;;;;;
"C1410978";"1995";;"Windows 7";"Rachel's Experiment (D.T.)";"1.0";"2";"1";"1";"2";"1";"1";"2014-10-13 14:26:16.425";"2014-10-13 14:39:16.846";"1";"0";"0";"6";"5";"module.GoNoGopractice.exec-5940.GoNoGo_Practice";;;;;;;;;;;;;;;;;;;;;;;;;;;;;;;;;;;;;;;;;;;;;;;;;;;;;;;;;;;;;;;;;;;;;;;"1959";"2014-10-13 14:27:20.636";"14";"1";"FINISHED";"RIGHT";"success";"324";"0";"2014-10-13 14:27:18.670";"2";;;;;;;;;;
"C1410978";"1995";;"Windows 7";"Rachel's Experiment (D.T.)";"1.0";"2";"1";"1";"2";"1";"1";"2014-10-13 14:26:16.425";"2014-10-13 14:39:16.846";"1";"0";"0";"7";"6";"module.GoNoGopractice.exec-5940.GoNoGo_Practice";;;;;;;;;;;;;;;;;;;;;;;;;;;;;;;;;;;;;;;;;;;;;;;;;;;;;;;;;;;;;;;;;;;;;;;"1958";"2014-10-13 14:27:23.881";"26";"0";"FINISHED";"LEFT";"success";"263";"0";"2014-10-13 14:27:21.915";"3";;;;;;;;;;
"C1410978";"1995";;"Windows 7";"Rachel's Experiment (D.T.)";"1.0";"2";"1";"1";"2";"1";"1";"2014-10-13 14:26:16.425";"2014-10-13 14:39:16.846";"1";"0";"0";"8";"7";"module.GoNoGopractice.exec-5940.GoNoGo_Practice";;;;;;;;;;;;;;;;;;;;;;;;;;;;;;;;;;;;;;;;;;;;;;;;;;;;;;;;;;;;;;;;;;;;;;;"1959";"2014-10-13 14:27:27.126";"2";"0";"FINISHED";"LEFT";"success";"339";"0";"2014-10-13 14:27:25.160";"1";;;;;;;;;;
"C1410978";"1995";;"Windows 7";"Rachel's Experiment (D.T.)";"1.0";"2";"1";"1";"2";"1";"1";"2014-10-13 14:26:16.425";"2014-10-13 14:39:16.846";"1";"0";"0";"9";"8";"module.GoNoGopractice.exec-5940.GoNoGo_Practice";;;;;;;;;;;;;;;;;;;;;;;;;;;;;;;;;;;;;;;;;;;;;;;;;;;;;;;;;;;;;;;;;;;;;;;"1959";"2014-10-13 14:27:30.386";"30";"0";"FINISHED";"LEFT";"success";"375";"0";"2014-10-13 14:27:28.421";"3";;;;;;;;;;
"C1410978";"1995";;"Windows 7";"Rachel's Experiment (D.T.)";"1.0";"2";"1";"1";"2";"1";"1";"2014-10-13 14:26:16.425";"2014-10-13 14:39:16.846";"1";"0";"0";"10";"9";"module.GoNoGopractice.exec-5940.GoNoGo_Practice";;;;;;;;;;;;;;;;;;;;;;;;;;;;;;;;;;;;;;;;;;;;;;;;;;;;;;;;;;;;;;;;;;;;;;;"1959";"2014-10-13 14:27:33.631";"6";"1";"FINISHED";"RIGHT";"success";"265";"0";"2014-10-13 14:27:31.665";"1";;;;;;;;;;
"C1410978";"1995";;"Windows 7";"Rachel's Experiment (D.T.)";"1.0";"2";"1";"1";"2";"1";"1";"2014-10-13 14:26:16.425";"2014-10-13 14:39:16.846";"1";"0";"0";"11";"10";"module.GoNoGopractice.exec-5940.GoNoGo_Practice";;;;;;;;;;;;;;;;;;;;;;;;;;;;;;;;;;;;;;;;;;;;;;;;;;;;;;;;;;;;;;;;;;;;;;;"1960";"2014-10-13 14:27:36.876";"34";"0";"FINISHED";"LEFT";"success";"374";"0";"2014-10-13 14:27:34.910";"3";;;;;;;;;;
"C1410978";"1995";;"Windows 7";"Rachel's Experiment (D.T.)";"1.0";"2";"1";"1";"2";"1";"1";"2014-10-13 14:26:16.425";"2014-10-13 14:39:16.846";"1";"0";"0";"12";"11";"module.GoNoGopractice.exec-5940.GoNoGo_Practice";;;;;;;;;;;;;;;;;;;;;;;;;;;;;;;;;;;;;;;;;;;;;;;;;;;;;;;;;;;;;;;;;;;;;;;"1959";"2014-10-13 14:27:40.121";"23";"1";"FINISHED";"RIGHT";"success";"400";"0";"2014-10-13 14:27:38.155";"3";;;;;;;;;;
"C1410978";"1995";;"Windows 7";"Rachel's Experiment (D.T.)";"1.0";"2";"1";"1";"2";"1";"1";"2014-10-13 14:26:16.425";"2014-10-13 14:39:16.846";"1";"0";"0";"13";"12";"module.GoNoGopractice.exec-5940.GoNoGo_Practice";;;;;;;;;;;;;;;;;;;;;;;;;;;;;;;;;;;;;;;;;;;;;;;;;;;;;;;;;;;;;;;;;;;;;;;"1959";"2014-10-13 14:27:43.366";"13";"0";"FINISHED";"LEFT";"success";"283";"0";"2014-10-13 14:27:41.400";"2";;;;;;;;;;
"C1410978";"1995";;"Windows 7";"Rachel's Experiment (D.T.)";"1.0";"2";"1";"1";"2";"1";"1";"2014-10-13 14:26:16.425";"2014-10-13 14:39:16.846";"1";"0";"0";"14";"13";"module.GoNoGopractice.exec-5940.GoNoGo_Practice";;;;;;;;;;;;;;;;;;;;;;;;;;;;;;;;;;;;;;;;;;;;;;;;;;;;;;;;;;;;;;;;;;;;;;;"1960";"2014-10-13 14:27:46.611";"3";"1";"FINISHED";"RIGHT";"success";"263";"0";"2014-10-13 14:27:44.645";"1";;;;;;;;;;
"C1410978";"1995";;"Windows 7";"Rachel's Experiment (D.T.)";"1.0";"2";"1";"1";"2";"1";"1";"2014-10-13 14:26:16.425";"2014-10-13 14:39:16.846";"1";"0";"0";"15";"14";"module.GoNoGopractice.exec-5940.GoNoGo_Practice";;;;;;;;;;;;;;;;;;;;;;;;;;;;;;;;;;;;;;;;;;;;;;;;;;;;;;;;;;;;;;;;;;;;;;;"1959";"2014-10-13 14:27:49.855";"27";"1";"FINISHED";"RIGHT";"success";"345";"0";"2014-10-13 14:27:47.890";"3";;;;;;;;;;
"C1410978";"1995";;"Windows 7";"Rachel's Experiment (D.T.)";"1.0";"2";"1";"1";"2";"1";"1";"2014-10-13 14:26:16.425";"2014-10-13 14:39:16.846";"1";"0";"0";"16";"15";"module.training_block1.exec-2002.GoNoGo1";;;;;;;;;;;;;;;;;;;;;;;"1261";"2014-10-13 14:27:56.049";"NST_correctLoc";"2";"0";"FINISHED";"LEFT";"success";"413";"0";"2014-10-13 14:27:54.785";"1";;;;;;;;;;;;;;;;;;;;;;;;;;;;;;;;;;;;;;;;;;;;;;;;;;;;;;;;;
"C1410978";"1995";;"Windows 7";"Rachel's Experiment (D.T.)";"1.0";"2";"1";"1";"2";"1";"1";"2014-10-13 14:26:16.425";"2014-10-13 14:39:16.846";"1";"0";"0";"17";"16";"module.training_block1.exec-2002.GoNoGo1";;;;;;;;;;;;;;;;;;;;;;;"1256";"2014-10-13 14:27:58.592";"NST_correctLoc";"17";"0";"FINISHED";"LEFT";"success";"346";"0";"2014-10-13 14:27:57.328";"2";;;;;;;;;;;;;;;;;;;;;;;;;;;;;;;;;;;;;;;;;;;;;;;;;;;;;;;;;
"C1410978";"1995";;"Windows 7";"Rachel's Experiment (D.T.)";"1.0";"2";"1";"1";"2";"1";"1";"2014-10-13 14:26:16.425";"2014-10-13 14:39:16.846";"1";"0";"0";"18";"17";"module.training_block1.exec-2002.GoNoGo1";;;;;;;;;;;;;;;;;;;;;;;"1257";"2014-10-13 14:28:01.134";"NST_correctLoc";"22";"1";"FINISHED";"RIGHT";"success";"277";"0";"2014-10-13 14:27:59.871";"3";;;;;;;;;;;;;;;;;;;;;;;;;;;;;;;;;;;;;;;;;;;;;;;;;;;;;;;;;
"C1410978";"1995";;"Windows 7";"Rachel's Experiment (D.T.)";"1.0";"2";"1";"1";"2";"1";"1";"2014-10-13 14:26:16.425";"2014-10-13 14:39:16.846";"1";"0";"0";"19";"18";"module.training_block1.exec-2002.GoNoGo1";;;;;;;;;;;;;;;;;;;;;;;"1261";"2014-10-13 14:28:03.677";"NST_correctLoc";"23";"0";"FINISHED";"LEFT";"success";"274";"0";"2014-10-13 14:28:02.414";"3";;;;;;;;;;;;;;;;;;;;;;;;;;;;;;;;;;;;;;;;;;;;;;;;;;;;;;;;;
"C1410978";"1995";;"Windows 7";"Rachel's Experiment (D.T.)";"1.0";"2";"1";"1";"2";"1";"1";"2014-10-13 14:26:16.425";"2014-10-13 14:39:16.846";"1";"0";"0";"20";"19";"module.training_block1.exec-2002.GoNoGo1";;;;;;;;;;;;;;;;;;;;;;;"1257";"2014-10-13 14:28:06.220";"NST_correctLoc";"11";"0";"FINISHED";"LEFT";"success";"287";"0";"2014-10-13 14:28:04.956";"2";;;;;;;;;;;;;;;;;;;;;;;;;;;;;;;;;;;;;;;;;;;;;;;;;;;;;;;;;
"C1410978";"1995";;"Windows 7";"Rachel's Experiment (D.T.)";"1.0";"2";"1";"1";"2";"1";"1";"2014-10-13 14:26:16.425";"2014-10-13 14:39:16.846";"1";"0";"0";"21";"20";"module.training_block1.exec-2002.GoNoGo1";;;;;;;;;;;;;;;;;;;;;;;"1257";"2014-10-13 14:28:08.763";"NST_correctLoc";"24";"1";"FINISHED";"RIGHT";"success";"312";"0";"2014-10-13 14:28:07.499";"3";;;;;;;;;;;;;;;;;;;;;;;;;;;;;;;;;;;;;;;;;;;;;;;;;;;;;;;;;
"C1410978";"1995";;"Windows 7";"Rachel's Experiment (D.T.)";"1.0";"2";"1";"1";"2";"1";"1";"2014-10-13 14:26:16.425";"2014-10-13 14:39:16.846";"1";"0";"0";"22";"21";"module.training_block1.exec-2002.GoNoGo1";;;;;;;;;;;;;;;;;;;;;;;"1257";"2014-10-13 14:28:11.306";"NST_correctLoc";"16";"0";"FINISHED";"LEFT";"success";"289";"0";"2014-10-13 14:28:10.042";"2";;;;;;;;;;;;;;;;;;;;;;;;;;;;;;;;;;;;;;;;;;;;;;;;;;;;;;;;;
"C1410978";"1995";;"Windows 7";"Rachel's Experiment (D.T.)";"1.0";"2";"1";"1";"2";"1";"1";"2014-10-13 14:26:16.425";"2014-10-13 14:39:16.846";"1";"0";"0";"23";"22";"module.training_block1.exec-2002.GoNoGo1";;;;;;;;;;;;;;;;;;;;;;;"1257";"2014-10-13 14:28:13.849";"NST_correctLoc";"12";"0";"FINISHED";"LEFT";"success";"299";"0";"2014-10-13 14:28:12.585";"2";;;;;;;;;;;;;;;;;;;;;;;;;;;;;;;;;;;;;;;;;;;;;;;;;;;;;;;;;
"C1410978";"1995";;"Windows 7";"Rachel's Experiment (D.T.)";"1.0";"2";"1";"1";"2";"1";"1";"2014-10-13 14:26:16.425";"2014-10-13 14:39:16.846";"1";"0";"0";"24";"23";"module.training_block1.exec-2002.GoNoGo1";;;;;;;;;;;;;;;;;;;;;;;"1257";"2014-10-13 14:28:16.391";"NST_correctLoc";"33";"1";"FINISHED";"RIGHT";"success";"340";"0";"2014-10-13 14:28:15.128";"3";;;;;;;;;;;;;;;;;;;;;;;;;;;;;;;;;;;;;;;;;;;;;;;;;;;;;;;;;
"C1410978";"1995";;"Windows 7";"Rachel's Experiment (D.T.)";"1.0";"2";"1";"1";"2";"1";"1";"2014-10-13 14:26:16.425";"2014-10-13 14:39:16.846";"1";"0";"0";"25";"24";"module.training_block1.exec-2002.GoNoGo1";;;;;;;;;;;;;;;;;;;;;;;"1257";"2014-10-13 14:28:18.950";"NST_correctLoc";"29";"0";"FINISHED";"LEFT";"success";"278";"0";"2014-10-13 14:28:17.686";"3";;;;;;;;;;;;;;;;;;;;;;;;;;;;;;;;;;;;;;;;;;;;;;;;;;;;;;;;;
"C1410978";"1995";;"Windows 7";"Rachel's Experiment (D.T.)";"1.0";"2";"1";"1";"2";"1";"1";"2014-10-13 14:26:16.425";"2014-10-13 14:39:16.846";"1";"0";"0";"26";"25";"module.training_block1.exec-2002.GoNoGo1";;;;;;;;;;;;;;;;;;;;;;;"1261";"2014-10-13 14:28:21.493";"NST_correctLoc";"30";"0";"FINISHED";"LEFT";"success";"379";"0";"2014-10-13 14:28:20.229";"3";;;;;;;;;;;;;;;;;;;;;;;;;;;;;;;;;;;;;;;;;;;;;;;;;;;;;;;;;
"C1410978";"1995";;"Windows 7";"Rachel's Experiment (D.T.)";"1.0";"2";"1";"1";"2";"1";"1";"2014-10-13 14:26:16.425";"2014-10-13 14:39:16.846";"1";"0";"0";"27";"26";"module.training_block1.exec-2002.GoNoGo1";;;;;;;;;;;;;;;;;;;;;;;"1257";"2014-10-13 14:28:24.036";"NST_correctLoc";"15";"1";"FINISHED";"RIGHT";"success";"319";"0";"2014-10-13 14:28:22.772";"2";;;;;;;;;;;;;;;;;;;;;;;;;;;;;;;;;;;;;;;;;;;;;;;;;;;;;;;;;
"C1410978";"1995";;"Windows 7";"Rachel's Experiment (D.T.)";"1.0";"2";"1";"1";"2";"1";"1";"2014-10-13 14:26:16.425";"2014-10-13 14:39:16.846";"1";"0";"0";"28";"27";"module.training_block1.exec-2002.GoNoGo1";;;;;;;;;;;;;;;;;;;;;;;"1257";"2014-10-13 14:28:26.578";"NST_correctLoc";"10";"1";"FINISHED";"RIGHT";"success";"385";"0";"2014-10-13 14:28:25.315";"2";;;;;;;;;;;;;;;;;;;;;;;;;;;;;;;;;;;;;;;;;;;;;;;;;;;;;;;;;
"C1410978";"1995";;"Windows 7";"Rachel's Experiment (D.T.)";"1.0";"2";"1";"1";"2";"1";"1";"2014-10-13 14:26:16.425";"2014-10-13 14:39:16.846";"1";"0";"0";"29";"28";"module.training_block1.exec-2002.GoNoGo1";;;;;;;;;;;;;;;;;;;;;;;"1261";"2014-10-13 14:28:29.121";"NST_correctLoc";"18";"1";"FINISHED";"RIGHT";"success";"446";"0";"2014-10-13 14:28:27.858";"3";;;;;;;;;;;;;;;;;;;;;;;;;;;;;;;;;;;;;;;;;;;;;;;;;;;;;;;;;
"C1410978";"1995";;"Windows 7";"Rachel's Experiment (D.T.)";"1.0";"2";"1";"1";"2";"1";"1";"2014-10-13 14:26:16.425";"2014-10-13 14:39:16.846";"1";"0";"0";"30";"29";"module.training_block1.exec-2002.GoNoGo1";;;;;;;;;;;;;;;;;;;;;;;"1256";"2014-10-13 14:28:31.664";"NST_correctLoc";"32";"0";"FINISHED";"LEFT";"success";"506";"0";"2014-10-13 14:28:30.401";"3";;;;;;;;;;;;;;;;;;;;;;;;;;;;;;;;;;;;;;;;;;;;;;;;;;;;;;;;;
"C1410978";"1995";;"Windows 7";"Rachel's Experiment (D.T.)";"1.0";"2";"1";"1";"2";"1";"1";"2014-10-13 14:26:16.425";"2014-10-13 14:39:16.846";"1";"0";"0";"31";"30";"module.training_block1.exec-2002.GoNoGo1";;;;;;;;;;;;;;;;;;;;;;;"1257";"2014-10-13 14:28:34.207";"NST_correctLoc";"9";"1";"FINISHED";"RIGHT";"success";"340";"0";"2014-10-13 14:28:32.943";"2";;;;;;;;;;;;;;;;;;;;;;;;;;;;;;;;;;;;;;;;;;;;;;;;;;;;;;;;;
"C1410978";"1995";;"Windows 7";"Rachel's Experiment (D.T.)";"1.0";"2";"1";"1";"2";"1";"1";"2014-10-13 14:26:16.425";"2014-10-13 14:39:16.846";"1";"0";"0";"32";"31";"module.training_block1.exec-2002.GoNoGo1";;;;;;;;;;;;;;;;;;;;;;;"1257";"2014-10-13 14:28:36.750";"NST_correctLoc";"4";"1";"FINISHED";"RIGHT";"success";"629";"0";"2014-10-13 14:28:35.486";"1";;;;;;;;;;;;;;;;;;;;;;;;;;;;;;;;;;;;;;;;;;;;;;;;;;;;;;;;;
"C1410978";"1995";;"Windows 7";"Rachel's Experiment (D.T.)";"1.0";"2";"1";"1";"2";"1";"1";"2014-10-13 14:26:16.425";"2014-10-13 14:39:16.846";"1";"0";"0";"33";"32";"module.training_block1.exec-2002.GoNoGo1";;;;;;;;;;;;;;;;;;;;;;;"1261";"2014-10-13 14:28:39.293";"NST_correctLoc";"34";"0";"FINISHED";"LEFT";"success";"579";"0";"2014-10-13 14:28:38.029";"3";;;;;;;;;;;;;;;;;;;;;;;;;;;;;;;;;;;;;;;;;;;;;;;;;;;;;;;;;
"C1410978";"1995";;"Windows 7";"Rachel's Experiment (D.T.)";"1.0";"2";"1";"1";"2";"1";"1";"2014-10-13 14:26:16.425";"2014-10-13 14:39:16.846";"1";"0";"0";"34";"33";"module.training_block1.exec-2002.GoNoGo1";;;;;;;;;;;;;;;;;;;;;;;"1257";"2014-10-13 14:28:41.836";"NST_correctLoc";"28";"0";"FINISHED";"LEFT";"success";"312";"0";"2014-10-13 14:28:40.572";"3";;;;;;;;;;;;;;;;;;;;;;;;;;;;;;;;;;;;;;;;;;;;;;;;;;;;;;;;;
"C1410978";"1995";;"Windows 7";"Rachel's Experiment (D.T.)";"1.0";"2";"1";"1";"2";"1";"1";"2014-10-13 14:26:16.425";"2014-10-13 14:39:16.846";"1";"0";"0";"35";"34";"module.training_block1.exec-2002.GoNoGo1";;;;;;;;;;;;;;;;;;;;;;;"1258";"2014-10-13 14:28:44.378";"NST_correctLoc";"5";"1";"FINISHED";"RIGHT";"success";"305";"0";"2014-10-13 14:28:43.115";"1";;;;;;;;;;;;;;;;;;;;;;;;;;;;;;;;;;;;;;;;;;;;;;;;;;;;;;;;;
"C1410978";"1995";;"Windows 7";"Rachel's Experiment (D.T.)";"1.0";"2";"1";"1";"2";"1";"1";"2014-10-13 14:26:16.425";"2014-10-13 14:39:16.846";"1";"0";"0";"36";"35";"module.training_block1.exec-2002.GoNoGo1";;;;;;;;;;;;;;;;;;;;;;;"1261";"2014-10-13 14:28:46.921";"NST_correctLoc";"21";"0";"FINISHED";"LEFT";"success";"302";"0";"2014-10-13 14:28:45.658";"3";;;;;;;;;;;;;;;;;;;;;;;;;;;;;;;;;;;;;;;;;;;;;;;;;;;;;;;;;
"C1410978";"1995";;"Windows 7";"Rachel's Experiment (D.T.)";"1.0";"2";"1";"1";"2";"1";"1";"2014-10-13 14:26:16.425";"2014-10-13 14:39:16.846";"1";"0";"0";"37";"36";"module.training_block1.exec-2002.GoNoGo1";;;;;;;;;;;;;;;;;;;;;;;"1257";"2014-10-13 14:28:49.464";"NST_correctLoc";"20";"1";"FINISHED";"RIGHT";"success";"388";"0";"2014-10-13 14:28:48.201";"3";;;;;;;;;;;;;;;;;;;;;;;;;;;;;;;;;;;;;;;;;;;;;;;;;;;;;;;;;
"C1410978";"1995";;"Windows 7";"Rachel's Experiment (D.T.)";"1.0";"2";"1";"1";"2";"1";"1";"2014-10-13 14:26:16.425";"2014-10-13 14:39:16.846";"1";"0";"0";"38";"37";"module.training_block1.exec-2002.GoNoGo1";;;;;;;;;;;;;;;;;;;;;;;"1257";"2014-10-13 14:28:52.007";"NST_correctLoc";"0";"0";"FINISHED";"LEFT";"success";"405";"0";"2014-10-13 14:28:50.743";"1";;;;;;;;;;;;;;;;;;;;;;;;;;;;;;;;;;;;;;;;;;;;;;;;;;;;;;;;;
"C1410978";"1995";;"Windows 7";"Rachel's Experiment (D.T.)";"1.0";"2";"1";"1";"2";"1";"1";"2014-10-13 14:26:16.425";"2014-10-13 14:39:16.846";"1";"0";"0";"39";"38";"module.training_block1.exec-2002.GoNoGo1";;;;;;;;;;;;;;;;;;;;;;;"1261";"2014-10-13 14:28:54.550";"NST_correctLoc";"3";"1";"FINISHED";"RIGHT";"success";"298";"0";"2014-10-13 14:28:53.286";"1";;;;;;;;;;;;;;;;;;;;;;;;;;;;;;;;;;;;;;;;;;;;;;;;;;;;;;;;;
"C1410978";"1995";;"Windows 7";"Rachel's Experiment (D.T.)";"1.0";"2";"1";"1";"2";"1";"1";"2014-10-13 14:26:16.425";"2014-10-13 14:39:16.846";"1";"0";"0";"40";"39";"module.training_block1.exec-2002.GoNoGo1";;;;;;;;;;;;;;;;;;;;;;;"1258";"2014-10-13 14:28:57.093";"NST_correctLoc";"1";"1";"FINISHED";"RIGHT";"success";"327";"0";"2014-10-13 14:28:55.829";"1";;;;;;;;;;;;;;;;;;;;;;;;;;;;;;;;;;;;;;;;;;;;;;;;;;;;;;;;;
"C1410978";"1995";;"Windows 7";"Rachel's Experiment (D.T.)";"1.0";"2";"1";"1";"2";"1";"1";"2014-10-13 14:26:16.425";"2014-10-13 14:39:16.846";"1";"0";"0";"41";"40";"module.training_block1.exec-2002.GoNoGo1";;;;;;;;;;;;;;;;;;;;;;;"1261";"2014-10-13 14:28:59.636";"NST_correctLoc";"13";"0";"FINISHED";"LEFT";"success";"276";"0";"2014-10-13 14:28:58.372";"2";;;;;;;;;;;;;;;;;;;;;;;;;;;;;;;;;;;;;;;;;;;;;;;;;;;;;;;;;
"C1410978";"1995";;"Windows 7";"Rachel's Experiment (D.T.)";"1.0";"2";"1";"1";"2";"1";"1";"2014-10-13 14:26:16.425";"2014-10-13 14:39:16.846";"1";"0";"0";"42";"41";"module.training_block1.exec-2002.GoNoGo1";;;;;;;;;;;;;;;;;;;;;;;"1261";"2014-10-13 14:29:02.178";"NST_correctLoc";"14";"0";"FINISHED";"LEFT";"success";"357";"0";"2014-10-13 14:29:00.915";"2";;;;;;;;;;;;;;;;;;;;;;;;;;;;;;;;;;;;;;;;;;;;;;;;;;;;;;;;;
"C1410978";"1995";;"Windows 7";"Rachel's Experiment (D.T.)";"1.0";"2";"1";"1";"2";"1";"1";"2014-10-13 14:26:16.425";"2014-10-13 14:39:16.846";"1";"0";"0";"43";"42";"module.training_block1.exec-2002.GoNoGo1";;;;;;;;;;;;;;;;;;;;;;;"1250";"2014-10-13 14:29:04.721";"NST_correctLoc";"7";"1";"FINISHED";"RIGHT";"success";"307";"0";"2014-10-13 14:29:03.458";"1";;;;;;;;;;;;;;;;;;;;;;;;;;;;;;;;;;;;;;;;;;;;;;;;;;;;;;;;;
"C1410978";"1995";;"Windows 7";"Rachel's Experiment (D.T.)";"1.0";"2";"1";"1";"2";"1";"1";"2014-10-13 14:26:16.425";"2014-10-13 14:39:16.846";"1";"0";"0";"44";"43";"module.training_block1.exec-2002.GoNoGo1";;;;;;;;;;;;;;;;;;;;;;;"1258";"2014-10-13 14:29:07.264";"NST_correctLoc";"35";"1";"FINISHED";"RIGHT";"success";"372";"0";"2014-10-13 14:29:06.000";"3";;;;;;;;;;;;;;;;;;;;;;;;;;;;;;;;;;;;;;;;;;;;;;;;;;;;;;;;;
"C1410978";"1995";;"Windows 7";"Rachel's Experiment (D.T.)";"1.0";"2";"1";"1";"2";"1";"1";"2014-10-13 14:26:16.425";"2014-10-13 14:39:16.846";"1";"0";"0";"45";"44";"module.training_block1.exec-2002.GoNoGo1";;;;;;;;;;;;;;;;;;;;;;;"1257";"2014-10-13 14:29:09.807";"NST_correctLoc";"31";"0";"FINISHED";"LEFT";"success";"269";"0";"2014-10-13 14:29:08.543";"3";;;;;;;;;;;;;;;;;;;;;;;;;;;;;;;;;;;;;;;;;;;;;;;;;;;;;;;;;
"C1410978";"1995";;"Windows 7";"Rachel's Experiment (D.T.)";"1.0";"2";"1";"1";"2";"1";"1";"2014-10-13 14:26:16.425";"2014-10-13 14:39:16.846";"1";"0";"0";"46";"45";"module.training_block1.exec-2002.GoNoGo1";;;;;;;;;;;;;;;;;;;;;;;"1258";"2014-10-13 14:29:12.350";"NST_correctLoc";"25";"1";"FINISHED";"RIGHT";"success";"326";"0";"2014-10-13 14:29:11.086";"3";;;;;;;;;;;;;;;;;;;;;;;;;;;;;;;;;;;;;;;;;;;;;;;;;;;;;;;;;
"C1410978";"1995";;"Windows 7";"Rachel's Experiment (D.T.)";"1.0";"2";"1";"1";"2";"1";"1";"2014-10-13 14:26:16.425";"2014-10-13 14:39:16.846";"1";"0";"0";"47";"46";"module.training_block1.exec-2002.GoNoGo1";;;;;;;;;;;;;;;;;;;;;;;"1261";"2014-10-13 14:29:14.893";"NST_correctLoc";"27";"1";"FINISHED";"RIGHT";"success";"563";"0";"2014-10-13 14:29:13.629";"3";;;;;;;;;;;;;;;;;;;;;;;;;;;;;;;;;;;;;;;;;;;;;;;;;;;;;;;;;
"C1410978";"1995";;"Windows 7";"Rachel's Experiment (D.T.)";"1.0";"2";"1";"1";"2";"1";"1";"2014-10-13 14:26:16.425";"2014-10-13 14:39:16.846";"1";"0";"0";"48";"47";"module.training_block1.exec-2002.GoNoGo1";;;;;;;;;;;;;;;;;;;;;;;"1261";"2014-10-13 14:29:17.435";"NST_correctLoc";"6";"1";"FINISHED";"RIGHT";"success";"333";"0";"2014-10-13 14:29:16.172";"1";;;;;;;;;;;;;;;;;;;;;;;;;;;;;;;;;;;;;;;;;;;;;;;;;;;;;;;;;
"C1410978";"1995";;"Windows 7";"Rachel's Experiment (D.T.)";"1.0";"2";"1";"1";"2";"1";"1";"2014-10-13 14:26:16.425";"2014-10-13 14:39:16.846";"1";"0";"0";"49";"48";"module.training_block1.exec-2002.GoNoGo1";;;;;;;;;;;;;;;;;;;;;;;"1257";"2014-10-13 14:29:19.978";"NST_correctLoc";"19";"1";"FINISHED";"RIGHT";"success";"593";"0";"2014-10-13 14:29:18.715";"3";;;;;;;;;;;;;;;;;;;;;;;;;;;;;;;;;;;;;;;;;;;;;;;;;;;;;;;;;
"C1410978";"1995";;"Windows 7";"Rachel's Experiment (D.T.)";"1.0";"2";"1";"1";"2";"1";"1";"2014-10-13 14:26:16.425";"2014-10-13 14:39:16.846";"1";"0";"0";"50";"49";"module.training_block1.exec-2002.GoNoGo1";;;;;;;;;;;;;;;;;;;;;;;"1261";"2014-10-13 14:29:22.521";"NST_correctLoc";"26";"1";"FINISHED";"RIGHT";"success";"455";"0";"2014-10-13 14:29:21.258";"3";;;;;;;;;;;;;;;;;;;;;;;;;;;;;;;;;;;;;;;;;;;;;;;;;;;;;;;;;
"C1410978";"1995";;"Windows 7";"Rachel's Experiment (D.T.)";"1.0";"2";"1";"1";"2";"1";"1";"2014-10-13 14:26:16.425";"2014-10-13 14:39:16.846";"1";"0";"0";"51";"50";"module.training_block1.exec-2002.GoNoGo1";;;;;;;;;;;;;;;;;;;;;;;"1257";"2014-10-13 14:29:25.064";"NST_correctLoc";"8";"1";"FINISHED";"RIGHT";"success";"340";"0";"2014-10-13 14:29:23.800";"1";;;;;;;;;;;;;;;;;;;;;;;;;;;;;;;;;;;;;;;;;;;;;;;;;;;;;;;;;
"C1410978";"1995";;"Windows 7";"Rachel's Experiment (D.T.)";"1.0";"2";"1";"1";"2";"1";"1";"2014-10-13 14:26:16.425";"2014-10-13 14:39:16.846";"1";"0";"0";"52";"51";"module.training_block2.exec-9113.GoNoGo2";;;;;;;;;;;;;;;;;;;;;;;;;;;;;;;;;;;"1261";"2014-10-13 14:29:36.437";"NST_correctLoc";"4";"0";"FINISHED";"LEFT";"success";"267";"0";"2014-10-13 14:29:35.173";"1";;;;;;;;;;;;;;;;;;;;;;;;;;;;;;;;;;;;;;;;;;;;;
"C1410978";"1995";;"Windows 7";"Rachel's Experiment (D.T.)";"1.0";"2";"1";"1";"2";"1";"1";"2014-10-13 14:26:16.425";"2014-10-13 14:39:16.846";"1";"0";"0";"53";"52";"module.training_block2.exec-9113.GoNoGo2";;;;;;;;;;;;;;;;;;;;;;;;;;;;;;;;;;;"1261";"2014-10-13 14:29:38.979";"NST_correctLoc";"24";"0";"FINISHED";"LEFT";"success";"373";"0";"2014-10-13 14:29:37.716";"3";;;;;;;;;;;;;;;;;;;;;;;;;;;;;;;;;;;;;;;;;;;;;
"C1410978";"1995";;"Windows 7";"Rachel's Experiment (D.T.)";"1.0";"2";"1";"1";"2";"1";"1";"2014-10-13 14:26:16.425";"2014-10-13 14:39:16.846";"1";"0";"0";"54";"53";"module.training_block2.exec-9113.GoNoGo2";;;;;;;;;;;;;;;;;;;;;;;;;;;;;;;;;;;"1261";"2014-10-13 14:29:41.522";"NST_correctLoc";"1";"0";"FINISHED";"LEFT";"success";"342";"0";"2014-10-13 14:29:40.259";"1";;;;;;;;;;;;;;;;;;;;;;;;;;;;;;;;;;;;;;;;;;;;;
"C1410978";"1995";;"Windows 7";"Rachel's Experiment (D.T.)";"1.0";"2";"1";"1";"2";"1";"1";"2014-10-13 14:26:16.425";"2014-10-13 14:39:16.846";"1";"0";"0";"55";"54";"module.training_block2.exec-9113.GoNoGo2";;;;;;;;;;;;;;;;;;;;;;;;;;;;;;;;;;;"1261";"2014-10-13 14:29:44.065";"NST_correctLoc";"26";"1";"FINISHED";"RIGHT";"success";"559";"0";"2014-10-13 14:29:42.802";"3";;;;;;;;;;;;;;;;;;;;;;;;;;;;;;;;;;;;;;;;;;;;;
"C1410978";"1995";;"Windows 7";"Rachel's Experiment (D.T.)";"1.0";"2";"1";"1";"2";"1";"1";"2014-10-13 14:26:16.425";"2014-10-13 14:39:16.846";"1";"0";"0";"56";"55";"module.training_block2.exec-9113.GoNoGo2";;;;;;;;;;;;;;;;;;;;;;;;;;;;;;;;;;;"1261";"2014-10-13 14:29:46.608";"NST_correctLoc";"34";"0";"FINISHED";"LEFT";"success";"360";"0";"2014-10-13 14:29:45.344";"3";;;;;;;;;;;;;;;;;;;;;;;;;;;;;;;;;;;;;;;;;;;;;
"C1410978";"1995";;"Windows 7";"Rachel's Experiment (D.T.)";"1.0";"2";"1";"1";"2";"1";"1";"2014-10-13 14:26:16.425";"2014-10-13 14:39:16.846";"1";"0";"0";"57";"56";"module.training_block2.exec-9113.GoNoGo2";;;;;;;;;;;;;;;;;;;;;;;;;;;;;;;;;;;"1261";"2014-10-13 14:29:49.151";"NST_correctLoc";"28";"1";"FINISHED";"RIGHT";"success";"345";"0";"2014-10-13 14:29:47.887";"3";;;;;;;;;;;;;;;;;;;;;;;;;;;;;;;;;;;;;;;;;;;;;
"C1410978";"1995";;"Windows 7";"Rachel's Experiment (D.T.)";"1.0";"2";"1";"1";"2";"1";"1";"2014-10-13 14:26:16.425";"2014-10-13 14:39:16.846";"1";"0";"0";"58";"57";"module.training_block2.exec-9113.GoNoGo2";;;;;;;;;;;;;;;;;;;;;;;;;;;;;;;;;;;"1261";"2014-10-13 14:29:51.694";"NST_correctLoc";"13";"0";"FINISHED";"LEFT";"success";"307";"0";"2014-10-13 14:29:50.430";"2";;;;;;;;;;;;;;;;;;;;;;;;;;;;;;;;;;;;;;;;;;;;;
"C1410978";"1995";;"Windows 7";"Rachel's Experiment (D.T.)";"1.0";"2";"1";"1";"2";"1";"1";"2014-10-13 14:26:16.425";"2014-10-13 14:39:16.846";"1";"0";"0";"59";"58";"module.training_block2.exec-9113.GoNoGo2";;;;;;;;;;;;;;;;;;;;;;;;;;;;;;;;;;;"1261";"2014-10-13 14:29:54.237";"NST_correctLoc";"29";"1";"FINISHED";"RIGHT";"success";"292";"0";"2014-10-13 14:29:52.973";"3";;;;;;;;;;;;;;;;;;;;;;;;;;;;;;;;;;;;;;;;;;;;;
"C1410978";"1995";;"Windows 7";"Rachel's Experiment (D.T.)";"1.0";"2";"1";"1";"2";"1";"1";"2014-10-13 14:26:16.425";"2014-10-13 14:39:16.846";"1";"0";"0";"60";"59";"module.training_block2.exec-9113.GoNoGo2";;;;;;;;;;;;;;;;;;;;;;;;;;;;;;;;;;;"1261";"2014-10-13 14:29:56.779";"NST_correctLoc";"27";"0";"FINISHED";"LEFT";"success";"317";"0";"2014-10-13 14:29:55.516";"3";;;;;;;;;;;;;;;;;;;;;;;;;;;;;;;;;;;;;;;;;;;;;
"C1410978";"1995";;"Windows 7";"Rachel's Experiment (D.T.)";"1.0";"2";"1";"1";"2";"1";"1";"2014-10-13 14:26:16.425";"2014-10-13 14:39:16.846";"1";"0";"0";"61";"60";"module.training_block2.exec-9113.GoNoGo2";;;;;;;;;;;;;;;;;;;;;;;;;;;;;;;;;;;"1261";"2014-10-13 14:29:59.322";"NST_correctLoc";"6";"1";"FINISHED";"RIGHT";"success";"334";"0";"2014-10-13 14:29:58.059";"1";;;;;;;;;;;;;;;;;;;;;;;;;;;;;;;;;;;;;;;;;;;;;
"C1410978";"1995";;"Windows 7";"Rachel's Experiment (D.T.)";"1.0";"2";"1";"1";"2";"1";"1";"2014-10-13 14:26:16.425";"2014-10-13 14:39:16.846";"1";"0";"0";"62";"61";"module.training_block2.exec-9113.GoNoGo2";;;;;;;;;;;;;;;;;;;;;;;;;;;;;;;;;;;"1261";"2014-10-13 14:30:01.865";"NST_correctLoc";"20";"1";"FINISHED";"RIGHT";"success";"399";"0";"2014-10-13 14:30:00.602";"3";;;;;;;;;;;;;;;;;;;;;;;;;;;;;;;;;;;;;;;;;;;;;
"C1410978";"1995";;"Windows 7";"Rachel's Experiment (D.T.)";"1.0";"2";"1";"1";"2";"1";"1";"2014-10-13 14:26:16.425";"2014-10-13 14:39:16.846";"1";"0";"0";"63";"62";"module.training_block2.exec-9113.GoNoGo2";;;;;;;;;;;;;;;;;;;;;;;;;;;;;;;;;;;"1261";"2014-10-13 14:30:04.408";"NST_correctLoc";"15";"1";"FINISHED";"RIGHT";"success";"344";"0";"2014-10-13 14:30:03.144";"2";;;;;;;;;;;;;;;;;;;;;;;;;;;;;;;;;;;;;;;;;;;;;
"C1410978";"1995";;"Windows 7";"Rachel's Experiment (D.T.)";"1.0";"2";"1";"1";"2";"1";"1";"2014-10-13 14:26:16.425";"2014-10-13 14:39:16.846";"1";"0";"0";"64";"63";"module.training_block2.exec-9113.GoNoGo2";;;;;;;;;;;;;;;;;;;;;;;;;;;;;;;;;;;"1261";"2014-10-13 14:30:06.951";"NST_correctLoc";"7";"0";"FINISHED";"LEFT";"success";"274";"0";"2014-10-13 14:30:05.687";"1";;;;;;;;;;;;;;;;;;;;;;;;;;;;;;;;;;;;;;;;;;;;;
"C1410978";"1995";;"Windows 7";"Rachel's Experiment (D.T.)";"1.0";"2";"1";"1";"2";"1";"1";"2014-10-13 14:26:16.425";"2014-10-13 14:39:16.846";"1";"0";"0";"65";"64";"module.training_block2.exec-9113.GoNoGo2";;;;;;;;;;;;;;;;;;;;;;;;;;;;;;;;;;;"1261";"2014-10-13 14:30:09.494";"NST_correctLoc";"8";"0";"FINISHED";"LEFT";"success";"387";"0";"2014-10-13 14:30:08.230";"1";;;;;;;;;;;;;;;;;;;;;;;;;;;;;;;;;;;;;;;;;;;;;
"C1410978";"1995";;"Windows 7";"Rachel's Experiment (D.T.)";"1.0";"2";"1";"1";"2";"1";"1";"2014-10-13 14:26:16.425";"2014-10-13 14:39:16.846";"1";"0";"0";"66";"65";"module.training_block2.exec-9113.GoNoGo2";;;;;;;;;;;;;;;;;;;;;;;;;;;;;;;;;;;"1261";"2014-10-13 14:30:12.037";"NST_correctLoc";"35";"1";"FINISHED";"RIGHT";"success";"332";"0";"2014-10-13 14:30:10.773";"3";;;;;;;;;;;;;;;;;;;;;;;;;;;;;;;;;;;;;;;;;;;;;
"C1410978";"1995";;"Windows 7";"Rachel's Experiment (D.T.)";"1.0";"2";"1";"1";"2";"1";"1";"2014-10-13 14:26:16.425";"2014-10-13 14:39:16.846";"1";"0";"0";"67";"66";"module.training_block2.exec-9113.GoNoGo2";;;;;;;;;;;;;;;;;;;;;;;;;;;;;;;;;;;"1261";"2014-10-13 14:30:14.579";"NST_correctLoc";"16";"1";"FINISHED";"RIGHT";"success";"373";"0";"2014-10-13 14:30:13.316";"2";;;;;;;;;;;;;;;;;;;;;;;;;;;;;;;;;;;;;;;;;;;;;
"C1410978";"1995";;"Windows 7";"Rachel's Experiment (D.T.)";"1.0";"2";"1";"1";"2";"1";"1";"2014-10-13 14:26:16.425";"2014-10-13 14:39:16.846";"1";"0";"0";"68";"67";"module.training_block2.exec-9113.GoNoGo2";;;;;;;;;;;;;;;;;;;;;;;;;;;;;;;;;;;"1261";"2014-10-13 14:30:17.122";"NST_correctLoc";"9";"0";"FINISHED";"LEFT";"success";"350";"0";"2014-10-13 14:30:15.859";"2";;;;;;;;;;;;;;;;;;;;;;;;;;;;;;;;;;;;;;;;;;;;;
"C1410978";"1995";;"Windows 7";"Rachel's Experiment (D.T.)";"1.0";"2";"1";"1";"2";"1";"1";"2014-10-13 14:26:16.425";"2014-10-13 14:39:16.846";"1";"0";"0";"69";"68";"module.training_block2.exec-9113.GoNoGo2";;;;;;;;;;;;;;;;;;;;;;;;;;;;;;;;;;;"1261";"2014-10-13 14:30:19.665";"NST_correctLoc";"5";"1";"FINISHED";"RIGHT";"success";"296";"0";"2014-10-13 14:30:18.401";"1";;;;;;;;;;;;;;;;;;;;;;;;;;;;;;;;;;;;;;;;;;;;;
"C1410978";"1995";;"Windows 7";"Rachel's Experiment (D.T.)";"1.0";"2";"1";"1";"2";"1";"1";"2014-10-13 14:26:16.425";"2014-10-13 14:39:16.846";"1";"0";"0";"70";"69";"module.training_block2.exec-9113.GoNoGo2";;;;;;;;;;;;;;;;;;;;;;;;;;;;;;;;;;;"1261";"2014-10-13 14:30:22.208";"NST_correctLoc";"3";"1";"FINISHED";"RIGHT";"success";"361";"0";"2014-10-13 14:30:20.944";"1";;;;;;;;;;;;;;;;;;;;;;;;;;;;;;;;;;;;;;;;;;;;;
"C1410978";"1995";;"Windows 7";"Rachel's Experiment (D.T.)";"1.0";"2";"1";"1";"2";"1";"1";"2014-10-13 14:26:16.425";"2014-10-13 14:39:16.846";"1";"0";"0";"71";"70";"module.training_block2.exec-9113.GoNoGo2";;;;;;;;;;;;;;;;;;;;;;;;;;;;;;;;;;;"1261";"2014-10-13 14:30:24.751";"NST_correctLoc";"31";"1";"FINISHED";"RIGHT";"success";"362";"0";"2014-10-13 14:30:23.487";"3";;;;;;;;;;;;;;;;;;;;;;;;;;;;;;;;;;;;;;;;;;;;;
"C1410978";"1995";;"Windows 7";"Rachel's Experiment (D.T.)";"1.0";"2";"1";"1";"2";"1";"1";"2014-10-13 14:26:16.425";"2014-10-13 14:39:16.846";"1";"0";"0";"72";"71";"module.training_block2.exec-9113.GoNoGo2";;;;;;;;;;;;;;;;;;;;;;;;;;;;;;;;;;;"1261";"2014-10-13 14:30:27.294";"NST_correctLoc";"32";"0";"FINISHED";"LEFT";"success";"363";"0";"2014-10-13 14:30:26.030";"3";;;;;;;;;;;;;;;;;;;;;;;;;;;;;;;;;;;;;;;;;;;;;
"C1410978";"1995";;"Windows 7";"Rachel's Experiment (D.T.)";"1.0";"2";"1";"1";"2";"1";"1";"2014-10-13 14:26:16.425";"2014-10-13 14:39:16.846";"1";"0";"0";"73";"72";"module.training_block2.exec-9113.GoNoGo2";;;;;;;;;;;;;;;;;;;;;;;;;;;;;;;;;;;"1261";"2014-10-13 14:30:29.836";"NST_correctLoc";"12";"1";"FINISHED";"RIGHT";"success";"412";"0";"2014-10-13 14:30:28.573";"2";;;;;;;;;;;;;;;;;;;;;;;;;;;;;;;;;;;;;;;;;;;;;
"C1410978";"1995";;"Windows 7";"Rachel's Experiment (D.T.)";"1.0";"2";"1";"1";"2";"1";"1";"2014-10-13 14:26:16.425";"2014-10-13 14:39:16.846";"1";"0";"0";"74";"73";"module.training_block2.exec-9113.GoNoGo2";;;;;;;;;;;;;;;;;;;;;;;;;;;;;;;;;;;"1261";"2014-10-13 14:30:32.379";"NST_correctLoc";"0";"1";"FINISHED";"RIGHT";"success";"469";"0";"2014-10-13 14:30:31.116";"1";;;;;;;;;;;;;;;;;;;;;;;;;;;;;;;;;;;;;;;;;;;;;
"C1410978";"1995";;"Windows 7";"Rachel's Experiment (D.T.)";"1.0";"2";"1";"1";"2";"1";"1";"2014-10-13 14:26:16.425";"2014-10-13 14:39:16.846";"1";"0";"0";"75";"74";"module.training_block2.exec-9113.GoNoGo2";;;;;;;;;;;;;;;;;;;;;;;;;;;;;;;;;;;"1261";"2014-10-13 14:30:34.922";"NST_correctLoc";"10";"0";"FINISHED";"LEFT";"success";"343";"0";"2014-10-13 14:30:33.659";"2";;;;;;;;;;;;;;;;;;;;;;;;;;;;;;;;;;;;;;;;;;;;;
"C1410978";"1995";;"Windows 7";"Rachel's Experiment (D.T.)";"1.0";"2";"1";"1";"2";"1";"1";"2014-10-13 14:26:16.425";"2014-10-13 14:39:16.846";"1";"0";"0";"76";"75";"module.training_block2.exec-9113.GoNoGo2";;;;;;;;;;;;;;;;;;;;;;;;;;;;;;;;;;;"1261";"2014-10-13 14:30:37.465";"NST_correctLoc";"21";"0";"FINISHED";"LEFT";"success";"504";"0";"2014-10-13 14:30:36.201";"3";;;;;;;;;;;;;;;;;;;;;;;;;;;;;;;;;;;;;;;;;;;;;
"C1410978";"1995";;"Windows 7";"Rachel's Experiment (D.T.)";"1.0";"2";"1";"1";"2";"1";"1";"2014-10-13 14:26:16.425";"2014-10-13 14:39:16.846";"1";"0";"0";"77";"76";"module.training_block2.exec-9113.GoNoGo2";;;;;;;;;;;;;;;;;;;;;;;;;;;;;;;;;;;"1261";"2014-10-13 14:30:40.008";"NST_correctLoc";"14";"1";"FINISHED";"RIGHT";"success";"321";"0";"2014-10-13 14:30:38.744";"2";;;;;;;;;;;;;;;;;;;;;;;;;;;;;;;;;;;;;;;;;;;;;
"C1410978";"1995";;"Windows 7";"Rachel's Experiment (D.T.)";"1.0";"2";"1";"1";"2";"1";"1";"2014-10-13 14:26:16.425";"2014-10-13 14:39:16.846";"1";"0";"0";"78";"77";"module.training_block2.exec-9113.GoNoGo2";;;;;;;;;;;;;;;;;;;;;;;;;;;;;;;;;;;"1261";"2014-10-13 14:30:42.551";"NST_correctLoc";"33";"0";"FINISHED";"LEFT";"success";"266";"0";"2014-10-13 14:30:41.287";"3";;;;;;;;;;;;;;;;;;;;;;;;;;;;;;;;;;;;;;;;;;;;;
"C1410978";"1995";;"Windows 7";"Rachel's Experiment (D.T.)";"1.0";"2";"1";"1";"2";"1";"1";"2014-10-13 14:26:16.425";"2014-10-13 14:39:16.846";"1";"0";"0";"79";"78";"module.training_block2.exec-9113.GoNoGo2";;;;;;;;;;;;;;;;;;;;;;;;;;;;;;;;;;;"1261";"2014-10-13 14:30:45.094";"NST_correctLoc";"18";"0";"FINISHED";"LEFT";"success";"387";"0";"2014-10-13 14:30:43.830";"3";;;;;;;;;;;;;;;;;;;;;;;;;;;;;;;;;;;;;;;;;;;;;
"C1410978";"1995";;"Windows 7";"Rachel's Experiment (D.T.)";"1.0";"2";"1";"1";"2";"1";"1";"2014-10-13 14:26:16.425";"2014-10-13 14:39:16.846";"1";"0";"0";"80";"79";"module.training_block2.exec-9113.GoNoGo2";;;;;;;;;;;;;;;;;;;;;;;;;;;;;;;;;;;"1261";"2014-10-13 14:30:47.636";"NST_correctLoc";"25";"0";"FINISHED";"LEFT";"success";"389";"0";"2014-10-13 14:30:46.373";"3";;;;;;;;;;;;;;;;;;;;;;;;;;;;;;;;;;;;;;;;;;;;;
"C1410978";"1995";;"Windows 7";"Rachel's Experiment (D.T.)";"1.0";"2";"1";"1";"2";"1";"1";"2014-10-13 14:26:16.425";"2014-10-13 14:39:16.846";"1";"0";"0";"81";"80";"module.training_block2.exec-9113.GoNoGo2";;;;;;;;;;;;;;;;;;;;;;;;;;;;;;;;;;;"1261";"2014-10-13 14:30:50.179";"NST_correctLoc";"23";"0";"FINISHED";"LEFT";"success";"342";"0";"2014-10-13 14:30:48.916";"3";;;;;;;;;;;;;;;;;;;;;;;;;;;;;;;;;;;;;;;;;;;;;
"C1410978";"1995";;"Windows 7";"Rachel's Experiment (D.T.)";"1.0";"2";"1";"1";"2";"1";"1";"2014-10-13 14:26:16.425";"2014-10-13 14:39:16.846";"1";"0";"0";"82";"81";"module.training_block2.exec-9113.GoNoGo2";;;;;;;;;;;;;;;;;;;;;;;;;;;;;;;;;;;"1261";"2014-10-13 14:30:52.722";"NST_correctLoc";"19";"1";"FINISHED";"RIGHT";"success";"383";"0";"2014-10-13 14:30:51.458";"3";;;;;;;;;;;;;;;;;;;;;;;;;;;;;;;;;;;;;;;;;;;;;
"C1410978";"1995";;"Windows 7";"Rachel's Experiment (D.T.)";"1.0";"2";"1";"1";"2";"1";"1";"2014-10-13 14:26:16.425";"2014-10-13 14:39:16.846";"1";"0";"0";"83";"82";"module.training_block2.exec-9113.GoNoGo2";;;;;;;;;;;;;;;;;;;;;;;;;;;;;;;;;;;"1261";"2014-10-13 14:30:55.265";"NST_correctLoc";"17";"1";"FINISHED";"RIGHT";"success";"456";"0";"2014-10-13 14:30:54.001";"2";;;;;;;;;;;;;;;;;;;;;;;;;;;;;;;;;;;;;;;;;;;;;
"C1410978";"1995";;"Windows 7";"Rachel's Experiment (D.T.)";"1.0";"2";"1";"1";"2";"1";"1";"2014-10-13 14:26:16.425";"2014-10-13 14:39:16.846";"1";"0";"0";"84";"83";"module.training_block2.exec-9113.GoNoGo2";;;;;;;;;;;;;;;;;;;;;;;;;;;;;;;;;;;"1261";"2014-10-13 14:30:57.808";"NST_correctLoc";"30";"1";"FINISHED";"RIGHT";"success";"473";"0";"2014-10-13 14:30:56.544";"3";;;;;;;;;;;;;;;;;;;;;;;;;;;;;;;;;;;;;;;;;;;;;
"C1410978";"1995";;"Windows 7";"Rachel's Experiment (D.T.)";"1.0";"2";"1";"1";"2";"1";"1";"2014-10-13 14:26:16.425";"2014-10-13 14:39:16.846";"1";"0";"0";"85";"84";"module.training_block2.exec-9113.GoNoGo2";;;;;;;;;;;;;;;;;;;;;;;;;;;;;;;;;;;"1261";"2014-10-13 14:31:00.351";"NST_correctLoc";"2";"0";"FINISHED";"LEFT";"success";"339";"0";"2014-10-13 14:30:59.087";"1";;;;;;;;;;;;;;;;;;;;;;;;;;;;;;;;;;;;;;;;;;;;;
"C1410978";"1995";;"Windows 7";"Rachel's Experiment (D.T.)";"1.0";"2";"1";"1";"2";"1";"1";"2014-10-13 14:26:16.425";"2014-10-13 14:39:16.846";"1";"0";"0";"86";"85";"module.training_block2.exec-9113.GoNoGo2";;;;;;;;;;;;;;;;;;;;;;;;;;;;;;;;;;;"1261";"2014-10-13 14:31:02.894";"NST_correctLoc";"11";"0";"FINISHED";"LEFT";"success";"372";"0";"2014-10-13 14:31:01.630";"2";;;;;;;;;;;;;;;;;;;;;;;;;;;;;;;;;;;;;;;;;;;;;
"C1410978";"1995";;"Windows 7";"Rachel's Experiment (D.T.)";"1.0";"2";"1";"1";"2";"1";"1";"2014-10-13 14:26:16.425";"2014-10-13 14:39:16.846";"1";"0";"0";"87";"86";"module.training_block2.exec-9113.GoNoGo2";;;;;;;;;;;;;;;;;;;;;;;;;;;;;;;;;;;"1261";"2014-10-13 14:31:05.436";"NST_correctLoc";"22";"0";"FINISHED";"LEFT";"success";"397";"0";"2014-10-13 14:31:04.173";"3";;;;;;;;;;;;;;;;;;;;;;;;;;;;;;;;;;;;;;;;;;;;;
"C1410978";"1995";;"Windows 7";"Rachel's Experiment (D.T.)";"1.0";"2";"1";"1";"2";"1";"1";"2014-10-13 14:26:16.425";"2014-10-13 14:39:16.846";"1";"0";"0";"88";"87";"module.training_block3.exec-6199.GoNoGo3";;;;;;;;;;;;;;;;;;;;;;;;;;;;;;;;;;;;;;;;;;;;;;;"1261";"2014-10-13 14:31:16.372";"NST_correctLoc";"19";"1";"FINISHED";"RIGHT";"success";"357";"0";"2014-10-13 14:31:15.109";"3";;;;;;;;;;;;;;;;;;;;;;;;;;;;;;;;;
"C1410978";"1995";;"Windows 7";"Rachel's Experiment (D.T.)";"1.0";"2";"1";"1";"2";"1";"1";"2014-10-13 14:26:16.425";"2014-10-13 14:39:16.846";"1";"0";"0";"89";"88";"module.training_block3.exec-6199.GoNoGo3";;;;;;;;;;;;;;;;;;;;;;;;;;;;;;;;;;;;;;;;;;;;;;;"1261";"2014-10-13 14:31:18.915";"NST_correctLoc";"33";"1";"FINISHED";"RIGHT";"success";"334";"0";"2014-10-13 14:31:17.651";"3";;;;;;;;;;;;;;;;;;;;;;;;;;;;;;;;;
"C1410978";"1995";;"Windows 7";"Rachel's Experiment (D.T.)";"1.0";"2";"1";"1";"2";"1";"1";"2014-10-13 14:26:16.425";"2014-10-13 14:39:16.846";"1";"0";"0";"90";"89";"module.training_block3.exec-6199.GoNoGo3";;;;;;;;;;;;;;;;;;;;;;;;;;;;;;;;;;;;;;;;;;;;;;;"1261";"2014-10-13 14:31:21.458";"NST_correctLoc";"18";"0";"FINISHED";"LEFT";"success";"464";"0";"2014-10-13 14:31:20.194";"3";;;;;;;;;;;;;;;;;;;;;;;;;;;;;;;;;
"C1410978";"1995";;"Windows 7";"Rachel's Experiment (D.T.)";"1.0";"2";"1";"1";"2";"1";"1";"2014-10-13 14:26:16.425";"2014-10-13 14:39:16.846";"1";"0";"0";"91";"90";"module.training_block3.exec-6199.GoNoGo3";;;;;;;;;;;;;;;;;;;;;;;;;;;;;;;;;;;;;;;;;;;;;;;"1261";"2014-10-13 14:31:24.001";"NST_correctLoc";"20";"1";"FINISHED";"RIGHT";"success";"313";"0";"2014-10-13 14:31:22.737";"3";;;;;;;;;;;;;;;;;;;;;;;;;;;;;;;;;
"C1410978";"1995";;"Windows 7";"Rachel's Experiment (D.T.)";"1.0";"2";"1";"1";"2";"1";"1";"2014-10-13 14:26:16.425";"2014-10-13 14:39:16.846";"1";"0";"0";"92";"91";"module.training_block3.exec-6199.GoNoGo3";;;;;;;;;;;;;;;;;;;;;;;;;;;;;;;;;;;;;;;;;;;;;;;"1261";"2014-10-13 14:31:26.544";"NST_correctLoc";"11";"1";"FINISHED";"RIGHT";"success";"298";"0";"2014-10-13 14:31:25.280";"2";;;;;;;;;;;;;;;;;;;;;;;;;;;;;;;;;
"C1410978";"1995";;"Windows 7";"Rachel's Experiment (D.T.)";"1.0";"2";"1";"1";"2";"1";"1";"2014-10-13 14:26:16.425";"2014-10-13 14:39:16.846";"1";"0";"0";"93";"92";"module.training_block3.exec-6199.GoNoGo3";;;;;;;;;;;;;;;;;;;;;;;;;;;;;;;;;;;;;;;;;;;;;;;"1261";"2014-10-13 14:31:29.086";"NST_correctLoc";"0";"0";"FINISHED";"LEFT";"success";"371";"0";"2014-10-13 14:31:27.823";"1";;;;;;;;;;;;;;;;;;;;;;;;;;;;;;;;;
"C1410978";"1995";;"Windows 7";"Rachel's Experiment (D.T.)";"1.0";"2";"1";"1";"2";"1";"1";"2014-10-13 14:26:16.425";"2014-10-13 14:39:16.846";"1";"0";"0";"94";"93";"module.training_block3.exec-6199.GoNoGo3";;;;;;;;;;;;;;;;;;;;;;;;;;;;;;;;;;;;;;;;;;;;;;;"1261";"2014-10-13 14:31:31.629";"NST_correctLoc";"15";"0";"FINISHED";"LEFT";"success";"484";"0";"2014-10-13 14:31:30.366";"2";;;;;;;;;;;;;;;;;;;;;;;;;;;;;;;;;
"C1410978";"1995";;"Windows 7";"Rachel's Experiment (D.T.)";"1.0";"2";"1";"1";"2";"1";"1";"2014-10-13 14:26:16.425";"2014-10-13 14:39:16.846";"1";"0";"0";"95";"94";"module.training_block3.exec-6199.GoNoGo3";;;;;;;;;;;;;;;;;;;;;;;;;;;;;;;;;;;;;;;;;;;;;;;"1261";"2014-10-13 14:31:34.172";"NST_correctLoc";"5";"0";"FINISHED";"LEFT";"success";"437";"0";"2014-10-13 14:31:32.908";"1";;;;;;;;;;;;;;;;;;;;;;;;;;;;;;;;;
"C1410978";"1995";;"Windows 7";"Rachel's Experiment (D.T.)";"1.0";"2";"1";"1";"2";"1";"1";"2014-10-13 14:26:16.425";"2014-10-13 14:39:16.846";"1";"0";"0";"96";"95";"module.training_block3.exec-6199.GoNoGo3";;;;;;;;;;;;;;;;;;;;;;;;;;;;;;;;;;;;;;;;;;;;;;;"1261";"2014-10-13 14:31:36.715";"NST_correctLoc";"10";"0";"FINISHED";"LEFT";"success";"455";"0";"2014-10-13 14:31:35.451";"2";;;;;;;;;;;;;;;;;;;;;;;;;;;;;;;;;
"C1410978";"1995";;"Windows 7";"Rachel's Experiment (D.T.)";"1.0";"2";"1";"1";"2";"1";"1";"2014-10-13 14:26:16.425";"2014-10-13 14:39:16.846";"1";"0";"0";"97";"96";"module.training_block3.exec-6199.GoNoGo3";;;;;;;;;;;;;;;;;;;;;;;;;;;;;;;;;;;;;;;;;;;;;;;"1261";"2014-10-13 14:31:39.258";"NST_correctLoc";"30";"0";"FINISHED";"LEFT";"success";"384";"0";"2014-10-13 14:31:37.994";"3";;;;;;;;;;;;;;;;;;;;;;;;;;;;;;;;;
"C1410978";"1995";;"Windows 7";"Rachel's Experiment (D.T.)";"1.0";"2";"1";"1";"2";"1";"1";"2014-10-13 14:26:16.425";"2014-10-13 14:39:16.846";"1";"0";"0";"98";"97";"module.training_block3.exec-6199.GoNoGo3";;;;;;;;;;;;;;;;;;;;;;;;;;;;;;;;;;;;;;;;;;;;;;;"1261";"2014-10-13 14:31:41.801";"NST_correctLoc";"34";"0";"FINISHED";"LEFT";"success";"361";"0";"2014-10-13 14:31:40.537";"3";;;;;;;;;;;;;;;;;;;;;;;;;;;;;;;;;
"C1410978";"1995";;"Windows 7";"Rachel's Experiment (D.T.)";"1.0";"2";"1";"1";"2";"1";"1";"2014-10-13 14:26:16.425";"2014-10-13 14:39:16.846";"1";"0";"0";"99";"98";"module.training_block3.exec-6199.GoNoGo3";;;;;;;;;;;;;;;;;;;;;;;;;;;;;;;;;;;;;;;;;;;;;;;"1261";"2014-10-13 14:31:44.343";"NST_correctLoc";"13";"0";"FINISHED";"LEFT";"success";"378";"0";"2014-10-13 14:31:43.080";"2";;;;;;;;;;;;;;;;;;;;;;;;;;;;;;;;;
"C1410978";"1995";;"Windows 7";"Rachel's Experiment (D.T.)";"1.0";"2";"1";"1";"2";"1";"1";"2014-10-13 14:26:16.425";"2014-10-13 14:39:16.846";"1";"0";"0";"100";"99";"module.training_block3.exec-6199.GoNoGo3";;;;;;;;;;;;;;;;;;;;;;;;;;;;;;;;;;;;;;;;;;;;;;;"1261";"2014-10-13 14:31:46.886";"NST_correctLoc";"9";"1";"FINISHED";"RIGHT";"success";"323";"0";"2014-10-13 14:31:45.623";"2";;;;;;;;;;;;;;;;;;;;;;;;;;;;;;;;;
"C1410978";"1995";;"Windows 7";"Rachel's Experiment (D.T.)";"1.0";"2";"1";"1";"2";"1";"1";"2014-10-13 14:26:16.425";"2014-10-13 14:39:16.846";"1";"0";"0";"101";"100";"module.training_block3.exec-6199.GoNoGo3";;;;;;;;;;;;;;;;;;;;;;;;;;;;;;;;;;;;;;;;;;;;;;;"1262";"2014-10-13 14:31:49.429";"NST_correctLoc";"35";"0";"FINISHED";"LEFT";"success";"285";"0";"2014-10-13 14:31:48.166";"3";;;;;;;;;;;;;;;;;;;;;;;;;;;;;;;;;
"C1410978";"1995";;"Windows 7";"Rachel's Experiment (D.T.)";"1.0";"2";"1";"1";"2";"1";"1";"2014-10-13 14:26:16.425";"2014-10-13 14:39:16.846";"1";"0";"0";"102";"101";"module.training_block3.exec-6199.GoNoGo3";;;;;;;;;;;;;;;;;;;;;;;;;;;;;;;;;;;;;;;;;;;;;;;"1261";"2014-10-13 14:31:51.972";"NST_correctLoc";"25";"1";"FINISHED";"RIGHT";"success";"342";"0";"2014-10-13 14:31:50.708";"3";;;;;;;;;;;;;;;;;;;;;;;;;;;;;;;;;
"C1410978";"1995";;"Windows 7";"Rachel's Experiment (D.T.)";"1.0";"2";"1";"1";"2";"1";"1";"2014-10-13 14:26:16.425";"2014-10-13 14:39:16.846";"1";"0";"0";"103";"102";"module.training_block3.exec-6199.GoNoGo3";;;;;;;;;;;;;;;;;;;;;;;;;;;;;;;;;;;;;;;;;;;;;;;"1261";"2014-10-13 14:31:54.515";"NST_correctLoc";"32";"0";"FINISHED";"LEFT";"success";"495";"0";"2014-10-13 14:31:53.251";"3";;;;;;;;;;;;;;;;;;;;;;;;;;;;;;;;;
"C1410978";"1995";;"Windows 7";"Rachel's Experiment (D.T.)";"1.0";"2";"1";"1";"2";"1";"1";"2014-10-13 14:26:16.425";"2014-10-13 14:39:16.846";"1";"0";"0";"104";"103";"module.training_block3.exec-6199.GoNoGo3";;;;;;;;;;;;;;;;;;;;;;;;;;;;;;;;;;;;;;;;;;;;;;;"1261";"2014-10-13 14:31:57.058";"NST_correctLoc";"12";"0";"FINISHED";"LEFT";"success";"520";"0";"2014-10-13 14:31:55.794";"2";;;;;;;;;;;;;;;;;;;;;;;;;;;;;;;;;
"C1410978";"1995";;"Windows 7";"Rachel's Experiment (D.T.)";"1.0";"2";"1";"1";"2";"1";"1";"2014-10-13 14:26:16.425";"2014-10-13 14:39:16.846";"1";"0";"0";"105";"104";"module.training_block3.exec-6199.GoNoGo3";;;;;;;;;;;;;;;;;;;;;;;;;;;;;;;;;;;;;;;;;;;;;;;"1261";"2014-10-13 14:31:59.601";"NST_correctLoc";"21";"1";"FINISHED";"RIGHT";"success";"585";"0";"2014-10-13 14:31:58.337";"3";;;;;;;;;;;;;;;;;;;;;;;;;;;;;;;;;
"C1410978";"1995";;"Windows 7";"Rachel's Experiment (D.T.)";"1.0";"2";"1";"1";"2";"1";"1";"2014-10-13 14:26:16.425";"2014-10-13 14:39:16.846";"1";"0";"0";"106";"105";"module.training_block3.exec-6199.GoNoGo3";;;;;;;;;;;;;;;;;;;;;;;;;;;;;;;;;;;;;;;;;;;;;;;"1261";"2014-10-13 14:32:02.143";"NST_correctLoc";"24";"1";"FINISHED";"RIGHT";"success";"522";"0";"2014-10-13 14:32:00.880";"3";;;;;;;;;;;;;;;;;;;;;;;;;;;;;;;;;
"C1410978";"1995";;"Windows 7";"Rachel's Experiment (D.T.)";"1.0";"2";"1";"1";"2";"1";"1";"2014-10-13 14:26:16.425";"2014-10-13 14:39:16.846";"1";"0";"0";"107";"106";"module.training_block3.exec-6199.GoNoGo3";;;;;;;;;;;;;;;;;;;;;;;;;;;;;;;;;;;;;;;;;;;;;;;"1262";"2014-10-13 14:32:04.686";"NST_correctLoc";"1";"1";"FINISHED";"RIGHT";"success";"420";"0";"2014-10-13 14:32:03.423";"1";;;;;;;;;;;;;;;;;;;;;;;;;;;;;;;;;
"C1410978";"1995";;"Windows 7";"Rachel's Experiment (D.T.)";"1.0";"2";"1";"1";"2";"1";"1";"2014-10-13 14:26:16.425";"2014-10-13 14:39:16.846";"1";"0";"0";"108";"107";"module.training_block3.exec-6199.GoNoGo3";;;;;;;;;;;;;;;;;;;;;;;;;;;;;;;;;;;;;;;;;;;;;;;"1261";"2014-10-13 14:32:07.229";"NST_correctLoc";"3";"0";"FINISHED";"LEFT";"success";"333";"0";"2014-10-13 14:32:05.966";"1";;;;;;;;;;;;;;;;;;;;;;;;;;;;;;;;;
"C1410978";"1995";;"Windows 7";"Rachel's Experiment (D.T.)";"1.0";"2";"1";"1";"2";"1";"1";"2014-10-13 14:26:16.425";"2014-10-13 14:39:16.846";"1";"0";"0";"109";"108";"module.training_block3.exec-6199.GoNoGo3";;;;;;;;;;;;;;;;;;;;;;;;;;;;;;;;;;;;;;;;;;;;;;;"1261";"2014-10-13 14:32:09.772";"NST_correctLoc";"8";"1";"FINISHED";"RIGHT";"success";"326";"0";"2014-10-13 14:32:08.508";"1";;;;;;;;;;;;;;;;;;;;;;;;;;;;;;;;;
"C1410978";"1995";;"Windows 7";"Rachel's Experiment (D.T.)";"1.0";"2";"1";"1";"2";"1";"1";"2014-10-13 14:26:16.425";"2014-10-13 14:39:16.846";"1";"0";"0";"110";"109";"module.training_block3.exec-6199.GoNoGo3";;;;;;;;;;;;;;;;;;;;;;;;;;;;;;;;;;;;;;;;;;;;;;;"1261";"2014-10-13 14:32:12.315";"NST_correctLoc";"7";"0";"FINISHED";"LEFT";"success";"263";"0";"2014-10-13 14:32:11.051";"1";;;;;;;;;;;;;;;;;;;;;;;;;;;;;;;;;
"C1410978";"1995";;"Windows 7";"Rachel's Experiment (D.T.)";"1.0";"2";"1";"1";"2";"1";"1";"2014-10-13 14:26:16.425";"2014-10-13 14:39:16.846";"1";"0";"0";"111";"110";"module.training_block3.exec-6199.GoNoGo3";;;;;;;;;;;;;;;;;;;;;;;;;;;;;;;;;;;;;;;;;;;;;;;"1262";"2014-10-13 14:32:14.858";"NST_correctLoc";"4";"0";"FINISHED";"LEFT";"success";"496";"0";"2014-10-13 14:32:13.594";"1";;;;;;;;;;;;;;;;;;;;;;;;;;;;;;;;;
"C1410978";"1995";;"Windows 7";"Rachel's Experiment (D.T.)";"1.0";"2";"1";"1";"2";"1";"1";"2014-10-13 14:26:16.425";"2014-10-13 14:39:16.846";"1";"0";"0";"112";"111";"module.training_block3.exec-6199.GoNoGo3";;;;;;;;;;;;;;;;;;;;;;;;;;;;;;;;;;;;;;;;;;;;;;;"1261";"2014-10-13 14:32:17.401";"NST_correctLoc";"26";"0";"FINISHED";"LEFT";"success";"418";"0";"2014-10-13 14:32:16.137";"3";;;;;;;;;;;;;;;;;;;;;;;;;;;;;;;;;
"C1410978";"1995";;"Windows 7";"Rachel's Experiment (D.T.)";"1.0";"2";"1";"1";"2";"1";"1";"2014-10-13 14:26:16.425";"2014-10-13 14:39:16.846";"1";"0";"0";"113";"112";"module.training_block3.exec-6199.GoNoGo3";;;;;;;;;;;;;;;;;;;;;;;;;;;;;;;;;;;;;;;;;;;;;;;"1261";"2014-10-13 14:32:19.943";"NST_correctLoc";"22";"1";"FINISHED";"RIGHT";"success";"331";"0";"2014-10-13 14:32:18.680";"3";;;;;;;;;;;;;;;;;;;;;;;;;;;;;;;;;
"C1410978";"1995";;"Windows 7";"Rachel's Experiment (D.T.)";"1.0";"2";"1";"1";"2";"1";"1";"2014-10-13 14:26:16.425";"2014-10-13 14:39:16.846";"1";"0";"0";"114";"113";"module.training_block3.exec-6199.GoNoGo3";;;;;;;;;;;;;;;;;;;;;;;;;;;;;;;;;;;;;;;;;;;;;;;"1261";"2014-10-13 14:32:22.486";"NST_correctLoc";"29";"0";"FINISHED";"LEFT";"success";"268";"0";"2014-10-13 14:32:21.223";"3";;;;;;;;;;;;;;;;;;;;;;;;;;;;;;;;;
"C1410978";"1995";;"Windows 7";"Rachel's Experiment (D.T.)";"1.0";"2";"1";"1";"2";"1";"1";"2014-10-13 14:26:16.425";"2014-10-13 14:39:16.846";"1";"0";"0";"115";"114";"module.training_block3.exec-6199.GoNoGo3";;;;;;;;;;;;;;;;;;;;;;;;;;;;;;;;;;;;;;;;;;;;;;;"1262";"2014-10-13 14:32:25.029";"NST_correctLoc";"16";"0";"FINISHED";"LEFT";"success";"317";"0";"2014-10-13 14:32:23.765";"2";;;;;;;;;;;;;;;;;;;;;;;;;;;;;;;;;
"C1410978";"1995";;"Windows 7";"Rachel's Experiment (D.T.)";"1.0";"2";"1";"1";"2";"1";"1";"2014-10-13 14:26:16.425";"2014-10-13 14:39:16.846";"1";"0";"0";"116";"115";"module.training_block3.exec-6199.GoNoGo3";;;;;;;;;;;;;;;;;;;;;;;;;;;;;;;;;;;;;;;;;;;;;;;"1259";"2014-10-13 14:32:27.572";"NST_correctLoc";"14";"0";"FINISHED";"LEFT";"success";"635";"0";"2014-10-13 14:32:26.308";"2";;;;;;;;;;;;;;;;;;;;;;;;;;;;;;;;;
"C1410978";"1995";;"Windows 7";"Rachel's Experiment (D.T.)";"1.0";"2";"1";"1";"2";"1";"1";"2014-10-13 14:26:16.425";"2014-10-13 14:39:16.846";"1";"0";"0";"117";"116";"module.training_block3.exec-6199.GoNoGo3";;;;;;;;;;;;;;;;;;;;;;;;;;;;;;;;;;;;;;;;;;;;;;;"1261";"2014-10-13 14:32:30.115";"NST_correctLoc";"28";"1";"FINISHED";"RIGHT";"success";"383";"0";"2014-10-13 14:32:28.851";"3";;;;;;;;;;;;;;;;;;;;;;;;;;;;;;;;;
"C1410978";"1995";;"Windows 7";"Rachel's Experiment (D.T.)";"1.0";"2";"1";"1";"2";"1";"1";"2014-10-13 14:26:16.425";"2014-10-13 14:39:16.846";"1";"0";"0";"118";"117";"module.training_block3.exec-6199.GoNoGo3";;;;;;;;;;;;;;;;;;;;;;;;;;;;;;;;;;;;;;;;;;;;;;;"1262";"2014-10-13 14:32:32.658";"NST_correctLoc";"2";"0";"FINISHED";"LEFT";"success";"329";"0";"2014-10-13 14:32:31.394";"1";;;;;;;;;;;;;;;;;;;;;;;;;;;;;;;;;
"C1410978";"1995";;"Windows 7";"Rachel's Experiment (D.T.)";"1.0";"2";"1";"1";"2";"1";"1";"2014-10-13 14:26:16.425";"2014-10-13 14:39:16.846";"1";"0";"0";"119";"118";"module.training_block3.exec-6199.GoNoGo3";;;;;;;;;;;;;;;;;;;;;;;;;;;;;;;;;;;;;;;;;;;;;;;"1261";"2014-10-13 14:32:35.200";"NST_correctLoc";"27";"1";"FINISHED";"RIGHT";"success";"370";"0";"2014-10-13 14:32:33.937";"3";;;;;;;;;;;;;;;;;;;;;;;;;;;;;;;;;
"C1410978";"1995";;"Windows 7";"Rachel's Experiment (D.T.)";"1.0";"2";"1";"1";"2";"1";"1";"2014-10-13 14:26:16.425";"2014-10-13 14:39:16.846";"1";"0";"0";"120";"119";"module.training_block3.exec-6199.GoNoGo3";;;;;;;;;;;;;;;;;;;;;;;;;;;;;;;;;;;;;;;;;;;;;;;"1261";"2014-10-13 14:32:37.743";"NST_correctLoc";"6";"0";"FINISHED";"LEFT";"success";"339";"0";"2014-10-13 14:32:36.480";"1";;;;;;;;;;;;;;;;;;;;;;;;;;;;;;;;;
"C1410978";"1995";;"Windows 7";"Rachel's Experiment (D.T.)";"1.0";"2";"1";"1";"2";"1";"1";"2014-10-13 14:26:16.425";"2014-10-13 14:39:16.846";"1";"0";"0";"121";"120";"module.training_block3.exec-6199.GoNoGo3";;;;;;;;;;;;;;;;;;;;;;;;;;;;;;;;;;;;;;;;;;;;;;;"1261";"2014-10-13 14:32:40.286";"NST_correctLoc";"23";"0";"FINISHED";"LEFT";"success";"340";"0";"2014-10-13 14:32:39.023";"3";;;;;;;;;;;;;;;;;;;;;;;;;;;;;;;;;
"C1410978";"1995";;"Windows 7";"Rachel's Experiment (D.T.)";"1.0";"2";"1";"1";"2";"1";"1";"2014-10-13 14:26:16.425";"2014-10-13 14:39:16.846";"1";"0";"0";"122";"121";"module.training_block3.exec-6199.GoNoGo3";;;;;;;;;;;;;;;;;;;;;;;;;;;;;;;;;;;;;;;;;;;;;;;"1261";"2014-10-13 14:32:42.829";"NST_correctLoc";"17";"0";"FINISHED";"LEFT";"success";"325";"0";"2014-10-13 14:32:41.565";"2";;;;;;;;;;;;;;;;;;;;;;;;;;;;;;;;;
"C1410978";"1995";;"Windows 7";"Rachel's Experiment (D.T.)";"1.0";"2";"1";"1";"2";"1";"1";"2014-10-13 14:26:16.425";"2014-10-13 14:39:16.846";"1";"0";"0";"123";"122";"module.training_block3.exec-6199.GoNoGo3";;;;;;;;;;;;;;;;;;;;;;;;;;;;;;;;;;;;;;;;;;;;;;;"1262";"2014-10-13 14:32:45.372";"NST_correctLoc";"31";"0";"FINISHED";"LEFT";"success";"374";"0";"2014-10-13 14:32:44.108";"3";;;;;;;;;;;;;;;;;;;;;;;;;;;;;;;;;
"C1410978";"1995";;"Windows 7";"Rachel's Experiment (D.T.)";"1.0";"2";"1";"1";"2";"1";"1";"2014-10-13 14:26:16.425";"2014-10-13 14:39:16.846";"1";"0";"0";"124";"123";"module.training_block4.exec-2497.GoNoGo4";;;;;;;;;;;;;;;;;;;;;;;;;;;;;;;;;;;;;;;;;;;;;;;;;;;;;;;;;;;"1261";"2014-10-13 14:32:56.354";"NST_correctLoc";"4";"1";"FINISHED";"RIGHT";"success";"384";"0";"2014-10-13 14:32:55.091";"1";;;;;;;;;;;;;;;;;;;;;
"C1410978";"1995";;"Windows 7";"Rachel's Experiment (D.T.)";"1.0";"2";"1";"1";"2";"1";"1";"2014-10-13 14:26:16.425";"2014-10-13 14:39:16.846";"1";"0";"0";"125";"124";"module.training_block4.exec-2497.GoNoGo4";;;;;;;;;;;;;;;;;;;;;;;;;;;;;;;;;;;;;;;;;;;;;;;;;;;;;;;;;;;"1261";"2014-10-13 14:32:58.897";"NST_correctLoc";"29";"0";"FINISHED";"LEFT";"success";"313";"0";"2014-10-13 14:32:57.634";"3";;;;;;;;;;;;;;;;;;;;;
"C1410978";"1995";;"Windows 7";"Rachel's Experiment (D.T.)";"1.0";"2";"1";"1";"2";"1";"1";"2014-10-13 14:26:16.425";"2014-10-13 14:39:16.846";"1";"0";"0";"126";"125";"module.training_block4.exec-2497.GoNoGo4";;;;;;;;;;;;;;;;;;;;;;;;;;;;;;;;;;;;;;;;;;;;;;;;;;;;;;;;;;;"1261";"2014-10-13 14:33:01.440";"NST_correctLoc";"11";"0";"FINISHED";"LEFT";"success";"450";"0";"2014-10-13 14:33:00.177";"2";;;;;;;;;;;;;;;;;;;;;
"C1410978";"1995";;"Windows 7";"Rachel's Experiment (D.T.)";"1.0";"2";"1";"1";"2";"1";"1";"2014-10-13 14:26:16.425";"2014-10-13 14:39:16.846";"1";"0";"0";"127";"126";"module.training_block4.exec-2497.GoNoGo4";;;;;;;;;;;;;;;;;;;;;;;;;;;;;;;;;;;;;;;;;;;;;;;;;;;;;;;;;;;"1262";"2014-10-13 14:33:03.983";"NST_correctLoc";"24";"1";"FINISHED";"RIGHT";"success";"340";"0";"2014-10-13 14:33:02.719";"3";;;;;;;;;;;;;;;;;;;;;
"C1410978";"1995";;"Windows 7";"Rachel's Experiment (D.T.)";"1.0";"2";"1";"1";"2";"1";"1";"2014-10-13 14:26:16.425";"2014-10-13 14:39:16.846";"1";"0";"0";"128";"127";"module.training_block4.exec-2497.GoNoGo4";;;;;;;;;;;;;;;;;;;;;;;;;;;;;;;;;;;;;;;;;;;;;;;;;;;;;;;;;;;"1261";"2014-10-13 14:33:06.526";"NST_correctLoc";"34";"0";"FINISHED";"LEFT";"success";"309";"0";"2014-10-13 14:33:05.262";"3";;;;;;;;;;;;;;;;;;;;;
"C1410978";"1995";;"Windows 7";"Rachel's Experiment (D.T.)";"1.0";"2";"1";"1";"2";"1";"1";"2014-10-13 14:26:16.425";"2014-10-13 14:39:16.846";"1";"0";"0";"129";"128";"module.training_block4.exec-2497.GoNoGo4";;;;;;;;;;;;;;;;;;;;;;;;;;;;;;;;;;;;;;;;;;;;;;;;;;;;;;;;;;;"1261";"2014-10-13 14:33:09.069";"NST_correctLoc";"20";"0";"FINISHED";"LEFT";"success";"342";"0";"2014-10-13 14:33:07.805";"3";;;;;;;;;;;;;;;;;;;;;
"C1410978";"1995";;"Windows 7";"Rachel's Experiment (D.T.)";"1.0";"2";"1";"1";"2";"1";"1";"2014-10-13 14:26:16.425";"2014-10-13 14:39:16.846";"1";"0";"0";"130";"129";"module.training_block4.exec-2497.GoNoGo4";;;;;;;;;;;;;;;;;;;;;;;;;;;;;;;;;;;;;;;;;;;;;;;;;;;;;;;;;;;"1262";"2014-10-13 14:33:11.612";"NST_correctLoc";"17";"0";"FINISHED";"LEFT";"success";"287";"0";"2014-10-13 14:33:10.348";"2";;;;;;;;;;;;;;;;;;;;;
"C1410978";"1995";;"Windows 7";"Rachel's Experiment (D.T.)";"1.0";"2";"1";"1";"2";"1";"1";"2014-10-13 14:26:16.425";"2014-10-13 14:39:16.846";"1";"0";"0";"131";"130";"module.training_block4.exec-2497.GoNoGo4";;;;;;;;;;;;;;;;;;;;;;;;;;;;;;;;;;;;;;;;;;;;;;;;;;;;;;;;;;;"1261";"2014-10-13 14:33:14.154";"NST_correctLoc";"3";"1";"FINISHED";"RIGHT";"success";"280";"0";"2014-10-13 14:33:12.891";"1";;;;;;;;;;;;;;;;;;;;;
"C1410978";"1995";;"Windows 7";"Rachel's Experiment (D.T.)";"1.0";"2";"1";"1";"2";"1";"1";"2014-10-13 14:26:16.425";"2014-10-13 14:39:16.846";"1";"0";"0";"132";"131";"module.training_block4.exec-2497.GoNoGo4";;;;;;;;;;;;;;;;;;;;;;;;;;;;;;;;;;;;;;;;;;;;;;;;;;;;;;;;;;;"1262";"2014-10-13 14:33:16.697";"NST_wrongLoc";"31";"1";"FINISHED";"LEFT";"failure";"393";"0";"2014-10-13 14:33:15.434";"3";;;;;;;;;;;;;;;;;;;;;
"C1410978";"1995";;"Windows 7";"Rachel's Experiment (D.T.)";"1.0";"2";"1";"1";"2";"1";"1";"2014-10-13 14:26:16.425";"2014-10-13 14:39:16.846";"1";"0";"0";"133";"132";"module.training_block4.exec-2497.GoNoGo4";;;;;;;;;;;;;;;;;;;;;;;;;;;;;;;;;;;;;;;;;;;;;;;;;;;;;;;;;;;"1261";"2014-10-13 14:33:19.240";"NST_correctLoc";"28";"1";"FINISHED";"RIGHT";"success";"403";"0";"2014-10-13 14:33:17.976";"3";;;;;;;;;;;;;;;;;;;;;
"C1410978";"1995";;"Windows 7";"Rachel's Experiment (D.T.)";"1.0";"2";"1";"1";"2";"1";"1";"2014-10-13 14:26:16.425";"2014-10-13 14:39:16.846";"1";"0";"0";"134";"133";"module.training_block4.exec-2497.GoNoGo4";;;;;;;;;;;;;;;;;;;;;;;;;;;;;;;;;;;;;;;;;;;;;;;;;;;;;;;;;;;"1261";"2014-10-13 14:33:21.767";"NST_correctLoc";"15";"1";"FINISHED";"RIGHT";"success";"331";"0";"2014-10-13 14:33:20.504";"2";;;;;;;;;;;;;;;;;;;;;
"C1410978";"1995";;"Windows 7";"Rachel's Experiment (D.T.)";"1.0";"2";"1";"1";"2";"1";"1";"2014-10-13 14:26:16.425";"2014-10-13 14:39:16.846";"1";"0";"0";"135";"134";"module.training_block4.exec-2497.GoNoGo4";;;;;;;;;;;;;;;;;;;;;;;;;;;;;;;;;;;;;;;;;;;;;;;;;;;;;;;;;;;"1262";"2014-10-13 14:33:24.310";"NST_correctLoc";"26";"0";"FINISHED";"LEFT";"success";"301";"0";"2014-10-13 14:33:23.047";"3";;;;;;;;;;;;;;;;;;;;;
"C1410978";"1995";;"Windows 7";"Rachel's Experiment (D.T.)";"1.0";"2";"1";"1";"2";"1";"1";"2014-10-13 14:26:16.425";"2014-10-13 14:39:16.846";"1";"0";"0";"136";"135";"module.training_block4.exec-2497.GoNoGo4";;;;;;;;;;;;;;;;;;;;;;;;;;;;;;;;;;;;;;;;;;;;;;;;;;;;;;;;;;;"1261";"2014-10-13 14:33:26.837";"NST_correctLoc";"1";"0";"FINISHED";"LEFT";"success";"533";"0";"2014-10-13 14:33:25.574";"1";;;;;;;;;;;;;;;;;;;;;
"C1410978";"1995";;"Windows 7";"Rachel's Experiment (D.T.)";"1.0";"2";"1";"1";"2";"1";"1";"2014-10-13 14:26:16.425";"2014-10-13 14:39:16.846";"1";"0";"0";"137";"136";"module.training_block4.exec-2497.GoNoGo4";;;;;;;;;;;;;;;;;;;;;;;;;;;;;;;;;;;;;;;;;;;;;;;;;;;;;;;;;;;"1262";"2014-10-13 14:33:29.380";"NST_correctLoc";"32";"1";"FINISHED";"RIGHT";"success";"407";"0";"2014-10-13 14:33:28.117";"3";;;;;;;;;;;;;;;;;;;;;
"C1410978";"1995";;"Windows 7";"Rachel's Experiment (D.T.)";"1.0";"2";"1";"1";"2";"1";"1";"2014-10-13 14:26:16.425";"2014-10-13 14:39:16.846";"1";"0";"0";"138";"137";"module.training_block4.exec-2497.GoNoGo4";;;;;;;;;;;;;;;;;;;;;;;;;;;;;;;;;;;;;;;;;;;;;;;;;;;;;;;;;;;"1261";"2014-10-13 14:33:31.923";"NST_correctLoc";"8";"1";"FINISHED";"RIGHT";"success";"536";"0";"2014-10-13 14:33:30.660";"1";;;;;;;;;;;;;;;;;;;;;
"C1410978";"1995";;"Windows 7";"Rachel's Experiment (D.T.)";"1.0";"2";"1";"1";"2";"1";"1";"2014-10-13 14:26:16.425";"2014-10-13 14:39:16.846";"1";"0";"0";"139";"138";"module.training_block4.exec-2497.GoNoGo4";;;;;;;;;;;;;;;;;;;;;;;;;;;;;;;;;;;;;;;;;;;;;;;;;;;;;;;;;;;"1262";"2014-10-13 14:33:34.466";"NST_correctLoc";"16";"0";"FINISHED";"LEFT";"success";"361";"0";"2014-10-13 14:33:33.202";"2";;;;;;;;;;;;;;;;;;;;;
"C1410978";"1995";;"Windows 7";"Rachel's Experiment (D.T.)";"1.0";"2";"1";"1";"2";"1";"1";"2014-10-13 14:26:16.425";"2014-10-13 14:39:16.846";"1";"0";"0";"140";"139";"module.training_block4.exec-2497.GoNoGo4";;;;;;;;;;;;;;;;;;;;;;;;;;;;;;;;;;;;;;;;;;;;;;;;;;;;;;;;;;;"1261";"2014-10-13 14:33:37.009";"NST_correctLoc";"7";"0";"FINISHED";"LEFT";"success";"386";"0";"2014-10-13 14:33:35.745";"1";;;;;;;;;;;;;;;;;;;;;
"C1410978";"1995";;"Windows 7";"Rachel's Experiment (D.T.)";"1.0";"2";"1";"1";"2";"1";"1";"2014-10-13 14:26:16.425";"2014-10-13 14:39:16.846";"1";"0";"0";"141";"140";"module.training_block4.exec-2497.GoNoGo4";;;;;;;;;;;;;;;;;;;;;;;;;;;;;;;;;;;;;;;;;;;;;;;;;;;;;;;;;;;"1261";"2014-10-13 14:33:39.536";"NST_correctLoc";"6";"0";"FINISHED";"LEFT";"success";"395";"0";"2014-10-13 14:33:38.272";"1";;;;;;;;;;;;;;;;;;;;;
"C1410978";"1995";;"Windows 7";"Rachel's Experiment (D.T.)";"1.0";"2";"1";"1";"2";"1";"1";"2014-10-13 14:26:16.425";"2014-10-13 14:39:16.846";"1";"0";"0";"142";"141";"module.training_block4.exec-2497.GoNoGo4";;;;;;;;;;;;;;;;;;;;;;;;;;;;;;;;;;;;;;;;;;;;;;;;;;;;;;;;;;;"1261";"2014-10-13 14:33:42.079";"NST_correctLoc";"13";"1";"FINISHED";"RIGHT";"success";"436";"0";"2014-10-13 14:33:40.815";"2";;;;;;;;;;;;;;;;;;;;;
"C1410978";"1995";;"Windows 7";"Rachel's Experiment (D.T.)";"1.0";"2";"1";"1";"2";"1";"1";"2014-10-13 14:26:16.425";"2014-10-13 14:39:16.846";"1";"0";"0";"143";"142";"module.training_block4.exec-2497.GoNoGo4";;;;;;;;;;;;;;;;;;;;;;;;;;;;;;;;;;;;;;;;;;;;;;;;;;;;;;;;;;;"1262";"2014-10-13 14:33:44.622";"NST_correctLoc";"35";"1";"FINISHED";"RIGHT";"success";"357";"0";"2014-10-13 14:33:43.358";"3";;;;;;;;;;;;;;;;;;;;;
"C1410978";"1995";;"Windows 7";"Rachel's Experiment (D.T.)";"1.0";"2";"1";"1";"2";"1";"1";"2014-10-13 14:26:16.425";"2014-10-13 14:39:16.846";"1";"0";"0";"144";"143";"module.training_block4.exec-2497.GoNoGo4";;;;;;;;;;;;;;;;;;;;;;;;;;;;;;;;;;;;;;;;;;;;;;;;;;;;;;;;;;;"1261";"2014-10-13 14:33:47.165";"NST_correctLoc";"21";"1";"FINISHED";"RIGHT";"success";"358";"0";"2014-10-13 14:33:45.901";"3";;;;;;;;;;;;;;;;;;;;;
"C1410978";"1995";;"Windows 7";"Rachel's Experiment (D.T.)";"1.0";"2";"1";"1";"2";"1";"1";"2014-10-13 14:26:16.425";"2014-10-13 14:39:16.846";"1";"0";"0";"145";"144";"module.training_block4.exec-2497.GoNoGo4";;;;;;;;;;;;;;;;;;;;;;;;;;;;;;;;;;;;;;;;;;;;;;;;;;;;;;;;;;;"1261";"2014-10-13 14:33:49.692";"NST_correctLoc";"27";"1";"FINISHED";"RIGHT";"success";"335";"0";"2014-10-13 14:33:48.428";"3";;;;;;;;;;;;;;;;;;;;;
"C1410978";"1995";;"Windows 7";"Rachel's Experiment (D.T.)";"1.0";"2";"1";"1";"2";"1";"1";"2014-10-13 14:26:16.425";"2014-10-13 14:39:16.846";"1";"0";"0";"146";"145";"module.training_block4.exec-2497.GoNoGo4";;;;;;;;;;;;;;;;;;;;;;;;;;;;;;;;;;;;;;;;;;;;;;;;;;;;;;;;;;;"1261";"2014-10-13 14:33:52.219";"NST_correctLoc";"5";"0";"FINISHED";"LEFT";"success";"296";"0";"2014-10-13 14:33:50.956";"1";;;;;;;;;;;;;;;;;;;;;
"C1410978";"1995";;"Windows 7";"Rachel's Experiment (D.T.)";"1.0";"2";"1";"1";"2";"1";"1";"2014-10-13 14:26:16.425";"2014-10-13 14:39:16.846";"1";"0";"0";"147";"146";"module.training_block4.exec-2497.GoNoGo4";;;;;;;;;;;;;;;;;;;;;;;;;;;;;;;;;;;;;;;;;;;;;;;;;;;;;;;;;;;"1262";"2014-10-13 14:33:54.762";"NST_correctLoc";"10";"1";"FINISHED";"RIGHT";"success";"401";"0";"2014-10-13 14:33:53.498";"2";;;;;;;;;;;;;;;;;;;;;
"C1410978";"1995";;"Windows 7";"Rachel's Experiment (D.T.)";"1.0";"2";"1";"1";"2";"1";"1";"2014-10-13 14:26:16.425";"2014-10-13 14:39:16.846";"1";"0";"0";"148";"147";"module.training_block4.exec-2497.GoNoGo4";;;;;;;;;;;;;;;;;;;;;;;;;;;;;;;;;;;;;;;;;;;;;;;;;;;;;;;;;;;"1261";"2014-10-13 14:33:57.305";"NST_correctLoc";"23";"1";"FINISHED";"RIGHT";"success";"402";"0";"2014-10-13 14:33:56.041";"3";;;;;;;;;;;;;;;;;;;;;
"C1410978";"1995";;"Windows 7";"Rachel's Experiment (D.T.)";"1.0";"2";"1";"1";"2";"1";"1";"2014-10-13 14:26:16.425";"2014-10-13 14:39:16.846";"1";"0";"0";"149";"148";"module.training_block4.exec-2497.GoNoGo4";;;;;;;;;;;;;;;;;;;;;;;;;;;;;;;;;;;;;;;;;;;;;;;;;;;;;;;;;;;"1261";"2014-10-13 14:33:59.848";"NST_correctLoc";"22";"0";"FINISHED";"LEFT";"success";"339";"0";"2014-10-13 14:33:58.584";"3";;;;;;;;;;;;;;;;;;;;;
"C1410978";"1995";;"Windows 7";"Rachel's Experiment (D.T.)";"1.0";"2";"1";"1";"2";"1";"1";"2014-10-13 14:26:16.425";"2014-10-13 14:39:16.846";"1";"0";"0";"150";"149";"module.training_block4.exec-2497.GoNoGo4";;;;;;;;;;;;;;;;;;;;;;;;;;;;;;;;;;;;;;;;;;;;;;;;;;;;;;;;;;;"1261";"2014-10-13 14:34:02.391";"NST_correctLoc";"33";"1";"FINISHED";"RIGHT";"success";"477";"0";"2014-10-13 14:34:01.127";"3";;;;;;;;;;;;;;;;;;;;;
"C1410978";"1995";;"Windows 7";"Rachel's Experiment (D.T.)";"1.0";"2";"1";"1";"2";"1";"1";"2014-10-13 14:26:16.425";"2014-10-13 14:39:16.846";"1";"0";"0";"151";"150";"module.training_block4.exec-2497.GoNoGo4";;;;;;;;;;;;;;;;;;;;;;;;;;;;;;;;;;;;;;;;;;;;;;;;;;;;;;;;;;;"1261";"2014-10-13 14:34:04.918";"NST_correctLoc";"19";"1";"FINISHED";"RIGHT";"success";"381";"0";"2014-10-13 14:34:03.654";"3";;;;;;;;;;;;;;;;;;;;;
"C1410978";"1995";;"Windows 7";"Rachel's Experiment (D.T.)";"1.0";"2";"1";"1";"2";"1";"1";"2014-10-13 14:26:16.425";"2014-10-13 14:39:16.846";"1";"0";"0";"152";"151";"module.training_block4.exec-2497.GoNoGo4";;;;;;;;;;;;;;;;;;;;;;;;;;;;;;;;;;;;;;;;;;;;;;;;;;;;;;;;;;;"1262";"2014-10-13 14:34:07.461";"NST_correctLoc";"12";"0";"FINISHED";"LEFT";"success";"327";"0";"2014-10-13 14:34:06.197";"2";;;;;;;;;;;;;;;;;;;;;
"C1410978";"1995";;"Windows 7";"Rachel's Experiment (D.T.)";"1.0";"2";"1";"1";"2";"1";"1";"2014-10-13 14:26:16.425";"2014-10-13 14:39:16.846";"1";"0";"0";"153";"152";"module.training_block4.exec-2497.GoNoGo4";;;;;;;;;;;;;;;;;;;;;;;;;;;;;;;;;;;;;;;;;;;;;;;;;;;;;;;;;;;"1261";"2014-10-13 14:34:10.003";"NST_correctLoc";"30";"1";"FINISHED";"RIGHT";"success";"304";"0";"2014-10-13 14:34:08.740";"3";;;;;;;;;;;;;;;;;;;;;
"C1410978";"1995";;"Windows 7";"Rachel's Experiment (D.T.)";"1.0";"2";"1";"1";"2";"1";"1";"2014-10-13 14:26:16.425";"2014-10-13 14:39:16.846";"1";"0";"0";"154";"153";"module.training_block4.exec-2497.GoNoGo4";;;;;;;;;;;;;;;;;;;;;;;;;;;;;;;;;;;;;;;;;;;;;;;;;;;;;;;;;;;"1262";"2014-10-13 14:34:12.546";"NST_correctLoc";"14";"1";"FINISHED";"RIGHT";"success";"361";"0";"2014-10-13 14:34:11.283";"2";;;;;;;;;;;;;;;;;;;;;
"C1410978";"1995";;"Windows 7";"Rachel's Experiment (D.T.)";"1.0";"2";"1";"1";"2";"1";"1";"2014-10-13 14:26:16.425";"2014-10-13 14:39:16.846";"1";"0";"0";"155";"154";"module.training_block4.exec-2497.GoNoGo4";;;;;;;;;;;;;;;;;;;;;;;;;;;;;;;;;;;;;;;;;;;;;;;;;;;;;;;;;;;"1261";"2014-10-13 14:34:15.089";"NST_correctLoc";"25";"0";"FINISHED";"LEFT";"success";"330";"0";"2014-10-13 14:34:13.826";"3";;;;;;;;;;;;;;;;;;;;;
"C1410978";"1995";;"Windows 7";"Rachel's Experiment (D.T.)";"1.0";"2";"1";"1";"2";"1";"1";"2014-10-13 14:26:16.425";"2014-10-13 14:39:16.846";"1";"0";"0";"156";"155";"module.training_block4.exec-2497.GoNoGo4";;;;;;;;;;;;;;;;;;;;;;;;;;;;;;;;;;;;;;;;;;;;;;;;;;;;;;;;;;;"1261";"2014-10-13 14:34:17.632";"NST_correctLoc";"2";"0";"FINISHED";"LEFT";"success";"475";"0";"2014-10-13 14:34:16.368";"1";;;;;;;;;;;;;;;;;;;;;
"C1410978";"1995";;"Windows 7";"Rachel's Experiment (D.T.)";"1.0";"2";"1";"1";"2";"1";"1";"2014-10-13 14:26:16.425";"2014-10-13 14:39:16.846";"1";"0";"0";"157";"156";"module.training_block4.exec-2497.GoNoGo4";;;;;;;;;;;;;;;;;;;;;;;;;;;;;;;;;;;;;;;;;;;;;;;;;;;;;;;;;;;"1261";"2014-10-13 14:34:20.159";"NST_correctLoc";"18";"1";"FINISHED";"RIGHT";"success";"404";"0";"2014-10-13 14:34:18.896";"3";;;;;;;;;;;;;;;;;;;;;
"C1410978";"1995";;"Windows 7";"Rachel's Experiment (D.T.)";"1.0";"2";"1";"1";"2";"1";"1";"2014-10-13 14:26:16.425";"2014-10-13 14:39:16.846";"1";"0";"0";"158";"157";"module.training_block4.exec-2497.GoNoGo4";;;;;;;;;;;;;;;;;;;;;;;;;;;;;;;;;;;;;;;;;;;;;;;;;;;;;;;;;;;"1262";"2014-10-13 14:34:22.687";"NST_correctLoc";"9";"0";"FINISHED";"LEFT";"success";"309";"0";"2014-10-13 14:34:21.423";"2";;;;;;;;;;;;;;;;;;;;;
"C1410978";"1995";;"Windows 7";"Rachel's Experiment (D.T.)";"1.0";"2";"1";"1";"2";"1";"1";"2014-10-13 14:26:16.425";"2014-10-13 14:39:16.846";"1";"0";"0";"159";"158";"module.training_block4.exec-2497.GoNoGo4";;;;;;;;;;;;;;;;;;;;;;;;;;;;;;;;;;;;;;;;;;;;;;;;;;;;;;;;;;;"1262";"2014-10-13 14:34:25.229";"NST_correctLoc";"0";"0";"FINISHED";"LEFT";"success";"318";"0";"2014-10-13 14:34:23.966";"1";;;;;;;;;;;;;;;;;;;;;
"C1410978";"1995";;"Windows 7";"Rachel's Experiment (D.T.)";"1.0";"2";"1";"1";"2";"1";"1";"2014-10-13 14:26:16.425";"2014-10-13 14:39:16.846";"1";"0";"0";"160";"159";"module.devaluation_practice.exec-1379.devalPractice";;;;;;;;;;;;"14847";"2014-10-13 14:35:23.153";"0";"7";"7";"7";"3701";"5026";"3056";"2014-10-13 14:35:08.317";;;;;;;;;;;;;;;;;;;;;;;;;;;;;;;;;;;;;;;;;;;;;;;;;;;;;;;;;;;;;;;;;;;;;;
"C1410978";"1995";;"Windows 7";"Rachel's Experiment (D.T.)";"1.0";"2";"1";"1";"2";"1";"1";"2014-10-13 14:26:16.425";"2014-10-13 14:39:16.846";"1";"0";"0";"161";"160";"module.devaluation_practice.exec-1379.devalPractice";;;;;;;;;;;;"9042";"2014-10-13 14:35:32.217";"1";"8";"8";"8";"3702";"946";"1364";"2014-10-13 14:35:23.185";;;;;;;;;;;;;;;;;;;;;;;;;;;;;;;;;;;;;;;;;;;;;;;;;;;;;;;;;;;;;;;;;;;;;;
"C1410978";"1995";;"Windows 7";"Rachel's Experiment (D.T.)";"1.0";"2";"1";"1";"2";"1";"1";"2014-10-13 14:26:16.425";"2014-10-13 14:39:16.846";"1";"0";"0";"162";"161";"module.devaluation_practice.exec-1379.devalPractice";;;;;;;;;;;;"8856";"2014-10-13 14:35:41.109";"2";"9";"9";"9";"1231";"3071";"1525";"2014-10-13 14:35:32.248";;;;;;;;;;;;;;;;;;;;;;;;;;;;;;;;;;;;;;;;;;;;;;;;;;;;;;;;;;;;;;;;;;;;;;
"C1410978";"1995";;"Windows 7";"Rachel's Experiment (D.T.)";"1.0";"2";"1";"1";"2";"1";"1";"2014-10-13 14:26:16.425";"2014-10-13 14:39:16.846";"1";"0";"0";"163";"162";"module.devaluation_practice.exec-1379.devalPractice";;;;;;;;;;;;"15465";"2014-10-13 14:35:56.710";"3";"5";"7";"7";"5069";"2541";"4830";"2014-10-13 14:35:41.234";;;;;;;;;;;;;;;;;;;;;;;;;;;;;;;;;;;;;;;;;;;;;;;;;;;;;;;;;;;;;;;;;;;;;;
"C1410978";"1995";;"Windows 7";"Rachel's Experiment (D.T.)";"1.0";"2";"1";"1";"2";"1";"1";"2014-10-13 14:26:16.425";"2014-10-13 14:39:16.846";"1";"0";"0";"164";"163";"module.devaluation_block1.exec-4835.deval1";"10572";"2014-10-13 14:36:11.280";"26";"9";"8";"8";"2743";"1595";"3203";"2014-10-13 14:36:00.703";"3";;;;;;;;;;;;;;;;;;;;;;;;;;;;;;;;;;;;;;;;;;;;;;;;;;;;;;;;;;;;;;;;;;;;;;;;;;;;;;;;
"C1410978";"1995";;"Windows 7";"Rachel's Experiment (D.T.)";"1.0";"2";"1";"1";"2";"1";"1";"2014-10-13 14:26:16.425";"2014-10-13 14:39:16.846";"1";"0";"0";"165";"164";"module.devaluation_block1.exec-4835.deval1";"8858";"2014-10-13 14:36:20.157";"11";"6";"6";"7";"2568";"1333";"1942";"2014-10-13 14:36:11.296";"2";;;;;;;;;;;;;;;;;;;;;;;;;;;;;;;;;;;;;;;;;;;;;;;;;;;;;;;;;;;;;;;;;;;;;;;;;;;;;;;;
"C1410978";"1995";;"Windows 7";"Rachel's Experiment (D.T.)";"1.0";"2";"1";"1";"2";"1";"1";"2014-10-13 14:26:16.425";"2014-10-13 14:39:16.846";"1";"0";"0";"166";"165";"module.devaluation_block1.exec-4835.deval1";"8746";"2014-10-13 14:36:28.924";"6";"8";"7";"7";"1179";"2629";"1918";"2014-10-13 14:36:20.172";"1";;;;;;;;;;;;;;;;;;;;;;;;;;;;;;;;;;;;;;;;;;;;;;;;;;;;;;;;;;;;;;;;;;;;;;;;;;;;;;;;
"C1410978";"1995";;"Windows 7";"Rachel's Experiment (D.T.)";"1.0";"2";"1";"1";"2";"1";"1";"2014-10-13 14:26:16.425";"2014-10-13 14:39:16.846";"1";"0";"0";"167";"166";"module.devaluation_block1.exec-4835.deval1";"5978";"2014-10-13 14:36:34.930";"8";"7";"8";"7";"788";"1390";"774";"2014-10-13 14:36:28.955";"1";;;;;;;;;;;;;;;;;;;;;;;;;;;;;;;;;;;;;;;;;;;;;;;;;;;;;;;;;;;;;;;;;;;;;;;;;;;;;;;;
"C1410978";"1995";;"Windows 7";"Rachel's Experiment (D.T.)";"1.0";"2";"1";"1";"2";"1";"1";"2014-10-13 14:26:16.425";"2014-10-13 14:39:16.846";"1";"0";"0";"168";"167";"module.devaluation_block1.exec-4835.deval1";"8531";"2014-10-13 14:36:43.479";"14";"8";"8";"8";"2206";"1362";"1939";"2014-10-13 14:36:34.946";"2";;;;;;;;;;;;;;;;;;;;;;;;;;;;;;;;;;;;;;;;;;;;;;;;;;;;;;;;;;;;;;;;;;;;;;;;;;;;;;;;
"C1410978";"1995";;"Windows 7";"Rachel's Experiment (D.T.)";"1.0";"2";"1";"1";"2";"1";"1";"2014-10-13 14:26:16.425";"2014-10-13 14:39:16.846";"1";"0";"0";"169";"168";"module.devaluation_block1.exec-4835.deval1";"6746";"2014-10-13 14:36:50.250";"15";"7";"7";"7";"865";"907";"1948";"2014-10-13 14:36:43.495";"2";;;;;;;;;;;;;;;;;;;;;;;;;;;;;;;;;;;;;;;;;;;;;;;;;;;;;;;;;;;;;;;;;;;;;;;;;;;;;;;;
"C1410978";"1995";;"Windows 7";"Rachel's Experiment (D.T.)";"1.0";"2";"1";"1";"2";"1";"1";"2014-10-13 14:26:16.425";"2014-10-13 14:39:16.846";"1";"0";"0";"170";"169";"module.devaluation_block1.exec-4835.deval1";"6755";"2014-10-13 14:36:57.020";"0";"8";"7";"8";"1318";"960";"1461";"2014-10-13 14:36:50.265";"1";;;;;;;;;;;;;;;;;;;;;;;;;;;;;;;;;;;;;;;;;;;;;;;;;;;;;;;;;;;;;;;;;;;;;;;;;;;;;;;;
"C1410978";"1995";;"Windows 7";"Rachel's Experiment (D.T.)";"1.0";"2";"1";"1";"2";"1";"1";"2014-10-13 14:26:16.425";"2014-10-13 14:39:16.846";"1";"0";"0";"171";"170";"module.devaluation_block1.exec-4835.deval1";"5991";"2014-10-13 14:37:03.042";"19";"8";"8";"9";"1031";"970";"956";"2014-10-13 14:36:57.052";"3";;;;;;;;;;;;;;;;;;;;;;;;;;;;;;;;;;;;;;;;;;;;;;;;;;;;;;;;;;;;;;;;;;;;;;;;;;;;;;;;
"C1410978";"1995";;"Windows 7";"Rachel's Experiment (D.T.)";"1.0";"2";"1";"1";"2";"1";"1";"2014-10-13 14:26:16.425";"2014-10-13 14:39:16.846";"1";"0";"0";"172";"171";"module.devaluation_block1.exec-4835.deval1";"6504";"2014-10-13 14:37:09.563";"16";"8";"8";"8";"1519";"914";"1043";"2014-10-13 14:37:03.058";"2";;;;;;;;;;;;;;;;;;;;;;;;;;;;;;;;;;;;;;;;;;;;;;;;;;;;;;;;;;;;;;;;;;;;;;;;;;;;;;;;
"C1410978";"1995";;"Windows 7";"Rachel's Experiment (D.T.)";"1.0";"2";"1";"1";"2";"1";"1";"2014-10-13 14:26:16.425";"2014-10-13 14:39:16.846";"1";"0";"0";"173";"172";"module.devaluation_block1.exec-4835.deval1";"7579";"2014-10-13 14:37:17.160";"22";"9";"9";"9";"1214";"2275";"1043";"2014-10-13 14:37:09.594";"3";;;;;;;;;;;;;;;;;;;;;;;;;;;;;;;;;;;;;;;;;;;;;;;;;;;;;;;;;;;;;;;;;;;;;;;;;;;;;;;;
"C1410978";"1995";;"Windows 7";"Rachel's Experiment (D.T.)";"1.0";"2";"1";"1";"2";"1";"1";"2014-10-13 14:26:16.425";"2014-10-13 14:39:16.846";"1";"0";"0";"174";"173";"module.devaluation_block1.exec-4835.deval1";"8298";"2014-10-13 14:37:25.491";"7";"7";"7";"7";"1569";"673";"3030";"2014-10-13 14:37:17.191";"1";;;;;;;;;;;;;;;;;;;;;;;;;;;;;;;;;;;;;;;;;;;;;;;;;;;;;;;;;;;;;;;;;;;;;;;;;;;;;;;;
"C1410978";"1995";;"Windows 7";"Rachel's Experiment (D.T.)";"1.0";"2";"1";"1";"2";"1";"1";"2014-10-13 14:26:16.425";"2014-10-13 14:39:16.846";"1";"0";"0";"175";"174";"module.devaluation_block1.exec-4835.deval1";"4843";"2014-10-13 14:37:30.358";"17";"7";"7";"7";"638";"514";"660";"2014-10-13 14:37:25.506";"2";;;;;;;;;;;;;;;;;;;;;;;;;;;;;;;;;;;;;;;;;;;;;;;;;;;;;;;;;;;;;;;;;;;;;;;;;;;;;;;;
"C1410978";"1995";;"Windows 7";"Rachel's Experiment (D.T.)";"1.0";"2";"1";"1";"2";"1";"1";"2014-10-13 14:26:16.425";"2014-10-13 14:39:16.846";"1";"0";"0";"176";"175";"module.devaluation_block1.exec-4835.deval1";"6243";"2014-10-13 14:37:36.614";"20";"4";"4";"5";"995";"1364";"865";"2014-10-13 14:37:30.374";"3";;;;;;;;;;;;;;;;;;;;;;;;;;;;;;;;;;;;;;;;;;;;;;;;;;;;;;;;;;;;;;;;;;;;;;;;;;;;;;;;
"C1410978";"1995";;"Windows 7";"Rachel's Experiment (D.T.)";"1.0";"2";"1";"1";"2";"1";"1";"2014-10-13 14:26:16.425";"2014-10-13 14:39:16.846";"1";"0";"0";"177";"176";"module.devaluation_block1.exec-4835.deval1";"5148";"2014-10-13 14:37:41.778";"1";"6";"6";"5";"1371";"417";"332";"2014-10-13 14:37:36.629";"1";;;;;;;;;;;;;;;;;;;;;;;;;;;;;;;;;;;;;;;;;;;;;;;;;;;;;;;;;;;;;;;;;;;;;;;;;;;;;;;;
"C1410978";"1995";;"Windows 7";"Rachel's Experiment (D.T.)";"1.0";"2";"1";"1";"2";"1";"1";"2014-10-13 14:26:16.425";"2014-10-13 14:39:16.846";"1";"0";"0";"178";"177";"module.devaluation_block1.exec-4835.deval1";"9299";"2014-10-13 14:37:51.107";"9";"7";"6";"7";"1112";"1828";"3315";"2014-10-13 14:37:41.809";"2";;;;;;;;;;;;;;;;;;;;;;;;;;;;;;;;;;;;;;;;;;;;;;;;;;;;;;;;;;;;;;;;;;;;;;;;;;;;;;;;
"C1410978";"1995";;"Windows 7";"Rachel's Experiment (D.T.)";"1.0";"2";"1";"1";"2";"1";"1";"2014-10-13 14:26:16.425";"2014-10-13 14:39:16.846";"1";"0";"0";"179";"178";"module.devaluation_block1.exec-4835.deval1";"5707";"2014-10-13 14:37:56.832";"12";"8";"8";"8";"911";"1004";"763";"2014-10-13 14:37:51.122";"2";;;;;;;;;;;;;;;;;;;;;;;;;;;;;;;;;;;;;;;;;;;;;;;;;;;;;;;;;;;;;;;;;;;;;;;;;;;;;;;;
"C1410978";"1995";;"Windows 7";"Rachel's Experiment (D.T.)";"1.0";"2";"1";"1";"2";"1";"1";"2014-10-13 14:26:16.425";"2014-10-13 14:39:16.846";"1";"0";"0";"180";"179";"module.devaluation_block1.exec-4835.deval1";"10130";"2014-10-13 14:38:06.988";"23";"4";"4";"4";"1393";"3777";"1946";"2014-10-13 14:37:56.847";"3";;;;;;;;;;;;;;;;;;;;;;;;;;;;;;;;;;;;;;;;;;;;;;;;;;;;;;;;;;;;;;;;;;;;;;;;;;;;;;;;
"C1410978";"1995";;"Windows 7";"Rachel's Experiment (D.T.)";"1.0";"2";"1";"1";"2";"1";"1";"2014-10-13 14:26:16.425";"2014-10-13 14:39:16.846";"1";"0";"0";"181";"180";"module.devaluation_block1.exec-4835.deval1";"6138";"2014-10-13 14:38:13.150";"18";"9";"9";"9";"990";"904";"1228";"2014-10-13 14:38:07.003";"3";;;;;;;;;;;;;;;;;;;;;;;;;;;;;;;;;;;;;;;;;;;;;;;;;;;;;;;;;;;;;;;;;;;;;;;;;;;;;;;;
"C1410978";"1995";;"Windows 7";"Rachel's Experiment (D.T.)";"1.0";"2";"1";"1";"2";"1";"1";"2014-10-13 14:26:16.425";"2014-10-13 14:39:16.846";"1";"0";"0";"182";"181";"module.devaluation_block1.exec-4835.deval1";"5435";"2014-10-13 14:38:18.594";"5";"9";"9";"9";"740";"822";"844";"2014-10-13 14:38:13.165";"1";;;;;;;;;;;;;;;;;;;;;;;;;;;;;;;;;;;;;;;;;;;;;;;;;;;;;;;;;;;;;;;;;;;;;;;;;;;;;;;;
"C1410978";"1995";;"Windows 7";"Rachel's Experiment (D.T.)";"1.0";"2";"1";"1";"2";"1";"1";"2014-10-13 14:26:16.425";"2014-10-13 14:39:16.846";"1";"0";"0";"183";"182";"module.devaluation_block1.exec-4835.deval1";"6010";"2014-10-13 14:38:24.632";"4";"9";"8";"9";"1024";"1254";"711";"2014-10-13 14:38:18.625";"1";;;;;;;;;;;;;;;;;;;;;;;;;;;;;;;;;;;;;;;;;;;;;;;;;;;;;;;;;;;;;;;;;;;;;;;;;;;;;;;;
"C1410978";"1995";;"Windows 7";"Rachel's Experiment (D.T.)";"1.0";"2";"1";"1";"2";"1";"1";"2014-10-13 14:26:16.425";"2014-10-13 14:39:16.846";"1";"0";"0";"184";"183";"module.devaluation_block1.exec-4835.deval1";"7986";"2014-10-13 14:38:32.635";"2";"6";"5";"5";"1458";"1384";"2124";"2014-10-13 14:38:24.647";"1";;;;;;;;;;;;;;;;;;;;;;;;;;;;;;;;;;;;;;;;;;;;;;;;;;;;;;;;;;;;;;;;;;;;;;;;;;;;;;;;
"C1410978";"1995";;"Windows 7";"Rachel's Experiment (D.T.)";"1.0";"2";"1";"1";"2";"1";"1";"2014-10-13 14:26:16.425";"2014-10-13 14:39:16.846";"1";"0";"0";"185";"184";"module.devaluation_block1.exec-4835.deval1";"6256";"2014-10-13 14:38:38.921";"10";"6";"5";"6";"1928";"738";"566";"2014-10-13 14:38:32.666";"2";;;;;;;;;;;;;;;;;;;;;;;;;;;;;;;;;;;;;;;;;;;;;;;;;;;;;;;;;;;;;;;;;;;;;;;;;;;;;;;;
"C1410978";"1995";;"Windows 7";"Rachel's Experiment (D.T.)";"1.0";"2";"1";"1";"2";"1";"1";"2014-10-13 14:26:16.425";"2014-10-13 14:39:16.846";"1";"0";"0";"186";"185";"module.devaluation_block1.exec-4835.deval1";"5603";"2014-10-13 14:38:44.538";"24";"4";"5";"4";"800";"293";"1490";"2014-10-13 14:38:38.937";"3";;;;;;;;;;;;;;;;;;;;;;;;;;;;;;;;;;;;;;;;;;;;;;;;;;;;;;;;;;;;;;;;;;;;;;;;;;;;;;;;
"C1410978";"1995";;"Windows 7";"Rachel's Experiment (D.T.)";"1.0";"2";"1";"1";"2";"1";"1";"2014-10-13 14:26:16.425";"2014-10-13 14:39:16.846";"1";"0";"0";"187";"186";"module.devaluation_block1.exec-4835.deval1";"8939";"2014-10-13 14:38:53.508";"25";"6";"6";"8";"713";"2576";"2632";"2014-10-13 14:38:44.569";"3";;;;;;;;;;;;;;;;;;;;;;;;;;;;;;;;;;;;;;;;;;;;;;;;;;;;;;;;;;;;;;;;;;;;;;;;;;;;;;;;
"C1410978";"1995";;"Windows 7";"Rachel's Experiment (D.T.)";"1.0";"2";"1";"1";"2";"1";"1";"2014-10-13 14:26:16.425";"2014-10-13 14:39:16.846";"1";"0";"0";"188";"187";"module.devaluation_block1.exec-4835.deval1";"6452";"2014-10-13 14:38:59.982";"3";"9";"9";"9";"1494";"1014";"921";"2014-10-13 14:38:53.523";"1";;;;;;;;;;;;;;;;;;;;;;;;;;;;;;;;;;;;;;;;;;;;;;;;;;;;;;;;;;;;;;;;;;;;;;;;;;;;;;;;
"C1410978";"1995";;"Windows 7";"Rachel's Experiment (D.T.)";"1.0";"2";"1";"1";"2";"1";"1";"2014-10-13 14:26:16.425";"2014-10-13 14:39:16.846";"1";"0";"0";"189";"188";"module.devaluation_block1.exec-4835.deval1";"7610";"2014-10-13 14:39:07.610";"13";"7";"6";"7";"2068";"1751";"774";"2014-10-13 14:38:59.997";"2";;;;;;;;;;;;;;;;;;;;;;;;;;;;;;;;;;;;;;;;;;;;;;;;;;;;;;;;;;;;;;;;;;;;;;;;;;;;;;;;
"C1410978";"1995";;"Windows 7";"Rachel's Experiment (D.T.)";"1.0";"2";"1";"1";"2";"1";"1";"2014-10-13 14:26:16.425";"2014-10-13 14:39:16.846";"1";"0";"0";"190";"189";"module.devaluation_block1.exec-4835.deval1";"5512";"2014-10-13 14:39:13.149";"21";"8";"8";"8";"1128";"657";"706";"2014-10-13 14:39:07.626";"3";;;;;;;;;;;;;;;;;;;;;;;;;;;;;;;;;;;;;;;;;;;;;;;;;;;;;;;;;;;;;;;;;;;;;;;;;;;;;;;;
