"user.name";"user.yearOfBirth";"user.sex";"user.osName";"module.name";"module.version";"module.online.subject.code";"module.online.study.id";"module.online.module.nr";"module.online.group.nr";"session.id";"session.index";"session.startTime";"session.endTime";"session.completed";"session.node-1969.DevalQorder";"session.node-8158.conditionType";"trial.id";"trial.index";"trial.name";"trial.deval1.durationTime";"trial.deval1.endTime";"trial.deval1.icon";"trial.deval1.Resp_Attractive";"trial.deval1.Resp_Eat";"trial.deval1.Resp_Taste";"trial.deval1.RT_Attractive";"trial.deval1.RT_Eat";"trial.deval1.RT_Taste";"trial.deval1.startTime";"trial.deval1.stimulus type";"trial.devalPractice.durationTime";"trial.devalPractice.endTime";"trial.devalPractice.icon";"trial.devalPractice.Resp_Attractive";"trial.devalPractice.Resp_Eat";"trial.devalPractice.Resp_Taste";"trial.devalPractice.RT_Attractive";"trial.devalPractice.RT_Eat";"trial.devalPractice.RT_Taste";"trial.devalPractice.startTime";"trial.devalPractice.stimulus type";"trial.GoNoGo1.durationTime";"trial.GoNoGo1.endTime";"trial.GoNoGo1.Error Type";"trial.GoNoGo1.icon";"trial.GoNoGo1.location";"trial.GoNoGo1.outcome";"trial.GoNoGo1.response";"trial.GoNoGo1.result";"trial.GoNoGo1.RT";"trial.GoNoGo1.signal";"trial.GoNoGo1.startTime";"trial.GoNoGo1.stimulus type";"trial.GoNoGo2.durationTime";"trial.GoNoGo2.endTime";"trial.GoNoGo2.Error Type";"trial.GoNoGo2.icon";"trial.GoNoGo2.location";"trial.GoNoGo2.outcome";"trial.GoNoGo2.response";"trial.GoNoGo2.result";"trial.GoNoGo2.RT";"trial.GoNoGo2.signal";"trial.GoNoGo2.startTime";"trial.GoNoGo2.stimulus type";"trial.GoNoGo3.durationTime";"trial.GoNoGo3.endTime";"trial.GoNoGo3.Error Type";"trial.GoNoGo3.icon";"trial.GoNoGo3.location";"trial.GoNoGo3.outcome";"trial.GoNoGo3.response";"trial.GoNoGo3.result";"trial.GoNoGo3.RT";"trial.GoNoGo3.signal";"trial.GoNoGo3.startTime";"trial.GoNoGo3.stimulus type";"trial.GoNoGo4.durationTime";"trial.GoNoGo4.endTime";"trial.GoNoGo4.Error Type";"trial.GoNoGo4.icon";"trial.GoNoGo4.location";"trial.GoNoGo4.outcome";"trial.GoNoGo4.response";"trial.GoNoGo4.result";"trial.GoNoGo4.RT";"trial.GoNoGo4.signal";"trial.GoNoGo4.startTime";"trial.GoNoGo4.stimulus type";"trial.GoNoGo_Practice.durationTime";"trial.GoNoGo_Practice.endTime";"trial.GoNoGo_Practice.icon";"trial.GoNoGo_Practice.location";"trial.GoNoGo_Practice.outcome";"trial.GoNoGo_Practice.response";"trial.GoNoGo_Practice.result";"trial.GoNoGo_Practice.RT";"trial.GoNoGo_Practice.signal";"trial.GoNoGo_Practice.startTime";"trial.GoNoGo_Practice.stimulus type";"trial.GoNoGo_Tutorial.durationTime";"trial.GoNoGo_Tutorial.endTime";"trial.GoNoGo_Tutorial.icon";"trial.GoNoGo_Tutorial.location";"trial.GoNoGo_Tutorial.outcome";"trial.GoNoGo_Tutorial.response";"trial.GoNoGo_Tutorial.result";"trial.GoNoGo_Tutorial.RT";"trial.GoNoGo_Tutorial.signal";"trial.GoNoGo_Tutorial.startTime"
"yellow15";"1995";;"Windows 8";"Rachel's Experiment (D.T.)";"1.0";"2";"1";"1";"2";"1";"1";"2014-10-15 16:37:12.849";"2014-10-15 16:51:39.346";"1";"1";"1";"1";"0";"module.GoNoGotutorial.exec-9525.GoNoGo_Tutorial";;;;;;;;;;;;;;;;;;;;;;;;;;;;;;;;;;;;;;;;;;;;;;;;;;;;;;;;;;;;;;;;;;;;;;;;;;;;;;;;;;"3999";"2014-10-15 16:38:09.943";"leftResponse";"0";"FINISHED";"LEFT";"success";"1719";"0";"2014-10-15 16:38:05.937"
"yellow15";"1995";;"Windows 8";"Rachel's Experiment (D.T.)";"1.0";"2";"1";"1";"2";"1";"1";"2014-10-15 16:37:12.849";"2014-10-15 16:51:39.346";"1";"1";"1";"2";"1";"module.GoNoGotutorial.exec-9525.GoNoGo_Tutorial";;;;;;;;;;;;;;;;;;;;;;;;;;;;;;;;;;;;;;;;;;;;;;;;;;;;;;;;;;;;;;;;;;;;;;;;;;;;;;;;;;"3987";"2014-10-15 16:38:15.265";"rightResponse";"1";"FINISHED";"RIGHT";"success";"1158";"0";"2014-10-15 16:38:11.263"
"yellow15";"1995";;"Windows 8";"Rachel's Experiment (D.T.)";"1.0";"2";"1";"1";"2";"1";"1";"2014-10-15 16:37:12.849";"2014-10-15 16:51:39.346";"1";"1";"1";"3";"2";"module.GoNoGotutorial.exec-9525.GoNoGo_Tutorial";;;;;;;;;;;;;;;;;;;;;;;;;;;;;;;;;;;;;;;;;;;;;;;;;;;;;;;;;;;;;;;;;;;;;;;;;;;;;;;;;;"3993";"2014-10-15 16:38:20.574";"signalResponse";"0";"FINISHED";"NONE";"success";"0";"1";"2014-10-15 16:38:16.566"
"yellow15";"1995";;"Windows 8";"Rachel's Experiment (D.T.)";"1.0";"2";"1";"1";"2";"1";"1";"2014-10-15 16:37:12.849";"2014-10-15 16:51:39.346";"1";"1";"1";"4";"3";"module.GoNoGopractice.exec-2161.GoNoGo_Practice";;;;;;;;;;;;;;;;;;;;;;;;;;;;;;;;;;;;;;;;;;;;;;;;;;;;;;;;;;;;;;;;;;;;;;;"1957";"2014-10-15 16:38:28.729";"18";"0";"FINISHED";"LEFT";"success";"391";"0";"2014-10-15 16:38:26.771";"3";;;;;;;;;;
"yellow15";"1995";;"Windows 8";"Rachel's Experiment (D.T.)";"1.0";"2";"1";"1";"2";"1";"1";"2014-10-15 16:37:12.849";"2014-10-15 16:51:39.346";"1";"1";"1";"5";"4";"module.GoNoGopractice.exec-2161.GoNoGo_Practice";;;;;;;;;;;;;;;;;;;;;;;;;;;;;;;;;;;;;;;;;;;;;;;;;;;;;;;;;;;;;;;;;;;;;;;"1949";"2014-10-15 16:38:32.000";"21";"1";"FINISHED";"RIGHT";"success";"447";"0";"2014-10-15 16:38:30.047";"3";;;;;;;;;;
"yellow15";"1995";;"Windows 8";"Rachel's Experiment (D.T.)";"1.0";"2";"1";"1";"2";"1";"1";"2014-10-15 16:37:12.849";"2014-10-15 16:51:39.346";"1";"1";"1";"6";"5";"module.GoNoGopractice.exec-2161.GoNoGo_Practice";;;;;;;;;;;;;;;;;;;;;;;;;;;;;;;;;;;;;;;;;;;;;;;;;;;;;;;;;;;;;;;;;;;;;;;"1969";"2014-10-15 16:38:35.289";"14";"1";"FINISHED";"NONE";"success";"0";"1";"2014-10-15 16:38:33.305";"2";;;;;;;;;;
"yellow15";"1995";;"Windows 8";"Rachel's Experiment (D.T.)";"1.0";"2";"1";"1";"2";"1";"1";"2014-10-15 16:37:12.849";"2014-10-15 16:51:39.346";"1";"1";"1";"7";"6";"module.GoNoGopractice.exec-2161.GoNoGo_Practice";;;;;;;;;;;;;;;;;;;;;;;;;;;;;;;;;;;;;;;;;;;;;;;;;;;;;;;;;;;;;;;;;;;;;;;"1955";"2014-10-15 16:38:38.557";"26";"0";"FINISHED";"LEFT";"success";"565";"0";"2014-10-15 16:38:36.602";"3";;;;;;;;;;
"yellow15";"1995";;"Windows 8";"Rachel's Experiment (D.T.)";"1.0";"2";"1";"1";"2";"1";"1";"2014-10-15 16:37:12.849";"2014-10-15 16:51:39.346";"1";"1";"1";"8";"7";"module.GoNoGopractice.exec-2161.GoNoGo_Practice";;;;;;;;;;;;;;;;;;;;;;;;;;;;;;;;;;;;;;;;;;;;;;;;;;;;;;;;;;;;;;;;;;;;;;;"1959";"2014-10-15 16:38:41.830";"2";"0";"FINISHED";"LEFT";"success";"491";"0";"2014-10-15 16:38:39.871";"1";;;;;;;;;;
"yellow15";"1995";;"Windows 8";"Rachel's Experiment (D.T.)";"1.0";"2";"1";"1";"2";"1";"1";"2014-10-15 16:37:12.849";"2014-10-15 16:51:39.346";"1";"1";"1";"9";"8";"module.GoNoGopractice.exec-2161.GoNoGo_Practice";;;;;;;;;;;;;;;;;;;;;;;;;;;;;;;;;;;;;;;;;;;;;;;;;;;;;;;;;;;;;;;;;;;;;;;"1942";"2014-10-15 16:38:45.090";"30";"0";"FINISHED";"LEFT";"failure";"512";"1";"2014-10-15 16:38:43.133";"3";;;;;;;;;;
"yellow15";"1995";;"Windows 8";"Rachel's Experiment (D.T.)";"1.0";"2";"1";"1";"2";"1";"1";"2014-10-15 16:37:12.849";"2014-10-15 16:51:39.346";"1";"1";"1";"10";"9";"module.GoNoGopractice.exec-2161.GoNoGo_Practice";;;;;;;;;;;;;;;;;;;;;;;;;;;;;;;;;;;;;;;;;;;;;;;;;;;;;;;;;;;;;;;;;;;;;;;"1959";"2014-10-15 16:38:48.373";"6";"1";"FINISHED";"NONE";"success";"0";"1";"2014-10-15 16:38:46.412";"1";;;;;;;;;;
"yellow15";"1995";;"Windows 8";"Rachel's Experiment (D.T.)";"1.0";"2";"1";"1";"2";"1";"1";"2014-10-15 16:37:12.849";"2014-10-15 16:51:39.346";"1";"1";"1";"11";"10";"module.GoNoGopractice.exec-2161.GoNoGo_Practice";;;;;;;;;;;;;;;;;;;;;;;;;;;;;;;;;;;;;;;;;;;;;;;;;;;;;;;;;;;;;;;;;;;;;;;"1940";"2014-10-15 16:38:51.653";"34";"0";"FINISHED";"LEFT";"success";"624";"0";"2014-10-15 16:38:49.698";"3";;;;;;;;;;
"yellow15";"1995";;"Windows 8";"Rachel's Experiment (D.T.)";"1.0";"2";"1";"1";"2";"1";"1";"2014-10-15 16:37:12.849";"2014-10-15 16:51:39.346";"1";"1";"1";"12";"11";"module.GoNoGopractice.exec-2161.GoNoGo_Practice";;;;;;;;;;;;;;;;;;;;;;;;;;;;;;;;;;;;;;;;;;;;;;;;;;;;;;;;;;;;;;;;;;;;;;;"1960";"2014-10-15 16:38:54.931";"23";"1";"FINISHED";"RIGHT";"success";"772";"0";"2014-10-15 16:38:52.970";"3";;;;;;;;;;
"yellow15";"1995";;"Windows 8";"Rachel's Experiment (D.T.)";"1.0";"2";"1";"1";"2";"1";"1";"2014-10-15 16:37:12.849";"2014-10-15 16:51:39.346";"1";"1";"1";"13";"12";"module.GoNoGopractice.exec-2161.GoNoGo_Practice";;;;;;;;;;;;;;;;;;;;;;;;;;;;;;;;;;;;;;;;;;;;;;;;;;;;;;;;;;;;;;;;;;;;;;;"1960";"2014-10-15 16:38:58.216";"13";"0";"FINISHED";"NONE";"success";"0";"1";"2014-10-15 16:38:56.255";"2";;;;;;;;;;
"yellow15";"1995";;"Windows 8";"Rachel's Experiment (D.T.)";"1.0";"2";"1";"1";"2";"1";"1";"2014-10-15 16:37:12.849";"2014-10-15 16:51:39.346";"1";"1";"1";"14";"13";"module.GoNoGopractice.exec-2161.GoNoGo_Practice";;;;;;;;;;;;;;;;;;;;;;;;;;;;;;;;;;;;;;;;;;;;;;;;;;;;;;;;;;;;;;;;;;;;;;;"1951";"2014-10-15 16:39:01.491";"3";"1";"FINISHED";"RIGHT";"success";"414";"0";"2014-10-15 16:38:59.525";"1";;;;;;;;;;
"yellow15";"1995";;"Windows 8";"Rachel's Experiment (D.T.)";"1.0";"2";"1";"1";"2";"1";"1";"2014-10-15 16:37:12.849";"2014-10-15 16:51:39.346";"1";"1";"1";"15";"14";"module.GoNoGopractice.exec-2161.GoNoGo_Practice";;;;;;;;;;;;;;;;;;;;;;;;;;;;;;;;;;;;;;;;;;;;;;;;;;;;;;;;;;;;;;;;;;;;;;;"1954";"2014-10-15 16:39:04.773";"27";"1";"FINISHED";"NONE";"success";"0";"1";"2014-10-15 16:39:02.816";"3";;;;;;;;;;
"yellow15";"1995";;"Windows 8";"Rachel's Experiment (D.T.)";"1.0";"2";"1";"1";"2";"1";"1";"2014-10-15 16:37:12.849";"2014-10-15 16:51:39.346";"1";"1";"1";"16";"15";"module.training_block1.exec-6813.GoNoGo1";;;;;;;;;;;;;;;;;;;;;;;"1257";"2014-10-15 16:39:33.250";"ST_correctStop";"29";"0";"FINISHED";"NONE";"success";"0";"1";"2014-10-15 16:39:31.989";"3";;;;;;;;;;;;;;;;;;;;;;;;;;;;;;;;;;;;;;;;;;;;;;;;;;;;;;;;;
"yellow15";"1995";;"Windows 8";"Rachel's Experiment (D.T.)";"1.0";"2";"1";"1";"2";"1";"1";"2014-10-15 16:37:12.849";"2014-10-15 16:51:39.346";"1";"1";"1";"17";"16";"module.training_block1.exec-6813.GoNoGo1";;;;;;;;;;;;;;;;;;;;;;;"1254";"2014-10-15 16:39:35.819";"NST_correctLoc";"19";"1";"FINISHED";"RIGHT";"success";"507";"0";"2014-10-15 16:39:34.562";"3";;;;;;;;;;;;;;;;;;;;;;;;;;;;;;;;;;;;;;;;;;;;;;;;;;;;;;;;;
"yellow15";"1995";;"Windows 8";"Rachel's Experiment (D.T.)";"1.0";"2";"1";"1";"2";"1";"1";"2014-10-15 16:37:12.849";"2014-10-15 16:51:39.346";"1";"1";"1";"18";"17";"module.training_block1.exec-6813.GoNoGo1";;;;;;;;;;;;;;;;;;;;;;;"1260";"2014-10-15 16:39:38.401";"ST_correctStop";"4";"0";"FINISHED";"NONE";"success";"0";"1";"2014-10-15 16:39:37.138";"1";;;;;;;;;;;;;;;;;;;;;;;;;;;;;;;;;;;;;;;;;;;;;;;;;;;;;;;;;
"yellow15";"1995";;"Windows 8";"Rachel's Experiment (D.T.)";"1.0";"2";"1";"1";"2";"1";"1";"2014-10-15 16:37:12.849";"2014-10-15 16:51:39.346";"1";"1";"1";"19";"18";"module.training_block1.exec-6813.GoNoGo1";;;;;;;;;;;;;;;;;;;;;;;"1250";"2014-10-15 16:39:40.968";"NST_correctLoc";"17";"0";"FINISHED";"LEFT";"success";"526";"0";"2014-10-15 16:39:39.714";"2";;;;;;;;;;;;;;;;;;;;;;;;;;;;;;;;;;;;;;;;;;;;;;;;;;;;;;;;;
"yellow15";"1995";;"Windows 8";"Rachel's Experiment (D.T.)";"1.0";"2";"1";"1";"2";"1";"1";"2014-10-15 16:37:12.849";"2014-10-15 16:51:39.346";"1";"1";"1";"20";"19";"module.training_block1.exec-6813.GoNoGo1";;;;;;;;;;;;;;;;;;;;;;;"1244";"2014-10-15 16:39:43.546";"ST_correctStop";"7";"1";"FINISHED";"NONE";"success";"0";"1";"2014-10-15 16:39:42.296";"1";;;;;;;;;;;;;;;;;;;;;;;;;;;;;;;;;;;;;;;;;;;;;;;;;;;;;;;;;
"yellow15";"1995";;"Windows 8";"Rachel's Experiment (D.T.)";"1.0";"2";"1";"1";"2";"1";"1";"2014-10-15 16:37:12.849";"2014-10-15 16:51:39.346";"1";"1";"1";"21";"20";"module.training_block1.exec-6813.GoNoGo1";;;;;;;;;;;;;;;;;;;;;;;"1235";"2014-10-15 16:39:46.109";"ST_correctStop";"25";"1";"FINISHED";"NONE";"success";"0";"1";"2014-10-15 16:39:44.859";"3";;;;;;;;;;;;;;;;;;;;;;;;;;;;;;;;;;;;;;;;;;;;;;;;;;;;;;;;;
"yellow15";"1995";;"Windows 8";"Rachel's Experiment (D.T.)";"1.0";"2";"1";"1";"2";"1";"1";"2014-10-15 16:37:12.849";"2014-10-15 16:51:39.346";"1";"1";"1";"22";"21";"module.training_block1.exec-6813.GoNoGo1";;;;;;;;;;;;;;;;;;;;;;;"1248";"2014-10-15 16:39:48.659";"ST_correctStop";"21";"0";"FINISHED";"NONE";"success";"0";"1";"2014-10-15 16:39:47.409";"3";;;;;;;;;;;;;;;;;;;;;;;;;;;;;;;;;;;;;;;;;;;;;;;;;;;;;;;;;
"yellow15";"1995";;"Windows 8";"Rachel's Experiment (D.T.)";"1.0";"2";"1";"1";"2";"1";"1";"2014-10-15 16:37:12.849";"2014-10-15 16:51:39.346";"1";"1";"1";"23";"22";"module.training_block1.exec-6813.GoNoGo1";;;;;;;;;;;;;;;;;;;;;;;"1246";"2014-10-15 16:39:51.175";"ST_correctStop";"3";"0";"FINISHED";"NONE";"success";"0";"1";"2014-10-15 16:39:49.925";"1";;;;;;;;;;;;;;;;;;;;;;;;;;;;;;;;;;;;;;;;;;;;;;;;;;;;;;;;;
"yellow15";"1995";;"Windows 8";"Rachel's Experiment (D.T.)";"1.0";"2";"1";"1";"2";"1";"1";"2014-10-15 16:37:12.849";"2014-10-15 16:51:39.346";"1";"1";"1";"24";"23";"module.training_block1.exec-6813.GoNoGo1";;;;;;;;;;;;;;;;;;;;;;;"1246";"2014-10-15 16:39:53.691";"NST_correctLoc";"13";"0";"FINISHED";"LEFT";"success";"516";"0";"2014-10-15 16:39:52.441";"2";;;;;;;;;;;;;;;;;;;;;;;;;;;;;;;;;;;;;;;;;;;;;;;;;;;;;;;;;
"yellow15";"1995";;"Windows 8";"Rachel's Experiment (D.T.)";"1.0";"2";"1";"1";"2";"1";"1";"2014-10-15 16:37:12.849";"2014-10-15 16:51:39.346";"1";"1";"1";"25";"24";"module.training_block1.exec-6813.GoNoGo1";;;;;;;;;;;;;;;;;;;;;;;"1240";"2014-10-15 16:39:56.238";"ST_correctStop";"20";"0";"FINISHED";"NONE";"success";"0";"1";"2014-10-15 16:39:54.988";"3";;;;;;;;;;;;;;;;;;;;;;;;;;;;;;;;;;;;;;;;;;;;;;;;;;;;;;;;;
"yellow15";"1995";;"Windows 8";"Rachel's Experiment (D.T.)";"1.0";"2";"1";"1";"2";"1";"1";"2014-10-15 16:37:12.849";"2014-10-15 16:51:39.346";"1";"1";"1";"26";"25";"module.training_block1.exec-6813.GoNoGo1";;;;;;;;;;;;;;;;;;;;;;;"1244";"2014-10-15 16:39:58.754";"NST_correctLoc";"14";"0";"FINISHED";"LEFT";"success";"648";"0";"2014-10-15 16:39:57.504";"2";;;;;;;;;;;;;;;;;;;;;;;;;;;;;;;;;;;;;;;;;;;;;;;;;;;;;;;;;
"yellow15";"1995";;"Windows 8";"Rachel's Experiment (D.T.)";"1.0";"2";"1";"1";"2";"1";"1";"2014-10-15 16:37:12.849";"2014-10-15 16:51:39.346";"1";"1";"1";"27";"26";"module.training_block1.exec-6813.GoNoGo1";;;;;;;;;;;;;;;;;;;;;;;"1248";"2014-10-15 16:40:01.316";"ST_correctStop";"32";"0";"FINISHED";"NONE";"success";"0";"1";"2014-10-15 16:40:00.066";"3";;;;;;;;;;;;;;;;;;;;;;;;;;;;;;;;;;;;;;;;;;;;;;;;;;;;;;;;;
"yellow15";"1995";;"Windows 8";"Rachel's Experiment (D.T.)";"1.0";"2";"1";"1";"2";"1";"1";"2014-10-15 16:37:12.849";"2014-10-15 16:51:39.346";"1";"1";"1";"28";"27";"module.training_block1.exec-6813.GoNoGo1";;;;;;;;;;;;;;;;;;;;;;;"1243";"2014-10-15 16:40:03.863";"ST_correctStop";"6";"0";"FINISHED";"NONE";"success";"0";"1";"2014-10-15 16:40:02.613";"1";;;;;;;;;;;;;;;;;;;;;;;;;;;;;;;;;;;;;;;;;;;;;;;;;;;;;;;;;
"yellow15";"1995";;"Windows 8";"Rachel's Experiment (D.T.)";"1.0";"2";"1";"1";"2";"1";"1";"2014-10-15 16:37:12.849";"2014-10-15 16:51:39.346";"1";"1";"1";"29";"28";"module.training_block1.exec-6813.GoNoGo1";;;;;;;;;;;;;;;;;;;;;;;"1249";"2014-10-15 16:40:06.426";"ST_correctStop";"1";"0";"FINISHED";"NONE";"success";"0";"1";"2014-10-15 16:40:05.176";"1";;;;;;;;;;;;;;;;;;;;;;;;;;;;;;;;;;;;;;;;;;;;;;;;;;;;;;;;;
"yellow15";"1995";;"Windows 8";"Rachel's Experiment (D.T.)";"1.0";"2";"1";"1";"2";"1";"1";"2014-10-15 16:37:12.849";"2014-10-15 16:51:39.346";"1";"1";"1";"30";"29";"module.training_block1.exec-6813.GoNoGo1";;;;;;;;;;;;;;;;;;;;;;;"1250";"2014-10-15 16:40:08.972";"ST_correctStop";"24";"0";"FINISHED";"NONE";"success";"0";"1";"2014-10-15 16:40:07.707";"3";;;;;;;;;;;;;;;;;;;;;;;;;;;;;;;;;;;;;;;;;;;;;;;;;;;;;;;;;
"yellow15";"1995";;"Windows 8";"Rachel's Experiment (D.T.)";"1.0";"2";"1";"1";"2";"1";"1";"2014-10-15 16:37:12.849";"2014-10-15 16:51:39.346";"1";"1";"1";"31";"30";"module.training_block1.exec-6813.GoNoGo1";;;;;;;;;;;;;;;;;;;;;;;"1252";"2014-10-15 16:40:11.540";"NST_correctLoc";"33";"0";"FINISHED";"LEFT";"success";"568";"0";"2014-10-15 16:40:10.280";"3";;;;;;;;;;;;;;;;;;;;;;;;;;;;;;;;;;;;;;;;;;;;;;;;;;;;;;;;;
"yellow15";"1995";;"Windows 8";"Rachel's Experiment (D.T.)";"1.0";"2";"1";"1";"2";"1";"1";"2014-10-15 16:37:12.849";"2014-10-15 16:51:39.346";"1";"1";"1";"32";"31";"module.training_block1.exec-6813.GoNoGo1";;;;;;;;;;;;;;;;;;;;;;;"1237";"2014-10-15 16:40:14.087";"NST_correctLoc";"35";"0";"FINISHED";"LEFT";"success";"488";"0";"2014-10-15 16:40:12.836";"3";;;;;;;;;;;;;;;;;;;;;;;;;;;;;;;;;;;;;;;;;;;;;;;;;;;;;;;;;
"yellow15";"1995";;"Windows 8";"Rachel's Experiment (D.T.)";"1.0";"2";"1";"1";"2";"1";"1";"2014-10-15 16:37:12.849";"2014-10-15 16:51:39.346";"1";"1";"1";"33";"32";"module.training_block1.exec-6813.GoNoGo1";;;;;;;;;;;;;;;;;;;;;;;"1236";"2014-10-15 16:40:16.619";"NST_correctLoc";"16";"0";"FINISHED";"LEFT";"success";"504";"0";"2014-10-15 16:40:15.369";"2";;;;;;;;;;;;;;;;;;;;;;;;;;;;;;;;;;;;;;;;;;;;;;;;;;;;;;;;;
"yellow15";"1995";;"Windows 8";"Rachel's Experiment (D.T.)";"1.0";"2";"1";"1";"2";"1";"1";"2014-10-15 16:37:12.849";"2014-10-15 16:51:39.346";"1";"1";"1";"34";"33";"module.training_block1.exec-6813.GoNoGo1";;;;;;;;;;;;;;;;;;;;;;;"1236";"2014-10-15 16:40:19.150";"NST_correctLoc";"11";"1";"FINISHED";"RIGHT";"success";"529";"0";"2014-10-15 16:40:17.900";"2";;;;;;;;;;;;;;;;;;;;;;;;;;;;;;;;;;;;;;;;;;;;;;;;;;;;;;;;;
"yellow15";"1995";;"Windows 8";"Rachel's Experiment (D.T.)";"1.0";"2";"1";"1";"2";"1";"1";"2014-10-15 16:37:12.849";"2014-10-15 16:51:39.346";"1";"1";"1";"35";"34";"module.training_block1.exec-6813.GoNoGo1";;;;;;;;;;;;;;;;;;;;;;;"1244";"2014-10-15 16:40:21.697";"ST_correctStop";"34";"0";"FINISHED";"NONE";"success";"0";"1";"2014-10-15 16:40:20.447";"3";;;;;;;;;;;;;;;;;;;;;;;;;;;;;;;;;;;;;;;;;;;;;;;;;;;;;;;;;
"yellow15";"1995";;"Windows 8";"Rachel's Experiment (D.T.)";"1.0";"2";"1";"1";"2";"1";"1";"2014-10-15 16:37:12.849";"2014-10-15 16:51:39.346";"1";"1";"1";"36";"35";"module.training_block1.exec-6813.GoNoGo1";;;;;;;;;;;;;;;;;;;;;;;"1244";"2014-10-15 16:40:24.244";"NST_correctLoc";"23";"0";"FINISHED";"LEFT";"success";"534";"0";"2014-10-15 16:40:22.994";"3";;;;;;;;;;;;;;;;;;;;;;;;;;;;;;;;;;;;;;;;;;;;;;;;;;;;;;;;;
"yellow15";"1995";;"Windows 8";"Rachel's Experiment (D.T.)";"1.0";"2";"1";"1";"2";"1";"1";"2014-10-15 16:37:12.849";"2014-10-15 16:51:39.346";"1";"1";"1";"37";"36";"module.training_block1.exec-6813.GoNoGo1";;;;;;;;;;;;;;;;;;;;;;;"1235";"2014-10-15 16:40:26.791";"NST_correctLoc";"9";"0";"FINISHED";"LEFT";"success";"583";"0";"2014-10-15 16:40:25.541";"2";;;;;;;;;;;;;;;;;;;;;;;;;;;;;;;;;;;;;;;;;;;;;;;;;;;;;;;;;
"yellow15";"1995";;"Windows 8";"Rachel's Experiment (D.T.)";"1.0";"2";"1";"1";"2";"1";"1";"2014-10-15 16:37:12.849";"2014-10-15 16:51:39.346";"1";"1";"1";"38";"37";"module.training_block1.exec-6813.GoNoGo1";;;;;;;;;;;;;;;;;;;;;;;"1244";"2014-10-15 16:40:29.340";"ST_correctStop";"2";"1";"FINISHED";"NONE";"success";"0";"1";"2014-10-15 16:40:28.090";"1";;;;;;;;;;;;;;;;;;;;;;;;;;;;;;;;;;;;;;;;;;;;;;;;;;;;;;;;;
"yellow15";"1995";;"Windows 8";"Rachel's Experiment (D.T.)";"1.0";"2";"1";"1";"2";"1";"1";"2014-10-15 16:37:12.849";"2014-10-15 16:51:39.346";"1";"1";"1";"39";"38";"module.training_block1.exec-6813.GoNoGo1";;;;;;;;;;;;;;;;;;;;;;;"1246";"2014-10-15 16:40:31.873";"NST_correctLoc";"26";"0";"FINISHED";"LEFT";"success";"565";"0";"2014-10-15 16:40:30.621";"3";;;;;;;;;;;;;;;;;;;;;;;;;;;;;;;;;;;;;;;;;;;;;;;;;;;;;;;;;
"yellow15";"1995";;"Windows 8";"Rachel's Experiment (D.T.)";"1.0";"2";"1";"1";"2";"1";"1";"2014-10-15 16:37:12.849";"2014-10-15 16:51:39.346";"1";"1";"1";"40";"39";"module.training_block1.exec-6813.GoNoGo1";;;;;;;;;;;;;;;;;;;;;;;"1243";"2014-10-15 16:40:34.421";"ST_correctStop";"18";"0";"FINISHED";"NONE";"success";"0";"1";"2014-10-15 16:40:33.171";"3";;;;;;;;;;;;;;;;;;;;;;;;;;;;;;;;;;;;;;;;;;;;;;;;;;;;;;;;;
"yellow15";"1995";;"Windows 8";"Rachel's Experiment (D.T.)";"1.0";"2";"1";"1";"2";"1";"1";"2014-10-15 16:37:12.849";"2014-10-15 16:51:39.346";"1";"1";"1";"41";"40";"module.training_block1.exec-6813.GoNoGo1";;;;;;;;;;;;;;;;;;;;;;;"1250";"2014-10-15 16:40:36.980";"NST_correctLoc";"10";"1";"FINISHED";"RIGHT";"success";"627";"0";"2014-10-15 16:40:35.727";"2";;;;;;;;;;;;;;;;;;;;;;;;;;;;;;;;;;;;;;;;;;;;;;;;;;;;;;;;;
"yellow15";"1995";;"Windows 8";"Rachel's Experiment (D.T.)";"1.0";"2";"1";"1";"2";"1";"1";"2014-10-15 16:37:12.849";"2014-10-15 16:51:39.346";"1";"1";"1";"42";"41";"module.training_block1.exec-6813.GoNoGo1";;;;;;;;;;;;;;;;;;;;;;;"1236";"2014-10-15 16:40:39.528";"ST_correctStop";"5";"0";"FINISHED";"NONE";"success";"0";"1";"2014-10-15 16:40:38.278";"1";;;;;;;;;;;;;;;;;;;;;;;;;;;;;;;;;;;;;;;;;;;;;;;;;;;;;;;;;
"yellow15";"1995";;"Windows 8";"Rachel's Experiment (D.T.)";"1.0";"2";"1";"1";"2";"1";"1";"2014-10-15 16:37:12.849";"2014-10-15 16:51:39.346";"1";"1";"1";"43";"42";"module.training_block1.exec-6813.GoNoGo1";;;;;;;;;;;;;;;;;;;;;;;"1240";"2014-10-15 16:40:42.068";"NST_correctLoc";"15";"0";"FINISHED";"LEFT";"success";"515";"0";"2014-10-15 16:40:40.814";"2";;;;;;;;;;;;;;;;;;;;;;;;;;;;;;;;;;;;;;;;;;;;;;;;;;;;;;;;;
"yellow15";"1995";;"Windows 8";"Rachel's Experiment (D.T.)";"1.0";"2";"1";"1";"2";"1";"1";"2014-10-15 16:37:12.849";"2014-10-15 16:51:39.346";"1";"1";"1";"44";"43";"module.training_block1.exec-6813.GoNoGo1";;;;;;;;;;;;;;;;;;;;;;;"1245";"2014-10-15 16:40:44.612";"ST_correctStop";"30";"0";"FINISHED";"NONE";"success";"0";"1";"2014-10-15 16:40:43.361";"3";;;;;;;;;;;;;;;;;;;;;;;;;;;;;;;;;;;;;;;;;;;;;;;;;;;;;;;;;
"yellow15";"1995";;"Windows 8";"Rachel's Experiment (D.T.)";"1.0";"2";"1";"1";"2";"1";"1";"2014-10-15 16:37:12.849";"2014-10-15 16:51:39.346";"1";"1";"1";"45";"44";"module.training_block1.exec-6813.GoNoGo1";;;;;;;;;;;;;;;;;;;;;;;"1256";"2014-10-15 16:40:47.171";"NST_correctLoc";"27";"0";"FINISHED";"LEFT";"success";"703";"0";"2014-10-15 16:40:45.909";"3";;;;;;;;;;;;;;;;;;;;;;;;;;;;;;;;;;;;;;;;;;;;;;;;;;;;;;;;;
"yellow15";"1995";;"Windows 8";"Rachel's Experiment (D.T.)";"1.0";"2";"1";"1";"2";"1";"1";"2014-10-15 16:37:12.849";"2014-10-15 16:51:39.346";"1";"1";"1";"46";"45";"module.training_block1.exec-6813.GoNoGo1";;;;;;;;;;;;;;;;;;;;;;;"1236";"2014-10-15 16:40:49.727";"ST_correctStop";"0";"1";"FINISHED";"NONE";"success";"0";"1";"2014-10-15 16:40:48.475";"1";;;;;;;;;;;;;;;;;;;;;;;;;;;;;;;;;;;;;;;;;;;;;;;;;;;;;;;;;
"yellow15";"1995";;"Windows 8";"Rachel's Experiment (D.T.)";"1.0";"2";"1";"1";"2";"1";"1";"2014-10-15 16:37:12.849";"2014-10-15 16:51:39.346";"1";"1";"1";"47";"46";"module.training_block1.exec-6813.GoNoGo1";;;;;;;;;;;;;;;;;;;;;;;"1236";"2014-10-15 16:40:52.274";"NST_correctLoc";"28";"0";"FINISHED";"LEFT";"success";"757";"0";"2014-10-15 16:40:51.024";"3";;;;;;;;;;;;;;;;;;;;;;;;;;;;;;;;;;;;;;;;;;;;;;;;;;;;;;;;;
"yellow15";"1995";;"Windows 8";"Rachel's Experiment (D.T.)";"1.0";"2";"1";"1";"2";"1";"1";"2014-10-15 16:37:12.849";"2014-10-15 16:51:39.346";"1";"1";"1";"48";"47";"module.training_block1.exec-6813.GoNoGo1";;;;;;;;;;;;;;;;;;;;;;;"1236";"2014-10-15 16:40:54.805";"ST_correctStop";"8";"1";"FINISHED";"NONE";"success";"0";"1";"2014-10-15 16:40:53.555";"1";;;;;;;;;;;;;;;;;;;;;;;;;;;;;;;;;;;;;;;;;;;;;;;;;;;;;;;;;
"yellow15";"1995";;"Windows 8";"Rachel's Experiment (D.T.)";"1.0";"2";"1";"1";"2";"1";"1";"2014-10-15 16:37:12.849";"2014-10-15 16:51:39.346";"1";"1";"1";"49";"48";"module.training_block1.exec-6813.GoNoGo1";;;;;;;;;;;;;;;;;;;;;;;"1245";"2014-10-15 16:40:57.373";"NST_correctLoc";"12";"1";"FINISHED";"RIGHT";"success";"552";"0";"2014-10-15 16:40:56.115";"2";;;;;;;;;;;;;;;;;;;;;;;;;;;;;;;;;;;;;;;;;;;;;;;;;;;;;;;;;
"yellow15";"1995";;"Windows 8";"Rachel's Experiment (D.T.)";"1.0";"2";"1";"1";"2";"1";"1";"2014-10-15 16:37:12.849";"2014-10-15 16:51:39.346";"1";"1";"1";"50";"49";"module.training_block1.exec-6813.GoNoGo1";;;;;;;;;;;;;;;;;;;;;;;"1237";"2014-10-15 16:40:59.924";"NST_correctLoc";"31";"1";"FINISHED";"RIGHT";"success";"529";"0";"2014-10-15 16:40:58.672";"3";;;;;;;;;;;;;;;;;;;;;;;;;;;;;;;;;;;;;;;;;;;;;;;;;;;;;;;;;
"yellow15";"1995";;"Windows 8";"Rachel's Experiment (D.T.)";"1.0";"2";"1";"1";"2";"1";"1";"2014-10-15 16:37:12.849";"2014-10-15 16:51:39.346";"1";"1";"1";"51";"50";"module.training_block1.exec-6813.GoNoGo1";;;;;;;;;;;;;;;;;;;;;;;"1244";"2014-10-15 16:41:02.474";"NST_correctLoc";"22";"0";"FINISHED";"LEFT";"success";"473";"0";"2014-10-15 16:41:01.224";"3";;;;;;;;;;;;;;;;;;;;;;;;;;;;;;;;;;;;;;;;;;;;;;;;;;;;;;;;;
"yellow15";"1995";;"Windows 8";"Rachel's Experiment (D.T.)";"1.0";"2";"1";"1";"2";"1";"1";"2014-10-15 16:37:12.849";"2014-10-15 16:51:39.346";"1";"1";"1";"52";"51";"module.training_block2.exec-8379.GoNoGo2";;;;;;;;;;;;;;;;;;;;;;;;;;;;;;;;;;;"1244";"2014-10-15 16:41:22.660";"NST_correctLoc";"17";"0";"FINISHED";"LEFT";"success";"440";"0";"2014-10-15 16:41:21.409";"2";;;;;;;;;;;;;;;;;;;;;;;;;;;;;;;;;;;;;;;;;;;;;
"yellow15";"1995";;"Windows 8";"Rachel's Experiment (D.T.)";"1.0";"2";"1";"1";"2";"1";"1";"2014-10-15 16:37:12.849";"2014-10-15 16:51:39.346";"1";"1";"1";"53";"52";"module.training_block2.exec-8379.GoNoGo2";;;;;;;;;;;;;;;;;;;;;;;;;;;;;;;;;;;"1244";"2014-10-15 16:41:25.207";"NST_correctLoc";"29";"0";"FINISHED";"LEFT";"success";"442";"0";"2014-10-15 16:41:23.956";"3";;;;;;;;;;;;;;;;;;;;;;;;;;;;;;;;;;;;;;;;;;;;;
"yellow15";"1995";;"Windows 8";"Rachel's Experiment (D.T.)";"1.0";"2";"1";"1";"2";"1";"1";"2014-10-15 16:37:12.849";"2014-10-15 16:51:39.346";"1";"1";"1";"54";"53";"module.training_block2.exec-8379.GoNoGo2";;;;;;;;;;;;;;;;;;;;;;;;;;;;;;;;;;;"1244";"2014-10-15 16:41:27.754";"ST_failedStop";"25";"1";"FINISHED";"RIGHT";"failure";"494";"1";"2014-10-15 16:41:26.503";"3";;;;;;;;;;;;;;;;;;;;;;;;;;;;;;;;;;;;;;;;;;;;;
"yellow15";"1995";;"Windows 8";"Rachel's Experiment (D.T.)";"1.0";"2";"1";"1";"2";"1";"1";"2014-10-15 16:37:12.849";"2014-10-15 16:51:39.346";"1";"1";"1";"55";"54";"module.training_block2.exec-8379.GoNoGo2";;;;;;;;;;;;;;;;;;;;;;;;;;;;;;;;;;;"1244";"2014-10-15 16:41:30.301";"ST_correctStop";"26";"0";"FINISHED";"NONE";"success";"0";"1";"2014-10-15 16:41:29.050";"3";;;;;;;;;;;;;;;;;;;;;;;;;;;;;;;;;;;;;;;;;;;;;
"yellow15";"1995";;"Windows 8";"Rachel's Experiment (D.T.)";"1.0";"2";"1";"1";"2";"1";"1";"2014-10-15 16:37:12.849";"2014-10-15 16:51:39.346";"1";"1";"1";"56";"55";"module.training_block2.exec-8379.GoNoGo2";;;;;;;;;;;;;;;;;;;;;;;;;;;;;;;;;;;"1247";"2014-10-15 16:41:32.849";"ST_correctStop";"7";"1";"FINISHED";"NONE";"success";"0";"1";"2014-10-15 16:41:31.598";"1";;;;;;;;;;;;;;;;;;;;;;;;;;;;;;;;;;;;;;;;;;;;;
"yellow15";"1995";;"Windows 8";"Rachel's Experiment (D.T.)";"1.0";"2";"1";"1";"2";"1";"1";"2014-10-15 16:37:12.849";"2014-10-15 16:51:39.346";"1";"1";"1";"57";"56";"module.training_block2.exec-8379.GoNoGo2";;;;;;;;;;;;;;;;;;;;;;;;;;;;;;;;;;;"1248";"2014-10-15 16:41:35.380";"ST_correctStop";"8";"0";"FINISHED";"NONE";"success";"0";"1";"2014-10-15 16:41:34.130";"1";;;;;;;;;;;;;;;;;;;;;;;;;;;;;;;;;;;;;;;;;;;;;
"yellow15";"1995";;"Windows 8";"Rachel's Experiment (D.T.)";"1.0";"2";"1";"1";"2";"1";"1";"2014-10-15 16:37:12.849";"2014-10-15 16:51:39.346";"1";"1";"1";"58";"57";"module.training_block2.exec-8379.GoNoGo2";;;;;;;;;;;;;;;;;;;;;;;;;;;;;;;;;;;"1248";"2014-10-15 16:41:37.896";"NST_correctLoc";"27";"0";"FINISHED";"LEFT";"success";"507";"0";"2014-10-15 16:41:36.646";"3";;;;;;;;;;;;;;;;;;;;;;;;;;;;;;;;;;;;;;;;;;;;;
"yellow15";"1995";;"Windows 8";"Rachel's Experiment (D.T.)";"1.0";"2";"1";"1";"2";"1";"1";"2014-10-15 16:37:12.849";"2014-10-15 16:51:39.346";"1";"1";"1";"59";"58";"module.training_block2.exec-8379.GoNoGo2";;;;;;;;;;;;;;;;;;;;;;;;;;;;;;;;;;;"1248";"2014-10-15 16:41:40.427";"NST_correctLoc";"35";"1";"FINISHED";"RIGHT";"success";"552";"0";"2014-10-15 16:41:39.177";"3";;;;;;;;;;;;;;;;;;;;;;;;;;;;;;;;;;;;;;;;;;;;;
"yellow15";"1995";;"Windows 8";"Rachel's Experiment (D.T.)";"1.0";"2";"1";"1";"2";"1";"1";"2014-10-15 16:37:12.849";"2014-10-15 16:51:39.346";"1";"1";"1";"60";"59";"module.training_block2.exec-8379.GoNoGo2";;;;;;;;;;;;;;;;;;;;;;;;;;;;;;;;;;;"1247";"2014-10-15 16:41:42.958";"NST_correctLoc";"14";"0";"FINISHED";"LEFT";"success";"492";"0";"2014-10-15 16:41:41.708";"2";;;;;;;;;;;;;;;;;;;;;;;;;;;;;;;;;;;;;;;;;;;;;
"yellow15";"1995";;"Windows 8";"Rachel's Experiment (D.T.)";"1.0";"2";"1";"1";"2";"1";"1";"2014-10-15 16:37:12.849";"2014-10-15 16:51:39.346";"1";"1";"1";"61";"60";"module.training_block2.exec-8379.GoNoGo2";;;;;;;;;;;;;;;;;;;;;;;;;;;;;;;;;;;"1248";"2014-10-15 16:41:45.474";"NST_correctLoc";"31";"1";"FINISHED";"RIGHT";"success";"538";"0";"2014-10-15 16:41:44.224";"3";;;;;;;;;;;;;;;;;;;;;;;;;;;;;;;;;;;;;;;;;;;;;
"yellow15";"1995";;"Windows 8";"Rachel's Experiment (D.T.)";"1.0";"2";"1";"1";"2";"1";"1";"2014-10-15 16:37:12.849";"2014-10-15 16:51:39.346";"1";"1";"1";"62";"61";"module.training_block2.exec-8379.GoNoGo2";;;;;;;;;;;;;;;;;;;;;;;;;;;;;;;;;;;"1253";"2014-10-15 16:41:48.005";"NST_correctLoc";"28";"1";"FINISHED";"RIGHT";"success";"518";"0";"2014-10-15 16:41:46.746";"3";;;;;;;;;;;;;;;;;;;;;;;;;;;;;;;;;;;;;;;;;;;;;
"yellow15";"1995";;"Windows 8";"Rachel's Experiment (D.T.)";"1.0";"2";"1";"1";"2";"1";"1";"2014-10-15 16:37:12.849";"2014-10-15 16:51:39.346";"1";"1";"1";"63";"62";"module.training_block2.exec-8379.GoNoGo2";;;;;;;;;;;;;;;;;;;;;;;;;;;;;;;;;;;"1249";"2014-10-15 16:41:50.540";"NST_correctLoc";"13";"1";"FINISHED";"RIGHT";"success";"510";"0";"2014-10-15 16:41:49.289";"2";;;;;;;;;;;;;;;;;;;;;;;;;;;;;;;;;;;;;;;;;;;;;
"yellow15";"1995";;"Windows 8";"Rachel's Experiment (D.T.)";"1.0";"2";"1";"1";"2";"1";"1";"2014-10-15 16:37:12.849";"2014-10-15 16:51:39.346";"1";"1";"1";"64";"63";"module.training_block2.exec-8379.GoNoGo2";;;;;;;;;;;;;;;;;;;;;;;;;;;;;;;;;;;"1248";"2014-10-15 16:41:53.057";"NST_correctLoc";"33";"0";"FINISHED";"LEFT";"success";"410";"0";"2014-10-15 16:41:51.807";"3";;;;;;;;;;;;;;;;;;;;;;;;;;;;;;;;;;;;;;;;;;;;;
"yellow15";"1995";;"Windows 8";"Rachel's Experiment (D.T.)";"1.0";"2";"1";"1";"2";"1";"1";"2014-10-15 16:37:12.849";"2014-10-15 16:51:39.346";"1";"1";"1";"65";"64";"module.training_block2.exec-8379.GoNoGo2";;;;;;;;;;;;;;;;;;;;;;;;;;;;;;;;;;;"1248";"2014-10-15 16:41:55.572";"NST_correctLoc";"9";"1";"FINISHED";"RIGHT";"success";"541";"0";"2014-10-15 16:41:54.322";"2";;;;;;;;;;;;;;;;;;;;;;;;;;;;;;;;;;;;;;;;;;;;;
"yellow15";"1995";;"Windows 8";"Rachel's Experiment (D.T.)";"1.0";"2";"1";"1";"2";"1";"1";"2014-10-15 16:37:12.849";"2014-10-15 16:51:39.346";"1";"1";"1";"66";"65";"module.training_block2.exec-8379.GoNoGo2";;;;;;;;;;;;;;;;;;;;;;;;;;;;;;;;;;;"1247";"2014-10-15 16:41:58.088";"ST_correctStop";"6";"0";"FINISHED";"NONE";"success";"0";"1";"2014-10-15 16:41:56.838";"1";;;;;;;;;;;;;;;;;;;;;;;;;;;;;;;;;;;;;;;;;;;;;
"yellow15";"1995";;"Windows 8";"Rachel's Experiment (D.T.)";"1.0";"2";"1";"1";"2";"1";"1";"2014-10-15 16:37:12.849";"2014-10-15 16:51:39.346";"1";"1";"1";"67";"66";"module.training_block2.exec-8379.GoNoGo2";;;;;;;;;;;;;;;;;;;;;;;;;;;;;;;;;;;"1245";"2014-10-15 16:42:00.615";"ST_correctStop";"5";"0";"FINISHED";"NONE";"success";"0";"1";"2014-10-15 16:41:59.364";"1";;;;;;;;;;;;;;;;;;;;;;;;;;;;;;;;;;;;;;;;;;;;;
"yellow15";"1995";;"Windows 8";"Rachel's Experiment (D.T.)";"1.0";"2";"1";"1";"2";"1";"1";"2014-10-15 16:37:12.849";"2014-10-15 16:51:39.346";"1";"1";"1";"68";"67";"module.training_block2.exec-8379.GoNoGo2";;;;;;;;;;;;;;;;;;;;;;;;;;;;;;;;;;;"1244";"2014-10-15 16:42:03.163";"ST_correctStop";"3";"0";"FINISHED";"NONE";"success";"0";"1";"2014-10-15 16:42:01.913";"1";;;;;;;;;;;;;;;;;;;;;;;;;;;;;;;;;;;;;;;;;;;;;
"yellow15";"1995";;"Windows 8";"Rachel's Experiment (D.T.)";"1.0";"2";"1";"1";"2";"1";"1";"2014-10-15 16:37:12.849";"2014-10-15 16:51:39.346";"1";"1";"1";"69";"68";"module.training_block2.exec-8379.GoNoGo2";;;;;;;;;;;;;;;;;;;;;;;;;;;;;;;;;;;"1247";"2014-10-15 16:42:05.723";"NST_correctLoc";"18";"1";"FINISHED";"RIGHT";"success";"563";"0";"2014-10-15 16:42:04.473";"3";;;;;;;;;;;;;;;;;;;;;;;;;;;;;;;;;;;;;;;;;;;;;
"yellow15";"1995";;"Windows 8";"Rachel's Experiment (D.T.)";"1.0";"2";"1";"1";"2";"1";"1";"2014-10-15 16:37:12.849";"2014-10-15 16:51:39.346";"1";"1";"1";"70";"69";"module.training_block2.exec-8379.GoNoGo2";;;;;;;;;;;;;;;;;;;;;;;;;;;;;;;;;;;"1247";"2014-10-15 16:42:08.271";"ST_correctStop";"0";"0";"FINISHED";"NONE";"success";"0";"1";"2014-10-15 16:42:07.021";"1";;;;;;;;;;;;;;;;;;;;;;;;;;;;;;;;;;;;;;;;;;;;;
"yellow15";"1995";;"Windows 8";"Rachel's Experiment (D.T.)";"1.0";"2";"1";"1";"2";"1";"1";"2014-10-15 16:37:12.849";"2014-10-15 16:51:39.346";"1";"1";"1";"71";"70";"module.training_block2.exec-8379.GoNoGo2";;;;;;;;;;;;;;;;;;;;;;;;;;;;;;;;;;;"1245";"2014-10-15 16:42:10.802";"NST_correctLoc";"32";"1";"FINISHED";"RIGHT";"success";"574";"0";"2014-10-15 16:42:09.551";"3";;;;;;;;;;;;;;;;;;;;;;;;;;;;;;;;;;;;;;;;;;;;;
"yellow15";"1995";;"Windows 8";"Rachel's Experiment (D.T.)";"1.0";"2";"1";"1";"2";"1";"1";"2014-10-15 16:37:12.849";"2014-10-15 16:51:39.346";"1";"1";"1";"72";"71";"module.training_block2.exec-8379.GoNoGo2";;;;;;;;;;;;;;;;;;;;;;;;;;;;;;;;;;;"1252";"2014-10-15 16:42:13.370";"ST_correctStop";"34";"0";"FINISHED";"NONE";"success";"0";"1";"2014-10-15 16:42:12.111";"3";;;;;;;;;;;;;;;;;;;;;;;;;;;;;;;;;;;;;;;;;;;;;
"yellow15";"1995";;"Windows 8";"Rachel's Experiment (D.T.)";"1.0";"2";"1";"1";"2";"1";"1";"2014-10-15 16:37:12.849";"2014-10-15 16:51:39.346";"1";"1";"1";"73";"72";"module.training_block2.exec-8379.GoNoGo2";;;;;;;;;;;;;;;;;;;;;;;;;;;;;;;;;;;"1248";"2014-10-15 16:42:15.934";"NST_correctLoc";"11";"0";"FINISHED";"LEFT";"success";"527";"0";"2014-10-15 16:42:14.680";"2";;;;;;;;;;;;;;;;;;;;;;;;;;;;;;;;;;;;;;;;;;;;;
"yellow15";"1995";;"Windows 8";"Rachel's Experiment (D.T.)";"1.0";"2";"1";"1";"2";"1";"1";"2014-10-15 16:37:12.849";"2014-10-15 16:51:39.346";"1";"1";"1";"74";"73";"module.training_block2.exec-8379.GoNoGo2";;;;;;;;;;;;;;;;;;;;;;;;;;;;;;;;;;;"1246";"2014-10-15 16:42:18.473";"ST_correctStop";"4";"0";"FINISHED";"NONE";"success";"0";"1";"2014-10-15 16:42:17.221";"1";;;;;;;;;;;;;;;;;;;;;;;;;;;;;;;;;;;;;;;;;;;;;
"yellow15";"1995";;"Windows 8";"Rachel's Experiment (D.T.)";"1.0";"2";"1";"1";"2";"1";"1";"2014-10-15 16:37:12.849";"2014-10-15 16:51:39.346";"1";"1";"1";"75";"74";"module.training_block2.exec-8379.GoNoGo2";;;;;;;;;;;;;;;;;;;;;;;;;;;;;;;;;;;"1245";"2014-10-15 16:42:21.013";"ST_correctStop";"24";"0";"FINISHED";"NONE";"success";"0";"1";"2014-10-15 16:42:19.755";"3";;;;;;;;;;;;;;;;;;;;;;;;;;;;;;;;;;;;;;;;;;;;;
"yellow15";"1995";;"Windows 8";"Rachel's Experiment (D.T.)";"1.0";"2";"1";"1";"2";"1";"1";"2014-10-15 16:37:12.849";"2014-10-15 16:51:39.346";"1";"1";"1";"76";"75";"module.training_block2.exec-8379.GoNoGo2";;;;;;;;;;;;;;;;;;;;;;;;;;;;;;;;;;;"1247";"2014-10-15 16:42:23.549";"ST_correctStop";"22";"0";"FINISHED";"NONE";"success";"0";"1";"2014-10-15 16:42:22.295";"3";;;;;;;;;;;;;;;;;;;;;;;;;;;;;;;;;;;;;;;;;;;;;
"yellow15";"1995";;"Windows 8";"Rachel's Experiment (D.T.)";"1.0";"2";"1";"1";"2";"1";"1";"2014-10-15 16:37:12.849";"2014-10-15 16:51:39.346";"1";"1";"1";"77";"76";"module.training_block2.exec-8379.GoNoGo2";;;;;;;;;;;;;;;;;;;;;;;;;;;;;;;;;;;"1250";"2014-10-15 16:42:26.104";"NST_correctLoc";"12";"0";"FINISHED";"LEFT";"success";"547";"0";"2014-10-15 16:42:24.848";"2";;;;;;;;;;;;;;;;;;;;;;;;;;;;;;;;;;;;;;;;;;;;;
"yellow15";"1995";;"Windows 8";"Rachel's Experiment (D.T.)";"1.0";"2";"1";"1";"2";"1";"1";"2014-10-15 16:37:12.849";"2014-10-15 16:51:39.346";"1";"1";"1";"78";"77";"module.training_block2.exec-8379.GoNoGo2";;;;;;;;;;;;;;;;;;;;;;;;;;;;;;;;;;;"1245";"2014-10-15 16:42:28.652";"NST_correctLoc";"19";"1";"FINISHED";"RIGHT";"success";"585";"0";"2014-10-15 16:42:27.401";"3";;;;;;;;;;;;;;;;;;;;;;;;;;;;;;;;;;;;;;;;;;;;;
"yellow15";"1995";;"Windows 8";"Rachel's Experiment (D.T.)";"1.0";"2";"1";"1";"2";"1";"1";"2014-10-15 16:37:12.849";"2014-10-15 16:51:39.346";"1";"1";"1";"79";"78";"module.training_block2.exec-8379.GoNoGo2";;;;;;;;;;;;;;;;;;;;;;;;;;;;;;;;;;;"1252";"2014-10-15 16:42:31.206";"ST_failedStop";"21";"0";"FINISHED";"LEFT";"failure";"534";"1";"2014-10-15 16:42:29.949";"3";;;;;;;;;;;;;;;;;;;;;;;;;;;;;;;;;;;;;;;;;;;;;
"yellow15";"1995";;"Windows 8";"Rachel's Experiment (D.T.)";"1.0";"2";"1";"1";"2";"1";"1";"2014-10-15 16:37:12.849";"2014-10-15 16:51:39.346";"1";"1";"1";"80";"79";"module.training_block2.exec-8379.GoNoGo2";;;;;;;;;;;;;;;;;;;;;;;;;;;;;;;;;;;"1248";"2014-10-15 16:42:33.769";"ST_correctStop";"23";"1";"FINISHED";"NONE";"success";"0";"1";"2014-10-15 16:42:32.514";"3";;;;;;;;;;;;;;;;;;;;;;;;;;;;;;;;;;;;;;;;;;;;;
"yellow15";"1995";;"Windows 8";"Rachel's Experiment (D.T.)";"1.0";"2";"1";"1";"2";"1";"1";"2014-10-15 16:37:12.849";"2014-10-15 16:51:39.346";"1";"1";"1";"81";"80";"module.training_block2.exec-8379.GoNoGo2";;;;;;;;;;;;;;;;;;;;;;;;;;;;;;;;;;;"1255";"2014-10-15 16:42:36.312";"ST_correctStop";"30";"1";"FINISHED";"NONE";"success";"0";"1";"2014-10-15 16:42:35.052";"3";;;;;;;;;;;;;;;;;;;;;;;;;;;;;;;;;;;;;;;;;;;;;
"yellow15";"1995";;"Windows 8";"Rachel's Experiment (D.T.)";"1.0";"2";"1";"1";"2";"1";"1";"2014-10-15 16:37:12.849";"2014-10-15 16:51:39.346";"1";"1";"1";"82";"81";"module.training_block2.exec-8379.GoNoGo2";;;;;;;;;;;;;;;;;;;;;;;;;;;;;;;;;;;"1245";"2014-10-15 16:42:38.865";"NST_correctLoc";"15";"0";"FINISHED";"LEFT";"success";"650";"0";"2014-10-15 16:42:37.614";"2";;;;;;;;;;;;;;;;;;;;;;;;;;;;;;;;;;;;;;;;;;;;;
"yellow15";"1995";;"Windows 8";"Rachel's Experiment (D.T.)";"1.0";"2";"1";"1";"2";"1";"1";"2014-10-15 16:37:12.849";"2014-10-15 16:51:39.346";"1";"1";"1";"83";"82";"module.training_block2.exec-8379.GoNoGo2";;;;;;;;;;;;;;;;;;;;;;;;;;;;;;;;;;;"1251";"2014-10-15 16:42:41.404";"ST_correctStop";"2";"1";"FINISHED";"NONE";"success";"0";"1";"2014-10-15 16:42:40.147";"1";;;;;;;;;;;;;;;;;;;;;;;;;;;;;;;;;;;;;;;;;;;;;
"yellow15";"1995";;"Windows 8";"Rachel's Experiment (D.T.)";"1.0";"2";"1";"1";"2";"1";"1";"2014-10-15 16:37:12.849";"2014-10-15 16:51:39.346";"1";"1";"1";"84";"83";"module.training_block2.exec-8379.GoNoGo2";;;;;;;;;;;;;;;;;;;;;;;;;;;;;;;;;;;"1250";"2014-10-15 16:42:43.954";"NST_correctLoc";"10";"0";"FINISHED";"LEFT";"success";"724";"0";"2014-10-15 16:42:42.698";"2";;;;;;;;;;;;;;;;;;;;;;;;;;;;;;;;;;;;;;;;;;;;;
"yellow15";"1995";;"Windows 8";"Rachel's Experiment (D.T.)";"1.0";"2";"1";"1";"2";"1";"1";"2014-10-15 16:37:12.849";"2014-10-15 16:51:39.346";"1";"1";"1";"85";"84";"module.training_block2.exec-8379.GoNoGo2";;;;;;;;;;;;;;;;;;;;;;;;;;;;;;;;;;;"1255";"2014-10-15 16:42:46.499";"ST_correctStop";"20";"0";"FINISHED";"NONE";"success";"0";"1";"2014-10-15 16:42:45.238";"3";;;;;;;;;;;;;;;;;;;;;;;;;;;;;;;;;;;;;;;;;;;;;
"yellow15";"1995";;"Windows 8";"Rachel's Experiment (D.T.)";"1.0";"2";"1";"1";"2";"1";"1";"2014-10-15 16:37:12.849";"2014-10-15 16:51:39.346";"1";"1";"1";"86";"85";"module.training_block2.exec-8379.GoNoGo2";;;;;;;;;;;;;;;;;;;;;;;;;;;;;;;;;;;"1259";"2014-10-15 16:42:49.057";"NST_correctLoc";"16";"1";"FINISHED";"RIGHT";"success";"681";"0";"2014-10-15 16:42:47.793";"2";;;;;;;;;;;;;;;;;;;;;;;;;;;;;;;;;;;;;;;;;;;;;
"yellow15";"1995";;"Windows 8";"Rachel's Experiment (D.T.)";"1.0";"2";"1";"1";"2";"1";"1";"2014-10-15 16:37:12.849";"2014-10-15 16:51:39.346";"1";"1";"1";"87";"86";"module.training_block2.exec-8379.GoNoGo2";;;;;;;;;;;;;;;;;;;;;;;;;;;;;;;;;;;"1259";"2014-10-15 16:42:51.604";"ST_correctStop";"1";"0";"FINISHED";"NONE";"success";"0";"1";"2014-10-15 16:42:50.339";"1";;;;;;;;;;;;;;;;;;;;;;;;;;;;;;;;;;;;;;;;;;;;;
"yellow15";"1995";;"Windows 8";"Rachel's Experiment (D.T.)";"1.0";"2";"1";"1";"2";"1";"1";"2014-10-15 16:37:12.849";"2014-10-15 16:51:39.346";"1";"1";"1";"88";"87";"module.training_block3.exec-4291.GoNoGo3";;;;;;;;;;;;;;;;;;;;;;;;;;;;;;;;;;;;;;;;;;;;;;;"1256";"2014-10-15 16:43:19.934";"NST_correctLoc";"21";"0";"FINISHED";"LEFT";"success";"433";"0";"2014-10-15 16:43:18.673";"3";;;;;;;;;;;;;;;;;;;;;;;;;;;;;;;;;
"yellow15";"1995";;"Windows 8";"Rachel's Experiment (D.T.)";"1.0";"2";"1";"1";"2";"1";"1";"2014-10-15 16:37:12.849";"2014-10-15 16:51:39.346";"1";"1";"1";"89";"88";"module.training_block3.exec-4291.GoNoGo3";;;;;;;;;;;;;;;;;;;;;;;;;;;;;;;;;;;;;;;;;;;;;;;"1255";"2014-10-15 16:43:22.499";"NST_correctLoc";"10";"1";"FINISHED";"RIGHT";"success";"460";"0";"2014-10-15 16:43:21.238";"2";;;;;;;;;;;;;;;;;;;;;;;;;;;;;;;;;
"yellow15";"1995";;"Windows 8";"Rachel's Experiment (D.T.)";"1.0";"2";"1";"1";"2";"1";"1";"2014-10-15 16:37:12.849";"2014-10-15 16:51:39.346";"1";"1";"1";"90";"89";"module.training_block3.exec-4291.GoNoGo3";;;;;;;;;;;;;;;;;;;;;;;;;;;;;;;;;;;;;;;;;;;;;;;"1248";"2014-10-15 16:43:25.062";"NST_correctLoc";"16";"0";"FINISHED";"LEFT";"success";"432";"0";"2014-10-15 16:43:23.808";"2";;;;;;;;;;;;;;;;;;;;;;;;;;;;;;;;;
"yellow15";"1995";;"Windows 8";"Rachel's Experiment (D.T.)";"1.0";"2";"1";"1";"2";"1";"1";"2014-10-15 16:37:12.849";"2014-10-15 16:51:39.346";"1";"1";"1";"91";"90";"module.training_block3.exec-4291.GoNoGo3";;;;;;;;;;;;;;;;;;;;;;;;;;;;;;;;;;;;;;;;;;;;;;;"1254";"2014-10-15 16:43:27.589";"NST_correctLoc";"29";"0";"FINISHED";"LEFT";"success";"489";"0";"2014-10-15 16:43:26.329";"3";;;;;;;;;;;;;;;;;;;;;;;;;;;;;;;;;
"yellow15";"1995";;"Windows 8";"Rachel's Experiment (D.T.)";"1.0";"2";"1";"1";"2";"1";"1";"2014-10-15 16:37:12.849";"2014-10-15 16:51:39.346";"1";"1";"1";"92";"91";"module.training_block3.exec-4291.GoNoGo3";;;;;;;;;;;;;;;;;;;;;;;;;;;;;;;;;;;;;;;;;;;;;;;"1252";"2014-10-15 16:43:30.156";"ST_correctStop";"7";"0";"FINISHED";"NONE";"success";"0";"1";"2014-10-15 16:43:28.898";"1";;;;;;;;;;;;;;;;;;;;;;;;;;;;;;;;;
"yellow15";"1995";;"Windows 8";"Rachel's Experiment (D.T.)";"1.0";"2";"1";"1";"2";"1";"1";"2014-10-15 16:37:12.849";"2014-10-15 16:51:39.346";"1";"1";"1";"93";"92";"module.training_block3.exec-4291.GoNoGo3";;;;;;;;;;;;;;;;;;;;;;;;;;;;;;;;;;;;;;;;;;;;;;;"1247";"2014-10-15 16:43:32.696";"ST_correctStop";"18";"1";"FINISHED";"NONE";"success";"0";"1";"2014-10-15 16:43:31.443";"3";;;;;;;;;;;;;;;;;;;;;;;;;;;;;;;;;
"yellow15";"1995";;"Windows 8";"Rachel's Experiment (D.T.)";"1.0";"2";"1";"1";"2";"1";"1";"2014-10-15 16:37:12.849";"2014-10-15 16:51:39.346";"1";"1";"1";"94";"93";"module.training_block3.exec-4291.GoNoGo3";;;;;;;;;;;;;;;;;;;;;;;;;;;;;;;;;;;;;;;;;;;;;;;"1258";"2014-10-15 16:43:35.269";"ST_correctStop";"22";"0";"FINISHED";"NONE";"success";"0";"1";"2014-10-15 16:43:34.005";"3";;;;;;;;;;;;;;;;;;;;;;;;;;;;;;;;;
"yellow15";"1995";;"Windows 8";"Rachel's Experiment (D.T.)";"1.0";"2";"1";"1";"2";"1";"1";"2014-10-15 16:37:12.849";"2014-10-15 16:51:39.346";"1";"1";"1";"95";"94";"module.training_block3.exec-4291.GoNoGo3";;;;;;;;;;;;;;;;;;;;;;;;;;;;;;;;;;;;;;;;;;;;;;;"1246";"2014-10-15 16:43:37.819";"NST_correctLoc";"24";"1";"FINISHED";"RIGHT";"success";"676";"0";"2014-10-15 16:43:36.567";"3";;;;;;;;;;;;;;;;;;;;;;;;;;;;;;;;;
"yellow15";"1995";;"Windows 8";"Rachel's Experiment (D.T.)";"1.0";"2";"1";"1";"2";"1";"1";"2014-10-15 16:37:12.849";"2014-10-15 16:51:39.346";"1";"1";"1";"96";"95";"module.training_block3.exec-4291.GoNoGo3";;;;;;;;;;;;;;;;;;;;;;;;;;;;;;;;;;;;;;;;;;;;;;;"1241";"2014-10-15 16:43:40.379";"ST_correctStop";"8";"1";"FINISHED";"NONE";"success";"0";"1";"2014-10-15 16:43:39.129";"1";;;;;;;;;;;;;;;;;;;;;;;;;;;;;;;;;
"yellow15";"1995";;"Windows 8";"Rachel's Experiment (D.T.)";"1.0";"2";"1";"1";"2";"1";"1";"2014-10-15 16:37:12.849";"2014-10-15 16:51:39.346";"1";"1";"1";"97";"96";"module.training_block3.exec-4291.GoNoGo3";;;;;;;;;;;;;;;;;;;;;;;;;;;;;;;;;;;;;;;;;;;;;;;"1248";"2014-10-15 16:43:42.946";"ST_correctStop";"33";"0";"FINISHED";"NONE";"success";"0";"1";"2014-10-15 16:43:41.693";"3";;;;;;;;;;;;;;;;;;;;;;;;;;;;;;;;;
"yellow15";"1995";;"Windows 8";"Rachel's Experiment (D.T.)";"1.0";"2";"1";"1";"2";"1";"1";"2014-10-15 16:37:12.849";"2014-10-15 16:51:39.346";"1";"1";"1";"98";"97";"module.training_block3.exec-4291.GoNoGo3";;;;;;;;;;;;;;;;;;;;;;;;;;;;;;;;;;;;;;;;;;;;;;;"1253";"2014-10-15 16:43:45.509";"NST_correctLoc";"23";"1";"FINISHED";"RIGHT";"success";"762";"0";"2014-10-15 16:43:44.251";"3";;;;;;;;;;;;;;;;;;;;;;;;;;;;;;;;;
"yellow15";"1995";;"Windows 8";"Rachel's Experiment (D.T.)";"1.0";"2";"1";"1";"2";"1";"1";"2014-10-15 16:37:12.849";"2014-10-15 16:51:39.346";"1";"1";"1";"99";"98";"module.training_block3.exec-4291.GoNoGo3";;;;;;;;;;;;;;;;;;;;;;;;;;;;;;;;;;;;;;;;;;;;;;;"1241";"2014-10-15 16:43:48.046";"NST_correctLoc";"13";"1";"FINISHED";"RIGHT";"success";"572";"0";"2014-10-15 16:43:46.791";"2";;;;;;;;;;;;;;;;;;;;;;;;;;;;;;;;;
"yellow15";"1995";;"Windows 8";"Rachel's Experiment (D.T.)";"1.0";"2";"1";"1";"2";"1";"1";"2014-10-15 16:37:12.849";"2014-10-15 16:51:39.346";"1";"1";"1";"100";"99";"module.training_block3.exec-4291.GoNoGo3";;;;;;;;;;;;;;;;;;;;;;;;;;;;;;;;;;;;;;;;;;;;;;;"1255";"2014-10-15 16:43:50.589";"NST_correctLoc";"15";"0";"FINISHED";"LEFT";"success";"548";"0";"2014-10-15 16:43:49.329";"2";;;;;;;;;;;;;;;;;;;;;;;;;;;;;;;;;
"yellow15";"1995";;"Windows 8";"Rachel's Experiment (D.T.)";"1.0";"2";"1";"1";"2";"1";"1";"2014-10-15 16:37:12.849";"2014-10-15 16:51:39.346";"1";"1";"1";"101";"100";"module.training_block3.exec-4291.GoNoGo3";;;;;;;;;;;;;;;;;;;;;;;;;;;;;;;;;;;;;;;;;;;;;;;"1256";"2014-10-15 16:43:53.220";"ST_failedStop";"31";"1";"FINISHED";"RIGHT";"failure";"456";"1";"2014-10-15 16:43:51.958";"3";;;;;;;;;;;;;;;;;;;;;;;;;;;;;;;;;
"yellow15";"1995";;"Windows 8";"Rachel's Experiment (D.T.)";"1.0";"2";"1";"1";"2";"1";"1";"2014-10-15 16:37:12.849";"2014-10-15 16:51:39.346";"1";"1";"1";"102";"101";"module.training_block3.exec-4291.GoNoGo3";;;;;;;;;;;;;;;;;;;;;;;;;;;;;;;;;;;;;;;;;;;;;;;"1250";"2014-10-15 16:43:55.776";"NST_correctLoc";"11";"0";"FINISHED";"LEFT";"success";"552";"0";"2014-10-15 16:43:54.520";"2";;;;;;;;;;;;;;;;;;;;;;;;;;;;;;;;;
"yellow15";"1995";;"Windows 8";"Rachel's Experiment (D.T.)";"1.0";"2";"1";"1";"2";"1";"1";"2014-10-15 16:37:12.849";"2014-10-15 16:51:39.346";"1";"1";"1";"103";"102";"module.training_block3.exec-4291.GoNoGo3";;;;;;;;;;;;;;;;;;;;;;;;;;;;;;;;;;;;;;;;;;;;;;;"1245";"2014-10-15 16:43:58.328";"ST_correctStop";"1";"0";"FINISHED";"NONE";"success";"0";"1";"2014-10-15 16:43:57.077";"1";;;;;;;;;;;;;;;;;;;;;;;;;;;;;;;;;
"yellow15";"1995";;"Windows 8";"Rachel's Experiment (D.T.)";"1.0";"2";"1";"1";"2";"1";"1";"2014-10-15 16:37:12.849";"2014-10-15 16:51:39.346";"1";"1";"1";"104";"103";"module.training_block3.exec-4291.GoNoGo3";;;;;;;;;;;;;;;;;;;;;;;;;;;;;;;;;;;;;;;;;;;;;;;"1244";"2014-10-15 16:44:00.881";"NST_correctLoc";"35";"1";"FINISHED";"RIGHT";"success";"626";"0";"2014-10-15 16:43:59.631";"3";;;;;;;;;;;;;;;;;;;;;;;;;;;;;;;;;
"yellow15";"1995";;"Windows 8";"Rachel's Experiment (D.T.)";"1.0";"2";"1";"1";"2";"1";"1";"2014-10-15 16:37:12.849";"2014-10-15 16:51:39.346";"1";"1";"1";"105";"104";"module.training_block3.exec-4291.GoNoGo3";;;;;;;;;;;;;;;;;;;;;;;;;;;;;;;;;;;;;;;;;;;;;;;"1247";"2014-10-15 16:44:03.430";"ST_correctStop";"0";"0";"FINISHED";"NONE";"success";"0";"1";"2014-10-15 16:44:02.178";"1";;;;;;;;;;;;;;;;;;;;;;;;;;;;;;;;;
"yellow15";"1995";;"Windows 8";"Rachel's Experiment (D.T.)";"1.0";"2";"1";"1";"2";"1";"1";"2014-10-15 16:37:12.849";"2014-10-15 16:51:39.346";"1";"1";"1";"106";"105";"module.training_block3.exec-4291.GoNoGo3";;;;;;;;;;;;;;;;;;;;;;;;;;;;;;;;;;;;;;;;;;;;;;;"1251";"2014-10-15 16:44:05.968";"NST_correctLoc";"12";"1";"FINISHED";"RIGHT";"success";"551";"0";"2014-10-15 16:44:04.712";"2";;;;;;;;;;;;;;;;;;;;;;;;;;;;;;;;;
"yellow15";"1995";;"Windows 8";"Rachel's Experiment (D.T.)";"1.0";"2";"1";"1";"2";"1";"1";"2014-10-15 16:37:12.849";"2014-10-15 16:51:39.346";"1";"1";"1";"107";"106";"module.training_block3.exec-4291.GoNoGo3";;;;;;;;;;;;;;;;;;;;;;;;;;;;;;;;;;;;;;;;;;;;;;;"1249";"2014-10-15 16:44:08.507";"ST_correctStop";"27";"1";"FINISHED";"NONE";"success";"0";"1";"2014-10-15 16:44:07.253";"3";;;;;;;;;;;;;;;;;;;;;;;;;;;;;;;;;
"yellow15";"1995";;"Windows 8";"Rachel's Experiment (D.T.)";"1.0";"2";"1";"1";"2";"1";"1";"2014-10-15 16:37:12.849";"2014-10-15 16:51:39.346";"1";"1";"1";"108";"107";"module.training_block3.exec-4291.GoNoGo3";;;;;;;;;;;;;;;;;;;;;;;;;;;;;;;;;;;;;;;;;;;;;;;"1246";"2014-10-15 16:44:11.057";"NST_correctLoc";"9";"0";"FINISHED";"LEFT";"success";"652";"0";"2014-10-15 16:44:09.806";"2";;;;;;;;;;;;;;;;;;;;;;;;;;;;;;;;;
"yellow15";"1995";;"Windows 8";"Rachel's Experiment (D.T.)";"1.0";"2";"1";"1";"2";"1";"1";"2014-10-15 16:37:12.849";"2014-10-15 16:51:39.346";"1";"1";"1";"109";"108";"module.training_block3.exec-4291.GoNoGo3";;;;;;;;;;;;;;;;;;;;;;;;;;;;;;;;;;;;;;;;;;;;;;;"1245";"2014-10-15 16:44:13.595";"ST_correctStop";"6";"0";"FINISHED";"NONE";"success";"0";"1";"2014-10-15 16:44:12.345";"1";;;;;;;;;;;;;;;;;;;;;;;;;;;;;;;;;
"yellow15";"1995";;"Windows 8";"Rachel's Experiment (D.T.)";"1.0";"2";"1";"1";"2";"1";"1";"2014-10-15 16:37:12.849";"2014-10-15 16:51:39.346";"1";"1";"1";"110";"109";"module.training_block3.exec-4291.GoNoGo3";;;;;;;;;;;;;;;;;;;;;;;;;;;;;;;;;;;;;;;;;;;;;;;"1245";"2014-10-15 16:44:16.144";"NST_correctLoc";"25";"1";"FINISHED";"RIGHT";"success";"401";"0";"2014-10-15 16:44:14.894";"3";;;;;;;;;;;;;;;;;;;;;;;;;;;;;;;;;
"yellow15";"1995";;"Windows 8";"Rachel's Experiment (D.T.)";"1.0";"2";"1";"1";"2";"1";"1";"2014-10-15 16:37:12.849";"2014-10-15 16:51:39.346";"1";"1";"1";"111";"110";"module.training_block3.exec-4291.GoNoGo3";;;;;;;;;;;;;;;;;;;;;;;;;;;;;;;;;;;;;;;;;;;;;;;"1260";"2014-10-15 16:44:18.708";"NST_correctLoc";"28";"0";"FINISHED";"LEFT";"success";"539";"0";"2014-10-15 16:44:17.443";"3";;;;;;;;;;;;;;;;;;;;;;;;;;;;;;;;;
"yellow15";"1995";;"Windows 8";"Rachel's Experiment (D.T.)";"1.0";"2";"1";"1";"2";"1";"1";"2014-10-15 16:37:12.849";"2014-10-15 16:51:39.346";"1";"1";"1";"112";"111";"module.training_block3.exec-4291.GoNoGo3";;;;;;;;;;;;;;;;;;;;;;;;;;;;;;;;;;;;;;;;;;;;;;;"1259";"2014-10-15 16:44:21.259";"ST_correctStop";"30";"0";"FINISHED";"NONE";"success";"0";"1";"2014-10-15 16:44:19.995";"3";;;;;;;;;;;;;;;;;;;;;;;;;;;;;;;;;
"yellow15";"1995";;"Windows 8";"Rachel's Experiment (D.T.)";"1.0";"2";"1";"1";"2";"1";"1";"2014-10-15 16:37:12.849";"2014-10-15 16:51:39.346";"1";"1";"1";"113";"112";"module.training_block3.exec-4291.GoNoGo3";;;;;;;;;;;;;;;;;;;;;;;;;;;;;;;;;;;;;;;;;;;;;;;"1244";"2014-10-15 16:44:23.795";"NST_correctLoc";"14";"0";"FINISHED";"LEFT";"success";"474";"0";"2014-10-15 16:44:22.545";"2";;;;;;;;;;;;;;;;;;;;;;;;;;;;;;;;;
"yellow15";"1995";;"Windows 8";"Rachel's Experiment (D.T.)";"1.0";"2";"1";"1";"2";"1";"1";"2014-10-15 16:37:12.849";"2014-10-15 16:51:39.346";"1";"1";"1";"114";"113";"module.training_block3.exec-4291.GoNoGo3";;;;;;;;;;;;;;;;;;;;;;;;;;;;;;;;;;;;;;;;;;;;;;;"1244";"2014-10-15 16:44:26.331";"NST_correctLoc";"19";"1";"FINISHED";"RIGHT";"success";"568";"0";"2014-10-15 16:44:25.080";"3";;;;;;;;;;;;;;;;;;;;;;;;;;;;;;;;;
"yellow15";"1995";;"Windows 8";"Rachel's Experiment (D.T.)";"1.0";"2";"1";"1";"2";"1";"1";"2014-10-15 16:37:12.849";"2014-10-15 16:51:39.346";"1";"1";"1";"115";"114";"module.training_block3.exec-4291.GoNoGo3";;;;;;;;;;;;;;;;;;;;;;;;;;;;;;;;;;;;;;;;;;;;;;;"1252";"2014-10-15 16:44:28.872";"ST_correctStop";"20";"0";"FINISHED";"NONE";"success";"0";"1";"2014-10-15 16:44:27.615";"3";;;;;;;;;;;;;;;;;;;;;;;;;;;;;;;;;
"yellow15";"1995";;"Windows 8";"Rachel's Experiment (D.T.)";"1.0";"2";"1";"1";"2";"1";"1";"2014-10-15 16:37:12.849";"2014-10-15 16:51:39.346";"1";"1";"1";"116";"115";"module.training_block3.exec-4291.GoNoGo3";;;;;;;;;;;;;;;;;;;;;;;;;;;;;;;;;;;;;;;;;;;;;;;"1246";"2014-10-15 16:44:31.407";"ST_correctStop";"3";"0";"FINISHED";"NONE";"success";"0";"1";"2014-10-15 16:44:30.156";"1";;;;;;;;;;;;;;;;;;;;;;;;;;;;;;;;;
"yellow15";"1995";;"Windows 8";"Rachel's Experiment (D.T.)";"1.0";"2";"1";"1";"2";"1";"1";"2014-10-15 16:37:12.849";"2014-10-15 16:51:39.346";"1";"1";"1";"117";"116";"module.training_block3.exec-4291.GoNoGo3";;;;;;;;;;;;;;;;;;;;;;;;;;;;;;;;;;;;;;;;;;;;;;;"1256";"2014-10-15 16:44:33.968";"ST_correctStop";"5";"1";"FINISHED";"NONE";"success";"0";"1";"2014-10-15 16:44:32.706";"1";;;;;;;;;;;;;;;;;;;;;;;;;;;;;;;;;
"yellow15";"1995";;"Windows 8";"Rachel's Experiment (D.T.)";"1.0";"2";"1";"1";"2";"1";"1";"2014-10-15 16:37:12.849";"2014-10-15 16:51:39.346";"1";"1";"1";"118";"117";"module.training_block3.exec-4291.GoNoGo3";;;;;;;;;;;;;;;;;;;;;;;;;;;;;;;;;;;;;;;;;;;;;;;"1248";"2014-10-15 16:44:36.512";"ST_correctStop";"26";"1";"FINISHED";"NONE";"success";"0";"1";"2014-10-15 16:44:35.258";"3";;;;;;;;;;;;;;;;;;;;;;;;;;;;;;;;;
"yellow15";"1995";;"Windows 8";"Rachel's Experiment (D.T.)";"1.0";"2";"1";"1";"2";"1";"1";"2014-10-15 16:37:12.849";"2014-10-15 16:51:39.346";"1";"1";"1";"119";"118";"module.training_block3.exec-4291.GoNoGo3";;;;;;;;;;;;;;;;;;;;;;;;;;;;;;;;;;;;;;;;;;;;;;;"1245";"2014-10-15 16:44:39.061";"ST_correctStop";"34";"1";"FINISHED";"NONE";"success";"0";"1";"2014-10-15 16:44:37.811";"3";;;;;;;;;;;;;;;;;;;;;;;;;;;;;;;;;
"yellow15";"1995";;"Windows 8";"Rachel's Experiment (D.T.)";"1.0";"2";"1";"1";"2";"1";"1";"2014-10-15 16:37:12.849";"2014-10-15 16:51:39.346";"1";"1";"1";"120";"119";"module.training_block3.exec-4291.GoNoGo3";;;;;;;;;;;;;;;;;;;;;;;;;;;;;;;;;;;;;;;;;;;;;;;"1249";"2014-10-15 16:44:41.584";"NST_correctLoc";"32";"0";"FINISHED";"LEFT";"success";"627";"0";"2014-10-15 16:44:40.330";"3";;;;;;;;;;;;;;;;;;;;;;;;;;;;;;;;;
"yellow15";"1995";;"Windows 8";"Rachel's Experiment (D.T.)";"1.0";"2";"1";"1";"2";"1";"1";"2014-10-15 16:37:12.849";"2014-10-15 16:51:39.346";"1";"1";"1";"121";"120";"module.training_block3.exec-4291.GoNoGo3";;;;;;;;;;;;;;;;;;;;;;;;;;;;;;;;;;;;;;;;;;;;;;;"1247";"2014-10-15 16:44:44.125";"ST_correctStop";"2";"0";"FINISHED";"NONE";"success";"0";"1";"2014-10-15 16:44:42.873";"1";;;;;;;;;;;;;;;;;;;;;;;;;;;;;;;;;
"yellow15";"1995";;"Windows 8";"Rachel's Experiment (D.T.)";"1.0";"2";"1";"1";"2";"1";"1";"2014-10-15 16:37:12.849";"2014-10-15 16:51:39.346";"1";"1";"1";"122";"121";"module.training_block3.exec-4291.GoNoGo3";;;;;;;;;;;;;;;;;;;;;;;;;;;;;;;;;;;;;;;;;;;;;;;"1255";"2014-10-15 16:44:46.668";"ST_correctStop";"4";"0";"FINISHED";"NONE";"success";"0";"1";"2014-10-15 16:44:45.407";"1";;;;;;;;;;;;;;;;;;;;;;;;;;;;;;;;;
"yellow15";"1995";;"Windows 8";"Rachel's Experiment (D.T.)";"1.0";"2";"1";"1";"2";"1";"1";"2014-10-15 16:37:12.849";"2014-10-15 16:51:39.346";"1";"1";"1";"123";"122";"module.training_block3.exec-4291.GoNoGo3";;;;;;;;;;;;;;;;;;;;;;;;;;;;;;;;;;;;;;;;;;;;;;;"1249";"2014-10-15 16:44:49.224";"NST_correctLoc";"17";"0";"FINISHED";"LEFT";"success";"847";"0";"2014-10-15 16:44:47.969";"2";;;;;;;;;;;;;;;;;;;;;;;;;;;;;;;;;
"yellow15";"1995";;"Windows 8";"Rachel's Experiment (D.T.)";"1.0";"2";"1";"1";"2";"1";"1";"2014-10-15 16:37:12.849";"2014-10-15 16:51:39.346";"1";"1";"1";"124";"123";"module.training_block4.exec-8354.GoNoGo4";;;;;;;;;;;;;;;;;;;;;;;;;;;;;;;;;;;;;;;;;;;;;;;;;;;;;;;;;;;"1258";"2014-10-15 16:45:00.494";"NST_correctLoc";"31";"0";"FINISHED";"LEFT";"success";"664";"0";"2014-10-15 16:44:59.230";"3";;;;;;;;;;;;;;;;;;;;;
"yellow15";"1995";;"Windows 8";"Rachel's Experiment (D.T.)";"1.0";"2";"1";"1";"2";"1";"1";"2014-10-15 16:37:12.849";"2014-10-15 16:51:39.346";"1";"1";"1";"125";"124";"module.training_block4.exec-8354.GoNoGo4";;;;;;;;;;;;;;;;;;;;;;;;;;;;;;;;;;;;;;;;;;;;;;;;;;;;;;;;;;;"1247";"2014-10-15 16:45:03.033";"NST_correctLoc";"21";"1";"FINISHED";"RIGHT";"success";"1044";"0";"2014-10-15 16:45:01.780";"3";;;;;;;;;;;;;;;;;;;;;
"yellow15";"1995";;"Windows 8";"Rachel's Experiment (D.T.)";"1.0";"2";"1";"1";"2";"1";"1";"2014-10-15 16:37:12.849";"2014-10-15 16:51:39.346";"1";"1";"1";"126";"125";"module.training_block4.exec-8354.GoNoGo4";;;;;;;;;;;;;;;;;;;;;;;;;;;;;;;;;;;;;;;;;;;;;;;;;;;;;;;;;;;"1255";"2014-10-15 16:45:05.585";"ST_correctStop";"4";"0";"FINISHED";"NONE";"success";"0";"1";"2014-10-15 16:45:04.325";"1";;;;;;;;;;;;;;;;;;;;;
"yellow15";"1995";;"Windows 8";"Rachel's Experiment (D.T.)";"1.0";"2";"1";"1";"2";"1";"1";"2014-10-15 16:37:12.849";"2014-10-15 16:51:39.346";"1";"1";"1";"127";"126";"module.training_block4.exec-8354.GoNoGo4";;;;;;;;;;;;;;;;;;;;;;;;;;;;;;;;;;;;;;;;;;;;;;;;;;;;;;;;;;;"1245";"2014-10-15 16:45:08.129";"ST_correctStop";"23";"1";"FINISHED";"NONE";"success";"0";"1";"2014-10-15 16:45:06.879";"3";;;;;;;;;;;;;;;;;;;;;
"yellow15";"1995";;"Windows 8";"Rachel's Experiment (D.T.)";"1.0";"2";"1";"1";"2";"1";"1";"2014-10-15 16:37:12.849";"2014-10-15 16:51:39.346";"1";"1";"1";"128";"127";"module.training_block4.exec-8354.GoNoGo4";;;;;;;;;;;;;;;;;;;;;;;;;;;;;;;;;;;;;;;;;;;;;;;;;;;;;;;;;;;"1244";"2014-10-15 16:45:10.677";"NST_correctLoc";"13";"1";"FINISHED";"RIGHT";"success";"503";"0";"2014-10-15 16:45:09.427";"2";;;;;;;;;;;;;;;;;;;;;
"yellow15";"1995";;"Windows 8";"Rachel's Experiment (D.T.)";"1.0";"2";"1";"1";"2";"1";"1";"2014-10-15 16:37:12.849";"2014-10-15 16:51:39.346";"1";"1";"1";"129";"128";"module.training_block4.exec-8354.GoNoGo4";;;;;;;;;;;;;;;;;;;;;;;;;;;;;;;;;;;;;;;;;;;;;;;;;;;;;;;;;;;"1254";"2014-10-15 16:45:13.224";"ST_correctStop";"35";"1";"FINISHED";"NONE";"success";"0";"1";"2014-10-15 16:45:11.964";"3";;;;;;;;;;;;;;;;;;;;;
"yellow15";"1995";;"Windows 8";"Rachel's Experiment (D.T.)";"1.0";"2";"1";"1";"2";"1";"1";"2014-10-15 16:37:12.849";"2014-10-15 16:51:39.346";"1";"1";"1";"130";"129";"module.training_block4.exec-8354.GoNoGo4";;;;;;;;;;;;;;;;;;;;;;;;;;;;;;;;;;;;;;;;;;;;;;;;;;;;;;;;;;;"1247";"2014-10-15 16:45:15.769";"NST_correctLoc";"25";"1";"FINISHED";"RIGHT";"success";"512";"0";"2014-10-15 16:45:14.515";"3";;;;;;;;;;;;;;;;;;;;;
"yellow15";"1995";;"Windows 8";"Rachel's Experiment (D.T.)";"1.0";"2";"1";"1";"2";"1";"1";"2014-10-15 16:37:12.849";"2014-10-15 16:51:39.346";"1";"1";"1";"131";"130";"module.training_block4.exec-8354.GoNoGo4";;;;;;;;;;;;;;;;;;;;;;;;;;;;;;;;;;;;;;;;;;;;;;;;;;;;;;;;;;;"1251";"2014-10-15 16:45:18.320";"ST_correctStop";"33";"0";"FINISHED";"NONE";"success";"0";"1";"2014-10-15 16:45:17.066";"3";;;;;;;;;;;;;;;;;;;;;
"yellow15";"1995";;"Windows 8";"Rachel's Experiment (D.T.)";"1.0";"2";"1";"1";"2";"1";"1";"2014-10-15 16:37:12.849";"2014-10-15 16:51:39.346";"1";"1";"1";"132";"131";"module.training_block4.exec-8354.GoNoGo4";;;;;;;;;;;;;;;;;;;;;;;;;;;;;;;;;;;;;;;;;;;;;;;;;;;;;;;;;;;"1246";"2014-10-15 16:45:20.860";"NST_correctLoc";"27";"1";"FINISHED";"RIGHT";"success";"396";"0";"2014-10-15 16:45:19.608";"3";;;;;;;;;;;;;;;;;;;;;
"yellow15";"1995";;"Windows 8";"Rachel's Experiment (D.T.)";"1.0";"2";"1";"1";"2";"1";"1";"2014-10-15 16:37:12.849";"2014-10-15 16:51:39.346";"1";"1";"1";"133";"132";"module.training_block4.exec-8354.GoNoGo4";;;;;;;;;;;;;;;;;;;;;;;;;;;;;;;;;;;;;;;;;;;;;;;;;;;;;;;;;;;"1251";"2014-10-15 16:45:23.418";"ST_correctStop";"20";"1";"FINISHED";"NONE";"success";"0";"1";"2014-10-15 16:45:22.161";"3";;;;;;;;;;;;;;;;;;;;;
"yellow15";"1995";;"Windows 8";"Rachel's Experiment (D.T.)";"1.0";"2";"1";"1";"2";"1";"1";"2014-10-15 16:37:12.849";"2014-10-15 16:51:39.346";"1";"1";"1";"134";"133";"module.training_block4.exec-8354.GoNoGo4";;;;;;;;;;;;;;;;;;;;;;;;;;;;;;;;;;;;;;;;;;;;;;;;;;;;;;;;;;;"1257";"2014-10-15 16:45:25.967";"ST_correctStop";"32";"1";"FINISHED";"NONE";"success";"0";"1";"2014-10-15 16:45:24.705";"3";;;;;;;;;;;;;;;;;;;;;
"yellow15";"1995";;"Windows 8";"Rachel's Experiment (D.T.)";"1.0";"2";"1";"1";"2";"1";"1";"2014-10-15 16:37:12.849";"2014-10-15 16:51:39.346";"1";"1";"1";"135";"134";"module.training_block4.exec-8354.GoNoGo4";;;;;;;;;;;;;;;;;;;;;;;;;;;;;;;;;;;;;;;;;;;;;;;;;;;;;;;;;;;"1246";"2014-10-15 16:45:28.521";"ST_correctStop";"30";"1";"FINISHED";"NONE";"success";"0";"1";"2014-10-15 16:45:27.269";"3";;;;;;;;;;;;;;;;;;;;;
"yellow15";"1995";;"Windows 8";"Rachel's Experiment (D.T.)";"1.0";"2";"1";"1";"2";"1";"1";"2014-10-15 16:37:12.849";"2014-10-15 16:51:39.346";"1";"1";"1";"136";"135";"module.training_block4.exec-8354.GoNoGo4";;;;;;;;;;;;;;;;;;;;;;;;;;;;;;;;;;;;;;;;;;;;;;;;;;;;;;;;;;;"1246";"2014-10-15 16:45:31.058";"NST_correctLoc";"10";"1";"FINISHED";"RIGHT";"success";"765";"0";"2014-10-15 16:45:29.807";"2";;;;;;;;;;;;;;;;;;;;;
"yellow15";"1995";;"Windows 8";"Rachel's Experiment (D.T.)";"1.0";"2";"1";"1";"2";"1";"1";"2014-10-15 16:37:12.849";"2014-10-15 16:51:39.346";"1";"1";"1";"137";"136";"module.training_block4.exec-8354.GoNoGo4";;;;;;;;;;;;;;;;;;;;;;;;;;;;;;;;;;;;;;;;;;;;;;;;;;;;;;;;;;;"1245";"2014-10-15 16:45:33.606";"NST_correctLoc";"34";"1";"FINISHED";"RIGHT";"success";"920";"0";"2014-10-15 16:45:32.356";"3";;;;;;;;;;;;;;;;;;;;;
"yellow15";"1995";;"Windows 8";"Rachel's Experiment (D.T.)";"1.0";"2";"1";"1";"2";"1";"1";"2014-10-15 16:37:12.849";"2014-10-15 16:51:39.346";"1";"1";"1";"138";"137";"module.training_block4.exec-8354.GoNoGo4";;;;;;;;;;;;;;;;;;;;;;;;;;;;;;;;;;;;;;;;;;;;;;;;;;;;;;;;;;;"1252";"2014-10-15 16:45:36.161";"ST_correctStop";"7";"0";"FINISHED";"NONE";"success";"0";"1";"2014-10-15 16:45:34.903";"1";;;;;;;;;;;;;;;;;;;;;
"yellow15";"1995";;"Windows 8";"Rachel's Experiment (D.T.)";"1.0";"2";"1";"1";"2";"1";"1";"2014-10-15 16:37:12.849";"2014-10-15 16:51:39.346";"1";"1";"1";"139";"138";"module.training_block4.exec-8354.GoNoGo4";;;;;;;;;;;;;;;;;;;;;;;;;;;;;;;;;;;;;;;;;;;;;;;;;;;;;;;;;;;"1245";"2014-10-15 16:45:38.712";"NST_correctLoc";"11";"0";"FINISHED";"LEFT";"success";"424";"0";"2014-10-15 16:45:37.461";"2";;;;;;;;;;;;;;;;;;;;;
"yellow15";"1995";;"Windows 8";"Rachel's Experiment (D.T.)";"1.0";"2";"1";"1";"2";"1";"1";"2014-10-15 16:37:12.849";"2014-10-15 16:51:39.346";"1";"1";"1";"140";"139";"module.training_block4.exec-8354.GoNoGo4";;;;;;;;;;;;;;;;;;;;;;;;;;;;;;;;;;;;;;;;;;;;;;;;;;;;;;;;;;;"1259";"2014-10-15 16:45:41.285";"NST_correctLoc";"12";"1";"FINISHED";"RIGHT";"success";"522";"0";"2014-10-15 16:45:40.021";"2";;;;;;;;;;;;;;;;;;;;;
"yellow15";"1995";;"Windows 8";"Rachel's Experiment (D.T.)";"1.0";"2";"1";"1";"2";"1";"1";"2014-10-15 16:37:12.849";"2014-10-15 16:51:39.346";"1";"1";"1";"141";"140";"module.training_block4.exec-8354.GoNoGo4";;;;;;;;;;;;;;;;;;;;;;;;;;;;;;;;;;;;;;;;;;;;;;;;;;;;;;;;;;;"1245";"2014-10-15 16:45:43.816";"ST_correctStop";"2";"1";"FINISHED";"NONE";"success";"0";"1";"2014-10-15 16:45:42.566";"1";;;;;;;;;;;;;;;;;;;;;
"yellow15";"1995";;"Windows 8";"Rachel's Experiment (D.T.)";"1.0";"2";"1";"1";"2";"1";"1";"2014-10-15 16:37:12.849";"2014-10-15 16:51:39.346";"1";"1";"1";"142";"141";"module.training_block4.exec-8354.GoNoGo4";;;;;;;;;;;;;;;;;;;;;;;;;;;;;;;;;;;;;;;;;;;;;;;;;;;;;;;;;;;"1245";"2014-10-15 16:45:46.363";"ST_correctStop";"22";"1";"FINISHED";"NONE";"success";"0";"1";"2014-10-15 16:45:45.113";"3";;;;;;;;;;;;;;;;;;;;;
"yellow15";"1995";;"Windows 8";"Rachel's Experiment (D.T.)";"1.0";"2";"1";"1";"2";"1";"1";"2014-10-15 16:37:12.849";"2014-10-15 16:51:39.346";"1";"1";"1";"143";"142";"module.training_block4.exec-8354.GoNoGo4";;;;;;;;;;;;;;;;;;;;;;;;;;;;;;;;;;;;;;;;;;;;;;;;;;;;;;;;;;;"1246";"2014-10-15 16:45:48.899";"ST_correctStop";"1";"1";"FINISHED";"NONE";"success";"0";"1";"2014-10-15 16:45:47.646";"1";;;;;;;;;;;;;;;;;;;;;
"yellow15";"1995";;"Windows 8";"Rachel's Experiment (D.T.)";"1.0";"2";"1";"1";"2";"1";"1";"2014-10-15 16:37:12.849";"2014-10-15 16:51:39.346";"1";"1";"1";"144";"143";"module.training_block4.exec-8354.GoNoGo4";;;;;;;;;;;;;;;;;;;;;;;;;;;;;;;;;;;;;;;;;;;;;;;;;;;;;;;;;;;"1255";"2014-10-15 16:45:51.457";"ST_correctStop";"0";"1";"FINISHED";"NONE";"success";"0";"1";"2014-10-15 16:45:50.197";"1";;;;;;;;;;;;;;;;;;;;;
"yellow15";"1995";;"Windows 8";"Rachel's Experiment (D.T.)";"1.0";"2";"1";"1";"2";"1";"1";"2014-10-15 16:37:12.849";"2014-10-15 16:51:39.346";"1";"1";"1";"145";"144";"module.training_block4.exec-8354.GoNoGo4";;;;;;;;;;;;;;;;;;;;;;;;;;;;;;;;;;;;;;;;;;;;;;;;;;;;;;;;;;;"1248";"2014-10-15 16:45:53.977";"NST_correctLoc";"29";"0";"FINISHED";"LEFT";"success";"646";"0";"2014-10-15 16:45:52.724";"3";;;;;;;;;;;;;;;;;;;;;
"yellow15";"1995";;"Windows 8";"Rachel's Experiment (D.T.)";"1.0";"2";"1";"1";"2";"1";"1";"2014-10-15 16:37:12.849";"2014-10-15 16:51:39.346";"1";"1";"1";"146";"145";"module.training_block4.exec-8354.GoNoGo4";;;;;;;;;;;;;;;;;;;;;;;;;;;;;;;;;;;;;;;;;;;;;;;;;;;;;;;;;;;"1246";"2014-10-15 16:45:56.500";"NST_correctLoc";"15";"0";"FINISHED";"LEFT";"success";"613";"0";"2014-10-15 16:45:55.248";"2";;;;;;;;;;;;;;;;;;;;;
"yellow15";"1995";;"Windows 8";"Rachel's Experiment (D.T.)";"1.0";"2";"1";"1";"2";"1";"1";"2014-10-15 16:37:12.849";"2014-10-15 16:51:39.346";"1";"1";"1";"147";"146";"module.training_block4.exec-8354.GoNoGo4";;;;;;;;;;;;;;;;;;;;;;;;;;;;;;;;;;;;;;;;;;;;;;;;;;;;;;;;;;;"1240";"2014-10-15 16:45:59.052";"ST_correctStop";"24";"0";"FINISHED";"NONE";"success";"0";"1";"2014-10-15 16:45:57.798";"3";;;;;;;;;;;;;;;;;;;;;
"yellow15";"1995";;"Windows 8";"Rachel's Experiment (D.T.)";"1.0";"2";"1";"1";"2";"1";"1";"2014-10-15 16:37:12.849";"2014-10-15 16:51:39.346";"1";"1";"1";"148";"147";"module.training_block4.exec-8354.GoNoGo4";;;;;;;;;;;;;;;;;;;;;;;;;;;;;;;;;;;;;;;;;;;;;;;;;;;;;;;;;;;"1252";"2014-10-15 16:46:01.596";"NST_correctLoc";"18";"0";"FINISHED";"LEFT";"success";"667";"0";"2014-10-15 16:46:00.338";"3";;;;;;;;;;;;;;;;;;;;;
"yellow15";"1995";;"Windows 8";"Rachel's Experiment (D.T.)";"1.0";"2";"1";"1";"2";"1";"1";"2014-10-15 16:37:12.849";"2014-10-15 16:51:39.346";"1";"1";"1";"149";"148";"module.training_block4.exec-8354.GoNoGo4";;;;;;;;;;;;;;;;;;;;;;;;;;;;;;;;;;;;;;;;;;;;;;;;;;;;;;;;;;;"1246";"2014-10-15 16:46:04.154";"NST_correctLoc";"14";"0";"FINISHED";"LEFT";"success";"694";"0";"2014-10-15 16:46:02.903";"2";;;;;;;;;;;;;;;;;;;;;
"yellow15";"1995";;"Windows 8";"Rachel's Experiment (D.T.)";"1.0";"2";"1";"1";"2";"1";"1";"2014-10-15 16:37:12.849";"2014-10-15 16:51:39.346";"1";"1";"1";"150";"149";"module.training_block4.exec-8354.GoNoGo4";;;;;;;;;;;;;;;;;;;;;;;;;;;;;;;;;;;;;;;;;;;;;;;;;;;;;;;;;;;"1257";"2014-10-15 16:46:06.709";"ST_correctStop";"3";"0";"FINISHED";"NONE";"success";"0";"1";"2014-10-15 16:46:05.446";"1";;;;;;;;;;;;;;;;;;;;;
"yellow15";"1995";;"Windows 8";"Rachel's Experiment (D.T.)";"1.0";"2";"1";"1";"2";"1";"1";"2014-10-15 16:37:12.849";"2014-10-15 16:51:39.346";"1";"1";"1";"151";"150";"module.training_block4.exec-8354.GoNoGo4";;;;;;;;;;;;;;;;;;;;;;;;;;;;;;;;;;;;;;;;;;;;;;;;;;;;;;;;;;;"1257";"2014-10-15 16:46:09.243";"NST_correctLoc";"26";"1";"FINISHED";"RIGHT";"success";"567";"0";"2014-10-15 16:46:07.981";"3";;;;;;;;;;;;;;;;;;;;;
"yellow15";"1995";;"Windows 8";"Rachel's Experiment (D.T.)";"1.0";"2";"1";"1";"2";"1";"1";"2014-10-15 16:37:12.849";"2014-10-15 16:51:39.346";"1";"1";"1";"152";"151";"module.training_block4.exec-8354.GoNoGo4";;;;;;;;;;;;;;;;;;;;;;;;;;;;;;;;;;;;;;;;;;;;;;;;;;;;;;;;;;;"1245";"2014-10-15 16:46:11.790";"ST_correctStop";"5";"1";"FINISHED";"NONE";"success";"0";"1";"2014-10-15 16:46:10.540";"1";;;;;;;;;;;;;;;;;;;;;
"yellow15";"1995";;"Windows 8";"Rachel's Experiment (D.T.)";"1.0";"2";"1";"1";"2";"1";"1";"2014-10-15 16:37:12.849";"2014-10-15 16:51:39.346";"1";"1";"1";"153";"152";"module.training_block4.exec-8354.GoNoGo4";;;;;;;;;;;;;;;;;;;;;;;;;;;;;;;;;;;;;;;;;;;;;;;;;;;;;;;;;;;"1252";"2014-10-15 16:46:14.346";"NST_correctLoc";"16";"1";"FINISHED";"RIGHT";"success";"919";"0";"2014-10-15 16:46:13.093";"2";;;;;;;;;;;;;;;;;;;;;
"yellow15";"1995";;"Windows 8";"Rachel's Experiment (D.T.)";"1.0";"2";"1";"1";"2";"1";"1";"2014-10-15 16:37:12.849";"2014-10-15 16:51:39.346";"1";"1";"1";"154";"153";"module.training_block4.exec-8354.GoNoGo4";;;;;;;;;;;;;;;;;;;;;;;;;;;;;;;;;;;;;;;;;;;;;;;;;;;;;;;;;;;"1247";"2014-10-15 16:46:16.883";"NST_correctLoc";"9";"0";"FINISHED";"LEFT";"success";"509";"0";"2014-10-15 16:46:15.631";"2";;;;;;;;;;;;;;;;;;;;;
"yellow15";"1995";;"Windows 8";"Rachel's Experiment (D.T.)";"1.0";"2";"1";"1";"2";"1";"1";"2014-10-15 16:37:12.849";"2014-10-15 16:51:39.346";"1";"1";"1";"155";"154";"module.training_block4.exec-8354.GoNoGo4";;;;;;;;;;;;;;;;;;;;;;;;;;;;;;;;;;;;;;;;;;;;;;;;;;;;;;;;;;;"1243";"2014-10-15 16:46:19.425";"NST_correctLoc";"28";"0";"FINISHED";"LEFT";"success";"556";"0";"2014-10-15 16:46:18.175";"3";;;;;;;;;;;;;;;;;;;;;
"yellow15";"1995";;"Windows 8";"Rachel's Experiment (D.T.)";"1.0";"2";"1";"1";"2";"1";"1";"2014-10-15 16:37:12.849";"2014-10-15 16:51:39.346";"1";"1";"1";"156";"155";"module.training_block4.exec-8354.GoNoGo4";;;;;;;;;;;;;;;;;;;;;;;;;;;;;;;;;;;;;;;;;;;;;;;;;;;;;;;;;;;"1245";"2014-10-15 16:46:21.944";"NST_correctLoc";"17";"1";"FINISHED";"RIGHT";"success";"562";"0";"2014-10-15 16:46:20.693";"2";;;;;;;;;;;;;;;;;;;;;
"yellow15";"1995";;"Windows 8";"Rachel's Experiment (D.T.)";"1.0";"2";"1";"1";"2";"1";"1";"2014-10-15 16:37:12.849";"2014-10-15 16:51:39.346";"1";"1";"1";"157";"156";"module.training_block4.exec-8354.GoNoGo4";;;;;;;;;;;;;;;;;;;;;;;;;;;;;;;;;;;;;;;;;;;;;;;;;;;;;;;;;;;"1245";"2014-10-15 16:46:24.475";"ST_correctStop";"6";"0";"FINISHED";"NONE";"success";"0";"1";"2014-10-15 16:46:23.225";"1";;;;;;;;;;;;;;;;;;;;;
"yellow15";"1995";;"Windows 8";"Rachel's Experiment (D.T.)";"1.0";"2";"1";"1";"2";"1";"1";"2014-10-15 16:37:12.849";"2014-10-15 16:51:39.346";"1";"1";"1";"158";"157";"module.training_block4.exec-8354.GoNoGo4";;;;;;;;;;;;;;;;;;;;;;;;;;;;;;;;;;;;;;;;;;;;;;;;;;;;;;;;;;;"1252";"2014-10-15 16:46:27.027";"ST_correctStop";"19";"1";"FINISHED";"NONE";"success";"0";"1";"2014-10-15 16:46:25.769";"3";;;;;;;;;;;;;;;;;;;;;
"yellow15";"1995";;"Windows 8";"Rachel's Experiment (D.T.)";"1.0";"2";"1";"1";"2";"1";"1";"2014-10-15 16:37:12.849";"2014-10-15 16:51:39.346";"1";"1";"1";"159";"158";"module.training_block4.exec-8354.GoNoGo4";;;;;;;;;;;;;;;;;;;;;;;;;;;;;;;;;;;;;;;;;;;;;;;;;;;;;;;;;;;"1236";"2014-10-15 16:46:29.563";"ST_correctStop";"8";"1";"FINISHED";"NONE";"success";"0";"1";"2014-10-15 16:46:28.312";"1";;;;;;;;;;;;;;;;;;;;;
"yellow15";"1995";;"Windows 8";"Rachel's Experiment (D.T.)";"1.0";"2";"1";"1";"2";"1";"1";"2014-10-15 16:37:12.849";"2014-10-15 16:51:39.346";"1";"1";"1";"160";"159";"module.devaluation_practice.exec-8450.devalPractice";;;;;;;;;;;;"11919";"2014-10-15 16:47:55.541";"0";"6";"3";"6";"2747";"1703";"4396";"2014-10-15 16:47:43.621";;;;;;;;;;;;;;;;;;;;;;;;;;;;;;;;;;;;;;;;;;;;;;;;;;;;;;;;;;;;;;;;;;;;;;
"yellow15";"1995";;"Windows 8";"Rachel's Experiment (D.T.)";"1.0";"2";"1";"1";"2";"1";"1";"2014-10-15 16:37:12.849";"2014-10-15 16:51:39.346";"1";"1";"1";"161";"160";"module.devaluation_practice.exec-8450.devalPractice";;;;;;;;;;;;"7140";"2014-10-15 16:48:02.719";"1";"4";"3";"6";"1020";"1053";"2055";"2014-10-15 16:47:55.588";;;;;;;;;;;;;;;;;;;;;;;;;;;;;;;;;;;;;;;;;;;;;;;;;;;;;;;;;;;;;;;;;;;;;;
"yellow15";"1995";;"Windows 8";"Rachel's Experiment (D.T.)";"1.0";"2";"1";"1";"2";"1";"1";"2014-10-15 16:37:12.849";"2014-10-15 16:51:39.346";"1";"1";"1";"162";"161";"module.devaluation_practice.exec-8450.devalPractice";;;;;;;;;;;;"7662";"2014-10-15 16:48:10.437";"2";"3";"2";"3";"1691";"1602";"1352";"2014-10-15 16:48:02.766";;;;;;;;;;;;;;;;;;;;;;;;;;;;;;;;;;;;;;;;;;;;;;;;;;;;;;;;;;;;;;;;;;;;;;
"yellow15";"1995";;"Windows 8";"Rachel's Experiment (D.T.)";"1.0";"2";"1";"1";"2";"1";"1";"2014-10-15 16:37:12.849";"2014-10-15 16:51:39.346";"1";"1";"1";"163";"162";"module.devaluation_practice.exec-8450.devalPractice";;;;;;;;;;;;"6802";"2014-10-15 16:48:17.277";"3";"3";"2";"6";"843";"1239";"1702";"2014-10-15 16:48:10.468";;;;;;;;;;;;;;;;;;;;;;;;;;;;;;;;;;;;;;;;;;;;;;;;;;;;;;;;;;;;;;;;;;;;;;
"yellow15";"1995";;"Windows 8";"Rachel's Experiment (D.T.)";"1.0";"2";"1";"1";"2";"1";"1";"2014-10-15 16:37:12.849";"2014-10-15 16:51:39.346";"1";"1";"1";"164";"163";"module.devaluation_block1.exec-4120.deval1";"8429";"2014-10-15 16:48:30.946";"13";"7";"4";"7";"2406";"1816";"1192";"2014-10-15 16:48:22.512";"2";;;;;;;;;;;;;;;;;;;;;;;;;;;;;;;;;;;;;;;;;;;;;;;;;;;;;;;;;;;;;;;;;;;;;;;;;;;;;;;;
"yellow15";"1995";;"Windows 8";"Rachel's Experiment (D.T.)";"1.0";"2";"1";"1";"2";"1";"1";"2014-10-15 16:37:12.849";"2014-10-15 16:51:39.346";"1";"1";"1";"165";"164";"module.devaluation_block1.exec-4120.deval1";"6956";"2014-10-15 16:48:37.944";"16";"2";"2";"2";"1175";"1331";"1421";"2014-10-15 16:48:30.993";"2";;;;;;;;;;;;;;;;;;;;;;;;;;;;;;;;;;;;;;;;;;;;;;;;;;;;;;;;;;;;;;;;;;;;;;;;;;;;;;;;
"yellow15";"1995";;"Windows 8";"Rachel's Experiment (D.T.)";"1.0";"2";"1";"1";"2";"1";"1";"2014-10-15 16:37:12.849";"2014-10-15 16:51:39.346";"1";"1";"1";"166";"165";"module.devaluation_block1.exec-4120.deval1";"6139";"2014-10-15 16:48:44.124";"10";"7";"1";"3";"983";"1255";"894";"2014-10-15 16:48:37.991";"2";;;;;;;;;;;;;;;;;;;;;;;;;;;;;;;;;;;;;;;;;;;;;;;;;;;;;;;;;;;;;;;;;;;;;;;;;;;;;;;;
"yellow15";"1995";;"Windows 8";"Rachel's Experiment (D.T.)";"1.0";"2";"1";"1";"2";"1";"1";"2014-10-15 16:37:12.849";"2014-10-15 16:51:39.346";"1";"1";"1";"167";"166";"module.devaluation_block1.exec-4120.deval1";"7197";"2014-10-15 16:48:51.360";"5";"6";"7";"8";"1374";"1401";"1403";"2014-10-15 16:48:44.171";"1";;;;;;;;;;;;;;;;;;;;;;;;;;;;;;;;;;;;;;;;;;;;;;;;;;;;;;;;;;;;;;;;;;;;;;;;;;;;;;;;
"yellow15";"1995";;"Windows 8";"Rachel's Experiment (D.T.)";"1.0";"2";"1";"1";"2";"1";"1";"2014-10-15 16:37:12.849";"2014-10-15 16:51:39.346";"1";"1";"1";"168";"167";"module.devaluation_block1.exec-4120.deval1";"6037";"2014-10-15 16:48:57.436";"17";"3";"2";"2";"885";"1055";"1078";"2014-10-15 16:48:51.407";"2";;;;;;;;;;;;;;;;;;;;;;;;;;;;;;;;;;;;;;;;;;;;;;;;;;;;;;;;;;;;;;;;;;;;;;;;;;;;;;;;
"yellow15";"1995";;"Windows 8";"Rachel's Experiment (D.T.)";"1.0";"2";"1";"1";"2";"1";"1";"2014-10-15 16:37:12.849";"2014-10-15 16:51:39.346";"1";"1";"1";"169";"168";"module.devaluation_block1.exec-4120.deval1";"6759";"2014-10-15 16:49:04.240";"15";"2";"1";"2";"980";"1663";"1110";"2014-10-15 16:48:57.483";"2";;;;;;;;;;;;;;;;;;;;;;;;;;;;;;;;;;;;;;;;;;;;;;;;;;;;;;;;;;;;;;;;;;;;;;;;;;;;;;;;
"yellow15";"1995";;"Windows 8";"Rachel's Experiment (D.T.)";"1.0";"2";"1";"1";"2";"1";"1";"2014-10-15 16:37:12.849";"2014-10-15 16:51:39.346";"1";"1";"1";"170";"169";"module.devaluation_block1.exec-4120.deval1";"9293";"2014-10-15 16:49:13.574";"6";"5";"5";"7";"2701";"1576";"2000";"2014-10-15 16:49:04.287";"1";;;;;;;;;;;;;;;;;;;;;;;;;;;;;;;;;;;;;;;;;;;;;;;;;;;;;;;;;;;;;;;;;;;;;;;;;;;;;;;;
"yellow15";"1995";;"Windows 8";"Rachel's Experiment (D.T.)";"1.0";"2";"1";"1";"2";"1";"1";"2014-10-15 16:37:12.849";"2014-10-15 16:51:39.346";"1";"1";"1";"171";"170";"module.devaluation_block1.exec-4120.deval1";"7446";"2014-10-15 16:49:21.073";"9";"4";"4";"6";"1130";"2036";"1259";"2014-10-15 16:49:13.637";"2";;;;;;;;;;;;;;;;;;;;;;;;;;;;;;;;;;;;;;;;;;;;;;;;;;;;;;;;;;;;;;;;;;;;;;;;;;;;;;;;
"yellow15";"1995";;"Windows 8";"Rachel's Experiment (D.T.)";"1.0";"2";"1";"1";"2";"1";"1";"2014-10-15 16:37:12.849";"2014-10-15 16:51:39.346";"1";"1";"1";"172";"171";"module.devaluation_block1.exec-4120.deval1";"7621";"2014-10-15 16:49:28.757";"22";"7";"6";"4";"939";"2483";"1189";"2014-10-15 16:49:21.136";"3";;;;;;;;;;;;;;;;;;;;;;;;;;;;;;;;;;;;;;;;;;;;;;;;;;;;;;;;;;;;;;;;;;;;;;;;;;;;;;;;
"yellow15";"1995";;"Windows 8";"Rachel's Experiment (D.T.)";"1.0";"2";"1";"1";"2";"1";"1";"2014-10-15 16:37:12.849";"2014-10-15 16:51:39.346";"1";"1";"1";"173";"172";"module.devaluation_block1.exec-4120.deval1";"9798";"2014-10-15 16:49:38.602";"7";"6";"3";"4";"2617";"2000";"2153";"2014-10-15 16:49:28.804";"1";;;;;;;;;;;;;;;;;;;;;;;;;;;;;;;;;;;;;;;;;;;;;;;;;;;;;;;;;;;;;;;;;;;;;;;;;;;;;;;;
"yellow15";"1995";;"Windows 8";"Rachel's Experiment (D.T.)";"1.0";"2";"1";"1";"2";"1";"1";"2014-10-15 16:37:12.849";"2014-10-15 16:51:39.346";"1";"1";"1";"174";"173";"module.devaluation_block1.exec-4120.deval1";"8059";"2014-10-15 16:49:46.702";"19";"3";"3";"6";"2647";"1243";"1159";"2014-10-15 16:49:38.649";"3";;;;;;;;;;;;;;;;;;;;;;;;;;;;;;;;;;;;;;;;;;;;;;;;;;;;;;;;;;;;;;;;;;;;;;;;;;;;;;;;
"yellow15";"1995";;"Windows 8";"Rachel's Experiment (D.T.)";"1.0";"2";"1";"1";"2";"1";"1";"2014-10-15 16:37:12.849";"2014-10-15 16:51:39.346";"1";"1";"1";"175";"174";"module.devaluation_block1.exec-4120.deval1";"8570";"2014-10-15 16:49:55.307";"21";"6";"2";"4";"2324";"814";"2419";"2014-10-15 16:49:46.733";"3";;;;;;;;;;;;;;;;;;;;;;;;;;;;;;;;;;;;;;;;;;;;;;;;;;;;;;;;;;;;;;;;;;;;;;;;;;;;;;;;
"yellow15";"1995";;"Windows 8";"Rachel's Experiment (D.T.)";"1.0";"2";"1";"1";"2";"1";"1";"2014-10-15 16:37:12.849";"2014-10-15 16:51:39.346";"1";"1";"1";"176";"175";"module.devaluation_block1.exec-4120.deval1";"7037";"2014-10-15 16:50:02.369";"1";"6";"2";"3";"1393";"1829";"809";"2014-10-15 16:49:55.322";"1";;;;;;;;;;;;;;;;;;;;;;;;;;;;;;;;;;;;;;;;;;;;;;;;;;;;;;;;;;;;;;;;;;;;;;;;;;;;;;;;
"yellow15";"1995";;"Windows 8";"Rachel's Experiment (D.T.)";"1.0";"2";"1";"1";"2";"1";"1";"2014-10-15 16:37:12.849";"2014-10-15 16:51:39.346";"1";"1";"1";"177";"176";"module.devaluation_block1.exec-4120.deval1";"7672";"2014-10-15 16:50:10.087";"14";"7";"3";"7";"833";"1165";"2664";"2014-10-15 16:50:02.400";"2";;;;;;;;;;;;;;;;;;;;;;;;;;;;;;;;;;;;;;;;;;;;;;;;;;;;;;;;;;;;;;;;;;;;;;;;;;;;;;;;
"yellow15";"1995";;"Windows 8";"Rachel's Experiment (D.T.)";"1.0";"2";"1";"1";"2";"1";"1";"2014-10-15 16:37:12.849";"2014-10-15 16:51:39.346";"1";"1";"1";"178";"177";"module.devaluation_block1.exec-4120.deval1";"5618";"2014-10-15 16:50:15.754";"0";"4";"2";"2";"779";"936";"893";"2014-10-15 16:50:10.133";"1";;;;;;;;;;;;;;;;;;;;;;;;;;;;;;;;;;;;;;;;;;;;;;;;;;;;;;;;;;;;;;;;;;;;;;;;;;;;;;;;
"yellow15";"1995";;"Windows 8";"Rachel's Experiment (D.T.)";"1.0";"2";"1";"1";"2";"1";"1";"2014-10-15 16:37:12.849";"2014-10-15 16:51:39.346";"1";"1";"1";"179";"178";"module.devaluation_block1.exec-4120.deval1";"5427";"2014-10-15 16:50:21.232";"20";"7";"5";"5";"800";"1281";"348";"2014-10-15 16:50:15.800";"3";;;;;;;;;;;;;;;;;;;;;;;;;;;;;;;;;;;;;;;;;;;;;;;;;;;;;;;;;;;;;;;;;;;;;;;;;;;;;;;;
"yellow15";"1995";;"Windows 8";"Rachel's Experiment (D.T.)";"1.0";"2";"1";"1";"2";"1";"1";"2014-10-15 16:37:12.849";"2014-10-15 16:51:39.346";"1";"1";"1";"180";"179";"module.devaluation_block1.exec-4120.deval1";"7908";"2014-10-15 16:50:29.177";"12";"8";"8";"8";"1147";"2007";"1724";"2014-10-15 16:50:21.278";"2";;;;;;;;;;;;;;;;;;;;;;;;;;;;;;;;;;;;;;;;;;;;;;;;;;;;;;;;;;;;;;;;;;;;;;;;;;;;;;;;
"yellow15";"1995";;"Windows 8";"Rachel's Experiment (D.T.)";"1.0";"2";"1";"1";"2";"1";"1";"2014-10-15 16:37:12.849";"2014-10-15 16:51:39.346";"1";"1";"1";"181";"180";"module.devaluation_block1.exec-4120.deval1";"6548";"2014-10-15 16:50:35.767";"26";"8";"8";"9";"1172";"1088";"1280";"2014-10-15 16:50:29.224";"3";;;;;;;;;;;;;;;;;;;;;;;;;;;;;;;;;;;;;;;;;;;;;;;;;;;;;;;;;;;;;;;;;;;;;;;;;;;;;;;;
"yellow15";"1995";;"Windows 8";"Rachel's Experiment (D.T.)";"1.0";"2";"1";"1";"2";"1";"1";"2014-10-15 16:37:12.849";"2014-10-15 16:51:39.346";"1";"1";"1";"182";"181";"module.devaluation_block1.exec-4120.deval1";"5634";"2014-10-15 16:50:41.455";"4";"7";"7";"7";"875";"1028";"709";"2014-10-15 16:50:35.813";"1";;;;;;;;;;;;;;;;;;;;;;;;;;;;;;;;;;;;;;;;;;;;;;;;;;;;;;;;;;;;;;;;;;;;;;;;;;;;;;;;
"yellow15";"1995";;"Windows 8";"Rachel's Experiment (D.T.)";"1.0";"2";"1";"1";"2";"1";"1";"2014-10-15 16:37:12.849";"2014-10-15 16:51:39.346";"1";"1";"1";"183";"182";"module.devaluation_block1.exec-4120.deval1";"6436";"2014-10-15 16:50:47.926";"8";"6";"5";"3";"2035";"633";"752";"2014-10-15 16:50:41.502";"1";;;;;;;;;;;;;;;;;;;;;;;;;;;;;;;;;;;;;;;;;;;;;;;;;;;;;;;;;;;;;;;;;;;;;;;;;;;;;;;;
"yellow15";"1995";;"Windows 8";"Rachel's Experiment (D.T.)";"1.0";"2";"1";"1";"2";"1";"1";"2014-10-15 16:37:12.849";"2014-10-15 16:51:39.346";"1";"1";"1";"184";"183";"module.devaluation_block1.exec-4120.deval1";"6135";"2014-10-15 16:50:54.101";"18";"3";"3";"3";"1225";"1120";"777";"2014-10-15 16:50:47.973";"3";;;;;;;;;;;;;;;;;;;;;;;;;;;;;;;;;;;;;;;;;;;;;;;;;;;;;;;;;;;;;;;;;;;;;;;;;;;;;;;;
"yellow15";"1995";;"Windows 8";"Rachel's Experiment (D.T.)";"1.0";"2";"1";"1";"2";"1";"1";"2014-10-15 16:37:12.849";"2014-10-15 16:51:39.346";"1";"1";"1";"185";"184";"module.devaluation_block1.exec-4120.deval1";"6378";"2014-10-15 16:51:00.526";"25";"8";"3";"7";"1034";"849";"1491";"2014-10-15 16:50:54.148";"3";;;;;;;;;;;;;;;;;;;;;;;;;;;;;;;;;;;;;;;;;;;;;;;;;;;;;;;;;;;;;;;;;;;;;;;;;;;;;;;;
"yellow15";"1995";;"Windows 8";"Rachel's Experiment (D.T.)";"1.0";"2";"1";"1";"2";"1";"1";"2014-10-15 16:37:12.849";"2014-10-15 16:51:39.346";"1";"1";"1";"186";"185";"module.devaluation_block1.exec-4120.deval1";"5609";"2014-10-15 16:51:06.177";"24";"7";"6";"7";"1113";"593";"879";"2014-10-15 16:51:00.573";"3";;;;;;;;;;;;;;;;;;;;;;;;;;;;;;;;;;;;;;;;;;;;;;;;;;;;;;;;;;;;;;;;;;;;;;;;;;;;;;;;
"yellow15";"1995";;"Windows 8";"Rachel's Experiment (D.T.)";"1.0";"2";"1";"1";"2";"1";"1";"2014-10-15 16:37:12.849";"2014-10-15 16:51:39.346";"1";"1";"1";"187";"186";"module.devaluation_block1.exec-4120.deval1";"8069";"2014-10-15 16:51:14.289";"11";"2";"1";"4";"2931";"1160";"954";"2014-10-15 16:51:06.224";"2";;;;;;;;;;;;;;;;;;;;;;;;;;;;;;;;;;;;;;;;;;;;;;;;;;;;;;;;;;;;;;;;;;;;;;;;;;;;;;;;
"yellow15";"1995";;"Windows 8";"Rachel's Experiment (D.T.)";"1.0";"2";"1";"1";"2";"1";"1";"2014-10-15 16:37:12.849";"2014-10-15 16:51:39.346";"1";"1";"1";"188";"187";"module.devaluation_block1.exec-4120.deval1";"8083";"2014-10-15 16:51:22.418";"3";"8";"8";"7";"993";"1887";"2183";"2014-10-15 16:51:14.336";"1";;;;;;;;;;;;;;;;;;;;;;;;;;;;;;;;;;;;;;;;;;;;;;;;;;;;;;;;;;;;;;;;;;;;;;;;;;;;;;;;
"yellow15";"1995";;"Windows 8";"Rachel's Experiment (D.T.)";"1.0";"2";"1";"1";"2";"1";"1";"2014-10-15 16:37:12.849";"2014-10-15 16:51:39.346";"1";"1";"1";"189";"188";"module.devaluation_block1.exec-4120.deval1";"7967";"2014-10-15 16:51:30.422";"23";"5";"4";"3";"767";"1727";"2465";"2014-10-15 16:51:22.449";"3";;;;;;;;;;;;;;;;;;;;;;;;;;;;;;;;;;;;;;;;;;;;;;;;;;;;;;;;;;;;;;;;;;;;;;;;;;;;;;;;
"yellow15";"1995";;"Windows 8";"Rachel's Experiment (D.T.)";"1.0";"2";"1";"1";"2";"1";"1";"2014-10-15 16:37:12.849";"2014-10-15 16:51:39.346";"1";"1";"1";"190";"189";"module.devaluation_block1.exec-4120.deval1";"6181";"2014-10-15 16:51:36.651";"2";"7";"3";"4";"1399";"1026";"741";"2014-10-15 16:51:30.469";"1";;;;;;;;;;;;;;;;;;;;;;;;;;;;;;;;;;;;;;;;;;;;;;;;;;;;;;;;;;;;;;;;;;;;;;;;;;;;;;;;
