"user.name";"user.yearOfBirth";"user.sex";"user.osName";"module.name";"module.version";"module.online.subject.code";"module.online.study.id";"module.online.module.nr";"module.online.group.nr";"session.id";"session.index";"session.startTime";"session.endTime";"session.completed";"session.node-6293.conditionType";"session.node-9403.DevalQorder";"trial.id";"trial.index";"trial.name";"trial.deval1.durationTime";"trial.deval1.endTime";"trial.deval1.icon";"trial.deval1.Resp_Attractive";"trial.deval1.Resp_Eat";"trial.deval1.Resp_Taste";"trial.deval1.RT_Attractive";"trial.deval1.RT_Eat";"trial.deval1.RT_Taste";"trial.deval1.startTime";"trial.deval1.stimulus type";"trial.devalPractice.durationTime";"trial.devalPractice.endTime";"trial.devalPractice.icon";"trial.devalPractice.Resp_Attractive";"trial.devalPractice.Resp_Eat";"trial.devalPractice.Resp_Taste";"trial.devalPractice.RT_Attractive";"trial.devalPractice.RT_Eat";"trial.devalPractice.RT_Taste";"trial.devalPractice.startTime";"trial.devalPractice.stimulus type";"trial.GoNoGo1.durationTime";"trial.GoNoGo1.endTime";"trial.GoNoGo1.Error Type";"trial.GoNoGo1.icon";"trial.GoNoGo1.location";"trial.GoNoGo1.outcome";"trial.GoNoGo1.response";"trial.GoNoGo1.result";"trial.GoNoGo1.RT";"trial.GoNoGo1.signal";"trial.GoNoGo1.startTime";"trial.GoNoGo1.stimulus type";"trial.GoNoGo2.durationTime";"trial.GoNoGo2.endTime";"trial.GoNoGo2.Error Type";"trial.GoNoGo2.icon";"trial.GoNoGo2.location";"trial.GoNoGo2.outcome";"trial.GoNoGo2.response";"trial.GoNoGo2.result";"trial.GoNoGo2.RT";"trial.GoNoGo2.signal";"trial.GoNoGo2.startTime";"trial.GoNoGo2.stimulus type";"trial.GoNoGo3.durationTime";"trial.GoNoGo3.endTime";"trial.GoNoGo3.Error Type";"trial.GoNoGo3.icon";"trial.GoNoGo3.location";"trial.GoNoGo3.outcome";"trial.GoNoGo3.response";"trial.GoNoGo3.result";"trial.GoNoGo3.RT";"trial.GoNoGo3.signal";"trial.GoNoGo3.startTime";"trial.GoNoGo3.stimulus type";"trial.GoNoGo4.durationTime";"trial.GoNoGo4.endTime";"trial.GoNoGo4.Error Type";"trial.GoNoGo4.icon";"trial.GoNoGo4.location";"trial.GoNoGo4.outcome";"trial.GoNoGo4.response";"trial.GoNoGo4.result";"trial.GoNoGo4.RT";"trial.GoNoGo4.signal";"trial.GoNoGo4.startTime";"trial.GoNoGo4.stimulus type";"trial.GoNoGo_Practice.durationTime";"trial.GoNoGo_Practice.endTime";"trial.GoNoGo_Practice.icon";"trial.GoNoGo_Practice.location";"trial.GoNoGo_Practice.outcome";"trial.GoNoGo_Practice.response";"trial.GoNoGo_Practice.result";"trial.GoNoGo_Practice.RT";"trial.GoNoGo_Practice.signal";"trial.GoNoGo_Practice.startTime";"trial.GoNoGo_Practice.stimulus type";"trial.GoNoGo_Tutorial.durationTime";"trial.GoNoGo_Tutorial.endTime";"trial.GoNoGo_Tutorial.icon";"trial.GoNoGo_Tutorial.location";"trial.GoNoGo_Tutorial.outcome";"trial.GoNoGo_Tutorial.response";"trial.GoNoGo_Tutorial.result";"trial.GoNoGo_Tutorial.RT";"trial.GoNoGo_Tutorial.signal";"trial.GoNoGo_Tutorial.startTime"
"C1338715";;;"Windows 7";"Rachel's Experiment (D.T.)";"1.0";"2";"1";"1";"2";"1";"1";"2014-10-16 13:32:50.083";"2014-10-16 13:49:41.577";"1";"1";"0";"1";"0";"module.GoNoGotutorial.exec-5532.GoNoGo_Tutorial";;;;;;;;;;;;;;;;;;;;;;;;;;;;;;;;;;;;;;;;;;;;;;;;;;;;;;;;;;;;;;;;;;;;;;;;;;;;;;;;;;"3998";"2014-10-16 13:34:33.593";"leftResponse";"0";"FINISHED";"LEFT";"success";"1646";"0";"2014-10-16 13:34:29.583"
"C1338715";;;"Windows 7";"Rachel's Experiment (D.T.)";"1.0";"2";"1";"1";"2";"1";"1";"2014-10-16 13:32:50.083";"2014-10-16 13:49:41.577";"1";"1";"0";"2";"1";"module.GoNoGotutorial.exec-5532.GoNoGo_Tutorial";;;;;;;;;;;;;;;;;;;;;;;;;;;;;;;;;;;;;;;;;;;;;;;;;;;;;;;;;;;;;;;;;;;;;;;;;;;;;;;;;;"4003";"2014-10-16 13:34:38.897";"rightResponse";"1";"FINISHED";"RIGHT";"success";"1267";"0";"2014-10-16 13:34:34.887"
"C1338715";;;"Windows 7";"Rachel's Experiment (D.T.)";"1.0";"2";"1";"1";"2";"1";"1";"2014-10-16 13:32:50.083";"2014-10-16 13:49:41.577";"1";"1";"0";"3";"2";"module.GoNoGotutorial.exec-5532.GoNoGo_Tutorial";;;;;;;;;;;;;;;;;;;;;;;;;;;;;;;;;;;;;;;;;;;;;;;;;;;;;;;;;;;;;;;;;;;;;;;;;;;;;;;;;;"4003";"2014-10-16 13:34:44.201";"signalResponse";"0";"FINISHED";"NONE";"success";"0";"1";"2014-10-16 13:34:40.192"
"C1338715";;;"Windows 7";"Rachel's Experiment (D.T.)";"1.0";"2";"1";"1";"2";"1";"1";"2014-10-16 13:32:50.083";"2014-10-16 13:49:41.577";"1";"1";"0";"4";"3";"module.GoNoGopractice.exec-2712.GoNoGo_Practice";;;;;;;;;;;;;;;;;;;;;;;;;;;;;;;;;;;;;;;;;;;;;;;;;;;;;;;;;;;;;;;;;;;;;;;"1958";"2014-10-16 13:34:51.721";"18";"0";"FINISHED";"LEFT";"success";"574";"0";"2014-10-16 13:34:49.755";"3";;;;;;;;;;
"C1338715";;;"Windows 7";"Rachel's Experiment (D.T.)";"1.0";"2";"1";"1";"2";"1";"1";"2014-10-16 13:32:50.083";"2014-10-16 13:49:41.577";"1";"1";"0";"5";"4";"module.GoNoGopractice.exec-2712.GoNoGo_Practice";;;;;;;;;;;;;;;;;;;;;;;;;;;;;;;;;;;;;;;;;;;;;;;;;;;;;;;;;;;;;;;;;;;;;;;"1959";"2014-10-16 13:34:54.981";"21";"1";"FINISHED";"RIGHT";"success";"916";"0";"2014-10-16 13:34:53.015";"3";;;;;;;;;;
"C1338715";;;"Windows 7";"Rachel's Experiment (D.T.)";"1.0";"2";"1";"1";"2";"1";"1";"2014-10-16 13:32:50.083";"2014-10-16 13:49:41.577";"1";"1";"0";"6";"5";"module.GoNoGopractice.exec-2712.GoNoGo_Practice";;;;;;;;;;;;;;;;;;;;;;;;;;;;;;;;;;;;;;;;;;;;;;;;;;;;;;;;;;;;;;;;;;;;;;;"1959";"2014-10-16 13:34:58.226";"14";"1";"FINISHED";"NONE";"success";"0";"1";"2014-10-16 13:34:56.260";"2";;;;;;;;;;
"C1338715";;;"Windows 7";"Rachel's Experiment (D.T.)";"1.0";"2";"1";"1";"2";"1";"1";"2014-10-16 13:32:50.083";"2014-10-16 13:49:41.577";"1";"1";"0";"7";"6";"module.GoNoGopractice.exec-2712.GoNoGo_Practice";;;;;;;;;;;;;;;;;;;;;;;;;;;;;;;;;;;;;;;;;;;;;;;;;;;;;;;;;;;;;;;;;;;;;;;"1959";"2014-10-16 13:35:01.471";"26";"0";"FINISHED";"LEFT";"success";"554";"0";"2014-10-16 13:34:59.505";"3";;;;;;;;;;
"C1338715";;;"Windows 7";"Rachel's Experiment (D.T.)";"1.0";"2";"1";"1";"2";"1";"1";"2014-10-16 13:32:50.083";"2014-10-16 13:49:41.577";"1";"1";"0";"8";"7";"module.GoNoGopractice.exec-2712.GoNoGo_Practice";;;;;;;;;;;;;;;;;;;;;;;;;;;;;;;;;;;;;;;;;;;;;;;;;;;;;;;;;;;;;;;;;;;;;;;"1959";"2014-10-16 13:35:04.716";"2";"0";"FINISHED";"LEFT";"success";"485";"0";"2014-10-16 13:35:02.750";"1";;;;;;;;;;
"C1338715";;;"Windows 7";"Rachel's Experiment (D.T.)";"1.0";"2";"1";"1";"2";"1";"1";"2014-10-16 13:32:50.083";"2014-10-16 13:49:41.577";"1";"1";"0";"9";"8";"module.GoNoGopractice.exec-2712.GoNoGo_Practice";;;;;;;;;;;;;;;;;;;;;;;;;;;;;;;;;;;;;;;;;;;;;;;;;;;;;;;;;;;;;;;;;;;;;;;"1960";"2014-10-16 13:35:07.961";"30";"0";"FINISHED";"NONE";"success";"0";"1";"2014-10-16 13:35:05.995";"3";;;;;;;;;;
"C1338715";;;"Windows 7";"Rachel's Experiment (D.T.)";"1.0";"2";"1";"1";"2";"1";"1";"2014-10-16 13:32:50.083";"2014-10-16 13:49:41.577";"1";"1";"0";"10";"9";"module.GoNoGopractice.exec-2712.GoNoGo_Practice";;;;;;;;;;;;;;;;;;;;;;;;;;;;;;;;;;;;;;;;;;;;;;;;;;;;;;;;;;;;;;;;;;;;;;;"1959";"2014-10-16 13:35:11.206";"6";"1";"FINISHED";"RIGHT";"failure";"540";"1";"2014-10-16 13:35:09.240";"1";;;;;;;;;;
"C1338715";;;"Windows 7";"Rachel's Experiment (D.T.)";"1.0";"2";"1";"1";"2";"1";"1";"2014-10-16 13:32:50.083";"2014-10-16 13:49:41.577";"1";"1";"0";"11";"10";"module.GoNoGopractice.exec-2712.GoNoGo_Practice";;;;;;;;;;;;;;;;;;;;;;;;;;;;;;;;;;;;;;;;;;;;;;;;;;;;;;;;;;;;;;;;;;;;;;;"1960";"2014-10-16 13:35:14.451";"34";"0";"FINISHED";"LEFT";"success";"863";"0";"2014-10-16 13:35:12.485";"3";;;;;;;;;;
"C1338715";;;"Windows 7";"Rachel's Experiment (D.T.)";"1.0";"2";"1";"1";"2";"1";"1";"2014-10-16 13:32:50.083";"2014-10-16 13:49:41.577";"1";"1";"0";"12";"11";"module.GoNoGopractice.exec-2712.GoNoGo_Practice";;;;;;;;;;;;;;;;;;;;;;;;;;;;;;;;;;;;;;;;;;;;;;;;;;;;;;;;;;;;;;;;;;;;;;;"1959";"2014-10-16 13:35:17.696";"23";"1";"FINISHED";"RIGHT";"success";"714";"0";"2014-10-16 13:35:15.730";"3";;;;;;;;;;
"C1338715";;;"Windows 7";"Rachel's Experiment (D.T.)";"1.0";"2";"1";"1";"2";"1";"1";"2014-10-16 13:32:50.083";"2014-10-16 13:49:41.577";"1";"1";"0";"13";"12";"module.GoNoGopractice.exec-2712.GoNoGo_Practice";;;;;;;;;;;;;;;;;;;;;;;;;;;;;;;;;;;;;;;;;;;;;;;;;;;;;;;;;;;;;;;;;;;;;;;"1959";"2014-10-16 13:35:20.940";"13";"0";"FINISHED";"NONE";"success";"0";"1";"2014-10-16 13:35:18.975";"2";;;;;;;;;;
"C1338715";;;"Windows 7";"Rachel's Experiment (D.T.)";"1.0";"2";"1";"1";"2";"1";"1";"2014-10-16 13:32:50.083";"2014-10-16 13:49:41.577";"1";"1";"0";"14";"13";"module.GoNoGopractice.exec-2712.GoNoGo_Practice";;;;;;;;;;;;;;;;;;;;;;;;;;;;;;;;;;;;;;;;;;;;;;;;;;;;;;;;;;;;;;;;;;;;;;;"1958";"2014-10-16 13:35:24.279";"3";"1";"FINISHED";"RIGHT";"success";"442";"0";"2014-10-16 13:35:22.313";"1";;;;;;;;;;
"C1338715";;;"Windows 7";"Rachel's Experiment (D.T.)";"1.0";"2";"1";"1";"2";"1";"1";"2014-10-16 13:32:50.083";"2014-10-16 13:49:41.577";"1";"1";"0";"15";"14";"module.GoNoGopractice.exec-2712.GoNoGo_Practice";;;;;;;;;;;;;;;;;;;;;;;;;;;;;;;;;;;;;;;;;;;;;;;;;;;;;;;;;;;;;;;;;;;;;;;"1959";"2014-10-16 13:35:27.524";"27";"1";"FINISHED";"NONE";"success";"0";"1";"2014-10-16 13:35:25.558";"3";;;;;;;;;;
"C1338715";;;"Windows 7";"Rachel's Experiment (D.T.)";"1.0";"2";"1";"1";"2";"1";"1";"2014-10-16 13:32:50.083";"2014-10-16 13:49:41.577";"1";"1";"0";"16";"15";"module.training_block1.exec-8118.GoNoGo1";;;;;;;;;;;;;;;;;;;;;;;"1257";"2014-10-16 13:36:30.348";"ST_failedStop";"5";"0";"FINISHED";"LEFT";"failure";"441";"1";"2014-10-16 13:36:29.084";"1";;;;;;;;;;;;;;;;;;;;;;;;;;;;;;;;;;;;;;;;;;;;;;;;;;;;;;;;;
"C1338715";;;"Windows 7";"Rachel's Experiment (D.T.)";"1.0";"2";"1";"1";"2";"1";"1";"2014-10-16 13:32:50.083";"2014-10-16 13:49:41.577";"1";"1";"0";"17";"16";"module.training_block1.exec-8118.GoNoGo1";;;;;;;;;;;;;;;;;;;;;;;"1258";"2014-10-16 13:36:32.890";"ST_failedStop";"25";"0";"FINISHED";"LEFT";"failure";"676";"1";"2014-10-16 13:36:31.627";"3";;;;;;;;;;;;;;;;;;;;;;;;;;;;;;;;;;;;;;;;;;;;;;;;;;;;;;;;;
"C1338715";;;"Windows 7";"Rachel's Experiment (D.T.)";"1.0";"2";"1";"1";"2";"1";"1";"2014-10-16 13:32:50.083";"2014-10-16 13:49:41.577";"1";"1";"0";"18";"17";"module.training_block1.exec-8118.GoNoGo1";;;;;;;;;;;;;;;;;;;;;;;"1257";"2014-10-16 13:36:35.433";"ST_correctStop";"4";"0";"FINISHED";"NONE";"success";"0";"1";"2014-10-16 13:36:34.170";"1";;;;;;;;;;;;;;;;;;;;;;;;;;;;;;;;;;;;;;;;;;;;;;;;;;;;;;;;;
"C1338715";;;"Windows 7";"Rachel's Experiment (D.T.)";"1.0";"2";"1";"1";"2";"1";"1";"2014-10-16 13:32:50.083";"2014-10-16 13:49:41.577";"1";"1";"0";"19";"18";"module.training_block1.exec-8118.GoNoGo1";;;;;;;;;;;;;;;;;;;;;;;"1257";"2014-10-16 13:36:37.976";"NST_correctLoc";"14";"0";"FINISHED";"LEFT";"success";"806";"0";"2014-10-16 13:36:36.713";"2";;;;;;;;;;;;;;;;;;;;;;;;;;;;;;;;;;;;;;;;;;;;;;;;;;;;;;;;;
"C1338715";;;"Windows 7";"Rachel's Experiment (D.T.)";"1.0";"2";"1";"1";"2";"1";"1";"2014-10-16 13:32:50.083";"2014-10-16 13:49:41.577";"1";"1";"0";"20";"19";"module.training_block1.exec-8118.GoNoGo1";;;;;;;;;;;;;;;;;;;;;;;"1258";"2014-10-16 13:36:40.519";"NST_correctLoc";"35";"1";"FINISHED";"RIGHT";"success";"512";"0";"2014-10-16 13:36:39.255";"3";;;;;;;;;;;;;;;;;;;;;;;;;;;;;;;;;;;;;;;;;;;;;;;;;;;;;;;;;
"C1338715";;;"Windows 7";"Rachel's Experiment (D.T.)";"1.0";"2";"1";"1";"2";"1";"1";"2014-10-16 13:32:50.083";"2014-10-16 13:49:41.577";"1";"1";"0";"21";"20";"module.training_block1.exec-8118.GoNoGo1";;;;;;;;;;;;;;;;;;;;;;;"1257";"2014-10-16 13:36:43.062";"NST_correctLoc";"32";"1";"FINISHED";"RIGHT";"success";"520";"0";"2014-10-16 13:36:41.798";"3";;;;;;;;;;;;;;;;;;;;;;;;;;;;;;;;;;;;;;;;;;;;;;;;;;;;;;;;;
"C1338715";;;"Windows 7";"Rachel's Experiment (D.T.)";"1.0";"2";"1";"1";"2";"1";"1";"2014-10-16 13:32:50.083";"2014-10-16 13:49:41.577";"1";"1";"0";"22";"21";"module.training_block1.exec-8118.GoNoGo1";;;;;;;;;;;;;;;;;;;;;;;"1258";"2014-10-16 13:36:45.605";"NST_correctLoc";"19";"1";"FINISHED";"RIGHT";"success";"434";"0";"2014-10-16 13:36:44.341";"3";;;;;;;;;;;;;;;;;;;;;;;;;;;;;;;;;;;;;;;;;;;;;;;;;;;;;;;;;
"C1338715";;;"Windows 7";"Rachel's Experiment (D.T.)";"1.0";"2";"1";"1";"2";"1";"1";"2014-10-16 13:32:50.083";"2014-10-16 13:49:41.577";"1";"1";"0";"23";"22";"module.training_block1.exec-8118.GoNoGo1";;;;;;;;;;;;;;;;;;;;;;;"1257";"2014-10-16 13:36:48.148";"NST_correctLoc";"17";"1";"FINISHED";"RIGHT";"success";"546";"0";"2014-10-16 13:36:46.884";"2";;;;;;;;;;;;;;;;;;;;;;;;;;;;;;;;;;;;;;;;;;;;;;;;;;;;;;;;;
"C1338715";;;"Windows 7";"Rachel's Experiment (D.T.)";"1.0";"2";"1";"1";"2";"1";"1";"2014-10-16 13:32:50.083";"2014-10-16 13:49:41.577";"1";"1";"0";"24";"23";"module.training_block1.exec-8118.GoNoGo1";;;;;;;;;;;;;;;;;;;;;;;"1258";"2014-10-16 13:36:50.691";"ST_correctStop";"33";"1";"FINISHED";"NONE";"success";"0";"1";"2014-10-16 13:36:49.427";"3";;;;;;;;;;;;;;;;;;;;;;;;;;;;;;;;;;;;;;;;;;;;;;;;;;;;;;;;;
"C1338715";;;"Windows 7";"Rachel's Experiment (D.T.)";"1.0";"2";"1";"1";"2";"1";"1";"2014-10-16 13:32:50.083";"2014-10-16 13:49:41.577";"1";"1";"0";"25";"24";"module.training_block1.exec-8118.GoNoGo1";;;;;;;;;;;;;;;;;;;;;;;"1258";"2014-10-16 13:36:53.234";"NST_correctLoc";"34";"1";"FINISHED";"RIGHT";"success";"470";"0";"2014-10-16 13:36:51.970";"3";;;;;;;;;;;;;;;;;;;;;;;;;;;;;;;;;;;;;;;;;;;;;;;;;;;;;;;;;
"C1338715";;;"Windows 7";"Rachel's Experiment (D.T.)";"1.0";"2";"1";"1";"2";"1";"1";"2014-10-16 13:32:50.083";"2014-10-16 13:49:41.577";"1";"1";"0";"26";"25";"module.training_block1.exec-8118.GoNoGo1";;;;;;;;;;;;;;;;;;;;;;;"1261";"2014-10-16 13:36:55.777";"ST_correctStop";"27";"0";"FINISHED";"NONE";"success";"0";"1";"2014-10-16 13:36:54.513";"3";;;;;;;;;;;;;;;;;;;;;;;;;;;;;;;;;;;;;;;;;;;;;;;;;;;;;;;;;
"C1338715";;;"Windows 7";"Rachel's Experiment (D.T.)";"1.0";"2";"1";"1";"2";"1";"1";"2014-10-16 13:32:50.083";"2014-10-16 13:49:41.577";"1";"1";"0";"27";"26";"module.training_block1.exec-8118.GoNoGo1";;;;;;;;;;;;;;;;;;;;;;;"1261";"2014-10-16 13:36:58.319";"ST_failedStop";"3";"1";"FINISHED";"RIGHT";"failure";"475";"1";"2014-10-16 13:36:57.056";"1";;;;;;;;;;;;;;;;;;;;;;;;;;;;;;;;;;;;;;;;;;;;;;;;;;;;;;;;;
"C1338715";;;"Windows 7";"Rachel's Experiment (D.T.)";"1.0";"2";"1";"1";"2";"1";"1";"2014-10-16 13:32:50.083";"2014-10-16 13:49:41.577";"1";"1";"0";"28";"27";"module.training_block1.exec-8118.GoNoGo1";;;;;;;;;;;;;;;;;;;;;;;"1251";"2014-10-16 13:37:00.862";"NST_correctLoc";"9";"0";"FINISHED";"LEFT";"success";"682";"0";"2014-10-16 13:36:59.599";"2";;;;;;;;;;;;;;;;;;;;;;;;;;;;;;;;;;;;;;;;;;;;;;;;;;;;;;;;;
"C1338715";;;"Windows 7";"Rachel's Experiment (D.T.)";"1.0";"2";"1";"1";"2";"1";"1";"2014-10-16 13:32:50.083";"2014-10-16 13:49:41.577";"1";"1";"0";"29";"28";"module.training_block1.exec-8118.GoNoGo1";;;;;;;;;;;;;;;;;;;;;;;"1258";"2014-10-16 13:37:03.405";"ST_correctStop";"28";"0";"FINISHED";"NONE";"success";"0";"1";"2014-10-16 13:37:02.142";"3";;;;;;;;;;;;;;;;;;;;;;;;;;;;;;;;;;;;;;;;;;;;;;;;;;;;;;;;;
"C1338715";;;"Windows 7";"Rachel's Experiment (D.T.)";"1.0";"2";"1";"1";"2";"1";"1";"2014-10-16 13:32:50.083";"2014-10-16 13:49:41.577";"1";"1";"0";"30";"29";"module.training_block1.exec-8118.GoNoGo1";;;;;;;;;;;;;;;;;;;;;;;"1258";"2014-10-16 13:37:05.948";"ST_correctStop";"1";"0";"FINISHED";"NONE";"success";"0";"1";"2014-10-16 13:37:04.684";"1";;;;;;;;;;;;;;;;;;;;;;;;;;;;;;;;;;;;;;;;;;;;;;;;;;;;;;;;;
"C1338715";;;"Windows 7";"Rachel's Experiment (D.T.)";"1.0";"2";"1";"1";"2";"1";"1";"2014-10-16 13:32:50.083";"2014-10-16 13:49:41.577";"1";"1";"0";"31";"30";"module.training_block1.exec-8118.GoNoGo1";;;;;;;;;;;;;;;;;;;;;;;"1258";"2014-10-16 13:37:08.491";"NST_correctLoc";"20";"0";"FINISHED";"LEFT";"success";"652";"0";"2014-10-16 13:37:07.227";"3";;;;;;;;;;;;;;;;;;;;;;;;;;;;;;;;;;;;;;;;;;;;;;;;;;;;;;;;;
"C1338715";;;"Windows 7";"Rachel's Experiment (D.T.)";"1.0";"2";"1";"1";"2";"1";"1";"2014-10-16 13:32:50.083";"2014-10-16 13:49:41.577";"1";"1";"0";"32";"31";"module.training_block1.exec-8118.GoNoGo1";;;;;;;;;;;;;;;;;;;;;;;"1257";"2014-10-16 13:37:11.034";"ST_correctStop";"2";"1";"FINISHED";"NONE";"success";"0";"1";"2014-10-16 13:37:09.770";"1";;;;;;;;;;;;;;;;;;;;;;;;;;;;;;;;;;;;;;;;;;;;;;;;;;;;;;;;;
"C1338715";;;"Windows 7";"Rachel's Experiment (D.T.)";"1.0";"2";"1";"1";"2";"1";"1";"2014-10-16 13:32:50.083";"2014-10-16 13:49:41.577";"1";"1";"0";"33";"32";"module.training_block1.exec-8118.GoNoGo1";;;;;;;;;;;;;;;;;;;;;;;"1257";"2014-10-16 13:37:13.577";"NST_correctLoc";"21";"0";"FINISHED";"LEFT";"success";"470";"0";"2014-10-16 13:37:12.313";"3";;;;;;;;;;;;;;;;;;;;;;;;;;;;;;;;;;;;;;;;;;;;;;;;;;;;;;;;;
"C1338715";;;"Windows 7";"Rachel's Experiment (D.T.)";"1.0";"2";"1";"1";"2";"1";"1";"2014-10-16 13:32:50.083";"2014-10-16 13:49:41.577";"1";"1";"0";"34";"33";"module.training_block1.exec-8118.GoNoGo1";;;;;;;;;;;;;;;;;;;;;;;"1258";"2014-10-16 13:37:16.120";"ST_correctStop";"22";"0";"FINISHED";"NONE";"success";"0";"1";"2014-10-16 13:37:14.856";"3";;;;;;;;;;;;;;;;;;;;;;;;;;;;;;;;;;;;;;;;;;;;;;;;;;;;;;;;;
"C1338715";;;"Windows 7";"Rachel's Experiment (D.T.)";"1.0";"2";"1";"1";"2";"1";"1";"2014-10-16 13:32:50.083";"2014-10-16 13:49:41.577";"1";"1";"0";"35";"34";"module.training_block1.exec-8118.GoNoGo1";;;;;;;;;;;;;;;;;;;;;;;"1257";"2014-10-16 13:37:18.663";"ST_correctStop";"8";"0";"FINISHED";"NONE";"success";"0";"1";"2014-10-16 13:37:17.399";"1";;;;;;;;;;;;;;;;;;;;;;;;;;;;;;;;;;;;;;;;;;;;;;;;;;;;;;;;;
"C1338715";;;"Windows 7";"Rachel's Experiment (D.T.)";"1.0";"2";"1";"1";"2";"1";"1";"2014-10-16 13:32:50.083";"2014-10-16 13:49:41.577";"1";"1";"0";"36";"35";"module.training_block1.exec-8118.GoNoGo1";;;;;;;;;;;;;;;;;;;;;;;"1257";"2014-10-16 13:37:21.205";"NST_correctLoc";"26";"1";"FINISHED";"RIGHT";"success";"426";"0";"2014-10-16 13:37:19.942";"3";;;;;;;;;;;;;;;;;;;;;;;;;;;;;;;;;;;;;;;;;;;;;;;;;;;;;;;;;
"C1338715";;;"Windows 7";"Rachel's Experiment (D.T.)";"1.0";"2";"1";"1";"2";"1";"1";"2014-10-16 13:32:50.083";"2014-10-16 13:49:41.577";"1";"1";"0";"37";"36";"module.training_block1.exec-8118.GoNoGo1";;;;;;;;;;;;;;;;;;;;;;;"1257";"2014-10-16 13:37:23.748";"ST_correctStop";"29";"0";"FINISHED";"NONE";"success";"0";"1";"2014-10-16 13:37:22.485";"3";;;;;;;;;;;;;;;;;;;;;;;;;;;;;;;;;;;;;;;;;;;;;;;;;;;;;;;;;
"C1338715";;;"Windows 7";"Rachel's Experiment (D.T.)";"1.0";"2";"1";"1";"2";"1";"1";"2014-10-16 13:32:50.083";"2014-10-16 13:49:41.577";"1";"1";"0";"38";"37";"module.training_block1.exec-8118.GoNoGo1";;;;;;;;;;;;;;;;;;;;;;;"1257";"2014-10-16 13:37:26.291";"ST_correctStop";"6";"1";"FINISHED";"NONE";"success";"0";"1";"2014-10-16 13:37:25.028";"1";;;;;;;;;;;;;;;;;;;;;;;;;;;;;;;;;;;;;;;;;;;;;;;;;;;;;;;;;
"C1338715";;;"Windows 7";"Rachel's Experiment (D.T.)";"1.0";"2";"1";"1";"2";"1";"1";"2014-10-16 13:32:50.083";"2014-10-16 13:49:41.577";"1";"1";"0";"39";"38";"module.training_block1.exec-8118.GoNoGo1";;;;;;;;;;;;;;;;;;;;;;;"1258";"2014-10-16 13:37:28.834";"NST_correctLoc";"16";"0";"FINISHED";"LEFT";"success";"430";"0";"2014-10-16 13:37:27.571";"2";;;;;;;;;;;;;;;;;;;;;;;;;;;;;;;;;;;;;;;;;;;;;;;;;;;;;;;;;
"C1338715";;;"Windows 7";"Rachel's Experiment (D.T.)";"1.0";"2";"1";"1";"2";"1";"1";"2014-10-16 13:32:50.083";"2014-10-16 13:49:41.577";"1";"1";"0";"40";"39";"module.training_block1.exec-8118.GoNoGo1";;;;;;;;;;;;;;;;;;;;;;;"1257";"2014-10-16 13:37:31.377";"ST_correctStop";"30";"0";"FINISHED";"NONE";"success";"0";"1";"2014-10-16 13:37:30.113";"3";;;;;;;;;;;;;;;;;;;;;;;;;;;;;;;;;;;;;;;;;;;;;;;;;;;;;;;;;
"C1338715";;;"Windows 7";"Rachel's Experiment (D.T.)";"1.0";"2";"1";"1";"2";"1";"1";"2014-10-16 13:32:50.083";"2014-10-16 13:49:41.577";"1";"1";"0";"41";"40";"module.training_block1.exec-8118.GoNoGo1";;;;;;;;;;;;;;;;;;;;;;;"1257";"2014-10-16 13:37:33.920";"NST_correctLoc";"13";"0";"FINISHED";"LEFT";"success";"608";"0";"2014-10-16 13:37:32.656";"2";;;;;;;;;;;;;;;;;;;;;;;;;;;;;;;;;;;;;;;;;;;;;;;;;;;;;;;;;
"C1338715";;;"Windows 7";"Rachel's Experiment (D.T.)";"1.0";"2";"1";"1";"2";"1";"1";"2014-10-16 13:32:50.083";"2014-10-16 13:49:41.577";"1";"1";"0";"42";"41";"module.training_block1.exec-8118.GoNoGo1";;;;;;;;;;;;;;;;;;;;;;;"1257";"2014-10-16 13:37:36.463";"NST_correctLoc";"15";"0";"FINISHED";"LEFT";"success";"609";"0";"2014-10-16 13:37:35.199";"2";;;;;;;;;;;;;;;;;;;;;;;;;;;;;;;;;;;;;;;;;;;;;;;;;;;;;;;;;
"C1338715";;;"Windows 7";"Rachel's Experiment (D.T.)";"1.0";"2";"1";"1";"2";"1";"1";"2014-10-16 13:32:50.083";"2014-10-16 13:49:41.577";"1";"1";"0";"43";"42";"module.training_block1.exec-8118.GoNoGo1";;;;;;;;;;;;;;;;;;;;;;;"1252";"2014-10-16 13:37:39.006";"NST_correctLoc";"10";"0";"FINISHED";"LEFT";"success";"605";"0";"2014-10-16 13:37:37.742";"2";;;;;;;;;;;;;;;;;;;;;;;;;;;;;;;;;;;;;;;;;;;;;;;;;;;;;;;;;
"C1338715";;;"Windows 7";"Rachel's Experiment (D.T.)";"1.0";"2";"1";"1";"2";"1";"1";"2014-10-16 13:32:50.083";"2014-10-16 13:49:41.577";"1";"1";"0";"44";"43";"module.training_block1.exec-8118.GoNoGo1";;;;;;;;;;;;;;;;;;;;;;;"1257";"2014-10-16 13:37:41.549";"NST_correctLoc";"11";"0";"FINISHED";"LEFT";"success";"451";"0";"2014-10-16 13:37:40.285";"2";;;;;;;;;;;;;;;;;;;;;;;;;;;;;;;;;;;;;;;;;;;;;;;;;;;;;;;;;
"C1338715";;;"Windows 7";"Rachel's Experiment (D.T.)";"1.0";"2";"1";"1";"2";"1";"1";"2014-10-16 13:32:50.083";"2014-10-16 13:49:41.577";"1";"1";"0";"45";"44";"module.training_block1.exec-8118.GoNoGo1";;;;;;;;;;;;;;;;;;;;;;;"1257";"2014-10-16 13:37:44.107";"ST_correctStop";"31";"0";"FINISHED";"NONE";"success";"0";"1";"2014-10-16 13:37:42.844";"3";;;;;;;;;;;;;;;;;;;;;;;;;;;;;;;;;;;;;;;;;;;;;;;;;;;;;;;;;
"C1338715";;;"Windows 7";"Rachel's Experiment (D.T.)";"1.0";"2";"1";"1";"2";"1";"1";"2014-10-16 13:32:50.083";"2014-10-16 13:49:41.577";"1";"1";"0";"46";"45";"module.training_block1.exec-8118.GoNoGo1";;;;;;;;;;;;;;;;;;;;;;;"1257";"2014-10-16 13:37:46.650";"ST_correctStop";"23";"1";"FINISHED";"NONE";"success";"0";"1";"2014-10-16 13:37:45.386";"3";;;;;;;;;;;;;;;;;;;;;;;;;;;;;;;;;;;;;;;;;;;;;;;;;;;;;;;;;
"C1338715";;;"Windows 7";"Rachel's Experiment (D.T.)";"1.0";"2";"1";"1";"2";"1";"1";"2014-10-16 13:32:50.083";"2014-10-16 13:49:41.577";"1";"1";"0";"47";"46";"module.training_block1.exec-8118.GoNoGo1";;;;;;;;;;;;;;;;;;;;;;;"1258";"2014-10-16 13:37:49.193";"ST_correctStop";"0";"1";"FINISHED";"NONE";"success";"0";"1";"2014-10-16 13:37:47.929";"1";;;;;;;;;;;;;;;;;;;;;;;;;;;;;;;;;;;;;;;;;;;;;;;;;;;;;;;;;
"C1338715";;;"Windows 7";"Rachel's Experiment (D.T.)";"1.0";"2";"1";"1";"2";"1";"1";"2014-10-16 13:32:50.083";"2014-10-16 13:49:41.577";"1";"1";"0";"48";"47";"module.training_block1.exec-8118.GoNoGo1";;;;;;;;;;;;;;;;;;;;;;;"1257";"2014-10-16 13:37:51.736";"ST_correctStop";"7";"0";"FINISHED";"NONE";"success";"0";"1";"2014-10-16 13:37:50.472";"1";;;;;;;;;;;;;;;;;;;;;;;;;;;;;;;;;;;;;;;;;;;;;;;;;;;;;;;;;
"C1338715";;;"Windows 7";"Rachel's Experiment (D.T.)";"1.0";"2";"1";"1";"2";"1";"1";"2014-10-16 13:32:50.083";"2014-10-16 13:49:41.577";"1";"1";"0";"49";"48";"module.training_block1.exec-8118.GoNoGo1";;;;;;;;;;;;;;;;;;;;;;;"1258";"2014-10-16 13:37:54.279";"NST_correctLoc";"24";"0";"FINISHED";"LEFT";"success";"474";"0";"2014-10-16 13:37:53.015";"3";;;;;;;;;;;;;;;;;;;;;;;;;;;;;;;;;;;;;;;;;;;;;;;;;;;;;;;;;
"C1338715";;;"Windows 7";"Rachel's Experiment (D.T.)";"1.0";"2";"1";"1";"2";"1";"1";"2014-10-16 13:32:50.083";"2014-10-16 13:49:41.577";"1";"1";"0";"50";"49";"module.training_block1.exec-8118.GoNoGo1";;;;;;;;;;;;;;;;;;;;;;;"1258";"2014-10-16 13:37:56.822";"NST_correctLoc";"18";"1";"FINISHED";"RIGHT";"success";"379";"0";"2014-10-16 13:37:55.558";"3";;;;;;;;;;;;;;;;;;;;;;;;;;;;;;;;;;;;;;;;;;;;;;;;;;;;;;;;;
"C1338715";;;"Windows 7";"Rachel's Experiment (D.T.)";"1.0";"2";"1";"1";"2";"1";"1";"2014-10-16 13:32:50.083";"2014-10-16 13:49:41.577";"1";"1";"0";"51";"50";"module.training_block1.exec-8118.GoNoGo1";;;;;;;;;;;;;;;;;;;;;;;"1258";"2014-10-16 13:37:59.365";"NST_correctLoc";"12";"0";"FINISHED";"LEFT";"success";"364";"0";"2014-10-16 13:37:58.101";"2";;;;;;;;;;;;;;;;;;;;;;;;;;;;;;;;;;;;;;;;;;;;;;;;;;;;;;;;;
"C1338715";;;"Windows 7";"Rachel's Experiment (D.T.)";"1.0";"2";"1";"1";"2";"1";"1";"2014-10-16 13:32:50.083";"2014-10-16 13:49:41.577";"1";"1";"0";"52";"51";"module.training_block2.exec-7153.GoNoGo2";;;;;;;;;;;;;;;;;;;;;;;;;;;;;;;;;;;"1261";"2014-10-16 13:38:39.552";"ST_correctStop";"4";"0";"FINISHED";"NONE";"success";"0";"1";"2014-10-16 13:38:38.288";"1";;;;;;;;;;;;;;;;;;;;;;;;;;;;;;;;;;;;;;;;;;;;;
"C1338715";;;"Windows 7";"Rachel's Experiment (D.T.)";"1.0";"2";"1";"1";"2";"1";"1";"2014-10-16 13:32:50.083";"2014-10-16 13:49:41.577";"1";"1";"0";"53";"52";"module.training_block2.exec-7153.GoNoGo2";;;;;;;;;;;;;;;;;;;;;;;;;;;;;;;;;;;"1261";"2014-10-16 13:38:42.095";"NST_correctLoc";"35";"0";"FINISHED";"LEFT";"success";"463";"0";"2014-10-16 13:38:40.831";"3";;;;;;;;;;;;;;;;;;;;;;;;;;;;;;;;;;;;;;;;;;;;;
"C1338715";;;"Windows 7";"Rachel's Experiment (D.T.)";"1.0";"2";"1";"1";"2";"1";"1";"2014-10-16 13:32:50.083";"2014-10-16 13:49:41.577";"1";"1";"0";"54";"53";"module.training_block2.exec-7153.GoNoGo2";;;;;;;;;;;;;;;;;;;;;;;;;;;;;;;;;;;"1261";"2014-10-16 13:38:44.637";"NST_correctLoc";"12";"0";"FINISHED";"LEFT";"success";"424";"0";"2014-10-16 13:38:43.374";"2";;;;;;;;;;;;;;;;;;;;;;;;;;;;;;;;;;;;;;;;;;;;;
"C1338715";;;"Windows 7";"Rachel's Experiment (D.T.)";"1.0";"2";"1";"1";"2";"1";"1";"2014-10-16 13:32:50.083";"2014-10-16 13:49:41.577";"1";"1";"0";"55";"54";"module.training_block2.exec-7153.GoNoGo2";;;;;;;;;;;;;;;;;;;;;;;;;;;;;;;;;;;"1261";"2014-10-16 13:38:47.180";"ST_correctStop";"25";"1";"FINISHED";"NONE";"success";"0";"1";"2014-10-16 13:38:45.917";"3";;;;;;;;;;;;;;;;;;;;;;;;;;;;;;;;;;;;;;;;;;;;;
"C1338715";;;"Windows 7";"Rachel's Experiment (D.T.)";"1.0";"2";"1";"1";"2";"1";"1";"2014-10-16 13:32:50.083";"2014-10-16 13:49:41.577";"1";"1";"0";"56";"55";"module.training_block2.exec-7153.GoNoGo2";;;;;;;;;;;;;;;;;;;;;;;;;;;;;;;;;;;"1261";"2014-10-16 13:38:49.723";"ST_correctStop";"5";"1";"FINISHED";"NONE";"success";"0";"1";"2014-10-16 13:38:48.460";"1";;;;;;;;;;;;;;;;;;;;;;;;;;;;;;;;;;;;;;;;;;;;;
"C1338715";;;"Windows 7";"Rachel's Experiment (D.T.)";"1.0";"2";"1";"1";"2";"1";"1";"2014-10-16 13:32:50.083";"2014-10-16 13:49:41.577";"1";"1";"0";"57";"56";"module.training_block2.exec-7153.GoNoGo2";;;;;;;;;;;;;;;;;;;;;;;;;;;;;;;;;;;"1261";"2014-10-16 13:38:52.266";"ST_correctStop";"1";"1";"FINISHED";"NONE";"success";"0";"1";"2014-10-16 13:38:51.003";"1";;;;;;;;;;;;;;;;;;;;;;;;;;;;;;;;;;;;;;;;;;;;;
"C1338715";;;"Windows 7";"Rachel's Experiment (D.T.)";"1.0";"2";"1";"1";"2";"1";"1";"2014-10-16 13:32:50.083";"2014-10-16 13:49:41.577";"1";"1";"0";"58";"57";"module.training_block2.exec-7153.GoNoGo2";;;;;;;;;;;;;;;;;;;;;;;;;;;;;;;;;;;"1261";"2014-10-16 13:38:54.809";"NST_correctLoc";"22";"0";"FINISHED";"LEFT";"success";"389";"0";"2014-10-16 13:38:53.545";"3";;;;;;;;;;;;;;;;;;;;;;;;;;;;;;;;;;;;;;;;;;;;;
"C1338715";;;"Windows 7";"Rachel's Experiment (D.T.)";"1.0";"2";"1";"1";"2";"1";"1";"2014-10-16 13:32:50.083";"2014-10-16 13:49:41.577";"1";"1";"0";"59";"58";"module.training_block2.exec-7153.GoNoGo2";;;;;;;;;;;;;;;;;;;;;;;;;;;;;;;;;;;"1261";"2014-10-16 13:38:57.352";"NST_correctLoc";"10";"0";"FINISHED";"LEFT";"success";"382";"0";"2014-10-16 13:38:56.088";"2";;;;;;;;;;;;;;;;;;;;;;;;;;;;;;;;;;;;;;;;;;;;;
"C1338715";;;"Windows 7";"Rachel's Experiment (D.T.)";"1.0";"2";"1";"1";"2";"1";"1";"2014-10-16 13:32:50.083";"2014-10-16 13:49:41.577";"1";"1";"0";"60";"59";"module.training_block2.exec-7153.GoNoGo2";;;;;;;;;;;;;;;;;;;;;;;;;;;;;;;;;;;"1261";"2014-10-16 13:38:59.895";"NST_correctLoc";"29";"1";"FINISHED";"RIGHT";"success";"375";"0";"2014-10-16 13:38:58.631";"3";;;;;;;;;;;;;;;;;;;;;;;;;;;;;;;;;;;;;;;;;;;;;
"C1338715";;;"Windows 7";"Rachel's Experiment (D.T.)";"1.0";"2";"1";"1";"2";"1";"1";"2014-10-16 13:32:50.083";"2014-10-16 13:49:41.577";"1";"1";"0";"61";"60";"module.training_block2.exec-7153.GoNoGo2";;;;;;;;;;;;;;;;;;;;;;;;;;;;;;;;;;;"1261";"2014-10-16 13:39:02.438";"ST_correctStop";"2";"1";"FINISHED";"NONE";"success";"0";"1";"2014-10-16 13:39:01.174";"1";;;;;;;;;;;;;;;;;;;;;;;;;;;;;;;;;;;;;;;;;;;;;
"C1338715";;;"Windows 7";"Rachel's Experiment (D.T.)";"1.0";"2";"1";"1";"2";"1";"1";"2014-10-16 13:32:50.083";"2014-10-16 13:49:41.577";"1";"1";"0";"62";"61";"module.training_block2.exec-7153.GoNoGo2";;;;;;;;;;;;;;;;;;;;;;;;;;;;;;;;;;;"1261";"2014-10-16 13:39:04.981";"NST_correctLoc";"17";"0";"FINISHED";"LEFT";"success";"378";"0";"2014-10-16 13:39:03.717";"2";;;;;;;;;;;;;;;;;;;;;;;;;;;;;;;;;;;;;;;;;;;;;
"C1338715";;;"Windows 7";"Rachel's Experiment (D.T.)";"1.0";"2";"1";"1";"2";"1";"1";"2014-10-16 13:32:50.083";"2014-10-16 13:49:41.577";"1";"1";"0";"63";"62";"module.training_block2.exec-7153.GoNoGo2";;;;;;;;;;;;;;;;;;;;;;;;;;;;;;;;;;;"1261";"2014-10-16 13:39:07.524";"NST_correctLoc";"14";"1";"FINISHED";"RIGHT";"success";"379";"0";"2014-10-16 13:39:06.260";"2";;;;;;;;;;;;;;;;;;;;;;;;;;;;;;;;;;;;;;;;;;;;;
"C1338715";;;"Windows 7";"Rachel's Experiment (D.T.)";"1.0";"2";"1";"1";"2";"1";"1";"2014-10-16 13:32:50.083";"2014-10-16 13:49:41.577";"1";"1";"0";"64";"63";"module.training_block2.exec-7153.GoNoGo2";;;;;;;;;;;;;;;;;;;;;;;;;;;;;;;;;;;"1261";"2014-10-16 13:39:10.066";"NST_correctLoc";"11";"1";"FINISHED";"RIGHT";"success";"348";"0";"2014-10-16 13:39:08.803";"2";;;;;;;;;;;;;;;;;;;;;;;;;;;;;;;;;;;;;;;;;;;;;
"C1338715";;;"Windows 7";"Rachel's Experiment (D.T.)";"1.0";"2";"1";"1";"2";"1";"1";"2014-10-16 13:32:50.083";"2014-10-16 13:49:41.577";"1";"1";"0";"65";"64";"module.training_block2.exec-7153.GoNoGo2";;;;;;;;;;;;;;;;;;;;;;;;;;;;;;;;;;;"1261";"2014-10-16 13:39:12.609";"ST_correctStop";"0";"1";"FINISHED";"NONE";"success";"0";"1";"2014-10-16 13:39:11.346";"1";;;;;;;;;;;;;;;;;;;;;;;;;;;;;;;;;;;;;;;;;;;;;
"C1338715";;;"Windows 7";"Rachel's Experiment (D.T.)";"1.0";"2";"1";"1";"2";"1";"1";"2014-10-16 13:32:50.083";"2014-10-16 13:49:41.577";"1";"1";"0";"66";"65";"module.training_block2.exec-7153.GoNoGo2";;;;;;;;;;;;;;;;;;;;;;;;;;;;;;;;;;;"1261";"2014-10-16 13:39:15.152";"NST_correctLoc";"15";"1";"FINISHED";"RIGHT";"success";"326";"0";"2014-10-16 13:39:13.889";"2";;;;;;;;;;;;;;;;;;;;;;;;;;;;;;;;;;;;;;;;;;;;;
"C1338715";;;"Windows 7";"Rachel's Experiment (D.T.)";"1.0";"2";"1";"1";"2";"1";"1";"2014-10-16 13:32:50.083";"2014-10-16 13:49:41.577";"1";"1";"0";"67";"66";"module.training_block2.exec-7153.GoNoGo2";;;;;;;;;;;;;;;;;;;;;;;;;;;;;;;;;;;"1261";"2014-10-16 13:39:17.695";"ST_failedStop";"32";"1";"FINISHED";"RIGHT";"failure";"335";"1";"2014-10-16 13:39:16.432";"3";;;;;;;;;;;;;;;;;;;;;;;;;;;;;;;;;;;;;;;;;;;;;
"C1338715";;;"Windows 7";"Rachel's Experiment (D.T.)";"1.0";"2";"1";"1";"2";"1";"1";"2014-10-16 13:32:50.083";"2014-10-16 13:49:41.577";"1";"1";"0";"68";"67";"module.training_block2.exec-7153.GoNoGo2";;;;;;;;;;;;;;;;;;;;;;;;;;;;;;;;;;;"1261";"2014-10-16 13:39:20.238";"NST_correctLoc";"31";"0";"FINISHED";"LEFT";"success";"657";"0";"2014-10-16 13:39:18.974";"3";;;;;;;;;;;;;;;;;;;;;;;;;;;;;;;;;;;;;;;;;;;;;
"C1338715";;;"Windows 7";"Rachel's Experiment (D.T.)";"1.0";"2";"1";"1";"2";"1";"1";"2014-10-16 13:32:50.083";"2014-10-16 13:49:41.577";"1";"1";"0";"69";"68";"module.training_block2.exec-7153.GoNoGo2";;;;;;;;;;;;;;;;;;;;;;;;;;;;;;;;;;;"1261";"2014-10-16 13:39:22.797";"NST_correctLoc";"19";"0";"FINISHED";"LEFT";"success";"458";"0";"2014-10-16 13:39:21.533";"3";;;;;;;;;;;;;;;;;;;;;;;;;;;;;;;;;;;;;;;;;;;;;
"C1338715";;;"Windows 7";"Rachel's Experiment (D.T.)";"1.0";"2";"1";"1";"2";"1";"1";"2014-10-16 13:32:50.083";"2014-10-16 13:49:41.577";"1";"1";"0";"70";"69";"module.training_block2.exec-7153.GoNoGo2";;;;;;;;;;;;;;;;;;;;;;;;;;;;;;;;;;;"1261";"2014-10-16 13:39:25.339";"NST_correctLoc";"9";"1";"FINISHED";"RIGHT";"success";"427";"0";"2014-10-16 13:39:24.076";"2";;;;;;;;;;;;;;;;;;;;;;;;;;;;;;;;;;;;;;;;;;;;;
"C1338715";;;"Windows 7";"Rachel's Experiment (D.T.)";"1.0";"2";"1";"1";"2";"1";"1";"2014-10-16 13:32:50.083";"2014-10-16 13:49:41.577";"1";"1";"0";"71";"70";"module.training_block2.exec-7153.GoNoGo2";;;;;;;;;;;;;;;;;;;;;;;;;;;;;;;;;;;"1261";"2014-10-16 13:39:27.882";"NST_correctLoc";"13";"1";"FINISHED";"RIGHT";"success";"397";"0";"2014-10-16 13:39:26.619";"2";;;;;;;;;;;;;;;;;;;;;;;;;;;;;;;;;;;;;;;;;;;;;
"C1338715";;;"Windows 7";"Rachel's Experiment (D.T.)";"1.0";"2";"1";"1";"2";"1";"1";"2014-10-16 13:32:50.083";"2014-10-16 13:49:41.577";"1";"1";"0";"72";"71";"module.training_block2.exec-7153.GoNoGo2";;;;;;;;;;;;;;;;;;;;;;;;;;;;;;;;;;;"1261";"2014-10-16 13:39:30.425";"NST_correctLoc";"18";"1";"FINISHED";"RIGHT";"success";"366";"0";"2014-10-16 13:39:29.162";"3";;;;;;;;;;;;;;;;;;;;;;;;;;;;;;;;;;;;;;;;;;;;;
"C1338715";;;"Windows 7";"Rachel's Experiment (D.T.)";"1.0";"2";"1";"1";"2";"1";"1";"2014-10-16 13:32:50.083";"2014-10-16 13:49:41.577";"1";"1";"0";"73";"72";"module.training_block2.exec-7153.GoNoGo2";;;;;;;;;;;;;;;;;;;;;;;;;;;;;;;;;;;"1261";"2014-10-16 13:39:32.968";"NST_correctLoc";"33";"0";"FINISHED";"LEFT";"success";"407";"0";"2014-10-16 13:39:31.705";"3";;;;;;;;;;;;;;;;;;;;;;;;;;;;;;;;;;;;;;;;;;;;;
"C1338715";;;"Windows 7";"Rachel's Experiment (D.T.)";"1.0";"2";"1";"1";"2";"1";"1";"2014-10-16 13:32:50.083";"2014-10-16 13:49:41.577";"1";"1";"0";"74";"73";"module.training_block2.exec-7153.GoNoGo2";;;;;;;;;;;;;;;;;;;;;;;;;;;;;;;;;;;"1261";"2014-10-16 13:39:35.511";"ST_correctStop";"23";"0";"FINISHED";"NONE";"success";"0";"1";"2014-10-16 13:39:34.247";"3";;;;;;;;;;;;;;;;;;;;;;;;;;;;;;;;;;;;;;;;;;;;;
"C1338715";;;"Windows 7";"Rachel's Experiment (D.T.)";"1.0";"2";"1";"1";"2";"1";"1";"2014-10-16 13:32:50.083";"2014-10-16 13:49:41.577";"1";"1";"0";"75";"74";"module.training_block2.exec-7153.GoNoGo2";;;;;;;;;;;;;;;;;;;;;;;;;;;;;;;;;;;"1261";"2014-10-16 13:39:38.054";"NST_correctLoc";"16";"0";"FINISHED";"LEFT";"success";"409";"0";"2014-10-16 13:39:36.790";"2";;;;;;;;;;;;;;;;;;;;;;;;;;;;;;;;;;;;;;;;;;;;;
"C1338715";;;"Windows 7";"Rachel's Experiment (D.T.)";"1.0";"2";"1";"1";"2";"1";"1";"2014-10-16 13:32:50.083";"2014-10-16 13:49:41.577";"1";"1";"0";"76";"75";"module.training_block2.exec-7153.GoNoGo2";;;;;;;;;;;;;;;;;;;;;;;;;;;;;;;;;;;"1261";"2014-10-16 13:39:40.597";"ST_failedStop";"3";"0";"FINISHED";"LEFT";"failure";"395";"1";"2014-10-16 13:39:39.333";"1";;;;;;;;;;;;;;;;;;;;;;;;;;;;;;;;;;;;;;;;;;;;;
"C1338715";;;"Windows 7";"Rachel's Experiment (D.T.)";"1.0";"2";"1";"1";"2";"1";"1";"2014-10-16 13:32:50.083";"2014-10-16 13:49:41.577";"1";"1";"0";"77";"76";"module.training_block2.exec-7153.GoNoGo2";;;;;;;;;;;;;;;;;;;;;;;;;;;;;;;;;;;"1261";"2014-10-16 13:39:43.140";"NST_correctLoc";"27";"0";"FINISHED";"LEFT";"success";"708";"0";"2014-10-16 13:39:41.876";"3";;;;;;;;;;;;;;;;;;;;;;;;;;;;;;;;;;;;;;;;;;;;;
"C1338715";;;"Windows 7";"Rachel's Experiment (D.T.)";"1.0";"2";"1";"1";"2";"1";"1";"2014-10-16 13:32:50.083";"2014-10-16 13:49:41.577";"1";"1";"0";"78";"77";"module.training_block2.exec-7153.GoNoGo2";;;;;;;;;;;;;;;;;;;;;;;;;;;;;;;;;;;"1261";"2014-10-16 13:39:45.698";"ST_correctStop";"6";"0";"FINISHED";"NONE";"success";"0";"1";"2014-10-16 13:39:44.435";"1";;;;;;;;;;;;;;;;;;;;;;;;;;;;;;;;;;;;;;;;;;;;;
"C1338715";;;"Windows 7";"Rachel's Experiment (D.T.)";"1.0";"2";"1";"1";"2";"1";"1";"2014-10-16 13:32:50.083";"2014-10-16 13:49:41.577";"1";"1";"0";"79";"78";"module.training_block2.exec-7153.GoNoGo2";;;;;;;;;;;;;;;;;;;;;;;;;;;;;;;;;;;"1261";"2014-10-16 13:39:48.241";"ST_correctStop";"24";"0";"FINISHED";"NONE";"success";"0";"1";"2014-10-16 13:39:46.977";"3";;;;;;;;;;;;;;;;;;;;;;;;;;;;;;;;;;;;;;;;;;;;;
"C1338715";;;"Windows 7";"Rachel's Experiment (D.T.)";"1.0";"2";"1";"1";"2";"1";"1";"2014-10-16 13:32:50.083";"2014-10-16 13:49:41.577";"1";"1";"0";"80";"79";"module.training_block2.exec-7153.GoNoGo2";;;;;;;;;;;;;;;;;;;;;;;;;;;;;;;;;;;"1261";"2014-10-16 13:39:50.784";"ST_correctStop";"34";"1";"FINISHED";"NONE";"success";"0";"1";"2014-10-16 13:39:49.520";"3";;;;;;;;;;;;;;;;;;;;;;;;;;;;;;;;;;;;;;;;;;;;;
"C1338715";;;"Windows 7";"Rachel's Experiment (D.T.)";"1.0";"2";"1";"1";"2";"1";"1";"2014-10-16 13:32:50.083";"2014-10-16 13:49:41.577";"1";"1";"0";"81";"80";"module.training_block2.exec-7153.GoNoGo2";;;;;;;;;;;;;;;;;;;;;;;;;;;;;;;;;;;"1261";"2014-10-16 13:39:53.327";"ST_correctStop";"20";"0";"FINISHED";"NONE";"success";"0";"1";"2014-10-16 13:39:52.063";"3";;;;;;;;;;;;;;;;;;;;;;;;;;;;;;;;;;;;;;;;;;;;;
"C1338715";;;"Windows 7";"Rachel's Experiment (D.T.)";"1.0";"2";"1";"1";"2";"1";"1";"2014-10-16 13:32:50.083";"2014-10-16 13:49:41.577";"1";"1";"0";"82";"81";"module.training_block2.exec-7153.GoNoGo2";;;;;;;;;;;;;;;;;;;;;;;;;;;;;;;;;;;"1261";"2014-10-16 13:39:55.870";"ST_correctStop";"21";"1";"FINISHED";"NONE";"success";"0";"1";"2014-10-16 13:39:54.606";"3";;;;;;;;;;;;;;;;;;;;;;;;;;;;;;;;;;;;;;;;;;;;;
"C1338715";;;"Windows 7";"Rachel's Experiment (D.T.)";"1.0";"2";"1";"1";"2";"1";"1";"2014-10-16 13:32:50.083";"2014-10-16 13:49:41.577";"1";"1";"0";"83";"82";"module.training_block2.exec-7153.GoNoGo2";;;;;;;;;;;;;;;;;;;;;;;;;;;;;;;;;;;"1261";"2014-10-16 13:39:58.413";"ST_correctStop";"7";"0";"FINISHED";"NONE";"success";"0";"1";"2014-10-16 13:39:57.149";"1";;;;;;;;;;;;;;;;;;;;;;;;;;;;;;;;;;;;;;;;;;;;;
"C1338715";;;"Windows 7";"Rachel's Experiment (D.T.)";"1.0";"2";"1";"1";"2";"1";"1";"2014-10-16 13:32:50.083";"2014-10-16 13:49:41.577";"1";"1";"0";"84";"83";"module.training_block2.exec-7153.GoNoGo2";;;;;;;;;;;;;;;;;;;;;;;;;;;;;;;;;;;"1261";"2014-10-16 13:40:00.956";"ST_correctStop";"8";"0";"FINISHED";"NONE";"success";"0";"1";"2014-10-16 13:39:59.692";"1";;;;;;;;;;;;;;;;;;;;;;;;;;;;;;;;;;;;;;;;;;;;;
"C1338715";;;"Windows 7";"Rachel's Experiment (D.T.)";"1.0";"2";"1";"1";"2";"1";"1";"2014-10-16 13:32:50.083";"2014-10-16 13:49:41.577";"1";"1";"0";"85";"84";"module.training_block2.exec-7153.GoNoGo2";;;;;;;;;;;;;;;;;;;;;;;;;;;;;;;;;;;"1261";"2014-10-16 13:40:03.483";"ST_correctStop";"26";"0";"FINISHED";"NONE";"success";"0";"1";"2014-10-16 13:40:02.219";"3";;;;;;;;;;;;;;;;;;;;;;;;;;;;;;;;;;;;;;;;;;;;;
"C1338715";;;"Windows 7";"Rachel's Experiment (D.T.)";"1.0";"2";"1";"1";"2";"1";"1";"2014-10-16 13:32:50.083";"2014-10-16 13:49:41.577";"1";"1";"0";"86";"85";"module.training_block2.exec-7153.GoNoGo2";;;;;;;;;;;;;;;;;;;;;;;;;;;;;;;;;;;"1258";"2014-10-16 13:40:06.026";"NST_correctLoc";"30";"0";"FINISHED";"LEFT";"success";"507";"0";"2014-10-16 13:40:04.762";"3";;;;;;;;;;;;;;;;;;;;;;;;;;;;;;;;;;;;;;;;;;;;;
"C1338715";;;"Windows 7";"Rachel's Experiment (D.T.)";"1.0";"2";"1";"1";"2";"1";"1";"2014-10-16 13:32:50.083";"2014-10-16 13:49:41.577";"1";"1";"0";"87";"86";"module.training_block2.exec-7153.GoNoGo2";;;;;;;;;;;;;;;;;;;;;;;;;;;;;;;;;;;"1261";"2014-10-16 13:40:08.569";"ST_correctStop";"28";"1";"FINISHED";"NONE";"success";"0";"1";"2014-10-16 13:40:07.305";"3";;;;;;;;;;;;;;;;;;;;;;;;;;;;;;;;;;;;;;;;;;;;;
"C1338715";;;"Windows 7";"Rachel's Experiment (D.T.)";"1.0";"2";"1";"1";"2";"1";"1";"2014-10-16 13:32:50.083";"2014-10-16 13:49:41.577";"1";"1";"0";"88";"87";"module.training_block3.exec-4477.GoNoGo3";;;;;;;;;;;;;;;;;;;;;;;;;;;;;;;;;;;;;;;;;;;;;;;"1261";"2014-10-16 13:40:19.973";"NST_correctLoc";"18";"1";"FINISHED";"RIGHT";"success";"660";"0";"2014-10-16 13:40:18.709";"3";;;;;;;;;;;;;;;;;;;;;;;;;;;;;;;;;
"C1338715";;;"Windows 7";"Rachel's Experiment (D.T.)";"1.0";"2";"1";"1";"2";"1";"1";"2014-10-16 13:32:50.083";"2014-10-16 13:49:41.577";"1";"1";"0";"89";"88";"module.training_block3.exec-4477.GoNoGo3";;;;;;;;;;;;;;;;;;;;;;;;;;;;;;;;;;;;;;;;;;;;;;;"1261";"2014-10-16 13:40:22.516";"NST_correctLoc";"25";"1";"FINISHED";"RIGHT";"success";"525";"0";"2014-10-16 13:40:21.252";"3";;;;;;;;;;;;;;;;;;;;;;;;;;;;;;;;;
"C1338715";;;"Windows 7";"Rachel's Experiment (D.T.)";"1.0";"2";"1";"1";"2";"1";"1";"2014-10-16 13:32:50.083";"2014-10-16 13:49:41.577";"1";"1";"0";"90";"89";"module.training_block3.exec-4477.GoNoGo3";;;;;;;;;;;;;;;;;;;;;;;;;;;;;;;;;;;;;;;;;;;;;;;"1261";"2014-10-16 13:40:25.059";"ST_correctStop";"33";"1";"FINISHED";"NONE";"success";"0";"1";"2014-10-16 13:40:23.795";"3";;;;;;;;;;;;;;;;;;;;;;;;;;;;;;;;;
"C1338715";;;"Windows 7";"Rachel's Experiment (D.T.)";"1.0";"2";"1";"1";"2";"1";"1";"2014-10-16 13:32:50.083";"2014-10-16 13:49:41.577";"1";"1";"0";"91";"90";"module.training_block3.exec-4477.GoNoGo3";;;;;;;;;;;;;;;;;;;;;;;;;;;;;;;;;;;;;;;;;;;;;;;"1261";"2014-10-16 13:40:27.601";"NST_correctLoc";"15";"1";"FINISHED";"RIGHT";"success";"423";"0";"2014-10-16 13:40:26.338";"2";;;;;;;;;;;;;;;;;;;;;;;;;;;;;;;;;
"C1338715";;;"Windows 7";"Rachel's Experiment (D.T.)";"1.0";"2";"1";"1";"2";"1";"1";"2014-10-16 13:32:50.083";"2014-10-16 13:49:41.577";"1";"1";"0";"92";"91";"module.training_block3.exec-4477.GoNoGo3";;;;;;;;;;;;;;;;;;;;;;;;;;;;;;;;;;;;;;;;;;;;;;;"1261";"2014-10-16 13:40:30.144";"NST_correctLoc";"28";"0";"FINISHED";"LEFT";"success";"569";"0";"2014-10-16 13:40:28.881";"3";;;;;;;;;;;;;;;;;;;;;;;;;;;;;;;;;
"C1338715";;;"Windows 7";"Rachel's Experiment (D.T.)";"1.0";"2";"1";"1";"2";"1";"1";"2014-10-16 13:32:50.083";"2014-10-16 13:49:41.577";"1";"1";"0";"93";"92";"module.training_block3.exec-4477.GoNoGo3";;;;;;;;;;;;;;;;;;;;;;;;;;;;;;;;;;;;;;;;;;;;;;;"1261";"2014-10-16 13:40:32.687";"ST_correctStop";"8";"1";"FINISHED";"NONE";"success";"0";"1";"2014-10-16 13:40:31.424";"1";;;;;;;;;;;;;;;;;;;;;;;;;;;;;;;;;
"C1338715";;;"Windows 7";"Rachel's Experiment (D.T.)";"1.0";"2";"1";"1";"2";"1";"1";"2014-10-16 13:32:50.083";"2014-10-16 13:49:41.577";"1";"1";"0";"94";"93";"module.training_block3.exec-4477.GoNoGo3";;;;;;;;;;;;;;;;;;;;;;;;;;;;;;;;;;;;;;;;;;;;;;;"1261";"2014-10-16 13:40:35.230";"ST_correctStop";"7";"0";"FINISHED";"NONE";"success";"0";"1";"2014-10-16 13:40:33.966";"1";;;;;;;;;;;;;;;;;;;;;;;;;;;;;;;;;
"C1338715";;;"Windows 7";"Rachel's Experiment (D.T.)";"1.0";"2";"1";"1";"2";"1";"1";"2014-10-16 13:32:50.083";"2014-10-16 13:49:41.577";"1";"1";"0";"95";"94";"module.training_block3.exec-4477.GoNoGo3";;;;;;;;;;;;;;;;;;;;;;;;;;;;;;;;;;;;;;;;;;;;;;;"1261";"2014-10-16 13:40:37.773";"NST_correctLoc";"21";"1";"FINISHED";"RIGHT";"success";"412";"0";"2014-10-16 13:40:36.509";"3";;;;;;;;;;;;;;;;;;;;;;;;;;;;;;;;;
"C1338715";;;"Windows 7";"Rachel's Experiment (D.T.)";"1.0";"2";"1";"1";"2";"1";"1";"2014-10-16 13:32:50.083";"2014-10-16 13:49:41.577";"1";"1";"0";"96";"95";"module.training_block3.exec-4477.GoNoGo3";;;;;;;;;;;;;;;;;;;;;;;;;;;;;;;;;;;;;;;;;;;;;;;"1261";"2014-10-16 13:40:40.300";"NST_correctLoc";"27";"0";"FINISHED";"LEFT";"success";"541";"0";"2014-10-16 13:40:39.037";"3";;;;;;;;;;;;;;;;;;;;;;;;;;;;;;;;;
"C1338715";;;"Windows 7";"Rachel's Experiment (D.T.)";"1.0";"2";"1";"1";"2";"1";"1";"2014-10-16 13:32:50.083";"2014-10-16 13:49:41.577";"1";"1";"0";"97";"96";"module.training_block3.exec-4477.GoNoGo3";;;;;;;;;;;;;;;;;;;;;;;;;;;;;;;;;;;;;;;;;;;;;;;"1261";"2014-10-16 13:40:42.843";"NST_correctLoc";"14";"0";"FINISHED";"LEFT";"success";"446";"0";"2014-10-16 13:40:41.580";"2";;;;;;;;;;;;;;;;;;;;;;;;;;;;;;;;;
"C1338715";;;"Windows 7";"Rachel's Experiment (D.T.)";"1.0";"2";"1";"1";"2";"1";"1";"2014-10-16 13:32:50.083";"2014-10-16 13:49:41.577";"1";"1";"0";"98";"97";"module.training_block3.exec-4477.GoNoGo3";;;;;;;;;;;;;;;;;;;;;;;;;;;;;;;;;;;;;;;;;;;;;;;"1261";"2014-10-16 13:40:45.386";"ST_correctStop";"1";"0";"FINISHED";"NONE";"success";"0";"1";"2014-10-16 13:40:44.122";"1";;;;;;;;;;;;;;;;;;;;;;;;;;;;;;;;;
"C1338715";;;"Windows 7";"Rachel's Experiment (D.T.)";"1.0";"2";"1";"1";"2";"1";"1";"2014-10-16 13:32:50.083";"2014-10-16 13:49:41.577";"1";"1";"0";"99";"98";"module.training_block3.exec-4477.GoNoGo3";;;;;;;;;;;;;;;;;;;;;;;;;;;;;;;;;;;;;;;;;;;;;;;"1261";"2014-10-16 13:40:47.929";"NST_correctLoc";"30";"1";"FINISHED";"RIGHT";"success";"480";"0";"2014-10-16 13:40:46.665";"3";;;;;;;;;;;;;;;;;;;;;;;;;;;;;;;;;
"C1338715";;;"Windows 7";"Rachel's Experiment (D.T.)";"1.0";"2";"1";"1";"2";"1";"1";"2014-10-16 13:32:50.083";"2014-10-16 13:49:41.577";"1";"1";"0";"100";"99";"module.training_block3.exec-4477.GoNoGo3";;;;;;;;;;;;;;;;;;;;;;;;;;;;;;;;;;;;;;;;;;;;;;;"1261";"2014-10-16 13:40:50.472";"ST_failedStop";"26";"1";"FINISHED";"RIGHT";"failure";"410";"1";"2014-10-16 13:40:49.208";"3";;;;;;;;;;;;;;;;;;;;;;;;;;;;;;;;;
"C1338715";;;"Windows 7";"Rachel's Experiment (D.T.)";"1.0";"2";"1";"1";"2";"1";"1";"2014-10-16 13:32:50.083";"2014-10-16 13:49:41.577";"1";"1";"0";"101";"100";"module.training_block3.exec-4477.GoNoGo3";;;;;;;;;;;;;;;;;;;;;;;;;;;;;;;;;;;;;;;;;;;;;;;"1261";"2014-10-16 13:40:53.015";"ST_correctStop";"32";"1";"FINISHED";"NONE";"success";"0";"1";"2014-10-16 13:40:51.751";"3";;;;;;;;;;;;;;;;;;;;;;;;;;;;;;;;;
"C1338715";;;"Windows 7";"Rachel's Experiment (D.T.)";"1.0";"2";"1";"1";"2";"1";"1";"2014-10-16 13:32:50.083";"2014-10-16 13:49:41.577";"1";"1";"0";"102";"101";"module.training_block3.exec-4477.GoNoGo3";;;;;;;;;;;;;;;;;;;;;;;;;;;;;;;;;;;;;;;;;;;;;;;"1261";"2014-10-16 13:40:55.558";"ST_correctStop";"29";"0";"FINISHED";"NONE";"success";"0";"1";"2014-10-16 13:40:54.294";"3";;;;;;;;;;;;;;;;;;;;;;;;;;;;;;;;;
"C1338715";;;"Windows 7";"Rachel's Experiment (D.T.)";"1.0";"2";"1";"1";"2";"1";"1";"2014-10-16 13:32:50.083";"2014-10-16 13:49:41.577";"1";"1";"0";"103";"102";"module.training_block3.exec-4477.GoNoGo3";;;;;;;;;;;;;;;;;;;;;;;;;;;;;;;;;;;;;;;;;;;;;;;"1262";"2014-10-16 13:40:58.116";"NST_correctLoc";"35";"0";"FINISHED";"LEFT";"success";"446";"0";"2014-10-16 13:40:56.853";"3";;;;;;;;;;;;;;;;;;;;;;;;;;;;;;;;;
"C1338715";;;"Windows 7";"Rachel's Experiment (D.T.)";"1.0";"2";"1";"1";"2";"1";"1";"2014-10-16 13:32:50.083";"2014-10-16 13:49:41.577";"1";"1";"0";"104";"103";"module.training_block3.exec-4477.GoNoGo3";;;;;;;;;;;;;;;;;;;;;;;;;;;;;;;;;;;;;;;;;;;;;;;"1261";"2014-10-16 13:41:00.659";"NST_correctLoc";"17";"0";"FINISHED";"LEFT";"success";"567";"0";"2014-10-16 13:40:59.395";"2";;;;;;;;;;;;;;;;;;;;;;;;;;;;;;;;;
"C1338715";;;"Windows 7";"Rachel's Experiment (D.T.)";"1.0";"2";"1";"1";"2";"1";"1";"2014-10-16 13:32:50.083";"2014-10-16 13:49:41.577";"1";"1";"0";"105";"104";"module.training_block3.exec-4477.GoNoGo3";;;;;;;;;;;;;;;;;;;;;;;;;;;;;;;;;;;;;;;;;;;;;;;"1261";"2014-10-16 13:41:03.202";"NST_correctLoc";"16";"1";"FINISHED";"RIGHT";"success";"416";"0";"2014-10-16 13:41:01.938";"2";;;;;;;;;;;;;;;;;;;;;;;;;;;;;;;;;
"C1338715";;;"Windows 7";"Rachel's Experiment (D.T.)";"1.0";"2";"1";"1";"2";"1";"1";"2014-10-16 13:32:50.083";"2014-10-16 13:49:41.577";"1";"1";"0";"106";"105";"module.training_block3.exec-4477.GoNoGo3";;;;;;;;;;;;;;;;;;;;;;;;;;;;;;;;;;;;;;;;;;;;;;;"1261";"2014-10-16 13:41:05.745";"ST_correctStop";"23";"1";"FINISHED";"NONE";"success";"0";"1";"2014-10-16 13:41:04.481";"3";;;;;;;;;;;;;;;;;;;;;;;;;;;;;;;;;
"C1338715";;;"Windows 7";"Rachel's Experiment (D.T.)";"1.0";"2";"1";"1";"2";"1";"1";"2014-10-16 13:32:50.083";"2014-10-16 13:49:41.577";"1";"1";"0";"107";"106";"module.training_block3.exec-4477.GoNoGo3";;;;;;;;;;;;;;;;;;;;;;;;;;;;;;;;;;;;;;;;;;;;;;;"1261";"2014-10-16 13:41:08.288";"ST_correctStop";"20";"1";"FINISHED";"NONE";"success";"0";"1";"2014-10-16 13:41:07.024";"3";;;;;;;;;;;;;;;;;;;;;;;;;;;;;;;;;
"C1338715";;;"Windows 7";"Rachel's Experiment (D.T.)";"1.0";"2";"1";"1";"2";"1";"1";"2014-10-16 13:32:50.083";"2014-10-16 13:49:41.577";"1";"1";"0";"108";"107";"module.training_block3.exec-4477.GoNoGo3";;;;;;;;;;;;;;;;;;;;;;;;;;;;;;;;;;;;;;;;;;;;;;;"1261";"2014-10-16 13:41:10.815";"NST_correctLoc";"11";"1";"FINISHED";"RIGHT";"success";"507";"0";"2014-10-16 13:41:09.551";"2";;;;;;;;;;;;;;;;;;;;;;;;;;;;;;;;;
"C1338715";;;"Windows 7";"Rachel's Experiment (D.T.)";"1.0";"2";"1";"1";"2";"1";"1";"2014-10-16 13:32:50.083";"2014-10-16 13:49:41.577";"1";"1";"0";"109";"108";"module.training_block3.exec-4477.GoNoGo3";;;;;;;;;;;;;;;;;;;;;;;;;;;;;;;;;;;;;;;;;;;;;;;"1261";"2014-10-16 13:41:13.358";"NST_correctLoc";"13";"0";"FINISHED";"LEFT";"success";"420";"0";"2014-10-16 13:41:12.094";"2";;;;;;;;;;;;;;;;;;;;;;;;;;;;;;;;;
"C1338715";;;"Windows 7";"Rachel's Experiment (D.T.)";"1.0";"2";"1";"1";"2";"1";"1";"2014-10-16 13:32:50.083";"2014-10-16 13:49:41.577";"1";"1";"0";"110";"109";"module.training_block3.exec-4477.GoNoGo3";;;;;;;;;;;;;;;;;;;;;;;;;;;;;;;;;;;;;;;;;;;;;;;"1261";"2014-10-16 13:41:15.917";"ST_correctStop";"22";"0";"FINISHED";"NONE";"success";"0";"1";"2014-10-16 13:41:14.653";"3";;;;;;;;;;;;;;;;;;;;;;;;;;;;;;;;;
"C1338715";;;"Windows 7";"Rachel's Experiment (D.T.)";"1.0";"2";"1";"1";"2";"1";"1";"2014-10-16 13:32:50.083";"2014-10-16 13:49:41.577";"1";"1";"0";"111";"110";"module.training_block3.exec-4477.GoNoGo3";;;;;;;;;;;;;;;;;;;;;;;;;;;;;;;;;;;;;;;;;;;;;;;"1261";"2014-10-16 13:41:18.459";"ST_correctStop";"3";"0";"FINISHED";"NONE";"success";"0";"1";"2014-10-16 13:41:17.196";"1";;;;;;;;;;;;;;;;;;;;;;;;;;;;;;;;;
"C1338715";;;"Windows 7";"Rachel's Experiment (D.T.)";"1.0";"2";"1";"1";"2";"1";"1";"2014-10-16 13:32:50.083";"2014-10-16 13:49:41.577";"1";"1";"0";"112";"111";"module.training_block3.exec-4477.GoNoGo3";;;;;;;;;;;;;;;;;;;;;;;;;;;;;;;;;;;;;;;;;;;;;;;"1262";"2014-10-16 13:41:21.018";"ST_correctStop";"5";"1";"FINISHED";"NONE";"success";"0";"1";"2014-10-16 13:41:19.754";"1";;;;;;;;;;;;;;;;;;;;;;;;;;;;;;;;;
"C1338715";;;"Windows 7";"Rachel's Experiment (D.T.)";"1.0";"2";"1";"1";"2";"1";"1";"2014-10-16 13:32:50.083";"2014-10-16 13:49:41.577";"1";"1";"0";"113";"112";"module.training_block3.exec-4477.GoNoGo3";;;;;;;;;;;;;;;;;;;;;;;;;;;;;;;;;;;;;;;;;;;;;;;"1261";"2014-10-16 13:41:23.561";"ST_failedStop";"34";"1";"FINISHED";"RIGHT";"failure";"474";"1";"2014-10-16 13:41:22.297";"3";;;;;;;;;;;;;;;;;;;;;;;;;;;;;;;;;
"C1338715";;;"Windows 7";"Rachel's Experiment (D.T.)";"1.0";"2";"1";"1";"2";"1";"1";"2014-10-16 13:32:50.083";"2014-10-16 13:49:41.577";"1";"1";"0";"114";"113";"module.training_block3.exec-4477.GoNoGo3";;;;;;;;;;;;;;;;;;;;;;;;;;;;;;;;;;;;;;;;;;;;;;;"1261";"2014-10-16 13:41:26.104";"NST_correctLoc";"10";"0";"FINISHED";"LEFT";"success";"523";"0";"2014-10-16 13:41:24.840";"2";;;;;;;;;;;;;;;;;;;;;;;;;;;;;;;;;
"C1338715";;;"Windows 7";"Rachel's Experiment (D.T.)";"1.0";"2";"1";"1";"2";"1";"1";"2014-10-16 13:32:50.083";"2014-10-16 13:49:41.577";"1";"1";"0";"115";"114";"module.training_block3.exec-4477.GoNoGo3";;;;;;;;;;;;;;;;;;;;;;;;;;;;;;;;;;;;;;;;;;;;;;;"1262";"2014-10-16 13:41:28.631";"ST_correctStop";"19";"1";"FINISHED";"NONE";"success";"0";"1";"2014-10-16 13:41:27.367";"3";;;;;;;;;;;;;;;;;;;;;;;;;;;;;;;;;
"C1338715";;;"Windows 7";"Rachel's Experiment (D.T.)";"1.0";"2";"1";"1";"2";"1";"1";"2014-10-16 13:32:50.083";"2014-10-16 13:49:41.577";"1";"1";"0";"116";"115";"module.training_block3.exec-4477.GoNoGo3";;;;;;;;;;;;;;;;;;;;;;;;;;;;;;;;;;;;;;;;;;;;;;;"1262";"2014-10-16 13:41:31.174";"NST_correctLoc";"9";"0";"FINISHED";"LEFT";"success";"445";"0";"2014-10-16 13:41:29.910";"2";;;;;;;;;;;;;;;;;;;;;;;;;;;;;;;;;
"C1338715";;;"Windows 7";"Rachel's Experiment (D.T.)";"1.0";"2";"1";"1";"2";"1";"1";"2014-10-16 13:32:50.083";"2014-10-16 13:49:41.577";"1";"1";"0";"117";"116";"module.training_block3.exec-4477.GoNoGo3";;;;;;;;;;;;;;;;;;;;;;;;;;;;;;;;;;;;;;;;;;;;;;;"1261";"2014-10-16 13:41:33.701";"NST_correctLoc";"24";"0";"FINISHED";"LEFT";"success";"654";"0";"2014-10-16 13:41:32.438";"3";;;;;;;;;;;;;;;;;;;;;;;;;;;;;;;;;
"C1338715";;;"Windows 7";"Rachel's Experiment (D.T.)";"1.0";"2";"1";"1";"2";"1";"1";"2014-10-16 13:32:50.083";"2014-10-16 13:49:41.577";"1";"1";"0";"118";"117";"module.training_block3.exec-4477.GoNoGo3";;;;;;;;;;;;;;;;;;;;;;;;;;;;;;;;;;;;;;;;;;;;;;;"1261";"2014-10-16 13:41:36.244";"ST_failedStop";"2";"0";"FINISHED";"LEFT";"failure";"383";"1";"2014-10-16 13:41:34.980";"1";;;;;;;;;;;;;;;;;;;;;;;;;;;;;;;;;
"C1338715";;;"Windows 7";"Rachel's Experiment (D.T.)";"1.0";"2";"1";"1";"2";"1";"1";"2014-10-16 13:32:50.083";"2014-10-16 13:49:41.577";"1";"1";"0";"119";"118";"module.training_block3.exec-4477.GoNoGo3";;;;;;;;;;;;;;;;;;;;;;;;;;;;;;;;;;;;;;;;;;;;;;;"1262";"2014-10-16 13:41:38.787";"ST_correctStop";"0";"1";"FINISHED";"NONE";"success";"0";"1";"2014-10-16 13:41:37.523";"1";;;;;;;;;;;;;;;;;;;;;;;;;;;;;;;;;
"C1338715";;;"Windows 7";"Rachel's Experiment (D.T.)";"1.0";"2";"1";"1";"2";"1";"1";"2014-10-16 13:32:50.083";"2014-10-16 13:49:41.577";"1";"1";"0";"120";"119";"module.training_block3.exec-4477.GoNoGo3";;;;;;;;;;;;;;;;;;;;;;;;;;;;;;;;;;;;;;;;;;;;;;;"1261";"2014-10-16 13:41:41.314";"ST_correctStop";"4";"1";"FINISHED";"NONE";"success";"0";"1";"2014-10-16 13:41:40.051";"1";;;;;;;;;;;;;;;;;;;;;;;;;;;;;;;;;
"C1338715";;;"Windows 7";"Rachel's Experiment (D.T.)";"1.0";"2";"1";"1";"2";"1";"1";"2014-10-16 13:32:50.083";"2014-10-16 13:49:41.577";"1";"1";"0";"121";"120";"module.training_block3.exec-4477.GoNoGo3";;;;;;;;;;;;;;;;;;;;;;;;;;;;;;;;;;;;;;;;;;;;;;;"1262";"2014-10-16 13:41:43.857";"NST_correctLoc";"12";"0";"FINISHED";"LEFT";"success";"418";"0";"2014-10-16 13:41:42.594";"2";;;;;;;;;;;;;;;;;;;;;;;;;;;;;;;;;
"C1338715";;;"Windows 7";"Rachel's Experiment (D.T.)";"1.0";"2";"1";"1";"2";"1";"1";"2014-10-16 13:32:50.083";"2014-10-16 13:49:41.577";"1";"1";"0";"122";"121";"module.training_block3.exec-4477.GoNoGo3";;;;;;;;;;;;;;;;;;;;;;;;;;;;;;;;;;;;;;;;;;;;;;;"1262";"2014-10-16 13:41:46.384";"ST_correctStop";"6";"1";"FINISHED";"NONE";"success";"0";"1";"2014-10-16 13:41:45.121";"1";;;;;;;;;;;;;;;;;;;;;;;;;;;;;;;;;
"C1338715";;;"Windows 7";"Rachel's Experiment (D.T.)";"1.0";"2";"1";"1";"2";"1";"1";"2014-10-16 13:32:50.083";"2014-10-16 13:49:41.577";"1";"1";"0";"123";"122";"module.training_block3.exec-4477.GoNoGo3";;;;;;;;;;;;;;;;;;;;;;;;;;;;;;;;;;;;;;;;;;;;;;;"1262";"2014-10-16 13:41:48.927";"NST_correctLoc";"31";"0";"FINISHED";"LEFT";"success";"652";"0";"2014-10-16 13:41:47.664";"3";;;;;;;;;;;;;;;;;;;;;;;;;;;;;;;;;
"C1338715";;;"Windows 7";"Rachel's Experiment (D.T.)";"1.0";"2";"1";"1";"2";"1";"1";"2014-10-16 13:32:50.083";"2014-10-16 13:49:41.577";"1";"1";"0";"124";"123";"module.training_block4.exec-5145.GoNoGo4";;;;;;;;;;;;;;;;;;;;;;;;;;;;;;;;;;;;;;;;;;;;;;;;;;;;;;;;;;;"1261";"2014-10-16 13:42:00.144";"ST_correctStop";"18";"1";"FINISHED";"NONE";"success";"0";"1";"2014-10-16 13:41:58.881";"3";;;;;;;;;;;;;;;;;;;;;
"C1338715";;;"Windows 7";"Rachel's Experiment (D.T.)";"1.0";"2";"1";"1";"2";"1";"1";"2014-10-16 13:32:50.083";"2014-10-16 13:49:41.577";"1";"1";"0";"125";"124";"module.training_block4.exec-5145.GoNoGo4";;;;;;;;;;;;;;;;;;;;;;;;;;;;;;;;;;;;;;;;;;;;;;;;;;;;;;;;;;;"1262";"2014-10-16 13:42:02.687";"NST_correctLoc";"14";"1";"FINISHED";"RIGHT";"success";"653";"0";"2014-10-16 13:42:01.423";"2";;;;;;;;;;;;;;;;;;;;;
"C1338715";;;"Windows 7";"Rachel's Experiment (D.T.)";"1.0";"2";"1";"1";"2";"1";"1";"2014-10-16 13:32:50.083";"2014-10-16 13:49:41.577";"1";"1";"0";"126";"125";"module.training_block4.exec-5145.GoNoGo4";;;;;;;;;;;;;;;;;;;;;;;;;;;;;;;;;;;;;;;;;;;;;;;;;;;;;;;;;;;"1262";"2014-10-16 13:42:05.214";"NST_correctLoc";"21";"1";"FINISHED";"RIGHT";"success";"453";"0";"2014-10-16 13:42:03.951";"3";;;;;;;;;;;;;;;;;;;;;
"C1338715";;;"Windows 7";"Rachel's Experiment (D.T.)";"1.0";"2";"1";"1";"2";"1";"1";"2014-10-16 13:32:50.083";"2014-10-16 13:49:41.577";"1";"1";"0";"127";"126";"module.training_block4.exec-5145.GoNoGo4";;;;;;;;;;;;;;;;;;;;;;;;;;;;;;;;;;;;;;;;;;;;;;;;;;;;;;;;;;;"1262";"2014-10-16 13:42:07.742";"ST_correctStop";"19";"0";"FINISHED";"NONE";"success";"0";"1";"2014-10-16 13:42:06.478";"3";;;;;;;;;;;;;;;;;;;;;
"C1338715";;;"Windows 7";"Rachel's Experiment (D.T.)";"1.0";"2";"1";"1";"2";"1";"1";"2014-10-16 13:32:50.083";"2014-10-16 13:49:41.577";"1";"1";"0";"128";"127";"module.training_block4.exec-5145.GoNoGo4";;;;;;;;;;;;;;;;;;;;;;;;;;;;;;;;;;;;;;;;;;;;;;;;;;;;;;;;;;;"1261";"2014-10-16 13:42:10.269";"ST_correctStop";"5";"0";"FINISHED";"NONE";"success";"0";"1";"2014-10-16 13:42:09.005";"1";;;;;;;;;;;;;;;;;;;;;
"C1338715";;;"Windows 7";"Rachel's Experiment (D.T.)";"1.0";"2";"1";"1";"2";"1";"1";"2014-10-16 13:32:50.083";"2014-10-16 13:49:41.577";"1";"1";"0";"129";"128";"module.training_block4.exec-5145.GoNoGo4";;;;;;;;;;;;;;;;;;;;;;;;;;;;;;;;;;;;;;;;;;;;;;;;;;;;;;;;;;;"1262";"2014-10-16 13:42:12.796";"NST_correctLoc";"10";"1";"FINISHED";"RIGHT";"success";"536";"0";"2014-10-16 13:42:11.533";"2";;;;;;;;;;;;;;;;;;;;;
"C1338715";;;"Windows 7";"Rachel's Experiment (D.T.)";"1.0";"2";"1";"1";"2";"1";"1";"2014-10-16 13:32:50.083";"2014-10-16 13:49:41.577";"1";"1";"0";"130";"129";"module.training_block4.exec-5145.GoNoGo4";;;;;;;;;;;;;;;;;;;;;;;;;;;;;;;;;;;;;;;;;;;;;;;;;;;;;;;;;;;"1261";"2014-10-16 13:42:15.339";"NST_correctLoc";"33";"1";"FINISHED";"RIGHT";"success";"393";"0";"2014-10-16 13:42:14.076";"3";;;;;;;;;;;;;;;;;;;;;
"C1338715";;;"Windows 7";"Rachel's Experiment (D.T.)";"1.0";"2";"1";"1";"2";"1";"1";"2014-10-16 13:32:50.083";"2014-10-16 13:49:41.577";"1";"1";"0";"131";"130";"module.training_block4.exec-5145.GoNoGo4";;;;;;;;;;;;;;;;;;;;;;;;;;;;;;;;;;;;;;;;;;;;;;;;;;;;;;;;;;;"1262";"2014-10-16 13:42:17.866";"NST_correctLoc";"17";"0";"FINISHED";"LEFT";"success";"418";"0";"2014-10-16 13:42:16.603";"2";;;;;;;;;;;;;;;;;;;;;
"C1338715";;;"Windows 7";"Rachel's Experiment (D.T.)";"1.0";"2";"1";"1";"2";"1";"1";"2014-10-16 13:32:50.083";"2014-10-16 13:49:41.577";"1";"1";"0";"132";"131";"module.training_block4.exec-5145.GoNoGo4";;;;;;;;;;;;;;;;;;;;;;;;;;;;;;;;;;;;;;;;;;;;;;;;;;;;;;;;;;;"1262";"2014-10-16 13:42:20.394";"NST_correctLoc";"11";"0";"FINISHED";"LEFT";"success";"451";"0";"2014-10-16 13:42:19.130";"2";;;;;;;;;;;;;;;;;;;;;
"C1338715";;;"Windows 7";"Rachel's Experiment (D.T.)";"1.0";"2";"1";"1";"2";"1";"1";"2014-10-16 13:32:50.083";"2014-10-16 13:49:41.577";"1";"1";"0";"133";"132";"module.training_block4.exec-5145.GoNoGo4";;;;;;;;;;;;;;;;;;;;;;;;;;;;;;;;;;;;;;;;;;;;;;;;;;;;;;;;;;;"1262";"2014-10-16 13:42:22.952";"NST_correctLoc";"13";"1";"FINISHED";"RIGHT";"success";"476";"0";"2014-10-16 13:42:21.689";"2";;;;;;;;;;;;;;;;;;;;;
"C1338715";;;"Windows 7";"Rachel's Experiment (D.T.)";"1.0";"2";"1";"1";"2";"1";"1";"2014-10-16 13:32:50.083";"2014-10-16 13:49:41.577";"1";"1";"0";"134";"133";"module.training_block4.exec-5145.GoNoGo4";;;;;;;;;;;;;;;;;;;;;;;;;;;;;;;;;;;;;;;;;;;;;;;;;;;;;;;;;;;"1262";"2014-10-16 13:42:25.495";"ST_correctStop";"0";"1";"FINISHED";"NONE";"success";"0";"1";"2014-10-16 13:42:24.232";"1";;;;;;;;;;;;;;;;;;;;;
"C1338715";;;"Windows 7";"Rachel's Experiment (D.T.)";"1.0";"2";"1";"1";"2";"1";"1";"2014-10-16 13:32:50.083";"2014-10-16 13:49:41.577";"1";"1";"0";"135";"134";"module.training_block4.exec-5145.GoNoGo4";;;;;;;;;;;;;;;;;;;;;;;;;;;;;;;;;;;;;;;;;;;;;;;;;;;;;;;;;;;"1262";"2014-10-16 13:42:28.038";"ST_correctStop";"8";"1";"FINISHED";"NONE";"success";"0";"1";"2014-10-16 13:42:26.774";"1";;;;;;;;;;;;;;;;;;;;;
"C1338715";;;"Windows 7";"Rachel's Experiment (D.T.)";"1.0";"2";"1";"1";"2";"1";"1";"2014-10-16 13:32:50.083";"2014-10-16 13:49:41.577";"1";"1";"0";"136";"135";"module.training_block4.exec-5145.GoNoGo4";;;;;;;;;;;;;;;;;;;;;;;;;;;;;;;;;;;;;;;;;;;;;;;;;;;;;;;;;;;"1261";"2014-10-16 13:42:30.565";"NST_correctLoc";"16";"1";"FINISHED";"RIGHT";"success";"527";"0";"2014-10-16 13:42:29.302";"2";;;;;;;;;;;;;;;;;;;;;
"C1338715";;;"Windows 7";"Rachel's Experiment (D.T.)";"1.0";"2";"1";"1";"2";"1";"1";"2014-10-16 13:32:50.083";"2014-10-16 13:49:41.577";"1";"1";"0";"137";"136";"module.training_block4.exec-5145.GoNoGo4";;;;;;;;;;;;;;;;;;;;;;;;;;;;;;;;;;;;;;;;;;;;;;;;;;;;;;;;;;;"1262";"2014-10-16 13:42:33.093";"ST_correctStop";"23";"1";"FINISHED";"NONE";"success";"0";"1";"2014-10-16 13:42:31.829";"3";;;;;;;;;;;;;;;;;;;;;
"C1338715";;;"Windows 7";"Rachel's Experiment (D.T.)";"1.0";"2";"1";"1";"2";"1";"1";"2014-10-16 13:32:50.083";"2014-10-16 13:49:41.577";"1";"1";"0";"138";"137";"module.training_block4.exec-5145.GoNoGo4";;;;;;;;;;;;;;;;;;;;;;;;;;;;;;;;;;;;;;;;;;;;;;;;;;;;;;;;;;;"1261";"2014-10-16 13:42:35.620";"ST_correctStop";"24";"0";"FINISHED";"NONE";"success";"0";"1";"2014-10-16 13:42:34.356";"3";;;;;;;;;;;;;;;;;;;;;
"C1338715";;;"Windows 7";"Rachel's Experiment (D.T.)";"1.0";"2";"1";"1";"2";"1";"1";"2014-10-16 13:32:50.083";"2014-10-16 13:49:41.577";"1";"1";"0";"139";"138";"module.training_block4.exec-5145.GoNoGo4";;;;;;;;;;;;;;;;;;;;;;;;;;;;;;;;;;;;;;;;;;;;;;;;;;;;;;;;;;;"1262";"2014-10-16 13:42:38.147";"NST_correctLoc";"12";"0";"FINISHED";"LEFT";"success";"514";"0";"2014-10-16 13:42:36.884";"2";;;;;;;;;;;;;;;;;;;;;
"C1338715";;;"Windows 7";"Rachel's Experiment (D.T.)";"1.0";"2";"1";"1";"2";"1";"1";"2014-10-16 13:32:50.083";"2014-10-16 13:49:41.577";"1";"1";"0";"140";"139";"module.training_block4.exec-5145.GoNoGo4";;;;;;;;;;;;;;;;;;;;;;;;;;;;;;;;;;;;;;;;;;;;;;;;;;;;;;;;;;;"1261";"2014-10-16 13:42:40.690";"NST_correctLoc";"27";"0";"FINISHED";"LEFT";"success";"547";"0";"2014-10-16 13:42:39.427";"3";;;;;;;;;;;;;;;;;;;;;
"C1338715";;;"Windows 7";"Rachel's Experiment (D.T.)";"1.0";"2";"1";"1";"2";"1";"1";"2014-10-16 13:32:50.083";"2014-10-16 13:49:41.577";"1";"1";"0";"141";"140";"module.training_block4.exec-5145.GoNoGo4";;;;;;;;;;;;;;;;;;;;;;;;;;;;;;;;;;;;;;;;;;;;;;;;;;;;;;;;;;;"1262";"2014-10-16 13:42:43.217";"ST_correctStop";"25";"0";"FINISHED";"NONE";"success";"0";"1";"2014-10-16 13:42:41.954";"3";;;;;;;;;;;;;;;;;;;;;
"C1338715";;;"Windows 7";"Rachel's Experiment (D.T.)";"1.0";"2";"1";"1";"2";"1";"1";"2014-10-16 13:32:50.083";"2014-10-16 13:49:41.577";"1";"1";"0";"142";"141";"module.training_block4.exec-5145.GoNoGo4";;;;;;;;;;;;;;;;;;;;;;;;;;;;;;;;;;;;;;;;;;;;;;;;;;;;;;;;;;;"1262";"2014-10-16 13:42:45.745";"NST_correctLoc";"20";"0";"FINISHED";"LEFT";"success";"533";"0";"2014-10-16 13:42:44.481";"3";;;;;;;;;;;;;;;;;;;;;
"C1338715";;;"Windows 7";"Rachel's Experiment (D.T.)";"1.0";"2";"1";"1";"2";"1";"1";"2014-10-16 13:32:50.083";"2014-10-16 13:49:41.577";"1";"1";"0";"143";"142";"module.training_block4.exec-5145.GoNoGo4";;;;;;;;;;;;;;;;;;;;;;;;;;;;;;;;;;;;;;;;;;;;;;;;;;;;;;;;;;;"1262";"2014-10-16 13:42:48.303";"NST_correctLoc";"15";"0";"FINISHED";"LEFT";"success";"550";"0";"2014-10-16 13:42:47.040";"2";;;;;;;;;;;;;;;;;;;;;
"C1338715";;;"Windows 7";"Rachel's Experiment (D.T.)";"1.0";"2";"1";"1";"2";"1";"1";"2014-10-16 13:32:50.083";"2014-10-16 13:49:41.577";"1";"1";"0";"144";"143";"module.training_block4.exec-5145.GoNoGo4";;;;;;;;;;;;;;;;;;;;;;;;;;;;;;;;;;;;;;;;;;;;;;;;;;;;;;;;;;;"1261";"2014-10-16 13:42:50.831";"NST_correctLoc";"9";"1";"FINISHED";"RIGHT";"success";"511";"0";"2014-10-16 13:42:49.567";"2";;;;;;;;;;;;;;;;;;;;;
"C1338715";;;"Windows 7";"Rachel's Experiment (D.T.)";"1.0";"2";"1";"1";"2";"1";"1";"2014-10-16 13:32:50.083";"2014-10-16 13:49:41.577";"1";"1";"0";"145";"144";"module.training_block4.exec-5145.GoNoGo4";;;;;;;;;;;;;;;;;;;;;;;;;;;;;;;;;;;;;;;;;;;;;;;;;;;;;;;;;;;"1262";"2014-10-16 13:42:53.373";"NST_correctLoc";"29";"0";"FINISHED";"LEFT";"success";"400";"0";"2014-10-16 13:42:52.110";"3";;;;;;;;;;;;;;;;;;;;;
"C1338715";;;"Windows 7";"Rachel's Experiment (D.T.)";"1.0";"2";"1";"1";"2";"1";"1";"2014-10-16 13:32:50.083";"2014-10-16 13:49:41.577";"1";"1";"0";"146";"145";"module.training_block4.exec-5145.GoNoGo4";;;;;;;;;;;;;;;;;;;;;;;;;;;;;;;;;;;;;;;;;;;;;;;;;;;;;;;;;;;"1261";"2014-10-16 13:42:55.901";"ST_correctStop";"4";"0";"FINISHED";"NONE";"success";"0";"1";"2014-10-16 13:42:54.637";"1";;;;;;;;;;;;;;;;;;;;;
"C1338715";;;"Windows 7";"Rachel's Experiment (D.T.)";"1.0";"2";"1";"1";"2";"1";"1";"2014-10-16 13:32:50.083";"2014-10-16 13:49:41.577";"1";"1";"0";"147";"146";"module.training_block4.exec-5145.GoNoGo4";;;;;;;;;;;;;;;;;;;;;;;;;;;;;;;;;;;;;;;;;;;;;;;;;;;;;;;;;;;"1262";"2014-10-16 13:42:58.428";"ST_correctStop";"34";"1";"FINISHED";"NONE";"success";"0";"1";"2014-10-16 13:42:57.164";"3";;;;;;;;;;;;;;;;;;;;;
"C1338715";;;"Windows 7";"Rachel's Experiment (D.T.)";"1.0";"2";"1";"1";"2";"1";"1";"2014-10-16 13:32:50.083";"2014-10-16 13:49:41.577";"1";"1";"0";"148";"147";"module.training_block4.exec-5145.GoNoGo4";;;;;;;;;;;;;;;;;;;;;;;;;;;;;;;;;;;;;;;;;;;;;;;;;;;;;;;;;;;"1262";"2014-10-16 13:43:00.987";"NST_correctLoc";"30";"0";"FINISHED";"LEFT";"success";"419";"0";"2014-10-16 13:42:59.723";"3";;;;;;;;;;;;;;;;;;;;;
"C1338715";;;"Windows 7";"Rachel's Experiment (D.T.)";"1.0";"2";"1";"1";"2";"1";"1";"2014-10-16 13:32:50.083";"2014-10-16 13:49:41.577";"1";"1";"0";"149";"148";"module.training_block4.exec-5145.GoNoGo4";;;;;;;;;;;;;;;;;;;;;;;;;;;;;;;;;;;;;;;;;;;;;;;;;;;;;;;;;;;"1262";"2014-10-16 13:43:03.514";"ST_correctStop";"2";"1";"FINISHED";"NONE";"success";"0";"1";"2014-10-16 13:43:02.250";"1";;;;;;;;;;;;;;;;;;;;;
"C1338715";;;"Windows 7";"Rachel's Experiment (D.T.)";"1.0";"2";"1";"1";"2";"1";"1";"2014-10-16 13:32:50.083";"2014-10-16 13:49:41.577";"1";"1";"0";"150";"149";"module.training_block4.exec-5145.GoNoGo4";;;;;;;;;;;;;;;;;;;;;;;;;;;;;;;;;;;;;;;;;;;;;;;;;;;;;;;;;;;"1262";"2014-10-16 13:43:06.057";"ST_correctStop";"6";"1";"FINISHED";"NONE";"success";"0";"1";"2014-10-16 13:43:04.793";"1";;;;;;;;;;;;;;;;;;;;;
"C1338715";;;"Windows 7";"Rachel's Experiment (D.T.)";"1.0";"2";"1";"1";"2";"1";"1";"2014-10-16 13:32:50.083";"2014-10-16 13:49:41.577";"1";"1";"0";"151";"150";"module.training_block4.exec-5145.GoNoGo4";;;;;;;;;;;;;;;;;;;;;;;;;;;;;;;;;;;;;;;;;;;;;;;;;;;;;;;;;;;"1262";"2014-10-16 13:43:08.584";"NST_correctLoc";"28";"1";"FINISHED";"RIGHT";"success";"486";"0";"2014-10-16 13:43:07.320";"3";;;;;;;;;;;;;;;;;;;;;
"C1338715";;;"Windows 7";"Rachel's Experiment (D.T.)";"1.0";"2";"1";"1";"2";"1";"1";"2014-10-16 13:32:50.083";"2014-10-16 13:49:41.577";"1";"1";"0";"152";"151";"module.training_block4.exec-5145.GoNoGo4";;;;;;;;;;;;;;;;;;;;;;;;;;;;;;;;;;;;;;;;;;;;;;;;;;;;;;;;;;;"1261";"2014-10-16 13:43:11.111";"ST_correctStop";"1";"0";"FINISHED";"NONE";"success";"0";"1";"2014-10-16 13:43:09.848";"1";;;;;;;;;;;;;;;;;;;;;
"C1338715";;;"Windows 7";"Rachel's Experiment (D.T.)";"1.0";"2";"1";"1";"2";"1";"1";"2014-10-16 13:32:50.083";"2014-10-16 13:49:41.577";"1";"1";"0";"153";"152";"module.training_block4.exec-5145.GoNoGo4";;;;;;;;;;;;;;;;;;;;;;;;;;;;;;;;;;;;;;;;;;;;;;;;;;;;;;;;;;;"1261";"2014-10-16 13:43:13.639";"ST_correctStop";"32";"1";"FINISHED";"NONE";"success";"0";"1";"2014-10-16 13:43:12.375";"3";;;;;;;;;;;;;;;;;;;;;
"C1338715";;;"Windows 7";"Rachel's Experiment (D.T.)";"1.0";"2";"1";"1";"2";"1";"1";"2014-10-16 13:32:50.083";"2014-10-16 13:49:41.577";"1";"1";"0";"154";"153";"module.training_block4.exec-5145.GoNoGo4";;;;;;;;;;;;;;;;;;;;;;;;;;;;;;;;;;;;;;;;;;;;;;;;;;;;;;;;;;;"1262";"2014-10-16 13:43:16.166";"ST_correctStop";"26";"0";"FINISHED";"NONE";"success";"0";"1";"2014-10-16 13:43:14.902";"3";;;;;;;;;;;;;;;;;;;;;
"C1338715";;;"Windows 7";"Rachel's Experiment (D.T.)";"1.0";"2";"1";"1";"2";"1";"1";"2014-10-16 13:32:50.083";"2014-10-16 13:49:41.577";"1";"1";"0";"155";"154";"module.training_block4.exec-5145.GoNoGo4";;;;;;;;;;;;;;;;;;;;;;;;;;;;;;;;;;;;;;;;;;;;;;;;;;;;;;;;;;;"1262";"2014-10-16 13:43:18.693";"ST_correctStop";"3";"0";"FINISHED";"NONE";"success";"0";"1";"2014-10-16 13:43:17.430";"1";;;;;;;;;;;;;;;;;;;;;
"C1338715";;;"Windows 7";"Rachel's Experiment (D.T.)";"1.0";"2";"1";"1";"2";"1";"1";"2014-10-16 13:32:50.083";"2014-10-16 13:49:41.577";"1";"1";"0";"156";"155";"module.training_block4.exec-5145.GoNoGo4";;;;;;;;;;;;;;;;;;;;;;;;;;;;;;;;;;;;;;;;;;;;;;;;;;;;;;;;;;;"1262";"2014-10-16 13:43:21.221";"NST_correctLoc";"31";"0";"FINISHED";"LEFT";"success";"474";"0";"2014-10-16 13:43:19.957";"3";;;;;;;;;;;;;;;;;;;;;
"C1338715";;;"Windows 7";"Rachel's Experiment (D.T.)";"1.0";"2";"1";"1";"2";"1";"1";"2014-10-16 13:32:50.083";"2014-10-16 13:49:41.577";"1";"1";"0";"157";"156";"module.training_block4.exec-5145.GoNoGo4";;;;;;;;;;;;;;;;;;;;;;;;;;;;;;;;;;;;;;;;;;;;;;;;;;;;;;;;;;;"1262";"2014-10-16 13:43:23.748";"ST_correctStop";"7";"0";"FINISHED";"NONE";"success";"0";"1";"2014-10-16 13:43:22.484";"1";;;;;;;;;;;;;;;;;;;;;
"C1338715";;;"Windows 7";"Rachel's Experiment (D.T.)";"1.0";"2";"1";"1";"2";"1";"1";"2014-10-16 13:32:50.083";"2014-10-16 13:49:41.577";"1";"1";"0";"158";"157";"module.training_block4.exec-5145.GoNoGo4";;;;;;;;;;;;;;;;;;;;;;;;;;;;;;;;;;;;;;;;;;;;;;;;;;;;;;;;;;;"1262";"2014-10-16 13:43:26.291";"ST_correctStop";"35";"1";"FINISHED";"NONE";"success";"0";"1";"2014-10-16 13:43:25.027";"3";;;;;;;;;;;;;;;;;;;;;
"C1338715";;;"Windows 7";"Rachel's Experiment (D.T.)";"1.0";"2";"1";"1";"2";"1";"1";"2014-10-16 13:32:50.083";"2014-10-16 13:49:41.577";"1";"1";"0";"159";"158";"module.training_block4.exec-5145.GoNoGo4";;;;;;;;;;;;;;;;;;;;;;;;;;;;;;;;;;;;;;;;;;;;;;;;;;;;;;;;;;;"1261";"2014-10-16 13:43:28.834";"NST_correctLoc";"22";"0";"FINISHED";"LEFT";"success";"501";"0";"2014-10-16 13:43:27.570";"3";;;;;;;;;;;;;;;;;;;;;
"C1338715";;;"Windows 7";"Rachel's Experiment (D.T.)";"1.0";"2";"1";"1";"2";"1";"1";"2014-10-16 13:32:50.083";"2014-10-16 13:49:41.577";"1";"1";"0";"160";"159";"module.devaluation_practice.exec-1514.devalPractice";;;;;;;;;;;;"16574";"2014-10-16 13:44:23.233";"0";"5";"5";"4";"7493";"1380";"4641";"2014-10-16 13:44:06.649";;;;;;;;;;;;;;;;;;;;;;;;;;;;;;;;;;;;;;;;;;;;;;;;;;;;;;;;;;;;;;;;;;;;;;
"C1338715";;;"Windows 7";"Rachel's Experiment (D.T.)";"1.0";"2";"1";"1";"2";"1";"1";"2014-10-16 13:32:50.083";"2014-10-16 13:49:41.577";"1";"1";"0";"161";"160";"module.devaluation_practice.exec-1514.devalPractice";;;;;;;;;;;;"12524";"2014-10-16 13:44:35.776";"1";"5";"5";"6";"3338";"3245";"2911";"2014-10-16 13:44:23.249";;;;;;;;;;;;;;;;;;;;;;;;;;;;;;;;;;;;;;;;;;;;;;;;;;;;;;;;;;;;;;;;;;;;;;
"C1338715";;;"Windows 7";"Rachel's Experiment (D.T.)";"1.0";"2";"1";"1";"2";"1";"1";"2014-10-16 13:32:50.083";"2014-10-16 13:49:41.577";"1";"1";"0";"162";"161";"module.devaluation_practice.exec-1514.devalPractice";;;;;;;;;;;;"11300";"2014-10-16 13:44:47.086";"2";"2";"1";"3";"3180";"1741";"3348";"2014-10-16 13:44:35.791";;;;;;;;;;;;;;;;;;;;;;;;;;;;;;;;;;;;;;;;;;;;;;;;;;;;;;;;;;;;;;;;;;;;;;
"C1338715";;;"Windows 7";"Rachel's Experiment (D.T.)";"1.0";"2";"1";"1";"2";"1";"1";"2014-10-16 13:32:50.083";"2014-10-16 13:49:41.577";"1";"1";"0";"163";"162";"module.devaluation_practice.exec-1514.devalPractice";;;;;;;;;;;;"12104";"2014-10-16 13:44:59.223";"3";"3";"1";"3";"3222";"1944";"3896";"2014-10-16 13:44:47.117";;;;;;;;;;;;;;;;;;;;;;;;;;;;;;;;;;;;;;;;;;;;;;;;;;;;;;;;;;;;;;;;;;;;;;
"C1338715";;;"Windows 7";"Rachel's Experiment (D.T.)";"1.0";"2";"1";"1";"2";"1";"1";"2014-10-16 13:32:50.083";"2014-10-16 13:49:41.577";"1";"1";"0";"164";"163";"module.devaluation_block1.exec-7999.deval1";"14466";"2014-10-16 13:45:22.031";"6";"3";"1";"4";"3763";"3909";"3759";"2014-10-16 13:45:07.570";"1";;;;;;;;;;;;;;;;;;;;;;;;;;;;;;;;;;;;;;;;;;;;;;;;;;;;;;;;;;;;;;;;;;;;;;;;;;;;;;;;
"C1338715";;;"Windows 7";"Rachel's Experiment (D.T.)";"1.0";"2";"1";"1";"2";"1";"1";"2014-10-16 13:32:50.083";"2014-10-16 13:49:41.577";"1";"1";"0";"165";"164";"module.devaluation_block1.exec-7999.deval1";"11076";"2014-10-16 13:45:33.139";"18";"2";"2";"3";"2374";"1870";"3800";"2014-10-16 13:45:22.063";"3";;;;;;;;;;;;;;;;;;;;;;;;;;;;;;;;;;;;;;;;;;;;;;;;;;;;;;;;;;;;;;;;;;;;;;;;;;;;;;;;
"C1338715";;;"Windows 7";"Rachel's Experiment (D.T.)";"1.0";"2";"1";"1";"2";"1";"1";"2014-10-16 13:32:50.083";"2014-10-16 13:49:41.577";"1";"1";"0";"166";"165";"module.devaluation_block1.exec-7999.deval1";"10228";"2014-10-16 13:45:43.388";"13";"3";"5";"5";"1930";"1807";"3465";"2014-10-16 13:45:33.155";"2";;;;;;;;;;;;;;;;;;;;;;;;;;;;;;;;;;;;;;;;;;;;;;;;;;;;;;;;;;;;;;;;;;;;;;;;;;;;;;;;
"C1338715";;;"Windows 7";"Rachel's Experiment (D.T.)";"1.0";"2";"1";"1";"2";"1";"1";"2014-10-16 13:32:50.083";"2014-10-16 13:49:41.577";"1";"1";"0";"167";"166";"module.devaluation_block1.exec-7999.deval1";"9436";"2014-10-16 13:45:52.842";"0";"4";"1";"5";"2409";"1715";"2276";"2014-10-16 13:45:43.404";"1";;;;;;;;;;;;;;;;;;;;;;;;;;;;;;;;;;;;;;;;;;;;;;;;;;;;;;;;;;;;;;;;;;;;;;;;;;;;;;;;
"C1338715";;;"Windows 7";"Rachel's Experiment (D.T.)";"1.0";"2";"1";"1";"2";"1";"1";"2014-10-16 13:32:50.083";"2014-10-16 13:49:41.577";"1";"1";"0";"168";"167";"module.devaluation_block1.exec-7999.deval1";"15004";"2014-10-16 13:46:07.866";"22";"4";"1";"4";"7035";"1935";"2997";"2014-10-16 13:45:52.858";"3";;;;;;;;;;;;;;;;;;;;;;;;;;;;;;;;;;;;;;;;;;;;;;;;;;;;;;;;;;;;;;;;;;;;;;;;;;;;;;;;
"C1338715";;;"Windows 7";"Rachel's Experiment (D.T.)";"1.0";"2";"1";"1";"2";"1";"1";"2014-10-16 13:32:50.083";"2014-10-16 13:49:41.577";"1";"1";"0";"169";"168";"module.devaluation_block1.exec-7999.deval1";"8886";"2014-10-16 13:46:16.789";"15";"3";"2";"5";"2449";"1838";"1569";"2014-10-16 13:46:07.897";"2";;;;;;;;;;;;;;;;;;;;;;;;;;;;;;;;;;;;;;;;;;;;;;;;;;;;;;;;;;;;;;;;;;;;;;;;;;;;;;;;
"C1338715";;;"Windows 7";"Rachel's Experiment (D.T.)";"1.0";"2";"1";"1";"2";"1";"1";"2014-10-16 13:32:50.083";"2014-10-16 13:49:41.577";"1";"1";"0";"170";"169";"module.devaluation_block1.exec-7999.deval1";"9196";"2014-10-16 13:46:25.993";"5";"5";"4";"6";"1601";"1975";"2591";"2014-10-16 13:46:16.805";"1";;;;;;;;;;;;;;;;;;;;;;;;;;;;;;;;;;;;;;;;;;;;;;;;;;;;;;;;;;;;;;;;;;;;;;;;;;;;;;;;
"C1338715";;;"Windows 7";"Rachel's Experiment (D.T.)";"1.0";"2";"1";"1";"2";"1";"1";"2014-10-16 13:32:50.083";"2014-10-16 13:49:41.577";"1";"1";"0";"171";"170";"module.devaluation_block1.exec-7999.deval1";"11093";"2014-10-16 13:46:37.117";"26";"8";"7";"9";"2413";"2806";"2856";"2014-10-16 13:46:26.009";"3";;;;;;;;;;;;;;;;;;;;;;;;;;;;;;;;;;;;;;;;;;;;;;;;;;;;;;;;;;;;;;;;;;;;;;;;;;;;;;;;
"C1338715";;;"Windows 7";"Rachel's Experiment (D.T.)";"1.0";"2";"1";"1";"2";"1";"1";"2014-10-16 13:32:50.083";"2014-10-16 13:49:41.577";"1";"1";"0";"172";"171";"module.devaluation_block1.exec-7999.deval1";"10671";"2014-10-16 13:46:47.803";"19";"6";"1";"3";"2570";"1943";"3145";"2014-10-16 13:46:37.132";"3";;;;;;;;;;;;;;;;;;;;;;;;;;;;;;;;;;;;;;;;;;;;;;;;;;;;;;;;;;;;;;;;;;;;;;;;;;;;;;;;
"C1338715";;;"Windows 7";"Rachel's Experiment (D.T.)";"1.0";"2";"1";"1";"2";"1";"1";"2014-10-16 13:32:50.083";"2014-10-16 13:49:41.577";"1";"1";"0";"173";"172";"module.devaluation_block1.exec-7999.deval1";"10116";"2014-10-16 13:46:57.943";"25";"1";"1";"2";"2724";"1658";"2719";"2014-10-16 13:46:47.819";"3";;;;;;;;;;;;;;;;;;;;;;;;;;;;;;;;;;;;;;;;;;;;;;;;;;;;;;;;;;;;;;;;;;;;;;;;;;;;;;;;
"C1338715";;;"Windows 7";"Rachel's Experiment (D.T.)";"1.0";"2";"1";"1";"2";"1";"1";"2014-10-16 13:32:50.083";"2014-10-16 13:49:41.577";"1";"1";"0";"174";"173";"module.devaluation_block1.exec-7999.deval1";"10829";"2014-10-16 13:47:08.786";"7";"4";"1";"3";"1120";"2163";"4506";"2014-10-16 13:46:57.959";"1";;;;;;;;;;;;;;;;;;;;;;;;;;;;;;;;;;;;;;;;;;;;;;;;;;;;;;;;;;;;;;;;;;;;;;;;;;;;;;;;
"C1338715";;;"Windows 7";"Rachel's Experiment (D.T.)";"1.0";"2";"1";"1";"2";"1";"1";"2014-10-16 13:32:50.083";"2014-10-16 13:49:41.577";"1";"1";"0";"175";"174";"module.devaluation_block1.exec-7999.deval1";"9557";"2014-10-16 13:47:18.364";"9";"7";"7";"7";"2398";"1692";"2456";"2014-10-16 13:47:08.801";"2";;;;;;;;;;;;;;;;;;;;;;;;;;;;;;;;;;;;;;;;;;;;;;;;;;;;;;;;;;;;;;;;;;;;;;;;;;;;;;;;
"C1338715";;;"Windows 7";"Rachel's Experiment (D.T.)";"1.0";"2";"1";"1";"2";"1";"1";"2014-10-16 13:32:50.083";"2014-10-16 13:49:41.577";"1";"1";"0";"176";"175";"module.devaluation_block1.exec-7999.deval1";"10204";"2014-10-16 13:47:28.598";"8";"6";"3";"5";"1500";"4319";"1359";"2014-10-16 13:47:18.380";"1";;;;;;;;;;;;;;;;;;;;;;;;;;;;;;;;;;;;;;;;;;;;;;;;;;;;;;;;;;;;;;;;;;;;;;;;;;;;;;;;
"C1338715";;;"Windows 7";"Rachel's Experiment (D.T.)";"1.0";"2";"1";"1";"2";"1";"1";"2014-10-16 13:32:50.083";"2014-10-16 13:49:41.577";"1";"1";"0";"177";"176";"module.devaluation_block1.exec-7999.deval1";"9717";"2014-10-16 13:47:38.333";"21";"7";"2";"9";"2298";"1856";"2530";"2014-10-16 13:47:28.614";"3";;;;;;;;;;;;;;;;;;;;;;;;;;;;;;;;;;;;;;;;;;;;;;;;;;;;;;;;;;;;;;;;;;;;;;;;;;;;;;;;
"C1338715";;;"Windows 7";"Rachel's Experiment (D.T.)";"1.0";"2";"1";"1";"2";"1";"1";"2014-10-16 13:32:50.083";"2014-10-16 13:49:41.577";"1";"1";"0";"178";"177";"module.devaluation_block1.exec-7999.deval1";"11892";"2014-10-16 13:47:50.252";"23";"9";"8";"7";"2676";"2271";"3925";"2014-10-16 13:47:38.364";"3";;;;;;;;;;;;;;;;;;;;;;;;;;;;;;;;;;;;;;;;;;;;;;;;;;;;;;;;;;;;;;;;;;;;;;;;;;;;;;;;
"C1338715";;;"Windows 7";"Rachel's Experiment (D.T.)";"1.0";"2";"1";"1";"2";"1";"1";"2014-10-16 13:32:50.083";"2014-10-16 13:49:41.577";"1";"1";"0";"179";"178";"module.devaluation_block1.exec-7999.deval1";"5549";"2014-10-16 13:47:55.821";"17";"5";"5";"5";"1709";"429";"398";"2014-10-16 13:47:50.267";"2";;;;;;;;;;;;;;;;;;;;;;;;;;;;;;;;;;;;;;;;;;;;;;;;;;;;;;;;;;;;;;;;;;;;;;;;;;;;;;;;
"C1338715";;;"Windows 7";"Rachel's Experiment (D.T.)";"1.0";"2";"1";"1";"2";"1";"1";"2014-10-16 13:32:50.083";"2014-10-16 13:49:41.577";"1";"1";"0";"180";"179";"module.devaluation_block1.exec-7999.deval1";"8046";"2014-10-16 13:48:03.887";"12";"9";"9";"9";"2372";"1239";"1406";"2014-10-16 13:47:55.837";"2";;;;;;;;;;;;;;;;;;;;;;;;;;;;;;;;;;;;;;;;;;;;;;;;;;;;;;;;;;;;;;;;;;;;;;;;;;;;;;;;
"C1338715";;;"Windows 7";"Rachel's Experiment (D.T.)";"1.0";"2";"1";"1";"2";"1";"1";"2014-10-16 13:32:50.083";"2014-10-16 13:49:41.577";"1";"1";"0";"181";"180";"module.devaluation_block1.exec-7999.deval1";"8509";"2014-10-16 13:48:12.420";"16";"4";"1";"5";"2930";"1327";"1219";"2014-10-16 13:48:03.902";"2";;;;;;;;;;;;;;;;;;;;;;;;;;;;;;;;;;;;;;;;;;;;;;;;;;;;;;;;;;;;;;;;;;;;;;;;;;;;;;;;
"C1338715";;;"Windows 7";"Rachel's Experiment (D.T.)";"1.0";"2";"1";"1";"2";"1";"1";"2014-10-16 13:32:50.083";"2014-10-16 13:49:41.577";"1";"1";"0";"182";"181";"module.devaluation_block1.exec-7999.deval1";"8661";"2014-10-16 13:48:21.094";"2";"3";"1";"2";"1800";"1723";"2112";"2014-10-16 13:48:12.436";"1";;;;;;;;;;;;;;;;;;;;;;;;;;;;;;;;;;;;;;;;;;;;;;;;;;;;;;;;;;;;;;;;;;;;;;;;;;;;;;;;
"C1338715";;;"Windows 7";"Rachel's Experiment (D.T.)";"1.0";"2";"1";"1";"2";"1";"1";"2014-10-16 13:32:50.083";"2014-10-16 13:49:41.577";"1";"1";"0";"183";"182";"module.devaluation_block1.exec-7999.deval1";"11445";"2014-10-16 13:48:32.576";"3";"6";"7";"7";"4436";"2478";"1499";"2014-10-16 13:48:21.125";"1";;;;;;;;;;;;;;;;;;;;;;;;;;;;;;;;;;;;;;;;;;;;;;;;;;;;;;;;;;;;;;;;;;;;;;;;;;;;;;;;
"C1338715";;;"Windows 7";"Rachel's Experiment (D.T.)";"1.0";"2";"1";"1";"2";"1";"1";"2014-10-16 13:32:50.083";"2014-10-16 13:49:41.577";"1";"1";"0";"184";"183";"module.devaluation_block1.exec-7999.deval1";"7389";"2014-10-16 13:48:39.971";"24";"6";"8";"7";"2162";"1306";"886";"2014-10-16 13:48:32.591";"3";;;;;;;;;;;;;;;;;;;;;;;;;;;;;;;;;;;;;;;;;;;;;;;;;;;;;;;;;;;;;;;;;;;;;;;;;;;;;;;;
"C1338715";;;"Windows 7";"Rachel's Experiment (D.T.)";"1.0";"2";"1";"1";"2";"1";"1";"2014-10-16 13:32:50.083";"2014-10-16 13:49:41.577";"1";"1";"0";"185";"184";"module.devaluation_block1.exec-7999.deval1";"6677";"2014-10-16 13:48:46.679";"14";"9";"9";"9";"1224";"1232";"1188";"2014-10-16 13:48:40.002";"2";;;;;;;;;;;;;;;;;;;;;;;;;;;;;;;;;;;;;;;;;;;;;;;;;;;;;;;;;;;;;;;;;;;;;;;;;;;;;;;;
"C1338715";;;"Windows 7";"Rachel's Experiment (D.T.)";"1.0";"2";"1";"1";"2";"1";"1";"2014-10-16 13:32:50.083";"2014-10-16 13:49:41.577";"1";"1";"0";"186";"185";"module.devaluation_block1.exec-7999.deval1";"10853";"2014-10-16 13:48:57.552";"11";"6";"1";"2";"3771";"1542";"2513";"2014-10-16 13:48:46.694";"2";;;;;;;;;;;;;;;;;;;;;;;;;;;;;;;;;;;;;;;;;;;;;;;;;;;;;;;;;;;;;;;;;;;;;;;;;;;;;;;;
"C1338715";;;"Windows 7";"Rachel's Experiment (D.T.)";"1.0";"2";"1";"1";"2";"1";"1";"2014-10-16 13:32:50.083";"2014-10-16 13:49:41.577";"1";"1";"0";"187";"186";"module.devaluation_block1.exec-7999.deval1";"8428";"2014-10-16 13:49:05.992";"4";"6";"1";"3";"1450";"2019";"1924";"2014-10-16 13:48:57.568";"1";;;;;;;;;;;;;;;;;;;;;;;;;;;;;;;;;;;;;;;;;;;;;;;;;;;;;;;;;;;;;;;;;;;;;;;;;;;;;;;;
"C1338715";;;"Windows 7";"Rachel's Experiment (D.T.)";"1.0";"2";"1";"1";"2";"1";"1";"2014-10-16 13:32:50.083";"2014-10-16 13:49:41.577";"1";"1";"0";"188";"187";"module.devaluation_block1.exec-7999.deval1";"7272";"2014-10-16 13:49:13.293";"20";"5";"1";"3";"963";"1265";"2024";"2014-10-16 13:49:06.023";"3";;;;;;;;;;;;;;;;;;;;;;;;;;;;;;;;;;;;;;;;;;;;;;;;;;;;;;;;;;;;;;;;;;;;;;;;;;;;;;;;
"C1338715";;;"Windows 7";"Rachel's Experiment (D.T.)";"1.0";"2";"1";"1";"2";"1";"1";"2014-10-16 13:32:50.083";"2014-10-16 13:49:41.577";"1";"1";"0";"189";"188";"module.devaluation_block1.exec-7999.deval1";"15653";"2014-10-16 13:49:28.956";"1";"2";"1";"1";"9437";"1212";"1973";"2014-10-16 13:49:13.309";"1";;;;;;;;;;;;;;;;;;;;;;;;;;;;;;;;;;;;;;;;;;;;;;;;;;;;;;;;;;;;;;;;;;;;;;;;;;;;;;;;
"C1338715";;;"Windows 7";"Rachel's Experiment (D.T.)";"1.0";"2";"1";"1";"2";"1";"1";"2014-10-16 13:32:50.083";"2014-10-16 13:49:41.577";"1";"1";"0";"190";"189";"module.devaluation_block1.exec-7999.deval1";"8668";"2014-10-16 13:49:37.646";"10";"7";"1";"2";"2311";"1367";"1960";"2014-10-16 13:49:28.987";"2";;;;;;;;;;;;;;;;;;;;;;;;;;;;;;;;;;;;;;;;;;;;;;;;;;;;;;;;;;;;;;;;;;;;;;;;;;;;;;;;
