"user.name";"user.yearOfBirth";"user.sex";"user.osName";"module.name";"module.version";"module.online.subject.code";"module.online.study.id";"module.online.module.nr";"module.online.group.nr";"session.id";"session.index";"session.startTime";"session.endTime";"session.completed";"session.node-1459.conditionType";"session.node-8169.DevalQorder";"trial.id";"trial.index";"trial.name";"trial.deval1.durationTime";"trial.deval1.endTime";"trial.deval1.icon";"trial.deval1.Resp_Attractive";"trial.deval1.Resp_Eat";"trial.deval1.Resp_Taste";"trial.deval1.RT_Attractive";"trial.deval1.RT_Eat";"trial.deval1.RT_Taste";"trial.deval1.startTime";"trial.deval1.stimulus type";"trial.devalPractice.durationTime";"trial.devalPractice.endTime";"trial.devalPractice.icon";"trial.devalPractice.Resp_Attractive";"trial.devalPractice.Resp_Eat";"trial.devalPractice.Resp_Taste";"trial.devalPractice.RT_Attractive";"trial.devalPractice.RT_Eat";"trial.devalPractice.RT_Taste";"trial.devalPractice.startTime";"trial.devalPractice.stimulus type";"trial.GoNoGo1.durationTime";"trial.GoNoGo1.endTime";"trial.GoNoGo1.Error Type";"trial.GoNoGo1.icon";"trial.GoNoGo1.location";"trial.GoNoGo1.outcome";"trial.GoNoGo1.response";"trial.GoNoGo1.result";"trial.GoNoGo1.RT";"trial.GoNoGo1.signal";"trial.GoNoGo1.startTime";"trial.GoNoGo1.stimulus type";"trial.GoNoGo2.durationTime";"trial.GoNoGo2.endTime";"trial.GoNoGo2.Error Type";"trial.GoNoGo2.icon";"trial.GoNoGo2.location";"trial.GoNoGo2.outcome";"trial.GoNoGo2.response";"trial.GoNoGo2.result";"trial.GoNoGo2.RT";"trial.GoNoGo2.signal";"trial.GoNoGo2.startTime";"trial.GoNoGo2.stimulus type";"trial.GoNoGo3.durationTime";"trial.GoNoGo3.endTime";"trial.GoNoGo3.Error Type";"trial.GoNoGo3.icon";"trial.GoNoGo3.location";"trial.GoNoGo3.outcome";"trial.GoNoGo3.response";"trial.GoNoGo3.result";"trial.GoNoGo3.RT";"trial.GoNoGo3.signal";"trial.GoNoGo3.startTime";"trial.GoNoGo3.stimulus type";"trial.GoNoGo4.durationTime";"trial.GoNoGo4.endTime";"trial.GoNoGo4.Error Type";"trial.GoNoGo4.icon";"trial.GoNoGo4.location";"trial.GoNoGo4.outcome";"trial.GoNoGo4.response";"trial.GoNoGo4.result";"trial.GoNoGo4.RT";"trial.GoNoGo4.signal";"trial.GoNoGo4.startTime";"trial.GoNoGo4.stimulus type";"trial.GoNoGo_Practice.durationTime";"trial.GoNoGo_Practice.endTime";"trial.GoNoGo_Practice.icon";"trial.GoNoGo_Practice.location";"trial.GoNoGo_Practice.outcome";"trial.GoNoGo_Practice.response";"trial.GoNoGo_Practice.result";"trial.GoNoGo_Practice.RT";"trial.GoNoGo_Practice.signal";"trial.GoNoGo_Practice.startTime";"trial.GoNoGo_Practice.stimulus type";"trial.GoNoGo_Tutorial.durationTime";"trial.GoNoGo_Tutorial.endTime";"trial.GoNoGo_Tutorial.icon";"trial.GoNoGo_Tutorial.location";"trial.GoNoGo_Tutorial.outcome";"trial.GoNoGo_Tutorial.response";"trial.GoNoGo_Tutorial.result";"trial.GoNoGo_Tutorial.RT";"trial.GoNoGo_Tutorial.signal";"trial.GoNoGo_Tutorial.startTime"
"jack95";"1995";;"Windows 7";"Rachel's Experiment (D.T.)";"1.0";"2";"1";"1";"2";"1";"1";"2014-10-12 14:29:19.267";"2014-10-12 14:44:04.682";"1";"1";"1";"1";"0";"module.GoNoGotutorial.exec-1657.GoNoGo_Tutorial";;;;;;;;;;;;;;;;;;;;;;;;;;;;;;;;;;;;;;;;;;;;;;;;;;;;;;;;;;;;;;;;;;;;;;;;;;;;;;;;;;"4001";"2014-10-12 14:30:40.901";"leftResponse";"0";"FINISHED";"LEFT";"success";"1362";"0";"2014-10-12 14:30:36.899"
"jack95";"1995";;"Windows 7";"Rachel's Experiment (D.T.)";"1.0";"2";"1";"1";"2";"1";"1";"2014-10-12 14:29:19.267";"2014-10-12 14:44:04.682";"1";"1";"1";"2";"1";"module.GoNoGotutorial.exec-1657.GoNoGo_Tutorial";;;;;;;;;;;;;;;;;;;;;;;;;;;;;;;;;;;;;;;;;;;;;;;;;;;;;;;;;;;;;;;;;;;;;;;;;;;;;;;;;;"3999";"2014-10-12 14:30:46.239";"rightResponse";"1";"FINISHED";"RIGHT";"success";"653";"0";"2014-10-12 14:30:42.239"
"jack95";"1995";;"Windows 7";"Rachel's Experiment (D.T.)";"1.0";"2";"1";"1";"2";"1";"1";"2014-10-12 14:29:19.267";"2014-10-12 14:44:04.682";"1";"1";"1";"3";"2";"module.GoNoGotutorial.exec-1657.GoNoGo_Tutorial";;;;;;;;;;;;;;;;;;;;;;;;;;;;;;;;;;;;;;;;;;;;;;;;;;;;;;;;;;;;;;;;;;;;;;;;;;;;;;;;;;"3999";"2014-10-12 14:30:51.560";"signalResponse";"0";"FINISHED";"NONE";"success";"0";"1";"2014-10-12 14:30:47.560"
"jack95";"1995";;"Windows 7";"Rachel's Experiment (D.T.)";"1.0";"2";"1";"1";"2";"1";"1";"2014-10-12 14:29:19.267";"2014-10-12 14:44:04.682";"1";"1";"1";"4";"3";"module.GoNoGopractice.exec-3510.GoNoGo_Practice";;;;;;;;;;;;;;;;;;;;;;;;;;;;;;;;;;;;;;;;;;;;;;;;;;;;;;;;;;;;;;;;;;;;;;;"1979";"2014-10-12 14:30:59.960";"18";"0";"FINISHED";"LEFT";"success";"762";"0";"2014-10-12 14:30:57.981";"3";;;;;;;;;;
"jack95";"1995";;"Windows 7";"Rachel's Experiment (D.T.)";"1.0";"2";"1";"1";"2";"1";"1";"2014-10-12 14:29:19.267";"2014-10-12 14:44:04.682";"1";"1";"1";"5";"4";"module.GoNoGopractice.exec-3510.GoNoGo_Practice";;;;;;;;;;;;;;;;;;;;;;;;;;;;;;;;;;;;;;;;;;;;;;;;;;;;;;;;;;;;;;;;;;;;;;;"1956";"2014-10-12 14:31:03.242";"21";"1";"FINISHED";"RIGHT";"success";"478";"0";"2014-10-12 14:31:01.285";"3";;;;;;;;;;
"jack95";"1995";;"Windows 7";"Rachel's Experiment (D.T.)";"1.0";"2";"1";"1";"2";"1";"1";"2014-10-12 14:29:19.267";"2014-10-12 14:44:04.682";"1";"1";"1";"6";"5";"module.GoNoGopractice.exec-3510.GoNoGo_Practice";;;;;;;;;;;;;;;;;;;;;;;;;;;;;;;;;;;;;;;;;;;;;;;;;;;;;;;;;;;;;;;;;;;;;;;"1957";"2014-10-12 14:31:06.521";"14";"1";"FINISHED";"RIGHT";"failure";"661";"1";"2014-10-12 14:31:04.563";"2";;;;;;;;;;
"jack95";"1995";;"Windows 7";"Rachel's Experiment (D.T.)";"1.0";"2";"1";"1";"2";"1";"1";"2014-10-12 14:29:19.267";"2014-10-12 14:44:04.682";"1";"1";"1";"7";"6";"module.GoNoGopractice.exec-3510.GoNoGo_Practice";;;;;;;;;;;;;;;;;;;;;;;;;;;;;;;;;;;;;;;;;;;;;;;;;;;;;;;;;;;;;;;;;;;;;;;"1952";"2014-10-12 14:31:09.793";"26";"0";"FINISHED";"LEFT";"success";"600";"0";"2014-10-12 14:31:07.841";"3";;;;;;;;;;
"jack95";"1995";;"Windows 7";"Rachel's Experiment (D.T.)";"1.0";"2";"1";"1";"2";"1";"1";"2014-10-12 14:29:19.267";"2014-10-12 14:44:04.682";"1";"1";"1";"8";"7";"module.GoNoGopractice.exec-3510.GoNoGo_Practice";;;;;;;;;;;;;;;;;;;;;;;;;;;;;;;;;;;;;;;;;;;;;;;;;;;;;;;;;;;;;;;;;;;;;;;"1951";"2014-10-12 14:31:13.063";"2";"0";"FINISHED";"LEFT";"success";"571";"0";"2014-10-12 14:31:11.111";"1";;;;;;;;;;
"jack95";"1995";;"Windows 7";"Rachel's Experiment (D.T.)";"1.0";"2";"1";"1";"2";"1";"1";"2014-10-12 14:29:19.267";"2014-10-12 14:44:04.682";"1";"1";"1";"9";"8";"module.GoNoGopractice.exec-3510.GoNoGo_Practice";;;;;;;;;;;;;;;;;;;;;;;;;;;;;;;;;;;;;;;;;;;;;;;;;;;;;;;;;;;;;;;;;;;;;;;"1952";"2014-10-12 14:31:16.326";"30";"0";"FINISHED";"LEFT";"failure";"984";"1";"2014-10-12 14:31:14.373";"3";;;;;;;;;;
"jack95";"1995";;"Windows 7";"Rachel's Experiment (D.T.)";"1.0";"2";"1";"1";"2";"1";"1";"2014-10-12 14:29:19.267";"2014-10-12 14:44:04.682";"1";"1";"1";"10";"9";"module.GoNoGopractice.exec-3510.GoNoGo_Practice";;;;;;;;;;;;;;;;;;;;;;;;;;;;;;;;;;;;;;;;;;;;;;;;;;;;;;;;;;;;;;;;;;;;;;;"1959";"2014-10-12 14:31:19.603";"6";"1";"FINISHED";"NONE";"success";"0";"1";"2014-10-12 14:31:17.643";"1";;;;;;;;;;
"jack95";"1995";;"Windows 7";"Rachel's Experiment (D.T.)";"1.0";"2";"1";"1";"2";"1";"1";"2014-10-12 14:29:19.267";"2014-10-12 14:44:04.682";"1";"1";"1";"11";"10";"module.GoNoGopractice.exec-3510.GoNoGo_Practice";;;;;;;;;;;;;;;;;;;;;;;;;;;;;;;;;;;;;;;;;;;;;;;;;;;;;;;;;;;;;;;;;;;;;;;"1951";"2014-10-12 14:31:22.868";"34";"0";"FINISHED";"LEFT";"success";"537";"0";"2014-10-12 14:31:20.916";"3";;;;;;;;;;
"jack95";"1995";;"Windows 7";"Rachel's Experiment (D.T.)";"1.0";"2";"1";"1";"2";"1";"1";"2014-10-12 14:29:19.267";"2014-10-12 14:44:04.682";"1";"1";"1";"12";"11";"module.GoNoGopractice.exec-3510.GoNoGo_Practice";;;;;;;;;;;;;;;;;;;;;;;;;;;;;;;;;;;;;;;;;;;;;;;;;;;;;;;;;;;;;;;;;;;;;;;"1951";"2014-10-12 14:31:26.134";"23";"1";"FINISHED";"RIGHT";"success";"584";"0";"2014-10-12 14:31:24.182";"3";;;;;;;;;;
"jack95";"1995";;"Windows 7";"Rachel's Experiment (D.T.)";"1.0";"2";"1";"1";"2";"1";"1";"2014-10-12 14:29:19.267";"2014-10-12 14:44:04.682";"1";"1";"1";"13";"12";"module.GoNoGopractice.exec-3510.GoNoGo_Practice";;;;;;;;;;;;;;;;;;;;;;;;;;;;;;;;;;;;;;;;;;;;;;;;;;;;;;;;;;;;;;;;;;;;;;;"1952";"2014-10-12 14:31:29.400";"13";"0";"FINISHED";"NONE";"success";"0";"1";"2014-10-12 14:31:27.448";"2";;;;;;;;;;
"jack95";"1995";;"Windows 7";"Rachel's Experiment (D.T.)";"1.0";"2";"1";"1";"2";"1";"1";"2014-10-12 14:29:19.267";"2014-10-12 14:44:04.682";"1";"1";"1";"14";"13";"module.GoNoGopractice.exec-3510.GoNoGo_Practice";;;;;;;;;;;;;;;;;;;;;;;;;;;;;;;;;;;;;;;;;;;;;;;;;;;;;;;;;;;;;;;;;;;;;;;"1961";"2014-10-12 14:31:32.815";"3";"1";"FINISHED";"RIGHT";"success";"544";"0";"2014-10-12 14:31:30.854";"1";;;;;;;;;;
"jack95";"1995";;"Windows 7";"Rachel's Experiment (D.T.)";"1.0";"2";"1";"1";"2";"1";"1";"2014-10-12 14:29:19.267";"2014-10-12 14:44:04.682";"1";"1";"1";"15";"14";"module.GoNoGopractice.exec-3510.GoNoGo_Practice";;;;;;;;;;;;;;;;;;;;;;;;;;;;;;;;;;;;;;;;;;;;;;;;;;;;;;;;;;;;;;;;;;;;;;;"1960";"2014-10-12 14:31:36.090";"27";"1";"FINISHED";"RIGHT";"failure";"596";"1";"2014-10-12 14:31:34.129";"3";;;;;;;;;;
"jack95";"1995";;"Windows 7";"Rachel's Experiment (D.T.)";"1.0";"2";"1";"1";"2";"1";"1";"2014-10-12 14:29:19.267";"2014-10-12 14:44:04.682";"1";"1";"1";"16";"15";"module.training_block1.exec-9728.GoNoGo1";;;;;;;;;;;;;;;;;;;;;;;"1251";"2014-10-12 14:31:47.586";"NST_correctLoc";"14";"0";"FINISHED";"LEFT";"success";"710";"0";"2014-10-12 14:31:46.335";"2";;;;;;;;;;;;;;;;;;;;;;;;;;;;;;;;;;;;;;;;;;;;;;;;;;;;;;;;;
"jack95";"1995";;"Windows 7";"Rachel's Experiment (D.T.)";"1.0";"2";"1";"1";"2";"1";"1";"2014-10-12 14:29:19.267";"2014-10-12 14:44:04.682";"1";"1";"1";"17";"16";"module.training_block1.exec-9728.GoNoGo1";;;;;;;;;;;;;;;;;;;;;;;"1250";"2014-10-12 14:31:50.152";"NST_correctLoc";"30";"1";"FINISHED";"RIGHT";"success";"541";"0";"2014-10-12 14:31:48.902";"3";;;;;;;;;;;;;;;;;;;;;;;;;;;;;;;;;;;;;;;;;;;;;;;;;;;;;;;;;
"jack95";"1995";;"Windows 7";"Rachel's Experiment (D.T.)";"1.0";"2";"1";"1";"2";"1";"1";"2014-10-12 14:29:19.267";"2014-10-12 14:44:04.682";"1";"1";"1";"18";"17";"module.training_block1.exec-9728.GoNoGo1";;;;;;;;;;;;;;;;;;;;;;;"1249";"2014-10-12 14:31:52.716";"NST_correctLoc";"12";"0";"FINISHED";"LEFT";"success";"709";"0";"2014-10-12 14:31:51.466";"2";;;;;;;;;;;;;;;;;;;;;;;;;;;;;;;;;;;;;;;;;;;;;;;;;;;;;;;;;
"jack95";"1995";;"Windows 7";"Rachel's Experiment (D.T.)";"1.0";"2";"1";"1";"2";"1";"1";"2014-10-12 14:29:19.267";"2014-10-12 14:44:04.682";"1";"1";"1";"19";"18";"module.training_block1.exec-9728.GoNoGo1";;;;;;;;;;;;;;;;;;;;;;;"1249";"2014-10-12 14:31:55.276";"ST_correctStop";"23";"1";"FINISHED";"NONE";"success";"0";"1";"2014-10-12 14:31:54.026";"3";;;;;;;;;;;;;;;;;;;;;;;;;;;;;;;;;;;;;;;;;;;;;;;;;;;;;;;;;
"jack95";"1995";;"Windows 7";"Rachel's Experiment (D.T.)";"1.0";"2";"1";"1";"2";"1";"1";"2014-10-12 14:29:19.267";"2014-10-12 14:44:04.682";"1";"1";"1";"20";"19";"module.training_block1.exec-9728.GoNoGo1";;;;;;;;;;;;;;;;;;;;;;;"1249";"2014-10-12 14:31:57.838";"NST_correctLoc";"25";"1";"FINISHED";"RIGHT";"success";"624";"0";"2014-10-12 14:31:56.588";"3";;;;;;;;;;;;;;;;;;;;;;;;;;;;;;;;;;;;;;;;;;;;;;;;;;;;;;;;;
"jack95";"1995";;"Windows 7";"Rachel's Experiment (D.T.)";"1.0";"2";"1";"1";"2";"1";"1";"2014-10-12 14:29:19.267";"2014-10-12 14:44:04.682";"1";"1";"1";"21";"20";"module.training_block1.exec-9728.GoNoGo1";;;;;;;;;;;;;;;;;;;;;;;"1250";"2014-10-12 14:32:00.394";"ST_correctStop";"32";"0";"FINISHED";"NONE";"success";"0";"1";"2014-10-12 14:31:59.144";"3";;;;;;;;;;;;;;;;;;;;;;;;;;;;;;;;;;;;;;;;;;;;;;;;;;;;;;;;;
"jack95";"1995";;"Windows 7";"Rachel's Experiment (D.T.)";"1.0";"2";"1";"1";"2";"1";"1";"2014-10-12 14:29:19.267";"2014-10-12 14:44:04.682";"1";"1";"1";"22";"21";"module.training_block1.exec-9728.GoNoGo1";;;;;;;;;;;;;;;;;;;;;;;"1249";"2014-10-12 14:32:02.954";"ST_correctStop";"2";"1";"FINISHED";"NONE";"success";"0";"1";"2014-10-12 14:32:01.704";"1";;;;;;;;;;;;;;;;;;;;;;;;;;;;;;;;;;;;;;;;;;;;;;;;;;;;;;;;;
"jack95";"1995";;"Windows 7";"Rachel's Experiment (D.T.)";"1.0";"2";"1";"1";"2";"1";"1";"2014-10-12 14:29:19.267";"2014-10-12 14:44:04.682";"1";"1";"1";"23";"22";"module.training_block1.exec-9728.GoNoGo1";;;;;;;;;;;;;;;;;;;;;;;"1250";"2014-10-12 14:32:05.520";"ST_correctStop";"7";"0";"FINISHED";"NONE";"success";"0";"1";"2014-10-12 14:32:04.270";"1";;;;;;;;;;;;;;;;;;;;;;;;;;;;;;;;;;;;;;;;;;;;;;;;;;;;;;;;;
"jack95";"1995";;"Windows 7";"Rachel's Experiment (D.T.)";"1.0";"2";"1";"1";"2";"1";"1";"2014-10-12 14:29:19.267";"2014-10-12 14:44:04.682";"1";"1";"1";"24";"23";"module.training_block1.exec-9728.GoNoGo1";;;;;;;;;;;;;;;;;;;;;;;"1250";"2014-10-12 14:32:08.083";"ST_correctStop";"0";"1";"FINISHED";"NONE";"success";"0";"1";"2014-10-12 14:32:06.832";"1";;;;;;;;;;;;;;;;;;;;;;;;;;;;;;;;;;;;;;;;;;;;;;;;;;;;;;;;;
"jack95";"1995";;"Windows 7";"Rachel's Experiment (D.T.)";"1.0";"2";"1";"1";"2";"1";"1";"2014-10-12 14:29:19.267";"2014-10-12 14:44:04.682";"1";"1";"1";"25";"24";"module.training_block1.exec-9728.GoNoGo1";;;;;;;;;;;;;;;;;;;;;;;"1249";"2014-10-12 14:32:10.641";"NST_correctLoc";"10";"1";"FINISHED";"RIGHT";"success";"606";"0";"2014-10-12 14:32:09.391";"2";;;;;;;;;;;;;;;;;;;;;;;;;;;;;;;;;;;;;;;;;;;;;;;;;;;;;;;;;
"jack95";"1995";;"Windows 7";"Rachel's Experiment (D.T.)";"1.0";"2";"1";"1";"2";"1";"1";"2014-10-12 14:29:19.267";"2014-10-12 14:44:04.682";"1";"1";"1";"26";"25";"module.training_block1.exec-9728.GoNoGo1";;;;;;;;;;;;;;;;;;;;;;;"1250";"2014-10-12 14:32:13.195";"NST_correctLoc";"34";"1";"FINISHED";"RIGHT";"success";"499";"0";"2014-10-12 14:32:11.945";"3";;;;;;;;;;;;;;;;;;;;;;;;;;;;;;;;;;;;;;;;;;;;;;;;;;;;;;;;;
"jack95";"1995";;"Windows 7";"Rachel's Experiment (D.T.)";"1.0";"2";"1";"1";"2";"1";"1";"2014-10-12 14:29:19.267";"2014-10-12 14:44:04.682";"1";"1";"1";"27";"26";"module.training_block1.exec-9728.GoNoGo1";;;;;;;;;;;;;;;;;;;;;;;"1250";"2014-10-12 14:32:15.765";"ST_correctStop";"28";"1";"FINISHED";"NONE";"success";"0";"1";"2014-10-12 14:32:14.515";"3";;;;;;;;;;;;;;;;;;;;;;;;;;;;;;;;;;;;;;;;;;;;;;;;;;;;;;;;;
"jack95";"1995";;"Windows 7";"Rachel's Experiment (D.T.)";"1.0";"2";"1";"1";"2";"1";"1";"2014-10-12 14:29:19.267";"2014-10-12 14:44:04.682";"1";"1";"1";"28";"27";"module.training_block1.exec-9728.GoNoGo1";;;;;;;;;;;;;;;;;;;;;;;"1249";"2014-10-12 14:32:18.315";"ST_failedStop";"3";"0";"FINISHED";"LEFT";"failure";"500";"1";"2014-10-12 14:32:17.065";"1";;;;;;;;;;;;;;;;;;;;;;;;;;;;;;;;;;;;;;;;;;;;;;;;;;;;;;;;;
"jack95";"1995";;"Windows 7";"Rachel's Experiment (D.T.)";"1.0";"2";"1";"1";"2";"1";"1";"2014-10-12 14:29:19.267";"2014-10-12 14:44:04.682";"1";"1";"1";"29";"28";"module.training_block1.exec-9728.GoNoGo1";;;;;;;;;;;;;;;;;;;;;;;"1249";"2014-10-12 14:32:20.864";"ST_correctStop";"27";"1";"FINISHED";"NONE";"success";"0";"1";"2014-10-12 14:32:19.614";"3";;;;;;;;;;;;;;;;;;;;;;;;;;;;;;;;;;;;;;;;;;;;;;;;;;;;;;;;;
"jack95";"1995";;"Windows 7";"Rachel's Experiment (D.T.)";"1.0";"2";"1";"1";"2";"1";"1";"2014-10-12 14:29:19.267";"2014-10-12 14:44:04.682";"1";"1";"1";"30";"29";"module.training_block1.exec-9728.GoNoGo1";;;;;;;;;;;;;;;;;;;;;;;"1249";"2014-10-12 14:32:23.421";"ST_correctStop";"29";"0";"FINISHED";"NONE";"success";"0";"1";"2014-10-12 14:32:22.171";"3";;;;;;;;;;;;;;;;;;;;;;;;;;;;;;;;;;;;;;;;;;;;;;;;;;;;;;;;;
"jack95";"1995";;"Windows 7";"Rachel's Experiment (D.T.)";"1.0";"2";"1";"1";"2";"1";"1";"2014-10-12 14:29:19.267";"2014-10-12 14:44:04.682";"1";"1";"1";"31";"30";"module.training_block1.exec-9728.GoNoGo1";;;;;;;;;;;;;;;;;;;;;;;"1249";"2014-10-12 14:32:25.980";"ST_correctStop";"4";"0";"FINISHED";"NONE";"success";"0";"1";"2014-10-12 14:32:24.729";"1";;;;;;;;;;;;;;;;;;;;;;;;;;;;;;;;;;;;;;;;;;;;;;;;;;;;;;;;;
"jack95";"1995";;"Windows 7";"Rachel's Experiment (D.T.)";"1.0";"2";"1";"1";"2";"1";"1";"2014-10-12 14:29:19.267";"2014-10-12 14:44:04.682";"1";"1";"1";"32";"31";"module.training_block1.exec-9728.GoNoGo1";;;;;;;;;;;;;;;;;;;;;;;"1250";"2014-10-12 14:32:28.537";"NST_correctLoc";"22";"1";"FINISHED";"RIGHT";"success";"617";"0";"2014-10-12 14:32:27.287";"3";;;;;;;;;;;;;;;;;;;;;;;;;;;;;;;;;;;;;;;;;;;;;;;;;;;;;;;;;
"jack95";"1995";;"Windows 7";"Rachel's Experiment (D.T.)";"1.0";"2";"1";"1";"2";"1";"1";"2014-10-12 14:29:19.267";"2014-10-12 14:44:04.682";"1";"1";"1";"33";"32";"module.training_block1.exec-9728.GoNoGo1";;;;;;;;;;;;;;;;;;;;;;;"1249";"2014-10-12 14:32:31.091";"ST_correctStop";"5";"0";"FINISHED";"NONE";"success";"0";"1";"2014-10-12 14:32:29.841";"1";;;;;;;;;;;;;;;;;;;;;;;;;;;;;;;;;;;;;;;;;;;;;;;;;;;;;;;;;
"jack95";"1995";;"Windows 7";"Rachel's Experiment (D.T.)";"1.0";"2";"1";"1";"2";"1";"1";"2014-10-12 14:29:19.267";"2014-10-12 14:44:04.682";"1";"1";"1";"34";"33";"module.training_block1.exec-9728.GoNoGo1";;;;;;;;;;;;;;;;;;;;;;;"1250";"2014-10-12 14:32:33.645";"ST_correctStop";"35";"0";"FINISHED";"NONE";"success";"0";"1";"2014-10-12 14:32:32.395";"3";;;;;;;;;;;;;;;;;;;;;;;;;;;;;;;;;;;;;;;;;;;;;;;;;;;;;;;;;
"jack95";"1995";;"Windows 7";"Rachel's Experiment (D.T.)";"1.0";"2";"1";"1";"2";"1";"1";"2014-10-12 14:29:19.267";"2014-10-12 14:44:04.682";"1";"1";"1";"35";"34";"module.training_block1.exec-9728.GoNoGo1";;;;;;;;;;;;;;;;;;;;;;;"1250";"2014-10-12 14:32:36.202";"NST_correctLoc";"16";"0";"FINISHED";"LEFT";"success";"539";"0";"2014-10-12 14:32:34.952";"2";;;;;;;;;;;;;;;;;;;;;;;;;;;;;;;;;;;;;;;;;;;;;;;;;;;;;;;;;
"jack95";"1995";;"Windows 7";"Rachel's Experiment (D.T.)";"1.0";"2";"1";"1";"2";"1";"1";"2014-10-12 14:29:19.267";"2014-10-12 14:44:04.682";"1";"1";"1";"36";"35";"module.training_block1.exec-9728.GoNoGo1";;;;;;;;;;;;;;;;;;;;;;;"1250";"2014-10-12 14:32:38.758";"NST_correctLoc";"31";"0";"FINISHED";"LEFT";"success";"646";"0";"2014-10-12 14:32:37.508";"3";;;;;;;;;;;;;;;;;;;;;;;;;;;;;;;;;;;;;;;;;;;;;;;;;;;;;;;;;
"jack95";"1995";;"Windows 7";"Rachel's Experiment (D.T.)";"1.0";"2";"1";"1";"2";"1";"1";"2014-10-12 14:29:19.267";"2014-10-12 14:44:04.682";"1";"1";"1";"37";"36";"module.training_block1.exec-9728.GoNoGo1";;;;;;;;;;;;;;;;;;;;;;;"1249";"2014-10-12 14:32:41.312";"NST_correctLoc";"26";"0";"FINISHED";"LEFT";"success";"533";"0";"2014-10-12 14:32:40.062";"3";;;;;;;;;;;;;;;;;;;;;;;;;;;;;;;;;;;;;;;;;;;;;;;;;;;;;;;;;
"jack95";"1995";;"Windows 7";"Rachel's Experiment (D.T.)";"1.0";"2";"1";"1";"2";"1";"1";"2014-10-12 14:29:19.267";"2014-10-12 14:44:04.682";"1";"1";"1";"38";"37";"module.training_block1.exec-9728.GoNoGo1";;;;;;;;;;;;;;;;;;;;;;;"1249";"2014-10-12 14:32:43.866";"ST_correctStop";"24";"1";"FINISHED";"NONE";"success";"0";"1";"2014-10-12 14:32:42.615";"3";;;;;;;;;;;;;;;;;;;;;;;;;;;;;;;;;;;;;;;;;;;;;;;;;;;;;;;;;
"jack95";"1995";;"Windows 7";"Rachel's Experiment (D.T.)";"1.0";"2";"1";"1";"2";"1";"1";"2014-10-12 14:29:19.267";"2014-10-12 14:44:04.682";"1";"1";"1";"39";"38";"module.training_block1.exec-9728.GoNoGo1";;;;;;;;;;;;;;;;;;;;;;;"1250";"2014-10-12 14:32:46.420";"ST_correctStop";"21";"0";"FINISHED";"NONE";"success";"0";"1";"2014-10-12 14:32:45.170";"3";;;;;;;;;;;;;;;;;;;;;;;;;;;;;;;;;;;;;;;;;;;;;;;;;;;;;;;;;
"jack95";"1995";;"Windows 7";"Rachel's Experiment (D.T.)";"1.0";"2";"1";"1";"2";"1";"1";"2014-10-12 14:29:19.267";"2014-10-12 14:44:04.682";"1";"1";"1";"40";"39";"module.training_block1.exec-9728.GoNoGo1";;;;;;;;;;;;;;;;;;;;;;;"1250";"2014-10-12 14:32:48.973";"ST_correctStop";"1";"0";"FINISHED";"NONE";"success";"0";"1";"2014-10-12 14:32:47.723";"1";;;;;;;;;;;;;;;;;;;;;;;;;;;;;;;;;;;;;;;;;;;;;;;;;;;;;;;;;
"jack95";"1995";;"Windows 7";"Rachel's Experiment (D.T.)";"1.0";"2";"1";"1";"2";"1";"1";"2014-10-12 14:29:19.267";"2014-10-12 14:44:04.682";"1";"1";"1";"41";"40";"module.training_block1.exec-9728.GoNoGo1";;;;;;;;;;;;;;;;;;;;;;;"1250";"2014-10-12 14:32:51.526";"NST_correctLoc";"19";"0";"FINISHED";"LEFT";"success";"640";"0";"2014-10-12 14:32:50.276";"3";;;;;;;;;;;;;;;;;;;;;;;;;;;;;;;;;;;;;;;;;;;;;;;;;;;;;;;;;
"jack95";"1995";;"Windows 7";"Rachel's Experiment (D.T.)";"1.0";"2";"1";"1";"2";"1";"1";"2014-10-12 14:29:19.267";"2014-10-12 14:44:04.682";"1";"1";"1";"42";"41";"module.training_block1.exec-9728.GoNoGo1";;;;;;;;;;;;;;;;;;;;;;;"1249";"2014-10-12 14:32:54.078";"ST_correctStop";"18";"1";"FINISHED";"NONE";"success";"0";"1";"2014-10-12 14:32:52.828";"3";;;;;;;;;;;;;;;;;;;;;;;;;;;;;;;;;;;;;;;;;;;;;;;;;;;;;;;;;
"jack95";"1995";;"Windows 7";"Rachel's Experiment (D.T.)";"1.0";"2";"1";"1";"2";"1";"1";"2014-10-12 14:29:19.267";"2014-10-12 14:44:04.682";"1";"1";"1";"43";"42";"module.training_block1.exec-9728.GoNoGo1";;;;;;;;;;;;;;;;;;;;;;;"1249";"2014-10-12 14:32:56.644";"NST_correctLoc";"17";"1";"FINISHED";"RIGHT";"success";"604";"0";"2014-10-12 14:32:55.394";"2";;;;;;;;;;;;;;;;;;;;;;;;;;;;;;;;;;;;;;;;;;;;;;;;;;;;;;;;;
"jack95";"1995";;"Windows 7";"Rachel's Experiment (D.T.)";"1.0";"2";"1";"1";"2";"1";"1";"2014-10-12 14:29:19.267";"2014-10-12 14:44:04.682";"1";"1";"1";"44";"43";"module.training_block1.exec-9728.GoNoGo1";;;;;;;;;;;;;;;;;;;;;;;"1249";"2014-10-12 14:32:59.198";"ST_correctStop";"8";"0";"FINISHED";"NONE";"success";"0";"1";"2014-10-12 14:32:57.948";"1";;;;;;;;;;;;;;;;;;;;;;;;;;;;;;;;;;;;;;;;;;;;;;;;;;;;;;;;;
"jack95";"1995";;"Windows 7";"Rachel's Experiment (D.T.)";"1.0";"2";"1";"1";"2";"1";"1";"2014-10-12 14:29:19.267";"2014-10-12 14:44:04.682";"1";"1";"1";"45";"44";"module.training_block1.exec-9728.GoNoGo1";;;;;;;;;;;;;;;;;;;;;;;"1249";"2014-10-12 14:33:01.752";"NST_correctLoc";"13";"1";"FINISHED";"RIGHT";"success";"420";"0";"2014-10-12 14:33:00.502";"2";;;;;;;;;;;;;;;;;;;;;;;;;;;;;;;;;;;;;;;;;;;;;;;;;;;;;;;;;
"jack95";"1995";;"Windows 7";"Rachel's Experiment (D.T.)";"1.0";"2";"1";"1";"2";"1";"1";"2014-10-12 14:29:19.267";"2014-10-12 14:44:04.682";"1";"1";"1";"46";"45";"module.training_block1.exec-9728.GoNoGo1";;;;;;;;;;;;;;;;;;;;;;;"1249";"2014-10-12 14:33:04.303";"NST_correctLoc";"20";"1";"FINISHED";"RIGHT";"success";"573";"0";"2014-10-12 14:33:03.053";"3";;;;;;;;;;;;;;;;;;;;;;;;;;;;;;;;;;;;;;;;;;;;;;;;;;;;;;;;;
"jack95";"1995";;"Windows 7";"Rachel's Experiment (D.T.)";"1.0";"2";"1";"1";"2";"1";"1";"2014-10-12 14:29:19.267";"2014-10-12 14:44:04.682";"1";"1";"1";"47";"46";"module.training_block1.exec-9728.GoNoGo1";;;;;;;;;;;;;;;;;;;;;;;"1250";"2014-10-12 14:33:06.869";"NST_correctLoc";"15";"0";"FINISHED";"LEFT";"success";"558";"0";"2014-10-12 14:33:05.619";"2";;;;;;;;;;;;;;;;;;;;;;;;;;;;;;;;;;;;;;;;;;;;;;;;;;;;;;;;;
"jack95";"1995";;"Windows 7";"Rachel's Experiment (D.T.)";"1.0";"2";"1";"1";"2";"1";"1";"2014-10-12 14:29:19.267";"2014-10-12 14:44:04.682";"1";"1";"1";"48";"47";"module.training_block1.exec-9728.GoNoGo1";;;;;;;;;;;;;;;;;;;;;;;"1250";"2014-10-12 14:33:09.425";"NST_correctLoc";"11";"0";"FINISHED";"LEFT";"success";"567";"0";"2014-10-12 14:33:08.175";"2";;;;;;;;;;;;;;;;;;;;;;;;;;;;;;;;;;;;;;;;;;;;;;;;;;;;;;;;;
"jack95";"1995";;"Windows 7";"Rachel's Experiment (D.T.)";"1.0";"2";"1";"1";"2";"1";"1";"2014-10-12 14:29:19.267";"2014-10-12 14:44:04.682";"1";"1";"1";"49";"48";"module.training_block1.exec-9728.GoNoGo1";;;;;;;;;;;;;;;;;;;;;;;"1250";"2014-10-12 14:33:11.977";"NST_correctLoc";"9";"0";"FINISHED";"LEFT";"success";"479";"0";"2014-10-12 14:33:10.727";"2";;;;;;;;;;;;;;;;;;;;;;;;;;;;;;;;;;;;;;;;;;;;;;;;;;;;;;;;;
"jack95";"1995";;"Windows 7";"Rachel's Experiment (D.T.)";"1.0";"2";"1";"1";"2";"1";"1";"2014-10-12 14:29:19.267";"2014-10-12 14:44:04.682";"1";"1";"1";"50";"49";"module.training_block1.exec-9728.GoNoGo1";;;;;;;;;;;;;;;;;;;;;;;"1249";"2014-10-12 14:33:14.529";"ST_correctStop";"6";"0";"FINISHED";"NONE";"success";"0";"1";"2014-10-12 14:33:13.279";"1";;;;;;;;;;;;;;;;;;;;;;;;;;;;;;;;;;;;;;;;;;;;;;;;;;;;;;;;;
"jack95";"1995";;"Windows 7";"Rachel's Experiment (D.T.)";"1.0";"2";"1";"1";"2";"1";"1";"2014-10-12 14:29:19.267";"2014-10-12 14:44:04.682";"1";"1";"1";"51";"50";"module.training_block1.exec-9728.GoNoGo1";;;;;;;;;;;;;;;;;;;;;;;"1249";"2014-10-12 14:33:17.082";"NST_correctLoc";"33";"1";"FINISHED";"RIGHT";"success";"493";"0";"2014-10-12 14:33:15.832";"3";;;;;;;;;;;;;;;;;;;;;;;;;;;;;;;;;;;;;;;;;;;;;;;;;;;;;;;;;
"jack95";"1995";;"Windows 7";"Rachel's Experiment (D.T.)";"1.0";"2";"1";"1";"2";"1";"1";"2014-10-12 14:29:19.267";"2014-10-12 14:44:04.682";"1";"1";"1";"52";"51";"module.training_block2.exec-2101.GoNoGo2";;;;;;;;;;;;;;;;;;;;;;;;;;;;;;;;;;;"1249";"2014-10-12 14:33:28.049";"ST_correctStop";"35";"1";"FINISHED";"NONE";"success";"0";"1";"2014-10-12 14:33:26.799";"3";;;;;;;;;;;;;;;;;;;;;;;;;;;;;;;;;;;;;;;;;;;;;
"jack95";"1995";;"Windows 7";"Rachel's Experiment (D.T.)";"1.0";"2";"1";"1";"2";"1";"1";"2014-10-12 14:29:19.267";"2014-10-12 14:44:04.682";"1";"1";"1";"53";"52";"module.training_block2.exec-2101.GoNoGo2";;;;;;;;;;;;;;;;;;;;;;;;;;;;;;;;;;;"1249";"2014-10-12 14:33:30.593";"ST_correctStop";"1";"1";"FINISHED";"NONE";"success";"0";"1";"2014-10-12 14:33:29.343";"1";;;;;;;;;;;;;;;;;;;;;;;;;;;;;;;;;;;;;;;;;;;;;
"jack95";"1995";;"Windows 7";"Rachel's Experiment (D.T.)";"1.0";"2";"1";"1";"2";"1";"1";"2014-10-12 14:29:19.267";"2014-10-12 14:44:04.682";"1";"1";"1";"54";"53";"module.training_block2.exec-2101.GoNoGo2";;;;;;;;;;;;;;;;;;;;;;;;;;;;;;;;;;;"1250";"2014-10-12 14:33:33.134";"NST_correctLoc";"12";"0";"FINISHED";"LEFT";"success";"572";"0";"2014-10-12 14:33:31.884";"2";;;;;;;;;;;;;;;;;;;;;;;;;;;;;;;;;;;;;;;;;;;;;
"jack95";"1995";;"Windows 7";"Rachel's Experiment (D.T.)";"1.0";"2";"1";"1";"2";"1";"1";"2014-10-12 14:29:19.267";"2014-10-12 14:44:04.682";"1";"1";"1";"55";"54";"module.training_block2.exec-2101.GoNoGo2";;;;;;;;;;;;;;;;;;;;;;;;;;;;;;;;;;;"1249";"2014-10-12 14:33:35.679";"NST_correctLoc";"21";"0";"FINISHED";"LEFT";"success";"625";"0";"2014-10-12 14:33:34.428";"3";;;;;;;;;;;;;;;;;;;;;;;;;;;;;;;;;;;;;;;;;;;;;
"jack95";"1995";;"Windows 7";"Rachel's Experiment (D.T.)";"1.0";"2";"1";"1";"2";"1";"1";"2014-10-12 14:29:19.267";"2014-10-12 14:44:04.682";"1";"1";"1";"56";"55";"module.training_block2.exec-2101.GoNoGo2";;;;;;;;;;;;;;;;;;;;;;;;;;;;;;;;;;;"1250";"2014-10-12 14:33:38.221";"NST_correctLoc";"15";"0";"FINISHED";"LEFT";"success";"705";"0";"2014-10-12 14:33:36.971";"2";;;;;;;;;;;;;;;;;;;;;;;;;;;;;;;;;;;;;;;;;;;;;
"jack95";"1995";;"Windows 7";"Rachel's Experiment (D.T.)";"1.0";"2";"1";"1";"2";"1";"1";"2014-10-12 14:29:19.267";"2014-10-12 14:44:04.682";"1";"1";"1";"57";"56";"module.training_block2.exec-2101.GoNoGo2";;;;;;;;;;;;;;;;;;;;;;;;;;;;;;;;;;;"1249";"2014-10-12 14:33:40.763";"NST_correctLoc";"30";"0";"FINISHED";"LEFT";"success";"507";"0";"2014-10-12 14:33:39.513";"3";;;;;;;;;;;;;;;;;;;;;;;;;;;;;;;;;;;;;;;;;;;;;
"jack95";"1995";;"Windows 7";"Rachel's Experiment (D.T.)";"1.0";"2";"1";"1";"2";"1";"1";"2014-10-12 14:29:19.267";"2014-10-12 14:44:04.682";"1";"1";"1";"58";"57";"module.training_block2.exec-2101.GoNoGo2";;;;;;;;;;;;;;;;;;;;;;;;;;;;;;;;;;;"1250";"2014-10-12 14:33:43.304";"ST_correctStop";"22";"1";"FINISHED";"NONE";"success";"0";"1";"2014-10-12 14:33:42.054";"3";;;;;;;;;;;;;;;;;;;;;;;;;;;;;;;;;;;;;;;;;;;;;
"jack95";"1995";;"Windows 7";"Rachel's Experiment (D.T.)";"1.0";"2";"1";"1";"2";"1";"1";"2014-10-12 14:29:19.267";"2014-10-12 14:44:04.682";"1";"1";"1";"59";"58";"module.training_block2.exec-2101.GoNoGo2";;;;;;;;;;;;;;;;;;;;;;;;;;;;;;;;;;;"1249";"2014-10-12 14:33:45.847";"ST_correctStop";"27";"0";"FINISHED";"NONE";"success";"0";"1";"2014-10-12 14:33:44.597";"3";;;;;;;;;;;;;;;;;;;;;;;;;;;;;;;;;;;;;;;;;;;;;
"jack95";"1995";;"Windows 7";"Rachel's Experiment (D.T.)";"1.0";"2";"1";"1";"2";"1";"1";"2014-10-12 14:29:19.267";"2014-10-12 14:44:04.682";"1";"1";"1";"60";"59";"module.training_block2.exec-2101.GoNoGo2";;;;;;;;;;;;;;;;;;;;;;;;;;;;;;;;;;;"1250";"2014-10-12 14:33:48.399";"NST_correctLoc";"23";"0";"FINISHED";"LEFT";"success";"476";"0";"2014-10-12 14:33:47.149";"3";;;;;;;;;;;;;;;;;;;;;;;;;;;;;;;;;;;;;;;;;;;;;
"jack95";"1995";;"Windows 7";"Rachel's Experiment (D.T.)";"1.0";"2";"1";"1";"2";"1";"1";"2014-10-12 14:29:19.267";"2014-10-12 14:44:04.682";"1";"1";"1";"61";"60";"module.training_block2.exec-2101.GoNoGo2";;;;;;;;;;;;;;;;;;;;;;;;;;;;;;;;;;;"1250";"2014-10-12 14:33:50.942";"NST_correctLoc";"11";"0";"FINISHED";"LEFT";"success";"544";"0";"2014-10-12 14:33:49.692";"2";;;;;;;;;;;;;;;;;;;;;;;;;;;;;;;;;;;;;;;;;;;;;
"jack95";"1995";;"Windows 7";"Rachel's Experiment (D.T.)";"1.0";"2";"1";"1";"2";"1";"1";"2014-10-12 14:29:19.267";"2014-10-12 14:44:04.682";"1";"1";"1";"62";"61";"module.training_block2.exec-2101.GoNoGo2";;;;;;;;;;;;;;;;;;;;;;;;;;;;;;;;;;;"1249";"2014-10-12 14:33:53.482";"ST_correctStop";"7";"0";"FINISHED";"NONE";"success";"0";"1";"2014-10-12 14:33:52.231";"1";;;;;;;;;;;;;;;;;;;;;;;;;;;;;;;;;;;;;;;;;;;;;
"jack95";"1995";;"Windows 7";"Rachel's Experiment (D.T.)";"1.0";"2";"1";"1";"2";"1";"1";"2014-10-12 14:29:19.267";"2014-10-12 14:44:04.682";"1";"1";"1";"63";"62";"module.training_block2.exec-2101.GoNoGo2";;;;;;;;;;;;;;;;;;;;;;;;;;;;;;;;;;;"1250";"2014-10-12 14:33:56.023";"ST_correctStop";"2";"0";"FINISHED";"NONE";"success";"0";"1";"2014-10-12 14:33:54.773";"1";;;;;;;;;;;;;;;;;;;;;;;;;;;;;;;;;;;;;;;;;;;;;
"jack95";"1995";;"Windows 7";"Rachel's Experiment (D.T.)";"1.0";"2";"1";"1";"2";"1";"1";"2014-10-12 14:29:19.267";"2014-10-12 14:44:04.682";"1";"1";"1";"64";"63";"module.training_block2.exec-2101.GoNoGo2";;;;;;;;;;;;;;;;;;;;;;;;;;;;;;;;;;;"1250";"2014-10-12 14:33:58.563";"NST_correctLoc";"24";"0";"FINISHED";"LEFT";"success";"486";"0";"2014-10-12 14:33:57.313";"3";;;;;;;;;;;;;;;;;;;;;;;;;;;;;;;;;;;;;;;;;;;;;
"jack95";"1995";;"Windows 7";"Rachel's Experiment (D.T.)";"1.0";"2";"1";"1";"2";"1";"1";"2014-10-12 14:29:19.267";"2014-10-12 14:44:04.682";"1";"1";"1";"65";"64";"module.training_block2.exec-2101.GoNoGo2";;;;;;;;;;;;;;;;;;;;;;;;;;;;;;;;;;;"1250";"2014-10-12 14:34:01.104";"ST_correctStop";"4";"1";"FINISHED";"NONE";"success";"0";"1";"2014-10-12 14:33:59.854";"1";;;;;;;;;;;;;;;;;;;;;;;;;;;;;;;;;;;;;;;;;;;;;
"jack95";"1995";;"Windows 7";"Rachel's Experiment (D.T.)";"1.0";"2";"1";"1";"2";"1";"1";"2014-10-12 14:29:19.267";"2014-10-12 14:44:04.682";"1";"1";"1";"66";"65";"module.training_block2.exec-2101.GoNoGo2";;;;;;;;;;;;;;;;;;;;;;;;;;;;;;;;;;;"1250";"2014-10-12 14:34:03.642";"ST_correctStop";"26";"1";"FINISHED";"NONE";"success";"0";"1";"2014-10-12 14:34:02.392";"3";;;;;;;;;;;;;;;;;;;;;;;;;;;;;;;;;;;;;;;;;;;;;
"jack95";"1995";;"Windows 7";"Rachel's Experiment (D.T.)";"1.0";"2";"1";"1";"2";"1";"1";"2014-10-12 14:29:19.267";"2014-10-12 14:44:04.682";"1";"1";"1";"67";"66";"module.training_block2.exec-2101.GoNoGo2";;;;;;;;;;;;;;;;;;;;;;;;;;;;;;;;;;;"1249";"2014-10-12 14:34:06.187";"ST_correctStop";"0";"0";"FINISHED";"NONE";"success";"0";"1";"2014-10-12 14:34:04.937";"1";;;;;;;;;;;;;;;;;;;;;;;;;;;;;;;;;;;;;;;;;;;;;
"jack95";"1995";;"Windows 7";"Rachel's Experiment (D.T.)";"1.0";"2";"1";"1";"2";"1";"1";"2014-10-12 14:29:19.267";"2014-10-12 14:44:04.682";"1";"1";"1";"68";"67";"module.training_block2.exec-2101.GoNoGo2";;;;;;;;;;;;;;;;;;;;;;;;;;;;;;;;;;;"1250";"2014-10-12 14:34:08.726";"ST_correctStop";"29";"1";"FINISHED";"NONE";"success";"0";"1";"2014-10-12 14:34:07.476";"3";;;;;;;;;;;;;;;;;;;;;;;;;;;;;;;;;;;;;;;;;;;;;
"jack95";"1995";;"Windows 7";"Rachel's Experiment (D.T.)";"1.0";"2";"1";"1";"2";"1";"1";"2014-10-12 14:29:19.267";"2014-10-12 14:44:04.682";"1";"1";"1";"69";"68";"module.training_block2.exec-2101.GoNoGo2";;;;;;;;;;;;;;;;;;;;;;;;;;;;;;;;;;;"1249";"2014-10-12 14:34:11.265";"ST_correctStop";"33";"1";"FINISHED";"NONE";"success";"0";"1";"2014-10-12 14:34:10.014";"3";;;;;;;;;;;;;;;;;;;;;;;;;;;;;;;;;;;;;;;;;;;;;
"jack95";"1995";;"Windows 7";"Rachel's Experiment (D.T.)";"1.0";"2";"1";"1";"2";"1";"1";"2014-10-12 14:29:19.267";"2014-10-12 14:44:04.682";"1";"1";"1";"70";"69";"module.training_block2.exec-2101.GoNoGo2";;;;;;;;;;;;;;;;;;;;;;;;;;;;;;;;;;;"1250";"2014-10-12 14:34:13.811";"NST_correctLoc";"10";"1";"FINISHED";"RIGHT";"success";"465";"0";"2014-10-12 14:34:12.561";"2";;;;;;;;;;;;;;;;;;;;;;;;;;;;;;;;;;;;;;;;;;;;;
"jack95";"1995";;"Windows 7";"Rachel's Experiment (D.T.)";"1.0";"2";"1";"1";"2";"1";"1";"2014-10-12 14:29:19.267";"2014-10-12 14:44:04.682";"1";"1";"1";"71";"70";"module.training_block2.exec-2101.GoNoGo2";;;;;;;;;;;;;;;;;;;;;;;;;;;;;;;;;;;"1250";"2014-10-12 14:34:16.353";"NST_correctLoc";"14";"1";"FINISHED";"RIGHT";"success";"464";"0";"2014-10-12 14:34:15.103";"2";;;;;;;;;;;;;;;;;;;;;;;;;;;;;;;;;;;;;;;;;;;;;
"jack95";"1995";;"Windows 7";"Rachel's Experiment (D.T.)";"1.0";"2";"1";"1";"2";"1";"1";"2014-10-12 14:29:19.267";"2014-10-12 14:44:04.682";"1";"1";"1";"72";"71";"module.training_block2.exec-2101.GoNoGo2";;;;;;;;;;;;;;;;;;;;;;;;;;;;;;;;;;;"1250";"2014-10-12 14:34:18.892";"NST_correctLoc";"25";"1";"FINISHED";"RIGHT";"success";"554";"0";"2014-10-12 14:34:17.642";"3";;;;;;;;;;;;;;;;;;;;;;;;;;;;;;;;;;;;;;;;;;;;;
"jack95";"1995";;"Windows 7";"Rachel's Experiment (D.T.)";"1.0";"2";"1";"1";"2";"1";"1";"2014-10-12 14:29:19.267";"2014-10-12 14:44:04.682";"1";"1";"1";"73";"72";"module.training_block2.exec-2101.GoNoGo2";;;;;;;;;;;;;;;;;;;;;;;;;;;;;;;;;;;"1250";"2014-10-12 14:34:21.431";"NST_correctLoc";"13";"1";"FINISHED";"RIGHT";"success";"433";"0";"2014-10-12 14:34:20.181";"2";;;;;;;;;;;;;;;;;;;;;;;;;;;;;;;;;;;;;;;;;;;;;
"jack95";"1995";;"Windows 7";"Rachel's Experiment (D.T.)";"1.0";"2";"1";"1";"2";"1";"1";"2014-10-12 14:29:19.267";"2014-10-12 14:44:04.682";"1";"1";"1";"74";"73";"module.training_block2.exec-2101.GoNoGo2";;;;;;;;;;;;;;;;;;;;;;;;;;;;;;;;;;;"1249";"2014-10-12 14:34:23.968";"ST_correctStop";"6";"1";"FINISHED";"NONE";"success";"0";"1";"2014-10-12 14:34:22.718";"1";;;;;;;;;;;;;;;;;;;;;;;;;;;;;;;;;;;;;;;;;;;;;
"jack95";"1995";;"Windows 7";"Rachel's Experiment (D.T.)";"1.0";"2";"1";"1";"2";"1";"1";"2014-10-12 14:29:19.267";"2014-10-12 14:44:04.682";"1";"1";"1";"75";"74";"module.training_block2.exec-2101.GoNoGo2";;;;;;;;;;;;;;;;;;;;;;;;;;;;;;;;;;;"1250";"2014-10-12 14:34:26.507";"NST_correctLoc";"9";"1";"FINISHED";"RIGHT";"success";"478";"0";"2014-10-12 14:34:25.257";"2";;;;;;;;;;;;;;;;;;;;;;;;;;;;;;;;;;;;;;;;;;;;;
"jack95";"1995";;"Windows 7";"Rachel's Experiment (D.T.)";"1.0";"2";"1";"1";"2";"1";"1";"2014-10-12 14:29:19.267";"2014-10-12 14:44:04.682";"1";"1";"1";"76";"75";"module.training_block2.exec-2101.GoNoGo2";;;;;;;;;;;;;;;;;;;;;;;;;;;;;;;;;;;"1250";"2014-10-12 14:34:29.045";"NST_correctLoc";"28";"0";"FINISHED";"LEFT";"success";"588";"0";"2014-10-12 14:34:27.795";"3";;;;;;;;;;;;;;;;;;;;;;;;;;;;;;;;;;;;;;;;;;;;;
"jack95";"1995";;"Windows 7";"Rachel's Experiment (D.T.)";"1.0";"2";"1";"1";"2";"1";"1";"2014-10-12 14:29:19.267";"2014-10-12 14:44:04.682";"1";"1";"1";"77";"76";"module.training_block2.exec-2101.GoNoGo2";;;;;;;;;;;;;;;;;;;;;;;;;;;;;;;;;;;"1250";"2014-10-12 14:34:31.586";"NST_correctLoc";"16";"1";"FINISHED";"RIGHT";"success";"601";"0";"2014-10-12 14:34:30.336";"2";;;;;;;;;;;;;;;;;;;;;;;;;;;;;;;;;;;;;;;;;;;;;
"jack95";"1995";;"Windows 7";"Rachel's Experiment (D.T.)";"1.0";"2";"1";"1";"2";"1";"1";"2014-10-12 14:29:19.267";"2014-10-12 14:44:04.682";"1";"1";"1";"78";"77";"module.training_block2.exec-2101.GoNoGo2";;;;;;;;;;;;;;;;;;;;;;;;;;;;;;;;;;;"1249";"2014-10-12 14:34:34.124";"ST_failedStop";"3";"0";"FINISHED";"LEFT";"failure";"629";"1";"2014-10-12 14:34:32.874";"1";;;;;;;;;;;;;;;;;;;;;;;;;;;;;;;;;;;;;;;;;;;;;
"jack95";"1995";;"Windows 7";"Rachel's Experiment (D.T.)";"1.0";"2";"1";"1";"2";"1";"1";"2014-10-12 14:29:19.267";"2014-10-12 14:44:04.682";"1";"1";"1";"79";"78";"module.training_block2.exec-2101.GoNoGo2";;;;;;;;;;;;;;;;;;;;;;;;;;;;;;;;;;;"1250";"2014-10-12 14:34:36.663";"ST_correctStop";"5";"0";"FINISHED";"NONE";"success";"0";"1";"2014-10-12 14:34:35.412";"1";;;;;;;;;;;;;;;;;;;;;;;;;;;;;;;;;;;;;;;;;;;;;
"jack95";"1995";;"Windows 7";"Rachel's Experiment (D.T.)";"1.0";"2";"1";"1";"2";"1";"1";"2014-10-12 14:29:19.267";"2014-10-12 14:44:04.682";"1";"1";"1";"80";"79";"module.training_block2.exec-2101.GoNoGo2";;;;;;;;;;;;;;;;;;;;;;;;;;;;;;;;;;;"1250";"2014-10-12 14:34:39.199";"NST_correctLoc";"31";"1";"FINISHED";"RIGHT";"success";"644";"0";"2014-10-12 14:34:37.949";"3";;;;;;;;;;;;;;;;;;;;;;;;;;;;;;;;;;;;;;;;;;;;;
"jack95";"1995";;"Windows 7";"Rachel's Experiment (D.T.)";"1.0";"2";"1";"1";"2";"1";"1";"2014-10-12 14:29:19.267";"2014-10-12 14:44:04.682";"1";"1";"1";"81";"80";"module.training_block2.exec-2101.GoNoGo2";;;;;;;;;;;;;;;;;;;;;;;;;;;;;;;;;;;"1250";"2014-10-12 14:34:41.771";"ST_correctStop";"20";"1";"FINISHED";"NONE";"success";"0";"1";"2014-10-12 14:34:40.521";"3";;;;;;;;;;;;;;;;;;;;;;;;;;;;;;;;;;;;;;;;;;;;;
"jack95";"1995";;"Windows 7";"Rachel's Experiment (D.T.)";"1.0";"2";"1";"1";"2";"1";"1";"2014-10-12 14:29:19.267";"2014-10-12 14:44:04.682";"1";"1";"1";"82";"81";"module.training_block2.exec-2101.GoNoGo2";;;;;;;;;;;;;;;;;;;;;;;;;;;;;;;;;;;"1249";"2014-10-12 14:34:44.306";"ST_correctStop";"32";"0";"FINISHED";"NONE";"success";"0";"1";"2014-10-12 14:34:43.056";"3";;;;;;;;;;;;;;;;;;;;;;;;;;;;;;;;;;;;;;;;;;;;;
"jack95";"1995";;"Windows 7";"Rachel's Experiment (D.T.)";"1.0";"2";"1";"1";"2";"1";"1";"2014-10-12 14:29:19.267";"2014-10-12 14:44:04.682";"1";"1";"1";"83";"82";"module.training_block2.exec-2101.GoNoGo2";;;;;;;;;;;;;;;;;;;;;;;;;;;;;;;;;;;"1249";"2014-10-12 14:34:46.852";"ST_correctStop";"18";"0";"FINISHED";"NONE";"success";"0";"1";"2014-10-12 14:34:45.602";"3";;;;;;;;;;;;;;;;;;;;;;;;;;;;;;;;;;;;;;;;;;;;;
"jack95";"1995";;"Windows 7";"Rachel's Experiment (D.T.)";"1.0";"2";"1";"1";"2";"1";"1";"2014-10-12 14:29:19.267";"2014-10-12 14:44:04.682";"1";"1";"1";"84";"83";"module.training_block2.exec-2101.GoNoGo2";;;;;;;;;;;;;;;;;;;;;;;;;;;;;;;;;;;"1250";"2014-10-12 14:34:49.386";"NST_correctLoc";"34";"1";"FINISHED";"RIGHT";"success";"448";"0";"2014-10-12 14:34:48.136";"3";;;;;;;;;;;;;;;;;;;;;;;;;;;;;;;;;;;;;;;;;;;;;
"jack95";"1995";;"Windows 7";"Rachel's Experiment (D.T.)";"1.0";"2";"1";"1";"2";"1";"1";"2014-10-12 14:29:19.267";"2014-10-12 14:44:04.682";"1";"1";"1";"85";"84";"module.training_block2.exec-2101.GoNoGo2";;;;;;;;;;;;;;;;;;;;;;;;;;;;;;;;;;;"1249";"2014-10-12 14:34:51.921";"NST_correctLoc";"17";"1";"FINISHED";"RIGHT";"success";"674";"0";"2014-10-12 14:34:50.671";"2";;;;;;;;;;;;;;;;;;;;;;;;;;;;;;;;;;;;;;;;;;;;;
"jack95";"1995";;"Windows 7";"Rachel's Experiment (D.T.)";"1.0";"2";"1";"1";"2";"1";"1";"2014-10-12 14:29:19.267";"2014-10-12 14:44:04.682";"1";"1";"1";"86";"85";"module.training_block2.exec-2101.GoNoGo2";;;;;;;;;;;;;;;;;;;;;;;;;;;;;;;;;;;"1250";"2014-10-12 14:34:54.457";"NST_correctLoc";"19";"1";"FINISHED";"RIGHT";"success";"913";"0";"2014-10-12 14:34:53.207";"3";;;;;;;;;;;;;;;;;;;;;;;;;;;;;;;;;;;;;;;;;;;;;
"jack95";"1995";;"Windows 7";"Rachel's Experiment (D.T.)";"1.0";"2";"1";"1";"2";"1";"1";"2014-10-12 14:29:19.267";"2014-10-12 14:44:04.682";"1";"1";"1";"87";"86";"module.training_block2.exec-2101.GoNoGo2";;;;;;;;;;;;;;;;;;;;;;;;;;;;;;;;;;;"1250";"2014-10-12 14:34:56.992";"ST_correctStop";"8";"0";"FINISHED";"NONE";"success";"0";"1";"2014-10-12 14:34:55.742";"1";;;;;;;;;;;;;;;;;;;;;;;;;;;;;;;;;;;;;;;;;;;;;
"jack95";"1995";;"Windows 7";"Rachel's Experiment (D.T.)";"1.0";"2";"1";"1";"2";"1";"1";"2014-10-12 14:29:19.267";"2014-10-12 14:44:04.682";"1";"1";"1";"88";"87";"module.training_block3.exec-3626.GoNoGo3";;;;;;;;;;;;;;;;;;;;;;;;;;;;;;;;;;;;;;;;;;;;;;;"1250";"2014-10-12 14:35:19.600";"ST_correctStop";"18";"0";"FINISHED";"NONE";"success";"0";"1";"2014-10-12 14:35:18.350";"3";;;;;;;;;;;;;;;;;;;;;;;;;;;;;;;;;
"jack95";"1995";;"Windows 7";"Rachel's Experiment (D.T.)";"1.0";"2";"1";"1";"2";"1";"1";"2014-10-12 14:29:19.267";"2014-10-12 14:44:04.682";"1";"1";"1";"89";"88";"module.training_block3.exec-3626.GoNoGo3";;;;;;;;;;;;;;;;;;;;;;;;;;;;;;;;;;;;;;;;;;;;;;;"1250";"2014-10-12 14:35:22.137";"ST_correctStop";"1";"1";"FINISHED";"NONE";"success";"0";"1";"2014-10-12 14:35:20.887";"1";;;;;;;;;;;;;;;;;;;;;;;;;;;;;;;;;
"jack95";"1995";;"Windows 7";"Rachel's Experiment (D.T.)";"1.0";"2";"1";"1";"2";"1";"1";"2014-10-12 14:29:19.267";"2014-10-12 14:44:04.682";"1";"1";"1";"90";"89";"module.training_block3.exec-3626.GoNoGo3";;;;;;;;;;;;;;;;;;;;;;;;;;;;;;;;;;;;;;;;;;;;;;;"1249";"2014-10-12 14:35:24.671";"NST_correctLoc";"31";"0";"FINISHED";"LEFT";"success";"417";"0";"2014-10-12 14:35:23.421";"3";;;;;;;;;;;;;;;;;;;;;;;;;;;;;;;;;
"jack95";"1995";;"Windows 7";"Rachel's Experiment (D.T.)";"1.0";"2";"1";"1";"2";"1";"1";"2014-10-12 14:29:19.267";"2014-10-12 14:44:04.682";"1";"1";"1";"91";"90";"module.training_block3.exec-3626.GoNoGo3";;;;;;;;;;;;;;;;;;;;;;;;;;;;;;;;;;;;;;;;;;;;;;;"1249";"2014-10-12 14:35:27.206";"NST_correctLoc";"12";"1";"FINISHED";"RIGHT";"success";"562";"0";"2014-10-12 14:35:25.956";"2";;;;;;;;;;;;;;;;;;;;;;;;;;;;;;;;;
"jack95";"1995";;"Windows 7";"Rachel's Experiment (D.T.)";"1.0";"2";"1";"1";"2";"1";"1";"2014-10-12 14:29:19.267";"2014-10-12 14:44:04.682";"1";"1";"1";"92";"91";"module.training_block3.exec-3626.GoNoGo3";;;;;;;;;;;;;;;;;;;;;;;;;;;;;;;;;;;;;;;;;;;;;;;"1249";"2014-10-12 14:35:29.740";"NST_correctLoc";"14";"1";"FINISHED";"RIGHT";"success";"470";"0";"2014-10-12 14:35:28.490";"2";;;;;;;;;;;;;;;;;;;;;;;;;;;;;;;;;
"jack95";"1995";;"Windows 7";"Rachel's Experiment (D.T.)";"1.0";"2";"1";"1";"2";"1";"1";"2014-10-12 14:29:19.267";"2014-10-12 14:44:04.682";"1";"1";"1";"93";"92";"module.training_block3.exec-3626.GoNoGo3";;;;;;;;;;;;;;;;;;;;;;;;;;;;;;;;;;;;;;;;;;;;;;;"1249";"2014-10-12 14:35:32.274";"NST_correctLoc";"33";"0";"FINISHED";"LEFT";"success";"681";"0";"2014-10-12 14:35:31.024";"3";;;;;;;;;;;;;;;;;;;;;;;;;;;;;;;;;
"jack95";"1995";;"Windows 7";"Rachel's Experiment (D.T.)";"1.0";"2";"1";"1";"2";"1";"1";"2014-10-12 14:29:19.267";"2014-10-12 14:44:04.682";"1";"1";"1";"94";"93";"module.training_block3.exec-3626.GoNoGo3";;;;;;;;;;;;;;;;;;;;;;;;;;;;;;;;;;;;;;;;;;;;;;;"1249";"2014-10-12 14:35:34.808";"NST_correctLoc";"16";"0";"FINISHED";"LEFT";"success";"510";"0";"2014-10-12 14:35:33.558";"2";;;;;;;;;;;;;;;;;;;;;;;;;;;;;;;;;
"jack95";"1995";;"Windows 7";"Rachel's Experiment (D.T.)";"1.0";"2";"1";"1";"2";"1";"1";"2014-10-12 14:29:19.267";"2014-10-12 14:44:04.682";"1";"1";"1";"95";"94";"module.training_block3.exec-3626.GoNoGo3";;;;;;;;;;;;;;;;;;;;;;;;;;;;;;;;;;;;;;;;;;;;;;;"1250";"2014-10-12 14:35:37.343";"NST_correctLoc";"34";"0";"FINISHED";"LEFT";"success";"467";"0";"2014-10-12 14:35:36.093";"3";;;;;;;;;;;;;;;;;;;;;;;;;;;;;;;;;
"jack95";"1995";;"Windows 7";"Rachel's Experiment (D.T.)";"1.0";"2";"1";"1";"2";"1";"1";"2014-10-12 14:29:19.267";"2014-10-12 14:44:04.682";"1";"1";"1";"96";"95";"module.training_block3.exec-3626.GoNoGo3";;;;;;;;;;;;;;;;;;;;;;;;;;;;;;;;;;;;;;;;;;;;;;;"1249";"2014-10-12 14:35:39.878";"NST_correctLoc";"10";"1";"FINISHED";"RIGHT";"success";"562";"0";"2014-10-12 14:35:38.628";"2";;;;;;;;;;;;;;;;;;;;;;;;;;;;;;;;;
"jack95";"1995";;"Windows 7";"Rachel's Experiment (D.T.)";"1.0";"2";"1";"1";"2";"1";"1";"2014-10-12 14:29:19.267";"2014-10-12 14:44:04.682";"1";"1";"1";"97";"96";"module.training_block3.exec-3626.GoNoGo3";;;;;;;;;;;;;;;;;;;;;;;;;;;;;;;;;;;;;;;;;;;;;;;"1250";"2014-10-12 14:35:42.413";"NST_correctLoc";"28";"1";"FINISHED";"RIGHT";"success";"580";"0";"2014-10-12 14:35:41.162";"3";;;;;;;;;;;;;;;;;;;;;;;;;;;;;;;;;
"jack95";"1995";;"Windows 7";"Rachel's Experiment (D.T.)";"1.0";"2";"1";"1";"2";"1";"1";"2014-10-12 14:29:19.267";"2014-10-12 14:44:04.682";"1";"1";"1";"98";"97";"module.training_block3.exec-3626.GoNoGo3";;;;;;;;;;;;;;;;;;;;;;;;;;;;;;;;;;;;;;;;;;;;;;;"1249";"2014-10-12 14:35:44.948";"ST_failedStop";"20";"0";"FINISHED";"LEFT";"failure";"606";"1";"2014-10-12 14:35:43.698";"3";;;;;;;;;;;;;;;;;;;;;;;;;;;;;;;;;
"jack95";"1995";;"Windows 7";"Rachel's Experiment (D.T.)";"1.0";"2";"1";"1";"2";"1";"1";"2014-10-12 14:29:19.267";"2014-10-12 14:44:04.682";"1";"1";"1";"99";"98";"module.training_block3.exec-3626.GoNoGo3";;;;;;;;;;;;;;;;;;;;;;;;;;;;;;;;;;;;;;;;;;;;;;;"1249";"2014-10-12 14:35:47.487";"ST_correctStop";"26";"1";"FINISHED";"NONE";"success";"0";"1";"2014-10-12 14:35:46.237";"3";;;;;;;;;;;;;;;;;;;;;;;;;;;;;;;;;
"jack95";"1995";;"Windows 7";"Rachel's Experiment (D.T.)";"1.0";"2";"1";"1";"2";"1";"1";"2014-10-12 14:29:19.267";"2014-10-12 14:44:04.682";"1";"1";"1";"100";"99";"module.training_block3.exec-3626.GoNoGo3";;;;;;;;;;;;;;;;;;;;;;;;;;;;;;;;;;;;;;;;;;;;;;;"1249";"2014-10-12 14:35:50.020";"ST_correctStop";"35";"0";"FINISHED";"NONE";"success";"0";"1";"2014-10-12 14:35:48.770";"3";;;;;;;;;;;;;;;;;;;;;;;;;;;;;;;;;
"jack95";"1995";;"Windows 7";"Rachel's Experiment (D.T.)";"1.0";"2";"1";"1";"2";"1";"1";"2014-10-12 14:29:19.267";"2014-10-12 14:44:04.682";"1";"1";"1";"101";"100";"module.training_block3.exec-3626.GoNoGo3";;;;;;;;;;;;;;;;;;;;;;;;;;;;;;;;;;;;;;;;;;;;;;;"1249";"2014-10-12 14:35:52.553";"NST_correctLoc";"11";"1";"FINISHED";"RIGHT";"success";"535";"0";"2014-10-12 14:35:51.303";"2";;;;;;;;;;;;;;;;;;;;;;;;;;;;;;;;;
"jack95";"1995";;"Windows 7";"Rachel's Experiment (D.T.)";"1.0";"2";"1";"1";"2";"1";"1";"2014-10-12 14:29:19.267";"2014-10-12 14:44:04.682";"1";"1";"1";"102";"101";"module.training_block3.exec-3626.GoNoGo3";;;;;;;;;;;;;;;;;;;;;;;;;;;;;;;;;;;;;;;;;;;;;;;"1249";"2014-10-12 14:35:55.088";"ST_correctStop";"5";"0";"FINISHED";"NONE";"success";"0";"1";"2014-10-12 14:35:53.838";"1";;;;;;;;;;;;;;;;;;;;;;;;;;;;;;;;;
"jack95";"1995";;"Windows 7";"Rachel's Experiment (D.T.)";"1.0";"2";"1";"1";"2";"1";"1";"2014-10-12 14:29:19.267";"2014-10-12 14:44:04.682";"1";"1";"1";"103";"102";"module.training_block3.exec-3626.GoNoGo3";;;;;;;;;;;;;;;;;;;;;;;;;;;;;;;;;;;;;;;;;;;;;;;"1249";"2014-10-12 14:35:57.624";"NST_correctLoc";"21";"1";"FINISHED";"RIGHT";"success";"510";"0";"2014-10-12 14:35:56.374";"3";;;;;;;;;;;;;;;;;;;;;;;;;;;;;;;;;
"jack95";"1995";;"Windows 7";"Rachel's Experiment (D.T.)";"1.0";"2";"1";"1";"2";"1";"1";"2014-10-12 14:29:19.267";"2014-10-12 14:44:04.682";"1";"1";"1";"104";"103";"module.training_block3.exec-3626.GoNoGo3";;;;;;;;;;;;;;;;;;;;;;;;;;;;;;;;;;;;;;;;;;;;;;;"1249";"2014-10-12 14:36:00.158";"NST_correctLoc";"15";"0";"FINISHED";"LEFT";"success";"531";"0";"2014-10-12 14:35:58.908";"2";;;;;;;;;;;;;;;;;;;;;;;;;;;;;;;;;
"jack95";"1995";;"Windows 7";"Rachel's Experiment (D.T.)";"1.0";"2";"1";"1";"2";"1";"1";"2014-10-12 14:29:19.267";"2014-10-12 14:44:04.682";"1";"1";"1";"105";"104";"module.training_block3.exec-3626.GoNoGo3";;;;;;;;;;;;;;;;;;;;;;;;;;;;;;;;;;;;;;;;;;;;;;;"1249";"2014-10-12 14:36:02.693";"ST_correctStop";"2";"0";"FINISHED";"NONE";"success";"0";"1";"2014-10-12 14:36:01.443";"1";;;;;;;;;;;;;;;;;;;;;;;;;;;;;;;;;
"jack95";"1995";;"Windows 7";"Rachel's Experiment (D.T.)";"1.0";"2";"1";"1";"2";"1";"1";"2014-10-12 14:29:19.267";"2014-10-12 14:44:04.682";"1";"1";"1";"106";"105";"module.training_block3.exec-3626.GoNoGo3";;;;;;;;;;;;;;;;;;;;;;;;;;;;;;;;;;;;;;;;;;;;;;;"1249";"2014-10-12 14:36:05.236";"NST_correctLoc";"32";"1";"FINISHED";"RIGHT";"success";"476";"0";"2014-10-12 14:36:03.986";"3";;;;;;;;;;;;;;;;;;;;;;;;;;;;;;;;;
"jack95";"1995";;"Windows 7";"Rachel's Experiment (D.T.)";"1.0";"2";"1";"1";"2";"1";"1";"2014-10-12 14:29:19.267";"2014-10-12 14:44:04.682";"1";"1";"1";"107";"106";"module.training_block3.exec-3626.GoNoGo3";;;;;;;;;;;;;;;;;;;;;;;;;;;;;;;;;;;;;;;;;;;;;;;"1249";"2014-10-12 14:36:07.771";"ST_correctStop";"0";"1";"FINISHED";"NONE";"success";"0";"1";"2014-10-12 14:36:06.521";"1";;;;;;;;;;;;;;;;;;;;;;;;;;;;;;;;;
"jack95";"1995";;"Windows 7";"Rachel's Experiment (D.T.)";"1.0";"2";"1";"1";"2";"1";"1";"2014-10-12 14:29:19.267";"2014-10-12 14:44:04.682";"1";"1";"1";"108";"107";"module.training_block3.exec-3626.GoNoGo3";;;;;;;;;;;;;;;;;;;;;;;;;;;;;;;;;;;;;;;;;;;;;;;"1250";"2014-10-12 14:36:10.305";"ST_correctStop";"7";"0";"FINISHED";"NONE";"success";"0";"1";"2014-10-12 14:36:09.054";"1";;;;;;;;;;;;;;;;;;;;;;;;;;;;;;;;;
"jack95";"1995";;"Windows 7";"Rachel's Experiment (D.T.)";"1.0";"2";"1";"1";"2";"1";"1";"2014-10-12 14:29:19.267";"2014-10-12 14:44:04.682";"1";"1";"1";"109";"108";"module.training_block3.exec-3626.GoNoGo3";;;;;;;;;;;;;;;;;;;;;;;;;;;;;;;;;;;;;;;;;;;;;;;"1250";"2014-10-12 14:36:12.841";"NST_correctLoc";"30";"0";"FINISHED";"LEFT";"success";"477";"0";"2014-10-12 14:36:11.590";"3";;;;;;;;;;;;;;;;;;;;;;;;;;;;;;;;;
"jack95";"1995";;"Windows 7";"Rachel's Experiment (D.T.)";"1.0";"2";"1";"1";"2";"1";"1";"2014-10-12 14:29:19.267";"2014-10-12 14:44:04.682";"1";"1";"1";"110";"109";"module.training_block3.exec-3626.GoNoGo3";;;;;;;;;;;;;;;;;;;;;;;;;;;;;;;;;;;;;;;;;;;;;;;"1249";"2014-10-12 14:36:15.373";"ST_correctStop";"24";"1";"FINISHED";"NONE";"success";"0";"1";"2014-10-12 14:36:14.123";"3";;;;;;;;;;;;;;;;;;;;;;;;;;;;;;;;;
"jack95";"1995";;"Windows 7";"Rachel's Experiment (D.T.)";"1.0";"2";"1";"1";"2";"1";"1";"2014-10-12 14:29:19.267";"2014-10-12 14:44:04.682";"1";"1";"1";"111";"110";"module.training_block3.exec-3626.GoNoGo3";;;;;;;;;;;;;;;;;;;;;;;;;;;;;;;;;;;;;;;;;;;;;;;"1249";"2014-10-12 14:36:17.916";"NST_miss";"9";"1";"FINISHED";"NONE";"failure";"0";"0";"2014-10-12 14:36:16.666";"2";;;;;;;;;;;;;;;;;;;;;;;;;;;;;;;;;
"jack95";"1995";;"Windows 7";"Rachel's Experiment (D.T.)";"1.0";"2";"1";"1";"2";"1";"1";"2014-10-12 14:29:19.267";"2014-10-12 14:44:04.682";"1";"1";"1";"112";"111";"module.training_block3.exec-3626.GoNoGo3";;;;;;;;;;;;;;;;;;;;;;;;;;;;;;;;;;;;;;;;;;;;;;;"1249";"2014-10-12 14:36:20.449";"ST_correctStop";"22";"1";"FINISHED";"NONE";"success";"0";"1";"2014-10-12 14:36:19.199";"3";;;;;;;;;;;;;;;;;;;;;;;;;;;;;;;;;
"jack95";"1995";;"Windows 7";"Rachel's Experiment (D.T.)";"1.0";"2";"1";"1";"2";"1";"1";"2014-10-12 14:29:19.267";"2014-10-12 14:44:04.682";"1";"1";"1";"113";"112";"module.training_block3.exec-3626.GoNoGo3";;;;;;;;;;;;;;;;;;;;;;;;;;;;;;;;;;;;;;;;;;;;;;;"1249";"2014-10-12 14:36:22.982";"ST_correctStop";"6";"1";"FINISHED";"NONE";"success";"0";"1";"2014-10-12 14:36:21.732";"1";;;;;;;;;;;;;;;;;;;;;;;;;;;;;;;;;
"jack95";"1995";;"Windows 7";"Rachel's Experiment (D.T.)";"1.0";"2";"1";"1";"2";"1";"1";"2014-10-12 14:29:19.267";"2014-10-12 14:44:04.682";"1";"1";"1";"114";"113";"module.training_block3.exec-3626.GoNoGo3";;;;;;;;;;;;;;;;;;;;;;;;;;;;;;;;;;;;;;;;;;;;;;;"1249";"2014-10-12 14:36:25.515";"ST_correctStop";"25";"1";"FINISHED";"NONE";"success";"0";"1";"2014-10-12 14:36:24.265";"3";;;;;;;;;;;;;;;;;;;;;;;;;;;;;;;;;
"jack95";"1995";;"Windows 7";"Rachel's Experiment (D.T.)";"1.0";"2";"1";"1";"2";"1";"1";"2014-10-12 14:29:19.267";"2014-10-12 14:44:04.682";"1";"1";"1";"115";"114";"module.training_block3.exec-3626.GoNoGo3";;;;;;;;;;;;;;;;;;;;;;;;;;;;;;;;;;;;;;;;;;;;;;;"1249";"2014-10-12 14:36:28.049";"ST_correctStop";"23";"1";"FINISHED";"NONE";"success";"0";"1";"2014-10-12 14:36:26.799";"3";;;;;;;;;;;;;;;;;;;;;;;;;;;;;;;;;
"jack95";"1995";;"Windows 7";"Rachel's Experiment (D.T.)";"1.0";"2";"1";"1";"2";"1";"1";"2014-10-12 14:29:19.267";"2014-10-12 14:44:04.682";"1";"1";"1";"116";"115";"module.training_block3.exec-3626.GoNoGo3";;;;;;;;;;;;;;;;;;;;;;;;;;;;;;;;;;;;;;;;;;;;;;;"1249";"2014-10-12 14:36:30.584";"NST_correctLoc";"29";"1";"FINISHED";"RIGHT";"success";"627";"0";"2014-10-12 14:36:29.333";"3";;;;;;;;;;;;;;;;;;;;;;;;;;;;;;;;;
"jack95";"1995";;"Windows 7";"Rachel's Experiment (D.T.)";"1.0";"2";"1";"1";"2";"1";"1";"2014-10-12 14:29:19.267";"2014-10-12 14:44:04.682";"1";"1";"1";"117";"116";"module.training_block3.exec-3626.GoNoGo3";;;;;;;;;;;;;;;;;;;;;;;;;;;;;;;;;;;;;;;;;;;;;;;"1250";"2014-10-12 14:36:33.118";"ST_correctStop";"8";"0";"FINISHED";"NONE";"success";"0";"1";"2014-10-12 14:36:31.868";"1";;;;;;;;;;;;;;;;;;;;;;;;;;;;;;;;;
"jack95";"1995";;"Windows 7";"Rachel's Experiment (D.T.)";"1.0";"2";"1";"1";"2";"1";"1";"2014-10-12 14:29:19.267";"2014-10-12 14:44:04.682";"1";"1";"1";"118";"117";"module.training_block3.exec-3626.GoNoGo3";;;;;;;;;;;;;;;;;;;;;;;;;;;;;;;;;;;;;;;;;;;;;;;"1250";"2014-10-12 14:36:35.652";"NST_correctLoc";"13";"1";"FINISHED";"RIGHT";"success";"509";"0";"2014-10-12 14:36:34.402";"2";;;;;;;;;;;;;;;;;;;;;;;;;;;;;;;;;
"jack95";"1995";;"Windows 7";"Rachel's Experiment (D.T.)";"1.0";"2";"1";"1";"2";"1";"1";"2014-10-12 14:29:19.267";"2014-10-12 14:44:04.682";"1";"1";"1";"119";"118";"module.training_block3.exec-3626.GoNoGo3";;;;;;;;;;;;;;;;;;;;;;;;;;;;;;;;;;;;;;;;;;;;;;;"1249";"2014-10-12 14:36:38.185";"ST_correctStop";"19";"1";"FINISHED";"NONE";"success";"0";"1";"2014-10-12 14:36:36.935";"3";;;;;;;;;;;;;;;;;;;;;;;;;;;;;;;;;
"jack95";"1995";;"Windows 7";"Rachel's Experiment (D.T.)";"1.0";"2";"1";"1";"2";"1";"1";"2014-10-12 14:29:19.267";"2014-10-12 14:44:04.682";"1";"1";"1";"120";"119";"module.training_block3.exec-3626.GoNoGo3";;;;;;;;;;;;;;;;;;;;;;;;;;;;;;;;;;;;;;;;;;;;;;;"1250";"2014-10-12 14:36:40.719";"NST_correctLoc";"27";"0";"FINISHED";"LEFT";"success";"673";"0";"2014-10-12 14:36:39.469";"3";;;;;;;;;;;;;;;;;;;;;;;;;;;;;;;;;
"jack95";"1995";;"Windows 7";"Rachel's Experiment (D.T.)";"1.0";"2";"1";"1";"2";"1";"1";"2014-10-12 14:29:19.267";"2014-10-12 14:44:04.682";"1";"1";"1";"121";"120";"module.training_block3.exec-3626.GoNoGo3";;;;;;;;;;;;;;;;;;;;;;;;;;;;;;;;;;;;;;;;;;;;;;;"1249";"2014-10-12 14:36:43.252";"NST_correctLoc";"17";"0";"FINISHED";"LEFT";"success";"464";"0";"2014-10-12 14:36:42.002";"2";;;;;;;;;;;;;;;;;;;;;;;;;;;;;;;;;
"jack95";"1995";;"Windows 7";"Rachel's Experiment (D.T.)";"1.0";"2";"1";"1";"2";"1";"1";"2014-10-12 14:29:19.267";"2014-10-12 14:44:04.682";"1";"1";"1";"122";"121";"module.training_block3.exec-3626.GoNoGo3";;;;;;;;;;;;;;;;;;;;;;;;;;;;;;;;;;;;;;;;;;;;;;;"1249";"2014-10-12 14:36:45.784";"ST_correctStop";"3";"1";"FINISHED";"NONE";"success";"0";"1";"2014-10-12 14:36:44.534";"1";;;;;;;;;;;;;;;;;;;;;;;;;;;;;;;;;
"jack95";"1995";;"Windows 7";"Rachel's Experiment (D.T.)";"1.0";"2";"1";"1";"2";"1";"1";"2014-10-12 14:29:19.267";"2014-10-12 14:44:04.682";"1";"1";"1";"123";"122";"module.training_block3.exec-3626.GoNoGo3";;;;;;;;;;;;;;;;;;;;;;;;;;;;;;;;;;;;;;;;;;;;;;;"1250";"2014-10-12 14:36:48.320";"ST_correctStop";"4";"1";"FINISHED";"NONE";"success";"0";"1";"2014-10-12 14:36:47.069";"1";;;;;;;;;;;;;;;;;;;;;;;;;;;;;;;;;
"jack95";"1995";;"Windows 7";"Rachel's Experiment (D.T.)";"1.0";"2";"1";"1";"2";"1";"1";"2014-10-12 14:29:19.267";"2014-10-12 14:44:04.682";"1";"1";"1";"124";"123";"module.training_block4.exec-1401.GoNoGo4";;;;;;;;;;;;;;;;;;;;;;;;;;;;;;;;;;;;;;;;;;;;;;;;;;;;;;;;;;;"1249";"2014-10-12 14:36:59.081";"ST_correctStop";"0";"1";"FINISHED";"NONE";"success";"0";"1";"2014-10-12 14:36:57.831";"1";;;;;;;;;;;;;;;;;;;;;
"jack95";"1995";;"Windows 7";"Rachel's Experiment (D.T.)";"1.0";"2";"1";"1";"2";"1";"1";"2014-10-12 14:29:19.267";"2014-10-12 14:44:04.682";"1";"1";"1";"125";"124";"module.training_block4.exec-1401.GoNoGo4";;;;;;;;;;;;;;;;;;;;;;;;;;;;;;;;;;;;;;;;;;;;;;;;;;;;;;;;;;;"1249";"2014-10-12 14:37:01.614";"NST_correctLoc";"16";"0";"FINISHED";"LEFT";"success";"440";"0";"2014-10-12 14:37:00.364";"2";;;;;;;;;;;;;;;;;;;;;
"jack95";"1995";;"Windows 7";"Rachel's Experiment (D.T.)";"1.0";"2";"1";"1";"2";"1";"1";"2014-10-12 14:29:19.267";"2014-10-12 14:44:04.682";"1";"1";"1";"126";"125";"module.training_block4.exec-1401.GoNoGo4";;;;;;;;;;;;;;;;;;;;;;;;;;;;;;;;;;;;;;;;;;;;;;;;;;;;;;;;;;;"1249";"2014-10-12 14:37:04.146";"NST_correctLoc";"26";"1";"FINISHED";"RIGHT";"success";"522";"0";"2014-10-12 14:37:02.896";"3";;;;;;;;;;;;;;;;;;;;;
"jack95";"1995";;"Windows 7";"Rachel's Experiment (D.T.)";"1.0";"2";"1";"1";"2";"1";"1";"2014-10-12 14:29:19.267";"2014-10-12 14:44:04.682";"1";"1";"1";"127";"126";"module.training_block4.exec-1401.GoNoGo4";;;;;;;;;;;;;;;;;;;;;;;;;;;;;;;;;;;;;;;;;;;;;;;;;;;;;;;;;;;"1249";"2014-10-12 14:37:06.678";"ST_correctStop";"24";"0";"FINISHED";"NONE";"success";"0";"1";"2014-10-12 14:37:05.428";"3";;;;;;;;;;;;;;;;;;;;;
"jack95";"1995";;"Windows 7";"Rachel's Experiment (D.T.)";"1.0";"2";"1";"1";"2";"1";"1";"2014-10-12 14:29:19.267";"2014-10-12 14:44:04.682";"1";"1";"1";"128";"127";"module.training_block4.exec-1401.GoNoGo4";;;;;;;;;;;;;;;;;;;;;;;;;;;;;;;;;;;;;;;;;;;;;;;;;;;;;;;;;;;"1249";"2014-10-12 14:37:09.209";"NST_correctLoc";"12";"1";"FINISHED";"RIGHT";"success";"587";"0";"2014-10-12 14:37:07.959";"2";;;;;;;;;;;;;;;;;;;;;
"jack95";"1995";;"Windows 7";"Rachel's Experiment (D.T.)";"1.0";"2";"1";"1";"2";"1";"1";"2014-10-12 14:29:19.267";"2014-10-12 14:44:04.682";"1";"1";"1";"129";"128";"module.training_block4.exec-1401.GoNoGo4";;;;;;;;;;;;;;;;;;;;;;;;;;;;;;;;;;;;;;;;;;;;;;;;;;;;;;;;;;;"1250";"2014-10-12 14:37:11.750";"ST_correctStop";"5";"0";"FINISHED";"NONE";"success";"0";"1";"2014-10-12 14:37:10.500";"1";;;;;;;;;;;;;;;;;;;;;
"jack95";"1995";;"Windows 7";"Rachel's Experiment (D.T.)";"1.0";"2";"1";"1";"2";"1";"1";"2014-10-12 14:29:19.267";"2014-10-12 14:44:04.682";"1";"1";"1";"130";"129";"module.training_block4.exec-1401.GoNoGo4";;;;;;;;;;;;;;;;;;;;;;;;;;;;;;;;;;;;;;;;;;;;;;;;;;;;;;;;;;;"1249";"2014-10-12 14:37:14.281";"ST_correctStop";"35";"1";"FINISHED";"NONE";"success";"0";"1";"2014-10-12 14:37:13.031";"3";;;;;;;;;;;;;;;;;;;;;
"jack95";"1995";;"Windows 7";"Rachel's Experiment (D.T.)";"1.0";"2";"1";"1";"2";"1";"1";"2014-10-12 14:29:19.267";"2014-10-12 14:44:04.682";"1";"1";"1";"131";"130";"module.training_block4.exec-1401.GoNoGo4";;;;;;;;;;;;;;;;;;;;;;;;;;;;;;;;;;;;;;;;;;;;;;;;;;;;;;;;;;;"1249";"2014-10-12 14:37:16.812";"ST_correctStop";"7";"1";"FINISHED";"NONE";"success";"0";"1";"2014-10-12 14:37:15.562";"1";;;;;;;;;;;;;;;;;;;;;
"jack95";"1995";;"Windows 7";"Rachel's Experiment (D.T.)";"1.0";"2";"1";"1";"2";"1";"1";"2014-10-12 14:29:19.267";"2014-10-12 14:44:04.682";"1";"1";"1";"132";"131";"module.training_block4.exec-1401.GoNoGo4";;;;;;;;;;;;;;;;;;;;;;;;;;;;;;;;;;;;;;;;;;;;;;;;;;;;;;;;;;;"1249";"2014-10-12 14:37:19.351";"NST_correctLoc";"33";"1";"FINISHED";"RIGHT";"success";"882";"0";"2014-10-12 14:37:18.101";"3";;;;;;;;;;;;;;;;;;;;;
"jack95";"1995";;"Windows 7";"Rachel's Experiment (D.T.)";"1.0";"2";"1";"1";"2";"1";"1";"2014-10-12 14:29:19.267";"2014-10-12 14:44:04.682";"1";"1";"1";"133";"132";"module.training_block4.exec-1401.GoNoGo4";;;;;;;;;;;;;;;;;;;;;;;;;;;;;;;;;;;;;;;;;;;;;;;;;;;;;;;;;;;"1249";"2014-10-12 14:37:21.882";"NST_correctLoc";"31";"1";"FINISHED";"RIGHT";"success";"607";"0";"2014-10-12 14:37:20.632";"3";;;;;;;;;;;;;;;;;;;;;
"jack95";"1995";;"Windows 7";"Rachel's Experiment (D.T.)";"1.0";"2";"1";"1";"2";"1";"1";"2014-10-12 14:29:19.267";"2014-10-12 14:44:04.682";"1";"1";"1";"134";"133";"module.training_block4.exec-1401.GoNoGo4";;;;;;;;;;;;;;;;;;;;;;;;;;;;;;;;;;;;;;;;;;;;;;;;;;;;;;;;;;;"1249";"2014-10-12 14:37:24.414";"ST_correctStop";"29";"1";"FINISHED";"NONE";"success";"0";"1";"2014-10-12 14:37:23.164";"3";;;;;;;;;;;;;;;;;;;;;
"jack95";"1995";;"Windows 7";"Rachel's Experiment (D.T.)";"1.0";"2";"1";"1";"2";"1";"1";"2014-10-12 14:29:19.267";"2014-10-12 14:44:04.682";"1";"1";"1";"135";"134";"module.training_block4.exec-1401.GoNoGo4";;;;;;;;;;;;;;;;;;;;;;;;;;;;;;;;;;;;;;;;;;;;;;;;;;;;;;;;;;;"1250";"2014-10-12 14:37:26.946";"ST_correctStop";"21";"0";"FINISHED";"NONE";"success";"0";"1";"2014-10-12 14:37:25.696";"3";;;;;;;;;;;;;;;;;;;;;
"jack95";"1995";;"Windows 7";"Rachel's Experiment (D.T.)";"1.0";"2";"1";"1";"2";"1";"1";"2014-10-12 14:29:19.267";"2014-10-12 14:44:04.682";"1";"1";"1";"136";"135";"module.training_block4.exec-1401.GoNoGo4";;;;;;;;;;;;;;;;;;;;;;;;;;;;;;;;;;;;;;;;;;;;;;;;;;;;;;;;;;;"1250";"2014-10-12 14:37:29.477";"NST_correctLoc";"13";"1";"FINISHED";"RIGHT";"success";"491";"0";"2014-10-12 14:37:28.227";"2";;;;;;;;;;;;;;;;;;;;;
"jack95";"1995";;"Windows 7";"Rachel's Experiment (D.T.)";"1.0";"2";"1";"1";"2";"1";"1";"2014-10-12 14:29:19.267";"2014-10-12 14:44:04.682";"1";"1";"1";"137";"136";"module.training_block4.exec-1401.GoNoGo4";;;;;;;;;;;;;;;;;;;;;;;;;;;;;;;;;;;;;;;;;;;;;;;;;;;;;;;;;;;"1249";"2014-10-12 14:37:32.009";"ST_correctStop";"3";"1";"FINISHED";"NONE";"success";"0";"1";"2014-10-12 14:37:30.759";"1";;;;;;;;;;;;;;;;;;;;;
"jack95";"1995";;"Windows 7";"Rachel's Experiment (D.T.)";"1.0";"2";"1";"1";"2";"1";"1";"2014-10-12 14:29:19.267";"2014-10-12 14:44:04.682";"1";"1";"1";"138";"137";"module.training_block4.exec-1401.GoNoGo4";;;;;;;;;;;;;;;;;;;;;;;;;;;;;;;;;;;;;;;;;;;;;;;;;;;;;;;;;;;"1249";"2014-10-12 14:37:34.541";"ST_correctStop";"25";"1";"FINISHED";"NONE";"success";"0";"1";"2014-10-12 14:37:33.291";"3";;;;;;;;;;;;;;;;;;;;;
"jack95";"1995";;"Windows 7";"Rachel's Experiment (D.T.)";"1.0";"2";"1";"1";"2";"1";"1";"2014-10-12 14:29:19.267";"2014-10-12 14:44:04.682";"1";"1";"1";"139";"138";"module.training_block4.exec-1401.GoNoGo4";;;;;;;;;;;;;;;;;;;;;;;;;;;;;;;;;;;;;;;;;;;;;;;;;;;;;;;;;;;"1249";"2014-10-12 14:37:37.074";"ST_correctStop";"20";"0";"FINISHED";"NONE";"success";"0";"1";"2014-10-12 14:37:35.824";"3";;;;;;;;;;;;;;;;;;;;;
"jack95";"1995";;"Windows 7";"Rachel's Experiment (D.T.)";"1.0";"2";"1";"1";"2";"1";"1";"2014-10-12 14:29:19.267";"2014-10-12 14:44:04.682";"1";"1";"1";"140";"139";"module.training_block4.exec-1401.GoNoGo4";;;;;;;;;;;;;;;;;;;;;;;;;;;;;;;;;;;;;;;;;;;;;;;;;;;;;;;;;;;"1249";"2014-10-12 14:37:39.605";"NST_correctLoc";"10";"1";"FINISHED";"RIGHT";"success";"497";"0";"2014-10-12 14:37:38.355";"2";;;;;;;;;;;;;;;;;;;;;
"jack95";"1995";;"Windows 7";"Rachel's Experiment (D.T.)";"1.0";"2";"1";"1";"2";"1";"1";"2014-10-12 14:29:19.267";"2014-10-12 14:44:04.682";"1";"1";"1";"141";"140";"module.training_block4.exec-1401.GoNoGo4";;;;;;;;;;;;;;;;;;;;;;;;;;;;;;;;;;;;;;;;;;;;;;;;;;;;;;;;;;;"1249";"2014-10-12 14:37:42.139";"ST_correctStop";"27";"1";"FINISHED";"NONE";"success";"0";"1";"2014-10-12 14:37:40.889";"3";;;;;;;;;;;;;;;;;;;;;
"jack95";"1995";;"Windows 7";"Rachel's Experiment (D.T.)";"1.0";"2";"1";"1";"2";"1";"1";"2014-10-12 14:29:19.267";"2014-10-12 14:44:04.682";"1";"1";"1";"142";"141";"module.training_block4.exec-1401.GoNoGo4";;;;;;;;;;;;;;;;;;;;;;;;;;;;;;;;;;;;;;;;;;;;;;;;;;;;;;;;;;;"1249";"2014-10-12 14:37:44.670";"NST_correctLoc";"23";"0";"FINISHED";"LEFT";"success";"631";"0";"2014-10-12 14:37:43.420";"3";;;;;;;;;;;;;;;;;;;;;
"jack95";"1995";;"Windows 7";"Rachel's Experiment (D.T.)";"1.0";"2";"1";"1";"2";"1";"1";"2014-10-12 14:29:19.267";"2014-10-12 14:44:04.682";"1";"1";"1";"143";"142";"module.training_block4.exec-1401.GoNoGo4";;;;;;;;;;;;;;;;;;;;;;;;;;;;;;;;;;;;;;;;;;;;;;;;;;;;;;;;;;;"1249";"2014-10-12 14:37:47.201";"ST_correctStop";"22";"0";"FINISHED";"NONE";"success";"0";"1";"2014-10-12 14:37:45.951";"3";;;;;;;;;;;;;;;;;;;;;
"jack95";"1995";;"Windows 7";"Rachel's Experiment (D.T.)";"1.0";"2";"1";"1";"2";"1";"1";"2014-10-12 14:29:19.267";"2014-10-12 14:44:04.682";"1";"1";"1";"144";"143";"module.training_block4.exec-1401.GoNoGo4";;;;;;;;;;;;;;;;;;;;;;;;;;;;;;;;;;;;;;;;;;;;;;;;;;;;;;;;;;;"1249";"2014-10-12 14:37:49.735";"ST_correctStop";"2";"0";"FINISHED";"NONE";"success";"0";"1";"2014-10-12 14:37:48.485";"1";;;;;;;;;;;;;;;;;;;;;
"jack95";"1995";;"Windows 7";"Rachel's Experiment (D.T.)";"1.0";"2";"1";"1";"2";"1";"1";"2014-10-12 14:29:19.267";"2014-10-12 14:44:04.682";"1";"1";"1";"145";"144";"module.training_block4.exec-1401.GoNoGo4";;;;;;;;;;;;;;;;;;;;;;;;;;;;;;;;;;;;;;;;;;;;;;;;;;;;;;;;;;;"1249";"2014-10-12 14:37:52.265";"ST_correctStop";"8";"1";"FINISHED";"NONE";"success";"0";"1";"2014-10-12 14:37:51.015";"1";;;;;;;;;;;;;;;;;;;;;
"jack95";"1995";;"Windows 7";"Rachel's Experiment (D.T.)";"1.0";"2";"1";"1";"2";"1";"1";"2014-10-12 14:29:19.267";"2014-10-12 14:44:04.682";"1";"1";"1";"146";"145";"module.training_block4.exec-1401.GoNoGo4";;;;;;;;;;;;;;;;;;;;;;;;;;;;;;;;;;;;;;;;;;;;;;;;;;;;;;;;;;;"1249";"2014-10-12 14:37:54.796";"NST_correctLoc";"17";"0";"FINISHED";"LEFT";"success";"438";"0";"2014-10-12 14:37:53.546";"2";;;;;;;;;;;;;;;;;;;;;
"jack95";"1995";;"Windows 7";"Rachel's Experiment (D.T.)";"1.0";"2";"1";"1";"2";"1";"1";"2014-10-12 14:29:19.267";"2014-10-12 14:44:04.682";"1";"1";"1";"147";"146";"module.training_block4.exec-1401.GoNoGo4";;;;;;;;;;;;;;;;;;;;;;;;;;;;;;;;;;;;;;;;;;;;;;;;;;;;;;;;;;;"1249";"2014-10-12 14:37:57.326";"ST_correctStop";"1";"1";"FINISHED";"NONE";"success";"0";"1";"2014-10-12 14:37:56.076";"1";;;;;;;;;;;;;;;;;;;;;
"jack95";"1995";;"Windows 7";"Rachel's Experiment (D.T.)";"1.0";"2";"1";"1";"2";"1";"1";"2014-10-12 14:29:19.267";"2014-10-12 14:44:04.682";"1";"1";"1";"148";"147";"module.training_block4.exec-1401.GoNoGo4";;;;;;;;;;;;;;;;;;;;;;;;;;;;;;;;;;;;;;;;;;;;;;;;;;;;;;;;;;;"1249";"2014-10-12 14:37:59.858";"NST_correctLoc";"18";"1";"FINISHED";"RIGHT";"success";"549";"0";"2014-10-12 14:37:58.608";"3";;;;;;;;;;;;;;;;;;;;;
"jack95";"1995";;"Windows 7";"Rachel's Experiment (D.T.)";"1.0";"2";"1";"1";"2";"1";"1";"2014-10-12 14:29:19.267";"2014-10-12 14:44:04.682";"1";"1";"1";"149";"148";"module.training_block4.exec-1401.GoNoGo4";;;;;;;;;;;;;;;;;;;;;;;;;;;;;;;;;;;;;;;;;;;;;;;;;;;;;;;;;;;"1250";"2014-10-12 14:38:02.388";"NST_correctLoc";"15";"1";"FINISHED";"RIGHT";"success";"532";"0";"2014-10-12 14:38:01.138";"2";;;;;;;;;;;;;;;;;;;;;
"jack95";"1995";;"Windows 7";"Rachel's Experiment (D.T.)";"1.0";"2";"1";"1";"2";"1";"1";"2014-10-12 14:29:19.267";"2014-10-12 14:44:04.682";"1";"1";"1";"150";"149";"module.training_block4.exec-1401.GoNoGo4";;;;;;;;;;;;;;;;;;;;;;;;;;;;;;;;;;;;;;;;;;;;;;;;;;;;;;;;;;;"1249";"2014-10-12 14:38:04.919";"NST_correctLoc";"9";"1";"FINISHED";"RIGHT";"success";"522";"0";"2014-10-12 14:38:03.669";"2";;;;;;;;;;;;;;;;;;;;;
"jack95";"1995";;"Windows 7";"Rachel's Experiment (D.T.)";"1.0";"2";"1";"1";"2";"1";"1";"2014-10-12 14:29:19.267";"2014-10-12 14:44:04.682";"1";"1";"1";"151";"150";"module.training_block4.exec-1401.GoNoGo4";;;;;;;;;;;;;;;;;;;;;;;;;;;;;;;;;;;;;;;;;;;;;;;;;;;;;;;;;;;"1250";"2014-10-12 14:38:07.450";"NST_correctLoc";"11";"1";"FINISHED";"RIGHT";"success";"503";"0";"2014-10-12 14:38:06.199";"2";;;;;;;;;;;;;;;;;;;;;
"jack95";"1995";;"Windows 7";"Rachel's Experiment (D.T.)";"1.0";"2";"1";"1";"2";"1";"1";"2014-10-12 14:29:19.267";"2014-10-12 14:44:04.682";"1";"1";"1";"152";"151";"module.training_block4.exec-1401.GoNoGo4";;;;;;;;;;;;;;;;;;;;;;;;;;;;;;;;;;;;;;;;;;;;;;;;;;;;;;;;;;;"1249";"2014-10-12 14:38:09.979";"NST_correctLoc";"32";"0";"FINISHED";"LEFT";"success";"519";"0";"2014-10-12 14:38:08.729";"3";;;;;;;;;;;;;;;;;;;;;
"jack95";"1995";;"Windows 7";"Rachel's Experiment (D.T.)";"1.0";"2";"1";"1";"2";"1";"1";"2014-10-12 14:29:19.267";"2014-10-12 14:44:04.682";"1";"1";"1";"153";"152";"module.training_block4.exec-1401.GoNoGo4";;;;;;;;;;;;;;;;;;;;;;;;;;;;;;;;;;;;;;;;;;;;;;;;;;;;;;;;;;;"1249";"2014-10-12 14:38:12.499";"ST_correctStop";"6";"0";"FINISHED";"NONE";"success";"0";"1";"2014-10-12 14:38:11.249";"1";;;;;;;;;;;;;;;;;;;;;
"jack95";"1995";;"Windows 7";"Rachel's Experiment (D.T.)";"1.0";"2";"1";"1";"2";"1";"1";"2014-10-12 14:29:19.267";"2014-10-12 14:44:04.682";"1";"1";"1";"154";"153";"module.training_block4.exec-1401.GoNoGo4";;;;;;;;;;;;;;;;;;;;;;;;;;;;;;;;;;;;;;;;;;;;;;;;;;;;;;;;;;;"1249";"2014-10-12 14:38:15.030";"ST_correctStop";"30";"1";"FINISHED";"NONE";"success";"0";"1";"2014-10-12 14:38:13.780";"3";;;;;;;;;;;;;;;;;;;;;
"jack95";"1995";;"Windows 7";"Rachel's Experiment (D.T.)";"1.0";"2";"1";"1";"2";"1";"1";"2014-10-12 14:29:19.267";"2014-10-12 14:44:04.682";"1";"1";"1";"155";"154";"module.training_block4.exec-1401.GoNoGo4";;;;;;;;;;;;;;;;;;;;;;;;;;;;;;;;;;;;;;;;;;;;;;;;;;;;;;;;;;;"1249";"2014-10-12 14:38:17.561";"NST_correctLoc";"19";"0";"FINISHED";"LEFT";"success";"525";"0";"2014-10-12 14:38:16.311";"3";;;;;;;;;;;;;;;;;;;;;
"jack95";"1995";;"Windows 7";"Rachel's Experiment (D.T.)";"1.0";"2";"1";"1";"2";"1";"1";"2014-10-12 14:29:19.267";"2014-10-12 14:44:04.682";"1";"1";"1";"156";"155";"module.training_block4.exec-1401.GoNoGo4";;;;;;;;;;;;;;;;;;;;;;;;;;;;;;;;;;;;;;;;;;;;;;;;;;;;;;;;;;;"1249";"2014-10-12 14:38:20.094";"NST_correctLoc";"34";"1";"FINISHED";"RIGHT";"success";"503";"0";"2014-10-12 14:38:18.844";"3";;;;;;;;;;;;;;;;;;;;;
"jack95";"1995";;"Windows 7";"Rachel's Experiment (D.T.)";"1.0";"2";"1";"1";"2";"1";"1";"2014-10-12 14:29:19.267";"2014-10-12 14:44:04.682";"1";"1";"1";"157";"156";"module.training_block4.exec-1401.GoNoGo4";;;;;;;;;;;;;;;;;;;;;;;;;;;;;;;;;;;;;;;;;;;;;;;;;;;;;;;;;;;"1249";"2014-10-12 14:38:22.624";"NST_correctLoc";"14";"0";"FINISHED";"LEFT";"success";"528";"0";"2014-10-12 14:38:21.374";"2";;;;;;;;;;;;;;;;;;;;;
"jack95";"1995";;"Windows 7";"Rachel's Experiment (D.T.)";"1.0";"2";"1";"1";"2";"1";"1";"2014-10-12 14:29:19.267";"2014-10-12 14:44:04.682";"1";"1";"1";"158";"157";"module.training_block4.exec-1401.GoNoGo4";;;;;;;;;;;;;;;;;;;;;;;;;;;;;;;;;;;;;;;;;;;;;;;;;;;;;;;;;;;"1249";"2014-10-12 14:38:25.154";"NST_correctLoc";"28";"1";"FINISHED";"RIGHT";"success";"767";"0";"2014-10-12 14:38:23.904";"3";;;;;;;;;;;;;;;;;;;;;
"jack95";"1995";;"Windows 7";"Rachel's Experiment (D.T.)";"1.0";"2";"1";"1";"2";"1";"1";"2014-10-12 14:29:19.267";"2014-10-12 14:44:04.682";"1";"1";"1";"159";"158";"module.training_block4.exec-1401.GoNoGo4";;;;;;;;;;;;;;;;;;;;;;;;;;;;;;;;;;;;;;;;;;;;;;;;;;;;;;;;;;;"1249";"2014-10-12 14:38:27.684";"ST_correctStop";"4";"1";"FINISHED";"NONE";"success";"0";"1";"2014-10-12 14:38:26.434";"1";;;;;;;;;;;;;;;;;;;;;
"jack95";"1995";;"Windows 7";"Rachel's Experiment (D.T.)";"1.0";"2";"1";"1";"2";"1";"1";"2014-10-12 14:29:19.267";"2014-10-12 14:44:04.682";"1";"1";"1";"160";"159";"module.devaluation_practice.exec-8182.devalPractice";;;;;;;;;;;;"16613";"2014-10-12 14:39:28.203";"0";"4";"1";"2";"3415";"3683";"6444";"2014-10-12 14:39:11.590";;;;;;;;;;;;;;;;;;;;;;;;;;;;;;;;;;;;;;;;;;;;;;;;;;;;;;;;;;;;;;;;;;;;;;
"jack95";"1995";;"Windows 7";"Rachel's Experiment (D.T.)";"1.0";"2";"1";"1";"2";"1";"1";"2014-10-12 14:29:19.267";"2014-10-12 14:44:04.682";"1";"1";"1";"161";"160";"module.devaluation_practice.exec-8182.devalPractice";;;;;;;;;;;;"10352";"2014-10-12 14:39:38.596";"1";"2";"1";"1";"3443";"1181";"2713";"2014-10-12 14:39:28.243";;;;;;;;;;;;;;;;;;;;;;;;;;;;;;;;;;;;;;;;;;;;;;;;;;;;;;;;;;;;;;;;;;;;;;
"jack95";"1995";;"Windows 7";"Rachel's Experiment (D.T.)";"1.0";"2";"1";"1";"2";"1";"1";"2014-10-12 14:29:19.267";"2014-10-12 14:44:04.682";"1";"1";"1";"162";"161";"module.devaluation_practice.exec-8182.devalPractice";;;;;;;;;;;;"10888";"2014-10-12 14:39:49.517";"2";"5";"7";"6";"2162";"1959";"3750";"2014-10-12 14:39:38.628";;;;;;;;;;;;;;;;;;;;;;;;;;;;;;;;;;;;;;;;;;;;;;;;;;;;;;;;;;;;;;;;;;;;;;
"jack95";"1995";;"Windows 7";"Rachel's Experiment (D.T.)";"1.0";"2";"1";"1";"2";"1";"1";"2014-10-12 14:29:19.267";"2014-10-12 14:44:04.682";"1";"1";"1";"163";"162";"module.devaluation_practice.exec-8182.devalPractice";;;;;;;;;;;;"11952";"2014-10-12 14:40:01.506";"3";"6";"4";"8";"2298";"1675";"4964";"2014-10-12 14:39:49.553";;;;;;;;;;;;;;;;;;;;;;;;;;;;;;;;;;;;;;;;;;;;;;;;;;;;;;;;;;;;;;;;;;;;;;
"jack95";"1995";;"Windows 7";"Rachel's Experiment (D.T.)";"1.0";"2";"1";"1";"2";"1";"1";"2014-10-12 14:29:19.267";"2014-10-12 14:44:04.682";"1";"1";"1";"164";"163";"module.devaluation_block1.exec-6191.deval1";"8666";"2014-10-12 14:40:18.773";"23";"6";"2";"5";"2701";"1059";"1881";"2014-10-12 14:40:10.106";"3";;;;;;;;;;;;;;;;;;;;;;;;;;;;;;;;;;;;;;;;;;;;;;;;;;;;;;;;;;;;;;;;;;;;;;;;;;;;;;;;
"jack95";"1995";;"Windows 7";"Rachel's Experiment (D.T.)";"1.0";"2";"1";"1";"2";"1";"1";"2014-10-12 14:29:19.267";"2014-10-12 14:44:04.682";"1";"1";"1";"165";"164";"module.devaluation_block1.exec-6191.deval1";"13338";"2014-10-12 14:40:32.152";"20";"2";"4";"6";"4894";"1235";"4186";"2014-10-12 14:40:18.813";"3";;;;;;;;;;;;;;;;;;;;;;;;;;;;;;;;;;;;;;;;;;;;;;;;;;;;;;;;;;;;;;;;;;;;;;;;;;;;;;;;
"jack95";"1995";;"Windows 7";"Rachel's Experiment (D.T.)";"1.0";"2";"1";"1";"2";"1";"1";"2014-10-12 14:29:19.267";"2014-10-12 14:44:04.682";"1";"1";"1";"166";"165";"module.devaluation_block1.exec-6191.deval1";"9171";"2014-10-12 14:40:41.361";"4";"2";"5";"7";"1451";"1262";"3438";"2014-10-12 14:40:32.188";"1";;;;;;;;;;;;;;;;;;;;;;;;;;;;;;;;;;;;;;;;;;;;;;;;;;;;;;;;;;;;;;;;;;;;;;;;;;;;;;;;
"jack95";"1995";;"Windows 7";"Rachel's Experiment (D.T.)";"1.0";"2";"1";"1";"2";"1";"1";"2014-10-12 14:29:19.267";"2014-10-12 14:44:04.682";"1";"1";"1";"167";"166";"module.devaluation_block1.exec-6191.deval1";"8397";"2014-10-12 14:40:49.794";"14";"9";"9";"9";"2236";"1207";"1936";"2014-10-12 14:40:41.397";"2";;;;;;;;;;;;;;;;;;;;;;;;;;;;;;;;;;;;;;;;;;;;;;;;;;;;;;;;;;;;;;;;;;;;;;;;;;;;;;;;
"jack95";"1995";;"Windows 7";"Rachel's Experiment (D.T.)";"1.0";"2";"1";"1";"2";"1";"1";"2014-10-12 14:29:19.267";"2014-10-12 14:44:04.682";"1";"1";"1";"168";"167";"module.devaluation_block1.exec-6191.deval1";"8349";"2014-10-12 14:40:58.181";"19";"1";"2";"2";"1376";"2289";"1657";"2014-10-12 14:40:49.831";"3";;;;;;;;;;;;;;;;;;;;;;;;;;;;;;;;;;;;;;;;;;;;;;;;;;;;;;;;;;;;;;;;;;;;;;;;;;;;;;;;
"jack95";"1995";;"Windows 7";"Rachel's Experiment (D.T.)";"1.0";"2";"1";"1";"2";"1";"1";"2014-10-12 14:29:19.267";"2014-10-12 14:44:04.682";"1";"1";"1";"169";"168";"module.devaluation_block1.exec-6191.deval1";"8964";"2014-10-12 14:41:07.181";"10";"6";"5";"3";"1674";"459";"3812";"2014-10-12 14:40:58.216";"2";;;;;;;;;;;;;;;;;;;;;;;;;;;;;;;;;;;;;;;;;;;;;;;;;;;;;;;;;;;;;;;;;;;;;;;;;;;;;;;;
"jack95";"1995";;"Windows 7";"Rachel's Experiment (D.T.)";"1.0";"2";"1";"1";"2";"1";"1";"2014-10-12 14:29:19.267";"2014-10-12 14:44:04.682";"1";"1";"1";"170";"169";"module.devaluation_block1.exec-6191.deval1";"6400";"2014-10-12 14:41:13.618";"8";"7";"9";"5";"806";"906";"1668";"2014-10-12 14:41:07.217";"1";;;;;;;;;;;;;;;;;;;;;;;;;;;;;;;;;;;;;;;;;;;;;;;;;;;;;;;;;;;;;;;;;;;;;;;;;;;;;;;;
"jack95";"1995";;"Windows 7";"Rachel's Experiment (D.T.)";"1.0";"2";"1";"1";"2";"1";"1";"2014-10-12 14:29:19.267";"2014-10-12 14:44:04.682";"1";"1";"1";"171";"170";"module.devaluation_block1.exec-6191.deval1";"7054";"2014-10-12 14:41:20.709";"7";"3";"1";"2";"1019";"1889";"1128";"2014-10-12 14:41:13.655";"1";;;;;;;;;;;;;;;;;;;;;;;;;;;;;;;;;;;;;;;;;;;;;;;;;;;;;;;;;;;;;;;;;;;;;;;;;;;;;;;;
"jack95";"1995";;"Windows 7";"Rachel's Experiment (D.T.)";"1.0";"2";"1";"1";"2";"1";"1";"2014-10-12 14:29:19.267";"2014-10-12 14:44:04.682";"1";"1";"1";"172";"171";"module.devaluation_block1.exec-6191.deval1";"6182";"2014-10-12 14:41:26.932";"21";"6";"9";"8";"676";"979";"1506";"2014-10-12 14:41:20.750";"3";;;;;;;;;;;;;;;;;;;;;;;;;;;;;;;;;;;;;;;;;;;;;;;;;;;;;;;;;;;;;;;;;;;;;;;;;;;;;;;;
"jack95";"1995";;"Windows 7";"Rachel's Experiment (D.T.)";"1.0";"2";"1";"1";"2";"1";"1";"2014-10-12 14:29:19.267";"2014-10-12 14:44:04.682";"1";"1";"1";"173";"172";"module.devaluation_block1.exec-6191.deval1";"7147";"2014-10-12 14:41:34.118";"26";"9";"3";"6";"1286";"821";"2021";"2014-10-12 14:41:26.969";"3";;;;;;;;;;;;;;;;;;;;;;;;;;;;;;;;;;;;;;;;;;;;;;;;;;;;;;;;;;;;;;;;;;;;;;;;;;;;;;;;
"jack95";"1995";;"Windows 7";"Rachel's Experiment (D.T.)";"1.0";"2";"1";"1";"2";"1";"1";"2014-10-12 14:29:19.267";"2014-10-12 14:44:04.682";"1";"1";"1";"174";"173";"module.devaluation_block1.exec-6191.deval1";"6394";"2014-10-12 14:41:40.549";"11";"1";"1";"1";"1273";"1092";"1012";"2014-10-12 14:41:34.154";"2";;;;;;;;;;;;;;;;;;;;;;;;;;;;;;;;;;;;;;;;;;;;;;;;;;;;;;;;;;;;;;;;;;;;;;;;;;;;;;;;
"jack95";"1995";;"Windows 7";"Rachel's Experiment (D.T.)";"1.0";"2";"1";"1";"2";"1";"1";"2014-10-12 14:29:19.267";"2014-10-12 14:44:04.682";"1";"1";"1";"175";"174";"module.devaluation_block1.exec-6191.deval1";"6076";"2014-10-12 14:41:46.662";"24";"3";"9";"8";"852";"1013";"1195";"2014-10-12 14:41:40.584";"3";;;;;;;;;;;;;;;;;;;;;;;;;;;;;;;;;;;;;;;;;;;;;;;;;;;;;;;;;;;;;;;;;;;;;;;;;;;;;;;;
"jack95";"1995";;"Windows 7";"Rachel's Experiment (D.T.)";"1.0";"2";"1";"1";"2";"1";"1";"2014-10-12 14:29:19.267";"2014-10-12 14:44:04.682";"1";"1";"1";"176";"175";"module.devaluation_block1.exec-6191.deval1";"5676";"2014-10-12 14:41:52.375";"12";"5";"9";"9";"929";"718";"1011";"2014-10-12 14:41:46.698";"2";;;;;;;;;;;;;;;;;;;;;;;;;;;;;;;;;;;;;;;;;;;;;;;;;;;;;;;;;;;;;;;;;;;;;;;;;;;;;;;;
"jack95";"1995";;"Windows 7";"Rachel's Experiment (D.T.)";"1.0";"2";"1";"1";"2";"1";"1";"2014-10-12 14:29:19.267";"2014-10-12 14:44:04.682";"1";"1";"1";"177";"176";"module.devaluation_block1.exec-6191.deval1";"7011";"2014-10-12 14:41:59.424";"16";"1";"1";"2";"1672";"840";"1479";"2014-10-12 14:41:52.413";"2";;;;;;;;;;;;;;;;;;;;;;;;;;;;;;;;;;;;;;;;;;;;;;;;;;;;;;;;;;;;;;;;;;;;;;;;;;;;;;;;
"jack95";"1995";;"Windows 7";"Rachel's Experiment (D.T.)";"1.0";"2";"1";"1";"2";"1";"1";"2014-10-12 14:29:19.267";"2014-10-12 14:44:04.682";"1";"1";"1";"178";"177";"module.devaluation_block1.exec-6191.deval1";"13184";"2014-10-12 14:42:12.647";"25";"4";"3";"6";"6184";"1939";"2044";"2014-10-12 14:41:59.462";"3";;;;;;;;;;;;;;;;;;;;;;;;;;;;;;;;;;;;;;;;;;;;;;;;;;;;;;;;;;;;;;;;;;;;;;;;;;;;;;;;
"jack95";"1995";;"Windows 7";"Rachel's Experiment (D.T.)";"1.0";"2";"1";"1";"2";"1";"1";"2014-10-12 14:29:19.267";"2014-10-12 14:44:04.682";"1";"1";"1";"179";"178";"module.devaluation_block1.exec-6191.deval1";"22801";"2014-10-12 14:42:35.484";"5";"3";"5";"7";"17353";"922";"1509";"2014-10-12 14:42:12.682";"1";;;;;;;;;;;;;;;;;;;;;;;;;;;;;;;;;;;;;;;;;;;;;;;;;;;;;;;;;;;;;;;;;;;;;;;;;;;;;;;;
"jack95";"1995";;"Windows 7";"Rachel's Experiment (D.T.)";"1.0";"2";"1";"1";"2";"1";"1";"2014-10-12 14:29:19.267";"2014-10-12 14:44:04.682";"1";"1";"1";"180";"179";"module.devaluation_block1.exec-6191.deval1";"10841";"2014-10-12 14:42:46.366";"13";"3";"1";"5";"3411";"2331";"2082";"2014-10-12 14:42:35.524";"2";;;;;;;;;;;;;;;;;;;;;;;;;;;;;;;;;;;;;;;;;;;;;;;;;;;;;;;;;;;;;;;;;;;;;;;;;;;;;;;;
"jack95";"1995";;"Windows 7";"Rachel's Experiment (D.T.)";"1.0";"2";"1";"1";"2";"1";"1";"2014-10-12 14:29:19.267";"2014-10-12 14:44:04.682";"1";"1";"1";"181";"180";"module.devaluation_block1.exec-6191.deval1";"9978";"2014-10-12 14:42:56.384";"0";"4";"6";"6";"2365";"2092";"2504";"2014-10-12 14:42:46.405";"1";;;;;;;;;;;;;;;;;;;;;;;;;;;;;;;;;;;;;;;;;;;;;;;;;;;;;;;;;;;;;;;;;;;;;;;;;;;;;;;;
"jack95";"1995";;"Windows 7";"Rachel's Experiment (D.T.)";"1.0";"2";"1";"1";"2";"1";"1";"2014-10-12 14:29:19.267";"2014-10-12 14:44:04.682";"1";"1";"1";"182";"181";"module.devaluation_block1.exec-6191.deval1";"4467";"2014-10-12 14:43:00.889";"22";"5";"5";"5";"1041";"181";"225";"2014-10-12 14:42:56.421";"3";;;;;;;;;;;;;;;;;;;;;;;;;;;;;;;;;;;;;;;;;;;;;;;;;;;;;;;;;;;;;;;;;;;;;;;;;;;;;;;;
"jack95";"1995";;"Windows 7";"Rachel's Experiment (D.T.)";"1.0";"2";"1";"1";"2";"1";"1";"2014-10-12 14:29:19.267";"2014-10-12 14:44:04.682";"1";"1";"1";"183";"182";"module.devaluation_block1.exec-6191.deval1";"5933";"2014-10-12 14:43:06.857";"1";"6";"1";"2";"559";"1632";"725";"2014-10-12 14:43:00.923";"1";;;;;;;;;;;;;;;;;;;;;;;;;;;;;;;;;;;;;;;;;;;;;;;;;;;;;;;;;;;;;;;;;;;;;;;;;;;;;;;;
"jack95";"1995";;"Windows 7";"Rachel's Experiment (D.T.)";"1.0";"2";"1";"1";"2";"1";"1";"2014-10-12 14:29:19.267";"2014-10-12 14:44:04.682";"1";"1";"1";"184";"183";"module.devaluation_block1.exec-6191.deval1";"5195";"2014-10-12 14:43:12.091";"18";"6";"7";"4";"369";"1256";"553";"2014-10-12 14:43:06.896";"3";;;;;;;;;;;;;;;;;;;;;;;;;;;;;;;;;;;;;;;;;;;;;;;;;;;;;;;;;;;;;;;;;;;;;;;;;;;;;;;;
"jack95";"1995";;"Windows 7";"Rachel's Experiment (D.T.)";"1.0";"2";"1";"1";"2";"1";"1";"2014-10-12 14:29:19.267";"2014-10-12 14:44:04.682";"1";"1";"1";"185";"184";"module.devaluation_block1.exec-6191.deval1";"5777";"2014-10-12 14:43:17.906";"15";"3";"6";"1";"590";"857";"1313";"2014-10-12 14:43:12.128";"2";;;;;;;;;;;;;;;;;;;;;;;;;;;;;;;;;;;;;;;;;;;;;;;;;;;;;;;;;;;;;;;;;;;;;;;;;;;;;;;;
"jack95";"1995";;"Windows 7";"Rachel's Experiment (D.T.)";"1.0";"2";"1";"1";"2";"1";"1";"2014-10-12 14:29:19.267";"2014-10-12 14:44:04.682";"1";"1";"1";"186";"185";"module.devaluation_block1.exec-6191.deval1";"12324";"2014-10-12 14:43:30.267";"2";"4";"1";"7";"6777";"1077";"1453";"2014-10-12 14:43:17.942";"1";;;;;;;;;;;;;;;;;;;;;;;;;;;;;;;;;;;;;;;;;;;;;;;;;;;;;;;;;;;;;;;;;;;;;;;;;;;;;;;;
"jack95";"1995";;"Windows 7";"Rachel's Experiment (D.T.)";"1.0";"2";"1";"1";"2";"1";"1";"2014-10-12 14:29:19.267";"2014-10-12 14:44:04.682";"1";"1";"1";"187";"186";"module.devaluation_block1.exec-6191.deval1";"9260";"2014-10-12 14:43:39.570";"17";"1";"1";"1";"4652";"711";"881";"2014-10-12 14:43:30.309";"2";;;;;;;;;;;;;;;;;;;;;;;;;;;;;;;;;;;;;;;;;;;;;;;;;;;;;;;;;;;;;;;;;;;;;;;;;;;;;;;;
"jack95";"1995";;"Windows 7";"Rachel's Experiment (D.T.)";"1.0";"2";"1";"1";"2";"1";"1";"2014-10-12 14:29:19.267";"2014-10-12 14:44:04.682";"1";"1";"1";"188";"187";"module.devaluation_block1.exec-6191.deval1";"5584";"2014-10-12 14:43:45.192";"6";"2";"1";"3";"849";"871";"847";"2014-10-12 14:43:39.608";"1";;;;;;;;;;;;;;;;;;;;;;;;;;;;;;;;;;;;;;;;;;;;;;;;;;;;;;;;;;;;;;;;;;;;;;;;;;;;;;;;
"jack95";"1995";;"Windows 7";"Rachel's Experiment (D.T.)";"1.0";"2";"1";"1";"2";"1";"1";"2014-10-12 14:29:19.267";"2014-10-12 14:44:04.682";"1";"1";"1";"189";"188";"module.devaluation_block1.exec-6191.deval1";"9274";"2014-10-12 14:43:54.503";"9";"1";"2";"1";"3509";"1223";"1527";"2014-10-12 14:43:45.227";"2";;;;;;;;;;;;;;;;;;;;;;;;;;;;;;;;;;;;;;;;;;;;;;;;;;;;;;;;;;;;;;;;;;;;;;;;;;;;;;;;
"jack95";"1995";;"Windows 7";"Rachel's Experiment (D.T.)";"1.0";"2";"1";"1";"2";"1";"1";"2014-10-12 14:29:19.267";"2014-10-12 14:44:04.682";"1";"1";"1";"190";"189";"module.devaluation_block1.exec-6191.deval1";"7542";"2014-10-12 14:44:02.079";"3";"4";"6";"7";"2437";"1036";"1049";"2014-10-12 14:43:54.537";"1";;;;;;;;;;;;;;;;;;;;;;;;;;;;;;;;;;;;;;;;;;;;;;;;;;;;;;;;;;;;;;;;;;;;;;;;;;;;;;;;
