"user.name";"user.yearOfBirth";"user.sex";"user.osName";"module.name";"module.version";"module.online.subject.code";"module.online.study.id";"module.online.module.nr";"module.online.group.nr";"session.id";"session.index";"session.startTime";"session.endTime";"session.completed";"session.node-1052.conditionType";"session.node-5567.DevalQorder";"session.node-7564.conditionType";"session.node-8823.DevalQorder";"trial.id";"trial.index";"trial.name";"trial.deval1.durationTime";"trial.deval1.endTime";"trial.deval1.icon";"trial.deval1.Resp_Attractive";"trial.deval1.Resp_Eat";"trial.deval1.Resp_Taste";"trial.deval1.RT_Attractive";"trial.deval1.RT_Eat";"trial.deval1.RT_Taste";"trial.deval1.startTime";"trial.deval1.stimulus type";"trial.devalPractice.durationTime";"trial.devalPractice.endTime";"trial.devalPractice.icon";"trial.devalPractice.Resp_Attractive";"trial.devalPractice.Resp_Eat";"trial.devalPractice.Resp_Taste";"trial.devalPractice.RT_Attractive";"trial.devalPractice.RT_Eat";"trial.devalPractice.RT_Taste";"trial.devalPractice.startTime";"trial.devalPractice.stimulus type";"trial.GoNoGo1.durationTime";"trial.GoNoGo1.endTime";"trial.GoNoGo1.Error Type";"trial.GoNoGo1.icon";"trial.GoNoGo1.location";"trial.GoNoGo1.outcome";"trial.GoNoGo1.response";"trial.GoNoGo1.result";"trial.GoNoGo1.RT";"trial.GoNoGo1.signal";"trial.GoNoGo1.startTime";"trial.GoNoGo1.stimulus type";"trial.GoNoGo2.durationTime";"trial.GoNoGo2.endTime";"trial.GoNoGo2.Error Type";"trial.GoNoGo2.icon";"trial.GoNoGo2.location";"trial.GoNoGo2.outcome";"trial.GoNoGo2.response";"trial.GoNoGo2.result";"trial.GoNoGo2.RT";"trial.GoNoGo2.signal";"trial.GoNoGo2.startTime";"trial.GoNoGo2.stimulus type";"trial.GoNoGo3.durationTime";"trial.GoNoGo3.endTime";"trial.GoNoGo3.Error Type";"trial.GoNoGo3.icon";"trial.GoNoGo3.location";"trial.GoNoGo3.outcome";"trial.GoNoGo3.response";"trial.GoNoGo3.result";"trial.GoNoGo3.RT";"trial.GoNoGo3.signal";"trial.GoNoGo3.startTime";"trial.GoNoGo3.stimulus type";"trial.GoNoGo4.durationTime";"trial.GoNoGo4.endTime";"trial.GoNoGo4.Error Type";"trial.GoNoGo4.icon";"trial.GoNoGo4.location";"trial.GoNoGo4.outcome";"trial.GoNoGo4.response";"trial.GoNoGo4.result";"trial.GoNoGo4.RT";"trial.GoNoGo4.signal";"trial.GoNoGo4.startTime";"trial.GoNoGo4.stimulus type";"trial.GoNoGo_Practice.durationTime";"trial.GoNoGo_Practice.endTime";"trial.GoNoGo_Practice.icon";"trial.GoNoGo_Practice.location";"trial.GoNoGo_Practice.outcome";"trial.GoNoGo_Practice.response";"trial.GoNoGo_Practice.result";"trial.GoNoGo_Practice.RT";"trial.GoNoGo_Practice.signal";"trial.GoNoGo_Practice.startTime";"trial.GoNoGo_Practice.stimulus type";"trial.GoNoGo_Tutorial.durationTime";"trial.GoNoGo_Tutorial.endTime";"trial.GoNoGo_Tutorial.icon";"trial.GoNoGo_Tutorial.location";"trial.GoNoGo_Tutorial.outcome";"trial.GoNoGo_Tutorial.response";"trial.GoNoGo_Tutorial.result";"trial.GoNoGo_Tutorial.RT";"trial.GoNoGo_Tutorial.signal";"trial.GoNoGo_Tutorial.startTime"
"42ok95";"1995";;"Windows 7";"Rachel's Experiment (D.T.)";"1.0";"2";"1";"1";"2";"2";"2";"2014-10-13 14:36:19.723";"2014-10-13 14:48:52.926";"1";;"1";"0";;"1";"0";"module.GoNoGotutorial.exec-8338.GoNoGo_Tutorial";;;;;;;;;;;;;;;;;;;;;;;;;;;;;;;;;;;;;;;;;;;;;;;;;;;;;;;;;;;;;;;;;;;;;;;;;;;;;;;;;;"3990";"2014-10-13 14:36:56.332";"leftResponse";"0";"FINISHED";"NONE";"failure";"0";"0";"2014-10-13 14:36:52.332"
"42ok95";"1995";;"Windows 7";"Rachel's Experiment (D.T.)";"1.0";"2";"1";"1";"2";"2";"2";"2014-10-13 14:36:19.723";"2014-10-13 14:48:52.926";"1";;"1";"0";;"2";"1";"module.GoNoGotutorial.exec-8338.GoNoGo_Tutorial";;;;;;;;;;;;;;;;;;;;;;;;;;;;;;;;;;;;;;;;;;;;;;;;;;;;;;;;;;;;;;;;;;;;;;;;;;;;;;;;;;"3994";"2014-10-13 14:37:01.598";"rightResponse";"1";"FINISHED";"NONE";"failure";"0";"0";"2014-10-13 14:36:57.598"
"42ok95";"1995";;"Windows 7";"Rachel's Experiment (D.T.)";"1.0";"2";"1";"1";"2";"2";"2";"2014-10-13 14:36:19.723";"2014-10-13 14:48:52.926";"1";;"1";"0";;"3";"2";"module.GoNoGotutorial.exec-8338.GoNoGo_Tutorial";;;;;;;;;;;;;;;;;;;;;;;;;;;;;;;;;;;;;;;;;;;;;;;;;;;;;;;;;;;;;;;;;;;;;;;;;;;;;;;;;;"3993";"2014-10-13 14:37:07.004";"quickResponse";"0";"FINISHED";"NONE";"failure";"0";"0";"2014-10-13 14:37:03.004"
"42ok95";"1995";;"Windows 7";"Rachel's Experiment (D.T.)";"1.0";"2";"1";"1";"2";"2";"2";"2014-10-13 14:36:19.723";"2014-10-13 14:48:52.926";"1";;"1";"0";;"4";"3";"module.GoNoGopractice.exec-2322.GoNoGo_Practice";;;;;;;;;;;;;;;;;;;;;;;;;;;;;;;;;;;;;;;;;;;;;;;;;;;;;;;;;;;;;;;;;;;;;;;"1947";"2014-10-13 14:37:14.254";"18";"0";"FINISHED";"LEFT";"success";"556";"0";"2014-10-13 14:37:12.301";"3";;;;;;;;;;
"42ok95";"1995";;"Windows 7";"Rachel's Experiment (D.T.)";"1.0";"2";"1";"1";"2";"2";"2";"2014-10-13 14:36:19.723";"2014-10-13 14:48:52.926";"1";;"1";"0";;"5";"4";"module.GoNoGopractice.exec-2322.GoNoGo_Practice";;;;;;;;;;;;;;;;;;;;;;;;;;;;;;;;;;;;;;;;;;;;;;;;;;;;;;;;;;;;;;;;;;;;;;;"1947";"2014-10-13 14:37:17.473";"21";"1";"FINISHED";"RIGHT";"success";"1217";"0";"2014-10-13 14:37:15.520";"3";;;;;;;;;;
"42ok95";"1995";;"Windows 7";"Rachel's Experiment (D.T.)";"1.0";"2";"1";"1";"2";"2";"2";"2014-10-13 14:36:19.723";"2014-10-13 14:48:52.926";"1";;"1";"0";;"6";"5";"module.GoNoGopractice.exec-2322.GoNoGo_Practice";;;;;;;;;;;;;;;;;;;;;;;;;;;;;;;;;;;;;;;;;;;;;;;;;;;;;;;;;;;;;;;;;;;;;;;"1949";"2014-10-13 14:37:20.692";"14";"1";"FINISHED";"RIGHT";"success";"336";"0";"2014-10-13 14:37:18.739";"2";;;;;;;;;;
"42ok95";"1995";;"Windows 7";"Rachel's Experiment (D.T.)";"1.0";"2";"1";"1";"2";"2";"2";"2014-10-13 14:36:19.723";"2014-10-13 14:48:52.926";"1";;"1";"0";;"7";"6";"module.GoNoGopractice.exec-2322.GoNoGo_Practice";;;;;;;;;;;;;;;;;;;;;;;;;;;;;;;;;;;;;;;;;;;;;;;;;;;;;;;;;;;;;;;;;;;;;;;"1947";"2014-10-13 14:37:23.910";"26";"0";"FINISHED";"LEFT";"success";"459";"0";"2014-10-13 14:37:21.957";"3";;;;;;;;;;
"42ok95";"1995";;"Windows 7";"Rachel's Experiment (D.T.)";"1.0";"2";"1";"1";"2";"2";"2";"2014-10-13 14:36:19.723";"2014-10-13 14:48:52.926";"1";;"1";"0";;"8";"7";"module.GoNoGopractice.exec-2322.GoNoGo_Practice";;;;;;;;;;;;;;;;;;;;;;;;;;;;;;;;;;;;;;;;;;;;;;;;;;;;;;;;;;;;;;;;;;;;;;;"1948";"2014-10-13 14:37:27.129";"2";"0";"FINISHED";"LEFT";"success";"577";"0";"2014-10-13 14:37:25.176";"1";;;;;;;;;;
"42ok95";"1995";;"Windows 7";"Rachel's Experiment (D.T.)";"1.0";"2";"1";"1";"2";"2";"2";"2014-10-13 14:36:19.723";"2014-10-13 14:48:52.926";"1";;"1";"0";;"9";"8";"module.GoNoGopractice.exec-2322.GoNoGo_Practice";;;;;;;;;;;;;;;;;;;;;;;;;;;;;;;;;;;;;;;;;;;;;;;;;;;;;;;;;;;;;;;;;;;;;;;"1948";"2014-10-13 14:37:30.348";"30";"0";"FINISHED";"LEFT";"success";"343";"0";"2014-10-13 14:37:28.395";"3";;;;;;;;;;
"42ok95";"1995";;"Windows 7";"Rachel's Experiment (D.T.)";"1.0";"2";"1";"1";"2";"2";"2";"2014-10-13 14:36:19.723";"2014-10-13 14:48:52.926";"1";;"1";"0";;"10";"9";"module.GoNoGopractice.exec-2322.GoNoGo_Practice";;;;;;;;;;;;;;;;;;;;;;;;;;;;;;;;;;;;;;;;;;;;;;;;;;;;;;;;;;;;;;;;;;;;;;;"1947";"2014-10-13 14:37:33.567";"6";"1";"FINISHED";"RIGHT";"success";"324";"0";"2014-10-13 14:37:31.614";"1";;;;;;;;;;
"42ok95";"1995";;"Windows 7";"Rachel's Experiment (D.T.)";"1.0";"2";"1";"1";"2";"2";"2";"2014-10-13 14:36:19.723";"2014-10-13 14:48:52.926";"1";;"1";"0";;"11";"10";"module.GoNoGopractice.exec-2322.GoNoGo_Practice";;;;;;;;;;;;;;;;;;;;;;;;;;;;;;;;;;;;;;;;;;;;;;;;;;;;;;;;;;;;;;;;;;;;;;;"1948";"2014-10-13 14:37:36.785";"34";"0";"FINISHED";"LEFT";"success";"402";"0";"2014-10-13 14:37:34.832";"3";;;;;;;;;;
"42ok95";"1995";;"Windows 7";"Rachel's Experiment (D.T.)";"1.0";"2";"1";"1";"2";"2";"2";"2014-10-13 14:36:19.723";"2014-10-13 14:48:52.926";"1";;"1";"0";;"12";"11";"module.GoNoGopractice.exec-2322.GoNoGo_Practice";;;;;;;;;;;;;;;;;;;;;;;;;;;;;;;;;;;;;;;;;;;;;;;;;;;;;;;;;;;;;;;;;;;;;;;"1948";"2014-10-13 14:37:40.004";"23";"1";"FINISHED";"RIGHT";"success";"294";"0";"2014-10-13 14:37:38.051";"3";;;;;;;;;;
"42ok95";"1995";;"Windows 7";"Rachel's Experiment (D.T.)";"1.0";"2";"1";"1";"2";"2";"2";"2014-10-13 14:36:19.723";"2014-10-13 14:48:52.926";"1";;"1";"0";;"13";"12";"module.GoNoGopractice.exec-2322.GoNoGo_Practice";;;;;;;;;;;;;;;;;;;;;;;;;;;;;;;;;;;;;;;;;;;;;;;;;;;;;;;;;;;;;;;;;;;;;;;"1947";"2014-10-13 14:37:43.223";"13";"0";"FINISHED";"LEFT";"success";"595";"0";"2014-10-13 14:37:41.270";"2";;;;;;;;;;
"42ok95";"1995";;"Windows 7";"Rachel's Experiment (D.T.)";"1.0";"2";"1";"1";"2";"2";"2";"2014-10-13 14:36:19.723";"2014-10-13 14:48:52.926";"1";;"1";"0";;"14";"13";"module.GoNoGopractice.exec-2322.GoNoGo_Practice";;;;;;;;;;;;;;;;;;;;;;;;;;;;;;;;;;;;;;;;;;;;;;;;;;;;;;;;;;;;;;;;;;;;;;;"1948";"2014-10-13 14:37:46.442";"3";"1";"FINISHED";"RIGHT";"success";"833";"0";"2014-10-13 14:37:44.489";"1";;;;;;;;;;
"42ok95";"1995";;"Windows 7";"Rachel's Experiment (D.T.)";"1.0";"2";"1";"1";"2";"2";"2";"2014-10-13 14:36:19.723";"2014-10-13 14:48:52.926";"1";;"1";"0";;"15";"14";"module.GoNoGopractice.exec-2322.GoNoGo_Practice";;;;;;;;;;;;;;;;;;;;;;;;;;;;;;;;;;;;;;;;;;;;;;;;;;;;;;;;;;;;;;;;;;;;;;;"1947";"2014-10-13 14:37:49.660";"27";"1";"FINISHED";"RIGHT";"success";"638";"0";"2014-10-13 14:37:47.707";"3";;;;;;;;;;
"42ok95";"1995";;"Windows 7";"Rachel's Experiment (D.T.)";"1.0";"2";"1";"1";"2";"2";"2";"2014-10-13 14:36:19.723";"2014-10-13 14:48:52.926";"1";;"1";"0";;"16";"15";"module.training_block1.exec-1439.GoNoGo1";;;;;;;;;;;;;;;;;;;;;;;"1243";"2014-10-13 14:37:56.645";"NST_correctLoc";"24";"0";"FINISHED";"LEFT";"success";"300";"0";"2014-10-13 14:37:55.395";"3";;;;;;;;;;;;;;;;;;;;;;;;;;;;;;;;;;;;;;;;;;;;;;;;;;;;;;;;;
"42ok95";"1995";;"Windows 7";"Rachel's Experiment (D.T.)";"1.0";"2";"1";"1";"2";"2";"2";"2014-10-13 14:36:19.723";"2014-10-13 14:48:52.926";"1";;"1";"0";;"17";"16";"module.training_block1.exec-1439.GoNoGo1";;;;;;;;;;;;;;;;;;;;;;;"1245";"2014-10-13 14:37:59.160";"NST_correctLoc";"35";"1";"FINISHED";"RIGHT";"success";"347";"0";"2014-10-13 14:37:57.910";"3";;;;;;;;;;;;;;;;;;;;;;;;;;;;;;;;;;;;;;;;;;;;;;;;;;;;;;;;;
"42ok95";"1995";;"Windows 7";"Rachel's Experiment (D.T.)";"1.0";"2";"1";"1";"2";"2";"2";"2014-10-13 14:36:19.723";"2014-10-13 14:48:52.926";"1";;"1";"0";;"18";"17";"module.training_block1.exec-1439.GoNoGo1";;;;;;;;;;;;;;;;;;;;;;;"1248";"2014-10-13 14:38:01.676";"NST_correctLoc";"23";"0";"FINISHED";"LEFT";"success";"314";"0";"2014-10-13 14:38:00.426";"3";;;;;;;;;;;;;;;;;;;;;;;;;;;;;;;;;;;;;;;;;;;;;;;;;;;;;;;;;
"42ok95";"1995";;"Windows 7";"Rachel's Experiment (D.T.)";"1.0";"2";"1";"1";"2";"2";"2";"2014-10-13 14:36:19.723";"2014-10-13 14:48:52.926";"1";;"1";"0";;"19";"18";"module.training_block1.exec-1439.GoNoGo1";;;;;;;;;;;;;;;;;;;;;;;"1248";"2014-10-13 14:38:04.192";"NST_correctLoc";"21";"0";"FINISHED";"LEFT";"success";"431";"0";"2014-10-13 14:38:02.942";"3";;;;;;;;;;;;;;;;;;;;;;;;;;;;;;;;;;;;;;;;;;;;;;;;;;;;;;;;;
"42ok95";"1995";;"Windows 7";"Rachel's Experiment (D.T.)";"1.0";"2";"1";"1";"2";"2";"2";"2014-10-13 14:36:19.723";"2014-10-13 14:48:52.926";"1";;"1";"0";;"20";"19";"module.training_block1.exec-1439.GoNoGo1";;;;;;;;;;;;;;;;;;;;;;;"1248";"2014-10-13 14:38:06.707";"NST_correctLoc";"30";"0";"FINISHED";"LEFT";"success";"403";"0";"2014-10-13 14:38:05.457";"3";;;;;;;;;;;;;;;;;;;;;;;;;;;;;;;;;;;;;;;;;;;;;;;;;;;;;;;;;
"42ok95";"1995";;"Windows 7";"Rachel's Experiment (D.T.)";"1.0";"2";"1";"1";"2";"2";"2";"2014-10-13 14:36:19.723";"2014-10-13 14:48:52.926";"1";;"1";"0";;"21";"20";"module.training_block1.exec-1439.GoNoGo1";;;;;;;;;;;;;;;;;;;;;;;"1248";"2014-10-13 14:38:09.239";"NST_correctLoc";"26";"0";"FINISHED";"LEFT";"success";"368";"0";"2014-10-13 14:38:07.989";"3";;;;;;;;;;;;;;;;;;;;;;;;;;;;;;;;;;;;;;;;;;;;;;;;;;;;;;;;;
"42ok95";"1995";;"Windows 7";"Rachel's Experiment (D.T.)";"1.0";"2";"1";"1";"2";"2";"2";"2014-10-13 14:36:19.723";"2014-10-13 14:48:52.926";"1";;"1";"0";;"22";"21";"module.training_block1.exec-1439.GoNoGo1";;;;;;;;;;;;;;;;;;;;;;;"1246";"2014-10-13 14:38:11.754";"NST_correctLoc";"25";"0";"FINISHED";"LEFT";"success";"378";"0";"2014-10-13 14:38:10.504";"3";;;;;;;;;;;;;;;;;;;;;;;;;;;;;;;;;;;;;;;;;;;;;;;;;;;;;;;;;
"42ok95";"1995";;"Windows 7";"Rachel's Experiment (D.T.)";"1.0";"2";"1";"1";"2";"2";"2";"2014-10-13 14:36:19.723";"2014-10-13 14:48:52.926";"1";;"1";"0";;"23";"22";"module.training_block1.exec-1439.GoNoGo1";;;;;;;;;;;;;;;;;;;;;;;"1244";"2014-10-13 14:38:14.270";"NST_correctLoc";"15";"0";"FINISHED";"LEFT";"success";"373";"0";"2014-10-13 14:38:13.020";"2";;;;;;;;;;;;;;;;;;;;;;;;;;;;;;;;;;;;;;;;;;;;;;;;;;;;;;;;;
"42ok95";"1995";;"Windows 7";"Rachel's Experiment (D.T.)";"1.0";"2";"1";"1";"2";"2";"2";"2014-10-13 14:36:19.723";"2014-10-13 14:48:52.926";"1";;"1";"0";;"24";"23";"module.training_block1.exec-1439.GoNoGo1";;;;;;;;;;;;;;;;;;;;;;;"1244";"2014-10-13 14:38:16.785";"NST_correctLoc";"8";"1";"FINISHED";"RIGHT";"success";"345";"0";"2014-10-13 14:38:15.535";"1";;;;;;;;;;;;;;;;;;;;;;;;;;;;;;;;;;;;;;;;;;;;;;;;;;;;;;;;;
"42ok95";"1995";;"Windows 7";"Rachel's Experiment (D.T.)";"1.0";"2";"1";"1";"2";"2";"2";"2014-10-13 14:36:19.723";"2014-10-13 14:48:52.926";"1";;"1";"0";;"25";"24";"module.training_block1.exec-1439.GoNoGo1";;;;;;;;;;;;;;;;;;;;;;;"1248";"2014-10-13 14:38:19.301";"NST_correctLoc";"18";"0";"FINISHED";"LEFT";"success";"281";"0";"2014-10-13 14:38:18.051";"3";;;;;;;;;;;;;;;;;;;;;;;;;;;;;;;;;;;;;;;;;;;;;;;;;;;;;;;;;
"42ok95";"1995";;"Windows 7";"Rachel's Experiment (D.T.)";"1.0";"2";"1";"1";"2";"2";"2";"2014-10-13 14:36:19.723";"2014-10-13 14:48:52.926";"1";;"1";"0";;"26";"25";"module.training_block1.exec-1439.GoNoGo1";;;;;;;;;;;;;;;;;;;;;;;"1248";"2014-10-13 14:38:21.817";"NST_correctLoc";"14";"1";"FINISHED";"RIGHT";"success";"373";"0";"2014-10-13 14:38:20.567";"2";;;;;;;;;;;;;;;;;;;;;;;;;;;;;;;;;;;;;;;;;;;;;;;;;;;;;;;;;
"42ok95";"1995";;"Windows 7";"Rachel's Experiment (D.T.)";"1.0";"2";"1";"1";"2";"2";"2";"2014-10-13 14:36:19.723";"2014-10-13 14:48:52.926";"1";;"1";"0";;"27";"26";"module.training_block1.exec-1439.GoNoGo1";;;;;;;;;;;;;;;;;;;;;;;"1244";"2014-10-13 14:38:24.332";"NST_correctLoc";"31";"0";"FINISHED";"LEFT";"success";"334";"0";"2014-10-13 14:38:23.082";"3";;;;;;;;;;;;;;;;;;;;;;;;;;;;;;;;;;;;;;;;;;;;;;;;;;;;;;;;;
"42ok95";"1995";;"Windows 7";"Rachel's Experiment (D.T.)";"1.0";"2";"1";"1";"2";"2";"2";"2014-10-13 14:36:19.723";"2014-10-13 14:48:52.926";"1";;"1";"0";;"28";"27";"module.training_block1.exec-1439.GoNoGo1";;;;;;;;;;;;;;;;;;;;;;;"1243";"2014-10-13 14:38:26.848";"NST_correctLoc";"32";"0";"FINISHED";"LEFT";"success";"362";"0";"2014-10-13 14:38:25.598";"3";;;;;;;;;;;;;;;;;;;;;;;;;;;;;;;;;;;;;;;;;;;;;;;;;;;;;;;;;
"42ok95";"1995";;"Windows 7";"Rachel's Experiment (D.T.)";"1.0";"2";"1";"1";"2";"2";"2";"2014-10-13 14:36:19.723";"2014-10-13 14:48:52.926";"1";;"1";"0";;"29";"28";"module.training_block1.exec-1439.GoNoGo1";;;;;;;;;;;;;;;;;;;;;;;"1244";"2014-10-13 14:38:29.364";"NST_correctLoc";"10";"1";"FINISHED";"RIGHT";"success";"359";"0";"2014-10-13 14:38:28.114";"2";;;;;;;;;;;;;;;;;;;;;;;;;;;;;;;;;;;;;;;;;;;;;;;;;;;;;;;;;
"42ok95";"1995";;"Windows 7";"Rachel's Experiment (D.T.)";"1.0";"2";"1";"1";"2";"2";"2";"2014-10-13 14:36:19.723";"2014-10-13 14:48:52.926";"1";;"1";"0";;"30";"29";"module.training_block1.exec-1439.GoNoGo1";;;;;;;;;;;;;;;;;;;;;;;"1245";"2014-10-13 14:38:31.879";"NST_correctLoc";"1";"0";"FINISHED";"LEFT";"success";"292";"0";"2014-10-13 14:38:30.629";"1";;;;;;;;;;;;;;;;;;;;;;;;;;;;;;;;;;;;;;;;;;;;;;;;;;;;;;;;;
"42ok95";"1995";;"Windows 7";"Rachel's Experiment (D.T.)";"1.0";"2";"1";"1";"2";"2";"2";"2014-10-13 14:36:19.723";"2014-10-13 14:48:52.926";"1";;"1";"0";;"31";"30";"module.training_block1.exec-1439.GoNoGo1";;;;;;;;;;;;;;;;;;;;;;;"1245";"2014-10-13 14:38:34.395";"NST_correctLoc";"5";"0";"FINISHED";"LEFT";"success";"408";"0";"2014-10-13 14:38:33.145";"1";;;;;;;;;;;;;;;;;;;;;;;;;;;;;;;;;;;;;;;;;;;;;;;;;;;;;;;;;
"42ok95";"1995";;"Windows 7";"Rachel's Experiment (D.T.)";"1.0";"2";"1";"1";"2";"2";"2";"2014-10-13 14:36:19.723";"2014-10-13 14:48:52.926";"1";;"1";"0";;"32";"31";"module.training_block1.exec-1439.GoNoGo1";;;;;;;;;;;;;;;;;;;;;;;"1248";"2014-10-13 14:38:36.910";"NST_correctLoc";"2";"0";"FINISHED";"LEFT";"success";"375";"0";"2014-10-13 14:38:35.660";"1";;;;;;;;;;;;;;;;;;;;;;;;;;;;;;;;;;;;;;;;;;;;;;;;;;;;;;;;;
"42ok95";"1995";;"Windows 7";"Rachel's Experiment (D.T.)";"1.0";"2";"1";"1";"2";"2";"2";"2014-10-13 14:36:19.723";"2014-10-13 14:48:52.926";"1";;"1";"0";;"33";"32";"module.training_block1.exec-1439.GoNoGo1";;;;;;;;;;;;;;;;;;;;;;;"1245";"2014-10-13 14:38:39.426";"NST_correctLoc";"29";"1";"FINISHED";"RIGHT";"success";"552";"0";"2014-10-13 14:38:38.176";"3";;;;;;;;;;;;;;;;;;;;;;;;;;;;;;;;;;;;;;;;;;;;;;;;;;;;;;;;;
"42ok95";"1995";;"Windows 7";"Rachel's Experiment (D.T.)";"1.0";"2";"1";"1";"2";"2";"2";"2014-10-13 14:36:19.723";"2014-10-13 14:48:52.926";"1";;"1";"0";;"34";"33";"module.training_block1.exec-1439.GoNoGo1";;;;;;;;;;;;;;;;;;;;;;;"1244";"2014-10-13 14:38:41.942";"NST_correctLoc";"17";"0";"FINISHED";"LEFT";"success";"309";"0";"2014-10-13 14:38:40.692";"2";;;;;;;;;;;;;;;;;;;;;;;;;;;;;;;;;;;;;;;;;;;;;;;;;;;;;;;;;
"42ok95";"1995";;"Windows 7";"Rachel's Experiment (D.T.)";"1.0";"2";"1";"1";"2";"2";"2";"2014-10-13 14:36:19.723";"2014-10-13 14:48:52.926";"1";;"1";"0";;"35";"34";"module.training_block1.exec-1439.GoNoGo1";;;;;;;;;;;;;;;;;;;;;;;"1244";"2014-10-13 14:38:44.457";"NST_correctLoc";"16";"0";"FINISHED";"LEFT";"success";"449";"0";"2014-10-13 14:38:43.207";"2";;;;;;;;;;;;;;;;;;;;;;;;;;;;;;;;;;;;;;;;;;;;;;;;;;;;;;;;;
"42ok95";"1995";;"Windows 7";"Rachel's Experiment (D.T.)";"1.0";"2";"1";"1";"2";"2";"2";"2014-10-13 14:36:19.723";"2014-10-13 14:48:52.926";"1";;"1";"0";;"36";"35";"module.training_block1.exec-1439.GoNoGo1";;;;;;;;;;;;;;;;;;;;;;;"1248";"2014-10-13 14:38:46.973";"NST_correctLoc";"27";"0";"FINISHED";"LEFT";"success";"521";"0";"2014-10-13 14:38:45.723";"3";;;;;;;;;;;;;;;;;;;;;;;;;;;;;;;;;;;;;;;;;;;;;;;;;;;;;;;;;
"42ok95";"1995";;"Windows 7";"Rachel's Experiment (D.T.)";"1.0";"2";"1";"1";"2";"2";"2";"2014-10-13 14:36:19.723";"2014-10-13 14:48:52.926";"1";;"1";"0";;"37";"36";"module.training_block1.exec-1439.GoNoGo1";;;;;;;;;;;;;;;;;;;;;;;"1245";"2014-10-13 14:38:49.489";"NST_correctLoc";"20";"1";"FINISHED";"RIGHT";"success";"354";"0";"2014-10-13 14:38:48.239";"3";;;;;;;;;;;;;;;;;;;;;;;;;;;;;;;;;;;;;;;;;;;;;;;;;;;;;;;;;
"42ok95";"1995";;"Windows 7";"Rachel's Experiment (D.T.)";"1.0";"2";"1";"1";"2";"2";"2";"2014-10-13 14:36:19.723";"2014-10-13 14:48:52.926";"1";;"1";"0";;"38";"37";"module.training_block1.exec-1439.GoNoGo1";;;;;;;;;;;;;;;;;;;;;;;"1244";"2014-10-13 14:38:52.004";"NST_correctLoc";"7";"0";"FINISHED";"LEFT";"success";"334";"0";"2014-10-13 14:38:50.754";"1";;;;;;;;;;;;;;;;;;;;;;;;;;;;;;;;;;;;;;;;;;;;;;;;;;;;;;;;;
"42ok95";"1995";;"Windows 7";"Rachel's Experiment (D.T.)";"1.0";"2";"1";"1";"2";"2";"2";"2014-10-13 14:36:19.723";"2014-10-13 14:48:52.926";"1";;"1";"0";;"39";"38";"module.training_block1.exec-1439.GoNoGo1";;;;;;;;;;;;;;;;;;;;;;;"1248";"2014-10-13 14:38:54.520";"NST_correctLoc";"6";"0";"FINISHED";"LEFT";"success";"358";"0";"2014-10-13 14:38:53.270";"1";;;;;;;;;;;;;;;;;;;;;;;;;;;;;;;;;;;;;;;;;;;;;;;;;;;;;;;;;
"42ok95";"1995";;"Windows 7";"Rachel's Experiment (D.T.)";"1.0";"2";"1";"1";"2";"2";"2";"2014-10-13 14:36:19.723";"2014-10-13 14:48:52.926";"1";;"1";"0";;"40";"39";"module.training_block1.exec-1439.GoNoGo1";;;;;;;;;;;;;;;;;;;;;;;"1243";"2014-10-13 14:38:57.035";"NST_correctLoc";"4";"0";"FINISHED";"LEFT";"success";"382";"0";"2014-10-13 14:38:55.785";"1";;;;;;;;;;;;;;;;;;;;;;;;;;;;;;;;;;;;;;;;;;;;;;;;;;;;;;;;;
"42ok95";"1995";;"Windows 7";"Rachel's Experiment (D.T.)";"1.0";"2";"1";"1";"2";"2";"2";"2014-10-13 14:36:19.723";"2014-10-13 14:48:52.926";"1";;"1";"0";;"41";"40";"module.training_block1.exec-1439.GoNoGo1";;;;;;;;;;;;;;;;;;;;;;;"1244";"2014-10-13 14:38:59.551";"NST_correctLoc";"9";"0";"FINISHED";"LEFT";"success";"387";"0";"2014-10-13 14:38:58.301";"2";;;;;;;;;;;;;;;;;;;;;;;;;;;;;;;;;;;;;;;;;;;;;;;;;;;;;;;;;
"42ok95";"1995";;"Windows 7";"Rachel's Experiment (D.T.)";"1.0";"2";"1";"1";"2";"2";"2";"2014-10-13 14:36:19.723";"2014-10-13 14:48:52.926";"1";;"1";"0";;"42";"41";"module.training_block1.exec-1439.GoNoGo1";;;;;;;;;;;;;;;;;;;;;;;"1248";"2014-10-13 14:39:02.067";"NST_correctLoc";"13";"0";"FINISHED";"LEFT";"success";"379";"0";"2014-10-13 14:39:00.817";"2";;;;;;;;;;;;;;;;;;;;;;;;;;;;;;;;;;;;;;;;;;;;;;;;;;;;;;;;;
"42ok95";"1995";;"Windows 7";"Rachel's Experiment (D.T.)";"1.0";"2";"1";"1";"2";"2";"2";"2014-10-13 14:36:19.723";"2014-10-13 14:48:52.926";"1";;"1";"0";;"43";"42";"module.training_block1.exec-1439.GoNoGo1";;;;;;;;;;;;;;;;;;;;;;;"1244";"2014-10-13 14:39:04.582";"NST_correctLoc";"22";"0";"FINISHED";"LEFT";"success";"380";"0";"2014-10-13 14:39:03.332";"3";;;;;;;;;;;;;;;;;;;;;;;;;;;;;;;;;;;;;;;;;;;;;;;;;;;;;;;;;
"42ok95";"1995";;"Windows 7";"Rachel's Experiment (D.T.)";"1.0";"2";"1";"1";"2";"2";"2";"2014-10-13 14:36:19.723";"2014-10-13 14:48:52.926";"1";;"1";"0";;"44";"43";"module.training_block1.exec-1439.GoNoGo1";;;;;;;;;;;;;;;;;;;;;;;"1245";"2014-10-13 14:39:07.098";"NST_correctLoc";"28";"0";"FINISHED";"LEFT";"success";"272";"0";"2014-10-13 14:39:05.848";"3";;;;;;;;;;;;;;;;;;;;;;;;;;;;;;;;;;;;;;;;;;;;;;;;;;;;;;;;;
"42ok95";"1995";;"Windows 7";"Rachel's Experiment (D.T.)";"1.0";"2";"1";"1";"2";"2";"2";"2014-10-13 14:36:19.723";"2014-10-13 14:48:52.926";"1";;"1";"0";;"45";"44";"module.training_block1.exec-1439.GoNoGo1";;;;;;;;;;;;;;;;;;;;;;;"1248";"2014-10-13 14:39:09.614";"NST_correctLoc";"34";"0";"FINISHED";"LEFT";"success";"304";"0";"2014-10-13 14:39:08.364";"3";;;;;;;;;;;;;;;;;;;;;;;;;;;;;;;;;;;;;;;;;;;;;;;;;;;;;;;;;
"42ok95";"1995";;"Windows 7";"Rachel's Experiment (D.T.)";"1.0";"2";"1";"1";"2";"2";"2";"2014-10-13 14:36:19.723";"2014-10-13 14:48:52.926";"1";;"1";"0";;"46";"45";"module.training_block1.exec-1439.GoNoGo1";;;;;;;;;;;;;;;;;;;;;;;"1244";"2014-10-13 14:39:12.129";"NST_correctLoc";"0";"1";"FINISHED";"RIGHT";"success";"345";"0";"2014-10-13 14:39:10.879";"1";;;;;;;;;;;;;;;;;;;;;;;;;;;;;;;;;;;;;;;;;;;;;;;;;;;;;;;;;
"42ok95";"1995";;"Windows 7";"Rachel's Experiment (D.T.)";"1.0";"2";"1";"1";"2";"2";"2";"2014-10-13 14:36:19.723";"2014-10-13 14:48:52.926";"1";;"1";"0";;"47";"46";"module.training_block1.exec-1439.GoNoGo1";;;;;;;;;;;;;;;;;;;;;;;"1248";"2014-10-13 14:39:14.645";"NST_correctLoc";"3";"1";"FINISHED";"RIGHT";"success";"304";"0";"2014-10-13 14:39:13.395";"1";;;;;;;;;;;;;;;;;;;;;;;;;;;;;;;;;;;;;;;;;;;;;;;;;;;;;;;;;
"42ok95";"1995";;"Windows 7";"Rachel's Experiment (D.T.)";"1.0";"2";"1";"1";"2";"2";"2";"2014-10-13 14:36:19.723";"2014-10-13 14:48:52.926";"1";;"1";"0";;"48";"47";"module.training_block1.exec-1439.GoNoGo1";;;;;;;;;;;;;;;;;;;;;;;"1244";"2014-10-13 14:39:17.160";"NST_correctLoc";"11";"1";"FINISHED";"RIGHT";"success";"321";"0";"2014-10-13 14:39:15.910";"2";;;;;;;;;;;;;;;;;;;;;;;;;;;;;;;;;;;;;;;;;;;;;;;;;;;;;;;;;
"42ok95";"1995";;"Windows 7";"Rachel's Experiment (D.T.)";"1.0";"2";"1";"1";"2";"2";"2";"2014-10-13 14:36:19.723";"2014-10-13 14:48:52.926";"1";;"1";"0";;"49";"48";"module.training_block1.exec-1439.GoNoGo1";;;;;;;;;;;;;;;;;;;;;;;"1245";"2014-10-13 14:39:19.676";"NST_correctLoc";"12";"0";"FINISHED";"LEFT";"success";"262";"0";"2014-10-13 14:39:18.426";"2";;;;;;;;;;;;;;;;;;;;;;;;;;;;;;;;;;;;;;;;;;;;;;;;;;;;;;;;;
"42ok95";"1995";;"Windows 7";"Rachel's Experiment (D.T.)";"1.0";"2";"1";"1";"2";"2";"2";"2014-10-13 14:36:19.723";"2014-10-13 14:48:52.926";"1";;"1";"0";;"50";"49";"module.training_block1.exec-1439.GoNoGo1";;;;;;;;;;;;;;;;;;;;;;;"1245";"2014-10-13 14:39:22.192";"NST_correctLoc";"33";"0";"FINISHED";"LEFT";"success";"338";"0";"2014-10-13 14:39:20.942";"3";;;;;;;;;;;;;;;;;;;;;;;;;;;;;;;;;;;;;;;;;;;;;;;;;;;;;;;;;
"42ok95";"1995";;"Windows 7";"Rachel's Experiment (D.T.)";"1.0";"2";"1";"1";"2";"2";"2";"2014-10-13 14:36:19.723";"2014-10-13 14:48:52.926";"1";;"1";"0";;"51";"50";"module.training_block1.exec-1439.GoNoGo1";;;;;;;;;;;;;;;;;;;;;;;"1245";"2014-10-13 14:39:24.707";"NST_correctLoc";"19";"0";"FINISHED";"LEFT";"success";"327";"0";"2014-10-13 14:39:23.457";"3";;;;;;;;;;;;;;;;;;;;;;;;;;;;;;;;;;;;;;;;;;;;;;;;;;;;;;;;;
"42ok95";"1995";;"Windows 7";"Rachel's Experiment (D.T.)";"1.0";"2";"1";"1";"2";"2";"2";"2014-10-13 14:36:19.723";"2014-10-13 14:48:52.926";"1";;"1";"0";;"52";"51";"module.training_block2.exec-3574.GoNoGo2";;;;;;;;;;;;;;;;;;;;;;;;;;;;;;;;;;;"1248";"2014-10-13 14:39:35.645";"NST_correctLoc";"6";"0";"FINISHED";"LEFT";"success";"304";"0";"2014-10-13 14:39:34.395";"1";;;;;;;;;;;;;;;;;;;;;;;;;;;;;;;;;;;;;;;;;;;;;
"42ok95";"1995";;"Windows 7";"Rachel's Experiment (D.T.)";"1.0";"2";"1";"1";"2";"2";"2";"2014-10-13 14:36:19.723";"2014-10-13 14:48:52.926";"1";;"1";"0";;"53";"52";"module.training_block2.exec-3574.GoNoGo2";;;;;;;;;;;;;;;;;;;;;;;;;;;;;;;;;;;"1248";"2014-10-13 14:39:38.160";"NST_correctLoc";"14";"1";"FINISHED";"RIGHT";"success";"284";"0";"2014-10-13 14:39:36.910";"2";;;;;;;;;;;;;;;;;;;;;;;;;;;;;;;;;;;;;;;;;;;;;
"42ok95";"1995";;"Windows 7";"Rachel's Experiment (D.T.)";"1.0";"2";"1";"1";"2";"2";"2";"2014-10-13 14:36:19.723";"2014-10-13 14:48:52.926";"1";;"1";"0";;"54";"53";"module.training_block2.exec-3574.GoNoGo2";;;;;;;;;;;;;;;;;;;;;;;;;;;;;;;;;;;"1248";"2014-10-13 14:39:40.676";"NST_correctLoc";"34";"1";"FINISHED";"RIGHT";"success";"313";"0";"2014-10-13 14:39:39.426";"3";;;;;;;;;;;;;;;;;;;;;;;;;;;;;;;;;;;;;;;;;;;;;
"42ok95";"1995";;"Windows 7";"Rachel's Experiment (D.T.)";"1.0";"2";"1";"1";"2";"2";"2";"2014-10-13 14:36:19.723";"2014-10-13 14:48:52.926";"1";;"1";"0";;"55";"54";"module.training_block2.exec-3574.GoNoGo2";;;;;;;;;;;;;;;;;;;;;;;;;;;;;;;;;;;"1248";"2014-10-13 14:39:43.192";"NST_correctLoc";"15";"0";"FINISHED";"LEFT";"success";"309";"0";"2014-10-13 14:39:41.942";"2";;;;;;;;;;;;;;;;;;;;;;;;;;;;;;;;;;;;;;;;;;;;;
"42ok95";"1995";;"Windows 7";"Rachel's Experiment (D.T.)";"1.0";"2";"1";"1";"2";"2";"2";"2014-10-13 14:36:19.723";"2014-10-13 14:48:52.926";"1";;"1";"0";;"56";"55";"module.training_block2.exec-3574.GoNoGo2";;;;;;;;;;;;;;;;;;;;;;;;;;;;;;;;;;;"1248";"2014-10-13 14:39:45.707";"NST_correctLoc";"25";"0";"FINISHED";"LEFT";"success";"289";"0";"2014-10-13 14:39:44.457";"3";;;;;;;;;;;;;;;;;;;;;;;;;;;;;;;;;;;;;;;;;;;;;
"42ok95";"1995";;"Windows 7";"Rachel's Experiment (D.T.)";"1.0";"2";"1";"1";"2";"2";"2";"2014-10-13 14:36:19.723";"2014-10-13 14:48:52.926";"1";;"1";"0";;"57";"56";"module.training_block2.exec-3574.GoNoGo2";;;;;;;;;;;;;;;;;;;;;;;;;;;;;;;;;;;"1248";"2014-10-13 14:39:48.223";"NST_correctLoc";"22";"1";"FINISHED";"RIGHT";"success";"278";"0";"2014-10-13 14:39:46.973";"3";;;;;;;;;;;;;;;;;;;;;;;;;;;;;;;;;;;;;;;;;;;;;
"42ok95";"1995";;"Windows 7";"Rachel's Experiment (D.T.)";"1.0";"2";"1";"1";"2";"2";"2";"2014-10-13 14:36:19.723";"2014-10-13 14:48:52.926";"1";;"1";"0";;"58";"57";"module.training_block2.exec-3574.GoNoGo2";;;;;;;;;;;;;;;;;;;;;;;;;;;;;;;;;;;"1248";"2014-10-13 14:39:50.739";"NST_correctLoc";"1";"0";"FINISHED";"LEFT";"success";"218";"0";"2014-10-13 14:39:49.489";"1";;;;;;;;;;;;;;;;;;;;;;;;;;;;;;;;;;;;;;;;;;;;;
"42ok95";"1995";;"Windows 7";"Rachel's Experiment (D.T.)";"1.0";"2";"1";"1";"2";"2";"2";"2014-10-13 14:36:19.723";"2014-10-13 14:48:52.926";"1";;"1";"0";;"59";"58";"module.training_block2.exec-3574.GoNoGo2";;;;;;;;;;;;;;;;;;;;;;;;;;;;;;;;;;;"1248";"2014-10-13 14:39:53.254";"NST_correctLoc";"35";"1";"FINISHED";"RIGHT";"success";"302";"0";"2014-10-13 14:39:52.004";"3";;;;;;;;;;;;;;;;;;;;;;;;;;;;;;;;;;;;;;;;;;;;;
"42ok95";"1995";;"Windows 7";"Rachel's Experiment (D.T.)";"1.0";"2";"1";"1";"2";"2";"2";"2014-10-13 14:36:19.723";"2014-10-13 14:48:52.926";"1";;"1";"0";;"60";"59";"module.training_block2.exec-3574.GoNoGo2";;;;;;;;;;;;;;;;;;;;;;;;;;;;;;;;;;;"1248";"2014-10-13 14:39:55.770";"NST_correctLoc";"10";"1";"FINISHED";"RIGHT";"success";"291";"0";"2014-10-13 14:39:54.520";"2";;;;;;;;;;;;;;;;;;;;;;;;;;;;;;;;;;;;;;;;;;;;;
"42ok95";"1995";;"Windows 7";"Rachel's Experiment (D.T.)";"1.0";"2";"1";"1";"2";"2";"2";"2014-10-13 14:36:19.723";"2014-10-13 14:48:52.926";"1";;"1";"0";;"61";"60";"module.training_block2.exec-3574.GoNoGo2";;;;;;;;;;;;;;;;;;;;;;;;;;;;;;;;;;;"1248";"2014-10-13 14:39:58.285";"NST_correctLoc";"3";"1";"FINISHED";"RIGHT";"success";"327";"0";"2014-10-13 14:39:57.035";"1";;;;;;;;;;;;;;;;;;;;;;;;;;;;;;;;;;;;;;;;;;;;;
"42ok95";"1995";;"Windows 7";"Rachel's Experiment (D.T.)";"1.0";"2";"1";"1";"2";"2";"2";"2014-10-13 14:36:19.723";"2014-10-13 14:48:52.926";"1";;"1";"0";;"62";"61";"module.training_block2.exec-3574.GoNoGo2";;;;;;;;;;;;;;;;;;;;;;;;;;;;;;;;;;;"1248";"2014-10-13 14:40:00.801";"NST_correctLoc";"7";"0";"FINISHED";"LEFT";"success";"307";"0";"2014-10-13 14:39:59.551";"1";;;;;;;;;;;;;;;;;;;;;;;;;;;;;;;;;;;;;;;;;;;;;
"42ok95";"1995";;"Windows 7";"Rachel's Experiment (D.T.)";"1.0";"2";"1";"1";"2";"2";"2";"2014-10-13 14:36:19.723";"2014-10-13 14:48:52.926";"1";;"1";"0";;"63";"62";"module.training_block2.exec-3574.GoNoGo2";;;;;;;;;;;;;;;;;;;;;;;;;;;;;;;;;;;"1248";"2014-10-13 14:40:03.317";"NST_correctLoc";"18";"1";"FINISHED";"RIGHT";"success";"288";"0";"2014-10-13 14:40:02.067";"3";;;;;;;;;;;;;;;;;;;;;;;;;;;;;;;;;;;;;;;;;;;;;
"42ok95";"1995";;"Windows 7";"Rachel's Experiment (D.T.)";"1.0";"2";"1";"1";"2";"2";"2";"2014-10-13 14:36:19.723";"2014-10-13 14:48:52.926";"1";;"1";"0";;"64";"63";"module.training_block2.exec-3574.GoNoGo2";;;;;;;;;;;;;;;;;;;;;;;;;;;;;;;;;;;"1248";"2014-10-13 14:40:05.832";"NST_correctLoc";"21";"1";"FINISHED";"RIGHT";"success";"332";"0";"2014-10-13 14:40:04.582";"3";;;;;;;;;;;;;;;;;;;;;;;;;;;;;;;;;;;;;;;;;;;;;
"42ok95";"1995";;"Windows 7";"Rachel's Experiment (D.T.)";"1.0";"2";"1";"1";"2";"2";"2";"2014-10-13 14:36:19.723";"2014-10-13 14:48:52.926";"1";;"1";"0";;"65";"64";"module.training_block2.exec-3574.GoNoGo2";;;;;;;;;;;;;;;;;;;;;;;;;;;;;;;;;;;"1248";"2014-10-13 14:40:08.348";"NST_correctLoc";"23";"0";"FINISHED";"LEFT";"success";"304";"0";"2014-10-13 14:40:07.098";"3";;;;;;;;;;;;;;;;;;;;;;;;;;;;;;;;;;;;;;;;;;;;;
"42ok95";"1995";;"Windows 7";"Rachel's Experiment (D.T.)";"1.0";"2";"1";"1";"2";"2";"2";"2014-10-13 14:36:19.723";"2014-10-13 14:48:52.926";"1";;"1";"0";;"66";"65";"module.training_block2.exec-3574.GoNoGo2";;;;;;;;;;;;;;;;;;;;;;;;;;;;;;;;;;;"1248";"2014-10-13 14:40:10.864";"NST_correctLoc";"27";"0";"FINISHED";"LEFT";"success";"325";"0";"2014-10-13 14:40:09.614";"3";;;;;;;;;;;;;;;;;;;;;;;;;;;;;;;;;;;;;;;;;;;;;
"42ok95";"1995";;"Windows 7";"Rachel's Experiment (D.T.)";"1.0";"2";"1";"1";"2";"2";"2";"2014-10-13 14:36:19.723";"2014-10-13 14:48:52.926";"1";;"1";"0";;"67";"66";"module.training_block2.exec-3574.GoNoGo2";;;;;;;;;;;;;;;;;;;;;;;;;;;;;;;;;;;"1248";"2014-10-13 14:40:13.379";"NST_correctLoc";"28";"0";"FINISHED";"LEFT";"success";"305";"0";"2014-10-13 14:40:12.129";"3";;;;;;;;;;;;;;;;;;;;;;;;;;;;;;;;;;;;;;;;;;;;;
"42ok95";"1995";;"Windows 7";"Rachel's Experiment (D.T.)";"1.0";"2";"1";"1";"2";"2";"2";"2014-10-13 14:36:19.723";"2014-10-13 14:48:52.926";"1";;"1";"0";;"68";"67";"module.training_block2.exec-3574.GoNoGo2";;;;;;;;;;;;;;;;;;;;;;;;;;;;;;;;;;;"1248";"2014-10-13 14:40:15.895";"NST_correctLoc";"9";"0";"FINISHED";"LEFT";"success";"301";"0";"2014-10-13 14:40:14.645";"2";;;;;;;;;;;;;;;;;;;;;;;;;;;;;;;;;;;;;;;;;;;;;
"42ok95";"1995";;"Windows 7";"Rachel's Experiment (D.T.)";"1.0";"2";"1";"1";"2";"2";"2";"2014-10-13 14:36:19.723";"2014-10-13 14:48:52.926";"1";;"1";"0";;"69";"68";"module.training_block2.exec-3574.GoNoGo2";;;;;;;;;;;;;;;;;;;;;;;;;;;;;;;;;;;"1248";"2014-10-13 14:40:18.410";"NST_correctLoc";"16";"1";"FINISHED";"RIGHT";"success";"314";"0";"2014-10-13 14:40:17.160";"2";;;;;;;;;;;;;;;;;;;;;;;;;;;;;;;;;;;;;;;;;;;;;
"42ok95";"1995";;"Windows 7";"Rachel's Experiment (D.T.)";"1.0";"2";"1";"1";"2";"2";"2";"2014-10-13 14:36:19.723";"2014-10-13 14:48:52.926";"1";;"1";"0";;"70";"69";"module.training_block2.exec-3574.GoNoGo2";;;;;;;;;;;;;;;;;;;;;;;;;;;;;;;;;;;"1248";"2014-10-13 14:40:20.926";"NST_correctLoc";"24";"1";"FINISHED";"RIGHT";"success";"382";"0";"2014-10-13 14:40:19.676";"3";;;;;;;;;;;;;;;;;;;;;;;;;;;;;;;;;;;;;;;;;;;;;
"42ok95";"1995";;"Windows 7";"Rachel's Experiment (D.T.)";"1.0";"2";"1";"1";"2";"2";"2";"2014-10-13 14:36:19.723";"2014-10-13 14:48:52.926";"1";;"1";"0";;"71";"70";"module.training_block2.exec-3574.GoNoGo2";;;;;;;;;;;;;;;;;;;;;;;;;;;;;;;;;;;"1248";"2014-10-13 14:40:23.442";"NST_correctLoc";"0";"0";"FINISHED";"LEFT";"success";"306";"0";"2014-10-13 14:40:22.192";"1";;;;;;;;;;;;;;;;;;;;;;;;;;;;;;;;;;;;;;;;;;;;;
"42ok95";"1995";;"Windows 7";"Rachel's Experiment (D.T.)";"1.0";"2";"1";"1";"2";"2";"2";"2014-10-13 14:36:19.723";"2014-10-13 14:48:52.926";"1";;"1";"0";;"72";"71";"module.training_block2.exec-3574.GoNoGo2";;;;;;;;;;;;;;;;;;;;;;;;;;;;;;;;;;;"1248";"2014-10-13 14:40:25.957";"NST_correctLoc";"17";"0";"FINISHED";"LEFT";"success";"871";"0";"2014-10-13 14:40:24.707";"2";;;;;;;;;;;;;;;;;;;;;;;;;;;;;;;;;;;;;;;;;;;;;
"42ok95";"1995";;"Windows 7";"Rachel's Experiment (D.T.)";"1.0";"2";"1";"1";"2";"2";"2";"2014-10-13 14:36:19.723";"2014-10-13 14:48:52.926";"1";;"1";"0";;"73";"72";"module.training_block2.exec-3574.GoNoGo2";;;;;;;;;;;;;;;;;;;;;;;;;;;;;;;;;;;"1248";"2014-10-13 14:40:28.473";"NST_correctLoc";"32";"1";"FINISHED";"RIGHT";"success";"395";"0";"2014-10-13 14:40:27.223";"3";;;;;;;;;;;;;;;;;;;;;;;;;;;;;;;;;;;;;;;;;;;;;
"42ok95";"1995";;"Windows 7";"Rachel's Experiment (D.T.)";"1.0";"2";"1";"1";"2";"2";"2";"2014-10-13 14:36:19.723";"2014-10-13 14:48:52.926";"1";;"1";"0";;"74";"73";"module.training_block2.exec-3574.GoNoGo2";;;;;;;;;;;;;;;;;;;;;;;;;;;;;;;;;;;"1248";"2014-10-13 14:40:30.989";"NST_correctLoc";"19";"1";"FINISHED";"RIGHT";"success";"335";"0";"2014-10-13 14:40:29.739";"3";;;;;;;;;;;;;;;;;;;;;;;;;;;;;;;;;;;;;;;;;;;;;
"42ok95";"1995";;"Windows 7";"Rachel's Experiment (D.T.)";"1.0";"2";"1";"1";"2";"2";"2";"2014-10-13 14:36:19.723";"2014-10-13 14:48:52.926";"1";;"1";"0";;"75";"74";"module.training_block2.exec-3574.GoNoGo2";;;;;;;;;;;;;;;;;;;;;;;;;;;;;;;;;;;"1248";"2014-10-13 14:40:33.504";"NST_correctLoc";"33";"0";"FINISHED";"LEFT";"success";"308";"0";"2014-10-13 14:40:32.254";"3";;;;;;;;;;;;;;;;;;;;;;;;;;;;;;;;;;;;;;;;;;;;;
"42ok95";"1995";;"Windows 7";"Rachel's Experiment (D.T.)";"1.0";"2";"1";"1";"2";"2";"2";"2014-10-13 14:36:19.723";"2014-10-13 14:48:52.926";"1";;"1";"0";;"76";"75";"module.training_block2.exec-3574.GoNoGo2";;;;;;;;;;;;;;;;;;;;;;;;;;;;;;;;;;;"1248";"2014-10-13 14:40:36.020";"NST_correctLoc";"2";"1";"FINISHED";"RIGHT";"success";"336";"0";"2014-10-13 14:40:34.770";"1";;;;;;;;;;;;;;;;;;;;;;;;;;;;;;;;;;;;;;;;;;;;;
"42ok95";"1995";;"Windows 7";"Rachel's Experiment (D.T.)";"1.0";"2";"1";"1";"2";"2";"2";"2014-10-13 14:36:19.723";"2014-10-13 14:48:52.926";"1";;"1";"0";;"77";"76";"module.training_block2.exec-3574.GoNoGo2";;;;;;;;;;;;;;;;;;;;;;;;;;;;;;;;;;;"1248";"2014-10-13 14:40:38.535";"NST_correctLoc";"12";"0";"FINISHED";"LEFT";"success";"308";"0";"2014-10-13 14:40:37.285";"2";;;;;;;;;;;;;;;;;;;;;;;;;;;;;;;;;;;;;;;;;;;;;
"42ok95";"1995";;"Windows 7";"Rachel's Experiment (D.T.)";"1.0";"2";"1";"1";"2";"2";"2";"2014-10-13 14:36:19.723";"2014-10-13 14:48:52.926";"1";;"1";"0";;"78";"77";"module.training_block2.exec-3574.GoNoGo2";;;;;;;;;;;;;;;;;;;;;;;;;;;;;;;;;;;"1242";"2014-10-13 14:40:41.051";"NST_correctLoc";"8";"0";"FINISHED";"LEFT";"success";"347";"0";"2014-10-13 14:40:39.801";"1";;;;;;;;;;;;;;;;;;;;;;;;;;;;;;;;;;;;;;;;;;;;;
"42ok95";"1995";;"Windows 7";"Rachel's Experiment (D.T.)";"1.0";"2";"1";"1";"2";"2";"2";"2014-10-13 14:36:19.723";"2014-10-13 14:48:52.926";"1";;"1";"0";;"79";"78";"module.training_block2.exec-3574.GoNoGo2";;;;;;;;;;;;;;;;;;;;;;;;;;;;;;;;;;;"1248";"2014-10-13 14:40:43.567";"NST_correctLoc";"20";"1";"FINISHED";"RIGHT";"success";"437";"0";"2014-10-13 14:40:42.317";"3";;;;;;;;;;;;;;;;;;;;;;;;;;;;;;;;;;;;;;;;;;;;;
"42ok95";"1995";;"Windows 7";"Rachel's Experiment (D.T.)";"1.0";"2";"1";"1";"2";"2";"2";"2014-10-13 14:36:19.723";"2014-10-13 14:48:52.926";"1";;"1";"0";;"80";"79";"module.training_block2.exec-3574.GoNoGo2";;;;;;;;;;;;;;;;;;;;;;;;;;;;;;;;;;;"1248";"2014-10-13 14:40:46.082";"NST_correctLoc";"30";"0";"FINISHED";"LEFT";"success";"338";"0";"2014-10-13 14:40:44.832";"3";;;;;;;;;;;;;;;;;;;;;;;;;;;;;;;;;;;;;;;;;;;;;
"42ok95";"1995";;"Windows 7";"Rachel's Experiment (D.T.)";"1.0";"2";"1";"1";"2";"2";"2";"2014-10-13 14:36:19.723";"2014-10-13 14:48:52.926";"1";;"1";"0";;"81";"80";"module.training_block2.exec-3574.GoNoGo2";;;;;;;;;;;;;;;;;;;;;;;;;;;;;;;;;;;"1248";"2014-10-13 14:40:48.598";"NST_correctLoc";"31";"0";"FINISHED";"LEFT";"success";"334";"0";"2014-10-13 14:40:47.348";"3";;;;;;;;;;;;;;;;;;;;;;;;;;;;;;;;;;;;;;;;;;;;;
"42ok95";"1995";;"Windows 7";"Rachel's Experiment (D.T.)";"1.0";"2";"1";"1";"2";"2";"2";"2014-10-13 14:36:19.723";"2014-10-13 14:48:52.926";"1";;"1";"0";;"82";"81";"module.training_block2.exec-3574.GoNoGo2";;;;;;;;;;;;;;;;;;;;;;;;;;;;;;;;;;;"1248";"2014-10-13 14:40:51.114";"NST_correctLoc";"29";"0";"FINISHED";"LEFT";"success";"282";"0";"2014-10-13 14:40:49.864";"3";;;;;;;;;;;;;;;;;;;;;;;;;;;;;;;;;;;;;;;;;;;;;
"42ok95";"1995";;"Windows 7";"Rachel's Experiment (D.T.)";"1.0";"2";"1";"1";"2";"2";"2";"2014-10-13 14:36:19.723";"2014-10-13 14:48:52.926";"1";;"1";"0";;"83";"82";"module.training_block2.exec-3574.GoNoGo2";;;;;;;;;;;;;;;;;;;;;;;;;;;;;;;;;;;"1248";"2014-10-13 14:40:53.629";"NST_correctLoc";"5";"1";"FINISHED";"RIGHT";"success";"335";"0";"2014-10-13 14:40:52.379";"1";;;;;;;;;;;;;;;;;;;;;;;;;;;;;;;;;;;;;;;;;;;;;
"42ok95";"1995";;"Windows 7";"Rachel's Experiment (D.T.)";"1.0";"2";"1";"1";"2";"2";"2";"2014-10-13 14:36:19.723";"2014-10-13 14:48:52.926";"1";;"1";"0";;"84";"83";"module.training_block2.exec-3574.GoNoGo2";;;;;;;;;;;;;;;;;;;;;;;;;;;;;;;;;;;"1248";"2014-10-13 14:40:56.145";"NST_correctLoc";"4";"0";"FINISHED";"LEFT";"success";"243";"0";"2014-10-13 14:40:54.895";"1";;;;;;;;;;;;;;;;;;;;;;;;;;;;;;;;;;;;;;;;;;;;;
"42ok95";"1995";;"Windows 7";"Rachel's Experiment (D.T.)";"1.0";"2";"1";"1";"2";"2";"2";"2014-10-13 14:36:19.723";"2014-10-13 14:48:52.926";"1";;"1";"0";;"85";"84";"module.training_block2.exec-3574.GoNoGo2";;;;;;;;;;;;;;;;;;;;;;;;;;;;;;;;;;;"1248";"2014-10-13 14:40:58.660";"NST_correctLoc";"13";"0";"FINISHED";"LEFT";"success";"335";"0";"2014-10-13 14:40:57.410";"2";;;;;;;;;;;;;;;;;;;;;;;;;;;;;;;;;;;;;;;;;;;;;
"42ok95";"1995";;"Windows 7";"Rachel's Experiment (D.T.)";"1.0";"2";"1";"1";"2";"2";"2";"2014-10-13 14:36:19.723";"2014-10-13 14:48:52.926";"1";;"1";"0";;"86";"85";"module.training_block2.exec-3574.GoNoGo2";;;;;;;;;;;;;;;;;;;;;;;;;;;;;;;;;;;"1248";"2014-10-13 14:41:01.176";"NST_correctLoc";"11";"0";"FINISHED";"LEFT";"success";"388";"0";"2014-10-13 14:40:59.926";"2";;;;;;;;;;;;;;;;;;;;;;;;;;;;;;;;;;;;;;;;;;;;;
"42ok95";"1995";;"Windows 7";"Rachel's Experiment (D.T.)";"1.0";"2";"1";"1";"2";"2";"2";"2014-10-13 14:36:19.723";"2014-10-13 14:48:52.926";"1";;"1";"0";;"87";"86";"module.training_block2.exec-3574.GoNoGo2";;;;;;;;;;;;;;;;;;;;;;;;;;;;;;;;;;;"1248";"2014-10-13 14:41:03.692";"NST_correctLoc";"26";"1";"FINISHED";"RIGHT";"success";"320";"0";"2014-10-13 14:41:02.442";"3";;;;;;;;;;;;;;;;;;;;;;;;;;;;;;;;;;;;;;;;;;;;;
"42ok95";"1995";;"Windows 7";"Rachel's Experiment (D.T.)";"1.0";"2";"1";"1";"2";"2";"2";"2014-10-13 14:36:19.723";"2014-10-13 14:48:52.926";"1";;"1";"0";;"88";"87";"module.training_block3.exec-6238.GoNoGo3";;;;;;;;;;;;;;;;;;;;;;;;;;;;;;;;;;;;;;;;;;;;;;;"1248";"2014-10-13 14:41:14.739";"NST_correctLoc";"11";"0";"FINISHED";"LEFT";"success";"369";"0";"2014-10-13 14:41:13.489";"2";;;;;;;;;;;;;;;;;;;;;;;;;;;;;;;;;
"42ok95";"1995";;"Windows 7";"Rachel's Experiment (D.T.)";"1.0";"2";"1";"1";"2";"2";"2";"2014-10-13 14:36:19.723";"2014-10-13 14:48:52.926";"1";;"1";"0";;"89";"88";"module.training_block3.exec-6238.GoNoGo3";;;;;;;;;;;;;;;;;;;;;;;;;;;;;;;;;;;;;;;;;;;;;;;"1248";"2014-10-13 14:41:17.254";"NST_correctLoc";"19";"0";"FINISHED";"LEFT";"success";"805";"0";"2014-10-13 14:41:16.004";"3";;;;;;;;;;;;;;;;;;;;;;;;;;;;;;;;;
"42ok95";"1995";;"Windows 7";"Rachel's Experiment (D.T.)";"1.0";"2";"1";"1";"2";"2";"2";"2014-10-13 14:36:19.723";"2014-10-13 14:48:52.926";"1";;"1";"0";;"90";"89";"module.training_block3.exec-6238.GoNoGo3";;;;;;;;;;;;;;;;;;;;;;;;;;;;;;;;;;;;;;;;;;;;;;;"1248";"2014-10-13 14:41:19.770";"NST_correctLoc";"6";"0";"FINISHED";"LEFT";"success";"401";"0";"2014-10-13 14:41:18.520";"1";;;;;;;;;;;;;;;;;;;;;;;;;;;;;;;;;
"42ok95";"1995";;"Windows 7";"Rachel's Experiment (D.T.)";"1.0";"2";"1";"1";"2";"2";"2";"2014-10-13 14:36:19.723";"2014-10-13 14:48:52.926";"1";;"1";"0";;"91";"90";"module.training_block3.exec-6238.GoNoGo3";;;;;;;;;;;;;;;;;;;;;;;;;;;;;;;;;;;;;;;;;;;;;;;"1248";"2014-10-13 14:41:22.285";"NST_correctLoc";"25";"0";"FINISHED";"LEFT";"success";"638";"0";"2014-10-13 14:41:21.035";"3";;;;;;;;;;;;;;;;;;;;;;;;;;;;;;;;;
"42ok95";"1995";;"Windows 7";"Rachel's Experiment (D.T.)";"1.0";"2";"1";"1";"2";"2";"2";"2014-10-13 14:36:19.723";"2014-10-13 14:48:52.926";"1";;"1";"0";;"92";"91";"module.training_block3.exec-6238.GoNoGo3";;;;;;;;;;;;;;;;;;;;;;;;;;;;;;;;;;;;;;;;;;;;;;;"1248";"2014-10-13 14:41:24.801";"NST_correctLoc";"18";"1";"FINISHED";"RIGHT";"success";"1122";"0";"2014-10-13 14:41:23.551";"3";;;;;;;;;;;;;;;;;;;;;;;;;;;;;;;;;
"42ok95";"1995";;"Windows 7";"Rachel's Experiment (D.T.)";"1.0";"2";"1";"1";"2";"2";"2";"2014-10-13 14:36:19.723";"2014-10-13 14:48:52.926";"1";;"1";"0";;"93";"92";"module.training_block3.exec-6238.GoNoGo3";;;;;;;;;;;;;;;;;;;;;;;;;;;;;;;;;;;;;;;;;;;;;;;"1248";"2014-10-13 14:41:27.317";"NST_correctLoc";"13";"1";"FINISHED";"RIGHT";"success";"775";"0";"2014-10-13 14:41:26.067";"2";;;;;;;;;;;;;;;;;;;;;;;;;;;;;;;;;
"42ok95";"1995";;"Windows 7";"Rachel's Experiment (D.T.)";"1.0";"2";"1";"1";"2";"2";"2";"2014-10-13 14:36:19.723";"2014-10-13 14:48:52.926";"1";;"1";"0";;"94";"93";"module.training_block3.exec-6238.GoNoGo3";;;;;;;;;;;;;;;;;;;;;;;;;;;;;;;;;;;;;;;;;;;;;;;"1248";"2014-10-13 14:41:29.832";"NST_correctLoc";"24";"1";"FINISHED";"RIGHT";"success";"971";"0";"2014-10-13 14:41:28.582";"3";;;;;;;;;;;;;;;;;;;;;;;;;;;;;;;;;
"42ok95";"1995";;"Windows 7";"Rachel's Experiment (D.T.)";"1.0";"2";"1";"1";"2";"2";"2";"2014-10-13 14:36:19.723";"2014-10-13 14:48:52.926";"1";;"1";"0";;"95";"94";"module.training_block3.exec-6238.GoNoGo3";;;;;;;;;;;;;;;;;;;;;;;;;;;;;;;;;;;;;;;;;;;;;;;"1248";"2014-10-13 14:41:32.348";"NST_correctLoc";"15";"0";"FINISHED";"LEFT";"success";"447";"0";"2014-10-13 14:41:31.098";"2";;;;;;;;;;;;;;;;;;;;;;;;;;;;;;;;;
"42ok95";"1995";;"Windows 7";"Rachel's Experiment (D.T.)";"1.0";"2";"1";"1";"2";"2";"2";"2014-10-13 14:36:19.723";"2014-10-13 14:48:52.926";"1";;"1";"0";;"96";"95";"module.training_block3.exec-6238.GoNoGo3";;;;;;;;;;;;;;;;;;;;;;;;;;;;;;;;;;;;;;;;;;;;;;;"1248";"2014-10-13 14:41:34.864";"NST_correctLoc";"32";"0";"FINISHED";"LEFT";"success";"476";"0";"2014-10-13 14:41:33.614";"3";;;;;;;;;;;;;;;;;;;;;;;;;;;;;;;;;
"42ok95";"1995";;"Windows 7";"Rachel's Experiment (D.T.)";"1.0";"2";"1";"1";"2";"2";"2";"2014-10-13 14:36:19.723";"2014-10-13 14:48:52.926";"1";;"1";"0";;"97";"96";"module.training_block3.exec-6238.GoNoGo3";;;;;;;;;;;;;;;;;;;;;;;;;;;;;;;;;;;;;;;;;;;;;;;"1248";"2014-10-13 14:41:37.379";"NST_correctLoc";"10";"0";"FINISHED";"LEFT";"success";"336";"0";"2014-10-13 14:41:36.129";"2";;;;;;;;;;;;;;;;;;;;;;;;;;;;;;;;;
"42ok95";"1995";;"Windows 7";"Rachel's Experiment (D.T.)";"1.0";"2";"1";"1";"2";"2";"2";"2014-10-13 14:36:19.723";"2014-10-13 14:48:52.926";"1";;"1";"0";;"98";"97";"module.training_block3.exec-6238.GoNoGo3";;;;;;;;;;;;;;;;;;;;;;;;;;;;;;;;;;;;;;;;;;;;;;;"1248";"2014-10-13 14:41:39.895";"NST_correctLoc";"14";"1";"FINISHED";"RIGHT";"success";"364";"0";"2014-10-13 14:41:38.645";"2";;;;;;;;;;;;;;;;;;;;;;;;;;;;;;;;;
"42ok95";"1995";;"Windows 7";"Rachel's Experiment (D.T.)";"1.0";"2";"1";"1";"2";"2";"2";"2014-10-13 14:36:19.723";"2014-10-13 14:48:52.926";"1";;"1";"0";;"99";"98";"module.training_block3.exec-6238.GoNoGo3";;;;;;;;;;;;;;;;;;;;;;;;;;;;;;;;;;;;;;;;;;;;;;;"1248";"2014-10-13 14:41:42.410";"NST_correctLoc";"1";"0";"FINISHED";"LEFT";"success";"385";"0";"2014-10-13 14:41:41.160";"1";;;;;;;;;;;;;;;;;;;;;;;;;;;;;;;;;
"42ok95";"1995";;"Windows 7";"Rachel's Experiment (D.T.)";"1.0";"2";"1";"1";"2";"2";"2";"2014-10-13 14:36:19.723";"2014-10-13 14:48:52.926";"1";;"1";"0";;"100";"99";"module.training_block3.exec-6238.GoNoGo3";;;;;;;;;;;;;;;;;;;;;;;;;;;;;;;;;;;;;;;;;;;;;;;"1248";"2014-10-13 14:41:44.926";"NST_correctLoc";"23";"1";"FINISHED";"RIGHT";"success";"301";"0";"2014-10-13 14:41:43.676";"3";;;;;;;;;;;;;;;;;;;;;;;;;;;;;;;;;
"42ok95";"1995";;"Windows 7";"Rachel's Experiment (D.T.)";"1.0";"2";"1";"1";"2";"2";"2";"2014-10-13 14:36:19.723";"2014-10-13 14:48:52.926";"1";;"1";"0";;"101";"100";"module.training_block3.exec-6238.GoNoGo3";;;;;;;;;;;;;;;;;;;;;;;;;;;;;;;;;;;;;;;;;;;;;;;"1248";"2014-10-13 14:41:47.442";"NST_correctLoc";"7";"1";"FINISHED";"RIGHT";"success";"361";"0";"2014-10-13 14:41:46.192";"1";;;;;;;;;;;;;;;;;;;;;;;;;;;;;;;;;
"42ok95";"1995";;"Windows 7";"Rachel's Experiment (D.T.)";"1.0";"2";"1";"1";"2";"2";"2";"2014-10-13 14:36:19.723";"2014-10-13 14:48:52.926";"1";;"1";"0";;"102";"101";"module.training_block3.exec-6238.GoNoGo3";;;;;;;;;;;;;;;;;;;;;;;;;;;;;;;;;;;;;;;;;;;;;;;"1248";"2014-10-13 14:41:49.957";"NST_correctLoc";"5";"1";"FINISHED";"RIGHT";"success";"326";"0";"2014-10-13 14:41:48.707";"1";;;;;;;;;;;;;;;;;;;;;;;;;;;;;;;;;
"42ok95";"1995";;"Windows 7";"Rachel's Experiment (D.T.)";"1.0";"2";"1";"1";"2";"2";"2";"2014-10-13 14:36:19.723";"2014-10-13 14:48:52.926";"1";;"1";"0";;"103";"102";"module.training_block3.exec-6238.GoNoGo3";;;;;;;;;;;;;;;;;;;;;;;;;;;;;;;;;;;;;;;;;;;;;;;"1248";"2014-10-13 14:41:52.473";"NST_correctLoc";"30";"1";"FINISHED";"RIGHT";"success";"370";"0";"2014-10-13 14:41:51.223";"3";;;;;;;;;;;;;;;;;;;;;;;;;;;;;;;;;
"42ok95";"1995";;"Windows 7";"Rachel's Experiment (D.T.)";"1.0";"2";"1";"1";"2";"2";"2";"2014-10-13 14:36:19.723";"2014-10-13 14:48:52.926";"1";;"1";"0";;"104";"103";"module.training_block3.exec-6238.GoNoGo3";;;;;;;;;;;;;;;;;;;;;;;;;;;;;;;;;;;;;;;;;;;;;;;"1248";"2014-10-13 14:41:54.989";"NST_correctLoc";"4";"1";"FINISHED";"RIGHT";"success";"326";"0";"2014-10-13 14:41:53.739";"1";;;;;;;;;;;;;;;;;;;;;;;;;;;;;;;;;
"42ok95";"1995";;"Windows 7";"Rachel's Experiment (D.T.)";"1.0";"2";"1";"1";"2";"2";"2";"2014-10-13 14:36:19.723";"2014-10-13 14:48:52.926";"1";;"1";"0";;"105";"104";"module.training_block3.exec-6238.GoNoGo3";;;;;;;;;;;;;;;;;;;;;;;;;;;;;;;;;;;;;;;;;;;;;;;"1248";"2014-10-13 14:41:57.504";"NST_correctLoc";"3";"0";"FINISHED";"LEFT";"success";"363";"0";"2014-10-13 14:41:56.254";"1";;;;;;;;;;;;;;;;;;;;;;;;;;;;;;;;;
"42ok95";"1995";;"Windows 7";"Rachel's Experiment (D.T.)";"1.0";"2";"1";"1";"2";"2";"2";"2014-10-13 14:36:19.723";"2014-10-13 14:48:52.926";"1";;"1";"0";;"106";"105";"module.training_block3.exec-6238.GoNoGo3";;;;;;;;;;;;;;;;;;;;;;;;;;;;;;;;;;;;;;;;;;;;;;;"1248";"2014-10-13 14:42:00.020";"NST_correctLoc";"22";"0";"FINISHED";"LEFT";"success";"335";"0";"2014-10-13 14:41:58.770";"3";;;;;;;;;;;;;;;;;;;;;;;;;;;;;;;;;
"42ok95";"1995";;"Windows 7";"Rachel's Experiment (D.T.)";"1.0";"2";"1";"1";"2";"2";"2";"2014-10-13 14:36:19.723";"2014-10-13 14:48:52.926";"1";;"1";"0";;"107";"106";"module.training_block3.exec-6238.GoNoGo3";;;;;;;;;;;;;;;;;;;;;;;;;;;;;;;;;;;;;;;;;;;;;;;"1248";"2014-10-13 14:42:02.535";"NST_correctLoc";"31";"1";"FINISHED";"RIGHT";"success";"395";"0";"2014-10-13 14:42:01.285";"3";;;;;;;;;;;;;;;;;;;;;;;;;;;;;;;;;
"42ok95";"1995";;"Windows 7";"Rachel's Experiment (D.T.)";"1.0";"2";"1";"1";"2";"2";"2";"2014-10-13 14:36:19.723";"2014-10-13 14:48:52.926";"1";;"1";"0";;"108";"107";"module.training_block3.exec-6238.GoNoGo3";;;;;;;;;;;;;;;;;;;;;;;;;;;;;;;;;;;;;;;;;;;;;;;"1248";"2014-10-13 14:42:05.051";"NST_correctLoc";"0";"1";"FINISHED";"RIGHT";"success";"568";"0";"2014-10-13 14:42:03.801";"1";;;;;;;;;;;;;;;;;;;;;;;;;;;;;;;;;
"42ok95";"1995";;"Windows 7";"Rachel's Experiment (D.T.)";"1.0";"2";"1";"1";"2";"2";"2";"2014-10-13 14:36:19.723";"2014-10-13 14:48:52.926";"1";;"1";"0";;"109";"108";"module.training_block3.exec-6238.GoNoGo3";;;;;;;;;;;;;;;;;;;;;;;;;;;;;;;;;;;;;;;;;;;;;;;"1248";"2014-10-13 14:42:07.567";"NST_correctLoc";"21";"1";"FINISHED";"RIGHT";"success";"428";"0";"2014-10-13 14:42:06.317";"3";;;;;;;;;;;;;;;;;;;;;;;;;;;;;;;;;
"42ok95";"1995";;"Windows 7";"Rachel's Experiment (D.T.)";"1.0";"2";"1";"1";"2";"2";"2";"2014-10-13 14:36:19.723";"2014-10-13 14:48:52.926";"1";;"1";"0";;"110";"109";"module.training_block3.exec-6238.GoNoGo3";;;;;;;;;;;;;;;;;;;;;;;;;;;;;;;;;;;;;;;;;;;;;;;"1248";"2014-10-13 14:42:10.082";"NST_correctLoc";"17";"0";"FINISHED";"LEFT";"success";"400";"0";"2014-10-13 14:42:08.832";"2";;;;;;;;;;;;;;;;;;;;;;;;;;;;;;;;;
"42ok95";"1995";;"Windows 7";"Rachel's Experiment (D.T.)";"1.0";"2";"1";"1";"2";"2";"2";"2014-10-13 14:36:19.723";"2014-10-13 14:48:52.926";"1";;"1";"0";;"111";"110";"module.training_block3.exec-6238.GoNoGo3";;;;;;;;;;;;;;;;;;;;;;;;;;;;;;;;;;;;;;;;;;;;;;;"1248";"2014-10-13 14:42:12.582";"NST_correctLoc";"9";"1";"FINISHED";"RIGHT";"success";"740";"0";"2014-10-13 14:42:11.332";"2";;;;;;;;;;;;;;;;;;;;;;;;;;;;;;;;;
"42ok95";"1995";;"Windows 7";"Rachel's Experiment (D.T.)";"1.0";"2";"1";"1";"2";"2";"2";"2014-10-13 14:36:19.723";"2014-10-13 14:48:52.926";"1";;"1";"0";;"112";"111";"module.training_block3.exec-6238.GoNoGo3";;;;;;;;;;;;;;;;;;;;;;;;;;;;;;;;;;;;;;;;;;;;;;;"1248";"2014-10-13 14:42:15.082";"NST_correctLoc";"20";"1";"FINISHED";"RIGHT";"success";"536";"0";"2014-10-13 14:42:13.832";"3";;;;;;;;;;;;;;;;;;;;;;;;;;;;;;;;;
"42ok95";"1995";;"Windows 7";"Rachel's Experiment (D.T.)";"1.0";"2";"1";"1";"2";"2";"2";"2014-10-13 14:36:19.723";"2014-10-13 14:48:52.926";"1";;"1";"0";;"113";"112";"module.training_block3.exec-6238.GoNoGo3";;;;;;;;;;;;;;;;;;;;;;;;;;;;;;;;;;;;;;;;;;;;;;;"1248";"2014-10-13 14:42:17.582";"NST_correctLoc";"28";"1";"FINISHED";"RIGHT";"success";"436";"0";"2014-10-13 14:42:16.332";"3";;;;;;;;;;;;;;;;;;;;;;;;;;;;;;;;;
"42ok95";"1995";;"Windows 7";"Rachel's Experiment (D.T.)";"1.0";"2";"1";"1";"2";"2";"2";"2014-10-13 14:36:19.723";"2014-10-13 14:48:52.926";"1";;"1";"0";;"114";"113";"module.training_block3.exec-6238.GoNoGo3";;;;;;;;;;;;;;;;;;;;;;;;;;;;;;;;;;;;;;;;;;;;;;;"1248";"2014-10-13 14:42:20.098";"NST_correctLoc";"35";"1";"FINISHED";"RIGHT";"success";"569";"0";"2014-10-13 14:42:18.848";"3";;;;;;;;;;;;;;;;;;;;;;;;;;;;;;;;;
"42ok95";"1995";;"Windows 7";"Rachel's Experiment (D.T.)";"1.0";"2";"1";"1";"2";"2";"2";"2014-10-13 14:36:19.723";"2014-10-13 14:48:52.926";"1";;"1";"0";;"115";"114";"module.training_block3.exec-6238.GoNoGo3";;;;;;;;;;;;;;;;;;;;;;;;;;;;;;;;;;;;;;;;;;;;;;;"1248";"2014-10-13 14:42:22.598";"NST_correctLoc";"29";"1";"FINISHED";"RIGHT";"success";"468";"0";"2014-10-13 14:42:21.348";"3";;;;;;;;;;;;;;;;;;;;;;;;;;;;;;;;;
"42ok95";"1995";;"Windows 7";"Rachel's Experiment (D.T.)";"1.0";"2";"1";"1";"2";"2";"2";"2014-10-13 14:36:19.723";"2014-10-13 14:48:52.926";"1";;"1";"0";;"116";"115";"module.training_block3.exec-6238.GoNoGo3";;;;;;;;;;;;;;;;;;;;;;;;;;;;;;;;;;;;;;;;;;;;;;;"1248";"2014-10-13 14:42:25.098";"NST_correctLoc";"16";"1";"FINISHED";"RIGHT";"success";"528";"0";"2014-10-13 14:42:23.848";"2";;;;;;;;;;;;;;;;;;;;;;;;;;;;;;;;;
"42ok95";"1995";;"Windows 7";"Rachel's Experiment (D.T.)";"1.0";"2";"1";"1";"2";"2";"2";"2014-10-13 14:36:19.723";"2014-10-13 14:48:52.926";"1";;"1";"0";;"117";"116";"module.training_block3.exec-6238.GoNoGo3";;;;;;;;;;;;;;;;;;;;;;;;;;;;;;;;;;;;;;;;;;;;;;;"1248";"2014-10-13 14:42:27.598";"NST_correctLoc";"8";"0";"FINISHED";"LEFT";"success";"372";"0";"2014-10-13 14:42:26.348";"1";;;;;;;;;;;;;;;;;;;;;;;;;;;;;;;;;
"42ok95";"1995";;"Windows 7";"Rachel's Experiment (D.T.)";"1.0";"2";"1";"1";"2";"2";"2";"2014-10-13 14:36:19.723";"2014-10-13 14:48:52.926";"1";;"1";"0";;"118";"117";"module.training_block3.exec-6238.GoNoGo3";;;;;;;;;;;;;;;;;;;;;;;;;;;;;;;;;;;;;;;;;;;;;;;"1248";"2014-10-13 14:42:30.098";"NST_correctLoc";"26";"0";"FINISHED";"LEFT";"success";"464";"0";"2014-10-13 14:42:28.848";"3";;;;;;;;;;;;;;;;;;;;;;;;;;;;;;;;;
"42ok95";"1995";;"Windows 7";"Rachel's Experiment (D.T.)";"1.0";"2";"1";"1";"2";"2";"2";"2014-10-13 14:36:19.723";"2014-10-13 14:48:52.926";"1";;"1";"0";;"119";"118";"module.training_block3.exec-6238.GoNoGo3";;;;;;;;;;;;;;;;;;;;;;;;;;;;;;;;;;;;;;;;;;;;;;;"1248";"2014-10-13 14:42:32.598";"NST_correctLoc";"34";"0";"FINISHED";"LEFT";"success";"508";"0";"2014-10-13 14:42:31.348";"3";;;;;;;;;;;;;;;;;;;;;;;;;;;;;;;;;
"42ok95";"1995";;"Windows 7";"Rachel's Experiment (D.T.)";"1.0";"2";"1";"1";"2";"2";"2";"2014-10-13 14:36:19.723";"2014-10-13 14:48:52.926";"1";;"1";"0";;"120";"119";"module.training_block3.exec-6238.GoNoGo3";;;;;;;;;;;;;;;;;;;;;;;;;;;;;;;;;;;;;;;;;;;;;;;"1244";"2014-10-13 14:42:35.098";"NST_correctLoc";"12";"0";"FINISHED";"LEFT";"success";"468";"0";"2014-10-13 14:42:33.848";"2";;;;;;;;;;;;;;;;;;;;;;;;;;;;;;;;;
"42ok95";"1995";;"Windows 7";"Rachel's Experiment (D.T.)";"1.0";"2";"1";"1";"2";"2";"2";"2014-10-13 14:36:19.723";"2014-10-13 14:48:52.926";"1";;"1";"0";;"121";"120";"module.training_block3.exec-6238.GoNoGo3";;;;;;;;;;;;;;;;;;;;;;;;;;;;;;;;;;;;;;;;;;;;;;;"1245";"2014-10-13 14:42:37.598";"NST_correctLoc";"33";"0";"FINISHED";"LEFT";"success";"369";"0";"2014-10-13 14:42:36.348";"3";;;;;;;;;;;;;;;;;;;;;;;;;;;;;;;;;
"42ok95";"1995";;"Windows 7";"Rachel's Experiment (D.T.)";"1.0";"2";"1";"1";"2";"2";"2";"2014-10-13 14:36:19.723";"2014-10-13 14:48:52.926";"1";;"1";"0";;"122";"121";"module.training_block3.exec-6238.GoNoGo3";;;;;;;;;;;;;;;;;;;;;;;;;;;;;;;;;;;;;;;;;;;;;;;"1248";"2014-10-13 14:42:40.098";"NST_correctLoc";"27";"0";"FINISHED";"LEFT";"success";"312";"0";"2014-10-13 14:42:38.848";"3";;;;;;;;;;;;;;;;;;;;;;;;;;;;;;;;;
"42ok95";"1995";;"Windows 7";"Rachel's Experiment (D.T.)";"1.0";"2";"1";"1";"2";"2";"2";"2014-10-13 14:36:19.723";"2014-10-13 14:48:52.926";"1";;"1";"0";;"123";"122";"module.training_block3.exec-6238.GoNoGo3";;;;;;;;;;;;;;;;;;;;;;;;;;;;;;;;;;;;;;;;;;;;;;;"1248";"2014-10-13 14:42:42.598";"NST_correctLoc";"2";"1";"FINISHED";"RIGHT";"success";"340";"0";"2014-10-13 14:42:41.348";"1";;;;;;;;;;;;;;;;;;;;;;;;;;;;;;;;;
"42ok95";"1995";;"Windows 7";"Rachel's Experiment (D.T.)";"1.0";"2";"1";"1";"2";"2";"2";"2014-10-13 14:36:19.723";"2014-10-13 14:48:52.926";"1";;"1";"0";;"124";"123";"module.training_block4.exec-8322.GoNoGo4";;;;;;;;;;;;;;;;;;;;;;;;;;;;;;;;;;;;;;;;;;;;;;;;;;;;;;;;;;;"1248";"2014-10-13 14:42:54.754";"NST_correctLoc";"6";"0";"FINISHED";"LEFT";"success";"352";"0";"2014-10-13 14:42:53.504";"1";;;;;;;;;;;;;;;;;;;;;
"42ok95";"1995";;"Windows 7";"Rachel's Experiment (D.T.)";"1.0";"2";"1";"1";"2";"2";"2";"2014-10-13 14:36:19.723";"2014-10-13 14:48:52.926";"1";;"1";"0";;"125";"124";"module.training_block4.exec-8322.GoNoGo4";;;;;;;;;;;;;;;;;;;;;;;;;;;;;;;;;;;;;;;;;;;;;;;;;;;;;;;;;;;"1248";"2014-10-13 14:42:57.254";"NST_correctLoc";"9";"0";"FINISHED";"LEFT";"success";"316";"0";"2014-10-13 14:42:56.004";"2";;;;;;;;;;;;;;;;;;;;;
"42ok95";"1995";;"Windows 7";"Rachel's Experiment (D.T.)";"1.0";"2";"1";"1";"2";"2";"2";"2014-10-13 14:36:19.723";"2014-10-13 14:48:52.926";"1";;"1";"0";;"126";"125";"module.training_block4.exec-8322.GoNoGo4";;;;;;;;;;;;;;;;;;;;;;;;;;;;;;;;;;;;;;;;;;;;;;;;;;;;;;;;;;;"1248";"2014-10-13 14:42:59.754";"NST_correctLoc";"21";"1";"FINISHED";"RIGHT";"success";"359";"0";"2014-10-13 14:42:58.504";"3";;;;;;;;;;;;;;;;;;;;;
"42ok95";"1995";;"Windows 7";"Rachel's Experiment (D.T.)";"1.0";"2";"1";"1";"2";"2";"2";"2014-10-13 14:36:19.723";"2014-10-13 14:48:52.926";"1";;"1";"0";;"127";"126";"module.training_block4.exec-8322.GoNoGo4";;;;;;;;;;;;;;;;;;;;;;;;;;;;;;;;;;;;;;;;;;;;;;;;;;;;;;;;;;;"1248";"2014-10-13 14:43:02.254";"NST_correctLoc";"32";"0";"FINISHED";"LEFT";"success";"299";"0";"2014-10-13 14:43:01.004";"3";;;;;;;;;;;;;;;;;;;;;
"42ok95";"1995";;"Windows 7";"Rachel's Experiment (D.T.)";"1.0";"2";"1";"1";"2";"2";"2";"2014-10-13 14:36:19.723";"2014-10-13 14:48:52.926";"1";;"1";"0";;"128";"127";"module.training_block4.exec-8322.GoNoGo4";;;;;;;;;;;;;;;;;;;;;;;;;;;;;;;;;;;;;;;;;;;;;;;;;;;;;;;;;;;"1248";"2014-10-13 14:43:04.754";"NST_correctLoc";"4";"1";"FINISHED";"RIGHT";"success";"327";"0";"2014-10-13 14:43:03.504";"1";;;;;;;;;;;;;;;;;;;;;
"42ok95";"1995";;"Windows 7";"Rachel's Experiment (D.T.)";"1.0";"2";"1";"1";"2";"2";"2";"2014-10-13 14:36:19.723";"2014-10-13 14:48:52.926";"1";;"1";"0";;"129";"128";"module.training_block4.exec-8322.GoNoGo4";;;;;;;;;;;;;;;;;;;;;;;;;;;;;;;;;;;;;;;;;;;;;;;;;;;;;;;;;;;"1248";"2014-10-13 14:43:07.254";"NST_correctLoc";"23";"0";"FINISHED";"LEFT";"success";"379";"0";"2014-10-13 14:43:06.004";"3";;;;;;;;;;;;;;;;;;;;;
"42ok95";"1995";;"Windows 7";"Rachel's Experiment (D.T.)";"1.0";"2";"1";"1";"2";"2";"2";"2014-10-13 14:36:19.723";"2014-10-13 14:48:52.926";"1";;"1";"0";;"130";"129";"module.training_block4.exec-8322.GoNoGo4";;;;;;;;;;;;;;;;;;;;;;;;;;;;;;;;;;;;;;;;;;;;;;;;;;;;;;;;;;;"1248";"2014-10-13 14:43:09.754";"NST_correctLoc";"3";"1";"FINISHED";"RIGHT";"success";"383";"0";"2014-10-13 14:43:08.504";"1";;;;;;;;;;;;;;;;;;;;;
"42ok95";"1995";;"Windows 7";"Rachel's Experiment (D.T.)";"1.0";"2";"1";"1";"2";"2";"2";"2014-10-13 14:36:19.723";"2014-10-13 14:48:52.926";"1";;"1";"0";;"131";"130";"module.training_block4.exec-8322.GoNoGo4";;;;;;;;;;;;;;;;;;;;;;;;;;;;;;;;;;;;;;;;;;;;;;;;;;;;;;;;;;;"1248";"2014-10-13 14:43:12.254";"NST_correctLoc";"29";"0";"FINISHED";"LEFT";"success";"379";"0";"2014-10-13 14:43:11.004";"3";;;;;;;;;;;;;;;;;;;;;
"42ok95";"1995";;"Windows 7";"Rachel's Experiment (D.T.)";"1.0";"2";"1";"1";"2";"2";"2";"2014-10-13 14:36:19.723";"2014-10-13 14:48:52.926";"1";;"1";"0";;"132";"131";"module.training_block4.exec-8322.GoNoGo4";;;;;;;;;;;;;;;;;;;;;;;;;;;;;;;;;;;;;;;;;;;;;;;;;;;;;;;;;;;"1248";"2014-10-13 14:43:14.754";"NST_correctLoc";"26";"1";"FINISHED";"RIGHT";"success";"335";"0";"2014-10-13 14:43:13.504";"3";;;;;;;;;;;;;;;;;;;;;
"42ok95";"1995";;"Windows 7";"Rachel's Experiment (D.T.)";"1.0";"2";"1";"1";"2";"2";"2";"2014-10-13 14:36:19.723";"2014-10-13 14:48:52.926";"1";;"1";"0";;"133";"132";"module.training_block4.exec-8322.GoNoGo4";;;;;;;;;;;;;;;;;;;;;;;;;;;;;;;;;;;;;;;;;;;;;;;;;;;;;;;;;;;"1248";"2014-10-13 14:43:17.254";"NST_correctLoc";"31";"0";"FINISHED";"LEFT";"success";"315";"0";"2014-10-13 14:43:16.004";"3";;;;;;;;;;;;;;;;;;;;;
"42ok95";"1995";;"Windows 7";"Rachel's Experiment (D.T.)";"1.0";"2";"1";"1";"2";"2";"2";"2014-10-13 14:36:19.723";"2014-10-13 14:48:52.926";"1";;"1";"0";;"134";"133";"module.training_block4.exec-8322.GoNoGo4";;;;;;;;;;;;;;;;;;;;;;;;;;;;;;;;;;;;;;;;;;;;;;;;;;;;;;;;;;;"1248";"2014-10-13 14:43:19.754";"NST_correctLoc";"35";"0";"FINISHED";"LEFT";"success";"343";"0";"2014-10-13 14:43:18.504";"3";;;;;;;;;;;;;;;;;;;;;
"42ok95";"1995";;"Windows 7";"Rachel's Experiment (D.T.)";"1.0";"2";"1";"1";"2";"2";"2";"2014-10-13 14:36:19.723";"2014-10-13 14:48:52.926";"1";;"1";"0";;"135";"134";"module.training_block4.exec-8322.GoNoGo4";;;;;;;;;;;;;;;;;;;;;;;;;;;;;;;;;;;;;;;;;;;;;;;;;;;;;;;;;;;"1248";"2014-10-13 14:43:22.254";"NST_correctLoc";"15";"1";"FINISHED";"RIGHT";"success";"491";"0";"2014-10-13 14:43:21.004";"2";;;;;;;;;;;;;;;;;;;;;
"42ok95";"1995";;"Windows 7";"Rachel's Experiment (D.T.)";"1.0";"2";"1";"1";"2";"2";"2";"2014-10-13 14:36:19.723";"2014-10-13 14:48:52.926";"1";;"1";"0";;"136";"135";"module.training_block4.exec-8322.GoNoGo4";;;;;;;;;;;;;;;;;;;;;;;;;;;;;;;;;;;;;;;;;;;;;;;;;;;;;;;;;;;"1248";"2014-10-13 14:43:24.754";"NST_correctLoc";"10";"0";"FINISHED";"LEFT";"success";"407";"0";"2014-10-13 14:43:23.504";"2";;;;;;;;;;;;;;;;;;;;;
"42ok95";"1995";;"Windows 7";"Rachel's Experiment (D.T.)";"1.0";"2";"1";"1";"2";"2";"2";"2014-10-13 14:36:19.723";"2014-10-13 14:48:52.926";"1";;"1";"0";;"137";"136";"module.training_block4.exec-8322.GoNoGo4";;;;;;;;;;;;;;;;;;;;;;;;;;;;;;;;;;;;;;;;;;;;;;;;;;;;;;;;;;;"1249";"2014-10-13 14:43:27.254";"NST_correctLoc";"30";"0";"FINISHED";"LEFT";"success";"404";"0";"2014-10-13 14:43:26.004";"3";;;;;;;;;;;;;;;;;;;;;
"42ok95";"1995";;"Windows 7";"Rachel's Experiment (D.T.)";"1.0";"2";"1";"1";"2";"2";"2";"2014-10-13 14:36:19.723";"2014-10-13 14:48:52.926";"1";;"1";"0";;"138";"137";"module.training_block4.exec-8322.GoNoGo4";;;;;;;;;;;;;;;;;;;;;;;;;;;;;;;;;;;;;;;;;;;;;;;;;;;;;;;;;;;"1248";"2014-10-13 14:43:29.754";"NST_correctLoc";"19";"0";"FINISHED";"LEFT";"success";"391";"0";"2014-10-13 14:43:28.504";"3";;;;;;;;;;;;;;;;;;;;;
"42ok95";"1995";;"Windows 7";"Rachel's Experiment (D.T.)";"1.0";"2";"1";"1";"2";"2";"2";"2014-10-13 14:36:19.723";"2014-10-13 14:48:52.926";"1";;"1";"0";;"139";"138";"module.training_block4.exec-8322.GoNoGo4";;;;;;;;;;;;;;;;;;;;;;;;;;;;;;;;;;;;;;;;;;;;;;;;;;;;;;;;;;;"1248";"2014-10-13 14:43:32.254";"NST_correctLoc";"27";"0";"FINISHED";"LEFT";"success";"299";"0";"2014-10-13 14:43:31.004";"3";;;;;;;;;;;;;;;;;;;;;
"42ok95";"1995";;"Windows 7";"Rachel's Experiment (D.T.)";"1.0";"2";"1";"1";"2";"2";"2";"2014-10-13 14:36:19.723";"2014-10-13 14:48:52.926";"1";;"1";"0";;"140";"139";"module.training_block4.exec-8322.GoNoGo4";;;;;;;;;;;;;;;;;;;;;;;;;;;;;;;;;;;;;;;;;;;;;;;;;;;;;;;;;;;"1248";"2014-10-13 14:43:34.754";"NST_correctLoc";"16";"1";"FINISHED";"RIGHT";"success";"383";"0";"2014-10-13 14:43:33.504";"2";;;;;;;;;;;;;;;;;;;;;
"42ok95";"1995";;"Windows 7";"Rachel's Experiment (D.T.)";"1.0";"2";"1";"1";"2";"2";"2";"2014-10-13 14:36:19.723";"2014-10-13 14:48:52.926";"1";;"1";"0";;"141";"140";"module.training_block4.exec-8322.GoNoGo4";;;;;;;;;;;;;;;;;;;;;;;;;;;;;;;;;;;;;;;;;;;;;;;;;;;;;;;;;;;"1248";"2014-10-13 14:43:37.254";"NST_correctLoc";"22";"1";"FINISHED";"RIGHT";"success";"419";"0";"2014-10-13 14:43:36.004";"3";;;;;;;;;;;;;;;;;;;;;
"42ok95";"1995";;"Windows 7";"Rachel's Experiment (D.T.)";"1.0";"2";"1";"1";"2";"2";"2";"2014-10-13 14:36:19.723";"2014-10-13 14:48:52.926";"1";;"1";"0";;"142";"141";"module.training_block4.exec-8322.GoNoGo4";;;;;;;;;;;;;;;;;;;;;;;;;;;;;;;;;;;;;;;;;;;;;;;;;;;;;;;;;;;"1248";"2014-10-13 14:43:39.754";"NST_correctLoc";"1";"1";"FINISHED";"RIGHT";"success";"335";"0";"2014-10-13 14:43:38.504";"1";;;;;;;;;;;;;;;;;;;;;
"42ok95";"1995";;"Windows 7";"Rachel's Experiment (D.T.)";"1.0";"2";"1";"1";"2";"2";"2";"2014-10-13 14:36:19.723";"2014-10-13 14:48:52.926";"1";;"1";"0";;"143";"142";"module.training_block4.exec-8322.GoNoGo4";;;;;;;;;;;;;;;;;;;;;;;;;;;;;;;;;;;;;;;;;;;;;;;;;;;;;;;;;;;"1248";"2014-10-13 14:43:42.254";"NST_correctLoc";"20";"0";"FINISHED";"LEFT";"success";"275";"0";"2014-10-13 14:43:41.004";"3";;;;;;;;;;;;;;;;;;;;;
"42ok95";"1995";;"Windows 7";"Rachel's Experiment (D.T.)";"1.0";"2";"1";"1";"2";"2";"2";"2014-10-13 14:36:19.723";"2014-10-13 14:48:52.926";"1";;"1";"0";;"144";"143";"module.training_block4.exec-8322.GoNoGo4";;;;;;;;;;;;;;;;;;;;;;;;;;;;;;;;;;;;;;;;;;;;;;;;;;;;;;;;;;;"1248";"2014-10-13 14:43:44.754";"NST_correctLoc";"12";"1";"FINISHED";"RIGHT";"success";"87";"0";"2014-10-13 14:43:43.504";"2";;;;;;;;;;;;;;;;;;;;;
"42ok95";"1995";;"Windows 7";"Rachel's Experiment (D.T.)";"1.0";"2";"1";"1";"2";"2";"2";"2014-10-13 14:36:19.723";"2014-10-13 14:48:52.926";"1";;"1";"0";;"145";"144";"module.training_block4.exec-8322.GoNoGo4";;;;;;;;;;;;;;;;;;;;;;;;;;;;;;;;;;;;;;;;;;;;;;;;;;;;;;;;;;;"1248";"2014-10-13 14:43:47.254";"NST_correctLoc";"25";"0";"FINISHED";"LEFT";"success";"363";"0";"2014-10-13 14:43:46.004";"3";;;;;;;;;;;;;;;;;;;;;
"42ok95";"1995";;"Windows 7";"Rachel's Experiment (D.T.)";"1.0";"2";"1";"1";"2";"2";"2";"2014-10-13 14:36:19.723";"2014-10-13 14:48:52.926";"1";;"1";"0";;"146";"145";"module.training_block4.exec-8322.GoNoGo4";;;;;;;;;;;;;;;;;;;;;;;;;;;;;;;;;;;;;;;;;;;;;;;;;;;;;;;;;;;"1248";"2014-10-13 14:43:49.754";"NST_correctLoc";"24";"0";"FINISHED";"LEFT";"success";"391";"0";"2014-10-13 14:43:48.504";"3";;;;;;;;;;;;;;;;;;;;;
"42ok95";"1995";;"Windows 7";"Rachel's Experiment (D.T.)";"1.0";"2";"1";"1";"2";"2";"2";"2014-10-13 14:36:19.723";"2014-10-13 14:48:52.926";"1";;"1";"0";;"147";"146";"module.training_block4.exec-8322.GoNoGo4";;;;;;;;;;;;;;;;;;;;;;;;;;;;;;;;;;;;;;;;;;;;;;;;;;;;;;;;;;;"1248";"2014-10-13 14:43:52.254";"NST_correctLoc";"11";"0";"FINISHED";"LEFT";"success";"363";"0";"2014-10-13 14:43:51.004";"2";;;;;;;;;;;;;;;;;;;;;
"42ok95";"1995";;"Windows 7";"Rachel's Experiment (D.T.)";"1.0";"2";"1";"1";"2";"2";"2";"2014-10-13 14:36:19.723";"2014-10-13 14:48:52.926";"1";;"1";"0";;"148";"147";"module.training_block4.exec-8322.GoNoGo4";;;;;;;;;;;;;;;;;;;;;;;;;;;;;;;;;;;;;;;;;;;;;;;;;;;;;;;;;;;"1248";"2014-10-13 14:43:54.754";"NST_correctLoc";"2";"0";"FINISHED";"LEFT";"success";"311";"0";"2014-10-13 14:43:53.504";"1";;;;;;;;;;;;;;;;;;;;;
"42ok95";"1995";;"Windows 7";"Rachel's Experiment (D.T.)";"1.0";"2";"1";"1";"2";"2";"2";"2014-10-13 14:36:19.723";"2014-10-13 14:48:52.926";"1";;"1";"0";;"149";"148";"module.training_block4.exec-8322.GoNoGo4";;;;;;;;;;;;;;;;;;;;;;;;;;;;;;;;;;;;;;;;;;;;;;;;;;;;;;;;;;;"1244";"2014-10-13 14:43:57.254";"NST_correctLoc";"0";"0";"FINISHED";"LEFT";"success";"310";"0";"2014-10-13 14:43:56.004";"1";;;;;;;;;;;;;;;;;;;;;
"42ok95";"1995";;"Windows 7";"Rachel's Experiment (D.T.)";"1.0";"2";"1";"1";"2";"2";"2";"2014-10-13 14:36:19.723";"2014-10-13 14:48:52.926";"1";;"1";"0";;"150";"149";"module.training_block4.exec-8322.GoNoGo4";;;;;;;;;;;;;;;;;;;;;;;;;;;;;;;;;;;;;;;;;;;;;;;;;;;;;;;;;;;"1248";"2014-10-13 14:43:59.754";"NST_correctLoc";"13";"1";"FINISHED";"RIGHT";"success";"311";"0";"2014-10-13 14:43:58.504";"2";;;;;;;;;;;;;;;;;;;;;
"42ok95";"1995";;"Windows 7";"Rachel's Experiment (D.T.)";"1.0";"2";"1";"1";"2";"2";"2";"2014-10-13 14:36:19.723";"2014-10-13 14:48:52.926";"1";;"1";"0";;"151";"150";"module.training_block4.exec-8322.GoNoGo4";;;;;;;;;;;;;;;;;;;;;;;;;;;;;;;;;;;;;;;;;;;;;;;;;;;;;;;;;;;"1248";"2014-10-13 14:44:02.254";"NST_correctLoc";"17";"0";"FINISHED";"LEFT";"success";"250";"0";"2014-10-13 14:44:01.004";"2";;;;;;;;;;;;;;;;;;;;;
"42ok95";"1995";;"Windows 7";"Rachel's Experiment (D.T.)";"1.0";"2";"1";"1";"2";"2";"2";"2014-10-13 14:36:19.723";"2014-10-13 14:48:52.926";"1";;"1";"0";;"152";"151";"module.training_block4.exec-8322.GoNoGo4";;;;;;;;;;;;;;;;;;;;;;;;;;;;;;;;;;;;;;;;;;;;;;;;;;;;;;;;;;;"1248";"2014-10-13 14:44:04.754";"NST_correctLoc";"7";"1";"FINISHED";"RIGHT";"success";"327";"0";"2014-10-13 14:44:03.504";"1";;;;;;;;;;;;;;;;;;;;;
"42ok95";"1995";;"Windows 7";"Rachel's Experiment (D.T.)";"1.0";"2";"1";"1";"2";"2";"2";"2014-10-13 14:36:19.723";"2014-10-13 14:48:52.926";"1";;"1";"0";;"153";"152";"module.training_block4.exec-8322.GoNoGo4";;;;;;;;;;;;;;;;;;;;;;;;;;;;;;;;;;;;;;;;;;;;;;;;;;;;;;;;;;;"1248";"2014-10-13 14:44:07.254";"NST_correctLoc";"33";"0";"FINISHED";"LEFT";"success";"299";"0";"2014-10-13 14:44:06.004";"3";;;;;;;;;;;;;;;;;;;;;
"42ok95";"1995";;"Windows 7";"Rachel's Experiment (D.T.)";"1.0";"2";"1";"1";"2";"2";"2";"2014-10-13 14:36:19.723";"2014-10-13 14:48:52.926";"1";;"1";"0";;"154";"153";"module.training_block4.exec-8322.GoNoGo4";;;;;;;;;;;;;;;;;;;;;;;;;;;;;;;;;;;;;;;;;;;;;;;;;;;;;;;;;;;"1248";"2014-10-13 14:44:09.754";"NST_correctLoc";"34";"0";"FINISHED";"LEFT";"success";"294";"0";"2014-10-13 14:44:08.504";"3";;;;;;;;;;;;;;;;;;;;;
"42ok95";"1995";;"Windows 7";"Rachel's Experiment (D.T.)";"1.0";"2";"1";"1";"2";"2";"2";"2014-10-13 14:36:19.723";"2014-10-13 14:48:52.926";"1";;"1";"0";;"155";"154";"module.training_block4.exec-8322.GoNoGo4";;;;;;;;;;;;;;;;;;;;;;;;;;;;;;;;;;;;;;;;;;;;;;;;;;;;;;;;;;;"1248";"2014-10-13 14:44:12.254";"NST_correctLoc";"18";"1";"FINISHED";"RIGHT";"success";"362";"0";"2014-10-13 14:44:11.004";"3";;;;;;;;;;;;;;;;;;;;;
"42ok95";"1995";;"Windows 7";"Rachel's Experiment (D.T.)";"1.0";"2";"1";"1";"2";"2";"2";"2014-10-13 14:36:19.723";"2014-10-13 14:48:52.926";"1";;"1";"0";;"156";"155";"module.training_block4.exec-8322.GoNoGo4";;;;;;;;;;;;;;;;;;;;;;;;;;;;;;;;;;;;;;;;;;;;;;;;;;;;;;;;;;;"1248";"2014-10-13 14:44:14.754";"NST_correctLoc";"8";"1";"FINISHED";"RIGHT";"success";"342";"0";"2014-10-13 14:44:13.504";"1";;;;;;;;;;;;;;;;;;;;;
"42ok95";"1995";;"Windows 7";"Rachel's Experiment (D.T.)";"1.0";"2";"1";"1";"2";"2";"2";"2014-10-13 14:36:19.723";"2014-10-13 14:48:52.926";"1";;"1";"0";;"157";"156";"module.training_block4.exec-8322.GoNoGo4";;;;;;;;;;;;;;;;;;;;;;;;;;;;;;;;;;;;;;;;;;;;;;;;;;;;;;;;;;;"1248";"2014-10-13 14:44:17.254";"NST_correctLoc";"5";"1";"FINISHED";"RIGHT";"success";"330";"0";"2014-10-13 14:44:16.004";"1";;;;;;;;;;;;;;;;;;;;;
"42ok95";"1995";;"Windows 7";"Rachel's Experiment (D.T.)";"1.0";"2";"1";"1";"2";"2";"2";"2014-10-13 14:36:19.723";"2014-10-13 14:48:52.926";"1";;"1";"0";;"158";"157";"module.training_block4.exec-8322.GoNoGo4";;;;;;;;;;;;;;;;;;;;;;;;;;;;;;;;;;;;;;;;;;;;;;;;;;;;;;;;;;;"1248";"2014-10-13 14:44:19.754";"NST_correctLoc";"14";"0";"FINISHED";"LEFT";"success";"374";"0";"2014-10-13 14:44:18.504";"2";;;;;;;;;;;;;;;;;;;;;
"42ok95";"1995";;"Windows 7";"Rachel's Experiment (D.T.)";"1.0";"2";"1";"1";"2";"2";"2";"2014-10-13 14:36:19.723";"2014-10-13 14:48:52.926";"1";;"1";"0";;"159";"158";"module.training_block4.exec-8322.GoNoGo4";;;;;;;;;;;;;;;;;;;;;;;;;;;;;;;;;;;;;;;;;;;;;;;;;;;;;;;;;;;"1248";"2014-10-13 14:44:22.254";"NST_correctLoc";"28";"1";"FINISHED";"RIGHT";"success";"354";"0";"2014-10-13 14:44:21.004";"3";;;;;;;;;;;;;;;;;;;;;
"42ok95";"1995";;"Windows 7";"Rachel's Experiment (D.T.)";"1.0";"2";"1";"1";"2";"2";"2";"2014-10-13 14:36:19.723";"2014-10-13 14:48:52.926";"1";;"1";"0";;"160";"159";"module.devaluation_practice.exec-7138.devalPractice";;;;;;;;;;;;"19676";"2014-10-13 14:44:57.379";"0";"7";"5";"7";"5178";"4791";"6705";"2014-10-13 14:44:37.707";;;;;;;;;;;;;;;;;;;;;;;;;;;;;;;;;;;;;;;;;;;;;;;;;;;;;;;;;;;;;;;;;;;;;;
"42ok95";"1995";;"Windows 7";"Rachel's Experiment (D.T.)";"1.0";"2";"1";"1";"2";"2";"2";"2014-10-13 14:36:19.723";"2014-10-13 14:48:52.926";"1";;"1";"0";;"161";"160";"module.devaluation_practice.exec-7138.devalPractice";;;;;;;;;;;;"11396";"2014-10-13 14:45:08.801";"1";"4";"2";"4";"1521";"3847";"3034";"2014-10-13 14:44:57.410";;;;;;;;;;;;;;;;;;;;;;;;;;;;;;;;;;;;;;;;;;;;;;;;;;;;;;;;;;;;;;;;;;;;;;
"42ok95";"1995";;"Windows 7";"Rachel's Experiment (D.T.)";"1.0";"2";"1";"1";"2";"2";"2";"2014-10-13 14:36:19.723";"2014-10-13 14:48:52.926";"1";;"1";"0";;"162";"161";"module.devaluation_practice.exec-7138.devalPractice";;;;;;;;;;;;"13197";"2014-10-13 14:45:22.020";"2";"7";"6";"8";"3209";"1032";"5972";"2014-10-13 14:45:08.817";;;;;;;;;;;;;;;;;;;;;;;;;;;;;;;;;;;;;;;;;;;;;;;;;;;;;;;;;;;;;;;;;;;;;;
"42ok95";"1995";;"Windows 7";"Rachel's Experiment (D.T.)";"1.0";"2";"1";"1";"2";"2";"2";"2014-10-13 14:36:19.723";"2014-10-13 14:48:52.926";"1";;"1";"0";;"163";"162";"module.devaluation_practice.exec-7138.devalPractice";;;;;;;;;;;;"9477";"2014-10-13 14:45:31.504";"3";"6";"3";"7";"1878";"2981";"1625";"2014-10-13 14:45:22.035";;;;;;;;;;;;;;;;;;;;;;;;;;;;;;;;;;;;;;;;;;;;;;;;;;;;;;;;;;;;;;;;;;;;;;
"42ok95";"1995";;"Windows 7";"Rachel's Experiment (D.T.)";"1.0";"2";"1";"1";"2";"2";"2";"2014-10-13 14:36:19.723";"2014-10-13 14:48:52.926";"1";;"1";"0";;"164";"163";"module.devaluation_block1.exec-5369.deval1";"10194";"2014-10-13 14:45:48.114";"25";"7";"3";"7";"3613";"1729";"1856";"2014-10-13 14:45:37.926";"3";;;;;;;;;;;;;;;;;;;;;;;;;;;;;;;;;;;;;;;;;;;;;;;;;;;;;;;;;;;;;;;;;;;;;;;;;;;;;;;;
"42ok95";"1995";;"Windows 7";"Rachel's Experiment (D.T.)";"1.0";"2";"1";"1";"2";"2";"2";"2014-10-13 14:36:19.723";"2014-10-13 14:48:52.926";"1";;"1";"0";;"165";"164";"module.devaluation_block1.exec-5369.deval1";"7532";"2014-10-13 14:45:55.676";"17";"7";"7";"8";"2195";"1062";"1284";"2014-10-13 14:45:48.145";"2";;;;;;;;;;;;;;;;;;;;;;;;;;;;;;;;;;;;;;;;;;;;;;;;;;;;;;;;;;;;;;;;;;;;;;;;;;;;;;;;
"42ok95";"1995";;"Windows 7";"Rachel's Experiment (D.T.)";"1.0";"2";"1";"1";"2";"2";"2";"2014-10-13 14:36:19.723";"2014-10-13 14:48:52.926";"1";;"1";"0";;"166";"165";"module.devaluation_block1.exec-5369.deval1";"7678";"2014-10-13 14:46:03.364";"12";"6";"5";"8";"1584";"1962";"1138";"2014-10-13 14:45:55.692";"2";;;;;;;;;;;;;;;;;;;;;;;;;;;;;;;;;;;;;;;;;;;;;;;;;;;;;;;;;;;;;;;;;;;;;;;;;;;;;;;;
"42ok95";"1995";;"Windows 7";"Rachel's Experiment (D.T.)";"1.0";"2";"1";"1";"2";"2";"2";"2014-10-13 14:36:19.723";"2014-10-13 14:48:52.926";"1";;"1";"0";;"167";"166";"module.devaluation_block1.exec-5369.deval1";"8213";"2014-10-13 14:46:11.598";"0";"7";"6";"7";"2594";"740";"1891";"2014-10-13 14:46:03.379";"1";;;;;;;;;;;;;;;;;;;;;;;;;;;;;;;;;;;;;;;;;;;;;;;;;;;;;;;;;;;;;;;;;;;;;;;;;;;;;;;;
"42ok95";"1995";;"Windows 7";"Rachel's Experiment (D.T.)";"1.0";"2";"1";"1";"2";"2";"2";"2014-10-13 14:36:19.723";"2014-10-13 14:48:52.926";"1";;"1";"0";;"168";"167";"module.devaluation_block1.exec-5369.deval1";"10397";"2014-10-13 14:46:22.020";"14";"7";"6";"7";"3134";"2734";"1549";"2014-10-13 14:46:11.614";"2";;;;;;;;;;;;;;;;;;;;;;;;;;;;;;;;;;;;;;;;;;;;;;;;;;;;;;;;;;;;;;;;;;;;;;;;;;;;;;;;
"42ok95";"1995";;"Windows 7";"Rachel's Experiment (D.T.)";"1.0";"2";"1";"1";"2";"2";"2";"2014-10-13 14:36:19.723";"2014-10-13 14:48:52.926";"1";;"1";"0";;"169";"168";"module.devaluation_block1.exec-5369.deval1";"8533";"2014-10-13 14:46:30.567";"21";"5";"3";"8";"2120";"1739";"1687";"2014-10-13 14:46:22.035";"3";;;;;;;;;;;;;;;;;;;;;;;;;;;;;;;;;;;;;;;;;;;;;;;;;;;;;;;;;;;;;;;;;;;;;;;;;;;;;;;;
"42ok95";"1995";;"Windows 7";"Rachel's Experiment (D.T.)";"1.0";"2";"1";"1";"2";"2";"2";"2014-10-13 14:36:19.723";"2014-10-13 14:48:52.926";"1";;"1";"0";;"170";"169";"module.devaluation_block1.exec-5369.deval1";"9309";"2014-10-13 14:46:39.895";"26";"8";"4";"8";"3101";"1801";"1427";"2014-10-13 14:46:30.582";"3";;;;;;;;;;;;;;;;;;;;;;;;;;;;;;;;;;;;;;;;;;;;;;;;;;;;;;;;;;;;;;;;;;;;;;;;;;;;;;;;
"42ok95";"1995";;"Windows 7";"Rachel's Experiment (D.T.)";"1.0";"2";"1";"1";"2";"2";"2";"2014-10-13 14:36:19.723";"2014-10-13 14:48:52.926";"1";;"1";"0";;"171";"170";"module.devaluation_block1.exec-5369.deval1";"8197";"2014-10-13 14:46:48.114";"22";"5";"6";"8";"1893";"1299";"2022";"2014-10-13 14:46:39.910";"3";;;;;;;;;;;;;;;;;;;;;;;;;;;;;;;;;;;;;;;;;;;;;;;;;;;;;;;;;;;;;;;;;;;;;;;;;;;;;;;;
"42ok95";"1995";;"Windows 7";"Rachel's Experiment (D.T.)";"1.0";"2";"1";"1";"2";"2";"2";"2014-10-13 14:36:19.723";"2014-10-13 14:48:52.926";"1";;"1";"0";;"172";"171";"module.devaluation_block1.exec-5369.deval1";"6556";"2014-10-13 14:46:54.692";"2";"6";"4";"7";"1114";"1203";"1257";"2014-10-13 14:46:48.129";"1";;;;;;;;;;;;;;;;;;;;;;;;;;;;;;;;;;;;;;;;;;;;;;;;;;;;;;;;;;;;;;;;;;;;;;;;;;;;;;;;
"42ok95";"1995";;"Windows 7";"Rachel's Experiment (D.T.)";"1.0";"2";"1";"1";"2";"2";"2";"2014-10-13 14:36:19.723";"2014-10-13 14:48:52.926";"1";;"1";"0";;"173";"172";"module.devaluation_block1.exec-5369.deval1";"8941";"2014-10-13 14:47:03.645";"9";"7";"4";"5";"1032";"2225";"2685";"2014-10-13 14:46:54.707";"2";;;;;;;;;;;;;;;;;;;;;;;;;;;;;;;;;;;;;;;;;;;;;;;;;;;;;;;;;;;;;;;;;;;;;;;;;;;;;;;;
"42ok95";"1995";;"Windows 7";"Rachel's Experiment (D.T.)";"1.0";"2";"1";"1";"2";"2";"2";"2014-10-13 14:36:19.723";"2014-10-13 14:48:52.926";"1";;"1";"0";;"174";"173";"module.devaluation_block1.exec-5369.deval1";"6494";"2014-10-13 14:47:10.160";"3";"6";"7";"8";"767";"956";"1789";"2014-10-13 14:47:03.660";"1";;;;;;;;;;;;;;;;;;;;;;;;;;;;;;;;;;;;;;;;;;;;;;;;;;;;;;;;;;;;;;;;;;;;;;;;;;;;;;;;
"42ok95";"1995";;"Windows 7";"Rachel's Experiment (D.T.)";"1.0";"2";"1";"1";"2";"2";"2";"2014-10-13 14:36:19.723";"2014-10-13 14:48:52.926";"1";;"1";"0";;"175";"174";"module.devaluation_block1.exec-5369.deval1";"6101";"2014-10-13 14:47:16.285";"11";"5";"3";"4";"531";"1169";"1411";"2014-10-13 14:47:10.176";"2";;;;;;;;;;;;;;;;;;;;;;;;;;;;;;;;;;;;;;;;;;;;;;;;;;;;;;;;;;;;;;;;;;;;;;;;;;;;;;;;
"42ok95";"1995";;"Windows 7";"Rachel's Experiment (D.T.)";"1.0";"2";"1";"1";"2";"2";"2";"2014-10-13 14:36:19.723";"2014-10-13 14:48:52.926";"1";;"1";"0";;"176";"175";"module.devaluation_block1.exec-5369.deval1";"5742";"2014-10-13 14:47:22.035";"1";"6";"5";"7";"1006";"929";"810";"2014-10-13 14:47:16.301";"1";;;;;;;;;;;;;;;;;;;;;;;;;;;;;;;;;;;;;;;;;;;;;;;;;;;;;;;;;;;;;;;;;;;;;;;;;;;;;;;;
"42ok95";"1995";;"Windows 7";"Rachel's Experiment (D.T.)";"1.0";"2";"1";"1";"2";"2";"2";"2014-10-13 14:36:19.723";"2014-10-13 14:48:52.926";"1";;"1";"0";;"177";"176";"module.devaluation_block1.exec-5369.deval1";"7484";"2014-10-13 14:47:29.535";"10";"8";"4";"8";"1536";"1480";"1496";"2014-10-13 14:47:22.051";"2";;;;;;;;;;;;;;;;;;;;;;;;;;;;;;;;;;;;;;;;;;;;;;;;;;;;;;;;;;;;;;;;;;;;;;;;;;;;;;;;
"42ok95";"1995";;"Windows 7";"Rachel's Experiment (D.T.)";"1.0";"2";"1";"1";"2";"2";"2";"2014-10-13 14:36:19.723";"2014-10-13 14:48:52.926";"1";;"1";"0";;"178";"177";"module.devaluation_block1.exec-5369.deval1";"6317";"2014-10-13 14:47:35.879";"19";"6";"6";"8";"1356";"925";"1048";"2014-10-13 14:47:29.567";"3";;;;;;;;;;;;;;;;;;;;;;;;;;;;;;;;;;;;;;;;;;;;;;;;;;;;;;;;;;;;;;;;;;;;;;;;;;;;;;;;
"42ok95";"1995";;"Windows 7";"Rachel's Experiment (D.T.)";"1.0";"2";"1";"1";"2";"2";"2";"2014-10-13 14:36:19.723";"2014-10-13 14:48:52.926";"1";;"1";"0";;"179";"178";"module.devaluation_block1.exec-5369.deval1";"5877";"2014-10-13 14:47:41.770";"20";"4";"2";"6";"660";"1305";"927";"2014-10-13 14:47:35.895";"3";;;;;;;;;;;;;;;;;;;;;;;;;;;;;;;;;;;;;;;;;;;;;;;;;;;;;;;;;;;;;;;;;;;;;;;;;;;;;;;;
"42ok95";"1995";;"Windows 7";"Rachel's Experiment (D.T.)";"1.0";"2";"1";"1";"2";"2";"2";"2014-10-13 14:36:19.723";"2014-10-13 14:48:52.926";"1";;"1";"0";;"180";"179";"module.devaluation_block1.exec-5369.deval1";"6949";"2014-10-13 14:47:48.739";"24";"5";"4";"7";"1937";"945";"1083";"2014-10-13 14:47:41.785";"3";;;;;;;;;;;;;;;;;;;;;;;;;;;;;;;;;;;;;;;;;;;;;;;;;;;;;;;;;;;;;;;;;;;;;;;;;;;;;;;;
"42ok95";"1995";;"Windows 7";"Rachel's Experiment (D.T.)";"1.0";"2";"1";"1";"2";"2";"2";"2014-10-13 14:36:19.723";"2014-10-13 14:48:52.926";"1";;"1";"0";;"181";"180";"module.devaluation_block1.exec-5369.deval1";"5757";"2014-10-13 14:47:54.520";"8";"8";"5";"6";"1216";"596";"953";"2014-10-13 14:47:48.754";"1";;;;;;;;;;;;;;;;;;;;;;;;;;;;;;;;;;;;;;;;;;;;;;;;;;;;;;;;;;;;;;;;;;;;;;;;;;;;;;;;
"42ok95";"1995";;"Windows 7";"Rachel's Experiment (D.T.)";"1.0";"2";"1";"1";"2";"2";"2";"2014-10-13 14:36:19.723";"2014-10-13 14:48:52.926";"1";;"1";"0";;"182";"181";"module.devaluation_block1.exec-5369.deval1";"6340";"2014-10-13 14:48:00.879";"6";"7";"5";"5";"811";"1800";"746";"2014-10-13 14:47:54.535";"1";;;;;;;;;;;;;;;;;;;;;;;;;;;;;;;;;;;;;;;;;;;;;;;;;;;;;;;;;;;;;;;;;;;;;;;;;;;;;;;;
"42ok95";"1995";;"Windows 7";"Rachel's Experiment (D.T.)";"1.0";"2";"1";"1";"2";"2";"2";"2014-10-13 14:36:19.723";"2014-10-13 14:48:52.926";"1";;"1";"0";;"183";"182";"module.devaluation_block1.exec-5369.deval1";"6725";"2014-10-13 14:48:07.614";"4";"8";"6";"8";"1339";"747";"1655";"2014-10-13 14:48:00.895";"1";;;;;;;;;;;;;;;;;;;;;;;;;;;;;;;;;;;;;;;;;;;;;;;;;;;;;;;;;;;;;;;;;;;;;;;;;;;;;;;;
"42ok95";"1995";;"Windows 7";"Rachel's Experiment (D.T.)";"1.0";"2";"1";"1";"2";"2";"2";"2014-10-13 14:36:19.723";"2014-10-13 14:48:52.926";"1";;"1";"0";;"184";"183";"module.devaluation_block1.exec-5369.deval1";"6126";"2014-10-13 14:48:13.770";"5";"7";"6";"8";"1405";"625";"1092";"2014-10-13 14:48:07.645";"1";;;;;;;;;;;;;;;;;;;;;;;;;;;;;;;;;;;;;;;;;;;;;;;;;;;;;;;;;;;;;;;;;;;;;;;;;;;;;;;;
"42ok95";"1995";;"Windows 7";"Rachel's Experiment (D.T.)";"1.0";"2";"1";"1";"2";"2";"2";"2014-10-13 14:36:19.723";"2014-10-13 14:48:52.926";"1";;"1";"0";;"185";"184";"module.devaluation_block1.exec-5369.deval1";"6309";"2014-10-13 14:48:20.098";"23";"6";"2";"4";"849";"1266";"1209";"2014-10-13 14:48:13.785";"3";;;;;;;;;;;;;;;;;;;;;;;;;;;;;;;;;;;;;;;;;;;;;;;;;;;;;;;;;;;;;;;;;;;;;;;;;;;;;;;;
"42ok95";"1995";;"Windows 7";"Rachel's Experiment (D.T.)";"1.0";"2";"1";"1";"2";"2";"2";"2014-10-13 14:36:19.723";"2014-10-13 14:48:52.926";"1";;"1";"0";;"186";"185";"module.devaluation_block1.exec-5369.deval1";"5581";"2014-10-13 14:48:25.692";"7";"5";"5";"7";"648";"834";"1116";"2014-10-13 14:48:20.114";"1";;;;;;;;;;;;;;;;;;;;;;;;;;;;;;;;;;;;;;;;;;;;;;;;;;;;;;;;;;;;;;;;;;;;;;;;;;;;;;;;
"42ok95";"1995";;"Windows 7";"Rachel's Experiment (D.T.)";"1.0";"2";"1";"1";"2";"2";"2";"2014-10-13 14:36:19.723";"2014-10-13 14:48:52.926";"1";;"1";"0";;"187";"186";"module.devaluation_block1.exec-5369.deval1";"6245";"2014-10-13 14:48:31.957";"16";"5";"7";"7";"630";"1395";"1242";"2014-10-13 14:48:25.707";"2";;;;;;;;;;;;;;;;;;;;;;;;;;;;;;;;;;;;;;;;;;;;;;;;;;;;;;;;;;;;;;;;;;;;;;;;;;;;;;;;
"42ok95";"1995";;"Windows 7";"Rachel's Experiment (D.T.)";"1.0";"2";"1";"1";"2";"2";"2";"2014-10-13 14:36:19.723";"2014-10-13 14:48:52.926";"1";;"1";"0";;"188";"187";"module.devaluation_block1.exec-5369.deval1";"5357";"2014-10-13 14:48:37.332";"13";"8";"6";"7";"853";"646";"877";"2014-10-13 14:48:31.973";"2";;;;;;;;;;;;;;;;;;;;;;;;;;;;;;;;;;;;;;;;;;;;;;;;;;;;;;;;;;;;;;;;;;;;;;;;;;;;;;;;
"42ok95";"1995";;"Windows 7";"Rachel's Experiment (D.T.)";"1.0";"2";"1";"1";"2";"2";"2";"2014-10-13 14:36:19.723";"2014-10-13 14:48:52.926";"1";;"1";"0";;"189";"188";"module.devaluation_block1.exec-5369.deval1";"6085";"2014-10-13 14:48:43.442";"18";"5";"4";"7";"342";"1734";"1026";"2014-10-13 14:48:37.348";"3";;;;;;;;;;;;;;;;;;;;;;;;;;;;;;;;;;;;;;;;;;;;;;;;;;;;;;;;;;;;;;;;;;;;;;;;;;;;;;;;
"42ok95";"1995";;"Windows 7";"Rachel's Experiment (D.T.)";"1.0";"2";"1";"1";"2";"2";"2";"2014-10-13 14:36:19.723";"2014-10-13 14:48:52.926";"1";;"1";"0";;"190";"189";"module.devaluation_block1.exec-5369.deval1";"7581";"2014-10-13 14:48:51.035";"15";"5";"5";"6";"1944";"2037";"611";"2014-10-13 14:48:43.457";"2";;;;;;;;;;;;;;;;;;;;;;;;;;;;;;;;;;;;;;;;;;;;;;;;;;;;;;;;;;;;;;;;;;;;;;;;;;;;;;;;
