"user.name";"user.yearOfBirth";"user.sex";"user.osName";"module.name";"module.version";"module.online.subject.code";"module.online.study.id";"module.online.module.nr";"module.online.group.nr";"session.id";"session.index";"session.startTime";"session.endTime";"session.completed";"session.node-1620.conditionType";"session.node-4297.DevalQorder";"trial.id";"trial.index";"trial.name";"trial.deval1.durationTime";"trial.deval1.endTime";"trial.deval1.icon";"trial.deval1.Resp_Attractive";"trial.deval1.Resp_Eat";"trial.deval1.Resp_Taste";"trial.deval1.RT_Attractive";"trial.deval1.RT_Eat";"trial.deval1.RT_Taste";"trial.deval1.startTime";"trial.deval1.stimulus type";"trial.devalPractice.durationTime";"trial.devalPractice.endTime";"trial.devalPractice.icon";"trial.devalPractice.Resp_Attractive";"trial.devalPractice.Resp_Eat";"trial.devalPractice.Resp_Taste";"trial.devalPractice.RT_Attractive";"trial.devalPractice.RT_Eat";"trial.devalPractice.RT_Taste";"trial.devalPractice.startTime";"trial.devalPractice.stimulus type";"trial.GoNoGo1.durationTime";"trial.GoNoGo1.endTime";"trial.GoNoGo1.Error Type";"trial.GoNoGo1.icon";"trial.GoNoGo1.location";"trial.GoNoGo1.outcome";"trial.GoNoGo1.response";"trial.GoNoGo1.result";"trial.GoNoGo1.RT";"trial.GoNoGo1.signal";"trial.GoNoGo1.startTime";"trial.GoNoGo1.stimulus type";"trial.GoNoGo2.durationTime";"trial.GoNoGo2.endTime";"trial.GoNoGo2.Error Type";"trial.GoNoGo2.icon";"trial.GoNoGo2.location";"trial.GoNoGo2.outcome";"trial.GoNoGo2.response";"trial.GoNoGo2.result";"trial.GoNoGo2.RT";"trial.GoNoGo2.signal";"trial.GoNoGo2.startTime";"trial.GoNoGo2.stimulus type";"trial.GoNoGo3.durationTime";"trial.GoNoGo3.endTime";"trial.GoNoGo3.Error Type";"trial.GoNoGo3.icon";"trial.GoNoGo3.location";"trial.GoNoGo3.outcome";"trial.GoNoGo3.response";"trial.GoNoGo3.result";"trial.GoNoGo3.RT";"trial.GoNoGo3.signal";"trial.GoNoGo3.startTime";"trial.GoNoGo3.stimulus type";"trial.GoNoGo4.durationTime";"trial.GoNoGo4.endTime";"trial.GoNoGo4.Error Type";"trial.GoNoGo4.icon";"trial.GoNoGo4.location";"trial.GoNoGo4.outcome";"trial.GoNoGo4.response";"trial.GoNoGo4.result";"trial.GoNoGo4.RT";"trial.GoNoGo4.signal";"trial.GoNoGo4.startTime";"trial.GoNoGo4.stimulus type";"trial.GoNoGo_Practice.durationTime";"trial.GoNoGo_Practice.endTime";"trial.GoNoGo_Practice.icon";"trial.GoNoGo_Practice.location";"trial.GoNoGo_Practice.outcome";"trial.GoNoGo_Practice.response";"trial.GoNoGo_Practice.result";"trial.GoNoGo_Practice.RT";"trial.GoNoGo_Practice.signal";"trial.GoNoGo_Practice.startTime";"trial.GoNoGo_Practice.stimulus type";"trial.GoNoGo_Tutorial.durationTime";"trial.GoNoGo_Tutorial.endTime";"trial.GoNoGo_Tutorial.icon";"trial.GoNoGo_Tutorial.location";"trial.GoNoGo_Tutorial.outcome";"trial.GoNoGo_Tutorial.response";"trial.GoNoGo_Tutorial.result";"trial.GoNoGo_Tutorial.RT";"trial.GoNoGo_Tutorial.signal";"trial.GoNoGo_Tutorial.startTime"
"1224515";;;"Windows 7";"Rachel's Experiment (D.T.)";"1.0";"2";"1";"1";"2";"1";"1";"2014-10-16 12:24:20.190";"2014-10-16 12:36:38.976";"1";"0";"0";"1";"0";"module.GoNoGotutorial.exec-6791.GoNoGo_Tutorial";;;;;;;;;;;;;;;;;;;;;;;;;;;;;;;;;;;;;;;;;;;;;;;;;;;;;;;;;;;;;;;;;;;;;;;;;;;;;;;;;;"3999";"2014-10-16 12:24:57.895";"leftResponse";"0";"FINISHED";"LEFT";"success";"564";"0";"2014-10-16 12:24:53.886"
"1224515";;;"Windows 7";"Rachel's Experiment (D.T.)";"1.0";"2";"1";"1";"2";"1";"1";"2014-10-16 12:24:20.190";"2014-10-16 12:36:38.976";"1";"0";"0";"2";"1";"module.GoNoGotutorial.exec-6791.GoNoGo_Tutorial";;;;;;;;;;;;;;;;;;;;;;;;;;;;;;;;;;;;;;;;;;;;;;;;;;;;;;;;;;;;;;;;;;;;;;;;;;;;;;;;;;"4003";"2014-10-16 12:25:03.199";"rightResponse";"1";"FINISHED";"RIGHT";"success";"616";"0";"2014-10-16 12:24:59.190"
"1224515";;;"Windows 7";"Rachel's Experiment (D.T.)";"1.0";"2";"1";"1";"2";"1";"1";"2014-10-16 12:24:20.190";"2014-10-16 12:36:38.976";"1";"0";"0";"3";"2";"module.GoNoGotutorial.exec-6791.GoNoGo_Tutorial";;;;;;;;;;;;;;;;;;;;;;;;;;;;;;;;;;;;;;;;;;;;;;;;;;;;;;;;;;;;;;;;;;;;;;;;;;;;;;;;;;"4003";"2014-10-16 12:25:08.503";"quickResponse";"0";"FINISHED";"LEFT";"success";"3408";"0";"2014-10-16 12:25:04.494"
"1224515";;;"Windows 7";"Rachel's Experiment (D.T.)";"1.0";"2";"1";"1";"2";"1";"1";"2014-10-16 12:24:20.190";"2014-10-16 12:36:38.976";"1";"0";"0";"4";"3";"module.GoNoGopractice.exec-1993.GoNoGo_Practice";;;;;;;;;;;;;;;;;;;;;;;;;;;;;;;;;;;;;;;;;;;;;;;;;;;;;;;;;;;;;;;;;;;;;;;"1959";"2014-10-16 12:25:15.741";"18";"0";"FINISHED";"LEFT";"success";"357";"0";"2014-10-16 12:25:13.776";"3";;;;;;;;;;
"1224515";;;"Windows 7";"Rachel's Experiment (D.T.)";"1.0";"2";"1";"1";"2";"1";"1";"2014-10-16 12:24:20.190";"2014-10-16 12:36:38.976";"1";"0";"0";"5";"4";"module.GoNoGopractice.exec-1993.GoNoGo_Practice";;;;;;;;;;;;;;;;;;;;;;;;;;;;;;;;;;;;;;;;;;;;;;;;;;;;;;;;;;;;;;;;;;;;;;;"1954";"2014-10-16 12:25:18.986";"21";"1";"FINISHED";"RIGHT";"success";"332";"0";"2014-10-16 12:25:17.020";"3";;;;;;;;;;
"1224515";;;"Windows 7";"Rachel's Experiment (D.T.)";"1.0";"2";"1";"1";"2";"1";"1";"2014-10-16 12:24:20.190";"2014-10-16 12:36:38.976";"1";"0";"0";"6";"5";"module.GoNoGopractice.exec-1993.GoNoGo_Practice";;;;;;;;;;;;;;;;;;;;;;;;;;;;;;;;;;;;;;;;;;;;;;;;;;;;;;;;;;;;;;;;;;;;;;;"1959";"2014-10-16 12:25:22.231";"14";"1";"FINISHED";"RIGHT";"success";"349";"0";"2014-10-16 12:25:20.265";"2";;;;;;;;;;
"1224515";;;"Windows 7";"Rachel's Experiment (D.T.)";"1.0";"2";"1";"1";"2";"1";"1";"2014-10-16 12:24:20.190";"2014-10-16 12:36:38.976";"1";"0";"0";"7";"6";"module.GoNoGopractice.exec-1993.GoNoGo_Practice";;;;;;;;;;;;;;;;;;;;;;;;;;;;;;;;;;;;;;;;;;;;;;;;;;;;;;;;;;;;;;;;;;;;;;;"1959";"2014-10-16 12:25:25.476";"26";"0";"FINISHED";"LEFT";"success";"303";"0";"2014-10-16 12:25:23.510";"3";;;;;;;;;;
"1224515";;;"Windows 7";"Rachel's Experiment (D.T.)";"1.0";"2";"1";"1";"2";"1";"1";"2014-10-16 12:24:20.190";"2014-10-16 12:36:38.976";"1";"0";"0";"8";"7";"module.GoNoGopractice.exec-1993.GoNoGo_Practice";;;;;;;;;;;;;;;;;;;;;;;;;;;;;;;;;;;;;;;;;;;;;;;;;;;;;;;;;;;;;;;;;;;;;;;"1959";"2014-10-16 12:25:28.720";"2";"0";"FINISHED";"LEFT";"success";"363";"0";"2014-10-16 12:25:26.755";"1";;;;;;;;;;
"1224515";;;"Windows 7";"Rachel's Experiment (D.T.)";"1.0";"2";"1";"1";"2";"1";"1";"2014-10-16 12:24:20.190";"2014-10-16 12:36:38.976";"1";"0";"0";"9";"8";"module.GoNoGopractice.exec-1993.GoNoGo_Practice";;;;;;;;;;;;;;;;;;;;;;;;;;;;;;;;;;;;;;;;;;;;;;;;;;;;;;;;;;;;;;;;;;;;;;;"1960";"2014-10-16 12:25:31.965";"30";"0";"FINISHED";"LEFT";"success";"439";"0";"2014-10-16 12:25:30.000";"3";;;;;;;;;;
"1224515";;;"Windows 7";"Rachel's Experiment (D.T.)";"1.0";"2";"1";"1";"2";"1";"1";"2014-10-16 12:24:20.190";"2014-10-16 12:36:38.976";"1";"0";"0";"10";"9";"module.GoNoGopractice.exec-1993.GoNoGo_Practice";;;;;;;;;;;;;;;;;;;;;;;;;;;;;;;;;;;;;;;;;;;;;;;;;;;;;;;;;;;;;;;;;;;;;;;"1959";"2014-10-16 12:25:35.210";"6";"1";"FINISHED";"RIGHT";"success";"441";"0";"2014-10-16 12:25:33.244";"1";;;;;;;;;;
"1224515";;;"Windows 7";"Rachel's Experiment (D.T.)";"1.0";"2";"1";"1";"2";"1";"1";"2014-10-16 12:24:20.190";"2014-10-16 12:36:38.976";"1";"0";"0";"11";"10";"module.GoNoGopractice.exec-1993.GoNoGo_Practice";;;;;;;;;;;;;;;;;;;;;;;;;;;;;;;;;;;;;;;;;;;;;;;;;;;;;;;;;;;;;;;;;;;;;;;"1960";"2014-10-16 12:25:38.455";"34";"0";"FINISHED";"LEFT";"success";"373";"0";"2014-10-16 12:25:36.489";"3";;;;;;;;;;
"1224515";;;"Windows 7";"Rachel's Experiment (D.T.)";"1.0";"2";"1";"1";"2";"1";"1";"2014-10-16 12:24:20.190";"2014-10-16 12:36:38.976";"1";"0";"0";"12";"11";"module.GoNoGopractice.exec-1993.GoNoGo_Practice";;;;;;;;;;;;;;;;;;;;;;;;;;;;;;;;;;;;;;;;;;;;;;;;;;;;;;;;;;;;;;;;;;;;;;;"1959";"2014-10-16 12:25:41.700";"23";"1";"FINISHED";"RIGHT";"success";"311";"0";"2014-10-16 12:25:39.734";"3";;;;;;;;;;
"1224515";;;"Windows 7";"Rachel's Experiment (D.T.)";"1.0";"2";"1";"1";"2";"1";"1";"2014-10-16 12:24:20.190";"2014-10-16 12:36:38.976";"1";"0";"0";"13";"12";"module.GoNoGopractice.exec-1993.GoNoGo_Practice";;;;;;;;;;;;;;;;;;;;;;;;;;;;;;;;;;;;;;;;;;;;;;;;;;;;;;;;;;;;;;;;;;;;;;;"1959";"2014-10-16 12:25:44.945";"13";"0";"FINISHED";"LEFT";"success";"347";"0";"2014-10-16 12:25:42.979";"2";;;;;;;;;;
"1224515";;;"Windows 7";"Rachel's Experiment (D.T.)";"1.0";"2";"1";"1";"2";"1";"1";"2014-10-16 12:24:20.190";"2014-10-16 12:36:38.976";"1";"0";"0";"14";"13";"module.GoNoGopractice.exec-1993.GoNoGo_Practice";;;;;;;;;;;;;;;;;;;;;;;;;;;;;;;;;;;;;;;;;;;;;;;;;;;;;;;;;;;;;;;;;;;;;;;"1960";"2014-10-16 12:25:48.189";"3";"1";"FINISHED";"RIGHT";"success";"351";"0";"2014-10-16 12:25:46.224";"1";;;;;;;;;;
"1224515";;;"Windows 7";"Rachel's Experiment (D.T.)";"1.0";"2";"1";"1";"2";"1";"1";"2014-10-16 12:24:20.190";"2014-10-16 12:36:38.976";"1";"0";"0";"15";"14";"module.GoNoGopractice.exec-1993.GoNoGo_Practice";;;;;;;;;;;;;;;;;;;;;;;;;;;;;;;;;;;;;;;;;;;;;;;;;;;;;;;;;;;;;;;;;;;;;;;"1958";"2014-10-16 12:25:51.528";"27";"1";"FINISHED";"RIGHT";"success";"378";"0";"2014-10-16 12:25:49.562";"3";;;;;;;;;;
"1224515";;;"Windows 7";"Rachel's Experiment (D.T.)";"1.0";"2";"1";"1";"2";"1";"1";"2014-10-16 12:24:20.190";"2014-10-16 12:36:38.976";"1";"0";"0";"16";"15";"module.training_block1.exec-3585.GoNoGo1";;;;;;;;;;;;;;;;;;;;;;;"1256";"2014-10-16 12:25:57.768";"NST_correctLoc";"22";"0";"FINISHED";"LEFT";"success";"419";"0";"2014-10-16 12:25:56.504";"3";;;;;;;;;;;;;;;;;;;;;;;;;;;;;;;;;;;;;;;;;;;;;;;;;;;;;;;;;
"1224515";;;"Windows 7";"Rachel's Experiment (D.T.)";"1.0";"2";"1";"1";"2";"1";"1";"2014-10-16 12:24:20.190";"2014-10-16 12:36:38.976";"1";"0";"0";"17";"16";"module.training_block1.exec-3585.GoNoGo1";;;;;;;;;;;;;;;;;;;;;;;"1258";"2014-10-16 12:26:00.311";"NST_correctLoc";"33";"0";"FINISHED";"LEFT";"success";"495";"0";"2014-10-16 12:25:59.047";"3";;;;;;;;;;;;;;;;;;;;;;;;;;;;;;;;;;;;;;;;;;;;;;;;;;;;;;;;;
"1224515";;;"Windows 7";"Rachel's Experiment (D.T.)";"1.0";"2";"1";"1";"2";"1";"1";"2014-10-16 12:24:20.190";"2014-10-16 12:36:38.976";"1";"0";"0";"18";"17";"module.training_block1.exec-3585.GoNoGo1";;;;;;;;;;;;;;;;;;;;;;;"1258";"2014-10-16 12:26:02.853";"NST_correctLoc";"9";"1";"FINISHED";"RIGHT";"success";"312";"0";"2014-10-16 12:26:01.590";"2";;;;;;;;;;;;;;;;;;;;;;;;;;;;;;;;;;;;;;;;;;;;;;;;;;;;;;;;;
"1224515";;;"Windows 7";"Rachel's Experiment (D.T.)";"1.0";"2";"1";"1";"2";"1";"1";"2014-10-16 12:24:20.190";"2014-10-16 12:36:38.976";"1";"0";"0";"19";"18";"module.training_block1.exec-3585.GoNoGo1";;;;;;;;;;;;;;;;;;;;;;;"1257";"2014-10-16 12:26:05.396";"NST_correctLoc";"8";"1";"FINISHED";"RIGHT";"success";"393";"0";"2014-10-16 12:26:04.133";"1";;;;;;;;;;;;;;;;;;;;;;;;;;;;;;;;;;;;;;;;;;;;;;;;;;;;;;;;;
"1224515";;;"Windows 7";"Rachel's Experiment (D.T.)";"1.0";"2";"1";"1";"2";"1";"1";"2014-10-16 12:24:20.190";"2014-10-16 12:36:38.976";"1";"0";"0";"20";"19";"module.training_block1.exec-3585.GoNoGo1";;;;;;;;;;;;;;;;;;;;;;;"1258";"2014-10-16 12:26:07.939";"NST_correctLoc";"34";"0";"FINISHED";"LEFT";"success";"315";"0";"2014-10-16 12:26:06.675";"3";;;;;;;;;;;;;;;;;;;;;;;;;;;;;;;;;;;;;;;;;;;;;;;;;;;;;;;;;
"1224515";;;"Windows 7";"Rachel's Experiment (D.T.)";"1.0";"2";"1";"1";"2";"1";"1";"2014-10-16 12:24:20.190";"2014-10-16 12:36:38.976";"1";"0";"0";"21";"20";"module.training_block1.exec-3585.GoNoGo1";;;;;;;;;;;;;;;;;;;;;;;"1257";"2014-10-16 12:26:10.482";"NST_correctLoc";"4";"1";"FINISHED";"RIGHT";"success";"355";"0";"2014-10-16 12:26:09.218";"1";;;;;;;;;;;;;;;;;;;;;;;;;;;;;;;;;;;;;;;;;;;;;;;;;;;;;;;;;
"1224515";;;"Windows 7";"Rachel's Experiment (D.T.)";"1.0";"2";"1";"1";"2";"1";"1";"2014-10-16 12:24:20.190";"2014-10-16 12:36:38.976";"1";"0";"0";"22";"21";"module.training_block1.exec-3585.GoNoGo1";;;;;;;;;;;;;;;;;;;;;;;"1258";"2014-10-16 12:26:13.025";"NST_correctLoc";"3";"1";"FINISHED";"RIGHT";"success";"334";"0";"2014-10-16 12:26:11.761";"1";;;;;;;;;;;;;;;;;;;;;;;;;;;;;;;;;;;;;;;;;;;;;;;;;;;;;;;;;
"1224515";;;"Windows 7";"Rachel's Experiment (D.T.)";"1.0";"2";"1";"1";"2";"1";"1";"2014-10-16 12:24:20.190";"2014-10-16 12:36:38.976";"1";"0";"0";"23";"22";"module.training_block1.exec-3585.GoNoGo1";;;;;;;;;;;;;;;;;;;;;;;"1257";"2014-10-16 12:26:15.567";"NST_correctLoc";"23";"1";"FINISHED";"RIGHT";"success";"342";"0";"2014-10-16 12:26:14.304";"3";;;;;;;;;;;;;;;;;;;;;;;;;;;;;;;;;;;;;;;;;;;;;;;;;;;;;;;;;
"1224515";;;"Windows 7";"Rachel's Experiment (D.T.)";"1.0";"2";"1";"1";"2";"1";"1";"2014-10-16 12:24:20.190";"2014-10-16 12:36:38.976";"1";"0";"0";"24";"23";"module.training_block1.exec-3585.GoNoGo1";;;;;;;;;;;;;;;;;;;;;;;"1257";"2014-10-16 12:26:18.110";"NST_correctLoc";"31";"0";"FINISHED";"LEFT";"success";"343";"0";"2014-10-16 12:26:16.847";"3";;;;;;;;;;;;;;;;;;;;;;;;;;;;;;;;;;;;;;;;;;;;;;;;;;;;;;;;;
"1224515";;;"Windows 7";"Rachel's Experiment (D.T.)";"1.0";"2";"1";"1";"2";"1";"1";"2014-10-16 12:24:20.190";"2014-10-16 12:36:38.976";"1";"0";"0";"25";"24";"module.training_block1.exec-3585.GoNoGo1";;;;;;;;;;;;;;;;;;;;;;;"1258";"2014-10-16 12:26:20.653";"NST_correctLoc";"19";"1";"FINISHED";"RIGHT";"success";"353";"0";"2014-10-16 12:26:19.389";"3";;;;;;;;;;;;;;;;;;;;;;;;;;;;;;;;;;;;;;;;;;;;;;;;;;;;;;;;;
"1224515";;;"Windows 7";"Rachel's Experiment (D.T.)";"1.0";"2";"1";"1";"2";"1";"1";"2014-10-16 12:24:20.190";"2014-10-16 12:36:38.976";"1";"0";"0";"26";"25";"module.training_block1.exec-3585.GoNoGo1";;;;;;;;;;;;;;;;;;;;;;;"1258";"2014-10-16 12:26:23.196";"NST_correctLoc";"18";"1";"FINISHED";"RIGHT";"success";"338";"0";"2014-10-16 12:26:21.932";"3";;;;;;;;;;;;;;;;;;;;;;;;;;;;;;;;;;;;;;;;;;;;;;;;;;;;;;;;;
"1224515";;;"Windows 7";"Rachel's Experiment (D.T.)";"1.0";"2";"1";"1";"2";"1";"1";"2014-10-16 12:24:20.190";"2014-10-16 12:36:38.976";"1";"0";"0";"27";"26";"module.training_block1.exec-3585.GoNoGo1";;;;;;;;;;;;;;;;;;;;;;;"1257";"2014-10-16 12:26:25.739";"NST_correctLoc";"21";"0";"FINISHED";"LEFT";"success";"346";"0";"2014-10-16 12:26:24.475";"3";;;;;;;;;;;;;;;;;;;;;;;;;;;;;;;;;;;;;;;;;;;;;;;;;;;;;;;;;
"1224515";;;"Windows 7";"Rachel's Experiment (D.T.)";"1.0";"2";"1";"1";"2";"1";"1";"2014-10-16 12:24:20.190";"2014-10-16 12:36:38.976";"1";"0";"0";"28";"27";"module.training_block1.exec-3585.GoNoGo1";;;;;;;;;;;;;;;;;;;;;;;"1256";"2014-10-16 12:26:28.281";"NST_correctLoc";"17";"0";"FINISHED";"LEFT";"success";"355";"0";"2014-10-16 12:26:27.018";"2";;;;;;;;;;;;;;;;;;;;;;;;;;;;;;;;;;;;;;;;;;;;;;;;;;;;;;;;;
"1224515";;;"Windows 7";"Rachel's Experiment (D.T.)";"1.0";"2";"1";"1";"2";"1";"1";"2014-10-16 12:24:20.190";"2014-10-16 12:36:38.976";"1";"0";"0";"29";"28";"module.training_block1.exec-3585.GoNoGo1";;;;;;;;;;;;;;;;;;;;;;;"1258";"2014-10-16 12:26:30.824";"NST_correctLoc";"24";"1";"FINISHED";"RIGHT";"success";"381";"0";"2014-10-16 12:26:29.561";"3";;;;;;;;;;;;;;;;;;;;;;;;;;;;;;;;;;;;;;;;;;;;;;;;;;;;;;;;;
"1224515";;;"Windows 7";"Rachel's Experiment (D.T.)";"1.0";"2";"1";"1";"2";"1";"1";"2014-10-16 12:24:20.190";"2014-10-16 12:36:38.976";"1";"0";"0";"30";"29";"module.training_block1.exec-3585.GoNoGo1";;;;;;;;;;;;;;;;;;;;;;;"1258";"2014-10-16 12:26:33.367";"NST_correctLoc";"12";"0";"FINISHED";"LEFT";"success";"303";"0";"2014-10-16 12:26:32.103";"2";;;;;;;;;;;;;;;;;;;;;;;;;;;;;;;;;;;;;;;;;;;;;;;;;;;;;;;;;
"1224515";;;"Windows 7";"Rachel's Experiment (D.T.)";"1.0";"2";"1";"1";"2";"1";"1";"2014-10-16 12:24:20.190";"2014-10-16 12:36:38.976";"1";"0";"0";"31";"30";"module.training_block1.exec-3585.GoNoGo1";;;;;;;;;;;;;;;;;;;;;;;"1257";"2014-10-16 12:26:35.910";"NST_correctLoc";"10";"1";"FINISHED";"RIGHT";"success";"335";"0";"2014-10-16 12:26:34.646";"2";;;;;;;;;;;;;;;;;;;;;;;;;;;;;;;;;;;;;;;;;;;;;;;;;;;;;;;;;
"1224515";;;"Windows 7";"Rachel's Experiment (D.T.)";"1.0";"2";"1";"1";"2";"1";"1";"2014-10-16 12:24:20.190";"2014-10-16 12:36:38.976";"1";"0";"0";"32";"31";"module.training_block1.exec-3585.GoNoGo1";;;;;;;;;;;;;;;;;;;;;;;"1258";"2014-10-16 12:26:38.453";"NST_correctLoc";"5";"0";"FINISHED";"LEFT";"success";"345";"0";"2014-10-16 12:26:37.189";"1";;;;;;;;;;;;;;;;;;;;;;;;;;;;;;;;;;;;;;;;;;;;;;;;;;;;;;;;;
"1224515";;;"Windows 7";"Rachel's Experiment (D.T.)";"1.0";"2";"1";"1";"2";"1";"1";"2014-10-16 12:24:20.190";"2014-10-16 12:36:38.976";"1";"0";"0";"33";"32";"module.training_block1.exec-3585.GoNoGo1";;;;;;;;;;;;;;;;;;;;;;;"1258";"2014-10-16 12:26:40.995";"NST_correctLoc";"35";"1";"FINISHED";"RIGHT";"success";"338";"0";"2014-10-16 12:26:39.732";"3";;;;;;;;;;;;;;;;;;;;;;;;;;;;;;;;;;;;;;;;;;;;;;;;;;;;;;;;;
"1224515";;;"Windows 7";"Rachel's Experiment (D.T.)";"1.0";"2";"1";"1";"2";"1";"1";"2014-10-16 12:24:20.190";"2014-10-16 12:36:38.976";"1";"0";"0";"34";"33";"module.training_block1.exec-3585.GoNoGo1";;;;;;;;;;;;;;;;;;;;;;;"1257";"2014-10-16 12:26:43.538";"NST_correctLoc";"7";"0";"FINISHED";"LEFT";"success";"379";"0";"2014-10-16 12:26:42.275";"1";;;;;;;;;;;;;;;;;;;;;;;;;;;;;;;;;;;;;;;;;;;;;;;;;;;;;;;;;
"1224515";;;"Windows 7";"Rachel's Experiment (D.T.)";"1.0";"2";"1";"1";"2";"1";"1";"2014-10-16 12:24:20.190";"2014-10-16 12:36:38.976";"1";"0";"0";"35";"34";"module.training_block1.exec-3585.GoNoGo1";;;;;;;;;;;;;;;;;;;;;;;"1258";"2014-10-16 12:26:46.081";"NST_correctLoc";"0";"1";"FINISHED";"RIGHT";"success";"324";"0";"2014-10-16 12:26:44.817";"1";;;;;;;;;;;;;;;;;;;;;;;;;;;;;;;;;;;;;;;;;;;;;;;;;;;;;;;;;
"1224515";;;"Windows 7";"Rachel's Experiment (D.T.)";"1.0";"2";"1";"1";"2";"1";"1";"2014-10-16 12:24:20.190";"2014-10-16 12:36:38.976";"1";"0";"0";"36";"35";"module.training_block1.exec-3585.GoNoGo1";;;;;;;;;;;;;;;;;;;;;;;"1257";"2014-10-16 12:26:48.624";"NST_correctLoc";"32";"1";"FINISHED";"RIGHT";"success";"341";"0";"2014-10-16 12:26:47.360";"3";;;;;;;;;;;;;;;;;;;;;;;;;;;;;;;;;;;;;;;;;;;;;;;;;;;;;;;;;
"1224515";;;"Windows 7";"Rachel's Experiment (D.T.)";"1.0";"2";"1";"1";"2";"1";"1";"2014-10-16 12:24:20.190";"2014-10-16 12:36:38.976";"1";"0";"0";"37";"36";"module.training_block1.exec-3585.GoNoGo1";;;;;;;;;;;;;;;;;;;;;;;"1258";"2014-10-16 12:26:51.167";"NST_correctLoc";"30";"1";"FINISHED";"RIGHT";"success";"359";"0";"2014-10-16 12:26:49.903";"3";;;;;;;;;;;;;;;;;;;;;;;;;;;;;;;;;;;;;;;;;;;;;;;;;;;;;;;;;
"1224515";;;"Windows 7";"Rachel's Experiment (D.T.)";"1.0";"2";"1";"1";"2";"1";"1";"2014-10-16 12:24:20.190";"2014-10-16 12:36:38.976";"1";"0";"0";"38";"37";"module.training_block1.exec-3585.GoNoGo1";;;;;;;;;;;;;;;;;;;;;;;"1257";"2014-10-16 12:26:53.709";"NST_correctLoc";"14";"1";"FINISHED";"RIGHT";"success";"272";"0";"2014-10-16 12:26:52.446";"2";;;;;;;;;;;;;;;;;;;;;;;;;;;;;;;;;;;;;;;;;;;;;;;;;;;;;;;;;
"1224515";;;"Windows 7";"Rachel's Experiment (D.T.)";"1.0";"2";"1";"1";"2";"1";"1";"2014-10-16 12:24:20.190";"2014-10-16 12:36:38.976";"1";"0";"0";"39";"38";"module.training_block1.exec-3585.GoNoGo1";;;;;;;;;;;;;;;;;;;;;;;"1257";"2014-10-16 12:26:56.252";"NST_correctLoc";"15";"0";"FINISHED";"LEFT";"success";"288";"0";"2014-10-16 12:26:54.989";"2";;;;;;;;;;;;;;;;;;;;;;;;;;;;;;;;;;;;;;;;;;;;;;;;;;;;;;;;;
"1224515";;;"Windows 7";"Rachel's Experiment (D.T.)";"1.0";"2";"1";"1";"2";"1";"1";"2014-10-16 12:24:20.190";"2014-10-16 12:36:38.976";"1";"0";"0";"40";"39";"module.training_block1.exec-3585.GoNoGo1";;;;;;;;;;;;;;;;;;;;;;;"1257";"2014-10-16 12:26:58.795";"NST_correctLoc";"16";"1";"FINISHED";"RIGHT";"success";"369";"0";"2014-10-16 12:26:57.531";"2";;;;;;;;;;;;;;;;;;;;;;;;;;;;;;;;;;;;;;;;;;;;;;;;;;;;;;;;;
"1224515";;;"Windows 7";"Rachel's Experiment (D.T.)";"1.0";"2";"1";"1";"2";"1";"1";"2014-10-16 12:24:20.190";"2014-10-16 12:36:38.976";"1";"0";"0";"41";"40";"module.training_block1.exec-3585.GoNoGo1";;;;;;;;;;;;;;;;;;;;;;;"1258";"2014-10-16 12:27:01.338";"NST_correctLoc";"11";"1";"FINISHED";"RIGHT";"success";"291";"0";"2014-10-16 12:27:00.074";"2";;;;;;;;;;;;;;;;;;;;;;;;;;;;;;;;;;;;;;;;;;;;;;;;;;;;;;;;;
"1224515";;;"Windows 7";"Rachel's Experiment (D.T.)";"1.0";"2";"1";"1";"2";"1";"1";"2014-10-16 12:24:20.190";"2014-10-16 12:36:38.976";"1";"0";"0";"42";"41";"module.training_block1.exec-3585.GoNoGo1";;;;;;;;;;;;;;;;;;;;;;;"1258";"2014-10-16 12:27:03.881";"NST_correctLoc";"28";"1";"FINISHED";"RIGHT";"success";"317";"0";"2014-10-16 12:27:02.617";"3";;;;;;;;;;;;;;;;;;;;;;;;;;;;;;;;;;;;;;;;;;;;;;;;;;;;;;;;;
"1224515";;;"Windows 7";"Rachel's Experiment (D.T.)";"1.0";"2";"1";"1";"2";"1";"1";"2014-10-16 12:24:20.190";"2014-10-16 12:36:38.976";"1";"0";"0";"43";"42";"module.training_block1.exec-3585.GoNoGo1";;;;;;;;;;;;;;;;;;;;;;;"1257";"2014-10-16 12:27:06.423";"NST_correctLoc";"26";"1";"FINISHED";"RIGHT";"success";"349";"0";"2014-10-16 12:27:05.160";"3";;;;;;;;;;;;;;;;;;;;;;;;;;;;;;;;;;;;;;;;;;;;;;;;;;;;;;;;;
"1224515";;;"Windows 7";"Rachel's Experiment (D.T.)";"1.0";"2";"1";"1";"2";"1";"1";"2014-10-16 12:24:20.190";"2014-10-16 12:36:38.976";"1";"0";"0";"44";"43";"module.training_block1.exec-3585.GoNoGo1";;;;;;;;;;;;;;;;;;;;;;;"1257";"2014-10-16 12:27:08.966";"NST_correctLoc";"6";"0";"FINISHED";"LEFT";"success";"359";"0";"2014-10-16 12:27:07.703";"1";;;;;;;;;;;;;;;;;;;;;;;;;;;;;;;;;;;;;;;;;;;;;;;;;;;;;;;;;
"1224515";;;"Windows 7";"Rachel's Experiment (D.T.)";"1.0";"2";"1";"1";"2";"1";"1";"2014-10-16 12:24:20.190";"2014-10-16 12:36:38.976";"1";"0";"0";"45";"44";"module.training_block1.exec-3585.GoNoGo1";;;;;;;;;;;;;;;;;;;;;;;"1258";"2014-10-16 12:27:11.509";"NST_correctLoc";"25";"0";"FINISHED";"LEFT";"success";"560";"0";"2014-10-16 12:27:10.245";"3";;;;;;;;;;;;;;;;;;;;;;;;;;;;;;;;;;;;;;;;;;;;;;;;;;;;;;;;;
"1224515";;;"Windows 7";"Rachel's Experiment (D.T.)";"1.0";"2";"1";"1";"2";"1";"1";"2014-10-16 12:24:20.190";"2014-10-16 12:36:38.976";"1";"0";"0";"46";"45";"module.training_block1.exec-3585.GoNoGo1";;;;;;;;;;;;;;;;;;;;;;;"1258";"2014-10-16 12:27:14.052";"NST_correctLoc";"20";"1";"FINISHED";"RIGHT";"success";"329";"0";"2014-10-16 12:27:12.788";"3";;;;;;;;;;;;;;;;;;;;;;;;;;;;;;;;;;;;;;;;;;;;;;;;;;;;;;;;;
"1224515";;;"Windows 7";"Rachel's Experiment (D.T.)";"1.0";"2";"1";"1";"2";"1";"1";"2014-10-16 12:24:20.190";"2014-10-16 12:36:38.976";"1";"0";"0";"47";"46";"module.training_block1.exec-3585.GoNoGo1";;;;;;;;;;;;;;;;;;;;;;;"1258";"2014-10-16 12:27:16.595";"NST_correctLoc";"29";"0";"FINISHED";"LEFT";"success";"346";"0";"2014-10-16 12:27:15.331";"3";;;;;;;;;;;;;;;;;;;;;;;;;;;;;;;;;;;;;;;;;;;;;;;;;;;;;;;;;
"1224515";;;"Windows 7";"Rachel's Experiment (D.T.)";"1.0";"2";"1";"1";"2";"1";"1";"2014-10-16 12:24:20.190";"2014-10-16 12:36:38.976";"1";"0";"0";"48";"47";"module.training_block1.exec-3585.GoNoGo1";;;;;;;;;;;;;;;;;;;;;;;"1257";"2014-10-16 12:27:19.137";"NST_correctLoc";"13";"1";"FINISHED";"RIGHT";"success";"315";"0";"2014-10-16 12:27:17.874";"2";;;;;;;;;;;;;;;;;;;;;;;;;;;;;;;;;;;;;;;;;;;;;;;;;;;;;;;;;
"1224515";;;"Windows 7";"Rachel's Experiment (D.T.)";"1.0";"2";"1";"1";"2";"1";"1";"2014-10-16 12:24:20.190";"2014-10-16 12:36:38.976";"1";"0";"0";"49";"48";"module.training_block1.exec-3585.GoNoGo1";;;;;;;;;;;;;;;;;;;;;;;"1257";"2014-10-16 12:27:21.680";"NST_correctLoc";"2";"1";"FINISHED";"RIGHT";"success";"333";"0";"2014-10-16 12:27:20.417";"1";;;;;;;;;;;;;;;;;;;;;;;;;;;;;;;;;;;;;;;;;;;;;;;;;;;;;;;;;
"1224515";;;"Windows 7";"Rachel's Experiment (D.T.)";"1.0";"2";"1";"1";"2";"1";"1";"2014-10-16 12:24:20.190";"2014-10-16 12:36:38.976";"1";"0";"0";"50";"49";"module.training_block1.exec-3585.GoNoGo1";;;;;;;;;;;;;;;;;;;;;;;"1261";"2014-10-16 12:27:24.223";"NST_correctLoc";"27";"0";"FINISHED";"LEFT";"success";"354";"0";"2014-10-16 12:27:22.959";"3";;;;;;;;;;;;;;;;;;;;;;;;;;;;;;;;;;;;;;;;;;;;;;;;;;;;;;;;;
"1224515";;;"Windows 7";"Rachel's Experiment (D.T.)";"1.0";"2";"1";"1";"2";"1";"1";"2014-10-16 12:24:20.190";"2014-10-16 12:36:38.976";"1";"0";"0";"51";"50";"module.training_block1.exec-3585.GoNoGo1";;;;;;;;;;;;;;;;;;;;;;;"1258";"2014-10-16 12:27:26.766";"NST_correctLoc";"1";"0";"FINISHED";"LEFT";"success";"375";"0";"2014-10-16 12:27:25.502";"1";;;;;;;;;;;;;;;;;;;;;;;;;;;;;;;;;;;;;;;;;;;;;;;;;;;;;;;;;
"1224515";;;"Windows 7";"Rachel's Experiment (D.T.)";"1.0";"2";"1";"1";"2";"1";"1";"2014-10-16 12:24:20.190";"2014-10-16 12:36:38.976";"1";"0";"0";"52";"51";"module.training_block2.exec-7584.GoNoGo2";;;;;;;;;;;;;;;;;;;;;;;;;;;;;;;;;;;"1261";"2014-10-16 12:27:37.639";"NST_correctLoc";"23";"1";"FINISHED";"RIGHT";"success";"345";"0";"2014-10-16 12:27:36.376";"3";;;;;;;;;;;;;;;;;;;;;;;;;;;;;;;;;;;;;;;;;;;;;
"1224515";;;"Windows 7";"Rachel's Experiment (D.T.)";"1.0";"2";"1";"1";"2";"1";"1";"2014-10-16 12:24:20.190";"2014-10-16 12:36:38.976";"1";"0";"0";"53";"52";"module.training_block2.exec-7584.GoNoGo2";;;;;;;;;;;;;;;;;;;;;;;;;;;;;;;;;;;"1261";"2014-10-16 12:27:40.182";"NST_correctLoc";"11";"1";"FINISHED";"RIGHT";"success";"363";"0";"2014-10-16 12:27:38.918";"2";;;;;;;;;;;;;;;;;;;;;;;;;;;;;;;;;;;;;;;;;;;;;
"1224515";;;"Windows 7";"Rachel's Experiment (D.T.)";"1.0";"2";"1";"1";"2";"1";"1";"2014-10-16 12:24:20.190";"2014-10-16 12:36:38.976";"1";"0";"0";"54";"53";"module.training_block2.exec-7584.GoNoGo2";;;;;;;;;;;;;;;;;;;;;;;;;;;;;;;;;;;"1261";"2014-10-16 12:27:42.725";"NST_correctLoc";"4";"1";"FINISHED";"RIGHT";"success";"300";"0";"2014-10-16 12:27:41.461";"1";;;;;;;;;;;;;;;;;;;;;;;;;;;;;;;;;;;;;;;;;;;;;
"1224515";;;"Windows 7";"Rachel's Experiment (D.T.)";"1.0";"2";"1";"1";"2";"1";"1";"2014-10-16 12:24:20.190";"2014-10-16 12:36:38.976";"1";"0";"0";"55";"54";"module.training_block2.exec-7584.GoNoGo2";;;;;;;;;;;;;;;;;;;;;;;;;;;;;;;;;;;"1261";"2014-10-16 12:27:45.268";"NST_correctLoc";"18";"1";"FINISHED";"RIGHT";"success";"349";"0";"2014-10-16 12:27:44.004";"3";;;;;;;;;;;;;;;;;;;;;;;;;;;;;;;;;;;;;;;;;;;;;
"1224515";;;"Windows 7";"Rachel's Experiment (D.T.)";"1.0";"2";"1";"1";"2";"1";"1";"2014-10-16 12:24:20.190";"2014-10-16 12:36:38.976";"1";"0";"0";"56";"55";"module.training_block2.exec-7584.GoNoGo2";;;;;;;;;;;;;;;;;;;;;;;;;;;;;;;;;;;"1261";"2014-10-16 12:27:47.810";"NST_correctLoc";"17";"0";"FINISHED";"LEFT";"success";"350";"0";"2014-10-16 12:27:46.547";"2";;;;;;;;;;;;;;;;;;;;;;;;;;;;;;;;;;;;;;;;;;;;;
"1224515";;;"Windows 7";"Rachel's Experiment (D.T.)";"1.0";"2";"1";"1";"2";"1";"1";"2014-10-16 12:24:20.190";"2014-10-16 12:36:38.976";"1";"0";"0";"57";"56";"module.training_block2.exec-7584.GoNoGo2";;;;;;;;;;;;;;;;;;;;;;;;;;;;;;;;;;;"1261";"2014-10-16 12:27:50.353";"NST_correctLoc";"21";"1";"FINISHED";"RIGHT";"success";"335";"0";"2014-10-16 12:27:49.090";"3";;;;;;;;;;;;;;;;;;;;;;;;;;;;;;;;;;;;;;;;;;;;;
"1224515";;;"Windows 7";"Rachel's Experiment (D.T.)";"1.0";"2";"1";"1";"2";"1";"1";"2014-10-16 12:24:20.190";"2014-10-16 12:36:38.976";"1";"0";"0";"58";"57";"module.training_block2.exec-7584.GoNoGo2";;;;;;;;;;;;;;;;;;;;;;;;;;;;;;;;;;;"1261";"2014-10-16 12:27:52.896";"NST_correctLoc";"0";"0";"FINISHED";"LEFT";"success";"312";"0";"2014-10-16 12:27:51.632";"1";;;;;;;;;;;;;;;;;;;;;;;;;;;;;;;;;;;;;;;;;;;;;
"1224515";;;"Windows 7";"Rachel's Experiment (D.T.)";"1.0";"2";"1";"1";"2";"1";"1";"2014-10-16 12:24:20.190";"2014-10-16 12:36:38.976";"1";"0";"0";"59";"58";"module.training_block2.exec-7584.GoNoGo2";;;;;;;;;;;;;;;;;;;;;;;;;;;;;;;;;;;"1261";"2014-10-16 12:27:55.439";"NST_correctLoc";"29";"0";"FINISHED";"LEFT";"success";"402";"0";"2014-10-16 12:27:54.175";"3";;;;;;;;;;;;;;;;;;;;;;;;;;;;;;;;;;;;;;;;;;;;;
"1224515";;;"Windows 7";"Rachel's Experiment (D.T.)";"1.0";"2";"1";"1";"2";"1";"1";"2014-10-16 12:24:20.190";"2014-10-16 12:36:38.976";"1";"0";"0";"60";"59";"module.training_block2.exec-7584.GoNoGo2";;;;;;;;;;;;;;;;;;;;;;;;;;;;;;;;;;;"1261";"2014-10-16 12:27:57.982";"NST_wrongLoc";"25";"0";"FINISHED";"RIGHT";"failure";"227";"0";"2014-10-16 12:27:56.718";"3";;;;;;;;;;;;;;;;;;;;;;;;;;;;;;;;;;;;;;;;;;;;;
"1224515";;;"Windows 7";"Rachel's Experiment (D.T.)";"1.0";"2";"1";"1";"2";"1";"1";"2014-10-16 12:24:20.190";"2014-10-16 12:36:38.976";"1";"0";"0";"61";"60";"module.training_block2.exec-7584.GoNoGo2";;;;;;;;;;;;;;;;;;;;;;;;;;;;;;;;;;;"1261";"2014-10-16 12:28:00.524";"NST_correctLoc";"34";"0";"FINISHED";"LEFT";"success";"340";"0";"2014-10-16 12:27:59.261";"3";;;;;;;;;;;;;;;;;;;;;;;;;;;;;;;;;;;;;;;;;;;;;
"1224515";;;"Windows 7";"Rachel's Experiment (D.T.)";"1.0";"2";"1";"1";"2";"1";"1";"2014-10-16 12:24:20.190";"2014-10-16 12:36:38.976";"1";"0";"0";"62";"61";"module.training_block2.exec-7584.GoNoGo2";;;;;;;;;;;;;;;;;;;;;;;;;;;;;;;;;;;"1261";"2014-10-16 12:28:03.067";"NST_correctLoc";"15";"1";"FINISHED";"RIGHT";"success";"317";"0";"2014-10-16 12:28:01.804";"2";;;;;;;;;;;;;;;;;;;;;;;;;;;;;;;;;;;;;;;;;;;;;
"1224515";;;"Windows 7";"Rachel's Experiment (D.T.)";"1.0";"2";"1";"1";"2";"1";"1";"2014-10-16 12:24:20.190";"2014-10-16 12:36:38.976";"1";"0";"0";"63";"62";"module.training_block2.exec-7584.GoNoGo2";;;;;;;;;;;;;;;;;;;;;;;;;;;;;;;;;;;"1261";"2014-10-16 12:28:05.610";"NST_correctLoc";"20";"0";"FINISHED";"LEFT";"success";"350";"0";"2014-10-16 12:28:04.346";"3";;;;;;;;;;;;;;;;;;;;;;;;;;;;;;;;;;;;;;;;;;;;;
"1224515";;;"Windows 7";"Rachel's Experiment (D.T.)";"1.0";"2";"1";"1";"2";"1";"1";"2014-10-16 12:24:20.190";"2014-10-16 12:36:38.976";"1";"0";"0";"64";"63";"module.training_block2.exec-7584.GoNoGo2";;;;;;;;;;;;;;;;;;;;;;;;;;;;;;;;;;;"1261";"2014-10-16 12:28:08.153";"NST_correctLoc";"19";"1";"FINISHED";"RIGHT";"success";"312";"0";"2014-10-16 12:28:06.889";"3";;;;;;;;;;;;;;;;;;;;;;;;;;;;;;;;;;;;;;;;;;;;;
"1224515";;;"Windows 7";"Rachel's Experiment (D.T.)";"1.0";"2";"1";"1";"2";"1";"1";"2014-10-16 12:24:20.190";"2014-10-16 12:36:38.976";"1";"0";"0";"65";"64";"module.training_block2.exec-7584.GoNoGo2";;;;;;;;;;;;;;;;;;;;;;;;;;;;;;;;;;;"1261";"2014-10-16 12:28:10.696";"NST_correctLoc";"7";"1";"FINISHED";"RIGHT";"success";"401";"0";"2014-10-16 12:28:09.432";"1";;;;;;;;;;;;;;;;;;;;;;;;;;;;;;;;;;;;;;;;;;;;;
"1224515";;;"Windows 7";"Rachel's Experiment (D.T.)";"1.0";"2";"1";"1";"2";"1";"1";"2014-10-16 12:24:20.190";"2014-10-16 12:36:38.976";"1";"0";"0";"66";"65";"module.training_block2.exec-7584.GoNoGo2";;;;;;;;;;;;;;;;;;;;;;;;;;;;;;;;;;;"1261";"2014-10-16 12:28:13.238";"NST_correctLoc";"30";"0";"FINISHED";"LEFT";"success";"370";"0";"2014-10-16 12:28:11.975";"3";;;;;;;;;;;;;;;;;;;;;;;;;;;;;;;;;;;;;;;;;;;;;
"1224515";;;"Windows 7";"Rachel's Experiment (D.T.)";"1.0";"2";"1";"1";"2";"1";"1";"2014-10-16 12:24:20.190";"2014-10-16 12:36:38.976";"1";"0";"0";"67";"66";"module.training_block2.exec-7584.GoNoGo2";;;;;;;;;;;;;;;;;;;;;;;;;;;;;;;;;;;"1261";"2014-10-16 12:28:15.781";"NST_correctLoc";"3";"1";"FINISHED";"RIGHT";"success";"323";"0";"2014-10-16 12:28:14.518";"1";;;;;;;;;;;;;;;;;;;;;;;;;;;;;;;;;;;;;;;;;;;;;
"1224515";;;"Windows 7";"Rachel's Experiment (D.T.)";"1.0";"2";"1";"1";"2";"1";"1";"2014-10-16 12:24:20.190";"2014-10-16 12:36:38.976";"1";"0";"0";"68";"67";"module.training_block2.exec-7584.GoNoGo2";;;;;;;;;;;;;;;;;;;;;;;;;;;;;;;;;;;"1261";"2014-10-16 12:28:18.324";"NST_correctLoc";"8";"1";"FINISHED";"RIGHT";"success";"348";"0";"2014-10-16 12:28:17.060";"1";;;;;;;;;;;;;;;;;;;;;;;;;;;;;;;;;;;;;;;;;;;;;
"1224515";;;"Windows 7";"Rachel's Experiment (D.T.)";"1.0";"2";"1";"1";"2";"1";"1";"2014-10-16 12:24:20.190";"2014-10-16 12:36:38.976";"1";"0";"0";"69";"68";"module.training_block2.exec-7584.GoNoGo2";;;;;;;;;;;;;;;;;;;;;;;;;;;;;;;;;;;"1261";"2014-10-16 12:28:20.867";"NST_correctLoc";"12";"1";"FINISHED";"RIGHT";"success";"325";"0";"2014-10-16 12:28:19.603";"2";;;;;;;;;;;;;;;;;;;;;;;;;;;;;;;;;;;;;;;;;;;;;
"1224515";;;"Windows 7";"Rachel's Experiment (D.T.)";"1.0";"2";"1";"1";"2";"1";"1";"2014-10-16 12:24:20.190";"2014-10-16 12:36:38.976";"1";"0";"0";"70";"69";"module.training_block2.exec-7584.GoNoGo2";;;;;;;;;;;;;;;;;;;;;;;;;;;;;;;;;;;"1261";"2014-10-16 12:28:23.410";"NST_wrongLoc";"33";"0";"FINISHED";"RIGHT";"failure";"767";"0";"2014-10-16 12:28:22.146";"3";;;;;;;;;;;;;;;;;;;;;;;;;;;;;;;;;;;;;;;;;;;;;
"1224515";;;"Windows 7";"Rachel's Experiment (D.T.)";"1.0";"2";"1";"1";"2";"1";"1";"2014-10-16 12:24:20.190";"2014-10-16 12:36:38.976";"1";"0";"0";"71";"70";"module.training_block2.exec-7584.GoNoGo2";;;;;;;;;;;;;;;;;;;;;;;;;;;;;;;;;;;"1261";"2014-10-16 12:28:25.952";"NST_correctLoc";"10";"0";"FINISHED";"LEFT";"success";"384";"0";"2014-10-16 12:28:24.689";"2";;;;;;;;;;;;;;;;;;;;;;;;;;;;;;;;;;;;;;;;;;;;;
"1224515";;;"Windows 7";"Rachel's Experiment (D.T.)";"1.0";"2";"1";"1";"2";"1";"1";"2014-10-16 12:24:20.190";"2014-10-16 12:36:38.976";"1";"0";"0";"72";"71";"module.training_block2.exec-7584.GoNoGo2";;;;;;;;;;;;;;;;;;;;;;;;;;;;;;;;;;;"1261";"2014-10-16 12:28:28.495";"NST_correctLoc";"9";"0";"FINISHED";"LEFT";"success";"393";"0";"2014-10-16 12:28:27.232";"2";;;;;;;;;;;;;;;;;;;;;;;;;;;;;;;;;;;;;;;;;;;;;
"1224515";;;"Windows 7";"Rachel's Experiment (D.T.)";"1.0";"2";"1";"1";"2";"1";"1";"2014-10-16 12:24:20.190";"2014-10-16 12:36:38.976";"1";"0";"0";"73";"72";"module.training_block2.exec-7584.GoNoGo2";;;;;;;;;;;;;;;;;;;;;;;;;;;;;;;;;;;"1261";"2014-10-16 12:28:31.038";"NST_correctLoc";"14";"0";"FINISHED";"LEFT";"success";"386";"0";"2014-10-16 12:28:29.774";"2";;;;;;;;;;;;;;;;;;;;;;;;;;;;;;;;;;;;;;;;;;;;;
"1224515";;;"Windows 7";"Rachel's Experiment (D.T.)";"1.0";"2";"1";"1";"2";"1";"1";"2014-10-16 12:24:20.190";"2014-10-16 12:36:38.976";"1";"0";"0";"74";"73";"module.training_block2.exec-7584.GoNoGo2";;;;;;;;;;;;;;;;;;;;;;;;;;;;;;;;;;;"1261";"2014-10-16 12:28:33.581";"NST_correctLoc";"2";"0";"FINISHED";"LEFT";"success";"371";"0";"2014-10-16 12:28:32.317";"1";;;;;;;;;;;;;;;;;;;;;;;;;;;;;;;;;;;;;;;;;;;;;
"1224515";;;"Windows 7";"Rachel's Experiment (D.T.)";"1.0";"2";"1";"1";"2";"1";"1";"2014-10-16 12:24:20.190";"2014-10-16 12:36:38.976";"1";"0";"0";"75";"74";"module.training_block2.exec-7584.GoNoGo2";;;;;;;;;;;;;;;;;;;;;;;;;;;;;;;;;;;"1261";"2014-10-16 12:28:36.124";"NST_correctLoc";"22";"0";"FINISHED";"LEFT";"success";"389";"0";"2014-10-16 12:28:34.860";"3";;;;;;;;;;;;;;;;;;;;;;;;;;;;;;;;;;;;;;;;;;;;;
"1224515";;;"Windows 7";"Rachel's Experiment (D.T.)";"1.0";"2";"1";"1";"2";"1";"1";"2014-10-16 12:24:20.190";"2014-10-16 12:36:38.976";"1";"0";"0";"76";"75";"module.training_block2.exec-7584.GoNoGo2";;;;;;;;;;;;;;;;;;;;;;;;;;;;;;;;;;;"1261";"2014-10-16 12:28:38.666";"NST_correctLoc";"32";"0";"FINISHED";"LEFT";"success";"366";"0";"2014-10-16 12:28:37.403";"3";;;;;;;;;;;;;;;;;;;;;;;;;;;;;;;;;;;;;;;;;;;;;
"1224515";;;"Windows 7";"Rachel's Experiment (D.T.)";"1.0";"2";"1";"1";"2";"1";"1";"2014-10-16 12:24:20.190";"2014-10-16 12:36:38.976";"1";"0";"0";"77";"76";"module.training_block2.exec-7584.GoNoGo2";;;;;;;;;;;;;;;;;;;;;;;;;;;;;;;;;;;"1261";"2014-10-16 12:28:41.225";"NST_correctLoc";"13";"1";"FINISHED";"RIGHT";"success";"351";"0";"2014-10-16 12:28:39.961";"2";;;;;;;;;;;;;;;;;;;;;;;;;;;;;;;;;;;;;;;;;;;;;
"1224515";;;"Windows 7";"Rachel's Experiment (D.T.)";"1.0";"2";"1";"1";"2";"1";"1";"2014-10-16 12:24:20.190";"2014-10-16 12:36:38.976";"1";"0";"0";"78";"77";"module.training_block2.exec-7584.GoNoGo2";;;;;;;;;;;;;;;;;;;;;;;;;;;;;;;;;;;"1261";"2014-10-16 12:28:43.768";"NST_correctLoc";"35";"1";"FINISHED";"RIGHT";"success";"369";"0";"2014-10-16 12:28:42.504";"3";;;;;;;;;;;;;;;;;;;;;;;;;;;;;;;;;;;;;;;;;;;;;
"1224515";;;"Windows 7";"Rachel's Experiment (D.T.)";"1.0";"2";"1";"1";"2";"1";"1";"2014-10-16 12:24:20.190";"2014-10-16 12:36:38.976";"1";"0";"0";"79";"78";"module.training_block2.exec-7584.GoNoGo2";;;;;;;;;;;;;;;;;;;;;;;;;;;;;;;;;;;"1261";"2014-10-16 12:28:46.310";"NST_correctLoc";"27";"0";"FINISHED";"LEFT";"success";"322";"0";"2014-10-16 12:28:45.047";"3";;;;;;;;;;;;;;;;;;;;;;;;;;;;;;;;;;;;;;;;;;;;;
"1224515";;;"Windows 7";"Rachel's Experiment (D.T.)";"1.0";"2";"1";"1";"2";"1";"1";"2014-10-16 12:24:20.190";"2014-10-16 12:36:38.976";"1";"0";"0";"80";"79";"module.training_block2.exec-7584.GoNoGo2";;;;;;;;;;;;;;;;;;;;;;;;;;;;;;;;;;;"1261";"2014-10-16 12:28:48.853";"NST_correctLoc";"26";"0";"FINISHED";"LEFT";"success";"339";"0";"2014-10-16 12:28:47.590";"3";;;;;;;;;;;;;;;;;;;;;;;;;;;;;;;;;;;;;;;;;;;;;
"1224515";;;"Windows 7";"Rachel's Experiment (D.T.)";"1.0";"2";"1";"1";"2";"1";"1";"2014-10-16 12:24:20.190";"2014-10-16 12:36:38.976";"1";"0";"0";"81";"80";"module.training_block2.exec-7584.GoNoGo2";;;;;;;;;;;;;;;;;;;;;;;;;;;;;;;;;;;"1261";"2014-10-16 12:28:51.396";"NST_correctLoc";"1";"0";"FINISHED";"LEFT";"success";"532";"0";"2014-10-16 12:28:50.132";"1";;;;;;;;;;;;;;;;;;;;;;;;;;;;;;;;;;;;;;;;;;;;;
"1224515";;;"Windows 7";"Rachel's Experiment (D.T.)";"1.0";"2";"1";"1";"2";"1";"1";"2014-10-16 12:24:20.190";"2014-10-16 12:36:38.976";"1";"0";"0";"82";"81";"module.training_block2.exec-7584.GoNoGo2";;;;;;;;;;;;;;;;;;;;;;;;;;;;;;;;;;;"1261";"2014-10-16 12:28:53.939";"NST_wrongLoc";"28";"1";"FINISHED";"LEFT";"failure";"597";"0";"2014-10-16 12:28:52.675";"3";;;;;;;;;;;;;;;;;;;;;;;;;;;;;;;;;;;;;;;;;;;;;
"1224515";;;"Windows 7";"Rachel's Experiment (D.T.)";"1.0";"2";"1";"1";"2";"1";"1";"2014-10-16 12:24:20.190";"2014-10-16 12:36:38.976";"1";"0";"0";"83";"82";"module.training_block2.exec-7584.GoNoGo2";;;;;;;;;;;;;;;;;;;;;;;;;;;;;;;;;;;"1261";"2014-10-16 12:28:56.482";"NST_correctLoc";"16";"0";"FINISHED";"LEFT";"success";"358";"0";"2014-10-16 12:28:55.218";"2";;;;;;;;;;;;;;;;;;;;;;;;;;;;;;;;;;;;;;;;;;;;;
"1224515";;;"Windows 7";"Rachel's Experiment (D.T.)";"1.0";"2";"1";"1";"2";"1";"1";"2014-10-16 12:24:20.190";"2014-10-16 12:36:38.976";"1";"0";"0";"84";"83";"module.training_block2.exec-7584.GoNoGo2";;;;;;;;;;;;;;;;;;;;;;;;;;;;;;;;;;;"1261";"2014-10-16 12:28:59.024";"NST_correctLoc";"31";"1";"FINISHED";"RIGHT";"success";"312";"0";"2014-10-16 12:28:57.761";"3";;;;;;;;;;;;;;;;;;;;;;;;;;;;;;;;;;;;;;;;;;;;;
"1224515";;;"Windows 7";"Rachel's Experiment (D.T.)";"1.0";"2";"1";"1";"2";"1";"1";"2014-10-16 12:24:20.190";"2014-10-16 12:36:38.976";"1";"0";"0";"85";"84";"module.training_block2.exec-7584.GoNoGo2";;;;;;;;;;;;;;;;;;;;;;;;;;;;;;;;;;;"1261";"2014-10-16 12:29:01.567";"NST_correctLoc";"6";"1";"FINISHED";"RIGHT";"success";"385";"0";"2014-10-16 12:29:00.304";"1";;;;;;;;;;;;;;;;;;;;;;;;;;;;;;;;;;;;;;;;;;;;;
"1224515";;;"Windows 7";"Rachel's Experiment (D.T.)";"1.0";"2";"1";"1";"2";"1";"1";"2014-10-16 12:24:20.190";"2014-10-16 12:36:38.976";"1";"0";"0";"86";"85";"module.training_block2.exec-7584.GoNoGo2";;;;;;;;;;;;;;;;;;;;;;;;;;;;;;;;;;;"1261";"2014-10-16 12:29:04.110";"NST_correctLoc";"24";"0";"FINISHED";"LEFT";"success";"330";"0";"2014-10-16 12:29:02.846";"3";;;;;;;;;;;;;;;;;;;;;;;;;;;;;;;;;;;;;;;;;;;;;
"1224515";;;"Windows 7";"Rachel's Experiment (D.T.)";"1.0";"2";"1";"1";"2";"1";"1";"2014-10-16 12:24:20.190";"2014-10-16 12:36:38.976";"1";"0";"0";"87";"86";"module.training_block2.exec-7584.GoNoGo2";;;;;;;;;;;;;;;;;;;;;;;;;;;;;;;;;;;"1262";"2014-10-16 12:29:06.653";"NST_correctLoc";"5";"1";"FINISHED";"RIGHT";"success";"347";"0";"2014-10-16 12:29:05.389";"1";;;;;;;;;;;;;;;;;;;;;;;;;;;;;;;;;;;;;;;;;;;;;
"1224515";;;"Windows 7";"Rachel's Experiment (D.T.)";"1.0";"2";"1";"1";"2";"1";"1";"2014-10-16 12:24:20.190";"2014-10-16 12:36:38.976";"1";"0";"0";"88";"87";"module.training_block3.exec-1965.GoNoGo3";;;;;;;;;;;;;;;;;;;;;;;;;;;;;;;;;;;;;;;;;;;;;;;"1261";"2014-10-16 12:29:17.526";"NST_correctLoc";"28";"1";"FINISHED";"RIGHT";"success";"546";"0";"2014-10-16 12:29:16.262";"3";;;;;;;;;;;;;;;;;;;;;;;;;;;;;;;;;
"1224515";;;"Windows 7";"Rachel's Experiment (D.T.)";"1.0";"2";"1";"1";"2";"1";"1";"2014-10-16 12:24:20.190";"2014-10-16 12:36:38.976";"1";"0";"0";"89";"88";"module.training_block3.exec-1965.GoNoGo3";;;;;;;;;;;;;;;;;;;;;;;;;;;;;;;;;;;;;;;;;;;;;;;"1261";"2014-10-16 12:29:20.069";"NST_correctLoc";"25";"0";"FINISHED";"LEFT";"success";"355";"0";"2014-10-16 12:29:18.805";"3";;;;;;;;;;;;;;;;;;;;;;;;;;;;;;;;;
"1224515";;;"Windows 7";"Rachel's Experiment (D.T.)";"1.0";"2";"1";"1";"2";"1";"1";"2014-10-16 12:24:20.190";"2014-10-16 12:36:38.976";"1";"0";"0";"90";"89";"module.training_block3.exec-1965.GoNoGo3";;;;;;;;;;;;;;;;;;;;;;;;;;;;;;;;;;;;;;;;;;;;;;;"1261";"2014-10-16 12:29:22.612";"NST_correctLoc";"15";"0";"FINISHED";"LEFT";"success";"340";"0";"2014-10-16 12:29:21.348";"2";;;;;;;;;;;;;;;;;;;;;;;;;;;;;;;;;
"1224515";;;"Windows 7";"Rachel's Experiment (D.T.)";"1.0";"2";"1";"1";"2";"1";"1";"2014-10-16 12:24:20.190";"2014-10-16 12:36:38.976";"1";"0";"0";"91";"90";"module.training_block3.exec-1965.GoNoGo3";;;;;;;;;;;;;;;;;;;;;;;;;;;;;;;;;;;;;;;;;;;;;;;"1261";"2014-10-16 12:29:25.139";"NST_correctLoc";"11";"1";"FINISHED";"RIGHT";"success";"325";"0";"2014-10-16 12:29:23.875";"2";;;;;;;;;;;;;;;;;;;;;;;;;;;;;;;;;
"1224515";;;"Windows 7";"Rachel's Experiment (D.T.)";"1.0";"2";"1";"1";"2";"1";"1";"2014-10-16 12:24:20.190";"2014-10-16 12:36:38.976";"1";"0";"0";"92";"91";"module.training_block3.exec-1965.GoNoGo3";;;;;;;;;;;;;;;;;;;;;;;;;;;;;;;;;;;;;;;;;;;;;;;"1261";"2014-10-16 12:29:27.682";"NST_correctLoc";"21";"1";"FINISHED";"RIGHT";"success";"342";"0";"2014-10-16 12:29:26.418";"3";;;;;;;;;;;;;;;;;;;;;;;;;;;;;;;;;
"1224515";;;"Windows 7";"Rachel's Experiment (D.T.)";"1.0";"2";"1";"1";"2";"1";"1";"2014-10-16 12:24:20.190";"2014-10-16 12:36:38.976";"1";"0";"0";"93";"92";"module.training_block3.exec-1965.GoNoGo3";;;;;;;;;;;;;;;;;;;;;;;;;;;;;;;;;;;;;;;;;;;;;;;"1261";"2014-10-16 12:29:30.225";"NST_correctLoc";"1";"0";"FINISHED";"LEFT";"success";"487";"0";"2014-10-16 12:29:28.961";"1";;;;;;;;;;;;;;;;;;;;;;;;;;;;;;;;;
"1224515";;;"Windows 7";"Rachel's Experiment (D.T.)";"1.0";"2";"1";"1";"2";"1";"1";"2014-10-16 12:24:20.190";"2014-10-16 12:36:38.976";"1";"0";"0";"94";"93";"module.training_block3.exec-1965.GoNoGo3";;;;;;;;;;;;;;;;;;;;;;;;;;;;;;;;;;;;;;;;;;;;;;;"1261";"2014-10-16 12:29:32.767";"NST_correctLoc";"35";"1";"FINISHED";"RIGHT";"success";"337";"0";"2014-10-16 12:29:31.504";"3";;;;;;;;;;;;;;;;;;;;;;;;;;;;;;;;;
"1224515";;;"Windows 7";"Rachel's Experiment (D.T.)";"1.0";"2";"1";"1";"2";"1";"1";"2014-10-16 12:24:20.190";"2014-10-16 12:36:38.976";"1";"0";"0";"95";"94";"module.training_block3.exec-1965.GoNoGo3";;;;;;;;;;;;;;;;;;;;;;;;;;;;;;;;;;;;;;;;;;;;;;;"1261";"2014-10-16 12:29:35.310";"NST_correctLoc";"31";"0";"FINISHED";"LEFT";"success";"330";"0";"2014-10-16 12:29:34.047";"3";;;;;;;;;;;;;;;;;;;;;;;;;;;;;;;;;
"1224515";;;"Windows 7";"Rachel's Experiment (D.T.)";"1.0";"2";"1";"1";"2";"1";"1";"2014-10-16 12:24:20.190";"2014-10-16 12:36:38.976";"1";"0";"0";"96";"95";"module.training_block3.exec-1965.GoNoGo3";;;;;;;;;;;;;;;;;;;;;;;;;;;;;;;;;;;;;;;;;;;;;;;"1261";"2014-10-16 12:29:37.853";"NST_correctLoc";"7";"0";"FINISHED";"LEFT";"success";"411";"0";"2014-10-16 12:29:36.589";"1";;;;;;;;;;;;;;;;;;;;;;;;;;;;;;;;;
"1224515";;;"Windows 7";"Rachel's Experiment (D.T.)";"1.0";"2";"1";"1";"2";"1";"1";"2014-10-16 12:24:20.190";"2014-10-16 12:36:38.976";"1";"0";"0";"97";"96";"module.training_block3.exec-1965.GoNoGo3";;;;;;;;;;;;;;;;;;;;;;;;;;;;;;;;;;;;;;;;;;;;;;;"1261";"2014-10-16 12:29:40.396";"NST_correctLoc";"6";"0";"FINISHED";"LEFT";"success";"380";"0";"2014-10-16 12:29:39.132";"1";;;;;;;;;;;;;;;;;;;;;;;;;;;;;;;;;
"1224515";;;"Windows 7";"Rachel's Experiment (D.T.)";"1.0";"2";"1";"1";"2";"1";"1";"2014-10-16 12:24:20.190";"2014-10-16 12:36:38.976";"1";"0";"0";"98";"97";"module.training_block3.exec-1965.GoNoGo3";;;;;;;;;;;;;;;;;;;;;;;;;;;;;;;;;;;;;;;;;;;;;;;"1261";"2014-10-16 12:29:42.939";"NST_correctLoc";"14";"1";"FINISHED";"RIGHT";"success";"261";"0";"2014-10-16 12:29:41.675";"2";;;;;;;;;;;;;;;;;;;;;;;;;;;;;;;;;
"1224515";;;"Windows 7";"Rachel's Experiment (D.T.)";"1.0";"2";"1";"1";"2";"1";"1";"2014-10-16 12:24:20.190";"2014-10-16 12:36:38.976";"1";"0";"0";"99";"98";"module.training_block3.exec-1965.GoNoGo3";;;;;;;;;;;;;;;;;;;;;;;;;;;;;;;;;;;;;;;;;;;;;;;"1261";"2014-10-16 12:29:45.481";"NST_correctLoc";"13";"1";"FINISHED";"RIGHT";"success";"303";"0";"2014-10-16 12:29:44.218";"2";;;;;;;;;;;;;;;;;;;;;;;;;;;;;;;;;
"1224515";;;"Windows 7";"Rachel's Experiment (D.T.)";"1.0";"2";"1";"1";"2";"1";"1";"2014-10-16 12:24:20.190";"2014-10-16 12:36:38.976";"1";"0";"0";"100";"99";"module.training_block3.exec-1965.GoNoGo3";;;;;;;;;;;;;;;;;;;;;;;;;;;;;;;;;;;;;;;;;;;;;;;"1261";"2014-10-16 12:29:48.009";"NST_correctLoc";"9";"1";"FINISHED";"RIGHT";"success";"343";"0";"2014-10-16 12:29:46.745";"2";;;;;;;;;;;;;;;;;;;;;;;;;;;;;;;;;
"1224515";;;"Windows 7";"Rachel's Experiment (D.T.)";"1.0";"2";"1";"1";"2";"1";"1";"2014-10-16 12:24:20.190";"2014-10-16 12:36:38.976";"1";"0";"0";"101";"100";"module.training_block3.exec-1965.GoNoGo3";;;;;;;;;;;;;;;;;;;;;;;;;;;;;;;;;;;;;;;;;;;;;;;"1261";"2014-10-16 12:29:50.551";"NST_correctLoc";"16";"1";"FINISHED";"RIGHT";"success";"368";"0";"2014-10-16 12:29:49.288";"2";;;;;;;;;;;;;;;;;;;;;;;;;;;;;;;;;
"1224515";;;"Windows 7";"Rachel's Experiment (D.T.)";"1.0";"2";"1";"1";"2";"1";"1";"2014-10-16 12:24:20.190";"2014-10-16 12:36:38.976";"1";"0";"0";"102";"101";"module.training_block3.exec-1965.GoNoGo3";;;;;;;;;;;;;;;;;;;;;;;;;;;;;;;;;;;;;;;;;;;;;;;"1261";"2014-10-16 12:29:53.094";"NST_correctLoc";"17";"1";"FINISHED";"RIGHT";"success";"394";"0";"2014-10-16 12:29:51.831";"2";;;;;;;;;;;;;;;;;;;;;;;;;;;;;;;;;
"1224515";;;"Windows 7";"Rachel's Experiment (D.T.)";"1.0";"2";"1";"1";"2";"1";"1";"2014-10-16 12:24:20.190";"2014-10-16 12:36:38.976";"1";"0";"0";"103";"102";"module.training_block3.exec-1965.GoNoGo3";;;;;;;;;;;;;;;;;;;;;;;;;;;;;;;;;;;;;;;;;;;;;;;"1261";"2014-10-16 12:29:55.637";"NST_correctLoc";"8";"1";"FINISHED";"RIGHT";"success";"379";"0";"2014-10-16 12:29:54.373";"1";;;;;;;;;;;;;;;;;;;;;;;;;;;;;;;;;
"1224515";;;"Windows 7";"Rachel's Experiment (D.T.)";"1.0";"2";"1";"1";"2";"1";"1";"2014-10-16 12:24:20.190";"2014-10-16 12:36:38.976";"1";"0";"0";"104";"103";"module.training_block3.exec-1965.GoNoGo3";;;;;;;;;;;;;;;;;;;;;;;;;;;;;;;;;;;;;;;;;;;;;;;"1261";"2014-10-16 12:29:58.180";"NST_correctLoc";"5";"0";"FINISHED";"LEFT";"success";"436";"0";"2014-10-16 12:29:56.916";"1";;;;;;;;;;;;;;;;;;;;;;;;;;;;;;;;;
"1224515";;;"Windows 7";"Rachel's Experiment (D.T.)";"1.0";"2";"1";"1";"2";"1";"1";"2014-10-16 12:24:20.190";"2014-10-16 12:36:38.976";"1";"0";"0";"105";"104";"module.training_block3.exec-1965.GoNoGo3";;;;;;;;;;;;;;;;;;;;;;;;;;;;;;;;;;;;;;;;;;;;;;;"1261";"2014-10-16 12:30:00.723";"NST_correctLoc";"29";"0";"FINISHED";"LEFT";"success";"365";"0";"2014-10-16 12:29:59.459";"3";;;;;;;;;;;;;;;;;;;;;;;;;;;;;;;;;
"1224515";;;"Windows 7";"Rachel's Experiment (D.T.)";"1.0";"2";"1";"1";"2";"1";"1";"2014-10-16 12:24:20.190";"2014-10-16 12:36:38.976";"1";"0";"0";"106";"105";"module.training_block3.exec-1965.GoNoGo3";;;;;;;;;;;;;;;;;;;;;;;;;;;;;;;;;;;;;;;;;;;;;;;"1261";"2014-10-16 12:30:03.265";"NST_correctLoc";"34";"1";"FINISHED";"RIGHT";"success";"374";"0";"2014-10-16 12:30:02.002";"3";;;;;;;;;;;;;;;;;;;;;;;;;;;;;;;;;
"1224515";;;"Windows 7";"Rachel's Experiment (D.T.)";"1.0";"2";"1";"1";"2";"1";"1";"2014-10-16 12:24:20.190";"2014-10-16 12:36:38.976";"1";"0";"0";"107";"106";"module.training_block3.exec-1965.GoNoGo3";;;;;;;;;;;;;;;;;;;;;;;;;;;;;;;;;;;;;;;;;;;;;;;"1261";"2014-10-16 12:30:05.824";"NST_correctLoc";"0";"0";"FINISHED";"LEFT";"success";"344";"0";"2014-10-16 12:30:04.560";"1";;;;;;;;;;;;;;;;;;;;;;;;;;;;;;;;;
"1224515";;;"Windows 7";"Rachel's Experiment (D.T.)";"1.0";"2";"1";"1";"2";"1";"1";"2014-10-16 12:24:20.190";"2014-10-16 12:36:38.976";"1";"0";"0";"108";"107";"module.training_block3.exec-1965.GoNoGo3";;;;;;;;;;;;;;;;;;;;;;;;;;;;;;;;;;;;;;;;;;;;;;;"1261";"2014-10-16 12:30:08.367";"NST_correctLoc";"33";"0";"FINISHED";"LEFT";"success";"441";"0";"2014-10-16 12:30:07.103";"3";;;;;;;;;;;;;;;;;;;;;;;;;;;;;;;;;
"1224515";;;"Windows 7";"Rachel's Experiment (D.T.)";"1.0";"2";"1";"1";"2";"1";"1";"2014-10-16 12:24:20.190";"2014-10-16 12:36:38.976";"1";"0";"0";"109";"108";"module.training_block3.exec-1965.GoNoGo3";;;;;;;;;;;;;;;;;;;;;;;;;;;;;;;;;;;;;;;;;;;;;;;"1261";"2014-10-16 12:30:10.909";"NST_correctLoc";"23";"0";"FINISHED";"LEFT";"success";"362";"0";"2014-10-16 12:30:09.646";"3";;;;;;;;;;;;;;;;;;;;;;;;;;;;;;;;;
"1224515";;;"Windows 7";"Rachel's Experiment (D.T.)";"1.0";"2";"1";"1";"2";"1";"1";"2014-10-16 12:24:20.190";"2014-10-16 12:36:38.976";"1";"0";"0";"110";"109";"module.training_block3.exec-1965.GoNoGo3";;;;;;;;;;;;;;;;;;;;;;;;;;;;;;;;;;;;;;;;;;;;;;;"1261";"2014-10-16 12:30:13.452";"NST_correctLoc";"20";"0";"FINISHED";"LEFT";"success";"371";"0";"2014-10-16 12:30:12.189";"3";;;;;;;;;;;;;;;;;;;;;;;;;;;;;;;;;
"1224515";;;"Windows 7";"Rachel's Experiment (D.T.)";"1.0";"2";"1";"1";"2";"1";"1";"2014-10-16 12:24:20.190";"2014-10-16 12:36:38.976";"1";"0";"0";"111";"110";"module.training_block3.exec-1965.GoNoGo3";;;;;;;;;;;;;;;;;;;;;;;;;;;;;;;;;;;;;;;;;;;;;;;"1261";"2014-10-16 12:30:15.995";"NST_correctLoc";"3";"1";"FINISHED";"RIGHT";"success";"493";"0";"2014-10-16 12:30:14.731";"1";;;;;;;;;;;;;;;;;;;;;;;;;;;;;;;;;
"1224515";;;"Windows 7";"Rachel's Experiment (D.T.)";"1.0";"2";"1";"1";"2";"1";"1";"2014-10-16 12:24:20.190";"2014-10-16 12:36:38.976";"1";"0";"0";"112";"111";"module.training_block3.exec-1965.GoNoGo3";;;;;;;;;;;;;;;;;;;;;;;;;;;;;;;;;;;;;;;;;;;;;;;"1261";"2014-10-16 12:30:18.538";"NST_correctLoc";"30";"1";"FINISHED";"RIGHT";"success";"446";"0";"2014-10-16 12:30:17.274";"3";;;;;;;;;;;;;;;;;;;;;;;;;;;;;;;;;
"1224515";;;"Windows 7";"Rachel's Experiment (D.T.)";"1.0";"2";"1";"1";"2";"1";"1";"2014-10-16 12:24:20.190";"2014-10-16 12:36:38.976";"1";"0";"0";"113";"112";"module.training_block3.exec-1965.GoNoGo3";;;;;;;;;;;;;;;;;;;;;;;;;;;;;;;;;;;;;;;;;;;;;;;"1261";"2014-10-16 12:30:21.081";"NST_correctLoc";"4";"1";"FINISHED";"RIGHT";"success";"351";"0";"2014-10-16 12:30:19.817";"1";;;;;;;;;;;;;;;;;;;;;;;;;;;;;;;;;
"1224515";;;"Windows 7";"Rachel's Experiment (D.T.)";"1.0";"2";"1";"1";"2";"1";"1";"2014-10-16 12:24:20.190";"2014-10-16 12:36:38.976";"1";"0";"0";"114";"113";"module.training_block3.exec-1965.GoNoGo3";;;;;;;;;;;;;;;;;;;;;;;;;;;;;;;;;;;;;;;;;;;;;;;"1261";"2014-10-16 12:30:23.623";"NST_correctLoc";"24";"0";"FINISHED";"LEFT";"success";"296";"0";"2014-10-16 12:30:22.360";"3";;;;;;;;;;;;;;;;;;;;;;;;;;;;;;;;;
"1224515";;;"Windows 7";"Rachel's Experiment (D.T.)";"1.0";"2";"1";"1";"2";"1";"1";"2014-10-16 12:24:20.190";"2014-10-16 12:36:38.976";"1";"0";"0";"115";"114";"module.training_block3.exec-1965.GoNoGo3";;;;;;;;;;;;;;;;;;;;;;;;;;;;;;;;;;;;;;;;;;;;;;;"1261";"2014-10-16 12:30:26.151";"NST_correctLoc";"27";"1";"FINISHED";"RIGHT";"success";"401";"0";"2014-10-16 12:30:24.887";"3";;;;;;;;;;;;;;;;;;;;;;;;;;;;;;;;;
"1224515";;;"Windows 7";"Rachel's Experiment (D.T.)";"1.0";"2";"1";"1";"2";"1";"1";"2014-10-16 12:24:20.190";"2014-10-16 12:36:38.976";"1";"0";"0";"116";"115";"module.training_block3.exec-1965.GoNoGo3";;;;;;;;;;;;;;;;;;;;;;;;;;;;;;;;;;;;;;;;;;;;;;;"1261";"2014-10-16 12:30:28.693";"NST_wrongLoc";"22";"1";"FINISHED";"LEFT";"failure";"674";"0";"2014-10-16 12:30:27.430";"3";;;;;;;;;;;;;;;;;;;;;;;;;;;;;;;;;
"1224515";;;"Windows 7";"Rachel's Experiment (D.T.)";"1.0";"2";"1";"1";"2";"1";"1";"2014-10-16 12:24:20.190";"2014-10-16 12:36:38.976";"1";"0";"0";"117";"116";"module.training_block3.exec-1965.GoNoGo3";;;;;;;;;;;;;;;;;;;;;;;;;;;;;;;;;;;;;;;;;;;;;;;"1261";"2014-10-16 12:30:31.236";"NST_correctLoc";"32";"0";"FINISHED";"LEFT";"success";"339";"0";"2014-10-16 12:30:29.973";"3";;;;;;;;;;;;;;;;;;;;;;;;;;;;;;;;;
"1224515";;;"Windows 7";"Rachel's Experiment (D.T.)";"1.0";"2";"1";"1";"2";"1";"1";"2014-10-16 12:24:20.190";"2014-10-16 12:36:38.976";"1";"0";"0";"118";"117";"module.training_block3.exec-1965.GoNoGo3";;;;;;;;;;;;;;;;;;;;;;;;;;;;;;;;;;;;;;;;;;;;;;;"1261";"2014-10-16 12:30:33.779";"NST_correctLoc";"10";"0";"FINISHED";"LEFT";"success";"421";"0";"2014-10-16 12:30:32.515";"2";;;;;;;;;;;;;;;;;;;;;;;;;;;;;;;;;
"1224515";;;"Windows 7";"Rachel's Experiment (D.T.)";"1.0";"2";"1";"1";"2";"1";"1";"2014-10-16 12:24:20.190";"2014-10-16 12:36:38.976";"1";"0";"0";"119";"118";"module.training_block3.exec-1965.GoNoGo3";;;;;;;;;;;;;;;;;;;;;;;;;;;;;;;;;;;;;;;;;;;;;;;"1261";"2014-10-16 12:30:36.306";"NST_correctLoc";"19";"1";"FINISHED";"RIGHT";"success";"397";"0";"2014-10-16 12:30:35.043";"3";;;;;;;;;;;;;;;;;;;;;;;;;;;;;;;;;
"1224515";;;"Windows 7";"Rachel's Experiment (D.T.)";"1.0";"2";"1";"1";"2";"1";"1";"2014-10-16 12:24:20.190";"2014-10-16 12:36:38.976";"1";"0";"0";"120";"119";"module.training_block3.exec-1965.GoNoGo3";;;;;;;;;;;;;;;;;;;;;;;;;;;;;;;;;;;;;;;;;;;;;;;"1261";"2014-10-16 12:30:38.849";"NST_correctLoc";"2";"0";"FINISHED";"LEFT";"success";"406";"0";"2014-10-16 12:30:37.585";"1";;;;;;;;;;;;;;;;;;;;;;;;;;;;;;;;;
"1224515";;;"Windows 7";"Rachel's Experiment (D.T.)";"1.0";"2";"1";"1";"2";"1";"1";"2014-10-16 12:24:20.190";"2014-10-16 12:36:38.976";"1";"0";"0";"121";"120";"module.training_block3.exec-1965.GoNoGo3";;;;;;;;;;;;;;;;;;;;;;;;;;;;;;;;;;;;;;;;;;;;;;;"1261";"2014-10-16 12:30:41.407";"NST_correctLoc";"12";"1";"FINISHED";"RIGHT";"success";"248";"0";"2014-10-16 12:30:40.144";"2";;;;;;;;;;;;;;;;;;;;;;;;;;;;;;;;;
"1224515";;;"Windows 7";"Rachel's Experiment (D.T.)";"1.0";"2";"1";"1";"2";"1";"1";"2014-10-16 12:24:20.190";"2014-10-16 12:36:38.976";"1";"0";"0";"122";"121";"module.training_block3.exec-1965.GoNoGo3";;;;;;;;;;;;;;;;;;;;;;;;;;;;;;;;;;;;;;;;;;;;;;;"1261";"2014-10-16 12:30:43.935";"NST_correctLoc";"18";"1";"FINISHED";"RIGHT";"success";"345";"0";"2014-10-16 12:30:42.671";"3";;;;;;;;;;;;;;;;;;;;;;;;;;;;;;;;;
"1224515";;;"Windows 7";"Rachel's Experiment (D.T.)";"1.0";"2";"1";"1";"2";"1";"1";"2014-10-16 12:24:20.190";"2014-10-16 12:36:38.976";"1";"0";"0";"123";"122";"module.training_block3.exec-1965.GoNoGo3";;;;;;;;;;;;;;;;;;;;;;;;;;;;;;;;;;;;;;;;;;;;;;;"1261";"2014-10-16 12:30:46.477";"NST_correctLoc";"26";"0";"FINISHED";"LEFT";"success";"354";"0";"2014-10-16 12:30:45.214";"3";;;;;;;;;;;;;;;;;;;;;;;;;;;;;;;;;
"1224515";;;"Windows 7";"Rachel's Experiment (D.T.)";"1.0";"2";"1";"1";"2";"1";"1";"2014-10-16 12:24:20.190";"2014-10-16 12:36:38.976";"1";"0";"0";"124";"123";"module.training_block4.exec-6939.GoNoGo4";;;;;;;;;;;;;;;;;;;;;;;;;;;;;;;;;;;;;;;;;;;;;;;;;;;;;;;;;;;"1261";"2014-10-16 12:30:57.585";"NST_correctLoc";"12";"0";"FINISHED";"LEFT";"success";"343";"0";"2014-10-16 12:30:56.321";"2";;;;;;;;;;;;;;;;;;;;;
"1224515";;;"Windows 7";"Rachel's Experiment (D.T.)";"1.0";"2";"1";"1";"2";"1";"1";"2014-10-16 12:24:20.190";"2014-10-16 12:36:38.976";"1";"0";"0";"125";"124";"module.training_block4.exec-6939.GoNoGo4";;;;;;;;;;;;;;;;;;;;;;;;;;;;;;;;;;;;;;;;;;;;;;;;;;;;;;;;;;;"1261";"2014-10-16 12:31:00.112";"NST_correctLoc";"31";"0";"FINISHED";"LEFT";"success";"360";"0";"2014-10-16 12:30:58.848";"3";;;;;;;;;;;;;;;;;;;;;
"1224515";;;"Windows 7";"Rachel's Experiment (D.T.)";"1.0";"2";"1";"1";"2";"1";"1";"2014-10-16 12:24:20.190";"2014-10-16 12:36:38.976";"1";"0";"0";"126";"125";"module.training_block4.exec-6939.GoNoGo4";;;;;;;;;;;;;;;;;;;;;;;;;;;;;;;;;;;;;;;;;;;;;;;;;;;;;;;;;;;"1261";"2014-10-16 12:31:02.639";"NST_correctLoc";"27";"1";"FINISHED";"RIGHT";"success";"352";"0";"2014-10-16 12:31:01.375";"3";;;;;;;;;;;;;;;;;;;;;
"1224515";;;"Windows 7";"Rachel's Experiment (D.T.)";"1.0";"2";"1";"1";"2";"1";"1";"2014-10-16 12:24:20.190";"2014-10-16 12:36:38.976";"1";"0";"0";"127";"126";"module.training_block4.exec-6939.GoNoGo4";;;;;;;;;;;;;;;;;;;;;;;;;;;;;;;;;;;;;;;;;;;;;;;;;;;;;;;;;;;"1261";"2014-10-16 12:31:05.166";"NST_correctLoc";"13";"1";"FINISHED";"RIGHT";"success";"385";"0";"2014-10-16 12:31:03.903";"2";;;;;;;;;;;;;;;;;;;;;
"1224515";;;"Windows 7";"Rachel's Experiment (D.T.)";"1.0";"2";"1";"1";"2";"1";"1";"2014-10-16 12:24:20.190";"2014-10-16 12:36:38.976";"1";"0";"0";"128";"127";"module.training_block4.exec-6939.GoNoGo4";;;;;;;;;;;;;;;;;;;;;;;;;;;;;;;;;;;;;;;;;;;;;;;;;;;;;;;;;;;"1261";"2014-10-16 12:31:07.709";"NST_correctLoc";"10";"1";"FINISHED";"RIGHT";"success";"290";"0";"2014-10-16 12:31:06.445";"2";;;;;;;;;;;;;;;;;;;;;
"1224515";;;"Windows 7";"Rachel's Experiment (D.T.)";"1.0";"2";"1";"1";"2";"1";"1";"2014-10-16 12:24:20.190";"2014-10-16 12:36:38.976";"1";"0";"0";"129";"128";"module.training_block4.exec-6939.GoNoGo4";;;;;;;;;;;;;;;;;;;;;;;;;;;;;;;;;;;;;;;;;;;;;;;;;;;;;;;;;;;"1261";"2014-10-16 12:31:10.236";"NST_correctLoc";"11";"0";"FINISHED";"LEFT";"success";"315";"0";"2014-10-16 12:31:08.973";"2";;;;;;;;;;;;;;;;;;;;;
"1224515";;;"Windows 7";"Rachel's Experiment (D.T.)";"1.0";"2";"1";"1";"2";"1";"1";"2014-10-16 12:24:20.190";"2014-10-16 12:36:38.976";"1";"0";"0";"130";"129";"module.training_block4.exec-6939.GoNoGo4";;;;;;;;;;;;;;;;;;;;;;;;;;;;;;;;;;;;;;;;;;;;;;;;;;;;;;;;;;;"1261";"2014-10-16 12:31:12.763";"NST_correctLoc";"3";"1";"FINISHED";"RIGHT";"success";"316";"0";"2014-10-16 12:31:11.500";"1";;;;;;;;;;;;;;;;;;;;;
"1224515";;;"Windows 7";"Rachel's Experiment (D.T.)";"1.0";"2";"1";"1";"2";"1";"1";"2014-10-16 12:24:20.190";"2014-10-16 12:36:38.976";"1";"0";"0";"131";"130";"module.training_block4.exec-6939.GoNoGo4";;;;;;;;;;;;;;;;;;;;;;;;;;;;;;;;;;;;;;;;;;;;;;;;;;;;;;;;;;;"1261";"2014-10-16 12:31:15.291";"NST_correctLoc";"28";"0";"FINISHED";"LEFT";"success";"317";"0";"2014-10-16 12:31:14.027";"3";;;;;;;;;;;;;;;;;;;;;
"1224515";;;"Windows 7";"Rachel's Experiment (D.T.)";"1.0";"2";"1";"1";"2";"1";"1";"2014-10-16 12:24:20.190";"2014-10-16 12:36:38.976";"1";"0";"0";"132";"131";"module.training_block4.exec-6939.GoNoGo4";;;;;;;;;;;;;;;;;;;;;;;;;;;;;;;;;;;;;;;;;;;;;;;;;;;;;;;;;;;"1261";"2014-10-16 12:31:17.818";"NST_correctLoc";"2";"0";"FINISHED";"LEFT";"success";"357";"0";"2014-10-16 12:31:16.554";"1";;;;;;;;;;;;;;;;;;;;;
"1224515";;;"Windows 7";"Rachel's Experiment (D.T.)";"1.0";"2";"1";"1";"2";"1";"1";"2014-10-16 12:24:20.190";"2014-10-16 12:36:38.976";"1";"0";"0";"133";"132";"module.training_block4.exec-6939.GoNoGo4";;;;;;;;;;;;;;;;;;;;;;;;;;;;;;;;;;;;;;;;;;;;;;;;;;;;;;;;;;;"1261";"2014-10-16 12:31:20.345";"NST_correctLoc";"0";"1";"FINISHED";"RIGHT";"success";"318";"0";"2014-10-16 12:31:19.082";"1";;;;;;;;;;;;;;;;;;;;;
"1224515";;;"Windows 7";"Rachel's Experiment (D.T.)";"1.0";"2";"1";"1";"2";"1";"1";"2014-10-16 12:24:20.190";"2014-10-16 12:36:38.976";"1";"0";"0";"134";"133";"module.training_block4.exec-6939.GoNoGo4";;;;;;;;;;;;;;;;;;;;;;;;;;;;;;;;;;;;;;;;;;;;;;;;;;;;;;;;;;;"1261";"2014-10-16 12:31:22.872";"NST_correctLoc";"23";"1";"FINISHED";"RIGHT";"success";"351";"0";"2014-10-16 12:31:21.609";"3";;;;;;;;;;;;;;;;;;;;;
"1224515";;;"Windows 7";"Rachel's Experiment (D.T.)";"1.0";"2";"1";"1";"2";"1";"1";"2014-10-16 12:24:20.190";"2014-10-16 12:36:38.976";"1";"0";"0";"135";"134";"module.training_block4.exec-6939.GoNoGo4";;;;;;;;;;;;;;;;;;;;;;;;;;;;;;;;;;;;;;;;;;;;;;;;;;;;;;;;;;;"1261";"2014-10-16 12:31:25.400";"NST_correctLoc";"33";"1";"FINISHED";"RIGHT";"success";"448";"0";"2014-10-16 12:31:24.136";"3";;;;;;;;;;;;;;;;;;;;;
"1224515";;;"Windows 7";"Rachel's Experiment (D.T.)";"1.0";"2";"1";"1";"2";"1";"1";"2014-10-16 12:24:20.190";"2014-10-16 12:36:38.976";"1";"0";"0";"136";"135";"module.training_block4.exec-6939.GoNoGo4";;;;;;;;;;;;;;;;;;;;;;;;;;;;;;;;;;;;;;;;;;;;;;;;;;;;;;;;;;;"1261";"2014-10-16 12:31:27.942";"NST_correctLoc";"5";"1";"FINISHED";"RIGHT";"success";"377";"0";"2014-10-16 12:31:26.679";"1";;;;;;;;;;;;;;;;;;;;;
"1224515";;;"Windows 7";"Rachel's Experiment (D.T.)";"1.0";"2";"1";"1";"2";"1";"1";"2014-10-16 12:24:20.190";"2014-10-16 12:36:38.976";"1";"0";"0";"137";"136";"module.training_block4.exec-6939.GoNoGo4";;;;;;;;;;;;;;;;;;;;;;;;;;;;;;;;;;;;;;;;;;;;;;;;;;;;;;;;;;;"1261";"2014-10-16 12:31:30.470";"NST_correctLoc";"35";"0";"FINISHED";"LEFT";"success";"354";"0";"2014-10-16 12:31:29.206";"3";;;;;;;;;;;;;;;;;;;;;
"1224515";;;"Windows 7";"Rachel's Experiment (D.T.)";"1.0";"2";"1";"1";"2";"1";"1";"2014-10-16 12:24:20.190";"2014-10-16 12:36:38.976";"1";"0";"0";"138";"137";"module.training_block4.exec-6939.GoNoGo4";;;;;;;;;;;;;;;;;;;;;;;;;;;;;;;;;;;;;;;;;;;;;;;;;;;;;;;;;;;"1261";"2014-10-16 12:31:32.997";"NST_correctLoc";"34";"0";"FINISHED";"LEFT";"success";"370";"0";"2014-10-16 12:31:31.733";"3";;;;;;;;;;;;;;;;;;;;;
"1224515";;;"Windows 7";"Rachel's Experiment (D.T.)";"1.0";"2";"1";"1";"2";"1";"1";"2014-10-16 12:24:20.190";"2014-10-16 12:36:38.976";"1";"0";"0";"139";"138";"module.training_block4.exec-6939.GoNoGo4";;;;;;;;;;;;;;;;;;;;;;;;;;;;;;;;;;;;;;;;;;;;;;;;;;;;;;;;;;;"1261";"2014-10-16 12:31:35.524";"NST_correctLoc";"26";"1";"FINISHED";"RIGHT";"success";"331";"0";"2014-10-16 12:31:34.260";"3";;;;;;;;;;;;;;;;;;;;;
"1224515";;;"Windows 7";"Rachel's Experiment (D.T.)";"1.0";"2";"1";"1";"2";"1";"1";"2014-10-16 12:24:20.190";"2014-10-16 12:36:38.976";"1";"0";"0";"140";"139";"module.training_block4.exec-6939.GoNoGo4";;;;;;;;;;;;;;;;;;;;;;;;;;;;;;;;;;;;;;;;;;;;;;;;;;;;;;;;;;;"1261";"2014-10-16 12:31:38.051";"NST_correctLoc";"18";"0";"FINISHED";"LEFT";"success";"372";"0";"2014-10-16 12:31:36.788";"3";;;;;;;;;;;;;;;;;;;;;
"1224515";;;"Windows 7";"Rachel's Experiment (D.T.)";"1.0";"2";"1";"1";"2";"1";"1";"2014-10-16 12:24:20.190";"2014-10-16 12:36:38.976";"1";"0";"0";"141";"140";"module.training_block4.exec-6939.GoNoGo4";;;;;;;;;;;;;;;;;;;;;;;;;;;;;;;;;;;;;;;;;;;;;;;;;;;;;;;;;;;"1261";"2014-10-16 12:31:40.594";"NST_correctLoc";"4";"1";"FINISHED";"RIGHT";"success";"341";"0";"2014-10-16 12:31:39.330";"1";;;;;;;;;;;;;;;;;;;;;
"1224515";;;"Windows 7";"Rachel's Experiment (D.T.)";"1.0";"2";"1";"1";"2";"1";"1";"2014-10-16 12:24:20.190";"2014-10-16 12:36:38.976";"1";"0";"0";"142";"141";"module.training_block4.exec-6939.GoNoGo4";;;;;;;;;;;;;;;;;;;;;;;;;;;;;;;;;;;;;;;;;;;;;;;;;;;;;;;;;;;"1261";"2014-10-16 12:31:43.121";"NST_correctLoc";"8";"1";"FINISHED";"RIGHT";"success";"430";"0";"2014-10-16 12:31:41.858";"1";;;;;;;;;;;;;;;;;;;;;
"1224515";;;"Windows 7";"Rachel's Experiment (D.T.)";"1.0";"2";"1";"1";"2";"1";"1";"2014-10-16 12:24:20.190";"2014-10-16 12:36:38.976";"1";"0";"0";"143";"142";"module.training_block4.exec-6939.GoNoGo4";;;;;;;;;;;;;;;;;;;;;;;;;;;;;;;;;;;;;;;;;;;;;;;;;;;;;;;;;;;"1261";"2014-10-16 12:31:45.648";"NST_correctLoc";"29";"1";"FINISHED";"RIGHT";"success";"351";"0";"2014-10-16 12:31:44.385";"3";;;;;;;;;;;;;;;;;;;;;
"1224515";;;"Windows 7";"Rachel's Experiment (D.T.)";"1.0";"2";"1";"1";"2";"1";"1";"2014-10-16 12:24:20.190";"2014-10-16 12:36:38.976";"1";"0";"0";"144";"143";"module.training_block4.exec-6939.GoNoGo4";;;;;;;;;;;;;;;;;;;;;;;;;;;;;;;;;;;;;;;;;;;;;;;;;;;;;;;;;;;"1261";"2014-10-16 12:31:48.207";"NST_correctLoc";"17";"1";"FINISHED";"RIGHT";"success";"352";"0";"2014-10-16 12:31:46.943";"2";;;;;;;;;;;;;;;;;;;;;
"1224515";;;"Windows 7";"Rachel's Experiment (D.T.)";"1.0";"2";"1";"1";"2";"1";"1";"2014-10-16 12:24:20.190";"2014-10-16 12:36:38.976";"1";"0";"0";"145";"144";"module.training_block4.exec-6939.GoNoGo4";;;;;;;;;;;;;;;;;;;;;;;;;;;;;;;;;;;;;;;;;;;;;;;;;;;;;;;;;;;"1261";"2014-10-16 12:31:50.734";"NST_correctLoc";"30";"1";"FINISHED";"RIGHT";"success";"537";"0";"2014-10-16 12:31:49.470";"3";;;;;;;;;;;;;;;;;;;;;
"1224515";;;"Windows 7";"Rachel's Experiment (D.T.)";"1.0";"2";"1";"1";"2";"1";"1";"2014-10-16 12:24:20.190";"2014-10-16 12:36:38.976";"1";"0";"0";"146";"145";"module.training_block4.exec-6939.GoNoGo4";;;;;;;;;;;;;;;;;;;;;;;;;;;;;;;;;;;;;;;;;;;;;;;;;;;;;;;;;;;"1261";"2014-10-16 12:31:53.277";"NST_correctLoc";"16";"1";"FINISHED";"RIGHT";"success";"570";"0";"2014-10-16 12:31:52.013";"2";;;;;;;;;;;;;;;;;;;;;
"1224515";;;"Windows 7";"Rachel's Experiment (D.T.)";"1.0";"2";"1";"1";"2";"1";"1";"2014-10-16 12:24:20.190";"2014-10-16 12:36:38.976";"1";"0";"0";"147";"146";"module.training_block4.exec-6939.GoNoGo4";;;;;;;;;;;;;;;;;;;;;;;;;;;;;;;;;;;;;;;;;;;;;;;;;;;;;;;;;;;"1261";"2014-10-16 12:31:55.804";"NST_wrongLoc";"21";"0";"FINISHED";"RIGHT";"failure";"435";"0";"2014-10-16 12:31:54.540";"3";;;;;;;;;;;;;;;;;;;;;
"1224515";;;"Windows 7";"Rachel's Experiment (D.T.)";"1.0";"2";"1";"1";"2";"1";"1";"2014-10-16 12:24:20.190";"2014-10-16 12:36:38.976";"1";"0";"0";"148";"147";"module.training_block4.exec-6939.GoNoGo4";;;;;;;;;;;;;;;;;;;;;;;;;;;;;;;;;;;;;;;;;;;;;;;;;;;;;;;;;;;"1261";"2014-10-16 12:31:58.331";"NST_correctLoc";"22";"1";"FINISHED";"RIGHT";"success";"364";"0";"2014-10-16 12:31:57.068";"3";;;;;;;;;;;;;;;;;;;;;
"1224515";;;"Windows 7";"Rachel's Experiment (D.T.)";"1.0";"2";"1";"1";"2";"1";"1";"2014-10-16 12:24:20.190";"2014-10-16 12:36:38.976";"1";"0";"0";"149";"148";"module.training_block4.exec-6939.GoNoGo4";;;;;;;;;;;;;;;;;;;;;;;;;;;;;;;;;;;;;;;;;;;;;;;;;;;;;;;;;;;"1262";"2014-10-16 12:32:00.890";"NST_correctLoc";"32";"0";"FINISHED";"LEFT";"success";"493";"0";"2014-10-16 12:31:59.626";"3";;;;;;;;;;;;;;;;;;;;;
"1224515";;;"Windows 7";"Rachel's Experiment (D.T.)";"1.0";"2";"1";"1";"2";"1";"1";"2014-10-16 12:24:20.190";"2014-10-16 12:36:38.976";"1";"0";"0";"150";"149";"module.training_block4.exec-6939.GoNoGo4";;;;;;;;;;;;;;;;;;;;;;;;;;;;;;;;;;;;;;;;;;;;;;;;;;;;;;;;;;;"1261";"2014-10-16 12:32:03.417";"NST_correctLoc";"20";"0";"FINISHED";"LEFT";"success";"718";"0";"2014-10-16 12:32:02.153";"3";;;;;;;;;;;;;;;;;;;;;
"1224515";;;"Windows 7";"Rachel's Experiment (D.T.)";"1.0";"2";"1";"1";"2";"1";"1";"2014-10-16 12:24:20.190";"2014-10-16 12:36:38.976";"1";"0";"0";"151";"150";"module.training_block4.exec-6939.GoNoGo4";;;;;;;;;;;;;;;;;;;;;;;;;;;;;;;;;;;;;;;;;;;;;;;;;;;;;;;;;;;"1262";"2014-10-16 12:32:05.960";"NST_correctLoc";"24";"0";"FINISHED";"LEFT";"success";"343";"0";"2014-10-16 12:32:04.696";"3";;;;;;;;;;;;;;;;;;;;;
"1224515";;;"Windows 7";"Rachel's Experiment (D.T.)";"1.0";"2";"1";"1";"2";"1";"1";"2014-10-16 12:24:20.190";"2014-10-16 12:36:38.976";"1";"0";"0";"152";"151";"module.training_block4.exec-6939.GoNoGo4";;;;;;;;;;;;;;;;;;;;;;;;;;;;;;;;;;;;;;;;;;;;;;;;;;;;;;;;;;;"1261";"2014-10-16 12:32:08.487";"NST_correctLoc";"9";"1";"FINISHED";"RIGHT";"success";"520";"0";"2014-10-16 12:32:07.223";"2";;;;;;;;;;;;;;;;;;;;;
"1224515";;;"Windows 7";"Rachel's Experiment (D.T.)";"1.0";"2";"1";"1";"2";"1";"1";"2014-10-16 12:24:20.190";"2014-10-16 12:36:38.976";"1";"0";"0";"153";"152";"module.training_block4.exec-6939.GoNoGo4";;;;;;;;;;;;;;;;;;;;;;;;;;;;;;;;;;;;;;;;;;;;;;;;;;;;;;;;;;;"1261";"2014-10-16 12:32:11.014";"NST_correctLoc";"15";"0";"FINISHED";"LEFT";"success";"521";"0";"2014-10-16 12:32:09.750";"2";;;;;;;;;;;;;;;;;;;;;
"1224515";;;"Windows 7";"Rachel's Experiment (D.T.)";"1.0";"2";"1";"1";"2";"1";"1";"2014-10-16 12:24:20.190";"2014-10-16 12:36:38.976";"1";"0";"0";"154";"153";"module.training_block4.exec-6939.GoNoGo4";;;;;;;;;;;;;;;;;;;;;;;;;;;;;;;;;;;;;;;;;;;;;;;;;;;;;;;;;;;"1261";"2014-10-16 12:32:13.572";"NST_miss";"6";"0";"FINISHED";"NONE";"failure";"0";"0";"2014-10-16 12:32:12.309";"1";;;;;;;;;;;;;;;;;;;;;
"1224515";;;"Windows 7";"Rachel's Experiment (D.T.)";"1.0";"2";"1";"1";"2";"1";"1";"2014-10-16 12:24:20.190";"2014-10-16 12:36:38.976";"1";"0";"0";"155";"154";"module.training_block4.exec-6939.GoNoGo4";;;;;;;;;;;;;;;;;;;;;;;;;;;;;;;;;;;;;;;;;;;;;;;;;;;;;;;;;;;"1261";"2014-10-16 12:32:16.100";"NST_correctLoc";"19";"1";"FINISHED";"RIGHT";"success";"275";"0";"2014-10-16 12:32:14.836";"3";;;;;;;;;;;;;;;;;;;;;
"1224515";;;"Windows 7";"Rachel's Experiment (D.T.)";"1.0";"2";"1";"1";"2";"1";"1";"2014-10-16 12:24:20.190";"2014-10-16 12:36:38.976";"1";"0";"0";"156";"155";"module.training_block4.exec-6939.GoNoGo4";;;;;;;;;;;;;;;;;;;;;;;;;;;;;;;;;;;;;;;;;;;;;;;;;;;;;;;;;;;"1261";"2014-10-16 12:32:18.642";"NST_correctLoc";"7";"0";"FINISHED";"LEFT";"success";"308";"0";"2014-10-16 12:32:17.379";"1";;;;;;;;;;;;;;;;;;;;;
"1224515";;;"Windows 7";"Rachel's Experiment (D.T.)";"1.0";"2";"1";"1";"2";"1";"1";"2014-10-16 12:24:20.190";"2014-10-16 12:36:38.976";"1";"0";"0";"157";"156";"module.training_block4.exec-6939.GoNoGo4";;;;;;;;;;;;;;;;;;;;;;;;;;;;;;;;;;;;;;;;;;;;;;;;;;;;;;;;;;;"1261";"2014-10-16 12:32:21.170";"NST_correctLoc";"25";"1";"FINISHED";"RIGHT";"success";"301";"0";"2014-10-16 12:32:19.906";"3";;;;;;;;;;;;;;;;;;;;;
"1224515";;;"Windows 7";"Rachel's Experiment (D.T.)";"1.0";"2";"1";"1";"2";"1";"1";"2014-10-16 12:24:20.190";"2014-10-16 12:36:38.976";"1";"0";"0";"158";"157";"module.training_block4.exec-6939.GoNoGo4";;;;;;;;;;;;;;;;;;;;;;;;;;;;;;;;;;;;;;;;;;;;;;;;;;;;;;;;;;;"1261";"2014-10-16 12:32:23.697";"NST_correctLoc";"14";"1";"FINISHED";"RIGHT";"success";"366";"0";"2014-10-16 12:32:22.433";"2";;;;;;;;;;;;;;;;;;;;;
"1224515";;;"Windows 7";"Rachel's Experiment (D.T.)";"1.0";"2";"1";"1";"2";"1";"1";"2014-10-16 12:24:20.190";"2014-10-16 12:36:38.976";"1";"0";"0";"159";"158";"module.training_block4.exec-6939.GoNoGo4";;;;;;;;;;;;;;;;;;;;;;;;;;;;;;;;;;;;;;;;;;;;;;;;;;;;;;;;;;;"1261";"2014-10-16 12:32:26.224";"NST_correctLoc";"1";"1";"FINISHED";"RIGHT";"success";"351";"0";"2014-10-16 12:32:24.960";"1";;;;;;;;;;;;;;;;;;;;;
"1224515";;;"Windows 7";"Rachel's Experiment (D.T.)";"1.0";"2";"1";"1";"2";"1";"1";"2014-10-16 12:24:20.190";"2014-10-16 12:36:38.976";"1";"0";"0";"160";"159";"module.devaluation_practice.exec-8319.devalPractice";;;;;;;;;;;;"32634";"2014-10-16 12:33:04.038";"0";"6";"7";"5";"10410";"6317";"12849";"2014-10-16 12:32:31.403";;;;;;;;;;;;;;;;;;;;;;;;;;;;;;;;;;;;;;;;;;;;;;;;;;;;;;;;;;;;;;;;;;;;;;
"1224515";;;"Windows 7";"Rachel's Experiment (D.T.)";"1.0";"2";"1";"1";"2";"1";"1";"2014-10-16 12:24:20.190";"2014-10-16 12:36:38.976";"1";"0";"0";"161";"160";"module.devaluation_practice.exec-8319.devalPractice";;;;;;;;;;;;"10837";"2014-10-16 12:33:14.912";"1";"2";"2";"5";"4347";"2931";"530";"2014-10-16 12:33:04.070";;;;;;;;;;;;;;;;;;;;;;;;;;;;;;;;;;;;;;;;;;;;;;;;;;;;;;;;;;;;;;;;;;;;;;
"1224515";;;"Windows 7";"Rachel's Experiment (D.T.)";"1.0";"2";"1";"1";"2";"1";"1";"2014-10-16 12:24:20.190";"2014-10-16 12:36:38.976";"1";"0";"0";"162";"161";"module.devaluation_practice.exec-8319.devalPractice";;;;;;;;;;;;"8149";"2014-10-16 12:33:23.071";"2";"1";"1";"1";"1746";"1373";"1982";"2014-10-16 12:33:14.927";;;;;;;;;;;;;;;;;;;;;;;;;;;;;;;;;;;;;;;;;;;;;;;;;;;;;;;;;;;;;;;;;;;;;;
"1224515";;;"Windows 7";"Rachel's Experiment (D.T.)";"1.0";"2";"1";"1";"2";"1";"1";"2014-10-16 12:24:20.190";"2014-10-16 12:36:38.976";"1";"0";"0";"163";"162";"module.devaluation_practice.exec-8319.devalPractice";;;;;;;;;;;;"9277";"2014-10-16 12:33:32.384";"3";"7";"8";"6";"2845";"981";"2405";"2014-10-16 12:33:23.102";;;;;;;;;;;;;;;;;;;;;;;;;;;;;;;;;;;;;;;;;;;;;;;;;;;;;;;;;;;;;;;;;;;;;;
"1224515";;;"Windows 7";"Rachel's Experiment (D.T.)";"1.0";"2";"1";"1";"2";"1";"1";"2014-10-16 12:24:20.190";"2014-10-16 12:36:38.976";"1";"0";"0";"164";"163";"module.devaluation_block1.exec-1762.deval1";"8546";"2014-10-16 12:33:44.645";"12";"6";"1";"3";"3191";"1467";"855";"2014-10-16 12:33:36.097";"2";;;;;;;;;;;;;;;;;;;;;;;;;;;;;;;;;;;;;;;;;;;;;;;;;;;;;;;;;;;;;;;;;;;;;;;;;;;;;;;;
"1224515";;;"Windows 7";"Rachel's Experiment (D.T.)";"1.0";"2";"1";"1";"2";"1";"1";"2014-10-16 12:24:20.190";"2014-10-16 12:36:38.976";"1";"0";"0";"165";"164";"module.devaluation_block1.exec-1762.deval1";"6583";"2014-10-16 12:33:51.260";"2";"7";"9";"9";"884";"1655";"1016";"2014-10-16 12:33:44.677";"1";;;;;;;;;;;;;;;;;;;;;;;;;;;;;;;;;;;;;;;;;;;;;;;;;;;;;;;;;;;;;;;;;;;;;;;;;;;;;;;;
"1224515";;;"Windows 7";"Rachel's Experiment (D.T.)";"1.0";"2";"1";"1";"2";"1";"1";"2014-10-16 12:24:20.190";"2014-10-16 12:36:38.976";"1";"0";"0";"166";"165";"module.devaluation_block1.exec-1762.deval1";"6736";"2014-10-16 12:33:58.030";"13";"2";"1";"2";"1630";"1060";"1013";"2014-10-16 12:33:51.291";"2";;;;;;;;;;;;;;;;;;;;;;;;;;;;;;;;;;;;;;;;;;;;;;;;;;;;;;;;;;;;;;;;;;;;;;;;;;;;;;;;
"1224515";;;"Windows 7";"Rachel's Experiment (D.T.)";"1.0";"2";"1";"1";"2";"1";"1";"2014-10-16 12:24:20.190";"2014-10-16 12:36:38.976";"1";"0";"0";"167";"166";"module.devaluation_block1.exec-1762.deval1";"5869";"2014-10-16 12:34:03.927";"10";"9";"9";"9";"939";"911";"993";"2014-10-16 12:33:58.061";"2";;;;;;;;;;;;;;;;;;;;;;;;;;;;;;;;;;;;;;;;;;;;;;;;;;;;;;;;;;;;;;;;;;;;;;;;;;;;;;;;
"1224515";;;"Windows 7";"Rachel's Experiment (D.T.)";"1.0";"2";"1";"1";"2";"1";"1";"2014-10-16 12:24:20.190";"2014-10-16 12:36:38.976";"1";"0";"0";"168";"167";"module.devaluation_block1.exec-1762.deval1";"6549";"2014-10-16 12:34:10.495";"25";"8";"7";"9";"754";"1583";"1187";"2014-10-16 12:34:03.943";"3";;;;;;;;;;;;;;;;;;;;;;;;;;;;;;;;;;;;;;;;;;;;;;;;;;;;;;;;;;;;;;;;;;;;;;;;;;;;;;;;
"1224515";;;"Windows 7";"Rachel's Experiment (D.T.)";"1.0";"2";"1";"1";"2";"1";"1";"2014-10-16 12:24:20.190";"2014-10-16 12:36:38.976";"1";"0";"0";"169";"168";"module.devaluation_block1.exec-1762.deval1";"7650";"2014-10-16 12:34:18.170";"5";"6";"2";"8";"1715";"1657";"1236";"2014-10-16 12:34:10.526";"1";;;;;;;;;;;;;;;;;;;;;;;;;;;;;;;;;;;;;;;;;;;;;;;;;;;;;;;;;;;;;;;;;;;;;;;;;;;;;;;;
"1224515";;;"Windows 7";"Rachel's Experiment (D.T.)";"1.0";"2";"1";"1";"2";"1";"1";"2014-10-16 12:24:20.190";"2014-10-16 12:36:38.976";"1";"0";"0";"170";"169";"module.devaluation_block1.exec-1762.deval1";"6725";"2014-10-16 12:34:24.909";"24";"3";"1";"2";"1552";"1147";"997";"2014-10-16 12:34:18.185";"3";;;;;;;;;;;;;;;;;;;;;;;;;;;;;;;;;;;;;;;;;;;;;;;;;;;;;;;;;;;;;;;;;;;;;;;;;;;;;;;;
"1224515";;;"Windows 7";"Rachel's Experiment (D.T.)";"1.0";"2";"1";"1";"2";"1";"1";"2014-10-16 12:24:20.190";"2014-10-16 12:36:38.976";"1";"0";"0";"171";"170";"module.devaluation_block1.exec-1762.deval1";"6477";"2014-10-16 12:34:31.414";"26";"8";"2";"7";"756";"1247";"1461";"2014-10-16 12:34:24.925";"3";;;;;;;;;;;;;;;;;;;;;;;;;;;;;;;;;;;;;;;;;;;;;;;;;;;;;;;;;;;;;;;;;;;;;;;;;;;;;;;;
"1224515";;;"Windows 7";"Rachel's Experiment (D.T.)";"1.0";"2";"1";"1";"2";"1";"1";"2014-10-16 12:24:20.190";"2014-10-16 12:36:38.976";"1";"0";"0";"172";"171";"module.devaluation_block1.exec-1762.deval1";"6244";"2014-10-16 12:34:37.685";"11";"6";"3";"6";"900";"1100";"1224";"2014-10-16 12:34:31.445";"2";;;;;;;;;;;;;;;;;;;;;;;;;;;;;;;;;;;;;;;;;;;;;;;;;;;;;;;;;;;;;;;;;;;;;;;;;;;;;;;;
"1224515";;;"Windows 7";"Rachel's Experiment (D.T.)";"1.0";"2";"1";"1";"2";"1";"1";"2014-10-16 12:24:20.190";"2014-10-16 12:36:38.976";"1";"0";"0";"173";"172";"module.devaluation_block1.exec-1762.deval1";"6277";"2014-10-16 12:34:43.988";"4";"2";"1";"1";"1380";"922";"956";"2014-10-16 12:34:37.701";"1";;;;;;;;;;;;;;;;;;;;;;;;;;;;;;;;;;;;;;;;;;;;;;;;;;;;;;;;;;;;;;;;;;;;;;;;;;;;;;;;
"1224515";;;"Windows 7";"Rachel's Experiment (D.T.)";"1.0";"2";"1";"1";"2";"1";"1";"2014-10-16 12:24:20.190";"2014-10-16 12:36:38.976";"1";"0";"0";"174";"173";"module.devaluation_block1.exec-1762.deval1";"8933";"2014-10-16 12:34:52.942";"9";"2";"1";"6";"2061";"982";"2864";"2014-10-16 12:34:44.003";"2";;;;;;;;;;;;;;;;;;;;;;;;;;;;;;;;;;;;;;;;;;;;;;;;;;;;;;;;;;;;;;;;;;;;;;;;;;;;;;;;
"1224515";;;"Windows 7";"Rachel's Experiment (D.T.)";"1.0";"2";"1";"1";"2";"1";"1";"2014-10-16 12:24:20.190";"2014-10-16 12:36:38.976";"1";"0";"0";"175";"174";"module.devaluation_block1.exec-1762.deval1";"7245";"2014-10-16 12:35:00.196";"0";"7";"7";"8";"899";"1273";"2047";"2014-10-16 12:34:52.958";"1";;;;;;;;;;;;;;;;;;;;;;;;;;;;;;;;;;;;;;;;;;;;;;;;;;;;;;;;;;;;;;;;;;;;;;;;;;;;;;;;
"1224515";;;"Windows 7";"Rachel's Experiment (D.T.)";"1.0";"2";"1";"1";"2";"1";"1";"2014-10-16 12:24:20.190";"2014-10-16 12:36:38.976";"1";"0";"0";"176";"175";"module.devaluation_block1.exec-1762.deval1";"7005";"2014-10-16 12:35:07.232";"17";"1";"1";"1";"1157";"1167";"1656";"2014-10-16 12:35:00.212";"2";;;;;;;;;;;;;;;;;;;;;;;;;;;;;;;;;;;;;;;;;;;;;;;;;;;;;;;;;;;;;;;;;;;;;;;;;;;;;;;;
"1224515";;;"Windows 7";"Rachel's Experiment (D.T.)";"1.0";"2";"1";"1";"2";"1";"1";"2014-10-16 12:24:20.190";"2014-10-16 12:36:38.976";"1";"0";"0";"177";"176";"module.devaluation_block1.exec-1762.deval1";"6435";"2014-10-16 12:35:13.675";"22";"2";"1";"1";"825";"1399";"1180";"2014-10-16 12:35:07.248";"3";;;;;;;;;;;;;;;;;;;;;;;;;;;;;;;;;;;;;;;;;;;;;;;;;;;;;;;;;;;;;;;;;;;;;;;;;;;;;;;;
"1224515";;;"Windows 7";"Rachel's Experiment (D.T.)";"1.0";"2";"1";"1";"2";"1";"1";"2014-10-16 12:24:20.190";"2014-10-16 12:36:38.976";"1";"0";"0";"178";"177";"module.devaluation_block1.exec-1762.deval1";"4293";"2014-10-16 12:35:17.996";"14";"5";"5";"5";"439";"313";"503";"2014-10-16 12:35:13.706";"2";;;;;;;;;;;;;;;;;;;;;;;;;;;;;;;;;;;;;;;;;;;;;;;;;;;;;;;;;;;;;;;;;;;;;;;;;;;;;;;;
"1224515";;;"Windows 7";"Rachel's Experiment (D.T.)";"1.0";"2";"1";"1";"2";"1";"1";"2014-10-16 12:24:20.190";"2014-10-16 12:36:38.976";"1";"0";"0";"179";"178";"module.devaluation_block1.exec-1762.deval1";"9616";"2014-10-16 12:35:27.637";"3";"7";"1";"7";"2382";"882";"3328";"2014-10-16 12:35:18.027";"1";;;;;;;;;;;;;;;;;;;;;;;;;;;;;;;;;;;;;;;;;;;;;;;;;;;;;;;;;;;;;;;;;;;;;;;;;;;;;;;;
"1224515";;;"Windows 7";"Rachel's Experiment (D.T.)";"1.0";"2";"1";"1";"2";"1";"1";"2014-10-16 12:24:20.190";"2014-10-16 12:36:38.976";"1";"0";"0";"180";"179";"module.devaluation_block1.exec-1762.deval1";"7846";"2014-10-16 12:35:35.515";"21";"7";"8";"7";"1573";"564";"2666";"2014-10-16 12:35:27.668";"3";;;;;;;;;;;;;;;;;;;;;;;;;;;;;;;;;;;;;;;;;;;;;;;;;;;;;;;;;;;;;;;;;;;;;;;;;;;;;;;;
"1224515";;;"Windows 7";"Rachel's Experiment (D.T.)";"1.0";"2";"1";"1";"2";"1";"1";"2014-10-16 12:24:20.190";"2014-10-16 12:36:38.976";"1";"0";"0";"181";"180";"module.devaluation_block1.exec-1762.deval1";"5100";"2014-10-16 12:35:40.632";"7";"3";"3";"2";"558";"801";"730";"2014-10-16 12:35:35.530";"1";;;;;;;;;;;;;;;;;;;;;;;;;;;;;;;;;;;;;;;;;;;;;;;;;;;;;;;;;;;;;;;;;;;;;;;;;;;;;;;;
"1224515";;;"Windows 7";"Rachel's Experiment (D.T.)";"1.0";"2";"1";"1";"2";"1";"1";"2014-10-16 12:24:20.190";"2014-10-16 12:36:38.976";"1";"0";"0";"182";"181";"module.devaluation_block1.exec-1762.deval1";"7565";"2014-10-16 12:35:48.213";"16";"1";"1";"1";"2617";"975";"962";"2014-10-16 12:35:40.647";"2";;;;;;;;;;;;;;;;;;;;;;;;;;;;;;;;;;;;;;;;;;;;;;;;;;;;;;;;;;;;;;;;;;;;;;;;;;;;;;;;
"1224515";;;"Windows 7";"Rachel's Experiment (D.T.)";"1.0";"2";"1";"1";"2";"1";"1";"2014-10-16 12:24:20.190";"2014-10-16 12:36:38.976";"1";"0";"0";"183";"182";"module.devaluation_block1.exec-1762.deval1";"5741";"2014-10-16 12:35:53.970";"1";"5";"5";"5";"2340";"90";"285";"2014-10-16 12:35:48.229";"1";;;;;;;;;;;;;;;;;;;;;;;;;;;;;;;;;;;;;;;;;;;;;;;;;;;;;;;;;;;;;;;;;;;;;;;;;;;;;;;;
"1224515";;;"Windows 7";"Rachel's Experiment (D.T.)";"1.0";"2";"1";"1";"2";"1";"1";"2014-10-16 12:24:20.190";"2014-10-16 12:36:38.976";"1";"0";"0";"184";"183";"module.devaluation_block1.exec-1762.deval1";"6444";"2014-10-16 12:36:00.444";"18";"9";"9";"9";"1624";"828";"951";"2014-10-16 12:35:54.001";"3";;;;;;;;;;;;;;;;;;;;;;;;;;;;;;;;;;;;;;;;;;;;;;;;;;;;;;;;;;;;;;;;;;;;;;;;;;;;;;;;
"1224515";;;"Windows 7";"Rachel's Experiment (D.T.)";"1.0";"2";"1";"1";"2";"1";"1";"2014-10-16 12:24:20.190";"2014-10-16 12:36:38.976";"1";"0";"0";"185";"184";"module.devaluation_block1.exec-1762.deval1";"6255";"2014-10-16 12:36:06.730";"6";"3";"1";"3";"1134";"892";"1208";"2014-10-16 12:36:00.475";"1";;;;;;;;;;;;;;;;;;;;;;;;;;;;;;;;;;;;;;;;;;;;;;;;;;;;;;;;;;;;;;;;;;;;;;;;;;;;;;;;
"1224515";;;"Windows 7";"Rachel's Experiment (D.T.)";"1.0";"2";"1";"1";"2";"1";"1";"2014-10-16 12:24:20.190";"2014-10-16 12:36:38.976";"1";"0";"0";"186";"185";"module.devaluation_block1.exec-1762.deval1";"6308";"2014-10-16 12:36:13.048";"8";"4";"2";"5";"1063";"839";"1375";"2014-10-16 12:36:06.746";"1";;;;;;;;;;;;;;;;;;;;;;;;;;;;;;;;;;;;;;;;;;;;;;;;;;;;;;;;;;;;;;;;;;;;;;;;;;;;;;;;
"1224515";;;"Windows 7";"Rachel's Experiment (D.T.)";"1.0";"2";"1";"1";"2";"1";"1";"2014-10-16 12:24:20.190";"2014-10-16 12:36:38.976";"1";"0";"0";"187";"186";"module.devaluation_block1.exec-1762.deval1";"6106";"2014-10-16 12:36:19.179";"15";"1";"1";"1";"1169";"852";"1042";"2014-10-16 12:36:13.080";"2";;;;;;;;;;;;;;;;;;;;;;;;;;;;;;;;;;;;;;;;;;;;;;;;;;;;;;;;;;;;;;;;;;;;;;;;;;;;;;;;
"1224515";;;"Windows 7";"Rachel's Experiment (D.T.)";"1.0";"2";"1";"1";"2";"1";"1";"2014-10-16 12:24:20.190";"2014-10-16 12:36:38.976";"1";"0";"0";"188";"187";"module.devaluation_block1.exec-1762.deval1";"6293";"2014-10-16 12:36:25.497";"19";"9";"9";"5";"1230";"1501";"531";"2014-10-16 12:36:19.195";"3";;;;;;;;;;;;;;;;;;;;;;;;;;;;;;;;;;;;;;;;;;;;;;;;;;;;;;;;;;;;;;;;;;;;;;;;;;;;;;;;
"1224515";;;"Windows 7";"Rachel's Experiment (D.T.)";"1.0";"2";"1";"1";"2";"1";"1";"2014-10-16 12:24:20.190";"2014-10-16 12:36:38.976";"1";"0";"0";"189";"188";"module.devaluation_block1.exec-1762.deval1";"6628";"2014-10-16 12:36:32.143";"23";"1";"1";"1";"1352";"1129";"1127";"2014-10-16 12:36:25.513";"3";;;;;;;;;;;;;;;;;;;;;;;;;;;;;;;;;;;;;;;;;;;;;;;;;;;;;;;;;;;;;;;;;;;;;;;;;;;;;;;;
"1224515";;;"Windows 7";"Rachel's Experiment (D.T.)";"1.0";"2";"1";"1";"2";"1";"1";"2014-10-16 12:24:20.190";"2014-10-16 12:36:38.976";"1";"0";"0";"190";"189";"module.devaluation_block1.exec-1762.deval1";"4797";"2014-10-16 12:36:36.963";"20";"7";"7";"7";"722";"501";"546";"2014-10-16 12:36:32.158";"3";;;;;;;;;;;;;;;;;;;;;;;;;;;;;;;;;;;;;;;;;;;;;;;;;;;;;;;;;;;;;;;;;;;;;;;;;;;;;;;;
