"user.name";"user.yearOfBirth";"user.sex";"user.osName";"module.name";"module.version";"module.online.subject.code";"module.online.study.id";"module.online.module.nr";"module.online.group.nr";"session.id";"session.index";"session.startTime";"session.endTime";"session.completed";"session.node-5440.conditionType";"session.node-9862.DevalQorder";"trial.id";"trial.index";"trial.name";"trial.deval1.durationTime";"trial.deval1.endTime";"trial.deval1.icon";"trial.deval1.Resp_Attractive";"trial.deval1.Resp_Eat";"trial.deval1.Resp_Taste";"trial.deval1.RT_Attractive";"trial.deval1.RT_Eat";"trial.deval1.RT_Taste";"trial.deval1.startTime";"trial.deval1.stimulus type";"trial.devalPractice.durationTime";"trial.devalPractice.endTime";"trial.devalPractice.icon";"trial.devalPractice.Resp_Attractive";"trial.devalPractice.Resp_Eat";"trial.devalPractice.Resp_Taste";"trial.devalPractice.RT_Attractive";"trial.devalPractice.RT_Eat";"trial.devalPractice.RT_Taste";"trial.devalPractice.startTime";"trial.devalPractice.stimulus type";"trial.GoNoGo1.durationTime";"trial.GoNoGo1.endTime";"trial.GoNoGo1.Error Type";"trial.GoNoGo1.icon";"trial.GoNoGo1.location";"trial.GoNoGo1.outcome";"trial.GoNoGo1.response";"trial.GoNoGo1.result";"trial.GoNoGo1.RT";"trial.GoNoGo1.signal";"trial.GoNoGo1.startTime";"trial.GoNoGo1.stimulus type";"trial.GoNoGo2.durationTime";"trial.GoNoGo2.endTime";"trial.GoNoGo2.Error Type";"trial.GoNoGo2.icon";"trial.GoNoGo2.location";"trial.GoNoGo2.outcome";"trial.GoNoGo2.response";"trial.GoNoGo2.result";"trial.GoNoGo2.RT";"trial.GoNoGo2.signal";"trial.GoNoGo2.startTime";"trial.GoNoGo2.stimulus type";"trial.GoNoGo3.durationTime";"trial.GoNoGo3.endTime";"trial.GoNoGo3.Error Type";"trial.GoNoGo3.icon";"trial.GoNoGo3.location";"trial.GoNoGo3.outcome";"trial.GoNoGo3.response";"trial.GoNoGo3.result";"trial.GoNoGo3.RT";"trial.GoNoGo3.signal";"trial.GoNoGo3.startTime";"trial.GoNoGo3.stimulus type";"trial.GoNoGo4.durationTime";"trial.GoNoGo4.endTime";"trial.GoNoGo4.Error Type";"trial.GoNoGo4.icon";"trial.GoNoGo4.location";"trial.GoNoGo4.outcome";"trial.GoNoGo4.response";"trial.GoNoGo4.result";"trial.GoNoGo4.RT";"trial.GoNoGo4.signal";"trial.GoNoGo4.startTime";"trial.GoNoGo4.stimulus type";"trial.GoNoGo_Practice.durationTime";"trial.GoNoGo_Practice.endTime";"trial.GoNoGo_Practice.icon";"trial.GoNoGo_Practice.location";"trial.GoNoGo_Practice.outcome";"trial.GoNoGo_Practice.response";"trial.GoNoGo_Practice.result";"trial.GoNoGo_Practice.RT";"trial.GoNoGo_Practice.signal";"trial.GoNoGo_Practice.startTime";"trial.GoNoGo_Practice.stimulus type";"trial.GoNoGo_Tutorial.durationTime";"trial.GoNoGo_Tutorial.endTime";"trial.GoNoGo_Tutorial.icon";"trial.GoNoGo_Tutorial.location";"trial.GoNoGo_Tutorial.outcome";"trial.GoNoGo_Tutorial.response";"trial.GoNoGo_Tutorial.result";"trial.GoNoGo_Tutorial.RT";"trial.GoNoGo_Tutorial.signal";"trial.GoNoGo_Tutorial.startTime"
"Bunces1";;;"Windows 7";"Rachel's Experiment (D.T.)";"1.0";"2";"1";"1";"2";"1";"1";"2014-10-16 13:07:43.139";"2014-10-16 13:21:37.897";"1";"1";"0";"1";"0";"module.GoNoGotutorial.exec-9512.GoNoGo_Tutorial";;;;;;;;;;;;;;;;;;;;;;;;;;;;;;;;;;;;;;;;;;;;;;;;;;;;;;;;;;;;;;;;;;;;;;;;;;;;;;;;;;"3998";"2014-10-16 13:08:51.639";"leftResponse";"0";"FINISHED";"LEFT";"success";"3113";"0";"2014-10-16 13:08:47.630"
"Bunces1";;;"Windows 7";"Rachel's Experiment (D.T.)";"1.0";"2";"1";"1";"2";"1";"1";"2014-10-16 13:07:43.139";"2014-10-16 13:21:37.897";"1";"1";"0";"2";"1";"module.GoNoGotutorial.exec-9512.GoNoGo_Tutorial";;;;;;;;;;;;;;;;;;;;;;;;;;;;;;;;;;;;;;;;;;;;;;;;;;;;;;;;;;;;;;;;;;;;;;;;;;;;;;;;;;"4003";"2014-10-16 13:08:56.943";"rightResponse";"1";"FINISHED";"RIGHT";"success";"2086";"0";"2014-10-16 13:08:52.934"
"Bunces1";;;"Windows 7";"Rachel's Experiment (D.T.)";"1.0";"2";"1";"1";"2";"1";"1";"2014-10-16 13:07:43.139";"2014-10-16 13:21:37.897";"1";"1";"0";"3";"2";"module.GoNoGotutorial.exec-9512.GoNoGo_Tutorial";;;;;;;;;;;;;;;;;;;;;;;;;;;;;;;;;;;;;;;;;;;;;;;;;;;;;;;;;;;;;;;;;;;;;;;;;;;;;;;;;;"4000";"2014-10-16 13:09:02.247";"signalResponse";"0";"FINISHED";"NONE";"success";"0";"1";"2014-10-16 13:08:58.238"
"Bunces1";;;"Windows 7";"Rachel's Experiment (D.T.)";"1.0";"2";"1";"1";"2";"1";"1";"2014-10-16 13:07:43.139";"2014-10-16 13:21:37.897";"1";"1";"0";"4";"3";"module.GoNoGopractice.exec-9826.GoNoGo_Practice";;;;;;;;;;;;;;;;;;;;;;;;;;;;;;;;;;;;;;;;;;;;;;;;;;;;;;;;;;;;;;;;;;;;;;;"1959";"2014-10-16 13:09:11.841";"18";"0";"FINISHED";"LEFT";"success";"607";"0";"2014-10-16 13:09:09.876";"3";;;;;;;;;;
"Bunces1";;;"Windows 7";"Rachel's Experiment (D.T.)";"1.0";"2";"1";"1";"2";"1";"1";"2014-10-16 13:07:43.139";"2014-10-16 13:21:37.897";"1";"1";"0";"5";"4";"module.GoNoGopractice.exec-9826.GoNoGo_Practice";;;;;;;;;;;;;;;;;;;;;;;;;;;;;;;;;;;;;;;;;;;;;;;;;;;;;;;;;;;;;;;;;;;;;;;"1958";"2014-10-16 13:09:15.086";"21";"1";"FINISHED";"RIGHT";"success";"458";"0";"2014-10-16 13:09:13.120";"3";;;;;;;;;;
"Bunces1";;;"Windows 7";"Rachel's Experiment (D.T.)";"1.0";"2";"1";"1";"2";"1";"1";"2014-10-16 13:07:43.139";"2014-10-16 13:21:37.897";"1";"1";"0";"6";"5";"module.GoNoGopractice.exec-9826.GoNoGo_Practice";;;;;;;;;;;;;;;;;;;;;;;;;;;;;;;;;;;;;;;;;;;;;;;;;;;;;;;;;;;;;;;;;;;;;;;"1959";"2014-10-16 13:09:18.331";"14";"1";"FINISHED";"NONE";"success";"0";"1";"2014-10-16 13:09:16.365";"2";;;;;;;;;;
"Bunces1";;;"Windows 7";"Rachel's Experiment (D.T.)";"1.0";"2";"1";"1";"2";"1";"1";"2014-10-16 13:07:43.139";"2014-10-16 13:21:37.897";"1";"1";"0";"7";"6";"module.GoNoGopractice.exec-9826.GoNoGo_Practice";;;;;;;;;;;;;;;;;;;;;;;;;;;;;;;;;;;;;;;;;;;;;;;;;;;;;;;;;;;;;;;;;;;;;;;"1959";"2014-10-16 13:09:21.576";"26";"0";"FINISHED";"LEFT";"success";"465";"0";"2014-10-16 13:09:19.610";"3";;;;;;;;;;
"Bunces1";;;"Windows 7";"Rachel's Experiment (D.T.)";"1.0";"2";"1";"1";"2";"1";"1";"2014-10-16 13:07:43.139";"2014-10-16 13:21:37.897";"1";"1";"0";"8";"7";"module.GoNoGopractice.exec-9826.GoNoGo_Practice";;;;;;;;;;;;;;;;;;;;;;;;;;;;;;;;;;;;;;;;;;;;;;;;;;;;;;;;;;;;;;;;;;;;;;;"1959";"2014-10-16 13:09:24.820";"2";"0";"FINISHED";"LEFT";"success";"413";"0";"2014-10-16 13:09:22.855";"1";;;;;;;;;;
"Bunces1";;;"Windows 7";"Rachel's Experiment (D.T.)";"1.0";"2";"1";"1";"2";"1";"1";"2014-10-16 13:07:43.139";"2014-10-16 13:21:37.897";"1";"1";"0";"9";"8";"module.GoNoGopractice.exec-9826.GoNoGo_Practice";;;;;;;;;;;;;;;;;;;;;;;;;;;;;;;;;;;;;;;;;;;;;;;;;;;;;;;;;;;;;;;;;;;;;;;"1960";"2014-10-16 13:09:28.065";"30";"0";"FINISHED";"LEFT";"failure";"416";"1";"2014-10-16 13:09:26.100";"3";;;;;;;;;;
"Bunces1";;;"Windows 7";"Rachel's Experiment (D.T.)";"1.0";"2";"1";"1";"2";"1";"1";"2014-10-16 13:07:43.139";"2014-10-16 13:21:37.897";"1";"1";"0";"10";"9";"module.GoNoGopractice.exec-9826.GoNoGo_Practice";;;;;;;;;;;;;;;;;;;;;;;;;;;;;;;;;;;;;;;;;;;;;;;;;;;;;;;;;;;;;;;;;;;;;;;"1959";"2014-10-16 13:09:31.310";"6";"1";"FINISHED";"NONE";"success";"0";"1";"2014-10-16 13:09:29.344";"1";;;;;;;;;;
"Bunces1";;;"Windows 7";"Rachel's Experiment (D.T.)";"1.0";"2";"1";"1";"2";"1";"1";"2014-10-16 13:07:43.139";"2014-10-16 13:21:37.897";"1";"1";"0";"11";"10";"module.GoNoGopractice.exec-9826.GoNoGo_Practice";;;;;;;;;;;;;;;;;;;;;;;;;;;;;;;;;;;;;;;;;;;;;;;;;;;;;;;;;;;;;;;;;;;;;;;"1960";"2014-10-16 13:09:34.570";"34";"0";"FINISHED";"LEFT";"success";"567";"0";"2014-10-16 13:09:32.605";"3";;;;;;;;;;
"Bunces1";;;"Windows 7";"Rachel's Experiment (D.T.)";"1.0";"2";"1";"1";"2";"1";"1";"2014-10-16 13:07:43.139";"2014-10-16 13:21:37.897";"1";"1";"0";"12";"11";"module.GoNoGopractice.exec-9826.GoNoGo_Practice";;;;;;;;;;;;;;;;;;;;;;;;;;;;;;;;;;;;;;;;;;;;;;;;;;;;;;;;;;;;;;;;;;;;;;;"1959";"2014-10-16 13:09:37.815";"23";"1";"FINISHED";"RIGHT";"success";"514";"0";"2014-10-16 13:09:35.850";"3";;;;;;;;;;
"Bunces1";;;"Windows 7";"Rachel's Experiment (D.T.)";"1.0";"2";"1";"1";"2";"1";"1";"2014-10-16 13:07:43.139";"2014-10-16 13:21:37.897";"1";"1";"0";"13";"12";"module.GoNoGopractice.exec-9826.GoNoGo_Practice";;;;;;;;;;;;;;;;;;;;;;;;;;;;;;;;;;;;;;;;;;;;;;;;;;;;;;;;;;;;;;;;;;;;;;;"1959";"2014-10-16 13:09:41.060";"13";"0";"FINISHED";"NONE";"success";"0";"1";"2014-10-16 13:09:39.094";"2";;;;;;;;;;
"Bunces1";;;"Windows 7";"Rachel's Experiment (D.T.)";"1.0";"2";"1";"1";"2";"1";"1";"2014-10-16 13:07:43.139";"2014-10-16 13:21:37.897";"1";"1";"0";"14";"13";"module.GoNoGopractice.exec-9826.GoNoGo_Practice";;;;;;;;;;;;;;;;;;;;;;;;;;;;;;;;;;;;;;;;;;;;;;;;;;;;;;;;;;;;;;;;;;;;;;;"1959";"2014-10-16 13:09:44.398";"3";"1";"FINISHED";"RIGHT";"success";"498";"0";"2014-10-16 13:09:42.433";"1";;;;;;;;;;
"Bunces1";;;"Windows 7";"Rachel's Experiment (D.T.)";"1.0";"2";"1";"1";"2";"1";"1";"2014-10-16 13:07:43.139";"2014-10-16 13:21:37.897";"1";"1";"0";"15";"14";"module.GoNoGopractice.exec-9826.GoNoGo_Practice";;;;;;;;;;;;;;;;;;;;;;;;;;;;;;;;;;;;;;;;;;;;;;;;;;;;;;;;;;;;;;;;;;;;;;;"1959";"2014-10-16 13:09:47.643";"27";"1";"FINISHED";"NONE";"success";"0";"1";"2014-10-16 13:09:45.678";"3";;;;;;;;;;
"Bunces1";;;"Windows 7";"Rachel's Experiment (D.T.)";"1.0";"2";"1";"1";"2";"1";"1";"2014-10-16 13:07:43.139";"2014-10-16 13:21:37.897";"1";"1";"0";"16";"15";"module.training_block1.exec-6838.GoNoGo1";;;;;;;;;;;;;;;;;;;;;;;"1256";"2014-10-16 13:09:56.551";"NST_correctLoc";"31";"1";"FINISHED";"RIGHT";"success";"498";"0";"2014-10-16 13:09:55.287";"3";;;;;;;;;;;;;;;;;;;;;;;;;;;;;;;;;;;;;;;;;;;;;;;;;;;;;;;;;
"Bunces1";;;"Windows 7";"Rachel's Experiment (D.T.)";"1.0";"2";"1";"1";"2";"1";"1";"2014-10-16 13:07:43.139";"2014-10-16 13:21:37.897";"1";"1";"0";"17";"16";"module.training_block1.exec-6838.GoNoGo1";;;;;;;;;;;;;;;;;;;;;;;"1258";"2014-10-16 13:09:59.094";"NST_correctLoc";"35";"1";"FINISHED";"RIGHT";"success";"462";"0";"2014-10-16 13:09:57.830";"3";;;;;;;;;;;;;;;;;;;;;;;;;;;;;;;;;;;;;;;;;;;;;;;;;;;;;;;;;
"Bunces1";;;"Windows 7";"Rachel's Experiment (D.T.)";"1.0";"2";"1";"1";"2";"1";"1";"2014-10-16 13:07:43.139";"2014-10-16 13:21:37.897";"1";"1";"0";"18";"17";"module.training_block1.exec-6838.GoNoGo1";;;;;;;;;;;;;;;;;;;;;;;"1258";"2014-10-16 13:10:01.636";"ST_correctStop";"1";"1";"FINISHED";"NONE";"success";"0";"1";"2014-10-16 13:10:00.373";"1";;;;;;;;;;;;;;;;;;;;;;;;;;;;;;;;;;;;;;;;;;;;;;;;;;;;;;;;;
"Bunces1";;;"Windows 7";"Rachel's Experiment (D.T.)";"1.0";"2";"1";"1";"2";"1";"1";"2014-10-16 13:07:43.139";"2014-10-16 13:21:37.897";"1";"1";"0";"19";"18";"module.training_block1.exec-6838.GoNoGo1";;;;;;;;;;;;;;;;;;;;;;;"1258";"2014-10-16 13:10:04.179";"NST_correctLoc";"9";"1";"FINISHED";"RIGHT";"success";"504";"0";"2014-10-16 13:10:02.916";"2";;;;;;;;;;;;;;;;;;;;;;;;;;;;;;;;;;;;;;;;;;;;;;;;;;;;;;;;;
"Bunces1";;;"Windows 7";"Rachel's Experiment (D.T.)";"1.0";"2";"1";"1";"2";"1";"1";"2014-10-16 13:07:43.139";"2014-10-16 13:21:37.897";"1";"1";"0";"20";"19";"module.training_block1.exec-6838.GoNoGo1";;;;;;;;;;;;;;;;;;;;;;;"1257";"2014-10-16 13:10:06.722";"ST_correctStop";"7";"1";"FINISHED";"NONE";"success";"0";"1";"2014-10-16 13:10:05.458";"1";;;;;;;;;;;;;;;;;;;;;;;;;;;;;;;;;;;;;;;;;;;;;;;;;;;;;;;;;
"Bunces1";;;"Windows 7";"Rachel's Experiment (D.T.)";"1.0";"2";"1";"1";"2";"1";"1";"2014-10-16 13:07:43.139";"2014-10-16 13:21:37.897";"1";"1";"0";"21";"20";"module.training_block1.exec-6838.GoNoGo1";;;;;;;;;;;;;;;;;;;;;;;"1257";"2014-10-16 13:10:09.265";"NST_correctLoc";"26";"0";"FINISHED";"LEFT";"success";"418";"0";"2014-10-16 13:10:08.001";"3";;;;;;;;;;;;;;;;;;;;;;;;;;;;;;;;;;;;;;;;;;;;;;;;;;;;;;;;;
"Bunces1";;;"Windows 7";"Rachel's Experiment (D.T.)";"1.0";"2";"1";"1";"2";"1";"1";"2014-10-16 13:07:43.139";"2014-10-16 13:21:37.897";"1";"1";"0";"22";"21";"module.training_block1.exec-6838.GoNoGo1";;;;;;;;;;;;;;;;;;;;;;;"1257";"2014-10-16 13:10:11.808";"NST_correctLoc";"21";"0";"FINISHED";"LEFT";"success";"403";"0";"2014-10-16 13:10:10.544";"3";;;;;;;;;;;;;;;;;;;;;;;;;;;;;;;;;;;;;;;;;;;;;;;;;;;;;;;;;
"Bunces1";;;"Windows 7";"Rachel's Experiment (D.T.)";"1.0";"2";"1";"1";"2";"1";"1";"2014-10-16 13:07:43.139";"2014-10-16 13:21:37.897";"1";"1";"0";"23";"22";"module.training_block1.exec-6838.GoNoGo1";;;;;;;;;;;;;;;;;;;;;;;"1258";"2014-10-16 13:10:14.351";"ST_correctStop";"22";"1";"FINISHED";"NONE";"success";"0";"1";"2014-10-16 13:10:13.087";"3";;;;;;;;;;;;;;;;;;;;;;;;;;;;;;;;;;;;;;;;;;;;;;;;;;;;;;;;;
"Bunces1";;;"Windows 7";"Rachel's Experiment (D.T.)";"1.0";"2";"1";"1";"2";"1";"1";"2014-10-16 13:07:43.139";"2014-10-16 13:21:37.897";"1";"1";"0";"24";"23";"module.training_block1.exec-6838.GoNoGo1";;;;;;;;;;;;;;;;;;;;;;;"1257";"2014-10-16 13:10:16.893";"ST_correctStop";"18";"1";"FINISHED";"NONE";"success";"0";"1";"2014-10-16 13:10:15.630";"3";;;;;;;;;;;;;;;;;;;;;;;;;;;;;;;;;;;;;;;;;;;;;;;;;;;;;;;;;
"Bunces1";;;"Windows 7";"Rachel's Experiment (D.T.)";"1.0";"2";"1";"1";"2";"1";"1";"2014-10-16 13:07:43.139";"2014-10-16 13:21:37.897";"1";"1";"0";"25";"24";"module.training_block1.exec-6838.GoNoGo1";;;;;;;;;;;;;;;;;;;;;;;"1257";"2014-10-16 13:10:19.436";"NST_correctLoc";"14";"1";"FINISHED";"RIGHT";"success";"478";"0";"2014-10-16 13:10:18.173";"2";;;;;;;;;;;;;;;;;;;;;;;;;;;;;;;;;;;;;;;;;;;;;;;;;;;;;;;;;
"Bunces1";;;"Windows 7";"Rachel's Experiment (D.T.)";"1.0";"2";"1";"1";"2";"1";"1";"2014-10-16 13:07:43.139";"2014-10-16 13:21:37.897";"1";"1";"0";"26";"25";"module.training_block1.exec-6838.GoNoGo1";;;;;;;;;;;;;;;;;;;;;;;"1257";"2014-10-16 13:10:21.979";"NST_correctLoc";"20";"0";"FINISHED";"LEFT";"success";"448";"0";"2014-10-16 13:10:20.715";"3";;;;;;;;;;;;;;;;;;;;;;;;;;;;;;;;;;;;;;;;;;;;;;;;;;;;;;;;;
"Bunces1";;;"Windows 7";"Rachel's Experiment (D.T.)";"1.0";"2";"1";"1";"2";"1";"1";"2014-10-16 13:07:43.139";"2014-10-16 13:21:37.897";"1";"1";"0";"27";"26";"module.training_block1.exec-6838.GoNoGo1";;;;;;;;;;;;;;;;;;;;;;;"1252";"2014-10-16 13:10:24.522";"NST_correctLoc";"10";"1";"FINISHED";"RIGHT";"success";"412";"0";"2014-10-16 13:10:23.258";"2";;;;;;;;;;;;;;;;;;;;;;;;;;;;;;;;;;;;;;;;;;;;;;;;;;;;;;;;;
"Bunces1";;;"Windows 7";"Rachel's Experiment (D.T.)";"1.0";"2";"1";"1";"2";"1";"1";"2014-10-16 13:07:43.139";"2014-10-16 13:21:37.897";"1";"1";"0";"28";"27";"module.training_block1.exec-6838.GoNoGo1";;;;;;;;;;;;;;;;;;;;;;;"1258";"2014-10-16 13:10:27.065";"ST_correctStop";"28";"1";"FINISHED";"NONE";"success";"0";"1";"2014-10-16 13:10:25.801";"3";;;;;;;;;;;;;;;;;;;;;;;;;;;;;;;;;;;;;;;;;;;;;;;;;;;;;;;;;
"Bunces1";;;"Windows 7";"Rachel's Experiment (D.T.)";"1.0";"2";"1";"1";"2";"1";"1";"2014-10-16 13:07:43.139";"2014-10-16 13:21:37.897";"1";"1";"0";"29";"28";"module.training_block1.exec-6838.GoNoGo1";;;;;;;;;;;;;;;;;;;;;;;"1257";"2014-10-16 13:10:29.607";"NST_correctLoc";"23";"1";"FINISHED";"RIGHT";"success";"555";"0";"2014-10-16 13:10:28.344";"3";;;;;;;;;;;;;;;;;;;;;;;;;;;;;;;;;;;;;;;;;;;;;;;;;;;;;;;;;
"Bunces1";;;"Windows 7";"Rachel's Experiment (D.T.)";"1.0";"2";"1";"1";"2";"1";"1";"2014-10-16 13:07:43.139";"2014-10-16 13:21:37.897";"1";"1";"0";"30";"29";"module.training_block1.exec-6838.GoNoGo1";;;;;;;;;;;;;;;;;;;;;;;"1258";"2014-10-16 13:10:32.150";"ST_correctStop";"29";"1";"FINISHED";"NONE";"success";"0";"1";"2014-10-16 13:10:30.887";"3";;;;;;;;;;;;;;;;;;;;;;;;;;;;;;;;;;;;;;;;;;;;;;;;;;;;;;;;;
"Bunces1";;;"Windows 7";"Rachel's Experiment (D.T.)";"1.0";"2";"1";"1";"2";"1";"1";"2014-10-16 13:07:43.139";"2014-10-16 13:21:37.897";"1";"1";"0";"31";"30";"module.training_block1.exec-6838.GoNoGo1";;;;;;;;;;;;;;;;;;;;;;;"1258";"2014-10-16 13:10:34.693";"ST_failedStop";"5";"0";"FINISHED";"LEFT";"failure";"398";"1";"2014-10-16 13:10:33.429";"1";;;;;;;;;;;;;;;;;;;;;;;;;;;;;;;;;;;;;;;;;;;;;;;;;;;;;;;;;
"Bunces1";;;"Windows 7";"Rachel's Experiment (D.T.)";"1.0";"2";"1";"1";"2";"1";"1";"2014-10-16 13:07:43.139";"2014-10-16 13:21:37.897";"1";"1";"0";"32";"31";"module.training_block1.exec-6838.GoNoGo1";;;;;;;;;;;;;;;;;;;;;;;"1260";"2014-10-16 13:10:37.236";"NST_correctLoc";"11";"1";"FINISHED";"RIGHT";"success";"418";"0";"2014-10-16 13:10:35.972";"2";;;;;;;;;;;;;;;;;;;;;;;;;;;;;;;;;;;;;;;;;;;;;;;;;;;;;;;;;
"Bunces1";;;"Windows 7";"Rachel's Experiment (D.T.)";"1.0";"2";"1";"1";"2";"1";"1";"2014-10-16 13:07:43.139";"2014-10-16 13:21:37.897";"1";"1";"0";"33";"32";"module.training_block1.exec-6838.GoNoGo1";;;;;;;;;;;;;;;;;;;;;;;"1258";"2014-10-16 13:10:39.779";"NST_correctLoc";"33";"0";"FINISHED";"LEFT";"success";"449";"0";"2014-10-16 13:10:38.515";"3";;;;;;;;;;;;;;;;;;;;;;;;;;;;;;;;;;;;;;;;;;;;;;;;;;;;;;;;;
"Bunces1";;;"Windows 7";"Rachel's Experiment (D.T.)";"1.0";"2";"1";"1";"2";"1";"1";"2014-10-16 13:07:43.139";"2014-10-16 13:21:37.897";"1";"1";"0";"34";"33";"module.training_block1.exec-6838.GoNoGo1";;;;;;;;;;;;;;;;;;;;;;;"1257";"2014-10-16 13:10:42.321";"NST_correctLoc";"17";"0";"FINISHED";"LEFT";"success";"545";"0";"2014-10-16 13:10:41.058";"2";;;;;;;;;;;;;;;;;;;;;;;;;;;;;;;;;;;;;;;;;;;;;;;;;;;;;;;;;
"Bunces1";;;"Windows 7";"Rachel's Experiment (D.T.)";"1.0";"2";"1";"1";"2";"1";"1";"2014-10-16 13:07:43.139";"2014-10-16 13:21:37.897";"1";"1";"0";"35";"34";"module.training_block1.exec-6838.GoNoGo1";;;;;;;;;;;;;;;;;;;;;;;"1257";"2014-10-16 13:10:44.864";"ST_correctStop";"6";"0";"FINISHED";"NONE";"success";"0";"1";"2014-10-16 13:10:43.601";"1";;;;;;;;;;;;;;;;;;;;;;;;;;;;;;;;;;;;;;;;;;;;;;;;;;;;;;;;;
"Bunces1";;;"Windows 7";"Rachel's Experiment (D.T.)";"1.0";"2";"1";"1";"2";"1";"1";"2014-10-16 13:07:43.139";"2014-10-16 13:21:37.897";"1";"1";"0";"36";"35";"module.training_block1.exec-6838.GoNoGo1";;;;;;;;;;;;;;;;;;;;;;;"1257";"2014-10-16 13:10:47.407";"NST_correctLoc";"12";"1";"FINISHED";"RIGHT";"success";"411";"0";"2014-10-16 13:10:46.143";"2";;;;;;;;;;;;;;;;;;;;;;;;;;;;;;;;;;;;;;;;;;;;;;;;;;;;;;;;;
"Bunces1";;;"Windows 7";"Rachel's Experiment (D.T.)";"1.0";"2";"1";"1";"2";"1";"1";"2014-10-16 13:07:43.139";"2014-10-16 13:21:37.897";"1";"1";"0";"37";"36";"module.training_block1.exec-6838.GoNoGo1";;;;;;;;;;;;;;;;;;;;;;;"1257";"2014-10-16 13:10:49.950";"ST_correctStop";"4";"0";"FINISHED";"NONE";"success";"0";"1";"2014-10-16 13:10:48.686";"1";;;;;;;;;;;;;;;;;;;;;;;;;;;;;;;;;;;;;;;;;;;;;;;;;;;;;;;;;
"Bunces1";;;"Windows 7";"Rachel's Experiment (D.T.)";"1.0";"2";"1";"1";"2";"1";"1";"2014-10-16 13:07:43.139";"2014-10-16 13:21:37.897";"1";"1";"0";"38";"37";"module.training_block1.exec-6838.GoNoGo1";;;;;;;;;;;;;;;;;;;;;;;"1258";"2014-10-16 13:10:52.493";"NST_correctLoc";"30";"1";"FINISHED";"RIGHT";"success";"478";"0";"2014-10-16 13:10:51.229";"3";;;;;;;;;;;;;;;;;;;;;;;;;;;;;;;;;;;;;;;;;;;;;;;;;;;;;;;;;
"Bunces1";;;"Windows 7";"Rachel's Experiment (D.T.)";"1.0";"2";"1";"1";"2";"1";"1";"2014-10-16 13:07:43.139";"2014-10-16 13:21:37.897";"1";"1";"0";"39";"38";"module.training_block1.exec-6838.GoNoGo1";;;;;;;;;;;;;;;;;;;;;;;"1258";"2014-10-16 13:10:55.035";"NST_correctLoc";"16";"0";"FINISHED";"LEFT";"success";"447";"0";"2014-10-16 13:10:53.772";"2";;;;;;;;;;;;;;;;;;;;;;;;;;;;;;;;;;;;;;;;;;;;;;;;;;;;;;;;;
"Bunces1";;;"Windows 7";"Rachel's Experiment (D.T.)";"1.0";"2";"1";"1";"2";"1";"1";"2014-10-16 13:07:43.139";"2014-10-16 13:21:37.897";"1";"1";"0";"40";"39";"module.training_block1.exec-6838.GoNoGo1";;;;;;;;;;;;;;;;;;;;;;;"1257";"2014-10-16 13:10:57.578";"NST_correctLoc";"15";"1";"FINISHED";"RIGHT";"success";"568";"0";"2014-10-16 13:10:56.315";"2";;;;;;;;;;;;;;;;;;;;;;;;;;;;;;;;;;;;;;;;;;;;;;;;;;;;;;;;;
"Bunces1";;;"Windows 7";"Rachel's Experiment (D.T.)";"1.0";"2";"1";"1";"2";"1";"1";"2014-10-16 13:07:43.139";"2014-10-16 13:21:37.897";"1";"1";"0";"41";"40";"module.training_block1.exec-6838.GoNoGo1";;;;;;;;;;;;;;;;;;;;;;;"1258";"2014-10-16 13:11:00.121";"ST_correctStop";"19";"1";"FINISHED";"NONE";"success";"0";"1";"2014-10-16 13:10:58.857";"3";;;;;;;;;;;;;;;;;;;;;;;;;;;;;;;;;;;;;;;;;;;;;;;;;;;;;;;;;
"Bunces1";;;"Windows 7";"Rachel's Experiment (D.T.)";"1.0";"2";"1";"1";"2";"1";"1";"2014-10-16 13:07:43.139";"2014-10-16 13:21:37.897";"1";"1";"0";"42";"41";"module.training_block1.exec-6838.GoNoGo1";;;;;;;;;;;;;;;;;;;;;;;"1257";"2014-10-16 13:11:02.664";"ST_correctStop";"24";"1";"FINISHED";"NONE";"success";"0";"1";"2014-10-16 13:11:01.400";"3";;;;;;;;;;;;;;;;;;;;;;;;;;;;;;;;;;;;;;;;;;;;;;;;;;;;;;;;;
"Bunces1";;;"Windows 7";"Rachel's Experiment (D.T.)";"1.0";"2";"1";"1";"2";"1";"1";"2014-10-16 13:07:43.139";"2014-10-16 13:21:37.897";"1";"1";"0";"43";"42";"module.training_block1.exec-6838.GoNoGo1";;;;;;;;;;;;;;;;;;;;;;;"1258";"2014-10-16 13:11:05.207";"ST_correctStop";"34";"0";"FINISHED";"NONE";"success";"0";"1";"2014-10-16 13:11:03.943";"3";;;;;;;;;;;;;;;;;;;;;;;;;;;;;;;;;;;;;;;;;;;;;;;;;;;;;;;;;
"Bunces1";;;"Windows 7";"Rachel's Experiment (D.T.)";"1.0";"2";"1";"1";"2";"1";"1";"2014-10-16 13:07:43.139";"2014-10-16 13:21:37.897";"1";"1";"0";"44";"43";"module.training_block1.exec-6838.GoNoGo1";;;;;;;;;;;;;;;;;;;;;;;"1261";"2014-10-16 13:11:07.749";"ST_correctStop";"27";"1";"FINISHED";"NONE";"success";"0";"1";"2014-10-16 13:11:06.486";"3";;;;;;;;;;;;;;;;;;;;;;;;;;;;;;;;;;;;;;;;;;;;;;;;;;;;;;;;;
"Bunces1";;;"Windows 7";"Rachel's Experiment (D.T.)";"1.0";"2";"1";"1";"2";"1";"1";"2014-10-16 13:07:43.139";"2014-10-16 13:21:37.897";"1";"1";"0";"45";"44";"module.training_block1.exec-6838.GoNoGo1";;;;;;;;;;;;;;;;;;;;;;;"1257";"2014-10-16 13:11:10.292";"NST_correctLoc";"32";"0";"FINISHED";"LEFT";"success";"398";"0";"2014-10-16 13:11:09.029";"3";;;;;;;;;;;;;;;;;;;;;;;;;;;;;;;;;;;;;;;;;;;;;;;;;;;;;;;;;
"Bunces1";;;"Windows 7";"Rachel's Experiment (D.T.)";"1.0";"2";"1";"1";"2";"1";"1";"2014-10-16 13:07:43.139";"2014-10-16 13:21:37.897";"1";"1";"0";"46";"45";"module.training_block1.exec-6838.GoNoGo1";;;;;;;;;;;;;;;;;;;;;;;"1261";"2014-10-16 13:11:12.835";"ST_correctStop";"3";"1";"FINISHED";"NONE";"success";"0";"1";"2014-10-16 13:11:11.571";"1";;;;;;;;;;;;;;;;;;;;;;;;;;;;;;;;;;;;;;;;;;;;;;;;;;;;;;;;;
"Bunces1";;;"Windows 7";"Rachel's Experiment (D.T.)";"1.0";"2";"1";"1";"2";"1";"1";"2014-10-16 13:07:43.139";"2014-10-16 13:21:37.897";"1";"1";"0";"47";"46";"module.training_block1.exec-6838.GoNoGo1";;;;;;;;;;;;;;;;;;;;;;;"1257";"2014-10-16 13:11:15.378";"ST_correctStop";"8";"0";"FINISHED";"NONE";"success";"0";"1";"2014-10-16 13:11:14.114";"1";;;;;;;;;;;;;;;;;;;;;;;;;;;;;;;;;;;;;;;;;;;;;;;;;;;;;;;;;
"Bunces1";;;"Windows 7";"Rachel's Experiment (D.T.)";"1.0";"2";"1";"1";"2";"1";"1";"2014-10-16 13:07:43.139";"2014-10-16 13:21:37.897";"1";"1";"0";"48";"47";"module.training_block1.exec-6838.GoNoGo1";;;;;;;;;;;;;;;;;;;;;;;"1257";"2014-10-16 13:11:17.921";"NST_correctLoc";"13";"0";"FINISHED";"LEFT";"success";"449";"0";"2014-10-16 13:11:16.657";"2";;;;;;;;;;;;;;;;;;;;;;;;;;;;;;;;;;;;;;;;;;;;;;;;;;;;;;;;;
"Bunces1";;;"Windows 7";"Rachel's Experiment (D.T.)";"1.0";"2";"1";"1";"2";"1";"1";"2014-10-16 13:07:43.139";"2014-10-16 13:21:37.897";"1";"1";"0";"49";"48";"module.training_block1.exec-6838.GoNoGo1";;;;;;;;;;;;;;;;;;;;;;;"1258";"2014-10-16 13:11:20.463";"ST_correctStop";"25";"1";"FINISHED";"NONE";"success";"0";"1";"2014-10-16 13:11:19.200";"3";;;;;;;;;;;;;;;;;;;;;;;;;;;;;;;;;;;;;;;;;;;;;;;;;;;;;;;;;
"Bunces1";;;"Windows 7";"Rachel's Experiment (D.T.)";"1.0";"2";"1";"1";"2";"1";"1";"2014-10-16 13:07:43.139";"2014-10-16 13:21:37.897";"1";"1";"0";"50";"49";"module.training_block1.exec-6838.GoNoGo1";;;;;;;;;;;;;;;;;;;;;;;"1258";"2014-10-16 13:11:23.006";"ST_correctStop";"0";"1";"FINISHED";"NONE";"success";"0";"1";"2014-10-16 13:11:21.743";"1";;;;;;;;;;;;;;;;;;;;;;;;;;;;;;;;;;;;;;;;;;;;;;;;;;;;;;;;;
"Bunces1";;;"Windows 7";"Rachel's Experiment (D.T.)";"1.0";"2";"1";"1";"2";"1";"1";"2014-10-16 13:07:43.139";"2014-10-16 13:21:37.897";"1";"1";"0";"51";"50";"module.training_block1.exec-6838.GoNoGo1";;;;;;;;;;;;;;;;;;;;;;;"1257";"2014-10-16 13:11:25.549";"ST_correctStop";"2";"0";"FINISHED";"NONE";"success";"0";"1";"2014-10-16 13:11:24.285";"1";;;;;;;;;;;;;;;;;;;;;;;;;;;;;;;;;;;;;;;;;;;;;;;;;;;;;;;;;
"Bunces1";;;"Windows 7";"Rachel's Experiment (D.T.)";"1.0";"2";"1";"1";"2";"1";"1";"2014-10-16 13:07:43.139";"2014-10-16 13:21:37.897";"1";"1";"0";"52";"51";"module.training_block2.exec-8629.GoNoGo2";;;;;;;;;;;;;;;;;;;;;;;;;;;;;;;;;;;"1261";"2014-10-16 13:11:41.570";"NST_correctLoc";"29";"0";"FINISHED";"LEFT";"success";"404";"0";"2014-10-16 13:11:40.307";"3";;;;;;;;;;;;;;;;;;;;;;;;;;;;;;;;;;;;;;;;;;;;;
"Bunces1";;;"Windows 7";"Rachel's Experiment (D.T.)";"1.0";"2";"1";"1";"2";"1";"1";"2014-10-16 13:07:43.139";"2014-10-16 13:21:37.897";"1";"1";"0";"53";"52";"module.training_block2.exec-8629.GoNoGo2";;;;;;;;;;;;;;;;;;;;;;;;;;;;;;;;;;;"1261";"2014-10-16 13:11:44.113";"NST_correctLoc";"10";"0";"FINISHED";"LEFT";"success";"437";"0";"2014-10-16 13:11:42.849";"2";;;;;;;;;;;;;;;;;;;;;;;;;;;;;;;;;;;;;;;;;;;;;
"Bunces1";;;"Windows 7";"Rachel's Experiment (D.T.)";"1.0";"2";"1";"1";"2";"1";"1";"2014-10-16 13:07:43.139";"2014-10-16 13:21:37.897";"1";"1";"0";"54";"53";"module.training_block2.exec-8629.GoNoGo2";;;;;;;;;;;;;;;;;;;;;;;;;;;;;;;;;;;"1261";"2014-10-16 13:11:46.656";"ST_correctStop";"5";"0";"FINISHED";"NONE";"success";"0";"1";"2014-10-16 13:11:45.392";"1";;;;;;;;;;;;;;;;;;;;;;;;;;;;;;;;;;;;;;;;;;;;;
"Bunces1";;;"Windows 7";"Rachel's Experiment (D.T.)";"1.0";"2";"1";"1";"2";"1";"1";"2014-10-16 13:07:43.139";"2014-10-16 13:21:37.897";"1";"1";"0";"55";"54";"module.training_block2.exec-8629.GoNoGo2";;;;;;;;;;;;;;;;;;;;;;;;;;;;;;;;;;;"1261";"2014-10-16 13:11:49.199";"ST_correctStop";"3";"0";"FINISHED";"NONE";"success";"0";"1";"2014-10-16 13:11:47.935";"1";;;;;;;;;;;;;;;;;;;;;;;;;;;;;;;;;;;;;;;;;;;;;
"Bunces1";;;"Windows 7";"Rachel's Experiment (D.T.)";"1.0";"2";"1";"1";"2";"1";"1";"2014-10-16 13:07:43.139";"2014-10-16 13:21:37.897";"1";"1";"0";"56";"55";"module.training_block2.exec-8629.GoNoGo2";;;;;;;;;;;;;;;;;;;;;;;;;;;;;;;;;;;"1261";"2014-10-16 13:11:51.741";"ST_correctStop";"4";"1";"FINISHED";"NONE";"success";"0";"1";"2014-10-16 13:11:50.478";"1";;;;;;;;;;;;;;;;;;;;;;;;;;;;;;;;;;;;;;;;;;;;;
"Bunces1";;;"Windows 7";"Rachel's Experiment (D.T.)";"1.0";"2";"1";"1";"2";"1";"1";"2014-10-16 13:07:43.139";"2014-10-16 13:21:37.897";"1";"1";"0";"57";"56";"module.training_block2.exec-8629.GoNoGo2";;;;;;;;;;;;;;;;;;;;;;;;;;;;;;;;;;;"1261";"2014-10-16 13:11:54.284";"ST_correctStop";"21";"0";"FINISHED";"NONE";"success";"0";"1";"2014-10-16 13:11:53.021";"3";;;;;;;;;;;;;;;;;;;;;;;;;;;;;;;;;;;;;;;;;;;;;
"Bunces1";;;"Windows 7";"Rachel's Experiment (D.T.)";"1.0";"2";"1";"1";"2";"1";"1";"2014-10-16 13:07:43.139";"2014-10-16 13:21:37.897";"1";"1";"0";"58";"57";"module.training_block2.exec-8629.GoNoGo2";;;;;;;;;;;;;;;;;;;;;;;;;;;;;;;;;;;"1261";"2014-10-16 13:11:56.827";"ST_correctStop";"28";"0";"FINISHED";"NONE";"success";"0";"1";"2014-10-16 13:11:55.563";"3";;;;;;;;;;;;;;;;;;;;;;;;;;;;;;;;;;;;;;;;;;;;;
"Bunces1";;;"Windows 7";"Rachel's Experiment (D.T.)";"1.0";"2";"1";"1";"2";"1";"1";"2014-10-16 13:07:43.139";"2014-10-16 13:21:37.897";"1";"1";"0";"59";"58";"module.training_block2.exec-8629.GoNoGo2";;;;;;;;;;;;;;;;;;;;;;;;;;;;;;;;;;;"1261";"2014-10-16 13:11:59.370";"NST_correctLoc";"11";"0";"FINISHED";"LEFT";"success";"500";"0";"2014-10-16 13:11:58.106";"2";;;;;;;;;;;;;;;;;;;;;;;;;;;;;;;;;;;;;;;;;;;;;
"Bunces1";;;"Windows 7";"Rachel's Experiment (D.T.)";"1.0";"2";"1";"1";"2";"1";"1";"2014-10-16 13:07:43.139";"2014-10-16 13:21:37.897";"1";"1";"0";"60";"59";"module.training_block2.exec-8629.GoNoGo2";;;;;;;;;;;;;;;;;;;;;;;;;;;;;;;;;;;"1261";"2014-10-16 13:12:01.913";"NST_correctLoc";"17";"1";"FINISHED";"RIGHT";"success";"429";"0";"2014-10-16 13:12:00.649";"2";;;;;;;;;;;;;;;;;;;;;;;;;;;;;;;;;;;;;;;;;;;;;
"Bunces1";;;"Windows 7";"Rachel's Experiment (D.T.)";"1.0";"2";"1";"1";"2";"1";"1";"2014-10-16 13:07:43.139";"2014-10-16 13:21:37.897";"1";"1";"0";"61";"60";"module.training_block2.exec-8629.GoNoGo2";;;;;;;;;;;;;;;;;;;;;;;;;;;;;;;;;;;"1261";"2014-10-16 13:12:04.456";"NST_correctLoc";"16";"0";"FINISHED";"LEFT";"success";"406";"0";"2014-10-16 13:12:03.192";"2";;;;;;;;;;;;;;;;;;;;;;;;;;;;;;;;;;;;;;;;;;;;;
"Bunces1";;;"Windows 7";"Rachel's Experiment (D.T.)";"1.0";"2";"1";"1";"2";"1";"1";"2014-10-16 13:07:43.139";"2014-10-16 13:21:37.897";"1";"1";"0";"62";"61";"module.training_block2.exec-8629.GoNoGo2";;;;;;;;;;;;;;;;;;;;;;;;;;;;;;;;;;;"1261";"2014-10-16 13:12:06.998";"NST_correctLoc";"14";"0";"FINISHED";"LEFT";"success";"352";"0";"2014-10-16 13:12:05.735";"2";;;;;;;;;;;;;;;;;;;;;;;;;;;;;;;;;;;;;;;;;;;;;
"Bunces1";;;"Windows 7";"Rachel's Experiment (D.T.)";"1.0";"2";"1";"1";"2";"1";"1";"2014-10-16 13:07:43.139";"2014-10-16 13:21:37.897";"1";"1";"0";"63";"62";"module.training_block2.exec-8629.GoNoGo2";;;;;;;;;;;;;;;;;;;;;;;;;;;;;;;;;;;"1261";"2014-10-16 13:12:09.541";"ST_failedStop";"33";"0";"FINISHED";"LEFT";"failure";"345";"1";"2014-10-16 13:12:08.278";"3";;;;;;;;;;;;;;;;;;;;;;;;;;;;;;;;;;;;;;;;;;;;;
"Bunces1";;;"Windows 7";"Rachel's Experiment (D.T.)";"1.0";"2";"1";"1";"2";"1";"1";"2014-10-16 13:07:43.139";"2014-10-16 13:21:37.897";"1";"1";"0";"64";"63";"module.training_block2.exec-8629.GoNoGo2";;;;;;;;;;;;;;;;;;;;;;;;;;;;;;;;;;;"1261";"2014-10-16 13:12:12.084";"NST_correctLoc";"15";"0";"FINISHED";"LEFT";"success";"386";"0";"2014-10-16 13:12:10.820";"2";;;;;;;;;;;;;;;;;;;;;;;;;;;;;;;;;;;;;;;;;;;;;
"Bunces1";;;"Windows 7";"Rachel's Experiment (D.T.)";"1.0";"2";"1";"1";"2";"1";"1";"2014-10-16 13:07:43.139";"2014-10-16 13:21:37.897";"1";"1";"0";"65";"64";"module.training_block2.exec-8629.GoNoGo2";;;;;;;;;;;;;;;;;;;;;;;;;;;;;;;;;;;"1261";"2014-10-16 13:12:14.627";"ST_correctStop";"24";"1";"FINISHED";"NONE";"success";"0";"1";"2014-10-16 13:12:13.363";"3";;;;;;;;;;;;;;;;;;;;;;;;;;;;;;;;;;;;;;;;;;;;;
"Bunces1";;;"Windows 7";"Rachel's Experiment (D.T.)";"1.0";"2";"1";"1";"2";"1";"1";"2014-10-16 13:07:43.139";"2014-10-16 13:21:37.897";"1";"1";"0";"66";"65";"module.training_block2.exec-8629.GoNoGo2";;;;;;;;;;;;;;;;;;;;;;;;;;;;;;;;;;;"1261";"2014-10-16 13:12:17.170";"ST_correctStop";"18";"0";"FINISHED";"NONE";"success";"0";"1";"2014-10-16 13:12:15.906";"3";;;;;;;;;;;;;;;;;;;;;;;;;;;;;;;;;;;;;;;;;;;;;
"Bunces1";;;"Windows 7";"Rachel's Experiment (D.T.)";"1.0";"2";"1";"1";"2";"1";"1";"2014-10-16 13:07:43.139";"2014-10-16 13:21:37.897";"1";"1";"0";"67";"66";"module.training_block2.exec-8629.GoNoGo2";;;;;;;;;;;;;;;;;;;;;;;;;;;;;;;;;;;"1261";"2014-10-16 13:12:19.759";"NST_correctLoc";"35";"1";"FINISHED";"RIGHT";"success";"535";"0";"2014-10-16 13:12:18.496";"3";;;;;;;;;;;;;;;;;;;;;;;;;;;;;;;;;;;;;;;;;;;;;
"Bunces1";;;"Windows 7";"Rachel's Experiment (D.T.)";"1.0";"2";"1";"1";"2";"1";"1";"2014-10-16 13:07:43.139";"2014-10-16 13:21:37.897";"1";"1";"0";"68";"67";"module.training_block2.exec-8629.GoNoGo2";;;;;;;;;;;;;;;;;;;;;;;;;;;;;;;;;;;"1261";"2014-10-16 13:12:22.302";"ST_correctStop";"22";"1";"FINISHED";"NONE";"success";"0";"1";"2014-10-16 13:12:21.038";"3";;;;;;;;;;;;;;;;;;;;;;;;;;;;;;;;;;;;;;;;;;;;;
"Bunces1";;;"Windows 7";"Rachel's Experiment (D.T.)";"1.0";"2";"1";"1";"2";"1";"1";"2014-10-16 13:07:43.139";"2014-10-16 13:21:37.897";"1";"1";"0";"69";"68";"module.training_block2.exec-8629.GoNoGo2";;;;;;;;;;;;;;;;;;;;;;;;;;;;;;;;;;;"1261";"2014-10-16 13:12:24.845";"NST_correctLoc";"23";"0";"FINISHED";"LEFT";"success";"449";"0";"2014-10-16 13:12:23.581";"3";;;;;;;;;;;;;;;;;;;;;;;;;;;;;;;;;;;;;;;;;;;;;
"Bunces1";;;"Windows 7";"Rachel's Experiment (D.T.)";"1.0";"2";"1";"1";"2";"1";"1";"2014-10-16 13:07:43.139";"2014-10-16 13:21:37.897";"1";"1";"0";"70";"69";"module.training_block2.exec-8629.GoNoGo2";;;;;;;;;;;;;;;;;;;;;;;;;;;;;;;;;;;"1261";"2014-10-16 13:12:27.388";"NST_correctLoc";"31";"1";"FINISHED";"RIGHT";"success";"458";"0";"2014-10-16 13:12:26.124";"3";;;;;;;;;;;;;;;;;;;;;;;;;;;;;;;;;;;;;;;;;;;;;
"Bunces1";;;"Windows 7";"Rachel's Experiment (D.T.)";"1.0";"2";"1";"1";"2";"1";"1";"2014-10-16 13:07:43.139";"2014-10-16 13:21:37.897";"1";"1";"0";"71";"70";"module.training_block2.exec-8629.GoNoGo2";;;;;;;;;;;;;;;;;;;;;;;;;;;;;;;;;;;"1261";"2014-10-16 13:12:29.930";"ST_correctStop";"6";"1";"FINISHED";"NONE";"success";"0";"1";"2014-10-16 13:12:28.667";"1";;;;;;;;;;;;;;;;;;;;;;;;;;;;;;;;;;;;;;;;;;;;;
"Bunces1";;;"Windows 7";"Rachel's Experiment (D.T.)";"1.0";"2";"1";"1";"2";"1";"1";"2014-10-16 13:07:43.139";"2014-10-16 13:21:37.897";"1";"1";"0";"72";"71";"module.training_block2.exec-8629.GoNoGo2";;;;;;;;;;;;;;;;;;;;;;;;;;;;;;;;;;;"1261";"2014-10-16 13:12:32.473";"ST_correctStop";"19";"0";"FINISHED";"NONE";"success";"0";"1";"2014-10-16 13:12:31.210";"3";;;;;;;;;;;;;;;;;;;;;;;;;;;;;;;;;;;;;;;;;;;;;
"Bunces1";;;"Windows 7";"Rachel's Experiment (D.T.)";"1.0";"2";"1";"1";"2";"1";"1";"2014-10-16 13:07:43.139";"2014-10-16 13:21:37.897";"1";"1";"0";"73";"72";"module.training_block2.exec-8629.GoNoGo2";;;;;;;;;;;;;;;;;;;;;;;;;;;;;;;;;;;"1262";"2014-10-16 13:12:35.016";"NST_correctLoc";"12";"1";"FINISHED";"RIGHT";"success";"470";"0";"2014-10-16 13:12:33.752";"2";;;;;;;;;;;;;;;;;;;;;;;;;;;;;;;;;;;;;;;;;;;;;
"Bunces1";;;"Windows 7";"Rachel's Experiment (D.T.)";"1.0";"2";"1";"1";"2";"1";"1";"2014-10-16 13:07:43.139";"2014-10-16 13:21:37.897";"1";"1";"0";"74";"73";"module.training_block2.exec-8629.GoNoGo2";;;;;;;;;;;;;;;;;;;;;;;;;;;;;;;;;;;"1261";"2014-10-16 13:12:37.559";"ST_correctStop";"1";"1";"FINISHED";"NONE";"success";"0";"1";"2014-10-16 13:12:36.295";"1";;;;;;;;;;;;;;;;;;;;;;;;;;;;;;;;;;;;;;;;;;;;;
"Bunces1";;;"Windows 7";"Rachel's Experiment (D.T.)";"1.0";"2";"1";"1";"2";"1";"1";"2014-10-16 13:07:43.139";"2014-10-16 13:21:37.897";"1";"1";"0";"75";"74";"module.training_block2.exec-8629.GoNoGo2";;;;;;;;;;;;;;;;;;;;;;;;;;;;;;;;;;;"1261";"2014-10-16 13:12:40.102";"ST_correctStop";"7";"1";"FINISHED";"NONE";"success";"0";"1";"2014-10-16 13:12:38.838";"1";;;;;;;;;;;;;;;;;;;;;;;;;;;;;;;;;;;;;;;;;;;;;
"Bunces1";;;"Windows 7";"Rachel's Experiment (D.T.)";"1.0";"2";"1";"1";"2";"1";"1";"2014-10-16 13:07:43.139";"2014-10-16 13:21:37.897";"1";"1";"0";"76";"75";"module.training_block2.exec-8629.GoNoGo2";;;;;;;;;;;;;;;;;;;;;;;;;;;;;;;;;;;"1261";"2014-10-16 13:12:42.644";"NST_correctLoc";"34";"1";"FINISHED";"RIGHT";"success";"513";"0";"2014-10-16 13:12:41.381";"3";;;;;;;;;;;;;;;;;;;;;;;;;;;;;;;;;;;;;;;;;;;;;
"Bunces1";;;"Windows 7";"Rachel's Experiment (D.T.)";"1.0";"2";"1";"1";"2";"1";"1";"2014-10-16 13:07:43.139";"2014-10-16 13:21:37.897";"1";"1";"0";"77";"76";"module.training_block2.exec-8629.GoNoGo2";;;;;;;;;;;;;;;;;;;;;;;;;;;;;;;;;;;"1261";"2014-10-16 13:12:45.187";"ST_correctStop";"30";"1";"FINISHED";"NONE";"success";"0";"1";"2014-10-16 13:12:43.924";"3";;;;;;;;;;;;;;;;;;;;;;;;;;;;;;;;;;;;;;;;;;;;;
"Bunces1";;;"Windows 7";"Rachel's Experiment (D.T.)";"1.0";"2";"1";"1";"2";"1";"1";"2014-10-16 13:07:43.139";"2014-10-16 13:21:37.897";"1";"1";"0";"78";"77";"module.training_block2.exec-8629.GoNoGo2";;;;;;;;;;;;;;;;;;;;;;;;;;;;;;;;;;;"1261";"2014-10-16 13:12:47.730";"NST_correctLoc";"26";"1";"FINISHED";"RIGHT";"success";"652";"0";"2014-10-16 13:12:46.466";"3";;;;;;;;;;;;;;;;;;;;;;;;;;;;;;;;;;;;;;;;;;;;;
"Bunces1";;;"Windows 7";"Rachel's Experiment (D.T.)";"1.0";"2";"1";"1";"2";"1";"1";"2014-10-16 13:07:43.139";"2014-10-16 13:21:37.897";"1";"1";"0";"79";"78";"module.training_block2.exec-8629.GoNoGo2";;;;;;;;;;;;;;;;;;;;;;;;;;;;;;;;;;;"1261";"2014-10-16 13:12:50.273";"ST_correctStop";"27";"0";"FINISHED";"NONE";"success";"0";"1";"2014-10-16 13:12:49.009";"3";;;;;;;;;;;;;;;;;;;;;;;;;;;;;;;;;;;;;;;;;;;;;
"Bunces1";;;"Windows 7";"Rachel's Experiment (D.T.)";"1.0";"2";"1";"1";"2";"1";"1";"2014-10-16 13:07:43.139";"2014-10-16 13:21:37.897";"1";"1";"0";"80";"79";"module.training_block2.exec-8629.GoNoGo2";;;;;;;;;;;;;;;;;;;;;;;;;;;;;;;;;;;"1261";"2014-10-16 13:12:52.816";"ST_correctStop";"0";"1";"FINISHED";"NONE";"success";"0";"1";"2014-10-16 13:12:51.552";"1";;;;;;;;;;;;;;;;;;;;;;;;;;;;;;;;;;;;;;;;;;;;;
"Bunces1";;;"Windows 7";"Rachel's Experiment (D.T.)";"1.0";"2";"1";"1";"2";"1";"1";"2014-10-16 13:07:43.139";"2014-10-16 13:21:37.897";"1";"1";"0";"81";"80";"module.training_block2.exec-8629.GoNoGo2";;;;;;;;;;;;;;;;;;;;;;;;;;;;;;;;;;;"1261";"2014-10-16 13:12:55.358";"ST_correctStop";"2";"0";"FINISHED";"NONE";"success";"0";"1";"2014-10-16 13:12:54.095";"1";;;;;;;;;;;;;;;;;;;;;;;;;;;;;;;;;;;;;;;;;;;;;
"Bunces1";;;"Windows 7";"Rachel's Experiment (D.T.)";"1.0";"2";"1";"1";"2";"1";"1";"2014-10-16 13:07:43.139";"2014-10-16 13:21:37.897";"1";"1";"0";"82";"81";"module.training_block2.exec-8629.GoNoGo2";;;;;;;;;;;;;;;;;;;;;;;;;;;;;;;;;;;"1261";"2014-10-16 13:12:57.901";"NST_correctLoc";"25";"1";"FINISHED";"RIGHT";"success";"440";"0";"2014-10-16 13:12:56.638";"3";;;;;;;;;;;;;;;;;;;;;;;;;;;;;;;;;;;;;;;;;;;;;
"Bunces1";;;"Windows 7";"Rachel's Experiment (D.T.)";"1.0";"2";"1";"1";"2";"1";"1";"2014-10-16 13:07:43.139";"2014-10-16 13:21:37.897";"1";"1";"0";"83";"82";"module.training_block2.exec-8629.GoNoGo2";;;;;;;;;;;;;;;;;;;;;;;;;;;;;;;;;;;"1261";"2014-10-16 13:13:00.444";"NST_correctLoc";"9";"1";"FINISHED";"RIGHT";"success";"402";"0";"2014-10-16 13:12:59.180";"2";;;;;;;;;;;;;;;;;;;;;;;;;;;;;;;;;;;;;;;;;;;;;
"Bunces1";;;"Windows 7";"Rachel's Experiment (D.T.)";"1.0";"2";"1";"1";"2";"1";"1";"2014-10-16 13:07:43.139";"2014-10-16 13:21:37.897";"1";"1";"0";"84";"83";"module.training_block2.exec-8629.GoNoGo2";;;;;;;;;;;;;;;;;;;;;;;;;;;;;;;;;;;"1261";"2014-10-16 13:13:02.987";"NST_correctLoc";"32";"0";"FINISHED";"LEFT";"success";"387";"0";"2014-10-16 13:13:01.723";"3";;;;;;;;;;;;;;;;;;;;;;;;;;;;;;;;;;;;;;;;;;;;;
"Bunces1";;;"Windows 7";"Rachel's Experiment (D.T.)";"1.0";"2";"1";"1";"2";"1";"1";"2014-10-16 13:07:43.139";"2014-10-16 13:21:37.897";"1";"1";"0";"85";"84";"module.training_block2.exec-8629.GoNoGo2";;;;;;;;;;;;;;;;;;;;;;;;;;;;;;;;;;;"1261";"2014-10-16 13:13:05.530";"NST_correctLoc";"13";"0";"FINISHED";"LEFT";"success";"380";"0";"2014-10-16 13:13:04.266";"2";;;;;;;;;;;;;;;;;;;;;;;;;;;;;;;;;;;;;;;;;;;;;
"Bunces1";;;"Windows 7";"Rachel's Experiment (D.T.)";"1.0";"2";"1";"1";"2";"1";"1";"2014-10-16 13:07:43.139";"2014-10-16 13:21:37.897";"1";"1";"0";"86";"85";"module.training_block2.exec-8629.GoNoGo2";;;;;;;;;;;;;;;;;;;;;;;;;;;;;;;;;;;"1261";"2014-10-16 13:13:08.072";"ST_correctStop";"8";"0";"FINISHED";"NONE";"success";"0";"1";"2014-10-16 13:13:06.809";"1";;;;;;;;;;;;;;;;;;;;;;;;;;;;;;;;;;;;;;;;;;;;;
"Bunces1";;;"Windows 7";"Rachel's Experiment (D.T.)";"1.0";"2";"1";"1";"2";"1";"1";"2014-10-16 13:07:43.139";"2014-10-16 13:21:37.897";"1";"1";"0";"87";"86";"module.training_block2.exec-8629.GoNoGo2";;;;;;;;;;;;;;;;;;;;;;;;;;;;;;;;;;;"1261";"2014-10-16 13:13:10.615";"NST_correctLoc";"20";"0";"FINISHED";"LEFT";"success";"438";"0";"2014-10-16 13:13:09.352";"3";;;;;;;;;;;;;;;;;;;;;;;;;;;;;;;;;;;;;;;;;;;;;
"Bunces1";;;"Windows 7";"Rachel's Experiment (D.T.)";"1.0";"2";"1";"1";"2";"1";"1";"2014-10-16 13:07:43.139";"2014-10-16 13:21:37.897";"1";"1";"0";"88";"87";"module.training_block3.exec-3333.GoNoGo3";;;;;;;;;;;;;;;;;;;;;;;;;;;;;;;;;;;;;;;;;;;;;;;"1261";"2014-10-16 13:13:22.190";"ST_correctStop";"18";"0";"FINISHED";"NONE";"success";"0";"1";"2014-10-16 13:13:20.927";"3";;;;;;;;;;;;;;;;;;;;;;;;;;;;;;;;;
"Bunces1";;;"Windows 7";"Rachel's Experiment (D.T.)";"1.0";"2";"1";"1";"2";"1";"1";"2014-10-16 13:07:43.139";"2014-10-16 13:21:37.897";"1";"1";"0";"89";"88";"module.training_block3.exec-3333.GoNoGo3";;;;;;;;;;;;;;;;;;;;;;;;;;;;;;;;;;;;;;;;;;;;;;;"1261";"2014-10-16 13:13:24.733";"ST_correctStop";"1";"0";"FINISHED";"NONE";"success";"0";"1";"2014-10-16 13:13:23.470";"1";;;;;;;;;;;;;;;;;;;;;;;;;;;;;;;;;
"Bunces1";;;"Windows 7";"Rachel's Experiment (D.T.)";"1.0";"2";"1";"1";"2";"1";"1";"2014-10-16 13:07:43.139";"2014-10-16 13:21:37.897";"1";"1";"0";"90";"89";"module.training_block3.exec-3333.GoNoGo3";;;;;;;;;;;;;;;;;;;;;;;;;;;;;;;;;;;;;;;;;;;;;;;"1261";"2014-10-16 13:13:27.276";"NST_correctLoc";"31";"1";"FINISHED";"RIGHT";"success";"473";"0";"2014-10-16 13:13:26.012";"3";;;;;;;;;;;;;;;;;;;;;;;;;;;;;;;;;
"Bunces1";;;"Windows 7";"Rachel's Experiment (D.T.)";"1.0";"2";"1";"1";"2";"1";"1";"2014-10-16 13:07:43.139";"2014-10-16 13:21:37.897";"1";"1";"0";"91";"90";"module.training_block3.exec-3333.GoNoGo3";;;;;;;;;;;;;;;;;;;;;;;;;;;;;;;;;;;;;;;;;;;;;;;"1261";"2014-10-16 13:13:29.819";"ST_correctStop";"35";"1";"FINISHED";"NONE";"success";"0";"1";"2014-10-16 13:13:28.555";"3";;;;;;;;;;;;;;;;;;;;;;;;;;;;;;;;;
"Bunces1";;;"Windows 7";"Rachel's Experiment (D.T.)";"1.0";"2";"1";"1";"2";"1";"1";"2014-10-16 13:07:43.139";"2014-10-16 13:21:37.897";"1";"1";"0";"92";"91";"module.training_block3.exec-3333.GoNoGo3";;;;;;;;;;;;;;;;;;;;;;;;;;;;;;;;;;;;;;;;;;;;;;;"1261";"2014-10-16 13:13:32.362";"NST_correctLoc";"9";"1";"FINISHED";"RIGHT";"success";"404";"0";"2014-10-16 13:13:31.098";"2";;;;;;;;;;;;;;;;;;;;;;;;;;;;;;;;;
"Bunces1";;;"Windows 7";"Rachel's Experiment (D.T.)";"1.0";"2";"1";"1";"2";"1";"1";"2014-10-16 13:07:43.139";"2014-10-16 13:21:37.897";"1";"1";"0";"93";"92";"module.training_block3.exec-3333.GoNoGo3";;;;;;;;;;;;;;;;;;;;;;;;;;;;;;;;;;;;;;;;;;;;;;;"1261";"2014-10-16 13:13:34.904";"NST_correctLoc";"13";"1";"FINISHED";"RIGHT";"success";"413";"0";"2014-10-16 13:13:33.641";"2";;;;;;;;;;;;;;;;;;;;;;;;;;;;;;;;;
"Bunces1";;;"Windows 7";"Rachel's Experiment (D.T.)";"1.0";"2";"1";"1";"2";"1";"1";"2014-10-16 13:07:43.139";"2014-10-16 13:21:37.897";"1";"1";"0";"94";"93";"module.training_block3.exec-3333.GoNoGo3";;;;;;;;;;;;;;;;;;;;;;;;;;;;;;;;;;;;;;;;;;;;;;;"1261";"2014-10-16 13:13:37.463";"NST_correctLoc";"10";"0";"FINISHED";"LEFT";"success";"383";"0";"2014-10-16 13:13:36.199";"2";;;;;;;;;;;;;;;;;;;;;;;;;;;;;;;;;
"Bunces1";;;"Windows 7";"Rachel's Experiment (D.T.)";"1.0";"2";"1";"1";"2";"1";"1";"2014-10-16 13:07:43.139";"2014-10-16 13:21:37.897";"1";"1";"0";"95";"94";"module.training_block3.exec-3333.GoNoGo3";;;;;;;;;;;;;;;;;;;;;;;;;;;;;;;;;;;;;;;;;;;;;;;"1261";"2014-10-16 13:13:40.006";"NST_correctLoc";"28";"0";"FINISHED";"LEFT";"success";"384";"0";"2014-10-16 13:13:38.742";"3";;;;;;;;;;;;;;;;;;;;;;;;;;;;;;;;;
"Bunces1";;;"Windows 7";"Rachel's Experiment (D.T.)";"1.0";"2";"1";"1";"2";"1";"1";"2014-10-16 13:07:43.139";"2014-10-16 13:21:37.897";"1";"1";"0";"96";"95";"module.training_block3.exec-3333.GoNoGo3";;;;;;;;;;;;;;;;;;;;;;;;;;;;;;;;;;;;;;;;;;;;;;;"1261";"2014-10-16 13:13:42.548";"NST_correctLoc";"22";"0";"FINISHED";"LEFT";"success";"385";"0";"2014-10-16 13:13:41.285";"3";;;;;;;;;;;;;;;;;;;;;;;;;;;;;;;;;
"Bunces1";;;"Windows 7";"Rachel's Experiment (D.T.)";"1.0";"2";"1";"1";"2";"1";"1";"2014-10-16 13:07:43.139";"2014-10-16 13:21:37.897";"1";"1";"0";"97";"96";"module.training_block3.exec-3333.GoNoGo3";;;;;;;;;;;;;;;;;;;;;;;;;;;;;;;;;;;;;;;;;;;;;;;"1261";"2014-10-16 13:13:45.091";"ST_correctStop";"3";"1";"FINISHED";"NONE";"success";"0";"1";"2014-10-16 13:13:43.828";"1";;;;;;;;;;;;;;;;;;;;;;;;;;;;;;;;;
"Bunces1";;;"Windows 7";"Rachel's Experiment (D.T.)";"1.0";"2";"1";"1";"2";"1";"1";"2014-10-16 13:07:43.139";"2014-10-16 13:21:37.897";"1";"1";"0";"98";"97";"module.training_block3.exec-3333.GoNoGo3";;;;;;;;;;;;;;;;;;;;;;;;;;;;;;;;;;;;;;;;;;;;;;;"1261";"2014-10-16 13:13:47.634";"NST_correctLoc";"12";"1";"FINISHED";"RIGHT";"success";"411";"0";"2014-10-16 13:13:46.370";"2";;;;;;;;;;;;;;;;;;;;;;;;;;;;;;;;;
"Bunces1";;;"Windows 7";"Rachel's Experiment (D.T.)";"1.0";"2";"1";"1";"2";"1";"1";"2014-10-16 13:07:43.139";"2014-10-16 13:21:37.897";"1";"1";"0";"99";"98";"module.training_block3.exec-3333.GoNoGo3";;;;;;;;;;;;;;;;;;;;;;;;;;;;;;;;;;;;;;;;;;;;;;;"1261";"2014-10-16 13:13:50.177";"ST_failedStop";"26";"0";"FINISHED";"LEFT";"failure";"412";"1";"2014-10-16 13:13:48.913";"3";;;;;;;;;;;;;;;;;;;;;;;;;;;;;;;;;
"Bunces1";;;"Windows 7";"Rachel's Experiment (D.T.)";"1.0";"2";"1";"1";"2";"1";"1";"2014-10-16 13:07:43.139";"2014-10-16 13:21:37.897";"1";"1";"0";"100";"99";"module.training_block3.exec-3333.GoNoGo3";;;;;;;;;;;;;;;;;;;;;;;;;;;;;;;;;;;;;;;;;;;;;;;"1261";"2014-10-16 13:13:52.720";"NST_correctLoc";"25";"0";"FINISHED";"LEFT";"success";"438";"0";"2014-10-16 13:13:51.456";"3";;;;;;;;;;;;;;;;;;;;;;;;;;;;;;;;;
"Bunces1";;;"Windows 7";"Rachel's Experiment (D.T.)";"1.0";"2";"1";"1";"2";"1";"1";"2014-10-16 13:07:43.139";"2014-10-16 13:21:37.897";"1";"1";"0";"101";"100";"module.training_block3.exec-3333.GoNoGo3";;;;;;;;;;;;;;;;;;;;;;;;;;;;;;;;;;;;;;;;;;;;;;;"1261";"2014-10-16 13:13:55.247";"NST_correctLoc";"11";"1";"FINISHED";"RIGHT";"success";"422";"0";"2014-10-16 13:13:53.983";"2";;;;;;;;;;;;;;;;;;;;;;;;;;;;;;;;;
"Bunces1";;;"Windows 7";"Rachel's Experiment (D.T.)";"1.0";"2";"1";"1";"2";"1";"1";"2014-10-16 13:07:43.139";"2014-10-16 13:21:37.897";"1";"1";"0";"102";"101";"module.training_block3.exec-3333.GoNoGo3";;;;;;;;;;;;;;;;;;;;;;;;;;;;;;;;;;;;;;;;;;;;;;;"1261";"2014-10-16 13:13:57.790";"ST_correctStop";"4";"0";"FINISHED";"NONE";"success";"0";"1";"2014-10-16 13:13:56.526";"1";;;;;;;;;;;;;;;;;;;;;;;;;;;;;;;;;
"Bunces1";;;"Windows 7";"Rachel's Experiment (D.T.)";"1.0";"2";"1";"1";"2";"1";"1";"2014-10-16 13:07:43.139";"2014-10-16 13:21:37.897";"1";"1";"0";"103";"102";"module.training_block3.exec-3333.GoNoGo3";;;;;;;;;;;;;;;;;;;;;;;;;;;;;;;;;;;;;;;;;;;;;;;"1261";"2014-10-16 13:14:00.333";"ST_correctStop";"8";"1";"FINISHED";"NONE";"success";"0";"1";"2014-10-16 13:13:59.069";"1";;;;;;;;;;;;;;;;;;;;;;;;;;;;;;;;;
"Bunces1";;;"Windows 7";"Rachel's Experiment (D.T.)";"1.0";"2";"1";"1";"2";"1";"1";"2014-10-16 13:07:43.139";"2014-10-16 13:21:37.897";"1";"1";"0";"104";"103";"module.training_block3.exec-3333.GoNoGo3";;;;;;;;;;;;;;;;;;;;;;;;;;;;;;;;;;;;;;;;;;;;;;;"1261";"2014-10-16 13:14:02.875";"ST_correctStop";"6";"1";"FINISHED";"NONE";"success";"0";"1";"2014-10-16 13:14:01.612";"1";;;;;;;;;;;;;;;;;;;;;;;;;;;;;;;;;
"Bunces1";;;"Windows 7";"Rachel's Experiment (D.T.)";"1.0";"2";"1";"1";"2";"1";"1";"2014-10-16 13:07:43.139";"2014-10-16 13:21:37.897";"1";"1";"0";"105";"104";"module.training_block3.exec-3333.GoNoGo3";;;;;;;;;;;;;;;;;;;;;;;;;;;;;;;;;;;;;;;;;;;;;;;"1261";"2014-10-16 13:14:05.418";"NST_correctLoc";"15";"0";"FINISHED";"LEFT";"success";"467";"0";"2014-10-16 13:14:04.155";"2";;;;;;;;;;;;;;;;;;;;;;;;;;;;;;;;;
"Bunces1";;;"Windows 7";"Rachel's Experiment (D.T.)";"1.0";"2";"1";"1";"2";"1";"1";"2014-10-16 13:07:43.139";"2014-10-16 13:21:37.897";"1";"1";"0";"106";"105";"module.training_block3.exec-3333.GoNoGo3";;;;;;;;;;;;;;;;;;;;;;;;;;;;;;;;;;;;;;;;;;;;;;;"1261";"2014-10-16 13:14:07.945";"ST_correctStop";"34";"0";"FINISHED";"NONE";"success";"0";"1";"2014-10-16 13:14:06.682";"3";;;;;;;;;;;;;;;;;;;;;;;;;;;;;;;;;
"Bunces1";;;"Windows 7";"Rachel's Experiment (D.T.)";"1.0";"2";"1";"1";"2";"1";"1";"2014-10-16 13:07:43.139";"2014-10-16 13:21:37.897";"1";"1";"0";"107";"106";"module.training_block3.exec-3333.GoNoGo3";;;;;;;;;;;;;;;;;;;;;;;;;;;;;;;;;;;;;;;;;;;;;;;"1261";"2014-10-16 13:14:10.488";"ST_correctStop";"33";"0";"FINISHED";"NONE";"success";"0";"1";"2014-10-16 13:14:09.225";"3";;;;;;;;;;;;;;;;;;;;;;;;;;;;;;;;;
"Bunces1";;;"Windows 7";"Rachel's Experiment (D.T.)";"1.0";"2";"1";"1";"2";"1";"1";"2014-10-16 13:07:43.139";"2014-10-16 13:21:37.897";"1";"1";"0";"108";"107";"module.training_block3.exec-3333.GoNoGo3";;;;;;;;;;;;;;;;;;;;;;;;;;;;;;;;;;;;;;;;;;;;;;;"1261";"2014-10-16 13:14:13.047";"NST_correctLoc";"32";"1";"FINISHED";"RIGHT";"success";"471";"0";"2014-10-16 13:14:11.783";"3";;;;;;;;;;;;;;;;;;;;;;;;;;;;;;;;;
"Bunces1";;;"Windows 7";"Rachel's Experiment (D.T.)";"1.0";"2";"1";"1";"2";"1";"1";"2014-10-16 13:07:43.139";"2014-10-16 13:21:37.897";"1";"1";"0";"109";"108";"module.training_block3.exec-3333.GoNoGo3";;;;;;;;;;;;;;;;;;;;;;;;;;;;;;;;;;;;;;;;;;;;;;;"1261";"2014-10-16 13:14:15.589";"ST_correctStop";"0";"1";"FINISHED";"NONE";"success";"0";"1";"2014-10-16 13:14:14.326";"1";;;;;;;;;;;;;;;;;;;;;;;;;;;;;;;;;
"Bunces1";;;"Windows 7";"Rachel's Experiment (D.T.)";"1.0";"2";"1";"1";"2";"1";"1";"2014-10-16 13:07:43.139";"2014-10-16 13:21:37.897";"1";"1";"0";"110";"109";"module.training_block3.exec-3333.GoNoGo3";;;;;;;;;;;;;;;;;;;;;;;;;;;;;;;;;;;;;;;;;;;;;;;"1261";"2014-10-16 13:14:18.132";"ST_correctStop";"27";"0";"FINISHED";"NONE";"success";"0";"1";"2014-10-16 13:14:16.869";"3";;;;;;;;;;;;;;;;;;;;;;;;;;;;;;;;;
"Bunces1";;;"Windows 7";"Rachel's Experiment (D.T.)";"1.0";"2";"1";"1";"2";"1";"1";"2014-10-16 13:07:43.139";"2014-10-16 13:21:37.897";"1";"1";"0";"111";"110";"module.training_block3.exec-3333.GoNoGo3";;;;;;;;;;;;;;;;;;;;;;;;;;;;;;;;;;;;;;;;;;;;;;;"1261";"2014-10-16 13:14:20.675";"NST_correctLoc";"17";"0";"FINISHED";"LEFT";"success";"530";"0";"2014-10-16 13:14:19.411";"2";;;;;;;;;;;;;;;;;;;;;;;;;;;;;;;;;
"Bunces1";;;"Windows 7";"Rachel's Experiment (D.T.)";"1.0";"2";"1";"1";"2";"1";"1";"2014-10-16 13:07:43.139";"2014-10-16 13:21:37.897";"1";"1";"0";"112";"111";"module.training_block3.exec-3333.GoNoGo3";;;;;;;;;;;;;;;;;;;;;;;;;;;;;;;;;;;;;;;;;;;;;;;"1261";"2014-10-16 13:14:23.218";"NST_correctLoc";"29";"0";"FINISHED";"LEFT";"success";"451";"0";"2014-10-16 13:14:21.954";"3";;;;;;;;;;;;;;;;;;;;;;;;;;;;;;;;;
"Bunces1";;;"Windows 7";"Rachel's Experiment (D.T.)";"1.0";"2";"1";"1";"2";"1";"1";"2014-10-16 13:07:43.139";"2014-10-16 13:21:37.897";"1";"1";"0";"113";"112";"module.training_block3.exec-3333.GoNoGo3";;;;;;;;;;;;;;;;;;;;;;;;;;;;;;;;;;;;;;;;;;;;;;;"1261";"2014-10-16 13:14:25.745";"ST_correctStop";"23";"0";"FINISHED";"NONE";"success";"0";"1";"2014-10-16 13:14:24.481";"3";;;;;;;;;;;;;;;;;;;;;;;;;;;;;;;;;
"Bunces1";;;"Windows 7";"Rachel's Experiment (D.T.)";"1.0";"2";"1";"1";"2";"1";"1";"2014-10-16 13:07:43.139";"2014-10-16 13:21:37.897";"1";"1";"0";"114";"113";"module.training_block3.exec-3333.GoNoGo3";;;;;;;;;;;;;;;;;;;;;;;;;;;;;;;;;;;;;;;;;;;;;;;"1261";"2014-10-16 13:14:28.288";"NST_correctLoc";"14";"1";"FINISHED";"RIGHT";"success";"421";"0";"2014-10-16 13:14:27.024";"2";;;;;;;;;;;;;;;;;;;;;;;;;;;;;;;;;
"Bunces1";;;"Windows 7";"Rachel's Experiment (D.T.)";"1.0";"2";"1";"1";"2";"1";"1";"2014-10-16 13:07:43.139";"2014-10-16 13:21:37.897";"1";"1";"0";"115";"114";"module.training_block3.exec-3333.GoNoGo3";;;;;;;;;;;;;;;;;;;;;;;;;;;;;;;;;;;;;;;;;;;;;;;"1261";"2014-10-16 13:14:30.846";"NST_correctLoc";"20";"0";"FINISHED";"LEFT";"success";"431";"0";"2014-10-16 13:14:29.583";"3";;;;;;;;;;;;;;;;;;;;;;;;;;;;;;;;;
"Bunces1";;;"Windows 7";"Rachel's Experiment (D.T.)";"1.0";"2";"1";"1";"2";"1";"1";"2014-10-16 13:07:43.139";"2014-10-16 13:21:37.897";"1";"1";"0";"116";"115";"module.training_block3.exec-3333.GoNoGo3";;;;;;;;;;;;;;;;;;;;;;;;;;;;;;;;;;;;;;;;;;;;;;;"1261";"2014-10-16 13:14:33.373";"ST_correctStop";"2";"0";"FINISHED";"NONE";"success";"0";"1";"2014-10-16 13:14:32.110";"1";;;;;;;;;;;;;;;;;;;;;;;;;;;;;;;;;
"Bunces1";;;"Windows 7";"Rachel's Experiment (D.T.)";"1.0";"2";"1";"1";"2";"1";"1";"2014-10-16 13:07:43.139";"2014-10-16 13:21:37.897";"1";"1";"0";"117";"116";"module.training_block3.exec-3333.GoNoGo3";;;;;;;;;;;;;;;;;;;;;;;;;;;;;;;;;;;;;;;;;;;;;;;"1261";"2014-10-16 13:14:35.916";"NST_correctLoc";"16";"1";"FINISHED";"RIGHT";"success";"433";"0";"2014-10-16 13:14:34.653";"2";;;;;;;;;;;;;;;;;;;;;;;;;;;;;;;;;
"Bunces1";;;"Windows 7";"Rachel's Experiment (D.T.)";"1.0";"2";"1";"1";"2";"1";"1";"2014-10-16 13:07:43.139";"2014-10-16 13:21:37.897";"1";"1";"0";"118";"117";"module.training_block3.exec-3333.GoNoGo3";;;;;;;;;;;;;;;;;;;;;;;;;;;;;;;;;;;;;;;;;;;;;;;"1261";"2014-10-16 13:14:38.443";"ST_correctStop";"7";"0";"FINISHED";"NONE";"success";"0";"1";"2014-10-16 13:14:37.180";"1";;;;;;;;;;;;;;;;;;;;;;;;;;;;;;;;;
"Bunces1";;;"Windows 7";"Rachel's Experiment (D.T.)";"1.0";"2";"1";"1";"2";"1";"1";"2014-10-16 13:07:43.139";"2014-10-16 13:21:37.897";"1";"1";"0";"119";"118";"module.training_block3.exec-3333.GoNoGo3";;;;;;;;;;;;;;;;;;;;;;;;;;;;;;;;;;;;;;;;;;;;;;;"1261";"2014-10-16 13:14:40.986";"ST_correctStop";"24";"0";"FINISHED";"NONE";"success";"0";"1";"2014-10-16 13:14:39.723";"3";;;;;;;;;;;;;;;;;;;;;;;;;;;;;;;;;
"Bunces1";;;"Windows 7";"Rachel's Experiment (D.T.)";"1.0";"2";"1";"1";"2";"1";"1";"2014-10-16 13:07:43.139";"2014-10-16 13:21:37.897";"1";"1";"0";"120";"119";"module.training_block3.exec-3333.GoNoGo3";;;;;;;;;;;;;;;;;;;;;;;;;;;;;;;;;;;;;;;;;;;;;;;"1261";"2014-10-16 13:14:43.513";"NST_correctLoc";"30";"0";"FINISHED";"LEFT";"success";"612";"0";"2014-10-16 13:14:42.250";"3";;;;;;;;;;;;;;;;;;;;;;;;;;;;;;;;;
"Bunces1";;;"Windows 7";"Rachel's Experiment (D.T.)";"1.0";"2";"1";"1";"2";"1";"1";"2014-10-16 13:07:43.139";"2014-10-16 13:21:37.897";"1";"1";"0";"121";"120";"module.training_block3.exec-3333.GoNoGo3";;;;;;;;;;;;;;;;;;;;;;;;;;;;;;;;;;;;;;;;;;;;;;;"1261";"2014-10-16 13:14:46.041";"ST_correctStop";"19";"1";"FINISHED";"NONE";"success";"0";"1";"2014-10-16 13:14:44.777";"3";;;;;;;;;;;;;;;;;;;;;;;;;;;;;;;;;
"Bunces1";;;"Windows 7";"Rachel's Experiment (D.T.)";"1.0";"2";"1";"1";"2";"1";"1";"2014-10-16 13:07:43.139";"2014-10-16 13:21:37.897";"1";"1";"0";"122";"121";"module.training_block3.exec-3333.GoNoGo3";;;;;;;;;;;;;;;;;;;;;;;;;;;;;;;;;;;;;;;;;;;;;;;"1261";"2014-10-16 13:14:48.583";"NST_correctLoc";"21";"0";"FINISHED";"LEFT";"success";"510";"0";"2014-10-16 13:14:47.320";"3";;;;;;;;;;;;;;;;;;;;;;;;;;;;;;;;;
"Bunces1";;;"Windows 7";"Rachel's Experiment (D.T.)";"1.0";"2";"1";"1";"2";"1";"1";"2014-10-16 13:07:43.139";"2014-10-16 13:21:37.897";"1";"1";"0";"123";"122";"module.training_block3.exec-3333.GoNoGo3";;;;;;;;;;;;;;;;;;;;;;;;;;;;;;;;;;;;;;;;;;;;;;;"1261";"2014-10-16 13:14:51.111";"ST_correctStop";"5";"1";"FINISHED";"NONE";"success";"0";"1";"2014-10-16 13:14:49.847";"1";;;;;;;;;;;;;;;;;;;;;;;;;;;;;;;;;
"Bunces1";;;"Windows 7";"Rachel's Experiment (D.T.)";"1.0";"2";"1";"1";"2";"1";"1";"2014-10-16 13:07:43.139";"2014-10-16 13:21:37.897";"1";"1";"0";"124";"123";"module.training_block4.exec-6350.GoNoGo4";;;;;;;;;;;;;;;;;;;;;;;;;;;;;;;;;;;;;;;;;;;;;;;;;;;;;;;;;;;"1261";"2014-10-16 13:15:02.155";"NST_correctLoc";"22";"1";"FINISHED";"RIGHT";"success";"513";"0";"2014-10-16 13:15:00.892";"3";;;;;;;;;;;;;;;;;;;;;
"Bunces1";;;"Windows 7";"Rachel's Experiment (D.T.)";"1.0";"2";"1";"1";"2";"1";"1";"2014-10-16 13:07:43.139";"2014-10-16 13:21:37.897";"1";"1";"0";"125";"124";"module.training_block4.exec-6350.GoNoGo4";;;;;;;;;;;;;;;;;;;;;;;;;;;;;;;;;;;;;;;;;;;;;;;;;;;;;;;;;;;"1261";"2014-10-16 13:15:04.698";"NST_correctLoc";"10";"0";"FINISHED";"LEFT";"success";"523";"0";"2014-10-16 13:15:03.435";"2";;;;;;;;;;;;;;;;;;;;;
"Bunces1";;;"Windows 7";"Rachel's Experiment (D.T.)";"1.0";"2";"1";"1";"2";"1";"1";"2014-10-16 13:07:43.139";"2014-10-16 13:21:37.897";"1";"1";"0";"126";"125";"module.training_block4.exec-6350.GoNoGo4";;;;;;;;;;;;;;;;;;;;;;;;;;;;;;;;;;;;;;;;;;;;;;;;;;;;;;;;;;;"1261";"2014-10-16 13:15:07.225";"NST_correctLoc";"34";"1";"FINISHED";"RIGHT";"success";"411";"0";"2014-10-16 13:15:05.962";"3";;;;;;;;;;;;;;;;;;;;;
"Bunces1";;;"Windows 7";"Rachel's Experiment (D.T.)";"1.0";"2";"1";"1";"2";"1";"1";"2014-10-16 13:07:43.139";"2014-10-16 13:21:37.897";"1";"1";"0";"127";"126";"module.training_block4.exec-6350.GoNoGo4";;;;;;;;;;;;;;;;;;;;;;;;;;;;;;;;;;;;;;;;;;;;;;;;;;;;;;;;;;;"1261";"2014-10-16 13:15:09.753";"ST_correctStop";"20";"1";"FINISHED";"NONE";"success";"0";"1";"2014-10-16 13:15:08.489";"3";;;;;;;;;;;;;;;;;;;;;
"Bunces1";;;"Windows 7";"Rachel's Experiment (D.T.)";"1.0";"2";"1";"1";"2";"1";"1";"2014-10-16 13:07:43.139";"2014-10-16 13:21:37.897";"1";"1";"0";"128";"127";"module.training_block4.exec-6350.GoNoGo4";;;;;;;;;;;;;;;;;;;;;;;;;;;;;;;;;;;;;;;;;;;;;;;;;;;;;;;;;;;"1261";"2014-10-16 13:15:12.280";"NST_correctLoc";"25";"0";"FINISHED";"LEFT";"success";"389";"0";"2014-10-16 13:15:11.016";"3";;;;;;;;;;;;;;;;;;;;;
"Bunces1";;;"Windows 7";"Rachel's Experiment (D.T.)";"1.0";"2";"1";"1";"2";"1";"1";"2014-10-16 13:07:43.139";"2014-10-16 13:21:37.897";"1";"1";"0";"129";"128";"module.training_block4.exec-6350.GoNoGo4";;;;;;;;;;;;;;;;;;;;;;;;;;;;;;;;;;;;;;;;;;;;;;;;;;;;;;;;;;;"1261";"2014-10-16 13:15:14.807";"NST_correctLoc";"17";"0";"FINISHED";"LEFT";"success";"390";"0";"2014-10-16 13:15:13.543";"2";;;;;;;;;;;;;;;;;;;;;
"Bunces1";;;"Windows 7";"Rachel's Experiment (D.T.)";"1.0";"2";"1";"1";"2";"1";"1";"2014-10-16 13:07:43.139";"2014-10-16 13:21:37.897";"1";"1";"0";"130";"129";"module.training_block4.exec-6350.GoNoGo4";;;;;;;;;;;;;;;;;;;;;;;;;;;;;;;;;;;;;;;;;;;;;;;;;;;;;;;;;;;"1261";"2014-10-16 13:15:17.334";"NST_correctLoc";"15";"0";"FINISHED";"LEFT";"success";"383";"0";"2014-10-16 13:15:16.071";"2";;;;;;;;;;;;;;;;;;;;;
"Bunces1";;;"Windows 7";"Rachel's Experiment (D.T.)";"1.0";"2";"1";"1";"2";"1";"1";"2014-10-16 13:07:43.139";"2014-10-16 13:21:37.897";"1";"1";"0";"131";"130";"module.training_block4.exec-6350.GoNoGo4";;;;;;;;;;;;;;;;;;;;;;;;;;;;;;;;;;;;;;;;;;;;;;;;;;;;;;;;;;;"1261";"2014-10-16 13:15:19.861";"ST_correctStop";"8";"0";"FINISHED";"NONE";"success";"0";"1";"2014-10-16 13:15:18.598";"1";;;;;;;;;;;;;;;;;;;;;
"Bunces1";;;"Windows 7";"Rachel's Experiment (D.T.)";"1.0";"2";"1";"1";"2";"1";"1";"2014-10-16 13:07:43.139";"2014-10-16 13:21:37.897";"1";"1";"0";"132";"131";"module.training_block4.exec-6350.GoNoGo4";;;;;;;;;;;;;;;;;;;;;;;;;;;;;;;;;;;;;;;;;;;;;;;;;;;;;;;;;;;"1261";"2014-10-16 13:15:22.389";"NST_correctLoc";"16";"0";"FINISHED";"LEFT";"success";"456";"0";"2014-10-16 13:15:21.125";"2";;;;;;;;;;;;;;;;;;;;;
"Bunces1";;;"Windows 7";"Rachel's Experiment (D.T.)";"1.0";"2";"1";"1";"2";"1";"1";"2014-10-16 13:07:43.139";"2014-10-16 13:21:37.897";"1";"1";"0";"133";"132";"module.training_block4.exec-6350.GoNoGo4";;;;;;;;;;;;;;;;;;;;;;;;;;;;;;;;;;;;;;;;;;;;;;;;;;;;;;;;;;;"1261";"2014-10-16 13:15:24.931";"ST_correctStop";"19";"0";"FINISHED";"NONE";"success";"0";"1";"2014-10-16 13:15:23.668";"3";;;;;;;;;;;;;;;;;;;;;
"Bunces1";;;"Windows 7";"Rachel's Experiment (D.T.)";"1.0";"2";"1";"1";"2";"1";"1";"2014-10-16 13:07:43.139";"2014-10-16 13:21:37.897";"1";"1";"0";"134";"133";"module.training_block4.exec-6350.GoNoGo4";;;;;;;;;;;;;;;;;;;;;;;;;;;;;;;;;;;;;;;;;;;;;;;;;;;;;;;;;;;"1258";"2014-10-16 13:15:27.459";"ST_correctStop";"33";"0";"FINISHED";"NONE";"success";"0";"1";"2014-10-16 13:15:26.195";"3";;;;;;;;;;;;;;;;;;;;;
"Bunces1";;;"Windows 7";"Rachel's Experiment (D.T.)";"1.0";"2";"1";"1";"2";"1";"1";"2014-10-16 13:07:43.139";"2014-10-16 13:21:37.897";"1";"1";"0";"135";"134";"module.training_block4.exec-6350.GoNoGo4";;;;;;;;;;;;;;;;;;;;;;;;;;;;;;;;;;;;;;;;;;;;;;;;;;;;;;;;;;;"1262";"2014-10-16 13:15:29.986";"ST_correctStop";"0";"0";"FINISHED";"NONE";"success";"0";"1";"2014-10-16 13:15:28.722";"1";;;;;;;;;;;;;;;;;;;;;
"Bunces1";;;"Windows 7";"Rachel's Experiment (D.T.)";"1.0";"2";"1";"1";"2";"1";"1";"2014-10-16 13:07:43.139";"2014-10-16 13:21:37.897";"1";"1";"0";"136";"135";"module.training_block4.exec-6350.GoNoGo4";;;;;;;;;;;;;;;;;;;;;;;;;;;;;;;;;;;;;;;;;;;;;;;;;;;;;;;;;;;"1261";"2014-10-16 13:15:32.513";"ST_correctStop";"2";"0";"FINISHED";"NONE";"success";"0";"1";"2014-10-16 13:15:31.249";"1";;;;;;;;;;;;;;;;;;;;;
"Bunces1";;;"Windows 7";"Rachel's Experiment (D.T.)";"1.0";"2";"1";"1";"2";"1";"1";"2014-10-16 13:07:43.139";"2014-10-16 13:21:37.897";"1";"1";"0";"137";"136";"module.training_block4.exec-6350.GoNoGo4";;;;;;;;;;;;;;;;;;;;;;;;;;;;;;;;;;;;;;;;;;;;;;;;;;;;;;;;;;;"1261";"2014-10-16 13:15:35.040";"ST_correctStop";"32";"0";"FINISHED";"NONE";"success";"0";"1";"2014-10-16 13:15:33.777";"3";;;;;;;;;;;;;;;;;;;;;
"Bunces1";;;"Windows 7";"Rachel's Experiment (D.T.)";"1.0";"2";"1";"1";"2";"1";"1";"2014-10-16 13:07:43.139";"2014-10-16 13:21:37.897";"1";"1";"0";"138";"137";"module.training_block4.exec-6350.GoNoGo4";;;;;;;;;;;;;;;;;;;;;;;;;;;;;;;;;;;;;;;;;;;;;;;;;;;;;;;;;;;"1261";"2014-10-16 13:15:37.567";"NST_correctLoc";"14";"1";"FINISHED";"RIGHT";"success";"541";"0";"2014-10-16 13:15:36.304";"2";;;;;;;;;;;;;;;;;;;;;
"Bunces1";;;"Windows 7";"Rachel's Experiment (D.T.)";"1.0";"2";"1";"1";"2";"1";"1";"2014-10-16 13:07:43.139";"2014-10-16 13:21:37.897";"1";"1";"0";"139";"138";"module.training_block4.exec-6350.GoNoGo4";;;;;;;;;;;;;;;;;;;;;;;;;;;;;;;;;;;;;;;;;;;;;;;;;;;;;;;;;;;"1261";"2014-10-16 13:15:40.095";"NST_correctLoc";"26";"1";"FINISHED";"RIGHT";"success";"470";"0";"2014-10-16 13:15:38.831";"3";;;;;;;;;;;;;;;;;;;;;
"Bunces1";;;"Windows 7";"Rachel's Experiment (D.T.)";"1.0";"2";"1";"1";"2";"1";"1";"2014-10-16 13:07:43.139";"2014-10-16 13:21:37.897";"1";"1";"0";"140";"139";"module.training_block4.exec-6350.GoNoGo4";;;;;;;;;;;;;;;;;;;;;;;;;;;;;;;;;;;;;;;;;;;;;;;;;;;;;;;;;;;"1261";"2014-10-16 13:15:42.622";"ST_correctStop";"3";"0";"FINISHED";"NONE";"success";"0";"1";"2014-10-16 13:15:41.358";"1";;;;;;;;;;;;;;;;;;;;;
"Bunces1";;;"Windows 7";"Rachel's Experiment (D.T.)";"1.0";"2";"1";"1";"2";"1";"1";"2014-10-16 13:07:43.139";"2014-10-16 13:21:37.897";"1";"1";"0";"141";"140";"module.training_block4.exec-6350.GoNoGo4";;;;;;;;;;;;;;;;;;;;;;;;;;;;;;;;;;;;;;;;;;;;;;;;;;;;;;;;;;;"1261";"2014-10-16 13:15:45.165";"ST_correctStop";"23";"1";"FINISHED";"NONE";"success";"0";"1";"2014-10-16 13:15:43.901";"3";;;;;;;;;;;;;;;;;;;;;
"Bunces1";;;"Windows 7";"Rachel's Experiment (D.T.)";"1.0";"2";"1";"1";"2";"1";"1";"2014-10-16 13:07:43.139";"2014-10-16 13:21:37.897";"1";"1";"0";"142";"141";"module.training_block4.exec-6350.GoNoGo4";;;;;;;;;;;;;;;;;;;;;;;;;;;;;;;;;;;;;;;;;;;;;;;;;;;;;;;;;;;"1261";"2014-10-16 13:15:47.692";"ST_correctStop";"4";"0";"FINISHED";"NONE";"success";"0";"1";"2014-10-16 13:15:46.428";"1";;;;;;;;;;;;;;;;;;;;;
"Bunces1";;;"Windows 7";"Rachel's Experiment (D.T.)";"1.0";"2";"1";"1";"2";"1";"1";"2014-10-16 13:07:43.139";"2014-10-16 13:21:37.897";"1";"1";"0";"143";"142";"module.training_block4.exec-6350.GoNoGo4";;;;;;;;;;;;;;;;;;;;;;;;;;;;;;;;;;;;;;;;;;;;;;;;;;;;;;;;;;;"1261";"2014-10-16 13:15:50.219";"NST_correctLoc";"12";"0";"FINISHED";"LEFT";"success";"426";"0";"2014-10-16 13:15:48.955";"2";;;;;;;;;;;;;;;;;;;;;
"Bunces1";;;"Windows 7";"Rachel's Experiment (D.T.)";"1.0";"2";"1";"1";"2";"1";"1";"2014-10-16 13:07:43.139";"2014-10-16 13:21:37.897";"1";"1";"0";"144";"143";"module.training_block4.exec-6350.GoNoGo4";;;;;;;;;;;;;;;;;;;;;;;;;;;;;;;;;;;;;;;;;;;;;;;;;;;;;;;;;;;"1261";"2014-10-16 13:15:52.746";"NST_correctLoc";"29";"0";"FINISHED";"LEFT";"success";"426";"0";"2014-10-16 13:15:51.483";"3";;;;;;;;;;;;;;;;;;;;;
"Bunces1";;;"Windows 7";"Rachel's Experiment (D.T.)";"1.0";"2";"1";"1";"2";"1";"1";"2014-10-16 13:07:43.139";"2014-10-16 13:21:37.897";"1";"1";"0";"145";"144";"module.training_block4.exec-6350.GoNoGo4";;;;;;;;;;;;;;;;;;;;;;;;;;;;;;;;;;;;;;;;;;;;;;;;;;;;;;;;;;;"1261";"2014-10-16 13:15:55.274";"ST_correctStop";"30";"0";"FINISHED";"NONE";"success";"0";"1";"2014-10-16 13:15:54.010";"3";;;;;;;;;;;;;;;;;;;;;
"Bunces1";;;"Windows 7";"Rachel's Experiment (D.T.)";"1.0";"2";"1";"1";"2";"1";"1";"2014-10-16 13:07:43.139";"2014-10-16 13:21:37.897";"1";"1";"0";"146";"145";"module.training_block4.exec-6350.GoNoGo4";;;;;;;;;;;;;;;;;;;;;;;;;;;;;;;;;;;;;;;;;;;;;;;;;;;;;;;;;;;"1261";"2014-10-16 13:15:57.816";"ST_correctStop";"21";"0";"FINISHED";"NONE";"success";"0";"1";"2014-10-16 13:15:56.553";"3";;;;;;;;;;;;;;;;;;;;;
"Bunces1";;;"Windows 7";"Rachel's Experiment (D.T.)";"1.0";"2";"1";"1";"2";"1";"1";"2014-10-16 13:07:43.139";"2014-10-16 13:21:37.897";"1";"1";"0";"147";"146";"module.training_block4.exec-6350.GoNoGo4";;;;;;;;;;;;;;;;;;;;;;;;;;;;;;;;;;;;;;;;;;;;;;;;;;;;;;;;;;;"1261";"2014-10-16 13:16:00.344";"NST_correctLoc";"28";"1";"FINISHED";"RIGHT";"success";"485";"0";"2014-10-16 13:15:59.080";"3";;;;;;;;;;;;;;;;;;;;;
"Bunces1";;;"Windows 7";"Rachel's Experiment (D.T.)";"1.0";"2";"1";"1";"2";"1";"1";"2014-10-16 13:07:43.139";"2014-10-16 13:21:37.897";"1";"1";"0";"148";"147";"module.training_block4.exec-6350.GoNoGo4";;;;;;;;;;;;;;;;;;;;;;;;;;;;;;;;;;;;;;;;;;;;;;;;;;;;;;;;;;;"1262";"2014-10-16 13:16:02.871";"ST_correctStop";"1";"0";"FINISHED";"NONE";"success";"0";"1";"2014-10-16 13:16:01.607";"1";;;;;;;;;;;;;;;;;;;;;
"Bunces1";;;"Windows 7";"Rachel's Experiment (D.T.)";"1.0";"2";"1";"1";"2";"1";"1";"2014-10-16 13:07:43.139";"2014-10-16 13:21:37.897";"1";"1";"0";"149";"148";"module.training_block4.exec-6350.GoNoGo4";;;;;;;;;;;;;;;;;;;;;;;;;;;;;;;;;;;;;;;;;;;;;;;;;;;;;;;;;;;"1261";"2014-10-16 13:16:05.429";"ST_correctStop";"35";"1";"FINISHED";"NONE";"success";"0";"1";"2014-10-16 13:16:04.166";"3";;;;;;;;;;;;;;;;;;;;;
"Bunces1";;;"Windows 7";"Rachel's Experiment (D.T.)";"1.0";"2";"1";"1";"2";"1";"1";"2014-10-16 13:07:43.139";"2014-10-16 13:21:37.897";"1";"1";"0";"150";"149";"module.training_block4.exec-6350.GoNoGo4";;;;;;;;;;;;;;;;;;;;;;;;;;;;;;;;;;;;;;;;;;;;;;;;;;;;;;;;;;;"1261";"2014-10-16 13:16:07.956";"ST_correctStop";"5";"0";"FINISHED";"NONE";"success";"0";"1";"2014-10-16 13:16:06.693";"1";;;;;;;;;;;;;;;;;;;;;
"Bunces1";;;"Windows 7";"Rachel's Experiment (D.T.)";"1.0";"2";"1";"1";"2";"1";"1";"2014-10-16 13:07:43.139";"2014-10-16 13:21:37.897";"1";"1";"0";"151";"150";"module.training_block4.exec-6350.GoNoGo4";;;;;;;;;;;;;;;;;;;;;;;;;;;;;;;;;;;;;;;;;;;;;;;;;;;;;;;;;;;"1261";"2014-10-16 13:16:10.499";"ST_correctStop";"24";"0";"FINISHED";"NONE";"success";"0";"1";"2014-10-16 13:16:09.236";"3";;;;;;;;;;;;;;;;;;;;;
"Bunces1";;;"Windows 7";"Rachel's Experiment (D.T.)";"1.0";"2";"1";"1";"2";"1";"1";"2014-10-16 13:07:43.139";"2014-10-16 13:21:37.897";"1";"1";"0";"152";"151";"module.training_block4.exec-6350.GoNoGo4";;;;;;;;;;;;;;;;;;;;;;;;;;;;;;;;;;;;;;;;;;;;;;;;;;;;;;;;;;;"1261";"2014-10-16 13:16:13.026";"ST_correctStop";"7";"1";"FINISHED";"NONE";"success";"0";"1";"2014-10-16 13:16:11.763";"1";;;;;;;;;;;;;;;;;;;;;
"Bunces1";;;"Windows 7";"Rachel's Experiment (D.T.)";"1.0";"2";"1";"1";"2";"1";"1";"2014-10-16 13:07:43.139";"2014-10-16 13:21:37.897";"1";"1";"0";"153";"152";"module.training_block4.exec-6350.GoNoGo4";;;;;;;;;;;;;;;;;;;;;;;;;;;;;;;;;;;;;;;;;;;;;;;;;;;;;;;;;;;"1261";"2014-10-16 13:16:15.554";"NST_correctLoc";"9";"0";"FINISHED";"LEFT";"success";"515";"0";"2014-10-16 13:16:14.290";"2";;;;;;;;;;;;;;;;;;;;;
"Bunces1";;;"Windows 7";"Rachel's Experiment (D.T.)";"1.0";"2";"1";"1";"2";"1";"1";"2014-10-16 13:07:43.139";"2014-10-16 13:21:37.897";"1";"1";"0";"154";"153";"module.training_block4.exec-6350.GoNoGo4";;;;;;;;;;;;;;;;;;;;;;;;;;;;;;;;;;;;;;;;;;;;;;;;;;;;;;;;;;;"1261";"2014-10-16 13:16:18.112";"ST_correctStop";"6";"0";"FINISHED";"NONE";"success";"0";"1";"2014-10-16 13:16:16.848";"1";;;;;;;;;;;;;;;;;;;;;
"Bunces1";;;"Windows 7";"Rachel's Experiment (D.T.)";"1.0";"2";"1";"1";"2";"1";"1";"2014-10-16 13:07:43.139";"2014-10-16 13:21:37.897";"1";"1";"0";"155";"154";"module.training_block4.exec-6350.GoNoGo4";;;;;;;;;;;;;;;;;;;;;;;;;;;;;;;;;;;;;;;;;;;;;;;;;;;;;;;;;;;"1261";"2014-10-16 13:16:20.639";"NST_correctLoc";"13";"0";"FINISHED";"LEFT";"success";"485";"0";"2014-10-16 13:16:19.376";"2";;;;;;;;;;;;;;;;;;;;;
"Bunces1";;;"Windows 7";"Rachel's Experiment (D.T.)";"1.0";"2";"1";"1";"2";"1";"1";"2014-10-16 13:07:43.139";"2014-10-16 13:21:37.897";"1";"1";"0";"156";"155";"module.training_block4.exec-6350.GoNoGo4";;;;;;;;;;;;;;;;;;;;;;;;;;;;;;;;;;;;;;;;;;;;;;;;;;;;;;;;;;;"1261";"2014-10-16 13:16:23.182";"NST_correctLoc";"27";"0";"FINISHED";"LEFT";"success";"430";"0";"2014-10-16 13:16:21.918";"3";;;;;;;;;;;;;;;;;;;;;
"Bunces1";;;"Windows 7";"Rachel's Experiment (D.T.)";"1.0";"2";"1";"1";"2";"1";"1";"2014-10-16 13:07:43.139";"2014-10-16 13:21:37.897";"1";"1";"0";"157";"156";"module.training_block4.exec-6350.GoNoGo4";;;;;;;;;;;;;;;;;;;;;;;;;;;;;;;;;;;;;;;;;;;;;;;;;;;;;;;;;;;"1261";"2014-10-16 13:16:25.709";"NST_correctLoc";"31";"1";"FINISHED";"RIGHT";"success";"383";"0";"2014-10-16 13:16:24.446";"3";;;;;;;;;;;;;;;;;;;;;
"Bunces1";;;"Windows 7";"Rachel's Experiment (D.T.)";"1.0";"2";"1";"1";"2";"1";"1";"2014-10-16 13:07:43.139";"2014-10-16 13:21:37.897";"1";"1";"0";"158";"157";"module.training_block4.exec-6350.GoNoGo4";;;;;;;;;;;;;;;;;;;;;;;;;;;;;;;;;;;;;;;;;;;;;;;;;;;;;;;;;;;"1261";"2014-10-16 13:16:28.236";"NST_correctLoc";"18";"0";"FINISHED";"LEFT";"success";"376";"0";"2014-10-16 13:16:26.973";"3";;;;;;;;;;;;;;;;;;;;;
"Bunces1";;;"Windows 7";"Rachel's Experiment (D.T.)";"1.0";"2";"1";"1";"2";"1";"1";"2014-10-16 13:07:43.139";"2014-10-16 13:21:37.897";"1";"1";"0";"159";"158";"module.training_block4.exec-6350.GoNoGo4";;;;;;;;;;;;;;;;;;;;;;;;;;;;;;;;;;;;;;;;;;;;;;;;;;;;;;;;;;;"1261";"2014-10-16 13:16:30.795";"NST_correctLoc";"11";"0";"FINISHED";"LEFT";"success";"373";"0";"2014-10-16 13:16:29.531";"2";;;;;;;;;;;;;;;;;;;;;
"Bunces1";;;"Windows 7";"Rachel's Experiment (D.T.)";"1.0";"2";"1";"1";"2";"1";"1";"2014-10-16 13:07:43.139";"2014-10-16 13:21:37.897";"1";"1";"0";"160";"159";"module.devaluation_practice.exec-8409.devalPractice";;;;;;;;;;;;"19524";"2014-10-16 13:17:30.402";"0";"6";"4";"5";"6108";"5579";"4780";"2014-10-16 13:17:10.871";;;;;;;;;;;;;;;;;;;;;;;;;;;;;;;;;;;;;;;;;;;;;;;;;;;;;;;;;;;;;;;;;;;;;;
"Bunces1";;;"Windows 7";"Rachel's Experiment (D.T.)";"1.0";"2";"1";"1";"2";"1";"1";"2014-10-16 13:07:43.139";"2014-10-16 13:21:37.897";"1";"1";"0";"161";"160";"module.devaluation_practice.exec-8409.devalPractice";;;;;;;;;;;;"14068";"2014-10-16 13:17:44.489";"1";"6";"3";"7";"6156";"2287";"2617";"2014-10-16 13:17:30.418";;;;;;;;;;;;;;;;;;;;;;;;;;;;;;;;;;;;;;;;;;;;;;;;;;;;;;;;;;;;;;;;;;;;;;
"Bunces1";;;"Windows 7";"Rachel's Experiment (D.T.)";"1.0";"2";"1";"1";"2";"1";"1";"2014-10-16 13:07:43.139";"2014-10-16 13:21:37.897";"1";"1";"0";"162";"161";"module.devaluation_practice.exec-8409.devalPractice";;;;;;;;;;;;"8575";"2014-10-16 13:17:53.101";"2";"2";"1";"3";"2214";"1652";"1670";"2014-10-16 13:17:44.520";;;;;;;;;;;;;;;;;;;;;;;;;;;;;;;;;;;;;;;;;;;;;;;;;;;;;;;;;;;;;;;;;;;;;;
"Bunces1";;;"Windows 7";"Rachel's Experiment (D.T.)";"1.0";"2";"1";"1";"2";"1";"1";"2014-10-16 13:07:43.139";"2014-10-16 13:21:37.897";"1";"1";"0";"163";"162";"module.devaluation_practice.exec-8409.devalPractice";;;;;;;;;;;;"7448";"2014-10-16 13:18:00.589";"3";"4";"2";"5";"2060";"1677";"665";"2014-10-16 13:17:53.132";;;;;;;;;;;;;;;;;;;;;;;;;;;;;;;;;;;;;;;;;;;;;;;;;;;;;;;;;;;;;;;;;;;;;;
"Bunces1";;;"Windows 7";"Rachel's Experiment (D.T.)";"1.0";"2";"1";"1";"2";"1";"1";"2014-10-16 13:07:43.139";"2014-10-16 13:21:37.897";"1";"1";"0";"164";"163";"module.devaluation_block1.exec-5220.deval1";"10417";"2014-10-16 13:18:15.955";"2";"3";"2";"1";"1504";"2028";"3860";"2014-10-16 13:18:05.534";"1";;;;;;;;;;;;;;;;;;;;;;;;;;;;;;;;;;;;;;;;;;;;;;;;;;;;;;;;;;;;;;;;;;;;;;;;;;;;;;;;
"Bunces1";;;"Windows 7";"Rachel's Experiment (D.T.)";"1.0";"2";"1";"1";"2";"1";"1";"2014-10-16 13:07:43.139";"2014-10-16 13:21:37.897";"1";"1";"0";"165";"164";"module.devaluation_block1.exec-5220.deval1";"8714";"2014-10-16 13:18:24.706";"9";"3";"2";"6";"1661";"1194";"2829";"2014-10-16 13:18:16.001";"2";;;;;;;;;;;;;;;;;;;;;;;;;;;;;;;;;;;;;;;;;;;;;;;;;;;;;;;;;;;;;;;;;;;;;;;;;;;;;;;;
"Bunces1";;;"Windows 7";"Rachel's Experiment (D.T.)";"1.0";"2";"1";"1";"2";"1";"1";"2014-10-16 13:07:43.139";"2014-10-16 13:21:37.897";"1";"1";"0";"166";"165";"module.devaluation_block1.exec-5220.deval1";"7917";"2014-10-16 13:18:32.647";"14";"3";"3";"5";"1724";"1268";"1902";"2014-10-16 13:18:24.722";"2";;;;;;;;;;;;;;;;;;;;;;;;;;;;;;;;;;;;;;;;;;;;;;;;;;;;;;;;;;;;;;;;;;;;;;;;;;;;;;;;
"Bunces1";;;"Windows 7";"Rachel's Experiment (D.T.)";"1.0";"2";"1";"1";"2";"1";"1";"2014-10-16 13:07:43.139";"2014-10-16 13:21:37.897";"1";"1";"0";"167";"166";"module.devaluation_block1.exec-5220.deval1";"10954";"2014-10-16 13:18:43.629";"7";"1";"1";"2";"4184";"1379";"2353";"2014-10-16 13:18:32.678";"1";;;;;;;;;;;;;;;;;;;;;;;;;;;;;;;;;;;;;;;;;;;;;;;;;;;;;;;;;;;;;;;;;;;;;;;;;;;;;;;;
"Bunces1";;;"Windows 7";"Rachel's Experiment (D.T.)";"1.0";"2";"1";"1";"2";"1";"1";"2014-10-16 13:07:43.139";"2014-10-16 13:21:37.897";"1";"1";"0";"168";"167";"module.devaluation_block1.exec-5220.deval1";"8722";"2014-10-16 13:18:52.381";"22";"7";"6";"6";"1306";"1348";"3040";"2014-10-16 13:18:43.660";"3";;;;;;;;;;;;;;;;;;;;;;;;;;;;;;;;;;;;;;;;;;;;;;;;;;;;;;;;;;;;;;;;;;;;;;;;;;;;;;;;
"Bunces1";;;"Windows 7";"Rachel's Experiment (D.T.)";"1.0";"2";"1";"1";"2";"1";"1";"2014-10-16 13:07:43.139";"2014-10-16 13:21:37.897";"1";"1";"0";"169";"168";"module.devaluation_block1.exec-5220.deval1";"8837";"2014-10-16 13:19:01.241";"16";"3";"2";"4";"2698";"1390";"1724";"2014-10-16 13:18:52.396";"2";;;;;;;;;;;;;;;;;;;;;;;;;;;;;;;;;;;;;;;;;;;;;;;;;;;;;;;;;;;;;;;;;;;;;;;;;;;;;;;;
"Bunces1";;;"Windows 7";"Rachel's Experiment (D.T.)";"1.0";"2";"1";"1";"2";"1";"1";"2014-10-16 13:07:43.139";"2014-10-16 13:21:37.897";"1";"1";"0";"170";"169";"module.devaluation_block1.exec-5220.deval1";"9141";"2014-10-16 13:19:10.399";"3";"3";"6";"9";"2061";"1798";"2255";"2014-10-16 13:19:01.257";"1";;;;;;;;;;;;;;;;;;;;;;;;;;;;;;;;;;;;;;;;;;;;;;;;;;;;;;;;;;;;;;;;;;;;;;;;;;;;;;;;
"Bunces1";;;"Windows 7";"Rachel's Experiment (D.T.)";"1.0";"2";"1";"1";"2";"1";"1";"2014-10-16 13:07:43.139";"2014-10-16 13:21:37.897";"1";"1";"0";"171";"170";"module.devaluation_block1.exec-5220.deval1";"7612";"2014-10-16 13:19:18.027";"0";"3";"2";"4";"1432";"1053";"2098";"2014-10-16 13:19:10.414";"1";;;;;;;;;;;;;;;;;;;;;;;;;;;;;;;;;;;;;;;;;;;;;;;;;;;;;;;;;;;;;;;;;;;;;;;;;;;;;;;;
"Bunces1";;;"Windows 7";"Rachel's Experiment (D.T.)";"1.0";"2";"1";"1";"2";"1";"1";"2014-10-16 13:07:43.139";"2014-10-16 13:21:37.897";"1";"1";"0";"172";"171";"module.devaluation_block1.exec-5220.deval1";"6652";"2014-10-16 13:19:24.704";"8";"1";"1";"1";"1372";"1103";"1140";"2014-10-16 13:19:18.058";"1";;;;;;;;;;;;;;;;;;;;;;;;;;;;;;;;;;;;;;;;;;;;;;;;;;;;;;;;;;;;;;;;;;;;;;;;;;;;;;;;
"Bunces1";;;"Windows 7";"Rachel's Experiment (D.T.)";"1.0";"2";"1";"1";"2";"1";"1";"2014-10-16 13:07:43.139";"2014-10-16 13:21:37.897";"1";"1";"0";"173";"172";"module.devaluation_block1.exec-5220.deval1";"6525";"2014-10-16 13:19:31.256";"17";"3";"1";"1";"847";"1313";"1338";"2014-10-16 13:19:24.735";"2";;;;;;;;;;;;;;;;;;;;;;;;;;;;;;;;;;;;;;;;;;;;;;;;;;;;;;;;;;;;;;;;;;;;;;;;;;;;;;;;
"Bunces1";;;"Windows 7";"Rachel's Experiment (D.T.)";"1.0";"2";"1";"1";"2";"1";"1";"2014-10-16 13:07:43.139";"2014-10-16 13:21:37.897";"1";"1";"0";"174";"173";"module.devaluation_block1.exec-5220.deval1";"10637";"2014-10-16 13:19:41.911";"5";"8";"7";"9";"2687";"2500";"2425";"2014-10-16 13:19:31.271";"1";;;;;;;;;;;;;;;;;;;;;;;;;;;;;;;;;;;;;;;;;;;;;;;;;;;;;;;;;;;;;;;;;;;;;;;;;;;;;;;;
"Bunces1";;;"Windows 7";"Rachel's Experiment (D.T.)";"1.0";"2";"1";"1";"2";"1";"1";"2014-10-16 13:07:43.139";"2014-10-16 13:21:37.897";"1";"1";"0";"175";"174";"module.devaluation_block1.exec-5220.deval1";"9085";"2014-10-16 13:19:51.021";"18";"3";"3";"4";"3648";"996";"1403";"2014-10-16 13:19:41.926";"3";;;;;;;;;;;;;;;;;;;;;;;;;;;;;;;;;;;;;;;;;;;;;;;;;;;;;;;;;;;;;;;;;;;;;;;;;;;;;;;;
"Bunces1";;;"Windows 7";"Rachel's Experiment (D.T.)";"1.0";"2";"1";"1";"2";"1";"1";"2014-10-16 13:07:43.139";"2014-10-16 13:21:37.897";"1";"1";"0";"176";"175";"module.devaluation_block1.exec-5220.deval1";"8385";"2014-10-16 13:19:59.414";"26";"8";"6";"7";"1937";"1916";"1496";"2014-10-16 13:19:51.037";"3";;;;;;;;;;;;;;;;;;;;;;;;;;;;;;;;;;;;;;;;;;;;;;;;;;;;;;;;;;;;;;;;;;;;;;;;;;;;;;;;
"Bunces1";;;"Windows 7";"Rachel's Experiment (D.T.)";"1.0";"2";"1";"1";"2";"1";"1";"2014-10-16 13:07:43.139";"2014-10-16 13:21:37.897";"1";"1";"0";"177";"176";"module.devaluation_block1.exec-5220.deval1";"7885";"2014-10-16 13:20:07.323";"1";"1";"1";"3";"1753";"1193";"1915";"2014-10-16 13:19:59.445";"1";;;;;;;;;;;;;;;;;;;;;;;;;;;;;;;;;;;;;;;;;;;;;;;;;;;;;;;;;;;;;;;;;;;;;;;;;;;;;;;;
"Bunces1";;;"Windows 7";"Rachel's Experiment (D.T.)";"1.0";"2";"1";"1";"2";"1";"1";"2014-10-16 13:07:43.139";"2014-10-16 13:21:37.897";"1";"1";"0";"178";"177";"module.devaluation_block1.exec-5220.deval1";"10141";"2014-10-16 13:20:17.479";"15";"2";"2";"4";"3899";"2180";"1036";"2014-10-16 13:20:07.339";"2";;;;;;;;;;;;;;;;;;;;;;;;;;;;;;;;;;;;;;;;;;;;;;;;;;;;;;;;;;;;;;;;;;;;;;;;;;;;;;;;
"Bunces1";;;"Windows 7";"Rachel's Experiment (D.T.)";"1.0";"2";"1";"1";"2";"1";"1";"2014-10-16 13:07:43.139";"2014-10-16 13:21:37.897";"1";"1";"0";"179";"178";"module.devaluation_block1.exec-5220.deval1";"7945";"2014-10-16 13:20:25.450";"19";"5";"3";"6";"2640";"1053";"1225";"2014-10-16 13:20:17.510";"3";;;;;;;;;;;;;;;;;;;;;;;;;;;;;;;;;;;;;;;;;;;;;;;;;;;;;;;;;;;;;;;;;;;;;;;;;;;;;;;;
"Bunces1";;;"Windows 7";"Rachel's Experiment (D.T.)";"1.0";"2";"1";"1";"2";"1";"1";"2014-10-16 13:07:43.139";"2014-10-16 13:21:37.897";"1";"1";"0";"180";"179";"module.devaluation_block1.exec-5220.deval1";"6500";"2014-10-16 13:20:31.971";"25";"2";"1";"3";"1156";"1380";"943";"2014-10-16 13:20:25.466";"3";;;;;;;;;;;;;;;;;;;;;;;;;;;;;;;;;;;;;;;;;;;;;;;;;;;;;;;;;;;;;;;;;;;;;;;;;;;;;;;;
"Bunces1";;;"Windows 7";"Rachel's Experiment (D.T.)";"1.0";"2";"1";"1";"2";"1";"1";"2014-10-16 13:07:43.139";"2014-10-16 13:21:37.897";"1";"1";"0";"181";"180";"module.devaluation_block1.exec-5220.deval1";"5493";"2014-10-16 13:20:37.478";"4";"5";"4";"5";"1195";"699";"575";"2014-10-16 13:20:31.987";"1";;;;;;;;;;;;;;;;;;;;;;;;;;;;;;;;;;;;;;;;;;;;;;;;;;;;;;;;;;;;;;;;;;;;;;;;;;;;;;;;
"Bunces1";;;"Windows 7";"Rachel's Experiment (D.T.)";"1.0";"2";"1";"1";"2";"1";"1";"2014-10-16 13:07:43.139";"2014-10-16 13:21:37.897";"1";"1";"0";"182";"181";"module.devaluation_block1.exec-5220.deval1";"6693";"2014-10-16 13:20:44.202";"6";"3";"1";"2";"1545";"1061";"1054";"2014-10-16 13:20:37.509";"1";;;;;;;;;;;;;;;;;;;;;;;;;;;;;;;;;;;;;;;;;;;;;;;;;;;;;;;;;;;;;;;;;;;;;;;;;;;;;;;;
"Bunces1";;;"Windows 7";"Rachel's Experiment (D.T.)";"1.0";"2";"1";"1";"2";"1";"1";"2014-10-16 13:07:43.139";"2014-10-16 13:21:37.897";"1";"1";"0";"183";"182";"module.devaluation_block1.exec-5220.deval1";"8069";"2014-10-16 13:20:52.298";"21";"3";"3";"4";"2373";"1911";"751";"2014-10-16 13:20:44.233";"3";;;;;;;;;;;;;;;;;;;;;;;;;;;;;;;;;;;;;;;;;;;;;;;;;;;;;;;;;;;;;;;;;;;;;;;;;;;;;;;;
"Bunces1";;;"Windows 7";"Rachel's Experiment (D.T.)";"1.0";"2";"1";"1";"2";"1";"1";"2014-10-16 13:07:43.139";"2014-10-16 13:21:37.897";"1";"1";"0";"184";"183";"module.devaluation_block1.exec-5220.deval1";"5604";"2014-10-16 13:20:57.930";"23";"4";"3";"4";"836";"859";"887";"2014-10-16 13:20:52.314";"3";;;;;;;;;;;;;;;;;;;;;;;;;;;;;;;;;;;;;;;;;;;;;;;;;;;;;;;;;;;;;;;;;;;;;;;;;;;;;;;;
"Bunces1";;;"Windows 7";"Rachel's Experiment (D.T.)";"1.0";"2";"1";"1";"2";"1";"1";"2014-10-16 13:07:43.139";"2014-10-16 13:21:37.897";"1";"1";"0";"185";"184";"module.devaluation_block1.exec-5220.deval1";"7333";"2014-10-16 13:21:05.277";"12";"7";"9";"8";"1268";"1596";"1434";"2014-10-16 13:20:57.945";"2";;;;;;;;;;;;;;;;;;;;;;;;;;;;;;;;;;;;;;;;;;;;;;;;;;;;;;;;;;;;;;;;;;;;;;;;;;;;;;;;
"Bunces1";;;"Windows 7";"Rachel's Experiment (D.T.)";"1.0";"2";"1";"1";"2";"1";"1";"2014-10-16 13:07:43.139";"2014-10-16 13:21:37.897";"1";"1";"0";"186";"185";"module.devaluation_block1.exec-5220.deval1";"7034";"2014-10-16 13:21:12.344";"11";"4";"1";"3";"1401";"1484";"1107";"2014-10-16 13:21:05.308";"2";;;;;;;;;;;;;;;;;;;;;;;;;;;;;;;;;;;;;;;;;;;;;;;;;;;;;;;;;;;;;;;;;;;;;;;;;;;;;;;;
"Bunces1";;;"Windows 7";"Rachel's Experiment (D.T.)";"1.0";"2";"1";"1";"2";"1";"1";"2014-10-16 13:07:43.139";"2014-10-16 13:21:37.897";"1";"1";"0";"187";"186";"module.devaluation_block1.exec-5220.deval1";"6101";"2014-10-16 13:21:18.459";"24";"6";"3";"6";"974";"1489";"612";"2014-10-16 13:21:12.360";"3";;;;;;;;;;;;;;;;;;;;;;;;;;;;;;;;;;;;;;;;;;;;;;;;;;;;;;;;;;;;;;;;;;;;;;;;;;;;;;;;
"Bunces1";;;"Windows 7";"Rachel's Experiment (D.T.)";"1.0";"2";"1";"1";"2";"1";"1";"2014-10-16 13:07:43.139";"2014-10-16 13:21:37.897";"1";"1";"0";"188";"187";"module.devaluation_block1.exec-5220.deval1";"6060";"2014-10-16 13:21:24.543";"10";"4";"1";"3";"987";"1087";"962";"2014-10-16 13:21:18.490";"2";;;;;;;;;;;;;;;;;;;;;;;;;;;;;;;;;;;;;;;;;;;;;;;;;;;;;;;;;;;;;;;;;;;;;;;;;;;;;;;;
"Bunces1";;;"Windows 7";"Rachel's Experiment (D.T.)";"1.0";"2";"1";"1";"2";"1";"1";"2014-10-16 13:07:43.139";"2014-10-16 13:21:37.897";"1";"1";"0";"189";"188";"module.devaluation_block1.exec-5220.deval1";"5756";"2014-10-16 13:21:30.331";"20";"2";"1";"3";"991";"1060";"678";"2014-10-16 13:21:24.574";"3";;;;;;;;;;;;;;;;;;;;;;;;;;;;;;;;;;;;;;;;;;;;;;;;;;;;;;;;;;;;;;;;;;;;;;;;;;;;;;;;
"Bunces1";;;"Windows 7";"Rachel's Experiment (D.T.)";"1.0";"2";"1";"1";"2";"1";"1";"2014-10-16 13:07:43.139";"2014-10-16 13:21:37.897";"1";"1";"0";"190";"189";"module.devaluation_block1.exec-5220.deval1";"5580";"2014-10-16 13:21:35.931";"13";"4";"3";"4";"635";"997";"928";"2014-10-16 13:21:30.346";"2";;;;;;;;;;;;;;;;;;;;;;;;;;;;;;;;;;;;;;;;;;;;;;;;;;;;;;;;;;;;;;;;;;;;;;;;;;;;;;;;
