"user.name";"user.yearOfBirth";"user.sex";"user.osName";"module.name";"module.version";"module.online.subject.code";"module.online.study.id";"module.online.module.nr";"module.online.group.nr";"session.id";"session.index";"session.startTime";"session.endTime";"session.completed";"session.node-3341.DevalQorder";"session.node-6613.conditionType";"trial.id";"trial.index";"trial.name";"trial.deval1.durationTime";"trial.deval1.endTime";"trial.deval1.icon";"trial.deval1.Resp_Attractive";"trial.deval1.Resp_Eat";"trial.deval1.Resp_Taste";"trial.deval1.RT_Attractive";"trial.deval1.RT_Eat";"trial.deval1.RT_Taste";"trial.deval1.startTime";"trial.deval1.stimulus type";"trial.devalPractice.durationTime";"trial.devalPractice.endTime";"trial.devalPractice.icon";"trial.devalPractice.Resp_Attractive";"trial.devalPractice.Resp_Eat";"trial.devalPractice.Resp_Taste";"trial.devalPractice.RT_Attractive";"trial.devalPractice.RT_Eat";"trial.devalPractice.RT_Taste";"trial.devalPractice.startTime";"trial.devalPractice.stimulus type";"trial.GoNoGo1.durationTime";"trial.GoNoGo1.endTime";"trial.GoNoGo1.Error Type";"trial.GoNoGo1.icon";"trial.GoNoGo1.location";"trial.GoNoGo1.outcome";"trial.GoNoGo1.response";"trial.GoNoGo1.result";"trial.GoNoGo1.RT";"trial.GoNoGo1.signal";"trial.GoNoGo1.startTime";"trial.GoNoGo1.stimulus type";"trial.GoNoGo2.durationTime";"trial.GoNoGo2.endTime";"trial.GoNoGo2.Error Type";"trial.GoNoGo2.icon";"trial.GoNoGo2.location";"trial.GoNoGo2.outcome";"trial.GoNoGo2.response";"trial.GoNoGo2.result";"trial.GoNoGo2.RT";"trial.GoNoGo2.signal";"trial.GoNoGo2.startTime";"trial.GoNoGo2.stimulus type";"trial.GoNoGo3.durationTime";"trial.GoNoGo3.endTime";"trial.GoNoGo3.Error Type";"trial.GoNoGo3.icon";"trial.GoNoGo3.location";"trial.GoNoGo3.outcome";"trial.GoNoGo3.response";"trial.GoNoGo3.result";"trial.GoNoGo3.RT";"trial.GoNoGo3.signal";"trial.GoNoGo3.startTime";"trial.GoNoGo3.stimulus type";"trial.GoNoGo4.durationTime";"trial.GoNoGo4.endTime";"trial.GoNoGo4.Error Type";"trial.GoNoGo4.icon";"trial.GoNoGo4.location";"trial.GoNoGo4.outcome";"trial.GoNoGo4.response";"trial.GoNoGo4.result";"trial.GoNoGo4.RT";"trial.GoNoGo4.signal";"trial.GoNoGo4.startTime";"trial.GoNoGo4.stimulus type";"trial.GoNoGo_Practice.durationTime";"trial.GoNoGo_Practice.endTime";"trial.GoNoGo_Practice.icon";"trial.GoNoGo_Practice.location";"trial.GoNoGo_Practice.outcome";"trial.GoNoGo_Practice.response";"trial.GoNoGo_Practice.result";"trial.GoNoGo_Practice.RT";"trial.GoNoGo_Practice.signal";"trial.GoNoGo_Practice.startTime";"trial.GoNoGo_Practice.stimulus type";"trial.GoNoGo_Tutorial.durationTime";"trial.GoNoGo_Tutorial.endTime";"trial.GoNoGo_Tutorial.icon";"trial.GoNoGo_Tutorial.location";"trial.GoNoGo_Tutorial.outcome";"trial.GoNoGo_Tutorial.response";"trial.GoNoGo_Tutorial.result";"trial.GoNoGo_Tutorial.RT";"trial.GoNoGo_Tutorial.signal";"trial.GoNoGo_Tutorial.startTime"
"C14452";"1996";;"Mac OS X";"Rachel's Experiment (D.T.)";"1.0";"2";"1";"1";"2";"1";"1";"2014-10-16 16:25:21.865";"2014-10-16 16:41:09.123";"1";"1";"1";"1";"0";"module.GoNoGotutorial.exec-9233.GoNoGo_Tutorial";;;;;;;;;;;;;;;;;;;;;;;;;;;;;;;;;;;;;;;;;;;;;;;;;;;;;;;;;;;;;;;;;;;;;;;;;;;;;;;;;;"4002";"2014-10-16 16:28:08.716";"leftResponse";"0";"FINISHED";"LEFT";"success";"3921";"0";"2014-10-16 16:28:04.714"
"C14452";"1996";;"Mac OS X";"Rachel's Experiment (D.T.)";"1.0";"2";"1";"1";"2";"1";"1";"2014-10-16 16:25:21.865";"2014-10-16 16:41:09.123";"1";"1";"1";"2";"1";"module.GoNoGotutorial.exec-9233.GoNoGo_Tutorial";;;;;;;;;;;;;;;;;;;;;;;;;;;;;;;;;;;;;;;;;;;;;;;;;;;;;;;;;;;;;;;;;;;;;;;;;;;;;;;;;;"4001";"2014-10-16 16:28:14.040";"rightResponse";"1";"FINISHED";"RIGHT";"success";"1181";"0";"2014-10-16 16:28:10.038"
"C14452";"1996";;"Mac OS X";"Rachel's Experiment (D.T.)";"1.0";"2";"1";"1";"2";"1";"1";"2014-10-16 16:25:21.865";"2014-10-16 16:41:09.123";"1";"1";"1";"3";"2";"module.GoNoGotutorial.exec-9233.GoNoGo_Tutorial";;;;;;;;;;;;;;;;;;;;;;;;;;;;;;;;;;;;;;;;;;;;;;;;;;;;;;;;;;;;;;;;;;;;;;;;;;;;;;;;;;"4001";"2014-10-16 16:28:19.350";"signalResponse";"0";"FINISHED";"NONE";"success";"0";"1";"2014-10-16 16:28:15.348"
"C14452";"1996";;"Mac OS X";"Rachel's Experiment (D.T.)";"1.0";"2";"1";"1";"2";"1";"1";"2014-10-16 16:25:21.865";"2014-10-16 16:41:09.123";"1";"1";"1";"4";"3";"module.GoNoGopractice.exec-7252.GoNoGo_Practice";;;;;;;;;;;;;;;;;;;;;;;;;;;;;;;;;;;;;;;;;;;;;;;;;;;;;;;;;;;;;;;;;;;;;;;"1965";"2014-10-16 16:28:28.282";"18";"0";"FINISHED";"LEFT";"success";"636";"0";"2014-10-16 16:28:26.317";"3";;;;;;;;;;
"C14452";"1996";;"Mac OS X";"Rachel's Experiment (D.T.)";"1.0";"2";"1";"1";"2";"1";"1";"2014-10-16 16:25:21.865";"2014-10-16 16:41:09.123";"1";"1";"1";"5";"4";"module.GoNoGopractice.exec-7252.GoNoGo_Practice";;;;;;;;;;;;;;;;;;;;;;;;;;;;;;;;;;;;;;;;;;;;;;;;;;;;;;;;;;;;;;;;;;;;;;;"1952";"2014-10-16 16:28:31.537";"21";"1";"FINISHED";"RIGHT";"success";"544";"0";"2014-10-16 16:28:29.585";"3";;;;;;;;;;
"C14452";"1996";;"Mac OS X";"Rachel's Experiment (D.T.)";"1.0";"2";"1";"1";"2";"1";"1";"2014-10-16 16:25:21.865";"2014-10-16 16:41:09.123";"1";"1";"1";"6";"5";"module.GoNoGopractice.exec-7252.GoNoGo_Practice";;;;;;;;;;;;;;;;;;;;;;;;;;;;;;;;;;;;;;;;;;;;;;;;;;;;;;;;;;;;;;;;;;;;;;;"1956";"2014-10-16 16:28:34.801";"14";"1";"FINISHED";"NONE";"success";"0";"1";"2014-10-16 16:28:32.844";"2";;;;;;;;;;
"C14452";"1996";;"Mac OS X";"Rachel's Experiment (D.T.)";"1.0";"2";"1";"1";"2";"1";"1";"2014-10-16 16:25:21.865";"2014-10-16 16:41:09.123";"1";"1";"1";"7";"6";"module.GoNoGopractice.exec-7252.GoNoGo_Practice";;;;;;;;;;;;;;;;;;;;;;;;;;;;;;;;;;;;;;;;;;;;;;;;;;;;;;;;;;;;;;;;;;;;;;;"1953";"2014-10-16 16:28:38.054";"26";"0";"FINISHED";"LEFT";"success";"726";"0";"2014-10-16 16:28:36.100";"3";;;;;;;;;;
"C14452";"1996";;"Mac OS X";"Rachel's Experiment (D.T.)";"1.0";"2";"1";"1";"2";"1";"1";"2014-10-16 16:25:21.865";"2014-10-16 16:41:09.123";"1";"1";"1";"8";"7";"module.GoNoGopractice.exec-7252.GoNoGo_Practice";;;;;;;;;;;;;;;;;;;;;;;;;;;;;;;;;;;;;;;;;;;;;;;;;;;;;;;;;;;;;;;;;;;;;;;"1953";"2014-10-16 16:28:41.305";"2";"0";"FINISHED";"LEFT";"success";"881";"0";"2014-10-16 16:28:39.351";"1";;;;;;;;;;
"C14452";"1996";;"Mac OS X";"Rachel's Experiment (D.T.)";"1.0";"2";"1";"1";"2";"1";"1";"2014-10-16 16:25:21.865";"2014-10-16 16:41:09.123";"1";"1";"1";"9";"8";"module.GoNoGopractice.exec-7252.GoNoGo_Practice";;;;;;;;;;;;;;;;;;;;;;;;;;;;;;;;;;;;;;;;;;;;;;;;;;;;;;;;;;;;;;;;;;;;;;;"1954";"2014-10-16 16:28:44.558";"30";"0";"FINISHED";"NONE";"success";"0";"1";"2014-10-16 16:28:42.604";"3";;;;;;;;;;
"C14452";"1996";;"Mac OS X";"Rachel's Experiment (D.T.)";"1.0";"2";"1";"1";"2";"1";"1";"2014-10-16 16:25:21.865";"2014-10-16 16:41:09.123";"1";"1";"1";"10";"9";"module.GoNoGopractice.exec-7252.GoNoGo_Practice";;;;;;;;;;;;;;;;;;;;;;;;;;;;;;;;;;;;;;;;;;;;;;;;;;;;;;;;;;;;;;;;;;;;;;;"1953";"2014-10-16 16:28:47.812";"6";"1";"FINISHED";"NONE";"success";"0";"1";"2014-10-16 16:28:45.858";"1";;;;;;;;;;
"C14452";"1996";;"Mac OS X";"Rachel's Experiment (D.T.)";"1.0";"2";"1";"1";"2";"1";"1";"2014-10-16 16:25:21.865";"2014-10-16 16:41:09.123";"1";"1";"1";"11";"10";"module.GoNoGopractice.exec-7252.GoNoGo_Practice";;;;;;;;;;;;;;;;;;;;;;;;;;;;;;;;;;;;;;;;;;;;;;;;;;;;;;;;;;;;;;;;;;;;;;;"1954";"2014-10-16 16:28:51.066";"34";"0";"FINISHED";"LEFT";"success";"788";"0";"2014-10-16 16:28:49.111";"3";;;;;;;;;;
"C14452";"1996";;"Mac OS X";"Rachel's Experiment (D.T.)";"1.0";"2";"1";"1";"2";"1";"1";"2014-10-16 16:25:21.865";"2014-10-16 16:41:09.123";"1";"1";"1";"12";"11";"module.GoNoGopractice.exec-7252.GoNoGo_Practice";;;;;;;;;;;;;;;;;;;;;;;;;;;;;;;;;;;;;;;;;;;;;;;;;;;;;;;;;;;;;;;;;;;;;;;"1953";"2014-10-16 16:28:54.317";"23";"1";"FINISHED";"RIGHT";"success";"839";"0";"2014-10-16 16:28:52.364";"3";;;;;;;;;;
"C14452";"1996";;"Mac OS X";"Rachel's Experiment (D.T.)";"1.0";"2";"1";"1";"2";"1";"1";"2014-10-16 16:25:21.865";"2014-10-16 16:41:09.123";"1";"1";"1";"13";"12";"module.GoNoGopractice.exec-7252.GoNoGo_Practice";;;;;;;;;;;;;;;;;;;;;;;;;;;;;;;;;;;;;;;;;;;;;;;;;;;;;;;;;;;;;;;;;;;;;;;"1952";"2014-10-16 16:28:57.570";"13";"0";"FINISHED";"NONE";"success";"0";"1";"2014-10-16 16:28:55.617";"2";;;;;;;;;;
"C14452";"1996";;"Mac OS X";"Rachel's Experiment (D.T.)";"1.0";"2";"1";"1";"2";"1";"1";"2014-10-16 16:25:21.865";"2014-10-16 16:41:09.123";"1";"1";"1";"14";"13";"module.GoNoGopractice.exec-7252.GoNoGo_Practice";;;;;;;;;;;;;;;;;;;;;;;;;;;;;;;;;;;;;;;;;;;;;;;;;;;;;;;;;;;;;;;;;;;;;;;"1952";"2014-10-16 16:29:00.823";"3";"1";"FINISHED";"RIGHT";"success";"747";"0";"2014-10-16 16:28:58.871";"1";;;;;;;;;;
"C14452";"1996";;"Mac OS X";"Rachel's Experiment (D.T.)";"1.0";"2";"1";"1";"2";"1";"1";"2014-10-16 16:25:21.865";"2014-10-16 16:41:09.123";"1";"1";"1";"15";"14";"module.GoNoGopractice.exec-7252.GoNoGo_Practice";;;;;;;;;;;;;;;;;;;;;;;;;;;;;;;;;;;;;;;;;;;;;;;;;;;;;;;;;;;;;;;;;;;;;;;"1952";"2014-10-16 16:29:04.062";"27";"1";"FINISHED";"NONE";"success";"0";"1";"2014-10-16 16:29:02.109";"3";;;;;;;;;;
"C14452";"1996";;"Mac OS X";"Rachel's Experiment (D.T.)";"1.0";"2";"1";"1";"2";"1";"1";"2014-10-16 16:25:21.865";"2014-10-16 16:41:09.123";"1";"1";"1";"16";"15";"module.training_block1.exec-7377.GoNoGo1";;;;;;;;;;;;;;;;;;;;;;;"1250";"2014-10-16 16:29:16.233";"NST_correctLoc";"12";"1";"FINISHED";"RIGHT";"success";"735";"0";"2014-10-16 16:29:14.982";"2";;;;;;;;;;;;;;;;;;;;;;;;;;;;;;;;;;;;;;;;;;;;;;;;;;;;;;;;;
"C14452";"1996";;"Mac OS X";"Rachel's Experiment (D.T.)";"1.0";"2";"1";"1";"2";"1";"1";"2014-10-16 16:25:21.865";"2014-10-16 16:41:09.123";"1";"1";"1";"17";"16";"module.training_block1.exec-7377.GoNoGo1";;;;;;;;;;;;;;;;;;;;;;;"1251";"2014-10-16 16:29:18.779";"ST_correctStop";"22";"0";"FINISHED";"NONE";"success";"0";"1";"2014-10-16 16:29:17.528";"3";;;;;;;;;;;;;;;;;;;;;;;;;;;;;;;;;;;;;;;;;;;;;;;;;;;;;;;;;
"C14452";"1996";;"Mac OS X";"Rachel's Experiment (D.T.)";"1.0";"2";"1";"1";"2";"1";"1";"2014-10-16 16:25:21.865";"2014-10-16 16:41:09.123";"1";"1";"1";"18";"17";"module.training_block1.exec-7377.GoNoGo1";;;;;;;;;;;;;;;;;;;;;;;"1251";"2014-10-16 16:29:21.328";"ST_correctStop";"31";"1";"FINISHED";"NONE";"success";"0";"1";"2014-10-16 16:29:20.077";"3";;;;;;;;;;;;;;;;;;;;;;;;;;;;;;;;;;;;;;;;;;;;;;;;;;;;;;;;;
"C14452";"1996";;"Mac OS X";"Rachel's Experiment (D.T.)";"1.0";"2";"1";"1";"2";"1";"1";"2014-10-16 16:25:21.865";"2014-10-16 16:41:09.123";"1";"1";"1";"19";"18";"module.training_block1.exec-7377.GoNoGo1";;;;;;;;;;;;;;;;;;;;;;;"1250";"2014-10-16 16:29:23.873";"ST_correctStop";"7";"1";"FINISHED";"NONE";"success";"0";"1";"2014-10-16 16:29:22.623";"1";;;;;;;;;;;;;;;;;;;;;;;;;;;;;;;;;;;;;;;;;;;;;;;;;;;;;;;;;
"C14452";"1996";;"Mac OS X";"Rachel's Experiment (D.T.)";"1.0";"2";"1";"1";"2";"1";"1";"2014-10-16 16:25:21.865";"2014-10-16 16:41:09.123";"1";"1";"1";"20";"19";"module.training_block1.exec-7377.GoNoGo1";;;;;;;;;;;;;;;;;;;;;;;"1251";"2014-10-16 16:29:26.413";"NST_correctLoc";"21";"0";"FINISHED";"LEFT";"success";"591";"0";"2014-10-16 16:29:25.162";"3";;;;;;;;;;;;;;;;;;;;;;;;;;;;;;;;;;;;;;;;;;;;;;;;;;;;;;;;;
"C14452";"1996";;"Mac OS X";"Rachel's Experiment (D.T.)";"1.0";"2";"1";"1";"2";"1";"1";"2014-10-16 16:25:21.865";"2014-10-16 16:41:09.123";"1";"1";"1";"21";"20";"module.training_block1.exec-7377.GoNoGo1";;;;;;;;;;;;;;;;;;;;;;;"1251";"2014-10-16 16:29:28.955";"ST_correctStop";"25";"0";"FINISHED";"NONE";"success";"0";"1";"2014-10-16 16:29:27.703";"3";;;;;;;;;;;;;;;;;;;;;;;;;;;;;;;;;;;;;;;;;;;;;;;;;;;;;;;;;
"C14452";"1996";;"Mac OS X";"Rachel's Experiment (D.T.)";"1.0";"2";"1";"1";"2";"1";"1";"2014-10-16 16:25:21.865";"2014-10-16 16:41:09.123";"1";"1";"1";"22";"21";"module.training_block1.exec-7377.GoNoGo1";;;;;;;;;;;;;;;;;;;;;;;"1251";"2014-10-16 16:29:31.497";"NST_correctLoc";"23";"0";"FINISHED";"LEFT";"success";"668";"0";"2014-10-16 16:29:30.245";"3";;;;;;;;;;;;;;;;;;;;;;;;;;;;;;;;;;;;;;;;;;;;;;;;;;;;;;;;;
"C14452";"1996";;"Mac OS X";"Rachel's Experiment (D.T.)";"1.0";"2";"1";"1";"2";"1";"1";"2014-10-16 16:25:21.865";"2014-10-16 16:41:09.123";"1";"1";"1";"23";"22";"module.training_block1.exec-7377.GoNoGo1";;;;;;;;;;;;;;;;;;;;;;;"1251";"2014-10-16 16:29:34.185";"NST_correctLoc";"14";"0";"FINISHED";"LEFT";"success";"476";"0";"2014-10-16 16:29:32.933";"2";;;;;;;;;;;;;;;;;;;;;;;;;;;;;;;;;;;;;;;;;;;;;;;;;;;;;;;;;
"C14452";"1996";;"Mac OS X";"Rachel's Experiment (D.T.)";"1.0";"2";"1";"1";"2";"1";"1";"2014-10-16 16:25:21.865";"2014-10-16 16:41:09.123";"1";"1";"1";"24";"23";"module.training_block1.exec-7377.GoNoGo1";;;;;;;;;;;;;;;;;;;;;;;"1250";"2014-10-16 16:29:36.736";"ST_correctStop";"5";"1";"FINISHED";"NONE";"success";"0";"1";"2014-10-16 16:29:35.485";"1";;;;;;;;;;;;;;;;;;;;;;;;;;;;;;;;;;;;;;;;;;;;;;;;;;;;;;;;;
"C14452";"1996";;"Mac OS X";"Rachel's Experiment (D.T.)";"1.0";"2";"1";"1";"2";"1";"1";"2014-10-16 16:25:21.865";"2014-10-16 16:41:09.123";"1";"1";"1";"25";"24";"module.training_block1.exec-7377.GoNoGo1";;;;;;;;;;;;;;;;;;;;;;;"1251";"2014-10-16 16:29:39.286";"NST_correctLoc";"11";"1";"FINISHED";"RIGHT";"success";"666";"0";"2014-10-16 16:29:38.034";"2";;;;;;;;;;;;;;;;;;;;;;;;;;;;;;;;;;;;;;;;;;;;;;;;;;;;;;;;;
"C14452";"1996";;"Mac OS X";"Rachel's Experiment (D.T.)";"1.0";"2";"1";"1";"2";"1";"1";"2014-10-16 16:25:21.865";"2014-10-16 16:41:09.123";"1";"1";"1";"26";"25";"module.training_block1.exec-7377.GoNoGo1";;;;;;;;;;;;;;;;;;;;;;;"1250";"2014-10-16 16:29:41.837";"ST_correctStop";"8";"0";"FINISHED";"NONE";"success";"0";"1";"2014-10-16 16:29:40.586";"1";;;;;;;;;;;;;;;;;;;;;;;;;;;;;;;;;;;;;;;;;;;;;;;;;;;;;;;;;
"C14452";"1996";;"Mac OS X";"Rachel's Experiment (D.T.)";"1.0";"2";"1";"1";"2";"1";"1";"2014-10-16 16:25:21.865";"2014-10-16 16:41:09.123";"1";"1";"1";"27";"26";"module.training_block1.exec-7377.GoNoGo1";;;;;;;;;;;;;;;;;;;;;;;"1251";"2014-10-16 16:29:44.376";"ST_correctStop";"3";"0";"FINISHED";"NONE";"success";"0";"1";"2014-10-16 16:29:43.125";"1";;;;;;;;;;;;;;;;;;;;;;;;;;;;;;;;;;;;;;;;;;;;;;;;;;;;;;;;;
"C14452";"1996";;"Mac OS X";"Rachel's Experiment (D.T.)";"1.0";"2";"1";"1";"2";"1";"1";"2014-10-16 16:25:21.865";"2014-10-16 16:41:09.123";"1";"1";"1";"28";"27";"module.training_block1.exec-7377.GoNoGo1";;;;;;;;;;;;;;;;;;;;;;;"1251";"2014-10-16 16:29:46.915";"ST_correctStop";"32";"1";"FINISHED";"NONE";"success";"0";"1";"2014-10-16 16:29:45.663";"3";;;;;;;;;;;;;;;;;;;;;;;;;;;;;;;;;;;;;;;;;;;;;;;;;;;;;;;;;
"C14452";"1996";;"Mac OS X";"Rachel's Experiment (D.T.)";"1.0";"2";"1";"1";"2";"1";"1";"2014-10-16 16:25:21.865";"2014-10-16 16:41:09.123";"1";"1";"1";"29";"28";"module.training_block1.exec-7377.GoNoGo1";;;;;;;;;;;;;;;;;;;;;;;"1251";"2014-10-16 16:29:49.456";"ST_correctStop";"6";"1";"FINISHED";"NONE";"success";"0";"1";"2014-10-16 16:29:48.204";"1";;;;;;;;;;;;;;;;;;;;;;;;;;;;;;;;;;;;;;;;;;;;;;;;;;;;;;;;;
"C14452";"1996";;"Mac OS X";"Rachel's Experiment (D.T.)";"1.0";"2";"1";"1";"2";"1";"1";"2014-10-16 16:25:21.865";"2014-10-16 16:41:09.123";"1";"1";"1";"30";"29";"module.training_block1.exec-7377.GoNoGo1";;;;;;;;;;;;;;;;;;;;;;;"1251";"2014-10-16 16:29:51.994";"ST_correctStop";"27";"0";"FINISHED";"NONE";"success";"0";"1";"2014-10-16 16:29:50.743";"3";;;;;;;;;;;;;;;;;;;;;;;;;;;;;;;;;;;;;;;;;;;;;;;;;;;;;;;;;
"C14452";"1996";;"Mac OS X";"Rachel's Experiment (D.T.)";"1.0";"2";"1";"1";"2";"1";"1";"2014-10-16 16:25:21.865";"2014-10-16 16:41:09.123";"1";"1";"1";"31";"30";"module.training_block1.exec-7377.GoNoGo1";;;;;;;;;;;;;;;;;;;;;;;"1251";"2014-10-16 16:29:54.539";"NST_correctLoc";"33";"1";"FINISHED";"RIGHT";"success";"645";"0";"2014-10-16 16:29:53.287";"3";;;;;;;;;;;;;;;;;;;;;;;;;;;;;;;;;;;;;;;;;;;;;;;;;;;;;;;;;
"C14452";"1996";;"Mac OS X";"Rachel's Experiment (D.T.)";"1.0";"2";"1";"1";"2";"1";"1";"2014-10-16 16:25:21.865";"2014-10-16 16:41:09.123";"1";"1";"1";"32";"31";"module.training_block1.exec-7377.GoNoGo1";;;;;;;;;;;;;;;;;;;;;;;"1251";"2014-10-16 16:29:57.075";"NST_correctLoc";"34";"0";"FINISHED";"LEFT";"success";"500";"0";"2014-10-16 16:29:55.824";"3";;;;;;;;;;;;;;;;;;;;;;;;;;;;;;;;;;;;;;;;;;;;;;;;;;;;;;;;;
"C14452";"1996";;"Mac OS X";"Rachel's Experiment (D.T.)";"1.0";"2";"1";"1";"2";"1";"1";"2014-10-16 16:25:21.865";"2014-10-16 16:41:09.123";"1";"1";"1";"33";"32";"module.training_block1.exec-7377.GoNoGo1";;;;;;;;;;;;;;;;;;;;;;;"1251";"2014-10-16 16:29:59.627";"NST_correctLoc";"28";"0";"FINISHED";"LEFT";"success";"412";"0";"2014-10-16 16:29:58.376";"3";;;;;;;;;;;;;;;;;;;;;;;;;;;;;;;;;;;;;;;;;;;;;;;;;;;;;;;;;
"C14452";"1996";;"Mac OS X";"Rachel's Experiment (D.T.)";"1.0";"2";"1";"1";"2";"1";"1";"2014-10-16 16:25:21.865";"2014-10-16 16:41:09.123";"1";"1";"1";"34";"33";"module.training_block1.exec-7377.GoNoGo1";;;;;;;;;;;;;;;;;;;;;;;"1251";"2014-10-16 16:30:02.175";"NST_correctLoc";"16";"0";"FINISHED";"LEFT";"success";"408";"0";"2014-10-16 16:30:00.924";"2";;;;;;;;;;;;;;;;;;;;;;;;;;;;;;;;;;;;;;;;;;;;;;;;;;;;;;;;;
"C14452";"1996";;"Mac OS X";"Rachel's Experiment (D.T.)";"1.0";"2";"1";"1";"2";"1";"1";"2014-10-16 16:25:21.865";"2014-10-16 16:41:09.123";"1";"1";"1";"35";"34";"module.training_block1.exec-7377.GoNoGo1";;;;;;;;;;;;;;;;;;;;;;;"1251";"2014-10-16 16:30:04.717";"NST_correctLoc";"29";"1";"FINISHED";"RIGHT";"success";"434";"0";"2014-10-16 16:30:03.466";"3";;;;;;;;;;;;;;;;;;;;;;;;;;;;;;;;;;;;;;;;;;;;;;;;;;;;;;;;;
"C14452";"1996";;"Mac OS X";"Rachel's Experiment (D.T.)";"1.0";"2";"1";"1";"2";"1";"1";"2014-10-16 16:25:21.865";"2014-10-16 16:41:09.123";"1";"1";"1";"36";"35";"module.training_block1.exec-7377.GoNoGo1";;;;;;;;;;;;;;;;;;;;;;;"1251";"2014-10-16 16:30:07.260";"ST_correctStop";"1";"0";"FINISHED";"NONE";"success";"0";"1";"2014-10-16 16:30:06.009";"1";;;;;;;;;;;;;;;;;;;;;;;;;;;;;;;;;;;;;;;;;;;;;;;;;;;;;;;;;
"C14452";"1996";;"Mac OS X";"Rachel's Experiment (D.T.)";"1.0";"2";"1";"1";"2";"1";"1";"2014-10-16 16:25:21.865";"2014-10-16 16:41:09.123";"1";"1";"1";"37";"36";"module.training_block1.exec-7377.GoNoGo1";;;;;;;;;;;;;;;;;;;;;;;"1251";"2014-10-16 16:30:09.795";"ST_correctStop";"24";"0";"FINISHED";"NONE";"success";"0";"1";"2014-10-16 16:30:08.544";"3";;;;;;;;;;;;;;;;;;;;;;;;;;;;;;;;;;;;;;;;;;;;;;;;;;;;;;;;;
"C14452";"1996";;"Mac OS X";"Rachel's Experiment (D.T.)";"1.0";"2";"1";"1";"2";"1";"1";"2014-10-16 16:25:21.865";"2014-10-16 16:41:09.123";"1";"1";"1";"38";"37";"module.training_block1.exec-7377.GoNoGo1";;;;;;;;;;;;;;;;;;;;;;;"1249";"2014-10-16 16:30:12.323";"NST_correctLoc";"13";"1";"FINISHED";"RIGHT";"success";"608";"0";"2014-10-16 16:30:11.073";"2";;;;;;;;;;;;;;;;;;;;;;;;;;;;;;;;;;;;;;;;;;;;;;;;;;;;;;;;;
"C14452";"1996";;"Mac OS X";"Rachel's Experiment (D.T.)";"1.0";"2";"1";"1";"2";"1";"1";"2014-10-16 16:25:21.865";"2014-10-16 16:41:09.123";"1";"1";"1";"39";"38";"module.training_block1.exec-7377.GoNoGo1";;;;;;;;;;;;;;;;;;;;;;;"1251";"2014-10-16 16:30:14.856";"ST_correctStop";"19";"0";"FINISHED";"NONE";"success";"0";"1";"2014-10-16 16:30:13.604";"3";;;;;;;;;;;;;;;;;;;;;;;;;;;;;;;;;;;;;;;;;;;;;;;;;;;;;;;;;
"C14452";"1996";;"Mac OS X";"Rachel's Experiment (D.T.)";"1.0";"2";"1";"1";"2";"1";"1";"2014-10-16 16:25:21.865";"2014-10-16 16:41:09.123";"1";"1";"1";"40";"39";"module.training_block1.exec-7377.GoNoGo1";;;;;;;;;;;;;;;;;;;;;;;"1251";"2014-10-16 16:30:17.390";"NST_correctLoc";"15";"1";"FINISHED";"RIGHT";"success";"415";"0";"2014-10-16 16:30:16.139";"2";;;;;;;;;;;;;;;;;;;;;;;;;;;;;;;;;;;;;;;;;;;;;;;;;;;;;;;;;
"C14452";"1996";;"Mac OS X";"Rachel's Experiment (D.T.)";"1.0";"2";"1";"1";"2";"1";"1";"2014-10-16 16:25:21.865";"2014-10-16 16:41:09.123";"1";"1";"1";"41";"40";"module.training_block1.exec-7377.GoNoGo1";;;;;;;;;;;;;;;;;;;;;;;"1251";"2014-10-16 16:30:19.933";"ST_correctStop";"4";"0";"FINISHED";"NONE";"success";"0";"1";"2014-10-16 16:30:18.682";"1";;;;;;;;;;;;;;;;;;;;;;;;;;;;;;;;;;;;;;;;;;;;;;;;;;;;;;;;;
"C14452";"1996";;"Mac OS X";"Rachel's Experiment (D.T.)";"1.0";"2";"1";"1";"2";"1";"1";"2014-10-16 16:25:21.865";"2014-10-16 16:41:09.123";"1";"1";"1";"42";"41";"module.training_block1.exec-7377.GoNoGo1";;;;;;;;;;;;;;;;;;;;;;;"1251";"2014-10-16 16:30:22.471";"ST_correctStop";"2";"1";"FINISHED";"NONE";"success";"0";"1";"2014-10-16 16:30:21.220";"1";;;;;;;;;;;;;;;;;;;;;;;;;;;;;;;;;;;;;;;;;;;;;;;;;;;;;;;;;
"C14452";"1996";;"Mac OS X";"Rachel's Experiment (D.T.)";"1.0";"2";"1";"1";"2";"1";"1";"2014-10-16 16:25:21.865";"2014-10-16 16:41:09.123";"1";"1";"1";"43";"42";"module.training_block1.exec-7377.GoNoGo1";;;;;;;;;;;;;;;;;;;;;;;"1251";"2014-10-16 16:30:25.016";"NST_correctLoc";"17";"0";"FINISHED";"LEFT";"success";"592";"0";"2014-10-16 16:30:23.765";"2";;;;;;;;;;;;;;;;;;;;;;;;;;;;;;;;;;;;;;;;;;;;;;;;;;;;;;;;;
"C14452";"1996";;"Mac OS X";"Rachel's Experiment (D.T.)";"1.0";"2";"1";"1";"2";"1";"1";"2014-10-16 16:25:21.865";"2014-10-16 16:41:09.123";"1";"1";"1";"44";"43";"module.training_block1.exec-7377.GoNoGo1";;;;;;;;;;;;;;;;;;;;;;;"1251";"2014-10-16 16:30:27.556";"NST_correctLoc";"35";"0";"FINISHED";"LEFT";"success";"452";"0";"2014-10-16 16:30:26.305";"3";;;;;;;;;;;;;;;;;;;;;;;;;;;;;;;;;;;;;;;;;;;;;;;;;;;;;;;;;
"C14452";"1996";;"Mac OS X";"Rachel's Experiment (D.T.)";"1.0";"2";"1";"1";"2";"1";"1";"2014-10-16 16:25:21.865";"2014-10-16 16:41:09.123";"1";"1";"1";"45";"44";"module.training_block1.exec-7377.GoNoGo1";;;;;;;;;;;;;;;;;;;;;;;"1251";"2014-10-16 16:30:30.094";"ST_correctStop";"18";"0";"FINISHED";"NONE";"success";"0";"1";"2014-10-16 16:30:28.842";"3";;;;;;;;;;;;;;;;;;;;;;;;;;;;;;;;;;;;;;;;;;;;;;;;;;;;;;;;;
"C14452";"1996";;"Mac OS X";"Rachel's Experiment (D.T.)";"1.0";"2";"1";"1";"2";"1";"1";"2014-10-16 16:25:21.865";"2014-10-16 16:41:09.123";"1";"1";"1";"46";"45";"module.training_block1.exec-7377.GoNoGo1";;;;;;;;;;;;;;;;;;;;;;;"1251";"2014-10-16 16:30:32.631";"NST_correctLoc";"9";"1";"FINISHED";"RIGHT";"success";"552";"0";"2014-10-16 16:30:31.380";"2";;;;;;;;;;;;;;;;;;;;;;;;;;;;;;;;;;;;;;;;;;;;;;;;;;;;;;;;;
"C14452";"1996";;"Mac OS X";"Rachel's Experiment (D.T.)";"1.0";"2";"1";"1";"2";"1";"1";"2014-10-16 16:25:21.865";"2014-10-16 16:41:09.123";"1";"1";"1";"47";"46";"module.training_block1.exec-7377.GoNoGo1";;;;;;;;;;;;;;;;;;;;;;;"1251";"2014-10-16 16:30:35.167";"NST_correctLoc";"20";"0";"FINISHED";"LEFT";"success";"512";"0";"2014-10-16 16:30:33.915";"3";;;;;;;;;;;;;;;;;;;;;;;;;;;;;;;;;;;;;;;;;;;;;;;;;;;;;;;;;
"C14452";"1996";;"Mac OS X";"Rachel's Experiment (D.T.)";"1.0";"2";"1";"1";"2";"1";"1";"2014-10-16 16:25:21.865";"2014-10-16 16:41:09.123";"1";"1";"1";"48";"47";"module.training_block1.exec-7377.GoNoGo1";;;;;;;;;;;;;;;;;;;;;;;"1251";"2014-10-16 16:30:37.708";"ST_correctStop";"0";"1";"FINISHED";"NONE";"success";"0";"1";"2014-10-16 16:30:36.457";"1";;;;;;;;;;;;;;;;;;;;;;;;;;;;;;;;;;;;;;;;;;;;;;;;;;;;;;;;;
"C14452";"1996";;"Mac OS X";"Rachel's Experiment (D.T.)";"1.0";"2";"1";"1";"2";"1";"1";"2014-10-16 16:25:21.865";"2014-10-16 16:41:09.123";"1";"1";"1";"49";"48";"module.training_block1.exec-7377.GoNoGo1";;;;;;;;;;;;;;;;;;;;;;;"1251";"2014-10-16 16:30:40.250";"NST_correctLoc";"10";"1";"FINISHED";"RIGHT";"success";"606";"0";"2014-10-16 16:30:38.999";"2";;;;;;;;;;;;;;;;;;;;;;;;;;;;;;;;;;;;;;;;;;;;;;;;;;;;;;;;;
"C14452";"1996";;"Mac OS X";"Rachel's Experiment (D.T.)";"1.0";"2";"1";"1";"2";"1";"1";"2014-10-16 16:25:21.865";"2014-10-16 16:41:09.123";"1";"1";"1";"50";"49";"module.training_block1.exec-7377.GoNoGo1";;;;;;;;;;;;;;;;;;;;;;;"1251";"2014-10-16 16:30:42.780";"ST_correctStop";"30";"0";"FINISHED";"NONE";"success";"0";"1";"2014-10-16 16:30:41.528";"3";;;;;;;;;;;;;;;;;;;;;;;;;;;;;;;;;;;;;;;;;;;;;;;;;;;;;;;;;
"C14452";"1996";;"Mac OS X";"Rachel's Experiment (D.T.)";"1.0";"2";"1";"1";"2";"1";"1";"2014-10-16 16:25:21.865";"2014-10-16 16:41:09.123";"1";"1";"1";"51";"50";"module.training_block1.exec-7377.GoNoGo1";;;;;;;;;;;;;;;;;;;;;;;"1250";"2014-10-16 16:30:45.317";"NST_correctLoc";"26";"0";"FINISHED";"LEFT";"success";"614";"0";"2014-10-16 16:30:44.066";"3";;;;;;;;;;;;;;;;;;;;;;;;;;;;;;;;;;;;;;;;;;;;;;;;;;;;;;;;;
"C14452";"1996";;"Mac OS X";"Rachel's Experiment (D.T.)";"1.0";"2";"1";"1";"2";"1";"1";"2014-10-16 16:25:21.865";"2014-10-16 16:41:09.123";"1";"1";"1";"52";"51";"module.training_block2.exec-6890.GoNoGo2";;;;;;;;;;;;;;;;;;;;;;;;;;;;;;;;;;;"1251";"2014-10-16 16:30:56.733";"ST_correctStop";"25";"1";"FINISHED";"NONE";"success";"0";"1";"2014-10-16 16:30:55.482";"3";;;;;;;;;;;;;;;;;;;;;;;;;;;;;;;;;;;;;;;;;;;;;
"C14452";"1996";;"Mac OS X";"Rachel's Experiment (D.T.)";"1.0";"2";"1";"1";"2";"1";"1";"2014-10-16 16:25:21.865";"2014-10-16 16:41:09.123";"1";"1";"1";"53";"52";"module.training_block2.exec-6890.GoNoGo2";;;;;;;;;;;;;;;;;;;;;;;;;;;;;;;;;;;"1250";"2014-10-16 16:30:59.260";"ST_correctStop";"2";"0";"FINISHED";"NONE";"success";"0";"1";"2014-10-16 16:30:58.009";"1";;;;;;;;;;;;;;;;;;;;;;;;;;;;;;;;;;;;;;;;;;;;;
"C14452";"1996";;"Mac OS X";"Rachel's Experiment (D.T.)";"1.0";"2";"1";"1";"2";"1";"1";"2014-10-16 16:25:21.865";"2014-10-16 16:41:09.123";"1";"1";"1";"54";"53";"module.training_block2.exec-6890.GoNoGo2";;;;;;;;;;;;;;;;;;;;;;;;;;;;;;;;;;;"1251";"2014-10-16 16:31:01.789";"ST_correctStop";"0";"1";"FINISHED";"NONE";"success";"0";"1";"2014-10-16 16:31:00.538";"1";;;;;;;;;;;;;;;;;;;;;;;;;;;;;;;;;;;;;;;;;;;;;
"C14452";"1996";;"Mac OS X";"Rachel's Experiment (D.T.)";"1.0";"2";"1";"1";"2";"1";"1";"2014-10-16 16:25:21.865";"2014-10-16 16:41:09.123";"1";"1";"1";"55";"54";"module.training_block2.exec-6890.GoNoGo2";;;;;;;;;;;;;;;;;;;;;;;;;;;;;;;;;;;"1251";"2014-10-16 16:31:04.326";"NST_correctLoc";"9";"0";"FINISHED";"LEFT";"success";"586";"0";"2014-10-16 16:31:03.075";"2";;;;;;;;;;;;;;;;;;;;;;;;;;;;;;;;;;;;;;;;;;;;;
"C14452";"1996";;"Mac OS X";"Rachel's Experiment (D.T.)";"1.0";"2";"1";"1";"2";"1";"1";"2014-10-16 16:25:21.865";"2014-10-16 16:41:09.123";"1";"1";"1";"56";"55";"module.training_block2.exec-6890.GoNoGo2";;;;;;;;;;;;;;;;;;;;;;;;;;;;;;;;;;;"1251";"2014-10-16 16:31:06.861";"ST_correctStop";"31";"0";"FINISHED";"NONE";"success";"0";"1";"2014-10-16 16:31:05.610";"3";;;;;;;;;;;;;;;;;;;;;;;;;;;;;;;;;;;;;;;;;;;;;
"C14452";"1996";;"Mac OS X";"Rachel's Experiment (D.T.)";"1.0";"2";"1";"1";"2";"1";"1";"2014-10-16 16:25:21.865";"2014-10-16 16:41:09.123";"1";"1";"1";"57";"56";"module.training_block2.exec-6890.GoNoGo2";;;;;;;;;;;;;;;;;;;;;;;;;;;;;;;;;;;"1250";"2014-10-16 16:31:09.395";"NST_correctLoc";"30";"1";"FINISHED";"RIGHT";"success";"496";"0";"2014-10-16 16:31:08.144";"3";;;;;;;;;;;;;;;;;;;;;;;;;;;;;;;;;;;;;;;;;;;;;
"C14452";"1996";;"Mac OS X";"Rachel's Experiment (D.T.)";"1.0";"2";"1";"1";"2";"1";"1";"2014-10-16 16:25:21.865";"2014-10-16 16:41:09.123";"1";"1";"1";"58";"57";"module.training_block2.exec-6890.GoNoGo2";;;;;;;;;;;;;;;;;;;;;;;;;;;;;;;;;;;"1251";"2014-10-16 16:31:11.929";"NST_correctLoc";"13";"0";"FINISHED";"LEFT";"success";"394";"0";"2014-10-16 16:31:10.678";"2";;;;;;;;;;;;;;;;;;;;;;;;;;;;;;;;;;;;;;;;;;;;;
"C14452";"1996";;"Mac OS X";"Rachel's Experiment (D.T.)";"1.0";"2";"1";"1";"2";"1";"1";"2014-10-16 16:25:21.865";"2014-10-16 16:41:09.123";"1";"1";"1";"59";"58";"module.training_block2.exec-6890.GoNoGo2";;;;;;;;;;;;;;;;;;;;;;;;;;;;;;;;;;;"1251";"2014-10-16 16:31:14.463";"ST_correctStop";"35";"0";"FINISHED";"NONE";"success";"0";"1";"2014-10-16 16:31:13.212";"3";;;;;;;;;;;;;;;;;;;;;;;;;;;;;;;;;;;;;;;;;;;;;
"C14452";"1996";;"Mac OS X";"Rachel's Experiment (D.T.)";"1.0";"2";"1";"1";"2";"1";"1";"2014-10-16 16:25:21.865";"2014-10-16 16:41:09.123";"1";"1";"1";"60";"59";"module.training_block2.exec-6890.GoNoGo2";;;;;;;;;;;;;;;;;;;;;;;;;;;;;;;;;;;"1251";"2014-10-16 16:31:16.999";"ST_correctStop";"1";"1";"FINISHED";"NONE";"success";"0";"1";"2014-10-16 16:31:15.748";"1";;;;;;;;;;;;;;;;;;;;;;;;;;;;;;;;;;;;;;;;;;;;;
"C14452";"1996";;"Mac OS X";"Rachel's Experiment (D.T.)";"1.0";"2";"1";"1";"2";"1";"1";"2014-10-16 16:25:21.865";"2014-10-16 16:41:09.123";"1";"1";"1";"61";"60";"module.training_block2.exec-6890.GoNoGo2";;;;;;;;;;;;;;;;;;;;;;;;;;;;;;;;;;;"1250";"2014-10-16 16:31:19.535";"NST_correctLoc";"10";"0";"FINISHED";"LEFT";"success";"527";"0";"2014-10-16 16:31:18.285";"2";;;;;;;;;;;;;;;;;;;;;;;;;;;;;;;;;;;;;;;;;;;;;
"C14452";"1996";;"Mac OS X";"Rachel's Experiment (D.T.)";"1.0";"2";"1";"1";"2";"1";"1";"2014-10-16 16:25:21.865";"2014-10-16 16:41:09.123";"1";"1";"1";"62";"61";"module.training_block2.exec-6890.GoNoGo2";;;;;;;;;;;;;;;;;;;;;;;;;;;;;;;;;;;"1251";"2014-10-16 16:31:22.069";"NST_correctLoc";"28";"1";"FINISHED";"RIGHT";"success";"442";"0";"2014-10-16 16:31:20.818";"3";;;;;;;;;;;;;;;;;;;;;;;;;;;;;;;;;;;;;;;;;;;;;
"C14452";"1996";;"Mac OS X";"Rachel's Experiment (D.T.)";"1.0";"2";"1";"1";"2";"1";"1";"2014-10-16 16:25:21.865";"2014-10-16 16:41:09.123";"1";"1";"1";"63";"62";"module.training_block2.exec-6890.GoNoGo2";;;;;;;;;;;;;;;;;;;;;;;;;;;;;;;;;;;"1251";"2014-10-16 16:31:24.604";"ST_correctStop";"29";"0";"FINISHED";"NONE";"success";"0";"1";"2014-10-16 16:31:23.352";"3";;;;;;;;;;;;;;;;;;;;;;;;;;;;;;;;;;;;;;;;;;;;;
"C14452";"1996";;"Mac OS X";"Rachel's Experiment (D.T.)";"1.0";"2";"1";"1";"2";"1";"1";"2014-10-16 16:25:21.865";"2014-10-16 16:41:09.123";"1";"1";"1";"64";"63";"module.training_block2.exec-6890.GoNoGo2";;;;;;;;;;;;;;;;;;;;;;;;;;;;;;;;;;;"1250";"2014-10-16 16:31:27.136";"NST_correctLoc";"11";"0";"FINISHED";"LEFT";"success";"511";"0";"2014-10-16 16:31:25.886";"2";;;;;;;;;;;;;;;;;;;;;;;;;;;;;;;;;;;;;;;;;;;;;
"C14452";"1996";;"Mac OS X";"Rachel's Experiment (D.T.)";"1.0";"2";"1";"1";"2";"1";"1";"2014-10-16 16:25:21.865";"2014-10-16 16:41:09.123";"1";"1";"1";"65";"64";"module.training_block2.exec-6890.GoNoGo2";;;;;;;;;;;;;;;;;;;;;;;;;;;;;;;;;;;"1251";"2014-10-16 16:31:29.664";"NST_correctLoc";"22";"0";"FINISHED";"LEFT";"success";"472";"0";"2014-10-16 16:31:28.413";"3";;;;;;;;;;;;;;;;;;;;;;;;;;;;;;;;;;;;;;;;;;;;;
"C14452";"1996";;"Mac OS X";"Rachel's Experiment (D.T.)";"1.0";"2";"1";"1";"2";"1";"1";"2014-10-16 16:25:21.865";"2014-10-16 16:41:09.123";"1";"1";"1";"66";"65";"module.training_block2.exec-6890.GoNoGo2";;;;;;;;;;;;;;;;;;;;;;;;;;;;;;;;;;;"1251";"2014-10-16 16:31:32.192";"ST_correctStop";"7";"1";"FINISHED";"NONE";"success";"0";"1";"2014-10-16 16:31:30.941";"1";;;;;;;;;;;;;;;;;;;;;;;;;;;;;;;;;;;;;;;;;;;;;
"C14452";"1996";;"Mac OS X";"Rachel's Experiment (D.T.)";"1.0";"2";"1";"1";"2";"1";"1";"2014-10-16 16:25:21.865";"2014-10-16 16:41:09.123";"1";"1";"1";"67";"66";"module.training_block2.exec-6890.GoNoGo2";;;;;;;;;;;;;;;;;;;;;;;;;;;;;;;;;;;"1250";"2014-10-16 16:31:34.724";"ST_correctStop";"4";"1";"FINISHED";"NONE";"success";"0";"1";"2014-10-16 16:31:33.474";"1";;;;;;;;;;;;;;;;;;;;;;;;;;;;;;;;;;;;;;;;;;;;;
"C14452";"1996";;"Mac OS X";"Rachel's Experiment (D.T.)";"1.0";"2";"1";"1";"2";"1";"1";"2014-10-16 16:25:21.865";"2014-10-16 16:41:09.123";"1";"1";"1";"68";"67";"module.training_block2.exec-6890.GoNoGo2";;;;;;;;;;;;;;;;;;;;;;;;;;;;;;;;;;;"1251";"2014-10-16 16:31:37.258";"NST_correctLoc";"12";"0";"FINISHED";"LEFT";"success";"581";"0";"2014-10-16 16:31:36.007";"2";;;;;;;;;;;;;;;;;;;;;;;;;;;;;;;;;;;;;;;;;;;;;
"C14452";"1996";;"Mac OS X";"Rachel's Experiment (D.T.)";"1.0";"2";"1";"1";"2";"1";"1";"2014-10-16 16:25:21.865";"2014-10-16 16:41:09.123";"1";"1";"1";"69";"68";"module.training_block2.exec-6890.GoNoGo2";;;;;;;;;;;;;;;;;;;;;;;;;;;;;;;;;;;"1251";"2014-10-16 16:31:39.787";"NST_correctLoc";"20";"1";"FINISHED";"RIGHT";"success";"500";"0";"2014-10-16 16:31:38.536";"3";;;;;;;;;;;;;;;;;;;;;;;;;;;;;;;;;;;;;;;;;;;;;
"C14452";"1996";;"Mac OS X";"Rachel's Experiment (D.T.)";"1.0";"2";"1";"1";"2";"1";"1";"2014-10-16 16:25:21.865";"2014-10-16 16:41:09.123";"1";"1";"1";"70";"69";"module.training_block2.exec-6890.GoNoGo2";;;;;;;;;;;;;;;;;;;;;;;;;;;;;;;;;;;"1251";"2014-10-16 16:31:42.313";"ST_correctStop";"18";"1";"FINISHED";"NONE";"success";"0";"1";"2014-10-16 16:31:41.062";"3";;;;;;;;;;;;;;;;;;;;;;;;;;;;;;;;;;;;;;;;;;;;;
"C14452";"1996";;"Mac OS X";"Rachel's Experiment (D.T.)";"1.0";"2";"1";"1";"2";"1";"1";"2014-10-16 16:25:21.865";"2014-10-16 16:41:09.123";"1";"1";"1";"71";"70";"module.training_block2.exec-6890.GoNoGo2";;;;;;;;;;;;;;;;;;;;;;;;;;;;;;;;;;;"1251";"2014-10-16 16:31:44.839";"ST_correctStop";"32";"0";"FINISHED";"NONE";"success";"0";"1";"2014-10-16 16:31:43.588";"3";;;;;;;;;;;;;;;;;;;;;;;;;;;;;;;;;;;;;;;;;;;;;
"C14452";"1996";;"Mac OS X";"Rachel's Experiment (D.T.)";"1.0";"2";"1";"1";"2";"1";"1";"2014-10-16 16:25:21.865";"2014-10-16 16:41:09.123";"1";"1";"1";"72";"71";"module.training_block2.exec-6890.GoNoGo2";;;;;;;;;;;;;;;;;;;;;;;;;;;;;;;;;;;"1251";"2014-10-16 16:31:47.368";"NST_correctLoc";"17";"0";"FINISHED";"LEFT";"success";"538";"0";"2014-10-16 16:31:46.116";"2";;;;;;;;;;;;;;;;;;;;;;;;;;;;;;;;;;;;;;;;;;;;;
"C14452";"1996";;"Mac OS X";"Rachel's Experiment (D.T.)";"1.0";"2";"1";"1";"2";"1";"1";"2014-10-16 16:25:21.865";"2014-10-16 16:41:09.123";"1";"1";"1";"73";"72";"module.training_block2.exec-6890.GoNoGo2";;;;;;;;;;;;;;;;;;;;;;;;;;;;;;;;;;;"1250";"2014-10-16 16:31:49.892";"ST_correctStop";"34";"0";"FINISHED";"NONE";"success";"0";"1";"2014-10-16 16:31:48.642";"3";;;;;;;;;;;;;;;;;;;;;;;;;;;;;;;;;;;;;;;;;;;;;
"C14452";"1996";;"Mac OS X";"Rachel's Experiment (D.T.)";"1.0";"2";"1";"1";"2";"1";"1";"2014-10-16 16:25:21.865";"2014-10-16 16:41:09.123";"1";"1";"1";"74";"73";"module.training_block2.exec-6890.GoNoGo2";;;;;;;;;;;;;;;;;;;;;;;;;;;;;;;;;;;"1251";"2014-10-16 16:31:52.421";"NST_correctLoc";"33";"1";"FINISHED";"RIGHT";"success";"521";"0";"2014-10-16 16:31:51.170";"3";;;;;;;;;;;;;;;;;;;;;;;;;;;;;;;;;;;;;;;;;;;;;
"C14452";"1996";;"Mac OS X";"Rachel's Experiment (D.T.)";"1.0";"2";"1";"1";"2";"1";"1";"2014-10-16 16:25:21.865";"2014-10-16 16:41:09.123";"1";"1";"1";"75";"74";"module.training_block2.exec-6890.GoNoGo2";;;;;;;;;;;;;;;;;;;;;;;;;;;;;;;;;;;"1251";"2014-10-16 16:31:54.950";"ST_correctStop";"8";"1";"FINISHED";"NONE";"success";"0";"1";"2014-10-16 16:31:53.698";"1";;;;;;;;;;;;;;;;;;;;;;;;;;;;;;;;;;;;;;;;;;;;;
"C14452";"1996";;"Mac OS X";"Rachel's Experiment (D.T.)";"1.0";"2";"1";"1";"2";"1";"1";"2014-10-16 16:25:21.865";"2014-10-16 16:41:09.123";"1";"1";"1";"76";"75";"module.training_block2.exec-6890.GoNoGo2";;;;;;;;;;;;;;;;;;;;;;;;;;;;;;;;;;;"1250";"2014-10-16 16:31:57.485";"NST_correctLoc";"16";"0";"FINISHED";"LEFT";"success";"541";"0";"2014-10-16 16:31:56.234";"2";;;;;;;;;;;;;;;;;;;;;;;;;;;;;;;;;;;;;;;;;;;;;
"C14452";"1996";;"Mac OS X";"Rachel's Experiment (D.T.)";"1.0";"2";"1";"1";"2";"1";"1";"2014-10-16 16:25:21.865";"2014-10-16 16:41:09.123";"1";"1";"1";"77";"76";"module.training_block2.exec-6890.GoNoGo2";;;;;;;;;;;;;;;;;;;;;;;;;;;;;;;;;;;"1250";"2014-10-16 16:32:00.017";"ST_correctStop";"5";"0";"FINISHED";"NONE";"success";"0";"1";"2014-10-16 16:31:58.767";"1";;;;;;;;;;;;;;;;;;;;;;;;;;;;;;;;;;;;;;;;;;;;;
"C14452";"1996";;"Mac OS X";"Rachel's Experiment (D.T.)";"1.0";"2";"1";"1";"2";"1";"1";"2014-10-16 16:25:21.865";"2014-10-16 16:41:09.123";"1";"1";"1";"78";"77";"module.training_block2.exec-6890.GoNoGo2";;;;;;;;;;;;;;;;;;;;;;;;;;;;;;;;;;;"1251";"2014-10-16 16:32:02.544";"NST_correctLoc";"15";"0";"FINISHED";"LEFT";"success";"776";"0";"2014-10-16 16:32:01.293";"2";;;;;;;;;;;;;;;;;;;;;;;;;;;;;;;;;;;;;;;;;;;;;
"C14452";"1996";;"Mac OS X";"Rachel's Experiment (D.T.)";"1.0";"2";"1";"1";"2";"1";"1";"2014-10-16 16:25:21.865";"2014-10-16 16:41:09.123";"1";"1";"1";"79";"78";"module.training_block2.exec-6890.GoNoGo2";;;;;;;;;;;;;;;;;;;;;;;;;;;;;;;;;;;"1251";"2014-10-16 16:32:05.072";"ST_correctStop";"21";"0";"FINISHED";"NONE";"success";"0";"1";"2014-10-16 16:32:03.820";"3";;;;;;;;;;;;;;;;;;;;;;;;;;;;;;;;;;;;;;;;;;;;;
"C14452";"1996";;"Mac OS X";"Rachel's Experiment (D.T.)";"1.0";"2";"1";"1";"2";"1";"1";"2014-10-16 16:25:21.865";"2014-10-16 16:41:09.123";"1";"1";"1";"80";"79";"module.training_block2.exec-6890.GoNoGo2";;;;;;;;;;;;;;;;;;;;;;;;;;;;;;;;;;;"1250";"2014-10-16 16:32:07.599";"NST_correctLoc";"23";"1";"FINISHED";"RIGHT";"success";"520";"0";"2014-10-16 16:32:06.348";"3";;;;;;;;;;;;;;;;;;;;;;;;;;;;;;;;;;;;;;;;;;;;;
"C14452";"1996";;"Mac OS X";"Rachel's Experiment (D.T.)";"1.0";"2";"1";"1";"2";"1";"1";"2014-10-16 16:25:21.865";"2014-10-16 16:41:09.123";"1";"1";"1";"81";"80";"module.training_block2.exec-6890.GoNoGo2";;;;;;;;;;;;;;;;;;;;;;;;;;;;;;;;;;;"1251";"2014-10-16 16:32:10.127";"ST_correctStop";"3";"0";"FINISHED";"NONE";"success";"0";"1";"2014-10-16 16:32:08.876";"1";;;;;;;;;;;;;;;;;;;;;;;;;;;;;;;;;;;;;;;;;;;;;
"C14452";"1996";;"Mac OS X";"Rachel's Experiment (D.T.)";"1.0";"2";"1";"1";"2";"1";"1";"2014-10-16 16:25:21.865";"2014-10-16 16:41:09.123";"1";"1";"1";"82";"81";"module.training_block2.exec-6890.GoNoGo2";;;;;;;;;;;;;;;;;;;;;;;;;;;;;;;;;;;"1250";"2014-10-16 16:32:12.659";"NST_correctLoc";"19";"0";"FINISHED";"LEFT";"success";"725";"0";"2014-10-16 16:32:11.408";"3";;;;;;;;;;;;;;;;;;;;;;;;;;;;;;;;;;;;;;;;;;;;;
"C14452";"1996";;"Mac OS X";"Rachel's Experiment (D.T.)";"1.0";"2";"1";"1";"2";"1";"1";"2014-10-16 16:25:21.865";"2014-10-16 16:41:09.123";"1";"1";"1";"83";"82";"module.training_block2.exec-6890.GoNoGo2";;;;;;;;;;;;;;;;;;;;;;;;;;;;;;;;;;;"1251";"2014-10-16 16:32:15.185";"NST_correctLoc";"24";"1";"FINISHED";"RIGHT";"success";"440";"0";"2014-10-16 16:32:13.933";"3";;;;;;;;;;;;;;;;;;;;;;;;;;;;;;;;;;;;;;;;;;;;;
"C14452";"1996";;"Mac OS X";"Rachel's Experiment (D.T.)";"1.0";"2";"1";"1";"2";"1";"1";"2014-10-16 16:25:21.865";"2014-10-16 16:41:09.123";"1";"1";"1";"84";"83";"module.training_block2.exec-6890.GoNoGo2";;;;;;;;;;;;;;;;;;;;;;;;;;;;;;;;;;;"1250";"2014-10-16 16:32:17.709";"ST_correctStop";"26";"1";"FINISHED";"NONE";"success";"0";"1";"2014-10-16 16:32:16.458";"3";;;;;;;;;;;;;;;;;;;;;;;;;;;;;;;;;;;;;;;;;;;;;
"C14452";"1996";;"Mac OS X";"Rachel's Experiment (D.T.)";"1.0";"2";"1";"1";"2";"1";"1";"2014-10-16 16:25:21.865";"2014-10-16 16:41:09.123";"1";"1";"1";"85";"84";"module.training_block2.exec-6890.GoNoGo2";;;;;;;;;;;;;;;;;;;;;;;;;;;;;;;;;;;"1251";"2014-10-16 16:32:20.233";"NST_correctLoc";"27";"0";"FINISHED";"LEFT";"success";"440";"0";"2014-10-16 16:32:18.982";"3";;;;;;;;;;;;;;;;;;;;;;;;;;;;;;;;;;;;;;;;;;;;;
"C14452";"1996";;"Mac OS X";"Rachel's Experiment (D.T.)";"1.0";"2";"1";"1";"2";"1";"1";"2014-10-16 16:25:21.865";"2014-10-16 16:41:09.123";"1";"1";"1";"86";"85";"module.training_block2.exec-6890.GoNoGo2";;;;;;;;;;;;;;;;;;;;;;;;;;;;;;;;;;;"1251";"2014-10-16 16:32:22.765";"ST_correctStop";"6";"1";"FINISHED";"NONE";"success";"0";"1";"2014-10-16 16:32:21.514";"1";;;;;;;;;;;;;;;;;;;;;;;;;;;;;;;;;;;;;;;;;;;;;
"C14452";"1996";;"Mac OS X";"Rachel's Experiment (D.T.)";"1.0";"2";"1";"1";"2";"1";"1";"2014-10-16 16:25:21.865";"2014-10-16 16:41:09.123";"1";"1";"1";"87";"86";"module.training_block2.exec-6890.GoNoGo2";;;;;;;;;;;;;;;;;;;;;;;;;;;;;;;;;;;"1251";"2014-10-16 16:32:25.291";"NST_correctLoc";"14";"0";"FINISHED";"LEFT";"success";"430";"0";"2014-10-16 16:32:24.039";"2";;;;;;;;;;;;;;;;;;;;;;;;;;;;;;;;;;;;;;;;;;;;;
"C14452";"1996";;"Mac OS X";"Rachel's Experiment (D.T.)";"1.0";"2";"1";"1";"2";"1";"1";"2014-10-16 16:25:21.865";"2014-10-16 16:41:09.123";"1";"1";"1";"88";"87";"module.training_block3.exec-3068.GoNoGo3";;;;;;;;;;;;;;;;;;;;;;;;;;;;;;;;;;;;;;;;;;;;;;;"1251";"2014-10-16 16:32:36.284";"NST_correctLoc";"11";"0";"FINISHED";"LEFT";"success";"409";"0";"2014-10-16 16:32:35.032";"2";;;;;;;;;;;;;;;;;;;;;;;;;;;;;;;;;
"C14452";"1996";;"Mac OS X";"Rachel's Experiment (D.T.)";"1.0";"2";"1";"1";"2";"1";"1";"2014-10-16 16:25:21.865";"2014-10-16 16:41:09.123";"1";"1";"1";"89";"88";"module.training_block3.exec-3068.GoNoGo3";;;;;;;;;;;;;;;;;;;;;;;;;;;;;;;;;;;;;;;;;;;;;;;"1251";"2014-10-16 16:32:38.822";"ST_failedStop";"29";"1";"FINISHED";"RIGHT";"failure";"446";"1";"2014-10-16 16:32:37.571";"3";;;;;;;;;;;;;;;;;;;;;;;;;;;;;;;;;
"C14452";"1996";;"Mac OS X";"Rachel's Experiment (D.T.)";"1.0";"2";"1";"1";"2";"1";"1";"2014-10-16 16:25:21.865";"2014-10-16 16:41:09.123";"1";"1";"1";"90";"89";"module.training_block3.exec-3068.GoNoGo3";;;;;;;;;;;;;;;;;;;;;;;;;;;;;;;;;;;;;;;;;;;;;;;"1251";"2014-10-16 16:32:41.357";"NST_correctLoc";"19";"1";"FINISHED";"RIGHT";"success";"952";"0";"2014-10-16 16:32:40.106";"3";;;;;;;;;;;;;;;;;;;;;;;;;;;;;;;;;
"C14452";"1996";;"Mac OS X";"Rachel's Experiment (D.T.)";"1.0";"2";"1";"1";"2";"1";"1";"2014-10-16 16:25:21.865";"2014-10-16 16:41:09.123";"1";"1";"1";"91";"90";"module.training_block3.exec-3068.GoNoGo3";;;;;;;;;;;;;;;;;;;;;;;;;;;;;;;;;;;;;;;;;;;;;;;"1251";"2014-10-16 16:32:43.883";"ST_correctStop";"6";"0";"FINISHED";"NONE";"success";"0";"1";"2014-10-16 16:32:42.631";"1";;;;;;;;;;;;;;;;;;;;;;;;;;;;;;;;;
"C14452";"1996";;"Mac OS X";"Rachel's Experiment (D.T.)";"1.0";"2";"1";"1";"2";"1";"1";"2014-10-16 16:25:21.865";"2014-10-16 16:41:09.123";"1";"1";"1";"92";"91";"module.training_block3.exec-3068.GoNoGo3";;;;;;;;;;;;;;;;;;;;;;;;;;;;;;;;;;;;;;;;;;;;;;;"1250";"2014-10-16 16:32:46.410";"NST_correctLoc";"20";"0";"FINISHED";"LEFT";"success";"716";"0";"2014-10-16 16:32:45.160";"3";;;;;;;;;;;;;;;;;;;;;;;;;;;;;;;;;
"C14452";"1996";;"Mac OS X";"Rachel's Experiment (D.T.)";"1.0";"2";"1";"1";"2";"1";"1";"2014-10-16 16:25:21.865";"2014-10-16 16:41:09.123";"1";"1";"1";"93";"92";"module.training_block3.exec-3068.GoNoGo3";;;;;;;;;;;;;;;;;;;;;;;;;;;;;;;;;;;;;;;;;;;;;;;"1251";"2014-10-16 16:32:48.935";"ST_correctStop";"0";"0";"FINISHED";"NONE";"success";"0";"1";"2014-10-16 16:32:47.683";"1";;;;;;;;;;;;;;;;;;;;;;;;;;;;;;;;;
"C14452";"1996";;"Mac OS X";"Rachel's Experiment (D.T.)";"1.0";"2";"1";"1";"2";"1";"1";"2014-10-16 16:25:21.865";"2014-10-16 16:41:09.123";"1";"1";"1";"94";"93";"module.training_block3.exec-3068.GoNoGo3";;;;;;;;;;;;;;;;;;;;;;;;;;;;;;;;;;;;;;;;;;;;;;;"1251";"2014-10-16 16:32:51.458";"NST_correctLoc";"28";"1";"FINISHED";"RIGHT";"success";"612";"0";"2014-10-16 16:32:50.207";"3";;;;;;;;;;;;;;;;;;;;;;;;;;;;;;;;;
"C14452";"1996";;"Mac OS X";"Rachel's Experiment (D.T.)";"1.0";"2";"1";"1";"2";"1";"1";"2014-10-16 16:25:21.865";"2014-10-16 16:41:09.123";"1";"1";"1";"95";"94";"module.training_block3.exec-3068.GoNoGo3";;;;;;;;;;;;;;;;;;;;;;;;;;;;;;;;;;;;;;;;;;;;;;;"1251";"2014-10-16 16:32:53.983";"NST_correctLoc";"27";"0";"FINISHED";"LEFT";"success";"447";"0";"2014-10-16 16:32:52.732";"3";;;;;;;;;;;;;;;;;;;;;;;;;;;;;;;;;
"C14452";"1996";;"Mac OS X";"Rachel's Experiment (D.T.)";"1.0";"2";"1";"1";"2";"1";"1";"2014-10-16 16:25:21.865";"2014-10-16 16:41:09.123";"1";"1";"1";"96";"95";"module.training_block3.exec-3068.GoNoGo3";;;;;;;;;;;;;;;;;;;;;;;;;;;;;;;;;;;;;;;;;;;;;;;"1251";"2014-10-16 16:32:56.512";"ST_correctStop";"31";"0";"FINISHED";"NONE";"success";"0";"1";"2014-10-16 16:32:55.261";"3";;;;;;;;;;;;;;;;;;;;;;;;;;;;;;;;;
"C14452";"1996";;"Mac OS X";"Rachel's Experiment (D.T.)";"1.0";"2";"1";"1";"2";"1";"1";"2014-10-16 16:25:21.865";"2014-10-16 16:41:09.123";"1";"1";"1";"97";"96";"module.training_block3.exec-3068.GoNoGo3";;;;;;;;;;;;;;;;;;;;;;;;;;;;;;;;;;;;;;;;;;;;;;;"1251";"2014-10-16 16:32:59.036";"NST_correctLoc";"26";"0";"FINISHED";"LEFT";"success";"646";"0";"2014-10-16 16:32:57.785";"3";;;;;;;;;;;;;;;;;;;;;;;;;;;;;;;;;
"C14452";"1996";;"Mac OS X";"Rachel's Experiment (D.T.)";"1.0";"2";"1";"1";"2";"1";"1";"2014-10-16 16:25:21.865";"2014-10-16 16:41:09.123";"1";"1";"1";"98";"97";"module.training_block3.exec-3068.GoNoGo3";;;;;;;;;;;;;;;;;;;;;;;;;;;;;;;;;;;;;;;;;;;;;;;"1251";"2014-10-16 16:33:01.560";"ST_correctStop";"18";"1";"FINISHED";"NONE";"success";"0";"1";"2014-10-16 16:33:00.309";"3";;;;;;;;;;;;;;;;;;;;;;;;;;;;;;;;;
"C14452";"1996";;"Mac OS X";"Rachel's Experiment (D.T.)";"1.0";"2";"1";"1";"2";"1";"1";"2014-10-16 16:25:21.865";"2014-10-16 16:41:09.123";"1";"1";"1";"99";"98";"module.training_block3.exec-3068.GoNoGo3";;;;;;;;;;;;;;;;;;;;;;;;;;;;;;;;;;;;;;;;;;;;;;;"1251";"2014-10-16 16:33:04.087";"NST_correctLoc";"35";"1";"FINISHED";"RIGHT";"success";"624";"0";"2014-10-16 16:33:02.836";"3";;;;;;;;;;;;;;;;;;;;;;;;;;;;;;;;;
"C14452";"1996";;"Mac OS X";"Rachel's Experiment (D.T.)";"1.0";"2";"1";"1";"2";"1";"1";"2014-10-16 16:25:21.865";"2014-10-16 16:41:09.123";"1";"1";"1";"100";"99";"module.training_block3.exec-3068.GoNoGo3";;;;;;;;;;;;;;;;;;;;;;;;;;;;;;;;;;;;;;;;;;;;;;;"1251";"2014-10-16 16:33:06.620";"NST_correctLoc";"14";"1";"FINISHED";"RIGHT";"success";"451";"0";"2014-10-16 16:33:05.369";"2";;;;;;;;;;;;;;;;;;;;;;;;;;;;;;;;;
"C14452";"1996";;"Mac OS X";"Rachel's Experiment (D.T.)";"1.0";"2";"1";"1";"2";"1";"1";"2014-10-16 16:25:21.865";"2014-10-16 16:41:09.123";"1";"1";"1";"101";"100";"module.training_block3.exec-3068.GoNoGo3";;;;;;;;;;;;;;;;;;;;;;;;;;;;;;;;;;;;;;;;;;;;;;;"1251";"2014-10-16 16:33:09.153";"ST_correctStop";"34";"0";"FINISHED";"NONE";"success";"0";"1";"2014-10-16 16:33:07.902";"3";;;;;;;;;;;;;;;;;;;;;;;;;;;;;;;;;
"C14452";"1996";;"Mac OS X";"Rachel's Experiment (D.T.)";"1.0";"2";"1";"1";"2";"1";"1";"2014-10-16 16:25:21.865";"2014-10-16 16:41:09.123";"1";"1";"1";"102";"101";"module.training_block3.exec-3068.GoNoGo3";;;;;;;;;;;;;;;;;;;;;;;;;;;;;;;;;;;;;;;;;;;;;;;"1250";"2014-10-16 16:33:11.685";"ST_correctStop";"3";"1";"FINISHED";"NONE";"success";"0";"1";"2014-10-16 16:33:10.435";"1";;;;;;;;;;;;;;;;;;;;;;;;;;;;;;;;;
"C14452";"1996";;"Mac OS X";"Rachel's Experiment (D.T.)";"1.0";"2";"1";"1";"2";"1";"1";"2014-10-16 16:25:21.865";"2014-10-16 16:41:09.123";"1";"1";"1";"103";"102";"module.training_block3.exec-3068.GoNoGo3";;;;;;;;;;;;;;;;;;;;;;;;;;;;;;;;;;;;;;;;;;;;;;;"1251";"2014-10-16 16:33:14.208";"NST_correctLoc";"15";"1";"FINISHED";"RIGHT";"success";"579";"0";"2014-10-16 16:33:12.956";"2";;;;;;;;;;;;;;;;;;;;;;;;;;;;;;;;;
"C14452";"1996";;"Mac OS X";"Rachel's Experiment (D.T.)";"1.0";"2";"1";"1";"2";"1";"1";"2014-10-16 16:25:21.865";"2014-10-16 16:41:09.123";"1";"1";"1";"104";"103";"module.training_block3.exec-3068.GoNoGo3";;;;;;;;;;;;;;;;;;;;;;;;;;;;;;;;;;;;;;;;;;;;;;;"1251";"2014-10-16 16:33:16.732";"ST_correctStop";"33";"1";"FINISHED";"NONE";"success";"0";"1";"2014-10-16 16:33:15.480";"3";;;;;;;;;;;;;;;;;;;;;;;;;;;;;;;;;
"C14452";"1996";;"Mac OS X";"Rachel's Experiment (D.T.)";"1.0";"2";"1";"1";"2";"1";"1";"2014-10-16 16:25:21.865";"2014-10-16 16:41:09.123";"1";"1";"1";"105";"104";"module.training_block3.exec-3068.GoNoGo3";;;;;;;;;;;;;;;;;;;;;;;;;;;;;;;;;;;;;;;;;;;;;;;"1251";"2014-10-16 16:33:19.258";"ST_correctStop";"5";"0";"FINISHED";"NONE";"success";"0";"1";"2014-10-16 16:33:18.007";"1";;;;;;;;;;;;;;;;;;;;;;;;;;;;;;;;;
"C14452";"1996";;"Mac OS X";"Rachel's Experiment (D.T.)";"1.0";"2";"1";"1";"2";"1";"1";"2014-10-16 16:25:21.865";"2014-10-16 16:41:09.123";"1";"1";"1";"106";"105";"module.training_block3.exec-3068.GoNoGo3";;;;;;;;;;;;;;;;;;;;;;;;;;;;;;;;;;;;;;;;;;;;;;;"1251";"2014-10-16 16:33:21.788";"NST_correctLoc";"25";"0";"FINISHED";"LEFT";"success";"620";"0";"2014-10-16 16:33:20.536";"3";;;;;;;;;;;;;;;;;;;;;;;;;;;;;;;;;
"C14452";"1996";;"Mac OS X";"Rachel's Experiment (D.T.)";"1.0";"2";"1";"1";"2";"1";"1";"2014-10-16 16:25:21.865";"2014-10-16 16:41:09.123";"1";"1";"1";"107";"106";"module.training_block3.exec-3068.GoNoGo3";;;;;;;;;;;;;;;;;;;;;;;;;;;;;;;;;;;;;;;;;;;;;;;"1251";"2014-10-16 16:33:24.315";"ST_correctStop";"4";"0";"FINISHED";"NONE";"success";"0";"1";"2014-10-16 16:33:23.063";"1";;;;;;;;;;;;;;;;;;;;;;;;;;;;;;;;;
"C14452";"1996";;"Mac OS X";"Rachel's Experiment (D.T.)";"1.0";"2";"1";"1";"2";"1";"1";"2014-10-16 16:25:21.865";"2014-10-16 16:41:09.123";"1";"1";"1";"108";"107";"module.training_block3.exec-3068.GoNoGo3";;;;;;;;;;;;;;;;;;;;;;;;;;;;;;;;;;;;;;;;;;;;;;;"1251";"2014-10-16 16:33:26.839";"ST_correctStop";"8";"1";"FINISHED";"NONE";"success";"0";"1";"2014-10-16 16:33:25.588";"1";;;;;;;;;;;;;;;;;;;;;;;;;;;;;;;;;
"C14452";"1996";;"Mac OS X";"Rachel's Experiment (D.T.)";"1.0";"2";"1";"1";"2";"1";"1";"2014-10-16 16:25:21.865";"2014-10-16 16:41:09.123";"1";"1";"1";"109";"108";"module.training_block3.exec-3068.GoNoGo3";;;;;;;;;;;;;;;;;;;;;;;;;;;;;;;;;;;;;;;;;;;;;;;"1251";"2014-10-16 16:33:29.366";"NST_correctLoc";"10";"0";"FINISHED";"LEFT";"success";"394";"0";"2014-10-16 16:33:28.115";"2";;;;;;;;;;;;;;;;;;;;;;;;;;;;;;;;;
"C14452";"1996";;"Mac OS X";"Rachel's Experiment (D.T.)";"1.0";"2";"1";"1";"2";"1";"1";"2014-10-16 16:25:21.865";"2014-10-16 16:41:09.123";"1";"1";"1";"110";"109";"module.training_block3.exec-3068.GoNoGo3";;;;;;;;;;;;;;;;;;;;;;;;;;;;;;;;;;;;;;;;;;;;;;;"1251";"2014-10-16 16:33:31.893";"NST_correctLoc";"12";"0";"FINISHED";"LEFT";"success";"507";"0";"2014-10-16 16:33:30.642";"2";;;;;;;;;;;;;;;;;;;;;;;;;;;;;;;;;
"C14452";"1996";;"Mac OS X";"Rachel's Experiment (D.T.)";"1.0";"2";"1";"1";"2";"1";"1";"2014-10-16 16:25:21.865";"2014-10-16 16:41:09.123";"1";"1";"1";"111";"110";"module.training_block3.exec-3068.GoNoGo3";;;;;;;;;;;;;;;;;;;;;;;;;;;;;;;;;;;;;;;;;;;;;;;"1250";"2014-10-16 16:33:34.430";"NST_correctLoc";"16";"1";"FINISHED";"RIGHT";"success";"865";"0";"2014-10-16 16:33:33.179";"2";;;;;;;;;;;;;;;;;;;;;;;;;;;;;;;;;
"C14452";"1996";;"Mac OS X";"Rachel's Experiment (D.T.)";"1.0";"2";"1";"1";"2";"1";"1";"2014-10-16 16:25:21.865";"2014-10-16 16:41:09.123";"1";"1";"1";"112";"111";"module.training_block3.exec-3068.GoNoGo3";;;;;;;;;;;;;;;;;;;;;;;;;;;;;;;;;;;;;;;;;;;;;;;"1251";"2014-10-16 16:33:36.952";"ST_correctStop";"1";"1";"FINISHED";"NONE";"success";"0";"1";"2014-10-16 16:33:35.700";"1";;;;;;;;;;;;;;;;;;;;;;;;;;;;;;;;;
"C14452";"1996";;"Mac OS X";"Rachel's Experiment (D.T.)";"1.0";"2";"1";"1";"2";"1";"1";"2014-10-16 16:25:21.865";"2014-10-16 16:41:09.123";"1";"1";"1";"113";"112";"module.training_block3.exec-3068.GoNoGo3";;;;;;;;;;;;;;;;;;;;;;;;;;;;;;;;;;;;;;;;;;;;;;;"1251";"2014-10-16 16:33:39.475";"NST_correctLoc";"17";"1";"FINISHED";"RIGHT";"success";"889";"0";"2014-10-16 16:33:38.223";"2";;;;;;;;;;;;;;;;;;;;;;;;;;;;;;;;;
"C14452";"1996";;"Mac OS X";"Rachel's Experiment (D.T.)";"1.0";"2";"1";"1";"2";"1";"1";"2014-10-16 16:25:21.865";"2014-10-16 16:41:09.123";"1";"1";"1";"114";"113";"module.training_block3.exec-3068.GoNoGo3";;;;;;;;;;;;;;;;;;;;;;;;;;;;;;;;;;;;;;;;;;;;;;;"1251";"2014-10-16 16:33:41.998";"NST_correctLoc";"13";"1";"FINISHED";"RIGHT";"success";"486";"0";"2014-10-16 16:33:40.747";"2";;;;;;;;;;;;;;;;;;;;;;;;;;;;;;;;;
"C14452";"1996";;"Mac OS X";"Rachel's Experiment (D.T.)";"1.0";"2";"1";"1";"2";"1";"1";"2014-10-16 16:25:21.865";"2014-10-16 16:41:09.123";"1";"1";"1";"115";"114";"module.training_block3.exec-3068.GoNoGo3";;;;;;;;;;;;;;;;;;;;;;;;;;;;;;;;;;;;;;;;;;;;;;;"1250";"2014-10-16 16:33:44.519";"ST_correctStop";"7";"0";"FINISHED";"NONE";"success";"0";"1";"2014-10-16 16:33:43.269";"1";;;;;;;;;;;;;;;;;;;;;;;;;;;;;;;;;
"C14452";"1996";;"Mac OS X";"Rachel's Experiment (D.T.)";"1.0";"2";"1";"1";"2";"1";"1";"2014-10-16 16:25:21.865";"2014-10-16 16:41:09.123";"1";"1";"1";"116";"115";"module.training_block3.exec-3068.GoNoGo3";;;;;;;;;;;;;;;;;;;;;;;;;;;;;;;;;;;;;;;;;;;;;;;"1251";"2014-10-16 16:33:47.041";"NST_correctLoc";"24";"0";"FINISHED";"LEFT";"success";"539";"0";"2014-10-16 16:33:45.789";"3";;;;;;;;;;;;;;;;;;;;;;;;;;;;;;;;;
"C14452";"1996";;"Mac OS X";"Rachel's Experiment (D.T.)";"1.0";"2";"1";"1";"2";"1";"1";"2014-10-16 16:25:21.865";"2014-10-16 16:41:09.123";"1";"1";"1";"117";"116";"module.training_block3.exec-3068.GoNoGo3";;;;;;;;;;;;;;;;;;;;;;;;;;;;;;;;;;;;;;;;;;;;;;;"1250";"2014-10-16 16:33:49.566";"ST_correctStop";"30";"0";"FINISHED";"NONE";"success";"0";"1";"2014-10-16 16:33:48.315";"3";;;;;;;;;;;;;;;;;;;;;;;;;;;;;;;;;
"C14452";"1996";;"Mac OS X";"Rachel's Experiment (D.T.)";"1.0";"2";"1";"1";"2";"1";"1";"2014-10-16 16:25:21.865";"2014-10-16 16:41:09.123";"1";"1";"1";"118";"117";"module.training_block3.exec-3068.GoNoGo3";;;;;;;;;;;;;;;;;;;;;;;;;;;;;;;;;;;;;;;;;;;;;;;"1251";"2014-10-16 16:33:52.094";"NST_correctLoc";"32";"0";"FINISHED";"LEFT";"success";"521";"0";"2014-10-16 16:33:50.843";"3";;;;;;;;;;;;;;;;;;;;;;;;;;;;;;;;;
"C14452";"1996";;"Mac OS X";"Rachel's Experiment (D.T.)";"1.0";"2";"1";"1";"2";"1";"1";"2014-10-16 16:25:21.865";"2014-10-16 16:41:09.123";"1";"1";"1";"119";"118";"module.training_block3.exec-3068.GoNoGo3";;;;;;;;;;;;;;;;;;;;;;;;;;;;;;;;;;;;;;;;;;;;;;;"1251";"2014-10-16 16:33:54.618";"ST_correctStop";"23";"1";"FINISHED";"NONE";"success";"0";"1";"2014-10-16 16:33:53.366";"3";;;;;;;;;;;;;;;;;;;;;;;;;;;;;;;;;
"C14452";"1996";;"Mac OS X";"Rachel's Experiment (D.T.)";"1.0";"2";"1";"1";"2";"1";"1";"2014-10-16 16:25:21.865";"2014-10-16 16:41:09.123";"1";"1";"1";"120";"119";"module.training_block3.exec-3068.GoNoGo3";;;;;;;;;;;;;;;;;;;;;;;;;;;;;;;;;;;;;;;;;;;;;;;"1251";"2014-10-16 16:33:57.141";"ST_correctStop";"2";"0";"FINISHED";"NONE";"success";"0";"1";"2014-10-16 16:33:55.890";"1";;;;;;;;;;;;;;;;;;;;;;;;;;;;;;;;;
"C14452";"1996";;"Mac OS X";"Rachel's Experiment (D.T.)";"1.0";"2";"1";"1";"2";"1";"1";"2014-10-16 16:25:21.865";"2014-10-16 16:41:09.123";"1";"1";"1";"121";"120";"module.training_block3.exec-3068.GoNoGo3";;;;;;;;;;;;;;;;;;;;;;;;;;;;;;;;;;;;;;;;;;;;;;;"1251";"2014-10-16 16:33:59.663";"NST_correctLoc";"9";"1";"FINISHED";"RIGHT";"success";"524";"0";"2014-10-16 16:33:58.411";"2";;;;;;;;;;;;;;;;;;;;;;;;;;;;;;;;;
"C14452";"1996";;"Mac OS X";"Rachel's Experiment (D.T.)";"1.0";"2";"1";"1";"2";"1";"1";"2014-10-16 16:25:21.865";"2014-10-16 16:41:09.123";"1";"1";"1";"122";"121";"module.training_block3.exec-3068.GoNoGo3";;;;;;;;;;;;;;;;;;;;;;;;;;;;;;;;;;;;;;;;;;;;;;;"1251";"2014-10-16 16:34:02.187";"ST_correctStop";"21";"1";"FINISHED";"NONE";"success";"0";"1";"2014-10-16 16:34:00.935";"3";;;;;;;;;;;;;;;;;;;;;;;;;;;;;;;;;
"C14452";"1996";;"Mac OS X";"Rachel's Experiment (D.T.)";"1.0";"2";"1";"1";"2";"1";"1";"2014-10-16 16:25:21.865";"2014-10-16 16:41:09.123";"1";"1";"1";"123";"122";"module.training_block3.exec-3068.GoNoGo3";;;;;;;;;;;;;;;;;;;;;;;;;;;;;;;;;;;;;;;;;;;;;;;"1250";"2014-10-16 16:34:04.709";"ST_correctStop";"22";"1";"FINISHED";"NONE";"success";"0";"1";"2014-10-16 16:34:03.459";"3";;;;;;;;;;;;;;;;;;;;;;;;;;;;;;;;;
"C14452";"1996";;"Mac OS X";"Rachel's Experiment (D.T.)";"1.0";"2";"1";"1";"2";"1";"1";"2014-10-16 16:25:21.865";"2014-10-16 16:41:09.123";"1";"1";"1";"124";"123";"module.training_block4.exec-1633.GoNoGo4";;;;;;;;;;;;;;;;;;;;;;;;;;;;;;;;;;;;;;;;;;;;;;;;;;;;;;;;;;;"1251";"2014-10-16 16:34:16.167";"ST_correctStop";"32";"1";"FINISHED";"NONE";"success";"0";"1";"2014-10-16 16:34:14.915";"3";;;;;;;;;;;;;;;;;;;;;
"C14452";"1996";;"Mac OS X";"Rachel's Experiment (D.T.)";"1.0";"2";"1";"1";"2";"1";"1";"2014-10-16 16:25:21.865";"2014-10-16 16:41:09.123";"1";"1";"1";"125";"124";"module.training_block4.exec-1633.GoNoGo4";;;;;;;;;;;;;;;;;;;;;;;;;;;;;;;;;;;;;;;;;;;;;;;;;;;;;;;;;;;"1251";"2014-10-16 16:34:18.692";"ST_correctStop";"30";"0";"FINISHED";"NONE";"success";"0";"1";"2014-10-16 16:34:17.440";"3";;;;;;;;;;;;;;;;;;;;;
"C14452";"1996";;"Mac OS X";"Rachel's Experiment (D.T.)";"1.0";"2";"1";"1";"2";"1";"1";"2014-10-16 16:25:21.865";"2014-10-16 16:41:09.123";"1";"1";"1";"126";"125";"module.training_block4.exec-1633.GoNoGo4";;;;;;;;;;;;;;;;;;;;;;;;;;;;;;;;;;;;;;;;;;;;;;;;;;;;;;;;;;;"1250";"2014-10-16 16:34:21.218";"ST_correctStop";"33";"1";"FINISHED";"NONE";"success";"0";"1";"2014-10-16 16:34:19.967";"3";;;;;;;;;;;;;;;;;;;;;
"C14452";"1996";;"Mac OS X";"Rachel's Experiment (D.T.)";"1.0";"2";"1";"1";"2";"1";"1";"2014-10-16 16:25:21.865";"2014-10-16 16:41:09.123";"1";"1";"1";"127";"126";"module.training_block4.exec-1633.GoNoGo4";;;;;;;;;;;;;;;;;;;;;;;;;;;;;;;;;;;;;;;;;;;;;;;;;;;;;;;;;;;"1251";"2014-10-16 16:34:23.740";"NST_correctLoc";"18";"1";"FINISHED";"RIGHT";"success";"548";"0";"2014-10-16 16:34:22.489";"3";;;;;;;;;;;;;;;;;;;;;
"C14452";"1996";;"Mac OS X";"Rachel's Experiment (D.T.)";"1.0";"2";"1";"1";"2";"1";"1";"2014-10-16 16:25:21.865";"2014-10-16 16:41:09.123";"1";"1";"1";"128";"127";"module.training_block4.exec-1633.GoNoGo4";;;;;;;;;;;;;;;;;;;;;;;;;;;;;;;;;;;;;;;;;;;;;;;;;;;;;;;;;;;"1250";"2014-10-16 16:34:26.263";"NST_correctLoc";"31";"1";"FINISHED";"RIGHT";"success";"424";"0";"2014-10-16 16:34:25.012";"3";;;;;;;;;;;;;;;;;;;;;
"C14452";"1996";;"Mac OS X";"Rachel's Experiment (D.T.)";"1.0";"2";"1";"1";"2";"1";"1";"2014-10-16 16:25:21.865";"2014-10-16 16:41:09.123";"1";"1";"1";"129";"128";"module.training_block4.exec-1633.GoNoGo4";;;;;;;;;;;;;;;;;;;;;;;;;;;;;;;;;;;;;;;;;;;;;;;;;;;;;;;;;;;"1251";"2014-10-16 16:34:28.787";"ST_correctStop";"8";"0";"FINISHED";"NONE";"success";"0";"1";"2014-10-16 16:34:27.535";"1";;;;;;;;;;;;;;;;;;;;;
"C14452";"1996";;"Mac OS X";"Rachel's Experiment (D.T.)";"1.0";"2";"1";"1";"2";"1";"1";"2014-10-16 16:25:21.865";"2014-10-16 16:41:09.123";"1";"1";"1";"130";"129";"module.training_block4.exec-1633.GoNoGo4";;;;;;;;;;;;;;;;;;;;;;;;;;;;;;;;;;;;;;;;;;;;;;;;;;;;;;;;;;;"1251";"2014-10-16 16:34:31.314";"NST_correctLoc";"28";"0";"FINISHED";"LEFT";"success";"540";"0";"2014-10-16 16:34:30.062";"3";;;;;;;;;;;;;;;;;;;;;
"C14452";"1996";;"Mac OS X";"Rachel's Experiment (D.T.)";"1.0";"2";"1";"1";"2";"1";"1";"2014-10-16 16:25:21.865";"2014-10-16 16:41:09.123";"1";"1";"1";"131";"130";"module.training_block4.exec-1633.GoNoGo4";;;;;;;;;;;;;;;;;;;;;;;;;;;;;;;;;;;;;;;;;;;;;;;;;;;;;;;;;;;"1250";"2014-10-16 16:34:33.840";"NST_correctLoc";"21";"1";"FINISHED";"RIGHT";"success";"405";"0";"2014-10-16 16:34:32.589";"3";;;;;;;;;;;;;;;;;;;;;
"C14452";"1996";;"Mac OS X";"Rachel's Experiment (D.T.)";"1.0";"2";"1";"1";"2";"1";"1";"2014-10-16 16:25:21.865";"2014-10-16 16:41:09.123";"1";"1";"1";"132";"131";"module.training_block4.exec-1633.GoNoGo4";;;;;;;;;;;;;;;;;;;;;;;;;;;;;;;;;;;;;;;;;;;;;;;;;;;;;;;;;;;"1251";"2014-10-16 16:34:36.362";"NST_correctLoc";"34";"1";"FINISHED";"RIGHT";"success";"436";"0";"2014-10-16 16:34:35.110";"3";;;;;;;;;;;;;;;;;;;;;
"C14452";"1996";;"Mac OS X";"Rachel's Experiment (D.T.)";"1.0";"2";"1";"1";"2";"1";"1";"2014-10-16 16:25:21.865";"2014-10-16 16:41:09.123";"1";"1";"1";"133";"132";"module.training_block4.exec-1633.GoNoGo4";;;;;;;;;;;;;;;;;;;;;;;;;;;;;;;;;;;;;;;;;;;;;;;;;;;;;;;;;;;"1250";"2014-10-16 16:34:38.883";"ST_correctStop";"35";"1";"FINISHED";"NONE";"success";"0";"1";"2014-10-16 16:34:37.632";"3";;;;;;;;;;;;;;;;;;;;;
"C14452";"1996";;"Mac OS X";"Rachel's Experiment (D.T.)";"1.0";"2";"1";"1";"2";"1";"1";"2014-10-16 16:25:21.865";"2014-10-16 16:41:09.123";"1";"1";"1";"134";"133";"module.training_block4.exec-1633.GoNoGo4";;;;;;;;;;;;;;;;;;;;;;;;;;;;;;;;;;;;;;;;;;;;;;;;;;;;;;;;;;;"1250";"2014-10-16 16:34:41.405";"ST_correctStop";"29";"0";"FINISHED";"NONE";"success";"0";"1";"2014-10-16 16:34:40.155";"3";;;;;;;;;;;;;;;;;;;;;
"C14452";"1996";;"Mac OS X";"Rachel's Experiment (D.T.)";"1.0";"2";"1";"1";"2";"1";"1";"2014-10-16 16:25:21.865";"2014-10-16 16:41:09.123";"1";"1";"1";"135";"134";"module.training_block4.exec-1633.GoNoGo4";;;;;;;;;;;;;;;;;;;;;;;;;;;;;;;;;;;;;;;;;;;;;;;;;;;;;;;;;;;"1251";"2014-10-16 16:34:43.930";"NST_correctLoc";"25";"1";"FINISHED";"RIGHT";"success";"683";"0";"2014-10-16 16:34:42.679";"3";;;;;;;;;;;;;;;;;;;;;
"C14452";"1996";;"Mac OS X";"Rachel's Experiment (D.T.)";"1.0";"2";"1";"1";"2";"1";"1";"2014-10-16 16:25:21.865";"2014-10-16 16:41:09.123";"1";"1";"1";"136";"135";"module.training_block4.exec-1633.GoNoGo4";;;;;;;;;;;;;;;;;;;;;;;;;;;;;;;;;;;;;;;;;;;;;;;;;;;;;;;;;;;"1251";"2014-10-16 16:34:46.453";"NST_correctLoc";"9";"1";"FINISHED";"RIGHT";"success";"585";"0";"2014-10-16 16:34:45.201";"2";;;;;;;;;;;;;;;;;;;;;
"C14452";"1996";;"Mac OS X";"Rachel's Experiment (D.T.)";"1.0";"2";"1";"1";"2";"1";"1";"2014-10-16 16:25:21.865";"2014-10-16 16:41:09.123";"1";"1";"1";"137";"136";"module.training_block4.exec-1633.GoNoGo4";;;;;;;;;;;;;;;;;;;;;;;;;;;;;;;;;;;;;;;;;;;;;;;;;;;;;;;;;;;"1251";"2014-10-16 16:34:48.985";"ST_correctStop";"0";"0";"FINISHED";"NONE";"success";"0";"1";"2014-10-16 16:34:47.734";"1";;;;;;;;;;;;;;;;;;;;;
"C14452";"1996";;"Mac OS X";"Rachel's Experiment (D.T.)";"1.0";"2";"1";"1";"2";"1";"1";"2014-10-16 16:25:21.865";"2014-10-16 16:41:09.123";"1";"1";"1";"138";"137";"module.training_block4.exec-1633.GoNoGo4";;;;;;;;;;;;;;;;;;;;;;;;;;;;;;;;;;;;;;;;;;;;;;;;;;;;;;;;;;;"1250";"2014-10-16 16:34:51.511";"ST_correctStop";"1";"1";"FINISHED";"NONE";"success";"0";"1";"2014-10-16 16:34:50.261";"1";;;;;;;;;;;;;;;;;;;;;
"C14452";"1996";;"Mac OS X";"Rachel's Experiment (D.T.)";"1.0";"2";"1";"1";"2";"1";"1";"2014-10-16 16:25:21.865";"2014-10-16 16:41:09.123";"1";"1";"1";"139";"138";"module.training_block4.exec-1633.GoNoGo4";;;;;;;;;;;;;;;;;;;;;;;;;;;;;;;;;;;;;;;;;;;;;;;;;;;;;;;;;;;"1250";"2014-10-16 16:34:54.034";"ST_correctStop";"26";"0";"FINISHED";"NONE";"success";"0";"1";"2014-10-16 16:34:52.784";"3";;;;;;;;;;;;;;;;;;;;;
"C14452";"1996";;"Mac OS X";"Rachel's Experiment (D.T.)";"1.0";"2";"1";"1";"2";"1";"1";"2014-10-16 16:25:21.865";"2014-10-16 16:41:09.123";"1";"1";"1";"140";"139";"module.training_block4.exec-1633.GoNoGo4";;;;;;;;;;;;;;;;;;;;;;;;;;;;;;;;;;;;;;;;;;;;;;;;;;;;;;;;;;;"1251";"2014-10-16 16:34:56.558";"NST_correctLoc";"14";"1";"FINISHED";"RIGHT";"success";"452";"0";"2014-10-16 16:34:55.307";"2";;;;;;;;;;;;;;;;;;;;;
"C14452";"1996";;"Mac OS X";"Rachel's Experiment (D.T.)";"1.0";"2";"1";"1";"2";"1";"1";"2014-10-16 16:25:21.865";"2014-10-16 16:41:09.123";"1";"1";"1";"141";"140";"module.training_block4.exec-1633.GoNoGo4";;;;;;;;;;;;;;;;;;;;;;;;;;;;;;;;;;;;;;;;;;;;;;;;;;;;;;;;;;;"1250";"2014-10-16 16:34:59.079";"ST_correctStop";"2";"1";"FINISHED";"NONE";"success";"0";"1";"2014-10-16 16:34:57.828";"1";;;;;;;;;;;;;;;;;;;;;
"C14452";"1996";;"Mac OS X";"Rachel's Experiment (D.T.)";"1.0";"2";"1";"1";"2";"1";"1";"2014-10-16 16:25:21.865";"2014-10-16 16:41:09.123";"1";"1";"1";"142";"141";"module.training_block4.exec-1633.GoNoGo4";;;;;;;;;;;;;;;;;;;;;;;;;;;;;;;;;;;;;;;;;;;;;;;;;;;;;;;;;;;"1250";"2014-10-16 16:35:01.599";"ST_correctStop";"19";"0";"FINISHED";"NONE";"success";"0";"1";"2014-10-16 16:35:00.348";"3";;;;;;;;;;;;;;;;;;;;;
"C14452";"1996";;"Mac OS X";"Rachel's Experiment (D.T.)";"1.0";"2";"1";"1";"2";"1";"1";"2014-10-16 16:25:21.865";"2014-10-16 16:41:09.123";"1";"1";"1";"143";"142";"module.training_block4.exec-1633.GoNoGo4";;;;;;;;;;;;;;;;;;;;;;;;;;;;;;;;;;;;;;;;;;;;;;;;;;;;;;;;;;;"1251";"2014-10-16 16:35:04.124";"ST_correctStop";"7";"1";"FINISHED";"NONE";"success";"0";"1";"2014-10-16 16:35:02.873";"1";;;;;;;;;;;;;;;;;;;;;
"C14452";"1996";;"Mac OS X";"Rachel's Experiment (D.T.)";"1.0";"2";"1";"1";"2";"1";"1";"2014-10-16 16:25:21.865";"2014-10-16 16:41:09.123";"1";"1";"1";"144";"143";"module.training_block4.exec-1633.GoNoGo4";;;;;;;;;;;;;;;;;;;;;;;;;;;;;;;;;;;;;;;;;;;;;;;;;;;;;;;;;;;"1251";"2014-10-16 16:35:06.666";"NST_correctLoc";"12";"0";"FINISHED";"LEFT";"success";"627";"0";"2014-10-16 16:35:05.415";"2";;;;;;;;;;;;;;;;;;;;;
"C14452";"1996";;"Mac OS X";"Rachel's Experiment (D.T.)";"1.0";"2";"1";"1";"2";"1";"1";"2014-10-16 16:25:21.865";"2014-10-16 16:41:09.123";"1";"1";"1";"145";"144";"module.training_block4.exec-1633.GoNoGo4";;;;;;;;;;;;;;;;;;;;;;;;;;;;;;;;;;;;;;;;;;;;;;;;;;;;;;;;;;;"1251";"2014-10-16 16:35:09.190";"NST_correctLoc";"17";"0";"FINISHED";"LEFT";"success";"534";"0";"2014-10-16 16:35:07.939";"2";;;;;;;;;;;;;;;;;;;;;
"C14452";"1996";;"Mac OS X";"Rachel's Experiment (D.T.)";"1.0";"2";"1";"1";"2";"1";"1";"2014-10-16 16:25:21.865";"2014-10-16 16:41:09.123";"1";"1";"1";"146";"145";"module.training_block4.exec-1633.GoNoGo4";;;;;;;;;;;;;;;;;;;;;;;;;;;;;;;;;;;;;;;;;;;;;;;;;;;;;;;;;;;"1250";"2014-10-16 16:35:11.711";"NST_correctLoc";"16";"1";"FINISHED";"RIGHT";"success";"541";"0";"2014-10-16 16:35:10.460";"2";;;;;;;;;;;;;;;;;;;;;
"C14452";"1996";;"Mac OS X";"Rachel's Experiment (D.T.)";"1.0";"2";"1";"1";"2";"1";"1";"2014-10-16 16:25:21.865";"2014-10-16 16:41:09.123";"1";"1";"1";"147";"146";"module.training_block4.exec-1633.GoNoGo4";;;;;;;;;;;;;;;;;;;;;;;;;;;;;;;;;;;;;;;;;;;;;;;;;;;;;;;;;;;"1251";"2014-10-16 16:35:14.232";"NST_correctLoc";"20";"0";"FINISHED";"LEFT";"success";"436";"0";"2014-10-16 16:35:12.981";"3";;;;;;;;;;;;;;;;;;;;;
"C14452";"1996";;"Mac OS X";"Rachel's Experiment (D.T.)";"1.0";"2";"1";"1";"2";"1";"1";"2014-10-16 16:25:21.865";"2014-10-16 16:41:09.123";"1";"1";"1";"148";"147";"module.training_block4.exec-1633.GoNoGo4";;;;;;;;;;;;;;;;;;;;;;;;;;;;;;;;;;;;;;;;;;;;;;;;;;;;;;;;;;;"1251";"2014-10-16 16:35:16.755";"NST_correctLoc";"27";"0";"FINISHED";"LEFT";"success";"417";"0";"2014-10-16 16:35:15.504";"3";;;;;;;;;;;;;;;;;;;;;
"C14452";"1996";;"Mac OS X";"Rachel's Experiment (D.T.)";"1.0";"2";"1";"1";"2";"1";"1";"2014-10-16 16:25:21.865";"2014-10-16 16:41:09.123";"1";"1";"1";"149";"148";"module.training_block4.exec-1633.GoNoGo4";;;;;;;;;;;;;;;;;;;;;;;;;;;;;;;;;;;;;;;;;;;;;;;;;;;;;;;;;;;"1251";"2014-10-16 16:35:19.278";"NST_correctLoc";"24";"0";"FINISHED";"LEFT";"success";"439";"0";"2014-10-16 16:35:18.027";"3";;;;;;;;;;;;;;;;;;;;;
"C14452";"1996";;"Mac OS X";"Rachel's Experiment (D.T.)";"1.0";"2";"1";"1";"2";"1";"1";"2014-10-16 16:25:21.865";"2014-10-16 16:41:09.123";"1";"1";"1";"150";"149";"module.training_block4.exec-1633.GoNoGo4";;;;;;;;;;;;;;;;;;;;;;;;;;;;;;;;;;;;;;;;;;;;;;;;;;;;;;;;;;;"1251";"2014-10-16 16:35:21.799";"ST_correctStop";"4";"0";"FINISHED";"NONE";"success";"0";"1";"2014-10-16 16:35:20.548";"1";;;;;;;;;;;;;;;;;;;;;
"C14452";"1996";;"Mac OS X";"Rachel's Experiment (D.T.)";"1.0";"2";"1";"1";"2";"1";"1";"2014-10-16 16:25:21.865";"2014-10-16 16:41:09.123";"1";"1";"1";"151";"150";"module.training_block4.exec-1633.GoNoGo4";;;;;;;;;;;;;;;;;;;;;;;;;;;;;;;;;;;;;;;;;;;;;;;;;;;;;;;;;;;"1251";"2014-10-16 16:35:24.322";"NST_correctLoc";"13";"0";"FINISHED";"LEFT";"success";"459";"0";"2014-10-16 16:35:23.071";"2";;;;;;;;;;;;;;;;;;;;;
"C14452";"1996";;"Mac OS X";"Rachel's Experiment (D.T.)";"1.0";"2";"1";"1";"2";"1";"1";"2014-10-16 16:25:21.865";"2014-10-16 16:41:09.123";"1";"1";"1";"152";"151";"module.training_block4.exec-1633.GoNoGo4";;;;;;;;;;;;;;;;;;;;;;;;;;;;;;;;;;;;;;;;;;;;;;;;;;;;;;;;;;;"1251";"2014-10-16 16:35:26.844";"ST_correctStop";"3";"0";"FINISHED";"NONE";"success";"0";"1";"2014-10-16 16:35:25.592";"1";;;;;;;;;;;;;;;;;;;;;
"C14452";"1996";;"Mac OS X";"Rachel's Experiment (D.T.)";"1.0";"2";"1";"1";"2";"1";"1";"2014-10-16 16:25:21.865";"2014-10-16 16:41:09.123";"1";"1";"1";"153";"152";"module.training_block4.exec-1633.GoNoGo4";;;;;;;;;;;;;;;;;;;;;;;;;;;;;;;;;;;;;;;;;;;;;;;;;;;;;;;;;;;"1251";"2014-10-16 16:35:29.367";"NST_correctLoc";"11";"1";"FINISHED";"RIGHT";"success";"494";"0";"2014-10-16 16:35:28.116";"2";;;;;;;;;;;;;;;;;;;;;
"C14452";"1996";;"Mac OS X";"Rachel's Experiment (D.T.)";"1.0";"2";"1";"1";"2";"1";"1";"2014-10-16 16:25:21.865";"2014-10-16 16:41:09.123";"1";"1";"1";"154";"153";"module.training_block4.exec-1633.GoNoGo4";;;;;;;;;;;;;;;;;;;;;;;;;;;;;;;;;;;;;;;;;;;;;;;;;;;;;;;;;;;"1251";"2014-10-16 16:35:31.888";"NST_correctLoc";"15";"0";"FINISHED";"LEFT";"success";"445";"0";"2014-10-16 16:35:30.637";"2";;;;;;;;;;;;;;;;;;;;;
"C14452";"1996";;"Mac OS X";"Rachel's Experiment (D.T.)";"1.0";"2";"1";"1";"2";"1";"1";"2014-10-16 16:25:21.865";"2014-10-16 16:41:09.123";"1";"1";"1";"155";"154";"module.training_block4.exec-1633.GoNoGo4";;;;;;;;;;;;;;;;;;;;;;;;;;;;;;;;;;;;;;;;;;;;;;;;;;;;;;;;;;;"1250";"2014-10-16 16:35:34.409";"ST_correctStop";"23";"1";"FINISHED";"NONE";"success";"0";"1";"2014-10-16 16:35:33.158";"3";;;;;;;;;;;;;;;;;;;;;
"C14452";"1996";;"Mac OS X";"Rachel's Experiment (D.T.)";"1.0";"2";"1";"1";"2";"1";"1";"2014-10-16 16:25:21.865";"2014-10-16 16:41:09.123";"1";"1";"1";"156";"155";"module.training_block4.exec-1633.GoNoGo4";;;;;;;;;;;;;;;;;;;;;;;;;;;;;;;;;;;;;;;;;;;;;;;;;;;;;;;;;;;"1251";"2014-10-16 16:35:36.930";"ST_correctStop";"5";"0";"FINISHED";"NONE";"success";"0";"1";"2014-10-16 16:35:35.678";"1";;;;;;;;;;;;;;;;;;;;;
"C14452";"1996";;"Mac OS X";"Rachel's Experiment (D.T.)";"1.0";"2";"1";"1";"2";"1";"1";"2014-10-16 16:25:21.865";"2014-10-16 16:41:09.123";"1";"1";"1";"157";"156";"module.training_block4.exec-1633.GoNoGo4";;;;;;;;;;;;;;;;;;;;;;;;;;;;;;;;;;;;;;;;;;;;;;;;;;;;;;;;;;;"1251";"2014-10-16 16:35:39.451";"ST_correctStop";"22";"0";"FINISHED";"NONE";"success";"0";"1";"2014-10-16 16:35:38.200";"3";;;;;;;;;;;;;;;;;;;;;
"C14452";"1996";;"Mac OS X";"Rachel's Experiment (D.T.)";"1.0";"2";"1";"1";"2";"1";"1";"2014-10-16 16:25:21.865";"2014-10-16 16:41:09.123";"1";"1";"1";"158";"157";"module.training_block4.exec-1633.GoNoGo4";;;;;;;;;;;;;;;;;;;;;;;;;;;;;;;;;;;;;;;;;;;;;;;;;;;;;;;;;;;"1251";"2014-10-16 16:35:41.973";"NST_correctLoc";"10";"0";"FINISHED";"LEFT";"success";"857";"0";"2014-10-16 16:35:40.722";"2";;;;;;;;;;;;;;;;;;;;;
"C14452";"1996";;"Mac OS X";"Rachel's Experiment (D.T.)";"1.0";"2";"1";"1";"2";"1";"1";"2014-10-16 16:25:21.865";"2014-10-16 16:41:09.123";"1";"1";"1";"159";"158";"module.training_block4.exec-1633.GoNoGo4";;;;;;;;;;;;;;;;;;;;;;;;;;;;;;;;;;;;;;;;;;;;;;;;;;;;;;;;;;;"1251";"2014-10-16 16:35:44.500";"ST_correctStop";"6";"1";"FINISHED";"NONE";"success";"0";"1";"2014-10-16 16:35:43.249";"1";;;;;;;;;;;;;;;;;;;;;
"C14452";"1996";;"Mac OS X";"Rachel's Experiment (D.T.)";"1.0";"2";"1";"1";"2";"1";"1";"2014-10-16 16:25:21.865";"2014-10-16 16:41:09.123";"1";"1";"1";"160";"159";"module.devaluation_practice.exec-3221.devalPractice";;;;;;;;;;;;"23885";"2014-10-16 16:36:53.495";"0";"7";"5";"9";"6913";"1971";"11946";"2014-10-16 16:36:29.610";;;;;;;;;;;;;;;;;;;;;;;;;;;;;;;;;;;;;;;;;;;;;;;;;;;;;;;;;;;;;;;;;;;;;;
"C14452";"1996";;"Mac OS X";"Rachel's Experiment (D.T.)";"1.0";"2";"1";"1";"2";"1";"1";"2014-10-16 16:25:21.865";"2014-10-16 16:41:09.123";"1";"1";"1";"161";"160";"module.devaluation_practice.exec-3221.devalPractice";;;;;;;;;;;;"10624";"2014-10-16 16:37:04.163";"1";"1";"1";"3";"2289";"1783";"3540";"2014-10-16 16:36:53.538";;;;;;;;;;;;;;;;;;;;;;;;;;;;;;;;;;;;;;;;;;;;;;;;;;;;;;;;;;;;;;;;;;;;;;
"C14452";"1996";;"Mac OS X";"Rachel's Experiment (D.T.)";"1.0";"2";"1";"1";"2";"1";"1";"2014-10-16 16:25:21.865";"2014-10-16 16:41:09.123";"1";"1";"1";"162";"161";"module.devaluation_practice.exec-3221.devalPractice";;;;;;;;;;;;"10423";"2014-10-16 16:37:14.618";"2";"1";"1";"5";"1945";"1496";"3971";"2014-10-16 16:37:04.195";;;;;;;;;;;;;;;;;;;;;;;;;;;;;;;;;;;;;;;;;;;;;;;;;;;;;;;;;;;;;;;;;;;;;;
"C14452";"1996";;"Mac OS X";"Rachel's Experiment (D.T.)";"1.0";"2";"1";"1";"2";"1";"1";"2014-10-16 16:25:21.865";"2014-10-16 16:41:09.123";"1";"1";"1";"163";"162";"module.devaluation_practice.exec-3221.devalPractice";;;;;;;;;;;;"8937";"2014-10-16 16:37:23.579";"3";"5";"2";"5";"2826";"2904";"197";"2014-10-16 16:37:14.642";;;;;;;;;;;;;;;;;;;;;;;;;;;;;;;;;;;;;;;;;;;;;;;;;;;;;;;;;;;;;;;;;;;;;;
"C14452";"1996";;"Mac OS X";"Rachel's Experiment (D.T.)";"1.0";"2";"1";"1";"2";"1";"1";"2014-10-16 16:25:21.865";"2014-10-16 16:41:09.123";"1";"1";"1";"164";"163";"module.devaluation_block1.exec-2451.deval1";"11779";"2014-10-16 16:37:39.027";"5";"9";"9";"9";"2942";"3064";"2753";"2014-10-16 16:37:27.247";"1";;;;;;;;;;;;;;;;;;;;;;;;;;;;;;;;;;;;;;;;;;;;;;;;;;;;;;;;;;;;;;;;;;;;;;;;;;;;;;;;
"C14452";"1996";;"Mac OS X";"Rachel's Experiment (D.T.)";"1.0";"2";"1";"1";"2";"1";"1";"2014-10-16 16:25:21.865";"2014-10-16 16:41:09.123";"1";"1";"1";"165";"164";"module.devaluation_block1.exec-2451.deval1";"9480";"2014-10-16 16:37:48.537";"13";"5";"3";"6";"1941";"1848";"2679";"2014-10-16 16:37:39.056";"2";;;;;;;;;;;;;;;;;;;;;;;;;;;;;;;;;;;;;;;;;;;;;;;;;;;;;;;;;;;;;;;;;;;;;;;;;;;;;;;;
"C14452";"1996";;"Mac OS X";"Rachel's Experiment (D.T.)";"1.0";"2";"1";"1";"2";"1";"1";"2014-10-16 16:25:21.865";"2014-10-16 16:41:09.123";"1";"1";"1";"166";"165";"module.devaluation_block1.exec-2451.deval1";"8612";"2014-10-16 16:37:57.177";"4";"9";"9";"9";"1592";"1688";"2320";"2014-10-16 16:37:48.565";"1";;;;;;;;;;;;;;;;;;;;;;;;;;;;;;;;;;;;;;;;;;;;;;;;;;;;;;;;;;;;;;;;;;;;;;;;;;;;;;;;
"C14452";"1996";;"Mac OS X";"Rachel's Experiment (D.T.)";"1.0";"2";"1";"1";"2";"1";"1";"2014-10-16 16:25:21.865";"2014-10-16 16:41:09.123";"1";"1";"1";"167";"166";"module.devaluation_block1.exec-2451.deval1";"6853";"2014-10-16 16:38:04.057";"26";"9";"9";"9";"1233";"1456";"1152";"2014-10-16 16:37:57.204";"3";;;;;;;;;;;;;;;;;;;;;;;;;;;;;;;;;;;;;;;;;;;;;;;;;;;;;;;;;;;;;;;;;;;;;;;;;;;;;;;;
"C14452";"1996";;"Mac OS X";"Rachel's Experiment (D.T.)";"1.0";"2";"1";"1";"2";"1";"1";"2014-10-16 16:25:21.865";"2014-10-16 16:41:09.123";"1";"1";"1";"168";"167";"module.devaluation_block1.exec-2451.deval1";"9179";"2014-10-16 16:38:13.265";"7";"5";"5";"5";"2495";"1752";"1920";"2014-10-16 16:38:04.086";"1";;;;;;;;;;;;;;;;;;;;;;;;;;;;;;;;;;;;;;;;;;;;;;;;;;;;;;;;;;;;;;;;;;;;;;;;;;;;;;;;
"C14452";"1996";;"Mac OS X";"Rachel's Experiment (D.T.)";"1.0";"2";"1";"1";"2";"1";"1";"2014-10-16 16:25:21.865";"2014-10-16 16:41:09.123";"1";"1";"1";"169";"168";"module.devaluation_block1.exec-2451.deval1";"10430";"2014-10-16 16:38:23.729";"2";"6";"5";"8";"1827";"1664";"3929";"2014-10-16 16:38:13.299";"1";;;;;;;;;;;;;;;;;;;;;;;;;;;;;;;;;;;;;;;;;;;;;;;;;;;;;;;;;;;;;;;;;;;;;;;;;;;;;;;;
"C14452";"1996";;"Mac OS X";"Rachel's Experiment (D.T.)";"1.0";"2";"1";"1";"2";"1";"1";"2014-10-16 16:25:21.865";"2014-10-16 16:41:09.123";"1";"1";"1";"170";"169";"module.devaluation_block1.exec-2451.deval1";"9962";"2014-10-16 16:38:33.722";"15";"1";"1";"1";"2654";"1624";"2671";"2014-10-16 16:38:23.759";"2";;;;;;;;;;;;;;;;;;;;;;;;;;;;;;;;;;;;;;;;;;;;;;;;;;;;;;;;;;;;;;;;;;;;;;;;;;;;;;;;
"C14452";"1996";;"Mac OS X";"Rachel's Experiment (D.T.)";"1.0";"2";"1";"1";"2";"1";"1";"2014-10-16 16:25:21.865";"2014-10-16 16:41:09.123";"1";"1";"1";"171";"170";"module.devaluation_block1.exec-2451.deval1";"4517";"2014-10-16 16:38:38.266";"6";"5";"5";"5";"771";"320";"416";"2014-10-16 16:38:33.748";"1";;;;;;;;;;;;;;;;;;;;;;;;;;;;;;;;;;;;;;;;;;;;;;;;;;;;;;;;;;;;;;;;;;;;;;;;;;;;;;;;
"C14452";"1996";;"Mac OS X";"Rachel's Experiment (D.T.)";"1.0";"2";"1";"1";"2";"1";"1";"2014-10-16 16:25:21.865";"2014-10-16 16:41:09.123";"1";"1";"1";"172";"171";"module.devaluation_block1.exec-2451.deval1";"3902";"2014-10-16 16:38:42.186";"14";"5";"5";"5";"83";"472";"336";"2014-10-16 16:38:38.283";"2";;;;;;;;;;;;;;;;;;;;;;;;;;;;;;;;;;;;;;;;;;;;;;;;;;;;;;;;;;;;;;;;;;;;;;;;;;;;;;;;
"C14452";"1996";;"Mac OS X";"Rachel's Experiment (D.T.)";"1.0";"2";"1";"1";"2";"1";"1";"2014-10-16 16:25:21.865";"2014-10-16 16:41:09.123";"1";"1";"1";"173";"172";"module.devaluation_block1.exec-2451.deval1";"7707";"2014-10-16 16:38:49.922";"25";"8";"6";"8";"1935";"1433";"1327";"2014-10-16 16:38:42.215";"3";;;;;;;;;;;;;;;;;;;;;;;;;;;;;;;;;;;;;;;;;;;;;;;;;;;;;;;;;;;;;;;;;;;;;;;;;;;;;;;;
"C14452";"1996";;"Mac OS X";"Rachel's Experiment (D.T.)";"1.0";"2";"1";"1";"2";"1";"1";"2014-10-16 16:25:21.865";"2014-10-16 16:41:09.123";"1";"1";"1";"174";"173";"module.devaluation_block1.exec-2451.deval1";"8843";"2014-10-16 16:38:58.794";"0";"7";"4";"7";"919";"3191";"1720";"2014-10-16 16:38:49.950";"1";;;;;;;;;;;;;;;;;;;;;;;;;;;;;;;;;;;;;;;;;;;;;;;;;;;;;;;;;;;;;;;;;;;;;;;;;;;;;;;;
"C14452";"1996";;"Mac OS X";"Rachel's Experiment (D.T.)";"1.0";"2";"1";"1";"2";"1";"1";"2014-10-16 16:25:21.865";"2014-10-16 16:41:09.123";"1";"1";"1";"175";"174";"module.devaluation_block1.exec-2451.deval1";"9285";"2014-10-16 16:39:08.106";"23";"2";"1";"1";"2402";"1951";"1920";"2014-10-16 16:38:58.820";"3";;;;;;;;;;;;;;;;;;;;;;;;;;;;;;;;;;;;;;;;;;;;;;;;;;;;;;;;;;;;;;;;;;;;;;;;;;;;;;;;
"C14452";"1996";;"Mac OS X";"Rachel's Experiment (D.T.)";"1.0";"2";"1";"1";"2";"1";"1";"2014-10-16 16:25:21.865";"2014-10-16 16:41:09.123";"1";"1";"1";"176";"175";"module.devaluation_block1.exec-2451.deval1";"9853";"2014-10-16 16:39:17.978";"24";"2";"1";"2";"3441";"1016";"2384";"2014-10-16 16:39:08.125";"3";;;;;;;;;;;;;;;;;;;;;;;;;;;;;;;;;;;;;;;;;;;;;;;;;;;;;;;;;;;;;;;;;;;;;;;;;;;;;;;;
"C14452";"1996";;"Mac OS X";"Rachel's Experiment (D.T.)";"1.0";"2";"1";"1";"2";"1";"1";"2014-10-16 16:25:21.865";"2014-10-16 16:41:09.123";"1";"1";"1";"177";"176";"module.devaluation_block1.exec-2451.deval1";"13578";"2014-10-16 16:39:31.586";"18";"6";"4";"9";"6486";"1240";"2839";"2014-10-16 16:39:18.008";"3";;;;;;;;;;;;;;;;;;;;;;;;;;;;;;;;;;;;;;;;;;;;;;;;;;;;;;;;;;;;;;;;;;;;;;;;;;;;;;;;
"C14452";"1996";;"Mac OS X";"Rachel's Experiment (D.T.)";"1.0";"2";"1";"1";"2";"1";"1";"2014-10-16 16:25:21.865";"2014-10-16 16:41:09.123";"1";"1";"1";"178";"177";"module.devaluation_block1.exec-2451.deval1";"7893";"2014-10-16 16:39:39.506";"11";"2";"1";"2";"2041";"1209";"1632";"2014-10-16 16:39:31.613";"2";;;;;;;;;;;;;;;;;;;;;;;;;;;;;;;;;;;;;;;;;;;;;;;;;;;;;;;;;;;;;;;;;;;;;;;;;;;;;;;;
"C14452";"1996";;"Mac OS X";"Rachel's Experiment (D.T.)";"1.0";"2";"1";"1";"2";"1";"1";"2014-10-16 16:25:21.865";"2014-10-16 16:41:09.123";"1";"1";"1";"179";"178";"module.devaluation_block1.exec-2451.deval1";"9775";"2014-10-16 16:39:49.315";"10";"6";"1";"2";"2860";"1080";"2824";"2014-10-16 16:39:39.539";"2";;;;;;;;;;;;;;;;;;;;;;;;;;;;;;;;;;;;;;;;;;;;;;;;;;;;;;;;;;;;;;;;;;;;;;;;;;;;;;;;
"C14452";"1996";;"Mac OS X";"Rachel's Experiment (D.T.)";"1.0";"2";"1";"1";"2";"1";"1";"2014-10-16 16:25:21.865";"2014-10-16 16:41:09.123";"1";"1";"1";"180";"179";"module.devaluation_block1.exec-2451.deval1";"9543";"2014-10-16 16:39:58.883";"9";"1";"1";"2";"2380";"1407";"2744";"2014-10-16 16:39:49.339";"2";;;;;;;;;;;;;;;;;;;;;;;;;;;;;;;;;;;;;;;;;;;;;;;;;;;;;;;;;;;;;;;;;;;;;;;;;;;;;;;;
"C14452";"1996";;"Mac OS X";"Rachel's Experiment (D.T.)";"1.0";"2";"1";"1";"2";"1";"1";"2014-10-16 16:25:21.865";"2014-10-16 16:41:09.123";"1";"1";"1";"181";"180";"module.devaluation_block1.exec-2451.deval1";"4299";"2014-10-16 16:40:03.211";"17";"5";"5";"5";"736";"272";"279";"2014-10-16 16:39:58.911";"2";;;;;;;;;;;;;;;;;;;;;;;;;;;;;;;;;;;;;;;;;;;;;;;;;;;;;;;;;;;;;;;;;;;;;;;;;;;;;;;;
"C14452";"1996";;"Mac OS X";"Rachel's Experiment (D.T.)";"1.0";"2";"1";"1";"2";"1";"1";"2014-10-16 16:25:21.865";"2014-10-16 16:41:09.123";"1";"1";"1";"182";"181";"module.devaluation_block1.exec-2451.deval1";"9458";"2014-10-16 16:40:12.691";"20";"3";"1";"2";"4398";"1024";"1024";"2014-10-16 16:40:03.232";"3";;;;;;;;;;;;;;;;;;;;;;;;;;;;;;;;;;;;;;;;;;;;;;;;;;;;;;;;;;;;;;;;;;;;;;;;;;;;;;;;
"C14452";"1996";;"Mac OS X";"Rachel's Experiment (D.T.)";"1.0";"2";"1";"1";"2";"1";"1";"2014-10-16 16:25:21.865";"2014-10-16 16:41:09.123";"1";"1";"1";"183";"182";"module.devaluation_block1.exec-2451.deval1";"6560";"2014-10-16 16:40:19.267";"3";"9";"9";"9";"1421";"1095";"1033";"2014-10-16 16:40:12.706";"1";;;;;;;;;;;;;;;;;;;;;;;;;;;;;;;;;;;;;;;;;;;;;;;;;;;;;;;;;;;;;;;;;;;;;;;;;;;;;;;;
"C14452";"1996";;"Mac OS X";"Rachel's Experiment (D.T.)";"1.0";"2";"1";"1";"2";"1";"1";"2014-10-16 16:25:21.865";"2014-10-16 16:41:09.123";"1";"1";"1";"184";"183";"module.devaluation_block1.exec-2451.deval1";"7977";"2014-10-16 16:40:27.259";"12";"9";"9";"9";"2367";"1192";"1408";"2014-10-16 16:40:19.281";"2";;;;;;;;;;;;;;;;;;;;;;;;;;;;;;;;;;;;;;;;;;;;;;;;;;;;;;;;;;;;;;;;;;;;;;;;;;;;;;;;
"C14452";"1996";;"Mac OS X";"Rachel's Experiment (D.T.)";"1.0";"2";"1";"1";"2";"1";"1";"2014-10-16 16:25:21.865";"2014-10-16 16:41:09.123";"1";"1";"1";"185";"184";"module.devaluation_block1.exec-2451.deval1";"6027";"2014-10-16 16:40:33.315";"22";"9";"9";"9";"1232";"872";"912";"2014-10-16 16:40:27.288";"3";;;;;;;;;;;;;;;;;;;;;;;;;;;;;;;;;;;;;;;;;;;;;;;;;;;;;;;;;;;;;;;;;;;;;;;;;;;;;;;;
"C14452";"1996";;"Mac OS X";"Rachel's Experiment (D.T.)";"1.0";"2";"1";"1";"2";"1";"1";"2014-10-16 16:25:21.865";"2014-10-16 16:41:09.123";"1";"1";"1";"186";"185";"module.devaluation_block1.exec-2451.deval1";"6556";"2014-10-16 16:40:39.891";"19";"9";"9";"9";"1392";"1264";"887";"2014-10-16 16:40:33.335";"3";;;;;;;;;;;;;;;;;;;;;;;;;;;;;;;;;;;;;;;;;;;;;;;;;;;;;;;;;;;;;;;;;;;;;;;;;;;;;;;;
"C14452";"1996";;"Mac OS X";"Rachel's Experiment (D.T.)";"1.0";"2";"1";"1";"2";"1";"1";"2014-10-16 16:25:21.865";"2014-10-16 16:41:09.123";"1";"1";"1";"187";"186";"module.devaluation_block1.exec-2451.deval1";"6441";"2014-10-16 16:40:46.347";"1";"9";"9";"9";"1232";"1064";"1134";"2014-10-16 16:40:39.905";"1";;;;;;;;;;;;;;;;;;;;;;;;;;;;;;;;;;;;;;;;;;;;;;;;;;;;;;;;;;;;;;;;;;;;;;;;;;;;;;;;
"C14452";"1996";;"Mac OS X";"Rachel's Experiment (D.T.)";"1.0";"2";"1";"1";"2";"1";"1";"2014-10-16 16:25:21.865";"2014-10-16 16:41:09.123";"1";"1";"1";"188";"187";"module.devaluation_block1.exec-2451.deval1";"7538";"2014-10-16 16:40:53.908";"8";"4";"1";"4";"1902";"1519";"1104";"2014-10-16 16:40:46.369";"1";;;;;;;;;;;;;;;;;;;;;;;;;;;;;;;;;;;;;;;;;;;;;;;;;;;;;;;;;;;;;;;;;;;;;;;;;;;;;;;;
"C14452";"1996";;"Mac OS X";"Rachel's Experiment (D.T.)";"1.0";"2";"1";"1";"2";"1";"1";"2014-10-16 16:25:21.865";"2014-10-16 16:41:09.123";"1";"1";"1";"189";"188";"module.devaluation_block1.exec-2451.deval1";"6877";"2014-10-16 16:41:00.819";"21";"9";"9";"9";"1714";"1168";"984";"2014-10-16 16:40:53.942";"3";;;;;;;;;;;;;;;;;;;;;;;;;;;;;;;;;;;;;;;;;;;;;;;;;;;;;;;;;;;;;;;;;;;;;;;;;;;;;;;;
"C14452";"1996";;"Mac OS X";"Rachel's Experiment (D.T.)";"1.0";"2";"1";"1";"2";"1";"1";"2014-10-16 16:25:21.865";"2014-10-16 16:41:09.123";"1";"1";"1";"190";"189";"module.devaluation_block1.exec-2451.deval1";"6513";"2014-10-16 16:41:07.348";"16";"1";"1";"1";"1278";"1264";"960";"2014-10-16 16:41:00.833";"2";;;;;;;;;;;;;;;;;;;;;;;;;;;;;;;;;;;;;;;;;;;;;;;;;;;;;;;;;;;;;;;;;;;;;;;;;;;;;;;;
