"user.name";"user.yearOfBirth";"user.sex";"user.osName";"module.name";"module.version";"module.online.subject.code";"module.online.study.id";"module.online.module.nr";"module.online.group.nr";"session.id";"session.index";"session.startTime";"session.endTime";"session.completed";"session.node-3748.conditionType";"session.node-4432.DevalQorder";"trial.id";"trial.index";"trial.name";"trial.deval1.durationTime";"trial.deval1.endTime";"trial.deval1.icon";"trial.deval1.Resp_Attractive";"trial.deval1.Resp_Eat";"trial.deval1.Resp_Taste";"trial.deval1.RT_Attractive";"trial.deval1.RT_Eat";"trial.deval1.RT_Taste";"trial.deval1.startTime";"trial.deval1.stimulus type";"trial.devalPractice.durationTime";"trial.devalPractice.endTime";"trial.devalPractice.icon";"trial.devalPractice.Resp_Attractive";"trial.devalPractice.Resp_Eat";"trial.devalPractice.Resp_Taste";"trial.devalPractice.RT_Attractive";"trial.devalPractice.RT_Eat";"trial.devalPractice.RT_Taste";"trial.devalPractice.startTime";"trial.devalPractice.stimulus type";"trial.GoNoGo1.durationTime";"trial.GoNoGo1.endTime";"trial.GoNoGo1.Error Type";"trial.GoNoGo1.icon";"trial.GoNoGo1.location";"trial.GoNoGo1.outcome";"trial.GoNoGo1.response";"trial.GoNoGo1.result";"trial.GoNoGo1.RT";"trial.GoNoGo1.signal";"trial.GoNoGo1.startTime";"trial.GoNoGo1.stimulus type";"trial.GoNoGo2.durationTime";"trial.GoNoGo2.endTime";"trial.GoNoGo2.Error Type";"trial.GoNoGo2.icon";"trial.GoNoGo2.location";"trial.GoNoGo2.outcome";"trial.GoNoGo2.response";"trial.GoNoGo2.result";"trial.GoNoGo2.RT";"trial.GoNoGo2.signal";"trial.GoNoGo2.startTime";"trial.GoNoGo2.stimulus type";"trial.GoNoGo3.durationTime";"trial.GoNoGo3.endTime";"trial.GoNoGo3.Error Type";"trial.GoNoGo3.icon";"trial.GoNoGo3.location";"trial.GoNoGo3.outcome";"trial.GoNoGo3.response";"trial.GoNoGo3.result";"trial.GoNoGo3.RT";"trial.GoNoGo3.signal";"trial.GoNoGo3.startTime";"trial.GoNoGo3.stimulus type";"trial.GoNoGo4.durationTime";"trial.GoNoGo4.endTime";"trial.GoNoGo4.Error Type";"trial.GoNoGo4.icon";"trial.GoNoGo4.location";"trial.GoNoGo4.outcome";"trial.GoNoGo4.response";"trial.GoNoGo4.result";"trial.GoNoGo4.RT";"trial.GoNoGo4.signal";"trial.GoNoGo4.startTime";"trial.GoNoGo4.stimulus type";"trial.GoNoGo_Practice.durationTime";"trial.GoNoGo_Practice.endTime";"trial.GoNoGo_Practice.icon";"trial.GoNoGo_Practice.location";"trial.GoNoGo_Practice.outcome";"trial.GoNoGo_Practice.response";"trial.GoNoGo_Practice.result";"trial.GoNoGo_Practice.RT";"trial.GoNoGo_Practice.signal";"trial.GoNoGo_Practice.startTime";"trial.GoNoGo_Practice.stimulus type";"trial.GoNoGo_Tutorial.durationTime";"trial.GoNoGo_Tutorial.endTime";"trial.GoNoGo_Tutorial.icon";"trial.GoNoGo_Tutorial.location";"trial.GoNoGo_Tutorial.outcome";"trial.GoNoGo_Tutorial.response";"trial.GoNoGo_Tutorial.result";"trial.GoNoGo_Tutorial.RT";"trial.GoNoGo_Tutorial.signal";"trial.GoNoGo_Tutorial.startTime"
"jenmitts";"1982";;"Windows 7";"Rachel's Experiment (D.T.)";"1.0";"2";"1";"1";"2";"1";"1";"2014-07-18 11:34:59.932";"2014-07-18 11:51:27.595";"1";"0";"0";"1";"0";"module.GoNoGotutorial.exec-2685.GoNoGo_Tutorial";;;;;;;;;;;;;;;;;;;;;;;;;;;;;;;;;;;;;;;;;;;;;;;;;;;;;;;;;;;;;;;;;;;;;;;;;;;;;;;;;;"4002";"2014-07-18 11:36:23.214";"leftResponse";"0";"FINISHED";"NONE";"failure";"0";"0";"2014-07-18 11:36:19.204"
"jenmitts";"1982";;"Windows 7";"Rachel's Experiment (D.T.)";"1.0";"2";"1";"1";"2";"1";"1";"2014-07-18 11:34:59.932";"2014-07-18 11:51:27.595";"1";"0";"0";"2";"1";"module.GoNoGotutorial.exec-2685.GoNoGo_Tutorial";;;;;;;;;;;;;;;;;;;;;;;;;;;;;;;;;;;;;;;;;;;;;;;;;;;;;;;;;;;;;;;;;;;;;;;;;;;;;;;;;;"4005";"2014-07-18 11:36:28.502";"rightResponse";"1";"FINISHED";"NONE";"failure";"0";"0";"2014-07-18 11:36:24.493"
"jenmitts";"1982";;"Windows 7";"Rachel's Experiment (D.T.)";"1.0";"2";"1";"1";"2";"1";"1";"2014-07-18 11:34:59.932";"2014-07-18 11:51:27.595";"1";"0";"0";"3";"2";"module.GoNoGotutorial.exec-2685.GoNoGo_Tutorial";;;;;;;;;;;;;;;;;;;;;;;;;;;;;;;;;;;;;;;;;;;;;;;;;;;;;;;;;;;;;;;;;;;;;;;;;;;;;;;;;;"4005";"2014-07-18 11:36:33.791";"quickResponse";"0";"FINISHED";"NONE";"failure";"0";"0";"2014-07-18 11:36:29.782"
"jenmitts";"1982";;"Windows 7";"Rachel's Experiment (D.T.)";"1.0";"2";"1";"1";"2";"1";"1";"2014-07-18 11:34:59.932";"2014-07-18 11:51:27.595";"1";"0";"0";"4";"3";"module.GoNoGopractice.exec-9111.GoNoGo_Practice";;;;;;;;;;;;;;;;;;;;;;;;;;;;;;;;;;;;;;;;;;;;;;;;;;;;;;;;;;;;;;;;;;;;;;;"1958";"2014-07-18 11:36:43.012";"18";"0";"FINISHED";"LEFT";"success";"450";"0";"2014-07-18 11:36:41.046";"3";;;;;;;;;;
"jenmitts";"1982";;"Windows 7";"Rachel's Experiment (D.T.)";"1.0";"2";"1";"1";"2";"1";"1";"2014-07-18 11:34:59.932";"2014-07-18 11:51:27.595";"1";"0";"0";"5";"4";"module.GoNoGopractice.exec-9111.GoNoGo_Practice";;;;;;;;;;;;;;;;;;;;;;;;;;;;;;;;;;;;;;;;;;;;;;;;;;;;;;;;;;;;;;;;;;;;;;;"1961";"2014-07-18 11:36:46.257";"21";"1";"FINISHED";"RIGHT";"success";"381";"0";"2014-07-18 11:36:44.291";"3";;;;;;;;;;
"jenmitts";"1982";;"Windows 7";"Rachel's Experiment (D.T.)";"1.0";"2";"1";"1";"2";"1";"1";"2014-07-18 11:34:59.932";"2014-07-18 11:51:27.595";"1";"0";"0";"6";"5";"module.GoNoGopractice.exec-9111.GoNoGo_Practice";;;;;;;;;;;;;;;;;;;;;;;;;;;;;;;;;;;;;;;;;;;;;;;;;;;;;;;;;;;;;;;;;;;;;;;"1961";"2014-07-18 11:36:49.502";"14";"1";"FINISHED";"RIGHT";"success";"417";"0";"2014-07-18 11:36:47.536";"2";;;;;;;;;;
"jenmitts";"1982";;"Windows 7";"Rachel's Experiment (D.T.)";"1.0";"2";"1";"1";"2";"1";"1";"2014-07-18 11:34:59.932";"2014-07-18 11:51:27.595";"1";"0";"0";"7";"6";"module.GoNoGopractice.exec-9111.GoNoGo_Practice";;;;;;;;;;;;;;;;;;;;;;;;;;;;;;;;;;;;;;;;;;;;;;;;;;;;;;;;;;;;;;;;;;;;;;;"1961";"2014-07-18 11:36:52.747";"26";"0";"FINISHED";"LEFT";"success";"448";"0";"2014-07-18 11:36:50.782";"3";;;;;;;;;;
"jenmitts";"1982";;"Windows 7";"Rachel's Experiment (D.T.)";"1.0";"2";"1";"1";"2";"1";"1";"2014-07-18 11:34:59.932";"2014-07-18 11:51:27.595";"1";"0";"0";"8";"7";"module.GoNoGopractice.exec-9111.GoNoGo_Practice";;;;;;;;;;;;;;;;;;;;;;;;;;;;;;;;;;;;;;;;;;;;;;;;;;;;;;;;;;;;;;;;;;;;;;;"1961";"2014-07-18 11:36:55.993";"2";"0";"FINISHED";"LEFT";"success";"442";"0";"2014-07-18 11:36:54.027";"1";;;;;;;;;;
"jenmitts";"1982";;"Windows 7";"Rachel's Experiment (D.T.)";"1.0";"2";"1";"1";"2";"1";"1";"2014-07-18 11:34:59.932";"2014-07-18 11:51:27.595";"1";"0";"0";"9";"8";"module.GoNoGopractice.exec-9111.GoNoGo_Practice";;;;;;;;;;;;;;;;;;;;;;;;;;;;;;;;;;;;;;;;;;;;;;;;;;;;;;;;;;;;;;;;;;;;;;;"1961";"2014-07-18 11:36:59.238";"30";"0";"FINISHED";"LEFT";"success";"426";"0";"2014-07-18 11:36:57.272";"3";;;;;;;;;;
"jenmitts";"1982";;"Windows 7";"Rachel's Experiment (D.T.)";"1.0";"2";"1";"1";"2";"1";"1";"2014-07-18 11:34:59.932";"2014-07-18 11:51:27.595";"1";"0";"0";"10";"9";"module.GoNoGopractice.exec-9111.GoNoGo_Practice";;;;;;;;;;;;;;;;;;;;;;;;;;;;;;;;;;;;;;;;;;;;;;;;;;;;;;;;;;;;;;;;;;;;;;;"1961";"2014-07-18 11:37:02.467";"6";"1";"FINISHED";"RIGHT";"success";"321";"0";"2014-07-18 11:37:00.501";"1";;;;;;;;;;
"jenmitts";"1982";;"Windows 7";"Rachel's Experiment (D.T.)";"1.0";"2";"1";"1";"2";"1";"1";"2014-07-18 11:34:59.932";"2014-07-18 11:51:27.595";"1";"0";"0";"11";"10";"module.GoNoGopractice.exec-9111.GoNoGo_Practice";;;;;;;;;;;;;;;;;;;;;;;;;;;;;;;;;;;;;;;;;;;;;;;;;;;;;;;;;;;;;;;;;;;;;;;"1962";"2014-07-18 11:37:05.712";"34";"0";"FINISHED";"LEFT";"success";"482";"0";"2014-07-18 11:37:03.747";"3";;;;;;;;;;
"jenmitts";"1982";;"Windows 7";"Rachel's Experiment (D.T.)";"1.0";"2";"1";"1";"2";"1";"1";"2014-07-18 11:34:59.932";"2014-07-18 11:51:27.595";"1";"0";"0";"12";"11";"module.GoNoGopractice.exec-9111.GoNoGo_Practice";;;;;;;;;;;;;;;;;;;;;;;;;;;;;;;;;;;;;;;;;;;;;;;;;;;;;;;;;;;;;;;;;;;;;;;"1961";"2014-07-18 11:37:08.942";"23";"1";"FINISHED";"RIGHT";"success";"403";"0";"2014-07-18 11:37:06.976";"3";;;;;;;;;;
"jenmitts";"1982";;"Windows 7";"Rachel's Experiment (D.T.)";"1.0";"2";"1";"1";"2";"1";"1";"2014-07-18 11:34:59.932";"2014-07-18 11:51:27.595";"1";"0";"0";"13";"12";"module.GoNoGopractice.exec-9111.GoNoGo_Practice";;;;;;;;;;;;;;;;;;;;;;;;;;;;;;;;;;;;;;;;;;;;;;;;;;;;;;;;;;;;;;;;;;;;;;;"1961";"2014-07-18 11:37:12.171";"13";"0";"FINISHED";"LEFT";"success";"424";"0";"2014-07-18 11:37:10.206";"2";;;;;;;;;;
"jenmitts";"1982";;"Windows 7";"Rachel's Experiment (D.T.)";"1.0";"2";"1";"1";"2";"1";"1";"2014-07-18 11:34:59.932";"2014-07-18 11:51:27.595";"1";"0";"0";"14";"13";"module.GoNoGopractice.exec-9111.GoNoGo_Practice";;;;;;;;;;;;;;;;;;;;;;;;;;;;;;;;;;;;;;;;;;;;;;;;;;;;;;;;;;;;;;;;;;;;;;;"1960";"2014-07-18 11:37:15.479";"3";"1";"FINISHED";"RIGHT";"success";"565";"0";"2014-07-18 11:37:13.513";"1";;;;;;;;;;
"jenmitts";"1982";;"Windows 7";"Rachel's Experiment (D.T.)";"1.0";"2";"1";"1";"2";"1";"1";"2014-07-18 11:34:59.932";"2014-07-18 11:51:27.595";"1";"0";"0";"15";"14";"module.GoNoGopractice.exec-9111.GoNoGo_Practice";;;;;;;;;;;;;;;;;;;;;;;;;;;;;;;;;;;;;;;;;;;;;;;;;;;;;;;;;;;;;;;;;;;;;;;"1961";"2014-07-18 11:37:18.724";"27";"1";"FINISHED";"RIGHT";"success";"436";"0";"2014-07-18 11:37:16.758";"3";;;;;;;;;;
"jenmitts";"1982";;"Windows 7";"Rachel's Experiment (D.T.)";"1.0";"2";"1";"1";"2";"1";"1";"2014-07-18 11:34:59.932";"2014-07-18 11:51:27.595";"1";"0";"0";"16";"15";"module.training_block1.exec-1419.GoNoGo1";;;;;;;;;;;;;;;;;;;;;;;"1259";"2014-07-18 11:37:30.472";"NST_correctLoc";"8";"0";"FINISHED";"LEFT";"success";"446";"0";"2014-07-18 11:37:29.208";"1";;;;;;;;;;;;;;;;;;;;;;;;;;;;;;;;;;;;;;;;;;;;;;;;;;;;;;;;;
"jenmitts";"1982";;"Windows 7";"Rachel's Experiment (D.T.)";"1.0";"2";"1";"1";"2";"1";"1";"2014-07-18 11:34:59.932";"2014-07-18 11:51:27.595";"1";"0";"0";"17";"16";"module.training_block1.exec-1419.GoNoGo1";;;;;;;;;;;;;;;;;;;;;;;"1260";"2014-07-18 11:37:33.015";"NST_correctLoc";"11";"1";"FINISHED";"RIGHT";"success";"330";"0";"2014-07-18 11:37:31.751";"2";;;;;;;;;;;;;;;;;;;;;;;;;;;;;;;;;;;;;;;;;;;;;;;;;;;;;;;;;
"jenmitts";"1982";;"Windows 7";"Rachel's Experiment (D.T.)";"1.0";"2";"1";"1";"2";"1";"1";"2014-07-18 11:34:59.932";"2014-07-18 11:51:27.595";"1";"0";"0";"18";"17";"module.training_block1.exec-1419.GoNoGo1";;;;;;;;;;;;;;;;;;;;;;;"1259";"2014-07-18 11:37:35.543";"NST_correctLoc";"20";"0";"FINISHED";"LEFT";"success";"362";"0";"2014-07-18 11:37:34.279";"3";;;;;;;;;;;;;;;;;;;;;;;;;;;;;;;;;;;;;;;;;;;;;;;;;;;;;;;;;
"jenmitts";"1982";;"Windows 7";"Rachel's Experiment (D.T.)";"1.0";"2";"1";"1";"2";"1";"1";"2014-07-18 11:34:59.932";"2014-07-18 11:51:27.595";"1";"0";"0";"19";"18";"module.training_block1.exec-1419.GoNoGo1";;;;;;;;;;;;;;;;;;;;;;;"1260";"2014-07-18 11:37:38.070";"NST_correctLoc";"1";"1";"FINISHED";"RIGHT";"success";"313";"0";"2014-07-18 11:37:36.806";"1";;;;;;;;;;;;;;;;;;;;;;;;;;;;;;;;;;;;;;;;;;;;;;;;;;;;;;;;;
"jenmitts";"1982";;"Windows 7";"Rachel's Experiment (D.T.)";"1.0";"2";"1";"1";"2";"1";"1";"2014-07-18 11:34:59.932";"2014-07-18 11:51:27.595";"1";"0";"0";"20";"19";"module.training_block1.exec-1419.GoNoGo1";;;;;;;;;;;;;;;;;;;;;;;"1259";"2014-07-18 11:37:40.597";"NST_correctLoc";"6";"0";"FINISHED";"LEFT";"success";"325";"0";"2014-07-18 11:37:39.334";"1";;;;;;;;;;;;;;;;;;;;;;;;;;;;;;;;;;;;;;;;;;;;;;;;;;;;;;;;;
"jenmitts";"1982";;"Windows 7";"Rachel's Experiment (D.T.)";"1.0";"2";"1";"1";"2";"1";"1";"2014-07-18 11:34:59.932";"2014-07-18 11:51:27.595";"1";"0";"0";"21";"20";"module.training_block1.exec-1419.GoNoGo1";;;;;;;;;;;;;;;;;;;;;;;"1260";"2014-07-18 11:37:43.125";"NST_correctLoc";"2";"0";"FINISHED";"LEFT";"success";"368";"0";"2014-07-18 11:37:41.861";"1";;;;;;;;;;;;;;;;;;;;;;;;;;;;;;;;;;;;;;;;;;;;;;;;;;;;;;;;;
"jenmitts";"1982";;"Windows 7";"Rachel's Experiment (D.T.)";"1.0";"2";"1";"1";"2";"1";"1";"2014-07-18 11:34:59.932";"2014-07-18 11:51:27.595";"1";"0";"0";"22";"21";"module.training_block1.exec-1419.GoNoGo1";;;;;;;;;;;;;;;;;;;;;;;"1259";"2014-07-18 11:37:45.652";"NST_correctLoc";"30";"1";"FINISHED";"RIGHT";"success";"391";"0";"2014-07-18 11:37:44.389";"3";;;;;;;;;;;;;;;;;;;;;;;;;;;;;;;;;;;;;;;;;;;;;;;;;;;;;;;;;
"jenmitts";"1982";;"Windows 7";"Rachel's Experiment (D.T.)";"1.0";"2";"1";"1";"2";"1";"1";"2014-07-18 11:34:59.932";"2014-07-18 11:51:27.595";"1";"0";"0";"23";"22";"module.training_block1.exec-1419.GoNoGo1";;;;;;;;;;;;;;;;;;;;;;;"1260";"2014-07-18 11:37:48.180";"NST_correctLoc";"14";"1";"FINISHED";"RIGHT";"success";"379";"0";"2014-07-18 11:37:46.916";"2";;;;;;;;;;;;;;;;;;;;;;;;;;;;;;;;;;;;;;;;;;;;;;;;;;;;;;;;;
"jenmitts";"1982";;"Windows 7";"Rachel's Experiment (D.T.)";"1.0";"2";"1";"1";"2";"1";"1";"2014-07-18 11:34:59.932";"2014-07-18 11:51:27.595";"1";"0";"0";"24";"23";"module.training_block1.exec-1419.GoNoGo1";;;;;;;;;;;;;;;;;;;;;;;"1259";"2014-07-18 11:37:50.707";"NST_correctLoc";"17";"1";"FINISHED";"RIGHT";"success";"389";"0";"2014-07-18 11:37:49.444";"2";;;;;;;;;;;;;;;;;;;;;;;;;;;;;;;;;;;;;;;;;;;;;;;;;;;;;;;;;
"jenmitts";"1982";;"Windows 7";"Rachel's Experiment (D.T.)";"1.0";"2";"1";"1";"2";"1";"1";"2014-07-18 11:34:59.932";"2014-07-18 11:51:27.595";"1";"0";"0";"25";"24";"module.training_block1.exec-1419.GoNoGo1";;;;;;;;;;;;;;;;;;;;;;;"1262";"2014-07-18 11:37:53.234";"NST_correctLoc";"3";"1";"FINISHED";"RIGHT";"success";"386";"0";"2014-07-18 11:37:51.971";"1";;;;;;;;;;;;;;;;;;;;;;;;;;;;;;;;;;;;;;;;;;;;;;;;;;;;;;;;;
"jenmitts";"1982";;"Windows 7";"Rachel's Experiment (D.T.)";"1.0";"2";"1";"1";"2";"1";"1";"2014-07-18 11:34:59.932";"2014-07-18 11:51:27.595";"1";"0";"0";"26";"25";"module.training_block1.exec-1419.GoNoGo1";;;;;;;;;;;;;;;;;;;;;;;"1259";"2014-07-18 11:37:55.762";"NST_correctLoc";"35";"1";"FINISHED";"RIGHT";"success";"356";"0";"2014-07-18 11:37:54.498";"3";;;;;;;;;;;;;;;;;;;;;;;;;;;;;;;;;;;;;;;;;;;;;;;;;;;;;;;;;
"jenmitts";"1982";;"Windows 7";"Rachel's Experiment (D.T.)";"1.0";"2";"1";"1";"2";"1";"1";"2014-07-18 11:34:59.932";"2014-07-18 11:51:27.595";"1";"0";"0";"27";"26";"module.training_block1.exec-1419.GoNoGo1";;;;;;;;;;;;;;;;;;;;;;;"1259";"2014-07-18 11:37:58.289";"NST_correctLoc";"10";"0";"FINISHED";"LEFT";"success";"336";"0";"2014-07-18 11:37:57.025";"2";;;;;;;;;;;;;;;;;;;;;;;;;;;;;;;;;;;;;;;;;;;;;;;;;;;;;;;;;
"jenmitts";"1982";;"Windows 7";"Rachel's Experiment (D.T.)";"1.0";"2";"1";"1";"2";"1";"1";"2014-07-18 11:34:59.932";"2014-07-18 11:51:27.595";"1";"0";"0";"28";"27";"module.training_block1.exec-1419.GoNoGo1";;;;;;;;;;;;;;;;;;;;;;;"1262";"2014-07-18 11:38:00.816";"NST_correctLoc";"27";"0";"FINISHED";"LEFT";"success";"396";"0";"2014-07-18 11:37:59.553";"3";;;;;;;;;;;;;;;;;;;;;;;;;;;;;;;;;;;;;;;;;;;;;;;;;;;;;;;;;
"jenmitts";"1982";;"Windows 7";"Rachel's Experiment (D.T.)";"1.0";"2";"1";"1";"2";"1";"1";"2014-07-18 11:34:59.932";"2014-07-18 11:51:27.595";"1";"0";"0";"29";"28";"module.training_block1.exec-1419.GoNoGo1";;;;;;;;;;;;;;;;;;;;;;;"1259";"2014-07-18 11:38:03.344";"NST_correctLoc";"33";"1";"FINISHED";"RIGHT";"success";"584";"0";"2014-07-18 11:38:02.080";"3";;;;;;;;;;;;;;;;;;;;;;;;;;;;;;;;;;;;;;;;;;;;;;;;;;;;;;;;;
"jenmitts";"1982";;"Windows 7";"Rachel's Experiment (D.T.)";"1.0";"2";"1";"1";"2";"1";"1";"2014-07-18 11:34:59.932";"2014-07-18 11:51:27.595";"1";"0";"0";"30";"29";"module.training_block1.exec-1419.GoNoGo1";;;;;;;;;;;;;;;;;;;;;;;"1260";"2014-07-18 11:38:05.886";"NST_correctLoc";"9";"0";"FINISHED";"LEFT";"success";"312";"0";"2014-07-18 11:38:04.623";"2";;;;;;;;;;;;;;;;;;;;;;;;;;;;;;;;;;;;;;;;;;;;;;;;;;;;;;;;;
"jenmitts";"1982";;"Windows 7";"Rachel's Experiment (D.T.)";"1.0";"2";"1";"1";"2";"1";"1";"2014-07-18 11:34:59.932";"2014-07-18 11:51:27.595";"1";"0";"0";"31";"30";"module.training_block1.exec-1419.GoNoGo1";;;;;;;;;;;;;;;;;;;;;;;"1260";"2014-07-18 11:38:08.414";"NST_correctLoc";"22";"0";"FINISHED";"LEFT";"success";"407";"0";"2014-07-18 11:38:07.150";"3";;;;;;;;;;;;;;;;;;;;;;;;;;;;;;;;;;;;;;;;;;;;;;;;;;;;;;;;;
"jenmitts";"1982";;"Windows 7";"Rachel's Experiment (D.T.)";"1.0";"2";"1";"1";"2";"1";"1";"2014-07-18 11:34:59.932";"2014-07-18 11:51:27.595";"1";"0";"0";"32";"31";"module.training_block1.exec-1419.GoNoGo1";;;;;;;;;;;;;;;;;;;;;;;"1259";"2014-07-18 11:38:10.941";"NST_correctLoc";"23";"0";"FINISHED";"LEFT";"success";"357";"0";"2014-07-18 11:38:09.677";"3";;;;;;;;;;;;;;;;;;;;;;;;;;;;;;;;;;;;;;;;;;;;;;;;;;;;;;;;;
"jenmitts";"1982";;"Windows 7";"Rachel's Experiment (D.T.)";"1.0";"2";"1";"1";"2";"1";"1";"2014-07-18 11:34:59.932";"2014-07-18 11:51:27.595";"1";"0";"0";"33";"32";"module.training_block1.exec-1419.GoNoGo1";;;;;;;;;;;;;;;;;;;;;;;"1259";"2014-07-18 11:38:13.468";"NST_correctLoc";"4";"1";"FINISHED";"RIGHT";"success";"307";"0";"2014-07-18 11:38:12.205";"1";;;;;;;;;;;;;;;;;;;;;;;;;;;;;;;;;;;;;;;;;;;;;;;;;;;;;;;;;
"jenmitts";"1982";;"Windows 7";"Rachel's Experiment (D.T.)";"1.0";"2";"1";"1";"2";"1";"1";"2014-07-18 11:34:59.932";"2014-07-18 11:51:27.595";"1";"0";"0";"34";"33";"module.training_block1.exec-1419.GoNoGo1";;;;;;;;;;;;;;;;;;;;;;;"1258";"2014-07-18 11:38:15.996";"NST_correctLoc";"31";"1";"FINISHED";"RIGHT";"success";"383";"0";"2014-07-18 11:38:14.732";"3";;;;;;;;;;;;;;;;;;;;;;;;;;;;;;;;;;;;;;;;;;;;;;;;;;;;;;;;;
"jenmitts";"1982";;"Windows 7";"Rachel's Experiment (D.T.)";"1.0";"2";"1";"1";"2";"1";"1";"2014-07-18 11:34:59.932";"2014-07-18 11:51:27.595";"1";"0";"0";"35";"34";"module.training_block1.exec-1419.GoNoGo1";;;;;;;;;;;;;;;;;;;;;;;"1259";"2014-07-18 11:38:18.523";"NST_correctLoc";"0";"0";"FINISHED";"LEFT";"success";"330";"0";"2014-07-18 11:38:17.259";"1";;;;;;;;;;;;;;;;;;;;;;;;;;;;;;;;;;;;;;;;;;;;;;;;;;;;;;;;;
"jenmitts";"1982";;"Windows 7";"Rachel's Experiment (D.T.)";"1.0";"2";"1";"1";"2";"1";"1";"2014-07-18 11:34:59.932";"2014-07-18 11:51:27.595";"1";"0";"0";"36";"35";"module.training_block1.exec-1419.GoNoGo1";;;;;;;;;;;;;;;;;;;;;;;"1260";"2014-07-18 11:38:21.050";"NST_correctLoc";"34";"0";"FINISHED";"LEFT";"success";"407";"0";"2014-07-18 11:38:19.786";"3";;;;;;;;;;;;;;;;;;;;;;;;;;;;;;;;;;;;;;;;;;;;;;;;;;;;;;;;;
"jenmitts";"1982";;"Windows 7";"Rachel's Experiment (D.T.)";"1.0";"2";"1";"1";"2";"1";"1";"2014-07-18 11:34:59.932";"2014-07-18 11:51:27.595";"1";"0";"0";"37";"36";"module.training_block1.exec-1419.GoNoGo1";;;;;;;;;;;;;;;;;;;;;;;"1259";"2014-07-18 11:38:23.577";"NST_correctLoc";"21";"1";"FINISHED";"RIGHT";"success";"375";"0";"2014-07-18 11:38:22.314";"3";;;;;;;;;;;;;;;;;;;;;;;;;;;;;;;;;;;;;;;;;;;;;;;;;;;;;;;;;
"jenmitts";"1982";;"Windows 7";"Rachel's Experiment (D.T.)";"1.0";"2";"1";"1";"2";"1";"1";"2014-07-18 11:34:59.932";"2014-07-18 11:51:27.595";"1";"0";"0";"38";"37";"module.training_block1.exec-1419.GoNoGo1";;;;;;;;;;;;;;;;;;;;;;;"1259";"2014-07-18 11:38:26.105";"NST_correctLoc";"15";"0";"FINISHED";"LEFT";"success";"355";"0";"2014-07-18 11:38:24.841";"2";;;;;;;;;;;;;;;;;;;;;;;;;;;;;;;;;;;;;;;;;;;;;;;;;;;;;;;;;
"jenmitts";"1982";;"Windows 7";"Rachel's Experiment (D.T.)";"1.0";"2";"1";"1";"2";"1";"1";"2014-07-18 11:34:59.932";"2014-07-18 11:51:27.595";"1";"0";"0";"39";"38";"module.training_block1.exec-1419.GoNoGo1";;;;;;;;;;;;;;;;;;;;;;;"1260";"2014-07-18 11:38:28.632";"NST_correctLoc";"16";"0";"FINISHED";"LEFT";"success";"405";"0";"2014-07-18 11:38:27.368";"2";;;;;;;;;;;;;;;;;;;;;;;;;;;;;;;;;;;;;;;;;;;;;;;;;;;;;;;;;
"jenmitts";"1982";;"Windows 7";"Rachel's Experiment (D.T.)";"1.0";"2";"1";"1";"2";"1";"1";"2014-07-18 11:34:59.932";"2014-07-18 11:51:27.595";"1";"0";"0";"40";"39";"module.training_block1.exec-1419.GoNoGo1";;;;;;;;;;;;;;;;;;;;;;;"1260";"2014-07-18 11:38:31.159";"NST_correctLoc";"5";"1";"FINISHED";"RIGHT";"success";"341";"0";"2014-07-18 11:38:29.896";"1";;;;;;;;;;;;;;;;;;;;;;;;;;;;;;;;;;;;;;;;;;;;;;;;;;;;;;;;;
"jenmitts";"1982";;"Windows 7";"Rachel's Experiment (D.T.)";"1.0";"2";"1";"1";"2";"1";"1";"2014-07-18 11:34:59.932";"2014-07-18 11:51:27.595";"1";"0";"0";"41";"40";"module.training_block1.exec-1419.GoNoGo1";;;;;;;;;;;;;;;;;;;;;;;"1260";"2014-07-18 11:38:33.687";"NST_correctLoc";"29";"0";"FINISHED";"LEFT";"success";"299";"0";"2014-07-18 11:38:32.423";"3";;;;;;;;;;;;;;;;;;;;;;;;;;;;;;;;;;;;;;;;;;;;;;;;;;;;;;;;;
"jenmitts";"1982";;"Windows 7";"Rachel's Experiment (D.T.)";"1.0";"2";"1";"1";"2";"1";"1";"2014-07-18 11:34:59.932";"2014-07-18 11:51:27.595";"1";"0";"0";"42";"41";"module.training_block1.exec-1419.GoNoGo1";;;;;;;;;;;;;;;;;;;;;;;"1259";"2014-07-18 11:38:36.214";"NST_correctLoc";"32";"0";"FINISHED";"LEFT";"success";"382";"0";"2014-07-18 11:38:34.950";"3";;;;;;;;;;;;;;;;;;;;;;;;;;;;;;;;;;;;;;;;;;;;;;;;;;;;;;;;;
"jenmitts";"1982";;"Windows 7";"Rachel's Experiment (D.T.)";"1.0";"2";"1";"1";"2";"1";"1";"2014-07-18 11:34:59.932";"2014-07-18 11:51:27.595";"1";"0";"0";"43";"42";"module.training_block1.exec-1419.GoNoGo1";;;;;;;;;;;;;;;;;;;;;;;"1260";"2014-07-18 11:38:38.741";"NST_correctLoc";"18";"0";"FINISHED";"LEFT";"success";"336";"0";"2014-07-18 11:38:37.477";"3";;;;;;;;;;;;;;;;;;;;;;;;;;;;;;;;;;;;;;;;;;;;;;;;;;;;;;;;;
"jenmitts";"1982";;"Windows 7";"Rachel's Experiment (D.T.)";"1.0";"2";"1";"1";"2";"1";"1";"2014-07-18 11:34:59.932";"2014-07-18 11:51:27.595";"1";"0";"0";"44";"43";"module.training_block1.exec-1419.GoNoGo1";;;;;;;;;;;;;;;;;;;;;;;"1259";"2014-07-18 11:38:41.268";"NST_correctLoc";"26";"0";"FINISHED";"LEFT";"success";"342";"0";"2014-07-18 11:38:40.005";"3";;;;;;;;;;;;;;;;;;;;;;;;;;;;;;;;;;;;;;;;;;;;;;;;;;;;;;;;;
"jenmitts";"1982";;"Windows 7";"Rachel's Experiment (D.T.)";"1.0";"2";"1";"1";"2";"1";"1";"2014-07-18 11:34:59.932";"2014-07-18 11:51:27.595";"1";"0";"0";"45";"44";"module.training_block1.exec-1419.GoNoGo1";;;;;;;;;;;;;;;;;;;;;;;"1260";"2014-07-18 11:38:43.796";"NST_correctLoc";"19";"0";"FINISHED";"LEFT";"success";"348";"0";"2014-07-18 11:38:42.532";"3";;;;;;;;;;;;;;;;;;;;;;;;;;;;;;;;;;;;;;;;;;;;;;;;;;;;;;;;;
"jenmitts";"1982";;"Windows 7";"Rachel's Experiment (D.T.)";"1.0";"2";"1";"1";"2";"1";"1";"2014-07-18 11:34:59.932";"2014-07-18 11:51:27.595";"1";"0";"0";"46";"45";"module.training_block1.exec-1419.GoNoGo1";;;;;;;;;;;;;;;;;;;;;;;"1259";"2014-07-18 11:38:46.323";"NST_correctLoc";"12";"1";"FINISHED";"RIGHT";"success";"367";"0";"2014-07-18 11:38:45.059";"2";;;;;;;;;;;;;;;;;;;;;;;;;;;;;;;;;;;;;;;;;;;;;;;;;;;;;;;;;
"jenmitts";"1982";;"Windows 7";"Rachel's Experiment (D.T.)";"1.0";"2";"1";"1";"2";"1";"1";"2014-07-18 11:34:59.932";"2014-07-18 11:51:27.595";"1";"0";"0";"47";"46";"module.training_block1.exec-1419.GoNoGo1";;;;;;;;;;;;;;;;;;;;;;;"1260";"2014-07-18 11:38:48.850";"NST_correctLoc";"24";"1";"FINISHED";"RIGHT";"success";"367";"0";"2014-07-18 11:38:47.587";"3";;;;;;;;;;;;;;;;;;;;;;;;;;;;;;;;;;;;;;;;;;;;;;;;;;;;;;;;;
"jenmitts";"1982";;"Windows 7";"Rachel's Experiment (D.T.)";"1.0";"2";"1";"1";"2";"1";"1";"2014-07-18 11:34:59.932";"2014-07-18 11:51:27.595";"1";"0";"0";"48";"47";"module.training_block1.exec-1419.GoNoGo1";;;;;;;;;;;;;;;;;;;;;;;"1259";"2014-07-18 11:38:51.377";"NST_correctLoc";"7";"0";"FINISHED";"LEFT";"success";"336";"0";"2014-07-18 11:38:50.114";"1";;;;;;;;;;;;;;;;;;;;;;;;;;;;;;;;;;;;;;;;;;;;;;;;;;;;;;;;;
"jenmitts";"1982";;"Windows 7";"Rachel's Experiment (D.T.)";"1.0";"2";"1";"1";"2";"1";"1";"2014-07-18 11:34:59.932";"2014-07-18 11:51:27.595";"1";"0";"0";"49";"48";"module.training_block1.exec-1419.GoNoGo1";;;;;;;;;;;;;;;;;;;;;;;"1259";"2014-07-18 11:38:53.905";"NST_correctLoc";"13";"0";"FINISHED";"LEFT";"success";"412";"0";"2014-07-18 11:38:52.641";"2";;;;;;;;;;;;;;;;;;;;;;;;;;;;;;;;;;;;;;;;;;;;;;;;;;;;;;;;;
"jenmitts";"1982";;"Windows 7";"Rachel's Experiment (D.T.)";"1.0";"2";"1";"1";"2";"1";"1";"2014-07-18 11:34:59.932";"2014-07-18 11:51:27.595";"1";"0";"0";"50";"49";"module.training_block1.exec-1419.GoNoGo1";;;;;;;;;;;;;;;;;;;;;;;"1260";"2014-07-18 11:38:56.432";"NST_correctLoc";"25";"0";"FINISHED";"LEFT";"success";"418";"0";"2014-07-18 11:38:55.168";"3";;;;;;;;;;;;;;;;;;;;;;;;;;;;;;;;;;;;;;;;;;;;;;;;;;;;;;;;;
"jenmitts";"1982";;"Windows 7";"Rachel's Experiment (D.T.)";"1.0";"2";"1";"1";"2";"1";"1";"2014-07-18 11:34:59.932";"2014-07-18 11:51:27.595";"1";"0";"0";"51";"50";"module.training_block1.exec-1419.GoNoGo1";;;;;;;;;;;;;;;;;;;;;;;"1260";"2014-07-18 11:38:58.959";"NST_correctLoc";"28";"0";"FINISHED";"LEFT";"success";"394";"0";"2014-07-18 11:38:57.696";"3";;;;;;;;;;;;;;;;;;;;;;;;;;;;;;;;;;;;;;;;;;;;;;;;;;;;;;;;;
"jenmitts";"1982";;"Windows 7";"Rachel's Experiment (D.T.)";"1.0";"2";"1";"1";"2";"1";"1";"2014-07-18 11:34:59.932";"2014-07-18 11:51:27.595";"1";"0";"0";"52";"51";"module.training_block2.exec-9255.GoNoGo2";;;;;;;;;;;;;;;;;;;;;;;;;;;;;;;;;;;"1262";"2014-07-18 11:39:10.878";"NST_correctLoc";"26";"0";"FINISHED";"LEFT";"success";"403";"0";"2014-07-18 11:39:09.614";"3";;;;;;;;;;;;;;;;;;;;;;;;;;;;;;;;;;;;;;;;;;;;;
"jenmitts";"1982";;"Windows 7";"Rachel's Experiment (D.T.)";"1.0";"2";"1";"1";"2";"1";"1";"2014-07-18 11:34:59.932";"2014-07-18 11:51:27.595";"1";"0";"0";"53";"52";"module.training_block2.exec-9255.GoNoGo2";;;;;;;;;;;;;;;;;;;;;;;;;;;;;;;;;;;"1262";"2014-07-18 11:39:13.405";"NST_correctLoc";"23";"0";"FINISHED";"LEFT";"success";"375";"0";"2014-07-18 11:39:12.142";"3";;;;;;;;;;;;;;;;;;;;;;;;;;;;;;;;;;;;;;;;;;;;;
"jenmitts";"1982";;"Windows 7";"Rachel's Experiment (D.T.)";"1.0";"2";"1";"1";"2";"1";"1";"2014-07-18 11:34:59.932";"2014-07-18 11:51:27.595";"1";"0";"0";"54";"53";"module.training_block2.exec-9255.GoNoGo2";;;;;;;;;;;;;;;;;;;;;;;;;;;;;;;;;;;"1262";"2014-07-18 11:39:15.933";"NST_correctLoc";"34";"0";"FINISHED";"LEFT";"success";"318";"0";"2014-07-18 11:39:14.669";"3";;;;;;;;;;;;;;;;;;;;;;;;;;;;;;;;;;;;;;;;;;;;;
"jenmitts";"1982";;"Windows 7";"Rachel's Experiment (D.T.)";"1.0";"2";"1";"1";"2";"1";"1";"2014-07-18 11:34:59.932";"2014-07-18 11:51:27.595";"1";"0";"0";"55";"54";"module.training_block2.exec-9255.GoNoGo2";;;;;;;;;;;;;;;;;;;;;;;;;;;;;;;;;;;"1262";"2014-07-18 11:39:18.460";"NST_correctLoc";"8";"0";"FINISHED";"LEFT";"success";"358";"0";"2014-07-18 11:39:17.196";"1";;;;;;;;;;;;;;;;;;;;;;;;;;;;;;;;;;;;;;;;;;;;;
"jenmitts";"1982";;"Windows 7";"Rachel's Experiment (D.T.)";"1.0";"2";"1";"1";"2";"1";"1";"2014-07-18 11:34:59.932";"2014-07-18 11:51:27.595";"1";"0";"0";"56";"55";"module.training_block2.exec-9255.GoNoGo2";;;;;;;;;;;;;;;;;;;;;;;;;;;;;;;;;;;"1262";"2014-07-18 11:39:20.987";"NST_correctLoc";"1";"0";"FINISHED";"LEFT";"success";"381";"0";"2014-07-18 11:39:19.724";"1";;;;;;;;;;;;;;;;;;;;;;;;;;;;;;;;;;;;;;;;;;;;;
"jenmitts";"1982";;"Windows 7";"Rachel's Experiment (D.T.)";"1.0";"2";"1";"1";"2";"1";"1";"2014-07-18 11:34:59.932";"2014-07-18 11:51:27.595";"1";"0";"0";"57";"56";"module.training_block2.exec-9255.GoNoGo2";;;;;;;;;;;;;;;;;;;;;;;;;;;;;;;;;;;"1262";"2014-07-18 11:39:23.515";"NST_correctLoc";"33";"1";"FINISHED";"RIGHT";"success";"354";"0";"2014-07-18 11:39:22.251";"3";;;;;;;;;;;;;;;;;;;;;;;;;;;;;;;;;;;;;;;;;;;;;
"jenmitts";"1982";;"Windows 7";"Rachel's Experiment (D.T.)";"1.0";"2";"1";"1";"2";"1";"1";"2014-07-18 11:34:59.932";"2014-07-18 11:51:27.595";"1";"0";"0";"58";"57";"module.training_block2.exec-9255.GoNoGo2";;;;;;;;;;;;;;;;;;;;;;;;;;;;;;;;;;;"1262";"2014-07-18 11:39:26.042";"NST_correctLoc";"14";"0";"FINISHED";"LEFT";"success";"319";"0";"2014-07-18 11:39:24.778";"2";;;;;;;;;;;;;;;;;;;;;;;;;;;;;;;;;;;;;;;;;;;;;
"jenmitts";"1982";;"Windows 7";"Rachel's Experiment (D.T.)";"1.0";"2";"1";"1";"2";"1";"1";"2014-07-18 11:34:59.932";"2014-07-18 11:51:27.595";"1";"0";"0";"59";"58";"module.training_block2.exec-9255.GoNoGo2";;;;;;;;;;;;;;;;;;;;;;;;;;;;;;;;;;;"1262";"2014-07-18 11:39:28.569";"NST_correctLoc";"16";"0";"FINISHED";"LEFT";"success";"388";"0";"2014-07-18 11:39:27.305";"2";;;;;;;;;;;;;;;;;;;;;;;;;;;;;;;;;;;;;;;;;;;;;
"jenmitts";"1982";;"Windows 7";"Rachel's Experiment (D.T.)";"1.0";"2";"1";"1";"2";"1";"1";"2014-07-18 11:34:59.932";"2014-07-18 11:51:27.595";"1";"0";"0";"60";"59";"module.training_block2.exec-9255.GoNoGo2";;;;;;;;;;;;;;;;;;;;;;;;;;;;;;;;;;;"1262";"2014-07-18 11:39:31.096";"NST_correctLoc";"10";"1";"FINISHED";"RIGHT";"success";"312";"0";"2014-07-18 11:39:29.833";"2";;;;;;;;;;;;;;;;;;;;;;;;;;;;;;;;;;;;;;;;;;;;;
"jenmitts";"1982";;"Windows 7";"Rachel's Experiment (D.T.)";"1.0";"2";"1";"1";"2";"1";"1";"2014-07-18 11:34:59.932";"2014-07-18 11:51:27.595";"1";"0";"0";"61";"60";"module.training_block2.exec-9255.GoNoGo2";;;;;;;;;;;;;;;;;;;;;;;;;;;;;;;;;;;"1262";"2014-07-18 11:39:33.624";"NST_correctLoc";"22";"1";"FINISHED";"RIGHT";"success";"377";"0";"2014-07-18 11:39:32.360";"3";;;;;;;;;;;;;;;;;;;;;;;;;;;;;;;;;;;;;;;;;;;;;
"jenmitts";"1982";;"Windows 7";"Rachel's Experiment (D.T.)";"1.0";"2";"1";"1";"2";"1";"1";"2014-07-18 11:34:59.932";"2014-07-18 11:51:27.595";"1";"0";"0";"62";"61";"module.training_block2.exec-9255.GoNoGo2";;;;;;;;;;;;;;;;;;;;;;;;;;;;;;;;;;;"1262";"2014-07-18 11:39:36.151";"NST_correctLoc";"15";"0";"FINISHED";"LEFT";"success";"316";"0";"2014-07-18 11:39:34.887";"2";;;;;;;;;;;;;;;;;;;;;;;;;;;;;;;;;;;;;;;;;;;;;
"jenmitts";"1982";;"Windows 7";"Rachel's Experiment (D.T.)";"1.0";"2";"1";"1";"2";"1";"1";"2014-07-18 11:34:59.932";"2014-07-18 11:51:27.595";"1";"0";"0";"63";"62";"module.training_block2.exec-9255.GoNoGo2";;;;;;;;;;;;;;;;;;;;;;;;;;;;;;;;;;;"1262";"2014-07-18 11:39:38.678";"NST_correctLoc";"20";"1";"FINISHED";"RIGHT";"success";"304";"0";"2014-07-18 11:39:37.415";"3";;;;;;;;;;;;;;;;;;;;;;;;;;;;;;;;;;;;;;;;;;;;;
"jenmitts";"1982";;"Windows 7";"Rachel's Experiment (D.T.)";"1.0";"2";"1";"1";"2";"1";"1";"2014-07-18 11:34:59.932";"2014-07-18 11:51:27.595";"1";"0";"0";"64";"63";"module.training_block2.exec-9255.GoNoGo2";;;;;;;;;;;;;;;;;;;;;;;;;;;;;;;;;;;"1262";"2014-07-18 11:39:41.205";"NST_correctLoc";"25";"0";"FINISHED";"LEFT";"success";"346";"0";"2014-07-18 11:39:39.942";"3";;;;;;;;;;;;;;;;;;;;;;;;;;;;;;;;;;;;;;;;;;;;;
"jenmitts";"1982";;"Windows 7";"Rachel's Experiment (D.T.)";"1.0";"2";"1";"1";"2";"1";"1";"2014-07-18 11:34:59.932";"2014-07-18 11:51:27.595";"1";"0";"0";"65";"64";"module.training_block2.exec-9255.GoNoGo2";;;;;;;;;;;;;;;;;;;;;;;;;;;;;;;;;;;"1262";"2014-07-18 11:39:43.733";"NST_correctLoc";"2";"0";"FINISHED";"LEFT";"success";"360";"0";"2014-07-18 11:39:42.469";"1";;;;;;;;;;;;;;;;;;;;;;;;;;;;;;;;;;;;;;;;;;;;;
"jenmitts";"1982";;"Windows 7";"Rachel's Experiment (D.T.)";"1.0";"2";"1";"1";"2";"1";"1";"2014-07-18 11:34:59.932";"2014-07-18 11:51:27.595";"1";"0";"0";"66";"65";"module.training_block2.exec-9255.GoNoGo2";;;;;;;;;;;;;;;;;;;;;;;;;;;;;;;;;;;"1262";"2014-07-18 11:39:46.260";"NST_correctLoc";"21";"1";"FINISHED";"RIGHT";"success";"443";"0";"2014-07-18 11:39:44.996";"3";;;;;;;;;;;;;;;;;;;;;;;;;;;;;;;;;;;;;;;;;;;;;
"jenmitts";"1982";;"Windows 7";"Rachel's Experiment (D.T.)";"1.0";"2";"1";"1";"2";"1";"1";"2014-07-18 11:34:59.932";"2014-07-18 11:51:27.595";"1";"0";"0";"67";"66";"module.training_block2.exec-9255.GoNoGo2";;;;;;;;;;;;;;;;;;;;;;;;;;;;;;;;;;;"1262";"2014-07-18 11:39:48.787";"NST_correctLoc";"32";"1";"FINISHED";"RIGHT";"success";"346";"0";"2014-07-18 11:39:47.524";"3";;;;;;;;;;;;;;;;;;;;;;;;;;;;;;;;;;;;;;;;;;;;;
"jenmitts";"1982";;"Windows 7";"Rachel's Experiment (D.T.)";"1.0";"2";"1";"1";"2";"1";"1";"2014-07-18 11:34:59.932";"2014-07-18 11:51:27.595";"1";"0";"0";"68";"67";"module.training_block2.exec-9255.GoNoGo2";;;;;;;;;;;;;;;;;;;;;;;;;;;;;;;;;;;"1262";"2014-07-18 11:39:51.315";"NST_correctLoc";"31";"1";"FINISHED";"RIGHT";"success";"322";"0";"2014-07-18 11:39:50.051";"3";;;;;;;;;;;;;;;;;;;;;;;;;;;;;;;;;;;;;;;;;;;;;
"jenmitts";"1982";;"Windows 7";"Rachel's Experiment (D.T.)";"1.0";"2";"1";"1";"2";"1";"1";"2014-07-18 11:34:59.932";"2014-07-18 11:51:27.595";"1";"0";"0";"69";"68";"module.training_block2.exec-9255.GoNoGo2";;;;;;;;;;;;;;;;;;;;;;;;;;;;;;;;;;;"1262";"2014-07-18 11:39:53.842";"NST_correctLoc";"5";"0";"FINISHED";"LEFT";"success";"335";"0";"2014-07-18 11:39:52.578";"1";;;;;;;;;;;;;;;;;;;;;;;;;;;;;;;;;;;;;;;;;;;;;
"jenmitts";"1982";;"Windows 7";"Rachel's Experiment (D.T.)";"1.0";"2";"1";"1";"2";"1";"1";"2014-07-18 11:34:59.932";"2014-07-18 11:51:27.595";"1";"0";"0";"70";"69";"module.training_block2.exec-9255.GoNoGo2";;;;;;;;;;;;;;;;;;;;;;;;;;;;;;;;;;;"1262";"2014-07-18 11:39:56.369";"NST_wrongLoc";"19";"0";"FINISHED";"RIGHT";"failure";"296";"0";"2014-07-18 11:39:55.106";"3";;;;;;;;;;;;;;;;;;;;;;;;;;;;;;;;;;;;;;;;;;;;;
"jenmitts";"1982";;"Windows 7";"Rachel's Experiment (D.T.)";"1.0";"2";"1";"1";"2";"1";"1";"2014-07-18 11:34:59.932";"2014-07-18 11:51:27.595";"1";"0";"0";"71";"70";"module.training_block2.exec-9255.GoNoGo2";;;;;;;;;;;;;;;;;;;;;;;;;;;;;;;;;;;"1262";"2014-07-18 11:39:58.896";"NST_correctLoc";"11";"0";"FINISHED";"LEFT";"success";"391";"0";"2014-07-18 11:39:57.633";"2";;;;;;;;;;;;;;;;;;;;;;;;;;;;;;;;;;;;;;;;;;;;;
"jenmitts";"1982";;"Windows 7";"Rachel's Experiment (D.T.)";"1.0";"2";"1";"1";"2";"1";"1";"2014-07-18 11:34:59.932";"2014-07-18 11:51:27.595";"1";"0";"0";"72";"71";"module.training_block2.exec-9255.GoNoGo2";;;;;;;;;;;;;;;;;;;;;;;;;;;;;;;;;;;"1262";"2014-07-18 11:40:01.424";"NST_correctLoc";"9";"1";"FINISHED";"RIGHT";"success";"367";"0";"2014-07-18 11:40:00.160";"2";;;;;;;;;;;;;;;;;;;;;;;;;;;;;;;;;;;;;;;;;;;;;
"jenmitts";"1982";;"Windows 7";"Rachel's Experiment (D.T.)";"1.0";"2";"1";"1";"2";"1";"1";"2014-07-18 11:34:59.932";"2014-07-18 11:51:27.595";"1";"0";"0";"73";"72";"module.training_block2.exec-9255.GoNoGo2";;;;;;;;;;;;;;;;;;;;;;;;;;;;;;;;;;;"1262";"2014-07-18 11:40:03.951";"NST_correctLoc";"17";"1";"FINISHED";"RIGHT";"success";"376";"0";"2014-07-18 11:40:02.687";"2";;;;;;;;;;;;;;;;;;;;;;;;;;;;;;;;;;;;;;;;;;;;;
"jenmitts";"1982";;"Windows 7";"Rachel's Experiment (D.T.)";"1.0";"2";"1";"1";"2";"1";"1";"2014-07-18 11:34:59.932";"2014-07-18 11:51:27.595";"1";"0";"0";"74";"73";"module.training_block2.exec-9255.GoNoGo2";;;;;;;;;;;;;;;;;;;;;;;;;;;;;;;;;;;"1262";"2014-07-18 11:40:06.478";"NST_correctLoc";"28";"1";"FINISHED";"RIGHT";"success";"449";"0";"2014-07-18 11:40:05.215";"3";;;;;;;;;;;;;;;;;;;;;;;;;;;;;;;;;;;;;;;;;;;;;
"jenmitts";"1982";;"Windows 7";"Rachel's Experiment (D.T.)";"1.0";"2";"1";"1";"2";"1";"1";"2014-07-18 11:34:59.932";"2014-07-18 11:51:27.595";"1";"0";"0";"75";"74";"module.training_block2.exec-9255.GoNoGo2";;;;;;;;;;;;;;;;;;;;;;;;;;;;;;;;;;;"1262";"2014-07-18 11:40:09.006";"NST_correctLoc";"7";"1";"FINISHED";"RIGHT";"success";"399";"0";"2014-07-18 11:40:07.742";"1";;;;;;;;;;;;;;;;;;;;;;;;;;;;;;;;;;;;;;;;;;;;;
"jenmitts";"1982";;"Windows 7";"Rachel's Experiment (D.T.)";"1.0";"2";"1";"1";"2";"1";"1";"2014-07-18 11:34:59.932";"2014-07-18 11:51:27.595";"1";"0";"0";"76";"75";"module.training_block2.exec-9255.GoNoGo2";;;;;;;;;;;;;;;;;;;;;;;;;;;;;;;;;;;"1262";"2014-07-18 11:40:11.533";"NST_correctLoc";"13";"1";"FINISHED";"RIGHT";"success";"338";"0";"2014-07-18 11:40:10.269";"2";;;;;;;;;;;;;;;;;;;;;;;;;;;;;;;;;;;;;;;;;;;;;
"jenmitts";"1982";;"Windows 7";"Rachel's Experiment (D.T.)";"1.0";"2";"1";"1";"2";"1";"1";"2014-07-18 11:34:59.932";"2014-07-18 11:51:27.595";"1";"0";"0";"77";"76";"module.training_block2.exec-9255.GoNoGo2";;;;;;;;;;;;;;;;;;;;;;;;;;;;;;;;;;;"1262";"2014-07-18 11:40:14.060";"NST_correctLoc";"4";"1";"FINISHED";"RIGHT";"success";"366";"0";"2014-07-18 11:40:12.796";"1";;;;;;;;;;;;;;;;;;;;;;;;;;;;;;;;;;;;;;;;;;;;;
"jenmitts";"1982";;"Windows 7";"Rachel's Experiment (D.T.)";"1.0";"2";"1";"1";"2";"1";"1";"2014-07-18 11:34:59.932";"2014-07-18 11:51:27.595";"1";"0";"0";"78";"77";"module.training_block2.exec-9255.GoNoGo2";;;;;;;;;;;;;;;;;;;;;;;;;;;;;;;;;;;"1262";"2014-07-18 11:40:16.587";"NST_correctLoc";"18";"0";"FINISHED";"LEFT";"success";"383";"0";"2014-07-18 11:40:15.324";"3";;;;;;;;;;;;;;;;;;;;;;;;;;;;;;;;;;;;;;;;;;;;;
"jenmitts";"1982";;"Windows 7";"Rachel's Experiment (D.T.)";"1.0";"2";"1";"1";"2";"1";"1";"2014-07-18 11:34:59.932";"2014-07-18 11:51:27.595";"1";"0";"0";"79";"78";"module.training_block2.exec-9255.GoNoGo2";;;;;;;;;;;;;;;;;;;;;;;;;;;;;;;;;;;"1262";"2014-07-18 11:40:19.115";"NST_correctLoc";"27";"0";"FINISHED";"LEFT";"success";"393";"0";"2014-07-18 11:40:17.851";"3";;;;;;;;;;;;;;;;;;;;;;;;;;;;;;;;;;;;;;;;;;;;;
"jenmitts";"1982";;"Windows 7";"Rachel's Experiment (D.T.)";"1.0";"2";"1";"1";"2";"1";"1";"2014-07-18 11:34:59.932";"2014-07-18 11:51:27.595";"1";"0";"0";"80";"79";"module.training_block2.exec-9255.GoNoGo2";;;;;;;;;;;;;;;;;;;;;;;;;;;;;;;;;;;"1262";"2014-07-18 11:40:21.642";"NST_correctLoc";"29";"1";"FINISHED";"RIGHT";"success";"398";"0";"2014-07-18 11:40:20.378";"3";;;;;;;;;;;;;;;;;;;;;;;;;;;;;;;;;;;;;;;;;;;;;
"jenmitts";"1982";;"Windows 7";"Rachel's Experiment (D.T.)";"1.0";"2";"1";"1";"2";"1";"1";"2014-07-18 11:34:59.932";"2014-07-18 11:51:27.595";"1";"0";"0";"81";"80";"module.training_block2.exec-9255.GoNoGo2";;;;;;;;;;;;;;;;;;;;;;;;;;;;;;;;;;;"1262";"2014-07-18 11:40:24.169";"NST_correctLoc";"3";"1";"FINISHED";"RIGHT";"success";"427";"0";"2014-07-18 11:40:22.906";"1";;;;;;;;;;;;;;;;;;;;;;;;;;;;;;;;;;;;;;;;;;;;;
"jenmitts";"1982";;"Windows 7";"Rachel's Experiment (D.T.)";"1.0";"2";"1";"1";"2";"1";"1";"2014-07-18 11:34:59.932";"2014-07-18 11:51:27.595";"1";"0";"0";"82";"81";"module.training_block2.exec-9255.GoNoGo2";;;;;;;;;;;;;;;;;;;;;;;;;;;;;;;;;;;"1262";"2014-07-18 11:40:26.697";"NST_correctLoc";"12";"0";"FINISHED";"LEFT";"success";"510";"0";"2014-07-18 11:40:25.433";"2";;;;;;;;;;;;;;;;;;;;;;;;;;;;;;;;;;;;;;;;;;;;;
"jenmitts";"1982";;"Windows 7";"Rachel's Experiment (D.T.)";"1.0";"2";"1";"1";"2";"1";"1";"2014-07-18 11:34:59.932";"2014-07-18 11:51:27.595";"1";"0";"0";"83";"82";"module.training_block2.exec-9255.GoNoGo2";;;;;;;;;;;;;;;;;;;;;;;;;;;;;;;;;;;"1262";"2014-07-18 11:40:29.224";"NST_correctLoc";"0";"0";"FINISHED";"LEFT";"success";"419";"0";"2014-07-18 11:40:27.960";"1";;;;;;;;;;;;;;;;;;;;;;;;;;;;;;;;;;;;;;;;;;;;;
"jenmitts";"1982";;"Windows 7";"Rachel's Experiment (D.T.)";"1.0";"2";"1";"1";"2";"1";"1";"2014-07-18 11:34:59.932";"2014-07-18 11:51:27.595";"1";"0";"0";"84";"83";"module.training_block2.exec-9255.GoNoGo2";;;;;;;;;;;;;;;;;;;;;;;;;;;;;;;;;;;"1262";"2014-07-18 11:40:31.751";"NST_correctLoc";"24";"0";"FINISHED";"LEFT";"success";"355";"0";"2014-07-18 11:40:30.487";"3";;;;;;;;;;;;;;;;;;;;;;;;;;;;;;;;;;;;;;;;;;;;;
"jenmitts";"1982";;"Windows 7";"Rachel's Experiment (D.T.)";"1.0";"2";"1";"1";"2";"1";"1";"2014-07-18 11:34:59.932";"2014-07-18 11:51:27.595";"1";"0";"0";"85";"84";"module.training_block2.exec-9255.GoNoGo2";;;;;;;;;;;;;;;;;;;;;;;;;;;;;;;;;;;"1262";"2014-07-18 11:40:34.278";"NST_correctLoc";"6";"0";"FINISHED";"LEFT";"success";"357";"0";"2014-07-18 11:40:33.015";"1";;;;;;;;;;;;;;;;;;;;;;;;;;;;;;;;;;;;;;;;;;;;;
"jenmitts";"1982";;"Windows 7";"Rachel's Experiment (D.T.)";"1.0";"2";"1";"1";"2";"1";"1";"2014-07-18 11:34:59.932";"2014-07-18 11:51:27.595";"1";"0";"0";"86";"85";"module.training_block2.exec-9255.GoNoGo2";;;;;;;;;;;;;;;;;;;;;;;;;;;;;;;;;;;"1262";"2014-07-18 11:40:36.806";"NST_correctLoc";"35";"0";"FINISHED";"LEFT";"success";"363";"0";"2014-07-18 11:40:35.542";"3";;;;;;;;;;;;;;;;;;;;;;;;;;;;;;;;;;;;;;;;;;;;;
"jenmitts";"1982";;"Windows 7";"Rachel's Experiment (D.T.)";"1.0";"2";"1";"1";"2";"1";"1";"2014-07-18 11:34:59.932";"2014-07-18 11:51:27.595";"1";"0";"0";"87";"86";"module.training_block2.exec-9255.GoNoGo2";;;;;;;;;;;;;;;;;;;;;;;;;;;;;;;;;;;"1262";"2014-07-18 11:40:39.333";"NST_correctLoc";"30";"1";"FINISHED";"RIGHT";"success";"417";"0";"2014-07-18 11:40:38.069";"3";;;;;;;;;;;;;;;;;;;;;;;;;;;;;;;;;;;;;;;;;;;;;
"jenmitts";"1982";;"Windows 7";"Rachel's Experiment (D.T.)";"1.0";"2";"1";"1";"2";"1";"1";"2014-07-18 11:34:59.932";"2014-07-18 11:51:27.595";"1";"0";"0";"88";"87";"module.training_block3.exec-8108.GoNoGo3";;;;;;;;;;;;;;;;;;;;;;;;;;;;;;;;;;;;;;;;;;;;;;;"1262";"2014-07-18 11:40:50.831";"NST_correctLoc";"28";"0";"FINISHED";"LEFT";"success";"393";"0";"2014-07-18 11:40:49.567";"3";;;;;;;;;;;;;;;;;;;;;;;;;;;;;;;;;
"jenmitts";"1982";;"Windows 7";"Rachel's Experiment (D.T.)";"1.0";"2";"1";"1";"2";"1";"1";"2014-07-18 11:34:59.932";"2014-07-18 11:51:27.595";"1";"0";"0";"89";"88";"module.training_block3.exec-8108.GoNoGo3";;;;;;;;;;;;;;;;;;;;;;;;;;;;;;;;;;;;;;;;;;;;;;;"1262";"2014-07-18 11:40:53.358";"NST_correctLoc";"5";"0";"FINISHED";"LEFT";"success";"343";"0";"2014-07-18 11:40:52.094";"1";;;;;;;;;;;;;;;;;;;;;;;;;;;;;;;;;
"jenmitts";"1982";;"Windows 7";"Rachel's Experiment (D.T.)";"1.0";"2";"1";"1";"2";"1";"1";"2014-07-18 11:34:59.932";"2014-07-18 11:51:27.595";"1";"0";"0";"90";"89";"module.training_block3.exec-8108.GoNoGo3";;;;;;;;;;;;;;;;;;;;;;;;;;;;;;;;;;;;;;;;;;;;;;;"1262";"2014-07-18 11:40:55.885";"NST_correctLoc";"17";"1";"FINISHED";"RIGHT";"success";"308";"0";"2014-07-18 11:40:54.621";"2";;;;;;;;;;;;;;;;;;;;;;;;;;;;;;;;;
"jenmitts";"1982";;"Windows 7";"Rachel's Experiment (D.T.)";"1.0";"2";"1";"1";"2";"1";"1";"2014-07-18 11:34:59.932";"2014-07-18 11:51:27.595";"1";"0";"0";"91";"90";"module.training_block3.exec-8108.GoNoGo3";;;;;;;;;;;;;;;;;;;;;;;;;;;;;;;;;;;;;;;;;;;;;;;"1262";"2014-07-18 11:40:58.412";"NST_correctLoc";"7";"0";"FINISHED";"LEFT";"success";"310";"0";"2014-07-18 11:40:57.149";"1";;;;;;;;;;;;;;;;;;;;;;;;;;;;;;;;;
"jenmitts";"1982";;"Windows 7";"Rachel's Experiment (D.T.)";"1.0";"2";"1";"1";"2";"1";"1";"2014-07-18 11:34:59.932";"2014-07-18 11:51:27.595";"1";"0";"0";"92";"91";"module.training_block3.exec-8108.GoNoGo3";;;;;;;;;;;;;;;;;;;;;;;;;;;;;;;;;;;;;;;;;;;;;;;"1262";"2014-07-18 11:41:00.940";"NST_correctLoc";"8";"1";"FINISHED";"RIGHT";"success";"294";"0";"2014-07-18 11:40:59.676";"1";;;;;;;;;;;;;;;;;;;;;;;;;;;;;;;;;
"jenmitts";"1982";;"Windows 7";"Rachel's Experiment (D.T.)";"1.0";"2";"1";"1";"2";"1";"1";"2014-07-18 11:34:59.932";"2014-07-18 11:51:27.595";"1";"0";"0";"93";"92";"module.training_block3.exec-8108.GoNoGo3";;;;;;;;;;;;;;;;;;;;;;;;;;;;;;;;;;;;;;;;;;;;;;;"1262";"2014-07-18 11:41:03.467";"NST_correctLoc";"27";"0";"FINISHED";"LEFT";"success";"285";"0";"2014-07-18 11:41:02.203";"3";;;;;;;;;;;;;;;;;;;;;;;;;;;;;;;;;
"jenmitts";"1982";;"Windows 7";"Rachel's Experiment (D.T.)";"1.0";"2";"1";"1";"2";"1";"1";"2014-07-18 11:34:59.932";"2014-07-18 11:51:27.595";"1";"0";"0";"94";"93";"module.training_block3.exec-8108.GoNoGo3";;;;;;;;;;;;;;;;;;;;;;;;;;;;;;;;;;;;;;;;;;;;;;;"1262";"2014-07-18 11:41:05.994";"NST_correctLoc";"24";"0";"FINISHED";"LEFT";"success";"394";"0";"2014-07-18 11:41:04.731";"3";;;;;;;;;;;;;;;;;;;;;;;;;;;;;;;;;
"jenmitts";"1982";;"Windows 7";"Rachel's Experiment (D.T.)";"1.0";"2";"1";"1";"2";"1";"1";"2014-07-18 11:34:59.932";"2014-07-18 11:51:27.595";"1";"0";"0";"95";"94";"module.training_block3.exec-8108.GoNoGo3";;;;;;;;;;;;;;;;;;;;;;;;;;;;;;;;;;;;;;;;;;;;;;;"1262";"2014-07-18 11:41:08.521";"NST_correctLoc";"20";"0";"FINISHED";"LEFT";"success";"326";"0";"2014-07-18 11:41:07.258";"3";;;;;;;;;;;;;;;;;;;;;;;;;;;;;;;;;
"jenmitts";"1982";;"Windows 7";"Rachel's Experiment (D.T.)";"1.0";"2";"1";"1";"2";"1";"1";"2014-07-18 11:34:59.932";"2014-07-18 11:51:27.595";"1";"0";"0";"96";"95";"module.training_block3.exec-8108.GoNoGo3";;;;;;;;;;;;;;;;;;;;;;;;;;;;;;;;;;;;;;;;;;;;;;;"1262";"2014-07-18 11:41:11.049";"NST_correctLoc";"19";"0";"FINISHED";"LEFT";"success";"317";"0";"2014-07-18 11:41:09.785";"3";;;;;;;;;;;;;;;;;;;;;;;;;;;;;;;;;
"jenmitts";"1982";;"Windows 7";"Rachel's Experiment (D.T.)";"1.0";"2";"1";"1";"2";"1";"1";"2014-07-18 11:34:59.932";"2014-07-18 11:51:27.595";"1";"0";"0";"97";"96";"module.training_block3.exec-8108.GoNoGo3";;;;;;;;;;;;;;;;;;;;;;;;;;;;;;;;;;;;;;;;;;;;;;;"1262";"2014-07-18 11:41:13.576";"NST_correctLoc";"21";"1";"FINISHED";"RIGHT";"success";"323";"0";"2014-07-18 11:41:12.312";"3";;;;;;;;;;;;;;;;;;;;;;;;;;;;;;;;;
"jenmitts";"1982";;"Windows 7";"Rachel's Experiment (D.T.)";"1.0";"2";"1";"1";"2";"1";"1";"2014-07-18 11:34:59.932";"2014-07-18 11:51:27.595";"1";"0";"0";"98";"97";"module.training_block3.exec-8108.GoNoGo3";;;;;;;;;;;;;;;;;;;;;;;;;;;;;;;;;;;;;;;;;;;;;;;"1262";"2014-07-18 11:41:16.103";"NST_correctLoc";"25";"1";"FINISHED";"RIGHT";"success";"410";"0";"2014-07-18 11:41:14.840";"3";;;;;;;;;;;;;;;;;;;;;;;;;;;;;;;;;
"jenmitts";"1982";;"Windows 7";"Rachel's Experiment (D.T.)";"1.0";"2";"1";"1";"2";"1";"1";"2014-07-18 11:34:59.932";"2014-07-18 11:51:27.595";"1";"0";"0";"99";"98";"module.training_block3.exec-8108.GoNoGo3";;;;;;;;;;;;;;;;;;;;;;;;;;;;;;;;;;;;;;;;;;;;;;;"1262";"2014-07-18 11:41:18.631";"NST_correctLoc";"12";"0";"FINISHED";"LEFT";"success";"342";"0";"2014-07-18 11:41:17.367";"2";;;;;;;;;;;;;;;;;;;;;;;;;;;;;;;;;
"jenmitts";"1982";;"Windows 7";"Rachel's Experiment (D.T.)";"1.0";"2";"1";"1";"2";"1";"1";"2014-07-18 11:34:59.932";"2014-07-18 11:51:27.595";"1";"0";"0";"100";"99";"module.training_block3.exec-8108.GoNoGo3";;;;;;;;;;;;;;;;;;;;;;;;;;;;;;;;;;;;;;;;;;;;;;;"1262";"2014-07-18 11:41:21.158";"NST_correctLoc";"2";"0";"FINISHED";"LEFT";"success";"326";"0";"2014-07-18 11:41:19.894";"1";;;;;;;;;;;;;;;;;;;;;;;;;;;;;;;;;
"jenmitts";"1982";;"Windows 7";"Rachel's Experiment (D.T.)";"1.0";"2";"1";"1";"2";"1";"1";"2014-07-18 11:34:59.932";"2014-07-18 11:51:27.595";"1";"0";"0";"101";"100";"module.training_block3.exec-8108.GoNoGo3";;;;;;;;;;;;;;;;;;;;;;;;;;;;;;;;;;;;;;;;;;;;;;;"1262";"2014-07-18 11:41:23.685";"NST_correctLoc";"11";"1";"FINISHED";"RIGHT";"success";"327";"0";"2014-07-18 11:41:22.422";"2";;;;;;;;;;;;;;;;;;;;;;;;;;;;;;;;;
"jenmitts";"1982";;"Windows 7";"Rachel's Experiment (D.T.)";"1.0";"2";"1";"1";"2";"1";"1";"2014-07-18 11:34:59.932";"2014-07-18 11:51:27.595";"1";"0";"0";"102";"101";"module.training_block3.exec-8108.GoNoGo3";;;;;;;;;;;;;;;;;;;;;;;;;;;;;;;;;;;;;;;;;;;;;;;"1262";"2014-07-18 11:41:26.212";"NST_correctLoc";"3";"1";"FINISHED";"RIGHT";"success";"370";"0";"2014-07-18 11:41:24.949";"1";;;;;;;;;;;;;;;;;;;;;;;;;;;;;;;;;
"jenmitts";"1982";;"Windows 7";"Rachel's Experiment (D.T.)";"1.0";"2";"1";"1";"2";"1";"1";"2014-07-18 11:34:59.932";"2014-07-18 11:51:27.595";"1";"0";"0";"103";"102";"module.training_block3.exec-8108.GoNoGo3";;;;;;;;;;;;;;;;;;;;;;;;;;;;;;;;;;;;;;;;;;;;;;;"1262";"2014-07-18 11:41:28.740";"NST_correctLoc";"30";"0";"FINISHED";"LEFT";"success";"339";"0";"2014-07-18 11:41:27.476";"3";;;;;;;;;;;;;;;;;;;;;;;;;;;;;;;;;
"jenmitts";"1982";;"Windows 7";"Rachel's Experiment (D.T.)";"1.0";"2";"1";"1";"2";"1";"1";"2014-07-18 11:34:59.932";"2014-07-18 11:51:27.595";"1";"0";"0";"104";"103";"module.training_block3.exec-8108.GoNoGo3";;;;;;;;;;;;;;;;;;;;;;;;;;;;;;;;;;;;;;;;;;;;;;;"1262";"2014-07-18 11:41:31.267";"NST_correctLoc";"15";"1";"FINISHED";"RIGHT";"success";"327";"0";"2014-07-18 11:41:30.003";"2";;;;;;;;;;;;;;;;;;;;;;;;;;;;;;;;;
"jenmitts";"1982";;"Windows 7";"Rachel's Experiment (D.T.)";"1.0";"2";"1";"1";"2";"1";"1";"2014-07-18 11:34:59.932";"2014-07-18 11:51:27.595";"1";"0";"0";"105";"104";"module.training_block3.exec-8108.GoNoGo3";;;;;;;;;;;;;;;;;;;;;;;;;;;;;;;;;;;;;;;;;;;;;;;"1262";"2014-07-18 11:41:33.794";"NST_correctLoc";"35";"0";"FINISHED";"LEFT";"success";"328";"0";"2014-07-18 11:41:32.531";"3";;;;;;;;;;;;;;;;;;;;;;;;;;;;;;;;;
"jenmitts";"1982";;"Windows 7";"Rachel's Experiment (D.T.)";"1.0";"2";"1";"1";"2";"1";"1";"2014-07-18 11:34:59.932";"2014-07-18 11:51:27.595";"1";"0";"0";"106";"105";"module.training_block3.exec-8108.GoNoGo3";;;;;;;;;;;;;;;;;;;;;;;;;;;;;;;;;;;;;;;;;;;;;;;"1262";"2014-07-18 11:41:36.322";"NST_correctLoc";"23";"1";"FINISHED";"RIGHT";"success";"301";"0";"2014-07-18 11:41:35.058";"3";;;;;;;;;;;;;;;;;;;;;;;;;;;;;;;;;
"jenmitts";"1982";;"Windows 7";"Rachel's Experiment (D.T.)";"1.0";"2";"1";"1";"2";"1";"1";"2014-07-18 11:34:59.932";"2014-07-18 11:51:27.595";"1";"0";"0";"107";"106";"module.training_block3.exec-8108.GoNoGo3";;;;;;;;;;;;;;;;;;;;;;;;;;;;;;;;;;;;;;;;;;;;;;;"1262";"2014-07-18 11:41:38.849";"NST_correctLoc";"26";"0";"FINISHED";"LEFT";"success";"318";"0";"2014-07-18 11:41:37.585";"3";;;;;;;;;;;;;;;;;;;;;;;;;;;;;;;;;
"jenmitts";"1982";;"Windows 7";"Rachel's Experiment (D.T.)";"1.0";"2";"1";"1";"2";"1";"1";"2014-07-18 11:34:59.932";"2014-07-18 11:51:27.595";"1";"0";"0";"108";"107";"module.training_block3.exec-8108.GoNoGo3";;;;;;;;;;;;;;;;;;;;;;;;;;;;;;;;;;;;;;;;;;;;;;;"1262";"2014-07-18 11:41:41.376";"NST_correctLoc";"10";"1";"FINISHED";"RIGHT";"success";"335";"0";"2014-07-18 11:41:40.112";"2";;;;;;;;;;;;;;;;;;;;;;;;;;;;;;;;;
"jenmitts";"1982";;"Windows 7";"Rachel's Experiment (D.T.)";"1.0";"2";"1";"1";"2";"1";"1";"2014-07-18 11:34:59.932";"2014-07-18 11:51:27.595";"1";"0";"0";"109";"108";"module.training_block3.exec-8108.GoNoGo3";;;;;;;;;;;;;;;;;;;;;;;;;;;;;;;;;;;;;;;;;;;;;;;"1262";"2014-07-18 11:41:43.903";"NST_correctLoc";"29";"0";"FINISHED";"LEFT";"success";"337";"0";"2014-07-18 11:41:42.640";"3";;;;;;;;;;;;;;;;;;;;;;;;;;;;;;;;;
"jenmitts";"1982";;"Windows 7";"Rachel's Experiment (D.T.)";"1.0";"2";"1";"1";"2";"1";"1";"2014-07-18 11:34:59.932";"2014-07-18 11:51:27.595";"1";"0";"0";"110";"109";"module.training_block3.exec-8108.GoNoGo3";;;;;;;;;;;;;;;;;;;;;;;;;;;;;;;;;;;;;;;;;;;;;;;"1262";"2014-07-18 11:41:46.431";"NST_correctLoc";"0";"1";"FINISHED";"RIGHT";"success";"309";"0";"2014-07-18 11:41:45.167";"1";;;;;;;;;;;;;;;;;;;;;;;;;;;;;;;;;
"jenmitts";"1982";;"Windows 7";"Rachel's Experiment (D.T.)";"1.0";"2";"1";"1";"2";"1";"1";"2014-07-18 11:34:59.932";"2014-07-18 11:51:27.595";"1";"0";"0";"111";"110";"module.training_block3.exec-8108.GoNoGo3";;;;;;;;;;;;;;;;;;;;;;;;;;;;;;;;;;;;;;;;;;;;;;;"1262";"2014-07-18 11:41:48.958";"NST_correctLoc";"14";"1";"FINISHED";"RIGHT";"success";"393";"0";"2014-07-18 11:41:47.694";"2";;;;;;;;;;;;;;;;;;;;;;;;;;;;;;;;;
"jenmitts";"1982";;"Windows 7";"Rachel's Experiment (D.T.)";"1.0";"2";"1";"1";"2";"1";"1";"2014-07-18 11:34:59.932";"2014-07-18 11:51:27.595";"1";"0";"0";"112";"111";"module.training_block3.exec-8108.GoNoGo3";;;;;;;;;;;;;;;;;;;;;;;;;;;;;;;;;;;;;;;;;;;;;;;"1262";"2014-07-18 11:41:51.485";"NST_correctLoc";"6";"0";"FINISHED";"LEFT";"success";"284";"0";"2014-07-18 11:41:50.222";"1";;;;;;;;;;;;;;;;;;;;;;;;;;;;;;;;;
"jenmitts";"1982";;"Windows 7";"Rachel's Experiment (D.T.)";"1.0";"2";"1";"1";"2";"1";"1";"2014-07-18 11:34:59.932";"2014-07-18 11:51:27.595";"1";"0";"0";"113";"112";"module.training_block3.exec-8108.GoNoGo3";;;;;;;;;;;;;;;;;;;;;;;;;;;;;;;;;;;;;;;;;;;;;;;"1262";"2014-07-18 11:41:54.013";"NST_correctLoc";"33";"0";"FINISHED";"LEFT";"success";"500";"0";"2014-07-18 11:41:52.749";"3";;;;;;;;;;;;;;;;;;;;;;;;;;;;;;;;;
"jenmitts";"1982";;"Windows 7";"Rachel's Experiment (D.T.)";"1.0";"2";"1";"1";"2";"1";"1";"2014-07-18 11:34:59.932";"2014-07-18 11:51:27.595";"1";"0";"0";"114";"113";"module.training_block3.exec-8108.GoNoGo3";;;;;;;;;;;;;;;;;;;;;;;;;;;;;;;;;;;;;;;;;;;;;;;"1262";"2014-07-18 11:41:56.540";"NST_correctLoc";"1";"1";"FINISHED";"RIGHT";"success";"310";"0";"2014-07-18 11:41:55.276";"1";;;;;;;;;;;;;;;;;;;;;;;;;;;;;;;;;
"jenmitts";"1982";;"Windows 7";"Rachel's Experiment (D.T.)";"1.0";"2";"1";"1";"2";"1";"1";"2014-07-18 11:34:59.932";"2014-07-18 11:51:27.595";"1";"0";"0";"115";"114";"module.training_block3.exec-8108.GoNoGo3";;;;;;;;;;;;;;;;;;;;;;;;;;;;;;;;;;;;;;;;;;;;;;;"1262";"2014-07-18 11:41:59.067";"NST_correctLoc";"16";"0";"FINISHED";"LEFT";"success";"319";"0";"2014-07-18 11:41:57.803";"2";;;;;;;;;;;;;;;;;;;;;;;;;;;;;;;;;
"jenmitts";"1982";;"Windows 7";"Rachel's Experiment (D.T.)";"1.0";"2";"1";"1";"2";"1";"1";"2014-07-18 11:34:59.932";"2014-07-18 11:51:27.595";"1";"0";"0";"116";"115";"module.training_block3.exec-8108.GoNoGo3";;;;;;;;;;;;;;;;;;;;;;;;;;;;;;;;;;;;;;;;;;;;;;;"1262";"2014-07-18 11:42:01.594";"NST_correctLoc";"22";"0";"FINISHED";"LEFT";"success";"414";"0";"2014-07-18 11:42:00.331";"3";;;;;;;;;;;;;;;;;;;;;;;;;;;;;;;;;
"jenmitts";"1982";;"Windows 7";"Rachel's Experiment (D.T.)";"1.0";"2";"1";"1";"2";"1";"1";"2014-07-18 11:34:59.932";"2014-07-18 11:51:27.595";"1";"0";"0";"117";"116";"module.training_block3.exec-8108.GoNoGo3";;;;;;;;;;;;;;;;;;;;;;;;;;;;;;;;;;;;;;;;;;;;;;;"1262";"2014-07-18 11:42:04.122";"NST_correctLoc";"31";"1";"FINISHED";"RIGHT";"success";"327";"0";"2014-07-18 11:42:02.858";"3";;;;;;;;;;;;;;;;;;;;;;;;;;;;;;;;;
"jenmitts";"1982";;"Windows 7";"Rachel's Experiment (D.T.)";"1.0";"2";"1";"1";"2";"1";"1";"2014-07-18 11:34:59.932";"2014-07-18 11:51:27.595";"1";"0";"0";"118";"117";"module.training_block3.exec-8108.GoNoGo3";;;;;;;;;;;;;;;;;;;;;;;;;;;;;;;;;;;;;;;;;;;;;;;"1262";"2014-07-18 11:42:06.649";"NST_correctLoc";"32";"1";"FINISHED";"RIGHT";"success";"418";"0";"2014-07-18 11:42:05.385";"3";;;;;;;;;;;;;;;;;;;;;;;;;;;;;;;;;
"jenmitts";"1982";;"Windows 7";"Rachel's Experiment (D.T.)";"1.0";"2";"1";"1";"2";"1";"1";"2014-07-18 11:34:59.932";"2014-07-18 11:51:27.595";"1";"0";"0";"119";"118";"module.training_block3.exec-8108.GoNoGo3";;;;;;;;;;;;;;;;;;;;;;;;;;;;;;;;;;;;;;;;;;;;;;;"1262";"2014-07-18 11:42:09.176";"NST_correctLoc";"18";"1";"FINISHED";"RIGHT";"success";"398";"0";"2014-07-18 11:42:07.913";"3";;;;;;;;;;;;;;;;;;;;;;;;;;;;;;;;;
"jenmitts";"1982";;"Windows 7";"Rachel's Experiment (D.T.)";"1.0";"2";"1";"1";"2";"1";"1";"2014-07-18 11:34:59.932";"2014-07-18 11:51:27.595";"1";"0";"0";"120";"119";"module.training_block3.exec-8108.GoNoGo3";;;;;;;;;;;;;;;;;;;;;;;;;;;;;;;;;;;;;;;;;;;;;;;"1262";"2014-07-18 11:42:11.704";"NST_correctLoc";"4";"1";"FINISHED";"RIGHT";"success";"356";"0";"2014-07-18 11:42:10.440";"1";;;;;;;;;;;;;;;;;;;;;;;;;;;;;;;;;
"jenmitts";"1982";;"Windows 7";"Rachel's Experiment (D.T.)";"1.0";"2";"1";"1";"2";"1";"1";"2014-07-18 11:34:59.932";"2014-07-18 11:51:27.595";"1";"0";"0";"121";"120";"module.training_block3.exec-8108.GoNoGo3";;;;;;;;;;;;;;;;;;;;;;;;;;;;;;;;;;;;;;;;;;;;;;;"1262";"2014-07-18 11:42:14.231";"NST_correctLoc";"13";"0";"FINISHED";"LEFT";"success";"369";"0";"2014-07-18 11:42:12.967";"2";;;;;;;;;;;;;;;;;;;;;;;;;;;;;;;;;
"jenmitts";"1982";;"Windows 7";"Rachel's Experiment (D.T.)";"1.0";"2";"1";"1";"2";"1";"1";"2014-07-18 11:34:59.932";"2014-07-18 11:51:27.595";"1";"0";"0";"122";"121";"module.training_block3.exec-8108.GoNoGo3";;;;;;;;;;;;;;;;;;;;;;;;;;;;;;;;;;;;;;;;;;;;;;;"1262";"2014-07-18 11:42:16.758";"NST_correctLoc";"34";"0";"FINISHED";"LEFT";"success";"378";"0";"2014-07-18 11:42:15.494";"3";;;;;;;;;;;;;;;;;;;;;;;;;;;;;;;;;
"jenmitts";"1982";;"Windows 7";"Rachel's Experiment (D.T.)";"1.0";"2";"1";"1";"2";"1";"1";"2014-07-18 11:34:59.932";"2014-07-18 11:51:27.595";"1";"0";"0";"123";"122";"module.training_block3.exec-8108.GoNoGo3";;;;;;;;;;;;;;;;;;;;;;;;;;;;;;;;;;;;;;;;;;;;;;;"1262";"2014-07-18 11:42:19.285";"NST_correctLoc";"9";"0";"FINISHED";"LEFT";"success";"402";"0";"2014-07-18 11:42:18.022";"2";;;;;;;;;;;;;;;;;;;;;;;;;;;;;;;;;
"jenmitts";"1982";;"Windows 7";"Rachel's Experiment (D.T.)";"1.0";"2";"1";"1";"2";"1";"1";"2014-07-18 11:34:59.932";"2014-07-18 11:51:27.595";"1";"0";"0";"124";"123";"module.training_block4.exec-8307.GoNoGo4";;;;;;;;;;;;;;;;;;;;;;;;;;;;;;;;;;;;;;;;;;;;;;;;;;;;;;;;;;;"1262";"2014-07-18 11:42:32.015";"NST_correctLoc";"11";"0";"FINISHED";"LEFT";"success";"518";"0";"2014-07-18 11:42:30.752";"2";;;;;;;;;;;;;;;;;;;;;
"jenmitts";"1982";;"Windows 7";"Rachel's Experiment (D.T.)";"1.0";"2";"1";"1";"2";"1";"1";"2014-07-18 11:34:59.932";"2014-07-18 11:51:27.595";"1";"0";"0";"125";"124";"module.training_block4.exec-8307.GoNoGo4";;;;;;;;;;;;;;;;;;;;;;;;;;;;;;;;;;;;;;;;;;;;;;;;;;;;;;;;;;;"1262";"2014-07-18 11:42:34.543";"NST_correctLoc";"9";"0";"FINISHED";"LEFT";"success";"394";"0";"2014-07-18 11:42:33.279";"2";;;;;;;;;;;;;;;;;;;;;
"jenmitts";"1982";;"Windows 7";"Rachel's Experiment (D.T.)";"1.0";"2";"1";"1";"2";"1";"1";"2014-07-18 11:34:59.932";"2014-07-18 11:51:27.595";"1";"0";"0";"126";"125";"module.training_block4.exec-8307.GoNoGo4";;;;;;;;;;;;;;;;;;;;;;;;;;;;;;;;;;;;;;;;;;;;;;;;;;;;;;;;;;;"1262";"2014-07-18 11:42:37.070";"NST_correctLoc";"32";"0";"FINISHED";"LEFT";"success";"389";"0";"2014-07-18 11:42:35.806";"3";;;;;;;;;;;;;;;;;;;;;
"jenmitts";"1982";;"Windows 7";"Rachel's Experiment (D.T.)";"1.0";"2";"1";"1";"2";"1";"1";"2014-07-18 11:34:59.932";"2014-07-18 11:51:27.595";"1";"0";"0";"127";"126";"module.training_block4.exec-8307.GoNoGo4";;;;;;;;;;;;;;;;;;;;;;;;;;;;;;;;;;;;;;;;;;;;;;;;;;;;;;;;;;;"1262";"2014-07-18 11:42:39.597";"NST_correctLoc";"35";"1";"FINISHED";"RIGHT";"success";"302";"0";"2014-07-18 11:42:38.334";"3";;;;;;;;;;;;;;;;;;;;;
"jenmitts";"1982";;"Windows 7";"Rachel's Experiment (D.T.)";"1.0";"2";"1";"1";"2";"1";"1";"2014-07-18 11:34:59.932";"2014-07-18 11:51:27.595";"1";"0";"0";"128";"127";"module.training_block4.exec-8307.GoNoGo4";;;;;;;;;;;;;;;;;;;;;;;;;;;;;;;;;;;;;;;;;;;;;;;;;;;;;;;;;;;"1262";"2014-07-18 11:42:42.124";"NST_correctLoc";"4";"1";"FINISHED";"RIGHT";"success";"364";"0";"2014-07-18 11:42:40.861";"1";;;;;;;;;;;;;;;;;;;;;
"jenmitts";"1982";;"Windows 7";"Rachel's Experiment (D.T.)";"1.0";"2";"1";"1";"2";"1";"1";"2014-07-18 11:34:59.932";"2014-07-18 11:51:27.595";"1";"0";"0";"129";"128";"module.training_block4.exec-8307.GoNoGo4";;;;;;;;;;;;;;;;;;;;;;;;;;;;;;;;;;;;;;;;;;;;;;;;;;;;;;;;;;;"1262";"2014-07-18 11:42:44.652";"NST_correctLoc";"30";"1";"FINISHED";"RIGHT";"success";"362";"0";"2014-07-18 11:42:43.388";"3";;;;;;;;;;;;;;;;;;;;;
"jenmitts";"1982";;"Windows 7";"Rachel's Experiment (D.T.)";"1.0";"2";"1";"1";"2";"1";"1";"2014-07-18 11:34:59.932";"2014-07-18 11:51:27.595";"1";"0";"0";"130";"129";"module.training_block4.exec-8307.GoNoGo4";;;;;;;;;;;;;;;;;;;;;;;;;;;;;;;;;;;;;;;;;;;;;;;;;;;;;;;;;;;"1262";"2014-07-18 11:42:47.179";"NST_correctLoc";"17";"0";"FINISHED";"LEFT";"success";"328";"0";"2014-07-18 11:42:45.915";"2";;;;;;;;;;;;;;;;;;;;;
"jenmitts";"1982";;"Windows 7";"Rachel's Experiment (D.T.)";"1.0";"2";"1";"1";"2";"1";"1";"2014-07-18 11:34:59.932";"2014-07-18 11:51:27.595";"1";"0";"0";"131";"130";"module.training_block4.exec-8307.GoNoGo4";;;;;;;;;;;;;;;;;;;;;;;;;;;;;;;;;;;;;;;;;;;;;;;;;;;;;;;;;;;"1252";"2014-07-18 11:42:49.697";"NST_correctLoc";"24";"0";"FINISHED";"LEFT";"success";"389";"0";"2014-07-18 11:42:48.443";"3";;;;;;;;;;;;;;;;;;;;;
"jenmitts";"1982";;"Windows 7";"Rachel's Experiment (D.T.)";"1.0";"2";"1";"1";"2";"1";"1";"2014-07-18 11:34:59.932";"2014-07-18 11:51:27.595";"1";"0";"0";"132";"131";"module.training_block4.exec-8307.GoNoGo4";;;;;;;;;;;;;;;;;;;;;;;;;;;;;;;;;;;;;;;;;;;;;;;;;;;;;;;;;;;"1249";"2014-07-18 11:42:52.199";"NST_correctLoc";"27";"0";"FINISHED";"LEFT";"success";"366";"0";"2014-07-18 11:42:50.948";"3";;;;;;;;;;;;;;;;;;;;;
"jenmitts";"1982";;"Windows 7";"Rachel's Experiment (D.T.)";"1.0";"2";"1";"1";"2";"1";"1";"2014-07-18 11:34:59.932";"2014-07-18 11:51:27.595";"1";"0";"0";"133";"132";"module.training_block4.exec-8307.GoNoGo4";;;;;;;;;;;;;;;;;;;;;;;;;;;;;;;;;;;;;;;;;;;;;;;;;;;;;;;;;;;"1250";"2014-07-18 11:42:54.709";"NST_correctLoc";"6";"1";"FINISHED";"RIGHT";"success";"341";"0";"2014-07-18 11:42:53.459";"1";;;;;;;;;;;;;;;;;;;;;
"jenmitts";"1982";;"Windows 7";"Rachel's Experiment (D.T.)";"1.0";"2";"1";"1";"2";"1";"1";"2014-07-18 11:34:59.932";"2014-07-18 11:51:27.595";"1";"0";"0";"134";"133";"module.training_block4.exec-8307.GoNoGo4";;;;;;;;;;;;;;;;;;;;;;;;;;;;;;;;;;;;;;;;;;;;;;;;;;;;;;;;;;;"1249";"2014-07-18 11:42:57.220";"NST_correctLoc";"16";"1";"FINISHED";"RIGHT";"success";"352";"0";"2014-07-18 11:42:55.970";"2";;;;;;;;;;;;;;;;;;;;;
"jenmitts";"1982";;"Windows 7";"Rachel's Experiment (D.T.)";"1.0";"2";"1";"1";"2";"1";"1";"2014-07-18 11:34:59.932";"2014-07-18 11:51:27.595";"1";"0";"0";"135";"134";"module.training_block4.exec-8307.GoNoGo4";;;;;;;;;;;;;;;;;;;;;;;;;;;;;;;;;;;;;;;;;;;;;;;;;;;;;;;;;;;"1249";"2014-07-18 11:42:59.730";"NST_correctLoc";"1";"0";"FINISHED";"LEFT";"success";"356";"0";"2014-07-18 11:42:58.480";"1";;;;;;;;;;;;;;;;;;;;;
"jenmitts";"1982";;"Windows 7";"Rachel's Experiment (D.T.)";"1.0";"2";"1";"1";"2";"1";"1";"2014-07-18 11:34:59.932";"2014-07-18 11:51:27.595";"1";"0";"0";"136";"135";"module.training_block4.exec-8307.GoNoGo4";;;;;;;;;;;;;;;;;;;;;;;;;;;;;;;;;;;;;;;;;;;;;;;;;;;;;;;;;;;"1262";"2014-07-18 11:43:02.290";"NST_correctLoc";"28";"0";"FINISHED";"LEFT";"success";"445";"0";"2014-07-18 11:43:01.027";"3";;;;;;;;;;;;;;;;;;;;;
"jenmitts";"1982";;"Windows 7";"Rachel's Experiment (D.T.)";"1.0";"2";"1";"1";"2";"1";"1";"2014-07-18 11:34:59.932";"2014-07-18 11:51:27.595";"1";"0";"0";"137";"136";"module.training_block4.exec-8307.GoNoGo4";;;;;;;;;;;;;;;;;;;;;;;;;;;;;;;;;;;;;;;;;;;;;;;;;;;;;;;;;;;"1262";"2014-07-18 11:43:04.818";"NST_correctLoc";"25";"1";"FINISHED";"RIGHT";"success";"384";"0";"2014-07-18 11:43:03.554";"3";;;;;;;;;;;;;;;;;;;;;
"jenmitts";"1982";;"Windows 7";"Rachel's Experiment (D.T.)";"1.0";"2";"1";"1";"2";"1";"1";"2014-07-18 11:34:59.932";"2014-07-18 11:51:27.595";"1";"0";"0";"138";"137";"module.training_block4.exec-8307.GoNoGo4";;;;;;;;;;;;;;;;;;;;;;;;;;;;;;;;;;;;;;;;;;;;;;;;;;;;;;;;;;;"1262";"2014-07-18 11:43:07.345";"NST_correctLoc";"26";"1";"FINISHED";"RIGHT";"success";"379";"0";"2014-07-18 11:43:06.081";"3";;;;;;;;;;;;;;;;;;;;;
"jenmitts";"1982";;"Windows 7";"Rachel's Experiment (D.T.)";"1.0";"2";"1";"1";"2";"1";"1";"2014-07-18 11:34:59.932";"2014-07-18 11:51:27.595";"1";"0";"0";"139";"138";"module.training_block4.exec-8307.GoNoGo4";;;;;;;;;;;;;;;;;;;;;;;;;;;;;;;;;;;;;;;;;;;;;;;;;;;;;;;;;;;"1262";"2014-07-18 11:43:09.872";"NST_correctLoc";"14";"1";"FINISHED";"RIGHT";"success";"347";"0";"2014-07-18 11:43:08.608";"2";;;;;;;;;;;;;;;;;;;;;
"jenmitts";"1982";;"Windows 7";"Rachel's Experiment (D.T.)";"1.0";"2";"1";"1";"2";"1";"1";"2014-07-18 11:34:59.932";"2014-07-18 11:51:27.595";"1";"0";"0";"140";"139";"module.training_block4.exec-8307.GoNoGo4";;;;;;;;;;;;;;;;;;;;;;;;;;;;;;;;;;;;;;;;;;;;;;;;;;;;;;;;;;;"1262";"2014-07-18 11:43:12.399";"NST_correctLoc";"29";"1";"FINISHED";"RIGHT";"success";"379";"0";"2014-07-18 11:43:11.136";"3";;;;;;;;;;;;;;;;;;;;;
"jenmitts";"1982";;"Windows 7";"Rachel's Experiment (D.T.)";"1.0";"2";"1";"1";"2";"1";"1";"2014-07-18 11:34:59.932";"2014-07-18 11:51:27.595";"1";"0";"0";"141";"140";"module.training_block4.exec-8307.GoNoGo4";;;;;;;;;;;;;;;;;;;;;;;;;;;;;;;;;;;;;;;;;;;;;;;;;;;;;;;;;;;"1262";"2014-07-18 11:43:14.927";"NST_correctLoc";"23";"1";"FINISHED";"RIGHT";"success";"392";"0";"2014-07-18 11:43:13.663";"3";;;;;;;;;;;;;;;;;;;;;
"jenmitts";"1982";;"Windows 7";"Rachel's Experiment (D.T.)";"1.0";"2";"1";"1";"2";"1";"1";"2014-07-18 11:34:59.932";"2014-07-18 11:51:27.595";"1";"0";"0";"142";"141";"module.training_block4.exec-8307.GoNoGo4";;;;;;;;;;;;;;;;;;;;;;;;;;;;;;;;;;;;;;;;;;;;;;;;;;;;;;;;;;;"1262";"2014-07-18 11:43:17.454";"NST_correctLoc";"18";"1";"FINISHED";"RIGHT";"success";"479";"0";"2014-07-18 11:43:16.190";"3";;;;;;;;;;;;;;;;;;;;;
"jenmitts";"1982";;"Windows 7";"Rachel's Experiment (D.T.)";"1.0";"2";"1";"1";"2";"1";"1";"2014-07-18 11:34:59.932";"2014-07-18 11:51:27.595";"1";"0";"0";"143";"142";"module.training_block4.exec-8307.GoNoGo4";;;;;;;;;;;;;;;;;;;;;;;;;;;;;;;;;;;;;;;;;;;;;;;;;;;;;;;;;;;"1262";"2014-07-18 11:43:19.981";"NST_correctLoc";"21";"1";"FINISHED";"RIGHT";"success";"352";"0";"2014-07-18 11:43:18.717";"3";;;;;;;;;;;;;;;;;;;;;
"jenmitts";"1982";;"Windows 7";"Rachel's Experiment (D.T.)";"1.0";"2";"1";"1";"2";"1";"1";"2014-07-18 11:34:59.932";"2014-07-18 11:51:27.595";"1";"0";"0";"144";"143";"module.training_block4.exec-8307.GoNoGo4";;;;;;;;;;;;;;;;;;;;;;;;;;;;;;;;;;;;;;;;;;;;;;;;;;;;;;;;;;;"1262";"2014-07-18 11:43:22.508";"NST_correctLoc";"7";"0";"FINISHED";"LEFT";"success";"465";"0";"2014-07-18 11:43:21.245";"1";;;;;;;;;;;;;;;;;;;;;
"jenmitts";"1982";;"Windows 7";"Rachel's Experiment (D.T.)";"1.0";"2";"1";"1";"2";"1";"1";"2014-07-18 11:34:59.932";"2014-07-18 11:51:27.595";"1";"0";"0";"145";"144";"module.training_block4.exec-8307.GoNoGo4";;;;;;;;;;;;;;;;;;;;;;;;;;;;;;;;;;;;;;;;;;;;;;;;;;;;;;;;;;;"1262";"2014-07-18 11:43:25.035";"NST_correctLoc";"12";"0";"FINISHED";"LEFT";"success";"430";"0";"2014-07-18 11:43:23.772";"2";;;;;;;;;;;;;;;;;;;;;
"jenmitts";"1982";;"Windows 7";"Rachel's Experiment (D.T.)";"1.0";"2";"1";"1";"2";"1";"1";"2014-07-18 11:34:59.932";"2014-07-18 11:51:27.595";"1";"0";"0";"146";"145";"module.training_block4.exec-8307.GoNoGo4";;;;;;;;;;;;;;;;;;;;;;;;;;;;;;;;;;;;;;;;;;;;;;;;;;;;;;;;;;;"1262";"2014-07-18 11:43:27.563";"NST_correctLoc";"33";"1";"FINISHED";"RIGHT";"success";"343";"0";"2014-07-18 11:43:26.299";"3";;;;;;;;;;;;;;;;;;;;;
"jenmitts";"1982";;"Windows 7";"Rachel's Experiment (D.T.)";"1.0";"2";"1";"1";"2";"1";"1";"2014-07-18 11:34:59.932";"2014-07-18 11:51:27.595";"1";"0";"0";"147";"146";"module.training_block4.exec-8307.GoNoGo4";;;;;;;;;;;;;;;;;;;;;;;;;;;;;;;;;;;;;;;;;;;;;;;;;;;;;;;;;;;"1262";"2014-07-18 11:43:30.090";"NST_correctLoc";"3";"1";"FINISHED";"RIGHT";"success";"367";"0";"2014-07-18 11:43:28.826";"1";;;;;;;;;;;;;;;;;;;;;
"jenmitts";"1982";;"Windows 7";"Rachel's Experiment (D.T.)";"1.0";"2";"1";"1";"2";"1";"1";"2014-07-18 11:34:59.932";"2014-07-18 11:51:27.595";"1";"0";"0";"148";"147";"module.training_block4.exec-8307.GoNoGo4";;;;;;;;;;;;;;;;;;;;;;;;;;;;;;;;;;;;;;;;;;;;;;;;;;;;;;;;;;;"1262";"2014-07-18 11:43:32.617";"NST_correctLoc";"22";"1";"FINISHED";"RIGHT";"success";"336";"0";"2014-07-18 11:43:31.354";"3";;;;;;;;;;;;;;;;;;;;;
"jenmitts";"1982";;"Windows 7";"Rachel's Experiment (D.T.)";"1.0";"2";"1";"1";"2";"1";"1";"2014-07-18 11:34:59.932";"2014-07-18 11:51:27.595";"1";"0";"0";"149";"148";"module.training_block4.exec-8307.GoNoGo4";;;;;;;;;;;;;;;;;;;;;;;;;;;;;;;;;;;;;;;;;;;;;;;;;;;;;;;;;;;"1262";"2014-07-18 11:43:35.144";"NST_correctLoc";"10";"1";"FINISHED";"RIGHT";"success";"349";"0";"2014-07-18 11:43:33.881";"2";;;;;;;;;;;;;;;;;;;;;
"jenmitts";"1982";;"Windows 7";"Rachel's Experiment (D.T.)";"1.0";"2";"1";"1";"2";"1";"1";"2014-07-18 11:34:59.932";"2014-07-18 11:51:27.595";"1";"0";"0";"150";"149";"module.training_block4.exec-8307.GoNoGo4";;;;;;;;;;;;;;;;;;;;;;;;;;;;;;;;;;;;;;;;;;;;;;;;;;;;;;;;;;;"1262";"2014-07-18 11:43:37.672";"NST_correctLoc";"13";"0";"FINISHED";"LEFT";"success";"374";"0";"2014-07-18 11:43:36.408";"2";;;;;;;;;;;;;;;;;;;;;
"jenmitts";"1982";;"Windows 7";"Rachel's Experiment (D.T.)";"1.0";"2";"1";"1";"2";"1";"1";"2014-07-18 11:34:59.932";"2014-07-18 11:51:27.595";"1";"0";"0";"151";"150";"module.training_block4.exec-8307.GoNoGo4";;;;;;;;;;;;;;;;;;;;;;;;;;;;;;;;;;;;;;;;;;;;;;;;;;;;;;;;;;;"1262";"2014-07-18 11:43:40.199";"NST_correctLoc";"5";"1";"FINISHED";"RIGHT";"success";"313";"0";"2014-07-18 11:43:38.935";"1";;;;;;;;;;;;;;;;;;;;;
"jenmitts";"1982";;"Windows 7";"Rachel's Experiment (D.T.)";"1.0";"2";"1";"1";"2";"1";"1";"2014-07-18 11:34:59.932";"2014-07-18 11:51:27.595";"1";"0";"0";"152";"151";"module.training_block4.exec-8307.GoNoGo4";;;;;;;;;;;;;;;;;;;;;;;;;;;;;;;;;;;;;;;;;;;;;;;;;;;;;;;;;;;"1262";"2014-07-18 11:43:42.726";"NST_correctLoc";"2";"1";"FINISHED";"RIGHT";"success";"337";"0";"2014-07-18 11:43:41.462";"1";;;;;;;;;;;;;;;;;;;;;
"jenmitts";"1982";;"Windows 7";"Rachel's Experiment (D.T.)";"1.0";"2";"1";"1";"2";"1";"1";"2014-07-18 11:34:59.932";"2014-07-18 11:51:27.595";"1";"0";"0";"153";"152";"module.training_block4.exec-8307.GoNoGo4";;;;;;;;;;;;;;;;;;;;;;;;;;;;;;;;;;;;;;;;;;;;;;;;;;;;;;;;;;;"1262";"2014-07-18 11:43:45.253";"NST_correctLoc";"15";"1";"FINISHED";"RIGHT";"success";"376";"0";"2014-07-18 11:43:43.990";"2";;;;;;;;;;;;;;;;;;;;;
"jenmitts";"1982";;"Windows 7";"Rachel's Experiment (D.T.)";"1.0";"2";"1";"1";"2";"1";"1";"2014-07-18 11:34:59.932";"2014-07-18 11:51:27.595";"1";"0";"0";"154";"153";"module.training_block4.exec-8307.GoNoGo4";;;;;;;;;;;;;;;;;;;;;;;;;;;;;;;;;;;;;;;;;;;;;;;;;;;;;;;;;;;"1262";"2014-07-18 11:43:47.781";"NST_correctLoc";"19";"1";"FINISHED";"RIGHT";"success";"382";"0";"2014-07-18 11:43:46.517";"3";;;;;;;;;;;;;;;;;;;;;
"jenmitts";"1982";;"Windows 7";"Rachel's Experiment (D.T.)";"1.0";"2";"1";"1";"2";"1";"1";"2014-07-18 11:34:59.932";"2014-07-18 11:51:27.595";"1";"0";"0";"155";"154";"module.training_block4.exec-8307.GoNoGo4";;;;;;;;;;;;;;;;;;;;;;;;;;;;;;;;;;;;;;;;;;;;;;;;;;;;;;;;;;;"1262";"2014-07-18 11:43:50.308";"NST_correctLoc";"0";"0";"FINISHED";"LEFT";"success";"347";"0";"2014-07-18 11:43:49.044";"1";;;;;;;;;;;;;;;;;;;;;
"jenmitts";"1982";;"Windows 7";"Rachel's Experiment (D.T.)";"1.0";"2";"1";"1";"2";"1";"1";"2014-07-18 11:34:59.932";"2014-07-18 11:51:27.595";"1";"0";"0";"156";"155";"module.training_block4.exec-8307.GoNoGo4";;;;;;;;;;;;;;;;;;;;;;;;;;;;;;;;;;;;;;;;;;;;;;;;;;;;;;;;;;;"1262";"2014-07-18 11:43:52.835";"NST_correctLoc";"34";"0";"FINISHED";"LEFT";"success";"427";"0";"2014-07-18 11:43:51.571";"3";;;;;;;;;;;;;;;;;;;;;
"jenmitts";"1982";;"Windows 7";"Rachel's Experiment (D.T.)";"1.0";"2";"1";"1";"2";"1";"1";"2014-07-18 11:34:59.932";"2014-07-18 11:51:27.595";"1";"0";"0";"157";"156";"module.training_block4.exec-8307.GoNoGo4";;;;;;;;;;;;;;;;;;;;;;;;;;;;;;;;;;;;;;;;;;;;;;;;;;;;;;;;;;;"1262";"2014-07-18 11:43:55.362";"NST_correctLoc";"31";"1";"FINISHED";"RIGHT";"success";"336";"0";"2014-07-18 11:43:54.099";"3";;;;;;;;;;;;;;;;;;;;;
"jenmitts";"1982";;"Windows 7";"Rachel's Experiment (D.T.)";"1.0";"2";"1";"1";"2";"1";"1";"2014-07-18 11:34:59.932";"2014-07-18 11:51:27.595";"1";"0";"0";"158";"157";"module.training_block4.exec-8307.GoNoGo4";;;;;;;;;;;;;;;;;;;;;;;;;;;;;;;;;;;;;;;;;;;;;;;;;;;;;;;;;;;"1262";"2014-07-18 11:43:57.889";"NST_correctLoc";"20";"1";"FINISHED";"RIGHT";"success";"335";"0";"2014-07-18 11:43:56.626";"3";;;;;;;;;;;;;;;;;;;;;
"jenmitts";"1982";;"Windows 7";"Rachel's Experiment (D.T.)";"1.0";"2";"1";"1";"2";"1";"1";"2014-07-18 11:34:59.932";"2014-07-18 11:51:27.595";"1";"0";"0";"159";"158";"module.training_block4.exec-8307.GoNoGo4";;;;;;;;;;;;;;;;;;;;;;;;;;;;;;;;;;;;;;;;;;;;;;;;;;;;;;;;;;;"1262";"2014-07-18 11:44:00.417";"NST_correctLoc";"8";"1";"FINISHED";"RIGHT";"success";"362";"0";"2014-07-18 11:43:59.153";"1";;;;;;;;;;;;;;;;;;;;;
"jenmitts";"1982";;"Windows 7";"Rachel's Experiment (D.T.)";"1.0";"2";"1";"1";"2";"1";"1";"2014-07-18 11:34:59.932";"2014-07-18 11:51:27.595";"1";"0";"0";"160";"159";"module.devaluation_practice.exec-2424.devalPractice";;;;;;;;;;;;"20522";"2014-07-18 11:45:44.704";"0";"2";"2";"3";"10141";"3269";"4073";"2014-07-18 11:45:24.190";;;;;;;;;;;;;;;;;;;;;;;;;;;;;;;;;;;;;;;;;;;;;;;;;;;;;;;;;;;;;;;;;;;;;;
"jenmitts";"1982";;"Windows 7";"Rachel's Experiment (D.T.)";"1.0";"2";"1";"1";"2";"1";"1";"2014-07-18 11:34:59.932";"2014-07-18 11:51:27.595";"1";"0";"0";"161";"160";"module.devaluation_practice.exec-2424.devalPractice";;;;;;;;;;;;"13049";"2014-07-18 11:45:57.777";"1";"7";"8";"7";"3169";"3013";"3849";"2014-07-18 11:45:44.720";;;;;;;;;;;;;;;;;;;;;;;;;;;;;;;;;;;;;;;;;;;;;;;;;;;;;;;;;;;;;;;;;;;;;;
"jenmitts";"1982";;"Windows 7";"Rachel's Experiment (D.T.)";"1.0";"2";"1";"1";"2";"1";"1";"2014-07-18 11:34:59.932";"2014-07-18 11:51:27.595";"1";"0";"0";"162";"161";"module.devaluation_practice.exec-2424.devalPractice";;;;;;;;;;;;"12480";"2014-07-18 11:46:10.273";"2";"6";"4";"6";"2585";"4348";"2508";"2014-07-18 11:45:57.793";;;;;;;;;;;;;;;;;;;;;;;;;;;;;;;;;;;;;;;;;;;;;;;;;;;;;;;;;;;;;;;;;;;;;;
"jenmitts";"1982";;"Windows 7";"Rachel's Experiment (D.T.)";"1.0";"2";"1";"1";"2";"1";"1";"2014-07-18 11:34:59.932";"2014-07-18 11:51:27.595";"1";"0";"0";"163";"162";"module.devaluation_practice.exec-2424.devalPractice";;;;;;;;;;;;"16162";"2014-07-18 11:46:26.435";"3";"5";"3";"5";"5614";"4177";"3342";"2014-07-18 11:46:10.273";;;;;;;;;;;;;;;;;;;;;;;;;;;;;;;;;;;;;;;;;;;;;;;;;;;;;;;;;;;;;;;;;;;;;;
"jenmitts";"1982";;"Windows 7";"Rachel's Experiment (D.T.)";"1.0";"2";"1";"1";"2";"1";"1";"2014-07-18 11:34:59.932";"2014-07-18 11:51:27.595";"1";"0";"0";"164";"163";"module.devaluation_block1.exec-8647.deval1";"11602";"2014-07-18 11:46:44.827";"24";"6";"4";"7";"3822";"1480";"3273";"2014-07-18 11:46:33.221";"3";;;;;;;;;;;;;;;;;;;;;;;;;;;;;;;;;;;;;;;;;;;;;;;;;;;;;;;;;;;;;;;;;;;;;;;;;;;;;;;;
"jenmitts";"1982";;"Windows 7";"Rachel's Experiment (D.T.)";"1.0";"2";"1";"1";"2";"1";"1";"2014-07-18 11:34:59.932";"2014-07-18 11:51:27.595";"1";"0";"0";"165";"164";"module.devaluation_block1.exec-8647.deval1";"10168";"2014-07-18 11:46:54.999";"4";"6";"3";"6";"2593";"1151";"3386";"2014-07-18 11:46:44.843";"1";;;;;;;;;;;;;;;;;;;;;;;;;;;;;;;;;;;;;;;;;;;;;;;;;;;;;;;;;;;;;;;;;;;;;;;;;;;;;;;;
"jenmitts";"1982";;"Windows 7";"Rachel's Experiment (D.T.)";"1.0";"2";"1";"1";"2";"1";"1";"2014-07-18 11:34:59.932";"2014-07-18 11:51:27.595";"1";"0";"0";"166";"165";"module.devaluation_block1.exec-8647.deval1";"10748";"2014-07-18 11:47:05.763";"1";"6";"5";"7";"5102";"930";"1687";"2014-07-18 11:46:55.014";"1";;;;;;;;;;;;;;;;;;;;;;;;;;;;;;;;;;;;;;;;;;;;;;;;;;;;;;;;;;;;;;;;;;;;;;;;;;;;;;;;
"jenmitts";"1982";;"Windows 7";"Rachel's Experiment (D.T.)";"1.0";"2";"1";"1";"2";"1";"1";"2014-07-18 11:34:59.932";"2014-07-18 11:51:27.595";"1";"0";"0";"167";"166";"module.devaluation_block1.exec-8647.deval1";"14205";"2014-07-18 11:47:19.990";"13";"7";"4";"6";"5044";"3199";"2937";"2014-07-18 11:47:05.778";"2";;;;;;;;;;;;;;;;;;;;;;;;;;;;;;;;;;;;;;;;;;;;;;;;;;;;;;;;;;;;;;;;;;;;;;;;;;;;;;;;
"jenmitts";"1982";;"Windows 7";"Rachel's Experiment (D.T.)";"1.0";"2";"1";"1";"2";"1";"1";"2014-07-18 11:34:59.932";"2014-07-18 11:51:27.595";"1";"0";"0";"168";"167";"module.devaluation_block1.exec-8647.deval1";"10598";"2014-07-18 11:47:30.598";"6";"7";"6";"8";"1535";"2562";"3482";"2014-07-18 11:47:19.990";"1";;;;;;;;;;;;;;;;;;;;;;;;;;;;;;;;;;;;;;;;;;;;;;;;;;;;;;;;;;;;;;;;;;;;;;;;;;;;;;;;
"jenmitts";"1982";;"Windows 7";"Rachel's Experiment (D.T.)";"1.0";"2";"1";"1";"2";"1";"1";"2014-07-18 11:34:59.932";"2014-07-18 11:51:27.595";"1";"0";"0";"169";"168";"module.devaluation_block1.exec-8647.deval1";"9748";"2014-07-18 11:47:40.364";"19";"8";"7";"8";"2517";"1247";"2957";"2014-07-18 11:47:30.614";"3";;;;;;;;;;;;;;;;;;;;;;;;;;;;;;;;;;;;;;;;;;;;;;;;;;;;;;;;;;;;;;;;;;;;;;;;;;;;;;;;
"jenmitts";"1982";;"Windows 7";"Rachel's Experiment (D.T.)";"1.0";"2";"1";"1";"2";"1";"1";"2014-07-18 11:34:59.932";"2014-07-18 11:51:27.595";"1";"0";"0";"170";"169";"module.devaluation_block1.exec-8647.deval1";"9368";"2014-07-18 11:47:49.740";"26";"9";"9";"8";"2122";"1627";"2593";"2014-07-18 11:47:40.364";"3";;;;;;;;;;;;;;;;;;;;;;;;;;;;;;;;;;;;;;;;;;;;;;;;;;;;;;;;;;;;;;;;;;;;;;;;;;;;;;;;
"jenmitts";"1982";;"Windows 7";"Rachel's Experiment (D.T.)";"1.0";"2";"1";"1";"2";"1";"1";"2014-07-18 11:34:59.932";"2014-07-18 11:51:27.595";"1";"0";"0";"171";"170";"module.devaluation_block1.exec-8647.deval1";"8468";"2014-07-18 11:47:58.226";"14";"7";"3";"5";"1819";"1201";"2428";"2014-07-18 11:47:49.755";"2";;;;;;;;;;;;;;;;;;;;;;;;;;;;;;;;;;;;;;;;;;;;;;;;;;;;;;;;;;;;;;;;;;;;;;;;;;;;;;;;
"jenmitts";"1982";;"Windows 7";"Rachel's Experiment (D.T.)";"1.0";"2";"1";"1";"2";"1";"1";"2014-07-18 11:34:59.932";"2014-07-18 11:51:27.595";"1";"0";"0";"172";"171";"module.devaluation_block1.exec-8647.deval1";"9317";"2014-07-18 11:48:07.555";"3";"5";"3";"7";"2812";"1561";"1917";"2014-07-18 11:47:58.226";"1";;;;;;;;;;;;;;;;;;;;;;;;;;;;;;;;;;;;;;;;;;;;;;;;;;;;;;;;;;;;;;;;;;;;;;;;;;;;;;;;
"jenmitts";"1982";;"Windows 7";"Rachel's Experiment (D.T.)";"1.0";"2";"1";"1";"2";"1";"1";"2014-07-18 11:34:59.932";"2014-07-18 11:51:27.595";"1";"0";"0";"173";"172";"module.devaluation_block1.exec-8647.deval1";"12450";"2014-07-18 11:48:20.019";"23";"8";"5";"7";"1698";"2496";"5230";"2014-07-18 11:48:07.571";"3";;;;;;;;;;;;;;;;;;;;;;;;;;;;;;;;;;;;;;;;;;;;;;;;;;;;;;;;;;;;;;;;;;;;;;;;;;;;;;;;
"jenmitts";"1982";;"Windows 7";"Rachel's Experiment (D.T.)";"1.0";"2";"1";"1";"2";"1";"1";"2014-07-18 11:34:59.932";"2014-07-18 11:51:27.595";"1";"0";"0";"174";"173";"module.devaluation_block1.exec-8647.deval1";"12378";"2014-07-18 11:48:32.406";"7";"5";"2";"5";"1120";"6947";"1298";"2014-07-18 11:48:20.019";"1";;;;;;;;;;;;;;;;;;;;;;;;;;;;;;;;;;;;;;;;;;;;;;;;;;;;;;;;;;;;;;;;;;;;;;;;;;;;;;;;
"jenmitts";"1982";;"Windows 7";"Rachel's Experiment (D.T.)";"1.0";"2";"1";"1";"2";"1";"1";"2014-07-18 11:34:59.932";"2014-07-18 11:51:27.595";"1";"0";"0";"175";"174";"module.devaluation_block1.exec-8647.deval1";"11018";"2014-07-18 11:48:43.435";"18";"6";"7";"7";"2481";"1490";"4013";"2014-07-18 11:48:32.422";"3";;;;;;;;;;;;;;;;;;;;;;;;;;;;;;;;;;;;;;;;;;;;;;;;;;;;;;;;;;;;;;;;;;;;;;;;;;;;;;;;
"jenmitts";"1982";;"Windows 7";"Rachel's Experiment (D.T.)";"1.0";"2";"1";"1";"2";"1";"1";"2014-07-18 11:34:59.932";"2014-07-18 11:51:27.595";"1";"0";"0";"176";"175";"module.devaluation_block1.exec-8647.deval1";"13958";"2014-07-18 11:48:57.413";"5";"6";"5";"7";"4270";"2685";"3990";"2014-07-18 11:48:43.451";"1";;;;;;;;;;;;;;;;;;;;;;;;;;;;;;;;;;;;;;;;;;;;;;;;;;;;;;;;;;;;;;;;;;;;;;;;;;;;;;;;
"jenmitts";"1982";;"Windows 7";"Rachel's Experiment (D.T.)";"1.0";"2";"1";"1";"2";"1";"1";"2014-07-18 11:34:59.932";"2014-07-18 11:51:27.595";"1";"0";"0";"177";"176";"module.devaluation_block1.exec-8647.deval1";"9548";"2014-07-18 11:49:06.976";"0";"5";"7";"7";"2822";"2621";"1062";"2014-07-18 11:48:57.428";"1";;;;;;;;;;;;;;;;;;;;;;;;;;;;;;;;;;;;;;;;;;;;;;;;;;;;;;;;;;;;;;;;;;;;;;;;;;;;;;;;
"jenmitts";"1982";;"Windows 7";"Rachel's Experiment (D.T.)";"1.0";"2";"1";"1";"2";"1";"1";"2014-07-18 11:34:59.932";"2014-07-18 11:51:27.595";"1";"0";"0";"178";"177";"module.devaluation_block1.exec-8647.deval1";"9956";"2014-07-18 11:49:16.944";"8";"9";"8";"8";"2360";"1920";"2656";"2014-07-18 11:49:06.976";"1";;;;;;;;;;;;;;;;;;;;;;;;;;;;;;;;;;;;;;;;;;;;;;;;;;;;;;;;;;;;;;;;;;;;;;;;;;;;;;;;
"jenmitts";"1982";;"Windows 7";"Rachel's Experiment (D.T.)";"1.0";"2";"1";"1";"2";"1";"1";"2014-07-18 11:34:59.932";"2014-07-18 11:51:27.595";"1";"0";"0";"179";"178";"module.devaluation_block1.exec-8647.deval1";"15968";"2014-07-18 11:49:32.919";"15";"2";"1";"3";"3477";"2815";"6650";"2014-07-18 11:49:16.944";"2";;;;;;;;;;;;;;;;;;;;;;;;;;;;;;;;;;;;;;;;;;;;;;;;;;;;;;;;;;;;;;;;;;;;;;;;;;;;;;;;
"jenmitts";"1982";;"Windows 7";"Rachel's Experiment (D.T.)";"1.0";"2";"1";"1";"2";"1";"1";"2014-07-18 11:34:59.932";"2014-07-18 11:51:27.595";"1";"0";"0";"180";"179";"module.devaluation_block1.exec-8647.deval1";"11072";"2014-07-18 11:49:44.010";"11";"7";"2";"4";"1914";"2886";"3247";"2014-07-18 11:49:32.934";"2";;;;;;;;;;;;;;;;;;;;;;;;;;;;;;;;;;;;;;;;;;;;;;;;;;;;;;;;;;;;;;;;;;;;;;;;;;;;;;;;
"jenmitts";"1982";;"Windows 7";"Rachel's Experiment (D.T.)";"1.0";"2";"1";"1";"2";"1";"1";"2014-07-18 11:34:59.932";"2014-07-18 11:51:27.595";"1";"0";"0";"181";"180";"module.devaluation_block1.exec-8647.deval1";"10805";"2014-07-18 11:49:54.821";"22";"8";"7";"8";"3528";"1162";"3101";"2014-07-18 11:49:44.010";"3";;;;;;;;;;;;;;;;;;;;;;;;;;;;;;;;;;;;;;;;;;;;;;;;;;;;;;;;;;;;;;;;;;;;;;;;;;;;;;;;
"jenmitts";"1982";;"Windows 7";"Rachel's Experiment (D.T.)";"1.0";"2";"1";"1";"2";"1";"1";"2014-07-18 11:34:59.932";"2014-07-18 11:51:27.595";"1";"0";"0";"182";"181";"module.devaluation_block1.exec-8647.deval1";"11945";"2014-07-18 11:50:06.787";"17";"2";"1";"2";"5102";"1467";"2338";"2014-07-18 11:49:54.837";"2";;;;;;;;;;;;;;;;;;;;;;;;;;;;;;;;;;;;;;;;;;;;;;;;;;;;;;;;;;;;;;;;;;;;;;;;;;;;;;;;
"jenmitts";"1982";;"Windows 7";"Rachel's Experiment (D.T.)";"1.0";"2";"1";"1";"2";"1";"1";"2014-07-18 11:34:59.932";"2014-07-18 11:51:27.595";"1";"0";"0";"183";"182";"module.devaluation_block1.exec-8647.deval1";"7044";"2014-07-18 11:50:13.838";"2";"7";"7";"7";"1531";"1083";"1404";"2014-07-18 11:50:06.787";"1";;;;;;;;;;;;;;;;;;;;;;;;;;;;;;;;;;;;;;;;;;;;;;;;;;;;;;;;;;;;;;;;;;;;;;;;;;;;;;;;
"jenmitts";"1982";;"Windows 7";"Rachel's Experiment (D.T.)";"1.0";"2";"1";"1";"2";"1";"1";"2014-07-18 11:34:59.932";"2014-07-18 11:51:27.595";"1";"0";"0";"184";"183";"module.devaluation_block1.exec-8647.deval1";"8624";"2014-07-18 11:50:22.480";"20";"6";"7";"7";"956";"968";"3673";"2014-07-18 11:50:13.853";"3";;;;;;;;;;;;;;;;;;;;;;;;;;;;;;;;;;;;;;;;;;;;;;;;;;;;;;;;;;;;;;;;;;;;;;;;;;;;;;;;
"jenmitts";"1982";;"Windows 7";"Rachel's Experiment (D.T.)";"1.0";"2";"1";"1";"2";"1";"1";"2014-07-18 11:34:59.932";"2014-07-18 11:51:27.595";"1";"0";"0";"185";"184";"module.devaluation_block1.exec-8647.deval1";"10511";"2014-07-18 11:50:32.995";"16";"2";"1";"2";"3628";"2101";"1758";"2014-07-18 11:50:22.496";"2";;;;;;;;;;;;;;;;;;;;;;;;;;;;;;;;;;;;;;;;;;;;;;;;;;;;;;;;;;;;;;;;;;;;;;;;;;;;;;;;
"jenmitts";"1982";;"Windows 7";"Rachel's Experiment (D.T.)";"1.0";"2";"1";"1";"2";"1";"1";"2014-07-18 11:34:59.932";"2014-07-18 11:51:27.595";"1";"0";"0";"186";"185";"module.devaluation_block1.exec-8647.deval1";"9133";"2014-07-18 11:50:42.152";"10";"7";"3";"6";"2868";"1201";"2028";"2014-07-18 11:50:33.010";"2";;;;;;;;;;;;;;;;;;;;;;;;;;;;;;;;;;;;;;;;;;;;;;;;;;;;;;;;;;;;;;;;;;;;;;;;;;;;;;;;
"jenmitts";"1982";;"Windows 7";"Rachel's Experiment (D.T.)";"1.0";"2";"1";"1";"2";"1";"1";"2014-07-18 11:34:59.932";"2014-07-18 11:51:27.595";"1";"0";"0";"187";"186";"module.devaluation_block1.exec-8647.deval1";"11381";"2014-07-18 11:50:53.540";"9";"4";"3";"4";"4614";"2423";"1325";"2014-07-18 11:50:42.152";"2";;;;;;;;;;;;;;;;;;;;;;;;;;;;;;;;;;;;;;;;;;;;;;;;;;;;;;;;;;;;;;;;;;;;;;;;;;;;;;;;
"jenmitts";"1982";;"Windows 7";"Rachel's Experiment (D.T.)";"1.0";"2";"1";"1";"2";"1";"1";"2014-07-18 11:34:59.932";"2014-07-18 11:51:27.595";"1";"0";"0";"188";"187";"module.devaluation_block1.exec-8647.deval1";"8263";"2014-07-18 11:51:01.824";"12";"9";"9";"9";"1881";"1700";"1659";"2014-07-18 11:50:53.556";"2";;;;;;;;;;;;;;;;;;;;;;;;;;;;;;;;;;;;;;;;;;;;;;;;;;;;;;;;;;;;;;;;;;;;;;;;;;;;;;;;
"jenmitts";"1982";;"Windows 7";"Rachel's Experiment (D.T.)";"1.0";"2";"1";"1";"2";"1";"1";"2014-07-18 11:34:59.932";"2014-07-18 11:51:27.595";"1";"0";"0";"189";"188";"module.devaluation_block1.exec-8647.deval1";"9831";"2014-07-18 11:51:11.667";"25";"7";"8";"9";"2602";"2355";"1862";"2014-07-18 11:51:01.824";"3";;;;;;;;;;;;;;;;;;;;;;;;;;;;;;;;;;;;;;;;;;;;;;;;;;;;;;;;;;;;;;;;;;;;;;;;;;;;;;;;
"jenmitts";"1982";;"Windows 7";"Rachel's Experiment (D.T.)";"1.0";"2";"1";"1";"2";"1";"1";"2014-07-18 11:34:59.932";"2014-07-18 11:51:27.595";"1";"0";"0";"190";"189";"module.devaluation_block1.exec-8647.deval1";"12217";"2014-07-18 11:51:23.898";"21";"7";"7";"7";"5937";"1029";"2239";"2014-07-18 11:51:11.667";"3";;;;;;;;;;;;;;;;;;;;;;;;;;;;;;;;;;;;;;;;;;;;;;;;;;;;;;;;;;;;;;;;;;;;;;;;;;;;;;;;
