"user.name";"user.yearOfBirth";"user.sex";"user.osName";"module.name";"module.version";"module.online.subject.code";"module.online.study.id";"module.online.module.nr";"module.online.group.nr";"session.id";"session.index";"session.startTime";"session.endTime";"session.completed";"session.node-5902.DevalQorder";"session.node-8406.conditionType";"trial.id";"trial.index";"trial.name";"trial.deval1.durationTime";"trial.deval1.endTime";"trial.deval1.icon";"trial.deval1.Resp_Attractive";"trial.deval1.Resp_Eat";"trial.deval1.Resp_Taste";"trial.deval1.RT_Attractive";"trial.deval1.RT_Eat";"trial.deval1.RT_Taste";"trial.deval1.startTime";"trial.deval1.stimulus type";"trial.devalPractice.durationTime";"trial.devalPractice.endTime";"trial.devalPractice.icon";"trial.devalPractice.Resp_Attractive";"trial.devalPractice.Resp_Eat";"trial.devalPractice.Resp_Taste";"trial.devalPractice.RT_Attractive";"trial.devalPractice.RT_Eat";"trial.devalPractice.RT_Taste";"trial.devalPractice.startTime";"trial.devalPractice.stimulus type";"trial.GoNoGo1.durationTime";"trial.GoNoGo1.endTime";"trial.GoNoGo1.Error Type";"trial.GoNoGo1.icon";"trial.GoNoGo1.location";"trial.GoNoGo1.outcome";"trial.GoNoGo1.response";"trial.GoNoGo1.result";"trial.GoNoGo1.RT";"trial.GoNoGo1.signal";"trial.GoNoGo1.startTime";"trial.GoNoGo1.stimulus type";"trial.GoNoGo2.durationTime";"trial.GoNoGo2.endTime";"trial.GoNoGo2.Error Type";"trial.GoNoGo2.icon";"trial.GoNoGo2.location";"trial.GoNoGo2.outcome";"trial.GoNoGo2.response";"trial.GoNoGo2.result";"trial.GoNoGo2.RT";"trial.GoNoGo2.signal";"trial.GoNoGo2.startTime";"trial.GoNoGo2.stimulus type";"trial.GoNoGo3.durationTime";"trial.GoNoGo3.endTime";"trial.GoNoGo3.Error Type";"trial.GoNoGo3.icon";"trial.GoNoGo3.location";"trial.GoNoGo3.outcome";"trial.GoNoGo3.response";"trial.GoNoGo3.result";"trial.GoNoGo3.RT";"trial.GoNoGo3.signal";"trial.GoNoGo3.startTime";"trial.GoNoGo3.stimulus type";"trial.GoNoGo4.durationTime";"trial.GoNoGo4.endTime";"trial.GoNoGo4.Error Type";"trial.GoNoGo4.icon";"trial.GoNoGo4.location";"trial.GoNoGo4.outcome";"trial.GoNoGo4.response";"trial.GoNoGo4.result";"trial.GoNoGo4.RT";"trial.GoNoGo4.signal";"trial.GoNoGo4.startTime";"trial.GoNoGo4.stimulus type";"trial.GoNoGo_Practice.durationTime";"trial.GoNoGo_Practice.endTime";"trial.GoNoGo_Practice.icon";"trial.GoNoGo_Practice.location";"trial.GoNoGo_Practice.outcome";"trial.GoNoGo_Practice.response";"trial.GoNoGo_Practice.result";"trial.GoNoGo_Practice.RT";"trial.GoNoGo_Practice.signal";"trial.GoNoGo_Practice.startTime";"trial.GoNoGo_Practice.stimulus type";"trial.GoNoGo_Tutorial.durationTime";"trial.GoNoGo_Tutorial.endTime";"trial.GoNoGo_Tutorial.icon";"trial.GoNoGo_Tutorial.location";"trial.GoNoGo_Tutorial.outcome";"trial.GoNoGo_Tutorial.response";"trial.GoNoGo_Tutorial.result";"trial.GoNoGo_Tutorial.RT";"trial.GoNoGo_Tutorial.signal";"trial.GoNoGo_Tutorial.startTime"
"Erika981";"1996";;"Windows 8";"Rachel's Experiment (D.T.)";"1.0";"2";"1";"1";"2";"1";"1";"2014-10-13 19:50:16.718";"2014-10-13 20:05:50.252";"1";"1";"1";"1";"0";"module.GoNoGotutorial.exec-8387.GoNoGo_Tutorial";;;;;;;;;;;;;;;;;;;;;;;;;;;;;;;;;;;;;;;;;;;;;;;;;;;;;;;;;;;;;;;;;;;;;;;;;;;;;;;;;;"4002";"2014-10-13 19:53:05.715";"leftResponse";"0";"FINISHED";"LEFT";"success";"529";"0";"2014-10-13 19:53:01.714"
"Erika981";"1996";;"Windows 8";"Rachel's Experiment (D.T.)";"1.0";"2";"1";"1";"2";"1";"1";"2014-10-13 19:50:16.718";"2014-10-13 20:05:50.252";"1";"1";"1";"2";"1";"module.GoNoGotutorial.exec-8387.GoNoGo_Tutorial";;;;;;;;;;;;;;;;;;;;;;;;;;;;;;;;;;;;;;;;;;;;;;;;;;;;;;;;;;;;;;;;;;;;;;;;;;;;;;;;;;"4000";"2014-10-13 19:53:11.034";"rightResponse";"1";"FINISHED";"RIGHT";"success";"602";"0";"2014-10-13 19:53:07.034"
"Erika981";"1996";;"Windows 8";"Rachel's Experiment (D.T.)";"1.0";"2";"1";"1";"2";"1";"1";"2014-10-13 19:50:16.718";"2014-10-13 20:05:50.252";"1";"1";"1";"3";"2";"module.GoNoGotutorial.exec-8387.GoNoGo_Tutorial";;;;;;;;;;;;;;;;;;;;;;;;;;;;;;;;;;;;;;;;;;;;;;;;;;;;;;;;;;;;;;;;;;;;;;;;;;;;;;;;;;"4000";"2014-10-13 19:53:16.349";"signalResponse";"0";"FINISHED";"NONE";"success";"0";"1";"2014-10-13 19:53:12.349"
"Erika981";"1996";;"Windows 8";"Rachel's Experiment (D.T.)";"1.0";"2";"1";"1";"2";"1";"1";"2014-10-13 19:50:16.718";"2014-10-13 20:05:50.252";"1";"1";"1";"4";"3";"module.GoNoGopractice.exec-3445.GoNoGo_Practice";;;;;;;;;;;;;;;;;;;;;;;;;;;;;;;;;;;;;;;;;;;;;;;;;;;;;;;;;;;;;;;;;;;;;;;"1963";"2014-10-13 19:53:26.170";"18";"0";"FINISHED";"LEFT";"success";"415";"0";"2014-10-13 19:53:24.207";"3";;;;;;;;;;
"Erika981";"1996";;"Windows 8";"Rachel's Experiment (D.T.)";"1.0";"2";"1";"1";"2";"1";"1";"2014-10-13 19:50:16.718";"2014-10-13 20:05:50.252";"1";"1";"1";"5";"4";"module.GoNoGopractice.exec-3445.GoNoGo_Practice";;;;;;;;;;;;;;;;;;;;;;;;;;;;;;;;;;;;;;;;;;;;;;;;;;;;;;;;;;;;;;;;;;;;;;;"1953";"2014-10-13 19:53:29.435";"21";"1";"FINISHED";"RIGHT";"success";"316";"0";"2014-10-13 19:53:27.481";"3";;;;;;;;;;
"Erika981";"1996";;"Windows 8";"Rachel's Experiment (D.T.)";"1.0";"2";"1";"1";"2";"1";"1";"2014-10-13 19:50:16.718";"2014-10-13 20:05:50.252";"1";"1";"1";"6";"5";"module.GoNoGopractice.exec-3445.GoNoGo_Practice";;;;;;;;;;;;;;;;;;;;;;;;;;;;;;;;;;;;;;;;;;;;;;;;;;;;;;;;;;;;;;;;;;;;;;;"1955";"2014-10-13 19:53:32.691";"14";"1";"FINISHED";"NONE";"success";"0";"1";"2014-10-13 19:53:30.735";"2";;;;;;;;;;
"Erika981";"1996";;"Windows 8";"Rachel's Experiment (D.T.)";"1.0";"2";"1";"1";"2";"1";"1";"2014-10-13 19:50:16.718";"2014-10-13 20:05:50.252";"1";"1";"1";"7";"6";"module.GoNoGopractice.exec-3445.GoNoGo_Practice";;;;;;;;;;;;;;;;;;;;;;;;;;;;;;;;;;;;;;;;;;;;;;;;;;;;;;;;;;;;;;;;;;;;;;;"1953";"2014-10-13 19:53:35.945";"26";"0";"FINISHED";"LEFT";"success";"354";"0";"2014-10-13 19:53:33.992";"3";;;;;;;;;;
"Erika981";"1996";;"Windows 8";"Rachel's Experiment (D.T.)";"1.0";"2";"1";"1";"2";"1";"1";"2014-10-13 19:50:16.718";"2014-10-13 20:05:50.252";"1";"1";"1";"8";"7";"module.GoNoGopractice.exec-3445.GoNoGo_Practice";;;;;;;;;;;;;;;;;;;;;;;;;;;;;;;;;;;;;;;;;;;;;;;;;;;;;;;;;;;;;;;;;;;;;;;"1952";"2014-10-13 19:53:39.211";"2";"0";"FINISHED";"LEFT";"success";"314";"0";"2014-10-13 19:53:37.259";"1";;;;;;;;;;
"Erika981";"1996";;"Windows 8";"Rachel's Experiment (D.T.)";"1.0";"2";"1";"1";"2";"1";"1";"2014-10-13 19:50:16.718";"2014-10-13 20:05:50.252";"1";"1";"1";"9";"8";"module.GoNoGopractice.exec-3445.GoNoGo_Practice";;;;;;;;;;;;;;;;;;;;;;;;;;;;;;;;;;;;;;;;;;;;;;;;;;;;;;;;;;;;;;;;;;;;;;;"1960";"2014-10-13 19:53:42.637";"30";"0";"FINISHED";"LEFT";"failure";"350";"1";"2014-10-13 19:53:40.677";"3";;;;;;;;;;
"Erika981";"1996";;"Windows 8";"Rachel's Experiment (D.T.)";"1.0";"2";"1";"1";"2";"1";"1";"2014-10-13 19:50:16.718";"2014-10-13 20:05:50.252";"1";"1";"1";"10";"9";"module.GoNoGopractice.exec-3445.GoNoGo_Practice";;;;;;;;;;;;;;;;;;;;;;;;;;;;;;;;;;;;;;;;;;;;;;;;;;;;;;;;;;;;;;;;;;;;;;;"1958";"2014-10-13 19:53:45.890";"6";"1";"FINISHED";"NONE";"success";"0";"1";"2014-10-13 19:53:43.932";"1";;;;;;;;;;
"Erika981";"1996";;"Windows 8";"Rachel's Experiment (D.T.)";"1.0";"2";"1";"1";"2";"1";"1";"2014-10-13 19:50:16.718";"2014-10-13 20:05:50.252";"1";"1";"1";"11";"10";"module.GoNoGopractice.exec-3445.GoNoGo_Practice";;;;;;;;;;;;;;;;;;;;;;;;;;;;;;;;;;;;;;;;;;;;;;;;;;;;;;;;;;;;;;;;;;;;;;;"1955";"2014-10-13 19:53:49.148";"34";"0";"FINISHED";"LEFT";"success";"472";"0";"2014-10-13 19:53:47.191";"3";;;;;;;;;;
"Erika981";"1996";;"Windows 8";"Rachel's Experiment (D.T.)";"1.0";"2";"1";"1";"2";"1";"1";"2014-10-13 19:50:16.718";"2014-10-13 20:05:50.252";"1";"1";"1";"12";"11";"module.GoNoGopractice.exec-3445.GoNoGo_Practice";;;;;;;;;;;;;;;;;;;;;;;;;;;;;;;;;;;;;;;;;;;;;;;;;;;;;;;;;;;;;;;;;;;;;;;"1954";"2014-10-13 19:53:52.398";"23";"1";"FINISHED";"RIGHT";"success";"310";"0";"2014-10-13 19:53:50.444";"3";;;;;;;;;;
"Erika981";"1996";;"Windows 8";"Rachel's Experiment (D.T.)";"1.0";"2";"1";"1";"2";"1";"1";"2014-10-13 19:50:16.718";"2014-10-13 20:05:50.252";"1";"1";"1";"13";"12";"module.GoNoGopractice.exec-3445.GoNoGo_Practice";;;;;;;;;;;;;;;;;;;;;;;;;;;;;;;;;;;;;;;;;;;;;;;;;;;;;;;;;;;;;;;;;;;;;;;"1954";"2014-10-13 19:53:55.654";"13";"0";"FINISHED";"NONE";"success";"0";"1";"2014-10-13 19:53:53.699";"2";;;;;;;;;;
"Erika981";"1996";;"Windows 8";"Rachel's Experiment (D.T.)";"1.0";"2";"1";"1";"2";"1";"1";"2014-10-13 19:50:16.718";"2014-10-13 20:05:50.252";"1";"1";"1";"14";"13";"module.GoNoGopractice.exec-3445.GoNoGo_Practice";;;;;;;;;;;;;;;;;;;;;;;;;;;;;;;;;;;;;;;;;;;;;;;;;;;;;;;;;;;;;;;;;;;;;;;"1952";"2014-10-13 19:53:58.901";"3";"1";"FINISHED";"RIGHT";"success";"417";"0";"2014-10-13 19:53:56.949";"1";;;;;;;;;;
"Erika981";"1996";;"Windows 8";"Rachel's Experiment (D.T.)";"1.0";"2";"1";"1";"2";"1";"1";"2014-10-13 19:50:16.718";"2014-10-13 20:05:50.252";"1";"1";"1";"15";"14";"module.GoNoGopractice.exec-3445.GoNoGo_Practice";;;;;;;;;;;;;;;;;;;;;;;;;;;;;;;;;;;;;;;;;;;;;;;;;;;;;;;;;;;;;;;;;;;;;;;"1952";"2014-10-13 19:54:02.150";"27";"1";"FINISHED";"NONE";"success";"0";"1";"2014-10-13 19:54:00.198";"3";;;;;;;;;;
"Erika981";"1996";;"Windows 8";"Rachel's Experiment (D.T.)";"1.0";"2";"1";"1";"2";"1";"1";"2014-10-13 19:50:16.718";"2014-10-13 20:05:50.252";"1";"1";"1";"16";"15";"module.training_block1.exec-3597.GoNoGo1";;;;;;;;;;;;;;;;;;;;;;;"1252";"2014-10-13 19:54:14.901";"NST_correctLoc";"23";"0";"FINISHED";"LEFT";"success";"364";"0";"2014-10-13 19:54:13.649";"3";;;;;;;;;;;;;;;;;;;;;;;;;;;;;;;;;;;;;;;;;;;;;;;;;;;;;;;;;
"Erika981";"1996";;"Windows 8";"Rachel's Experiment (D.T.)";"1.0";"2";"1";"1";"2";"1";"1";"2014-10-13 19:50:16.718";"2014-10-13 20:05:50.252";"1";"1";"1";"17";"16";"module.training_block1.exec-3597.GoNoGo1";;;;;;;;;;;;;;;;;;;;;;;"1250";"2014-10-13 19:54:17.449";"ST_failedStop";"7";"0";"FINISHED";"LEFT";"failure";"375";"1";"2014-10-13 19:54:16.198";"1";;;;;;;;;;;;;;;;;;;;;;;;;;;;;;;;;;;;;;;;;;;;;;;;;;;;;;;;;
"Erika981";"1996";;"Windows 8";"Rachel's Experiment (D.T.)";"1.0";"2";"1";"1";"2";"1";"1";"2014-10-13 19:50:16.718";"2014-10-13 20:05:50.252";"1";"1";"1";"18";"17";"module.training_block1.exec-3597.GoNoGo1";;;;;;;;;;;;;;;;;;;;;;;"1250";"2014-10-13 19:54:20.004";"NST_correctLoc";"20";"0";"FINISHED";"LEFT";"success";"442";"0";"2014-10-13 19:54:18.753";"3";;;;;;;;;;;;;;;;;;;;;;;;;;;;;;;;;;;;;;;;;;;;;;;;;;;;;;;;;
"Erika981";"1996";;"Windows 8";"Rachel's Experiment (D.T.)";"1.0";"2";"1";"1";"2";"1";"1";"2014-10-13 19:50:16.718";"2014-10-13 20:05:50.252";"1";"1";"1";"19";"18";"module.training_block1.exec-3597.GoNoGo1";;;;;;;;;;;;;;;;;;;;;;;"1250";"2014-10-13 19:54:22.545";"ST_correctStop";"6";"0";"FINISHED";"NONE";"success";"0";"1";"2014-10-13 19:54:21.293";"1";;;;;;;;;;;;;;;;;;;;;;;;;;;;;;;;;;;;;;;;;;;;;;;;;;;;;;;;;
"Erika981";"1996";;"Windows 8";"Rachel's Experiment (D.T.)";"1.0";"2";"1";"1";"2";"1";"1";"2014-10-13 19:50:16.718";"2014-10-13 20:05:50.252";"1";"1";"1";"20";"19";"module.training_block1.exec-3597.GoNoGo1";;;;;;;;;;;;;;;;;;;;;;;"1251";"2014-10-13 19:54:25.092";"ST_correctStop";"8";"0";"FINISHED";"NONE";"success";"0";"1";"2014-10-13 19:54:23.840";"1";;;;;;;;;;;;;;;;;;;;;;;;;;;;;;;;;;;;;;;;;;;;;;;;;;;;;;;;;
"Erika981";"1996";;"Windows 8";"Rachel's Experiment (D.T.)";"1.0";"2";"1";"1";"2";"1";"1";"2014-10-13 19:50:16.718";"2014-10-13 20:05:50.252";"1";"1";"1";"21";"20";"module.training_block1.exec-3597.GoNoGo1";;;;;;;;;;;;;;;;;;;;;;;"1250";"2014-10-13 19:54:27.636";"ST_failedStop";"5";"1";"FINISHED";"RIGHT";"failure";"366";"1";"2014-10-13 19:54:26.385";"1";;;;;;;;;;;;;;;;;;;;;;;;;;;;;;;;;;;;;;;;;;;;;;;;;;;;;;;;;
"Erika981";"1996";;"Windows 8";"Rachel's Experiment (D.T.)";"1.0";"2";"1";"1";"2";"1";"1";"2014-10-13 19:50:16.718";"2014-10-13 20:05:50.252";"1";"1";"1";"22";"21";"module.training_block1.exec-3597.GoNoGo1";;;;;;;;;;;;;;;;;;;;;;;"1250";"2014-10-13 19:54:30.180";"NST_correctLoc";"26";"1";"FINISHED";"RIGHT";"success";"350";"0";"2014-10-13 19:54:28.929";"3";;;;;;;;;;;;;;;;;;;;;;;;;;;;;;;;;;;;;;;;;;;;;;;;;;;;;;;;;
"Erika981";"1996";;"Windows 8";"Rachel's Experiment (D.T.)";"1.0";"2";"1";"1";"2";"1";"1";"2014-10-13 19:50:16.718";"2014-10-13 20:05:50.252";"1";"1";"1";"23";"22";"module.training_block1.exec-3597.GoNoGo1";;;;;;;;;;;;;;;;;;;;;;;"1250";"2014-10-13 19:54:32.732";"NST_correctLoc";"27";"1";"FINISHED";"RIGHT";"success";"382";"0";"2014-10-13 19:54:31.482";"3";;;;;;;;;;;;;;;;;;;;;;;;;;;;;;;;;;;;;;;;;;;;;;;;;;;;;;;;;
"Erika981";"1996";;"Windows 8";"Rachel's Experiment (D.T.)";"1.0";"2";"1";"1";"2";"1";"1";"2014-10-13 19:50:16.718";"2014-10-13 20:05:50.252";"1";"1";"1";"24";"23";"module.training_block1.exec-3597.GoNoGo1";;;;;;;;;;;;;;;;;;;;;;;"1249";"2014-10-13 19:54:35.276";"NST_correctLoc";"17";"0";"FINISHED";"LEFT";"success";"385";"0";"2014-10-13 19:54:34.026";"2";;;;;;;;;;;;;;;;;;;;;;;;;;;;;;;;;;;;;;;;;;;;;;;;;;;;;;;;;
"Erika981";"1996";;"Windows 8";"Rachel's Experiment (D.T.)";"1.0";"2";"1";"1";"2";"1";"1";"2014-10-13 19:50:16.718";"2014-10-13 20:05:50.252";"1";"1";"1";"25";"24";"module.training_block1.exec-3597.GoNoGo1";;;;;;;;;;;;;;;;;;;;;;;"1249";"2014-10-13 19:54:37.824";"ST_correctStop";"32";"0";"FINISHED";"NONE";"success";"0";"1";"2014-10-13 19:54:36.574";"3";;;;;;;;;;;;;;;;;;;;;;;;;;;;;;;;;;;;;;;;;;;;;;;;;;;;;;;;;
"Erika981";"1996";;"Windows 8";"Rachel's Experiment (D.T.)";"1.0";"2";"1";"1";"2";"1";"1";"2014-10-13 19:50:16.718";"2014-10-13 20:05:50.252";"1";"1";"1";"26";"25";"module.training_block1.exec-3597.GoNoGo1";;;;;;;;;;;;;;;;;;;;;;;"1250";"2014-10-13 19:54:40.365";"ST_correctStop";"29";"0";"FINISHED";"NONE";"success";"0";"1";"2014-10-13 19:54:39.115";"3";;;;;;;;;;;;;;;;;;;;;;;;;;;;;;;;;;;;;;;;;;;;;;;;;;;;;;;;;
"Erika981";"1996";;"Windows 8";"Rachel's Experiment (D.T.)";"1.0";"2";"1";"1";"2";"1";"1";"2014-10-13 19:50:16.718";"2014-10-13 20:05:50.252";"1";"1";"1";"27";"26";"module.training_block1.exec-3597.GoNoGo1";;;;;;;;;;;;;;;;;;;;;;;"1249";"2014-10-13 19:54:42.900";"ST_correctStop";"3";"0";"FINISHED";"NONE";"success";"0";"1";"2014-10-13 19:54:41.650";"1";;;;;;;;;;;;;;;;;;;;;;;;;;;;;;;;;;;;;;;;;;;;;;;;;;;;;;;;;
"Erika981";"1996";;"Windows 8";"Rachel's Experiment (D.T.)";"1.0";"2";"1";"1";"2";"1";"1";"2014-10-13 19:50:16.718";"2014-10-13 20:05:50.252";"1";"1";"1";"28";"27";"module.training_block1.exec-3597.GoNoGo1";;;;;;;;;;;;;;;;;;;;;;;"1250";"2014-10-13 19:54:45.447";"NST_correctLoc";"15";"0";"FINISHED";"LEFT";"success";"393";"0";"2014-10-13 19:54:44.197";"2";;;;;;;;;;;;;;;;;;;;;;;;;;;;;;;;;;;;;;;;;;;;;;;;;;;;;;;;;
"Erika981";"1996";;"Windows 8";"Rachel's Experiment (D.T.)";"1.0";"2";"1";"1";"2";"1";"1";"2014-10-13 19:50:16.718";"2014-10-13 20:05:50.252";"1";"1";"1";"29";"28";"module.training_block1.exec-3597.GoNoGo1";;;;;;;;;;;;;;;;;;;;;;;"1249";"2014-10-13 19:54:47.986";"NST_correctLoc";"24";"1";"FINISHED";"RIGHT";"success";"338";"0";"2014-10-13 19:54:46.735";"3";;;;;;;;;;;;;;;;;;;;;;;;;;;;;;;;;;;;;;;;;;;;;;;;;;;;;;;;;
"Erika981";"1996";;"Windows 8";"Rachel's Experiment (D.T.)";"1.0";"2";"1";"1";"2";"1";"1";"2014-10-13 19:50:16.718";"2014-10-13 20:05:50.252";"1";"1";"1";"30";"29";"module.training_block1.exec-3597.GoNoGo1";;;;;;;;;;;;;;;;;;;;;;;"1250";"2014-10-13 19:54:50.529";"NST_correctLoc";"11";"1";"FINISHED";"RIGHT";"success";"391";"0";"2014-10-13 19:54:49.278";"2";;;;;;;;;;;;;;;;;;;;;;;;;;;;;;;;;;;;;;;;;;;;;;;;;;;;;;;;;
"Erika981";"1996";;"Windows 8";"Rachel's Experiment (D.T.)";"1.0";"2";"1";"1";"2";"1";"1";"2014-10-13 19:50:16.718";"2014-10-13 20:05:50.252";"1";"1";"1";"31";"30";"module.training_block1.exec-3597.GoNoGo1";;;;;;;;;;;;;;;;;;;;;;;"1249";"2014-10-13 19:54:53.072";"NST_correctLoc";"16";"1";"FINISHED";"RIGHT";"success";"479";"0";"2014-10-13 19:54:51.822";"2";;;;;;;;;;;;;;;;;;;;;;;;;;;;;;;;;;;;;;;;;;;;;;;;;;;;;;;;;
"Erika981";"1996";;"Windows 8";"Rachel's Experiment (D.T.)";"1.0";"2";"1";"1";"2";"1";"1";"2014-10-13 19:50:16.718";"2014-10-13 20:05:50.252";"1";"1";"1";"32";"31";"module.training_block1.exec-3597.GoNoGo1";;;;;;;;;;;;;;;;;;;;;;;"1250";"2014-10-13 19:54:55.617";"NST_correctLoc";"14";"1";"FINISHED";"RIGHT";"success";"350";"0";"2014-10-13 19:54:54.366";"2";;;;;;;;;;;;;;;;;;;;;;;;;;;;;;;;;;;;;;;;;;;;;;;;;;;;;;;;;
"Erika981";"1996";;"Windows 8";"Rachel's Experiment (D.T.)";"1.0";"2";"1";"1";"2";"1";"1";"2014-10-13 19:50:16.718";"2014-10-13 20:05:50.252";"1";"1";"1";"33";"32";"module.training_block1.exec-3597.GoNoGo1";;;;;;;;;;;;;;;;;;;;;;;"1251";"2014-10-13 19:54:58.155";"NST_correctLoc";"31";"0";"FINISHED";"LEFT";"success";"346";"0";"2014-10-13 19:54:56.904";"3";;;;;;;;;;;;;;;;;;;;;;;;;;;;;;;;;;;;;;;;;;;;;;;;;;;;;;;;;
"Erika981";"1996";;"Windows 8";"Rachel's Experiment (D.T.)";"1.0";"2";"1";"1";"2";"1";"1";"2014-10-13 19:50:16.718";"2014-10-13 20:05:50.252";"1";"1";"1";"34";"33";"module.training_block1.exec-3597.GoNoGo1";;;;;;;;;;;;;;;;;;;;;;;"1250";"2014-10-13 19:55:00.692";"ST_correctStop";"1";"1";"FINISHED";"NONE";"success";"0";"1";"2014-10-13 19:54:59.441";"1";;;;;;;;;;;;;;;;;;;;;;;;;;;;;;;;;;;;;;;;;;;;;;;;;;;;;;;;;
"Erika981";"1996";;"Windows 8";"Rachel's Experiment (D.T.)";"1.0";"2";"1";"1";"2";"1";"1";"2014-10-13 19:50:16.718";"2014-10-13 20:05:50.252";"1";"1";"1";"35";"34";"module.training_block1.exec-3597.GoNoGo1";;;;;;;;;;;;;;;;;;;;;;;"1250";"2014-10-13 19:55:03.227";"ST_failedStop";"21";"0";"FINISHED";"LEFT";"failure";"438";"1";"2014-10-13 19:55:01.977";"3";;;;;;;;;;;;;;;;;;;;;;;;;;;;;;;;;;;;;;;;;;;;;;;;;;;;;;;;;
"Erika981";"1996";;"Windows 8";"Rachel's Experiment (D.T.)";"1.0";"2";"1";"1";"2";"1";"1";"2014-10-13 19:50:16.718";"2014-10-13 20:05:50.252";"1";"1";"1";"36";"35";"module.training_block1.exec-3597.GoNoGo1";;;;;;;;;;;;;;;;;;;;;;;"1249";"2014-10-13 19:55:05.764";"ST_correctStop";"28";"1";"FINISHED";"NONE";"success";"0";"1";"2014-10-13 19:55:04.513";"3";;;;;;;;;;;;;;;;;;;;;;;;;;;;;;;;;;;;;;;;;;;;;;;;;;;;;;;;;
"Erika981";"1996";;"Windows 8";"Rachel's Experiment (D.T.)";"1.0";"2";"1";"1";"2";"1";"1";"2014-10-13 19:50:16.718";"2014-10-13 20:05:50.252";"1";"1";"1";"37";"36";"module.training_block1.exec-3597.GoNoGo1";;;;;;;;;;;;;;;;;;;;;;;"1250";"2014-10-13 19:55:08.302";"NST_correctLoc";"35";"0";"FINISHED";"LEFT";"success";"348";"0";"2014-10-13 19:55:07.051";"3";;;;;;;;;;;;;;;;;;;;;;;;;;;;;;;;;;;;;;;;;;;;;;;;;;;;;;;;;
"Erika981";"1996";;"Windows 8";"Rachel's Experiment (D.T.)";"1.0";"2";"1";"1";"2";"1";"1";"2014-10-13 19:50:16.718";"2014-10-13 20:05:50.252";"1";"1";"1";"38";"37";"module.training_block1.exec-3597.GoNoGo1";;;;;;;;;;;;;;;;;;;;;;;"1250";"2014-10-13 19:55:10.837";"NST_correctLoc";"12";"1";"FINISHED";"RIGHT";"success";"412";"0";"2014-10-13 19:55:09.587";"2";;;;;;;;;;;;;;;;;;;;;;;;;;;;;;;;;;;;;;;;;;;;;;;;;;;;;;;;;
"Erika981";"1996";;"Windows 8";"Rachel's Experiment (D.T.)";"1.0";"2";"1";"1";"2";"1";"1";"2014-10-13 19:50:16.718";"2014-10-13 20:05:50.252";"1";"1";"1";"39";"38";"module.training_block1.exec-3597.GoNoGo1";;;;;;;;;;;;;;;;;;;;;;;"1249";"2014-10-13 19:55:13.378";"NST_correctLoc";"25";"0";"FINISHED";"LEFT";"success";"425";"0";"2014-10-13 19:55:12.128";"3";;;;;;;;;;;;;;;;;;;;;;;;;;;;;;;;;;;;;;;;;;;;;;;;;;;;;;;;;
"Erika981";"1996";;"Windows 8";"Rachel's Experiment (D.T.)";"1.0";"2";"1";"1";"2";"1";"1";"2014-10-13 19:50:16.718";"2014-10-13 20:05:50.252";"1";"1";"1";"40";"39";"module.training_block1.exec-3597.GoNoGo1";;;;;;;;;;;;;;;;;;;;;;;"1250";"2014-10-13 19:55:15.909";"NST_correctLoc";"13";"0";"FINISHED";"LEFT";"success";"397";"0";"2014-10-13 19:55:14.658";"2";;;;;;;;;;;;;;;;;;;;;;;;;;;;;;;;;;;;;;;;;;;;;;;;;;;;;;;;;
"Erika981";"1996";;"Windows 8";"Rachel's Experiment (D.T.)";"1.0";"2";"1";"1";"2";"1";"1";"2014-10-13 19:50:16.718";"2014-10-13 20:05:50.252";"1";"1";"1";"41";"40";"module.training_block1.exec-3597.GoNoGo1";;;;;;;;;;;;;;;;;;;;;;;"1250";"2014-10-13 19:55:18.454";"NST_correctLoc";"10";"0";"FINISHED";"LEFT";"success";"465";"0";"2014-10-13 19:55:17.203";"2";;;;;;;;;;;;;;;;;;;;;;;;;;;;;;;;;;;;;;;;;;;;;;;;;;;;;;;;;
"Erika981";"1996";;"Windows 8";"Rachel's Experiment (D.T.)";"1.0";"2";"1";"1";"2";"1";"1";"2014-10-13 19:50:16.718";"2014-10-13 20:05:50.252";"1";"1";"1";"42";"41";"module.training_block1.exec-3597.GoNoGo1";;;;;;;;;;;;;;;;;;;;;;;"1250";"2014-10-13 19:55:20.989";"ST_correctStop";"22";"1";"FINISHED";"NONE";"success";"0";"1";"2014-10-13 19:55:19.739";"3";;;;;;;;;;;;;;;;;;;;;;;;;;;;;;;;;;;;;;;;;;;;;;;;;;;;;;;;;
"Erika981";"1996";;"Windows 8";"Rachel's Experiment (D.T.)";"1.0";"2";"1";"1";"2";"1";"1";"2014-10-13 19:50:16.718";"2014-10-13 20:05:50.252";"1";"1";"1";"43";"42";"module.training_block1.exec-3597.GoNoGo1";;;;;;;;;;;;;;;;;;;;;;;"1250";"2014-10-13 19:55:23.524";"ST_correctStop";"30";"1";"FINISHED";"NONE";"success";"0";"1";"2014-10-13 19:55:22.273";"3";;;;;;;;;;;;;;;;;;;;;;;;;;;;;;;;;;;;;;;;;;;;;;;;;;;;;;;;;
"Erika981";"1996";;"Windows 8";"Rachel's Experiment (D.T.)";"1.0";"2";"1";"1";"2";"1";"1";"2014-10-13 19:50:16.718";"2014-10-13 20:05:50.252";"1";"1";"1";"44";"43";"module.training_block1.exec-3597.GoNoGo1";;;;;;;;;;;;;;;;;;;;;;;"1250";"2014-10-13 19:55:26.071";"ST_correctStop";"33";"1";"FINISHED";"NONE";"success";"0";"1";"2014-10-13 19:55:24.820";"3";;;;;;;;;;;;;;;;;;;;;;;;;;;;;;;;;;;;;;;;;;;;;;;;;;;;;;;;;
"Erika981";"1996";;"Windows 8";"Rachel's Experiment (D.T.)";"1.0";"2";"1";"1";"2";"1";"1";"2014-10-13 19:50:16.718";"2014-10-13 20:05:50.252";"1";"1";"1";"45";"44";"module.training_block1.exec-3597.GoNoGo1";;;;;;;;;;;;;;;;;;;;;;;"1250";"2014-10-13 19:55:28.608";"NST_correctLoc";"9";"0";"FINISHED";"LEFT";"success";"373";"0";"2014-10-13 19:55:27.357";"2";;;;;;;;;;;;;;;;;;;;;;;;;;;;;;;;;;;;;;;;;;;;;;;;;;;;;;;;;
"Erika981";"1996";;"Windows 8";"Rachel's Experiment (D.T.)";"1.0";"2";"1";"1";"2";"1";"1";"2014-10-13 19:50:16.718";"2014-10-13 20:05:50.252";"1";"1";"1";"46";"45";"module.training_block1.exec-3597.GoNoGo1";;;;;;;;;;;;;;;;;;;;;;;"1250";"2014-10-13 19:55:31.145";"ST_correctStop";"18";"0";"FINISHED";"NONE";"success";"0";"1";"2014-10-13 19:55:29.895";"3";;;;;;;;;;;;;;;;;;;;;;;;;;;;;;;;;;;;;;;;;;;;;;;;;;;;;;;;;
"Erika981";"1996";;"Windows 8";"Rachel's Experiment (D.T.)";"1.0";"2";"1";"1";"2";"1";"1";"2014-10-13 19:50:16.718";"2014-10-13 20:05:50.252";"1";"1";"1";"47";"46";"module.training_block1.exec-3597.GoNoGo1";;;;;;;;;;;;;;;;;;;;;;;"1249";"2014-10-13 19:55:33.678";"NST_correctLoc";"34";"0";"FINISHED";"LEFT";"success";"372";"0";"2014-10-13 19:55:32.427";"3";;;;;;;;;;;;;;;;;;;;;;;;;;;;;;;;;;;;;;;;;;;;;;;;;;;;;;;;;
"Erika981";"1996";;"Windows 8";"Rachel's Experiment (D.T.)";"1.0";"2";"1";"1";"2";"1";"1";"2014-10-13 19:50:16.718";"2014-10-13 20:05:50.252";"1";"1";"1";"48";"47";"module.training_block1.exec-3597.GoNoGo1";;;;;;;;;;;;;;;;;;;;;;;"1249";"2014-10-13 19:55:36.216";"ST_correctStop";"4";"0";"FINISHED";"NONE";"success";"0";"1";"2014-10-13 19:55:34.966";"1";;;;;;;;;;;;;;;;;;;;;;;;;;;;;;;;;;;;;;;;;;;;;;;;;;;;;;;;;
"Erika981";"1996";;"Windows 8";"Rachel's Experiment (D.T.)";"1.0";"2";"1";"1";"2";"1";"1";"2014-10-13 19:50:16.718";"2014-10-13 20:05:50.252";"1";"1";"1";"49";"48";"module.training_block1.exec-3597.GoNoGo1";;;;;;;;;;;;;;;;;;;;;;;"1250";"2014-10-13 19:55:38.764";"ST_correctStop";"19";"0";"FINISHED";"NONE";"success";"0";"1";"2014-10-13 19:55:37.514";"3";;;;;;;;;;;;;;;;;;;;;;;;;;;;;;;;;;;;;;;;;;;;;;;;;;;;;;;;;
"Erika981";"1996";;"Windows 8";"Rachel's Experiment (D.T.)";"1.0";"2";"1";"1";"2";"1";"1";"2014-10-13 19:50:16.718";"2014-10-13 20:05:50.252";"1";"1";"1";"50";"49";"module.training_block1.exec-3597.GoNoGo1";;;;;;;;;;;;;;;;;;;;;;;"1250";"2014-10-13 19:55:41.300";"ST_correctStop";"0";"1";"FINISHED";"NONE";"success";"0";"1";"2014-10-13 19:55:40.049";"1";;;;;;;;;;;;;;;;;;;;;;;;;;;;;;;;;;;;;;;;;;;;;;;;;;;;;;;;;
"Erika981";"1996";;"Windows 8";"Rachel's Experiment (D.T.)";"1.0";"2";"1";"1";"2";"1";"1";"2014-10-13 19:50:16.718";"2014-10-13 20:05:50.252";"1";"1";"1";"51";"50";"module.training_block1.exec-3597.GoNoGo1";;;;;;;;;;;;;;;;;;;;;;;"1250";"2014-10-13 19:55:43.837";"ST_correctStop";"2";"1";"FINISHED";"NONE";"success";"0";"1";"2014-10-13 19:55:42.586";"1";;;;;;;;;;;;;;;;;;;;;;;;;;;;;;;;;;;;;;;;;;;;;;;;;;;;;;;;;
"Erika981";"1996";;"Windows 8";"Rachel's Experiment (D.T.)";"1.0";"2";"1";"1";"2";"1";"1";"2014-10-13 19:50:16.718";"2014-10-13 20:05:50.252";"1";"1";"1";"52";"51";"module.training_block2.exec-9419.GoNoGo2";;;;;;;;;;;;;;;;;;;;;;;;;;;;;;;;;;;"1250";"2014-10-13 19:55:55.272";"NST_correctLoc";"13";"1";"FINISHED";"RIGHT";"success";"327";"0";"2014-10-13 19:55:54.022";"2";;;;;;;;;;;;;;;;;;;;;;;;;;;;;;;;;;;;;;;;;;;;;
"Erika981";"1996";;"Windows 8";"Rachel's Experiment (D.T.)";"1.0";"2";"1";"1";"2";"1";"1";"2014-10-13 19:50:16.718";"2014-10-13 20:05:50.252";"1";"1";"1";"53";"52";"module.training_block2.exec-9419.GoNoGo2";;;;;;;;;;;;;;;;;;;;;;;;;;;;;;;;;;;"1250";"2014-10-13 19:55:57.802";"NST_correctLoc";"14";"1";"FINISHED";"RIGHT";"success";"338";"0";"2014-10-13 19:55:56.552";"2";;;;;;;;;;;;;;;;;;;;;;;;;;;;;;;;;;;;;;;;;;;;;
"Erika981";"1996";;"Windows 8";"Rachel's Experiment (D.T.)";"1.0";"2";"1";"1";"2";"1";"1";"2014-10-13 19:50:16.718";"2014-10-13 20:05:50.252";"1";"1";"1";"54";"53";"module.training_block2.exec-9419.GoNoGo2";;;;;;;;;;;;;;;;;;;;;;;;;;;;;;;;;;;"1250";"2014-10-13 19:56:00.331";"NST_correctLoc";"9";"1";"FINISHED";"RIGHT";"success";"386";"0";"2014-10-13 19:55:59.081";"2";;;;;;;;;;;;;;;;;;;;;;;;;;;;;;;;;;;;;;;;;;;;;
"Erika981";"1996";;"Windows 8";"Rachel's Experiment (D.T.)";"1.0";"2";"1";"1";"2";"1";"1";"2014-10-13 19:50:16.718";"2014-10-13 20:05:50.252";"1";"1";"1";"55";"54";"module.training_block2.exec-9419.GoNoGo2";;;;;;;;;;;;;;;;;;;;;;;;;;;;;;;;;;;"1250";"2014-10-13 19:56:02.873";"NST_correctLoc";"17";"0";"FINISHED";"LEFT";"success";"521";"0";"2014-10-13 19:56:01.623";"2";;;;;;;;;;;;;;;;;;;;;;;;;;;;;;;;;;;;;;;;;;;;;
"Erika981";"1996";;"Windows 8";"Rachel's Experiment (D.T.)";"1.0";"2";"1";"1";"2";"1";"1";"2014-10-13 19:50:16.718";"2014-10-13 20:05:50.252";"1";"1";"1";"56";"55";"module.training_block2.exec-9419.GoNoGo2";;;;;;;;;;;;;;;;;;;;;;;;;;;;;;;;;;;"1250";"2014-10-13 19:56:05.404";"ST_correctStop";"1";"0";"FINISHED";"NONE";"success";"0";"1";"2014-10-13 19:56:04.153";"1";;;;;;;;;;;;;;;;;;;;;;;;;;;;;;;;;;;;;;;;;;;;;
"Erika981";"1996";;"Windows 8";"Rachel's Experiment (D.T.)";"1.0";"2";"1";"1";"2";"1";"1";"2014-10-13 19:50:16.718";"2014-10-13 20:05:50.252";"1";"1";"1";"57";"56";"module.training_block2.exec-9419.GoNoGo2";;;;;;;;;;;;;;;;;;;;;;;;;;;;;;;;;;;"1250";"2014-10-13 19:56:07.939";"ST_correctStop";"8";"1";"FINISHED";"NONE";"success";"0";"1";"2014-10-13 19:56:06.689";"1";;;;;;;;;;;;;;;;;;;;;;;;;;;;;;;;;;;;;;;;;;;;;
"Erika981";"1996";;"Windows 8";"Rachel's Experiment (D.T.)";"1.0";"2";"1";"1";"2";"1";"1";"2014-10-13 19:50:16.718";"2014-10-13 20:05:50.252";"1";"1";"1";"58";"57";"module.training_block2.exec-9419.GoNoGo2";;;;;;;;;;;;;;;;;;;;;;;;;;;;;;;;;;;"1250";"2014-10-13 19:56:10.469";"ST_correctStop";"30";"1";"FINISHED";"NONE";"success";"0";"1";"2014-10-13 19:56:09.219";"3";;;;;;;;;;;;;;;;;;;;;;;;;;;;;;;;;;;;;;;;;;;;;
"Erika981";"1996";;"Windows 8";"Rachel's Experiment (D.T.)";"1.0";"2";"1";"1";"2";"1";"1";"2014-10-13 19:50:16.718";"2014-10-13 20:05:50.252";"1";"1";"1";"59";"58";"module.training_block2.exec-9419.GoNoGo2";;;;;;;;;;;;;;;;;;;;;;;;;;;;;;;;;;;"1250";"2014-10-13 19:56:13.026";"ST_correctStop";"22";"1";"FINISHED";"NONE";"success";"0";"1";"2014-10-13 19:56:11.775";"3";;;;;;;;;;;;;;;;;;;;;;;;;;;;;;;;;;;;;;;;;;;;;
"Erika981";"1996";;"Windows 8";"Rachel's Experiment (D.T.)";"1.0";"2";"1";"1";"2";"1";"1";"2014-10-13 19:50:16.718";"2014-10-13 20:05:50.252";"1";"1";"1";"60";"59";"module.training_block2.exec-9419.GoNoGo2";;;;;;;;;;;;;;;;;;;;;;;;;;;;;;;;;;;"1249";"2014-10-13 19:56:15.556";"NST_correctLoc";"25";"1";"FINISHED";"RIGHT";"success";"531";"0";"2014-10-13 19:56:14.306";"3";;;;;;;;;;;;;;;;;;;;;;;;;;;;;;;;;;;;;;;;;;;;;
"Erika981";"1996";;"Windows 8";"Rachel's Experiment (D.T.)";"1.0";"2";"1";"1";"2";"1";"1";"2014-10-13 19:50:16.718";"2014-10-13 20:05:50.252";"1";"1";"1";"61";"60";"module.training_block2.exec-9419.GoNoGo2";;;;;;;;;;;;;;;;;;;;;;;;;;;;;;;;;;;"1250";"2014-10-13 19:56:18.088";"NST_correctLoc";"15";"1";"FINISHED";"RIGHT";"success";"403";"0";"2014-10-13 19:56:16.837";"2";;;;;;;;;;;;;;;;;;;;;;;;;;;;;;;;;;;;;;;;;;;;;
"Erika981";"1996";;"Windows 8";"Rachel's Experiment (D.T.)";"1.0";"2";"1";"1";"2";"1";"1";"2014-10-13 19:50:16.718";"2014-10-13 20:05:50.252";"1";"1";"1";"62";"61";"module.training_block2.exec-9419.GoNoGo2";;;;;;;;;;;;;;;;;;;;;;;;;;;;;;;;;;;"1250";"2014-10-13 19:56:20.629";"NST_correctLoc";"29";"1";"FINISHED";"RIGHT";"success";"377";"0";"2014-10-13 19:56:19.378";"3";;;;;;;;;;;;;;;;;;;;;;;;;;;;;;;;;;;;;;;;;;;;;
"Erika981";"1996";;"Windows 8";"Rachel's Experiment (D.T.)";"1.0";"2";"1";"1";"2";"1";"1";"2014-10-13 19:50:16.718";"2014-10-13 20:05:50.252";"1";"1";"1";"63";"62";"module.training_block2.exec-9419.GoNoGo2";;;;;;;;;;;;;;;;;;;;;;;;;;;;;;;;;;;"1250";"2014-10-13 19:56:23.162";"ST_correctStop";"4";"0";"FINISHED";"NONE";"success";"0";"1";"2014-10-13 19:56:21.912";"1";;;;;;;;;;;;;;;;;;;;;;;;;;;;;;;;;;;;;;;;;;;;;
"Erika981";"1996";;"Windows 8";"Rachel's Experiment (D.T.)";"1.0";"2";"1";"1";"2";"1";"1";"2014-10-13 19:50:16.718";"2014-10-13 20:05:50.252";"1";"1";"1";"64";"63";"module.training_block2.exec-9419.GoNoGo2";;;;;;;;;;;;;;;;;;;;;;;;;;;;;;;;;;;"1250";"2014-10-13 19:56:25.741";"NST_correctLoc";"12";"1";"FINISHED";"RIGHT";"success";"397";"0";"2014-10-13 19:56:24.491";"2";;;;;;;;;;;;;;;;;;;;;;;;;;;;;;;;;;;;;;;;;;;;;
"Erika981";"1996";;"Windows 8";"Rachel's Experiment (D.T.)";"1.0";"2";"1";"1";"2";"1";"1";"2014-10-13 19:50:16.718";"2014-10-13 20:05:50.252";"1";"1";"1";"65";"64";"module.training_block2.exec-9419.GoNoGo2";;;;;;;;;;;;;;;;;;;;;;;;;;;;;;;;;;;"1250";"2014-10-13 19:56:28.270";"ST_correctStop";"2";"0";"FINISHED";"NONE";"success";"0";"1";"2014-10-13 19:56:27.020";"1";;;;;;;;;;;;;;;;;;;;;;;;;;;;;;;;;;;;;;;;;;;;;
"Erika981";"1996";;"Windows 8";"Rachel's Experiment (D.T.)";"1.0";"2";"1";"1";"2";"1";"1";"2014-10-13 19:50:16.718";"2014-10-13 20:05:50.252";"1";"1";"1";"66";"65";"module.training_block2.exec-9419.GoNoGo2";;;;;;;;;;;;;;;;;;;;;;;;;;;;;;;;;;;"1250";"2014-10-13 19:56:30.800";"NST_correctLoc";"19";"1";"FINISHED";"RIGHT";"success";"405";"0";"2014-10-13 19:56:29.549";"3";;;;;;;;;;;;;;;;;;;;;;;;;;;;;;;;;;;;;;;;;;;;;
"Erika981";"1996";;"Windows 8";"Rachel's Experiment (D.T.)";"1.0";"2";"1";"1";"2";"1";"1";"2014-10-13 19:50:16.718";"2014-10-13 20:05:50.252";"1";"1";"1";"67";"66";"module.training_block2.exec-9419.GoNoGo2";;;;;;;;;;;;;;;;;;;;;;;;;;;;;;;;;;;"1250";"2014-10-13 19:56:33.330";"ST_correctStop";"0";"1";"FINISHED";"NONE";"success";"0";"1";"2014-10-13 19:56:32.079";"1";;;;;;;;;;;;;;;;;;;;;;;;;;;;;;;;;;;;;;;;;;;;;
"Erika981";"1996";;"Windows 8";"Rachel's Experiment (D.T.)";"1.0";"2";"1";"1";"2";"1";"1";"2014-10-13 19:50:16.718";"2014-10-13 20:05:50.252";"1";"1";"1";"68";"67";"module.training_block2.exec-9419.GoNoGo2";;;;;;;;;;;;;;;;;;;;;;;;;;;;;;;;;;;"1249";"2014-10-13 19:56:35.859";"NST_correctLoc";"16";"0";"FINISHED";"LEFT";"success";"397";"0";"2014-10-13 19:56:34.609";"2";;;;;;;;;;;;;;;;;;;;;;;;;;;;;;;;;;;;;;;;;;;;;
"Erika981";"1996";;"Windows 8";"Rachel's Experiment (D.T.)";"1.0";"2";"1";"1";"2";"1";"1";"2014-10-13 19:50:16.718";"2014-10-13 20:05:50.252";"1";"1";"1";"69";"68";"module.training_block2.exec-9419.GoNoGo2";;;;;;;;;;;;;;;;;;;;;;;;;;;;;;;;;;;"1250";"2014-10-13 19:56:38.390";"ST_correctStop";"28";"1";"FINISHED";"NONE";"success";"0";"1";"2014-10-13 19:56:37.140";"3";;;;;;;;;;;;;;;;;;;;;;;;;;;;;;;;;;;;;;;;;;;;;
"Erika981";"1996";;"Windows 8";"Rachel's Experiment (D.T.)";"1.0";"2";"1";"1";"2";"1";"1";"2014-10-13 19:50:16.718";"2014-10-13 20:05:50.252";"1";"1";"1";"70";"69";"module.training_block2.exec-9419.GoNoGo2";;;;;;;;;;;;;;;;;;;;;;;;;;;;;;;;;;;"1250";"2014-10-13 19:56:40.923";"NST_correctLoc";"31";"1";"FINISHED";"RIGHT";"success";"495";"0";"2014-10-13 19:56:39.672";"3";;;;;;;;;;;;;;;;;;;;;;;;;;;;;;;;;;;;;;;;;;;;;
"Erika981";"1996";;"Windows 8";"Rachel's Experiment (D.T.)";"1.0";"2";"1";"1";"2";"1";"1";"2014-10-13 19:50:16.718";"2014-10-13 20:05:50.252";"1";"1";"1";"71";"70";"module.training_block2.exec-9419.GoNoGo2";;;;;;;;;;;;;;;;;;;;;;;;;;;;;;;;;;;"1250";"2014-10-13 19:56:43.453";"NST_correctLoc";"23";"1";"FINISHED";"RIGHT";"success";"364";"0";"2014-10-13 19:56:42.202";"3";;;;;;;;;;;;;;;;;;;;;;;;;;;;;;;;;;;;;;;;;;;;;
"Erika981";"1996";;"Windows 8";"Rachel's Experiment (D.T.)";"1.0";"2";"1";"1";"2";"1";"1";"2014-10-13 19:50:16.718";"2014-10-13 20:05:50.252";"1";"1";"1";"72";"71";"module.training_block2.exec-9419.GoNoGo2";;;;;;;;;;;;;;;;;;;;;;;;;;;;;;;;;;;"1249";"2014-10-13 19:56:45.980";"NST_correctLoc";"10";"1";"FINISHED";"RIGHT";"success";"332";"0";"2014-10-13 19:56:44.730";"2";;;;;;;;;;;;;;;;;;;;;;;;;;;;;;;;;;;;;;;;;;;;;
"Erika981";"1996";;"Windows 8";"Rachel's Experiment (D.T.)";"1.0";"2";"1";"1";"2";"1";"1";"2014-10-13 19:50:16.718";"2014-10-13 20:05:50.252";"1";"1";"1";"73";"72";"module.training_block2.exec-9419.GoNoGo2";;;;;;;;;;;;;;;;;;;;;;;;;;;;;;;;;;;"1250";"2014-10-13 19:56:48.510";"ST_failedStop";"18";"0";"FINISHED";"LEFT";"failure";"358";"1";"2014-10-13 19:56:47.260";"3";;;;;;;;;;;;;;;;;;;;;;;;;;;;;;;;;;;;;;;;;;;;;
"Erika981";"1996";;"Windows 8";"Rachel's Experiment (D.T.)";"1.0";"2";"1";"1";"2";"1";"1";"2014-10-13 19:50:16.718";"2014-10-13 20:05:50.252";"1";"1";"1";"74";"73";"module.training_block2.exec-9419.GoNoGo2";;;;;;;;;;;;;;;;;;;;;;;;;;;;;;;;;;;"1250";"2014-10-13 19:56:51.039";"ST_correctStop";"32";"0";"FINISHED";"NONE";"success";"0";"1";"2014-10-13 19:56:49.789";"3";;;;;;;;;;;;;;;;;;;;;;;;;;;;;;;;;;;;;;;;;;;;;
"Erika981";"1996";;"Windows 8";"Rachel's Experiment (D.T.)";"1.0";"2";"1";"1";"2";"1";"1";"2014-10-13 19:50:16.718";"2014-10-13 20:05:50.252";"1";"1";"1";"75";"74";"module.training_block2.exec-9419.GoNoGo2";;;;;;;;;;;;;;;;;;;;;;;;;;;;;;;;;;;"1249";"2014-10-13 19:56:53.566";"ST_correctStop";"3";"1";"FINISHED";"NONE";"success";"0";"1";"2014-10-13 19:56:52.316";"1";;;;;;;;;;;;;;;;;;;;;;;;;;;;;;;;;;;;;;;;;;;;;
"Erika981";"1996";;"Windows 8";"Rachel's Experiment (D.T.)";"1.0";"2";"1";"1";"2";"1";"1";"2014-10-13 19:50:16.718";"2014-10-13 20:05:50.252";"1";"1";"1";"76";"75";"module.training_block2.exec-9419.GoNoGo2";;;;;;;;;;;;;;;;;;;;;;;;;;;;;;;;;;;"1250";"2014-10-13 19:56:56.094";"ST_correctStop";"33";"1";"FINISHED";"NONE";"success";"0";"1";"2014-10-13 19:56:54.843";"3";;;;;;;;;;;;;;;;;;;;;;;;;;;;;;;;;;;;;;;;;;;;;
"Erika981";"1996";;"Windows 8";"Rachel's Experiment (D.T.)";"1.0";"2";"1";"1";"2";"1";"1";"2014-10-13 19:50:16.718";"2014-10-13 20:05:50.252";"1";"1";"1";"77";"76";"module.training_block2.exec-9419.GoNoGo2";;;;;;;;;;;;;;;;;;;;;;;;;;;;;;;;;;;"1250";"2014-10-13 19:56:58.624";"NST_correctLoc";"11";"0";"FINISHED";"LEFT";"success";"364";"0";"2014-10-13 19:56:57.374";"2";;;;;;;;;;;;;;;;;;;;;;;;;;;;;;;;;;;;;;;;;;;;;
"Erika981";"1996";;"Windows 8";"Rachel's Experiment (D.T.)";"1.0";"2";"1";"1";"2";"1";"1";"2014-10-13 19:50:16.718";"2014-10-13 20:05:50.252";"1";"1";"1";"78";"77";"module.training_block2.exec-9419.GoNoGo2";;;;;;;;;;;;;;;;;;;;;;;;;;;;;;;;;;;"1250";"2014-10-13 19:57:01.153";"ST_correctStop";"24";"1";"FINISHED";"NONE";"success";"0";"1";"2014-10-13 19:56:59.902";"3";;;;;;;;;;;;;;;;;;;;;;;;;;;;;;;;;;;;;;;;;;;;;
"Erika981";"1996";;"Windows 8";"Rachel's Experiment (D.T.)";"1.0";"2";"1";"1";"2";"1";"1";"2014-10-13 19:50:16.718";"2014-10-13 20:05:50.252";"1";"1";"1";"79";"78";"module.training_block2.exec-9419.GoNoGo2";;;;;;;;;;;;;;;;;;;;;;;;;;;;;;;;;;;"1250";"2014-10-13 19:57:03.684";"NST_correctLoc";"20";"0";"FINISHED";"LEFT";"success";"561";"0";"2014-10-13 19:57:02.433";"3";;;;;;;;;;;;;;;;;;;;;;;;;;;;;;;;;;;;;;;;;;;;;
"Erika981";"1996";;"Windows 8";"Rachel's Experiment (D.T.)";"1.0";"2";"1";"1";"2";"1";"1";"2014-10-13 19:50:16.718";"2014-10-13 20:05:50.252";"1";"1";"1";"80";"79";"module.training_block2.exec-9419.GoNoGo2";;;;;;;;;;;;;;;;;;;;;;;;;;;;;;;;;;;"1250";"2014-10-13 19:57:06.213";"ST_correctStop";"7";"1";"FINISHED";"NONE";"success";"0";"1";"2014-10-13 19:57:04.962";"1";;;;;;;;;;;;;;;;;;;;;;;;;;;;;;;;;;;;;;;;;;;;;
"Erika981";"1996";;"Windows 8";"Rachel's Experiment (D.T.)";"1.0";"2";"1";"1";"2";"1";"1";"2014-10-13 19:50:16.718";"2014-10-13 20:05:50.252";"1";"1";"1";"81";"80";"module.training_block2.exec-9419.GoNoGo2";;;;;;;;;;;;;;;;;;;;;;;;;;;;;;;;;;;"1250";"2014-10-13 19:57:08.739";"ST_correctStop";"27";"1";"FINISHED";"NONE";"success";"0";"1";"2014-10-13 19:57:07.489";"3";;;;;;;;;;;;;;;;;;;;;;;;;;;;;;;;;;;;;;;;;;;;;
"Erika981";"1996";;"Windows 8";"Rachel's Experiment (D.T.)";"1.0";"2";"1";"1";"2";"1";"1";"2014-10-13 19:50:16.718";"2014-10-13 20:05:50.252";"1";"1";"1";"82";"81";"module.training_block2.exec-9419.GoNoGo2";;;;;;;;;;;;;;;;;;;;;;;;;;;;;;;;;;;"1250";"2014-10-13 19:57:11.266";"ST_correctStop";"6";"0";"FINISHED";"NONE";"success";"0";"1";"2014-10-13 19:57:10.016";"1";;;;;;;;;;;;;;;;;;;;;;;;;;;;;;;;;;;;;;;;;;;;;
"Erika981";"1996";;"Windows 8";"Rachel's Experiment (D.T.)";"1.0";"2";"1";"1";"2";"1";"1";"2014-10-13 19:50:16.718";"2014-10-13 20:05:50.252";"1";"1";"1";"83";"82";"module.training_block2.exec-9419.GoNoGo2";;;;;;;;;;;;;;;;;;;;;;;;;;;;;;;;;;;"1250";"2014-10-13 19:57:13.797";"ST_correctStop";"34";"0";"FINISHED";"NONE";"success";"0";"1";"2014-10-13 19:57:12.545";"3";;;;;;;;;;;;;;;;;;;;;;;;;;;;;;;;;;;;;;;;;;;;;
"Erika981";"1996";;"Windows 8";"Rachel's Experiment (D.T.)";"1.0";"2";"1";"1";"2";"1";"1";"2014-10-13 19:50:16.718";"2014-10-13 20:05:50.252";"1";"1";"1";"84";"83";"module.training_block2.exec-9419.GoNoGo2";;;;;;;;;;;;;;;;;;;;;;;;;;;;;;;;;;;"1250";"2014-10-13 19:57:16.326";"NST_correctLoc";"35";"0";"FINISHED";"LEFT";"success";"406";"0";"2014-10-13 19:57:15.076";"3";;;;;;;;;;;;;;;;;;;;;;;;;;;;;;;;;;;;;;;;;;;;;
"Erika981";"1996";;"Windows 8";"Rachel's Experiment (D.T.)";"1.0";"2";"1";"1";"2";"1";"1";"2014-10-13 19:50:16.718";"2014-10-13 20:05:50.252";"1";"1";"1";"85";"84";"module.training_block2.exec-9419.GoNoGo2";;;;;;;;;;;;;;;;;;;;;;;;;;;;;;;;;;;"1250";"2014-10-13 19:57:18.854";"NST_correctLoc";"21";"1";"FINISHED";"RIGHT";"success";"407";"0";"2014-10-13 19:57:17.603";"3";;;;;;;;;;;;;;;;;;;;;;;;;;;;;;;;;;;;;;;;;;;;;
"Erika981";"1996";;"Windows 8";"Rachel's Experiment (D.T.)";"1.0";"2";"1";"1";"2";"1";"1";"2014-10-13 19:50:16.718";"2014-10-13 20:05:50.252";"1";"1";"1";"86";"85";"module.training_block2.exec-9419.GoNoGo2";;;;;;;;;;;;;;;;;;;;;;;;;;;;;;;;;;;"1250";"2014-10-13 19:57:21.382";"NST_correctLoc";"26";"0";"FINISHED";"LEFT";"success";"457";"0";"2014-10-13 19:57:20.131";"3";;;;;;;;;;;;;;;;;;;;;;;;;;;;;;;;;;;;;;;;;;;;;
"Erika981";"1996";;"Windows 8";"Rachel's Experiment (D.T.)";"1.0";"2";"1";"1";"2";"1";"1";"2014-10-13 19:50:16.718";"2014-10-13 20:05:50.252";"1";"1";"1";"87";"86";"module.training_block2.exec-9419.GoNoGo2";;;;;;;;;;;;;;;;;;;;;;;;;;;;;;;;;;;"1250";"2014-10-13 19:57:23.942";"ST_correctStop";"5";"1";"FINISHED";"NONE";"success";"0";"1";"2014-10-13 19:57:22.691";"1";;;;;;;;;;;;;;;;;;;;;;;;;;;;;;;;;;;;;;;;;;;;;
"Erika981";"1996";;"Windows 8";"Rachel's Experiment (D.T.)";"1.0";"2";"1";"1";"2";"1";"1";"2014-10-13 19:50:16.718";"2014-10-13 20:05:50.252";"1";"1";"1";"88";"87";"module.training_block3.exec-7508.GoNoGo3";;;;;;;;;;;;;;;;;;;;;;;;;;;;;;;;;;;;;;;;;;;;;;;"1250";"2014-10-13 19:57:43.856";"NST_correctLoc";"14";"0";"FINISHED";"LEFT";"success";"351";"0";"2014-10-13 19:57:42.605";"2";;;;;;;;;;;;;;;;;;;;;;;;;;;;;;;;;
"Erika981";"1996";;"Windows 8";"Rachel's Experiment (D.T.)";"1.0";"2";"1";"1";"2";"1";"1";"2014-10-13 19:50:16.718";"2014-10-13 20:05:50.252";"1";"1";"1";"89";"88";"module.training_block3.exec-7508.GoNoGo3";;;;;;;;;;;;;;;;;;;;;;;;;;;;;;;;;;;;;;;;;;;;;;;"1249";"2014-10-13 19:57:46.382";"ST_correctStop";"28";"0";"FINISHED";"NONE";"success";"0";"1";"2014-10-13 19:57:45.132";"3";;;;;;;;;;;;;;;;;;;;;;;;;;;;;;;;;
"Erika981";"1996";;"Windows 8";"Rachel's Experiment (D.T.)";"1.0";"2";"1";"1";"2";"1";"1";"2014-10-13 19:50:16.718";"2014-10-13 20:05:50.252";"1";"1";"1";"90";"89";"module.training_block3.exec-7508.GoNoGo3";;;;;;;;;;;;;;;;;;;;;;;;;;;;;;;;;;;;;;;;;;;;;;;"1249";"2014-10-13 19:57:48.908";"NST_correctLoc";"19";"1";"FINISHED";"RIGHT";"success";"433";"0";"2014-10-13 19:57:47.658";"3";;;;;;;;;;;;;;;;;;;;;;;;;;;;;;;;;
"Erika981";"1996";;"Windows 8";"Rachel's Experiment (D.T.)";"1.0";"2";"1";"1";"2";"1";"1";"2014-10-13 19:50:16.718";"2014-10-13 20:05:50.252";"1";"1";"1";"91";"90";"module.training_block3.exec-7508.GoNoGo3";;;;;;;;;;;;;;;;;;;;;;;;;;;;;;;;;;;;;;;;;;;;;;;"1250";"2014-10-13 19:57:51.436";"NST_correctLoc";"35";"0";"FINISHED";"LEFT";"success";"369";"0";"2014-10-13 19:57:50.185";"3";;;;;;;;;;;;;;;;;;;;;;;;;;;;;;;;;
"Erika981";"1996";;"Windows 8";"Rachel's Experiment (D.T.)";"1.0";"2";"1";"1";"2";"1";"1";"2014-10-13 19:50:16.718";"2014-10-13 20:05:50.252";"1";"1";"1";"92";"91";"module.training_block3.exec-7508.GoNoGo3";;;;;;;;;;;;;;;;;;;;;;;;;;;;;;;;;;;;;;;;;;;;;;;"1250";"2014-10-13 19:57:53.963";"ST_correctStop";"20";"1";"FINISHED";"NONE";"success";"0";"1";"2014-10-13 19:57:52.712";"3";;;;;;;;;;;;;;;;;;;;;;;;;;;;;;;;;
"Erika981";"1996";;"Windows 8";"Rachel's Experiment (D.T.)";"1.0";"2";"1";"1";"2";"1";"1";"2014-10-13 19:50:16.718";"2014-10-13 20:05:50.252";"1";"1";"1";"93";"92";"module.training_block3.exec-7508.GoNoGo3";;;;;;;;;;;;;;;;;;;;;;;;;;;;;;;;;;;;;;;;;;;;;;;"1250";"2014-10-13 19:57:56.490";"ST_correctStop";"29";"1";"FINISHED";"NONE";"success";"0";"1";"2014-10-13 19:57:55.239";"3";;;;;;;;;;;;;;;;;;;;;;;;;;;;;;;;;
"Erika981";"1996";;"Windows 8";"Rachel's Experiment (D.T.)";"1.0";"2";"1";"1";"2";"1";"1";"2014-10-13 19:50:16.718";"2014-10-13 20:05:50.252";"1";"1";"1";"94";"93";"module.training_block3.exec-7508.GoNoGo3";;;;;;;;;;;;;;;;;;;;;;;;;;;;;;;;;;;;;;;;;;;;;;;"1250";"2014-10-13 19:57:59.023";"ST_correctStop";"2";"0";"FINISHED";"NONE";"success";"0";"1";"2014-10-13 19:57:57.772";"1";;;;;;;;;;;;;;;;;;;;;;;;;;;;;;;;;
"Erika981";"1996";;"Windows 8";"Rachel's Experiment (D.T.)";"1.0";"2";"1";"1";"2";"1";"1";"2014-10-13 19:50:16.718";"2014-10-13 20:05:50.252";"1";"1";"1";"95";"94";"module.training_block3.exec-7508.GoNoGo3";;;;;;;;;;;;;;;;;;;;;;;;;;;;;;;;;;;;;;;;;;;;;;;"1250";"2014-10-13 19:58:01.553";"ST_correctStop";"1";"0";"FINISHED";"NONE";"success";"0";"1";"2014-10-13 19:58:00.302";"1";;;;;;;;;;;;;;;;;;;;;;;;;;;;;;;;;
"Erika981";"1996";;"Windows 8";"Rachel's Experiment (D.T.)";"1.0";"2";"1";"1";"2";"1";"1";"2014-10-13 19:50:16.718";"2014-10-13 20:05:50.252";"1";"1";"1";"96";"95";"module.training_block3.exec-7508.GoNoGo3";;;;;;;;;;;;;;;;;;;;;;;;;;;;;;;;;;;;;;;;;;;;;;;"1250";"2014-10-13 19:58:04.084";"ST_correctStop";"25";"1";"FINISHED";"NONE";"success";"0";"1";"2014-10-13 19:58:02.834";"3";;;;;;;;;;;;;;;;;;;;;;;;;;;;;;;;;
"Erika981";"1996";;"Windows 8";"Rachel's Experiment (D.T.)";"1.0";"2";"1";"1";"2";"1";"1";"2014-10-13 19:50:16.718";"2014-10-13 20:05:50.252";"1";"1";"1";"97";"96";"module.training_block3.exec-7508.GoNoGo3";;;;;;;;;;;;;;;;;;;;;;;;;;;;;;;;;;;;;;;;;;;;;;;"1250";"2014-10-13 19:58:06.610";"NST_correctLoc";"13";"1";"FINISHED";"RIGHT";"success";"559";"0";"2014-10-13 19:58:05.359";"2";;;;;;;;;;;;;;;;;;;;;;;;;;;;;;;;;
"Erika981";"1996";;"Windows 8";"Rachel's Experiment (D.T.)";"1.0";"2";"1";"1";"2";"1";"1";"2014-10-13 19:50:16.718";"2014-10-13 20:05:50.252";"1";"1";"1";"98";"97";"module.training_block3.exec-7508.GoNoGo3";;;;;;;;;;;;;;;;;;;;;;;;;;;;;;;;;;;;;;;;;;;;;;;"1250";"2014-10-13 19:58:09.135";"NST_correctLoc";"17";"0";"FINISHED";"LEFT";"success";"1109";"0";"2014-10-13 19:58:07.884";"2";;;;;;;;;;;;;;;;;;;;;;;;;;;;;;;;;
"Erika981";"1996";;"Windows 8";"Rachel's Experiment (D.T.)";"1.0";"2";"1";"1";"2";"1";"1";"2014-10-13 19:50:16.718";"2014-10-13 20:05:50.252";"1";"1";"1";"99";"98";"module.training_block3.exec-7508.GoNoGo3";;;;;;;;;;;;;;;;;;;;;;;;;;;;;;;;;;;;;;;;;;;;;;;"1249";"2014-10-13 19:58:11.665";"ST_failedStop";"23";"1";"FINISHED";"RIGHT";"failure";"488";"1";"2014-10-13 19:58:10.415";"3";;;;;;;;;;;;;;;;;;;;;;;;;;;;;;;;;
"Erika981";"1996";;"Windows 8";"Rachel's Experiment (D.T.)";"1.0";"2";"1";"1";"2";"1";"1";"2014-10-13 19:50:16.718";"2014-10-13 20:05:50.252";"1";"1";"1";"100";"99";"module.training_block3.exec-7508.GoNoGo3";;;;;;;;;;;;;;;;;;;;;;;;;;;;;;;;;;;;;;;;;;;;;;;"1250";"2014-10-13 19:58:14.195";"ST_correctStop";"5";"1";"FINISHED";"NONE";"success";"0";"1";"2014-10-13 19:58:12.944";"1";;;;;;;;;;;;;;;;;;;;;;;;;;;;;;;;;
"Erika981";"1996";;"Windows 8";"Rachel's Experiment (D.T.)";"1.0";"2";"1";"1";"2";"1";"1";"2014-10-13 19:50:16.718";"2014-10-13 20:05:50.252";"1";"1";"1";"101";"100";"module.training_block3.exec-7508.GoNoGo3";;;;;;;;;;;;;;;;;;;;;;;;;;;;;;;;;;;;;;;;;;;;;;;"1250";"2014-10-13 19:58:16.721";"NST_correctLoc";"30";"0";"FINISHED";"LEFT";"success";"482";"0";"2014-10-13 19:58:15.470";"3";;;;;;;;;;;;;;;;;;;;;;;;;;;;;;;;;
"Erika981";"1996";;"Windows 8";"Rachel's Experiment (D.T.)";"1.0";"2";"1";"1";"2";"1";"1";"2014-10-13 19:50:16.718";"2014-10-13 20:05:50.252";"1";"1";"1";"102";"101";"module.training_block3.exec-7508.GoNoGo3";;;;;;;;;;;;;;;;;;;;;;;;;;;;;;;;;;;;;;;;;;;;;;;"1249";"2014-10-13 19:58:19.249";"ST_correctStop";"0";"0";"FINISHED";"NONE";"success";"0";"1";"2014-10-13 19:58:17.999";"1";;;;;;;;;;;;;;;;;;;;;;;;;;;;;;;;;
"Erika981";"1996";;"Windows 8";"Rachel's Experiment (D.T.)";"1.0";"2";"1";"1";"2";"1";"1";"2014-10-13 19:50:16.718";"2014-10-13 20:05:50.252";"1";"1";"1";"103";"102";"module.training_block3.exec-7508.GoNoGo3";;;;;;;;;;;;;;;;;;;;;;;;;;;;;;;;;;;;;;;;;;;;;;;"1250";"2014-10-13 19:58:21.775";"ST_correctStop";"6";"1";"FINISHED";"NONE";"success";"0";"1";"2014-10-13 19:58:20.525";"1";;;;;;;;;;;;;;;;;;;;;;;;;;;;;;;;;
"Erika981";"1996";;"Windows 8";"Rachel's Experiment (D.T.)";"1.0";"2";"1";"1";"2";"1";"1";"2014-10-13 19:50:16.718";"2014-10-13 20:05:50.252";"1";"1";"1";"104";"103";"module.training_block3.exec-7508.GoNoGo3";;;;;;;;;;;;;;;;;;;;;;;;;;;;;;;;;;;;;;;;;;;;;;;"1250";"2014-10-13 19:58:24.304";"NST_correctLoc";"11";"1";"FINISHED";"RIGHT";"success";"376";"0";"2014-10-13 19:58:23.053";"2";;;;;;;;;;;;;;;;;;;;;;;;;;;;;;;;;
"Erika981";"1996";;"Windows 8";"Rachel's Experiment (D.T.)";"1.0";"2";"1";"1";"2";"1";"1";"2014-10-13 19:50:16.718";"2014-10-13 20:05:50.252";"1";"1";"1";"105";"104";"module.training_block3.exec-7508.GoNoGo3";;;;;;;;;;;;;;;;;;;;;;;;;;;;;;;;;;;;;;;;;;;;;;;"1250";"2014-10-13 19:58:26.838";"NST_correctLoc";"9";"0";"FINISHED";"LEFT";"success";"572";"0";"2014-10-13 19:58:25.588";"2";;;;;;;;;;;;;;;;;;;;;;;;;;;;;;;;;
"Erika981";"1996";;"Windows 8";"Rachel's Experiment (D.T.)";"1.0";"2";"1";"1";"2";"1";"1";"2014-10-13 19:50:16.718";"2014-10-13 20:05:50.252";"1";"1";"1";"106";"105";"module.training_block3.exec-7508.GoNoGo3";;;;;;;;;;;;;;;;;;;;;;;;;;;;;;;;;;;;;;;;;;;;;;;"1250";"2014-10-13 19:58:29.363";"ST_correctStop";"24";"0";"FINISHED";"NONE";"success";"0";"1";"2014-10-13 19:58:28.112";"3";;;;;;;;;;;;;;;;;;;;;;;;;;;;;;;;;
"Erika981";"1996";;"Windows 8";"Rachel's Experiment (D.T.)";"1.0";"2";"1";"1";"2";"1";"1";"2014-10-13 19:50:16.718";"2014-10-13 20:05:50.252";"1";"1";"1";"107";"106";"module.training_block3.exec-7508.GoNoGo3";;;;;;;;;;;;;;;;;;;;;;;;;;;;;;;;;;;;;;;;;;;;;;;"1249";"2014-10-13 19:58:31.889";"NST_correctLoc";"10";"1";"FINISHED";"RIGHT";"success";"419";"0";"2014-10-13 19:58:30.639";"2";;;;;;;;;;;;;;;;;;;;;;;;;;;;;;;;;
"Erika981";"1996";;"Windows 8";"Rachel's Experiment (D.T.)";"1.0";"2";"1";"1";"2";"1";"1";"2014-10-13 19:50:16.718";"2014-10-13 20:05:50.252";"1";"1";"1";"108";"107";"module.training_block3.exec-7508.GoNoGo3";;;;;;;;;;;;;;;;;;;;;;;;;;;;;;;;;;;;;;;;;;;;;;;"1250";"2014-10-13 19:58:34.418";"ST_correctStop";"4";"1";"FINISHED";"NONE";"success";"0";"1";"2014-10-13 19:58:33.167";"1";;;;;;;;;;;;;;;;;;;;;;;;;;;;;;;;;
"Erika981";"1996";;"Windows 8";"Rachel's Experiment (D.T.)";"1.0";"2";"1";"1";"2";"1";"1";"2014-10-13 19:50:16.718";"2014-10-13 20:05:50.252";"1";"1";"1";"109";"108";"module.training_block3.exec-7508.GoNoGo3";;;;;;;;;;;;;;;;;;;;;;;;;;;;;;;;;;;;;;;;;;;;;;;"1250";"2014-10-13 19:58:36.944";"NST_correctLoc";"26";"1";"FINISHED";"RIGHT";"success";"415";"0";"2014-10-13 19:58:35.693";"3";;;;;;;;;;;;;;;;;;;;;;;;;;;;;;;;;
"Erika981";"1996";;"Windows 8";"Rachel's Experiment (D.T.)";"1.0";"2";"1";"1";"2";"1";"1";"2014-10-13 19:50:16.718";"2014-10-13 20:05:50.252";"1";"1";"1";"110";"109";"module.training_block3.exec-7508.GoNoGo3";;;;;;;;;;;;;;;;;;;;;;;;;;;;;;;;;;;;;;;;;;;;;;;"1250";"2014-10-13 19:58:39.470";"ST_correctStop";"33";"1";"FINISHED";"NONE";"success";"0";"1";"2014-10-13 19:58:38.219";"3";;;;;;;;;;;;;;;;;;;;;;;;;;;;;;;;;
"Erika981";"1996";;"Windows 8";"Rachel's Experiment (D.T.)";"1.0";"2";"1";"1";"2";"1";"1";"2014-10-13 19:50:16.718";"2014-10-13 20:05:50.252";"1";"1";"1";"111";"110";"module.training_block3.exec-7508.GoNoGo3";;;;;;;;;;;;;;;;;;;;;;;;;;;;;;;;;;;;;;;;;;;;;;;"1250";"2014-10-13 19:58:42.002";"NST_correctLoc";"22";"1";"FINISHED";"RIGHT";"success";"363";"0";"2014-10-13 19:58:40.751";"3";;;;;;;;;;;;;;;;;;;;;;;;;;;;;;;;;
"Erika981";"1996";;"Windows 8";"Rachel's Experiment (D.T.)";"1.0";"2";"1";"1";"2";"1";"1";"2014-10-13 19:50:16.718";"2014-10-13 20:05:50.252";"1";"1";"1";"112";"111";"module.training_block3.exec-7508.GoNoGo3";;;;;;;;;;;;;;;;;;;;;;;;;;;;;;;;;;;;;;;;;;;;;;;"1249";"2014-10-13 19:58:44.528";"NST_correctLoc";"15";"0";"FINISHED";"LEFT";"success";"385";"0";"2014-10-13 19:58:43.278";"2";;;;;;;;;;;;;;;;;;;;;;;;;;;;;;;;;
"Erika981";"1996";;"Windows 8";"Rachel's Experiment (D.T.)";"1.0";"2";"1";"1";"2";"1";"1";"2014-10-13 19:50:16.718";"2014-10-13 20:05:50.252";"1";"1";"1";"113";"112";"module.training_block3.exec-7508.GoNoGo3";;;;;;;;;;;;;;;;;;;;;;;;;;;;;;;;;;;;;;;;;;;;;;;"1249";"2014-10-13 19:58:47.053";"ST_correctStop";"3";"1";"FINISHED";"NONE";"success";"0";"1";"2014-10-13 19:58:45.802";"1";;;;;;;;;;;;;;;;;;;;;;;;;;;;;;;;;
"Erika981";"1996";;"Windows 8";"Rachel's Experiment (D.T.)";"1.0";"2";"1";"1";"2";"1";"1";"2014-10-13 19:50:16.718";"2014-10-13 20:05:50.252";"1";"1";"1";"114";"113";"module.training_block3.exec-7508.GoNoGo3";;;;;;;;;;;;;;;;;;;;;;;;;;;;;;;;;;;;;;;;;;;;;;;"1249";"2014-10-13 19:58:49.579";"ST_failedStop";"8";"0";"FINISHED";"LEFT";"failure";"462";"1";"2014-10-13 19:58:48.329";"1";;;;;;;;;;;;;;;;;;;;;;;;;;;;;;;;;
"Erika981";"1996";;"Windows 8";"Rachel's Experiment (D.T.)";"1.0";"2";"1";"1";"2";"1";"1";"2014-10-13 19:50:16.718";"2014-10-13 20:05:50.252";"1";"1";"1";"115";"114";"module.training_block3.exec-7508.GoNoGo3";;;;;;;;;;;;;;;;;;;;;;;;;;;;;;;;;;;;;;;;;;;;;;;"1250";"2014-10-13 19:58:52.112";"NST_correctLoc";"16";"1";"FINISHED";"RIGHT";"success";"923";"0";"2014-10-13 19:58:50.861";"2";;;;;;;;;;;;;;;;;;;;;;;;;;;;;;;;;
"Erika981";"1996";;"Windows 8";"Rachel's Experiment (D.T.)";"1.0";"2";"1";"1";"2";"1";"1";"2014-10-13 19:50:16.718";"2014-10-13 20:05:50.252";"1";"1";"1";"116";"115";"module.training_block3.exec-7508.GoNoGo3";;;;;;;;;;;;;;;;;;;;;;;;;;;;;;;;;;;;;;;;;;;;;;;"1250";"2014-10-13 19:58:54.638";"ST_correctStop";"7";"1";"FINISHED";"NONE";"success";"0";"1";"2014-10-13 19:58:53.387";"1";;;;;;;;;;;;;;;;;;;;;;;;;;;;;;;;;
"Erika981";"1996";;"Windows 8";"Rachel's Experiment (D.T.)";"1.0";"2";"1";"1";"2";"1";"1";"2014-10-13 19:50:16.718";"2014-10-13 20:05:50.252";"1";"1";"1";"117";"116";"module.training_block3.exec-7508.GoNoGo3";;;;;;;;;;;;;;;;;;;;;;;;;;;;;;;;;;;;;;;;;;;;;;;"1250";"2014-10-13 19:58:57.161";"ST_correctStop";"18";"1";"FINISHED";"NONE";"success";"0";"1";"2014-10-13 19:58:55.911";"3";;;;;;;;;;;;;;;;;;;;;;;;;;;;;;;;;
"Erika981";"1996";;"Windows 8";"Rachel's Experiment (D.T.)";"1.0";"2";"1";"1";"2";"1";"1";"2014-10-13 19:50:16.718";"2014-10-13 20:05:50.252";"1";"1";"1";"118";"117";"module.training_block3.exec-7508.GoNoGo3";;;;;;;;;;;;;;;;;;;;;;;;;;;;;;;;;;;;;;;;;;;;;;;"1249";"2014-10-13 19:58:59.686";"NST_correctLoc";"12";"0";"FINISHED";"LEFT";"success";"467";"0";"2014-10-13 19:58:58.436";"2";;;;;;;;;;;;;;;;;;;;;;;;;;;;;;;;;
"Erika981";"1996";;"Windows 8";"Rachel's Experiment (D.T.)";"1.0";"2";"1";"1";"2";"1";"1";"2014-10-13 19:50:16.718";"2014-10-13 20:05:50.252";"1";"1";"1";"119";"118";"module.training_block3.exec-7508.GoNoGo3";;;;;;;;;;;;;;;;;;;;;;;;;;;;;;;;;;;;;;;;;;;;;;;"1251";"2014-10-13 19:59:02.214";"NST_correctLoc";"34";"0";"FINISHED";"LEFT";"success";"433";"0";"2014-10-13 19:59:00.963";"3";;;;;;;;;;;;;;;;;;;;;;;;;;;;;;;;;
"Erika981";"1996";;"Windows 8";"Rachel's Experiment (D.T.)";"1.0";"2";"1";"1";"2";"1";"1";"2014-10-13 19:50:16.718";"2014-10-13 20:05:50.252";"1";"1";"1";"120";"119";"module.training_block3.exec-7508.GoNoGo3";;;;;;;;;;;;;;;;;;;;;;;;;;;;;;;;;;;;;;;;;;;;;;;"1250";"2014-10-13 19:59:04.748";"NST_correctLoc";"21";"0";"FINISHED";"LEFT";"success";"406";"0";"2014-10-13 19:59:03.497";"3";;;;;;;;;;;;;;;;;;;;;;;;;;;;;;;;;
"Erika981";"1996";;"Windows 8";"Rachel's Experiment (D.T.)";"1.0";"2";"1";"1";"2";"1";"1";"2014-10-13 19:50:16.718";"2014-10-13 20:05:50.252";"1";"1";"1";"121";"120";"module.training_block3.exec-7508.GoNoGo3";;;;;;;;;;;;;;;;;;;;;;;;;;;;;;;;;;;;;;;;;;;;;;;"1249";"2014-10-13 19:59:07.270";"ST_correctStop";"32";"1";"FINISHED";"NONE";"success";"0";"1";"2014-10-13 19:59:06.020";"3";;;;;;;;;;;;;;;;;;;;;;;;;;;;;;;;;
"Erika981";"1996";;"Windows 8";"Rachel's Experiment (D.T.)";"1.0";"2";"1";"1";"2";"1";"1";"2014-10-13 19:50:16.718";"2014-10-13 20:05:50.252";"1";"1";"1";"122";"121";"module.training_block3.exec-7508.GoNoGo3";;;;;;;;;;;;;;;;;;;;;;;;;;;;;;;;;;;;;;;;;;;;;;;"1250";"2014-10-13 19:59:09.797";"NST_correctLoc";"31";"0";"FINISHED";"LEFT";"success";"343";"0";"2014-10-13 19:59:08.546";"3";;;;;;;;;;;;;;;;;;;;;;;;;;;;;;;;;
"Erika981";"1996";;"Windows 8";"Rachel's Experiment (D.T.)";"1.0";"2";"1";"1";"2";"1";"1";"2014-10-13 19:50:16.718";"2014-10-13 20:05:50.252";"1";"1";"1";"123";"122";"module.training_block3.exec-7508.GoNoGo3";;;;;;;;;;;;;;;;;;;;;;;;;;;;;;;;;;;;;;;;;;;;;;;"1249";"2014-10-13 19:59:12.320";"NST_correctLoc";"27";"1";"FINISHED";"RIGHT";"success";"554";"0";"2014-10-13 19:59:11.070";"3";;;;;;;;;;;;;;;;;;;;;;;;;;;;;;;;;
"Erika981";"1996";;"Windows 8";"Rachel's Experiment (D.T.)";"1.0";"2";"1";"1";"2";"1";"1";"2014-10-13 19:50:16.718";"2014-10-13 20:05:50.252";"1";"1";"1";"124";"123";"module.training_block4.exec-1372.GoNoGo4";;;;;;;;;;;;;;;;;;;;;;;;;;;;;;;;;;;;;;;;;;;;;;;;;;;;;;;;;;;"1250";"2014-10-13 19:59:23.122";"NST_correctLoc";"16";"0";"FINISHED";"LEFT";"success";"387";"0";"2014-10-13 19:59:21.871";"2";;;;;;;;;;;;;;;;;;;;;
"Erika981";"1996";;"Windows 8";"Rachel's Experiment (D.T.)";"1.0";"2";"1";"1";"2";"1";"1";"2014-10-13 19:50:16.718";"2014-10-13 20:05:50.252";"1";"1";"1";"125";"124";"module.training_block4.exec-1372.GoNoGo4";;;;;;;;;;;;;;;;;;;;;;;;;;;;;;;;;;;;;;;;;;;;;;;;;;;;;;;;;;;"1251";"2014-10-13 19:59:25.648";"NST_correctLoc";"33";"0";"FINISHED";"LEFT";"success";"293";"0";"2014-10-13 19:59:24.397";"3";;;;;;;;;;;;;;;;;;;;;
"Erika981";"1996";;"Windows 8";"Rachel's Experiment (D.T.)";"1.0";"2";"1";"1";"2";"1";"1";"2014-10-13 19:50:16.718";"2014-10-13 20:05:50.252";"1";"1";"1";"126";"125";"module.training_block4.exec-1372.GoNoGo4";;;;;;;;;;;;;;;;;;;;;;;;;;;;;;;;;;;;;;;;;;;;;;;;;;;;;;;;;;;"1250";"2014-10-13 19:59:28.174";"NST_correctLoc";"34";"1";"FINISHED";"RIGHT";"success";"370";"0";"2014-10-13 19:59:26.923";"3";;;;;;;;;;;;;;;;;;;;;
"Erika981";"1996";;"Windows 8";"Rachel's Experiment (D.T.)";"1.0";"2";"1";"1";"2";"1";"1";"2014-10-13 19:50:16.718";"2014-10-13 20:05:50.252";"1";"1";"1";"127";"126";"module.training_block4.exec-1372.GoNoGo4";;;;;;;;;;;;;;;;;;;;;;;;;;;;;;;;;;;;;;;;;;;;;;;;;;;;;;;;;;;"1250";"2014-10-13 19:59:30.699";"ST_correctStop";"2";"1";"FINISHED";"NONE";"success";"0";"1";"2014-10-13 19:59:29.447";"1";;;;;;;;;;;;;;;;;;;;;
"Erika981";"1996";;"Windows 8";"Rachel's Experiment (D.T.)";"1.0";"2";"1";"1";"2";"1";"1";"2014-10-13 19:50:16.718";"2014-10-13 20:05:50.252";"1";"1";"1";"128";"127";"module.training_block4.exec-1372.GoNoGo4";;;;;;;;;;;;;;;;;;;;;;;;;;;;;;;;;;;;;;;;;;;;;;;;;;;;;;;;;;;"1250";"2014-10-13 19:59:33.225";"NST_correctLoc";"27";"1";"FINISHED";"RIGHT";"success";"409";"0";"2014-10-13 19:59:31.974";"3";;;;;;;;;;;;;;;;;;;;;
"Erika981";"1996";;"Windows 8";"Rachel's Experiment (D.T.)";"1.0";"2";"1";"1";"2";"1";"1";"2014-10-13 19:50:16.718";"2014-10-13 20:05:50.252";"1";"1";"1";"129";"128";"module.training_block4.exec-1372.GoNoGo4";;;;;;;;;;;;;;;;;;;;;;;;;;;;;;;;;;;;;;;;;;;;;;;;;;;;;;;;;;;"1250";"2014-10-13 19:59:35.754";"ST_correctStop";"25";"1";"FINISHED";"NONE";"success";"0";"1";"2014-10-13 19:59:34.503";"3";;;;;;;;;;;;;;;;;;;;;
"Erika981";"1996";;"Windows 8";"Rachel's Experiment (D.T.)";"1.0";"2";"1";"1";"2";"1";"1";"2014-10-13 19:50:16.718";"2014-10-13 20:05:50.252";"1";"1";"1";"130";"129";"module.training_block4.exec-1372.GoNoGo4";;;;;;;;;;;;;;;;;;;;;;;;;;;;;;;;;;;;;;;;;;;;;;;;;;;;;;;;;;;"1250";"2014-10-13 19:59:38.282";"NST_correctLoc";"13";"1";"FINISHED";"RIGHT";"success";"554";"0";"2014-10-13 19:59:37.031";"2";;;;;;;;;;;;;;;;;;;;;
"Erika981";"1996";;"Windows 8";"Rachel's Experiment (D.T.)";"1.0";"2";"1";"1";"2";"1";"1";"2014-10-13 19:50:16.718";"2014-10-13 20:05:50.252";"1";"1";"1";"131";"130";"module.training_block4.exec-1372.GoNoGo4";;;;;;;;;;;;;;;;;;;;;;;;;;;;;;;;;;;;;;;;;;;;;;;;;;;;;;;;;;;"1251";"2014-10-13 19:59:40.808";"ST_correctStop";"24";"1";"FINISHED";"NONE";"success";"0";"1";"2014-10-13 19:59:39.557";"3";;;;;;;;;;;;;;;;;;;;;
"Erika981";"1996";;"Windows 8";"Rachel's Experiment (D.T.)";"1.0";"2";"1";"1";"2";"1";"1";"2014-10-13 19:50:16.718";"2014-10-13 20:05:50.252";"1";"1";"1";"132";"131";"module.training_block4.exec-1372.GoNoGo4";;;;;;;;;;;;;;;;;;;;;;;;;;;;;;;;;;;;;;;;;;;;;;;;;;;;;;;;;;;"1250";"2014-10-13 19:59:43.333";"NST_correctLoc";"29";"0";"FINISHED";"LEFT";"success";"495";"0";"2014-10-13 19:59:42.082";"3";;;;;;;;;;;;;;;;;;;;;
"Erika981";"1996";;"Windows 8";"Rachel's Experiment (D.T.)";"1.0";"2";"1";"1";"2";"1";"1";"2014-10-13 19:50:16.718";"2014-10-13 20:05:50.252";"1";"1";"1";"133";"132";"module.training_block4.exec-1372.GoNoGo4";;;;;;;;;;;;;;;;;;;;;;;;;;;;;;;;;;;;;;;;;;;;;;;;;;;;;;;;;;;"1249";"2014-10-13 19:59:45.858";"ST_correctStop";"0";"1";"FINISHED";"NONE";"success";"0";"1";"2014-10-13 19:59:44.607";"1";;;;;;;;;;;;;;;;;;;;;
"Erika981";"1996";;"Windows 8";"Rachel's Experiment (D.T.)";"1.0";"2";"1";"1";"2";"1";"1";"2014-10-13 19:50:16.718";"2014-10-13 20:05:50.252";"1";"1";"1";"134";"133";"module.training_block4.exec-1372.GoNoGo4";;;;;;;;;;;;;;;;;;;;;;;;;;;;;;;;;;;;;;;;;;;;;;;;;;;;;;;;;;;"1250";"2014-10-13 19:59:48.381";"ST_correctStop";"21";"0";"FINISHED";"NONE";"success";"0";"1";"2014-10-13 19:59:47.131";"3";;;;;;;;;;;;;;;;;;;;;
"Erika981";"1996";;"Windows 8";"Rachel's Experiment (D.T.)";"1.0";"2";"1";"1";"2";"1";"1";"2014-10-13 19:50:16.718";"2014-10-13 20:05:50.252";"1";"1";"1";"135";"134";"module.training_block4.exec-1372.GoNoGo4";;;;;;;;;;;;;;;;;;;;;;;;;;;;;;;;;;;;;;;;;;;;;;;;;;;;;;;;;;;"1250";"2014-10-13 19:59:50.906";"NST_correctLoc";"14";"0";"FINISHED";"LEFT";"success";"428";"0";"2014-10-13 19:59:49.655";"2";;;;;;;;;;;;;;;;;;;;;
"Erika981";"1996";;"Windows 8";"Rachel's Experiment (D.T.)";"1.0";"2";"1";"1";"2";"1";"1";"2014-10-13 19:50:16.718";"2014-10-13 20:05:50.252";"1";"1";"1";"136";"135";"module.training_block4.exec-1372.GoNoGo4";;;;;;;;;;;;;;;;;;;;;;;;;;;;;;;;;;;;;;;;;;;;;;;;;;;;;;;;;;;"1249";"2014-10-13 19:59:53.431";"ST_correctStop";"18";"0";"FINISHED";"NONE";"success";"0";"1";"2014-10-13 19:59:52.181";"3";;;;;;;;;;;;;;;;;;;;;
"Erika981";"1996";;"Windows 8";"Rachel's Experiment (D.T.)";"1.0";"2";"1";"1";"2";"1";"1";"2014-10-13 19:50:16.718";"2014-10-13 20:05:50.252";"1";"1";"1";"137";"136";"module.training_block4.exec-1372.GoNoGo4";;;;;;;;;;;;;;;;;;;;;;;;;;;;;;;;;;;;;;;;;;;;;;;;;;;;;;;;;;;"1250";"2014-10-13 19:59:55.958";"ST_correctStop";"4";"0";"FINISHED";"NONE";"success";"0";"1";"2014-10-13 19:59:54.708";"1";;;;;;;;;;;;;;;;;;;;;
"Erika981";"1996";;"Windows 8";"Rachel's Experiment (D.T.)";"1.0";"2";"1";"1";"2";"1";"1";"2014-10-13 19:50:16.718";"2014-10-13 20:05:50.252";"1";"1";"1";"138";"137";"module.training_block4.exec-1372.GoNoGo4";;;;;;;;;;;;;;;;;;;;;;;;;;;;;;;;;;;;;;;;;;;;;;;;;;;;;;;;;;;"1251";"2014-10-13 19:59:58.485";"NST_correctLoc";"20";"1";"FINISHED";"RIGHT";"success";"551";"0";"2014-10-13 19:59:57.234";"3";;;;;;;;;;;;;;;;;;;;;
"Erika981";"1996";;"Windows 8";"Rachel's Experiment (D.T.)";"1.0";"2";"1";"1";"2";"1";"1";"2014-10-13 19:50:16.718";"2014-10-13 20:05:50.252";"1";"1";"1";"139";"138";"module.training_block4.exec-1372.GoNoGo4";;;;;;;;;;;;;;;;;;;;;;;;;;;;;;;;;;;;;;;;;;;;;;;;;;;;;;;;;;;"1250";"2014-10-13 20:00:01.013";"ST_correctStop";"5";"0";"FINISHED";"NONE";"success";"0";"1";"2014-10-13 19:59:59.762";"1";;;;;;;;;;;;;;;;;;;;;
"Erika981";"1996";;"Windows 8";"Rachel's Experiment (D.T.)";"1.0";"2";"1";"1";"2";"1";"1";"2014-10-13 19:50:16.718";"2014-10-13 20:05:50.252";"1";"1";"1";"140";"139";"module.training_block4.exec-1372.GoNoGo4";;;;;;;;;;;;;;;;;;;;;;;;;;;;;;;;;;;;;;;;;;;;;;;;;;;;;;;;;;;"1250";"2014-10-13 20:00:03.542";"ST_correctStop";"31";"0";"FINISHED";"NONE";"success";"0";"1";"2014-10-13 20:00:02.291";"3";;;;;;;;;;;;;;;;;;;;;
"Erika981";"1996";;"Windows 8";"Rachel's Experiment (D.T.)";"1.0";"2";"1";"1";"2";"1";"1";"2014-10-13 19:50:16.718";"2014-10-13 20:05:50.252";"1";"1";"1";"141";"140";"module.training_block4.exec-1372.GoNoGo4";;;;;;;;;;;;;;;;;;;;;;;;;;;;;;;;;;;;;;;;;;;;;;;;;;;;;;;;;;;"1250";"2014-10-13 20:00:06.069";"NST_correctLoc";"22";"0";"FINISHED";"LEFT";"success";"445";"0";"2014-10-13 20:00:04.819";"3";;;;;;;;;;;;;;;;;;;;;
"Erika981";"1996";;"Windows 8";"Rachel's Experiment (D.T.)";"1.0";"2";"1";"1";"2";"1";"1";"2014-10-13 19:50:16.718";"2014-10-13 20:05:50.252";"1";"1";"1";"142";"141";"module.training_block4.exec-1372.GoNoGo4";;;;;;;;;;;;;;;;;;;;;;;;;;;;;;;;;;;;;;;;;;;;;;;;;;;;;;;;;;;"1250";"2014-10-13 20:00:08.594";"ST_correctStop";"8";"0";"FINISHED";"NONE";"success";"0";"1";"2014-10-13 20:00:07.343";"1";;;;;;;;;;;;;;;;;;;;;
"Erika981";"1996";;"Windows 8";"Rachel's Experiment (D.T.)";"1.0";"2";"1";"1";"2";"1";"1";"2014-10-13 19:50:16.718";"2014-10-13 20:05:50.252";"1";"1";"1";"143";"142";"module.training_block4.exec-1372.GoNoGo4";;;;;;;;;;;;;;;;;;;;;;;;;;;;;;;;;;;;;;;;;;;;;;;;;;;;;;;;;;;"1250";"2014-10-13 20:00:11.121";"NST_correctLoc";"17";"0";"FINISHED";"LEFT";"success";"374";"0";"2014-10-13 20:00:09.871";"2";;;;;;;;;;;;;;;;;;;;;
"Erika981";"1996";;"Windows 8";"Rachel's Experiment (D.T.)";"1.0";"2";"1";"1";"2";"1";"1";"2014-10-13 19:50:16.718";"2014-10-13 20:05:50.252";"1";"1";"1";"144";"143";"module.training_block4.exec-1372.GoNoGo4";;;;;;;;;;;;;;;;;;;;;;;;;;;;;;;;;;;;;;;;;;;;;;;;;;;;;;;;;;;"1250";"2014-10-13 20:00:13.644";"ST_correctStop";"32";"1";"FINISHED";"NONE";"success";"0";"1";"2014-10-13 20:00:12.394";"3";;;;;;;;;;;;;;;;;;;;;
"Erika981";"1996";;"Windows 8";"Rachel's Experiment (D.T.)";"1.0";"2";"1";"1";"2";"1";"1";"2014-10-13 19:50:16.718";"2014-10-13 20:05:50.252";"1";"1";"1";"145";"144";"module.training_block4.exec-1372.GoNoGo4";;;;;;;;;;;;;;;;;;;;;;;;;;;;;;;;;;;;;;;;;;;;;;;;;;;;;;;;;;;"1250";"2014-10-13 20:00:16.171";"NST_correctLoc";"15";"1";"FINISHED";"RIGHT";"success";"833";"0";"2014-10-13 20:00:14.921";"2";;;;;;;;;;;;;;;;;;;;;
"Erika981";"1996";;"Windows 8";"Rachel's Experiment (D.T.)";"1.0";"2";"1";"1";"2";"1";"1";"2014-10-13 19:50:16.718";"2014-10-13 20:05:50.252";"1";"1";"1";"146";"145";"module.training_block4.exec-1372.GoNoGo4";;;;;;;;;;;;;;;;;;;;;;;;;;;;;;;;;;;;;;;;;;;;;;;;;;;;;;;;;;;"1250";"2014-10-13 20:00:18.696";"NST_correctLoc";"30";"1";"FINISHED";"RIGHT";"success";"624";"0";"2014-10-13 20:00:17.445";"3";;;;;;;;;;;;;;;;;;;;;
"Erika981";"1996";;"Windows 8";"Rachel's Experiment (D.T.)";"1.0";"2";"1";"1";"2";"1";"1";"2014-10-13 19:50:16.718";"2014-10-13 20:05:50.252";"1";"1";"1";"147";"146";"module.training_block4.exec-1372.GoNoGo4";;;;;;;;;;;;;;;;;;;;;;;;;;;;;;;;;;;;;;;;;;;;;;;;;;;;;;;;;;;"1250";"2014-10-13 20:00:21.223";"NST_correctLoc";"28";"1";"FINISHED";"RIGHT";"success";"674";"0";"2014-10-13 20:00:19.973";"3";;;;;;;;;;;;;;;;;;;;;
"Erika981";"1996";;"Windows 8";"Rachel's Experiment (D.T.)";"1.0";"2";"1";"1";"2";"1";"1";"2014-10-13 19:50:16.718";"2014-10-13 20:05:50.252";"1";"1";"1";"148";"147";"module.training_block4.exec-1372.GoNoGo4";;;;;;;;;;;;;;;;;;;;;;;;;;;;;;;;;;;;;;;;;;;;;;;;;;;;;;;;;;;"1250";"2014-10-13 20:00:23.750";"ST_correctStop";"3";"0";"FINISHED";"NONE";"success";"0";"1";"2014-10-13 20:00:22.499";"1";;;;;;;;;;;;;;;;;;;;;
"Erika981";"1996";;"Windows 8";"Rachel's Experiment (D.T.)";"1.0";"2";"1";"1";"2";"1";"1";"2014-10-13 19:50:16.718";"2014-10-13 20:05:50.252";"1";"1";"1";"149";"148";"module.training_block4.exec-1372.GoNoGo4";;;;;;;;;;;;;;;;;;;;;;;;;;;;;;;;;;;;;;;;;;;;;;;;;;;;;;;;;;;"1251";"2014-10-13 20:00:26.275";"NST_correctLoc";"10";"1";"FINISHED";"RIGHT";"success";"509";"0";"2014-10-13 20:00:25.024";"2";;;;;;;;;;;;;;;;;;;;;
"Erika981";"1996";;"Windows 8";"Rachel's Experiment (D.T.)";"1.0";"2";"1";"1";"2";"1";"1";"2014-10-13 19:50:16.718";"2014-10-13 20:05:50.252";"1";"1";"1";"150";"149";"module.training_block4.exec-1372.GoNoGo4";;;;;;;;;;;;;;;;;;;;;;;;;;;;;;;;;;;;;;;;;;;;;;;;;;;;;;;;;;;"1250";"2014-10-13 20:00:28.800";"ST_failedStop";"1";"0";"FINISHED";"LEFT";"failure";"462";"1";"2014-10-13 20:00:27.550";"1";;;;;;;;;;;;;;;;;;;;;
"Erika981";"1996";;"Windows 8";"Rachel's Experiment (D.T.)";"1.0";"2";"1";"1";"2";"1";"1";"2014-10-13 19:50:16.718";"2014-10-13 20:05:50.252";"1";"1";"1";"151";"150";"module.training_block4.exec-1372.GoNoGo4";;;;;;;;;;;;;;;;;;;;;;;;;;;;;;;;;;;;;;;;;;;;;;;;;;;;;;;;;;;"1249";"2014-10-13 20:00:31.323";"ST_correctStop";"6";"0";"FINISHED";"NONE";"success";"0";"1";"2014-10-13 20:00:30.073";"1";;;;;;;;;;;;;;;;;;;;;
"Erika981";"1996";;"Windows 8";"Rachel's Experiment (D.T.)";"1.0";"2";"1";"1";"2";"1";"1";"2014-10-13 19:50:16.718";"2014-10-13 20:05:50.252";"1";"1";"1";"152";"151";"module.training_block4.exec-1372.GoNoGo4";;;;;;;;;;;;;;;;;;;;;;;;;;;;;;;;;;;;;;;;;;;;;;;;;;;;;;;;;;;"1249";"2014-10-13 20:00:33.849";"ST_correctStop";"26";"1";"FINISHED";"NONE";"success";"0";"1";"2014-10-13 20:00:32.599";"3";;;;;;;;;;;;;;;;;;;;;
"Erika981";"1996";;"Windows 8";"Rachel's Experiment (D.T.)";"1.0";"2";"1";"1";"2";"1";"1";"2014-10-13 19:50:16.718";"2014-10-13 20:05:50.252";"1";"1";"1";"153";"152";"module.training_block4.exec-1372.GoNoGo4";;;;;;;;;;;;;;;;;;;;;;;;;;;;;;;;;;;;;;;;;;;;;;;;;;;;;;;;;;;"1250";"2014-10-13 20:00:36.372";"NST_correctLoc";"11";"0";"FINISHED";"LEFT";"success";"463";"0";"2014-10-13 20:00:35.121";"2";;;;;;;;;;;;;;;;;;;;;
"Erika981";"1996";;"Windows 8";"Rachel's Experiment (D.T.)";"1.0";"2";"1";"1";"2";"1";"1";"2014-10-13 19:50:16.718";"2014-10-13 20:05:50.252";"1";"1";"1";"154";"153";"module.training_block4.exec-1372.GoNoGo4";;;;;;;;;;;;;;;;;;;;;;;;;;;;;;;;;;;;;;;;;;;;;;;;;;;;;;;;;;;"1250";"2014-10-13 20:00:38.894";"NST_correctLoc";"23";"0";"FINISHED";"LEFT";"success";"344";"0";"2014-10-13 20:00:37.644";"3";;;;;;;;;;;;;;;;;;;;;
"Erika981";"1996";;"Windows 8";"Rachel's Experiment (D.T.)";"1.0";"2";"1";"1";"2";"1";"1";"2014-10-13 19:50:16.718";"2014-10-13 20:05:50.252";"1";"1";"1";"155";"154";"module.training_block4.exec-1372.GoNoGo4";;;;;;;;;;;;;;;;;;;;;;;;;;;;;;;;;;;;;;;;;;;;;;;;;;;;;;;;;;;"1250";"2014-10-13 20:00:41.418";"ST_correctStop";"19";"0";"FINISHED";"NONE";"success";"0";"1";"2014-10-13 20:00:40.168";"3";;;;;;;;;;;;;;;;;;;;;
"Erika981";"1996";;"Windows 8";"Rachel's Experiment (D.T.)";"1.0";"2";"1";"1";"2";"1";"1";"2014-10-13 19:50:16.718";"2014-10-13 20:05:50.252";"1";"1";"1";"156";"155";"module.training_block4.exec-1372.GoNoGo4";;;;;;;;;;;;;;;;;;;;;;;;;;;;;;;;;;;;;;;;;;;;;;;;;;;;;;;;;;;"1250";"2014-10-13 20:00:43.942";"NST_correctLoc";"12";"1";"FINISHED";"RIGHT";"success";"540";"0";"2014-10-13 20:00:42.692";"2";;;;;;;;;;;;;;;;;;;;;
"Erika981";"1996";;"Windows 8";"Rachel's Experiment (D.T.)";"1.0";"2";"1";"1";"2";"1";"1";"2014-10-13 19:50:16.718";"2014-10-13 20:05:50.252";"1";"1";"1";"157";"156";"module.training_block4.exec-1372.GoNoGo4";;;;;;;;;;;;;;;;;;;;;;;;;;;;;;;;;;;;;;;;;;;;;;;;;;;;;;;;;;;"1250";"2014-10-13 20:00:46.503";"ST_correctStop";"35";"0";"FINISHED";"NONE";"success";"0";"1";"2014-10-13 20:00:45.252";"3";;;;;;;;;;;;;;;;;;;;;
"Erika981";"1996";;"Windows 8";"Rachel's Experiment (D.T.)";"1.0";"2";"1";"1";"2";"1";"1";"2014-10-13 19:50:16.718";"2014-10-13 20:05:50.252";"1";"1";"1";"158";"157";"module.training_block4.exec-1372.GoNoGo4";;;;;;;;;;;;;;;;;;;;;;;;;;;;;;;;;;;;;;;;;;;;;;;;;;;;;;;;;;;"1250";"2014-10-13 20:00:49.026";"ST_correctStop";"7";"1";"FINISHED";"NONE";"success";"0";"1";"2014-10-13 20:00:47.775";"1";;;;;;;;;;;;;;;;;;;;;
"Erika981";"1996";;"Windows 8";"Rachel's Experiment (D.T.)";"1.0";"2";"1";"1";"2";"1";"1";"2014-10-13 19:50:16.718";"2014-10-13 20:05:50.252";"1";"1";"1";"159";"158";"module.training_block4.exec-1372.GoNoGo4";;;;;;;;;;;;;;;;;;;;;;;;;;;;;;;;;;;;;;;;;;;;;;;;;;;;;;;;;;;"1250";"2014-10-13 20:00:51.548";"NST_correctLoc";"9";"1";"FINISHED";"RIGHT";"success";"547";"0";"2014-10-13 20:00:50.298";"2";;;;;;;;;;;;;;;;;;;;;
"Erika981";"1996";;"Windows 8";"Rachel's Experiment (D.T.)";"1.0";"2";"1";"1";"2";"1";"1";"2014-10-13 19:50:16.718";"2014-10-13 20:05:50.252";"1";"1";"1";"160";"159";"module.devaluation_practice.exec-4028.devalPractice";;;;;;;;;;;;"12352";"2014-10-13 20:02:10.911";"0";"2";"1";"2";"1925";"2363";"4998";"2014-10-13 20:01:58.558";;;;;;;;;;;;;;;;;;;;;;;;;;;;;;;;;;;;;;;;;;;;;;;;;;;;;;;;;;;;;;;;;;;;;;
"Erika981";"1996";;"Windows 8";"Rachel's Experiment (D.T.)";"1.0";"2";"1";"1";"2";"1";"1";"2014-10-13 19:50:16.718";"2014-10-13 20:05:50.252";"1";"1";"1";"161";"160";"module.devaluation_practice.exec-4028.devalPractice";;;;;;;;;;;;"5984";"2014-10-13 20:02:16.921";"1";"1";"1";"1";"970";"946";"1050";"2014-10-13 20:02:10.937";;;;;;;;;;;;;;;;;;;;;;;;;;;;;;;;;;;;;;;;;;;;;;;;;;;;;;;;;;;;;;;;;;;;;;
"Erika981";"1996";;"Windows 8";"Rachel's Experiment (D.T.)";"1.0";"2";"1";"1";"2";"1";"1";"2014-10-13 19:50:16.718";"2014-10-13 20:05:50.252";"1";"1";"1";"162";"161";"module.devaluation_practice.exec-4028.devalPractice";;;;;;;;;;;;"8715";"2014-10-13 20:02:25.661";"2";"3";"6";"7";"929";"1531";"3236";"2014-10-13 20:02:16.946";;;;;;;;;;;;;;;;;;;;;;;;;;;;;;;;;;;;;;;;;;;;;;;;;;;;;;;;;;;;;;;;;;;;;;
"Erika981";"1996";;"Windows 8";"Rachel's Experiment (D.T.)";"1.0";"2";"1";"1";"2";"1";"1";"2014-10-13 19:50:16.718";"2014-10-13 20:05:50.252";"1";"1";"1";"163";"162";"module.devaluation_practice.exec-4028.devalPractice";;;;;;;;;;;;"9323";"2014-10-13 20:02:35.010";"3";"3";"1";"1";"1783";"2089";"2429";"2014-10-13 20:02:25.687";;;;;;;;;;;;;;;;;;;;;;;;;;;;;;;;;;;;;;;;;;;;;;;;;;;;;;;;;;;;;;;;;;;;;;
"Erika981";"1996";;"Windows 8";"Rachel's Experiment (D.T.)";"1.0";"2";"1";"1";"2";"1";"1";"2014-10-13 19:50:16.718";"2014-10-13 20:05:50.252";"1";"1";"1";"164";"163";"module.devaluation_block1.exec-5671.deval1";"7507";"2014-10-13 20:02:46.800";"11";"2";"1";"2";"2093";"1284";"1099";"2014-10-13 20:02:39.292";"2";;;;;;;;;;;;;;;;;;;;;;;;;;;;;;;;;;;;;;;;;;;;;;;;;;;;;;;;;;;;;;;;;;;;;;;;;;;;;;;;
"Erika981";"1996";;"Windows 8";"Rachel's Experiment (D.T.)";"1.0";"2";"1";"1";"2";"1";"1";"2014-10-13 19:50:16.718";"2014-10-13 20:05:50.252";"1";"1";"1";"165";"164";"module.devaluation_block1.exec-5671.deval1";"7169";"2014-10-13 20:02:53.999";"6";"7";"7";"7";"1300";"1333";"1512";"2014-10-13 20:02:46.830";"1";;;;;;;;;;;;;;;;;;;;;;;;;;;;;;;;;;;;;;;;;;;;;;;;;;;;;;;;;;;;;;;;;;;;;;;;;;;;;;;;
"Erika981";"1996";;"Windows 8";"Rachel's Experiment (D.T.)";"1.0";"2";"1";"1";"2";"1";"1";"2014-10-13 19:50:16.718";"2014-10-13 20:05:50.252";"1";"1";"1";"166";"165";"module.devaluation_block1.exec-5671.deval1";"7306";"2014-10-13 20:03:01.332";"19";"7";"8";"8";"2219";"1131";"928";"2014-10-13 20:02:54.027";"3";;;;;;;;;;;;;;;;;;;;;;;;;;;;;;;;;;;;;;;;;;;;;;;;;;;;;;;;;;;;;;;;;;;;;;;;;;;;;;;;
"Erika981";"1996";;"Windows 8";"Rachel's Experiment (D.T.)";"1.0";"2";"1";"1";"2";"1";"1";"2014-10-13 19:50:16.718";"2014-10-13 20:05:50.252";"1";"1";"1";"167";"166";"module.devaluation_block1.exec-5671.deval1";"7708";"2014-10-13 20:03:09.069";"16";"2";"2";"2";"2269";"1140";"1279";"2014-10-13 20:03:01.360";"2";;;;;;;;;;;;;;;;;;;;;;;;;;;;;;;;;;;;;;;;;;;;;;;;;;;;;;;;;;;;;;;;;;;;;;;;;;;;;;;;
"Erika981";"1996";;"Windows 8";"Rachel's Experiment (D.T.)";"1.0";"2";"1";"1";"2";"1";"1";"2014-10-13 19:50:16.718";"2014-10-13 20:05:50.252";"1";"1";"1";"168";"167";"module.devaluation_block1.exec-5671.deval1";"7279";"2014-10-13 20:03:16.377";"23";"3";"5";"6";"1857";"1484";"917";"2014-10-13 20:03:09.096";"3";;;;;;;;;;;;;;;;;;;;;;;;;;;;;;;;;;;;;;;;;;;;;;;;;;;;;;;;;;;;;;;;;;;;;;;;;;;;;;;;
"Erika981";"1996";;"Windows 8";"Rachel's Experiment (D.T.)";"1.0";"2";"1";"1";"2";"1";"1";"2014-10-13 19:50:16.718";"2014-10-13 20:05:50.252";"1";"1";"1";"169";"168";"module.devaluation_block1.exec-5671.deval1";"7288";"2014-10-13 20:03:23.692";"24";"6";"6";"8";"1719";"1385";"1162";"2014-10-13 20:03:16.404";"3";;;;;;;;;;;;;;;;;;;;;;;;;;;;;;;;;;;;;;;;;;;;;;;;;;;;;;;;;;;;;;;;;;;;;;;;;;;;;;;;
"Erika981";"1996";;"Windows 8";"Rachel's Experiment (D.T.)";"1.0";"2";"1";"1";"2";"1";"1";"2014-10-13 19:50:16.718";"2014-10-13 20:05:50.252";"1";"1";"1";"170";"169";"module.devaluation_block1.exec-5671.deval1";"9136";"2014-10-13 20:03:32.855";"8";"7";"6";"7";"3481";"1319";"1310";"2014-10-13 20:03:23.718";"1";;;;;;;;;;;;;;;;;;;;;;;;;;;;;;;;;;;;;;;;;;;;;;;;;;;;;;;;;;;;;;;;;;;;;;;;;;;;;;;;
"Erika981";"1996";;"Windows 8";"Rachel's Experiment (D.T.)";"1.0";"2";"1";"1";"2";"1";"1";"2014-10-13 19:50:16.718";"2014-10-13 20:05:50.252";"1";"1";"1";"171";"170";"module.devaluation_block1.exec-5671.deval1";"8253";"2014-10-13 20:03:41.134";"17";"2";"1";"2";"815";"1634";"2782";"2014-10-13 20:03:32.881";"2";;;;;;;;;;;;;;;;;;;;;;;;;;;;;;;;;;;;;;;;;;;;;;;;;;;;;;;;;;;;;;;;;;;;;;;;;;;;;;;;
"Erika981";"1996";;"Windows 8";"Rachel's Experiment (D.T.)";"1.0";"2";"1";"1";"2";"1";"1";"2014-10-13 19:50:16.718";"2014-10-13 20:05:50.252";"1";"1";"1";"172";"171";"module.devaluation_block1.exec-5671.deval1";"6886";"2014-10-13 20:03:48.047";"5";"6";"7";"8";"768";"1179";"1919";"2014-10-13 20:03:41.161";"1";;;;;;;;;;;;;;;;;;;;;;;;;;;;;;;;;;;;;;;;;;;;;;;;;;;;;;;;;;;;;;;;;;;;;;;;;;;;;;;;
"Erika981";"1996";;"Windows 8";"Rachel's Experiment (D.T.)";"1.0";"2";"1";"1";"2";"1";"1";"2014-10-13 19:50:16.718";"2014-10-13 20:05:50.252";"1";"1";"1";"173";"172";"module.devaluation_block1.exec-5671.deval1";"6375";"2014-10-13 20:03:54.456";"18";"2";"6";"7";"1181";"1158";"1013";"2014-10-13 20:03:48.081";"3";;;;;;;;;;;;;;;;;;;;;;;;;;;;;;;;;;;;;;;;;;;;;;;;;;;;;;;;;;;;;;;;;;;;;;;;;;;;;;;;
"Erika981";"1996";;"Windows 8";"Rachel's Experiment (D.T.)";"1.0";"2";"1";"1";"2";"1";"1";"2014-10-13 19:50:16.718";"2014-10-13 20:05:50.252";"1";"1";"1";"174";"173";"module.devaluation_block1.exec-5671.deval1";"9860";"2014-10-13 20:04:04.343";"9";"2";"4";"6";"1900";"1709";"3232";"2014-10-13 20:03:54.482";"2";;;;;;;;;;;;;;;;;;;;;;;;;;;;;;;;;;;;;;;;;;;;;;;;;;;;;;;;;;;;;;;;;;;;;;;;;;;;;;;;
"Erika981";"1996";;"Windows 8";"Rachel's Experiment (D.T.)";"1.0";"2";"1";"1";"2";"1";"1";"2014-10-13 19:50:16.718";"2014-10-13 20:05:50.252";"1";"1";"1";"175";"174";"module.devaluation_block1.exec-5671.deval1";"7803";"2014-10-13 20:04:12.174";"26";"9";"8";"9";"1665";"1848";"1269";"2014-10-13 20:04:04.370";"3";;;;;;;;;;;;;;;;;;;;;;;;;;;;;;;;;;;;;;;;;;;;;;;;;;;;;;;;;;;;;;;;;;;;;;;;;;;;;;;;
"Erika981";"1996";;"Windows 8";"Rachel's Experiment (D.T.)";"1.0";"2";"1";"1";"2";"1";"1";"2014-10-13 19:50:16.718";"2014-10-13 20:05:50.252";"1";"1";"1";"176";"175";"module.devaluation_block1.exec-5671.deval1";"4904";"2014-10-13 20:04:17.105";"0";"7";"7";"7";"676";"522";"685";"2014-10-13 20:04:12.201";"1";;;;;;;;;;;;;;;;;;;;;;;;;;;;;;;;;;;;;;;;;;;;;;;;;;;;;;;;;;;;;;;;;;;;;;;;;;;;;;;;
"Erika981";"1996";;"Windows 8";"Rachel's Experiment (D.T.)";"1.0";"2";"1";"1";"2";"1";"1";"2014-10-13 19:50:16.718";"2014-10-13 20:05:50.252";"1";"1";"1";"177";"176";"module.devaluation_block1.exec-5671.deval1";"7571";"2014-10-13 20:04:24.701";"10";"7";"6";"8";"1254";"1270";"2023";"2014-10-13 20:04:17.130";"2";;;;;;;;;;;;;;;;;;;;;;;;;;;;;;;;;;;;;;;;;;;;;;;;;;;;;;;;;;;;;;;;;;;;;;;;;;;;;;;;
"Erika981";"1996";;"Windows 8";"Rachel's Experiment (D.T.)";"1.0";"2";"1";"1";"2";"1";"1";"2014-10-13 19:50:16.718";"2014-10-13 20:05:50.252";"1";"1";"1";"178";"177";"module.devaluation_block1.exec-5671.deval1";"10318";"2014-10-13 20:04:35.044";"25";"6";"5";"7";"4480";"1473";"1331";"2014-10-13 20:04:24.726";"3";;;;;;;;;;;;;;;;;;;;;;;;;;;;;;;;;;;;;;;;;;;;;;;;;;;;;;;;;;;;;;;;;;;;;;;;;;;;;;;;
"Erika981";"1996";;"Windows 8";"Rachel's Experiment (D.T.)";"1.0";"2";"1";"1";"2";"1";"1";"2014-10-13 19:50:16.718";"2014-10-13 20:05:50.252";"1";"1";"1";"179";"178";"module.devaluation_block1.exec-5671.deval1";"6034";"2014-10-13 20:04:41.104";"20";"3";"7";"7";"949";"1213";"849";"2014-10-13 20:04:35.070";"3";;;;;;;;;;;;;;;;;;;;;;;;;;;;;;;;;;;;;;;;;;;;;;;;;;;;;;;;;;;;;;;;;;;;;;;;;;;;;;;;
"Erika981";"1996";;"Windows 8";"Rachel's Experiment (D.T.)";"1.0";"2";"1";"1";"2";"1";"1";"2014-10-13 19:50:16.718";"2014-10-13 20:05:50.252";"1";"1";"1";"180";"179";"module.devaluation_block1.exec-5671.deval1";"10113";"2014-10-13 20:04:51.244";"4";"9";"9";"9";"4426";"1681";"986";"2014-10-13 20:04:41.130";"1";;;;;;;;;;;;;;;;;;;;;;;;;;;;;;;;;;;;;;;;;;;;;;;;;;;;;;;;;;;;;;;;;;;;;;;;;;;;;;;;
"Erika981";"1996";;"Windows 8";"Rachel's Experiment (D.T.)";"1.0";"2";"1";"1";"2";"1";"1";"2014-10-13 19:50:16.718";"2014-10-13 20:05:50.252";"1";"1";"1";"181";"180";"module.devaluation_block1.exec-5671.deval1";"4809";"2014-10-13 20:04:56.079";"7";"7";"6";"7";"696";"447";"645";"2014-10-13 20:04:51.270";"1";;;;;;;;;;;;;;;;;;;;;;;;;;;;;;;;;;;;;;;;;;;;;;;;;;;;;;;;;;;;;;;;;;;;;;;;;;;;;;;;
"Erika981";"1996";;"Windows 8";"Rachel's Experiment (D.T.)";"1.0";"2";"1";"1";"2";"1";"1";"2014-10-13 19:50:16.718";"2014-10-13 20:05:50.252";"1";"1";"1";"182";"181";"module.devaluation_block1.exec-5671.deval1";"5215";"2014-10-13 20:05:01.320";"3";"8";"7";"8";"1114";"439";"639";"2014-10-13 20:04:56.106";"1";;;;;;;;;;;;;;;;;;;;;;;;;;;;;;;;;;;;;;;;;;;;;;;;;;;;;;;;;;;;;;;;;;;;;;;;;;;;;;;;
"Erika981";"1996";;"Windows 8";"Rachel's Experiment (D.T.)";"1.0";"2";"1";"1";"2";"1";"1";"2014-10-13 19:50:16.718";"2014-10-13 20:05:50.252";"1";"1";"1";"183";"182";"module.devaluation_block1.exec-5671.deval1";"5415";"2014-10-13 20:05:06.763";"22";"8";"9";"8";"1104";"743";"547";"2014-10-13 20:05:01.348";"3";;;;;;;;;;;;;;;;;;;;;;;;;;;;;;;;;;;;;;;;;;;;;;;;;;;;;;;;;;;;;;;;;;;;;;;;;;;;;;;;
"Erika981";"1996";;"Windows 8";"Rachel's Experiment (D.T.)";"1.0";"2";"1";"1";"2";"1";"1";"2014-10-13 19:50:16.718";"2014-10-13 20:05:50.252";"1";"1";"1";"184";"183";"module.devaluation_block1.exec-5671.deval1";"7023";"2014-10-13 20:05:13.812";"2";"6";"4";"6";"653";"1757";"1586";"2014-10-13 20:05:06.789";"1";;;;;;;;;;;;;;;;;;;;;;;;;;;;;;;;;;;;;;;;;;;;;;;;;;;;;;;;;;;;;;;;;;;;;;;;;;;;;;;;
"Erika981";"1996";;"Windows 8";"Rachel's Experiment (D.T.)";"1.0";"2";"1";"1";"2";"1";"1";"2014-10-13 19:50:16.718";"2014-10-13 20:05:50.252";"1";"1";"1";"185";"184";"module.devaluation_block1.exec-5671.deval1";"5065";"2014-10-13 20:05:18.902";"12";"7";"6";"8";"748";"452";"845";"2014-10-13 20:05:13.837";"2";;;;;;;;;;;;;;;;;;;;;;;;;;;;;;;;;;;;;;;;;;;;;;;;;;;;;;;;;;;;;;;;;;;;;;;;;;;;;;;;
"Erika981";"1996";;"Windows 8";"Rachel's Experiment (D.T.)";"1.0";"2";"1";"1";"2";"1";"1";"2014-10-13 19:50:16.718";"2014-10-13 20:05:50.252";"1";"1";"1";"186";"185";"module.devaluation_block1.exec-5671.deval1";"5658";"2014-10-13 20:05:24.587";"21";"2";"6";"8";"1198";"740";"699";"2014-10-13 20:05:18.929";"3";;;;;;;;;;;;;;;;;;;;;;;;;;;;;;;;;;;;;;;;;;;;;;;;;;;;;;;;;;;;;;;;;;;;;;;;;;;;;;;;
"Erika981";"1996";;"Windows 8";"Rachel's Experiment (D.T.)";"1.0";"2";"1";"1";"2";"1";"1";"2014-10-13 19:50:16.718";"2014-10-13 20:05:50.252";"1";"1";"1";"187";"186";"module.devaluation_block1.exec-5671.deval1";"5292";"2014-10-13 20:05:29.903";"15";"1";"2";"1";"939";"703";"626";"2014-10-13 20:05:24.611";"2";;;;;;;;;;;;;;;;;;;;;;;;;;;;;;;;;;;;;;;;;;;;;;;;;;;;;;;;;;;;;;;;;;;;;;;;;;;;;;;;
"Erika981";"1996";;"Windows 8";"Rachel's Experiment (D.T.)";"1.0";"2";"1";"1";"2";"1";"1";"2014-10-13 19:50:16.718";"2014-10-13 20:05:50.252";"1";"1";"1";"188";"187";"module.devaluation_block1.exec-5671.deval1";"6505";"2014-10-13 20:05:36.434";"14";"7";"7";"8";"1198";"1514";"767";"2014-10-13 20:05:29.928";"2";;;;;;;;;;;;;;;;;;;;;;;;;;;;;;;;;;;;;;;;;;;;;;;;;;;;;;;;;;;;;;;;;;;;;;;;;;;;;;;;
"Erika981";"1996";;"Windows 8";"Rachel's Experiment (D.T.)";"1.0";"2";"1";"1";"2";"1";"1";"2014-10-13 19:50:16.718";"2014-10-13 20:05:50.252";"1";"1";"1";"189";"188";"module.devaluation_block1.exec-5671.deval1";"6633";"2014-10-13 20:05:43.096";"13";"7";"3";"3";"795";"2142";"675";"2014-10-13 20:05:36.463";"2";;;;;;;;;;;;;;;;;;;;;;;;;;;;;;;;;;;;;;;;;;;;;;;;;;;;;;;;;;;;;;;;;;;;;;;;;;;;;;;;
"Erika981";"1996";;"Windows 8";"Rachel's Experiment (D.T.)";"1.0";"2";"1";"1";"2";"1";"1";"2014-10-13 19:50:16.718";"2014-10-13 20:05:50.252";"1";"1";"1";"190";"189";"module.devaluation_block1.exec-5671.deval1";"5291";"2014-10-13 20:05:48.411";"1";"5";"5";"5";"1689";"285";"297";"2014-10-13 20:05:43.120";"1";;;;;;;;;;;;;;;;;;;;;;;;;;;;;;;;;;;;;;;;;;;;;;;;;;;;;;;;;;;;;;;;;;;;;;;;;;;;;;;;
