"user.name";"user.yearOfBirth";"user.sex";"user.osName";"module.name";"module.version";"module.online.subject.code";"module.online.study.id";"module.online.module.nr";"module.online.group.nr";"session.id";"session.index";"session.startTime";"session.endTime";"session.completed";"session.node-1545.DevalQorder";"session.node-3091.conditionType";"trial.id";"trial.index";"trial.name";"trial.deval1.durationTime";"trial.deval1.endTime";"trial.deval1.icon";"trial.deval1.Resp_Attractive";"trial.deval1.Resp_Eat";"trial.deval1.Resp_Taste";"trial.deval1.RT_Attractive";"trial.deval1.RT_Eat";"trial.deval1.RT_Taste";"trial.deval1.startTime";"trial.deval1.stimulus type";"trial.devalPractice.durationTime";"trial.devalPractice.endTime";"trial.devalPractice.icon";"trial.devalPractice.Resp_Attractive";"trial.devalPractice.Resp_Eat";"trial.devalPractice.Resp_Taste";"trial.devalPractice.RT_Attractive";"trial.devalPractice.RT_Eat";"trial.devalPractice.RT_Taste";"trial.devalPractice.startTime";"trial.devalPractice.stimulus type";"trial.GoNoGo1.durationTime";"trial.GoNoGo1.endTime";"trial.GoNoGo1.Error Type";"trial.GoNoGo1.icon";"trial.GoNoGo1.location";"trial.GoNoGo1.outcome";"trial.GoNoGo1.response";"trial.GoNoGo1.result";"trial.GoNoGo1.RT";"trial.GoNoGo1.signal";"trial.GoNoGo1.startTime";"trial.GoNoGo1.stimulus type";"trial.GoNoGo2.durationTime";"trial.GoNoGo2.endTime";"trial.GoNoGo2.Error Type";"trial.GoNoGo2.icon";"trial.GoNoGo2.location";"trial.GoNoGo2.outcome";"trial.GoNoGo2.response";"trial.GoNoGo2.result";"trial.GoNoGo2.RT";"trial.GoNoGo2.signal";"trial.GoNoGo2.startTime";"trial.GoNoGo2.stimulus type";"trial.GoNoGo3.durationTime";"trial.GoNoGo3.endTime";"trial.GoNoGo3.Error Type";"trial.GoNoGo3.icon";"trial.GoNoGo3.location";"trial.GoNoGo3.outcome";"trial.GoNoGo3.response";"trial.GoNoGo3.result";"trial.GoNoGo3.RT";"trial.GoNoGo3.signal";"trial.GoNoGo3.startTime";"trial.GoNoGo3.stimulus type";"trial.GoNoGo4.durationTime";"trial.GoNoGo4.endTime";"trial.GoNoGo4.Error Type";"trial.GoNoGo4.icon";"trial.GoNoGo4.location";"trial.GoNoGo4.outcome";"trial.GoNoGo4.response";"trial.GoNoGo4.result";"trial.GoNoGo4.RT";"trial.GoNoGo4.signal";"trial.GoNoGo4.startTime";"trial.GoNoGo4.stimulus type";"trial.GoNoGo_Practice.durationTime";"trial.GoNoGo_Practice.endTime";"trial.GoNoGo_Practice.icon";"trial.GoNoGo_Practice.location";"trial.GoNoGo_Practice.outcome";"trial.GoNoGo_Practice.response";"trial.GoNoGo_Practice.result";"trial.GoNoGo_Practice.RT";"trial.GoNoGo_Practice.signal";"trial.GoNoGo_Practice.startTime";"trial.GoNoGo_Practice.stimulus type";"trial.GoNoGo_Tutorial.durationTime";"trial.GoNoGo_Tutorial.endTime";"trial.GoNoGo_Tutorial.icon";"trial.GoNoGo_Tutorial.location";"trial.GoNoGo_Tutorial.outcome";"trial.GoNoGo_Tutorial.response";"trial.GoNoGo_Tutorial.result";"trial.GoNoGo_Tutorial.RT";"trial.GoNoGo_Tutorial.signal";"trial.GoNoGo_Tutorial.startTime"
"07hflynn";"1996";;"Windows 7";"Rachel's Experiment (D.T.)";"1.0";"2";"1";"1";"2";"1";"1";"2014-10-07 10:20:05.718";"2014-10-07 10:36:48.394";"1";"0";"1";"1";"0";"module.GoNoGotutorial.exec-4793.GoNoGo_Tutorial";;;;;;;;;;;;;;;;;;;;;;;;;;;;;;;;;;;;;;;;;;;;;;;;;;;;;;;;;;;;;;;;;;;;;;;;;;;;;;;;;;"3998";"2014-10-07 10:22:40.969";"leftResponse";"0";"FINISHED";"NONE";"failure";"0";"0";"2014-10-07 10:22:36.960"
"07hflynn";"1996";;"Windows 7";"Rachel's Experiment (D.T.)";"1.0";"2";"1";"1";"2";"1";"1";"2014-10-07 10:20:05.718";"2014-10-07 10:36:48.394";"1";"0";"1";"2";"1";"module.GoNoGotutorial.exec-4793.GoNoGo_Tutorial";;;;;;;;;;;;;;;;;;;;;;;;;;;;;;;;;;;;;;;;;;;;;;;;;;;;;;;;;;;;;;;;;;;;;;;;;;;;;;;;;;"4003";"2014-10-07 10:22:46.273";"rightResponse";"1";"FINISHED";"NONE";"failure";"0";"0";"2014-10-07 10:22:42.264"
"07hflynn";"1996";;"Windows 7";"Rachel's Experiment (D.T.)";"1.0";"2";"1";"1";"2";"1";"1";"2014-10-07 10:20:05.718";"2014-10-07 10:36:48.394";"1";"0";"1";"3";"2";"module.GoNoGotutorial.exec-4793.GoNoGo_Tutorial";;;;;;;;;;;;;;;;;;;;;;;;;;;;;;;;;;;;;;;;;;;;;;;;;;;;;;;;;;;;;;;;;;;;;;;;;;;;;;;;;;"4003";"2014-10-07 10:22:51.577";"signalResponse";"0";"FINISHED";"NONE";"success";"0";"1";"2014-10-07 10:22:47.568"
"07hflynn";"1996";;"Windows 7";"Rachel's Experiment (D.T.)";"1.0";"2";"1";"1";"2";"1";"1";"2014-10-07 10:20:05.718";"2014-10-07 10:36:48.394";"1";"0";"1";"4";"3";"module.GoNoGopractice.exec-5922.GoNoGo_Practice";;;;;;;;;;;;;;;;;;;;;;;;;;;;;;;;;;;;;;;;;;;;;;;;;;;;;;;;;;;;;;;;;;;;;;;"1958";"2014-10-07 10:23:04.135";"18";"0";"FINISHED";"LEFT";"success";"714";"0";"2014-10-07 10:23:02.169";"3";;;;;;;;;;
"07hflynn";"1996";;"Windows 7";"Rachel's Experiment (D.T.)";"1.0";"2";"1";"1";"2";"1";"1";"2014-10-07 10:20:05.718";"2014-10-07 10:36:48.394";"1";"0";"1";"5";"4";"module.GoNoGopractice.exec-5922.GoNoGo_Practice";;;;;;;;;;;;;;;;;;;;;;;;;;;;;;;;;;;;;;;;;;;;;;;;;;;;;;;;;;;;;;;;;;;;;;;"1959";"2014-10-07 10:23:07.380";"21";"1";"FINISHED";"RIGHT";"success";"470";"0";"2014-10-07 10:23:05.414";"3";;;;;;;;;;
"07hflynn";"1996";;"Windows 7";"Rachel's Experiment (D.T.)";"1.0";"2";"1";"1";"2";"1";"1";"2014-10-07 10:20:05.718";"2014-10-07 10:36:48.394";"1";"0";"1";"6";"5";"module.GoNoGopractice.exec-5922.GoNoGo_Practice";;;;;;;;;;;;;;;;;;;;;;;;;;;;;;;;;;;;;;;;;;;;;;;;;;;;;;;;;;;;;;;;;;;;;;;"1959";"2014-10-07 10:23:10.625";"14";"1";"FINISHED";"RIGHT";"failure";"338";"1";"2014-10-07 10:23:08.659";"2";;;;;;;;;;
"07hflynn";"1996";;"Windows 7";"Rachel's Experiment (D.T.)";"1.0";"2";"1";"1";"2";"1";"1";"2014-10-07 10:20:05.718";"2014-10-07 10:36:48.394";"1";"0";"1";"7";"6";"module.GoNoGopractice.exec-5922.GoNoGo_Practice";;;;;;;;;;;;;;;;;;;;;;;;;;;;;;;;;;;;;;;;;;;;;;;;;;;;;;;;;;;;;;;;;;;;;;;"1959";"2014-10-07 10:23:13.885";"26";"0";"FINISHED";"LEFT";"success";"509";"0";"2014-10-07 10:23:11.919";"3";;;;;;;;;;
"07hflynn";"1996";;"Windows 7";"Rachel's Experiment (D.T.)";"1.0";"2";"1";"1";"2";"1";"1";"2014-10-07 10:20:05.718";"2014-10-07 10:36:48.394";"1";"0";"1";"8";"7";"module.GoNoGopractice.exec-5922.GoNoGo_Practice";;;;;;;;;;;;;;;;;;;;;;;;;;;;;;;;;;;;;;;;;;;;;;;;;;;;;;;;;;;;;;;;;;;;;;;"1959";"2014-10-07 10:23:17.130";"2";"0";"FINISHED";"LEFT";"success";"504";"0";"2014-10-07 10:23:15.164";"1";;;;;;;;;;
"07hflynn";"1996";;"Windows 7";"Rachel's Experiment (D.T.)";"1.0";"2";"1";"1";"2";"1";"1";"2014-10-07 10:20:05.718";"2014-10-07 10:36:48.394";"1";"0";"1";"9";"8";"module.GoNoGopractice.exec-5922.GoNoGo_Practice";;;;;;;;;;;;;;;;;;;;;;;;;;;;;;;;;;;;;;;;;;;;;;;;;;;;;;;;;;;;;;;;;;;;;;;"1960";"2014-10-07 10:23:20.375";"30";"0";"FINISHED";"NONE";"success";"0";"1";"2014-10-07 10:23:18.409";"3";;;;;;;;;;
"07hflynn";"1996";;"Windows 7";"Rachel's Experiment (D.T.)";"1.0";"2";"1";"1";"2";"1";"1";"2014-10-07 10:20:05.718";"2014-10-07 10:36:48.394";"1";"0";"1";"10";"9";"module.GoNoGopractice.exec-5922.GoNoGo_Practice";;;;;;;;;;;;;;;;;;;;;;;;;;;;;;;;;;;;;;;;;;;;;;;;;;;;;;;;;;;;;;;;;;;;;;;"1959";"2014-10-07 10:23:23.619";"6";"1";"FINISHED";"RIGHT";"failure";"439";"1";"2014-10-07 10:23:21.654";"1";;;;;;;;;;
"07hflynn";"1996";;"Windows 7";"Rachel's Experiment (D.T.)";"1.0";"2";"1";"1";"2";"1";"1";"2014-10-07 10:20:05.718";"2014-10-07 10:36:48.394";"1";"0";"1";"11";"10";"module.GoNoGopractice.exec-5922.GoNoGo_Practice";;;;;;;;;;;;;;;;;;;;;;;;;;;;;;;;;;;;;;;;;;;;;;;;;;;;;;;;;;;;;;;;;;;;;;;"1960";"2014-10-07 10:23:26.864";"34";"0";"FINISHED";"LEFT";"success";"610";"0";"2014-10-07 10:23:24.899";"3";;;;;;;;;;
"07hflynn";"1996";;"Windows 7";"Rachel's Experiment (D.T.)";"1.0";"2";"1";"1";"2";"1";"1";"2014-10-07 10:20:05.718";"2014-10-07 10:36:48.394";"1";"0";"1";"12";"11";"module.GoNoGopractice.exec-5922.GoNoGo_Practice";;;;;;;;;;;;;;;;;;;;;;;;;;;;;;;;;;;;;;;;;;;;;;;;;;;;;;;;;;;;;;;;;;;;;;;"1959";"2014-10-07 10:23:30.109";"23";"1";"FINISHED";"RIGHT";"success";"629";"0";"2014-10-07 10:23:28.143";"3";;;;;;;;;;
"07hflynn";"1996";;"Windows 7";"Rachel's Experiment (D.T.)";"1.0";"2";"1";"1";"2";"1";"1";"2014-10-07 10:20:05.718";"2014-10-07 10:36:48.394";"1";"0";"1";"13";"12";"module.GoNoGopractice.exec-5922.GoNoGo_Practice";;;;;;;;;;;;;;;;;;;;;;;;;;;;;;;;;;;;;;;;;;;;;;;;;;;;;;;;;;;;;;;;;;;;;;;"1958";"2014-10-07 10:23:33.447";"13";"0";"FINISHED";"NONE";"success";"0";"1";"2014-10-07 10:23:31.482";"2";;;;;;;;;;
"07hflynn";"1996";;"Windows 7";"Rachel's Experiment (D.T.)";"1.0";"2";"1";"1";"2";"1";"1";"2014-10-07 10:20:05.718";"2014-10-07 10:36:48.394";"1";"0";"1";"14";"13";"module.GoNoGopractice.exec-5922.GoNoGo_Practice";;;;;;;;;;;;;;;;;;;;;;;;;;;;;;;;;;;;;;;;;;;;;;;;;;;;;;;;;;;;;;;;;;;;;;;"1960";"2014-10-07 10:23:36.692";"3";"1";"FINISHED";"RIGHT";"success";"671";"0";"2014-10-07 10:23:34.727";"1";;;;;;;;;;
"07hflynn";"1996";;"Windows 7";"Rachel's Experiment (D.T.)";"1.0";"2";"1";"1";"2";"1";"1";"2014-10-07 10:20:05.718";"2014-10-07 10:36:48.394";"1";"0";"1";"15";"14";"module.GoNoGopractice.exec-5922.GoNoGo_Practice";;;;;;;;;;;;;;;;;;;;;;;;;;;;;;;;;;;;;;;;;;;;;;;;;;;;;;;;;;;;;;;;;;;;;;;"1960";"2014-10-07 10:23:39.937";"27";"1";"FINISHED";"NONE";"success";"0";"1";"2014-10-07 10:23:37.971";"3";;;;;;;;;;
"07hflynn";"1996";;"Windows 7";"Rachel's Experiment (D.T.)";"1.0";"2";"1";"1";"2";"1";"1";"2014-10-07 10:20:05.718";"2014-10-07 10:36:48.394";"1";"0";"1";"16";"15";"module.training_block1.exec-2792.GoNoGo1";;;;;;;;;;;;;;;;;;;;;;;"1256";"2014-10-07 10:23:53.806";"ST_correctStop";"8";"0";"FINISHED";"NONE";"success";"0";"1";"2014-10-07 10:23:52.542";"1";;;;;;;;;;;;;;;;;;;;;;;;;;;;;;;;;;;;;;;;;;;;;;;;;;;;;;;;;
"07hflynn";"1996";;"Windows 7";"Rachel's Experiment (D.T.)";"1.0";"2";"1";"1";"2";"1";"1";"2014-10-07 10:20:05.718";"2014-10-07 10:36:48.394";"1";"0";"1";"17";"16";"module.training_block1.exec-2792.GoNoGo1";;;;;;;;;;;;;;;;;;;;;;;"1258";"2014-10-07 10:23:56.348";"ST_correctStop";"1";"1";"FINISHED";"NONE";"success";"0";"1";"2014-10-07 10:23:55.085";"1";;;;;;;;;;;;;;;;;;;;;;;;;;;;;;;;;;;;;;;;;;;;;;;;;;;;;;;;;
"07hflynn";"1996";;"Windows 7";"Rachel's Experiment (D.T.)";"1.0";"2";"1";"1";"2";"1";"1";"2014-10-07 10:20:05.718";"2014-10-07 10:36:48.394";"1";"0";"1";"18";"17";"module.training_block1.exec-2792.GoNoGo1";;;;;;;;;;;;;;;;;;;;;;;"1257";"2014-10-07 10:23:58.891";"ST_correctStop";"0";"0";"FINISHED";"NONE";"success";"0";"1";"2014-10-07 10:23:57.628";"1";;;;;;;;;;;;;;;;;;;;;;;;;;;;;;;;;;;;;;;;;;;;;;;;;;;;;;;;;
"07hflynn";"1996";;"Windows 7";"Rachel's Experiment (D.T.)";"1.0";"2";"1";"1";"2";"1";"1";"2014-10-07 10:20:05.718";"2014-10-07 10:36:48.394";"1";"0";"1";"19";"18";"module.training_block1.exec-2792.GoNoGo1";;;;;;;;;;;;;;;;;;;;;;;"1258";"2014-10-07 10:24:01.434";"NST_correctLoc";"29";"0";"FINISHED";"LEFT";"success";"506";"0";"2014-10-07 10:24:00.170";"3";;;;;;;;;;;;;;;;;;;;;;;;;;;;;;;;;;;;;;;;;;;;;;;;;;;;;;;;;
"07hflynn";"1996";;"Windows 7";"Rachel's Experiment (D.T.)";"1.0";"2";"1";"1";"2";"1";"1";"2014-10-07 10:20:05.718";"2014-10-07 10:36:48.394";"1";"0";"1";"20";"19";"module.training_block1.exec-2792.GoNoGo1";;;;;;;;;;;;;;;;;;;;;;;"1257";"2014-10-07 10:24:03.977";"ST_correctStop";"4";"1";"FINISHED";"NONE";"success";"0";"1";"2014-10-07 10:24:02.713";"1";;;;;;;;;;;;;;;;;;;;;;;;;;;;;;;;;;;;;;;;;;;;;;;;;;;;;;;;;
"07hflynn";"1996";;"Windows 7";"Rachel's Experiment (D.T.)";"1.0";"2";"1";"1";"2";"1";"1";"2014-10-07 10:20:05.718";"2014-10-07 10:36:48.394";"1";"0";"1";"21";"20";"module.training_block1.exec-2792.GoNoGo1";;;;;;;;;;;;;;;;;;;;;;;"1261";"2014-10-07 10:24:06.520";"ST_correctStop";"3";"0";"FINISHED";"NONE";"success";"0";"1";"2014-10-07 10:24:05.256";"1";;;;;;;;;;;;;;;;;;;;;;;;;;;;;;;;;;;;;;;;;;;;;;;;;;;;;;;;;
"07hflynn";"1996";;"Windows 7";"Rachel's Experiment (D.T.)";"1.0";"2";"1";"1";"2";"1";"1";"2014-10-07 10:20:05.718";"2014-10-07 10:36:48.394";"1";"0";"1";"22";"21";"module.training_block1.exec-2792.GoNoGo1";;;;;;;;;;;;;;;;;;;;;;;"1257";"2014-10-07 10:24:09.062";"ST_correctStop";"24";"0";"FINISHED";"NONE";"success";"0";"1";"2014-10-07 10:24:07.799";"3";;;;;;;;;;;;;;;;;;;;;;;;;;;;;;;;;;;;;;;;;;;;;;;;;;;;;;;;;
"07hflynn";"1996";;"Windows 7";"Rachel's Experiment (D.T.)";"1.0";"2";"1";"1";"2";"1";"1";"2014-10-07 10:20:05.718";"2014-10-07 10:36:48.394";"1";"0";"1";"23";"22";"module.training_block1.exec-2792.GoNoGo1";;;;;;;;;;;;;;;;;;;;;;;"1257";"2014-10-07 10:24:11.605";"ST_correctStop";"23";"0";"FINISHED";"NONE";"success";"0";"1";"2014-10-07 10:24:10.342";"3";;;;;;;;;;;;;;;;;;;;;;;;;;;;;;;;;;;;;;;;;;;;;;;;;;;;;;;;;
"07hflynn";"1996";;"Windows 7";"Rachel's Experiment (D.T.)";"1.0";"2";"1";"1";"2";"1";"1";"2014-10-07 10:20:05.718";"2014-10-07 10:36:48.394";"1";"0";"1";"24";"23";"module.training_block1.exec-2792.GoNoGo1";;;;;;;;;;;;;;;;;;;;;;;"1257";"2014-10-07 10:24:14.148";"NST_correctLoc";"16";"0";"FINISHED";"LEFT";"success";"584";"0";"2014-10-07 10:24:12.884";"2";;;;;;;;;;;;;;;;;;;;;;;;;;;;;;;;;;;;;;;;;;;;;;;;;;;;;;;;;
"07hflynn";"1996";;"Windows 7";"Rachel's Experiment (D.T.)";"1.0";"2";"1";"1";"2";"1";"1";"2014-10-07 10:20:05.718";"2014-10-07 10:36:48.394";"1";"0";"1";"25";"24";"module.training_block1.exec-2792.GoNoGo1";;;;;;;;;;;;;;;;;;;;;;;"1258";"2014-10-07 10:24:16.691";"ST_correctStop";"33";"1";"FINISHED";"NONE";"success";"0";"1";"2014-10-07 10:24:15.427";"3";;;;;;;;;;;;;;;;;;;;;;;;;;;;;;;;;;;;;;;;;;;;;;;;;;;;;;;;;
"07hflynn";"1996";;"Windows 7";"Rachel's Experiment (D.T.)";"1.0";"2";"1";"1";"2";"1";"1";"2014-10-07 10:20:05.718";"2014-10-07 10:36:48.394";"1";"0";"1";"26";"25";"module.training_block1.exec-2792.GoNoGo1";;;;;;;;;;;;;;;;;;;;;;;"1258";"2014-10-07 10:24:19.234";"NST_correctLoc";"18";"1";"FINISHED";"RIGHT";"success";"611";"0";"2014-10-07 10:24:17.970";"3";;;;;;;;;;;;;;;;;;;;;;;;;;;;;;;;;;;;;;;;;;;;;;;;;;;;;;;;;
"07hflynn";"1996";;"Windows 7";"Rachel's Experiment (D.T.)";"1.0";"2";"1";"1";"2";"1";"1";"2014-10-07 10:20:05.718";"2014-10-07 10:36:48.394";"1";"0";"1";"27";"26";"module.training_block1.exec-2792.GoNoGo1";;;;;;;;;;;;;;;;;;;;;;;"1257";"2014-10-07 10:24:21.776";"NST_correctLoc";"14";"0";"FINISHED";"LEFT";"success";"516";"0";"2014-10-07 10:24:20.513";"2";;;;;;;;;;;;;;;;;;;;;;;;;;;;;;;;;;;;;;;;;;;;;;;;;;;;;;;;;
"07hflynn";"1996";;"Windows 7";"Rachel's Experiment (D.T.)";"1.0";"2";"1";"1";"2";"1";"1";"2014-10-07 10:20:05.718";"2014-10-07 10:36:48.394";"1";"0";"1";"28";"27";"module.training_block1.exec-2792.GoNoGo1";;;;;;;;;;;;;;;;;;;;;;;"1258";"2014-10-07 10:24:24.319";"ST_correctStop";"20";"0";"FINISHED";"NONE";"success";"0";"1";"2014-10-07 10:24:23.056";"3";;;;;;;;;;;;;;;;;;;;;;;;;;;;;;;;;;;;;;;;;;;;;;;;;;;;;;;;;
"07hflynn";"1996";;"Windows 7";"Rachel's Experiment (D.T.)";"1.0";"2";"1";"1";"2";"1";"1";"2014-10-07 10:20:05.718";"2014-10-07 10:36:48.394";"1";"0";"1";"29";"28";"module.training_block1.exec-2792.GoNoGo1";;;;;;;;;;;;;;;;;;;;;;;"1258";"2014-10-07 10:24:26.862";"ST_correctStop";"30";"1";"FINISHED";"NONE";"success";"0";"1";"2014-10-07 10:24:25.598";"3";;;;;;;;;;;;;;;;;;;;;;;;;;;;;;;;;;;;;;;;;;;;;;;;;;;;;;;;;
"07hflynn";"1996";;"Windows 7";"Rachel's Experiment (D.T.)";"1.0";"2";"1";"1";"2";"1";"1";"2014-10-07 10:20:05.718";"2014-10-07 10:36:48.394";"1";"0";"1";"30";"29";"module.training_block1.exec-2792.GoNoGo1";;;;;;;;;;;;;;;;;;;;;;;"1258";"2014-10-07 10:24:29.405";"ST_correctStop";"25";"1";"FINISHED";"NONE";"success";"0";"1";"2014-10-07 10:24:28.141";"3";;;;;;;;;;;;;;;;;;;;;;;;;;;;;;;;;;;;;;;;;;;;;;;;;;;;;;;;;
"07hflynn";"1996";;"Windows 7";"Rachel's Experiment (D.T.)";"1.0";"2";"1";"1";"2";"1";"1";"2014-10-07 10:20:05.718";"2014-10-07 10:36:48.394";"1";"0";"1";"31";"30";"module.training_block1.exec-2792.GoNoGo1";;;;;;;;;;;;;;;;;;;;;;;"1257";"2014-10-07 10:24:31.948";"NST_correctLoc";"10";"1";"FINISHED";"RIGHT";"success";"672";"0";"2014-10-07 10:24:30.684";"2";;;;;;;;;;;;;;;;;;;;;;;;;;;;;;;;;;;;;;;;;;;;;;;;;;;;;;;;;
"07hflynn";"1996";;"Windows 7";"Rachel's Experiment (D.T.)";"1.0";"2";"1";"1";"2";"1";"1";"2014-10-07 10:20:05.718";"2014-10-07 10:36:48.394";"1";"0";"1";"32";"31";"module.training_block1.exec-2792.GoNoGo1";;;;;;;;;;;;;;;;;;;;;;;"1258";"2014-10-07 10:24:34.490";"NST_correctLoc";"22";"1";"FINISHED";"RIGHT";"success";"490";"0";"2014-10-07 10:24:33.227";"3";;;;;;;;;;;;;;;;;;;;;;;;;;;;;;;;;;;;;;;;;;;;;;;;;;;;;;;;;
"07hflynn";"1996";;"Windows 7";"Rachel's Experiment (D.T.)";"1.0";"2";"1";"1";"2";"1";"1";"2014-10-07 10:20:05.718";"2014-10-07 10:36:48.394";"1";"0";"1";"33";"32";"module.training_block1.exec-2792.GoNoGo1";;;;;;;;;;;;;;;;;;;;;;;"1257";"2014-10-07 10:24:37.033";"ST_correctStop";"2";"1";"FINISHED";"NONE";"success";"0";"1";"2014-10-07 10:24:35.770";"1";;;;;;;;;;;;;;;;;;;;;;;;;;;;;;;;;;;;;;;;;;;;;;;;;;;;;;;;;
"07hflynn";"1996";;"Windows 7";"Rachel's Experiment (D.T.)";"1.0";"2";"1";"1";"2";"1";"1";"2014-10-07 10:20:05.718";"2014-10-07 10:36:48.394";"1";"0";"1";"34";"33";"module.training_block1.exec-2792.GoNoGo1";;;;;;;;;;;;;;;;;;;;;;;"1257";"2014-10-07 10:24:39.576";"ST_failedStop";"28";"0";"FINISHED";"LEFT";"failure";"427";"1";"2014-10-07 10:24:38.312";"3";;;;;;;;;;;;;;;;;;;;;;;;;;;;;;;;;;;;;;;;;;;;;;;;;;;;;;;;;
"07hflynn";"1996";;"Windows 7";"Rachel's Experiment (D.T.)";"1.0";"2";"1";"1";"2";"1";"1";"2014-10-07 10:20:05.718";"2014-10-07 10:36:48.394";"1";"0";"1";"35";"34";"module.training_block1.exec-2792.GoNoGo1";;;;;;;;;;;;;;;;;;;;;;;"1258";"2014-10-07 10:24:42.119";"ST_correctStop";"5";"0";"FINISHED";"NONE";"success";"0";"1";"2014-10-07 10:24:40.855";"1";;;;;;;;;;;;;;;;;;;;;;;;;;;;;;;;;;;;;;;;;;;;;;;;;;;;;;;;;
"07hflynn";"1996";;"Windows 7";"Rachel's Experiment (D.T.)";"1.0";"2";"1";"1";"2";"1";"1";"2014-10-07 10:20:05.718";"2014-10-07 10:36:48.394";"1";"0";"1";"36";"35";"module.training_block1.exec-2792.GoNoGo1";;;;;;;;;;;;;;;;;;;;;;;"1257";"2014-10-07 10:24:44.662";"NST_correctLoc";"15";"1";"FINISHED";"RIGHT";"success";"686";"0";"2014-10-07 10:24:43.398";"2";;;;;;;;;;;;;;;;;;;;;;;;;;;;;;;;;;;;;;;;;;;;;;;;;;;;;;;;;
"07hflynn";"1996";;"Windows 7";"Rachel's Experiment (D.T.)";"1.0";"2";"1";"1";"2";"1";"1";"2014-10-07 10:20:05.718";"2014-10-07 10:36:48.394";"1";"0";"1";"37";"36";"module.training_block1.exec-2792.GoNoGo1";;;;;;;;;;;;;;;;;;;;;;;"1258";"2014-10-07 10:24:47.204";"ST_correctStop";"34";"1";"FINISHED";"NONE";"success";"0";"1";"2014-10-07 10:24:45.941";"3";;;;;;;;;;;;;;;;;;;;;;;;;;;;;;;;;;;;;;;;;;;;;;;;;;;;;;;;;
"07hflynn";"1996";;"Windows 7";"Rachel's Experiment (D.T.)";"1.0";"2";"1";"1";"2";"1";"1";"2014-10-07 10:20:05.718";"2014-10-07 10:36:48.394";"1";"0";"1";"38";"37";"module.training_block1.exec-2792.GoNoGo1";;;;;;;;;;;;;;;;;;;;;;;"1258";"2014-10-07 10:24:49.747";"NST_correctLoc";"12";"1";"FINISHED";"RIGHT";"success";"465";"0";"2014-10-07 10:24:48.484";"2";;;;;;;;;;;;;;;;;;;;;;;;;;;;;;;;;;;;;;;;;;;;;;;;;;;;;;;;;
"07hflynn";"1996";;"Windows 7";"Rachel's Experiment (D.T.)";"1.0";"2";"1";"1";"2";"1";"1";"2014-10-07 10:20:05.718";"2014-10-07 10:36:48.394";"1";"0";"1";"39";"38";"module.training_block1.exec-2792.GoNoGo1";;;;;;;;;;;;;;;;;;;;;;;"1257";"2014-10-07 10:24:52.290";"NST_correctLoc";"32";"1";"FINISHED";"RIGHT";"success";"497";"0";"2014-10-07 10:24:51.026";"3";;;;;;;;;;;;;;;;;;;;;;;;;;;;;;;;;;;;;;;;;;;;;;;;;;;;;;;;;
"07hflynn";"1996";;"Windows 7";"Rachel's Experiment (D.T.)";"1.0";"2";"1";"1";"2";"1";"1";"2014-10-07 10:20:05.718";"2014-10-07 10:36:48.394";"1";"0";"1";"40";"39";"module.training_block1.exec-2792.GoNoGo1";;;;;;;;;;;;;;;;;;;;;;;"1257";"2014-10-07 10:24:54.833";"NST_correctLoc";"31";"0";"FINISHED";"LEFT";"success";"467";"0";"2014-10-07 10:24:53.569";"3";;;;;;;;;;;;;;;;;;;;;;;;;;;;;;;;;;;;;;;;;;;;;;;;;;;;;;;;;
"07hflynn";"1996";;"Windows 7";"Rachel's Experiment (D.T.)";"1.0";"2";"1";"1";"2";"1";"1";"2014-10-07 10:20:05.718";"2014-10-07 10:36:48.394";"1";"0";"1";"41";"40";"module.training_block1.exec-2792.GoNoGo1";;;;;;;;;;;;;;;;;;;;;;;"1261";"2014-10-07 10:24:57.376";"NST_correctLoc";"13";"1";"FINISHED";"RIGHT";"success";"600";"0";"2014-10-07 10:24:56.112";"2";;;;;;;;;;;;;;;;;;;;;;;;;;;;;;;;;;;;;;;;;;;;;;;;;;;;;;;;;
"07hflynn";"1996";;"Windows 7";"Rachel's Experiment (D.T.)";"1.0";"2";"1";"1";"2";"1";"1";"2014-10-07 10:20:05.718";"2014-10-07 10:36:48.394";"1";"0";"1";"42";"41";"module.training_block1.exec-2792.GoNoGo1";;;;;;;;;;;;;;;;;;;;;;;"1253";"2014-10-07 10:24:59.918";"NST_correctLoc";"26";"0";"FINISHED";"LEFT";"success";"656";"0";"2014-10-07 10:24:58.655";"3";;;;;;;;;;;;;;;;;;;;;;;;;;;;;;;;;;;;;;;;;;;;;;;;;;;;;;;;;
"07hflynn";"1996";;"Windows 7";"Rachel's Experiment (D.T.)";"1.0";"2";"1";"1";"2";"1";"1";"2014-10-07 10:20:05.718";"2014-10-07 10:36:48.394";"1";"0";"1";"43";"42";"module.training_block1.exec-2792.GoNoGo1";;;;;;;;;;;;;;;;;;;;;;;"1257";"2014-10-07 10:25:02.461";"ST_correctStop";"6";"0";"FINISHED";"NONE";"success";"0";"1";"2014-10-07 10:25:01.198";"1";;;;;;;;;;;;;;;;;;;;;;;;;;;;;;;;;;;;;;;;;;;;;;;;;;;;;;;;;
"07hflynn";"1996";;"Windows 7";"Rachel's Experiment (D.T.)";"1.0";"2";"1";"1";"2";"1";"1";"2014-10-07 10:20:05.718";"2014-10-07 10:36:48.394";"1";"0";"1";"44";"43";"module.training_block1.exec-2792.GoNoGo1";;;;;;;;;;;;;;;;;;;;;;;"1258";"2014-10-07 10:25:05.004";"NST_correctLoc";"9";"0";"FINISHED";"LEFT";"success";"784";"0";"2014-10-07 10:25:03.740";"2";;;;;;;;;;;;;;;;;;;;;;;;;;;;;;;;;;;;;;;;;;;;;;;;;;;;;;;;;
"07hflynn";"1996";;"Windows 7";"Rachel's Experiment (D.T.)";"1.0";"2";"1";"1";"2";"1";"1";"2014-10-07 10:20:05.718";"2014-10-07 10:36:48.394";"1";"0";"1";"45";"44";"module.training_block1.exec-2792.GoNoGo1";;;;;;;;;;;;;;;;;;;;;;;"1261";"2014-10-07 10:25:07.547";"NST_correctLoc";"27";"1";"FINISHED";"RIGHT";"success";"557";"0";"2014-10-07 10:25:06.283";"3";;;;;;;;;;;;;;;;;;;;;;;;;;;;;;;;;;;;;;;;;;;;;;;;;;;;;;;;;
"07hflynn";"1996";;"Windows 7";"Rachel's Experiment (D.T.)";"1.0";"2";"1";"1";"2";"1";"1";"2014-10-07 10:20:05.718";"2014-10-07 10:36:48.394";"1";"0";"1";"46";"45";"module.training_block1.exec-2792.GoNoGo1";;;;;;;;;;;;;;;;;;;;;;;"1257";"2014-10-07 10:25:10.090";"NST_correctLoc";"19";"1";"FINISHED";"RIGHT";"success";"473";"0";"2014-10-07 10:25:08.826";"3";;;;;;;;;;;;;;;;;;;;;;;;;;;;;;;;;;;;;;;;;;;;;;;;;;;;;;;;;
"07hflynn";"1996";;"Windows 7";"Rachel's Experiment (D.T.)";"1.0";"2";"1";"1";"2";"1";"1";"2014-10-07 10:20:05.718";"2014-10-07 10:36:48.394";"1";"0";"1";"47";"46";"module.training_block1.exec-2792.GoNoGo1";;;;;;;;;;;;;;;;;;;;;;;"1257";"2014-10-07 10:25:12.632";"NST_correctLoc";"21";"1";"FINISHED";"RIGHT";"success";"499";"0";"2014-10-07 10:25:11.369";"3";;;;;;;;;;;;;;;;;;;;;;;;;;;;;;;;;;;;;;;;;;;;;;;;;;;;;;;;;
"07hflynn";"1996";;"Windows 7";"Rachel's Experiment (D.T.)";"1.0";"2";"1";"1";"2";"1";"1";"2014-10-07 10:20:05.718";"2014-10-07 10:36:48.394";"1";"0";"1";"48";"47";"module.training_block1.exec-2792.GoNoGo1";;;;;;;;;;;;;;;;;;;;;;;"1257";"2014-10-07 10:25:15.175";"ST_correctStop";"7";"1";"FINISHED";"NONE";"success";"0";"1";"2014-10-07 10:25:13.912";"1";;;;;;;;;;;;;;;;;;;;;;;;;;;;;;;;;;;;;;;;;;;;;;;;;;;;;;;;;
"07hflynn";"1996";;"Windows 7";"Rachel's Experiment (D.T.)";"1.0";"2";"1";"1";"2";"1";"1";"2014-10-07 10:20:05.718";"2014-10-07 10:36:48.394";"1";"0";"1";"49";"48";"module.training_block1.exec-2792.GoNoGo1";;;;;;;;;;;;;;;;;;;;;;;"1258";"2014-10-07 10:25:17.718";"NST_correctLoc";"11";"1";"FINISHED";"RIGHT";"success";"558";"0";"2014-10-07 10:25:16.454";"2";;;;;;;;;;;;;;;;;;;;;;;;;;;;;;;;;;;;;;;;;;;;;;;;;;;;;;;;;
"07hflynn";"1996";;"Windows 7";"Rachel's Experiment (D.T.)";"1.0";"2";"1";"1";"2";"1";"1";"2014-10-07 10:20:05.718";"2014-10-07 10:36:48.394";"1";"0";"1";"50";"49";"module.training_block1.exec-2792.GoNoGo1";;;;;;;;;;;;;;;;;;;;;;;"1258";"2014-10-07 10:25:20.261";"ST_correctStop";"35";"0";"FINISHED";"NONE";"success";"0";"1";"2014-10-07 10:25:18.997";"3";;;;;;;;;;;;;;;;;;;;;;;;;;;;;;;;;;;;;;;;;;;;;;;;;;;;;;;;;
"07hflynn";"1996";;"Windows 7";"Rachel's Experiment (D.T.)";"1.0";"2";"1";"1";"2";"1";"1";"2014-10-07 10:20:05.718";"2014-10-07 10:36:48.394";"1";"0";"1";"51";"50";"module.training_block1.exec-2792.GoNoGo1";;;;;;;;;;;;;;;;;;;;;;;"1257";"2014-10-07 10:25:22.804";"NST_correctLoc";"17";"0";"FINISHED";"LEFT";"success";"856";"0";"2014-10-07 10:25:21.540";"2";;;;;;;;;;;;;;;;;;;;;;;;;;;;;;;;;;;;;;;;;;;;;;;;;;;;;;;;;
"07hflynn";"1996";;"Windows 7";"Rachel's Experiment (D.T.)";"1.0";"2";"1";"1";"2";"1";"1";"2014-10-07 10:20:05.718";"2014-10-07 10:36:48.394";"1";"0";"1";"52";"51";"module.training_block2.exec-6234.GoNoGo2";;;;;;;;;;;;;;;;;;;;;;;;;;;;;;;;;;;"1261";"2014-10-07 10:25:34.020";"ST_correctStop";"8";"0";"FINISHED";"NONE";"success";"0";"1";"2014-10-07 10:25:32.756";"1";;;;;;;;;;;;;;;;;;;;;;;;;;;;;;;;;;;;;;;;;;;;;
"07hflynn";"1996";;"Windows 7";"Rachel's Experiment (D.T.)";"1.0";"2";"1";"1";"2";"1";"1";"2014-10-07 10:20:05.718";"2014-10-07 10:36:48.394";"1";"0";"1";"53";"52";"module.training_block2.exec-6234.GoNoGo2";;;;;;;;;;;;;;;;;;;;;;;;;;;;;;;;;;;"1261";"2014-10-07 10:25:36.563";"ST_correctStop";"2";"0";"FINISHED";"NONE";"success";"0";"1";"2014-10-07 10:25:35.299";"1";;;;;;;;;;;;;;;;;;;;;;;;;;;;;;;;;;;;;;;;;;;;;
"07hflynn";"1996";;"Windows 7";"Rachel's Experiment (D.T.)";"1.0";"2";"1";"1";"2";"1";"1";"2014-10-07 10:20:05.718";"2014-10-07 10:36:48.394";"1";"0";"1";"54";"53";"module.training_block2.exec-6234.GoNoGo2";;;;;;;;;;;;;;;;;;;;;;;;;;;;;;;;;;;"1261";"2014-10-07 10:25:39.106";"ST_correctStop";"22";"0";"FINISHED";"NONE";"success";"0";"1";"2014-10-07 10:25:37.842";"3";;;;;;;;;;;;;;;;;;;;;;;;;;;;;;;;;;;;;;;;;;;;;
"07hflynn";"1996";;"Windows 7";"Rachel's Experiment (D.T.)";"1.0";"2";"1";"1";"2";"1";"1";"2014-10-07 10:20:05.718";"2014-10-07 10:36:48.394";"1";"0";"1";"55";"54";"module.training_block2.exec-6234.GoNoGo2";;;;;;;;;;;;;;;;;;;;;;;;;;;;;;;;;;;"1261";"2014-10-07 10:25:41.648";"NST_correctLoc";"11";"0";"FINISHED";"LEFT";"success";"431";"0";"2014-10-07 10:25:40.385";"2";;;;;;;;;;;;;;;;;;;;;;;;;;;;;;;;;;;;;;;;;;;;;
"07hflynn";"1996";;"Windows 7";"Rachel's Experiment (D.T.)";"1.0";"2";"1";"1";"2";"1";"1";"2014-10-07 10:20:05.718";"2014-10-07 10:36:48.394";"1";"0";"1";"56";"55";"module.training_block2.exec-6234.GoNoGo2";;;;;;;;;;;;;;;;;;;;;;;;;;;;;;;;;;;"1261";"2014-10-07 10:25:44.191";"NST_correctLoc";"10";"1";"FINISHED";"RIGHT";"success";"600";"0";"2014-10-07 10:25:42.928";"2";;;;;;;;;;;;;;;;;;;;;;;;;;;;;;;;;;;;;;;;;;;;;
"07hflynn";"1996";;"Windows 7";"Rachel's Experiment (D.T.)";"1.0";"2";"1";"1";"2";"1";"1";"2014-10-07 10:20:05.718";"2014-10-07 10:36:48.394";"1";"0";"1";"57";"56";"module.training_block2.exec-6234.GoNoGo2";;;;;;;;;;;;;;;;;;;;;;;;;;;;;;;;;;;"1261";"2014-10-07 10:25:46.734";"ST_correctStop";"27";"1";"FINISHED";"NONE";"success";"0";"1";"2014-10-07 10:25:45.471";"3";;;;;;;;;;;;;;;;;;;;;;;;;;;;;;;;;;;;;;;;;;;;;
"07hflynn";"1996";;"Windows 7";"Rachel's Experiment (D.T.)";"1.0";"2";"1";"1";"2";"1";"1";"2014-10-07 10:20:05.718";"2014-10-07 10:36:48.394";"1";"0";"1";"58";"57";"module.training_block2.exec-6234.GoNoGo2";;;;;;;;;;;;;;;;;;;;;;;;;;;;;;;;;;;"1261";"2014-10-07 10:25:49.277";"NST_correctLoc";"17";"1";"FINISHED";"RIGHT";"success";"714";"0";"2014-10-07 10:25:48.013";"2";;;;;;;;;;;;;;;;;;;;;;;;;;;;;;;;;;;;;;;;;;;;;
"07hflynn";"1996";;"Windows 7";"Rachel's Experiment (D.T.)";"1.0";"2";"1";"1";"2";"1";"1";"2014-10-07 10:20:05.718";"2014-10-07 10:36:48.394";"1";"0";"1";"59";"58";"module.training_block2.exec-6234.GoNoGo2";;;;;;;;;;;;;;;;;;;;;;;;;;;;;;;;;;;"1261";"2014-10-07 10:25:51.820";"NST_correctLoc";"23";"1";"FINISHED";"RIGHT";"success";"587";"0";"2014-10-07 10:25:50.556";"3";;;;;;;;;;;;;;;;;;;;;;;;;;;;;;;;;;;;;;;;;;;;;
"07hflynn";"1996";;"Windows 7";"Rachel's Experiment (D.T.)";"1.0";"2";"1";"1";"2";"1";"1";"2014-10-07 10:20:05.718";"2014-10-07 10:36:48.394";"1";"0";"1";"60";"59";"module.training_block2.exec-6234.GoNoGo2";;;;;;;;;;;;;;;;;;;;;;;;;;;;;;;;;;;"1261";"2014-10-07 10:25:54.363";"ST_failedStop";"31";"0";"FINISHED";"LEFT";"failure";"596";"1";"2014-10-07 10:25:53.099";"3";;;;;;;;;;;;;;;;;;;;;;;;;;;;;;;;;;;;;;;;;;;;;
"07hflynn";"1996";;"Windows 7";"Rachel's Experiment (D.T.)";"1.0";"2";"1";"1";"2";"1";"1";"2014-10-07 10:20:05.718";"2014-10-07 10:36:48.394";"1";"0";"1";"61";"60";"module.training_block2.exec-6234.GoNoGo2";;;;;;;;;;;;;;;;;;;;;;;;;;;;;;;;;;;"1261";"2014-10-07 10:25:56.905";"NST_correctLoc";"14";"0";"FINISHED";"LEFT";"success";"734";"0";"2014-10-07 10:25:55.642";"2";;;;;;;;;;;;;;;;;;;;;;;;;;;;;;;;;;;;;;;;;;;;;
"07hflynn";"1996";;"Windows 7";"Rachel's Experiment (D.T.)";"1.0";"2";"1";"1";"2";"1";"1";"2014-10-07 10:20:05.718";"2014-10-07 10:36:48.394";"1";"0";"1";"62";"61";"module.training_block2.exec-6234.GoNoGo2";;;;;;;;;;;;;;;;;;;;;;;;;;;;;;;;;;;"1261";"2014-10-07 10:25:59.448";"NST_correctLoc";"21";"0";"FINISHED";"LEFT";"success";"631";"0";"2014-10-07 10:25:58.185";"3";;;;;;;;;;;;;;;;;;;;;;;;;;;;;;;;;;;;;;;;;;;;;
"07hflynn";"1996";;"Windows 7";"Rachel's Experiment (D.T.)";"1.0";"2";"1";"1";"2";"1";"1";"2014-10-07 10:20:05.718";"2014-10-07 10:36:48.394";"1";"0";"1";"63";"62";"module.training_block2.exec-6234.GoNoGo2";;;;;;;;;;;;;;;;;;;;;;;;;;;;;;;;;;;"1261";"2014-10-07 10:26:01.991";"NST_correctLoc";"16";"0";"FINISHED";"LEFT";"success";"888";"0";"2014-10-07 10:26:00.727";"2";;;;;;;;;;;;;;;;;;;;;;;;;;;;;;;;;;;;;;;;;;;;;
"07hflynn";"1996";;"Windows 7";"Rachel's Experiment (D.T.)";"1.0";"2";"1";"1";"2";"1";"1";"2014-10-07 10:20:05.718";"2014-10-07 10:36:48.394";"1";"0";"1";"64";"63";"module.training_block2.exec-6234.GoNoGo2";;;;;;;;;;;;;;;;;;;;;;;;;;;;;;;;;;;"1261";"2014-10-07 10:26:04.534";"NST_correctLoc";"9";"0";"FINISHED";"LEFT";"success";"497";"0";"2014-10-07 10:26:03.270";"2";;;;;;;;;;;;;;;;;;;;;;;;;;;;;;;;;;;;;;;;;;;;;
"07hflynn";"1996";;"Windows 7";"Rachel's Experiment (D.T.)";"1.0";"2";"1";"1";"2";"1";"1";"2014-10-07 10:20:05.718";"2014-10-07 10:36:48.394";"1";"0";"1";"65";"64";"module.training_block2.exec-6234.GoNoGo2";;;;;;;;;;;;;;;;;;;;;;;;;;;;;;;;;;;"1261";"2014-10-07 10:26:07.077";"NST_correctLoc";"20";"1";"FINISHED";"RIGHT";"success";"1026";"0";"2014-10-07 10:26:05.813";"3";;;;;;;;;;;;;;;;;;;;;;;;;;;;;;;;;;;;;;;;;;;;;
"07hflynn";"1996";;"Windows 7";"Rachel's Experiment (D.T.)";"1.0";"2";"1";"1";"2";"1";"1";"2014-10-07 10:20:05.718";"2014-10-07 10:36:48.394";"1";"0";"1";"66";"65";"module.training_block2.exec-6234.GoNoGo2";;;;;;;;;;;;;;;;;;;;;;;;;;;;;;;;;;;"1261";"2014-10-07 10:26:09.619";"ST_correctStop";"1";"1";"FINISHED";"NONE";"success";"0";"1";"2014-10-07 10:26:08.356";"1";;;;;;;;;;;;;;;;;;;;;;;;;;;;;;;;;;;;;;;;;;;;;
"07hflynn";"1996";;"Windows 7";"Rachel's Experiment (D.T.)";"1.0";"2";"1";"1";"2";"1";"1";"2014-10-07 10:20:05.718";"2014-10-07 10:36:48.394";"1";"0";"1";"67";"66";"module.training_block2.exec-6234.GoNoGo2";;;;;;;;;;;;;;;;;;;;;;;;;;;;;;;;;;;"1261";"2014-10-07 10:26:12.162";"NST_correctLoc";"32";"0";"FINISHED";"LEFT";"success";"741";"0";"2014-10-07 10:26:10.899";"3";;;;;;;;;;;;;;;;;;;;;;;;;;;;;;;;;;;;;;;;;;;;;
"07hflynn";"1996";;"Windows 7";"Rachel's Experiment (D.T.)";"1.0";"2";"1";"1";"2";"1";"1";"2014-10-07 10:20:05.718";"2014-10-07 10:36:48.394";"1";"0";"1";"68";"67";"module.training_block2.exec-6234.GoNoGo2";;;;;;;;;;;;;;;;;;;;;;;;;;;;;;;;;;;"1261";"2014-10-07 10:26:14.705";"ST_correctStop";"3";"1";"FINISHED";"NONE";"success";"0";"1";"2014-10-07 10:26:13.441";"1";;;;;;;;;;;;;;;;;;;;;;;;;;;;;;;;;;;;;;;;;;;;;
"07hflynn";"1996";;"Windows 7";"Rachel's Experiment (D.T.)";"1.0";"2";"1";"1";"2";"1";"1";"2014-10-07 10:20:05.718";"2014-10-07 10:36:48.394";"1";"0";"1";"69";"68";"module.training_block2.exec-6234.GoNoGo2";;;;;;;;;;;;;;;;;;;;;;;;;;;;;;;;;;;"1261";"2014-10-07 10:26:17.248";"ST_correctStop";"33";"0";"FINISHED";"NONE";"success";"0";"1";"2014-10-07 10:26:15.984";"3";;;;;;;;;;;;;;;;;;;;;;;;;;;;;;;;;;;;;;;;;;;;;
"07hflynn";"1996";;"Windows 7";"Rachel's Experiment (D.T.)";"1.0";"2";"1";"1";"2";"1";"1";"2014-10-07 10:20:05.718";"2014-10-07 10:36:48.394";"1";"0";"1";"70";"69";"module.training_block2.exec-6234.GoNoGo2";;;;;;;;;;;;;;;;;;;;;;;;;;;;;;;;;;;"1261";"2014-10-07 10:26:19.791";"NST_correctLoc";"28";"1";"FINISHED";"RIGHT";"success";"592";"0";"2014-10-07 10:26:18.527";"3";;;;;;;;;;;;;;;;;;;;;;;;;;;;;;;;;;;;;;;;;;;;;
"07hflynn";"1996";;"Windows 7";"Rachel's Experiment (D.T.)";"1.0";"2";"1";"1";"2";"1";"1";"2014-10-07 10:20:05.718";"2014-10-07 10:36:48.394";"1";"0";"1";"71";"70";"module.training_block2.exec-6234.GoNoGo2";;;;;;;;;;;;;;;;;;;;;;;;;;;;;;;;;;;"1261";"2014-10-07 10:26:22.333";"NST_correctLoc";"34";"1";"FINISHED";"RIGHT";"success";"873";"0";"2014-10-07 10:26:21.070";"3";;;;;;;;;;;;;;;;;;;;;;;;;;;;;;;;;;;;;;;;;;;;;
"07hflynn";"1996";;"Windows 7";"Rachel's Experiment (D.T.)";"1.0";"2";"1";"1";"2";"1";"1";"2014-10-07 10:20:05.718";"2014-10-07 10:36:48.394";"1";"0";"1";"72";"71";"module.training_block2.exec-6234.GoNoGo2";;;;;;;;;;;;;;;;;;;;;;;;;;;;;;;;;;;"1261";"2014-10-07 10:26:24.876";"NST_correctLoc";"15";"1";"FINISHED";"RIGHT";"success";"819";"0";"2014-10-07 10:26:23.613";"2";;;;;;;;;;;;;;;;;;;;;;;;;;;;;;;;;;;;;;;;;;;;;
"07hflynn";"1996";;"Windows 7";"Rachel's Experiment (D.T.)";"1.0";"2";"1";"1";"2";"1";"1";"2014-10-07 10:20:05.718";"2014-10-07 10:36:48.394";"1";"0";"1";"73";"72";"module.training_block2.exec-6234.GoNoGo2";;;;;;;;;;;;;;;;;;;;;;;;;;;;;;;;;;;"1261";"2014-10-07 10:26:27.419";"NST_correctLoc";"35";"1";"FINISHED";"RIGHT";"success";"652";"0";"2014-10-07 10:26:26.155";"3";;;;;;;;;;;;;;;;;;;;;;;;;;;;;;;;;;;;;;;;;;;;;
"07hflynn";"1996";;"Windows 7";"Rachel's Experiment (D.T.)";"1.0";"2";"1";"1";"2";"1";"1";"2014-10-07 10:20:05.718";"2014-10-07 10:36:48.394";"1";"0";"1";"74";"73";"module.training_block2.exec-6234.GoNoGo2";;;;;;;;;;;;;;;;;;;;;;;;;;;;;;;;;;;"1261";"2014-10-07 10:26:29.962";"ST_correctStop";"0";"1";"FINISHED";"NONE";"success";"0";"1";"2014-10-07 10:26:28.698";"1";;;;;;;;;;;;;;;;;;;;;;;;;;;;;;;;;;;;;;;;;;;;;
"07hflynn";"1996";;"Windows 7";"Rachel's Experiment (D.T.)";"1.0";"2";"1";"1";"2";"1";"1";"2014-10-07 10:20:05.718";"2014-10-07 10:36:48.394";"1";"0";"1";"75";"74";"module.training_block2.exec-6234.GoNoGo2";;;;;;;;;;;;;;;;;;;;;;;;;;;;;;;;;;;"1261";"2014-10-07 10:26:32.505";"NST_correctLoc";"12";"1";"FINISHED";"RIGHT";"success";"550";"0";"2014-10-07 10:26:31.241";"2";;;;;;;;;;;;;;;;;;;;;;;;;;;;;;;;;;;;;;;;;;;;;
"07hflynn";"1996";;"Windows 7";"Rachel's Experiment (D.T.)";"1.0";"2";"1";"1";"2";"1";"1";"2014-10-07 10:20:05.718";"2014-10-07 10:36:48.394";"1";"0";"1";"76";"75";"module.training_block2.exec-6234.GoNoGo2";;;;;;;;;;;;;;;;;;;;;;;;;;;;;;;;;;;"1261";"2014-10-07 10:26:35.047";"ST_correctStop";"18";"0";"FINISHED";"NONE";"success";"0";"1";"2014-10-07 10:26:33.784";"3";;;;;;;;;;;;;;;;;;;;;;;;;;;;;;;;;;;;;;;;;;;;;
"07hflynn";"1996";;"Windows 7";"Rachel's Experiment (D.T.)";"1.0";"2";"1";"1";"2";"1";"1";"2014-10-07 10:20:05.718";"2014-10-07 10:36:48.394";"1";"0";"1";"77";"76";"module.training_block2.exec-6234.GoNoGo2";;;;;;;;;;;;;;;;;;;;;;;;;;;;;;;;;;;"1261";"2014-10-07 10:26:37.590";"ST_correctStop";"25";"1";"FINISHED";"NONE";"success";"0";"1";"2014-10-07 10:26:36.327";"3";;;;;;;;;;;;;;;;;;;;;;;;;;;;;;;;;;;;;;;;;;;;;
"07hflynn";"1996";;"Windows 7";"Rachel's Experiment (D.T.)";"1.0";"2";"1";"1";"2";"1";"1";"2014-10-07 10:20:05.718";"2014-10-07 10:36:48.394";"1";"0";"1";"78";"77";"module.training_block2.exec-6234.GoNoGo2";;;;;;;;;;;;;;;;;;;;;;;;;;;;;;;;;;;"1261";"2014-10-07 10:26:40.133";"ST_correctStop";"7";"1";"FINISHED";"NONE";"success";"0";"1";"2014-10-07 10:26:38.869";"1";;;;;;;;;;;;;;;;;;;;;;;;;;;;;;;;;;;;;;;;;;;;;
"07hflynn";"1996";;"Windows 7";"Rachel's Experiment (D.T.)";"1.0";"2";"1";"1";"2";"1";"1";"2014-10-07 10:20:05.718";"2014-10-07 10:36:48.394";"1";"0";"1";"79";"78";"module.training_block2.exec-6234.GoNoGo2";;;;;;;;;;;;;;;;;;;;;;;;;;;;;;;;;;;"1261";"2014-10-07 10:26:42.676";"ST_correctStop";"30";"0";"FINISHED";"NONE";"success";"0";"1";"2014-10-07 10:26:41.412";"3";;;;;;;;;;;;;;;;;;;;;;;;;;;;;;;;;;;;;;;;;;;;;
"07hflynn";"1996";;"Windows 7";"Rachel's Experiment (D.T.)";"1.0";"2";"1";"1";"2";"1";"1";"2014-10-07 10:20:05.718";"2014-10-07 10:36:48.394";"1";"0";"1";"80";"79";"module.training_block2.exec-6234.GoNoGo2";;;;;;;;;;;;;;;;;;;;;;;;;;;;;;;;;;;"1261";"2014-10-07 10:26:45.219";"NST_correctLoc";"13";"1";"FINISHED";"RIGHT";"success";"412";"0";"2014-10-07 10:26:43.955";"2";;;;;;;;;;;;;;;;;;;;;;;;;;;;;;;;;;;;;;;;;;;;;
"07hflynn";"1996";;"Windows 7";"Rachel's Experiment (D.T.)";"1.0";"2";"1";"1";"2";"1";"1";"2014-10-07 10:20:05.718";"2014-10-07 10:36:48.394";"1";"0";"1";"81";"80";"module.training_block2.exec-6234.GoNoGo2";;;;;;;;;;;;;;;;;;;;;;;;;;;;;;;;;;;"1261";"2014-10-07 10:26:47.761";"NST_correctLoc";"29";"1";"FINISHED";"RIGHT";"success";"597";"0";"2014-10-07 10:26:46.498";"3";;;;;;;;;;;;;;;;;;;;;;;;;;;;;;;;;;;;;;;;;;;;;
"07hflynn";"1996";;"Windows 7";"Rachel's Experiment (D.T.)";"1.0";"2";"1";"1";"2";"1";"1";"2014-10-07 10:20:05.718";"2014-10-07 10:36:48.394";"1";"0";"1";"82";"81";"module.training_block2.exec-6234.GoNoGo2";;;;;;;;;;;;;;;;;;;;;;;;;;;;;;;;;;;"1261";"2014-10-07 10:26:50.304";"NST_correctLoc";"24";"1";"FINISHED";"RIGHT";"success";"646";"0";"2014-10-07 10:26:49.041";"3";;;;;;;;;;;;;;;;;;;;;;;;;;;;;;;;;;;;;;;;;;;;;
"07hflynn";"1996";;"Windows 7";"Rachel's Experiment (D.T.)";"1.0";"2";"1";"1";"2";"1";"1";"2014-10-07 10:20:05.718";"2014-10-07 10:36:48.394";"1";"0";"1";"83";"82";"module.training_block2.exec-6234.GoNoGo2";;;;;;;;;;;;;;;;;;;;;;;;;;;;;;;;;;;"1261";"2014-10-07 10:26:52.847";"ST_correctStop";"4";"1";"FINISHED";"NONE";"success";"0";"1";"2014-10-07 10:26:51.583";"1";;;;;;;;;;;;;;;;;;;;;;;;;;;;;;;;;;;;;;;;;;;;;
"07hflynn";"1996";;"Windows 7";"Rachel's Experiment (D.T.)";"1.0";"2";"1";"1";"2";"1";"1";"2014-10-07 10:20:05.718";"2014-10-07 10:36:48.394";"1";"0";"1";"84";"83";"module.training_block2.exec-6234.GoNoGo2";;;;;;;;;;;;;;;;;;;;;;;;;;;;;;;;;;;"1261";"2014-10-07 10:26:55.390";"ST_correctStop";"6";"0";"FINISHED";"NONE";"success";"0";"1";"2014-10-07 10:26:54.126";"1";;;;;;;;;;;;;;;;;;;;;;;;;;;;;;;;;;;;;;;;;;;;;
"07hflynn";"1996";;"Windows 7";"Rachel's Experiment (D.T.)";"1.0";"2";"1";"1";"2";"1";"1";"2014-10-07 10:20:05.718";"2014-10-07 10:36:48.394";"1";"0";"1";"85";"84";"module.training_block2.exec-6234.GoNoGo2";;;;;;;;;;;;;;;;;;;;;;;;;;;;;;;;;;;"1261";"2014-10-07 10:26:57.933";"ST_correctStop";"19";"0";"FINISHED";"NONE";"success";"0";"1";"2014-10-07 10:26:56.669";"3";;;;;;;;;;;;;;;;;;;;;;;;;;;;;;;;;;;;;;;;;;;;;
"07hflynn";"1996";;"Windows 7";"Rachel's Experiment (D.T.)";"1.0";"2";"1";"1";"2";"1";"1";"2014-10-07 10:20:05.718";"2014-10-07 10:36:48.394";"1";"0";"1";"86";"85";"module.training_block2.exec-6234.GoNoGo2";;;;;;;;;;;;;;;;;;;;;;;;;;;;;;;;;;;"1261";"2014-10-07 10:27:00.475";"ST_correctStop";"5";"0";"FINISHED";"NONE";"success";"0";"1";"2014-10-07 10:26:59.212";"1";;;;;;;;;;;;;;;;;;;;;;;;;;;;;;;;;;;;;;;;;;;;;
"07hflynn";"1996";;"Windows 7";"Rachel's Experiment (D.T.)";"1.0";"2";"1";"1";"2";"1";"1";"2014-10-07 10:20:05.718";"2014-10-07 10:36:48.394";"1";"0";"1";"87";"86";"module.training_block2.exec-6234.GoNoGo2";;;;;;;;;;;;;;;;;;;;;;;;;;;;;;;;;;;"1261";"2014-10-07 10:27:03.018";"ST_correctStop";"26";"0";"FINISHED";"NONE";"success";"0";"1";"2014-10-07 10:27:01.755";"3";;;;;;;;;;;;;;;;;;;;;;;;;;;;;;;;;;;;;;;;;;;;;
"07hflynn";"1996";;"Windows 7";"Rachel's Experiment (D.T.)";"1.0";"2";"1";"1";"2";"1";"1";"2014-10-07 10:20:05.718";"2014-10-07 10:36:48.394";"1";"0";"1";"88";"87";"module.training_block3.exec-7537.GoNoGo3";;;;;;;;;;;;;;;;;;;;;;;;;;;;;;;;;;;;;;;;;;;;;;;"1261";"2014-10-07 10:27:13.985";"NST_correctLoc";"30";"0";"FINISHED";"LEFT";"success";"686";"0";"2014-10-07 10:27:12.721";"3";;;;;;;;;;;;;;;;;;;;;;;;;;;;;;;;;
"07hflynn";"1996";;"Windows 7";"Rachel's Experiment (D.T.)";"1.0";"2";"1";"1";"2";"1";"1";"2014-10-07 10:20:05.718";"2014-10-07 10:36:48.394";"1";"0";"1";"89";"88";"module.training_block3.exec-7537.GoNoGo3";;;;;;;;;;;;;;;;;;;;;;;;;;;;;;;;;;;;;;;;;;;;;;;"1261";"2014-10-07 10:27:16.528";"ST_failedStop";"33";"0";"FINISHED";"LEFT";"failure";"479";"1";"2014-10-07 10:27:15.264";"3";;;;;;;;;;;;;;;;;;;;;;;;;;;;;;;;;
"07hflynn";"1996";;"Windows 7";"Rachel's Experiment (D.T.)";"1.0";"2";"1";"1";"2";"1";"1";"2014-10-07 10:20:05.718";"2014-10-07 10:36:48.394";"1";"0";"1";"90";"89";"module.training_block3.exec-7537.GoNoGo3";;;;;;;;;;;;;;;;;;;;;;;;;;;;;;;;;;;;;;;;;;;;;;;"1261";"2014-10-07 10:27:19.071";"ST_correctStop";"35";"1";"FINISHED";"NONE";"success";"0";"1";"2014-10-07 10:27:17.807";"3";;;;;;;;;;;;;;;;;;;;;;;;;;;;;;;;;
"07hflynn";"1996";;"Windows 7";"Rachel's Experiment (D.T.)";"1.0";"2";"1";"1";"2";"1";"1";"2014-10-07 10:20:05.718";"2014-10-07 10:36:48.394";"1";"0";"1";"91";"90";"module.training_block3.exec-7537.GoNoGo3";;;;;;;;;;;;;;;;;;;;;;;;;;;;;;;;;;;;;;;;;;;;;;;"1262";"2014-10-07 10:27:21.613";"ST_correctStop";"6";"1";"FINISHED";"NONE";"success";"0";"1";"2014-10-07 10:27:20.350";"1";;;;;;;;;;;;;;;;;;;;;;;;;;;;;;;;;
"07hflynn";"1996";;"Windows 7";"Rachel's Experiment (D.T.)";"1.0";"2";"1";"1";"2";"1";"1";"2014-10-07 10:20:05.718";"2014-10-07 10:36:48.394";"1";"0";"1";"92";"91";"module.training_block3.exec-7537.GoNoGo3";;;;;;;;;;;;;;;;;;;;;;;;;;;;;;;;;;;;;;;;;;;;;;;"1261";"2014-10-07 10:27:24.156";"ST_correctStop";"34";"0";"FINISHED";"NONE";"success";"0";"1";"2014-10-07 10:27:22.893";"3";;;;;;;;;;;;;;;;;;;;;;;;;;;;;;;;;
"07hflynn";"1996";;"Windows 7";"Rachel's Experiment (D.T.)";"1.0";"2";"1";"1";"2";"1";"1";"2014-10-07 10:20:05.718";"2014-10-07 10:36:48.394";"1";"0";"1";"93";"92";"module.training_block3.exec-7537.GoNoGo3";;;;;;;;;;;;;;;;;;;;;;;;;;;;;;;;;;;;;;;;;;;;;;;"1261";"2014-10-07 10:27:26.699";"ST_correctStop";"1";"1";"FINISHED";"NONE";"success";"0";"1";"2014-10-07 10:27:25.435";"1";;;;;;;;;;;;;;;;;;;;;;;;;;;;;;;;;
"07hflynn";"1996";;"Windows 7";"Rachel's Experiment (D.T.)";"1.0";"2";"1";"1";"2";"1";"1";"2014-10-07 10:20:05.718";"2014-10-07 10:36:48.394";"1";"0";"1";"94";"93";"module.training_block3.exec-7537.GoNoGo3";;;;;;;;;;;;;;;;;;;;;;;;;;;;;;;;;;;;;;;;;;;;;;;"1261";"2014-10-07 10:27:29.242";"ST_correctStop";"20";"0";"FINISHED";"NONE";"success";"0";"1";"2014-10-07 10:27:27.978";"3";;;;;;;;;;;;;;;;;;;;;;;;;;;;;;;;;
"07hflynn";"1996";;"Windows 7";"Rachel's Experiment (D.T.)";"1.0";"2";"1";"1";"2";"1";"1";"2014-10-07 10:20:05.718";"2014-10-07 10:36:48.394";"1";"0";"1";"95";"94";"module.training_block3.exec-7537.GoNoGo3";;;;;;;;;;;;;;;;;;;;;;;;;;;;;;;;;;;;;;;;;;;;;;;"1261";"2014-10-07 10:27:31.785";"NST_correctLoc";"13";"1";"FINISHED";"RIGHT";"success";"590";"0";"2014-10-07 10:27:30.521";"2";;;;;;;;;;;;;;;;;;;;;;;;;;;;;;;;;
"07hflynn";"1996";;"Windows 7";"Rachel's Experiment (D.T.)";"1.0";"2";"1";"1";"2";"1";"1";"2014-10-07 10:20:05.718";"2014-10-07 10:36:48.394";"1";"0";"1";"96";"95";"module.training_block3.exec-7537.GoNoGo3";;;;;;;;;;;;;;;;;;;;;;;;;;;;;;;;;;;;;;;;;;;;;;;"1261";"2014-10-07 10:27:34.327";"NST_correctLoc";"18";"0";"FINISHED";"LEFT";"success";"679";"0";"2014-10-07 10:27:33.064";"3";;;;;;;;;;;;;;;;;;;;;;;;;;;;;;;;;
"07hflynn";"1996";;"Windows 7";"Rachel's Experiment (D.T.)";"1.0";"2";"1";"1";"2";"1";"1";"2014-10-07 10:20:05.718";"2014-10-07 10:36:48.394";"1";"0";"1";"97";"96";"module.training_block3.exec-7537.GoNoGo3";;;;;;;;;;;;;;;;;;;;;;;;;;;;;;;;;;;;;;;;;;;;;;;"1262";"2014-10-07 10:27:36.870";"NST_correctLoc";"22";"1";"FINISHED";"RIGHT";"success";"568";"0";"2014-10-07 10:27:35.607";"3";;;;;;;;;;;;;;;;;;;;;;;;;;;;;;;;;
"07hflynn";"1996";;"Windows 7";"Rachel's Experiment (D.T.)";"1.0";"2";"1";"1";"2";"1";"1";"2014-10-07 10:20:05.718";"2014-10-07 10:36:48.394";"1";"0";"1";"98";"97";"module.training_block3.exec-7537.GoNoGo3";;;;;;;;;;;;;;;;;;;;;;;;;;;;;;;;;;;;;;;;;;;;;;;"1261";"2014-10-07 10:27:39.429";"NST_correctLoc";"9";"0";"FINISHED";"LEFT";"success";"578";"0";"2014-10-07 10:27:38.165";"2";;;;;;;;;;;;;;;;;;;;;;;;;;;;;;;;;
"07hflynn";"1996";;"Windows 7";"Rachel's Experiment (D.T.)";"1.0";"2";"1";"1";"2";"1";"1";"2014-10-07 10:20:05.718";"2014-10-07 10:36:48.394";"1";"0";"1";"99";"98";"module.training_block3.exec-7537.GoNoGo3";;;;;;;;;;;;;;;;;;;;;;;;;;;;;;;;;;;;;;;;;;;;;;;"1261";"2014-10-07 10:27:41.972";"NST_correctLoc";"12";"0";"FINISHED";"LEFT";"success";"571";"0";"2014-10-07 10:27:40.708";"2";;;;;;;;;;;;;;;;;;;;;;;;;;;;;;;;;
"07hflynn";"1996";;"Windows 7";"Rachel's Experiment (D.T.)";"1.0";"2";"1";"1";"2";"1";"1";"2014-10-07 10:20:05.718";"2014-10-07 10:36:48.394";"1";"0";"1";"100";"99";"module.training_block3.exec-7537.GoNoGo3";;;;;;;;;;;;;;;;;;;;;;;;;;;;;;;;;;;;;;;;;;;;;;;"1261";"2014-10-07 10:27:44.514";"ST_correctStop";"25";"1";"FINISHED";"NONE";"success";"0";"1";"2014-10-07 10:27:43.251";"3";;;;;;;;;;;;;;;;;;;;;;;;;;;;;;;;;
"07hflynn";"1996";;"Windows 7";"Rachel's Experiment (D.T.)";"1.0";"2";"1";"1";"2";"1";"1";"2014-10-07 10:20:05.718";"2014-10-07 10:36:48.394";"1";"0";"1";"101";"100";"module.training_block3.exec-7537.GoNoGo3";;;;;;;;;;;;;;;;;;;;;;;;;;;;;;;;;;;;;;;;;;;;;;;"1262";"2014-10-07 10:27:47.057";"NST_correctLoc";"28";"0";"FINISHED";"LEFT";"success";"621";"0";"2014-10-07 10:27:45.794";"3";;;;;;;;;;;;;;;;;;;;;;;;;;;;;;;;;
"07hflynn";"1996";;"Windows 7";"Rachel's Experiment (D.T.)";"1.0";"2";"1";"1";"2";"1";"1";"2014-10-07 10:20:05.718";"2014-10-07 10:36:48.394";"1";"0";"1";"102";"101";"module.training_block3.exec-7537.GoNoGo3";;;;;;;;;;;;;;;;;;;;;;;;;;;;;;;;;;;;;;;;;;;;;;;"1261";"2014-10-07 10:27:49.600";"NST_correctLoc";"16";"0";"FINISHED";"LEFT";"success";"599";"0";"2014-10-07 10:27:48.336";"2";;;;;;;;;;;;;;;;;;;;;;;;;;;;;;;;;
"07hflynn";"1996";;"Windows 7";"Rachel's Experiment (D.T.)";"1.0";"2";"1";"1";"2";"1";"1";"2014-10-07 10:20:05.718";"2014-10-07 10:36:48.394";"1";"0";"1";"103";"102";"module.training_block3.exec-7537.GoNoGo3";;;;;;;;;;;;;;;;;;;;;;;;;;;;;;;;;;;;;;;;;;;;;;;"1261";"2014-10-07 10:27:52.143";"NST_correctLoc";"24";"0";"FINISHED";"LEFT";"success";"600";"0";"2014-10-07 10:27:50.879";"3";;;;;;;;;;;;;;;;;;;;;;;;;;;;;;;;;
"07hflynn";"1996";;"Windows 7";"Rachel's Experiment (D.T.)";"1.0";"2";"1";"1";"2";"1";"1";"2014-10-07 10:20:05.718";"2014-10-07 10:36:48.394";"1";"0";"1";"104";"103";"module.training_block3.exec-7537.GoNoGo3";;;;;;;;;;;;;;;;;;;;;;;;;;;;;;;;;;;;;;;;;;;;;;;"1261";"2014-10-07 10:27:54.686";"ST_correctStop";"2";"0";"FINISHED";"NONE";"success";"0";"1";"2014-10-07 10:27:53.422";"1";;;;;;;;;;;;;;;;;;;;;;;;;;;;;;;;;
"07hflynn";"1996";;"Windows 7";"Rachel's Experiment (D.T.)";"1.0";"2";"1";"1";"2";"1";"1";"2014-10-07 10:20:05.718";"2014-10-07 10:36:48.394";"1";"0";"1";"105";"104";"module.training_block3.exec-7537.GoNoGo3";;;;;;;;;;;;;;;;;;;;;;;;;;;;;;;;;;;;;;;;;;;;;;;"1261";"2014-10-07 10:27:57.244";"NST_correctLoc";"10";"0";"FINISHED";"LEFT";"success";"578";"0";"2014-10-07 10:27:55.980";"2";;;;;;;;;;;;;;;;;;;;;;;;;;;;;;;;;
"07hflynn";"1996";;"Windows 7";"Rachel's Experiment (D.T.)";"1.0";"2";"1";"1";"2";"1";"1";"2014-10-07 10:20:05.718";"2014-10-07 10:36:48.394";"1";"0";"1";"106";"105";"module.training_block3.exec-7537.GoNoGo3";;;;;;;;;;;;;;;;;;;;;;;;;;;;;;;;;;;;;;;;;;;;;;;"1261";"2014-10-07 10:27:59.787";"ST_correctStop";"19";"1";"FINISHED";"NONE";"success";"0";"1";"2014-10-07 10:27:58.523";"3";;;;;;;;;;;;;;;;;;;;;;;;;;;;;;;;;
"07hflynn";"1996";;"Windows 7";"Rachel's Experiment (D.T.)";"1.0";"2";"1";"1";"2";"1";"1";"2014-10-07 10:20:05.718";"2014-10-07 10:36:48.394";"1";"0";"1";"107";"106";"module.training_block3.exec-7537.GoNoGo3";;;;;;;;;;;;;;;;;;;;;;;;;;;;;;;;;;;;;;;;;;;;;;;"1261";"2014-10-07 10:28:02.345";"ST_correctStop";"5";"0";"FINISHED";"NONE";"success";"0";"1";"2014-10-07 10:28:01.082";"1";;;;;;;;;;;;;;;;;;;;;;;;;;;;;;;;;
"07hflynn";"1996";;"Windows 7";"Rachel's Experiment (D.T.)";"1.0";"2";"1";"1";"2";"1";"1";"2014-10-07 10:20:05.718";"2014-10-07 10:36:48.394";"1";"0";"1";"108";"107";"module.training_block3.exec-7537.GoNoGo3";;;;;;;;;;;;;;;;;;;;;;;;;;;;;;;;;;;;;;;;;;;;;;;"1261";"2014-10-07 10:28:04.888";"NST_correctLoc";"11";"0";"FINISHED";"LEFT";"success";"574";"0";"2014-10-07 10:28:03.624";"2";;;;;;;;;;;;;;;;;;;;;;;;;;;;;;;;;
"07hflynn";"1996";;"Windows 7";"Rachel's Experiment (D.T.)";"1.0";"2";"1";"1";"2";"1";"1";"2014-10-07 10:20:05.718";"2014-10-07 10:36:48.394";"1";"0";"1";"109";"108";"module.training_block3.exec-7537.GoNoGo3";;;;;;;;;;;;;;;;;;;;;;;;;;;;;;;;;;;;;;;;;;;;;;;"1261";"2014-10-07 10:28:07.431";"ST_correctStop";"4";"0";"FINISHED";"NONE";"success";"0";"1";"2014-10-07 10:28:06.167";"1";;;;;;;;;;;;;;;;;;;;;;;;;;;;;;;;;
"07hflynn";"1996";;"Windows 7";"Rachel's Experiment (D.T.)";"1.0";"2";"1";"1";"2";"1";"1";"2014-10-07 10:20:05.718";"2014-10-07 10:36:48.394";"1";"0";"1";"110";"109";"module.training_block3.exec-7537.GoNoGo3";;;;;;;;;;;;;;;;;;;;;;;;;;;;;;;;;;;;;;;;;;;;;;;"1261";"2014-10-07 10:28:09.974";"NST_correctLoc";"15";"0";"FINISHED";"LEFT";"success";"665";"0";"2014-10-07 10:28:08.710";"2";;;;;;;;;;;;;;;;;;;;;;;;;;;;;;;;;
"07hflynn";"1996";;"Windows 7";"Rachel's Experiment (D.T.)";"1.0";"2";"1";"1";"2";"1";"1";"2014-10-07 10:20:05.718";"2014-10-07 10:36:48.394";"1";"0";"1";"111";"110";"module.training_block3.exec-7537.GoNoGo3";;;;;;;;;;;;;;;;;;;;;;;;;;;;;;;;;;;;;;;;;;;;;;;"1261";"2014-10-07 10:28:12.516";"ST_correctStop";"31";"0";"FINISHED";"NONE";"success";"0";"1";"2014-10-07 10:28:11.253";"3";;;;;;;;;;;;;;;;;;;;;;;;;;;;;;;;;
"07hflynn";"1996";;"Windows 7";"Rachel's Experiment (D.T.)";"1.0";"2";"1";"1";"2";"1";"1";"2014-10-07 10:20:05.718";"2014-10-07 10:36:48.394";"1";"0";"1";"112";"111";"module.training_block3.exec-7537.GoNoGo3";;;;;;;;;;;;;;;;;;;;;;;;;;;;;;;;;;;;;;;;;;;;;;;"1261";"2014-10-07 10:28:15.044";"NST_correctLoc";"32";"0";"FINISHED";"LEFT";"success";"571";"0";"2014-10-07 10:28:13.780";"3";;;;;;;;;;;;;;;;;;;;;;;;;;;;;;;;;
"07hflynn";"1996";;"Windows 7";"Rachel's Experiment (D.T.)";"1.0";"2";"1";"1";"2";"1";"1";"2014-10-07 10:20:05.718";"2014-10-07 10:36:48.394";"1";"0";"1";"113";"112";"module.training_block3.exec-7537.GoNoGo3";;;;;;;;;;;;;;;;;;;;;;;;;;;;;;;;;;;;;;;;;;;;;;;"1261";"2014-10-07 10:28:17.586";"NST_correctLoc";"14";"1";"FINISHED";"RIGHT";"success";"516";"0";"2014-10-07 10:28:16.323";"2";;;;;;;;;;;;;;;;;;;;;;;;;;;;;;;;;
"07hflynn";"1996";;"Windows 7";"Rachel's Experiment (D.T.)";"1.0";"2";"1";"1";"2";"1";"1";"2014-10-07 10:20:05.718";"2014-10-07 10:36:48.394";"1";"0";"1";"114";"113";"module.training_block3.exec-7537.GoNoGo3";;;;;;;;;;;;;;;;;;;;;;;;;;;;;;;;;;;;;;;;;;;;;;;"1261";"2014-10-07 10:28:20.145";"ST_correctStop";"26";"0";"FINISHED";"NONE";"success";"0";"1";"2014-10-07 10:28:18.881";"3";;;;;;;;;;;;;;;;;;;;;;;;;;;;;;;;;
"07hflynn";"1996";;"Windows 7";"Rachel's Experiment (D.T.)";"1.0";"2";"1";"1";"2";"1";"1";"2014-10-07 10:20:05.718";"2014-10-07 10:36:48.394";"1";"0";"1";"115";"114";"module.training_block3.exec-7537.GoNoGo3";;;;;;;;;;;;;;;;;;;;;;;;;;;;;;;;;;;;;;;;;;;;;;;"1261";"2014-10-07 10:28:22.688";"ST_correctStop";"3";"0";"FINISHED";"NONE";"success";"0";"1";"2014-10-07 10:28:21.424";"1";;;;;;;;;;;;;;;;;;;;;;;;;;;;;;;;;
"07hflynn";"1996";;"Windows 7";"Rachel's Experiment (D.T.)";"1.0";"2";"1";"1";"2";"1";"1";"2014-10-07 10:20:05.718";"2014-10-07 10:36:48.394";"1";"0";"1";"116";"115";"module.training_block3.exec-7537.GoNoGo3";;;;;;;;;;;;;;;;;;;;;;;;;;;;;;;;;;;;;;;;;;;;;;;"1261";"2014-10-07 10:28:25.230";"NST_correctLoc";"21";"1";"FINISHED";"RIGHT";"success";"608";"0";"2014-10-07 10:28:23.967";"3";;;;;;;;;;;;;;;;;;;;;;;;;;;;;;;;;
"07hflynn";"1996";;"Windows 7";"Rachel's Experiment (D.T.)";"1.0";"2";"1";"1";"2";"1";"1";"2014-10-07 10:20:05.718";"2014-10-07 10:36:48.394";"1";"0";"1";"117";"116";"module.training_block3.exec-7537.GoNoGo3";;;;;;;;;;;;;;;;;;;;;;;;;;;;;;;;;;;;;;;;;;;;;;;"1261";"2014-10-07 10:28:27.758";"ST_correctStop";"0";"1";"FINISHED";"NONE";"success";"0";"1";"2014-10-07 10:28:26.494";"1";;;;;;;;;;;;;;;;;;;;;;;;;;;;;;;;;
"07hflynn";"1996";;"Windows 7";"Rachel's Experiment (D.T.)";"1.0";"2";"1";"1";"2";"1";"1";"2014-10-07 10:20:05.718";"2014-10-07 10:36:48.394";"1";"0";"1";"118";"117";"module.training_block3.exec-7537.GoNoGo3";;;;;;;;;;;;;;;;;;;;;;;;;;;;;;;;;;;;;;;;;;;;;;;"1261";"2014-10-07 10:28:30.300";"NST_correctLoc";"29";"1";"FINISHED";"RIGHT";"success";"554";"0";"2014-10-07 10:28:29.037";"3";;;;;;;;;;;;;;;;;;;;;;;;;;;;;;;;;
"07hflynn";"1996";;"Windows 7";"Rachel's Experiment (D.T.)";"1.0";"2";"1";"1";"2";"1";"1";"2014-10-07 10:20:05.718";"2014-10-07 10:36:48.394";"1";"0";"1";"119";"118";"module.training_block3.exec-7537.GoNoGo3";;;;;;;;;;;;;;;;;;;;;;;;;;;;;;;;;;;;;;;;;;;;;;;"1261";"2014-10-07 10:28:32.828";"ST_correctStop";"8";"0";"FINISHED";"NONE";"success";"0";"1";"2014-10-07 10:28:31.564";"1";;;;;;;;;;;;;;;;;;;;;;;;;;;;;;;;;
"07hflynn";"1996";;"Windows 7";"Rachel's Experiment (D.T.)";"1.0";"2";"1";"1";"2";"1";"1";"2014-10-07 10:20:05.718";"2014-10-07 10:36:48.394";"1";"0";"1";"120";"119";"module.training_block3.exec-7537.GoNoGo3";;;;;;;;;;;;;;;;;;;;;;;;;;;;;;;;;;;;;;;;;;;;;;;"1261";"2014-10-07 10:28:35.370";"NST_correctLoc";"17";"0";"FINISHED";"LEFT";"success";"684";"0";"2014-10-07 10:28:34.107";"2";;;;;;;;;;;;;;;;;;;;;;;;;;;;;;;;;
"07hflynn";"1996";;"Windows 7";"Rachel's Experiment (D.T.)";"1.0";"2";"1";"1";"2";"1";"1";"2014-10-07 10:20:05.718";"2014-10-07 10:36:48.394";"1";"0";"1";"121";"120";"module.training_block3.exec-7537.GoNoGo3";;;;;;;;;;;;;;;;;;;;;;;;;;;;;;;;;;;;;;;;;;;;;;;"1261";"2014-10-07 10:28:37.913";"ST_correctStop";"7";"0";"FINISHED";"NONE";"success";"0";"1";"2014-10-07 10:28:36.650";"1";;;;;;;;;;;;;;;;;;;;;;;;;;;;;;;;;
"07hflynn";"1996";;"Windows 7";"Rachel's Experiment (D.T.)";"1.0";"2";"1";"1";"2";"1";"1";"2014-10-07 10:20:05.718";"2014-10-07 10:36:48.394";"1";"0";"1";"122";"121";"module.training_block3.exec-7537.GoNoGo3";;;;;;;;;;;;;;;;;;;;;;;;;;;;;;;;;;;;;;;;;;;;;;;"1261";"2014-10-07 10:28:40.440";"NST_correctLoc";"23";"1";"FINISHED";"RIGHT";"success";"558";"0";"2014-10-07 10:28:39.177";"3";;;;;;;;;;;;;;;;;;;;;;;;;;;;;;;;;
"07hflynn";"1996";;"Windows 7";"Rachel's Experiment (D.T.)";"1.0";"2";"1";"1";"2";"1";"1";"2014-10-07 10:20:05.718";"2014-10-07 10:36:48.394";"1";"0";"1";"123";"122";"module.training_block3.exec-7537.GoNoGo3";;;;;;;;;;;;;;;;;;;;;;;;;;;;;;;;;;;;;;;;;;;;;;;"1261";"2014-10-07 10:28:42.983";"ST_correctStop";"27";"0";"FINISHED";"NONE";"success";"0";"1";"2014-10-07 10:28:41.720";"3";;;;;;;;;;;;;;;;;;;;;;;;;;;;;;;;;
"07hflynn";"1996";;"Windows 7";"Rachel's Experiment (D.T.)";"1.0";"2";"1";"1";"2";"1";"1";"2014-10-07 10:20:05.718";"2014-10-07 10:36:48.394";"1";"0";"1";"124";"123";"module.training_block4.exec-6522.GoNoGo4";;;;;;;;;;;;;;;;;;;;;;;;;;;;;;;;;;;;;;;;;;;;;;;;;;;;;;;;;;;"1261";"2014-10-07 10:28:53.934";"NST_correctLoc";"15";"0";"FINISHED";"LEFT";"success";"479";"0";"2014-10-07 10:28:52.671";"2";;;;;;;;;;;;;;;;;;;;;
"07hflynn";"1996";;"Windows 7";"Rachel's Experiment (D.T.)";"1.0";"2";"1";"1";"2";"1";"1";"2014-10-07 10:20:05.718";"2014-10-07 10:36:48.394";"1";"0";"1";"125";"124";"module.training_block4.exec-6522.GoNoGo4";;;;;;;;;;;;;;;;;;;;;;;;;;;;;;;;;;;;;;;;;;;;;;;;;;;;;;;;;;;"1261";"2014-10-07 10:28:56.462";"ST_failedStop";"29";"1";"FINISHED";"RIGHT";"failure";"416";"1";"2014-10-07 10:28:55.198";"3";;;;;;;;;;;;;;;;;;;;;
"07hflynn";"1996";;"Windows 7";"Rachel's Experiment (D.T.)";"1.0";"2";"1";"1";"2";"1";"1";"2014-10-07 10:20:05.718";"2014-10-07 10:36:48.394";"1";"0";"1";"126";"125";"module.training_block4.exec-6522.GoNoGo4";;;;;;;;;;;;;;;;;;;;;;;;;;;;;;;;;;;;;;;;;;;;;;;;;;;;;;;;;;;"1261";"2014-10-07 10:28:59.004";"ST_correctStop";"18";"0";"FINISHED";"NONE";"success";"0";"1";"2014-10-07 10:28:57.741";"3";;;;;;;;;;;;;;;;;;;;;
"07hflynn";"1996";;"Windows 7";"Rachel's Experiment (D.T.)";"1.0";"2";"1";"1";"2";"1";"1";"2014-10-07 10:20:05.718";"2014-10-07 10:36:48.394";"1";"0";"1";"127";"126";"module.training_block4.exec-6522.GoNoGo4";;;;;;;;;;;;;;;;;;;;;;;;;;;;;;;;;;;;;;;;;;;;;;;;;;;;;;;;;;;"1261";"2014-10-07 10:29:01.547";"NST_correctLoc";"12";"0";"FINISHED";"LEFT";"success";"571";"0";"2014-10-07 10:29:00.284";"2";;;;;;;;;;;;;;;;;;;;;
"07hflynn";"1996";;"Windows 7";"Rachel's Experiment (D.T.)";"1.0";"2";"1";"1";"2";"1";"1";"2014-10-07 10:20:05.718";"2014-10-07 10:36:48.394";"1";"0";"1";"128";"127";"module.training_block4.exec-6522.GoNoGo4";;;;;;;;;;;;;;;;;;;;;;;;;;;;;;;;;;;;;;;;;;;;;;;;;;;;;;;;;;;"1261";"2014-10-07 10:29:04.074";"NST_correctLoc";"19";"1";"FINISHED";"RIGHT";"success";"555";"0";"2014-10-07 10:29:02.811";"3";;;;;;;;;;;;;;;;;;;;;
"07hflynn";"1996";;"Windows 7";"Rachel's Experiment (D.T.)";"1.0";"2";"1";"1";"2";"1";"1";"2014-10-07 10:20:05.718";"2014-10-07 10:36:48.394";"1";"0";"1";"129";"128";"module.training_block4.exec-6522.GoNoGo4";;;;;;;;;;;;;;;;;;;;;;;;;;;;;;;;;;;;;;;;;;;;;;;;;;;;;;;;;;;"1261";"2014-10-07 10:29:06.602";"NST_correctLoc";"17";"0";"FINISHED";"LEFT";"success";"532";"0";"2014-10-07 10:29:05.338";"2";;;;;;;;;;;;;;;;;;;;;
"07hflynn";"1996";;"Windows 7";"Rachel's Experiment (D.T.)";"1.0";"2";"1";"1";"2";"1";"1";"2014-10-07 10:20:05.718";"2014-10-07 10:36:48.394";"1";"0";"1";"130";"129";"module.training_block4.exec-6522.GoNoGo4";;;;;;;;;;;;;;;;;;;;;;;;;;;;;;;;;;;;;;;;;;;;;;;;;;;;;;;;;;;"1261";"2014-10-07 10:29:09.160";"NST_correctLoc";"16";"1";"FINISHED";"RIGHT";"success";"550";"0";"2014-10-07 10:29:07.896";"2";;;;;;;;;;;;;;;;;;;;;
"07hflynn";"1996";;"Windows 7";"Rachel's Experiment (D.T.)";"1.0";"2";"1";"1";"2";"1";"1";"2014-10-07 10:20:05.718";"2014-10-07 10:36:48.394";"1";"0";"1";"131";"130";"module.training_block4.exec-6522.GoNoGo4";;;;;;;;;;;;;;;;;;;;;;;;;;;;;;;;;;;;;;;;;;;;;;;;;;;;;;;;;;;"1261";"2014-10-07 10:29:11.687";"NST_correctLoc";"32";"0";"FINISHED";"LEFT";"success";"599";"0";"2014-10-07 10:29:10.424";"3";;;;;;;;;;;;;;;;;;;;;
"07hflynn";"1996";;"Windows 7";"Rachel's Experiment (D.T.)";"1.0";"2";"1";"1";"2";"1";"1";"2014-10-07 10:20:05.718";"2014-10-07 10:36:48.394";"1";"0";"1";"132";"131";"module.training_block4.exec-6522.GoNoGo4";;;;;;;;;;;;;;;;;;;;;;;;;;;;;;;;;;;;;;;;;;;;;;;;;;;;;;;;;;;"1261";"2014-10-07 10:29:14.230";"ST_failedStop";"6";"1";"FINISHED";"RIGHT";"failure";"376";"1";"2014-10-07 10:29:12.966";"1";;;;;;;;;;;;;;;;;;;;;
"07hflynn";"1996";;"Windows 7";"Rachel's Experiment (D.T.)";"1.0";"2";"1";"1";"2";"1";"1";"2014-10-07 10:20:05.718";"2014-10-07 10:36:48.394";"1";"0";"1";"133";"132";"module.training_block4.exec-6522.GoNoGo4";;;;;;;;;;;;;;;;;;;;;;;;;;;;;;;;;;;;;;;;;;;;;;;;;;;;;;;;;;;"1261";"2014-10-07 10:29:16.757";"NST_correctLoc";"35";"0";"FINISHED";"LEFT";"success";"385";"0";"2014-10-07 10:29:15.494";"3";;;;;;;;;;;;;;;;;;;;;
"07hflynn";"1996";;"Windows 7";"Rachel's Experiment (D.T.)";"1.0";"2";"1";"1";"2";"1";"1";"2014-10-07 10:20:05.718";"2014-10-07 10:36:48.394";"1";"0";"1";"134";"133";"module.training_block4.exec-6522.GoNoGo4";;;;;;;;;;;;;;;;;;;;;;;;;;;;;;;;;;;;;;;;;;;;;;;;;;;;;;;;;;;"1261";"2014-10-07 10:29:19.300";"ST_correctStop";"26";"1";"FINISHED";"NONE";"success";"0";"1";"2014-10-07 10:29:18.036";"3";;;;;;;;;;;;;;;;;;;;;
"07hflynn";"1996";;"Windows 7";"Rachel's Experiment (D.T.)";"1.0";"2";"1";"1";"2";"1";"1";"2014-10-07 10:20:05.718";"2014-10-07 10:36:48.394";"1";"0";"1";"135";"134";"module.training_block4.exec-6522.GoNoGo4";;;;;;;;;;;;;;;;;;;;;;;;;;;;;;;;;;;;;;;;;;;;;;;;;;;;;;;;;;;"1261";"2014-10-07 10:29:21.827";"ST_correctStop";"5";"1";"FINISHED";"NONE";"success";"0";"1";"2014-10-07 10:29:20.564";"1";;;;;;;;;;;;;;;;;;;;;
"07hflynn";"1996";;"Windows 7";"Rachel's Experiment (D.T.)";"1.0";"2";"1";"1";"2";"1";"1";"2014-10-07 10:20:05.718";"2014-10-07 10:36:48.394";"1";"0";"1";"136";"135";"module.training_block4.exec-6522.GoNoGo4";;;;;;;;;;;;;;;;;;;;;;;;;;;;;;;;;;;;;;;;;;;;;;;;;;;;;;;;;;;"1261";"2014-10-07 10:29:24.354";"NST_correctLoc";"27";"0";"FINISHED";"LEFT";"success";"299";"0";"2014-10-07 10:29:23.091";"3";;;;;;;;;;;;;;;;;;;;;
"07hflynn";"1996";;"Windows 7";"Rachel's Experiment (D.T.)";"1.0";"2";"1";"1";"2";"1";"1";"2014-10-07 10:20:05.718";"2014-10-07 10:36:48.394";"1";"0";"1";"137";"136";"module.training_block4.exec-6522.GoNoGo4";;;;;;;;;;;;;;;;;;;;;;;;;;;;;;;;;;;;;;;;;;;;;;;;;;;;;;;;;;;"1261";"2014-10-07 10:29:26.897";"ST_correctStop";"22";"1";"FINISHED";"NONE";"success";"0";"1";"2014-10-07 10:29:25.634";"3";;;;;;;;;;;;;;;;;;;;;
"07hflynn";"1996";;"Windows 7";"Rachel's Experiment (D.T.)";"1.0";"2";"1";"1";"2";"1";"1";"2014-10-07 10:20:05.718";"2014-10-07 10:36:48.394";"1";"0";"1";"138";"137";"module.training_block4.exec-6522.GoNoGo4";;;;;;;;;;;;;;;;;;;;;;;;;;;;;;;;;;;;;;;;;;;;;;;;;;;;;;;;;;;"1262";"2014-10-07 10:29:29.424";"ST_correctStop";"33";"1";"FINISHED";"NONE";"success";"0";"1";"2014-10-07 10:29:28.161";"3";;;;;;;;;;;;;;;;;;;;;
"07hflynn";"1996";;"Windows 7";"Rachel's Experiment (D.T.)";"1.0";"2";"1";"1";"2";"1";"1";"2014-10-07 10:20:05.718";"2014-10-07 10:36:48.394";"1";"0";"1";"139";"138";"module.training_block4.exec-6522.GoNoGo4";;;;;;;;;;;;;;;;;;;;;;;;;;;;;;;;;;;;;;;;;;;;;;;;;;;;;;;;;;;"1261";"2014-10-07 10:29:31.952";"ST_correctStop";"3";"1";"FINISHED";"NONE";"success";"0";"1";"2014-10-07 10:29:30.688";"1";;;;;;;;;;;;;;;;;;;;;
"07hflynn";"1996";;"Windows 7";"Rachel's Experiment (D.T.)";"1.0";"2";"1";"1";"2";"1";"1";"2014-10-07 10:20:05.718";"2014-10-07 10:36:48.394";"1";"0";"1";"140";"139";"module.training_block4.exec-6522.GoNoGo4";;;;;;;;;;;;;;;;;;;;;;;;;;;;;;;;;;;;;;;;;;;;;;;;;;;;;;;;;;;"1261";"2014-10-07 10:29:34.510";"NST_correctLoc";"11";"0";"FINISHED";"LEFT";"success";"368";"0";"2014-10-07 10:29:33.247";"2";;;;;;;;;;;;;;;;;;;;;
"07hflynn";"1996";;"Windows 7";"Rachel's Experiment (D.T.)";"1.0";"2";"1";"1";"2";"1";"1";"2014-10-07 10:20:05.718";"2014-10-07 10:36:48.394";"1";"0";"1";"141";"140";"module.training_block4.exec-6522.GoNoGo4";;;;;;;;;;;;;;;;;;;;;;;;;;;;;;;;;;;;;;;;;;;;;;;;;;;;;;;;;;;"1262";"2014-10-07 10:29:37.037";"NST_correctLoc";"25";"1";"FINISHED";"RIGHT";"success";"608";"0";"2014-10-07 10:29:35.774";"3";;;;;;;;;;;;;;;;;;;;;
"07hflynn";"1996";;"Windows 7";"Rachel's Experiment (D.T.)";"1.0";"2";"1";"1";"2";"1";"1";"2014-10-07 10:20:05.718";"2014-10-07 10:36:48.394";"1";"0";"1";"142";"141";"module.training_block4.exec-6522.GoNoGo4";;;;;;;;;;;;;;;;;;;;;;;;;;;;;;;;;;;;;;;;;;;;;;;;;;;;;;;;;;;"1261";"2014-10-07 10:29:39.580";"ST_correctStop";"24";"0";"FINISHED";"NONE";"success";"0";"1";"2014-10-07 10:29:38.317";"3";;;;;;;;;;;;;;;;;;;;;
"07hflynn";"1996";;"Windows 7";"Rachel's Experiment (D.T.)";"1.0";"2";"1";"1";"2";"1";"1";"2014-10-07 10:20:05.718";"2014-10-07 10:36:48.394";"1";"0";"1";"143";"142";"module.training_block4.exec-6522.GoNoGo4";;;;;;;;;;;;;;;;;;;;;;;;;;;;;;;;;;;;;;;;;;;;;;;;;;;;;;;;;;;"1261";"2014-10-07 10:29:42.107";"ST_correctStop";"30";"0";"FINISHED";"NONE";"success";"0";"1";"2014-10-07 10:29:40.844";"3";;;;;;;;;;;;;;;;;;;;;
"07hflynn";"1996";;"Windows 7";"Rachel's Experiment (D.T.)";"1.0";"2";"1";"1";"2";"1";"1";"2014-10-07 10:20:05.718";"2014-10-07 10:36:48.394";"1";"0";"1";"144";"143";"module.training_block4.exec-6522.GoNoGo4";;;;;;;;;;;;;;;;;;;;;;;;;;;;;;;;;;;;;;;;;;;;;;;;;;;;;;;;;;;"1262";"2014-10-07 10:29:44.635";"ST_correctStop";"0";"1";"FINISHED";"NONE";"success";"0";"1";"2014-10-07 10:29:43.371";"1";;;;;;;;;;;;;;;;;;;;;
"07hflynn";"1996";;"Windows 7";"Rachel's Experiment (D.T.)";"1.0";"2";"1";"1";"2";"1";"1";"2014-10-07 10:20:05.718";"2014-10-07 10:36:48.394";"1";"0";"1";"145";"144";"module.training_block4.exec-6522.GoNoGo4";;;;;;;;;;;;;;;;;;;;;;;;;;;;;;;;;;;;;;;;;;;;;;;;;;;;;;;;;;;"1261";"2014-10-07 10:29:47.162";"ST_correctStop";"23";"0";"FINISHED";"NONE";"success";"0";"1";"2014-10-07 10:29:45.898";"3";;;;;;;;;;;;;;;;;;;;;
"07hflynn";"1996";;"Windows 7";"Rachel's Experiment (D.T.)";"1.0";"2";"1";"1";"2";"1";"1";"2014-10-07 10:20:05.718";"2014-10-07 10:36:48.394";"1";"0";"1";"146";"145";"module.training_block4.exec-6522.GoNoGo4";;;;;;;;;;;;;;;;;;;;;;;;;;;;;;;;;;;;;;;;;;;;;;;;;;;;;;;;;;;"1261";"2014-10-07 10:29:49.689";"ST_correctStop";"7";"1";"FINISHED";"NONE";"success";"0";"1";"2014-10-07 10:29:48.425";"1";;;;;;;;;;;;;;;;;;;;;
"07hflynn";"1996";;"Windows 7";"Rachel's Experiment (D.T.)";"1.0";"2";"1";"1";"2";"1";"1";"2014-10-07 10:20:05.718";"2014-10-07 10:36:48.394";"1";"0";"1";"147";"146";"module.training_block4.exec-6522.GoNoGo4";;;;;;;;;;;;;;;;;;;;;;;;;;;;;;;;;;;;;;;;;;;;;;;;;;;;;;;;;;;"1261";"2014-10-07 10:29:52.216";"NST_correctLoc";"34";"0";"FINISHED";"LEFT";"success";"550";"0";"2014-10-07 10:29:50.953";"3";;;;;;;;;;;;;;;;;;;;;
"07hflynn";"1996";;"Windows 7";"Rachel's Experiment (D.T.)";"1.0";"2";"1";"1";"2";"1";"1";"2014-10-07 10:20:05.718";"2014-10-07 10:36:48.394";"1";"0";"1";"148";"147";"module.training_block4.exec-6522.GoNoGo4";;;;;;;;;;;;;;;;;;;;;;;;;;;;;;;;;;;;;;;;;;;;;;;;;;;;;;;;;;;"1261";"2014-10-07 10:29:54.743";"NST_correctLoc";"20";"0";"FINISHED";"LEFT";"success";"1014";"0";"2014-10-07 10:29:53.480";"3";;;;;;;;;;;;;;;;;;;;;
"07hflynn";"1996";;"Windows 7";"Rachel's Experiment (D.T.)";"1.0";"2";"1";"1";"2";"1";"1";"2014-10-07 10:20:05.718";"2014-10-07 10:36:48.394";"1";"0";"1";"149";"148";"module.training_block4.exec-6522.GoNoGo4";;;;;;;;;;;;;;;;;;;;;;;;;;;;;;;;;;;;;;;;;;;;;;;;;;;;;;;;;;;"1261";"2014-10-07 10:29:57.271";"NST_correctLoc";"28";"1";"FINISHED";"RIGHT";"success";"519";"0";"2014-10-07 10:29:56.007";"3";;;;;;;;;;;;;;;;;;;;;
"07hflynn";"1996";;"Windows 7";"Rachel's Experiment (D.T.)";"1.0";"2";"1";"1";"2";"1";"1";"2014-10-07 10:20:05.718";"2014-10-07 10:36:48.394";"1";"0";"1";"150";"149";"module.training_block4.exec-6522.GoNoGo4";;;;;;;;;;;;;;;;;;;;;;;;;;;;;;;;;;;;;;;;;;;;;;;;;;;;;;;;;;;"1261";"2014-10-07 10:29:59.813";"ST_failedStop";"21";"0";"FINISHED";"LEFT";"failure";"504";"1";"2014-10-07 10:29:58.550";"3";;;;;;;;;;;;;;;;;;;;;
"07hflynn";"1996";;"Windows 7";"Rachel's Experiment (D.T.)";"1.0";"2";"1";"1";"2";"1";"1";"2014-10-07 10:20:05.718";"2014-10-07 10:36:48.394";"1";"0";"1";"151";"150";"module.training_block4.exec-6522.GoNoGo4";;;;;;;;;;;;;;;;;;;;;;;;;;;;;;;;;;;;;;;;;;;;;;;;;;;;;;;;;;;"1261";"2014-10-07 10:30:02.341";"ST_correctStop";"1";"1";"FINISHED";"NONE";"success";"0";"1";"2014-10-07 10:30:01.077";"1";;;;;;;;;;;;;;;;;;;;;
"07hflynn";"1996";;"Windows 7";"Rachel's Experiment (D.T.)";"1.0";"2";"1";"1";"2";"1";"1";"2014-10-07 10:20:05.718";"2014-10-07 10:36:48.394";"1";"0";"1";"152";"151";"module.training_block4.exec-6522.GoNoGo4";;;;;;;;;;;;;;;;;;;;;;;;;;;;;;;;;;;;;;;;;;;;;;;;;;;;;;;;;;;"1261";"2014-10-07 10:30:04.868";"NST_correctLoc";"13";"1";"FINISHED";"RIGHT";"success";"674";"0";"2014-10-07 10:30:03.604";"2";;;;;;;;;;;;;;;;;;;;;
"07hflynn";"1996";;"Windows 7";"Rachel's Experiment (D.T.)";"1.0";"2";"1";"1";"2";"1";"1";"2014-10-07 10:20:05.718";"2014-10-07 10:36:48.394";"1";"0";"1";"153";"152";"module.training_block4.exec-6522.GoNoGo4";;;;;;;;;;;;;;;;;;;;;;;;;;;;;;;;;;;;;;;;;;;;;;;;;;;;;;;;;;;"1261";"2014-10-07 10:30:07.395";"NST_correctLoc";"9";"1";"FINISHED";"RIGHT";"success";"595";"0";"2014-10-07 10:30:06.131";"2";;;;;;;;;;;;;;;;;;;;;
"07hflynn";"1996";;"Windows 7";"Rachel's Experiment (D.T.)";"1.0";"2";"1";"1";"2";"1";"1";"2014-10-07 10:20:05.718";"2014-10-07 10:36:48.394";"1";"0";"1";"154";"153";"module.training_block4.exec-6522.GoNoGo4";;;;;;;;;;;;;;;;;;;;;;;;;;;;;;;;;;;;;;;;;;;;;;;;;;;;;;;;;;;"1261";"2014-10-07 10:30:09.922";"NST_correctLoc";"31";"1";"FINISHED";"RIGHT";"success";"555";"0";"2014-10-07 10:30:08.659";"3";;;;;;;;;;;;;;;;;;;;;
"07hflynn";"1996";;"Windows 7";"Rachel's Experiment (D.T.)";"1.0";"2";"1";"1";"2";"1";"1";"2014-10-07 10:20:05.718";"2014-10-07 10:36:48.394";"1";"0";"1";"155";"154";"module.training_block4.exec-6522.GoNoGo4";;;;;;;;;;;;;;;;;;;;;;;;;;;;;;;;;;;;;;;;;;;;;;;;;;;;;;;;;;;"1261";"2014-10-07 10:30:12.449";"NST_correctLoc";"14";"1";"FINISHED";"RIGHT";"success";"468";"0";"2014-10-07 10:30:11.186";"2";;;;;;;;;;;;;;;;;;;;;
"07hflynn";"1996";;"Windows 7";"Rachel's Experiment (D.T.)";"1.0";"2";"1";"1";"2";"1";"1";"2014-10-07 10:20:05.718";"2014-10-07 10:36:48.394";"1";"0";"1";"156";"155";"module.training_block4.exec-6522.GoNoGo4";;;;;;;;;;;;;;;;;;;;;;;;;;;;;;;;;;;;;;;;;;;;;;;;;;;;;;;;;;;"1261";"2014-10-07 10:30:14.977";"ST_correctStop";"2";"1";"FINISHED";"NONE";"success";"0";"1";"2014-10-07 10:30:13.713";"1";;;;;;;;;;;;;;;;;;;;;
"07hflynn";"1996";;"Windows 7";"Rachel's Experiment (D.T.)";"1.0";"2";"1";"1";"2";"1";"1";"2014-10-07 10:20:05.718";"2014-10-07 10:36:48.394";"1";"0";"1";"157";"156";"module.training_block4.exec-6522.GoNoGo4";;;;;;;;;;;;;;;;;;;;;;;;;;;;;;;;;;;;;;;;;;;;;;;;;;;;;;;;;;;"1261";"2014-10-07 10:30:17.504";"ST_correctStop";"4";"1";"FINISHED";"NONE";"success";"0";"1";"2014-10-07 10:30:16.240";"1";;;;;;;;;;;;;;;;;;;;;
"07hflynn";"1996";;"Windows 7";"Rachel's Experiment (D.T.)";"1.0";"2";"1";"1";"2";"1";"1";"2014-10-07 10:20:05.718";"2014-10-07 10:36:48.394";"1";"0";"1";"158";"157";"module.training_block4.exec-6522.GoNoGo4";;;;;;;;;;;;;;;;;;;;;;;;;;;;;;;;;;;;;;;;;;;;;;;;;;;;;;;;;;;"1261";"2014-10-07 10:30:20.047";"ST_correctStop";"8";"0";"FINISHED";"NONE";"success";"0";"1";"2014-10-07 10:30:18.783";"1";;;;;;;;;;;;;;;;;;;;;
"07hflynn";"1996";;"Windows 7";"Rachel's Experiment (D.T.)";"1.0";"2";"1";"1";"2";"1";"1";"2014-10-07 10:20:05.718";"2014-10-07 10:36:48.394";"1";"0";"1";"159";"158";"module.training_block4.exec-6522.GoNoGo4";;;;;;;;;;;;;;;;;;;;;;;;;;;;;;;;;;;;;;;;;;;;;;;;;;;;;;;;;;;"1261";"2014-10-07 10:30:22.589";"NST_correctLoc";"10";"1";"FINISHED";"RIGHT";"success";"616";"0";"2014-10-07 10:30:21.326";"2";;;;;;;;;;;;;;;;;;;;;
"07hflynn";"1996";;"Windows 7";"Rachel's Experiment (D.T.)";"1.0";"2";"1";"1";"2";"1";"1";"2014-10-07 10:20:05.718";"2014-10-07 10:36:48.394";"1";"0";"1";"160";"159";"module.devaluation_practice.exec-1731.devalPractice";;;;;;;;;;;;"39963";"2014-10-07 10:31:30.808";"0";"4";"3";"4";"26225";"5613";"5064";"2014-10-07 10:30:50.841";;;;;;;;;;;;;;;;;;;;;;;;;;;;;;;;;;;;;;;;;;;;;;;;;;;;;;;;;;;;;;;;;;;;;;
"07hflynn";"1996";;"Windows 7";"Rachel's Experiment (D.T.)";"1.0";"2";"1";"1";"2";"1";"1";"2014-10-07 10:20:05.718";"2014-10-07 10:36:48.394";"1";"0";"1";"161";"160";"module.devaluation_practice.exec-1731.devalPractice";;;;;;;;;;;;"14924";"2014-10-07 10:31:45.753";"1";"6";"6";"5";"4608";"2515";"4773";"2014-10-07 10:31:30.824";;;;;;;;;;;;;;;;;;;;;;;;;;;;;;;;;;;;;;;;;;;;;;;;;;;;;;;;;;;;;;;;;;;;;;
"07hflynn";"1996";;"Windows 7";"Rachel's Experiment (D.T.)";"1.0";"2";"1";"1";"2";"1";"1";"2014-10-07 10:20:05.718";"2014-10-07 10:36:48.394";"1";"0";"1";"162";"161";"module.devaluation_practice.exec-1731.devalPractice";;;;;;;;;;;;"9308";"2014-10-07 10:31:55.082";"2";"3";"2";"3";"2279";"2405";"1601";"2014-10-07 10:31:45.769";;;;;;;;;;;;;;;;;;;;;;;;;;;;;;;;;;;;;;;;;;;;;;;;;;;;;;;;;;;;;;;;;;;;;;
"07hflynn";"1996";;"Windows 7";"Rachel's Experiment (D.T.)";"1.0";"2";"1";"1";"2";"1";"1";"2014-10-07 10:20:05.718";"2014-10-07 10:36:48.394";"1";"0";"1";"163";"162";"module.devaluation_practice.exec-1731.devalPractice";;;;;;;;;;;;"9856";"2014-10-07 10:32:05.082";"3";"5";"5";"6";"2425";"1104";"3281";"2014-10-07 10:31:55.222";;;;;;;;;;;;;;;;;;;;;;;;;;;;;;;;;;;;;;;;;;;;;;;;;;;;;;;;;;;;;;;;;;;;;;
"07hflynn";"1996";;"Windows 7";"Rachel's Experiment (D.T.)";"1.0";"2";"1";"1";"2";"1";"1";"2014-10-07 10:20:05.718";"2014-10-07 10:36:48.394";"1";"0";"1";"164";"163";"module.devaluation_block1.exec-1410.deval1";"11182";"2014-10-07 10:32:30.322";"7";"7";"6";"8";"3637";"1967";"2552";"2014-10-07 10:32:19.137";"1";;;;;;;;;;;;;;;;;;;;;;;;;;;;;;;;;;;;;;;;;;;;;;;;;;;;;;;;;;;;;;;;;;;;;;;;;;;;;;;;
"07hflynn";"1996";;"Windows 7";"Rachel's Experiment (D.T.)";"1.0";"2";"1";"1";"2";"1";"1";"2014-10-07 10:20:05.718";"2014-10-07 10:36:48.394";"1";"0";"1";"165";"164";"module.devaluation_block1.exec-1410.deval1";"13448";"2014-10-07 10:32:43.785";"24";"8";"7";"8";"6069";"1477";"2878";"2014-10-07 10:32:30.338";"3";;;;;;;;;;;;;;;;;;;;;;;;;;;;;;;;;;;;;;;;;;;;;;;;;;;;;;;;;;;;;;;;;;;;;;;;;;;;;;;;
"07hflynn";"1996";;"Windows 7";"Rachel's Experiment (D.T.)";"1.0";"2";"1";"1";"2";"1";"1";"2014-10-07 10:20:05.718";"2014-10-07 10:36:48.394";"1";"0";"1";"166";"165";"module.devaluation_block1.exec-1410.deval1";"14140";"2014-10-07 10:32:57.950";"23";"7";"5";"8";"2047";"6058";"3000";"2014-10-07 10:32:43.816";"3";;;;;;;;;;;;;;;;;;;;;;;;;;;;;;;;;;;;;;;;;;;;;;;;;;;;;;;;;;;;;;;;;;;;;;;;;;;;;;;;
"07hflynn";"1996";;"Windows 7";"Rachel's Experiment (D.T.)";"1.0";"2";"1";"1";"2";"1";"1";"2014-10-07 10:20:05.718";"2014-10-07 10:36:48.394";"1";"0";"1";"167";"166";"module.devaluation_block1.exec-1410.deval1";"10445";"2014-10-07 10:33:08.418";"0";"9";"8";"9";"2873";"1890";"2656";"2014-10-07 10:32:57.966";"1";;;;;;;;;;;;;;;;;;;;;;;;;;;;;;;;;;;;;;;;;;;;;;;;;;;;;;;;;;;;;;;;;;;;;;;;;;;;;;;;
"07hflynn";"1996";;"Windows 7";"Rachel's Experiment (D.T.)";"1.0";"2";"1";"1";"2";"1";"1";"2014-10-07 10:20:05.718";"2014-10-07 10:36:48.394";"1";"0";"1";"168";"167";"module.devaluation_block1.exec-1410.deval1";"8172";"2014-10-07 10:33:16.608";"25";"5";"4";"6";"2510";"1825";"804";"2014-10-07 10:33:08.433";"3";;;;;;;;;;;;;;;;;;;;;;;;;;;;;;;;;;;;;;;;;;;;;;;;;;;;;;;;;;;;;;;;;;;;;;;;;;;;;;;;
"07hflynn";"1996";;"Windows 7";"Rachel's Experiment (D.T.)";"1.0";"2";"1";"1";"2";"1";"1";"2014-10-07 10:20:05.718";"2014-10-07 10:36:48.394";"1";"0";"1";"169";"168";"module.devaluation_block1.exec-1410.deval1";"6861";"2014-10-07 10:33:23.487";"4";"8";"6";"8";"1312";"956";"1567";"2014-10-07 10:33:16.623";"1";;;;;;;;;;;;;;;;;;;;;;;;;;;;;;;;;;;;;;;;;;;;;;;;;;;;;;;;;;;;;;;;;;;;;;;;;;;;;;;;
"07hflynn";"1996";;"Windows 7";"Rachel's Experiment (D.T.)";"1.0";"2";"1";"1";"2";"1";"1";"2014-10-07 10:20:05.718";"2014-10-07 10:36:48.394";"1";"0";"1";"170";"169";"module.devaluation_block1.exec-1410.deval1";"13812";"2014-10-07 10:33:37.325";"20";"3";"2";"3";"4824";"2230";"3737";"2014-10-07 10:33:23.503";"3";;;;;;;;;;;;;;;;;;;;;;;;;;;;;;;;;;;;;;;;;;;;;;;;;;;;;;;;;;;;;;;;;;;;;;;;;;;;;;;;
"07hflynn";"1996";;"Windows 7";"Rachel's Experiment (D.T.)";"1.0";"2";"1";"1";"2";"1";"1";"2014-10-07 10:20:05.718";"2014-10-07 10:36:48.394";"1";"0";"1";"171";"170";"module.devaluation_block1.exec-1410.deval1";"10308";"2014-10-07 10:33:47.652";"19";"8";"9";"8";"4067";"1201";"2016";"2014-10-07 10:33:37.340";"3";;;;;;;;;;;;;;;;;;;;;;;;;;;;;;;;;;;;;;;;;;;;;;;;;;;;;;;;;;;;;;;;;;;;;;;;;;;;;;;;
"07hflynn";"1996";;"Windows 7";"Rachel's Experiment (D.T.)";"1.0";"2";"1";"1";"2";"1";"1";"2014-10-07 10:20:05.718";"2014-10-07 10:36:48.394";"1";"0";"1";"172";"171";"module.devaluation_block1.exec-1410.deval1";"8992";"2014-10-07 10:33:56.669";"6";"6";"5";"6";"2348";"1278";"2349";"2014-10-07 10:33:47.667";"1";;;;;;;;;;;;;;;;;;;;;;;;;;;;;;;;;;;;;;;;;;;;;;;;;;;;;;;;;;;;;;;;;;;;;;;;;;;;;;;;
"07hflynn";"1996";;"Windows 7";"Rachel's Experiment (D.T.)";"1.0";"2";"1";"1";"2";"1";"1";"2014-10-07 10:20:05.718";"2014-10-07 10:36:48.394";"1";"0";"1";"173";"172";"module.devaluation_block1.exec-1410.deval1";"8741";"2014-10-07 10:34:05.420";"3";"9";"7";"9";"1643";"1739";"2330";"2014-10-07 10:33:56.684";"1";;;;;;;;;;;;;;;;;;;;;;;;;;;;;;;;;;;;;;;;;;;;;;;;;;;;;;;;;;;;;;;;;;;;;;;;;;;;;;;;
"07hflynn";"1996";;"Windows 7";"Rachel's Experiment (D.T.)";"1.0";"2";"1";"1";"2";"1";"1";"2014-10-07 10:20:05.718";"2014-10-07 10:36:48.394";"1";"0";"1";"174";"173";"module.devaluation_block1.exec-1410.deval1";"11588";"2014-10-07 10:34:17.027";"5";"8";"7";"8";"3499";"1600";"3474";"2014-10-07 10:34:05.436";"1";;;;;;;;;;;;;;;;;;;;;;;;;;;;;;;;;;;;;;;;;;;;;;;;;;;;;;;;;;;;;;;;;;;;;;;;;;;;;;;;
"07hflynn";"1996";;"Windows 7";"Rachel's Experiment (D.T.)";"1.0";"2";"1";"1";"2";"1";"1";"2014-10-07 10:20:05.718";"2014-10-07 10:36:48.394";"1";"0";"1";"175";"174";"module.devaluation_block1.exec-1410.deval1";"8125";"2014-10-07 10:34:25.170";"12";"7";"5";"7";"1125";"1523";"2455";"2014-10-07 10:34:17.042";"2";;;;;;;;;;;;;;;;;;;;;;;;;;;;;;;;;;;;;;;;;;;;;;;;;;;;;;;;;;;;;;;;;;;;;;;;;;;;;;;;
"07hflynn";"1996";;"Windows 7";"Rachel's Experiment (D.T.)";"1.0";"2";"1";"1";"2";"1";"1";"2014-10-07 10:20:05.718";"2014-10-07 10:36:48.394";"1";"0";"1";"176";"175";"module.devaluation_block1.exec-1410.deval1";"8133";"2014-10-07 10:34:33.329";"11";"3";"1";"1";"1061";"1812";"2230";"2014-10-07 10:34:25.185";"2";;;;;;;;;;;;;;;;;;;;;;;;;;;;;;;;;;;;;;;;;;;;;;;;;;;;;;;;;;;;;;;;;;;;;;;;;;;;;;;;
"07hflynn";"1996";;"Windows 7";"Rachel's Experiment (D.T.)";"1.0";"2";"1";"1";"2";"1";"1";"2014-10-07 10:20:05.718";"2014-10-07 10:36:48.394";"1";"0";"1";"177";"176";"module.devaluation_block1.exec-1410.deval1";"8305";"2014-10-07 10:34:41.659";"15";"3";"1";"2";"1887";"1248";"2148";"2014-10-07 10:34:33.344";"2";;;;;;;;;;;;;;;;;;;;;;;;;;;;;;;;;;;;;;;;;;;;;;;;;;;;;;;;;;;;;;;;;;;;;;;;;;;;;;;;
"07hflynn";"1996";;"Windows 7";"Rachel's Experiment (D.T.)";"1.0";"2";"1";"1";"2";"1";"1";"2014-10-07 10:20:05.718";"2014-10-07 10:36:48.394";"1";"0";"1";"178";"177";"module.devaluation_block1.exec-1410.deval1";"7780";"2014-10-07 10:34:49.459";"16";"3";"1";"2";"932";"1279";"2553";"2014-10-07 10:34:41.675";"2";;;;;;;;;;;;;;;;;;;;;;;;;;;;;;;;;;;;;;;;;;;;;;;;;;;;;;;;;;;;;;;;;;;;;;;;;;;;;;;;
"07hflynn";"1996";;"Windows 7";"Rachel's Experiment (D.T.)";"1.0";"2";"1";"1";"2";"1";"1";"2014-10-07 10:20:05.718";"2014-10-07 10:36:48.394";"1";"0";"1";"179";"178";"module.devaluation_block1.exec-1410.deval1";"12445";"2014-10-07 10:35:01.923";"1";"8";"7";"8";"2364";"2293";"4758";"2014-10-07 10:34:49.475";"1";;;;;;;;;;;;;;;;;;;;;;;;;;;;;;;;;;;;;;;;;;;;;;;;;;;;;;;;;;;;;;;;;;;;;;;;;;;;;;;;
"07hflynn";"1996";;"Windows 7";"Rachel's Experiment (D.T.)";"1.0";"2";"1";"1";"2";"1";"1";"2014-10-07 10:20:05.718";"2014-10-07 10:36:48.394";"1";"0";"1";"180";"179";"module.devaluation_block1.exec-1410.deval1";"10013";"2014-10-07 10:35:11.954";"8";"7";"7";"7";"3556";"1233";"2188";"2014-10-07 10:35:01.939";"1";;;;;;;;;;;;;;;;;;;;;;;;;;;;;;;;;;;;;;;;;;;;;;;;;;;;;;;;;;;;;;;;;;;;;;;;;;;;;;;;
"07hflynn";"1996";;"Windows 7";"Rachel's Experiment (D.T.)";"1.0";"2";"1";"1";"2";"1";"1";"2014-10-07 10:20:05.718";"2014-10-07 10:36:48.394";"1";"0";"1";"181";"180";"module.devaluation_block1.exec-1410.deval1";"10363";"2014-10-07 10:35:22.328";"13";"8";"7";"9";"2429";"2585";"2328";"2014-10-07 10:35:11.970";"2";;;;;;;;;;;;;;;;;;;;;;;;;;;;;;;;;;;;;;;;;;;;;;;;;;;;;;;;;;;;;;;;;;;;;;;;;;;;;;;;
"07hflynn";"1996";;"Windows 7";"Rachel's Experiment (D.T.)";"1.0";"2";"1";"1";"2";"1";"1";"2014-10-07 10:20:05.718";"2014-10-07 10:36:48.394";"1";"0";"1";"182";"181";"module.devaluation_block1.exec-1410.deval1";"6861";"2014-10-07 10:35:29.208";"21";"8";"6";"9";"1159";"1431";"1234";"2014-10-07 10:35:22.360";"3";;;;;;;;;;;;;;;;;;;;;;;;;;;;;;;;;;;;;;;;;;;;;;;;;;;;;;;;;;;;;;;;;;;;;;;;;;;;;;;;
"07hflynn";"1996";;"Windows 7";"Rachel's Experiment (D.T.)";"1.0";"2";"1";"1";"2";"1";"1";"2014-10-07 10:20:05.718";"2014-10-07 10:36:48.394";"1";"0";"1";"183";"182";"module.devaluation_block1.exec-1410.deval1";"8676";"2014-10-07 10:35:37.913";"17";"5";"4";"2";"632";"2015";"2997";"2014-10-07 10:35:29.239";"2";;;;;;;;;;;;;;;;;;;;;;;;;;;;;;;;;;;;;;;;;;;;;;;;;;;;;;;;;;;;;;;;;;;;;;;;;;;;;;;;
"07hflynn";"1996";;"Windows 7";"Rachel's Experiment (D.T.)";"1.0";"2";"1";"1";"2";"1";"1";"2014-10-07 10:20:05.718";"2014-10-07 10:36:48.394";"1";"0";"1";"184";"183";"module.devaluation_block1.exec-1410.deval1";"9294";"2014-10-07 10:35:47.242";"22";"8";"7";"8";"1958";"1998";"2318";"2014-10-07 10:35:37.944";"3";;;;;;;;;;;;;;;;;;;;;;;;;;;;;;;;;;;;;;;;;;;;;;;;;;;;;;;;;;;;;;;;;;;;;;;;;;;;;;;;
"07hflynn";"1996";;"Windows 7";"Rachel's Experiment (D.T.)";"1.0";"2";"1";"1";"2";"1";"1";"2014-10-07 10:20:05.718";"2014-10-07 10:36:48.394";"1";"0";"1";"185";"184";"module.devaluation_block1.exec-1410.deval1";"10204";"2014-10-07 10:35:57.460";"10";"8";"7";"6";"1405";"3330";"2430";"2014-10-07 10:35:47.257";"2";;;;;;;;;;;;;;;;;;;;;;;;;;;;;;;;;;;;;;;;;;;;;;;;;;;;;;;;;;;;;;;;;;;;;;;;;;;;;;;;
"07hflynn";"1996";;"Windows 7";"Rachel's Experiment (D.T.)";"1.0";"2";"1";"1";"2";"1";"1";"2014-10-07 10:20:05.718";"2014-10-07 10:36:48.394";"1";"0";"1";"186";"185";"module.devaluation_block1.exec-1410.deval1";"10852";"2014-10-07 10:36:08.333";"9";"6";"5";"4";"1915";"1067";"4849";"2014-10-07 10:35:57.475";"2";;;;;;;;;;;;;;;;;;;;;;;;;;;;;;;;;;;;;;;;;;;;;;;;;;;;;;;;;;;;;;;;;;;;;;;;;;;;;;;;
"07hflynn";"1996";;"Windows 7";"Rachel's Experiment (D.T.)";"1.0";"2";"1";"1";"2";"1";"1";"2014-10-07 10:20:05.718";"2014-10-07 10:36:48.394";"1";"0";"1";"187";"186";"module.devaluation_block1.exec-1410.deval1";"10292";"2014-10-07 10:36:18.644";"2";"8";"7";"9";"2666";"2611";"1979";"2014-10-07 10:36:08.348";"1";;;;;;;;;;;;;;;;;;;;;;;;;;;;;;;;;;;;;;;;;;;;;;;;;;;;;;;;;;;;;;;;;;;;;;;;;;;;;;;;
"07hflynn";"1996";;"Windows 7";"Rachel's Experiment (D.T.)";"1.0";"2";"1";"1";"2";"1";"1";"2014-10-07 10:20:05.718";"2014-10-07 10:36:48.394";"1";"0";"1";"188";"187";"module.devaluation_block1.exec-1410.deval1";"7044";"2014-10-07 10:36:25.711";"26";"9";"9";"8";"1682";"1345";"987";"2014-10-07 10:36:18.660";"3";;;;;;;;;;;;;;;;;;;;;;;;;;;;;;;;;;;;;;;;;;;;;;;;;;;;;;;;;;;;;;;;;;;;;;;;;;;;;;;;
"07hflynn";"1996";;"Windows 7";"Rachel's Experiment (D.T.)";"1.0";"2";"1";"1";"2";"1";"1";"2014-10-07 10:20:05.718";"2014-10-07 10:36:48.394";"1";"0";"1";"189";"188";"module.devaluation_block1.exec-1410.deval1";"10768";"2014-10-07 10:36:36.506";"18";"8";"8";"9";"2712";"2114";"2907";"2014-10-07 10:36:25.742";"3";;;;;;;;;;;;;;;;;;;;;;;;;;;;;;;;;;;;;;;;;;;;;;;;;;;;;;;;;;;;;;;;;;;;;;;;;;;;;;;;
"07hflynn";"1996";;"Windows 7";"Rachel's Experiment (D.T.)";"1.0";"2";"1";"1";"2";"1";"1";"2014-10-07 10:20:05.718";"2014-10-07 10:36:48.394";"1";"0";"1";"190";"189";"module.devaluation_block1.exec-1410.deval1";"9365";"2014-10-07 10:36:45.898";"14";"7";"8";"8";"2061";"2505";"1766";"2014-10-07 10:36:36.538";"2";;;;;;;;;;;;;;;;;;;;;;;;;;;;;;;;;;;;;;;;;;;;;;;;;;;;;;;;;;;;;;;;;;;;;;;;;;;;;;;;
