"user.name";"user.yearOfBirth";"user.sex";"user.osName";"module.name";"module.version";"module.online.subject.code";"module.online.study.id";"module.online.module.nr";"module.online.group.nr";"session.id";"session.index";"session.startTime";"session.endTime";"session.completed";"session.node-2603.conditionType";"session.node-8953.DevalQorder";"trial.id";"trial.index";"trial.name";"trial.deval1.durationTime";"trial.deval1.endTime";"trial.deval1.icon";"trial.deval1.Resp_Attractive";"trial.deval1.Resp_Eat";"trial.deval1.Resp_Taste";"trial.deval1.RT_Attractive";"trial.deval1.RT_Eat";"trial.deval1.RT_Taste";"trial.deval1.startTime";"trial.deval1.stimulus type";"trial.devalPractice.durationTime";"trial.devalPractice.endTime";"trial.devalPractice.icon";"trial.devalPractice.Resp_Attractive";"trial.devalPractice.Resp_Eat";"trial.devalPractice.Resp_Taste";"trial.devalPractice.RT_Attractive";"trial.devalPractice.RT_Eat";"trial.devalPractice.RT_Taste";"trial.devalPractice.startTime";"trial.devalPractice.stimulus type";"trial.GoNoGo1.durationTime";"trial.GoNoGo1.endTime";"trial.GoNoGo1.Error Type";"trial.GoNoGo1.icon";"trial.GoNoGo1.location";"trial.GoNoGo1.outcome";"trial.GoNoGo1.response";"trial.GoNoGo1.result";"trial.GoNoGo1.RT";"trial.GoNoGo1.signal";"trial.GoNoGo1.startTime";"trial.GoNoGo1.stimulus type";"trial.GoNoGo2.durationTime";"trial.GoNoGo2.endTime";"trial.GoNoGo2.Error Type";"trial.GoNoGo2.icon";"trial.GoNoGo2.location";"trial.GoNoGo2.outcome";"trial.GoNoGo2.response";"trial.GoNoGo2.result";"trial.GoNoGo2.RT";"trial.GoNoGo2.signal";"trial.GoNoGo2.startTime";"trial.GoNoGo2.stimulus type";"trial.GoNoGo3.durationTime";"trial.GoNoGo3.endTime";"trial.GoNoGo3.Error Type";"trial.GoNoGo3.icon";"trial.GoNoGo3.location";"trial.GoNoGo3.outcome";"trial.GoNoGo3.response";"trial.GoNoGo3.result";"trial.GoNoGo3.RT";"trial.GoNoGo3.signal";"trial.GoNoGo3.startTime";"trial.GoNoGo3.stimulus type";"trial.GoNoGo4.durationTime";"trial.GoNoGo4.endTime";"trial.GoNoGo4.Error Type";"trial.GoNoGo4.icon";"trial.GoNoGo4.location";"trial.GoNoGo4.outcome";"trial.GoNoGo4.response";"trial.GoNoGo4.result";"trial.GoNoGo4.RT";"trial.GoNoGo4.signal";"trial.GoNoGo4.startTime";"trial.GoNoGo4.stimulus type";"trial.GoNoGo_Practice.durationTime";"trial.GoNoGo_Practice.endTime";"trial.GoNoGo_Practice.icon";"trial.GoNoGo_Practice.location";"trial.GoNoGo_Practice.outcome";"trial.GoNoGo_Practice.response";"trial.GoNoGo_Practice.result";"trial.GoNoGo_Practice.RT";"trial.GoNoGo_Practice.signal";"trial.GoNoGo_Practice.startTime";"trial.GoNoGo_Practice.stimulus type";"trial.GoNoGo_Tutorial.durationTime";"trial.GoNoGo_Tutorial.endTime";"trial.GoNoGo_Tutorial.icon";"trial.GoNoGo_Tutorial.location";"trial.GoNoGo_Tutorial.outcome";"trial.GoNoGo_Tutorial.response";"trial.GoNoGo_Tutorial.result";"trial.GoNoGo_Tutorial.RT";"trial.GoNoGo_Tutorial.signal";"trial.GoNoGo_Tutorial.startTime"
"psychem";"1995";;"Windows 7";"Rachel's Experiment (D.T.)";"1.0";"2";"1";"1";"2";"1";"1";"2014-10-06 13:35:01.190";"2014-10-06 13:48:19.581";"1";"1";"1";"1";"0";"module.GoNoGotutorial.exec-6567.GoNoGo_Tutorial";;;;;;;;;;;;;;;;;;;;;;;;;;;;;;;;;;;;;;;;;;;;;;;;;;;;;;;;;;;;;;;;;;;;;;;;;;;;;;;;;;"3987";"2014-10-06 13:35:44.034";"leftResponse";"0";"FINISHED";"LEFT";"success";"337";"0";"2014-10-06 13:35:40.034"
"psychem";"1995";;"Windows 7";"Rachel's Experiment (D.T.)";"1.0";"2";"1";"1";"2";"1";"1";"2014-10-06 13:35:01.190";"2014-10-06 13:48:19.581";"1";"1";"1";"2";"1";"module.GoNoGotutorial.exec-6567.GoNoGo_Tutorial";;;;;;;;;;;;;;;;;;;;;;;;;;;;;;;;;;;;;;;;;;;;;;;;;;;;;;;;;;;;;;;;;;;;;;;;;;;;;;;;;;"3995";"2014-10-06 13:35:49.300";"rightResponse";"1";"FINISHED";"RIGHT";"success";"407";"0";"2014-10-06 13:35:45.300"
"psychem";"1995";;"Windows 7";"Rachel's Experiment (D.T.)";"1.0";"2";"1";"1";"2";"1";"1";"2014-10-06 13:35:01.190";"2014-10-06 13:48:19.581";"1";"1";"1";"3";"2";"module.GoNoGotutorial.exec-6567.GoNoGo_Tutorial";;;;;;;;;;;;;;;;;;;;;;;;;;;;;;;;;;;;;;;;;;;;;;;;;;;;;;;;;;;;;;;;;;;;;;;;;;;;;;;;;;"3995";"2014-10-06 13:35:54.565";"signalResponse";"0";"FINISHED";"LEFT";"failure";"293";"1";"2014-10-06 13:35:50.565"
"psychem";"1995";;"Windows 7";"Rachel's Experiment (D.T.)";"1.0";"2";"1";"1";"2";"1";"1";"2014-10-06 13:35:01.190";"2014-10-06 13:48:19.581";"1";"1";"1";"4";"3";"module.GoNoGopractice.exec-3700.GoNoGo_Practice";;;;;;;;;;;;;;;;;;;;;;;;;;;;;;;;;;;;;;;;;;;;;;;;;;;;;;;;;;;;;;;;;;;;;;;"1947";"2014-10-06 13:36:03.581";"18";"0";"FINISHED";"LEFT";"success";"302";"0";"2014-10-06 13:36:01.628";"3";;;;;;;;;;
"psychem";"1995";;"Windows 7";"Rachel's Experiment (D.T.)";"1.0";"2";"1";"1";"2";"1";"1";"2014-10-06 13:35:01.190";"2014-10-06 13:48:19.581";"1";"1";"1";"5";"4";"module.GoNoGopractice.exec-3700.GoNoGo_Practice";;;;;;;;;;;;;;;;;;;;;;;;;;;;;;;;;;;;;;;;;;;;;;;;;;;;;;;;;;;;;;;;;;;;;;;"1947";"2014-10-06 13:36:06.800";"21";"1";"FINISHED";"RIGHT";"success";"300";"0";"2014-10-06 13:36:04.846";"3";;;;;;;;;;
"psychem";"1995";;"Windows 7";"Rachel's Experiment (D.T.)";"1.0";"2";"1";"1";"2";"1";"1";"2014-10-06 13:35:01.190";"2014-10-06 13:48:19.581";"1";"1";"1";"6";"5";"module.GoNoGopractice.exec-3700.GoNoGo_Practice";;;;;;;;;;;;;;;;;;;;;;;;;;;;;;;;;;;;;;;;;;;;;;;;;;;;;;;;;;;;;;;;;;;;;;;"1947";"2014-10-06 13:36:10.018";"14";"1";"FINISHED";"RIGHT";"failure";"392";"1";"2014-10-06 13:36:08.065";"2";;;;;;;;;;
"psychem";"1995";;"Windows 7";"Rachel's Experiment (D.T.)";"1.0";"2";"1";"1";"2";"1";"1";"2014-10-06 13:35:01.190";"2014-10-06 13:48:19.581";"1";"1";"1";"7";"6";"module.GoNoGopractice.exec-3700.GoNoGo_Practice";;;;;;;;;;;;;;;;;;;;;;;;;;;;;;;;;;;;;;;;;;;;;;;;;;;;;;;;;;;;;;;;;;;;;;;"1948";"2014-10-06 13:36:13.237";"26";"0";"FINISHED";"LEFT";"success";"454";"0";"2014-10-06 13:36:11.284";"3";;;;;;;;;;
"psychem";"1995";;"Windows 7";"Rachel's Experiment (D.T.)";"1.0";"2";"1";"1";"2";"1";"1";"2014-10-06 13:35:01.190";"2014-10-06 13:48:19.581";"1";"1";"1";"8";"7";"module.GoNoGopractice.exec-3700.GoNoGo_Practice";;;;;;;;;;;;;;;;;;;;;;;;;;;;;;;;;;;;;;;;;;;;;;;;;;;;;;;;;;;;;;;;;;;;;;;"1948";"2014-10-06 13:36:16.456";"2";"0";"FINISHED";"LEFT";"success";"515";"0";"2014-10-06 13:36:14.503";"1";;;;;;;;;;
"psychem";"1995";;"Windows 7";"Rachel's Experiment (D.T.)";"1.0";"2";"1";"1";"2";"1";"1";"2014-10-06 13:35:01.190";"2014-10-06 13:48:19.581";"1";"1";"1";"9";"8";"module.GoNoGopractice.exec-3700.GoNoGo_Practice";;;;;;;;;;;;;;;;;;;;;;;;;;;;;;;;;;;;;;;;;;;;;;;;;;;;;;;;;;;;;;;;;;;;;;;"1940";"2014-10-06 13:36:19.675";"30";"0";"FINISHED";"NONE";"success";"0";"1";"2014-10-06 13:36:17.721";"3";;;;;;;;;;
"psychem";"1995";;"Windows 7";"Rachel's Experiment (D.T.)";"1.0";"2";"1";"1";"2";"1";"1";"2014-10-06 13:35:01.190";"2014-10-06 13:48:19.581";"1";"1";"1";"10";"9";"module.GoNoGopractice.exec-3700.GoNoGo_Practice";;;;;;;;;;;;;;;;;;;;;;;;;;;;;;;;;;;;;;;;;;;;;;;;;;;;;;;;;;;;;;;;;;;;;;;"1947";"2014-10-06 13:36:22.893";"6";"1";"FINISHED";"NONE";"success";"0";"1";"2014-10-06 13:36:20.940";"1";;;;;;;;;;
"psychem";"1995";;"Windows 7";"Rachel's Experiment (D.T.)";"1.0";"2";"1";"1";"2";"1";"1";"2014-10-06 13:35:01.190";"2014-10-06 13:48:19.581";"1";"1";"1";"11";"10";"module.GoNoGopractice.exec-3700.GoNoGo_Practice";;;;;;;;;;;;;;;;;;;;;;;;;;;;;;;;;;;;;;;;;;;;;;;;;;;;;;;;;;;;;;;;;;;;;;;"1948";"2014-10-06 13:36:26.112";"34";"0";"FINISHED";"LEFT";"success";"411";"0";"2014-10-06 13:36:24.159";"3";;;;;;;;;;
"psychem";"1995";;"Windows 7";"Rachel's Experiment (D.T.)";"1.0";"2";"1";"1";"2";"1";"1";"2014-10-06 13:35:01.190";"2014-10-06 13:48:19.581";"1";"1";"1";"12";"11";"module.GoNoGopractice.exec-3700.GoNoGo_Practice";;;;;;;;;;;;;;;;;;;;;;;;;;;;;;;;;;;;;;;;;;;;;;;;;;;;;;;;;;;;;;;;;;;;;;;"1948";"2014-10-06 13:36:29.331";"23";"1";"FINISHED";"RIGHT";"success";"568";"0";"2014-10-06 13:36:27.378";"3";;;;;;;;;;
"psychem";"1995";;"Windows 7";"Rachel's Experiment (D.T.)";"1.0";"2";"1";"1";"2";"1";"1";"2014-10-06 13:35:01.190";"2014-10-06 13:48:19.581";"1";"1";"1";"13";"12";"module.GoNoGopractice.exec-3700.GoNoGo_Practice";;;;;;;;;;;;;;;;;;;;;;;;;;;;;;;;;;;;;;;;;;;;;;;;;;;;;;;;;;;;;;;;;;;;;;;"1947";"2014-10-06 13:36:32.550";"13";"0";"FINISHED";"NONE";"success";"0";"1";"2014-10-06 13:36:30.596";"2";;;;;;;;;;
"psychem";"1995";;"Windows 7";"Rachel's Experiment (D.T.)";"1.0";"2";"1";"1";"2";"1";"1";"2014-10-06 13:35:01.190";"2014-10-06 13:48:19.581";"1";"1";"1";"14";"13";"module.GoNoGopractice.exec-3700.GoNoGo_Practice";;;;;;;;;;;;;;;;;;;;;;;;;;;;;;;;;;;;;;;;;;;;;;;;;;;;;;;;;;;;;;;;;;;;;;;"1948";"2014-10-06 13:36:35.768";"3";"1";"FINISHED";"RIGHT";"success";"547";"0";"2014-10-06 13:36:33.815";"1";;;;;;;;;;
"psychem";"1995";;"Windows 7";"Rachel's Experiment (D.T.)";"1.0";"2";"1";"1";"2";"1";"1";"2014-10-06 13:35:01.190";"2014-10-06 13:48:19.581";"1";"1";"1";"15";"14";"module.GoNoGopractice.exec-3700.GoNoGo_Practice";;;;;;;;;;;;;;;;;;;;;;;;;;;;;;;;;;;;;;;;;;;;;;;;;;;;;;;;;;;;;;;;;;;;;;;"1948";"2014-10-06 13:36:38.987";"27";"1";"FINISHED";"NONE";"success";"0";"1";"2014-10-06 13:36:37.034";"3";;;;;;;;;;
"psychem";"1995";;"Windows 7";"Rachel's Experiment (D.T.)";"1.0";"2";"1";"1";"2";"1";"1";"2014-10-06 13:35:01.190";"2014-10-06 13:48:19.581";"1";"1";"1";"16";"15";"module.training_block1.exec-7358.GoNoGo1";;;;;;;;;;;;;;;;;;;;;;;"1243";"2014-10-06 13:36:47.440";"NST_correctLoc";"15";"1";"FINISHED";"RIGHT";"success";"457";"0";"2014-10-06 13:36:46.190";"2";;;;;;;;;;;;;;;;;;;;;;;;;;;;;;;;;;;;;;;;;;;;;;;;;;;;;;;;;
"psychem";"1995";;"Windows 7";"Rachel's Experiment (D.T.)";"1.0";"2";"1";"1";"2";"1";"1";"2014-10-06 13:35:01.190";"2014-10-06 13:48:19.581";"1";"1";"1";"17";"16";"module.training_block1.exec-7358.GoNoGo1";;;;;;;;;;;;;;;;;;;;;;;"1245";"2014-10-06 13:36:49.956";"NST_correctLoc";"20";"0";"FINISHED";"LEFT";"success";"535";"0";"2014-10-06 13:36:48.706";"3";;;;;;;;;;;;;;;;;;;;;;;;;;;;;;;;;;;;;;;;;;;;;;;;;;;;;;;;;
"psychem";"1995";;"Windows 7";"Rachel's Experiment (D.T.)";"1.0";"2";"1";"1";"2";"1";"1";"2014-10-06 13:35:01.190";"2014-10-06 13:48:19.581";"1";"1";"1";"18";"17";"module.training_block1.exec-7358.GoNoGo1";;;;;;;;;;;;;;;;;;;;;;;"1245";"2014-10-06 13:36:52.471";"NST_correctLoc";"9";"1";"FINISHED";"RIGHT";"success";"563";"0";"2014-10-06 13:36:51.221";"2";;;;;;;;;;;;;;;;;;;;;;;;;;;;;;;;;;;;;;;;;;;;;;;;;;;;;;;;;
"psychem";"1995";;"Windows 7";"Rachel's Experiment (D.T.)";"1.0";"2";"1";"1";"2";"1";"1";"2014-10-06 13:35:01.190";"2014-10-06 13:48:19.581";"1";"1";"1";"19";"18";"module.training_block1.exec-7358.GoNoGo1";;;;;;;;;;;;;;;;;;;;;;;"1245";"2014-10-06 13:36:54.987";"NST_correctLoc";"33";"0";"FINISHED";"LEFT";"success";"496";"0";"2014-10-06 13:36:53.737";"3";;;;;;;;;;;;;;;;;;;;;;;;;;;;;;;;;;;;;;;;;;;;;;;;;;;;;;;;;
"psychem";"1995";;"Windows 7";"Rachel's Experiment (D.T.)";"1.0";"2";"1";"1";"2";"1";"1";"2014-10-06 13:35:01.190";"2014-10-06 13:48:19.581";"1";"1";"1";"20";"19";"module.training_block1.exec-7358.GoNoGo1";;;;;;;;;;;;;;;;;;;;;;;"1244";"2014-10-06 13:36:57.503";"ST_correctStop";"4";"0";"FINISHED";"NONE";"success";"0";"1";"2014-10-06 13:36:56.253";"1";;;;;;;;;;;;;;;;;;;;;;;;;;;;;;;;;;;;;;;;;;;;;;;;;;;;;;;;;
"psychem";"1995";;"Windows 7";"Rachel's Experiment (D.T.)";"1.0";"2";"1";"1";"2";"1";"1";"2014-10-06 13:35:01.190";"2014-10-06 13:48:19.581";"1";"1";"1";"21";"20";"module.training_block1.exec-7358.GoNoGo1";;;;;;;;;;;;;;;;;;;;;;;"1245";"2014-10-06 13:37:00.018";"ST_correctStop";"8";"0";"FINISHED";"NONE";"success";"0";"1";"2014-10-06 13:36:58.768";"1";;;;;;;;;;;;;;;;;;;;;;;;;;;;;;;;;;;;;;;;;;;;;;;;;;;;;;;;;
"psychem";"1995";;"Windows 7";"Rachel's Experiment (D.T.)";"1.0";"2";"1";"1";"2";"1";"1";"2014-10-06 13:35:01.190";"2014-10-06 13:48:19.581";"1";"1";"1";"22";"21";"module.training_block1.exec-7358.GoNoGo1";;;;;;;;;;;;;;;;;;;;;;;"1248";"2014-10-06 13:37:02.534";"ST_correctStop";"2";"0";"FINISHED";"NONE";"success";"0";"1";"2014-10-06 13:37:01.284";"1";;;;;;;;;;;;;;;;;;;;;;;;;;;;;;;;;;;;;;;;;;;;;;;;;;;;;;;;;
"psychem";"1995";;"Windows 7";"Rachel's Experiment (D.T.)";"1.0";"2";"1";"1";"2";"1";"1";"2014-10-06 13:35:01.190";"2014-10-06 13:48:19.581";"1";"1";"1";"23";"22";"module.training_block1.exec-7358.GoNoGo1";;;;;;;;;;;;;;;;;;;;;;;"1244";"2014-10-06 13:37:05.050";"ST_correctStop";"0";"0";"FINISHED";"NONE";"success";"0";"1";"2014-10-06 13:37:03.800";"1";;;;;;;;;;;;;;;;;;;;;;;;;;;;;;;;;;;;;;;;;;;;;;;;;;;;;;;;;
"psychem";"1995";;"Windows 7";"Rachel's Experiment (D.T.)";"1.0";"2";"1";"1";"2";"1";"1";"2014-10-06 13:35:01.190";"2014-10-06 13:48:19.581";"1";"1";"1";"24";"23";"module.training_block1.exec-7358.GoNoGo1";;;;;;;;;;;;;;;;;;;;;;;"1245";"2014-10-06 13:37:07.565";"NST_correctLoc";"11";"1";"FINISHED";"RIGHT";"success";"621";"0";"2014-10-06 13:37:06.315";"2";;;;;;;;;;;;;;;;;;;;;;;;;;;;;;;;;;;;;;;;;;;;;;;;;;;;;;;;;
"psychem";"1995";;"Windows 7";"Rachel's Experiment (D.T.)";"1.0";"2";"1";"1";"2";"1";"1";"2014-10-06 13:35:01.190";"2014-10-06 13:48:19.581";"1";"1";"1";"25";"24";"module.training_block1.exec-7358.GoNoGo1";;;;;;;;;;;;;;;;;;;;;;;"1248";"2014-10-06 13:37:10.081";"ST_correctStop";"23";"0";"FINISHED";"NONE";"success";"0";"1";"2014-10-06 13:37:08.831";"3";;;;;;;;;;;;;;;;;;;;;;;;;;;;;;;;;;;;;;;;;;;;;;;;;;;;;;;;;
"psychem";"1995";;"Windows 7";"Rachel's Experiment (D.T.)";"1.0";"2";"1";"1";"2";"1";"1";"2014-10-06 13:35:01.190";"2014-10-06 13:48:19.581";"1";"1";"1";"26";"25";"module.training_block1.exec-7358.GoNoGo1";;;;;;;;;;;;;;;;;;;;;;;"1244";"2014-10-06 13:37:12.628";"ST_correctStop";"24";"0";"FINISHED";"NONE";"success";"0";"1";"2014-10-06 13:37:11.378";"3";;;;;;;;;;;;;;;;;;;;;;;;;;;;;;;;;;;;;;;;;;;;;;;;;;;;;;;;;
"psychem";"1995";;"Windows 7";"Rachel's Experiment (D.T.)";"1.0";"2";"1";"1";"2";"1";"1";"2014-10-06 13:35:01.190";"2014-10-06 13:48:19.581";"1";"1";"1";"27";"26";"module.training_block1.exec-7358.GoNoGo1";;;;;;;;;;;;;;;;;;;;;;;"1245";"2014-10-06 13:37:15.175";"NST_correctLoc";"12";"1";"FINISHED";"RIGHT";"success";"580";"0";"2014-10-06 13:37:13.925";"2";;;;;;;;;;;;;;;;;;;;;;;;;;;;;;;;;;;;;;;;;;;;;;;;;;;;;;;;;
"psychem";"1995";;"Windows 7";"Rachel's Experiment (D.T.)";"1.0";"2";"1";"1";"2";"1";"1";"2014-10-06 13:35:01.190";"2014-10-06 13:48:19.581";"1";"1";"1";"28";"27";"module.training_block1.exec-7358.GoNoGo1";;;;;;;;;;;;;;;;;;;;;;;"1248";"2014-10-06 13:37:17.690";"ST_correctStop";"6";"0";"FINISHED";"NONE";"success";"0";"1";"2014-10-06 13:37:16.440";"1";;;;;;;;;;;;;;;;;;;;;;;;;;;;;;;;;;;;;;;;;;;;;;;;;;;;;;;;;
"psychem";"1995";;"Windows 7";"Rachel's Experiment (D.T.)";"1.0";"2";"1";"1";"2";"1";"1";"2014-10-06 13:35:01.190";"2014-10-06 13:48:19.581";"1";"1";"1";"29";"28";"module.training_block1.exec-7358.GoNoGo1";;;;;;;;;;;;;;;;;;;;;;;"1248";"2014-10-06 13:37:20.206";"ST_correctStop";"26";"1";"FINISHED";"NONE";"success";"0";"1";"2014-10-06 13:37:18.956";"3";;;;;;;;;;;;;;;;;;;;;;;;;;;;;;;;;;;;;;;;;;;;;;;;;;;;;;;;;
"psychem";"1995";;"Windows 7";"Rachel's Experiment (D.T.)";"1.0";"2";"1";"1";"2";"1";"1";"2014-10-06 13:35:01.190";"2014-10-06 13:48:19.581";"1";"1";"1";"30";"29";"module.training_block1.exec-7358.GoNoGo1";;;;;;;;;;;;;;;;;;;;;;;"1248";"2014-10-06 13:37:22.721";"ST_correctStop";"30";"0";"FINISHED";"NONE";"success";"0";"1";"2014-10-06 13:37:21.471";"3";;;;;;;;;;;;;;;;;;;;;;;;;;;;;;;;;;;;;;;;;;;;;;;;;;;;;;;;;
"psychem";"1995";;"Windows 7";"Rachel's Experiment (D.T.)";"1.0";"2";"1";"1";"2";"1";"1";"2014-10-06 13:35:01.190";"2014-10-06 13:48:19.581";"1";"1";"1";"31";"30";"module.training_block1.exec-7358.GoNoGo1";;;;;;;;;;;;;;;;;;;;;;;"1248";"2014-10-06 13:37:25.237";"NST_correctLoc";"18";"0";"FINISHED";"LEFT";"success";"728";"0";"2014-10-06 13:37:23.987";"3";;;;;;;;;;;;;;;;;;;;;;;;;;;;;;;;;;;;;;;;;;;;;;;;;;;;;;;;;
"psychem";"1995";;"Windows 7";"Rachel's Experiment (D.T.)";"1.0";"2";"1";"1";"2";"1";"1";"2014-10-06 13:35:01.190";"2014-10-06 13:48:19.581";"1";"1";"1";"32";"31";"module.training_block1.exec-7358.GoNoGo1";;;;;;;;;;;;;;;;;;;;;;;"1244";"2014-10-06 13:37:27.753";"NST_correctLoc";"29";"0";"FINISHED";"LEFT";"success";"785";"0";"2014-10-06 13:37:26.503";"3";;;;;;;;;;;;;;;;;;;;;;;;;;;;;;;;;;;;;;;;;;;;;;;;;;;;;;;;;
"psychem";"1995";;"Windows 7";"Rachel's Experiment (D.T.)";"1.0";"2";"1";"1";"2";"1";"1";"2014-10-06 13:35:01.190";"2014-10-06 13:48:19.581";"1";"1";"1";"33";"32";"module.training_block1.exec-7358.GoNoGo1";;;;;;;;;;;;;;;;;;;;;;;"1244";"2014-10-06 13:37:30.268";"ST_failedStop";"7";"1";"FINISHED";"RIGHT";"failure";"397";"1";"2014-10-06 13:37:29.018";"1";;;;;;;;;;;;;;;;;;;;;;;;;;;;;;;;;;;;;;;;;;;;;;;;;;;;;;;;;
"psychem";"1995";;"Windows 7";"Rachel's Experiment (D.T.)";"1.0";"2";"1";"1";"2";"1";"1";"2014-10-06 13:35:01.190";"2014-10-06 13:48:19.581";"1";"1";"1";"34";"33";"module.training_block1.exec-7358.GoNoGo1";;;;;;;;;;;;;;;;;;;;;;;"1245";"2014-10-06 13:37:32.784";"ST_correctStop";"5";"1";"FINISHED";"NONE";"success";"0";"1";"2014-10-06 13:37:31.534";"1";;;;;;;;;;;;;;;;;;;;;;;;;;;;;;;;;;;;;;;;;;;;;;;;;;;;;;;;;
"psychem";"1995";;"Windows 7";"Rachel's Experiment (D.T.)";"1.0";"2";"1";"1";"2";"1";"1";"2014-10-06 13:35:01.190";"2014-10-06 13:48:19.581";"1";"1";"1";"35";"34";"module.training_block1.exec-7358.GoNoGo1";;;;;;;;;;;;;;;;;;;;;;;"1245";"2014-10-06 13:37:35.300";"NST_correctLoc";"35";"1";"FINISHED";"RIGHT";"success";"710";"0";"2014-10-06 13:37:34.050";"3";;;;;;;;;;;;;;;;;;;;;;;;;;;;;;;;;;;;;;;;;;;;;;;;;;;;;;;;;
"psychem";"1995";;"Windows 7";"Rachel's Experiment (D.T.)";"1.0";"2";"1";"1";"2";"1";"1";"2014-10-06 13:35:01.190";"2014-10-06 13:48:19.581";"1";"1";"1";"36";"35";"module.training_block1.exec-7358.GoNoGo1";;;;;;;;;;;;;;;;;;;;;;;"1248";"2014-10-06 13:37:37.815";"NST_correctLoc";"13";"1";"FINISHED";"RIGHT";"success";"709";"0";"2014-10-06 13:37:36.565";"2";;;;;;;;;;;;;;;;;;;;;;;;;;;;;;;;;;;;;;;;;;;;;;;;;;;;;;;;;
"psychem";"1995";;"Windows 7";"Rachel's Experiment (D.T.)";"1.0";"2";"1";"1";"2";"1";"1";"2014-10-06 13:35:01.190";"2014-10-06 13:48:19.581";"1";"1";"1";"37";"36";"module.training_block1.exec-7358.GoNoGo1";;;;;;;;;;;;;;;;;;;;;;;"1248";"2014-10-06 13:37:40.331";"NST_correctLoc";"14";"1";"FINISHED";"RIGHT";"success";"514";"0";"2014-10-06 13:37:39.081";"2";;;;;;;;;;;;;;;;;;;;;;;;;;;;;;;;;;;;;;;;;;;;;;;;;;;;;;;;;
"psychem";"1995";;"Windows 7";"Rachel's Experiment (D.T.)";"1.0";"2";"1";"1";"2";"1";"1";"2014-10-06 13:35:01.190";"2014-10-06 13:48:19.581";"1";"1";"1";"38";"37";"module.training_block1.exec-7358.GoNoGo1";;;;;;;;;;;;;;;;;;;;;;;"1248";"2014-10-06 13:37:42.846";"NST_correctLoc";"34";"1";"FINISHED";"RIGHT";"success";"446";"0";"2014-10-06 13:37:41.596";"3";;;;;;;;;;;;;;;;;;;;;;;;;;;;;;;;;;;;;;;;;;;;;;;;;;;;;;;;;
"psychem";"1995";;"Windows 7";"Rachel's Experiment (D.T.)";"1.0";"2";"1";"1";"2";"1";"1";"2014-10-06 13:35:01.190";"2014-10-06 13:48:19.581";"1";"1";"1";"39";"38";"module.training_block1.exec-7358.GoNoGo1";;;;;;;;;;;;;;;;;;;;;;;"1244";"2014-10-06 13:37:45.362";"ST_correctStop";"25";"0";"FINISHED";"NONE";"success";"0";"1";"2014-10-06 13:37:44.112";"3";;;;;;;;;;;;;;;;;;;;;;;;;;;;;;;;;;;;;;;;;;;;;;;;;;;;;;;;;
"psychem";"1995";;"Windows 7";"Rachel's Experiment (D.T.)";"1.0";"2";"1";"1";"2";"1";"1";"2014-10-06 13:35:01.190";"2014-10-06 13:48:19.581";"1";"1";"1";"40";"39";"module.training_block1.exec-7358.GoNoGo1";;;;;;;;;;;;;;;;;;;;;;;"1244";"2014-10-06 13:37:47.878";"NST_correctLoc";"17";"0";"FINISHED";"LEFT";"success";"451";"0";"2014-10-06 13:37:46.628";"2";;;;;;;;;;;;;;;;;;;;;;;;;;;;;;;;;;;;;;;;;;;;;;;;;;;;;;;;;
"psychem";"1995";;"Windows 7";"Rachel's Experiment (D.T.)";"1.0";"2";"1";"1";"2";"1";"1";"2014-10-06 13:35:01.190";"2014-10-06 13:48:19.581";"1";"1";"1";"41";"40";"module.training_block1.exec-7358.GoNoGo1";;;;;;;;;;;;;;;;;;;;;;;"1244";"2014-10-06 13:37:50.393";"ST_correctStop";"31";"1";"FINISHED";"NONE";"success";"0";"1";"2014-10-06 13:37:49.143";"3";;;;;;;;;;;;;;;;;;;;;;;;;;;;;;;;;;;;;;;;;;;;;;;;;;;;;;;;;
"psychem";"1995";;"Windows 7";"Rachel's Experiment (D.T.)";"1.0";"2";"1";"1";"2";"1";"1";"2014-10-06 13:35:01.190";"2014-10-06 13:48:19.581";"1";"1";"1";"42";"41";"module.training_block1.exec-7358.GoNoGo1";;;;;;;;;;;;;;;;;;;;;;;"1244";"2014-10-06 13:37:52.909";"ST_correctStop";"32";"1";"FINISHED";"NONE";"success";"0";"1";"2014-10-06 13:37:51.659";"3";;;;;;;;;;;;;;;;;;;;;;;;;;;;;;;;;;;;;;;;;;;;;;;;;;;;;;;;;
"psychem";"1995";;"Windows 7";"Rachel's Experiment (D.T.)";"1.0";"2";"1";"1";"2";"1";"1";"2014-10-06 13:35:01.190";"2014-10-06 13:48:19.581";"1";"1";"1";"43";"42";"module.training_block1.exec-7358.GoNoGo1";;;;;;;;;;;;;;;;;;;;;;;"1248";"2014-10-06 13:37:55.425";"ST_correctStop";"21";"1";"FINISHED";"NONE";"success";"0";"1";"2014-10-06 13:37:54.175";"3";;;;;;;;;;;;;;;;;;;;;;;;;;;;;;;;;;;;;;;;;;;;;;;;;;;;;;;;;
"psychem";"1995";;"Windows 7";"Rachel's Experiment (D.T.)";"1.0";"2";"1";"1";"2";"1";"1";"2014-10-06 13:35:01.190";"2014-10-06 13:48:19.581";"1";"1";"1";"44";"43";"module.training_block1.exec-7358.GoNoGo1";;;;;;;;;;;;;;;;;;;;;;;"1244";"2014-10-06 13:37:57.940";"NST_correctLoc";"19";"1";"FINISHED";"RIGHT";"success";"595";"0";"2014-10-06 13:37:56.690";"3";;;;;;;;;;;;;;;;;;;;;;;;;;;;;;;;;;;;;;;;;;;;;;;;;;;;;;;;;
"psychem";"1995";;"Windows 7";"Rachel's Experiment (D.T.)";"1.0";"2";"1";"1";"2";"1";"1";"2014-10-06 13:35:01.190";"2014-10-06 13:48:19.581";"1";"1";"1";"45";"44";"module.training_block1.exec-7358.GoNoGo1";;;;;;;;;;;;;;;;;;;;;;;"1245";"2014-10-06 13:38:00.456";"NST_correctLoc";"16";"1";"FINISHED";"RIGHT";"success";"625";"0";"2014-10-06 13:37:59.206";"2";;;;;;;;;;;;;;;;;;;;;;;;;;;;;;;;;;;;;;;;;;;;;;;;;;;;;;;;;
"psychem";"1995";;"Windows 7";"Rachel's Experiment (D.T.)";"1.0";"2";"1";"1";"2";"1";"1";"2014-10-06 13:35:01.190";"2014-10-06 13:48:19.581";"1";"1";"1";"46";"45";"module.training_block1.exec-7358.GoNoGo1";;;;;;;;;;;;;;;;;;;;;;;"1248";"2014-10-06 13:38:02.971";"ST_correctStop";"3";"0";"FINISHED";"NONE";"success";"0";"1";"2014-10-06 13:38:01.721";"1";;;;;;;;;;;;;;;;;;;;;;;;;;;;;;;;;;;;;;;;;;;;;;;;;;;;;;;;;
"psychem";"1995";;"Windows 7";"Rachel's Experiment (D.T.)";"1.0";"2";"1";"1";"2";"1";"1";"2014-10-06 13:35:01.190";"2014-10-06 13:48:19.581";"1";"1";"1";"47";"46";"module.training_block1.exec-7358.GoNoGo1";;;;;;;;;;;;;;;;;;;;;;;"1245";"2014-10-06 13:38:05.487";"ST_correctStop";"1";"0";"FINISHED";"NONE";"success";"0";"1";"2014-10-06 13:38:04.237";"1";;;;;;;;;;;;;;;;;;;;;;;;;;;;;;;;;;;;;;;;;;;;;;;;;;;;;;;;;
"psychem";"1995";;"Windows 7";"Rachel's Experiment (D.T.)";"1.0";"2";"1";"1";"2";"1";"1";"2014-10-06 13:35:01.190";"2014-10-06 13:48:19.581";"1";"1";"1";"48";"47";"module.training_block1.exec-7358.GoNoGo1";;;;;;;;;;;;;;;;;;;;;;;"1245";"2014-10-06 13:38:08.003";"NST_correctLoc";"22";"0";"FINISHED";"LEFT";"success";"646";"0";"2014-10-06 13:38:06.753";"3";;;;;;;;;;;;;;;;;;;;;;;;;;;;;;;;;;;;;;;;;;;;;;;;;;;;;;;;;
"psychem";"1995";;"Windows 7";"Rachel's Experiment (D.T.)";"1.0";"2";"1";"1";"2";"1";"1";"2014-10-06 13:35:01.190";"2014-10-06 13:48:19.581";"1";"1";"1";"49";"48";"module.training_block1.exec-7358.GoNoGo1";;;;;;;;;;;;;;;;;;;;;;;"1245";"2014-10-06 13:38:10.518";"NST_correctLoc";"10";"0";"FINISHED";"LEFT";"success";"450";"0";"2014-10-06 13:38:09.268";"2";;;;;;;;;;;;;;;;;;;;;;;;;;;;;;;;;;;;;;;;;;;;;;;;;;;;;;;;;
"psychem";"1995";;"Windows 7";"Rachel's Experiment (D.T.)";"1.0";"2";"1";"1";"2";"1";"1";"2014-10-06 13:35:01.190";"2014-10-06 13:48:19.581";"1";"1";"1";"50";"49";"module.training_block1.exec-7358.GoNoGo1";;;;;;;;;;;;;;;;;;;;;;;"1248";"2014-10-06 13:38:13.034";"NST_correctLoc";"27";"0";"FINISHED";"LEFT";"success";"418";"0";"2014-10-06 13:38:11.784";"3";;;;;;;;;;;;;;;;;;;;;;;;;;;;;;;;;;;;;;;;;;;;;;;;;;;;;;;;;
"psychem";"1995";;"Windows 7";"Rachel's Experiment (D.T.)";"1.0";"2";"1";"1";"2";"1";"1";"2014-10-06 13:35:01.190";"2014-10-06 13:48:19.581";"1";"1";"1";"51";"50";"module.training_block1.exec-7358.GoNoGo1";;;;;;;;;;;;;;;;;;;;;;;"1244";"2014-10-06 13:38:15.550";"ST_correctStop";"28";"1";"FINISHED";"NONE";"success";"0";"1";"2014-10-06 13:38:14.300";"3";;;;;;;;;;;;;;;;;;;;;;;;;;;;;;;;;;;;;;;;;;;;;;;;;;;;;;;;;
"psychem";"1995";;"Windows 7";"Rachel's Experiment (D.T.)";"1.0";"2";"1";"1";"2";"1";"1";"2014-10-06 13:35:01.190";"2014-10-06 13:48:19.581";"1";"1";"1";"52";"51";"module.training_block2.exec-7447.GoNoGo2";;;;;;;;;;;;;;;;;;;;;;;;;;;;;;;;;;;"1248";"2014-10-06 13:38:27.878";"NST_correctLoc";"11";"1";"FINISHED";"RIGHT";"success";"581";"0";"2014-10-06 13:38:26.628";"2";;;;;;;;;;;;;;;;;;;;;;;;;;;;;;;;;;;;;;;;;;;;;
"psychem";"1995";;"Windows 7";"Rachel's Experiment (D.T.)";"1.0";"2";"1";"1";"2";"1";"1";"2014-10-06 13:35:01.190";"2014-10-06 13:48:19.581";"1";"1";"1";"53";"52";"module.training_block2.exec-7447.GoNoGo2";;;;;;;;;;;;;;;;;;;;;;;;;;;;;;;;;;;"1248";"2014-10-06 13:38:30.393";"ST_correctStop";"31";"1";"FINISHED";"NONE";"success";"0";"1";"2014-10-06 13:38:29.143";"3";;;;;;;;;;;;;;;;;;;;;;;;;;;;;;;;;;;;;;;;;;;;;
"psychem";"1995";;"Windows 7";"Rachel's Experiment (D.T.)";"1.0";"2";"1";"1";"2";"1";"1";"2014-10-06 13:35:01.190";"2014-10-06 13:48:19.581";"1";"1";"1";"54";"53";"module.training_block2.exec-7447.GoNoGo2";;;;;;;;;;;;;;;;;;;;;;;;;;;;;;;;;;;"1248";"2014-10-06 13:38:32.909";"NST_correctLoc";"9";"1";"FINISHED";"RIGHT";"success";"606";"0";"2014-10-06 13:38:31.659";"2";;;;;;;;;;;;;;;;;;;;;;;;;;;;;;;;;;;;;;;;;;;;;
"psychem";"1995";;"Windows 7";"Rachel's Experiment (D.T.)";"1.0";"2";"1";"1";"2";"1";"1";"2014-10-06 13:35:01.190";"2014-10-06 13:48:19.581";"1";"1";"1";"55";"54";"module.training_block2.exec-7447.GoNoGo2";;;;;;;;;;;;;;;;;;;;;;;;;;;;;;;;;;;"1248";"2014-10-06 13:38:35.425";"NST_correctLoc";"15";"0";"FINISHED";"LEFT";"success";"442";"0";"2014-10-06 13:38:34.175";"2";;;;;;;;;;;;;;;;;;;;;;;;;;;;;;;;;;;;;;;;;;;;;
"psychem";"1995";;"Windows 7";"Rachel's Experiment (D.T.)";"1.0";"2";"1";"1";"2";"1";"1";"2014-10-06 13:35:01.190";"2014-10-06 13:48:19.581";"1";"1";"1";"56";"55";"module.training_block2.exec-7447.GoNoGo2";;;;;;;;;;;;;;;;;;;;;;;;;;;;;;;;;;;"1243";"2014-10-06 13:38:38.065";"ST_correctStop";"30";"0";"FINISHED";"NONE";"success";"0";"1";"2014-10-06 13:38:36.815";"3";;;;;;;;;;;;;;;;;;;;;;;;;;;;;;;;;;;;;;;;;;;;;
"psychem";"1995";;"Windows 7";"Rachel's Experiment (D.T.)";"1.0";"2";"1";"1";"2";"1";"1";"2014-10-06 13:35:01.190";"2014-10-06 13:48:19.581";"1";"1";"1";"57";"56";"module.training_block2.exec-7447.GoNoGo2";;;;;;;;;;;;;;;;;;;;;;;;;;;;;;;;;;;"1245";"2014-10-06 13:38:40.581";"ST_correctStop";"24";"0";"FINISHED";"NONE";"success";"0";"1";"2014-10-06 13:38:39.331";"3";;;;;;;;;;;;;;;;;;;;;;;;;;;;;;;;;;;;;;;;;;;;;
"psychem";"1995";;"Windows 7";"Rachel's Experiment (D.T.)";"1.0";"2";"1";"1";"2";"1";"1";"2014-10-06 13:35:01.190";"2014-10-06 13:48:19.581";"1";"1";"1";"58";"57";"module.training_block2.exec-7447.GoNoGo2";;;;;;;;;;;;;;;;;;;;;;;;;;;;;;;;;;;"1245";"2014-10-06 13:38:43.096";"ST_correctStop";"8";"0";"FINISHED";"NONE";"success";"0";"1";"2014-10-06 13:38:41.846";"1";;;;;;;;;;;;;;;;;;;;;;;;;;;;;;;;;;;;;;;;;;;;;
"psychem";"1995";;"Windows 7";"Rachel's Experiment (D.T.)";"1.0";"2";"1";"1";"2";"1";"1";"2014-10-06 13:35:01.190";"2014-10-06 13:48:19.581";"1";"1";"1";"59";"58";"module.training_block2.exec-7447.GoNoGo2";;;;;;;;;;;;;;;;;;;;;;;;;;;;;;;;;;;"1244";"2014-10-06 13:38:45.612";"ST_correctStop";"7";"1";"FINISHED";"NONE";"success";"0";"1";"2014-10-06 13:38:44.362";"1";;;;;;;;;;;;;;;;;;;;;;;;;;;;;;;;;;;;;;;;;;;;;
"psychem";"1995";;"Windows 7";"Rachel's Experiment (D.T.)";"1.0";"2";"1";"1";"2";"1";"1";"2014-10-06 13:35:01.190";"2014-10-06 13:48:19.581";"1";"1";"1";"60";"59";"module.training_block2.exec-7447.GoNoGo2";;;;;;;;;;;;;;;;;;;;;;;;;;;;;;;;;;;"1245";"2014-10-06 13:38:48.128";"ST_correctStop";"3";"0";"FINISHED";"NONE";"success";"0";"1";"2014-10-06 13:38:46.878";"1";;;;;;;;;;;;;;;;;;;;;;;;;;;;;;;;;;;;;;;;;;;;;
"psychem";"1995";;"Windows 7";"Rachel's Experiment (D.T.)";"1.0";"2";"1";"1";"2";"1";"1";"2014-10-06 13:35:01.190";"2014-10-06 13:48:19.581";"1";"1";"1";"61";"60";"module.training_block2.exec-7447.GoNoGo2";;;;;;;;;;;;;;;;;;;;;;;;;;;;;;;;;;;"1244";"2014-10-06 13:38:50.643";"ST_correctStop";"23";"0";"FINISHED";"NONE";"success";"0";"1";"2014-10-06 13:38:49.393";"3";;;;;;;;;;;;;;;;;;;;;;;;;;;;;;;;;;;;;;;;;;;;;
"psychem";"1995";;"Windows 7";"Rachel's Experiment (D.T.)";"1.0";"2";"1";"1";"2";"1";"1";"2014-10-06 13:35:01.190";"2014-10-06 13:48:19.581";"1";"1";"1";"62";"61";"module.training_block2.exec-7447.GoNoGo2";;;;;;;;;;;;;;;;;;;;;;;;;;;;;;;;;;;"1245";"2014-10-06 13:38:53.159";"ST_correctStop";"25";"1";"FINISHED";"NONE";"success";"0";"1";"2014-10-06 13:38:51.909";"3";;;;;;;;;;;;;;;;;;;;;;;;;;;;;;;;;;;;;;;;;;;;;
"psychem";"1995";;"Windows 7";"Rachel's Experiment (D.T.)";"1.0";"2";"1";"1";"2";"1";"1";"2014-10-06 13:35:01.190";"2014-10-06 13:48:19.581";"1";"1";"1";"63";"62";"module.training_block2.exec-7447.GoNoGo2";;;;;;;;;;;;;;;;;;;;;;;;;;;;;;;;;;;"1245";"2014-10-06 13:38:55.675";"ST_correctStop";"20";"1";"FINISHED";"NONE";"success";"0";"1";"2014-10-06 13:38:54.425";"3";;;;;;;;;;;;;;;;;;;;;;;;;;;;;;;;;;;;;;;;;;;;;
"psychem";"1995";;"Windows 7";"Rachel's Experiment (D.T.)";"1.0";"2";"1";"1";"2";"1";"1";"2014-10-06 13:35:01.190";"2014-10-06 13:48:19.581";"1";"1";"1";"64";"63";"module.training_block2.exec-7447.GoNoGo2";;;;;;;;;;;;;;;;;;;;;;;;;;;;;;;;;;;"1244";"2014-10-06 13:38:58.190";"NST_correctLoc";"17";"0";"FINISHED";"LEFT";"success";"456";"0";"2014-10-06 13:38:56.940";"2";;;;;;;;;;;;;;;;;;;;;;;;;;;;;;;;;;;;;;;;;;;;;
"psychem";"1995";;"Windows 7";"Rachel's Experiment (D.T.)";"1.0";"2";"1";"1";"2";"1";"1";"2014-10-06 13:35:01.190";"2014-10-06 13:48:19.581";"1";"1";"1";"65";"64";"module.training_block2.exec-7447.GoNoGo2";;;;;;;;;;;;;;;;;;;;;;;;;;;;;;;;;;;"1244";"2014-10-06 13:39:00.706";"NST_correctLoc";"26";"1";"FINISHED";"RIGHT";"success";"597";"0";"2014-10-06 13:38:59.456";"3";;;;;;;;;;;;;;;;;;;;;;;;;;;;;;;;;;;;;;;;;;;;;
"psychem";"1995";;"Windows 7";"Rachel's Experiment (D.T.)";"1.0";"2";"1";"1";"2";"1";"1";"2014-10-06 13:35:01.190";"2014-10-06 13:48:19.581";"1";"1";"1";"66";"65";"module.training_block2.exec-7447.GoNoGo2";;;;;;;;;;;;;;;;;;;;;;;;;;;;;;;;;;;"1245";"2014-10-06 13:39:03.206";"NST_correctLoc";"35";"0";"FINISHED";"LEFT";"success";"481";"0";"2014-10-06 13:39:01.956";"3";;;;;;;;;;;;;;;;;;;;;;;;;;;;;;;;;;;;;;;;;;;;;
"psychem";"1995";;"Windows 7";"Rachel's Experiment (D.T.)";"1.0";"2";"1";"1";"2";"1";"1";"2014-10-06 13:35:01.190";"2014-10-06 13:48:19.581";"1";"1";"1";"67";"66";"module.training_block2.exec-7447.GoNoGo2";;;;;;;;;;;;;;;;;;;;;;;;;;;;;;;;;;;"1245";"2014-10-06 13:39:05.706";"NST_correctLoc";"33";"1";"FINISHED";"RIGHT";"success";"381";"0";"2014-10-06 13:39:04.456";"3";;;;;;;;;;;;;;;;;;;;;;;;;;;;;;;;;;;;;;;;;;;;;
"psychem";"1995";;"Windows 7";"Rachel's Experiment (D.T.)";"1.0";"2";"1";"1";"2";"1";"1";"2014-10-06 13:35:01.190";"2014-10-06 13:48:19.581";"1";"1";"1";"68";"67";"module.training_block2.exec-7447.GoNoGo2";;;;;;;;;;;;;;;;;;;;;;;;;;;;;;;;;;;"1245";"2014-10-06 13:39:08.206";"NST_correctLoc";"14";"1";"FINISHED";"RIGHT";"success";"361";"0";"2014-10-06 13:39:06.956";"2";;;;;;;;;;;;;;;;;;;;;;;;;;;;;;;;;;;;;;;;;;;;;
"psychem";"1995";;"Windows 7";"Rachel's Experiment (D.T.)";"1.0";"2";"1";"1";"2";"1";"1";"2014-10-06 13:35:01.190";"2014-10-06 13:48:19.581";"1";"1";"1";"69";"68";"module.training_block2.exec-7447.GoNoGo2";;;;;;;;;;;;;;;;;;;;;;;;;;;;;;;;;;;"1245";"2014-10-06 13:39:10.706";"ST_correctStop";"32";"0";"FINISHED";"NONE";"success";"0";"1";"2014-10-06 13:39:09.456";"3";;;;;;;;;;;;;;;;;;;;;;;;;;;;;;;;;;;;;;;;;;;;;
"psychem";"1995";;"Windows 7";"Rachel's Experiment (D.T.)";"1.0";"2";"1";"1";"2";"1";"1";"2014-10-06 13:35:01.190";"2014-10-06 13:48:19.581";"1";"1";"1";"70";"69";"module.training_block2.exec-7447.GoNoGo2";;;;;;;;;;;;;;;;;;;;;;;;;;;;;;;;;;;"1244";"2014-10-06 13:39:13.206";"ST_correctStop";"6";"0";"FINISHED";"NONE";"success";"0";"1";"2014-10-06 13:39:11.956";"1";;;;;;;;;;;;;;;;;;;;;;;;;;;;;;;;;;;;;;;;;;;;;
"psychem";"1995";;"Windows 7";"Rachel's Experiment (D.T.)";"1.0";"2";"1";"1";"2";"1";"1";"2014-10-06 13:35:01.190";"2014-10-06 13:48:19.581";"1";"1";"1";"71";"70";"module.training_block2.exec-7447.GoNoGo2";;;;;;;;;;;;;;;;;;;;;;;;;;;;;;;;;;;"1244";"2014-10-06 13:39:15.706";"ST_correctStop";"2";"0";"FINISHED";"NONE";"success";"0";"1";"2014-10-06 13:39:14.456";"1";;;;;;;;;;;;;;;;;;;;;;;;;;;;;;;;;;;;;;;;;;;;;
"psychem";"1995";;"Windows 7";"Rachel's Experiment (D.T.)";"1.0";"2";"1";"1";"2";"1";"1";"2014-10-06 13:35:01.190";"2014-10-06 13:48:19.581";"1";"1";"1";"72";"71";"module.training_block2.exec-7447.GoNoGo2";;;;;;;;;;;;;;;;;;;;;;;;;;;;;;;;;;;"1240";"2014-10-06 13:39:18.206";"ST_correctStop";"27";"0";"FINISHED";"NONE";"success";"0";"1";"2014-10-06 13:39:16.956";"3";;;;;;;;;;;;;;;;;;;;;;;;;;;;;;;;;;;;;;;;;;;;;
"psychem";"1995";;"Windows 7";"Rachel's Experiment (D.T.)";"1.0";"2";"1";"1";"2";"1";"1";"2014-10-06 13:35:01.190";"2014-10-06 13:48:19.581";"1";"1";"1";"73";"72";"module.training_block2.exec-7447.GoNoGo2";;;;;;;;;;;;;;;;;;;;;;;;;;;;;;;;;;;"1245";"2014-10-06 13:39:20.706";"NST_correctLoc";"34";"0";"FINISHED";"LEFT";"success";"981";"0";"2014-10-06 13:39:19.456";"3";;;;;;;;;;;;;;;;;;;;;;;;;;;;;;;;;;;;;;;;;;;;;
"psychem";"1995";;"Windows 7";"Rachel's Experiment (D.T.)";"1.0";"2";"1";"1";"2";"1";"1";"2014-10-06 13:35:01.190";"2014-10-06 13:48:19.581";"1";"1";"1";"74";"73";"module.training_block2.exec-7447.GoNoGo2";;;;;;;;;;;;;;;;;;;;;;;;;;;;;;;;;;;"1244";"2014-10-06 13:39:23.206";"NST_correctLoc";"10";"1";"FINISHED";"RIGHT";"success";"480";"0";"2014-10-06 13:39:21.956";"2";;;;;;;;;;;;;;;;;;;;;;;;;;;;;;;;;;;;;;;;;;;;;
"psychem";"1995";;"Windows 7";"Rachel's Experiment (D.T.)";"1.0";"2";"1";"1";"2";"1";"1";"2014-10-06 13:35:01.190";"2014-10-06 13:48:19.581";"1";"1";"1";"75";"74";"module.training_block2.exec-7447.GoNoGo2";;;;;;;;;;;;;;;;;;;;;;;;;;;;;;;;;;;"1245";"2014-10-06 13:39:25.706";"NST_correctLoc";"22";"1";"FINISHED";"RIGHT";"success";"588";"0";"2014-10-06 13:39:24.456";"3";;;;;;;;;;;;;;;;;;;;;;;;;;;;;;;;;;;;;;;;;;;;;
"psychem";"1995";;"Windows 7";"Rachel's Experiment (D.T.)";"1.0";"2";"1";"1";"2";"1";"1";"2014-10-06 13:35:01.190";"2014-10-06 13:48:19.581";"1";"1";"1";"76";"75";"module.training_block2.exec-7447.GoNoGo2";;;;;;;;;;;;;;;;;;;;;;;;;;;;;;;;;;;"1245";"2014-10-06 13:39:28.206";"ST_failedStop";"1";"0";"FINISHED";"LEFT";"failure";"585";"1";"2014-10-06 13:39:26.956";"1";;;;;;;;;;;;;;;;;;;;;;;;;;;;;;;;;;;;;;;;;;;;;
"psychem";"1995";;"Windows 7";"Rachel's Experiment (D.T.)";"1.0";"2";"1";"1";"2";"1";"1";"2014-10-06 13:35:01.190";"2014-10-06 13:48:19.581";"1";"1";"1";"77";"76";"module.training_block2.exec-7447.GoNoGo2";;;;;;;;;;;;;;;;;;;;;;;;;;;;;;;;;;;"1244";"2014-10-06 13:39:30.721";"ST_correctStop";"4";"0";"FINISHED";"NONE";"success";"0";"1";"2014-10-06 13:39:29.471";"1";;;;;;;;;;;;;;;;;;;;;;;;;;;;;;;;;;;;;;;;;;;;;
"psychem";"1995";;"Windows 7";"Rachel's Experiment (D.T.)";"1.0";"2";"1";"1";"2";"1";"1";"2014-10-06 13:35:01.190";"2014-10-06 13:48:19.581";"1";"1";"1";"78";"77";"module.training_block2.exec-7447.GoNoGo2";;;;;;;;;;;;;;;;;;;;;;;;;;;;;;;;;;;"1245";"2014-10-06 13:39:33.221";"NST_correctLoc";"18";"1";"FINISHED";"RIGHT";"success";"513";"0";"2014-10-06 13:39:31.971";"3";;;;;;;;;;;;;;;;;;;;;;;;;;;;;;;;;;;;;;;;;;;;;
"psychem";"1995";;"Windows 7";"Rachel's Experiment (D.T.)";"1.0";"2";"1";"1";"2";"1";"1";"2014-10-06 13:35:01.190";"2014-10-06 13:48:19.581";"1";"1";"1";"79";"78";"module.training_block2.exec-7447.GoNoGo2";;;;;;;;;;;;;;;;;;;;;;;;;;;;;;;;;;;"1244";"2014-10-06 13:39:35.721";"NST_correctLoc";"13";"1";"FINISHED";"RIGHT";"success";"636";"0";"2014-10-06 13:39:34.471";"2";;;;;;;;;;;;;;;;;;;;;;;;;;;;;;;;;;;;;;;;;;;;;
"psychem";"1995";;"Windows 7";"Rachel's Experiment (D.T.)";"1.0";"2";"1";"1";"2";"1";"1";"2014-10-06 13:35:01.190";"2014-10-06 13:48:19.581";"1";"1";"1";"80";"79";"module.training_block2.exec-7447.GoNoGo2";;;;;;;;;;;;;;;;;;;;;;;;;;;;;;;;;;;"1245";"2014-10-06 13:39:38.221";"ST_correctStop";"29";"1";"FINISHED";"NONE";"success";"0";"1";"2014-10-06 13:39:36.971";"3";;;;;;;;;;;;;;;;;;;;;;;;;;;;;;;;;;;;;;;;;;;;;
"psychem";"1995";;"Windows 7";"Rachel's Experiment (D.T.)";"1.0";"2";"1";"1";"2";"1";"1";"2014-10-06 13:35:01.190";"2014-10-06 13:48:19.581";"1";"1";"1";"81";"80";"module.training_block2.exec-7447.GoNoGo2";;;;;;;;;;;;;;;;;;;;;;;;;;;;;;;;;;;"1245";"2014-10-06 13:39:40.721";"NST_correctLoc";"19";"1";"FINISHED";"RIGHT";"success";"548";"0";"2014-10-06 13:39:39.471";"3";;;;;;;;;;;;;;;;;;;;;;;;;;;;;;;;;;;;;;;;;;;;;
"psychem";"1995";;"Windows 7";"Rachel's Experiment (D.T.)";"1.0";"2";"1";"1";"2";"1";"1";"2014-10-06 13:35:01.190";"2014-10-06 13:48:19.581";"1";"1";"1";"82";"81";"module.training_block2.exec-7447.GoNoGo2";;;;;;;;;;;;;;;;;;;;;;;;;;;;;;;;;;;"1245";"2014-10-06 13:39:43.221";"NST_correctLoc";"21";"0";"FINISHED";"LEFT";"success";"576";"0";"2014-10-06 13:39:41.971";"3";;;;;;;;;;;;;;;;;;;;;;;;;;;;;;;;;;;;;;;;;;;;;
"psychem";"1995";;"Windows 7";"Rachel's Experiment (D.T.)";"1.0";"2";"1";"1";"2";"1";"1";"2014-10-06 13:35:01.190";"2014-10-06 13:48:19.581";"1";"1";"1";"83";"82";"module.training_block2.exec-7447.GoNoGo2";;;;;;;;;;;;;;;;;;;;;;;;;;;;;;;;;;;"1248";"2014-10-06 13:39:45.721";"NST_correctLoc";"28";"1";"FINISHED";"RIGHT";"success";"559";"0";"2014-10-06 13:39:44.471";"3";;;;;;;;;;;;;;;;;;;;;;;;;;;;;;;;;;;;;;;;;;;;;
"psychem";"1995";;"Windows 7";"Rachel's Experiment (D.T.)";"1.0";"2";"1";"1";"2";"1";"1";"2014-10-06 13:35:01.190";"2014-10-06 13:48:19.581";"1";"1";"1";"84";"83";"module.training_block2.exec-7447.GoNoGo2";;;;;;;;;;;;;;;;;;;;;;;;;;;;;;;;;;;"1244";"2014-10-06 13:39:48.221";"ST_correctStop";"0";"0";"FINISHED";"NONE";"success";"0";"1";"2014-10-06 13:39:46.971";"1";;;;;;;;;;;;;;;;;;;;;;;;;;;;;;;;;;;;;;;;;;;;;
"psychem";"1995";;"Windows 7";"Rachel's Experiment (D.T.)";"1.0";"2";"1";"1";"2";"1";"1";"2014-10-06 13:35:01.190";"2014-10-06 13:48:19.581";"1";"1";"1";"85";"84";"module.training_block2.exec-7447.GoNoGo2";;;;;;;;;;;;;;;;;;;;;;;;;;;;;;;;;;;"1245";"2014-10-06 13:39:50.721";"ST_correctStop";"5";"0";"FINISHED";"NONE";"success";"0";"1";"2014-10-06 13:39:49.471";"1";;;;;;;;;;;;;;;;;;;;;;;;;;;;;;;;;;;;;;;;;;;;;
"psychem";"1995";;"Windows 7";"Rachel's Experiment (D.T.)";"1.0";"2";"1";"1";"2";"1";"1";"2014-10-06 13:35:01.190";"2014-10-06 13:48:19.581";"1";"1";"1";"86";"85";"module.training_block2.exec-7447.GoNoGo2";;;;;;;;;;;;;;;;;;;;;;;;;;;;;;;;;;;"1245";"2014-10-06 13:39:53.221";"NST_correctLoc";"12";"0";"FINISHED";"LEFT";"success";"464";"0";"2014-10-06 13:39:51.971";"2";;;;;;;;;;;;;;;;;;;;;;;;;;;;;;;;;;;;;;;;;;;;;
"psychem";"1995";;"Windows 7";"Rachel's Experiment (D.T.)";"1.0";"2";"1";"1";"2";"1";"1";"2014-10-06 13:35:01.190";"2014-10-06 13:48:19.581";"1";"1";"1";"87";"86";"module.training_block2.exec-7447.GoNoGo2";;;;;;;;;;;;;;;;;;;;;;;;;;;;;;;;;;;"1245";"2014-10-06 13:39:55.721";"NST_correctLoc";"16";"0";"FINISHED";"LEFT";"success";"524";"0";"2014-10-06 13:39:54.471";"2";;;;;;;;;;;;;;;;;;;;;;;;;;;;;;;;;;;;;;;;;;;;;
"psychem";"1995";;"Windows 7";"Rachel's Experiment (D.T.)";"1.0";"2";"1";"1";"2";"1";"1";"2014-10-06 13:35:01.190";"2014-10-06 13:48:19.581";"1";"1";"1";"88";"87";"module.training_block3.exec-7170.GoNoGo3";;;;;;;;;;;;;;;;;;;;;;;;;;;;;;;;;;;;;;;;;;;;;;;"1248";"2014-10-06 13:40:06.596";"NST_correctLoc";"15";"0";"FINISHED";"LEFT";"success";"356";"0";"2014-10-06 13:40:05.346";"2";;;;;;;;;;;;;;;;;;;;;;;;;;;;;;;;;
"psychem";"1995";;"Windows 7";"Rachel's Experiment (D.T.)";"1.0";"2";"1";"1";"2";"1";"1";"2014-10-06 13:35:01.190";"2014-10-06 13:48:19.581";"1";"1";"1";"89";"88";"module.training_block3.exec-7170.GoNoGo3";;;;;;;;;;;;;;;;;;;;;;;;;;;;;;;;;;;;;;;;;;;;;;;"1248";"2014-10-06 13:40:09.112";"NST_correctLoc";"34";"0";"FINISHED";"LEFT";"success";"368";"0";"2014-10-06 13:40:07.862";"3";;;;;;;;;;;;;;;;;;;;;;;;;;;;;;;;;
"psychem";"1995";;"Windows 7";"Rachel's Experiment (D.T.)";"1.0";"2";"1";"1";"2";"1";"1";"2014-10-06 13:35:01.190";"2014-10-06 13:48:19.581";"1";"1";"1";"90";"89";"module.training_block3.exec-7170.GoNoGo3";;;;;;;;;;;;;;;;;;;;;;;;;;;;;;;;;;;;;;;;;;;;;;;"1248";"2014-10-06 13:40:11.612";"ST_correctStop";"26";"1";"FINISHED";"NONE";"success";"0";"1";"2014-10-06 13:40:10.362";"3";;;;;;;;;;;;;;;;;;;;;;;;;;;;;;;;;
"psychem";"1995";;"Windows 7";"Rachel's Experiment (D.T.)";"1.0";"2";"1";"1";"2";"1";"1";"2014-10-06 13:35:01.190";"2014-10-06 13:48:19.581";"1";"1";"1";"91";"90";"module.training_block3.exec-7170.GoNoGo3";;;;;;;;;;;;;;;;;;;;;;;;;;;;;;;;;;;;;;;;;;;;;;;"1248";"2014-10-06 13:40:14.112";"ST_correctStop";"7";"1";"FINISHED";"NONE";"success";"0";"1";"2014-10-06 13:40:12.862";"1";;;;;;;;;;;;;;;;;;;;;;;;;;;;;;;;;
"psychem";"1995";;"Windows 7";"Rachel's Experiment (D.T.)";"1.0";"2";"1";"1";"2";"1";"1";"2014-10-06 13:35:01.190";"2014-10-06 13:48:19.581";"1";"1";"1";"92";"91";"module.training_block3.exec-7170.GoNoGo3";;;;;;;;;;;;;;;;;;;;;;;;;;;;;;;;;;;;;;;;;;;;;;;"1248";"2014-10-06 13:40:16.612";"NST_correctLoc";"24";"1";"FINISHED";"RIGHT";"success";"404";"0";"2014-10-06 13:40:15.362";"3";;;;;;;;;;;;;;;;;;;;;;;;;;;;;;;;;
"psychem";"1995";;"Windows 7";"Rachel's Experiment (D.T.)";"1.0";"2";"1";"1";"2";"1";"1";"2014-10-06 13:35:01.190";"2014-10-06 13:48:19.581";"1";"1";"1";"93";"92";"module.training_block3.exec-7170.GoNoGo3";;;;;;;;;;;;;;;;;;;;;;;;;;;;;;;;;;;;;;;;;;;;;;;"1248";"2014-10-06 13:40:19.112";"ST_correctStop";"8";"0";"FINISHED";"NONE";"success";"0";"1";"2014-10-06 13:40:17.862";"1";;;;;;;;;;;;;;;;;;;;;;;;;;;;;;;;;
"psychem";"1995";;"Windows 7";"Rachel's Experiment (D.T.)";"1.0";"2";"1";"1";"2";"1";"1";"2014-10-06 13:35:01.190";"2014-10-06 13:48:19.581";"1";"1";"1";"94";"93";"module.training_block3.exec-7170.GoNoGo3";;;;;;;;;;;;;;;;;;;;;;;;;;;;;;;;;;;;;;;;;;;;;;;"1248";"2014-10-06 13:40:21.612";"ST_correctStop";"1";"1";"FINISHED";"NONE";"success";"0";"1";"2014-10-06 13:40:20.362";"1";;;;;;;;;;;;;;;;;;;;;;;;;;;;;;;;;
"psychem";"1995";;"Windows 7";"Rachel's Experiment (D.T.)";"1.0";"2";"1";"1";"2";"1";"1";"2014-10-06 13:35:01.190";"2014-10-06 13:48:19.581";"1";"1";"1";"95";"94";"module.training_block3.exec-7170.GoNoGo3";;;;;;;;;;;;;;;;;;;;;;;;;;;;;;;;;;;;;;;;;;;;;;;"1248";"2014-10-06 13:40:24.112";"NST_correctLoc";"10";"0";"FINISHED";"LEFT";"success";"695";"0";"2014-10-06 13:40:22.862";"2";;;;;;;;;;;;;;;;;;;;;;;;;;;;;;;;;
"psychem";"1995";;"Windows 7";"Rachel's Experiment (D.T.)";"1.0";"2";"1";"1";"2";"1";"1";"2014-10-06 13:35:01.190";"2014-10-06 13:48:19.581";"1";"1";"1";"96";"95";"module.training_block3.exec-7170.GoNoGo3";;;;;;;;;;;;;;;;;;;;;;;;;;;;;;;;;;;;;;;;;;;;;;;"1248";"2014-10-06 13:40:26.612";"NST_correctLoc";"28";"0";"FINISHED";"LEFT";"success";"723";"0";"2014-10-06 13:40:25.362";"3";;;;;;;;;;;;;;;;;;;;;;;;;;;;;;;;;
"psychem";"1995";;"Windows 7";"Rachel's Experiment (D.T.)";"1.0";"2";"1";"1";"2";"1";"1";"2014-10-06 13:35:01.190";"2014-10-06 13:48:19.581";"1";"1";"1";"97";"96";"module.training_block3.exec-7170.GoNoGo3";;;;;;;;;;;;;;;;;;;;;;;;;;;;;;;;;;;;;;;;;;;;;;;"1248";"2014-10-06 13:40:29.112";"ST_correctStop";"2";"0";"FINISHED";"NONE";"success";"0";"1";"2014-10-06 13:40:27.862";"1";;;;;;;;;;;;;;;;;;;;;;;;;;;;;;;;;
"psychem";"1995";;"Windows 7";"Rachel's Experiment (D.T.)";"1.0";"2";"1";"1";"2";"1";"1";"2014-10-06 13:35:01.190";"2014-10-06 13:48:19.581";"1";"1";"1";"98";"97";"module.training_block3.exec-7170.GoNoGo3";;;;;;;;;;;;;;;;;;;;;;;;;;;;;;;;;;;;;;;;;;;;;;;"1248";"2014-10-06 13:40:31.612";"NST_correctLoc";"18";"0";"FINISHED";"LEFT";"success";"427";"0";"2014-10-06 13:40:30.362";"3";;;;;;;;;;;;;;;;;;;;;;;;;;;;;;;;;
"psychem";"1995";;"Windows 7";"Rachel's Experiment (D.T.)";"1.0";"2";"1";"1";"2";"1";"1";"2014-10-06 13:35:01.190";"2014-10-06 13:48:19.581";"1";"1";"1";"99";"98";"module.training_block3.exec-7170.GoNoGo3";;;;;;;;;;;;;;;;;;;;;;;;;;;;;;;;;;;;;;;;;;;;;;;"1248";"2014-10-06 13:40:34.112";"NST_correctLoc";"22";"0";"FINISHED";"LEFT";"success";"535";"0";"2014-10-06 13:40:32.862";"3";;;;;;;;;;;;;;;;;;;;;;;;;;;;;;;;;
"psychem";"1995";;"Windows 7";"Rachel's Experiment (D.T.)";"1.0";"2";"1";"1";"2";"1";"1";"2014-10-06 13:35:01.190";"2014-10-06 13:48:19.581";"1";"1";"1";"100";"99";"module.training_block3.exec-7170.GoNoGo3";;;;;;;;;;;;;;;;;;;;;;;;;;;;;;;;;;;;;;;;;;;;;;;"1248";"2014-10-06 13:40:36.612";"ST_correctStop";"5";"0";"FINISHED";"NONE";"success";"0";"1";"2014-10-06 13:40:35.362";"1";;;;;;;;;;;;;;;;;;;;;;;;;;;;;;;;;
"psychem";"1995";;"Windows 7";"Rachel's Experiment (D.T.)";"1.0";"2";"1";"1";"2";"1";"1";"2014-10-06 13:35:01.190";"2014-10-06 13:48:19.581";"1";"1";"1";"101";"100";"module.training_block3.exec-7170.GoNoGo3";;;;;;;;;;;;;;;;;;;;;;;;;;;;;;;;;;;;;;;;;;;;;;;"1248";"2014-10-06 13:40:39.112";"ST_correctStop";"33";"0";"FINISHED";"NONE";"success";"0";"1";"2014-10-06 13:40:37.862";"3";;;;;;;;;;;;;;;;;;;;;;;;;;;;;;;;;
"psychem";"1995";;"Windows 7";"Rachel's Experiment (D.T.)";"1.0";"2";"1";"1";"2";"1";"1";"2014-10-06 13:35:01.190";"2014-10-06 13:48:19.581";"1";"1";"1";"102";"101";"module.training_block3.exec-7170.GoNoGo3";;;;;;;;;;;;;;;;;;;;;;;;;;;;;;;;;;;;;;;;;;;;;;;"1248";"2014-10-06 13:40:41.612";"NST_correctLoc";"17";"0";"FINISHED";"LEFT";"success";"475";"0";"2014-10-06 13:40:40.362";"2";;;;;;;;;;;;;;;;;;;;;;;;;;;;;;;;;
"psychem";"1995";;"Windows 7";"Rachel's Experiment (D.T.)";"1.0";"2";"1";"1";"2";"1";"1";"2014-10-06 13:35:01.190";"2014-10-06 13:48:19.581";"1";"1";"1";"103";"102";"module.training_block3.exec-7170.GoNoGo3";;;;;;;;;;;;;;;;;;;;;;;;;;;;;;;;;;;;;;;;;;;;;;;"1248";"2014-10-06 13:40:44.112";"ST_correctStop";"29";"1";"FINISHED";"NONE";"success";"0";"1";"2014-10-06 13:40:42.862";"3";;;;;;;;;;;;;;;;;;;;;;;;;;;;;;;;;
"psychem";"1995";;"Windows 7";"Rachel's Experiment (D.T.)";"1.0";"2";"1";"1";"2";"1";"1";"2014-10-06 13:35:01.190";"2014-10-06 13:48:19.581";"1";"1";"1";"104";"103";"module.training_block3.exec-7170.GoNoGo3";;;;;;;;;;;;;;;;;;;;;;;;;;;;;;;;;;;;;;;;;;;;;;;"1248";"2014-10-06 13:40:46.612";"NST_correctLoc";"14";"1";"FINISHED";"RIGHT";"success";"723";"0";"2014-10-06 13:40:45.362";"2";;;;;;;;;;;;;;;;;;;;;;;;;;;;;;;;;
"psychem";"1995";;"Windows 7";"Rachel's Experiment (D.T.)";"1.0";"2";"1";"1";"2";"1";"1";"2014-10-06 13:35:01.190";"2014-10-06 13:48:19.581";"1";"1";"1";"105";"104";"module.training_block3.exec-7170.GoNoGo3";;;;;;;;;;;;;;;;;;;;;;;;;;;;;;;;;;;;;;;;;;;;;;;"1248";"2014-10-06 13:40:49.112";"ST_correctStop";"20";"1";"FINISHED";"NONE";"success";"0";"1";"2014-10-06 13:40:47.862";"3";;;;;;;;;;;;;;;;;;;;;;;;;;;;;;;;;
"psychem";"1995";;"Windows 7";"Rachel's Experiment (D.T.)";"1.0";"2";"1";"1";"2";"1";"1";"2014-10-06 13:35:01.190";"2014-10-06 13:48:19.581";"1";"1";"1";"106";"105";"module.training_block3.exec-7170.GoNoGo3";;;;;;;;;;;;;;;;;;;;;;;;;;;;;;;;;;;;;;;;;;;;;;;"1248";"2014-10-06 13:40:51.612";"ST_correctStop";"0";"0";"FINISHED";"NONE";"success";"0";"1";"2014-10-06 13:40:50.362";"1";;;;;;;;;;;;;;;;;;;;;;;;;;;;;;;;;
"psychem";"1995";;"Windows 7";"Rachel's Experiment (D.T.)";"1.0";"2";"1";"1";"2";"1";"1";"2014-10-06 13:35:01.190";"2014-10-06 13:48:19.581";"1";"1";"1";"107";"106";"module.training_block3.exec-7170.GoNoGo3";;;;;;;;;;;;;;;;;;;;;;;;;;;;;;;;;;;;;;;;;;;;;;;"1248";"2014-10-06 13:40:54.112";"NST_correctLoc";"12";"1";"FINISHED";"RIGHT";"success";"439";"0";"2014-10-06 13:40:52.862";"2";;;;;;;;;;;;;;;;;;;;;;;;;;;;;;;;;
"psychem";"1995";;"Windows 7";"Rachel's Experiment (D.T.)";"1.0";"2";"1";"1";"2";"1";"1";"2014-10-06 13:35:01.190";"2014-10-06 13:48:19.581";"1";"1";"1";"108";"107";"module.training_block3.exec-7170.GoNoGo3";;;;;;;;;;;;;;;;;;;;;;;;;;;;;;;;;;;;;;;;;;;;;;;"1243";"2014-10-06 13:40:56.612";"ST_correctStop";"31";"1";"FINISHED";"NONE";"success";"0";"1";"2014-10-06 13:40:55.362";"3";;;;;;;;;;;;;;;;;;;;;;;;;;;;;;;;;
"psychem";"1995";;"Windows 7";"Rachel's Experiment (D.T.)";"1.0";"2";"1";"1";"2";"1";"1";"2014-10-06 13:35:01.190";"2014-10-06 13:48:19.581";"1";"1";"1";"109";"108";"module.training_block3.exec-7170.GoNoGo3";;;;;;;;;;;;;;;;;;;;;;;;;;;;;;;;;;;;;;;;;;;;;;;"1248";"2014-10-06 13:40:59.112";"NST_correctLoc";"13";"0";"FINISHED";"LEFT";"success";"510";"0";"2014-10-06 13:40:57.862";"2";;;;;;;;;;;;;;;;;;;;;;;;;;;;;;;;;
"psychem";"1995";;"Windows 7";"Rachel's Experiment (D.T.)";"1.0";"2";"1";"1";"2";"1";"1";"2014-10-06 13:35:01.190";"2014-10-06 13:48:19.581";"1";"1";"1";"110";"109";"module.training_block3.exec-7170.GoNoGo3";;;;;;;;;;;;;;;;;;;;;;;;;;;;;;;;;;;;;;;;;;;;;;;"1248";"2014-10-06 13:41:01.612";"NST_correctLoc";"23";"0";"FINISHED";"LEFT";"success";"506";"0";"2014-10-06 13:41:00.362";"3";;;;;;;;;;;;;;;;;;;;;;;;;;;;;;;;;
"psychem";"1995";;"Windows 7";"Rachel's Experiment (D.T.)";"1.0";"2";"1";"1";"2";"1";"1";"2014-10-06 13:35:01.190";"2014-10-06 13:48:19.581";"1";"1";"1";"111";"110";"module.training_block3.exec-7170.GoNoGo3";;;;;;;;;;;;;;;;;;;;;;;;;;;;;;;;;;;;;;;;;;;;;;;"1248";"2014-10-06 13:41:04.112";"NST_correctLoc";"16";"0";"FINISHED";"LEFT";"success";"454";"0";"2014-10-06 13:41:02.862";"2";;;;;;;;;;;;;;;;;;;;;;;;;;;;;;;;;
"psychem";"1995";;"Windows 7";"Rachel's Experiment (D.T.)";"1.0";"2";"1";"1";"2";"1";"1";"2014-10-06 13:35:01.190";"2014-10-06 13:48:19.581";"1";"1";"1";"112";"111";"module.training_block3.exec-7170.GoNoGo3";;;;;;;;;;;;;;;;;;;;;;;;;;;;;;;;;;;;;;;;;;;;;;;"1248";"2014-10-06 13:41:06.612";"ST_correctStop";"3";"1";"FINISHED";"NONE";"success";"0";"1";"2014-10-06 13:41:05.362";"1";;;;;;;;;;;;;;;;;;;;;;;;;;;;;;;;;
"psychem";"1995";;"Windows 7";"Rachel's Experiment (D.T.)";"1.0";"2";"1";"1";"2";"1";"1";"2014-10-06 13:35:01.190";"2014-10-06 13:48:19.581";"1";"1";"1";"113";"112";"module.training_block3.exec-7170.GoNoGo3";;;;;;;;;;;;;;;;;;;;;;;;;;;;;;;;;;;;;;;;;;;;;;;"1248";"2014-10-06 13:41:09.112";"ST_correctStop";"27";"0";"FINISHED";"NONE";"success";"0";"1";"2014-10-06 13:41:07.862";"3";;;;;;;;;;;;;;;;;;;;;;;;;;;;;;;;;
"psychem";"1995";;"Windows 7";"Rachel's Experiment (D.T.)";"1.0";"2";"1";"1";"2";"1";"1";"2014-10-06 13:35:01.190";"2014-10-06 13:48:19.581";"1";"1";"1";"114";"113";"module.training_block3.exec-7170.GoNoGo3";;;;;;;;;;;;;;;;;;;;;;;;;;;;;;;;;;;;;;;;;;;;;;;"1245";"2014-10-06 13:41:11.612";"NST_correctLoc";"9";"0";"FINISHED";"LEFT";"success";"519";"0";"2014-10-06 13:41:10.362";"2";;;;;;;;;;;;;;;;;;;;;;;;;;;;;;;;;
"psychem";"1995";;"Windows 7";"Rachel's Experiment (D.T.)";"1.0";"2";"1";"1";"2";"1";"1";"2014-10-06 13:35:01.190";"2014-10-06 13:48:19.581";"1";"1";"1";"115";"114";"module.training_block3.exec-7170.GoNoGo3";;;;;;;;;;;;;;;;;;;;;;;;;;;;;;;;;;;;;;;;;;;;;;;"1245";"2014-10-06 13:41:14.112";"ST_correctStop";"6";"0";"FINISHED";"NONE";"success";"0";"1";"2014-10-06 13:41:12.862";"1";;;;;;;;;;;;;;;;;;;;;;;;;;;;;;;;;
"psychem";"1995";;"Windows 7";"Rachel's Experiment (D.T.)";"1.0";"2";"1";"1";"2";"1";"1";"2014-10-06 13:35:01.190";"2014-10-06 13:48:19.581";"1";"1";"1";"116";"115";"module.training_block3.exec-7170.GoNoGo3";;;;;;;;;;;;;;;;;;;;;;;;;;;;;;;;;;;;;;;;;;;;;;;"1248";"2014-10-06 13:41:16.612";"ST_correctStop";"4";"0";"FINISHED";"NONE";"success";"0";"1";"2014-10-06 13:41:15.362";"1";;;;;;;;;;;;;;;;;;;;;;;;;;;;;;;;;
"psychem";"1995";;"Windows 7";"Rachel's Experiment (D.T.)";"1.0";"2";"1";"1";"2";"1";"1";"2014-10-06 13:35:01.190";"2014-10-06 13:48:19.581";"1";"1";"1";"117";"116";"module.training_block3.exec-7170.GoNoGo3";;;;;;;;;;;;;;;;;;;;;;;;;;;;;;;;;;;;;;;;;;;;;;;"1248";"2014-10-06 13:41:19.112";"NST_correctLoc";"21";"1";"FINISHED";"RIGHT";"success";"526";"0";"2014-10-06 13:41:17.862";"3";;;;;;;;;;;;;;;;;;;;;;;;;;;;;;;;;
"psychem";"1995";;"Windows 7";"Rachel's Experiment (D.T.)";"1.0";"2";"1";"1";"2";"1";"1";"2014-10-06 13:35:01.190";"2014-10-06 13:48:19.581";"1";"1";"1";"118";"117";"module.training_block3.exec-7170.GoNoGo3";;;;;;;;;;;;;;;;;;;;;;;;;;;;;;;;;;;;;;;;;;;;;;;"1248";"2014-10-06 13:41:21.612";"NST_correctLoc";"19";"0";"FINISHED";"LEFT";"success";"746";"0";"2014-10-06 13:41:20.362";"3";;;;;;;;;;;;;;;;;;;;;;;;;;;;;;;;;
"psychem";"1995";;"Windows 7";"Rachel's Experiment (D.T.)";"1.0";"2";"1";"1";"2";"1";"1";"2014-10-06 13:35:01.190";"2014-10-06 13:48:19.581";"1";"1";"1";"119";"118";"module.training_block3.exec-7170.GoNoGo3";;;;;;;;;;;;;;;;;;;;;;;;;;;;;;;;;;;;;;;;;;;;;;;"1248";"2014-10-06 13:41:24.112";"ST_correctStop";"32";"1";"FINISHED";"NONE";"success";"0";"1";"2014-10-06 13:41:22.862";"3";;;;;;;;;;;;;;;;;;;;;;;;;;;;;;;;;
"psychem";"1995";;"Windows 7";"Rachel's Experiment (D.T.)";"1.0";"2";"1";"1";"2";"1";"1";"2014-10-06 13:35:01.190";"2014-10-06 13:48:19.581";"1";"1";"1";"120";"119";"module.training_block3.exec-7170.GoNoGo3";;;;;;;;;;;;;;;;;;;;;;;;;;;;;;;;;;;;;;;;;;;;;;;"1244";"2014-10-06 13:41:26.612";"NST_correctLoc";"11";"0";"FINISHED";"LEFT";"success";"589";"0";"2014-10-06 13:41:25.362";"2";;;;;;;;;;;;;;;;;;;;;;;;;;;;;;;;;
"psychem";"1995";;"Windows 7";"Rachel's Experiment (D.T.)";"1.0";"2";"1";"1";"2";"1";"1";"2014-10-06 13:35:01.190";"2014-10-06 13:48:19.581";"1";"1";"1";"121";"120";"module.training_block3.exec-7170.GoNoGo3";;;;;;;;;;;;;;;;;;;;;;;;;;;;;;;;;;;;;;;;;;;;;;;"1248";"2014-10-06 13:41:29.112";"NST_correctLoc";"30";"0";"FINISHED";"LEFT";"success";"574";"0";"2014-10-06 13:41:27.862";"3";;;;;;;;;;;;;;;;;;;;;;;;;;;;;;;;;
"psychem";"1995";;"Windows 7";"Rachel's Experiment (D.T.)";"1.0";"2";"1";"1";"2";"1";"1";"2014-10-06 13:35:01.190";"2014-10-06 13:48:19.581";"1";"1";"1";"122";"121";"module.training_block3.exec-7170.GoNoGo3";;;;;;;;;;;;;;;;;;;;;;;;;;;;;;;;;;;;;;;;;;;;;;;"1248";"2014-10-06 13:41:31.612";"ST_correctStop";"35";"0";"FINISHED";"NONE";"success";"0";"1";"2014-10-06 13:41:30.362";"3";;;;;;;;;;;;;;;;;;;;;;;;;;;;;;;;;
"psychem";"1995";;"Windows 7";"Rachel's Experiment (D.T.)";"1.0";"2";"1";"1";"2";"1";"1";"2014-10-06 13:35:01.190";"2014-10-06 13:48:19.581";"1";"1";"1";"123";"122";"module.training_block3.exec-7170.GoNoGo3";;;;;;;;;;;;;;;;;;;;;;;;;;;;;;;;;;;;;;;;;;;;;;;"1248";"2014-10-06 13:41:34.112";"ST_correctStop";"25";"1";"FINISHED";"NONE";"success";"0";"1";"2014-10-06 13:41:32.862";"3";;;;;;;;;;;;;;;;;;;;;;;;;;;;;;;;;
"psychem";"1995";;"Windows 7";"Rachel's Experiment (D.T.)";"1.0";"2";"1";"1";"2";"1";"1";"2014-10-06 13:35:01.190";"2014-10-06 13:48:19.581";"1";"1";"1";"124";"123";"module.training_block4.exec-7155.GoNoGo4";;;;;;;;;;;;;;;;;;;;;;;;;;;;;;;;;;;;;;;;;;;;;;;;;;;;;;;;;;;"1248";"2014-10-06 13:41:44.909";"ST_correctStop";"6";"1";"FINISHED";"NONE";"success";"0";"1";"2014-10-06 13:41:43.659";"1";;;;;;;;;;;;;;;;;;;;;
"psychem";"1995";;"Windows 7";"Rachel's Experiment (D.T.)";"1.0";"2";"1";"1";"2";"1";"1";"2014-10-06 13:35:01.190";"2014-10-06 13:48:19.581";"1";"1";"1";"125";"124";"module.training_block4.exec-7155.GoNoGo4";;;;;;;;;;;;;;;;;;;;;;;;;;;;;;;;;;;;;;;;;;;;;;;;;;;;;;;;;;;"1248";"2014-10-06 13:41:47.409";"ST_correctStop";"35";"1";"FINISHED";"NONE";"success";"0";"1";"2014-10-06 13:41:46.159";"3";;;;;;;;;;;;;;;;;;;;;
"psychem";"1995";;"Windows 7";"Rachel's Experiment (D.T.)";"1.0";"2";"1";"1";"2";"1";"1";"2014-10-06 13:35:01.190";"2014-10-06 13:48:19.581";"1";"1";"1";"126";"125";"module.training_block4.exec-7155.GoNoGo4";;;;;;;;;;;;;;;;;;;;;;;;;;;;;;;;;;;;;;;;;;;;;;;;;;;;;;;;;;;"1248";"2014-10-06 13:41:49.909";"NST_correctLoc";"23";"1";"FINISHED";"RIGHT";"success";"544";"0";"2014-10-06 13:41:48.659";"3";;;;;;;;;;;;;;;;;;;;;
"psychem";"1995";;"Windows 7";"Rachel's Experiment (D.T.)";"1.0";"2";"1";"1";"2";"1";"1";"2014-10-06 13:35:01.190";"2014-10-06 13:48:19.581";"1";"1";"1";"127";"126";"module.training_block4.exec-7155.GoNoGo4";;;;;;;;;;;;;;;;;;;;;;;;;;;;;;;;;;;;;;;;;;;;;;;;;;;;;;;;;;;"1248";"2014-10-06 13:41:52.409";"ST_correctStop";"18";"1";"FINISHED";"NONE";"success";"0";"1";"2014-10-06 13:41:51.159";"3";;;;;;;;;;;;;;;;;;;;;
"psychem";"1995";;"Windows 7";"Rachel's Experiment (D.T.)";"1.0";"2";"1";"1";"2";"1";"1";"2014-10-06 13:35:01.190";"2014-10-06 13:48:19.581";"1";"1";"1";"128";"127";"module.training_block4.exec-7155.GoNoGo4";;;;;;;;;;;;;;;;;;;;;;;;;;;;;;;;;;;;;;;;;;;;;;;;;;;;;;;;;;;"1248";"2014-10-06 13:41:54.909";"ST_correctStop";"26";"0";"FINISHED";"NONE";"success";"0";"1";"2014-10-06 13:41:53.659";"3";;;;;;;;;;;;;;;;;;;;;
"psychem";"1995";;"Windows 7";"Rachel's Experiment (D.T.)";"1.0";"2";"1";"1";"2";"1";"1";"2014-10-06 13:35:01.190";"2014-10-06 13:48:19.581";"1";"1";"1";"129";"128";"module.training_block4.exec-7155.GoNoGo4";;;;;;;;;;;;;;;;;;;;;;;;;;;;;;;;;;;;;;;;;;;;;;;;;;;;;;;;;;;"1248";"2014-10-06 13:41:57.409";"NST_correctLoc";"34";"0";"FINISHED";"LEFT";"success";"500";"0";"2014-10-06 13:41:56.159";"3";;;;;;;;;;;;;;;;;;;;;
"psychem";"1995";;"Windows 7";"Rachel's Experiment (D.T.)";"1.0";"2";"1";"1";"2";"1";"1";"2014-10-06 13:35:01.190";"2014-10-06 13:48:19.581";"1";"1";"1";"130";"129";"module.training_block4.exec-7155.GoNoGo4";;;;;;;;;;;;;;;;;;;;;;;;;;;;;;;;;;;;;;;;;;;;;;;;;;;;;;;;;;;"1248";"2014-10-06 13:41:59.909";"ST_correctStop";"1";"1";"FINISHED";"NONE";"success";"0";"1";"2014-10-06 13:41:58.659";"1";;;;;;;;;;;;;;;;;;;;;
"psychem";"1995";;"Windows 7";"Rachel's Experiment (D.T.)";"1.0";"2";"1";"1";"2";"1";"1";"2014-10-06 13:35:01.190";"2014-10-06 13:48:19.581";"1";"1";"1";"131";"130";"module.training_block4.exec-7155.GoNoGo4";;;;;;;;;;;;;;;;;;;;;;;;;;;;;;;;;;;;;;;;;;;;;;;;;;;;;;;;;;;"1248";"2014-10-06 13:42:02.409";"ST_correctStop";"8";"1";"FINISHED";"NONE";"success";"0";"1";"2014-10-06 13:42:01.159";"1";;;;;;;;;;;;;;;;;;;;;
"psychem";"1995";;"Windows 7";"Rachel's Experiment (D.T.)";"1.0";"2";"1";"1";"2";"1";"1";"2014-10-06 13:35:01.190";"2014-10-06 13:48:19.581";"1";"1";"1";"132";"131";"module.training_block4.exec-7155.GoNoGo4";;;;;;;;;;;;;;;;;;;;;;;;;;;;;;;;;;;;;;;;;;;;;;;;;;;;;;;;;;;"1248";"2014-10-06 13:42:04.909";"NST_correctLoc";"28";"1";"FINISHED";"RIGHT";"success";"471";"0";"2014-10-06 13:42:03.659";"3";;;;;;;;;;;;;;;;;;;;;
"psychem";"1995";;"Windows 7";"Rachel's Experiment (D.T.)";"1.0";"2";"1";"1";"2";"1";"1";"2014-10-06 13:35:01.190";"2014-10-06 13:48:19.581";"1";"1";"1";"133";"132";"module.training_block4.exec-7155.GoNoGo4";;;;;;;;;;;;;;;;;;;;;;;;;;;;;;;;;;;;;;;;;;;;;;;;;;;;;;;;;;;"1248";"2014-10-06 13:42:07.409";"ST_correctStop";"22";"1";"FINISHED";"NONE";"success";"0";"1";"2014-10-06 13:42:06.159";"3";;;;;;;;;;;;;;;;;;;;;
"psychem";"1995";;"Windows 7";"Rachel's Experiment (D.T.)";"1.0";"2";"1";"1";"2";"1";"1";"2014-10-06 13:35:01.190";"2014-10-06 13:48:19.581";"1";"1";"1";"134";"133";"module.training_block4.exec-7155.GoNoGo4";;;;;;;;;;;;;;;;;;;;;;;;;;;;;;;;;;;;;;;;;;;;;;;;;;;;;;;;;;;"1248";"2014-10-06 13:42:09.909";"NST_correctLoc";"21";"0";"FINISHED";"LEFT";"success";"495";"0";"2014-10-06 13:42:08.659";"3";;;;;;;;;;;;;;;;;;;;;
"psychem";"1995";;"Windows 7";"Rachel's Experiment (D.T.)";"1.0";"2";"1";"1";"2";"1";"1";"2014-10-06 13:35:01.190";"2014-10-06 13:48:19.581";"1";"1";"1";"135";"134";"module.training_block4.exec-7155.GoNoGo4";;;;;;;;;;;;;;;;;;;;;;;;;;;;;;;;;;;;;;;;;;;;;;;;;;;;;;;;;;;"1248";"2014-10-06 13:42:12.409";"ST_correctStop";"25";"0";"FINISHED";"NONE";"success";"0";"1";"2014-10-06 13:42:11.159";"3";;;;;;;;;;;;;;;;;;;;;
"psychem";"1995";;"Windows 7";"Rachel's Experiment (D.T.)";"1.0";"2";"1";"1";"2";"1";"1";"2014-10-06 13:35:01.190";"2014-10-06 13:48:19.581";"1";"1";"1";"136";"135";"module.training_block4.exec-7155.GoNoGo4";;;;;;;;;;;;;;;;;;;;;;;;;;;;;;;;;;;;;;;;;;;;;;;;;;;;;;;;;;;"1248";"2014-10-06 13:42:14.909";"NST_correctLoc";"10";"1";"FINISHED";"RIGHT";"success";"503";"0";"2014-10-06 13:42:13.659";"2";;;;;;;;;;;;;;;;;;;;;
"psychem";"1995";;"Windows 7";"Rachel's Experiment (D.T.)";"1.0";"2";"1";"1";"2";"1";"1";"2014-10-06 13:35:01.190";"2014-10-06 13:48:19.581";"1";"1";"1";"137";"136";"module.training_block4.exec-7155.GoNoGo4";;;;;;;;;;;;;;;;;;;;;;;;;;;;;;;;;;;;;;;;;;;;;;;;;;;;;;;;;;;"1248";"2014-10-06 13:42:17.409";"NST_correctLoc";"30";"1";"FINISHED";"RIGHT";"success";"627";"0";"2014-10-06 13:42:16.159";"3";;;;;;;;;;;;;;;;;;;;;
"psychem";"1995";;"Windows 7";"Rachel's Experiment (D.T.)";"1.0";"2";"1";"1";"2";"1";"1";"2014-10-06 13:35:01.190";"2014-10-06 13:48:19.581";"1";"1";"1";"138";"137";"module.training_block4.exec-7155.GoNoGo4";;;;;;;;;;;;;;;;;;;;;;;;;;;;;;;;;;;;;;;;;;;;;;;;;;;;;;;;;;;"1248";"2014-10-06 13:42:19.909";"ST_correctStop";"19";"0";"FINISHED";"NONE";"success";"0";"1";"2014-10-06 13:42:18.659";"3";;;;;;;;;;;;;;;;;;;;;
"psychem";"1995";;"Windows 7";"Rachel's Experiment (D.T.)";"1.0";"2";"1";"1";"2";"1";"1";"2014-10-06 13:35:01.190";"2014-10-06 13:48:19.581";"1";"1";"1";"139";"138";"module.training_block4.exec-7155.GoNoGo4";;;;;;;;;;;;;;;;;;;;;;;;;;;;;;;;;;;;;;;;;;;;;;;;;;;;;;;;;;;"1248";"2014-10-06 13:42:22.409";"NST_correctLoc";"16";"1";"FINISHED";"RIGHT";"success";"379";"0";"2014-10-06 13:42:21.159";"2";;;;;;;;;;;;;;;;;;;;;
"psychem";"1995";;"Windows 7";"Rachel's Experiment (D.T.)";"1.0";"2";"1";"1";"2";"1";"1";"2014-10-06 13:35:01.190";"2014-10-06 13:48:19.581";"1";"1";"1";"140";"139";"module.training_block4.exec-7155.GoNoGo4";;;;;;;;;;;;;;;;;;;;;;;;;;;;;;;;;;;;;;;;;;;;;;;;;;;;;;;;;;;"1248";"2014-10-06 13:42:24.909";"ST_correctStop";"0";"0";"FINISHED";"NONE";"success";"0";"1";"2014-10-06 13:42:23.659";"1";;;;;;;;;;;;;;;;;;;;;
"psychem";"1995";;"Windows 7";"Rachel's Experiment (D.T.)";"1.0";"2";"1";"1";"2";"1";"1";"2014-10-06 13:35:01.190";"2014-10-06 13:48:19.581";"1";"1";"1";"141";"140";"module.training_block4.exec-7155.GoNoGo4";;;;;;;;;;;;;;;;;;;;;;;;;;;;;;;;;;;;;;;;;;;;;;;;;;;;;;;;;;;"1248";"2014-10-06 13:42:27.425";"ST_correctStop";"29";"0";"FINISHED";"NONE";"success";"0";"1";"2014-10-06 13:42:26.175";"3";;;;;;;;;;;;;;;;;;;;;
"psychem";"1995";;"Windows 7";"Rachel's Experiment (D.T.)";"1.0";"2";"1";"1";"2";"1";"1";"2014-10-06 13:35:01.190";"2014-10-06 13:48:19.581";"1";"1";"1";"142";"141";"module.training_block4.exec-7155.GoNoGo4";;;;;;;;;;;;;;;;;;;;;;;;;;;;;;;;;;;;;;;;;;;;;;;;;;;;;;;;;;;"1248";"2014-10-06 13:42:29.925";"ST_correctStop";"3";"1";"FINISHED";"NONE";"success";"0";"1";"2014-10-06 13:42:28.675";"1";;;;;;;;;;;;;;;;;;;;;
"psychem";"1995";;"Windows 7";"Rachel's Experiment (D.T.)";"1.0";"2";"1";"1";"2";"1";"1";"2014-10-06 13:35:01.190";"2014-10-06 13:48:19.581";"1";"1";"1";"143";"142";"module.training_block4.exec-7155.GoNoGo4";;;;;;;;;;;;;;;;;;;;;;;;;;;;;;;;;;;;;;;;;;;;;;;;;;;;;;;;;;;"1248";"2014-10-06 13:42:32.425";"NST_correctLoc";"33";"1";"FINISHED";"RIGHT";"success";"507";"0";"2014-10-06 13:42:31.175";"3";;;;;;;;;;;;;;;;;;;;;
"psychem";"1995";;"Windows 7";"Rachel's Experiment (D.T.)";"1.0";"2";"1";"1";"2";"1";"1";"2014-10-06 13:35:01.190";"2014-10-06 13:48:19.581";"1";"1";"1";"144";"143";"module.training_block4.exec-7155.GoNoGo4";;;;;;;;;;;;;;;;;;;;;;;;;;;;;;;;;;;;;;;;;;;;;;;;;;;;;;;;;;;"1243";"2014-10-06 13:42:34.925";"NST_correctLoc";"9";"0";"FINISHED";"LEFT";"success";"498";"0";"2014-10-06 13:42:33.675";"2";;;;;;;;;;;;;;;;;;;;;
"psychem";"1995";;"Windows 7";"Rachel's Experiment (D.T.)";"1.0";"2";"1";"1";"2";"1";"1";"2014-10-06 13:35:01.190";"2014-10-06 13:48:19.581";"1";"1";"1";"145";"144";"module.training_block4.exec-7155.GoNoGo4";;;;;;;;;;;;;;;;;;;;;;;;;;;;;;;;;;;;;;;;;;;;;;;;;;;;;;;;;;;"1248";"2014-10-06 13:42:37.425";"NST_correctLoc";"13";"1";"FINISHED";"RIGHT";"success";"371";"0";"2014-10-06 13:42:36.175";"2";;;;;;;;;;;;;;;;;;;;;
"psychem";"1995";;"Windows 7";"Rachel's Experiment (D.T.)";"1.0";"2";"1";"1";"2";"1";"1";"2014-10-06 13:35:01.190";"2014-10-06 13:48:19.581";"1";"1";"1";"146";"145";"module.training_block4.exec-7155.GoNoGo4";;;;;;;;;;;;;;;;;;;;;;;;;;;;;;;;;;;;;;;;;;;;;;;;;;;;;;;;;;;"1248";"2014-10-06 13:42:39.925";"ST_correctStop";"7";"1";"FINISHED";"NONE";"success";"0";"1";"2014-10-06 13:42:38.675";"1";;;;;;;;;;;;;;;;;;;;;
"psychem";"1995";;"Windows 7";"Rachel's Experiment (D.T.)";"1.0";"2";"1";"1";"2";"1";"1";"2014-10-06 13:35:01.190";"2014-10-06 13:48:19.581";"1";"1";"1";"147";"146";"module.training_block4.exec-7155.GoNoGo4";;;;;;;;;;;;;;;;;;;;;;;;;;;;;;;;;;;;;;;;;;;;;;;;;;;;;;;;;;;"1248";"2014-10-06 13:42:42.425";"ST_correctStop";"4";"0";"FINISHED";"NONE";"success";"0";"1";"2014-10-06 13:42:41.175";"1";;;;;;;;;;;;;;;;;;;;;
"psychem";"1995";;"Windows 7";"Rachel's Experiment (D.T.)";"1.0";"2";"1";"1";"2";"1";"1";"2014-10-06 13:35:01.190";"2014-10-06 13:48:19.581";"1";"1";"1";"148";"147";"module.training_block4.exec-7155.GoNoGo4";;;;;;;;;;;;;;;;;;;;;;;;;;;;;;;;;;;;;;;;;;;;;;;;;;;;;;;;;;;"1248";"2014-10-06 13:42:44.925";"NST_correctLoc";"15";"0";"FINISHED";"LEFT";"success";"422";"0";"2014-10-06 13:42:43.675";"2";;;;;;;;;;;;;;;;;;;;;
"psychem";"1995";;"Windows 7";"Rachel's Experiment (D.T.)";"1.0";"2";"1";"1";"2";"1";"1";"2014-10-06 13:35:01.190";"2014-10-06 13:48:19.581";"1";"1";"1";"149";"148";"module.training_block4.exec-7155.GoNoGo4";;;;;;;;;;;;;;;;;;;;;;;;;;;;;;;;;;;;;;;;;;;;;;;;;;;;;;;;;;;"1248";"2014-10-06 13:42:47.425";"NST_correctLoc";"27";"0";"FINISHED";"LEFT";"success";"627";"0";"2014-10-06 13:42:46.175";"3";;;;;;;;;;;;;;;;;;;;;
"psychem";"1995";;"Windows 7";"Rachel's Experiment (D.T.)";"1.0";"2";"1";"1";"2";"1";"1";"2014-10-06 13:35:01.190";"2014-10-06 13:48:19.581";"1";"1";"1";"150";"149";"module.training_block4.exec-7155.GoNoGo4";;;;;;;;;;;;;;;;;;;;;;;;;;;;;;;;;;;;;;;;;;;;;;;;;;;;;;;;;;;"1248";"2014-10-06 13:42:49.925";"ST_correctStop";"2";"1";"FINISHED";"NONE";"success";"0";"1";"2014-10-06 13:42:48.675";"1";;;;;;;;;;;;;;;;;;;;;
"psychem";"1995";;"Windows 7";"Rachel's Experiment (D.T.)";"1.0";"2";"1";"1";"2";"1";"1";"2014-10-06 13:35:01.190";"2014-10-06 13:48:19.581";"1";"1";"1";"151";"150";"module.training_block4.exec-7155.GoNoGo4";;;;;;;;;;;;;;;;;;;;;;;;;;;;;;;;;;;;;;;;;;;;;;;;;;;;;;;;;;;"1248";"2014-10-06 13:42:52.425";"NST_correctLoc";"11";"1";"FINISHED";"RIGHT";"success";"410";"0";"2014-10-06 13:42:51.175";"2";;;;;;;;;;;;;;;;;;;;;
"psychem";"1995";;"Windows 7";"Rachel's Experiment (D.T.)";"1.0";"2";"1";"1";"2";"1";"1";"2014-10-06 13:35:01.190";"2014-10-06 13:48:19.581";"1";"1";"1";"152";"151";"module.training_block4.exec-7155.GoNoGo4";;;;;;;;;;;;;;;;;;;;;;;;;;;;;;;;;;;;;;;;;;;;;;;;;;;;;;;;;;;"1244";"2014-10-06 13:42:54.925";"NST_correctLoc";"31";"0";"FINISHED";"LEFT";"success";"482";"0";"2014-10-06 13:42:53.675";"3";;;;;;;;;;;;;;;;;;;;;
"psychem";"1995";;"Windows 7";"Rachel's Experiment (D.T.)";"1.0";"2";"1";"1";"2";"1";"1";"2014-10-06 13:35:01.190";"2014-10-06 13:48:19.581";"1";"1";"1";"153";"152";"module.training_block4.exec-7155.GoNoGo4";;;;;;;;;;;;;;;;;;;;;;;;;;;;;;;;;;;;;;;;;;;;;;;;;;;;;;;;;;;"1248";"2014-10-06 13:42:57.425";"ST_correctStop";"5";"0";"FINISHED";"NONE";"success";"0";"1";"2014-10-06 13:42:56.175";"1";;;;;;;;;;;;;;;;;;;;;
"psychem";"1995";;"Windows 7";"Rachel's Experiment (D.T.)";"1.0";"2";"1";"1";"2";"1";"1";"2014-10-06 13:35:01.190";"2014-10-06 13:48:19.581";"1";"1";"1";"154";"153";"module.training_block4.exec-7155.GoNoGo4";;;;;;;;;;;;;;;;;;;;;;;;;;;;;;;;;;;;;;;;;;;;;;;;;;;;;;;;;;;"1247";"2014-10-06 13:42:59.925";"NST_correctLoc";"14";"0";"FINISHED";"LEFT";"success";"381";"0";"2014-10-06 13:42:58.675";"2";;;;;;;;;;;;;;;;;;;;;
"psychem";"1995";;"Windows 7";"Rachel's Experiment (D.T.)";"1.0";"2";"1";"1";"2";"1";"1";"2014-10-06 13:35:01.190";"2014-10-06 13:48:19.581";"1";"1";"1";"155";"154";"module.training_block4.exec-7155.GoNoGo4";;;;;;;;;;;;;;;;;;;;;;;;;;;;;;;;;;;;;;;;;;;;;;;;;;;;;;;;;;;"1248";"2014-10-06 13:43:02.425";"NST_correctLoc";"17";"0";"FINISHED";"LEFT";"success";"378";"0";"2014-10-06 13:43:01.175";"2";;;;;;;;;;;;;;;;;;;;;
"psychem";"1995";;"Windows 7";"Rachel's Experiment (D.T.)";"1.0";"2";"1";"1";"2";"1";"1";"2014-10-06 13:35:01.190";"2014-10-06 13:48:19.581";"1";"1";"1";"156";"155";"module.training_block4.exec-7155.GoNoGo4";;;;;;;;;;;;;;;;;;;;;;;;;;;;;;;;;;;;;;;;;;;;;;;;;;;;;;;;;;;"1248";"2014-10-06 13:43:04.925";"NST_correctLoc";"12";"1";"FINISHED";"RIGHT";"success";"438";"0";"2014-10-06 13:43:03.675";"2";;;;;;;;;;;;;;;;;;;;;
"psychem";"1995";;"Windows 7";"Rachel's Experiment (D.T.)";"1.0";"2";"1";"1";"2";"1";"1";"2014-10-06 13:35:01.190";"2014-10-06 13:48:19.581";"1";"1";"1";"157";"156";"module.training_block4.exec-7155.GoNoGo4";;;;;;;;;;;;;;;;;;;;;;;;;;;;;;;;;;;;;;;;;;;;;;;;;;;;;;;;;;;"1248";"2014-10-06 13:43:07.425";"NST_correctLoc";"24";"0";"FINISHED";"LEFT";"success";"418";"0";"2014-10-06 13:43:06.175";"3";;;;;;;;;;;;;;;;;;;;;
"psychem";"1995";;"Windows 7";"Rachel's Experiment (D.T.)";"1.0";"2";"1";"1";"2";"1";"1";"2014-10-06 13:35:01.190";"2014-10-06 13:48:19.581";"1";"1";"1";"158";"157";"module.training_block4.exec-7155.GoNoGo4";;;;;;;;;;;;;;;;;;;;;;;;;;;;;;;;;;;;;;;;;;;;;;;;;;;;;;;;;;;"1248";"2014-10-06 13:43:09.925";"ST_failedStop";"20";"0";"FINISHED";"LEFT";"failure";"350";"1";"2014-10-06 13:43:08.675";"3";;;;;;;;;;;;;;;;;;;;;
"psychem";"1995";;"Windows 7";"Rachel's Experiment (D.T.)";"1.0";"2";"1";"1";"2";"1";"1";"2014-10-06 13:35:01.190";"2014-10-06 13:48:19.581";"1";"1";"1";"159";"158";"module.training_block4.exec-7155.GoNoGo4";;;;;;;;;;;;;;;;;;;;;;;;;;;;;;;;;;;;;;;;;;;;;;;;;;;;;;;;;;;"1248";"2014-10-06 13:43:12.425";"ST_correctStop";"32";"0";"FINISHED";"NONE";"success";"0";"1";"2014-10-06 13:43:11.175";"3";;;;;;;;;;;;;;;;;;;;;
"psychem";"1995";;"Windows 7";"Rachel's Experiment (D.T.)";"1.0";"2";"1";"1";"2";"1";"1";"2014-10-06 13:35:01.190";"2014-10-06 13:48:19.581";"1";"1";"1";"160";"159";"module.devaluation_practice.exec-7972.devalPractice";;;;;;;;;;;;"14032";"2014-10-06 13:43:52.003";"0";"4";"3";"5";"3674";"2989";"4370";"2014-10-06 13:43:37.971";;;;;;;;;;;;;;;;;;;;;;;;;;;;;;;;;;;;;;;;;;;;;;;;;;;;;;;;;;;;;;;;;;;;;;
"psychem";"1995";;"Windows 7";"Rachel's Experiment (D.T.)";"1.0";"2";"1";"1";"2";"1";"1";"2014-10-06 13:35:01.190";"2014-10-06 13:48:19.581";"1";"1";"1";"161";"160";"module.devaluation_practice.exec-7972.devalPractice";;;;;;;;;;;;"9395";"2014-10-06 13:44:01.425";"1";"5";"3";"5";"1549";"2716";"2140";"2014-10-06 13:43:52.018";;;;;;;;;;;;;;;;;;;;;;;;;;;;;;;;;;;;;;;;;;;;;;;;;;;;;;;;;;;;;;;;;;;;;;
"psychem";"1995";;"Windows 7";"Rachel's Experiment (D.T.)";"1.0";"2";"1";"1";"2";"1";"1";"2014-10-06 13:35:01.190";"2014-10-06 13:48:19.581";"1";"1";"1";"162";"161";"module.devaluation_practice.exec-7972.devalPractice";;;;;;;;;;;;"11103";"2014-10-06 13:44:12.534";"2";"5";"4";"7";"2043";"3414";"2653";"2014-10-06 13:44:01.440";;;;;;;;;;;;;;;;;;;;;;;;;;;;;;;;;;;;;;;;;;;;;;;;;;;;;;;;;;;;;;;;;;;;;;
"psychem";"1995";;"Windows 7";"Rachel's Experiment (D.T.)";"1.0";"2";"1";"1";"2";"1";"1";"2014-10-06 13:35:01.190";"2014-10-06 13:48:19.581";"1";"1";"1";"163";"162";"module.devaluation_practice.exec-7972.devalPractice";;;;;;;;;;;;"10760";"2014-10-06 13:44:23.315";"3";"6";"7";"6";"3277";"1510";"2984";"2014-10-06 13:44:12.565";;;;;;;;;;;;;;;;;;;;;;;;;;;;;;;;;;;;;;;;;;;;;;;;;;;;;;;;;;;;;;;;;;;;;;
"psychem";"1995";;"Windows 7";"Rachel's Experiment (D.T.)";"1.0";"2";"1";"1";"2";"1";"1";"2014-10-06 13:35:01.190";"2014-10-06 13:48:19.581";"1";"1";"1";"164";"163";"module.devaluation_block1.exec-4299.deval1";"12377";"2014-10-06 13:44:40.456";"25";"5";"4";"6";"2411";"3083";"3889";"2014-10-06 13:44:28.081";"3";;;;;;;;;;;;;;;;;;;;;;;;;;;;;;;;;;;;;;;;;;;;;;;;;;;;;;;;;;;;;;;;;;;;;;;;;;;;;;;;
"psychem";"1995";;"Windows 7";"Rachel's Experiment (D.T.)";"1.0";"2";"1";"1";"2";"1";"1";"2014-10-06 13:35:01.190";"2014-10-06 13:48:19.581";"1";"1";"1";"165";"164";"module.devaluation_block1.exec-4299.deval1";"8592";"2014-10-06 13:44:49.065";"5";"6";"5";"9";"1989";"1269";"2352";"2014-10-06 13:44:40.471";"1";;;;;;;;;;;;;;;;;;;;;;;;;;;;;;;;;;;;;;;;;;;;;;;;;;;;;;;;;;;;;;;;;;;;;;;;;;;;;;;;
"psychem";"1995";;"Windows 7";"Rachel's Experiment (D.T.)";"1.0";"2";"1";"1";"2";"1";"1";"2014-10-06 13:35:01.190";"2014-10-06 13:48:19.581";"1";"1";"1";"166";"165";"module.devaluation_block1.exec-4299.deval1";"9519";"2014-10-06 13:44:58.596";"7";"6";"6";"7";"2995";"1664";"1879";"2014-10-06 13:44:49.081";"1";;;;;;;;;;;;;;;;;;;;;;;;;;;;;;;;;;;;;;;;;;;;;;;;;;;;;;;;;;;;;;;;;;;;;;;;;;;;;;;;
"psychem";"1995";;"Windows 7";"Rachel's Experiment (D.T.)";"1.0";"2";"1";"1";"2";"1";"1";"2014-10-06 13:35:01.190";"2014-10-06 13:48:19.581";"1";"1";"1";"167";"166";"module.devaluation_block1.exec-4299.deval1";"10222";"2014-10-06 13:45:08.846";"14";"8";"6";"7";"2088";"2310";"2854";"2014-10-06 13:44:58.612";"2";;;;;;;;;;;;;;;;;;;;;;;;;;;;;;;;;;;;;;;;;;;;;;;;;;;;;;;;;;;;;;;;;;;;;;;;;;;;;;;;
"psychem";"1995";;"Windows 7";"Rachel's Experiment (D.T.)";"1.0";"2";"1";"1";"2";"1";"1";"2014-10-06 13:35:01.190";"2014-10-06 13:48:19.581";"1";"1";"1";"168";"167";"module.devaluation_block1.exec-4299.deval1";"7951";"2014-10-06 13:45:16.800";"16";"3";"2";"5";"1917";"1340";"1703";"2014-10-06 13:45:08.862";"2";;;;;;;;;;;;;;;;;;;;;;;;;;;;;;;;;;;;;;;;;;;;;;;;;;;;;;;;;;;;;;;;;;;;;;;;;;;;;;;;
"psychem";"1995";;"Windows 7";"Rachel's Experiment (D.T.)";"1.0";"2";"1";"1";"2";"1";"1";"2014-10-06 13:35:01.190";"2014-10-06 13:48:19.581";"1";"1";"1";"169";"168";"module.devaluation_block1.exec-4299.deval1";"7360";"2014-10-06 13:45:24.175";"21";"6";"5";"7";"1196";"1497";"1684";"2014-10-06 13:45:16.815";"3";;;;;;;;;;;;;;;;;;;;;;;;;;;;;;;;;;;;;;;;;;;;;;;;;;;;;;;;;;;;;;;;;;;;;;;;;;;;;;;;
"psychem";"1995";;"Windows 7";"Rachel's Experiment (D.T.)";"1.0";"2";"1";"1";"2";"1";"1";"2014-10-06 13:35:01.190";"2014-10-06 13:48:19.581";"1";"1";"1";"170";"169";"module.devaluation_block1.exec-4299.deval1";"7919";"2014-10-06 13:45:32.112";"15";"2";"5";"5";"1597";"1245";"2079";"2014-10-06 13:45:24.206";"2";;;;;;;;;;;;;;;;;;;;;;;;;;;;;;;;;;;;;;;;;;;;;;;;;;;;;;;;;;;;;;;;;;;;;;;;;;;;;;;;
"psychem";"1995";;"Windows 7";"Rachel's Experiment (D.T.)";"1.0";"2";"1";"1";"2";"1";"1";"2014-10-06 13:35:01.190";"2014-10-06 13:48:19.581";"1";"1";"1";"171";"170";"module.devaluation_block1.exec-4299.deval1";"8175";"2014-10-06 13:45:40.315";"12";"8";"6";"8";"1835";"1202";"2163";"2014-10-06 13:45:32.128";"2";;;;;;;;;;;;;;;;;;;;;;;;;;;;;;;;;;;;;;;;;;;;;;;;;;;;;;;;;;;;;;;;;;;;;;;;;;;;;;;;
"psychem";"1995";;"Windows 7";"Rachel's Experiment (D.T.)";"1.0";"2";"1";"1";"2";"1";"1";"2014-10-06 13:35:01.190";"2014-10-06 13:48:19.581";"1";"1";"1";"172";"171";"module.devaluation_block1.exec-4299.deval1";"9775";"2014-10-06 13:45:50.096";"23";"7";"4";"6";"3024";"1191";"2542";"2014-10-06 13:45:40.331";"3";;;;;;;;;;;;;;;;;;;;;;;;;;;;;;;;;;;;;;;;;;;;;;;;;;;;;;;;;;;;;;;;;;;;;;;;;;;;;;;;
"psychem";"1995";;"Windows 7";"Rachel's Experiment (D.T.)";"1.0";"2";"1";"1";"2";"1";"1";"2014-10-06 13:35:01.190";"2014-10-06 13:48:19.581";"1";"1";"1";"173";"172";"module.devaluation_block1.exec-4299.deval1";"7856";"2014-10-06 13:45:57.971";"9";"6";"2";"3";"1060";"1381";"2431";"2014-10-06 13:45:50.112";"2";;;;;;;;;;;;;;;;;;;;;;;;;;;;;;;;;;;;;;;;;;;;;;;;;;;;;;;;;;;;;;;;;;;;;;;;;;;;;;;;
"psychem";"1995";;"Windows 7";"Rachel's Experiment (D.T.)";"1.0";"2";"1";"1";"2";"1";"1";"2014-10-06 13:35:01.190";"2014-10-06 13:48:19.581";"1";"1";"1";"174";"173";"module.devaluation_block1.exec-4299.deval1";"9344";"2014-10-06 13:46:07.331";"22";"8";"6";"9";"2199";"1835";"2327";"2014-10-06 13:45:57.987";"3";;;;;;;;;;;;;;;;;;;;;;;;;;;;;;;;;;;;;;;;;;;;;;;;;;;;;;;;;;;;;;;;;;;;;;;;;;;;;;;;
"psychem";"1995";;"Windows 7";"Rachel's Experiment (D.T.)";"1.0";"2";"1";"1";"2";"1";"1";"2014-10-06 13:35:01.190";"2014-10-06 13:48:19.581";"1";"1";"1";"175";"174";"module.devaluation_block1.exec-4299.deval1";"8432";"2014-10-06 13:46:15.784";"6";"5";"4";"5";"3111";"986";"1342";"2014-10-06 13:46:07.346";"1";;;;;;;;;;;;;;;;;;;;;;;;;;;;;;;;;;;;;;;;;;;;;;;;;;;;;;;;;;;;;;;;;;;;;;;;;;;;;;;;
"psychem";"1995";;"Windows 7";"Rachel's Experiment (D.T.)";"1.0";"2";"1";"1";"2";"1";"1";"2014-10-06 13:35:01.190";"2014-10-06 13:48:19.581";"1";"1";"1";"176";"175";"module.devaluation_block1.exec-4299.deval1";"7214";"2014-10-06 13:46:23.018";"18";"6";"6";"8";"1458";"1342";"1425";"2014-10-06 13:46:15.800";"3";;;;;;;;;;;;;;;;;;;;;;;;;;;;;;;;;;;;;;;;;;;;;;;;;;;;;;;;;;;;;;;;;;;;;;;;;;;;;;;;
"psychem";"1995";;"Windows 7";"Rachel's Experiment (D.T.)";"1.0";"2";"1";"1";"2";"1";"1";"2014-10-06 13:35:01.190";"2014-10-06 13:48:19.581";"1";"1";"1";"177";"176";"module.devaluation_block1.exec-4299.deval1";"8127";"2014-10-06 13:46:31.159";"13";"6";"6";"7";"1615";"1627";"1890";"2014-10-06 13:46:23.034";"2";;;;;;;;;;;;;;;;;;;;;;;;;;;;;;;;;;;;;;;;;;;;;;;;;;;;;;;;;;;;;;;;;;;;;;;;;;;;;;;;
"psychem";"1995";;"Windows 7";"Rachel's Experiment (D.T.)";"1.0";"2";"1";"1";"2";"1";"1";"2014-10-06 13:35:01.190";"2014-10-06 13:48:19.581";"1";"1";"1";"178";"177";"module.devaluation_block1.exec-4299.deval1";"9519";"2014-10-06 13:46:40.690";"26";"9";"6";"8";"1458";"1663";"3409";"2014-10-06 13:46:31.175";"3";;;;;;;;;;;;;;;;;;;;;;;;;;;;;;;;;;;;;;;;;;;;;;;;;;;;;;;;;;;;;;;;;;;;;;;;;;;;;;;;
"psychem";"1995";;"Windows 7";"Rachel's Experiment (D.T.)";"1.0";"2";"1";"1";"2";"1";"1";"2014-10-06 13:35:01.190";"2014-10-06 13:48:19.581";"1";"1";"1";"179";"178";"module.devaluation_block1.exec-4299.deval1";"12634";"2014-10-06 13:46:53.346";"1";"5";"6";"9";"3159";"4006";"2495";"2014-10-06 13:46:40.706";"1";;;;;;;;;;;;;;;;;;;;;;;;;;;;;;;;;;;;;;;;;;;;;;;;;;;;;;;;;;;;;;;;;;;;;;;;;;;;;;;;
"psychem";"1995";;"Windows 7";"Rachel's Experiment (D.T.)";"1.0";"2";"1";"1";"2";"1";"1";"2014-10-06 13:35:01.190";"2014-10-06 13:48:19.581";"1";"1";"1";"180";"179";"module.devaluation_block1.exec-4299.deval1";"6543";"2014-10-06 13:46:59.909";"24";"6";"4";"6";"854";"1237";"1478";"2014-10-06 13:46:53.362";"3";;;;;;;;;;;;;;;;;;;;;;;;;;;;;;;;;;;;;;;;;;;;;;;;;;;;;;;;;;;;;;;;;;;;;;;;;;;;;;;;
"psychem";"1995";;"Windows 7";"Rachel's Experiment (D.T.)";"1.0";"2";"1";"1";"2";"1";"1";"2014-10-06 13:35:01.190";"2014-10-06 13:48:19.581";"1";"1";"1";"181";"180";"module.devaluation_block1.exec-4299.deval1";"6511";"2014-10-06 13:47:06.440";"8";"7";"4";"5";"1443";"922";"1154";"2014-10-06 13:46:59.925";"1";;;;;;;;;;;;;;;;;;;;;;;;;;;;;;;;;;;;;;;;;;;;;;;;;;;;;;;;;;;;;;;;;;;;;;;;;;;;;;;;
"psychem";"1995";;"Windows 7";"Rachel's Experiment (D.T.)";"1.0";"2";"1";"1";"2";"1";"1";"2014-10-06 13:35:01.190";"2014-10-06 13:48:19.581";"1";"1";"1";"182";"181";"module.devaluation_block1.exec-4299.deval1";"6271";"2014-10-06 13:47:12.721";"17";"4";"4";"5";"880";"1163";"1233";"2014-10-06 13:47:06.456";"2";;;;;;;;;;;;;;;;;;;;;;;;;;;;;;;;;;;;;;;;;;;;;;;;;;;;;;;;;;;;;;;;;;;;;;;;;;;;;;;;
"psychem";"1995";;"Windows 7";"Rachel's Experiment (D.T.)";"1.0";"2";"1";"1";"2";"1";"1";"2014-10-06 13:35:01.190";"2014-10-06 13:48:19.581";"1";"1";"1";"183";"182";"module.devaluation_block1.exec-4299.deval1";"7152";"2014-10-06 13:47:19.893";"2";"6";"6";"9";"1383";"752";"2035";"2014-10-06 13:47:12.737";"1";;;;;;;;;;;;;;;;;;;;;;;;;;;;;;;;;;;;;;;;;;;;;;;;;;;;;;;;;;;;;;;;;;;;;;;;;;;;;;;;
"psychem";"1995";;"Windows 7";"Rachel's Experiment (D.T.)";"1.0";"2";"1";"1";"2";"1";"1";"2014-10-06 13:35:01.190";"2014-10-06 13:48:19.581";"1";"1";"1";"184";"183";"module.devaluation_block1.exec-4299.deval1";"7951";"2014-10-06 13:47:27.862";"20";"8";"4";"6";"1907";"954";"2092";"2014-10-06 13:47:19.909";"3";;;;;;;;;;;;;;;;;;;;;;;;;;;;;;;;;;;;;;;;;;;;;;;;;;;;;;;;;;;;;;;;;;;;;;;;;;;;;;;;
"psychem";"1995";;"Windows 7";"Rachel's Experiment (D.T.)";"1.0";"2";"1";"1";"2";"1";"1";"2014-10-06 13:35:01.190";"2014-10-06 13:48:19.581";"1";"1";"1";"185";"184";"module.devaluation_block1.exec-4299.deval1";"7615";"2014-10-06 13:47:35.487";"4";"7";"6";"7";"929";"1727";"1972";"2014-10-06 13:47:27.878";"1";;;;;;;;;;;;;;;;;;;;;;;;;;;;;;;;;;;;;;;;;;;;;;;;;;;;;;;;;;;;;;;;;;;;;;;;;;;;;;;;
"psychem";"1995";;"Windows 7";"Rachel's Experiment (D.T.)";"1.0";"2";"1";"1";"2";"1";"1";"2014-10-06 13:35:01.190";"2014-10-06 13:48:19.581";"1";"1";"1";"186";"185";"module.devaluation_block1.exec-4299.deval1";"6287";"2014-10-06 13:47:41.800";"11";"6";"4";"5";"1848";"729";"720";"2014-10-06 13:47:35.503";"2";;;;;;;;;;;;;;;;;;;;;;;;;;;;;;;;;;;;;;;;;;;;;;;;;;;;;;;;;;;;;;;;;;;;;;;;;;;;;;;;
"psychem";"1995";;"Windows 7";"Rachel's Experiment (D.T.)";"1.0";"2";"1";"1";"2";"1";"1";"2014-10-06 13:35:01.190";"2014-10-06 13:48:19.581";"1";"1";"1";"187";"186";"module.devaluation_block1.exec-4299.deval1";"9375";"2014-10-06 13:47:51.190";"3";"6";"6";"9";"3695";"1110";"1588";"2014-10-06 13:47:41.815";"1";;;;;;;;;;;;;;;;;;;;;;;;;;;;;;;;;;;;;;;;;;;;;;;;;;;;;;;;;;;;;;;;;;;;;;;;;;;;;;;;
"psychem";"1995";;"Windows 7";"Rachel's Experiment (D.T.)";"1.0";"2";"1";"1";"2";"1";"1";"2014-10-06 13:35:01.190";"2014-10-06 13:48:19.581";"1";"1";"1";"188";"187";"module.devaluation_block1.exec-4299.deval1";"9855";"2014-10-06 13:48:01.050";"0";"5";"7";"9";"3617";"1184";"2067";"2014-10-06 13:47:51.206";"1";;;;;;;;;;;;;;;;;;;;;;;;;;;;;;;;;;;;;;;;;;;;;;;;;;;;;;;;;;;;;;;;;;;;;;;;;;;;;;;;
"psychem";"1995";;"Windows 7";"Rachel's Experiment (D.T.)";"1.0";"2";"1";"1";"2";"1";"1";"2014-10-06 13:35:01.190";"2014-10-06 13:48:19.581";"1";"1";"1";"189";"188";"module.devaluation_block1.exec-4299.deval1";"9967";"2014-10-06 13:48:11.034";"19";"8";"6";"5";"3981";"2043";"953";"2014-10-06 13:48:01.081";"3";;;;;;;;;;;;;;;;;;;;;;;;;;;;;;;;;;;;;;;;;;;;;;;;;;;;;;;;;;;;;;;;;;;;;;;;;;;;;;;;
"psychem";"1995";;"Windows 7";"Rachel's Experiment (D.T.)";"1.0";"2";"1";"1";"2";"1";"1";"2014-10-06 13:35:01.190";"2014-10-06 13:48:19.581";"1";"1";"1";"190";"189";"module.devaluation_block1.exec-4299.deval1";"7008";"2014-10-06 13:48:18.065";"10";"7";"4";"6";"1580";"1098";"1342";"2014-10-06 13:48:11.050";"2";;;;;;;;;;;;;;;;;;;;;;;;;;;;;;;;;;;;;;;;;;;;;;;;;;;;;;;;;;;;;;;;;;;;;;;;;;;;;;;;
