"user.name";"user.yearOfBirth";"user.sex";"user.osName";"module.name";"module.version";"module.online.subject.code";"module.online.study.id";"module.online.module.nr";"module.online.group.nr";"session.id";"session.index";"session.startTime";"session.endTime";"session.completed";"session.node-5361.DevalQorder";"session.node-7524.conditionType";"trial.id";"trial.index";"trial.name";"trial.deval1.durationTime";"trial.deval1.endTime";"trial.deval1.icon";"trial.deval1.Resp_Attractive";"trial.deval1.Resp_Eat";"trial.deval1.Resp_Taste";"trial.deval1.RT_Attractive";"trial.deval1.RT_Eat";"trial.deval1.RT_Taste";"trial.deval1.startTime";"trial.deval1.stimulus type";"trial.devalPractice.durationTime";"trial.devalPractice.endTime";"trial.devalPractice.icon";"trial.devalPractice.Resp_Attractive";"trial.devalPractice.Resp_Eat";"trial.devalPractice.Resp_Taste";"trial.devalPractice.RT_Attractive";"trial.devalPractice.RT_Eat";"trial.devalPractice.RT_Taste";"trial.devalPractice.startTime";"trial.devalPractice.stimulus type";"trial.GoNoGo1.durationTime";"trial.GoNoGo1.endTime";"trial.GoNoGo1.Error Type";"trial.GoNoGo1.icon";"trial.GoNoGo1.location";"trial.GoNoGo1.outcome";"trial.GoNoGo1.response";"trial.GoNoGo1.result";"trial.GoNoGo1.RT";"trial.GoNoGo1.signal";"trial.GoNoGo1.startTime";"trial.GoNoGo1.stimulus type";"trial.GoNoGo2.durationTime";"trial.GoNoGo2.endTime";"trial.GoNoGo2.Error Type";"trial.GoNoGo2.icon";"trial.GoNoGo2.location";"trial.GoNoGo2.outcome";"trial.GoNoGo2.response";"trial.GoNoGo2.result";"trial.GoNoGo2.RT";"trial.GoNoGo2.signal";"trial.GoNoGo2.startTime";"trial.GoNoGo2.stimulus type";"trial.GoNoGo3.durationTime";"trial.GoNoGo3.endTime";"trial.GoNoGo3.Error Type";"trial.GoNoGo3.icon";"trial.GoNoGo3.location";"trial.GoNoGo3.outcome";"trial.GoNoGo3.response";"trial.GoNoGo3.result";"trial.GoNoGo3.RT";"trial.GoNoGo3.signal";"trial.GoNoGo3.startTime";"trial.GoNoGo3.stimulus type";"trial.GoNoGo4.durationTime";"trial.GoNoGo4.endTime";"trial.GoNoGo4.Error Type";"trial.GoNoGo4.icon";"trial.GoNoGo4.location";"trial.GoNoGo4.outcome";"trial.GoNoGo4.response";"trial.GoNoGo4.result";"trial.GoNoGo4.RT";"trial.GoNoGo4.signal";"trial.GoNoGo4.startTime";"trial.GoNoGo4.stimulus type";"trial.GoNoGo_Practice.durationTime";"trial.GoNoGo_Practice.endTime";"trial.GoNoGo_Practice.icon";"trial.GoNoGo_Practice.location";"trial.GoNoGo_Practice.outcome";"trial.GoNoGo_Practice.response";"trial.GoNoGo_Practice.result";"trial.GoNoGo_Practice.RT";"trial.GoNoGo_Practice.signal";"trial.GoNoGo_Practice.startTime";"trial.GoNoGo_Practice.stimulus type";"trial.GoNoGo_Tutorial.durationTime";"trial.GoNoGo_Tutorial.endTime";"trial.GoNoGo_Tutorial.icon";"trial.GoNoGo_Tutorial.location";"trial.GoNoGo_Tutorial.outcome";"trial.GoNoGo_Tutorial.response";"trial.GoNoGo_Tutorial.result";"trial.GoNoGo_Tutorial.RT";"trial.GoNoGo_Tutorial.signal";"trial.GoNoGo_Tutorial.startTime"
"Nectarine92";"1992";;"Windows 7";"Rachel's Experiment (D.T.)";"1.0";"2";"1";"1";"2";"1";"1";"2014-10-16 13:32:45.751";"2014-10-16 13:45:30.901";"1";"1";"1";"1";"0";"module.GoNoGotutorial.exec-9144.GoNoGo_Tutorial";;;;;;;;;;;;;;;;;;;;;;;;;;;;;;;;;;;;;;;;;;;;;;;;;;;;;;;;;;;;;;;;;;;;;;;;;;;;;;;;;;"3998";"2014-10-16 13:33:35.562";"leftResponse";"0";"FINISHED";"NONE";"failure";"0";"0";"2014-10-16 13:33:31.553"
"Nectarine92";"1992";;"Windows 7";"Rachel's Experiment (D.T.)";"1.0";"2";"1";"1";"2";"1";"1";"2014-10-16 13:32:45.751";"2014-10-16 13:45:30.901";"1";"1";"1";"2";"1";"module.GoNoGotutorial.exec-9144.GoNoGo_Tutorial";;;;;;;;;;;;;;;;;;;;;;;;;;;;;;;;;;;;;;;;;;;;;;;;;;;;;;;;;;;;;;;;;;;;;;;;;;;;;;;;;;"4003";"2014-10-16 13:33:40.866";"rightResponse";"1";"FINISHED";"RIGHT";"success";"1379";"0";"2014-10-16 13:33:36.857"
"Nectarine92";"1992";;"Windows 7";"Rachel's Experiment (D.T.)";"1.0";"2";"1";"1";"2";"1";"1";"2014-10-16 13:32:45.751";"2014-10-16 13:45:30.901";"1";"1";"1";"3";"2";"module.GoNoGotutorial.exec-9144.GoNoGo_Tutorial";;;;;;;;;;;;;;;;;;;;;;;;;;;;;;;;;;;;;;;;;;;;;;;;;;;;;;;;;;;;;;;;;;;;;;;;;;;;;;;;;;"4003";"2014-10-16 13:33:46.170";"signalResponse";"0";"FINISHED";"NONE";"success";"0";"1";"2014-10-16 13:33:42.161"
"Nectarine92";"1992";;"Windows 7";"Rachel's Experiment (D.T.)";"1.0";"2";"1";"1";"2";"1";"1";"2014-10-16 13:32:45.751";"2014-10-16 13:45:30.901";"1";"1";"1";"4";"3";"module.GoNoGopractice.exec-5802.GoNoGo_Practice";;;;;;;;;;;;;;;;;;;;;;;;;;;;;;;;;;;;;;;;;;;;;;;;;;;;;;;;;;;;;;;;;;;;;;;"1959";"2014-10-16 13:33:55.421";"18";"0";"FINISHED";"LEFT";"success";"499";"0";"2014-10-16 13:33:53.455";"3";;;;;;;;;;
"Nectarine92";"1992";;"Windows 7";"Rachel's Experiment (D.T.)";"1.0";"2";"1";"1";"2";"1";"1";"2014-10-16 13:32:45.751";"2014-10-16 13:45:30.901";"1";"1";"1";"5";"4";"module.GoNoGopractice.exec-5802.GoNoGo_Practice";;;;;;;;;;;;;;;;;;;;;;;;;;;;;;;;;;;;;;;;;;;;;;;;;;;;;;;;;;;;;;;;;;;;;;;"1953";"2014-10-16 13:33:58.666";"21";"1";"FINISHED";"RIGHT";"success";"457";"0";"2014-10-16 13:33:56.700";"3";;;;;;;;;;
"Nectarine92";"1992";;"Windows 7";"Rachel's Experiment (D.T.)";"1.0";"2";"1";"1";"2";"1";"1";"2014-10-16 13:32:45.751";"2014-10-16 13:45:30.901";"1";"1";"1";"6";"5";"module.GoNoGopractice.exec-5802.GoNoGo_Practice";;;;;;;;;;;;;;;;;;;;;;;;;;;;;;;;;;;;;;;;;;;;;;;;;;;;;;;;;;;;;;;;;;;;;;;"1959";"2014-10-16 13:34:01.910";"14";"1";"FINISHED";"NONE";"success";"0";"1";"2014-10-16 13:33:59.945";"2";;;;;;;;;;
"Nectarine92";"1992";;"Windows 7";"Rachel's Experiment (D.T.)";"1.0";"2";"1";"1";"2";"1";"1";"2014-10-16 13:32:45.751";"2014-10-16 13:45:30.901";"1";"1";"1";"7";"6";"module.GoNoGopractice.exec-5802.GoNoGo_Practice";;;;;;;;;;;;;;;;;;;;;;;;;;;;;;;;;;;;;;;;;;;;;;;;;;;;;;;;;;;;;;;;;;;;;;;"1959";"2014-10-16 13:34:05.155";"26";"0";"FINISHED";"LEFT";"success";"534";"0";"2014-10-16 13:34:03.190";"3";;;;;;;;;;
"Nectarine92";"1992";;"Windows 7";"Rachel's Experiment (D.T.)";"1.0";"2";"1";"1";"2";"1";"1";"2014-10-16 13:32:45.751";"2014-10-16 13:45:30.901";"1";"1";"1";"8";"7";"module.GoNoGopractice.exec-5802.GoNoGo_Practice";;;;;;;;;;;;;;;;;;;;;;;;;;;;;;;;;;;;;;;;;;;;;;;;;;;;;;;;;;;;;;;;;;;;;;;"1959";"2014-10-16 13:34:08.400";"2";"0";"FINISHED";"LEFT";"success";"545";"0";"2014-10-16 13:34:06.434";"1";;;;;;;;;;
"Nectarine92";"1992";;"Windows 7";"Rachel's Experiment (D.T.)";"1.0";"2";"1";"1";"2";"1";"1";"2014-10-16 13:32:45.751";"2014-10-16 13:45:30.901";"1";"1";"1";"9";"8";"module.GoNoGopractice.exec-5802.GoNoGo_Practice";;;;;;;;;;;;;;;;;;;;;;;;;;;;;;;;;;;;;;;;;;;;;;;;;;;;;;;;;;;;;;;;;;;;;;;"1960";"2014-10-16 13:34:11.645";"30";"0";"FINISHED";"NONE";"success";"0";"1";"2014-10-16 13:34:09.679";"3";;;;;;;;;;
"Nectarine92";"1992";;"Windows 7";"Rachel's Experiment (D.T.)";"1.0";"2";"1";"1";"2";"1";"1";"2014-10-16 13:32:45.751";"2014-10-16 13:45:30.901";"1";"1";"1";"10";"9";"module.GoNoGopractice.exec-5802.GoNoGo_Practice";;;;;;;;;;;;;;;;;;;;;;;;;;;;;;;;;;;;;;;;;;;;;;;;;;;;;;;;;;;;;;;;;;;;;;;"1959";"2014-10-16 13:34:14.890";"6";"1";"FINISHED";"NONE";"success";"0";"1";"2014-10-16 13:34:12.924";"1";;;;;;;;;;
"Nectarine92";"1992";;"Windows 7";"Rachel's Experiment (D.T.)";"1.0";"2";"1";"1";"2";"1";"1";"2014-10-16 13:32:45.751";"2014-10-16 13:45:30.901";"1";"1";"1";"11";"10";"module.GoNoGopractice.exec-5802.GoNoGo_Practice";;;;;;;;;;;;;;;;;;;;;;;;;;;;;;;;;;;;;;;;;;;;;;;;;;;;;;;;;;;;;;;;;;;;;;;"1960";"2014-10-16 13:34:18.134";"34";"0";"FINISHED";"LEFT";"success";"619";"0";"2014-10-16 13:34:16.169";"3";;;;;;;;;;
"Nectarine92";"1992";;"Windows 7";"Rachel's Experiment (D.T.)";"1.0";"2";"1";"1";"2";"1";"1";"2014-10-16 13:32:45.751";"2014-10-16 13:45:30.901";"1";"1";"1";"12";"11";"module.GoNoGopractice.exec-5802.GoNoGo_Practice";;;;;;;;;;;;;;;;;;;;;;;;;;;;;;;;;;;;;;;;;;;;;;;;;;;;;;;;;;;;;;;;;;;;;;;"1959";"2014-10-16 13:34:21.379";"23";"1";"FINISHED";"RIGHT";"success";"582";"0";"2014-10-16 13:34:19.414";"3";;;;;;;;;;
"Nectarine92";"1992";;"Windows 7";"Rachel's Experiment (D.T.)";"1.0";"2";"1";"1";"2";"1";"1";"2014-10-16 13:32:45.751";"2014-10-16 13:45:30.901";"1";"1";"1";"13";"12";"module.GoNoGopractice.exec-5802.GoNoGo_Practice";;;;;;;;;;;;;;;;;;;;;;;;;;;;;;;;;;;;;;;;;;;;;;;;;;;;;;;;;;;;;;;;;;;;;;;"1959";"2014-10-16 13:34:24.624";"13";"0";"FINISHED";"NONE";"success";"0";"1";"2014-10-16 13:34:22.658";"2";;;;;;;;;;
"Nectarine92";"1992";;"Windows 7";"Rachel's Experiment (D.T.)";"1.0";"2";"1";"1";"2";"1";"1";"2014-10-16 13:32:45.751";"2014-10-16 13:45:30.901";"1";"1";"1";"14";"13";"module.GoNoGopractice.exec-5802.GoNoGo_Practice";;;;;;;;;;;;;;;;;;;;;;;;;;;;;;;;;;;;;;;;;;;;;;;;;;;;;;;;;;;;;;;;;;;;;;;"1955";"2014-10-16 13:34:27.962";"3";"1";"FINISHED";"RIGHT";"success";"538";"0";"2014-10-16 13:34:25.997";"1";;;;;;;;;;
"Nectarine92";"1992";;"Windows 7";"Rachel's Experiment (D.T.)";"1.0";"2";"1";"1";"2";"1";"1";"2014-10-16 13:32:45.751";"2014-10-16 13:45:30.901";"1";"1";"1";"15";"14";"module.GoNoGopractice.exec-5802.GoNoGo_Practice";;;;;;;;;;;;;;;;;;;;;;;;;;;;;;;;;;;;;;;;;;;;;;;;;;;;;;;;;;;;;;;;;;;;;;;"1958";"2014-10-16 13:34:31.207";"27";"1";"FINISHED";"NONE";"success";"0";"1";"2014-10-16 13:34:29.242";"3";;;;;;;;;;
"Nectarine92";"1992";;"Windows 7";"Rachel's Experiment (D.T.)";"1.0";"2";"1";"1";"2";"1";"1";"2014-10-16 13:32:45.751";"2014-10-16 13:45:30.901";"1";"1";"1";"16";"15";"module.training_block1.exec-4878.GoNoGo1";;;;;;;;;;;;;;;;;;;;;;;"1257";"2014-10-16 13:34:41.612";"NST_correctLoc";"9";"1";"FINISHED";"RIGHT";"success";"453";"0";"2014-10-16 13:34:40.349";"2";;;;;;;;;;;;;;;;;;;;;;;;;;;;;;;;;;;;;;;;;;;;;;;;;;;;;;;;;
"Nectarine92";"1992";;"Windows 7";"Rachel's Experiment (D.T.)";"1.0";"2";"1";"1";"2";"1";"1";"2014-10-16 13:32:45.751";"2014-10-16 13:45:30.901";"1";"1";"1";"17";"16";"module.training_block1.exec-4878.GoNoGo1";;;;;;;;;;;;;;;;;;;;;;;"1258";"2014-10-16 13:34:44.155";"ST_correctStop";"31";"0";"FINISHED";"NONE";"success";"0";"1";"2014-10-16 13:34:42.892";"3";;;;;;;;;;;;;;;;;;;;;;;;;;;;;;;;;;;;;;;;;;;;;;;;;;;;;;;;;
"Nectarine92";"1992";;"Windows 7";"Rachel's Experiment (D.T.)";"1.0";"2";"1";"1";"2";"1";"1";"2014-10-16 13:32:45.751";"2014-10-16 13:45:30.901";"1";"1";"1";"18";"17";"module.training_block1.exec-4878.GoNoGo1";;;;;;;;;;;;;;;;;;;;;;;"1257";"2014-10-16 13:34:46.698";"ST_correctStop";"6";"0";"FINISHED";"NONE";"success";"0";"1";"2014-10-16 13:34:45.434";"1";;;;;;;;;;;;;;;;;;;;;;;;;;;;;;;;;;;;;;;;;;;;;;;;;;;;;;;;;
"Nectarine92";"1992";;"Windows 7";"Rachel's Experiment (D.T.)";"1.0";"2";"1";"1";"2";"1";"1";"2014-10-16 13:32:45.751";"2014-10-16 13:45:30.901";"1";"1";"1";"19";"18";"module.training_block1.exec-4878.GoNoGo1";;;;;;;;;;;;;;;;;;;;;;;"1257";"2014-10-16 13:34:49.241";"ST_correctStop";"23";"0";"FINISHED";"NONE";"success";"0";"1";"2014-10-16 13:34:47.977";"3";;;;;;;;;;;;;;;;;;;;;;;;;;;;;;;;;;;;;;;;;;;;;;;;;;;;;;;;;
"Nectarine92";"1992";;"Windows 7";"Rachel's Experiment (D.T.)";"1.0";"2";"1";"1";"2";"1";"1";"2014-10-16 13:32:45.751";"2014-10-16 13:45:30.901";"1";"1";"1";"20";"19";"module.training_block1.exec-4878.GoNoGo1";;;;;;;;;;;;;;;;;;;;;;;"1258";"2014-10-16 13:34:51.784";"NST_correctLoc";"16";"1";"FINISHED";"RIGHT";"success";"531";"0";"2014-10-16 13:34:50.520";"2";;;;;;;;;;;;;;;;;;;;;;;;;;;;;;;;;;;;;;;;;;;;;;;;;;;;;;;;;
"Nectarine92";"1992";;"Windows 7";"Rachel's Experiment (D.T.)";"1.0";"2";"1";"1";"2";"1";"1";"2014-10-16 13:32:45.751";"2014-10-16 13:45:30.901";"1";"1";"1";"21";"20";"module.training_block1.exec-4878.GoNoGo1";;;;;;;;;;;;;;;;;;;;;;;"1258";"2014-10-16 13:34:54.326";"NST_correctLoc";"29";"1";"FINISHED";"RIGHT";"success";"477";"0";"2014-10-16 13:34:53.063";"3";;;;;;;;;;;;;;;;;;;;;;;;;;;;;;;;;;;;;;;;;;;;;;;;;;;;;;;;;
"Nectarine92";"1992";;"Windows 7";"Rachel's Experiment (D.T.)";"1.0";"2";"1";"1";"2";"1";"1";"2014-10-16 13:32:45.751";"2014-10-16 13:45:30.901";"1";"1";"1";"22";"21";"module.training_block1.exec-4878.GoNoGo1";;;;;;;;;;;;;;;;;;;;;;;"1261";"2014-10-16 13:34:56.869";"ST_correctStop";"3";"0";"FINISHED";"NONE";"success";"0";"1";"2014-10-16 13:34:55.606";"1";;;;;;;;;;;;;;;;;;;;;;;;;;;;;;;;;;;;;;;;;;;;;;;;;;;;;;;;;
"Nectarine92";"1992";;"Windows 7";"Rachel's Experiment (D.T.)";"1.0";"2";"1";"1";"2";"1";"1";"2014-10-16 13:32:45.751";"2014-10-16 13:45:30.901";"1";"1";"1";"23";"22";"module.training_block1.exec-4878.GoNoGo1";;;;;;;;;;;;;;;;;;;;;;;"1257";"2014-10-16 13:34:59.412";"ST_correctStop";"20";"0";"FINISHED";"NONE";"success";"0";"1";"2014-10-16 13:34:58.148";"3";;;;;;;;;;;;;;;;;;;;;;;;;;;;;;;;;;;;;;;;;;;;;;;;;;;;;;;;;
"Nectarine92";"1992";;"Windows 7";"Rachel's Experiment (D.T.)";"1.0";"2";"1";"1";"2";"1";"1";"2014-10-16 13:32:45.751";"2014-10-16 13:45:30.901";"1";"1";"1";"24";"23";"module.training_block1.exec-4878.GoNoGo1";;;;;;;;;;;;;;;;;;;;;;;"1257";"2014-10-16 13:35:01.955";"NST_correctLoc";"17";"0";"FINISHED";"LEFT";"success";"471";"0";"2014-10-16 13:35:00.691";"2";;;;;;;;;;;;;;;;;;;;;;;;;;;;;;;;;;;;;;;;;;;;;;;;;;;;;;;;;
"Nectarine92";"1992";;"Windows 7";"Rachel's Experiment (D.T.)";"1.0";"2";"1";"1";"2";"1";"1";"2014-10-16 13:32:45.751";"2014-10-16 13:45:30.901";"1";"1";"1";"25";"24";"module.training_block1.exec-4878.GoNoGo1";;;;;;;;;;;;;;;;;;;;;;;"1258";"2014-10-16 13:35:04.498";"NST_correctLoc";"30";"0";"FINISHED";"LEFT";"success";"673";"0";"2014-10-16 13:35:03.234";"3";;;;;;;;;;;;;;;;;;;;;;;;;;;;;;;;;;;;;;;;;;;;;;;;;;;;;;;;;
"Nectarine92";"1992";;"Windows 7";"Rachel's Experiment (D.T.)";"1.0";"2";"1";"1";"2";"1";"1";"2014-10-16 13:32:45.751";"2014-10-16 13:45:30.901";"1";"1";"1";"26";"25";"module.training_block1.exec-4878.GoNoGo1";;;;;;;;;;;;;;;;;;;;;;;"1258";"2014-10-16 13:35:07.040";"ST_correctStop";"18";"0";"FINISHED";"NONE";"success";"0";"1";"2014-10-16 13:35:05.777";"3";;;;;;;;;;;;;;;;;;;;;;;;;;;;;;;;;;;;;;;;;;;;;;;;;;;;;;;;;
"Nectarine92";"1992";;"Windows 7";"Rachel's Experiment (D.T.)";"1.0";"2";"1";"1";"2";"1";"1";"2014-10-16 13:32:45.751";"2014-10-16 13:45:30.901";"1";"1";"1";"27";"26";"module.training_block1.exec-4878.GoNoGo1";;;;;;;;;;;;;;;;;;;;;;;"1257";"2014-10-16 13:35:09.583";"NST_correctLoc";"15";"0";"FINISHED";"LEFT";"success";"451";"0";"2014-10-16 13:35:08.320";"2";;;;;;;;;;;;;;;;;;;;;;;;;;;;;;;;;;;;;;;;;;;;;;;;;;;;;;;;;
"Nectarine92";"1992";;"Windows 7";"Rachel's Experiment (D.T.)";"1.0";"2";"1";"1";"2";"1";"1";"2014-10-16 13:32:45.751";"2014-10-16 13:45:30.901";"1";"1";"1";"28";"27";"module.training_block1.exec-4878.GoNoGo1";;;;;;;;;;;;;;;;;;;;;;;"1253";"2014-10-16 13:35:12.126";"NST_correctLoc";"13";"1";"FINISHED";"RIGHT";"success";"456";"0";"2014-10-16 13:35:10.862";"2";;;;;;;;;;;;;;;;;;;;;;;;;;;;;;;;;;;;;;;;;;;;;;;;;;;;;;;;;
"Nectarine92";"1992";;"Windows 7";"Rachel's Experiment (D.T.)";"1.0";"2";"1";"1";"2";"1";"1";"2014-10-16 13:32:45.751";"2014-10-16 13:45:30.901";"1";"1";"1";"29";"28";"module.training_block1.exec-4878.GoNoGo1";;;;;;;;;;;;;;;;;;;;;;;"1257";"2014-10-16 13:35:14.669";"ST_correctStop";"8";"0";"FINISHED";"NONE";"success";"0";"1";"2014-10-16 13:35:13.405";"1";;;;;;;;;;;;;;;;;;;;;;;;;;;;;;;;;;;;;;;;;;;;;;;;;;;;;;;;;
"Nectarine92";"1992";;"Windows 7";"Rachel's Experiment (D.T.)";"1.0";"2";"1";"1";"2";"1";"1";"2014-10-16 13:32:45.751";"2014-10-16 13:45:30.901";"1";"1";"1";"30";"29";"module.training_block1.exec-4878.GoNoGo1";;;;;;;;;;;;;;;;;;;;;;;"1257";"2014-10-16 13:35:17.212";"ST_correctStop";"4";"1";"FINISHED";"NONE";"success";"0";"1";"2014-10-16 13:35:15.948";"1";;;;;;;;;;;;;;;;;;;;;;;;;;;;;;;;;;;;;;;;;;;;;;;;;;;;;;;;;
"Nectarine92";"1992";;"Windows 7";"Rachel's Experiment (D.T.)";"1.0";"2";"1";"1";"2";"1";"1";"2014-10-16 13:32:45.751";"2014-10-16 13:45:30.901";"1";"1";"1";"31";"30";"module.training_block1.exec-4878.GoNoGo1";;;;;;;;;;;;;;;;;;;;;;;"1258";"2014-10-16 13:35:19.755";"NST_correctLoc";"28";"0";"FINISHED";"LEFT";"success";"425";"0";"2014-10-16 13:35:18.491";"3";;;;;;;;;;;;;;;;;;;;;;;;;;;;;;;;;;;;;;;;;;;;;;;;;;;;;;;;;
"Nectarine92";"1992";;"Windows 7";"Rachel's Experiment (D.T.)";"1.0";"2";"1";"1";"2";"1";"1";"2014-10-16 13:32:45.751";"2014-10-16 13:45:30.901";"1";"1";"1";"32";"31";"module.training_block1.exec-4878.GoNoGo1";;;;;;;;;;;;;;;;;;;;;;;"1258";"2014-10-16 13:35:22.297";"NST_correctLoc";"35";"0";"FINISHED";"LEFT";"success";"474";"0";"2014-10-16 13:35:21.034";"3";;;;;;;;;;;;;;;;;;;;;;;;;;;;;;;;;;;;;;;;;;;;;;;;;;;;;;;;;
"Nectarine92";"1992";;"Windows 7";"Rachel's Experiment (D.T.)";"1.0";"2";"1";"1";"2";"1";"1";"2014-10-16 13:32:45.751";"2014-10-16 13:45:30.901";"1";"1";"1";"33";"32";"module.training_block1.exec-4878.GoNoGo1";;;;;;;;;;;;;;;;;;;;;;;"1258";"2014-10-16 13:35:24.840";"ST_correctStop";"19";"1";"FINISHED";"NONE";"success";"0";"1";"2014-10-16 13:35:23.577";"3";;;;;;;;;;;;;;;;;;;;;;;;;;;;;;;;;;;;;;;;;;;;;;;;;;;;;;;;;
"Nectarine92";"1992";;"Windows 7";"Rachel's Experiment (D.T.)";"1.0";"2";"1";"1";"2";"1";"1";"2014-10-16 13:32:45.751";"2014-10-16 13:45:30.901";"1";"1";"1";"34";"33";"module.training_block1.exec-4878.GoNoGo1";;;;;;;;;;;;;;;;;;;;;;;"1258";"2014-10-16 13:35:27.383";"ST_correctStop";"34";"0";"FINISHED";"NONE";"success";"0";"1";"2014-10-16 13:35:26.119";"3";;;;;;;;;;;;;;;;;;;;;;;;;;;;;;;;;;;;;;;;;;;;;;;;;;;;;;;;;
"Nectarine92";"1992";;"Windows 7";"Rachel's Experiment (D.T.)";"1.0";"2";"1";"1";"2";"1";"1";"2014-10-16 13:32:45.751";"2014-10-16 13:45:30.901";"1";"1";"1";"35";"34";"module.training_block1.exec-4878.GoNoGo1";;;;;;;;;;;;;;;;;;;;;;;"1257";"2014-10-16 13:35:29.926";"NST_correctLoc";"21";"0";"FINISHED";"LEFT";"success";"500";"0";"2014-10-16 13:35:28.662";"3";;;;;;;;;;;;;;;;;;;;;;;;;;;;;;;;;;;;;;;;;;;;;;;;;;;;;;;;;
"Nectarine92";"1992";;"Windows 7";"Rachel's Experiment (D.T.)";"1.0";"2";"1";"1";"2";"1";"1";"2014-10-16 13:32:45.751";"2014-10-16 13:45:30.901";"1";"1";"1";"36";"35";"module.training_block1.exec-4878.GoNoGo1";;;;;;;;;;;;;;;;;;;;;;;"1258";"2014-10-16 13:35:32.469";"ST_correctStop";"22";"0";"FINISHED";"NONE";"success";"0";"1";"2014-10-16 13:35:31.205";"3";;;;;;;;;;;;;;;;;;;;;;;;;;;;;;;;;;;;;;;;;;;;;;;;;;;;;;;;;
"Nectarine92";"1992";;"Windows 7";"Rachel's Experiment (D.T.)";"1.0";"2";"1";"1";"2";"1";"1";"2014-10-16 13:32:45.751";"2014-10-16 13:45:30.901";"1";"1";"1";"37";"36";"module.training_block1.exec-4878.GoNoGo1";;;;;;;;;;;;;;;;;;;;;;;"1257";"2014-10-16 13:35:35.011";"NST_correctLoc";"10";"1";"FINISHED";"RIGHT";"success";"415";"0";"2014-10-16 13:35:33.748";"2";;;;;;;;;;;;;;;;;;;;;;;;;;;;;;;;;;;;;;;;;;;;;;;;;;;;;;;;;
"Nectarine92";"1992";;"Windows 7";"Rachel's Experiment (D.T.)";"1.0";"2";"1";"1";"2";"1";"1";"2014-10-16 13:32:45.751";"2014-10-16 13:45:30.901";"1";"1";"1";"38";"37";"module.training_block1.exec-4878.GoNoGo1";;;;;;;;;;;;;;;;;;;;;;;"1257";"2014-10-16 13:35:37.554";"ST_correctStop";"2";"0";"FINISHED";"NONE";"success";"0";"1";"2014-10-16 13:35:36.291";"1";;;;;;;;;;;;;;;;;;;;;;;;;;;;;;;;;;;;;;;;;;;;;;;;;;;;;;;;;
"Nectarine92";"1992";;"Windows 7";"Rachel's Experiment (D.T.)";"1.0";"2";"1";"1";"2";"1";"1";"2014-10-16 13:32:45.751";"2014-10-16 13:45:30.901";"1";"1";"1";"39";"38";"module.training_block1.exec-4878.GoNoGo1";;;;;;;;;;;;;;;;;;;;;;;"1258";"2014-10-16 13:35:40.097";"ST_correctStop";"1";"1";"FINISHED";"NONE";"success";"0";"1";"2014-10-16 13:35:38.833";"1";;;;;;;;;;;;;;;;;;;;;;;;;;;;;;;;;;;;;;;;;;;;;;;;;;;;;;;;;
"Nectarine92";"1992";;"Windows 7";"Rachel's Experiment (D.T.)";"1.0";"2";"1";"1";"2";"1";"1";"2014-10-16 13:32:45.751";"2014-10-16 13:45:30.901";"1";"1";"1";"40";"39";"module.training_block1.exec-4878.GoNoGo1";;;;;;;;;;;;;;;;;;;;;;;"1258";"2014-10-16 13:35:42.640";"NST_correctLoc";"33";"0";"FINISHED";"LEFT";"success";"435";"0";"2014-10-16 13:35:41.376";"3";;;;;;;;;;;;;;;;;;;;;;;;;;;;;;;;;;;;;;;;;;;;;;;;;;;;;;;;;
"Nectarine92";"1992";;"Windows 7";"Rachel's Experiment (D.T.)";"1.0";"2";"1";"1";"2";"1";"1";"2014-10-16 13:32:45.751";"2014-10-16 13:45:30.901";"1";"1";"1";"41";"40";"module.training_block1.exec-4878.GoNoGo1";;;;;;;;;;;;;;;;;;;;;;;"1257";"2014-10-16 13:35:45.183";"NST_correctLoc";"32";"0";"FINISHED";"LEFT";"success";"468";"0";"2014-10-16 13:35:43.919";"3";;;;;;;;;;;;;;;;;;;;;;;;;;;;;;;;;;;;;;;;;;;;;;;;;;;;;;;;;
"Nectarine92";"1992";;"Windows 7";"Rachel's Experiment (D.T.)";"1.0";"2";"1";"1";"2";"1";"1";"2014-10-16 13:32:45.751";"2014-10-16 13:45:30.901";"1";"1";"1";"42";"41";"module.training_block1.exec-4878.GoNoGo1";;;;;;;;;;;;;;;;;;;;;;;"1258";"2014-10-16 13:35:47.725";"NST_correctLoc";"12";"1";"FINISHED";"RIGHT";"success";"445";"0";"2014-10-16 13:35:46.462";"2";;;;;;;;;;;;;;;;;;;;;;;;;;;;;;;;;;;;;;;;;;;;;;;;;;;;;;;;;
"Nectarine92";"1992";;"Windows 7";"Rachel's Experiment (D.T.)";"1.0";"2";"1";"1";"2";"1";"1";"2014-10-16 13:32:45.751";"2014-10-16 13:45:30.901";"1";"1";"1";"43";"42";"module.training_block1.exec-4878.GoNoGo1";;;;;;;;;;;;;;;;;;;;;;;"1261";"2014-10-16 13:35:50.268";"NST_correctLoc";"27";"1";"FINISHED";"RIGHT";"success";"546";"0";"2014-10-16 13:35:49.005";"3";;;;;;;;;;;;;;;;;;;;;;;;;;;;;;;;;;;;;;;;;;;;;;;;;;;;;;;;;
"Nectarine92";"1992";;"Windows 7";"Rachel's Experiment (D.T.)";"1.0";"2";"1";"1";"2";"1";"1";"2014-10-16 13:32:45.751";"2014-10-16 13:45:30.901";"1";"1";"1";"44";"43";"module.training_block1.exec-4878.GoNoGo1";;;;;;;;;;;;;;;;;;;;;;;"1257";"2014-10-16 13:35:52.811";"NST_correctLoc";"11";"1";"FINISHED";"RIGHT";"success";"503";"0";"2014-10-16 13:35:51.547";"2";;;;;;;;;;;;;;;;;;;;;;;;;;;;;;;;;;;;;;;;;;;;;;;;;;;;;;;;;
"Nectarine92";"1992";;"Windows 7";"Rachel's Experiment (D.T.)";"1.0";"2";"1";"1";"2";"1";"1";"2014-10-16 13:32:45.751";"2014-10-16 13:45:30.901";"1";"1";"1";"45";"44";"module.training_block1.exec-4878.GoNoGo1";;;;;;;;;;;;;;;;;;;;;;;"1257";"2014-10-16 13:35:55.354";"NST_correctLoc";"14";"0";"FINISHED";"LEFT";"success";"425";"0";"2014-10-16 13:35:54.090";"2";;;;;;;;;;;;;;;;;;;;;;;;;;;;;;;;;;;;;;;;;;;;;;;;;;;;;;;;;
"Nectarine92";"1992";;"Windows 7";"Rachel's Experiment (D.T.)";"1.0";"2";"1";"1";"2";"1";"1";"2014-10-16 13:32:45.751";"2014-10-16 13:45:30.901";"1";"1";"1";"46";"45";"module.training_block1.exec-4878.GoNoGo1";;;;;;;;;;;;;;;;;;;;;;;"1257";"2014-10-16 13:35:57.897";"NST_correctLoc";"26";"0";"FINISHED";"LEFT";"success";"458";"0";"2014-10-16 13:35:56.633";"3";;;;;;;;;;;;;;;;;;;;;;;;;;;;;;;;;;;;;;;;;;;;;;;;;;;;;;;;;
"Nectarine92";"1992";;"Windows 7";"Rachel's Experiment (D.T.)";"1.0";"2";"1";"1";"2";"1";"1";"2014-10-16 13:32:45.751";"2014-10-16 13:45:30.901";"1";"1";"1";"47";"46";"module.training_block1.exec-4878.GoNoGo1";;;;;;;;;;;;;;;;;;;;;;;"1257";"2014-10-16 13:36:00.439";"ST_correctStop";"5";"1";"FINISHED";"NONE";"success";"0";"1";"2014-10-16 13:35:59.176";"1";;;;;;;;;;;;;;;;;;;;;;;;;;;;;;;;;;;;;;;;;;;;;;;;;;;;;;;;;
"Nectarine92";"1992";;"Windows 7";"Rachel's Experiment (D.T.)";"1.0";"2";"1";"1";"2";"1";"1";"2014-10-16 13:32:45.751";"2014-10-16 13:45:30.901";"1";"1";"1";"48";"47";"module.training_block1.exec-4878.GoNoGo1";;;;;;;;;;;;;;;;;;;;;;;"1257";"2014-10-16 13:36:02.982";"ST_correctStop";"7";"1";"FINISHED";"NONE";"success";"0";"1";"2014-10-16 13:36:01.719";"1";;;;;;;;;;;;;;;;;;;;;;;;;;;;;;;;;;;;;;;;;;;;;;;;;;;;;;;;;
"Nectarine92";"1992";;"Windows 7";"Rachel's Experiment (D.T.)";"1.0";"2";"1";"1";"2";"1";"1";"2014-10-16 13:32:45.751";"2014-10-16 13:45:30.901";"1";"1";"1";"49";"48";"module.training_block1.exec-4878.GoNoGo1";;;;;;;;;;;;;;;;;;;;;;;"1258";"2014-10-16 13:36:05.525";"ST_correctStop";"25";"1";"FINISHED";"NONE";"success";"0";"1";"2014-10-16 13:36:04.261";"3";;;;;;;;;;;;;;;;;;;;;;;;;;;;;;;;;;;;;;;;;;;;;;;;;;;;;;;;;
"Nectarine92";"1992";;"Windows 7";"Rachel's Experiment (D.T.)";"1.0";"2";"1";"1";"2";"1";"1";"2014-10-16 13:32:45.751";"2014-10-16 13:45:30.901";"1";"1";"1";"50";"49";"module.training_block1.exec-4878.GoNoGo1";;;;;;;;;;;;;;;;;;;;;;;"1258";"2014-10-16 13:36:08.068";"ST_correctStop";"0";"1";"FINISHED";"NONE";"success";"0";"1";"2014-10-16 13:36:06.804";"1";;;;;;;;;;;;;;;;;;;;;;;;;;;;;;;;;;;;;;;;;;;;;;;;;;;;;;;;;
"Nectarine92";"1992";;"Windows 7";"Rachel's Experiment (D.T.)";"1.0";"2";"1";"1";"2";"1";"1";"2014-10-16 13:32:45.751";"2014-10-16 13:45:30.901";"1";"1";"1";"51";"50";"module.training_block1.exec-4878.GoNoGo1";;;;;;;;;;;;;;;;;;;;;;;"1258";"2014-10-16 13:36:10.626";"ST_correctStop";"24";"0";"FINISHED";"NONE";"success";"0";"1";"2014-10-16 13:36:09.363";"3";;;;;;;;;;;;;;;;;;;;;;;;;;;;;;;;;;;;;;;;;;;;;;;;;;;;;;;;;
"Nectarine92";"1992";;"Windows 7";"Rachel's Experiment (D.T.)";"1.0";"2";"1";"1";"2";"1";"1";"2014-10-16 13:32:45.751";"2014-10-16 13:45:30.901";"1";"1";"1";"52";"51";"module.training_block2.exec-5859.GoNoGo2";;;;;;;;;;;;;;;;;;;;;;;;;;;;;;;;;;;"1261";"2014-10-16 13:36:21.718";"ST_correctStop";"6";"1";"FINISHED";"NONE";"success";"0";"1";"2014-10-16 13:36:20.454";"1";;;;;;;;;;;;;;;;;;;;;;;;;;;;;;;;;;;;;;;;;;;;;
"Nectarine92";"1992";;"Windows 7";"Rachel's Experiment (D.T.)";"1.0";"2";"1";"1";"2";"1";"1";"2014-10-16 13:32:45.751";"2014-10-16 13:45:30.901";"1";"1";"1";"53";"52";"module.training_block2.exec-5859.GoNoGo2";;;;;;;;;;;;;;;;;;;;;;;;;;;;;;;;;;;"1261";"2014-10-16 13:36:24.261";"NST_correctLoc";"24";"0";"FINISHED";"LEFT";"success";"449";"0";"2014-10-16 13:36:22.997";"3";;;;;;;;;;;;;;;;;;;;;;;;;;;;;;;;;;;;;;;;;;;;;
"Nectarine92";"1992";;"Windows 7";"Rachel's Experiment (D.T.)";"1.0";"2";"1";"1";"2";"1";"1";"2014-10-16 13:32:45.751";"2014-10-16 13:45:30.901";"1";"1";"1";"54";"53";"module.training_block2.exec-5859.GoNoGo2";;;;;;;;;;;;;;;;;;;;;;;;;;;;;;;;;;;"1261";"2014-10-16 13:36:26.803";"ST_correctStop";"35";"1";"FINISHED";"NONE";"success";"0";"1";"2014-10-16 13:36:25.540";"3";;;;;;;;;;;;;;;;;;;;;;;;;;;;;;;;;;;;;;;;;;;;;
"Nectarine92";"1992";;"Windows 7";"Rachel's Experiment (D.T.)";"1.0";"2";"1";"1";"2";"1";"1";"2014-10-16 13:32:45.751";"2014-10-16 13:45:30.901";"1";"1";"1";"55";"54";"module.training_block2.exec-5859.GoNoGo2";;;;;;;;;;;;;;;;;;;;;;;;;;;;;;;;;;;"1261";"2014-10-16 13:36:29.346";"ST_correctStop";"7";"1";"FINISHED";"NONE";"success";"0";"1";"2014-10-16 13:36:28.083";"1";;;;;;;;;;;;;;;;;;;;;;;;;;;;;;;;;;;;;;;;;;;;;
"Nectarine92";"1992";;"Windows 7";"Rachel's Experiment (D.T.)";"1.0";"2";"1";"1";"2";"1";"1";"2014-10-16 13:32:45.751";"2014-10-16 13:45:30.901";"1";"1";"1";"56";"55";"module.training_block2.exec-5859.GoNoGo2";;;;;;;;;;;;;;;;;;;;;;;;;;;;;;;;;;;"1261";"2014-10-16 13:36:31.889";"ST_correctStop";"21";"0";"FINISHED";"NONE";"success";"0";"1";"2014-10-16 13:36:30.625";"3";;;;;;;;;;;;;;;;;;;;;;;;;;;;;;;;;;;;;;;;;;;;;
"Nectarine92";"1992";;"Windows 7";"Rachel's Experiment (D.T.)";"1.0";"2";"1";"1";"2";"1";"1";"2014-10-16 13:32:45.751";"2014-10-16 13:45:30.901";"1";"1";"1";"57";"56";"module.training_block2.exec-5859.GoNoGo2";;;;;;;;;;;;;;;;;;;;;;;;;;;;;;;;;;;"1261";"2014-10-16 13:36:34.432";"ST_correctStop";"8";"0";"FINISHED";"NONE";"success";"0";"1";"2014-10-16 13:36:33.168";"1";;;;;;;;;;;;;;;;;;;;;;;;;;;;;;;;;;;;;;;;;;;;;
"Nectarine92";"1992";;"Windows 7";"Rachel's Experiment (D.T.)";"1.0";"2";"1";"1";"2";"1";"1";"2014-10-16 13:32:45.751";"2014-10-16 13:45:30.901";"1";"1";"1";"58";"57";"module.training_block2.exec-5859.GoNoGo2";;;;;;;;;;;;;;;;;;;;;;;;;;;;;;;;;;;"1261";"2014-10-16 13:36:36.975";"ST_correctStop";"23";"1";"FINISHED";"NONE";"success";"0";"1";"2014-10-16 13:36:35.711";"3";;;;;;;;;;;;;;;;;;;;;;;;;;;;;;;;;;;;;;;;;;;;;
"Nectarine92";"1992";;"Windows 7";"Rachel's Experiment (D.T.)";"1.0";"2";"1";"1";"2";"1";"1";"2014-10-16 13:32:45.751";"2014-10-16 13:45:30.901";"1";"1";"1";"59";"58";"module.training_block2.exec-5859.GoNoGo2";;;;;;;;;;;;;;;;;;;;;;;;;;;;;;;;;;;"1261";"2014-10-16 13:36:39.517";"ST_correctStop";"0";"1";"FINISHED";"NONE";"success";"0";"1";"2014-10-16 13:36:38.254";"1";;;;;;;;;;;;;;;;;;;;;;;;;;;;;;;;;;;;;;;;;;;;;
"Nectarine92";"1992";;"Windows 7";"Rachel's Experiment (D.T.)";"1.0";"2";"1";"1";"2";"1";"1";"2014-10-16 13:32:45.751";"2014-10-16 13:45:30.901";"1";"1";"1";"60";"59";"module.training_block2.exec-5859.GoNoGo2";;;;;;;;;;;;;;;;;;;;;;;;;;;;;;;;;;;"1261";"2014-10-16 13:36:42.060";"ST_correctStop";"5";"1";"FINISHED";"NONE";"success";"0";"1";"2014-10-16 13:36:40.797";"1";;;;;;;;;;;;;;;;;;;;;;;;;;;;;;;;;;;;;;;;;;;;;
"Nectarine92";"1992";;"Windows 7";"Rachel's Experiment (D.T.)";"1.0";"2";"1";"1";"2";"1";"1";"2014-10-16 13:32:45.751";"2014-10-16 13:45:30.901";"1";"1";"1";"61";"60";"module.training_block2.exec-5859.GoNoGo2";;;;;;;;;;;;;;;;;;;;;;;;;;;;;;;;;;;"1261";"2014-10-16 13:36:44.603";"NST_correctLoc";"28";"0";"FINISHED";"LEFT";"success";"459";"0";"2014-10-16 13:36:43.339";"3";;;;;;;;;;;;;;;;;;;;;;;;;;;;;;;;;;;;;;;;;;;;;
"Nectarine92";"1992";;"Windows 7";"Rachel's Experiment (D.T.)";"1.0";"2";"1";"1";"2";"1";"1";"2014-10-16 13:32:45.751";"2014-10-16 13:45:30.901";"1";"1";"1";"62";"61";"module.training_block2.exec-5859.GoNoGo2";;;;;;;;;;;;;;;;;;;;;;;;;;;;;;;;;;;"1261";"2014-10-16 13:36:47.146";"ST_correctStop";"18";"0";"FINISHED";"NONE";"success";"0";"1";"2014-10-16 13:36:45.882";"3";;;;;;;;;;;;;;;;;;;;;;;;;;;;;;;;;;;;;;;;;;;;;
"Nectarine92";"1992";;"Windows 7";"Rachel's Experiment (D.T.)";"1.0";"2";"1";"1";"2";"1";"1";"2014-10-16 13:32:45.751";"2014-10-16 13:45:30.901";"1";"1";"1";"63";"62";"module.training_block2.exec-5859.GoNoGo2";;;;;;;;;;;;;;;;;;;;;;;;;;;;;;;;;;;"1261";"2014-10-16 13:36:49.689";"ST_correctStop";"4";"1";"FINISHED";"NONE";"success";"0";"1";"2014-10-16 13:36:48.425";"1";;;;;;;;;;;;;;;;;;;;;;;;;;;;;;;;;;;;;;;;;;;;;
"Nectarine92";"1992";;"Windows 7";"Rachel's Experiment (D.T.)";"1.0";"2";"1";"1";"2";"1";"1";"2014-10-16 13:32:45.751";"2014-10-16 13:45:30.901";"1";"1";"1";"64";"63";"module.training_block2.exec-5859.GoNoGo2";;;;;;;;;;;;;;;;;;;;;;;;;;;;;;;;;;;"1261";"2014-10-16 13:36:52.231";"ST_correctStop";"32";"0";"FINISHED";"NONE";"success";"0";"1";"2014-10-16 13:36:50.968";"3";;;;;;;;;;;;;;;;;;;;;;;;;;;;;;;;;;;;;;;;;;;;;
"Nectarine92";"1992";;"Windows 7";"Rachel's Experiment (D.T.)";"1.0";"2";"1";"1";"2";"1";"1";"2014-10-16 13:32:45.751";"2014-10-16 13:45:30.901";"1";"1";"1";"65";"64";"module.training_block2.exec-5859.GoNoGo2";;;;;;;;;;;;;;;;;;;;;;;;;;;;;;;;;;;"1261";"2014-10-16 13:36:54.774";"NST_correctLoc";"16";"0";"FINISHED";"LEFT";"success";"479";"0";"2014-10-16 13:36:53.511";"2";;;;;;;;;;;;;;;;;;;;;;;;;;;;;;;;;;;;;;;;;;;;;
"Nectarine92";"1992";;"Windows 7";"Rachel's Experiment (D.T.)";"1.0";"2";"1";"1";"2";"1";"1";"2014-10-16 13:32:45.751";"2014-10-16 13:45:30.901";"1";"1";"1";"66";"65";"module.training_block2.exec-5859.GoNoGo2";;;;;;;;;;;;;;;;;;;;;;;;;;;;;;;;;;;"1261";"2014-10-16 13:36:57.317";"NST_correctLoc";"10";"0";"FINISHED";"LEFT";"success";"521";"0";"2014-10-16 13:36:56.053";"2";;;;;;;;;;;;;;;;;;;;;;;;;;;;;;;;;;;;;;;;;;;;;
"Nectarine92";"1992";;"Windows 7";"Rachel's Experiment (D.T.)";"1.0";"2";"1";"1";"2";"1";"1";"2014-10-16 13:32:45.751";"2014-10-16 13:45:30.901";"1";"1";"1";"67";"66";"module.training_block2.exec-5859.GoNoGo2";;;;;;;;;;;;;;;;;;;;;;;;;;;;;;;;;;;"1261";"2014-10-16 13:36:59.860";"ST_correctStop";"31";"0";"FINISHED";"NONE";"success";"0";"1";"2014-10-16 13:36:58.596";"3";;;;;;;;;;;;;;;;;;;;;;;;;;;;;;;;;;;;;;;;;;;;;
"Nectarine92";"1992";;"Windows 7";"Rachel's Experiment (D.T.)";"1.0";"2";"1";"1";"2";"1";"1";"2014-10-16 13:32:45.751";"2014-10-16 13:45:30.901";"1";"1";"1";"68";"67";"module.training_block2.exec-5859.GoNoGo2";;;;;;;;;;;;;;;;;;;;;;;;;;;;;;;;;;;"1261";"2014-10-16 13:37:02.403";"NST_correctLoc";"26";"0";"FINISHED";"LEFT";"success";"459";"0";"2014-10-16 13:37:01.139";"3";;;;;;;;;;;;;;;;;;;;;;;;;;;;;;;;;;;;;;;;;;;;;
"Nectarine92";"1992";;"Windows 7";"Rachel's Experiment (D.T.)";"1.0";"2";"1";"1";"2";"1";"1";"2014-10-16 13:32:45.751";"2014-10-16 13:45:30.901";"1";"1";"1";"69";"68";"module.training_block2.exec-5859.GoNoGo2";;;;;;;;;;;;;;;;;;;;;;;;;;;;;;;;;;;"1261";"2014-10-16 13:37:04.945";"ST_correctStop";"22";"1";"FINISHED";"NONE";"success";"0";"1";"2014-10-16 13:37:03.682";"3";;;;;;;;;;;;;;;;;;;;;;;;;;;;;;;;;;;;;;;;;;;;;
"Nectarine92";"1992";;"Windows 7";"Rachel's Experiment (D.T.)";"1.0";"2";"1";"1";"2";"1";"1";"2014-10-16 13:32:45.751";"2014-10-16 13:45:30.901";"1";"1";"1";"70";"69";"module.training_block2.exec-5859.GoNoGo2";;;;;;;;;;;;;;;;;;;;;;;;;;;;;;;;;;;"1261";"2014-10-16 13:37:07.488";"NST_correctLoc";"29";"0";"FINISHED";"LEFT";"success";"421";"0";"2014-10-16 13:37:06.225";"3";;;;;;;;;;;;;;;;;;;;;;;;;;;;;;;;;;;;;;;;;;;;;
"Nectarine92";"1992";;"Windows 7";"Rachel's Experiment (D.T.)";"1.0";"2";"1";"1";"2";"1";"1";"2014-10-16 13:32:45.751";"2014-10-16 13:45:30.901";"1";"1";"1";"71";"70";"module.training_block2.exec-5859.GoNoGo2";;;;;;;;;;;;;;;;;;;;;;;;;;;;;;;;;;;"1261";"2014-10-16 13:37:10.031";"NST_correctLoc";"33";"1";"FINISHED";"RIGHT";"success";"447";"0";"2014-10-16 13:37:08.768";"3";;;;;;;;;;;;;;;;;;;;;;;;;;;;;;;;;;;;;;;;;;;;;
"Nectarine92";"1992";;"Windows 7";"Rachel's Experiment (D.T.)";"1.0";"2";"1";"1";"2";"1";"1";"2014-10-16 13:32:45.751";"2014-10-16 13:45:30.901";"1";"1";"1";"72";"71";"module.training_block2.exec-5859.GoNoGo2";;;;;;;;;;;;;;;;;;;;;;;;;;;;;;;;;;;"1261";"2014-10-16 13:37:12.574";"NST_correctLoc";"9";"1";"FINISHED";"RIGHT";"success";"640";"0";"2014-10-16 13:37:11.310";"2";;;;;;;;;;;;;;;;;;;;;;;;;;;;;;;;;;;;;;;;;;;;;
"Nectarine92";"1992";;"Windows 7";"Rachel's Experiment (D.T.)";"1.0";"2";"1";"1";"2";"1";"1";"2014-10-16 13:32:45.751";"2014-10-16 13:45:30.901";"1";"1";"1";"73";"72";"module.training_block2.exec-5859.GoNoGo2";;;;;;;;;;;;;;;;;;;;;;;;;;;;;;;;;;;"1261";"2014-10-16 13:37:15.117";"ST_correctStop";"1";"1";"FINISHED";"NONE";"success";"0";"1";"2014-10-16 13:37:13.853";"1";;;;;;;;;;;;;;;;;;;;;;;;;;;;;;;;;;;;;;;;;;;;;
"Nectarine92";"1992";;"Windows 7";"Rachel's Experiment (D.T.)";"1.0";"2";"1";"1";"2";"1";"1";"2014-10-16 13:32:45.751";"2014-10-16 13:45:30.901";"1";"1";"1";"74";"73";"module.training_block2.exec-5859.GoNoGo2";;;;;;;;;;;;;;;;;;;;;;;;;;;;;;;;;;;"1261";"2014-10-16 13:37:17.660";"NST_correctLoc";"17";"0";"FINISHED";"LEFT";"success";"410";"0";"2014-10-16 13:37:16.396";"2";;;;;;;;;;;;;;;;;;;;;;;;;;;;;;;;;;;;;;;;;;;;;
"Nectarine92";"1992";;"Windows 7";"Rachel's Experiment (D.T.)";"1.0";"2";"1";"1";"2";"1";"1";"2014-10-16 13:32:45.751";"2014-10-16 13:45:30.901";"1";"1";"1";"75";"74";"module.training_block2.exec-5859.GoNoGo2";;;;;;;;;;;;;;;;;;;;;;;;;;;;;;;;;;;"1261";"2014-10-16 13:37:20.202";"NST_correctLoc";"20";"1";"FINISHED";"RIGHT";"success";"435";"0";"2014-10-16 13:37:18.939";"3";;;;;;;;;;;;;;;;;;;;;;;;;;;;;;;;;;;;;;;;;;;;;
"Nectarine92";"1992";;"Windows 7";"Rachel's Experiment (D.T.)";"1.0";"2";"1";"1";"2";"1";"1";"2014-10-16 13:32:45.751";"2014-10-16 13:45:30.901";"1";"1";"1";"76";"75";"module.training_block2.exec-5859.GoNoGo2";;;;;;;;;;;;;;;;;;;;;;;;;;;;;;;;;;;"1261";"2014-10-16 13:37:22.745";"ST_correctStop";"2";"1";"FINISHED";"NONE";"success";"0";"1";"2014-10-16 13:37:21.482";"1";;;;;;;;;;;;;;;;;;;;;;;;;;;;;;;;;;;;;;;;;;;;;
"Nectarine92";"1992";;"Windows 7";"Rachel's Experiment (D.T.)";"1.0";"2";"1";"1";"2";"1";"1";"2014-10-16 13:32:45.751";"2014-10-16 13:45:30.901";"1";"1";"1";"77";"76";"module.training_block2.exec-5859.GoNoGo2";;;;;;;;;;;;;;;;;;;;;;;;;;;;;;;;;;;"1261";"2014-10-16 13:37:25.288";"NST_correctLoc";"25";"1";"FINISHED";"RIGHT";"success";"534";"0";"2014-10-16 13:37:24.024";"3";;;;;;;;;;;;;;;;;;;;;;;;;;;;;;;;;;;;;;;;;;;;;
"Nectarine92";"1992";;"Windows 7";"Rachel's Experiment (D.T.)";"1.0";"2";"1";"1";"2";"1";"1";"2014-10-16 13:32:45.751";"2014-10-16 13:45:30.901";"1";"1";"1";"78";"77";"module.training_block2.exec-5859.GoNoGo2";;;;;;;;;;;;;;;;;;;;;;;;;;;;;;;;;;;"1261";"2014-10-16 13:37:27.831";"NST_correctLoc";"11";"0";"FINISHED";"LEFT";"success";"455";"0";"2014-10-16 13:37:26.567";"2";;;;;;;;;;;;;;;;;;;;;;;;;;;;;;;;;;;;;;;;;;;;;
"Nectarine92";"1992";;"Windows 7";"Rachel's Experiment (D.T.)";"1.0";"2";"1";"1";"2";"1";"1";"2014-10-16 13:32:45.751";"2014-10-16 13:45:30.901";"1";"1";"1";"79";"78";"module.training_block2.exec-5859.GoNoGo2";;;;;;;;;;;;;;;;;;;;;;;;;;;;;;;;;;;"1261";"2014-10-16 13:37:30.389";"ST_correctStop";"27";"1";"FINISHED";"NONE";"success";"0";"1";"2014-10-16 13:37:29.126";"3";;;;;;;;;;;;;;;;;;;;;;;;;;;;;;;;;;;;;;;;;;;;;
"Nectarine92";"1992";;"Windows 7";"Rachel's Experiment (D.T.)";"1.0";"2";"1";"1";"2";"1";"1";"2014-10-16 13:32:45.751";"2014-10-16 13:45:30.901";"1";"1";"1";"80";"79";"module.training_block2.exec-5859.GoNoGo2";;;;;;;;;;;;;;;;;;;;;;;;;;;;;;;;;;;"1261";"2014-10-16 13:37:32.932";"NST_correctLoc";"15";"1";"FINISHED";"RIGHT";"success";"434";"0";"2014-10-16 13:37:31.668";"2";;;;;;;;;;;;;;;;;;;;;;;;;;;;;;;;;;;;;;;;;;;;;
"Nectarine92";"1992";;"Windows 7";"Rachel's Experiment (D.T.)";"1.0";"2";"1";"1";"2";"1";"1";"2014-10-16 13:32:45.751";"2014-10-16 13:45:30.901";"1";"1";"1";"81";"80";"module.training_block2.exec-5859.GoNoGo2";;;;;;;;;;;;;;;;;;;;;;;;;;;;;;;;;;;"1261";"2014-10-16 13:37:35.475";"NST_correctLoc";"13";"1";"FINISHED";"RIGHT";"success";"451";"0";"2014-10-16 13:37:34.211";"2";;;;;;;;;;;;;;;;;;;;;;;;;;;;;;;;;;;;;;;;;;;;;
"Nectarine92";"1992";;"Windows 7";"Rachel's Experiment (D.T.)";"1.0";"2";"1";"1";"2";"1";"1";"2014-10-16 13:32:45.751";"2014-10-16 13:45:30.901";"1";"1";"1";"82";"81";"module.training_block2.exec-5859.GoNoGo2";;;;;;;;;;;;;;;;;;;;;;;;;;;;;;;;;;;"1261";"2014-10-16 13:37:38.018";"ST_correctStop";"3";"0";"FINISHED";"NONE";"success";"0";"1";"2014-10-16 13:37:36.754";"1";;;;;;;;;;;;;;;;;;;;;;;;;;;;;;;;;;;;;;;;;;;;;
"Nectarine92";"1992";;"Windows 7";"Rachel's Experiment (D.T.)";"1.0";"2";"1";"1";"2";"1";"1";"2014-10-16 13:32:45.751";"2014-10-16 13:45:30.901";"1";"1";"1";"83";"82";"module.training_block2.exec-5859.GoNoGo2";;;;;;;;;;;;;;;;;;;;;;;;;;;;;;;;;;;"1261";"2014-10-16 13:37:40.560";"NST_correctLoc";"14";"0";"FINISHED";"LEFT";"success";"469";"0";"2014-10-16 13:37:39.297";"2";;;;;;;;;;;;;;;;;;;;;;;;;;;;;;;;;;;;;;;;;;;;;
"Nectarine92";"1992";;"Windows 7";"Rachel's Experiment (D.T.)";"1.0";"2";"1";"1";"2";"1";"1";"2014-10-16 13:32:45.751";"2014-10-16 13:45:30.901";"1";"1";"1";"84";"83";"module.training_block2.exec-5859.GoNoGo2";;;;;;;;;;;;;;;;;;;;;;;;;;;;;;;;;;;"1261";"2014-10-16 13:37:43.103";"NST_correctLoc";"30";"1";"FINISHED";"RIGHT";"success";"438";"0";"2014-10-16 13:37:41.840";"3";;;;;;;;;;;;;;;;;;;;;;;;;;;;;;;;;;;;;;;;;;;;;
"Nectarine92";"1992";;"Windows 7";"Rachel's Experiment (D.T.)";"1.0";"2";"1";"1";"2";"1";"1";"2014-10-16 13:32:45.751";"2014-10-16 13:45:30.901";"1";"1";"1";"85";"84";"module.training_block2.exec-5859.GoNoGo2";;;;;;;;;;;;;;;;;;;;;;;;;;;;;;;;;;;"1261";"2014-10-16 13:37:45.646";"NST_correctLoc";"19";"1";"FINISHED";"RIGHT";"success";"448";"0";"2014-10-16 13:37:44.382";"3";;;;;;;;;;;;;;;;;;;;;;;;;;;;;;;;;;;;;;;;;;;;;
"Nectarine92";"1992";;"Windows 7";"Rachel's Experiment (D.T.)";"1.0";"2";"1";"1";"2";"1";"1";"2014-10-16 13:32:45.751";"2014-10-16 13:45:30.901";"1";"1";"1";"86";"85";"module.training_block2.exec-5859.GoNoGo2";;;;;;;;;;;;;;;;;;;;;;;;;;;;;;;;;;;"1261";"2014-10-16 13:37:48.189";"NST_correctLoc";"12";"0";"FINISHED";"LEFT";"success";"441";"0";"2014-10-16 13:37:46.925";"2";;;;;;;;;;;;;;;;;;;;;;;;;;;;;;;;;;;;;;;;;;;;;
"Nectarine92";"1992";;"Windows 7";"Rachel's Experiment (D.T.)";"1.0";"2";"1";"1";"2";"1";"1";"2014-10-16 13:32:45.751";"2014-10-16 13:45:30.901";"1";"1";"1";"87";"86";"module.training_block2.exec-5859.GoNoGo2";;;;;;;;;;;;;;;;;;;;;;;;;;;;;;;;;;;"1257";"2014-10-16 13:37:50.732";"ST_correctStop";"34";"1";"FINISHED";"NONE";"success";"0";"1";"2014-10-16 13:37:49.468";"3";;;;;;;;;;;;;;;;;;;;;;;;;;;;;;;;;;;;;;;;;;;;;
"Nectarine92";"1992";;"Windows 7";"Rachel's Experiment (D.T.)";"1.0";"2";"1";"1";"2";"1";"1";"2014-10-16 13:32:45.751";"2014-10-16 13:45:30.901";"1";"1";"1";"88";"87";"module.training_block3.exec-1785.GoNoGo3";;;;;;;;;;;;;;;;;;;;;;;;;;;;;;;;;;;;;;;;;;;;;;;"1261";"2014-10-16 13:38:01.574";"ST_correctStop";"7";"0";"FINISHED";"NONE";"success";"0";"1";"2014-10-16 13:38:00.310";"1";;;;;;;;;;;;;;;;;;;;;;;;;;;;;;;;;
"Nectarine92";"1992";;"Windows 7";"Rachel's Experiment (D.T.)";"1.0";"2";"1";"1";"2";"1";"1";"2014-10-16 13:32:45.751";"2014-10-16 13:45:30.901";"1";"1";"1";"89";"88";"module.training_block3.exec-1785.GoNoGo3";;;;;;;;;;;;;;;;;;;;;;;;;;;;;;;;;;;;;;;;;;;;;;;"1261";"2014-10-16 13:38:04.116";"ST_correctStop";"24";"1";"FINISHED";"NONE";"success";"0";"1";"2014-10-16 13:38:02.853";"3";;;;;;;;;;;;;;;;;;;;;;;;;;;;;;;;;
"Nectarine92";"1992";;"Windows 7";"Rachel's Experiment (D.T.)";"1.0";"2";"1";"1";"2";"1";"1";"2014-10-16 13:32:45.751";"2014-10-16 13:45:30.901";"1";"1";"1";"90";"89";"module.training_block3.exec-1785.GoNoGo3";;;;;;;;;;;;;;;;;;;;;;;;;;;;;;;;;;;;;;;;;;;;;;;"1261";"2014-10-16 13:38:06.659";"NST_correctLoc";"13";"0";"FINISHED";"LEFT";"success";"402";"0";"2014-10-16 13:38:05.396";"2";;;;;;;;;;;;;;;;;;;;;;;;;;;;;;;;;
"Nectarine92";"1992";;"Windows 7";"Rachel's Experiment (D.T.)";"1.0";"2";"1";"1";"2";"1";"1";"2014-10-16 13:32:45.751";"2014-10-16 13:45:30.901";"1";"1";"1";"91";"90";"module.training_block3.exec-1785.GoNoGo3";;;;;;;;;;;;;;;;;;;;;;;;;;;;;;;;;;;;;;;;;;;;;;;"1261";"2014-10-16 13:38:09.202";"NST_correctLoc";"26";"0";"FINISHED";"LEFT";"success";"419";"0";"2014-10-16 13:38:07.938";"3";;;;;;;;;;;;;;;;;;;;;;;;;;;;;;;;;
"Nectarine92";"1992";;"Windows 7";"Rachel's Experiment (D.T.)";"1.0";"2";"1";"1";"2";"1";"1";"2014-10-16 13:32:45.751";"2014-10-16 13:45:30.901";"1";"1";"1";"92";"91";"module.training_block3.exec-1785.GoNoGo3";;;;;;;;;;;;;;;;;;;;;;;;;;;;;;;;;;;;;;;;;;;;;;;"1261";"2014-10-16 13:38:11.745";"NST_correctLoc";"19";"1";"FINISHED";"RIGHT";"success";"468";"0";"2014-10-16 13:38:10.481";"3";;;;;;;;;;;;;;;;;;;;;;;;;;;;;;;;;
"Nectarine92";"1992";;"Windows 7";"Rachel's Experiment (D.T.)";"1.0";"2";"1";"1";"2";"1";"1";"2014-10-16 13:32:45.751";"2014-10-16 13:45:30.901";"1";"1";"1";"93";"92";"module.training_block3.exec-1785.GoNoGo3";;;;;;;;;;;;;;;;;;;;;;;;;;;;;;;;;;;;;;;;;;;;;;;"1261";"2014-10-16 13:38:14.288";"ST_correctStop";"6";"1";"FINISHED";"NONE";"success";"0";"1";"2014-10-16 13:38:13.024";"1";;;;;;;;;;;;;;;;;;;;;;;;;;;;;;;;;
"Nectarine92";"1992";;"Windows 7";"Rachel's Experiment (D.T.)";"1.0";"2";"1";"1";"2";"1";"1";"2014-10-16 13:32:45.751";"2014-10-16 13:45:30.901";"1";"1";"1";"94";"93";"module.training_block3.exec-1785.GoNoGo3";;;;;;;;;;;;;;;;;;;;;;;;;;;;;;;;;;;;;;;;;;;;;;;"1261";"2014-10-16 13:38:16.830";"NST_correctLoc";"9";"1";"FINISHED";"RIGHT";"success";"447";"0";"2014-10-16 13:38:15.567";"2";;;;;;;;;;;;;;;;;;;;;;;;;;;;;;;;;
"Nectarine92";"1992";;"Windows 7";"Rachel's Experiment (D.T.)";"1.0";"2";"1";"1";"2";"1";"1";"2014-10-16 13:32:45.751";"2014-10-16 13:45:30.901";"1";"1";"1";"95";"94";"module.training_block3.exec-1785.GoNoGo3";;;;;;;;;;;;;;;;;;;;;;;;;;;;;;;;;;;;;;;;;;;;;;;"1261";"2014-10-16 13:38:19.389";"ST_correctStop";"1";"0";"FINISHED";"NONE";"success";"0";"1";"2014-10-16 13:38:18.125";"1";;;;;;;;;;;;;;;;;;;;;;;;;;;;;;;;;
"Nectarine92";"1992";;"Windows 7";"Rachel's Experiment (D.T.)";"1.0";"2";"1";"1";"2";"1";"1";"2014-10-16 13:32:45.751";"2014-10-16 13:45:30.901";"1";"1";"1";"96";"95";"module.training_block3.exec-1785.GoNoGo3";;;;;;;;;;;;;;;;;;;;;;;;;;;;;;;;;;;;;;;;;;;;;;;"1261";"2014-10-16 13:38:21.932";"ST_correctStop";"5";"0";"FINISHED";"NONE";"success";"0";"1";"2014-10-16 13:38:20.668";"1";;;;;;;;;;;;;;;;;;;;;;;;;;;;;;;;;
"Nectarine92";"1992";;"Windows 7";"Rachel's Experiment (D.T.)";"1.0";"2";"1";"1";"2";"1";"1";"2014-10-16 13:32:45.751";"2014-10-16 13:45:30.901";"1";"1";"1";"97";"96";"module.training_block3.exec-1785.GoNoGo3";;;;;;;;;;;;;;;;;;;;;;;;;;;;;;;;;;;;;;;;;;;;;;;"1261";"2014-10-16 13:38:24.474";"ST_correctStop";"2";"0";"FINISHED";"NONE";"success";"0";"1";"2014-10-16 13:38:23.211";"1";;;;;;;;;;;;;;;;;;;;;;;;;;;;;;;;;
"Nectarine92";"1992";;"Windows 7";"Rachel's Experiment (D.T.)";"1.0";"2";"1";"1";"2";"1";"1";"2014-10-16 13:32:45.751";"2014-10-16 13:45:30.901";"1";"1";"1";"98";"97";"module.training_block3.exec-1785.GoNoGo3";;;;;;;;;;;;;;;;;;;;;;;;;;;;;;;;;;;;;;;;;;;;;;;"1261";"2014-10-16 13:38:27.017";"ST_correctStop";"22";"0";"FINISHED";"NONE";"success";"0";"1";"2014-10-16 13:38:25.754";"3";;;;;;;;;;;;;;;;;;;;;;;;;;;;;;;;;
"Nectarine92";"1992";;"Windows 7";"Rachel's Experiment (D.T.)";"1.0";"2";"1";"1";"2";"1";"1";"2014-10-16 13:32:45.751";"2014-10-16 13:45:30.901";"1";"1";"1";"99";"98";"module.training_block3.exec-1785.GoNoGo3";;;;;;;;;;;;;;;;;;;;;;;;;;;;;;;;;;;;;;;;;;;;;;;"1261";"2014-10-16 13:38:29.560";"NST_correctLoc";"10";"0";"FINISHED";"LEFT";"success";"453";"0";"2014-10-16 13:38:28.296";"2";;;;;;;;;;;;;;;;;;;;;;;;;;;;;;;;;
"Nectarine92";"1992";;"Windows 7";"Rachel's Experiment (D.T.)";"1.0";"2";"1";"1";"2";"1";"1";"2014-10-16 13:32:45.751";"2014-10-16 13:45:30.901";"1";"1";"1";"100";"99";"module.training_block3.exec-1785.GoNoGo3";;;;;;;;;;;;;;;;;;;;;;;;;;;;;;;;;;;;;;;;;;;;;;;"1261";"2014-10-16 13:38:32.103";"NST_correctLoc";"12";"0";"FINISHED";"LEFT";"success";"462";"0";"2014-10-16 13:38:30.839";"2";;;;;;;;;;;;;;;;;;;;;;;;;;;;;;;;;
"Nectarine92";"1992";;"Windows 7";"Rachel's Experiment (D.T.)";"1.0";"2";"1";"1";"2";"1";"1";"2014-10-16 13:32:45.751";"2014-10-16 13:45:30.901";"1";"1";"1";"101";"100";"module.training_block3.exec-1785.GoNoGo3";;;;;;;;;;;;;;;;;;;;;;;;;;;;;;;;;;;;;;;;;;;;;;;"1261";"2014-10-16 13:38:34.646";"ST_correctStop";"29";"1";"FINISHED";"NONE";"success";"0";"1";"2014-10-16 13:38:33.382";"3";;;;;;;;;;;;;;;;;;;;;;;;;;;;;;;;;
"Nectarine92";"1992";;"Windows 7";"Rachel's Experiment (D.T.)";"1.0";"2";"1";"1";"2";"1";"1";"2014-10-16 13:32:45.751";"2014-10-16 13:45:30.901";"1";"1";"1";"102";"101";"module.training_block3.exec-1785.GoNoGo3";;;;;;;;;;;;;;;;;;;;;;;;;;;;;;;;;;;;;;;;;;;;;;;"1261";"2014-10-16 13:38:37.188";"NST_correctLoc";"23";"0";"FINISHED";"LEFT";"success";"473";"0";"2014-10-16 13:38:35.925";"3";;;;;;;;;;;;;;;;;;;;;;;;;;;;;;;;;
"Nectarine92";"1992";;"Windows 7";"Rachel's Experiment (D.T.)";"1.0";"2";"1";"1";"2";"1";"1";"2014-10-16 13:32:45.751";"2014-10-16 13:45:30.901";"1";"1";"1";"103";"102";"module.training_block3.exec-1785.GoNoGo3";;;;;;;;;;;;;;;;;;;;;;;;;;;;;;;;;;;;;;;;;;;;;;;"1261";"2014-10-16 13:38:39.731";"NST_correctLoc";"17";"1";"FINISHED";"RIGHT";"success";"394";"0";"2014-10-16 13:38:38.468";"2";;;;;;;;;;;;;;;;;;;;;;;;;;;;;;;;;
"Nectarine92";"1992";;"Windows 7";"Rachel's Experiment (D.T.)";"1.0";"2";"1";"1";"2";"1";"1";"2014-10-16 13:32:45.751";"2014-10-16 13:45:30.901";"1";"1";"1";"104";"103";"module.training_block3.exec-1785.GoNoGo3";;;;;;;;;;;;;;;;;;;;;;;;;;;;;;;;;;;;;;;;;;;;;;;"1261";"2014-10-16 13:38:42.274";"ST_correctStop";"35";"0";"FINISHED";"NONE";"success";"0";"1";"2014-10-16 13:38:41.010";"3";;;;;;;;;;;;;;;;;;;;;;;;;;;;;;;;;
"Nectarine92";"1992";;"Windows 7";"Rachel's Experiment (D.T.)";"1.0";"2";"1";"1";"2";"1";"1";"2014-10-16 13:32:45.751";"2014-10-16 13:45:30.901";"1";"1";"1";"105";"104";"module.training_block3.exec-1785.GoNoGo3";;;;;;;;;;;;;;;;;;;;;;;;;;;;;;;;;;;;;;;;;;;;;;;"1262";"2014-10-16 13:38:44.817";"NST_correctLoc";"27";"0";"FINISHED";"LEFT";"success";"476";"0";"2014-10-16 13:38:43.553";"3";;;;;;;;;;;;;;;;;;;;;;;;;;;;;;;;;
"Nectarine92";"1992";;"Windows 7";"Rachel's Experiment (D.T.)";"1.0";"2";"1";"1";"2";"1";"1";"2014-10-16 13:32:45.751";"2014-10-16 13:45:30.901";"1";"1";"1";"106";"105";"module.training_block3.exec-1785.GoNoGo3";;;;;;;;;;;;;;;;;;;;;;;;;;;;;;;;;;;;;;;;;;;;;;;"1262";"2014-10-16 13:38:47.360";"NST_correctLoc";"11";"1";"FINISHED";"RIGHT";"success";"478";"0";"2014-10-16 13:38:46.096";"2";;;;;;;;;;;;;;;;;;;;;;;;;;;;;;;;;
"Nectarine92";"1992";;"Windows 7";"Rachel's Experiment (D.T.)";"1.0";"2";"1";"1";"2";"1";"1";"2014-10-16 13:32:45.751";"2014-10-16 13:45:30.901";"1";"1";"1";"107";"106";"module.training_block3.exec-1785.GoNoGo3";;;;;;;;;;;;;;;;;;;;;;;;;;;;;;;;;;;;;;;;;;;;;;;"1261";"2014-10-16 13:38:49.887";"NST_correctLoc";"16";"1";"FINISHED";"RIGHT";"success";"462";"0";"2014-10-16 13:38:48.623";"2";;;;;;;;;;;;;;;;;;;;;;;;;;;;;;;;;
"Nectarine92";"1992";;"Windows 7";"Rachel's Experiment (D.T.)";"1.0";"2";"1";"1";"2";"1";"1";"2014-10-16 13:32:45.751";"2014-10-16 13:45:30.901";"1";"1";"1";"108";"107";"module.training_block3.exec-1785.GoNoGo3";;;;;;;;;;;;;;;;;;;;;;;;;;;;;;;;;;;;;;;;;;;;;;;"1261";"2014-10-16 13:38:52.414";"ST_correctStop";"4";"1";"FINISHED";"NONE";"success";"0";"1";"2014-10-16 13:38:51.150";"1";;;;;;;;;;;;;;;;;;;;;;;;;;;;;;;;;
"Nectarine92";"1992";;"Windows 7";"Rachel's Experiment (D.T.)";"1.0";"2";"1";"1";"2";"1";"1";"2014-10-16 13:32:45.751";"2014-10-16 13:45:30.901";"1";"1";"1";"109";"108";"module.training_block3.exec-1785.GoNoGo3";;;;;;;;;;;;;;;;;;;;;;;;;;;;;;;;;;;;;;;;;;;;;;;"1262";"2014-10-16 13:38:54.972";"NST_correctLoc";"32";"0";"FINISHED";"LEFT";"success";"393";"0";"2014-10-16 13:38:53.709";"3";;;;;;;;;;;;;;;;;;;;;;;;;;;;;;;;;
"Nectarine92";"1992";;"Windows 7";"Rachel's Experiment (D.T.)";"1.0";"2";"1";"1";"2";"1";"1";"2014-10-16 13:32:45.751";"2014-10-16 13:45:30.901";"1";"1";"1";"110";"109";"module.training_block3.exec-1785.GoNoGo3";;;;;;;;;;;;;;;;;;;;;;;;;;;;;;;;;;;;;;;;;;;;;;;"1261";"2014-10-16 13:38:57.500";"ST_correctStop";"3";"0";"FINISHED";"NONE";"success";"0";"1";"2014-10-16 13:38:56.236";"1";;;;;;;;;;;;;;;;;;;;;;;;;;;;;;;;;
"Nectarine92";"1992";;"Windows 7";"Rachel's Experiment (D.T.)";"1.0";"2";"1";"1";"2";"1";"1";"2014-10-16 13:32:45.751";"2014-10-16 13:45:30.901";"1";"1";"1";"111";"110";"module.training_block3.exec-1785.GoNoGo3";;;;;;;;;;;;;;;;;;;;;;;;;;;;;;;;;;;;;;;;;;;;;;;"1261";"2014-10-16 13:39:00.042";"ST_correctStop";"8";"0";"FINISHED";"NONE";"success";"0";"1";"2014-10-16 13:38:58.779";"1";;;;;;;;;;;;;;;;;;;;;;;;;;;;;;;;;
"Nectarine92";"1992";;"Windows 7";"Rachel's Experiment (D.T.)";"1.0";"2";"1";"1";"2";"1";"1";"2014-10-16 13:32:45.751";"2014-10-16 13:45:30.901";"1";"1";"1";"112";"111";"module.training_block3.exec-1785.GoNoGo3";;;;;;;;;;;;;;;;;;;;;;;;;;;;;;;;;;;;;;;;;;;;;;;"1261";"2014-10-16 13:39:02.570";"NST_correctLoc";"34";"0";"FINISHED";"LEFT";"success";"539";"0";"2014-10-16 13:39:01.306";"3";;;;;;;;;;;;;;;;;;;;;;;;;;;;;;;;;
"Nectarine92";"1992";;"Windows 7";"Rachel's Experiment (D.T.)";"1.0";"2";"1";"1";"2";"1";"1";"2014-10-16 13:32:45.751";"2014-10-16 13:45:30.901";"1";"1";"1";"113";"112";"module.training_block3.exec-1785.GoNoGo3";;;;;;;;;;;;;;;;;;;;;;;;;;;;;;;;;;;;;;;;;;;;;;;"1262";"2014-10-16 13:39:05.097";"ST_correctStop";"30";"0";"FINISHED";"NONE";"success";"0";"1";"2014-10-16 13:39:03.833";"3";;;;;;;;;;;;;;;;;;;;;;;;;;;;;;;;;
"Nectarine92";"1992";;"Windows 7";"Rachel's Experiment (D.T.)";"1.0";"2";"1";"1";"2";"1";"1";"2014-10-16 13:32:45.751";"2014-10-16 13:45:30.901";"1";"1";"1";"114";"113";"module.training_block3.exec-1785.GoNoGo3";;;;;;;;;;;;;;;;;;;;;;;;;;;;;;;;;;;;;;;;;;;;;;;"1262";"2014-10-16 13:39:07.655";"NST_correctLoc";"15";"0";"FINISHED";"LEFT";"success";"462";"0";"2014-10-16 13:39:06.392";"2";;;;;;;;;;;;;;;;;;;;;;;;;;;;;;;;;
"Nectarine92";"1992";;"Windows 7";"Rachel's Experiment (D.T.)";"1.0";"2";"1";"1";"2";"1";"1";"2014-10-16 13:32:45.751";"2014-10-16 13:45:30.901";"1";"1";"1";"115";"114";"module.training_block3.exec-1785.GoNoGo3";;;;;;;;;;;;;;;;;;;;;;;;;;;;;;;;;;;;;;;;;;;;;;;"1262";"2014-10-16 13:39:10.183";"NST_correctLoc";"28";"0";"FINISHED";"LEFT";"success";"527";"0";"2014-10-16 13:39:08.919";"3";;;;;;;;;;;;;;;;;;;;;;;;;;;;;;;;;
"Nectarine92";"1992";;"Windows 7";"Rachel's Experiment (D.T.)";"1.0";"2";"1";"1";"2";"1";"1";"2014-10-16 13:32:45.751";"2014-10-16 13:45:30.901";"1";"1";"1";"116";"115";"module.training_block3.exec-1785.GoNoGo3";;;;;;;;;;;;;;;;;;;;;;;;;;;;;;;;;;;;;;;;;;;;;;;"1261";"2014-10-16 13:39:12.710";"ST_correctStop";"25";"1";"FINISHED";"NONE";"success";"0";"1";"2014-10-16 13:39:11.446";"3";;;;;;;;;;;;;;;;;;;;;;;;;;;;;;;;;
"Nectarine92";"1992";;"Windows 7";"Rachel's Experiment (D.T.)";"1.0";"2";"1";"1";"2";"1";"1";"2014-10-16 13:32:45.751";"2014-10-16 13:45:30.901";"1";"1";"1";"117";"116";"module.training_block3.exec-1785.GoNoGo3";;;;;;;;;;;;;;;;;;;;;;;;;;;;;;;;;;;;;;;;;;;;;;;"1262";"2014-10-16 13:39:15.237";"NST_correctLoc";"33";"0";"FINISHED";"LEFT";"success";"472";"0";"2014-10-16 13:39:13.973";"3";;;;;;;;;;;;;;;;;;;;;;;;;;;;;;;;;
"Nectarine92";"1992";;"Windows 7";"Rachel's Experiment (D.T.)";"1.0";"2";"1";"1";"2";"1";"1";"2014-10-16 13:32:45.751";"2014-10-16 13:45:30.901";"1";"1";"1";"118";"117";"module.training_block3.exec-1785.GoNoGo3";;;;;;;;;;;;;;;;;;;;;;;;;;;;;;;;;;;;;;;;;;;;;;;"1262";"2014-10-16 13:39:17.780";"ST_correctStop";"18";"0";"FINISHED";"NONE";"success";"0";"1";"2014-10-16 13:39:16.516";"3";;;;;;;;;;;;;;;;;;;;;;;;;;;;;;;;;
"Nectarine92";"1992";;"Windows 7";"Rachel's Experiment (D.T.)";"1.0";"2";"1";"1";"2";"1";"1";"2014-10-16 13:32:45.751";"2014-10-16 13:45:30.901";"1";"1";"1";"119";"118";"module.training_block3.exec-1785.GoNoGo3";;;;;;;;;;;;;;;;;;;;;;;;;;;;;;;;;;;;;;;;;;;;;;;"1262";"2014-10-16 13:39:20.338";"NST_correctLoc";"21";"0";"FINISHED";"LEFT";"success";"539";"0";"2014-10-16 13:39:19.075";"3";;;;;;;;;;;;;;;;;;;;;;;;;;;;;;;;;
"Nectarine92";"1992";;"Windows 7";"Rachel's Experiment (D.T.)";"1.0";"2";"1";"1";"2";"1";"1";"2014-10-16 13:32:45.751";"2014-10-16 13:45:30.901";"1";"1";"1";"120";"119";"module.training_block3.exec-1785.GoNoGo3";;;;;;;;;;;;;;;;;;;;;;;;;;;;;;;;;;;;;;;;;;;;;;;"1261";"2014-10-16 13:39:22.881";"ST_correctStop";"20";"0";"FINISHED";"NONE";"success";"0";"1";"2014-10-16 13:39:21.617";"3";;;;;;;;;;;;;;;;;;;;;;;;;;;;;;;;;
"Nectarine92";"1992";;"Windows 7";"Rachel's Experiment (D.T.)";"1.0";"2";"1";"1";"2";"1";"1";"2014-10-16 13:32:45.751";"2014-10-16 13:45:30.901";"1";"1";"1";"121";"120";"module.training_block3.exec-1785.GoNoGo3";;;;;;;;;;;;;;;;;;;;;;;;;;;;;;;;;;;;;;;;;;;;;;;"1261";"2014-10-16 13:39:25.424";"ST_correctStop";"31";"1";"FINISHED";"NONE";"success";"0";"1";"2014-10-16 13:39:24.160";"3";;;;;;;;;;;;;;;;;;;;;;;;;;;;;;;;;
"Nectarine92";"1992";;"Windows 7";"Rachel's Experiment (D.T.)";"1.0";"2";"1";"1";"2";"1";"1";"2014-10-16 13:32:45.751";"2014-10-16 13:45:30.901";"1";"1";"1";"122";"121";"module.training_block3.exec-1785.GoNoGo3";;;;;;;;;;;;;;;;;;;;;;;;;;;;;;;;;;;;;;;;;;;;;;;"1261";"2014-10-16 13:39:27.951";"NST_correctLoc";"14";"0";"FINISHED";"LEFT";"success";"414";"0";"2014-10-16 13:39:26.687";"2";;;;;;;;;;;;;;;;;;;;;;;;;;;;;;;;;
"Nectarine92";"1992";;"Windows 7";"Rachel's Experiment (D.T.)";"1.0";"2";"1";"1";"2";"1";"1";"2014-10-16 13:32:45.751";"2014-10-16 13:45:30.901";"1";"1";"1";"123";"122";"module.training_block3.exec-1785.GoNoGo3";;;;;;;;;;;;;;;;;;;;;;;;;;;;;;;;;;;;;;;;;;;;;;;"1262";"2014-10-16 13:39:30.478";"ST_correctStop";"0";"0";"FINISHED";"NONE";"success";"0";"1";"2014-10-16 13:39:29.215";"1";;;;;;;;;;;;;;;;;;;;;;;;;;;;;;;;;
"Nectarine92";"1992";;"Windows 7";"Rachel's Experiment (D.T.)";"1.0";"2";"1";"1";"2";"1";"1";"2014-10-16 13:32:45.751";"2014-10-16 13:45:30.901";"1";"1";"1";"124";"123";"module.training_block4.exec-6005.GoNoGo4";;;;;;;;;;;;;;;;;;;;;;;;;;;;;;;;;;;;;;;;;;;;;;;;;;;;;;;;;;;"1261";"2014-10-16 13:39:41.305";"NST_correctLoc";"29";"1";"FINISHED";"RIGHT";"success";"500";"0";"2014-10-16 13:39:40.041";"3";;;;;;;;;;;;;;;;;;;;;
"Nectarine92";"1992";;"Windows 7";"Rachel's Experiment (D.T.)";"1.0";"2";"1";"1";"2";"1";"1";"2014-10-16 13:32:45.751";"2014-10-16 13:45:30.901";"1";"1";"1";"125";"124";"module.training_block4.exec-6005.GoNoGo4";;;;;;;;;;;;;;;;;;;;;;;;;;;;;;;;;;;;;;;;;;;;;;;;;;;;;;;;;;;"1261";"2014-10-16 13:39:43.847";"NST_correctLoc";"27";"0";"FINISHED";"LEFT";"success";"413";"0";"2014-10-16 13:39:42.584";"3";;;;;;;;;;;;;;;;;;;;;
"Nectarine92";"1992";;"Windows 7";"Rachel's Experiment (D.T.)";"1.0";"2";"1";"1";"2";"1";"1";"2014-10-16 13:32:45.751";"2014-10-16 13:45:30.901";"1";"1";"1";"126";"125";"module.training_block4.exec-6005.GoNoGo4";;;;;;;;;;;;;;;;;;;;;;;;;;;;;;;;;;;;;;;;;;;;;;;;;;;;;;;;;;;"1261";"2014-10-16 13:39:46.406";"NST_correctLoc";"17";"0";"FINISHED";"LEFT";"success";"615";"0";"2014-10-16 13:39:45.142";"2";;;;;;;;;;;;;;;;;;;;;
"Nectarine92";"1992";;"Windows 7";"Rachel's Experiment (D.T.)";"1.0";"2";"1";"1";"2";"1";"1";"2014-10-16 13:32:45.751";"2014-10-16 13:45:30.901";"1";"1";"1";"127";"126";"module.training_block4.exec-6005.GoNoGo4";;;;;;;;;;;;;;;;;;;;;;;;;;;;;;;;;;;;;;;;;;;;;;;;;;;;;;;;;;;"1261";"2014-10-16 13:39:48.933";"ST_correctStop";"1";"1";"FINISHED";"NONE";"success";"0";"1";"2014-10-16 13:39:47.669";"1";;;;;;;;;;;;;;;;;;;;;
"Nectarine92";"1992";;"Windows 7";"Rachel's Experiment (D.T.)";"1.0";"2";"1";"1";"2";"1";"1";"2014-10-16 13:32:45.751";"2014-10-16 13:45:30.901";"1";"1";"1";"128";"127";"module.training_block4.exec-6005.GoNoGo4";;;;;;;;;;;;;;;;;;;;;;;;;;;;;;;;;;;;;;;;;;;;;;;;;;;;;;;;;;;"1262";"2014-10-16 13:39:51.460";"NST_correctLoc";"11";"0";"FINISHED";"LEFT";"success";"593";"0";"2014-10-16 13:39:50.197";"2";;;;;;;;;;;;;;;;;;;;;
"Nectarine92";"1992";;"Windows 7";"Rachel's Experiment (D.T.)";"1.0";"2";"1";"1";"2";"1";"1";"2014-10-16 13:32:45.751";"2014-10-16 13:45:30.901";"1";"1";"1";"129";"128";"module.training_block4.exec-6005.GoNoGo4";;;;;;;;;;;;;;;;;;;;;;;;;;;;;;;;;;;;;;;;;;;;;;;;;;;;;;;;;;;"1261";"2014-10-16 13:39:53.987";"ST_correctStop";"2";"0";"FINISHED";"NONE";"success";"0";"1";"2014-10-16 13:39:52.724";"1";;;;;;;;;;;;;;;;;;;;;
"Nectarine92";"1992";;"Windows 7";"Rachel's Experiment (D.T.)";"1.0";"2";"1";"1";"2";"1";"1";"2014-10-16 13:32:45.751";"2014-10-16 13:45:30.901";"1";"1";"1";"130";"129";"module.training_block4.exec-6005.GoNoGo4";;;;;;;;;;;;;;;;;;;;;;;;;;;;;;;;;;;;;;;;;;;;;;;;;;;;;;;;;;;"1261";"2014-10-16 13:39:56.515";"ST_correctStop";"8";"0";"FINISHED";"NONE";"success";"0";"1";"2014-10-16 13:39:55.251";"1";;;;;;;;;;;;;;;;;;;;;
"Nectarine92";"1992";;"Windows 7";"Rachel's Experiment (D.T.)";"1.0";"2";"1";"1";"2";"1";"1";"2014-10-16 13:32:45.751";"2014-10-16 13:45:30.901";"1";"1";"1";"131";"130";"module.training_block4.exec-6005.GoNoGo4";;;;;;;;;;;;;;;;;;;;;;;;;;;;;;;;;;;;;;;;;;;;;;;;;;;;;;;;;;;"1261";"2014-10-16 13:39:59.057";"NST_correctLoc";"13";"1";"FINISHED";"RIGHT";"success";"459";"0";"2014-10-16 13:39:57.794";"2";;;;;;;;;;;;;;;;;;;;;
"Nectarine92";"1992";;"Windows 7";"Rachel's Experiment (D.T.)";"1.0";"2";"1";"1";"2";"1";"1";"2014-10-16 13:32:45.751";"2014-10-16 13:45:30.901";"1";"1";"1";"132";"131";"module.training_block4.exec-6005.GoNoGo4";;;;;;;;;;;;;;;;;;;;;;;;;;;;;;;;;;;;;;;;;;;;;;;;;;;;;;;;;;;"1261";"2014-10-16 13:40:01.585";"ST_correctStop";"34";"0";"FINISHED";"NONE";"success";"0";"1";"2014-10-16 13:40:00.321";"3";;;;;;;;;;;;;;;;;;;;;
"Nectarine92";"1992";;"Windows 7";"Rachel's Experiment (D.T.)";"1.0";"2";"1";"1";"2";"1";"1";"2014-10-16 13:32:45.751";"2014-10-16 13:45:30.901";"1";"1";"1";"133";"132";"module.training_block4.exec-6005.GoNoGo4";;;;;;;;;;;;;;;;;;;;;;;;;;;;;;;;;;;;;;;;;;;;;;;;;;;;;;;;;;;"1261";"2014-10-16 13:40:04.112";"ST_correctStop";"6";"1";"FINISHED";"NONE";"success";"0";"1";"2014-10-16 13:40:02.848";"1";;;;;;;;;;;;;;;;;;;;;
"Nectarine92";"1992";;"Windows 7";"Rachel's Experiment (D.T.)";"1.0";"2";"1";"1";"2";"1";"1";"2014-10-16 13:32:45.751";"2014-10-16 13:45:30.901";"1";"1";"1";"134";"133";"module.training_block4.exec-6005.GoNoGo4";;;;;;;;;;;;;;;;;;;;;;;;;;;;;;;;;;;;;;;;;;;;;;;;;;;;;;;;;;;"1261";"2014-10-16 13:40:06.639";"ST_correctStop";"18";"0";"FINISHED";"NONE";"success";"0";"1";"2014-10-16 13:40:05.375";"3";;;;;;;;;;;;;;;;;;;;;
"Nectarine92";"1992";;"Windows 7";"Rachel's Experiment (D.T.)";"1.0";"2";"1";"1";"2";"1";"1";"2014-10-16 13:32:45.751";"2014-10-16 13:45:30.901";"1";"1";"1";"135";"134";"module.training_block4.exec-6005.GoNoGo4";;;;;;;;;;;;;;;;;;;;;;;;;;;;;;;;;;;;;;;;;;;;;;;;;;;;;;;;;;;"1261";"2014-10-16 13:40:09.182";"NST_correctLoc";"9";"1";"FINISHED";"RIGHT";"success";"431";"0";"2014-10-16 13:40:07.918";"2";;;;;;;;;;;;;;;;;;;;;
"Nectarine92";"1992";;"Windows 7";"Rachel's Experiment (D.T.)";"1.0";"2";"1";"1";"2";"1";"1";"2014-10-16 13:32:45.751";"2014-10-16 13:45:30.901";"1";"1";"1";"136";"135";"module.training_block4.exec-6005.GoNoGo4";;;;;;;;;;;;;;;;;;;;;;;;;;;;;;;;;;;;;;;;;;;;;;;;;;;;;;;;;;;"1262";"2014-10-16 13:40:11.725";"ST_correctStop";"20";"0";"FINISHED";"NONE";"success";"0";"1";"2014-10-16 13:40:10.461";"3";;;;;;;;;;;;;;;;;;;;;
"Nectarine92";"1992";;"Windows 7";"Rachel's Experiment (D.T.)";"1.0";"2";"1";"1";"2";"1";"1";"2014-10-16 13:32:45.751";"2014-10-16 13:45:30.901";"1";"1";"1";"137";"136";"module.training_block4.exec-6005.GoNoGo4";;;;;;;;;;;;;;;;;;;;;;;;;;;;;;;;;;;;;;;;;;;;;;;;;;;;;;;;;;;"1262";"2014-10-16 13:40:14.252";"ST_correctStop";"4";"0";"FINISHED";"NONE";"success";"0";"1";"2014-10-16 13:40:12.988";"1";;;;;;;;;;;;;;;;;;;;;
"Nectarine92";"1992";;"Windows 7";"Rachel's Experiment (D.T.)";"1.0";"2";"1";"1";"2";"1";"1";"2014-10-16 13:32:45.751";"2014-10-16 13:45:30.901";"1";"1";"1";"138";"137";"module.training_block4.exec-6005.GoNoGo4";;;;;;;;;;;;;;;;;;;;;;;;;;;;;;;;;;;;;;;;;;;;;;;;;;;;;;;;;;;"1261";"2014-10-16 13:40:16.779";"ST_correctStop";"26";"0";"FINISHED";"NONE";"success";"0";"1";"2014-10-16 13:40:15.515";"3";;;;;;;;;;;;;;;;;;;;;
"Nectarine92";"1992";;"Windows 7";"Rachel's Experiment (D.T.)";"1.0";"2";"1";"1";"2";"1";"1";"2014-10-16 13:32:45.751";"2014-10-16 13:45:30.901";"1";"1";"1";"139";"138";"module.training_block4.exec-6005.GoNoGo4";;;;;;;;;;;;;;;;;;;;;;;;;;;;;;;;;;;;;;;;;;;;;;;;;;;;;;;;;;;"1262";"2014-10-16 13:40:19.337";"NST_correctLoc";"32";"1";"FINISHED";"RIGHT";"success";"435";"0";"2014-10-16 13:40:18.074";"3";;;;;;;;;;;;;;;;;;;;;
"Nectarine92";"1992";;"Windows 7";"Rachel's Experiment (D.T.)";"1.0";"2";"1";"1";"2";"1";"1";"2014-10-16 13:32:45.751";"2014-10-16 13:45:30.901";"1";"1";"1";"140";"139";"module.training_block4.exec-6005.GoNoGo4";;;;;;;;;;;;;;;;;;;;;;;;;;;;;;;;;;;;;;;;;;;;;;;;;;;;;;;;;;;"1262";"2014-10-16 13:40:21.865";"ST_correctStop";"19";"0";"FINISHED";"NONE";"success";"0";"1";"2014-10-16 13:40:20.601";"3";;;;;;;;;;;;;;;;;;;;;
"Nectarine92";"1992";;"Windows 7";"Rachel's Experiment (D.T.)";"1.0";"2";"1";"1";"2";"1";"1";"2014-10-16 13:32:45.751";"2014-10-16 13:45:30.901";"1";"1";"1";"141";"140";"module.training_block4.exec-6005.GoNoGo4";;;;;;;;;;;;;;;;;;;;;;;;;;;;;;;;;;;;;;;;;;;;;;;;;;;;;;;;;;;"1262";"2014-10-16 13:40:24.407";"NST_correctLoc";"15";"1";"FINISHED";"RIGHT";"success";"453";"0";"2014-10-16 13:40:23.144";"2";;;;;;;;;;;;;;;;;;;;;
"Nectarine92";"1992";;"Windows 7";"Rachel's Experiment (D.T.)";"1.0";"2";"1";"1";"2";"1";"1";"2014-10-16 13:32:45.751";"2014-10-16 13:45:30.901";"1";"1";"1";"142";"141";"module.training_block4.exec-6005.GoNoGo4";;;;;;;;;;;;;;;;;;;;;;;;;;;;;;;;;;;;;;;;;;;;;;;;;;;;;;;;;;;"1262";"2014-10-16 13:40:26.935";"ST_correctStop";"25";"0";"FINISHED";"NONE";"success";"0";"1";"2014-10-16 13:40:25.671";"3";;;;;;;;;;;;;;;;;;;;;
"Nectarine92";"1992";;"Windows 7";"Rachel's Experiment (D.T.)";"1.0";"2";"1";"1";"2";"1";"1";"2014-10-16 13:32:45.751";"2014-10-16 13:45:30.901";"1";"1";"1";"143";"142";"module.training_block4.exec-6005.GoNoGo4";;;;;;;;;;;;;;;;;;;;;;;;;;;;;;;;;;;;;;;;;;;;;;;;;;;;;;;;;;;"1262";"2014-10-16 13:40:29.462";"NST_correctLoc";"24";"1";"FINISHED";"RIGHT";"success";"423";"0";"2014-10-16 13:40:28.198";"3";;;;;;;;;;;;;;;;;;;;;
"Nectarine92";"1992";;"Windows 7";"Rachel's Experiment (D.T.)";"1.0";"2";"1";"1";"2";"1";"1";"2014-10-16 13:32:45.751";"2014-10-16 13:45:30.901";"1";"1";"1";"144";"143";"module.training_block4.exec-6005.GoNoGo4";;;;;;;;;;;;;;;;;;;;;;;;;;;;;;;;;;;;;;;;;;;;;;;;;;;;;;;;;;;"1262";"2014-10-16 13:40:31.989";"NST_correctLoc";"21";"1";"FINISHED";"RIGHT";"success";"503";"0";"2014-10-16 13:40:30.725";"3";;;;;;;;;;;;;;;;;;;;;
"Nectarine92";"1992";;"Windows 7";"Rachel's Experiment (D.T.)";"1.0";"2";"1";"1";"2";"1";"1";"2014-10-16 13:32:45.751";"2014-10-16 13:45:30.901";"1";"1";"1";"145";"144";"module.training_block4.exec-6005.GoNoGo4";;;;;;;;;;;;;;;;;;;;;;;;;;;;;;;;;;;;;;;;;;;;;;;;;;;;;;;;;;;"1262";"2014-10-16 13:40:34.516";"NST_correctLoc";"16";"0";"FINISHED";"LEFT";"success";"592";"0";"2014-10-16 13:40:33.253";"2";;;;;;;;;;;;;;;;;;;;;
"Nectarine92";"1992";;"Windows 7";"Rachel's Experiment (D.T.)";"1.0";"2";"1";"1";"2";"1";"1";"2014-10-16 13:32:45.751";"2014-10-16 13:45:30.901";"1";"1";"1";"146";"145";"module.training_block4.exec-6005.GoNoGo4";;;;;;;;;;;;;;;;;;;;;;;;;;;;;;;;;;;;;;;;;;;;;;;;;;;;;;;;;;;"1262";"2014-10-16 13:40:37.043";"NST_correctLoc";"33";"1";"FINISHED";"RIGHT";"success";"561";"0";"2014-10-16 13:40:35.780";"3";;;;;;;;;;;;;;;;;;;;;
"Nectarine92";"1992";;"Windows 7";"Rachel's Experiment (D.T.)";"1.0";"2";"1";"1";"2";"1";"1";"2014-10-16 13:32:45.751";"2014-10-16 13:45:30.901";"1";"1";"1";"147";"146";"module.training_block4.exec-6005.GoNoGo4";;;;;;;;;;;;;;;;;;;;;;;;;;;;;;;;;;;;;;;;;;;;;;;;;;;;;;;;;;;"1262";"2014-10-16 13:40:39.571";"NST_correctLoc";"28";"0";"FINISHED";"LEFT";"success";"522";"0";"2014-10-16 13:40:38.307";"3";;;;;;;;;;;;;;;;;;;;;
"Nectarine92";"1992";;"Windows 7";"Rachel's Experiment (D.T.)";"1.0";"2";"1";"1";"2";"1";"1";"2014-10-16 13:32:45.751";"2014-10-16 13:45:30.901";"1";"1";"1";"148";"147";"module.training_block4.exec-6005.GoNoGo4";;;;;;;;;;;;;;;;;;;;;;;;;;;;;;;;;;;;;;;;;;;;;;;;;;;;;;;;;;;"1262";"2014-10-16 13:40:42.098";"NST_correctLoc";"35";"1";"FINISHED";"RIGHT";"success";"731";"0";"2014-10-16 13:40:40.834";"3";;;;;;;;;;;;;;;;;;;;;
"Nectarine92";"1992";;"Windows 7";"Rachel's Experiment (D.T.)";"1.0";"2";"1";"1";"2";"1";"1";"2014-10-16 13:32:45.751";"2014-10-16 13:45:30.901";"1";"1";"1";"149";"148";"module.training_block4.exec-6005.GoNoGo4";;;;;;;;;;;;;;;;;;;;;;;;;;;;;;;;;;;;;;;;;;;;;;;;;;;;;;;;;;;"1262";"2014-10-16 13:40:44.641";"NST_correctLoc";"14";"0";"FINISHED";"LEFT";"success";"700";"0";"2014-10-16 13:40:43.377";"2";;;;;;;;;;;;;;;;;;;;;
"Nectarine92";"1992";;"Windows 7";"Rachel's Experiment (D.T.)";"1.0";"2";"1";"1";"2";"1";"1";"2014-10-16 13:32:45.751";"2014-10-16 13:45:30.901";"1";"1";"1";"150";"149";"module.training_block4.exec-6005.GoNoGo4";;;;;;;;;;;;;;;;;;;;;;;;;;;;;;;;;;;;;;;;;;;;;;;;;;;;;;;;;;;"1262";"2014-10-16 13:40:47.168";"ST_correctStop";"22";"1";"FINISHED";"NONE";"success";"0";"1";"2014-10-16 13:40:45.904";"3";;;;;;;;;;;;;;;;;;;;;
"Nectarine92";"1992";;"Windows 7";"Rachel's Experiment (D.T.)";"1.0";"2";"1";"1";"2";"1";"1";"2014-10-16 13:32:45.751";"2014-10-16 13:45:30.901";"1";"1";"1";"151";"150";"module.training_block4.exec-6005.GoNoGo4";;;;;;;;;;;;;;;;;;;;;;;;;;;;;;;;;;;;;;;;;;;;;;;;;;;;;;;;;;;"1262";"2014-10-16 13:40:49.695";"NST_correctLoc";"12";"0";"FINISHED";"LEFT";"success";"477";"0";"2014-10-16 13:40:48.431";"2";;;;;;;;;;;;;;;;;;;;;
"Nectarine92";"1992";;"Windows 7";"Rachel's Experiment (D.T.)";"1.0";"2";"1";"1";"2";"1";"1";"2014-10-16 13:32:45.751";"2014-10-16 13:45:30.901";"1";"1";"1";"152";"151";"module.training_block4.exec-6005.GoNoGo4";;;;;;;;;;;;;;;;;;;;;;;;;;;;;;;;;;;;;;;;;;;;;;;;;;;;;;;;;;;"1262";"2014-10-16 13:40:52.222";"NST_correctLoc";"10";"0";"FINISHED";"LEFT";"success";"438";"0";"2014-10-16 13:40:50.959";"2";;;;;;;;;;;;;;;;;;;;;
"Nectarine92";"1992";;"Windows 7";"Rachel's Experiment (D.T.)";"1.0";"2";"1";"1";"2";"1";"1";"2014-10-16 13:32:45.751";"2014-10-16 13:45:30.901";"1";"1";"1";"153";"152";"module.training_block4.exec-6005.GoNoGo4";;;;;;;;;;;;;;;;;;;;;;;;;;;;;;;;;;;;;;;;;;;;;;;;;;;;;;;;;;;"1262";"2014-10-16 13:40:54.749";"ST_correctStop";"3";"0";"FINISHED";"NONE";"success";"0";"1";"2014-10-16 13:40:53.486";"1";;;;;;;;;;;;;;;;;;;;;
"Nectarine92";"1992";;"Windows 7";"Rachel's Experiment (D.T.)";"1.0";"2";"1";"1";"2";"1";"1";"2014-10-16 13:32:45.751";"2014-10-16 13:45:30.901";"1";"1";"1";"154";"153";"module.training_block4.exec-6005.GoNoGo4";;;;;;;;;;;;;;;;;;;;;;;;;;;;;;;;;;;;;;;;;;;;;;;;;;;;;;;;;;;"1262";"2014-10-16 13:40:57.277";"ST_correctStop";"0";"0";"FINISHED";"NONE";"success";"0";"1";"2014-10-16 13:40:56.013";"1";;;;;;;;;;;;;;;;;;;;;
"Nectarine92";"1992";;"Windows 7";"Rachel's Experiment (D.T.)";"1.0";"2";"1";"1";"2";"1";"1";"2014-10-16 13:32:45.751";"2014-10-16 13:45:30.901";"1";"1";"1";"155";"154";"module.training_block4.exec-6005.GoNoGo4";;;;;;;;;;;;;;;;;;;;;;;;;;;;;;;;;;;;;;;;;;;;;;;;;;;;;;;;;;;"1262";"2014-10-16 13:40:59.804";"NST_correctLoc";"23";"1";"FINISHED";"RIGHT";"success";"480";"0";"2014-10-16 13:40:58.540";"3";;;;;;;;;;;;;;;;;;;;;
"Nectarine92";"1992";;"Windows 7";"Rachel's Experiment (D.T.)";"1.0";"2";"1";"1";"2";"1";"1";"2014-10-16 13:32:45.751";"2014-10-16 13:45:30.901";"1";"1";"1";"156";"155";"module.training_block4.exec-6005.GoNoGo4";;;;;;;;;;;;;;;;;;;;;;;;;;;;;;;;;;;;;;;;;;;;;;;;;;;;;;;;;;;"1262";"2014-10-16 13:41:02.331";"ST_failedStop";"5";"1";"FINISHED";"RIGHT";"failure";"625";"1";"2014-10-16 13:41:01.068";"1";;;;;;;;;;;;;;;;;;;;;
"Nectarine92";"1992";;"Windows 7";"Rachel's Experiment (D.T.)";"1.0";"2";"1";"1";"2";"1";"1";"2014-10-16 13:32:45.751";"2014-10-16 13:45:30.901";"1";"1";"1";"157";"156";"module.training_block4.exec-6005.GoNoGo4";;;;;;;;;;;;;;;;;;;;;;;;;;;;;;;;;;;;;;;;;;;;;;;;;;;;;;;;;;;"1262";"2014-10-16 13:41:04.874";"ST_correctStop";"31";"0";"FINISHED";"NONE";"success";"0";"1";"2014-10-16 13:41:03.610";"3";;;;;;;;;;;;;;;;;;;;;
"Nectarine92";"1992";;"Windows 7";"Rachel's Experiment (D.T.)";"1.0";"2";"1";"1";"2";"1";"1";"2014-10-16 13:32:45.751";"2014-10-16 13:45:30.901";"1";"1";"1";"158";"157";"module.training_block4.exec-6005.GoNoGo4";;;;;;;;;;;;;;;;;;;;;;;;;;;;;;;;;;;;;;;;;;;;;;;;;;;;;;;;;;;"1262";"2014-10-16 13:41:07.401";"ST_correctStop";"30";"1";"FINISHED";"NONE";"success";"0";"1";"2014-10-16 13:41:06.138";"3";;;;;;;;;;;;;;;;;;;;;
"Nectarine92";"1992";;"Windows 7";"Rachel's Experiment (D.T.)";"1.0";"2";"1";"1";"2";"1";"1";"2014-10-16 13:32:45.751";"2014-10-16 13:45:30.901";"1";"1";"1";"159";"158";"module.training_block4.exec-6005.GoNoGo4";;;;;;;;;;;;;;;;;;;;;;;;;;;;;;;;;;;;;;;;;;;;;;;;;;;;;;;;;;;"1261";"2014-10-16 13:41:09.928";"ST_correctStop";"7";"0";"FINISHED";"NONE";"success";"0";"1";"2014-10-16 13:41:08.665";"1";;;;;;;;;;;;;;;;;;;;;
"Nectarine92";"1992";;"Windows 7";"Rachel's Experiment (D.T.)";"1.0";"2";"1";"1";"2";"1";"1";"2014-10-16 13:32:45.751";"2014-10-16 13:45:30.901";"1";"1";"1";"160";"159";"module.devaluation_practice.exec-6558.devalPractice";;;;;;;;;;;;"14634";"2014-10-16 13:41:48.835";"0";"6";"8";"7";"3959";"2841";"4778";"2014-10-16 13:41:34.202";;;;;;;;;;;;;;;;;;;;;;;;;;;;;;;;;;;;;;;;;;;;;;;;;;;;;;;;;;;;;;;;;;;;;;
"Nectarine92";"1992";;"Windows 7";"Rachel's Experiment (D.T.)";"1.0";"2";"1";"1";"2";"1";"1";"2014-10-16 13:32:45.751";"2014-10-16 13:45:30.901";"1";"1";"1";"161";"160";"module.devaluation_practice.exec-6558.devalPractice";;;;;;;;;;;;"8926";"2014-10-16 13:41:57.789";"1";"5";"6";"8";"2219";"1223";"2461";"2014-10-16 13:41:48.866";;;;;;;;;;;;;;;;;;;;;;;;;;;;;;;;;;;;;;;;;;;;;;;;;;;;;;;;;;;;;;;;;;;;;;
"Nectarine92";"1992";;"Windows 7";"Rachel's Experiment (D.T.)";"1.0";"2";"1";"1";"2";"1";"1";"2014-10-16 13:32:45.751";"2014-10-16 13:45:30.901";"1";"1";"1";"162";"161";"module.devaluation_practice.exec-6558.devalPractice";;;;;;;;;;;;"7508";"2014-10-16 13:42:05.324";"2";"2";"4";"6";"1228";"1302";"1954";"2014-10-16 13:41:57.820";;;;;;;;;;;;;;;;;;;;;;;;;;;;;;;;;;;;;;;;;;;;;;;;;;;;;;;;;;;;;;;;;;;;;;
"Nectarine92";"1992";;"Windows 7";"Rachel's Experiment (D.T.)";"1.0";"2";"1";"1";"2";"1";"1";"2014-10-16 13:32:45.751";"2014-10-16 13:45:30.901";"1";"1";"1";"163";"162";"module.devaluation_practice.exec-6558.devalPractice";;;;;;;;;;;;"11330";"2014-10-16 13:42:16.790";"3";"2";"1";"4";"1934";"3891";"2454";"2014-10-16 13:42:05.449";;;;;;;;;;;;;;;;;;;;;;;;;;;;;;;;;;;;;;;;;;;;;;;;;;;;;;;;;;;;;;;;;;;;;;
"Nectarine92";"1992";;"Windows 7";"Rachel's Experiment (D.T.)";"1.0";"2";"1";"1";"2";"1";"1";"2014-10-16 13:32:45.751";"2014-10-16 13:45:30.901";"1";"1";"1";"164";"163";"module.devaluation_block1.exec-4448.deval1";"7849";"2014-10-16 13:42:30.284";"6";"3";"8";"7";"1784";"1193";"1844";"2014-10-16 13:42:22.437";"1";;;;;;;;;;;;;;;;;;;;;;;;;;;;;;;;;;;;;;;;;;;;;;;;;;;;;;;;;;;;;;;;;;;;;;;;;;;;;;;;
"Nectarine92";"1992";;"Windows 7";"Rachel's Experiment (D.T.)";"1.0";"2";"1";"1";"2";"1";"1";"2014-10-16 13:32:45.751";"2014-10-16 13:45:30.901";"1";"1";"1";"165";"164";"module.devaluation_block1.exec-4448.deval1";"6230";"2014-10-16 13:42:36.540";"1";"3";"2";"5";"1227";"1045";"935";"2014-10-16 13:42:30.300";"1";;;;;;;;;;;;;;;;;;;;;;;;;;;;;;;;;;;;;;;;;;;;;;;;;;;;;;;;;;;;;;;;;;;;;;;;;;;;;;;;
"Nectarine92";"1992";;"Windows 7";"Rachel's Experiment (D.T.)";"1.0";"2";"1";"1";"2";"1";"1";"2014-10-16 13:32:45.751";"2014-10-16 13:45:30.901";"1";"1";"1";"166";"165";"module.devaluation_block1.exec-4448.deval1";"6405";"2014-10-16 13:42:42.951";"13";"2";"1";"1";"995";"1244";"1122";"2014-10-16 13:42:36.555";"2";;;;;;;;;;;;;;;;;;;;;;;;;;;;;;;;;;;;;;;;;;;;;;;;;;;;;;;;;;;;;;;;;;;;;;;;;;;;;;;;
"Nectarine92";"1992";;"Windows 7";"Rachel's Experiment (D.T.)";"1.0";"2";"1";"1";"2";"1";"1";"2014-10-16 13:32:45.751";"2014-10-16 13:45:30.901";"1";"1";"1";"167";"166";"module.devaluation_block1.exec-4448.deval1";"6809";"2014-10-16 13:42:49.784";"24";"3";"2";"4";"872";"900";"1996";"2014-10-16 13:42:42.982";"3";;;;;;;;;;;;;;;;;;;;;;;;;;;;;;;;;;;;;;;;;;;;;;;;;;;;;;;;;;;;;;;;;;;;;;;;;;;;;;;;
"Nectarine92";"1992";;"Windows 7";"Rachel's Experiment (D.T.)";"1.0";"2";"1";"1";"2";"1";"1";"2014-10-16 13:32:45.751";"2014-10-16 13:45:30.901";"1";"1";"1";"168";"167";"module.devaluation_block1.exec-4448.deval1";"6777";"2014-10-16 13:42:56.586";"16";"2";"6";"4";"967";"1304";"1477";"2014-10-16 13:42:49.815";"2";;;;;;;;;;;;;;;;;;;;;;;;;;;;;;;;;;;;;;;;;;;;;;;;;;;;;;;;;;;;;;;;;;;;;;;;;;;;;;;;
"Nectarine92";"1992";;"Windows 7";"Rachel's Experiment (D.T.)";"1.0";"2";"1";"1";"2";"1";"1";"2014-10-16 13:32:45.751";"2014-10-16 13:45:30.901";"1";"1";"1";"169";"168";"module.devaluation_block1.exec-4448.deval1";"6535";"2014-10-16 13:43:03.153";"10";"7";"5";"6";"1238";"1125";"1146";"2014-10-16 13:42:56.617";"2";;;;;;;;;;;;;;;;;;;;;;;;;;;;;;;;;;;;;;;;;;;;;;;;;;;;;;;;;;;;;;;;;;;;;;;;;;;;;;;;
"Nectarine92";"1992";;"Windows 7";"Rachel's Experiment (D.T.)";"1.0";"2";"1";"1";"2";"1";"1";"2014-10-16 13:32:45.751";"2014-10-16 13:45:30.901";"1";"1";"1";"170";"169";"module.devaluation_block1.exec-4448.deval1";"5645";"2014-10-16 13:43:08.816";"11";"6";"6";"5";"669";"1329";"612";"2014-10-16 13:43:03.169";"2";;;;;;;;;;;;;;;;;;;;;;;;;;;;;;;;;;;;;;;;;;;;;;;;;;;;;;;;;;;;;;;;;;;;;;;;;;;;;;;;
"Nectarine92";"1992";;"Windows 7";"Rachel's Experiment (D.T.)";"1.0";"2";"1";"1";"2";"1";"1";"2014-10-16 13:32:45.751";"2014-10-16 13:45:30.901";"1";"1";"1";"171";"170";"module.devaluation_block1.exec-4448.deval1";"6677";"2014-10-16 13:43:15.509";"2";"3";"4";"3";"759";"1551";"1351";"2014-10-16 13:43:08.832";"1";;;;;;;;;;;;;;;;;;;;;;;;;;;;;;;;;;;;;;;;;;;;;;;;;;;;;;;;;;;;;;;;;;;;;;;;;;;;;;;;
"Nectarine92";"1992";;"Windows 7";"Rachel's Experiment (D.T.)";"1.0";"2";"1";"1";"2";"1";"1";"2014-10-16 13:32:45.751";"2014-10-16 13:45:30.901";"1";"1";"1";"172";"171";"module.devaluation_block1.exec-4448.deval1";"6156";"2014-10-16 13:43:21.686";"19";"6";"3";"7";"586";"1565";"982";"2014-10-16 13:43:15.524";"3";;;;;;;;;;;;;;;;;;;;;;;;;;;;;;;;;;;;;;;;;;;;;;;;;;;;;;;;;;;;;;;;;;;;;;;;;;;;;;;;
"Nectarine92";"1992";;"Windows 7";"Rachel's Experiment (D.T.)";"1.0";"2";"1";"1";"2";"1";"1";"2014-10-16 13:32:45.751";"2014-10-16 13:45:30.901";"1";"1";"1";"173";"172";"module.devaluation_block1.exec-4448.deval1";"6309";"2014-10-16 13:43:28.020";"14";"8";"9";"9";"917";"1153";"1206";"2014-10-16 13:43:21.702";"2";;;;;;;;;;;;;;;;;;;;;;;;;;;;;;;;;;;;;;;;;;;;;;;;;;;;;;;;;;;;;;;;;;;;;;;;;;;;;;;;
"Nectarine92";"1992";;"Windows 7";"Rachel's Experiment (D.T.)";"1.0";"2";"1";"1";"2";"1";"1";"2014-10-16 13:32:45.751";"2014-10-16 13:45:30.901";"1";"1";"1";"174";"173";"module.devaluation_block1.exec-4448.deval1";"6965";"2014-10-16 13:43:34.993";"8";"3";"1";"2";"907";"1024";"2007";"2014-10-16 13:43:28.035";"1";;;;;;;;;;;;;;;;;;;;;;;;;;;;;;;;;;;;;;;;;;;;;;;;;;;;;;;;;;;;;;;;;;;;;;;;;;;;;;;;
"Nectarine92";"1992";;"Windows 7";"Rachel's Experiment (D.T.)";"1.0";"2";"1";"1";"2";"1";"1";"2014-10-16 13:32:45.751";"2014-10-16 13:45:30.901";"1";"1";"1";"175";"174";"module.devaluation_block1.exec-4448.deval1";"6342";"2014-10-16 13:43:41.358";"12";"9";"9";"9";"1182";"1066";"1073";"2014-10-16 13:43:35.009";"2";;;;;;;;;;;;;;;;;;;;;;;;;;;;;;;;;;;;;;;;;;;;;;;;;;;;;;;;;;;;;;;;;;;;;;;;;;;;;;;;
"Nectarine92";"1992";;"Windows 7";"Rachel's Experiment (D.T.)";"1.0";"2";"1";"1";"2";"1";"1";"2014-10-16 13:32:45.751";"2014-10-16 13:45:30.901";"1";"1";"1";"176";"175";"module.devaluation_block1.exec-4448.deval1";"5389";"2014-10-16 13:43:46.771";"17";"3";"4";"5";"801";"920";"651";"2014-10-16 13:43:41.373";"2";;;;;;;;;;;;;;;;;;;;;;;;;;;;;;;;;;;;;;;;;;;;;;;;;;;;;;;;;;;;;;;;;;;;;;;;;;;;;;;;
"Nectarine92";"1992";;"Windows 7";"Rachel's Experiment (D.T.)";"1.0";"2";"1";"1";"2";"1";"1";"2014-10-16 13:32:45.751";"2014-10-16 13:45:30.901";"1";"1";"1";"177";"176";"module.devaluation_block1.exec-4448.deval1";"6872";"2014-10-16 13:43:53.666";"18";"2";"3";"6";"988";"827";"2026";"2014-10-16 13:43:46.787";"3";;;;;;;;;;;;;;;;;;;;;;;;;;;;;;;;;;;;;;;;;;;;;;;;;;;;;;;;;;;;;;;;;;;;;;;;;;;;;;;;
"Nectarine92";"1992";;"Windows 7";"Rachel's Experiment (D.T.)";"1.0";"2";"1";"1";"2";"1";"1";"2014-10-16 13:32:45.751";"2014-10-16 13:45:30.901";"1";"1";"1";"178";"177";"module.devaluation_block1.exec-4448.deval1";"6677";"2014-10-16 13:44:00.359";"0";"1";"2";"3";"1077";"1470";"1093";"2014-10-16 13:43:53.682";"1";;;;;;;;;;;;;;;;;;;;;;;;;;;;;;;;;;;;;;;;;;;;;;;;;;;;;;;;;;;;;;;;;;;;;;;;;;;;;;;;
"Nectarine92";"1992";;"Windows 7";"Rachel's Experiment (D.T.)";"1.0";"2";"1";"1";"2";"1";"1";"2014-10-16 13:32:45.751";"2014-10-16 13:45:30.901";"1";"1";"1";"179";"178";"module.devaluation_block1.exec-4448.deval1";"10277";"2014-10-16 13:44:10.655";"20";"2";"1";"1";"4416";"800";"2038";"2014-10-16 13:44:00.374";"3";;;;;;;;;;;;;;;;;;;;;;;;;;;;;;;;;;;;;;;;;;;;;;;;;;;;;;;;;;;;;;;;;;;;;;;;;;;;;;;;
"Nectarine92";"1992";;"Windows 7";"Rachel's Experiment (D.T.)";"1.0";"2";"1";"1";"2";"1";"1";"2014-10-16 13:32:45.751";"2014-10-16 13:45:30.901";"1";"1";"1";"180";"179";"module.devaluation_block1.exec-4448.deval1";"10714";"2014-10-16 13:44:21.403";"9";"7";"7";"9";"1536";"1575";"4581";"2014-10-16 13:44:10.686";"2";;;;;;;;;;;;;;;;;;;;;;;;;;;;;;;;;;;;;;;;;;;;;;;;;;;;;;;;;;;;;;;;;;;;;;;;;;;;;;;;
"Nectarine92";"1992";;"Windows 7";"Rachel's Experiment (D.T.)";"1.0";"2";"1";"1";"2";"1";"1";"2014-10-16 13:32:45.751";"2014-10-16 13:45:30.901";"1";"1";"1";"181";"180";"module.devaluation_block1.exec-4448.deval1";"7012";"2014-10-16 13:44:28.423";"21";"1";"1";"2";"1643";"1041";"1307";"2014-10-16 13:44:21.419";"3";;;;;;;;;;;;;;;;;;;;;;;;;;;;;;;;;;;;;;;;;;;;;;;;;;;;;;;;;;;;;;;;;;;;;;;;;;;;;;;;
"Nectarine92";"1992";;"Windows 7";"Rachel's Experiment (D.T.)";"1.0";"2";"1";"1";"2";"1";"1";"2014-10-16 13:32:45.751";"2014-10-16 13:45:30.901";"1";"1";"1";"182";"181";"module.devaluation_block1.exec-4448.deval1";"5933";"2014-10-16 13:44:34.382";"26";"3";"1";"4";"760";"1018";"1128";"2014-10-16 13:44:28.454";"3";;;;;;;;;;;;;;;;;;;;;;;;;;;;;;;;;;;;;;;;;;;;;;;;;;;;;;;;;;;;;;;;;;;;;;;;;;;;;;;;
"Nectarine92";"1992";;"Windows 7";"Rachel's Experiment (D.T.)";"1.0";"2";"1";"1";"2";"1";"1";"2014-10-16 13:32:45.751";"2014-10-16 13:45:30.901";"1";"1";"1";"183";"182";"module.devaluation_block1.exec-4448.deval1";"6141";"2014-10-16 13:44:40.544";"22";"1";"1";"1";"1048";"1110";"960";"2014-10-16 13:44:34.398";"3";;;;;;;;;;;;;;;;;;;;;;;;;;;;;;;;;;;;;;;;;;;;;;;;;;;;;;;;;;;;;;;;;;;;;;;;;;;;;;;;
"Nectarine92";"1992";;"Windows 7";"Rachel's Experiment (D.T.)";"1.0";"2";"1";"1";"2";"1";"1";"2014-10-16 13:32:45.751";"2014-10-16 13:45:30.901";"1";"1";"1";"184";"183";"module.devaluation_block1.exec-4448.deval1";"8277";"2014-10-16 13:44:48.844";"15";"3";"2";"4";"1998";"1543";"1703";"2014-10-16 13:44:40.560";"2";;;;;;;;;;;;;;;;;;;;;;;;;;;;;;;;;;;;;;;;;;;;;;;;;;;;;;;;;;;;;;;;;;;;;;;;;;;;;;;;
"Nectarine92";"1992";;"Windows 7";"Rachel's Experiment (D.T.)";"1.0";"2";"1";"1";"2";"1";"1";"2014-10-16 13:32:45.751";"2014-10-16 13:45:30.901";"1";"1";"1";"185";"184";"module.devaluation_block1.exec-4448.deval1";"6316";"2014-10-16 13:44:55.193";"25";"1";"1";"1";"1187";"1312";"791";"2014-10-16 13:44:48.875";"3";;;;;;;;;;;;;;;;;;;;;;;;;;;;;;;;;;;;;;;;;;;;;;;;;;;;;;;;;;;;;;;;;;;;;;;;;;;;;;;;
"Nectarine92";"1992";;"Windows 7";"Rachel's Experiment (D.T.)";"1.0";"2";"1";"1";"2";"1";"1";"2014-10-16 13:32:45.751";"2014-10-16 13:45:30.901";"1";"1";"1";"186";"185";"module.devaluation_block1.exec-4448.deval1";"6975";"2014-10-16 13:45:02.197";"5";"6";"2";"7";"1390";"1191";"1367";"2014-10-16 13:44:55.224";"1";;;;;;;;;;;;;;;;;;;;;;;;;;;;;;;;;;;;;;;;;;;;;;;;;;;;;;;;;;;;;;;;;;;;;;;;;;;;;;;;
"Nectarine92";"1992";;"Windows 7";"Rachel's Experiment (D.T.)";"1.0";"2";"1";"1";"2";"1";"1";"2014-10-16 13:32:45.751";"2014-10-16 13:45:30.901";"1";"1";"1";"187";"186";"module.devaluation_block1.exec-4448.deval1";"7113";"2014-10-16 13:45:09.326";"7";"3";"2";"6";"1377";"1931";"778";"2014-10-16 13:45:02.213";"1";;;;;;;;;;;;;;;;;;;;;;;;;;;;;;;;;;;;;;;;;;;;;;;;;;;;;;;;;;;;;;;;;;;;;;;;;;;;;;;;
"Nectarine92";"1992";;"Windows 7";"Rachel's Experiment (D.T.)";"1.0";"2";"1";"1";"2";"1";"1";"2014-10-16 13:32:45.751";"2014-10-16 13:45:30.901";"1";"1";"1";"188";"187";"module.devaluation_block1.exec-4448.deval1";"6173";"2014-10-16 13:45:15.520";"23";"1";"1";"1";"1000";"1087";"1055";"2014-10-16 13:45:09.358";"3";;;;;;;;;;;;;;;;;;;;;;;;;;;;;;;;;;;;;;;;;;;;;;;;;;;;;;;;;;;;;;;;;;;;;;;;;;;;;;;;
"Nectarine92";"1992";;"Windows 7";"Rachel's Experiment (D.T.)";"1.0";"2";"1";"1";"2";"1";"1";"2014-10-16 13:32:45.751";"2014-10-16 13:45:30.901";"1";"1";"1";"189";"188";"module.devaluation_block1.exec-4448.deval1";"6477";"2014-10-16 13:45:22.025";"4";"1";"1";"2";"1447";"1078";"921";"2014-10-16 13:45:15.551";"1";;;;;;;;;;;;;;;;;;;;;;;;;;;;;;;;;;;;;;;;;;;;;;;;;;;;;;;;;;;;;;;;;;;;;;;;;;;;;;;;
"Nectarine92";"1992";;"Windows 7";"Rachel's Experiment (D.T.)";"1.0";"2";"1";"1";"2";"1";"1";"2014-10-16 13:32:45.751";"2014-10-16 13:45:30.901";"1";"1";"1";"190";"189";"module.devaluation_block1.exec-4448.deval1";"6648";"2014-10-16 13:45:28.702";"3";"3";"3";"7";"838";"722";"2056";"2014-10-16 13:45:22.056";"1";;;;;;;;;;;;;;;;;;;;;;;;;;;;;;;;;;;;;;;;;;;;;;;;;;;;;;;;;;;;;;;;;;;;;;;;;;;;;;;;
