"user.name";"user.yearOfBirth";"user.sex";"user.osName";"module.name";"module.version";"module.online.subject.code";"module.online.study.id";"module.online.module.nr";"module.online.group.nr";"session.id";"session.index";"session.startTime";"session.endTime";"session.completed";"session.node-5301.DevalQorder";"session.node-6283.conditionType";"trial.id";"trial.index";"trial.name";"trial.deval1.durationTime";"trial.deval1.endTime";"trial.deval1.icon";"trial.deval1.Resp_Attractive";"trial.deval1.Resp_Eat";"trial.deval1.Resp_Taste";"trial.deval1.RT_Attractive";"trial.deval1.RT_Eat";"trial.deval1.RT_Taste";"trial.deval1.startTime";"trial.deval1.stimulus type";"trial.devalPractice.durationTime";"trial.devalPractice.endTime";"trial.devalPractice.icon";"trial.devalPractice.Resp_Attractive";"trial.devalPractice.Resp_Eat";"trial.devalPractice.Resp_Taste";"trial.devalPractice.RT_Attractive";"trial.devalPractice.RT_Eat";"trial.devalPractice.RT_Taste";"trial.devalPractice.startTime";"trial.devalPractice.stimulus type";"trial.GoNoGo1.durationTime";"trial.GoNoGo1.endTime";"trial.GoNoGo1.Error Type";"trial.GoNoGo1.icon";"trial.GoNoGo1.location";"trial.GoNoGo1.outcome";"trial.GoNoGo1.response";"trial.GoNoGo1.result";"trial.GoNoGo1.RT";"trial.GoNoGo1.signal";"trial.GoNoGo1.startTime";"trial.GoNoGo1.stimulus type";"trial.GoNoGo2.durationTime";"trial.GoNoGo2.endTime";"trial.GoNoGo2.Error Type";"trial.GoNoGo2.icon";"trial.GoNoGo2.location";"trial.GoNoGo2.outcome";"trial.GoNoGo2.response";"trial.GoNoGo2.result";"trial.GoNoGo2.RT";"trial.GoNoGo2.signal";"trial.GoNoGo2.startTime";"trial.GoNoGo2.stimulus type";"trial.GoNoGo3.durationTime";"trial.GoNoGo3.endTime";"trial.GoNoGo3.Error Type";"trial.GoNoGo3.icon";"trial.GoNoGo3.location";"trial.GoNoGo3.outcome";"trial.GoNoGo3.response";"trial.GoNoGo3.result";"trial.GoNoGo3.RT";"trial.GoNoGo3.signal";"trial.GoNoGo3.startTime";"trial.GoNoGo3.stimulus type";"trial.GoNoGo4.durationTime";"trial.GoNoGo4.endTime";"trial.GoNoGo4.Error Type";"trial.GoNoGo4.icon";"trial.GoNoGo4.location";"trial.GoNoGo4.outcome";"trial.GoNoGo4.response";"trial.GoNoGo4.result";"trial.GoNoGo4.RT";"trial.GoNoGo4.signal";"trial.GoNoGo4.startTime";"trial.GoNoGo4.stimulus type";"trial.GoNoGo_Practice.durationTime";"trial.GoNoGo_Practice.endTime";"trial.GoNoGo_Practice.icon";"trial.GoNoGo_Practice.location";"trial.GoNoGo_Practice.outcome";"trial.GoNoGo_Practice.response";"trial.GoNoGo_Practice.result";"trial.GoNoGo_Practice.RT";"trial.GoNoGo_Practice.signal";"trial.GoNoGo_Practice.startTime";"trial.GoNoGo_Practice.stimulus type";"trial.GoNoGo_Tutorial.durationTime";"trial.GoNoGo_Tutorial.endTime";"trial.GoNoGo_Tutorial.icon";"trial.GoNoGo_Tutorial.location";"trial.GoNoGo_Tutorial.outcome";"trial.GoNoGo_Tutorial.response";"trial.GoNoGo_Tutorial.result";"trial.GoNoGo_Tutorial.RT";"trial.GoNoGo_Tutorial.signal";"trial.GoNoGo_Tutorial.startTime"
"sng6";;;"Windows 7";"Rachel's Experiment (D.T.)";"1.0";"2";"1";"1";"2";"1";"1";"2014-10-15 15:49:57.427";"2014-10-15 16:02:44.278";"1";"1";"1";"1";"0";"module.GoNoGotutorial.exec-1249.GoNoGo_Tutorial";;;;;;;;;;;;;;;;;;;;;;;;;;;;;;;;;;;;;;;;;;;;;;;;;;;;;;;;;;;;;;;;;;;;;;;;;;;;;;;;;;"3998";"2014-10-15 15:51:00.576";"leftResponse";"0";"FINISHED";"LEFT";"success";"1551";"0";"2014-10-15 15:50:56.567"
"sng6";;;"Windows 7";"Rachel's Experiment (D.T.)";"1.0";"2";"1";"1";"2";"1";"1";"2014-10-15 15:49:57.427";"2014-10-15 16:02:44.278";"1";"1";"1";"2";"1";"module.GoNoGotutorial.exec-1249.GoNoGo_Tutorial";;;;;;;;;;;;;;;;;;;;;;;;;;;;;;;;;;;;;;;;;;;;;;;;;;;;;;;;;;;;;;;;;;;;;;;;;;;;;;;;;;"4007";"2014-10-15 15:51:05.896";"rightResponse";"1";"FINISHED";"RIGHT";"success";"912";"0";"2014-10-15 15:51:01.886"
"sng6";;;"Windows 7";"Rachel's Experiment (D.T.)";"1.0";"2";"1";"1";"2";"1";"1";"2014-10-15 15:49:57.427";"2014-10-15 16:02:44.278";"1";"1";"1";"3";"2";"module.GoNoGotutorial.exec-1249.GoNoGo_Tutorial";;;;;;;;;;;;;;;;;;;;;;;;;;;;;;;;;;;;;;;;;;;;;;;;;;;;;;;;;;;;;;;;;;;;;;;;;;;;;;;;;;"4003";"2014-10-15 15:51:11.200";"signalResponse";"0";"FINISHED";"NONE";"success";"0";"1";"2014-10-15 15:51:07.190"
"sng6";;;"Windows 7";"Rachel's Experiment (D.T.)";"1.0";"2";"1";"1";"2";"1";"1";"2014-10-15 15:49:57.427";"2014-10-15 16:02:44.278";"1";"1";"1";"4";"3";"module.GoNoGopractice.exec-9229.GoNoGo_Practice";;;;;;;;;;;;;;;;;;;;;;;;;;;;;;;;;;;;;;;;;;;;;;;;;;;;;;;;;;;;;;;;;;;;;;;"1959";"2014-10-15 15:51:19.327";"18";"0";"FINISHED";"LEFT";"success";"320";"0";"2014-10-15 15:51:17.362";"3";;;;;;;;;;
"sng6";;;"Windows 7";"Rachel's Experiment (D.T.)";"1.0";"2";"1";"1";"2";"1";"1";"2014-10-15 15:49:57.427";"2014-10-15 16:02:44.278";"1";"1";"1";"5";"4";"module.GoNoGopractice.exec-9229.GoNoGo_Practice";;;;;;;;;;;;;;;;;;;;;;;;;;;;;;;;;;;;;;;;;;;;;;;;;;;;;;;;;;;;;;;;;;;;;;;"1959";"2014-10-15 15:51:22.572";"21";"1";"FINISHED";"RIGHT";"success";"340";"0";"2014-10-15 15:51:20.606";"3";;;;;;;;;;
"sng6";;;"Windows 7";"Rachel's Experiment (D.T.)";"1.0";"2";"1";"1";"2";"1";"1";"2014-10-15 15:49:57.427";"2014-10-15 16:02:44.278";"1";"1";"1";"6";"5";"module.GoNoGopractice.exec-9229.GoNoGo_Practice";;;;;;;;;;;;;;;;;;;;;;;;;;;;;;;;;;;;;;;;;;;;;;;;;;;;;;;;;;;;;;;;;;;;;;;"1958";"2014-10-15 15:51:25.817";"14";"1";"FINISHED";"RIGHT";"failure";"383";"1";"2014-10-15 15:51:23.851";"2";;;;;;;;;;
"sng6";;;"Windows 7";"Rachel's Experiment (D.T.)";"1.0";"2";"1";"1";"2";"1";"1";"2014-10-15 15:49:57.427";"2014-10-15 16:02:44.278";"1";"1";"1";"7";"6";"module.GoNoGopractice.exec-9229.GoNoGo_Practice";;;;;;;;;;;;;;;;;;;;;;;;;;;;;;;;;;;;;;;;;;;;;;;;;;;;;;;;;;;;;;;;;;;;;;;"1959";"2014-10-15 15:51:29.062";"26";"0";"FINISHED";"LEFT";"success";"395";"0";"2014-10-15 15:51:27.096";"3";;;;;;;;;;
"sng6";;;"Windows 7";"Rachel's Experiment (D.T.)";"1.0";"2";"1";"1";"2";"1";"1";"2014-10-15 15:49:57.427";"2014-10-15 16:02:44.278";"1";"1";"1";"8";"7";"module.GoNoGopractice.exec-9229.GoNoGo_Practice";;;;;;;;;;;;;;;;;;;;;;;;;;;;;;;;;;;;;;;;;;;;;;;;;;;;;;;;;;;;;;;;;;;;;;;"1959";"2014-10-15 15:51:32.307";"2";"0";"FINISHED";"LEFT";"success";"398";"0";"2014-10-15 15:51:30.341";"1";;;;;;;;;;
"sng6";;;"Windows 7";"Rachel's Experiment (D.T.)";"1.0";"2";"1";"1";"2";"1";"1";"2014-10-15 15:49:57.427";"2014-10-15 16:02:44.278";"1";"1";"1";"9";"8";"module.GoNoGopractice.exec-9229.GoNoGo_Practice";;;;;;;;;;;;;;;;;;;;;;;;;;;;;;;;;;;;;;;;;;;;;;;;;;;;;;;;;;;;;;;;;;;;;;;"1960";"2014-10-15 15:51:35.551";"30";"0";"FINISHED";"LEFT";"failure";"401";"1";"2014-10-15 15:51:33.586";"3";;;;;;;;;;
"sng6";;;"Windows 7";"Rachel's Experiment (D.T.)";"1.0";"2";"1";"1";"2";"1";"1";"2014-10-15 15:49:57.427";"2014-10-15 16:02:44.278";"1";"1";"1";"10";"9";"module.GoNoGopractice.exec-9229.GoNoGo_Practice";;;;;;;;;;;;;;;;;;;;;;;;;;;;;;;;;;;;;;;;;;;;;;;;;;;;;;;;;;;;;;;;;;;;;;;"1959";"2014-10-15 15:51:38.796";"6";"1";"FINISHED";"RIGHT";"failure";"340";"1";"2014-10-15 15:51:36.831";"1";;;;;;;;;;
"sng6";;;"Windows 7";"Rachel's Experiment (D.T.)";"1.0";"2";"1";"1";"2";"1";"1";"2014-10-15 15:49:57.427";"2014-10-15 16:02:44.278";"1";"1";"1";"11";"10";"module.GoNoGopractice.exec-9229.GoNoGo_Practice";;;;;;;;;;;;;;;;;;;;;;;;;;;;;;;;;;;;;;;;;;;;;;;;;;;;;;;;;;;;;;;;;;;;;;;"1960";"2014-10-15 15:51:42.057";"34";"0";"FINISHED";"LEFT";"success";"417";"0";"2014-10-15 15:51:40.091";"3";;;;;;;;;;
"sng6";;;"Windows 7";"Rachel's Experiment (D.T.)";"1.0";"2";"1";"1";"2";"1";"1";"2014-10-15 15:49:57.427";"2014-10-15 16:02:44.278";"1";"1";"1";"12";"11";"module.GoNoGopractice.exec-9229.GoNoGo_Practice";;;;;;;;;;;;;;;;;;;;;;;;;;;;;;;;;;;;;;;;;;;;;;;;;;;;;;;;;;;;;;;;;;;;;;;"1959";"2014-10-15 15:51:45.301";"23";"1";"FINISHED";"RIGHT";"success";"427";"0";"2014-10-15 15:51:43.336";"3";;;;;;;;;;
"sng6";;;"Windows 7";"Rachel's Experiment (D.T.)";"1.0";"2";"1";"1";"2";"1";"1";"2014-10-15 15:49:57.427";"2014-10-15 16:02:44.278";"1";"1";"1";"13";"12";"module.GoNoGopractice.exec-9229.GoNoGo_Practice";;;;;;;;;;;;;;;;;;;;;;;;;;;;;;;;;;;;;;;;;;;;;;;;;;;;;;;;;;;;;;;;;;;;;;;"1959";"2014-10-15 15:51:48.546";"13";"0";"FINISHED";"NONE";"success";"0";"1";"2014-10-15 15:51:46.581";"2";;;;;;;;;;
"sng6";;;"Windows 7";"Rachel's Experiment (D.T.)";"1.0";"2";"1";"1";"2";"1";"1";"2014-10-15 15:49:57.427";"2014-10-15 16:02:44.278";"1";"1";"1";"14";"13";"module.GoNoGopractice.exec-9229.GoNoGo_Practice";;;;;;;;;;;;;;;;;;;;;;;;;;;;;;;;;;;;;;;;;;;;;;;;;;;;;;;;;;;;;;;;;;;;;;;"1960";"2014-10-15 15:51:51.791";"3";"1";"FINISHED";"RIGHT";"success";"346";"0";"2014-10-15 15:51:49.825";"1";;;;;;;;;;
"sng6";;;"Windows 7";"Rachel's Experiment (D.T.)";"1.0";"2";"1";"1";"2";"1";"1";"2014-10-15 15:49:57.427";"2014-10-15 16:02:44.278";"1";"1";"1";"15";"14";"module.GoNoGopractice.exec-9229.GoNoGo_Practice";;;;;;;;;;;;;;;;;;;;;;;;;;;;;;;;;;;;;;;;;;;;;;;;;;;;;;;;;;;;;;;;;;;;;;;"1959";"2014-10-15 15:51:55.036";"27";"1";"FINISHED";"NONE";"success";"0";"1";"2014-10-15 15:51:53.070";"3";;;;;;;;;;
"sng6";;;"Windows 7";"Rachel's Experiment (D.T.)";"1.0";"2";"1";"1";"2";"1";"1";"2014-10-15 15:49:57.427";"2014-10-15 16:02:44.278";"1";"1";"1";"16";"15";"module.training_block1.exec-8005.GoNoGo1";;;;;;;;;;;;;;;;;;;;;;;"1261";"2014-10-15 15:52:05.940";"ST_failedStop";"21";"0";"FINISHED";"LEFT";"failure";"417";"1";"2014-10-15 15:52:04.677";"3";;;;;;;;;;;;;;;;;;;;;;;;;;;;;;;;;;;;;;;;;;;;;;;;;;;;;;;;;
"sng6";;;"Windows 7";"Rachel's Experiment (D.T.)";"1.0";"2";"1";"1";"2";"1";"1";"2014-10-15 15:49:57.427";"2014-10-15 16:02:44.278";"1";"1";"1";"17";"16";"module.training_block1.exec-8005.GoNoGo1";;;;;;;;;;;;;;;;;;;;;;;"1257";"2014-10-15 15:52:08.483";"NST_correctLoc";"15";"0";"FINISHED";"LEFT";"success";"567";"0";"2014-10-15 15:52:07.219";"2";;;;;;;;;;;;;;;;;;;;;;;;;;;;;;;;;;;;;;;;;;;;;;;;;;;;;;;;;
"sng6";;;"Windows 7";"Rachel's Experiment (D.T.)";"1.0";"2";"1";"1";"2";"1";"1";"2014-10-15 15:49:57.427";"2014-10-15 16:02:44.278";"1";"1";"1";"18";"17";"module.training_block1.exec-8005.GoNoGo1";;;;;;;;;;;;;;;;;;;;;;;"1258";"2014-10-15 15:52:11.026";"NST_correctLoc";"24";"0";"FINISHED";"LEFT";"success";"385";"0";"2014-10-15 15:52:09.762";"3";;;;;;;;;;;;;;;;;;;;;;;;;;;;;;;;;;;;;;;;;;;;;;;;;;;;;;;;;
"sng6";;;"Windows 7";"Rachel's Experiment (D.T.)";"1.0";"2";"1";"1";"2";"1";"1";"2014-10-15 15:49:57.427";"2014-10-15 16:02:44.278";"1";"1";"1";"19";"18";"module.training_block1.exec-8005.GoNoGo1";;;;;;;;;;;;;;;;;;;;;;;"1257";"2014-10-15 15:52:13.569";"ST_correctStop";"0";"0";"FINISHED";"NONE";"success";"0";"1";"2014-10-15 15:52:12.305";"1";;;;;;;;;;;;;;;;;;;;;;;;;;;;;;;;;;;;;;;;;;;;;;;;;;;;;;;;;
"sng6";;;"Windows 7";"Rachel's Experiment (D.T.)";"1.0";"2";"1";"1";"2";"1";"1";"2014-10-15 15:49:57.427";"2014-10-15 16:02:44.278";"1";"1";"1";"20";"19";"module.training_block1.exec-8005.GoNoGo1";;;;;;;;;;;;;;;;;;;;;;;"1261";"2014-10-15 15:52:16.111";"ST_correctStop";"2";"0";"FINISHED";"NONE";"success";"0";"1";"2014-10-15 15:52:14.848";"1";;;;;;;;;;;;;;;;;;;;;;;;;;;;;;;;;;;;;;;;;;;;;;;;;;;;;;;;;
"sng6";;;"Windows 7";"Rachel's Experiment (D.T.)";"1.0";"2";"1";"1";"2";"1";"1";"2014-10-15 15:49:57.427";"2014-10-15 16:02:44.278";"1";"1";"1";"21";"20";"module.training_block1.exec-8005.GoNoGo1";;;;;;;;;;;;;;;;;;;;;;;"1258";"2014-10-15 15:52:18.654";"ST_correctStop";"1";"0";"FINISHED";"NONE";"success";"0";"1";"2014-10-15 15:52:17.391";"1";;;;;;;;;;;;;;;;;;;;;;;;;;;;;;;;;;;;;;;;;;;;;;;;;;;;;;;;;
"sng6";;;"Windows 7";"Rachel's Experiment (D.T.)";"1.0";"2";"1";"1";"2";"1";"1";"2014-10-15 15:49:57.427";"2014-10-15 16:02:44.278";"1";"1";"1";"22";"21";"module.training_block1.exec-8005.GoNoGo1";;;;;;;;;;;;;;;;;;;;;;;"1261";"2014-10-15 15:52:21.197";"NST_correctLoc";"23";"0";"FINISHED";"LEFT";"success";"497";"0";"2014-10-15 15:52:19.933";"3";;;;;;;;;;;;;;;;;;;;;;;;;;;;;;;;;;;;;;;;;;;;;;;;;;;;;;;;;
"sng6";;;"Windows 7";"Rachel's Experiment (D.T.)";"1.0";"2";"1";"1";"2";"1";"1";"2014-10-15 15:49:57.427";"2014-10-15 16:02:44.278";"1";"1";"1";"23";"22";"module.training_block1.exec-8005.GoNoGo1";;;;;;;;;;;;;;;;;;;;;;;"1258";"2014-10-15 15:52:23.740";"ST_correctStop";"5";"0";"FINISHED";"NONE";"success";"0";"1";"2014-10-15 15:52:22.476";"1";;;;;;;;;;;;;;;;;;;;;;;;;;;;;;;;;;;;;;;;;;;;;;;;;;;;;;;;;
"sng6";;;"Windows 7";"Rachel's Experiment (D.T.)";"1.0";"2";"1";"1";"2";"1";"1";"2014-10-15 15:49:57.427";"2014-10-15 16:02:44.278";"1";"1";"1";"24";"23";"module.training_block1.exec-8005.GoNoGo1";;;;;;;;;;;;;;;;;;;;;;;"1261";"2014-10-15 15:52:26.283";"ST_correctStop";"6";"0";"FINISHED";"NONE";"success";"0";"1";"2014-10-15 15:52:25.019";"1";;;;;;;;;;;;;;;;;;;;;;;;;;;;;;;;;;;;;;;;;;;;;;;;;;;;;;;;;
"sng6";;;"Windows 7";"Rachel's Experiment (D.T.)";"1.0";"2";"1";"1";"2";"1";"1";"2014-10-15 15:49:57.427";"2014-10-15 16:02:44.278";"1";"1";"1";"25";"24";"module.training_block1.exec-8005.GoNoGo1";;;;;;;;;;;;;;;;;;;;;;;"1257";"2014-10-15 15:52:28.825";"NST_correctLoc";"31";"0";"FINISHED";"LEFT";"success";"496";"0";"2014-10-15 15:52:27.562";"3";;;;;;;;;;;;;;;;;;;;;;;;;;;;;;;;;;;;;;;;;;;;;;;;;;;;;;;;;
"sng6";;;"Windows 7";"Rachel's Experiment (D.T.)";"1.0";"2";"1";"1";"2";"1";"1";"2014-10-15 15:49:57.427";"2014-10-15 16:02:44.278";"1";"1";"1";"26";"25";"module.training_block1.exec-8005.GoNoGo1";;;;;;;;;;;;;;;;;;;;;;;"1257";"2014-10-15 15:52:31.368";"ST_correctStop";"8";"1";"FINISHED";"NONE";"success";"0";"1";"2014-10-15 15:52:30.105";"1";;;;;;;;;;;;;;;;;;;;;;;;;;;;;;;;;;;;;;;;;;;;;;;;;;;;;;;;;
"sng6";;;"Windows 7";"Rachel's Experiment (D.T.)";"1.0";"2";"1";"1";"2";"1";"1";"2014-10-15 15:49:57.427";"2014-10-15 16:02:44.278";"1";"1";"1";"27";"26";"module.training_block1.exec-8005.GoNoGo1";;;;;;;;;;;;;;;;;;;;;;;"1261";"2014-10-15 15:52:33.911";"NST_correctLoc";"18";"0";"FINISHED";"LEFT";"success";"479";"0";"2014-10-15 15:52:32.647";"3";;;;;;;;;;;;;;;;;;;;;;;;;;;;;;;;;;;;;;;;;;;;;;;;;;;;;;;;;
"sng6";;;"Windows 7";"Rachel's Experiment (D.T.)";"1.0";"2";"1";"1";"2";"1";"1";"2014-10-15 15:49:57.427";"2014-10-15 16:02:44.278";"1";"1";"1";"28";"27";"module.training_block1.exec-8005.GoNoGo1";;;;;;;;;;;;;;;;;;;;;;;"1261";"2014-10-15 15:52:36.454";"ST_correctStop";"30";"1";"FINISHED";"NONE";"success";"0";"1";"2014-10-15 15:52:35.190";"3";;;;;;;;;;;;;;;;;;;;;;;;;;;;;;;;;;;;;;;;;;;;;;;;;;;;;;;;;
"sng6";;;"Windows 7";"Rachel's Experiment (D.T.)";"1.0";"2";"1";"1";"2";"1";"1";"2014-10-15 15:49:57.427";"2014-10-15 16:02:44.278";"1";"1";"1";"29";"28";"module.training_block1.exec-8005.GoNoGo1";;;;;;;;;;;;;;;;;;;;;;;"1258";"2014-10-15 15:52:38.997";"ST_correctStop";"33";"0";"FINISHED";"NONE";"success";"0";"1";"2014-10-15 15:52:37.733";"3";;;;;;;;;;;;;;;;;;;;;;;;;;;;;;;;;;;;;;;;;;;;;;;;;;;;;;;;;
"sng6";;;"Windows 7";"Rachel's Experiment (D.T.)";"1.0";"2";"1";"1";"2";"1";"1";"2014-10-15 15:49:57.427";"2014-10-15 16:02:44.278";"1";"1";"1";"30";"29";"module.training_block1.exec-8005.GoNoGo1";;;;;;;;;;;;;;;;;;;;;;;"1261";"2014-10-15 15:52:41.539";"NST_correctLoc";"14";"1";"FINISHED";"RIGHT";"success";"394";"0";"2014-10-15 15:52:40.276";"2";;;;;;;;;;;;;;;;;;;;;;;;;;;;;;;;;;;;;;;;;;;;;;;;;;;;;;;;;
"sng6";;;"Windows 7";"Rachel's Experiment (D.T.)";"1.0";"2";"1";"1";"2";"1";"1";"2014-10-15 15:49:57.427";"2014-10-15 16:02:44.278";"1";"1";"1";"31";"30";"module.training_block1.exec-8005.GoNoGo1";;;;;;;;;;;;;;;;;;;;;;;"1261";"2014-10-15 15:52:44.082";"ST_correctStop";"3";"0";"FINISHED";"NONE";"success";"0";"1";"2014-10-15 15:52:42.819";"1";;;;;;;;;;;;;;;;;;;;;;;;;;;;;;;;;;;;;;;;;;;;;;;;;;;;;;;;;
"sng6";;;"Windows 7";"Rachel's Experiment (D.T.)";"1.0";"2";"1";"1";"2";"1";"1";"2014-10-15 15:49:57.427";"2014-10-15 16:02:44.278";"1";"1";"1";"32";"31";"module.training_block1.exec-8005.GoNoGo1";;;;;;;;;;;;;;;;;;;;;;;"1257";"2014-10-15 15:52:46.625";"ST_correctStop";"32";"1";"FINISHED";"NONE";"success";"0";"1";"2014-10-15 15:52:45.361";"3";;;;;;;;;;;;;;;;;;;;;;;;;;;;;;;;;;;;;;;;;;;;;;;;;;;;;;;;;
"sng6";;;"Windows 7";"Rachel's Experiment (D.T.)";"1.0";"2";"1";"1";"2";"1";"1";"2014-10-15 15:49:57.427";"2014-10-15 16:02:44.278";"1";"1";"1";"33";"32";"module.training_block1.exec-8005.GoNoGo1";;;;;;;;;;;;;;;;;;;;;;;"1258";"2014-10-15 15:52:49.168";"ST_correctStop";"28";"0";"FINISHED";"NONE";"success";"0";"1";"2014-10-15 15:52:47.904";"3";;;;;;;;;;;;;;;;;;;;;;;;;;;;;;;;;;;;;;;;;;;;;;;;;;;;;;;;;
"sng6";;;"Windows 7";"Rachel's Experiment (D.T.)";"1.0";"2";"1";"1";"2";"1";"1";"2014-10-15 15:49:57.427";"2014-10-15 16:02:44.278";"1";"1";"1";"34";"33";"module.training_block1.exec-8005.GoNoGo1";;;;;;;;;;;;;;;;;;;;;;;"1258";"2014-10-15 15:52:51.711";"ST_correctStop";"19";"0";"FINISHED";"NONE";"success";"0";"1";"2014-10-15 15:52:50.447";"3";;;;;;;;;;;;;;;;;;;;;;;;;;;;;;;;;;;;;;;;;;;;;;;;;;;;;;;;;
"sng6";;;"Windows 7";"Rachel's Experiment (D.T.)";"1.0";"2";"1";"1";"2";"1";"1";"2014-10-15 15:49:57.427";"2014-10-15 16:02:44.278";"1";"1";"1";"35";"34";"module.training_block1.exec-8005.GoNoGo1";;;;;;;;;;;;;;;;;;;;;;;"1258";"2014-10-15 15:52:54.253";"ST_correctStop";"20";"1";"FINISHED";"NONE";"success";"0";"1";"2014-10-15 15:52:52.990";"3";;;;;;;;;;;;;;;;;;;;;;;;;;;;;;;;;;;;;;;;;;;;;;;;;;;;;;;;;
"sng6";;;"Windows 7";"Rachel's Experiment (D.T.)";"1.0";"2";"1";"1";"2";"1";"1";"2014-10-15 15:49:57.427";"2014-10-15 16:02:44.278";"1";"1";"1";"36";"35";"module.training_block1.exec-8005.GoNoGo1";;;;;;;;;;;;;;;;;;;;;;;"1257";"2014-10-15 15:52:56.796";"ST_correctStop";"7";"1";"FINISHED";"NONE";"success";"0";"1";"2014-10-15 15:52:55.533";"1";;;;;;;;;;;;;;;;;;;;;;;;;;;;;;;;;;;;;;;;;;;;;;;;;;;;;;;;;
"sng6";;;"Windows 7";"Rachel's Experiment (D.T.)";"1.0";"2";"1";"1";"2";"1";"1";"2014-10-15 15:49:57.427";"2014-10-15 16:02:44.278";"1";"1";"1";"37";"36";"module.training_block1.exec-8005.GoNoGo1";;;;;;;;;;;;;;;;;;;;;;;"1257";"2014-10-15 15:52:59.339";"NST_correctLoc";"11";"0";"FINISHED";"LEFT";"success";"518";"0";"2014-10-15 15:52:58.075";"2";;;;;;;;;;;;;;;;;;;;;;;;;;;;;;;;;;;;;;;;;;;;;;;;;;;;;;;;;
"sng6";;;"Windows 7";"Rachel's Experiment (D.T.)";"1.0";"2";"1";"1";"2";"1";"1";"2014-10-15 15:49:57.427";"2014-10-15 16:02:44.278";"1";"1";"1";"38";"37";"module.training_block1.exec-8005.GoNoGo1";;;;;;;;;;;;;;;;;;;;;;;"1261";"2014-10-15 15:53:01.882";"ST_correctStop";"34";"0";"FINISHED";"NONE";"success";"0";"1";"2014-10-15 15:53:00.618";"3";;;;;;;;;;;;;;;;;;;;;;;;;;;;;;;;;;;;;;;;;;;;;;;;;;;;;;;;;
"sng6";;;"Windows 7";"Rachel's Experiment (D.T.)";"1.0";"2";"1";"1";"2";"1";"1";"2014-10-15 15:49:57.427";"2014-10-15 16:02:44.278";"1";"1";"1";"39";"38";"module.training_block1.exec-8005.GoNoGo1";;;;;;;;;;;;;;;;;;;;;;;"1251";"2014-10-15 15:53:04.534";"NST_correctLoc";"17";"0";"FINISHED";"LEFT";"success";"509";"0";"2014-10-15 15:53:03.270";"2";;;;;;;;;;;;;;;;;;;;;;;;;;;;;;;;;;;;;;;;;;;;;;;;;;;;;;;;;
"sng6";;;"Windows 7";"Rachel's Experiment (D.T.)";"1.0";"2";"1";"1";"2";"1";"1";"2014-10-15 15:49:57.427";"2014-10-15 16:02:44.278";"1";"1";"1";"40";"39";"module.training_block1.exec-8005.GoNoGo1";;;;;;;;;;;;;;;;;;;;;;;"1257";"2014-10-15 15:53:07.077";"NST_correctLoc";"26";"1";"FINISHED";"RIGHT";"success";"565";"0";"2014-10-15 15:53:05.813";"3";;;;;;;;;;;;;;;;;;;;;;;;;;;;;;;;;;;;;;;;;;;;;;;;;;;;;;;;;
"sng6";;;"Windows 7";"Rachel's Experiment (D.T.)";"1.0";"2";"1";"1";"2";"1";"1";"2014-10-15 15:49:57.427";"2014-10-15 16:02:44.278";"1";"1";"1";"41";"40";"module.training_block1.exec-8005.GoNoGo1";;;;;;;;;;;;;;;;;;;;;;;"1258";"2014-10-15 15:53:09.619";"NST_correctLoc";"16";"0";"FINISHED";"LEFT";"success";"391";"0";"2014-10-15 15:53:08.356";"2";;;;;;;;;;;;;;;;;;;;;;;;;;;;;;;;;;;;;;;;;;;;;;;;;;;;;;;;;
"sng6";;;"Windows 7";"Rachel's Experiment (D.T.)";"1.0";"2";"1";"1";"2";"1";"1";"2014-10-15 15:49:57.427";"2014-10-15 16:02:44.278";"1";"1";"1";"42";"41";"module.training_block1.exec-8005.GoNoGo1";;;;;;;;;;;;;;;;;;;;;;;"1257";"2014-10-15 15:53:12.162";"NST_correctLoc";"10";"1";"FINISHED";"RIGHT";"success";"359";"0";"2014-10-15 15:53:10.899";"2";;;;;;;;;;;;;;;;;;;;;;;;;;;;;;;;;;;;;;;;;;;;;;;;;;;;;;;;;
"sng6";;;"Windows 7";"Rachel's Experiment (D.T.)";"1.0";"2";"1";"1";"2";"1";"1";"2014-10-15 15:49:57.427";"2014-10-15 16:02:44.278";"1";"1";"1";"43";"42";"module.training_block1.exec-8005.GoNoGo1";;;;;;;;;;;;;;;;;;;;;;;"1257";"2014-10-15 15:53:14.705";"ST_correctStop";"4";"1";"FINISHED";"NONE";"success";"0";"1";"2014-10-15 15:53:13.441";"1";;;;;;;;;;;;;;;;;;;;;;;;;;;;;;;;;;;;;;;;;;;;;;;;;;;;;;;;;
"sng6";;;"Windows 7";"Rachel's Experiment (D.T.)";"1.0";"2";"1";"1";"2";"1";"1";"2014-10-15 15:49:57.427";"2014-10-15 16:02:44.278";"1";"1";"1";"44";"43";"module.training_block1.exec-8005.GoNoGo1";;;;;;;;;;;;;;;;;;;;;;;"1258";"2014-10-15 15:53:17.248";"NST_correctLoc";"35";"1";"FINISHED";"RIGHT";"success";"418";"0";"2014-10-15 15:53:15.984";"3";;;;;;;;;;;;;;;;;;;;;;;;;;;;;;;;;;;;;;;;;;;;;;;;;;;;;;;;;
"sng6";;;"Windows 7";"Rachel's Experiment (D.T.)";"1.0";"2";"1";"1";"2";"1";"1";"2014-10-15 15:49:57.427";"2014-10-15 16:02:44.278";"1";"1";"1";"45";"44";"module.training_block1.exec-8005.GoNoGo1";;;;;;;;;;;;;;;;;;;;;;;"1257";"2014-10-15 15:53:19.791";"NST_correctLoc";"13";"1";"FINISHED";"RIGHT";"success";"419";"0";"2014-10-15 15:53:18.527";"2";;;;;;;;;;;;;;;;;;;;;;;;;;;;;;;;;;;;;;;;;;;;;;;;;;;;;;;;;
"sng6";;;"Windows 7";"Rachel's Experiment (D.T.)";"1.0";"2";"1";"1";"2";"1";"1";"2014-10-15 15:49:57.427";"2014-10-15 16:02:44.278";"1";"1";"1";"46";"45";"module.training_block1.exec-8005.GoNoGo1";;;;;;;;;;;;;;;;;;;;;;;"1258";"2014-10-15 15:53:22.333";"NST_correctLoc";"9";"0";"FINISHED";"LEFT";"success";"348";"0";"2014-10-15 15:53:21.070";"2";;;;;;;;;;;;;;;;;;;;;;;;;;;;;;;;;;;;;;;;;;;;;;;;;;;;;;;;;
"sng6";;;"Windows 7";"Rachel's Experiment (D.T.)";"1.0";"2";"1";"1";"2";"1";"1";"2014-10-15 15:49:57.427";"2014-10-15 16:02:44.278";"1";"1";"1";"47";"46";"module.training_block1.exec-8005.GoNoGo1";;;;;;;;;;;;;;;;;;;;;;;"1258";"2014-10-15 15:53:24.876";"NST_correctLoc";"12";"1";"FINISHED";"RIGHT";"success";"382";"0";"2014-10-15 15:53:23.613";"2";;;;;;;;;;;;;;;;;;;;;;;;;;;;;;;;;;;;;;;;;;;;;;;;;;;;;;;;;
"sng6";;;"Windows 7";"Rachel's Experiment (D.T.)";"1.0";"2";"1";"1";"2";"1";"1";"2014-10-15 15:49:57.427";"2014-10-15 16:02:44.278";"1";"1";"1";"48";"47";"module.training_block1.exec-8005.GoNoGo1";;;;;;;;;;;;;;;;;;;;;;;"1257";"2014-10-15 15:53:27.419";"NST_correctLoc";"22";"0";"FINISHED";"LEFT";"success";"407";"0";"2014-10-15 15:53:26.156";"3";;;;;;;;;;;;;;;;;;;;;;;;;;;;;;;;;;;;;;;;;;;;;;;;;;;;;;;;;
"sng6";;;"Windows 7";"Rachel's Experiment (D.T.)";"1.0";"2";"1";"1";"2";"1";"1";"2014-10-15 15:49:57.427";"2014-10-15 16:02:44.278";"1";"1";"1";"49";"48";"module.training_block1.exec-8005.GoNoGo1";;;;;;;;;;;;;;;;;;;;;;;"1257";"2014-10-15 15:53:29.962";"NST_correctLoc";"27";"0";"FINISHED";"LEFT";"success";"367";"0";"2014-10-15 15:53:28.698";"3";;;;;;;;;;;;;;;;;;;;;;;;;;;;;;;;;;;;;;;;;;;;;;;;;;;;;;;;;
"sng6";;;"Windows 7";"Rachel's Experiment (D.T.)";"1.0";"2";"1";"1";"2";"1";"1";"2014-10-15 15:49:57.427";"2014-10-15 16:02:44.278";"1";"1";"1";"50";"49";"module.training_block1.exec-8005.GoNoGo1";;;;;;;;;;;;;;;;;;;;;;;"1258";"2014-10-15 15:53:32.505";"NST_correctLoc";"25";"0";"FINISHED";"LEFT";"success";"337";"0";"2014-10-15 15:53:31.241";"3";;;;;;;;;;;;;;;;;;;;;;;;;;;;;;;;;;;;;;;;;;;;;;;;;;;;;;;;;
"sng6";;;"Windows 7";"Rachel's Experiment (D.T.)";"1.0";"2";"1";"1";"2";"1";"1";"2014-10-15 15:49:57.427";"2014-10-15 16:02:44.278";"1";"1";"1";"51";"50";"module.training_block1.exec-8005.GoNoGo1";;;;;;;;;;;;;;;;;;;;;;;"1258";"2014-10-15 15:53:35.048";"ST_correctStop";"29";"1";"FINISHED";"NONE";"success";"0";"1";"2014-10-15 15:53:33.784";"3";;;;;;;;;;;;;;;;;;;;;;;;;;;;;;;;;;;;;;;;;;;;;;;;;;;;;;;;;
"sng6";;;"Windows 7";"Rachel's Experiment (D.T.)";"1.0";"2";"1";"1";"2";"1";"1";"2014-10-15 15:49:57.427";"2014-10-15 16:02:44.278";"1";"1";"1";"52";"51";"module.training_block2.exec-7479.GoNoGo2";;;;;;;;;;;;;;;;;;;;;;;;;;;;;;;;;;;"1257";"2014-10-15 15:53:46.950";"ST_correctStop";"8";"1";"FINISHED";"NONE";"success";"0";"1";"2014-10-15 15:53:45.687";"1";;;;;;;;;;;;;;;;;;;;;;;;;;;;;;;;;;;;;;;;;;;;;
"sng6";;;"Windows 7";"Rachel's Experiment (D.T.)";"1.0";"2";"1";"1";"2";"1";"1";"2014-10-15 15:49:57.427";"2014-10-15 16:02:44.278";"1";"1";"1";"53";"52";"module.training_block2.exec-7479.GoNoGo2";;;;;;;;;;;;;;;;;;;;;;;;;;;;;;;;;;;"1261";"2014-10-15 15:53:49.493";"NST_correctLoc";"26";"0";"FINISHED";"LEFT";"success";"360";"0";"2014-10-15 15:53:48.230";"3";;;;;;;;;;;;;;;;;;;;;;;;;;;;;;;;;;;;;;;;;;;;;
"sng6";;;"Windows 7";"Rachel's Experiment (D.T.)";"1.0";"2";"1";"1";"2";"1";"1";"2014-10-15 15:49:57.427";"2014-10-15 16:02:44.278";"1";"1";"1";"54";"53";"module.training_block2.exec-7479.GoNoGo2";;;;;;;;;;;;;;;;;;;;;;;;;;;;;;;;;;;"1258";"2014-10-15 15:53:52.036";"NST_correctLoc";"33";"1";"FINISHED";"RIGHT";"success";"326";"0";"2014-10-15 15:53:50.772";"3";;;;;;;;;;;;;;;;;;;;;;;;;;;;;;;;;;;;;;;;;;;;;
"sng6";;;"Windows 7";"Rachel's Experiment (D.T.)";"1.0";"2";"1";"1";"2";"1";"1";"2014-10-15 15:49:57.427";"2014-10-15 16:02:44.278";"1";"1";"1";"55";"54";"module.training_block2.exec-7479.GoNoGo2";;;;;;;;;;;;;;;;;;;;;;;;;;;;;;;;;;;"1261";"2014-10-15 15:53:54.579";"ST_failedStop";"25";"0";"FINISHED";"LEFT";"failure";"346";"1";"2014-10-15 15:53:53.315";"3";;;;;;;;;;;;;;;;;;;;;;;;;;;;;;;;;;;;;;;;;;;;;
"sng6";;;"Windows 7";"Rachel's Experiment (D.T.)";"1.0";"2";"1";"1";"2";"1";"1";"2014-10-15 15:49:57.427";"2014-10-15 16:02:44.278";"1";"1";"1";"56";"55";"module.training_block2.exec-7479.GoNoGo2";;;;;;;;;;;;;;;;;;;;;;;;;;;;;;;;;;;"1261";"2014-10-15 15:53:57.137";"NST_miss";"27";"0";"FINISHED";"NONE";"failure";"0";"0";"2014-10-15 15:53:55.874";"3";;;;;;;;;;;;;;;;;;;;;;;;;;;;;;;;;;;;;;;;;;;;;
"sng6";;;"Windows 7";"Rachel's Experiment (D.T.)";"1.0";"2";"1";"1";"2";"1";"1";"2014-10-15 15:49:57.427";"2014-10-15 16:02:44.278";"1";"1";"1";"57";"56";"module.training_block2.exec-7479.GoNoGo2";;;;;;;;;;;;;;;;;;;;;;;;;;;;;;;;;;;"1253";"2014-10-15 15:53:59.680";"ST_correctStop";"18";"1";"FINISHED";"NONE";"success";"0";"1";"2014-10-15 15:53:58.416";"3";;;;;;;;;;;;;;;;;;;;;;;;;;;;;;;;;;;;;;;;;;;;;
"sng6";;;"Windows 7";"Rachel's Experiment (D.T.)";"1.0";"2";"1";"1";"2";"1";"1";"2014-10-15 15:49:57.427";"2014-10-15 16:02:44.278";"1";"1";"1";"58";"57";"module.training_block2.exec-7479.GoNoGo2";;;;;;;;;;;;;;;;;;;;;;;;;;;;;;;;;;;"1257";"2014-10-15 15:54:02.223";"ST_correctStop";"23";"1";"FINISHED";"NONE";"success";"0";"1";"2014-10-15 15:54:00.959";"3";;;;;;;;;;;;;;;;;;;;;;;;;;;;;;;;;;;;;;;;;;;;;
"sng6";;;"Windows 7";"Rachel's Experiment (D.T.)";"1.0";"2";"1";"1";"2";"1";"1";"2014-10-15 15:49:57.427";"2014-10-15 16:02:44.278";"1";"1";"1";"59";"58";"module.training_block2.exec-7479.GoNoGo2";;;;;;;;;;;;;;;;;;;;;;;;;;;;;;;;;;;"1261";"2014-10-15 15:54:04.766";"NST_correctLoc";"17";"1";"FINISHED";"RIGHT";"success";"552";"0";"2014-10-15 15:54:03.502";"2";;;;;;;;;;;;;;;;;;;;;;;;;;;;;;;;;;;;;;;;;;;;;
"sng6";;;"Windows 7";"Rachel's Experiment (D.T.)";"1.0";"2";"1";"1";"2";"1";"1";"2014-10-15 15:49:57.427";"2014-10-15 16:02:44.278";"1";"1";"1";"60";"59";"module.training_block2.exec-7479.GoNoGo2";;;;;;;;;;;;;;;;;;;;;;;;;;;;;;;;;;;"1257";"2014-10-15 15:54:07.308";"NST_correctLoc";"28";"0";"FINISHED";"LEFT";"success";"613";"0";"2014-10-15 15:54:06.045";"3";;;;;;;;;;;;;;;;;;;;;;;;;;;;;;;;;;;;;;;;;;;;;
"sng6";;;"Windows 7";"Rachel's Experiment (D.T.)";"1.0";"2";"1";"1";"2";"1";"1";"2014-10-15 15:49:57.427";"2014-10-15 16:02:44.278";"1";"1";"1";"61";"60";"module.training_block2.exec-7479.GoNoGo2";;;;;;;;;;;;;;;;;;;;;;;;;;;;;;;;;;;"1258";"2014-10-15 15:54:09.851";"ST_correctStop";"3";"1";"FINISHED";"NONE";"success";"0";"1";"2014-10-15 15:54:08.588";"1";;;;;;;;;;;;;;;;;;;;;;;;;;;;;;;;;;;;;;;;;;;;;
"sng6";;;"Windows 7";"Rachel's Experiment (D.T.)";"1.0";"2";"1";"1";"2";"1";"1";"2014-10-15 15:49:57.427";"2014-10-15 16:02:44.278";"1";"1";"1";"62";"61";"module.training_block2.exec-7479.GoNoGo2";;;;;;;;;;;;;;;;;;;;;;;;;;;;;;;;;;;"1258";"2014-10-15 15:54:12.394";"ST_correctStop";"1";"1";"FINISHED";"NONE";"success";"0";"1";"2014-10-15 15:54:11.130";"1";;;;;;;;;;;;;;;;;;;;;;;;;;;;;;;;;;;;;;;;;;;;;
"sng6";;;"Windows 7";"Rachel's Experiment (D.T.)";"1.0";"2";"1";"1";"2";"1";"1";"2014-10-15 15:49:57.427";"2014-10-15 16:02:44.278";"1";"1";"1";"63";"62";"module.training_block2.exec-7479.GoNoGo2";;;;;;;;;;;;;;;;;;;;;;;;;;;;;;;;;;;"1261";"2014-10-15 15:54:14.937";"NST_correctLoc";"9";"0";"FINISHED";"LEFT";"success";"500";"0";"2014-10-15 15:54:13.673";"2";;;;;;;;;;;;;;;;;;;;;;;;;;;;;;;;;;;;;;;;;;;;;
"sng6";;;"Windows 7";"Rachel's Experiment (D.T.)";"1.0";"2";"1";"1";"2";"1";"1";"2014-10-15 15:49:57.427";"2014-10-15 16:02:44.278";"1";"1";"1";"64";"63";"module.training_block2.exec-7479.GoNoGo2";;;;;;;;;;;;;;;;;;;;;;;;;;;;;;;;;;;"1257";"2014-10-15 15:54:17.480";"ST_correctStop";"2";"1";"FINISHED";"NONE";"success";"0";"1";"2014-10-15 15:54:16.216";"1";;;;;;;;;;;;;;;;;;;;;;;;;;;;;;;;;;;;;;;;;;;;;
"sng6";;;"Windows 7";"Rachel's Experiment (D.T.)";"1.0";"2";"1";"1";"2";"1";"1";"2014-10-15 15:49:57.427";"2014-10-15 16:02:44.278";"1";"1";"1";"65";"64";"module.training_block2.exec-7479.GoNoGo2";;;;;;;;;;;;;;;;;;;;;;;;;;;;;;;;;;;"1257";"2014-10-15 15:54:20.022";"ST_correctStop";"6";"1";"FINISHED";"NONE";"success";"0";"1";"2014-10-15 15:54:18.759";"1";;;;;;;;;;;;;;;;;;;;;;;;;;;;;;;;;;;;;;;;;;;;;
"sng6";;;"Windows 7";"Rachel's Experiment (D.T.)";"1.0";"2";"1";"1";"2";"1";"1";"2014-10-15 15:49:57.427";"2014-10-15 16:02:44.278";"1";"1";"1";"66";"65";"module.training_block2.exec-7479.GoNoGo2";;;;;;;;;;;;;;;;;;;;;;;;;;;;;;;;;;;"1258";"2014-10-15 15:54:22.565";"ST_correctStop";"30";"1";"FINISHED";"NONE";"success";"0";"1";"2014-10-15 15:54:21.302";"3";;;;;;;;;;;;;;;;;;;;;;;;;;;;;;;;;;;;;;;;;;;;;
"sng6";;;"Windows 7";"Rachel's Experiment (D.T.)";"1.0";"2";"1";"1";"2";"1";"1";"2014-10-15 15:49:57.427";"2014-10-15 16:02:44.278";"1";"1";"1";"67";"66";"module.training_block2.exec-7479.GoNoGo2";;;;;;;;;;;;;;;;;;;;;;;;;;;;;;;;;;;"1261";"2014-10-15 15:54:25.108";"NST_correctLoc";"10";"1";"FINISHED";"RIGHT";"success";"889";"0";"2014-10-15 15:54:23.844";"2";;;;;;;;;;;;;;;;;;;;;;;;;;;;;;;;;;;;;;;;;;;;;
"sng6";;;"Windows 7";"Rachel's Experiment (D.T.)";"1.0";"2";"1";"1";"2";"1";"1";"2014-10-15 15:49:57.427";"2014-10-15 16:02:44.278";"1";"1";"1";"68";"67";"module.training_block2.exec-7479.GoNoGo2";;;;;;;;;;;;;;;;;;;;;;;;;;;;;;;;;;;"1261";"2014-10-15 15:54:27.651";"NST_correctLoc";"13";"1";"FINISHED";"RIGHT";"success";"434";"0";"2014-10-15 15:54:26.387";"2";;;;;;;;;;;;;;;;;;;;;;;;;;;;;;;;;;;;;;;;;;;;;
"sng6";;;"Windows 7";"Rachel's Experiment (D.T.)";"1.0";"2";"1";"1";"2";"1";"1";"2014-10-15 15:49:57.427";"2014-10-15 16:02:44.278";"1";"1";"1";"69";"68";"module.training_block2.exec-7479.GoNoGo2";;;;;;;;;;;;;;;;;;;;;;;;;;;;;;;;;;;"1257";"2014-10-15 15:54:30.194";"ST_correctStop";"0";"0";"FINISHED";"NONE";"success";"0";"1";"2014-10-15 15:54:28.930";"1";;;;;;;;;;;;;;;;;;;;;;;;;;;;;;;;;;;;;;;;;;;;;
"sng6";;;"Windows 7";"Rachel's Experiment (D.T.)";"1.0";"2";"1";"1";"2";"1";"1";"2014-10-15 15:49:57.427";"2014-10-15 16:02:44.278";"1";"1";"1";"70";"69";"module.training_block2.exec-7479.GoNoGo2";;;;;;;;;;;;;;;;;;;;;;;;;;;;;;;;;;;"1261";"2014-10-15 15:54:32.736";"NST_correctLoc";"12";"1";"FINISHED";"RIGHT";"success";"549";"0";"2014-10-15 15:54:31.473";"2";;;;;;;;;;;;;;;;;;;;;;;;;;;;;;;;;;;;;;;;;;;;;
"sng6";;;"Windows 7";"Rachel's Experiment (D.T.)";"1.0";"2";"1";"1";"2";"1";"1";"2014-10-15 15:49:57.427";"2014-10-15 16:02:44.278";"1";"1";"1";"71";"70";"module.training_block2.exec-7479.GoNoGo2";;;;;;;;;;;;;;;;;;;;;;;;;;;;;;;;;;;"1256";"2014-10-15 15:54:35.279";"NST_correctLoc";"15";"1";"FINISHED";"RIGHT";"success";"449";"0";"2014-10-15 15:54:34.016";"2";;;;;;;;;;;;;;;;;;;;;;;;;;;;;;;;;;;;;;;;;;;;;
"sng6";;;"Windows 7";"Rachel's Experiment (D.T.)";"1.0";"2";"1";"1";"2";"1";"1";"2014-10-15 15:49:57.427";"2014-10-15 16:02:44.278";"1";"1";"1";"72";"71";"module.training_block2.exec-7479.GoNoGo2";;;;;;;;;;;;;;;;;;;;;;;;;;;;;;;;;;;"1258";"2014-10-15 15:54:37.822";"ST_correctStop";"5";"0";"FINISHED";"NONE";"success";"0";"1";"2014-10-15 15:54:36.558";"1";;;;;;;;;;;;;;;;;;;;;;;;;;;;;;;;;;;;;;;;;;;;;
"sng6";;;"Windows 7";"Rachel's Experiment (D.T.)";"1.0";"2";"1";"1";"2";"1";"1";"2014-10-15 15:49:57.427";"2014-10-15 16:02:44.278";"1";"1";"1";"73";"72";"module.training_block2.exec-7479.GoNoGo2";;;;;;;;;;;;;;;;;;;;;;;;;;;;;;;;;;;"1261";"2014-10-15 15:54:40.365";"NST_correctLoc";"29";"1";"FINISHED";"RIGHT";"success";"496";"0";"2014-10-15 15:54:39.101";"3";;;;;;;;;;;;;;;;;;;;;;;;;;;;;;;;;;;;;;;;;;;;;
"sng6";;;"Windows 7";"Rachel's Experiment (D.T.)";"1.0";"2";"1";"1";"2";"1";"1";"2014-10-15 15:49:57.427";"2014-10-15 16:02:44.278";"1";"1";"1";"74";"73";"module.training_block2.exec-7479.GoNoGo2";;;;;;;;;;;;;;;;;;;;;;;;;;;;;;;;;;;"1257";"2014-10-15 15:54:42.908";"ST_correctStop";"31";"0";"FINISHED";"NONE";"success";"0";"1";"2014-10-15 15:54:41.644";"3";;;;;;;;;;;;;;;;;;;;;;;;;;;;;;;;;;;;;;;;;;;;;
"sng6";;;"Windows 7";"Rachel's Experiment (D.T.)";"1.0";"2";"1";"1";"2";"1";"1";"2014-10-15 15:49:57.427";"2014-10-15 16:02:44.278";"1";"1";"1";"75";"74";"module.training_block2.exec-7479.GoNoGo2";;;;;;;;;;;;;;;;;;;;;;;;;;;;;;;;;;;"1258";"2014-10-15 15:54:45.450";"NST_correctLoc";"24";"1";"FINISHED";"RIGHT";"success";"559";"0";"2014-10-15 15:54:44.187";"3";;;;;;;;;;;;;;;;;;;;;;;;;;;;;;;;;;;;;;;;;;;;;
"sng6";;;"Windows 7";"Rachel's Experiment (D.T.)";"1.0";"2";"1";"1";"2";"1";"1";"2014-10-15 15:49:57.427";"2014-10-15 16:02:44.278";"1";"1";"1";"76";"75";"module.training_block2.exec-7479.GoNoGo2";;;;;;;;;;;;;;;;;;;;;;;;;;;;;;;;;;;"1258";"2014-10-15 15:54:48.009";"NST_correctLoc";"20";"1";"FINISHED";"RIGHT";"success";"433";"0";"2014-10-15 15:54:46.745";"3";;;;;;;;;;;;;;;;;;;;;;;;;;;;;;;;;;;;;;;;;;;;;
"sng6";;;"Windows 7";"Rachel's Experiment (D.T.)";"1.0";"2";"1";"1";"2";"1";"1";"2014-10-15 15:49:57.427";"2014-10-15 16:02:44.278";"1";"1";"1";"77";"76";"module.training_block2.exec-7479.GoNoGo2";;;;;;;;;;;;;;;;;;;;;;;;;;;;;;;;;;;"1256";"2014-10-15 15:54:50.552";"NST_correctLoc";"35";"1";"FINISHED";"RIGHT";"success";"776";"0";"2014-10-15 15:54:49.288";"3";;;;;;;;;;;;;;;;;;;;;;;;;;;;;;;;;;;;;;;;;;;;;
"sng6";;;"Windows 7";"Rachel's Experiment (D.T.)";"1.0";"2";"1";"1";"2";"1";"1";"2014-10-15 15:49:57.427";"2014-10-15 16:02:44.278";"1";"1";"1";"78";"77";"module.training_block2.exec-7479.GoNoGo2";;;;;;;;;;;;;;;;;;;;;;;;;;;;;;;;;;;"1258";"2014-10-15 15:54:53.094";"ST_correctStop";"34";"0";"FINISHED";"NONE";"success";"0";"1";"2014-10-15 15:54:51.831";"3";;;;;;;;;;;;;;;;;;;;;;;;;;;;;;;;;;;;;;;;;;;;;
"sng6";;;"Windows 7";"Rachel's Experiment (D.T.)";"1.0";"2";"1";"1";"2";"1";"1";"2014-10-15 15:49:57.427";"2014-10-15 16:02:44.278";"1";"1";"1";"79";"78";"module.training_block2.exec-7479.GoNoGo2";;;;;;;;;;;;;;;;;;;;;;;;;;;;;;;;;;;"1261";"2014-10-15 15:54:55.637";"NST_correctLoc";"16";"0";"FINISHED";"LEFT";"success";"472";"0";"2014-10-15 15:54:54.374";"2";;;;;;;;;;;;;;;;;;;;;;;;;;;;;;;;;;;;;;;;;;;;;
"sng6";;;"Windows 7";"Rachel's Experiment (D.T.)";"1.0";"2";"1";"1";"2";"1";"1";"2014-10-15 15:49:57.427";"2014-10-15 16:02:44.278";"1";"1";"1";"80";"79";"module.training_block2.exec-7479.GoNoGo2";;;;;;;;;;;;;;;;;;;;;;;;;;;;;;;;;;;"1257";"2014-10-15 15:54:58.180";"ST_failedStop";"21";"1";"FINISHED";"RIGHT";"failure";"389";"1";"2014-10-15 15:54:56.916";"3";;;;;;;;;;;;;;;;;;;;;;;;;;;;;;;;;;;;;;;;;;;;;
"sng6";;;"Windows 7";"Rachel's Experiment (D.T.)";"1.0";"2";"1";"1";"2";"1";"1";"2014-10-15 15:49:57.427";"2014-10-15 16:02:44.278";"1";"1";"1";"81";"80";"module.training_block2.exec-7479.GoNoGo2";;;;;;;;;;;;;;;;;;;;;;;;;;;;;;;;;;;"1257";"2014-10-15 15:55:00.723";"ST_correctStop";"32";"1";"FINISHED";"NONE";"success";"0";"1";"2014-10-15 15:54:59.459";"3";;;;;;;;;;;;;;;;;;;;;;;;;;;;;;;;;;;;;;;;;;;;;
"sng6";;;"Windows 7";"Rachel's Experiment (D.T.)";"1.0";"2";"1";"1";"2";"1";"1";"2014-10-15 15:49:57.427";"2014-10-15 16:02:44.278";"1";"1";"1";"82";"81";"module.training_block2.exec-7479.GoNoGo2";;;;;;;;;;;;;;;;;;;;;;;;;;;;;;;;;;;"1258";"2014-10-15 15:55:03.266";"ST_correctStop";"19";"0";"FINISHED";"NONE";"success";"0";"1";"2014-10-15 15:55:02.002";"3";;;;;;;;;;;;;;;;;;;;;;;;;;;;;;;;;;;;;;;;;;;;;
"sng6";;;"Windows 7";"Rachel's Experiment (D.T.)";"1.0";"2";"1";"1";"2";"1";"1";"2014-10-15 15:49:57.427";"2014-10-15 16:02:44.278";"1";"1";"1";"83";"82";"module.training_block2.exec-7479.GoNoGo2";;;;;;;;;;;;;;;;;;;;;;;;;;;;;;;;;;;"1257";"2014-10-15 15:55:05.808";"ST_correctStop";"7";"1";"FINISHED";"NONE";"success";"0";"1";"2014-10-15 15:55:04.545";"1";;;;;;;;;;;;;;;;;;;;;;;;;;;;;;;;;;;;;;;;;;;;;
"sng6";;;"Windows 7";"Rachel's Experiment (D.T.)";"1.0";"2";"1";"1";"2";"1";"1";"2014-10-15 15:49:57.427";"2014-10-15 16:02:44.278";"1";"1";"1";"84";"83";"module.training_block2.exec-7479.GoNoGo2";;;;;;;;;;;;;;;;;;;;;;;;;;;;;;;;;;;"1258";"2014-10-15 15:55:08.351";"NST_correctLoc";"14";"1";"FINISHED";"RIGHT";"success";"474";"0";"2014-10-15 15:55:07.088";"2";;;;;;;;;;;;;;;;;;;;;;;;;;;;;;;;;;;;;;;;;;;;;
"sng6";;;"Windows 7";"Rachel's Experiment (D.T.)";"1.0";"2";"1";"1";"2";"1";"1";"2014-10-15 15:49:57.427";"2014-10-15 16:02:44.278";"1";"1";"1";"85";"84";"module.training_block2.exec-7479.GoNoGo2";;;;;;;;;;;;;;;;;;;;;;;;;;;;;;;;;;;"1261";"2014-10-15 15:55:10.910";"NST_correctLoc";"22";"0";"FINISHED";"LEFT";"success";"407";"0";"2014-10-15 15:55:09.646";"3";;;;;;;;;;;;;;;;;;;;;;;;;;;;;;;;;;;;;;;;;;;;;
"sng6";;;"Windows 7";"Rachel's Experiment (D.T.)";"1.0";"2";"1";"1";"2";"1";"1";"2014-10-15 15:49:57.427";"2014-10-15 16:02:44.278";"1";"1";"1";"86";"85";"module.training_block2.exec-7479.GoNoGo2";;;;;;;;;;;;;;;;;;;;;;;;;;;;;;;;;;;"1261";"2014-10-15 15:55:13.452";"ST_correctStop";"4";"1";"FINISHED";"NONE";"success";"0";"1";"2014-10-15 15:55:12.189";"1";;;;;;;;;;;;;;;;;;;;;;;;;;;;;;;;;;;;;;;;;;;;;
"sng6";;;"Windows 7";"Rachel's Experiment (D.T.)";"1.0";"2";"1";"1";"2";"1";"1";"2014-10-15 15:49:57.427";"2014-10-15 16:02:44.278";"1";"1";"1";"87";"86";"module.training_block2.exec-7479.GoNoGo2";;;;;;;;;;;;;;;;;;;;;;;;;;;;;;;;;;;"1257";"2014-10-15 15:55:15.995";"NST_correctLoc";"11";"1";"FINISHED";"RIGHT";"success";"469";"0";"2014-10-15 15:55:14.732";"2";;;;;;;;;;;;;;;;;;;;;;;;;;;;;;;;;;;;;;;;;;;;;
"sng6";;;"Windows 7";"Rachel's Experiment (D.T.)";"1.0";"2";"1";"1";"2";"1";"1";"2014-10-15 15:49:57.427";"2014-10-15 16:02:44.278";"1";"1";"1";"88";"87";"module.training_block3.exec-9063.GoNoGo3";;;;;;;;;;;;;;;;;;;;;;;;;;;;;;;;;;;;;;;;;;;;;;;"1261";"2014-10-15 15:55:26.541";"NST_correctLoc";"35";"1";"FINISHED";"RIGHT";"success";"456";"0";"2014-10-15 15:55:25.277";"3";;;;;;;;;;;;;;;;;;;;;;;;;;;;;;;;;
"sng6";;;"Windows 7";"Rachel's Experiment (D.T.)";"1.0";"2";"1";"1";"2";"1";"1";"2014-10-15 15:49:57.427";"2014-10-15 16:02:44.278";"1";"1";"1";"89";"88";"module.training_block3.exec-9063.GoNoGo3";;;;;;;;;;;;;;;;;;;;;;;;;;;;;;;;;;;;;;;;;;;;;;;"1261";"2014-10-15 15:55:29.084";"ST_correctStop";"22";"1";"FINISHED";"NONE";"success";"0";"1";"2014-10-15 15:55:27.820";"3";;;;;;;;;;;;;;;;;;;;;;;;;;;;;;;;;
"sng6";;;"Windows 7";"Rachel's Experiment (D.T.)";"1.0";"2";"1";"1";"2";"1";"1";"2014-10-15 15:49:57.427";"2014-10-15 16:02:44.278";"1";"1";"1";"90";"89";"module.training_block3.exec-9063.GoNoGo3";;;;;;;;;;;;;;;;;;;;;;;;;;;;;;;;;;;;;;;;;;;;;;;"1261";"2014-10-15 15:55:31.642";"ST_correctStop";"8";"1";"FINISHED";"NONE";"success";"0";"1";"2014-10-15 15:55:30.379";"1";;;;;;;;;;;;;;;;;;;;;;;;;;;;;;;;;
"sng6";;;"Windows 7";"Rachel's Experiment (D.T.)";"1.0";"2";"1";"1";"2";"1";"1";"2014-10-15 15:49:57.427";"2014-10-15 16:02:44.278";"1";"1";"1";"91";"90";"module.training_block3.exec-9063.GoNoGo3";;;;;;;;;;;;;;;;;;;;;;;;;;;;;;;;;;;;;;;;;;;;;;;"1261";"2014-10-15 15:55:34.185";"NST_correctLoc";"11";"0";"FINISHED";"LEFT";"success";"388";"0";"2014-10-15 15:55:32.921";"2";;;;;;;;;;;;;;;;;;;;;;;;;;;;;;;;;
"sng6";;;"Windows 7";"Rachel's Experiment (D.T.)";"1.0";"2";"1";"1";"2";"1";"1";"2014-10-15 15:49:57.427";"2014-10-15 16:02:44.278";"1";"1";"1";"92";"91";"module.training_block3.exec-9063.GoNoGo3";;;;;;;;;;;;;;;;;;;;;;;;;;;;;;;;;;;;;;;;;;;;;;;"1261";"2014-10-15 15:55:36.728";"NST_correctLoc";"29";"0";"FINISHED";"LEFT";"success";"421";"0";"2014-10-15 15:55:35.464";"3";;;;;;;;;;;;;;;;;;;;;;;;;;;;;;;;;
"sng6";;;"Windows 7";"Rachel's Experiment (D.T.)";"1.0";"2";"1";"1";"2";"1";"1";"2014-10-15 15:49:57.427";"2014-10-15 16:02:44.278";"1";"1";"1";"93";"92";"module.training_block3.exec-9063.GoNoGo3";;;;;;;;;;;;;;;;;;;;;;;;;;;;;;;;;;;;;;;;;;;;;;;"1261";"2014-10-15 15:55:39.271";"NST_correctLoc";"15";"0";"FINISHED";"LEFT";"success";"382";"0";"2014-10-15 15:55:38.007";"2";;;;;;;;;;;;;;;;;;;;;;;;;;;;;;;;;
"sng6";;;"Windows 7";"Rachel's Experiment (D.T.)";"1.0";"2";"1";"1";"2";"1";"1";"2014-10-15 15:49:57.427";"2014-10-15 16:02:44.278";"1";"1";"1";"94";"93";"module.training_block3.exec-9063.GoNoGo3";;;;;;;;;;;;;;;;;;;;;;;;;;;;;;;;;;;;;;;;;;;;;;;"1261";"2014-10-15 15:55:41.813";"ST_correctStop";"2";"0";"FINISHED";"NONE";"success";"0";"1";"2014-10-15 15:55:40.550";"1";;;;;;;;;;;;;;;;;;;;;;;;;;;;;;;;;
"sng6";;;"Windows 7";"Rachel's Experiment (D.T.)";"1.0";"2";"1";"1";"2";"1";"1";"2014-10-15 15:49:57.427";"2014-10-15 16:02:44.278";"1";"1";"1";"95";"94";"module.training_block3.exec-9063.GoNoGo3";;;;;;;;;;;;;;;;;;;;;;;;;;;;;;;;;;;;;;;;;;;;;;;"1261";"2014-10-15 15:55:44.356";"ST_correctStop";"0";"0";"FINISHED";"NONE";"success";"0";"1";"2014-10-15 15:55:43.093";"1";;;;;;;;;;;;;;;;;;;;;;;;;;;;;;;;;
"sng6";;;"Windows 7";"Rachel's Experiment (D.T.)";"1.0";"2";"1";"1";"2";"1";"1";"2014-10-15 15:49:57.427";"2014-10-15 16:02:44.278";"1";"1";"1";"96";"95";"module.training_block3.exec-9063.GoNoGo3";;;;;;;;;;;;;;;;;;;;;;;;;;;;;;;;;;;;;;;;;;;;;;;"1261";"2014-10-15 15:55:46.899";"NST_correctLoc";"12";"1";"FINISHED";"RIGHT";"success";"330";"0";"2014-10-15 15:55:45.635";"2";;;;;;;;;;;;;;;;;;;;;;;;;;;;;;;;;
"sng6";;;"Windows 7";"Rachel's Experiment (D.T.)";"1.0";"2";"1";"1";"2";"1";"1";"2014-10-15 15:49:57.427";"2014-10-15 16:02:44.278";"1";"1";"1";"97";"96";"module.training_block3.exec-9063.GoNoGo3";;;;;;;;;;;;;;;;;;;;;;;;;;;;;;;;;;;;;;;;;;;;;;;"1261";"2014-10-15 15:55:49.442";"ST_correctStop";"5";"1";"FINISHED";"NONE";"success";"0";"1";"2014-10-15 15:55:48.178";"1";;;;;;;;;;;;;;;;;;;;;;;;;;;;;;;;;
"sng6";;;"Windows 7";"Rachel's Experiment (D.T.)";"1.0";"2";"1";"1";"2";"1";"1";"2014-10-15 15:49:57.427";"2014-10-15 16:02:44.278";"1";"1";"1";"98";"97";"module.training_block3.exec-9063.GoNoGo3";;;;;;;;;;;;;;;;;;;;;;;;;;;;;;;;;;;;;;;;;;;;;;;"1261";"2014-10-15 15:55:51.985";"NST_correctLoc";"24";"1";"FINISHED";"RIGHT";"success";"476";"0";"2014-10-15 15:55:50.721";"3";;;;;;;;;;;;;;;;;;;;;;;;;;;;;;;;;
"sng6";;;"Windows 7";"Rachel's Experiment (D.T.)";"1.0";"2";"1";"1";"2";"1";"1";"2014-10-15 15:49:57.427";"2014-10-15 16:02:44.278";"1";"1";"1";"99";"98";"module.training_block3.exec-9063.GoNoGo3";;;;;;;;;;;;;;;;;;;;;;;;;;;;;;;;;;;;;;;;;;;;;;;"1261";"2014-10-15 15:55:54.527";"ST_correctStop";"1";"1";"FINISHED";"NONE";"success";"0";"1";"2014-10-15 15:55:53.264";"1";;;;;;;;;;;;;;;;;;;;;;;;;;;;;;;;;
"sng6";;;"Windows 7";"Rachel's Experiment (D.T.)";"1.0";"2";"1";"1";"2";"1";"1";"2014-10-15 15:49:57.427";"2014-10-15 16:02:44.278";"1";"1";"1";"100";"99";"module.training_block3.exec-9063.GoNoGo3";;;;;;;;;;;;;;;;;;;;;;;;;;;;;;;;;;;;;;;;;;;;;;;"1261";"2014-10-15 15:55:57.070";"NST_correctLoc";"20";"0";"FINISHED";"LEFT";"success";"446";"0";"2014-10-15 15:55:55.807";"3";;;;;;;;;;;;;;;;;;;;;;;;;;;;;;;;;
"sng6";;;"Windows 7";"Rachel's Experiment (D.T.)";"1.0";"2";"1";"1";"2";"1";"1";"2014-10-15 15:49:57.427";"2014-10-15 16:02:44.278";"1";"1";"1";"101";"100";"module.training_block3.exec-9063.GoNoGo3";;;;;;;;;;;;;;;;;;;;;;;;;;;;;;;;;;;;;;;;;;;;;;;"1261";"2014-10-15 15:55:59.613";"ST_correctStop";"25";"1";"FINISHED";"NONE";"success";"0";"1";"2014-10-15 15:55:58.349";"3";;;;;;;;;;;;;;;;;;;;;;;;;;;;;;;;;
"sng6";;;"Windows 7";"Rachel's Experiment (D.T.)";"1.0";"2";"1";"1";"2";"1";"1";"2014-10-15 15:49:57.427";"2014-10-15 16:02:44.278";"1";"1";"1";"102";"101";"module.training_block3.exec-9063.GoNoGo3";;;;;;;;;;;;;;;;;;;;;;;;;;;;;;;;;;;;;;;;;;;;;;;"1261";"2014-10-15 15:56:02.140";"ST_correctStop";"28";"1";"FINISHED";"NONE";"success";"0";"1";"2014-10-15 15:56:00.877";"3";;;;;;;;;;;;;;;;;;;;;;;;;;;;;;;;;
"sng6";;;"Windows 7";"Rachel's Experiment (D.T.)";"1.0";"2";"1";"1";"2";"1";"1";"2014-10-15 15:49:57.427";"2014-10-15 16:02:44.278";"1";"1";"1";"103";"102";"module.training_block3.exec-9063.GoNoGo3";;;;;;;;;;;;;;;;;;;;;;;;;;;;;;;;;;;;;;;;;;;;;;;"1261";"2014-10-15 15:56:04.683";"NST_correctLoc";"31";"1";"FINISHED";"RIGHT";"success";"1066";"0";"2014-10-15 15:56:03.419";"3";;;;;;;;;;;;;;;;;;;;;;;;;;;;;;;;;
"sng6";;;"Windows 7";"Rachel's Experiment (D.T.)";"1.0";"2";"1";"1";"2";"1";"1";"2014-10-15 15:49:57.427";"2014-10-15 16:02:44.278";"1";"1";"1";"104";"103";"module.training_block3.exec-9063.GoNoGo3";;;;;;;;;;;;;;;;;;;;;;;;;;;;;;;;;;;;;;;;;;;;;;;"1261";"2014-10-15 15:56:07.241";"NST_correctLoc";"26";"0";"FINISHED";"LEFT";"success";"531";"0";"2014-10-15 15:56:05.978";"3";;;;;;;;;;;;;;;;;;;;;;;;;;;;;;;;;
"sng6";;;"Windows 7";"Rachel's Experiment (D.T.)";"1.0";"2";"1";"1";"2";"1";"1";"2014-10-15 15:49:57.427";"2014-10-15 16:02:44.278";"1";"1";"1";"105";"104";"module.training_block3.exec-9063.GoNoGo3";;;;;;;;;;;;;;;;;;;;;;;;;;;;;;;;;;;;;;;;;;;;;;;"1261";"2014-10-15 15:56:09.784";"NST_correctLoc";"13";"0";"FINISHED";"LEFT";"success";"508";"0";"2014-10-15 15:56:08.521";"2";;;;;;;;;;;;;;;;;;;;;;;;;;;;;;;;;
"sng6";;;"Windows 7";"Rachel's Experiment (D.T.)";"1.0";"2";"1";"1";"2";"1";"1";"2014-10-15 15:49:57.427";"2014-10-15 16:02:44.278";"1";"1";"1";"106";"105";"module.training_block3.exec-9063.GoNoGo3";;;;;;;;;;;;;;;;;;;;;;;;;;;;;;;;;;;;;;;;;;;;;;;"1261";"2014-10-15 15:56:12.343";"NST_correctLoc";"16";"0";"FINISHED";"LEFT";"success";"478";"0";"2014-10-15 15:56:11.079";"2";;;;;;;;;;;;;;;;;;;;;;;;;;;;;;;;;
"sng6";;;"Windows 7";"Rachel's Experiment (D.T.)";"1.0";"2";"1";"1";"2";"1";"1";"2014-10-15 15:49:57.427";"2014-10-15 16:02:44.278";"1";"1";"1";"107";"106";"module.training_block3.exec-9063.GoNoGo3";;;;;;;;;;;;;;;;;;;;;;;;;;;;;;;;;;;;;;;;;;;;;;;"1261";"2014-10-15 15:56:14.885";"ST_correctStop";"7";"0";"FINISHED";"NONE";"success";"0";"1";"2014-10-15 15:56:13.622";"1";;;;;;;;;;;;;;;;;;;;;;;;;;;;;;;;;
"sng6";;;"Windows 7";"Rachel's Experiment (D.T.)";"1.0";"2";"1";"1";"2";"1";"1";"2014-10-15 15:49:57.427";"2014-10-15 16:02:44.278";"1";"1";"1";"108";"107";"module.training_block3.exec-9063.GoNoGo3";;;;;;;;;;;;;;;;;;;;;;;;;;;;;;;;;;;;;;;;;;;;;;;"1261";"2014-10-15 15:56:17.428";"ST_correctStop";"34";"1";"FINISHED";"NONE";"success";"0";"1";"2014-10-15 15:56:16.165";"3";;;;;;;;;;;;;;;;;;;;;;;;;;;;;;;;;
"sng6";;;"Windows 7";"Rachel's Experiment (D.T.)";"1.0";"2";"1";"1";"2";"1";"1";"2014-10-15 15:49:57.427";"2014-10-15 16:02:44.278";"1";"1";"1";"109";"108";"module.training_block3.exec-9063.GoNoGo3";;;;;;;;;;;;;;;;;;;;;;;;;;;;;;;;;;;;;;;;;;;;;;;"1261";"2014-10-15 15:56:19.971";"ST_correctStop";"21";"0";"FINISHED";"NONE";"success";"0";"1";"2014-10-15 15:56:18.707";"3";;;;;;;;;;;;;;;;;;;;;;;;;;;;;;;;;
"sng6";;;"Windows 7";"Rachel's Experiment (D.T.)";"1.0";"2";"1";"1";"2";"1";"1";"2014-10-15 15:49:57.427";"2014-10-15 16:02:44.278";"1";"1";"1";"110";"109";"module.training_block3.exec-9063.GoNoGo3";;;;;;;;;;;;;;;;;;;;;;;;;;;;;;;;;;;;;;;;;;;;;;;"1261";"2014-10-15 15:56:22.514";"NST_correctLoc";"17";"1";"FINISHED";"RIGHT";"success";"547";"0";"2014-10-15 15:56:21.250";"2";;;;;;;;;;;;;;;;;;;;;;;;;;;;;;;;;
"sng6";;;"Windows 7";"Rachel's Experiment (D.T.)";"1.0";"2";"1";"1";"2";"1";"1";"2014-10-15 15:49:57.427";"2014-10-15 16:02:44.278";"1";"1";"1";"111";"110";"module.training_block3.exec-9063.GoNoGo3";;;;;;;;;;;;;;;;;;;;;;;;;;;;;;;;;;;;;;;;;;;;;;;"1261";"2014-10-15 15:56:25.057";"NST_correctLoc";"10";"0";"FINISHED";"LEFT";"success";"420";"0";"2014-10-15 15:56:23.793";"2";;;;;;;;;;;;;;;;;;;;;;;;;;;;;;;;;
"sng6";;;"Windows 7";"Rachel's Experiment (D.T.)";"1.0";"2";"1";"1";"2";"1";"1";"2014-10-15 15:49:57.427";"2014-10-15 16:02:44.278";"1";"1";"1";"112";"111";"module.training_block3.exec-9063.GoNoGo3";;;;;;;;;;;;;;;;;;;;;;;;;;;;;;;;;;;;;;;;;;;;;;;"1261";"2014-10-15 15:56:27.599";"ST_correctStop";"6";"1";"FINISHED";"NONE";"success";"0";"1";"2014-10-15 15:56:26.336";"1";;;;;;;;;;;;;;;;;;;;;;;;;;;;;;;;;
"sng6";;;"Windows 7";"Rachel's Experiment (D.T.)";"1.0";"2";"1";"1";"2";"1";"1";"2014-10-15 15:49:57.427";"2014-10-15 16:02:44.278";"1";"1";"1";"113";"112";"module.training_block3.exec-9063.GoNoGo3";;;;;;;;;;;;;;;;;;;;;;;;;;;;;;;;;;;;;;;;;;;;;;;"1262";"2014-10-15 15:56:30.158";"ST_correctStop";"18";"1";"FINISHED";"NONE";"success";"0";"1";"2014-10-15 15:56:28.894";"3";;;;;;;;;;;;;;;;;;;;;;;;;;;;;;;;;
"sng6";;;"Windows 7";"Rachel's Experiment (D.T.)";"1.0";"2";"1";"1";"2";"1";"1";"2014-10-15 15:49:57.427";"2014-10-15 16:02:44.278";"1";"1";"1";"114";"113";"module.training_block3.exec-9063.GoNoGo3";;;;;;;;;;;;;;;;;;;;;;;;;;;;;;;;;;;;;;;;;;;;;;;"1261";"2014-10-15 15:56:32.701";"ST_correctStop";"27";"1";"FINISHED";"NONE";"success";"0";"1";"2014-10-15 15:56:31.437";"3";;;;;;;;;;;;;;;;;;;;;;;;;;;;;;;;;
"sng6";;;"Windows 7";"Rachel's Experiment (D.T.)";"1.0";"2";"1";"1";"2";"1";"1";"2014-10-15 15:49:57.427";"2014-10-15 16:02:44.278";"1";"1";"1";"115";"114";"module.training_block3.exec-9063.GoNoGo3";;;;;;;;;;;;;;;;;;;;;;;;;;;;;;;;;;;;;;;;;;;;;;;"1261";"2014-10-15 15:56:35.259";"ST_correctStop";"33";"1";"FINISHED";"NONE";"success";"0";"1";"2014-10-15 15:56:33.995";"3";;;;;;;;;;;;;;;;;;;;;;;;;;;;;;;;;
"sng6";;;"Windows 7";"Rachel's Experiment (D.T.)";"1.0";"2";"1";"1";"2";"1";"1";"2014-10-15 15:49:57.427";"2014-10-15 16:02:44.278";"1";"1";"1";"116";"115";"module.training_block3.exec-9063.GoNoGo3";;;;;;;;;;;;;;;;;;;;;;;;;;;;;;;;;;;;;;;;;;;;;;;"1261";"2014-10-15 15:56:37.802";"ST_correctStop";"3";"1";"FINISHED";"NONE";"success";"0";"1";"2014-10-15 15:56:36.538";"1";;;;;;;;;;;;;;;;;;;;;;;;;;;;;;;;;
"sng6";;;"Windows 7";"Rachel's Experiment (D.T.)";"1.0";"2";"1";"1";"2";"1";"1";"2014-10-15 15:49:57.427";"2014-10-15 16:02:44.278";"1";"1";"1";"117";"116";"module.training_block3.exec-9063.GoNoGo3";;;;;;;;;;;;;;;;;;;;;;;;;;;;;;;;;;;;;;;;;;;;;;;"1261";"2014-10-15 15:56:40.345";"ST_correctStop";"19";"1";"FINISHED";"NONE";"success";"0";"1";"2014-10-15 15:56:39.081";"3";;;;;;;;;;;;;;;;;;;;;;;;;;;;;;;;;
"sng6";;;"Windows 7";"Rachel's Experiment (D.T.)";"1.0";"2";"1";"1";"2";"1";"1";"2014-10-15 15:49:57.427";"2014-10-15 16:02:44.278";"1";"1";"1";"118";"117";"module.training_block3.exec-9063.GoNoGo3";;;;;;;;;;;;;;;;;;;;;;;;;;;;;;;;;;;;;;;;;;;;;;;"1261";"2014-10-15 15:56:42.887";"NST_correctLoc";"30";"0";"FINISHED";"LEFT";"success";"461";"0";"2014-10-15 15:56:41.624";"3";;;;;;;;;;;;;;;;;;;;;;;;;;;;;;;;;
"sng6";;;"Windows 7";"Rachel's Experiment (D.T.)";"1.0";"2";"1";"1";"2";"1";"1";"2014-10-15 15:49:57.427";"2014-10-15 16:02:44.278";"1";"1";"1";"119";"118";"module.training_block3.exec-9063.GoNoGo3";;;;;;;;;;;;;;;;;;;;;;;;;;;;;;;;;;;;;;;;;;;;;;;"1261";"2014-10-15 15:56:45.430";"NST_correctLoc";"23";"0";"FINISHED";"LEFT";"success";"470";"0";"2014-10-15 15:56:44.167";"3";;;;;;;;;;;;;;;;;;;;;;;;;;;;;;;;;
"sng6";;;"Windows 7";"Rachel's Experiment (D.T.)";"1.0";"2";"1";"1";"2";"1";"1";"2014-10-15 15:49:57.427";"2014-10-15 16:02:44.278";"1";"1";"1";"120";"119";"module.training_block3.exec-9063.GoNoGo3";;;;;;;;;;;;;;;;;;;;;;;;;;;;;;;;;;;;;;;;;;;;;;;"1261";"2014-10-15 15:56:47.973";"NST_correctLoc";"9";"0";"FINISHED";"LEFT";"success";"367";"0";"2014-10-15 15:56:46.709";"2";;;;;;;;;;;;;;;;;;;;;;;;;;;;;;;;;
"sng6";;;"Windows 7";"Rachel's Experiment (D.T.)";"1.0";"2";"1";"1";"2";"1";"1";"2014-10-15 15:49:57.427";"2014-10-15 16:02:44.278";"1";"1";"1";"121";"120";"module.training_block3.exec-9063.GoNoGo3";;;;;;;;;;;;;;;;;;;;;;;;;;;;;;;;;;;;;;;;;;;;;;;"1261";"2014-10-15 15:56:50.516";"ST_correctStop";"4";"0";"FINISHED";"NONE";"success";"0";"1";"2014-10-15 15:56:49.252";"1";;;;;;;;;;;;;;;;;;;;;;;;;;;;;;;;;
"sng6";;;"Windows 7";"Rachel's Experiment (D.T.)";"1.0";"2";"1";"1";"2";"1";"1";"2014-10-15 15:49:57.427";"2014-10-15 16:02:44.278";"1";"1";"1";"122";"121";"module.training_block3.exec-9063.GoNoGo3";;;;;;;;;;;;;;;;;;;;;;;;;;;;;;;;;;;;;;;;;;;;;;;"1261";"2014-10-15 15:56:53.074";"NST_correctLoc";"14";"1";"FINISHED";"RIGHT";"success";"546";"0";"2014-10-15 15:56:51.811";"2";;;;;;;;;;;;;;;;;;;;;;;;;;;;;;;;;
"sng6";;;"Windows 7";"Rachel's Experiment (D.T.)";"1.0";"2";"1";"1";"2";"1";"1";"2014-10-15 15:49:57.427";"2014-10-15 16:02:44.278";"1";"1";"1";"123";"122";"module.training_block3.exec-9063.GoNoGo3";;;;;;;;;;;;;;;;;;;;;;;;;;;;;;;;;;;;;;;;;;;;;;;"1261";"2014-10-15 15:56:55.617";"NST_correctLoc";"32";"1";"FINISHED";"RIGHT";"success";"411";"0";"2014-10-15 15:56:54.353";"3";;;;;;;;;;;;;;;;;;;;;;;;;;;;;;;;;
"sng6";;;"Windows 7";"Rachel's Experiment (D.T.)";"1.0";"2";"1";"1";"2";"1";"1";"2014-10-15 15:49:57.427";"2014-10-15 16:02:44.278";"1";"1";"1";"124";"123";"module.training_block4.exec-7160.GoNoGo4";;;;;;;;;;;;;;;;;;;;;;;;;;;;;;;;;;;;;;;;;;;;;;;;;;;;;;;;;;;"1261";"2014-10-15 15:57:06.178";"NST_correctLoc";"10";"0";"FINISHED";"LEFT";"success";"754";"0";"2014-10-15 15:57:04.915";"2";;;;;;;;;;;;;;;;;;;;;
"sng6";;;"Windows 7";"Rachel's Experiment (D.T.)";"1.0";"2";"1";"1";"2";"1";"1";"2014-10-15 15:49:57.427";"2014-10-15 16:02:44.278";"1";"1";"1";"125";"124";"module.training_block4.exec-7160.GoNoGo4";;;;;;;;;;;;;;;;;;;;;;;;;;;;;;;;;;;;;;;;;;;;;;;;;;;;;;;;;;;"1261";"2014-10-15 15:57:08.705";"NST_correctLoc";"12";"0";"FINISHED";"LEFT";"success";"811";"0";"2014-10-15 15:57:07.442";"2";;;;;;;;;;;;;;;;;;;;;
"sng6";;;"Windows 7";"Rachel's Experiment (D.T.)";"1.0";"2";"1";"1";"2";"1";"1";"2014-10-15 15:49:57.427";"2014-10-15 16:02:44.278";"1";"1";"1";"126";"125";"module.training_block4.exec-7160.GoNoGo4";;;;;;;;;;;;;;;;;;;;;;;;;;;;;;;;;;;;;;;;;;;;;;;;;;;;;;;;;;;"1261";"2014-10-15 15:57:11.233";"NST_correctLoc";"23";"1";"FINISHED";"RIGHT";"success";"683";"0";"2014-10-15 15:57:09.969";"3";;;;;;;;;;;;;;;;;;;;;
"sng6";;;"Windows 7";"Rachel's Experiment (D.T.)";"1.0";"2";"1";"1";"2";"1";"1";"2014-10-15 15:49:57.427";"2014-10-15 16:02:44.278";"1";"1";"1";"127";"126";"module.training_block4.exec-7160.GoNoGo4";;;;;;;;;;;;;;;;;;;;;;;;;;;;;;;;;;;;;;;;;;;;;;;;;;;;;;;;;;;"1261";"2014-10-15 15:57:13.791";"NST_correctLoc";"11";"1";"FINISHED";"RIGHT";"success";"685";"0";"2014-10-15 15:57:12.528";"2";;;;;;;;;;;;;;;;;;;;;
"sng6";;;"Windows 7";"Rachel's Experiment (D.T.)";"1.0";"2";"1";"1";"2";"1";"1";"2014-10-15 15:49:57.427";"2014-10-15 16:02:44.278";"1";"1";"1";"128";"127";"module.training_block4.exec-7160.GoNoGo4";;;;;;;;;;;;;;;;;;;;;;;;;;;;;;;;;;;;;;;;;;;;;;;;;;;;;;;;;;;"1261";"2014-10-15 15:57:16.318";"ST_failedStop";"7";"1";"FINISHED";"RIGHT";"failure";"406";"1";"2014-10-15 15:57:15.055";"1";;;;;;;;;;;;;;;;;;;;;
"sng6";;;"Windows 7";"Rachel's Experiment (D.T.)";"1.0";"2";"1";"1";"2";"1";"1";"2014-10-15 15:49:57.427";"2014-10-15 16:02:44.278";"1";"1";"1";"129";"128";"module.training_block4.exec-7160.GoNoGo4";;;;;;;;;;;;;;;;;;;;;;;;;;;;;;;;;;;;;;;;;;;;;;;;;;;;;;;;;;;"1261";"2014-10-15 15:57:18.861";"ST_correctStop";"4";"1";"FINISHED";"NONE";"success";"0";"1";"2014-10-15 15:57:17.598";"1";;;;;;;;;;;;;;;;;;;;;
"sng6";;;"Windows 7";"Rachel's Experiment (D.T.)";"1.0";"2";"1";"1";"2";"1";"1";"2014-10-15 15:49:57.427";"2014-10-15 16:02:44.278";"1";"1";"1";"130";"129";"module.training_block4.exec-7160.GoNoGo4";;;;;;;;;;;;;;;;;;;;;;;;;;;;;;;;;;;;;;;;;;;;;;;;;;;;;;;;;;;"1261";"2014-10-15 15:57:21.388";"ST_correctStop";"8";"0";"FINISHED";"NONE";"success";"0";"1";"2014-10-15 15:57:20.125";"1";;;;;;;;;;;;;;;;;;;;;
"sng6";;;"Windows 7";"Rachel's Experiment (D.T.)";"1.0";"2";"1";"1";"2";"1";"1";"2014-10-15 15:49:57.427";"2014-10-15 16:02:44.278";"1";"1";"1";"131";"130";"module.training_block4.exec-7160.GoNoGo4";;;;;;;;;;;;;;;;;;;;;;;;;;;;;;;;;;;;;;;;;;;;;;;;;;;;;;;;;;;"1261";"2014-10-15 15:57:23.916";"NST_correctLoc";"26";"1";"FINISHED";"RIGHT";"success";"385";"0";"2014-10-15 15:57:22.652";"3";;;;;;;;;;;;;;;;;;;;;
"sng6";;;"Windows 7";"Rachel's Experiment (D.T.)";"1.0";"2";"1";"1";"2";"1";"1";"2014-10-15 15:49:57.427";"2014-10-15 16:02:44.278";"1";"1";"1";"132";"131";"module.training_block4.exec-7160.GoNoGo4";;;;;;;;;;;;;;;;;;;;;;;;;;;;;;;;;;;;;;;;;;;;;;;;;;;;;;;;;;;"1261";"2014-10-15 15:57:26.474";"NST_correctLoc";"15";"0";"FINISHED";"LEFT";"success";"626";"0";"2014-10-15 15:57:25.210";"2";;;;;;;;;;;;;;;;;;;;;
"sng6";;;"Windows 7";"Rachel's Experiment (D.T.)";"1.0";"2";"1";"1";"2";"1";"1";"2014-10-15 15:49:57.427";"2014-10-15 16:02:44.278";"1";"1";"1";"133";"132";"module.training_block4.exec-7160.GoNoGo4";;;;;;;;;;;;;;;;;;;;;;;;;;;;;;;;;;;;;;;;;;;;;;;;;;;;;;;;;;;"1261";"2014-10-15 15:57:29.001";"ST_correctStop";"32";"1";"FINISHED";"NONE";"success";"0";"1";"2014-10-15 15:57:27.738";"3";;;;;;;;;;;;;;;;;;;;;
"sng6";;;"Windows 7";"Rachel's Experiment (D.T.)";"1.0";"2";"1";"1";"2";"1";"1";"2014-10-15 15:49:57.427";"2014-10-15 16:02:44.278";"1";"1";"1";"134";"133";"module.training_block4.exec-7160.GoNoGo4";;;;;;;;;;;;;;;;;;;;;;;;;;;;;;;;;;;;;;;;;;;;;;;;;;;;;;;;;;;"1261";"2014-10-15 15:57:31.544";"NST_correctLoc";"9";"1";"FINISHED";"RIGHT";"success";"404";"0";"2014-10-15 15:57:30.280";"2";;;;;;;;;;;;;;;;;;;;;
"sng6";;;"Windows 7";"Rachel's Experiment (D.T.)";"1.0";"2";"1";"1";"2";"1";"1";"2014-10-15 15:49:57.427";"2014-10-15 16:02:44.278";"1";"1";"1";"135";"134";"module.training_block4.exec-7160.GoNoGo4";;;;;;;;;;;;;;;;;;;;;;;;;;;;;;;;;;;;;;;;;;;;;;;;;;;;;;;;;;;"1261";"2014-10-15 15:57:34.071";"ST_correctStop";"25";"0";"FINISHED";"NONE";"success";"0";"1";"2014-10-15 15:57:32.808";"3";;;;;;;;;;;;;;;;;;;;;
"sng6";;;"Windows 7";"Rachel's Experiment (D.T.)";"1.0";"2";"1";"1";"2";"1";"1";"2014-10-15 15:49:57.427";"2014-10-15 16:02:44.278";"1";"1";"1";"136";"135";"module.training_block4.exec-7160.GoNoGo4";;;;;;;;;;;;;;;;;;;;;;;;;;;;;;;;;;;;;;;;;;;;;;;;;;;;;;;;;;;"1261";"2014-10-15 15:57:36.598";"ST_correctStop";"1";"0";"FINISHED";"NONE";"success";"0";"1";"2014-10-15 15:57:35.335";"1";;;;;;;;;;;;;;;;;;;;;
"sng6";;;"Windows 7";"Rachel's Experiment (D.T.)";"1.0";"2";"1";"1";"2";"1";"1";"2014-10-15 15:49:57.427";"2014-10-15 16:02:44.278";"1";"1";"1";"137";"136";"module.training_block4.exec-7160.GoNoGo4";;;;;;;;;;;;;;;;;;;;;;;;;;;;;;;;;;;;;;;;;;;;;;;;;;;;;;;;;;;"1261";"2014-10-15 15:57:39.126";"ST_correctStop";"20";"1";"FINISHED";"NONE";"success";"0";"1";"2014-10-15 15:57:37.862";"3";;;;;;;;;;;;;;;;;;;;;
"sng6";;;"Windows 7";"Rachel's Experiment (D.T.)";"1.0";"2";"1";"1";"2";"1";"1";"2014-10-15 15:49:57.427";"2014-10-15 16:02:44.278";"1";"1";"1";"138";"137";"module.training_block4.exec-7160.GoNoGo4";;;;;;;;;;;;;;;;;;;;;;;;;;;;;;;;;;;;;;;;;;;;;;;;;;;;;;;;;;;"1261";"2014-10-15 15:57:41.653";"NST_correctLoc";"19";"1";"FINISHED";"RIGHT";"success";"567";"0";"2014-10-15 15:57:40.389";"3";;;;;;;;;;;;;;;;;;;;;
"sng6";;;"Windows 7";"Rachel's Experiment (D.T.)";"1.0";"2";"1";"1";"2";"1";"1";"2014-10-15 15:49:57.427";"2014-10-15 16:02:44.278";"1";"1";"1";"139";"138";"module.training_block4.exec-7160.GoNoGo4";;;;;;;;;;;;;;;;;;;;;;;;;;;;;;;;;;;;;;;;;;;;;;;;;;;;;;;;;;;"1261";"2014-10-15 15:57:44.180";"NST_correctLoc";"14";"1";"FINISHED";"RIGHT";"success";"464";"0";"2014-10-15 15:57:42.916";"2";;;;;;;;;;;;;;;;;;;;;
"sng6";;;"Windows 7";"Rachel's Experiment (D.T.)";"1.0";"2";"1";"1";"2";"1";"1";"2014-10-15 15:49:57.427";"2014-10-15 16:02:44.278";"1";"1";"1";"140";"139";"module.training_block4.exec-7160.GoNoGo4";;;;;;;;;;;;;;;;;;;;;;;;;;;;;;;;;;;;;;;;;;;;;;;;;;;;;;;;;;;"1261";"2014-10-15 15:57:46.707";"NST_correctLoc";"17";"1";"FINISHED";"RIGHT";"success";"401";"0";"2014-10-15 15:57:45.444";"2";;;;;;;;;;;;;;;;;;;;;
"sng6";;;"Windows 7";"Rachel's Experiment (D.T.)";"1.0";"2";"1";"1";"2";"1";"1";"2014-10-15 15:49:57.427";"2014-10-15 16:02:44.278";"1";"1";"1";"141";"140";"module.training_block4.exec-7160.GoNoGo4";;;;;;;;;;;;;;;;;;;;;;;;;;;;;;;;;;;;;;;;;;;;;;;;;;;;;;;;;;;"1261";"2014-10-15 15:57:49.234";"ST_correctStop";"21";"0";"FINISHED";"NONE";"success";"0";"1";"2014-10-15 15:57:47.971";"3";;;;;;;;;;;;;;;;;;;;;
"sng6";;;"Windows 7";"Rachel's Experiment (D.T.)";"1.0";"2";"1";"1";"2";"1";"1";"2014-10-15 15:49:57.427";"2014-10-15 16:02:44.278";"1";"1";"1";"142";"141";"module.training_block4.exec-7160.GoNoGo4";;;;;;;;;;;;;;;;;;;;;;;;;;;;;;;;;;;;;;;;;;;;;;;;;;;;;;;;;;;"1261";"2014-10-15 15:57:51.777";"ST_correctStop";"5";"0";"FINISHED";"NONE";"success";"0";"1";"2014-10-15 15:57:50.514";"1";;;;;;;;;;;;;;;;;;;;;
"sng6";;;"Windows 7";"Rachel's Experiment (D.T.)";"1.0";"2";"1";"1";"2";"1";"1";"2014-10-15 15:49:57.427";"2014-10-15 16:02:44.278";"1";"1";"1";"143";"142";"module.training_block4.exec-7160.GoNoGo4";;;;;;;;;;;;;;;;;;;;;;;;;;;;;;;;;;;;;;;;;;;;;;;;;;;;;;;;;;;"1261";"2014-10-15 15:57:54.304";"NST_correctLoc";"29";"1";"FINISHED";"RIGHT";"success";"467";"0";"2014-10-15 15:57:53.041";"3";;;;;;;;;;;;;;;;;;;;;
"sng6";;;"Windows 7";"Rachel's Experiment (D.T.)";"1.0";"2";"1";"1";"2";"1";"1";"2014-10-15 15:49:57.427";"2014-10-15 16:02:44.278";"1";"1";"1";"144";"143";"module.training_block4.exec-7160.GoNoGo4";;;;;;;;;;;;;;;;;;;;;;;;;;;;;;;;;;;;;;;;;;;;;;;;;;;;;;;;;;;"1261";"2014-10-15 15:57:56.832";"NST_correctLoc";"31";"0";"FINISHED";"LEFT";"success";"516";"0";"2014-10-15 15:57:55.568";"3";;;;;;;;;;;;;;;;;;;;;
"sng6";;;"Windows 7";"Rachel's Experiment (D.T.)";"1.0";"2";"1";"1";"2";"1";"1";"2014-10-15 15:49:57.427";"2014-10-15 16:02:44.278";"1";"1";"1";"145";"144";"module.training_block4.exec-7160.GoNoGo4";;;;;;;;;;;;;;;;;;;;;;;;;;;;;;;;;;;;;;;;;;;;;;;;;;;;;;;;;;;"1261";"2014-10-15 15:57:59.359";"ST_failedStop";"24";"0";"FINISHED";"LEFT";"failure";"381";"1";"2014-10-15 15:57:58.095";"3";;;;;;;;;;;;;;;;;;;;;
"sng6";;;"Windows 7";"Rachel's Experiment (D.T.)";"1.0";"2";"1";"1";"2";"1";"1";"2014-10-15 15:49:57.427";"2014-10-15 16:02:44.278";"1";"1";"1";"146";"145";"module.training_block4.exec-7160.GoNoGo4";;;;;;;;;;;;;;;;;;;;;;;;;;;;;;;;;;;;;;;;;;;;;;;;;;;;;;;;;;;"1261";"2014-10-15 15:58:01.886";"NST_correctLoc";"30";"0";"FINISHED";"LEFT";"success";"630";"0";"2014-10-15 15:58:00.622";"3";;;;;;;;;;;;;;;;;;;;;
"sng6";;;"Windows 7";"Rachel's Experiment (D.T.)";"1.0";"2";"1";"1";"2";"1";"1";"2014-10-15 15:49:57.427";"2014-10-15 16:02:44.278";"1";"1";"1";"147";"146";"module.training_block4.exec-7160.GoNoGo4";;;;;;;;;;;;;;;;;;;;;;;;;;;;;;;;;;;;;;;;;;;;;;;;;;;;;;;;;;;"1261";"2014-10-15 15:58:04.413";"ST_correctStop";"2";"0";"FINISHED";"NONE";"success";"0";"1";"2014-10-15 15:58:03.150";"1";;;;;;;;;;;;;;;;;;;;;
"sng6";;;"Windows 7";"Rachel's Experiment (D.T.)";"1.0";"2";"1";"1";"2";"1";"1";"2014-10-15 15:49:57.427";"2014-10-15 16:02:44.278";"1";"1";"1";"148";"147";"module.training_block4.exec-7160.GoNoGo4";;;;;;;;;;;;;;;;;;;;;;;;;;;;;;;;;;;;;;;;;;;;;;;;;;;;;;;;;;;"1261";"2014-10-15 15:58:06.940";"NST_correctLoc";"16";"1";"FINISHED";"RIGHT";"success";"519";"0";"2014-10-15 15:58:05.677";"2";;;;;;;;;;;;;;;;;;;;;
"sng6";;;"Windows 7";"Rachel's Experiment (D.T.)";"1.0";"2";"1";"1";"2";"1";"1";"2014-10-15 15:49:57.427";"2014-10-15 16:02:44.278";"1";"1";"1";"149";"148";"module.training_block4.exec-7160.GoNoGo4";;;;;;;;;;;;;;;;;;;;;;;;;;;;;;;;;;;;;;;;;;;;;;;;;;;;;;;;;;;"1261";"2014-10-15 15:58:09.468";"ST_correctStop";"22";"0";"FINISHED";"NONE";"success";"0";"1";"2014-10-15 15:58:08.204";"3";;;;;;;;;;;;;;;;;;;;;
"sng6";;;"Windows 7";"Rachel's Experiment (D.T.)";"1.0";"2";"1";"1";"2";"1";"1";"2014-10-15 15:49:57.427";"2014-10-15 16:02:44.278";"1";"1";"1";"150";"149";"module.training_block4.exec-7160.GoNoGo4";;;;;;;;;;;;;;;;;;;;;;;;;;;;;;;;;;;;;;;;;;;;;;;;;;;;;;;;;;;"1261";"2014-10-15 15:58:12.010";"NST_correctLoc";"13";"0";"FINISHED";"LEFT";"success";"513";"0";"2014-10-15 15:58:10.747";"2";;;;;;;;;;;;;;;;;;;;;
"sng6";;;"Windows 7";"Rachel's Experiment (D.T.)";"1.0";"2";"1";"1";"2";"1";"1";"2014-10-15 15:49:57.427";"2014-10-15 16:02:44.278";"1";"1";"1";"151";"150";"module.training_block4.exec-7160.GoNoGo4";;;;;;;;;;;;;;;;;;;;;;;;;;;;;;;;;;;;;;;;;;;;;;;;;;;;;;;;;;;"1261";"2014-10-15 15:58:14.538";"ST_correctStop";"18";"0";"FINISHED";"NONE";"success";"0";"1";"2014-10-15 15:58:13.274";"3";;;;;;;;;;;;;;;;;;;;;
"sng6";;;"Windows 7";"Rachel's Experiment (D.T.)";"1.0";"2";"1";"1";"2";"1";"1";"2014-10-15 15:49:57.427";"2014-10-15 16:02:44.278";"1";"1";"1";"152";"151";"module.training_block4.exec-7160.GoNoGo4";;;;;;;;;;;;;;;;;;;;;;;;;;;;;;;;;;;;;;;;;;;;;;;;;;;;;;;;;;;"1261";"2014-10-15 15:58:17.065";"ST_correctStop";"35";"0";"FINISHED";"NONE";"success";"0";"1";"2014-10-15 15:58:15.801";"3";;;;;;;;;;;;;;;;;;;;;
"sng6";;;"Windows 7";"Rachel's Experiment (D.T.)";"1.0";"2";"1";"1";"2";"1";"1";"2014-10-15 15:49:57.427";"2014-10-15 16:02:44.278";"1";"1";"1";"153";"152";"module.training_block4.exec-7160.GoNoGo4";;;;;;;;;;;;;;;;;;;;;;;;;;;;;;;;;;;;;;;;;;;;;;;;;;;;;;;;;;;"1261";"2014-10-15 15:58:19.592";"NST_correctLoc";"33";"1";"FINISHED";"RIGHT";"success";"348";"0";"2014-10-15 15:58:18.328";"3";;;;;;;;;;;;;;;;;;;;;
"sng6";;;"Windows 7";"Rachel's Experiment (D.T.)";"1.0";"2";"1";"1";"2";"1";"1";"2014-10-15 15:49:57.427";"2014-10-15 16:02:44.278";"1";"1";"1";"154";"153";"module.training_block4.exec-7160.GoNoGo4";;;;;;;;;;;;;;;;;;;;;;;;;;;;;;;;;;;;;;;;;;;;;;;;;;;;;;;;;;;"1261";"2014-10-15 15:58:22.119";"ST_correctStop";"6";"1";"FINISHED";"NONE";"success";"0";"1";"2014-10-15 15:58:20.856";"1";;;;;;;;;;;;;;;;;;;;;
"sng6";;;"Windows 7";"Rachel's Experiment (D.T.)";"1.0";"2";"1";"1";"2";"1";"1";"2014-10-15 15:49:57.427";"2014-10-15 16:02:44.278";"1";"1";"1";"155";"154";"module.training_block4.exec-7160.GoNoGo4";;;;;;;;;;;;;;;;;;;;;;;;;;;;;;;;;;;;;;;;;;;;;;;;;;;;;;;;;;;"1261";"2014-10-15 15:58:24.646";"NST_correctLoc";"34";"0";"FINISHED";"LEFT";"success";"397";"0";"2014-10-15 15:58:23.383";"3";;;;;;;;;;;;;;;;;;;;;
"sng6";;;"Windows 7";"Rachel's Experiment (D.T.)";"1.0";"2";"1";"1";"2";"1";"1";"2014-10-15 15:49:57.427";"2014-10-15 16:02:44.278";"1";"1";"1";"156";"155";"module.training_block4.exec-7160.GoNoGo4";;;;;;;;;;;;;;;;;;;;;;;;;;;;;;;;;;;;;;;;;;;;;;;;;;;;;;;;;;;"1261";"2014-10-15 15:58:27.174";"NST_correctLoc";"27";"1";"FINISHED";"RIGHT";"success";"350";"0";"2014-10-15 15:58:25.910";"3";;;;;;;;;;;;;;;;;;;;;
"sng6";;;"Windows 7";"Rachel's Experiment (D.T.)";"1.0";"2";"1";"1";"2";"1";"1";"2014-10-15 15:49:57.427";"2014-10-15 16:02:44.278";"1";"1";"1";"157";"156";"module.training_block4.exec-7160.GoNoGo4";;;;;;;;;;;;;;;;;;;;;;;;;;;;;;;;;;;;;;;;;;;;;;;;;;;;;;;;;;;"1261";"2014-10-15 15:58:29.701";"ST_correctStop";"0";"1";"FINISHED";"NONE";"success";"0";"1";"2014-10-15 15:58:28.437";"1";;;;;;;;;;;;;;;;;;;;;
"sng6";;;"Windows 7";"Rachel's Experiment (D.T.)";"1.0";"2";"1";"1";"2";"1";"1";"2014-10-15 15:49:57.427";"2014-10-15 16:02:44.278";"1";"1";"1";"158";"157";"module.training_block4.exec-7160.GoNoGo4";;;;;;;;;;;;;;;;;;;;;;;;;;;;;;;;;;;;;;;;;;;;;;;;;;;;;;;;;;;"1261";"2014-10-15 15:58:32.244";"ST_correctStop";"3";"1";"FINISHED";"NONE";"success";"0";"1";"2014-10-15 15:58:30.980";"1";;;;;;;;;;;;;;;;;;;;;
"sng6";;;"Windows 7";"Rachel's Experiment (D.T.)";"1.0";"2";"1";"1";"2";"1";"1";"2014-10-15 15:49:57.427";"2014-10-15 16:02:44.278";"1";"1";"1";"159";"158";"module.training_block4.exec-7160.GoNoGo4";;;;;;;;;;;;;;;;;;;;;;;;;;;;;;;;;;;;;;;;;;;;;;;;;;;;;;;;;;;"1261";"2014-10-15 15:58:34.771";"ST_correctStop";"28";"0";"FINISHED";"NONE";"success";"0";"1";"2014-10-15 15:58:33.507";"3";;;;;;;;;;;;;;;;;;;;;
"sng6";;;"Windows 7";"Rachel's Experiment (D.T.)";"1.0";"2";"1";"1";"2";"1";"1";"2014-10-15 15:49:57.427";"2014-10-15 16:02:44.278";"1";"1";"1";"160";"159";"module.devaluation_practice.exec-9754.devalPractice";;;;;;;;;;;;"18664";"2014-10-15 15:59:21.212";"0";"5";"1";"2";"4209";"2144";"9257";"2014-10-15 15:59:02.539";;;;;;;;;;;;;;;;;;;;;;;;;;;;;;;;;;;;;;;;;;;;;;;;;;;;;;;;;;;;;;;;;;;;;;
"sng6";;;"Windows 7";"Rachel's Experiment (D.T.)";"1.0";"2";"1";"1";"2";"1";"1";"2014-10-15 15:49:57.427";"2014-10-15 16:02:44.278";"1";"1";"1";"161";"160";"module.devaluation_practice.exec-9754.devalPractice";;;;;;;;;;;;"8197";"2014-10-15 15:59:29.418";"1";"5";"1";"2";"863";"960";"3338";"2014-10-15 15:59:21.228";;;;;;;;;;;;;;;;;;;;;;;;;;;;;;;;;;;;;;;;;;;;;;;;;;;;;;;;;;;;;;;;;;;;;;
"sng6";;;"Windows 7";"Rachel's Experiment (D.T.)";"1.0";"2";"1";"1";"2";"1";"1";"2014-10-15 15:49:57.427";"2014-10-15 16:02:44.278";"1";"1";"1";"162";"161";"module.devaluation_practice.exec-9754.devalPractice";;;;;;;;;;;;"9485";"2014-10-15 15:59:38.934";"2";"1";"3";"4";"1988";"2290";"2189";"2014-10-15 15:59:29.433";;;;;;;;;;;;;;;;;;;;;;;;;;;;;;;;;;;;;;;;;;;;;;;;;;;;;;;;;;;;;;;;;;;;;;
"sng6";;;"Windows 7";"Rachel's Experiment (D.T.)";"1.0";"2";"1";"1";"2";"1";"1";"2014-10-15 15:49:57.427";"2014-10-15 16:02:44.278";"1";"1";"1";"163";"162";"module.devaluation_practice.exec-9754.devalPractice";;;;;;;;;;;;"9745";"2014-10-15 15:59:48.699";"3";"5";"6";"3";"2126";"2152";"2433";"2014-10-15 15:59:38.949";;;;;;;;;;;;;;;;;;;;;;;;;;;;;;;;;;;;;;;;;;;;;;;;;;;;;;;;;;;;;;;;;;;;;;
"sng6";;;"Windows 7";"Rachel's Experiment (D.T.)";"1.0";"2";"1";"1";"2";"1";"1";"2014-10-15 15:49:57.427";"2014-10-15 16:02:44.278";"1";"1";"1";"164";"163";"module.devaluation_block1.exec-1285.deval1";"8906";"2014-10-15 16:00:01.835";"12";"5";"7";"6";"2710";"1739";"1425";"2014-10-15 15:59:52.927";"2";;;;;;;;;;;;;;;;;;;;;;;;;;;;;;;;;;;;;;;;;;;;;;;;;;;;;;;;;;;;;;;;;;;;;;;;;;;;;;;;
"sng6";;;"Windows 7";"Rachel's Experiment (D.T.)";"1.0";"2";"1";"1";"2";"1";"1";"2014-10-15 15:49:57.427";"2014-10-15 16:02:44.278";"1";"1";"1";"165";"164";"module.devaluation_block1.exec-1285.deval1";"6797";"2014-10-15 16:00:08.652";"17";"3";"1";"3";"1092";"911";"1773";"2014-10-15 16:00:01.850";"2";;;;;;;;;;;;;;;;;;;;;;;;;;;;;;;;;;;;;;;;;;;;;;;;;;;;;;;;;;;;;;;;;;;;;;;;;;;;;;;;
"sng6";;;"Windows 7";"Rachel's Experiment (D.T.)";"1.0";"2";"1";"1";"2";"1";"1";"2014-10-15 15:49:57.427";"2014-10-15 16:02:44.278";"1";"1";"1";"166";"165";"module.devaluation_block1.exec-1285.deval1";"7493";"2014-10-15 16:00:16.171";"15";"3";"7";"6";"1858";"1403";"1207";"2014-10-15 16:00:08.667";"2";;;;;;;;;;;;;;;;;;;;;;;;;;;;;;;;;;;;;;;;;;;;;;;;;;;;;;;;;;;;;;;;;;;;;;;;;;;;;;;;
"sng6";;;"Windows 7";"Rachel's Experiment (D.T.)";"1.0";"2";"1";"1";"2";"1";"1";"2014-10-15 15:49:57.427";"2014-10-15 16:02:44.278";"1";"1";"1";"167";"166";"module.devaluation_block1.exec-1285.deval1";"8388";"2014-10-15 16:00:24.579";"2";"5";"7";"7";"1275";"1481";"2609";"2014-10-15 16:00:16.187";"1";;;;;;;;;;;;;;;;;;;;;;;;;;;;;;;;;;;;;;;;;;;;;;;;;;;;;;;;;;;;;;;;;;;;;;;;;;;;;;;;
"sng6";;;"Windows 7";"Rachel's Experiment (D.T.)";"1.0";"2";"1";"1";"2";"1";"1";"2014-10-15 15:49:57.427";"2014-10-15 16:02:44.278";"1";"1";"1";"168";"167";"module.devaluation_block1.exec-1285.deval1";"5637";"2014-10-15 16:00:30.242";"14";"6";"7";"6";"835";"1287";"485";"2014-10-15 16:00:24.611";"2";;;;;;;;;;;;;;;;;;;;;;;;;;;;;;;;;;;;;;;;;;;;;;;;;;;;;;;;;;;;;;;;;;;;;;;;;;;;;;;;
"sng6";;;"Windows 7";"Rachel's Experiment (D.T.)";"1.0";"2";"1";"1";"2";"1";"1";"2014-10-15 15:49:57.427";"2014-10-15 16:02:44.278";"1";"1";"1";"169";"168";"module.devaluation_block1.exec-1285.deval1";"7182";"2014-10-15 16:00:37.449";"3";"4";"1";"3";"1404";"974";"1653";"2014-10-15 16:00:30.258";"1";;;;;;;;;;;;;;;;;;;;;;;;;;;;;;;;;;;;;;;;;;;;;;;;;;;;;;;;;;;;;;;;;;;;;;;;;;;;;;;;
"sng6";;;"Windows 7";"Rachel's Experiment (D.T.)";"1.0";"2";"1";"1";"2";"1";"1";"2014-10-15 15:49:57.427";"2014-10-15 16:02:44.278";"1";"1";"1";"170";"169";"module.devaluation_block1.exec-1285.deval1";"6066";"2014-10-15 16:00:43.533";"13";"3";"4";"4";"893";"956";"1186";"2014-10-15 16:00:37.465";"2";;;;;;;;;;;;;;;;;;;;;;;;;;;;;;;;;;;;;;;;;;;;;;;;;;;;;;;;;;;;;;;;;;;;;;;;;;;;;;;;
"sng6";;;"Windows 7";"Rachel's Experiment (D.T.)";"1.0";"2";"1";"1";"2";"1";"1";"2014-10-15 15:49:57.427";"2014-10-15 16:02:44.278";"1";"1";"1";"171";"170";"module.devaluation_block1.exec-1285.deval1";"6493";"2014-10-15 16:00:50.039";"9";"3";"1";"2";"1480";"823";"1164";"2014-10-15 16:00:43.549";"2";;;;;;;;;;;;;;;;;;;;;;;;;;;;;;;;;;;;;;;;;;;;;;;;;;;;;;;;;;;;;;;;;;;;;;;;;;;;;;;;
"sng6";;;"Windows 7";"Rachel's Experiment (D.T.)";"1.0";"2";"1";"1";"2";"1";"1";"2014-10-15 15:49:57.427";"2014-10-15 16:02:44.278";"1";"1";"1";"172";"171";"module.devaluation_block1.exec-1285.deval1";"5909";"2014-10-15 16:00:55.967";"21";"6";"6";"6";"1192";"791";"899";"2014-10-15 16:00:50.070";"3";;;;;;;;;;;;;;;;;;;;;;;;;;;;;;;;;;;;;;;;;;;;;;;;;;;;;;;;;;;;;;;;;;;;;;;;;;;;;;;;
"sng6";;;"Windows 7";"Rachel's Experiment (D.T.)";"1.0";"2";"1";"1";"2";"1";"1";"2014-10-15 15:49:57.427";"2014-10-15 16:02:44.278";"1";"1";"1";"173";"172";"module.devaluation_block1.exec-1285.deval1";"6817";"2014-10-15 16:01:02.815";"8";"7";"5";"6";"1967";"799";"1015";"2014-10-15 16:00:55.998";"1";;;;;;;;;;;;;;;;;;;;;;;;;;;;;;;;;;;;;;;;;;;;;;;;;;;;;;;;;;;;;;;;;;;;;;;;;;;;;;;;
"sng6";;;"Windows 7";"Rachel's Experiment (D.T.)";"1.0";"2";"1";"1";"2";"1";"1";"2014-10-15 15:49:57.427";"2014-10-15 16:02:44.278";"1";"1";"1";"174";"173";"module.devaluation_block1.exec-1285.deval1";"4605";"2014-10-15 16:01:07.433";"7";"7";"5";"6";"855";"243";"466";"2014-10-15 16:01:02.831";"1";;;;;;;;;;;;;;;;;;;;;;;;;;;;;;;;;;;;;;;;;;;;;;;;;;;;;;;;;;;;;;;;;;;;;;;;;;;;;;;;
"sng6";;;"Windows 7";"Rachel's Experiment (D.T.)";"1.0";"2";"1";"1";"2";"1";"1";"2014-10-15 15:49:57.427";"2014-10-15 16:02:44.278";"1";"1";"1";"175";"174";"module.devaluation_block1.exec-1285.deval1";"6773";"2014-10-15 16:01:14.234";"24";"7";"4";"7";"901";"2106";"753";"2014-10-15 16:01:07.448";"3";;;;;;;;;;;;;;;;;;;;;;;;;;;;;;;;;;;;;;;;;;;;;;;;;;;;;;;;;;;;;;;;;;;;;;;;;;;;;;;;
"sng6";;;"Windows 7";"Rachel's Experiment (D.T.)";"1.0";"2";"1";"1";"2";"1";"1";"2014-10-15 15:49:57.427";"2014-10-15 16:02:44.278";"1";"1";"1";"176";"175";"module.devaluation_block1.exec-1285.deval1";"6045";"2014-10-15 16:01:20.287";"19";"6";"4";"6";"787";"1727";"509";"2014-10-15 16:01:14.250";"3";;;;;;;;;;;;;;;;;;;;;;;;;;;;;;;;;;;;;;;;;;;;;;;;;;;;;;;;;;;;;;;;;;;;;;;;;;;;;;;;
"sng6";;;"Windows 7";"Rachel's Experiment (D.T.)";"1.0";"2";"1";"1";"2";"1";"1";"2014-10-15 15:49:57.427";"2014-10-15 16:02:44.278";"1";"1";"1";"177";"176";"module.devaluation_block1.exec-1285.deval1";"7703";"2014-10-15 16:01:28.025";"25";"6";"1";"3";"2439";"875";"1355";"2014-10-15 16:01:20.318";"3";;;;;;;;;;;;;;;;;;;;;;;;;;;;;;;;;;;;;;;;;;;;;;;;;;;;;;;;;;;;;;;;;;;;;;;;;;;;;;;;
"sng6";;;"Windows 7";"Rachel's Experiment (D.T.)";"1.0";"2";"1";"1";"2";"1";"1";"2014-10-15 15:49:57.427";"2014-10-15 16:02:44.278";"1";"1";"1";"178";"177";"module.devaluation_block1.exec-1285.deval1";"7869";"2014-10-15 16:01:35.903";"20";"7";"6";"6";"1677";"2273";"893";"2014-10-15 16:01:28.040";"3";;;;;;;;;;;;;;;;;;;;;;;;;;;;;;;;;;;;;;;;;;;;;;;;;;;;;;;;;;;;;;;;;;;;;;;;;;;;;;;;
"sng6";;;"Windows 7";"Rachel's Experiment (D.T.)";"1.0";"2";"1";"1";"2";"1";"1";"2014-10-15 15:49:57.427";"2014-10-15 16:02:44.278";"1";"1";"1";"179";"178";"module.devaluation_block1.exec-1285.deval1";"4801";"2014-10-15 16:01:40.739";"5";"6";"1";"5";"511";"966";"290";"2014-10-15 16:01:35.934";"1";;;;;;;;;;;;;;;;;;;;;;;;;;;;;;;;;;;;;;;;;;;;;;;;;;;;;;;;;;;;;;;;;;;;;;;;;;;;;;;;
"sng6";;;"Windows 7";"Rachel's Experiment (D.T.)";"1.0";"2";"1";"1";"2";"1";"1";"2014-10-15 15:49:57.427";"2014-10-15 16:02:44.278";"1";"1";"1";"180";"179";"module.devaluation_block1.exec-1285.deval1";"6317";"2014-10-15 16:01:47.072";"10";"4";"1";"3";"1939";"735";"618";"2014-10-15 16:01:40.754";"2";;;;;;;;;;;;;;;;;;;;;;;;;;;;;;;;;;;;;;;;;;;;;;;;;;;;;;;;;;;;;;;;;;;;;;;;;;;;;;;;
"sng6";;;"Windows 7";"Rachel's Experiment (D.T.)";"1.0";"2";"1";"1";"2";"1";"1";"2014-10-15 15:49:57.427";"2014-10-15 16:02:44.278";"1";"1";"1";"181";"180";"module.devaluation_block1.exec-1285.deval1";"4630";"2014-10-15 16:01:51.721";"1";"6";"6";"6";"485";"625";"495";"2014-10-15 16:01:47.088";"1";;;;;;;;;;;;;;;;;;;;;;;;;;;;;;;;;;;;;;;;;;;;;;;;;;;;;;;;;;;;;;;;;;;;;;;;;;;;;;;;
"sng6";;;"Windows 7";"Rachel's Experiment (D.T.)";"1.0";"2";"1";"1";"2";"1";"1";"2014-10-15 15:49:57.427";"2014-10-15 16:02:44.278";"1";"1";"1";"182";"181";"module.devaluation_block1.exec-1285.deval1";"4845";"2014-10-15 16:01:56.588";"26";"7";"6";"7";"557";"544";"720";"2014-10-15 16:01:51.737";"3";;;;;;;;;;;;;;;;;;;;;;;;;;;;;;;;;;;;;;;;;;;;;;;;;;;;;;;;;;;;;;;;;;;;;;;;;;;;;;;;
"sng6";;;"Windows 7";"Rachel's Experiment (D.T.)";"1.0";"2";"1";"1";"2";"1";"1";"2014-10-15 15:49:57.427";"2014-10-15 16:02:44.278";"1";"1";"1";"183";"182";"module.devaluation_block1.exec-1285.deval1";"5997";"2014-10-15 16:02:02.594";"11";"7";"7";"7";"1249";"1053";"654";"2014-10-15 16:01:56.604";"2";;;;;;;;;;;;;;;;;;;;;;;;;;;;;;;;;;;;;;;;;;;;;;;;;;;;;;;;;;;;;;;;;;;;;;;;;;;;;;;;
"sng6";;;"Windows 7";"Rachel's Experiment (D.T.)";"1.0";"2";"1";"1";"2";"1";"1";"2014-10-15 15:49:57.427";"2014-10-15 16:02:44.278";"1";"1";"1";"184";"183";"module.devaluation_block1.exec-1285.deval1";"4157";"2014-10-15 16:02:06.775";"0";"7";"6";"7";"523";"299";"318";"2014-10-15 16:02:02.610";"1";;;;;;;;;;;;;;;;;;;;;;;;;;;;;;;;;;;;;;;;;;;;;;;;;;;;;;;;;;;;;;;;;;;;;;;;;;;;;;;;
"sng6";;;"Windows 7";"Rachel's Experiment (D.T.)";"1.0";"2";"1";"1";"2";"1";"1";"2014-10-15 15:49:57.427";"2014-10-15 16:02:44.278";"1";"1";"1";"185";"184";"module.devaluation_block1.exec-1285.deval1";"5032";"2014-10-15 16:02:11.830";"18";"6";"7";"7";"815";"496";"697";"2014-10-15 16:02:06.806";"3";;;;;;;;;;;;;;;;;;;;;;;;;;;;;;;;;;;;;;;;;;;;;;;;;;;;;;;;;;;;;;;;;;;;;;;;;;;;;;;;
"sng6";;;"Windows 7";"Rachel's Experiment (D.T.)";"1.0";"2";"1";"1";"2";"1";"1";"2014-10-15 15:49:57.427";"2014-10-15 16:02:44.278";"1";"1";"1";"186";"185";"module.devaluation_block1.exec-1285.deval1";"5757";"2014-10-15 16:02:17.617";"22";"6";"6";"6";"1329";"234";"1152";"2014-10-15 16:02:11.861";"3";;;;;;;;;;;;;;;;;;;;;;;;;;;;;;;;;;;;;;;;;;;;;;;;;;;;;;;;;;;;;;;;;;;;;;;;;;;;;;;;
"sng6";;;"Windows 7";"Rachel's Experiment (D.T.)";"1.0";"2";"1";"1";"2";"1";"1";"2014-10-15 15:49:57.427";"2014-10-15 16:02:44.278";"1";"1";"1";"187";"186";"module.devaluation_block1.exec-1285.deval1";"5525";"2014-10-15 16:02:23.155";"4";"7";"1";"5";"892";"927";"680";"2014-10-15 16:02:17.633";"1";;;;;;;;;;;;;;;;;;;;;;;;;;;;;;;;;;;;;;;;;;;;;;;;;;;;;;;;;;;;;;;;;;;;;;;;;;;;;;;;
"sng6";;;"Windows 7";"Rachel's Experiment (D.T.)";"1.0";"2";"1";"1";"2";"1";"1";"2014-10-15 15:49:57.427";"2014-10-15 16:02:44.278";"1";"1";"1";"188";"187";"module.devaluation_block1.exec-1285.deval1";"5027";"2014-10-15 16:02:28.210";"16";"6";"7";"6";"859";"741";"390";"2014-10-15 16:02:23.186";"2";;;;;;;;;;;;;;;;;;;;;;;;;;;;;;;;;;;;;;;;;;;;;;;;;;;;;;;;;;;;;;;;;;;;;;;;;;;;;;;;
"sng6";;;"Windows 7";"Rachel's Experiment (D.T.)";"1.0";"2";"1";"1";"2";"1";"1";"2014-10-15 15:49:57.427";"2014-10-15 16:02:44.278";"1";"1";"1";"189";"188";"module.devaluation_block1.exec-1285.deval1";"6092";"2014-10-15 16:02:34.325";"23";"7";"5";"4";"620";"99";"2353";"2014-10-15 16:02:28.225";"3";;;;;;;;;;;;;;;;;;;;;;;;;;;;;;;;;;;;;;;;;;;;;;;;;;;;;;;;;;;;;;;;;;;;;;;;;;;;;;;;
"sng6";;;"Windows 7";"Rachel's Experiment (D.T.)";"1.0";"2";"1";"1";"2";"1";"1";"2014-10-15 15:49:57.427";"2014-10-15 16:02:44.278";"1";"1";"1";"190";"189";"module.devaluation_block1.exec-1285.deval1";"8202";"2014-10-15 16:02:42.562";"6";"3";"5";"6";"2873";"1123";"1176";"2014-10-15 16:02:34.356";"1";;;;;;;;;;;;;;;;;;;;;;;;;;;;;;;;;;;;;;;;;;;;;;;;;;;;;;;;;;;;;;;;;;;;;;;;;;;;;;;;
