"user.name";"user.yearOfBirth";"user.sex";"user.osName";"module.name";"module.version";"module.online.subject.code";"module.online.study.id";"module.online.module.nr";"module.online.group.nr";"session.id";"session.index";"session.startTime";"session.endTime";"session.completed";"session.node-3017.DevalQorder";"session.node-3616.conditionType";"trial.id";"trial.index";"trial.name";"trial.deval1.durationTime";"trial.deval1.endTime";"trial.deval1.icon";"trial.deval1.Resp_Attractive";"trial.deval1.Resp_Eat";"trial.deval1.Resp_Taste";"trial.deval1.RT_Attractive";"trial.deval1.RT_Eat";"trial.deval1.RT_Taste";"trial.deval1.startTime";"trial.deval1.stimulus type";"trial.devalPractice.durationTime";"trial.devalPractice.endTime";"trial.devalPractice.icon";"trial.devalPractice.Resp_Attractive";"trial.devalPractice.Resp_Eat";"trial.devalPractice.Resp_Taste";"trial.devalPractice.RT_Attractive";"trial.devalPractice.RT_Eat";"trial.devalPractice.RT_Taste";"trial.devalPractice.startTime";"trial.devalPractice.stimulus type";"trial.GoNoGo1.durationTime";"trial.GoNoGo1.endTime";"trial.GoNoGo1.Error Type";"trial.GoNoGo1.icon";"trial.GoNoGo1.location";"trial.GoNoGo1.outcome";"trial.GoNoGo1.response";"trial.GoNoGo1.result";"trial.GoNoGo1.RT";"trial.GoNoGo1.signal";"trial.GoNoGo1.startTime";"trial.GoNoGo1.stimulus type";"trial.GoNoGo2.durationTime";"trial.GoNoGo2.endTime";"trial.GoNoGo2.Error Type";"trial.GoNoGo2.icon";"trial.GoNoGo2.location";"trial.GoNoGo2.outcome";"trial.GoNoGo2.response";"trial.GoNoGo2.result";"trial.GoNoGo2.RT";"trial.GoNoGo2.signal";"trial.GoNoGo2.startTime";"trial.GoNoGo2.stimulus type";"trial.GoNoGo3.durationTime";"trial.GoNoGo3.endTime";"trial.GoNoGo3.Error Type";"trial.GoNoGo3.icon";"trial.GoNoGo3.location";"trial.GoNoGo3.outcome";"trial.GoNoGo3.response";"trial.GoNoGo3.result";"trial.GoNoGo3.RT";"trial.GoNoGo3.signal";"trial.GoNoGo3.startTime";"trial.GoNoGo3.stimulus type";"trial.GoNoGo4.durationTime";"trial.GoNoGo4.endTime";"trial.GoNoGo4.Error Type";"trial.GoNoGo4.icon";"trial.GoNoGo4.location";"trial.GoNoGo4.outcome";"trial.GoNoGo4.response";"trial.GoNoGo4.result";"trial.GoNoGo4.RT";"trial.GoNoGo4.signal";"trial.GoNoGo4.startTime";"trial.GoNoGo4.stimulus type";"trial.GoNoGo_Practice.durationTime";"trial.GoNoGo_Practice.endTime";"trial.GoNoGo_Practice.icon";"trial.GoNoGo_Practice.location";"trial.GoNoGo_Practice.outcome";"trial.GoNoGo_Practice.response";"trial.GoNoGo_Practice.result";"trial.GoNoGo_Practice.RT";"trial.GoNoGo_Practice.signal";"trial.GoNoGo_Practice.startTime";"trial.GoNoGo_Practice.stimulus type";"trial.GoNoGo_Tutorial.durationTime";"trial.GoNoGo_Tutorial.endTime";"trial.GoNoGo_Tutorial.icon";"trial.GoNoGo_Tutorial.location";"trial.GoNoGo_Tutorial.outcome";"trial.GoNoGo_Tutorial.response";"trial.GoNoGo_Tutorial.result";"trial.GoNoGo_Tutorial.RT";"trial.GoNoGo_Tutorial.signal";"trial.GoNoGo_Tutorial.startTime"
"3cheers";"1995";;"Windows 7";"Rachel's Experiment (D.T.)";"1.0";"2";"1";"1";"2";"1";"1";"2014-09-29 15:36:37.286";"2014-09-29 15:49:34.754";"1";"0";"1";"1";"0";"module.GoNoGotutorial.exec-4660.GoNoGo_Tutorial";;;;;;;;;;;;;;;;;;;;;;;;;;;;;;;;;;;;;;;;;;;;;;;;;;;;;;;;;;;;;;;;;;;;;;;;;;;;;;;;;;"4001";"2014-09-29 15:37:45.281";"leftResponse";"0";"FINISHED";"NONE";"failure";"0";"0";"2014-09-29 15:37:41.280"
"3cheers";"1995";;"Windows 7";"Rachel's Experiment (D.T.)";"1.0";"2";"1";"1";"2";"1";"1";"2014-09-29 15:36:37.286";"2014-09-29 15:49:34.754";"1";"0";"1";"2";"1";"module.GoNoGotutorial.exec-4660.GoNoGo_Tutorial";;;;;;;;;;;;;;;;;;;;;;;;;;;;;;;;;;;;;;;;;;;;;;;;;;;;;;;;;;;;;;;;;;;;;;;;;;;;;;;;;;"3999";"2014-09-29 15:37:50.612";"rightResponse";"1";"FINISHED";"NONE";"failure";"0";"0";"2014-09-29 15:37:46.611"
"3cheers";"1995";;"Windows 7";"Rachel's Experiment (D.T.)";"1.0";"2";"1";"1";"2";"1";"1";"2014-09-29 15:36:37.286";"2014-09-29 15:49:34.754";"1";"0";"1";"3";"2";"module.GoNoGotutorial.exec-4660.GoNoGo_Tutorial";;;;;;;;;;;;;;;;;;;;;;;;;;;;;;;;;;;;;;;;;;;;;;;;;;;;;;;;;;;;;;;;;;;;;;;;;;;;;;;;;;"3999";"2014-09-29 15:37:55.938";"signalResponse";"0";"FINISHED";"NONE";"success";"0";"1";"2014-09-29 15:37:51.938"
"3cheers";"1995";;"Windows 7";"Rachel's Experiment (D.T.)";"1.0";"2";"1";"1";"2";"1";"1";"2014-09-29 15:36:37.286";"2014-09-29 15:49:34.754";"1";"0";"1";"4";"3";"module.GoNoGopractice.exec-3235.GoNoGo_Practice";;;;;;;;;;;;;;;;;;;;;;;;;;;;;;;;;;;;;;;;;;;;;;;;;;;;;;;;;;;;;;;;;;;;;;;"1977";"2014-09-29 15:38:04.080";"18";"0";"FINISHED";"LEFT";"success";"514";"0";"2014-09-29 15:38:02.103";"3";;;;;;;;;;
"3cheers";"1995";;"Windows 7";"Rachel's Experiment (D.T.)";"1.0";"2";"1";"1";"2";"1";"1";"2014-09-29 15:36:37.286";"2014-09-29 15:49:34.754";"1";"0";"1";"5";"4";"module.GoNoGopractice.exec-3235.GoNoGo_Practice";;;;;;;;;;;;;;;;;;;;;;;;;;;;;;;;;;;;;;;;;;;;;;;;;;;;;;;;;;;;;;;;;;;;;;;"1951";"2014-09-29 15:38:07.354";"21";"1";"FINISHED";"RIGHT";"success";"526";"0";"2014-09-29 15:38:05.402";"3";;;;;;;;;;
"3cheers";"1995";;"Windows 7";"Rachel's Experiment (D.T.)";"1.0";"2";"1";"1";"2";"1";"1";"2014-09-29 15:36:37.286";"2014-09-29 15:49:34.754";"1";"0";"1";"6";"5";"module.GoNoGopractice.exec-3235.GoNoGo_Practice";;;;;;;;;;;;;;;;;;;;;;;;;;;;;;;;;;;;;;;;;;;;;;;;;;;;;;;;;;;;;;;;;;;;;;;"1957";"2014-09-29 15:38:10.627";"14";"1";"FINISHED";"NONE";"success";"0";"1";"2014-09-29 15:38:08.669";"2";;;;;;;;;;
"3cheers";"1995";;"Windows 7";"Rachel's Experiment (D.T.)";"1.0";"2";"1";"1";"2";"1";"1";"2014-09-29 15:36:37.286";"2014-09-29 15:49:34.754";"1";"0";"1";"7";"6";"module.GoNoGopractice.exec-3235.GoNoGo_Practice";;;;;;;;;;;;;;;;;;;;;;;;;;;;;;;;;;;;;;;;;;;;;;;;;;;;;;;;;;;;;;;;;;;;;;;"1952";"2014-09-29 15:38:13.894";"26";"0";"FINISHED";"LEFT";"success";"653";"0";"2014-09-29 15:38:11.942";"3";;;;;;;;;;
"3cheers";"1995";;"Windows 7";"Rachel's Experiment (D.T.)";"1.0";"2";"1";"1";"2";"1";"1";"2014-09-29 15:36:37.286";"2014-09-29 15:49:34.754";"1";"0";"1";"8";"7";"module.GoNoGopractice.exec-3235.GoNoGo_Practice";;;;;;;;;;;;;;;;;;;;;;;;;;;;;;;;;;;;;;;;;;;;;;;;;;;;;;;;;;;;;;;;;;;;;;;"1951";"2014-09-29 15:38:17.160";"2";"0";"FINISHED";"LEFT";"success";"551";"0";"2014-09-29 15:38:15.208";"1";;;;;;;;;;
"3cheers";"1995";;"Windows 7";"Rachel's Experiment (D.T.)";"1.0";"2";"1";"1";"2";"1";"1";"2014-09-29 15:36:37.286";"2014-09-29 15:49:34.754";"1";"0";"1";"9";"8";"module.GoNoGopractice.exec-3235.GoNoGo_Practice";;;;;;;;;;;;;;;;;;;;;;;;;;;;;;;;;;;;;;;;;;;;;;;;;;;;;;;;;;;;;;;;;;;;;;;"1950";"2014-09-29 15:38:20.424";"30";"0";"FINISHED";"NONE";"success";"0";"1";"2014-09-29 15:38:18.473";"3";;;;;;;;;;
"3cheers";"1995";;"Windows 7";"Rachel's Experiment (D.T.)";"1.0";"2";"1";"1";"2";"1";"1";"2014-09-29 15:36:37.286";"2014-09-29 15:49:34.754";"1";"0";"1";"10";"9";"module.GoNoGopractice.exec-3235.GoNoGo_Practice";;;;;;;;;;;;;;;;;;;;;;;;;;;;;;;;;;;;;;;;;;;;;;;;;;;;;;;;;;;;;;;;;;;;;;;"1959";"2014-09-29 15:38:23.695";"6";"1";"FINISHED";"RIGHT";"failure";"410";"1";"2014-09-29 15:38:21.735";"1";;;;;;;;;;
"3cheers";"1995";;"Windows 7";"Rachel's Experiment (D.T.)";"1.0";"2";"1";"1";"2";"1";"1";"2014-09-29 15:36:37.286";"2014-09-29 15:49:34.754";"1";"0";"1";"11";"10";"module.GoNoGopractice.exec-3235.GoNoGo_Practice";;;;;;;;;;;;;;;;;;;;;;;;;;;;;;;;;;;;;;;;;;;;;;;;;;;;;;;;;;;;;;;;;;;;;;;"1952";"2014-09-29 15:38:26.957";"34";"0";"FINISHED";"LEFT";"success";"953";"0";"2014-09-29 15:38:25.006";"3";;;;;;;;;;
"3cheers";"1995";;"Windows 7";"Rachel's Experiment (D.T.)";"1.0";"2";"1";"1";"2";"1";"1";"2014-09-29 15:36:37.286";"2014-09-29 15:49:34.754";"1";"0";"1";"12";"11";"module.GoNoGopractice.exec-3235.GoNoGo_Practice";;;;;;;;;;;;;;;;;;;;;;;;;;;;;;;;;;;;;;;;;;;;;;;;;;;;;;;;;;;;;;;;;;;;;;;"1952";"2014-09-29 15:38:30.221";"23";"1";"FINISHED";"RIGHT";"success";"611";"0";"2014-09-29 15:38:28.269";"3";;;;;;;;;;
"3cheers";"1995";;"Windows 7";"Rachel's Experiment (D.T.)";"1.0";"2";"1";"1";"2";"1";"1";"2014-09-29 15:36:37.286";"2014-09-29 15:49:34.754";"1";"0";"1";"13";"12";"module.GoNoGopractice.exec-3235.GoNoGo_Practice";;;;;;;;;;;;;;;;;;;;;;;;;;;;;;;;;;;;;;;;;;;;;;;;;;;;;;;;;;;;;;;;;;;;;;;"1951";"2014-09-29 15:38:33.481";"13";"0";"FINISHED";"NONE";"success";"0";"1";"2014-09-29 15:38:31.530";"2";;;;;;;;;;
"3cheers";"1995";;"Windows 7";"Rachel's Experiment (D.T.)";"1.0";"2";"1";"1";"2";"1";"1";"2014-09-29 15:36:37.286";"2014-09-29 15:49:34.754";"1";"0";"1";"14";"13";"module.GoNoGopractice.exec-3235.GoNoGo_Practice";;;;;;;;;;;;;;;;;;;;;;;;;;;;;;;;;;;;;;;;;;;;;;;;;;;;;;;;;;;;;;;;;;;;;;;"1953";"2014-09-29 15:38:36.741";"3";"1";"FINISHED";"RIGHT";"success";"891";"0";"2014-09-29 15:38:34.787";"1";;;;;;;;;;
"3cheers";"1995";;"Windows 7";"Rachel's Experiment (D.T.)";"1.0";"2";"1";"1";"2";"1";"1";"2014-09-29 15:36:37.286";"2014-09-29 15:49:34.754";"1";"0";"1";"15";"14";"module.GoNoGopractice.exec-3235.GoNoGo_Practice";;;;;;;;;;;;;;;;;;;;;;;;;;;;;;;;;;;;;;;;;;;;;;;;;;;;;;;;;;;;;;;;;;;;;;;"1952";"2014-09-29 15:38:40.020";"27";"1";"FINISHED";"NONE";"success";"0";"1";"2014-09-29 15:38:38.068";"3";;;;;;;;;;
"3cheers";"1995";;"Windows 7";"Rachel's Experiment (D.T.)";"1.0";"2";"1";"1";"2";"1";"1";"2014-09-29 15:36:37.286";"2014-09-29 15:49:34.754";"1";"0";"1";"16";"15";"module.training_block1.exec-1198.GoNoGo1";;;;;;;;;;;;;;;;;;;;;;;"1250";"2014-09-29 15:38:50.194";"NST_correctLoc";"16";"1";"FINISHED";"RIGHT";"success";"716";"0";"2014-09-29 15:38:48.943";"2";;;;;;;;;;;;;;;;;;;;;;;;;;;;;;;;;;;;;;;;;;;;;;;;;;;;;;;;;
"3cheers";"1995";;"Windows 7";"Rachel's Experiment (D.T.)";"1.0";"2";"1";"1";"2";"1";"1";"2014-09-29 15:36:37.286";"2014-09-29 15:49:34.754";"1";"0";"1";"17";"16";"module.training_block1.exec-1198.GoNoGo1";;;;;;;;;;;;;;;;;;;;;;;"1249";"2014-09-29 15:38:52.756";"NST_correctLoc";"9";"0";"FINISHED";"LEFT";"success";"582";"0";"2014-09-29 15:38:51.506";"2";;;;;;;;;;;;;;;;;;;;;;;;;;;;;;;;;;;;;;;;;;;;;;;;;;;;;;;;;
"3cheers";"1995";;"Windows 7";"Rachel's Experiment (D.T.)";"1.0";"2";"1";"1";"2";"1";"1";"2014-09-29 15:36:37.286";"2014-09-29 15:49:34.754";"1";"0";"1";"18";"17";"module.training_block1.exec-1198.GoNoGo1";;;;;;;;;;;;;;;;;;;;;;;"1250";"2014-09-29 15:38:55.316";"NST_correctLoc";"22";"0";"FINISHED";"LEFT";"success";"746";"0";"2014-09-29 15:38:54.066";"3";;;;;;;;;;;;;;;;;;;;;;;;;;;;;;;;;;;;;;;;;;;;;;;;;;;;;;;;;
"3cheers";"1995";;"Windows 7";"Rachel's Experiment (D.T.)";"1.0";"2";"1";"1";"2";"1";"1";"2014-09-29 15:36:37.286";"2014-09-29 15:49:34.754";"1";"0";"1";"19";"18";"module.training_block1.exec-1198.GoNoGo1";;;;;;;;;;;;;;;;;;;;;;;"1249";"2014-09-29 15:38:57.873";"ST_correctStop";"7";"1";"FINISHED";"NONE";"success";"0";"1";"2014-09-29 15:38:56.623";"1";;;;;;;;;;;;;;;;;;;;;;;;;;;;;;;;;;;;;;;;;;;;;;;;;;;;;;;;;
"3cheers";"1995";;"Windows 7";"Rachel's Experiment (D.T.)";"1.0";"2";"1";"1";"2";"1";"1";"2014-09-29 15:36:37.286";"2014-09-29 15:49:34.754";"1";"0";"1";"20";"19";"module.training_block1.exec-1198.GoNoGo1";;;;;;;;;;;;;;;;;;;;;;;"1249";"2014-09-29 15:39:00.430";"ST_correctStop";"25";"0";"FINISHED";"NONE";"success";"0";"1";"2014-09-29 15:38:59.180";"3";;;;;;;;;;;;;;;;;;;;;;;;;;;;;;;;;;;;;;;;;;;;;;;;;;;;;;;;;
"3cheers";"1995";;"Windows 7";"Rachel's Experiment (D.T.)";"1.0";"2";"1";"1";"2";"1";"1";"2014-09-29 15:36:37.286";"2014-09-29 15:49:34.754";"1";"0";"1";"21";"20";"module.training_block1.exec-1198.GoNoGo1";;;;;;;;;;;;;;;;;;;;;;;"1249";"2014-09-29 15:39:02.986";"ST_correctStop";"1";"0";"FINISHED";"NONE";"success";"0";"1";"2014-09-29 15:39:01.736";"1";;;;;;;;;;;;;;;;;;;;;;;;;;;;;;;;;;;;;;;;;;;;;;;;;;;;;;;;;
"3cheers";"1995";;"Windows 7";"Rachel's Experiment (D.T.)";"1.0";"2";"1";"1";"2";"1";"1";"2014-09-29 15:36:37.286";"2014-09-29 15:49:34.754";"1";"0";"1";"22";"21";"module.training_block1.exec-1198.GoNoGo1";;;;;;;;;;;;;;;;;;;;;;;"1249";"2014-09-29 15:39:05.535";"NST_correctLoc";"34";"1";"FINISHED";"RIGHT";"success";"553";"0";"2014-09-29 15:39:04.285";"3";;;;;;;;;;;;;;;;;;;;;;;;;;;;;;;;;;;;;;;;;;;;;;;;;;;;;;;;;
"3cheers";"1995";;"Windows 7";"Rachel's Experiment (D.T.)";"1.0";"2";"1";"1";"2";"1";"1";"2014-09-29 15:36:37.286";"2014-09-29 15:49:34.754";"1";"0";"1";"23";"22";"module.training_block1.exec-1198.GoNoGo1";;;;;;;;;;;;;;;;;;;;;;;"1249";"2014-09-29 15:39:08.092";"NST_correctLoc";"28";"1";"FINISHED";"RIGHT";"success";"662";"0";"2014-09-29 15:39:06.842";"3";;;;;;;;;;;;;;;;;;;;;;;;;;;;;;;;;;;;;;;;;;;;;;;;;;;;;;;;;
"3cheers";"1995";;"Windows 7";"Rachel's Experiment (D.T.)";"1.0";"2";"1";"1";"2";"1";"1";"2014-09-29 15:36:37.286";"2014-09-29 15:49:34.754";"1";"0";"1";"24";"23";"module.training_block1.exec-1198.GoNoGo1";;;;;;;;;;;;;;;;;;;;;;;"1249";"2014-09-29 15:39:10.640";"ST_correctStop";"18";"0";"FINISHED";"NONE";"success";"0";"1";"2014-09-29 15:39:09.390";"3";;;;;;;;;;;;;;;;;;;;;;;;;;;;;;;;;;;;;;;;;;;;;;;;;;;;;;;;;
"3cheers";"1995";;"Windows 7";"Rachel's Experiment (D.T.)";"1.0";"2";"1";"1";"2";"1";"1";"2014-09-29 15:36:37.286";"2014-09-29 15:49:34.754";"1";"0";"1";"25";"24";"module.training_block1.exec-1198.GoNoGo1";;;;;;;;;;;;;;;;;;;;;;;"1251";"2014-09-29 15:39:13.198";"NST_correctLoc";"35";"1";"FINISHED";"RIGHT";"success";"587";"0";"2014-09-29 15:39:11.948";"3";;;;;;;;;;;;;;;;;;;;;;;;;;;;;;;;;;;;;;;;;;;;;;;;;;;;;;;;;
"3cheers";"1995";;"Windows 7";"Rachel's Experiment (D.T.)";"1.0";"2";"1";"1";"2";"1";"1";"2014-09-29 15:36:37.286";"2014-09-29 15:49:34.754";"1";"0";"1";"26";"25";"module.training_block1.exec-1198.GoNoGo1";;;;;;;;;;;;;;;;;;;;;;;"1250";"2014-09-29 15:39:15.763";"NST_correctLoc";"12";"0";"FINISHED";"LEFT";"success";"746";"0";"2014-09-29 15:39:14.512";"2";;;;;;;;;;;;;;;;;;;;;;;;;;;;;;;;;;;;;;;;;;;;;;;;;;;;;;;;;
"3cheers";"1995";;"Windows 7";"Rachel's Experiment (D.T.)";"1.0";"2";"1";"1";"2";"1";"1";"2014-09-29 15:36:37.286";"2014-09-29 15:49:34.754";"1";"0";"1";"27";"26";"module.training_block1.exec-1198.GoNoGo1";;;;;;;;;;;;;;;;;;;;;;;"1249";"2014-09-29 15:39:18.316";"NST_correctLoc";"19";"1";"FINISHED";"RIGHT";"success";"509";"0";"2014-09-29 15:39:17.066";"3";;;;;;;;;;;;;;;;;;;;;;;;;;;;;;;;;;;;;;;;;;;;;;;;;;;;;;;;;
"3cheers";"1995";;"Windows 7";"Rachel's Experiment (D.T.)";"1.0";"2";"1";"1";"2";"1";"1";"2014-09-29 15:36:37.286";"2014-09-29 15:49:34.754";"1";"0";"1";"28";"27";"module.training_block1.exec-1198.GoNoGo1";;;;;;;;;;;;;;;;;;;;;;;"1249";"2014-09-29 15:39:20.868";"ST_correctStop";"33";"0";"FINISHED";"NONE";"success";"0";"1";"2014-09-29 15:39:19.618";"3";;;;;;;;;;;;;;;;;;;;;;;;;;;;;;;;;;;;;;;;;;;;;;;;;;;;;;;;;
"3cheers";"1995";;"Windows 7";"Rachel's Experiment (D.T.)";"1.0";"2";"1";"1";"2";"1";"1";"2014-09-29 15:36:37.286";"2014-09-29 15:49:34.754";"1";"0";"1";"29";"28";"module.training_block1.exec-1198.GoNoGo1";;;;;;;;;;;;;;;;;;;;;;;"1249";"2014-09-29 15:39:23.421";"NST_correctLoc";"14";"1";"FINISHED";"RIGHT";"success";"573";"0";"2014-09-29 15:39:22.171";"2";;;;;;;;;;;;;;;;;;;;;;;;;;;;;;;;;;;;;;;;;;;;;;;;;;;;;;;;;
"3cheers";"1995";;"Windows 7";"Rachel's Experiment (D.T.)";"1.0";"2";"1";"1";"2";"1";"1";"2014-09-29 15:36:37.286";"2014-09-29 15:49:34.754";"1";"0";"1";"30";"29";"module.training_block1.exec-1198.GoNoGo1";;;;;;;;;;;;;;;;;;;;;;;"1249";"2014-09-29 15:39:25.977";"ST_correctStop";"23";"1";"FINISHED";"NONE";"success";"0";"1";"2014-09-29 15:39:24.727";"3";;;;;;;;;;;;;;;;;;;;;;;;;;;;;;;;;;;;;;;;;;;;;;;;;;;;;;;;;
"3cheers";"1995";;"Windows 7";"Rachel's Experiment (D.T.)";"1.0";"2";"1";"1";"2";"1";"1";"2014-09-29 15:36:37.286";"2014-09-29 15:49:34.754";"1";"0";"1";"31";"30";"module.training_block1.exec-1198.GoNoGo1";;;;;;;;;;;;;;;;;;;;;;;"1250";"2014-09-29 15:39:28.530";"NST_correctLoc";"15";"1";"FINISHED";"RIGHT";"success";"616";"0";"2014-09-29 15:39:27.280";"2";;;;;;;;;;;;;;;;;;;;;;;;;;;;;;;;;;;;;;;;;;;;;;;;;;;;;;;;;
"3cheers";"1995";;"Windows 7";"Rachel's Experiment (D.T.)";"1.0";"2";"1";"1";"2";"1";"1";"2014-09-29 15:36:37.286";"2014-09-29 15:49:34.754";"1";"0";"1";"32";"31";"module.training_block1.exec-1198.GoNoGo1";;;;;;;;;;;;;;;;;;;;;;;"1249";"2014-09-29 15:39:31.074";"ST_correctStop";"21";"0";"FINISHED";"NONE";"success";"0";"1";"2014-09-29 15:39:29.824";"3";;;;;;;;;;;;;;;;;;;;;;;;;;;;;;;;;;;;;;;;;;;;;;;;;;;;;;;;;
"3cheers";"1995";;"Windows 7";"Rachel's Experiment (D.T.)";"1.0";"2";"1";"1";"2";"1";"1";"2014-09-29 15:36:37.286";"2014-09-29 15:49:34.754";"1";"0";"1";"33";"32";"module.training_block1.exec-1198.GoNoGo1";;;;;;;;;;;;;;;;;;;;;;;"1250";"2014-09-29 15:39:33.630";"NST_correctLoc";"24";"0";"FINISHED";"LEFT";"success";"734";"0";"2014-09-29 15:39:32.379";"3";;;;;;;;;;;;;;;;;;;;;;;;;;;;;;;;;;;;;;;;;;;;;;;;;;;;;;;;;
"3cheers";"1995";;"Windows 7";"Rachel's Experiment (D.T.)";"1.0";"2";"1";"1";"2";"1";"1";"2014-09-29 15:36:37.286";"2014-09-29 15:49:34.754";"1";"0";"1";"34";"33";"module.training_block1.exec-1198.GoNoGo1";;;;;;;;;;;;;;;;;;;;;;;"1249";"2014-09-29 15:39:36.172";"ST_correctStop";"26";"0";"FINISHED";"NONE";"success";"0";"1";"2014-09-29 15:39:34.922";"3";;;;;;;;;;;;;;;;;;;;;;;;;;;;;;;;;;;;;;;;;;;;;;;;;;;;;;;;;
"3cheers";"1995";;"Windows 7";"Rachel's Experiment (D.T.)";"1.0";"2";"1";"1";"2";"1";"1";"2014-09-29 15:36:37.286";"2014-09-29 15:49:34.754";"1";"0";"1";"35";"34";"module.training_block1.exec-1198.GoNoGo1";;;;;;;;;;;;;;;;;;;;;;;"1251";"2014-09-29 15:39:38.716";"ST_correctStop";"6";"0";"FINISHED";"NONE";"success";"0";"1";"2014-09-29 15:39:37.466";"1";;;;;;;;;;;;;;;;;;;;;;;;;;;;;;;;;;;;;;;;;;;;;;;;;;;;;;;;;
"3cheers";"1995";;"Windows 7";"Rachel's Experiment (D.T.)";"1.0";"2";"1";"1";"2";"1";"1";"2014-09-29 15:36:37.286";"2014-09-29 15:49:34.754";"1";"0";"1";"36";"35";"module.training_block1.exec-1198.GoNoGo1";;;;;;;;;;;;;;;;;;;;;;;"1250";"2014-09-29 15:39:41.270";"ST_correctStop";"29";"0";"FINISHED";"NONE";"success";"0";"1";"2014-09-29 15:39:40.020";"3";;;;;;;;;;;;;;;;;;;;;;;;;;;;;;;;;;;;;;;;;;;;;;;;;;;;;;;;;
"3cheers";"1995";;"Windows 7";"Rachel's Experiment (D.T.)";"1.0";"2";"1";"1";"2";"1";"1";"2014-09-29 15:36:37.286";"2014-09-29 15:49:34.754";"1";"0";"1";"37";"36";"module.training_block1.exec-1198.GoNoGo1";;;;;;;;;;;;;;;;;;;;;;;"1250";"2014-09-29 15:39:43.823";"ST_correctStop";"8";"1";"FINISHED";"NONE";"success";"0";"1";"2014-09-29 15:39:42.573";"1";;;;;;;;;;;;;;;;;;;;;;;;;;;;;;;;;;;;;;;;;;;;;;;;;;;;;;;;;
"3cheers";"1995";;"Windows 7";"Rachel's Experiment (D.T.)";"1.0";"2";"1";"1";"2";"1";"1";"2014-09-29 15:36:37.286";"2014-09-29 15:49:34.754";"1";"0";"1";"38";"37";"module.training_block1.exec-1198.GoNoGo1";;;;;;;;;;;;;;;;;;;;;;;"1249";"2014-09-29 15:39:46.364";"ST_correctStop";"3";"1";"FINISHED";"NONE";"success";"0";"1";"2014-09-29 15:39:45.114";"1";;;;;;;;;;;;;;;;;;;;;;;;;;;;;;;;;;;;;;;;;;;;;;;;;;;;;;;;;
"3cheers";"1995";;"Windows 7";"Rachel's Experiment (D.T.)";"1.0";"2";"1";"1";"2";"1";"1";"2014-09-29 15:36:37.286";"2014-09-29 15:49:34.754";"1";"0";"1";"39";"38";"module.training_block1.exec-1198.GoNoGo1";;;;;;;;;;;;;;;;;;;;;;;"1249";"2014-09-29 15:39:48.906";"NST_correctLoc";"30";"0";"FINISHED";"LEFT";"success";"640";"0";"2014-09-29 15:39:47.656";"3";;;;;;;;;;;;;;;;;;;;;;;;;;;;;;;;;;;;;;;;;;;;;;;;;;;;;;;;;
"3cheers";"1995";;"Windows 7";"Rachel's Experiment (D.T.)";"1.0";"2";"1";"1";"2";"1";"1";"2014-09-29 15:36:37.286";"2014-09-29 15:49:34.754";"1";"0";"1";"40";"39";"module.training_block1.exec-1198.GoNoGo1";;;;;;;;;;;;;;;;;;;;;;;"1249";"2014-09-29 15:39:51.465";"ST_correctStop";"5";"1";"FINISHED";"NONE";"success";"0";"1";"2014-09-29 15:39:50.214";"1";;;;;;;;;;;;;;;;;;;;;;;;;;;;;;;;;;;;;;;;;;;;;;;;;;;;;;;;;
"3cheers";"1995";;"Windows 7";"Rachel's Experiment (D.T.)";"1.0";"2";"1";"1";"2";"1";"1";"2014-09-29 15:36:37.286";"2014-09-29 15:49:34.754";"1";"0";"1";"41";"40";"module.training_block1.exec-1198.GoNoGo1";;;;;;;;;;;;;;;;;;;;;;;"1250";"2014-09-29 15:39:54.013";"NST_correctLoc";"11";"0";"FINISHED";"LEFT";"success";"674";"0";"2014-09-29 15:39:52.763";"2";;;;;;;;;;;;;;;;;;;;;;;;;;;;;;;;;;;;;;;;;;;;;;;;;;;;;;;;;
"3cheers";"1995";;"Windows 7";"Rachel's Experiment (D.T.)";"1.0";"2";"1";"1";"2";"1";"1";"2014-09-29 15:36:37.286";"2014-09-29 15:49:34.754";"1";"0";"1";"42";"41";"module.training_block1.exec-1198.GoNoGo1";;;;;;;;;;;;;;;;;;;;;;;"1249";"2014-09-29 15:39:56.561";"NST_correctLoc";"31";"1";"FINISHED";"RIGHT";"success";"804";"0";"2014-09-29 15:39:55.311";"3";;;;;;;;;;;;;;;;;;;;;;;;;;;;;;;;;;;;;;;;;;;;;;;;;;;;;;;;;
"3cheers";"1995";;"Windows 7";"Rachel's Experiment (D.T.)";"1.0";"2";"1";"1";"2";"1";"1";"2014-09-29 15:36:37.286";"2014-09-29 15:49:34.754";"1";"0";"1";"43";"42";"module.training_block1.exec-1198.GoNoGo1";;;;;;;;;;;;;;;;;;;;;;;"1249";"2014-09-29 15:39:59.110";"NST_correctLoc";"10";"0";"FINISHED";"LEFT";"success";"716";"0";"2014-09-29 15:39:57.860";"2";;;;;;;;;;;;;;;;;;;;;;;;;;;;;;;;;;;;;;;;;;;;;;;;;;;;;;;;;
"3cheers";"1995";;"Windows 7";"Rachel's Experiment (D.T.)";"1.0";"2";"1";"1";"2";"1";"1";"2014-09-29 15:36:37.286";"2014-09-29 15:49:34.754";"1";"0";"1";"44";"43";"module.training_block1.exec-1198.GoNoGo1";;;;;;;;;;;;;;;;;;;;;;;"1250";"2014-09-29 15:40:01.658";"ST_correctStop";"0";"1";"FINISHED";"NONE";"success";"0";"1";"2014-09-29 15:40:00.408";"1";;;;;;;;;;;;;;;;;;;;;;;;;;;;;;;;;;;;;;;;;;;;;;;;;;;;;;;;;
"3cheers";"1995";;"Windows 7";"Rachel's Experiment (D.T.)";"1.0";"2";"1";"1";"2";"1";"1";"2014-09-29 15:36:37.286";"2014-09-29 15:49:34.754";"1";"0";"1";"45";"44";"module.training_block1.exec-1198.GoNoGo1";;;;;;;;;;;;;;;;;;;;;;;"1250";"2014-09-29 15:40:04.205";"ST_correctStop";"20";"1";"FINISHED";"NONE";"success";"0";"1";"2014-09-29 15:40:02.955";"3";;;;;;;;;;;;;;;;;;;;;;;;;;;;;;;;;;;;;;;;;;;;;;;;;;;;;;;;;
"3cheers";"1995";;"Windows 7";"Rachel's Experiment (D.T.)";"1.0";"2";"1";"1";"2";"1";"1";"2014-09-29 15:36:37.286";"2014-09-29 15:49:34.754";"1";"0";"1";"46";"45";"module.training_block1.exec-1198.GoNoGo1";;;;;;;;;;;;;;;;;;;;;;;"1250";"2014-09-29 15:40:06.755";"NST_correctLoc";"17";"1";"FINISHED";"RIGHT";"success";"819";"0";"2014-09-29 15:40:05.505";"2";;;;;;;;;;;;;;;;;;;;;;;;;;;;;;;;;;;;;;;;;;;;;;;;;;;;;;;;;
"3cheers";"1995";;"Windows 7";"Rachel's Experiment (D.T.)";"1.0";"2";"1";"1";"2";"1";"1";"2014-09-29 15:36:37.286";"2014-09-29 15:49:34.754";"1";"0";"1";"47";"46";"module.training_block1.exec-1198.GoNoGo1";;;;;;;;;;;;;;;;;;;;;;;"1250";"2014-09-29 15:40:09.309";"ST_correctStop";"4";"0";"FINISHED";"NONE";"success";"0";"1";"2014-09-29 15:40:08.059";"1";;;;;;;;;;;;;;;;;;;;;;;;;;;;;;;;;;;;;;;;;;;;;;;;;;;;;;;;;
"3cheers";"1995";;"Windows 7";"Rachel's Experiment (D.T.)";"1.0";"2";"1";"1";"2";"1";"1";"2014-09-29 15:36:37.286";"2014-09-29 15:49:34.754";"1";"0";"1";"48";"47";"module.training_block1.exec-1198.GoNoGo1";;;;;;;;;;;;;;;;;;;;;;;"1249";"2014-09-29 15:40:11.849";"ST_correctStop";"2";"1";"FINISHED";"NONE";"success";"0";"1";"2014-09-29 15:40:10.599";"1";;;;;;;;;;;;;;;;;;;;;;;;;;;;;;;;;;;;;;;;;;;;;;;;;;;;;;;;;
"3cheers";"1995";;"Windows 7";"Rachel's Experiment (D.T.)";"1.0";"2";"1";"1";"2";"1";"1";"2014-09-29 15:36:37.286";"2014-09-29 15:49:34.754";"1";"0";"1";"49";"48";"module.training_block1.exec-1198.GoNoGo1";;;;;;;;;;;;;;;;;;;;;;;"1249";"2014-09-29 15:40:14.389";"NST_correctLoc";"13";"0";"FINISHED";"LEFT";"success";"576";"0";"2014-09-29 15:40:13.139";"2";;;;;;;;;;;;;;;;;;;;;;;;;;;;;;;;;;;;;;;;;;;;;;;;;;;;;;;;;
"3cheers";"1995";;"Windows 7";"Rachel's Experiment (D.T.)";"1.0";"2";"1";"1";"2";"1";"1";"2014-09-29 15:36:37.286";"2014-09-29 15:49:34.754";"1";"0";"1";"50";"49";"module.training_block1.exec-1198.GoNoGo1";;;;;;;;;;;;;;;;;;;;;;;"1250";"2014-09-29 15:40:16.940";"ST_correctStop";"32";"1";"FINISHED";"NONE";"success";"0";"1";"2014-09-29 15:40:15.690";"3";;;;;;;;;;;;;;;;;;;;;;;;;;;;;;;;;;;;;;;;;;;;;;;;;;;;;;;;;
"3cheers";"1995";;"Windows 7";"Rachel's Experiment (D.T.)";"1.0";"2";"1";"1";"2";"1";"1";"2014-09-29 15:36:37.286";"2014-09-29 15:49:34.754";"1";"0";"1";"51";"50";"module.training_block1.exec-1198.GoNoGo1";;;;;;;;;;;;;;;;;;;;;;;"1249";"2014-09-29 15:40:19.479";"NST_correctLoc";"27";"0";"FINISHED";"LEFT";"success";"762";"0";"2014-09-29 15:40:18.229";"3";;;;;;;;;;;;;;;;;;;;;;;;;;;;;;;;;;;;;;;;;;;;;;;;;;;;;;;;;
"3cheers";"1995";;"Windows 7";"Rachel's Experiment (D.T.)";"1.0";"2";"1";"1";"2";"1";"1";"2014-09-29 15:36:37.286";"2014-09-29 15:49:34.754";"1";"0";"1";"52";"51";"module.training_block2.exec-1934.GoNoGo2";;;;;;;;;;;;;;;;;;;;;;;;;;;;;;;;;;;"1249";"2014-09-29 15:40:31.053";"ST_correctStop";"24";"1";"FINISHED";"NONE";"success";"0";"1";"2014-09-29 15:40:29.803";"3";;;;;;;;;;;;;;;;;;;;;;;;;;;;;;;;;;;;;;;;;;;;;
"3cheers";"1995";;"Windows 7";"Rachel's Experiment (D.T.)";"1.0";"2";"1";"1";"2";"1";"1";"2014-09-29 15:36:37.286";"2014-09-29 15:49:34.754";"1";"0";"1";"53";"52";"module.training_block2.exec-1934.GoNoGo2";;;;;;;;;;;;;;;;;;;;;;;;;;;;;;;;;;;"1249";"2014-09-29 15:40:33.592";"NST_correctLoc";"17";"1";"FINISHED";"RIGHT";"success";"490";"0";"2014-09-29 15:40:32.342";"2";;;;;;;;;;;;;;;;;;;;;;;;;;;;;;;;;;;;;;;;;;;;;
"3cheers";"1995";;"Windows 7";"Rachel's Experiment (D.T.)";"1.0";"2";"1";"1";"2";"1";"1";"2014-09-29 15:36:37.286";"2014-09-29 15:49:34.754";"1";"0";"1";"54";"53";"module.training_block2.exec-1934.GoNoGo2";;;;;;;;;;;;;;;;;;;;;;;;;;;;;;;;;;;"1250";"2014-09-29 15:40:36.131";"NST_correctLoc";"14";"1";"FINISHED";"RIGHT";"success";"682";"0";"2014-09-29 15:40:34.881";"2";;;;;;;;;;;;;;;;;;;;;;;;;;;;;;;;;;;;;;;;;;;;;
"3cheers";"1995";;"Windows 7";"Rachel's Experiment (D.T.)";"1.0";"2";"1";"1";"2";"1";"1";"2014-09-29 15:36:37.286";"2014-09-29 15:49:34.754";"1";"0";"1";"55";"54";"module.training_block2.exec-1934.GoNoGo2";;;;;;;;;;;;;;;;;;;;;;;;;;;;;;;;;;;"1249";"2014-09-29 15:40:38.669";"ST_correctStop";"1";"0";"FINISHED";"NONE";"success";"0";"1";"2014-09-29 15:40:37.419";"1";;;;;;;;;;;;;;;;;;;;;;;;;;;;;;;;;;;;;;;;;;;;;
"3cheers";"1995";;"Windows 7";"Rachel's Experiment (D.T.)";"1.0";"2";"1";"1";"2";"1";"1";"2014-09-29 15:36:37.286";"2014-09-29 15:49:34.754";"1";"0";"1";"56";"55";"module.training_block2.exec-1934.GoNoGo2";;;;;;;;;;;;;;;;;;;;;;;;;;;;;;;;;;;"1249";"2014-09-29 15:40:41.210";"NST_correctLoc";"15";"0";"FINISHED";"LEFT";"success";"602";"0";"2014-09-29 15:40:39.960";"2";;;;;;;;;;;;;;;;;;;;;;;;;;;;;;;;;;;;;;;;;;;;;
"3cheers";"1995";;"Windows 7";"Rachel's Experiment (D.T.)";"1.0";"2";"1";"1";"2";"1";"1";"2014-09-29 15:36:37.286";"2014-09-29 15:49:34.754";"1";"0";"1";"57";"56";"module.training_block2.exec-1934.GoNoGo2";;;;;;;;;;;;;;;;;;;;;;;;;;;;;;;;;;;"1249";"2014-09-29 15:40:43.750";"ST_correctStop";"26";"1";"FINISHED";"NONE";"success";"0";"1";"2014-09-29 15:40:42.499";"3";;;;;;;;;;;;;;;;;;;;;;;;;;;;;;;;;;;;;;;;;;;;;
"3cheers";"1995";;"Windows 7";"Rachel's Experiment (D.T.)";"1.0";"2";"1";"1";"2";"1";"1";"2014-09-29 15:36:37.286";"2014-09-29 15:49:34.754";"1";"0";"1";"58";"57";"module.training_block2.exec-1934.GoNoGo2";;;;;;;;;;;;;;;;;;;;;;;;;;;;;;;;;;;"1250";"2014-09-29 15:40:46.289";"NST_correctLoc";"10";"1";"FINISHED";"RIGHT";"success";"503";"0";"2014-09-29 15:40:45.039";"2";;;;;;;;;;;;;;;;;;;;;;;;;;;;;;;;;;;;;;;;;;;;;
"3cheers";"1995";;"Windows 7";"Rachel's Experiment (D.T.)";"1.0";"2";"1";"1";"2";"1";"1";"2014-09-29 15:36:37.286";"2014-09-29 15:49:34.754";"1";"0";"1";"59";"58";"module.training_block2.exec-1934.GoNoGo2";;;;;;;;;;;;;;;;;;;;;;;;;;;;;;;;;;;"1249";"2014-09-29 15:40:48.828";"ST_correctStop";"30";"1";"FINISHED";"NONE";"success";"0";"1";"2014-09-29 15:40:47.578";"3";;;;;;;;;;;;;;;;;;;;;;;;;;;;;;;;;;;;;;;;;;;;;
"3cheers";"1995";;"Windows 7";"Rachel's Experiment (D.T.)";"1.0";"2";"1";"1";"2";"1";"1";"2014-09-29 15:36:37.286";"2014-09-29 15:49:34.754";"1";"0";"1";"60";"59";"module.training_block2.exec-1934.GoNoGo2";;;;;;;;;;;;;;;;;;;;;;;;;;;;;;;;;;;"1249";"2014-09-29 15:40:51.366";"NST_correctLoc";"9";"0";"FINISHED";"LEFT";"success";"487";"0";"2014-09-29 15:40:50.116";"2";;;;;;;;;;;;;;;;;;;;;;;;;;;;;;;;;;;;;;;;;;;;;
"3cheers";"1995";;"Windows 7";"Rachel's Experiment (D.T.)";"1.0";"2";"1";"1";"2";"1";"1";"2014-09-29 15:36:37.286";"2014-09-29 15:49:34.754";"1";"0";"1";"61";"60";"module.training_block2.exec-1934.GoNoGo2";;;;;;;;;;;;;;;;;;;;;;;;;;;;;;;;;;;"1249";"2014-09-29 15:40:53.906";"ST_correctStop";"23";"0";"FINISHED";"NONE";"success";"0";"1";"2014-09-29 15:40:52.656";"3";;;;;;;;;;;;;;;;;;;;;;;;;;;;;;;;;;;;;;;;;;;;;
"3cheers";"1995";;"Windows 7";"Rachel's Experiment (D.T.)";"1.0";"2";"1";"1";"2";"1";"1";"2014-09-29 15:36:37.286";"2014-09-29 15:49:34.754";"1";"0";"1";"62";"61";"module.training_block2.exec-1934.GoNoGo2";;;;;;;;;;;;;;;;;;;;;;;;;;;;;;;;;;;"1250";"2014-09-29 15:40:56.445";"NST_correctLoc";"28";"0";"FINISHED";"LEFT";"success";"648";"0";"2014-09-29 15:40:55.195";"3";;;;;;;;;;;;;;;;;;;;;;;;;;;;;;;;;;;;;;;;;;;;;
"3cheers";"1995";;"Windows 7";"Rachel's Experiment (D.T.)";"1.0";"2";"1";"1";"2";"1";"1";"2014-09-29 15:36:37.286";"2014-09-29 15:49:34.754";"1";"0";"1";"63";"62";"module.training_block2.exec-1934.GoNoGo2";;;;;;;;;;;;;;;;;;;;;;;;;;;;;;;;;;;"1249";"2014-09-29 15:40:58.984";"ST_correctStop";"7";"0";"FINISHED";"NONE";"success";"0";"1";"2014-09-29 15:40:57.734";"1";;;;;;;;;;;;;;;;;;;;;;;;;;;;;;;;;;;;;;;;;;;;;
"3cheers";"1995";;"Windows 7";"Rachel's Experiment (D.T.)";"1.0";"2";"1";"1";"2";"1";"1";"2014-09-29 15:36:37.286";"2014-09-29 15:49:34.754";"1";"0";"1";"64";"63";"module.training_block2.exec-1934.GoNoGo2";;;;;;;;;;;;;;;;;;;;;;;;;;;;;;;;;;;"1249";"2014-09-29 15:41:01.523";"ST_correctStop";"8";"1";"FINISHED";"NONE";"success";"0";"1";"2014-09-29 15:41:00.272";"1";;;;;;;;;;;;;;;;;;;;;;;;;;;;;;;;;;;;;;;;;;;;;
"3cheers";"1995";;"Windows 7";"Rachel's Experiment (D.T.)";"1.0";"2";"1";"1";"2";"1";"1";"2014-09-29 15:36:37.286";"2014-09-29 15:49:34.754";"1";"0";"1";"65";"64";"module.training_block2.exec-1934.GoNoGo2";;;;;;;;;;;;;;;;;;;;;;;;;;;;;;;;;;;"1250";"2014-09-29 15:41:04.061";"NST_correctLoc";"31";"0";"FINISHED";"LEFT";"success";"651";"0";"2014-09-29 15:41:02.811";"3";;;;;;;;;;;;;;;;;;;;;;;;;;;;;;;;;;;;;;;;;;;;;
"3cheers";"1995";;"Windows 7";"Rachel's Experiment (D.T.)";"1.0";"2";"1";"1";"2";"1";"1";"2014-09-29 15:36:37.286";"2014-09-29 15:49:34.754";"1";"0";"1";"66";"65";"module.training_block2.exec-1934.GoNoGo2";;;;;;;;;;;;;;;;;;;;;;;;;;;;;;;;;;;"1249";"2014-09-29 15:41:06.599";"ST_correctStop";"35";"1";"FINISHED";"NONE";"success";"0";"1";"2014-09-29 15:41:05.349";"3";;;;;;;;;;;;;;;;;;;;;;;;;;;;;;;;;;;;;;;;;;;;;
"3cheers";"1995";;"Windows 7";"Rachel's Experiment (D.T.)";"1.0";"2";"1";"1";"2";"1";"1";"2014-09-29 15:36:37.286";"2014-09-29 15:49:34.754";"1";"0";"1";"67";"66";"module.training_block2.exec-1934.GoNoGo2";;;;;;;;;;;;;;;;;;;;;;;;;;;;;;;;;;;"1250";"2014-09-29 15:41:09.137";"ST_correctStop";"3";"1";"FINISHED";"NONE";"success";"0";"1";"2014-09-29 15:41:07.887";"1";;;;;;;;;;;;;;;;;;;;;;;;;;;;;;;;;;;;;;;;;;;;;
"3cheers";"1995";;"Windows 7";"Rachel's Experiment (D.T.)";"1.0";"2";"1";"1";"2";"1";"1";"2014-09-29 15:36:37.286";"2014-09-29 15:49:34.754";"1";"0";"1";"68";"67";"module.training_block2.exec-1934.GoNoGo2";;;;;;;;;;;;;;;;;;;;;;;;;;;;;;;;;;;"1249";"2014-09-29 15:41:11.676";"ST_correctStop";"4";"0";"FINISHED";"NONE";"success";"0";"1";"2014-09-29 15:41:10.426";"1";;;;;;;;;;;;;;;;;;;;;;;;;;;;;;;;;;;;;;;;;;;;;
"3cheers";"1995";;"Windows 7";"Rachel's Experiment (D.T.)";"1.0";"2";"1";"1";"2";"1";"1";"2014-09-29 15:36:37.286";"2014-09-29 15:49:34.754";"1";"0";"1";"69";"68";"module.training_block2.exec-1934.GoNoGo2";;;;;;;;;;;;;;;;;;;;;;;;;;;;;;;;;;;"1250";"2014-09-29 15:41:14.213";"NST_correctLoc";"18";"0";"FINISHED";"LEFT";"success";"582";"0";"2014-09-29 15:41:12.963";"3";;;;;;;;;;;;;;;;;;;;;;;;;;;;;;;;;;;;;;;;;;;;;
"3cheers";"1995";;"Windows 7";"Rachel's Experiment (D.T.)";"1.0";"2";"1";"1";"2";"1";"1";"2014-09-29 15:36:37.286";"2014-09-29 15:49:34.754";"1";"0";"1";"70";"69";"module.training_block2.exec-1934.GoNoGo2";;;;;;;;;;;;;;;;;;;;;;;;;;;;;;;;;;;"1250";"2014-09-29 15:41:16.758";"NST_correctLoc";"32";"0";"FINISHED";"LEFT";"success";"644";"0";"2014-09-29 15:41:15.508";"3";;;;;;;;;;;;;;;;;;;;;;;;;;;;;;;;;;;;;;;;;;;;;
"3cheers";"1995";;"Windows 7";"Rachel's Experiment (D.T.)";"1.0";"2";"1";"1";"2";"1";"1";"2014-09-29 15:36:37.286";"2014-09-29 15:49:34.754";"1";"0";"1";"71";"70";"module.training_block2.exec-1934.GoNoGo2";;;;;;;;;;;;;;;;;;;;;;;;;;;;;;;;;;;"1249";"2014-09-29 15:41:19.296";"ST_correctStop";"22";"1";"FINISHED";"NONE";"success";"0";"1";"2014-09-29 15:41:18.046";"3";;;;;;;;;;;;;;;;;;;;;;;;;;;;;;;;;;;;;;;;;;;;;
"3cheers";"1995";;"Windows 7";"Rachel's Experiment (D.T.)";"1.0";"2";"1";"1";"2";"1";"1";"2014-09-29 15:36:37.286";"2014-09-29 15:49:34.754";"1";"0";"1";"72";"71";"module.training_block2.exec-1934.GoNoGo2";;;;;;;;;;;;;;;;;;;;;;;;;;;;;;;;;;;"1250";"2014-09-29 15:41:21.831";"ST_correctStop";"6";"0";"FINISHED";"NONE";"success";"0";"1";"2014-09-29 15:41:20.581";"1";;;;;;;;;;;;;;;;;;;;;;;;;;;;;;;;;;;;;;;;;;;;;
"3cheers";"1995";;"Windows 7";"Rachel's Experiment (D.T.)";"1.0";"2";"1";"1";"2";"1";"1";"2014-09-29 15:36:37.286";"2014-09-29 15:49:34.754";"1";"0";"1";"73";"72";"module.training_block2.exec-1934.GoNoGo2";;;;;;;;;;;;;;;;;;;;;;;;;;;;;;;;;;;"1249";"2014-09-29 15:41:24.368";"NST_correctLoc";"20";"0";"FINISHED";"LEFT";"success";"480";"0";"2014-09-29 15:41:23.118";"3";;;;;;;;;;;;;;;;;;;;;;;;;;;;;;;;;;;;;;;;;;;;;
"3cheers";"1995";;"Windows 7";"Rachel's Experiment (D.T.)";"1.0";"2";"1";"1";"2";"1";"1";"2014-09-29 15:36:37.286";"2014-09-29 15:49:34.754";"1";"0";"1";"74";"73";"module.training_block2.exec-1934.GoNoGo2";;;;;;;;;;;;;;;;;;;;;;;;;;;;;;;;;;;"1250";"2014-09-29 15:41:26.903";"NST_correctLoc";"19";"1";"FINISHED";"RIGHT";"success";"691";"0";"2014-09-29 15:41:25.653";"3";;;;;;;;;;;;;;;;;;;;;;;;;;;;;;;;;;;;;;;;;;;;;
"3cheers";"1995";;"Windows 7";"Rachel's Experiment (D.T.)";"1.0";"2";"1";"1";"2";"1";"1";"2014-09-29 15:36:37.286";"2014-09-29 15:49:34.754";"1";"0";"1";"75";"74";"module.training_block2.exec-1934.GoNoGo2";;;;;;;;;;;;;;;;;;;;;;;;;;;;;;;;;;;"1251";"2014-09-29 15:41:29.437";"ST_correctStop";"33";"1";"FINISHED";"NONE";"success";"0";"1";"2014-09-29 15:41:28.187";"3";;;;;;;;;;;;;;;;;;;;;;;;;;;;;;;;;;;;;;;;;;;;;
"3cheers";"1995";;"Windows 7";"Rachel's Experiment (D.T.)";"1.0";"2";"1";"1";"2";"1";"1";"2014-09-29 15:36:37.286";"2014-09-29 15:49:34.754";"1";"0";"1";"76";"75";"module.training_block2.exec-1934.GoNoGo2";;;;;;;;;;;;;;;;;;;;;;;;;;;;;;;;;;;"1250";"2014-09-29 15:41:31.971";"NST_correctLoc";"27";"1";"FINISHED";"RIGHT";"success";"495";"0";"2014-09-29 15:41:30.721";"3";;;;;;;;;;;;;;;;;;;;;;;;;;;;;;;;;;;;;;;;;;;;;
"3cheers";"1995";;"Windows 7";"Rachel's Experiment (D.T.)";"1.0";"2";"1";"1";"2";"1";"1";"2014-09-29 15:36:37.286";"2014-09-29 15:49:34.754";"1";"0";"1";"77";"76";"module.training_block2.exec-1934.GoNoGo2";;;;;;;;;;;;;;;;;;;;;;;;;;;;;;;;;;;"1249";"2014-09-29 15:41:34.504";"NST_correctLoc";"16";"1";"FINISHED";"RIGHT";"success";"725";"0";"2014-09-29 15:41:33.254";"2";;;;;;;;;;;;;;;;;;;;;;;;;;;;;;;;;;;;;;;;;;;;;
"3cheers";"1995";;"Windows 7";"Rachel's Experiment (D.T.)";"1.0";"2";"1";"1";"2";"1";"1";"2014-09-29 15:36:37.286";"2014-09-29 15:49:34.754";"1";"0";"1";"78";"77";"module.training_block2.exec-1934.GoNoGo2";;;;;;;;;;;;;;;;;;;;;;;;;;;;;;;;;;;"1250";"2014-09-29 15:41:37.038";"NST_correctLoc";"13";"1";"FINISHED";"RIGHT";"success";"621";"0";"2014-09-29 15:41:35.788";"2";;;;;;;;;;;;;;;;;;;;;;;;;;;;;;;;;;;;;;;;;;;;;
"3cheers";"1995";;"Windows 7";"Rachel's Experiment (D.T.)";"1.0";"2";"1";"1";"2";"1";"1";"2014-09-29 15:36:37.286";"2014-09-29 15:49:34.754";"1";"0";"1";"79";"78";"module.training_block2.exec-1934.GoNoGo2";;;;;;;;;;;;;;;;;;;;;;;;;;;;;;;;;;;"1250";"2014-09-29 15:41:39.569";"ST_correctStop";"2";"1";"FINISHED";"NONE";"success";"0";"1";"2014-09-29 15:41:38.319";"1";;;;;;;;;;;;;;;;;;;;;;;;;;;;;;;;;;;;;;;;;;;;;
"3cheers";"1995";;"Windows 7";"Rachel's Experiment (D.T.)";"1.0";"2";"1";"1";"2";"1";"1";"2014-09-29 15:36:37.286";"2014-09-29 15:49:34.754";"1";"0";"1";"80";"79";"module.training_block2.exec-1934.GoNoGo2";;;;;;;;;;;;;;;;;;;;;;;;;;;;;;;;;;;"1250";"2014-09-29 15:41:42.104";"ST_correctStop";"5";"1";"FINISHED";"NONE";"success";"0";"1";"2014-09-29 15:41:40.854";"1";;;;;;;;;;;;;;;;;;;;;;;;;;;;;;;;;;;;;;;;;;;;;
"3cheers";"1995";;"Windows 7";"Rachel's Experiment (D.T.)";"1.0";"2";"1";"1";"2";"1";"1";"2014-09-29 15:36:37.286";"2014-09-29 15:49:34.754";"1";"0";"1";"81";"80";"module.training_block2.exec-1934.GoNoGo2";;;;;;;;;;;;;;;;;;;;;;;;;;;;;;;;;;;"1250";"2014-09-29 15:41:44.637";"NST_correctLoc";"11";"0";"FINISHED";"LEFT";"success";"463";"0";"2014-09-29 15:41:43.387";"2";;;;;;;;;;;;;;;;;;;;;;;;;;;;;;;;;;;;;;;;;;;;;
"3cheers";"1995";;"Windows 7";"Rachel's Experiment (D.T.)";"1.0";"2";"1";"1";"2";"1";"1";"2014-09-29 15:36:37.286";"2014-09-29 15:49:34.754";"1";"0";"1";"82";"81";"module.training_block2.exec-1934.GoNoGo2";;;;;;;;;;;;;;;;;;;;;;;;;;;;;;;;;;;"1250";"2014-09-29 15:41:47.168";"ST_correctStop";"0";"1";"FINISHED";"NONE";"success";"0";"1";"2014-09-29 15:41:45.918";"1";;;;;;;;;;;;;;;;;;;;;;;;;;;;;;;;;;;;;;;;;;;;;
"3cheers";"1995";;"Windows 7";"Rachel's Experiment (D.T.)";"1.0";"2";"1";"1";"2";"1";"1";"2014-09-29 15:36:37.286";"2014-09-29 15:49:34.754";"1";"0";"1";"83";"82";"module.training_block2.exec-1934.GoNoGo2";;;;;;;;;;;;;;;;;;;;;;;;;;;;;;;;;;;"1250";"2014-09-29 15:41:49.701";"ST_correctStop";"34";"0";"FINISHED";"NONE";"success";"0";"1";"2014-09-29 15:41:48.450";"3";;;;;;;;;;;;;;;;;;;;;;;;;;;;;;;;;;;;;;;;;;;;;
"3cheers";"1995";;"Windows 7";"Rachel's Experiment (D.T.)";"1.0";"2";"1";"1";"2";"1";"1";"2014-09-29 15:36:37.286";"2014-09-29 15:49:34.754";"1";"0";"1";"84";"83";"module.training_block2.exec-1934.GoNoGo2";;;;;;;;;;;;;;;;;;;;;;;;;;;;;;;;;;;"1249";"2014-09-29 15:41:52.234";"NST_correctLoc";"21";"1";"FINISHED";"RIGHT";"success";"716";"0";"2014-09-29 15:41:50.984";"3";;;;;;;;;;;;;;;;;;;;;;;;;;;;;;;;;;;;;;;;;;;;;
"3cheers";"1995";;"Windows 7";"Rachel's Experiment (D.T.)";"1.0";"2";"1";"1";"2";"1";"1";"2014-09-29 15:36:37.286";"2014-09-29 15:49:34.754";"1";"0";"1";"85";"84";"module.training_block2.exec-1934.GoNoGo2";;;;;;;;;;;;;;;;;;;;;;;;;;;;;;;;;;;"1250";"2014-09-29 15:41:54.768";"ST_correctStop";"29";"0";"FINISHED";"NONE";"success";"0";"1";"2014-09-29 15:41:53.518";"3";;;;;;;;;;;;;;;;;;;;;;;;;;;;;;;;;;;;;;;;;;;;;
"3cheers";"1995";;"Windows 7";"Rachel's Experiment (D.T.)";"1.0";"2";"1";"1";"2";"1";"1";"2014-09-29 15:36:37.286";"2014-09-29 15:49:34.754";"1";"0";"1";"86";"85";"module.training_block2.exec-1934.GoNoGo2";;;;;;;;;;;;;;;;;;;;;;;;;;;;;;;;;;;"1249";"2014-09-29 15:41:57.301";"NST_correctLoc";"12";"0";"FINISHED";"LEFT";"success";"555";"0";"2014-09-29 15:41:56.051";"2";;;;;;;;;;;;;;;;;;;;;;;;;;;;;;;;;;;;;;;;;;;;;
"3cheers";"1995";;"Windows 7";"Rachel's Experiment (D.T.)";"1.0";"2";"1";"1";"2";"1";"1";"2014-09-29 15:36:37.286";"2014-09-29 15:49:34.754";"1";"0";"1";"87";"86";"module.training_block2.exec-1934.GoNoGo2";;;;;;;;;;;;;;;;;;;;;;;;;;;;;;;;;;;"1250";"2014-09-29 15:41:59.833";"NST_correctLoc";"25";"1";"FINISHED";"RIGHT";"success";"593";"0";"2014-09-29 15:41:58.583";"3";;;;;;;;;;;;;;;;;;;;;;;;;;;;;;;;;;;;;;;;;;;;;
"3cheers";"1995";;"Windows 7";"Rachel's Experiment (D.T.)";"1.0";"2";"1";"1";"2";"1";"1";"2014-09-29 15:36:37.286";"2014-09-29 15:49:34.754";"1";"0";"1";"88";"87";"module.training_block3.exec-3066.GoNoGo3";;;;;;;;;;;;;;;;;;;;;;;;;;;;;;;;;;;;;;;;;;;;;;;"1249";"2014-09-29 15:42:10.673";"ST_correctStop";"29";"1";"FINISHED";"NONE";"success";"0";"1";"2014-09-29 15:42:09.422";"3";;;;;;;;;;;;;;;;;;;;;;;;;;;;;;;;;
"3cheers";"1995";;"Windows 7";"Rachel's Experiment (D.T.)";"1.0";"2";"1";"1";"2";"1";"1";"2014-09-29 15:36:37.286";"2014-09-29 15:49:34.754";"1";"0";"1";"89";"88";"module.training_block3.exec-3066.GoNoGo3";;;;;;;;;;;;;;;;;;;;;;;;;;;;;;;;;;;;;;;;;;;;;;;"1249";"2014-09-29 15:42:13.247";"ST_correctStop";"21";"1";"FINISHED";"NONE";"success";"0";"1";"2014-09-29 15:42:11.997";"3";;;;;;;;;;;;;;;;;;;;;;;;;;;;;;;;;
"3cheers";"1995";;"Windows 7";"Rachel's Experiment (D.T.)";"1.0";"2";"1";"1";"2";"1";"1";"2014-09-29 15:36:37.286";"2014-09-29 15:49:34.754";"1";"0";"1";"90";"89";"module.training_block3.exec-3066.GoNoGo3";;;;;;;;;;;;;;;;;;;;;;;;;;;;;;;;;;;;;;;;;;;;;;;"1250";"2014-09-29 15:42:15.779";"ST_correctStop";"24";"1";"FINISHED";"NONE";"success";"0";"1";"2014-09-29 15:42:14.529";"3";;;;;;;;;;;;;;;;;;;;;;;;;;;;;;;;;
"3cheers";"1995";;"Windows 7";"Rachel's Experiment (D.T.)";"1.0";"2";"1";"1";"2";"1";"1";"2014-09-29 15:36:37.286";"2014-09-29 15:49:34.754";"1";"0";"1";"91";"90";"module.training_block3.exec-3066.GoNoGo3";;;;;;;;;;;;;;;;;;;;;;;;;;;;;;;;;;;;;;;;;;;;;;;"1249";"2014-09-29 15:42:18.310";"NST_correctLoc";"32";"0";"FINISHED";"LEFT";"success";"450";"0";"2014-09-29 15:42:17.060";"3";;;;;;;;;;;;;;;;;;;;;;;;;;;;;;;;;
"3cheers";"1995";;"Windows 7";"Rachel's Experiment (D.T.)";"1.0";"2";"1";"1";"2";"1";"1";"2014-09-29 15:36:37.286";"2014-09-29 15:49:34.754";"1";"0";"1";"92";"91";"module.training_block3.exec-3066.GoNoGo3";;;;;;;;;;;;;;;;;;;;;;;;;;;;;;;;;;;;;;;;;;;;;;;"1250";"2014-09-29 15:42:20.841";"ST_correctStop";"5";"0";"FINISHED";"NONE";"success";"0";"1";"2014-09-29 15:42:19.591";"1";;;;;;;;;;;;;;;;;;;;;;;;;;;;;;;;;
"3cheers";"1995";;"Windows 7";"Rachel's Experiment (D.T.)";"1.0";"2";"1";"1";"2";"1";"1";"2014-09-29 15:36:37.286";"2014-09-29 15:49:34.754";"1";"0";"1";"93";"92";"module.training_block3.exec-3066.GoNoGo3";;;;;;;;;;;;;;;;;;;;;;;;;;;;;;;;;;;;;;;;;;;;;;;"1250";"2014-09-29 15:42:23.373";"NST_correctLoc";"28";"1";"FINISHED";"RIGHT";"success";"425";"0";"2014-09-29 15:42:22.123";"3";;;;;;;;;;;;;;;;;;;;;;;;;;;;;;;;;
"3cheers";"1995";;"Windows 7";"Rachel's Experiment (D.T.)";"1.0";"2";"1";"1";"2";"1";"1";"2014-09-29 15:36:37.286";"2014-09-29 15:49:34.754";"1";"0";"1";"94";"93";"module.training_block3.exec-3066.GoNoGo3";;;;;;;;;;;;;;;;;;;;;;;;;;;;;;;;;;;;;;;;;;;;;;;"1249";"2014-09-29 15:42:25.907";"NST_correctLoc";"35";"1";"FINISHED";"RIGHT";"success";"935";"0";"2014-09-29 15:42:24.657";"3";;;;;;;;;;;;;;;;;;;;;;;;;;;;;;;;;
"3cheers";"1995";;"Windows 7";"Rachel's Experiment (D.T.)";"1.0";"2";"1";"1";"2";"1";"1";"2014-09-29 15:36:37.286";"2014-09-29 15:49:34.754";"1";"0";"1";"95";"94";"module.training_block3.exec-3066.GoNoGo3";;;;;;;;;;;;;;;;;;;;;;;;;;;;;;;;;;;;;;;;;;;;;;;"1250";"2014-09-29 15:42:28.440";"NST_correctLoc";"9";"0";"FINISHED";"LEFT";"success";"540";"0";"2014-09-29 15:42:27.189";"2";;;;;;;;;;;;;;;;;;;;;;;;;;;;;;;;;
"3cheers";"1995";;"Windows 7";"Rachel's Experiment (D.T.)";"1.0";"2";"1";"1";"2";"1";"1";"2014-09-29 15:36:37.286";"2014-09-29 15:49:34.754";"1";"0";"1";"96";"95";"module.training_block3.exec-3066.GoNoGo3";;;;;;;;;;;;;;;;;;;;;;;;;;;;;;;;;;;;;;;;;;;;;;;"1250";"2014-09-29 15:42:30.971";"NST_correctLoc";"17";"1";"FINISHED";"RIGHT";"success";"511";"0";"2014-09-29 15:42:29.721";"2";;;;;;;;;;;;;;;;;;;;;;;;;;;;;;;;;
"3cheers";"1995";;"Windows 7";"Rachel's Experiment (D.T.)";"1.0";"2";"1";"1";"2";"1";"1";"2014-09-29 15:36:37.286";"2014-09-29 15:49:34.754";"1";"0";"1";"97";"96";"module.training_block3.exec-3066.GoNoGo3";;;;;;;;;;;;;;;;;;;;;;;;;;;;;;;;;;;;;;;;;;;;;;;"1250";"2014-09-29 15:42:33.504";"ST_correctStop";"26";"1";"FINISHED";"NONE";"success";"0";"1";"2014-09-29 15:42:32.254";"3";;;;;;;;;;;;;;;;;;;;;;;;;;;;;;;;;
"3cheers";"1995";;"Windows 7";"Rachel's Experiment (D.T.)";"1.0";"2";"1";"1";"2";"1";"1";"2014-09-29 15:36:37.286";"2014-09-29 15:49:34.754";"1";"0";"1";"98";"97";"module.training_block3.exec-3066.GoNoGo3";;;;;;;;;;;;;;;;;;;;;;;;;;;;;;;;;;;;;;;;;;;;;;;"1249";"2014-09-29 15:42:36.034";"ST_correctStop";"33";"0";"FINISHED";"NONE";"success";"0";"1";"2014-09-29 15:42:34.784";"3";;;;;;;;;;;;;;;;;;;;;;;;;;;;;;;;;
"3cheers";"1995";;"Windows 7";"Rachel's Experiment (D.T.)";"1.0";"2";"1";"1";"2";"1";"1";"2014-09-29 15:36:37.286";"2014-09-29 15:49:34.754";"1";"0";"1";"99";"98";"module.training_block3.exec-3066.GoNoGo3";;;;;;;;;;;;;;;;;;;;;;;;;;;;;;;;;;;;;;;;;;;;;;;"1250";"2014-09-29 15:42:38.566";"NST_correctLoc";"14";"0";"FINISHED";"LEFT";"success";"593";"0";"2014-09-29 15:42:37.316";"2";;;;;;;;;;;;;;;;;;;;;;;;;;;;;;;;;
"3cheers";"1995";;"Windows 7";"Rachel's Experiment (D.T.)";"1.0";"2";"1";"1";"2";"1";"1";"2014-09-29 15:36:37.286";"2014-09-29 15:49:34.754";"1";"0";"1";"100";"99";"module.training_block3.exec-3066.GoNoGo3";;;;;;;;;;;;;;;;;;;;;;;;;;;;;;;;;;;;;;;;;;;;;;;"1249";"2014-09-29 15:42:41.097";"NST_correctLoc";"12";"1";"FINISHED";"RIGHT";"success";"596";"0";"2014-09-29 15:42:39.847";"2";;;;;;;;;;;;;;;;;;;;;;;;;;;;;;;;;
"3cheers";"1995";;"Windows 7";"Rachel's Experiment (D.T.)";"1.0";"2";"1";"1";"2";"1";"1";"2014-09-29 15:36:37.286";"2014-09-29 15:49:34.754";"1";"0";"1";"101";"100";"module.training_block3.exec-3066.GoNoGo3";;;;;;;;;;;;;;;;;;;;;;;;;;;;;;;;;;;;;;;;;;;;;;;"1249";"2014-09-29 15:42:43.630";"NST_correctLoc";"11";"0";"FINISHED";"LEFT";"success";"633";"0";"2014-09-29 15:42:42.380";"2";;;;;;;;;;;;;;;;;;;;;;;;;;;;;;;;;
"3cheers";"1995";;"Windows 7";"Rachel's Experiment (D.T.)";"1.0";"2";"1";"1";"2";"1";"1";"2014-09-29 15:36:37.286";"2014-09-29 15:49:34.754";"1";"0";"1";"102";"101";"module.training_block3.exec-3066.GoNoGo3";;;;;;;;;;;;;;;;;;;;;;;;;;;;;;;;;;;;;;;;;;;;;;;"1250";"2014-09-29 15:42:46.161";"ST_correctStop";"34";"0";"FINISHED";"NONE";"success";"0";"1";"2014-09-29 15:42:44.910";"3";;;;;;;;;;;;;;;;;;;;;;;;;;;;;;;;;
"3cheers";"1995";;"Windows 7";"Rachel's Experiment (D.T.)";"1.0";"2";"1";"1";"2";"1";"1";"2014-09-29 15:36:37.286";"2014-09-29 15:49:34.754";"1";"0";"1";"103";"102";"module.training_block3.exec-3066.GoNoGo3";;;;;;;;;;;;;;;;;;;;;;;;;;;;;;;;;;;;;;;;;;;;;;;"1250";"2014-09-29 15:42:48.692";"ST_correctStop";"8";"0";"FINISHED";"NONE";"success";"0";"1";"2014-09-29 15:42:47.442";"1";;;;;;;;;;;;;;;;;;;;;;;;;;;;;;;;;
"3cheers";"1995";;"Windows 7";"Rachel's Experiment (D.T.)";"1.0";"2";"1";"1";"2";"1";"1";"2014-09-29 15:36:37.286";"2014-09-29 15:49:34.754";"1";"0";"1";"104";"103";"module.training_block3.exec-3066.GoNoGo3";;;;;;;;;;;;;;;;;;;;;;;;;;;;;;;;;;;;;;;;;;;;;;;"1250";"2014-09-29 15:42:51.224";"ST_correctStop";"27";"1";"FINISHED";"NONE";"success";"0";"1";"2014-09-29 15:42:49.974";"3";;;;;;;;;;;;;;;;;;;;;;;;;;;;;;;;;
"3cheers";"1995";;"Windows 7";"Rachel's Experiment (D.T.)";"1.0";"2";"1";"1";"2";"1";"1";"2014-09-29 15:36:37.286";"2014-09-29 15:49:34.754";"1";"0";"1";"105";"104";"module.training_block3.exec-3066.GoNoGo3";;;;;;;;;;;;;;;;;;;;;;;;;;;;;;;;;;;;;;;;;;;;;;;"1250";"2014-09-29 15:42:53.763";"ST_correctStop";"0";"1";"FINISHED";"NONE";"success";"0";"1";"2014-09-29 15:42:52.513";"1";;;;;;;;;;;;;;;;;;;;;;;;;;;;;;;;;
"3cheers";"1995";;"Windows 7";"Rachel's Experiment (D.T.)";"1.0";"2";"1";"1";"2";"1";"1";"2014-09-29 15:36:37.286";"2014-09-29 15:49:34.754";"1";"0";"1";"106";"105";"module.training_block3.exec-3066.GoNoGo3";;;;;;;;;;;;;;;;;;;;;;;;;;;;;;;;;;;;;;;;;;;;;;;"1250";"2014-09-29 15:42:56.295";"ST_correctStop";"1";"1";"FINISHED";"NONE";"success";"0";"1";"2014-09-29 15:42:55.045";"1";;;;;;;;;;;;;;;;;;;;;;;;;;;;;;;;;
"3cheers";"1995";;"Windows 7";"Rachel's Experiment (D.T.)";"1.0";"2";"1";"1";"2";"1";"1";"2014-09-29 15:36:37.286";"2014-09-29 15:49:34.754";"1";"0";"1";"107";"106";"module.training_block3.exec-3066.GoNoGo3";;;;;;;;;;;;;;;;;;;;;;;;;;;;;;;;;;;;;;;;;;;;;;;"1250";"2014-09-29 15:42:58.826";"ST_correctStop";"20";"1";"FINISHED";"NONE";"success";"0";"1";"2014-09-29 15:42:57.576";"3";;;;;;;;;;;;;;;;;;;;;;;;;;;;;;;;;
"3cheers";"1995";;"Windows 7";"Rachel's Experiment (D.T.)";"1.0";"2";"1";"1";"2";"1";"1";"2014-09-29 15:36:37.286";"2014-09-29 15:49:34.754";"1";"0";"1";"108";"107";"module.training_block3.exec-3066.GoNoGo3";;;;;;;;;;;;;;;;;;;;;;;;;;;;;;;;;;;;;;;;;;;;;;;"1249";"2014-09-29 15:43:01.357";"NST_correctLoc";"13";"1";"FINISHED";"RIGHT";"success";"451";"0";"2014-09-29 15:43:00.107";"2";;;;;;;;;;;;;;;;;;;;;;;;;;;;;;;;;
"3cheers";"1995";;"Windows 7";"Rachel's Experiment (D.T.)";"1.0";"2";"1";"1";"2";"1";"1";"2014-09-29 15:36:37.286";"2014-09-29 15:49:34.754";"1";"0";"1";"109";"108";"module.training_block3.exec-3066.GoNoGo3";;;;;;;;;;;;;;;;;;;;;;;;;;;;;;;;;;;;;;;;;;;;;;;"1249";"2014-09-29 15:43:03.890";"ST_correctStop";"2";"1";"FINISHED";"NONE";"success";"0";"1";"2014-09-29 15:43:02.639";"1";;;;;;;;;;;;;;;;;;;;;;;;;;;;;;;;;
"3cheers";"1995";;"Windows 7";"Rachel's Experiment (D.T.)";"1.0";"2";"1";"1";"2";"1";"1";"2014-09-29 15:36:37.286";"2014-09-29 15:49:34.754";"1";"0";"1";"110";"109";"module.training_block3.exec-3066.GoNoGo3";;;;;;;;;;;;;;;;;;;;;;;;;;;;;;;;;;;;;;;;;;;;;;;"1250";"2014-09-29 15:43:06.421";"NST_correctLoc";"16";"1";"FINISHED";"RIGHT";"success";"520";"0";"2014-09-29 15:43:05.171";"2";;;;;;;;;;;;;;;;;;;;;;;;;;;;;;;;;
"3cheers";"1995";;"Windows 7";"Rachel's Experiment (D.T.)";"1.0";"2";"1";"1";"2";"1";"1";"2014-09-29 15:36:37.286";"2014-09-29 15:49:34.754";"1";"0";"1";"111";"110";"module.training_block3.exec-3066.GoNoGo3";;;;;;;;;;;;;;;;;;;;;;;;;;;;;;;;;;;;;;;;;;;;;;;"1250";"2014-09-29 15:43:08.952";"NST_correctLoc";"25";"0";"FINISHED";"LEFT";"success";"580";"0";"2014-09-29 15:43:07.702";"3";;;;;;;;;;;;;;;;;;;;;;;;;;;;;;;;;
"3cheers";"1995";;"Windows 7";"Rachel's Experiment (D.T.)";"1.0";"2";"1";"1";"2";"1";"1";"2014-09-29 15:36:37.286";"2014-09-29 15:49:34.754";"1";"0";"1";"112";"111";"module.training_block3.exec-3066.GoNoGo3";;;;;;;;;;;;;;;;;;;;;;;;;;;;;;;;;;;;;;;;;;;;;;;"1251";"2014-09-29 15:43:11.483";"NST_correctLoc";"22";"1";"FINISHED";"RIGHT";"success";"427";"0";"2014-09-29 15:43:10.233";"3";;;;;;;;;;;;;;;;;;;;;;;;;;;;;;;;;
"3cheers";"1995";;"Windows 7";"Rachel's Experiment (D.T.)";"1.0";"2";"1";"1";"2";"1";"1";"2014-09-29 15:36:37.286";"2014-09-29 15:49:34.754";"1";"0";"1";"113";"112";"module.training_block3.exec-3066.GoNoGo3";;;;;;;;;;;;;;;;;;;;;;;;;;;;;;;;;;;;;;;;;;;;;;;"1250";"2014-09-29 15:43:14.015";"NST_correctLoc";"31";"1";"FINISHED";"RIGHT";"success";"705";"0";"2014-09-29 15:43:12.765";"3";;;;;;;;;;;;;;;;;;;;;;;;;;;;;;;;;
"3cheers";"1995";;"Windows 7";"Rachel's Experiment (D.T.)";"1.0";"2";"1";"1";"2";"1";"1";"2014-09-29 15:36:37.286";"2014-09-29 15:49:34.754";"1";"0";"1";"114";"113";"module.training_block3.exec-3066.GoNoGo3";;;;;;;;;;;;;;;;;;;;;;;;;;;;;;;;;;;;;;;;;;;;;;;"1249";"2014-09-29 15:43:16.545";"NST_correctLoc";"23";"0";"FINISHED";"LEFT";"success";"710";"0";"2014-09-29 15:43:15.295";"3";;;;;;;;;;;;;;;;;;;;;;;;;;;;;;;;;
"3cheers";"1995";;"Windows 7";"Rachel's Experiment (D.T.)";"1.0";"2";"1";"1";"2";"1";"1";"2014-09-29 15:36:37.286";"2014-09-29 15:49:34.754";"1";"0";"1";"115";"114";"module.training_block3.exec-3066.GoNoGo3";;;;;;;;;;;;;;;;;;;;;;;;;;;;;;;;;;;;;;;;;;;;;;;"1250";"2014-09-29 15:43:19.075";"ST_correctStop";"4";"0";"FINISHED";"NONE";"success";"0";"1";"2014-09-29 15:43:17.825";"1";;;;;;;;;;;;;;;;;;;;;;;;;;;;;;;;;
"3cheers";"1995";;"Windows 7";"Rachel's Experiment (D.T.)";"1.0";"2";"1";"1";"2";"1";"1";"2014-09-29 15:36:37.286";"2014-09-29 15:49:34.754";"1";"0";"1";"116";"115";"module.training_block3.exec-3066.GoNoGo3";;;;;;;;;;;;;;;;;;;;;;;;;;;;;;;;;;;;;;;;;;;;;;;"1250";"2014-09-29 15:43:21.606";"NST_correctLoc";"30";"1";"FINISHED";"RIGHT";"success";"463";"0";"2014-09-29 15:43:20.356";"3";;;;;;;;;;;;;;;;;;;;;;;;;;;;;;;;;
"3cheers";"1995";;"Windows 7";"Rachel's Experiment (D.T.)";"1.0";"2";"1";"1";"2";"1";"1";"2014-09-29 15:36:37.286";"2014-09-29 15:49:34.754";"1";"0";"1";"117";"116";"module.training_block3.exec-3066.GoNoGo3";;;;;;;;;;;;;;;;;;;;;;;;;;;;;;;;;;;;;;;;;;;;;;;"1249";"2014-09-29 15:43:24.134";"ST_correctStop";"18";"0";"FINISHED";"NONE";"success";"0";"1";"2014-09-29 15:43:22.884";"3";;;;;;;;;;;;;;;;;;;;;;;;;;;;;;;;;
"3cheers";"1995";;"Windows 7";"Rachel's Experiment (D.T.)";"1.0";"2";"1";"1";"2";"1";"1";"2014-09-29 15:36:37.286";"2014-09-29 15:49:34.754";"1";"0";"1";"118";"117";"module.training_block3.exec-3066.GoNoGo3";;;;;;;;;;;;;;;;;;;;;;;;;;;;;;;;;;;;;;;;;;;;;;;"1250";"2014-09-29 15:43:26.665";"ST_failedStop";"6";"1";"FINISHED";"RIGHT";"failure";"454";"1";"2014-09-29 15:43:25.415";"1";;;;;;;;;;;;;;;;;;;;;;;;;;;;;;;;;
"3cheers";"1995";;"Windows 7";"Rachel's Experiment (D.T.)";"1.0";"2";"1";"1";"2";"1";"1";"2014-09-29 15:36:37.286";"2014-09-29 15:49:34.754";"1";"0";"1";"119";"118";"module.training_block3.exec-3066.GoNoGo3";;;;;;;;;;;;;;;;;;;;;;;;;;;;;;;;;;;;;;;;;;;;;;;"1251";"2014-09-29 15:43:29.195";"NST_correctLoc";"15";"0";"FINISHED";"LEFT";"success";"513";"0";"2014-09-29 15:43:27.945";"2";;;;;;;;;;;;;;;;;;;;;;;;;;;;;;;;;
"3cheers";"1995";;"Windows 7";"Rachel's Experiment (D.T.)";"1.0";"2";"1";"1";"2";"1";"1";"2014-09-29 15:36:37.286";"2014-09-29 15:49:34.754";"1";"0";"1";"120";"119";"module.training_block3.exec-3066.GoNoGo3";;;;;;;;;;;;;;;;;;;;;;;;;;;;;;;;;;;;;;;;;;;;;;;"1250";"2014-09-29 15:43:31.726";"ST_correctStop";"7";"1";"FINISHED";"NONE";"success";"0";"1";"2014-09-29 15:43:30.475";"1";;;;;;;;;;;;;;;;;;;;;;;;;;;;;;;;;
"3cheers";"1995";;"Windows 7";"Rachel's Experiment (D.T.)";"1.0";"2";"1";"1";"2";"1";"1";"2014-09-29 15:36:37.286";"2014-09-29 15:49:34.754";"1";"0";"1";"121";"120";"module.training_block3.exec-3066.GoNoGo3";;;;;;;;;;;;;;;;;;;;;;;;;;;;;;;;;;;;;;;;;;;;;;;"1250";"2014-09-29 15:43:34.255";"ST_correctStop";"3";"0";"FINISHED";"NONE";"success";"0";"1";"2014-09-29 15:43:33.005";"1";;;;;;;;;;;;;;;;;;;;;;;;;;;;;;;;;
"3cheers";"1995";;"Windows 7";"Rachel's Experiment (D.T.)";"1.0";"2";"1";"1";"2";"1";"1";"2014-09-29 15:36:37.286";"2014-09-29 15:49:34.754";"1";"0";"1";"122";"121";"module.training_block3.exec-3066.GoNoGo3";;;;;;;;;;;;;;;;;;;;;;;;;;;;;;;;;;;;;;;;;;;;;;;"1250";"2014-09-29 15:43:36.786";"NST_correctLoc";"10";"1";"FINISHED";"RIGHT";"success";"502";"0";"2014-09-29 15:43:35.536";"2";;;;;;;;;;;;;;;;;;;;;;;;;;;;;;;;;
"3cheers";"1995";;"Windows 7";"Rachel's Experiment (D.T.)";"1.0";"2";"1";"1";"2";"1";"1";"2014-09-29 15:36:37.286";"2014-09-29 15:49:34.754";"1";"0";"1";"123";"122";"module.training_block3.exec-3066.GoNoGo3";;;;;;;;;;;;;;;;;;;;;;;;;;;;;;;;;;;;;;;;;;;;;;;"1249";"2014-09-29 15:43:39.324";"NST_correctLoc";"19";"1";"FINISHED";"RIGHT";"success";"575";"0";"2014-09-29 15:43:38.074";"3";;;;;;;;;;;;;;;;;;;;;;;;;;;;;;;;;
"3cheers";"1995";;"Windows 7";"Rachel's Experiment (D.T.)";"1.0";"2";"1";"1";"2";"1";"1";"2014-09-29 15:36:37.286";"2014-09-29 15:49:34.754";"1";"0";"1";"124";"123";"module.training_block4.exec-3782.GoNoGo4";;;;;;;;;;;;;;;;;;;;;;;;;;;;;;;;;;;;;;;;;;;;;;;;;;;;;;;;;;;"1250";"2014-09-29 15:43:49.901";"ST_correctStop";"18";"0";"FINISHED";"NONE";"success";"0";"1";"2014-09-29 15:43:48.651";"3";;;;;;;;;;;;;;;;;;;;;
"3cheers";"1995";;"Windows 7";"Rachel's Experiment (D.T.)";"1.0";"2";"1";"1";"2";"1";"1";"2014-09-29 15:36:37.286";"2014-09-29 15:49:34.754";"1";"0";"1";"125";"124";"module.training_block4.exec-3782.GoNoGo4";;;;;;;;;;;;;;;;;;;;;;;;;;;;;;;;;;;;;;;;;;;;;;;;;;;;;;;;;;;"1249";"2014-09-29 15:43:52.430";"NST_correctLoc";"30";"0";"FINISHED";"LEFT";"success";"449";"0";"2014-09-29 15:43:51.180";"3";;;;;;;;;;;;;;;;;;;;;
"3cheers";"1995";;"Windows 7";"Rachel's Experiment (D.T.)";"1.0";"2";"1";"1";"2";"1";"1";"2014-09-29 15:36:37.286";"2014-09-29 15:49:34.754";"1";"0";"1";"126";"125";"module.training_block4.exec-3782.GoNoGo4";;;;;;;;;;;;;;;;;;;;;;;;;;;;;;;;;;;;;;;;;;;;;;;;;;;;;;;;;;;"1250";"2014-09-29 15:43:54.958";"ST_failedStop";"29";"0";"FINISHED";"LEFT";"failure";"572";"1";"2014-09-29 15:43:53.708";"3";;;;;;;;;;;;;;;;;;;;;
"3cheers";"1995";;"Windows 7";"Rachel's Experiment (D.T.)";"1.0";"2";"1";"1";"2";"1";"1";"2014-09-29 15:36:37.286";"2014-09-29 15:49:34.754";"1";"0";"1";"127";"126";"module.training_block4.exec-3782.GoNoGo4";;;;;;;;;;;;;;;;;;;;;;;;;;;;;;;;;;;;;;;;;;;;;;;;;;;;;;;;;;;"1249";"2014-09-29 15:43:57.488";"NST_correctLoc";"13";"1";"FINISHED";"RIGHT";"success";"539";"0";"2014-09-29 15:43:56.238";"2";;;;;;;;;;;;;;;;;;;;;
"3cheers";"1995";;"Windows 7";"Rachel's Experiment (D.T.)";"1.0";"2";"1";"1";"2";"1";"1";"2014-09-29 15:36:37.286";"2014-09-29 15:49:34.754";"1";"0";"1";"128";"127";"module.training_block4.exec-3782.GoNoGo4";;;;;;;;;;;;;;;;;;;;;;;;;;;;;;;;;;;;;;;;;;;;;;;;;;;;;;;;;;;"1249";"2014-09-29 15:44:00.016";"ST_correctStop";"4";"1";"FINISHED";"NONE";"success";"0";"1";"2014-09-29 15:43:58.766";"1";;;;;;;;;;;;;;;;;;;;;
"3cheers";"1995";;"Windows 7";"Rachel's Experiment (D.T.)";"1.0";"2";"1";"1";"2";"1";"1";"2014-09-29 15:36:37.286";"2014-09-29 15:49:34.754";"1";"0";"1";"129";"128";"module.training_block4.exec-3782.GoNoGo4";;;;;;;;;;;;;;;;;;;;;;;;;;;;;;;;;;;;;;;;;;;;;;;;;;;;;;;;;;;"1250";"2014-09-29 15:44:02.545";"NST_correctLoc";"33";"1";"FINISHED";"RIGHT";"success";"553";"0";"2014-09-29 15:44:01.295";"3";;;;;;;;;;;;;;;;;;;;;
"3cheers";"1995";;"Windows 7";"Rachel's Experiment (D.T.)";"1.0";"2";"1";"1";"2";"1";"1";"2014-09-29 15:36:37.286";"2014-09-29 15:49:34.754";"1";"0";"1";"130";"129";"module.training_block4.exec-3782.GoNoGo4";;;;;;;;;;;;;;;;;;;;;;;;;;;;;;;;;;;;;;;;;;;;;;;;;;;;;;;;;;;"1249";"2014-09-29 15:44:05.074";"NST_correctLoc";"26";"1";"FINISHED";"RIGHT";"success";"628";"0";"2014-09-29 15:44:03.824";"3";;;;;;;;;;;;;;;;;;;;;
"3cheers";"1995";;"Windows 7";"Rachel's Experiment (D.T.)";"1.0";"2";"1";"1";"2";"1";"1";"2014-09-29 15:36:37.286";"2014-09-29 15:49:34.754";"1";"0";"1";"131";"130";"module.training_block4.exec-3782.GoNoGo4";;;;;;;;;;;;;;;;;;;;;;;;;;;;;;;;;;;;;;;;;;;;;;;;;;;;;;;;;;;"1249";"2014-09-29 15:44:07.601";"ST_correctStop";"5";"1";"FINISHED";"NONE";"success";"0";"1";"2014-09-29 15:44:06.351";"1";;;;;;;;;;;;;;;;;;;;;
"3cheers";"1995";;"Windows 7";"Rachel's Experiment (D.T.)";"1.0";"2";"1";"1";"2";"1";"1";"2014-09-29 15:36:37.286";"2014-09-29 15:49:34.754";"1";"0";"1";"132";"131";"module.training_block4.exec-3782.GoNoGo4";;;;;;;;;;;;;;;;;;;;;;;;;;;;;;;;;;;;;;;;;;;;;;;;;;;;;;;;;;;"1249";"2014-09-29 15:44:10.130";"ST_correctStop";"23";"1";"FINISHED";"NONE";"success";"0";"1";"2014-09-29 15:44:08.880";"3";;;;;;;;;;;;;;;;;;;;;
"3cheers";"1995";;"Windows 7";"Rachel's Experiment (D.T.)";"1.0";"2";"1";"1";"2";"1";"1";"2014-09-29 15:36:37.286";"2014-09-29 15:49:34.754";"1";"0";"1";"133";"132";"module.training_block4.exec-3782.GoNoGo4";;;;;;;;;;;;;;;;;;;;;;;;;;;;;;;;;;;;;;;;;;;;;;;;;;;;;;;;;;;"1250";"2014-09-29 15:44:12.658";"ST_correctStop";"7";"0";"FINISHED";"NONE";"success";"0";"1";"2014-09-29 15:44:11.408";"1";;;;;;;;;;;;;;;;;;;;;
"3cheers";"1995";;"Windows 7";"Rachel's Experiment (D.T.)";"1.0";"2";"1";"1";"2";"1";"1";"2014-09-29 15:36:37.286";"2014-09-29 15:49:34.754";"1";"0";"1";"134";"133";"module.training_block4.exec-3782.GoNoGo4";;;;;;;;;;;;;;;;;;;;;;;;;;;;;;;;;;;;;;;;;;;;;;;;;;;;;;;;;;;"1249";"2014-09-29 15:44:15.188";"NST_correctLoc";"32";"0";"FINISHED";"LEFT";"success";"464";"0";"2014-09-29 15:44:13.938";"3";;;;;;;;;;;;;;;;;;;;;
"3cheers";"1995";;"Windows 7";"Rachel's Experiment (D.T.)";"1.0";"2";"1";"1";"2";"1";"1";"2014-09-29 15:36:37.286";"2014-09-29 15:49:34.754";"1";"0";"1";"135";"134";"module.training_block4.exec-3782.GoNoGo4";;;;;;;;;;;;;;;;;;;;;;;;;;;;;;;;;;;;;;;;;;;;;;;;;;;;;;;;;;;"1249";"2014-09-29 15:44:17.718";"NST_correctLoc";"20";"0";"FINISHED";"LEFT";"success";"661";"0";"2014-09-29 15:44:16.468";"3";;;;;;;;;;;;;;;;;;;;;
"3cheers";"1995";;"Windows 7";"Rachel's Experiment (D.T.)";"1.0";"2";"1";"1";"2";"1";"1";"2014-09-29 15:36:37.286";"2014-09-29 15:49:34.754";"1";"0";"1";"136";"135";"module.training_block4.exec-3782.GoNoGo4";;;;;;;;;;;;;;;;;;;;;;;;;;;;;;;;;;;;;;;;;;;;;;;;;;;;;;;;;;;"1249";"2014-09-29 15:44:20.247";"ST_correctStop";"19";"0";"FINISHED";"NONE";"success";"0";"1";"2014-09-29 15:44:18.997";"3";;;;;;;;;;;;;;;;;;;;;
"3cheers";"1995";;"Windows 7";"Rachel's Experiment (D.T.)";"1.0";"2";"1";"1";"2";"1";"1";"2014-09-29 15:36:37.286";"2014-09-29 15:49:34.754";"1";"0";"1";"137";"136";"module.training_block4.exec-3782.GoNoGo4";;;;;;;;;;;;;;;;;;;;;;;;;;;;;;;;;;;;;;;;;;;;;;;;;;;;;;;;;;;"1249";"2014-09-29 15:44:22.775";"NST_correctLoc";"14";"0";"FINISHED";"LEFT";"success";"610";"0";"2014-09-29 15:44:21.525";"2";;;;;;;;;;;;;;;;;;;;;
"3cheers";"1995";;"Windows 7";"Rachel's Experiment (D.T.)";"1.0";"2";"1";"1";"2";"1";"1";"2014-09-29 15:36:37.286";"2014-09-29 15:49:34.754";"1";"0";"1";"138";"137";"module.training_block4.exec-3782.GoNoGo4";;;;;;;;;;;;;;;;;;;;;;;;;;;;;;;;;;;;;;;;;;;;;;;;;;;;;;;;;;;"1249";"2014-09-29 15:44:25.303";"NST_correctLoc";"17";"0";"FINISHED";"LEFT";"success";"754";"0";"2014-09-29 15:44:24.053";"2";;;;;;;;;;;;;;;;;;;;;
"3cheers";"1995";;"Windows 7";"Rachel's Experiment (D.T.)";"1.0";"2";"1";"1";"2";"1";"1";"2014-09-29 15:36:37.286";"2014-09-29 15:49:34.754";"1";"0";"1";"139";"138";"module.training_block4.exec-3782.GoNoGo4";;;;;;;;;;;;;;;;;;;;;;;;;;;;;;;;;;;;;;;;;;;;;;;;;;;;;;;;;;;"1249";"2014-09-29 15:44:27.831";"ST_correctStop";"8";"1";"FINISHED";"NONE";"success";"0";"1";"2014-09-29 15:44:26.581";"1";;;;;;;;;;;;;;;;;;;;;
"3cheers";"1995";;"Windows 7";"Rachel's Experiment (D.T.)";"1.0";"2";"1";"1";"2";"1";"1";"2014-09-29 15:36:37.286";"2014-09-29 15:49:34.754";"1";"0";"1";"140";"139";"module.training_block4.exec-3782.GoNoGo4";;;;;;;;;;;;;;;;;;;;;;;;;;;;;;;;;;;;;;;;;;;;;;;;;;;;;;;;;;;"1249";"2014-09-29 15:44:30.370";"NST_correctLoc";"15";"1";"FINISHED";"RIGHT";"success";"549";"0";"2014-09-29 15:44:29.119";"2";;;;;;;;;;;;;;;;;;;;;
"3cheers";"1995";;"Windows 7";"Rachel's Experiment (D.T.)";"1.0";"2";"1";"1";"2";"1";"1";"2014-09-29 15:36:37.286";"2014-09-29 15:49:34.754";"1";"0";"1";"141";"140";"module.training_block4.exec-3782.GoNoGo4";;;;;;;;;;;;;;;;;;;;;;;;;;;;;;;;;;;;;;;;;;;;;;;;;;;;;;;;;;;"1252";"2014-09-29 15:44:32.899";"NST_correctLoc";"16";"0";"FINISHED";"LEFT";"success";"598";"0";"2014-09-29 15:44:31.649";"2";;;;;;;;;;;;;;;;;;;;;
"3cheers";"1995";;"Windows 7";"Rachel's Experiment (D.T.)";"1.0";"2";"1";"1";"2";"1";"1";"2014-09-29 15:36:37.286";"2014-09-29 15:49:34.754";"1";"0";"1";"142";"141";"module.training_block4.exec-3782.GoNoGo4";;;;;;;;;;;;;;;;;;;;;;;;;;;;;;;;;;;;;;;;;;;;;;;;;;;;;;;;;;;"1249";"2014-09-29 15:44:35.427";"ST_correctStop";"6";"1";"FINISHED";"NONE";"success";"0";"1";"2014-09-29 15:44:34.177";"1";;;;;;;;;;;;;;;;;;;;;
"3cheers";"1995";;"Windows 7";"Rachel's Experiment (D.T.)";"1.0";"2";"1";"1";"2";"1";"1";"2014-09-29 15:36:37.286";"2014-09-29 15:49:34.754";"1";"0";"1";"143";"142";"module.training_block4.exec-3782.GoNoGo4";;;;;;;;;;;;;;;;;;;;;;;;;;;;;;;;;;;;;;;;;;;;;;;;;;;;;;;;;;;"1249";"2014-09-29 15:44:37.954";"NST_correctLoc";"12";"1";"FINISHED";"RIGHT";"success";"522";"0";"2014-09-29 15:44:36.704";"2";;;;;;;;;;;;;;;;;;;;;
"3cheers";"1995";;"Windows 7";"Rachel's Experiment (D.T.)";"1.0";"2";"1";"1";"2";"1";"1";"2014-09-29 15:36:37.286";"2014-09-29 15:49:34.754";"1";"0";"1";"144";"143";"module.training_block4.exec-3782.GoNoGo4";;;;;;;;;;;;;;;;;;;;;;;;;;;;;;;;;;;;;;;;;;;;;;;;;;;;;;;;;;;"1249";"2014-09-29 15:44:40.482";"ST_correctStop";"34";"0";"FINISHED";"NONE";"success";"0";"1";"2014-09-29 15:44:39.232";"3";;;;;;;;;;;;;;;;;;;;;
"3cheers";"1995";;"Windows 7";"Rachel's Experiment (D.T.)";"1.0";"2";"1";"1";"2";"1";"1";"2014-09-29 15:36:37.286";"2014-09-29 15:49:34.754";"1";"0";"1";"145";"144";"module.training_block4.exec-3782.GoNoGo4";;;;;;;;;;;;;;;;;;;;;;;;;;;;;;;;;;;;;;;;;;;;;;;;;;;;;;;;;;;"1249";"2014-09-29 15:44:43.009";"NST_correctLoc";"27";"1";"FINISHED";"RIGHT";"success";"788";"0";"2014-09-29 15:44:41.759";"3";;;;;;;;;;;;;;;;;;;;;
"3cheers";"1995";;"Windows 7";"Rachel's Experiment (D.T.)";"1.0";"2";"1";"1";"2";"1";"1";"2014-09-29 15:36:37.286";"2014-09-29 15:49:34.754";"1";"0";"1";"146";"145";"module.training_block4.exec-3782.GoNoGo4";;;;;;;;;;;;;;;;;;;;;;;;;;;;;;;;;;;;;;;;;;;;;;;;;;;;;;;;;;;"1249";"2014-09-29 15:44:45.536";"ST_correctStop";"25";"1";"FINISHED";"NONE";"success";"0";"1";"2014-09-29 15:44:44.286";"3";;;;;;;;;;;;;;;;;;;;;
"3cheers";"1995";;"Windows 7";"Rachel's Experiment (D.T.)";"1.0";"2";"1";"1";"2";"1";"1";"2014-09-29 15:36:37.286";"2014-09-29 15:49:34.754";"1";"0";"1";"147";"146";"module.training_block4.exec-3782.GoNoGo4";;;;;;;;;;;;;;;;;;;;;;;;;;;;;;;;;;;;;;;;;;;;;;;;;;;;;;;;;;;"1250";"2014-09-29 15:44:48.068";"ST_correctStop";"35";"0";"FINISHED";"NONE";"success";"0";"1";"2014-09-29 15:44:46.817";"3";;;;;;;;;;;;;;;;;;;;;
"3cheers";"1995";;"Windows 7";"Rachel's Experiment (D.T.)";"1.0";"2";"1";"1";"2";"1";"1";"2014-09-29 15:36:37.286";"2014-09-29 15:49:34.754";"1";"0";"1";"148";"147";"module.training_block4.exec-3782.GoNoGo4";;;;;;;;;;;;;;;;;;;;;;;;;;;;;;;;;;;;;;;;;;;;;;;;;;;;;;;;;;;"1250";"2014-09-29 15:44:50.597";"NST_correctLoc";"21";"0";"FINISHED";"LEFT";"success";"631";"0";"2014-09-29 15:44:49.347";"3";;;;;;;;;;;;;;;;;;;;;
"3cheers";"1995";;"Windows 7";"Rachel's Experiment (D.T.)";"1.0";"2";"1";"1";"2";"1";"1";"2014-09-29 15:36:37.286";"2014-09-29 15:49:34.754";"1";"0";"1";"149";"148";"module.training_block4.exec-3782.GoNoGo4";;;;;;;;;;;;;;;;;;;;;;;;;;;;;;;;;;;;;;;;;;;;;;;;;;;;;;;;;;;"1249";"2014-09-29 15:44:53.124";"ST_correctStop";"2";"1";"FINISHED";"NONE";"success";"0";"1";"2014-09-29 15:44:51.874";"1";;;;;;;;;;;;;;;;;;;;;
"3cheers";"1995";;"Windows 7";"Rachel's Experiment (D.T.)";"1.0";"2";"1";"1";"2";"1";"1";"2014-09-29 15:36:37.286";"2014-09-29 15:49:34.754";"1";"0";"1";"150";"149";"module.training_block4.exec-3782.GoNoGo4";;;;;;;;;;;;;;;;;;;;;;;;;;;;;;;;;;;;;;;;;;;;;;;;;;;;;;;;;;;"1249";"2014-09-29 15:44:55.652";"NST_correctLoc";"10";"0";"FINISHED";"LEFT";"success";"634";"0";"2014-09-29 15:44:54.402";"2";;;;;;;;;;;;;;;;;;;;;
"3cheers";"1995";;"Windows 7";"Rachel's Experiment (D.T.)";"1.0";"2";"1";"1";"2";"1";"1";"2014-09-29 15:36:37.286";"2014-09-29 15:49:34.754";"1";"0";"1";"151";"150";"module.training_block4.exec-3782.GoNoGo4";;;;;;;;;;;;;;;;;;;;;;;;;;;;;;;;;;;;;;;;;;;;;;;;;;;;;;;;;;;"1249";"2014-09-29 15:44:58.178";"ST_correctStop";"0";"0";"FINISHED";"NONE";"success";"0";"1";"2014-09-29 15:44:56.928";"1";;;;;;;;;;;;;;;;;;;;;
"3cheers";"1995";;"Windows 7";"Rachel's Experiment (D.T.)";"1.0";"2";"1";"1";"2";"1";"1";"2014-09-29 15:36:37.286";"2014-09-29 15:49:34.754";"1";"0";"1";"152";"151";"module.training_block4.exec-3782.GoNoGo4";;;;;;;;;;;;;;;;;;;;;;;;;;;;;;;;;;;;;;;;;;;;;;;;;;;;;;;;;;;"1250";"2014-09-29 15:45:00.707";"NST_correctLoc";"11";"0";"FINISHED";"LEFT";"success";"609";"0";"2014-09-29 15:44:59.457";"2";;;;;;;;;;;;;;;;;;;;;
"3cheers";"1995";;"Windows 7";"Rachel's Experiment (D.T.)";"1.0";"2";"1";"1";"2";"1";"1";"2014-09-29 15:36:37.286";"2014-09-29 15:49:34.754";"1";"0";"1";"153";"152";"module.training_block4.exec-3782.GoNoGo4";;;;;;;;;;;;;;;;;;;;;;;;;;;;;;;;;;;;;;;;;;;;;;;;;;;;;;;;;;;"1249";"2014-09-29 15:45:03.236";"ST_correctStop";"22";"0";"FINISHED";"NONE";"success";"0";"1";"2014-09-29 15:45:01.986";"3";;;;;;;;;;;;;;;;;;;;;
"3cheers";"1995";;"Windows 7";"Rachel's Experiment (D.T.)";"1.0";"2";"1";"1";"2";"1";"1";"2014-09-29 15:36:37.286";"2014-09-29 15:49:34.754";"1";"0";"1";"154";"153";"module.training_block4.exec-3782.GoNoGo4";;;;;;;;;;;;;;;;;;;;;;;;;;;;;;;;;;;;;;;;;;;;;;;;;;;;;;;;;;;"1250";"2014-09-29 15:45:05.766";"NST_correctLoc";"31";"1";"FINISHED";"RIGHT";"success";"549";"0";"2014-09-29 15:45:04.515";"3";;;;;;;;;;;;;;;;;;;;;
"3cheers";"1995";;"Windows 7";"Rachel's Experiment (D.T.)";"1.0";"2";"1";"1";"2";"1";"1";"2014-09-29 15:36:37.286";"2014-09-29 15:49:34.754";"1";"0";"1";"155";"154";"module.training_block4.exec-3782.GoNoGo4";;;;;;;;;;;;;;;;;;;;;;;;;;;;;;;;;;;;;;;;;;;;;;;;;;;;;;;;;;;"1249";"2014-09-29 15:45:08.293";"ST_correctStop";"24";"0";"FINISHED";"NONE";"success";"0";"1";"2014-09-29 15:45:07.043";"3";;;;;;;;;;;;;;;;;;;;;
"3cheers";"1995";;"Windows 7";"Rachel's Experiment (D.T.)";"1.0";"2";"1";"1";"2";"1";"1";"2014-09-29 15:36:37.286";"2014-09-29 15:49:34.754";"1";"0";"1";"156";"155";"module.training_block4.exec-3782.GoNoGo4";;;;;;;;;;;;;;;;;;;;;;;;;;;;;;;;;;;;;;;;;;;;;;;;;;;;;;;;;;;"1249";"2014-09-29 15:45:10.821";"NST_correctLoc";"28";"1";"FINISHED";"RIGHT";"success";"661";"0";"2014-09-29 15:45:09.571";"3";;;;;;;;;;;;;;;;;;;;;
"3cheers";"1995";;"Windows 7";"Rachel's Experiment (D.T.)";"1.0";"2";"1";"1";"2";"1";"1";"2014-09-29 15:36:37.286";"2014-09-29 15:49:34.754";"1";"0";"1";"157";"156";"module.training_block4.exec-3782.GoNoGo4";;;;;;;;;;;;;;;;;;;;;;;;;;;;;;;;;;;;;;;;;;;;;;;;;;;;;;;;;;;"1250";"2014-09-29 15:45:13.351";"ST_correctStop";"3";"1";"FINISHED";"NONE";"success";"0";"1";"2014-09-29 15:45:12.101";"1";;;;;;;;;;;;;;;;;;;;;
"3cheers";"1995";;"Windows 7";"Rachel's Experiment (D.T.)";"1.0";"2";"1";"1";"2";"1";"1";"2014-09-29 15:36:37.286";"2014-09-29 15:49:34.754";"1";"0";"1";"158";"157";"module.training_block4.exec-3782.GoNoGo4";;;;;;;;;;;;;;;;;;;;;;;;;;;;;;;;;;;;;;;;;;;;;;;;;;;;;;;;;;;"1249";"2014-09-29 15:45:15.889";"ST_correctStop";"1";"1";"FINISHED";"NONE";"success";"0";"1";"2014-09-29 15:45:14.639";"1";;;;;;;;;;;;;;;;;;;;;
"3cheers";"1995";;"Windows 7";"Rachel's Experiment (D.T.)";"1.0";"2";"1";"1";"2";"1";"1";"2014-09-29 15:36:37.286";"2014-09-29 15:49:34.754";"1";"0";"1";"159";"158";"module.training_block4.exec-3782.GoNoGo4";;;;;;;;;;;;;;;;;;;;;;;;;;;;;;;;;;;;;;;;;;;;;;;;;;;;;;;;;;;"1249";"2014-09-29 15:45:18.419";"NST_correctLoc";"9";"1";"FINISHED";"RIGHT";"success";"514";"0";"2014-09-29 15:45:17.169";"2";;;;;;;;;;;;;;;;;;;;;
"3cheers";"1995";;"Windows 7";"Rachel's Experiment (D.T.)";"1.0";"2";"1";"1";"2";"1";"1";"2014-09-29 15:36:37.286";"2014-09-29 15:49:34.754";"1";"0";"1";"160";"159";"module.devaluation_practice.exec-7084.devalPractice";;;;;;;;;;;;"16655";"2014-09-29 15:46:01.871";"0";"6";"4";"6";"6781";"2097";"4471";"2014-09-29 15:45:45.216";;;;;;;;;;;;;;;;;;;;;;;;;;;;;;;;;;;;;;;;;;;;;;;;;;;;;;;;;;;;;;;;;;;;;;
"3cheers";"1995";;"Windows 7";"Rachel's Experiment (D.T.)";"1.0";"2";"1";"1";"2";"1";"1";"2014-09-29 15:36:37.286";"2014-09-29 15:49:34.754";"1";"0";"1";"161";"160";"module.devaluation_practice.exec-7084.devalPractice";;;;;;;;;;;;"9036";"2014-09-29 15:46:10.942";"1";"4";"5";"6";"3264";"1639";"1108";"2014-09-29 15:46:01.907";;;;;;;;;;;;;;;;;;;;;;;;;;;;;;;;;;;;;;;;;;;;;;;;;;;;;;;;;;;;;;;;;;;;;;
"3cheers";"1995";;"Windows 7";"Rachel's Experiment (D.T.)";"1.0";"2";"1";"1";"2";"1";"1";"2014-09-29 15:36:37.286";"2014-09-29 15:49:34.754";"1";"0";"1";"162";"161";"module.devaluation_practice.exec-7084.devalPractice";;;;;;;;;;;;"8870";"2014-09-29 15:46:19.849";"2";"2";"6";"7";"1642";"2339";"1874";"2014-09-29 15:46:10.977";;;;;;;;;;;;;;;;;;;;;;;;;;;;;;;;;;;;;;;;;;;;;;;;;;;;;;;;;;;;;;;;;;;;;;
"3cheers";"1995";;"Windows 7";"Rachel's Experiment (D.T.)";"1.0";"2";"1";"1";"2";"1";"1";"2014-09-29 15:36:37.286";"2014-09-29 15:49:34.754";"1";"0";"1";"163";"162";"module.devaluation_practice.exec-7084.devalPractice";;;;;;;;;;;;"6936";"2014-09-29 15:46:26.818";"3";"7";"6";"7";"1312";"1387";"1224";"2014-09-29 15:46:19.882";;;;;;;;;;;;;;;;;;;;;;;;;;;;;;;;;;;;;;;;;;;;;;;;;;;;;;;;;;;;;;;;;;;;;;
"3cheers";"1995";;"Windows 7";"Rachel's Experiment (D.T.)";"1.0";"2";"1";"1";"2";"1";"1";"2014-09-29 15:36:37.286";"2014-09-29 15:49:34.754";"1";"0";"1";"164";"163";"module.devaluation_block1.exec-3635.deval1";"6714";"2014-09-29 15:46:38.032";"2";"3";"3";"4";"1364";"1366";"961";"2014-09-29 15:46:31.316";"1";;;;;;;;;;;;;;;;;;;;;;;;;;;;;;;;;;;;;;;;;;;;;;;;;;;;;;;;;;;;;;;;;;;;;;;;;;;;;;;;
"3cheers";"1995";;"Windows 7";"Rachel's Experiment (D.T.)";"1.0";"2";"1";"1";"2";"1";"1";"2014-09-29 15:36:37.286";"2014-09-29 15:49:34.754";"1";"0";"1";"165";"164";"module.devaluation_block1.exec-3635.deval1";"6792";"2014-09-29 15:46:44.859";"17";"4";"3";"6";"876";"1203";"1694";"2014-09-29 15:46:38.067";"2";;;;;;;;;;;;;;;;;;;;;;;;;;;;;;;;;;;;;;;;;;;;;;;;;;;;;;;;;;;;;;;;;;;;;;;;;;;;;;;;
"3cheers";"1995";;"Windows 7";"Rachel's Experiment (D.T.)";"1.0";"2";"1";"1";"2";"1";"1";"2014-09-29 15:36:37.286";"2014-09-29 15:49:34.754";"1";"0";"1";"166";"165";"module.devaluation_block1.exec-3635.deval1";"6680";"2014-09-29 15:46:51.585";"26";"8";"6";"8";"1390";"781";"1491";"2014-09-29 15:46:44.905";"3";;;;;;;;;;;;;;;;;;;;;;;;;;;;;;;;;;;;;;;;;;;;;;;;;;;;;;;;;;;;;;;;;;;;;;;;;;;;;;;;
"3cheers";"1995";;"Windows 7";"Rachel's Experiment (D.T.)";"1.0";"2";"1";"1";"2";"1";"1";"2014-09-29 15:36:37.286";"2014-09-29 15:49:34.754";"1";"0";"1";"167";"166";"module.devaluation_block1.exec-3635.deval1";"5949";"2014-09-29 15:46:57.570";"4";"6";"4";"7";"1147";"895";"891";"2014-09-29 15:46:51.620";"1";;;;;;;;;;;;;;;;;;;;;;;;;;;;;;;;;;;;;;;;;;;;;;;;;;;;;;;;;;;;;;;;;;;;;;;;;;;;;;;;
"3cheers";"1995";;"Windows 7";"Rachel's Experiment (D.T.)";"1.0";"2";"1";"1";"2";"1";"1";"2014-09-29 15:36:37.286";"2014-09-29 15:49:34.754";"1";"0";"1";"168";"167";"module.devaluation_block1.exec-3635.deval1";"8970";"2014-09-29 15:47:06.576";"16";"3";"4";"5";"1638";"981";"3334";"2014-09-29 15:46:57.606";"2";;;;;;;;;;;;;;;;;;;;;;;;;;;;;;;;;;;;;;;;;;;;;;;;;;;;;;;;;;;;;;;;;;;;;;;;;;;;;;;;
"3cheers";"1995";;"Windows 7";"Rachel's Experiment (D.T.)";"1.0";"2";"1";"1";"2";"1";"1";"2014-09-29 15:36:37.286";"2014-09-29 15:49:34.754";"1";"0";"1";"169";"168";"module.devaluation_block1.exec-3635.deval1";"7286";"2014-09-29 15:47:13.899";"9";"3";"9";"8";"1731";"1407";"1132";"2014-09-29 15:47:06.611";"2";;;;;;;;;;;;;;;;;;;;;;;;;;;;;;;;;;;;;;;;;;;;;;;;;;;;;;;;;;;;;;;;;;;;;;;;;;;;;;;;
"3cheers";"1995";;"Windows 7";"Rachel's Experiment (D.T.)";"1.0";"2";"1";"1";"2";"1";"1";"2014-09-29 15:36:37.286";"2014-09-29 15:49:34.754";"1";"0";"1";"170";"169";"module.devaluation_block1.exec-3635.deval1";"5541";"2014-09-29 15:47:19.474";"24";"6";"6";"7";"662";"1002";"859";"2014-09-29 15:47:13.933";"3";;;;;;;;;;;;;;;;;;;;;;;;;;;;;;;;;;;;;;;;;;;;;;;;;;;;;;;;;;;;;;;;;;;;;;;;;;;;;;;;
"3cheers";"1995";;"Windows 7";"Rachel's Experiment (D.T.)";"1.0";"2";"1";"1";"2";"1";"1";"2014-09-29 15:36:37.286";"2014-09-29 15:49:34.754";"1";"0";"1";"171";"170";"module.devaluation_block1.exec-3635.deval1";"8628";"2014-09-29 15:47:28.139";"23";"8";"6";"7";"1090";"998";"3523";"2014-09-29 15:47:19.510";"3";;;;;;;;;;;;;;;;;;;;;;;;;;;;;;;;;;;;;;;;;;;;;;;;;;;;;;;;;;;;;;;;;;;;;;;;;;;;;;;;
"3cheers";"1995";;"Windows 7";"Rachel's Experiment (D.T.)";"1.0";"2";"1";"1";"2";"1";"1";"2014-09-29 15:36:37.286";"2014-09-29 15:49:34.754";"1";"0";"1";"172";"171";"module.devaluation_block1.exec-3635.deval1";"7536";"2014-09-29 15:47:35.712";"22";"7";"4";"5";"1410";"489";"2620";"2014-09-29 15:47:28.178";"3";;;;;;;;;;;;;;;;;;;;;;;;;;;;;;;;;;;;;;;;;;;;;;;;;;;;;;;;;;;;;;;;;;;;;;;;;;;;;;;;
"3cheers";"1995";;"Windows 7";"Rachel's Experiment (D.T.)";"1.0";"2";"1";"1";"2";"1";"1";"2014-09-29 15:36:37.286";"2014-09-29 15:49:34.754";"1";"0";"1";"173";"172";"module.devaluation_block1.exec-3635.deval1";"6309";"2014-09-29 15:47:42.055";"5";"8";"8";"8";"1139";"1009";"1144";"2014-09-29 15:47:35.746";"1";;;;;;;;;;;;;;;;;;;;;;;;;;;;;;;;;;;;;;;;;;;;;;;;;;;;;;;;;;;;;;;;;;;;;;;;;;;;;;;;
"3cheers";"1995";;"Windows 7";"Rachel's Experiment (D.T.)";"1.0";"2";"1";"1";"2";"1";"1";"2014-09-29 15:36:37.286";"2014-09-29 15:49:34.754";"1";"0";"1";"174";"173";"module.devaluation_block1.exec-3635.deval1";"5927";"2014-09-29 15:47:48.017";"12";"7";"7";"7";"1027";"1172";"711";"2014-09-29 15:47:42.089";"2";;;;;;;;;;;;;;;;;;;;;;;;;;;;;;;;;;;;;;;;;;;;;;;;;;;;;;;;;;;;;;;;;;;;;;;;;;;;;;;;
"3cheers";"1995";;"Windows 7";"Rachel's Experiment (D.T.)";"1.0";"2";"1";"1";"2";"1";"1";"2014-09-29 15:36:37.286";"2014-09-29 15:49:34.754";"1";"0";"1";"175";"174";"module.devaluation_block1.exec-3635.deval1";"6557";"2014-09-29 15:47:54.613";"20";"8";"7";"8";"1314";"1084";"1144";"2014-09-29 15:47:48.055";"3";;;;;;;;;;;;;;;;;;;;;;;;;;;;;;;;;;;;;;;;;;;;;;;;;;;;;;;;;;;;;;;;;;;;;;;;;;;;;;;;
"3cheers";"1995";;"Windows 7";"Rachel's Experiment (D.T.)";"1.0";"2";"1";"1";"2";"1";"1";"2014-09-29 15:36:37.286";"2014-09-29 15:49:34.754";"1";"0";"1";"176";"175";"module.devaluation_block1.exec-3635.deval1";"5484";"2014-09-29 15:48:00.134";"6";"7";"3";"4";"985";"815";"666";"2014-09-29 15:47:54.648";"1";;;;;;;;;;;;;;;;;;;;;;;;;;;;;;;;;;;;;;;;;;;;;;;;;;;;;;;;;;;;;;;;;;;;;;;;;;;;;;;;
"3cheers";"1995";;"Windows 7";"Rachel's Experiment (D.T.)";"1.0";"2";"1";"1";"2";"1";"1";"2014-09-29 15:36:37.286";"2014-09-29 15:49:34.754";"1";"0";"1";"177";"176";"module.devaluation_block1.exec-3635.deval1";"6532";"2014-09-29 15:48:06.704";"11";"3";"5";"6";"865";"1912";"739";"2014-09-29 15:48:00.171";"2";;;;;;;;;;;;;;;;;;;;;;;;;;;;;;;;;;;;;;;;;;;;;;;;;;;;;;;;;;;;;;;;;;;;;;;;;;;;;;;;
"3cheers";"1995";;"Windows 7";"Rachel's Experiment (D.T.)";"1.0";"2";"1";"1";"2";"1";"1";"2014-09-29 15:36:37.286";"2014-09-29 15:49:34.754";"1";"0";"1";"178";"177";"module.devaluation_block1.exec-3635.deval1";"6123";"2014-09-29 15:48:12.876";"21";"3";"6";"7";"1781";"671";"655";"2014-09-29 15:48:06.752";"3";;;;;;;;;;;;;;;;;;;;;;;;;;;;;;;;;;;;;;;;;;;;;;;;;;;;;;;;;;;;;;;;;;;;;;;;;;;;;;;;
"3cheers";"1995";;"Windows 7";"Rachel's Experiment (D.T.)";"1.0";"2";"1";"1";"2";"1";"1";"2014-09-29 15:36:37.286";"2014-09-29 15:49:34.754";"1";"0";"1";"179";"178";"module.devaluation_block1.exec-3635.deval1";"8753";"2014-09-29 15:48:21.666";"13";"3";"7";"7";"978";"978";"3782";"2014-09-29 15:48:12.912";"2";;;;;;;;;;;;;;;;;;;;;;;;;;;;;;;;;;;;;;;;;;;;;;;;;;;;;;;;;;;;;;;;;;;;;;;;;;;;;;;;
"3cheers";"1995";;"Windows 7";"Rachel's Experiment (D.T.)";"1.0";"2";"1";"1";"2";"1";"1";"2014-09-29 15:36:37.286";"2014-09-29 15:49:34.754";"1";"0";"1";"180";"179";"module.devaluation_block1.exec-3635.deval1";"7390";"2014-09-29 15:48:29.093";"25";"6";"6";"8";"715";"2122";"1537";"2014-09-29 15:48:21.703";"3";;;;;;;;;;;;;;;;;;;;;;;;;;;;;;;;;;;;;;;;;;;;;;;;;;;;;;;;;;;;;;;;;;;;;;;;;;;;;;;;
"3cheers";"1995";;"Windows 7";"Rachel's Experiment (D.T.)";"1.0";"2";"1";"1";"2";"1";"1";"2014-09-29 15:36:37.286";"2014-09-29 15:49:34.754";"1";"0";"1";"181";"180";"module.devaluation_block1.exec-3635.deval1";"7314";"2014-09-29 15:48:36.441";"3";"9";"9";"9";"1319";"1377";"1601";"2014-09-29 15:48:29.128";"1";;;;;;;;;;;;;;;;;;;;;;;;;;;;;;;;;;;;;;;;;;;;;;;;;;;;;;;;;;;;;;;;;;;;;;;;;;;;;;;;
"3cheers";"1995";;"Windows 7";"Rachel's Experiment (D.T.)";"1.0";"2";"1";"1";"2";"1";"1";"2014-09-29 15:36:37.286";"2014-09-29 15:49:34.754";"1";"0";"1";"182";"181";"module.devaluation_block1.exec-3635.deval1";"5238";"2014-09-29 15:48:41.714";"7";"4";"3";"5";"813";"726";"684";"2014-09-29 15:48:36.475";"1";;;;;;;;;;;;;;;;;;;;;;;;;;;;;;;;;;;;;;;;;;;;;;;;;;;;;;;;;;;;;;;;;;;;;;;;;;;;;;;;
"3cheers";"1995";;"Windows 7";"Rachel's Experiment (D.T.)";"1.0";"2";"1";"1";"2";"1";"1";"2014-09-29 15:36:37.286";"2014-09-29 15:49:34.754";"1";"0";"1";"183";"182";"module.devaluation_block1.exec-3635.deval1";"6201";"2014-09-29 15:48:47.950";"14";"4";"7";"7";"1513";"696";"974";"2014-09-29 15:48:41.749";"2";;;;;;;;;;;;;;;;;;;;;;;;;;;;;;;;;;;;;;;;;;;;;;;;;;;;;;;;;;;;;;;;;;;;;;;;;;;;;;;;
"3cheers";"1995";;"Windows 7";"Rachel's Experiment (D.T.)";"1.0";"2";"1";"1";"2";"1";"1";"2014-09-29 15:36:37.286";"2014-09-29 15:49:34.754";"1";"0";"1";"184";"183";"module.devaluation_block1.exec-3635.deval1";"5754";"2014-09-29 15:48:53.738";"8";"4";"3";"4";"655";"1294";"785";"2014-09-29 15:48:47.985";"1";;;;;;;;;;;;;;;;;;;;;;;;;;;;;;;;;;;;;;;;;;;;;;;;;;;;;;;;;;;;;;;;;;;;;;;;;;;;;;;;
"3cheers";"1995";;"Windows 7";"Rachel's Experiment (D.T.)";"1.0";"2";"1";"1";"2";"1";"1";"2014-09-29 15:36:37.286";"2014-09-29 15:49:34.754";"1";"0";"1";"185";"184";"module.devaluation_block1.exec-3635.deval1";"7953";"2014-09-29 15:49:01.726";"18";"7";"7";"8";"1339";"2350";"1247";"2014-09-29 15:48:53.774";"3";;;;;;;;;;;;;;;;;;;;;;;;;;;;;;;;;;;;;;;;;;;;;;;;;;;;;;;;;;;;;;;;;;;;;;;;;;;;;;;;
"3cheers";"1995";;"Windows 7";"Rachel's Experiment (D.T.)";"1.0";"2";"1";"1";"2";"1";"1";"2014-09-29 15:36:37.286";"2014-09-29 15:49:34.754";"1";"0";"1";"186";"185";"module.devaluation_block1.exec-3635.deval1";"6059";"2014-09-29 15:49:07.820";"10";"6";"5";"6";"644";"855";"1536";"2014-09-29 15:49:01.761";"2";;;;;;;;;;;;;;;;;;;;;;;;;;;;;;;;;;;;;;;;;;;;;;;;;;;;;;;;;;;;;;;;;;;;;;;;;;;;;;;;
"3cheers";"1995";;"Windows 7";"Rachel's Experiment (D.T.)";"1.0";"2";"1";"1";"2";"1";"1";"2014-09-29 15:36:37.286";"2014-09-29 15:49:34.754";"1";"0";"1";"187";"186";"module.devaluation_block1.exec-3635.deval1";"6920";"2014-09-29 15:49:14.778";"15";"2";"6";"5";"1281";"580";"2044";"2014-09-29 15:49:07.857";"2";;;;;;;;;;;;;;;;;;;;;;;;;;;;;;;;;;;;;;;;;;;;;;;;;;;;;;;;;;;;;;;;;;;;;;;;;;;;;;;;
"3cheers";"1995";;"Windows 7";"Rachel's Experiment (D.T.)";"1.0";"2";"1";"1";"2";"1";"1";"2014-09-29 15:36:37.286";"2014-09-29 15:49:34.754";"1";"0";"1";"188";"187";"module.devaluation_block1.exec-3635.deval1";"6440";"2014-09-29 15:49:21.251";"1";"2";"3";"4";"1106";"866";"1451";"2014-09-29 15:49:14.811";"1";;;;;;;;;;;;;;;;;;;;;;;;;;;;;;;;;;;;;;;;;;;;;;;;;;;;;;;;;;;;;;;;;;;;;;;;;;;;;;;;
"3cheers";"1995";;"Windows 7";"Rachel's Experiment (D.T.)";"1.0";"2";"1";"1";"2";"1";"1";"2014-09-29 15:36:37.286";"2014-09-29 15:49:34.754";"1";"0";"1";"189";"188";"module.devaluation_block1.exec-3635.deval1";"5673";"2014-09-29 15:49:26.959";"19";"4";"4";"4";"1124";"716";"818";"2014-09-29 15:49:21.286";"3";;;;;;;;;;;;;;;;;;;;;;;;;;;;;;;;;;;;;;;;;;;;;;;;;;;;;;;;;;;;;;;;;;;;;;;;;;;;;;;;
"3cheers";"1995";;"Windows 7";"Rachel's Experiment (D.T.)";"1.0";"2";"1";"1";"2";"1";"1";"2014-09-29 15:36:37.286";"2014-09-29 15:49:34.754";"1";"0";"1";"190";"189";"module.devaluation_block1.exec-3635.deval1";"6017";"2014-09-29 15:49:33.011";"0";"6";"6";"7";"793";"556";"1652";"2014-09-29 15:49:26.994";"1";;;;;;;;;;;;;;;;;;;;;;;;;;;;;;;;;;;;;;;;;;;;;;;;;;;;;;;;;;;;;;;;;;;;;;;;;;;;;;;;
