"user.name";"user.yearOfBirth";"user.sex";"user.osName";"module.name";"module.version";"module.online.subject.code";"module.online.study.id";"module.online.module.nr";"module.online.group.nr";"session.id";"session.index";"session.startTime";"session.endTime";"session.completed";"session.node-3654.DevalQorder";"session.node-5382.conditionType";"trial.id";"trial.index";"trial.name";"trial.deval1.durationTime";"trial.deval1.endTime";"trial.deval1.icon";"trial.deval1.Resp_Attractive";"trial.deval1.Resp_Eat";"trial.deval1.Resp_Taste";"trial.deval1.RT_Attractive";"trial.deval1.RT_Eat";"trial.deval1.RT_Taste";"trial.deval1.startTime";"trial.deval1.stimulus type";"trial.devalPractice.durationTime";"trial.devalPractice.endTime";"trial.devalPractice.icon";"trial.devalPractice.Resp_Attractive";"trial.devalPractice.Resp_Eat";"trial.devalPractice.Resp_Taste";"trial.devalPractice.RT_Attractive";"trial.devalPractice.RT_Eat";"trial.devalPractice.RT_Taste";"trial.devalPractice.startTime";"trial.devalPractice.stimulus type";"trial.GoNoGo1.durationTime";"trial.GoNoGo1.endTime";"trial.GoNoGo1.Error Type";"trial.GoNoGo1.icon";"trial.GoNoGo1.location";"trial.GoNoGo1.outcome";"trial.GoNoGo1.response";"trial.GoNoGo1.result";"trial.GoNoGo1.RT";"trial.GoNoGo1.signal";"trial.GoNoGo1.startTime";"trial.GoNoGo1.stimulus type";"trial.GoNoGo2.durationTime";"trial.GoNoGo2.endTime";"trial.GoNoGo2.Error Type";"trial.GoNoGo2.icon";"trial.GoNoGo2.location";"trial.GoNoGo2.outcome";"trial.GoNoGo2.response";"trial.GoNoGo2.result";"trial.GoNoGo2.RT";"trial.GoNoGo2.signal";"trial.GoNoGo2.startTime";"trial.GoNoGo2.stimulus type";"trial.GoNoGo3.durationTime";"trial.GoNoGo3.endTime";"trial.GoNoGo3.Error Type";"trial.GoNoGo3.icon";"trial.GoNoGo3.location";"trial.GoNoGo3.outcome";"trial.GoNoGo3.response";"trial.GoNoGo3.result";"trial.GoNoGo3.RT";"trial.GoNoGo3.signal";"trial.GoNoGo3.startTime";"trial.GoNoGo3.stimulus type";"trial.GoNoGo4.durationTime";"trial.GoNoGo4.endTime";"trial.GoNoGo4.Error Type";"trial.GoNoGo4.icon";"trial.GoNoGo4.location";"trial.GoNoGo4.outcome";"trial.GoNoGo4.response";"trial.GoNoGo4.result";"trial.GoNoGo4.RT";"trial.GoNoGo4.signal";"trial.GoNoGo4.startTime";"trial.GoNoGo4.stimulus type";"trial.GoNoGo_Practice.durationTime";"trial.GoNoGo_Practice.endTime";"trial.GoNoGo_Practice.icon";"trial.GoNoGo_Practice.location";"trial.GoNoGo_Practice.outcome";"trial.GoNoGo_Practice.response";"trial.GoNoGo_Practice.result";"trial.GoNoGo_Practice.RT";"trial.GoNoGo_Practice.signal";"trial.GoNoGo_Practice.startTime";"trial.GoNoGo_Practice.stimulus type";"trial.GoNoGo_Tutorial.durationTime";"trial.GoNoGo_Tutorial.endTime";"trial.GoNoGo_Tutorial.icon";"trial.GoNoGo_Tutorial.location";"trial.GoNoGo_Tutorial.outcome";"trial.GoNoGo_Tutorial.response";"trial.GoNoGo_Tutorial.result";"trial.GoNoGo_Tutorial.RT";"trial.GoNoGo_Tutorial.signal";"trial.GoNoGo_Tutorial.startTime"
"parkerk2";;;"Windows 7";"Rachel's Experiment (D.T.)";"1.0";"2";"1";"1";"2";"1";"1";"2014-10-16 11:24:15.455";"2014-10-16 11:36:50.664";"1";"1";"0";"1";"0";"module.GoNoGotutorial.exec-9521.GoNoGo_Tutorial";;;;;;;;;;;;;;;;;;;;;;;;;;;;;;;;;;;;;;;;;;;;;;;;;;;;;;;;;;;;;;;;;;;;;;;;;;;;;;;;;;"3998";"2014-10-16 11:25:07.531";"leftResponse";"0";"FINISHED";"LEFT";"success";"2479";"0";"2014-10-16 11:25:03.522"
"parkerk2";;;"Windows 7";"Rachel's Experiment (D.T.)";"1.0";"2";"1";"1";"2";"1";"1";"2014-10-16 11:24:15.455";"2014-10-16 11:36:50.664";"1";"1";"0";"2";"1";"module.GoNoGotutorial.exec-9521.GoNoGo_Tutorial";;;;;;;;;;;;;;;;;;;;;;;;;;;;;;;;;;;;;;;;;;;;;;;;;;;;;;;;;;;;;;;;;;;;;;;;;;;;;;;;;;"4006";"2014-10-16 11:25:12.851";"rightResponse";"1";"FINISHED";"NONE";"failure";"0";"0";"2014-10-16 11:25:08.842"
"parkerk2";;;"Windows 7";"Rachel's Experiment (D.T.)";"1.0";"2";"1";"1";"2";"1";"1";"2014-10-16 11:24:15.455";"2014-10-16 11:36:50.664";"1";"1";"0";"3";"2";"module.GoNoGotutorial.exec-9521.GoNoGo_Tutorial";;;;;;;;;;;;;;;;;;;;;;;;;;;;;;;;;;;;;;;;;;;;;;;;;;;;;;;;;;;;;;;;;;;;;;;;;;;;;;;;;;"4003";"2014-10-16 11:25:18.155";"quickResponse";"0";"FINISHED";"NONE";"failure";"0";"0";"2014-10-16 11:25:14.146"
"parkerk2";;;"Windows 7";"Rachel's Experiment (D.T.)";"1.0";"2";"1";"1";"2";"1";"1";"2014-10-16 11:24:15.455";"2014-10-16 11:36:50.664";"1";"1";"0";"4";"3";"module.GoNoGopractice.exec-9089.GoNoGo_Practice";;;;;;;;;;;;;;;;;;;;;;;;;;;;;;;;;;;;;;;;;;;;;;;;;;;;;;;;;;;;;;;;;;;;;;;"1959";"2014-10-16 11:25:27.313";"18";"0";"FINISHED";"LEFT";"success";"403";"0";"2014-10-16 11:25:25.347";"3";;;;;;;;;;
"parkerk2";;;"Windows 7";"Rachel's Experiment (D.T.)";"1.0";"2";"1";"1";"2";"1";"1";"2014-10-16 11:24:15.455";"2014-10-16 11:36:50.664";"1";"1";"0";"5";"4";"module.GoNoGopractice.exec-9089.GoNoGo_Practice";;;;;;;;;;;;;;;;;;;;;;;;;;;;;;;;;;;;;;;;;;;;;;;;;;;;;;;;;;;;;;;;;;;;;;;"1959";"2014-10-16 11:25:30.558";"21";"1";"FINISHED";"RIGHT";"success";"311";"0";"2014-10-16 11:25:28.592";"3";;;;;;;;;;
"parkerk2";;;"Windows 7";"Rachel's Experiment (D.T.)";"1.0";"2";"1";"1";"2";"1";"1";"2014-10-16 11:24:15.455";"2014-10-16 11:36:50.664";"1";"1";"0";"6";"5";"module.GoNoGopractice.exec-9089.GoNoGo_Practice";;;;;;;;;;;;;;;;;;;;;;;;;;;;;;;;;;;;;;;;;;;;;;;;;;;;;;;;;;;;;;;;;;;;;;;"1959";"2014-10-16 11:25:33.803";"14";"1";"FINISHED";"RIGHT";"success";"346";"0";"2014-10-16 11:25:31.837";"2";;;;;;;;;;
"parkerk2";;;"Windows 7";"Rachel's Experiment (D.T.)";"1.0";"2";"1";"1";"2";"1";"1";"2014-10-16 11:24:15.455";"2014-10-16 11:36:50.664";"1";"1";"0";"7";"6";"module.GoNoGopractice.exec-9089.GoNoGo_Practice";;;;;;;;;;;;;;;;;;;;;;;;;;;;;;;;;;;;;;;;;;;;;;;;;;;;;;;;;;;;;;;;;;;;;;;"1959";"2014-10-16 11:25:37.064";"26";"0";"FINISHED";"LEFT";"success";"301";"0";"2014-10-16 11:25:35.098";"3";;;;;;;;;;
"parkerk2";;;"Windows 7";"Rachel's Experiment (D.T.)";"1.0";"2";"1";"1";"2";"1";"1";"2014-10-16 11:24:15.455";"2014-10-16 11:36:50.664";"1";"1";"0";"8";"7";"module.GoNoGopractice.exec-9089.GoNoGo_Practice";;;;;;;;;;;;;;;;;;;;;;;;;;;;;;;;;;;;;;;;;;;;;;;;;;;;;;;;;;;;;;;;;;;;;;;"1959";"2014-10-16 11:25:40.309";"2";"0";"FINISHED";"LEFT";"success";"433";"0";"2014-10-16 11:25:38.343";"1";;;;;;;;;;
"parkerk2";;;"Windows 7";"Rachel's Experiment (D.T.)";"1.0";"2";"1";"1";"2";"1";"1";"2014-10-16 11:24:15.455";"2014-10-16 11:36:50.664";"1";"1";"0";"9";"8";"module.GoNoGopractice.exec-9089.GoNoGo_Practice";;;;;;;;;;;;;;;;;;;;;;;;;;;;;;;;;;;;;;;;;;;;;;;;;;;;;;;;;;;;;;;;;;;;;;;"1960";"2014-10-16 11:25:43.554";"30";"0";"FINISHED";"LEFT";"success";"412";"0";"2014-10-16 11:25:41.588";"3";;;;;;;;;;
"parkerk2";;;"Windows 7";"Rachel's Experiment (D.T.)";"1.0";"2";"1";"1";"2";"1";"1";"2014-10-16 11:24:15.455";"2014-10-16 11:36:50.664";"1";"1";"0";"10";"9";"module.GoNoGopractice.exec-9089.GoNoGo_Practice";;;;;;;;;;;;;;;;;;;;;;;;;;;;;;;;;;;;;;;;;;;;;;;;;;;;;;;;;;;;;;;;;;;;;;;"1959";"2014-10-16 11:25:46.799";"6";"1";"FINISHED";"RIGHT";"success";"351";"0";"2014-10-16 11:25:44.833";"1";;;;;;;;;;
"parkerk2";;;"Windows 7";"Rachel's Experiment (D.T.)";"1.0";"2";"1";"1";"2";"1";"1";"2014-10-16 11:24:15.455";"2014-10-16 11:36:50.664";"1";"1";"0";"11";"10";"module.GoNoGopractice.exec-9089.GoNoGo_Practice";;;;;;;;;;;;;;;;;;;;;;;;;;;;;;;;;;;;;;;;;;;;;;;;;;;;;;;;;;;;;;;;;;;;;;;"1960";"2014-10-16 11:25:50.044";"34";"0";"FINISHED";"LEFT";"success";"619";"0";"2014-10-16 11:25:48.078";"3";;;;;;;;;;
"parkerk2";;;"Windows 7";"Rachel's Experiment (D.T.)";"1.0";"2";"1";"1";"2";"1";"1";"2014-10-16 11:24:15.455";"2014-10-16 11:36:50.664";"1";"1";"0";"12";"11";"module.GoNoGopractice.exec-9089.GoNoGo_Practice";;;;;;;;;;;;;;;;;;;;;;;;;;;;;;;;;;;;;;;;;;;;;;;;;;;;;;;;;;;;;;;;;;;;;;;"1959";"2014-10-16 11:25:53.304";"23";"1";"FINISHED";"RIGHT";"success";"326";"0";"2014-10-16 11:25:51.339";"3";;;;;;;;;;
"parkerk2";;;"Windows 7";"Rachel's Experiment (D.T.)";"1.0";"2";"1";"1";"2";"1";"1";"2014-10-16 11:24:15.455";"2014-10-16 11:36:50.664";"1";"1";"0";"13";"12";"module.GoNoGopractice.exec-9089.GoNoGo_Practice";;;;;;;;;;;;;;;;;;;;;;;;;;;;;;;;;;;;;;;;;;;;;;;;;;;;;;;;;;;;;;;;;;;;;;;"1959";"2014-10-16 11:25:56.549";"13";"0";"FINISHED";"LEFT";"success";"313";"0";"2014-10-16 11:25:54.584";"2";;;;;;;;;;
"parkerk2";;;"Windows 7";"Rachel's Experiment (D.T.)";"1.0";"2";"1";"1";"2";"1";"1";"2014-10-16 11:24:15.455";"2014-10-16 11:36:50.664";"1";"1";"0";"14";"13";"module.GoNoGopractice.exec-9089.GoNoGo_Practice";;;;;;;;;;;;;;;;;;;;;;;;;;;;;;;;;;;;;;;;;;;;;;;;;;;;;;;;;;;;;;;;;;;;;;;"1959";"2014-10-16 11:25:59.794";"3";"1";"FINISHED";"RIGHT";"success";"300";"0";"2014-10-16 11:25:57.829";"1";;;;;;;;;;
"parkerk2";;;"Windows 7";"Rachel's Experiment (D.T.)";"1.0";"2";"1";"1";"2";"1";"1";"2014-10-16 11:24:15.455";"2014-10-16 11:36:50.664";"1";"1";"0";"15";"14";"module.GoNoGopractice.exec-9089.GoNoGo_Practice";;;;;;;;;;;;;;;;;;;;;;;;;;;;;;;;;;;;;;;;;;;;;;;;;;;;;;;;;;;;;;;;;;;;;;;"1959";"2014-10-16 11:26:03.039";"27";"1";"FINISHED";"RIGHT";"success";"440";"0";"2014-10-16 11:26:01.074";"3";;;;;;;;;;
"parkerk2";;;"Windows 7";"Rachel's Experiment (D.T.)";"1.0";"2";"1";"1";"2";"1";"1";"2014-10-16 11:24:15.455";"2014-10-16 11:36:50.664";"1";"1";"0";"16";"15";"module.training_block1.exec-7933.GoNoGo1";;;;;;;;;;;;;;;;;;;;;;;"1256";"2014-10-16 11:26:12.821";"NST_correctLoc";"7";"0";"FINISHED";"LEFT";"success";"402";"0";"2014-10-16 11:26:11.557";"1";;;;;;;;;;;;;;;;;;;;;;;;;;;;;;;;;;;;;;;;;;;;;;;;;;;;;;;;;
"parkerk2";;;"Windows 7";"Rachel's Experiment (D.T.)";"1.0";"2";"1";"1";"2";"1";"1";"2014-10-16 11:24:15.455";"2014-10-16 11:36:50.664";"1";"1";"0";"17";"16";"module.training_block1.exec-7933.GoNoGo1";;;;;;;;;;;;;;;;;;;;;;;"1261";"2014-10-16 11:26:15.364";"NST_correctLoc";"14";"0";"FINISHED";"LEFT";"success";"345";"0";"2014-10-16 11:26:14.100";"2";;;;;;;;;;;;;;;;;;;;;;;;;;;;;;;;;;;;;;;;;;;;;;;;;;;;;;;;;
"parkerk2";;;"Windows 7";"Rachel's Experiment (D.T.)";"1.0";"2";"1";"1";"2";"1";"1";"2014-10-16 11:24:15.455";"2014-10-16 11:36:50.664";"1";"1";"0";"18";"17";"module.training_block1.exec-7933.GoNoGo1";;;;;;;;;;;;;;;;;;;;;;;"1257";"2014-10-16 11:26:17.907";"NST_correctLoc";"9";"1";"FINISHED";"RIGHT";"success";"271";"0";"2014-10-16 11:26:16.643";"2";;;;;;;;;;;;;;;;;;;;;;;;;;;;;;;;;;;;;;;;;;;;;;;;;;;;;;;;;
"parkerk2";;;"Windows 7";"Rachel's Experiment (D.T.)";"1.0";"2";"1";"1";"2";"1";"1";"2014-10-16 11:24:15.455";"2014-10-16 11:36:50.664";"1";"1";"0";"19";"18";"module.training_block1.exec-7933.GoNoGo1";;;;;;;;;;;;;;;;;;;;;;;"1261";"2014-10-16 11:26:20.450";"NST_correctLoc";"27";"1";"FINISHED";"RIGHT";"success";"388";"0";"2014-10-16 11:26:19.186";"3";;;;;;;;;;;;;;;;;;;;;;;;;;;;;;;;;;;;;;;;;;;;;;;;;;;;;;;;;
"parkerk2";;;"Windows 7";"Rachel's Experiment (D.T.)";"1.0";"2";"1";"1";"2";"1";"1";"2014-10-16 11:24:15.455";"2014-10-16 11:36:50.664";"1";"1";"0";"20";"19";"module.training_block1.exec-7933.GoNoGo1";;;;;;;;;;;;;;;;;;;;;;;"1257";"2014-10-16 11:26:22.993";"NST_correctLoc";"20";"1";"FINISHED";"RIGHT";"success";"337";"0";"2014-10-16 11:26:21.729";"3";;;;;;;;;;;;;;;;;;;;;;;;;;;;;;;;;;;;;;;;;;;;;;;;;;;;;;;;;
"parkerk2";;;"Windows 7";"Rachel's Experiment (D.T.)";"1.0";"2";"1";"1";"2";"1";"1";"2014-10-16 11:24:15.455";"2014-10-16 11:36:50.664";"1";"1";"0";"21";"20";"module.training_block1.exec-7933.GoNoGo1";;;;;;;;;;;;;;;;;;;;;;;"1261";"2014-10-16 11:26:25.536";"NST_correctLoc";"26";"1";"FINISHED";"RIGHT";"success";"326";"0";"2014-10-16 11:26:24.272";"3";;;;;;;;;;;;;;;;;;;;;;;;;;;;;;;;;;;;;;;;;;;;;;;;;;;;;;;;;
"parkerk2";;;"Windows 7";"Rachel's Experiment (D.T.)";"1.0";"2";"1";"1";"2";"1";"1";"2014-10-16 11:24:15.455";"2014-10-16 11:36:50.664";"1";"1";"0";"22";"21";"module.training_block1.exec-7933.GoNoGo1";;;;;;;;;;;;;;;;;;;;;;;"1258";"2014-10-16 11:26:28.079";"NST_correctLoc";"33";"1";"FINISHED";"RIGHT";"success";"316";"0";"2014-10-16 11:26:26.815";"3";;;;;;;;;;;;;;;;;;;;;;;;;;;;;;;;;;;;;;;;;;;;;;;;;;;;;;;;;
"parkerk2";;;"Windows 7";"Rachel's Experiment (D.T.)";"1.0";"2";"1";"1";"2";"1";"1";"2014-10-16 11:24:15.455";"2014-10-16 11:36:50.664";"1";"1";"0";"23";"22";"module.training_block1.exec-7933.GoNoGo1";;;;;;;;;;;;;;;;;;;;;;;"1257";"2014-10-16 11:26:30.622";"NST_correctLoc";"12";"0";"FINISHED";"LEFT";"success";"276";"0";"2014-10-16 11:26:29.358";"2";;;;;;;;;;;;;;;;;;;;;;;;;;;;;;;;;;;;;;;;;;;;;;;;;;;;;;;;;
"parkerk2";;;"Windows 7";"Rachel's Experiment (D.T.)";"1.0";"2";"1";"1";"2";"1";"1";"2014-10-16 11:24:15.455";"2014-10-16 11:36:50.664";"1";"1";"0";"24";"23";"module.training_block1.exec-7933.GoNoGo1";;;;;;;;;;;;;;;;;;;;;;;"1258";"2014-10-16 11:26:33.165";"NST_correctLoc";"28";"1";"FINISHED";"RIGHT";"success";"334";"0";"2014-10-16 11:26:31.901";"3";;;;;;;;;;;;;;;;;;;;;;;;;;;;;;;;;;;;;;;;;;;;;;;;;;;;;;;;;
"parkerk2";;;"Windows 7";"Rachel's Experiment (D.T.)";"1.0";"2";"1";"1";"2";"1";"1";"2014-10-16 11:24:15.455";"2014-10-16 11:36:50.664";"1";"1";"0";"25";"24";"module.training_block1.exec-7933.GoNoGo1";;;;;;;;;;;;;;;;;;;;;;;"1261";"2014-10-16 11:26:35.708";"NST_correctLoc";"2";"1";"FINISHED";"RIGHT";"success";"299";"0";"2014-10-16 11:26:34.444";"1";;;;;;;;;;;;;;;;;;;;;;;;;;;;;;;;;;;;;;;;;;;;;;;;;;;;;;;;;
"parkerk2";;;"Windows 7";"Rachel's Experiment (D.T.)";"1.0";"2";"1";"1";"2";"1";"1";"2014-10-16 11:24:15.455";"2014-10-16 11:36:50.664";"1";"1";"0";"26";"25";"module.training_block1.exec-7933.GoNoGo1";;;;;;;;;;;;;;;;;;;;;;;"1257";"2014-10-16 11:26:38.250";"NST_correctLoc";"22";"1";"FINISHED";"RIGHT";"success";"296";"0";"2014-10-16 11:26:36.987";"3";;;;;;;;;;;;;;;;;;;;;;;;;;;;;;;;;;;;;;;;;;;;;;;;;;;;;;;;;
"parkerk2";;;"Windows 7";"Rachel's Experiment (D.T.)";"1.0";"2";"1";"1";"2";"1";"1";"2014-10-16 11:24:15.455";"2014-10-16 11:36:50.664";"1";"1";"0";"27";"26";"module.training_block1.exec-7933.GoNoGo1";;;;;;;;;;;;;;;;;;;;;;;"1258";"2014-10-16 11:26:40.793";"NST_correctLoc";"31";"1";"FINISHED";"RIGHT";"success";"289";"0";"2014-10-16 11:26:39.530";"3";;;;;;;;;;;;;;;;;;;;;;;;;;;;;;;;;;;;;;;;;;;;;;;;;;;;;;;;;
"parkerk2";;;"Windows 7";"Rachel's Experiment (D.T.)";"1.0";"2";"1";"1";"2";"1";"1";"2014-10-16 11:24:15.455";"2014-10-16 11:36:50.664";"1";"1";"0";"28";"27";"module.training_block1.exec-7933.GoNoGo1";;;;;;;;;;;;;;;;;;;;;;;"1261";"2014-10-16 11:26:43.336";"NST_correctLoc";"18";"1";"FINISHED";"RIGHT";"success";"358";"0";"2014-10-16 11:26:42.073";"3";;;;;;;;;;;;;;;;;;;;;;;;;;;;;;;;;;;;;;;;;;;;;;;;;;;;;;;;;
"parkerk2";;;"Windows 7";"Rachel's Experiment (D.T.)";"1.0";"2";"1";"1";"2";"1";"1";"2014-10-16 11:24:15.455";"2014-10-16 11:36:50.664";"1";"1";"0";"29";"28";"module.training_block1.exec-7933.GoNoGo1";;;;;;;;;;;;;;;;;;;;;;;"1258";"2014-10-16 11:26:45.879";"NST_correctLoc";"25";"1";"FINISHED";"RIGHT";"success";"300";"0";"2014-10-16 11:26:44.616";"3";;;;;;;;;;;;;;;;;;;;;;;;;;;;;;;;;;;;;;;;;;;;;;;;;;;;;;;;;
"parkerk2";;;"Windows 7";"Rachel's Experiment (D.T.)";"1.0";"2";"1";"1";"2";"1";"1";"2014-10-16 11:24:15.455";"2014-10-16 11:36:50.664";"1";"1";"0";"30";"29";"module.training_block1.exec-7933.GoNoGo1";;;;;;;;;;;;;;;;;;;;;;;"1258";"2014-10-16 11:26:48.422";"NST_correctLoc";"1";"0";"FINISHED";"LEFT";"success";"326";"0";"2014-10-16 11:26:47.159";"1";;;;;;;;;;;;;;;;;;;;;;;;;;;;;;;;;;;;;;;;;;;;;;;;;;;;;;;;;
"parkerk2";;;"Windows 7";"Rachel's Experiment (D.T.)";"1.0";"2";"1";"1";"2";"1";"1";"2014-10-16 11:24:15.455";"2014-10-16 11:36:50.664";"1";"1";"0";"31";"30";"module.training_block1.exec-7933.GoNoGo1";;;;;;;;;;;;;;;;;;;;;;;"1257";"2014-10-16 11:26:50.965";"NST_correctLoc";"32";"0";"FINISHED";"LEFT";"success";"294";"0";"2014-10-16 11:26:49.702";"3";;;;;;;;;;;;;;;;;;;;;;;;;;;;;;;;;;;;;;;;;;;;;;;;;;;;;;;;;
"parkerk2";;;"Windows 7";"Rachel's Experiment (D.T.)";"1.0";"2";"1";"1";"2";"1";"1";"2014-10-16 11:24:15.455";"2014-10-16 11:36:50.664";"1";"1";"0";"32";"31";"module.training_block1.exec-7933.GoNoGo1";;;;;;;;;;;;;;;;;;;;;;;"1258";"2014-10-16 11:26:53.508";"NST_correctLoc";"29";"1";"FINISHED";"RIGHT";"success";"264";"0";"2014-10-16 11:26:52.245";"3";;;;;;;;;;;;;;;;;;;;;;;;;;;;;;;;;;;;;;;;;;;;;;;;;;;;;;;;;
"parkerk2";;;"Windows 7";"Rachel's Experiment (D.T.)";"1.0";"2";"1";"1";"2";"1";"1";"2014-10-16 11:24:15.455";"2014-10-16 11:36:50.664";"1";"1";"0";"33";"32";"module.training_block1.exec-7933.GoNoGo1";;;;;;;;;;;;;;;;;;;;;;;"1257";"2014-10-16 11:26:56.051";"NST_correctLoc";"17";"0";"FINISHED";"LEFT";"success";"304";"0";"2014-10-16 11:26:54.787";"2";;;;;;;;;;;;;;;;;;;;;;;;;;;;;;;;;;;;;;;;;;;;;;;;;;;;;;;;;
"parkerk2";;;"Windows 7";"Rachel's Experiment (D.T.)";"1.0";"2";"1";"1";"2";"1";"1";"2014-10-16 11:24:15.455";"2014-10-16 11:36:50.664";"1";"1";"0";"34";"33";"module.training_block1.exec-7933.GoNoGo1";;;;;;;;;;;;;;;;;;;;;;;"1258";"2014-10-16 11:26:58.594";"NST_correctLoc";"5";"0";"FINISHED";"LEFT";"success";"298";"0";"2014-10-16 11:26:57.330";"1";;;;;;;;;;;;;;;;;;;;;;;;;;;;;;;;;;;;;;;;;;;;;;;;;;;;;;;;;
"parkerk2";;;"Windows 7";"Rachel's Experiment (D.T.)";"1.0";"2";"1";"1";"2";"1";"1";"2014-10-16 11:24:15.455";"2014-10-16 11:36:50.664";"1";"1";"0";"35";"34";"module.training_block1.exec-7933.GoNoGo1";;;;;;;;;;;;;;;;;;;;;;;"1261";"2014-10-16 11:27:01.137";"NST_correctLoc";"34";"1";"FINISHED";"RIGHT";"success";"286";"0";"2014-10-16 11:26:59.873";"3";;;;;;;;;;;;;;;;;;;;;;;;;;;;;;;;;;;;;;;;;;;;;;;;;;;;;;;;;
"parkerk2";;;"Windows 7";"Rachel's Experiment (D.T.)";"1.0";"2";"1";"1";"2";"1";"1";"2014-10-16 11:24:15.455";"2014-10-16 11:36:50.664";"1";"1";"0";"36";"35";"module.training_block1.exec-7933.GoNoGo1";;;;;;;;;;;;;;;;;;;;;;;"1261";"2014-10-16 11:27:03.680";"NST_correctLoc";"23";"1";"FINISHED";"RIGHT";"success";"296";"0";"2014-10-16 11:27:02.416";"3";;;;;;;;;;;;;;;;;;;;;;;;;;;;;;;;;;;;;;;;;;;;;;;;;;;;;;;;;
"parkerk2";;;"Windows 7";"Rachel's Experiment (D.T.)";"1.0";"2";"1";"1";"2";"1";"1";"2014-10-16 11:24:15.455";"2014-10-16 11:36:50.664";"1";"1";"0";"37";"36";"module.training_block1.exec-7933.GoNoGo1";;;;;;;;;;;;;;;;;;;;;;;"1261";"2014-10-16 11:27:06.223";"NST_correctLoc";"13";"1";"FINISHED";"RIGHT";"success";"353";"0";"2014-10-16 11:27:04.959";"2";;;;;;;;;;;;;;;;;;;;;;;;;;;;;;;;;;;;;;;;;;;;;;;;;;;;;;;;;
"parkerk2";;;"Windows 7";"Rachel's Experiment (D.T.)";"1.0";"2";"1";"1";"2";"1";"1";"2014-10-16 11:24:15.455";"2014-10-16 11:36:50.664";"1";"1";"0";"38";"37";"module.training_block1.exec-7933.GoNoGo1";;;;;;;;;;;;;;;;;;;;;;;"1261";"2014-10-16 11:27:08.766";"NST_correctLoc";"3";"1";"FINISHED";"RIGHT";"success";"338";"0";"2014-10-16 11:27:07.502";"1";;;;;;;;;;;;;;;;;;;;;;;;;;;;;;;;;;;;;;;;;;;;;;;;;;;;;;;;;
"parkerk2";;;"Windows 7";"Rachel's Experiment (D.T.)";"1.0";"2";"1";"1";"2";"1";"1";"2014-10-16 11:24:15.455";"2014-10-16 11:36:50.664";"1";"1";"0";"39";"38";"module.training_block1.exec-7933.GoNoGo1";;;;;;;;;;;;;;;;;;;;;;;"1261";"2014-10-16 11:27:11.309";"NST_correctLoc";"21";"0";"FINISHED";"LEFT";"success";"307";"0";"2014-10-16 11:27:10.045";"3";;;;;;;;;;;;;;;;;;;;;;;;;;;;;;;;;;;;;;;;;;;;;;;;;;;;;;;;;
"parkerk2";;;"Windows 7";"Rachel's Experiment (D.T.)";"1.0";"2";"1";"1";"2";"1";"1";"2014-10-16 11:24:15.455";"2014-10-16 11:36:50.664";"1";"1";"0";"40";"39";"module.training_block1.exec-7933.GoNoGo1";;;;;;;;;;;;;;;;;;;;;;;"1261";"2014-10-16 11:27:13.852";"NST_correctLoc";"6";"0";"FINISHED";"LEFT";"success";"268";"0";"2014-10-16 11:27:12.588";"1";;;;;;;;;;;;;;;;;;;;;;;;;;;;;;;;;;;;;;;;;;;;;;;;;;;;;;;;;
"parkerk2";;;"Windows 7";"Rachel's Experiment (D.T.)";"1.0";"2";"1";"1";"2";"1";"1";"2014-10-16 11:24:15.455";"2014-10-16 11:36:50.664";"1";"1";"0";"41";"40";"module.training_block1.exec-7933.GoNoGo1";;;;;;;;;;;;;;;;;;;;;;;"1256";"2014-10-16 11:27:16.395";"NST_correctLoc";"11";"0";"FINISHED";"LEFT";"success";"377";"0";"2014-10-16 11:27:15.131";"2";;;;;;;;;;;;;;;;;;;;;;;;;;;;;;;;;;;;;;;;;;;;;;;;;;;;;;;;;
"parkerk2";;;"Windows 7";"Rachel's Experiment (D.T.)";"1.0";"2";"1";"1";"2";"1";"1";"2014-10-16 11:24:15.455";"2014-10-16 11:36:50.664";"1";"1";"0";"42";"41";"module.training_block1.exec-7933.GoNoGo1";;;;;;;;;;;;;;;;;;;;;;;"1251";"2014-10-16 11:27:18.938";"NST_correctLoc";"35";"1";"FINISHED";"RIGHT";"success";"309";"0";"2014-10-16 11:27:17.674";"3";;;;;;;;;;;;;;;;;;;;;;;;;;;;;;;;;;;;;;;;;;;;;;;;;;;;;;;;;
"parkerk2";;;"Windows 7";"Rachel's Experiment (D.T.)";"1.0";"2";"1";"1";"2";"1";"1";"2014-10-16 11:24:15.455";"2014-10-16 11:36:50.664";"1";"1";"0";"43";"42";"module.training_block1.exec-7933.GoNoGo1";;;;;;;;;;;;;;;;;;;;;;;"1257";"2014-10-16 11:27:21.481";"NST_correctLoc";"8";"1";"FINISHED";"RIGHT";"success";"340";"0";"2014-10-16 11:27:20.217";"1";;;;;;;;;;;;;;;;;;;;;;;;;;;;;;;;;;;;;;;;;;;;;;;;;;;;;;;;;
"parkerk2";;;"Windows 7";"Rachel's Experiment (D.T.)";"1.0";"2";"1";"1";"2";"1";"1";"2014-10-16 11:24:15.455";"2014-10-16 11:36:50.664";"1";"1";"0";"44";"43";"module.training_block1.exec-7933.GoNoGo1";;;;;;;;;;;;;;;;;;;;;;;"1257";"2014-10-16 11:27:24.024";"NST_correctLoc";"0";"1";"FINISHED";"RIGHT";"success";"301";"0";"2014-10-16 11:27:22.760";"1";;;;;;;;;;;;;;;;;;;;;;;;;;;;;;;;;;;;;;;;;;;;;;;;;;;;;;;;;
"parkerk2";;;"Windows 7";"Rachel's Experiment (D.T.)";"1.0";"2";"1";"1";"2";"1";"1";"2014-10-16 11:24:15.455";"2014-10-16 11:36:50.664";"1";"1";"0";"45";"44";"module.training_block1.exec-7933.GoNoGo1";;;;;;;;;;;;;;;;;;;;;;;"1257";"2014-10-16 11:27:26.566";"NST_correctLoc";"24";"0";"FINISHED";"LEFT";"success";"326";"0";"2014-10-16 11:27:25.303";"3";;;;;;;;;;;;;;;;;;;;;;;;;;;;;;;;;;;;;;;;;;;;;;;;;;;;;;;;;
"parkerk2";;;"Windows 7";"Rachel's Experiment (D.T.)";"1.0";"2";"1";"1";"2";"1";"1";"2014-10-16 11:24:15.455";"2014-10-16 11:36:50.664";"1";"1";"0";"46";"45";"module.training_block1.exec-7933.GoNoGo1";;;;;;;;;;;;;;;;;;;;;;;"1257";"2014-10-16 11:27:29.109";"NST_correctLoc";"10";"1";"FINISHED";"RIGHT";"success";"320";"0";"2014-10-16 11:27:27.846";"2";;;;;;;;;;;;;;;;;;;;;;;;;;;;;;;;;;;;;;;;;;;;;;;;;;;;;;;;;
"parkerk2";;;"Windows 7";"Rachel's Experiment (D.T.)";"1.0";"2";"1";"1";"2";"1";"1";"2014-10-16 11:24:15.455";"2014-10-16 11:36:50.664";"1";"1";"0";"47";"46";"module.training_block1.exec-7933.GoNoGo1";;;;;;;;;;;;;;;;;;;;;;;"1257";"2014-10-16 11:27:31.652";"NST_correctLoc";"15";"1";"FINISHED";"RIGHT";"success";"345";"0";"2014-10-16 11:27:30.389";"2";;;;;;;;;;;;;;;;;;;;;;;;;;;;;;;;;;;;;;;;;;;;;;;;;;;;;;;;;
"parkerk2";;;"Windows 7";"Rachel's Experiment (D.T.)";"1.0";"2";"1";"1";"2";"1";"1";"2014-10-16 11:24:15.455";"2014-10-16 11:36:50.664";"1";"1";"0";"48";"47";"module.training_block1.exec-7933.GoNoGo1";;;;;;;;;;;;;;;;;;;;;;;"1258";"2014-10-16 11:27:34.195";"NST_correctLoc";"30";"1";"FINISHED";"RIGHT";"success";"306";"0";"2014-10-16 11:27:32.932";"3";;;;;;;;;;;;;;;;;;;;;;;;;;;;;;;;;;;;;;;;;;;;;;;;;;;;;;;;;
"parkerk2";;;"Windows 7";"Rachel's Experiment (D.T.)";"1.0";"2";"1";"1";"2";"1";"1";"2014-10-16 11:24:15.455";"2014-10-16 11:36:50.664";"1";"1";"0";"49";"48";"module.training_block1.exec-7933.GoNoGo1";;;;;;;;;;;;;;;;;;;;;;;"1258";"2014-10-16 11:27:36.738";"NST_correctLoc";"16";"0";"FINISHED";"LEFT";"success";"331";"0";"2014-10-16 11:27:35.475";"2";;;;;;;;;;;;;;;;;;;;;;;;;;;;;;;;;;;;;;;;;;;;;;;;;;;;;;;;;
"parkerk2";;;"Windows 7";"Rachel's Experiment (D.T.)";"1.0";"2";"1";"1";"2";"1";"1";"2014-10-16 11:24:15.455";"2014-10-16 11:36:50.664";"1";"1";"0";"50";"49";"module.training_block1.exec-7933.GoNoGo1";;;;;;;;;;;;;;;;;;;;;;;"1257";"2014-10-16 11:27:39.281";"NST_correctLoc";"4";"1";"FINISHED";"RIGHT";"success";"324";"0";"2014-10-16 11:27:38.018";"1";;;;;;;;;;;;;;;;;;;;;;;;;;;;;;;;;;;;;;;;;;;;;;;;;;;;;;;;;
"parkerk2";;;"Windows 7";"Rachel's Experiment (D.T.)";"1.0";"2";"1";"1";"2";"1";"1";"2014-10-16 11:24:15.455";"2014-10-16 11:36:50.664";"1";"1";"0";"51";"50";"module.training_block1.exec-7933.GoNoGo1";;;;;;;;;;;;;;;;;;;;;;;"1258";"2014-10-16 11:27:41.824";"NST_correctLoc";"19";"1";"FINISHED";"RIGHT";"success";"294";"0";"2014-10-16 11:27:40.560";"3";;;;;;;;;;;;;;;;;;;;;;;;;;;;;;;;;;;;;;;;;;;;;;;;;;;;;;;;;
"parkerk2";;;"Windows 7";"Rachel's Experiment (D.T.)";"1.0";"2";"1";"1";"2";"1";"1";"2014-10-16 11:24:15.455";"2014-10-16 11:36:50.664";"1";"1";"0";"52";"51";"module.training_block2.exec-9292.GoNoGo2";;;;;;;;;;;;;;;;;;;;;;;;;;;;;;;;;;;"1257";"2014-10-16 11:27:53.197";"NST_correctLoc";"13";"0";"FINISHED";"LEFT";"success";"312";"0";"2014-10-16 11:27:51.934";"2";;;;;;;;;;;;;;;;;;;;;;;;;;;;;;;;;;;;;;;;;;;;;
"parkerk2";;;"Windows 7";"Rachel's Experiment (D.T.)";"1.0";"2";"1";"1";"2";"1";"1";"2014-10-16 11:24:15.455";"2014-10-16 11:36:50.664";"1";"1";"0";"53";"52";"module.training_block2.exec-9292.GoNoGo2";;;;;;;;;;;;;;;;;;;;;;;;;;;;;;;;;;;"1258";"2014-10-16 11:27:55.740";"NST_correctLoc";"5";"1";"FINISHED";"RIGHT";"success";"443";"0";"2014-10-16 11:27:54.476";"1";;;;;;;;;;;;;;;;;;;;;;;;;;;;;;;;;;;;;;;;;;;;;
"parkerk2";;;"Windows 7";"Rachel's Experiment (D.T.)";"1.0";"2";"1";"1";"2";"1";"1";"2014-10-16 11:24:15.455";"2014-10-16 11:36:50.664";"1";"1";"0";"54";"53";"module.training_block2.exec-9292.GoNoGo2";;;;;;;;;;;;;;;;;;;;;;;;;;;;;;;;;;;"1258";"2014-10-16 11:27:58.283";"NST_correctLoc";"3";"1";"FINISHED";"RIGHT";"success";"340";"0";"2014-10-16 11:27:57.019";"1";;;;;;;;;;;;;;;;;;;;;;;;;;;;;;;;;;;;;;;;;;;;;
"parkerk2";;;"Windows 7";"Rachel's Experiment (D.T.)";"1.0";"2";"1";"1";"2";"1";"1";"2014-10-16 11:24:15.455";"2014-10-16 11:36:50.664";"1";"1";"0";"55";"54";"module.training_block2.exec-9292.GoNoGo2";;;;;;;;;;;;;;;;;;;;;;;;;;;;;;;;;;;"1261";"2014-10-16 11:28:00.826";"NST_correctLoc";"8";"1";"FINISHED";"RIGHT";"success";"320";"0";"2014-10-16 11:27:59.562";"1";;;;;;;;;;;;;;;;;;;;;;;;;;;;;;;;;;;;;;;;;;;;;
"parkerk2";;;"Windows 7";"Rachel's Experiment (D.T.)";"1.0";"2";"1";"1";"2";"1";"1";"2014-10-16 11:24:15.455";"2014-10-16 11:36:50.664";"1";"1";"0";"56";"55";"module.training_block2.exec-9292.GoNoGo2";;;;;;;;;;;;;;;;;;;;;;;;;;;;;;;;;;;"1261";"2014-10-16 11:28:03.369";"NST_correctLoc";"16";"0";"FINISHED";"LEFT";"success";"306";"0";"2014-10-16 11:28:02.105";"2";;;;;;;;;;;;;;;;;;;;;;;;;;;;;;;;;;;;;;;;;;;;;
"parkerk2";;;"Windows 7";"Rachel's Experiment (D.T.)";"1.0";"2";"1";"1";"2";"1";"1";"2014-10-16 11:24:15.455";"2014-10-16 11:36:50.664";"1";"1";"0";"57";"56";"module.training_block2.exec-9292.GoNoGo2";;;;;;;;;;;;;;;;;;;;;;;;;;;;;;;;;;;"1258";"2014-10-16 11:28:05.912";"NST_correctLoc";"12";"0";"FINISHED";"LEFT";"success";"391";"0";"2014-10-16 11:28:04.648";"2";;;;;;;;;;;;;;;;;;;;;;;;;;;;;;;;;;;;;;;;;;;;;
"parkerk2";;;"Windows 7";"Rachel's Experiment (D.T.)";"1.0";"2";"1";"1";"2";"1";"1";"2014-10-16 11:24:15.455";"2014-10-16 11:36:50.664";"1";"1";"0";"58";"57";"module.training_block2.exec-9292.GoNoGo2";;;;;;;;;;;;;;;;;;;;;;;;;;;;;;;;;;;"1257";"2014-10-16 11:28:08.455";"NST_correctLoc";"2";"0";"FINISHED";"LEFT";"success";"312";"0";"2014-10-16 11:28:07.191";"1";;;;;;;;;;;;;;;;;;;;;;;;;;;;;;;;;;;;;;;;;;;;;
"parkerk2";;;"Windows 7";"Rachel's Experiment (D.T.)";"1.0";"2";"1";"1";"2";"1";"1";"2014-10-16 11:24:15.455";"2014-10-16 11:36:50.664";"1";"1";"0";"59";"58";"module.training_block2.exec-9292.GoNoGo2";;;;;;;;;;;;;;;;;;;;;;;;;;;;;;;;;;;"1261";"2014-10-16 11:28:10.998";"NST_correctLoc";"0";"0";"FINISHED";"LEFT";"success";"349";"0";"2014-10-16 11:28:09.734";"1";;;;;;;;;;;;;;;;;;;;;;;;;;;;;;;;;;;;;;;;;;;;;
"parkerk2";;;"Windows 7";"Rachel's Experiment (D.T.)";"1.0";"2";"1";"1";"2";"1";"1";"2014-10-16 11:24:15.455";"2014-10-16 11:36:50.664";"1";"1";"0";"60";"59";"module.training_block2.exec-9292.GoNoGo2";;;;;;;;;;;;;;;;;;;;;;;;;;;;;;;;;;;"1257";"2014-10-16 11:28:13.541";"NST_correctLoc";"29";"0";"FINISHED";"LEFT";"success";"354";"0";"2014-10-16 11:28:12.277";"3";;;;;;;;;;;;;;;;;;;;;;;;;;;;;;;;;;;;;;;;;;;;;
"parkerk2";;;"Windows 7";"Rachel's Experiment (D.T.)";"1.0";"2";"1";"1";"2";"1";"1";"2014-10-16 11:24:15.455";"2014-10-16 11:36:50.664";"1";"1";"0";"61";"60";"module.training_block2.exec-9292.GoNoGo2";;;;;;;;;;;;;;;;;;;;;;;;;;;;;;;;;;;"1258";"2014-10-16 11:28:16.084";"NST_correctLoc";"1";"0";"FINISHED";"LEFT";"success";"372";"0";"2014-10-16 11:28:14.820";"1";;;;;;;;;;;;;;;;;;;;;;;;;;;;;;;;;;;;;;;;;;;;;
"parkerk2";;;"Windows 7";"Rachel's Experiment (D.T.)";"1.0";"2";"1";"1";"2";"1";"1";"2014-10-16 11:24:15.455";"2014-10-16 11:36:50.664";"1";"1";"0";"62";"61";"module.training_block2.exec-9292.GoNoGo2";;;;;;;;;;;;;;;;;;;;;;;;;;;;;;;;;;;"1257";"2014-10-16 11:28:18.627";"NST_correctLoc";"9";"0";"FINISHED";"LEFT";"success";"308";"0";"2014-10-16 11:28:17.363";"2";;;;;;;;;;;;;;;;;;;;;;;;;;;;;;;;;;;;;;;;;;;;;
"parkerk2";;;"Windows 7";"Rachel's Experiment (D.T.)";"1.0";"2";"1";"1";"2";"1";"1";"2014-10-16 11:24:15.455";"2014-10-16 11:36:50.664";"1";"1";"0";"63";"62";"module.training_block2.exec-9292.GoNoGo2";;;;;;;;;;;;;;;;;;;;;;;;;;;;;;;;;;;"1258";"2014-10-16 11:28:21.170";"NST_correctLoc";"20";"0";"FINISHED";"LEFT";"success";"318";"0";"2014-10-16 11:28:19.906";"3";;;;;;;;;;;;;;;;;;;;;;;;;;;;;;;;;;;;;;;;;;;;;
"parkerk2";;;"Windows 7";"Rachel's Experiment (D.T.)";"1.0";"2";"1";"1";"2";"1";"1";"2014-10-16 11:24:15.455";"2014-10-16 11:36:50.664";"1";"1";"0";"64";"63";"module.training_block2.exec-9292.GoNoGo2";;;;;;;;;;;;;;;;;;;;;;;;;;;;;;;;;;;"1261";"2014-10-16 11:28:23.713";"NST_correctLoc";"35";"1";"FINISHED";"RIGHT";"success";"323";"0";"2014-10-16 11:28:22.449";"3";;;;;;;;;;;;;;;;;;;;;;;;;;;;;;;;;;;;;;;;;;;;;
"parkerk2";;;"Windows 7";"Rachel's Experiment (D.T.)";"1.0";"2";"1";"1";"2";"1";"1";"2014-10-16 11:24:15.455";"2014-10-16 11:36:50.664";"1";"1";"0";"65";"64";"module.training_block2.exec-9292.GoNoGo2";;;;;;;;;;;;;;;;;;;;;;;;;;;;;;;;;;;"1257";"2014-10-16 11:28:26.256";"NST_correctLoc";"27";"1";"FINISHED";"RIGHT";"success";"304";"0";"2014-10-16 11:28:24.992";"3";;;;;;;;;;;;;;;;;;;;;;;;;;;;;;;;;;;;;;;;;;;;;
"parkerk2";;;"Windows 7";"Rachel's Experiment (D.T.)";"1.0";"2";"1";"1";"2";"1";"1";"2014-10-16 11:24:15.455";"2014-10-16 11:36:50.664";"1";"1";"0";"66";"65";"module.training_block2.exec-9292.GoNoGo2";;;;;;;;;;;;;;;;;;;;;;;;;;;;;;;;;;;"1257";"2014-10-16 11:28:28.798";"NST_correctLoc";"6";"0";"FINISHED";"LEFT";"success";"329";"0";"2014-10-16 11:28:27.535";"1";;;;;;;;;;;;;;;;;;;;;;;;;;;;;;;;;;;;;;;;;;;;;
"parkerk2";;;"Windows 7";"Rachel's Experiment (D.T.)";"1.0";"2";"1";"1";"2";"1";"1";"2014-10-16 11:24:15.455";"2014-10-16 11:36:50.664";"1";"1";"0";"67";"66";"module.training_block2.exec-9292.GoNoGo2";;;;;;;;;;;;;;;;;;;;;;;;;;;;;;;;;;;"1261";"2014-10-16 11:28:31.341";"NST_correctLoc";"4";"1";"FINISHED";"RIGHT";"success";"302";"0";"2014-10-16 11:28:30.078";"1";;;;;;;;;;;;;;;;;;;;;;;;;;;;;;;;;;;;;;;;;;;;;
"parkerk2";;;"Windows 7";"Rachel's Experiment (D.T.)";"1.0";"2";"1";"1";"2";"1";"1";"2014-10-16 11:24:15.455";"2014-10-16 11:36:50.664";"1";"1";"0";"68";"67";"module.training_block2.exec-9292.GoNoGo2";;;;;;;;;;;;;;;;;;;;;;;;;;;;;;;;;;;"1258";"2014-10-16 11:28:33.884";"NST_correctLoc";"22";"1";"FINISHED";"RIGHT";"success";"340";"0";"2014-10-16 11:28:32.621";"3";;;;;;;;;;;;;;;;;;;;;;;;;;;;;;;;;;;;;;;;;;;;;
"parkerk2";;;"Windows 7";"Rachel's Experiment (D.T.)";"1.0";"2";"1";"1";"2";"1";"1";"2014-10-16 11:24:15.455";"2014-10-16 11:36:50.664";"1";"1";"0";"69";"68";"module.training_block2.exec-9292.GoNoGo2";;;;;;;;;;;;;;;;;;;;;;;;;;;;;;;;;;;"1257";"2014-10-16 11:28:36.427";"NST_correctLoc";"7";"1";"FINISHED";"RIGHT";"success";"333";"0";"2014-10-16 11:28:35.164";"1";;;;;;;;;;;;;;;;;;;;;;;;;;;;;;;;;;;;;;;;;;;;;
"parkerk2";;;"Windows 7";"Rachel's Experiment (D.T.)";"1.0";"2";"1";"1";"2";"1";"1";"2014-10-16 11:24:15.455";"2014-10-16 11:36:50.664";"1";"1";"0";"70";"69";"module.training_block2.exec-9292.GoNoGo2";;;;;;;;;;;;;;;;;;;;;;;;;;;;;;;;;;;"1261";"2014-10-16 11:28:38.970";"NST_correctLoc";"19";"1";"FINISHED";"RIGHT";"success";"362";"0";"2014-10-16 11:28:37.707";"3";;;;;;;;;;;;;;;;;;;;;;;;;;;;;;;;;;;;;;;;;;;;;
"parkerk2";;;"Windows 7";"Rachel's Experiment (D.T.)";"1.0";"2";"1";"1";"2";"1";"1";"2014-10-16 11:24:15.455";"2014-10-16 11:36:50.664";"1";"1";"0";"71";"70";"module.training_block2.exec-9292.GoNoGo2";;;;;;;;;;;;;;;;;;;;;;;;;;;;;;;;;;;"1258";"2014-10-16 11:28:41.513";"NST_correctLoc";"25";"0";"FINISHED";"LEFT";"success";"312";"0";"2014-10-16 11:28:40.250";"3";;;;;;;;;;;;;;;;;;;;;;;;;;;;;;;;;;;;;;;;;;;;;
"parkerk2";;;"Windows 7";"Rachel's Experiment (D.T.)";"1.0";"2";"1";"1";"2";"1";"1";"2014-10-16 11:24:15.455";"2014-10-16 11:36:50.664";"1";"1";"0";"72";"71";"module.training_block2.exec-9292.GoNoGo2";;;;;;;;;;;;;;;;;;;;;;;;;;;;;;;;;;;"1258";"2014-10-16 11:28:44.056";"NST_correctLoc";"11";"0";"FINISHED";"LEFT";"success";"305";"0";"2014-10-16 11:28:42.792";"2";;;;;;;;;;;;;;;;;;;;;;;;;;;;;;;;;;;;;;;;;;;;;
"parkerk2";;;"Windows 7";"Rachel's Experiment (D.T.)";"1.0";"2";"1";"1";"2";"1";"1";"2014-10-16 11:24:15.455";"2014-10-16 11:36:50.664";"1";"1";"0";"73";"72";"module.training_block2.exec-9292.GoNoGo2";;;;;;;;;;;;;;;;;;;;;;;;;;;;;;;;;;;"1257";"2014-10-16 11:28:46.615";"NST_correctLoc";"26";"1";"FINISHED";"RIGHT";"success";"274";"0";"2014-10-16 11:28:45.351";"3";;;;;;;;;;;;;;;;;;;;;;;;;;;;;;;;;;;;;;;;;;;;;
"parkerk2";;;"Windows 7";"Rachel's Experiment (D.T.)";"1.0";"2";"1";"1";"2";"1";"1";"2014-10-16 11:24:15.455";"2014-10-16 11:36:50.664";"1";"1";"0";"74";"73";"module.training_block2.exec-9292.GoNoGo2";;;;;;;;;;;;;;;;;;;;;;;;;;;;;;;;;;;"1257";"2014-10-16 11:28:49.158";"NST_correctLoc";"14";"1";"FINISHED";"RIGHT";"success";"307";"0";"2014-10-16 11:28:47.894";"2";;;;;;;;;;;;;;;;;;;;;;;;;;;;;;;;;;;;;;;;;;;;;
"parkerk2";;;"Windows 7";"Rachel's Experiment (D.T.)";"1.0";"2";"1";"1";"2";"1";"1";"2014-10-16 11:24:15.455";"2014-10-16 11:36:50.664";"1";"1";"0";"75";"74";"module.training_block2.exec-9292.GoNoGo2";;;;;;;;;;;;;;;;;;;;;;;;;;;;;;;;;;;"1261";"2014-10-16 11:28:51.701";"NST_correctLoc";"24";"1";"FINISHED";"RIGHT";"success";"304";"0";"2014-10-16 11:28:50.437";"3";;;;;;;;;;;;;;;;;;;;;;;;;;;;;;;;;;;;;;;;;;;;;
"parkerk2";;;"Windows 7";"Rachel's Experiment (D.T.)";"1.0";"2";"1";"1";"2";"1";"1";"2014-10-16 11:24:15.455";"2014-10-16 11:36:50.664";"1";"1";"0";"76";"75";"module.training_block2.exec-9292.GoNoGo2";;;;;;;;;;;;;;;;;;;;;;;;;;;;;;;;;;;"1257";"2014-10-16 11:28:54.275";"NST_correctLoc";"23";"0";"FINISHED";"LEFT";"success";"270";"0";"2014-10-16 11:28:53.011";"3";;;;;;;;;;;;;;;;;;;;;;;;;;;;;;;;;;;;;;;;;;;;;
"parkerk2";;;"Windows 7";"Rachel's Experiment (D.T.)";"1.0";"2";"1";"1";"2";"1";"1";"2014-10-16 11:24:15.455";"2014-10-16 11:36:50.664";"1";"1";"0";"77";"76";"module.training_block2.exec-9292.GoNoGo2";;;;;;;;;;;;;;;;;;;;;;;;;;;;;;;;;;;"1258";"2014-10-16 11:28:56.818";"NST_correctLoc";"33";"1";"FINISHED";"RIGHT";"success";"304";"0";"2014-10-16 11:28:55.554";"3";;;;;;;;;;;;;;;;;;;;;;;;;;;;;;;;;;;;;;;;;;;;;
"parkerk2";;;"Windows 7";"Rachel's Experiment (D.T.)";"1.0";"2";"1";"1";"2";"1";"1";"2014-10-16 11:24:15.455";"2014-10-16 11:36:50.664";"1";"1";"0";"78";"77";"module.training_block2.exec-9292.GoNoGo2";;;;;;;;;;;;;;;;;;;;;;;;;;;;;;;;;;;"1257";"2014-10-16 11:28:59.361";"NST_correctLoc";"21";"1";"FINISHED";"RIGHT";"success";"312";"0";"2014-10-16 11:28:58.097";"3";;;;;;;;;;;;;;;;;;;;;;;;;;;;;;;;;;;;;;;;;;;;;
"parkerk2";;;"Windows 7";"Rachel's Experiment (D.T.)";"1.0";"2";"1";"1";"2";"1";"1";"2014-10-16 11:24:15.455";"2014-10-16 11:36:50.664";"1";"1";"0";"79";"78";"module.training_block2.exec-9292.GoNoGo2";;;;;;;;;;;;;;;;;;;;;;;;;;;;;;;;;;;"1261";"2014-10-16 11:29:01.904";"NST_correctLoc";"15";"0";"FINISHED";"LEFT";"success";"310";"0";"2014-10-16 11:29:00.640";"2";;;;;;;;;;;;;;;;;;;;;;;;;;;;;;;;;;;;;;;;;;;;;
"parkerk2";;;"Windows 7";"Rachel's Experiment (D.T.)";"1.0";"2";"1";"1";"2";"1";"1";"2014-10-16 11:24:15.455";"2014-10-16 11:36:50.664";"1";"1";"0";"80";"79";"module.training_block2.exec-9292.GoNoGo2";;;;;;;;;;;;;;;;;;;;;;;;;;;;;;;;;;;"1261";"2014-10-16 11:29:04.447";"NST_correctLoc";"30";"1";"FINISHED";"RIGHT";"success";"327";"0";"2014-10-16 11:29:03.183";"3";;;;;;;;;;;;;;;;;;;;;;;;;;;;;;;;;;;;;;;;;;;;;
"parkerk2";;;"Windows 7";"Rachel's Experiment (D.T.)";"1.0";"2";"1";"1";"2";"1";"1";"2014-10-16 11:24:15.455";"2014-10-16 11:36:50.664";"1";"1";"0";"81";"80";"module.training_block2.exec-9292.GoNoGo2";;;;;;;;;;;;;;;;;;;;;;;;;;;;;;;;;;;"1257";"2014-10-16 11:29:06.989";"NST_correctLoc";"31";"0";"FINISHED";"LEFT";"success";"284";"0";"2014-10-16 11:29:05.726";"3";;;;;;;;;;;;;;;;;;;;;;;;;;;;;;;;;;;;;;;;;;;;;
"parkerk2";;;"Windows 7";"Rachel's Experiment (D.T.)";"1.0";"2";"1";"1";"2";"1";"1";"2014-10-16 11:24:15.455";"2014-10-16 11:36:50.664";"1";"1";"0";"82";"81";"module.training_block2.exec-9292.GoNoGo2";;;;;;;;;;;;;;;;;;;;;;;;;;;;;;;;;;;"1261";"2014-10-16 11:29:09.532";"NST_correctLoc";"10";"1";"FINISHED";"RIGHT";"success";"281";"0";"2014-10-16 11:29:08.269";"2";;;;;;;;;;;;;;;;;;;;;;;;;;;;;;;;;;;;;;;;;;;;;
"parkerk2";;;"Windows 7";"Rachel's Experiment (D.T.)";"1.0";"2";"1";"1";"2";"1";"1";"2014-10-16 11:24:15.455";"2014-10-16 11:36:50.664";"1";"1";"0";"83";"82";"module.training_block2.exec-9292.GoNoGo2";;;;;;;;;;;;;;;;;;;;;;;;;;;;;;;;;;;"1258";"2014-10-16 11:29:12.075";"NST_correctLoc";"34";"1";"FINISHED";"RIGHT";"success";"343";"0";"2014-10-16 11:29:10.812";"3";;;;;;;;;;;;;;;;;;;;;;;;;;;;;;;;;;;;;;;;;;;;;
"parkerk2";;;"Windows 7";"Rachel's Experiment (D.T.)";"1.0";"2";"1";"1";"2";"1";"1";"2014-10-16 11:24:15.455";"2014-10-16 11:36:50.664";"1";"1";"0";"84";"83";"module.training_block2.exec-9292.GoNoGo2";;;;;;;;;;;;;;;;;;;;;;;;;;;;;;;;;;;"1257";"2014-10-16 11:29:14.618";"NST_correctLoc";"32";"1";"FINISHED";"RIGHT";"success";"288";"0";"2014-10-16 11:29:13.355";"3";;;;;;;;;;;;;;;;;;;;;;;;;;;;;;;;;;;;;;;;;;;;;
"parkerk2";;;"Windows 7";"Rachel's Experiment (D.T.)";"1.0";"2";"1";"1";"2";"1";"1";"2014-10-16 11:24:15.455";"2014-10-16 11:36:50.664";"1";"1";"0";"85";"84";"module.training_block2.exec-9292.GoNoGo2";;;;;;;;;;;;;;;;;;;;;;;;;;;;;;;;;;;"1257";"2014-10-16 11:29:17.161";"NST_correctLoc";"17";"1";"FINISHED";"RIGHT";"success";"329";"0";"2014-10-16 11:29:15.898";"2";;;;;;;;;;;;;;;;;;;;;;;;;;;;;;;;;;;;;;;;;;;;;
"parkerk2";;;"Windows 7";"Rachel's Experiment (D.T.)";"1.0";"2";"1";"1";"2";"1";"1";"2014-10-16 11:24:15.455";"2014-10-16 11:36:50.664";"1";"1";"0";"86";"85";"module.training_block2.exec-9292.GoNoGo2";;;;;;;;;;;;;;;;;;;;;;;;;;;;;;;;;;;"1257";"2014-10-16 11:29:19.704";"NST_correctLoc";"28";"0";"FINISHED";"LEFT";"success";"330";"0";"2014-10-16 11:29:18.441";"3";;;;;;;;;;;;;;;;;;;;;;;;;;;;;;;;;;;;;;;;;;;;;
"parkerk2";;;"Windows 7";"Rachel's Experiment (D.T.)";"1.0";"2";"1";"1";"2";"1";"1";"2014-10-16 11:24:15.455";"2014-10-16 11:36:50.664";"1";"1";"0";"87";"86";"module.training_block2.exec-9292.GoNoGo2";;;;;;;;;;;;;;;;;;;;;;;;;;;;;;;;;;;"1258";"2014-10-16 11:29:22.247";"NST_correctLoc";"18";"1";"FINISHED";"RIGHT";"success";"348";"0";"2014-10-16 11:29:20.983";"3";;;;;;;;;;;;;;;;;;;;;;;;;;;;;;;;;;;;;;;;;;;;;
"parkerk2";;;"Windows 7";"Rachel's Experiment (D.T.)";"1.0";"2";"1";"1";"2";"1";"1";"2014-10-16 11:24:15.455";"2014-10-16 11:36:50.664";"1";"1";"0";"88";"87";"module.training_block3.exec-4523.GoNoGo3";;;;;;;;;;;;;;;;;;;;;;;;;;;;;;;;;;;;;;;;;;;;;;;"1261";"2014-10-16 11:29:33.183";"NST_correctLoc";"32";"1";"FINISHED";"RIGHT";"success";"280";"0";"2014-10-16 11:29:31.920";"3";;;;;;;;;;;;;;;;;;;;;;;;;;;;;;;;;
"parkerk2";;;"Windows 7";"Rachel's Experiment (D.T.)";"1.0";"2";"1";"1";"2";"1";"1";"2014-10-16 11:24:15.455";"2014-10-16 11:36:50.664";"1";"1";"0";"89";"88";"module.training_block3.exec-4523.GoNoGo3";;;;;;;;;;;;;;;;;;;;;;;;;;;;;;;;;;;;;;;;;;;;;;;"1261";"2014-10-16 11:29:35.726";"NST_correctLoc";"1";"1";"FINISHED";"RIGHT";"success";"345";"0";"2014-10-16 11:29:34.463";"1";;;;;;;;;;;;;;;;;;;;;;;;;;;;;;;;;
"parkerk2";;;"Windows 7";"Rachel's Experiment (D.T.)";"1.0";"2";"1";"1";"2";"1";"1";"2014-10-16 11:24:15.455";"2014-10-16 11:36:50.664";"1";"1";"0";"90";"89";"module.training_block3.exec-4523.GoNoGo3";;;;;;;;;;;;;;;;;;;;;;;;;;;;;;;;;;;;;;;;;;;;;;;"1261";"2014-10-16 11:29:38.269";"NST_correctLoc";"0";"1";"FINISHED";"RIGHT";"success";"298";"0";"2014-10-16 11:29:37.006";"1";;;;;;;;;;;;;;;;;;;;;;;;;;;;;;;;;
"parkerk2";;;"Windows 7";"Rachel's Experiment (D.T.)";"1.0";"2";"1";"1";"2";"1";"1";"2014-10-16 11:24:15.455";"2014-10-16 11:36:50.664";"1";"1";"0";"91";"90";"module.training_block3.exec-4523.GoNoGo3";;;;;;;;;;;;;;;;;;;;;;;;;;;;;;;;;;;;;;;;;;;;;;;"1261";"2014-10-16 11:29:40.812";"NST_correctLoc";"19";"1";"FINISHED";"RIGHT";"success";"315";"0";"2014-10-16 11:29:39.549";"3";;;;;;;;;;;;;;;;;;;;;;;;;;;;;;;;;
"parkerk2";;;"Windows 7";"Rachel's Experiment (D.T.)";"1.0";"2";"1";"1";"2";"1";"1";"2014-10-16 11:24:15.455";"2014-10-16 11:36:50.664";"1";"1";"0";"92";"91";"module.training_block3.exec-4523.GoNoGo3";;;;;;;;;;;;;;;;;;;;;;;;;;;;;;;;;;;;;;;;;;;;;;;"1261";"2014-10-16 11:29:43.355";"NST_correctLoc";"5";"0";"FINISHED";"LEFT";"success";"316";"0";"2014-10-16 11:29:42.092";"1";;;;;;;;;;;;;;;;;;;;;;;;;;;;;;;;;
"parkerk2";;;"Windows 7";"Rachel's Experiment (D.T.)";"1.0";"2";"1";"1";"2";"1";"1";"2014-10-16 11:24:15.455";"2014-10-16 11:36:50.664";"1";"1";"0";"93";"92";"module.training_block3.exec-4523.GoNoGo3";;;;;;;;;;;;;;;;;;;;;;;;;;;;;;;;;;;;;;;;;;;;;;;"1261";"2014-10-16 11:29:45.898";"NST_correctLoc";"33";"0";"FINISHED";"LEFT";"success";"342";"0";"2014-10-16 11:29:44.634";"3";;;;;;;;;;;;;;;;;;;;;;;;;;;;;;;;;
"parkerk2";;;"Windows 7";"Rachel's Experiment (D.T.)";"1.0";"2";"1";"1";"2";"1";"1";"2014-10-16 11:24:15.455";"2014-10-16 11:36:50.664";"1";"1";"0";"94";"93";"module.training_block3.exec-4523.GoNoGo3";;;;;;;;;;;;;;;;;;;;;;;;;;;;;;;;;;;;;;;;;;;;;;;"1261";"2014-10-16 11:29:48.441";"NST_correctLoc";"30";"0";"FINISHED";"LEFT";"success";"335";"0";"2014-10-16 11:29:47.177";"3";;;;;;;;;;;;;;;;;;;;;;;;;;;;;;;;;
"parkerk2";;;"Windows 7";"Rachel's Experiment (D.T.)";"1.0";"2";"1";"1";"2";"1";"1";"2014-10-16 11:24:15.455";"2014-10-16 11:36:50.664";"1";"1";"0";"95";"94";"module.training_block3.exec-4523.GoNoGo3";;;;;;;;;;;;;;;;;;;;;;;;;;;;;;;;;;;;;;;;;;;;;;;"1261";"2014-10-16 11:29:50.984";"NST_correctLoc";"22";"1";"FINISHED";"RIGHT";"success";"312";"0";"2014-10-16 11:29:49.720";"3";;;;;;;;;;;;;;;;;;;;;;;;;;;;;;;;;
"parkerk2";;;"Windows 7";"Rachel's Experiment (D.T.)";"1.0";"2";"1";"1";"2";"1";"1";"2014-10-16 11:24:15.455";"2014-10-16 11:36:50.664";"1";"1";"0";"96";"95";"module.training_block3.exec-4523.GoNoGo3";;;;;;;;;;;;;;;;;;;;;;;;;;;;;;;;;;;;;;;;;;;;;;;"1261";"2014-10-16 11:29:53.527";"NST_correctLoc";"15";"0";"FINISHED";"LEFT";"success";"313";"0";"2014-10-16 11:29:52.263";"2";;;;;;;;;;;;;;;;;;;;;;;;;;;;;;;;;
"parkerk2";;;"Windows 7";"Rachel's Experiment (D.T.)";"1.0";"2";"1";"1";"2";"1";"1";"2014-10-16 11:24:15.455";"2014-10-16 11:36:50.664";"1";"1";"0";"97";"96";"module.training_block3.exec-4523.GoNoGo3";;;;;;;;;;;;;;;;;;;;;;;;;;;;;;;;;;;;;;;;;;;;;;;"1261";"2014-10-16 11:29:56.086";"NST_correctLoc";"14";"1";"FINISHED";"RIGHT";"success";"347";"0";"2014-10-16 11:29:54.822";"2";;;;;;;;;;;;;;;;;;;;;;;;;;;;;;;;;
"parkerk2";;;"Windows 7";"Rachel's Experiment (D.T.)";"1.0";"2";"1";"1";"2";"1";"1";"2014-10-16 11:24:15.455";"2014-10-16 11:36:50.664";"1";"1";"0";"98";"97";"module.training_block3.exec-4523.GoNoGo3";;;;;;;;;;;;;;;;;;;;;;;;;;;;;;;;;;;;;;;;;;;;;;;"1261";"2014-10-16 11:29:58.628";"NST_correctLoc";"6";"0";"FINISHED";"LEFT";"success";"372";"0";"2014-10-16 11:29:57.365";"1";;;;;;;;;;;;;;;;;;;;;;;;;;;;;;;;;
"parkerk2";;;"Windows 7";"Rachel's Experiment (D.T.)";"1.0";"2";"1";"1";"2";"1";"1";"2014-10-16 11:24:15.455";"2014-10-16 11:36:50.664";"1";"1";"0";"99";"98";"module.training_block3.exec-4523.GoNoGo3";;;;;;;;;;;;;;;;;;;;;;;;;;;;;;;;;;;;;;;;;;;;;;;"1261";"2014-10-16 11:30:01.171";"NST_correctLoc";"34";"0";"FINISHED";"LEFT";"success";"309";"0";"2014-10-16 11:29:59.908";"3";;;;;;;;;;;;;;;;;;;;;;;;;;;;;;;;;
"parkerk2";;;"Windows 7";"Rachel's Experiment (D.T.)";"1.0";"2";"1";"1";"2";"1";"1";"2014-10-16 11:24:15.455";"2014-10-16 11:36:50.664";"1";"1";"0";"100";"99";"module.training_block3.exec-4523.GoNoGo3";;;;;;;;;;;;;;;;;;;;;;;;;;;;;;;;;;;;;;;;;;;;;;;"1261";"2014-10-16 11:30:03.714";"NST_correctLoc";"2";"0";"FINISHED";"LEFT";"success";"294";"0";"2014-10-16 11:30:02.451";"1";;;;;;;;;;;;;;;;;;;;;;;;;;;;;;;;;
"parkerk2";;;"Windows 7";"Rachel's Experiment (D.T.)";"1.0";"2";"1";"1";"2";"1";"1";"2014-10-16 11:24:15.455";"2014-10-16 11:36:50.664";"1";"1";"0";"101";"100";"module.training_block3.exec-4523.GoNoGo3";;;;;;;;;;;;;;;;;;;;;;;;;;;;;;;;;;;;;;;;;;;;;;;"1261";"2014-10-16 11:30:06.257";"NST_correctLoc";"21";"1";"FINISHED";"RIGHT";"success";"343";"0";"2014-10-16 11:30:04.994";"3";;;;;;;;;;;;;;;;;;;;;;;;;;;;;;;;;
"parkerk2";;;"Windows 7";"Rachel's Experiment (D.T.)";"1.0";"2";"1";"1";"2";"1";"1";"2014-10-16 11:24:15.455";"2014-10-16 11:36:50.664";"1";"1";"0";"102";"101";"module.training_block3.exec-4523.GoNoGo3";;;;;;;;;;;;;;;;;;;;;;;;;;;;;;;;;;;;;;;;;;;;;;;"1257";"2014-10-16 11:30:08.800";"NST_correctLoc";"4";"0";"FINISHED";"LEFT";"success";"308";"0";"2014-10-16 11:30:07.537";"1";;;;;;;;;;;;;;;;;;;;;;;;;;;;;;;;;
"parkerk2";;;"Windows 7";"Rachel's Experiment (D.T.)";"1.0";"2";"1";"1";"2";"1";"1";"2014-10-16 11:24:15.455";"2014-10-16 11:36:50.664";"1";"1";"0";"103";"102";"module.training_block3.exec-4523.GoNoGo3";;;;;;;;;;;;;;;;;;;;;;;;;;;;;;;;;;;;;;;;;;;;;;;"1261";"2014-10-16 11:30:11.343";"NST_correctLoc";"11";"0";"FINISHED";"LEFT";"success";"346";"0";"2014-10-16 11:30:10.080";"2";;;;;;;;;;;;;;;;;;;;;;;;;;;;;;;;;
"parkerk2";;;"Windows 7";"Rachel's Experiment (D.T.)";"1.0";"2";"1";"1";"2";"1";"1";"2014-10-16 11:24:15.455";"2014-10-16 11:36:50.664";"1";"1";"0";"104";"103";"module.training_block3.exec-4523.GoNoGo3";;;;;;;;;;;;;;;;;;;;;;;;;;;;;;;;;;;;;;;;;;;;;;;"1261";"2014-10-16 11:30:13.886";"NST_correctLoc";"17";"1";"FINISHED";"RIGHT";"success";"347";"0";"2014-10-16 11:30:12.622";"2";;;;;;;;;;;;;;;;;;;;;;;;;;;;;;;;;
"parkerk2";;;"Windows 7";"Rachel's Experiment (D.T.)";"1.0";"2";"1";"1";"2";"1";"1";"2014-10-16 11:24:15.455";"2014-10-16 11:36:50.664";"1";"1";"0";"105";"104";"module.training_block3.exec-4523.GoNoGo3";;;;;;;;;;;;;;;;;;;;;;;;;;;;;;;;;;;;;;;;;;;;;;;"1261";"2014-10-16 11:30:16.429";"NST_correctLoc";"8";"1";"FINISHED";"RIGHT";"success";"340";"0";"2014-10-16 11:30:15.165";"1";;;;;;;;;;;;;;;;;;;;;;;;;;;;;;;;;
"parkerk2";;;"Windows 7";"Rachel's Experiment (D.T.)";"1.0";"2";"1";"1";"2";"1";"1";"2014-10-16 11:24:15.455";"2014-10-16 11:36:50.664";"1";"1";"0";"106";"105";"module.training_block3.exec-4523.GoNoGo3";;;;;;;;;;;;;;;;;;;;;;;;;;;;;;;;;;;;;;;;;;;;;;;"1261";"2014-10-16 11:30:18.972";"NST_correctLoc";"20";"0";"FINISHED";"LEFT";"success";"469";"0";"2014-10-16 11:30:17.708";"3";;;;;;;;;;;;;;;;;;;;;;;;;;;;;;;;;
"parkerk2";;;"Windows 7";"Rachel's Experiment (D.T.)";"1.0";"2";"1";"1";"2";"1";"1";"2014-10-16 11:24:15.455";"2014-10-16 11:36:50.664";"1";"1";"0";"107";"106";"module.training_block3.exec-4523.GoNoGo3";;;;;;;;;;;;;;;;;;;;;;;;;;;;;;;;;;;;;;;;;;;;;;;"1261";"2014-10-16 11:30:21.515";"NST_correctLoc";"9";"1";"FINISHED";"RIGHT";"success";"318";"0";"2014-10-16 11:30:20.251";"2";;;;;;;;;;;;;;;;;;;;;;;;;;;;;;;;;
"parkerk2";;;"Windows 7";"Rachel's Experiment (D.T.)";"1.0";"2";"1";"1";"2";"1";"1";"2014-10-16 11:24:15.455";"2014-10-16 11:36:50.664";"1";"1";"0";"108";"107";"module.training_block3.exec-4523.GoNoGo3";;;;;;;;;;;;;;;;;;;;;;;;;;;;;;;;;;;;;;;;;;;;;;;"1261";"2014-10-16 11:30:24.058";"NST_correctLoc";"10";"0";"FINISHED";"LEFT";"success";"296";"0";"2014-10-16 11:30:22.794";"2";;;;;;;;;;;;;;;;;;;;;;;;;;;;;;;;;
"parkerk2";;;"Windows 7";"Rachel's Experiment (D.T.)";"1.0";"2";"1";"1";"2";"1";"1";"2014-10-16 11:24:15.455";"2014-10-16 11:36:50.664";"1";"1";"0";"109";"108";"module.training_block3.exec-4523.GoNoGo3";;;;;;;;;;;;;;;;;;;;;;;;;;;;;;;;;;;;;;;;;;;;;;;"1261";"2014-10-16 11:30:26.585";"NST_correctLoc";"24";"0";"FINISHED";"LEFT";"success";"312";"0";"2014-10-16 11:30:25.322";"3";;;;;;;;;;;;;;;;;;;;;;;;;;;;;;;;;
"parkerk2";;;"Windows 7";"Rachel's Experiment (D.T.)";"1.0";"2";"1";"1";"2";"1";"1";"2014-10-16 11:24:15.455";"2014-10-16 11:36:50.664";"1";"1";"0";"110";"109";"module.training_block3.exec-4523.GoNoGo3";;;;;;;;;;;;;;;;;;;;;;;;;;;;;;;;;;;;;;;;;;;;;;;"1261";"2014-10-16 11:30:29.128";"NST_correctLoc";"28";"0";"FINISHED";"LEFT";"success";"306";"0";"2014-10-16 11:30:27.865";"3";;;;;;;;;;;;;;;;;;;;;;;;;;;;;;;;;
"parkerk2";;;"Windows 7";"Rachel's Experiment (D.T.)";"1.0";"2";"1";"1";"2";"1";"1";"2014-10-16 11:24:15.455";"2014-10-16 11:36:50.664";"1";"1";"0";"111";"110";"module.training_block3.exec-4523.GoNoGo3";;;;;;;;;;;;;;;;;;;;;;;;;;;;;;;;;;;;;;;;;;;;;;;"1261";"2014-10-16 11:30:31.687";"NST_correctLoc";"26";"1";"FINISHED";"RIGHT";"success";"307";"0";"2014-10-16 11:30:30.423";"3";;;;;;;;;;;;;;;;;;;;;;;;;;;;;;;;;
"parkerk2";;;"Windows 7";"Rachel's Experiment (D.T.)";"1.0";"2";"1";"1";"2";"1";"1";"2014-10-16 11:24:15.455";"2014-10-16 11:36:50.664";"1";"1";"0";"112";"111";"module.training_block3.exec-4523.GoNoGo3";;;;;;;;;;;;;;;;;;;;;;;;;;;;;;;;;;;;;;;;;;;;;;;"1261";"2014-10-16 11:30:34.230";"NST_correctLoc";"18";"1";"FINISHED";"RIGHT";"success";"348";"0";"2014-10-16 11:30:32.966";"3";;;;;;;;;;;;;;;;;;;;;;;;;;;;;;;;;
"parkerk2";;;"Windows 7";"Rachel's Experiment (D.T.)";"1.0";"2";"1";"1";"2";"1";"1";"2014-10-16 11:24:15.455";"2014-10-16 11:36:50.664";"1";"1";"0";"113";"112";"module.training_block3.exec-4523.GoNoGo3";;;;;;;;;;;;;;;;;;;;;;;;;;;;;;;;;;;;;;;;;;;;;;;"1261";"2014-10-16 11:30:36.773";"NST_correctLoc";"31";"0";"FINISHED";"LEFT";"success";"334";"0";"2014-10-16 11:30:35.509";"3";;;;;;;;;;;;;;;;;;;;;;;;;;;;;;;;;
"parkerk2";;;"Windows 7";"Rachel's Experiment (D.T.)";"1.0";"2";"1";"1";"2";"1";"1";"2014-10-16 11:24:15.455";"2014-10-16 11:36:50.664";"1";"1";"0";"114";"113";"module.training_block3.exec-4523.GoNoGo3";;;;;;;;;;;;;;;;;;;;;;;;;;;;;;;;;;;;;;;;;;;;;;;"1261";"2014-10-16 11:30:39.316";"NST_correctLoc";"27";"0";"FINISHED";"LEFT";"success";"519";"0";"2014-10-16 11:30:38.052";"3";;;;;;;;;;;;;;;;;;;;;;;;;;;;;;;;;
"parkerk2";;;"Windows 7";"Rachel's Experiment (D.T.)";"1.0";"2";"1";"1";"2";"1";"1";"2014-10-16 11:24:15.455";"2014-10-16 11:36:50.664";"1";"1";"0";"115";"114";"module.training_block3.exec-4523.GoNoGo3";;;;;;;;;;;;;;;;;;;;;;;;;;;;;;;;;;;;;;;;;;;;;;;"1261";"2014-10-16 11:30:41.859";"NST_correctLoc";"12";"1";"FINISHED";"RIGHT";"success";"328";"0";"2014-10-16 11:30:40.595";"2";;;;;;;;;;;;;;;;;;;;;;;;;;;;;;;;;
"parkerk2";;;"Windows 7";"Rachel's Experiment (D.T.)";"1.0";"2";"1";"1";"2";"1";"1";"2014-10-16 11:24:15.455";"2014-10-16 11:36:50.664";"1";"1";"0";"116";"115";"module.training_block3.exec-4523.GoNoGo3";;;;;;;;;;;;;;;;;;;;;;;;;;;;;;;;;;;;;;;;;;;;;;;"1261";"2014-10-16 11:30:44.401";"NST_correctLoc";"7";"0";"FINISHED";"LEFT";"success";"337";"0";"2014-10-16 11:30:43.138";"1";;;;;;;;;;;;;;;;;;;;;;;;;;;;;;;;;
"parkerk2";;;"Windows 7";"Rachel's Experiment (D.T.)";"1.0";"2";"1";"1";"2";"1";"1";"2014-10-16 11:24:15.455";"2014-10-16 11:36:50.664";"1";"1";"0";"117";"116";"module.training_block3.exec-4523.GoNoGo3";;;;;;;;;;;;;;;;;;;;;;;;;;;;;;;;;;;;;;;;;;;;;;;"1261";"2014-10-16 11:30:46.944";"NST_correctLoc";"23";"1";"FINISHED";"RIGHT";"success";"314";"0";"2014-10-16 11:30:45.681";"3";;;;;;;;;;;;;;;;;;;;;;;;;;;;;;;;;
"parkerk2";;;"Windows 7";"Rachel's Experiment (D.T.)";"1.0";"2";"1";"1";"2";"1";"1";"2014-10-16 11:24:15.455";"2014-10-16 11:36:50.664";"1";"1";"0";"118";"117";"module.training_block3.exec-4523.GoNoGo3";;;;;;;;;;;;;;;;;;;;;;;;;;;;;;;;;;;;;;;;;;;;;;;"1261";"2014-10-16 11:30:49.487";"NST_correctLoc";"35";"1";"FINISHED";"RIGHT";"success";"339";"0";"2014-10-16 11:30:48.224";"3";;;;;;;;;;;;;;;;;;;;;;;;;;;;;;;;;
"parkerk2";;;"Windows 7";"Rachel's Experiment (D.T.)";"1.0";"2";"1";"1";"2";"1";"1";"2014-10-16 11:24:15.455";"2014-10-16 11:36:50.664";"1";"1";"0";"119";"118";"module.training_block3.exec-4523.GoNoGo3";;;;;;;;;;;;;;;;;;;;;;;;;;;;;;;;;;;;;;;;;;;;;;;"1261";"2014-10-16 11:30:52.030";"NST_correctLoc";"25";"0";"FINISHED";"LEFT";"success";"317";"0";"2014-10-16 11:30:50.767";"3";;;;;;;;;;;;;;;;;;;;;;;;;;;;;;;;;
"parkerk2";;;"Windows 7";"Rachel's Experiment (D.T.)";"1.0";"2";"1";"1";"2";"1";"1";"2014-10-16 11:24:15.455";"2014-10-16 11:36:50.664";"1";"1";"0";"120";"119";"module.training_block3.exec-4523.GoNoGo3";;;;;;;;;;;;;;;;;;;;;;;;;;;;;;;;;;;;;;;;;;;;;;;"1261";"2014-10-16 11:30:54.573";"NST_correctLoc";"13";"0";"FINISHED";"LEFT";"success";"326";"0";"2014-10-16 11:30:53.310";"2";;;;;;;;;;;;;;;;;;;;;;;;;;;;;;;;;
"parkerk2";;;"Windows 7";"Rachel's Experiment (D.T.)";"1.0";"2";"1";"1";"2";"1";"1";"2014-10-16 11:24:15.455";"2014-10-16 11:36:50.664";"1";"1";"0";"121";"120";"module.training_block3.exec-4523.GoNoGo3";;;;;;;;;;;;;;;;;;;;;;;;;;;;;;;;;;;;;;;;;;;;;;;"1261";"2014-10-16 11:30:57.116";"NST_correctLoc";"29";"1";"FINISHED";"RIGHT";"success";"287";"0";"2014-10-16 11:30:55.853";"3";;;;;;;;;;;;;;;;;;;;;;;;;;;;;;;;;
"parkerk2";;;"Windows 7";"Rachel's Experiment (D.T.)";"1.0";"2";"1";"1";"2";"1";"1";"2014-10-16 11:24:15.455";"2014-10-16 11:36:50.664";"1";"1";"0";"122";"121";"module.training_block3.exec-4523.GoNoGo3";;;;;;;;;;;;;;;;;;;;;;;;;;;;;;;;;;;;;;;;;;;;;;;"1261";"2014-10-16 11:30:59.659";"NST_correctLoc";"3";"1";"FINISHED";"RIGHT";"success";"360";"0";"2014-10-16 11:30:58.396";"1";;;;;;;;;;;;;;;;;;;;;;;;;;;;;;;;;
"parkerk2";;;"Windows 7";"Rachel's Experiment (D.T.)";"1.0";"2";"1";"1";"2";"1";"1";"2014-10-16 11:24:15.455";"2014-10-16 11:36:50.664";"1";"1";"0";"123";"122";"module.training_block3.exec-4523.GoNoGo3";;;;;;;;;;;;;;;;;;;;;;;;;;;;;;;;;;;;;;;;;;;;;;;"1261";"2014-10-16 11:31:02.202";"NST_correctLoc";"16";"1";"FINISHED";"RIGHT";"success";"321";"0";"2014-10-16 11:31:00.938";"2";;;;;;;;;;;;;;;;;;;;;;;;;;;;;;;;;
"parkerk2";;;"Windows 7";"Rachel's Experiment (D.T.)";"1.0";"2";"1";"1";"2";"1";"1";"2014-10-16 11:24:15.455";"2014-10-16 11:36:50.664";"1";"1";"0";"124";"123";"module.training_block4.exec-2051.GoNoGo4";;;;;;;;;;;;;;;;;;;;;;;;;;;;;;;;;;;;;;;;;;;;;;;;;;;;;;;;;;;"1261";"2014-10-16 11:31:12.187";"NST_correctLoc";"28";"0";"FINISHED";"LEFT";"success";"297";"0";"2014-10-16 11:31:10.923";"3";;;;;;;;;;;;;;;;;;;;;
"parkerk2";;;"Windows 7";"Rachel's Experiment (D.T.)";"1.0";"2";"1";"1";"2";"1";"1";"2014-10-16 11:24:15.455";"2014-10-16 11:36:50.664";"1";"1";"0";"125";"124";"module.training_block4.exec-2051.GoNoGo4";;;;;;;;;;;;;;;;;;;;;;;;;;;;;;;;;;;;;;;;;;;;;;;;;;;;;;;;;;;"1261";"2014-10-16 11:31:14.730";"NST_correctLoc";"0";"0";"FINISHED";"LEFT";"success";"370";"0";"2014-10-16 11:31:13.466";"1";;;;;;;;;;;;;;;;;;;;;
"parkerk2";;;"Windows 7";"Rachel's Experiment (D.T.)";"1.0";"2";"1";"1";"2";"1";"1";"2014-10-16 11:24:15.455";"2014-10-16 11:36:50.664";"1";"1";"0";"126";"125";"module.training_block4.exec-2051.GoNoGo4";;;;;;;;;;;;;;;;;;;;;;;;;;;;;;;;;;;;;;;;;;;;;;;;;;;;;;;;;;;"1261";"2014-10-16 11:31:17.257";"NST_correctLoc";"1";"0";"FINISHED";"LEFT";"success";"291";"0";"2014-10-16 11:31:15.993";"1";;;;;;;;;;;;;;;;;;;;;
"parkerk2";;;"Windows 7";"Rachel's Experiment (D.T.)";"1.0";"2";"1";"1";"2";"1";"1";"2014-10-16 11:24:15.455";"2014-10-16 11:36:50.664";"1";"1";"0";"127";"126";"module.training_block4.exec-2051.GoNoGo4";;;;;;;;;;;;;;;;;;;;;;;;;;;;;;;;;;;;;;;;;;;;;;;;;;;;;;;;;;;"1261";"2014-10-16 11:31:19.784";"NST_correctLoc";"7";"0";"FINISHED";"LEFT";"success";"300";"0";"2014-10-16 11:31:18.521";"1";;;;;;;;;;;;;;;;;;;;;
"parkerk2";;;"Windows 7";"Rachel's Experiment (D.T.)";"1.0";"2";"1";"1";"2";"1";"1";"2014-10-16 11:24:15.455";"2014-10-16 11:36:50.664";"1";"1";"0";"128";"127";"module.training_block4.exec-2051.GoNoGo4";;;;;;;;;;;;;;;;;;;;;;;;;;;;;;;;;;;;;;;;;;;;;;;;;;;;;;;;;;;"1261";"2014-10-16 11:31:22.327";"NST_correctLoc";"27";"1";"FINISHED";"RIGHT";"success";"333";"0";"2014-10-16 11:31:21.064";"3";;;;;;;;;;;;;;;;;;;;;
"parkerk2";;;"Windows 7";"Rachel's Experiment (D.T.)";"1.0";"2";"1";"1";"2";"1";"1";"2014-10-16 11:24:15.455";"2014-10-16 11:36:50.664";"1";"1";"0";"129";"128";"module.training_block4.exec-2051.GoNoGo4";;;;;;;;;;;;;;;;;;;;;;;;;;;;;;;;;;;;;;;;;;;;;;;;;;;;;;;;;;;"1261";"2014-10-16 11:31:24.855";"NST_correctLoc";"26";"0";"FINISHED";"LEFT";"success";"278";"0";"2014-10-16 11:31:23.591";"3";;;;;;;;;;;;;;;;;;;;;
"parkerk2";;;"Windows 7";"Rachel's Experiment (D.T.)";"1.0";"2";"1";"1";"2";"1";"1";"2014-10-16 11:24:15.455";"2014-10-16 11:36:50.664";"1";"1";"0";"130";"129";"module.training_block4.exec-2051.GoNoGo4";;;;;;;;;;;;;;;;;;;;;;;;;;;;;;;;;;;;;;;;;;;;;;;;;;;;;;;;;;;"1261";"2014-10-16 11:31:27.398";"NST_correctLoc";"22";"0";"FINISHED";"LEFT";"success";"407";"0";"2014-10-16 11:31:26.134";"3";;;;;;;;;;;;;;;;;;;;;
"parkerk2";;;"Windows 7";"Rachel's Experiment (D.T.)";"1.0";"2";"1";"1";"2";"1";"1";"2014-10-16 11:24:15.455";"2014-10-16 11:36:50.664";"1";"1";"0";"131";"130";"module.training_block4.exec-2051.GoNoGo4";;;;;;;;;;;;;;;;;;;;;;;;;;;;;;;;;;;;;;;;;;;;;;;;;;;;;;;;;;;"1261";"2014-10-16 11:31:29.956";"NST_correctLoc";"30";"1";"FINISHED";"RIGHT";"success";"313";"0";"2014-10-16 11:31:28.692";"3";;;;;;;;;;;;;;;;;;;;;
"parkerk2";;;"Windows 7";"Rachel's Experiment (D.T.)";"1.0";"2";"1";"1";"2";"1";"1";"2014-10-16 11:24:15.455";"2014-10-16 11:36:50.664";"1";"1";"0";"132";"131";"module.training_block4.exec-2051.GoNoGo4";;;;;;;;;;;;;;;;;;;;;;;;;;;;;;;;;;;;;;;;;;;;;;;;;;;;;;;;;;;"1261";"2014-10-16 11:31:32.483";"NST_correctLoc";"9";"1";"FINISHED";"RIGHT";"success";"321";"0";"2014-10-16 11:31:31.220";"2";;;;;;;;;;;;;;;;;;;;;
"parkerk2";;;"Windows 7";"Rachel's Experiment (D.T.)";"1.0";"2";"1";"1";"2";"1";"1";"2014-10-16 11:24:15.455";"2014-10-16 11:36:50.664";"1";"1";"0";"133";"132";"module.training_block4.exec-2051.GoNoGo4";;;;;;;;;;;;;;;;;;;;;;;;;;;;;;;;;;;;;;;;;;;;;;;;;;;;;;;;;;;"1261";"2014-10-16 11:31:35.026";"NST_correctLoc";"24";"0";"FINISHED";"LEFT";"success";"315";"0";"2014-10-16 11:31:33.763";"3";;;;;;;;;;;;;;;;;;;;;
"parkerk2";;;"Windows 7";"Rachel's Experiment (D.T.)";"1.0";"2";"1";"1";"2";"1";"1";"2014-10-16 11:24:15.455";"2014-10-16 11:36:50.664";"1";"1";"0";"134";"133";"module.training_block4.exec-2051.GoNoGo4";;;;;;;;;;;;;;;;;;;;;;;;;;;;;;;;;;;;;;;;;;;;;;;;;;;;;;;;;;;"1261";"2014-10-16 11:31:37.554";"NST_correctLoc";"19";"0";"FINISHED";"LEFT";"success";"323";"0";"2014-10-16 11:31:36.290";"3";;;;;;;;;;;;;;;;;;;;;
"parkerk2";;;"Windows 7";"Rachel's Experiment (D.T.)";"1.0";"2";"1";"1";"2";"1";"1";"2014-10-16 11:24:15.455";"2014-10-16 11:36:50.664";"1";"1";"0";"135";"134";"module.training_block4.exec-2051.GoNoGo4";;;;;;;;;;;;;;;;;;;;;;;;;;;;;;;;;;;;;;;;;;;;;;;;;;;;;;;;;;;"1261";"2014-10-16 11:31:40.097";"NST_correctLoc";"20";"1";"FINISHED";"RIGHT";"success";"301";"0";"2014-10-16 11:31:38.833";"3";;;;;;;;;;;;;;;;;;;;;
"parkerk2";;;"Windows 7";"Rachel's Experiment (D.T.)";"1.0";"2";"1";"1";"2";"1";"1";"2014-10-16 11:24:15.455";"2014-10-16 11:36:50.664";"1";"1";"0";"136";"135";"module.training_block4.exec-2051.GoNoGo4";;;;;;;;;;;;;;;;;;;;;;;;;;;;;;;;;;;;;;;;;;;;;;;;;;;;;;;;;;;"1261";"2014-10-16 11:31:42.624";"NST_correctLoc";"13";"0";"FINISHED";"LEFT";"success";"285";"0";"2014-10-16 11:31:41.360";"2";;;;;;;;;;;;;;;;;;;;;
"parkerk2";;;"Windows 7";"Rachel's Experiment (D.T.)";"1.0";"2";"1";"1";"2";"1";"1";"2014-10-16 11:24:15.455";"2014-10-16 11:36:50.664";"1";"1";"0";"137";"136";"module.training_block4.exec-2051.GoNoGo4";;;;;;;;;;;;;;;;;;;;;;;;;;;;;;;;;;;;;;;;;;;;;;;;;;;;;;;;;;;"1261";"2014-10-16 11:31:45.151";"NST_correctLoc";"12";"1";"FINISHED";"RIGHT";"success";"318";"0";"2014-10-16 11:31:43.888";"2";;;;;;;;;;;;;;;;;;;;;
"parkerk2";;;"Windows 7";"Rachel's Experiment (D.T.)";"1.0";"2";"1";"1";"2";"1";"1";"2014-10-16 11:24:15.455";"2014-10-16 11:36:50.664";"1";"1";"0";"138";"137";"module.training_block4.exec-2051.GoNoGo4";;;;;;;;;;;;;;;;;;;;;;;;;;;;;;;;;;;;;;;;;;;;;;;;;;;;;;;;;;;"1261";"2014-10-16 11:31:47.679";"NST_correctLoc";"6";"0";"FINISHED";"LEFT";"success";"327";"0";"2014-10-16 11:31:46.415";"1";;;;;;;;;;;;;;;;;;;;;
"parkerk2";;;"Windows 7";"Rachel's Experiment (D.T.)";"1.0";"2";"1";"1";"2";"1";"1";"2014-10-16 11:24:15.455";"2014-10-16 11:36:50.664";"1";"1";"0";"139";"138";"module.training_block4.exec-2051.GoNoGo4";;;;;;;;;;;;;;;;;;;;;;;;;;;;;;;;;;;;;;;;;;;;;;;;;;;;;;;;;;;"1261";"2014-10-16 11:31:50.206";"NST_correctLoc";"3";"0";"FINISHED";"LEFT";"success";"296";"0";"2014-10-16 11:31:48.942";"1";;;;;;;;;;;;;;;;;;;;;
"parkerk2";;;"Windows 7";"Rachel's Experiment (D.T.)";"1.0";"2";"1";"1";"2";"1";"1";"2014-10-16 11:24:15.455";"2014-10-16 11:36:50.664";"1";"1";"0";"140";"139";"module.training_block4.exec-2051.GoNoGo4";;;;;;;;;;;;;;;;;;;;;;;;;;;;;;;;;;;;;;;;;;;;;;;;;;;;;;;;;;;"1261";"2014-10-16 11:31:52.733";"NST_correctLoc";"14";"0";"FINISHED";"LEFT";"success";"297";"0";"2014-10-16 11:31:51.470";"2";;;;;;;;;;;;;;;;;;;;;
"parkerk2";;;"Windows 7";"Rachel's Experiment (D.T.)";"1.0";"2";"1";"1";"2";"1";"1";"2014-10-16 11:24:15.455";"2014-10-16 11:36:50.664";"1";"1";"0";"141";"140";"module.training_block4.exec-2051.GoNoGo4";;;;;;;;;;;;;;;;;;;;;;;;;;;;;;;;;;;;;;;;;;;;;;;;;;;;;;;;;;;"1261";"2014-10-16 11:31:55.276";"NST_correctLoc";"32";"0";"FINISHED";"LEFT";"success";"314";"0";"2014-10-16 11:31:54.013";"3";;;;;;;;;;;;;;;;;;;;;
"parkerk2";;;"Windows 7";"Rachel's Experiment (D.T.)";"1.0";"2";"1";"1";"2";"1";"1";"2014-10-16 11:24:15.455";"2014-10-16 11:36:50.664";"1";"1";"0";"142";"141";"module.training_block4.exec-2051.GoNoGo4";;;;;;;;;;;;;;;;;;;;;;;;;;;;;;;;;;;;;;;;;;;;;;;;;;;;;;;;;;;"1261";"2014-10-16 11:31:57.804";"NST_correctLoc";"17";"0";"FINISHED";"LEFT";"success";"371";"0";"2014-10-16 11:31:56.540";"2";;;;;;;;;;;;;;;;;;;;;
"parkerk2";;;"Windows 7";"Rachel's Experiment (D.T.)";"1.0";"2";"1";"1";"2";"1";"1";"2014-10-16 11:24:15.455";"2014-10-16 11:36:50.664";"1";"1";"0";"143";"142";"module.training_block4.exec-2051.GoNoGo4";;;;;;;;;;;;;;;;;;;;;;;;;;;;;;;;;;;;;;;;;;;;;;;;;;;;;;;;;;;"1261";"2014-10-16 11:32:00.331";"NST_correctLoc";"29";"0";"FINISHED";"LEFT";"success";"315";"0";"2014-10-16 11:31:59.067";"3";;;;;;;;;;;;;;;;;;;;;
"parkerk2";;;"Windows 7";"Rachel's Experiment (D.T.)";"1.0";"2";"1";"1";"2";"1";"1";"2014-10-16 11:24:15.455";"2014-10-16 11:36:50.664";"1";"1";"0";"144";"143";"module.training_block4.exec-2051.GoNoGo4";;;;;;;;;;;;;;;;;;;;;;;;;;;;;;;;;;;;;;;;;;;;;;;;;;;;;;;;;;;"1261";"2014-10-16 11:32:02.858";"NST_correctLoc";"4";"0";"FINISHED";"LEFT";"success";"324";"0";"2014-10-16 11:32:01.595";"1";;;;;;;;;;;;;;;;;;;;;
"parkerk2";;;"Windows 7";"Rachel's Experiment (D.T.)";"1.0";"2";"1";"1";"2";"1";"1";"2014-10-16 11:24:15.455";"2014-10-16 11:36:50.664";"1";"1";"0";"145";"144";"module.training_block4.exec-2051.GoNoGo4";;;;;;;;;;;;;;;;;;;;;;;;;;;;;;;;;;;;;;;;;;;;;;;;;;;;;;;;;;;"1261";"2014-10-16 11:32:05.386";"NST_correctLoc";"10";"0";"FINISHED";"LEFT";"success";"333";"0";"2014-10-16 11:32:04.122";"2";;;;;;;;;;;;;;;;;;;;;
"parkerk2";;;"Windows 7";"Rachel's Experiment (D.T.)";"1.0";"2";"1";"1";"2";"1";"1";"2014-10-16 11:24:15.455";"2014-10-16 11:36:50.664";"1";"1";"0";"146";"145";"module.training_block4.exec-2051.GoNoGo4";;;;;;;;;;;;;;;;;;;;;;;;;;;;;;;;;;;;;;;;;;;;;;;;;;;;;;;;;;;"1262";"2014-10-16 11:32:07.913";"NST_correctLoc";"16";"0";"FINISHED";"LEFT";"success";"462";"0";"2014-10-16 11:32:06.649";"2";;;;;;;;;;;;;;;;;;;;;
"parkerk2";;;"Windows 7";"Rachel's Experiment (D.T.)";"1.0";"2";"1";"1";"2";"1";"1";"2014-10-16 11:24:15.455";"2014-10-16 11:36:50.664";"1";"1";"0";"147";"146";"module.training_block4.exec-2051.GoNoGo4";;;;;;;;;;;;;;;;;;;;;;;;;;;;;;;;;;;;;;;;;;;;;;;;;;;;;;;;;;;"1261";"2014-10-16 11:32:10.440";"NST_correctLoc";"18";"0";"FINISHED";"LEFT";"success";"318";"0";"2014-10-16 11:32:09.177";"3";;;;;;;;;;;;;;;;;;;;;
"parkerk2";;;"Windows 7";"Rachel's Experiment (D.T.)";"1.0";"2";"1";"1";"2";"1";"1";"2014-10-16 11:24:15.455";"2014-10-16 11:36:50.664";"1";"1";"0";"148";"147";"module.training_block4.exec-2051.GoNoGo4";;;;;;;;;;;;;;;;;;;;;;;;;;;;;;;;;;;;;;;;;;;;;;;;;;;;;;;;;;;"1261";"2014-10-16 11:32:12.968";"NST_correctLoc";"5";"0";"FINISHED";"LEFT";"success";"295";"0";"2014-10-16 11:32:11.704";"1";;;;;;;;;;;;;;;;;;;;;
"parkerk2";;;"Windows 7";"Rachel's Experiment (D.T.)";"1.0";"2";"1";"1";"2";"1";"1";"2014-10-16 11:24:15.455";"2014-10-16 11:36:50.664";"1";"1";"0";"149";"148";"module.training_block4.exec-2051.GoNoGo4";;;;;;;;;;;;;;;;;;;;;;;;;;;;;;;;;;;;;;;;;;;;;;;;;;;;;;;;;;;"1262";"2014-10-16 11:32:15.511";"NST_correctLoc";"35";"0";"FINISHED";"LEFT";"success";"360";"0";"2014-10-16 11:32:14.247";"3";;;;;;;;;;;;;;;;;;;;;
"parkerk2";;;"Windows 7";"Rachel's Experiment (D.T.)";"1.0";"2";"1";"1";"2";"1";"1";"2014-10-16 11:24:15.455";"2014-10-16 11:36:50.664";"1";"1";"0";"150";"149";"module.training_block4.exec-2051.GoNoGo4";;;;;;;;;;;;;;;;;;;;;;;;;;;;;;;;;;;;;;;;;;;;;;;;;;;;;;;;;;;"1261";"2014-10-16 11:32:18.038";"NST_correctLoc";"15";"0";"FINISHED";"LEFT";"success";"337";"0";"2014-10-16 11:32:16.774";"2";;;;;;;;;;;;;;;;;;;;;
"parkerk2";;;"Windows 7";"Rachel's Experiment (D.T.)";"1.0";"2";"1";"1";"2";"1";"1";"2014-10-16 11:24:15.455";"2014-10-16 11:36:50.664";"1";"1";"0";"151";"150";"module.training_block4.exec-2051.GoNoGo4";;;;;;;;;;;;;;;;;;;;;;;;;;;;;;;;;;;;;;;;;;;;;;;;;;;;;;;;;;;"1261";"2014-10-16 11:32:20.565";"NST_correctLoc";"25";"1";"FINISHED";"RIGHT";"success";"426";"0";"2014-10-16 11:32:19.302";"3";;;;;;;;;;;;;;;;;;;;;
"parkerk2";;;"Windows 7";"Rachel's Experiment (D.T.)";"1.0";"2";"1";"1";"2";"1";"1";"2014-10-16 11:24:15.455";"2014-10-16 11:36:50.664";"1";"1";"0";"152";"151";"module.training_block4.exec-2051.GoNoGo4";;;;;;;;;;;;;;;;;;;;;;;;;;;;;;;;;;;;;;;;;;;;;;;;;;;;;;;;;;;"1261";"2014-10-16 11:32:23.093";"NST_correctLoc";"8";"0";"FINISHED";"LEFT";"success";"459";"0";"2014-10-16 11:32:21.829";"1";;;;;;;;;;;;;;;;;;;;;
"parkerk2";;;"Windows 7";"Rachel's Experiment (D.T.)";"1.0";"2";"1";"1";"2";"1";"1";"2014-10-16 11:24:15.455";"2014-10-16 11:36:50.664";"1";"1";"0";"153";"152";"module.training_block4.exec-2051.GoNoGo4";;;;;;;;;;;;;;;;;;;;;;;;;;;;;;;;;;;;;;;;;;;;;;;;;;;;;;;;;;;"1261";"2014-10-16 11:32:25.620";"NST_correctLoc";"11";"1";"FINISHED";"RIGHT";"success";"347";"0";"2014-10-16 11:32:24.356";"2";;;;;;;;;;;;;;;;;;;;;
"parkerk2";;;"Windows 7";"Rachel's Experiment (D.T.)";"1.0";"2";"1";"1";"2";"1";"1";"2014-10-16 11:24:15.455";"2014-10-16 11:36:50.664";"1";"1";"0";"154";"153";"module.training_block4.exec-2051.GoNoGo4";;;;;;;;;;;;;;;;;;;;;;;;;;;;;;;;;;;;;;;;;;;;;;;;;;;;;;;;;;;"1262";"2014-10-16 11:32:28.163";"NST_correctLoc";"31";"1";"FINISHED";"RIGHT";"success";"501";"0";"2014-10-16 11:32:26.899";"3";;;;;;;;;;;;;;;;;;;;;
"parkerk2";;;"Windows 7";"Rachel's Experiment (D.T.)";"1.0";"2";"1";"1";"2";"1";"1";"2014-10-16 11:24:15.455";"2014-10-16 11:36:50.664";"1";"1";"0";"155";"154";"module.training_block4.exec-2051.GoNoGo4";;;;;;;;;;;;;;;;;;;;;;;;;;;;;;;;;;;;;;;;;;;;;;;;;;;;;;;;;;;"1261";"2014-10-16 11:32:30.690";"NST_correctLoc";"2";"1";"FINISHED";"RIGHT";"success";"293";"0";"2014-10-16 11:32:29.427";"1";;;;;;;;;;;;;;;;;;;;;
"parkerk2";;;"Windows 7";"Rachel's Experiment (D.T.)";"1.0";"2";"1";"1";"2";"1";"1";"2014-10-16 11:24:15.455";"2014-10-16 11:36:50.664";"1";"1";"0";"156";"155";"module.training_block4.exec-2051.GoNoGo4";;;;;;;;;;;;;;;;;;;;;;;;;;;;;;;;;;;;;;;;;;;;;;;;;;;;;;;;;;;"1261";"2014-10-16 11:32:33.218";"NST_correctLoc";"33";"1";"FINISHED";"RIGHT";"success";"310";"0";"2014-10-16 11:32:31.954";"3";;;;;;;;;;;;;;;;;;;;;
"parkerk2";;;"Windows 7";"Rachel's Experiment (D.T.)";"1.0";"2";"1";"1";"2";"1";"1";"2014-10-16 11:24:15.455";"2014-10-16 11:36:50.664";"1";"1";"0";"157";"156";"module.training_block4.exec-2051.GoNoGo4";;;;;;;;;;;;;;;;;;;;;;;;;;;;;;;;;;;;;;;;;;;;;;;;;;;;;;;;;;;"1261";"2014-10-16 11:32:35.776";"NST_correctLoc";"34";"1";"FINISHED";"RIGHT";"success";"328";"0";"2014-10-16 11:32:34.513";"3";;;;;;;;;;;;;;;;;;;;;
"parkerk2";;;"Windows 7";"Rachel's Experiment (D.T.)";"1.0";"2";"1";"1";"2";"1";"1";"2014-10-16 11:24:15.455";"2014-10-16 11:36:50.664";"1";"1";"0";"158";"157";"module.training_block4.exec-2051.GoNoGo4";;;;;;;;;;;;;;;;;;;;;;;;;;;;;;;;;;;;;;;;;;;;;;;;;;;;;;;;;;;"1261";"2014-10-16 11:32:38.304";"NST_correctLoc";"21";"1";"FINISHED";"RIGHT";"success";"409";"0";"2014-10-16 11:32:37.040";"3";;;;;;;;;;;;;;;;;;;;;
"parkerk2";;;"Windows 7";"Rachel's Experiment (D.T.)";"1.0";"2";"1";"1";"2";"1";"1";"2014-10-16 11:24:15.455";"2014-10-16 11:36:50.664";"1";"1";"0";"159";"158";"module.training_block4.exec-2051.GoNoGo4";;;;;;;;;;;;;;;;;;;;;;;;;;;;;;;;;;;;;;;;;;;;;;;;;;;;;;;;;;;"1261";"2014-10-16 11:32:40.847";"NST_correctLoc";"23";"0";"FINISHED";"LEFT";"success";"314";"0";"2014-10-16 11:32:39.583";"3";;;;;;;;;;;;;;;;;;;;;
"parkerk2";;;"Windows 7";"Rachel's Experiment (D.T.)";"1.0";"2";"1";"1";"2";"1";"1";"2014-10-16 11:24:15.455";"2014-10-16 11:36:50.664";"1";"1";"0";"160";"159";"module.devaluation_practice.exec-9745.devalPractice";;;;;;;;;;;;"20914";"2014-10-16 11:33:27.993";"0";"8";"9";"7";"4205";"2382";"11266";"2014-10-16 11:33:07.072";;;;;;;;;;;;;;;;;;;;;;;;;;;;;;;;;;;;;;;;;;;;;;;;;;;;;;;;;;;;;;;;;;;;;;
"parkerk2";;;"Windows 7";"Rachel's Experiment (D.T.)";"1.0";"2";"1";"1";"2";"1";"1";"2014-10-16 11:24:15.455";"2014-10-16 11:36:50.664";"1";"1";"0";"161";"160";"module.devaluation_practice.exec-9745.devalPractice";;;;;;;;;;;;"9660";"2014-10-16 11:33:37.665";"1";"2";"3";"4";"2277";"2146";"2197";"2014-10-16 11:33:28.008";;;;;;;;;;;;;;;;;;;;;;;;;;;;;;;;;;;;;;;;;;;;;;;;;;;;;;;;;;;;;;;;;;;;;;
"parkerk2";;;"Windows 7";"Rachel's Experiment (D.T.)";"1.0";"2";"1";"1";"2";"1";"1";"2014-10-16 11:24:15.455";"2014-10-16 11:36:50.664";"1";"1";"0";"162";"161";"module.devaluation_practice.exec-9745.devalPractice";;;;;;;;;;;;"7149";"2014-10-16 11:33:44.842";"2";"7";"9";"8";"1371";"1546";"1205";"2014-10-16 11:33:37.681";;;;;;;;;;;;;;;;;;;;;;;;;;;;;;;;;;;;;;;;;;;;;;;;;;;;;;;;;;;;;;;;;;;;;;
"parkerk2";;;"Windows 7";"Rachel's Experiment (D.T.)";"1.0";"2";"1";"1";"2";"1";"1";"2014-10-16 11:24:15.455";"2014-10-16 11:36:50.664";"1";"1";"0";"163";"162";"module.devaluation_practice.exec-9745.devalPractice";;;;;;;;;;;;"7149";"2014-10-16 11:33:52.002";"3";"6";"7";"9";"1228";"1366";"1533";"2014-10-16 11:33:44.857";;;;;;;;;;;;;;;;;;;;;;;;;;;;;;;;;;;;;;;;;;;;;;;;;;;;;;;;;;;;;;;;;;;;;;
"parkerk2";;;"Windows 7";"Rachel's Experiment (D.T.)";"1.0";"2";"1";"1";"2";"1";"1";"2014-10-16 11:24:15.455";"2014-10-16 11:36:50.664";"1";"1";"0";"164";"163";"module.devaluation_block1.exec-4677.deval1";"7780";"2014-10-16 11:34:04.077";"1";"9";"9";"7";"1201";"1792";"1750";"2014-10-16 11:33:56.293";"1";;;;;;;;;;;;;;;;;;;;;;;;;;;;;;;;;;;;;;;;;;;;;;;;;;;;;;;;;;;;;;;;;;;;;;;;;;;;;;;;
"parkerk2";;;"Windows 7";"Rachel's Experiment (D.T.)";"1.0";"2";"1";"1";"2";"1";"1";"2014-10-16 11:24:15.455";"2014-10-16 11:36:50.664";"1";"1";"0";"165";"164";"module.devaluation_block1.exec-4677.deval1";"6805";"2014-10-16 11:34:10.895";"10";"7";"5";"6";"1402";"754";"1603";"2014-10-16 11:34:04.093";"2";;;;;;;;;;;;;;;;;;;;;;;;;;;;;;;;;;;;;;;;;;;;;;;;;;;;;;;;;;;;;;;;;;;;;;;;;;;;;;;;
"parkerk2";;;"Windows 7";"Rachel's Experiment (D.T.)";"1.0";"2";"1";"1";"2";"1";"1";"2014-10-16 11:24:15.455";"2014-10-16 11:36:50.664";"1";"1";"0";"166";"165";"module.devaluation_block1.exec-4677.deval1";"6981";"2014-10-16 11:34:17.900";"2";"6";"9";"9";"1601";"968";"1399";"2014-10-16 11:34:10.911";"1";;;;;;;;;;;;;;;;;;;;;;;;;;;;;;;;;;;;;;;;;;;;;;;;;;;;;;;;;;;;;;;;;;;;;;;;;;;;;;;;
"parkerk2";;;"Windows 7";"Rachel's Experiment (D.T.)";"1.0";"2";"1";"1";"2";"1";"1";"2014-10-16 11:24:15.455";"2014-10-16 11:36:50.664";"1";"1";"0";"167";"166";"module.devaluation_block1.exec-4677.deval1";"7381";"2014-10-16 11:34:25.295";"20";"3";"7";"5";"1173";"1036";"2144";"2014-10-16 11:34:17.915";"3";;;;;;;;;;;;;;;;;;;;;;;;;;;;;;;;;;;;;;;;;;;;;;;;;;;;;;;;;;;;;;;;;;;;;;;;;;;;;;;;
"parkerk2";;;"Windows 7";"Rachel's Experiment (D.T.)";"1.0";"2";"1";"1";"2";"1";"1";"2014-10-16 11:24:15.455";"2014-10-16 11:36:50.664";"1";"1";"0";"168";"167";"module.devaluation_block1.exec-4677.deval1";"7744";"2014-10-16 11:34:33.064";"26";"9";"9";"9";"1556";"1153";"1977";"2014-10-16 11:34:25.326";"3";;;;;;;;;;;;;;;;;;;;;;;;;;;;;;;;;;;;;;;;;;;;;;;;;;;;;;;;;;;;;;;;;;;;;;;;;;;;;;;;
"parkerk2";;;"Windows 7";"Rachel's Experiment (D.T.)";"1.0";"2";"1";"1";"2";"1";"1";"2014-10-16 11:24:15.455";"2014-10-16 11:36:50.664";"1";"1";"0";"169";"168";"module.devaluation_block1.exec-4677.deval1";"6605";"2014-10-16 11:34:39.694";"19";"3";"5";"6";"881";"1123";"1581";"2014-10-16 11:34:33.079";"3";;;;;;;;;;;;;;;;;;;;;;;;;;;;;;;;;;;;;;;;;;;;;;;;;;;;;;;;;;;;;;;;;;;;;;;;;;;;;;;;
"parkerk2";;;"Windows 7";"Rachel's Experiment (D.T.)";"1.0";"2";"1";"1";"2";"1";"1";"2014-10-16 11:24:15.455";"2014-10-16 11:36:50.664";"1";"1";"0";"170";"169";"module.devaluation_block1.exec-4677.deval1";"5773";"2014-10-16 11:34:45.482";"24";"5";"8";"6";"1035";"862";"843";"2014-10-16 11:34:39.710";"3";;;;;;;;;;;;;;;;;;;;;;;;;;;;;;;;;;;;;;;;;;;;;;;;;;;;;;;;;;;;;;;;;;;;;;;;;;;;;;;;
"parkerk2";;;"Windows 7";"Rachel's Experiment (D.T.)";"1.0";"2";"1";"1";"2";"1";"1";"2014-10-16 11:24:15.455";"2014-10-16 11:36:50.664";"1";"1";"0";"171";"170";"module.devaluation_block1.exec-4677.deval1";"7021";"2014-10-16 11:34:52.518";"15";"1";"3";"3";"1224";"1615";"1156";"2014-10-16 11:34:45.498";"2";;;;;;;;;;;;;;;;;;;;;;;;;;;;;;;;;;;;;;;;;;;;;;;;;;;;;;;;;;;;;;;;;;;;;;;;;;;;;;;;
"parkerk2";;;"Windows 7";"Rachel's Experiment (D.T.)";"1.0";"2";"1";"1";"2";"1";"1";"2014-10-16 11:24:15.455";"2014-10-16 11:36:50.664";"1";"1";"0";"172";"171";"module.devaluation_block1.exec-4677.deval1";"7069";"2014-10-16 11:34:59.617";"12";"7";"7";"7";"1076";"1168";"1805";"2014-10-16 11:34:52.534";"2";;;;;;;;;;;;;;;;;;;;;;;;;;;;;;;;;;;;;;;;;;;;;;;;;;;;;;;;;;;;;;;;;;;;;;;;;;;;;;;;
"parkerk2";;;"Windows 7";"Rachel's Experiment (D.T.)";"1.0";"2";"1";"1";"2";"1";"1";"2014-10-16 11:24:15.455";"2014-10-16 11:36:50.664";"1";"1";"0";"173";"172";"module.devaluation_block1.exec-4677.deval1";"6628";"2014-10-16 11:35:06.263";"0";"5";"9";"8";"1770";"812";"1020";"2014-10-16 11:34:59.632";"1";;;;;;;;;;;;;;;;;;;;;;;;;;;;;;;;;;;;;;;;;;;;;;;;;;;;;;;;;;;;;;;;;;;;;;;;;;;;;;;;
"parkerk2";;;"Windows 7";"Rachel's Experiment (D.T.)";"1.0";"2";"1";"1";"2";"1";"1";"2014-10-16 11:24:15.455";"2014-10-16 11:36:50.664";"1";"1";"0";"174";"173";"module.devaluation_block1.exec-4677.deval1";"5709";"2014-10-16 11:35:11.988";"7";"3";"7";"6";"1004";"690";"987";"2014-10-16 11:35:06.278";"1";;;;;;;;;;;;;;;;;;;;;;;;;;;;;;;;;;;;;;;;;;;;;;;;;;;;;;;;;;;;;;;;;;;;;;;;;;;;;;;;
"parkerk2";;;"Windows 7";"Rachel's Experiment (D.T.)";"1.0";"2";"1";"1";"2";"1";"1";"2014-10-16 11:24:15.455";"2014-10-16 11:36:50.664";"1";"1";"0";"175";"174";"module.devaluation_block1.exec-4677.deval1";"5849";"2014-10-16 11:35:17.870";"8";"6";"6";"7";"743";"1375";"704";"2014-10-16 11:35:12.019";"1";;;;;;;;;;;;;;;;;;;;;;;;;;;;;;;;;;;;;;;;;;;;;;;;;;;;;;;;;;;;;;;;;;;;;;;;;;;;;;;;
"parkerk2";;;"Windows 7";"Rachel's Experiment (D.T.)";"1.0";"2";"1";"1";"2";"1";"1";"2014-10-16 11:24:15.455";"2014-10-16 11:36:50.664";"1";"1";"0";"176";"175";"module.devaluation_block1.exec-4677.deval1";"6341";"2014-10-16 11:35:24.235";"13";"8";"4";"6";"910";"714";"1690";"2014-10-16 11:35:17.885";"2";;;;;;;;;;;;;;;;;;;;;;;;;;;;;;;;;;;;;;;;;;;;;;;;;;;;;;;;;;;;;;;;;;;;;;;;;;;;;;;;
"parkerk2";;;"Windows 7";"Rachel's Experiment (D.T.)";"1.0";"2";"1";"1";"2";"1";"1";"2014-10-16 11:24:15.455";"2014-10-16 11:36:50.664";"1";"1";"0";"177";"176";"module.devaluation_block1.exec-4677.deval1";"5413";"2014-10-16 11:35:29.664";"18";"4";"8";"7";"825";"765";"779";"2014-10-16 11:35:24.250";"3";;;;;;;;;;;;;;;;;;;;;;;;;;;;;;;;;;;;;;;;;;;;;;;;;;;;;;;;;;;;;;;;;;;;;;;;;;;;;;;;
"parkerk2";;;"Windows 7";"Rachel's Experiment (D.T.)";"1.0";"2";"1";"1";"2";"1";"1";"2014-10-16 11:24:15.455";"2014-10-16 11:36:50.664";"1";"1";"0";"178";"177";"module.devaluation_block1.exec-4677.deval1";"6212";"2014-10-16 11:35:35.889";"11";"6";"3";"2";"604";"1209";"1377";"2014-10-16 11:35:29.680";"2";;;;;;;;;;;;;;;;;;;;;;;;;;;;;;;;;;;;;;;;;;;;;;;;;;;;;;;;;;;;;;;;;;;;;;;;;;;;;;;;
"parkerk2";;;"Windows 7";"Rachel's Experiment (D.T.)";"1.0";"2";"1";"1";"2";"1";"1";"2014-10-16 11:24:15.455";"2014-10-16 11:36:50.664";"1";"1";"0";"179";"178";"module.devaluation_block1.exec-4677.deval1";"6229";"2014-10-16 11:35:42.145";"22";"7";"8";"8";"1172";"1232";"803";"2014-10-16 11:35:35.904";"3";;;;;;;;;;;;;;;;;;;;;;;;;;;;;;;;;;;;;;;;;;;;;;;;;;;;;;;;;;;;;;;;;;;;;;;;;;;;;;;;
"parkerk2";;;"Windows 7";"Rachel's Experiment (D.T.)";"1.0";"2";"1";"1";"2";"1";"1";"2014-10-16 11:24:15.455";"2014-10-16 11:36:50.664";"1";"1";"0";"180";"179";"module.devaluation_block1.exec-4677.deval1";"5222";"2014-10-16 11:35:47.387";"5";"5";"9";"7";"732";"794";"660";"2014-10-16 11:35:42.160";"1";;;;;;;;;;;;;;;;;;;;;;;;;;;;;;;;;;;;;;;;;;;;;;;;;;;;;;;;;;;;;;;;;;;;;;;;;;;;;;;;
"parkerk2";;;"Windows 7";"Rachel's Experiment (D.T.)";"1.0";"2";"1";"1";"2";"1";"1";"2014-10-16 11:24:15.455";"2014-10-16 11:36:50.664";"1";"1";"0";"181";"180";"module.devaluation_block1.exec-4677.deval1";"6677";"2014-10-16 11:35:54.079";"14";"7";"5";"5";"795";"1032";"1820";"2014-10-16 11:35:47.402";"2";;;;;;;;;;;;;;;;;;;;;;;;;;;;;;;;;;;;;;;;;;;;;;;;;;;;;;;;;;;;;;;;;;;;;;;;;;;;;;;;
"parkerk2";;;"Windows 7";"Rachel's Experiment (D.T.)";"1.0";"2";"1";"1";"2";"1";"1";"2014-10-16 11:24:15.455";"2014-10-16 11:36:50.664";"1";"1";"0";"182";"181";"module.devaluation_block1.exec-4677.deval1";"6245";"2014-10-16 11:36:00.335";"17";"2";"2";"3";"1150";"744";"1329";"2014-10-16 11:35:54.095";"2";;;;;;;;;;;;;;;;;;;;;;;;;;;;;;;;;;;;;;;;;;;;;;;;;;;;;;;;;;;;;;;;;;;;;;;;;;;;;;;;
"parkerk2";;;"Windows 7";"Rachel's Experiment (D.T.)";"1.0";"2";"1";"1";"2";"1";"1";"2014-10-16 11:24:15.455";"2014-10-16 11:36:50.664";"1";"1";"0";"183";"182";"module.devaluation_block1.exec-4677.deval1";"5086";"2014-10-16 11:36:05.452";"3";"5";"7";"6";"462";"637";"967";"2014-10-16 11:36:00.351";"1";;;;;;;;;;;;;;;;;;;;;;;;;;;;;;;;;;;;;;;;;;;;;;;;;;;;;;;;;;;;;;;;;;;;;;;;;;;;;;;;
"parkerk2";;;"Windows 7";"Rachel's Experiment (D.T.)";"1.0";"2";"1";"1";"2";"1";"1";"2014-10-16 11:24:15.455";"2014-10-16 11:36:50.664";"1";"1";"0";"184";"183";"module.devaluation_block1.exec-4677.deval1";"6029";"2014-10-16 11:36:11.490";"23";"9";"9";"8";"1018";"851";"1120";"2014-10-16 11:36:05.468";"3";;;;;;;;;;;;;;;;;;;;;;;;;;;;;;;;;;;;;;;;;;;;;;;;;;;;;;;;;;;;;;;;;;;;;;;;;;;;;;;;
"parkerk2";;;"Windows 7";"Rachel's Experiment (D.T.)";"1.0";"2";"1";"1";"2";"1";"1";"2014-10-16 11:24:15.455";"2014-10-16 11:36:50.664";"1";"1";"0";"185";"184";"module.devaluation_block1.exec-4677.deval1";"5381";"2014-10-16 11:36:16.888";"4";"5";"7";"5";"388";"1337";"628";"2014-10-16 11:36:11.506";"1";;;;;;;;;;;;;;;;;;;;;;;;;;;;;;;;;;;;;;;;;;;;;;;;;;;;;;;;;;;;;;;;;;;;;;;;;;;;;;;;
"parkerk2";;;"Windows 7";"Rachel's Experiment (D.T.)";"1.0";"2";"1";"1";"2";"1";"1";"2014-10-16 11:24:15.455";"2014-10-16 11:36:50.664";"1";"1";"0";"186";"185";"module.devaluation_block1.exec-4677.deval1";"5613";"2014-10-16 11:36:22.520";"25";"2";"6";"7";"887";"885";"803";"2014-10-16 11:36:16.919";"3";;;;;;;;;;;;;;;;;;;;;;;;;;;;;;;;;;;;;;;;;;;;;;;;;;;;;;;;;;;;;;;;;;;;;;;;;;;;;;;;
"parkerk2";;;"Windows 7";"Rachel's Experiment (D.T.)";"1.0";"2";"1";"1";"2";"1";"1";"2014-10-16 11:24:15.455";"2014-10-16 11:36:50.664";"1";"1";"0";"187";"186";"module.devaluation_block1.exec-4677.deval1";"8261";"2014-10-16 11:36:30.804";"9";"7";"4";"3";"823";"2082";"2321";"2014-10-16 11:36:22.551";"2";;;;;;;;;;;;;;;;;;;;;;;;;;;;;;;;;;;;;;;;;;;;;;;;;;;;;;;;;;;;;;;;;;;;;;;;;;;;;;;;
"parkerk2";;;"Windows 7";"Rachel's Experiment (D.T.)";"1.0";"2";"1";"1";"2";"1";"1";"2014-10-16 11:24:15.455";"2014-10-16 11:36:50.664";"1";"1";"0";"188";"187";"module.devaluation_block1.exec-4677.deval1";"5692";"2014-10-16 11:36:36.529";"16";"1";"2";"3";"1036";"782";"851";"2014-10-16 11:36:30.835";"2";;;;;;;;;;;;;;;;;;;;;;;;;;;;;;;;;;;;;;;;;;;;;;;;;;;;;;;;;;;;;;;;;;;;;;;;;;;;;;;;
"parkerk2";;;"Windows 7";"Rachel's Experiment (D.T.)";"1.0";"2";"1";"1";"2";"1";"1";"2014-10-16 11:24:15.455";"2014-10-16 11:36:50.664";"1";"1";"0";"189";"188";"module.devaluation_block1.exec-4677.deval1";"5724";"2014-10-16 11:36:42.271";"21";"7";"8";"7";"1302";"723";"668";"2014-10-16 11:36:36.545";"3";;;;;;;;;;;;;;;;;;;;;;;;;;;;;;;;;;;;;;;;;;;;;;;;;;;;;;;;;;;;;;;;;;;;;;;;;;;;;;;;
"parkerk2";;;"Windows 7";"Rachel's Experiment (D.T.)";"1.0";"2";"1";"1";"2";"1";"1";"2014-10-16 11:24:15.455";"2014-10-16 11:36:50.664";"1";"1";"0";"190";"189";"module.devaluation_block1.exec-4677.deval1";"5461";"2014-10-16 11:36:47.746";"6";"3";"4";"3";"793";"790";"851";"2014-10-16 11:36:42.286";"1";;;;;;;;;;;;;;;;;;;;;;;;;;;;;;;;;;;;;;;;;;;;;;;;;;;;;;;;;;;;;;;;;;;;;;;;;;;;;;;;
