"user.name";"user.yearOfBirth";"user.sex";"user.osName";"module.name";"module.version";"module.online.subject.code";"module.online.study.id";"module.online.module.nr";"module.online.group.nr";"session.id";"session.index";"session.startTime";"session.endTime";"session.completed";"session.node-7965.conditionType";"session.node-8304.DevalQorder";"trial.id";"trial.index";"trial.name";"trial.deval1.durationTime";"trial.deval1.endTime";"trial.deval1.icon";"trial.deval1.Resp_Attractive";"trial.deval1.Resp_Eat";"trial.deval1.Resp_Taste";"trial.deval1.RT_Attractive";"trial.deval1.RT_Eat";"trial.deval1.RT_Taste";"trial.deval1.startTime";"trial.deval1.stimulus type";"trial.devalPractice.durationTime";"trial.devalPractice.endTime";"trial.devalPractice.icon";"trial.devalPractice.Resp_Attractive";"trial.devalPractice.Resp_Eat";"trial.devalPractice.Resp_Taste";"trial.devalPractice.RT_Attractive";"trial.devalPractice.RT_Eat";"trial.devalPractice.RT_Taste";"trial.devalPractice.startTime";"trial.devalPractice.stimulus type";"trial.GoNoGo1.durationTime";"trial.GoNoGo1.endTime";"trial.GoNoGo1.Error Type";"trial.GoNoGo1.icon";"trial.GoNoGo1.location";"trial.GoNoGo1.outcome";"trial.GoNoGo1.response";"trial.GoNoGo1.result";"trial.GoNoGo1.RT";"trial.GoNoGo1.signal";"trial.GoNoGo1.startTime";"trial.GoNoGo1.stimulus type";"trial.GoNoGo2.durationTime";"trial.GoNoGo2.endTime";"trial.GoNoGo2.Error Type";"trial.GoNoGo2.icon";"trial.GoNoGo2.location";"trial.GoNoGo2.outcome";"trial.GoNoGo2.response";"trial.GoNoGo2.result";"trial.GoNoGo2.RT";"trial.GoNoGo2.signal";"trial.GoNoGo2.startTime";"trial.GoNoGo2.stimulus type";"trial.GoNoGo3.durationTime";"trial.GoNoGo3.endTime";"trial.GoNoGo3.Error Type";"trial.GoNoGo3.icon";"trial.GoNoGo3.location";"trial.GoNoGo3.outcome";"trial.GoNoGo3.response";"trial.GoNoGo3.result";"trial.GoNoGo3.RT";"trial.GoNoGo3.signal";"trial.GoNoGo3.startTime";"trial.GoNoGo3.stimulus type";"trial.GoNoGo4.durationTime";"trial.GoNoGo4.endTime";"trial.GoNoGo4.Error Type";"trial.GoNoGo4.icon";"trial.GoNoGo4.location";"trial.GoNoGo4.outcome";"trial.GoNoGo4.response";"trial.GoNoGo4.result";"trial.GoNoGo4.RT";"trial.GoNoGo4.signal";"trial.GoNoGo4.startTime";"trial.GoNoGo4.stimulus type";"trial.GoNoGo_Practice.durationTime";"trial.GoNoGo_Practice.endTime";"trial.GoNoGo_Practice.icon";"trial.GoNoGo_Practice.location";"trial.GoNoGo_Practice.outcome";"trial.GoNoGo_Practice.response";"trial.GoNoGo_Practice.result";"trial.GoNoGo_Practice.RT";"trial.GoNoGo_Practice.signal";"trial.GoNoGo_Practice.startTime";"trial.GoNoGo_Practice.stimulus type";"trial.GoNoGo_Tutorial.durationTime";"trial.GoNoGo_Tutorial.endTime";"trial.GoNoGo_Tutorial.icon";"trial.GoNoGo_Tutorial.location";"trial.GoNoGo_Tutorial.outcome";"trial.GoNoGo_Tutorial.response";"trial.GoNoGo_Tutorial.result";"trial.GoNoGo_Tutorial.RT";"trial.GoNoGo_Tutorial.signal";"trial.GoNoGo_Tutorial.startTime"
"D_TP";"1996";;"Windows 7";"Rachel's Experiment (D.T.)";"1.0";"2";"1";"1";"2";"1";"1";"2014-10-13 14:34:25.640";"2014-10-13 14:47:39.257";"1";"1";"0";"1";"0";"module.GoNoGotutorial.exec-4951.GoNoGo_Tutorial";;;;;;;;;;;;;;;;;;;;;;;;;;;;;;;;;;;;;;;;;;;;;;;;;;;;;;;;;;;;;;;;;;;;;;;;;;;;;;;;;;"3997";"2014-10-13 14:35:07.071";"leftResponse";"0";"FINISHED";"LEFT";"success";"2007";"0";"2014-10-13 14:35:03.062"
"D_TP";"1996";;"Windows 7";"Rachel's Experiment (D.T.)";"1.0";"2";"1";"1";"2";"1";"1";"2014-10-13 14:34:25.640";"2014-10-13 14:47:39.257";"1";"1";"0";"2";"1";"module.GoNoGotutorial.exec-4951.GoNoGo_Tutorial";;;;;;;;;;;;;;;;;;;;;;;;;;;;;;;;;;;;;;;;;;;;;;;;;;;;;;;;;;;;;;;;;;;;;;;;;;;;;;;;;;"4002";"2014-10-13 14:35:12.375";"rightResponse";"1";"FINISHED";"RIGHT";"success";"925";"0";"2014-10-13 14:35:08.366"
"D_TP";"1996";;"Windows 7";"Rachel's Experiment (D.T.)";"1.0";"2";"1";"1";"2";"1";"1";"2014-10-13 14:34:25.640";"2014-10-13 14:47:39.257";"1";"1";"0";"3";"2";"module.GoNoGotutorial.exec-4951.GoNoGo_Tutorial";;;;;;;;;;;;;;;;;;;;;;;;;;;;;;;;;;;;;;;;;;;;;;;;;;;;;;;;;;;;;;;;;;;;;;;;;;;;;;;;;;"4002";"2014-10-13 14:35:17.678";"signalResponse";"0";"FINISHED";"NONE";"success";"0";"1";"2014-10-13 14:35:13.669"
"D_TP";"1996";;"Windows 7";"Rachel's Experiment (D.T.)";"1.0";"2";"1";"1";"2";"1";"1";"2014-10-13 14:34:25.640";"2014-10-13 14:47:39.257";"1";"1";"0";"4";"3";"module.GoNoGopractice.exec-8673.GoNoGo_Practice";;;;;;;;;;;;;;;;;;;;;;;;;;;;;;;;;;;;;;;;;;;;;;;;;;;;;;;;;;;;;;;;;;;;;;;"1957";"2014-10-13 14:35:25.915";"18";"0";"FINISHED";"LEFT";"success";"395";"0";"2014-10-13 14:35:23.949";"3";;;;;;;;;;
"D_TP";"1996";;"Windows 7";"Rachel's Experiment (D.T.)";"1.0";"2";"1";"1";"2";"1";"1";"2014-10-13 14:34:25.640";"2014-10-13 14:47:39.257";"1";"1";"0";"5";"4";"module.GoNoGopractice.exec-8673.GoNoGo_Practice";;;;;;;;;;;;;;;;;;;;;;;;;;;;;;;;;;;;;;;;;;;;;;;;;;;;;;;;;;;;;;;;;;;;;;;"1959";"2014-10-13 14:35:29.175";"21";"1";"FINISHED";"RIGHT";"success";"448";"0";"2014-10-13 14:35:27.209";"3";;;;;;;;;;
"D_TP";"1996";;"Windows 7";"Rachel's Experiment (D.T.)";"1.0";"2";"1";"1";"2";"1";"1";"2014-10-13 14:34:25.640";"2014-10-13 14:47:39.257";"1";"1";"0";"6";"5";"module.GoNoGopractice.exec-8673.GoNoGo_Practice";;;;;;;;;;;;;;;;;;;;;;;;;;;;;;;;;;;;;;;;;;;;;;;;;;;;;;;;;;;;;;;;;;;;;;;"1958";"2014-10-13 14:35:32.419";"14";"1";"FINISHED";"RIGHT";"failure";"826";"1";"2014-10-13 14:35:30.454";"2";;;;;;;;;;
"D_TP";"1996";;"Windows 7";"Rachel's Experiment (D.T.)";"1.0";"2";"1";"1";"2";"1";"1";"2014-10-13 14:34:25.640";"2014-10-13 14:47:39.257";"1";"1";"0";"7";"6";"module.GoNoGopractice.exec-8673.GoNoGo_Practice";;;;;;;;;;;;;;;;;;;;;;;;;;;;;;;;;;;;;;;;;;;;;;;;;;;;;;;;;;;;;;;;;;;;;;;"1959";"2014-10-13 14:35:35.664";"26";"0";"FINISHED";"LEFT";"success";"830";"0";"2014-10-13 14:35:33.698";"3";;;;;;;;;;
"D_TP";"1996";;"Windows 7";"Rachel's Experiment (D.T.)";"1.0";"2";"1";"1";"2";"1";"1";"2014-10-13 14:34:25.640";"2014-10-13 14:47:39.257";"1";"1";"0";"8";"7";"module.GoNoGopractice.exec-8673.GoNoGo_Practice";;;;;;;;;;;;;;;;;;;;;;;;;;;;;;;;;;;;;;;;;;;;;;;;;;;;;;;;;;;;;;;;;;;;;;;"1959";"2014-10-13 14:35:38.908";"2";"0";"FINISHED";"LEFT";"success";"658";"0";"2014-10-13 14:35:36.943";"1";;;;;;;;;;
"D_TP";"1996";;"Windows 7";"Rachel's Experiment (D.T.)";"1.0";"2";"1";"1";"2";"1";"1";"2014-10-13 14:34:25.640";"2014-10-13 14:47:39.257";"1";"1";"0";"9";"8";"module.GoNoGopractice.exec-8673.GoNoGo_Practice";;;;;;;;;;;;;;;;;;;;;;;;;;;;;;;;;;;;;;;;;;;;;;;;;;;;;;;;;;;;;;;;;;;;;;;"1959";"2014-10-13 14:35:42.153";"30";"0";"FINISHED";"NONE";"success";"0";"1";"2014-10-13 14:35:40.188";"3";;;;;;;;;;
"D_TP";"1996";;"Windows 7";"Rachel's Experiment (D.T.)";"1.0";"2";"1";"1";"2";"1";"1";"2014-10-13 14:34:25.640";"2014-10-13 14:47:39.257";"1";"1";"0";"10";"9";"module.GoNoGopractice.exec-8673.GoNoGo_Practice";;;;;;;;;;;;;;;;;;;;;;;;;;;;;;;;;;;;;;;;;;;;;;;;;;;;;;;;;;;;;;;;;;;;;;;"1959";"2014-10-13 14:35:45.398";"6";"1";"FINISHED";"RIGHT";"failure";"624";"1";"2014-10-13 14:35:43.432";"1";;;;;;;;;;
"D_TP";"1996";;"Windows 7";"Rachel's Experiment (D.T.)";"1.0";"2";"1";"1";"2";"1";"1";"2014-10-13 14:34:25.640";"2014-10-13 14:47:39.257";"1";"1";"0";"11";"10";"module.GoNoGopractice.exec-8673.GoNoGo_Practice";;;;;;;;;;;;;;;;;;;;;;;;;;;;;;;;;;;;;;;;;;;;;;;;;;;;;;;;;;;;;;;;;;;;;;;"1960";"2014-10-13 14:35:48.642";"34";"0";"FINISHED";"LEFT";"success";"1124";"0";"2014-10-13 14:35:46.677";"3";;;;;;;;;;
"D_TP";"1996";;"Windows 7";"Rachel's Experiment (D.T.)";"1.0";"2";"1";"1";"2";"1";"1";"2014-10-13 14:34:25.640";"2014-10-13 14:47:39.257";"1";"1";"0";"12";"11";"module.GoNoGopractice.exec-8673.GoNoGo_Practice";;;;;;;;;;;;;;;;;;;;;;;;;;;;;;;;;;;;;;;;;;;;;;;;;;;;;;;;;;;;;;;;;;;;;;;"1959";"2014-10-13 14:35:51.887";"23";"1";"FINISHED";"RIGHT";"success";"750";"0";"2014-10-13 14:35:49.921";"3";;;;;;;;;;
"D_TP";"1996";;"Windows 7";"Rachel's Experiment (D.T.)";"1.0";"2";"1";"1";"2";"1";"1";"2014-10-13 14:34:25.640";"2014-10-13 14:47:39.257";"1";"1";"0";"13";"12";"module.GoNoGopractice.exec-8673.GoNoGo_Practice";;;;;;;;;;;;;;;;;;;;;;;;;;;;;;;;;;;;;;;;;;;;;;;;;;;;;;;;;;;;;;;;;;;;;;;"1959";"2014-10-13 14:35:55.131";"13";"0";"FINISHED";"NONE";"success";"0";"1";"2014-10-13 14:35:53.166";"2";;;;;;;;;;
"D_TP";"1996";;"Windows 7";"Rachel's Experiment (D.T.)";"1.0";"2";"1";"1";"2";"1";"1";"2014-10-13 14:34:25.640";"2014-10-13 14:47:39.257";"1";"1";"0";"14";"13";"module.GoNoGopractice.exec-8673.GoNoGo_Practice";;;;;;;;;;;;;;;;;;;;;;;;;;;;;;;;;;;;;;;;;;;;;;;;;;;;;;;;;;;;;;;;;;;;;;;"1960";"2014-10-13 14:35:58.376";"3";"1";"FINISHED";"RIGHT";"success";"693";"0";"2014-10-13 14:35:56.410";"1";;;;;;;;;;
"D_TP";"1996";;"Windows 7";"Rachel's Experiment (D.T.)";"1.0";"2";"1";"1";"2";"1";"1";"2014-10-13 14:34:25.640";"2014-10-13 14:47:39.257";"1";"1";"0";"15";"14";"module.GoNoGopractice.exec-8673.GoNoGo_Practice";;;;;;;;;;;;;;;;;;;;;;;;;;;;;;;;;;;;;;;;;;;;;;;;;;;;;;;;;;;;;;;;;;;;;;;"1959";"2014-10-13 14:36:01.620";"27";"1";"FINISHED";"NONE";"success";"0";"1";"2014-10-13 14:35:59.655";"3";;;;;;;;;;
"D_TP";"1996";;"Windows 7";"Rachel's Experiment (D.T.)";"1.0";"2";"1";"1";"2";"1";"1";"2014-10-13 14:34:25.640";"2014-10-13 14:47:39.257";"1";"1";"0";"16";"15";"module.training_block1.exec-8852.GoNoGo1";;;;;;;;;;;;;;;;;;;;;;;"1256";"2014-10-13 14:36:12.087";"ST_correctStop";"31";"1";"FINISHED";"NONE";"success";"0";"1";"2014-10-13 14:36:10.824";"3";;;;;;;;;;;;;;;;;;;;;;;;;;;;;;;;;;;;;;;;;;;;;;;;;;;;;;;;;
"D_TP";"1996";;"Windows 7";"Rachel's Experiment (D.T.)";"1.0";"2";"1";"1";"2";"1";"1";"2014-10-13 14:34:25.640";"2014-10-13 14:47:39.257";"1";"1";"0";"17";"16";"module.training_block1.exec-8852.GoNoGo1";;;;;;;;;;;;;;;;;;;;;;;"1261";"2014-10-13 14:36:14.630";"NST_correctLoc";"18";"0";"FINISHED";"LEFT";"success";"659";"0";"2014-10-13 14:36:13.366";"3";;;;;;;;;;;;;;;;;;;;;;;;;;;;;;;;;;;;;;;;;;;;;;;;;;;;;;;;;
"D_TP";"1996";;"Windows 7";"Rachel's Experiment (D.T.)";"1.0";"2";"1";"1";"2";"1";"1";"2014-10-13 14:34:25.640";"2014-10-13 14:47:39.257";"1";"1";"0";"18";"17";"module.training_block1.exec-8852.GoNoGo1";;;;;;;;;;;;;;;;;;;;;;;"1252";"2014-10-13 14:36:17.173";"ST_correctStop";"24";"1";"FINISHED";"NONE";"success";"0";"1";"2014-10-13 14:36:15.909";"3";;;;;;;;;;;;;;;;;;;;;;;;;;;;;;;;;;;;;;;;;;;;;;;;;;;;;;;;;
"D_TP";"1996";;"Windows 7";"Rachel's Experiment (D.T.)";"1.0";"2";"1";"1";"2";"1";"1";"2014-10-13 14:34:25.640";"2014-10-13 14:47:39.257";"1";"1";"0";"19";"18";"module.training_block1.exec-8852.GoNoGo1";;;;;;;;;;;;;;;;;;;;;;;"1257";"2014-10-13 14:36:19.715";"ST_correctStop";"32";"0";"FINISHED";"NONE";"success";"0";"1";"2014-10-13 14:36:18.452";"3";;;;;;;;;;;;;;;;;;;;;;;;;;;;;;;;;;;;;;;;;;;;;;;;;;;;;;;;;
"D_TP";"1996";;"Windows 7";"Rachel's Experiment (D.T.)";"1.0";"2";"1";"1";"2";"1";"1";"2014-10-13 14:34:25.640";"2014-10-13 14:47:39.257";"1";"1";"0";"20";"19";"module.training_block1.exec-8852.GoNoGo1";;;;;;;;;;;;;;;;;;;;;;;"1257";"2014-10-13 14:36:22.258";"NST_correctLoc";"17";"0";"FINISHED";"LEFT";"success";"595";"0";"2014-10-13 14:36:20.994";"2";;;;;;;;;;;;;;;;;;;;;;;;;;;;;;;;;;;;;;;;;;;;;;;;;;;;;;;;;
"D_TP";"1996";;"Windows 7";"Rachel's Experiment (D.T.)";"1.0";"2";"1";"1";"2";"1";"1";"2014-10-13 14:34:25.640";"2014-10-13 14:47:39.257";"1";"1";"0";"21";"20";"module.training_block1.exec-8852.GoNoGo1";;;;;;;;;;;;;;;;;;;;;;;"1257";"2014-10-13 14:36:24.800";"ST_correctStop";"22";"0";"FINISHED";"NONE";"success";"0";"1";"2014-10-13 14:36:23.537";"3";;;;;;;;;;;;;;;;;;;;;;;;;;;;;;;;;;;;;;;;;;;;;;;;;;;;;;;;;
"D_TP";"1996";;"Windows 7";"Rachel's Experiment (D.T.)";"1.0";"2";"1";"1";"2";"1";"1";"2014-10-13 14:34:25.640";"2014-10-13 14:47:39.257";"1";"1";"0";"22";"21";"module.training_block1.exec-8852.GoNoGo1";;;;;;;;;;;;;;;;;;;;;;;"1257";"2014-10-13 14:36:27.343";"NST_correctLoc";"11";"1";"FINISHED";"RIGHT";"success";"477";"0";"2014-10-13 14:36:26.079";"2";;;;;;;;;;;;;;;;;;;;;;;;;;;;;;;;;;;;;;;;;;;;;;;;;;;;;;;;;
"D_TP";"1996";;"Windows 7";"Rachel's Experiment (D.T.)";"1.0";"2";"1";"1";"2";"1";"1";"2014-10-13 14:34:25.640";"2014-10-13 14:47:39.257";"1";"1";"0";"23";"22";"module.training_block1.exec-8852.GoNoGo1";;;;;;;;;;;;;;;;;;;;;;;"1261";"2014-10-13 14:36:29.886";"NST_miss";"27";"0";"FINISHED";"NONE";"failure";"0";"0";"2014-10-13 14:36:28.622";"3";;;;;;;;;;;;;;;;;;;;;;;;;;;;;;;;;;;;;;;;;;;;;;;;;;;;;;;;;
"D_TP";"1996";;"Windows 7";"Rachel's Experiment (D.T.)";"1.0";"2";"1";"1";"2";"1";"1";"2014-10-13 14:34:25.640";"2014-10-13 14:47:39.257";"1";"1";"0";"24";"23";"module.training_block1.exec-8852.GoNoGo1";;;;;;;;;;;;;;;;;;;;;;;"1261";"2014-10-13 14:36:32.428";"ST_correctStop";"23";"1";"FINISHED";"NONE";"success";"0";"1";"2014-10-13 14:36:31.165";"3";;;;;;;;;;;;;;;;;;;;;;;;;;;;;;;;;;;;;;;;;;;;;;;;;;;;;;;;;
"D_TP";"1996";;"Windows 7";"Rachel's Experiment (D.T.)";"1.0";"2";"1";"1";"2";"1";"1";"2014-10-13 14:34:25.640";"2014-10-13 14:47:39.257";"1";"1";"0";"25";"24";"module.training_block1.exec-8852.GoNoGo1";;;;;;;;;;;;;;;;;;;;;;;"1256";"2014-10-13 14:36:34.971";"NST_correctLoc";"12";"1";"FINISHED";"RIGHT";"success";"904";"0";"2014-10-13 14:36:33.707";"2";;;;;;;;;;;;;;;;;;;;;;;;;;;;;;;;;;;;;;;;;;;;;;;;;;;;;;;;;
"D_TP";"1996";;"Windows 7";"Rachel's Experiment (D.T.)";"1.0";"2";"1";"1";"2";"1";"1";"2014-10-13 14:34:25.640";"2014-10-13 14:47:39.257";"1";"1";"0";"26";"25";"module.training_block1.exec-8852.GoNoGo1";;;;;;;;;;;;;;;;;;;;;;;"1261";"2014-10-13 14:36:37.513";"ST_correctStop";"2";"0";"FINISHED";"NONE";"success";"0";"1";"2014-10-13 14:36:36.250";"1";;;;;;;;;;;;;;;;;;;;;;;;;;;;;;;;;;;;;;;;;;;;;;;;;;;;;;;;;
"D_TP";"1996";;"Windows 7";"Rachel's Experiment (D.T.)";"1.0";"2";"1";"1";"2";"1";"1";"2014-10-13 14:34:25.640";"2014-10-13 14:47:39.257";"1";"1";"0";"27";"26";"module.training_block1.exec-8852.GoNoGo1";;;;;;;;;;;;;;;;;;;;;;;"1257";"2014-10-13 14:36:40.056";"ST_correctStop";"1";"0";"FINISHED";"NONE";"success";"0";"1";"2014-10-13 14:36:38.793";"1";;;;;;;;;;;;;;;;;;;;;;;;;;;;;;;;;;;;;;;;;;;;;;;;;;;;;;;;;
"D_TP";"1996";;"Windows 7";"Rachel's Experiment (D.T.)";"1.0";"2";"1";"1";"2";"1";"1";"2014-10-13 14:34:25.640";"2014-10-13 14:47:39.257";"1";"1";"0";"28";"27";"module.training_block1.exec-8852.GoNoGo1";;;;;;;;;;;;;;;;;;;;;;;"1261";"2014-10-13 14:36:42.599";"NST_correctLoc";"13";"1";"FINISHED";"RIGHT";"success";"880";"0";"2014-10-13 14:36:41.335";"2";;;;;;;;;;;;;;;;;;;;;;;;;;;;;;;;;;;;;;;;;;;;;;;;;;;;;;;;;
"D_TP";"1996";;"Windows 7";"Rachel's Experiment (D.T.)";"1.0";"2";"1";"1";"2";"1";"1";"2014-10-13 14:34:25.640";"2014-10-13 14:47:39.257";"1";"1";"0";"29";"28";"module.training_block1.exec-8852.GoNoGo1";;;;;;;;;;;;;;;;;;;;;;;"1257";"2014-10-13 14:36:45.141";"ST_correctStop";"7";"0";"FINISHED";"NONE";"success";"0";"1";"2014-10-13 14:36:43.878";"1";;;;;;;;;;;;;;;;;;;;;;;;;;;;;;;;;;;;;;;;;;;;;;;;;;;;;;;;;
"D_TP";"1996";;"Windows 7";"Rachel's Experiment (D.T.)";"1.0";"2";"1";"1";"2";"1";"1";"2014-10-13 14:34:25.640";"2014-10-13 14:47:39.257";"1";"1";"0";"30";"29";"module.training_block1.exec-8852.GoNoGo1";;;;;;;;;;;;;;;;;;;;;;;"1257";"2014-10-13 14:36:47.684";"NST_correctLoc";"28";"0";"FINISHED";"LEFT";"success";"711";"0";"2014-10-13 14:36:46.420";"3";;;;;;;;;;;;;;;;;;;;;;;;;;;;;;;;;;;;;;;;;;;;;;;;;;;;;;;;;
"D_TP";"1996";;"Windows 7";"Rachel's Experiment (D.T.)";"1.0";"2";"1";"1";"2";"1";"1";"2014-10-13 14:34:25.640";"2014-10-13 14:47:39.257";"1";"1";"0";"31";"30";"module.training_block1.exec-8852.GoNoGo1";;;;;;;;;;;;;;;;;;;;;;;"1257";"2014-10-13 14:36:50.227";"NST_correctLoc";"29";"0";"FINISHED";"LEFT";"success";"936";"0";"2014-10-13 14:36:48.963";"3";;;;;;;;;;;;;;;;;;;;;;;;;;;;;;;;;;;;;;;;;;;;;;;;;;;;;;;;;
"D_TP";"1996";;"Windows 7";"Rachel's Experiment (D.T.)";"1.0";"2";"1";"1";"2";"1";"1";"2014-10-13 14:34:25.640";"2014-10-13 14:47:39.257";"1";"1";"0";"32";"31";"module.training_block1.exec-8852.GoNoGo1";;;;;;;;;;;;;;;;;;;;;;;"1261";"2014-10-13 14:36:52.769";"NST_correctLoc";"21";"0";"FINISHED";"LEFT";"success";"1061";"0";"2014-10-13 14:36:51.506";"3";;;;;;;;;;;;;;;;;;;;;;;;;;;;;;;;;;;;;;;;;;;;;;;;;;;;;;;;;
"D_TP";"1996";;"Windows 7";"Rachel's Experiment (D.T.)";"1.0";"2";"1";"1";"2";"1";"1";"2014-10-13 14:34:25.640";"2014-10-13 14:47:39.257";"1";"1";"0";"33";"32";"module.training_block1.exec-8852.GoNoGo1";;;;;;;;;;;;;;;;;;;;;;;"1257";"2014-10-13 14:36:55.312";"ST_correctStop";"35";"0";"FINISHED";"NONE";"success";"0";"1";"2014-10-13 14:36:54.048";"3";;;;;;;;;;;;;;;;;;;;;;;;;;;;;;;;;;;;;;;;;;;;;;;;;;;;;;;;;
"D_TP";"1996";;"Windows 7";"Rachel's Experiment (D.T.)";"1.0";"2";"1";"1";"2";"1";"1";"2014-10-13 14:34:25.640";"2014-10-13 14:47:39.257";"1";"1";"0";"34";"33";"module.training_block1.exec-8852.GoNoGo1";;;;;;;;;;;;;;;;;;;;;;;"1260";"2014-10-13 14:36:57.854";"NST_correctLoc";"15";"0";"FINISHED";"LEFT";"success";"646";"0";"2014-10-13 14:36:56.591";"2";;;;;;;;;;;;;;;;;;;;;;;;;;;;;;;;;;;;;;;;;;;;;;;;;;;;;;;;;
"D_TP";"1996";;"Windows 7";"Rachel's Experiment (D.T.)";"1.0";"2";"1";"1";"2";"1";"1";"2014-10-13 14:34:25.640";"2014-10-13 14:47:39.257";"1";"1";"0";"35";"34";"module.training_block1.exec-8852.GoNoGo1";;;;;;;;;;;;;;;;;;;;;;;"1257";"2014-10-13 14:37:00.397";"ST_correctStop";"33";"1";"FINISHED";"NONE";"success";"0";"1";"2014-10-13 14:36:59.134";"3";;;;;;;;;;;;;;;;;;;;;;;;;;;;;;;;;;;;;;;;;;;;;;;;;;;;;;;;;
"D_TP";"1996";;"Windows 7";"Rachel's Experiment (D.T.)";"1.0";"2";"1";"1";"2";"1";"1";"2014-10-13 14:34:25.640";"2014-10-13 14:47:39.257";"1";"1";"0";"36";"35";"module.training_block1.exec-8852.GoNoGo1";;;;;;;;;;;;;;;;;;;;;;;"1252";"2014-10-13 14:37:02.940";"ST_correctStop";"5";"0";"FINISHED";"NONE";"success";"0";"1";"2014-10-13 14:37:01.676";"1";;;;;;;;;;;;;;;;;;;;;;;;;;;;;;;;;;;;;;;;;;;;;;;;;;;;;;;;;
"D_TP";"1996";;"Windows 7";"Rachel's Experiment (D.T.)";"1.0";"2";"1";"1";"2";"1";"1";"2014-10-13 14:34:25.640";"2014-10-13 14:47:39.257";"1";"1";"0";"37";"36";"module.training_block1.exec-8852.GoNoGo1";;;;;;;;;;;;;;;;;;;;;;;"1261";"2014-10-13 14:37:05.482";"NST_correctLoc";"14";"0";"FINISHED";"LEFT";"success";"475";"0";"2014-10-13 14:37:04.219";"2";;;;;;;;;;;;;;;;;;;;;;;;;;;;;;;;;;;;;;;;;;;;;;;;;;;;;;;;;
"D_TP";"1996";;"Windows 7";"Rachel's Experiment (D.T.)";"1.0";"2";"1";"1";"2";"1";"1";"2014-10-13 14:34:25.640";"2014-10-13 14:47:39.257";"1";"1";"0";"38";"37";"module.training_block1.exec-8852.GoNoGo1";;;;;;;;;;;;;;;;;;;;;;;"1261";"2014-10-13 14:37:08.025";"ST_correctStop";"3";"1";"FINISHED";"NONE";"success";"0";"1";"2014-10-13 14:37:06.761";"1";;;;;;;;;;;;;;;;;;;;;;;;;;;;;;;;;;;;;;;;;;;;;;;;;;;;;;;;;
"D_TP";"1996";;"Windows 7";"Rachel's Experiment (D.T.)";"1.0";"2";"1";"1";"2";"1";"1";"2014-10-13 14:34:25.640";"2014-10-13 14:47:39.257";"1";"1";"0";"39";"38";"module.training_block1.exec-8852.GoNoGo1";;;;;;;;;;;;;;;;;;;;;;;"1256";"2014-10-13 14:37:10.568";"ST_correctStop";"4";"0";"FINISHED";"NONE";"success";"0";"1";"2014-10-13 14:37:09.304";"1";;;;;;;;;;;;;;;;;;;;;;;;;;;;;;;;;;;;;;;;;;;;;;;;;;;;;;;;;
"D_TP";"1996";;"Windows 7";"Rachel's Experiment (D.T.)";"1.0";"2";"1";"1";"2";"1";"1";"2014-10-13 14:34:25.640";"2014-10-13 14:47:39.257";"1";"1";"0";"40";"39";"module.training_block1.exec-8852.GoNoGo1";;;;;;;;;;;;;;;;;;;;;;;"1261";"2014-10-13 14:37:13.110";"ST_correctStop";"34";"0";"FINISHED";"NONE";"success";"0";"1";"2014-10-13 14:37:11.847";"3";;;;;;;;;;;;;;;;;;;;;;;;;;;;;;;;;;;;;;;;;;;;;;;;;;;;;;;;;
"D_TP";"1996";;"Windows 7";"Rachel's Experiment (D.T.)";"1.0";"2";"1";"1";"2";"1";"1";"2014-10-13 14:34:25.640";"2014-10-13 14:47:39.257";"1";"1";"0";"41";"40";"module.training_block1.exec-8852.GoNoGo1";;;;;;;;;;;;;;;;;;;;;;;"1257";"2014-10-13 14:37:15.653";"ST_correctStop";"20";"0";"FINISHED";"NONE";"success";"0";"1";"2014-10-13 14:37:14.389";"3";;;;;;;;;;;;;;;;;;;;;;;;;;;;;;;;;;;;;;;;;;;;;;;;;;;;;;;;;
"D_TP";"1996";;"Windows 7";"Rachel's Experiment (D.T.)";"1.0";"2";"1";"1";"2";"1";"1";"2014-10-13 14:34:25.640";"2014-10-13 14:47:39.257";"1";"1";"0";"42";"41";"module.training_block1.exec-8852.GoNoGo1";;;;;;;;;;;;;;;;;;;;;;;"1257";"2014-10-13 14:37:18.195";"ST_correctStop";"8";"1";"FINISHED";"NONE";"success";"0";"1";"2014-10-13 14:37:16.932";"1";;;;;;;;;;;;;;;;;;;;;;;;;;;;;;;;;;;;;;;;;;;;;;;;;;;;;;;;;
"D_TP";"1996";;"Windows 7";"Rachel's Experiment (D.T.)";"1.0";"2";"1";"1";"2";"1";"1";"2014-10-13 14:34:25.640";"2014-10-13 14:47:39.257";"1";"1";"0";"43";"42";"module.training_block1.exec-8852.GoNoGo1";;;;;;;;;;;;;;;;;;;;;;;"1261";"2014-10-13 14:37:20.738";"NST_correctLoc";"30";"0";"FINISHED";"LEFT";"success";"522";"0";"2014-10-13 14:37:19.475";"3";;;;;;;;;;;;;;;;;;;;;;;;;;;;;;;;;;;;;;;;;;;;;;;;;;;;;;;;;
"D_TP";"1996";;"Windows 7";"Rachel's Experiment (D.T.)";"1.0";"2";"1";"1";"2";"1";"1";"2014-10-13 14:34:25.640";"2014-10-13 14:47:39.257";"1";"1";"0";"44";"43";"module.training_block1.exec-8852.GoNoGo1";;;;;;;;;;;;;;;;;;;;;;;"1257";"2014-10-13 14:37:23.281";"NST_correctLoc";"16";"1";"FINISHED";"RIGHT";"success";"1167";"0";"2014-10-13 14:37:22.017";"2";;;;;;;;;;;;;;;;;;;;;;;;;;;;;;;;;;;;;;;;;;;;;;;;;;;;;;;;;
"D_TP";"1996";;"Windows 7";"Rachel's Experiment (D.T.)";"1.0";"2";"1";"1";"2";"1";"1";"2014-10-13 14:34:25.640";"2014-10-13 14:47:39.257";"1";"1";"0";"45";"44";"module.training_block1.exec-8852.GoNoGo1";;;;;;;;;;;;;;;;;;;;;;;"1261";"2014-10-13 14:37:25.823";"ST_correctStop";"6";"0";"FINISHED";"NONE";"success";"0";"1";"2014-10-13 14:37:24.560";"1";;;;;;;;;;;;;;;;;;;;;;;;;;;;;;;;;;;;;;;;;;;;;;;;;;;;;;;;;
"D_TP";"1996";;"Windows 7";"Rachel's Experiment (D.T.)";"1.0";"2";"1";"1";"2";"1";"1";"2014-10-13 14:34:25.640";"2014-10-13 14:47:39.257";"1";"1";"0";"46";"45";"module.training_block1.exec-8852.GoNoGo1";;;;;;;;;;;;;;;;;;;;;;;"1261";"2014-10-13 14:37:28.366";"NST_correctLoc";"26";"1";"FINISHED";"RIGHT";"success";"950";"0";"2014-10-13 14:37:27.102";"3";;;;;;;;;;;;;;;;;;;;;;;;;;;;;;;;;;;;;;;;;;;;;;;;;;;;;;;;;
"D_TP";"1996";;"Windows 7";"Rachel's Experiment (D.T.)";"1.0";"2";"1";"1";"2";"1";"1";"2014-10-13 14:34:25.640";"2014-10-13 14:47:39.257";"1";"1";"0";"47";"46";"module.training_block1.exec-8852.GoNoGo1";;;;;;;;;;;;;;;;;;;;;;;"1257";"2014-10-13 14:37:30.909";"NST_correctLoc";"25";"1";"FINISHED";"RIGHT";"success";"730";"0";"2014-10-13 14:37:29.645";"3";;;;;;;;;;;;;;;;;;;;;;;;;;;;;;;;;;;;;;;;;;;;;;;;;;;;;;;;;
"D_TP";"1996";;"Windows 7";"Rachel's Experiment (D.T.)";"1.0";"2";"1";"1";"2";"1";"1";"2014-10-13 14:34:25.640";"2014-10-13 14:47:39.257";"1";"1";"0";"48";"47";"module.training_block1.exec-8852.GoNoGo1";;;;;;;;;;;;;;;;;;;;;;;"1257";"2014-10-13 14:37:33.451";"ST_correctStop";"0";"1";"FINISHED";"NONE";"success";"0";"1";"2014-10-13 14:37:32.188";"1";;;;;;;;;;;;;;;;;;;;;;;;;;;;;;;;;;;;;;;;;;;;;;;;;;;;;;;;;
"D_TP";"1996";;"Windows 7";"Rachel's Experiment (D.T.)";"1.0";"2";"1";"1";"2";"1";"1";"2014-10-13 14:34:25.640";"2014-10-13 14:47:39.257";"1";"1";"0";"49";"48";"module.training_block1.exec-8852.GoNoGo1";;;;;;;;;;;;;;;;;;;;;;;"1257";"2014-10-13 14:37:35.994";"NST_correctLoc";"10";"0";"FINISHED";"LEFT";"success";"813";"0";"2014-10-13 14:37:34.730";"2";;;;;;;;;;;;;;;;;;;;;;;;;;;;;;;;;;;;;;;;;;;;;;;;;;;;;;;;;
"D_TP";"1996";;"Windows 7";"Rachel's Experiment (D.T.)";"1.0";"2";"1";"1";"2";"1";"1";"2014-10-13 14:34:25.640";"2014-10-13 14:47:39.257";"1";"1";"0";"50";"49";"module.training_block1.exec-8852.GoNoGo1";;;;;;;;;;;;;;;;;;;;;;;"1257";"2014-10-13 14:37:38.536";"NST_correctLoc";"9";"1";"FINISHED";"RIGHT";"success";"862";"0";"2014-10-13 14:37:37.273";"2";;;;;;;;;;;;;;;;;;;;;;;;;;;;;;;;;;;;;;;;;;;;;;;;;;;;;;;;;
"D_TP";"1996";;"Windows 7";"Rachel's Experiment (D.T.)";"1.0";"2";"1";"1";"2";"1";"1";"2014-10-13 14:34:25.640";"2014-10-13 14:47:39.257";"1";"1";"0";"51";"50";"module.training_block1.exec-8852.GoNoGo1";;;;;;;;;;;;;;;;;;;;;;;"1257";"2014-10-13 14:37:41.079";"NST_correctLoc";"19";"0";"FINISHED";"LEFT";"success";"823";"0";"2014-10-13 14:37:39.815";"3";;;;;;;;;;;;;;;;;;;;;;;;;;;;;;;;;;;;;;;;;;;;;;;;;;;;;;;;;
"D_TP";"1996";;"Windows 7";"Rachel's Experiment (D.T.)";"1.0";"2";"1";"1";"2";"1";"1";"2014-10-13 14:34:25.640";"2014-10-13 14:47:39.257";"1";"1";"0";"52";"51";"module.training_block2.exec-6373.GoNoGo2";;;;;;;;;;;;;;;;;;;;;;;;;;;;;;;;;;;"1261";"2014-10-13 14:37:52.529";"NST_correctLoc";"35";"1";"FINISHED";"RIGHT";"success";"929";"0";"2014-10-13 14:37:51.265";"3";;;;;;;;;;;;;;;;;;;;;;;;;;;;;;;;;;;;;;;;;;;;;
"D_TP";"1996";;"Windows 7";"Rachel's Experiment (D.T.)";"1.0";"2";"1";"1";"2";"1";"1";"2014-10-13 14:34:25.640";"2014-10-13 14:47:39.257";"1";"1";"0";"53";"52";"module.training_block2.exec-6373.GoNoGo2";;;;;;;;;;;;;;;;;;;;;;;;;;;;;;;;;;;"1261";"2014-10-13 14:37:55.071";"NST_correctLoc";"23";"0";"FINISHED";"LEFT";"success";"994";"0";"2014-10-13 14:37:53.808";"3";;;;;;;;;;;;;;;;;;;;;;;;;;;;;;;;;;;;;;;;;;;;;
"D_TP";"1996";;"Windows 7";"Rachel's Experiment (D.T.)";"1.0";"2";"1";"1";"2";"1";"1";"2014-10-13 14:34:25.640";"2014-10-13 14:47:39.257";"1";"1";"0";"54";"53";"module.training_block2.exec-6373.GoNoGo2";;;;;;;;;;;;;;;;;;;;;;;;;;;;;;;;;;;"1261";"2014-10-13 14:37:57.614";"NST_miss";"11";"1";"FINISHED";"NONE";"failure";"0";"0";"2014-10-13 14:37:56.350";"2";;;;;;;;;;;;;;;;;;;;;;;;;;;;;;;;;;;;;;;;;;;;;
"D_TP";"1996";;"Windows 7";"Rachel's Experiment (D.T.)";"1.0";"2";"1";"1";"2";"1";"1";"2014-10-13 14:34:25.640";"2014-10-13 14:47:39.257";"1";"1";"0";"55";"54";"module.training_block2.exec-6373.GoNoGo2";;;;;;;;;;;;;;;;;;;;;;;;;;;;;;;;;;;"1257";"2014-10-13 14:38:00.156";"NST_correctLoc";"12";"0";"FINISHED";"LEFT";"success";"576";"0";"2014-10-13 14:37:58.893";"2";;;;;;;;;;;;;;;;;;;;;;;;;;;;;;;;;;;;;;;;;;;;;
"D_TP";"1996";;"Windows 7";"Rachel's Experiment (D.T.)";"1.0";"2";"1";"1";"2";"1";"1";"2014-10-13 14:34:25.640";"2014-10-13 14:47:39.257";"1";"1";"0";"56";"55";"module.training_block2.exec-6373.GoNoGo2";;;;;;;;;;;;;;;;;;;;;;;;;;;;;;;;;;;"1261";"2014-10-13 14:38:02.699";"ST_correctStop";"7";"1";"FINISHED";"NONE";"success";"0";"1";"2014-10-13 14:38:01.436";"1";;;;;;;;;;;;;;;;;;;;;;;;;;;;;;;;;;;;;;;;;;;;;
"D_TP";"1996";;"Windows 7";"Rachel's Experiment (D.T.)";"1.0";"2";"1";"1";"2";"1";"1";"2014-10-13 14:34:25.640";"2014-10-13 14:47:39.257";"1";"1";"0";"57";"56";"module.training_block2.exec-6373.GoNoGo2";;;;;;;;;;;;;;;;;;;;;;;;;;;;;;;;;;;"1261";"2014-10-13 14:38:05.242";"ST_correctStop";"4";"0";"FINISHED";"NONE";"success";"0";"1";"2014-10-13 14:38:03.978";"1";;;;;;;;;;;;;;;;;;;;;;;;;;;;;;;;;;;;;;;;;;;;;
"D_TP";"1996";;"Windows 7";"Rachel's Experiment (D.T.)";"1.0";"2";"1";"1";"2";"1";"1";"2014-10-13 14:34:25.640";"2014-10-13 14:47:39.257";"1";"1";"0";"58";"57";"module.training_block2.exec-6373.GoNoGo2";;;;;;;;;;;;;;;;;;;;;;;;;;;;;;;;;;;"1261";"2014-10-13 14:38:07.784";"NST_correctLoc";"27";"1";"FINISHED";"RIGHT";"success";"672";"0";"2014-10-13 14:38:06.521";"3";;;;;;;;;;;;;;;;;;;;;;;;;;;;;;;;;;;;;;;;;;;;;
"D_TP";"1996";;"Windows 7";"Rachel's Experiment (D.T.)";"1.0";"2";"1";"1";"2";"1";"1";"2014-10-13 14:34:25.640";"2014-10-13 14:47:39.257";"1";"1";"0";"59";"58";"module.training_block2.exec-6373.GoNoGo2";;;;;;;;;;;;;;;;;;;;;;;;;;;;;;;;;;;"1261";"2014-10-13 14:38:10.327";"ST_correctStop";"3";"0";"FINISHED";"NONE";"success";"0";"1";"2014-10-13 14:38:09.063";"1";;;;;;;;;;;;;;;;;;;;;;;;;;;;;;;;;;;;;;;;;;;;;
"D_TP";"1996";;"Windows 7";"Rachel's Experiment (D.T.)";"1.0";"2";"1";"1";"2";"1";"1";"2014-10-13 14:34:25.640";"2014-10-13 14:47:39.257";"1";"1";"0";"60";"59";"module.training_block2.exec-6373.GoNoGo2";;;;;;;;;;;;;;;;;;;;;;;;;;;;;;;;;;;"1261";"2014-10-13 14:38:12.870";"NST_correctLoc";"28";"0";"FINISHED";"LEFT";"success";"578";"0";"2014-10-13 14:38:11.606";"3";;;;;;;;;;;;;;;;;;;;;;;;;;;;;;;;;;;;;;;;;;;;;
"D_TP";"1996";;"Windows 7";"Rachel's Experiment (D.T.)";"1.0";"2";"1";"1";"2";"1";"1";"2014-10-13 14:34:25.640";"2014-10-13 14:47:39.257";"1";"1";"0";"61";"60";"module.training_block2.exec-6373.GoNoGo2";;;;;;;;;;;;;;;;;;;;;;;;;;;;;;;;;;;"1261";"2014-10-13 14:38:15.412";"ST_correctStop";"19";"1";"FINISHED";"NONE";"success";"0";"1";"2014-10-13 14:38:14.149";"3";;;;;;;;;;;;;;;;;;;;;;;;;;;;;;;;;;;;;;;;;;;;;
"D_TP";"1996";;"Windows 7";"Rachel's Experiment (D.T.)";"1.0";"2";"1";"1";"2";"1";"1";"2014-10-13 14:34:25.640";"2014-10-13 14:47:39.257";"1";"1";"0";"62";"61";"module.training_block2.exec-6373.GoNoGo2";;;;;;;;;;;;;;;;;;;;;;;;;;;;;;;;;;;"1261";"2014-10-13 14:38:17.955";"ST_correctStop";"8";"0";"FINISHED";"NONE";"success";"0";"1";"2014-10-13 14:38:16.691";"1";;;;;;;;;;;;;;;;;;;;;;;;;;;;;;;;;;;;;;;;;;;;;
"D_TP";"1996";;"Windows 7";"Rachel's Experiment (D.T.)";"1.0";"2";"1";"1";"2";"1";"1";"2014-10-13 14:34:25.640";"2014-10-13 14:47:39.257";"1";"1";"0";"63";"62";"module.training_block2.exec-6373.GoNoGo2";;;;;;;;;;;;;;;;;;;;;;;;;;;;;;;;;;;"1261";"2014-10-13 14:38:20.497";"ST_correctStop";"18";"1";"FINISHED";"NONE";"success";"0";"1";"2014-10-13 14:38:19.234";"3";;;;;;;;;;;;;;;;;;;;;;;;;;;;;;;;;;;;;;;;;;;;;
"D_TP";"1996";;"Windows 7";"Rachel's Experiment (D.T.)";"1.0";"2";"1";"1";"2";"1";"1";"2014-10-13 14:34:25.640";"2014-10-13 14:47:39.257";"1";"1";"0";"64";"63";"module.training_block2.exec-6373.GoNoGo2";;;;;;;;;;;;;;;;;;;;;;;;;;;;;;;;;;;"1261";"2014-10-13 14:38:23.040";"ST_correctStop";"20";"1";"FINISHED";"NONE";"success";"0";"1";"2014-10-13 14:38:21.777";"3";;;;;;;;;;;;;;;;;;;;;;;;;;;;;;;;;;;;;;;;;;;;;
"D_TP";"1996";;"Windows 7";"Rachel's Experiment (D.T.)";"1.0";"2";"1";"1";"2";"1";"1";"2014-10-13 14:34:25.640";"2014-10-13 14:47:39.257";"1";"1";"0";"65";"64";"module.training_block2.exec-6373.GoNoGo2";;;;;;;;;;;;;;;;;;;;;;;;;;;;;;;;;;;"1261";"2014-10-13 14:38:25.583";"NST_correctLoc";"29";"0";"FINISHED";"LEFT";"success";"616";"0";"2014-10-13 14:38:24.319";"3";;;;;;;;;;;;;;;;;;;;;;;;;;;;;;;;;;;;;;;;;;;;;
"D_TP";"1996";;"Windows 7";"Rachel's Experiment (D.T.)";"1.0";"2";"1";"1";"2";"1";"1";"2014-10-13 14:34:25.640";"2014-10-13 14:47:39.257";"1";"1";"0";"66";"65";"module.training_block2.exec-6373.GoNoGo2";;;;;;;;;;;;;;;;;;;;;;;;;;;;;;;;;;;"1261";"2014-10-13 14:38:28.125";"NST_correctLoc";"9";"0";"FINISHED";"LEFT";"success";"738";"0";"2014-10-13 14:38:26.862";"2";;;;;;;;;;;;;;;;;;;;;;;;;;;;;;;;;;;;;;;;;;;;;
"D_TP";"1996";;"Windows 7";"Rachel's Experiment (D.T.)";"1.0";"2";"1";"1";"2";"1";"1";"2014-10-13 14:34:25.640";"2014-10-13 14:47:39.257";"1";"1";"0";"67";"66";"module.training_block2.exec-6373.GoNoGo2";;;;;;;;;;;;;;;;;;;;;;;;;;;;;;;;;;;"1261";"2014-10-13 14:38:30.668";"NST_correctLoc";"14";"0";"FINISHED";"LEFT";"success";"547";"0";"2014-10-13 14:38:29.404";"2";;;;;;;;;;;;;;;;;;;;;;;;;;;;;;;;;;;;;;;;;;;;;
"D_TP";"1996";;"Windows 7";"Rachel's Experiment (D.T.)";"1.0";"2";"1";"1";"2";"1";"1";"2014-10-13 14:34:25.640";"2014-10-13 14:47:39.257";"1";"1";"0";"68";"67";"module.training_block2.exec-6373.GoNoGo2";;;;;;;;;;;;;;;;;;;;;;;;;;;;;;;;;;;"1261";"2014-10-13 14:38:33.211";"ST_correctStop";"6";"0";"FINISHED";"NONE";"success";"0";"1";"2014-10-13 14:38:31.947";"1";;;;;;;;;;;;;;;;;;;;;;;;;;;;;;;;;;;;;;;;;;;;;
"D_TP";"1996";;"Windows 7";"Rachel's Experiment (D.T.)";"1.0";"2";"1";"1";"2";"1";"1";"2014-10-13 14:34:25.640";"2014-10-13 14:47:39.257";"1";"1";"0";"69";"68";"module.training_block2.exec-6373.GoNoGo2";;;;;;;;;;;;;;;;;;;;;;;;;;;;;;;;;;;"1261";"2014-10-13 14:38:35.753";"NST_correctLoc";"17";"1";"FINISHED";"RIGHT";"success";"773";"0";"2014-10-13 14:38:34.490";"2";;;;;;;;;;;;;;;;;;;;;;;;;;;;;;;;;;;;;;;;;;;;;
"D_TP";"1996";;"Windows 7";"Rachel's Experiment (D.T.)";"1.0";"2";"1";"1";"2";"1";"1";"2014-10-13 14:34:25.640";"2014-10-13 14:47:39.257";"1";"1";"0";"70";"69";"module.training_block2.exec-6373.GoNoGo2";;;;;;;;;;;;;;;;;;;;;;;;;;;;;;;;;;;"1261";"2014-10-13 14:38:38.296";"ST_correctStop";"0";"0";"FINISHED";"NONE";"success";"0";"1";"2014-10-13 14:38:37.032";"1";;;;;;;;;;;;;;;;;;;;;;;;;;;;;;;;;;;;;;;;;;;;;
"D_TP";"1996";;"Windows 7";"Rachel's Experiment (D.T.)";"1.0";"2";"1";"1";"2";"1";"1";"2014-10-13 14:34:25.640";"2014-10-13 14:47:39.257";"1";"1";"0";"71";"70";"module.training_block2.exec-6373.GoNoGo2";;;;;;;;;;;;;;;;;;;;;;;;;;;;;;;;;;;"1261";"2014-10-13 14:38:40.838";"NST_correctLoc";"15";"1";"FINISHED";"RIGHT";"success";"688";"0";"2014-10-13 14:38:39.575";"2";;;;;;;;;;;;;;;;;;;;;;;;;;;;;;;;;;;;;;;;;;;;;
"D_TP";"1996";;"Windows 7";"Rachel's Experiment (D.T.)";"1.0";"2";"1";"1";"2";"1";"1";"2014-10-13 14:34:25.640";"2014-10-13 14:47:39.257";"1";"1";"0";"72";"71";"module.training_block2.exec-6373.GoNoGo2";;;;;;;;;;;;;;;;;;;;;;;;;;;;;;;;;;;"1261";"2014-10-13 14:38:43.381";"ST_correctStop";"24";"0";"FINISHED";"NONE";"success";"0";"1";"2014-10-13 14:38:42.118";"3";;;;;;;;;;;;;;;;;;;;;;;;;;;;;;;;;;;;;;;;;;;;;
"D_TP";"1996";;"Windows 7";"Rachel's Experiment (D.T.)";"1.0";"2";"1";"1";"2";"1";"1";"2014-10-13 14:34:25.640";"2014-10-13 14:47:39.257";"1";"1";"0";"73";"72";"module.training_block2.exec-6373.GoNoGo2";;;;;;;;;;;;;;;;;;;;;;;;;;;;;;;;;;;"1261";"2014-10-13 14:38:45.924";"NST_correctLoc";"26";"0";"FINISHED";"LEFT";"success";"730";"0";"2014-10-13 14:38:44.660";"3";;;;;;;;;;;;;;;;;;;;;;;;;;;;;;;;;;;;;;;;;;;;;
"D_TP";"1996";;"Windows 7";"Rachel's Experiment (D.T.)";"1.0";"2";"1";"1";"2";"1";"1";"2014-10-13 14:34:25.640";"2014-10-13 14:47:39.257";"1";"1";"0";"74";"73";"module.training_block2.exec-6373.GoNoGo2";;;;;;;;;;;;;;;;;;;;;;;;;;;;;;;;;;;"1261";"2014-10-13 14:38:48.466";"ST_correctStop";"2";"1";"FINISHED";"NONE";"success";"0";"1";"2014-10-13 14:38:47.203";"1";;;;;;;;;;;;;;;;;;;;;;;;;;;;;;;;;;;;;;;;;;;;;
"D_TP";"1996";;"Windows 7";"Rachel's Experiment (D.T.)";"1.0";"2";"1";"1";"2";"1";"1";"2014-10-13 14:34:25.640";"2014-10-13 14:47:39.257";"1";"1";"0";"75";"74";"module.training_block2.exec-6373.GoNoGo2";;;;;;;;;;;;;;;;;;;;;;;;;;;;;;;;;;;"1261";"2014-10-13 14:38:51.009";"NST_correctLoc";"32";"1";"FINISHED";"RIGHT";"success";"660";"0";"2014-10-13 14:38:49.746";"3";;;;;;;;;;;;;;;;;;;;;;;;;;;;;;;;;;;;;;;;;;;;;
"D_TP";"1996";;"Windows 7";"Rachel's Experiment (D.T.)";"1.0";"2";"1";"1";"2";"1";"1";"2014-10-13 14:34:25.640";"2014-10-13 14:47:39.257";"1";"1";"0";"76";"75";"module.training_block2.exec-6373.GoNoGo2";;;;;;;;;;;;;;;;;;;;;;;;;;;;;;;;;;;"1261";"2014-10-13 14:38:53.552";"ST_correctStop";"34";"1";"FINISHED";"NONE";"success";"0";"1";"2014-10-13 14:38:52.288";"3";;;;;;;;;;;;;;;;;;;;;;;;;;;;;;;;;;;;;;;;;;;;;
"D_TP";"1996";;"Windows 7";"Rachel's Experiment (D.T.)";"1.0";"2";"1";"1";"2";"1";"1";"2014-10-13 14:34:25.640";"2014-10-13 14:47:39.257";"1";"1";"0";"77";"76";"module.training_block2.exec-6373.GoNoGo2";;;;;;;;;;;;;;;;;;;;;;;;;;;;;;;;;;;"1261";"2014-10-13 14:38:56.094";"ST_correctStop";"21";"1";"FINISHED";"NONE";"success";"0";"1";"2014-10-13 14:38:54.831";"3";;;;;;;;;;;;;;;;;;;;;;;;;;;;;;;;;;;;;;;;;;;;;
"D_TP";"1996";;"Windows 7";"Rachel's Experiment (D.T.)";"1.0";"2";"1";"1";"2";"1";"1";"2014-10-13 14:34:25.640";"2014-10-13 14:47:39.257";"1";"1";"0";"78";"77";"module.training_block2.exec-6373.GoNoGo2";;;;;;;;;;;;;;;;;;;;;;;;;;;;;;;;;;;"1261";"2014-10-13 14:38:58.637";"NST_correctLoc";"30";"1";"FINISHED";"RIGHT";"success";"648";"0";"2014-10-13 14:38:57.374";"3";;;;;;;;;;;;;;;;;;;;;;;;;;;;;;;;;;;;;;;;;;;;;
"D_TP";"1996";;"Windows 7";"Rachel's Experiment (D.T.)";"1.0";"2";"1";"1";"2";"1";"1";"2014-10-13 14:34:25.640";"2014-10-13 14:47:39.257";"1";"1";"0";"79";"78";"module.training_block2.exec-6373.GoNoGo2";;;;;;;;;;;;;;;;;;;;;;;;;;;;;;;;;;;"1261";"2014-10-13 14:39:01.180";"NST_correctLoc";"31";"1";"FINISHED";"RIGHT";"success";"785";"0";"2014-10-13 14:38:59.916";"3";;;;;;;;;;;;;;;;;;;;;;;;;;;;;;;;;;;;;;;;;;;;;
"D_TP";"1996";;"Windows 7";"Rachel's Experiment (D.T.)";"1.0";"2";"1";"1";"2";"1";"1";"2014-10-13 14:34:25.640";"2014-10-13 14:47:39.257";"1";"1";"0";"80";"79";"module.training_block2.exec-6373.GoNoGo2";;;;;;;;;;;;;;;;;;;;;;;;;;;;;;;;;;;"1261";"2014-10-13 14:39:03.722";"ST_correctStop";"5";"1";"FINISHED";"NONE";"success";"0";"1";"2014-10-13 14:39:02.459";"1";;;;;;;;;;;;;;;;;;;;;;;;;;;;;;;;;;;;;;;;;;;;;
"D_TP";"1996";;"Windows 7";"Rachel's Experiment (D.T.)";"1.0";"2";"1";"1";"2";"1";"1";"2014-10-13 14:34:25.640";"2014-10-13 14:47:39.257";"1";"1";"0";"81";"80";"module.training_block2.exec-6373.GoNoGo2";;;;;;;;;;;;;;;;;;;;;;;;;;;;;;;;;;;"1261";"2014-10-13 14:39:06.265";"NST_correctLoc";"16";"0";"FINISHED";"LEFT";"success";"699";"0";"2014-10-13 14:39:05.002";"2";;;;;;;;;;;;;;;;;;;;;;;;;;;;;;;;;;;;;;;;;;;;;
"D_TP";"1996";;"Windows 7";"Rachel's Experiment (D.T.)";"1.0";"2";"1";"1";"2";"1";"1";"2014-10-13 14:34:25.640";"2014-10-13 14:47:39.257";"1";"1";"0";"82";"81";"module.training_block2.exec-6373.GoNoGo2";;;;;;;;;;;;;;;;;;;;;;;;;;;;;;;;;;;"1261";"2014-10-13 14:39:08.808";"ST_correctStop";"25";"0";"FINISHED";"NONE";"success";"0";"1";"2014-10-13 14:39:07.544";"3";;;;;;;;;;;;;;;;;;;;;;;;;;;;;;;;;;;;;;;;;;;;;
"D_TP";"1996";;"Windows 7";"Rachel's Experiment (D.T.)";"1.0";"2";"1";"1";"2";"1";"1";"2014-10-13 14:34:25.640";"2014-10-13 14:47:39.257";"1";"1";"0";"83";"82";"module.training_block2.exec-6373.GoNoGo2";;;;;;;;;;;;;;;;;;;;;;;;;;;;;;;;;;;"1261";"2014-10-13 14:39:11.350";"ST_correctStop";"33";"1";"FINISHED";"NONE";"success";"0";"1";"2014-10-13 14:39:10.087";"3";;;;;;;;;;;;;;;;;;;;;;;;;;;;;;;;;;;;;;;;;;;;;
"D_TP";"1996";;"Windows 7";"Rachel's Experiment (D.T.)";"1.0";"2";"1";"1";"2";"1";"1";"2014-10-13 14:34:25.640";"2014-10-13 14:47:39.257";"1";"1";"0";"84";"83";"module.training_block2.exec-6373.GoNoGo2";;;;;;;;;;;;;;;;;;;;;;;;;;;;;;;;;;;"1262";"2014-10-13 14:39:13.893";"ST_correctStop";"22";"0";"FINISHED";"NONE";"success";"0";"1";"2014-10-13 14:39:12.629";"3";;;;;;;;;;;;;;;;;;;;;;;;;;;;;;;;;;;;;;;;;;;;;
"D_TP";"1996";;"Windows 7";"Rachel's Experiment (D.T.)";"1.0";"2";"1";"1";"2";"1";"1";"2014-10-13 14:34:25.640";"2014-10-13 14:47:39.257";"1";"1";"0";"85";"84";"module.training_block2.exec-6373.GoNoGo2";;;;;;;;;;;;;;;;;;;;;;;;;;;;;;;;;;;"1261";"2014-10-13 14:39:16.436";"ST_correctStop";"1";"0";"FINISHED";"NONE";"success";"0";"1";"2014-10-13 14:39:15.172";"1";;;;;;;;;;;;;;;;;;;;;;;;;;;;;;;;;;;;;;;;;;;;;
"D_TP";"1996";;"Windows 7";"Rachel's Experiment (D.T.)";"1.0";"2";"1";"1";"2";"1";"1";"2014-10-13 14:34:25.640";"2014-10-13 14:47:39.257";"1";"1";"0";"86";"85";"module.training_block2.exec-6373.GoNoGo2";;;;;;;;;;;;;;;;;;;;;;;;;;;;;;;;;;;"1261";"2014-10-13 14:39:18.978";"NST_correctLoc";"13";"1";"FINISHED";"RIGHT";"success";"753";"0";"2014-10-13 14:39:17.715";"2";;;;;;;;;;;;;;;;;;;;;;;;;;;;;;;;;;;;;;;;;;;;;
"D_TP";"1996";;"Windows 7";"Rachel's Experiment (D.T.)";"1.0";"2";"1";"1";"2";"1";"1";"2014-10-13 14:34:25.640";"2014-10-13 14:47:39.257";"1";"1";"0";"87";"86";"module.training_block2.exec-6373.GoNoGo2";;;;;;;;;;;;;;;;;;;;;;;;;;;;;;;;;;;"1261";"2014-10-13 14:39:21.521";"NST_correctLoc";"10";"0";"FINISHED";"LEFT";"success";"746";"0";"2014-10-13 14:39:20.257";"2";;;;;;;;;;;;;;;;;;;;;;;;;;;;;;;;;;;;;;;;;;;;;
"D_TP";"1996";;"Windows 7";"Rachel's Experiment (D.T.)";"1.0";"2";"1";"1";"2";"1";"1";"2014-10-13 14:34:25.640";"2014-10-13 14:47:39.257";"1";"1";"0";"88";"87";"module.training_block3.exec-9605.GoNoGo3";;;;;;;;;;;;;;;;;;;;;;;;;;;;;;;;;;;;;;;;;;;;;;;"1261";"2014-10-13 14:39:32.534";"ST_correctStop";"6";"1";"FINISHED";"NONE";"success";"0";"1";"2014-10-13 14:39:31.270";"1";;;;;;;;;;;;;;;;;;;;;;;;;;;;;;;;;
"D_TP";"1996";;"Windows 7";"Rachel's Experiment (D.T.)";"1.0";"2";"1";"1";"2";"1";"1";"2014-10-13 14:34:25.640";"2014-10-13 14:47:39.257";"1";"1";"0";"89";"88";"module.training_block3.exec-9605.GoNoGo3";;;;;;;;;;;;;;;;;;;;;;;;;;;;;;;;;;;;;;;;;;;;;;;"1261";"2014-10-13 14:39:35.077";"NST_correctLoc";"14";"1";"FINISHED";"RIGHT";"success";"598";"0";"2014-10-13 14:39:33.813";"2";;;;;;;;;;;;;;;;;;;;;;;;;;;;;;;;;
"D_TP";"1996";;"Windows 7";"Rachel's Experiment (D.T.)";"1.0";"2";"1";"1";"2";"1";"1";"2014-10-13 14:34:25.640";"2014-10-13 14:47:39.257";"1";"1";"0";"90";"89";"module.training_block3.exec-9605.GoNoGo3";;;;;;;;;;;;;;;;;;;;;;;;;;;;;;;;;;;;;;;;;;;;;;;"1261";"2014-10-13 14:39:37.619";"NST_correctLoc";"12";"1";"FINISHED";"RIGHT";"success";"663";"0";"2014-10-13 14:39:36.356";"2";;;;;;;;;;;;;;;;;;;;;;;;;;;;;;;;;
"D_TP";"1996";;"Windows 7";"Rachel's Experiment (D.T.)";"1.0";"2";"1";"1";"2";"1";"1";"2014-10-13 14:34:25.640";"2014-10-13 14:47:39.257";"1";"1";"0";"91";"90";"module.training_block3.exec-9605.GoNoGo3";;;;;;;;;;;;;;;;;;;;;;;;;;;;;;;;;;;;;;;;;;;;;;;"1261";"2014-10-13 14:39:40.162";"ST_failedStop";"5";"1";"FINISHED";"RIGHT";"failure";"696";"1";"2014-10-13 14:39:38.898";"1";;;;;;;;;;;;;;;;;;;;;;;;;;;;;;;;;
"D_TP";"1996";;"Windows 7";"Rachel's Experiment (D.T.)";"1.0";"2";"1";"1";"2";"1";"1";"2014-10-13 14:34:25.640";"2014-10-13 14:47:39.257";"1";"1";"0";"92";"91";"module.training_block3.exec-9605.GoNoGo3";;;;;;;;;;;;;;;;;;;;;;;;;;;;;;;;;;;;;;;;;;;;;;;"1261";"2014-10-13 14:39:42.705";"NST_correctLoc";"16";"1";"FINISHED";"RIGHT";"success";"833";"0";"2014-10-13 14:39:41.441";"2";;;;;;;;;;;;;;;;;;;;;;;;;;;;;;;;;
"D_TP";"1996";;"Windows 7";"Rachel's Experiment (D.T.)";"1.0";"2";"1";"1";"2";"1";"1";"2014-10-13 14:34:25.640";"2014-10-13 14:47:39.257";"1";"1";"0";"93";"92";"module.training_block3.exec-9605.GoNoGo3";;;;;;;;;;;;;;;;;;;;;;;;;;;;;;;;;;;;;;;;;;;;;;;"1261";"2014-10-13 14:39:45.247";"ST_correctStop";"4";"1";"FINISHED";"NONE";"success";"0";"1";"2014-10-13 14:39:43.984";"1";;;;;;;;;;;;;;;;;;;;;;;;;;;;;;;;;
"D_TP";"1996";;"Windows 7";"Rachel's Experiment (D.T.)";"1.0";"2";"1";"1";"2";"1";"1";"2014-10-13 14:34:25.640";"2014-10-13 14:47:39.257";"1";"1";"0";"94";"93";"module.training_block3.exec-9605.GoNoGo3";;;;;;;;;;;;;;;;;;;;;;;;;;;;;;;;;;;;;;;;;;;;;;;"1261";"2014-10-13 14:39:47.790";"ST_correctStop";"8";"0";"FINISHED";"NONE";"success";"0";"1";"2014-10-13 14:39:46.526";"1";;;;;;;;;;;;;;;;;;;;;;;;;;;;;;;;;
"D_TP";"1996";;"Windows 7";"Rachel's Experiment (D.T.)";"1.0";"2";"1";"1";"2";"1";"1";"2014-10-13 14:34:25.640";"2014-10-13 14:47:39.257";"1";"1";"0";"95";"94";"module.training_block3.exec-9605.GoNoGo3";;;;;;;;;;;;;;;;;;;;;;;;;;;;;;;;;;;;;;;;;;;;;;;"1261";"2014-10-13 14:39:50.332";"ST_correctStop";"30";"0";"FINISHED";"NONE";"success";"0";"1";"2014-10-13 14:39:49.069";"3";;;;;;;;;;;;;;;;;;;;;;;;;;;;;;;;;
"D_TP";"1996";;"Windows 7";"Rachel's Experiment (D.T.)";"1.0";"2";"1";"1";"2";"1";"1";"2014-10-13 14:34:25.640";"2014-10-13 14:47:39.257";"1";"1";"0";"96";"95";"module.training_block3.exec-9605.GoNoGo3";;;;;;;;;;;;;;;;;;;;;;;;;;;;;;;;;;;;;;;;;;;;;;;"1261";"2014-10-13 14:39:52.875";"NST_correctLoc";"27";"0";"FINISHED";"LEFT";"success";"862";"0";"2014-10-13 14:39:51.612";"3";;;;;;;;;;;;;;;;;;;;;;;;;;;;;;;;;
"D_TP";"1996";;"Windows 7";"Rachel's Experiment (D.T.)";"1.0";"2";"1";"1";"2";"1";"1";"2014-10-13 14:34:25.640";"2014-10-13 14:47:39.257";"1";"1";"0";"97";"96";"module.training_block3.exec-9605.GoNoGo3";;;;;;;;;;;;;;;;;;;;;;;;;;;;;;;;;;;;;;;;;;;;;;;"1261";"2014-10-13 14:39:55.418";"ST_correctStop";"29";"0";"FINISHED";"NONE";"success";"0";"1";"2014-10-13 14:39:54.154";"3";;;;;;;;;;;;;;;;;;;;;;;;;;;;;;;;;
"D_TP";"1996";;"Windows 7";"Rachel's Experiment (D.T.)";"1.0";"2";"1";"1";"2";"1";"1";"2014-10-13 14:34:25.640";"2014-10-13 14:47:39.257";"1";"1";"0";"98";"97";"module.training_block3.exec-9605.GoNoGo3";;;;;;;;;;;;;;;;;;;;;;;;;;;;;;;;;;;;;;;;;;;;;;;"1261";"2014-10-13 14:39:57.960";"ST_correctStop";"2";"0";"FINISHED";"NONE";"success";"0";"1";"2014-10-13 14:39:56.697";"1";;;;;;;;;;;;;;;;;;;;;;;;;;;;;;;;;
"D_TP";"1996";;"Windows 7";"Rachel's Experiment (D.T.)";"1.0";"2";"1";"1";"2";"1";"1";"2014-10-13 14:34:25.640";"2014-10-13 14:47:39.257";"1";"1";"0";"99";"98";"module.training_block3.exec-9605.GoNoGo3";;;;;;;;;;;;;;;;;;;;;;;;;;;;;;;;;;;;;;;;;;;;;;;"1261";"2014-10-13 14:40:00.503";"NST_correctLoc";"21";"1";"FINISHED";"RIGHT";"success";"954";"0";"2014-10-13 14:39:59.240";"3";;;;;;;;;;;;;;;;;;;;;;;;;;;;;;;;;
"D_TP";"1996";;"Windows 7";"Rachel's Experiment (D.T.)";"1.0";"2";"1";"1";"2";"1";"1";"2014-10-13 14:34:25.640";"2014-10-13 14:47:39.257";"1";"1";"0";"100";"99";"module.training_block3.exec-9605.GoNoGo3";;;;;;;;;;;;;;;;;;;;;;;;;;;;;;;;;;;;;;;;;;;;;;;"1261";"2014-10-13 14:40:03.046";"NST_correctLoc";"19";"1";"FINISHED";"RIGHT";"success";"891";"0";"2014-10-13 14:40:01.782";"3";;;;;;;;;;;;;;;;;;;;;;;;;;;;;;;;;
"D_TP";"1996";;"Windows 7";"Rachel's Experiment (D.T.)";"1.0";"2";"1";"1";"2";"1";"1";"2014-10-13 14:34:25.640";"2014-10-13 14:47:39.257";"1";"1";"0";"101";"100";"module.training_block3.exec-9605.GoNoGo3";;;;;;;;;;;;;;;;;;;;;;;;;;;;;;;;;;;;;;;;;;;;;;;"1261";"2014-10-13 14:40:05.588";"NST_correctLoc";"26";"0";"FINISHED";"LEFT";"success";"580";"0";"2014-10-13 14:40:04.325";"3";;;;;;;;;;;;;;;;;;;;;;;;;;;;;;;;;
"D_TP";"1996";;"Windows 7";"Rachel's Experiment (D.T.)";"1.0";"2";"1";"1";"2";"1";"1";"2014-10-13 14:34:25.640";"2014-10-13 14:47:39.257";"1";"1";"0";"102";"101";"module.training_block3.exec-9605.GoNoGo3";;;;;;;;;;;;;;;;;;;;;;;;;;;;;;;;;;;;;;;;;;;;;;;"1261";"2014-10-13 14:40:08.131";"NST_correctLoc";"34";"1";"FINISHED";"RIGHT";"success";"1165";"0";"2014-10-13 14:40:06.868";"3";;;;;;;;;;;;;;;;;;;;;;;;;;;;;;;;;
"D_TP";"1996";;"Windows 7";"Rachel's Experiment (D.T.)";"1.0";"2";"1";"1";"2";"1";"1";"2014-10-13 14:34:25.640";"2014-10-13 14:47:39.257";"1";"1";"0";"103";"102";"module.training_block3.exec-9605.GoNoGo3";;;;;;;;;;;;;;;;;;;;;;;;;;;;;;;;;;;;;;;;;;;;;;;"1261";"2014-10-13 14:40:10.674";"ST_correctStop";"32";"1";"FINISHED";"NONE";"success";"0";"1";"2014-10-13 14:40:09.410";"3";;;;;;;;;;;;;;;;;;;;;;;;;;;;;;;;;
"D_TP";"1996";;"Windows 7";"Rachel's Experiment (D.T.)";"1.0";"2";"1";"1";"2";"1";"1";"2014-10-13 14:34:25.640";"2014-10-13 14:47:39.257";"1";"1";"0";"104";"103";"module.training_block3.exec-9605.GoNoGo3";;;;;;;;;;;;;;;;;;;;;;;;;;;;;;;;;;;;;;;;;;;;;;;"1261";"2014-10-13 14:40:13.216";"ST_correctStop";"22";"0";"FINISHED";"NONE";"success";"0";"1";"2014-10-13 14:40:11.953";"3";;;;;;;;;;;;;;;;;;;;;;;;;;;;;;;;;
"D_TP";"1996";;"Windows 7";"Rachel's Experiment (D.T.)";"1.0";"2";"1";"1";"2";"1";"1";"2014-10-13 14:34:25.640";"2014-10-13 14:47:39.257";"1";"1";"0";"105";"104";"module.training_block3.exec-9605.GoNoGo3";;;;;;;;;;;;;;;;;;;;;;;;;;;;;;;;;;;;;;;;;;;;;;;"1261";"2014-10-13 14:40:15.759";"ST_correctStop";"3";"0";"FINISHED";"NONE";"success";"0";"1";"2014-10-13 14:40:14.495";"1";;;;;;;;;;;;;;;;;;;;;;;;;;;;;;;;;
"D_TP";"1996";;"Windows 7";"Rachel's Experiment (D.T.)";"1.0";"2";"1";"1";"2";"1";"1";"2014-10-13 14:34:25.640";"2014-10-13 14:47:39.257";"1";"1";"0";"106";"105";"module.training_block3.exec-9605.GoNoGo3";;;;;;;;;;;;;;;;;;;;;;;;;;;;;;;;;;;;;;;;;;;;;;;"1261";"2014-10-13 14:40:18.302";"ST_correctStop";"28";"1";"FINISHED";"NONE";"success";"0";"1";"2014-10-13 14:40:17.038";"3";;;;;;;;;;;;;;;;;;;;;;;;;;;;;;;;;
"D_TP";"1996";;"Windows 7";"Rachel's Experiment (D.T.)";"1.0";"2";"1";"1";"2";"1";"1";"2014-10-13 14:34:25.640";"2014-10-13 14:47:39.257";"1";"1";"0";"107";"106";"module.training_block3.exec-9605.GoNoGo3";;;;;;;;;;;;;;;;;;;;;;;;;;;;;;;;;;;;;;;;;;;;;;;"1261";"2014-10-13 14:40:20.844";"ST_correctStop";"24";"1";"FINISHED";"NONE";"success";"0";"1";"2014-10-13 14:40:19.581";"3";;;;;;;;;;;;;;;;;;;;;;;;;;;;;;;;;
"D_TP";"1996";;"Windows 7";"Rachel's Experiment (D.T.)";"1.0";"2";"1";"1";"2";"1";"1";"2014-10-13 14:34:25.640";"2014-10-13 14:47:39.257";"1";"1";"0";"108";"107";"module.training_block3.exec-9605.GoNoGo3";;;;;;;;;;;;;;;;;;;;;;;;;;;;;;;;;;;;;;;;;;;;;;;"1261";"2014-10-13 14:40:23.387";"NST_correctLoc";"15";"1";"FINISHED";"RIGHT";"success";"652";"0";"2014-10-13 14:40:22.123";"2";;;;;;;;;;;;;;;;;;;;;;;;;;;;;;;;;
"D_TP";"1996";;"Windows 7";"Rachel's Experiment (D.T.)";"1.0";"2";"1";"1";"2";"1";"1";"2014-10-13 14:34:25.640";"2014-10-13 14:47:39.257";"1";"1";"0";"109";"108";"module.training_block3.exec-9605.GoNoGo3";;;;;;;;;;;;;;;;;;;;;;;;;;;;;;;;;;;;;;;;;;;;;;;"1261";"2014-10-13 14:40:25.930";"NST_correctLoc";"9";"1";"FINISHED";"RIGHT";"success";"685";"0";"2014-10-13 14:40:24.666";"2";;;;;;;;;;;;;;;;;;;;;;;;;;;;;;;;;
"D_TP";"1996";;"Windows 7";"Rachel's Experiment (D.T.)";"1.0";"2";"1";"1";"2";"1";"1";"2014-10-13 14:34:25.640";"2014-10-13 14:47:39.257";"1";"1";"0";"110";"109";"module.training_block3.exec-9605.GoNoGo3";;;;;;;;;;;;;;;;;;;;;;;;;;;;;;;;;;;;;;;;;;;;;;;"1261";"2014-10-13 14:40:28.472";"NST_correctLoc";"23";"0";"FINISHED";"LEFT";"success";"943";"0";"2014-10-13 14:40:27.209";"3";;;;;;;;;;;;;;;;;;;;;;;;;;;;;;;;;
"D_TP";"1996";;"Windows 7";"Rachel's Experiment (D.T.)";"1.0";"2";"1";"1";"2";"1";"1";"2014-10-13 14:34:25.640";"2014-10-13 14:47:39.257";"1";"1";"0";"111";"110";"module.training_block3.exec-9605.GoNoGo3";;;;;;;;;;;;;;;;;;;;;;;;;;;;;;;;;;;;;;;;;;;;;;;"1261";"2014-10-13 14:40:31.015";"NST_correctLoc";"13";"1";"FINISHED";"RIGHT";"success";"608";"0";"2014-10-13 14:40:29.751";"2";;;;;;;;;;;;;;;;;;;;;;;;;;;;;;;;;
"D_TP";"1996";;"Windows 7";"Rachel's Experiment (D.T.)";"1.0";"2";"1";"1";"2";"1";"1";"2014-10-13 14:34:25.640";"2014-10-13 14:47:39.257";"1";"1";"0";"112";"111";"module.training_block3.exec-9605.GoNoGo3";;;;;;;;;;;;;;;;;;;;;;;;;;;;;;;;;;;;;;;;;;;;;;;"1261";"2014-10-13 14:40:33.558";"ST_correctStop";"20";"1";"FINISHED";"NONE";"success";"0";"1";"2014-10-13 14:40:32.294";"3";;;;;;;;;;;;;;;;;;;;;;;;;;;;;;;;;
"D_TP";"1996";;"Windows 7";"Rachel's Experiment (D.T.)";"1.0";"2";"1";"1";"2";"1";"1";"2014-10-13 14:34:25.640";"2014-10-13 14:47:39.257";"1";"1";"0";"113";"112";"module.training_block3.exec-9605.GoNoGo3";;;;;;;;;;;;;;;;;;;;;;;;;;;;;;;;;;;;;;;;;;;;;;;"1261";"2014-10-13 14:40:36.100";"NST_correctLoc";"35";"0";"FINISHED";"LEFT";"success";"650";"0";"2014-10-13 14:40:34.837";"3";;;;;;;;;;;;;;;;;;;;;;;;;;;;;;;;;
"D_TP";"1996";;"Windows 7";"Rachel's Experiment (D.T.)";"1.0";"2";"1";"1";"2";"1";"1";"2014-10-13 14:34:25.640";"2014-10-13 14:47:39.257";"1";"1";"0";"114";"113";"module.training_block3.exec-9605.GoNoGo3";;;;;;;;;;;;;;;;;;;;;;;;;;;;;;;;;;;;;;;;;;;;;;;"1261";"2014-10-13 14:40:38.643";"NST_wrongLoc";"17";"0";"FINISHED";"RIGHT";"failure";"1099";"0";"2014-10-13 14:40:37.379";"2";;;;;;;;;;;;;;;;;;;;;;;;;;;;;;;;;
"D_TP";"1996";;"Windows 7";"Rachel's Experiment (D.T.)";"1.0";"2";"1";"1";"2";"1";"1";"2014-10-13 14:34:25.640";"2014-10-13 14:47:39.257";"1";"1";"0";"115";"114";"module.training_block3.exec-9605.GoNoGo3";;;;;;;;;;;;;;;;;;;;;;;;;;;;;;;;;;;;;;;;;;;;;;;"1261";"2014-10-13 14:40:41.186";"NST_correctLoc";"11";"1";"FINISHED";"RIGHT";"success";"701";"0";"2014-10-13 14:40:39.922";"2";;;;;;;;;;;;;;;;;;;;;;;;;;;;;;;;;
"D_TP";"1996";;"Windows 7";"Rachel's Experiment (D.T.)";"1.0";"2";"1";"1";"2";"1";"1";"2014-10-13 14:34:25.640";"2014-10-13 14:47:39.257";"1";"1";"0";"116";"115";"module.training_block3.exec-9605.GoNoGo3";;;;;;;;;;;;;;;;;;;;;;;;;;;;;;;;;;;;;;;;;;;;;;;"1261";"2014-10-13 14:40:43.728";"NST_correctLoc";"33";"1";"FINISHED";"RIGHT";"success";"742";"0";"2014-10-13 14:40:42.465";"3";;;;;;;;;;;;;;;;;;;;;;;;;;;;;;;;;
"D_TP";"1996";;"Windows 7";"Rachel's Experiment (D.T.)";"1.0";"2";"1";"1";"2";"1";"1";"2014-10-13 14:34:25.640";"2014-10-13 14:47:39.257";"1";"1";"0";"117";"116";"module.training_block3.exec-9605.GoNoGo3";;;;;;;;;;;;;;;;;;;;;;;;;;;;;;;;;;;;;;;;;;;;;;;"1261";"2014-10-13 14:40:46.271";"NST_correctLoc";"31";"0";"FINISHED";"LEFT";"success";"631";"0";"2014-10-13 14:40:45.007";"3";;;;;;;;;;;;;;;;;;;;;;;;;;;;;;;;;
"D_TP";"1996";;"Windows 7";"Rachel's Experiment (D.T.)";"1.0";"2";"1";"1";"2";"1";"1";"2014-10-13 14:34:25.640";"2014-10-13 14:47:39.257";"1";"1";"0";"118";"117";"module.training_block3.exec-9605.GoNoGo3";;;;;;;;;;;;;;;;;;;;;;;;;;;;;;;;;;;;;;;;;;;;;;;"1261";"2014-10-13 14:40:48.814";"ST_correctStop";"0";"1";"FINISHED";"NONE";"success";"0";"1";"2014-10-13 14:40:47.550";"1";;;;;;;;;;;;;;;;;;;;;;;;;;;;;;;;;
"D_TP";"1996";;"Windows 7";"Rachel's Experiment (D.T.)";"1.0";"2";"1";"1";"2";"1";"1";"2014-10-13 14:34:25.640";"2014-10-13 14:47:39.257";"1";"1";"0";"119";"118";"module.training_block3.exec-9605.GoNoGo3";;;;;;;;;;;;;;;;;;;;;;;;;;;;;;;;;;;;;;;;;;;;;;;"1261";"2014-10-13 14:40:51.356";"ST_correctStop";"18";"1";"FINISHED";"NONE";"success";"0";"1";"2014-10-13 14:40:50.093";"3";;;;;;;;;;;;;;;;;;;;;;;;;;;;;;;;;
"D_TP";"1996";;"Windows 7";"Rachel's Experiment (D.T.)";"1.0";"2";"1";"1";"2";"1";"1";"2014-10-13 14:34:25.640";"2014-10-13 14:47:39.257";"1";"1";"0";"120";"119";"module.training_block3.exec-9605.GoNoGo3";;;;;;;;;;;;;;;;;;;;;;;;;;;;;;;;;;;;;;;;;;;;;;;"1262";"2014-10-13 14:40:53.899";"ST_correctStop";"1";"1";"FINISHED";"NONE";"success";"0";"1";"2014-10-13 14:40:52.635";"1";;;;;;;;;;;;;;;;;;;;;;;;;;;;;;;;;
"D_TP";"1996";;"Windows 7";"Rachel's Experiment (D.T.)";"1.0";"2";"1";"1";"2";"1";"1";"2014-10-13 14:34:25.640";"2014-10-13 14:47:39.257";"1";"1";"0";"121";"120";"module.training_block3.exec-9605.GoNoGo3";;;;;;;;;;;;;;;;;;;;;;;;;;;;;;;;;;;;;;;;;;;;;;;"1261";"2014-10-13 14:40:56.441";"NST_correctLoc";"10";"0";"FINISHED";"LEFT";"success";"868";"0";"2014-10-13 14:40:55.178";"2";;;;;;;;;;;;;;;;;;;;;;;;;;;;;;;;;
"D_TP";"1996";;"Windows 7";"Rachel's Experiment (D.T.)";"1.0";"2";"1";"1";"2";"1";"1";"2014-10-13 14:34:25.640";"2014-10-13 14:47:39.257";"1";"1";"0";"122";"121";"module.training_block3.exec-9605.GoNoGo3";;;;;;;;;;;;;;;;;;;;;;;;;;;;;;;;;;;;;;;;;;;;;;;"1261";"2014-10-13 14:40:58.984";"ST_correctStop";"7";"0";"FINISHED";"NONE";"success";"0";"1";"2014-10-13 14:40:57.721";"1";;;;;;;;;;;;;;;;;;;;;;;;;;;;;;;;;
"D_TP";"1996";;"Windows 7";"Rachel's Experiment (D.T.)";"1.0";"2";"1";"1";"2";"1";"1";"2014-10-13 14:34:25.640";"2014-10-13 14:47:39.257";"1";"1";"0";"123";"122";"module.training_block3.exec-9605.GoNoGo3";;;;;;;;;;;;;;;;;;;;;;;;;;;;;;;;;;;;;;;;;;;;;;;"1261";"2014-10-13 14:41:01.527";"ST_correctStop";"25";"1";"FINISHED";"NONE";"success";"0";"1";"2014-10-13 14:41:00.263";"3";;;;;;;;;;;;;;;;;;;;;;;;;;;;;;;;;
"D_TP";"1996";;"Windows 7";"Rachel's Experiment (D.T.)";"1.0";"2";"1";"1";"2";"1";"1";"2014-10-13 14:34:25.640";"2014-10-13 14:47:39.257";"1";"1";"0";"124";"123";"module.training_block4.exec-2160.GoNoGo4";;;;;;;;;;;;;;;;;;;;;;;;;;;;;;;;;;;;;;;;;;;;;;;;;;;;;;;;;;;"1261";"2014-10-13 14:41:12.555";"ST_correctStop";"3";"0";"FINISHED";"NONE";"success";"0";"1";"2014-10-13 14:41:11.292";"1";;;;;;;;;;;;;;;;;;;;;
"D_TP";"1996";;"Windows 7";"Rachel's Experiment (D.T.)";"1.0";"2";"1";"1";"2";"1";"1";"2014-10-13 14:34:25.640";"2014-10-13 14:47:39.257";"1";"1";"0";"125";"124";"module.training_block4.exec-2160.GoNoGo4";;;;;;;;;;;;;;;;;;;;;;;;;;;;;;;;;;;;;;;;;;;;;;;;;;;;;;;;;;;"1261";"2014-10-13 14:41:15.098";"ST_correctStop";"4";"0";"FINISHED";"NONE";"success";"0";"1";"2014-10-13 14:41:13.834";"1";;;;;;;;;;;;;;;;;;;;;
"D_TP";"1996";;"Windows 7";"Rachel's Experiment (D.T.)";"1.0";"2";"1";"1";"2";"1";"1";"2014-10-13 14:34:25.640";"2014-10-13 14:47:39.257";"1";"1";"0";"126";"125";"module.training_block4.exec-2160.GoNoGo4";;;;;;;;;;;;;;;;;;;;;;;;;;;;;;;;;;;;;;;;;;;;;;;;;;;;;;;;;;;"1261";"2014-10-13 14:41:17.641";"NST_correctLoc";"17";"0";"FINISHED";"LEFT";"success";"595";"0";"2014-10-13 14:41:16.377";"2";;;;;;;;;;;;;;;;;;;;;
"D_TP";"1996";;"Windows 7";"Rachel's Experiment (D.T.)";"1.0";"2";"1";"1";"2";"1";"1";"2014-10-13 14:34:25.640";"2014-10-13 14:47:39.257";"1";"1";"0";"127";"126";"module.training_block4.exec-2160.GoNoGo4";;;;;;;;;;;;;;;;;;;;;;;;;;;;;;;;;;;;;;;;;;;;;;;;;;;;;;;;;;;"1261";"2014-10-13 14:41:20.183";"NST_correctLoc";"27";"0";"FINISHED";"LEFT";"success";"820";"0";"2014-10-13 14:41:18.920";"3";;;;;;;;;;;;;;;;;;;;;
"D_TP";"1996";;"Windows 7";"Rachel's Experiment (D.T.)";"1.0";"2";"1";"1";"2";"1";"1";"2014-10-13 14:34:25.640";"2014-10-13 14:47:39.257";"1";"1";"0";"128";"127";"module.training_block4.exec-2160.GoNoGo4";;;;;;;;;;;;;;;;;;;;;;;;;;;;;;;;;;;;;;;;;;;;;;;;;;;;;;;;;;;"1261";"2014-10-13 14:41:22.726";"ST_correctStop";"6";"0";"FINISHED";"NONE";"success";"0";"1";"2014-10-13 14:41:21.462";"1";;;;;;;;;;;;;;;;;;;;;
"D_TP";"1996";;"Windows 7";"Rachel's Experiment (D.T.)";"1.0";"2";"1";"1";"2";"1";"1";"2014-10-13 14:34:25.640";"2014-10-13 14:47:39.257";"1";"1";"0";"129";"128";"module.training_block4.exec-2160.GoNoGo4";;;;;;;;;;;;;;;;;;;;;;;;;;;;;;;;;;;;;;;;;;;;;;;;;;;;;;;;;;;"1261";"2014-10-13 14:41:25.269";"NST_correctLoc";"16";"0";"FINISHED";"LEFT";"success";"695";"0";"2014-10-13 14:41:24.005";"2";;;;;;;;;;;;;;;;;;;;;
"D_TP";"1996";;"Windows 7";"Rachel's Experiment (D.T.)";"1.0";"2";"1";"1";"2";"1";"1";"2014-10-13 14:34:25.640";"2014-10-13 14:47:39.257";"1";"1";"0";"130";"129";"module.training_block4.exec-2160.GoNoGo4";;;;;;;;;;;;;;;;;;;;;;;;;;;;;;;;;;;;;;;;;;;;;;;;;;;;;;;;;;;"1262";"2014-10-13 14:41:27.811";"ST_correctStop";"22";"0";"FINISHED";"NONE";"success";"0";"1";"2014-10-13 14:41:26.548";"3";;;;;;;;;;;;;;;;;;;;;
"D_TP";"1996";;"Windows 7";"Rachel's Experiment (D.T.)";"1.0";"2";"1";"1";"2";"1";"1";"2014-10-13 14:34:25.640";"2014-10-13 14:47:39.257";"1";"1";"0";"131";"130";"module.training_block4.exec-2160.GoNoGo4";;;;;;;;;;;;;;;;;;;;;;;;;;;;;;;;;;;;;;;;;;;;;;;;;;;;;;;;;;;"1261";"2014-10-13 14:41:30.354";"ST_correctStop";"24";"0";"FINISHED";"NONE";"success";"0";"1";"2014-10-13 14:41:29.090";"3";;;;;;;;;;;;;;;;;;;;;
"D_TP";"1996";;"Windows 7";"Rachel's Experiment (D.T.)";"1.0";"2";"1";"1";"2";"1";"1";"2014-10-13 14:34:25.640";"2014-10-13 14:47:39.257";"1";"1";"0";"132";"131";"module.training_block4.exec-2160.GoNoGo4";;;;;;;;;;;;;;;;;;;;;;;;;;;;;;;;;;;;;;;;;;;;;;;;;;;;;;;;;;;"1261";"2014-10-13 14:41:32.897";"NST_correctLoc";"12";"0";"FINISHED";"LEFT";"success";"602";"0";"2014-10-13 14:41:31.633";"2";;;;;;;;;;;;;;;;;;;;;
"D_TP";"1996";;"Windows 7";"Rachel's Experiment (D.T.)";"1.0";"2";"1";"1";"2";"1";"1";"2014-10-13 14:34:25.640";"2014-10-13 14:47:39.257";"1";"1";"0";"133";"132";"module.training_block4.exec-2160.GoNoGo4";;;;;;;;;;;;;;;;;;;;;;;;;;;;;;;;;;;;;;;;;;;;;;;;;;;;;;;;;;;"1261";"2014-10-13 14:41:35.439";"ST_correctStop";"5";"1";"FINISHED";"NONE";"success";"0";"1";"2014-10-13 14:41:34.176";"1";;;;;;;;;;;;;;;;;;;;;
"D_TP";"1996";;"Windows 7";"Rachel's Experiment (D.T.)";"1.0";"2";"1";"1";"2";"1";"1";"2014-10-13 14:34:25.640";"2014-10-13 14:47:39.257";"1";"1";"0";"134";"133";"module.training_block4.exec-2160.GoNoGo4";;;;;;;;;;;;;;;;;;;;;;;;;;;;;;;;;;;;;;;;;;;;;;;;;;;;;;;;;;;"1261";"2014-10-13 14:41:37.982";"NST_correctLoc";"35";"1";"FINISHED";"RIGHT";"success";"709";"0";"2014-10-13 14:41:36.718";"3";;;;;;;;;;;;;;;;;;;;;
"D_TP";"1996";;"Windows 7";"Rachel's Experiment (D.T.)";"1.0";"2";"1";"1";"2";"1";"1";"2014-10-13 14:34:25.640";"2014-10-13 14:47:39.257";"1";"1";"0";"135";"134";"module.training_block4.exec-2160.GoNoGo4";;;;;;;;;;;;;;;;;;;;;;;;;;;;;;;;;;;;;;;;;;;;;;;;;;;;;;;;;;;"1261";"2014-10-13 14:41:40.525";"NST_correctLoc";"13";"1";"FINISHED";"RIGHT";"success";"614";"0";"2014-10-13 14:41:39.261";"2";;;;;;;;;;;;;;;;;;;;;
"D_TP";"1996";;"Windows 7";"Rachel's Experiment (D.T.)";"1.0";"2";"1";"1";"2";"1";"1";"2014-10-13 14:34:25.640";"2014-10-13 14:47:39.257";"1";"1";"0";"136";"135";"module.training_block4.exec-2160.GoNoGo4";;;;;;;;;;;;;;;;;;;;;;;;;;;;;;;;;;;;;;;;;;;;;;;;;;;;;;;;;;;"1261";"2014-10-13 14:41:43.067";"ST_correctStop";"0";"0";"FINISHED";"NONE";"success";"0";"1";"2014-10-13 14:41:41.804";"1";;;;;;;;;;;;;;;;;;;;;
"D_TP";"1996";;"Windows 7";"Rachel's Experiment (D.T.)";"1.0";"2";"1";"1";"2";"1";"1";"2014-10-13 14:34:25.640";"2014-10-13 14:47:39.257";"1";"1";"0";"137";"136";"module.training_block4.exec-2160.GoNoGo4";;;;;;;;;;;;;;;;;;;;;;;;;;;;;;;;;;;;;;;;;;;;;;;;;;;;;;;;;;;"1261";"2014-10-13 14:41:45.610";"ST_correctStop";"25";"0";"FINISHED";"NONE";"success";"0";"1";"2014-10-13 14:41:44.346";"3";;;;;;;;;;;;;;;;;;;;;
"D_TP";"1996";;"Windows 7";"Rachel's Experiment (D.T.)";"1.0";"2";"1";"1";"2";"1";"1";"2014-10-13 14:34:25.640";"2014-10-13 14:47:39.257";"1";"1";"0";"138";"137";"module.training_block4.exec-2160.GoNoGo4";;;;;;;;;;;;;;;;;;;;;;;;;;;;;;;;;;;;;;;;;;;;;;;;;;;;;;;;;;;"1261";"2014-10-13 14:41:48.152";"NST_correctLoc";"33";"1";"FINISHED";"RIGHT";"success";"881";"0";"2014-10-13 14:41:46.889";"3";;;;;;;;;;;;;;;;;;;;;
"D_TP";"1996";;"Windows 7";"Rachel's Experiment (D.T.)";"1.0";"2";"1";"1";"2";"1";"1";"2014-10-13 14:34:25.640";"2014-10-13 14:47:39.257";"1";"1";"0";"139";"138";"module.training_block4.exec-2160.GoNoGo4";;;;;;;;;;;;;;;;;;;;;;;;;;;;;;;;;;;;;;;;;;;;;;;;;;;;;;;;;;;"1261";"2014-10-13 14:41:50.695";"NST_correctLoc";"31";"0";"FINISHED";"LEFT";"success";"642";"0";"2014-10-13 14:41:49.432";"3";;;;;;;;;;;;;;;;;;;;;
"D_TP";"1996";;"Windows 7";"Rachel's Experiment (D.T.)";"1.0";"2";"1";"1";"2";"1";"1";"2014-10-13 14:34:25.640";"2014-10-13 14:47:39.257";"1";"1";"0";"140";"139";"module.training_block4.exec-2160.GoNoGo4";;;;;;;;;;;;;;;;;;;;;;;;;;;;;;;;;;;;;;;;;;;;;;;;;;;;;;;;;;;"1261";"2014-10-13 14:41:53.238";"NST_correctLoc";"21";"1";"FINISHED";"RIGHT";"success";"732";"0";"2014-10-13 14:41:51.974";"3";;;;;;;;;;;;;;;;;;;;;
"D_TP";"1996";;"Windows 7";"Rachel's Experiment (D.T.)";"1.0";"2";"1";"1";"2";"1";"1";"2014-10-13 14:34:25.640";"2014-10-13 14:47:39.257";"1";"1";"0";"141";"140";"module.training_block4.exec-2160.GoNoGo4";;;;;;;;;;;;;;;;;;;;;;;;;;;;;;;;;;;;;;;;;;;;;;;;;;;;;;;;;;;"1261";"2014-10-13 14:41:55.780";"NST_correctLoc";"28";"0";"FINISHED";"LEFT";"success";"629";"0";"2014-10-13 14:41:54.517";"3";;;;;;;;;;;;;;;;;;;;;
"D_TP";"1996";;"Windows 7";"Rachel's Experiment (D.T.)";"1.0";"2";"1";"1";"2";"1";"1";"2014-10-13 14:34:25.640";"2014-10-13 14:47:39.257";"1";"1";"0";"142";"141";"module.training_block4.exec-2160.GoNoGo4";;;;;;;;;;;;;;;;;;;;;;;;;;;;;;;;;;;;;;;;;;;;;;;;;;;;;;;;;;;"1261";"2014-10-13 14:41:58.323";"NST_correctLoc";"11";"0";"FINISHED";"LEFT";"success";"574";"0";"2014-10-13 14:41:57.060";"2";;;;;;;;;;;;;;;;;;;;;
"D_TP";"1996";;"Windows 7";"Rachel's Experiment (D.T.)";"1.0";"2";"1";"1";"2";"1";"1";"2014-10-13 14:34:25.640";"2014-10-13 14:47:39.257";"1";"1";"0";"143";"142";"module.training_block4.exec-2160.GoNoGo4";;;;;;;;;;;;;;;;;;;;;;;;;;;;;;;;;;;;;;;;;;;;;;;;;;;;;;;;;;;"1261";"2014-10-13 14:42:00.866";"NST_correctLoc";"14";"1";"FINISHED";"RIGHT";"success";"663";"0";"2014-10-13 14:41:59.602";"2";;;;;;;;;;;;;;;;;;;;;
"D_TP";"1996";;"Windows 7";"Rachel's Experiment (D.T.)";"1.0";"2";"1";"1";"2";"1";"1";"2014-10-13 14:34:25.640";"2014-10-13 14:47:39.257";"1";"1";"0";"144";"143";"module.training_block4.exec-2160.GoNoGo4";;;;;;;;;;;;;;;;;;;;;;;;;;;;;;;;;;;;;;;;;;;;;;;;;;;;;;;;;;;"1261";"2014-10-13 14:42:03.408";"ST_correctStop";"32";"1";"FINISHED";"NONE";"success";"0";"1";"2014-10-13 14:42:02.145";"3";;;;;;;;;;;;;;;;;;;;;
"D_TP";"1996";;"Windows 7";"Rachel's Experiment (D.T.)";"1.0";"2";"1";"1";"2";"1";"1";"2014-10-13 14:34:25.640";"2014-10-13 14:47:39.257";"1";"1";"0";"145";"144";"module.training_block4.exec-2160.GoNoGo4";;;;;;;;;;;;;;;;;;;;;;;;;;;;;;;;;;;;;;;;;;;;;;;;;;;;;;;;;;;"1261";"2014-10-13 14:42:05.951";"ST_correctStop";"30";"1";"FINISHED";"NONE";"success";"0";"1";"2014-10-13 14:42:04.688";"3";;;;;;;;;;;;;;;;;;;;;
"D_TP";"1996";;"Windows 7";"Rachel's Experiment (D.T.)";"1.0";"2";"1";"1";"2";"1";"1";"2014-10-13 14:34:25.640";"2014-10-13 14:47:39.257";"1";"1";"0";"146";"145";"module.training_block4.exec-2160.GoNoGo4";;;;;;;;;;;;;;;;;;;;;;;;;;;;;;;;;;;;;;;;;;;;;;;;;;;;;;;;;;;"1261";"2014-10-13 14:42:08.494";"NST_correctLoc";"9";"1";"FINISHED";"RIGHT";"success";"595";"0";"2014-10-13 14:42:07.230";"2";;;;;;;;;;;;;;;;;;;;;
"D_TP";"1996";;"Windows 7";"Rachel's Experiment (D.T.)";"1.0";"2";"1";"1";"2";"1";"1";"2014-10-13 14:34:25.640";"2014-10-13 14:47:39.257";"1";"1";"0";"147";"146";"module.training_block4.exec-2160.GoNoGo4";;;;;;;;;;;;;;;;;;;;;;;;;;;;;;;;;;;;;;;;;;;;;;;;;;;;;;;;;;;"1261";"2014-10-13 14:42:11.036";"NST_correctLoc";"19";"0";"FINISHED";"LEFT";"success";"972";"0";"2014-10-13 14:42:09.773";"3";;;;;;;;;;;;;;;;;;;;;
"D_TP";"1996";;"Windows 7";"Rachel's Experiment (D.T.)";"1.0";"2";"1";"1";"2";"1";"1";"2014-10-13 14:34:25.640";"2014-10-13 14:47:39.257";"1";"1";"0";"148";"147";"module.training_block4.exec-2160.GoNoGo4";;;;;;;;;;;;;;;;;;;;;;;;;;;;;;;;;;;;;;;;;;;;;;;;;;;;;;;;;;;"1261";"2014-10-13 14:42:13.579";"ST_correctStop";"2";"0";"FINISHED";"NONE";"success";"0";"1";"2014-10-13 14:42:12.315";"1";;;;;;;;;;;;;;;;;;;;;
"D_TP";"1996";;"Windows 7";"Rachel's Experiment (D.T.)";"1.0";"2";"1";"1";"2";"1";"1";"2014-10-13 14:34:25.640";"2014-10-13 14:47:39.257";"1";"1";"0";"149";"148";"module.training_block4.exec-2160.GoNoGo4";;;;;;;;;;;;;;;;;;;;;;;;;;;;;;;;;;;;;;;;;;;;;;;;;;;;;;;;;;;"1261";"2014-10-13 14:42:16.122";"ST_correctStop";"7";"1";"FINISHED";"NONE";"success";"0";"1";"2014-10-13 14:42:14.858";"1";;;;;;;;;;;;;;;;;;;;;
"D_TP";"1996";;"Windows 7";"Rachel's Experiment (D.T.)";"1.0";"2";"1";"1";"2";"1";"1";"2014-10-13 14:34:25.640";"2014-10-13 14:47:39.257";"1";"1";"0";"150";"149";"module.training_block4.exec-2160.GoNoGo4";;;;;;;;;;;;;;;;;;;;;;;;;;;;;;;;;;;;;;;;;;;;;;;;;;;;;;;;;;;"1261";"2014-10-13 14:42:18.664";"ST_correctStop";"1";"0";"FINISHED";"NONE";"success";"0";"1";"2014-10-13 14:42:17.401";"1";;;;;;;;;;;;;;;;;;;;;
"D_TP";"1996";;"Windows 7";"Rachel's Experiment (D.T.)";"1.0";"2";"1";"1";"2";"1";"1";"2014-10-13 14:34:25.640";"2014-10-13 14:47:39.257";"1";"1";"0";"151";"150";"module.training_block4.exec-2160.GoNoGo4";;;;;;;;;;;;;;;;;;;;;;;;;;;;;;;;;;;;;;;;;;;;;;;;;;;;;;;;;;;"1261";"2014-10-13 14:42:21.207";"NST_correctLoc";"15";"0";"FINISHED";"LEFT";"success";"1160";"0";"2014-10-13 14:42:19.943";"2";;;;;;;;;;;;;;;;;;;;;
"D_TP";"1996";;"Windows 7";"Rachel's Experiment (D.T.)";"1.0";"2";"1";"1";"2";"1";"1";"2014-10-13 14:34:25.640";"2014-10-13 14:47:39.257";"1";"1";"0";"152";"151";"module.training_block4.exec-2160.GoNoGo4";;;;;;;;;;;;;;;;;;;;;;;;;;;;;;;;;;;;;;;;;;;;;;;;;;;;;;;;;;;"1261";"2014-10-13 14:42:23.750";"NST_correctLoc";"34";"1";"FINISHED";"RIGHT";"success";"858";"0";"2014-10-13 14:42:22.486";"3";;;;;;;;;;;;;;;;;;;;;
"D_TP";"1996";;"Windows 7";"Rachel's Experiment (D.T.)";"1.0";"2";"1";"1";"2";"1";"1";"2014-10-13 14:34:25.640";"2014-10-13 14:47:39.257";"1";"1";"0";"153";"152";"module.training_block4.exec-2160.GoNoGo4";;;;;;;;;;;;;;;;;;;;;;;;;;;;;;;;;;;;;;;;;;;;;;;;;;;;;;;;;;;"1261";"2014-10-13 14:42:26.277";"NST_correctLoc";"10";"1";"FINISHED";"RIGHT";"success";"707";"0";"2014-10-13 14:42:25.013";"2";;;;;;;;;;;;;;;;;;;;;
"D_TP";"1996";;"Windows 7";"Rachel's Experiment (D.T.)";"1.0";"2";"1";"1";"2";"1";"1";"2014-10-13 14:34:25.640";"2014-10-13 14:47:39.257";"1";"1";"0";"154";"153";"module.training_block4.exec-2160.GoNoGo4";;;;;;;;;;;;;;;;;;;;;;;;;;;;;;;;;;;;;;;;;;;;;;;;;;;;;;;;;;;"1261";"2014-10-13 14:42:28.804";"ST_correctStop";"23";"0";"FINISHED";"NONE";"success";"0";"1";"2014-10-13 14:42:27.540";"3";;;;;;;;;;;;;;;;;;;;;
"D_TP";"1996";;"Windows 7";"Rachel's Experiment (D.T.)";"1.0";"2";"1";"1";"2";"1";"1";"2014-10-13 14:34:25.640";"2014-10-13 14:47:39.257";"1";"1";"0";"155";"154";"module.training_block4.exec-2160.GoNoGo4";;;;;;;;;;;;;;;;;;;;;;;;;;;;;;;;;;;;;;;;;;;;;;;;;;;;;;;;;;;"1261";"2014-10-13 14:42:31.346";"NST_correctLoc";"29";"1";"FINISHED";"RIGHT";"success";"692";"0";"2014-10-13 14:42:30.083";"3";;;;;;;;;;;;;;;;;;;;;
"D_TP";"1996";;"Windows 7";"Rachel's Experiment (D.T.)";"1.0";"2";"1";"1";"2";"1";"1";"2014-10-13 14:34:25.640";"2014-10-13 14:47:39.257";"1";"1";"0";"156";"155";"module.training_block4.exec-2160.GoNoGo4";;;;;;;;;;;;;;;;;;;;;;;;;;;;;;;;;;;;;;;;;;;;;;;;;;;;;;;;;;;"1261";"2014-10-13 14:42:33.889";"ST_correctStop";"26";"1";"FINISHED";"NONE";"success";"0";"1";"2014-10-13 14:42:32.626";"3";;;;;;;;;;;;;;;;;;;;;
"D_TP";"1996";;"Windows 7";"Rachel's Experiment (D.T.)";"1.0";"2";"1";"1";"2";"1";"1";"2014-10-13 14:34:25.640";"2014-10-13 14:47:39.257";"1";"1";"0";"157";"156";"module.training_block4.exec-2160.GoNoGo4";;;;;;;;;;;;;;;;;;;;;;;;;;;;;;;;;;;;;;;;;;;;;;;;;;;;;;;;;;;"1261";"2014-10-13 14:42:36.432";"ST_correctStop";"20";"0";"FINISHED";"NONE";"success";"0";"1";"2014-10-13 14:42:35.168";"3";;;;;;;;;;;;;;;;;;;;;
"D_TP";"1996";;"Windows 7";"Rachel's Experiment (D.T.)";"1.0";"2";"1";"1";"2";"1";"1";"2014-10-13 14:34:25.640";"2014-10-13 14:47:39.257";"1";"1";"0";"158";"157";"module.training_block4.exec-2160.GoNoGo4";;;;;;;;;;;;;;;;;;;;;;;;;;;;;;;;;;;;;;;;;;;;;;;;;;;;;;;;;;;"1261";"2014-10-13 14:42:38.974";"ST_correctStop";"18";"0";"FINISHED";"NONE";"success";"0";"1";"2014-10-13 14:42:37.711";"3";;;;;;;;;;;;;;;;;;;;;
"D_TP";"1996";;"Windows 7";"Rachel's Experiment (D.T.)";"1.0";"2";"1";"1";"2";"1";"1";"2014-10-13 14:34:25.640";"2014-10-13 14:47:39.257";"1";"1";"0";"159";"158";"module.training_block4.exec-2160.GoNoGo4";;;;;;;;;;;;;;;;;;;;;;;;;;;;;;;;;;;;;;;;;;;;;;;;;;;;;;;;;;;"1261";"2014-10-13 14:42:41.501";"ST_correctStop";"8";"1";"FINISHED";"NONE";"success";"0";"1";"2014-10-13 14:42:40.238";"1";;;;;;;;;;;;;;;;;;;;;
"D_TP";"1996";;"Windows 7";"Rachel's Experiment (D.T.)";"1.0";"2";"1";"1";"2";"1";"1";"2014-10-13 14:34:25.640";"2014-10-13 14:47:39.257";"1";"1";"0";"160";"159";"module.devaluation_practice.exec-6908.devalPractice";;;;;;;;;;;;"10863";"2014-10-13 14:43:27.597";"0";"6";"5";"4";"4046";"1379";"2386";"2014-10-13 14:43:16.724";;;;;;;;;;;;;;;;;;;;;;;;;;;;;;;;;;;;;;;;;;;;;;;;;;;;;;;;;;;;;;;;;;;;;;
"D_TP";"1996";;"Windows 7";"Rachel's Experiment (D.T.)";"1.0";"2";"1";"1";"2";"1";"1";"2014-10-13 14:34:25.640";"2014-10-13 14:47:39.257";"1";"1";"0";"161";"160";"module.devaluation_practice.exec-6908.devalPractice";;;;;;;;;;;;"10250";"2014-10-13 14:43:37.861";"1";"2";"3";"2";"3929";"1159";"2133";"2014-10-13 14:43:27.612";;;;;;;;;;;;;;;;;;;;;;;;;;;;;;;;;;;;;;;;;;;;;;;;;;;;;;;;;;;;;;;;;;;;;;
"D_TP";"1996";;"Windows 7";"Rachel's Experiment (D.T.)";"1.0";"2";"1";"1";"2";"1";"1";"2014-10-13 14:34:25.640";"2014-10-13 14:47:39.257";"1";"1";"0";"162";"161";"module.devaluation_practice.exec-6908.devalPractice";;;;;;;;;;;;"9315";"2014-10-13 14:43:47.189";"2";"5";"4";"7";"2001";"2508";"1787";"2014-10-13 14:43:37.877";;;;;;;;;;;;;;;;;;;;;;;;;;;;;;;;;;;;;;;;;;;;;;;;;;;;;;;;;;;;;;;;;;;;;;
"D_TP";"1996";;"Windows 7";"Rachel's Experiment (D.T.)";"1.0";"2";"1";"1";"2";"1";"1";"2014-10-13 14:34:25.640";"2014-10-13 14:47:39.257";"1";"1";"0";"163";"162";"module.devaluation_practice.exec-6908.devalPractice";;;;;;;;;;;;"8498";"2014-10-13 14:43:55.722";"3";"2";"1";"3";"2520";"1715";"1232";"2014-10-13 14:43:47.220";;;;;;;;;;;;;;;;;;;;;;;;;;;;;;;;;;;;;;;;;;;;;;;;;;;;;;;;;;;;;;;;;;;;;;
"D_TP";"1996";;"Windows 7";"Rachel's Experiment (D.T.)";"1.0";"2";"1";"1";"2";"1";"1";"2014-10-13 14:34:25.640";"2014-10-13 14:47:39.257";"1";"1";"0";"164";"163";"module.devaluation_block1.exec-8235.deval1";"9072";"2014-10-13 14:44:08.622";"14";"7";"1";"3";"1444";"2709";"1863";"2014-10-13 14:43:59.544";"2";;;;;;;;;;;;;;;;;;;;;;;;;;;;;;;;;;;;;;;;;;;;;;;;;;;;;;;;;;;;;;;;;;;;;;;;;;;;;;;;
"D_TP";"1996";;"Windows 7";"Rachel's Experiment (D.T.)";"1.0";"2";"1";"1";"2";"1";"1";"2014-10-13 14:34:25.640";"2014-10-13 14:47:39.257";"1";"1";"0";"165";"164";"module.devaluation_block1.exec-8235.deval1";"10570";"2014-10-13 14:44:19.214";"0";"4";"6";"7";"3165";"1998";"2372";"2014-10-13 14:44:08.638";"1";;;;;;;;;;;;;;;;;;;;;;;;;;;;;;;;;;;;;;;;;;;;;;;;;;;;;;;;;;;;;;;;;;;;;;;;;;;;;;;;
"D_TP";"1996";;"Windows 7";"Rachel's Experiment (D.T.)";"1.0";"2";"1";"1";"2";"1";"1";"2014-10-13 14:34:25.640";"2014-10-13 14:47:39.257";"1";"1";"0";"166";"165";"module.devaluation_block1.exec-8235.deval1";"8083";"2014-10-13 14:44:27.310";"25";"7";"3";"5";"1637";"1818";"1596";"2014-10-13 14:44:19.230";"3";;;;;;;;;;;;;;;;;;;;;;;;;;;;;;;;;;;;;;;;;;;;;;;;;;;;;;;;;;;;;;;;;;;;;;;;;;;;;;;;
"D_TP";"1996";;"Windows 7";"Rachel's Experiment (D.T.)";"1.0";"2";"1";"1";"2";"1";"1";"2014-10-13 14:34:25.640";"2014-10-13 14:47:39.257";"1";"1";"0";"167";"166";"module.devaluation_block1.exec-8235.deval1";"9362";"2014-10-13 14:44:36.701";"13";"8";"2";"4";"2485";"2029";"1810";"2014-10-13 14:44:27.341";"2";;;;;;;;;;;;;;;;;;;;;;;;;;;;;;;;;;;;;;;;;;;;;;;;;;;;;;;;;;;;;;;;;;;;;;;;;;;;;;;;
"D_TP";"1996";;"Windows 7";"Rachel's Experiment (D.T.)";"1.0";"2";"1";"1";"2";"1";"1";"2014-10-13 14:34:25.640";"2014-10-13 14:47:39.257";"1";"1";"0";"168";"167";"module.devaluation_block1.exec-8235.deval1";"8536";"2014-10-13 14:44:45.249";"2";"7";"2";"5";"1557";"2102";"1850";"2014-10-13 14:44:36.716";"1";;;;;;;;;;;;;;;;;;;;;;;;;;;;;;;;;;;;;;;;;;;;;;;;;;;;;;;;;;;;;;;;;;;;;;;;;;;;;;;;
"D_TP";"1996";;"Windows 7";"Rachel's Experiment (D.T.)";"1.0";"2";"1";"1";"2";"1";"1";"2014-10-13 14:34:25.640";"2014-10-13 14:47:39.257";"1";"1";"0";"169";"168";"module.devaluation_block1.exec-8235.deval1";"8874";"2014-10-13 14:44:54.156";"21";"1";"1";"1";"2424";"1873";"1548";"2014-10-13 14:44:45.280";"3";;;;;;;;;;;;;;;;;;;;;;;;;;;;;;;;;;;;;;;;;;;;;;;;;;;;;;;;;;;;;;;;;;;;;;;;;;;;;;;;
"D_TP";"1996";;"Windows 7";"Rachel's Experiment (D.T.)";"1.0";"2";"1";"1";"2";"1";"1";"2014-10-13 14:34:25.640";"2014-10-13 14:47:39.257";"1";"1";"0";"170";"169";"module.devaluation_block1.exec-8235.deval1";"7331";"2014-10-13 14:45:01.503";"15";"1";"1";"1";"1540";"1393";"1377";"2014-10-13 14:44:54.172";"2";;;;;;;;;;;;;;;;;;;;;;;;;;;;;;;;;;;;;;;;;;;;;;;;;;;;;;;;;;;;;;;;;;;;;;;;;;;;;;;;
"D_TP";"1996";;"Windows 7";"Rachel's Experiment (D.T.)";"1.0";"2";"1";"1";"2";"1";"1";"2014-10-13 14:34:25.640";"2014-10-13 14:47:39.257";"1";"1";"0";"171";"170";"module.devaluation_block1.exec-8235.deval1";"10290";"2014-10-13 14:45:11.814";"22";"7";"6";"7";"1825";"2657";"2781";"2014-10-13 14:45:01.519";"3";;;;;;;;;;;;;;;;;;;;;;;;;;;;;;;;;;;;;;;;;;;;;;;;;;;;;;;;;;;;;;;;;;;;;;;;;;;;;;;;
"D_TP";"1996";;"Windows 7";"Rachel's Experiment (D.T.)";"1.0";"2";"1";"1";"2";"1";"1";"2014-10-13 14:34:25.640";"2014-10-13 14:47:39.257";"1";"1";"0";"172";"171";"module.devaluation_block1.exec-8235.deval1";"7235";"2014-10-13 14:45:19.068";"7";"4";"2";"4";"2209";"1224";"783";"2014-10-13 14:45:11.830";"1";;;;;;;;;;;;;;;;;;;;;;;;;;;;;;;;;;;;;;;;;;;;;;;;;;;;;;;;;;;;;;;;;;;;;;;;;;;;;;;;
"D_TP";"1996";;"Windows 7";"Rachel's Experiment (D.T.)";"1.0";"2";"1";"1";"2";"1";"1";"2014-10-13 14:34:25.640";"2014-10-13 14:47:39.257";"1";"1";"0";"173";"172";"module.devaluation_block1.exec-8235.deval1";"10139";"2014-10-13 14:45:29.223";"3";"8";"7";"8";"2987";"1837";"2293";"2014-10-13 14:45:19.084";"1";;;;;;;;;;;;;;;;;;;;;;;;;;;;;;;;;;;;;;;;;;;;;;;;;;;;;;;;;;;;;;;;;;;;;;;;;;;;;;;;
"D_TP";"1996";;"Windows 7";"Rachel's Experiment (D.T.)";"1.0";"2";"1";"1";"2";"1";"1";"2014-10-13 14:34:25.640";"2014-10-13 14:47:39.257";"1";"1";"0";"174";"173";"module.devaluation_block1.exec-8235.deval1";"8321";"2014-10-13 14:45:37.568";"9";"4";"1";"4";"3128";"1398";"765";"2014-10-13 14:45:29.254";"2";;;;;;;;;;;;;;;;;;;;;;;;;;;;;;;;;;;;;;;;;;;;;;;;;;;;;;;;;;;;;;;;;;;;;;;;;;;;;;;;
"D_TP";"1996";;"Windows 7";"Rachel's Experiment (D.T.)";"1.0";"2";"1";"1";"2";"1";"1";"2014-10-13 14:34:25.640";"2014-10-13 14:47:39.257";"1";"1";"0";"175";"174";"module.devaluation_block1.exec-8235.deval1";"6779";"2014-10-13 14:45:44.370";"12";"7";"7";"7";"1446";"1427";"872";"2014-10-13 14:45:37.600";"2";;;;;;;;;;;;;;;;;;;;;;;;;;;;;;;;;;;;;;;;;;;;;;;;;;;;;;;;;;;;;;;;;;;;;;;;;;;;;;;;
"D_TP";"1996";;"Windows 7";"Rachel's Experiment (D.T.)";"1.0";"2";"1";"1";"2";"1";"1";"2014-10-13 14:34:25.640";"2014-10-13 14:47:39.257";"1";"1";"0";"176";"175";"module.devaluation_block1.exec-8235.deval1";"6971";"2014-10-13 14:45:51.358";"6";"2";"2";"2";"1516";"1119";"1320";"2014-10-13 14:45:44.385";"1";;;;;;;;;;;;;;;;;;;;;;;;;;;;;;;;;;;;;;;;;;;;;;;;;;;;;;;;;;;;;;;;;;;;;;;;;;;;;;;;
"D_TP";"1996";;"Windows 7";"Rachel's Experiment (D.T.)";"1.0";"2";"1";"1";"2";"1";"1";"2014-10-13 14:34:25.640";"2014-10-13 14:47:39.257";"1";"1";"0";"177";"176";"module.devaluation_block1.exec-8235.deval1";"7882";"2014-10-13 14:45:59.267";"26";"8";"7";"8";"1455";"2237";"1162";"2014-10-13 14:45:51.389";"3";;;;;;;;;;;;;;;;;;;;;;;;;;;;;;;;;;;;;;;;;;;;;;;;;;;;;;;;;;;;;;;;;;;;;;;;;;;;;;;;
"D_TP";"1996";;"Windows 7";"Rachel's Experiment (D.T.)";"1.0";"2";"1";"1";"2";"1";"1";"2014-10-13 14:34:25.640";"2014-10-13 14:47:39.257";"1";"1";"0";"178";"177";"module.devaluation_block1.exec-8235.deval1";"7275";"2014-10-13 14:46:06.567";"1";"5";"3";"7";"394";"1982";"1873";"2014-10-13 14:45:59.282";"1";;;;;;;;;;;;;;;;;;;;;;;;;;;;;;;;;;;;;;;;;;;;;;;;;;;;;;;;;;;;;;;;;;;;;;;;;;;;;;;;
"D_TP";"1996";;"Windows 7";"Rachel's Experiment (D.T.)";"1.0";"2";"1";"1";"2";"1";"1";"2014-10-13 14:34:25.640";"2014-10-13 14:47:39.257";"1";"1";"0";"179";"178";"module.devaluation_block1.exec-8235.deval1";"7834";"2014-10-13 14:46:14.414";"19";"7";"2";"6";"1517";"1648";"1649";"2014-10-13 14:46:06.583";"3";;;;;;;;;;;;;;;;;;;;;;;;;;;;;;;;;;;;;;;;;;;;;;;;;;;;;;;;;;;;;;;;;;;;;;;;;;;;;;;;
"D_TP";"1996";;"Windows 7";"Rachel's Experiment (D.T.)";"1.0";"2";"1";"1";"2";"1";"1";"2014-10-13 14:34:25.640";"2014-10-13 14:47:39.257";"1";"1";"0";"180";"179";"module.devaluation_block1.exec-8235.deval1";"7611";"2014-10-13 14:46:22.057";"16";"1";"1";"1";"1734";"1277";"1568";"2014-10-13 14:46:14.445";"2";;;;;;;;;;;;;;;;;;;;;;;;;;;;;;;;;;;;;;;;;;;;;;;;;;;;;;;;;;;;;;;;;;;;;;;;;;;;;;;;
"D_TP";"1996";;"Windows 7";"Rachel's Experiment (D.T.)";"1.0";"2";"1";"1";"2";"1";"1";"2014-10-13 14:34:25.640";"2014-10-13 14:47:39.257";"1";"1";"0";"181";"180";"module.devaluation_block1.exec-8235.deval1";"7330";"2014-10-13 14:46:29.404";"17";"2";"1";"1";"1154";"1391";"1749";"2014-10-13 14:46:22.073";"2";;;;;;;;;;;;;;;;;;;;;;;;;;;;;;;;;;;;;;;;;;;;;;;;;;;;;;;;;;;;;;;;;;;;;;;;;;;;;;;;
"D_TP";"1996";;"Windows 7";"Rachel's Experiment (D.T.)";"1.0";"2";"1";"1";"2";"1";"1";"2014-10-13 14:34:25.640";"2014-10-13 14:47:39.257";"1";"1";"0";"182";"181";"module.devaluation_block1.exec-8235.deval1";"6947";"2014-10-13 14:46:36.377";"18";"6";"2";"6";"798";"1588";"1536";"2014-10-13 14:46:29.420";"3";;;;;;;;;;;;;;;;;;;;;;;;;;;;;;;;;;;;;;;;;;;;;;;;;;;;;;;;;;;;;;;;;;;;;;;;;;;;;;;;
"D_TP";"1996";;"Windows 7";"Rachel's Experiment (D.T.)";"1.0";"2";"1";"1";"2";"1";"1";"2014-10-13 14:34:25.640";"2014-10-13 14:47:39.257";"1";"1";"0";"183";"182";"module.devaluation_block1.exec-8235.deval1";"7706";"2014-10-13 14:46:44.099";"23";"4";"4";"4";"1425";"721";"2530";"2014-10-13 14:46:36.393";"3";;;;;;;;;;;;;;;;;;;;;;;;;;;;;;;;;;;;;;;;;;;;;;;;;;;;;;;;;;;;;;;;;;;;;;;;;;;;;;;;
"D_TP";"1996";;"Windows 7";"Rachel's Experiment (D.T.)";"1.0";"2";"1";"1";"2";"1";"1";"2014-10-13 14:34:25.640";"2014-10-13 14:47:39.257";"1";"1";"0";"184";"183";"module.devaluation_block1.exec-8235.deval1";"8835";"2014-10-13 14:46:52.959";"8";"1";"1";"1";"3287";"1106";"1416";"2014-10-13 14:46:44.114";"1";;;;;;;;;;;;;;;;;;;;;;;;;;;;;;;;;;;;;;;;;;;;;;;;;;;;;;;;;;;;;;;;;;;;;;;;;;;;;;;;
"D_TP";"1996";;"Windows 7";"Rachel's Experiment (D.T.)";"1.0";"2";"1";"1";"2";"1";"1";"2014-10-13 14:34:25.640";"2014-10-13 14:47:39.257";"1";"1";"0";"185";"184";"module.devaluation_block1.exec-8235.deval1";"7778";"2014-10-13 14:47:00.758";"11";"7";"1";"4";"1042";"2026";"1666";"2014-10-13 14:46:52.975";"2";;;;;;;;;;;;;;;;;;;;;;;;;;;;;;;;;;;;;;;;;;;;;;;;;;;;;;;;;;;;;;;;;;;;;;;;;;;;;;;;
"D_TP";"1996";;"Windows 7";"Rachel's Experiment (D.T.)";"1.0";"2";"1";"1";"2";"1";"1";"2014-10-13 14:34:25.640";"2014-10-13 14:47:39.257";"1";"1";"0";"186";"185";"module.devaluation_block1.exec-8235.deval1";"6056";"2014-10-13 14:47:06.827";"10";"6";"1";"3";"842";"1320";"861";"2014-10-13 14:47:00.774";"2";;;;;;;;;;;;;;;;;;;;;;;;;;;;;;;;;;;;;;;;;;;;;;;;;;;;;;;;;;;;;;;;;;;;;;;;;;;;;;;;
"D_TP";"1996";;"Windows 7";"Rachel's Experiment (D.T.)";"1.0";"2";"1";"1";"2";"1";"1";"2014-10-13 14:34:25.640";"2014-10-13 14:47:39.257";"1";"1";"0";"187";"186";"module.devaluation_block1.exec-8235.deval1";"6259";"2014-10-13 14:47:13.113";"4";"7";"2";"7";"1390";"1033";"799";"2014-10-13 14:47:06.858";"1";;;;;;;;;;;;;;;;;;;;;;;;;;;;;;;;;;;;;;;;;;;;;;;;;;;;;;;;;;;;;;;;;;;;;;;;;;;;;;;;
"D_TP";"1996";;"Windows 7";"Rachel's Experiment (D.T.)";"1.0";"2";"1";"1";"2";"1";"1";"2014-10-13 14:34:25.640";"2014-10-13 14:47:39.257";"1";"1";"0";"188";"187";"module.devaluation_block1.exec-8235.deval1";"8234";"2014-10-13 14:47:21.365";"20";"7";"2";"4";"1103";"1208";"2912";"2014-10-13 14:47:13.129";"3";;;;;;;;;;;;;;;;;;;;;;;;;;;;;;;;;;;;;;;;;;;;;;;;;;;;;;;;;;;;;;;;;;;;;;;;;;;;;;;;
"D_TP";"1996";;"Windows 7";"Rachel's Experiment (D.T.)";"1.0";"2";"1";"1";"2";"1";"1";"2014-10-13 14:34:25.640";"2014-10-13 14:47:39.257";"1";"1";"0";"189";"188";"module.devaluation_block1.exec-8235.deval1";"8100";"2014-10-13 14:47:29.492";"5";"7";"7";"7";"3330";"685";"1061";"2014-10-13 14:47:21.380";"1";;;;;;;;;;;;;;;;;;;;;;;;;;;;;;;;;;;;;;;;;;;;;;;;;;;;;;;;;;;;;;;;;;;;;;;;;;;;;;;;
"D_TP";"1996";;"Windows 7";"Rachel's Experiment (D.T.)";"1.0";"2";"1";"1";"2";"1";"1";"2014-10-13 14:34:25.640";"2014-10-13 14:47:39.257";"1";"1";"0";"190";"189";"module.devaluation_block1.exec-8235.deval1";"7919";"2014-10-13 14:47:37.432";"24";"9";"3";"8";"1315";"2483";"1098";"2014-10-13 14:47:29.508";"3";;;;;;;;;;;;;;;;;;;;;;;;;;;;;;;;;;;;;;;;;;;;;;;;;;;;;;;;;;;;;;;;;;;;;;;;;;;;;;;;
