"user.name";"user.yearOfBirth";"user.sex";"user.osName";"module.name";"module.version";"module.online.subject.code";"module.online.study.id";"module.online.module.nr";"module.online.group.nr";"session.id";"session.index";"session.startTime";"session.endTime";"session.completed";"session.node-6804.DevalQorder";"session.node-9184.conditionType";"trial.id";"trial.index";"trial.name";"trial.deval1.durationTime";"trial.deval1.endTime";"trial.deval1.icon";"trial.deval1.Resp_Attractive";"trial.deval1.Resp_Eat";"trial.deval1.Resp_Taste";"trial.deval1.RT_Attractive";"trial.deval1.RT_Eat";"trial.deval1.RT_Taste";"trial.deval1.startTime";"trial.deval1.stimulus type";"trial.devalPractice.durationTime";"trial.devalPractice.endTime";"trial.devalPractice.icon";"trial.devalPractice.Resp_Attractive";"trial.devalPractice.Resp_Eat";"trial.devalPractice.Resp_Taste";"trial.devalPractice.RT_Attractive";"trial.devalPractice.RT_Eat";"trial.devalPractice.RT_Taste";"trial.devalPractice.startTime";"trial.devalPractice.stimulus type";"trial.GoNoGo1.durationTime";"trial.GoNoGo1.endTime";"trial.GoNoGo1.Error Type";"trial.GoNoGo1.icon";"trial.GoNoGo1.location";"trial.GoNoGo1.outcome";"trial.GoNoGo1.response";"trial.GoNoGo1.result";"trial.GoNoGo1.RT";"trial.GoNoGo1.signal";"trial.GoNoGo1.startTime";"trial.GoNoGo1.stimulus type";"trial.GoNoGo2.durationTime";"trial.GoNoGo2.endTime";"trial.GoNoGo2.Error Type";"trial.GoNoGo2.icon";"trial.GoNoGo2.location";"trial.GoNoGo2.outcome";"trial.GoNoGo2.response";"trial.GoNoGo2.result";"trial.GoNoGo2.RT";"trial.GoNoGo2.signal";"trial.GoNoGo2.startTime";"trial.GoNoGo2.stimulus type";"trial.GoNoGo3.durationTime";"trial.GoNoGo3.endTime";"trial.GoNoGo3.Error Type";"trial.GoNoGo3.icon";"trial.GoNoGo3.location";"trial.GoNoGo3.outcome";"trial.GoNoGo3.response";"trial.GoNoGo3.result";"trial.GoNoGo3.RT";"trial.GoNoGo3.signal";"trial.GoNoGo3.startTime";"trial.GoNoGo3.stimulus type";"trial.GoNoGo4.durationTime";"trial.GoNoGo4.endTime";"trial.GoNoGo4.Error Type";"trial.GoNoGo4.icon";"trial.GoNoGo4.location";"trial.GoNoGo4.outcome";"trial.GoNoGo4.response";"trial.GoNoGo4.result";"trial.GoNoGo4.RT";"trial.GoNoGo4.signal";"trial.GoNoGo4.startTime";"trial.GoNoGo4.stimulus type";"trial.GoNoGo_Practice.durationTime";"trial.GoNoGo_Practice.endTime";"trial.GoNoGo_Practice.icon";"trial.GoNoGo_Practice.location";"trial.GoNoGo_Practice.outcome";"trial.GoNoGo_Practice.response";"trial.GoNoGo_Practice.result";"trial.GoNoGo_Practice.RT";"trial.GoNoGo_Practice.signal";"trial.GoNoGo_Practice.startTime";"trial.GoNoGo_Practice.stimulus type";"trial.GoNoGo_Tutorial.durationTime";"trial.GoNoGo_Tutorial.endTime";"trial.GoNoGo_Tutorial.icon";"trial.GoNoGo_Tutorial.location";"trial.GoNoGo_Tutorial.outcome";"trial.GoNoGo_Tutorial.response";"trial.GoNoGo_Tutorial.result";"trial.GoNoGo_Tutorial.RT";"trial.GoNoGo_Tutorial.signal";"trial.GoNoGo_Tutorial.startTime"
"Amma12";"1995";;"Windows 7";"Rachel's Experiment (D.T.)";"1.0";"2";"1";"1";"2";"1";"1";"2014-10-07 12:18:42.355";"2014-10-07 12:34:24.199";"1";"1";"1";"1";"0";"module.GoNoGotutorial.exec-7075.GoNoGo_Tutorial";;;;;;;;;;;;;;;;;;;;;;;;;;;;;;;;;;;;;;;;;;;;;;;;;;;;;;;;;;;;;;;;;;;;;;;;;;;;;;;;;;"3987";"2014-10-07 12:20:41.214";"leftResponse";"0";"FINISHED";"LEFT";"success";"1126";"0";"2014-10-07 12:20:37.214"
"Amma12";"1995";;"Windows 7";"Rachel's Experiment (D.T.)";"1.0";"2";"1";"1";"2";"1";"1";"2014-10-07 12:18:42.355";"2014-10-07 12:34:24.199";"1";"1";"1";"2";"1";"module.GoNoGotutorial.exec-7075.GoNoGo_Tutorial";;;;;;;;;;;;;;;;;;;;;;;;;;;;;;;;;;;;;;;;;;;;;;;;;;;;;;;;;;;;;;;;;;;;;;;;;;;;;;;;;;"3995";"2014-10-07 12:20:46.496";"rightResponse";"1";"FINISHED";"RIGHT";"success";"1109";"0";"2014-10-07 12:20:42.496"
"Amma12";"1995";;"Windows 7";"Rachel's Experiment (D.T.)";"1.0";"2";"1";"1";"2";"1";"1";"2014-10-07 12:18:42.355";"2014-10-07 12:34:24.199";"1";"1";"1";"3";"2";"module.GoNoGotutorial.exec-7075.GoNoGo_Tutorial";;;;;;;;;;;;;;;;;;;;;;;;;;;;;;;;;;;;;;;;;;;;;;;;;;;;;;;;;;;;;;;;;;;;;;;;;;;;;;;;;;"3994";"2014-10-07 12:20:51.761";"signalResponse";"0";"FINISHED";"NONE";"success";"0";"1";"2014-10-07 12:20:47.761"
"Amma12";"1995";;"Windows 7";"Rachel's Experiment (D.T.)";"1.0";"2";"1";"1";"2";"1";"1";"2014-10-07 12:18:42.355";"2014-10-07 12:34:24.199";"1";"1";"1";"4";"3";"module.GoNoGopractice.exec-9410.GoNoGo_Practice";;;;;;;;;;;;;;;;;;;;;;;;;;;;;;;;;;;;;;;;;;;;;;;;;;;;;;;;;;;;;;;;;;;;;;;"1947";"2014-10-07 12:20:59.464";"18";"0";"FINISHED";"LEFT";"success";"356";"0";"2014-10-07 12:20:57.511";"3";;;;;;;;;;
"Amma12";"1995";;"Windows 7";"Rachel's Experiment (D.T.)";"1.0";"2";"1";"1";"2";"1";"1";"2014-10-07 12:18:42.355";"2014-10-07 12:34:24.199";"1";"1";"1";"5";"4";"module.GoNoGopractice.exec-9410.GoNoGo_Practice";;;;;;;;;;;;;;;;;;;;;;;;;;;;;;;;;;;;;;;;;;;;;;;;;;;;;;;;;;;;;;;;;;;;;;;"1947";"2014-10-07 12:21:02.683";"21";"1";"FINISHED";"RIGHT";"success";"402";"0";"2014-10-07 12:21:00.730";"3";;;;;;;;;;
"Amma12";"1995";;"Windows 7";"Rachel's Experiment (D.T.)";"1.0";"2";"1";"1";"2";"1";"1";"2014-10-07 12:18:42.355";"2014-10-07 12:34:24.199";"1";"1";"1";"6";"5";"module.GoNoGopractice.exec-9410.GoNoGo_Practice";;;;;;;;;;;;;;;;;;;;;;;;;;;;;;;;;;;;;;;;;;;;;;;;;;;;;;;;;;;;;;;;;;;;;;;"1947";"2014-10-07 12:21:05.902";"14";"1";"FINISHED";"RIGHT";"failure";"463";"1";"2014-10-07 12:21:03.949";"2";;;;;;;;;;
"Amma12";"1995";;"Windows 7";"Rachel's Experiment (D.T.)";"1.0";"2";"1";"1";"2";"1";"1";"2014-10-07 12:18:42.355";"2014-10-07 12:34:24.199";"1";"1";"1";"7";"6";"module.GoNoGopractice.exec-9410.GoNoGo_Practice";;;;;;;;;;;;;;;;;;;;;;;;;;;;;;;;;;;;;;;;;;;;;;;;;;;;;;;;;;;;;;;;;;;;;;;"1947";"2014-10-07 12:21:09.121";"26";"0";"FINISHED";"LEFT";"success";"517";"0";"2014-10-07 12:21:07.167";"3";;;;;;;;;;
"Amma12";"1995";;"Windows 7";"Rachel's Experiment (D.T.)";"1.0";"2";"1";"1";"2";"1";"1";"2014-10-07 12:18:42.355";"2014-10-07 12:34:24.199";"1";"1";"1";"8";"7";"module.GoNoGopractice.exec-9410.GoNoGo_Practice";;;;;;;;;;;;;;;;;;;;;;;;;;;;;;;;;;;;;;;;;;;;;;;;;;;;;;;;;;;;;;;;;;;;;;;"1948";"2014-10-07 12:21:12.339";"2";"0";"FINISHED";"LEFT";"success";"578";"0";"2014-10-07 12:21:10.386";"1";;;;;;;;;;
"Amma12";"1995";;"Windows 7";"Rachel's Experiment (D.T.)";"1.0";"2";"1";"1";"2";"1";"1";"2014-10-07 12:18:42.355";"2014-10-07 12:34:24.199";"1";"1";"1";"9";"8";"module.GoNoGopractice.exec-9410.GoNoGo_Practice";;;;;;;;;;;;;;;;;;;;;;;;;;;;;;;;;;;;;;;;;;;;;;;;;;;;;;;;;;;;;;;;;;;;;;;"1948";"2014-10-07 12:21:15.558";"30";"0";"FINISHED";"NONE";"success";"0";"1";"2014-10-07 12:21:13.605";"3";;;;;;;;;;
"Amma12";"1995";;"Windows 7";"Rachel's Experiment (D.T.)";"1.0";"2";"1";"1";"2";"1";"1";"2014-10-07 12:18:42.355";"2014-10-07 12:34:24.199";"1";"1";"1";"10";"9";"module.GoNoGopractice.exec-9410.GoNoGo_Practice";;;;;;;;;;;;;;;;;;;;;;;;;;;;;;;;;;;;;;;;;;;;;;;;;;;;;;;;;;;;;;;;;;;;;;;"1947";"2014-10-07 12:21:18.777";"6";"1";"FINISHED";"RIGHT";"failure";"1180";"1";"2014-10-07 12:21:16.824";"1";;;;;;;;;;
"Amma12";"1995";;"Windows 7";"Rachel's Experiment (D.T.)";"1.0";"2";"1";"1";"2";"1";"1";"2014-10-07 12:18:42.355";"2014-10-07 12:34:24.199";"1";"1";"1";"11";"10";"module.GoNoGopractice.exec-9410.GoNoGo_Practice";;;;;;;;;;;;;;;;;;;;;;;;;;;;;;;;;;;;;;;;;;;;;;;;;;;;;;;;;;;;;;;;;;;;;;;"1948";"2014-10-07 12:21:21.996";"34";"0";"FINISHED";"NONE";"failure";"0";"0";"2014-10-07 12:21:20.042";"3";;;;;;;;;;
"Amma12";"1995";;"Windows 7";"Rachel's Experiment (D.T.)";"1.0";"2";"1";"1";"2";"1";"1";"2014-10-07 12:18:42.355";"2014-10-07 12:34:24.199";"1";"1";"1";"12";"11";"module.GoNoGopractice.exec-9410.GoNoGo_Practice";;;;;;;;;;;;;;;;;;;;;;;;;;;;;;;;;;;;;;;;;;;;;;;;;;;;;;;;;;;;;;;;;;;;;;;"1948";"2014-10-07 12:21:25.214";"23";"1";"FINISHED";"RIGHT";"success";"895";"0";"2014-10-07 12:21:23.261";"3";;;;;;;;;;
"Amma12";"1995";;"Windows 7";"Rachel's Experiment (D.T.)";"1.0";"2";"1";"1";"2";"1";"1";"2014-10-07 12:18:42.355";"2014-10-07 12:34:24.199";"1";"1";"1";"13";"12";"module.GoNoGopractice.exec-9410.GoNoGo_Practice";;;;;;;;;;;;;;;;;;;;;;;;;;;;;;;;;;;;;;;;;;;;;;;;;;;;;;;;;;;;;;;;;;;;;;;"1947";"2014-10-07 12:21:28.433";"13";"0";"FINISHED";"NONE";"success";"0";"1";"2014-10-07 12:21:26.480";"2";;;;;;;;;;
"Amma12";"1995";;"Windows 7";"Rachel's Experiment (D.T.)";"1.0";"2";"1";"1";"2";"1";"1";"2014-10-07 12:18:42.355";"2014-10-07 12:34:24.199";"1";"1";"1";"14";"13";"module.GoNoGopractice.exec-9410.GoNoGo_Practice";;;;;;;;;;;;;;;;;;;;;;;;;;;;;;;;;;;;;;;;;;;;;;;;;;;;;;;;;;;;;;;;;;;;;;;"1948";"2014-10-07 12:21:31.652";"3";"1";"FINISHED";"RIGHT";"success";"794";"0";"2014-10-07 12:21:29.699";"1";;;;;;;;;;
"Amma12";"1995";;"Windows 7";"Rachel's Experiment (D.T.)";"1.0";"2";"1";"1";"2";"1";"1";"2014-10-07 12:18:42.355";"2014-10-07 12:34:24.199";"1";"1";"1";"15";"14";"module.GoNoGopractice.exec-9410.GoNoGo_Practice";;;;;;;;;;;;;;;;;;;;;;;;;;;;;;;;;;;;;;;;;;;;;;;;;;;;;;;;;;;;;;;;;;;;;;;"1948";"2014-10-07 12:21:34.871";"27";"1";"FINISHED";"NONE";"success";"0";"1";"2014-10-07 12:21:32.917";"3";;;;;;;;;;
"Amma12";"1995";;"Windows 7";"Rachel's Experiment (D.T.)";"1.0";"2";"1";"1";"2";"1";"1";"2014-10-07 12:18:42.355";"2014-10-07 12:34:24.199";"1";"1";"1";"16";"15";"module.training_block1.exec-6514.GoNoGo1";;;;;;;;;;;;;;;;;;;;;;;"1243";"2014-10-07 12:22:09.246";"ST_failedStop";"0";"0";"FINISHED";"LEFT";"failure";"550";"1";"2014-10-07 12:22:07.996";"1";;;;;;;;;;;;;;;;;;;;;;;;;;;;;;;;;;;;;;;;;;;;;;;;;;;;;;;;;
"Amma12";"1995";;"Windows 7";"Rachel's Experiment (D.T.)";"1.0";"2";"1";"1";"2";"1";"1";"2014-10-07 12:18:42.355";"2014-10-07 12:34:24.199";"1";"1";"1";"17";"16";"module.training_block1.exec-6514.GoNoGo1";;;;;;;;;;;;;;;;;;;;;;;"1244";"2014-10-07 12:22:11.761";"ST_correctStop";"7";"0";"FINISHED";"NONE";"success";"0";"1";"2014-10-07 12:22:10.511";"1";;;;;;;;;;;;;;;;;;;;;;;;;;;;;;;;;;;;;;;;;;;;;;;;;;;;;;;;;
"Amma12";"1995";;"Windows 7";"Rachel's Experiment (D.T.)";"1.0";"2";"1";"1";"2";"1";"1";"2014-10-07 12:18:42.355";"2014-10-07 12:34:24.199";"1";"1";"1";"18";"17";"module.training_block1.exec-6514.GoNoGo1";;;;;;;;;;;;;;;;;;;;;;;"1236";"2014-10-07 12:22:14.402";"ST_correctStop";"19";"0";"FINISHED";"NONE";"success";"0";"1";"2014-10-07 12:22:13.152";"3";;;;;;;;;;;;;;;;;;;;;;;;;;;;;;;;;;;;;;;;;;;;;;;;;;;;;;;;;
"Amma12";"1995";;"Windows 7";"Rachel's Experiment (D.T.)";"1.0";"2";"1";"1";"2";"1";"1";"2014-10-07 12:18:42.355";"2014-10-07 12:34:24.199";"1";"1";"1";"19";"18";"module.training_block1.exec-6514.GoNoGo1";;;;;;;;;;;;;;;;;;;;;;;"1244";"2014-10-07 12:22:16.917";"NST_correctLoc";"20";"0";"FINISHED";"LEFT";"success";"456";"0";"2014-10-07 12:22:15.667";"3";;;;;;;;;;;;;;;;;;;;;;;;;;;;;;;;;;;;;;;;;;;;;;;;;;;;;;;;;
"Amma12";"1995";;"Windows 7";"Rachel's Experiment (D.T.)";"1.0";"2";"1";"1";"2";"1";"1";"2014-10-07 12:18:42.355";"2014-10-07 12:34:24.199";"1";"1";"1";"20";"19";"module.training_block1.exec-6514.GoNoGo1";;;;;;;;;;;;;;;;;;;;;;;"1244";"2014-10-07 12:22:19.433";"NST_correctLoc";"15";"0";"FINISHED";"LEFT";"success";"605";"0";"2014-10-07 12:22:18.183";"2";;;;;;;;;;;;;;;;;;;;;;;;;;;;;;;;;;;;;;;;;;;;;;;;;;;;;;;;;
"Amma12";"1995";;"Windows 7";"Rachel's Experiment (D.T.)";"1.0";"2";"1";"1";"2";"1";"1";"2014-10-07 12:18:42.355";"2014-10-07 12:34:24.199";"1";"1";"1";"21";"20";"module.training_block1.exec-6514.GoNoGo1";;;;;;;;;;;;;;;;;;;;;;;"1244";"2014-10-07 12:22:21.949";"NST_correctLoc";"17";"1";"FINISHED";"RIGHT";"success";"665";"0";"2014-10-07 12:22:20.699";"2";;;;;;;;;;;;;;;;;;;;;;;;;;;;;;;;;;;;;;;;;;;;;;;;;;;;;;;;;
"Amma12";"1995";;"Windows 7";"Rachel's Experiment (D.T.)";"1.0";"2";"1";"1";"2";"1";"1";"2014-10-07 12:18:42.355";"2014-10-07 12:34:24.199";"1";"1";"1";"22";"21";"module.training_block1.exec-6514.GoNoGo1";;;;;;;;;;;;;;;;;;;;;;;"1244";"2014-10-07 12:22:24.464";"NST_correctLoc";"13";"0";"FINISHED";"LEFT";"success";"517";"0";"2014-10-07 12:22:23.214";"2";;;;;;;;;;;;;;;;;;;;;;;;;;;;;;;;;;;;;;;;;;;;;;;;;;;;;;;;;
"Amma12";"1995";;"Windows 7";"Rachel's Experiment (D.T.)";"1.0";"2";"1";"1";"2";"1";"1";"2014-10-07 12:18:42.355";"2014-10-07 12:34:24.199";"1";"1";"1";"23";"22";"module.training_block1.exec-6514.GoNoGo1";;;;;;;;;;;;;;;;;;;;;;;"1244";"2014-10-07 12:22:26.980";"NST_correctLoc";"11";"0";"FINISHED";"LEFT";"success";"626";"0";"2014-10-07 12:22:25.730";"2";;;;;;;;;;;;;;;;;;;;;;;;;;;;;;;;;;;;;;;;;;;;;;;;;;;;;;;;;
"Amma12";"1995";;"Windows 7";"Rachel's Experiment (D.T.)";"1.0";"2";"1";"1";"2";"1";"1";"2014-10-07 12:18:42.355";"2014-10-07 12:34:24.199";"1";"1";"1";"24";"23";"module.training_block1.exec-6514.GoNoGo1";;;;;;;;;;;;;;;;;;;;;;;"1244";"2014-10-07 12:22:29.496";"ST_correctStop";"8";"0";"FINISHED";"NONE";"success";"0";"1";"2014-10-07 12:22:28.246";"1";;;;;;;;;;;;;;;;;;;;;;;;;;;;;;;;;;;;;;;;;;;;;;;;;;;;;;;;;
"Amma12";"1995";;"Windows 7";"Rachel's Experiment (D.T.)";"1.0";"2";"1";"1";"2";"1";"1";"2014-10-07 12:18:42.355";"2014-10-07 12:34:24.199";"1";"1";"1";"25";"24";"module.training_block1.exec-6514.GoNoGo1";;;;;;;;;;;;;;;;;;;;;;;"1245";"2014-10-07 12:22:32.011";"NST_correctLoc";"29";"0";"FINISHED";"LEFT";"success";"691";"0";"2014-10-07 12:22:30.761";"3";;;;;;;;;;;;;;;;;;;;;;;;;;;;;;;;;;;;;;;;;;;;;;;;;;;;;;;;;
"Amma12";"1995";;"Windows 7";"Rachel's Experiment (D.T.)";"1.0";"2";"1";"1";"2";"1";"1";"2014-10-07 12:18:42.355";"2014-10-07 12:34:24.199";"1";"1";"1";"26";"25";"module.training_block1.exec-6514.GoNoGo1";;;;;;;;;;;;;;;;;;;;;;;"1244";"2014-10-07 12:22:34.527";"NST_correctLoc";"16";"1";"FINISHED";"RIGHT";"success";"671";"0";"2014-10-07 12:22:33.277";"2";;;;;;;;;;;;;;;;;;;;;;;;;;;;;;;;;;;;;;;;;;;;;;;;;;;;;;;;;
"Amma12";"1995";;"Windows 7";"Rachel's Experiment (D.T.)";"1.0";"2";"1";"1";"2";"1";"1";"2014-10-07 12:18:42.355";"2014-10-07 12:34:24.199";"1";"1";"1";"27";"26";"module.training_block1.exec-6514.GoNoGo1";;;;;;;;;;;;;;;;;;;;;;;"1245";"2014-10-07 12:22:37.042";"NST_correctLoc";"28";"0";"FINISHED";"LEFT";"success";"604";"0";"2014-10-07 12:22:35.792";"3";;;;;;;;;;;;;;;;;;;;;;;;;;;;;;;;;;;;;;;;;;;;;;;;;;;;;;;;;
"Amma12";"1995";;"Windows 7";"Rachel's Experiment (D.T.)";"1.0";"2";"1";"1";"2";"1";"1";"2014-10-07 12:18:42.355";"2014-10-07 12:34:24.199";"1";"1";"1";"28";"27";"module.training_block1.exec-6514.GoNoGo1";;;;;;;;;;;;;;;;;;;;;;;"1244";"2014-10-07 12:22:39.558";"ST_correctStop";"3";"1";"FINISHED";"NONE";"success";"0";"1";"2014-10-07 12:22:38.308";"1";;;;;;;;;;;;;;;;;;;;;;;;;;;;;;;;;;;;;;;;;;;;;;;;;;;;;;;;;
"Amma12";"1995";;"Windows 7";"Rachel's Experiment (D.T.)";"1.0";"2";"1";"1";"2";"1";"1";"2014-10-07 12:18:42.355";"2014-10-07 12:34:24.199";"1";"1";"1";"29";"28";"module.training_block1.exec-6514.GoNoGo1";;;;;;;;;;;;;;;;;;;;;;;"1245";"2014-10-07 12:22:42.074";"NST_correctLoc";"25";"0";"FINISHED";"LEFT";"success";"556";"0";"2014-10-07 12:22:40.824";"3";;;;;;;;;;;;;;;;;;;;;;;;;;;;;;;;;;;;;;;;;;;;;;;;;;;;;;;;;
"Amma12";"1995";;"Windows 7";"Rachel's Experiment (D.T.)";"1.0";"2";"1";"1";"2";"1";"1";"2014-10-07 12:18:42.355";"2014-10-07 12:34:24.199";"1";"1";"1";"30";"29";"module.training_block1.exec-6514.GoNoGo1";;;;;;;;;;;;;;;;;;;;;;;"1244";"2014-10-07 12:22:44.589";"NST_correctLoc";"14";"1";"FINISHED";"RIGHT";"success";"568";"0";"2014-10-07 12:22:43.339";"2";;;;;;;;;;;;;;;;;;;;;;;;;;;;;;;;;;;;;;;;;;;;;;;;;;;;;;;;;
"Amma12";"1995";;"Windows 7";"Rachel's Experiment (D.T.)";"1.0";"2";"1";"1";"2";"1";"1";"2014-10-07 12:18:42.355";"2014-10-07 12:34:24.199";"1";"1";"1";"31";"30";"module.training_block1.exec-6514.GoNoGo1";;;;;;;;;;;;;;;;;;;;;;;"1245";"2014-10-07 12:22:47.105";"ST_correctStop";"24";"1";"FINISHED";"NONE";"success";"0";"1";"2014-10-07 12:22:45.855";"3";;;;;;;;;;;;;;;;;;;;;;;;;;;;;;;;;;;;;;;;;;;;;;;;;;;;;;;;;
"Amma12";"1995";;"Windows 7";"Rachel's Experiment (D.T.)";"1.0";"2";"1";"1";"2";"1";"1";"2014-10-07 12:18:42.355";"2014-10-07 12:34:24.199";"1";"1";"1";"32";"31";"module.training_block1.exec-6514.GoNoGo1";;;;;;;;;;;;;;;;;;;;;;;"1244";"2014-10-07 12:22:49.621";"ST_correctStop";"18";"1";"FINISHED";"NONE";"success";"0";"1";"2014-10-07 12:22:48.371";"3";;;;;;;;;;;;;;;;;;;;;;;;;;;;;;;;;;;;;;;;;;;;;;;;;;;;;;;;;
"Amma12";"1995";;"Windows 7";"Rachel's Experiment (D.T.)";"1.0";"2";"1";"1";"2";"1";"1";"2014-10-07 12:18:42.355";"2014-10-07 12:34:24.199";"1";"1";"1";"33";"32";"module.training_block1.exec-6514.GoNoGo1";;;;;;;;;;;;;;;;;;;;;;;"1245";"2014-10-07 12:22:52.136";"ST_correctStop";"5";"1";"FINISHED";"NONE";"success";"0";"1";"2014-10-07 12:22:50.886";"1";;;;;;;;;;;;;;;;;;;;;;;;;;;;;;;;;;;;;;;;;;;;;;;;;;;;;;;;;
"Amma12";"1995";;"Windows 7";"Rachel's Experiment (D.T.)";"1.0";"2";"1";"1";"2";"1";"1";"2014-10-07 12:18:42.355";"2014-10-07 12:34:24.199";"1";"1";"1";"34";"33";"module.training_block1.exec-6514.GoNoGo1";;;;;;;;;;;;;;;;;;;;;;;"1244";"2014-10-07 12:22:54.652";"NST_correctLoc";"30";"0";"FINISHED";"LEFT";"success";"394";"0";"2014-10-07 12:22:53.402";"3";;;;;;;;;;;;;;;;;;;;;;;;;;;;;;;;;;;;;;;;;;;;;;;;;;;;;;;;;
"Amma12";"1995";;"Windows 7";"Rachel's Experiment (D.T.)";"1.0";"2";"1";"1";"2";"1";"1";"2014-10-07 12:18:42.355";"2014-10-07 12:34:24.199";"1";"1";"1";"35";"34";"module.training_block1.exec-6514.GoNoGo1";;;;;;;;;;;;;;;;;;;;;;;"1245";"2014-10-07 12:22:57.167";"NST_correctLoc";"22";"1";"FINISHED";"RIGHT";"success";"574";"0";"2014-10-07 12:22:55.917";"3";;;;;;;;;;;;;;;;;;;;;;;;;;;;;;;;;;;;;;;;;;;;;;;;;;;;;;;;;
"Amma12";"1995";;"Windows 7";"Rachel's Experiment (D.T.)";"1.0";"2";"1";"1";"2";"1";"1";"2014-10-07 12:18:42.355";"2014-10-07 12:34:24.199";"1";"1";"1";"36";"35";"module.training_block1.exec-6514.GoNoGo1";;;;;;;;;;;;;;;;;;;;;;;"1244";"2014-10-07 12:22:59.683";"ST_correctStop";"26";"0";"FINISHED";"NONE";"success";"0";"1";"2014-10-07 12:22:58.433";"3";;;;;;;;;;;;;;;;;;;;;;;;;;;;;;;;;;;;;;;;;;;;;;;;;;;;;;;;;
"Amma12";"1995";;"Windows 7";"Rachel's Experiment (D.T.)";"1.0";"2";"1";"1";"2";"1";"1";"2014-10-07 12:18:42.355";"2014-10-07 12:34:24.199";"1";"1";"1";"37";"36";"module.training_block1.exec-6514.GoNoGo1";;;;;;;;;;;;;;;;;;;;;;;"1244";"2014-10-07 12:23:02.199";"NST_correctLoc";"31";"1";"FINISHED";"RIGHT";"success";"631";"0";"2014-10-07 12:23:00.949";"3";;;;;;;;;;;;;;;;;;;;;;;;;;;;;;;;;;;;;;;;;;;;;;;;;;;;;;;;;
"Amma12";"1995";;"Windows 7";"Rachel's Experiment (D.T.)";"1.0";"2";"1";"1";"2";"1";"1";"2014-10-07 12:18:42.355";"2014-10-07 12:34:24.199";"1";"1";"1";"38";"37";"module.training_block1.exec-6514.GoNoGo1";;;;;;;;;;;;;;;;;;;;;;;"1245";"2014-10-07 12:23:04.714";"ST_failedStop";"1";"1";"FINISHED";"RIGHT";"failure";"540";"1";"2014-10-07 12:23:03.464";"1";;;;;;;;;;;;;;;;;;;;;;;;;;;;;;;;;;;;;;;;;;;;;;;;;;;;;;;;;
"Amma12";"1995";;"Windows 7";"Rachel's Experiment (D.T.)";"1.0";"2";"1";"1";"2";"1";"1";"2014-10-07 12:18:42.355";"2014-10-07 12:34:24.199";"1";"1";"1";"39";"38";"module.training_block1.exec-6514.GoNoGo1";;;;;;;;;;;;;;;;;;;;;;;"1244";"2014-10-07 12:23:07.230";"NST_correctLoc";"27";"1";"FINISHED";"RIGHT";"success";"584";"0";"2014-10-07 12:23:05.980";"3";;;;;;;;;;;;;;;;;;;;;;;;;;;;;;;;;;;;;;;;;;;;;;;;;;;;;;;;;
"Amma12";"1995";;"Windows 7";"Rachel's Experiment (D.T.)";"1.0";"2";"1";"1";"2";"1";"1";"2014-10-07 12:18:42.355";"2014-10-07 12:34:24.199";"1";"1";"1";"40";"39";"module.training_block1.exec-6514.GoNoGo1";;;;;;;;;;;;;;;;;;;;;;;"1244";"2014-10-07 12:23:09.746";"ST_correctStop";"4";"1";"FINISHED";"NONE";"success";"0";"1";"2014-10-07 12:23:08.496";"1";;;;;;;;;;;;;;;;;;;;;;;;;;;;;;;;;;;;;;;;;;;;;;;;;;;;;;;;;
"Amma12";"1995";;"Windows 7";"Rachel's Experiment (D.T.)";"1.0";"2";"1";"1";"2";"1";"1";"2014-10-07 12:18:42.355";"2014-10-07 12:34:24.199";"1";"1";"1";"41";"40";"module.training_block1.exec-6514.GoNoGo1";;;;;;;;;;;;;;;;;;;;;;;"1244";"2014-10-07 12:23:12.261";"ST_correctStop";"2";"1";"FINISHED";"NONE";"success";"0";"1";"2014-10-07 12:23:11.011";"1";;;;;;;;;;;;;;;;;;;;;;;;;;;;;;;;;;;;;;;;;;;;;;;;;;;;;;;;;
"Amma12";"1995";;"Windows 7";"Rachel's Experiment (D.T.)";"1.0";"2";"1";"1";"2";"1";"1";"2014-10-07 12:18:42.355";"2014-10-07 12:34:24.199";"1";"1";"1";"42";"41";"module.training_block1.exec-6514.GoNoGo1";;;;;;;;;;;;;;;;;;;;;;;"1244";"2014-10-07 12:23:14.777";"ST_correctStop";"6";"0";"FINISHED";"NONE";"success";"0";"1";"2014-10-07 12:23:13.527";"1";;;;;;;;;;;;;;;;;;;;;;;;;;;;;;;;;;;;;;;;;;;;;;;;;;;;;;;;;
"Amma12";"1995";;"Windows 7";"Rachel's Experiment (D.T.)";"1.0";"2";"1";"1";"2";"1";"1";"2014-10-07 12:18:42.355";"2014-10-07 12:34:24.199";"1";"1";"1";"43";"42";"module.training_block1.exec-6514.GoNoGo1";;;;;;;;;;;;;;;;;;;;;;;"1245";"2014-10-07 12:23:17.292";"ST_correctStop";"33";"1";"FINISHED";"NONE";"success";"0";"1";"2014-10-07 12:23:16.042";"3";;;;;;;;;;;;;;;;;;;;;;;;;;;;;;;;;;;;;;;;;;;;;;;;;;;;;;;;;
"Amma12";"1995";;"Windows 7";"Rachel's Experiment (D.T.)";"1.0";"2";"1";"1";"2";"1";"1";"2014-10-07 12:18:42.355";"2014-10-07 12:34:24.199";"1";"1";"1";"44";"43";"module.training_block1.exec-6514.GoNoGo1";;;;;;;;;;;;;;;;;;;;;;;"1244";"2014-10-07 12:23:19.808";"NST_correctLoc";"10";"1";"FINISHED";"RIGHT";"success";"622";"0";"2014-10-07 12:23:18.558";"2";;;;;;;;;;;;;;;;;;;;;;;;;;;;;;;;;;;;;;;;;;;;;;;;;;;;;;;;;
"Amma12";"1995";;"Windows 7";"Rachel's Experiment (D.T.)";"1.0";"2";"1";"1";"2";"1";"1";"2014-10-07 12:18:42.355";"2014-10-07 12:34:24.199";"1";"1";"1";"45";"44";"module.training_block1.exec-6514.GoNoGo1";;;;;;;;;;;;;;;;;;;;;;;"1245";"2014-10-07 12:23:22.324";"NST_correctLoc";"12";"0";"FINISHED";"LEFT";"success";"682";"0";"2014-10-07 12:23:21.074";"2";;;;;;;;;;;;;;;;;;;;;;;;;;;;;;;;;;;;;;;;;;;;;;;;;;;;;;;;;
"Amma12";"1995";;"Windows 7";"Rachel's Experiment (D.T.)";"1.0";"2";"1";"1";"2";"1";"1";"2014-10-07 12:18:42.355";"2014-10-07 12:34:24.199";"1";"1";"1";"46";"45";"module.training_block1.exec-6514.GoNoGo1";;;;;;;;;;;;;;;;;;;;;;;"1245";"2014-10-07 12:23:24.839";"ST_correctStop";"35";"0";"FINISHED";"NONE";"success";"0";"1";"2014-10-07 12:23:23.589";"3";;;;;;;;;;;;;;;;;;;;;;;;;;;;;;;;;;;;;;;;;;;;;;;;;;;;;;;;;
"Amma12";"1995";;"Windows 7";"Rachel's Experiment (D.T.)";"1.0";"2";"1";"1";"2";"1";"1";"2014-10-07 12:18:42.355";"2014-10-07 12:34:24.199";"1";"1";"1";"47";"46";"module.training_block1.exec-6514.GoNoGo1";;;;;;;;;;;;;;;;;;;;;;;"1244";"2014-10-07 12:23:27.355";"NST_correctLoc";"21";"0";"FINISHED";"LEFT";"success";"547";"0";"2014-10-07 12:23:26.105";"3";;;;;;;;;;;;;;;;;;;;;;;;;;;;;;;;;;;;;;;;;;;;;;;;;;;;;;;;;
"Amma12";"1995";;"Windows 7";"Rachel's Experiment (D.T.)";"1.0";"2";"1";"1";"2";"1";"1";"2014-10-07 12:18:42.355";"2014-10-07 12:34:24.199";"1";"1";"1";"48";"47";"module.training_block1.exec-6514.GoNoGo1";;;;;;;;;;;;;;;;;;;;;;;"1245";"2014-10-07 12:23:29.871";"ST_correctStop";"34";"0";"FINISHED";"NONE";"success";"0";"1";"2014-10-07 12:23:28.621";"3";;;;;;;;;;;;;;;;;;;;;;;;;;;;;;;;;;;;;;;;;;;;;;;;;;;;;;;;;
"Amma12";"1995";;"Windows 7";"Rachel's Experiment (D.T.)";"1.0";"2";"1";"1";"2";"1";"1";"2014-10-07 12:18:42.355";"2014-10-07 12:34:24.199";"1";"1";"1";"49";"48";"module.training_block1.exec-6514.GoNoGo1";;;;;;;;;;;;;;;;;;;;;;;"1244";"2014-10-07 12:23:32.386";"ST_correctStop";"23";"0";"FINISHED";"NONE";"success";"0";"1";"2014-10-07 12:23:31.136";"3";;;;;;;;;;;;;;;;;;;;;;;;;;;;;;;;;;;;;;;;;;;;;;;;;;;;;;;;;
"Amma12";"1995";;"Windows 7";"Rachel's Experiment (D.T.)";"1.0";"2";"1";"1";"2";"1";"1";"2014-10-07 12:18:42.355";"2014-10-07 12:34:24.199";"1";"1";"1";"50";"49";"module.training_block1.exec-6514.GoNoGo1";;;;;;;;;;;;;;;;;;;;;;;"1244";"2014-10-07 12:23:34.902";"NST_correctLoc";"9";"0";"FINISHED";"LEFT";"success";"576";"0";"2014-10-07 12:23:33.652";"2";;;;;;;;;;;;;;;;;;;;;;;;;;;;;;;;;;;;;;;;;;;;;;;;;;;;;;;;;
"Amma12";"1995";;"Windows 7";"Rachel's Experiment (D.T.)";"1.0";"2";"1";"1";"2";"1";"1";"2014-10-07 12:18:42.355";"2014-10-07 12:34:24.199";"1";"1";"1";"51";"50";"module.training_block1.exec-6514.GoNoGo1";;;;;;;;;;;;;;;;;;;;;;;"1244";"2014-10-07 12:23:37.417";"ST_correctStop";"32";"1";"FINISHED";"NONE";"success";"0";"1";"2014-10-07 12:23:36.167";"3";;;;;;;;;;;;;;;;;;;;;;;;;;;;;;;;;;;;;;;;;;;;;;;;;;;;;;;;;
"Amma12";"1995";;"Windows 7";"Rachel's Experiment (D.T.)";"1.0";"2";"1";"1";"2";"1";"1";"2014-10-07 12:18:42.355";"2014-10-07 12:34:24.199";"1";"1";"1";"52";"51";"module.training_block2.exec-4063.GoNoGo2";;;;;;;;;;;;;;;;;;;;;;;;;;;;;;;;;;;"1248";"2014-10-07 12:24:00.558";"ST_correctStop";"33";"1";"FINISHED";"NONE";"success";"0";"1";"2014-10-07 12:23:59.308";"3";;;;;;;;;;;;;;;;;;;;;;;;;;;;;;;;;;;;;;;;;;;;;
"Amma12";"1995";;"Windows 7";"Rachel's Experiment (D.T.)";"1.0";"2";"1";"1";"2";"1";"1";"2014-10-07 12:18:42.355";"2014-10-07 12:34:24.199";"1";"1";"1";"53";"52";"module.training_block2.exec-4063.GoNoGo2";;;;;;;;;;;;;;;;;;;;;;;;;;;;;;;;;;;"1248";"2014-10-07 12:24:03.074";"NST_correctLoc";"16";"1";"FINISHED";"RIGHT";"success";"711";"0";"2014-10-07 12:24:01.824";"2";;;;;;;;;;;;;;;;;;;;;;;;;;;;;;;;;;;;;;;;;;;;;
"Amma12";"1995";;"Windows 7";"Rachel's Experiment (D.T.)";"1.0";"2";"1";"1";"2";"1";"1";"2014-10-07 12:18:42.355";"2014-10-07 12:34:24.199";"1";"1";"1";"54";"53";"module.training_block2.exec-4063.GoNoGo2";;;;;;;;;;;;;;;;;;;;;;;;;;;;;;;;;;;"1248";"2014-10-07 12:24:05.589";"NST_correctLoc";"10";"1";"FINISHED";"RIGHT";"success";"619";"0";"2014-10-07 12:24:04.339";"2";;;;;;;;;;;;;;;;;;;;;;;;;;;;;;;;;;;;;;;;;;;;;
"Amma12";"1995";;"Windows 7";"Rachel's Experiment (D.T.)";"1.0";"2";"1";"1";"2";"1";"1";"2014-10-07 12:18:42.355";"2014-10-07 12:34:24.199";"1";"1";"1";"55";"54";"module.training_block2.exec-4063.GoNoGo2";;;;;;;;;;;;;;;;;;;;;;;;;;;;;;;;;;;"1248";"2014-10-07 12:24:08.105";"NST_correctLoc";"25";"1";"FINISHED";"RIGHT";"success";"744";"0";"2014-10-07 12:24:06.855";"3";;;;;;;;;;;;;;;;;;;;;;;;;;;;;;;;;;;;;;;;;;;;;
"Amma12";"1995";;"Windows 7";"Rachel's Experiment (D.T.)";"1.0";"2";"1";"1";"2";"1";"1";"2014-10-07 12:18:42.355";"2014-10-07 12:34:24.199";"1";"1";"1";"56";"55";"module.training_block2.exec-4063.GoNoGo2";;;;;;;;;;;;;;;;;;;;;;;;;;;;;;;;;;;"1248";"2014-10-07 12:24:10.621";"NST_correctLoc";"22";"0";"FINISHED";"LEFT";"success";"692";"0";"2014-10-07 12:24:09.371";"3";;;;;;;;;;;;;;;;;;;;;;;;;;;;;;;;;;;;;;;;;;;;;
"Amma12";"1995";;"Windows 7";"Rachel's Experiment (D.T.)";"1.0";"2";"1";"1";"2";"1";"1";"2014-10-07 12:18:42.355";"2014-10-07 12:34:24.199";"1";"1";"1";"57";"56";"module.training_block2.exec-4063.GoNoGo2";;;;;;;;;;;;;;;;;;;;;;;;;;;;;;;;;;;"1248";"2014-10-07 12:24:13.136";"ST_correctStop";"5";"0";"FINISHED";"NONE";"success";"0";"1";"2014-10-07 12:24:11.886";"1";;;;;;;;;;;;;;;;;;;;;;;;;;;;;;;;;;;;;;;;;;;;;
"Amma12";"1995";;"Windows 7";"Rachel's Experiment (D.T.)";"1.0";"2";"1";"1";"2";"1";"1";"2014-10-07 12:18:42.355";"2014-10-07 12:34:24.199";"1";"1";"1";"58";"57";"module.training_block2.exec-4063.GoNoGo2";;;;;;;;;;;;;;;;;;;;;;;;;;;;;;;;;;;"1248";"2014-10-07 12:24:15.652";"NST_correctLoc";"24";"1";"FINISHED";"RIGHT";"success";"501";"0";"2014-10-07 12:24:14.402";"3";;;;;;;;;;;;;;;;;;;;;;;;;;;;;;;;;;;;;;;;;;;;;
"Amma12";"1995";;"Windows 7";"Rachel's Experiment (D.T.)";"1.0";"2";"1";"1";"2";"1";"1";"2014-10-07 12:18:42.355";"2014-10-07 12:34:24.199";"1";"1";"1";"59";"58";"module.training_block2.exec-4063.GoNoGo2";;;;;;;;;;;;;;;;;;;;;;;;;;;;;;;;;;;"1248";"2014-10-07 12:24:18.183";"NST_correctLoc";"13";"0";"FINISHED";"LEFT";"success";"450";"0";"2014-10-07 12:24:16.933";"2";;;;;;;;;;;;;;;;;;;;;;;;;;;;;;;;;;;;;;;;;;;;;
"Amma12";"1995";;"Windows 7";"Rachel's Experiment (D.T.)";"1.0";"2";"1";"1";"2";"1";"1";"2014-10-07 12:18:42.355";"2014-10-07 12:34:24.199";"1";"1";"1";"60";"59";"module.training_block2.exec-4063.GoNoGo2";;;;;;;;;;;;;;;;;;;;;;;;;;;;;;;;;;;"1248";"2014-10-07 12:24:20.699";"NST_correctLoc";"27";"1";"FINISHED";"RIGHT";"success";"510";"0";"2014-10-07 12:24:19.449";"3";;;;;;;;;;;;;;;;;;;;;;;;;;;;;;;;;;;;;;;;;;;;;
"Amma12";"1995";;"Windows 7";"Rachel's Experiment (D.T.)";"1.0";"2";"1";"1";"2";"1";"1";"2014-10-07 12:18:42.355";"2014-10-07 12:34:24.199";"1";"1";"1";"61";"60";"module.training_block2.exec-4063.GoNoGo2";;;;;;;;;;;;;;;;;;;;;;;;;;;;;;;;;;;"1248";"2014-10-07 12:24:23.214";"ST_correctStop";"21";"0";"FINISHED";"NONE";"success";"0";"1";"2014-10-07 12:24:21.964";"3";;;;;;;;;;;;;;;;;;;;;;;;;;;;;;;;;;;;;;;;;;;;;
"Amma12";"1995";;"Windows 7";"Rachel's Experiment (D.T.)";"1.0";"2";"1";"1";"2";"1";"1";"2014-10-07 12:18:42.355";"2014-10-07 12:34:24.199";"1";"1";"1";"62";"61";"module.training_block2.exec-4063.GoNoGo2";;;;;;;;;;;;;;;;;;;;;;;;;;;;;;;;;;;"1248";"2014-10-07 12:24:25.730";"NST_correctLoc";"15";"1";"FINISHED";"RIGHT";"success";"511";"0";"2014-10-07 12:24:24.480";"2";;;;;;;;;;;;;;;;;;;;;;;;;;;;;;;;;;;;;;;;;;;;;
"Amma12";"1995";;"Windows 7";"Rachel's Experiment (D.T.)";"1.0";"2";"1";"1";"2";"1";"1";"2014-10-07 12:18:42.355";"2014-10-07 12:34:24.199";"1";"1";"1";"63";"62";"module.training_block2.exec-4063.GoNoGo2";;;;;;;;;;;;;;;;;;;;;;;;;;;;;;;;;;;"1243";"2014-10-07 12:24:28.246";"ST_correctStop";"0";"0";"FINISHED";"NONE";"success";"0";"1";"2014-10-07 12:24:26.996";"1";;;;;;;;;;;;;;;;;;;;;;;;;;;;;;;;;;;;;;;;;;;;;
"Amma12";"1995";;"Windows 7";"Rachel's Experiment (D.T.)";"1.0";"2";"1";"1";"2";"1";"1";"2014-10-07 12:18:42.355";"2014-10-07 12:34:24.199";"1";"1";"1";"64";"63";"module.training_block2.exec-4063.GoNoGo2";;;;;;;;;;;;;;;;;;;;;;;;;;;;;;;;;;;"1248";"2014-10-07 12:24:30.761";"ST_correctStop";"3";"0";"FINISHED";"NONE";"success";"0";"1";"2014-10-07 12:24:29.511";"1";;;;;;;;;;;;;;;;;;;;;;;;;;;;;;;;;;;;;;;;;;;;;
"Amma12";"1995";;"Windows 7";"Rachel's Experiment (D.T.)";"1.0";"2";"1";"1";"2";"1";"1";"2014-10-07 12:18:42.355";"2014-10-07 12:34:24.199";"1";"1";"1";"65";"64";"module.training_block2.exec-4063.GoNoGo2";;;;;;;;;;;;;;;;;;;;;;;;;;;;;;;;;;;"1248";"2014-10-07 12:24:33.277";"NST_correctLoc";"23";"1";"FINISHED";"RIGHT";"success";"508";"0";"2014-10-07 12:24:32.027";"3";;;;;;;;;;;;;;;;;;;;;;;;;;;;;;;;;;;;;;;;;;;;;
"Amma12";"1995";;"Windows 7";"Rachel's Experiment (D.T.)";"1.0";"2";"1";"1";"2";"1";"1";"2014-10-07 12:18:42.355";"2014-10-07 12:34:24.199";"1";"1";"1";"66";"65";"module.training_block2.exec-4063.GoNoGo2";;;;;;;;;;;;;;;;;;;;;;;;;;;;;;;;;;;"1248";"2014-10-07 12:24:35.792";"NST_correctLoc";"32";"1";"FINISHED";"RIGHT";"success";"520";"0";"2014-10-07 12:24:34.542";"3";;;;;;;;;;;;;;;;;;;;;;;;;;;;;;;;;;;;;;;;;;;;;
"Amma12";"1995";;"Windows 7";"Rachel's Experiment (D.T.)";"1.0";"2";"1";"1";"2";"1";"1";"2014-10-07 12:18:42.355";"2014-10-07 12:34:24.199";"1";"1";"1";"67";"66";"module.training_block2.exec-4063.GoNoGo2";;;;;;;;;;;;;;;;;;;;;;;;;;;;;;;;;;;"1248";"2014-10-07 12:24:38.308";"ST_correctStop";"2";"0";"FINISHED";"NONE";"success";"0";"1";"2014-10-07 12:24:37.058";"1";;;;;;;;;;;;;;;;;;;;;;;;;;;;;;;;;;;;;;;;;;;;;
"Amma12";"1995";;"Windows 7";"Rachel's Experiment (D.T.)";"1.0";"2";"1";"1";"2";"1";"1";"2014-10-07 12:18:42.355";"2014-10-07 12:34:24.199";"1";"1";"1";"68";"67";"module.training_block2.exec-4063.GoNoGo2";;;;;;;;;;;;;;;;;;;;;;;;;;;;;;;;;;;"1248";"2014-10-07 12:24:40.824";"ST_correctStop";"26";"1";"FINISHED";"NONE";"success";"0";"1";"2014-10-07 12:24:39.574";"3";;;;;;;;;;;;;;;;;;;;;;;;;;;;;;;;;;;;;;;;;;;;;
"Amma12";"1995";;"Windows 7";"Rachel's Experiment (D.T.)";"1.0";"2";"1";"1";"2";"1";"1";"2014-10-07 12:18:42.355";"2014-10-07 12:34:24.199";"1";"1";"1";"69";"68";"module.training_block2.exec-4063.GoNoGo2";;;;;;;;;;;;;;;;;;;;;;;;;;;;;;;;;;;"1248";"2014-10-07 12:24:43.339";"ST_failedStop";"1";"0";"FINISHED";"LEFT";"failure";"381";"1";"2014-10-07 12:24:42.089";"1";;;;;;;;;;;;;;;;;;;;;;;;;;;;;;;;;;;;;;;;;;;;;
"Amma12";"1995";;"Windows 7";"Rachel's Experiment (D.T.)";"1.0";"2";"1";"1";"2";"1";"1";"2014-10-07 12:18:42.355";"2014-10-07 12:34:24.199";"1";"1";"1";"70";"69";"module.training_block2.exec-4063.GoNoGo2";;;;;;;;;;;;;;;;;;;;;;;;;;;;;;;;;;;"1248";"2014-10-07 12:24:45.855";"NST_correctLoc";"31";"1";"FINISHED";"RIGHT";"success";"706";"0";"2014-10-07 12:24:44.605";"3";;;;;;;;;;;;;;;;;;;;;;;;;;;;;;;;;;;;;;;;;;;;;
"Amma12";"1995";;"Windows 7";"Rachel's Experiment (D.T.)";"1.0";"2";"1";"1";"2";"1";"1";"2014-10-07 12:18:42.355";"2014-10-07 12:34:24.199";"1";"1";"1";"71";"70";"module.training_block2.exec-4063.GoNoGo2";;;;;;;;;;;;;;;;;;;;;;;;;;;;;;;;;;;"1248";"2014-10-07 12:24:48.371";"ST_correctStop";"19";"0";"FINISHED";"NONE";"success";"0";"1";"2014-10-07 12:24:47.121";"3";;;;;;;;;;;;;;;;;;;;;;;;;;;;;;;;;;;;;;;;;;;;;
"Amma12";"1995";;"Windows 7";"Rachel's Experiment (D.T.)";"1.0";"2";"1";"1";"2";"1";"1";"2014-10-07 12:18:42.355";"2014-10-07 12:34:24.199";"1";"1";"1";"72";"71";"module.training_block2.exec-4063.GoNoGo2";;;;;;;;;;;;;;;;;;;;;;;;;;;;;;;;;;;"1248";"2014-10-07 12:24:50.886";"NST_correctLoc";"14";"1";"FINISHED";"RIGHT";"success";"1106";"0";"2014-10-07 12:24:49.636";"2";;;;;;;;;;;;;;;;;;;;;;;;;;;;;;;;;;;;;;;;;;;;;
"Amma12";"1995";;"Windows 7";"Rachel's Experiment (D.T.)";"1.0";"2";"1";"1";"2";"1";"1";"2014-10-07 12:18:42.355";"2014-10-07 12:34:24.199";"1";"1";"1";"73";"72";"module.training_block2.exec-4063.GoNoGo2";;;;;;;;;;;;;;;;;;;;;;;;;;;;;;;;;;;"1248";"2014-10-07 12:24:53.402";"ST_correctStop";"29";"0";"FINISHED";"NONE";"success";"0";"1";"2014-10-07 12:24:52.152";"3";;;;;;;;;;;;;;;;;;;;;;;;;;;;;;;;;;;;;;;;;;;;;
"Amma12";"1995";;"Windows 7";"Rachel's Experiment (D.T.)";"1.0";"2";"1";"1";"2";"1";"1";"2014-10-07 12:18:42.355";"2014-10-07 12:34:24.199";"1";"1";"1";"74";"73";"module.training_block2.exec-4063.GoNoGo2";;;;;;;;;;;;;;;;;;;;;;;;;;;;;;;;;;;"1248";"2014-10-07 12:24:55.917";"NST_correctLoc";"17";"1";"FINISHED";"RIGHT";"success";"516";"0";"2014-10-07 12:24:54.667";"2";;;;;;;;;;;;;;;;;;;;;;;;;;;;;;;;;;;;;;;;;;;;;
"Amma12";"1995";;"Windows 7";"Rachel's Experiment (D.T.)";"1.0";"2";"1";"1";"2";"1";"1";"2014-10-07 12:18:42.355";"2014-10-07 12:34:24.199";"1";"1";"1";"75";"74";"module.training_block2.exec-4063.GoNoGo2";;;;;;;;;;;;;;;;;;;;;;;;;;;;;;;;;;;"1248";"2014-10-07 12:24:58.433";"ST_correctStop";"8";"1";"FINISHED";"NONE";"success";"0";"1";"2014-10-07 12:24:57.183";"1";;;;;;;;;;;;;;;;;;;;;;;;;;;;;;;;;;;;;;;;;;;;;
"Amma12";"1995";;"Windows 7";"Rachel's Experiment (D.T.)";"1.0";"2";"1";"1";"2";"1";"1";"2014-10-07 12:18:42.355";"2014-10-07 12:34:24.199";"1";"1";"1";"76";"75";"module.training_block2.exec-4063.GoNoGo2";;;;;;;;;;;;;;;;;;;;;;;;;;;;;;;;;;;"1248";"2014-10-07 12:25:00.949";"NST_correctLoc";"18";"0";"FINISHED";"LEFT";"success";"572";"0";"2014-10-07 12:24:59.699";"3";;;;;;;;;;;;;;;;;;;;;;;;;;;;;;;;;;;;;;;;;;;;;
"Amma12";"1995";;"Windows 7";"Rachel's Experiment (D.T.)";"1.0";"2";"1";"1";"2";"1";"1";"2014-10-07 12:18:42.355";"2014-10-07 12:34:24.199";"1";"1";"1";"77";"76";"module.training_block2.exec-4063.GoNoGo2";;;;;;;;;;;;;;;;;;;;;;;;;;;;;;;;;;;"1248";"2014-10-07 12:25:03.464";"NST_correctLoc";"28";"1";"FINISHED";"RIGHT";"success";"552";"0";"2014-10-07 12:25:02.214";"3";;;;;;;;;;;;;;;;;;;;;;;;;;;;;;;;;;;;;;;;;;;;;
"Amma12";"1995";;"Windows 7";"Rachel's Experiment (D.T.)";"1.0";"2";"1";"1";"2";"1";"1";"2014-10-07 12:18:42.355";"2014-10-07 12:34:24.199";"1";"1";"1";"78";"77";"module.training_block2.exec-4063.GoNoGo2";;;;;;;;;;;;;;;;;;;;;;;;;;;;;;;;;;;"1248";"2014-10-07 12:25:05.980";"NST_correctLoc";"11";"0";"FINISHED";"LEFT";"success";"461";"0";"2014-10-07 12:25:04.730";"2";;;;;;;;;;;;;;;;;;;;;;;;;;;;;;;;;;;;;;;;;;;;;
"Amma12";"1995";;"Windows 7";"Rachel's Experiment (D.T.)";"1.0";"2";"1";"1";"2";"1";"1";"2014-10-07 12:18:42.355";"2014-10-07 12:34:24.199";"1";"1";"1";"79";"78";"module.training_block2.exec-4063.GoNoGo2";;;;;;;;;;;;;;;;;;;;;;;;;;;;;;;;;;;"1248";"2014-10-07 12:25:08.496";"NST_correctLoc";"9";"1";"FINISHED";"RIGHT";"success";"473";"0";"2014-10-07 12:25:07.246";"2";;;;;;;;;;;;;;;;;;;;;;;;;;;;;;;;;;;;;;;;;;;;;
"Amma12";"1995";;"Windows 7";"Rachel's Experiment (D.T.)";"1.0";"2";"1";"1";"2";"1";"1";"2014-10-07 12:18:42.355";"2014-10-07 12:34:24.199";"1";"1";"1";"80";"79";"module.training_block2.exec-4063.GoNoGo2";;;;;;;;;;;;;;;;;;;;;;;;;;;;;;;;;;;"1248";"2014-10-07 12:25:11.011";"NST_correctLoc";"12";"1";"FINISHED";"RIGHT";"success";"429";"0";"2014-10-07 12:25:09.761";"2";;;;;;;;;;;;;;;;;;;;;;;;;;;;;;;;;;;;;;;;;;;;;
"Amma12";"1995";;"Windows 7";"Rachel's Experiment (D.T.)";"1.0";"2";"1";"1";"2";"1";"1";"2014-10-07 12:18:42.355";"2014-10-07 12:34:24.199";"1";"1";"1";"81";"80";"module.training_block2.exec-4063.GoNoGo2";;;;;;;;;;;;;;;;;;;;;;;;;;;;;;;;;;;"1248";"2014-10-07 12:25:13.527";"ST_failedStop";"35";"1";"FINISHED";"RIGHT";"failure";"450";"1";"2014-10-07 12:25:12.277";"3";;;;;;;;;;;;;;;;;;;;;;;;;;;;;;;;;;;;;;;;;;;;;
"Amma12";"1995";;"Windows 7";"Rachel's Experiment (D.T.)";"1.0";"2";"1";"1";"2";"1";"1";"2014-10-07 12:18:42.355";"2014-10-07 12:34:24.199";"1";"1";"1";"82";"81";"module.training_block2.exec-4063.GoNoGo2";;;;;;;;;;;;;;;;;;;;;;;;;;;;;;;;;;;"1248";"2014-10-07 12:25:16.042";"ST_correctStop";"4";"0";"FINISHED";"NONE";"success";"0";"1";"2014-10-07 12:25:14.792";"1";;;;;;;;;;;;;;;;;;;;;;;;;;;;;;;;;;;;;;;;;;;;;
"Amma12";"1995";;"Windows 7";"Rachel's Experiment (D.T.)";"1.0";"2";"1";"1";"2";"1";"1";"2014-10-07 12:18:42.355";"2014-10-07 12:34:24.199";"1";"1";"1";"83";"82";"module.training_block2.exec-4063.GoNoGo2";;;;;;;;;;;;;;;;;;;;;;;;;;;;;;;;;;;"1248";"2014-10-07 12:25:18.558";"ST_correctStop";"20";"0";"FINISHED";"NONE";"success";"0";"1";"2014-10-07 12:25:17.308";"3";;;;;;;;;;;;;;;;;;;;;;;;;;;;;;;;;;;;;;;;;;;;;
"Amma12";"1995";;"Windows 7";"Rachel's Experiment (D.T.)";"1.0";"2";"1";"1";"2";"1";"1";"2014-10-07 12:18:42.355";"2014-10-07 12:34:24.199";"1";"1";"1";"84";"83";"module.training_block2.exec-4063.GoNoGo2";;;;;;;;;;;;;;;;;;;;;;;;;;;;;;;;;;;"1248";"2014-10-07 12:25:21.074";"ST_correctStop";"30";"1";"FINISHED";"NONE";"success";"0";"1";"2014-10-07 12:25:19.824";"3";;;;;;;;;;;;;;;;;;;;;;;;;;;;;;;;;;;;;;;;;;;;;
"Amma12";"1995";;"Windows 7";"Rachel's Experiment (D.T.)";"1.0";"2";"1";"1";"2";"1";"1";"2014-10-07 12:18:42.355";"2014-10-07 12:34:24.199";"1";"1";"1";"85";"84";"module.training_block2.exec-4063.GoNoGo2";;;;;;;;;;;;;;;;;;;;;;;;;;;;;;;;;;;"1248";"2014-10-07 12:25:23.589";"ST_correctStop";"6";"1";"FINISHED";"NONE";"success";"0";"1";"2014-10-07 12:25:22.339";"1";;;;;;;;;;;;;;;;;;;;;;;;;;;;;;;;;;;;;;;;;;;;;
"Amma12";"1995";;"Windows 7";"Rachel's Experiment (D.T.)";"1.0";"2";"1";"1";"2";"1";"1";"2014-10-07 12:18:42.355";"2014-10-07 12:34:24.199";"1";"1";"1";"86";"85";"module.training_block2.exec-4063.GoNoGo2";;;;;;;;;;;;;;;;;;;;;;;;;;;;;;;;;;;"1248";"2014-10-07 12:25:26.105";"ST_correctStop";"34";"0";"FINISHED";"NONE";"success";"0";"1";"2014-10-07 12:25:24.855";"3";;;;;;;;;;;;;;;;;;;;;;;;;;;;;;;;;;;;;;;;;;;;;
"Amma12";"1995";;"Windows 7";"Rachel's Experiment (D.T.)";"1.0";"2";"1";"1";"2";"1";"1";"2014-10-07 12:18:42.355";"2014-10-07 12:34:24.199";"1";"1";"1";"87";"86";"module.training_block2.exec-4063.GoNoGo2";;;;;;;;;;;;;;;;;;;;;;;;;;;;;;;;;;;"1243";"2014-10-07 12:25:28.621";"ST_correctStop";"7";"0";"FINISHED";"NONE";"success";"0";"1";"2014-10-07 12:25:27.371";"1";;;;;;;;;;;;;;;;;;;;;;;;;;;;;;;;;;;;;;;;;;;;;
"Amma12";"1995";;"Windows 7";"Rachel's Experiment (D.T.)";"1.0";"2";"1";"1";"2";"1";"1";"2014-10-07 12:18:42.355";"2014-10-07 12:34:24.199";"1";"1";"1";"88";"87";"module.training_block3.exec-1843.GoNoGo3";;;;;;;;;;;;;;;;;;;;;;;;;;;;;;;;;;;;;;;;;;;;;;;"1248";"2014-10-07 12:25:40.089";"ST_correctStop";"35";"1";"FINISHED";"NONE";"success";"0";"1";"2014-10-07 12:25:38.839";"3";;;;;;;;;;;;;;;;;;;;;;;;;;;;;;;;;
"Amma12";"1995";;"Windows 7";"Rachel's Experiment (D.T.)";"1.0";"2";"1";"1";"2";"1";"1";"2014-10-07 12:18:42.355";"2014-10-07 12:34:24.199";"1";"1";"1";"89";"88";"module.training_block3.exec-1843.GoNoGo3";;;;;;;;;;;;;;;;;;;;;;;;;;;;;;;;;;;;;;;;;;;;;;;"1248";"2014-10-07 12:25:42.605";"ST_correctStop";"34";"1";"FINISHED";"NONE";"success";"0";"1";"2014-10-07 12:25:41.355";"3";;;;;;;;;;;;;;;;;;;;;;;;;;;;;;;;;
"Amma12";"1995";;"Windows 7";"Rachel's Experiment (D.T.)";"1.0";"2";"1";"1";"2";"1";"1";"2014-10-07 12:18:42.355";"2014-10-07 12:34:24.199";"1";"1";"1";"90";"89";"module.training_block3.exec-1843.GoNoGo3";;;;;;;;;;;;;;;;;;;;;;;;;;;;;;;;;;;;;;;;;;;;;;;"1248";"2014-10-07 12:25:45.121";"ST_correctStop";"24";"0";"FINISHED";"NONE";"success";"0";"1";"2014-10-07 12:25:43.871";"3";;;;;;;;;;;;;;;;;;;;;;;;;;;;;;;;;
"Amma12";"1995";;"Windows 7";"Rachel's Experiment (D.T.)";"1.0";"2";"1";"1";"2";"1";"1";"2014-10-07 12:18:42.355";"2014-10-07 12:34:24.199";"1";"1";"1";"91";"90";"module.training_block3.exec-1843.GoNoGo3";;;;;;;;;;;;;;;;;;;;;;;;;;;;;;;;;;;;;;;;;;;;;;;"1248";"2014-10-07 12:25:47.636";"NST_correctLoc";"11";"1";"FINISHED";"RIGHT";"success";"460";"0";"2014-10-07 12:25:46.386";"2";;;;;;;;;;;;;;;;;;;;;;;;;;;;;;;;;
"Amma12";"1995";;"Windows 7";"Rachel's Experiment (D.T.)";"1.0";"2";"1";"1";"2";"1";"1";"2014-10-07 12:18:42.355";"2014-10-07 12:34:24.199";"1";"1";"1";"92";"91";"module.training_block3.exec-1843.GoNoGo3";;;;;;;;;;;;;;;;;;;;;;;;;;;;;;;;;;;;;;;;;;;;;;;"1248";"2014-10-07 12:25:50.152";"ST_correctStop";"6";"1";"FINISHED";"NONE";"success";"0";"1";"2014-10-07 12:25:48.902";"1";;;;;;;;;;;;;;;;;;;;;;;;;;;;;;;;;
"Amma12";"1995";;"Windows 7";"Rachel's Experiment (D.T.)";"1.0";"2";"1";"1";"2";"1";"1";"2014-10-07 12:18:42.355";"2014-10-07 12:34:24.199";"1";"1";"1";"93";"92";"module.training_block3.exec-1843.GoNoGo3";;;;;;;;;;;;;;;;;;;;;;;;;;;;;;;;;;;;;;;;;;;;;;;"1248";"2014-10-07 12:25:52.667";"NST_correctLoc";"16";"1";"FINISHED";"RIGHT";"success";"437";"0";"2014-10-07 12:25:51.417";"2";;;;;;;;;;;;;;;;;;;;;;;;;;;;;;;;;
"Amma12";"1995";;"Windows 7";"Rachel's Experiment (D.T.)";"1.0";"2";"1";"1";"2";"1";"1";"2014-10-07 12:18:42.355";"2014-10-07 12:34:24.199";"1";"1";"1";"94";"93";"module.training_block3.exec-1843.GoNoGo3";;;;;;;;;;;;;;;;;;;;;;;;;;;;;;;;;;;;;;;;;;;;;;;"1248";"2014-10-07 12:25:55.183";"ST_correctStop";"4";"0";"FINISHED";"NONE";"success";"0";"1";"2014-10-07 12:25:53.933";"1";;;;;;;;;;;;;;;;;;;;;;;;;;;;;;;;;
"Amma12";"1995";;"Windows 7";"Rachel's Experiment (D.T.)";"1.0";"2";"1";"1";"2";"1";"1";"2014-10-07 12:18:42.355";"2014-10-07 12:34:24.199";"1";"1";"1";"95";"94";"module.training_block3.exec-1843.GoNoGo3";;;;;;;;;;;;;;;;;;;;;;;;;;;;;;;;;;;;;;;;;;;;;;;"1248";"2014-10-07 12:25:57.699";"ST_correctStop";"25";"0";"FINISHED";"NONE";"success";"0";"1";"2014-10-07 12:25:56.449";"3";;;;;;;;;;;;;;;;;;;;;;;;;;;;;;;;;
"Amma12";"1995";;"Windows 7";"Rachel's Experiment (D.T.)";"1.0";"2";"1";"1";"2";"1";"1";"2014-10-07 12:18:42.355";"2014-10-07 12:34:24.199";"1";"1";"1";"96";"95";"module.training_block3.exec-1843.GoNoGo3";;;;;;;;;;;;;;;;;;;;;;;;;;;;;;;;;;;;;;;;;;;;;;;"1248";"2014-10-07 12:26:00.214";"NST_correctLoc";"17";"0";"FINISHED";"LEFT";"success";"522";"0";"2014-10-07 12:25:58.964";"2";;;;;;;;;;;;;;;;;;;;;;;;;;;;;;;;;
"Amma12";"1995";;"Windows 7";"Rachel's Experiment (D.T.)";"1.0";"2";"1";"1";"2";"1";"1";"2014-10-07 12:18:42.355";"2014-10-07 12:34:24.199";"1";"1";"1";"97";"96";"module.training_block3.exec-1843.GoNoGo3";;;;;;;;;;;;;;;;;;;;;;;;;;;;;;;;;;;;;;;;;;;;;;;"1248";"2014-10-07 12:26:02.730";"ST_correctStop";"2";"1";"FINISHED";"NONE";"success";"0";"1";"2014-10-07 12:26:01.480";"1";;;;;;;;;;;;;;;;;;;;;;;;;;;;;;;;;
"Amma12";"1995";;"Windows 7";"Rachel's Experiment (D.T.)";"1.0";"2";"1";"1";"2";"1";"1";"2014-10-07 12:18:42.355";"2014-10-07 12:34:24.199";"1";"1";"1";"98";"97";"module.training_block3.exec-1843.GoNoGo3";;;;;;;;;;;;;;;;;;;;;;;;;;;;;;;;;;;;;;;;;;;;;;;"1248";"2014-10-07 12:26:05.246";"ST_correctStop";"3";"1";"FINISHED";"NONE";"success";"0";"1";"2014-10-07 12:26:03.996";"1";;;;;;;;;;;;;;;;;;;;;;;;;;;;;;;;;
"Amma12";"1995";;"Windows 7";"Rachel's Experiment (D.T.)";"1.0";"2";"1";"1";"2";"1";"1";"2014-10-07 12:18:42.355";"2014-10-07 12:34:24.199";"1";"1";"1";"99";"98";"module.training_block3.exec-1843.GoNoGo3";;;;;;;;;;;;;;;;;;;;;;;;;;;;;;;;;;;;;;;;;;;;;;;"1248";"2014-10-07 12:26:07.761";"NST_correctLoc";"22";"0";"FINISHED";"LEFT";"success";"447";"0";"2014-10-07 12:26:06.511";"3";;;;;;;;;;;;;;;;;;;;;;;;;;;;;;;;;
"Amma12";"1995";;"Windows 7";"Rachel's Experiment (D.T.)";"1.0";"2";"1";"1";"2";"1";"1";"2014-10-07 12:18:42.355";"2014-10-07 12:34:24.199";"1";"1";"1";"100";"99";"module.training_block3.exec-1843.GoNoGo3";;;;;;;;;;;;;;;;;;;;;;;;;;;;;;;;;;;;;;;;;;;;;;;"1248";"2014-10-07 12:26:10.261";"NST_correctLoc";"23";"0";"FINISHED";"LEFT";"success";"699";"0";"2014-10-07 12:26:09.011";"3";;;;;;;;;;;;;;;;;;;;;;;;;;;;;;;;;
"Amma12";"1995";;"Windows 7";"Rachel's Experiment (D.T.)";"1.0";"2";"1";"1";"2";"1";"1";"2014-10-07 12:18:42.355";"2014-10-07 12:34:24.199";"1";"1";"1";"101";"100";"module.training_block3.exec-1843.GoNoGo3";;;;;;;;;;;;;;;;;;;;;;;;;;;;;;;;;;;;;;;;;;;;;;;"1248";"2014-10-07 12:26:12.761";"NST_correctLoc";"10";"0";"FINISHED";"LEFT";"success";"551";"0";"2014-10-07 12:26:11.511";"2";;;;;;;;;;;;;;;;;;;;;;;;;;;;;;;;;
"Amma12";"1995";;"Windows 7";"Rachel's Experiment (D.T.)";"1.0";"2";"1";"1";"2";"1";"1";"2014-10-07 12:18:42.355";"2014-10-07 12:34:24.199";"1";"1";"1";"102";"101";"module.training_block3.exec-1843.GoNoGo3";;;;;;;;;;;;;;;;;;;;;;;;;;;;;;;;;;;;;;;;;;;;;;;"1248";"2014-10-07 12:26:15.261";"NST_correctLoc";"9";"0";"FINISHED";"LEFT";"success";"443";"0";"2014-10-07 12:26:14.011";"2";;;;;;;;;;;;;;;;;;;;;;;;;;;;;;;;;
"Amma12";"1995";;"Windows 7";"Rachel's Experiment (D.T.)";"1.0";"2";"1";"1";"2";"1";"1";"2014-10-07 12:18:42.355";"2014-10-07 12:34:24.199";"1";"1";"1";"103";"102";"module.training_block3.exec-1843.GoNoGo3";;;;;;;;;;;;;;;;;;;;;;;;;;;;;;;;;;;;;;;;;;;;;;;"1248";"2014-10-07 12:26:17.777";"ST_correctStop";"31";"0";"FINISHED";"NONE";"success";"0";"1";"2014-10-07 12:26:16.527";"3";;;;;;;;;;;;;;;;;;;;;;;;;;;;;;;;;
"Amma12";"1995";;"Windows 7";"Rachel's Experiment (D.T.)";"1.0";"2";"1";"1";"2";"1";"1";"2014-10-07 12:18:42.355";"2014-10-07 12:34:24.199";"1";"1";"1";"104";"103";"module.training_block3.exec-1843.GoNoGo3";;;;;;;;;;;;;;;;;;;;;;;;;;;;;;;;;;;;;;;;;;;;;;;"1248";"2014-10-07 12:26:20.292";"NST_correctLoc";"15";"1";"FINISHED";"RIGHT";"success";"596";"0";"2014-10-07 12:26:19.042";"2";;;;;;;;;;;;;;;;;;;;;;;;;;;;;;;;;
"Amma12";"1995";;"Windows 7";"Rachel's Experiment (D.T.)";"1.0";"2";"1";"1";"2";"1";"1";"2014-10-07 12:18:42.355";"2014-10-07 12:34:24.199";"1";"1";"1";"105";"104";"module.training_block3.exec-1843.GoNoGo3";;;;;;;;;;;;;;;;;;;;;;;;;;;;;;;;;;;;;;;;;;;;;;;"1248";"2014-10-07 12:26:22.808";"NST_correctLoc";"13";"1";"FINISHED";"RIGHT";"success";"784";"0";"2014-10-07 12:26:21.558";"2";;;;;;;;;;;;;;;;;;;;;;;;;;;;;;;;;
"Amma12";"1995";;"Windows 7";"Rachel's Experiment (D.T.)";"1.0";"2";"1";"1";"2";"1";"1";"2014-10-07 12:18:42.355";"2014-10-07 12:34:24.199";"1";"1";"1";"106";"105";"module.training_block3.exec-1843.GoNoGo3";;;;;;;;;;;;;;;;;;;;;;;;;;;;;;;;;;;;;;;;;;;;;;;"1248";"2014-10-07 12:26:25.324";"NST_correctLoc";"29";"1";"FINISHED";"RIGHT";"success";"901";"0";"2014-10-07 12:26:24.074";"3";;;;;;;;;;;;;;;;;;;;;;;;;;;;;;;;;
"Amma12";"1995";;"Windows 7";"Rachel's Experiment (D.T.)";"1.0";"2";"1";"1";"2";"1";"1";"2014-10-07 12:18:42.355";"2014-10-07 12:34:24.199";"1";"1";"1";"107";"106";"module.training_block3.exec-1843.GoNoGo3";;;;;;;;;;;;;;;;;;;;;;;;;;;;;;;;;;;;;;;;;;;;;;;"1248";"2014-10-07 12:26:27.824";"NST_correctLoc";"14";"0";"FINISHED";"LEFT";"success";"856";"0";"2014-10-07 12:26:26.574";"2";;;;;;;;;;;;;;;;;;;;;;;;;;;;;;;;;
"Amma12";"1995";;"Windows 7";"Rachel's Experiment (D.T.)";"1.0";"2";"1";"1";"2";"1";"1";"2014-10-07 12:18:42.355";"2014-10-07 12:34:24.199";"1";"1";"1";"108";"107";"module.training_block3.exec-1843.GoNoGo3";;;;;;;;;;;;;;;;;;;;;;;;;;;;;;;;;;;;;;;;;;;;;;;"1248";"2014-10-07 12:26:30.324";"NST_correctLoc";"12";"0";"FINISHED";"LEFT";"success";"428";"0";"2014-10-07 12:26:29.074";"2";;;;;;;;;;;;;;;;;;;;;;;;;;;;;;;;;
"Amma12";"1995";;"Windows 7";"Rachel's Experiment (D.T.)";"1.0";"2";"1";"1";"2";"1";"1";"2014-10-07 12:18:42.355";"2014-10-07 12:34:24.199";"1";"1";"1";"109";"108";"module.training_block3.exec-1843.GoNoGo3";;;;;;;;;;;;;;;;;;;;;;;;;;;;;;;;;;;;;;;;;;;;;;;"1244";"2014-10-07 12:26:32.824";"ST_correctStop";"0";"0";"FINISHED";"NONE";"success";"0";"1";"2014-10-07 12:26:31.574";"1";;;;;;;;;;;;;;;;;;;;;;;;;;;;;;;;;
"Amma12";"1995";;"Windows 7";"Rachel's Experiment (D.T.)";"1.0";"2";"1";"1";"2";"1";"1";"2014-10-07 12:18:42.355";"2014-10-07 12:34:24.199";"1";"1";"1";"110";"109";"module.training_block3.exec-1843.GoNoGo3";;;;;;;;;;;;;;;;;;;;;;;;;;;;;;;;;;;;;;;;;;;;;;;"1248";"2014-10-07 12:26:35.324";"NST_correctLoc";"32";"0";"FINISHED";"LEFT";"success";"468";"0";"2014-10-07 12:26:34.074";"3";;;;;;;;;;;;;;;;;;;;;;;;;;;;;;;;;
"Amma12";"1995";;"Windows 7";"Rachel's Experiment (D.T.)";"1.0";"2";"1";"1";"2";"1";"1";"2014-10-07 12:18:42.355";"2014-10-07 12:34:24.199";"1";"1";"1";"111";"110";"module.training_block3.exec-1843.GoNoGo3";;;;;;;;;;;;;;;;;;;;;;;;;;;;;;;;;;;;;;;;;;;;;;;"1248";"2014-10-07 12:26:37.839";"NST_correctLoc";"28";"1";"FINISHED";"RIGHT";"success";"601";"0";"2014-10-07 12:26:36.589";"3";;;;;;;;;;;;;;;;;;;;;;;;;;;;;;;;;
"Amma12";"1995";;"Windows 7";"Rachel's Experiment (D.T.)";"1.0";"2";"1";"1";"2";"1";"1";"2014-10-07 12:18:42.355";"2014-10-07 12:34:24.199";"1";"1";"1";"112";"111";"module.training_block3.exec-1843.GoNoGo3";;;;;;;;;;;;;;;;;;;;;;;;;;;;;;;;;;;;;;;;;;;;;;;"1248";"2014-10-07 12:26:40.339";"ST_correctStop";"8";"1";"FINISHED";"NONE";"success";"0";"1";"2014-10-07 12:26:39.089";"1";;;;;;;;;;;;;;;;;;;;;;;;;;;;;;;;;
"Amma12";"1995";;"Windows 7";"Rachel's Experiment (D.T.)";"1.0";"2";"1";"1";"2";"1";"1";"2014-10-07 12:18:42.355";"2014-10-07 12:34:24.199";"1";"1";"1";"113";"112";"module.training_block3.exec-1843.GoNoGo3";;;;;;;;;;;;;;;;;;;;;;;;;;;;;;;;;;;;;;;;;;;;;;;"1248";"2014-10-07 12:26:42.839";"ST_correctStop";"20";"0";"FINISHED";"NONE";"success";"0";"1";"2014-10-07 12:26:41.589";"3";;;;;;;;;;;;;;;;;;;;;;;;;;;;;;;;;
"Amma12";"1995";;"Windows 7";"Rachel's Experiment (D.T.)";"1.0";"2";"1";"1";"2";"1";"1";"2014-10-07 12:18:42.355";"2014-10-07 12:34:24.199";"1";"1";"1";"114";"113";"module.training_block3.exec-1843.GoNoGo3";;;;;;;;;;;;;;;;;;;;;;;;;;;;;;;;;;;;;;;;;;;;;;;"1248";"2014-10-07 12:26:45.339";"ST_correctStop";"5";"1";"FINISHED";"NONE";"success";"0";"1";"2014-10-07 12:26:44.089";"1";;;;;;;;;;;;;;;;;;;;;;;;;;;;;;;;;
"Amma12";"1995";;"Windows 7";"Rachel's Experiment (D.T.)";"1.0";"2";"1";"1";"2";"1";"1";"2014-10-07 12:18:42.355";"2014-10-07 12:34:24.199";"1";"1";"1";"115";"114";"module.training_block3.exec-1843.GoNoGo3";;;;;;;;;;;;;;;;;;;;;;;;;;;;;;;;;;;;;;;;;;;;;;;"1248";"2014-10-07 12:26:47.839";"NST_correctLoc";"19";"0";"FINISHED";"LEFT";"success";"401";"0";"2014-10-07 12:26:46.589";"3";;;;;;;;;;;;;;;;;;;;;;;;;;;;;;;;;
"Amma12";"1995";;"Windows 7";"Rachel's Experiment (D.T.)";"1.0";"2";"1";"1";"2";"1";"1";"2014-10-07 12:18:42.355";"2014-10-07 12:34:24.199";"1";"1";"1";"116";"115";"module.training_block3.exec-1843.GoNoGo3";;;;;;;;;;;;;;;;;;;;;;;;;;;;;;;;;;;;;;;;;;;;;;;"1248";"2014-10-07 12:26:50.339";"ST_correctStop";"1";"0";"FINISHED";"NONE";"success";"0";"1";"2014-10-07 12:26:49.089";"1";;;;;;;;;;;;;;;;;;;;;;;;;;;;;;;;;
"Amma12";"1995";;"Windows 7";"Rachel's Experiment (D.T.)";"1.0";"2";"1";"1";"2";"1";"1";"2014-10-07 12:18:42.355";"2014-10-07 12:34:24.199";"1";"1";"1";"117";"116";"module.training_block3.exec-1843.GoNoGo3";;;;;;;;;;;;;;;;;;;;;;;;;;;;;;;;;;;;;;;;;;;;;;;"1248";"2014-10-07 12:26:52.839";"NST_correctLoc";"21";"1";"FINISHED";"RIGHT";"success";"473";"0";"2014-10-07 12:26:51.589";"3";;;;;;;;;;;;;;;;;;;;;;;;;;;;;;;;;
"Amma12";"1995";;"Windows 7";"Rachel's Experiment (D.T.)";"1.0";"2";"1";"1";"2";"1";"1";"2014-10-07 12:18:42.355";"2014-10-07 12:34:24.199";"1";"1";"1";"118";"117";"module.training_block3.exec-1843.GoNoGo3";;;;;;;;;;;;;;;;;;;;;;;;;;;;;;;;;;;;;;;;;;;;;;;"1248";"2014-10-07 12:26:55.339";"ST_correctStop";"18";"0";"FINISHED";"NONE";"success";"0";"1";"2014-10-07 12:26:54.089";"3";;;;;;;;;;;;;;;;;;;;;;;;;;;;;;;;;
"Amma12";"1995";;"Windows 7";"Rachel's Experiment (D.T.)";"1.0";"2";"1";"1";"2";"1";"1";"2014-10-07 12:18:42.355";"2014-10-07 12:34:24.199";"1";"1";"1";"119";"118";"module.training_block3.exec-1843.GoNoGo3";;;;;;;;;;;;;;;;;;;;;;;;;;;;;;;;;;;;;;;;;;;;;;;"1248";"2014-10-07 12:26:57.839";"ST_correctStop";"33";"1";"FINISHED";"NONE";"success";"0";"1";"2014-10-07 12:26:56.589";"3";;;;;;;;;;;;;;;;;;;;;;;;;;;;;;;;;
"Amma12";"1995";;"Windows 7";"Rachel's Experiment (D.T.)";"1.0";"2";"1";"1";"2";"1";"1";"2014-10-07 12:18:42.355";"2014-10-07 12:34:24.199";"1";"1";"1";"120";"119";"module.training_block3.exec-1843.GoNoGo3";;;;;;;;;;;;;;;;;;;;;;;;;;;;;;;;;;;;;;;;;;;;;;;"1248";"2014-10-07 12:27:00.339";"NST_correctLoc";"26";"1";"FINISHED";"RIGHT";"success";"413";"0";"2014-10-07 12:26:59.089";"3";;;;;;;;;;;;;;;;;;;;;;;;;;;;;;;;;
"Amma12";"1995";;"Windows 7";"Rachel's Experiment (D.T.)";"1.0";"2";"1";"1";"2";"1";"1";"2014-10-07 12:18:42.355";"2014-10-07 12:34:24.199";"1";"1";"1";"121";"120";"module.training_block3.exec-1843.GoNoGo3";;;;;;;;;;;;;;;;;;;;;;;;;;;;;;;;;;;;;;;;;;;;;;;"1248";"2014-10-07 12:27:02.839";"ST_correctStop";"7";"0";"FINISHED";"NONE";"success";"0";"1";"2014-10-07 12:27:01.589";"1";;;;;;;;;;;;;;;;;;;;;;;;;;;;;;;;;
"Amma12";"1995";;"Windows 7";"Rachel's Experiment (D.T.)";"1.0";"2";"1";"1";"2";"1";"1";"2014-10-07 12:18:42.355";"2014-10-07 12:34:24.199";"1";"1";"1";"122";"121";"module.training_block3.exec-1843.GoNoGo3";;;;;;;;;;;;;;;;;;;;;;;;;;;;;;;;;;;;;;;;;;;;;;;"1248";"2014-10-07 12:27:05.339";"NST_correctLoc";"30";"0";"FINISHED";"LEFT";"success";"557";"0";"2014-10-07 12:27:04.089";"3";;;;;;;;;;;;;;;;;;;;;;;;;;;;;;;;;
"Amma12";"1995";;"Windows 7";"Rachel's Experiment (D.T.)";"1.0";"2";"1";"1";"2";"1";"1";"2014-10-07 12:18:42.355";"2014-10-07 12:34:24.199";"1";"1";"1";"123";"122";"module.training_block3.exec-1843.GoNoGo3";;;;;;;;;;;;;;;;;;;;;;;;;;;;;;;;;;;;;;;;;;;;;;;"1248";"2014-10-07 12:27:07.839";"ST_correctStop";"27";"0";"FINISHED";"NONE";"success";"0";"1";"2014-10-07 12:27:06.589";"3";;;;;;;;;;;;;;;;;;;;;;;;;;;;;;;;;
"Amma12";"1995";;"Windows 7";"Rachel's Experiment (D.T.)";"1.0";"2";"1";"1";"2";"1";"1";"2014-10-07 12:18:42.355";"2014-10-07 12:34:24.199";"1";"1";"1";"124";"123";"module.training_block4.exec-3945.GoNoGo4";;;;;;;;;;;;;;;;;;;;;;;;;;;;;;;;;;;;;;;;;;;;;;;;;;;;;;;;;;;"1248";"2014-10-07 12:27:18.746";"NST_correctLoc";"25";"0";"FINISHED";"LEFT";"success";"470";"0";"2014-10-07 12:27:17.496";"3";;;;;;;;;;;;;;;;;;;;;
"Amma12";"1995";;"Windows 7";"Rachel's Experiment (D.T.)";"1.0";"2";"1";"1";"2";"1";"1";"2014-10-07 12:18:42.355";"2014-10-07 12:34:24.199";"1";"1";"1";"125";"124";"module.training_block4.exec-3945.GoNoGo4";;;;;;;;;;;;;;;;;;;;;;;;;;;;;;;;;;;;;;;;;;;;;;;;;;;;;;;;;;;"1248";"2014-10-07 12:27:21.246";"ST_failedStop";"20";"1";"FINISHED";"RIGHT";"failure";"474";"1";"2014-10-07 12:27:19.996";"3";;;;;;;;;;;;;;;;;;;;;
"Amma12";"1995";;"Windows 7";"Rachel's Experiment (D.T.)";"1.0";"2";"1";"1";"2";"1";"1";"2014-10-07 12:18:42.355";"2014-10-07 12:34:24.199";"1";"1";"1";"126";"125";"module.training_block4.exec-3945.GoNoGo4";;;;;;;;;;;;;;;;;;;;;;;;;;;;;;;;;;;;;;;;;;;;;;;;;;;;;;;;;;;"1248";"2014-10-07 12:27:23.746";"NST_correctLoc";"15";"0";"FINISHED";"LEFT";"success";"510";"0";"2014-10-07 12:27:22.496";"2";;;;;;;;;;;;;;;;;;;;;
"Amma12";"1995";;"Windows 7";"Rachel's Experiment (D.T.)";"1.0";"2";"1";"1";"2";"1";"1";"2014-10-07 12:18:42.355";"2014-10-07 12:34:24.199";"1";"1";"1";"127";"126";"module.training_block4.exec-3945.GoNoGo4";;;;;;;;;;;;;;;;;;;;;;;;;;;;;;;;;;;;;;;;;;;;;;;;;;;;;;;;;;;"1248";"2014-10-07 12:27:26.246";"NST_correctLoc";"14";"1";"FINISHED";"RIGHT";"success";"570";"0";"2014-10-07 12:27:24.996";"2";;;;;;;;;;;;;;;;;;;;;
"Amma12";"1995";;"Windows 7";"Rachel's Experiment (D.T.)";"1.0";"2";"1";"1";"2";"1";"1";"2014-10-07 12:18:42.355";"2014-10-07 12:34:24.199";"1";"1";"1";"128";"127";"module.training_block4.exec-3945.GoNoGo4";;;;;;;;;;;;;;;;;;;;;;;;;;;;;;;;;;;;;;;;;;;;;;;;;;;;;;;;;;;"1248";"2014-10-07 12:27:28.746";"ST_correctStop";"6";"1";"FINISHED";"NONE";"success";"0";"1";"2014-10-07 12:27:27.496";"1";;;;;;;;;;;;;;;;;;;;;
"Amma12";"1995";;"Windows 7";"Rachel's Experiment (D.T.)";"1.0";"2";"1";"1";"2";"1";"1";"2014-10-07 12:18:42.355";"2014-10-07 12:34:24.199";"1";"1";"1";"129";"128";"module.training_block4.exec-3945.GoNoGo4";;;;;;;;;;;;;;;;;;;;;;;;;;;;;;;;;;;;;;;;;;;;;;;;;;;;;;;;;;;"1248";"2014-10-07 12:27:31.246";"NST_correctLoc";"13";"1";"FINISHED";"RIGHT";"success";"466";"0";"2014-10-07 12:27:29.996";"2";;;;;;;;;;;;;;;;;;;;;
"Amma12";"1995";;"Windows 7";"Rachel's Experiment (D.T.)";"1.0";"2";"1";"1";"2";"1";"1";"2014-10-07 12:18:42.355";"2014-10-07 12:34:24.199";"1";"1";"1";"130";"129";"module.training_block4.exec-3945.GoNoGo4";;;;;;;;;;;;;;;;;;;;;;;;;;;;;;;;;;;;;;;;;;;;;;;;;;;;;;;;;;;"1248";"2014-10-07 12:27:33.746";"NST_correctLoc";"12";"0";"FINISHED";"LEFT";"success";"582";"0";"2014-10-07 12:27:32.496";"2";;;;;;;;;;;;;;;;;;;;;
"Amma12";"1995";;"Windows 7";"Rachel's Experiment (D.T.)";"1.0";"2";"1";"1";"2";"1";"1";"2014-10-07 12:18:42.355";"2014-10-07 12:34:24.199";"1";"1";"1";"131";"130";"module.training_block4.exec-3945.GoNoGo4";;;;;;;;;;;;;;;;;;;;;;;;;;;;;;;;;;;;;;;;;;;;;;;;;;;;;;;;;;;"1248";"2014-10-07 12:27:36.261";"ST_correctStop";"4";"1";"FINISHED";"NONE";"success";"0";"1";"2014-10-07 12:27:35.011";"1";;;;;;;;;;;;;;;;;;;;;
"Amma12";"1995";;"Windows 7";"Rachel's Experiment (D.T.)";"1.0";"2";"1";"1";"2";"1";"1";"2014-10-07 12:18:42.355";"2014-10-07 12:34:24.199";"1";"1";"1";"132";"131";"module.training_block4.exec-3945.GoNoGo4";;;;;;;;;;;;;;;;;;;;;;;;;;;;;;;;;;;;;;;;;;;;;;;;;;;;;;;;;;;"1248";"2014-10-07 12:27:38.761";"NST_correctLoc";"16";"0";"FINISHED";"LEFT";"success";"471";"0";"2014-10-07 12:27:37.511";"2";;;;;;;;;;;;;;;;;;;;;
"Amma12";"1995";;"Windows 7";"Rachel's Experiment (D.T.)";"1.0";"2";"1";"1";"2";"1";"1";"2014-10-07 12:18:42.355";"2014-10-07 12:34:24.199";"1";"1";"1";"133";"132";"module.training_block4.exec-3945.GoNoGo4";;;;;;;;;;;;;;;;;;;;;;;;;;;;;;;;;;;;;;;;;;;;;;;;;;;;;;;;;;;"1248";"2014-10-07 12:27:41.261";"ST_failedStop";"1";"0";"FINISHED";"LEFT";"failure";"515";"1";"2014-10-07 12:27:40.011";"1";;;;;;;;;;;;;;;;;;;;;
"Amma12";"1995";;"Windows 7";"Rachel's Experiment (D.T.)";"1.0";"2";"1";"1";"2";"1";"1";"2014-10-07 12:18:42.355";"2014-10-07 12:34:24.199";"1";"1";"1";"134";"133";"module.training_block4.exec-3945.GoNoGo4";;;;;;;;;;;;;;;;;;;;;;;;;;;;;;;;;;;;;;;;;;;;;;;;;;;;;;;;;;;"1248";"2014-10-07 12:27:43.761";"NST_correctLoc";"27";"0";"FINISHED";"LEFT";"success";"751";"0";"2014-10-07 12:27:42.511";"3";;;;;;;;;;;;;;;;;;;;;
"Amma12";"1995";;"Windows 7";"Rachel's Experiment (D.T.)";"1.0";"2";"1";"1";"2";"1";"1";"2014-10-07 12:18:42.355";"2014-10-07 12:34:24.199";"1";"1";"1";"135";"134";"module.training_block4.exec-3945.GoNoGo4";;;;;;;;;;;;;;;;;;;;;;;;;;;;;;;;;;;;;;;;;;;;;;;;;;;;;;;;;;;"1248";"2014-10-07 12:27:46.261";"ST_correctStop";"28";"1";"FINISHED";"NONE";"success";"0";"1";"2014-10-07 12:27:45.011";"3";;;;;;;;;;;;;;;;;;;;;
"Amma12";"1995";;"Windows 7";"Rachel's Experiment (D.T.)";"1.0";"2";"1";"1";"2";"1";"1";"2014-10-07 12:18:42.355";"2014-10-07 12:34:24.199";"1";"1";"1";"136";"135";"module.training_block4.exec-3945.GoNoGo4";;;;;;;;;;;;;;;;;;;;;;;;;;;;;;;;;;;;;;;;;;;;;;;;;;;;;;;;;;;"1248";"2014-10-07 12:27:48.761";"ST_correctStop";"8";"0";"FINISHED";"NONE";"success";"0";"1";"2014-10-07 12:27:47.511";"1";;;;;;;;;;;;;;;;;;;;;
"Amma12";"1995";;"Windows 7";"Rachel's Experiment (D.T.)";"1.0";"2";"1";"1";"2";"1";"1";"2014-10-07 12:18:42.355";"2014-10-07 12:34:24.199";"1";"1";"1";"137";"136";"module.training_block4.exec-3945.GoNoGo4";;;;;;;;;;;;;;;;;;;;;;;;;;;;;;;;;;;;;;;;;;;;;;;;;;;;;;;;;;;"1248";"2014-10-07 12:27:51.261";"NST_correctLoc";"17";"0";"FINISHED";"LEFT";"success";"563";"0";"2014-10-07 12:27:50.011";"2";;;;;;;;;;;;;;;;;;;;;
"Amma12";"1995";;"Windows 7";"Rachel's Experiment (D.T.)";"1.0";"2";"1";"1";"2";"1";"1";"2014-10-07 12:18:42.355";"2014-10-07 12:34:24.199";"1";"1";"1";"138";"137";"module.training_block4.exec-3945.GoNoGo4";;;;;;;;;;;;;;;;;;;;;;;;;;;;;;;;;;;;;;;;;;;;;;;;;;;;;;;;;;;"1248";"2014-10-07 12:27:53.761";"ST_correctStop";"30";"0";"FINISHED";"NONE";"success";"0";"1";"2014-10-07 12:27:52.511";"3";;;;;;;;;;;;;;;;;;;;;
"Amma12";"1995";;"Windows 7";"Rachel's Experiment (D.T.)";"1.0";"2";"1";"1";"2";"1";"1";"2014-10-07 12:18:42.355";"2014-10-07 12:34:24.199";"1";"1";"1";"139";"138";"module.training_block4.exec-3945.GoNoGo4";;;;;;;;;;;;;;;;;;;;;;;;;;;;;;;;;;;;;;;;;;;;;;;;;;;;;;;;;;;"1248";"2014-10-07 12:27:56.261";"ST_correctStop";"26";"0";"FINISHED";"NONE";"success";"0";"1";"2014-10-07 12:27:55.011";"3";;;;;;;;;;;;;;;;;;;;;
"Amma12";"1995";;"Windows 7";"Rachel's Experiment (D.T.)";"1.0";"2";"1";"1";"2";"1";"1";"2014-10-07 12:18:42.355";"2014-10-07 12:34:24.199";"1";"1";"1";"140";"139";"module.training_block4.exec-3945.GoNoGo4";;;;;;;;;;;;;;;;;;;;;;;;;;;;;;;;;;;;;;;;;;;;;;;;;;;;;;;;;;;"1248";"2014-10-07 12:27:58.761";"ST_correctStop";"7";"1";"FINISHED";"NONE";"success";"0";"1";"2014-10-07 12:27:57.511";"1";;;;;;;;;;;;;;;;;;;;;
"Amma12";"1995";;"Windows 7";"Rachel's Experiment (D.T.)";"1.0";"2";"1";"1";"2";"1";"1";"2014-10-07 12:18:42.355";"2014-10-07 12:34:24.199";"1";"1";"1";"141";"140";"module.training_block4.exec-3945.GoNoGo4";;;;;;;;;;;;;;;;;;;;;;;;;;;;;;;;;;;;;;;;;;;;;;;;;;;;;;;;;;;"1248";"2014-10-07 12:28:01.261";"NST_correctLoc";"18";"0";"FINISHED";"LEFT";"success";"418";"0";"2014-10-07 12:28:00.011";"3";;;;;;;;;;;;;;;;;;;;;
"Amma12";"1995";;"Windows 7";"Rachel's Experiment (D.T.)";"1.0";"2";"1";"1";"2";"1";"1";"2014-10-07 12:18:42.355";"2014-10-07 12:34:24.199";"1";"1";"1";"142";"141";"module.training_block4.exec-3945.GoNoGo4";;;;;;;;;;;;;;;;;;;;;;;;;;;;;;;;;;;;;;;;;;;;;;;;;;;;;;;;;;;"1248";"2014-10-07 12:28:03.761";"NST_correctLoc";"33";"1";"FINISHED";"RIGHT";"success";"606";"0";"2014-10-07 12:28:02.511";"3";;;;;;;;;;;;;;;;;;;;;
"Amma12";"1995";;"Windows 7";"Rachel's Experiment (D.T.)";"1.0";"2";"1";"1";"2";"1";"1";"2014-10-07 12:18:42.355";"2014-10-07 12:34:24.199";"1";"1";"1";"143";"142";"module.training_block4.exec-3945.GoNoGo4";;;;;;;;;;;;;;;;;;;;;;;;;;;;;;;;;;;;;;;;;;;;;;;;;;;;;;;;;;;"1248";"2014-10-07 12:28:06.261";"ST_correctStop";"3";"0";"FINISHED";"NONE";"success";"0";"1";"2014-10-07 12:28:05.011";"1";;;;;;;;;;;;;;;;;;;;;
"Amma12";"1995";;"Windows 7";"Rachel's Experiment (D.T.)";"1.0";"2";"1";"1";"2";"1";"1";"2014-10-07 12:18:42.355";"2014-10-07 12:34:24.199";"1";"1";"1";"144";"143";"module.training_block4.exec-3945.GoNoGo4";;;;;;;;;;;;;;;;;;;;;;;;;;;;;;;;;;;;;;;;;;;;;;;;;;;;;;;;;;;"1248";"2014-10-07 12:28:08.761";"ST_correctStop";"22";"0";"FINISHED";"NONE";"success";"0";"1";"2014-10-07 12:28:07.511";"3";;;;;;;;;;;;;;;;;;;;;
"Amma12";"1995";;"Windows 7";"Rachel's Experiment (D.T.)";"1.0";"2";"1";"1";"2";"1";"1";"2014-10-07 12:18:42.355";"2014-10-07 12:34:24.199";"1";"1";"1";"145";"144";"module.training_block4.exec-3945.GoNoGo4";;;;;;;;;;;;;;;;;;;;;;;;;;;;;;;;;;;;;;;;;;;;;;;;;;;;;;;;;;;"1248";"2014-10-07 12:28:11.261";"NST_correctLoc";"10";"0";"FINISHED";"LEFT";"success";"410";"0";"2014-10-07 12:28:10.011";"2";;;;;;;;;;;;;;;;;;;;;
"Amma12";"1995";;"Windows 7";"Rachel's Experiment (D.T.)";"1.0";"2";"1";"1";"2";"1";"1";"2014-10-07 12:18:42.355";"2014-10-07 12:34:24.199";"1";"1";"1";"146";"145";"module.training_block4.exec-3945.GoNoGo4";;;;;;;;;;;;;;;;;;;;;;;;;;;;;;;;;;;;;;;;;;;;;;;;;;;;;;;;;;;"1248";"2014-10-07 12:28:13.761";"NST_correctLoc";"23";"0";"FINISHED";"LEFT";"success";"638";"0";"2014-10-07 12:28:12.511";"3";;;;;;;;;;;;;;;;;;;;;
"Amma12";"1995";;"Windows 7";"Rachel's Experiment (D.T.)";"1.0";"2";"1";"1";"2";"1";"1";"2014-10-07 12:18:42.355";"2014-10-07 12:34:24.199";"1";"1";"1";"147";"146";"module.training_block4.exec-3945.GoNoGo4";;;;;;;;;;;;;;;;;;;;;;;;;;;;;;;;;;;;;;;;;;;;;;;;;;;;;;;;;;;"1248";"2014-10-07 12:28:16.261";"NST_correctLoc";"11";"1";"FINISHED";"RIGHT";"success";"578";"0";"2014-10-07 12:28:15.011";"2";;;;;;;;;;;;;;;;;;;;;
"Amma12";"1995";;"Windows 7";"Rachel's Experiment (D.T.)";"1.0";"2";"1";"1";"2";"1";"1";"2014-10-07 12:18:42.355";"2014-10-07 12:34:24.199";"1";"1";"1";"148";"147";"module.training_block4.exec-3945.GoNoGo4";;;;;;;;;;;;;;;;;;;;;;;;;;;;;;;;;;;;;;;;;;;;;;;;;;;;;;;;;;;"1248";"2014-10-07 12:28:18.761";"ST_correctStop";"32";"0";"FINISHED";"NONE";"success";"0";"1";"2014-10-07 12:28:17.511";"3";;;;;;;;;;;;;;;;;;;;;
"Amma12";"1995";;"Windows 7";"Rachel's Experiment (D.T.)";"1.0";"2";"1";"1";"2";"1";"1";"2014-10-07 12:18:42.355";"2014-10-07 12:34:24.199";"1";"1";"1";"149";"148";"module.training_block4.exec-3945.GoNoGo4";;;;;;;;;;;;;;;;;;;;;;;;;;;;;;;;;;;;;;;;;;;;;;;;;;;;;;;;;;;"1248";"2014-10-07 12:28:21.261";"ST_failedStop";"2";"1";"FINISHED";"RIGHT";"failure";"474";"1";"2014-10-07 12:28:20.011";"1";;;;;;;;;;;;;;;;;;;;;
"Amma12";"1995";;"Windows 7";"Rachel's Experiment (D.T.)";"1.0";"2";"1";"1";"2";"1";"1";"2014-10-07 12:18:42.355";"2014-10-07 12:34:24.199";"1";"1";"1";"150";"149";"module.training_block4.exec-3945.GoNoGo4";;;;;;;;;;;;;;;;;;;;;;;;;;;;;;;;;;;;;;;;;;;;;;;;;;;;;;;;;;;"1248";"2014-10-07 12:28:23.761";"NST_correctLoc";"21";"1";"FINISHED";"RIGHT";"success";"662";"0";"2014-10-07 12:28:22.511";"3";;;;;;;;;;;;;;;;;;;;;
"Amma12";"1995";;"Windows 7";"Rachel's Experiment (D.T.)";"1.0";"2";"1";"1";"2";"1";"1";"2014-10-07 12:18:42.355";"2014-10-07 12:34:24.199";"1";"1";"1";"151";"150";"module.training_block4.exec-3945.GoNoGo4";;;;;;;;;;;;;;;;;;;;;;;;;;;;;;;;;;;;;;;;;;;;;;;;;;;;;;;;;;;"1248";"2014-10-07 12:28:26.261";"NST_correctLoc";"24";"1";"FINISHED";"RIGHT";"success";"722";"0";"2014-10-07 12:28:25.011";"3";;;;;;;;;;;;;;;;;;;;;
"Amma12";"1995";;"Windows 7";"Rachel's Experiment (D.T.)";"1.0";"2";"1";"1";"2";"1";"1";"2014-10-07 12:18:42.355";"2014-10-07 12:34:24.199";"1";"1";"1";"152";"151";"module.training_block4.exec-3945.GoNoGo4";;;;;;;;;;;;;;;;;;;;;;;;;;;;;;;;;;;;;;;;;;;;;;;;;;;;;;;;;;;"1248";"2014-10-07 12:28:28.761";"ST_correctStop";"0";"0";"FINISHED";"NONE";"success";"0";"1";"2014-10-07 12:28:27.511";"1";;;;;;;;;;;;;;;;;;;;;
"Amma12";"1995";;"Windows 7";"Rachel's Experiment (D.T.)";"1.0";"2";"1";"1";"2";"1";"1";"2014-10-07 12:18:42.355";"2014-10-07 12:34:24.199";"1";"1";"1";"153";"152";"module.training_block4.exec-3945.GoNoGo4";;;;;;;;;;;;;;;;;;;;;;;;;;;;;;;;;;;;;;;;;;;;;;;;;;;;;;;;;;;"1248";"2014-10-07 12:28:31.261";"ST_correctStop";"29";"0";"FINISHED";"NONE";"success";"0";"1";"2014-10-07 12:28:30.011";"3";;;;;;;;;;;;;;;;;;;;;
"Amma12";"1995";;"Windows 7";"Rachel's Experiment (D.T.)";"1.0";"2";"1";"1";"2";"1";"1";"2014-10-07 12:18:42.355";"2014-10-07 12:34:24.199";"1";"1";"1";"154";"153";"module.training_block4.exec-3945.GoNoGo4";;;;;;;;;;;;;;;;;;;;;;;;;;;;;;;;;;;;;;;;;;;;;;;;;;;;;;;;;;;"1248";"2014-10-07 12:28:33.761";"NST_correctLoc";"9";"1";"FINISHED";"RIGHT";"success";"566";"0";"2014-10-07 12:28:32.511";"2";;;;;;;;;;;;;;;;;;;;;
"Amma12";"1995";;"Windows 7";"Rachel's Experiment (D.T.)";"1.0";"2";"1";"1";"2";"1";"1";"2014-10-07 12:18:42.355";"2014-10-07 12:34:24.199";"1";"1";"1";"155";"154";"module.training_block4.exec-3945.GoNoGo4";;;;;;;;;;;;;;;;;;;;;;;;;;;;;;;;;;;;;;;;;;;;;;;;;;;;;;;;;;;"1248";"2014-10-07 12:28:36.261";"NST_correctLoc";"31";"1";"FINISHED";"RIGHT";"success";"746";"0";"2014-10-07 12:28:35.011";"3";;;;;;;;;;;;;;;;;;;;;
"Amma12";"1995";;"Windows 7";"Rachel's Experiment (D.T.)";"1.0";"2";"1";"1";"2";"1";"1";"2014-10-07 12:18:42.355";"2014-10-07 12:34:24.199";"1";"1";"1";"156";"155";"module.training_block4.exec-3945.GoNoGo4";;;;;;;;;;;;;;;;;;;;;;;;;;;;;;;;;;;;;;;;;;;;;;;;;;;;;;;;;;;"1248";"2014-10-07 12:28:38.761";"ST_correctStop";"5";"1";"FINISHED";"NONE";"success";"0";"1";"2014-10-07 12:28:37.511";"1";;;;;;;;;;;;;;;;;;;;;
"Amma12";"1995";;"Windows 7";"Rachel's Experiment (D.T.)";"1.0";"2";"1";"1";"2";"1";"1";"2014-10-07 12:18:42.355";"2014-10-07 12:34:24.199";"1";"1";"1";"157";"156";"module.training_block4.exec-3945.GoNoGo4";;;;;;;;;;;;;;;;;;;;;;;;;;;;;;;;;;;;;;;;;;;;;;;;;;;;;;;;;;;"1248";"2014-10-07 12:28:41.261";"NST_correctLoc";"35";"1";"FINISHED";"RIGHT";"success";"650";"0";"2014-10-07 12:28:40.011";"3";;;;;;;;;;;;;;;;;;;;;
"Amma12";"1995";;"Windows 7";"Rachel's Experiment (D.T.)";"1.0";"2";"1";"1";"2";"1";"1";"2014-10-07 12:18:42.355";"2014-10-07 12:34:24.199";"1";"1";"1";"158";"157";"module.training_block4.exec-3945.GoNoGo4";;;;;;;;;;;;;;;;;;;;;;;;;;;;;;;;;;;;;;;;;;;;;;;;;;;;;;;;;;;"1248";"2014-10-07 12:28:43.761";"ST_correctStop";"34";"0";"FINISHED";"NONE";"success";"0";"1";"2014-10-07 12:28:42.511";"3";;;;;;;;;;;;;;;;;;;;;
"Amma12";"1995";;"Windows 7";"Rachel's Experiment (D.T.)";"1.0";"2";"1";"1";"2";"1";"1";"2014-10-07 12:18:42.355";"2014-10-07 12:34:24.199";"1";"1";"1";"159";"158";"module.training_block4.exec-3945.GoNoGo4";;;;;;;;;;;;;;;;;;;;;;;;;;;;;;;;;;;;;;;;;;;;;;;;;;;;;;;;;;;"1248";"2014-10-07 12:28:46.277";"ST_correctStop";"19";"1";"FINISHED";"NONE";"success";"0";"1";"2014-10-07 12:28:45.027";"3";;;;;;;;;;;;;;;;;;;;;
"Amma12";"1995";;"Windows 7";"Rachel's Experiment (D.T.)";"1.0";"2";"1";"1";"2";"1";"1";"2014-10-07 12:18:42.355";"2014-10-07 12:34:24.199";"1";"1";"1";"160";"159";"module.devaluation_practice.exec-2222.devalPractice";;;;;;;;;;;;"19149";"2014-10-07 12:29:59.949";"0";"5";"4";"8";"3238";"2415";"10490";"2014-10-07 12:29:40.792";;;;;;;;;;;;;;;;;;;;;;;;;;;;;;;;;;;;;;;;;;;;;;;;;;;;;;;;;;;;;;;;;;;;;;
"Amma12";"1995";;"Windows 7";"Rachel's Experiment (D.T.)";"1.0";"2";"1";"1";"2";"1";"1";"2014-10-07 12:18:42.355";"2014-10-07 12:34:24.199";"1";"1";"1";"161";"160";"module.devaluation_practice.exec-2222.devalPractice";;;;;;;;;;;;"8301";"2014-10-07 12:30:08.261";"1";"2";"1";"1";"1660";"1382";"2264";"2014-10-07 12:29:59.964";;;;;;;;;;;;;;;;;;;;;;;;;;;;;;;;;;;;;;;;;;;;;;;;;;;;;;;;;;;;;;;;;;;;;;
"Amma12";"1995";;"Windows 7";"Rachel's Experiment (D.T.)";"1.0";"2";"1";"1";"2";"1";"1";"2014-10-07 12:18:42.355";"2014-10-07 12:34:24.199";"1";"1";"1";"162";"161";"module.devaluation_practice.exec-2222.devalPractice";;;;;;;;;;;;"8030";"2014-10-07 12:30:16.308";"2";"4";"8";"8";"1686";"1961";"1399";"2014-10-07 12:30:08.277";;;;;;;;;;;;;;;;;;;;;;;;;;;;;;;;;;;;;;;;;;;;;;;;;;;;;;;;;;;;;;;;;;;;;;
"Amma12";"1995";;"Windows 7";"Rachel's Experiment (D.T.)";"1.0";"2";"1";"1";"2";"1";"1";"2014-10-07 12:18:42.355";"2014-10-07 12:34:24.199";"1";"1";"1";"163";"162";"module.devaluation_practice.exec-2222.devalPractice";;;;;;;;;;;;"8870";"2014-10-07 12:30:25.199";"3";"4";"8";"7";"1980";"2005";"1912";"2014-10-07 12:30:16.324";;;;;;;;;;;;;;;;;;;;;;;;;;;;;;;;;;;;;;;;;;;;;;;;;;;;;;;;;;;;;;;;;;;;;;
"Amma12";"1995";;"Windows 7";"Rachel's Experiment (D.T.)";"1.0";"2";"1";"1";"2";"1";"1";"2014-10-07 12:18:42.355";"2014-10-07 12:34:24.199";"1";"1";"1";"164";"163";"module.devaluation_block1.exec-2615.deval1";"9086";"2014-10-07 12:30:40.761";"5";"8";"8";"9";"1520";"1886";"2697";"2014-10-07 12:30:31.683";"1";;;;;;;;;;;;;;;;;;;;;;;;;;;;;;;;;;;;;;;;;;;;;;;;;;;;;;;;;;;;;;;;;;;;;;;;;;;;;;;;
"Amma12";"1995";;"Windows 7";"Rachel's Experiment (D.T.)";"1.0";"2";"1";"1";"2";"1";"1";"2014-10-07 12:18:42.355";"2014-10-07 12:34:24.199";"1";"1";"1";"165";"164";"module.devaluation_block1.exec-2615.deval1";"6710";"2014-10-07 12:30:47.496";"12";"5";"7";"7";"667";"1207";"1855";"2014-10-07 12:30:40.792";"2";;;;;;;;;;;;;;;;;;;;;;;;;;;;;;;;;;;;;;;;;;;;;;;;;;;;;;;;;;;;;;;;;;;;;;;;;;;;;;;;
"Amma12";"1995";;"Windows 7";"Rachel's Experiment (D.T.)";"1.0";"2";"1";"1";"2";"1";"1";"2014-10-07 12:18:42.355";"2014-10-07 12:34:24.199";"1";"1";"1";"166";"165";"module.devaluation_block1.exec-2615.deval1";"7453";"2014-10-07 12:30:54.964";"11";"4";"6";"7";"1706";"1017";"1576";"2014-10-07 12:30:47.511";"2";;;;;;;;;;;;;;;;;;;;;;;;;;;;;;;;;;;;;;;;;;;;;;;;;;;;;;;;;;;;;;;;;;;;;;;;;;;;;;;;
"Amma12";"1995";;"Windows 7";"Rachel's Experiment (D.T.)";"1.0";"2";"1";"1";"2";"1";"1";"2014-10-07 12:18:42.355";"2014-10-07 12:34:24.199";"1";"1";"1";"167";"166";"module.devaluation_block1.exec-2615.deval1";"8254";"2014-10-07 12:31:03.246";"8";"6";"1";"3";"2800";"1248";"1231";"2014-10-07 12:30:54.980";"1";;;;;;;;;;;;;;;;;;;;;;;;;;;;;;;;;;;;;;;;;;;;;;;;;;;;;;;;;;;;;;;;;;;;;;;;;;;;;;;;
"Amma12";"1995";;"Windows 7";"Rachel's Experiment (D.T.)";"1.0";"2";"1";"1";"2";"1";"1";"2014-10-07 12:18:42.355";"2014-10-07 12:34:24.199";"1";"1";"1";"168";"167";"module.devaluation_block1.exec-2615.deval1";"7598";"2014-10-07 12:31:10.855";"14";"6";"3";"5";"2255";"1145";"1209";"2014-10-07 12:31:03.261";"2";;;;;;;;;;;;;;;;;;;;;;;;;;;;;;;;;;;;;;;;;;;;;;;;;;;;;;;;;;;;;;;;;;;;;;;;;;;;;;;;
"Amma12";"1995";;"Windows 7";"Rachel's Experiment (D.T.)";"1.0";"2";"1";"1";"2";"1";"1";"2014-10-07 12:18:42.355";"2014-10-07 12:34:24.199";"1";"1";"1";"169";"168";"module.devaluation_block1.exec-2615.deval1";"7429";"2014-10-07 12:31:18.308";"23";"7";"9";"8";"1477";"1593";"1380";"2014-10-07 12:31:10.871";"3";;;;;;;;;;;;;;;;;;;;;;;;;;;;;;;;;;;;;;;;;;;;;;;;;;;;;;;;;;;;;;;;;;;;;;;;;;;;;;;;
"Amma12";"1995";;"Windows 7";"Rachel's Experiment (D.T.)";"1.0";"2";"1";"1";"2";"1";"1";"2014-10-07 12:18:42.355";"2014-10-07 12:34:24.199";"1";"1";"1";"170";"169";"module.devaluation_block1.exec-2615.deval1";"7110";"2014-10-07 12:31:25.433";"22";"7";"9";"7";"1392";"1315";"1405";"2014-10-07 12:31:18.324";"3";;;;;;;;;;;;;;;;;;;;;;;;;;;;;;;;;;;;;;;;;;;;;;;;;;;;;;;;;;;;;;;;;;;;;;;;;;;;;;;;
"Amma12";"1995";;"Windows 7";"Rachel's Experiment (D.T.)";"1.0";"2";"1";"1";"2";"1";"1";"2014-10-07 12:18:42.355";"2014-10-07 12:34:24.199";"1";"1";"1";"171";"170";"module.devaluation_block1.exec-2615.deval1";"7309";"2014-10-07 12:31:32.761";"20";"6";"2";"4";"1123";"1502";"1690";"2014-10-07 12:31:25.449";"3";;;;;;;;;;;;;;;;;;;;;;;;;;;;;;;;;;;;;;;;;;;;;;;;;;;;;;;;;;;;;;;;;;;;;;;;;;;;;;;;
"Amma12";"1995";;"Windows 7";"Rachel's Experiment (D.T.)";"1.0";"2";"1";"1";"2";"1";"1";"2014-10-07 12:18:42.355";"2014-10-07 12:34:24.199";"1";"1";"1";"172";"171";"module.devaluation_block1.exec-2615.deval1";"7853";"2014-10-07 12:31:40.636";"1";"6";"9";"7";"1291";"1890";"1686";"2014-10-07 12:31:32.777";"1";;;;;;;;;;;;;;;;;;;;;;;;;;;;;;;;;;;;;;;;;;;;;;;;;;;;;;;;;;;;;;;;;;;;;;;;;;;;;;;;
"Amma12";"1995";;"Windows 7";"Rachel's Experiment (D.T.)";"1.0";"2";"1";"1";"2";"1";"1";"2014-10-07 12:18:42.355";"2014-10-07 12:34:24.199";"1";"1";"1";"173";"172";"module.devaluation_block1.exec-2615.deval1";"6093";"2014-10-07 12:31:46.746";"25";"7";"9";"8";"1208";"955";"945";"2014-10-07 12:31:40.652";"3";;;;;;;;;;;;;;;;;;;;;;;;;;;;;;;;;;;;;;;;;;;;;;;;;;;;;;;;;;;;;;;;;;;;;;;;;;;;;;;;
"Amma12";"1995";;"Windows 7";"Rachel's Experiment (D.T.)";"1.0";"2";"1";"1";"2";"1";"1";"2014-10-07 12:18:42.355";"2014-10-07 12:34:24.199";"1";"1";"1";"174";"173";"module.devaluation_block1.exec-2615.deval1";"7693";"2014-10-07 12:31:54.449";"18";"6";"7";"9";"1282";"1464";"1957";"2014-10-07 12:31:46.761";"3";;;;;;;;;;;;;;;;;;;;;;;;;;;;;;;;;;;;;;;;;;;;;;;;;;;;;;;;;;;;;;;;;;;;;;;;;;;;;;;;
"Amma12";"1995";;"Windows 7";"Rachel's Experiment (D.T.)";"1.0";"2";"1";"1";"2";"1";"1";"2014-10-07 12:18:42.355";"2014-10-07 12:34:24.199";"1";"1";"1";"175";"174";"module.devaluation_block1.exec-2615.deval1";"6174";"2014-10-07 12:32:00.652";"15";"3";"1";"2";"1028";"1015";"1152";"2014-10-07 12:31:54.480";"2";;;;;;;;;;;;;;;;;;;;;;;;;;;;;;;;;;;;;;;;;;;;;;;;;;;;;;;;;;;;;;;;;;;;;;;;;;;;;;;;
"Amma12";"1995";;"Windows 7";"Rachel's Experiment (D.T.)";"1.0";"2";"1";"1";"2";"1";"1";"2014-10-07 12:18:42.355";"2014-10-07 12:34:24.199";"1";"1";"1";"176";"175";"module.devaluation_block1.exec-2615.deval1";"10430";"2014-10-07 12:32:11.089";"13";"6";"4";"6";"2496";"3276";"1672";"2014-10-07 12:32:00.667";"2";;;;;;;;;;;;;;;;;;;;;;;;;;;;;;;;;;;;;;;;;;;;;;;;;;;;;;;;;;;;;;;;;;;;;;;;;;;;;;;;
"Amma12";"1995";;"Windows 7";"Rachel's Experiment (D.T.)";"1.0";"2";"1";"1";"2";"1";"1";"2014-10-07 12:18:42.355";"2014-10-07 12:34:24.199";"1";"1";"1";"177";"176";"module.devaluation_block1.exec-2615.deval1";"9636";"2014-10-07 12:32:20.746";"21";"4";"7";"7";"2827";"2354";"1459";"2014-10-07 12:32:11.121";"3";;;;;;;;;;;;;;;;;;;;;;;;;;;;;;;;;;;;;;;;;;;;;;;;;;;;;;;;;;;;;;;;;;;;;;;;;;;;;;;;
"Amma12";"1995";;"Windows 7";"Rachel's Experiment (D.T.)";"1.0";"2";"1";"1";"2";"1";"1";"2014-10-07 12:18:42.355";"2014-10-07 12:34:24.199";"1";"1";"1";"178";"177";"module.devaluation_block1.exec-2615.deval1";"6157";"2014-10-07 12:32:26.933";"16";"4";"1";"2";"1106";"952";"1108";"2014-10-07 12:32:20.761";"2";;;;;;;;;;;;;;;;;;;;;;;;;;;;;;;;;;;;;;;;;;;;;;;;;;;;;;;;;;;;;;;;;;;;;;;;;;;;;;;;
"Amma12";"1995";;"Windows 7";"Rachel's Experiment (D.T.)";"1.0";"2";"1";"1";"2";"1";"1";"2014-10-07 12:18:42.355";"2014-10-07 12:34:24.199";"1";"1";"1";"179";"178";"module.devaluation_block1.exec-2615.deval1";"7101";"2014-10-07 12:32:34.042";"4";"7";"8";"8";"1183";"1384";"1559";"2014-10-07 12:32:26.949";"1";;;;;;;;;;;;;;;;;;;;;;;;;;;;;;;;;;;;;;;;;;;;;;;;;;;;;;;;;;;;;;;;;;;;;;;;;;;;;;;;
"Amma12";"1995";;"Windows 7";"Rachel's Experiment (D.T.)";"1.0";"2";"1";"1";"2";"1";"1";"2014-10-07 12:18:42.355";"2014-10-07 12:34:24.199";"1";"1";"1";"180";"179";"module.devaluation_block1.exec-2615.deval1";"6029";"2014-10-07 12:32:40.089";"6";"5";"1";"3";"1025";"995";"1038";"2014-10-07 12:32:34.058";"1";;;;;;;;;;;;;;;;;;;;;;;;;;;;;;;;;;;;;;;;;;;;;;;;;;;;;;;;;;;;;;;;;;;;;;;;;;;;;;;;
"Amma12";"1995";;"Windows 7";"Rachel's Experiment (D.T.)";"1.0";"2";"1";"1";"2";"1";"1";"2014-10-07 12:18:42.355";"2014-10-07 12:34:24.199";"1";"1";"1";"181";"180";"module.devaluation_block1.exec-2615.deval1";"8526";"2014-10-07 12:32:48.636";"3";"8";"9";"9";"2362";"1054";"2127";"2014-10-07 12:32:40.105";"1";;;;;;;;;;;;;;;;;;;;;;;;;;;;;;;;;;;;;;;;;;;;;;;;;;;;;;;;;;;;;;;;;;;;;;;;;;;;;;;;
"Amma12";"1995";;"Windows 7";"Rachel's Experiment (D.T.)";"1.0";"2";"1";"1";"2";"1";"1";"2014-10-07 12:18:42.355";"2014-10-07 12:34:24.199";"1";"1";"1";"182";"181";"module.devaluation_block1.exec-2615.deval1";"7006";"2014-10-07 12:32:55.667";"7";"3";"3";"1";"1744";"1094";"1197";"2014-10-07 12:32:48.652";"1";;;;;;;;;;;;;;;;;;;;;;;;;;;;;;;;;;;;;;;;;;;;;;;;;;;;;;;;;;;;;;;;;;;;;;;;;;;;;;;;
"Amma12";"1995";;"Windows 7";"Rachel's Experiment (D.T.)";"1.0";"2";"1";"1";"2";"1";"1";"2014-10-07 12:18:42.355";"2014-10-07 12:34:24.199";"1";"1";"1";"183";"182";"module.devaluation_block1.exec-2615.deval1";"11670";"2014-10-07 12:33:07.355";"10";"7";"5";"5";"2088";"1625";"4966";"2014-10-07 12:32:55.683";"2";;;;;;;;;;;;;;;;;;;;;;;;;;;;;;;;;;;;;;;;;;;;;;;;;;;;;;;;;;;;;;;;;;;;;;;;;;;;;;;;
"Amma12";"1995";;"Windows 7";"Rachel's Experiment (D.T.)";"1.0";"2";"1";"1";"2";"1";"1";"2014-10-07 12:18:42.355";"2014-10-07 12:34:24.199";"1";"1";"1";"184";"183";"module.devaluation_block1.exec-2615.deval1";"8845";"2014-10-07 12:33:16.214";"9";"3";"2";"3";"1337";"2943";"1581";"2014-10-07 12:33:07.371";"2";;;;;;;;;;;;;;;;;;;;;;;;;;;;;;;;;;;;;;;;;;;;;;;;;;;;;;;;;;;;;;;;;;;;;;;;;;;;;;;;
"Amma12";"1995";;"Windows 7";"Rachel's Experiment (D.T.)";"1.0";"2";"1";"1";"2";"1";"1";"2014-10-07 12:18:42.355";"2014-10-07 12:34:24.199";"1";"1";"1";"185";"184";"module.devaluation_block1.exec-2615.deval1";"30605";"2014-10-07 12:33:46.839";"0";"6";"2";"4";"25509";"1051";"1069";"2014-10-07 12:33:16.230";"1";;;;;;;;;;;;;;;;;;;;;;;;;;;;;;;;;;;;;;;;;;;;;;;;;;;;;;;;;;;;;;;;;;;;;;;;;;;;;;;;
"Amma12";"1995";;"Windows 7";"Rachel's Experiment (D.T.)";"1.0";"2";"1";"1";"2";"1";"1";"2014-10-07 12:18:42.355";"2014-10-07 12:34:24.199";"1";"1";"1";"186";"185";"module.devaluation_block1.exec-2615.deval1";"5556";"2014-10-07 12:33:52.417";"17";"3";"1";"3";"972";"830";"767";"2014-10-07 12:33:46.855";"2";;;;;;;;;;;;;;;;;;;;;;;;;;;;;;;;;;;;;;;;;;;;;;;;;;;;;;;;;;;;;;;;;;;;;;;;;;;;;;;;
"Amma12";"1995";;"Windows 7";"Rachel's Experiment (D.T.)";"1.0";"2";"1";"1";"2";"1";"1";"2014-10-07 12:18:42.355";"2014-10-07 12:34:24.199";"1";"1";"1";"187";"186";"module.devaluation_block1.exec-2615.deval1";"6221";"2014-10-07 12:33:58.652";"24";"7";"8";"7";"994";"976";"1270";"2014-10-07 12:33:52.433";"3";;;;;;;;;;;;;;;;;;;;;;;;;;;;;;;;;;;;;;;;;;;;;;;;;;;;;;;;;;;;;;;;;;;;;;;;;;;;;;;;
"Amma12";"1995";;"Windows 7";"Rachel's Experiment (D.T.)";"1.0";"2";"1";"1";"2";"1";"1";"2014-10-07 12:18:42.355";"2014-10-07 12:34:24.199";"1";"1";"1";"188";"187";"module.devaluation_block1.exec-2615.deval1";"6013";"2014-10-07 12:34:04.683";"26";"7";"8";"8";"832";"1008";"1191";"2014-10-07 12:33:58.667";"3";;;;;;;;;;;;;;;;;;;;;;;;;;;;;;;;;;;;;;;;;;;;;;;;;;;;;;;;;;;;;;;;;;;;;;;;;;;;;;;;
"Amma12";"1995";;"Windows 7";"Rachel's Experiment (D.T.)";"1.0";"2";"1";"1";"2";"1";"1";"2014-10-07 12:18:42.355";"2014-10-07 12:34:24.199";"1";"1";"1";"189";"188";"module.devaluation_block1.exec-2615.deval1";"9645";"2014-10-07 12:34:14.355";"2";"7";"8";"3";"3272";"1594";"1803";"2014-10-07 12:34:04.699";"1";;;;;;;;;;;;;;;;;;;;;;;;;;;;;;;;;;;;;;;;;;;;;;;;;;;;;;;;;;;;;;;;;;;;;;;;;;;;;;;;
"Amma12";"1995";;"Windows 7";"Rachel's Experiment (D.T.)";"1.0";"2";"1";"1";"2";"1";"1";"2014-10-07 12:18:42.355";"2014-10-07 12:34:24.199";"1";"1";"1";"190";"189";"module.devaluation_block1.exec-2615.deval1";"7077";"2014-10-07 12:34:21.449";"19";"7";"7";"3";"1664";"1440";"988";"2014-10-07 12:34:14.371";"3";;;;;;;;;;;;;;;;;;;;;;;;;;;;;;;;;;;;;;;;;;;;;;;;;;;;;;;;;;;;;;;;;;;;;;;;;;;;;;;;
